key_resp.keys,key_resp.rt,key_resp_14.keys,key_resp_14.rt,key_resp_15.keys,key_resp_15.rt,key_resp_17.keys,key_resp_17.rt,key_resp_9.keys,key_resp_9.rt,key_resp_10.keys,key_resp_10.rt,practice_comparison,Ecc,mouse_5.x,mouse_5.y,mouse_5.leftButton,mouse_5.midButton,mouse_5.rightButton,mouse_5.clicked_name,pracsimilarity,response_time,mouse_10.x,mouse_10.y,mouse_10.leftButton,mouse_10.midButton,mouse_10.rightButton,mouse_10.clicked_name,mouse_7.x,mouse_7.y,mouse_7.leftButton,mouse_7.midButton,mouse_7.rightButton,mouse_6.x,mouse_6.y,mouse_6.leftButton,mouse_6.midButton,mouse_6.rightButton,duringprac.thisRepN,duringprac.thisTrialN,duringprac.thisN,duringprac.thisIndex,duringprac.ran,participant,session,date,expName,psychopyVersion,OS,frameRate,study_id,mouse_7.clicked_name,catchpracsimilarity,catch_response_time,catchnumberprac,catchtrialorderprac,mouse_6.clicked_name,key_resp_22.keys,key_resp_22.rt,realcomparison,mouse.x,mouse.y,mouse.leftButton,mouse.midButton,mouse.rightButton,mouse.clicked_name,Colour2,similarity,mouse_2.x,mouse_2.y,mouse_2.leftButton,mouse_2.midButton,mouse_2.rightButton,mouse_2.clicked_name,mouse_3.x,mouse_3.y,mouse_3.leftButton,mouse_3.midButton,mouse_3.rightButton,mouse_3.clicked_name,catchornah,catchsimilarity,catchnumber,catchtrialorder,catchRT,mouse_11.x,mouse_11.y,mouse_11.leftButton,mouse_11.midButton,mouse_11.rightButton,mouse_11.clicked_name,trials_2.thisRepN,trials_2.thisTrialN,trials_2.thisN,trials_2.thisIndex,trials_2.ran,Colour1
space,0.914,space,1.673,space,10.934,space,5.445,space,0.759,space,2.496,128,FF,-34,-68,1,0,0,response5disk_5,3,6.368,2,2,1,0,0,rectangle_8,2,2,1,0,0,2,2,1,0,0,0,0,0,0,1,59bd3c6e3a9ab60001119ae5,61036c2406437e30c4945f1a,2021-07-29_23h08.59.840,Simcolourproject_2stim_asymm_v5,2020.2.10,MacIntel,60,61025ae37ef11b136ea224fe,,,,,,,,,,,,,,,,,,,,,,,,,,,,,,,,,,,,,,,,,,,,,,
,,,,,,,,,,,,131,PF,-28,78,1,0,0,response7disk_5,0,1.499,9,-3,1,0,0,rectangle_8,-44,85,1,0,0,-2,15,1,0,0,0,1,1,6,1,59bd3c6e3a9ab60001119ae5,61036c2406437e30c4945f1a,2021-07-29_23h08.59.840,Simcolourproject_2stim_asymm_v5,2020.2.10,MacIntel,60,61025ae37ef11b136ea224fe,response7disk_7,0,2.049,0,"[2,5]",rectangle_4,,,,,,,,,,,,,,,,,,,,,,,,,,,,,,,,,,,,,,,,
,,,,,,,,,,,,136,PF,72,-32,1,0,0,response3disk_5,5,6.65,-10,0,1,0,0,rectangle_8,-10,0,1,0,0,-10,0,1,0,0,0,2,2,4,1,59bd3c6e3a9ab60001119ae5,61036c2406437e30c4945f1a,2021-07-29_23h08.59.840,Simcolourproject_2stim_asymm_v5,2020.2.10,MacIntel,60,61025ae37ef11b136ea224fe,,,,,,,,,,,,,,,,,,,,,,,,,,,,,,,,,,,,,,,,,,,,,,
,,,,,,,,,,,,111,FF,75,52,1,0,0,response1disk_5,6,3.65,2,1,1,0,0,rectangle_8,2,1,1,0,0,2,1,1,0,0,0,3,3,3,1,59bd3c6e3a9ab60001119ae5,61036c2406437e30c4945f1a,2021-07-29_23h08.59.840,Simcolourproject_2stim_asymm_v5,2020.2.10,MacIntel,60,61025ae37ef11b136ea224fe,,,,,,,,,,,,,,,,,,,,,,,,,,,,,,,,,,,,,,,,,,,,,,
,,,,,,,,,,,,79,PF,-28,-75,1,0,0,response5disk_5,3,1.55,1,-11,1,0,0,rectangle_8,-33,70,1,0,0,-7,8,1,0,0,0,4,4,2,1,59bd3c6e3a9ab60001119ae5,61036c2406437e30c4945f1a,2021-07-29_23h08.59.840,Simcolourproject_2stim_asymm_v5,2020.2.10,MacIntel,60,61025ae37ef11b136ea224fe,response7disk_7,0,1.682,0,"[2,5]",rectangle_4,,,,,,,,,,,,,,,,,,,,,,,,,,,,,,,,,,,,,,,,
,,,,,,,,,,,,104,PF,40,65,1,0,0,response1disk_5,7,1.35,-4,2,1,0,0,rectangle_8,-4,2,1,0,0,-4,2,1,0,0,0,5,5,1,1,59bd3c6e3a9ab60001119ae5,61036c2406437e30c4945f1a,2021-07-29_23h08.59.840,Simcolourproject_2stim_asymm_v5,2020.2.10,MacIntel,60,61025ae37ef11b136ea224fe,,,,,,,,,,,,,,,,,,,,,,,,,,,,,,,,,,,,,,,,,,,,,,
,,,,,,,,,,,,53,FF,23,-72,1,0,0,response3disk_5,4,1.283,-7,-15,1,0,0,rectangle_8,-7,-15,1,0,0,-7,-15,1,0,0,0,6,6,5,1,59bd3c6e3a9ab60001119ae5,61036c2406437e30c4945f1a,2021-07-29_23h08.59.840,Simcolourproject_2stim_asymm_v5,2020.2.10,MacIntel,60,61025ae37ef11b136ea224fe,,,,,,,,,,,,,,,,,,,,,,,,,,,,,,,,,,,,,,,,,,,,,,
,,,,,,,,,,,,,FF,,,,,,,,1.067,,,,,,,,,,,,,,,,,,,,,,59bd3c6e3a9ab60001119ae5,61036c2406437e30c4945f1a,2021-07-29_23h08.59.840,Simcolourproject_2stim_asymm_v5,2020.2.10,MacIntel,60,61025ae37ef11b136ea224fe,,,,,,,space,2.509,3274,40,67,1,0,0,response1disk,,7,11,3,1,0,0,rectangle,-42,93,1,0,0,response7disk_3,TRUE,0,0,"[311,289,39,140,223,64,238,151,173,89,112,70,147,32,48,96,1,2,174,28]",1.149,0,0,1,0,0,rectangle,0,0,0,80,1,
,,,,,,,,,,,,,FF,,,,,,,,1.667,,,,,,,,,,,,,,,,,,,,,,59bd3c6e3a9ab60001119ae5,61036c2406437e30c4945f1a,2021-07-29_23h08.59.840,Simcolourproject_2stim_asymm_v5,2020.2.10,MacIntel,60,61025ae37ef11b136ea224fe,,,,,,,,,1072,-36,-89,1,0,0,response5disk,,3,5,5,1,0,0,rectangle,72,31,1,0,0,response1disk_3,TRUE,6,6,"[311,289,39,140,223,64,238,151,173,89,112,70,147,32,48,96,1,2,174,28]",1.783,-12,-11,1,0,0,rectangle,0,1,1,103,1,
,,,,,,,,,,,,,FF,,,,,,,,1.082,,,,,,,,,,,,,,,,,,,,,,59bd3c6e3a9ab60001119ae5,61036c2406437e30c4945f1a,2021-07-29_23h08.59.840,Simcolourproject_2stim_asymm_v5,2020.2.10,MacIntel,60,61025ae37ef11b136ea224fe,,,,,,,,,1230,-36,-76,1,0,0,response5disk,,3,-2,0,1,0,0,rectangle,-2,0,1,0,0,,,,,,,-2,0,1,0,0,,0,2,2,151,1,
,,,,,,,,,,,,,FF,,,,,,,,1.283,,,,,,,,,,,,,,,,,,,,,,59bd3c6e3a9ab60001119ae5,61036c2406437e30c4945f1a,2021-07-29_23h08.59.840,Simcolourproject_2stim_asymm_v5,2020.2.10,MacIntel,60,61025ae37ef11b136ea224fe,,,,,,,,,2552,45,-61,1,0,0,response3disk,,4,-2,-4,1,0,0,rectangle,-2,-4,1,0,0,,,,,,,-2,-4,1,0,0,,0,3,3,36,1,
,,,,,,,,,,,,,FF,,,,,,,,0.916,,,,,,,,,,,,,,,,,,,,,,59bd3c6e3a9ab60001119ae5,61036c2406437e30c4945f1a,2021-07-29_23h08.59.840,Simcolourproject_2stim_asymm_v5,2020.2.10,MacIntel,60,61025ae37ef11b136ea224fe,,,,,,,,,4267,-71,-36,1,0,0,response5disk,,2,3,-3,1,0,0,rectangle,3,-3,1,0,0,,,,,,,3,-3,1,0,0,,0,4,4,90,1,
,,,,,,,,,,,,,FF,,,,,,,,0.733,,,,,,,,,,,,,,,,,,,,,,59bd3c6e3a9ab60001119ae5,61036c2406437e30c4945f1a,2021-07-29_23h08.59.840,Simcolourproject_2stim_asymm_v5,2020.2.10,MacIntel,60,61025ae37ef11b136ea224fe,,,,,,,,,1943,77,34,1,0,0,response1disk,,6,13,1,1,0,0,rectangle,13,1,1,0,0,,,,,,,13,1,1,0,0,,0,5,5,112,1,
,,,,,,,,,,,,,FF,,,,,,,,1.316,,,,,,,,,,,,,,,,,,,,,,59bd3c6e3a9ab60001119ae5,61036c2406437e30c4945f1a,2021-07-29_23h08.59.840,Simcolourproject_2stim_asymm_v5,2020.2.10,MacIntel,60,61025ae37ef11b136ea224fe,,,,,,,,,3245,-70,37,1,0,0,response7disk,,1,-10,5,1,0,0,rectangle,-10,5,1,0,0,,,,,,,-10,5,1,0,0,,0,6,6,48,1,
,,,,,,,,,,,,,FF,,,,,,,,1.2,,,,,,,,,,,,,,,,,,,,,,59bd3c6e3a9ab60001119ae5,61036c2406437e30c4945f1a,2021-07-29_23h08.59.840,Simcolourproject_2stim_asymm_v5,2020.2.10,MacIntel,60,61025ae37ef11b136ea224fe,,,,,,,,,2192,43,65,1,0,0,response1disk,,7,16,7,1,0,0,rectangle,16,7,1,0,0,,,,,,,16,7,1,0,0,,0,7,7,96,1,
,,,,,,,,,,,,,FF,,,,,,,,1.917,,,,,,,,,,,,,,,,,,,,,,59bd3c6e3a9ab60001119ae5,61036c2406437e30c4945f1a,2021-07-29_23h08.59.840,Simcolourproject_2stim_asymm_v5,2020.2.10,MacIntel,60,61025ae37ef11b136ea224fe,,,,,,,,,3708,-73,34,1,0,0,response7disk,,1,-18,-8,1,0,0,rectangle,-18,-8,1,0,0,,,,,,,-18,-8,1,0,0,,0,8,8,155,1,
,,,,,,,,,,,,,FF,,,,,,,,0.949,,,,,,,,,,,,,,,,,,,,,,59bd3c6e3a9ab60001119ae5,61036c2406437e30c4945f1a,2021-07-29_23h08.59.840,Simcolourproject_2stim_asymm_v5,2020.2.10,MacIntel,60,61025ae37ef11b136ea224fe,,,,,,,,,3149,-79,36,1,0,0,response7disk,,1,-2,9,1,0,0,rectangle,-2,9,1,0,0,,,,,,,-2,9,1,0,0,,0,9,9,146,1,
,,,,,,,,,,,,,FF,,,,,,,,0.784,,,,,,,,,,,,,,,,,,,,,,59bd3c6e3a9ab60001119ae5,61036c2406437e30c4945f1a,2021-07-29_23h08.59.840,Simcolourproject_2stim_asymm_v5,2020.2.10,MacIntel,60,61025ae37ef11b136ea224fe,,,,,,,,,2962,63,38,1,0,0,response1disk,,6,5,3,1,0,0,rectangle,5,3,1,0,0,,,,,,,5,3,1,0,0,,0,10,10,8,1,
,,,,,,,,,,,,,FF,,,,,,,,0.75,,,,,,,,,,,,,,,,,,,,,,59bd3c6e3a9ab60001119ae5,61036c2406437e30c4945f1a,2021-07-29_23h08.59.840,Simcolourproject_2stim_asymm_v5,2020.2.10,MacIntel,60,61025ae37ef11b136ea224fe,,,,,,,,,2167,-53,34,1,0,0,response7disk,,1,0,9,1,0,0,rectangle,0,9,1,0,0,,,,,,,0,9,1,0,0,,0,11,11,89,1,
,,,,,,,,,,,,,FF,,,,,,,,0.849,,,,,,,,,,,,,,,,,,,,,,59bd3c6e3a9ab60001119ae5,61036c2406437e30c4945f1a,2021-07-29_23h08.59.840,Simcolourproject_2stim_asymm_v5,2020.2.10,MacIntel,60,61025ae37ef11b136ea224fe,,,,,,,,,1224,-32,-45,1,0,0,response5disk,,3,-1,-14,1,0,0,rectangle,-1,-14,1,0,0,,,,,,,-1,-14,1,0,0,,0,12,12,156,1,
,,,,,,,,,,,,,FF,,,,,,,,0.833,,,,,,,,,,,,,,,,,,,,,,59bd3c6e3a9ab60001119ae5,61036c2406437e30c4945f1a,2021-07-29_23h08.59.840,Simcolourproject_2stim_asymm_v5,2020.2.10,MacIntel,60,61025ae37ef11b136ea224fe,,,,,,,,,1849,66,36,1,0,0,response1disk,,6,3,10,1,0,0,rectangle,3,10,1,0,0,,,,,,,3,10,1,0,0,,0,13,13,6,1,
,,,,,,,,,,,,,FF,,,,,,,,1.216,,,,,,,,,,,,,,,,,,,,,,59bd3c6e3a9ab60001119ae5,61036c2406437e30c4945f1a,2021-07-29_23h08.59.840,Simcolourproject_2stim_asymm_v5,2020.2.10,MacIntel,60,61025ae37ef11b136ea224fe,,,,,,,,,1589,46,70,1,0,0,response1disk,,7,17,-2,1,0,0,rectangle,17,-2,1,0,0,,,,,,,17,-2,1,0,0,,0,14,14,135,1,
,,,,,,,,,,,,,FF,,,,,,,,1.017,,,,,,,,,,,,,,,,,,,,,,59bd3c6e3a9ab60001119ae5,61036c2406437e30c4945f1a,2021-07-29_23h08.59.840,Simcolourproject_2stim_asymm_v5,2020.2.10,MacIntel,60,61025ae37ef11b136ea224fe,,,,,,,,,2154,25,51,1,0,0,response1disk,,7,-6,-6,1,0,0,rectangle,-6,-6,1,0,0,,,,,,,-6,-6,1,0,0,,0,15,15,63,1,
,,,,,,,,,,,,,FF,,,,,,,,0.983,,,,,,,,,,,,,,,,,,,,,,59bd3c6e3a9ab60001119ae5,61036c2406437e30c4945f1a,2021-07-29_23h08.59.840,Simcolourproject_2stim_asymm_v5,2020.2.10,MacIntel,60,61025ae37ef11b136ea224fe,,,,,,,,,1277,66,-34,1,0,0,response3disk,,5,1,1,1,0,0,rectangle,1,1,1,0,0,,,,,,,1,1,1,0,0,,0,16,16,149,1,
,,,,,,,,,,,,,FF,,,,,,,,0.75,,,,,,,,,,,,,,,,,,,,,,59bd3c6e3a9ab60001119ae5,61036c2406437e30c4945f1a,2021-07-29_23h08.59.840,Simcolourproject_2stim_asymm_v5,2020.2.10,MacIntel,60,61025ae37ef11b136ea224fe,,,,,,,,,4133,49,65,1,0,0,response1disk,,7,3,-7,1,0,0,rectangle,3,-7,1,0,0,,,,,,,3,-7,1,0,0,,0,17,17,114,1,
,,,,,,,,,,,,,FF,,,,,,,,0.85,,,,,,,,,,,,,,,,,,,,,,59bd3c6e3a9ab60001119ae5,61036c2406437e30c4945f1a,2021-07-29_23h08.59.840,Simcolourproject_2stim_asymm_v5,2020.2.10,MacIntel,60,61025ae37ef11b136ea224fe,,,,,,,,,3764,58,35,1,0,0,response1disk,,6,-2,3,1,0,0,rectangle,-2,3,1,0,0,,,,,,,-2,3,1,0,0,,0,18,18,82,1,
,,,,,,,,,,,,,FF,,,,,,,,0.783,,,,,,,,,,,,,,,,,,,,,,59bd3c6e3a9ab60001119ae5,61036c2406437e30c4945f1a,2021-07-29_23h08.59.840,Simcolourproject_2stim_asymm_v5,2020.2.10,MacIntel,60,61025ae37ef11b136ea224fe,,,,,,,,,897,75,26,1,0,0,response1disk,,6,-2,-8,1,0,0,rectangle,-2,-8,1,0,0,,,,,,,-2,-8,1,0,0,,0,19,19,12,1,
,,,,,,,,,,,,,FF,,,,,,,,0.965,,,,,,,,,,,,,,,,,,,,,,59bd3c6e3a9ab60001119ae5,61036c2406437e30c4945f1a,2021-07-29_23h08.59.840,Simcolourproject_2stim_asymm_v5,2020.2.10,MacIntel,60,61025ae37ef11b136ea224fe,,,,,,,,,822,68,42,1,0,0,response1disk,,6,17,15,1,0,0,rectangle,17,15,1,0,0,,,,,,,17,15,1,0,0,,0,20,20,116,1,
,,,,,,,,,,,,,FF,,,,,,,,0.549,,,,,,,,,,,,,,,,,,,,,,59bd3c6e3a9ab60001119ae5,61036c2406437e30c4945f1a,2021-07-29_23h08.59.840,Simcolourproject_2stim_asymm_v5,2020.2.10,MacIntel,60,61025ae37ef11b136ea224fe,,,,,,,,,1362,76,65,1,0,0,response1disk,,6,-19,7,1,0,0,rectangle,-19,7,1,0,0,,,,,,,-19,7,1,0,0,,0,21,21,17,1,
,,,,,,,,,,,,,FF,,,,,,,,0.848,,,,,,,,,,,,,,,,,,,,,,59bd3c6e3a9ab60001119ae5,61036c2406437e30c4945f1a,2021-07-29_23h08.59.840,Simcolourproject_2stim_asymm_v5,2020.2.10,MacIntel,60,61025ae37ef11b136ea224fe,,,,,,,,,224,37,73,1,0,0,response1disk,,7,0,7,1,0,0,rectangle,0,7,1,0,0,,,,,,,0,7,1,0,0,,0,22,22,32,1,
,,,,,,,,,,,,,FF,,,,,,,,1.084,,,,,,,,,,,,,,,,,,,,,,59bd3c6e3a9ab60001119ae5,61036c2406437e30c4945f1a,2021-07-29_23h08.59.840,Simcolourproject_2stim_asymm_v5,2020.2.10,MacIntel,60,61025ae37ef11b136ea224fe,,,,,,,,,753,36,80,1,0,0,response1disk,,7,-7,-7,1,0,0,rectangle,-7,-7,1,0,0,,,,,,,-7,-7,1,0,0,,0,23,23,59,1,
,,,,,,,,,,,,,FF,,,,,,,,1,,,,,,,,,,,,,,,,,,,,,,59bd3c6e3a9ab60001119ae5,61036c2406437e30c4945f1a,2021-07-29_23h08.59.840,Simcolourproject_2stim_asymm_v5,2020.2.10,MacIntel,60,61025ae37ef11b136ea224fe,,,,,,,,,3701,69,-26,1,0,0,response3disk,,5,0,-9,1,0,0,rectangle,0,-9,1,0,0,,,,,,,0,-9,1,0,0,,0,24,24,143,1,
,,,,,,,,,,,,,FF,,,,,,,,1.132,,,,,,,,,,,,,,,,,,,,,,59bd3c6e3a9ab60001119ae5,61036c2406437e30c4945f1a,2021-07-29_23h08.59.840,Simcolourproject_2stim_asymm_v5,2020.2.10,MacIntel,60,61025ae37ef11b136ea224fe,,,,,,,,,2142,57,57,1,0,0,response1disk,,7,2,-7,1,0,0,rectangle,2,-7,1,0,0,,,,,,,2,-7,1,0,0,,0,25,25,61,1,
,,,,,,,,,,,,,FF,,,,,,,,0.967,,,,,,,,,,,,,,,,,,,,,,59bd3c6e3a9ab60001119ae5,61036c2406437e30c4945f1a,2021-07-29_23h08.59.840,Simcolourproject_2stim_asymm_v5,2020.2.10,MacIntel,60,61025ae37ef11b136ea224fe,,,,,,,,,155,58,-39,1,0,0,response3disk,,5,11,-7,1,0,0,rectangle,11,-7,1,0,0,,,,,,,11,-7,1,0,0,,0,26,26,69,1,
,,,,,,,,,,,,,FF,,,,,,,,0.699,,,,,,,,,,,,,,,,,,,,,,59bd3c6e3a9ab60001119ae5,61036c2406437e30c4945f1a,2021-07-29_23h08.59.840,Simcolourproject_2stim_asymm_v5,2020.2.10,MacIntel,60,61025ae37ef11b136ea224fe,,,,,,,,,1793,35,69,1,0,0,response1disk,,7,9,5,1,0,0,rectangle,58,44,1,0,0,response1disk_3,TRUE,6,6,"[311,289,39,140,223,64,238,151,173,89,112,70,147,32,48,96,1,2,174,28]",1.431,-4,-5,1,0,0,rectangle,0,27,27,102,1,
,,,,,,,,,,,,,FF,,,,,,,,2.783,,,,,,,,,,,,,,,,,,,,,,59bd3c6e3a9ab60001119ae5,61036c2406437e30c4945f1a,2021-07-29_23h08.59.840,Simcolourproject_2stim_asymm_v5,2020.2.10,MacIntel,60,61025ae37ef11b136ea224fe,,,,,,,,,432,76,34,1,0,0,response1disk,,6,-7,-7,1,0,0,rectangle,-7,-7,1,0,0,,,,,,,-7,-7,1,0,0,,0,28,28,66,1,
,,,,,,,,,,,,,FF,,,,,,,,1.782,,,,,,,,,,,,,,,,,,,,,,59bd3c6e3a9ab60001119ae5,61036c2406437e30c4945f1a,2021-07-29_23h08.59.840,Simcolourproject_2stim_asymm_v5,2020.2.10,MacIntel,60,61025ae37ef11b136ea224fe,,,,,,,,,3529,-35,-53,1,0,0,response5disk,,3,0,-11,1,0,0,rectangle,0,-11,1,0,0,,,,,,,0,-11,1,0,0,,0,29,29,58,1,
,,,,,,,,,,,,,FF,,,,,,,,0.833,,,,,,,,,,,,,,,,,,,,,,59bd3c6e3a9ab60001119ae5,61036c2406437e30c4945f1a,2021-07-29_23h08.59.840,Simcolourproject_2stim_asymm_v5,2020.2.10,MacIntel,60,61025ae37ef11b136ea224fe,,,,,,,,,1508,79,28,1,0,0,response1disk,,6,-11,7,1,0,0,rectangle,-11,7,1,0,0,,,,,,,-11,7,1,0,0,,0,30,30,107,1,
,,,,,,,,,,,,,FF,,,,,,,,0.666,,,,,,,,,,,,,,,,,,,,,,59bd3c6e3a9ab60001119ae5,61036c2406437e30c4945f1a,2021-07-29_23h08.59.840,Simcolourproject_2stim_asymm_v5,2020.2.10,MacIntel,60,61025ae37ef11b136ea224fe,,,,,,,,,2127,43,74,1,0,0,response1disk,,7,15,3,1,0,0,rectangle,-38,88,1,0,0,response7disk_3,TRUE,0,0,"[311,289,39,140,223,64,238,151,173,89,112,70,147,32,48,96,1,2,174,28]",1.066,-9,-8,1,0,0,rectangle,0,31,31,104,1,
,,,,,,,,,,,,,FF,,,,,,,,1.3,,,,,,,,,,,,,,,,,,,,,,59bd3c6e3a9ab60001119ae5,61036c2406437e30c4945f1a,2021-07-29_23h08.59.840,Simcolourproject_2stim_asymm_v5,2020.2.10,MacIntel,60,61025ae37ef11b136ea224fe,,,,,,,,,2737,-29,-56,1,0,0,response5disk,,3,4,-13,1,0,0,rectangle,4,-13,1,0,0,,,,,,,4,-13,1,0,0,,0,32,32,42,1,
,,,,,,,,,,,,,FF,,,,,,,,0.783,,,,,,,,,,,,,,,,,,,,,,59bd3c6e3a9ab60001119ae5,61036c2406437e30c4945f1a,2021-07-29_23h08.59.840,Simcolourproject_2stim_asymm_v5,2020.2.10,MacIntel,60,61025ae37ef11b136ea224fe,,,,,,,,,3072,40,55,1,0,0,response1disk,,7,21,-13,1,0,0,rectangle,21,-13,1,0,0,,,,,,,21,-13,1,0,0,,0,33,33,140,1,
,,,,,,,,,,,,,FF,,,,,,,,1.099,,,,,,,,,,,,,,,,,,,,,,59bd3c6e3a9ab60001119ae5,61036c2406437e30c4945f1a,2021-07-29_23h08.59.840,Simcolourproject_2stim_asymm_v5,2020.2.10,MacIntel,60,61025ae37ef11b136ea224fe,,,,,,,,,299,24,-51,1,0,0,response3disk,,4,4,3,1,0,0,rectangle,4,3,1,0,0,,,,,,,4,3,1,0,0,,0,34,34,99,1,
,,,,,,,,,,,,,FF,,,,,,,,0.983,,,,,,,,,,,,,,,,,,,,,,59bd3c6e3a9ab60001119ae5,61036c2406437e30c4945f1a,2021-07-29_23h08.59.840,Simcolourproject_2stim_asymm_v5,2020.2.10,MacIntel,60,61025ae37ef11b136ea224fe,,,,,,,,,3823,60,27,1,0,0,response1disk,,6,-1,16,1,0,0,rectangle,-1,16,1,0,0,,,,,,,-1,16,1,0,0,,0,35,35,15,1,
,,,,,,,,,,,,,FF,,,,,,,,0.516,,,,,,,,,,,,,,,,,,,,,,59bd3c6e3a9ab60001119ae5,61036c2406437e30c4945f1a,2021-07-29_23h08.59.840,Simcolourproject_2stim_asymm_v5,2020.2.10,MacIntel,60,61025ae37ef11b136ea224fe,,,,,,,,,228,67,34,1,0,0,response1disk,,6,12,10,1,0,0,rectangle,12,10,1,0,0,,,,,,,12,10,1,0,0,,0,36,36,154,1,
,,,,,,,,,,,,,FF,,,,,,,,0.767,,,,,,,,,,,,,,,,,,,,,,59bd3c6e3a9ab60001119ae5,61036c2406437e30c4945f1a,2021-07-29_23h08.59.840,Simcolourproject_2stim_asymm_v5,2020.2.10,MacIntel,60,61025ae37ef11b136ea224fe,,,,,,,,,1812,-68,-35,1,0,0,response5disk,,2,-7,16,1,0,0,rectangle,-7,16,1,0,0,,,,,,,-7,16,1,0,0,,0,37,37,78,1,
,,,,,,,,,,,,,FF,,,,,,,,1.05,,,,,,,,,,,,,,,,,,,,,,59bd3c6e3a9ab60001119ae5,61036c2406437e30c4945f1a,2021-07-29_23h08.59.840,Simcolourproject_2stim_asymm_v5,2020.2.10,MacIntel,60,61025ae37ef11b136ea224fe,,,,,,,,,4116,-60,-34,1,0,0,response5disk,,2,5,-4,1,0,0,rectangle,47,-71,1,0,0,response3disk_3,TRUE,4,4,"[311,289,39,140,223,64,238,151,173,89,112,70,147,32,48,96,1,2,174,28]",1.583,18,-13,1,0,0,rectangle,0,38,38,93,1,
,,,,,,,,,,,,,FF,,,,,,,,1.167,,,,,,,,,,,,,,,,,,,,,,59bd3c6e3a9ab60001119ae5,61036c2406437e30c4945f1a,2021-07-29_23h08.59.840,Simcolourproject_2stim_asymm_v5,2020.2.10,MacIntel,60,61025ae37ef11b136ea224fe,,,,,,,,,37,-41,-52,1,0,0,response5disk,,3,0,-4,1,0,0,rectangle,0,-4,1,0,0,,,,,,,0,-4,1,0,0,,0,39,39,60,1,
,,,,,,,,,,,,,FF,,,,,,,,0.648,,,,,,,,,,,,,,,,,,,,,,59bd3c6e3a9ab60001119ae5,61036c2406437e30c4945f1a,2021-07-29_23h08.59.840,Simcolourproject_2stim_asymm_v5,2020.2.10,MacIntel,60,61025ae37ef11b136ea224fe,,,,,,,,,2842,67,-24,1,0,0,response3disk,,5,14,-3,1,0,0,rectangle,14,-3,1,0,0,,,,,,,14,-3,1,0,0,,0,40,40,138,1,
,,,,,,,,,,,,,FF,,,,,,,,0.999,,,,,,,,,,,,,,,,,,,,,,59bd3c6e3a9ab60001119ae5,61036c2406437e30c4945f1a,2021-07-29_23h08.59.840,Simcolourproject_2stim_asymm_v5,2020.2.10,MacIntel,60,61025ae37ef11b136ea224fe,,,,,,,,,2035,-55,-36,1,0,0,response5disk,,2,-12,-2,1,0,0,rectangle,-12,-2,1,0,0,,,,,,,-12,-2,1,0,0,,0,41,41,141,1,
,,,,,,,,,,,,,FF,,,,,,,,0.65,,,,,,,,,,,,,,,,,,,,,,59bd3c6e3a9ab60001119ae5,61036c2406437e30c4945f1a,2021-07-29_23h08.59.840,Simcolourproject_2stim_asymm_v5,2020.2.10,MacIntel,60,61025ae37ef11b136ea224fe,,,,,,,,,2265,62,44,1,0,0,response1disk,,6,-8,11,1,0,0,rectangle,-8,11,1,0,0,,,,,,,-8,11,1,0,0,,0,42,42,16,1,
,,,,,,,,,,,,,FF,,,,,,,,1.249,,,,,,,,,,,,,,,,,,,,,,59bd3c6e3a9ab60001119ae5,61036c2406437e30c4945f1a,2021-07-29_23h08.59.840,Simcolourproject_2stim_asymm_v5,2020.2.10,MacIntel,60,61025ae37ef11b136ea224fe,,,,,,,,,2148,42,-62,1,0,0,response3disk,,4,4,-4,1,0,0,rectangle,4,-4,1,0,0,,,,,,,4,-4,1,0,0,,0,43,43,119,1,
,,,,,,,,,,,,,FF,,,,,,,,0.417,,,,,,,,,,,,,,,,,,,,,,59bd3c6e3a9ab60001119ae5,61036c2406437e30c4945f1a,2021-07-29_23h08.59.840,Simcolourproject_2stim_asymm_v5,2020.2.10,MacIntel,60,61025ae37ef11b136ea224fe,,,,,,,,,2569,31,57,1,0,0,response1disk,,7,0,-18,1,0,0,rectangle,0,-18,1,0,0,,,,,,,0,-18,1,0,0,,0,44,44,77,1,
,,,,,,,,,,,,,FF,,,,,,,,0.849,,,,,,,,,,,,,,,,,,,,,,59bd3c6e3a9ab60001119ae5,61036c2406437e30c4945f1a,2021-07-29_23h08.59.840,Simcolourproject_2stim_asymm_v5,2020.2.10,MacIntel,60,61025ae37ef11b136ea224fe,,,,,,,,,2912,35,63,1,0,0,response1disk,,7,4,5,1,0,0,rectangle,4,5,1,0,0,,,,,,,4,5,1,0,0,,0,45,45,101,1,
,,,,,,,,,,,,,FF,,,,,,,,0.782,,,,,,,,,,,,,,,,,,,,,,59bd3c6e3a9ab60001119ae5,61036c2406437e30c4945f1a,2021-07-29_23h08.59.840,Simcolourproject_2stim_asymm_v5,2020.2.10,MacIntel,60,61025ae37ef11b136ea224fe,,,,,,,,,768,17,-48,1,0,0,response3disk,,4,-1,-3,1,0,0,rectangle,-1,-3,1,0,0,,,,,,,-1,-3,1,0,0,,0,46,46,57,1,
,,,,,,,,,,,,,FF,,,,,,,,0.8,,,,,,,,,,,,,,,,,,,,,,59bd3c6e3a9ab60001119ae5,61036c2406437e30c4945f1a,2021-07-29_23h08.59.840,Simcolourproject_2stim_asymm_v5,2020.2.10,MacIntel,60,61025ae37ef11b136ea224fe,,,,,,,,,2924,66,26,1,0,0,response1disk,,6,14,4,1,0,0,rectangle,56,56,1,0,0,response1disk_3,TRUE,7,7,"[311,289,39,140,223,64,238,151,173,89,112,70,147,32,48,96,1,2,174,28]",1.499,0,3,1,0,0,rectangle,0,47,47,124,1,
,,,,,,,,,,,,,FF,,,,,,,,0.701,,,,,,,,,,,,,,,,,,,,,,59bd3c6e3a9ab60001119ae5,61036c2406437e30c4945f1a,2021-07-29_23h08.59.840,Simcolourproject_2stim_asymm_v5,2020.2.10,MacIntel,60,61025ae37ef11b136ea224fe,,,,,,,,,89,73,-74,1,0,0,response3disk,,4,0,-4,1,0,0,rectangle,0,-4,1,0,0,,,,,,,0,-4,1,0,0,,0,48,48,22,1,
,,,,,,,,,,,,,FF,,,,,,,,0.833,,,,,,,,,,,,,,,,,,,,,,59bd3c6e3a9ab60001119ae5,61036c2406437e30c4945f1a,2021-07-29_23h08.59.840,Simcolourproject_2stim_asymm_v5,2020.2.10,MacIntel,60,61025ae37ef11b136ea224fe,,,,,,,,,723,-76,27,1,0,0,response7disk,,1,-4,3,1,0,0,rectangle,-4,3,1,0,0,,,,,,,-4,3,1,0,0,,0,49,49,2,1,
,,,,,,,,,,,,,FF,,,,,,,,0.517,,,,,,,,,,,,,,,,,,,,,,59bd3c6e3a9ab60001119ae5,61036c2406437e30c4945f1a,2021-07-29_23h08.59.840,Simcolourproject_2stim_asymm_v5,2020.2.10,MacIntel,60,61025ae37ef11b136ea224fe,,,,,,,,,1249,79,-32,1,0,0,response3disk,,5,7,9,1,0,0,rectangle,7,9,1,0,0,,,,,,,7,9,1,0,0,,0,50,50,72,1,
,,,,,,,,,,,,,FF,,,,,,,,0.717,,,,,,,,,,,,,,,,,,,,,,59bd3c6e3a9ab60001119ae5,61036c2406437e30c4945f1a,2021-07-29_23h08.59.840,Simcolourproject_2stim_asymm_v5,2020.2.10,MacIntel,60,61025ae37ef11b136ea224fe,,,,,,,,,1932,78,31,1,0,0,response1disk,,6,4,8,1,0,0,rectangle,4,8,1,0,0,,,,,,,4,8,1,0,0,,0,51,51,123,1,
,,,,,,,,,,,,,FF,,,,,,,,0.749,,,,,,,,,,,,,,,,,,,,,,59bd3c6e3a9ab60001119ae5,61036c2406437e30c4945f1a,2021-07-29_23h08.59.840,Simcolourproject_2stim_asymm_v5,2020.2.10,MacIntel,60,61025ae37ef11b136ea224fe,,,,,,,,,4244,55,30,1,0,0,response1disk,,6,-3,0,1,0,0,rectangle,-3,0,1,0,0,,,,,,,-3,0,1,0,0,,0,52,52,29,1,
,,,,,,,,,,,,,FF,,,,,,,,1.4,,,,,,,,,,,,,,,,,,,,,,59bd3c6e3a9ab60001119ae5,61036c2406437e30c4945f1a,2021-07-29_23h08.59.840,Simcolourproject_2stim_asymm_v5,2020.2.10,MacIntel,60,61025ae37ef11b136ea224fe,,,,,,,,,394,67,-33,1,0,0,response3disk,,5,-10,3,1,0,0,rectangle,-10,3,1,0,0,,,,,,,-10,3,1,0,0,,0,53,53,147,1,
,,,,,,,,,,,,,FF,,,,,,,,0.666,,,,,,,,,,,,,,,,,,,,,,59bd3c6e3a9ab60001119ae5,61036c2406437e30c4945f1a,2021-07-29_23h08.59.840,Simcolourproject_2stim_asymm_v5,2020.2.10,MacIntel,60,61025ae37ef11b136ea224fe,,,,,,,,,3217,36,52,1,0,0,response1disk,,7,-1,2,1,0,0,rectangle,-1,2,1,0,0,,,,,,,-1,2,1,0,0,,0,54,54,118,1,
,,,,,,,,,,,,,FF,,,,,,,,1.016,,,,,,,,,,,,,,,,,,,,,,59bd3c6e3a9ab60001119ae5,61036c2406437e30c4945f1a,2021-07-29_23h08.59.840,Simcolourproject_2stim_asymm_v5,2020.2.10,MacIntel,60,61025ae37ef11b136ea224fe,,,,,,,,,1296,-62,-42,1,0,0,response5disk,,2,0,5,1,0,0,rectangle,0,5,1,0,0,,,,,,,0,5,1,0,0,,0,55,55,110,1,
,,,,,,,,,,,,,FF,,,,,,,,1.15,,,,,,,,,,,,,,,,,,,,,,59bd3c6e3a9ab60001119ae5,61036c2406437e30c4945f1a,2021-07-29_23h08.59.840,Simcolourproject_2stim_asymm_v5,2020.2.10,MacIntel,60,61025ae37ef11b136ea224fe,,,,,,,,,1519,79,23,1,0,0,response1disk,,6,-3,13,1,0,0,rectangle,-3,13,1,0,0,,,,,,,-3,13,1,0,0,,0,56,56,53,1,
,,,,,,,,,,,,,FF,,,,,,,,0.568,,,,,,,,,,,,,,,,,,,,,,59bd3c6e3a9ab60001119ae5,61036c2406437e30c4945f1a,2021-07-29_23h08.59.840,Simcolourproject_2stim_asymm_v5,2020.2.10,MacIntel,60,61025ae37ef11b136ea224fe,,,,,,,,,517,53,27,1,0,0,response1disk,,6,-12,15,1,0,0,rectangle,-12,15,1,0,0,,,,,,,-12,15,1,0,0,,0,57,57,120,1,
,,,,,,,,,,,,,FF,,,,,,,,0.933,,,,,,,,,,,,,,,,,,,,,,59bd3c6e3a9ab60001119ae5,61036c2406437e30c4945f1a,2021-07-29_23h08.59.840,Simcolourproject_2stim_asymm_v5,2020.2.10,MacIntel,60,61025ae37ef11b136ea224fe,,,,,,,,,4275,-64,-23,1,0,0,response5disk,,2,-2,-9,1,0,0,rectangle,-2,-9,1,0,0,,,,,,,-2,-9,1,0,0,,0,58,58,150,1,
,,,,,,,,,,,,,FF,,,,,,,,0.916,,,,,,,,,,,,,,,,,,,,,,59bd3c6e3a9ab60001119ae5,61036c2406437e30c4945f1a,2021-07-29_23h08.59.840,Simcolourproject_2stim_asymm_v5,2020.2.10,MacIntel,60,61025ae37ef11b136ea224fe,,,,,,,,,1821,-39,63,1,0,0,response7disk,,0,-17,13,1,0,0,rectangle,-17,13,1,0,0,,,,,,,-17,13,1,0,0,,0,59,59,132,1,
,,,,,,,,,,,,,FF,,,,,,,,1.033,,,,,,,,,,,,,,,,,,,,,,59bd3c6e3a9ab60001119ae5,61036c2406437e30c4945f1a,2021-07-29_23h08.59.840,Simcolourproject_2stim_asymm_v5,2020.2.10,MacIntel,60,61025ae37ef11b136ea224fe,,,,,,,,,2964,66,35,1,0,0,response1disk,,6,10,4,1,0,0,rectangle,10,4,1,0,0,,,,,,,10,4,1,0,0,,0,60,60,128,1,
,,,,,,,,,,,,,FF,,,,,,,,0.634,,,,,,,,,,,,,,,,,,,,,,59bd3c6e3a9ab60001119ae5,61036c2406437e30c4945f1a,2021-07-29_23h08.59.840,Simcolourproject_2stim_asymm_v5,2020.2.10,MacIntel,60,61025ae37ef11b136ea224fe,,,,,,,,,2386,29,89,1,0,0,response1disk,,7,10,3,1,0,0,rectangle,10,3,1,0,0,,,,,,,10,3,1,0,0,,0,61,61,14,1,
,,,,,,,,,,,,,FF,,,,,,,,0.382,,,,,,,,,,,,,,,,,,,,,,59bd3c6e3a9ab60001119ae5,61036c2406437e30c4945f1a,2021-07-29_23h08.59.840,Simcolourproject_2stim_asymm_v5,2020.2.10,MacIntel,60,61025ae37ef11b136ea224fe,,,,,,,,,1562,42,57,1,0,0,response1disk,,7,7,1,1,0,0,rectangle,7,1,1,0,0,,,,,,,7,1,1,0,0,,0,62,62,37,1,
,,,,,,,,,,,,,FF,,,,,,,,1.117,,,,,,,,,,,,,,,,,,,,,,59bd3c6e3a9ab60001119ae5,61036c2406437e30c4945f1a,2021-07-29_23h08.59.840,Simcolourproject_2stim_asymm_v5,2020.2.10,MacIntel,60,61025ae37ef11b136ea224fe,,,,,,,,,1032,60,33,1,0,0,response1disk,,6,10,-5,1,0,0,rectangle,32,76,1,0,0,response1disk_3,TRUE,7,7,"[311,289,39,140,223,64,238,151,173,89,112,70,147,32,48,96,1,2,174,28]",1.349,9,0,1,0,0,rectangle,0,63,63,33,1,
,,,,,,,,,,,,,FF,,,,,,,,1.067,,,,,,,,,,,,,,,,,,,,,,59bd3c6e3a9ab60001119ae5,61036c2406437e30c4945f1a,2021-07-29_23h08.59.840,Simcolourproject_2stim_asymm_v5,2020.2.10,MacIntel,60,61025ae37ef11b136ea224fe,,,,,,,,,698,19,-67,1,0,0,response3disk,,4,2,1,1,0,0,rectangle,2,1,1,0,0,,,,,,,2,1,1,0,0,,0,64,64,54,1,
,,,,,,,,,,,,,FF,,,,,,,,1.365,,,,,,,,,,,,,,,,,,,,,,59bd3c6e3a9ab60001119ae5,61036c2406437e30c4945f1a,2021-07-29_23h08.59.840,Simcolourproject_2stim_asymm_v5,2020.2.10,MacIntel,60,61025ae37ef11b136ea224fe,,,,,,,,,3838,38,-62,1,0,0,response3disk,,4,21,-13,1,0,0,rectangle,21,-13,1,0,0,,,,,,,21,-13,1,0,0,,0,65,65,81,1,
,,,,,,,,,,,,,FF,,,,,,,,0.782,,,,,,,,,,,,,,,,,,,,,,59bd3c6e3a9ab60001119ae5,61036c2406437e30c4945f1a,2021-07-29_23h08.59.840,Simcolourproject_2stim_asymm_v5,2020.2.10,MacIntel,60,61025ae37ef11b136ea224fe,,,,,,,,,721,-29,-70,1,0,0,response5disk,,3,-10,7,1,0,0,rectangle,-10,7,1,0,0,,,,,,,-10,7,1,0,0,,0,66,66,88,1,
,,,,,,,,,,,,,FF,,,,,,,,0.65,,,,,,,,,,,,,,,,,,,,,,59bd3c6e3a9ab60001119ae5,61036c2406437e30c4945f1a,2021-07-29_23h08.59.840,Simcolourproject_2stim_asymm_v5,2020.2.10,MacIntel,60,61025ae37ef11b136ea224fe,,,,,,,,,2220,-24,-65,1,0,0,response5disk,,3,-5,-5,1,0,0,rectangle,-5,-5,1,0,0,,,,,,,-5,-5,1,0,0,,0,67,67,11,1,
,,,,,,,,,,,,,FF,,,,,,,,0.766,,,,,,,,,,,,,,,,,,,,,,59bd3c6e3a9ab60001119ae5,61036c2406437e30c4945f1a,2021-07-29_23h08.59.840,Simcolourproject_2stim_asymm_v5,2020.2.10,MacIntel,60,61025ae37ef11b136ea224fe,,,,,,,,,3495,64,34,1,0,0,response1disk,,6,13,9,1,0,0,rectangle,13,9,1,0,0,,,,,,,13,9,1,0,0,,0,68,68,19,1,
,,,,,,,,,,,,,FF,,,,,,,,0.882,,,,,,,,,,,,,,,,,,,,,,59bd3c6e3a9ab60001119ae5,61036c2406437e30c4945f1a,2021-07-29_23h08.59.840,Simcolourproject_2stim_asymm_v5,2020.2.10,MacIntel,60,61025ae37ef11b136ea224fe,,,,,,,,,3020,30,66,1,0,0,response1disk,,7,-3,7,1,0,0,rectangle,88,40,1,0,0,response1disk_3,TRUE,6,6,"[311,289,39,140,223,64,238,151,173,89,112,70,147,32,48,96,1,2,174,28]",1.383,15,-1,1,0,0,rectangle,0,69,69,159,1,
,,,,,,,,,,,,,FF,,,,,,,,1.433,,,,,,,,,,,,,,,,,,,,,,59bd3c6e3a9ab60001119ae5,61036c2406437e30c4945f1a,2021-07-29_23h08.59.840,Simcolourproject_2stim_asymm_v5,2020.2.10,MacIntel,60,61025ae37ef11b136ea224fe,,,,,,,,,55,67,35,1,0,0,response1disk,,6,11,3,1,0,0,rectangle,11,3,1,0,0,,,,,,,11,3,1,0,0,,0,70,70,34,1,
,,,,,,,,,,,,,FF,,,,,,,,1.033,,,,,,,,,,,,,,,,,,,,,,59bd3c6e3a9ab60001119ae5,61036c2406437e30c4945f1a,2021-07-29_23h08.59.840,Simcolourproject_2stim_asymm_v5,2020.2.10,MacIntel,60,61025ae37ef11b136ea224fe,,,,,,,,,2299,-28,-67,1,0,0,response5disk,,3,0,-10,1,0,0,rectangle,0,-10,1,0,0,,,,,,,0,-10,1,0,0,,0,71,71,10,1,
,,,,,,,,,,,,,FF,,,,,,,,0.517,,,,,,,,,,,,,,,,,,,,,,59bd3c6e3a9ab60001119ae5,61036c2406437e30c4945f1a,2021-07-29_23h08.59.840,Simcolourproject_2stim_asymm_v5,2020.2.10,MacIntel,60,61025ae37ef11b136ea224fe,,,,,,,,,3732,24,75,1,0,0,response1disk,,7,1,-15,1,0,0,rectangle,1,-15,1,0,0,,,,,,,1,-15,1,0,0,,0,72,72,97,1,
,,,,,,,,,,,,,FF,,,,,,,,0.867,,,,,,,,,,,,,,,,,,,,,,59bd3c6e3a9ab60001119ae5,61036c2406437e30c4945f1a,2021-07-29_23h08.59.840,Simcolourproject_2stim_asymm_v5,2020.2.10,MacIntel,60,61025ae37ef11b136ea224fe,,,,,,,,,2639,34,63,1,0,0,response1disk,,7,16,6,1,0,0,rectangle,16,6,1,0,0,,,,,,,16,6,1,0,0,,0,73,73,56,1,
,,,,,,,,,,,,,FF,,,,,,,,0.716,,,,,,,,,,,,,,,,,,,,,,59bd3c6e3a9ab60001119ae5,61036c2406437e30c4945f1a,2021-07-29_23h08.59.840,Simcolourproject_2stim_asymm_v5,2020.2.10,MacIntel,60,61025ae37ef11b136ea224fe,,,,,,,,,3352,29,62,1,0,0,response1disk,,7,9,1,1,0,0,rectangle,9,1,1,0,0,,,,,,,9,1,1,0,0,,0,74,74,67,1,
,,,,,,,,,,,,,FF,,,,,,,,1.567,,,,,,,,,,,,,,,,,,,,,,59bd3c6e3a9ab60001119ae5,61036c2406437e30c4945f1a,2021-07-29_23h08.59.840,Simcolourproject_2stim_asymm_v5,2020.2.10,MacIntel,60,61025ae37ef11b136ea224fe,,,,,,,,,1156,66,26,1,0,0,response1disk,,6,1,0,1,0,0,rectangle,1,0,1,0,0,,,,,,,1,0,1,0,0,,0,75,75,20,1,
,,,,,,,,,,,,,FF,,,,,,,,0.55,,,,,,,,,,,,,,,,,,,,,,59bd3c6e3a9ab60001119ae5,61036c2406437e30c4945f1a,2021-07-29_23h08.59.840,Simcolourproject_2stim_asymm_v5,2020.2.10,MacIntel,60,61025ae37ef11b136ea224fe,,,,,,,,,421,30,52,1,0,0,response1disk,,7,10,-10,1,0,0,rectangle,10,-10,1,0,0,,,,,,,10,-10,1,0,0,,0,76,76,26,1,
,,,,,,,,,,,,,FF,,,,,,,,0.765,,,,,,,,,,,,,,,,,,,,,,59bd3c6e3a9ab60001119ae5,61036c2406437e30c4945f1a,2021-07-29_23h08.59.840,Simcolourproject_2stim_asymm_v5,2020.2.10,MacIntel,60,61025ae37ef11b136ea224fe,,,,,,,,,2884,50,-16,1,0,0,response3disk,,5,25,-6,1,0,0,rectangle,25,-6,1,0,0,,,,,,,25,-6,1,0,0,,0,77,77,121,1,
,,,,,,,,,,,,,FF,,,,,,,,1.033,,,,,,,,,,,,,,,,,,,,,,59bd3c6e3a9ab60001119ae5,61036c2406437e30c4945f1a,2021-07-29_23h08.59.840,Simcolourproject_2stim_asymm_v5,2020.2.10,MacIntel,60,61025ae37ef11b136ea224fe,,,,,,,,,2994,-68,-42,1,0,0,response5disk,,2,-4,-4,1,0,0,rectangle,-4,-4,1,0,0,,,,,,,-4,-4,1,0,0,,0,78,78,71,1,
,,,,,,,,,,,,,FF,,,,,,,,1.134,,,,,,,,,,,,,,,,,,,,,,59bd3c6e3a9ab60001119ae5,61036c2406437e30c4945f1a,2021-07-29_23h08.59.840,Simcolourproject_2stim_asymm_v5,2020.2.10,MacIntel,60,61025ae37ef11b136ea224fe,,,,,,,,,3817,-70,48,1,0,0,response7disk,,1,-13,8,1,0,0,rectangle,-13,8,1,0,0,,,,,,,-13,8,1,0,0,,0,79,79,4,1,
,,,,,,,,,,,,,FF,,,,,,,,0.783,,,,,,,,,,,,,,,,,,,,,,59bd3c6e3a9ab60001119ae5,61036c2406437e30c4945f1a,2021-07-29_23h08.59.840,Simcolourproject_2stim_asymm_v5,2020.2.10,MacIntel,60,61025ae37ef11b136ea224fe,,,,,,,,,3142,50,20,1,0,0,response1disk,,6,7,4,1,0,0,rectangle,7,4,1,0,0,,,,,,,7,4,1,0,0,,0,80,80,49,1,
,,,,,,,,,,,,,FF,,,,,,,,1.1,,,,,,,,,,,,,,,,,,,,,,59bd3c6e3a9ab60001119ae5,61036c2406437e30c4945f1a,2021-07-29_23h08.59.840,Simcolourproject_2stim_asymm_v5,2020.2.10,MacIntel,60,61025ae37ef11b136ea224fe,,,,,,,,,2969,60,31,1,0,0,response1disk,,6,-2,8,1,0,0,rectangle,-2,8,1,0,0,,,,,,,-2,8,1,0,0,,0,81,81,44,1,
,,,,,,,,,,,,,FF,,,,,,,,0.615,,,,,,,,,,,,,,,,,,,,,,59bd3c6e3a9ab60001119ae5,61036c2406437e30c4945f1a,2021-07-29_23h08.59.840,Simcolourproject_2stim_asymm_v5,2020.2.10,MacIntel,60,61025ae37ef11b136ea224fe,,,,,,,,,3326,76,49,1,0,0,response1disk,,6,10,-3,1,0,0,rectangle,10,-3,1,0,0,,,,,,,10,-3,1,0,0,,0,82,82,86,1,
,,,,,,,,,,,,,FF,,,,,,,,0.399,,,,,,,,,,,,,,,,,,,,,,59bd3c6e3a9ab60001119ae5,61036c2406437e30c4945f1a,2021-07-29_23h08.59.840,Simcolourproject_2stim_asymm_v5,2020.2.10,MacIntel,60,61025ae37ef11b136ea224fe,,,,,,,,,1081,40,65,1,0,0,response1disk,,7,-4,4,1,0,0,rectangle,-4,4,1,0,0,,,,,,,-4,4,1,0,0,,0,83,83,18,1,
,,,,,,,,,,,,,FF,,,,,,,,0.684,,,,,,,,,,,,,,,,,,,,,,59bd3c6e3a9ab60001119ae5,61036c2406437e30c4945f1a,2021-07-29_23h08.59.840,Simcolourproject_2stim_asymm_v5,2020.2.10,MacIntel,60,61025ae37ef11b136ea224fe,,,,,,,,,1799,-30,-37,1,0,0,response5disk,,3,-28,-17,1,0,0,rectangle,-28,-17,1,0,0,,,,,,,-28,-17,1,0,0,,0,84,84,95,1,
,,,,,,,,,,,,,FF,,,,,,,,0.849,,,,,,,,,,,,,,,,,,,,,,59bd3c6e3a9ab60001119ae5,61036c2406437e30c4945f1a,2021-07-29_23h08.59.840,Simcolourproject_2stim_asymm_v5,2020.2.10,MacIntel,60,61025ae37ef11b136ea224fe,,,,,,,,,2935,34,-56,1,0,0,response3disk,,4,24,-5,1,0,0,rectangle,24,-5,1,0,0,,,,,,,24,-5,1,0,0,,0,85,85,157,1,
,,,,,,,,,,,,,FF,,,,,,,,0.749,,,,,,,,,,,,,,,,,,,,,,59bd3c6e3a9ab60001119ae5,61036c2406437e30c4945f1a,2021-07-29_23h08.59.840,Simcolourproject_2stim_asymm_v5,2020.2.10,MacIntel,60,61025ae37ef11b136ea224fe,,,,,,,,,2180,74,-19,1,0,0,response3disk,,5,5,-4,1,0,0,rectangle,5,-4,1,0,0,,,,,,,5,-4,1,0,0,,0,86,86,9,1,
,,,,,,,,,,,,,FF,,,,,,,,0.384,,,,,,,,,,,,,,,,,,,,,,59bd3c6e3a9ab60001119ae5,61036c2406437e30c4945f1a,2021-07-29_23h08.59.840,Simcolourproject_2stim_asymm_v5,2020.2.10,MacIntel,60,61025ae37ef11b136ea224fe,,,,,,,,,2173,55,-37,1,0,0,response3disk,,5,8,-15,1,0,0,rectangle,8,-15,1,0,0,,,,,,,8,-15,1,0,0,,0,87,87,117,1,
,,,,,,,,,,,,,FF,,,,,,,,0.733,,,,,,,,,,,,,,,,,,,,,,59bd3c6e3a9ab60001119ae5,61036c2406437e30c4945f1a,2021-07-29_23h08.59.840,Simcolourproject_2stim_asymm_v5,2020.2.10,MacIntel,60,61025ae37ef11b136ea224fe,,,,,,,,,2021,40,58,1,0,0,response1disk,,7,-12,15,1,0,0,rectangle,-78,33,1,0,0,response7disk_3,TRUE,1,1,"[311,289,39,140,223,64,238,151,173,89,112,70,147,32,48,96,1,2,174,28]",1.199,-12,11,1,0,0,rectangle,0,88,88,62,1,
,,,,,,,,,,,,,FF,,,,,,,,0.951,,,,,,,,,,,,,,,,,,,,,,59bd3c6e3a9ab60001119ae5,61036c2406437e30c4945f1a,2021-07-29_23h08.59.840,Simcolourproject_2stim_asymm_v5,2020.2.10,MacIntel,60,61025ae37ef11b136ea224fe,,,,,,,,,167,-67,20,1,0,0,response7disk,,1,-21,13,1,0,0,rectangle,-21,13,1,0,0,,,,,,,-21,13,1,0,0,,0,89,89,21,1,
,,,,,,,,,,,,,FF,,,,,,,,0.733,,,,,,,,,,,,,,,,,,,,,,59bd3c6e3a9ab60001119ae5,61036c2406437e30c4945f1a,2021-07-29_23h08.59.840,Simcolourproject_2stim_asymm_v5,2020.2.10,MacIntel,60,61025ae37ef11b136ea224fe,,,,,,,,,2517,34,70,1,0,0,response1disk,,7,5,5,1,0,0,rectangle,5,5,1,0,0,,,,,,,5,5,1,0,0,,0,90,90,28,1,
,,,,,,,,,,,,,FF,,,,,,,,1.418,,,,,,,,,,,,,,,,,,,,,,59bd3c6e3a9ab60001119ae5,61036c2406437e30c4945f1a,2021-07-29_23h08.59.840,Simcolourproject_2stim_asymm_v5,2020.2.10,MacIntel,60,61025ae37ef11b136ea224fe,,,,,,,,,1223,-32,-71,1,0,0,response5disk,,3,7,0,1,0,0,rectangle,7,0,1,0,0,,,,,,,7,0,1,0,0,,0,91,91,68,1,
,,,,,,,,,,,,,FF,,,,,,,,0.466,,,,,,,,,,,,,,,,,,,,,,59bd3c6e3a9ab60001119ae5,61036c2406437e30c4945f1a,2021-07-29_23h08.59.840,Simcolourproject_2stim_asymm_v5,2020.2.10,MacIntel,60,61025ae37ef11b136ea224fe,,,,,,,,,935,28,60,1,0,0,response1disk,,7,-7,1,1,0,0,rectangle,-7,1,1,0,0,,,,,,,-7,1,1,0,0,,0,92,92,43,1,
,,,,,,,,,,,,,FF,,,,,,,,0.4,,,,,,,,,,,,,,,,,,,,,,59bd3c6e3a9ab60001119ae5,61036c2406437e30c4945f1a,2021-07-29_23h08.59.840,Simcolourproject_2stim_asymm_v5,2020.2.10,MacIntel,60,61025ae37ef11b136ea224fe,,,,,,,,,4271,22,60,1,0,0,response1disk,,7,11,0,1,0,0,rectangle,11,0,1,0,0,,,,,,,11,0,1,0,0,,0,93,93,76,1,
,,,,,,,,,,,,,FF,,,,,,,,1.05,,,,,,,,,,,,,,,,,,,,,,59bd3c6e3a9ab60001119ae5,61036c2406437e30c4945f1a,2021-07-29_23h08.59.840,Simcolourproject_2stim_asymm_v5,2020.2.10,MacIntel,60,61025ae37ef11b136ea224fe,,,,,,,,,198,-65,48,1,0,0,response7disk,,1,-26,5,1,0,0,rectangle,-26,5,1,0,0,,,,,,,-26,5,1,0,0,,0,94,94,46,1,
,,,,,,,,,,,,,FF,,,,,,,,0.933,,,,,,,,,,,,,,,,,,,,,,59bd3c6e3a9ab60001119ae5,61036c2406437e30c4945f1a,2021-07-29_23h08.59.840,Simcolourproject_2stim_asymm_v5,2020.2.10,MacIntel,60,61025ae37ef11b136ea224fe,,,,,,,,,1187,27,54,1,0,0,response1disk,,7,17,4,1,0,0,rectangle,-29,-73,1,0,0,response5disk_3,TRUE,3,3,"[311,289,39,140,223,64,238,151,173,89,112,70,147,32,48,96,1,2,174,28]",1.45,5,-2,1,0,0,rectangle,0,95,95,5,1,
,,,,,,,,,,,,,FF,,,,,,,,1.184,,,,,,,,,,,,,,,,,,,,,,59bd3c6e3a9ab60001119ae5,61036c2406437e30c4945f1a,2021-07-29_23h08.59.840,Simcolourproject_2stim_asymm_v5,2020.2.10,MacIntel,60,61025ae37ef11b136ea224fe,,,,,,,,,4153,49,-32,1,0,0,response3disk,,5,3,8,1,0,0,rectangle,3,8,1,0,0,,,,,,,3,8,1,0,0,,0,96,96,74,1,
,,,,,,,,,,,,,FF,,,,,,,,0.8,,,,,,,,,,,,,,,,,,,,,,59bd3c6e3a9ab60001119ae5,61036c2406437e30c4945f1a,2021-07-29_23h08.59.840,Simcolourproject_2stim_asymm_v5,2020.2.10,MacIntel,60,61025ae37ef11b136ea224fe,,,,,,,,,417,-75,-34,1,0,0,response5disk,,2,-8,-14,1,0,0,rectangle,-8,-14,1,0,0,,,,,,,-8,-14,1,0,0,,0,97,97,139,1,
,,,,,,,,,,,,,FF,,,,,,,,0.55,,,,,,,,,,,,,,,,,,,,,,59bd3c6e3a9ab60001119ae5,61036c2406437e30c4945f1a,2021-07-29_23h08.59.840,Simcolourproject_2stim_asymm_v5,2020.2.10,MacIntel,60,61025ae37ef11b136ea224fe,,,,,,,,,4259,-25,-57,1,0,0,response5disk,,3,-6,-11,1,0,0,rectangle,-6,-11,1,0,0,,,,,,,-6,-11,1,0,0,,0,98,98,109,1,
,,,,,,,,,,,,,FF,,,,,,,,0.734,,,,,,,,,,,,,,,,,,,,,,59bd3c6e3a9ab60001119ae5,61036c2406437e30c4945f1a,2021-07-29_23h08.59.840,Simcolourproject_2stim_asymm_v5,2020.2.10,MacIntel,60,61025ae37ef11b136ea224fe,,,,,,,,,170,-30,82,1,0,0,response7disk,,0,-13,7,1,0,0,rectangle,-13,7,1,0,0,,,,,,,-13,7,1,0,0,,0,99,99,115,1,
,,,,,,,,,,,,,FF,,,,,,,,0.566,,,,,,,,,,,,,,,,,,,,,,59bd3c6e3a9ab60001119ae5,61036c2406437e30c4945f1a,2021-07-29_23h08.59.840,Simcolourproject_2stim_asymm_v5,2020.2.10,MacIntel,60,61025ae37ef11b136ea224fe,,,,,,,,,4334,33,62,1,0,0,response1disk,,7,15,-18,1,0,0,rectangle,15,-18,1,0,0,,,,,,,15,-18,1,0,0,,0,100,100,3,1,
,,,,,,,,,,,,,FF,,,,,,,,1.883,,,,,,,,,,,,,,,,,,,,,,59bd3c6e3a9ab60001119ae5,61036c2406437e30c4945f1a,2021-07-29_23h08.59.840,Simcolourproject_2stim_asymm_v5,2020.2.10,MacIntel,60,61025ae37ef11b136ea224fe,,,,,,,,,887,-27,80,1,0,0,response7disk,,0,-4,3,1,0,0,rectangle,-4,3,1,0,0,,,,,,,-4,3,1,0,0,,0,101,101,148,1,
,,,,,,,,,,,,,FF,,,,,,,,1,,,,,,,,,,,,,,,,,,,,,,59bd3c6e3a9ab60001119ae5,61036c2406437e30c4945f1a,2021-07-29_23h08.59.840,Simcolourproject_2stim_asymm_v5,2020.2.10,MacIntel,60,61025ae37ef11b136ea224fe,,,,,,,,,2712,-74,-43,1,0,0,response5disk,,2,-6,-6,1,0,0,rectangle,-6,-6,1,0,0,,,,,,,-6,-6,1,0,0,,0,102,102,27,1,
,,,,,,,,,,,,,FF,,,,,,,,0.484,,,,,,,,,,,,,,,,,,,,,,59bd3c6e3a9ab60001119ae5,61036c2406437e30c4945f1a,2021-07-29_23h08.59.840,Simcolourproject_2stim_asymm_v5,2020.2.10,MacIntel,60,61025ae37ef11b136ea224fe,,,,,,,,,411,15,54,1,0,0,response1disk,,7,-12,3,1,0,0,rectangle,-12,3,1,0,0,,,,,,,-12,3,1,0,0,,0,103,103,153,1,
,,,,,,,,,,,,,FF,,,,,,,,0.583,,,,,,,,,,,,,,,,,,,,,,59bd3c6e3a9ab60001119ae5,61036c2406437e30c4945f1a,2021-07-29_23h08.59.840,Simcolourproject_2stim_asymm_v5,2020.2.10,MacIntel,60,61025ae37ef11b136ea224fe,,,,,,,,,204,-27,-57,1,0,0,response5disk,,3,-9,2,1,0,0,rectangle,-9,2,1,0,0,,,,,,,-9,2,1,0,0,,0,104,104,65,1,
,,,,,,,,,,,,,FF,,,,,,,,0.683,,,,,,,,,,,,,,,,,,,,,,59bd3c6e3a9ab60001119ae5,61036c2406437e30c4945f1a,2021-07-29_23h08.59.840,Simcolourproject_2stim_asymm_v5,2020.2.10,MacIntel,60,61025ae37ef11b136ea224fe,,,,,,,,,2526,31,59,1,0,0,response1disk,,7,9,4,1,0,0,rectangle,9,4,1,0,0,,,,,,,9,4,1,0,0,,0,105,105,105,1,
,,,,,,,,,,,,,FF,,,,,,,,0.929,,,,,,,,,,,,,,,,,,,,,,59bd3c6e3a9ab60001119ae5,61036c2406437e30c4945f1a,2021-07-29_23h08.59.840,Simcolourproject_2stim_asymm_v5,2020.2.10,MacIntel,60,61025ae37ef11b136ea224fe,,,,,,,,,810,-56,34,1,0,0,response7disk,,1,-7,15,1,0,0,rectangle,-7,15,1,0,0,,,,,,,-7,15,1,0,0,,0,106,106,87,1,
,,,,,,,,,,,,,FF,,,,,,,,0.967,,,,,,,,,,,,,,,,,,,,,,59bd3c6e3a9ab60001119ae5,61036c2406437e30c4945f1a,2021-07-29_23h08.59.840,Simcolourproject_2stim_asymm_v5,2020.2.10,MacIntel,60,61025ae37ef11b136ea224fe,,,,,,,,,3466,23,70,1,0,0,response1disk,,7,9,8,1,0,0,rectangle,9,8,1,0,0,,,,,,,9,8,1,0,0,,0,107,107,64,1,
,,,,,,,,,,,,,FF,,,,,,,,0.717,,,,,,,,,,,,,,,,,,,,,,59bd3c6e3a9ab60001119ae5,61036c2406437e30c4945f1a,2021-07-29_23h08.59.840,Simcolourproject_2stim_asymm_v5,2020.2.10,MacIntel,60,61025ae37ef11b136ea224fe,,,,,,,,,3933,-31,-56,1,0,0,response5disk,,3,-15,1,1,0,0,rectangle,-15,1,1,0,0,,,,,,,-15,1,1,0,0,,0,108,108,125,1,
,,,,,,,,,,,,,FF,,,,,,,,1.067,,,,,,,,,,,,,,,,,,,,,,59bd3c6e3a9ab60001119ae5,61036c2406437e30c4945f1a,2021-07-29_23h08.59.840,Simcolourproject_2stim_asymm_v5,2020.2.10,MacIntel,60,61025ae37ef11b136ea224fe,,,,,,,,,336,64,-19,1,0,0,response3disk,,5,3,6,1,0,0,rectangle,3,6,1,0,0,,,,,,,3,6,1,0,0,,0,109,109,7,1,
,,,,,,,,,,,,,FF,,,,,,,,1.002,,,,,,,,,,,,,,,,,,,,,,59bd3c6e3a9ab60001119ae5,61036c2406437e30c4945f1a,2021-07-29_23h08.59.840,Simcolourproject_2stim_asymm_v5,2020.2.10,MacIntel,60,61025ae37ef11b136ea224fe,,,,,,,,,3929,35,-52,1,0,0,response3disk,,4,15,-8,1,0,0,rectangle,15,-8,1,0,0,,,,,,,15,-8,1,0,0,,0,110,110,50,1,
,,,,,,,,,,,,,FF,,,,,,,,0.383,,,,,,,,,,,,,,,,,,,,,,59bd3c6e3a9ab60001119ae5,61036c2406437e30c4945f1a,2021-07-29_23h08.59.840,Simcolourproject_2stim_asymm_v5,2020.2.10,MacIntel,60,61025ae37ef11b136ea224fe,,,,,,,,,4010,34,40,1,0,0,response1disk,,7,8,1,1,0,0,rectangle,19,64,1,0,0,response1disk_3,TRUE,7,7,"[311,289,39,140,223,64,238,151,173,89,112,70,147,32,48,96,1,2,174,28]",1.115,13,10,1,0,0,rectangle,0,111,111,25,1,
,,,,,,,,,,,,,FF,,,,,,,,1.233,,,,,,,,,,,,,,,,,,,,,,59bd3c6e3a9ab60001119ae5,61036c2406437e30c4945f1a,2021-07-29_23h08.59.840,Simcolourproject_2stim_asymm_v5,2020.2.10,MacIntel,60,61025ae37ef11b136ea224fe,,,,,,,,,2350,37,67,1,0,0,response1disk,,7,17,-1,1,0,0,rectangle,17,-1,1,0,0,,,,,,,17,-1,1,0,0,,0,112,112,129,1,
,,,,,,,,,,,,,FF,,,,,,,,0.433,,,,,,,,,,,,,,,,,,,,,,59bd3c6e3a9ab60001119ae5,61036c2406437e30c4945f1a,2021-07-29_23h08.59.840,Simcolourproject_2stim_asymm_v5,2020.2.10,MacIntel,60,61025ae37ef11b136ea224fe,,,,,,,,,1323,34,70,1,0,0,response1disk,,7,4,-13,1,0,0,rectangle,4,-13,1,0,0,,,,,,,4,-13,1,0,0,,0,113,113,38,1,
,,,,,,,,,,,,,FF,,,,,,,,0.749,,,,,,,,,,,,,,,,,,,,,,59bd3c6e3a9ab60001119ae5,61036c2406437e30c4945f1a,2021-07-29_23h08.59.840,Simcolourproject_2stim_asymm_v5,2020.2.10,MacIntel,60,61025ae37ef11b136ea224fe,,,,,,,,,3305,-27,-65,1,0,0,response5disk,,3,-9,12,1,0,0,rectangle,-9,12,1,0,0,,,,,,,-9,12,1,0,0,,0,114,114,24,1,
,,,,,,,,,,,,,FF,,,,,,,,0.583,,,,,,,,,,,,,,,,,,,,,,59bd3c6e3a9ab60001119ae5,61036c2406437e30c4945f1a,2021-07-29_23h08.59.840,Simcolourproject_2stim_asymm_v5,2020.2.10,MacIntel,60,61025ae37ef11b136ea224fe,,,,,,,,,1705,25,49,1,0,0,response1disk,,7,16,3,1,0,0,rectangle,16,3,1,0,0,,,,,,,16,3,1,0,0,,0,115,115,130,1,
,,,,,,,,,,,,,FF,,,,,,,,0.833,,,,,,,,,,,,,,,,,,,,,,59bd3c6e3a9ab60001119ae5,61036c2406437e30c4945f1a,2021-07-29_23h08.59.840,Simcolourproject_2stim_asymm_v5,2020.2.10,MacIntel,60,61025ae37ef11b136ea224fe,,,,,,,,,3709,-60,44,1,0,0,response7disk,,1,23,0,1,0,0,rectangle,23,0,1,0,0,,,,,,,23,0,1,0,0,,0,116,116,1,1,
,,,,,,,,,,,,,FF,,,,,,,,1.016,,,,,,,,,,,,,,,,,,,,,,59bd3c6e3a9ab60001119ae5,61036c2406437e30c4945f1a,2021-07-29_23h08.59.840,Simcolourproject_2stim_asymm_v5,2020.2.10,MacIntel,60,61025ae37ef11b136ea224fe,,,,,,,,,2593,-65,-38,1,0,0,response5disk,,2,11,6,1,0,0,rectangle,11,6,1,0,0,,,,,,,11,6,1,0,0,,0,117,117,111,1,
,,,,,,,,,,,,,FF,,,,,,,,0.317,,,,,,,,,,,,,,,,,,,,,,59bd3c6e3a9ab60001119ae5,61036c2406437e30c4945f1a,2021-07-29_23h08.59.840,Simcolourproject_2stim_asymm_v5,2020.2.10,MacIntel,60,61025ae37ef11b136ea224fe,,,,,,,,,3825,31,53,1,0,0,response1disk,,7,10,1,1,0,0,rectangle,10,1,1,0,0,,,,,,,10,1,1,0,0,,0,118,118,41,1,
,,,,,,,,,,,,,FF,,,,,,,,0.783,,,,,,,,,,,,,,,,,,,,,,59bd3c6e3a9ab60001119ae5,61036c2406437e30c4945f1a,2021-07-29_23h08.59.840,Simcolourproject_2stim_asymm_v5,2020.2.10,MacIntel,60,61025ae37ef11b136ea224fe,,,,,,,,,2785,-62,-37,1,0,0,response5disk,,2,0,8,1,0,0,rectangle,0,8,1,0,0,,,,,,,0,8,1,0,0,,0,119,119,131,1,
,,,,,,,,,,,,,FF,,,,,,,,0.933,,,,,,,,,,,,,,,,,,,,,,59bd3c6e3a9ab60001119ae5,61036c2406437e30c4945f1a,2021-07-29_23h08.59.840,Simcolourproject_2stim_asymm_v5,2020.2.10,MacIntel,60,61025ae37ef11b136ea224fe,,,,,,,,,2400,29,47,1,0,0,response1disk,,7,14,-7,1,0,0,rectangle,14,-7,1,0,0,,,,,,,14,-7,1,0,0,,0,120,120,158,1,
,,,,,,,,,,,,,FF,,,,,,,,0.765,,,,,,,,,,,,,,,,,,,,,,59bd3c6e3a9ab60001119ae5,61036c2406437e30c4945f1a,2021-07-29_23h08.59.840,Simcolourproject_2stim_asymm_v5,2020.2.10,MacIntel,60,61025ae37ef11b136ea224fe,,,,,,,,,732,54,-16,1,0,0,response3disk,,5,13,7,1,0,0,rectangle,13,7,1,0,0,,,,,,,13,7,1,0,0,,0,121,121,122,1,
,,,,,,,,,,,,,FF,,,,,,,,0.934,,,,,,,,,,,,,,,,,,,,,,59bd3c6e3a9ab60001119ae5,61036c2406437e30c4945f1a,2021-07-29_23h08.59.840,Simcolourproject_2stim_asymm_v5,2020.2.10,MacIntel,60,61025ae37ef11b136ea224fe,,,,,,,,,706,38,-53,1,0,0,response3disk,,4,16,4,1,0,0,rectangle,16,4,1,0,0,,,,,,,16,4,1,0,0,,0,122,122,145,1,
,,,,,,,,,,,,,FF,,,,,,,,1.101,,,,,,,,,,,,,,,,,,,,,,59bd3c6e3a9ab60001119ae5,61036c2406437e30c4945f1a,2021-07-29_23h08.59.840,Simcolourproject_2stim_asymm_v5,2020.2.10,MacIntel,60,61025ae37ef11b136ea224fe,,,,,,,,,1453,-66,22,1,0,0,response7disk,,1,4,13,1,0,0,rectangle,4,13,1,0,0,,,,,,,4,13,1,0,0,,0,123,123,31,1,
,,,,,,,,,,,,,FF,,,,,,,,0.733,,,,,,,,,,,,,,,,,,,,,,59bd3c6e3a9ab60001119ae5,61036c2406437e30c4945f1a,2021-07-29_23h08.59.840,Simcolourproject_2stim_asymm_v5,2020.2.10,MacIntel,60,61025ae37ef11b136ea224fe,,,,,,,,,3946,-52,25,1,0,0,response7disk,,1,-19,-1,1,0,0,rectangle,-19,-1,1,0,0,,,,,,,-19,-1,1,0,0,,0,124,124,133,1,
,,,,,,,,,,,,,FF,,,,,,,,0.451,,,,,,,,,,,,,,,,,,,,,,59bd3c6e3a9ab60001119ae5,61036c2406437e30c4945f1a,2021-07-29_23h08.59.840,Simcolourproject_2stim_asymm_v5,2020.2.10,MacIntel,60,61025ae37ef11b136ea224fe,,,,,,,,,2013,12,59,1,0,0,response1disk,,7,1,-4,1,0,0,rectangle,1,-4,1,0,0,,,,,,,1,-4,1,0,0,,0,125,125,108,1,
,,,,,,,,,,,,,FF,,,,,,,,0.698,,,,,,,,,,,,,,,,,,,,,,59bd3c6e3a9ab60001119ae5,61036c2406437e30c4945f1a,2021-07-29_23h08.59.840,Simcolourproject_2stim_asymm_v5,2020.2.10,MacIntel,60,61025ae37ef11b136ea224fe,,,,,,,,,3464,-55,15,1,0,0,response7disk,,1,-24,-8,1,0,0,rectangle,-24,-8,1,0,0,,,,,,,-24,-8,1,0,0,,0,126,126,91,1,
,,,,,,,,,,,,,FF,,,,,,,,0.6,,,,,,,,,,,,,,,,,,,,,,59bd3c6e3a9ab60001119ae5,61036c2406437e30c4945f1a,2021-07-29_23h08.59.840,Simcolourproject_2stim_asymm_v5,2020.2.10,MacIntel,60,61025ae37ef11b136ea224fe,,,,,,,,,4316,-36,61,1,0,0,response7disk,,0,-22,16,1,0,0,rectangle,-22,16,1,0,0,,,,,,,-22,16,1,0,0,,0,127,127,0,1,
,,,,,,,,,,,,,FF,,,,,,,,0.9,,,,,,,,,,,,,,,,,,,,,,59bd3c6e3a9ab60001119ae5,61036c2406437e30c4945f1a,2021-07-29_23h08.59.840,Simcolourproject_2stim_asymm_v5,2020.2.10,MacIntel,60,61025ae37ef11b136ea224fe,,,,,,,,,1159,-37,-52,1,0,0,response5disk,,3,-22,-15,1,0,0,rectangle,-22,-15,1,0,0,,,,,,,-22,-15,1,0,0,,0,128,128,152,1,
,,,,,,,,,,,,,FF,,,,,,,,0.45,,,,,,,,,,,,,,,,,,,,,,59bd3c6e3a9ab60001119ae5,61036c2406437e30c4945f1a,2021-07-29_23h08.59.840,Simcolourproject_2stim_asymm_v5,2020.2.10,MacIntel,60,61025ae37ef11b136ea224fe,,,,,,,,,1992,28,73,1,0,0,response1disk,,7,11,2,1,0,0,rectangle,11,2,1,0,0,,,,,,,11,2,1,0,0,,0,129,129,100,1,
,,,,,,,,,,,,,FF,,,,,,,,0.417,,,,,,,,,,,,,,,,,,,,,,59bd3c6e3a9ab60001119ae5,61036c2406437e30c4945f1a,2021-07-29_23h08.59.840,Simcolourproject_2stim_asymm_v5,2020.2.10,MacIntel,60,61025ae37ef11b136ea224fe,,,,,,,,,1755,53,28,1,0,0,response1disk,,6,-2,-2,1,0,0,rectangle,-2,-2,1,0,0,,,,,,,-2,-2,1,0,0,,0,130,130,83,1,
,,,,,,,,,,,,,FF,,,,,,,,0.466,,,,,,,,,,,,,,,,,,,,,,59bd3c6e3a9ab60001119ae5,61036c2406437e30c4945f1a,2021-07-29_23h08.59.840,Simcolourproject_2stim_asymm_v5,2020.2.10,MacIntel,60,61025ae37ef11b136ea224fe,,,,,,,,,2967,46,27,1,0,0,response1disk,,6,-8,-13,1,0,0,rectangle,-8,-13,1,0,0,,,,,,,-8,-13,1,0,0,,0,131,131,35,1,
,,,,,,,,,,,,,FF,,,,,,,,0.65,,,,,,,,,,,,,,,,,,,,,,59bd3c6e3a9ab60001119ae5,61036c2406437e30c4945f1a,2021-07-29_23h08.59.840,Simcolourproject_2stim_asymm_v5,2020.2.10,MacIntel,60,61025ae37ef11b136ea224fe,,,,,,,,,620,-27,82,1,0,0,response7disk,,0,-12,9,1,0,0,rectangle,-12,9,1,0,0,,,,,,,-12,9,1,0,0,,0,132,132,73,1,
,,,,,,,,,,,,,FF,,,,,,,,1.149,,,,,,,,,,,,,,,,,,,,,,59bd3c6e3a9ab60001119ae5,61036c2406437e30c4945f1a,2021-07-29_23h08.59.840,Simcolourproject_2stim_asymm_v5,2020.2.10,MacIntel,60,61025ae37ef11b136ea224fe,,,,,,,,,4355,28,63,1,0,0,response1disk,,7,6,3,1,0,0,rectangle,6,3,1,0,0,,,,,,,6,3,1,0,0,,0,133,133,30,1,
,,,,,,,,,,,,,FF,,,,,,,,0.816,,,,,,,,,,,,,,,,,,,,,,59bd3c6e3a9ab60001119ae5,61036c2406437e30c4945f1a,2021-07-29_23h08.59.840,Simcolourproject_2stim_asymm_v5,2020.2.10,MacIntel,60,61025ae37ef11b136ea224fe,,,,,,,,,282,-64,18,1,0,0,response7disk,,1,4,-9,1,0,0,rectangle,4,-9,1,0,0,,,,,,,4,-9,1,0,0,,0,134,134,142,1,
,,,,,,,,,,,,,FF,,,,,,,,0.45,,,,,,,,,,,,,,,,,,,,,,59bd3c6e3a9ab60001119ae5,61036c2406437e30c4945f1a,2021-07-29_23h08.59.840,Simcolourproject_2stim_asymm_v5,2020.2.10,MacIntel,60,61025ae37ef11b136ea224fe,,,,,,,,,3425,-23,65,1,0,0,response7disk,,0,-13,7,1,0,0,rectangle,-13,7,1,0,0,,,,,,,-13,7,1,0,0,,0,135,135,55,1,
,,,,,,,,,,,,,FF,,,,,,,,1.05,,,,,,,,,,,,,,,,,,,,,,59bd3c6e3a9ab60001119ae5,61036c2406437e30c4945f1a,2021-07-29_23h08.59.840,Simcolourproject_2stim_asymm_v5,2020.2.10,MacIntel,60,61025ae37ef11b136ea224fe,,,,,,,,,2246,-18,-58,1,0,0,response5disk,,3,-1,7,1,0,0,rectangle,-1,7,1,0,0,,,,,,,-1,7,1,0,0,,0,136,136,75,1,
,,,,,,,,,,,,,FF,,,,,,,,0.767,,,,,,,,,,,,,,,,,,,,,,59bd3c6e3a9ab60001119ae5,61036c2406437e30c4945f1a,2021-07-29_23h08.59.840,Simcolourproject_2stim_asymm_v5,2020.2.10,MacIntel,60,61025ae37ef11b136ea224fe,,,,,,,,,3281,17,77,1,0,0,response1disk,,7,4,16,1,0,0,rectangle,4,16,1,0,0,,,,,,,4,16,1,0,0,,0,137,137,144,1,
,,,,,,,,,,,,,FF,,,,,,,,0.932,,,,,,,,,,,,,,,,,,,,,,59bd3c6e3a9ab60001119ae5,61036c2406437e30c4945f1a,2021-07-29_23h08.59.840,Simcolourproject_2stim_asymm_v5,2020.2.10,MacIntel,60,61025ae37ef11b136ea224fe,,,,,,,,,1860,24,46,1,0,0,response1disk,,7,18,3,1,0,0,rectangle,18,3,1,0,0,,,,,,,18,3,1,0,0,,0,138,138,13,1,
,,,,,,,,,,,,,FF,,,,,,,,0.8,,,,,,,,,,,,,,,,,,,,,,59bd3c6e3a9ab60001119ae5,61036c2406437e30c4945f1a,2021-07-29_23h08.59.840,Simcolourproject_2stim_asymm_v5,2020.2.10,MacIntel,60,61025ae37ef11b136ea224fe,,,,,,,,,2731,38,60,1,0,0,response1disk,,7,23,10,1,0,0,rectangle,-71,-45,1,0,0,response5disk_3,TRUE,2,2,"[311,289,39,140,223,64,238,151,173,89,112,70,147,32,48,96,1,2,174,28]",1.699,1,10,1,0,0,rectangle,0,139,139,94,1,
,,,,,,,,,,,,,FF,,,,,,,,2.2,,,,,,,,,,,,,,,,,,,,,,59bd3c6e3a9ab60001119ae5,61036c2406437e30c4945f1a,2021-07-29_23h08.59.840,Simcolourproject_2stim_asymm_v5,2020.2.10,MacIntel,60,61025ae37ef11b136ea224fe,,,,,,,,,3638,35,-59,1,0,0,response3disk,,4,0,-10,1,0,0,rectangle,0,-10,1,0,0,,,,,,,0,-10,1,0,0,,0,140,140,136,1,
,,,,,,,,,,,,,FF,,,,,,,,1,,,,,,,,,,,,,,,,,,,,,,59bd3c6e3a9ab60001119ae5,61036c2406437e30c4945f1a,2021-07-29_23h08.59.840,Simcolourproject_2stim_asymm_v5,2020.2.10,MacIntel,60,61025ae37ef11b136ea224fe,,,,,,,,,4110,79,22,1,0,0,response1disk,,6,-14,0,1,0,0,rectangle,-14,0,1,0,0,,,,,,,-14,0,1,0,0,,0,141,141,84,1,
,,,,,,,,,,,,,FF,,,,,,,,0.6,,,,,,,,,,,,,,,,,,,,,,59bd3c6e3a9ab60001119ae5,61036c2406437e30c4945f1a,2021-07-29_23h08.59.840,Simcolourproject_2stim_asymm_v5,2020.2.10,MacIntel,60,61025ae37ef11b136ea224fe,,,,,,,,,2186,76,37,1,0,0,response1disk,,6,-9,-13,1,0,0,rectangle,-9,-13,1,0,0,,,,,,,-9,-13,1,0,0,,0,142,142,126,1,
,,,,,,,,,,,,,FF,,,,,,,,0.817,,,,,,,,,,,,,,,,,,,,,,59bd3c6e3a9ab60001119ae5,61036c2406437e30c4945f1a,2021-07-29_23h08.59.840,Simcolourproject_2stim_asymm_v5,2020.2.10,MacIntel,60,61025ae37ef11b136ea224fe,,,,,,,,,3812,-71,-23,1,0,0,response5disk,,2,-17,-15,1,0,0,rectangle,-17,-15,1,0,0,,,,,,,-17,-15,1,0,0,,0,143,143,52,1,
,,,,,,,,,,,,,FF,,,,,,,,0.483,,,,,,,,,,,,,,,,,,,,,,59bd3c6e3a9ab60001119ae5,61036c2406437e30c4945f1a,2021-07-29_23h08.59.840,Simcolourproject_2stim_asymm_v5,2020.2.10,MacIntel,60,61025ae37ef11b136ea224fe,,,,,,,,,3153,-56,-27,1,0,0,response5disk,,2,-14,0,1,0,0,rectangle,-14,0,1,0,0,,,,,,,-14,0,1,0,0,,0,144,144,134,1,
,,,,,,,,,,,,,FF,,,,,,,,0.768,,,,,,,,,,,,,,,,,,,,,,59bd3c6e3a9ab60001119ae5,61036c2406437e30c4945f1a,2021-07-29_23h08.59.840,Simcolourproject_2stim_asymm_v5,2020.2.10,MacIntel,60,61025ae37ef11b136ea224fe,,,,,,,,,447,41,-52,1,0,0,response3disk,,4,28,-5,1,0,0,rectangle,28,-5,1,0,0,,,,,,,28,-5,1,0,0,,0,145,145,98,1,
,,,,,,,,,,,,,FF,,,,,,,,0.802,,,,,,,,,,,,,,,,,,,,,,59bd3c6e3a9ab60001119ae5,61036c2406437e30c4945f1a,2021-07-29_23h08.59.840,Simcolourproject_2stim_asymm_v5,2020.2.10,MacIntel,60,61025ae37ef11b136ea224fe,,,,,,,,,605,29,67,1,0,0,response1disk,,7,4,5,1,0,0,rectangle,20,-58,1,0,0,response3disk_3,TRUE,4,4,"[311,289,39,140,223,64,238,151,173,89,112,70,147,32,48,96,1,2,174,28]",2.199,10,-5,1,0,0,rectangle,0,146,146,51,1,
,,,,,,,,,,,,,FF,,,,,,,,1.583,,,,,,,,,,,,,,,,,,,,,,59bd3c6e3a9ab60001119ae5,61036c2406437e30c4945f1a,2021-07-29_23h08.59.840,Simcolourproject_2stim_asymm_v5,2020.2.10,MacIntel,60,61025ae37ef11b136ea224fe,,,,,,,,,3876,60,-22,1,0,0,response3disk,,5,-9,1,1,0,0,rectangle,-9,1,1,0,0,,,,,,,-9,1,1,0,0,,0,147,147,45,1,
,,,,,,,,,,,,,FF,,,,,,,,0.701,,,,,,,,,,,,,,,,,,,,,,59bd3c6e3a9ab60001119ae5,61036c2406437e30c4945f1a,2021-07-29_23h08.59.840,Simcolourproject_2stim_asymm_v5,2020.2.10,MacIntel,60,61025ae37ef11b136ea224fe,,,,,,,,,1983,29,58,1,0,0,response1disk,,7,9,-6,1,0,0,rectangle,9,-6,1,0,0,,,,,,,9,-6,1,0,0,,0,148,148,113,1,
,,,,,,,,,,,,,FF,,,,,,,,0.933,,,,,,,,,,,,,,,,,,,,,,59bd3c6e3a9ab60001119ae5,61036c2406437e30c4945f1a,2021-07-29_23h08.59.840,Simcolourproject_2stim_asymm_v5,2020.2.10,MacIntel,60,61025ae37ef11b136ea224fe,,,,,,,,,3259,-71,-42,1,0,0,response5disk,,2,-2,-13,1,0,0,rectangle,-2,-13,1,0,0,,,,,,,-2,-13,1,0,0,,0,149,149,92,1,
,,,,,,,,,,,,,FF,,,,,,,,0.782,,,,,,,,,,,,,,,,,,,,,,59bd3c6e3a9ab60001119ae5,61036c2406437e30c4945f1a,2021-07-29_23h08.59.840,Simcolourproject_2stim_asymm_v5,2020.2.10,MacIntel,60,61025ae37ef11b136ea224fe,,,,,,,,,4082,33,54,1,0,0,response1disk,,7,20,-5,1,0,0,rectangle,34,-67,1,0,0,response3disk_3,TRUE,4,4,"[311,289,39,140,223,64,238,151,173,89,112,70,147,32,48,96,1,2,174,28]",1.532,8,-15,1,0,0,rectangle,0,150,150,39,1,
,,,,,,,,,,,,,FF,,,,,,,,0.5,,,,,,,,,,,,,,,,,,,,,,59bd3c6e3a9ab60001119ae5,61036c2406437e30c4945f1a,2021-07-29_23h08.59.840,Simcolourproject_2stim_asymm_v5,2020.2.10,MacIntel,60,61025ae37ef11b136ea224fe,,,,,,,,,689,37,71,1,0,0,response1disk,,7,6,11,1,0,0,rectangle,6,11,1,0,0,,,,,,,6,11,1,0,0,,0,151,151,106,1,
,,,,,,,,,,,,,FF,,,,,,,,1.533,,,,,,,,,,,,,,,,,,,,,,59bd3c6e3a9ab60001119ae5,61036c2406437e30c4945f1a,2021-07-29_23h08.59.840,Simcolourproject_2stim_asymm_v5,2020.2.10,MacIntel,60,61025ae37ef11b136ea224fe,,,,,,,,,3502,23,-55,1,0,0,response3disk,,4,14,-5,1,0,0,rectangle,14,-5,1,0,0,,,,,,,14,-5,1,0,0,,0,152,152,79,1,
,,,,,,,,,,,,,FF,,,,,,,,0.45,,,,,,,,,,,,,,,,,,,,,,59bd3c6e3a9ab60001119ae5,61036c2406437e30c4945f1a,2021-07-29_23h08.59.840,Simcolourproject_2stim_asymm_v5,2020.2.10,MacIntel,60,61025ae37ef11b136ea224fe,,,,,,,,,1836,31,39,1,0,0,response1disk,,7,4,-5,1,0,0,rectangle,4,-5,1,0,0,,,,,,,4,-5,1,0,0,,0,153,153,70,1,
,,,,,,,,,,,,,FF,,,,,,,,0.949,,,,,,,,,,,,,,,,,,,,,,59bd3c6e3a9ab60001119ae5,61036c2406437e30c4945f1a,2021-07-29_23h08.59.840,Simcolourproject_2stim_asymm_v5,2020.2.10,MacIntel,60,61025ae37ef11b136ea224fe,,,,,,,,,2492,49,-15,1,0,0,response3disk,,5,-12,-8,1,0,0,rectangle,-12,-8,1,0,0,,,,,,,-12,-8,1,0,0,,0,154,154,47,1,
,,,,,,,,,,,,,FF,,,,,,,,0.733,,,,,,,,,,,,,,,,,,,,,,59bd3c6e3a9ab60001119ae5,61036c2406437e30c4945f1a,2021-07-29_23h08.59.840,Simcolourproject_2stim_asymm_v5,2020.2.10,MacIntel,60,61025ae37ef11b136ea224fe,,,,,,,,,2498,12,81,1,0,0,response1disk,,7,2,17,1,0,0,rectangle,2,17,1,0,0,,,,,,,2,17,1,0,0,,0,155,155,85,1,
,,,,,,,,,,,,,FF,,,,,,,,0.733,,,,,,,,,,,,,,,,,,,,,,59bd3c6e3a9ab60001119ae5,61036c2406437e30c4945f1a,2021-07-29_23h08.59.840,Simcolourproject_2stim_asymm_v5,2020.2.10,MacIntel,60,61025ae37ef11b136ea224fe,,,,,,,,,3549,26,68,1,0,0,response1disk,,7,11,-2,1,0,0,rectangle,11,-2,1,0,0,,,,,,,11,-2,1,0,0,,0,156,156,40,1,
,,,,,,,,,,,,,FF,,,,,,,,2.899,,,,,,,,,,,,,,,,,,,,,,59bd3c6e3a9ab60001119ae5,61036c2406437e30c4945f1a,2021-07-29_23h08.59.840,Simcolourproject_2stim_asymm_v5,2020.2.10,MacIntel,60,61025ae37ef11b136ea224fe,,,,,,,,,1783,22,-32,1,0,0,response3disk,,4,17,-7,1,0,0,rectangle,17,-7,1,0,0,,,,,,,17,-7,1,0,0,,0,157,157,23,1,
,,,,,,,,,,,,,FF,,,,,,,,0.682,,,,,,,,,,,,,,,,,,,,,,59bd3c6e3a9ab60001119ae5,61036c2406437e30c4945f1a,2021-07-29_23h08.59.840,Simcolourproject_2stim_asymm_v5,2020.2.10,MacIntel,60,61025ae37ef11b136ea224fe,,,,,,,,,3,-67,31,1,0,0,response7disk,,1,14,6,1,0,0,rectangle,14,6,1,0,0,,,,,,,14,6,1,0,0,,0,158,158,127,1,
,,,,,,,,,,,,,FF,,,,,,,,0.583,,,,,,,,,,,,,,,,,,,,,,59bd3c6e3a9ab60001119ae5,61036c2406437e30c4945f1a,2021-07-29_23h08.59.840,Simcolourproject_2stim_asymm_v5,2020.2.10,MacIntel,60,61025ae37ef11b136ea224fe,,,,,,,,,2896,35,62,1,0,0,response1disk,,7,12,14,1,0,0,rectangle,12,14,1,0,0,,,,,,,12,14,1,0,0,,0,159,159,137,1,
,,,,,,,,,,,,,FF,,,,,,,,0.934,,,,,,,,,,,,,,,,,,,,,,59bd3c6e3a9ab60001119ae5,61036c2406437e30c4945f1a,2021-07-29_23h08.59.840,Simcolourproject_2stim_asymm_v5,2020.2.10,MacIntel,60,61025ae37ef11b136ea224fe,,,,,,,,,3274,12,78,1,0,0,response1disk,,7,-3,0,1,0,0,rectangle,-3,0,1,0,0,,,,,,,-3,0,1,0,0,,1,0,160,129,1,
,,,,,,,,,,,,,FF,,,,,,,,0.882,,,,,,,,,,,,,,,,,,,,,,59bd3c6e3a9ab60001119ae5,61036c2406437e30c4945f1a,2021-07-29_23h08.59.840,Simcolourproject_2stim_asymm_v5,2020.2.10,MacIntel,60,61025ae37ef11b136ea224fe,,,,,,,,,1072,72,-38,1,0,0,response3disk,,5,-8,-13,1,0,0,rectangle,-8,-13,1,0,0,,,,,,,-8,-13,1,0,0,,1,1,161,45,1,
,,,,,,,,,,,,,FF,,,,,,,,0.766,,,,,,,,,,,,,,,,,,,,,,59bd3c6e3a9ab60001119ae5,61036c2406437e30c4945f1a,2021-07-29_23h08.59.840,Simcolourproject_2stim_asymm_v5,2020.2.10,MacIntel,60,61025ae37ef11b136ea224fe,,,,,,,,,1230,65,-22,1,0,0,response3disk,,5,7,8,1,0,0,rectangle,7,8,1,0,0,,,,,,,7,8,1,0,0,,1,2,162,5,1,
,,,,,,,,,,,,,FF,,,,,,,,0.482,,,,,,,,,,,,,,,,,,,,,,59bd3c6e3a9ab60001119ae5,61036c2406437e30c4945f1a,2021-07-29_23h08.59.840,Simcolourproject_2stim_asymm_v5,2020.2.10,MacIntel,60,61025ae37ef11b136ea224fe,,,,,,,,,2552,54,-33,1,0,0,response3disk,,5,-7,-11,1,0,0,rectangle,-7,-11,1,0,0,,,,,,,-7,-11,1,0,0,,1,3,163,87,1,
,,,,,,,,,,,,,FF,,,,,,,,1.266,,,,,,,,,,,,,,,,,,,,,,59bd3c6e3a9ab60001119ae5,61036c2406437e30c4945f1a,2021-07-29_23h08.59.840,Simcolourproject_2stim_asymm_v5,2020.2.10,MacIntel,60,61025ae37ef11b136ea224fe,,,,,,,,,4267,-65,-20,1,0,0,response5disk,,2,-17,-18,1,0,0,rectangle,-17,-18,1,0,0,,,,,,,-17,-18,1,0,0,,1,4,164,37,1,
,,,,,,,,,,,,,FF,,,,,,,,0.598,,,,,,,,,,,,,,,,,,,,,,59bd3c6e3a9ab60001119ae5,61036c2406437e30c4945f1a,2021-07-29_23h08.59.840,Simcolourproject_2stim_asymm_v5,2020.2.10,MacIntel,60,61025ae37ef11b136ea224fe,,,,,,,,,1943,62,-18,1,0,0,response3disk,,5,22,-6,1,0,0,rectangle,22,-6,1,0,0,,,,,,,22,-6,1,0,0,,1,5,165,3,1,
,,,,,,,,,,,,,FF,,,,,,,,0.85,,,,,,,,,,,,,,,,,,,,,,59bd3c6e3a9ab60001119ae5,61036c2406437e30c4945f1a,2021-07-29_23h08.59.840,Simcolourproject_2stim_asymm_v5,2020.2.10,MacIntel,60,61025ae37ef11b136ea224fe,,,,,,,,,3245,-54,35,1,0,0,response7disk,,1,1,-4,1,0,0,rectangle,1,-4,1,0,0,,,,,,,1,-4,1,0,0,,1,6,166,104,1,
,,,,,,,,,,,,,FF,,,,,,,,0.582,,,,,,,,,,,,,,,,,,,,,,59bd3c6e3a9ab60001119ae5,61036c2406437e30c4945f1a,2021-07-29_23h08.59.840,Simcolourproject_2stim_asymm_v5,2020.2.10,MacIntel,60,61025ae37ef11b136ea224fe,,,,,,,,,2192,31,63,1,0,0,response1disk,,7,18,3,1,0,0,rectangle,18,3,1,0,0,,,,,,,18,3,1,0,0,,1,7,167,59,1,
,,,,,,,,,,,,,FF,,,,,,,,0.916,,,,,,,,,,,,,,,,,,,,,,59bd3c6e3a9ab60001119ae5,61036c2406437e30c4945f1a,2021-07-29_23h08.59.840,Simcolourproject_2stim_asymm_v5,2020.2.10,MacIntel,60,61025ae37ef11b136ea224fe,,,,,,,,,3708,-84,47,1,0,0,response7disk,,1,-2,-1,1,0,0,rectangle,-2,-1,1,0,0,,,,,,,-2,-1,1,0,0,,1,8,168,10,1,
,,,,,,,,,,,,,FF,,,,,,,,0.383,,,,,,,,,,,,,,,,,,,,,,59bd3c6e3a9ab60001119ae5,61036c2406437e30c4945f1a,2021-07-29_23h08.59.840,Simcolourproject_2stim_asymm_v5,2020.2.10,MacIntel,60,61025ae37ef11b136ea224fe,,,,,,,,,3149,-40,14,1,0,0,response7disk,,1,1,-4,1,0,0,rectangle,1,-4,1,0,0,,,,,,,1,-4,1,0,0,,1,9,169,42,1,
,,,,,,,,,,,,,FF,,,,,,,,1.533,,,,,,,,,,,,,,,,,,,,,,59bd3c6e3a9ab60001119ae5,61036c2406437e30c4945f1a,2021-07-29_23h08.59.840,Simcolourproject_2stim_asymm_v5,2020.2.10,MacIntel,60,61025ae37ef11b136ea224fe,,,,,,,,,2962,37,77,1,0,0,response1disk,,7,-2,-10,1,0,0,rectangle,-2,-10,1,0,0,,,,,,,-2,-10,1,0,0,,1,10,170,53,1,
,,,,,,,,,,,,,FF,,,,,,,,0.834,,,,,,,,,,,,,,,,,,,,,,59bd3c6e3a9ab60001119ae5,61036c2406437e30c4945f1a,2021-07-29_23h08.59.840,Simcolourproject_2stim_asymm_v5,2020.2.10,MacIntel,60,61025ae37ef11b136ea224fe,,,,,,,,,2167,-30,67,1,0,0,response7disk,,0,-9,6,1,0,0,rectangle,-9,6,1,0,0,,,,,,,-9,6,1,0,0,,1,11,171,65,1,
,,,,,,,,,,,,,FF,,,,,,,,1.15,,,,,,,,,,,,,,,,,,,,,,59bd3c6e3a9ab60001119ae5,61036c2406437e30c4945f1a,2021-07-29_23h08.59.840,Simcolourproject_2stim_asymm_v5,2020.2.10,MacIntel,60,61025ae37ef11b136ea224fe,,,,,,,,,1224,48,35,1,0,0,response1disk,,6,-1,8,1,0,0,rectangle,30,-58,1,0,0,response3disk_3,TRUE,4,4,"[311,289,39,140,223,64,238,151,173,89,112,70,147,32,48,96,1,2,174,28]",1.35,12,-7,1,0,0,rectangle,1,12,172,142,1,
,,,,,,,,,,,,,FF,,,,,,,,2.033,,,,,,,,,,,,,,,,,,,,,,59bd3c6e3a9ab60001119ae5,61036c2406437e30c4945f1a,2021-07-29_23h08.59.840,Simcolourproject_2stim_asymm_v5,2020.2.10,MacIntel,60,61025ae37ef11b136ea224fe,,,,,,,,,1849,53,38,1,0,0,response1disk,,6,1,-9,1,0,0,rectangle,-69,-21,1,0,0,response5disk_3,TRUE,2,2,"[311,289,39,140,223,64,238,151,173,89,112,70,147,32,48,96,1,2,174,28]",1.567,1,-7,1,0,0,rectangle,1,13,173,132,1,
,,,,,,,,,,,,,FF,,,,,,,,0.633,,,,,,,,,,,,,,,,,,,,,,59bd3c6e3a9ab60001119ae5,61036c2406437e30c4945f1a,2021-07-29_23h08.59.840,Simcolourproject_2stim_asymm_v5,2020.2.10,MacIntel,60,61025ae37ef11b136ea224fe,,,,,,,,,1589,60,-17,1,0,0,response3disk,,5,16,-15,1,0,0,rectangle,16,-15,1,0,0,,,,,,,16,-15,1,0,0,,1,14,174,107,1,
,,,,,,,,,,,,,FF,,,,,,,,0.6,,,,,,,,,,,,,,,,,,,,,,59bd3c6e3a9ab60001119ae5,61036c2406437e30c4945f1a,2021-07-29_23h08.59.840,Simcolourproject_2stim_asymm_v5,2020.2.10,MacIntel,60,61025ae37ef11b136ea224fe,,,,,,,,,2154,31,63,1,0,0,response1disk,,7,11,12,1,0,0,rectangle,11,12,1,0,0,,,,,,,11,12,1,0,0,,1,15,175,94,1,
,,,,,,,,,,,,,FF,,,,,,,,0.65,,,,,,,,,,,,,,,,,,,,,,59bd3c6e3a9ab60001119ae5,61036c2406437e30c4945f1a,2021-07-29_23h08.59.840,Simcolourproject_2stim_asymm_v5,2020.2.10,MacIntel,60,61025ae37ef11b136ea224fe,,,,,,,,,1277,32,61,1,0,0,response1disk,,7,13,2,1,0,0,rectangle,13,2,1,0,0,,,,,,,13,2,1,0,0,,1,16,176,149,1,
,,,,,,,,,,,,,FF,,,,,,,,0.383,,,,,,,,,,,,,,,,,,,,,,59bd3c6e3a9ab60001119ae5,61036c2406437e30c4945f1a,2021-07-29_23h08.59.840,Simcolourproject_2stim_asymm_v5,2020.2.10,MacIntel,60,61025ae37ef11b136ea224fe,,,,,,,,,4133,22,47,1,0,0,response1disk,,7,15,-9,1,0,0,rectangle,15,-9,1,0,0,,,,,,,15,-9,1,0,0,,1,17,177,91,1,
,,,,,,,,,,,,,FF,,,,,,,,0.399,,,,,,,,,,,,,,,,,,,,,,59bd3c6e3a9ab60001119ae5,61036c2406437e30c4945f1a,2021-07-29_23h08.59.840,Simcolourproject_2stim_asymm_v5,2020.2.10,MacIntel,60,61025ae37ef11b136ea224fe,,,,,,,,,3764,29,41,1,0,0,response1disk,,7,8,-15,1,0,0,rectangle,8,-15,1,0,0,,,,,,,8,-15,1,0,0,,1,18,178,56,1,
,,,,,,,,,,,,,FF,,,,,,,,0.434,,,,,,,,,,,,,,,,,,,,,,59bd3c6e3a9ab60001119ae5,61036c2406437e30c4945f1a,2021-07-29_23h08.59.840,Simcolourproject_2stim_asymm_v5,2020.2.10,MacIntel,60,61025ae37ef11b136ea224fe,,,,,,,,,897,25,68,1,0,0,response1disk,,7,17,8,1,0,0,rectangle,17,8,1,0,0,,,,,,,17,8,1,0,0,,1,19,179,22,1,
,,,,,,,,,,,,,FF,,,,,,,,0.733,,,,,,,,,,,,,,,,,,,,,,59bd3c6e3a9ab60001119ae5,61036c2406437e30c4945f1a,2021-07-29_23h08.59.840,Simcolourproject_2stim_asymm_v5,2020.2.10,MacIntel,60,61025ae37ef11b136ea224fe,,,,,,,,,822,47,95,1,0,0,response1disk,,7,17,9,1,0,0,rectangle,17,9,1,0,0,,,,,,,17,9,1,0,0,,1,20,180,62,1,
,,,,,,,,,,,,,FF,,,,,,,,1.733,,,,,,,,,,,,,,,,,,,,,,59bd3c6e3a9ab60001119ae5,61036c2406437e30c4945f1a,2021-07-29_23h08.59.840,Simcolourproject_2stim_asymm_v5,2020.2.10,MacIntel,60,61025ae37ef11b136ea224fe,,,,,,,,,1362,33,-31,1,0,0,response3disk,,5,6,-9,1,0,0,rectangle,6,-9,1,0,0,,,,,,,6,-9,1,0,0,,1,21,181,137,1,
,,,,,,,,,,,,,FF,,,,,,,,0.567,,,,,,,,,,,,,,,,,,,,,,59bd3c6e3a9ab60001119ae5,61036c2406437e30c4945f1a,2021-07-29_23h08.59.840,Simcolourproject_2stim_asymm_v5,2020.2.10,MacIntel,60,61025ae37ef11b136ea224fe,,,,,,,,,224,29,57,1,0,0,response1disk,,7,19,-8,1,0,0,rectangle,19,-8,1,0,0,,,,,,,19,-8,1,0,0,,1,22,182,123,1,
,,,,,,,,,,,,,FF,,,,,,,,0.585,,,,,,,,,,,,,,,,,,,,,,59bd3c6e3a9ab60001119ae5,61036c2406437e30c4945f1a,2021-07-29_23h08.59.840,Simcolourproject_2stim_asymm_v5,2020.2.10,MacIntel,60,61025ae37ef11b136ea224fe,,,,,,,,,753,35,75,1,0,0,response1disk,,7,-7,-6,1,0,0,rectangle,-7,-6,1,0,0,,,,,,,-7,-6,1,0,0,,1,23,183,48,1,
,,,,,,,,,,,,,FF,,,,,,,,1.083,,,,,,,,,,,,,,,,,,,,,,59bd3c6e3a9ab60001119ae5,61036c2406437e30c4945f1a,2021-07-29_23h08.59.840,Simcolourproject_2stim_asymm_v5,2020.2.10,MacIntel,60,61025ae37ef11b136ea224fe,,,,,,,,,3701,51,25,1,0,0,response1disk,,6,-5,12,1,0,0,rectangle,-5,12,1,0,0,,,,,,,-5,12,1,0,0,,1,24,184,96,1,
,,,,,,,,,,,,,FF,,,,,,,,0.451,,,,,,,,,,,,,,,,,,,,,,59bd3c6e3a9ab60001119ae5,61036c2406437e30c4945f1a,2021-07-29_23h08.59.840,Simcolourproject_2stim_asymm_v5,2020.2.10,MacIntel,60,61025ae37ef11b136ea224fe,,,,,,,,,2142,29,53,1,0,0,response1disk,,7,13,8,1,0,0,rectangle,13,8,1,0,0,,,,,,,13,8,1,0,0,,1,25,185,12,1,
,,,,,,,,,,,,,FF,,,,,,,,1.068,,,,,,,,,,,,,,,,,,,,,,59bd3c6e3a9ab60001119ae5,61036c2406437e30c4945f1a,2021-07-29_23h08.59.840,Simcolourproject_2stim_asymm_v5,2020.2.10,MacIntel,60,61025ae37ef11b136ea224fe,,,,,,,,,155,23,74,1,0,0,response1disk,,7,19,5,1,0,0,rectangle,19,5,1,0,0,,,,,,,19,5,1,0,0,,1,26,186,95,1,
,,,,,,,,,,,,,FF,,,,,,,,0.366,,,,,,,,,,,,,,,,,,,,,,59bd3c6e3a9ab60001119ae5,61036c2406437e30c4945f1a,2021-07-29_23h08.59.840,Simcolourproject_2stim_asymm_v5,2020.2.10,MacIntel,60,61025ae37ef11b136ea224fe,,,,,,,,,1793,27,45,1,0,0,response1disk,,7,23,9,1,0,0,rectangle,23,9,1,0,0,,,,,,,23,9,1,0,0,,1,27,187,61,1,
,,,,,,,,,,,,,FF,,,,,,,,1.199,,,,,,,,,,,,,,,,,,,,,,59bd3c6e3a9ab60001119ae5,61036c2406437e30c4945f1a,2021-07-29_23h08.59.840,Simcolourproject_2stim_asymm_v5,2020.2.10,MacIntel,60,61025ae37ef11b136ea224fe,,,,,,,,,432,-38,-72,1,0,0,response5disk,,3,-11,-1,1,0,0,rectangle,-11,-1,1,0,0,,,,,,,-11,-1,1,0,0,,1,28,188,25,1,
,,,,,,,,,,,,,FF,,,,,,,,1.367,,,,,,,,,,,,,,,,,,,,,,59bd3c6e3a9ab60001119ae5,61036c2406437e30c4945f1a,2021-07-29_23h08.59.840,Simcolourproject_2stim_asymm_v5,2020.2.10,MacIntel,60,61025ae37ef11b136ea224fe,,,,,,,,,3529,54,20,1,0,0,response1disk,,6,-8,-5,1,0,0,rectangle,-8,-5,1,0,0,,,,,,,-8,-5,1,0,0,,1,29,189,68,1,
,,,,,,,,,,,,,FF,,,,,,,,0.55,,,,,,,,,,,,,,,,,,,,,,59bd3c6e3a9ab60001119ae5,61036c2406437e30c4945f1a,2021-07-29_23h08.59.840,Simcolourproject_2stim_asymm_v5,2020.2.10,MacIntel,60,61025ae37ef11b136ea224fe,,,,,,,,,1508,27,74,1,0,0,response1disk,,7,2,-1,1,0,0,rectangle,2,-1,1,0,0,,,,,,,2,-1,1,0,0,,1,30,190,74,1,
,,,,,,,,,,,,,FF,,,,,,,,0.85,,,,,,,,,,,,,,,,,,,,,,59bd3c6e3a9ab60001119ae5,61036c2406437e30c4945f1a,2021-07-29_23h08.59.840,Simcolourproject_2stim_asymm_v5,2020.2.10,MacIntel,60,61025ae37ef11b136ea224fe,,,,,,,,,2127,14,55,1,0,0,response1disk,,7,4,1,1,0,0,rectangle,4,1,1,0,0,,,,,,,4,1,1,0,0,,1,31,191,105,1,
,,,,,,,,,,,,,FF,,,,,,,,0.5,,,,,,,,,,,,,,,,,,,,,,59bd3c6e3a9ab60001119ae5,61036c2406437e30c4945f1a,2021-07-29_23h08.59.840,Simcolourproject_2stim_asymm_v5,2020.2.10,MacIntel,60,61025ae37ef11b136ea224fe,,,,,,,,,2737,60,28,1,0,0,response1disk,,6,-2,-4,1,0,0,rectangle,-2,-4,1,0,0,,,,,,,-2,-4,1,0,0,,1,32,192,92,1,
,,,,,,,,,,,,,FF,,,,,,,,0.783,,,,,,,,,,,,,,,,,,,,,,59bd3c6e3a9ab60001119ae5,61036c2406437e30c4945f1a,2021-07-29_23h08.59.840,Simcolourproject_2stim_asymm_v5,2020.2.10,MacIntel,60,61025ae37ef11b136ea224fe,,,,,,,,,3072,32,54,1,0,0,response1disk,,7,1,5,1,0,0,rectangle,1,5,1,0,0,,,,,,,1,5,1,0,0,,1,33,193,49,1,
,,,,,,,,,,,,,FF,,,,,,,,0.7,,,,,,,,,,,,,,,,,,,,,,59bd3c6e3a9ab60001119ae5,61036c2406437e30c4945f1a,2021-07-29_23h08.59.840,Simcolourproject_2stim_asymm_v5,2020.2.10,MacIntel,60,61025ae37ef11b136ea224fe,,,,,,,,,299,63,29,1,0,0,response1disk,,6,23,17,1,0,0,rectangle,23,17,1,0,0,,,,,,,23,17,1,0,0,,1,34,194,17,1,
,,,,,,,,,,,,,FF,,,,,,,,0.35,,,,,,,,,,,,,,,,,,,,,,59bd3c6e3a9ab60001119ae5,61036c2406437e30c4945f1a,2021-07-29_23h08.59.840,Simcolourproject_2stim_asymm_v5,2020.2.10,MacIntel,60,61025ae37ef11b136ea224fe,,,,,,,,,3823,26,48,1,0,0,response1disk,,7,23,3,1,0,0,rectangle,23,3,1,0,0,,,,,,,23,3,1,0,0,,1,35,195,113,1,
,,,,,,,,,,,,,FF,,,,,,,,0.383,,,,,,,,,,,,,,,,,,,,,,59bd3c6e3a9ab60001119ae5,61036c2406437e30c4945f1a,2021-07-29_23h08.59.840,Simcolourproject_2stim_asymm_v5,2020.2.10,MacIntel,60,61025ae37ef11b136ea224fe,,,,,,,,,228,33,40,1,0,0,response1disk,,7,16,3,1,0,0,rectangle,16,3,1,0,0,,,,,,,16,3,1,0,0,,1,36,196,93,1,
,,,,,,,,,,,,,FF,,,,,,,,0.95,,,,,,,,,,,,,,,,,,,,,,59bd3c6e3a9ab60001119ae5,61036c2406437e30c4945f1a,2021-07-29_23h08.59.840,Simcolourproject_2stim_asymm_v5,2020.2.10,MacIntel,60,61025ae37ef11b136ea224fe,,,,,,,,,1812,49,-26,1,0,0,response3disk,,5,3,4,1,0,0,rectangle,3,4,1,0,0,,,,,,,3,4,1,0,0,,1,37,197,86,1,
,,,,,,,,,,,,,FF,,,,,,,,0.967,,,,,,,,,,,,,,,,,,,,,,59bd3c6e3a9ab60001119ae5,61036c2406437e30c4945f1a,2021-07-29_23h08.59.840,Simcolourproject_2stim_asymm_v5,2020.2.10,MacIntel,60,61025ae37ef11b136ea224fe,,,,,,,,,4116,-60,-40,1,0,0,response5disk,,2,-22,-3,1,0,0,rectangle,-22,-3,1,0,0,,,,,,,-22,-3,1,0,0,,1,38,198,112,1,
,,,,,,,,,,,,,FF,,,,,,,,1.249,,,,,,,,,,,,,,,,,,,,,,59bd3c6e3a9ab60001119ae5,61036c2406437e30c4945f1a,2021-07-29_23h08.59.840,Simcolourproject_2stim_asymm_v5,2020.2.10,MacIntel,60,61025ae37ef11b136ea224fe,,,,,,,,,37,45,-30,1,0,0,response3disk,,5,14,-9,1,0,0,rectangle,14,-9,1,0,0,,,,,,,14,-9,1,0,0,,1,39,199,116,1,
,,,,,,,,,,,,,FF,,,,,,,,0.385,,,,,,,,,,,,,,,,,,,,,,59bd3c6e3a9ab60001119ae5,61036c2406437e30c4945f1a,2021-07-29_23h08.59.840,Simcolourproject_2stim_asymm_v5,2020.2.10,MacIntel,60,61025ae37ef11b136ea224fe,,,,,,,,,2842,19,48,1,0,0,response1disk,,7,6,1,1,0,0,rectangle,6,1,1,0,0,,,,,,,6,1,1,0,0,,1,40,200,16,1,
,,,,,,,,,,,,,FF,,,,,,,,1.066,,,,,,,,,,,,,,,,,,,,,,59bd3c6e3a9ab60001119ae5,61036c2406437e30c4945f1a,2021-07-29_23h08.59.840,Simcolourproject_2stim_asymm_v5,2020.2.10,MacIntel,60,61025ae37ef11b136ea224fe,,,,,,,,,2035,12,-57,1,0,0,response3disk,,4,6,9,1,0,0,rectangle,6,9,1,0,0,,,,,,,6,9,1,0,0,,1,41,201,118,1,
,,,,,,,,,,,,,FF,,,,,,,,0.6,,,,,,,,,,,,,,,,,,,,,,59bd3c6e3a9ab60001119ae5,61036c2406437e30c4945f1a,2021-07-29_23h08.59.840,Simcolourproject_2stim_asymm_v5,2020.2.10,MacIntel,60,61025ae37ef11b136ea224fe,,,,,,,,,2265,20,63,1,0,0,response1disk,,7,5,5,1,0,0,rectangle,5,5,1,0,0,,,,,,,5,5,1,0,0,,1,42,202,99,1,
,,,,,,,,,,,,,FF,,,,,,,,2.233,,,,,,,,,,,,,,,,,,,,,,59bd3c6e3a9ab60001119ae5,61036c2406437e30c4945f1a,2021-07-29_23h08.59.840,Simcolourproject_2stim_asymm_v5,2020.2.10,MacIntel,60,61025ae37ef11b136ea224fe,,,,,,,,,2148,44,13,1,0,0,response1disk,,6,12,-2,1,0,0,rectangle,12,-2,1,0,0,,,,,,,12,-2,1,0,0,,1,43,203,128,1,
,,,,,,,,,,,,,FF,,,,,,,,0.933,,,,,,,,,,,,,,,,,,,,,,59bd3c6e3a9ab60001119ae5,61036c2406437e30c4945f1a,2021-07-29_23h08.59.840,Simcolourproject_2stim_asymm_v5,2020.2.10,MacIntel,60,61025ae37ef11b136ea224fe,,,,,,,,,2569,26,68,1,0,0,response1disk,,7,-7,-14,1,0,0,rectangle,-7,-14,1,0,0,,,,,,,-7,-14,1,0,0,,1,44,204,126,1,
,,,,,,,,,,,,,FF,,,,,,,,0.767,,,,,,,,,,,,,,,,,,,,,,59bd3c6e3a9ab60001119ae5,61036c2406437e30c4945f1a,2021-07-29_23h08.59.840,Simcolourproject_2stim_asymm_v5,2020.2.10,MacIntel,60,61025ae37ef11b136ea224fe,,,,,,,,,2912,61,-27,1,0,0,response3disk,,5,3,-11,1,0,0,rectangle,3,-11,1,0,0,,,,,,,3,-11,1,0,0,,1,45,205,140,1,
,,,,,,,,,,,,,FF,,,,,,,,0.366,,,,,,,,,,,,,,,,,,,,,,59bd3c6e3a9ab60001119ae5,61036c2406437e30c4945f1a,2021-07-29_23h08.59.840,Simcolourproject_2stim_asymm_v5,2020.2.10,MacIntel,60,61025ae37ef11b136ea224fe,,,,,,,,,768,29,71,1,0,0,response1disk,,7,-4,-15,1,0,0,rectangle,-4,-15,1,0,0,,,,,,,-4,-15,1,0,0,,1,46,206,18,1,
,,,,,,,,,,,,,FF,,,,,,,,1.166,,,,,,,,,,,,,,,,,,,,,,59bd3c6e3a9ab60001119ae5,61036c2406437e30c4945f1a,2021-07-29_23h08.59.840,Simcolourproject_2stim_asymm_v5,2020.2.10,MacIntel,60,61025ae37ef11b136ea224fe,,,,,,,,,2924,64,45,1,0,0,response1disk,,6,4,-3,1,0,0,rectangle,4,-3,1,0,0,,,,,,,4,-3,1,0,0,,1,47,207,76,1,
,,,,,,,,,,,,,FF,,,,,,,,0.833,,,,,,,,,,,,,,,,,,,,,,59bd3c6e3a9ab60001119ae5,61036c2406437e30c4945f1a,2021-07-29_23h08.59.840,Simcolourproject_2stim_asymm_v5,2020.2.10,MacIntel,60,61025ae37ef11b136ea224fe,,,,,,,,,89,56,18,1,0,0,response1disk,,6,29,9,1,0,0,rectangle,29,9,1,0,0,,,,,,,29,9,1,0,0,,1,48,208,101,1,
,,,,,,,,,,,,,FF,,,,,,,,1.051,,,,,,,,,,,,,,,,,,,,,,59bd3c6e3a9ab60001119ae5,61036c2406437e30c4945f1a,2021-07-29_23h08.59.840,Simcolourproject_2stim_asymm_v5,2020.2.10,MacIntel,60,61025ae37ef11b136ea224fe,,,,,,,,,723,44,-41,1,0,0,response3disk,,5,28,-18,1,0,0,rectangle,28,-18,1,0,0,,,,,,,28,-18,1,0,0,,1,49,209,33,1,
,,,,,,,,,,,,,FF,,,,,,,,1.017,,,,,,,,,,,,,,,,,,,,,,59bd3c6e3a9ab60001119ae5,61036c2406437e30c4945f1a,2021-07-29_23h08.59.840,Simcolourproject_2stim_asymm_v5,2020.2.10,MacIntel,60,61025ae37ef11b136ea224fe,,,,,,,,,1249,44,82,1,0,0,response1disk,,7,-19,-8,1,0,0,rectangle,-19,-8,1,0,0,,,,,,,-19,-8,1,0,0,,1,50,210,85,1,
,,,,,,,,,,,,,FF,,,,,,,,7.15,,,,,,,,,,,,,,,,,,,,,,59bd3c6e3a9ab60001119ae5,61036c2406437e30c4945f1a,2021-07-29_23h08.59.840,Simcolourproject_2stim_asymm_v5,2020.2.10,MacIntel,60,61025ae37ef11b136ea224fe,,,,,,,,,1932,48,81,1,0,0,response1disk,,7,5,-3,1,0,0,rectangle,5,-3,1,0,0,,,,,,,5,-3,1,0,0,,1,51,211,4,1,
,,,,,,,,,,,,,FF,,,,,,,,0.9,,,,,,,,,,,,,,,,,,,,,,59bd3c6e3a9ab60001119ae5,61036c2406437e30c4945f1a,2021-07-29_23h08.59.840,Simcolourproject_2stim_asymm_v5,2020.2.10,MacIntel,60,61025ae37ef11b136ea224fe,,,,,,,,,4244,71,12,1,0,0,response1disk,,6,18,-8,1,0,0,rectangle,18,-8,1,0,0,,,,,,,18,-8,1,0,0,,1,52,212,21,1,
,,,,,,,,,,,,,FF,,,,,,,,1.099,,,,,,,,,,,,,,,,,,,,,,59bd3c6e3a9ab60001119ae5,61036c2406437e30c4945f1a,2021-07-29_23h08.59.840,Simcolourproject_2stim_asymm_v5,2020.2.10,MacIntel,60,61025ae37ef11b136ea224fe,,,,,,,,,394,24,-34,1,0,0,response3disk,,4,-2,-13,1,0,0,rectangle,-2,-13,1,0,0,,,,,,,-2,-13,1,0,0,,1,53,213,111,1,
,,,,,,,,,,,,,FF,,,,,,,,0.417,,,,,,,,,,,,,,,,,,,,,,59bd3c6e3a9ab60001119ae5,61036c2406437e30c4945f1a,2021-07-29_23h08.59.840,Simcolourproject_2stim_asymm_v5,2020.2.10,MacIntel,60,61025ae37ef11b136ea224fe,,,,,,,,,3217,38,53,1,0,0,response1disk,,7,23,-12,1,0,0,rectangle,23,-12,1,0,0,,,,,,,23,-12,1,0,0,,1,54,214,28,1,
,,,,,,,,,,,,,FF,,,,,,,,0.666,,,,,,,,,,,,,,,,,,,,,,59bd3c6e3a9ab60001119ae5,61036c2406437e30c4945f1a,2021-07-29_23h08.59.840,Simcolourproject_2stim_asymm_v5,2020.2.10,MacIntel,60,61025ae37ef11b136ea224fe,,,,,,,,,1296,-53,-19,1,0,0,response5disk,,2,15,14,1,0,0,rectangle,15,14,1,0,0,,,,,,,15,14,1,0,0,,1,55,215,41,1,
,,,,,,,,,,,,,FF,,,,,,,,0.383,,,,,,,,,,,,,,,,,,,,,,59bd3c6e3a9ab60001119ae5,61036c2406437e30c4945f1a,2021-07-29_23h08.59.840,Simcolourproject_2stim_asymm_v5,2020.2.10,MacIntel,60,61025ae37ef11b136ea224fe,,,,,,,,,1519,23,49,1,0,0,response1disk,,7,-1,-18,1,0,0,rectangle,-1,-18,1,0,0,,,,,,,-1,-18,1,0,0,,1,56,216,83,1,
,,,,,,,,,,,,,FF,,,,,,,,0.316,,,,,,,,,,,,,,,,,,,,,,59bd3c6e3a9ab60001119ae5,61036c2406437e30c4945f1a,2021-07-29_23h08.59.840,Simcolourproject_2stim_asymm_v5,2020.2.10,MacIntel,60,61025ae37ef11b136ea224fe,,,,,,,,,517,13,41,1,0,0,response1disk,,7,1,-10,1,0,0,rectangle,1,-10,1,0,0,,,,,,,1,-10,1,0,0,,1,57,217,52,1,
,,,,,,,,,,,,,FF,,,,,,,,0.65,,,,,,,,,,,,,,,,,,,,,,59bd3c6e3a9ab60001119ae5,61036c2406437e30c4945f1a,2021-07-29_23h08.59.840,Simcolourproject_2stim_asymm_v5,2020.2.10,MacIntel,60,61025ae37ef11b136ea224fe,,,,,,,,,4275,54,28,1,0,0,response1disk,,6,1,-15,1,0,0,rectangle,1,-15,1,0,0,,,,,,,1,-15,1,0,0,,1,58,218,98,1,
,,,,,,,,,,,,,FF,,,,,,,,0.733,,,,,,,,,,,,,,,,,,,,,,59bd3c6e3a9ab60001119ae5,61036c2406437e30c4945f1a,2021-07-29_23h08.59.840,Simcolourproject_2stim_asymm_v5,2020.2.10,MacIntel,60,61025ae37ef11b136ea224fe,,,,,,,,,1821,-56,-18,1,0,0,response5disk,,2,7,4,1,0,0,rectangle,7,4,1,0,0,,,,,,,7,4,1,0,0,,1,59,219,51,1,
,,,,,,,,,,,,,FF,,,,,,,,0.534,,,,,,,,,,,,,,,,,,,,,,59bd3c6e3a9ab60001119ae5,61036c2406437e30c4945f1a,2021-07-29_23h08.59.840,Simcolourproject_2stim_asymm_v5,2020.2.10,MacIntel,60,61025ae37ef11b136ea224fe,,,,,,,,,2964,24,55,1,0,0,response1disk,,7,-3,1,1,0,0,rectangle,-3,1,1,0,0,,,,,,,-3,1,1,0,0,,1,60,220,138,1,
,,,,,,,,,,,,,FF,,,,,,,,0.584,,,,,,,,,,,,,,,,,,,,,,59bd3c6e3a9ab60001119ae5,61036c2406437e30c4945f1a,2021-07-29_23h08.59.840,Simcolourproject_2stim_asymm_v5,2020.2.10,MacIntel,60,61025ae37ef11b136ea224fe,,,,,,,,,2386,24,66,1,0,0,response1disk,,7,17,-2,1,0,0,rectangle,17,-2,1,0,0,,,,,,,17,-2,1,0,0,,1,61,221,81,1,
,,,,,,,,,,,,,FF,,,,,,,,0.4,,,,,,,,,,,,,,,,,,,,,,59bd3c6e3a9ab60001119ae5,61036c2406437e30c4945f1a,2021-07-29_23h08.59.840,Simcolourproject_2stim_asymm_v5,2020.2.10,MacIntel,60,61025ae37ef11b136ea224fe,,,,,,,,,1562,34,65,1,0,0,response1disk,,7,26,14,1,0,0,rectangle,28,75,1,0,0,response1disk_3,TRUE,7,7,"[311,289,39,140,223,64,238,151,173,89,112,70,147,32,48,96,1,2,174,28]",1.449,4,10,1,0,0,rectangle,1,62,222,44,1,
,,,,,,,,,,,,,FF,,,,,,,,1.4,,,,,,,,,,,,,,,,,,,,,,59bd3c6e3a9ab60001119ae5,61036c2406437e30c4945f1a,2021-07-29_23h08.59.840,Simcolourproject_2stim_asymm_v5,2020.2.10,MacIntel,60,61025ae37ef11b136ea224fe,,,,,,,,,1032,17,-34,1,0,0,response3disk,,4,12,-13,1,0,0,rectangle,12,-13,1,0,0,,,,,,,12,-13,1,0,0,,1,63,223,70,1,
,,,,,,,,,,,,,FF,,,,,,,,0.599,,,,,,,,,,,,,,,,,,,,,,59bd3c6e3a9ab60001119ae5,61036c2406437e30c4945f1a,2021-07-29_23h08.59.840,Simcolourproject_2stim_asymm_v5,2020.2.10,MacIntel,60,61025ae37ef11b136ea224fe,,,,,,,,,698,26,43,1,0,0,response1disk,,7,20,17,1,0,0,rectangle,20,17,1,0,0,,,,,,,20,17,1,0,0,,1,64,224,146,1,
,,,,,,,,,,,,,FF,,,,,,,,0.617,,,,,,,,,,,,,,,,,,,,,,59bd3c6e3a9ab60001119ae5,61036c2406437e30c4945f1a,2021-07-29_23h08.59.840,Simcolourproject_2stim_asymm_v5,2020.2.10,MacIntel,60,61025ae37ef11b136ea224fe,,,,,,,,,3838,16,59,1,0,0,response1disk,,7,15,7,1,0,0,rectangle,15,7,1,0,0,,,,,,,15,7,1,0,0,,1,65,225,152,1,
,,,,,,,,,,,,,FF,,,,,,,,0.967,,,,,,,,,,,,,,,,,,,,,,59bd3c6e3a9ab60001119ae5,61036c2406437e30c4945f1a,2021-07-29_23h08.59.840,Simcolourproject_2stim_asymm_v5,2020.2.10,MacIntel,60,61025ae37ef11b136ea224fe,,,,,,,,,721,-28,-61,1,0,0,response5disk,,3,-14,-10,1,0,0,rectangle,-14,-10,1,0,0,,,,,,,-14,-10,1,0,0,,1,66,226,73,1,
,,,,,,,,,,,,,FF,,,,,,,,0.849,,,,,,,,,,,,,,,,,,,,,,59bd3c6e3a9ab60001119ae5,61036c2406437e30c4945f1a,2021-07-29_23h08.59.840,Simcolourproject_2stim_asymm_v5,2020.2.10,MacIntel,60,61025ae37ef11b136ea224fe,,,,,,,,,2220,48,30,1,0,0,response1disk,,6,17,8,1,0,0,rectangle,17,8,1,0,0,,,,,,,17,8,1,0,0,,1,67,227,159,1,
,,,,,,,,,,,,,FF,,,,,,,,0.433,,,,,,,,,,,,,,,,,,,,,,59bd3c6e3a9ab60001119ae5,61036c2406437e30c4945f1a,2021-07-29_23h08.59.840,Simcolourproject_2stim_asymm_v5,2020.2.10,MacIntel,60,61025ae37ef11b136ea224fe,,,,,,,,,3495,32,52,1,0,0,response1disk,,7,13,15,1,0,0,rectangle,13,15,1,0,0,,,,,,,13,15,1,0,0,,1,68,228,31,1,
,,,,,,,,,,,,,FF,,,,,,,,0.35,,,,,,,,,,,,,,,,,,,,,,59bd3c6e3a9ab60001119ae5,61036c2406437e30c4945f1a,2021-07-29_23h08.59.840,Simcolourproject_2stim_asymm_v5,2020.2.10,MacIntel,60,61025ae37ef11b136ea224fe,,,,,,,,,3020,25,65,1,0,0,response1disk,,7,9,-2,1,0,0,rectangle,9,-2,1,0,0,,,,,,,9,-2,1,0,0,,1,69,229,134,1,
,,,,,,,,,,,,,FF,,,,,,,,0.599,,,,,,,,,,,,,,,,,,,,,,59bd3c6e3a9ab60001119ae5,61036c2406437e30c4945f1a,2021-07-29_23h08.59.840,Simcolourproject_2stim_asymm_v5,2020.2.10,MacIntel,60,61025ae37ef11b136ea224fe,,,,,,,,,55,32,61,1,0,0,response1disk,,7,10,11,1,0,0,rectangle,10,11,1,0,0,,,,,,,10,11,1,0,0,,1,70,230,77,1,
,,,,,,,,,,,,,FF,,,,,,,,0.916,,,,,,,,,,,,,,,,,,,,,,59bd3c6e3a9ab60001119ae5,61036c2406437e30c4945f1a,2021-07-29_23h08.59.840,Simcolourproject_2stim_asymm_v5,2020.2.10,MacIntel,60,61025ae37ef11b136ea224fe,,,,,,,,,2299,-26,-84,1,0,0,response5disk,,3,-8,-2,1,0,0,rectangle,-8,-2,1,0,0,,,,,,,-8,-2,1,0,0,,1,71,231,67,1,
,,,,,,,,,,,,,FF,,,,,,,,0.416,,,,,,,,,,,,,,,,,,,,,,59bd3c6e3a9ab60001119ae5,61036c2406437e30c4945f1a,2021-07-29_23h08.59.840,Simcolourproject_2stim_asymm_v5,2020.2.10,MacIntel,60,61025ae37ef11b136ea224fe,,,,,,,,,3732,15,57,1,0,0,response1disk,,7,7,7,1,0,0,rectangle,7,7,1,0,0,,,,,,,7,7,1,0,0,,1,72,232,78,1,
,,,,,,,,,,,,,FF,,,,,,,,0.817,,,,,,,,,,,,,,,,,,,,,,59bd3c6e3a9ab60001119ae5,61036c2406437e30c4945f1a,2021-07-29_23h08.59.840,Simcolourproject_2stim_asymm_v5,2020.2.10,MacIntel,60,61025ae37ef11b136ea224fe,,,,,,,,,2639,61,42,1,0,0,response1disk,,6,9,4,1,0,0,rectangle,9,4,1,0,0,,,,,,,9,4,1,0,0,,1,73,233,102,1,
,,,,,,,,,,,,,FF,,,,,,,,0.366,,,,,,,,,,,,,,,,,,,,,,59bd3c6e3a9ab60001119ae5,61036c2406437e30c4945f1a,2021-07-29_23h08.59.840,Simcolourproject_2stim_asymm_v5,2020.2.10,MacIntel,60,61025ae37ef11b136ea224fe,,,,,,,,,3352,24,45,1,0,0,response1disk,,7,10,13,1,0,0,rectangle,10,13,1,0,0,,,,,,,10,13,1,0,0,,1,74,234,106,1,
,,,,,,,,,,,,,FF,,,,,,,,0.899,,,,,,,,,,,,,,,,,,,,,,59bd3c6e3a9ab60001119ae5,61036c2406437e30c4945f1a,2021-07-29_23h08.59.840,Simcolourproject_2stim_asymm_v5,2020.2.10,MacIntel,60,61025ae37ef11b136ea224fe,,,,,,,,,1156,62,41,1,0,0,response1disk,,6,0,12,1,0,0,rectangle,0,12,1,0,0,,,,,,,0,12,1,0,0,,1,75,235,151,1,
,,,,,,,,,,,,,FF,,,,,,,,0.367,,,,,,,,,,,,,,,,,,,,,,59bd3c6e3a9ab60001119ae5,61036c2406437e30c4945f1a,2021-07-29_23h08.59.840,Simcolourproject_2stim_asymm_v5,2020.2.10,MacIntel,60,61025ae37ef11b136ea224fe,,,,,,,,,421,47,91,1,0,0,response1disk,,7,6,5,1,0,0,rectangle,6,5,1,0,0,,,,,,,6,5,1,0,0,,1,76,236,14,1,
,,,,,,,,,,,,,FF,,,,,,,,0.8,,,,,,,,,,,,,,,,,,,,,,59bd3c6e3a9ab60001119ae5,61036c2406437e30c4945f1a,2021-07-29_23h08.59.840,Simcolourproject_2stim_asymm_v5,2020.2.10,MacIntel,60,61025ae37ef11b136ea224fe,,,,,,,,,2884,23,47,1,0,0,response1disk,,7,8,3,1,0,0,rectangle,-39,-60,1,0,0,response5disk_3,TRUE,3,3,"[311,289,39,140,223,64,238,151,173,89,112,70,147,32,48,96,1,2,174,28]",1.499,-25,0,1,0,0,rectangle,1,77,237,58,1,
,,,,,,,,,,,,,FF,,,,,,,,0.85,,,,,,,,,,,,,,,,,,,,,,59bd3c6e3a9ab60001119ae5,61036c2406437e30c4945f1a,2021-07-29_23h08.59.840,Simcolourproject_2stim_asymm_v5,2020.2.10,MacIntel,60,61025ae37ef11b136ea224fe,,,,,,,,,2994,36,-54,1,0,0,response3disk,,4,29,-14,1,0,0,rectangle,29,-14,1,0,0,,,,,,,29,-14,1,0,0,,1,78,238,24,1,
,,,,,,,,,,,,,FF,,,,,,,,0.933,,,,,,,,,,,,,,,,,,,,,,59bd3c6e3a9ab60001119ae5,61036c2406437e30c4945f1a,2021-07-29_23h08.59.840,Simcolourproject_2stim_asymm_v5,2020.2.10,MacIntel,60,61025ae37ef11b136ea224fe,,,,,,,,,3817,-66,30,1,0,0,response7disk,,1,-1,5,1,0,0,rectangle,-1,5,1,0,0,,,,,,,-1,5,1,0,0,,1,79,239,66,1,
,,,,,,,,,,,,,FF,,,,,,,,0.467,,,,,,,,,,,,,,,,,,,,,,59bd3c6e3a9ab60001119ae5,61036c2406437e30c4945f1a,2021-07-29_23h08.59.840,Simcolourproject_2stim_asymm_v5,2020.2.10,MacIntel,60,61025ae37ef11b136ea224fe,,,,,,,,,3142,33,66,1,0,0,response1disk,,7,11,9,1,0,0,rectangle,11,9,1,0,0,,,,,,,11,9,1,0,0,,1,80,240,154,1,
,,,,,,,,,,,,,FF,,,,,,,,0.45,,,,,,,,,,,,,,,,,,,,,,59bd3c6e3a9ab60001119ae5,61036c2406437e30c4945f1a,2021-07-29_23h08.59.840,Simcolourproject_2stim_asymm_v5,2020.2.10,MacIntel,60,61025ae37ef11b136ea224fe,,,,,,,,,2969,20,73,1,0,0,response1disk,,7,2,-12,1,0,0,rectangle,2,-12,1,0,0,,,,,,,2,-12,1,0,0,,1,81,241,69,1,
,,,,,,,,,,,,,FF,,,,,,,,0.35,,,,,,,,,,,,,,,,,,,,,,59bd3c6e3a9ab60001119ae5,61036c2406437e30c4945f1a,2021-07-29_23h08.59.840,Simcolourproject_2stim_asymm_v5,2020.2.10,MacIntel,60,61025ae37ef11b136ea224fe,,,,,,,,,3326,32,69,1,0,0,response1disk,,7,18,3,1,0,0,rectangle,18,3,1,0,0,,,,,,,18,3,1,0,0,,1,82,242,75,1,
,,,,,,,,,,,,,FF,,,,,,,,0.401,,,,,,,,,,,,,,,,,,,,,,59bd3c6e3a9ab60001119ae5,61036c2406437e30c4945f1a,2021-07-29_23h08.59.840,Simcolourproject_2stim_asymm_v5,2020.2.10,MacIntel,60,61025ae37ef11b136ea224fe,,,,,,,,,1081,23,62,1,0,0,response1disk,,7,19,6,1,0,0,rectangle,19,6,1,0,0,,,,,,,19,6,1,0,0,,1,83,243,57,1,
,,,,,,,,,,,,,FF,,,,,,,,0.501,,,,,,,,,,,,,,,,,,,,,,59bd3c6e3a9ab60001119ae5,61036c2406437e30c4945f1a,2021-07-29_23h08.59.840,Simcolourproject_2stim_asymm_v5,2020.2.10,MacIntel,60,61025ae37ef11b136ea224fe,,,,,,,,,1799,65,46,1,0,0,response1disk,,6,-2,-7,1,0,0,rectangle,-2,-7,1,0,0,,,,,,,-2,-7,1,0,0,,1,84,244,6,1,
,,,,,,,,,,,,,FF,,,,,,,,1.05,,,,,,,,,,,,,,,,,,,,,,59bd3c6e3a9ab60001119ae5,61036c2406437e30c4945f1a,2021-07-29_23h08.59.840,Simcolourproject_2stim_asymm_v5,2020.2.10,MacIntel,60,61025ae37ef11b136ea224fe,,,,,,,,,2935,32,-70,1,0,0,response3disk,,4,30,-17,1,0,0,rectangle,30,-17,1,0,0,,,,,,,30,-17,1,0,0,,1,85,245,148,1,
,,,,,,,,,,,,,FF,,,,,,,,0.433,,,,,,,,,,,,,,,,,,,,,,59bd3c6e3a9ab60001119ae5,61036c2406437e30c4945f1a,2021-07-29_23h08.59.840,Simcolourproject_2stim_asymm_v5,2020.2.10,MacIntel,60,61025ae37ef11b136ea224fe,,,,,,,,,2180,42,80,1,0,0,response1disk,,7,13,6,1,0,0,rectangle,13,6,1,0,0,,,,,,,13,6,1,0,0,,1,86,246,55,1,
,,,,,,,,,,,,,FF,,,,,,,,1.05,,,,,,,,,,,,,,,,,,,,,,59bd3c6e3a9ab60001119ae5,61036c2406437e30c4945f1a,2021-07-29_23h08.59.840,Simcolourproject_2stim_asymm_v5,2020.2.10,MacIntel,60,61025ae37ef11b136ea224fe,,,,,,,,,2173,66,48,1,0,0,response1disk,,6,8,12,1,0,0,rectangle,8,12,1,0,0,,,,,,,8,12,1,0,0,,1,87,247,155,1,
,,,,,,,,,,,,,FF,,,,,,,,0.45,,,,,,,,,,,,,,,,,,,,,,59bd3c6e3a9ab60001119ae5,61036c2406437e30c4945f1a,2021-07-29_23h08.59.840,Simcolourproject_2stim_asymm_v5,2020.2.10,MacIntel,60,61025ae37ef11b136ea224fe,,,,,,,,,2021,25,59,1,0,0,response1disk,,7,17,-7,1,0,0,rectangle,17,-7,1,0,0,,,,,,,17,-7,1,0,0,,1,88,248,108,1,
,,,,,,,,,,,,,FF,,,,,,,,1.199,,,,,,,,,,,,,,,,,,,,,,59bd3c6e3a9ab60001119ae5,61036c2406437e30c4945f1a,2021-07-29_23h08.59.840,Simcolourproject_2stim_asymm_v5,2020.2.10,MacIntel,60,61025ae37ef11b136ea224fe,,,,,,,,,167,37,-60,1,0,0,response3disk,,4,14,2,1,0,0,rectangle,14,2,1,0,0,,,,,,,14,2,1,0,0,,1,89,249,127,1,
,,,,,,,,,,,,,FF,,,,,,,,0.366,,,,,,,,,,,,,,,,,,,,,,59bd3c6e3a9ab60001119ae5,61036c2406437e30c4945f1a,2021-07-29_23h08.59.840,Simcolourproject_2stim_asymm_v5,2020.2.10,MacIntel,60,61025ae37ef11b136ea224fe,,,,,,,,,2517,31,62,1,0,0,response1disk,,7,15,0,1,0,0,rectangle,15,0,1,0,0,,,,,,,15,0,1,0,0,,1,90,250,114,1,
,,,,,,,,,,,,,FF,,,,,,,,0.933,,,,,,,,,,,,,,,,,,,,,,59bd3c6e3a9ab60001119ae5,61036c2406437e30c4945f1a,2021-07-29_23h08.59.840,Simcolourproject_2stim_asymm_v5,2020.2.10,MacIntel,60,61025ae37ef11b136ea224fe,,,,,,,,,1223,14,-52,1,0,0,response3disk,,4,4,-11,1,0,0,rectangle,4,-11,1,0,0,,,,,,,4,-11,1,0,0,,1,91,251,39,1,
,,,,,,,,,,,,,FF,,,,,,,,0.383,,,,,,,,,,,,,,,,,,,,,,59bd3c6e3a9ab60001119ae5,61036c2406437e30c4945f1a,2021-07-29_23h08.59.840,Simcolourproject_2stim_asymm_v5,2020.2.10,MacIntel,60,61025ae37ef11b136ea224fe,,,,,,,,,935,21,61,1,0,0,response1disk,,7,13,4,1,0,0,rectangle,13,4,1,0,0,,,,,,,13,4,1,0,0,,1,92,252,120,1,
,,,,,,,,,,,,,FF,,,,,,,,0.767,,,,,,,,,,,,,,,,,,,,,,59bd3c6e3a9ab60001119ae5,61036c2406437e30c4945f1a,2021-07-29_23h08.59.840,Simcolourproject_2stim_asymm_v5,2020.2.10,MacIntel,60,61025ae37ef11b136ea224fe,,,,,,,,,4271,28,49,1,0,0,response1disk,,7,7,14,1,0,0,rectangle,7,14,1,0,0,,,,,,,7,14,1,0,0,,1,93,253,7,1,
,,,,,,,,,,,,,FF,,,,,,,,0.599,,,,,,,,,,,,,,,,,,,,,,59bd3c6e3a9ab60001119ae5,61036c2406437e30c4945f1a,2021-07-29_23h08.59.840,Simcolourproject_2stim_asymm_v5,2020.2.10,MacIntel,60,61025ae37ef11b136ea224fe,,,,,,,,,198,47,-30,1,0,0,response3disk,,5,19,-4,1,0,0,rectangle,19,-4,1,0,0,,,,,,,19,-4,1,0,0,,1,94,254,34,1,
,,,,,,,,,,,,,FF,,,,,,,,0.384,,,,,,,,,,,,,,,,,,,,,,59bd3c6e3a9ab60001119ae5,61036c2406437e30c4945f1a,2021-07-29_23h08.59.840,Simcolourproject_2stim_asymm_v5,2020.2.10,MacIntel,60,61025ae37ef11b136ea224fe,,,,,,,,,1187,26,59,1,0,0,response1disk,,7,10,10,1,0,0,rectangle,10,10,1,0,0,,,,,,,10,10,1,0,0,,1,95,255,136,1,
,,,,,,,,,,,,,FF,,,,,,,,0.382,,,,,,,,,,,,,,,,,,,,,,59bd3c6e3a9ab60001119ae5,61036c2406437e30c4945f1a,2021-07-29_23h08.59.840,Simcolourproject_2stim_asymm_v5,2020.2.10,MacIntel,60,61025ae37ef11b136ea224fe,,,,,,,,,4153,21,63,1,0,0,response1disk,,7,14,5,1,0,0,rectangle,14,5,1,0,0,,,,,,,14,5,1,0,0,,1,96,256,141,1,
,,,,,,,,,,,,,FF,,,,,,,,0.8,,,,,,,,,,,,,,,,,,,,,,59bd3c6e3a9ab60001119ae5,61036c2406437e30c4945f1a,2021-07-29_23h08.59.840,Simcolourproject_2stim_asymm_v5,2020.2.10,MacIntel,60,61025ae37ef11b136ea224fe,,,,,,,,,417,63,21,1,0,0,response1disk,,6,12,16,1,0,0,rectangle,12,16,1,0,0,,,,,,,12,16,1,0,0,,1,97,257,60,1,
,,,,,,,,,,,,,FF,,,,,,,,0.366,,,,,,,,,,,,,,,,,,,,,,59bd3c6e3a9ab60001119ae5,61036c2406437e30c4945f1a,2021-07-29_23h08.59.840,Simcolourproject_2stim_asymm_v5,2020.2.10,MacIntel,60,61025ae37ef11b136ea224fe,,,,,,,,,4259,25,48,1,0,0,response1disk,,7,7,15,1,0,0,rectangle,7,15,1,0,0,,,,,,,7,15,1,0,0,,1,98,258,133,1,
,,,,,,,,,,,,,FF,,,,,,,,1.399,,,,,,,,,,,,,,,,,,,,,,59bd3c6e3a9ab60001119ae5,61036c2406437e30c4945f1a,2021-07-29_23h08.59.840,Simcolourproject_2stim_asymm_v5,2020.2.10,MacIntel,60,61025ae37ef11b136ea224fe,,,,,,,,,170,-75,-44,1,0,0,response5disk,,2,-15,-6,1,0,0,rectangle,-15,-6,1,0,0,,,,,,,-15,-6,1,0,0,,1,99,259,121,1,
,,,,,,,,,,,,,FF,,,,,,,,0.835,,,,,,,,,,,,,,,,,,,,,,59bd3c6e3a9ab60001119ae5,61036c2406437e30c4945f1a,2021-07-29_23h08.59.840,Simcolourproject_2stim_asymm_v5,2020.2.10,MacIntel,60,61025ae37ef11b136ea224fe,,,,,,,,,4334,32,59,1,0,0,response1disk,,7,3,8,1,0,0,rectangle,3,8,1,0,0,,,,,,,3,8,1,0,0,,1,100,260,13,1,
,,,,,,,,,,,,,FF,,,,,,,,0.766,,,,,,,,,,,,,,,,,,,,,,59bd3c6e3a9ab60001119ae5,61036c2406437e30c4945f1a,2021-07-29_23h08.59.840,Simcolourproject_2stim_asymm_v5,2020.2.10,MacIntel,60,61025ae37ef11b136ea224fe,,,,,,,,,887,-48,28,1,0,0,response7disk,,1,3,2,1,0,0,rectangle,3,2,1,0,0,,,,,,,3,2,1,0,0,,1,101,261,139,1,
,,,,,,,,,,,,,FF,,,,,,,,1,,,,,,,,,,,,,,,,,,,,,,59bd3c6e3a9ab60001119ae5,61036c2406437e30c4945f1a,2021-07-29_23h08.59.840,Simcolourproject_2stim_asymm_v5,2020.2.10,MacIntel,60,61025ae37ef11b136ea224fe,,,,,,,,,2712,-35,-63,1,0,0,response5disk,,3,-21,1,1,0,0,rectangle,-21,1,1,0,0,,,,,,,-21,1,1,0,0,,1,102,262,23,1,
,,,,,,,,,,,,,FF,,,,,,,,0.784,,,,,,,,,,,,,,,,,,,,,,59bd3c6e3a9ab60001119ae5,61036c2406437e30c4945f1a,2021-07-29_23h08.59.840,Simcolourproject_2stim_asymm_v5,2020.2.10,MacIntel,60,61025ae37ef11b136ea224fe,,,,,,,,,411,39,54,1,0,0,response1disk,,7,16,-1,1,0,0,rectangle,16,-1,1,0,0,,,,,,,16,-1,1,0,0,,1,103,263,100,1,
,,,,,,,,,,,,,FF,,,,,,,,0.816,,,,,,,,,,,,,,,,,,,,,,59bd3c6e3a9ab60001119ae5,61036c2406437e30c4945f1a,2021-07-29_23h08.59.840,Simcolourproject_2stim_asymm_v5,2020.2.10,MacIntel,60,61025ae37ef11b136ea224fe,,,,,,,,,204,69,32,1,0,0,response1disk,,6,18,16,1,0,0,rectangle,18,16,1,0,0,,,,,,,18,16,1,0,0,,1,104,264,71,1,
,,,,,,,,,,,,,FF,,,,,,,,0.317,,,,,,,,,,,,,,,,,,,,,,59bd3c6e3a9ab60001119ae5,61036c2406437e30c4945f1a,2021-07-29_23h08.59.840,Simcolourproject_2stim_asymm_v5,2020.2.10,MacIntel,60,61025ae37ef11b136ea224fe,,,,,,,,,2526,32,63,1,0,0,response1disk,,7,9,13,1,0,0,rectangle,9,13,1,0,0,,,,,,,9,13,1,0,0,,1,105,265,90,1,
,,,,,,,,,,,,,FF,,,,,,,,0.832,,,,,,,,,,,,,,,,,,,,,,59bd3c6e3a9ab60001119ae5,61036c2406437e30c4945f1a,2021-07-29_23h08.59.840,Simcolourproject_2stim_asymm_v5,2020.2.10,MacIntel,60,61025ae37ef11b136ea224fe,,,,,,,,,810,-75,12,1,0,0,response7disk,,1,-24,0,1,0,0,rectangle,-24,0,1,0,0,,,,,,,-24,0,1,0,0,,1,106,266,79,1,
,,,,,,,,,,,,,FF,,,,,,,,0.384,,,,,,,,,,,,,,,,,,,,,,59bd3c6e3a9ab60001119ae5,61036c2406437e30c4945f1a,2021-07-29_23h08.59.840,Simcolourproject_2stim_asymm_v5,2020.2.10,MacIntel,60,61025ae37ef11b136ea224fe,,,,,,,,,3466,22,62,1,0,0,response1disk,,7,12,12,1,0,0,rectangle,12,12,1,0,0,,,,,,,12,12,1,0,0,,1,107,267,125,1,
,,,,,,,,,,,,,FF,,,,,,,,2.117,,,,,,,,,,,,,,,,,,,,,,59bd3c6e3a9ab60001119ae5,61036c2406437e30c4945f1a,2021-07-29_23h08.59.840,Simcolourproject_2stim_asymm_v5,2020.2.10,MacIntel,60,61025ae37ef11b136ea224fe,,,,,,,,,3933,28,-51,1,0,0,response3disk,,4,7,-13,1,0,0,rectangle,7,-13,1,0,0,,,,,,,7,-13,1,0,0,,1,108,268,27,1,
,,,,,,,,,,,,,FF,,,,,,,,0.35,,,,,,,,,,,,,,,,,,,,,,59bd3c6e3a9ab60001119ae5,61036c2406437e30c4945f1a,2021-07-29_23h08.59.840,Simcolourproject_2stim_asymm_v5,2020.2.10,MacIntel,60,61025ae37ef11b136ea224fe,,,,,,,,,336,27,56,1,0,0,response1disk,,7,12,-13,1,0,0,rectangle,12,-13,1,0,0,,,,,,,12,-13,1,0,0,,1,109,269,1,1,
,,,,,,,,,,,,,FF,,,,,,,,0.383,,,,,,,,,,,,,,,,,,,,,,59bd3c6e3a9ab60001119ae5,61036c2406437e30c4945f1a,2021-07-29_23h08.59.840,Simcolourproject_2stim_asymm_v5,2020.2.10,MacIntel,60,61025ae37ef11b136ea224fe,,,,,,,,,3929,29,47,1,0,0,response1disk,,7,8,6,1,0,0,rectangle,8,6,1,0,0,,,,,,,8,6,1,0,0,,1,110,270,131,1,
,,,,,,,,,,,,,FF,,,,,,,,0.316,,,,,,,,,,,,,,,,,,,,,,59bd3c6e3a9ab60001119ae5,61036c2406437e30c4945f1a,2021-07-29_23h08.59.840,Simcolourproject_2stim_asymm_v5,2020.2.10,MacIntel,60,61025ae37ef11b136ea224fe,,,,,,,,,4010,22,49,1,0,0,response1disk,,7,11,-10,1,0,0,rectangle,11,-10,1,0,0,,,,,,,11,-10,1,0,0,,1,111,271,2,1,
,,,,,,,,,,,,,FF,,,,,,,,0.933,,,,,,,,,,,,,,,,,,,,,,59bd3c6e3a9ab60001119ae5,61036c2406437e30c4945f1a,2021-07-29_23h08.59.840,Simcolourproject_2stim_asymm_v5,2020.2.10,MacIntel,60,61025ae37ef11b136ea224fe,,,,,,,,,2350,25,55,1,0,0,response1disk,,7,9,3,1,0,0,rectangle,9,3,1,0,0,,,,,,,9,3,1,0,0,,1,112,272,19,1,
,,,,,,,,,,,,,FF,,,,,,,,0.751,,,,,,,,,,,,,,,,,,,,,,59bd3c6e3a9ab60001119ae5,61036c2406437e30c4945f1a,2021-07-29_23h08.59.840,Simcolourproject_2stim_asymm_v5,2020.2.10,MacIntel,60,61025ae37ef11b136ea224fe,,,,,,,,,1323,32,57,1,0,0,response1disk,,7,15,-2,1,0,0,rectangle,15,-2,1,0,0,,,,,,,15,-2,1,0,0,,1,113,273,143,1,
,,,,,,,,,,,,,FF,,,,,,,,1.2,,,,,,,,,,,,,,,,,,,,,,59bd3c6e3a9ab60001119ae5,61036c2406437e30c4945f1a,2021-07-29_23h08.59.840,Simcolourproject_2stim_asymm_v5,2020.2.10,MacIntel,60,61025ae37ef11b136ea224fe,,,,,,,,,3305,88,-27,1,0,0,response3disk,,5,-9,5,1,0,0,rectangle,-9,5,1,0,0,,,,,,,-9,5,1,0,0,,1,114,274,115,1,
,,,,,,,,,,,,,FF,,,,,,,,0.582,,,,,,,,,,,,,,,,,,,,,,59bd3c6e3a9ab60001119ae5,61036c2406437e30c4945f1a,2021-07-29_23h08.59.840,Simcolourproject_2stim_asymm_v5,2020.2.10,MacIntel,60,61025ae37ef11b136ea224fe,,,,,,,,,1705,58,-23,1,0,0,response3disk,,5,-8,-1,1,0,0,rectangle,-8,-1,1,0,0,,,,,,,-8,-1,1,0,0,,1,115,275,29,1,
,,,,,,,,,,,,,FF,,,,,,,,0.767,,,,,,,,,,,,,,,,,,,,,,59bd3c6e3a9ab60001119ae5,61036c2406437e30c4945f1a,2021-07-29_23h08.59.840,Simcolourproject_2stim_asymm_v5,2020.2.10,MacIntel,60,61025ae37ef11b136ea224fe,,,,,,,,,3709,-76,-20,1,0,0,response5disk,,2,-9,-6,1,0,0,rectangle,-9,-6,1,0,0,,,,,,,-9,-6,1,0,0,,1,116,276,103,1,
,,,,,,,,,,,,,FF,,,,,,,,1.05,,,,,,,,,,,,,,,,,,,,,,59bd3c6e3a9ab60001119ae5,61036c2406437e30c4945f1a,2021-07-29_23h08.59.840,Simcolourproject_2stim_asymm_v5,2020.2.10,MacIntel,60,61025ae37ef11b136ea224fe,,,,,,,,,2593,-30,-68,1,0,0,response5disk,,3,1,3,1,0,0,rectangle,1,3,1,0,0,,,,,,,1,3,1,0,0,,1,117,277,36,1,
,,,,,,,,,,,,,FF,,,,,,,,0.467,,,,,,,,,,,,,,,,,,,,,,59bd3c6e3a9ab60001119ae5,61036c2406437e30c4945f1a,2021-07-29_23h08.59.840,Simcolourproject_2stim_asymm_v5,2020.2.10,MacIntel,60,61025ae37ef11b136ea224fe,,,,,,,,,3825,27,38,1,0,0,response1disk,,7,7,3,1,0,0,rectangle,7,3,1,0,0,,,,,,,7,3,1,0,0,,1,118,278,150,1,
,,,,,,,,,,,,,FF,,,,,,,,0.867,,,,,,,,,,,,,,,,,,,,,,59bd3c6e3a9ab60001119ae5,61036c2406437e30c4945f1a,2021-07-29_23h08.59.840,Simcolourproject_2stim_asymm_v5,2020.2.10,MacIntel,60,61025ae37ef11b136ea224fe,,,,,,,,,2785,-58,-24,1,0,0,response5disk,,2,6,1,1,0,0,rectangle,6,1,1,0,0,,,,,,,6,1,1,0,0,,1,119,279,63,1,
,,,,,,,,,,,,,FF,,,,,,,,0.334,,,,,,,,,,,,,,,,,,,,,,59bd3c6e3a9ab60001119ae5,61036c2406437e30c4945f1a,2021-07-29_23h08.59.840,Simcolourproject_2stim_asymm_v5,2020.2.10,MacIntel,60,61025ae37ef11b136ea224fe,,,,,,,,,2400,25,54,1,0,0,response1disk,,7,12,11,1,0,0,rectangle,12,11,1,0,0,,,,,,,12,11,1,0,0,,1,120,280,43,1,
,,,,,,,,,,,,,FF,,,,,,,,0.815,,,,,,,,,,,,,,,,,,,,,,59bd3c6e3a9ab60001119ae5,61036c2406437e30c4945f1a,2021-07-29_23h08.59.840,Simcolourproject_2stim_asymm_v5,2020.2.10,MacIntel,60,61025ae37ef11b136ea224fe,,,,,,,,,732,66,31,1,0,0,response1disk,,6,7,-11,1,0,0,rectangle,7,-11,1,0,0,,,,,,,7,-11,1,0,0,,1,121,281,135,1,
,,,,,,,,,,,,,FF,,,,,,,,0.466,,,,,,,,,,,,,,,,,,,,,,59bd3c6e3a9ab60001119ae5,61036c2406437e30c4945f1a,2021-07-29_23h08.59.840,Simcolourproject_2stim_asymm_v5,2020.2.10,MacIntel,60,61025ae37ef11b136ea224fe,,,,,,,,,706,67,35,1,0,0,response1disk,,6,-4,-6,1,0,0,rectangle,-4,-6,1,0,0,,,,,,,-4,-6,1,0,0,,1,122,282,84,1,
,,,,,,,,,,,,,FF,,,,,,,,0.983,,,,,,,,,,,,,,,,,,,,,,59bd3c6e3a9ab60001119ae5,61036c2406437e30c4945f1a,2021-07-29_23h08.59.840,Simcolourproject_2stim_asymm_v5,2020.2.10,MacIntel,60,61025ae37ef11b136ea224fe,,,,,,,,,1453,19,-52,1,0,0,response3disk,,4,-3,-14,1,0,0,rectangle,-3,-14,1,0,0,,,,,,,-3,-14,1,0,0,,1,123,283,88,1,
,,,,,,,,,,,,,FF,,,,,,,,0.849,,,,,,,,,,,,,,,,,,,,,,59bd3c6e3a9ab60001119ae5,61036c2406437e30c4945f1a,2021-07-29_23h08.59.840,Simcolourproject_2stim_asymm_v5,2020.2.10,MacIntel,60,61025ae37ef11b136ea224fe,,,,,,,,,3946,22,-56,1,0,0,response3disk,,4,14,-10,1,0,0,rectangle,14,-10,1,0,0,,,,,,,14,-10,1,0,0,,1,124,284,30,1,
,,,,,,,,,,,,,FF,,,,,,,,0.45,,,,,,,,,,,,,,,,,,,,,,59bd3c6e3a9ab60001119ae5,61036c2406437e30c4945f1a,2021-07-29_23h08.59.840,Simcolourproject_2stim_asymm_v5,2020.2.10,MacIntel,60,61025ae37ef11b136ea224fe,,,,,,,,,2013,40,44,1,0,0,response1disk,,7,12,12,1,0,0,rectangle,12,12,1,0,0,,,,,,,12,12,1,0,0,,1,125,285,110,1,
,,,,,,,,,,,,,FF,,,,,,,,0.348,,,,,,,,,,,,,,,,,,,,,,59bd3c6e3a9ab60001119ae5,61036c2406437e30c4945f1a,2021-07-29_23h08.59.840,Simcolourproject_2stim_asymm_v5,2020.2.10,MacIntel,60,61025ae37ef11b136ea224fe,,,,,,,,,3464,25,57,1,0,0,response1disk,,7,11,6,1,0,0,rectangle,11,6,1,0,0,,,,,,,11,6,1,0,0,,1,126,286,38,1,
,,,,,,,,,,,,,FF,,,,,,,,0.633,,,,,,,,,,,,,,,,,,,,,,59bd3c6e3a9ab60001119ae5,61036c2406437e30c4945f1a,2021-07-29_23h08.59.840,Simcolourproject_2stim_asymm_v5,2020.2.10,MacIntel,60,61025ae37ef11b136ea224fe,,,,,,,,,4316,-36,62,1,0,0,response7disk,,0,1,6,1,0,0,rectangle,1,6,1,0,0,,,,,,,1,6,1,0,0,,1,127,287,153,1,
,,,,,,,,,,,,,FF,,,,,,,,0.784,,,,,,,,,,,,,,,,,,,,,,59bd3c6e3a9ab60001119ae5,61036c2406437e30c4945f1a,2021-07-29_23h08.59.840,Simcolourproject_2stim_asymm_v5,2020.2.10,MacIntel,60,61025ae37ef11b136ea224fe,,,,,,,,,1159,-32,-52,1,0,0,response5disk,,3,4,10,1,0,0,rectangle,-64,28,1,0,0,response7disk_3,TRUE,1,1,"[311,289,39,140,223,64,238,151,173,89,112,70,147,32,48,96,1,2,174,28]",1.066,-16,11,1,0,0,rectangle,1,128,288,124,1,
,,,,,,,,,,,,,FF,,,,,,,,0.816,,,,,,,,,,,,,,,,,,,,,,59bd3c6e3a9ab60001119ae5,61036c2406437e30c4945f1a,2021-07-29_23h08.59.840,Simcolourproject_2stim_asymm_v5,2020.2.10,MacIntel,60,61025ae37ef11b136ea224fe,,,,,,,,,1992,22,83,1,0,0,response1disk,,7,10,6,1,0,0,rectangle,10,6,1,0,0,,,,,,,10,6,1,0,0,,1,129,289,35,1,
,,,,,,,,,,,,,FF,,,,,,,,1.333,,,,,,,,,,,,,,,,,,,,,,59bd3c6e3a9ab60001119ae5,61036c2406437e30c4945f1a,2021-07-29_23h08.59.840,Simcolourproject_2stim_asymm_v5,2020.2.10,MacIntel,60,61025ae37ef11b136ea224fe,,,,,,,,,1755,-38,-72,1,0,0,response5disk,,3,2,-5,1,0,0,rectangle,2,-5,1,0,0,,,,,,,2,-5,1,0,0,,1,130,290,147,1,
,,,,,,,,,,,,,FF,,,,,,,,0.448,,,,,,,,,,,,,,,,,,,,,,59bd3c6e3a9ab60001119ae5,61036c2406437e30c4945f1a,2021-07-29_23h08.59.840,Simcolourproject_2stim_asymm_v5,2020.2.10,MacIntel,60,61025ae37ef11b136ea224fe,,,,,,,,,2967,46,81,1,0,0,response1disk,,7,6,10,1,0,0,rectangle,6,10,1,0,0,,,,,,,6,10,1,0,0,,1,131,291,109,1,
,,,,,,,,,,,,,FF,,,,,,,,0.699,,,,,,,,,,,,,,,,,,,,,,59bd3c6e3a9ab60001119ae5,61036c2406437e30c4945f1a,2021-07-29_23h08.59.840,Simcolourproject_2stim_asymm_v5,2020.2.10,MacIntel,60,61025ae37ef11b136ea224fe,,,,,,,,,620,-58,37,1,0,0,response7disk,,1,-2,16,1,0,0,rectangle,-2,16,1,0,0,,,,,,,-2,16,1,0,0,,1,132,292,130,1,
,,,,,,,,,,,,,FF,,,,,,,,0.466,,,,,,,,,,,,,,,,,,,,,,59bd3c6e3a9ab60001119ae5,61036c2406437e30c4945f1a,2021-07-29_23h08.59.840,Simcolourproject_2stim_asymm_v5,2020.2.10,MacIntel,60,61025ae37ef11b136ea224fe,,,,,,,,,4355,22,81,1,0,0,response1disk,,7,-4,-8,1,0,0,rectangle,-4,-8,1,0,0,,,,,,,-4,-8,1,0,0,,1,133,293,122,1,
,,,,,,,,,,,,,FF,,,,,,,,1.316,,,,,,,,,,,,,,,,,,,,,,59bd3c6e3a9ab60001119ae5,61036c2406437e30c4945f1a,2021-07-29_23h08.59.840,Simcolourproject_2stim_asymm_v5,2020.2.10,MacIntel,60,61025ae37ef11b136ea224fe,,,,,,,,,282,64,15,1,0,0,response1disk,,6,22,-3,1,0,0,rectangle,22,-3,1,0,0,,,,,,,22,-3,1,0,0,,1,134,294,117,1,
,,,,,,,,,,,,,FF,,,,,,,,0.566,,,,,,,,,,,,,,,,,,,,,,59bd3c6e3a9ab60001119ae5,61036c2406437e30c4945f1a,2021-07-29_23h08.59.840,Simcolourproject_2stim_asymm_v5,2020.2.10,MacIntel,60,61025ae37ef11b136ea224fe,,,,,,,,,3425,-35,64,1,0,0,response7disk,,0,-2,-16,1,0,0,rectangle,-2,-16,1,0,0,,,,,,,-2,-16,1,0,0,,1,135,295,82,1,
,,,,,,,,,,,,,FF,,,,,,,,1.267,,,,,,,,,,,,,,,,,,,,,,59bd3c6e3a9ab60001119ae5,61036c2406437e30c4945f1a,2021-07-29_23h08.59.840,Simcolourproject_2stim_asymm_v5,2020.2.10,MacIntel,60,61025ae37ef11b136ea224fe,,,,,,,,,2246,-68,-41,1,0,0,response5disk,,2,17,-2,1,0,0,rectangle,17,-2,1,0,0,,,,,,,17,-2,1,0,0,,1,136,296,8,1,
,,,,,,,,,,,,,FF,,,,,,,,0.449,,,,,,,,,,,,,,,,,,,,,,59bd3c6e3a9ab60001119ae5,61036c2406437e30c4945f1a,2021-07-29_23h08.59.840,Simcolourproject_2stim_asymm_v5,2020.2.10,MacIntel,60,61025ae37ef11b136ea224fe,,,,,,,,,3281,36,51,1,0,0,response1disk,,7,-7,-6,1,0,0,rectangle,-7,-6,1,0,0,,,,,,,-7,-6,1,0,0,,1,137,297,20,1,
,,,,,,,,,,,,,FF,,,,,,,,0.366,,,,,,,,,,,,,,,,,,,,,,59bd3c6e3a9ab60001119ae5,61036c2406437e30c4945f1a,2021-07-29_23h08.59.840,Simcolourproject_2stim_asymm_v5,2020.2.10,MacIntel,60,61025ae37ef11b136ea224fe,,,,,,,,,1860,34,88,1,0,0,response1disk,,7,19,7,1,0,0,rectangle,19,7,1,0,0,,,,,,,19,7,1,0,0,,1,138,298,26,1,
,,,,,,,,,,,,,FF,,,,,,,,1.215,,,,,,,,,,,,,,,,,,,,,,59bd3c6e3a9ab60001119ae5,61036c2406437e30c4945f1a,2021-07-29_23h08.59.840,Simcolourproject_2stim_asymm_v5,2020.2.10,MacIntel,60,61025ae37ef11b136ea224fe,,,,,,,,,2731,80,34,1,0,0,response1disk,,6,9,14,1,0,0,rectangle,9,14,1,0,0,,,,,,,9,14,1,0,0,,1,139,299,54,1,
,,,,,,,,,,,,,FF,,,,,,,,0.851,,,,,,,,,,,,,,,,,,,,,,59bd3c6e3a9ab60001119ae5,61036c2406437e30c4945f1a,2021-07-29_23h08.59.840,Simcolourproject_2stim_asymm_v5,2020.2.10,MacIntel,60,61025ae37ef11b136ea224fe,,,,,,,,,3638,37,80,1,0,0,response1disk,,7,5,1,1,0,0,rectangle,5,1,1,0,0,,,,,,,5,1,1,0,0,,1,140,300,64,1,
