key_resp.keys,key_resp.rt,key_resp_14.keys,key_resp_14.rt,key_resp_15.keys,key_resp_15.rt,key_resp_17.keys,key_resp_17.rt,key_resp_9.keys,key_resp_9.rt,key_resp_10.keys,key_resp_10.rt,practice_comparison,Ecc,mouse_5.x,mouse_5.y,mouse_5.leftButton,mouse_5.midButton,mouse_5.rightButton,mouse_5.clicked_name,pracsimilarity,response_time,mouse_10.x,mouse_10.y,mouse_10.leftButton,mouse_10.midButton,mouse_10.rightButton,mouse_10.clicked_name,mouse_7.x,mouse_7.y,mouse_7.leftButton,mouse_7.midButton,mouse_7.rightButton,mouse_6.x,mouse_6.y,mouse_6.leftButton,mouse_6.midButton,mouse_6.rightButton,duringprac.thisRepN,duringprac.thisTrialN,duringprac.thisN,duringprac.thisIndex,duringprac.ran,participant,session,date,expName,psychopyVersion,OS,frameRate,study_id,mouse_7.clicked_name,catchpracsimilarity,catch_response_time,catchnumberprac,catchtrialorderprac,mouse_6.clicked_name,key_resp_22.keys,key_resp_22.rt,realcomparison,mouse.x,mouse.y,mouse.leftButton,mouse.midButton,mouse.rightButton,mouse.clicked_name,Colour2,similarity,mouse_2.x,mouse_2.y,mouse_2.leftButton,mouse_2.midButton,mouse_2.rightButton,mouse_2.clicked_name,mouse_3.x,mouse_3.y,mouse_3.leftButton,mouse_3.midButton,mouse_3.rightButton,mouse_3.clicked_name,catchornah,catchsimilarity,catchnumber,catchtrialorder,catchRT,mouse_11.x,mouse_11.y,mouse_11.leftButton,mouse_11.midButton,mouse_11.rightButton,mouse_11.clicked_name,trials_2.thisRepN,trials_2.thisTrialN,trials_2.thisN,trials_2.thisIndex,trials_2.ran,Colour1
space,2.2973,space,23.6265,space,12.7252,space,6.783,space,6.6147,space,2.6496,127,PF,-85.59998983,-64.00000633,1,0,0,response5disk_5,2,8.4638,21.60006059,3.199970254,1,0,0,rectangle_8,21.60006059,3.199970254,1,0,0,21.60006059,3.199970254,1,0,0,0,0,0,6,1,5b2464337297750001c6ce7a,61036cf11a963688c0485a5b,2021-07-29_20h08.39.514,Simcolourproject_2stim_asymm_v5,2020.2.10,Win32,60,61025ae37ef11b136ea224fe,,,,,,,,,,,,,,,,,,,,,,,,,,,,,,,,,,,,,,,,,,,,,,
,,,,,,,,,,,,120,FF,-84.79998982,31.19997067,1,0,0,response7disk_5,1,1.9993,-6.399939823,0.799994633,1,0,0,rectangle_8,102.400013,39.99999522,1,0,0,-18.39994,-0.800029805,1,0,0,0,1,1,3,1,5b2464337297750001c6ce7a,61036cf11a963688c0485a5b,2021-07-29_20h08.39.514,Simcolourproject_2stim_asymm_v5,2020.2.10,Win32,60,61025ae37ef11b136ea224fe,response1disk_7,6,3.9825,6,"[2,5]",rectangle_4,,,,,,,,,,,,,,,,,,,,,,,,,,,,,,,,,,,,,,,,
,,,,,,,,,,,,69,PF,-106.3999413,39.19997079,1,0,0,response7disk_5,1,1.0827,-5.599988639,4.799994692,1,0,0,rectangle_8,-5.599988639,4.799994692,1,0,0,-5.599988639,4.799994692,1,0,0,0,2,2,4,1,5b2464337297750001c6ce7a,61036cf11a963688c0485a5b,2021-07-29_20h08.39.514,Simcolourproject_2stim_asymm_v5,2020.2.10,Win32,60,61025ae37ef11b136ea224fe,,,,,,,,,,,,,,,,,,,,,,,,,,,,,,,,,,,,,,,,,,,,,,
,,,,,,,,,,,,52,FF,68.00001246,-111.2000559,1,0,0,response3disk_5,4,4.0648,-9.599988699,5.59997029,1,0,0,rectangle_8,-9.599988699,5.59997029,1,0,0,-9.599988699,5.59997029,1,0,0,0,3,3,0,1,5b2464337297750001c6ce7a,61036cf11a963688c0485a5b,2021-07-29_20h08.39.514,Simcolourproject_2stim_asymm_v5,2020.2.10,Win32,60,61025ae37ef11b136ea224fe,,,,,,,,,,,,,,,,,,,,,,,,,,,,,,,,,,,,,,,,,,,,,,
,,,,,,,,,,,,146,PF,-113.5999902,-84.00000663,1,0,0,response5disk_5,2,1.3159,7.200011551,-8.000005499,1,0,0,rectangle_8,112.0000131,24.79999499,1,0,0,-5.599988639,6.399994716,1,0,0,0,4,4,2,1,5b2464337297750001c6ce7a,61036cf11a963688c0485a5b,2021-07-29_20h08.39.514,Simcolourproject_2stim_asymm_v5,2020.2.10,Win32,60,61025ae37ef11b136ea224fe,response1disk_7,6,2.2493,6,"[2,5]",rectangle_4,,,,,,,,,,,,,,,,,,,,,,,,,,,,,,,,,,,,,,,,
,,,,,,,,,,,,106,PF,62.40001237,96.79999606,1,0,0,response1disk_5,7,3.1482,-2.399939764,-3.200005427,1,0,0,rectangle_8,-2.399939764,-3.200005427,1,0,0,-2.399939764,-3.200005427,1,0,0,0,5,5,1,1,5b2464337297750001c6ce7a,61036cf11a963688c0485a5b,2021-07-29_20h08.39.514,Simcolourproject_2stim_asymm_v5,2020.2.10,Win32,60,61025ae37ef11b136ea224fe,,,,,,,,,,,,,,,,,,,,,,,,,,,,,,,,,,,,,,,,,,,,,,
,,,,,,,,,,,,152,FF,-85.59998983,-65.60000636,1,0,0,response5disk_5,2,1.3503,7.200011551,8.799994752,1,0,0,rectangle_8,7.200011551,8.799994752,1,0,0,7.200011551,8.799994752,1,0,0,0,6,6,5,1,5b2464337297750001c6ce7a,61036cf11a963688c0485a5b,2021-07-29_20h08.39.514,Simcolourproject_2stim_asymm_v5,2020.2.10,Win32,60,61025ae37ef11b136ea224fe,,,,,,,,,,,,,,,,,,,,,,,,,,,,,,,,,,,,,,,,,,,,,,
,,,,,,,,,,,,,FF,,,,,,,,2.0158,,,,,,,,,,,,,,,,,,,,,,5b2464337297750001c6ce7a,61036cf11a963688c0485a5b,2021-07-29_20h08.39.514,Simcolourproject_2stim_asymm_v5,2020.2.10,Win32,60,61025ae37ef11b136ea224fe,,,,,,,space,3.5999,1270,61.60001236,32.79999511,1,0,0,response1disk,,6,-0.799988568,-3.200005427,1,0,0,rectangle,38.40001202,-102.4000069,1,0,0,response3disk_3,TRUE,4,4,"[75,297,225,176,150,178,194,149,157,156,166,243,78,243,11,253,236,42,1,207]",1.8996,-5.599988639,11.19997037,1,0,0,rectangle,0,0,0,25,1,
,,,,,,,,,,,,,FF,,,,,,,,1.1992,,,,,,,,,,,,,,,,,,,,,,5b2464337297750001c6ce7a,61036cf11a963688c0485a5b,2021-07-29_20h08.39.514,Simcolourproject_2stim_asymm_v5,2020.2.10,Win32,60,61025ae37ef11b136ea224fe,,,,,,,,,584,45.60006095,-90.40000673,1,0,0,response3disk,,4,1.600060296,3.199970254,1,0,0,rectangle,1.600060296,3.199970254,1,0,0,,,,,,,1.600060296,3.199970254,1,0,0,,0,1,1,29,1,
,,,,,,,,,,,,,FF,,,,,,,,1.5155,,,,,,,,,,,,,,,,,,,,,,5b2464337297750001c6ce7a,61036cf11a963688c0485a5b,2021-07-29_20h08.39.514,Simcolourproject_2stim_asymm_v5,2020.2.10,Win32,60,61025ae37ef11b136ea224fe,,,,,,,,,4049,-39.19998914,-94.40000679,1,0,0,response5disk,,3,7.200011551,2.399994656,1,0,0,rectangle,7.200011551,2.399994656,1,0,0,,,,,,,7.200011551,2.399994656,1,0,0,,0,2,2,111,1,
,,,,,,,,,,,,,FF,,,,,,,,1.1161,,,,,,,,,,,,,,,,,,,,,,5b2464337297750001c6ce7a,61036cf11a963688c0485a5b,2021-07-29_20h08.39.514,Simcolourproject_2stim_asymm_v5,2020.2.10,Win32,60,61025ae37ef11b136ea224fe,,,,,,,,,3535,105.600013,37.59997077,1,0,0,response1disk,,6,-11.99998873,-2.400029829,1,0,0,rectangle,-11.99998873,-2.400029829,1,0,0,,,,,,,-11.99998873,-2.400029829,1,0,0,,0,3,3,7,1,
,,,,,,,,,,,,,FF,,,,,,,,1.3995,,,,,,,,,,,,,,,,,,,,,,5b2464337297750001c6ce7a,61036cf11a963688c0485a5b,2021-07-29_20h08.39.514,Simcolourproject_2stim_asymm_v5,2020.2.10,Win32,60,61025ae37ef11b136ea224fe,,,,,,,,,2612,44.0000121,-88.00000669,1,0,0,response3disk,,4,-7.199988663,5.59997029,1,0,0,rectangle,-7.199988663,5.59997029,1,0,0,,,,,,,-7.199988663,5.59997029,1,0,0,,0,4,4,100,1,
,,,,,,,,,,,,,FF,,,,,,,,1.5158,,,,,,,,,,,,,,,,,,,,,,5b2464337297750001c6ce7a,61036cf11a963688c0485a5b,2021-07-29_20h08.39.514,Simcolourproject_2stim_asymm_v5,2020.2.10,Win32,60,61025ae37ef11b136ea224fe,,,,,,,,,3491,124.0000133,-55.2000062,1,0,0,response3disk,,5,-8.799988687,-5.600005463,1,0,0,rectangle,-8.799988687,-5.600005463,1,0,0,,,,,,,-8.799988687,-5.600005463,1,0,0,,0,5,5,22,1,
,,,,,,,,,,,,,FF,,,,,,,,1.5824,,,,,,,,,,,,,,,,,,,,,,5b2464337297750001c6ce7a,61036cf11a963688c0485a5b,2021-07-29_20h08.39.514,Simcolourproject_2stim_asymm_v5,2020.2.10,Win32,60,61025ae37ef11b136ea224fe,,,,,,,,,381,31.20001191,-88.00000669,1,0,0,response3disk,,4,-9.599988699,7.199970314,1,0,0,rectangle,-9.599988699,7.199970314,1,0,0,,,,,,,-9.599988699,7.199970314,1,0,0,,0,6,6,97,1,
,,,,,,,,,,,,,FF,,,,,,,,0.6664,,,,,,,,,,,,,,,,,,,,,,5b2464337297750001c6ce7a,61036cf11a963688c0485a5b,2021-07-29_20h08.39.514,Simcolourproject_2stim_asymm_v5,2020.2.10,Win32,60,61025ae37ef11b136ea224fe,,,,,,,,,488,58.40001231,-87.20005551,1,0,0,response3disk,,4,3.200011492,4.799994692,1,0,0,rectangle,3.200011492,4.799994692,1,0,0,,,,,,,3.200011492,4.799994692,1,0,0,,0,7,7,68,1,
,,,,,,,,,,,,,FF,,,,,,,,2.632,,,,,,,,,,,,,,,,,,,,,,5b2464337297750001c6ce7a,61036cf11a963688c0485a5b,2021-07-29_20h08.39.514,Simcolourproject_2stim_asymm_v5,2020.2.10,Win32,60,61025ae37ef11b136ea224fe,,,,,,,,,320,91.2000128,-24.80003016,1,0,0,response3disk,,5,-17.59998882,-14.40003001,1,0,0,rectangle,-17.59998882,-14.40003001,1,0,0,,,,,,,-17.59998882,-14.40003001,1,0,0,,0,8,8,113,1,
,,,,,,,,,,,,,FF,,,,,,,,0.783,,,,,,,,,,,,,,,,,,,,,,5b2464337297750001c6ce7a,61036cf11a963688c0485a5b,2021-07-29_20h08.39.514,Simcolourproject_2stim_asymm_v5,2020.2.10,Win32,60,61025ae37ef11b136ea224fe,,,,,,,,,2348,85.60001272,-40.8000304,1,0,0,response3disk,,5,-13.59998876,0.799994633,1,0,0,rectangle,-13.59998876,0.799994633,1,0,0,,,,,,,-13.59998876,0.799994633,1,0,0,,0,9,9,107,1,
,,,,,,,,,,,,,FF,,,,,,,,1.0837,,,,,,,,,,,,,,,,,,,,,,5b2464337297750001c6ce7a,61036cf11a963688c0485a5b,2021-07-29_20h08.39.514,Simcolourproject_2stim_asymm_v5,2020.2.10,Win32,60,61025ae37ef11b136ea224fe,,,,,,,,,2751,72.80001253,29.59997065,1,0,0,response1disk,,6,-10.39993988,-6.400029889,1,0,0,rectangle,-38.3999403,86.39999591,1,0,0,response7disk_3,TRUE,0,0,"[75,297,225,176,150,178,194,149,157,156,166,243,78,243,11,253,236,42,1,207]",1.7657,5.600060356,0.799994633,1,0,0,rectangle,0,10,10,34,1,
,,,,,,,,,,,,,FF,,,,,,,,0.8663,,,,,,,,,,,,,,,,,,,,,,5b2464337297750001c6ce7a,61036cf11a963688c0485a5b,2021-07-29_20h08.39.514,Simcolourproject_2stim_asymm_v5,2020.2.10,Win32,60,61025ae37ef11b136ea224fe,,,,,,,,,3070,65.60001242,48.79999535,1,0,0,response1disk,,6,-17.59998882,-5.600005463,1,0,0,rectangle,-17.59998882,-5.600005463,1,0,0,,,,,,,-17.59998882,-5.600005463,1,0,0,,0,11,11,9,1,
,,,,,,,,,,,,,FF,,,,,,,,1.0161,,,,,,,,,,,,,,,,,,,,,,5b2464337297750001c6ce7a,61036cf11a963688c0485a5b,2021-07-29_20h08.39.514,Simcolourproject_2stim_asymm_v5,2020.2.10,Win32,60,61025ae37ef11b136ea224fe,,,,,,,,,1294,-76.7999897,-32.80003028,1,0,0,response5disk,,2,1.14441E-05,-4.800029865,1,0,0,rectangle,1.14441E-05,-4.800029865,1,0,0,,,,,,,1.14441E-05,-4.800029865,1,0,0,,0,12,12,16,1,
,,,,,,,,,,,,,FF,,,,,,,,0.7498,,,,,,,,,,,,,,,,,,,,,,5b2464337297750001c6ce7a,61036cf11a963688c0485a5b,2021-07-29_20h08.39.514,Simcolourproject_2stim_asymm_v5,2020.2.10,Win32,60,61025ae37ef11b136ea224fe,,,,,,,,,1473,-62.39994066,-26.40003019,1,0,0,response5disk,,2,-3.999988616,4.799994692,1,0,0,rectangle,-3.999988616,4.799994692,1,0,0,,,,,,,-3.999988616,4.799994692,1,0,0,,0,13,13,154,1,
,,,,,,,,,,,,,FF,,,,,,,,1.4326,,,,,,,,,,,,,,,,,,,,,,5b2464337297750001c6ce7a,61036cf11a963688c0485a5b,2021-07-29_20h08.39.514,Simcolourproject_2stim_asymm_v5,2020.2.10,Win32,60,61025ae37ef11b136ea224fe,,,,,,,,,3702,51.20001221,34.39999513,1,0,0,response1disk,,6,-18.39994,-4.000005439,1,0,0,rectangle,-18.39994,-4.000005439,1,0,0,,,,,,,-18.39994,-4.000005439,1,0,0,,0,14,14,53,1,
,,,,,,,,,,,,,FF,,,,,,,,0.8332,,,,,,,,,,,,,,,,,,,,,,5b2464337297750001c6ce7a,61036cf11a963688c0485a5b,2021-07-29_20h08.39.514,Simcolourproject_2stim_asymm_v5,2020.2.10,Win32,60,61025ae37ef11b136ea224fe,,,,,,,,,2831,-36.7999891,72.79999571,1,0,0,response7disk,,0,4.800011516,7.199970314,1,0,0,rectangle,4.800011516,7.199970314,1,0,0,,,,,,,4.800011516,7.199970314,1,0,0,,0,15,15,48,1,
,,,,,,,,,,,,,FF,,,,,,,,1.2494,,,,,,,,,,,,,,,,,,,,,,5b2464337297750001c6ce7a,61036cf11a963688c0485a5b,2021-07-29_20h08.39.514,Simcolourproject_2stim_asymm_v5,2020.2.10,Win32,60,61025ae37ef11b136ea224fe,,,,,,,,,352,-82.39994096,-46.40003048,1,0,0,response5disk,,2,-3.199988604,4.799994692,1,0,0,rectangle,-3.199988604,4.799994692,1,0,0,,,,,,,-3.199988604,4.799994692,1,0,0,,0,16,16,126,1,
,,,,,,,,,,,,,FF,,,,,,,,0.9995,,,,,,,,,,,,,,,,,,,,,,5b2464337297750001c6ce7a,61036cf11a963688c0485a5b,2021-07-29_20h08.39.514,Simcolourproject_2stim_asymm_v5,2020.2.10,Win32,60,61025ae37ef11b136ea224fe,,,,,,,,,396,-76.7999897,-44.80003046,1,0,0,response5disk,,2,1.600060296,-8.000005499,1,0,0,rectangle,1.600060296,-8.000005499,1,0,0,,,,,,,1.600060296,-8.000005499,1,0,0,,0,17,17,76,1,
,,,,,,,,,,,,,FF,,,,,,,,0.9166,,,,,,,,,,,,,,,,,,,,,,5b2464337297750001c6ce7a,61036cf11a963688c0485a5b,2021-07-29_20h08.39.514,Simcolourproject_2stim_asymm_v5,2020.2.10,Win32,60,61025ae37ef11b136ea224fe,,,,,,,,,1340,80.00001264,34.39999513,1,0,0,response1disk,,6,-7.999988675,-1.600005403,1,0,0,rectangle,-7.999988675,-1.600005403,1,0,0,,,,,,,-7.999988675,-1.600005403,1,0,0,,0,18,18,119,1,
,,,,,,,,,,,,,FF,,,,,,,,2.5655,,,,,,,,,,,,,,,,,,,,,,5b2464337297750001c6ce7a,61036cf11a963688c0485a5b,2021-07-29_20h08.39.514,Simcolourproject_2stim_asymm_v5,2020.2.10,Win32,60,61025ae37ef11b136ea224fe,,,,,,,,,1972,80.00001264,23.99999498,1,0,0,response1disk,,6,18.40001172,-8.800029925,1,0,0,rectangle,18.40001172,-8.800029925,1,0,0,,,,,,,18.40001172,-8.800029925,1,0,0,,0,19,19,71,1,
,,,,,,,,,,,,,FF,,,,,,,,0.7498,,,,,,,,,,,,,,,,,,,,,,5b2464337297750001c6ce7a,61036cf11a963688c0485a5b,2021-07-29_20h08.39.514,Simcolourproject_2stim_asymm_v5,2020.2.10,Win32,60,61025ae37ef11b136ea224fe,,,,,,,,,3459,100.8000129,51.9999954,1,0,0,response1disk,,6,4.000011504,5.59997029,1,0,0,rectangle,4.000011504,5.59997029,1,0,0,,,,,,,4.000011504,5.59997029,1,0,0,,0,20,20,128,1,
,,,,,,,,,,,,,FF,,,,,,,,0.7329,,,,,,,,,,,,,,,,,,,,,,5b2464337297750001c6ce7a,61036cf11a963688c0485a5b,2021-07-29_20h08.39.514,Simcolourproject_2stim_asymm_v5,2020.2.10,Win32,60,61025ae37ef11b136ea224fe,,,,,,,,,1211,-32.79998904,84.79999588,1,0,0,response7disk,,0,-8.799988687,1.59997023,1,0,0,rectangle,-8.799988687,1.59997023,1,0,0,,,,,,,-8.799988687,1.59997023,1,0,0,,0,21,21,157,1,
,,,,,,,,,,,,,FF,,,,,,,,0.6663,,,,,,,,,,,,,,,,,,,,,,5b2464337297750001c6ce7a,61036cf11a963688c0485a5b,2021-07-29_20h08.39.514,Simcolourproject_2stim_asymm_v5,2020.2.10,Win32,60,61025ae37ef11b136ea224fe,,,,,,,,,1216,-59.99998945,-43.20000602,1,0,0,response5disk,,2,16.00001168,3.199970254,1,0,0,rectangle,16.00001168,3.199970254,1,0,0,,,,,,,16.00001168,3.199970254,1,0,0,,0,22,22,28,1,
,,,,,,,,,,,,,FF,,,,,,,,0.5831,,,,,,,,,,,,,,,,,,,,,,5b2464337297750001c6ce7a,61036cf11a963688c0485a5b,2021-07-29_20h08.39.514,Simcolourproject_2stim_asymm_v5,2020.2.10,Win32,60,61025ae37ef11b136ea224fe,,,,,,,,,3083,73.60001254,39.99999522,1,0,0,response1disk,,6,-1.59998858,7.99999474,1,0,0,rectangle,-1.59998858,7.99999474,1,0,0,,,,,,,-1.59998858,7.99999474,1,0,0,,0,23,23,10,1,
,,,,,,,,,,,,,FF,,,,,,,,0.9163,,,,,,,,,,,,,,,,,,,,,,5b2464337297750001c6ce7a,61036cf11a963688c0485a5b,2021-07-29_20h08.39.514,Simcolourproject_2stim_asymm_v5,2020.2.10,Win32,60,61025ae37ef11b136ea224fe,,,,,,,,,2811,51.20001221,40.79999523,1,0,0,response1disk,,6,-29.599989,-9.600005522,1,0,0,rectangle,-29.599989,-9.600005522,1,0,0,,,,,,,-29.599989,-9.600005522,1,0,0,,0,24,24,19,1,
,,,,,,,,,,,,,FF,,,,,,,,1.0824,,,,,,,,,,,,,,,,,,,,,,5b2464337297750001c6ce7a,61036cf11a963688c0485a5b,2021-07-29_20h08.39.514,Simcolourproject_2stim_asymm_v5,2020.2.10,Win32,60,61025ae37ef11b136ea224fe,,,,,,,,,2009,75.20001256,35.99999516,1,0,0,response1disk,,6,-1.59998858,-12.80002998,1,0,0,rectangle,-1.59998858,-12.80002998,1,0,0,,,,,,,-1.59998858,-12.80002998,1,0,0,,0,25,25,101,1,
,,,,,,,,,,,,,FF,,,,,,,,1.3493,,,,,,,,,,,,,,,,,,,,,,5b2464337297750001c6ce7a,61036cf11a963688c0485a5b,2021-07-29_20h08.39.514,Simcolourproject_2stim_asymm_v5,2020.2.10,Win32,60,61025ae37ef11b136ea224fe,,,,,,,,,3192,98.40001291,43.19997085,1,0,0,response1disk,,6,17.60006053,3.199970254,1,0,0,rectangle,17.60006053,3.199970254,1,0,0,,,,,,,17.60006053,3.199970254,1,0,0,,0,26,26,43,1,
,,,,,,,,,,,,,FF,,,,,,,,0.6995,,,,,,,,,,,,,,,,,,,,,,5b2464337297750001c6ce7a,61036cf11a963688c0485a5b,2021-07-29_20h08.39.514,Simcolourproject_2stim_asymm_v5,2020.2.10,Win32,60,61025ae37ef11b136ea224fe,,,,,,,,,489,116.0000132,53.59997101,1,0,0,response1disk,,6,21.60006059,-5.600005463,1,0,0,rectangle,21.60006059,-5.600005463,1,0,0,,,,,,,21.60006059,-5.600005463,1,0,0,,0,27,27,99,1,
,,,,,,,,,,,,,FF,,,,,,,,0.6497,,,,,,,,,,,,,,,,,,,,,,5b2464337297750001c6ce7a,61036cf11a963688c0485a5b,2021-07-29_20h08.39.514,Simcolourproject_2stim_asymm_v5,2020.2.10,Win32,60,61025ae37ef11b136ea224fe,,,,,,,,,1928,95.20001286,56.79999547,1,0,0,response1disk,,6,-4.799988627,-3.200005427,1,0,0,rectangle,-4.799988627,-3.200005427,1,0,0,,,,,,,-4.799988627,-3.200005427,1,0,0,,0,28,28,137,1,
,,,,,,,,,,,,,FF,,,,,,,,0.5495,,,,,,,,,,,,,,,,,,,,,,5b2464337297750001c6ce7a,61036cf11a963688c0485a5b,2021-07-29_20h08.39.514,Simcolourproject_2stim_asymm_v5,2020.2.10,Win32,60,61025ae37ef11b136ea224fe,,,,,,,,,843,91.2000128,53.59997101,1,0,0,response1disk,,6,-0.799988568,1.59997023,1,0,0,rectangle,-0.799988568,1.59997023,1,0,0,,,,,,,-0.799988568,1.59997023,1,0,0,,0,29,29,45,1,
,,,,,,,,,,,,,FF,,,,,,,,0.8827,,,,,,,,,,,,,,,,,,,,,,5b2464337297750001c6ce7a,61036cf11a963688c0485a5b,2021-07-29_20h08.39.514,Simcolourproject_2stim_asymm_v5,2020.2.10,Win32,60,61025ae37ef11b136ea224fe,,,,,,,,,1353,75.20001256,47.19997091,1,0,0,response1disk,,6,-7.999988675,1.59997023,1,0,0,rectangle,-7.999988675,1.59997023,1,0,0,,,,,,,-7.999988675,1.59997023,1,0,0,,0,30,30,116,1,
,,,,,,,,,,,,,FF,,,,,,,,0.8663,,,,,,,,,,,,,,,,,,,,,,5b2464337297750001c6ce7a,61036cf11a963688c0485a5b,2021-07-29_20h08.39.514,Simcolourproject_2stim_asymm_v5,2020.2.10,Win32,60,61025ae37ef11b136ea224fe,,,,,,,,,1094,88.00001276,39.99999522,1,0,0,response1disk,,6,7.200011551,-8.800029925,1,0,0,rectangle,7.200011551,-8.800029925,1,0,0,,,,,,,7.200011551,-8.800029925,1,0,0,,0,31,31,143,1,
,,,,,,,,,,,,,FF,,,,,,,,0.9994,,,,,,,,,,,,,,,,,,,,,,5b2464337297750001c6ce7a,61036cf11a963688c0485a5b,2021-07-29_20h08.39.514,Simcolourproject_2stim_asymm_v5,2020.2.10,Win32,60,61025ae37ef11b136ea224fe,,,,,,,,,2835,90.40001279,35.99999516,1,0,0,response1disk,,6,24.80001181,3.199970254,1,0,0,rectangle,24.80001181,3.199970254,1,0,0,,,,,,,24.80001181,3.199970254,1,0,0,,0,32,32,151,1,
,,,,,,,,,,,,,FF,,,,,,,,0.6493,,,,,,,,,,,,,,,,,,,,,,5b2464337297750001c6ce7a,61036cf11a963688c0485a5b,2021-07-29_20h08.39.514,Simcolourproject_2stim_asymm_v5,2020.2.10,Win32,60,61025ae37ef11b136ea224fe,,,,,,,,,3822,99.20001292,39.99999522,1,0,0,response1disk,,6,6.400011539,-3.200005427,1,0,0,rectangle,6.400011539,-3.200005427,1,0,0,,,,,,,6.400011539,-3.200005427,1,0,0,,0,33,33,96,1,
,,,,,,,,,,,,,FF,,,,,,,,1.4157,,,,,,,,,,,,,,,,,,,,,,5b2464337297750001c6ce7a,61036cf11a963688c0485a5b,2021-07-29_20h08.39.514,Simcolourproject_2stim_asymm_v5,2020.2.10,Win32,60,61025ae37ef11b136ea224fe,,,,,,,,,3674,96.00001287,39.99999522,1,0,0,response1disk,,6,9.600060415,-2.400029829,1,0,0,rectangle,9.600060415,-2.400029829,1,0,0,,,,,,,9.600060415,-2.400029829,1,0,0,,0,34,34,125,1,
,,,,,,,,,,,,,FF,,,,,,,,0.7326,,,,,,,,,,,,,,,,,,,,,,5b2464337297750001c6ce7a,61036cf11a963688c0485a5b,2021-07-29_20h08.39.514,Simcolourproject_2stim_asymm_v5,2020.2.10,Win32,60,61025ae37ef11b136ea224fe,,,,,,,,,164,-63.1999895,-32.80003028,1,0,0,response5disk,,2,9.600060415,-0.800029805,1,0,0,rectangle,9.600060415,-0.800029805,1,0,0,,,,,,,9.600060415,-0.800029805,1,0,0,,0,35,35,18,1,
,,,,,,,,,,,,,FF,,,,,,,,0.6666,,,,,,,,,,,,,,,,,,,,,,5b2464337297750001c6ce7a,61036cf11a963688c0485a5b,2021-07-29_20h08.39.514,Simcolourproject_2stim_asymm_v5,2020.2.10,Win32,60,61025ae37ef11b136ea224fe,,,,,,,,,2922,75.20001256,35.99999516,1,0,0,response1disk,,6,9.600060415,1.59997023,1,0,0,rectangle,9.600060415,1.59997023,1,0,0,,,,,,,9.600060415,1.59997023,1,0,0,,0,36,36,91,1,
,,,,,,,,,,,,,FF,,,,,,,,0.6664,,,,,,,,,,,,,,,,,,,,,,5b2464337297750001c6ce7a,61036cf11a963688c0485a5b,2021-07-29_20h08.39.514,Simcolourproject_2stim_asymm_v5,2020.2.10,Win32,60,61025ae37ef11b136ea224fe,,,,,,,,,3162,72.00001252,29.59997065,1,0,0,response1disk,,6,1.600060296,0.799994633,1,0,0,rectangle,1.600060296,0.799994633,1,0,0,,,,,,,1.600060296,0.799994633,1,0,0,,0,37,37,51,1,
,,,,,,,,,,,,,FF,,,,,,,,0.8828,,,,,,,,,,,,,,,,,,,,,,5b2464337297750001c6ce7a,61036cf11a963688c0485a5b,2021-07-29_20h08.39.514,Simcolourproject_2stim_asymm_v5,2020.2.10,Win32,60,61025ae37ef11b136ea224fe,,,,,,,,,3856,80.00001264,28.79999505,1,0,0,response1disk,,6,-5.599988639,0.799994633,1,0,0,rectangle,-5.599988639,0.799994633,1,0,0,,,,,,,-5.599988639,0.799994633,1,0,0,,0,38,38,42,1,
,,,,,,,,,,,,,FF,,,,,,,,1.1159,,,,,,,,,,,,,,,,,,,,,,5b2464337297750001c6ce7a,61036cf11a963688c0485a5b,2021-07-29_20h08.39.514,Simcolourproject_2stim_asymm_v5,2020.2.10,Win32,60,61025ae37ef11b136ea224fe,,,,,,,,,3842,68.80001247,41.59997083,1,0,0,response1disk,,6,-16.79998881,-2.400029829,1,0,0,rectangle,-16.79998881,-2.400029829,1,0,0,,,,,,,-16.79998881,-2.400029829,1,0,0,,0,39,39,67,1,
,,,,,,,,,,,,,FF,,,,,,,,0.8328,,,,,,,,,,,,,,,,,,,,,,5b2464337297750001c6ce7a,61036cf11a963688c0485a5b,2021-07-29_20h08.39.514,Simcolourproject_2stim_asymm_v5,2020.2.10,Win32,60,61025ae37ef11b136ea224fe,,,,,,,,,2507,124.8000133,54.39999543,1,0,0,response1disk,,6,-2.399939764,-5.600005463,1,0,0,rectangle,-2.399939764,-5.600005463,1,0,0,,,,,,,-2.399939764,-5.600005463,1,0,0,,0,40,40,79,1,
,,,,,,,,,,,,,FF,,,,,,,,0.5498,,,,,,,,,,,,,,,,,,,,,,5b2464337297750001c6ce7a,61036cf11a963688c0485a5b,2021-07-29_20h08.39.514,Simcolourproject_2stim_asymm_v5,2020.2.10,Win32,60,61025ae37ef11b136ea224fe,,,,,,,,,332,68.80001247,31.9999951,1,0,0,response1disk,,6,-10.39993988,1.59997023,1,0,0,rectangle,-52.79998934,95.19999604,1,0,0,response7disk_3,TRUE,0,0,"[75,297,225,176,150,178,194,149,157,156,166,243,78,243,11,253,236,42,1,207]",1.416,-13.59998876,-2.400029829,1,0,0,rectangle,0,41,41,50,1,
,,,,,,,,,,,,,FF,,,,,,,,0.7665,,,,,,,,,,,,,,,,,,,,,,5b2464337297750001c6ce7a,61036cf11a963688c0485a5b,2021-07-29_20h08.39.514,Simcolourproject_2stim_asymm_v5,2020.2.10,Win32,60,61025ae37ef11b136ea224fe,,,,,,,,,1820,-71.99998963,-39.20000596,1,0,0,response5disk,,2,-19.19998884,-4.800029865,1,0,0,rectangle,-19.19998884,-4.800029865,1,0,0,,,,,,,-19.19998884,-4.800029865,1,0,0,,0,42,42,85,1,
,,,,,,,,,,,,,FF,,,,,,,,0.4329,,,,,,,,,,,,,,,,,,,,,,5b2464337297750001c6ce7a,61036cf11a963688c0485a5b,2021-07-29_20h08.39.514,Simcolourproject_2stim_asymm_v5,2020.2.10,Win32,60,61025ae37ef11b136ea224fe,,,,,,,,,2800,104.800013,66.39999561,1,0,0,response1disk,,6,-7.999988675,3.99999468,1,0,0,rectangle,-7.999988675,3.99999468,1,0,0,,,,,,,-7.999988675,3.99999468,1,0,0,,0,43,43,142,1,
,,,,,,,,,,,,,FF,,,,,,,,5.8976,,,,,,,,,,,,,,,,,,,,,,5b2464337297750001c6ce7a,61036cf11a963688c0485a5b,2021-07-29_20h08.39.514,Simcolourproject_2stim_asymm_v5,2020.2.10,Win32,60,61025ae37ef11b136ea224fe,,,,,,,,,2498,96.00001287,35.19997073,1,0,0,response1disk,,6,-6.399939823,-0.800029805,1,0,0,rectangle,-6.399939823,-0.800029805,1,0,0,,,,,,,-6.399939823,-0.800029805,1,0,0,,0,44,44,102,1,
,,,,,,,,,,,,,FF,,,,,,,,0.6998,,,,,,,,,,,,,,,,,,,,,,5b2464337297750001c6ce7a,61036cf11a963688c0485a5b,2021-07-29_20h08.39.514,Simcolourproject_2stim_asymm_v5,2020.2.10,Win32,60,61025ae37ef11b136ea224fe,,,,,,,,,4269,-97.59999001,-30.40003025,1,0,0,response5disk,,2,12.00001162,0.799994633,1,0,0,rectangle,12.00001162,0.799994633,1,0,0,,,,,,,12.00001162,0.799994633,1,0,0,,0,45,45,8,1,
,,,,,,,,,,,,,FF,,,,,,,,0.4662,,,,,,,,,,,,,,,,,,,,,,5b2464337297750001c6ce7a,61036cf11a963688c0485a5b,2021-07-29_20h08.39.514,Simcolourproject_2stim_asymm_v5,2020.2.10,Win32,60,61025ae37ef11b136ea224fe,,,,,,,,,2925,84.80001271,53.59997101,1,0,0,response1disk,,6,-5.599988639,3.99999468,1,0,0,rectangle,-5.599988639,3.99999468,1,0,0,,,,,,,-5.599988639,3.99999468,1,0,0,,0,46,46,2,1,
,,,,,,,,,,,,,FF,,,,,,,,0.883,,,,,,,,,,,,,,,,,,,,,,5b2464337297750001c6ce7a,61036cf11a963688c0485a5b,2021-07-29_20h08.39.514,Simcolourproject_2stim_asymm_v5,2020.2.10,Win32,60,61025ae37ef11b136ea224fe,,,,,,,,,2327,95.20001286,39.99999522,1,0,0,response1disk,,6,1.14441E-05,-2.400029829,1,0,0,rectangle,1.14441E-05,-2.400029829,1,0,0,,,,,,,1.14441E-05,-2.400029829,1,0,0,,0,47,47,27,1,
,,,,,,,,,,,,,FF,,,,,,,,0.6497,,,,,,,,,,,,,,,,,,,,,,5b2464337297750001c6ce7a,61036cf11a963688c0485a5b,2021-07-29_20h08.39.514,Simcolourproject_2stim_asymm_v5,2020.2.10,Win32,60,61025ae37ef11b136ea224fe,,,,,,,,,878,98.40001291,33.59997071,1,0,0,response1disk,,6,1.600060296,2.399994656,1,0,0,rectangle,1.600060296,2.399994656,1,0,0,,,,,,,1.600060296,2.399994656,1,0,0,,0,48,48,32,1,
,,,,,,,,,,,,,FF,,,,,,,,1.1493,,,,,,,,,,,,,,,,,,,,,,5b2464337297750001c6ce7a,61036cf11a963688c0485a5b,2021-07-29_20h08.39.514,Simcolourproject_2stim_asymm_v5,2020.2.10,Win32,60,61025ae37ef11b136ea224fe,,,,,,,,,3331,84.0000127,42.39999525,1,0,0,response1disk,,6,4.800011516,9.59997035,1,0,0,rectangle,4.800011516,9.59997035,1,0,0,,,,,,,4.800011516,9.59997035,1,0,0,,0,49,49,121,1,
,,,,,,,,,,,,,FF,,,,,,,,1.8991,,,,,,,,,,,,,,,,,,,,,,5b2464337297750001c6ce7a,61036cf11a963688c0485a5b,2021-07-29_20h08.39.514,Simcolourproject_2stim_asymm_v5,2020.2.10,Win32,60,61025ae37ef11b136ea224fe,,,,,,,,,629,95.20001286,56.79999547,1,0,0,response1disk,,6,6.400011539,7.99999474,1,0,0,rectangle,6.400011539,7.99999474,1,0,0,,,,,,,6.400011539,7.99999474,1,0,0,,0,50,50,80,1,
,,,,,,,,,,,,,FF,,,,,,,,0.4665,,,,,,,,,,,,,,,,,,,,,,5b2464337297750001c6ce7a,61036cf11a963688c0485a5b,2021-07-29_20h08.39.514,Simcolourproject_2stim_asymm_v5,2020.2.10,Win32,60,61025ae37ef11b136ea224fe,,,,,,,,,1663,85.60001272,42.39999525,1,0,0,response1disk,,6,3.200011492,-8.800029925,1,0,0,rectangle,3.200011492,-8.800029925,1,0,0,,,,,,,3.200011492,-8.800029925,1,0,0,,0,51,51,47,1,
,,,,,,,,,,,,,FF,,,,,,,,0.7994,,,,,,,,,,,,,,,,,,,,,,5b2464337297750001c6ce7a,61036cf11a963688c0485a5b,2021-07-29_20h08.39.514,Simcolourproject_2stim_asymm_v5,2020.2.10,Win32,60,61025ae37ef11b136ea224fe,,,,,,,,,3735,91.2000128,33.59997071,1,0,0,response1disk,,6,-2.399939764,-12.00000556,1,0,0,rectangle,-2.399939764,-12.00000556,1,0,0,,,,,,,-2.399939764,-12.00000556,1,0,0,,0,52,52,134,1,
,,,,,,,,,,,,,FF,,,,,,,,0.7828,,,,,,,,,,,,,,,,,,,,,,5b2464337297750001c6ce7a,61036cf11a963688c0485a5b,2021-07-29_20h08.39.514,Simcolourproject_2stim_asymm_v5,2020.2.10,Win32,60,61025ae37ef11b136ea224fe,,,,,,,,,3236,88.80001277,41.59997083,1,0,0,response1disk,,6,-11.19998872,2.399994656,1,0,0,rectangle,-11.19998872,2.399994656,1,0,0,,,,,,,-11.19998872,2.399994656,1,0,0,,0,53,53,81,1,
,,,,,,,,,,,,,FF,,,,,,,,0.5661,,,,,,,,,,,,,,,,,,,,,,5b2464337297750001c6ce7a,61036cf11a963688c0485a5b,2021-07-29_20h08.39.514,Simcolourproject_2stim_asymm_v5,2020.2.10,Win32,60,61025ae37ef11b136ea224fe,,,,,,,,,3373,-75.99998969,-45.60000606,1,0,0,response5disk,,2,4.800011516,-6.400029889,1,0,0,rectangle,4.800011516,-6.400029889,1,0,0,,,,,,,4.800011516,-6.400029889,1,0,0,,0,54,54,3,1,
,,,,,,,,,,,,,FF,,,,,,,,0.6494,,,,,,,,,,,,,,,,,,,,,,5b2464337297750001c6ce7a,61036cf11a963688c0485a5b,2021-07-29_20h08.39.514,Simcolourproject_2stim_asymm_v5,2020.2.10,Win32,60,61025ae37ef11b136ea224fe,,,,,,,,,2384,85.60001272,35.19997073,1,0,0,response1disk,,6,-8.799988687,-0.800029805,1,0,0,rectangle,-8.799988687,-0.800029805,1,0,0,,,,,,,-8.799988687,-0.800029805,1,0,0,,0,55,55,135,1,
,,,,,,,,,,,,,FF,,,,,,,,0.7494,,,,,,,,,,,,,,,,,,,,,,5b2464337297750001c6ce7a,61036cf11a963688c0485a5b,2021-07-29_20h08.39.514,Simcolourproject_2stim_asymm_v5,2020.2.10,Win32,60,61025ae37ef11b136ea224fe,,,,,,,,,2480,-22.39994006,79.99999581,1,0,0,response7disk,,0,-18.39994,4.799994692,1,0,0,rectangle,-18.39994,4.799994692,1,0,0,,,,,,,-18.39994,4.799994692,1,0,0,,0,56,56,158,1,
,,,,,,,,,,,,,FF,,,,,,,,0.7496,,,,,,,,,,,,,,,,,,,,,,5b2464337297750001c6ce7a,61036cf11a963688c0485a5b,2021-07-29_20h08.39.514,Simcolourproject_2stim_asymm_v5,2020.2.10,Win32,60,61025ae37ef11b136ea224fe,,,,,,,,,2753,88.00001276,31.19997067,1,0,0,response1disk,,6,-30.39994018,-6.400029889,1,0,0,rectangle,-30.39994018,-6.400029889,1,0,0,,,,,,,-30.39994018,-6.400029889,1,0,0,,0,57,57,84,1,
,,,,,,,,,,,,,FF,,,,,,,,0.3663,,,,,,,,,,,,,,,,,,,,,,5b2464337297750001c6ce7a,61036cf11a963688c0485a5b,2021-07-29_20h08.39.514,Simcolourproject_2stim_asymm_v5,2020.2.10,Win32,60,61025ae37ef11b136ea224fe,,,,,,,,,1077,100.0000129,44.79999529,1,0,0,response1disk,,6,-5.599988639,-5.600005463,1,0,0,rectangle,-5.599988639,-5.600005463,1,0,0,,,,,,,-5.599988639,-5.600005463,1,0,0,,0,58,58,138,1,
,,,,,,,,,,,,,FF,,,,,,,,0.4992,,,,,,,,,,,,,,,,,,,,,,5b2464337297750001c6ce7a,61036cf11a963688c0485a5b,2021-07-29_20h08.39.514,Simcolourproject_2stim_asymm_v5,2020.2.10,Win32,60,61025ae37ef11b136ea224fe,,,,,,,,,3575,100.0000129,48.79999535,1,0,0,response1disk,,6,23.20001179,11.9999948,1,0,0,rectangle,23.20001179,11.9999948,1,0,0,,,,,,,23.20001179,11.9999948,1,0,0,,0,59,59,15,1,
,,,,,,,,,,,,,FF,,,,,,,,0.8331,,,,,,,,,,,,,,,,,,,,,,5b2464337297750001c6ce7a,61036cf11a963688c0485a5b,2021-07-29_20h08.39.514,Simcolourproject_2stim_asymm_v5,2020.2.10,Win32,60,61025ae37ef11b136ea224fe,,,,,,,,,3522,-86.39994102,-36.80003034,1,0,0,response5disk,,2,-19.99998885,1.59997023,1,0,0,rectangle,-19.99998885,1.59997023,1,0,0,,,,,,,-19.99998885,1.59997023,1,0,0,,0,60,60,23,1,
,,,,,,,,,,,,,FF,,,,,,,,0.5833,,,,,,,,,,,,,,,,,,,,,,5b2464337297750001c6ce7a,61036cf11a963688c0485a5b,2021-07-29_20h08.39.514,Simcolourproject_2stim_asymm_v5,2020.2.10,Win32,60,61025ae37ef11b136ea224fe,,,,,,,,,551,98.40001291,55.99999546,1,0,0,response1disk,,6,-7.999988675,-7.200005487,1,0,0,rectangle,-7.999988675,-7.200005487,1,0,0,,,,,,,-7.999988675,-7.200005487,1,0,0,,0,61,61,24,1,
,,,,,,,,,,,,,FF,,,,,,,,0.3998,,,,,,,,,,,,,,,,,,,,,,5b2464337297750001c6ce7a,61036cf11a963688c0485a5b,2021-07-29_20h08.39.514,Simcolourproject_2stim_asymm_v5,2020.2.10,Win32,60,61025ae37ef11b136ea224fe,,,,,,,,,2515,95.20001286,39.99999522,1,0,0,response1disk,,6,-19.99998885,-12.80002998,1,0,0,rectangle,-19.99998885,-12.80002998,1,0,0,,,,,,,-19.99998885,-12.80002998,1,0,0,,0,62,62,69,1,
,,,,,,,,,,,,,FF,,,,,,,,0.5661,,,,,,,,,,,,,,,,,,,,,,5b2464337297750001c6ce7a,61036cf11a963688c0485a5b,2021-07-29_20h08.39.514,Simcolourproject_2stim_asymm_v5,2020.2.10,Win32,60,61025ae37ef11b136ea224fe,,,,,,,,,1008,97.6000129,46.39999531,1,0,0,response1disk,,6,-3.999988616,-11.20000555,1,0,0,rectangle,-3.999988616,-11.20000555,1,0,0,,,,,,,-3.999988616,-11.20000555,1,0,0,,0,63,63,74,1,
,,,,,,,,,,,,,FF,,,,,,,,0.4328,,,,,,,,,,,,,,,,,,,,,,5b2464337297750001c6ce7a,61036cf11a963688c0485a5b,2021-07-29_20h08.39.514,Simcolourproject_2stim_asymm_v5,2020.2.10,Win32,60,61025ae37ef11b136ea224fe,,,,,,,,,3311,84.80001271,34.39999513,1,0,0,response1disk,,6,-18.39994,-7.200005487,1,0,0,rectangle,-18.39994,-7.200005487,1,0,0,,,,,,,-18.39994,-7.200005487,1,0,0,,0,64,64,89,1,
,,,,,,,,,,,,,FF,,,,,,,,0.5993,,,,,,,,,,,,,,,,,,,,,,5b2464337297750001c6ce7a,61036cf11a963688c0485a5b,2021-07-29_20h08.39.514,Simcolourproject_2stim_asymm_v5,2020.2.10,Win32,60,61025ae37ef11b136ea224fe,,,,,,,,,4029,93.60001284,36.79999517,1,0,0,response1disk,,6,10.4000116,-3.200005427,1,0,0,rectangle,10.4000116,-3.200005427,1,0,0,,,,,,,10.4000116,-3.200005427,1,0,0,,0,65,65,145,1,
,,,,,,,,,,,,,FF,,,,,,,,0.3661,,,,,,,,,,,,,,,,,,,,,,5b2464337297750001c6ce7a,61036cf11a963688c0485a5b,2021-07-29_20h08.39.514,Simcolourproject_2stim_asymm_v5,2020.2.10,Win32,60,61025ae37ef11b136ea224fe,,,,,,,,,528,88.00001276,30.39999507,1,0,0,response1disk,,6,-10.39993988,-7.200005487,1,0,0,rectangle,-10.39993988,-7.200005487,1,0,0,,,,,,,-10.39993988,-7.200005487,1,0,0,,0,66,66,112,1,
,,,,,,,,,,,,,FF,,,,,,,,0.3828,,,,,,,,,,,,,,,,,,,,,,5b2464337297750001c6ce7a,61036cf11a963688c0485a5b,2021-07-29_20h08.39.514,Simcolourproject_2stim_asymm_v5,2020.2.10,Win32,60,61025ae37ef11b136ea224fe,,,,,,,,,2054,87.20001274,41.59997083,1,0,0,response1disk,,6,-2.399939764,-1.600005403,1,0,0,rectangle,-2.399939764,-1.600005403,1,0,0,,,,,,,-2.399939764,-1.600005403,1,0,0,,0,67,67,35,1,
,,,,,,,,,,,,,FF,,,,,,,,0.4166,,,,,,,,,,,,,,,,,,,,,,5b2464337297750001c6ce7a,61036cf11a963688c0485a5b,2021-07-29_20h08.39.514,Simcolourproject_2stim_asymm_v5,2020.2.10,Win32,60,61025ae37ef11b136ea224fe,,,,,,,,,3079,87.20001274,31.9999951,1,0,0,response1disk,,6,-5.599988639,-5.600005463,1,0,0,rectangle,-5.599988639,-5.600005463,1,0,0,,,,,,,-5.599988639,-5.600005463,1,0,0,,0,68,68,77,1,
,,,,,,,,,,,,,FF,,,,,,,,0.7496,,,,,,,,,,,,,,,,,,,,,,5b2464337297750001c6ce7a,61036cf11a963688c0485a5b,2021-07-29_20h08.39.514,Simcolourproject_2stim_asymm_v5,2020.2.10,Win32,60,61025ae37ef11b136ea224fe,,,,,,,,,4251,-23.99998891,79.19997139,1,0,0,response7disk,,0,-13.59998876,3.199970254,1,0,0,rectangle,-13.59998876,3.199970254,1,0,0,,,,,,,-13.59998876,3.199970254,1,0,0,,0,69,69,70,1,
,,,,,,,,,,,,,FF,,,,,,,,0.5663,,,,,,,,,,,,,,,,,,,,,,5b2464337297750001c6ce7a,61036cf11a963688c0485a5b,2021-07-29_20h08.39.514,Simcolourproject_2stim_asymm_v5,2020.2.10,Win32,60,61025ae37ef11b136ea224fe,,,,,,,,,1126,90.40001279,38.39999519,1,0,0,response1disk,,6,-26.39994012,-4.800029865,1,0,0,rectangle,-26.39994012,-4.800029865,1,0,0,,,,,,,-26.39994012,-4.800029865,1,0,0,,0,70,70,55,1,
,,,,,,,,,,,,,FF,,,,,,,,0.5497,,,,,,,,,,,,,,,,,,,,,,5b2464337297750001c6ce7a,61036cf11a963688c0485a5b,2021-07-29_20h08.39.514,Simcolourproject_2stim_asymm_v5,2020.2.10,Win32,60,61025ae37ef11b136ea224fe,,,,,,,,,4217,72.80001253,43.99999528,1,0,0,response1disk,,6,-30.39994018,-5.600005463,1,0,0,rectangle,-30.39994018,-5.600005463,1,0,0,,,,,,,-30.39994018,-5.600005463,1,0,0,,0,71,71,52,1,
,,,,,,,,,,,,,FF,,,,,,,,0.6161,,,,,,,,,,,,,,,,,,,,,,5b2464337297750001c6ce7a,61036cf11a963688c0485a5b,2021-07-29_20h08.39.514,Simcolourproject_2stim_asymm_v5,2020.2.10,Win32,60,61025ae37ef11b136ea224fe,,,,,,,,,3336,-52.79998934,60.79999553,1,0,0,response7disk,,0,-9.599988699,-6.400029889,1,0,0,rectangle,-9.599988699,-6.400029889,1,0,0,,,,,,,-9.599988699,-6.400029889,1,0,0,,0,72,72,147,1,
,,,,,,,,,,,,,FF,,,,,,,,0.5662,,,,,,,,,,,,,,,,,,,,,,5b2464337297750001c6ce7a,61036cf11a963688c0485a5b,2021-07-29_20h08.39.514,Simcolourproject_2stim_asymm_v5,2020.2.10,Win32,60,61025ae37ef11b136ea224fe,,,,,,,,,963,96.00001287,19.99999492,1,0,0,response1disk,,6,-11.99998873,-8.800029925,1,0,0,rectangle,-11.99998873,-8.800029925,1,0,0,,,,,,,-11.99998873,-8.800029925,1,0,0,,0,73,73,120,1,
,,,,,,,,,,,,,FF,,,,,,,,0.4332,,,,,,,,,,,,,,,,,,,,,,5b2464337297750001c6ce7a,61036cf11a963688c0485a5b,2021-07-29_20h08.39.514,Simcolourproject_2stim_asymm_v5,2020.2.10,Win32,60,61025ae37ef11b136ea224fe,,,,,,,,,3877,127.2000133,51.19997097,1,0,0,response1disk,,6,11.20001161,3.99999468,1,0,0,rectangle,28.80001187,-104.0000069,1,0,0,response3disk_3,TRUE,4,4,"[75,297,225,176,150,178,194,149,157,156,166,243,78,243,11,253,236,42,1,207]",2.0989,-7.999988675,2.399994656,1,0,0,rectangle,0,74,74,106,1,
,,,,,,,,,,,,,FF,,,,,,,,0.5498,,,,,,,,,,,,,,,,,,,,,,5b2464337297750001c6ce7a,61036cf11a963688c0485a5b,2021-07-29_20h08.39.514,Simcolourproject_2stim_asymm_v5,2020.2.10,Win32,60,61025ae37ef11b136ea224fe,,,,,,,,,1743,-43.1999892,63.19997115,1,0,0,response7disk,,0,-14.39993994,-14.40003001,1,0,0,rectangle,-14.39993994,-14.40003001,1,0,0,,,,,,,-14.39993994,-14.40003001,1,0,0,,0,75,75,41,1,
,,,,,,,,,,,,,FF,,,,,,,,0.4497,,,,,,,,,,,,,,,,,,,,,,5b2464337297750001c6ce7a,61036cf11a963688c0485a5b,2021-07-29_20h08.39.514,Simcolourproject_2stim_asymm_v5,2020.2.10,Win32,60,61025ae37ef11b136ea224fe,,,,,,,,,4298,92.00001281,24.79999499,1,0,0,response1disk,,6,7.200011551,-11.20000555,1,0,0,rectangle,7.200011551,-11.20000555,1,0,0,,,,,,,7.200011551,-11.20000555,1,0,0,,0,76,76,61,1,
,,,,,,,,,,,,,FF,,,,,,,,0.6161,,,,,,,,,,,,,,,,,,,,,,5b2464337297750001c6ce7a,61036cf11a963688c0485a5b,2021-07-29_20h08.39.514,Simcolourproject_2stim_asymm_v5,2020.2.10,Win32,60,61025ae37ef11b136ea224fe,,,,,,,,,2834,-96.79999,-48.00000609,1,0,0,response5disk,,2,5.600060356,-3.200005427,1,0,0,rectangle,51.20001221,-88.00000669,1,0,0,response3disk_3,TRUE,4,4,"[75,297,225,176,150,178,194,149,157,156,166,243,78,243,11,253,236,42,1,207]",1.1662,-7.999988675,-6.400029889,1,0,0,rectangle,0,77,77,114,1,
,,,,,,,,,,,,,FF,,,,,,,,0.766,,,,,,,,,,,,,,,,,,,,,,5b2464337297750001c6ce7a,61036cf11a963688c0485a5b,2021-07-29_20h08.39.514,Simcolourproject_2stim_asymm_v5,2020.2.10,Win32,60,61025ae37ef11b136ea224fe,,,,,,,,,3090,-112.7999902,-56.00000621,1,0,0,response5disk,,2,1.14441E-05,-5.37932E-06,1,0,0,rectangle,1.14441E-05,-5.37932E-06,1,0,0,,,,,,,1.14441E-05,-5.37932E-06,1,0,0,,0,78,78,37,1,
,,,,,,,,,,,,,FF,,,,,,,,0.3666,,,,,,,,,,,,,,,,,,,,,,5b2464337297750001c6ce7a,61036cf11a963688c0485a5b,2021-07-29_20h08.39.514,Simcolourproject_2stim_asymm_v5,2020.2.10,Win32,60,61025ae37ef11b136ea224fe,,,,,,,,,1029,69.60001248,43.19997085,1,0,0,response1disk,,6,0.800011456,6.399994716,1,0,0,rectangle,0.800011456,6.399994716,1,0,0,,,,,,,0.800011456,6.399994716,1,0,0,,0,79,79,127,1,
,,,,,,,,,,,,,FF,,,,,,,,0.3495,,,,,,,,,,,,,,,,,,,,,,5b2464337297750001c6ce7a,61036cf11a963688c0485a5b,2021-07-29_20h08.39.514,Simcolourproject_2stim_asymm_v5,2020.2.10,Win32,60,61025ae37ef11b136ea224fe,,,,,,,,,4100,112.8000131,42.39999525,1,0,0,response1disk,,6,-7.199988663,7.99999474,1,0,0,rectangle,-7.199988663,7.99999474,1,0,0,,,,,,,-7.199988663,7.99999474,1,0,0,,0,80,80,155,1,
,,,,,,,,,,,,,FF,,,,,,,,0.3328,,,,,,,,,,,,,,,,,,,,,,5b2464337297750001c6ce7a,61036cf11a963688c0485a5b,2021-07-29_20h08.39.514,Simcolourproject_2stim_asymm_v5,2020.2.10,Win32,60,61025ae37ef11b136ea224fe,,,,,,,,,1506,96.80001289,42.39999525,1,0,0,response1disk,,6,-11.19998872,-2.400029829,1,0,0,rectangle,-11.19998872,-2.400029829,1,0,0,,,,,,,-11.19998872,-2.400029829,1,0,0,,0,81,81,130,1,
,,,,,,,,,,,,,FF,,,,,,,,0.333,,,,,,,,,,,,,,,,,,,,,,5b2464337297750001c6ce7a,61036cf11a963688c0485a5b,2021-07-29_20h08.39.514,Simcolourproject_2stim_asymm_v5,2020.2.10,Win32,60,61025ae37ef11b136ea224fe,,,,,,,,,1653,104.800013,38.39999519,1,0,0,response1disk,,6,-15.99998879,1.59997023,1,0,0,rectangle,-15.99998879,1.59997023,1,0,0,,,,,,,-15.99998879,1.59997023,1,0,0,,0,82,82,144,1,
,,,,,,,,,,,,,FF,,,,,,,,0.6329,,,,,,,,,,,,,,,,,,,,,,5b2464337297750001c6ce7a,61036cf11a963688c0485a5b,2021-07-29_20h08.39.514,Simcolourproject_2stim_asymm_v5,2020.2.10,Win32,60,61025ae37ef11b136ea224fe,,,,,,,,,4363,-72.79998964,-35.2000059,1,0,0,response5disk,,2,-3.999988616,-9.600005522,1,0,0,rectangle,-3.999988616,-9.600005522,1,0,0,,,,,,,-3.999988616,-9.600005522,1,0,0,,0,83,83,109,1,
,,,,,,,,,,,,,FF,,,,,,,,0.2831,,,,,,,,,,,,,,,,,,,,,,5b2464337297750001c6ce7a,61036cf11a963688c0485a5b,2021-07-29_20h08.39.514,Simcolourproject_2stim_asymm_v5,2020.2.10,Win32,60,61025ae37ef11b136ea224fe,,,,,,,,,2145,82.40001267,46.39999531,1,0,0,response1disk,,6,-22.39994006,6.399994716,1,0,0,rectangle,-22.39994006,6.399994716,1,0,0,,,,,,,-22.39994006,6.399994716,1,0,0,,0,84,84,132,1,
,,,,,,,,,,,,,FF,,,,,,,,0.3496,,,,,,,,,,,,,,,,,,,,,,5b2464337297750001c6ce7a,61036cf11a963688c0485a5b,2021-07-29_20h08.39.514,Simcolourproject_2stim_asymm_v5,2020.2.10,Win32,60,61025ae37ef11b136ea224fe,,,,,,,,,174,92.80001283,44.79999529,1,0,0,response1disk,,6,-1.59998858,-0.800029805,1,0,0,rectangle,-1.59998858,-0.800029805,1,0,0,,,,,,,-1.59998858,-0.800029805,1,0,0,,0,85,85,13,1,
,,,,,,,,,,,,,FF,,,,,,,,0.3498,,,,,,,,,,,,,,,,,,,,,,5b2464337297750001c6ce7a,61036cf11a963688c0485a5b,2021-07-29_20h08.39.514,Simcolourproject_2stim_asymm_v5,2020.2.10,Win32,60,61025ae37ef11b136ea224fe,,,,,,,,,1844,84.80001271,26.39999501,1,0,0,response1disk,,6,5.600060356,3.199970254,1,0,0,rectangle,5.600060356,3.199970254,1,0,0,,,,,,,5.600060356,3.199970254,1,0,0,,0,86,86,31,1,
,,,,,,,,,,,,,FF,,,,,,,,0.3162,,,,,,,,,,,,,,,,,,,,,,5b2464337297750001c6ce7a,61036cf11a963688c0485a5b,2021-07-29_20h08.39.514,Simcolourproject_2stim_asymm_v5,2020.2.10,Win32,60,61025ae37ef11b136ea224fe,,,,,,,,,306,107.200013,51.19997097,1,0,0,response1disk,,6,-9.599988699,2.399994656,1,0,0,rectangle,-9.599988699,2.399994656,1,0,0,,,,,,,-9.599988699,2.399994656,1,0,0,,0,87,87,104,1,
,,,,,,,,,,,,,FF,,,,,,,,0.3498,,,,,,,,,,,,,,,,,,,,,,5b2464337297750001c6ce7a,61036cf11a963688c0485a5b,2021-07-29_20h08.39.514,Simcolourproject_2stim_asymm_v5,2020.2.10,Win32,60,61025ae37ef11b136ea224fe,,,,,,,,,3841,87.20001274,33.59997071,1,0,0,response1disk,,6,-15.19998878,-6.400029889,1,0,0,rectangle,-15.19998878,-6.400029889,1,0,0,,,,,,,-15.19998878,-6.400029889,1,0,0,,0,88,88,139,1,
,,,,,,,,,,,,,FF,,,,,,,,0.4663,,,,,,,,,,,,,,,,,,,,,,5b2464337297750001c6ce7a,61036cf11a963688c0485a5b,2021-07-29_20h08.39.514,Simcolourproject_2stim_asymm_v5,2020.2.10,Win32,60,61025ae37ef11b136ea224fe,,,,,,,,,1702,82.40001267,44.79999529,1,0,0,response1disk,,6,-10.39993988,-9.600005522,1,0,0,rectangle,-10.39993988,-9.600005522,1,0,0,,,,,,,-10.39993988,-9.600005522,1,0,0,,0,89,89,141,1,
,,,,,,,,,,,,,FF,,,,,,,,0.8165,,,,,,,,,,,,,,,,,,,,,,5b2464337297750001c6ce7a,61036cf11a963688c0485a5b,2021-07-29_20h08.39.514,Simcolourproject_2stim_asymm_v5,2020.2.10,Win32,60,61025ae37ef11b136ea224fe,,,,,,,,,1314,-80.79998976,-30.40003025,1,0,0,response5disk,,2,-5.599988639,11.19997037,1,0,0,rectangle,-5.599988639,11.19997037,1,0,0,,,,,,,-5.599988639,11.19997037,1,0,0,,0,90,90,6,1,
,,,,,,,,,,,,,FF,,,,,,,,0.3495,,,,,,,,,,,,,,,,,,,,,,5b2464337297750001c6ce7a,61036cf11a963688c0485a5b,2021-07-29_20h08.39.514,Simcolourproject_2stim_asymm_v5,2020.2.10,Win32,60,61025ae37ef11b136ea224fe,,,,,,,,,4089,96.00001287,59.99999551,1,0,0,response1disk,,6,7.200011551,5.59997029,1,0,0,rectangle,7.200011551,5.59997029,1,0,0,,,,,,,7.200011551,5.59997029,1,0,0,,0,91,91,0,1,
,,,,,,,,,,,,,FF,,,,,,,,0.3498,,,,,,,,,,,,,,,,,,,,,,5b2464337297750001c6ce7a,61036cf11a963688c0485a5b,2021-07-29_20h08.39.514,Simcolourproject_2stim_asymm_v5,2020.2.10,Win32,60,61025ae37ef11b136ea224fe,,,,,,,,,2433,86.40001273,38.39999519,1,0,0,response1disk,,6,1.14441E-05,-8.800029925,1,0,0,rectangle,1.14441E-05,-8.800029925,1,0,0,,,,,,,1.14441E-05,-8.800029925,1,0,0,,0,92,92,108,1,
,,,,,,,,,,,,,FF,,,,,,,,0.433,,,,,,,,,,,,,,,,,,,,,,5b2464337297750001c6ce7a,61036cf11a963688c0485a5b,2021-07-29_20h08.39.514,Simcolourproject_2stim_asymm_v5,2020.2.10,Win32,60,61025ae37ef11b136ea224fe,,,,,,,,,2720,101.600013,39.99999522,1,0,0,response1disk,,6,-5.599988639,-12.00000556,1,0,0,rectangle,-5.599988639,-12.00000556,1,0,0,,,,,,,-5.599988639,-12.00000556,1,0,0,,0,93,93,49,1,
,,,,,,,,,,,,,FF,,,,,,,,0.3498,,,,,,,,,,,,,,,,,,,,,,5b2464337297750001c6ce7a,61036cf11a963688c0485a5b,2021-07-29_20h08.39.514,Simcolourproject_2stim_asymm_v5,2020.2.10,Win32,60,61025ae37ef11b136ea224fe,,,,,,,,,3268,84.80001271,28.79999505,1,0,0,response1disk,,6,-1.59998858,-1.600005403,1,0,0,rectangle,-1.59998858,-1.600005403,1,0,0,,,,,,,-1.59998858,-1.600005403,1,0,0,,0,94,94,26,1,
,,,,,,,,,,,,,FF,,,,,,,,0.3994,,,,,,,,,,,,,,,,,,,,,,5b2464337297750001c6ce7a,61036cf11a963688c0485a5b,2021-07-29_20h08.39.514,Simcolourproject_2stim_asymm_v5,2020.2.10,Win32,60,61025ae37ef11b136ea224fe,,,,,,,,,708,94.40001285,44.79999529,1,0,0,response1disk,,6,7.200011551,1.59997023,1,0,0,rectangle,7.200011551,1.59997023,1,0,0,,,,,,,7.200011551,1.59997023,1,0,0,,0,95,95,56,1,
,,,,,,,,,,,,,FF,,,,,,,,0.9162,,,,,,,,,,,,,,,,,,,,,,5b2464337297750001c6ce7a,61036cf11a963688c0485a5b,2021-07-29_20h08.39.514,Simcolourproject_2stim_asymm_v5,2020.2.10,Win32,60,61025ae37ef11b136ea224fe,,,,,,,,,3153,-82.39994096,-43.20000602,1,0,0,response5disk,,2,-11.19998872,2.399994656,1,0,0,rectangle,-11.19998872,2.399994656,1,0,0,,,,,,,-11.19998872,2.399994656,1,0,0,,0,96,96,82,1,
,,,,,,,,,,,,,FF,,,,,,,,0.3496,,,,,,,,,,,,,,,,,,,,,,5b2464337297750001c6ce7a,61036cf11a963688c0485a5b,2021-07-29_20h08.39.514,Simcolourproject_2stim_asymm_v5,2020.2.10,Win32,60,61025ae37ef11b136ea224fe,,,,,,,,,4127,90.40001279,40.79999523,1,0,0,response1disk,,6,-4.799988627,-5.600005463,1,0,0,rectangle,-4.799988627,-5.600005463,1,0,0,,,,,,,-4.799988627,-5.600005463,1,0,0,,0,97,97,72,1,
,,,,,,,,,,,,,FF,,,,,,,,0.3995,,,,,,,,,,,,,,,,,,,,,,5b2464337297750001c6ce7a,61036cf11a963688c0485a5b,2021-07-29_20h08.39.514,Simcolourproject_2stim_asymm_v5,2020.2.10,Win32,60,61025ae37ef11b136ea224fe,,,,,,,,,4233,109.6000131,41.59997083,1,0,0,response1disk,,6,-1.59998858,-9.600005522,1,0,0,rectangle,-1.59998858,-9.600005522,1,0,0,,,,,,,-1.59998858,-9.600005522,1,0,0,,0,98,98,12,1,
,,,,,,,,,,,,,FF,,,,,,,,0.3664,,,,,,,,,,,,,,,,,,,,,,5b2464337297750001c6ce7a,61036cf11a963688c0485a5b,2021-07-29_20h08.39.514,Simcolourproject_2stim_asymm_v5,2020.2.10,Win32,60,61025ae37ef11b136ea224fe,,,,,,,,,1693,95.20001286,31.9999951,1,0,0,response1disk,,6,-3.199988604,-10.40002995,1,0,0,rectangle,-3.199988604,-10.40002995,1,0,0,,,,,,,-3.199988604,-10.40002995,1,0,0,,0,99,99,21,1,
,,,,,,,,,,,,,FF,,,,,,,,0.3663,,,,,,,,,,,,,,,,,,,,,,5b2464337297750001c6ce7a,61036cf11a963688c0485a5b,2021-07-29_20h08.39.514,Simcolourproject_2stim_asymm_v5,2020.2.10,Win32,60,61025ae37ef11b136ea224fe,,,,,,,,,464,105.600013,35.19997073,1,0,0,response1disk,,6,1.14441E-05,3.99999468,1,0,0,rectangle,1.14441E-05,3.99999468,1,0,0,,,,,,,1.14441E-05,3.99999468,1,0,0,,0,100,100,90,1,
,,,,,,,,,,,,,FF,,,,,,,,0.4495,,,,,,,,,,,,,,,,,,,,,,5b2464337297750001c6ce7a,61036cf11a963688c0485a5b,2021-07-29_20h08.39.514,Simcolourproject_2stim_asymm_v5,2020.2.10,Win32,60,61025ae37ef11b136ea224fe,,,,,,,,,460,90.40001279,43.99999528,1,0,0,response1disk,,6,-1.59998858,-3.200005427,1,0,0,rectangle,-1.59998858,-3.200005427,1,0,0,,,,,,,-1.59998858,-3.200005427,1,0,0,,0,101,101,46,1,
,,,,,,,,,,,,,FF,,,,,,,,0.5496,,,,,,,,,,,,,,,,,,,,,,5b2464337297750001c6ce7a,61036cf11a963688c0485a5b,2021-07-29_20h08.39.514,Simcolourproject_2stim_asymm_v5,2020.2.10,Win32,60,61025ae37ef11b136ea224fe,,,,,,,,,2052,94.40001285,34.39999513,1,0,0,response1disk,,6,-6.399939823,-6.400029889,1,0,0,rectangle,-6.399939823,-6.400029889,1,0,0,,,,,,,-6.399939823,-6.400029889,1,0,0,,0,102,102,54,1,
,,,,,,,,,,,,,FF,,,,,,,,0.583,,,,,,,,,,,,,,,,,,,,,,5b2464337297750001c6ce7a,61036cf11a963688c0485a5b,2021-07-29_20h08.39.514,Simcolourproject_2stim_asymm_v5,2020.2.10,Win32,60,61025ae37ef11b136ea224fe,,,,,,,,,1613,71.20001251,26.39999501,1,0,0,response1disk,,6,-16.79998881,-2.400029829,1,0,0,rectangle,-16.79998881,-2.400029829,1,0,0,,,,,,,-16.79998881,-2.400029829,1,0,0,,0,103,103,17,1,
,,,,,,,,,,,,,FF,,,,,,,,0.3829,,,,,,,,,,,,,,,,,,,,,,5b2464337297750001c6ce7a,61036cf11a963688c0485a5b,2021-07-29_20h08.39.514,Simcolourproject_2stim_asymm_v5,2020.2.10,Win32,60,61025ae37ef11b136ea224fe,,,,,,,,,3164,72.80001253,29.59997065,1,0,0,response1disk,,6,4.800011516,-0.800029805,1,0,0,rectangle,4.800011516,-0.800029805,1,0,0,,,,,,,4.800011516,-0.800029805,1,0,0,,0,104,104,64,1,
,,,,,,,,,,,,,FF,,,,,,,,0.516,,,,,,,,,,,,,,,,,,,,,,5b2464337297750001c6ce7a,61036cf11a963688c0485a5b,2021-07-29_20h08.39.514,Simcolourproject_2stim_asymm_v5,2020.2.10,Win32,60,61025ae37ef11b136ea224fe,,,,,,,,,3270,69.60001248,33.59997071,1,0,0,response1disk,,6,-7.199988663,-1.600005403,1,0,0,rectangle,-7.199988663,-1.600005403,1,0,0,,,,,,,-7.199988663,-1.600005403,1,0,0,,0,105,105,60,1,
,,,,,,,,,,,,,FF,,,,,,,,0.3663,,,,,,,,,,,,,,,,,,,,,,5b2464337297750001c6ce7a,61036cf11a963688c0485a5b,2021-07-29_20h08.39.514,Simcolourproject_2stim_asymm_v5,2020.2.10,Win32,60,61025ae37ef11b136ea224fe,,,,,,,,,2392,84.0000127,32.79999511,1,0,0,response1disk,,6,16.80001169,3.199970254,1,0,0,rectangle,16.80001169,3.199970254,1,0,0,,,,,,,16.80001169,3.199970254,1,0,0,,0,106,106,83,1,
,,,,,,,,,,,,,FF,,,,,,,,0.4162,,,,,,,,,,,,,,,,,,,,,,5b2464337297750001c6ce7a,61036cf11a963688c0485a5b,2021-07-29_20h08.39.514,Simcolourproject_2stim_asymm_v5,2020.2.10,Win32,60,61025ae37ef11b136ea224fe,,,,,,,,,2546,87.20001274,36.79999517,1,0,0,response1disk,,6,-0.799988568,-1.600005403,1,0,0,rectangle,-0.799988568,-1.600005403,1,0,0,,,,,,,-0.799988568,-1.600005403,1,0,0,,0,107,107,156,1,
,,,,,,,,,,,,,FF,,,,,,,,0.7326,,,,,,,,,,,,,,,,,,,,,,5b2464337297750001c6ce7a,61036cf11a963688c0485a5b,2021-07-29_20h08.39.514,Simcolourproject_2stim_asymm_v5,2020.2.10,Win32,60,61025ae37ef11b136ea224fe,,,,,,,,,190,-93.59998995,-36.00000592,1,0,0,response5disk,,2,-16.79998881,2.399994656,1,0,0,rectangle,-16.79998881,2.399994656,1,0,0,,,,,,,-16.79998881,2.399994656,1,0,0,,0,108,108,63,1,
,,,,,,,,,,,,,FF,,,,,,,,0.5996,,,,,,,,,,,,,,,,,,,,,,5b2464337297750001c6ce7a,61036cf11a963688c0485a5b,2021-07-29_20h08.39.514,Simcolourproject_2stim_asymm_v5,2020.2.10,Win32,60,61025ae37ef11b136ea224fe,,,,,,,,,2946,-99.99999005,-52.00000615,1,0,0,response5disk,,2,4.000011504,3.99999468,1,0,0,rectangle,4.000011504,3.99999468,1,0,0,,,,,,,4.000011504,3.99999468,1,0,0,,0,109,109,133,1,
,,,,,,,,,,,,,FF,,,,,,,,0.8829,,,,,,,,,,,,,,,,,,,,,,5b2464337297750001c6ce7a,61036cf11a963688c0485a5b,2021-07-29_20h08.39.514,Simcolourproject_2stim_asymm_v5,2020.2.10,Win32,60,61025ae37ef11b136ea224fe,,,,,,,,,3428,-88.79998988,-25.60000576,1,0,0,response5disk,,2,-4.799988627,0.799994633,1,0,0,rectangle,-4.799988627,0.799994633,1,0,0,,,,,,,-4.799988627,0.799994633,1,0,0,,0,110,110,57,1,
,,,,,,,,,,,,,FF,,,,,,,,0.2831,,,,,,,,,,,,,,,,,,,,,,5b2464337297750001c6ce7a,61036cf11a963688c0485a5b,2021-07-29_20h08.39.514,Simcolourproject_2stim_asymm_v5,2020.2.10,Win32,60,61025ae37ef11b136ea224fe,,,,,,,,,597,76.00001258,31.9999951,1,0,0,response1disk,,6,-33.59998906,-13.60000558,1,0,0,rectangle,-33.59998906,-13.60000558,1,0,0,,,,,,,-33.59998906,-13.60000558,1,0,0,,0,111,111,140,1,
,,,,,,,,,,,,,FF,,,,,,,,0.3493,,,,,,,,,,,,,,,,,,,,,,5b2464337297750001c6ce7a,61036cf11a963688c0485a5b,2021-07-29_20h08.39.514,Simcolourproject_2stim_asymm_v5,2020.2.10,Win32,60,61025ae37ef11b136ea224fe,,,,,,,,,3014,91.2000128,43.19997085,1,0,0,response1disk,,6,-9.599988699,0.799994633,1,0,0,rectangle,-9.599988699,0.799994633,1,0,0,,,,,,,-9.599988699,0.799994633,1,0,0,,0,112,112,38,1,
,,,,,,,,,,,,,FF,,,,,,,,0.4831,,,,,,,,,,,,,,,,,,,,,,5b2464337297750001c6ce7a,61036cf11a963688c0485a5b,2021-07-29_20h08.39.514,Simcolourproject_2stim_asymm_v5,2020.2.10,Win32,60,61025ae37ef11b136ea224fe,,,,,,,,,2213,93.60001284,55.99999546,1,0,0,response1disk,,6,15.20001167,1.59997023,1,0,0,rectangle,15.20001167,1.59997023,1,0,0,,,,,,,15.20001167,1.59997023,1,0,0,,0,113,113,115,1,
,,,,,,,,,,,,,FF,,,,,,,,0.6994,,,,,,,,,,,,,,,,,,,,,,5b2464337297750001c6ce7a,61036cf11a963688c0485a5b,2021-07-29_20h08.39.514,Simcolourproject_2stim_asymm_v5,2020.2.10,Win32,60,61025ae37ef11b136ea224fe,,,,,,,,,111,112.8000131,48.79999535,1,0,0,response1disk,,6,-7.199988663,-4.800029865,1,0,0,rectangle,-7.199988663,-4.800029865,1,0,0,,,,,,,-7.199988663,-4.800029865,1,0,0,,0,114,114,95,1,
,,,,,,,,,,,,,FF,,,,,,,,0.2331,,,,,,,,,,,,,,,,,,,,,,5b2464337297750001c6ce7a,61036cf11a963688c0485a5b,2021-07-29_20h08.39.514,Simcolourproject_2stim_asymm_v5,2020.2.10,Win32,60,61025ae37ef11b136ea224fe,,,,,,,,,1638,97.6000129,34.39999513,1,0,0,response1disk,,6,-2.399939764,-3.200005427,1,0,0,rectangle,-2.399939764,-3.200005427,1,0,0,,,,,,,-2.399939764,-3.200005427,1,0,0,,0,115,115,94,1,
,,,,,,,,,,,,,FF,,,,,,,,0.2829,,,,,,,,,,,,,,,,,,,,,,5b2464337297750001c6ce7a,61036cf11a963688c0485a5b,2021-07-29_20h08.39.514,Simcolourproject_2stim_asymm_v5,2020.2.10,Win32,60,61025ae37ef11b136ea224fe,,,,,,,,,3308,99.20001292,37.59997077,1,0,0,response1disk,,6,15.20001167,1.59997023,1,0,0,rectangle,15.20001167,1.59997023,1,0,0,,,,,,,15.20001167,1.59997023,1,0,0,,0,116,116,75,1,
,,,,,,,,,,,,,FF,,,,,,,,0.683,,,,,,,,,,,,,,,,,,,,,,5b2464337297750001c6ce7a,61036cf11a963688c0485a5b,2021-07-29_20h08.39.514,Simcolourproject_2stim_asymm_v5,2020.2.10,Win32,60,61025ae37ef11b136ea224fe,,,,,,,,,3441,87.20001274,31.9999951,1,0,0,response1disk,,6,3.200011492,-5.600005463,1,0,0,rectangle,3.200011492,-5.600005463,1,0,0,,,,,,,3.200011492,-5.600005463,1,0,0,,0,117,117,78,1,
,,,,,,,,,,,,,FF,,,,,,,,0.3159,,,,,,,,,,,,,,,,,,,,,,5b2464337297750001c6ce7a,61036cf11a963688c0485a5b,2021-07-29_20h08.39.514,Simcolourproject_2stim_asymm_v5,2020.2.10,Win32,60,61025ae37ef11b136ea224fe,,,,,,,,,1999,102.400013,35.19997073,1,0,0,response1disk,,6,8.000011563,-4.800029865,1,0,0,rectangle,8.000011563,-4.800029865,1,0,0,,,,,,,8.000011563,-4.800029865,1,0,0,,0,118,118,62,1,
,,,,,,,,,,,,,FF,,,,,,,,0.3162,,,,,,,,,,,,,,,,,,,,,,5b2464337297750001c6ce7a,61036cf11a963688c0485a5b,2021-07-29_20h08.39.514,Simcolourproject_2stim_asymm_v5,2020.2.10,Win32,60,61025ae37ef11b136ea224fe,,,,,,,,,903,112.8000131,40.79999523,1,0,0,response1disk,,6,0.800011456,-5.37932E-06,1,0,0,rectangle,0.800011456,-5.37932E-06,1,0,0,,,,,,,0.800011456,-5.37932E-06,1,0,0,,0,119,119,152,1,
,,,,,,,,,,,,,FF,,,,,,,,0.7328,,,,,,,,,,,,,,,,,,,,,,5b2464337297750001c6ce7a,61036cf11a963688c0485a5b,2021-07-29_20h08.39.514,Simcolourproject_2stim_asymm_v5,2020.2.10,Win32,60,61025ae37ef11b136ea224fe,,,,,,,,,3382,-83.99998981,-32.00000586,1,0,0,response5disk,,2,19.20001173,7.99999474,1,0,0,rectangle,19.20001173,7.99999474,1,0,0,,,,,,,19.20001173,7.99999474,1,0,0,,0,120,120,40,1,
,,,,,,,,,,,,,FF,,,,,,,,0.3163,,,,,,,,,,,,,,,,,,,,,,5b2464337297750001c6ce7a,61036cf11a963688c0485a5b,2021-07-29_20h08.39.514,Simcolourproject_2stim_asymm_v5,2020.2.10,Win32,60,61025ae37ef11b136ea224fe,,,,,,,,,293,85.60001272,40.79999523,1,0,0,response1disk,,6,-12.79998875,-4.800029865,1,0,0,rectangle,-12.79998875,-4.800029865,1,0,0,,,,,,,-12.79998875,-4.800029865,1,0,0,,0,121,121,44,1,
,,,,,,,,,,,,,FF,,,,,,,,0.7495,,,,,,,,,,,,,,,,,,,,,,5b2464337297750001c6ce7a,61036cf11a963688c0485a5b,2021-07-29_20h08.39.514,Simcolourproject_2stim_asymm_v5,2020.2.10,Win32,60,61025ae37ef11b136ea224fe,,,,,,,,,1957,-87.99998987,-43.20000602,1,0,0,response5disk,,2,-33.59998906,-12.80002998,1,0,0,rectangle,-33.59998906,-12.80002998,1,0,0,,,,,,,-33.59998906,-12.80002998,1,0,0,,0,122,122,117,1,
,,,,,,,,,,,,,FF,,,,,,,,0.283,,,,,,,,,,,,,,,,,,,,,,5b2464337297750001c6ce7a,61036cf11a963688c0485a5b,2021-07-29_20h08.39.514,Simcolourproject_2stim_asymm_v5,2020.2.10,Win32,60,61025ae37ef11b136ea224fe,,,,,,,,,3683,107.200013,47.99999534,1,0,0,response1disk,,6,-19.99998885,-12.80002998,1,0,0,rectangle,-19.99998885,-12.80002998,1,0,0,,,,,,,-19.99998885,-12.80002998,1,0,0,,0,123,123,39,1,
,,,,,,,,,,,,,FF,,,,,,,,0.3163,,,,,,,,,,,,,,,,,,,,,,5b2464337297750001c6ce7a,61036cf11a963688c0485a5b,2021-07-29_20h08.39.514,Simcolourproject_2stim_asymm_v5,2020.2.10,Win32,60,61025ae37ef11b136ea224fe,,,,,,,,,7,95.20001286,37.59997077,1,0,0,response1disk,,6,13.60006047,1.59997023,1,0,0,rectangle,13.60006047,1.59997023,1,0,0,,,,,,,13.60006047,1.59997023,1,0,0,,0,124,124,103,1,
,,,,,,,,,,,,,FF,,,,,,,,0.35,,,,,,,,,,,,,,,,,,,,,,5b2464337297750001c6ce7a,61036cf11a963688c0485a5b,2021-07-29_20h08.39.514,Simcolourproject_2stim_asymm_v5,2020.2.10,Win32,60,61025ae37ef11b136ea224fe,,,,,,,,,2999,108.0000131,51.9999954,1,0,0,response1disk,,6,-16.79998881,-5.37932E-06,1,0,0,rectangle,-16.79998881,-5.37932E-06,1,0,0,,,,,,,-16.79998881,-5.37932E-06,1,0,0,,0,125,125,88,1,
,,,,,,,,,,,,,FF,,,,,,,,0.3163,,,,,,,,,,,,,,,,,,,,,,5b2464337297750001c6ce7a,61036cf11a963688c0485a5b,2021-07-29_20h08.39.514,Simcolourproject_2stim_asymm_v5,2020.2.10,Win32,60,61025ae37ef11b136ea224fe,,,,,,,,,697,108.0000131,48.79999535,1,0,0,response1disk,,6,-10.39993988,7.199970314,1,0,0,rectangle,-10.39993988,7.199970314,1,0,0,,,,,,,-10.39993988,7.199970314,1,0,0,,0,126,126,87,1,
,,,,,,,,,,,,,FF,,,,,,,,0.2665,,,,,,,,,,,,,,,,,,,,,,5b2464337297750001c6ce7a,61036cf11a963688c0485a5b,2021-07-29_20h08.39.514,Simcolourproject_2stim_asymm_v5,2020.2.10,Win32,60,61025ae37ef11b136ea224fe,,,,,,,,,2898,94.40001285,45.59997089,1,0,0,response1disk,,6,-16.79998881,-2.400029829,1,0,0,rectangle,-16.79998881,-2.400029829,1,0,0,,,,,,,-16.79998881,-2.400029829,1,0,0,,0,127,127,93,1,
,,,,,,,,,,,,,FF,,,,,,,,0.3328,,,,,,,,,,,,,,,,,,,,,,5b2464337297750001c6ce7a,61036cf11a963688c0485a5b,2021-07-29_20h08.39.514,Simcolourproject_2stim_asymm_v5,2020.2.10,Win32,60,61025ae37ef11b136ea224fe,,,,,,,,,3755,124.0000133,47.99999534,1,0,0,response1disk,,6,-9.599988699,-4.800029865,1,0,0,rectangle,-9.599988699,-4.800029865,1,0,0,,,,,,,-9.599988699,-4.800029865,1,0,0,,0,128,128,4,1,
,,,,,,,,,,,,,FF,,,,,,,,0.3829,,,,,,,,,,,,,,,,,,,,,,5b2464337297750001c6ce7a,61036cf11a963688c0485a5b,2021-07-29_20h08.39.514,Simcolourproject_2stim_asymm_v5,2020.2.10,Win32,60,61025ae37ef11b136ea224fe,,,,,,,,,1992,107.200013,44.79999529,1,0,0,response1disk,,6,-19.99998885,-10.40002995,1,0,0,rectangle,-19.99998885,-10.40002995,1,0,0,,,,,,,-19.99998885,-10.40002995,1,0,0,,0,129,129,14,1,
,,,,,,,,,,,,,FF,,,,,,,,0.2663,,,,,,,,,,,,,,,,,,,,,,5b2464337297750001c6ce7a,61036cf11a963688c0485a5b,2021-07-29_20h08.39.514,Simcolourproject_2stim_asymm_v5,2020.2.10,Win32,60,61025ae37ef11b136ea224fe,,,,,,,,,3616,94.40001285,39.99999522,1,0,0,response1disk,,6,-13.59998876,-5.600005463,1,0,0,rectangle,-13.59998876,-5.600005463,1,0,0,,,,,,,-13.59998876,-5.600005463,1,0,0,,0,130,130,1,1,
,,,,,,,,,,,,,FF,,,,,,,,0.3831,,,,,,,,,,,,,,,,,,,,,,5b2464337297750001c6ce7a,61036cf11a963688c0485a5b,2021-07-29_20h08.39.514,Simcolourproject_2stim_asymm_v5,2020.2.10,Win32,60,61025ae37ef11b136ea224fe,,,,,,,,,2639,85.60001272,35.19997073,1,0,0,response1disk,,6,-11.99998873,-12.00000556,1,0,0,rectangle,-11.99998873,-12.00000556,1,0,0,,,,,,,-11.99998873,-12.00000556,1,0,0,,0,131,131,33,1,
,,,,,,,,,,,,,FF,,,,,,,,0.5498,,,,,,,,,,,,,,,,,,,,,,5b2464337297750001c6ce7a,61036cf11a963688c0485a5b,2021-07-29_20h08.39.514,Simcolourproject_2stim_asymm_v5,2020.2.10,Win32,60,61025ae37ef11b136ea224fe,,,,,,,,,3703,106.400013,37.59997077,1,0,0,response1disk,,6,13.60006047,-2.400029829,1,0,0,rectangle,13.60006047,-2.400029829,1,0,0,,,,,,,13.60006047,-2.400029829,1,0,0,,0,132,132,11,1,
,,,,,,,,,,,,,FF,,,,,,,,0.5329,,,,,,,,,,,,,,,,,,,,,,5b2464337297750001c6ce7a,61036cf11a963688c0485a5b,2021-07-29_20h08.39.514,Simcolourproject_2stim_asymm_v5,2020.2.10,Win32,60,61025ae37ef11b136ea224fe,,,,,,,,,1137,91.2000128,31.19997067,1,0,0,response1disk,,6,1.14441E-05,-8.000005499,1,0,0,rectangle,1.14441E-05,-8.000005499,1,0,0,,,,,,,1.14441E-05,-8.000005499,1,0,0,,0,133,133,124,1,
,,,,,,,,,,,,,FF,,,,,,,,0.2998,,,,,,,,,,,,,,,,,,,,,,5b2464337297750001c6ce7a,61036cf11a963688c0485a5b,2021-07-29_20h08.39.514,Simcolourproject_2stim_asymm_v5,2020.2.10,Win32,60,61025ae37ef11b136ea224fe,,,,,,,,,1616,99.20001292,31.9999951,1,0,0,response1disk,,6,-7.999988675,-11.20000555,1,0,0,rectangle,-7.999988675,-11.20000555,1,0,0,,,,,,,-7.999988675,-11.20000555,1,0,0,,0,134,134,58,1,
,,,,,,,,,,,,,FF,,,,,,,,0.433,,,,,,,,,,,,,,,,,,,,,,5b2464337297750001c6ce7a,61036cf11a963688c0485a5b,2021-07-29_20h08.39.514,Simcolourproject_2stim_asymm_v5,2020.2.10,Win32,60,61025ae37ef11b136ea224fe,,,,,,,,,267,75.20001256,31.9999951,1,0,0,response1disk,,6,15.20001167,5.59997029,1,0,0,rectangle,15.20001167,5.59997029,1,0,0,,,,,,,15.20001167,5.59997029,1,0,0,,0,135,135,123,1,
,,,,,,,,,,,,,FF,,,,,,,,0.3828,,,,,,,,,,,,,,,,,,,,,,5b2464337297750001c6ce7a,61036cf11a963688c0485a5b,2021-07-29_20h08.39.514,Simcolourproject_2stim_asymm_v5,2020.2.10,Win32,60,61025ae37ef11b136ea224fe,,,,,,,,,687,91.2000128,32.79999511,1,0,0,response1disk,,6,-2.399939764,2.399994656,1,0,0,rectangle,-2.399939764,2.399994656,1,0,0,,,,,,,-2.399939764,2.399994656,1,0,0,,0,136,136,5,1,
,,,,,,,,,,,,,FF,,,,,,,,0.4666,,,,,,,,,,,,,,,,,,,,,,5b2464337297750001c6ce7a,61036cf11a963688c0485a5b,2021-07-29_20h08.39.514,Simcolourproject_2stim_asymm_v5,2020.2.10,Win32,60,61025ae37ef11b136ea224fe,,,,,,,,,3783,62.40001237,24.79999499,1,0,0,response1disk,,6,-3.999988616,-0.800029805,1,0,0,rectangle,-3.999988616,-0.800029805,1,0,0,,,,,,,-3.999988616,-0.800029805,1,0,0,,0,137,137,66,1,
,,,,,,,,,,,,,FF,,,,,,,,0.4329,,,,,,,,,,,,,,,,,,,,,,5b2464337297750001c6ce7a,61036cf11a963688c0485a5b,2021-07-29_20h08.39.514,Simcolourproject_2stim_asymm_v5,2020.2.10,Win32,60,61025ae37ef11b136ea224fe,,,,,,,,,3568,77.6000126,33.59997071,1,0,0,response1disk,,6,7.200011551,6.399994716,1,0,0,rectangle,7.200011551,6.399994716,1,0,0,,,,,,,7.200011551,6.399994716,1,0,0,,0,138,138,59,1,
,,,,,,,,,,,,,FF,,,,,,,,0.65,,,,,,,,,,,,,,,,,,,,,,5b2464337297750001c6ce7a,61036cf11a963688c0485a5b,2021-07-29_20h08.39.514,Simcolourproject_2stim_asymm_v5,2020.2.10,Win32,60,61025ae37ef11b136ea224fe,,,,,,,,,4048,83.20001268,35.99999516,1,0,0,response1disk,,6,5.600060356,-4.800029865,1,0,0,rectangle,5.600060356,-4.800029865,1,0,0,,,,,,,5.600060356,-4.800029865,1,0,0,,0,139,139,146,1,
,,,,,,,,,,,,,FF,,,,,,,,0.3662,,,,,,,,,,,,,,,,,,,,,,5b2464337297750001c6ce7a,61036cf11a963688c0485a5b,2021-07-29_20h08.39.514,Simcolourproject_2stim_asymm_v5,2020.2.10,Win32,60,61025ae37ef11b136ea224fe,,,,,,,,,943,80.80001265,28.79999505,1,0,0,response1disk,,6,-0.799988568,3.199970254,1,0,0,rectangle,-0.799988568,3.199970254,1,0,0,,,,,,,-0.799988568,3.199970254,1,0,0,,0,140,140,129,1,
,,,,,,,,,,,,,FF,,,,,,,,0.4162,,,,,,,,,,,,,,,,,,,,,,5b2464337297750001c6ce7a,61036cf11a963688c0485a5b,2021-07-29_20h08.39.514,Simcolourproject_2stim_asymm_v5,2020.2.10,Win32,60,61025ae37ef11b136ea224fe,,,,,,,,,447,97.6000129,29.59997065,1,0,0,response1disk,,6,8.800011575,2.399994656,1,0,0,rectangle,8.800011575,2.399994656,1,0,0,,,,,,,8.800011575,2.399994656,1,0,0,,0,141,141,122,1,
,,,,,,,,,,,,,FF,,,,,,,,0.3828,,,,,,,,,,,,,,,,,,,,,,5b2464337297750001c6ce7a,61036cf11a963688c0485a5b,2021-07-29_20h08.39.514,Simcolourproject_2stim_asymm_v5,2020.2.10,Win32,60,61025ae37ef11b136ea224fe,,,,,,,,,876,91.2000128,36.79999517,1,0,0,response1disk,,6,16.00001168,4.799994692,1,0,0,rectangle,16.00001168,4.799994692,1,0,0,,,,,,,16.00001168,4.799994692,1,0,0,,0,142,142,110,1,
,,,,,,,,,,,,,FF,,,,,,,,0.7827,,,,,,,,,,,,,,,,,,,,,,5b2464337297750001c6ce7a,61036cf11a963688c0485a5b,2021-07-29_20h08.39.514,Simcolourproject_2stim_asymm_v5,2020.2.10,Win32,60,61025ae37ef11b136ea224fe,,,,,,,,,3520,84.0000127,41.59997083,1,0,0,response1disk,,6,-28.79998899,-12.80002998,1,0,0,rectangle,-28.79998899,-12.80002998,1,0,0,,,,,,,-28.79998899,-12.80002998,1,0,0,,0,143,143,149,1,
,,,,,,,,,,,,,FF,,,,,,,,0.3994,,,,,,,,,,,,,,,,,,,,,,5b2464337297750001c6ce7a,61036cf11a963688c0485a5b,2021-07-29_20h08.39.514,Simcolourproject_2stim_asymm_v5,2020.2.10,Win32,60,61025ae37ef11b136ea224fe,,,,,,,,,3209,83.20001268,39.99999522,1,0,0,response1disk,,6,-1.59998858,12.79999481,1,0,0,rectangle,-1.59998858,12.79999481,1,0,0,,,,,,,-1.59998858,12.79999481,1,0,0,,0,144,144,98,1,
,,,,,,,,,,,,,FF,,,,,,,,0.5995,,,,,,,,,,,,,,,,,,,,,,5b2464337297750001c6ce7a,61036cf11a963688c0485a5b,2021-07-29_20h08.39.514,Simcolourproject_2stim_asymm_v5,2020.2.10,Win32,60,61025ae37ef11b136ea224fe,,,,,,,,,2949,68.00001246,35.99999516,1,0,0,response1disk,,6,-1.59998858,14.39999484,1,0,0,rectangle,-1.59998858,14.39999484,1,0,0,,,,,,,-1.59998858,14.39999484,1,0,0,,0,145,145,92,1,
,,,,,,,,,,,,,FF,,,,,,,,0.5995,,,,,,,,,,,,,,,,,,,,,,5b2464337297750001c6ce7a,61036cf11a963688c0485a5b,2021-07-29_20h08.39.514,Simcolourproject_2stim_asymm_v5,2020.2.10,Win32,60,61025ae37ef11b136ea224fe,,,,,,,,,4105,77.6000126,32.79999511,1,0,0,response1disk,,6,-16.79998881,3.199970254,1,0,0,rectangle,-16.79998881,3.199970254,1,0,0,,,,,,,-16.79998881,3.199970254,1,0,0,,0,146,146,73,1,
,,,,,,,,,,,,,FF,,,,,,,,0.4165,,,,,,,,,,,,,,,,,,,,,,5b2464337297750001c6ce7a,61036cf11a963688c0485a5b,2021-07-29_20h08.39.514,Simcolourproject_2stim_asymm_v5,2020.2.10,Win32,60,61025ae37ef11b136ea224fe,,,,,,,,,2086,107.200013,43.99999528,1,0,0,response1disk,,6,31.20001191,5.59997029,1,0,0,rectangle,31.20001191,5.59997029,1,0,0,,,,,,,31.20001191,5.59997029,1,0,0,,0,147,147,159,1,
,,,,,,,,,,,,,FF,,,,,,,,0.3997,,,,,,,,,,,,,,,,,,,,,,5b2464337297750001c6ce7a,61036cf11a963688c0485a5b,2021-07-29_20h08.39.514,Simcolourproject_2stim_asymm_v5,2020.2.10,Win32,60,61025ae37ef11b136ea224fe,,,,,,,,,924,99.20001292,53.59997101,1,0,0,response1disk,,6,5.600060356,3.199970254,1,0,0,rectangle,-39.19998914,83.19997145,1,0,0,response7disk_3,TRUE,0,0,"[75,297,225,176,150,178,194,149,157,156,166,243,78,243,11,253,236,42,1,207]",1.1991,11.20001161,-7.200005487,1,0,0,rectangle,0,148,148,20,1,
,,,,,,,,,,,,,FF,,,,,,,,0.7831,,,,,,,,,,,,,,,,,,,,,,5b2464337297750001c6ce7a,61036cf11a963688c0485a5b,2021-07-29_20h08.39.514,Simcolourproject_2stim_asymm_v5,2020.2.10,Win32,60,61025ae37ef11b136ea224fe,,,,,,,,,3330,99.20001292,32.79999511,1,0,0,response1disk,,6,-2.399939764,-11.20000555,1,0,0,rectangle,-39.19998914,-88.00000669,1,0,0,response5disk_3,TRUE,3,3,"[75,297,225,176,150,178,194,149,157,156,166,243,78,243,11,253,236,42,1,207]",1.799,-5.599988639,14.39999484,1,0,0,rectangle,0,149,149,131,1,
,,,,,,,,,,,,,FF,,,,,,,,0.5498,,,,,,,,,,,,,,,,,,,,,,5b2464337297750001c6ce7a,61036cf11a963688c0485a5b,2021-07-29_20h08.39.514,Simcolourproject_2stim_asymm_v5,2020.2.10,Win32,60,61025ae37ef11b136ea224fe,,,,,,,,,2539,108.0000131,41.59997083,1,0,0,response1disk,,6,4.000011504,3.199970254,1,0,0,rectangle,4.000011504,3.199970254,1,0,0,,,,,,,4.000011504,3.199970254,1,0,0,,0,150,150,118,1,
,,,,,,,,,,,,,FF,,,,,,,,0.4498,,,,,,,,,,,,,,,,,,,,,,5b2464337297750001c6ce7a,61036cf11a963688c0485a5b,2021-07-29_20h08.39.514,Simcolourproject_2stim_asymm_v5,2020.2.10,Win32,60,61025ae37ef11b136ea224fe,,,,,,,,,1865,122.4000133,47.19997091,1,0,0,response1disk,,6,12.00001162,11.19997037,1,0,0,rectangle,12.00001162,11.19997037,1,0,0,,,,,,,12.00001162,11.19997037,1,0,0,,0,151,151,150,1,
,,,,,,,,,,,,,FF,,,,,,,,0.45,,,,,,,,,,,,,,,,,,,,,,5b2464337297750001c6ce7a,61036cf11a963688c0485a5b,2021-07-29_20h08.39.514,Simcolourproject_2stim_asymm_v5,2020.2.10,Win32,60,61025ae37ef11b136ea224fe,,,,,,,,,546,115.2000132,40.79999523,1,0,0,response1disk,,6,2.40001148,-4.000005439,1,0,0,rectangle,2.40001148,-4.000005439,1,0,0,,,,,,,2.40001148,-4.000005439,1,0,0,,0,152,152,136,1,
,,,,,,,,,,,,,FF,,,,,,,,0.4664,,,,,,,,,,,,,,,,,,,,,,5b2464337297750001c6ce7a,61036cf11a963688c0485a5b,2021-07-29_20h08.39.514,Simcolourproject_2stim_asymm_v5,2020.2.10,Win32,60,61025ae37ef11b136ea224fe,,,,,,,,,240,65.60001242,38.39999519,1,0,0,response1disk,,6,-28.79998899,-9.600005522,1,0,0,rectangle,-28.79998899,-9.600005522,1,0,0,,,,,,,-28.79998899,-9.600005522,1,0,0,,0,153,153,30,1,
,,,,,,,,,,,,,FF,,,,,,,,0.3497,,,,,,,,,,,,,,,,,,,,,,5b2464337297750001c6ce7a,61036cf11a963688c0485a5b,2021-07-29_20h08.39.514,Simcolourproject_2stim_asymm_v5,2020.2.10,Win32,60,61025ae37ef11b136ea224fe,,,,,,,,,1187,85.60001272,48.79999535,1,0,0,response1disk,,6,-20.79998887,-3.200005427,1,0,0,rectangle,-20.79998887,-3.200005427,1,0,0,,,,,,,-20.79998887,-3.200005427,1,0,0,,0,154,154,36,1,
,,,,,,,,,,,,,FF,,,,,,,,0.4499,,,,,,,,,,,,,,,,,,,,,,5b2464337297750001c6ce7a,61036cf11a963688c0485a5b,2021-07-29_20h08.39.514,Simcolourproject_2stim_asymm_v5,2020.2.10,Win32,60,61025ae37ef11b136ea224fe,,,,,,,,,1775,103.200013,21.59997053,1,0,0,response1disk,,6,-1.59998858,-0.800029805,1,0,0,rectangle,-107.9999902,-57.60000624,1,0,0,response5disk_3,TRUE,2,2,"[75,297,225,176,150,178,194,149,157,156,166,243,78,243,11,253,236,42,1,207]",1.5322,17.60006053,-4.000005439,1,0,0,rectangle,0,155,155,148,1,
,,,,,,,,,,,,,FF,,,,,,,,0.4498,,,,,,,,,,,,,,,,,,,,,,5b2464337297750001c6ce7a,61036cf11a963688c0485a5b,2021-07-29_20h08.39.514,Simcolourproject_2stim_asymm_v5,2020.2.10,Win32,60,61025ae37ef11b136ea224fe,,,,,,,,,4212,78.40001261,36.79999517,1,0,0,response1disk,,6,28.00001186,7.199970314,1,0,0,rectangle,-39.99998915,82.39999585,1,0,0,response7disk_3,TRUE,0,0,"[75,297,225,176,150,178,194,149,157,156,166,243,78,243,11,253,236,42,1,207]",1.1995,-10.39993988,-5.37932E-06,1,0,0,rectangle,0,156,156,86,1,
,,,,,,,,,,,,,FF,,,,,,,,0.983,,,,,,,,,,,,,,,,,,,,,,5b2464337297750001c6ce7a,61036cf11a963688c0485a5b,2021-07-29_20h08.39.514,Simcolourproject_2stim_asymm_v5,2020.2.10,Win32,60,61025ae37ef11b136ea224fe,,,,,,,,,3708,-83.1999898,-50.40000613,1,0,0,response5disk,,2,2.40001148,-3.200005427,1,0,0,rectangle,2.40001148,-3.200005427,1,0,0,,,,,,,2.40001148,-3.200005427,1,0,0,,0,157,157,105,1,
,,,,,,,,,,,,,FF,,,,,,,,0.7163,,,,,,,,,,,,,,,,,,,,,,5b2464337297750001c6ce7a,61036cf11a963688c0485a5b,2021-07-29_20h08.39.514,Simcolourproject_2stim_asymm_v5,2020.2.10,Win32,60,61025ae37ef11b136ea224fe,,,,,,,,,4066,88.80001277,56.79999547,1,0,0,response1disk,,6,8.000011563,-0.800029805,1,0,0,rectangle,8.000011563,-0.800029805,1,0,0,,,,,,,8.000011563,-0.800029805,1,0,0,,0,158,158,153,1,
,,,,,,,,,,,,,FF,,,,,,,,0.3998,,,,,,,,,,,,,,,,,,,,,,5b2464337297750001c6ce7a,61036cf11a963688c0485a5b,2021-07-29_20h08.39.514,Simcolourproject_2stim_asymm_v5,2020.2.10,Win32,60,61025ae37ef11b136ea224fe,,,,,,,,,1220,86.40001273,37.59997077,1,0,0,response1disk,,6,23.20001179,5.59997029,1,0,0,rectangle,23.20001179,5.59997029,1,0,0,,,,,,,23.20001179,5.59997029,1,0,0,,0,159,159,65,1,
,,,,,,,,,,,,,FF,,,,,,,,0.3331,,,,,,,,,,,,,,,,,,,,,,5b2464337297750001c6ce7a,61036cf11a963688c0485a5b,2021-07-29_20h08.39.514,Simcolourproject_2stim_asymm_v5,2020.2.10,Win32,60,61025ae37ef11b136ea224fe,,,,,,,,,1270,83.20001268,34.39999513,1,0,0,response1disk,,6,-8.799988687,-5.37932E-06,1,0,0,rectangle,-8.799988687,-5.37932E-06,1,0,0,,,,,,,-8.799988687,-5.37932E-06,1,0,0,,1,0,160,34,1,
,,,,,,,,,,,,,FF,,,,,,,,0.4495,,,,,,,,,,,,,,,,,,,,,,5b2464337297750001c6ce7a,61036cf11a963688c0485a5b,2021-07-29_20h08.39.514,Simcolourproject_2stim_asymm_v5,2020.2.10,Win32,60,61025ae37ef11b136ea224fe,,,,,,,,,584,72.80001253,37.59997077,1,0,0,response1disk,,6,19.20001173,10.39999478,1,0,0,rectangle,19.20001173,10.39999478,1,0,0,,,,,,,19.20001173,10.39999478,1,0,0,,1,1,161,78,1,
,,,,,,,,,,,,,FF,,,,,,,,0.3665,,,,,,,,,,,,,,,,,,,,,,5b2464337297750001c6ce7a,61036cf11a963688c0485a5b,2021-07-29_20h08.39.514,Simcolourproject_2stim_asymm_v5,2020.2.10,Win32,60,61025ae37ef11b136ea224fe,,,,,,,,,4049,110.4000131,41.59997083,1,0,0,response1disk,,6,-7.199988663,-0.800029805,1,0,0,rectangle,-7.199988663,-0.800029805,1,0,0,,,,,,,-7.199988663,-0.800029805,1,0,0,,1,2,162,2,1,
,,,,,,,,,,,,,FF,,,,,,,,0.3997,,,,,,,,,,,,,,,,,,,,,,5b2464337297750001c6ce7a,61036cf11a963688c0485a5b,2021-07-29_20h08.39.514,Simcolourproject_2stim_asymm_v5,2020.2.10,Win32,60,61025ae37ef11b136ea224fe,,,,,,,,,3535,82.40001267,35.99999516,1,0,0,response1disk,,6,4.000011504,7.199970314,1,0,0,rectangle,4.000011504,7.199970314,1,0,0,,,,,,,4.000011504,7.199970314,1,0,0,,1,3,163,67,1,
,,,,,,,,,,,,,FF,,,,,,,,0.3835,,,,,,,,,,,,,,,,,,,,,,5b2464337297750001c6ce7a,61036cf11a963688c0485a5b,2021-07-29_20h08.39.514,Simcolourproject_2stim_asymm_v5,2020.2.10,Win32,60,61025ae37ef11b136ea224fe,,,,,,,,,2612,100.0000129,40.79999523,1,0,0,response1disk,,6,-8.799988687,-3.200005427,1,0,0,rectangle,-8.799988687,-3.200005427,1,0,0,,,,,,,-8.799988687,-3.200005427,1,0,0,,1,4,164,108,1,
,,,,,,,,,,,,,FF,,,,,,,,0.4334,,,,,,,,,,,,,,,,,,,,,,5b2464337297750001c6ce7a,61036cf11a963688c0485a5b,2021-07-29_20h08.39.514,Simcolourproject_2stim_asymm_v5,2020.2.10,Win32,60,61025ae37ef11b136ea224fe,,,,,,,,,3491,76.00001258,31.19997067,1,0,0,response1disk,,6,-23.1999889,-5.600005463,1,0,0,rectangle,56.00001228,96.79999606,1,0,0,response1disk_3,TRUE,7,7,"[75,297,225,176,150,178,194,149,157,156,166,243,78,243,11,253,236,42,1,207]",1.4661,-11.19998872,3.99999468,1,0,0,rectangle,1,5,165,24,1,
,,,,,,,,,,,,,FF,,,,,,,,0.4997,,,,,,,,,,,,,,,,,,,,,,5b2464337297750001c6ce7a,61036cf11a963688c0485a5b,2021-07-29_20h08.39.514,Simcolourproject_2stim_asymm_v5,2020.2.10,Win32,60,61025ae37ef11b136ea224fe,,,,,,,,,381,104.800013,41.59997083,1,0,0,response1disk,,6,36.80001199,11.9999948,1,0,0,rectangle,36.80001199,11.9999948,1,0,0,,,,,,,36.80001199,11.9999948,1,0,0,,1,6,166,52,1,
,,,,,,,,,,,,,FF,,,,,,,,0.3331,,,,,,,,,,,,,,,,,,,,,,5b2464337297750001c6ce7a,61036cf11a963688c0485a5b,2021-07-29_20h08.39.514,Simcolourproject_2stim_asymm_v5,2020.2.10,Win32,60,61025ae37ef11b136ea224fe,,,,,,,,,488,93.60001284,32.79999511,1,0,0,response1disk,,6,15.20001167,7.199970314,1,0,0,rectangle,15.20001167,7.199970314,1,0,0,,,,,,,15.20001167,7.199970314,1,0,0,,1,7,167,118,1,
,,,,,,,,,,,,,FF,,,,,,,,0.283,,,,,,,,,,,,,,,,,,,,,,5b2464337297750001c6ce7a,61036cf11a963688c0485a5b,2021-07-29_20h08.39.514,Simcolourproject_2stim_asymm_v5,2020.2.10,Win32,60,61025ae37ef11b136ea224fe,,,,,,,,,320,106.400013,41.59997083,1,0,0,response1disk,,6,2.40001148,1.59997023,1,0,0,rectangle,2.40001148,1.59997023,1,0,0,,,,,,,2.40001148,1.59997023,1,0,0,,1,8,168,44,1,
,,,,,,,,,,,,,FF,,,,,,,,0.2998,,,,,,,,,,,,,,,,,,,,,,5b2464337297750001c6ce7a,61036cf11a963688c0485a5b,2021-07-29_20h08.39.514,Simcolourproject_2stim_asymm_v5,2020.2.10,Win32,60,61025ae37ef11b136ea224fe,,,,,,,,,2348,95.20001286,31.9999951,1,0,0,response1disk,,6,-3.999988616,-0.800029805,1,0,0,rectangle,-3.999988616,-0.800029805,1,0,0,,,,,,,-3.999988616,-0.800029805,1,0,0,,1,9,169,16,1,
,,,,,,,,,,,,,FF,,,,,,,,0.3001,,,,,,,,,,,,,,,,,,,,,,5b2464337297750001c6ce7a,61036cf11a963688c0485a5b,2021-07-29_20h08.39.514,Simcolourproject_2stim_asymm_v5,2020.2.10,Win32,60,61025ae37ef11b136ea224fe,,,,,,,,,2751,80.00001264,33.59997071,1,0,0,response1disk,,6,-12.79998875,-5.37932E-06,1,0,0,rectangle,-12.79998875,-5.37932E-06,1,0,0,,,,,,,-12.79998875,-5.37932E-06,1,0,0,,1,10,170,107,1,
,,,,,,,,,,,,,FF,,,,,,,,0.3501,,,,,,,,,,,,,,,,,,,,,,5b2464337297750001c6ce7a,61036cf11a963688c0485a5b,2021-07-29_20h08.39.514,Simcolourproject_2stim_asymm_v5,2020.2.10,Win32,60,61025ae37ef11b136ea224fe,,,,,,,,,3070,64.80001241,23.99999498,1,0,0,response1disk,,6,0.800011456,0.799994633,1,0,0,rectangle,0.800011456,0.799994633,1,0,0,,,,,,,0.800011456,0.799994633,1,0,0,,1,11,171,84,1,
,,,,,,,,,,,,,FF,,,,,,,,0.6832,,,,,,,,,,,,,,,,,,,,,,5b2464337297750001c6ce7a,61036cf11a963688c0485a5b,2021-07-29_20h08.39.514,Simcolourproject_2stim_asymm_v5,2020.2.10,Win32,60,61025ae37ef11b136ea224fe,,,,,,,,,1294,-106.3999413,-44.80003046,1,0,0,response5disk,,2,-10.39993988,-9.600005522,1,0,0,rectangle,-10.39993988,-9.600005522,1,0,0,,,,,,,-10.39993988,-9.600005522,1,0,0,,1,12,172,48,1,
,,,,,,,,,,,,,FF,,,,,,,,0.2829,,,,,,,,,,,,,,,,,,,,,,5b2464337297750001c6ce7a,61036cf11a963688c0485a5b,2021-07-29_20h08.39.514,Simcolourproject_2stim_asymm_v5,2020.2.10,Win32,60,61025ae37ef11b136ea224fe,,,,,,,,,1473,97.6000129,48.79999535,1,0,0,response1disk,,6,12.00001162,2.399994656,1,0,0,rectangle,12.00001162,2.399994656,1,0,0,,,,,,,12.00001162,2.399994656,1,0,0,,1,13,173,8,1,
,,,,,,,,,,,,,FF,,,,,,,,0.2663,,,,,,,,,,,,,,,,,,,,,,5b2464337297750001c6ce7a,61036cf11a963688c0485a5b,2021-07-29_20h08.39.514,Simcolourproject_2stim_asymm_v5,2020.2.10,Win32,60,61025ae37ef11b136ea224fe,,,,,,,,,3702,108.0000131,37.59997077,1,0,0,response1disk,,6,20.00001174,6.399994716,1,0,0,rectangle,20.00001174,6.399994716,1,0,0,,,,,,,20.00001174,6.399994716,1,0,0,,1,14,174,26,1,
,,,,,,,,,,,,,FF,,,,,,,,0.6497,,,,,,,,,,,,,,,,,,,,,,5b2464337297750001c6ce7a,61036cf11a963688c0485a5b,2021-07-29_20h08.39.514,Simcolourproject_2stim_asymm_v5,2020.2.10,Win32,60,61025ae37ef11b136ea224fe,,,,,,,,,2831,-43.1999892,67.99999563,1,0,0,response7disk,,0,1.600060296,-0.800029805,1,0,0,rectangle,-96.79999,-49.60000612,1,0,0,response5disk_3,TRUE,2,2,"[75,297,225,176,150,178,194,149,157,156,166,243,78,243,11,253,236,42,1,207]",1.3157,-21.59998888,-5.600005463,1,0,0,rectangle,1,15,175,0,1,
,,,,,,,,,,,,,FF,,,,,,,,0.3498,,,,,,,,,,,,,,,,,,,,,,5b2464337297750001c6ce7a,61036cf11a963688c0485a5b,2021-07-29_20h08.39.514,Simcolourproject_2stim_asymm_v5,2020.2.10,Win32,60,61025ae37ef11b136ea224fe,,,,,,,,,352,99.20001292,56.79999547,1,0,0,response1disk,,6,-15.99998879,-3.200005427,1,0,0,rectangle,-15.99998879,-3.200005427,1,0,0,,,,,,,-15.99998879,-3.200005427,1,0,0,,1,16,176,83,1,
,,,,,,,,,,,,,FF,,,,,,,,0.2832,,,,,,,,,,,,,,,,,,,,,,5b2464337297750001c6ce7a,61036cf11a963688c0485a5b,2021-07-29_20h08.39.514,Simcolourproject_2stim_asymm_v5,2020.2.10,Win32,60,61025ae37ef11b136ea224fe,,,,,,,,,396,113.6000131,38.39999519,1,0,0,response1disk,,6,-19.99998885,-9.600005522,1,0,0,rectangle,-100.7999901,-48.80000611,1,0,0,response5disk_3,TRUE,2,2,"[75,297,225,176,150,178,194,149,157,156,166,243,78,243,11,253,236,42,1,207]",1.1327,-12.79998875,3.99999468,1,0,0,rectangle,1,17,177,155,1,
,,,,,,,,,,,,,FF,,,,,,,,0.3832,,,,,,,,,,,,,,,,,,,,,,5b2464337297750001c6ce7a,61036cf11a963688c0485a5b,2021-07-29_20h08.39.514,Simcolourproject_2stim_asymm_v5,2020.2.10,Win32,60,61025ae37ef11b136ea224fe,,,,,,,,,1340,69.60001248,37.59997077,1,0,0,response1disk,,6,1.600060296,2.399994656,1,0,0,rectangle,1.600060296,2.399994656,1,0,0,,,,,,,1.600060296,2.399994656,1,0,0,,1,18,178,119,1,
,,,,,,,,,,,,,FF,,,,,,,,0.3162,,,,,,,,,,,,,,,,,,,,,,5b2464337297750001c6ce7a,61036cf11a963688c0485a5b,2021-07-29_20h08.39.514,Simcolourproject_2stim_asymm_v5,2020.2.10,Win32,60,61025ae37ef11b136ea224fe,,,,,,,,,1972,95.20001286,43.99999528,1,0,0,response1disk,,6,-1.59998858,-1.600005403,1,0,0,rectangle,-1.59998858,-1.600005403,1,0,0,,,,,,,-1.59998858,-1.600005403,1,0,0,,1,19,179,46,1,
,,,,,,,,,,,,,FF,,,,,,,,0.3827,,,,,,,,,,,,,,,,,,,,,,5b2464337297750001c6ce7a,61036cf11a963688c0485a5b,2021-07-29_20h08.39.514,Simcolourproject_2stim_asymm_v5,2020.2.10,Win32,60,61025ae37ef11b136ea224fe,,,,,,,,,3459,83.20001268,35.19997073,1,0,0,response1disk,,6,8.800011575,-0.800029805,1,0,0,rectangle,8.800011575,-0.800029805,1,0,0,,,,,,,8.800011575,-0.800029805,1,0,0,,1,20,180,86,1,
,,,,,,,,,,,,,FF,,,,,,,,0.6828,,,,,,,,,,,,,,,,,,,,,,5b2464337297750001c6ce7a,61036cf11a963688c0485a5b,2021-07-29_20h08.39.514,Simcolourproject_2stim_asymm_v5,2020.2.10,Win32,60,61025ae37ef11b136ea224fe,,,,,,,,,1211,-21.59998888,63.19997115,1,0,0,response7disk,,0,-13.59998876,-6.400029889,1,0,0,rectangle,-13.59998876,-6.400029889,1,0,0,,,,,,,-13.59998876,-6.400029889,1,0,0,,1,21,181,85,1,
,,,,,,,,,,,,,FF,,,,,,,,0.4832,,,,,,,,,,,,,,,,,,,,,,5b2464337297750001c6ce7a,61036cf11a963688c0485a5b,2021-07-29_20h08.39.514,Simcolourproject_2stim_asymm_v5,2020.2.10,Win32,60,61025ae37ef11b136ea224fe,,,,,,,,,1216,93.60001284,30.39999507,1,0,0,response1disk,,6,9.600060415,-3.200005427,1,0,0,rectangle,9.600060415,-3.200005427,1,0,0,,,,,,,9.600060415,-3.200005427,1,0,0,,1,22,182,18,1,
,,,,,,,,,,,,,FF,,,,,,,,0.2831,,,,,,,,,,,,,,,,,,,,,,5b2464337297750001c6ce7a,61036cf11a963688c0485a5b,2021-07-29_20h08.39.514,Simcolourproject_2stim_asymm_v5,2020.2.10,Win32,60,61025ae37ef11b136ea224fe,,,,,,,,,3083,124.8000133,53.59997101,1,0,0,response1disk,,6,-3.999988616,-7.200005487,1,0,0,rectangle,-3.999988616,-7.200005487,1,0,0,,,,,,,-3.999988616,-7.200005487,1,0,0,,1,23,183,115,1,
,,,,,,,,,,,,,FF,,,,,,,,0.2663,,,,,,,,,,,,,,,,,,,,,,5b2464337297750001c6ce7a,61036cf11a963688c0485a5b,2021-07-29_20h08.39.514,Simcolourproject_2stim_asymm_v5,2020.2.10,Win32,60,61025ae37ef11b136ea224fe,,,,,,,,,2811,112.0000131,34.39999513,1,0,0,response1disk,,6,-12.79998875,0.799994633,1,0,0,rectangle,-12.79998875,0.799994633,1,0,0,,,,,,,-12.79998875,0.799994633,1,0,0,,1,24,184,138,1,
,,,,,,,,,,,,,FF,,,,,,,,0.3499,,,,,,,,,,,,,,,,,,,,,,5b2464337297750001c6ce7a,61036cf11a963688c0485a5b,2021-07-29_20h08.39.514,Simcolourproject_2stim_asymm_v5,2020.2.10,Win32,60,61025ae37ef11b136ea224fe,,,,,,,,,2009,107.200013,33.59997071,1,0,0,response1disk,,6,21.60006059,7.99999474,1,0,0,rectangle,21.60006059,7.99999474,1,0,0,,,,,,,21.60006059,7.99999474,1,0,0,,1,25,185,35,1,
,,,,,,,,,,,,,FF,,,,,,,,0.3663,,,,,,,,,,,,,,,,,,,,,,5b2464337297750001c6ce7a,61036cf11a963688c0485a5b,2021-07-29_20h08.39.514,Simcolourproject_2stim_asymm_v5,2020.2.10,Win32,60,61025ae37ef11b136ea224fe,,,,,,,,,3192,104.800013,38.39999519,1,0,0,response1disk,,6,-10.39993988,-8.000005499,1,0,0,rectangle,-10.39993988,-8.000005499,1,0,0,,,,,,,-10.39993988,-8.000005499,1,0,0,,1,26,186,28,1,
,,,,,,,,,,,,,FF,,,,,,,,0.3496,,,,,,,,,,,,,,,,,,,,,,5b2464337297750001c6ce7a,61036cf11a963688c0485a5b,2021-07-29_20h08.39.514,Simcolourproject_2stim_asymm_v5,2020.2.10,Win32,60,61025ae37ef11b136ea224fe,,,,,,,,,489,86.40001273,23.19997055,1,0,0,response1disk,,6,13.60006047,-5.600005463,1,0,0,rectangle,13.60006047,-5.600005463,1,0,0,,,,,,,13.60006047,-5.600005463,1,0,0,,1,27,187,120,1,
,,,,,,,,,,,,,FF,,,,,,,,0.3831,,,,,,,,,,,,,,,,,,,,,,5b2464337297750001c6ce7a,61036cf11a963688c0485a5b,2021-07-29_20h08.39.514,Simcolourproject_2stim_asymm_v5,2020.2.10,Win32,60,61025ae37ef11b136ea224fe,,,,,,,,,1928,88.80001277,31.19997067,1,0,0,response1disk,,6,-2.399939764,-5.37932E-06,1,0,0,rectangle,-2.399939764,-5.37932E-06,1,0,0,,,,,,,-2.399939764,-5.37932E-06,1,0,0,,1,28,188,75,1,
,,,,,,,,,,,,,FF,,,,,,,,0.3496,,,,,,,,,,,,,,,,,,,,,,5b2464337297750001c6ce7a,61036cf11a963688c0485a5b,2021-07-29_20h08.39.514,Simcolourproject_2stim_asymm_v5,2020.2.10,Win32,60,61025ae37ef11b136ea224fe,,,,,,,,,843,82.40001267,35.19997073,1,0,0,response1disk,,6,4.800011516,8.799994752,1,0,0,rectangle,4.800011516,8.799994752,1,0,0,,,,,,,4.800011516,8.799994752,1,0,0,,1,29,189,126,1,
,,,,,,,,,,,,,FF,,,,,,,,0.3499,,,,,,,,,,,,,,,,,,,,,,5b2464337297750001c6ce7a,61036cf11a963688c0485a5b,2021-07-29_20h08.39.514,Simcolourproject_2stim_asymm_v5,2020.2.10,Win32,60,61025ae37ef11b136ea224fe,,,,,,,,,1353,116.0000132,37.59997077,1,0,0,response1disk,,6,-11.99998873,-2.400029829,1,0,0,rectangle,-11.99998873,-2.400029829,1,0,0,,,,,,,-11.99998873,-2.400029829,1,0,0,,1,30,190,29,1,
,,,,,,,,,,,,,FF,,,,,,,,0.2498,,,,,,,,,,,,,,,,,,,,,,5b2464337297750001c6ce7a,61036cf11a963688c0485a5b,2021-07-29_20h08.39.514,Simcolourproject_2stim_asymm_v5,2020.2.10,Win32,60,61025ae37ef11b136ea224fe,,,,,,,,,1094,98.40001291,32.79999511,1,0,0,response1disk,,6,-5.599988639,-5.600005463,1,0,0,rectangle,-5.599988639,-5.600005463,1,0,0,,,,,,,-5.599988639,-5.600005463,1,0,0,,1,31,191,149,1,
,,,,,,,,,,,,,FF,,,,,,,,0.2998,,,,,,,,,,,,,,,,,,,,,,5b2464337297750001c6ce7a,61036cf11a963688c0485a5b,2021-07-29_20h08.39.514,Simcolourproject_2stim_asymm_v5,2020.2.10,Win32,60,61025ae37ef11b136ea224fe,,,,,,,,,2835,77.6000126,34.39999513,1,0,0,response1disk,,6,3.200011492,7.99999474,1,0,0,rectangle,3.200011492,7.99999474,1,0,0,,,,,,,3.200011492,7.99999474,1,0,0,,1,32,192,134,1,
,,,,,,,,,,,,,FF,,,,,,,,0.2996,,,,,,,,,,,,,,,,,,,,,,5b2464337297750001c6ce7a,61036cf11a963688c0485a5b,2021-07-29_20h08.39.514,Simcolourproject_2stim_asymm_v5,2020.2.10,Win32,60,61025ae37ef11b136ea224fe,,,,,,,,,3822,97.6000129,44.79999529,1,0,0,response1disk,,6,-7.999988675,-4.000005439,1,0,0,rectangle,-43.99998921,82.39999585,1,0,0,response7disk_3,TRUE,0,0,"[75,297,225,176,150,178,194,149,157,156,166,243,78,243,11,253,236,42,1,207]",1.2994,-15.19998878,3.99999468,1,0,0,rectangle,1,33,193,76,1,
,,,,,,,,,,,,,FF,,,,,,,,1.0162,,,,,,,,,,,,,,,,,,,,,,5b2464337297750001c6ce7a,61036cf11a963688c0485a5b,2021-07-29_20h08.39.514,Simcolourproject_2stim_asymm_v5,2020.2.10,Win32,60,61025ae37ef11b136ea224fe,,,,,,,,,3674,85.60001272,33.59997071,1,0,0,response1disk,,6,-20.79998887,-8.000005499,1,0,0,rectangle,-20.79998887,-8.000005499,1,0,0,,,,,,,-20.79998887,-8.000005499,1,0,0,,1,34,194,10,1,
,,,,,,,,,,,,,FF,,,,,,,,1.1157,,,,,,,,,,,,,,,,,,,,,,5b2464337297750001c6ce7a,61036cf11a963688c0485a5b,2021-07-29_20h08.39.514,Simcolourproject_2stim_asymm_v5,2020.2.10,Win32,60,61025ae37ef11b136ea224fe,,,,,,,,,164,95.20001286,40.79999523,1,0,0,response1disk,,6,12.80001163,-0.800029805,1,0,0,rectangle,12.80001163,-0.800029805,1,0,0,,,,,,,12.80001163,-0.800029805,1,0,0,,1,35,195,39,1,
,,,,,,,,,,,,,FF,,,,,,,,0.3333,,,,,,,,,,,,,,,,,,,,,,5b2464337297750001c6ce7a,61036cf11a963688c0485a5b,2021-07-29_20h08.39.514,Simcolourproject_2stim_asymm_v5,2020.2.10,Win32,60,61025ae37ef11b136ea224fe,,,,,,,,,2922,111.2000131,41.59997083,1,0,0,response1disk,,6,-8.799988687,-6.400029889,1,0,0,rectangle,-8.799988687,-6.400029889,1,0,0,,,,,,,-8.799988687,-6.400029889,1,0,0,,1,36,196,14,1,
,,,,,,,,,,,,,FF,,,,,,,,0.3495,,,,,,,,,,,,,,,,,,,,,,5b2464337297750001c6ce7a,61036cf11a963688c0485a5b,2021-07-29_20h08.39.514,Simcolourproject_2stim_asymm_v5,2020.2.10,Win32,60,61025ae37ef11b136ea224fe,,,,,,,,,3162,92.00001281,42.39999525,1,0,0,response1disk,,6,-5.599988639,-0.800029805,1,0,0,rectangle,-5.599988639,-0.800029805,1,0,0,,,,,,,-5.599988639,-0.800029805,1,0,0,,1,37,197,121,1,
,,,,,,,,,,,,,FF,,,,,,,,0.3331,,,,,,,,,,,,,,,,,,,,,,5b2464337297750001c6ce7a,61036cf11a963688c0485a5b,2021-07-29_20h08.39.514,Simcolourproject_2stim_asymm_v5,2020.2.10,Win32,60,61025ae37ef11b136ea224fe,,,,,,,,,3856,96.00001287,41.59997083,1,0,0,response1disk,,6,-3.999988616,3.199970254,1,0,0,rectangle,-3.999988616,3.199970254,1,0,0,,,,,,,-3.999988616,3.199970254,1,0,0,,1,38,198,88,1,
,,,,,,,,,,,,,FF,,,,,,,,0.3163,,,,,,,,,,,,,,,,,,,,,,5b2464337297750001c6ce7a,61036cf11a963688c0485a5b,2021-07-29_20h08.39.514,Simcolourproject_2stim_asymm_v5,2020.2.10,Win32,60,61025ae37ef11b136ea224fe,,,,,,,,,3842,89.60001278,44.79999529,1,0,0,response1disk,,6,6.400011539,6.399994716,1,0,0,rectangle,6.400011539,6.399994716,1,0,0,,,,,,,6.400011539,6.399994716,1,0,0,,1,39,199,22,1,
,,,,,,,,,,,,,FF,,,,,,,,0.4329,,,,,,,,,,,,,,,,,,,,,,5b2464337297750001c6ce7a,61036cf11a963688c0485a5b,2021-07-29_20h08.39.514,Simcolourproject_2stim_asymm_v5,2020.2.10,Win32,60,61025ae37ef11b136ea224fe,,,,,,,,,2507,76.80001259,33.59997071,1,0,0,response1disk,,6,-1.59998858,-2.400029829,1,0,0,rectangle,-1.59998858,-2.400029829,1,0,0,,,,,,,-1.59998858,-2.400029829,1,0,0,,1,40,200,53,1,
,,,,,,,,,,,,,FF,,,,,,,,0.2832,,,,,,,,,,,,,,,,,,,,,,5b2464337297750001c6ce7a,61036cf11a963688c0485a5b,2021-07-29_20h08.39.514,Simcolourproject_2stim_asymm_v5,2020.2.10,Win32,60,61025ae37ef11b136ea224fe,,,,,,,,,332,80.80001265,47.99999534,1,0,0,response1disk,,6,7.200011551,9.59997035,1,0,0,rectangle,7.200011551,9.59997035,1,0,0,,,,,,,7.200011551,9.59997035,1,0,0,,1,41,201,147,1,
,,,,,,,,,,,,,FF,,,,,,,,0.6493,,,,,,,,,,,,,,,,,,,,,,5b2464337297750001c6ce7a,61036cf11a963688c0485a5b,2021-07-29_20h08.39.514,Simcolourproject_2stim_asymm_v5,2020.2.10,Win32,60,61025ae37ef11b136ea224fe,,,,,,,,,1820,96.00001287,51.9999954,1,0,0,response1disk,,6,-15.19998878,-2.400029829,1,0,0,rectangle,-15.19998878,-2.400029829,1,0,0,,,,,,,-15.19998878,-2.400029829,1,0,0,,1,42,202,42,1,
,,,,,,,,,,,,,FF,,,,,,,,0.2664,,,,,,,,,,,,,,,,,,,,,,5b2464337297750001c6ce7a,61036cf11a963688c0485a5b,2021-07-29_20h08.39.514,Simcolourproject_2stim_asymm_v5,2020.2.10,Win32,60,61025ae37ef11b136ea224fe,,,,,,,,,2800,121.6000133,39.99999522,1,0,0,response1disk,,6,-0.799988568,-0.800029805,1,0,0,rectangle,-0.799988568,-0.800029805,1,0,0,,,,,,,-0.799988568,-0.800029805,1,0,0,,1,43,203,79,1,
,,,,,,,,,,,,,FF,,,,,,,,0.2667,,,,,,,,,,,,,,,,,,,,,,5b2464337297750001c6ce7a,61036cf11a963688c0485a5b,2021-07-29_20h08.39.514,Simcolourproject_2stim_asymm_v5,2020.2.10,Win32,60,61025ae37ef11b136ea224fe,,,,,,,,,2498,108.0000131,49.59997095,1,0,0,response1disk,,6,20.80001175,7.199970314,1,0,0,rectangle,20.80001175,7.199970314,1,0,0,,,,,,,20.80001175,7.199970314,1,0,0,,1,44,204,65,1,
,,,,,,,,,,,,,FF,,,,,,,,0.2664,,,,,,,,,,,,,,,,,,,,,,5b2464337297750001c6ce7a,61036cf11a963688c0485a5b,2021-07-29_20h08.39.514,Simcolourproject_2stim_asymm_v5,2020.2.10,Win32,60,61025ae37ef11b136ea224fe,,,,,,,,,4269,89.60001278,47.19997091,1,0,0,response1disk,,6,-17.59998882,-1.600005403,1,0,0,rectangle,-17.59998882,-1.600005403,1,0,0,,,,,,,-17.59998882,-1.600005403,1,0,0,,1,45,205,125,1,
,,,,,,,,,,,,,FF,,,,,,,,0.3998,,,,,,,,,,,,,,,,,,,,,,5b2464337297750001c6ce7a,61036cf11a963688c0485a5b,2021-07-29_20h08.39.514,Simcolourproject_2stim_asymm_v5,2020.2.10,Win32,60,61025ae37ef11b136ea224fe,,,,,,,,,2925,71.20001251,31.19997067,1,0,0,response1disk,,6,15.20001167,-5.37932E-06,1,0,0,rectangle,-119.1999903,41.59997083,1,0,0,response7disk_3,TRUE,1,1,"[75,297,225,176,150,178,194,149,157,156,166,243,78,243,11,253,236,42,1,207]",1.399,1.600060296,-2.400029829,1,0,0,rectangle,1,46,206,73,1,
,,,,,,,,,,,,,FF,,,,,,,,0.6829,,,,,,,,,,,,,,,,,,,,,,5b2464337297750001c6ce7a,61036cf11a963688c0485a5b,2021-07-29_20h08.39.514,Simcolourproject_2stim_asymm_v5,2020.2.10,Win32,60,61025ae37ef11b136ea224fe,,,,,,,,,2327,84.80001271,40.79999523,1,0,0,response1disk,,6,-17.59998882,-9.600005522,1,0,0,rectangle,-17.59998882,-9.600005522,1,0,0,,,,,,,-17.59998882,-9.600005522,1,0,0,,1,47,207,3,1,
,,,,,,,,,,,,,FF,,,,,,,,0.5495,,,,,,,,,,,,,,,,,,,,,,5b2464337297750001c6ce7a,61036cf11a963688c0485a5b,2021-07-29_20h08.39.514,Simcolourproject_2stim_asymm_v5,2020.2.10,Win32,60,61025ae37ef11b136ea224fe,,,,,,,,,878,92.80001283,41.59997083,1,0,0,response1disk,,6,2.40001148,3.199970254,1,0,0,rectangle,2.40001148,3.199970254,1,0,0,,,,,,,2.40001148,3.199970254,1,0,0,,1,48,208,94,1,
,,,,,,,,,,,,,FF,,,,,,,,0.6495,,,,,,,,,,,,,,,,,,,,,,5b2464337297750001c6ce7a,61036cf11a963688c0485a5b,2021-07-29_20h08.39.514,Simcolourproject_2stim_asymm_v5,2020.2.10,Win32,60,61025ae37ef11b136ea224fe,,,,,,,,,3331,104.800013,42.39999525,1,0,0,response1disk,,6,30.4000119,-5.37932E-06,1,0,0,rectangle,30.4000119,-5.37932E-06,1,0,0,,,,,,,30.4000119,-5.37932E-06,1,0,0,,1,49,209,93,1,
,,,,,,,,,,,,,FF,,,,,,,,0.3999,,,,,,,,,,,,,,,,,,,,,,5b2464337297750001c6ce7a,61036cf11a963688c0485a5b,2021-07-29_20h08.39.514,Simcolourproject_2stim_asymm_v5,2020.2.10,Win32,60,61025ae37ef11b136ea224fe,,,,,,,,,629,97.6000129,32.79999511,1,0,0,response1disk,,6,12.00001162,-3.200005427,1,0,0,rectangle,12.00001162,-3.200005427,1,0,0,,,,,,,12.00001162,-3.200005427,1,0,0,,1,50,210,156,1,
,,,,,,,,,,,,,FF,,,,,,,,0.3829,,,,,,,,,,,,,,,,,,,,,,5b2464337297750001c6ce7a,61036cf11a963688c0485a5b,2021-07-29_20h08.39.514,Simcolourproject_2stim_asymm_v5,2020.2.10,Win32,60,61025ae37ef11b136ea224fe,,,,,,,,,1663,111.2000131,37.59997077,1,0,0,response1disk,,6,1.600060296,11.19997037,1,0,0,rectangle,1.600060296,11.19997037,1,0,0,,,,,,,1.600060296,11.19997037,1,0,0,,1,51,211,21,1,
,,,,,,,,,,,,,FF,,,,,,,,0.7829,,,,,,,,,,,,,,,,,,,,,,5b2464337297750001c6ce7a,61036cf11a963688c0485a5b,2021-07-29_20h08.39.514,Simcolourproject_2stim_asymm_v5,2020.2.10,Win32,60,61025ae37ef11b136ea224fe,,,,,,,,,3735,84.80001271,45.59997089,1,0,0,response1disk,,6,-12.79998875,4.799994692,1,0,0,rectangle,-12.79998875,4.799994692,1,0,0,,,,,,,-12.79998875,4.799994692,1,0,0,,1,52,212,69,1,
,,,,,,,,,,,,,FF,,,,,,,,0.3165,,,,,,,,,,,,,,,,,,,,,,5b2464337297750001c6ce7a,61036cf11a963688c0485a5b,2021-07-29_20h08.39.514,Simcolourproject_2stim_asymm_v5,2020.2.10,Win32,60,61025ae37ef11b136ea224fe,,,,,,,,,3236,97.6000129,40.79999523,1,0,0,response1disk,,6,6.400011539,6.399994716,1,0,0,rectangle,6.400011539,6.399994716,1,0,0,,,,,,,6.400011539,6.399994716,1,0,0,,1,53,213,71,1,
,,,,,,,,,,,,,FF,,,,,,,,0.6498,,,,,,,,,,,,,,,,,,,,,,5b2464337297750001c6ce7a,61036cf11a963688c0485a5b,2021-07-29_20h08.39.514,Simcolourproject_2stim_asymm_v5,2020.2.10,Win32,60,61025ae37ef11b136ea224fe,,,,,,,,,3373,93.60001284,35.99999516,1,0,0,response1disk,,6,35.20001197,3.99999468,1,0,0,rectangle,35.20001197,3.99999468,1,0,0,,,,,,,35.20001197,3.99999468,1,0,0,,1,54,214,92,1,
,,,,,,,,,,,,,FF,,,,,,,,0.3162,,,,,,,,,,,,,,,,,,,,,,5b2464337297750001c6ce7a,61036cf11a963688c0485a5b,2021-07-29_20h08.39.514,Simcolourproject_2stim_asymm_v5,2020.2.10,Win32,60,61025ae37ef11b136ea224fe,,,,,,,,,2384,117.6000132,36.79999517,1,0,0,response1disk,,6,-19.19998884,-6.400029889,1,0,0,rectangle,-19.19998884,-6.400029889,1,0,0,,,,,,,-19.19998884,-6.400029889,1,0,0,,1,55,215,23,1,
,,,,,,,,,,,,,FF,,,,,,,,0.7494,,,,,,,,,,,,,,,,,,,,,,5b2464337297750001c6ce7a,61036cf11a963688c0485a5b,2021-07-29_20h08.39.514,Simcolourproject_2stim_asymm_v5,2020.2.10,Win32,60,61025ae37ef11b136ea224fe,,,,,,,,,2480,-57.59998941,88.79999594,1,0,0,response7disk,,0,-23.99998891,5.59997029,1,0,0,rectangle,-23.99998891,5.59997029,1,0,0,,,,,,,-23.99998891,5.59997029,1,0,0,,1,56,216,144,1,
,,,,,,,,,,,,,FF,,,,,,,,0.0833,,,,,,,,,,,,,,,,,,,,,,5b2464337297750001c6ce7a,61036cf11a963688c0485a5b,2021-07-29_20h08.39.514,Simcolourproject_2stim_asymm_v5,2020.2.10,Win32,60,61025ae37ef11b136ea224fe,,,,,,,,,2753,119.2000132,33.59997071,1,0,0,response1disk,,6,-7.999988675,11.19997037,1,0,0,rectangle,-7.999988675,11.19997037,1,0,0,,,,,,,-7.999988675,11.19997037,1,0,0,,1,57,217,74,1,
,,,,,,,,,,,,,FF,,,,,,,,0.3332,,,,,,,,,,,,,,,,,,,,,,5b2464337297750001c6ce7a,61036cf11a963688c0485a5b,2021-07-29_20h08.39.514,Simcolourproject_2stim_asymm_v5,2020.2.10,Win32,60,61025ae37ef11b136ea224fe,,,,,,,,,1077,88.80001277,31.19997067,1,0,0,response1disk,,6,-21.59998888,-1.600005403,1,0,0,rectangle,-21.59998888,-1.600005403,1,0,0,,,,,,,-21.59998888,-1.600005403,1,0,0,,1,58,218,19,1,
,,,,,,,,,,,,,FF,,,,,,,,0.3502,,,,,,,,,,,,,,,,,,,,,,5b2464337297750001c6ce7a,61036cf11a963688c0485a5b,2021-07-29_20h08.39.514,Simcolourproject_2stim_asymm_v5,2020.2.10,Win32,60,61025ae37ef11b136ea224fe,,,,,,,,,3575,79.20001262,43.99999528,1,0,0,response1disk,,6,-10.39993988,-4.800029865,1,0,0,rectangle,-10.39993988,-4.800029865,1,0,0,,,,,,,-10.39993988,-4.800029865,1,0,0,,1,59,219,133,1,
,,,,,,,,,,,,,FF,,,,,,,,0.333,,,,,,,,,,,,,,,,,,,,,,5b2464337297750001c6ce7a,61036cf11a963688c0485a5b,2021-07-29_20h08.39.514,Simcolourproject_2stim_asymm_v5,2020.2.10,Win32,60,61025ae37ef11b136ea224fe,,,,,,,,,3522,84.0000127,27.99999504,1,0,0,response1disk,,6,-13.59998876,-11.20000555,1,0,0,rectangle,-13.59998876,-11.20000555,1,0,0,,,,,,,-13.59998876,-11.20000555,1,0,0,,1,60,220,150,1,
,,,,,,,,,,,,,FF,,,,,,,,0.4164,,,,,,,,,,,,,,,,,,,,,,5b2464337297750001c6ce7a,61036cf11a963688c0485a5b,2021-07-29_20h08.39.514,Simcolourproject_2stim_asymm_v5,2020.2.10,Win32,60,61025ae37ef11b136ea224fe,,,,,,,,,551,122.4000133,39.99999522,1,0,0,response1disk,,6,-3.999988616,-10.40002995,1,0,0,rectangle,-3.999988616,-10.40002995,1,0,0,,,,,,,-3.999988616,-10.40002995,1,0,0,,1,61,221,104,1,
,,,,,,,,,,,,,FF,,,,,,,,0.2165,,,,,,,,,,,,,,,,,,,,,,5b2464337297750001c6ce7a,61036cf11a963688c0485a5b,2021-07-29_20h08.39.514,Simcolourproject_2stim_asymm_v5,2020.2.10,Win32,60,61025ae37ef11b136ea224fe,,,,,,,,,2515,117.6000132,39.99999522,1,0,0,response1disk,,6,-30.39994018,-9.600005522,1,0,0,rectangle,-30.39994018,-9.600005522,1,0,0,,,,,,,-30.39994018,-9.600005522,1,0,0,,1,62,222,131,1,
,,,,,,,,,,,,,FF,,,,,,,,0.3662,,,,,,,,,,,,,,,,,,,,,,5b2464337297750001c6ce7a,61036cf11a963688c0485a5b,2021-07-29_20h08.39.514,Simcolourproject_2stim_asymm_v5,2020.2.10,Win32,60,61025ae37ef11b136ea224fe,,,,,,,,,1008,85.60001272,33.59997071,1,0,0,response1disk,,6,-1.59998858,1.59997023,1,0,0,rectangle,-1.59998858,1.59997023,1,0,0,,,,,,,-1.59998858,1.59997023,1,0,0,,1,63,223,98,1,
,,,,,,,,,,,,,FF,,,,,,,,0.2843,,,,,,,,,,,,,,,,,,,,,,5b2464337297750001c6ce7a,61036cf11a963688c0485a5b,2021-07-29_20h08.39.514,Simcolourproject_2stim_asymm_v5,2020.2.10,Win32,60,61025ae37ef11b136ea224fe,,,,,,,,,3311,108.0000131,40.79999523,1,0,0,response1disk,,6,-19.19998884,-8.000005499,1,0,0,rectangle,41.60006089,-98.40000685,1,0,0,response3disk_3,TRUE,4,4,"[75,297,225,176,150,178,194,149,157,156,166,243,78,243,11,253,236,42,1,207]",1.1494,6.400011539,-3.200005427,1,0,0,rectangle,1,64,224,32,1,
,,,,,,,,,,,,,FF,,,,,,,,0.5331,,,,,,,,,,,,,,,,,,,,,,5b2464337297750001c6ce7a,61036cf11a963688c0485a5b,2021-07-29_20h08.39.514,Simcolourproject_2stim_asymm_v5,2020.2.10,Win32,60,61025ae37ef11b136ea224fe,,,,,,,,,4029,54.40001225,23.99999498,1,0,0,response1disk,,6,4.000011504,-1.600005403,1,0,0,rectangle,4.000011504,-1.600005403,1,0,0,,,,,,,4.000011504,-1.600005403,1,0,0,,1,65,225,7,1,
,,,,,,,,,,,,,FF,,,,,,,,0.3332,,,,,,,,,,,,,,,,,,,,,,5b2464337297750001c6ce7a,61036cf11a963688c0485a5b,2021-07-29_20h08.39.514,Simcolourproject_2stim_asymm_v5,2020.2.10,Win32,60,61025ae37ef11b136ea224fe,,,,,,,,,528,100.8000129,47.19997091,1,0,0,response1disk,,6,-1.59998858,1.59997023,1,0,0,rectangle,-1.59998858,1.59997023,1,0,0,,,,,,,-1.59998858,1.59997023,1,0,0,,1,66,226,130,1,
,,,,,,,,,,,,,FF,,,,,,,,0.3495,,,,,,,,,,,,,,,,,,,,,,5b2464337297750001c6ce7a,61036cf11a963688c0485a5b,2021-07-29_20h08.39.514,Simcolourproject_2stim_asymm_v5,2020.2.10,Win32,60,61025ae37ef11b136ea224fe,,,,,,,,,2054,88.00001276,39.99999522,1,0,0,response1disk,,6,5.600060356,8.799994752,1,0,0,rectangle,5.600060356,8.799994752,1,0,0,,,,,,,5.600060356,8.799994752,1,0,0,,1,67,227,1,1,
,,,,,,,,,,,,,FF,,,,,,,,0.3665,,,,,,,,,,,,,,,,,,,,,,5b2464337297750001c6ce7a,61036cf11a963688c0485a5b,2021-07-29_20h08.39.514,Simcolourproject_2stim_asymm_v5,2020.2.10,Win32,60,61025ae37ef11b136ea224fe,,,,,,,,,3079,75.20001256,27.99999504,1,0,0,response1disk,,6,-6.399939823,-1.600005403,1,0,0,rectangle,-6.399939823,-1.600005403,1,0,0,,,,,,,-6.399939823,-1.600005403,1,0,0,,1,68,228,111,1,
,,,,,,,,,,,,,FF,,,,,,,,1.0492,,,,,,,,,,,,,,,,,,,,,,5b2464337297750001c6ce7a,61036cf11a963688c0485a5b,2021-07-29_20h08.39.514,Simcolourproject_2stim_asymm_v5,2020.2.10,Win32,60,61025ae37ef11b136ea224fe,,,,,,,,,4251,-80.79998976,23.19997055,1,0,0,response7disk,,1,-1.59998858,-3.200005427,1,0,0,rectangle,-1.59998858,-3.200005427,1,0,0,,,,,,,-1.59998858,-3.200005427,1,0,0,,1,69,229,89,1,
,,,,,,,,,,,,,FF,,,,,,,,0.6664,,,,,,,,,,,,,,,,,,,,,,5b2464337297750001c6ce7a,61036cf11a963688c0485a5b,2021-07-29_20h08.39.514,Simcolourproject_2stim_asymm_v5,2020.2.10,Win32,60,61025ae37ef11b136ea224fe,,,,,,,,,1126,76.00001258,25.59997059,1,0,0,response1disk,,6,8.800011575,7.199970314,1,0,0,rectangle,8.800011575,7.199970314,1,0,0,,,,,,,8.800011575,7.199970314,1,0,0,,1,70,230,80,1,
,,,,,,,,,,,,,FF,,,,,,,,0.4164,,,,,,,,,,,,,,,,,,,,,,5b2464337297750001c6ce7a,61036cf11a963688c0485a5b,2021-07-29_20h08.39.514,Simcolourproject_2stim_asymm_v5,2020.2.10,Win32,60,61025ae37ef11b136ea224fe,,,,,,,,,4217,72.80001253,41.59997083,1,0,0,response1disk,,6,6.400011539,7.99999474,1,0,0,rectangle,6.400011539,7.99999474,1,0,0,,,,,,,6.400011539,7.99999474,1,0,0,,1,71,231,12,1,
,,,,,,,,,,,,,FF,,,,,,,,0.8335,,,,,,,,,,,,,,,,,,,,,,5b2464337297750001c6ce7a,61036cf11a963688c0485a5b,2021-07-29_20h08.39.514,Simcolourproject_2stim_asymm_v5,2020.2.10,Win32,60,61025ae37ef11b136ea224fe,,,,,,,,,3336,-35.99998909,75.99999575,1,0,0,response7disk,,0,-13.59998876,4.799994692,1,0,0,rectangle,-13.59998876,4.799994692,1,0,0,,,,,,,-13.59998876,4.799994692,1,0,0,,1,72,232,140,1,
,,,,,,,,,,,,,FF,,,,,,,,0.2999,,,,,,,,,,,,,,,,,,,,,,5b2464337297750001c6ce7a,61036cf11a963688c0485a5b,2021-07-29_20h08.39.514,Simcolourproject_2stim_asymm_v5,2020.2.10,Win32,60,61025ae37ef11b136ea224fe,,,,,,,,,963,99.20001292,30.39999507,1,0,0,response1disk,,6,-11.19998872,0.799994633,1,0,0,rectangle,-11.19998872,0.799994633,1,0,0,,,,,,,-11.19998872,0.799994633,1,0,0,,1,73,233,129,1,
,,,,,,,,,,,,,FF,,,,,,,,0.2663,,,,,,,,,,,,,,,,,,,,,,5b2464337297750001c6ce7a,61036cf11a963688c0485a5b,2021-07-29_20h08.39.514,Simcolourproject_2stim_asymm_v5,2020.2.10,Win32,60,61025ae37ef11b136ea224fe,,,,,,,,,3877,79.20001262,37.59997077,1,0,0,response1disk,,6,-4.799988627,5.59997029,1,0,0,rectangle,-4.799988627,5.59997029,1,0,0,,,,,,,-4.799988627,5.59997029,1,0,0,,1,74,234,153,1,
,,,,,,,,,,,,,FF,,,,,,,,0.6167,,,,,,,,,,,,,,,,,,,,,,5b2464337297750001c6ce7a,61036cf11a963688c0485a5b,2021-07-29_20h08.39.514,Simcolourproject_2stim_asymm_v5,2020.2.10,Win32,60,61025ae37ef11b136ea224fe,,,,,,,,,1743,-25.59998894,65.59997118,1,0,0,response7disk,,0,-7.999988675,6.399994716,1,0,0,rectangle,77.6000126,-35.2000059,1,0,0,response3disk_3,TRUE,5,5,"[75,297,225,176,150,178,194,149,157,156,166,243,78,243,11,253,236,42,1,207]",1.4992,-12.79998875,7.99999474,1,0,0,rectangle,1,75,235,135,1,
,,,,,,,,,,,,,FF,,,,,,,,0.5495,,,,,,,,,,,,,,,,,,,,,,5b2464337297750001c6ce7a,61036cf11a963688c0485a5b,2021-07-29_20h08.39.514,Simcolourproject_2stim_asymm_v5,2020.2.10,Win32,60,61025ae37ef11b136ea224fe,,,,,,,,,4298,62.40001237,50.39999537,1,0,0,response1disk,,6,-6.399939823,-5.37932E-06,1,0,0,rectangle,-6.399939823,-5.37932E-06,1,0,0,,,,,,,-6.399939823,-5.37932E-06,1,0,0,,1,76,236,141,1,
,,,,,,,,,,,,,FF,,,,,,,,0.4497,,,,,,,,,,,,,,,,,,,,,,5b2464337297750001c6ce7a,61036cf11a963688c0485a5b,2021-07-29_20h08.39.514,Simcolourproject_2stim_asymm_v5,2020.2.10,Win32,60,61025ae37ef11b136ea224fe,,,,,,,,,2834,84.0000127,35.19997073,1,0,0,response1disk,,6,5.600060356,8.799994752,1,0,0,rectangle,5.600060356,8.799994752,1,0,0,,,,,,,5.600060356,8.799994752,1,0,0,,1,77,237,95,1,
,,,,,,,,,,,,,FF,,,,,,,,0.2495,,,,,,,,,,,,,,,,,,,,,,5b2464337297750001c6ce7a,61036cf11a963688c0485a5b,2021-07-29_20h08.39.514,Simcolourproject_2stim_asymm_v5,2020.2.10,Win32,60,61025ae37ef11b136ea224fe,,,,,,,,,3090,91.2000128,39.99999522,1,0,0,response1disk,,6,-9.599988699,-4.000005439,1,0,0,rectangle,-9.599988699,-4.000005439,1,0,0,,,,,,,-9.599988699,-4.000005439,1,0,0,,1,78,238,96,1,
,,,,,,,,,,,,,FF,,,,,,,,0.2665,,,,,,,,,,,,,,,,,,,,,,5b2464337297750001c6ce7a,61036cf11a963688c0485a5b,2021-07-29_20h08.39.514,Simcolourproject_2stim_asymm_v5,2020.2.10,Win32,60,61025ae37ef11b136ea224fe,,,,,,,,,1029,116.8000132,37.59997077,1,0,0,response1disk,,6,-7.199988663,-0.800029805,1,0,0,rectangle,-7.199988663,-0.800029805,1,0,0,,,,,,,-7.199988663,-0.800029805,1,0,0,,1,79,239,72,1,
,,,,,,,,,,,,,FF,,,,,,,,0.3164,,,,,,,,,,,,,,,,,,,,,,5b2464337297750001c6ce7a,61036cf11a963688c0485a5b,2021-07-29_20h08.39.514,Simcolourproject_2stim_asymm_v5,2020.2.10,Win32,60,61025ae37ef11b136ea224fe,,,,,,,,,4100,108.8000131,35.99999516,1,0,0,response1disk,,6,13.60006047,-2.400029829,1,0,0,rectangle,13.60006047,-2.400029829,1,0,0,,,,,,,13.60006047,-2.400029829,1,0,0,,1,80,240,105,1,
,,,,,,,,,,,,,FF,,,,,,,,0.2332,,,,,,,,,,,,,,,,,,,,,,5b2464337297750001c6ce7a,61036cf11a963688c0485a5b,2021-07-29_20h08.39.514,Simcolourproject_2stim_asymm_v5,2020.2.10,Win32,60,61025ae37ef11b136ea224fe,,,,,,,,,1506,88.80001277,35.19997073,1,0,0,response1disk,,6,-7.999988675,-3.200005427,1,0,0,rectangle,-7.999988675,-3.200005427,1,0,0,,,,,,,-7.999988675,-3.200005427,1,0,0,,1,81,241,63,1,
,,,,,,,,,,,,,FF,,,,,,,,0.3831,,,,,,,,,,,,,,,,,,,,,,5b2464337297750001c6ce7a,61036cf11a963688c0485a5b,2021-07-29_20h08.39.514,Simcolourproject_2stim_asymm_v5,2020.2.10,Win32,60,61025ae37ef11b136ea224fe,,,,,,,,,1653,92.80001283,39.19997079,1,0,0,response1disk,,6,-9.599988699,-2.400029829,1,0,0,rectangle,107.200013,34.39999513,1,0,0,response1disk_3,TRUE,6,6,"[75,297,225,176,150,178,194,149,157,156,166,243,78,243,11,253,236,42,1,207]",1.1824,-24.79998893,-5.600005463,1,0,0,rectangle,1,82,242,41,1,
