key_resp.keys,key_resp.rt,key_resp_14.keys,key_resp_14.rt,key_resp_15.keys,key_resp_15.rt,key_resp_17.keys,key_resp_17.rt,key_resp_9.keys,key_resp_9.rt,key_resp_10.keys,key_resp_10.rt,practice_comparison,Ecc,mouse_5.x,mouse_5.y,mouse_5.leftButton,mouse_5.midButton,mouse_5.rightButton,mouse_5.clicked_name,pracsimilarity,response_time,mouse_10.x,mouse_10.y,mouse_10.leftButton,mouse_10.midButton,mouse_10.rightButton,mouse_10.clicked_name,mouse_7.x,mouse_7.y,mouse_7.leftButton,mouse_7.midButton,mouse_7.rightButton,mouse_6.x,mouse_6.y,mouse_6.leftButton,mouse_6.midButton,mouse_6.rightButton,duringprac.thisRepN,duringprac.thisTrialN,duringprac.thisN,duringprac.thisIndex,duringprac.ran,participant,session,date,expName,psychopyVersion,OS,frameRate,study_id,mouse_7.clicked_name,catchpracsimilarity,catch_response_time,catchnumberprac,catchtrialorderprac,mouse_6.clicked_name,key_resp_22.keys,key_resp_22.rt,realcomparison,mouse.x,mouse.y,mouse.leftButton,mouse.midButton,mouse.rightButton,mouse.clicked_name,Colour2,similarity,mouse_2.x,mouse_2.y,mouse_2.leftButton,mouse_2.midButton,mouse_2.rightButton,mouse_2.clicked_name,mouse_3.x,mouse_3.y,mouse_3.leftButton,mouse_3.midButton,mouse_3.rightButton,mouse_3.clicked_name,catchornah,catchsimilarity,catchnumber,catchtrialorder,catchRT,mouse_11.x,mouse_11.y,mouse_11.leftButton,mouse_11.midButton,mouse_11.rightButton,mouse_11.clicked_name,trials_2.thisRepN,trials_2.thisTrialN,trials_2.thisN,trials_2.thisIndex,trials_2.ran,Colour1
space,1.2077,space,9.246,space,28.3039,space,7.917,space,1.8414,space,3.6388,99,PF,104.800013,-45.60000712,1,0,0,response3disk_5,5,15.8342,20.00001174,1.599993587,1,0,0,rectangle_8,20.00001174,1.599993587,1,0,0,20.00001174,1.599993587,1,0,0,0,0,0,6,1,5b76e19d948cc40001da0e50,610377bad87e153c2cccc7fe,2021-07-30_06h01.01.187,Simcolourproject_2stim_asymm_v5,2020.2.10,Win32,60,61025ae37ef11b136ea224fe,,,,,,,,,,,,,,,,,,,,,,,,,,,,,,,,,,,,,,,,,,,,,,
,,,,,,,,,,,,129,PF,-88.79998988,-32.80000693,1,0,0,response5disk_5,2,7.3831,-4.799988627,-6.400006533,1,0,0,rectangle_8,59.20001233,-113.600057,1,0,0,-3.999988616,1.599993587,1,0,0,0,1,1,2,1,5b76e19d948cc40001da0e50,610377bad87e153c2cccc7fe,2021-07-30_06h01.01.187,Simcolourproject_2stim_asymm_v5,2020.2.10,Win32,60,61025ae37ef11b136ea224fe,response3disk_7,4,2.8674,4,"[2,5]",rectangle_4,,,,,,,,,,,,,,,,,,,,,,,,,,,,,,,,,,,,,,,,
,,,,,,,,,,,,57,PF,84.80001271,-46.40000713,1,0,0,response3disk_5,5,8.8503,-18.39994,-6.400006533,1,0,0,rectangle_8,-18.39994,-6.400006533,1,0,0,-18.39994,-6.400006533,1,0,0,0,2,2,4,1,5b76e19d948cc40001da0e50,610377bad87e153c2cccc7fe,2021-07-30_06h01.01.187,Simcolourproject_2stim_asymm_v5,2020.2.10,Win32,60,61025ae37ef11b136ea224fe,,,,,,,,,,,,,,,,,,,,,,,,,,,,,,,,,,,,,,,,,,,,,,
,,,,,,,,,,,,9,PF,46.40001214,-65.60000741,1,0,0,response3disk_5,4,4.9837,-2.399939764,8.799993694,1,0,0,rectangle_8,-2.399939764,8.799993694,1,0,0,-2.399939764,8.799993694,1,0,0,0,3,3,1,1,5b76e19d948cc40001da0e50,610377bad87e153c2cccc7fe,2021-07-30_06h01.01.187,Simcolourproject_2stim_asymm_v5,2020.2.10,Win32,60,61025ae37ef11b136ea224fe,,,,,,,,,,,,,,,,,,,,,,,,,,,,,,,,,,,,,,,,,,,,,,
,,,,,,,,,,,,13,FF,37.60006083,100.7999951,1,0,0,response1disk_5,7,4.683,-1.59998858,-6.400006533,1,0,0,rectangle_8,50.4000122,-107.200008,1,0,0,-4.799988627,-4.800006509,1,0,0,0,4,4,0,1,5b76e19d948cc40001da0e50,610377bad87e153c2cccc7fe,2021-07-30_06h01.01.187,Simcolourproject_2stim_asymm_v5,2020.2.10,Win32,60,61025ae37ef11b136ea224fe,response3disk_7,4,2.116,4,"[2,5]",rectangle_4,,,,,,,,,,,,,,,,,,,,,,,,,,,,,,,,,,,,,,,,
,,,,,,,,,,,,109,FF,-103.9999901,44.79999423,1,0,0,response7disk_5,1,5.8168,-16.79998881,-6.4373E-06,1,0,0,rectangle_8,-16.79998881,-6.4373E-06,1,0,0,-16.79998881,-6.4373E-06,1,0,0,0,5,5,5,1,5b76e19d948cc40001da0e50,610377bad87e153c2cccc7fe,2021-07-30_06h01.01.187,Simcolourproject_2stim_asymm_v5,2020.2.10,Win32,60,61025ae37ef11b136ea224fe,,,,,,,,,,,,,,,,,,,,,,,,,,,,,,,,,,,,,,,,,,,,,,
,,,,,,,,,,,,136,FF,-52.79998934,-80.00000763,1,0,0,response5disk_5,3,4.8503,-0.799988568,-8.800006568,1,0,0,rectangle_8,-0.799988568,-8.800006568,1,0,0,-0.799988568,-8.800006568,1,0,0,0,6,6,3,1,5b76e19d948cc40001da0e50,610377bad87e153c2cccc7fe,2021-07-30_06h01.01.187,Simcolourproject_2stim_asymm_v5,2020.2.10,Win32,60,61025ae37ef11b136ea224fe,,,,,,,,,,,,,,,,,,,,,,,,,,,,,,,,,,,,,,,,,,,,,,
,,,,,,,,,,,,,FF,,,,,,,,5.4336,,,,,,,,,,,,,,,,,,,,,,5b76e19d948cc40001da0e50,610377bad87e153c2cccc7fe,2021-07-30_06h01.01.187,Simcolourproject_2stim_asymm_v5,2020.2.10,Win32,60,61025ae37ef11b136ea224fe,,,,,,,space,3.3318,3294,45.60006095,-84.00000769,1,0,0,response3disk,,4,4.800011516,7.19999367,1,0,0,rectangle,36.80001199,-108.8000081,1,0,0,response3disk_3,TRUE,4,4,"[315,289,310,291,236,108,168,245,8,236,122,166,265,226,164,1,16,52,6,173]",1.584,0.800011456,-9.60000658,1,0,0,rectangle,0,0,0,17,1,
,,,,,,,,,,,,,FF,,,,,,,,2.5339,,,,,,,,,,,,,,,,,,,,,,5b76e19d948cc40001da0e50,610377bad87e153c2cccc7fe,2021-07-30_06h01.01.187,Simcolourproject_2stim_asymm_v5,2020.2.10,Win32,60,61025ae37ef11b136ea224fe,,,,,,,,,2876,30.4000119,-86.40000772,1,0,0,response3disk,,4,-9.599988699,-0.800006449,1,0,0,rectangle,-9.599988699,-0.800006449,1,0,0,,,,,,,-9.599988699,-0.800006449,1,0,0,,0,1,1,129,1,
,,,,,,,,,,,,,FF,,,,,,,,5.2333,,,,,,,,,,,,,,,,,,,,,,5b76e19d948cc40001da0e50,610377bad87e153c2cccc7fe,2021-07-30_06h01.01.187,Simcolourproject_2stim_asymm_v5,2020.2.10,Win32,60,61025ae37ef11b136ea224fe,,,,,,,,,68,-39.19998914,-98.4000079,1,0,0,response5disk,,3,-7.999988675,-1.600006461,1,0,0,rectangle,-7.999988675,-1.600006461,1,0,0,,,,,,,-7.999988675,-1.600006461,1,0,0,,0,2,2,1,1,
,,,,,,,,,,,,,FF,,,,,,,,3.3532,,,,,,,,,,,,,,,,,,,,,,5b76e19d948cc40001da0e50,610377bad87e153c2cccc7fe,2021-07-30_06h01.01.187,Simcolourproject_2stim_asymm_v5,2020.2.10,Win32,60,61025ae37ef11b136ea224fe,,,,,,,,,1167,53.60001224,-88.80000776,1,0,0,response3disk,,4,-6.399939823,4.799993634,1,0,0,rectangle,-6.399939823,4.799993634,1,0,0,,,,,,,-6.399939823,4.799993634,1,0,0,,0,3,3,131,1,
,,,,,,,,,,,,,FF,,,,,,,,2.8336,,,,,,,,,,,,,,,,,,,,,,5b76e19d948cc40001da0e50,610377bad87e153c2cccc7fe,2021-07-30_06h01.01.187,Simcolourproject_2stim_asymm_v5,2020.2.10,Win32,60,61025ae37ef11b136ea224fe,,,,,,,,,3479,68.00001246,-27.20000684,1,0,0,response3disk,,5,-4.799988627,11.99999374,1,0,0,rectangle,-4.799988627,11.99999374,1,0,0,,,,,,,-4.799988627,11.99999374,1,0,0,,0,4,4,34,1,
,,,,,,,,,,,,,FF,,,,,,,,4.4833,,,,,,,,,,,,,,,,,,,,,,5b76e19d948cc40001da0e50,610377bad87e153c2cccc7fe,2021-07-30_06h01.01.187,Simcolourproject_2stim_asymm_v5,2020.2.10,Win32,60,61025ae37ef11b136ea224fe,,,,,,,,,4301,-43.1999892,-95.20000786,1,0,0,response5disk,,3,-9.599988699,-2.400006473,1,0,0,rectangle,-64.79998952,-100.0000079,1,0,0,response5disk_3,TRUE,3,3,"[315,289,310,291,236,108,168,245,8,236,122,166,265,226,164,1,16,52,6,173]",3.0495,-8.799988687,7.999993682,1,0,0,rectangle,0,5,5,158,1,
,,,,,,,,,,,,,FF,,,,,,,,2.45,,,,,,,,,,,,,,,,,,,,,,5b76e19d948cc40001da0e50,610377bad87e153c2cccc7fe,2021-07-30_06h01.01.187,Simcolourproject_2stim_asymm_v5,2020.2.10,Win32,60,61025ae37ef11b136ea224fe,,,,,,,,,4172,76.80001259,30.39999402,1,0,0,response1disk,,6,-1.59998858,-8.800006568,1,0,0,rectangle,-1.59998858,-8.800006568,1,0,0,,,,,,,-1.59998858,-8.800006568,1,0,0,,0,6,6,37,1,
,,,,,,,,,,,,,FF,,,,,,,,1.6672,,,,,,,,,,,,,,,,,,,,,,5b76e19d948cc40001da0e50,610377bad87e153c2cccc7fe,2021-07-30_06h01.01.187,Simcolourproject_2stim_asymm_v5,2020.2.10,Win32,60,61025ae37ef11b136ea224fe,,,,,,,,,1447,-94.39994113,45.59999424,1,0,0,response7disk,,1,-16.79998881,0.799993575,1,0,0,rectangle,49.60006101,-86.40000772,1,0,0,response3disk_3,TRUE,4,4,"[315,289,310,291,236,108,168,245,8,236,122,166,265,226,164,1,16,52,6,173]",1.3994,-5.599988639,12.79999375,1,0,0,rectangle,0,7,7,138,1,
,,,,,,,,,,,,,FF,,,,,,,,1.7162,,,,,,,,,,,,,,,,,,,,,,5b76e19d948cc40001da0e50,610377bad87e153c2cccc7fe,2021-07-30_06h01.01.187,Simcolourproject_2stim_asymm_v5,2020.2.10,Win32,60,61025ae37ef11b136ea224fe,,,,,,,,,2946,-72.79998964,-45.60000712,1,0,0,response5disk,,2,-6.399939823,-0.800006449,1,0,0,rectangle,-6.399939823,-0.800006449,1,0,0,,,,,,,-6.399939823,-0.800006449,1,0,0,,0,8,8,18,1,
,,,,,,,,,,,,,FF,,,,,,,,1.7173,,,,,,,,,,,,,,,,,,,,,,5b76e19d948cc40001da0e50,610377bad87e153c2cccc7fe,2021-07-30_06h01.01.187,Simcolourproject_2stim_asymm_v5,2020.2.10,Win32,60,61025ae37ef11b136ea224fe,,,,,,,,,2977,76.80001259,-31.2000069,1,0,0,response3disk,,5,16.00001168,-1.600006461,1,0,0,rectangle,16.00001168,-1.600006461,1,0,0,,,,,,,16.00001168,-1.600006461,1,0,0,,0,9,9,116,1,
,,,,,,,,,,,,,FF,,,,,,,,2.8333,,,,,,,,,,,,,,,,,,,,,,5b76e19d948cc40001da0e50,610377bad87e153c2cccc7fe,2021-07-30_06h01.01.187,Simcolourproject_2stim_asymm_v5,2020.2.10,Win32,60,61025ae37ef11b136ea224fe,,,,,,,,,1520,50.4000122,95.99999499,1,0,0,response1disk,,7,-7.999988675,-2.400006473,1,0,0,rectangle,-7.999988675,-2.400006473,1,0,0,,,,,,,-7.999988675,-2.400006473,1,0,0,,0,10,10,80,1,
,,,,,,,,,,,,,FF,,,,,,,,2.7169,,,,,,,,,,,,,,,,,,,,,,5b76e19d948cc40001da0e50,610377bad87e153c2cccc7fe,2021-07-30_06h01.01.187,Simcolourproject_2stim_asymm_v5,2020.2.10,Win32,60,61025ae37ef11b136ea224fe,,,,,,,,,486,80.80001265,39.19996973,1,0,0,response1disk,,6,-1.59998858,-9.60000658,1,0,0,rectangle,-1.59998858,-9.60000658,1,0,0,,,,,,,-1.59998858,-9.60000658,1,0,0,,0,11,11,130,1,
,,,,,,,,,,,,,FF,,,,,,,,1.7172,,,,,,,,,,,,,,,,,,,,,,5b76e19d948cc40001da0e50,610377bad87e153c2cccc7fe,2021-07-30_06h01.01.187,Simcolourproject_2stim_asymm_v5,2020.2.10,Win32,60,61025ae37ef11b136ea224fe,,,,,,,,,2752,67.20001245,94.39999497,1,0,0,response1disk,,7,3.200011492,0.799993575,1,0,0,rectangle,3.200011492,0.799993575,1,0,0,,,,,,,3.200011492,0.799993575,1,0,0,,0,12,12,102,1,
,,,,,,,,,,,,,FF,,,,,,,,1.3,,,,,,,,,,,,,,,,,,,,,,5b76e19d948cc40001da0e50,610377bad87e153c2cccc7fe,2021-07-30_06h01.01.187,Simcolourproject_2stim_asymm_v5,2020.2.10,Win32,60,61025ae37ef11b136ea224fe,,,,,,,,,1850,45.60006095,104.7999951,1,0,0,response1disk,,7,1.600060296,-3.200006485,1,0,0,rectangle,1.600060296,-3.200006485,1,0,0,,,,,,,1.600060296,-3.200006485,1,0,0,,0,13,13,29,1,
,,,,,,,,,,,,,FF,,,,,,,,3.7007,,,,,,,,,,,,,,,,,,,,,,5b76e19d948cc40001da0e50,610377bad87e153c2cccc7fe,2021-07-30_06h01.01.187,Simcolourproject_2stim_asymm_v5,2020.2.10,Win32,60,61025ae37ef11b136ea224fe,,,,,,,,,2656,-80.79998976,-56.80000728,1,0,0,response5disk,,2,-9.599988699,3.999993622,1,0,0,rectangle,-9.599988699,3.999993622,1,0,0,,,,,,,-9.599988699,3.999993622,1,0,0,,0,14,14,35,1,
,,,,,,,,,,,,,FF,,,,,,,,2.9838,,,,,,,,,,,,,,,,,,,,,,5b76e19d948cc40001da0e50,610377bad87e153c2cccc7fe,2021-07-30_06h01.01.187,Simcolourproject_2stim_asymm_v5,2020.2.10,Win32,60,61025ae37ef11b136ea224fe,,,,,,,,,949,-46.39994042,-90.40000778,1,0,0,response5disk,,3,-7.999988675,-8.800006568,1,0,0,rectangle,-34.39994024,-121.6000571,1,0,0,response5disk_3,TRUE,3,3,"[315,289,310,291,236,108,168,245,8,236,122,166,265,226,164,1,16,52,6,173]",2.6002,0.800011456,-1.600006461,1,0,0,rectangle,0,15,15,31,1,
,,,,,,,,,,,,,FF,,,,,,,,5.9999,,,,,,,,,,,,,,,,,,,,,,5b76e19d948cc40001da0e50,610377bad87e153c2cccc7fe,2021-07-30_06h01.01.187,Simcolourproject_2stim_asymm_v5,2020.2.10,Win32,60,61025ae37ef11b136ea224fe,,,,,,,,,1470,40.00001204,-101.6000568,1,0,0,response3disk,,4,-12.79998875,3.999993622,1,0,0,rectangle,-12.79998875,3.999993622,1,0,0,,,,,,,-12.79998875,3.999993622,1,0,0,,0,16,16,85,1,
,,,,,,,,,,,,,FF,,,,,,,,1.5833,,,,,,,,,,,,,,,,,,,,,,5b76e19d948cc40001da0e50,610377bad87e153c2cccc7fe,2021-07-30_06h01.01.187,Simcolourproject_2stim_asymm_v5,2020.2.10,Win32,60,61025ae37ef11b136ea224fe,,,,,,,,,2026,-51.19998932,-97.60005672,1,0,0,response5disk,,3,9.600060415,-1.600006461,1,0,0,rectangle,9.600060415,-1.600006461,1,0,0,,,,,,,9.600060415,-1.600006461,1,0,0,,0,17,17,38,1,
,,,,,,,,,,,,,FF,,,,,,,,3.5503,,,,,,,,,,,,,,,,,,,,,,5b76e19d948cc40001da0e50,610377bad87e153c2cccc7fe,2021-07-30_06h01.01.187,Simcolourproject_2stim_asymm_v5,2020.2.10,Win32,60,61025ae37ef11b136ea224fe,,,,,,,,,1391,88.80001277,-46.40000713,1,0,0,response3disk,,5,5.600060356,-0.800006449,1,0,0,rectangle,5.600060356,-0.800006449,1,0,0,,,,,,,5.600060356,-0.800006449,1,0,0,,0,18,18,28,1,
,,,,,,,,,,,,,FF,,,,,,,,3.4164,,,,,,,,,,,,,,,,,,,,,,5b76e19d948cc40001da0e50,610377bad87e153c2cccc7fe,2021-07-30_06h01.01.187,Simcolourproject_2stim_asymm_v5,2020.2.10,Win32,60,61025ae37ef11b136ea224fe,,,,,,,,,1965,-79.99998975,-36.00000697,1,0,0,response5disk,,2,2.40001148,-3.200006485,1,0,0,rectangle,2.40001148,-3.200006485,1,0,0,,,,,,,2.40001148,-3.200006485,1,0,0,,0,19,19,79,1,
,,,,,,,,,,,,,FF,,,,,,,,1.4173,,,,,,,,,,,,,,,,,,,,,,5b76e19d948cc40001da0e50,610377bad87e153c2cccc7fe,2021-07-30_06h01.01.187,Simcolourproject_2stim_asymm_v5,2020.2.10,Win32,60,61025ae37ef11b136ea224fe,,,,,,,,,1427,72.00001252,21.59999388,1,0,0,response1disk,,6,18.40001172,3.999993622,1,0,0,rectangle,18.40001172,3.999993622,1,0,0,,,,,,,18.40001172,3.999993622,1,0,0,,0,20,20,19,1,
,,,,,,,,,,,,,FF,,,,,,,,2.9658,,,,,,,,,,,,,,,,,,,,,,5b76e19d948cc40001da0e50,610377bad87e153c2cccc7fe,2021-07-30_06h01.01.187,Simcolourproject_2stim_asymm_v5,2020.2.10,Win32,60,61025ae37ef11b136ea224fe,,,,,,,,,445,-99.19999003,35.19996967,1,0,0,response7disk,,1,-19.99998885,3.999993622,1,0,0,rectangle,-19.99998885,3.999993622,1,0,0,,,,,,,-19.99998885,3.999993622,1,0,0,,0,21,21,15,1,
,,,,,,,,,,,,,FF,,,,,,,,2.9164,,,,,,,,,,,,,,,,,,,,,,5b76e19d948cc40001da0e50,610377bad87e153c2cccc7fe,2021-07-30_06h01.01.187,Simcolourproject_2stim_asymm_v5,2020.2.10,Win32,60,61025ae37ef11b136ea224fe,,,,,,,,,1104,52.00001222,106.3999951,1,0,0,response1disk,,7,6.400011539,3.19999361,1,0,0,rectangle,6.400011539,3.19999361,1,0,0,,,,,,,6.400011539,3.19999361,1,0,0,,0,22,22,103,1,
,,,,,,,,,,,,,FF,,,,,,,,3.417,,,,,,,,,,,,,,,,,,,,,,5b76e19d948cc40001da0e50,610377bad87e153c2cccc7fe,2021-07-30_06h01.01.187,Simcolourproject_2stim_asymm_v5,2020.2.10,Win32,60,61025ae37ef11b136ea224fe,,,,,,,,,2341,86.40001273,40.79999417,1,0,0,response1disk,,6,3.200011492,-3.200006485,1,0,0,rectangle,3.200011492,-3.200006485,1,0,0,,,,,,,3.200011492,-3.200006485,1,0,0,,0,23,23,127,1,
,,,,,,,,,,,,,FF,,,,,,,,1.4834,,,,,,,,,,,,,,,,,,,,,,5b76e19d948cc40001da0e50,610377bad87e153c2cccc7fe,2021-07-30_06h01.01.187,Simcolourproject_2stim_asymm_v5,2020.2.10,Win32,60,61025ae37ef11b136ea224fe,,,,,,,,,1474,86.40001273,53.59999436,1,0,0,response1disk,,6,12.80001163,11.19999373,1,0,0,rectangle,12.80001163,11.19999373,1,0,0,,,,,,,12.80001163,11.19999373,1,0,0,,0,24,24,151,1,
,,,,,,,,,,,,,FF,,,,,,,,2.2339,,,,,,,,,,,,,,,,,,,,,,5b76e19d948cc40001da0e50,610377bad87e153c2cccc7fe,2021-07-30_06h01.01.187,Simcolourproject_2stim_asymm_v5,2020.2.10,Win32,60,61025ae37ef11b136ea224fe,,,,,,,,,1760,-58.3999406,-92.00000781,1,0,0,response5disk,,3,-11.19998872,3.19999361,1,0,0,rectangle,-11.19998872,3.19999361,1,0,0,,,,,,,-11.19998872,3.19999361,1,0,0,,0,25,25,63,1,
,,,,,,,,,,,,,FF,,,,,,,,1.9167,,,,,,,,,,,,,,,,,,,,,,5b76e19d948cc40001da0e50,610377bad87e153c2cccc7fe,2021-07-30_06h01.01.187,Simcolourproject_2stim_asymm_v5,2020.2.10,Win32,60,61025ae37ef11b136ea224fe,,,,,,,,,3036,-24.79998893,-72.80000752,1,0,0,response5disk,,3,-14.39993994,-9.60000658,1,0,0,rectangle,-14.39993994,-9.60000658,1,0,0,,,,,,,-14.39993994,-9.60000658,1,0,0,,0,26,26,47,1,
,,,,,,,,,,,,,FF,,,,,,,,2.9506,,,,,,,,,,,,,,,,,,,,,,5b76e19d948cc40001da0e50,610377bad87e153c2cccc7fe,2021-07-30_06h01.01.187,Simcolourproject_2stim_asymm_v5,2020.2.10,Win32,60,61025ae37ef11b136ea224fe,,,,,,,,,4353,96.80001289,-30.40000689,1,0,0,response3disk,,5,1.600060296,4.799993634,1,0,0,rectangle,1.600060296,4.799993634,1,0,0,,,,,,,1.600060296,4.799993634,1,0,0,,0,27,27,42,1,
,,,,,,,,,,,,,FF,,,,,,,,1.6828,,,,,,,,,,,,,,,,,,,,,,5b76e19d948cc40001da0e50,610377bad87e153c2cccc7fe,2021-07-30_06h01.01.187,Simcolourproject_2stim_asymm_v5,2020.2.10,Win32,60,61025ae37ef11b136ea224fe,,,,,,,,,1321,107.200013,-24.80000681,1,0,0,response3disk,,5,17.60006053,0.799993575,1,0,0,rectangle,17.60006053,0.799993575,1,0,0,,,,,,,17.60006053,0.799993575,1,0,0,,0,28,28,86,1,
,,,,,,,,,,,,,FF,,,,,,,,3.117,,,,,,,,,,,,,,,,,,,,,,5b76e19d948cc40001da0e50,610377bad87e153c2cccc7fe,2021-07-30_06h01.01.187,Simcolourproject_2stim_asymm_v5,2020.2.10,Win32,60,61025ae37ef11b136ea224fe,,,,,,,,,354,-96.79999,35.19996967,1,0,0,response7disk,,1,1.14441E-05,1.599993587,1,0,0,rectangle,1.14441E-05,1.599993587,1,0,0,,,,,,,1.14441E-05,1.599993587,1,0,0,,0,29,29,4,1,
,,,,,,,,,,,,,FF,,,,,,,,3.0501,,,,,,,,,,,,,,,,,,,,,,5b76e19d948cc40001da0e50,610377bad87e153c2cccc7fe,2021-07-30_06h01.01.187,Simcolourproject_2stim_asymm_v5,2020.2.10,Win32,60,61025ae37ef11b136ea224fe,,,,,,,,,4041,68.00001246,-25.60000682,1,0,0,response3disk,,5,12.00001162,6.399993658,1,0,0,rectangle,12.00001162,6.399993658,1,0,0,,,,,,,12.00001162,6.399993658,1,0,0,,0,30,30,26,1,
,,,,,,,,,,,,,FF,,,,,,,,3.5004,,,,,,,,,,,,,,,,,,,,,,5b76e19d948cc40001da0e50,610377bad87e153c2cccc7fe,2021-07-30_06h01.01.187,Simcolourproject_2stim_asymm_v5,2020.2.10,Win32,60,61025ae37ef11b136ea224fe,,,,,,,,,1203,-39.19998914,-120.0000082,1,0,0,response5disk,,3,-9.599988699,3.999993622,1,0,0,rectangle,-9.599988699,3.999993622,1,0,0,,,,,,,-9.599988699,3.999993622,1,0,0,,0,31,31,115,1,
,,,,,,,,,,,,,FF,,,,,,,,3.2836,,,,,,,,,,,,,,,,,,,,,,5b76e19d948cc40001da0e50,610377bad87e153c2cccc7fe,2021-07-30_06h01.01.187,Simcolourproject_2stim_asymm_v5,2020.2.10,Win32,60,61025ae37ef11b136ea224fe,,,,,,,,,425,103.200013,31.99999404,1,0,0,response1disk,,6,-7.999988675,7.19999367,1,0,0,rectangle,-7.999988675,7.19999367,1,0,0,,,,,,,-7.999988675,7.19999367,1,0,0,,0,32,32,9,1,
,,,,,,,,,,,,,FF,,,,,,,,1.0164,,,,,,,,,,,,,,,,,,,,,,5b76e19d948cc40001da0e50,610377bad87e153c2cccc7fe,2021-07-30_06h01.01.187,Simcolourproject_2stim_asymm_v5,2020.2.10,Win32,60,61025ae37ef11b136ea224fe,,,,,,,,,1987,91.2000128,39.99999416,1,0,0,response1disk,,6,5.600060356,7.999993682,1,0,0,rectangle,5.600060356,7.999993682,1,0,0,,,,,,,5.600060356,7.999993682,1,0,0,,0,33,33,78,1,
,,,,,,,,,,,,,FF,,,,,,,,2.3499,,,,,,,,,,,,,,,,,,,,,,5b76e19d948cc40001da0e50,610377bad87e153c2cccc7fe,2021-07-30_06h01.01.187,Simcolourproject_2stim_asymm_v5,2020.2.10,Win32,60,61025ae37ef11b136ea224fe,,,,,,,,,3970,-99.99999005,-36.80000699,1,0,0,response5disk,,2,-7.199988663,-6.400006533,1,0,0,rectangle,-7.199988663,-6.400006533,1,0,0,,,,,,,-7.199988663,-6.400006533,1,0,0,,0,34,34,93,1,
,,,,,,,,,,,,,FF,,,,,,,,2.4834,,,,,,,,,,,,,,,,,,,,,,5b76e19d948cc40001da0e50,610377bad87e153c2cccc7fe,2021-07-30_06h01.01.187,Simcolourproject_2stim_asymm_v5,2020.2.10,Win32,60,61025ae37ef11b136ea224fe,,,,,,,,,412,81.60001266,47.99999428,1,0,0,response1disk,,6,-32.79998904,-8.800006568,1,0,0,rectangle,-32.79998904,-8.800006568,1,0,0,,,,,,,-32.79998904,-8.800006568,1,0,0,,0,35,35,104,1,
,,,,,,,,,,,,,FF,,,,,,,,1.9173,,,,,,,,,,,,,,,,,,,,,,5b76e19d948cc40001da0e50,610377bad87e153c2cccc7fe,2021-07-30_06h01.01.187,Simcolourproject_2stim_asymm_v5,2020.2.10,Win32,60,61025ae37ef11b136ea224fe,,,,,,,,,1720,51.20001221,85.59999484,1,0,0,response1disk,,7,-5.599988639,-8.000006557,1,0,0,rectangle,-5.599988639,-8.000006557,1,0,0,,,,,,,-5.599988639,-8.000006557,1,0,0,,0,36,36,99,1,
,,,,,,,,,,,,,FF,,,,,,,,1.8835,,,,,,,,,,,,,,,,,,,,,,5b76e19d948cc40001da0e50,610377bad87e153c2cccc7fe,2021-07-30_06h01.01.187,Simcolourproject_2stim_asymm_v5,2020.2.10,Win32,60,61025ae37ef11b136ea224fe,,,,,,,,,495,91.2000128,-16.80000669,1,0,0,response3disk,,5,8.800011575,15.9999938,1,0,0,rectangle,8.800011575,15.9999938,1,0,0,,,,,,,8.800011575,15.9999938,1,0,0,,0,37,37,0,1,
,,,,,,,,,,,,,FF,,,,,,,,1.6666,,,,,,,,,,,,,,,,,,,,,,5b76e19d948cc40001da0e50,610377bad87e153c2cccc7fe,2021-07-30_06h01.01.187,Simcolourproject_2stim_asymm_v5,2020.2.10,Win32,60,61025ae37ef11b136ea224fe,,,,,,,,,3709,-59.19998944,-28.80000687,1,0,0,response5disk,,2,-16.79998881,-2.400006473,1,0,0,rectangle,-16.79998881,-2.400006473,1,0,0,,,,,,,-16.79998881,-2.400006473,1,0,0,,0,38,38,66,1,
,,,,,,,,,,,,,FF,,,,,,,,2.7503,,,,,,,,,,,,,,,,,,,,,,5b76e19d948cc40001da0e50,610377bad87e153c2cccc7fe,2021-07-30_06h01.01.187,Simcolourproject_2stim_asymm_v5,2020.2.10,Win32,60,61025ae37ef11b136ea224fe,,,,,,,,,66,90.40001279,31.99999404,1,0,0,response1disk,,6,-19.19998884,-8.800006568,1,0,0,rectangle,-19.19998884,-8.800006568,1,0,0,,,,,,,-19.19998884,-8.800006568,1,0,0,,0,39,39,89,1,
,,,,,,,,,,,,,FF,,,,,,,,1.5498,,,,,,,,,,,,,,,,,,,,,,5b76e19d948cc40001da0e50,610377bad87e153c2cccc7fe,2021-07-30_06h01.01.187,Simcolourproject_2stim_asymm_v5,2020.2.10,Win32,60,61025ae37ef11b136ea224fe,,,,,,,,,3133,46.40001214,91.99999493,1,0,0,response1disk,,7,-18.39994,-13.60000664,1,0,0,rectangle,-18.39994,-13.60000664,1,0,0,,,,,,,-18.39994,-13.60000664,1,0,0,,0,40,40,152,1,
,,,,,,,,,,,,,FF,,,,,,,,2.6339,,,,,,,,,,,,,,,,,,,,,,5b76e19d948cc40001da0e50,610377bad87e153c2cccc7fe,2021-07-30_06h01.01.187,Simcolourproject_2stim_asymm_v5,2020.2.10,Win32,60,61025ae37ef11b136ea224fe,,,,,,,,,95,-75.99998969,-54.40000725,1,0,0,response5disk,,2,4.800011516,-6.4373E-06,1,0,0,rectangle,4.800011516,-6.4373E-06,1,0,0,,,,,,,4.800011516,-6.4373E-06,1,0,0,,0,41,41,36,1,
,,,,,,,,,,,,,FF,,,,,,,,2.0499,,,,,,,,,,,,,,,,,,,,,,5b76e19d948cc40001da0e50,610377bad87e153c2cccc7fe,2021-07-30_06h01.01.187,Simcolourproject_2stim_asymm_v5,2020.2.10,Win32,60,61025ae37ef11b136ea224fe,,,,,,,,,2670,41.60006089,-84.00000769,1,0,0,response3disk,,4,-6.399939823,-14.40000665,1,0,0,rectangle,-6.399939823,-14.40000665,1,0,0,,,,,,,-6.399939823,-14.40000665,1,0,0,,0,42,42,72,1,
,,,,,,,,,,,,,FF,,,,,,,,3.0834,,,,,,,,,,,,,,,,,,,,,,5b76e19d948cc40001da0e50,610377bad87e153c2cccc7fe,2021-07-30_06h01.01.187,Simcolourproject_2stim_asymm_v5,2020.2.10,Win32,60,61025ae37ef11b136ea224fe,,,,,,,,,4063,97.6000129,63.99999452,1,0,0,response1disk,,6,2.40001148,9.599993706,1,0,0,rectangle,2.40001148,9.599993706,1,0,0,,,,,,,2.40001148,9.599993706,1,0,0,,0,43,43,137,1,
,,,,,,,,,,,,,FF,,,,,,,,4.35,,,,,,,,,,,,,,,,,,,,,,5b76e19d948cc40001da0e50,610377bad87e153c2cccc7fe,2021-07-30_06h01.01.187,Simcolourproject_2stim_asymm_v5,2020.2.10,Win32,60,61025ae37ef11b136ea224fe,,,,,,,,,244,75.20001256,43.19996979,1,0,0,response1disk,,6,-4.799988627,-0.800006449,1,0,0,rectangle,-4.799988627,-0.800006449,1,0,0,,,,,,,-4.799988627,-0.800006449,1,0,0,,0,44,44,56,1,
,,,,,,,,,,,,,FF,,,,,,,,3.6337,,,,,,,,,,,,,,,,,,,,,,5b76e19d948cc40001da0e50,610377bad87e153c2cccc7fe,2021-07-30_06h01.01.187,Simcolourproject_2stim_asymm_v5,2020.2.10,Win32,60,61025ae37ef11b136ea224fe,,,,,,,,,917,76.00001258,-42.40000707,1,0,0,response3disk,,5,20.00001174,-10.40000659,1,0,0,rectangle,20.00001174,-10.40000659,1,0,0,,,,,,,20.00001174,-10.40000659,1,0,0,,0,45,45,132,1,
,,,,,,,,,,,,,FF,,,,,,,,2.4662,,,,,,,,,,,,,,,,,,,,,,5b76e19d948cc40001da0e50,610377bad87e153c2cccc7fe,2021-07-30_06h01.01.187,Simcolourproject_2stim_asymm_v5,2020.2.10,Win32,60,61025ae37ef11b136ea224fe,,,,,,,,,3141,84.80001271,-44.00000709,1,0,0,response3disk,,5,24.0000118,-7.200006545,1,0,0,rectangle,24.0000118,-7.200006545,1,0,0,,,,,,,24.0000118,-7.200006545,1,0,0,,0,46,46,111,1,
,,,,,,,,,,,,,FF,,,,,,,,1.7504,,,,,,,,,,,,,,,,,,,,,,5b76e19d948cc40001da0e50,610377bad87e153c2cccc7fe,2021-07-30_06h01.01.187,Simcolourproject_2stim_asymm_v5,2020.2.10,Win32,60,61025ae37ef11b136ea224fe,,,,,,,,,1471,87.20001274,-40.80000705,1,0,0,response3disk,,5,19.20001173,6.399993658,1,0,0,rectangle,19.20001173,6.399993658,1,0,0,,,,,,,19.20001173,6.399993658,1,0,0,,0,47,47,64,1,
,,,,,,,,,,,,,FF,,,,,,,,3.8336,,,,,,,,,,,,,,,,,,,,,,5b76e19d948cc40001da0e50,610377bad87e153c2cccc7fe,2021-07-30_06h01.01.187,Simcolourproject_2stim_asymm_v5,2020.2.10,Win32,60,61025ae37ef11b136ea224fe,,,,,,,,,672,84.0000127,54.39999437,1,0,0,response1disk,,6,-5.599988639,-6.4373E-06,1,0,0,rectangle,-5.599988639,-6.4373E-06,1,0,0,,,,,,,-5.599988639,-6.4373E-06,1,0,0,,0,48,48,54,1,
,,,,,,,,,,,,,FF,,,,,,,,1.4175,,,,,,,,,,,,,,,,,,,,,,5b76e19d948cc40001da0e50,610377bad87e153c2cccc7fe,2021-07-30_06h01.01.187,Simcolourproject_2stim_asymm_v5,2020.2.10,Win32,60,61025ae37ef11b136ea224fe,,,,,,,,,2810,80.00001264,41.59999418,1,0,0,response1disk,,6,15.20001167,3.999993622,1,0,0,rectangle,15.20001167,3.999993622,1,0,0,,,,,,,15.20001167,3.999993622,1,0,0,,0,49,49,108,1,
,,,,,,,,,,,,,FF,,,,,,,,3.4002,,,,,,,,,,,,,,,,,,,,,,5b76e19d948cc40001da0e50,610377bad87e153c2cccc7fe,2021-07-30_06h01.01.187,Simcolourproject_2stim_asymm_v5,2020.2.10,Win32,60,61025ae37ef11b136ea224fe,,,,,,,,,2868,64.80001241,-40.00000703,1,0,0,response3disk,,5,-15.19998878,-2.400006473,1,0,0,rectangle,-15.19998878,-2.400006473,1,0,0,,,,,,,-15.19998878,-2.400006473,1,0,0,,0,50,50,59,1,
,,,,,,,,,,,,,FF,,,,,,,,2.917,,,,,,,,,,,,,,,,,,,,,,5b76e19d948cc40001da0e50,610377bad87e153c2cccc7fe,2021-07-30_06h01.01.187,Simcolourproject_2stim_asymm_v5,2020.2.10,Win32,60,61025ae37ef11b136ea224fe,,,,,,,,,4035,-86.39994102,-66.40000743,1,0,0,response5disk,,2,11.20001161,-5.600006521,1,0,0,rectangle,116.0000132,-43.20000708,1,0,0,response3disk_3,TRUE,5,5,"[315,289,310,291,236,108,168,245,8,236,122,166,265,226,164,1,16,52,6,173]",1.8336,9.600060415,2.399993598,1,0,0,rectangle,0,51,51,33,1,
,,,,,,,,,,,,,FF,,,,,,,,2.4337,,,,,,,,,,,,,,,,,,,,,,5b76e19d948cc40001da0e50,610377bad87e153c2cccc7fe,2021-07-30_06h01.01.187,Simcolourproject_2stim_asymm_v5,2020.2.10,Win32,60,61025ae37ef11b136ea224fe,,,,,,,,,1303,-85.59998983,-58.40000731,1,0,0,response5disk,,2,-11.99998873,7.19999367,1,0,0,rectangle,-11.99998873,7.19999367,1,0,0,,,,,,,-11.99998873,7.19999367,1,0,0,,0,52,52,70,1,
,,,,,,,,,,,,,FF,,,,,,,,1.8672,,,,,,,,,,,,,,,,,,,,,,5b76e19d948cc40001da0e50,610377bad87e153c2cccc7fe,2021-07-30_06h01.01.187,Simcolourproject_2stim_asymm_v5,2020.2.10,Win32,60,61025ae37ef11b136ea224fe,,,,,,,,,2218,-71.19998962,-48.00000715,1,0,0,response5disk,,2,0.800011456,-3.200006485,1,0,0,rectangle,0.800011456,-3.200006485,1,0,0,,,,,,,0.800011456,-3.200006485,1,0,0,,0,53,53,119,1,
,,,,,,,,,,,,,FF,,,,,,,,5.2839,,,,,,,,,,,,,,,,,,,,,,5b76e19d948cc40001da0e50,610377bad87e153c2cccc7fe,2021-07-30_06h01.01.187,Simcolourproject_2stim_asymm_v5,2020.2.10,Win32,60,61025ae37ef11b136ea224fe,,,,,,,,,4033,-104.7999901,-40.00000703,1,0,0,response5disk,,2,6.400011539,7.19999367,1,0,0,rectangle,6.400011539,7.19999367,1,0,0,,,,,,,6.400011539,7.19999367,1,0,0,,0,54,54,58,1,
,,,,,,,,,,,,,FF,,,,,,,,3.9339,,,,,,,,,,,,,,,,,,,,,,5b76e19d948cc40001da0e50,610377bad87e153c2cccc7fe,2021-07-30_06h01.01.187,Simcolourproject_2stim_asymm_v5,2020.2.10,Win32,60,61025ae37ef11b136ea224fe,,,,,,,,,3121,89.60001278,-56.00000727,1,0,0,response3disk,,5,-1.59998858,10.39999372,1,0,0,rectangle,-1.59998858,10.39999372,1,0,0,,,,,,,-1.59998858,10.39999372,1,0,0,,0,55,55,67,1,
,,,,,,,,,,,,,FF,,,,,,,,1.4666,,,,,,,,,,,,,,,,,,,,,,5b76e19d948cc40001da0e50,610377bad87e153c2cccc7fe,2021-07-30_06h01.01.187,Simcolourproject_2stim_asymm_v5,2020.2.10,Win32,60,61025ae37ef11b136ea224fe,,,,,,,,,2816,92.00001281,47.99999428,1,0,0,response1disk,,6,-4.799988627,-6.4373E-06,1,0,0,rectangle,-4.799988627,-6.4373E-06,1,0,0,,,,,,,-4.799988627,-6.4373E-06,1,0,0,,0,56,56,40,1,
,,,,,,,,,,,,,FF,,,,,,,,1.9505,,,,,,,,,,,,,,,,,,,,,,5b76e19d948cc40001da0e50,610377bad87e153c2cccc7fe,2021-07-30_06h01.01.187,Simcolourproject_2stim_asymm_v5,2020.2.10,Win32,60,61025ae37ef11b136ea224fe,,,,,,,,,3331,-41.59998918,-72.00000751,1,0,0,response5disk,,3,-7.199988663,-3.200006485,1,0,0,rectangle,-7.199988663,-3.200006485,1,0,0,,,,,,,-7.199988663,-3.200006485,1,0,0,,0,57,57,150,1,
,,,,,,,,,,,,,FF,,,,,,,,1.7501,,,,,,,,,,,,,,,,,,,,,,5b76e19d948cc40001da0e50,610377bad87e153c2cccc7fe,2021-07-30_06h01.01.187,Simcolourproject_2stim_asymm_v5,2020.2.10,Win32,60,61025ae37ef11b136ea224fe,,,,,,,,,2733,45.60006095,-89.6000566,1,0,0,response3disk,,4,-7.999988675,0.799993575,1,0,0,rectangle,-7.999988675,0.799993575,1,0,0,,,,,,,-7.999988675,0.799993575,1,0,0,,0,58,58,147,1,
,,,,,,,,,,,,,FF,,,,,,,,1.9504,,,,,,,,,,,,,,,,,,,,,,5b76e19d948cc40001da0e50,610377bad87e153c2cccc7fe,2021-07-30_06h01.01.187,Simcolourproject_2stim_asymm_v5,2020.2.10,Win32,60,61025ae37ef11b136ea224fe,,,,,,,,,4067,103.200013,-46.40000713,1,0,0,response3disk,,5,12.00001162,8.799993694,1,0,0,rectangle,12.00001162,8.799993694,1,0,0,,,,,,,12.00001162,8.799993694,1,0,0,,0,59,59,5,1,
,,,,,,,,,,,,,FF,,,,,,,,2.5335,,,,,,,,,,,,,,,,,,,,,,5b76e19d948cc40001da0e50,610377bad87e153c2cccc7fe,2021-07-30_06h01.01.187,Simcolourproject_2stim_asymm_v5,2020.2.10,Win32,60,61025ae37ef11b136ea224fe,,,,,,,,,4008,47.20001215,96.79999501,1,0,0,response1disk,,7,3.200011492,12.79999375,1,0,0,rectangle,3.200011492,12.79999375,1,0,0,,,,,,,3.200011492,12.79999375,1,0,0,,0,60,60,114,1,
,,,,,,,,,,,,,FF,,,,,,,,2.8502,,,,,,,,,,,,,,,,,,,,,,5b76e19d948cc40001da0e50,610377bad87e153c2cccc7fe,2021-07-30_06h01.01.187,Simcolourproject_2stim_asymm_v5,2020.2.10,Win32,60,61025ae37ef11b136ea224fe,,,,,,,,,2362,-44.79998922,-103.200008,1,0,0,response5disk,,3,-12.79998875,1.599993587,1,0,0,rectangle,-12.79998875,1.599993587,1,0,0,,,,,,,-12.79998875,1.599993587,1,0,0,,0,61,61,110,1,
,,,,,,,,,,,,,FF,,,,,,,,1.984,,,,,,,,,,,,,,,,,,,,,,5b76e19d948cc40001da0e50,610377bad87e153c2cccc7fe,2021-07-30_06h01.01.187,Simcolourproject_2stim_asymm_v5,2020.2.10,Win32,60,61025ae37ef11b136ea224fe,,,,,,,,,190,107.200013,26.39999396,1,0,0,response1disk,,6,12.00001162,-11.2000066,1,0,0,rectangle,12.00001162,-11.2000066,1,0,0,,,,,,,12.00001162,-11.2000066,1,0,0,,0,62,62,149,1,
,,,,,,,,,,,,,FF,,,,,,,,1.0505,,,,,,,,,,,,,,,,,,,,,,5b76e19d948cc40001da0e50,610377bad87e153c2cccc7fe,2021-07-30_06h01.01.187,Simcolourproject_2stim_asymm_v5,2020.2.10,Win32,60,61025ae37ef11b136ea224fe,,,,,,,,,4369,-49.5999893,89.5999949,1,0,0,response7disk,,0,-0.799988568,9.599993706,1,0,0,rectangle,-0.799988568,9.599993706,1,0,0,,,,,,,-0.799988568,9.599993706,1,0,0,,0,63,63,21,1,
,,,,,,,,,,,,,FF,,,,,,,,7.4504,,,,,,,,,,,,,,,,,,,,,,5b76e19d948cc40001da0e50,610377bad87e153c2cccc7fe,2021-07-30_06h01.01.187,Simcolourproject_2stim_asymm_v5,2020.2.10,Win32,60,61025ae37ef11b136ea224fe,,,,,,,,,866,91.2000128,-58.40000731,1,0,0,response3disk,,5,1.600060296,-8.800006568,1,0,0,rectangle,1.600060296,-8.800006568,1,0,0,,,,,,,1.600060296,-8.800006568,1,0,0,,0,64,64,105,1,
,,,,,,,,,,,,,FF,,,,,,,,2.1671,,,,,,,,,,,,,,,,,,,,,,5b76e19d948cc40001da0e50,610377bad87e153c2cccc7fe,2021-07-30_06h01.01.187,Simcolourproject_2stim_asymm_v5,2020.2.10,Win32,60,61025ae37ef11b136ea224fe,,,,,,,,,3624,-30.39994018,-128.8000084,1,0,0,response5disk,,3,11.20001161,4.799993634,1,0,0,rectangle,11.20001161,4.799993634,1,0,0,,,,,,,11.20001161,4.799993634,1,0,0,,0,65,65,143,1,
,,,,,,,,,,,,,FF,,,,,,,,2.4506,,,,,,,,,,,,,,,,,,,,,,5b76e19d948cc40001da0e50,610377bad87e153c2cccc7fe,2021-07-30_06h01.01.187,Simcolourproject_2stim_asymm_v5,2020.2.10,Win32,60,61025ae37ef11b136ea224fe,,,,,,,,,3820,108.0000131,28.79999399,1,0,0,response1disk,,6,9.600060415,-10.40000659,1,0,0,rectangle,9.600060415,-10.40000659,1,0,0,,,,,,,9.600060415,-10.40000659,1,0,0,,0,66,66,100,1,
,,,,,,,,,,,,,FF,,,,,,,,1.6827,,,,,,,,,,,,,,,,,,,,,,5b76e19d948cc40001da0e50,610377bad87e153c2cccc7fe,2021-07-30_06h01.01.187,Simcolourproject_2stim_asymm_v5,2020.2.10,Win32,60,61025ae37ef11b136ea224fe,,,,,,,,,2572,48.80001217,80.79999477,1,0,0,response1disk,,7,6.400011539,10.39999372,1,0,0,rectangle,6.400011539,10.39999372,1,0,0,,,,,,,6.400011539,10.39999372,1,0,0,,0,67,67,122,1,
,,,,,,,,,,,,,FF,,,,,,,,0.9001,,,,,,,,,,,,,,,,,,,,,,5b76e19d948cc40001da0e50,610377bad87e153c2cccc7fe,2021-07-30_06h01.01.187,Simcolourproject_2stim_asymm_v5,2020.2.10,Win32,60,61025ae37ef11b136ea224fe,,,,,,,,,3207,43.20001209,80.79999477,1,0,0,response1disk,,7,1.14441E-05,1.599993587,1,0,0,rectangle,1.14441E-05,1.599993587,1,0,0,,,,,,,1.14441E-05,1.599993587,1,0,0,,0,68,68,81,1,
,,,,,,,,,,,,,FF,,,,,,,,5.5166,,,,,,,,,,,,,,,,,,,,,,5b76e19d948cc40001da0e50,610377bad87e153c2cccc7fe,2021-07-30_06h01.01.187,Simcolourproject_2stim_asymm_v5,2020.2.10,Win32,60,61025ae37ef11b136ea224fe,,,,,,,,,2561,67.20001245,79.99999475,1,0,0,response1disk,,7,8.800011575,-3.200006485,1,0,0,rectangle,8.800011575,-3.200006485,1,0,0,,,,,,,8.800011575,-3.200006485,1,0,0,,0,69,69,10,1,
,,,,,,,,,,,,,FF,,,,,,,,0.9501,,,,,,,,,,,,,,,,,,,,,,5b76e19d948cc40001da0e50,610377bad87e153c2cccc7fe,2021-07-30_06h01.01.187,Simcolourproject_2stim_asymm_v5,2020.2.10,Win32,60,61025ae37ef11b136ea224fe,,,,,,,,,2130,52.80001223,130.3999955,1,0,0,response1disk,,7,13.60006047,-2.400006473,1,0,0,rectangle,13.60006047,-2.400006473,1,0,0,,,,,,,13.60006047,-2.400006473,1,0,0,,0,70,70,11,1,
,,,,,,,,,,,,,FF,,,,,,,,2.4658,,,,,,,,,,,,,,,,,,,,,,5b76e19d948cc40001da0e50,610377bad87e153c2cccc7fe,2021-07-30_06h01.01.187,Simcolourproject_2stim_asymm_v5,2020.2.10,Win32,60,61025ae37ef11b136ea224fe,,,,,,,,,3173,52.80001223,-83.20000768,1,0,0,response3disk,,4,4.000011504,-9.60000658,1,0,0,rectangle,4.000011504,-9.60000658,1,0,0,,,,,,,4.000011504,-9.60000658,1,0,0,,0,71,71,153,1,
,,,,,,,,,,,,,FF,,,,,,,,3.8162,,,,,,,,,,,,,,,,,,,,,,5b76e19d948cc40001da0e50,610377bad87e153c2cccc7fe,2021-07-30_06h01.01.187,Simcolourproject_2stim_asymm_v5,2020.2.10,Win32,60,61025ae37ef11b136ea224fe,,,,,,,,,2548,-87.19998986,-32.00000691,1,0,0,response5disk,,2,1.600060296,-4.800006509,1,0,0,rectangle,1.600060296,-4.800006509,1,0,0,,,,,,,1.600060296,-4.800006509,1,0,0,,0,72,72,13,1,
,,,,,,,,,,,,,FF,,,,,,,,1.9498,,,,,,,,,,,,,,,,,,,,,,5b76e19d948cc40001da0e50,610377bad87e153c2cccc7fe,2021-07-30_06h01.01.187,Simcolourproject_2stim_asymm_v5,2020.2.10,Win32,60,61025ae37ef11b136ea224fe,,,,,,,,,3880,-71.99998963,-50.40000719,1,0,0,response5disk,,2,-19.19998884,-16.80000669,1,0,0,rectangle,-19.19998884,-16.80000669,1,0,0,,,,,,,-19.19998884,-16.80000669,1,0,0,,0,73,73,68,1,
,,,,,,,,,,,,,FF,,,,,,,,1.8504,,,,,,,,,,,,,,,,,,,,,,5b76e19d948cc40001da0e50,610377bad87e153c2cccc7fe,2021-07-30_06h01.01.187,Simcolourproject_2stim_asymm_v5,2020.2.10,Win32,60,61025ae37ef11b136ea224fe,,,,,,,,,911,-43.99998921,-72.00000751,1,0,0,response5disk,,3,12.80001163,1.599993587,1,0,0,rectangle,12.80001163,1.599993587,1,0,0,,,,,,,12.80001163,1.599993587,1,0,0,,0,74,74,157,1,
,,,,,,,,,,,,,FF,,,,,,,,3.0809,,,,,,,,,,,,,,,,,,,,,,5b76e19d948cc40001da0e50,610377bad87e153c2cccc7fe,2021-07-30_06h01.01.187,Simcolourproject_2stim_asymm_v5,2020.2.10,Win32,60,61025ae37ef11b136ea224fe,,,,,,,,,1948,109.6000131,58.39999443,1,0,0,response1disk,,6,-3.999988616,0.799993575,1,0,0,rectangle,-3.999988616,0.799993575,1,0,0,,,,,,,-3.999988616,0.799993575,1,0,0,,0,75,75,74,1,
,,,,,,,,,,,,,FF,,,,,,,,3.8998,,,,,,,,,,,,,,,,,,,,,,5b76e19d948cc40001da0e50,610377bad87e153c2cccc7fe,2021-07-30_06h01.01.187,Simcolourproject_2stim_asymm_v5,2020.2.10,Win32,60,61025ae37ef11b136ea224fe,,,,,,,,,1872,100.8000129,54.39999437,1,0,0,response1disk,,6,5.600060356,7.19999367,1,0,0,rectangle,5.600060356,7.19999367,1,0,0,,,,,,,5.600060356,7.19999367,1,0,0,,0,76,76,53,1,
,,,,,,,,,,,,,FF,,,,,,,,2.9837,,,,,,,,,,,,,,,,,,,,,,5b76e19d948cc40001da0e50,610377bad87e153c2cccc7fe,2021-07-30_06h01.01.187,Simcolourproject_2stim_asymm_v5,2020.2.10,Win32,60,61025ae37ef11b136ea224fe,,,,,,,,,1440,33.60006077,-92.00000781,1,0,0,response3disk,,4,-7.999988675,-4.800006509,1,0,0,rectangle,-7.999988675,-4.800006509,1,0,0,,,,,,,-7.999988675,-4.800006509,1,0,0,,0,77,77,112,1,
,,,,,,,,,,,,,FF,,,,,,,,1.6835,,,,,,,,,,,,,,,,,,,,,,5b76e19d948cc40001da0e50,610377bad87e153c2cccc7fe,2021-07-30_06h01.01.187,Simcolourproject_2stim_asymm_v5,2020.2.10,Win32,60,61025ae37ef11b136ea224fe,,,,,,,,,368,-87.19998986,-40.80000705,1,0,0,response5disk,,2,-11.19998872,-3.200006485,1,0,0,rectangle,-11.19998872,-3.200006485,1,0,0,,,,,,,-11.19998872,-3.200006485,1,0,0,,0,78,78,95,1,
,,,,,,,,,,,,,FF,,,,,,,,2.2171,,,,,,,,,,,,,,,,,,,,,,5b76e19d948cc40001da0e50,610377bad87e153c2cccc7fe,2021-07-30_06h01.01.187,Simcolourproject_2stim_asymm_v5,2020.2.10,Win32,60,61025ae37ef11b136ea224fe,,,,,,,,,1769,83.20001268,-32.80000693,1,0,0,response3disk,,5,29.60006071,-6.400006533,1,0,0,rectangle,29.60006071,-6.400006533,1,0,0,,,,,,,29.60006071,-6.400006533,1,0,0,,0,79,79,145,1,
,,,,,,,,,,,,,FF,,,,,,,,1.4,,,,,,,,,,,,,,,,,,,,,,5b76e19d948cc40001da0e50,610377bad87e153c2cccc7fe,2021-07-30_06h01.01.187,Simcolourproject_2stim_asymm_v5,2020.2.10,Win32,60,61025ae37ef11b136ea224fe,,,,,,,,,3326,-48.79998928,-75.20000756,1,0,0,response5disk,,3,-5.599988639,-4.000006497,1,0,0,rectangle,-5.599988639,-4.000006497,1,0,0,,,,,,,-5.599988639,-4.000006497,1,0,0,,0,80,80,82,1,
,,,,,,,,,,,,,FF,,,,,,,,1.3836,,,,,,,,,,,,,,,,,,,,,,5b76e19d948cc40001da0e50,610377bad87e153c2cccc7fe,2021-07-30_06h01.01.187,Simcolourproject_2stim_asymm_v5,2020.2.10,Win32,60,61025ae37ef11b136ea224fe,,,,,,,,,739,57.6000123,106.3999951,1,0,0,response1disk,,7,-5.599988639,1.599993587,1,0,0,rectangle,-5.599988639,1.599993587,1,0,0,,,,,,,-5.599988639,1.599993587,1,0,0,,0,81,81,140,1,
,,,,,,,,,,,,,FF,,,,,,,,1.9327,,,,,,,,,,,,,,,,,,,,,,5b76e19d948cc40001da0e50,610377bad87e153c2cccc7fe,2021-07-30_06h01.01.187,Simcolourproject_2stim_asymm_v5,2020.2.10,Win32,60,61025ae37ef11b136ea224fe,,,,,,,,,1691,-40.79998916,-98.4000079,1,0,0,response5disk,,3,0.800011456,4.799993634,1,0,0,rectangle,0.800011456,4.799993634,1,0,0,,,,,,,0.800011456,4.799993634,1,0,0,,0,82,82,156,1,
,,,,,,,,,,,,,FF,,,,,,,,1.5828,,,,,,,,,,,,,,,,,,,,,,5b76e19d948cc40001da0e50,610377bad87e153c2cccc7fe,2021-07-30_06h01.01.187,Simcolourproject_2stim_asymm_v5,2020.2.10,Win32,60,61025ae37ef11b136ea224fe,,,,,,,,,1188,86.40001273,-28.80000687,1,0,0,response3disk,,5,10.4000116,1.599993587,1,0,0,rectangle,10.4000116,1.599993587,1,0,0,,,,,,,10.4000116,1.599993587,1,0,0,,0,83,83,123,1,
,,,,,,,,,,,,,FF,,,,,,,,2.267,,,,,,,,,,,,,,,,,,,,,,5b76e19d948cc40001da0e50,610377bad87e153c2cccc7fe,2021-07-30_06h01.01.187,Simcolourproject_2stim_asymm_v5,2020.2.10,Win32,60,61025ae37ef11b136ea224fe,,,,,,,,,2867,70.40001249,-39.20000702,1,0,0,response3disk,,5,14.40001166,-4.800006509,1,0,0,rectangle,14.40001166,-4.800006509,1,0,0,,,,,,,14.40001166,-4.800006509,1,0,0,,0,84,84,46,1,
,,,,,,,,,,,,,FF,,,,,,,,1.2337,,,,,,,,,,,,,,,,,,,,,,5b76e19d948cc40001da0e50,610377bad87e153c2cccc7fe,2021-07-30_06h01.01.187,Simcolourproject_2stim_asymm_v5,2020.2.10,Win32,60,61025ae37ef11b136ea224fe,,,,,,,,,2081,116.0000132,35.9999941,1,0,0,response1disk,,6,24.0000118,2.399993598,1,0,0,rectangle,24.0000118,2.399993598,1,0,0,,,,,,,24.0000118,2.399993598,1,0,0,,0,85,85,142,1,
,,,,,,,,,,,,,FF,,,,,,,,1.1333,,,,,,,,,,,,,,,,,,,,,,5b76e19d948cc40001da0e50,610377bad87e153c2cccc7fe,2021-07-30_06h01.01.187,Simcolourproject_2stim_asymm_v5,2020.2.10,Win32,60,61025ae37ef11b136ea224fe,,,,,,,,,643,92.00001281,40.79999417,1,0,0,response1disk,,6,20.80001175,10.39999372,1,0,0,rectangle,20.80001175,10.39999372,1,0,0,,,,,,,20.80001175,10.39999372,1,0,0,,0,86,86,117,1,
,,,,,,,,,,,,,FF,,,,,,,,1.9836,,,,,,,,,,,,,,,,,,,,,,5b76e19d948cc40001da0e50,610377bad87e153c2cccc7fe,2021-07-30_06h01.01.187,Simcolourproject_2stim_asymm_v5,2020.2.10,Win32,60,61025ae37ef11b136ea224fe,,,,,,,,,979,-19.19998884,-76.80000758,1,0,0,response5disk,,3,23.20001179,-1.600006461,1,0,0,rectangle,23.20001179,-1.600006461,1,0,0,,,,,,,23.20001179,-1.600006461,1,0,0,,0,87,87,98,1,
,,,,,,,,,,,,,FF,,,,,,,,1.6837,,,,,,,,,,,,,,,,,,,,,,5b76e19d948cc40001da0e50,610377bad87e153c2cccc7fe,2021-07-30_06h01.01.187,Simcolourproject_2stim_asymm_v5,2020.2.10,Win32,60,61025ae37ef11b136ea224fe,,,,,,,,,3441,-80.79998976,29.599994,1,0,0,response7disk,,1,-11.19998872,7.999993682,1,0,0,rectangle,-11.19998872,7.999993682,1,0,0,,,,,,,-11.19998872,7.999993682,1,0,0,,0,88,88,16,1,
,,,,,,,,,,,,,FF,,,,,,,,1.8166,,,,,,,,,,,,,,,,,,,,,,5b76e19d948cc40001da0e50,610377bad87e153c2cccc7fe,2021-07-30_06h01.01.187,Simcolourproject_2stim_asymm_v5,2020.2.10,Win32,60,61025ae37ef11b136ea224fe,,,,,,,,,3220,73.60001254,-38.40000701,1,0,0,response3disk,,5,29.60006071,-7.200006545,1,0,0,rectangle,29.60006071,-7.200006545,1,0,0,,,,,,,29.60006071,-7.200006545,1,0,0,,0,89,89,107,1,
,,,,,,,,,,,,,FF,,,,,,,,2.3671,,,,,,,,,,,,,,,,,,,,,,5b76e19d948cc40001da0e50,610377bad87e153c2cccc7fe,2021-07-30_06h01.01.187,Simcolourproject_2stim_asymm_v5,2020.2.10,Win32,60,61025ae37ef11b136ea224fe,,,,,,,,,4086,76.00001258,-30.40000689,1,0,0,response3disk,,5,15.20001167,7.19999367,1,0,0,rectangle,15.20001167,7.19999367,1,0,0,,,,,,,15.20001167,7.19999367,1,0,0,,0,90,90,97,1,
,,,,,,,,,,,,,FF,,,,,,,,1.7339,,,,,,,,,,,,,,,,,,,,,,5b76e19d948cc40001da0e50,610377bad87e153c2cccc7fe,2021-07-30_06h01.01.187,Simcolourproject_2stim_asymm_v5,2020.2.10,Win32,60,61025ae37ef11b136ea224fe,,,,,,,,,1960,-27.19998896,-115.2000082,1,0,0,response5disk,,3,-0.799988568,-0.800006449,1,0,0,rectangle,-0.799988568,-0.800006449,1,0,0,,,,,,,-0.799988568,-0.800006449,1,0,0,,0,91,91,126,1,
,,,,,,,,,,,,,FF,,,,,,,,4.2,,,,,,,,,,,,,,,,,,,,,,5b76e19d948cc40001da0e50,610377bad87e153c2cccc7fe,2021-07-30_06h01.01.187,Simcolourproject_2stim_asymm_v5,2020.2.10,Win32,60,61025ae37ef11b136ea224fe,,,,,,,,,2897,104.800013,-17.6000067,1,0,0,response3disk,,5,2.40001148,-1.600006461,1,0,0,rectangle,2.40001148,-1.600006461,1,0,0,,,,,,,2.40001148,-1.600006461,1,0,0,,0,92,92,32,1,
,,,,,,,,,,,,,FF,,,,,,,,2.4005,,,,,,,,,,,,,,,,,,,,,,5b76e19d948cc40001da0e50,610377bad87e153c2cccc7fe,2021-07-30_06h01.01.187,Simcolourproject_2stim_asymm_v5,2020.2.10,Win32,60,61025ae37ef11b136ea224fe,,,,,,,,,427,80.80001265,-27.20000684,1,0,0,response3disk,,5,12.80001163,7.999993682,1,0,0,rectangle,12.80001163,7.999993682,1,0,0,,,,,,,12.80001163,7.999993682,1,0,0,,0,93,93,135,1,
,,,,,,,,,,,,,FF,,,,,,,,1.9,,,,,,,,,,,,,,,,,,,,,,5b76e19d948cc40001da0e50,610377bad87e153c2cccc7fe,2021-07-30_06h01.01.187,Simcolourproject_2stim_asymm_v5,2020.2.10,Win32,60,61025ae37ef11b136ea224fe,,,,,,,,,3722,83.20001268,31.99999404,1,0,0,response1disk,,6,27.20001185,2.399993598,1,0,0,rectangle,27.20001185,2.399993598,1,0,0,,,,,,,27.20001185,2.399993598,1,0,0,,0,94,94,41,1,
,,,,,,,,,,,,,FF,,,,,,,,3.2172,,,,,,,,,,,,,,,,,,,,,,5b76e19d948cc40001da0e50,610377bad87e153c2cccc7fe,2021-07-30_06h01.01.187,Simcolourproject_2stim_asymm_v5,2020.2.10,Win32,60,61025ae37ef11b136ea224fe,,,,,,,,,1756,-34.39994024,-99.20000792,1,0,0,response5disk,,3,8.800011575,-12.80000663,1,0,0,rectangle,8.800011575,-12.80000663,1,0,0,,,,,,,8.800011575,-12.80000663,1,0,0,,0,95,95,133,1,
,,,,,,,,,,,,,FF,,,,,,,,3.9337,,,,,,,,,,,,,,,,,,,,,,5b76e19d948cc40001da0e50,610377bad87e153c2cccc7fe,2021-07-30_06h01.01.187,Simcolourproject_2stim_asymm_v5,2020.2.10,Win32,60,61025ae37ef11b136ea224fe,,,,,,,,,3652,102.400013,39.99999416,1,0,0,response1disk,,6,-7.999988675,2.399993598,1,0,0,rectangle,-7.999988675,2.399993598,1,0,0,,,,,,,-7.999988675,2.399993598,1,0,0,,0,96,96,141,1,
,,,,,,,,,,,,,FF,,,,,,,,2.2003,,,,,,,,,,,,,,,,,,,,,,5b76e19d948cc40001da0e50,610377bad87e153c2cccc7fe,2021-07-30_06h01.01.187,Simcolourproject_2stim_asymm_v5,2020.2.10,Win32,60,61025ae37ef11b136ea224fe,,,,,,,,,3661,-90.39994107,-51.2000072,1,0,0,response5disk,,2,-6.399939823,0.799993575,1,0,0,rectangle,-6.399939823,0.799993575,1,0,0,,,,,,,-6.399939823,0.799993575,1,0,0,,0,97,97,22,1,
,,,,,,,,,,,,,FF,,,,,,,,4.1006,,,,,,,,,,,,,,,,,,,,,,5b76e19d948cc40001da0e50,610377bad87e153c2cccc7fe,2021-07-30_06h01.01.187,Simcolourproject_2stim_asymm_v5,2020.2.10,Win32,60,61025ae37ef11b136ea224fe,,,,,,,,,2860,100.0000129,-32.80000693,1,0,0,response3disk,,5,-12.79998875,3.999993622,1,0,0,rectangle,-12.79998875,3.999993622,1,0,0,,,,,,,-12.79998875,3.999993622,1,0,0,,0,98,98,75,1,
,,,,,,,,,,,,,FF,,,,,,,,1.2197,,,,,,,,,,,,,,,,,,,,,,5b76e19d948cc40001da0e50,610377bad87e153c2cccc7fe,2021-07-30_06h01.01.187,Simcolourproject_2stim_asymm_v5,2020.2.10,Win32,60,61025ae37ef11b136ea224fe,,,,,,,,,390,92.80001283,32.79999405,1,0,0,response1disk,,6,13.60006047,-9.60000658,1,0,0,rectangle,13.60006047,-9.60000658,1,0,0,,,,,,,13.60006047,-9.60000658,1,0,0,,0,99,99,69,1,
,,,,,,,,,,,,,FF,,,,,,,,1.1833,,,,,,,,,,,,,,,,,,,,,,5b76e19d948cc40001da0e50,610377bad87e153c2cccc7fe,2021-07-30_06h01.01.187,Simcolourproject_2stim_asymm_v5,2020.2.10,Win32,60,61025ae37ef11b136ea224fe,,,,,,,,,2072,100.8000129,60.79999447,1,0,0,response1disk,,6,8.800011575,7.19999367,1,0,0,rectangle,8.800011575,7.19999367,1,0,0,,,,,,,8.800011575,7.19999367,1,0,0,,0,100,100,20,1,
,,,,,,,,,,,,,FF,,,,,,,,2.1496,,,,,,,,,,,,,,,,,,,,,,5b76e19d948cc40001da0e50,610377bad87e153c2cccc7fe,2021-07-30_06h01.01.187,Simcolourproject_2stim_asymm_v5,2020.2.10,Win32,60,61025ae37ef11b136ea224fe,,,,,,,,,69,49.60006101,114.3999953,1,0,0,response1disk,,7,-8.799988687,3.19999361,1,0,0,rectangle,-8.799988687,3.19999361,1,0,0,,,,,,,-8.799988687,3.19999361,1,0,0,,0,101,101,118,1,
,,,,,,,,,,,,,FF,,,,,,,,1.2335,,,,,,,,,,,,,,,,,,,,,,5b76e19d948cc40001da0e50,610377bad87e153c2cccc7fe,2021-07-30_06h01.01.187,Simcolourproject_2stim_asymm_v5,2020.2.10,Win32,60,61025ae37ef11b136ea224fe,,,,,,,,,2205,38.40001202,75.19997027,1,0,0,response1disk,,7,-4.799988627,-8.800006568,1,0,0,rectangle,-4.799988627,-8.800006568,1,0,0,,,,,,,-4.799988627,-8.800006568,1,0,0,,0,102,102,109,1,
,,,,,,,,,,,,,FF,,,,,,,,0.9839,,,,,,,,,,,,,,,,,,,,,,5b76e19d948cc40001da0e50,610377bad87e153c2cccc7fe,2021-07-30_06h01.01.187,Simcolourproject_2stim_asymm_v5,2020.2.10,Win32,60,61025ae37ef11b136ea224fe,,,,,,,,,2504,56.00001228,97.59999502,1,0,0,response1disk,,7,6.400011539,7.19999367,1,0,0,rectangle,6.400011539,7.19999367,1,0,0,,,,,,,6.400011539,7.19999367,1,0,0,,0,103,103,125,1,
,,,,,,,,,,,,,FF,,,,,,,,2.5166,,,,,,,,,,,,,,,,,,,,,,5b76e19d948cc40001da0e50,610377bad87e153c2cccc7fe,2021-07-30_06h01.01.187,Simcolourproject_2stim_asymm_v5,2020.2.10,Win32,60,61025ae37ef11b136ea224fe,,,,,,,,,625,48.00001216,-88.00000775,1,0,0,response3disk,,4,-1.59998858,-8.000006557,1,0,0,rectangle,-1.59998858,-8.000006557,1,0,0,,,,,,,-1.59998858,-8.000006557,1,0,0,,0,104,104,146,1,
,,,,,,,,,,,,,FF,,,,,,,,1.7338,,,,,,,,,,,,,,,,,,,,,,5b76e19d948cc40001da0e50,610377bad87e153c2cccc7fe,2021-07-30_06h01.01.187,Simcolourproject_2stim_asymm_v5,2020.2.10,Win32,60,61025ae37ef11b136ea224fe,,,,,,,,,2172,37.60006083,-85.60005654,1,0,0,response3disk,,4,-4.799988627,10.39999372,1,0,0,rectangle,-4.799988627,10.39999372,1,0,0,,,,,,,-4.799988627,10.39999372,1,0,0,,0,105,105,73,1,
,,,,,,,,,,,,,FF,,,,,,,,3.0334,,,,,,,,,,,,,,,,,,,,,,5b76e19d948cc40001da0e50,610377bad87e153c2cccc7fe,2021-07-30_06h01.01.187,Simcolourproject_2stim_asymm_v5,2020.2.10,Win32,60,61025ae37ef11b136ea224fe,,,,,,,,,3615,114.4000131,-30.40000689,1,0,0,response3disk,,5,27.20001185,9.599993706,1,0,0,rectangle,27.20001185,9.599993706,1,0,0,,,,,,,27.20001185,9.599993706,1,0,0,,0,106,106,148,1,
,,,,,,,,,,,,,FF,,,,,,,,1.0669,,,,,,,,,,,,,,,,,,,,,,5b76e19d948cc40001da0e50,610377bad87e153c2cccc7fe,2021-07-30_06h01.01.187,Simcolourproject_2stim_asymm_v5,2020.2.10,Win32,60,61025ae37ef11b136ea224fe,,,,,,,,,2995,87.20001274,39.19996973,1,0,0,response1disk,,6,24.0000118,3.999993622,1,0,0,rectangle,39.20001203,81.59999478,1,0,0,response1disk_3,TRUE,7,7,"[315,289,310,291,236,108,168,245,8,236,122,166,265,226,164,1,16,52,6,173]",1.8003,5.600060356,-4.000006497,1,0,0,rectangle,0,107,107,44,1,
,,,,,,,,,,,,,FF,,,,,,,,3.5338,,,,,,,,,,,,,,,,,,,,,,5b76e19d948cc40001da0e50,610377bad87e153c2cccc7fe,2021-07-30_06h01.01.187,Simcolourproject_2stim_asymm_v5,2020.2.10,Win32,60,61025ae37ef11b136ea224fe,,,,,,,,,269,64.80001241,31.99999404,1,0,0,response1disk,,6,4.800011516,8.799993694,1,0,0,rectangle,4.800011516,8.799993694,1,0,0,,,,,,,4.800011516,8.799993694,1,0,0,,0,108,108,77,1,
,,,,,,,,,,,,,FF,,,,,,,,2.9327,,,,,,,,,,,,,,,,,,,,,,5b76e19d948cc40001da0e50,610377bad87e153c2cccc7fe,2021-07-30_06h01.01.187,Simcolourproject_2stim_asymm_v5,2020.2.10,Win32,60,61025ae37ef11b136ea224fe,,,,,,,,,360,40.00001204,-82.40000767,1,0,0,response3disk,,4,-8.799988687,-15.20000666,1,0,0,rectangle,-8.799988687,-15.20000666,1,0,0,,,,,,,-8.799988687,-15.20000666,1,0,0,,0,109,109,43,1,
,,,,,,,,,,,,,FF,,,,,,,,1.0505,,,,,,,,,,,,,,,,,,,,,,5b76e19d948cc40001da0e50,610377bad87e153c2cccc7fe,2021-07-30_06h01.01.187,Simcolourproject_2stim_asymm_v5,2020.2.10,Win32,60,61025ae37ef11b136ea224fe,,,,,,,,,4057,56.00001228,-109.6000569,1,0,0,response3disk,,4,-8.799988687,3.999993622,1,0,0,rectangle,-8.799988687,3.999993622,1,0,0,,,,,,,-8.799988687,3.999993622,1,0,0,,0,110,110,55,1,
,,,,,,,,,,,,,FF,,,,,,,,1.9001,,,,,,,,,,,,,,,,,,,,,,5b76e19d948cc40001da0e50,610377bad87e153c2cccc7fe,2021-07-30_06h01.01.187,Simcolourproject_2stim_asymm_v5,2020.2.10,Win32,60,61025ae37ef11b136ea224fe,,,,,,,,,3140,-47.99998927,-120.0000082,1,0,0,response5disk,,3,-0.799988568,-5.600006521,1,0,0,rectangle,-0.799988568,-5.600006521,1,0,0,,,,,,,-0.799988568,-5.600006521,1,0,0,,0,111,111,45,1,
,,,,,,,,,,,,,FF,,,,,,,,1.3004,,,,,,,,,,,,,,,,,,,,,,5b76e19d948cc40001da0e50,610377bad87e153c2cccc7fe,2021-07-30_06h01.01.187,Simcolourproject_2stim_asymm_v5,2020.2.10,Win32,60,61025ae37ef11b136ea224fe,,,,,,,,,2284,51.20001221,-65.60000741,1,0,0,response3disk,,4,24.80001181,-11.2000066,1,0,0,rectangle,24.80001181,-11.2000066,1,0,0,,,,,,,24.80001181,-11.2000066,1,0,0,,0,112,112,7,1,
,,,,,,,,,,,,,FF,,,,,,,,1.917,,,,,,,,,,,,,,,,,,,,,,5b76e19d948cc40001da0e50,610377bad87e153c2cccc7fe,2021-07-30_06h01.01.187,Simcolourproject_2stim_asymm_v5,2020.2.10,Win32,60,61025ae37ef11b136ea224fe,,,,,,,,,1577,73.60001254,-36.80000699,1,0,0,response3disk,,5,-13.59998876,-4.800006509,1,0,0,rectangle,-13.59998876,-4.800006509,1,0,0,,,,,,,-13.59998876,-4.800006509,1,0,0,,0,113,113,23,1,
,,,,,,,,,,,,,FF,,,,,,,,1.9504,,,,,,,,,,,,,,,,,,,,,,5b76e19d948cc40001da0e50,610377bad87e153c2cccc7fe,2021-07-30_06h01.01.187,Simcolourproject_2stim_asymm_v5,2020.2.10,Win32,60,61025ae37ef11b136ea224fe,,,,,,,,,2475,42.40001208,103.1999707,1,0,0,response1disk,,7,-11.99998873,-6.400006533,1,0,0,rectangle,-11.99998873,-6.400006533,1,0,0,,,,,,,-11.99998873,-6.400006533,1,0,0,,0,114,114,62,1,
,,,,,,,,,,,,,FF,,,,,,,,0.9496,,,,,,,,,,,,,,,,,,,,,,5b76e19d948cc40001da0e50,610377bad87e153c2cccc7fe,2021-07-30_06h01.01.187,Simcolourproject_2stim_asymm_v5,2020.2.10,Win32,60,61025ae37ef11b136ea224fe,,,,,,,,,1848,50.4000122,92.79999495,1,0,0,response1disk,,7,-12.79998875,-9.60000658,1,0,0,rectangle,-12.79998875,-9.60000658,1,0,0,,,,,,,-12.79998875,-9.60000658,1,0,0,,0,115,115,8,1,
,,,,,,,,,,,,,FF,,,,,,,,2.0502,,,,,,,,,,,,,,,,,,,,,,5b76e19d948cc40001da0e50,610377bad87e153c2cccc7fe,2021-07-30_06h01.01.187,Simcolourproject_2stim_asymm_v5,2020.2.10,Win32,60,61025ae37ef11b136ea224fe,,,,,,,,,695,-90.39994107,-42.40000707,1,0,0,response5disk,,2,20.80001175,10.39999372,1,0,0,rectangle,20.80001175,10.39999372,1,0,0,,,,,,,20.80001175,10.39999372,1,0,0,,0,116,116,50,1,
,,,,,,,,,,,,,FF,,,,,,,,2.5666,,,,,,,,,,,,,,,,,,,,,,5b76e19d948cc40001da0e50,610377bad87e153c2cccc7fe,2021-07-30_06h01.01.187,Simcolourproject_2stim_asymm_v5,2020.2.10,Win32,60,61025ae37ef11b136ea224fe,,,,,,,,,3574,79.20001262,35.19996967,1,0,0,response1disk,,6,7.200011551,3.999993622,1,0,0,rectangle,7.200011551,3.999993622,1,0,0,,,,,,,7.200011551,3.999993622,1,0,0,,0,117,117,101,1,
,,,,,,,,,,,,,FF,,,,,,,,1.5997,,,,,,,,,,,,,,,,,,,,,,5b76e19d948cc40001da0e50,610377bad87e153c2cccc7fe,2021-07-30_06h01.01.187,Simcolourproject_2stim_asymm_v5,2020.2.10,Win32,60,61025ae37ef11b136ea224fe,,,,,,,,,2932,-27.19998896,-75.20000756,1,0,0,response5disk,,3,9.600060415,-6.4373E-06,1,0,0,rectangle,9.600060415,-6.4373E-06,1,0,0,,,,,,,9.600060415,-6.4373E-06,1,0,0,,0,118,118,49,1,
,,,,,,,,,,,,,FF,,,,,,,,1.7169,,,,,,,,,,,,,,,,,,,,,,5b76e19d948cc40001da0e50,610377bad87e153c2cccc7fe,2021-07-30_06h01.01.187,Simcolourproject_2stim_asymm_v5,2020.2.10,Win32,60,61025ae37ef11b136ea224fe,,,,,,,,,3794,98.40001291,-47.20000714,1,0,0,response3disk,,5,-2.399939764,-1.600006461,1,0,0,rectangle,-2.399939764,-1.600006461,1,0,0,,,,,,,-2.399939764,-1.600006461,1,0,0,,0,119,119,30,1,
,,,,,,,,,,,,,FF,,,,,,,,1.1671,,,,,,,,,,,,,,,,,,,,,,5b76e19d948cc40001da0e50,610377bad87e153c2cccc7fe,2021-07-30_06h01.01.187,Simcolourproject_2stim_asymm_v5,2020.2.10,Win32,60,61025ae37ef11b136ea224fe,,,,,,,,,2626,30.4000119,99.99999505,1,0,0,response1disk,,7,-9.599988699,11.99999374,1,0,0,rectangle,-9.599988699,11.99999374,1,0,0,,,,,,,-9.599988699,11.99999374,1,0,0,,0,120,120,14,1,
,,,,,,,,,,,,,FF,,,,,,,,1.4505,,,,,,,,,,,,,,,,,,,,,,5b76e19d948cc40001da0e50,610377bad87e153c2cccc7fe,2021-07-30_06h01.01.187,Simcolourproject_2stim_asymm_v5,2020.2.10,Win32,60,61025ae37ef11b136ea224fe,,,,,,,,,3679,72.00001252,-28.00000685,1,0,0,response3disk,,5,17.60006053,-4.800006509,1,0,0,rectangle,125.6000133,59.19997003,1,0,0,response1disk_3,TRUE,6,6,"[315,289,310,291,236,108,168,245,8,236,122,166,265,226,164,1,16,52,6,173]",1.7991,-9.599988699,5.599993646,1,0,0,rectangle,0,121,121,106,1,
,,,,,,,,,,,,,FF,,,,,,,,2.0169,,,,,,,,,,,,,,,,,,,,,,5b76e19d948cc40001da0e50,610377bad87e153c2cccc7fe,2021-07-30_06h01.01.187,Simcolourproject_2stim_asymm_v5,2020.2.10,Win32,60,61025ae37ef11b136ea224fe,,,,,,,,,4297,-68.79998958,-38.40000701,1,0,0,response5disk,,2,-15.99998879,0.799993575,1,0,0,rectangle,-15.99998879,0.799993575,1,0,0,,,,,,,-15.99998879,0.799993575,1,0,0,,0,122,122,96,1,
,,,,,,,,,,,,,FF,,,,,,,,3.1168,,,,,,,,,,,,,,,,,,,,,,5b76e19d948cc40001da0e50,610377bad87e153c2cccc7fe,2021-07-30_06h01.01.187,Simcolourproject_2stim_asymm_v5,2020.2.10,Win32,60,61025ae37ef11b136ea224fe,,,,,,,,,1999,96.00001287,35.19996967,1,0,0,response1disk,,6,18.40001172,-3.200006485,1,0,0,rectangle,18.40001172,-3.200006485,1,0,0,,,,,,,18.40001172,-3.200006485,1,0,0,,0,123,123,87,1,
,,,,,,,,,,,,,FF,,,,,,,,1.4836,,,,,,,,,,,,,,,,,,,,,,5b76e19d948cc40001da0e50,610377bad87e153c2cccc7fe,2021-07-30_06h01.01.187,Simcolourproject_2stim_asymm_v5,2020.2.10,Win32,60,61025ae37ef11b136ea224fe,,,,,,,,,1822,-94.39994113,45.59999424,1,0,0,response7disk,,1,12.80001163,-14.40000665,1,0,0,rectangle,12.80001163,-14.40000665,1,0,0,,,,,,,12.80001163,-14.40000665,1,0,0,,0,124,124,25,1,
,,,,,,,,,,,,,FF,,,,,,,,2.2167,,,,,,,,,,,,,,,,,,,,,,5b76e19d948cc40001da0e50,610377bad87e153c2cccc7fe,2021-07-30_06h01.01.187,Simcolourproject_2stim_asymm_v5,2020.2.10,Win32,60,61025ae37ef11b136ea224fe,,,,,,,,,3902,-95.19998997,-38.40000701,1,0,0,response5disk,,2,-13.59998876,-5.600006521,1,0,0,rectangle,-13.59998876,-5.600006521,1,0,0,,,,,,,-13.59998876,-5.600006521,1,0,0,,0,125,125,83,1,
,,,,,,,,,,,,,FF,,,,,,,,4.6166,,,,,,,,,,,,,,,,,,,,,,5b76e19d948cc40001da0e50,610377bad87e153c2cccc7fe,2021-07-30_06h01.01.187,Simcolourproject_2stim_asymm_v5,2020.2.10,Win32,60,61025ae37ef11b136ea224fe,,,,,,,,,3923,44.0000121,-77.60000759,1,0,0,response3disk,,4,4.800011516,-3.200006485,1,0,0,rectangle,4.800011516,-3.200006485,1,0,0,,,,,,,4.800011516,-3.200006485,1,0,0,,0,126,126,52,1,
,,,,,,,,,,,,,FF,,,,,,,,1.6162,,,,,,,,,,,,,,,,,,,,,,5b76e19d948cc40001da0e50,610377bad87e153c2cccc7fe,2021-07-30_06h01.01.187,Simcolourproject_2stim_asymm_v5,2020.2.10,Win32,60,61025ae37ef11b136ea224fe,,,,,,,,,2248,79.20001262,-52.00000721,1,0,0,response3disk,,5,8.800011575,-0.800006449,1,0,0,rectangle,8.800011575,-0.800006449,1,0,0,,,,,,,8.800011575,-0.800006449,1,0,0,,0,127,127,60,1,
,,,,,,,,,,,,,FF,,,,,,,,2.2173,,,,,,,,,,,,,,,,,,,,,,5b76e19d948cc40001da0e50,610377bad87e153c2cccc7fe,2021-07-30_06h01.01.187,Simcolourproject_2stim_asymm_v5,2020.2.10,Win32,60,61025ae37ef11b136ea224fe,,,,,,,,,4165,102.400013,46.39999425,1,0,0,response1disk,,6,1.600060296,-8.800006568,1,0,0,rectangle,1.600060296,-8.800006568,1,0,0,,,,,,,1.600060296,-8.800006568,1,0,0,,0,128,128,134,1,
,,,,,,,,,,,,,FF,,,,,,,,2.6166,,,,,,,,,,,,,,,,,,,,,,5b76e19d948cc40001da0e50,610377bad87e153c2cccc7fe,2021-07-30_06h01.01.187,Simcolourproject_2stim_asymm_v5,2020.2.10,Win32,60,61025ae37ef11b136ea224fe,,,,,,,,,2164,-47.19998926,-86.40000772,1,0,0,response5disk,,3,-3.199988604,-6.400006533,1,0,0,rectangle,-3.199988604,-6.400006533,1,0,0,,,,,,,-3.199988604,-6.400006533,1,0,0,,0,129,129,88,1,
,,,,,,,,,,,,,FF,,,,,,,,1.3496,,,,,,,,,,,,,,,,,,,,,,5b76e19d948cc40001da0e50,610377bad87e153c2cccc7fe,2021-07-30_06h01.01.187,Simcolourproject_2stim_asymm_v5,2020.2.10,Win32,60,61025ae37ef11b136ea224fe,,,,,,,,,3180,25.60006065,-85.60005654,1,0,0,response3disk,,4,2.40001148,2.399993598,1,0,0,rectangle,2.40001148,2.399993598,1,0,0,,,,,,,2.40001148,2.399993598,1,0,0,,0,130,130,39,1,
,,,,,,,,,,,,,FF,,,,,,,,1.8669,,,,,,,,,,,,,,,,,,,,,,5b76e19d948cc40001da0e50,610377bad87e153c2cccc7fe,2021-07-30_06h01.01.187,Simcolourproject_2stim_asymm_v5,2020.2.10,Win32,60,61025ae37ef11b136ea224fe,,,,,,,,,3010,47.20001215,83.19997039,1,0,0,response1disk,,7,-10.39993988,1.599993587,1,0,0,rectangle,-10.39993988,1.599993587,1,0,0,,,,,,,-10.39993988,1.599993587,1,0,0,,0,131,131,94,1,
,,,,,,,,,,,,,FF,,,,,,,,1.4505,,,,,,,,,,,,,,,,,,,,,,5b76e19d948cc40001da0e50,610377bad87e153c2cccc7fe,2021-07-30_06h01.01.187,Simcolourproject_2stim_asymm_v5,2020.2.10,Win32,60,61025ae37ef11b136ea224fe,,,,,,,,,59,73.60001254,41.59999418,1,0,0,response1disk,,6,12.80001163,-0.800006449,1,0,0,rectangle,12.80001163,-0.800006449,1,0,0,,,,,,,12.80001163,-0.800006449,1,0,0,,0,132,132,92,1,
,,,,,,,,,,,,,FF,,,,,,,,2.3004,,,,,,,,,,,,,,,,,,,,,,5b76e19d948cc40001da0e50,610377bad87e153c2cccc7fe,2021-07-30_06h01.01.187,Simcolourproject_2stim_asymm_v5,2020.2.10,Win32,60,61025ae37ef11b136ea224fe,,,,,,,,,80,28.80001187,-97.60005672,1,0,0,response3disk,,4,-7.199988663,16.79999381,1,0,0,rectangle,-7.199988663,16.79999381,1,0,0,,,,,,,-7.199988663,16.79999381,1,0,0,,0,133,133,48,1,
,,,,,,,,,,,,,FF,,,,,,,,2.1837,,,,,,,,,,,,,,,,,,,,,,5b76e19d948cc40001da0e50,610377bad87e153c2cccc7fe,2021-07-30_06h01.01.187,Simcolourproject_2stim_asymm_v5,2020.2.10,Win32,60,61025ae37ef11b136ea224fe,,,,,,,,,256,-39.19998914,-92.00000781,1,0,0,response5disk,,3,20.80001175,10.39999372,1,0,0,rectangle,20.80001175,10.39999372,1,0,0,,,,,,,20.80001175,10.39999372,1,0,0,,0,134,134,27,1,
,,,,,,,,,,,,,FF,,,,,,,,1.1837,,,,,,,,,,,,,,,,,,,,,,5b76e19d948cc40001da0e50,610377bad87e153c2cccc7fe,2021-07-30_06h01.01.187,Simcolourproject_2stim_asymm_v5,2020.2.10,Win32,60,61025ae37ef11b136ea224fe,,,,,,,,,1542,-30.39994018,-81.60005648,1,0,0,response5disk,,3,-3.199988604,-15.20000666,1,0,0,rectangle,-3.199988604,-15.20000666,1,0,0,,,,,,,-3.199988604,-15.20000666,1,0,0,,0,135,135,155,1,
,,,,,,,,,,,,,FF,,,,,,,,1.7,,,,,,,,,,,,,,,,,,,,,,5b76e19d948cc40001da0e50,610377bad87e153c2cccc7fe,2021-07-30_06h01.01.187,Simcolourproject_2stim_asymm_v5,2020.2.10,Win32,60,61025ae37ef11b136ea224fe,,,,,,,,,4318,-79.99998975,-42.40000707,1,0,0,response5disk,,2,-12.79998875,7.999993682,1,0,0,rectangle,-12.79998875,7.999993682,1,0,0,,,,,,,-12.79998875,7.999993682,1,0,0,,0,136,136,6,1,
,,,,,,,,,,,,,FF,,,,,,,,1.617,,,,,,,,,,,,,,,,,,,,,,5b76e19d948cc40001da0e50,610377bad87e153c2cccc7fe,2021-07-30_06h01.01.187,Simcolourproject_2stim_asymm_v5,2020.2.10,Win32,60,61025ae37ef11b136ea224fe,,,,,,,,,1069,-48.79998928,-93.60005666,1,0,0,response5disk,,3,4.800011516,8.799993694,1,0,0,rectangle,4.800011516,8.799993694,1,0,0,,,,,,,4.800011516,8.799993694,1,0,0,,0,137,137,24,1,
,,,,,,,,,,,,,FF,,,,,,,,1.3502,,,,,,,,,,,,,,,,,,,,,,5b76e19d948cc40001da0e50,610377bad87e153c2cccc7fe,2021-07-30_06h01.01.187,Simcolourproject_2stim_asymm_v5,2020.2.10,Win32,60,61025ae37ef11b136ea224fe,,,,,,,,,2079,52.00001222,-84.8000077,1,0,0,response3disk,,4,2.40001148,-12.80000663,1,0,0,rectangle,2.40001148,-12.80000663,1,0,0,,,,,,,2.40001148,-12.80000663,1,0,0,,0,138,138,90,1,
,,,,,,,,,,,,,FF,,,,,,,,1.4839,,,,,,,,,,,,,,,,,,,,,,5b76e19d948cc40001da0e50,610377bad87e153c2cccc7fe,2021-07-30_06h01.01.187,Simcolourproject_2stim_asymm_v5,2020.2.10,Win32,60,61025ae37ef11b136ea224fe,,,,,,,,,4066,-32.79998904,-106.400008,1,0,0,response5disk,,3,25.60006065,-5.600006521,1,0,0,rectangle,25.60006065,-5.600006521,1,0,0,,,,,,,25.60006065,-5.600006521,1,0,0,,0,139,139,154,1,
,,,,,,,,,,,,,FF,,,,,,,,1.3333,,,,,,,,,,,,,,,,,,,,,,5b76e19d948cc40001da0e50,610377bad87e153c2cccc7fe,2021-07-30_06h01.01.187,Simcolourproject_2stim_asymm_v5,2020.2.10,Win32,60,61025ae37ef11b136ea224fe,,,,,,,,,3617,71.20001251,-40.80000705,1,0,0,response3disk,,5,-17.59998882,-7.200006545,1,0,0,rectangle,-17.59998882,-7.200006545,1,0,0,,,,,,,-17.59998882,-7.200006545,1,0,0,,0,140,140,71,1,
,,,,,,,,,,,,,FF,,,,,,,,1.5167,,,,,,,,,,,,,,,,,,,,,,5b76e19d948cc40001da0e50,610377bad87e153c2cccc7fe,2021-07-30_06h01.01.187,Simcolourproject_2stim_asymm_v5,2020.2.10,Win32,60,61025ae37ef11b136ea224fe,,,,,,,,,875,74.40001255,-20.00000674,1,0,0,response3disk,,5,14.40001166,-7.200006545,1,0,0,rectangle,14.40001166,-7.200006545,1,0,0,,,,,,,14.40001166,-7.200006545,1,0,0,,0,141,141,91,1,
,,,,,,,,,,,,,FF,,,,,,,,2.6495,,,,,,,,,,,,,,,,,,,,,,5b76e19d948cc40001da0e50,610377bad87e153c2cccc7fe,2021-07-30_06h01.01.187,Simcolourproject_2stim_asymm_v5,2020.2.10,Win32,60,61025ae37ef11b136ea224fe,,,,,,,,,3106,-82.39994096,-53.60000724,1,0,0,response5disk,,2,-1.59998858,6.399993658,1,0,0,rectangle,-1.59998858,6.399993658,1,0,0,,,,,,,-1.59998858,6.399993658,1,0,0,,0,142,142,65,1,
,,,,,,,,,,,,,FF,,,,,,,,2.0498,,,,,,,,,,,,,,,,,,,,,,5b76e19d948cc40001da0e50,610377bad87e153c2cccc7fe,2021-07-30_06h01.01.187,Simcolourproject_2stim_asymm_v5,2020.2.10,Win32,60,61025ae37ef11b136ea224fe,,,,,,,,,173,-45.59998924,-104.000008,1,0,0,response5disk,,3,-3.999988616,3.19999361,1,0,0,rectangle,-3.999988616,3.19999361,1,0,0,,,,,,,-3.999988616,3.19999361,1,0,0,,0,143,143,76,1,
,,,,,,,,,,,,,FF,,,,,,,,1.1508,,,,,,,,,,,,,,,,,,,,,,5b76e19d948cc40001da0e50,610377bad87e153c2cccc7fe,2021-07-30_06h01.01.187,Simcolourproject_2stim_asymm_v5,2020.2.10,Win32,60,61025ae37ef11b136ea224fe,,,,,,,,,1624,117.6000132,39.99999416,1,0,0,response1disk,,6,18.40001172,-16.80000669,1,0,0,rectangle,18.40001172,-16.80000669,1,0,0,,,,,,,18.40001172,-16.80000669,1,0,0,,0,144,144,3,1,
,,,,,,,,,,,,,FF,,,,,,,,3.3006,,,,,,,,,,,,,,,,,,,,,,5b76e19d948cc40001da0e50,610377bad87e153c2cccc7fe,2021-07-30_06h01.01.187,Simcolourproject_2stim_asymm_v5,2020.2.10,Win32,60,61025ae37ef11b136ea224fe,,,,,,,,,1431,18.40001172,-99.20000792,1,0,0,response3disk,,4,-2.399939764,11.99999374,1,0,0,rectangle,-2.399939764,11.99999374,1,0,0,,,,,,,-2.399939764,11.99999374,1,0,0,,0,145,145,57,1,
,,,,,,,,,,,,,FF,,,,,,,,1.167,,,,,,,,,,,,,,,,,,,,,,5b76e19d948cc40001da0e50,610377bad87e153c2cccc7fe,2021-07-30_06h01.01.187,Simcolourproject_2stim_asymm_v5,2020.2.10,Win32,60,61025ae37ef11b136ea224fe,,,,,,,,,2855,-27.99998897,-56.80000728,1,0,0,response5disk,,3,-4.799988627,-5.600006521,1,0,0,rectangle,-4.799988627,-5.600006521,1,0,0,,,,,,,-4.799988627,-5.600006521,1,0,0,,0,146,146,113,1,
,,,,,,,,,,,,,FF,,,,,,,,3.0831,,,,,,,,,,,,,,,,,,,,,,5b76e19d948cc40001da0e50,610377bad87e153c2cccc7fe,2021-07-30_06h01.01.187,Simcolourproject_2stim_asymm_v5,2020.2.10,Win32,60,61025ae37ef11b136ea224fe,,,,,,,,,1356,-18.39994,-97.60005672,1,0,0,response5disk,,3,2.40001148,-3.200006485,1,0,0,rectangle,2.40001148,-3.200006485,1,0,0,,,,,,,2.40001148,-3.200006485,1,0,0,,0,147,147,51,1,
,,,,,,,,,,,,,FF,,,,,,,,1.7334,,,,,,,,,,,,,,,,,,,,,,5b76e19d948cc40001da0e50,610377bad87e153c2cccc7fe,2021-07-30_06h01.01.187,Simcolourproject_2stim_asymm_v5,2020.2.10,Win32,60,61025ae37ef11b136ea224fe,,,,,,,,,3137,56.80001229,97.59999502,1,0,0,response1disk,,7,-4.799988627,3.19999361,1,0,0,rectangle,-4.799988627,3.19999361,1,0,0,,,,,,,-4.799988627,3.19999361,1,0,0,,0,148,148,61,1,
,,,,,,,,,,,,,FF,,,,,,,,0.7503,,,,,,,,,,,,,,,,,,,,,,5b76e19d948cc40001da0e50,610377bad87e153c2cccc7fe,2021-07-30_06h01.01.187,Simcolourproject_2stim_asymm_v5,2020.2.10,Win32,60,61025ae37ef11b136ea224fe,,,,,,,,,474,54.40001225,82.39999479,1,0,0,response1disk,,7,8.800011575,15.9999938,1,0,0,rectangle,8.800011575,15.9999938,1,0,0,,,,,,,8.800011575,15.9999938,1,0,0,,0,149,149,159,1,
,,,,,,,,,,,,,FF,,,,,,,,1.1494,,,,,,,,,,,,,,,,,,,,,,5b76e19d948cc40001da0e50,610377bad87e153c2cccc7fe,2021-07-30_06h01.01.187,Simcolourproject_2stim_asymm_v5,2020.2.10,Win32,60,61025ae37ef11b136ea224fe,,,,,,,,,2093,-35.99998909,79.99999475,1,0,0,response7disk,,0,-2.399939764,6.399993658,1,0,0,rectangle,-2.399939764,6.399993658,1,0,0,,,,,,,-2.399939764,6.399993658,1,0,0,,0,150,150,121,1,
,,,,,,,,,,,,,FF,,,,,,,,1.75,,,,,,,,,,,,,,,,,,,,,,5b76e19d948cc40001da0e50,610377bad87e153c2cccc7fe,2021-07-30_06h01.01.187,Simcolourproject_2stim_asymm_v5,2020.2.10,Win32,60,61025ae37ef11b136ea224fe,,,,,,,,,598,-24.79998893,-74.40000755,1,0,0,response5disk,,3,-2.399939764,2.399993598,1,0,0,rectangle,-2.399939764,2.399993598,1,0,0,,,,,,,-2.399939764,2.399993598,1,0,0,,0,151,151,136,1,
,,,,,,,,,,,,,FF,,,,,,,,1.0832,,,,,,,,,,,,,,,,,,,,,,5b76e19d948cc40001da0e50,610377bad87e153c2cccc7fe,2021-07-30_06h01.01.187,Simcolourproject_2stim_asymm_v5,2020.2.10,Win32,60,61025ae37ef11b136ea224fe,,,,,,,,,3226,-40.79998916,-89.6000566,1,0,0,response5disk,,3,0.800011456,-4.000006497,1,0,0,rectangle,0.800011456,-4.000006497,1,0,0,,,,,,,0.800011456,-4.000006497,1,0,0,,0,152,152,124,1,
,,,,,,,,,,,,,FF,,,,,,,,1.7004,,,,,,,,,,,,,,,,,,,,,,5b76e19d948cc40001da0e50,610377bad87e153c2cccc7fe,2021-07-30_06h01.01.187,Simcolourproject_2stim_asymm_v5,2020.2.10,Win32,60,61025ae37ef11b136ea224fe,,,,,,,,,3348,45.60006095,92.79999495,1,0,0,response1disk,,7,-6.399939823,-3.200006485,1,0,0,rectangle,-6.399939823,-3.200006485,1,0,0,,,,,,,-6.399939823,-3.200006485,1,0,0,,0,153,153,2,1,
,,,,,,,,,,,,,FF,,,,,,,,1.7173,,,,,,,,,,,,,,,,,,,,,,5b76e19d948cc40001da0e50,610377bad87e153c2cccc7fe,2021-07-30_06h01.01.187,Simcolourproject_2stim_asymm_v5,2020.2.10,Win32,60,61025ae37ef11b136ea224fe,,,,,,,,,98,64.0000124,102.3999951,1,0,0,response1disk,,7,-3.999988616,5.599993646,1,0,0,rectangle,-3.999988616,5.599993646,1,0,0,,,,,,,-3.999988616,5.599993646,1,0,0,,0,154,154,84,1,
,,,,,,,,,,,,,FF,,,,,,,,1.0162,,,,,,,,,,,,,,,,,,,,,,5b76e19d948cc40001da0e50,610377bad87e153c2cccc7fe,2021-07-30_06h01.01.187,Simcolourproject_2stim_asymm_v5,2020.2.10,Win32,60,61025ae37ef11b136ea224fe,,,,,,,,,605,56.80001229,95.99999499,1,0,0,response1disk,,7,-5.599988639,-5.600006521,1,0,0,rectangle,-5.599988639,-5.600006521,1,0,0,,,,,,,-5.599988639,-5.600006521,1,0,0,,0,155,155,12,1,
,,,,,,,,,,,,,FF,,,,,,,,2.0664,,,,,,,,,,,,,,,,,,,,,,5b76e19d948cc40001da0e50,610377bad87e153c2cccc7fe,2021-07-30_06h01.01.187,Simcolourproject_2stim_asymm_v5,2020.2.10,Win32,60,61025ae37ef11b136ea224fe,,,,,,,,,3999,-54.39994054,-84.00000769,1,0,0,response5disk,,3,9.600060415,3.19999361,1,0,0,rectangle,9.600060415,3.19999361,1,0,0,,,,,,,9.600060415,3.19999361,1,0,0,,0,156,156,144,1,
,,,,,,,,,,,,,FF,,,,,,,,2.3838,,,,,,,,,,,,,,,,,,,,,,5b76e19d948cc40001da0e50,610377bad87e153c2cccc7fe,2021-07-30_06h01.01.187,Simcolourproject_2stim_asymm_v5,2020.2.10,Win32,60,61025ae37ef11b136ea224fe,,,,,,,,,923,31.20001191,-97.60005672,1,0,0,response3disk,,4,-0.799988568,-1.600006461,1,0,0,rectangle,-0.799988568,-1.600006461,1,0,0,,,,,,,-0.799988568,-1.600006461,1,0,0,,0,157,157,120,1,
,,,,,,,,,,,,,FF,,,,,,,,0.8335,,,,,,,,,,,,,,,,,,,,,,5b76e19d948cc40001da0e50,610377bad87e153c2cccc7fe,2021-07-30_06h01.01.187,Simcolourproject_2stim_asymm_v5,2020.2.10,Win32,60,61025ae37ef11b136ea224fe,,,,,,,,,3732,44.80001211,62.39999449,1,0,0,response1disk,,7,-0.799988568,-6.4373E-06,1,0,0,rectangle,-0.799988568,-6.4373E-06,1,0,0,,,,,,,-0.799988568,-6.4373E-06,1,0,0,,0,158,158,128,1,
,,,,,,,,,,,,,FF,,,,,,,,1.1173,,,,,,,,,,,,,,,,,,,,,,5b76e19d948cc40001da0e50,610377bad87e153c2cccc7fe,2021-07-30_06h01.01.187,Simcolourproject_2stim_asymm_v5,2020.2.10,Win32,60,61025ae37ef11b136ea224fe,,,,,,,,,590,42.40001208,102.3999951,1,0,0,response1disk,,7,-2.399939764,-3.200006485,1,0,0,rectangle,-2.399939764,-3.200006485,1,0,0,,,,,,,-2.399939764,-3.200006485,1,0,0,,0,159,159,139,1,
,,,,,,,,,,,,,FF,,,,,,,,5.3836,,,,,,,,,,,,,,,,,,,,,,5b76e19d948cc40001da0e50,610377bad87e153c2cccc7fe,2021-07-30_06h01.01.187,Simcolourproject_2stim_asymm_v5,2020.2.10,Win32,60,61025ae37ef11b136ea224fe,,,,,,,,,3294,96.00001287,-47.20000714,1,0,0,response3disk,,5,11.20001161,-5.600006521,1,0,0,rectangle,11.20001161,-5.600006521,1,0,0,,,,,,,11.20001161,-5.600006521,1,0,0,,1,0,160,65,1,
,,,,,,,,,,,,,FF,,,,,,,,1.1506,,,,,,,,,,,,,,,,,,,,,,5b76e19d948cc40001da0e50,610377bad87e153c2cccc7fe,2021-07-30_06h01.01.187,Simcolourproject_2stim_asymm_v5,2020.2.10,Win32,60,61025ae37ef11b136ea224fe,,,,,,,,,2876,-42.39994036,-135.2000085,1,0,0,response5disk,,3,-0.799988568,10.39999372,1,0,0,rectangle,-0.799988568,10.39999372,1,0,0,,,,,,,-0.799988568,10.39999372,1,0,0,,1,1,161,3,1,
,,,,,,,,,,,,,FF,,,,,,,,1.601,,,,,,,,,,,,,,,,,,,,,,5b76e19d948cc40001da0e50,610377bad87e153c2cccc7fe,2021-07-30_06h01.01.187,Simcolourproject_2stim_asymm_v5,2020.2.10,Win32,60,61025ae37ef11b136ea224fe,,,,,,,,,68,-63.99998951,-51.2000072,1,0,0,response5disk,,2,-3.199988604,-3.200006485,1,0,0,rectangle,-3.199988604,-3.200006485,1,0,0,,,,,,,-3.199988604,-3.200006485,1,0,0,,1,2,162,31,1,
,,,,,,,,,,,,,FF,,,,,,,,2.0004,,,,,,,,,,,,,,,,,,,,,,5b76e19d948cc40001da0e50,610377bad87e153c2cccc7fe,2021-07-30_06h01.01.187,Simcolourproject_2stim_asymm_v5,2020.2.10,Win32,60,61025ae37ef11b136ea224fe,,,,,,,,,1167,86.40001273,-56.80000728,1,0,0,response3disk,,5,8.000011563,3.999993622,1,0,0,rectangle,-39.99998915,87.99999487,1,0,0,response7disk_3,TRUE,0,0,"[315,289,310,291,236,108,168,245,8,236,122,166,265,226,164,1,16,52,6,173]",2.1534,-1.59998858,-6.4373E-06,1,0,0,rectangle,1,3,163,43,1,
,,,,,,,,,,,,,FF,,,,,,,,1.0999,,,,,,,,,,,,,,,,,,,,,,5b76e19d948cc40001da0e50,610377bad87e153c2cccc7fe,2021-07-30_06h01.01.187,Simcolourproject_2stim_asymm_v5,2020.2.10,Win32,60,61025ae37ef11b136ea224fe,,,,,,,,,3479,80.80001265,-36.80000699,1,0,0,response3disk,,5,8.800011575,-1.600006461,1,0,0,rectangle,8.800011575,-1.600006461,1,0,0,,,,,,,8.800011575,-1.600006461,1,0,0,,1,4,164,36,1,
,,,,,,,,,,,,,FF,,,,,,,,0.9507,,,,,,,,,,,,,,,,,,,,,,5b76e19d948cc40001da0e50,610377bad87e153c2cccc7fe,2021-07-30_06h01.01.187,Simcolourproject_2stim_asymm_v5,2020.2.10,Win32,60,61025ae37ef11b136ea224fe,,,,,,,,,4301,80.80001265,-35.20000696,1,0,0,response3disk,,5,16.00001168,3.19999361,1,0,0,rectangle,80.00001264,-39.20000702,1,0,0,response3disk_3,TRUE,5,5,"[315,289,310,291,236,108,168,245,8,236,122,166,265,226,164,1,16,52,6,173]",1.4673,11.20001161,3.999993622,1,0,0,rectangle,1,5,165,130,1,
,,,,,,,,,,,,,FF,,,,,,,,1.3172,,,,,,,,,,,,,,,,,,,,,,5b76e19d948cc40001da0e50,610377bad87e153c2cccc7fe,2021-07-30_06h01.01.187,Simcolourproject_2stim_asymm_v5,2020.2.10,Win32,60,61025ae37ef11b136ea224fe,,,,,,,,,4172,47.20001215,89.5999949,1,0,0,response1disk,,7,11.20001161,9.599993706,1,0,0,rectangle,11.20001161,9.599993706,1,0,0,,,,,,,11.20001161,9.599993706,1,0,0,,1,6,166,74,1,
,,,,,,,,,,,,,FF,,,,,,,,1.6166,,,,,,,,,,,,,,,,,,,,,,5b76e19d948cc40001da0e50,610377bad87e153c2cccc7fe,2021-07-30_06h01.01.187,Simcolourproject_2stim_asymm_v5,2020.2.10,Win32,60,61025ae37ef11b136ea224fe,,,,,,,,,1447,-103.1999901,40.79999417,1,0,0,response7disk,,1,1.600060296,-3.200006485,1,0,0,rectangle,28.00001186,-120.0000082,1,0,0,response3disk_3,TRUE,4,4,"[315,289,310,291,236,108,168,245,8,236,122,166,265,226,164,1,16,52,6,173]",1.6995,-6.399939823,-4.000006497,1,0,0,rectangle,1,7,167,125,1,
,,,,,,,,,,,,,FF,,,,,,,,1.7507,,,,,,,,,,,,,,,,,,,,,,5b76e19d948cc40001da0e50,610377bad87e153c2cccc7fe,2021-07-30_06h01.01.187,Simcolourproject_2stim_asymm_v5,2020.2.10,Win32,60,61025ae37ef11b136ea224fe,,,,,,,,,2946,-87.99998987,-29.60000688,1,0,0,response5disk,,2,-3.999988616,0.799993575,1,0,0,rectangle,-3.999988616,0.799993575,1,0,0,,,,,,,-3.999988616,0.799993575,1,0,0,,1,8,168,56,1,
,,,,,,,,,,,,,FF,,,,,,,,2.1166,,,,,,,,,,,,,,,,,,,,,,5b76e19d948cc40001da0e50,610377bad87e153c2cccc7fe,2021-07-30_06h01.01.187,Simcolourproject_2stim_asymm_v5,2020.2.10,Win32,60,61025ae37ef11b136ea224fe,,,,,,,,,2977,60.00001234,-95.20000786,1,0,0,response3disk,,4,9.600060415,-5.600006521,1,0,0,rectangle,9.600060415,-5.600006521,1,0,0,,,,,,,9.600060415,-5.600006521,1,0,0,,1,9,169,86,1,
,,,,,,,,,,,,,FF,,,,,,,,2.2167,,,,,,,,,,,,,,,,,,,,,,5b76e19d948cc40001da0e50,610377bad87e153c2cccc7fe,2021-07-30_06h01.01.187,Simcolourproject_2stim_asymm_v5,2020.2.10,Win32,60,61025ae37ef11b136ea224fe,,,,,,,,,1520,43.20001209,95.19997057,1,0,0,response1disk,,7,-13.59998876,-16.80000669,1,0,0,rectangle,-13.59998876,-16.80000669,1,0,0,,,,,,,-13.59998876,-16.80000669,1,0,0,,1,10,170,119,1,
,,,,,,,,,,,,,FF,,,,,,,,1.2,,,,,,,,,,,,,,,,,,,,,,5b76e19d948cc40001da0e50,610377bad87e153c2cccc7fe,2021-07-30_06h01.01.187,Simcolourproject_2stim_asymm_v5,2020.2.10,Win32,60,61025ae37ef11b136ea224fe,,,,,,,,,486,32.80001193,92.79999495,1,0,0,response1disk,,7,-15.19998878,3.19999361,1,0,0,rectangle,-15.19998878,3.19999361,1,0,0,,,,,,,-15.19998878,3.19999361,1,0,0,,1,11,171,40,1,
,,,,,,,,,,,,,FF,,,,,,,,0.8334,,,,,,,,,,,,,,,,,,,,,,5b76e19d948cc40001da0e50,610377bad87e153c2cccc7fe,2021-07-30_06h01.01.187,Simcolourproject_2stim_asymm_v5,2020.2.10,Win32,60,61025ae37ef11b136ea224fe,,,,,,,,,2752,41.60006089,87.99999487,1,0,0,response1disk,,7,0.800011456,-6.400006533,1,0,0,rectangle,-38.3999403,-104.800008,1,0,0,response5disk_3,TRUE,3,3,"[315,289,310,291,236,108,168,245,8,236,122,166,265,226,164,1,16,52,6,173]",1.7659,4.800011516,6.399993658,1,0,0,rectangle,1,12,172,30,1,
,,,,,,,,,,,,,FF,,,,,,,,1.2169,,,,,,,,,,,,,,,,,,,,,,5b76e19d948cc40001da0e50,610377bad87e153c2cccc7fe,2021-07-30_06h01.01.187,Simcolourproject_2stim_asymm_v5,2020.2.10,Win32,60,61025ae37ef11b136ea224fe,,,,,,,,,1850,74.40001255,38.39999413,1,0,0,response1disk,,6,15.20001167,6.399993658,1,0,0,rectangle,15.20001167,6.399993658,1,0,0,,,,,,,15.20001167,6.399993658,1,0,0,,1,13,173,1,1,
,,,,,,,,,,,,,FF,,,,,,,,3.067,,,,,,,,,,,,,,,,,,,,,,5b76e19d948cc40001da0e50,610377bad87e153c2cccc7fe,2021-07-30_06h01.01.187,Simcolourproject_2stim_asymm_v5,2020.2.10,Win32,60,61025ae37ef11b136ea224fe,,,,,,,,,2656,95.20001286,32.79999405,1,0,0,response1disk,,6,-3.199988604,-8.800006568,1,0,0,rectangle,-3.199988604,-8.800006568,1,0,0,,,,,,,-3.199988604,-8.800006568,1,0,0,,1,14,174,94,1,
,,,,,,,,,,,,,FF,,,,,,,,1.283,,,,,,,,,,,,,,,,,,,,,,5b76e19d948cc40001da0e50,610377bad87e153c2cccc7fe,2021-07-30_06h01.01.187,Simcolourproject_2stim_asymm_v5,2020.2.10,Win32,60,61025ae37ef11b136ea224fe,,,,,,,,,949,75.20001256,-36.80000699,1,0,0,response3disk,,5,-4.799988627,-16.80000669,1,0,0,rectangle,-4.799988627,-16.80000669,1,0,0,,,,,,,-4.799988627,-16.80000669,1,0,0,,1,15,175,120,1,
,,,,,,,,,,,,,FF,,,,,,,,1.4328,,,,,,,,,,,,,,,,,,,,,,5b76e19d948cc40001da0e50,610377bad87e153c2cccc7fe,2021-07-30_06h01.01.187,Simcolourproject_2stim_asymm_v5,2020.2.10,Win32,60,61025ae37ef11b136ea224fe,,,,,,,,,1470,88.80001277,44.79999423,1,0,0,response1disk,,6,22.40001178,11.99999374,1,0,0,rectangle,22.40001178,11.99999374,1,0,0,,,,,,,22.40001178,11.99999374,1,0,0,,1,16,176,91,1,
,,,,,,,,,,,,,FF,,,,,,,,2.0164,,,,,,,,,,,,,,,,,,,,,,5b76e19d948cc40001da0e50,610377bad87e153c2cccc7fe,2021-07-30_06h01.01.187,Simcolourproject_2stim_asymm_v5,2020.2.10,Win32,60,61025ae37ef11b136ea224fe,,,,,,,,,2026,24.0000118,-101.6000568,1,0,0,response3disk,,4,-3.999988616,-2.400006473,1,0,0,rectangle,-3.999988616,-2.400006473,1,0,0,,,,,,,-3.999988616,-2.400006473,1,0,0,,1,17,177,78,1,
,,,,,,,,,,,,,FF,,,,,,,,0.967,,,,,,,,,,,,,,,,,,,,,,5b76e19d948cc40001da0e50,610377bad87e153c2cccc7fe,2021-07-30_06h01.01.187,Simcolourproject_2stim_asymm_v5,2020.2.10,Win32,60,61025ae37ef11b136ea224fe,,,,,,,,,1391,-35.19998908,-96.80000788,1,0,0,response5disk,,3,21.60006059,8.799993694,1,0,0,rectangle,21.60006059,8.799993694,1,0,0,,,,,,,21.60006059,8.799993694,1,0,0,,1,18,178,132,1,
,,,,,,,,,,,,,FF,,,,,,,,0.9662,,,,,,,,,,,,,,,,,,,,,,5b76e19d948cc40001da0e50,610377bad87e153c2cccc7fe,2021-07-30_06h01.01.187,Simcolourproject_2stim_asymm_v5,2020.2.10,Win32,60,61025ae37ef11b136ea224fe,,,,,,,,,1965,-41.59998918,-113.600057,1,0,0,response5disk,,3,14.40001166,0.799993575,1,0,0,rectangle,14.40001166,0.799993575,1,0,0,,,,,,,14.40001166,0.799993575,1,0,0,,1,19,179,88,1,
,,,,,,,,,,,,,FF,,,,,,,,1.5333,,,,,,,,,,,,,,,,,,,,,,5b76e19d948cc40001da0e50,610377bad87e153c2cccc7fe,2021-07-30_06h01.01.187,Simcolourproject_2stim_asymm_v5,2020.2.10,Win32,60,61025ae37ef11b136ea224fe,,,,,,,,,1427,39.20001203,-105.6000568,1,0,0,response3disk,,4,-11.99998873,9.599993706,1,0,0,rectangle,-11.99998873,9.599993706,1,0,0,,,,,,,-11.99998873,9.599993706,1,0,0,,1,20,180,33,1,
,,,,,,,,,,,,,FF,,,,,,,,2.3501,,,,,,,,,,,,,,,,,,,,,,5b76e19d948cc40001da0e50,610377bad87e153c2cccc7fe,2021-07-30_06h01.01.187,Simcolourproject_2stim_asymm_v5,2020.2.10,Win32,60,61025ae37ef11b136ea224fe,,,,,,,,,445,-72.79998964,-84.00000769,1,0,0,response5disk,,3,-24.79998893,-10.40000659,1,0,0,rectangle,-24.79998893,-10.40000659,1,0,0,,,,,,,-24.79998893,-10.40000659,1,0,0,,1,21,181,42,1,
,,,,,,,,,,,,,FF,,,,,,,,1.2665,,,,,,,,,,,,,,,,,,,,,,5b76e19d948cc40001da0e50,610377bad87e153c2cccc7fe,2021-07-30_06h01.01.187,Simcolourproject_2stim_asymm_v5,2020.2.10,Win32,60,61025ae37ef11b136ea224fe,,,,,,,,,1104,88.80001277,40.79999417,1,0,0,response1disk,,6,-7.999988675,-10.40000659,1,0,0,rectangle,-7.999988675,-10.40000659,1,0,0,,,,,,,-7.999988675,-10.40000659,1,0,0,,1,22,182,156,1,
,,,,,,,,,,,,,FF,,,,,,,,2.0341,,,,,,,,,,,,,,,,,,,,,,5b76e19d948cc40001da0e50,610377bad87e153c2cccc7fe,2021-07-30_06h01.01.187,Simcolourproject_2stim_asymm_v5,2020.2.10,Win32,60,61025ae37ef11b136ea224fe,,,,,,,,,2341,100.0000129,46.39999425,1,0,0,response1disk,,6,-3.199988604,13.59999377,1,0,0,rectangle,-3.199988604,13.59999377,1,0,0,,,,,,,-3.199988604,13.59999377,1,0,0,,1,23,183,134,1,
,,,,,,,,,,,,,FF,,,,,,,,1.9995,,,,,,,,,,,,,,,,,,,,,,5b76e19d948cc40001da0e50,610377bad87e153c2cccc7fe,2021-07-30_06h01.01.187,Simcolourproject_2stim_asymm_v5,2020.2.10,Win32,60,61025ae37ef11b136ea224fe,,,,,,,,,1474,93.60001284,61.59999448,1,0,0,response1disk,,6,9.600060415,3.999993622,1,0,0,rectangle,9.600060415,3.999993622,1,0,0,,,,,,,9.600060415,3.999993622,1,0,0,,1,24,184,110,1,
,,,,,,,,,,,,,FF,,,,,,,,0.7339,,,,,,,,,,,,,,,,,,,,,,5b76e19d948cc40001da0e50,610377bad87e153c2cccc7fe,2021-07-30_06h01.01.187,Simcolourproject_2stim_asymm_v5,2020.2.10,Win32,60,61025ae37ef11b136ea224fe,,,,,,,,,1760,86.40001273,30.39999402,1,0,0,response1disk,,6,10.4000116,-4.000006497,1,0,0,rectangle,10.4000116,-4.000006497,1,0,0,,,,,,,10.4000116,-4.000006497,1,0,0,,1,25,185,54,1,
,,,,,,,,,,,,,FF,,,,,,,,1.667,,,,,,,,,,,,,,,,,,,,,,5b76e19d948cc40001da0e50,610377bad87e153c2cccc7fe,2021-07-30_06h01.01.187,Simcolourproject_2stim_asymm_v5,2020.2.10,Win32,60,61025ae37ef11b136ea224fe,,,,,,,,,3036,-90.39994107,-32.00000691,1,0,0,response5disk,,2,-10.39993988,5.599993646,1,0,0,rectangle,-10.39993988,5.599993646,1,0,0,,,,,,,-10.39993988,5.599993646,1,0,0,,1,26,186,19,1,
,,,,,,,,,,,,,FF,,,,,,,,1.2166,,,,,,,,,,,,,,,,,,,,,,5b76e19d948cc40001da0e50,610377bad87e153c2cccc7fe,2021-07-30_06h01.01.187,Simcolourproject_2stim_asymm_v5,2020.2.10,Win32,60,61025ae37ef11b136ea224fe,,,,,,,,,4353,112.0000131,-43.20000708,1,0,0,response3disk,,5,4.800011516,-4.800006509,1,0,0,rectangle,4.800011516,-4.800006509,1,0,0,,,,,,,4.800011516,-4.800006509,1,0,0,,1,27,187,98,1,
,,,,,,,,,,,,,FF,,,,,,,,1.3667,,,,,,,,,,,,,,,,,,,,,,5b76e19d948cc40001da0e50,610377bad87e153c2cccc7fe,2021-07-30_06h01.01.187,Simcolourproject_2stim_asymm_v5,2020.2.10,Win32,60,61025ae37ef11b136ea224fe,,,,,,,,,1321,112.0000131,-66.40000743,1,0,0,response3disk,,5,-9.599988699,6.399993658,1,0,0,rectangle,-9.599988699,6.399993658,1,0,0,,,,,,,-9.599988699,6.399993658,1,0,0,,1,28,188,155,1,
,,,,,,,,,,,,,FF,,,,,,,,1.4007,,,,,,,,,,,,,,,,,,,,,,5b76e19d948cc40001da0e50,610377bad87e153c2cccc7fe,2021-07-30_06h01.01.187,Simcolourproject_2stim_asymm_v5,2020.2.10,Win32,60,61025ae37ef11b136ea224fe,,,,,,,,,354,-87.99998987,47.99999428,1,0,0,response7disk,,1,11.20001161,-9.60000658,1,0,0,rectangle,11.20001161,-9.60000658,1,0,0,,,,,,,11.20001161,-9.60000658,1,0,0,,1,29,189,7,1,
,,,,,,,,,,,,,FF,,,,,,,,3.0003,,,,,,,,,,,,,,,,,,,,,,5b76e19d948cc40001da0e50,610377bad87e153c2cccc7fe,2021-07-30_06h01.01.187,Simcolourproject_2stim_asymm_v5,2020.2.10,Win32,60,61025ae37ef11b136ea224fe,,,,,,,,,4041,-103.1999901,-18.40000671,1,0,0,response5disk,,2,-24.79998893,3.19999361,1,0,0,rectangle,-24.79998893,3.19999361,1,0,0,,,,,,,-24.79998893,3.19999361,1,0,0,,1,30,190,76,1,
,,,,,,,,,,,,,FF,,,,,,,,1.0499,,,,,,,,,,,,,,,,,,,,,,5b76e19d948cc40001da0e50,610377bad87e153c2cccc7fe,2021-07-30_06h01.01.187,Simcolourproject_2stim_asymm_v5,2020.2.10,Win32,60,61025ae37ef11b136ea224fe,,,,,,,,,1203,-90.39994107,-52.80000722,1,0,0,response5disk,,2,-25.59998894,-12.80000663,1,0,0,rectangle,-25.59998894,-12.80000663,1,0,0,,,,,,,-25.59998894,-12.80000663,1,0,0,,1,31,191,100,1,
,,,,,,,,,,,,,FF,,,,,,,,1.3005,,,,,,,,,,,,,,,,,,,,,,5b76e19d948cc40001da0e50,610377bad87e153c2cccc7fe,2021-07-30_06h01.01.187,Simcolourproject_2stim_asymm_v5,2020.2.10,Win32,60,61025ae37ef11b136ea224fe,,,,,,,,,425,110.4000131,43.19996979,1,0,0,response1disk,,6,26.40001184,2.399993598,1,0,0,rectangle,26.40001184,2.399993598,1,0,0,,,,,,,26.40001184,2.399993598,1,0,0,,1,32,192,102,1,
,,,,,,,,,,,,,FF,,,,,,,,1.7167,,,,,,,,,,,,,,,,,,,,,,5b76e19d948cc40001da0e50,610377bad87e153c2cccc7fe,2021-07-30_06h01.01.187,Simcolourproject_2stim_asymm_v5,2020.2.10,Win32,60,61025ae37ef11b136ea224fe,,,,,,,,,1987,41.60006089,80.79999477,1,0,0,response1disk,,7,-7.199988663,9.599993706,1,0,0,rectangle,-7.199988663,9.599993706,1,0,0,,,,,,,-7.199988663,9.599993706,1,0,0,,1,33,193,18,1,
,,,,,,,,,,,,,FF,,,,,,,,1.3002,,,,,,,,,,,,,,,,,,,,,,5b76e19d948cc40001da0e50,610377bad87e153c2cccc7fe,2021-07-30_06h01.01.187,Simcolourproject_2stim_asymm_v5,2020.2.10,Win32,60,61025ae37ef11b136ea224fe,,,,,,,,,3970,-90.39994107,-41.60000706,1,0,0,response5disk,,2,-24.79998893,-1.600006461,1,0,0,rectangle,-24.79998893,-1.600006461,1,0,0,,,,,,,-24.79998893,-1.600006461,1,0,0,,1,34,194,141,1,
,,,,,,,,,,,,,FF,,,,,,,,0.9665,,,,,,,,,,,,,,,,,,,,,,5b76e19d948cc40001da0e50,610377bad87e153c2cccc7fe,2021-07-30_06h01.01.187,Simcolourproject_2stim_asymm_v5,2020.2.10,Win32,60,61025ae37ef11b136ea224fe,,,,,,,,,412,76.00001258,39.99999416,1,0,0,response1disk,,6,16.80001169,2.399993598,1,0,0,rectangle,16.80001169,2.399993598,1,0,0,,,,,,,16.80001169,2.399993598,1,0,0,,1,35,195,16,1,
,,,,,,,,,,,,,FF,,,,,,,,0.717,,,,,,,,,,,,,,,,,,,,,,5b76e19d948cc40001da0e50,610377bad87e153c2cccc7fe,2021-07-30_06h01.01.187,Simcolourproject_2stim_asymm_v5,2020.2.10,Win32,60,61025ae37ef11b136ea224fe,,,,,,,,,1720,101.600013,42.39999419,1,0,0,response1disk,,6,8.000011563,-13.60000664,1,0,0,rectangle,8.000011563,-13.60000664,1,0,0,,,,,,,8.000011563,-13.60000664,1,0,0,,1,36,196,131,1,
,,,,,,,,,,,,,FF,,,,,,,,1.2997,,,,,,,,,,,,,,,,,,,,,,5b76e19d948cc40001da0e50,610377bad87e153c2cccc7fe,2021-07-30_06h01.01.187,Simcolourproject_2stim_asymm_v5,2020.2.10,Win32,60,61025ae37ef11b136ea224fe,,,,,,,,,495,-78.3999409,-40.80000705,1,0,0,response5disk,,2,-9.599988699,1.599993587,1,0,0,rectangle,-9.599988699,1.599993587,1,0,0,,,,,,,-9.599988699,1.599993587,1,0,0,,1,37,197,52,1,
,,,,,,,,,,,,,FF,,,,,,,,3.3335,,,,,,,,,,,,,,,,,,,,,,5b76e19d948cc40001da0e50,610377bad87e153c2cccc7fe,2021-07-30_06h01.01.187,Simcolourproject_2stim_asymm_v5,2020.2.10,Win32,60,61025ae37ef11b136ea224fe,,,,,,,,,3709,34.40001196,-101.6000568,1,0,0,response3disk,,4,7.200011551,1.599993587,1,0,0,rectangle,7.200011551,1.599993587,1,0,0,,,,,,,7.200011551,1.599993587,1,0,0,,1,38,198,44,1,
,,,,,,,,,,,,,FF,,,,,,,,1.7171,,,,,,,,,,,,,,,,,,,,,,5b76e19d948cc40001da0e50,610377bad87e153c2cccc7fe,2021-07-30_06h01.01.187,Simcolourproject_2stim_asymm_v5,2020.2.10,Win32,60,61025ae37ef11b136ea224fe,,,,,,,,,66,96.80001289,27.19996955,1,0,0,response1disk,,6,-2.399939764,7.999993682,1,0,0,rectangle,-2.399939764,7.999993682,1,0,0,,,,,,,-2.399939764,7.999993682,1,0,0,,1,39,199,148,1,
,,,,,,,,,,,,,FF,,,,,,,,0.9668,,,,,,,,,,,,,,,,,,,,,,5b76e19d948cc40001da0e50,610377bad87e153c2cccc7fe,2021-07-30_06h01.01.187,Simcolourproject_2stim_asymm_v5,2020.2.10,Win32,60,61025ae37ef11b136ea224fe,,,,,,,,,3133,96.00001287,51.99999434,1,0,0,response1disk,,6,1.600060296,-3.200006485,1,0,0,rectangle,1.600060296,-3.200006485,1,0,0,,,,,,,1.600060296,-3.200006485,1,0,0,,1,40,200,29,1,
,,,,,,,,,,,,,FF,,,,,,,,2.3167,,,,,,,,,,,,,,,,,,,,,,5b76e19d948cc40001da0e50,610377bad87e153c2cccc7fe,2021-07-30_06h01.01.187,Simcolourproject_2stim_asymm_v5,2020.2.10,Win32,60,61025ae37ef11b136ea224fe,,,,,,,,,95,-31.19998902,-99.20000792,1,0,0,response5disk,,3,7.200011551,-8.000006557,1,0,0,rectangle,7.200011551,-8.000006557,1,0,0,,,,,,,7.200011551,-8.000006557,1,0,0,,1,41,201,140,1,
,,,,,,,,,,,,,FF,,,,,,,,1.3504,,,,,,,,,,,,,,,,,,,,,,5b76e19d948cc40001da0e50,610377bad87e153c2cccc7fe,2021-07-30_06h01.01.187,Simcolourproject_2stim_asymm_v5,2020.2.10,Win32,60,61025ae37ef11b136ea224fe,,,,,,,,,2670,-41.59998918,-108.000008,1,0,0,response5disk,,3,-13.59998876,-7.200006545,1,0,0,rectangle,-13.59998876,-7.200006545,1,0,0,,,,,,,-13.59998876,-7.200006545,1,0,0,,1,42,202,129,1,
,,,,,,,,,,,,,FF,,,,,,,,1.4502,,,,,,,,,,,,,,,,,,,,,,5b76e19d948cc40001da0e50,610377bad87e153c2cccc7fe,2021-07-30_06h01.01.187,Simcolourproject_2stim_asymm_v5,2020.2.10,Win32,60,61025ae37ef11b136ea224fe,,,,,,,,,4063,81.60001266,-48.80000716,1,0,0,response3disk,,5,-19.19998884,11.99999374,1,0,0,rectangle,-19.19998884,11.99999374,1,0,0,,,,,,,-19.19998884,11.99999374,1,0,0,,1,43,203,104,1,
,,,,,,,,,,,,,FF,,,,,,,,1.5172,,,,,,,,,,,,,,,,,,,,,,5b76e19d948cc40001da0e50,610377bad87e153c2cccc7fe,2021-07-30_06h01.01.187,Simcolourproject_2stim_asymm_v5,2020.2.10,Win32,60,61025ae37ef11b136ea224fe,,,,,,,,,244,38.40001202,-95.20000786,1,0,0,response3disk,,4,3.200011492,-5.600006521,1,0,0,rectangle,3.200011492,-5.600006521,1,0,0,,,,,,,3.200011492,-5.600006521,1,0,0,,1,44,204,32,1,
,,,,,,,,,,,,,FF,,,,,,,,1.4835,,,,,,,,,,,,,,,,,,,,,,5b76e19d948cc40001da0e50,610377bad87e153c2cccc7fe,2021-07-30_06h01.01.187,Simcolourproject_2stim_asymm_v5,2020.2.10,Win32,60,61025ae37ef11b136ea224fe,,,,,,,,,917,100.0000129,-48.00000715,1,0,0,response3disk,,5,-8.799988687,-6.4373E-06,1,0,0,rectangle,-8.799988687,-6.4373E-06,1,0,0,,,,,,,-8.799988687,-6.4373E-06,1,0,0,,1,45,205,159,1,
,,,,,,,,,,,,,FF,,,,,,,,1.3499,,,,,,,,,,,,,,,,,,,,,,5b76e19d948cc40001da0e50,610377bad87e153c2cccc7fe,2021-07-30_06h01.01.187,Simcolourproject_2stim_asymm_v5,2020.2.10,Win32,60,61025ae37ef11b136ea224fe,,,,,,,,,3141,-46.39994042,-109.6000569,1,0,0,response5disk,,3,2.40001148,-14.40000665,1,0,0,rectangle,2.40001148,-14.40000665,1,0,0,,,,,,,2.40001148,-14.40000665,1,0,0,,1,46,206,46,1,
,,,,,,,,,,,,,FF,,,,,,,,0.8499,,,,,,,,,,,,,,,,,,,,,,5b76e19d948cc40001da0e50,610377bad87e153c2cccc7fe,2021-07-30_06h01.01.187,Simcolourproject_2stim_asymm_v5,2020.2.10,Win32,60,61025ae37ef11b136ea224fe,,,,,,,,,1471,68.00001246,25.59999394,1,0,0,response1disk,,6,-5.599988639,-8.000006557,1,0,0,rectangle,-5.599988639,-8.000006557,1,0,0,,,,,,,-5.599988639,-8.000006557,1,0,0,,1,47,207,27,1,
,,,,,,,,,,,,,FF,,,,,,,,0.7333,,,,,,,,,,,,,,,,,,,,,,5b76e19d948cc40001da0e50,610377bad87e153c2cccc7fe,2021-07-30_06h01.01.187,Simcolourproject_2stim_asymm_v5,2020.2.10,Win32,60,61025ae37ef11b136ea224fe,,,,,,,,,672,92.00001281,19.19999385,1,0,0,response1disk,,6,4.000011504,-4.000006497,1,0,0,rectangle,4.000011504,-4.000006497,1,0,0,,,,,,,4.000011504,-4.000006497,1,0,0,,1,48,208,158,1,
,,,,,,,,,,,,,FF,,,,,,,,0.584,,,,,,,,,,,,,,,,,,,,,,5b76e19d948cc40001da0e50,610377bad87e153c2cccc7fe,2021-07-30_06h01.01.187,Simcolourproject_2stim_asymm_v5,2020.2.10,Win32,60,61025ae37ef11b136ea224fe,,,,,,,,,2810,96.00001287,36.79999411,1,0,0,response1disk,,6,8.800011575,-6.400006533,1,0,0,rectangle,8.800011575,-6.400006533,1,0,0,,,,,,,8.800011575,-6.400006533,1,0,0,,1,49,209,93,1,
,,,,,,,,,,,,,FF,,,,,,,,0.5495,,,,,,,,,,,,,,,,,,,,,,5b76e19d948cc40001da0e50,610377bad87e153c2cccc7fe,2021-07-30_06h01.01.187,Simcolourproject_2stim_asymm_v5,2020.2.10,Win32,60,61025ae37ef11b136ea224fe,,,,,,,,,2868,76.80001259,44.79999423,1,0,0,response1disk,,6,21.60006059,11.99999374,1,0,0,rectangle,21.60006059,11.99999374,1,0,0,,,,,,,21.60006059,11.99999374,1,0,0,,1,50,210,87,1,
,,,,,,,,,,,,,FF,,,,,,,,0.4831,,,,,,,,,,,,,,,,,,,,,,5b76e19d948cc40001da0e50,610377bad87e153c2cccc7fe,2021-07-30_06h01.01.187,Simcolourproject_2stim_asymm_v5,2020.2.10,Win32,60,61025ae37ef11b136ea224fe,,,,,,,,,4035,64.80001241,45.59999424,1,0,0,response1disk,,6,2.40001148,-4.000006497,1,0,0,rectangle,2.40001148,-4.000006497,1,0,0,,,,,,,2.40001148,-4.000006497,1,0,0,,1,51,211,152,1,
,,,,,,,,,,,,,FF,,,,,,,,1.084,,,,,,,,,,,,,,,,,,,,,,5b76e19d948cc40001da0e50,610377bad87e153c2cccc7fe,2021-07-30_06h01.01.187,Simcolourproject_2stim_asymm_v5,2020.2.10,Win32,60,61025ae37ef11b136ea224fe,,,,,,,,,1303,-37.59998912,-69.60000747,1,0,0,response5disk,,3,-5.599988639,-4.000006497,1,0,0,rectangle,-5.599988639,-4.000006497,1,0,0,,,,,,,-5.599988639,-4.000006497,1,0,0,,1,52,212,64,1,
,,,,,,,,,,,,,FF,,,,,,,,1.0839,,,,,,,,,,,,,,,,,,,,,,5b76e19d948cc40001da0e50,610377bad87e153c2cccc7fe,2021-07-30_06h01.01.187,Simcolourproject_2stim_asymm_v5,2020.2.10,Win32,60,61025ae37ef11b136ea224fe,,,,,,,,,2218,-37.59998912,-36.00000697,1,0,0,response5disk,,2,-5.599988639,-14.40000665,1,0,0,rectangle,-5.599988639,-14.40000665,1,0,0,,,,,,,-5.599988639,-14.40000665,1,0,0,,1,53,213,127,1,
,,,,,,,,,,,,,FF,,,,,,,,2.3001,,,,,,,,,,,,,,,,,,,,,,5b76e19d948cc40001da0e50,610377bad87e153c2cccc7fe,2021-07-30_06h01.01.187,Simcolourproject_2stim_asymm_v5,2020.2.10,Win32,60,61025ae37ef11b136ea224fe,,,,,,,,,4033,-43.99998921,-79.20000762,1,0,0,response5disk,,3,2.40001148,-2.400006473,1,0,0,rectangle,2.40001148,-2.400006473,1,0,0,,,,,,,2.40001148,-2.400006473,1,0,0,,1,54,214,90,1,
,,,,,,,,,,,,,FF,,,,,,,,1.5335,,,,,,,,,,,,,,,,,,,,,,5b76e19d948cc40001da0e50,610377bad87e153c2cccc7fe,2021-07-30_06h01.01.187,Simcolourproject_2stim_asymm_v5,2020.2.10,Win32,60,61025ae37ef11b136ea224fe,,,,,,,,,3121,84.0000127,-30.40000689,1,0,0,response3disk,,5,0.800011456,7.19999367,1,0,0,rectangle,0.800011456,7.19999367,1,0,0,,,,,,,0.800011456,7.19999367,1,0,0,,1,55,215,111,1,
,,,,,,,,,,,,,FF,,,,,,,,0.7501,,,,,,,,,,,,,,,,,,,,,,5b76e19d948cc40001da0e50,610377bad87e153c2cccc7fe,2021-07-30_06h01.01.187,Simcolourproject_2stim_asymm_v5,2020.2.10,Win32,60,61025ae37ef11b136ea224fe,,,,,,,,,2816,81.60001266,-44.00000709,1,0,0,response3disk,,5,3.200011492,7.19999367,1,0,0,rectangle,3.200011492,7.19999367,1,0,0,,,,,,,3.200011492,7.19999367,1,0,0,,1,56,216,8,1,
,,,,,,,,,,,,,FF,,,,,,,,1.0837,,,,,,,,,,,,,,,,,,,,,,5b76e19d948cc40001da0e50,610377bad87e153c2cccc7fe,2021-07-30_06h01.01.187,Simcolourproject_2stim_asymm_v5,2020.2.10,Win32,60,61025ae37ef11b136ea224fe,,,,,,,,,3331,-52.79998934,-76.80000758,1,0,0,response5disk,,3,-8.799988687,-8.000006557,1,0,0,rectangle,-8.799988687,-8.000006557,1,0,0,,,,,,,-8.799988687,-8.000006557,1,0,0,,1,57,217,103,1,
,,,,,,,,,,,,,FF,,,,,,,,0.8834,,,,,,,,,,,,,,,,,,,,,,5b76e19d948cc40001da0e50,610377bad87e153c2cccc7fe,2021-07-30_06h01.01.187,Simcolourproject_2stim_asymm_v5,2020.2.10,Win32,60,61025ae37ef11b136ea224fe,,,,,,,,,2733,80.00001264,30.39999402,1,0,0,response1disk,,6,12.00001162,7.999993682,1,0,0,rectangle,12.00001162,7.999993682,1,0,0,,,,,,,12.00001162,7.999993682,1,0,0,,1,58,218,105,1,
,,,,,,,,,,,,,FF,,,,,,,,3.6009,,,,,,,,,,,,,,,,,,,,,,5b76e19d948cc40001da0e50,610377bad87e153c2cccc7fe,2021-07-30_06h01.01.187,Simcolourproject_2stim_asymm_v5,2020.2.10,Win32,60,61025ae37ef11b136ea224fe,,,,,,,,,4067,68.80001247,-57.6000073,1,0,0,response3disk,,5,11.20001161,-10.40000659,1,0,0,rectangle,11.20001161,-10.40000659,1,0,0,,,,,,,11.20001161,-10.40000659,1,0,0,,1,59,219,21,1,
,,,,,,,,,,,,,FF,,,,,,,,0.8166,,,,,,,,,,,,,,,,,,,,,,5b76e19d948cc40001da0e50,610377bad87e153c2cccc7fe,2021-07-30_06h01.01.187,Simcolourproject_2stim_asymm_v5,2020.2.10,Win32,60,61025ae37ef11b136ea224fe,,,,,,,,,4008,63.20001239,-25.60000682,1,0,0,response3disk,,5,4.000011504,-8.000006557,1,0,0,rectangle,4.000011504,-8.000006557,1,0,0,,,,,,,4.000011504,-8.000006557,1,0,0,,1,60,220,23,1,
,,,,,,,,,,,,,FF,,,,,,,,1.3167,,,,,,,,,,,,,,,,,,,,,,5b76e19d948cc40001da0e50,610377bad87e153c2cccc7fe,2021-07-30_06h01.01.187,Simcolourproject_2stim_asymm_v5,2020.2.10,Win32,60,61025ae37ef11b136ea224fe,,,,,,,,,2362,-83.1999898,-119.2000082,1,0,0,response5disk,,3,-6.399939823,-4.800006509,1,0,0,rectangle,-6.399939823,-4.800006509,1,0,0,,,,,,,-6.399939823,-4.800006509,1,0,0,,1,61,221,117,1,
,,,,,,,,,,,,,FF,,,,,,,,1.0835,,,,,,,,,,,,,,,,,,,,,,5b76e19d948cc40001da0e50,610377bad87e153c2cccc7fe,2021-07-30_06h01.01.187,Simcolourproject_2stim_asymm_v5,2020.2.10,Win32,60,61025ae37ef11b136ea224fe,,,,,,,,,190,108.0000131,56.79999441,1,0,0,response1disk,,6,8.800011575,4.799993634,1,0,0,rectangle,8.800011575,4.799993634,1,0,0,,,,,,,8.800011575,4.799993634,1,0,0,,1,62,222,20,1,
,,,,,,,,,,,,,FF,,,,,,,,3.5834,,,,,,,,,,,,,,,,,,,,,,5b76e19d948cc40001da0e50,610377bad87e153c2cccc7fe,2021-07-30_06h01.01.187,Simcolourproject_2stim_asymm_v5,2020.2.10,Win32,60,61025ae37ef11b136ea224fe,,,,,,,,,4369,-47.19998926,95.99999499,1,0,0,response7disk,,0,-12.79998875,7.999993682,1,0,0,rectangle,-12.79998875,7.999993682,1,0,0,,,,,,,-12.79998875,7.999993682,1,0,0,,1,63,223,109,1,
,,,,,,,,,,,,,FF,,,,,,,,2,,,,,,,,,,,,,,,,,,,,,,5b76e19d948cc40001da0e50,610377bad87e153c2cccc7fe,2021-07-30_06h01.01.187,Simcolourproject_2stim_asymm_v5,2020.2.10,Win32,60,61025ae37ef11b136ea224fe,,,,,,,,,866,48.80001217,103.1999707,1,0,0,response1disk,,7,7.200011551,-0.800006449,1,0,0,rectangle,7.200011551,-0.800006449,1,0,0,,,,,,,7.200011551,-0.800006449,1,0,0,,1,64,224,37,1,
,,,,,,,,,,,,,FF,,,,,,,,1.4355,,,,,,,,,,,,,,,,,,,,,,5b76e19d948cc40001da0e50,610377bad87e153c2cccc7fe,2021-07-30_06h01.01.187,Simcolourproject_2stim_asymm_v5,2020.2.10,Win32,60,61025ae37ef11b136ea224fe,,,,,,,,,3624,-114.3999414,-47.20000714,1,0,0,response5disk,,2,-9.599988699,12.79999375,1,0,0,rectangle,88.80001277,-45.60000712,1,0,0,response3disk_3,TRUE,5,5,"[315,289,310,291,236,108,168,245,8,236,122,166,265,226,164,1,16,52,6,173]",2.0506,4.000011504,-2.400006473,1,0,0,rectangle,1,65,225,115,1,
,,,,,,,,,,,,,FF,,,,,,,,2.0998,,,,,,,,,,,,,,,,,,,,,,5b76e19d948cc40001da0e50,610377bad87e153c2cccc7fe,2021-07-30_06h01.01.187,Simcolourproject_2stim_asymm_v5,2020.2.10,Win32,60,61025ae37ef11b136ea224fe,,,,,,,,,3820,88.00001276,-33.60000694,1,0,0,response3disk,,5,-0.799988568,5.599993646,1,0,0,rectangle,-0.799988568,5.599993646,1,0,0,,,,,,,-0.799988568,5.599993646,1,0,0,,1,66,226,55,1,
,,,,,,,,,,,,,FF,,,,,,,,1.5499,,,,,,,,,,,,,,,,,,,,,,5b76e19d948cc40001da0e50,610377bad87e153c2cccc7fe,2021-07-30_06h01.01.187,Simcolourproject_2stim_asymm_v5,2020.2.10,Win32,60,61025ae37ef11b136ea224fe,,,,,,,,,2572,41.60006089,88.79999489,1,0,0,response1disk,,7,-7.199988663,-8.000006557,1,0,0,rectangle,-7.199988663,-8.000006557,1,0,0,,,,,,,-7.199988663,-8.000006557,1,0,0,,1,67,227,116,1,
,,,,,,,,,,,,,FF,,,,,,,,0.8667,,,,,,,,,,,,,,,,,,,,,,5b76e19d948cc40001da0e50,610377bad87e153c2cccc7fe,2021-07-30_06h01.01.187,Simcolourproject_2stim_asymm_v5,2020.2.10,Win32,60,61025ae37ef11b136ea224fe,,,,,,,,,3207,41.60006089,93.59999496,1,0,0,response1disk,,7,9.600060415,2.399993598,1,0,0,rectangle,9.600060415,2.399993598,1,0,0,,,,,,,9.600060415,2.399993598,1,0,0,,1,68,228,58,1,
,,,,,,,,,,,,,FF,,,,,,,,1.4667,,,,,,,,,,,,,,,,,,,,,,5b76e19d948cc40001da0e50,610377bad87e153c2cccc7fe,2021-07-30_06h01.01.187,Simcolourproject_2stim_asymm_v5,2020.2.10,Win32,60,61025ae37ef11b136ea224fe,,,,,,,,,2561,70.40001249,-28.00000685,1,0,0,response3disk,,5,14.40001166,-4.000006497,1,0,0,rectangle,14.40001166,-4.000006497,1,0,0,,,,,,,14.40001166,-4.000006497,1,0,0,,1,69,229,142,1,
,,,,,,,,,,,,,FF,,,,,,,,1.0665,,,,,,,,,,,,,,,,,,,,,,5b76e19d948cc40001da0e50,610377bad87e153c2cccc7fe,2021-07-30_06h01.01.187,Simcolourproject_2stim_asymm_v5,2020.2.10,Win32,60,61025ae37ef11b136ea224fe,,,,,,,,,2130,102.400013,59.99999446,1,0,0,response1disk,,6,-6.399939823,10.39999372,1,0,0,rectangle,-6.399939823,10.39999372,1,0,0,,,,,,,-6.399939823,10.39999372,1,0,0,,1,70,230,12,1,
,,,,,,,,,,,,,FF,,,,,,,,1.1,,,,,,,,,,,,,,,,,,,,,,5b76e19d948cc40001da0e50,610377bad87e153c2cccc7fe,2021-07-30_06h01.01.187,Simcolourproject_2stim_asymm_v5,2020.2.10,Win32,60,61025ae37ef11b136ea224fe,,,,,,,,,3173,72.00001252,-39.20000702,1,0,0,response3disk,,5,8.800011575,-8.000006557,1,0,0,rectangle,8.800011575,-8.000006557,1,0,0,,,,,,,8.800011575,-8.000006557,1,0,0,,1,71,231,157,1,
,,,,,,,,,,,,,FF,,,,,,,,1.6668,,,,,,,,,,,,,,,,,,,,,,5b76e19d948cc40001da0e50,610377bad87e153c2cccc7fe,2021-07-30_06h01.01.187,Simcolourproject_2stim_asymm_v5,2020.2.10,Win32,60,61025ae37ef11b136ea224fe,,,,,,,,,2548,34.40001196,-97.60005672,1,0,0,response3disk,,4,0.800011456,-2.400006473,1,0,0,rectangle,0.800011456,-2.400006473,1,0,0,,,,,,,0.800011456,-2.400006473,1,0,0,,1,72,232,108,1,
,,,,,,,,,,,,,FF,,,,,,,,1.7172,,,,,,,,,,,,,,,,,,,,,,5b76e19d948cc40001da0e50,610377bad87e153c2cccc7fe,2021-07-30_06h01.01.187,Simcolourproject_2stim_asymm_v5,2020.2.10,Win32,60,61025ae37ef11b136ea224fe,,,,,,,,,3880,33.60006077,-84.00000769,1,0,0,response3disk,,4,-7.199988663,3.999993622,1,0,0,rectangle,-7.199988663,3.999993622,1,0,0,,,,,,,-7.199988663,3.999993622,1,0,0,,1,73,233,2,1,
,,,,,,,,,,,,,FF,,,,,,,,1.1167,,,,,,,,,,,,,,,,,,,,,,5b76e19d948cc40001da0e50,610377bad87e153c2cccc7fe,2021-07-30_06h01.01.187,Simcolourproject_2stim_asymm_v5,2020.2.10,Win32,60,61025ae37ef11b136ea224fe,,,,,,,,,911,-31.99998903,-102.400008,1,0,0,response5disk,,3,-2.399939764,-3.200006485,1,0,0,rectangle,-2.399939764,-3.200006485,1,0,0,,,,,,,-2.399939764,-3.200006485,1,0,0,,1,74,234,13,1,
,,,,,,,,,,,,,FF,,,,,,,,1.5169,,,,,,,,,,,,,,,,,,,,,,5b76e19d948cc40001da0e50,610377bad87e153c2cccc7fe,2021-07-30_06h01.01.187,Simcolourproject_2stim_asymm_v5,2020.2.10,Win32,60,61025ae37ef11b136ea224fe,,,,,,,,,1948,97.6000129,-19.20000672,1,0,0,response3disk,,5,-6.399939823,3.19999361,1,0,0,rectangle,107.200013,43.19996979,1,0,0,response1disk_3,TRUE,6,6,"[315,289,310,291,236,108,168,245,8,236,122,166,265,226,164,1,16,52,6,173]",1.7664,5.600060356,7.19999367,1,0,0,rectangle,1,75,235,89,1,
,,,,,,,,,,,,,FF,,,,,,,,1.4173,,,,,,,,,,,,,,,,,,,,,,5b76e19d948cc40001da0e50,610377bad87e153c2cccc7fe,2021-07-30_06h01.01.187,Simcolourproject_2stim_asymm_v5,2020.2.10,Win32,60,61025ae37ef11b136ea224fe,,,,,,,,,1872,100.0000129,33.59999406,1,0,0,response1disk,,6,-7.999988675,-6.4373E-06,1,0,0,rectangle,-7.999988675,-6.4373E-06,1,0,0,,,,,,,-7.999988675,-6.4373E-06,1,0,0,,1,76,236,47,1,
,,,,,,,,,,,,,FF,,,,,,,,1.067,,,,,,,,,,,,,,,,,,,,,,5b76e19d948cc40001da0e50,610377bad87e153c2cccc7fe,2021-07-30_06h01.01.187,Simcolourproject_2stim_asymm_v5,2020.2.10,Win32,60,61025ae37ef11b136ea224fe,,,,,,,,,1440,-19.19998884,-79.20000762,1,0,0,response5disk,,3,15.20001167,2.399993598,1,0,0,rectangle,15.20001167,2.399993598,1,0,0,,,,,,,15.20001167,2.399993598,1,0,0,,1,77,237,39,1,
,,,,,,,,,,,,,FF,,,,,,,,0.9832,,,,,,,,,,,,,,,,,,,,,,5b76e19d948cc40001da0e50,610377bad87e153c2cccc7fe,2021-07-30_06h01.01.187,Simcolourproject_2stim_asymm_v5,2020.2.10,Win32,60,61025ae37ef11b136ea224fe,,,,,,,,,368,-31.99998903,-76.00000757,1,0,0,response5disk,,3,1.14441E-05,-4.800006509,1,0,0,rectangle,1.14441E-05,-4.800006509,1,0,0,,,,,,,1.14441E-05,-4.800006509,1,0,0,,1,78,238,70,1,
,,,,,,,,,,,,,FF,,,,,,,,1.1503,,,,,,,,,,,,,,,,,,,,,,5b76e19d948cc40001da0e50,610377bad87e153c2cccc7fe,2021-07-30_06h01.01.187,Simcolourproject_2stim_asymm_v5,2020.2.10,Win32,60,61025ae37ef11b136ea224fe,,,,,,,,,1769,122.4000133,-26.40000683,1,0,0,response3disk,,5,36.80001199,6.399993658,1,0,0,rectangle,36.80001199,6.399993658,1,0,0,,,,,,,36.80001199,6.399993658,1,0,0,,1,79,239,85,1,
,,,,,,,,,,,,,FF,,,,,,,,1.0325,,,,,,,,,,,,,,,,,,,,,,5b76e19d948cc40001da0e50,610377bad87e153c2cccc7fe,2021-07-30_06h01.01.187,Simcolourproject_2stim_asymm_v5,2020.2.10,Win32,60,61025ae37ef11b136ea224fe,,,,,,,,,3326,-35.99998909,-100.0000079,1,0,0,response5disk,,3,4.800011516,2.399993598,1,0,0,rectangle,4.800011516,2.399993598,1,0,0,,,,,,,4.800011516,2.399993598,1,0,0,,1,80,240,51,1,
,,,,,,,,,,,,,FF,,,,,,,,0.8996,,,,,,,,,,,,,,,,,,,,,,5b76e19d948cc40001da0e50,610377bad87e153c2cccc7fe,2021-07-30_06h01.01.187,Simcolourproject_2stim_asymm_v5,2020.2.10,Win32,60,61025ae37ef11b136ea224fe,,,,,,,,,739,84.80001271,41.59999418,1,0,0,response1disk,,6,16.00001168,4.799993634,1,0,0,rectangle,16.00001168,4.799993634,1,0,0,,,,,,,16.00001168,4.799993634,1,0,0,,1,81,241,14,1,
,,,,,,,,,,,,,FF,,,,,,,,1.5833,,,,,,,,,,,,,,,,,,,,,,5b76e19d948cc40001da0e50,610377bad87e153c2cccc7fe,2021-07-30_06h01.01.187,Simcolourproject_2stim_asymm_v5,2020.2.10,Win32,60,61025ae37ef11b136ea224fe,,,,,,,,,1691,-50.39994048,-97.60005672,1,0,0,response5disk,,3,-7.999988675,-7.200006545,1,0,0,rectangle,-7.999988675,-7.200006545,1,0,0,,,,,,,-7.999988675,-7.200006545,1,0,0,,1,82,242,153,1,
,,,,,,,,,,,,,FF,,,,,,,,1.1505,,,,,,,,,,,,,,,,,,,,,,5b76e19d948cc40001da0e50,610377bad87e153c2cccc7fe,2021-07-30_06h01.01.187,Simcolourproject_2stim_asymm_v5,2020.2.10,Win32,60,61025ae37ef11b136ea224fe,,,,,,,,,1188,73.60001254,47.99999428,1,0,0,response1disk,,6,-3.999988616,8.799993694,1,0,0,rectangle,-3.999988616,8.799993694,1,0,0,,,,,,,-3.999988616,8.799993694,1,0,0,,1,83,243,61,1,
