key_resp.keys,key_resp.rt,key_resp_14.keys,key_resp_14.rt,key_resp_15.keys,key_resp_15.rt,key_resp_17.keys,key_resp_17.rt,key_resp_9.keys,key_resp_9.rt,key_resp_10.keys,key_resp_10.rt,practice_comparison,Ecc,mouse_5.x,mouse_5.y,mouse_5.leftButton,mouse_5.midButton,mouse_5.rightButton,mouse_5.clicked_name,pracsimilarity,response_time,mouse_10.x,mouse_10.y,mouse_10.leftButton,mouse_10.midButton,mouse_10.rightButton,mouse_10.clicked_name,mouse_7.x,mouse_7.y,mouse_7.leftButton,mouse_7.midButton,mouse_7.rightButton,mouse_6.x,mouse_6.y,mouse_6.leftButton,mouse_6.midButton,mouse_6.rightButton,duringprac.thisRepN,duringprac.thisTrialN,duringprac.thisN,duringprac.thisIndex,duringprac.ran,participant,session,date,expName,psychopyVersion,OS,frameRate,study_id,mouse_7.clicked_name,catchpracsimilarity,catch_response_time,catchnumberprac,catchtrialorderprac,mouse_6.clicked_name,key_resp_22.keys,key_resp_22.rt,realcomparison,mouse.x,mouse.y,mouse.leftButton,mouse.midButton,mouse.rightButton,mouse.clicked_name,Colour2,similarity,mouse_2.x,mouse_2.y,mouse_2.leftButton,mouse_2.midButton,mouse_2.rightButton,mouse_2.clicked_name,mouse_3.x,mouse_3.y,mouse_3.leftButton,mouse_3.midButton,mouse_3.rightButton,mouse_11.x,mouse_11.y,mouse_11.leftButton,mouse_11.midButton,mouse_11.rightButton,trials_2.thisRepN,trials_2.thisTrialN,trials_2.thisN,trials_2.thisIndex,trials_2.ran,Colour1,mouse_3.clicked_name,catchornah,catchsimilarity,catchnumber,catchtrialorder,catchRT,mouse_11.clicked_name
space,1.8421,space,58.1582,space,50.8922,space,13.9993,space,9.6766,space,5.0322,124,PF,54,27,1,0,0,response1disk_5,6,15.2832,-3,-1,1,0,0,rectangle_8,-3,-1,1,0,0,-3,-1,1,0,0,0,0,0,4,1,5d4ca0ef259d580001cde9bb,61036ea75257ad60f1dc32ee,2021-07-29_22h16.32.739,Simcolourproject_2stim_asymm_v5,2020.2.10,Win32,60,61025ae37ef11b136ea224fe,,,,,,,,,,,,,,,,,,,,,,,,,,,,,,,,,,,,,,,,,,,,,,
,,,,,,,,,,,,19,FF,78,-46,1,0,0,response3disk_5,5,10.9421,4,3,1,0,0,rectangle_8,37,-87,1,0,0,-1,-4,1,0,0,0,1,1,3,1,5d4ca0ef259d580001cde9bb,61036ea75257ad60f1dc32ee,2021-07-29_22h16.32.739,Simcolourproject_2stim_asymm_v5,2020.2.10,Win32,60,61025ae37ef11b136ea224fe,response3disk_7,4,4.8002,4,"[2,5]",rectangle_4,,,,,,,,,,,,,,,,,,,,,,,,,,,,,,,,,,,,,,,,
,,,,,,,,,,,,122,PF,23,64,1,0,0,response1disk_5,7,2.5162,0,-4,1,0,0,rectangle_8,0,-4,1,0,0,0,-4,1,0,0,0,2,2,1,1,5d4ca0ef259d580001cde9bb,61036ea75257ad60f1dc32ee,2021-07-29_22h16.32.739,Simcolourproject_2stim_asymm_v5,2020.2.10,Win32,60,61025ae37ef11b136ea224fe,,,,,,,,,,,,,,,,,,,,,,,,,,,,,,,,,,,,,,,,,,,,,,
,,,,,,,,,,,,138,PF,-71,-40,1,0,0,response5disk_5,2,4.704,-9,-6,1,0,0,rectangle_8,-9,-6,1,0,0,-9,-6,1,0,0,0,3,3,2,1,5d4ca0ef259d580001cde9bb,61036ea75257ad60f1dc32ee,2021-07-29_22h16.32.739,Simcolourproject_2stim_asymm_v5,2020.2.10,Win32,60,61025ae37ef11b136ea224fe,,,,,,,,,,,,,,,,,,,,,,,,,,,,,,,,,,,,,,,,,,,,,,
,,,,,,,,,,,,61,FF,43,81,1,0,0,response1disk_5,7,4.6652,-3,2,1,0,0,rectangle_8,42,-83,1,0,0,-6,-3,1,0,0,0,4,4,0,1,5d4ca0ef259d580001cde9bb,61036ea75257ad60f1dc32ee,2021-07-29_22h16.32.739,Simcolourproject_2stim_asymm_v5,2020.2.10,Win32,60,61025ae37ef11b136ea224fe,response3disk_7,4,2.2039,4,"[2,5]",rectangle_4,,,,,,,,,,,,,,,,,,,,,,,,,,,,,,,,,,,,,,,,
,,,,,,,,,,,,108,FF,49,-87,1,0,0,response3disk_5,4,5.6038,3,6,1,0,0,rectangle_8,3,6,1,0,0,3,6,1,0,0,0,5,5,5,1,5d4ca0ef259d580001cde9bb,61036ea75257ad60f1dc32ee,2021-07-29_22h16.32.739,Simcolourproject_2stim_asymm_v5,2020.2.10,Win32,60,61025ae37ef11b136ea224fe,,,,,,,,,,,,,,,,,,,,,,,,,,,,,,,,,,,,,,,,,,,,,,
,,,,,,,,,,,,46,PF,-84,-32,1,0,0,response5disk_5,2,5.6539,4,-1,1,0,0,rectangle_8,4,-1,1,0,0,4,-1,1,0,0,0,6,6,6,1,5d4ca0ef259d580001cde9bb,61036ea75257ad60f1dc32ee,2021-07-29_22h16.32.739,Simcolourproject_2stim_asymm_v5,2020.2.10,Win32,60,61025ae37ef11b136ea224fe,,,,,,,,,,,,,,,,,,,,,,,,,,,,,,,,,,,,,,,,,,,,,,
,,,,,,,,,,,,,FF,,,,,,,,3.9327,,,,,,,,,,,,,,,,,,,,,,5d4ca0ef259d580001cde9bb,61036ea75257ad60f1dc32ee,2021-07-29_22h16.32.739,Simcolourproject_2stim_asymm_v5,2020.2.10,Win32,60,61025ae37ef11b136ea224fe,,,,,,,space,5.0389,836,77,-45,1,0,0,response3disk,,5,-1,1,1,0,0,rectangle,-1,1,1,0,0,-1,1,1,0,0,0,0,0,72,1,,,,,,,,
,,,,,,,,,,,,,FF,,,,,,,,3.6831,,,,,,,,,,,,,,,,,,,,,,5d4ca0ef259d580001cde9bb,61036ea75257ad60f1dc32ee,2021-07-29_22h16.32.739,Simcolourproject_2stim_asymm_v5,2020.2.10,Win32,60,61025ae37ef11b136ea224fe,,,,,,,,,3634,-35,-87,1,0,0,response5disk,,3,2,0,1,0,0,rectangle,2,0,1,0,0,2,0,1,0,0,0,1,1,10,1,,,,,,,,
,,,,,,,,,,,,,FF,,,,,,,,4.315,,,,,,,,,,,,,,,,,,,,,,5d4ca0ef259d580001cde9bb,61036ea75257ad60f1dc32ee,2021-07-29_22h16.32.739,Simcolourproject_2stim_asymm_v5,2020.2.10,Win32,60,61025ae37ef11b136ea224fe,,,,,,,,,319,44,81,1,0,0,response1disk,,7,5,-7,1,0,0,rectangle,5,-7,1,0,0,5,-7,1,0,0,0,2,2,150,1,,,,,,,,
,,,,,,,,,,,,,FF,,,,,,,,4.2158,,,,,,,,,,,,,,,,,,,,,,5d4ca0ef259d580001cde9bb,61036ea75257ad60f1dc32ee,2021-07-29_22h16.32.739,Simcolourproject_2stim_asymm_v5,2020.2.10,Win32,60,61025ae37ef11b136ea224fe,,,,,,,,,1508,75,30,1,0,0,response1disk,,6,-2,-3,1,0,0,rectangle,-61,28,1,0,0,1,-4,1,0,0,0,3,3,90,1,,response7disk_3,TRUE,1,1,"[34,74,141,173,191,202,149,240,4,6,37,22,81,143,16,112,42,259,31,142]",2.3335,rectangle
,,,,,,,,,,,,,FF,,,,,,,,3.4322,,,,,,,,,,,,,,,,,,,,,,5d4ca0ef259d580001cde9bb,61036ea75257ad60f1dc32ee,2021-07-29_22h16.32.739,Simcolourproject_2stim_asymm_v5,2020.2.10,Win32,60,61025ae37ef11b136ea224fe,,,,,,,,,1618,-78,-40,1,0,0,response5disk,,2,-7,3,1,0,0,rectangle,-7,3,1,0,0,-7,3,1,0,0,0,4,4,48,1,,,,,,,,
,,,,,,,,,,,,,FF,,,,,,,,3.716,,,,,,,,,,,,,,,,,,,,,,5d4ca0ef259d580001cde9bb,61036ea75257ad60f1dc32ee,2021-07-29_22h16.32.739,Simcolourproject_2stim_asymm_v5,2020.2.10,Win32,60,61025ae37ef11b136ea224fe,,,,,,,,,392,82,31,1,0,0,response1disk,,6,-10,1,1,0,0,rectangle,82,-23,1,0,0,-2,1,1,0,0,0,5,5,114,1,,response3disk_3,TRUE,5,5,"[34,74,141,173,191,202,149,240,4,6,37,22,81,143,16,112,42,259,31,142]",1.6661,rectangle
,,,,,,,,,,,,,FF,,,,,,,,2.5502,,,,,,,,,,,,,,,,,,,,,,5d4ca0ef259d580001cde9bb,61036ea75257ad60f1dc32ee,2021-07-29_22h16.32.739,Simcolourproject_2stim_asymm_v5,2020.2.10,Win32,60,61025ae37ef11b136ea224fe,,,,,,,,,706,-63,26,1,0,0,response7disk,,1,-5,-3,1,0,0,rectangle,-5,-3,1,0,0,-5,-3,1,0,0,0,6,6,88,1,,,,,,,,
,,,,,,,,,,,,,FF,,,,,,,,3.1823,,,,,,,,,,,,,,,,,,,,,,5d4ca0ef259d580001cde9bb,61036ea75257ad60f1dc32ee,2021-07-29_22h16.32.739,Simcolourproject_2stim_asymm_v5,2020.2.10,Win32,60,61025ae37ef11b136ea224fe,,,,,,,,,4314,38,58,1,0,0,response1disk,,7,-5,5,1,0,0,rectangle,-5,5,1,0,0,-5,5,1,0,0,0,7,7,57,1,,,,,,,,
,,,,,,,,,,,,,FF,,,,,,,,1.8664,,,,,,,,,,,,,,,,,,,,,,5d4ca0ef259d580001cde9bb,61036ea75257ad60f1dc32ee,2021-07-29_22h16.32.739,Simcolourproject_2stim_asymm_v5,2020.2.10,Win32,60,61025ae37ef11b136ea224fe,,,,,,,,,758,33,60,1,0,0,response1disk,,7,-8,-2,1,0,0,rectangle,-8,-2,1,0,0,-8,-2,1,0,0,0,8,8,43,1,,,,,,,,
,,,,,,,,,,,,,FF,,,,,,,,2.132,,,,,,,,,,,,,,,,,,,,,,5d4ca0ef259d580001cde9bb,61036ea75257ad60f1dc32ee,2021-07-29_22h16.32.739,Simcolourproject_2stim_asymm_v5,2020.2.10,Win32,60,61025ae37ef11b136ea224fe,,,,,,,,,1378,71,-31,1,0,0,response3disk,,5,-6,-4,1,0,0,rectangle,-6,-4,1,0,0,-6,-4,1,0,0,0,9,9,111,1,,,,,,,,
,,,,,,,,,,,,,FF,,,,,,,,2.1831,,,,,,,,,,,,,,,,,,,,,,5d4ca0ef259d580001cde9bb,61036ea75257ad60f1dc32ee,2021-07-29_22h16.32.739,Simcolourproject_2stim_asymm_v5,2020.2.10,Win32,60,61025ae37ef11b136ea224fe,,,,,,,,,1288,35,-71,1,0,0,response3disk,,4,-7,3,1,0,0,rectangle,-7,3,1,0,0,-7,3,1,0,0,0,10,10,36,1,,,,,,,,
,,,,,,,,,,,,,FF,,,,,,,,1.9165,,,,,,,,,,,,,,,,,,,,,,5d4ca0ef259d580001cde9bb,61036ea75257ad60f1dc32ee,2021-07-29_22h16.32.739,Simcolourproject_2stim_asymm_v5,2020.2.10,Win32,60,61025ae37ef11b136ea224fe,,,,,,,,,1018,31,65,1,0,0,response1disk,,7,3,-5,1,0,0,rectangle,3,-5,1,0,0,3,-5,1,0,0,0,11,11,4,1,,,,,,,,
,,,,,,,,,,,,,FF,,,,,,,,6.9476,,,,,,,,,,,,,,,,,,,,,,5d4ca0ef259d580001cde9bb,61036ea75257ad60f1dc32ee,2021-07-29_22h16.32.739,Simcolourproject_2stim_asymm_v5,2020.2.10,Win32,60,61025ae37ef11b136ea224fe,,,,,,,,,2239,-36,-82,1,0,0,response5disk,,3,-4,-7,1,0,0,rectangle,-4,-7,1,0,0,-4,-7,1,0,0,0,12,12,112,1,,,,,,,,
,,,,,,,,,,,,,FF,,,,,,,,1.817,,,,,,,,,,,,,,,,,,,,,,5d4ca0ef259d580001cde9bb,61036ea75257ad60f1dc32ee,2021-07-29_22h16.32.739,Simcolourproject_2stim_asymm_v5,2020.2.10,Win32,60,61025ae37ef11b136ea224fe,,,,,,,,,426,-34,-70,1,0,0,response5disk,,3,5,-3,1,0,0,rectangle,5,-3,1,0,0,5,-3,1,0,0,0,13,13,100,1,,,,,,,,
,,,,,,,,,,,,,FF,,,,,,,,1.5499,,,,,,,,,,,,,,,,,,,,,,5d4ca0ef259d580001cde9bb,61036ea75257ad60f1dc32ee,2021-07-29_22h16.32.739,Simcolourproject_2stim_asymm_v5,2020.2.10,Win32,60,61025ae37ef11b136ea224fe,,,,,,,,,1048,47,24,1,0,0,response1disk,,6,-1,1,1,0,0,rectangle,-1,1,1,0,0,-1,1,1,0,0,0,14,14,2,1,,,,,,,,
,,,,,,,,,,,,,FF,,,,,,,,4.1116,,,,,,,,,,,,,,,,,,,,,,5d4ca0ef259d580001cde9bb,61036ea75257ad60f1dc32ee,2021-07-29_22h16.32.739,Simcolourproject_2stim_asymm_v5,2020.2.10,Win32,60,61025ae37ef11b136ea224fe,,,,,,,,,1384,49,-61,1,0,0,response3disk,,4,-6,-3,1,0,0,rectangle,85,26,1,0,0,3,1,1,0,0,0,15,15,30,1,,response1disk_3,TRUE,6,6,"[34,74,141,173,191,202,149,240,4,6,37,22,81,143,16,112,42,259,31,142]",2.5322,rectangle
,,,,,,,,,,,,,FF,,,,,,,,4.116,,,,,,,,,,,,,,,,,,,,,,5d4ca0ef259d580001cde9bb,61036ea75257ad60f1dc32ee,2021-07-29_22h16.32.739,Simcolourproject_2stim_asymm_v5,2020.2.10,Win32,60,61025ae37ef11b136ea224fe,,,,,,,,,3468,-38,88,1,0,0,response7disk,,0,-4,1,1,0,0,rectangle,-4,1,1,0,0,-4,1,1,0,0,0,16,16,116,1,,,,,,,,
,,,,,,,,,,,,,FF,,,,,,,,2.3987,,,,,,,,,,,,,,,,,,,,,,5d4ca0ef259d580001cde9bb,61036ea75257ad60f1dc32ee,2021-07-29_22h16.32.739,Simcolourproject_2stim_asymm_v5,2020.2.10,Win32,60,61025ae37ef11b136ea224fe,,,,,,,,,2354,72,38,1,0,0,response1disk,,6,-10,1,1,0,0,rectangle,-10,1,1,0,0,-10,1,1,0,0,0,17,17,5,1,,,,,,,,
,,,,,,,,,,,,,FF,,,,,,,,1.7826,,,,,,,,,,,,,,,,,,,,,,5d4ca0ef259d580001cde9bb,61036ea75257ad60f1dc32ee,2021-07-29_22h16.32.739,Simcolourproject_2stim_asymm_v5,2020.2.10,Win32,60,61025ae37ef11b136ea224fe,,,,,,,,,1866,52,70,1,0,0,response1disk,,7,10,6,1,0,0,rectangle,10,6,1,0,0,10,6,1,0,0,0,18,18,82,1,,,,,,,,
,,,,,,,,,,,,,FF,,,,,,,,1.4606,,,,,,,,,,,,,,,,,,,,,,5d4ca0ef259d580001cde9bb,61036ea75257ad60f1dc32ee,2021-07-29_22h16.32.739,Simcolourproject_2stim_asymm_v5,2020.2.10,Win32,60,61025ae37ef11b136ea224fe,,,,,,,,,1760,37,-63,1,0,0,response3disk,,4,5,1,1,0,0,rectangle,5,1,1,0,0,5,1,1,0,0,0,19,19,14,1,,,,,,,,
,,,,,,,,,,,,,FF,,,,,,,,2.062,,,,,,,,,,,,,,,,,,,,,,5d4ca0ef259d580001cde9bb,61036ea75257ad60f1dc32ee,2021-07-29_22h16.32.739,Simcolourproject_2stim_asymm_v5,2020.2.10,Win32,60,61025ae37ef11b136ea224fe,,,,,,,,,2896,-77,-47,1,0,0,response5disk,,2,-1,5,1,0,0,rectangle,-1,5,1,0,0,-1,5,1,0,0,0,20,20,67,1,,,,,,,,
,,,,,,,,,,,,,FF,,,,,,,,1.483,,,,,,,,,,,,,,,,,,,,,,5d4ca0ef259d580001cde9bb,61036ea75257ad60f1dc32ee,2021-07-29_22h16.32.739,Simcolourproject_2stim_asymm_v5,2020.2.10,Win32,60,61025ae37ef11b136ea224fe,,,,,,,,,4259,54,-31,1,0,0,response3disk,,5,5,-7,1,0,0,rectangle,-34,-87,1,0,0,-3,-1,1,0,0,0,21,21,127,1,,response5disk_3,TRUE,3,3,"[34,74,141,173,191,202,149,240,4,6,37,22,81,143,16,112,42,259,31,142]",2.4656,rectangle
,,,,,,,,,,,,,FF,,,,,,,,4.111,,,,,,,,,,,,,,,,,,,,,,5d4ca0ef259d580001cde9bb,61036ea75257ad60f1dc32ee,2021-07-29_22h16.32.739,Simcolourproject_2stim_asymm_v5,2020.2.10,Win32,60,61025ae37ef11b136ea224fe,,,,,,,,,3307,47,-35,1,0,0,response3disk,,5,-5,-5,1,0,0,rectangle,-5,-5,1,0,0,-5,-5,1,0,0,0,22,22,92,1,,,,,,,,
,,,,,,,,,,,,,FF,,,,,,,,1.299,,,,,,,,,,,,,,,,,,,,,,5d4ca0ef259d580001cde9bb,61036ea75257ad60f1dc32ee,2021-07-29_22h16.32.739,Simcolourproject_2stim_asymm_v5,2020.2.10,Win32,60,61025ae37ef11b136ea224fe,,,,,,,,,2389,66,-27,1,0,0,response3disk,,5,-2,1,1,0,0,rectangle,-2,1,1,0,0,-2,1,1,0,0,0,23,23,74,1,,,,,,,,
,,,,,,,,,,,,,FF,,,,,,,,1.372,,,,,,,,,,,,,,,,,,,,,,5d4ca0ef259d580001cde9bb,61036ea75257ad60f1dc32ee,2021-07-29_22h16.32.739,Simcolourproject_2stim_asymm_v5,2020.2.10,Win32,60,61025ae37ef11b136ea224fe,,,,,,,,,3407,53,28,1,0,0,response1disk,,6,-6,-3,1,0,0,rectangle,-6,-3,1,0,0,-6,-3,1,0,0,0,24,24,119,1,,,,,,,,
,,,,,,,,,,,,,FF,,,,,,,,3.1342,,,,,,,,,,,,,,,,,,,,,,5d4ca0ef259d580001cde9bb,61036ea75257ad60f1dc32ee,2021-07-29_22h16.32.739,Simcolourproject_2stim_asymm_v5,2020.2.10,Win32,60,61025ae37ef11b136ea224fe,,,,,,,,,2475,31,61,1,0,0,response1disk,,7,2,1,1,0,0,rectangle,2,1,1,0,0,2,1,1,0,0,0,25,25,70,1,,,,,,,,
,,,,,,,,,,,,,FF,,,,,,,,1.4887,,,,,,,,,,,,,,,,,,,,,,5d4ca0ef259d580001cde9bb,61036ea75257ad60f1dc32ee,2021-07-29_22h16.32.739,Simcolourproject_2stim_asymm_v5,2020.2.10,Win32,60,61025ae37ef11b136ea224fe,,,,,,,,,2607,-69,33,1,0,0,response7disk,,1,-7,-4,1,0,0,rectangle,-7,-4,1,0,0,-7,-4,1,0,0,0,26,26,61,1,,,,,,,,
,,,,,,,,,,,,,FF,,,,,,,,1.3548,,,,,,,,,,,,,,,,,,,,,,5d4ca0ef259d580001cde9bb,61036ea75257ad60f1dc32ee,2021-07-29_22h16.32.739,Simcolourproject_2stim_asymm_v5,2020.2.10,Win32,60,61025ae37ef11b136ea224fe,,,,,,,,,1763,-37,-61,1,0,0,response5disk,,3,8,-4,1,0,0,rectangle,8,-4,1,0,0,8,-4,1,0,0,0,27,27,32,1,,,,,,,,
,,,,,,,,,,,,,FF,,,,,,,,2.0823,,,,,,,,,,,,,,,,,,,,,,5d4ca0ef259d580001cde9bb,61036ea75257ad60f1dc32ee,2021-07-29_22h16.32.739,Simcolourproject_2stim_asymm_v5,2020.2.10,Win32,60,61025ae37ef11b136ea224fe,,,,,,,,,1540,-23,-75,1,0,0,response5disk,,3,-3,-3,1,0,0,rectangle,-3,-3,1,0,0,-3,-3,1,0,0,0,28,28,0,1,,,,,,,,
,,,,,,,,,,,,,FF,,,,,,,,1.3329,,,,,,,,,,,,,,,,,,,,,,5d4ca0ef259d580001cde9bb,61036ea75257ad60f1dc32ee,2021-07-29_22h16.32.739,Simcolourproject_2stim_asymm_v5,2020.2.10,Win32,60,61025ae37ef11b136ea224fe,,,,,,,,,32,63,-31,1,0,0,response3disk,,5,2,-6,1,0,0,rectangle,2,-6,1,0,0,2,-6,1,0,0,0,29,29,6,1,,,,,,,,
,,,,,,,,,,,,,FF,,,,,,,,3.5818,,,,,,,,,,,,,,,,,,,,,,5d4ca0ef259d580001cde9bb,61036ea75257ad60f1dc32ee,2021-07-29_22h16.32.739,Simcolourproject_2stim_asymm_v5,2020.2.10,Win32,60,61025ae37ef11b136ea224fe,,,,,,,,,3522,50,23,1,0,0,response1disk,,6,5,-1,1,0,0,rectangle,-34,-77,1,0,0,1,-1,1,0,0,0,30,30,27,1,,response5disk_3,TRUE,3,3,"[34,74,141,173,191,202,149,240,4,6,37,22,81,143,16,112,42,259,31,142]",2.071,rectangle
,,,,,,,,,,,,,FF,,,,,,,,2.9321,,,,,,,,,,,,,,,,,,,,,,5d4ca0ef259d580001cde9bb,61036ea75257ad60f1dc32ee,2021-07-29_22h16.32.739,Simcolourproject_2stim_asymm_v5,2020.2.10,Win32,60,61025ae37ef11b136ea224fe,,,,,,,,,239,-28,-80,1,0,0,response5disk,,3,0,-3,1,0,0,rectangle,0,-3,1,0,0,0,-3,1,0,0,0,31,31,118,1,,,,,,,,
,,,,,,,,,,,,,FF,,,,,,,,2.2547,,,,,,,,,,,,,,,,,,,,,,5d4ca0ef259d580001cde9bb,61036ea75257ad60f1dc32ee,2021-07-29_22h16.32.739,Simcolourproject_2stim_asymm_v5,2020.2.10,Win32,60,61025ae37ef11b136ea224fe,,,,,,,,,598,42,-33,1,0,0,response3disk,,5,-7,-2,1,0,0,rectangle,-7,-2,1,0,0,-7,-2,1,0,0,0,32,32,136,1,,,,,,,,
,,,,,,,,,,,,,FF,,,,,,,,1.6171,,,,,,,,,,,,,,,,,,,,,,5d4ca0ef259d580001cde9bb,61036ea75257ad60f1dc32ee,2021-07-29_22h16.32.739,Simcolourproject_2stim_asymm_v5,2020.2.10,Win32,60,61025ae37ef11b136ea224fe,,,,,,,,,1454,-67,20,1,0,0,response7disk,,1,0,2,1,0,0,rectangle,36,91,1,0,0,5,6,1,0,0,0,33,33,85,1,,response1disk_3,TRUE,7,7,"[34,74,141,173,191,202,149,240,4,6,37,22,81,143,16,112,42,259,31,142]",2.1048,rectangle
,,,,,,,,,,,,,FF,,,,,,,,1.2498,,,,,,,,,,,,,,,,,,,,,,5d4ca0ef259d580001cde9bb,61036ea75257ad60f1dc32ee,2021-07-29_22h16.32.739,Simcolourproject_2stim_asymm_v5,2020.2.10,Win32,60,61025ae37ef11b136ea224fe,,,,,,,,,3277,31,66,1,0,0,response1disk,,7,-3,2,1,0,0,rectangle,-3,2,1,0,0,-3,2,1,0,0,0,34,34,155,1,,,,,,,,
,,,,,,,,,,,,,FF,,,,,,,,1.2205,,,,,,,,,,,,,,,,,,,,,,5d4ca0ef259d580001cde9bb,61036ea75257ad60f1dc32ee,2021-07-29_22h16.32.739,Simcolourproject_2stim_asymm_v5,2020.2.10,Win32,60,61025ae37ef11b136ea224fe,,,,,,,,,1303,-64,-34,1,0,0,response5disk,,2,2,4,1,0,0,rectangle,2,4,1,0,0,2,4,1,0,0,0,35,35,130,1,,,,,,,,
,,,,,,,,,,,,,FF,,,,,,,,1.0557,,,,,,,,,,,,,,,,,,,,,,5d4ca0ef259d580001cde9bb,61036ea75257ad60f1dc32ee,2021-07-29_22h16.32.739,Simcolourproject_2stim_asymm_v5,2020.2.10,Win32,60,61025ae37ef11b136ea224fe,,,,,,,,,1362,-22,-73,1,0,0,response5disk,,3,0,-1,1,0,0,rectangle,-25,-79,1,0,0,-1,-6,1,0,0,0,36,36,93,1,,response5disk_3,TRUE,3,3,"[34,74,141,173,191,202,149,240,4,6,37,22,81,143,16,112,42,259,31,142]",2.2208,rectangle
,,,,,,,,,,,,,FF,,,,,,,,1.9786,,,,,,,,,,,,,,,,,,,,,,5d4ca0ef259d580001cde9bb,61036ea75257ad60f1dc32ee,2021-07-29_22h16.32.739,Simcolourproject_2stim_asymm_v5,2020.2.10,Win32,60,61025ae37ef11b136ea224fe,,,,,,,,,423,-28,-68,1,0,0,response5disk,,3,-3,3,1,0,0,rectangle,-3,3,1,0,0,-3,3,1,0,0,0,37,37,1,1,,,,,,,,
,,,,,,,,,,,,,FF,,,,,,,,1.4831,,,,,,,,,,,,,,,,,,,,,,5d4ca0ef259d580001cde9bb,61036ea75257ad60f1dc32ee,2021-07-29_22h16.32.739,Simcolourproject_2stim_asymm_v5,2020.2.10,Win32,60,61025ae37ef11b136ea224fe,,,,,,,,,3670,-71,26,1,0,0,response7disk,,1,-6,3,1,0,0,rectangle,-6,3,1,0,0,-6,3,1,0,0,0,38,38,49,1,,,,,,,,
,,,,,,,,,,,,,FF,,,,,,,,1.4545,,,,,,,,,,,,,,,,,,,,,,5d4ca0ef259d580001cde9bb,61036ea75257ad60f1dc32ee,2021-07-29_22h16.32.739,Simcolourproject_2stim_asymm_v5,2020.2.10,Win32,60,61025ae37ef11b136ea224fe,,,,,,,,,4229,46,-71,1,0,0,response3disk,,4,-5,2,1,0,0,rectangle,-5,2,1,0,0,-5,2,1,0,0,0,39,39,137,1,,,,,,,,
,,,,,,,,,,,,,FF,,,,,,,,2.2044,,,,,,,,,,,,,,,,,,,,,,5d4ca0ef259d580001cde9bb,61036ea75257ad60f1dc32ee,2021-07-29_22h16.32.739,Simcolourproject_2stim_asymm_v5,2020.2.10,Win32,60,61025ae37ef11b136ea224fe,,,,,,,,,1154,43,-73,1,0,0,response3disk,,4,5,3,1,0,0,rectangle,5,3,1,0,0,5,3,1,0,0,0,40,40,68,1,,,,,,,,
,,,,,,,,,,,,,FF,,,,,,,,1.0789,,,,,,,,,,,,,,,,,,,,,,5d4ca0ef259d580001cde9bb,61036ea75257ad60f1dc32ee,2021-07-29_22h16.32.739,Simcolourproject_2stim_asymm_v5,2020.2.10,Win32,60,61025ae37ef11b136ea224fe,,,,,,,,,2164,-50,-29,1,0,0,response5disk,,2,-6,3,1,0,0,rectangle,-69,-27,1,0,0,-9,-1,1,0,0,0,41,41,75,1,,response5disk_3,TRUE,2,2,"[34,74,141,173,191,202,149,240,4,6,37,22,81,143,16,112,42,259,31,142]",1.5494,rectangle
,,,,,,,,,,,,,FF,,,,,,,,1.8319,,,,,,,,,,,,,,,,,,,,,,5d4ca0ef259d580001cde9bb,61036ea75257ad60f1dc32ee,2021-07-29_22h16.32.739,Simcolourproject_2stim_asymm_v5,2020.2.10,Win32,60,61025ae37ef11b136ea224fe,,,,,,,,,2363,-33,-76,1,0,0,response5disk,,3,4,-4,1,0,0,rectangle,4,-4,1,0,0,4,-4,1,0,0,0,42,42,54,1,,,,,,,,
,,,,,,,,,,,,,FF,,,,,,,,1.067,,,,,,,,,,,,,,,,,,,,,,5d4ca0ef259d580001cde9bb,61036ea75257ad60f1dc32ee,2021-07-29_22h16.32.739,Simcolourproject_2stim_asymm_v5,2020.2.10,Win32,60,61025ae37ef11b136ea224fe,,,,,,,,,548,-64,34,1,0,0,response7disk,,1,0,0,1,0,0,rectangle,0,0,1,0,0,0,0,1,0,0,0,43,43,13,1,,,,,,,,
,,,,,,,,,,,,,FF,,,,,,,,1.7662,,,,,,,,,,,,,,,,,,,,,,5d4ca0ef259d580001cde9bb,61036ea75257ad60f1dc32ee,2021-07-29_22h16.32.739,Simcolourproject_2stim_asymm_v5,2020.2.10,Win32,60,61025ae37ef11b136ea224fe,,,,,,,,,4005,-71,-45,1,0,0,response5disk,,2,-1,-5,1,0,0,rectangle,-1,-5,1,0,0,-1,-5,1,0,0,0,44,44,25,1,,,,,,,,
,,,,,,,,,,,,,FF,,,,,,,,1.5463,,,,,,,,,,,,,,,,,,,,,,5d4ca0ef259d580001cde9bb,61036ea75257ad60f1dc32ee,2021-07-29_22h16.32.739,Simcolourproject_2stim_asymm_v5,2020.2.10,Win32,60,61025ae37ef11b136ea224fe,,,,,,,,,2568,68,-49,1,0,0,response3disk,,5,-1,-7,1,0,0,rectangle,-1,-7,1,0,0,-1,-7,1,0,0,0,45,45,35,1,,,,,,,,
,,,,,,,,,,,,,FF,,,,,,,,1.0215,,,,,,,,,,,,,,,,,,,,,,5d4ca0ef259d580001cde9bb,61036ea75257ad60f1dc32ee,2021-07-29_22h16.32.739,Simcolourproject_2stim_asymm_v5,2020.2.10,Win32,60,61025ae37ef11b136ea224fe,,,,,,,,,1681,-71,-43,1,0,0,response5disk,,2,1,-2,1,0,0,rectangle,1,-2,1,0,0,1,-2,1,0,0,0,46,46,53,1,,,,,,,,
,,,,,,,,,,,,,FF,,,,,,,,2.1496,,,,,,,,,,,,,,,,,,,,,,5d4ca0ef259d580001cde9bb,61036ea75257ad60f1dc32ee,2021-07-29_22h16.32.739,Simcolourproject_2stim_asymm_v5,2020.2.10,Win32,60,61025ae37ef11b136ea224fe,,,,,,,,,957,-53,-38,1,0,0,response5disk,,2,-2,-6,1,0,0,rectangle,-2,-6,1,0,0,-2,-6,1,0,0,0,47,47,147,1,,,,,,,,
,,,,,,,,,,,,,FF,,,,,,,,1.4616,,,,,,,,,,,,,,,,,,,,,,5d4ca0ef259d580001cde9bb,61036ea75257ad60f1dc32ee,2021-07-29_22h16.32.739,Simcolourproject_2stim_asymm_v5,2020.2.10,Win32,60,61025ae37ef11b136ea224fe,,,,,,,,,2559,32,-74,1,0,0,response3disk,,4,3,-7,1,0,0,rectangle,3,-7,1,0,0,3,-7,1,0,0,0,48,48,145,1,,,,,,,,
,,,,,,,,,,,,,FF,,,,,,,,2.0827,,,,,,,,,,,,,,,,,,,,,,5d4ca0ef259d580001cde9bb,61036ea75257ad60f1dc32ee,2021-07-29_22h16.32.739,Simcolourproject_2stim_asymm_v5,2020.2.10,Win32,60,61025ae37ef11b136ea224fe,,,,,,,,,920,69,37,1,0,0,response1disk,,6,-8,1,1,0,0,rectangle,-8,1,1,0,0,-8,1,1,0,0,0,49,49,15,1,,,,,,,,
,,,,,,,,,,,,,FF,,,,,,,,1.7179,,,,,,,,,,,,,,,,,,,,,,5d4ca0ef259d580001cde9bb,61036ea75257ad60f1dc32ee,2021-07-29_22h16.32.739,Simcolourproject_2stim_asymm_v5,2020.2.10,Win32,60,61025ae37ef11b136ea224fe,,,,,,,,,3050,-75,-41,1,0,0,response5disk,,2,-2,14,1,0,0,rectangle,-2,14,1,0,0,-2,14,1,0,0,0,50,50,110,1,,,,,,,,
,,,,,,,,,,,,,FF,,,,,,,,1.0333,,,,,,,,,,,,,,,,,,,,,,5d4ca0ef259d580001cde9bb,61036ea75257ad60f1dc32ee,2021-07-29_22h16.32.739,Simcolourproject_2stim_asymm_v5,2020.2.10,Win32,60,61025ae37ef11b136ea224fe,,,,,,,,,3802,21,53,1,0,0,response1disk,,7,4,0,1,0,0,rectangle,4,0,1,0,0,4,0,1,0,0,0,51,51,12,1,,,,,,,,
,,,,,,,,,,,,,FF,,,,,,,,1.0495,,,,,,,,,,,,,,,,,,,,,,5d4ca0ef259d580001cde9bb,61036ea75257ad60f1dc32ee,2021-07-29_22h16.32.739,Simcolourproject_2stim_asymm_v5,2020.2.10,Win32,60,61025ae37ef11b136ea224fe,,,,,,,,,6,-55,-35,1,0,0,response5disk,,2,-9,-3,1,0,0,rectangle,-9,-3,1,0,0,-9,-3,1,0,0,0,52,52,98,1,,,,,,,,
,,,,,,,,,,,,,FF,,,,,,,,1.1842,,,,,,,,,,,,,,,,,,,,,,5d4ca0ef259d580001cde9bb,61036ea75257ad60f1dc32ee,2021-07-29_22h16.32.739,Simcolourproject_2stim_asymm_v5,2020.2.10,Win32,60,61025ae37ef11b136ea224fe,,,,,,,,,3529,56,39,1,0,0,response1disk,,6,0,2,1,0,0,rectangle,0,2,1,0,0,0,2,1,0,0,0,53,53,146,1,,,,,,,,
,,,,,,,,,,,,,FF,,,,,,,,1.8616,,,,,,,,,,,,,,,,,,,,,,5d4ca0ef259d580001cde9bb,61036ea75257ad60f1dc32ee,2021-07-29_22h16.32.739,Simcolourproject_2stim_asymm_v5,2020.2.10,Win32,60,61025ae37ef11b136ea224fe,,,,,,,,,1407,28,-53,1,0,0,response3disk,,4,2,-10,1,0,0,rectangle,2,-10,1,0,0,2,-10,1,0,0,0,54,54,154,1,,,,,,,,
,,,,,,,,,,,,,FF,,,,,,,,1.5838,,,,,,,,,,,,,,,,,,,,,,5d4ca0ef259d580001cde9bb,61036ea75257ad60f1dc32ee,2021-07-29_22h16.32.739,Simcolourproject_2stim_asymm_v5,2020.2.10,Win32,60,61025ae37ef11b136ea224fe,,,,,,,,,289,27,-50,1,0,0,response3disk,,4,-1,-5,1,0,0,rectangle,-1,-5,1,0,0,-1,-5,1,0,0,0,55,55,143,1,,,,,,,,
,,,,,,,,,,,,,FF,,,,,,,,2.0989,,,,,,,,,,,,,,,,,,,,,,5d4ca0ef259d580001cde9bb,61036ea75257ad60f1dc32ee,2021-07-29_22h16.32.739,Simcolourproject_2stim_asymm_v5,2020.2.10,Win32,60,61025ae37ef11b136ea224fe,,,,,,,,,399,67,41,1,0,0,response1disk,,6,1,0,1,0,0,rectangle,1,0,1,0,0,1,0,1,0,0,0,56,56,115,1,,,,,,,,
,,,,,,,,,,,,,FF,,,,,,,,1.2999,,,,,,,,,,,,,,,,,,,,,,5d4ca0ef259d580001cde9bb,61036ea75257ad60f1dc32ee,2021-07-29_22h16.32.739,Simcolourproject_2stim_asymm_v5,2020.2.10,Win32,60,61025ae37ef11b136ea224fe,,,,,,,,,3245,-57,-41,1,0,0,response5disk,,2,-10,-3,1,0,0,rectangle,-10,-3,1,0,0,-10,-3,1,0,0,0,57,57,3,1,,,,,,,,
,,,,,,,,,,,,,FF,,,,,,,,1.2333,,,,,,,,,,,,,,,,,,,,,,5d4ca0ef259d580001cde9bb,61036ea75257ad60f1dc32ee,2021-07-29_22h16.32.739,Simcolourproject_2stim_asymm_v5,2020.2.10,Win32,60,61025ae37ef11b136ea224fe,,,,,,,,,565,43,25,1,0,0,response1disk,,6,12,0,1,0,0,rectangle,12,0,1,0,0,12,0,1,0,0,0,58,58,64,1,,,,,,,,
,,,,,,,,,,,,,FF,,,,,,,,2.2827,,,,,,,,,,,,,,,,,,,,,,5d4ca0ef259d580001cde9bb,61036ea75257ad60f1dc32ee,2021-07-29_22h16.32.739,Simcolourproject_2stim_asymm_v5,2020.2.10,Win32,60,61025ae37ef11b136ea224fe,,,,,,,,,3689,19,-44,1,0,0,response3disk,,4,-7,-5,1,0,0,rectangle,-7,-5,1,0,0,-7,-5,1,0,0,0,59,59,62,1,,,,,,,,
,,,,,,,,,,,,,FF,,,,,,,,1.5384,,,,,,,,,,,,,,,,,,,,,,5d4ca0ef259d580001cde9bb,61036ea75257ad60f1dc32ee,2021-07-29_22h16.32.739,Simcolourproject_2stim_asymm_v5,2020.2.10,Win32,60,61025ae37ef11b136ea224fe,,,,,,,,,1302,-51,-65,1,0,0,response5disk,,3,-3,-4,1,0,0,rectangle,-3,-4,1,0,0,-3,-4,1,0,0,0,60,60,117,1,,,,,,,,
,,,,,,,,,,,,,FF,,,,,,,,1.0835,,,,,,,,,,,,,,,,,,,,,,5d4ca0ef259d580001cde9bb,61036ea75257ad60f1dc32ee,2021-07-29_22h16.32.739,Simcolourproject_2stim_asymm_v5,2020.2.10,Win32,60,61025ae37ef11b136ea224fe,,,,,,,,,3087,29,51,1,0,0,response1disk,,7,8,4,1,0,0,rectangle,8,4,1,0,0,8,4,1,0,0,0,61,61,105,1,,,,,,,,
,,,,,,,,,,,,,FF,,,,,,,,1.0832,,,,,,,,,,,,,,,,,,,,,,5d4ca0ef259d580001cde9bb,61036ea75257ad60f1dc32ee,2021-07-29_22h16.32.739,Simcolourproject_2stim_asymm_v5,2020.2.10,Win32,60,61025ae37ef11b136ea224fe,,,,,,,,,4008,-59,-75,1,0,0,response5disk,,3,-10,-1,1,0,0,rectangle,-10,-1,1,0,0,-10,-1,1,0,0,0,62,62,37,1,,,,,,,,
,,,,,,,,,,,,,FF,,,,,,,,1.2997,,,,,,,,,,,,,,,,,,,,,,5d4ca0ef259d580001cde9bb,61036ea75257ad60f1dc32ee,2021-07-29_22h16.32.739,Simcolourproject_2stim_asymm_v5,2020.2.10,Win32,60,61025ae37ef11b136ea224fe,,,,,,,,,3174,19,40,1,0,0,response1disk,,7,9,3,1,0,0,rectangle,9,3,1,0,0,9,3,1,0,0,0,63,63,58,1,,,,,,,,
,,,,,,,,,,,,,FF,,,,,,,,1.1617,,,,,,,,,,,,,,,,,,,,,,5d4ca0ef259d580001cde9bb,61036ea75257ad60f1dc32ee,2021-07-29_22h16.32.739,Simcolourproject_2stim_asymm_v5,2020.2.10,Win32,60,61025ae37ef11b136ea224fe,,,,,,,,,263,-72,-33,1,0,0,response5disk,,2,0,3,1,0,0,rectangle,0,3,1,0,0,0,3,1,0,0,0,64,64,46,1,,,,,,,,
,,,,,,,,,,,,,FF,,,,,,,,0.9658,,,,,,,,,,,,,,,,,,,,,,5d4ca0ef259d580001cde9bb,61036ea75257ad60f1dc32ee,2021-07-29_22h16.32.739,Simcolourproject_2stim_asymm_v5,2020.2.10,Win32,60,61025ae37ef11b136ea224fe,,,,,,,,,2331,42,-30,1,0,0,response3disk,,5,7,-5,1,0,0,rectangle,7,-5,1,0,0,7,-5,1,0,0,0,65,65,81,1,,,,,,,,
,,,,,,,,,,,,,FF,,,,,,,,3.0821,,,,,,,,,,,,,,,,,,,,,,5d4ca0ef259d580001cde9bb,61036ea75257ad60f1dc32ee,2021-07-29_22h16.32.739,Simcolourproject_2stim_asymm_v5,2020.2.10,Win32,60,61025ae37ef11b136ea224fe,,,,,,,,,1278,32,-65,1,0,0,response3disk,,4,10,-2,1,0,0,rectangle,10,-2,1,0,0,10,-2,1,0,0,0,66,66,11,1,,,,,,,,
,,,,,,,,,,,,,FF,,,,,,,,0.8953,,,,,,,,,,,,,,,,,,,,,,5d4ca0ef259d580001cde9bb,61036ea75257ad60f1dc32ee,2021-07-29_22h16.32.739,Simcolourproject_2stim_asymm_v5,2020.2.10,Win32,60,61025ae37ef11b136ea224fe,,,,,,,,,4114,22,-56,1,0,0,response3disk,,4,-2,3,1,0,0,rectangle,-2,3,1,0,0,-2,3,1,0,0,0,67,67,17,1,,,,,,,,
,,,,,,,,,,,,,FF,,,,,,,,1.3785,,,,,,,,,,,,,,,,,,,,,,5d4ca0ef259d580001cde9bb,61036ea75257ad60f1dc32ee,2021-07-29_22h16.32.739,Simcolourproject_2stim_asymm_v5,2020.2.10,Win32,60,61025ae37ef11b136ea224fe,,,,,,,,,755,25,42,1,0,0,response1disk,,7,-6,-12,1,0,0,rectangle,-6,-12,1,0,0,-6,-12,1,0,0,0,68,68,124,1,,,,,,,,
,,,,,,,,,,,,,FF,,,,,,,,1.6496,,,,,,,,,,,,,,,,,,,,,,5d4ca0ef259d580001cde9bb,61036ea75257ad60f1dc32ee,2021-07-29_22h16.32.739,Simcolourproject_2stim_asymm_v5,2020.2.10,Win32,60,61025ae37ef11b136ea224fe,,,,,,,,,3366,34,21,1,0,0,response1disk,,6,4,-9,1,0,0,rectangle,4,-9,1,0,0,4,-9,1,0,0,0,69,69,9,1,,,,,,,,
,,,,,,,,,,,,,FF,,,,,,,,1.3781,,,,,,,,,,,,,,,,,,,,,,5d4ca0ef259d580001cde9bb,61036ea75257ad60f1dc32ee,2021-07-29_22h16.32.739,Simcolourproject_2stim_asymm_v5,2020.2.10,Win32,60,61025ae37ef11b136ea224fe,,,,,,,,,2488,-27,-78,1,0,0,response5disk,,3,0,-7,1,0,0,rectangle,0,-7,1,0,0,0,-7,1,0,0,0,70,70,69,1,,,,,,,,
,,,,,,,,,,,,,FF,,,,,,,,1.1333,,,,,,,,,,,,,,,,,,,,,,5d4ca0ef259d580001cde9bb,61036ea75257ad60f1dc32ee,2021-07-29_22h16.32.739,Simcolourproject_2stim_asymm_v5,2020.2.10,Win32,60,61025ae37ef11b136ea224fe,,,,,,,,,4274,33,43,1,0,0,response1disk,,7,10,-1,1,0,0,rectangle,10,-1,1,0,0,10,-1,1,0,0,0,71,71,126,1,,,,,,,,
,,,,,,,,,,,,,FF,,,,,,,,1.0504,,,,,,,,,,,,,,,,,,,,,,5d4ca0ef259d580001cde9bb,61036ea75257ad60f1dc32ee,2021-07-29_22h16.32.739,Simcolourproject_2stim_asymm_v5,2020.2.10,Win32,60,61025ae37ef11b136ea224fe,,,,,,,,,177,25,63,1,0,0,response1disk,,7,9,1,1,0,0,rectangle,9,1,1,0,0,9,1,1,0,0,0,72,72,122,1,,,,,,,,
,,,,,,,,,,,,,FF,,,,,,,,0.9326,,,,,,,,,,,,,,,,,,,,,,5d4ca0ef259d580001cde9bb,61036ea75257ad60f1dc32ee,2021-07-29_22h16.32.739,Simcolourproject_2stim_asymm_v5,2020.2.10,Win32,60,61025ae37ef11b136ea224fe,,,,,,,,,2699,30,44,1,0,0,response1disk,,7,12,-1,1,0,0,rectangle,-33,78,1,0,0,2,1,1,0,0,0,73,73,109,1,,response7disk_3,TRUE,0,0,"[34,74,141,173,191,202,149,240,4,6,37,22,81,143,16,112,42,259,31,142]",2.116,rectangle
,,,,,,,,,,,,,FF,,,,,,,,5.7145,,,,,,,,,,,,,,,,,,,,,,5d4ca0ef259d580001cde9bb,61036ea75257ad60f1dc32ee,2021-07-29_22h16.32.739,Simcolourproject_2stim_asymm_v5,2020.2.10,Win32,60,61025ae37ef11b136ea224fe,,,,,,,,,208,41,22,1,0,0,response1disk,,6,5,2,1,0,0,rectangle,5,2,1,0,0,5,2,1,0,0,0,74,74,83,1,,,,,,,,
,,,,,,,,,,,,,FF,,,,,,,,1.5657,,,,,,,,,,,,,,,,,,,,,,5d4ca0ef259d580001cde9bb,61036ea75257ad60f1dc32ee,2021-07-29_22h16.32.739,Simcolourproject_2stim_asymm_v5,2020.2.10,Win32,60,61025ae37ef11b136ea224fe,,,,,,,,,3846,-63,-45,1,0,0,response5disk,,2,-4,-4,1,0,0,rectangle,-4,-4,1,0,0,-4,-4,1,0,0,0,75,75,129,1,,,,,,,,
,,,,,,,,,,,,,FF,,,,,,,,1.155,,,,,,,,,,,,,,,,,,,,,,5d4ca0ef259d580001cde9bb,61036ea75257ad60f1dc32ee,2021-07-29_22h16.32.739,Simcolourproject_2stim_asymm_v5,2020.2.10,Win32,60,61025ae37ef11b136ea224fe,,,,,,,,,147,33,17,1,0,0,response1disk,,6,3,-7,1,0,0,rectangle,3,-7,1,0,0,3,-7,1,0,0,0,76,76,101,1,,,,,,,,
,,,,,,,,,,,,,FF,,,,,,,,1.029,,,,,,,,,,,,,,,,,,,,,,5d4ca0ef259d580001cde9bb,61036ea75257ad60f1dc32ee,2021-07-29_22h16.32.739,Simcolourproject_2stim_asymm_v5,2020.2.10,Win32,60,61025ae37ef11b136ea224fe,,,,,,,,,1586,-40,-56,1,0,0,response5disk,,3,0,-8,1,0,0,rectangle,0,-8,1,0,0,0,-8,1,0,0,0,77,77,31,1,,,,,,,,
,,,,,,,,,,,,,FF,,,,,,,,1.0233,,,,,,,,,,,,,,,,,,,,,,5d4ca0ef259d580001cde9bb,61036ea75257ad60f1dc32ee,2021-07-29_22h16.32.739,Simcolourproject_2stim_asymm_v5,2020.2.10,Win32,60,61025ae37ef11b136ea224fe,,,,,,,,,2880,21,-56,1,0,0,response3disk,,4,2,4,1,0,0,rectangle,2,4,1,0,0,2,4,1,0,0,0,78,78,153,1,,,,,,,,
,,,,,,,,,,,,,FF,,,,,,,,1.1995,,,,,,,,,,,,,,,,,,,,,,5d4ca0ef259d580001cde9bb,61036ea75257ad60f1dc32ee,2021-07-29_22h16.32.739,Simcolourproject_2stim_asymm_v5,2020.2.10,Win32,60,61025ae37ef11b136ea224fe,,,,,,,,,2979,54,25,1,0,0,response1disk,,6,11,1,1,0,0,rectangle,11,1,1,0,0,11,1,1,0,0,0,79,79,125,1,,,,,,,,
,,,,,,,,,,,,,FF,,,,,,,,1.0993,,,,,,,,,,,,,,,,,,,,,,5d4ca0ef259d580001cde9bb,61036ea75257ad60f1dc32ee,2021-07-29_22h16.32.739,Simcolourproject_2stim_asymm_v5,2020.2.10,Win32,60,61025ae37ef11b136ea224fe,,,,,,,,,386,37,59,1,0,0,response1disk,,7,2,-6,1,0,0,rectangle,-59,-24,1,0,0,-7,1,1,0,0,0,80,80,148,1,,response5disk_3,TRUE,2,2,"[34,74,141,173,191,202,149,240,4,6,37,22,81,143,16,112,42,259,31,142]",1.6835,rectangle
,,,,,,,,,,,,,FF,,,,,,,,1.9491,,,,,,,,,,,,,,,,,,,,,,5d4ca0ef259d580001cde9bb,61036ea75257ad60f1dc32ee,2021-07-29_22h16.32.739,Simcolourproject_2stim_asymm_v5,2020.2.10,Win32,60,61025ae37ef11b136ea224fe,,,,,,,,,1518,38,-18,1,0,0,response3disk,,5,9,6,1,0,0,rectangle,9,6,1,0,0,9,6,1,0,0,0,81,81,21,1,,,,,,,,
,,,,,,,,,,,,,FF,,,,,,,,1.5837,,,,,,,,,,,,,,,,,,,,,,5d4ca0ef259d580001cde9bb,61036ea75257ad60f1dc32ee,2021-07-29_22h16.32.739,Simcolourproject_2stim_asymm_v5,2020.2.10,Win32,60,61025ae37ef11b136ea224fe,,,,,,,,,588,24,55,1,0,0,response1disk,,7,1,11,1,0,0,rectangle,1,11,1,0,0,1,11,1,0,0,0,82,82,20,1,,,,,,,,
,,,,,,,,,,,,,FF,,,,,,,,1.8877,,,,,,,,,,,,,,,,,,,,,,5d4ca0ef259d580001cde9bb,61036ea75257ad60f1dc32ee,2021-07-29_22h16.32.739,Simcolourproject_2stim_asymm_v5,2020.2.10,Win32,60,61025ae37ef11b136ea224fe,,,,,,,,,3287,-21,-73,1,0,0,response5disk,,3,5,-2,1,0,0,rectangle,5,-2,1,0,0,5,-2,1,0,0,0,83,83,141,1,,,,,,,,
,,,,,,,,,,,,,FF,,,,,,,,1.2826,,,,,,,,,,,,,,,,,,,,,,5d4ca0ef259d580001cde9bb,61036ea75257ad60f1dc32ee,2021-07-29_22h16.32.739,Simcolourproject_2stim_asymm_v5,2020.2.10,Win32,60,61025ae37ef11b136ea224fe,,,,,,,,,4058,-37,-58,1,0,0,response5disk,,3,-1,3,1,0,0,rectangle,-1,3,1,0,0,-1,3,1,0,0,0,84,84,45,1,,,,,,,,
,,,,,,,,,,,,,FF,,,,,,,,1.3215,,,,,,,,,,,,,,,,,,,,,,5d4ca0ef259d580001cde9bb,61036ea75257ad60f1dc32ee,2021-07-29_22h16.32.739,Simcolourproject_2stim_asymm_v5,2020.2.10,Win32,60,61025ae37ef11b136ea224fe,,,,,,,,,2910,36,-29,1,0,0,response3disk,,5,3,-8,1,0,0,rectangle,3,-8,1,0,0,3,-8,1,0,0,0,85,85,102,1,,,,,,,,
,,,,,,,,,,,,,FF,,,,,,,,1.299,,,,,,,,,,,,,,,,,,,,,,5d4ca0ef259d580001cde9bb,61036ea75257ad60f1dc32ee,2021-07-29_22h16.32.739,Simcolourproject_2stim_asymm_v5,2020.2.10,Win32,60,61025ae37ef11b136ea224fe,,,,,,,,,1331,39,42,1,0,0,response1disk,,7,13,-2,1,0,0,rectangle,13,-2,1,0,0,13,-2,1,0,0,0,86,86,120,1,,,,,,,,
,,,,,,,,,,,,,FF,,,,,,,,2.6832,,,,,,,,,,,,,,,,,,,,,,5d4ca0ef259d580001cde9bb,61036ea75257ad60f1dc32ee,2021-07-29_22h16.32.739,Simcolourproject_2stim_asymm_v5,2020.2.10,Win32,60,61025ae37ef11b136ea224fe,,,,,,,,,1115,-28,-61,1,0,0,response5disk,,3,-8,-3,1,0,0,rectangle,-8,-3,1,0,0,-8,-3,1,0,0,0,87,87,56,1,,,,,,,,
,,,,,,,,,,,,,FF,,,,,,,,1.5823,,,,,,,,,,,,,,,,,,,,,,5d4ca0ef259d580001cde9bb,61036ea75257ad60f1dc32ee,2021-07-29_22h16.32.739,Simcolourproject_2stim_asymm_v5,2020.2.10,Win32,60,61025ae37ef11b136ea224fe,,,,,,,,,3159,48,35,1,0,0,response1disk,,6,3,12,1,0,0,rectangle,3,12,1,0,0,3,12,1,0,0,0,88,88,44,1,,,,,,,,
,,,,,,,,,,,,,FF,,,,,,,,0.9681,,,,,,,,,,,,,,,,,,,,,,5d4ca0ef259d580001cde9bb,61036ea75257ad60f1dc32ee,2021-07-29_22h16.32.739,Simcolourproject_2stim_asymm_v5,2020.2.10,Win32,60,61025ae37ef11b136ea224fe,,,,,,,,,3448,33,70,1,0,0,response1disk,,7,12,8,1,0,0,rectangle,12,8,1,0,0,12,8,1,0,0,0,89,89,107,1,,,,,,,,
,,,,,,,,,,,,,FF,,,,,,,,1.711,,,,,,,,,,,,,,,,,,,,,,5d4ca0ef259d580001cde9bb,61036ea75257ad60f1dc32ee,2021-07-29_22h16.32.739,Simcolourproject_2stim_asymm_v5,2020.2.10,Win32,60,61025ae37ef11b136ea224fe,,,,,,,,,1700,28,59,1,0,0,response1disk,,7,4,2,1,0,0,rectangle,4,2,1,0,0,4,2,1,0,0,0,90,90,132,1,,,,,,,,
,,,,,,,,,,,,,FF,,,,,,,,0.8224,,,,,,,,,,,,,,,,,,,,,,5d4ca0ef259d580001cde9bb,61036ea75257ad60f1dc32ee,2021-07-29_22h16.32.739,Simcolourproject_2stim_asymm_v5,2020.2.10,Win32,60,61025ae37ef11b136ea224fe,,,,,,,,,1868,17,46,1,0,0,response1disk,,7,3,10,1,0,0,rectangle,3,10,1,0,0,3,10,1,0,0,0,91,91,66,1,,,,,,,,
,,,,,,,,,,,,,FF,,,,,,,,1.6007,,,,,,,,,,,,,,,,,,,,,,5d4ca0ef259d580001cde9bb,61036ea75257ad60f1dc32ee,2021-07-29_22h16.32.739,Simcolourproject_2stim_asymm_v5,2020.2.10,Win32,60,61025ae37ef11b136ea224fe,,,,,,,,,4057,24,-75,1,0,0,response3disk,,4,3,-6,1,0,0,rectangle,3,-6,1,0,0,3,-6,1,0,0,0,92,92,16,1,,,,,,,,
,,,,,,,,,,,,,FF,,,,,,,,1.4,,,,,,,,,,,,,,,,,,,,,,5d4ca0ef259d580001cde9bb,61036ea75257ad60f1dc32ee,2021-07-29_22h16.32.739,Simcolourproject_2stim_asymm_v5,2020.2.10,Win32,60,61025ae37ef11b136ea224fe,,,,,,,,,3854,-29,-80,1,0,0,response5disk,,3,1,-12,1,0,0,rectangle,1,-12,1,0,0,1,-12,1,0,0,0,93,93,23,1,,,,,,,,
,,,,,,,,,,,,,FF,,,,,,,,1.8329,,,,,,,,,,,,,,,,,,,,,,5d4ca0ef259d580001cde9bb,61036ea75257ad60f1dc32ee,2021-07-29_22h16.32.739,Simcolourproject_2stim_asymm_v5,2020.2.10,Win32,60,61025ae37ef11b136ea224fe,,,,,,,,,578,52,16,1,0,0,response1disk,,6,14,-6,1,0,0,rectangle,14,-6,1,0,0,14,-6,1,0,0,0,94,94,134,1,,,,,,,,
,,,,,,,,,,,,,FF,,,,,,,,1.0619,,,,,,,,,,,,,,,,,,,,,,5d4ca0ef259d580001cde9bb,61036ea75257ad60f1dc32ee,2021-07-29_22h16.32.739,Simcolourproject_2stim_asymm_v5,2020.2.10,Win32,60,61025ae37ef11b136ea224fe,,,,,,,,,2042,-28,-63,1,0,0,response5disk,,3,10,2,1,0,0,rectangle,10,2,1,0,0,10,2,1,0,0,0,95,95,89,1,,,,,,,,
,,,,,,,,,,,,,FF,,,,,,,,1.0131,,,,,,,,,,,,,,,,,,,,,,5d4ca0ef259d580001cde9bb,61036ea75257ad60f1dc32ee,2021-07-29_22h16.32.739,Simcolourproject_2stim_asymm_v5,2020.2.10,Win32,60,61025ae37ef11b136ea224fe,,,,,,,,,2207,47,33,1,0,0,response1disk,,6,9,-1,1,0,0,rectangle,9,-1,1,0,0,9,-1,1,0,0,0,96,96,86,1,,,,,,,,
,,,,,,,,,,,,,FF,,,,,,,,2.2823,,,,,,,,,,,,,,,,,,,,,,5d4ca0ef259d580001cde9bb,61036ea75257ad60f1dc32ee,2021-07-29_22h16.32.739,Simcolourproject_2stim_asymm_v5,2020.2.10,Win32,60,61025ae37ef11b136ea224fe,,,,,,,,,3995,-52,-37,1,0,0,response5disk,,2,-3,5,1,0,0,rectangle,-3,5,1,0,0,-3,5,1,0,0,0,97,97,59,1,,,,,,,,
,,,,,,,,,,,,,FF,,,,,,,,1.1339,,,,,,,,,,,,,,,,,,,,,,5d4ca0ef259d580001cde9bb,61036ea75257ad60f1dc32ee,2021-07-29_22h16.32.739,Simcolourproject_2stim_asymm_v5,2020.2.10,Win32,60,61025ae37ef11b136ea224fe,,,,,,,,,3364,32,47,1,0,0,response1disk,,7,-7,2,1,0,0,rectangle,-7,2,1,0,0,-7,2,1,0,0,0,98,98,140,1,,,,,,,,
,,,,,,,,,,,,,FF,,,,,,,,1.0332,,,,,,,,,,,,,,,,,,,,,,5d4ca0ef259d580001cde9bb,61036ea75257ad60f1dc32ee,2021-07-29_22h16.32.739,Simcolourproject_2stim_asymm_v5,2020.2.10,Win32,60,61025ae37ef11b136ea224fe,,,,,,,,,1673,-71,-29,1,0,0,response5disk,,2,-14,2,1,0,0,rectangle,-14,2,1,0,0,-14,2,1,0,0,0,99,99,40,1,,,,,,,,
,,,,,,,,,,,,,FF,,,,,,,,0.9834,,,,,,,,,,,,,,,,,,,,,,5d4ca0ef259d580001cde9bb,61036ea75257ad60f1dc32ee,2021-07-29_22h16.32.739,Simcolourproject_2stim_asymm_v5,2020.2.10,Win32,60,61025ae37ef11b136ea224fe,,,,,,,,,4362,-68,36,1,0,0,response7disk,,1,2,0,1,0,0,rectangle,2,0,1,0,0,2,0,1,0,0,0,100,100,106,1,,,,,,,,
,,,,,,,,,,,,,FF,,,,,,,,0.9832,,,,,,,,,,,,,,,,,,,,,,5d4ca0ef259d580001cde9bb,61036ea75257ad60f1dc32ee,2021-07-29_22h16.32.739,Simcolourproject_2stim_asymm_v5,2020.2.10,Win32,60,61025ae37ef11b136ea224fe,,,,,,,,,1830,-68,-20,1,0,0,response5disk,,2,3,1,1,0,0,rectangle,3,1,1,0,0,3,1,1,0,0,0,101,101,28,1,,,,,,,,
,,,,,,,,,,,,,FF,,,,,,,,0.9331,,,,,,,,,,,,,,,,,,,,,,5d4ca0ef259d580001cde9bb,61036ea75257ad60f1dc32ee,2021-07-29_22h16.32.739,Simcolourproject_2stim_asymm_v5,2020.2.10,Win32,60,61025ae37ef11b136ea224fe,,,,,,,,,3055,-55,-22,1,0,0,response5disk,,2,-8,-3,1,0,0,rectangle,-8,-3,1,0,0,-8,-3,1,0,0,0,102,102,152,1,,,,,,,,
,,,,,,,,,,,,,FF,,,,,,,,1.1989,,,,,,,,,,,,,,,,,,,,,,5d4ca0ef259d580001cde9bb,61036ea75257ad60f1dc32ee,2021-07-29_22h16.32.739,Simcolourproject_2stim_asymm_v5,2020.2.10,Win32,60,61025ae37ef11b136ea224fe,,,,,,,,,689,28,-63,1,0,0,response3disk,,4,-11,1,1,0,0,rectangle,-11,1,1,0,0,-11,1,1,0,0,0,103,103,79,1,,,,,,,,
,,,,,,,,,,,,,FF,,,,,,,,1.2552,,,,,,,,,,,,,,,,,,,,,,5d4ca0ef259d580001cde9bb,61036ea75257ad60f1dc32ee,2021-07-29_22h16.32.739,Simcolourproject_2stim_asymm_v5,2020.2.10,Win32,60,61025ae37ef11b136ea224fe,,,,,,,,,265,-31,-49,1,0,0,response5disk,,3,7,-6,1,0,0,rectangle,7,-6,1,0,0,7,-6,1,0,0,0,104,104,91,1,,,,,,,,
,,,,,,,,,,,,,FF,,,,,,,,0.8783,,,,,,,,,,,,,,,,,,,,,,5d4ca0ef259d580001cde9bb,61036ea75257ad60f1dc32ee,2021-07-29_22h16.32.739,Simcolourproject_2stim_asymm_v5,2020.2.10,Win32,60,61025ae37ef11b136ea224fe,,,,,,,,,2299,-46,-28,1,0,0,response5disk,,2,10,2,1,0,0,rectangle,10,2,1,0,0,10,2,1,0,0,0,105,105,131,1,,,,,,,,
,,,,,,,,,,,,,FF,,,,,,,,1.3555,,,,,,,,,,,,,,,,,,,,,,5d4ca0ef259d580001cde9bb,61036ea75257ad60f1dc32ee,2021-07-29_22h16.32.739,Simcolourproject_2stim_asymm_v5,2020.2.10,Win32,60,61025ae37ef11b136ea224fe,,,,,,,,,330,47,26,1,0,0,response1disk,,6,18,7,1,0,0,rectangle,18,7,1,0,0,18,7,1,0,0,0,106,106,159,1,,,,,,,,
,,,,,,,,,,,,,FF,,,,,,,,1.5279,,,,,,,,,,,,,,,,,,,,,,5d4ca0ef259d580001cde9bb,61036ea75257ad60f1dc32ee,2021-07-29_22h16.32.739,Simcolourproject_2stim_asymm_v5,2020.2.10,Win32,60,61025ae37ef11b136ea224fe,,,,,,,,,1113,-19,-63,1,0,0,response5disk,,3,3,-13,1,0,0,rectangle,3,-13,1,0,0,3,-13,1,0,0,0,107,107,26,1,,,,,,,,
,,,,,,,,,,,,,FF,,,,,,,,1.2829,,,,,,,,,,,,,,,,,,,,,,5d4ca0ef259d580001cde9bb,61036ea75257ad60f1dc32ee,2021-07-29_22h16.32.739,Simcolourproject_2stim_asymm_v5,2020.2.10,Win32,60,61025ae37ef11b136ea224fe,,,,,,,,,3216,41,55,1,0,0,response1disk,,7,0,-3,1,0,0,rectangle,0,-3,1,0,0,0,-3,1,0,0,0,108,108,151,1,,,,,,,,
,,,,,,,,,,,,,FF,,,,,,,,1.4997,,,,,,,,,,,,,,,,,,,,,,5d4ca0ef259d580001cde9bb,61036ea75257ad60f1dc32ee,2021-07-29_22h16.32.739,Simcolourproject_2stim_asymm_v5,2020.2.10,Win32,60,61025ae37ef11b136ea224fe,,,,,,,,,2313,35,-56,1,0,0,response3disk,,4,-4,-10,1,0,0,rectangle,-4,-10,1,0,0,-4,-10,1,0,0,0,109,109,96,1,,,,,,,,
,,,,,,,,,,,,,FF,,,,,,,,1.1495,,,,,,,,,,,,,,,,,,,,,,5d4ca0ef259d580001cde9bb,61036ea75257ad60f1dc32ee,2021-07-29_22h16.32.739,Simcolourproject_2stim_asymm_v5,2020.2.10,Win32,60,61025ae37ef11b136ea224fe,,,,,,,,,2608,-27,56,1,0,0,response7disk,,0,-6,7,1,0,0,rectangle,-6,7,1,0,0,-6,7,1,0,0,0,110,110,103,1,,,,,,,,
,,,,,,,,,,,,,FF,,,,,,,,1.3452,,,,,,,,,,,,,,,,,,,,,,5d4ca0ef259d580001cde9bb,61036ea75257ad60f1dc32ee,2021-07-29_22h16.32.739,Simcolourproject_2stim_asymm_v5,2020.2.10,Win32,60,61025ae37ef11b136ea224fe,,,,,,,,,3344,-27,-54,1,0,0,response5disk,,3,-6,3,1,0,0,rectangle,80,32,1,0,0,-2,2,1,0,0,0,111,111,80,1,,response1disk_3,TRUE,6,6,"[34,74,141,173,191,202,149,240,4,6,37,22,81,143,16,112,42,259,31,142]",2.4155,rectangle
,,,,,,,,,,,,,FF,,,,,,,,1.4992,,,,,,,,,,,,,,,,,,,,,,5d4ca0ef259d580001cde9bb,61036ea75257ad60f1dc32ee,2021-07-29_22h16.32.739,Simcolourproject_2stim_asymm_v5,2020.2.10,Win32,60,61025ae37ef11b136ea224fe,,,,,,,,,3121,29,-65,1,0,0,response3disk,,4,0,-1,1,0,0,rectangle,0,-1,1,0,0,0,-1,1,0,0,0,112,112,39,1,,,,,,,,
,,,,,,,,,,,,,FF,,,,,,,,1.9168,,,,,,,,,,,,,,,,,,,,,,5d4ca0ef259d580001cde9bb,61036ea75257ad60f1dc32ee,2021-07-29_22h16.32.739,Simcolourproject_2stim_asymm_v5,2020.2.10,Win32,60,61025ae37ef11b136ea224fe,,,,,,,,,681,59,-28,1,0,0,response3disk,,5,13,3,1,0,0,rectangle,13,3,1,0,0,13,3,1,0,0,0,113,113,76,1,,,,,,,,
,,,,,,,,,,,,,FF,,,,,,,,0.9161,,,,,,,,,,,,,,,,,,,,,,5d4ca0ef259d580001cde9bb,61036ea75257ad60f1dc32ee,2021-07-29_22h16.32.739,Simcolourproject_2stim_asymm_v5,2020.2.10,Win32,60,61025ae37ef11b136ea224fe,,,,,,,,,1864,42,61,1,0,0,response1disk,,7,13,12,1,0,0,rectangle,13,12,1,0,0,13,12,1,0,0,0,114,114,42,1,,,,,,,,
,,,,,,,,,,,,,FF,,,,,,,,1.5989,,,,,,,,,,,,,,,,,,,,,,5d4ca0ef259d580001cde9bb,61036ea75257ad60f1dc32ee,2021-07-29_22h16.32.739,Simcolourproject_2stim_asymm_v5,2020.2.10,Win32,60,61025ae37ef11b136ea224fe,,,,,,,,,3200,-68,-31,1,0,0,response5disk,,2,-7,0,1,0,0,rectangle,-7,0,1,0,0,-7,0,1,0,0,0,115,115,139,1,,,,,,,,
,,,,,,,,,,,,,FF,,,,,,,,0.8165,,,,,,,,,,,,,,,,,,,,,,5d4ca0ef259d580001cde9bb,61036ea75257ad60f1dc32ee,2021-07-29_22h16.32.739,Simcolourproject_2stim_asymm_v5,2020.2.10,Win32,60,61025ae37ef11b136ea224fe,,,,,,,,,3458,40,57,1,0,0,response1disk,,7,0,4,1,0,0,rectangle,0,4,1,0,0,0,4,1,0,0,0,116,116,121,1,,,,,,,,
,,,,,,,,,,,,,FF,,,,,,,,1.0332,,,,,,,,,,,,,,,,,,,,,,5d4ca0ef259d580001cde9bb,61036ea75257ad60f1dc32ee,2021-07-29_22h16.32.739,Simcolourproject_2stim_asymm_v5,2020.2.10,Win32,60,61025ae37ef11b136ea224fe,,,,,,,,,2101,-71,43,1,0,0,response7disk,,1,13,12,1,0,0,rectangle,13,12,1,0,0,13,12,1,0,0,0,117,117,55,1,,,,,,,,
,,,,,,,,,,,,,FF,,,,,,,,0.8502,,,,,,,,,,,,,,,,,,,,,,5d4ca0ef259d580001cde9bb,61036ea75257ad60f1dc32ee,2021-07-29_22h16.32.739,Simcolourproject_2stim_asymm_v5,2020.2.10,Win32,60,61025ae37ef11b136ea224fe,,,,,,,,,164,-67,-27,1,0,0,response5disk,,2,-19,2,1,0,0,rectangle,-19,2,1,0,0,-19,2,1,0,0,0,118,118,95,1,,,,,,,,
,,,,,,,,,,,,,FF,,,,,,,,0.7332,,,,,,,,,,,,,,,,,,,,,,5d4ca0ef259d580001cde9bb,61036ea75257ad60f1dc32ee,2021-07-29_22h16.32.739,Simcolourproject_2stim_asymm_v5,2020.2.10,Win32,60,61025ae37ef11b136ea224fe,,,,,,,,,4166,-65,37,1,0,0,response7disk,,1,1,-4,1,0,0,rectangle,1,-4,1,0,0,1,-4,1,0,0,0,119,119,47,1,,,,,,,,
,,,,,,,,,,,,,FF,,,,,,,,0.9996,,,,,,,,,,,,,,,,,,,,,,5d4ca0ef259d580001cde9bb,61036ea75257ad60f1dc32ee,2021-07-29_22h16.32.739,Simcolourproject_2stim_asymm_v5,2020.2.10,Win32,60,61025ae37ef11b136ea224fe,,,,,,,,,2317,41,-26,1,0,0,response3disk,,5,-9,-4,1,0,0,rectangle,-9,-4,1,0,0,-9,-4,1,0,0,0,120,120,108,1,,,,,,,,
,,,,,,,,,,,,,FF,,,,,,,,1.0497,,,,,,,,,,,,,,,,,,,,,,5d4ca0ef259d580001cde9bb,61036ea75257ad60f1dc32ee,2021-07-29_22h16.32.739,Simcolourproject_2stim_asymm_v5,2020.2.10,Win32,60,61025ae37ef11b136ea224fe,,,,,,,,,1723,52,61,1,0,0,response1disk,,7,2,10,1,0,0,rectangle,2,10,1,0,0,2,10,1,0,0,0,121,121,149,1,,,,,,,,
,,,,,,,,,,,,,FF,,,,,,,,0.8837,,,,,,,,,,,,,,,,,,,,,,5d4ca0ef259d580001cde9bb,61036ea75257ad60f1dc32ee,2021-07-29_22h16.32.739,Simcolourproject_2stim_asymm_v5,2020.2.10,Win32,60,61025ae37ef11b136ea224fe,,,,,,,,,2280,55,69,1,0,0,response1disk,,7,-4,3,1,0,0,rectangle,-4,3,1,0,0,-4,3,1,0,0,0,122,122,38,1,,,,,,,,
,,,,,,,,,,,,,FF,,,,,,,,0.7665,,,,,,,,,,,,,,,,,,,,,,5d4ca0ef259d580001cde9bb,61036ea75257ad60f1dc32ee,2021-07-29_22h16.32.739,Simcolourproject_2stim_asymm_v5,2020.2.10,Win32,60,61025ae37ef11b136ea224fe,,,,,,,,,3705,-26,50,1,0,0,response7disk,,0,-4,12,1,0,0,rectangle,-4,12,1,0,0,-4,12,1,0,0,0,123,123,156,1,,,,,,,,
,,,,,,,,,,,,,FF,,,,,,,,2.6493,,,,,,,,,,,,,,,,,,,,,,5d4ca0ef259d580001cde9bb,61036ea75257ad60f1dc32ee,2021-07-29_22h16.32.739,Simcolourproject_2stim_asymm_v5,2020.2.10,Win32,60,61025ae37ef11b136ea224fe,,,,,,,,,2717,-38,-62,1,0,0,response5disk,,3,3,-11,1,0,0,rectangle,3,-11,1,0,0,3,-11,1,0,0,0,124,124,142,1,,,,,,,,
,,,,,,,,,,,,,FF,,,,,,,,2.0157,,,,,,,,,,,,,,,,,,,,,,5d4ca0ef259d580001cde9bb,61036ea75257ad60f1dc32ee,2021-07-29_22h16.32.739,Simcolourproject_2stim_asymm_v5,2020.2.10,Win32,60,61025ae37ef11b136ea224fe,,,,,,,,,3418,-32,-56,1,0,0,response5disk,,3,1,0,1,0,0,rectangle,1,0,1,0,0,1,0,1,0,0,0,125,125,128,1,,,,,,,,
,,,,,,,,,,,,,FF,,,,,,,,0.8827,,,,,,,,,,,,,,,,,,,,,,5d4ca0ef259d580001cde9bb,61036ea75257ad60f1dc32ee,2021-07-29_22h16.32.739,Simcolourproject_2stim_asymm_v5,2020.2.10,Win32,60,61025ae37ef11b136ea224fe,,,,,,,,,936,35,68,1,0,0,response1disk,,7,14,-3,1,0,0,rectangle,14,-3,1,0,0,14,-3,1,0,0,0,126,126,51,1,,,,,,,,
,,,,,,,,,,,,,FF,,,,,,,,1.4663,,,,,,,,,,,,,,,,,,,,,,5d4ca0ef259d580001cde9bb,61036ea75257ad60f1dc32ee,2021-07-29_22h16.32.739,Simcolourproject_2stim_asymm_v5,2020.2.10,Win32,60,61025ae37ef11b136ea224fe,,,,,,,,,2038,-24,-61,1,0,0,response5disk,,3,11,-5,1,0,0,rectangle,11,-5,1,0,0,11,-5,1,0,0,0,127,127,19,1,,,,,,,,
,,,,,,,,,,,,,FF,,,,,,,,1.3334,,,,,,,,,,,,,,,,,,,,,,5d4ca0ef259d580001cde9bb,61036ea75257ad60f1dc32ee,2021-07-29_22h16.32.739,Simcolourproject_2stim_asymm_v5,2020.2.10,Win32,60,61025ae37ef11b136ea224fe,,,,,,,,,2456,59,-25,1,0,0,response3disk,,5,3,0,1,0,0,rectangle,3,0,1,0,0,3,0,1,0,0,0,128,128,133,1,,,,,,,,
,,,,,,,,,,,,,FF,,,,,,,,1.4181,,,,,,,,,,,,,,,,,,,,,,5d4ca0ef259d580001cde9bb,61036ea75257ad60f1dc32ee,2021-07-29_22h16.32.739,Simcolourproject_2stim_asymm_v5,2020.2.10,Win32,60,61025ae37ef11b136ea224fe,,,,,,,,,2505,54,29,1,0,0,response1disk,,6,-1,-2,1,0,0,rectangle,-1,-2,1,0,0,-1,-2,1,0,0,0,129,129,135,1,,,,,,,,
,,,,,,,,,,,,,FF,,,,,,,,1.0998,,,,,,,,,,,,,,,,,,,,,,5d4ca0ef259d580001cde9bb,61036ea75257ad60f1dc32ee,2021-07-29_22h16.32.739,Simcolourproject_2stim_asymm_v5,2020.2.10,Win32,60,61025ae37ef11b136ea224fe,,,,,,,,,3405,36,57,1,0,0,response1disk,,7,10,4,1,0,0,rectangle,10,4,1,0,0,10,4,1,0,0,0,130,130,99,1,,,,,,,,
,,,,,,,,,,,,,FF,,,,,,,,1.2335,,,,,,,,,,,,,,,,,,,,,,5d4ca0ef259d580001cde9bb,61036ea75257ad60f1dc32ee,2021-07-29_22h16.32.739,Simcolourproject_2stim_asymm_v5,2020.2.10,Win32,60,61025ae37ef11b136ea224fe,,,,,,,,,2631,53,23,1,0,0,response1disk,,6,4,3,1,0,0,rectangle,4,3,1,0,0,4,3,1,0,0,0,131,131,65,1,,,,,,,,
,,,,,,,,,,,,,FF,,,,,,,,1.7657,,,,,,,,,,,,,,,,,,,,,,5d4ca0ef259d580001cde9bb,61036ea75257ad60f1dc32ee,2021-07-29_22h16.32.739,Simcolourproject_2stim_asymm_v5,2020.2.10,Win32,60,61025ae37ef11b136ea224fe,,,,,,,,,1692,23,-53,1,0,0,response3disk,,4,-4,5,1,0,0,rectangle,-4,5,1,0,0,-4,5,1,0,0,0,132,132,94,1,,,,,,,,
,,,,,,,,,,,,,FF,,,,,,,,1.5166,,,,,,,,,,,,,,,,,,,,,,5d4ca0ef259d580001cde9bb,61036ea75257ad60f1dc32ee,2021-07-29_22h16.32.739,Simcolourproject_2stim_asymm_v5,2020.2.10,Win32,60,61025ae37ef11b136ea224fe,,,,,,,,,1103,-20,-61,1,0,0,response5disk,,3,4,2,1,0,0,rectangle,4,2,1,0,0,4,2,1,0,0,0,133,133,29,1,,,,,,,,
,,,,,,,,,,,,,FF,,,,,,,,1.3328,,,,,,,,,,,,,,,,,,,,,,5d4ca0ef259d580001cde9bb,61036ea75257ad60f1dc32ee,2021-07-29_22h16.32.739,Simcolourproject_2stim_asymm_v5,2020.2.10,Win32,60,61025ae37ef11b136ea224fe,,,,,,,,,626,57,22,1,0,0,response1disk,,6,30,6,1,0,0,rectangle,30,6,1,0,0,30,6,1,0,0,0,134,134,97,1,,,,,,,,
,,,,,,,,,,,,,FF,,,,,,,,1.4154,,,,,,,,,,,,,,,,,,,,,,5d4ca0ef259d580001cde9bb,61036ea75257ad60f1dc32ee,2021-07-29_22h16.32.739,Simcolourproject_2stim_asymm_v5,2020.2.10,Win32,60,61025ae37ef11b136ea224fe,,,,,,,,,1294,-38,-72,1,0,0,response5disk,,3,-1,-3,1,0,0,rectangle,-1,-3,1,0,0,-1,-3,1,0,0,0,135,135,157,1,,,,,,,,
,,,,,,,,,,,,,FF,,,,,,,,0.8993,,,,,,,,,,,,,,,,,,,,,,5d4ca0ef259d580001cde9bb,61036ea75257ad60f1dc32ee,2021-07-29_22h16.32.739,Simcolourproject_2stim_asymm_v5,2020.2.10,Win32,60,61025ae37ef11b136ea224fe,,,,,,,,,3900,-45,-29,1,0,0,response5disk,,2,-1,11,1,0,0,rectangle,-1,11,1,0,0,-1,11,1,0,0,0,136,136,52,1,,,,,,,,
,,,,,,,,,,,,,FF,,,,,,,,2.2157,,,,,,,,,,,,,,,,,,,,,,5d4ca0ef259d580001cde9bb,61036ea75257ad60f1dc32ee,2021-07-29_22h16.32.739,Simcolourproject_2stim_asymm_v5,2020.2.10,Win32,60,61025ae37ef11b136ea224fe,,,,,,,,,948,-59,-35,1,0,0,response5disk,,2,-3,-10,1,0,0,rectangle,-3,-10,1,0,0,-3,-10,1,0,0,0,137,137,63,1,,,,,,,,
,,,,,,,,,,,,,FF,,,,,,,,1.0502,,,,,,,,,,,,,,,,,,,,,,5d4ca0ef259d580001cde9bb,61036ea75257ad60f1dc32ee,2021-07-29_22h16.32.739,Simcolourproject_2stim_asymm_v5,2020.2.10,Win32,60,61025ae37ef11b136ea224fe,,,,,,,,,3554,-24,-48,1,0,0,response5disk,,3,1,-11,1,0,0,rectangle,1,-11,1,0,0,1,-11,1,0,0,0,138,138,144,1,,,,,,,,
,,,,,,,,,,,,,FF,,,,,,,,1.3828,,,,,,,,,,,,,,,,,,,,,,5d4ca0ef259d580001cde9bb,61036ea75257ad60f1dc32ee,2021-07-29_22h16.32.739,Simcolourproject_2stim_asymm_v5,2020.2.10,Win32,60,61025ae37ef11b136ea224fe,,,,,,,,,1705,28,-48,1,0,0,response3disk,,4,8,4,1,0,0,rectangle,8,4,1,0,0,8,4,1,0,0,0,139,139,60,1,,,,,,,,
,,,,,,,,,,,,,FF,,,,,,,,1.1499,,,,,,,,,,,,,,,,,,,,,,5d4ca0ef259d580001cde9bb,61036ea75257ad60f1dc32ee,2021-07-29_22h16.32.739,Simcolourproject_2stim_asymm_v5,2020.2.10,Win32,60,61025ae37ef11b136ea224fe,,,,,,,,,1461,-35,-50,1,0,0,response5disk,,3,-8,-3,1,0,0,rectangle,-30,68,1,0,0,-5,-4,1,0,0,0,140,140,22,1,,response7disk_3,TRUE,0,0,"[34,74,141,173,191,202,149,240,4,6,37,22,81,143,16,112,42,259,31,142]",1.7377,rectangle
,,,,,,,,,,,,,FF,,,,,,,,1.2334,,,,,,,,,,,,,,,,,,,,,,5d4ca0ef259d580001cde9bb,61036ea75257ad60f1dc32ee,2021-07-29_22h16.32.739,Simcolourproject_2stim_asymm_v5,2020.2.10,Win32,60,61025ae37ef11b136ea224fe,,,,,,,,,3238,-67,-47,1,0,0,response5disk,,2,-9,-13,1,0,0,rectangle,38,74,1,0,0,4,-7,1,0,0,0,141,141,18,1,,response1disk_3,TRUE,7,7,"[34,74,141,173,191,202,149,240,4,6,37,22,81,143,16,112,42,259,31,142]",1.7991,rectangle
,,,,,,,,,,,,,FF,,,,,,,,1.1998,,,,,,,,,,,,,,,,,,,,,,5d4ca0ef259d580001cde9bb,61036ea75257ad60f1dc32ee,2021-07-29_22h16.32.739,Simcolourproject_2stim_asymm_v5,2020.2.10,Win32,60,61025ae37ef11b136ea224fe,,,,,,,,,4157,44,-28,1,0,0,response3disk,,5,15,0,1,0,0,rectangle,-79,-47,1,0,0,-8,4,1,0,0,0,142,142,24,1,,response5disk_3,TRUE,2,2,"[34,74,141,173,191,202,149,240,4,6,37,22,81,143,16,112,42,259,31,142]",1.9318,rectangle
,,,,,,,,,,,,,FF,,,,,,,,1.2662,,,,,,,,,,,,,,,,,,,,,,5d4ca0ef259d580001cde9bb,61036ea75257ad60f1dc32ee,2021-07-29_22h16.32.739,Simcolourproject_2stim_asymm_v5,2020.2.10,Win32,60,61025ae37ef11b136ea224fe,,,,,,,,,2836,-81,-39,1,0,0,response5disk,,2,-6,4,1,0,0,rectangle,-6,4,1,0,0,-6,4,1,0,0,0,143,143,33,1,,,,,,,,
,,,,,,,,,,,,,FF,,,,,,,,1.0331,,,,,,,,,,,,,,,,,,,,,,5d4ca0ef259d580001cde9bb,61036ea75257ad60f1dc32ee,2021-07-29_22h16.32.739,Simcolourproject_2stim_asymm_v5,2020.2.10,Win32,60,61025ae37ef11b136ea224fe,,,,,,,,,4174,61,27,1,0,0,response1disk,,6,8,-3,1,0,0,rectangle,8,-3,1,0,0,8,-3,1,0,0,0,144,144,87,1,,,,,,,,
,,,,,,,,,,,,,FF,,,,,,,,1.0333,,,,,,,,,,,,,,,,,,,,,,5d4ca0ef259d580001cde9bb,61036ea75257ad60f1dc32ee,2021-07-29_22h16.32.739,Simcolourproject_2stim_asymm_v5,2020.2.10,Win32,60,61025ae37ef11b136ea224fe,,,,,,,,,2984,-75,-47,1,0,0,response5disk,,2,14,9,1,0,0,rectangle,14,9,1,0,0,14,9,1,0,0,0,145,145,138,1,,,,,,,,
,,,,,,,,,,,,,FF,,,,,,,,1.3827,,,,,,,,,,,,,,,,,,,,,,5d4ca0ef259d580001cde9bb,61036ea75257ad60f1dc32ee,2021-07-29_22h16.32.739,Simcolourproject_2stim_asymm_v5,2020.2.10,Win32,60,61025ae37ef11b136ea224fe,,,,,,,,,4133,58,29,1,0,0,response1disk,,6,7,4,1,0,0,rectangle,7,4,1,0,0,7,4,1,0,0,0,146,146,77,1,,,,,,,,
,,,,,,,,,,,,,FF,,,,,,,,1.2828,,,,,,,,,,,,,,,,,,,,,,5d4ca0ef259d580001cde9bb,61036ea75257ad60f1dc32ee,2021-07-29_22h16.32.739,Simcolourproject_2stim_asymm_v5,2020.2.10,Win32,60,61025ae37ef11b136ea224fe,,,,,,,,,1097,36,84,1,0,0,response1disk,,7,-4,-9,1,0,0,rectangle,-4,-9,1,0,0,-4,-9,1,0,0,0,147,147,84,1,,,,,,,,
,,,,,,,,,,,,,FF,,,,,,,,0.8158,,,,,,,,,,,,,,,,,,,,,,5d4ca0ef259d580001cde9bb,61036ea75257ad60f1dc32ee,2021-07-29_22h16.32.739,Simcolourproject_2stim_asymm_v5,2020.2.10,Win32,60,61025ae37ef11b136ea224fe,,,,,,,,,2093,-34,67,1,0,0,response7disk,,0,-1,1,1,0,0,rectangle,-31,89,1,0,0,0,1,1,0,0,0,148,148,7,1,,response7disk_3,TRUE,0,0,"[34,74,141,173,191,202,149,240,4,6,37,22,81,143,16,112,42,259,31,142]",1.799,rectangle
,,,,,,,,,,,,,FF,,,,,,,,1.5328,,,,,,,,,,,,,,,,,,,,,,5d4ca0ef259d580001cde9bb,61036ea75257ad60f1dc32ee,2021-07-29_22h16.32.739,Simcolourproject_2stim_asymm_v5,2020.2.10,Win32,60,61025ae37ef11b136ea224fe,,,,,,,,,2076,39,73,1,0,0,response1disk,,7,0,-4,1,0,0,rectangle,0,-4,1,0,0,0,-4,1,0,0,0,149,149,71,1,,,,,,,,
,,,,,,,,,,,,,FF,,,,,,,,1.0817,,,,,,,,,,,,,,,,,,,,,,5d4ca0ef259d580001cde9bb,61036ea75257ad60f1dc32ee,2021-07-29_22h16.32.739,Simcolourproject_2stim_asymm_v5,2020.2.10,Win32,60,61025ae37ef11b136ea224fe,,,,,,,,,410,60,18,1,0,0,response1disk,,6,10,11,1,0,0,rectangle,10,11,1,0,0,10,11,1,0,0,0,150,150,34,1,,,,,,,,
,,,,,,,,,,,,,FF,,,,,,,,2.0489,,,,,,,,,,,,,,,,,,,,,,5d4ca0ef259d580001cde9bb,61036ea75257ad60f1dc32ee,2021-07-29_22h16.32.739,Simcolourproject_2stim_asymm_v5,2020.2.10,Win32,60,61025ae37ef11b136ea224fe,,,,,,,,,2949,-44,-59,1,0,0,response5disk,,3,-1,-4,1,0,0,rectangle,-1,-4,1,0,0,-1,-4,1,0,0,0,151,151,78,1,,,,,,,,
,,,,,,,,,,,,,FF,,,,,,,,0.9667,,,,,,,,,,,,,,,,,,,,,,5d4ca0ef259d580001cde9bb,61036ea75257ad60f1dc32ee,2021-07-29_22h16.32.739,Simcolourproject_2stim_asymm_v5,2020.2.10,Win32,60,61025ae37ef11b136ea224fe,,,,,,,,,1203,-74,27,1,0,0,response7disk,,1,6,-2,1,0,0,rectangle,6,-2,1,0,0,6,-2,1,0,0,0,152,152,104,1,,,,,,,,
,,,,,,,,,,,,,FF,,,,,,,,2.7828,,,,,,,,,,,,,,,,,,,,,,5d4ca0ef259d580001cde9bb,61036ea75257ad60f1dc32ee,2021-07-29_22h16.32.739,Simcolourproject_2stim_asymm_v5,2020.2.10,Win32,60,61025ae37ef11b136ea224fe,,,,,,,,,2616,52,-27,1,0,0,response3disk,,5,-2,-2,1,0,0,rectangle,-2,-2,1,0,0,-2,-2,1,0,0,0,153,153,41,1,,,,,,,,
,,,,,,,,,,,,,FF,,,,,,,,0.9502,,,,,,,,,,,,,,,,,,,,,,5d4ca0ef259d580001cde9bb,61036ea75257ad60f1dc32ee,2021-07-29_22h16.32.739,Simcolourproject_2stim_asymm_v5,2020.2.10,Win32,60,61025ae37ef11b136ea224fe,,,,,,,,,3123,19,72,1,0,0,response1disk,,7,1,-2,1,0,0,rectangle,1,-2,1,0,0,1,-2,1,0,0,0,154,154,8,1,,,,,,,,
,,,,,,,,,,,,,FF,,,,,,,,1.4168,,,,,,,,,,,,,,,,,,,,,,5d4ca0ef259d580001cde9bb,61036ea75257ad60f1dc32ee,2021-07-29_22h16.32.739,Simcolourproject_2stim_asymm_v5,2020.2.10,Win32,60,61025ae37ef11b136ea224fe,,,,,,,,,1360,28,-47,1,0,0,response3disk,,4,4,-9,1,0,0,rectangle,4,-9,1,0,0,4,-9,1,0,0,0,155,155,158,1,,,,,,,,
,,,,,,,,,,,,,FF,,,,,,,,0.7344,,,,,,,,,,,,,,,,,,,,,,5d4ca0ef259d580001cde9bb,61036ea75257ad60f1dc32ee,2021-07-29_22h16.32.739,Simcolourproject_2stim_asymm_v5,2020.2.10,Win32,60,61025ae37ef11b136ea224fe,,,,,,,,,4361,-32,99,1,0,0,response7disk,,0,-8,-13,1,0,0,rectangle,-8,-13,1,0,0,-8,-13,1,0,0,0,156,156,123,1,,,,,,,,
,,,,,,,,,,,,,FF,,,,,,,,1.2991,,,,,,,,,,,,,,,,,,,,,,5d4ca0ef259d580001cde9bb,61036ea75257ad60f1dc32ee,2021-07-29_22h16.32.739,Simcolourproject_2stim_asymm_v5,2020.2.10,Win32,60,61025ae37ef11b136ea224fe,,,,,,,,,2867,63,25,1,0,0,response1disk,,6,7,-5,1,0,0,rectangle,7,-5,1,0,0,7,-5,1,0,0,0,157,157,50,1,,,,,,,,
,,,,,,,,,,,,,FF,,,,,,,,1.1334,,,,,,,,,,,,,,,,,,,,,,5d4ca0ef259d580001cde9bb,61036ea75257ad60f1dc32ee,2021-07-29_22h16.32.739,Simcolourproject_2stim_asymm_v5,2020.2.10,Win32,60,61025ae37ef11b136ea224fe,,,,,,,,,1691,-71,-26,1,0,0,response5disk,,2,-17,-10,1,0,0,rectangle,-17,-10,1,0,0,-17,-10,1,0,0,0,158,158,73,1,,,,,,,,
,,,,,,,,,,,,,FF,,,,,,,,0.7333,,,,,,,,,,,,,,,,,,,,,,5d4ca0ef259d580001cde9bb,61036ea75257ad60f1dc32ee,2021-07-29_22h16.32.739,Simcolourproject_2stim_asymm_v5,2020.2.10,Win32,60,61025ae37ef11b136ea224fe,,,,,,,,,1260,58,-20,1,0,0,response3disk,,5,1,-6,1,0,0,rectangle,1,-6,1,0,0,1,-6,1,0,0,0,159,159,113,1,,,,,,,,
,,,,,,,,,,,,,FF,,,,,,,,0.7664,,,,,,,,,,,,,,,,,,,,,,5d4ca0ef259d580001cde9bb,61036ea75257ad60f1dc32ee,2021-07-29_22h16.32.739,Simcolourproject_2stim_asymm_v5,2020.2.10,Win32,60,61025ae37ef11b136ea224fe,,,,,,,,,836,55,31,1,0,0,response1disk,,6,8,3,1,0,0,rectangle,8,3,1,0,0,8,3,1,0,0,1,0,160,135,1,,,,,,,,
,,,,,,,,,,,,,FF,,,,,,,,1.1166,,,,,,,,,,,,,,,,,,,,,,5d4ca0ef259d580001cde9bb,61036ea75257ad60f1dc32ee,2021-07-29_22h16.32.739,Simcolourproject_2stim_asymm_v5,2020.2.10,Win32,60,61025ae37ef11b136ea224fe,,,,,,,,,3634,41,-28,1,0,0,response3disk,,5,1,-6,1,0,0,rectangle,1,-6,1,0,0,1,-6,1,0,0,1,1,161,103,1,,,,,,,,
,,,,,,,,,,,,,FF,,,,,,,,0.8831,,,,,,,,,,,,,,,,,,,,,,5d4ca0ef259d580001cde9bb,61036ea75257ad60f1dc32ee,2021-07-29_22h16.32.739,Simcolourproject_2stim_asymm_v5,2020.2.10,Win32,60,61025ae37ef11b136ea224fe,,,,,,,,,319,17,79,1,0,0,response1disk,,7,-2,-14,1,0,0,rectangle,-2,-14,1,0,0,-2,-14,1,0,0,1,2,162,104,1,,,,,,,,
,,,,,,,,,,,,,FF,,,,,,,,1.7996,,,,,,,,,,,,,,,,,,,,,,5d4ca0ef259d580001cde9bb,61036ea75257ad60f1dc32ee,2021-07-29_22h16.32.739,Simcolourproject_2stim_asymm_v5,2020.2.10,Win32,60,61025ae37ef11b136ea224fe,,,,,,,,,1508,-28,-76,1,0,0,response5disk,,3,1,-5,1,0,0,rectangle,1,-5,1,0,0,1,-5,1,0,0,1,3,163,112,1,,,,,,,,
,,,,,,,,,,,,,FF,,,,,,,,0.9828,,,,,,,,,,,,,,,,,,,,,,5d4ca0ef259d580001cde9bb,61036ea75257ad60f1dc32ee,2021-07-29_22h16.32.739,Simcolourproject_2stim_asymm_v5,2020.2.10,Win32,60,61025ae37ef11b136ea224fe,,,,,,,,,1618,-22,-47,1,0,0,response5disk,,3,-4,2,1,0,0,rectangle,-4,2,1,0,0,-4,2,1,0,0,1,4,164,72,1,,,,,,,,
,,,,,,,,,,,,,FF,,,,,,,,1.1168,,,,,,,,,,,,,,,,,,,,,,5d4ca0ef259d580001cde9bb,61036ea75257ad60f1dc32ee,2021-07-29_22h16.32.739,Simcolourproject_2stim_asymm_v5,2020.2.10,Win32,60,61025ae37ef11b136ea224fe,,,,,,,,,392,62,-25,1,0,0,response3disk,,5,7,14,1,0,0,rectangle,7,14,1,0,0,7,14,1,0,0,1,5,165,10,1,,,,,,,,
,,,,,,,,,,,,,FF,,,,,,,,1.1493,,,,,,,,,,,,,,,,,,,,,,5d4ca0ef259d580001cde9bb,61036ea75257ad60f1dc32ee,2021-07-29_22h16.32.739,Simcolourproject_2stim_asymm_v5,2020.2.10,Win32,60,61025ae37ef11b136ea224fe,,,,,,,,,706,-28,-45,1,0,0,response5disk,,3,2,-2,1,0,0,rectangle,2,-2,1,0,0,2,-2,1,0,0,1,6,166,46,1,,,,,,,,
,,,,,,,,,,,,,FF,,,,,,,,0.8837,,,,,,,,,,,,,,,,,,,,,,5d4ca0ef259d580001cde9bb,61036ea75257ad60f1dc32ee,2021-07-29_22h16.32.739,Simcolourproject_2stim_asymm_v5,2020.2.10,Win32,60,61025ae37ef11b136ea224fe,,,,,,,,,4314,45,64,1,0,0,response1disk,,7,4,2,1,0,0,rectangle,4,2,1,0,0,4,2,1,0,0,1,7,167,66,1,,,,,,,,
,,,,,,,,,,,,,FF,,,,,,,,2.3159,,,,,,,,,,,,,,,,,,,,,,5d4ca0ef259d580001cde9bb,61036ea75257ad60f1dc32ee,2021-07-29_22h16.32.739,Simcolourproject_2stim_asymm_v5,2020.2.10,Win32,60,61025ae37ef11b136ea224fe,,,,,,,,,758,42,28,1,0,0,response1disk,,6,-3,3,1,0,0,rectangle,-3,3,1,0,0,-3,3,1,0,0,1,8,168,147,1,,,,,,,,
,,,,,,,,,,,,,FF,,,,,,,,1.35,,,,,,,,,,,,,,,,,,,,,,5d4ca0ef259d580001cde9bb,61036ea75257ad60f1dc32ee,2021-07-29_22h16.32.739,Simcolourproject_2stim_asymm_v5,2020.2.10,Win32,60,61025ae37ef11b136ea224fe,,,,,,,,,1378,-24,-64,1,0,0,response5disk,,3,0,-8,1,0,0,rectangle,0,-8,1,0,0,0,-8,1,0,0,1,9,169,68,1,,,,,,,,
,,,,,,,,,,,,,FF,,,,,,,,0.9329,,,,,,,,,,,,,,,,,,,,,,5d4ca0ef259d580001cde9bb,61036ea75257ad60f1dc32ee,2021-07-29_22h16.32.739,Simcolourproject_2stim_asymm_v5,2020.2.10,Win32,60,61025ae37ef11b136ea224fe,,,,,,,,,1288,-47,-25,1,0,0,response5disk,,2,-9,-2,1,0,0,rectangle,-9,-2,1,0,0,-9,-2,1,0,0,1,10,170,6,1,,,,,,,,
,,,,,,,,,,,,,FF,,,,,,,,0.8503,,,,,,,,,,,,,,,,,,,,,,5d4ca0ef259d580001cde9bb,61036ea75257ad60f1dc32ee,2021-07-29_22h16.32.739,Simcolourproject_2stim_asymm_v5,2020.2.10,Win32,60,61025ae37ef11b136ea224fe,,,,,,,,,1018,53,-18,1,0,0,response3disk,,5,3,5,1,0,0,rectangle,3,5,1,0,0,3,5,1,0,0,1,11,171,96,1,,,,,,,,
,,,,,,,,,,,,,FF,,,,,,,,1.4161,,,,,,,,,,,,,,,,,,,,,,5d4ca0ef259d580001cde9bb,61036ea75257ad60f1dc32ee,2021-07-29_22h16.32.739,Simcolourproject_2stim_asymm_v5,2020.2.10,Win32,60,61025ae37ef11b136ea224fe,,,,,,,,,2239,-23,-71,1,0,0,response5disk,,3,5,9,1,0,0,rectangle,31,-74,1,0,0,1,-8,1,0,0,1,12,172,40,1,,response3disk_3,TRUE,4,4,"[34,74,141,173,191,202,149,240,4,6,37,22,81,143,16,112,42,259,31,142]",1.7985,rectangle
,,,,,,,,,,,,,FF,,,,,,,,1.383,,,,,,,,,,,,,,,,,,,,,,5d4ca0ef259d580001cde9bb,61036ea75257ad60f1dc32ee,2021-07-29_22h16.32.739,Simcolourproject_2stim_asymm_v5,2020.2.10,Win32,60,61025ae37ef11b136ea224fe,,,,,,,,,426,-43,-67,1,0,0,response5disk,,3,-9,-14,1,0,0,rectangle,-9,-14,1,0,0,-9,-14,1,0,0,1,13,173,17,1,,,,,,,,
,,,,,,,,,,,,,FF,,,,,,,,0.9832,,,,,,,,,,,,,,,,,,,,,,5d4ca0ef259d580001cde9bb,61036ea75257ad60f1dc32ee,2021-07-29_22h16.32.739,Simcolourproject_2stim_asymm_v5,2020.2.10,Win32,60,61025ae37ef11b136ea224fe,,,,,,,,,1048,49,22,1,0,0,response1disk,,6,6,-3,1,0,0,rectangle,6,-3,1,0,0,6,-3,1,0,0,1,14,174,94,1,,,,,,,,
,,,,,,,,,,,,,FF,,,,,,,,1.1498,,,,,,,,,,,,,,,,,,,,,,5d4ca0ef259d580001cde9bb,61036ea75257ad60f1dc32ee,2021-07-29_22h16.32.739,Simcolourproject_2stim_asymm_v5,2020.2.10,Win32,60,61025ae37ef11b136ea224fe,,,,,,,,,1384,-33,-55,1,0,0,response5disk,,3,11,1,1,0,0,rectangle,11,1,1,0,0,11,1,1,0,0,1,15,175,117,1,,,,,,,,
,,,,,,,,,,,,,FF,,,,,,,,0.7,,,,,,,,,,,,,,,,,,,,,,5d4ca0ef259d580001cde9bb,61036ea75257ad60f1dc32ee,2021-07-29_22h16.32.739,Simcolourproject_2stim_asymm_v5,2020.2.10,Win32,60,61025ae37ef11b136ea224fe,,,,,,,,,3468,-25,72,1,0,0,response7disk,,0,-6,-2,1,0,0,rectangle,-6,-2,1,0,0,-6,-2,1,0,0,1,16,176,132,1,,,,,,,,
,,,,,,,,,,,,,FF,,,,,,,,1.2876,,,,,,,,,,,,,,,,,,,,,,5d4ca0ef259d580001cde9bb,61036ea75257ad60f1dc32ee,2021-07-29_22h16.32.739,Simcolourproject_2stim_asymm_v5,2020.2.10,Win32,60,61025ae37ef11b136ea224fe,,,,,,,,,2354,60,81,1,0,0,response1disk,,7,1,2,1,0,0,rectangle,1,2,1,0,0,1,2,1,0,0,1,17,177,19,1,,,,,,,,
,,,,,,,,,,,,,FF,,,,,,,,0.8172,,,,,,,,,,,,,,,,,,,,,,5d4ca0ef259d580001cde9bb,61036ea75257ad60f1dc32ee,2021-07-29_22h16.32.739,Simcolourproject_2stim_asymm_v5,2020.2.10,Win32,60,61025ae37ef11b136ea224fe,,,,,,,,,1866,19,58,1,0,0,response1disk,,7,2,6,1,0,0,rectangle,2,6,1,0,0,2,6,1,0,0,1,18,178,130,1,,,,,,,,
,,,,,,,,,,,,,FF,,,,,,,,1.6664,,,,,,,,,,,,,,,,,,,,,,5d4ca0ef259d580001cde9bb,61036ea75257ad60f1dc32ee,2021-07-29_22h16.32.739,Simcolourproject_2stim_asymm_v5,2020.2.10,Win32,60,61025ae37ef11b136ea224fe,,,,,,,,,1760,32,-64,1,0,0,response3disk,,4,-5,-7,1,0,0,rectangle,-5,-7,1,0,0,-5,-7,1,0,0,1,19,179,123,1,,,,,,,,
,,,,,,,,,,,,,FF,,,,,,,,0.9829,,,,,,,,,,,,,,,,,,,,,,5d4ca0ef259d580001cde9bb,61036ea75257ad60f1dc32ee,2021-07-29_22h16.32.739,Simcolourproject_2stim_asymm_v5,2020.2.10,Win32,60,61025ae37ef11b136ea224fe,,,,,,,,,2896,-31,-50,1,0,0,response5disk,,3,-4,-10,1,0,0,rectangle,-4,-10,1,0,0,-4,-10,1,0,0,1,20,180,140,1,,,,,,,,
,,,,,,,,,,,,,FF,,,,,,,,1.0714,,,,,,,,,,,,,,,,,,,,,,5d4ca0ef259d580001cde9bb,61036ea75257ad60f1dc32ee,2021-07-29_22h16.32.739,Simcolourproject_2stim_asymm_v5,2020.2.10,Win32,60,61025ae37ef11b136ea224fe,,,,,,,,,4259,41,-19,1,0,0,response3disk,,5,11,-1,1,0,0,rectangle,11,-1,1,0,0,11,-1,1,0,0,1,21,181,0,1,,,,,,,,
,,,,,,,,,,,,,FF,,,,,,,,1.1833,,,,,,,,,,,,,,,,,,,,,,5d4ca0ef259d580001cde9bb,61036ea75257ad60f1dc32ee,2021-07-29_22h16.32.739,Simcolourproject_2stim_asymm_v5,2020.2.10,Win32,60,61025ae37ef11b136ea224fe,,,,,,,,,3307,43,26,1,0,0,response1disk,,6,16,7,1,0,0,rectangle,16,7,1,0,0,16,7,1,0,0,1,22,182,54,1,,,,,,,,
,,,,,,,,,,,,,FF,,,,,,,,1.0667,,,,,,,,,,,,,,,,,,,,,,5d4ca0ef259d580001cde9bb,61036ea75257ad60f1dc32ee,2021-07-29_22h16.32.739,Simcolourproject_2stim_asymm_v5,2020.2.10,Win32,60,61025ae37ef11b136ea224fe,,,,,,,,,2389,58,23,1,0,0,response1disk,,6,7,-2,1,0,0,rectangle,7,-2,1,0,0,7,-2,1,0,0,1,23,183,7,1,,,,,,,,
,,,,,,,,,,,,,FF,,,,,,,,1.0832,,,,,,,,,,,,,,,,,,,,,,5d4ca0ef259d580001cde9bb,61036ea75257ad60f1dc32ee,2021-07-29_22h16.32.739,Simcolourproject_2stim_asymm_v5,2020.2.10,Win32,60,61025ae37ef11b136ea224fe,,,,,,,,,3407,48,-28,1,0,0,response3disk,,5,11,-4,1,0,0,rectangle,11,-4,1,0,0,11,-4,1,0,0,1,24,184,11,1,,,,,,,,
,,,,,,,,,,,,,FF,,,,,,,,1.1662,,,,,,,,,,,,,,,,,,,,,,5d4ca0ef259d580001cde9bb,61036ea75257ad60f1dc32ee,2021-07-29_22h16.32.739,Simcolourproject_2stim_asymm_v5,2020.2.10,Win32,60,61025ae37ef11b136ea224fe,,,,,,,,,2475,53,68,1,0,0,response1disk,,7,13,-5,1,0,0,rectangle,13,-5,1,0,0,13,-5,1,0,0,1,25,185,139,1,,,,,,,,
,,,,,,,,,,,,,FF,,,,,,,,0.9167,,,,,,,,,,,,,,,,,,,,,,5d4ca0ef259d580001cde9bb,61036ea75257ad60f1dc32ee,2021-07-29_22h16.32.739,Simcolourproject_2stim_asymm_v5,2020.2.10,Win32,60,61025ae37ef11b136ea224fe,,,,,,,,,2607,-30,-51,1,0,0,response5disk,,3,-5,-1,1,0,0,rectangle,-5,-1,1,0,0,-5,-1,1,0,0,1,26,186,145,1,,,,,,,,
,,,,,,,,,,,,,FF,,,,,,,,1.4163,,,,,,,,,,,,,,,,,,,,,,5d4ca0ef259d580001cde9bb,61036ea75257ad60f1dc32ee,2021-07-29_22h16.32.739,Simcolourproject_2stim_asymm_v5,2020.2.10,Win32,60,61025ae37ef11b136ea224fe,,,,,,,,,1763,44,-34,1,0,0,response3disk,,5,17,-3,1,0,0,rectangle,17,-3,1,0,0,17,-3,1,0,0,1,27,187,137,1,,,,,,,,
,,,,,,,,,,,,,FF,,,,,,,,1.6489,,,,,,,,,,,,,,,,,,,,,,5d4ca0ef259d580001cde9bb,61036ea75257ad60f1dc32ee,2021-07-29_22h16.32.739,Simcolourproject_2stim_asymm_v5,2020.2.10,Win32,60,61025ae37ef11b136ea224fe,,,,,,,,,1540,-16,-49,1,0,0,response5disk,,3,-10,-13,1,0,0,rectangle,-10,-13,1,0,0,-10,-13,1,0,0,1,28,188,81,1,,,,,,,,
,,,,,,,,,,,,,FF,,,,,,,,1.1161,,,,,,,,,,,,,,,,,,,,,,5d4ca0ef259d580001cde9bb,61036ea75257ad60f1dc32ee,2021-07-29_22h16.32.739,Simcolourproject_2stim_asymm_v5,2020.2.10,Win32,60,61025ae37ef11b136ea224fe,,,,,,,,,32,46,-65,1,0,0,response3disk,,4,19,-1,1,0,0,rectangle,19,-1,1,0,0,19,-1,1,0,0,1,29,189,108,1,,,,,,,,
,,,,,,,,,,,,,FF,,,,,,,,1.1331,,,,,,,,,,,,,,,,,,,,,,5d4ca0ef259d580001cde9bb,61036ea75257ad60f1dc32ee,2021-07-29_22h16.32.739,Simcolourproject_2stim_asymm_v5,2020.2.10,Win32,60,61025ae37ef11b136ea224fe,,,,,,,,,3522,26,-72,1,0,0,response3disk,,4,5,-3,1,0,0,rectangle,-32,-78,1,0,0,5,1,1,0,0,1,30,190,25,1,,response5disk_3,TRUE,3,3,"[34,74,141,173,191,202,149,240,4,6,37,22,81,143,16,112,42,259,31,142]",1.9154,rectangle
,,,,,,,,,,,,,FF,,,,,,,,1.4008,,,,,,,,,,,,,,,,,,,,,,5d4ca0ef259d580001cde9bb,61036ea75257ad60f1dc32ee,2021-07-29_22h16.32.739,Simcolourproject_2stim_asymm_v5,2020.2.10,Win32,60,61025ae37ef11b136ea224fe,,,,,,,,,239,40,-97,1,0,0,response3disk,,4,13,11,1,0,0,rectangle,13,11,1,0,0,13,11,1,0,0,1,31,191,109,1,,,,,,,,
,,,,,,,,,,,,,FF,,,,,,,,1.2495,,,,,,,,,,,,,,,,,,,,,,5d4ca0ef259d580001cde9bb,61036ea75257ad60f1dc32ee,2021-07-29_22h16.32.739,Simcolourproject_2stim_asymm_v5,2020.2.10,Win32,60,61025ae37ef11b136ea224fe,,,,,,,,,598,18,-76,1,0,0,response3disk,,4,10,-3,1,0,0,rectangle,10,-3,1,0,0,10,-3,1,0,0,1,32,192,49,1,,,,,,,,
,,,,,,,,,,,,,FF,,,,,,,,1.0159,,,,,,,,,,,,,,,,,,,,,,5d4ca0ef259d580001cde9bb,61036ea75257ad60f1dc32ee,2021-07-29_22h16.32.739,Simcolourproject_2stim_asymm_v5,2020.2.10,Win32,60,61025ae37ef11b136ea224fe,,,,,,,,,1454,-79,-41,1,0,0,response5disk,,2,-9,-1,1,0,0,rectangle,-9,-1,1,0,0,-9,-1,1,0,0,1,33,193,67,1,,,,,,,,
,,,,,,,,,,,,,FF,,,,,,,,0.7835,,,,,,,,,,,,,,,,,,,,,,5d4ca0ef259d580001cde9bb,61036ea75257ad60f1dc32ee,2021-07-29_22h16.32.739,Simcolourproject_2stim_asymm_v5,2020.2.10,Win32,60,61025ae37ef11b136ea224fe,,,,,,,,,3277,38,84,1,0,0,response1disk,,7,2,6,1,0,0,rectangle,2,6,1,0,0,2,6,1,0,0,1,34,194,41,1,,,,,,,,
,,,,,,,,,,,,,FF,,,,,,,,1.1162,,,,,,,,,,,,,,,,,,,,,,5d4ca0ef259d580001cde9bb,61036ea75257ad60f1dc32ee,2021-07-29_22h16.32.739,Simcolourproject_2stim_asymm_v5,2020.2.10,Win32,60,61025ae37ef11b136ea224fe,,,,,,,,,1303,-28,-48,1,0,0,response5disk,,3,-2,7,1,0,0,rectangle,-2,7,1,0,0,-2,7,1,0,0,1,35,195,106,1,,,,,,,,
,,,,,,,,,,,,,FF,,,,,,,,1.1664,,,,,,,,,,,,,,,,,,,,,,5d4ca0ef259d580001cde9bb,61036ea75257ad60f1dc32ee,2021-07-29_22h16.32.739,Simcolourproject_2stim_asymm_v5,2020.2.10,Win32,60,61025ae37ef11b136ea224fe,,,,,,,,,1362,20,-55,1,0,0,response3disk,,4,-2,7,1,0,0,rectangle,-2,7,1,0,0,-2,7,1,0,0,1,36,196,90,1,,,,,,,,
,,,,,,,,,,,,,FF,,,,,,,,4.1991,,,,,,,,,,,,,,,,,,,,,,5d4ca0ef259d580001cde9bb,61036ea75257ad60f1dc32ee,2021-07-29_22h16.32.739,Simcolourproject_2stim_asymm_v5,2020.2.10,Win32,60,61025ae37ef11b136ea224fe,,,,,,,,,423,45,-31,1,0,0,response3disk,,5,-1,9,1,0,0,rectangle,-1,9,1,0,0,-1,9,1,0,0,1,37,197,154,1,,,,,,,,
,,,,,,,,,,,,,FF,,,,,,,,0.8663,,,,,,,,,,,,,,,,,,,,,,5d4ca0ef259d580001cde9bb,61036ea75257ad60f1dc32ee,2021-07-29_22h16.32.739,Simcolourproject_2stim_asymm_v5,2020.2.10,Win32,60,61025ae37ef11b136ea224fe,,,,,,,,,3670,-57,41,1,0,0,response7disk,,1,-2,1,1,0,0,rectangle,-2,1,1,0,0,-2,1,1,0,0,1,38,198,45,1,,,,,,,,
,,,,,,,,,,,,,FF,,,,,,,,1.2,,,,,,,,,,,,,,,,,,,,,,5d4ca0ef259d580001cde9bb,61036ea75257ad60f1dc32ee,2021-07-29_22h16.32.739,Simcolourproject_2stim_asymm_v5,2020.2.10,Win32,60,61025ae37ef11b136ea224fe,,,,,,,,,4229,43,27,1,0,0,response1disk,,6,0,2,1,0,0,rectangle,0,2,1,0,0,0,2,1,0,0,1,39,199,63,1,,,,,,,,
,,,,,,,,,,,,,FF,,,,,,,,0.9326,,,,,,,,,,,,,,,,,,,,,,5d4ca0ef259d580001cde9bb,61036ea75257ad60f1dc32ee,2021-07-29_22h16.32.739,Simcolourproject_2stim_asymm_v5,2020.2.10,Win32,60,61025ae37ef11b136ea224fe,,,,,,,,,1154,48,-23,1,0,0,response3disk,,5,1,1,1,0,0,rectangle,1,1,1,0,0,1,1,1,0,0,1,40,200,33,1,,,,,,,,
,,,,,,,,,,,,,FF,,,,,,,,1.079,,,,,,,,,,,,,,,,,,,,,,5d4ca0ef259d580001cde9bb,61036ea75257ad60f1dc32ee,2021-07-29_22h16.32.739,Simcolourproject_2stim_asymm_v5,2020.2.10,Win32,60,61025ae37ef11b136ea224fe,,,,,,,,,2164,-59,-21,1,0,0,response5disk,,2,-5,4,1,0,0,rectangle,62,-37,1,0,0,-3,-5,1,0,0,1,41,201,79,1,,response3disk_3,TRUE,5,5,"[34,74,141,173,191,202,149,240,4,6,37,22,81,143,16,112,42,259,31,142]",1.8496,rectangle
,,,,,,,,,,,,,FF,,,,,,,,1.6495,,,,,,,,,,,,,,,,,,,,,,5d4ca0ef259d580001cde9bb,61036ea75257ad60f1dc32ee,2021-07-29_22h16.32.739,Simcolourproject_2stim_asymm_v5,2020.2.10,Win32,60,61025ae37ef11b136ea224fe,,,,,,,,,2363,-63,-26,1,0,0,response5disk,,2,13,-5,1,0,0,rectangle,13,-5,1,0,0,13,-5,1,0,0,1,42,202,148,1,,,,,,,,
,,,,,,,,,,,,,FF,,,,,,,,0.7168,,,,,,,,,,,,,,,,,,,,,,5d4ca0ef259d580001cde9bb,61036ea75257ad60f1dc32ee,2021-07-29_22h16.32.739,Simcolourproject_2stim_asymm_v5,2020.2.10,Win32,60,61025ae37ef11b136ea224fe,,,,,,,,,548,-55,36,1,0,0,response7disk,,1,5,5,1,0,0,rectangle,5,5,1,0,0,5,5,1,0,0,1,43,203,20,1,,,,,,,,
,,,,,,,,,,,,,FF,,,,,,,,1.1504,,,,,,,,,,,,,,,,,,,,,,5d4ca0ef259d580001cde9bb,61036ea75257ad60f1dc32ee,2021-07-29_22h16.32.739,Simcolourproject_2stim_asymm_v5,2020.2.10,Win32,60,61025ae37ef11b136ea224fe,,,,,,,,,4005,-36,-63,1,0,0,response5disk,,3,1,15,1,0,0,rectangle,1,15,1,0,0,1,15,1,0,0,1,44,204,82,1,,,,,,,,
,,,,,,,,,,,,,FF,,,,,,,,0.9785,,,,,,,,,,,,,,,,,,,,,,5d4ca0ef259d580001cde9bb,61036ea75257ad60f1dc32ee,2021-07-29_22h16.32.739,Simcolourproject_2stim_asymm_v5,2020.2.10,Win32,60,61025ae37ef11b136ea224fe,,,,,,,,,2568,41,-57,1,0,0,response3disk,,4,7,-1,1,0,0,rectangle,7,-1,1,0,0,7,-1,1,0,0,1,45,205,99,1,,,,,,,,
,,,,,,,,,,,,,FF,,,,,,,,0.7996,,,,,,,,,,,,,,,,,,,,,,5d4ca0ef259d580001cde9bb,61036ea75257ad60f1dc32ee,2021-07-29_22h16.32.739,Simcolourproject_2stim_asymm_v5,2020.2.10,Win32,60,61025ae37ef11b136ea224fe,,,,,,,,,1681,-67,-34,1,0,0,response5disk,,2,-3,4,1,0,0,rectangle,-3,4,1,0,0,-3,4,1,0,0,1,46,206,69,1,,,,,,,,
,,,,,,,,,,,,,FF,,,,,,,,1.0122,,,,,,,,,,,,,,,,,,,,,,5d4ca0ef259d580001cde9bb,61036ea75257ad60f1dc32ee,2021-07-29_22h16.32.739,Simcolourproject_2stim_asymm_v5,2020.2.10,Win32,60,61025ae37ef11b136ea224fe,,,,,,,,,957,-55,-31,1,0,0,response5disk,,2,-15,-8,1,0,0,rectangle,-15,-8,1,0,0,-15,-8,1,0,0,1,47,207,26,1,,,,,,,,
,,,,,,,,,,,,,FF,,,,,,,,1.1377,,,,,,,,,,,,,,,,,,,,,,5d4ca0ef259d580001cde9bb,61036ea75257ad60f1dc32ee,2021-07-29_22h16.32.739,Simcolourproject_2stim_asymm_v5,2020.2.10,Win32,60,61025ae37ef11b136ea224fe,,,,,,,,,2559,34,-68,1,0,0,response3disk,,4,4,-2,1,0,0,rectangle,4,-2,1,0,0,4,-2,1,0,0,1,48,208,37,1,,,,,,,,
,,,,,,,,,,,,,FF,,,,,,,,1.1165,,,,,,,,,,,,,,,,,,,,,,5d4ca0ef259d580001cde9bb,61036ea75257ad60f1dc32ee,2021-07-29_22h16.32.739,Simcolourproject_2stim_asymm_v5,2020.2.10,Win32,60,61025ae37ef11b136ea224fe,,,,,,,,,920,55,76,1,0,0,response1disk,,7,7,3,1,0,0,rectangle,7,3,1,0,0,7,3,1,0,0,1,49,209,62,1,,,,,,,,
,,,,,,,,,,,,,FF,,,,,,,,1.0663,,,,,,,,,,,,,,,,,,,,,,5d4ca0ef259d580001cde9bb,61036ea75257ad60f1dc32ee,2021-07-29_22h16.32.739,Simcolourproject_2stim_asymm_v5,2020.2.10,Win32,60,61025ae37ef11b136ea224fe,,,,,,,,,3050,-45,-68,1,0,0,response5disk,,3,3,-11,1,0,0,rectangle,3,-11,1,0,0,3,-11,1,0,0,1,50,210,15,1,,,,,,,,
,,,,,,,,,,,,,FF,,,,,,,,1.4326,,,,,,,,,,,,,,,,,,,,,,5d4ca0ef259d580001cde9bb,61036ea75257ad60f1dc32ee,2021-07-29_22h16.32.739,Simcolourproject_2stim_asymm_v5,2020.2.10,Win32,60,61025ae37ef11b136ea224fe,,,,,,,,,3802,31,44,1,0,0,response1disk,,7,4,2,1,0,0,rectangle,4,2,1,0,0,4,2,1,0,0,1,51,211,8,1,,,,,,,,
,,,,,,,,,,,,,FF,,,,,,,,0.8831,,,,,,,,,,,,,,,,,,,,,,5d4ca0ef259d580001cde9bb,61036ea75257ad60f1dc32ee,2021-07-29_22h16.32.739,Simcolourproject_2stim_asymm_v5,2020.2.10,Win32,60,61025ae37ef11b136ea224fe,,,,,,,,,6,-19,-67,1,0,0,response5disk,,3,1,7,1,0,0,rectangle,1,7,1,0,0,1,7,1,0,0,1,52,212,119,1,,,,,,,,
,,,,,,,,,,,,,FF,,,,,,,,1.1172,,,,,,,,,,,,,,,,,,,,,,5d4ca0ef259d580001cde9bb,61036ea75257ad60f1dc32ee,2021-07-29_22h16.32.739,Simcolourproject_2stim_asymm_v5,2020.2.10,Win32,60,61025ae37ef11b136ea224fe,,,,,,,,,3529,59,21,1,0,0,response1disk,,6,12,1,1,0,0,rectangle,12,1,1,0,0,12,1,1,0,0,1,53,213,70,1,,,,,,,,
,,,,,,,,,,,,,FF,,,,,,,,0.6997,,,,,,,,,,,,,,,,,,,,,,5d4ca0ef259d580001cde9bb,61036ea75257ad60f1dc32ee,2021-07-29_22h16.32.739,Simcolourproject_2stim_asymm_v5,2020.2.10,Win32,60,61025ae37ef11b136ea224fe,,,,,,,,,1407,85,-62,1,0,0,response3disk,,5,-21,-8,1,0,0,rectangle,-21,-8,1,0,0,-21,-8,1,0,0,1,54,214,35,1,,,,,,,,
,,,,,,,,,,,,,FF,,,,,,,,0.7331,,,,,,,,,,,,,,,,,,,,,,5d4ca0ef259d580001cde9bb,61036ea75257ad60f1dc32ee,2021-07-29_22h16.32.739,Simcolourproject_2stim_asymm_v5,2020.2.10,Win32,60,61025ae37ef11b136ea224fe,,,,,,,,,289,44,-26,1,0,0,response3disk,,5,-2,13,1,0,0,rectangle,-2,13,1,0,0,-2,13,1,0,0,1,55,215,138,1,,,,,,,,
,,,,,,,,,,,,,FF,,,,,,,,1.6284,,,,,,,,,,,,,,,,,,,,,,5d4ca0ef259d580001cde9bb,61036ea75257ad60f1dc32ee,2021-07-29_22h16.32.739,Simcolourproject_2stim_asymm_v5,2020.2.10,Win32,60,61025ae37ef11b136ea224fe,,,,,,,,,399,45,-22,1,0,0,response3disk,,5,4,4,1,0,0,rectangle,4,4,1,0,0,4,4,1,0,0,1,56,216,38,1,,,,,,,,
,,,,,,,,,,,,,FF,,,,,,,,0.8998,,,,,,,,,,,,,,,,,,,,,,5d4ca0ef259d580001cde9bb,61036ea75257ad60f1dc32ee,2021-07-29_22h16.32.739,Simcolourproject_2stim_asymm_v5,2020.2.10,Win32,60,61025ae37ef11b136ea224fe,,,,,,,,,3245,-38,-72,1,0,0,response5disk,,3,6,-8,1,0,0,rectangle,6,-8,1,0,0,6,-8,1,0,0,1,57,217,51,1,,,,,,,,
,,,,,,,,,,,,,FF,,,,,,,,2.4391,,,,,,,,,,,,,,,,,,,,,,5d4ca0ef259d580001cde9bb,61036ea75257ad60f1dc32ee,2021-07-29_22h16.32.739,Simcolourproject_2stim_asymm_v5,2020.2.10,Win32,60,61025ae37ef11b136ea224fe,,,,,,,,,565,42,-56,1,0,0,response3disk,,4,-1,7,1,0,0,rectangle,-1,7,1,0,0,-1,7,1,0,0,1,58,218,13,1,,,,,,,,
,,,,,,,,,,,,,FF,,,,,,,,1.6002,,,,,,,,,,,,,,,,,,,,,,5d4ca0ef259d580001cde9bb,61036ea75257ad60f1dc32ee,2021-07-29_22h16.32.739,Simcolourproject_2stim_asymm_v5,2020.2.10,Win32,60,61025ae37ef11b136ea224fe,,,,,,,,,3689,75,-16,1,0,0,response3disk,,5,3,9,1,0,0,rectangle,3,9,1,0,0,3,9,1,0,0,1,59,219,98,1,,,,,,,,
,,,,,,,,,,,,,FF,,,,,,,,0.9121,,,,,,,,,,,,,,,,,,,,,,5d4ca0ef259d580001cde9bb,61036ea75257ad60f1dc32ee,2021-07-29_22h16.32.739,Simcolourproject_2stim_asymm_v5,2020.2.10,Win32,60,61025ae37ef11b136ea224fe,,,,,,,,,1302,-21,-53,1,0,0,response5disk,,3,0,-2,1,0,0,rectangle,0,-2,1,0,0,0,-2,1,0,0,1,60,220,115,1,,,,,,,,
,,,,,,,,,,,,,FF,,,,,,,,2.321,,,,,,,,,,,,,,,,,,,,,,5d4ca0ef259d580001cde9bb,61036ea75257ad60f1dc32ee,2021-07-29_22h16.32.739,Simcolourproject_2stim_asymm_v5,2020.2.10,Win32,60,61025ae37ef11b136ea224fe,,,,,,,,,3087,26,-43,1,0,0,response3disk,,4,-11,11,1,0,0,rectangle,-11,11,1,0,0,-11,11,1,0,0,1,61,221,107,1,,,,,,,,
,,,,,,,,,,,,,FF,,,,,,,,0.9659,,,,,,,,,,,,,,,,,,,,,,5d4ca0ef259d580001cde9bb,61036ea75257ad60f1dc32ee,2021-07-29_22h16.32.739,Simcolourproject_2stim_asymm_v5,2020.2.10,Win32,60,61025ae37ef11b136ea224fe,,,,,,,,,4008,-35,-61,1,0,0,response5disk,,3,-2,-2,1,0,0,rectangle,-2,-2,1,0,0,-2,-2,1,0,0,1,62,222,59,1,,,,,,,,
,,,,,,,,,,,,,FF,,,,,,,,0.864,,,,,,,,,,,,,,,,,,,,,,5d4ca0ef259d580001cde9bb,61036ea75257ad60f1dc32ee,2021-07-29_22h16.32.739,Simcolourproject_2stim_asymm_v5,2020.2.10,Win32,60,61025ae37ef11b136ea224fe,,,,,,,,,3174,28,-49,1,0,0,response3disk,,4,0,-8,1,0,0,rectangle,0,-8,1,0,0,0,-8,1,0,0,1,63,223,60,1,,,,,,,,
,,,,,,,,,,,,,FF,,,,,,,,0.8677,,,,,,,,,,,,,,,,,,,,,,5d4ca0ef259d580001cde9bb,61036ea75257ad60f1dc32ee,2021-07-29_22h16.32.739,Simcolourproject_2stim_asymm_v5,2020.2.10,Win32,60,61025ae37ef11b136ea224fe,,,,,,,,,263,-63,-26,1,0,0,response5disk,,2,-5,0,1,0,0,rectangle,-5,0,1,0,0,-5,0,1,0,0,1,64,224,75,1,,,,,,,,
,,,,,,,,,,,,,FF,,,,,,,,0.7829,,,,,,,,,,,,,,,,,,,,,,5d4ca0ef259d580001cde9bb,61036ea75257ad60f1dc32ee,2021-07-29_22h16.32.739,Simcolourproject_2stim_asymm_v5,2020.2.10,Win32,60,61025ae37ef11b136ea224fe,,,,,,,,,2331,53,-18,1,0,0,response3disk,,5,7,9,1,0,0,rectangle,7,9,1,0,0,7,9,1,0,0,1,65,225,12,1,,,,,,,,
,,,,,,,,,,,,,FF,,,,,,,,0.8494,,,,,,,,,,,,,,,,,,,,,,5d4ca0ef259d580001cde9bb,61036ea75257ad60f1dc32ee,2021-07-29_22h16.32.739,Simcolourproject_2stim_asymm_v5,2020.2.10,Win32,60,61025ae37ef11b136ea224fe,,,,,,,,,1278,52,-28,1,0,0,response3disk,,5,13,3,1,0,0,rectangle,13,3,1,0,0,13,3,1,0,0,1,66,226,28,1,,,,,,,,
,,,,,,,,,,,,,FF,,,,,,,,1.666,,,,,,,,,,,,,,,,,,,,,,5d4ca0ef259d580001cde9bb,61036ea75257ad60f1dc32ee,2021-07-29_22h16.32.739,Simcolourproject_2stim_asymm_v5,2020.2.10,Win32,60,61025ae37ef11b136ea224fe,,,,,,,,,4114,45,19,1,0,0,response1disk,,6,0,4,1,0,0,rectangle,0,4,1,0,0,0,4,1,0,0,1,67,227,146,1,,,,,,,,
,,,,,,,,,,,,,FF,,,,,,,,0.9,,,,,,,,,,,,,,,,,,,,,,5d4ca0ef259d580001cde9bb,61036ea75257ad60f1dc32ee,2021-07-29_22h16.32.739,Simcolourproject_2stim_asymm_v5,2020.2.10,Win32,60,61025ae37ef11b136ea224fe,,,,,,,,,755,23,52,1,0,0,response1disk,,7,1,-1,1,0,0,rectangle,1,-1,1,0,0,1,-1,1,0,0,1,68,228,9,1,,,,,,,,
,,,,,,,,,,,,,FF,,,,,,,,0.85,,,,,,,,,,,,,,,,,,,,,,5d4ca0ef259d580001cde9bb,61036ea75257ad60f1dc32ee,2021-07-29_22h16.32.739,Simcolourproject_2stim_asymm_v5,2020.2.10,Win32,60,61025ae37ef11b136ea224fe,,,,,,,,,3366,25,54,1,0,0,response1disk,,7,2,-3,1,0,0,rectangle,2,-3,1,0,0,2,-3,1,0,0,1,69,229,87,1,,,,,,,,
,,,,,,,,,,,,,FF,,,,,,,,1.583,,,,,,,,,,,,,,,,,,,,,,5d4ca0ef259d580001cde9bb,61036ea75257ad60f1dc32ee,2021-07-29_22h16.32.739,Simcolourproject_2stim_asymm_v5,2020.2.10,Win32,60,61025ae37ef11b136ea224fe,,,,,,,,,2488,-20,-59,1,0,0,response5disk,,3,0,-7,1,0,0,rectangle,0,-7,1,0,0,0,-7,1,0,0,1,70,230,142,1,,,,,,,,
,,,,,,,,,,,,,FF,,,,,,,,1.0159,,,,,,,,,,,,,,,,,,,,,,5d4ca0ef259d580001cde9bb,61036ea75257ad60f1dc32ee,2021-07-29_22h16.32.739,Simcolourproject_2stim_asymm_v5,2020.2.10,Win32,60,61025ae37ef11b136ea224fe,,,,,,,,,4274,66,-29,1,0,0,response3disk,,5,13,4,1,0,0,rectangle,13,4,1,0,0,13,4,1,0,0,1,71,231,47,1,,,,,,,,
,,,,,,,,,,,,,FF,,,,,,,,0.7508,,,,,,,,,,,,,,,,,,,,,,5d4ca0ef259d580001cde9bb,61036ea75257ad60f1dc32ee,2021-07-29_22h16.32.739,Simcolourproject_2stim_asymm_v5,2020.2.10,Win32,60,61025ae37ef11b136ea224fe,,,,,,,,,177,25,15,1,0,0,response1disk,,6,10,4,1,0,0,rectangle,10,4,1,0,0,10,4,1,0,0,1,72,232,56,1,,,,,,,,
,,,,,,,,,,,,,FF,,,,,,,,3.3884,,,,,,,,,,,,,,,,,,,,,,5d4ca0ef259d580001cde9bb,61036ea75257ad60f1dc32ee,2021-07-29_22h16.32.739,Simcolourproject_2stim_asymm_v5,2020.2.10,Win32,60,61025ae37ef11b136ea224fe,,,,,,,,,2699,32,-51,1,0,0,response3disk,,4,9,-2,1,0,0,rectangle,9,-2,1,0,0,9,-2,1,0,0,1,73,233,92,1,,,,,,,,
,,,,,,,,,,,,,FF,,,,,,,,0.9006,,,,,,,,,,,,,,,,,,,,,,5d4ca0ef259d580001cde9bb,61036ea75257ad60f1dc32ee,2021-07-29_22h16.32.739,Simcolourproject_2stim_asymm_v5,2020.2.10,Win32,60,61025ae37ef11b136ea224fe,,,,,,,,,208,64,-40,1,0,0,response3disk,,5,19,-4,1,0,0,rectangle,19,-4,1,0,0,19,-4,1,0,0,1,74,234,122,1,,,,,,,,
,,,,,,,,,,,,,FF,,,,,,,,0.8125,,,,,,,,,,,,,,,,,,,,,,5d4ca0ef259d580001cde9bb,61036ea75257ad60f1dc32ee,2021-07-29_22h16.32.739,Simcolourproject_2stim_asymm_v5,2020.2.10,Win32,60,61025ae37ef11b136ea224fe,,,,,,,,,3846,-26,-72,1,0,0,response5disk,,3,10,2,1,0,0,rectangle,10,2,1,0,0,10,2,1,0,0,1,75,235,101,1,,,,,,,,
,,,,,,,,,,,,,FF,,,,,,,,1.2165,,,,,,,,,,,,,,,,,,,,,,5d4ca0ef259d580001cde9bb,61036ea75257ad60f1dc32ee,2021-07-29_22h16.32.739,Simcolourproject_2stim_asymm_v5,2020.2.10,Win32,60,61025ae37ef11b136ea224fe,,,,,,,,,147,42,-28,1,0,0,response3disk,,5,7,-3,1,0,0,rectangle,7,-3,1,0,0,7,-3,1,0,0,1,76,236,153,1,,,,,,,,
,,,,,,,,,,,,,FF,,,,,,,,1.2496,,,,,,,,,,,,,,,,,,,,,,5d4ca0ef259d580001cde9bb,61036ea75257ad60f1dc32ee,2021-07-29_22h16.32.739,Simcolourproject_2stim_asymm_v5,2020.2.10,Win32,60,61025ae37ef11b136ea224fe,,,,,,,,,1586,-55,-34,1,0,0,response5disk,,2,2,4,1,0,0,rectangle,2,4,1,0,0,2,4,1,0,0,1,77,237,29,1,,,,,,,,
,,,,,,,,,,,,,FF,,,,,,,,0.9327,,,,,,,,,,,,,,,,,,,,,,5d4ca0ef259d580001cde9bb,61036ea75257ad60f1dc32ee,2021-07-29_22h16.32.739,Simcolourproject_2stim_asymm_v5,2020.2.10,Win32,60,61025ae37ef11b136ea224fe,,,,,,,,,2880,-23,-58,1,0,0,response5disk,,3,-1,1,1,0,0,rectangle,-1,1,1,0,0,-1,1,1,0,0,1,78,238,53,1,,,,,,,,
,,,,,,,,,,,,,FF,,,,,,,,0.9166,,,,,,,,,,,,,,,,,,,,,,5d4ca0ef259d580001cde9bb,61036ea75257ad60f1dc32ee,2021-07-29_22h16.32.739,Simcolourproject_2stim_asymm_v5,2020.2.10,Win32,60,61025ae37ef11b136ea224fe,,,,,,,,,2979,70,-25,1,0,0,response3disk,,5,18,6,1,0,0,rectangle,38,73,1,0,0,0,-5,1,0,0,1,79,239,58,1,,response1disk_3,TRUE,7,7,"[34,74,141,173,191,202,149,240,4,6,37,22,81,143,16,112,42,259,31,142]",2.4656,rectangle
,,,,,,,,,,,,,FF,,,,,,,,0.8169,,,,,,,,,,,,,,,,,,,,,,5d4ca0ef259d580001cde9bb,61036ea75257ad60f1dc32ee,2021-07-29_22h16.32.739,Simcolourproject_2stim_asymm_v5,2020.2.10,Win32,60,61025ae37ef11b136ea224fe,,,,,,,,,386,39,55,1,0,0,response1disk,,7,4,-11,1,0,0,rectangle,4,-11,1,0,0,4,-11,1,0,0,1,80,240,110,1,,,,,,,,
,,,,,,,,,,,,,FF,,,,,,,,2.4657,,,,,,,,,,,,,,,,,,,,,,5d4ca0ef259d580001cde9bb,61036ea75257ad60f1dc32ee,2021-07-29_22h16.32.739,Simcolourproject_2stim_asymm_v5,2020.2.10,Win32,60,61025ae37ef11b136ea224fe,,,,,,,,,1518,50,-36,1,0,0,response3disk,,5,4,-14,1,0,0,rectangle,4,-14,1,0,0,4,-14,1,0,0,1,81,241,141,1,,,,,,,,
,,,,,,,,,,,,,FF,,,,,,,,0.9328,,,,,,,,,,,,,,,,,,,,,,5d4ca0ef259d580001cde9bb,61036ea75257ad60f1dc32ee,2021-07-29_22h16.32.739,Simcolourproject_2stim_asymm_v5,2020.2.10,Win32,60,61025ae37ef11b136ea224fe,,,,,,,,,588,59,33,1,0,0,response1disk,,6,6,7,1,0,0,rectangle,6,7,1,0,0,6,7,1,0,0,1,82,242,100,1,,,,,,,,
,,,,,,,,,,,,,FF,,,,,,,,0.7837,,,,,,,,,,,,,,,,,,,,,,5d4ca0ef259d580001cde9bb,61036ea75257ad60f1dc32ee,2021-07-29_22h16.32.739,Simcolourproject_2stim_asymm_v5,2020.2.10,Win32,60,61025ae37ef11b136ea224fe,,,,,,,,,3287,-42,-73,1,0,0,response5disk,,3,11,-5,1,0,0,rectangle,11,-5,1,0,0,11,-5,1,0,0,1,83,243,77,1,,,,,,,,
,,,,,,,,,,,,,FF,,,,,,,,0.8997,,,,,,,,,,,,,,,,,,,,,,5d4ca0ef259d580001cde9bb,61036ea75257ad60f1dc32ee,2021-07-29_22h16.32.739,Simcolourproject_2stim_asymm_v5,2020.2.10,Win32,60,61025ae37ef11b136ea224fe,,,,,,,,,4058,-72,-29,1,0,0,response5disk,,2,2,-6,1,0,0,rectangle,2,-6,1,0,0,2,-6,1,0,0,1,84,244,85,1,,,,,,,,
,,,,,,,,,,,,,FF,,,,,,,,0.8002,,,,,,,,,,,,,,,,,,,,,,5d4ca0ef259d580001cde9bb,61036ea75257ad60f1dc32ee,2021-07-29_22h16.32.739,Simcolourproject_2stim_asymm_v5,2020.2.10,Win32,60,61025ae37ef11b136ea224fe,,,,,,,,,2910,59,79,1,0,0,response1disk,,7,10,10,1,0,0,rectangle,10,10,1,0,0,10,10,1,0,0,1,85,245,128,1,,,,,,,,
,,,,,,,,,,,,,FF,,,,,,,,0.9169,,,,,,,,,,,,,,,,,,,,,,5d4ca0ef259d580001cde9bb,61036ea75257ad60f1dc32ee,2021-07-29_22h16.32.739,Simcolourproject_2stim_asymm_v5,2020.2.10,Win32,60,61025ae37ef11b136ea224fe,,,,,,,,,1331,40,-63,1,0,0,response3disk,,4,8,3,1,0,0,rectangle,8,3,1,0,0,8,3,1,0,0,1,86,246,61,1,,,,,,,,
,,,,,,,,,,,,,FF,,,,,,,,0.7172,,,,,,,,,,,,,,,,,,,,,,5d4ca0ef259d580001cde9bb,61036ea75257ad60f1dc32ee,2021-07-29_22h16.32.739,Simcolourproject_2stim_asymm_v5,2020.2.10,Win32,60,61025ae37ef11b136ea224fe,,,,,,,,,1115,-34,-65,1,0,0,response5disk,,3,-2,-3,1,0,0,rectangle,-2,-3,1,0,0,-2,-3,1,0,0,1,87,247,83,1,,,,,,,,
,,,,,,,,,,,,,FF,,,,,,,,0.9332,,,,,,,,,,,,,,,,,,,,,,5d4ca0ef259d580001cde9bb,61036ea75257ad60f1dc32ee,2021-07-29_22h16.32.739,Simcolourproject_2stim_asymm_v5,2020.2.10,Win32,60,61025ae37ef11b136ea224fe,,,,,,,,,3159,26,-39,1,0,0,response3disk,,4,3,4,1,0,0,rectangle,3,4,1,0,0,3,4,1,0,0,1,88,248,80,1,,,,,,,,
,,,,,,,,,,,,,FF,,,,,,,,0.7842,,,,,,,,,,,,,,,,,,,,,,5d4ca0ef259d580001cde9bb,61036ea75257ad60f1dc32ee,2021-07-29_22h16.32.739,Simcolourproject_2stim_asymm_v5,2020.2.10,Win32,60,61025ae37ef11b136ea224fe,,,,,,,,,3448,37,79,1,0,0,response1disk,,7,7,-6,1,0,0,rectangle,7,-6,1,0,0,7,-6,1,0,0,1,89,249,93,1,,,,,,,,
,,,,,,,,,,,,,FF,,,,,,,,0.984,,,,,,,,,,,,,,,,,,,,,,5d4ca0ef259d580001cde9bb,61036ea75257ad60f1dc32ee,2021-07-29_22h16.32.739,Simcolourproject_2stim_asymm_v5,2020.2.10,Win32,60,61025ae37ef11b136ea224fe,,,,,,,,,1700,37,71,1,0,0,response1disk,,7,12,-3,1,0,0,rectangle,12,-3,1,0,0,12,-3,1,0,0,1,90,250,32,1,,,,,,,,
,,,,,,,,,,,,,FF,,,,,,,,0.7499,,,,,,,,,,,,,,,,,,,,,,5d4ca0ef259d580001cde9bb,61036ea75257ad60f1dc32ee,2021-07-29_22h16.32.739,Simcolourproject_2stim_asymm_v5,2020.2.10,Win32,60,61025ae37ef11b136ea224fe,,,,,,,,,1868,36,71,1,0,0,response1disk,,7,12,-14,1,0,0,rectangle,12,-14,1,0,0,12,-14,1,0,0,1,91,251,36,1,,,,,,,,
,,,,,,,,,,,,,FF,,,,,,,,1.4162,,,,,,,,,,,,,,,,,,,,,,5d4ca0ef259d580001cde9bb,61036ea75257ad60f1dc32ee,2021-07-29_22h16.32.739,Simcolourproject_2stim_asymm_v5,2020.2.10,Win32,60,61025ae37ef11b136ea224fe,,,,,,,,,4057,40,-67,1,0,0,response3disk,,4,2,0,1,0,0,rectangle,2,0,1,0,0,2,0,1,0,0,1,92,252,21,1,,,,,,,,
,,,,,,,,,,,,,FF,,,,,,,,0.7844,,,,,,,,,,,,,,,,,,,,,,5d4ca0ef259d580001cde9bb,61036ea75257ad60f1dc32ee,2021-07-29_22h16.32.739,Simcolourproject_2stim_asymm_v5,2020.2.10,Win32,60,61025ae37ef11b136ea224fe,,,,,,,,,3854,31,-42,1,0,0,response3disk,,4,5,5,1,0,0,rectangle,5,5,1,0,0,5,5,1,0,0,1,93,253,116,1,,,,,,,,
,,,,,,,,,,,,,FF,,,,,,,,1.0333,,,,,,,,,,,,,,,,,,,,,,5d4ca0ef259d580001cde9bb,61036ea75257ad60f1dc32ee,2021-07-29_22h16.32.739,Simcolourproject_2stim_asymm_v5,2020.2.10,Win32,60,61025ae37ef11b136ea224fe,,,,,,,,,578,58,25,1,0,0,response1disk,,6,11,-11,1,0,0,rectangle,11,-11,1,0,0,11,-11,1,0,0,1,94,254,155,1,,,,,,,,
,,,,,,,,,,,,,FF,,,,,,,,1.3997,,,,,,,,,,,,,,,,,,,,,,5d4ca0ef259d580001cde9bb,61036ea75257ad60f1dc32ee,2021-07-29_22h16.32.739,Simcolourproject_2stim_asymm_v5,2020.2.10,Win32,60,61025ae37ef11b136ea224fe,,,,,,,,,2042,23,-45,1,0,0,response3disk,,4,18,-7,1,0,0,rectangle,18,-7,1,0,0,18,-7,1,0,0,1,95,255,84,1,,,,,,,,
,,,,,,,,,,,,,FF,,,,,,,,0.8159,,,,,,,,,,,,,,,,,,,,,,5d4ca0ef259d580001cde9bb,61036ea75257ad60f1dc32ee,2021-07-29_22h16.32.739,Simcolourproject_2stim_asymm_v5,2020.2.10,Win32,60,61025ae37ef11b136ea224fe,,,,,,,,,2207,33,19,1,0,0,response1disk,,6,-3,-14,1,0,0,rectangle,-3,-14,1,0,0,-3,-14,1,0,0,1,96,256,24,1,,,,,,,,
,,,,,,,,,,,,,FF,,,,,,,,0.8001,,,,,,,,,,,,,,,,,,,,,,5d4ca0ef259d580001cde9bb,61036ea75257ad60f1dc32ee,2021-07-29_22h16.32.739,Simcolourproject_2stim_asymm_v5,2020.2.10,Win32,60,61025ae37ef11b136ea224fe,,,,,,,,,3995,-31,-61,1,0,0,response5disk,,3,-7,-6,1,0,0,rectangle,-7,-6,1,0,0,-7,-6,1,0,0,1,97,257,151,1,,,,,,,,
,,,,,,,,,,,,,FF,,,,,,,,0.8498,,,,,,,,,,,,,,,,,,,,,,5d4ca0ef259d580001cde9bb,61036ea75257ad60f1dc32ee,2021-07-29_22h16.32.739,Simcolourproject_2stim_asymm_v5,2020.2.10,Win32,60,61025ae37ef11b136ea224fe,,,,,,,,,3364,34,-65,1,0,0,response3disk,,4,16,8,1,0,0,rectangle,50,-33,1,0,0,5,3,1,0,0,1,98,258,76,1,,response3disk_3,TRUE,5,5,"[34,74,141,173,191,202,149,240,4,6,37,22,81,143,16,112,42,259,31,142]",1.6329,rectangle
,,,,,,,,,,,,,FF,,,,,,,,3.1828,,,,,,,,,,,,,,,,,,,,,,5d4ca0ef259d580001cde9bb,61036ea75257ad60f1dc32ee,2021-07-29_22h16.32.739,Simcolourproject_2stim_asymm_v5,2020.2.10,Win32,60,61025ae37ef11b136ea224fe,,,,,,,,,1673,-26,-85,1,0,0,response5disk,,3,14,-9,1,0,0,rectangle,14,-9,1,0,0,14,-9,1,0,0,1,99,259,126,1,,,,,,,,
,,,,,,,,,,,,,FF,,,,,,,,1.5165,,,,,,,,,,,,,,,,,,,,,,5d4ca0ef259d580001cde9bb,61036ea75257ad60f1dc32ee,2021-07-29_22h16.32.739,Simcolourproject_2stim_asymm_v5,2020.2.10,Win32,60,61025ae37ef11b136ea224fe,,,,,,,,,4362,-30,91,1,0,0,response7disk,,0,4,2,1,0,0,rectangle,4,2,1,0,0,4,2,1,0,0,1,100,260,113,1,,,,,,,,
,,,,,,,,,,,,,FF,,,,,,,,1.051,,,,,,,,,,,,,,,,,,,,,,5d4ca0ef259d580001cde9bb,61036ea75257ad60f1dc32ee,2021-07-29_22h16.32.739,Simcolourproject_2stim_asymm_v5,2020.2.10,Win32,60,61025ae37ef11b136ea224fe,,,,,,,,,1830,-76,24,1,0,0,response7disk,,1,-6,9,1,0,0,rectangle,-6,9,1,0,0,-6,9,1,0,0,1,101,261,44,1,,,,,,,,
,,,,,,,,,,,,,FF,,,,,,,,1.3495,,,,,,,,,,,,,,,,,,,,,,5d4ca0ef259d580001cde9bb,61036ea75257ad60f1dc32ee,2021-07-29_22h16.32.739,Simcolourproject_2stim_asymm_v5,2020.2.10,Win32,60,61025ae37ef11b136ea224fe,,,,,,,,,3055,-76,24,1,0,0,response7disk,,1,-9,-3,1,0,0,rectangle,-9,-3,1,0,0,-9,-3,1,0,0,1,102,262,159,1,,,,,,,,
,,,,,,,,,,,,,FF,,,,,,,,0.7995,,,,,,,,,,,,,,,,,,,,,,5d4ca0ef259d580001cde9bb,61036ea75257ad60f1dc32ee,2021-07-29_22h16.32.739,Simcolourproject_2stim_asymm_v5,2020.2.10,Win32,60,61025ae37ef11b136ea224fe,,,,,,,,,689,48,36,1,0,0,response1disk,,6,-2,-2,1,0,0,rectangle,-2,-2,1,0,0,-2,-2,1,0,0,1,103,263,89,1,,,,,,,,
,,,,,,,,,,,,,FF,,,,,,,,1.217,,,,,,,,,,,,,,,,,,,,,,5d4ca0ef259d580001cde9bb,61036ea75257ad60f1dc32ee,2021-07-29_22h16.32.739,Simcolourproject_2stim_asymm_v5,2020.2.10,Win32,60,61025ae37ef11b136ea224fe,,,,,,,,,265,-68,-45,1,0,0,response5disk,,2,5,14,1,0,0,rectangle,5,14,1,0,0,5,14,1,0,0,1,104,264,144,1,,,,,,,,
,,,,,,,,,,,,,FF,,,,,,,,0.8008,,,,,,,,,,,,,,,,,,,,,,5d4ca0ef259d580001cde9bb,61036ea75257ad60f1dc32ee,2021-07-29_22h16.32.739,Simcolourproject_2stim_asymm_v5,2020.2.10,Win32,60,61025ae37ef11b136ea224fe,,,,,,,,,2299,-69,27,1,0,0,response7disk,,1,0,5,1,0,0,rectangle,0,5,1,0,0,0,5,1,0,0,1,105,265,18,1,,,,,,,,
,,,,,,,,,,,,,FF,,,,,,,,2.0006,,,,,,,,,,,,,,,,,,,,,,5d4ca0ef259d580001cde9bb,61036ea75257ad60f1dc32ee,2021-07-29_22h16.32.739,Simcolourproject_2stim_asymm_v5,2020.2.10,Win32,60,61025ae37ef11b136ea224fe,,,,,,,,,330,69,30,1,0,0,response1disk,,6,0,3,1,0,0,rectangle,0,3,1,0,0,0,3,1,0,0,1,106,266,156,1,,,,,,,,
,,,,,,,,,,,,,FF,,,,,,,,2.4995,,,,,,,,,,,,,,,,,,,,,,5d4ca0ef259d580001cde9bb,61036ea75257ad60f1dc32ee,2021-07-29_22h16.32.739,Simcolourproject_2stim_asymm_v5,2020.2.10,Win32,60,61025ae37ef11b136ea224fe,,,,,,,,,1113,-76,-29,1,0,0,response5disk,,2,-2,0,1,0,0,rectangle,-2,0,1,0,0,-2,0,1,0,0,1,107,267,149,1,,,,,,,,
,,,,,,,,,,,,,FF,,,,,,,,0.8995,,,,,,,,,,,,,,,,,,,,,,5d4ca0ef259d580001cde9bb,61036ea75257ad60f1dc32ee,2021-07-29_22h16.32.739,Simcolourproject_2stim_asymm_v5,2020.2.10,Win32,60,61025ae37ef11b136ea224fe,,,,,,,,,3216,59,29,1,0,0,response1disk,,6,-6,10,1,0,0,rectangle,-6,10,1,0,0,-6,10,1,0,0,1,108,268,52,1,,,,,,,,
,,,,,,,,,,,,,FF,,,,,,,,1.5829,,,,,,,,,,,,,,,,,,,,,,5d4ca0ef259d580001cde9bb,61036ea75257ad60f1dc32ee,2021-07-29_22h16.32.739,Simcolourproject_2stim_asymm_v5,2020.2.10,Win32,60,61025ae37ef11b136ea224fe,,,,,,,,,2313,23,-67,1,0,0,response3disk,,4,-7,0,1,0,0,rectangle,-7,0,1,0,0,-7,0,1,0,0,1,109,269,152,1,,,,,,,,
,,,,,,,,,,,,,FF,,,,,,,,0.7338,,,,,,,,,,,,,,,,,,,,,,5d4ca0ef259d580001cde9bb,61036ea75257ad60f1dc32ee,2021-07-29_22h16.32.739,Simcolourproject_2stim_asymm_v5,2020.2.10,Win32,60,61025ae37ef11b136ea224fe,,,,,,,,,2608,-39,68,1,0,0,response7disk,,0,4,-2,1,0,0,rectangle,4,-2,1,0,0,4,-2,1,0,0,1,110,270,95,1,,,,,,,,
,,,,,,,,,,,,,FF,,,,,,,,1.6166,,,,,,,,,,,,,,,,,,,,,,5d4ca0ef259d580001cde9bb,61036ea75257ad60f1dc32ee,2021-07-29_22h16.32.739,Simcolourproject_2stim_asymm_v5,2020.2.10,Win32,60,61025ae37ef11b136ea224fe,,,,,,,,,3344,27,-69,1,0,0,response3disk,,4,-4,-8,1,0,0,rectangle,-4,-8,1,0,0,-4,-8,1,0,0,1,111,271,30,1,,,,,,,,
,,,,,,,,,,,,,FF,,,,,,,,0.9334,,,,,,,,,,,,,,,,,,,,,,5d4ca0ef259d580001cde9bb,61036ea75257ad60f1dc32ee,2021-07-29_22h16.32.739,Simcolourproject_2stim_asymm_v5,2020.2.10,Win32,60,61025ae37ef11b136ea224fe,,,,,,,,,3121,60,31,1,0,0,response1disk,,6,4,-11,1,0,0,rectangle,4,-11,1,0,0,4,-11,1,0,0,1,112,272,158,1,,,,,,,,
,,,,,,,,,,,,,FF,,,,,,,,1.7004,,,,,,,,,,,,,,,,,,,,,,5d4ca0ef259d580001cde9bb,61036ea75257ad60f1dc32ee,2021-07-29_22h16.32.739,Simcolourproject_2stim_asymm_v5,2020.2.10,Win32,60,61025ae37ef11b136ea224fe,,,,,,,,,681,60,27,1,0,0,response1disk,,6,-1,1,1,0,0,rectangle,-1,1,1,0,0,-1,1,1,0,0,1,113,273,57,1,,,,,,,,
,,,,,,,,,,,,,FF,,,,,,,,0.8652,,,,,,,,,,,,,,,,,,,,,,5d4ca0ef259d580001cde9bb,61036ea75257ad60f1dc32ee,2021-07-29_22h16.32.739,Simcolourproject_2stim_asymm_v5,2020.2.10,Win32,60,61025ae37ef11b136ea224fe,,,,,,,,,1864,33,67,1,0,0,response1disk,,7,7,2,1,0,0,rectangle,7,2,1,0,0,7,2,1,0,0,1,114,274,48,1,,,,,,,,
,,,,,,,,,,,,,FF,,,,,,,,0.8337,,,,,,,,,,,,,,,,,,,,,,5d4ca0ef259d580001cde9bb,61036ea75257ad60f1dc32ee,2021-07-29_22h16.32.739,Simcolourproject_2stim_asymm_v5,2020.2.10,Win32,60,61025ae37ef11b136ea224fe,,,,,,,,,3200,-57,-31,1,0,0,response5disk,,2,8,-4,1,0,0,rectangle,8,-4,1,0,0,8,-4,1,0,0,1,115,275,55,1,,,,,,,,
,,,,,,,,,,,,,FF,,,,,,,,2.3662,,,,,,,,,,,,,,,,,,,,,,5d4ca0ef259d580001cde9bb,61036ea75257ad60f1dc32ee,2021-07-29_22h16.32.739,Simcolourproject_2stim_asymm_v5,2020.2.10,Win32,60,61025ae37ef11b136ea224fe,,,,,,,,,3458,49,-26,1,0,0,response3disk,,5,0,-5,1,0,0,rectangle,0,-5,1,0,0,0,-5,1,0,0,1,116,276,102,1,,,,,,,,
,,,,,,,,,,,,,FF,,,,,,,,0.8167,,,,,,,,,,,,,,,,,,,,,,5d4ca0ef259d580001cde9bb,61036ea75257ad60f1dc32ee,2021-07-29_22h16.32.739,Simcolourproject_2stim_asymm_v5,2020.2.10,Win32,60,61025ae37ef11b136ea224fe,,,,,,,,,2101,-59,31,1,0,0,response7disk,,1,5,0,1,0,0,rectangle,5,0,1,0,0,5,0,1,0,0,1,117,277,2,1,,,,,,,,
,,,,,,,,,,,,,FF,,,,,,,,0.8337,,,,,,,,,,,,,,,,,,,,,,5d4ca0ef259d580001cde9bb,61036ea75257ad60f1dc32ee,2021-07-29_22h16.32.739,Simcolourproject_2stim_asymm_v5,2020.2.10,Win32,60,61025ae37ef11b136ea224fe,,,,,,,,,164,-62,29,1,0,0,response7disk,,1,27,-5,1,0,0,rectangle,27,-5,1,0,0,27,-5,1,0,0,1,118,278,127,1,,,,,,,,
,,,,,,,,,,,,,FF,,,,,,,,0.5511,,,,,,,,,,,,,,,,,,,,,,5d4ca0ef259d580001cde9bb,61036ea75257ad60f1dc32ee,2021-07-29_22h16.32.739,Simcolourproject_2stim_asymm_v5,2020.2.10,Win32,60,61025ae37ef11b136ea224fe,,,,,,,,,4166,-68,31,1,0,0,response7disk,,1,-18,3,1,0,0,rectangle,-18,3,1,0,0,-18,3,1,0,0,1,119,279,111,1,,,,,,,,
,,,,,,,,,,,,,FF,,,,,,,,1.7162,,,,,,,,,,,,,,,,,,,,,,5d4ca0ef259d580001cde9bb,61036ea75257ad60f1dc32ee,2021-07-29_22h16.32.739,Simcolourproject_2stim_asymm_v5,2020.2.10,Win32,60,61025ae37ef11b136ea224fe,,,,,,,,,2317,-34,-80,1,0,0,response5disk,,3,6,-9,1,0,0,rectangle,6,-9,1,0,0,6,-9,1,0,0,1,120,280,65,1,,,,,,,,
,,,,,,,,,,,,,FF,,,,,,,,0.9003,,,,,,,,,,,,,,,,,,,,,,5d4ca0ef259d580001cde9bb,61036ea75257ad60f1dc32ee,2021-07-29_22h16.32.739,Simcolourproject_2stim_asymm_v5,2020.2.10,Win32,60,61025ae37ef11b136ea224fe,,,,,,,,,1723,33,53,1,0,0,response1disk,,7,8,-10,1,0,0,rectangle,8,-10,1,0,0,8,-10,1,0,0,1,121,281,86,1,,,,,,,,
,,,,,,,,,,,,,FF,,,,,,,,0.9667,,,,,,,,,,,,,,,,,,,,,,5d4ca0ef259d580001cde9bb,61036ea75257ad60f1dc32ee,2021-07-29_22h16.32.739,Simcolourproject_2stim_asymm_v5,2020.2.10,Win32,60,61025ae37ef11b136ea224fe,,,,,,,,,2280,53,25,1,0,0,response1disk,,6,15,4,1,0,0,rectangle,15,4,1,0,0,15,4,1,0,0,1,122,282,34,1,,,,,,,,
,,,,,,,,,,,,,FF,,,,,,,,0.7,,,,,,,,,,,,,,,,,,,,,,5d4ca0ef259d580001cde9bb,61036ea75257ad60f1dc32ee,2021-07-29_22h16.32.739,Simcolourproject_2stim_asymm_v5,2020.2.10,Win32,60,61025ae37ef11b136ea224fe,,,,,,,,,3705,-39,64,1,0,0,response7disk,,0,-7,4,1,0,0,rectangle,-7,4,1,0,0,-7,4,1,0,0,1,123,283,74,1,,,,,,,,
,,,,,,,,,,,,,FF,,,,,,,,1.9327,,,,,,,,,,,,,,,,,,,,,,5d4ca0ef259d580001cde9bb,61036ea75257ad60f1dc32ee,2021-07-29_22h16.32.739,Simcolourproject_2stim_asymm_v5,2020.2.10,Win32,60,61025ae37ef11b136ea224fe,,,,,,,,,2717,35,-44,1,0,0,response3disk,,4,10,-14,1,0,0,rectangle,10,-14,1,0,0,10,-14,1,0,0,1,124,284,121,1,,,,,,,,
,,,,,,,,,,,,,FF,,,,,,,,0.7168,,,,,,,,,,,,,,,,,,,,,,5d4ca0ef259d580001cde9bb,61036ea75257ad60f1dc32ee,2021-07-29_22h16.32.739,Simcolourproject_2stim_asymm_v5,2020.2.10,Win32,60,61025ae37ef11b136ea224fe,,,,,,,,,3418,36,-63,1,0,0,response3disk,,4,2,0,1,0,0,rectangle,2,0,1,0,0,2,0,1,0,0,1,125,285,22,1,,,,,,,,
,,,,,,,,,,,,,FF,,,,,,,,0.9161,,,,,,,,,,,,,,,,,,,,,,5d4ca0ef259d580001cde9bb,61036ea75257ad60f1dc32ee,2021-07-29_22h16.32.739,Simcolourproject_2stim_asymm_v5,2020.2.10,Win32,60,61025ae37ef11b136ea224fe,,,,,,,,,936,47,-59,1,0,0,response3disk,,4,5,-7,1,0,0,rectangle,5,-7,1,0,0,5,-7,1,0,0,1,126,286,118,1,,,,,,,,
,,,,,,,,,,,,,FF,,,,,,,,1.0162,,,,,,,,,,,,,,,,,,,,,,5d4ca0ef259d580001cde9bb,61036ea75257ad60f1dc32ee,2021-07-29_22h16.32.739,Simcolourproject_2stim_asymm_v5,2020.2.10,Win32,60,61025ae37ef11b136ea224fe,,,,,,,,,2038,-72,-41,1,0,0,response5disk,,2,-9,10,1,0,0,rectangle,-9,10,1,0,0,-9,10,1,0,0,1,127,287,143,1,,,,,,,,
,,,,,,,,,,,,,FF,,,,,,,,1.6497,,,,,,,,,,,,,,,,,,,,,,5d4ca0ef259d580001cde9bb,61036ea75257ad60f1dc32ee,2021-07-29_22h16.32.739,Simcolourproject_2stim_asymm_v5,2020.2.10,Win32,60,61025ae37ef11b136ea224fe,,,,,,,,,2456,62,-40,1,0,0,response3disk,,5,32,-9,1,0,0,rectangle,32,-9,1,0,0,32,-9,1,0,0,1,128,288,97,1,,,,,,,,
,,,,,,,,,,,,,FF,,,,,,,,1.2837,,,,,,,,,,,,,,,,,,,,,,5d4ca0ef259d580001cde9bb,61036ea75257ad60f1dc32ee,2021-07-29_22h16.32.739,Simcolourproject_2stim_asymm_v5,2020.2.10,Win32,60,61025ae37ef11b136ea224fe,,,,,,,,,2505,73,-35,1,0,0,response3disk,,5,13,9,1,0,0,rectangle,13,9,1,0,0,13,9,1,0,0,1,129,289,114,1,,,,,,,,
,,,,,,,,,,,,,FF,,,,,,,,1.0003,,,,,,,,,,,,,,,,,,,,,,5d4ca0ef259d580001cde9bb,61036ea75257ad60f1dc32ee,2021-07-29_22h16.32.739,Simcolourproject_2stim_asymm_v5,2020.2.10,Win32,60,61025ae37ef11b136ea224fe,,,,,,,,,3405,57,37,1,0,0,response1disk,,6,4,14,1,0,0,rectangle,4,14,1,0,0,4,14,1,0,0,1,130,290,39,1,,,,,,,,
,,,,,,,,,,,,,FF,,,,,,,,1.4996,,,,,,,,,,,,,,,,,,,,,,5d4ca0ef259d580001cde9bb,61036ea75257ad60f1dc32ee,2021-07-29_22h16.32.739,Simcolourproject_2stim_asymm_v5,2020.2.10,Win32,60,61025ae37ef11b136ea224fe,,,,,,,,,2631,42,59,1,0,0,response1disk,,7,3,-3,1,0,0,rectangle,3,-3,1,0,0,3,-3,1,0,0,1,131,291,23,1,,,,,,,,
,,,,,,,,,,,,,FF,,,,,,,,1.9504,,,,,,,,,,,,,,,,,,,,,,5d4ca0ef259d580001cde9bb,61036ea75257ad60f1dc32ee,2021-07-29_22h16.32.739,Simcolourproject_2stim_asymm_v5,2020.2.10,Win32,60,61025ae37ef11b136ea224fe,,,,,,,,,1692,32,-72,1,0,0,response3disk,,4,-2,-3,1,0,0,rectangle,-2,-3,1,0,0,-2,-3,1,0,0,1,132,292,43,1,,,,,,,,
,,,,,,,,,,,,,FF,,,,,,,,1.1999,,,,,,,,,,,,,,,,,,,,,,5d4ca0ef259d580001cde9bb,61036ea75257ad60f1dc32ee,2021-07-29_22h16.32.739,Simcolourproject_2stim_asymm_v5,2020.2.10,Win32,60,61025ae37ef11b136ea224fe,,,,,,,,,1103,55,-23,1,0,0,response3disk,,5,1,1,1,0,0,rectangle,1,1,1,0,0,1,1,1,0,0,1,133,293,27,1,,,,,,,,
,,,,,,,,,,,,,FF,,,,,,,,0.8999,,,,,,,,,,,,,,,,,,,,,,5d4ca0ef259d580001cde9bb,61036ea75257ad60f1dc32ee,2021-07-29_22h16.32.739,Simcolourproject_2stim_asymm_v5,2020.2.10,Win32,60,61025ae37ef11b136ea224fe,,,,,,,,,626,64,27,1,0,0,response1disk,,6,5,2,1,0,0,rectangle,5,2,1,0,0,5,2,1,0,0,1,134,294,134,1,,,,,,,,
,,,,,,,,,,,,,FF,,,,,,,,1.6501,,,,,,,,,,,,,,,,,,,,,,5d4ca0ef259d580001cde9bb,61036ea75257ad60f1dc32ee,2021-07-29_22h16.32.739,Simcolourproject_2stim_asymm_v5,2020.2.10,Win32,60,61025ae37ef11b136ea224fe,,,,,,,,,1294,-79,-39,1,0,0,response5disk,,2,-7,3,1,0,0,rectangle,-7,3,1,0,0,-7,3,1,0,0,1,135,295,4,1,,,,,,,,
,,,,,,,,,,,,,FF,,,,,,,,0.8834,,,,,,,,,,,,,,,,,,,,,,5d4ca0ef259d580001cde9bb,61036ea75257ad60f1dc32ee,2021-07-29_22h16.32.739,Simcolourproject_2stim_asymm_v5,2020.2.10,Win32,60,61025ae37ef11b136ea224fe,,,,,,,,,3900,-75,31,1,0,0,response7disk,,1,-2,12,1,0,0,rectangle,-2,12,1,0,0,-2,12,1,0,0,1,136,296,105,1,,,,,,,,
,,,,,,,,,,,,,FF,,,,,,,,0.9834,,,,,,,,,,,,,,,,,,,,,,5d4ca0ef259d580001cde9bb,61036ea75257ad60f1dc32ee,2021-07-29_22h16.32.739,Simcolourproject_2stim_asymm_v5,2020.2.10,Win32,60,61025ae37ef11b136ea224fe,,,,,,,,,948,-24,-57,1,0,0,response5disk,,3,4,6,1,0,0,rectangle,4,6,1,0,0,4,6,1,0,0,1,137,297,129,1,,,,,,,,
,,,,,,,,,,,,,FF,,,,,,,,1.0996,,,,,,,,,,,,,,,,,,,,,,5d4ca0ef259d580001cde9bb,61036ea75257ad60f1dc32ee,2021-07-29_22h16.32.739,Simcolourproject_2stim_asymm_v5,2020.2.10,Win32,60,61025ae37ef11b136ea224fe,,,,,,,,,3554,-31,-74,1,0,0,response5disk,,3,-4,10,1,0,0,rectangle,-4,10,1,0,0,-4,10,1,0,0,1,138,298,131,1,,,,,,,,
,,,,,,,,,,,,,FF,,,,,,,,0.8026,,,,,,,,,,,,,,,,,,,,,,5d4ca0ef259d580001cde9bb,61036ea75257ad60f1dc32ee,2021-07-29_22h16.32.739,Simcolourproject_2stim_asymm_v5,2020.2.10,Win32,60,61025ae37ef11b136ea224fe,,,,,,,,,1705,-71,-35,1,0,0,response5disk,,2,-7,0,1,0,0,rectangle,-7,0,1,0,0,-7,0,1,0,0,1,139,299,150,1,,,,,,,,
,,,,,,,,,,,,,FF,,,,,,,,0.9166,,,,,,,,,,,,,,,,,,,,,,5d4ca0ef259d580001cde9bb,61036ea75257ad60f1dc32ee,2021-07-29_22h16.32.739,Simcolourproject_2stim_asymm_v5,2020.2.10,Win32,60,61025ae37ef11b136ea224fe,,,,,,,,,1461,-69,-21,1,0,0,response5disk,,2,-6,5,1,0,0,rectangle,-6,5,1,0,0,-6,5,1,0,0,1,140,300,5,1,,,,,,,,
,,,,,,,,,,,,,FF,,,,,,,,1.3832,,,,,,,,,,,,,,,,,,,,,,5d4ca0ef259d580001cde9bb,61036ea75257ad60f1dc32ee,2021-07-29_22h16.32.739,Simcolourproject_2stim_asymm_v5,2020.2.10,Win32,60,61025ae37ef11b136ea224fe,,,,,,,,,3238,-28,-76,1,0,0,response5disk,,3,12,3,1,0,0,rectangle,12,3,1,0,0,12,3,1,0,0,1,141,301,120,1,,,,,,,,
,,,,,,,,,,,,,FF,,,,,,,,0.9172,,,,,,,,,,,,,,,,,,,,,,5d4ca0ef259d580001cde9bb,61036ea75257ad60f1dc32ee,2021-07-29_22h16.32.739,Simcolourproject_2stim_asymm_v5,2020.2.10,Win32,60,61025ae37ef11b136ea224fe,,,,,,,,,4157,52,-62,1,0,0,response3disk,,4,17,2,1,0,0,rectangle,17,2,1,0,0,17,2,1,0,0,1,142,302,16,1,,,,,,,,
