key_resp.keys,key_resp.rt,key_resp_14.keys,key_resp_14.rt,key_resp_15.keys,key_resp_15.rt,key_resp_17.keys,key_resp_17.rt,key_resp_9.keys,key_resp_9.rt,key_resp_10.keys,key_resp_10.rt,practice_comparison,Ecc,mouse_5.x,mouse_5.y,mouse_5.leftButton,mouse_5.midButton,mouse_5.rightButton,mouse_5.clicked_name,pracsimilarity,response_time,mouse_10.x,mouse_10.y,mouse_10.leftButton,mouse_10.midButton,mouse_10.rightButton,mouse_10.clicked_name,mouse_7.x,mouse_7.y,mouse_7.leftButton,mouse_7.midButton,mouse_7.rightButton,mouse_6.x,mouse_6.y,mouse_6.leftButton,mouse_6.midButton,mouse_6.rightButton,duringprac.thisRepN,duringprac.thisTrialN,duringprac.thisN,duringprac.thisIndex,duringprac.ran,participant,session,date,expName,psychopyVersion,OS,frameRate,study_id,mouse_7.clicked_name,catchpracsimilarity,catch_response_time,catchnumberprac,catchtrialorderprac,mouse_6.clicked_name,key_resp_22.keys,key_resp_22.rt,realcomparison,mouse.x,mouse.y,mouse.leftButton,mouse.midButton,mouse.rightButton,mouse.clicked_name,Colour2,similarity,mouse_2.x,mouse_2.y,mouse_2.leftButton,mouse_2.midButton,mouse_2.rightButton,mouse_2.clicked_name,mouse_3.x,mouse_3.y,mouse_3.leftButton,mouse_3.midButton,mouse_3.rightButton,mouse_11.x,mouse_11.y,mouse_11.leftButton,mouse_11.midButton,mouse_11.rightButton,trials_2.thisRepN,trials_2.thisTrialN,trials_2.thisN,trials_2.thisIndex,trials_2.ran,Colour1,mouse_3.clicked_name,catchornah,catchsimilarity,catchnumber,catchtrialorder,catchRT,mouse_11.clicked_name
space,1.63,space,21.4603,space,33.1196,space,6.9139,space,11.0822,space,6.1424,64,PF,74,-38,1,0,0,response3disk_5,5,5.1656,-9,-1,1,0,0,rectangle_8,-9,-1,1,0,0,-9,-1,1,0,0,0,0,0,2,1,5d8d5938657c76001d72805c,61036a68d26b3edfe4dfec3f,2021-07-29_20h59.29.607,Simcolourproject_2stim_asymm_v5,2020.2.10,Win32,60,61025ae37ef11b136ea224fe,,,,,,,,,,,,,,,,,,,,,,,,,,,,,,,,,,,,,,,,,,,,,,
,,,,,,,,,,,,147,FF,60,-31,1,0,0,response3disk_5,5,2.4659,-3,-2,1,0,0,rectangle_8,27,76,1,0,0,3,-11,1,0,0,0,1,1,0,1,5d8d5938657c76001d72805c,61036a68d26b3edfe4dfec3f,2021-07-29_20h59.29.607,Simcolourproject_2stim_asymm_v5,2020.2.10,Win32,60,61025ae37ef11b136ea224fe,response1disk_7,7,2.5002,7,"[2,5]",rectangle_4,,,,,,,,,,,,,,,,,,,,,,,,,,,,,,,,,,,,,,,,
,,,,,,,,,,,,101,FF,50,-33,1,0,0,response3disk_5,5,2.9492,-7,-5,1,0,0,rectangle_8,-7,-5,1,0,0,-7,-5,1,0,0,0,2,2,3,1,5d8d5938657c76001d72805c,61036a68d26b3edfe4dfec3f,2021-07-29_20h59.29.607,Simcolourproject_2stim_asymm_v5,2020.2.10,Win32,60,61025ae37ef11b136ea224fe,,,,,,,,,,,,,,,,,,,,,,,,,,,,,,,,,,,,,,,,,,,,,,
,,,,,,,,,,,,113,FF,40,73,1,0,0,response1disk_5,7,2.5159,0,1,1,0,0,rectangle_8,0,1,1,0,0,0,1,1,0,0,0,3,3,5,1,5d8d5938657c76001d72805c,61036a68d26b3edfe4dfec3f,2021-07-29_20h59.29.607,Simcolourproject_2stim_asymm_v5,2020.2.10,Win32,60,61025ae37ef11b136ea224fe,,,,,,,,,,,,,,,,,,,,,,,,,,,,,,,,,,,,,,,,,,,,,,
,,,,,,,,,,,,93,PF,-33,-48,1,0,0,response5disk_5,3,3.4156,-1,-5,1,0,0,rectangle_8,27,103,1,0,0,-6,-5,1,0,0,0,4,4,1,1,5d8d5938657c76001d72805c,61036a68d26b3edfe4dfec3f,2021-07-29_20h59.29.607,Simcolourproject_2stim_asymm_v5,2020.2.10,Win32,60,61025ae37ef11b136ea224fe,response1disk_7,7,1.3495,7,"[2,5]",rectangle_4,,,,,,,,,,,,,,,,,,,,,,,,,,,,,,,,,,,,,,,,
,,,,,,,,,,,,79,PF,52,-67,1,0,0,response3disk_5,4,6.0816,-4,-6,1,0,0,rectangle_8,-4,-6,1,0,0,-4,-6,1,0,0,0,5,5,6,1,5d8d5938657c76001d72805c,61036a68d26b3edfe4dfec3f,2021-07-29_20h59.29.607,Simcolourproject_2stim_asymm_v5,2020.2.10,Win32,60,61025ae37ef11b136ea224fe,,,,,,,,,,,,,,,,,,,,,,,,,,,,,,,,,,,,,,,,,,,,,,
,,,,,,,,,,,,108,PF,45,-81,1,0,0,response3disk_5,4,2.6161,0,-3,1,0,0,rectangle_8,0,-3,1,0,0,0,-3,1,0,0,0,6,6,4,1,5d8d5938657c76001d72805c,61036a68d26b3edfe4dfec3f,2021-07-29_20h59.29.607,Simcolourproject_2stim_asymm_v5,2020.2.10,Win32,60,61025ae37ef11b136ea224fe,,,,,,,,,,,,,,,,,,,,,,,,,,,,,,,,,,,,,,,,,,,,,,
,,,,,,,,,,,,,FF,,,,,,,,2.6159,,,,,,,,,,,,,,,,,,,,,,5d8d5938657c76001d72805c,61036a68d26b3edfe4dfec3f,2021-07-29_20h59.29.607,Simcolourproject_2stim_asymm_v5,2020.2.10,Win32,60,61025ae37ef11b136ea224fe,,,,,,,space,2.7075,1532,42,-70,1,0,0,response3disk,,4,0,-1,1,0,0,rectangle,0,-1,1,0,0,0,-1,1,0,0,0,0,0,16,1,,,,,,,,
,,,,,,,,,,,,,FF,,,,,,,,1.9661,,,,,,,,,,,,,,,,,,,,,,5d8d5938657c76001d72805c,61036a68d26b3edfe4dfec3f,2021-07-29_20h59.29.607,Simcolourproject_2stim_asymm_v5,2020.2.10,Win32,60,61025ae37ef11b136ea224fe,,,,,,,,,404,89,27,1,0,0,response1disk,,6,-3,-2,1,0,0,rectangle,-3,-2,1,0,0,-3,-2,1,0,0,0,1,1,99,1,,,,,,,,
,,,,,,,,,,,,,FF,,,,,,,,1.0497,,,,,,,,,,,,,,,,,,,,,,5d8d5938657c76001d72805c,61036a68d26b3edfe4dfec3f,2021-07-29_20h59.29.607,Simcolourproject_2stim_asymm_v5,2020.2.10,Win32,60,61025ae37ef11b136ea224fe,,,,,,,,,112,75,37,1,0,0,response1disk,,6,-2,0,1,0,0,rectangle,-2,0,1,0,0,-2,0,1,0,0,0,2,2,41,1,,,,,,,,
,,,,,,,,,,,,,FF,,,,,,,,3.0991,,,,,,,,,,,,,,,,,,,,,,5d8d5938657c76001d72805c,61036a68d26b3edfe4dfec3f,2021-07-29_20h59.29.607,Simcolourproject_2stim_asymm_v5,2020.2.10,Win32,60,61025ae37ef11b136ea224fe,,,,,,,,,1492,64,37,1,0,0,response1disk,,6,-1,-1,1,0,0,rectangle,-1,-1,1,0,0,-1,-1,1,0,0,0,3,3,3,1,,,,,,,,
,,,,,,,,,,,,,FF,,,,,,,,1.8659,,,,,,,,,,,,,,,,,,,,,,5d8d5938657c76001d72805c,61036a68d26b3edfe4dfec3f,2021-07-29_20h59.29.607,Simcolourproject_2stim_asymm_v5,2020.2.10,Win32,60,61025ae37ef11b136ea224fe,,,,,,,,,2803,79,43,1,0,0,response1disk,,6,0,0,1,0,0,rectangle,0,0,1,0,0,0,0,1,0,0,0,4,4,46,1,,,,,,,,
,,,,,,,,,,,,,FF,,,,,,,,1.3663,,,,,,,,,,,,,,,,,,,,,,5d8d5938657c76001d72805c,61036a68d26b3edfe4dfec3f,2021-07-29_20h59.29.607,Simcolourproject_2stim_asymm_v5,2020.2.10,Win32,60,61025ae37ef11b136ea224fe,,,,,,,,,2426,-36,-70,1,0,0,response5disk,,3,3,-4,1,0,0,rectangle,3,-4,1,0,0,3,-4,1,0,0,0,5,5,18,1,,,,,,,,
,,,,,,,,,,,,,FF,,,,,,,,1.2496,,,,,,,,,,,,,,,,,,,,,,5d8d5938657c76001d72805c,61036a68d26b3edfe4dfec3f,2021-07-29_20h59.29.607,Simcolourproject_2stim_asymm_v5,2020.2.10,Win32,60,61025ae37ef11b136ea224fe,,,,,,,,,3422,-42,-78,1,0,0,response5disk,,3,3,-5,1,0,0,rectangle,3,-5,1,0,0,3,-5,1,0,0,0,6,6,53,1,,,,,,,,
,,,,,,,,,,,,,FF,,,,,,,,0.7665,,,,,,,,,,,,,,,,,,,,,,5d8d5938657c76001d72805c,61036a68d26b3edfe4dfec3f,2021-07-29_20h59.29.607,Simcolourproject_2stim_asymm_v5,2020.2.10,Win32,60,61025ae37ef11b136ea224fe,,,,,,,,,2131,67,39,1,0,0,response1disk,,6,0,0,1,0,0,rectangle,-47,-81,1,0,0,1,-1,1,0,0,0,7,7,120,1,,response5disk_3,TRUE,3,3,"[110,118,188,320,321,139,281,228,64,174,41,78,252,195,18,147,8,159,58,144]",2.0163,rectangle
,,,,,,,,,,,,,FF,,,,,,,,2.7659,,,,,,,,,,,,,,,,,,,,,,5d8d5938657c76001d72805c,61036a68d26b3edfe4dfec3f,2021-07-29_20h59.29.607,Simcolourproject_2stim_asymm_v5,2020.2.10,Win32,60,61025ae37ef11b136ea224fe,,,,,,,,,2143,67,-33,1,0,0,response3disk,,5,-1,1,1,0,0,rectangle,-1,1,1,0,0,-1,1,1,0,0,0,8,8,19,1,,,,,,,,
,,,,,,,,,,,,,FF,,,,,,,,1.0665,,,,,,,,,,,,,,,,,,,,,,5d8d5938657c76001d72805c,61036a68d26b3edfe4dfec3f,2021-07-29_20h59.29.607,Simcolourproject_2stim_asymm_v5,2020.2.10,Win32,60,61025ae37ef11b136ea224fe,,,,,,,,,50,78,-38,1,0,0,response3disk,,5,3,-3,1,0,0,rectangle,3,-3,1,0,0,3,-3,1,0,0,0,9,9,89,1,,,,,,,,
,,,,,,,,,,,,,FF,,,,,,,,2.4328,,,,,,,,,,,,,,,,,,,,,,5d8d5938657c76001d72805c,61036a68d26b3edfe4dfec3f,2021-07-29_20h59.29.607,Simcolourproject_2stim_asymm_v5,2020.2.10,Win32,60,61025ae37ef11b136ea224fe,,,,,,,,,418,72,-39,1,0,0,response3disk,,5,5,-2,1,0,0,rectangle,5,-2,1,0,0,5,-2,1,0,0,0,10,10,105,1,,,,,,,,
,,,,,,,,,,,,,FF,,,,,,,,1.6329,,,,,,,,,,,,,,,,,,,,,,5d8d5938657c76001d72805c,61036a68d26b3edfe4dfec3f,2021-07-29_20h59.29.607,Simcolourproject_2stim_asymm_v5,2020.2.10,Win32,60,61025ae37ef11b136ea224fe,,,,,,,,,198,33,-86,1,0,0,response3disk,,4,-2,-2,1,0,0,rectangle,-2,-2,1,0,0,-2,-2,1,0,0,0,11,11,67,1,,,,,,,,
,,,,,,,,,,,,,FF,,,,,,,,4.5154,,,,,,,,,,,,,,,,,,,,,,5d8d5938657c76001d72805c,61036a68d26b3edfe4dfec3f,2021-07-29_20h59.29.607,Simcolourproject_2stim_asymm_v5,2020.2.10,Win32,60,61025ae37ef11b136ea224fe,,,,,,,,,2713,38,-59,1,0,0,response3disk,,4,0,-5,1,0,0,rectangle,0,-5,1,0,0,0,-5,1,0,0,0,12,12,86,1,,,,,,,,
,,,,,,,,,,,,,FF,,,,,,,,0.9997,,,,,,,,,,,,,,,,,,,,,,5d8d5938657c76001d72805c,61036a68d26b3edfe4dfec3f,2021-07-29_20h59.29.607,Simcolourproject_2stim_asymm_v5,2020.2.10,Win32,60,61025ae37ef11b136ea224fe,,,,,,,,,3118,88,-30,1,0,0,response3disk,,5,2,-6,1,0,0,rectangle,2,-6,1,0,0,2,-6,1,0,0,0,13,13,63,1,,,,,,,,
,,,,,,,,,,,,,FF,,,,,,,,0.7498,,,,,,,,,,,,,,,,,,,,,,5d8d5938657c76001d72805c,61036a68d26b3edfe4dfec3f,2021-07-29_20h59.29.607,Simcolourproject_2stim_asymm_v5,2020.2.10,Win32,60,61025ae37ef11b136ea224fe,,,,,,,,,3833,77,-30,1,0,0,response3disk,,5,5,-1,1,0,0,rectangle,5,-1,1,0,0,5,-1,1,0,0,0,14,14,48,1,,,,,,,,
,,,,,,,,,,,,,FF,,,,,,,,0.7163,,,,,,,,,,,,,,,,,,,,,,5d8d5938657c76001d72805c,61036a68d26b3edfe4dfec3f,2021-07-29_20h59.29.607,Simcolourproject_2stim_asymm_v5,2020.2.10,Win32,60,61025ae37ef11b136ea224fe,,,,,,,,,2796,70,-34,1,0,0,response3disk,,5,-1,2,1,0,0,rectangle,-1,2,1,0,0,-1,2,1,0,0,0,15,15,98,1,,,,,,,,
,,,,,,,,,,,,,FF,,,,,,,,0.6332,,,,,,,,,,,,,,,,,,,,,,5d8d5938657c76001d72805c,61036a68d26b3edfe4dfec3f,2021-07-29_20h59.29.607,Simcolourproject_2stim_asymm_v5,2020.2.10,Win32,60,61025ae37ef11b136ea224fe,,,,,,,,,3820,80,-39,1,0,0,response3disk,,5,-3,2,1,0,0,rectangle,-3,2,1,0,0,-3,2,1,0,0,0,16,16,20,1,,,,,,,,
,,,,,,,,,,,,,FF,,,,,,,,2.2161,,,,,,,,,,,,,,,,,,,,,,5d8d5938657c76001d72805c,61036a68d26b3edfe4dfec3f,2021-07-29_20h59.29.607,Simcolourproject_2stim_asymm_v5,2020.2.10,Win32,60,61025ae37ef11b136ea224fe,,,,,,,,,2635,89,37,1,0,0,response1disk,,6,2,0,1,0,0,rectangle,-87,40,1,0,0,-1,3,1,0,0,0,17,17,43,1,,response7disk_3,TRUE,1,1,"[110,118,188,320,321,139,281,228,64,174,41,78,252,195,18,147,8,159,58,144]",1.366,rectangle
,,,,,,,,,,,,,FF,,,,,,,,2.0159,,,,,,,,,,,,,,,,,,,,,,5d8d5938657c76001d72805c,61036a68d26b3edfe4dfec3f,2021-07-29_20h59.29.607,Simcolourproject_2stim_asymm_v5,2020.2.10,Win32,60,61025ae37ef11b136ea224fe,,,,,,,,,2534,38,-77,1,0,0,response3disk,,4,-11,6,1,0,0,rectangle,-11,6,1,0,0,-11,6,1,0,0,0,18,18,17,1,,,,,,,,
,,,,,,,,,,,,,FF,,,,,,,,1.4829,,,,,,,,,,,,,,,,,,,,,,5d8d5938657c76001d72805c,61036a68d26b3edfe4dfec3f,2021-07-29_20h59.29.607,Simcolourproject_2stim_asymm_v5,2020.2.10,Win32,60,61025ae37ef11b136ea224fe,,,,,,,,,1360,85,-39,1,0,0,response3disk,,5,14,5,1,0,0,rectangle,14,5,1,0,0,14,5,1,0,0,0,19,19,72,1,,,,,,,,
,,,,,,,,,,,,,FF,,,,,,,,1.1828,,,,,,,,,,,,,,,,,,,,,,5d8d5938657c76001d72805c,61036a68d26b3edfe4dfec3f,2021-07-29_20h59.29.607,Simcolourproject_2stim_asymm_v5,2020.2.10,Win32,60,61025ae37ef11b136ea224fe,,,,,,,,,1597,-35,79,1,0,0,response7disk,,0,3,-4,1,0,0,rectangle,3,-4,1,0,0,3,-4,1,0,0,0,20,20,24,1,,,,,,,,
,,,,,,,,,,,,,FF,,,,,,,,2.3995,,,,,,,,,,,,,,,,,,,,,,5d8d5938657c76001d72805c,61036a68d26b3edfe4dfec3f,2021-07-29_20h59.29.607,Simcolourproject_2stim_asymm_v5,2020.2.10,Win32,60,61025ae37ef11b136ea224fe,,,,,,,,,207,-29,-86,1,0,0,response5disk,,3,-4,9,1,0,0,rectangle,-4,9,1,0,0,-4,9,1,0,0,0,21,21,159,1,,,,,,,,
,,,,,,,,,,,,,FF,,,,,,,,6.648,,,,,,,,,,,,,,,,,,,,,,5d8d5938657c76001d72805c,61036a68d26b3edfe4dfec3f,2021-07-29_20h59.29.607,Simcolourproject_2stim_asymm_v5,2020.2.10,Win32,60,61025ae37ef11b136ea224fe,,,,,,,,,3838,71,28,1,0,0,response1disk,,6,1,-5,1,0,0,rectangle,1,-5,1,0,0,1,-5,1,0,0,0,22,22,0,1,,,,,,,,
,,,,,,,,,,,,,FF,,,,,,,,2.3659,,,,,,,,,,,,,,,,,,,,,,5d8d5938657c76001d72805c,61036a68d26b3edfe4dfec3f,2021-07-29_20h59.29.607,Simcolourproject_2stim_asymm_v5,2020.2.10,Win32,60,61025ae37ef11b136ea224fe,,,,,,,,,2070,78,28,1,0,0,response1disk,,6,-1,-1,1,0,0,rectangle,-1,-1,1,0,0,-1,-1,1,0,0,0,23,23,39,1,,,,,,,,
,,,,,,,,,,,,,FF,,,,,,,,1.1675,,,,,,,,,,,,,,,,,,,,,,5d8d5938657c76001d72805c,61036a68d26b3edfe4dfec3f,2021-07-29_20h59.29.607,Simcolourproject_2stim_asymm_v5,2020.2.10,Win32,60,61025ae37ef11b136ea224fe,,,,,,,,,2439,63,32,1,0,0,response1disk,,6,5,1,1,0,0,rectangle,5,1,1,0,0,5,1,1,0,0,0,24,24,15,1,,,,,,,,
,,,,,,,,,,,,,FF,,,,,,,,0.9664,,,,,,,,,,,,,,,,,,,,,,5d8d5938657c76001d72805c,61036a68d26b3edfe4dfec3f,2021-07-29_20h59.29.607,Simcolourproject_2stim_asymm_v5,2020.2.10,Win32,60,61025ae37ef11b136ea224fe,,,,,,,,,1518,70,-47,1,0,0,response3disk,,5,-1,-1,1,0,0,rectangle,-1,-1,1,0,0,-1,-1,1,0,0,0,25,25,6,1,,,,,,,,
,,,,,,,,,,,,,FF,,,,,,,,0.7667,,,,,,,,,,,,,,,,,,,,,,5d8d5938657c76001d72805c,61036a68d26b3edfe4dfec3f,2021-07-29_20h59.29.607,Simcolourproject_2stim_asymm_v5,2020.2.10,Win32,60,61025ae37ef11b136ea224fe,,,,,,,,,1094,69,-28,1,0,0,response3disk,,5,0,-4,1,0,0,rectangle,0,-4,1,0,0,0,-4,1,0,0,0,26,26,134,1,,,,,,,,
,,,,,,,,,,,,,FF,,,,,,,,0.8998,,,,,,,,,,,,,,,,,,,,,,5d8d5938657c76001d72805c,61036a68d26b3edfe4dfec3f,2021-07-29_20h59.29.607,Simcolourproject_2stim_asymm_v5,2020.2.10,Win32,60,61025ae37ef11b136ea224fe,,,,,,,,,1936,77,37,1,0,0,response1disk,,6,-2,-2,1,0,0,rectangle,-2,-2,1,0,0,-2,-2,1,0,0,0,27,27,80,1,,,,,,,,
,,,,,,,,,,,,,FF,,,,,,,,0.9498,,,,,,,,,,,,,,,,,,,,,,5d8d5938657c76001d72805c,61036a68d26b3edfe4dfec3f,2021-07-29_20h59.29.607,Simcolourproject_2stim_asymm_v5,2020.2.10,Win32,60,61025ae37ef11b136ea224fe,,,,,,,,,4202,63,-41,1,0,0,response3disk,,5,-5,-1,1,0,0,rectangle,-5,-1,1,0,0,-5,-1,1,0,0,0,28,28,73,1,,,,,,,,
,,,,,,,,,,,,,FF,,,,,,,,1.1832,,,,,,,,,,,,,,,,,,,,,,5d8d5938657c76001d72805c,61036a68d26b3edfe4dfec3f,2021-07-29_20h59.29.607,Simcolourproject_2stim_asymm_v5,2020.2.10,Win32,60,61025ae37ef11b136ea224fe,,,,,,,,,2618,89,29,1,0,0,response1disk,,6,-2,-1,1,0,0,rectangle,-2,-1,1,0,0,-2,-1,1,0,0,0,29,29,95,1,,,,,,,,
,,,,,,,,,,,,,FF,,,,,,,,1.0333,,,,,,,,,,,,,,,,,,,,,,5d8d5938657c76001d72805c,61036a68d26b3edfe4dfec3f,2021-07-29_20h59.29.607,Simcolourproject_2stim_asymm_v5,2020.2.10,Win32,60,61025ae37ef11b136ea224fe,,,,,,,,,2553,86,-33,1,0,0,response3disk,,5,6,-4,1,0,0,rectangle,6,-4,1,0,0,6,-4,1,0,0,0,30,30,76,1,,,,,,,,
,,,,,,,,,,,,,FF,,,,,,,,1.0664,,,,,,,,,,,,,,,,,,,,,,5d8d5938657c76001d72805c,61036a68d26b3edfe4dfec3f,2021-07-29_20h59.29.607,Simcolourproject_2stim_asymm_v5,2020.2.10,Win32,60,61025ae37ef11b136ea224fe,,,,,,,,,2170,42,-84,1,0,0,response3disk,,4,4,-6,1,0,0,rectangle,4,-6,1,0,0,4,-6,1,0,0,0,31,31,131,1,,,,,,,,
,,,,,,,,,,,,,FF,,,,,,,,2.1993,,,,,,,,,,,,,,,,,,,,,,5d8d5938657c76001d72805c,61036a68d26b3edfe4dfec3f,2021-07-29_20h59.29.607,Simcolourproject_2stim_asymm_v5,2020.2.10,Win32,60,61025ae37ef11b136ea224fe,,,,,,,,,4297,80,41,1,0,0,response1disk,,6,-5,1,1,0,0,rectangle,-5,1,1,0,0,-5,1,1,0,0,0,32,32,152,1,,,,,,,,
,,,,,,,,,,,,,FF,,,,,,,,1.2997,,,,,,,,,,,,,,,,,,,,,,5d8d5938657c76001d72805c,61036a68d26b3edfe4dfec3f,2021-07-29_20h59.29.607,Simcolourproject_2stim_asymm_v5,2020.2.10,Win32,60,61025ae37ef11b136ea224fe,,,,,,,,,1787,80,29,1,0,0,response1disk,,6,-10,2,1,0,0,rectangle,-10,2,1,0,0,-10,2,1,0,0,0,33,33,74,1,,,,,,,,
,,,,,,,,,,,,,FF,,,,,,,,1.3331,,,,,,,,,,,,,,,,,,,,,,5d8d5938657c76001d72805c,61036a68d26b3edfe4dfec3f,2021-07-29_20h59.29.607,Simcolourproject_2stim_asymm_v5,2020.2.10,Win32,60,61025ae37ef11b136ea224fe,,,,,,,,,1844,76,-31,1,0,0,response3disk,,5,1,3,1,0,0,rectangle,1,3,1,0,0,1,3,1,0,0,0,34,34,77,1,,,,,,,,
,,,,,,,,,,,,,FF,,,,,,,,1.6328,,,,,,,,,,,,,,,,,,,,,,5d8d5938657c76001d72805c,61036a68d26b3edfe4dfec3f,2021-07-29_20h59.29.607,Simcolourproject_2stim_asymm_v5,2020.2.10,Win32,60,61025ae37ef11b136ea224fe,,,,,,,,,2007,37,100,1,0,0,response1disk,,7,3,-3,1,0,0,rectangle,3,-3,1,0,0,3,-3,1,0,0,0,35,35,64,1,,,,,,,,
,,,,,,,,,,,,,FF,,,,,,,,2.4327,,,,,,,,,,,,,,,,,,,,,,5d8d5938657c76001d72805c,61036a68d26b3edfe4dfec3f,2021-07-29_20h59.29.607,Simcolourproject_2stim_asymm_v5,2020.2.10,Win32,60,61025ae37ef11b136ea224fe,,,,,,,,,1471,79,-39,1,0,0,response3disk,,5,-5,2,1,0,0,rectangle,-5,2,1,0,0,-5,2,1,0,0,0,36,36,151,1,,,,,,,,
,,,,,,,,,,,,,FF,,,,,,,,2.416,,,,,,,,,,,,,,,,,,,,,,5d8d5938657c76001d72805c,61036a68d26b3edfe4dfec3f,2021-07-29_20h59.29.607,Simcolourproject_2stim_asymm_v5,2020.2.10,Win32,60,61025ae37ef11b136ea224fe,,,,,,,,,3263,90,29,1,0,0,response1disk,,6,7,-8,1,0,0,rectangle,7,-8,1,0,0,7,-8,1,0,0,0,37,37,87,1,,,,,,,,
,,,,,,,,,,,,,FF,,,,,,,,1.6327,,,,,,,,,,,,,,,,,,,,,,5d8d5938657c76001d72805c,61036a68d26b3edfe4dfec3f,2021-07-29_20h59.29.607,Simcolourproject_2stim_asymm_v5,2020.2.10,Win32,60,61025ae37ef11b136ea224fe,,,,,,,,,2710,-36,-103,1,0,0,response5disk,,3,-6,-6,1,0,0,rectangle,-6,-6,1,0,0,-6,-6,1,0,0,0,38,38,115,1,,,,,,,,
,,,,,,,,,,,,,FF,,,,,,,,2.8992,,,,,,,,,,,,,,,,,,,,,,5d8d5938657c76001d72805c,61036a68d26b3edfe4dfec3f,2021-07-29_20h59.29.607,Simcolourproject_2stim_asymm_v5,2020.2.10,Win32,60,61025ae37ef11b136ea224fe,,,,,,,,,4246,-30,-94,1,0,0,response5disk,,3,2,1,1,0,0,rectangle,2,1,1,0,0,2,1,1,0,0,0,39,39,75,1,,,,,,,,
,,,,,,,,,,,,,FF,,,,,,,,2.7492,,,,,,,,,,,,,,,,,,,,,,5d8d5938657c76001d72805c,61036a68d26b3edfe4dfec3f,2021-07-29_20h59.29.607,Simcolourproject_2stim_asymm_v5,2020.2.10,Win32,60,61025ae37ef11b136ea224fe,,,,,,,,,1026,-41,-98,1,0,0,response5disk,,3,8,6,1,0,0,rectangle,90,35,1,0,0,1,5,1,0,0,0,40,40,140,1,,response1disk_3,TRUE,6,6,"[110,118,188,320,321,139,281,228,64,174,41,78,252,195,18,147,8,159,58,144]",1.4329,rectangle
,,,,,,,,,,,,,FF,,,,,,,,1.2498,,,,,,,,,,,,,,,,,,,,,,5d8d5938657c76001d72805c,61036a68d26b3edfe4dfec3f,2021-07-29_20h59.29.607,Simcolourproject_2stim_asymm_v5,2020.2.10,Win32,60,61025ae37ef11b136ea224fe,,,,,,,,,4181,-52,79,1,0,0,response7disk,,0,2,-5,1,0,0,rectangle,2,-5,1,0,0,2,-5,1,0,0,0,41,41,117,1,,,,,,,,
,,,,,,,,,,,,,FF,,,,,,,,1.0331,,,,,,,,,,,,,,,,,,,,,,5d8d5938657c76001d72805c,61036a68d26b3edfe4dfec3f,2021-07-29_20h59.29.607,Simcolourproject_2stim_asymm_v5,2020.2.10,Win32,60,61025ae37ef11b136ea224fe,,,,,,,,,1633,43,-86,1,0,0,response3disk,,4,5,-1,1,0,0,rectangle,5,-1,1,0,0,5,-1,1,0,0,0,42,42,7,1,,,,,,,,
,,,,,,,,,,,,,FF,,,,,,,,0.8998,,,,,,,,,,,,,,,,,,,,,,5d8d5938657c76001d72805c,61036a68d26b3edfe4dfec3f,2021-07-29_20h59.29.607,Simcolourproject_2stim_asymm_v5,2020.2.10,Win32,60,61025ae37ef11b136ea224fe,,,,,,,,,2314,-41,-92,1,0,0,response5disk,,3,-10,-6,1,0,0,rectangle,-10,-6,1,0,0,-10,-6,1,0,0,0,43,43,96,1,,,,,,,,
,,,,,,,,,,,,,FF,,,,,,,,1.0162,,,,,,,,,,,,,,,,,,,,,,5d8d5938657c76001d72805c,61036a68d26b3edfe4dfec3f,2021-07-29_20h59.29.607,Simcolourproject_2stim_asymm_v5,2020.2.10,Win32,60,61025ae37ef11b136ea224fe,,,,,,,,,2268,31,-90,1,0,0,response3disk,,4,3,1,1,0,0,rectangle,3,1,1,0,0,3,1,1,0,0,0,44,44,54,1,,,,,,,,
,,,,,,,,,,,,,FF,,,,,,,,0.9329,,,,,,,,,,,,,,,,,,,,,,5d8d5938657c76001d72805c,61036a68d26b3edfe4dfec3f,2021-07-29_20h59.29.607,Simcolourproject_2stim_asymm_v5,2020.2.10,Win32,60,61025ae37ef11b136ea224fe,,,,,,,,,707,91,45,1,0,0,response1disk,,6,-6,-1,1,0,0,rectangle,-6,-1,1,0,0,-6,-1,1,0,0,0,45,45,88,1,,,,,,,,
,,,,,,,,,,,,,FF,,,,,,,,0.5167,,,,,,,,,,,,,,,,,,,,,,5d8d5938657c76001d72805c,61036a68d26b3edfe4dfec3f,2021-07-29_20h59.29.607,Simcolourproject_2stim_asymm_v5,2020.2.10,Win32,60,61025ae37ef11b136ea224fe,,,,,,,,,1848,94,32,1,0,0,response1disk,,6,12,3,1,0,0,rectangle,12,3,1,0,0,12,3,1,0,0,0,46,46,60,1,,,,,,,,
,,,,,,,,,,,,,FF,,,,,,,,0.8997,,,,,,,,,,,,,,,,,,,,,,5d8d5938657c76001d72805c,61036a68d26b3edfe4dfec3f,2021-07-29_20h59.29.607,Simcolourproject_2stim_asymm_v5,2020.2.10,Win32,60,61025ae37ef11b136ea224fe,,,,,,,,,1291,-75,40,1,0,0,response7disk,,1,1,-3,1,0,0,rectangle,1,-3,1,0,0,1,-3,1,0,0,0,47,47,136,1,,,,,,,,
,,,,,,,,,,,,,FF,,,,,,,,1.2163,,,,,,,,,,,,,,,,,,,,,,5d8d5938657c76001d72805c,61036a68d26b3edfe4dfec3f,2021-07-29_20h59.29.607,Simcolourproject_2stim_asymm_v5,2020.2.10,Win32,60,61025ae37ef11b136ea224fe,,,,,,,,,168,-85,-36,1,0,0,response5disk,,2,10,10,1,0,0,rectangle,10,10,1,0,0,10,10,1,0,0,0,48,48,102,1,,,,,,,,
,,,,,,,,,,,,,FF,,,,,,,,0.9331,,,,,,,,,,,,,,,,,,,,,,5d8d5938657c76001d72805c,61036a68d26b3edfe4dfec3f,2021-07-29_20h59.29.607,Simcolourproject_2stim_asymm_v5,2020.2.10,Win32,60,61025ae37ef11b136ea224fe,,,,,,,,,171,-49,91,1,0,0,response7disk,,0,0,4,1,0,0,rectangle,0,4,1,0,0,0,4,1,0,0,0,49,49,62,1,,,,,,,,
,,,,,,,,,,,,,FF,,,,,,,,1.233,,,,,,,,,,,,,,,,,,,,,,5d8d5938657c76001d72805c,61036a68d26b3edfe4dfec3f,2021-07-29_20h59.29.607,Simcolourproject_2stim_asymm_v5,2020.2.10,Win32,60,61025ae37ef11b136ea224fe,,,,,,,,,1166,-78,-35,1,0,0,response5disk,,2,17,9,1,0,0,rectangle,17,9,1,0,0,17,9,1,0,0,0,50,50,65,1,,,,,,,,
,,,,,,,,,,,,,FF,,,,,,,,1.2331,,,,,,,,,,,,,,,,,,,,,,5d8d5938657c76001d72805c,61036a68d26b3edfe4dfec3f,2021-07-29_20h59.29.607,Simcolourproject_2stim_asymm_v5,2020.2.10,Win32,60,61025ae37ef11b136ea224fe,,,,,,,,,3628,70,-36,1,0,0,response3disk,,5,6,4,1,0,0,rectangle,6,4,1,0,0,6,4,1,0,0,0,51,51,121,1,,,,,,,,
,,,,,,,,,,,,,FF,,,,,,,,0.7666,,,,,,,,,,,,,,,,,,,,,,5d8d5938657c76001d72805c,61036a68d26b3edfe4dfec3f,2021-07-29_20h59.29.607,Simcolourproject_2stim_asymm_v5,2020.2.10,Win32,60,61025ae37ef11b136ea224fe,,,,,,,,,3246,64,-37,1,0,0,response3disk,,5,2,5,1,0,0,rectangle,2,5,1,0,0,2,5,1,0,0,0,52,52,85,1,,,,,,,,
,,,,,,,,,,,,,FF,,,,,,,,1.233,,,,,,,,,,,,,,,,,,,,,,5d8d5938657c76001d72805c,61036a68d26b3edfe4dfec3f,2021-07-29_20h59.29.607,Simcolourproject_2stim_asymm_v5,2020.2.10,Win32,60,61025ae37ef11b136ea224fe,,,,,,,,,873,-100,-34,1,0,0,response5disk,,2,-10,3,1,0,0,rectangle,-10,3,1,0,0,-10,3,1,0,0,0,53,53,29,1,,,,,,,,
,,,,,,,,,,,,,FF,,,,,,,,0.6832,,,,,,,,,,,,,,,,,,,,,,5d8d5938657c76001d72805c,61036a68d26b3edfe4dfec3f,2021-07-29_20h59.29.607,Simcolourproject_2stim_asymm_v5,2020.2.10,Win32,60,61025ae37ef11b136ea224fe,,,,,,,,,1459,-20,101,1,0,0,response7disk,,0,5,5,1,0,0,rectangle,5,5,1,0,0,5,5,1,0,0,0,54,54,125,1,,,,,,,,
,,,,,,,,,,,,,FF,,,,,,,,0.6166,,,,,,,,,,,,,,,,,,,,,,5d8d5938657c76001d72805c,61036a68d26b3edfe4dfec3f,2021-07-29_20h59.29.607,Simcolourproject_2stim_asymm_v5,2020.2.10,Win32,60,61025ae37ef11b136ea224fe,,,,,,,,,3395,-46,98,1,0,0,response7disk,,0,-6,4,1,0,0,rectangle,-6,4,1,0,0,-6,4,1,0,0,0,55,55,104,1,,,,,,,,
,,,,,,,,,,,,,FF,,,,,,,,0.9663,,,,,,,,,,,,,,,,,,,,,,5d8d5938657c76001d72805c,61036a68d26b3edfe4dfec3f,2021-07-29_20h59.29.607,Simcolourproject_2stim_asymm_v5,2020.2.10,Win32,60,61025ae37ef11b136ea224fe,,,,,,,,,1490,87,37,1,0,0,response1disk,,6,1,1,1,0,0,rectangle,1,1,1,0,0,1,1,1,0,0,0,56,56,154,1,,,,,,,,
,,,,,,,,,,,,,FF,,,,,,,,1.1997,,,,,,,,,,,,,,,,,,,,,,5d8d5938657c76001d72805c,61036a68d26b3edfe4dfec3f,2021-07-29_20h59.29.607,Simcolourproject_2stim_asymm_v5,2020.2.10,Win32,60,61025ae37ef11b136ea224fe,,,,,,,,,3404,36,-85,1,0,0,response3disk,,4,-2,-2,1,0,0,rectangle,32,-75,1,0,0,-5,1,1,0,0,0,57,57,155,1,,response3disk_3,TRUE,4,4,"[110,118,188,320,321,139,281,228,64,174,41,78,252,195,18,147,8,159,58,144]",1.0825,rectangle
,,,,,,,,,,,,,FF,,,,,,,,1.233,,,,,,,,,,,,,,,,,,,,,,5d8d5938657c76001d72805c,61036a68d26b3edfe4dfec3f,2021-07-29_20h59.29.607,Simcolourproject_2stim_asymm_v5,2020.2.10,Win32,60,61025ae37ef11b136ea224fe,,,,,,,,,2692,64,-24,1,0,0,response3disk,,5,-10,-2,1,0,0,rectangle,-10,-2,1,0,0,-10,-2,1,0,0,0,58,58,135,1,,,,,,,,
,,,,,,,,,,,,,FF,,,,,,,,0.9668,,,,,,,,,,,,,,,,,,,,,,5d8d5938657c76001d72805c,61036a68d26b3edfe4dfec3f,2021-07-29_20h59.29.607,Simcolourproject_2stim_asymm_v5,2020.2.10,Win32,60,61025ae37ef11b136ea224fe,,,,,,,,,1008,71,-32,1,0,0,response3disk,,5,5,3,1,0,0,rectangle,5,3,1,0,0,5,3,1,0,0,0,59,59,94,1,,,,,,,,
,,,,,,,,,,,,,FF,,,,,,,,1.1996,,,,,,,,,,,,,,,,,,,,,,5d8d5938657c76001d72805c,61036a68d26b3edfe4dfec3f,2021-07-29_20h59.29.607,Simcolourproject_2stim_asymm_v5,2020.2.10,Win32,60,61025ae37ef11b136ea224fe,,,,,,,,,2703,65,-32,1,0,0,response3disk,,5,2,-3,1,0,0,rectangle,2,-3,1,0,0,2,-3,1,0,0,0,60,60,93,1,,,,,,,,
,,,,,,,,,,,,,FF,,,,,,,,0.9998,,,,,,,,,,,,,,,,,,,,,,5d8d5938657c76001d72805c,61036a68d26b3edfe4dfec3f,2021-07-29_20h59.29.607,Simcolourproject_2stim_asymm_v5,2020.2.10,Win32,60,61025ae37ef11b136ea224fe,,,,,,,,,702,-89,-48,1,0,0,response5disk,,2,-12,9,1,0,0,rectangle,-12,9,1,0,0,-12,9,1,0,0,0,61,61,156,1,,,,,,,,
,,,,,,,,,,,,,FF,,,,,,,,1.1497,,,,,,,,,,,,,,,,,,,,,,5d8d5938657c76001d72805c,61036a68d26b3edfe4dfec3f,2021-07-29_20h59.29.607,Simcolourproject_2stim_asymm_v5,2020.2.10,Win32,60,61025ae37ef11b136ea224fe,,,,,,,,,3600,71,-32,1,0,0,response3disk,,5,0,1,1,0,0,rectangle,0,1,1,0,0,0,1,1,0,0,0,62,62,47,1,,,,,,,,
,,,,,,,,,,,,,FF,,,,,,,,1.8662,,,,,,,,,,,,,,,,,,,,,,5d8d5938657c76001d72805c,61036a68d26b3edfe4dfec3f,2021-07-29_20h59.29.607,Simcolourproject_2stim_asymm_v5,2020.2.10,Win32,60,61025ae37ef11b136ea224fe,,,,,,,,,88,65,-40,1,0,0,response3disk,,5,3,0,1,0,0,rectangle,83,-30,1,0,0,9,-1,1,0,0,0,63,63,124,1,,response3disk_3,TRUE,5,5,"[110,118,188,320,321,139,281,228,64,174,41,78,252,195,18,147,8,159,58,144]",2.0994,rectangle
,,,,,,,,,,,,,FF,,,,,,,,1.0831,,,,,,,,,,,,,,,,,,,,,,5d8d5938657c76001d72805c,61036a68d26b3edfe4dfec3f,2021-07-29_20h59.29.607,Simcolourproject_2stim_asymm_v5,2020.2.10,Win32,60,61025ae37ef11b136ea224fe,,,,,,,,,2733,28,-81,1,0,0,response3disk,,4,-6,5,1,0,0,rectangle,-6,5,1,0,0,-6,5,1,0,0,0,64,64,66,1,,,,,,,,
,,,,,,,,,,,,,FF,,,,,,,,0.5665,,,,,,,,,,,,,,,,,,,,,,5d8d5938657c76001d72805c,61036a68d26b3edfe4dfec3f,2021-07-29_20h59.29.607,Simcolourproject_2stim_asymm_v5,2020.2.10,Win32,60,61025ae37ef11b136ea224fe,,,,,,,,,363,74,-33,1,0,0,response3disk,,5,10,2,1,0,0,rectangle,10,2,1,0,0,10,2,1,0,0,0,65,65,114,1,,,,,,,,
,,,,,,,,,,,,,FF,,,,,,,,0.5501,,,,,,,,,,,,,,,,,,,,,,5d8d5938657c76001d72805c,61036a68d26b3edfe4dfec3f,2021-07-29_20h59.29.607,Simcolourproject_2stim_asymm_v5,2020.2.10,Win32,60,61025ae37ef11b136ea224fe,,,,,,,,,2737,74,-37,1,0,0,response3disk,,5,1,10,1,0,0,rectangle,1,10,1,0,0,1,10,1,0,0,0,66,66,44,1,,,,,,,,
,,,,,,,,,,,,,FF,,,,,,,,1.5825,,,,,,,,,,,,,,,,,,,,,,5d8d5938657c76001d72805c,61036a68d26b3edfe4dfec3f,2021-07-29_20h59.29.607,Simcolourproject_2stim_asymm_v5,2020.2.10,Win32,60,61025ae37ef11b136ea224fe,,,,,,,,,1117,73,-37,1,0,0,response3disk,,5,8,4,1,0,0,rectangle,8,4,1,0,0,8,4,1,0,0,0,67,67,132,1,,,,,,,,
,,,,,,,,,,,,,FF,,,,,,,,0.8166,,,,,,,,,,,,,,,,,,,,,,5d8d5938657c76001d72805c,61036a68d26b3edfe4dfec3f,2021-07-29_20h59.29.607,Simcolourproject_2stim_asymm_v5,2020.2.10,Win32,60,61025ae37ef11b136ea224fe,,,,,,,,,2902,-54,-78,1,0,0,response5disk,,3,-6,2,1,0,0,rectangle,-6,2,1,0,0,-6,2,1,0,0,0,68,68,79,1,,,,,,,,
,,,,,,,,,,,,,FF,,,,,,,,0.7497,,,,,,,,,,,,,,,,,,,,,,5d8d5938657c76001d72805c,61036a68d26b3edfe4dfec3f,2021-07-29_20h59.29.607,Simcolourproject_2stim_asymm_v5,2020.2.10,Win32,60,61025ae37ef11b136ea224fe,,,,,,,,,2639,64,-39,1,0,0,response3disk,,5,0,-3,1,0,0,rectangle,0,-3,1,0,0,0,-3,1,0,0,0,69,69,109,1,,,,,,,,
,,,,,,,,,,,,,FF,,,,,,,,0.9499,,,,,,,,,,,,,,,,,,,,,,5d8d5938657c76001d72805c,61036a68d26b3edfe4dfec3f,2021-07-29_20h59.29.607,Simcolourproject_2stim_asymm_v5,2020.2.10,Win32,60,61025ae37ef11b136ea224fe,,,,,,,,,3988,74,-37,1,0,0,response3disk,,5,-4,3,1,0,0,rectangle,-4,3,1,0,0,-4,3,1,0,0,0,70,70,137,1,,,,,,,,
,,,,,,,,,,,,,FF,,,,,,,,0.9664,,,,,,,,,,,,,,,,,,,,,,5d8d5938657c76001d72805c,61036a68d26b3edfe4dfec3f,2021-07-29_20h59.29.607,Simcolourproject_2stim_asymm_v5,2020.2.10,Win32,60,61025ae37ef11b136ea224fe,,,,,,,,,972,-38,-65,1,0,0,response5disk,,3,1,-2,1,0,0,rectangle,1,-2,1,0,0,1,-2,1,0,0,0,71,71,116,1,,,,,,,,
,,,,,,,,,,,,,FF,,,,,,,,0.7831,,,,,,,,,,,,,,,,,,,,,,5d8d5938657c76001d72805c,61036a68d26b3edfe4dfec3f,2021-07-29_20h59.29.607,Simcolourproject_2stim_asymm_v5,2020.2.10,Win32,60,61025ae37ef11b136ea224fe,,,,,,,,,3113,-27,-66,1,0,0,response5disk,,3,-2,-9,1,0,0,rectangle,-2,-9,1,0,0,-2,-9,1,0,0,0,72,72,112,1,,,,,,,,
,,,,,,,,,,,,,FF,,,,,,,,0.6834,,,,,,,,,,,,,,,,,,,,,,5d8d5938657c76001d72805c,61036a68d26b3edfe4dfec3f,2021-07-29_20h59.29.607,Simcolourproject_2stim_asymm_v5,2020.2.10,Win32,60,61025ae37ef11b136ea224fe,,,,,,,,,3878,35,-76,1,0,0,response3disk,,4,3,3,1,0,0,rectangle,3,3,1,0,0,3,3,1,0,0,0,73,73,123,1,,,,,,,,
,,,,,,,,,,,,,FF,,,,,,,,0.5833,,,,,,,,,,,,,,,,,,,,,,5d8d5938657c76001d72805c,61036a68d26b3edfe4dfec3f,2021-07-29_20h59.29.607,Simcolourproject_2stim_asymm_v5,2020.2.10,Win32,60,61025ae37ef11b136ea224fe,,,,,,,,,1553,66,-34,1,0,0,response3disk,,5,-3,9,1,0,0,rectangle,-3,9,1,0,0,-3,9,1,0,0,0,74,74,35,1,,,,,,,,
,,,,,,,,,,,,,FF,,,,,,,,0.7832,,,,,,,,,,,,,,,,,,,,,,5d8d5938657c76001d72805c,61036a68d26b3edfe4dfec3f,2021-07-29_20h59.29.607,Simcolourproject_2stim_asymm_v5,2020.2.10,Win32,60,61025ae37ef11b136ea224fe,,,,,,,,,1083,93,34,1,0,0,response1disk,,6,-2,9,1,0,0,rectangle,-2,9,1,0,0,-2,9,1,0,0,0,75,75,4,1,,,,,,,,
,,,,,,,,,,,,,FF,,,,,,,,0.5337,,,,,,,,,,,,,,,,,,,,,,5d8d5938657c76001d72805c,61036a68d26b3edfe4dfec3f,2021-07-29_20h59.29.607,Simcolourproject_2stim_asymm_v5,2020.2.10,Win32,60,61025ae37ef11b136ea224fe,,,,,,,,,3607,84,32,1,0,0,response1disk,,6,-3,-5,1,0,0,rectangle,-3,-5,1,0,0,-3,-5,1,0,0,0,76,76,59,1,,,,,,,,
,,,,,,,,,,,,,FF,,,,,,,,0.9664,,,,,,,,,,,,,,,,,,,,,,5d8d5938657c76001d72805c,61036a68d26b3edfe4dfec3f,2021-07-29_20h59.29.607,Simcolourproject_2stim_asymm_v5,2020.2.10,Win32,60,61025ae37ef11b136ea224fe,,,,,,,,,175,-33,-65,1,0,0,response5disk,,3,0,9,1,0,0,rectangle,-37,84,1,0,0,-5,-2,1,0,0,0,77,77,27,1,,response7disk_3,TRUE,0,0,"[110,118,188,320,321,139,281,228,64,174,41,78,252,195,18,147,8,159,58,144]",1.2824,rectangle
,,,,,,,,,,,,,FF,,,,,,,,1.5493,,,,,,,,,,,,,,,,,,,,,,5d8d5938657c76001d72805c,61036a68d26b3edfe4dfec3f,2021-07-29_20h59.29.607,Simcolourproject_2stim_asymm_v5,2020.2.10,Win32,60,61025ae37ef11b136ea224fe,,,,,,,,,3931,42,-83,1,0,0,response3disk,,4,1,-3,1,0,0,rectangle,1,-3,1,0,0,1,-3,1,0,0,0,78,78,13,1,,,,,,,,
,,,,,,,,,,,,,FF,,,,,,,,1.9994,,,,,,,,,,,,,,,,,,,,,,5d8d5938657c76001d72805c,61036a68d26b3edfe4dfec3f,2021-07-29_20h59.29.607,Simcolourproject_2stim_asymm_v5,2020.2.10,Win32,60,61025ae37ef11b136ea224fe,,,,,,,,,336,81,-37,1,0,0,response3disk,,5,-7,5,1,0,0,rectangle,-7,5,1,0,0,-7,5,1,0,0,0,79,79,92,1,,,,,,,,
,,,,,,,,,,,,,FF,,,,,,,,0.5832,,,,,,,,,,,,,,,,,,,,,,5d8d5938657c76001d72805c,61036a68d26b3edfe4dfec3f,2021-07-29_20h59.29.607,Simcolourproject_2stim_asymm_v5,2020.2.10,Win32,60,61025ae37ef11b136ea224fe,,,,,,,,,3647,61,-38,1,0,0,response3disk,,5,-6,1,1,0,0,rectangle,-6,1,1,0,0,-6,1,1,0,0,0,80,80,129,1,,,,,,,,
,,,,,,,,,,,,,FF,,,,,,,,1.6172,,,,,,,,,,,,,,,,,,,,,,5d8d5938657c76001d72805c,61036a68d26b3edfe4dfec3f,2021-07-29_20h59.29.607,Simcolourproject_2stim_asymm_v5,2020.2.10,Win32,60,61025ae37ef11b136ea224fe,,,,,,,,,4342,31,98,1,0,0,response1disk,,7,3,-1,1,0,0,rectangle,3,-1,1,0,0,3,-1,1,0,0,0,81,81,10,1,,,,,,,,
,,,,,,,,,,,,,FF,,,,,,,,3.8487,,,,,,,,,,,,,,,,,,,,,,5d8d5938657c76001d72805c,61036a68d26b3edfe4dfec3f,2021-07-29_20h59.29.607,Simcolourproject_2stim_asymm_v5,2020.2.10,Win32,60,61025ae37ef11b136ea224fe,,,,,,,,,684,89,26,1,0,0,response1disk,,6,5,3,1,0,0,rectangle,5,3,1,0,0,5,3,1,0,0,0,82,82,143,1,,,,,,,,
,,,,,,,,,,,,,FF,,,,,,,,0.8164,,,,,,,,,,,,,,,,,,,,,,5d8d5938657c76001d72805c,61036a68d26b3edfe4dfec3f,2021-07-29_20h59.29.607,Simcolourproject_2stim_asymm_v5,2020.2.10,Win32,60,61025ae37ef11b136ea224fe,,,,,,,,,3699,87,33,1,0,0,response1disk,,6,-7,-1,1,0,0,rectangle,-7,-1,1,0,0,-7,-1,1,0,0,0,83,83,2,1,,,,,,,,
,,,,,,,,,,,,,FF,,,,,,,,1.2001,,,,,,,,,,,,,,,,,,,,,,5d8d5938657c76001d72805c,61036a68d26b3edfe4dfec3f,2021-07-29_20h59.29.607,Simcolourproject_2stim_asymm_v5,2020.2.10,Win32,60,61025ae37ef11b136ea224fe,,,,,,,,,3194,37,-67,1,0,0,response3disk,,4,-1,9,1,0,0,rectangle,-1,9,1,0,0,-1,9,1,0,0,0,84,84,70,1,,,,,,,,
,,,,,,,,,,,,,FF,,,,,,,,0.5665,,,,,,,,,,,,,,,,,,,,,,5d8d5938657c76001d72805c,61036a68d26b3edfe4dfec3f,2021-07-29_20h59.29.607,Simcolourproject_2stim_asymm_v5,2020.2.10,Win32,60,61025ae37ef11b136ea224fe,,,,,,,,,3873,71,-32,1,0,0,response3disk,,5,7,-5,1,0,0,rectangle,7,-5,1,0,0,7,-5,1,0,0,0,85,85,158,1,,,,,,,,
,,,,,,,,,,,,,FF,,,,,,,,0.9828,,,,,,,,,,,,,,,,,,,,,,5d8d5938657c76001d72805c,61036a68d26b3edfe4dfec3f,2021-07-29_20h59.29.607,Simcolourproject_2stim_asymm_v5,2020.2.10,Win32,60,61025ae37ef11b136ea224fe,,,,,,,,,402,79,-29,1,0,0,response3disk,,5,-2,4,1,0,0,rectangle,-2,4,1,0,0,-2,4,1,0,0,0,86,86,127,1,,,,,,,,
,,,,,,,,,,,,,FF,,,,,,,,0.6166,,,,,,,,,,,,,,,,,,,,,,5d8d5938657c76001d72805c,61036a68d26b3edfe4dfec3f,2021-07-29_20h59.29.607,Simcolourproject_2stim_asymm_v5,2020.2.10,Win32,60,61025ae37ef11b136ea224fe,,,,,,,,,2404,72,-30,1,0,0,response3disk,,5,4,4,1,0,0,rectangle,4,4,1,0,0,4,4,1,0,0,0,87,87,119,1,,,,,,,,
,,,,,,,,,,,,,FF,,,,,,,,0.533,,,,,,,,,,,,,,,,,,,,,,5d8d5938657c76001d72805c,61036a68d26b3edfe4dfec3f,2021-07-29_20h59.29.607,Simcolourproject_2stim_asymm_v5,2020.2.10,Win32,60,61025ae37ef11b136ea224fe,,,,,,,,,3627,86,-32,1,0,0,response3disk,,5,1,5,1,0,0,rectangle,1,5,1,0,0,1,5,1,0,0,0,88,88,51,1,,,,,,,,
,,,,,,,,,,,,,FF,,,,,,,,0.5332,,,,,,,,,,,,,,,,,,,,,,5d8d5938657c76001d72805c,61036a68d26b3edfe4dfec3f,2021-07-29_20h59.29.607,Simcolourproject_2stim_asymm_v5,2020.2.10,Win32,60,61025ae37ef11b136ea224fe,,,,,,,,,2002,85,41,1,0,0,response1disk,,6,3,2,1,0,0,rectangle,3,2,1,0,0,3,2,1,0,0,0,89,89,103,1,,,,,,,,
,,,,,,,,,,,,,FF,,,,,,,,0.6665,,,,,,,,,,,,,,,,,,,,,,5d8d5938657c76001d72805c,61036a68d26b3edfe4dfec3f,2021-07-29_20h59.29.607,Simcolourproject_2stim_asymm_v5,2020.2.10,Win32,60,61025ae37ef11b136ea224fe,,,,,,,,,3769,85,-36,1,0,0,response3disk,,5,-3,-5,1,0,0,rectangle,-3,-5,1,0,0,-3,-5,1,0,0,0,90,90,128,1,,,,,,,,
,,,,,,,,,,,,,FF,,,,,,,,0.4666,,,,,,,,,,,,,,,,,,,,,,5d8d5938657c76001d72805c,61036a68d26b3edfe4dfec3f,2021-07-29_20h59.29.607,Simcolourproject_2stim_asymm_v5,2020.2.10,Win32,60,61025ae37ef11b136ea224fe,,,,,,,,,454,97,46,1,0,0,response1disk,,6,0,5,1,0,0,rectangle,0,5,1,0,0,0,5,1,0,0,0,91,91,58,1,,,,,,,,
,,,,,,,,,,,,,FF,,,,,,,,1.033,,,,,,,,,,,,,,,,,,,,,,5d8d5938657c76001d72805c,61036a68d26b3edfe4dfec3f,2021-07-29_20h59.29.607,Simcolourproject_2stim_asymm_v5,2020.2.10,Win32,60,61025ae37ef11b136ea224fe,,,,,,,,,167,-36,-69,1,0,0,response5disk,,3,-5,6,1,0,0,rectangle,-5,6,1,0,0,-5,6,1,0,0,0,92,92,91,1,,,,,,,,
,,,,,,,,,,,,,FF,,,,,,,,0.8665,,,,,,,,,,,,,,,,,,,,,,5d8d5938657c76001d72805c,61036a68d26b3edfe4dfec3f,2021-07-29_20h59.29.607,Simcolourproject_2stim_asymm_v5,2020.2.10,Win32,60,61025ae37ef11b136ea224fe,,,,,,,,,1320,-37,-85,1,0,0,response5disk,,3,3,-1,1,0,0,rectangle,3,-1,1,0,0,3,-1,1,0,0,0,93,93,126,1,,,,,,,,
,,,,,,,,,,,,,FF,,,,,,,,1.0164,,,,,,,,,,,,,,,,,,,,,,5d8d5938657c76001d72805c,61036a68d26b3edfe4dfec3f,2021-07-29_20h59.29.607,Simcolourproject_2stim_asymm_v5,2020.2.10,Win32,60,61025ae37ef11b136ea224fe,,,,,,,,,4061,26,-79,1,0,0,response3disk,,4,2,-1,1,0,0,rectangle,2,-1,1,0,0,2,-1,1,0,0,0,94,94,148,1,,,,,,,,
,,,,,,,,,,,,,FF,,,,,,,,0.5666,,,,,,,,,,,,,,,,,,,,,,5d8d5938657c76001d72805c,61036a68d26b3edfe4dfec3f,2021-07-29_20h59.29.607,Simcolourproject_2stim_asymm_v5,2020.2.10,Win32,60,61025ae37ef11b136ea224fe,,,,,,,,,2316,28,-77,1,0,0,response3disk,,4,1,1,1,0,0,rectangle,1,1,1,0,0,1,1,1,0,0,0,95,95,52,1,,,,,,,,
,,,,,,,,,,,,,FF,,,,,,,,0.7498,,,,,,,,,,,,,,,,,,,,,,5d8d5938657c76001d72805c,61036a68d26b3edfe4dfec3f,2021-07-29_20h59.29.607,Simcolourproject_2stim_asymm_v5,2020.2.10,Win32,60,61025ae37ef11b136ea224fe,,,,,,,,,438,-93,-38,1,0,0,response5disk,,2,-7,6,1,0,0,rectangle,-7,6,1,0,0,-7,6,1,0,0,0,96,96,5,1,,,,,,,,
,,,,,,,,,,,,,FF,,,,,,,,0.6002,,,,,,,,,,,,,,,,,,,,,,5d8d5938657c76001d72805c,61036a68d26b3edfe4dfec3f,2021-07-29_20h59.29.607,Simcolourproject_2stim_asymm_v5,2020.2.10,Win32,60,61025ae37ef11b136ea224fe,,,,,,,,,2125,98,-38,1,0,0,response3disk,,5,7,2,1,0,0,rectangle,7,2,1,0,0,7,2,1,0,0,0,97,97,45,1,,,,,,,,
,,,,,,,,,,,,,FF,,,,,,,,0.5833,,,,,,,,,,,,,,,,,,,,,,5d8d5938657c76001d72805c,61036a68d26b3edfe4dfec3f,2021-07-29_20h59.29.607,Simcolourproject_2stim_asymm_v5,2020.2.10,Win32,60,61025ae37ef11b136ea224fe,,,,,,,,,4290,59,-25,1,0,0,response3disk,,5,5,6,1,0,0,rectangle,5,6,1,0,0,5,6,1,0,0,0,98,98,49,1,,,,,,,,
,,,,,,,,,,,,,FF,,,,,,,,0.6166,,,,,,,,,,,,,,,,,,,,,,5d8d5938657c76001d72805c,61036a68d26b3edfe4dfec3f,2021-07-29_20h59.29.607,Simcolourproject_2stim_asymm_v5,2020.2.10,Win32,60,61025ae37ef11b136ea224fe,,,,,,,,,1453,-74,38,1,0,0,response7disk,,1,9,2,1,0,0,rectangle,9,2,1,0,0,9,2,1,0,0,0,99,99,69,1,,,,,,,,
,,,,,,,,,,,,,FF,,,,,,,,0.6834,,,,,,,,,,,,,,,,,,,,,,5d8d5938657c76001d72805c,61036a68d26b3edfe4dfec3f,2021-07-29_20h59.29.607,Simcolourproject_2stim_asymm_v5,2020.2.10,Win32,60,61025ae37ef11b136ea224fe,,,,,,,,,3794,69,-26,1,0,0,response3disk,,5,0,3,1,0,0,rectangle,0,3,1,0,0,0,3,1,0,0,0,100,100,42,1,,,,,,,,
,,,,,,,,,,,,,FF,,,,,,,,1.4829,,,,,,,,,,,,,,,,,,,,,,5d8d5938657c76001d72805c,61036a68d26b3edfe4dfec3f,2021-07-29_20h59.29.607,Simcolourproject_2stim_asymm_v5,2020.2.10,Win32,60,61025ae37ef11b136ea224fe,,,,,,,,,739,-40,-81,1,0,0,response5disk,,3,6,8,1,0,0,rectangle,6,8,1,0,0,6,8,1,0,0,0,101,101,68,1,,,,,,,,
,,,,,,,,,,,,,FF,,,,,,,,0.5499,,,,,,,,,,,,,,,,,,,,,,5d8d5938657c76001d72805c,61036a68d26b3edfe4dfec3f,2021-07-29_20h59.29.607,Simcolourproject_2stim_asymm_v5,2020.2.10,Win32,60,61025ae37ef11b136ea224fe,,,,,,,,,1592,-41,-73,1,0,0,response5disk,,3,0,3,1,0,0,rectangle,0,3,1,0,0,0,3,1,0,0,0,102,102,146,1,,,,,,,,
,,,,,,,,,,,,,FF,,,,,,,,0.4666,,,,,,,,,,,,,,,,,,,,,,5d8d5938657c76001d72805c,61036a68d26b3edfe4dfec3f,2021-07-29_20h59.29.607,Simcolourproject_2stim_asymm_v5,2020.2.10,Win32,60,61025ae37ef11b136ea224fe,,,,,,,,,713,-32,-71,1,0,0,response5disk,,3,-5,-12,1,0,0,rectangle,-5,-12,1,0,0,-5,-12,1,0,0,0,103,103,82,1,,,,,,,,
,,,,,,,,,,,,,FF,,,,,,,,0.6331,,,,,,,,,,,,,,,,,,,,,,5d8d5938657c76001d72805c,61036a68d26b3edfe4dfec3f,2021-07-29_20h59.29.607,Simcolourproject_2stim_asymm_v5,2020.2.10,Win32,60,61025ae37ef11b136ea224fe,,,,,,,,,2883,39,-74,1,0,0,response3disk,,4,-7,3,1,0,0,rectangle,-7,3,1,0,0,-7,3,1,0,0,0,104,104,111,1,,,,,,,,
,,,,,,,,,,,,,FF,,,,,,,,0.9997,,,,,,,,,,,,,,,,,,,,,,5d8d5938657c76001d72805c,61036a68d26b3edfe4dfec3f,2021-07-29_20h59.29.607,Simcolourproject_2stim_asymm_v5,2020.2.10,Win32,60,61025ae37ef11b136ea224fe,,,,,,,,,3503,74,-33,1,0,0,response3disk,,5,7,7,1,0,0,rectangle,7,7,1,0,0,7,7,1,0,0,0,105,105,110,1,,,,,,,,
,,,,,,,,,,,,,FF,,,,,,,,0.6,,,,,,,,,,,,,,,,,,,,,,5d8d5938657c76001d72805c,61036a68d26b3edfe4dfec3f,2021-07-29_20h59.29.607,Simcolourproject_2stim_asymm_v5,2020.2.10,Win32,60,61025ae37ef11b136ea224fe,,,,,,,,,2254,71,-24,1,0,0,response3disk,,5,9,3,1,0,0,rectangle,9,3,1,0,0,9,3,1,0,0,0,106,106,108,1,,,,,,,,
,,,,,,,,,,,,,FF,,,,,,,,0.8498,,,,,,,,,,,,,,,,,,,,,,5d8d5938657c76001d72805c,61036a68d26b3edfe4dfec3f,2021-07-29_20h59.29.607,Simcolourproject_2stim_asymm_v5,2020.2.10,Win32,60,61025ae37ef11b136ea224fe,,,,,,,,,1552,81,-33,1,0,0,response3disk,,5,-3,-6,1,0,0,rectangle,-3,-6,1,0,0,-3,-6,1,0,0,0,107,107,97,1,,,,,,,,
,,,,,,,,,,,,,FF,,,,,,,,1.3663,,,,,,,,,,,,,,,,,,,,,,5d8d5938657c76001d72805c,61036a68d26b3edfe4dfec3f,2021-07-29_20h59.29.607,Simcolourproject_2stim_asymm_v5,2020.2.10,Win32,60,61025ae37ef11b136ea224fe,,,,,,,,,1250,24,-78,1,0,0,response3disk,,4,-16,4,1,0,0,rectangle,-16,4,1,0,0,-16,4,1,0,0,0,108,108,14,1,,,,,,,,
,,,,,,,,,,,,,FF,,,,,,,,1.2997,,,,,,,,,,,,,,,,,,,,,,5d8d5938657c76001d72805c,61036a68d26b3edfe4dfec3f,2021-07-29_20h59.29.607,Simcolourproject_2stim_asymm_v5,2020.2.10,Win32,60,61025ae37ef11b136ea224fe,,,,,,,,,886,-84,41,1,0,0,response7disk,,1,-12,0,1,0,0,rectangle,85,49,1,0,0,8,4,1,0,0,0,109,109,9,1,,response1disk_3,TRUE,6,6,"[110,118,188,320,321,139,281,228,64,174,41,78,252,195,18,147,8,159,58,144]",1.4665,rectangle
,,,,,,,,,,,,,FF,,,,,,,,1.3663,,,,,,,,,,,,,,,,,,,,,,5d8d5938657c76001d72805c,61036a68d26b3edfe4dfec3f,2021-07-29_20h59.29.607,Simcolourproject_2stim_asymm_v5,2020.2.10,Win32,60,61025ae37ef11b136ea224fe,,,,,,,,,2263,83,-24,1,0,0,response3disk,,5,9,3,1,0,0,rectangle,9,3,1,0,0,9,3,1,0,0,0,110,110,28,1,,,,,,,,
,,,,,,,,,,,,,FF,,,,,,,,0.4834,,,,,,,,,,,,,,,,,,,,,,5d8d5938657c76001d72805c,61036a68d26b3edfe4dfec3f,2021-07-29_20h59.29.607,Simcolourproject_2stim_asymm_v5,2020.2.10,Win32,60,61025ae37ef11b136ea224fe,,,,,,,,,3919,69,-35,1,0,0,response3disk,,5,-10,-5,1,0,0,rectangle,-10,-5,1,0,0,-10,-5,1,0,0,0,111,111,37,1,,,,,,,,
,,,,,,,,,,,,,FF,,,,,,,,0.7495,,,,,,,,,,,,,,,,,,,,,,5d8d5938657c76001d72805c,61036a68d26b3edfe4dfec3f,2021-07-29_20h59.29.607,Simcolourproject_2stim_asymm_v5,2020.2.10,Win32,60,61025ae37ef11b136ea224fe,,,,,,,,,476,86,38,1,0,0,response1disk,,6,-2,0,1,0,0,rectangle,-2,0,1,0,0,-2,0,1,0,0,0,112,112,122,1,,,,,,,,
,,,,,,,,,,,,,FF,,,,,,,,0.5,,,,,,,,,,,,,,,,,,,,,,5d8d5938657c76001d72805c,61036a68d26b3edfe4dfec3f,2021-07-29_20h59.29.607,Simcolourproject_2stim_asymm_v5,2020.2.10,Win32,60,61025ae37ef11b136ea224fe,,,,,,,,,2280,86,45,1,0,0,response1disk,,6,-9,7,1,0,0,rectangle,-9,7,1,0,0,-9,7,1,0,0,0,113,113,153,1,,,,,,,,
,,,,,,,,,,,,,FF,,,,,,,,0.7497,,,,,,,,,,,,,,,,,,,,,,5d8d5938657c76001d72805c,61036a68d26b3edfe4dfec3f,2021-07-29_20h59.29.607,Simcolourproject_2stim_asymm_v5,2020.2.10,Win32,60,61025ae37ef11b136ea224fe,,,,,,,,,387,52,-81,1,0,0,response3disk,,4,-1,-8,1,0,0,rectangle,-1,-8,1,0,0,-1,-8,1,0,0,0,114,114,78,1,,,,,,,,
,,,,,,,,,,,,,FF,,,,,,,,0.8831,,,,,,,,,,,,,,,,,,,,,,5d8d5938657c76001d72805c,61036a68d26b3edfe4dfec3f,2021-07-29_20h59.29.607,Simcolourproject_2stim_asymm_v5,2020.2.10,Win32,60,61025ae37ef11b136ea224fe,,,,,,,,,1751,-79,-44,1,0,0,response5disk,,2,5,15,1,0,0,rectangle,5,15,1,0,0,5,15,1,0,0,0,115,115,138,1,,,,,,,,
,,,,,,,,,,,,,FF,,,,,,,,0.4497,,,,,,,,,,,,,,,,,,,,,,5d8d5938657c76001d72805c,61036a68d26b3edfe4dfec3f,2021-07-29_20h59.29.607,Simcolourproject_2stim_asymm_v5,2020.2.10,Win32,60,61025ae37ef11b136ea224fe,,,,,,,,,653,-92,-48,1,0,0,response5disk,,2,-12,11,1,0,0,rectangle,-12,11,1,0,0,-12,11,1,0,0,0,116,116,57,1,,,,,,,,
,,,,,,,,,,,,,FF,,,,,,,,1.7163,,,,,,,,,,,,,,,,,,,,,,5d8d5938657c76001d72805c,61036a68d26b3edfe4dfec3f,2021-07-29_20h59.29.607,Simcolourproject_2stim_asymm_v5,2020.2.10,Win32,60,61025ae37ef11b136ea224fe,,,,,,,,,664,-40,-59,1,0,0,response5disk,,3,10,5,1,0,0,rectangle,-42,88,1,0,0,-3,-6,1,0,0,0,117,117,139,1,,response7disk_3,TRUE,0,0,"[110,118,188,320,321,139,281,228,64,174,41,78,252,195,18,147,8,159,58,144]",1.2161,rectangle
,,,,,,,,,,,,,FF,,,,,,,,0.7495,,,,,,,,,,,,,,,,,,,,,,5d8d5938657c76001d72805c,61036a68d26b3edfe4dfec3f,2021-07-29_20h59.29.607,Simcolourproject_2stim_asymm_v5,2020.2.10,Win32,60,61025ae37ef11b136ea224fe,,,,,,,,,1,-91,-41,1,0,0,response5disk,,2,-15,-1,1,0,0,rectangle,-15,-1,1,0,0,-15,-1,1,0,0,0,118,118,83,1,,,,,,,,
,,,,,,,,,,,,,FF,,,,,,,,0.9324,,,,,,,,,,,,,,,,,,,,,,5d8d5938657c76001d72805c,61036a68d26b3edfe4dfec3f,2021-07-29_20h59.29.607,Simcolourproject_2stim_asymm_v5,2020.2.10,Win32,60,61025ae37ef11b136ea224fe,,,,,,,,,1785,-28,-72,1,0,0,response5disk,,3,1,1,1,0,0,rectangle,1,1,1,0,0,1,1,1,0,0,0,119,119,141,1,,,,,,,,
,,,,,,,,,,,,,FF,,,,,,,,0.7499,,,,,,,,,,,,,,,,,,,,,,5d8d5938657c76001d72805c,61036a68d26b3edfe4dfec3f,2021-07-29_20h59.29.607,Simcolourproject_2stim_asymm_v5,2020.2.10,Win32,60,61025ae37ef11b136ea224fe,,,,,,,,,4182,-76,-39,1,0,0,response5disk,,2,2,6,1,0,0,rectangle,2,6,1,0,0,2,6,1,0,0,0,120,120,30,1,,,,,,,,
,,,,,,,,,,,,,FF,,,,,,,,0.6664,,,,,,,,,,,,,,,,,,,,,,5d8d5938657c76001d72805c,61036a68d26b3edfe4dfec3f,2021-07-29_20h59.29.607,Simcolourproject_2stim_asymm_v5,2020.2.10,Win32,60,61025ae37ef11b136ea224fe,,,,,,,,,247,80,-30,1,0,0,response3disk,,5,-4,3,1,0,0,rectangle,-4,3,1,0,0,-4,3,1,0,0,0,121,121,31,1,,,,,,,,
,,,,,,,,,,,,,FF,,,,,,,,0.4832,,,,,,,,,,,,,,,,,,,,,,5d8d5938657c76001d72805c,61036a68d26b3edfe4dfec3f,2021-07-29_20h59.29.607,Simcolourproject_2stim_asymm_v5,2020.2.10,Win32,60,61025ae37ef11b136ea224fe,,,,,,,,,2466,75,-33,1,0,0,response3disk,,5,-8,-2,1,0,0,rectangle,-8,-2,1,0,0,-8,-2,1,0,0,0,122,122,32,1,,,,,,,,
,,,,,,,,,,,,,FF,,,,,,,,1.0664,,,,,,,,,,,,,,,,,,,,,,5d8d5938657c76001d72805c,61036a68d26b3edfe4dfec3f,2021-07-29_20h59.29.607,Simcolourproject_2stim_asymm_v5,2020.2.10,Win32,60,61025ae37ef11b136ea224fe,,,,,,,,,3101,44,-83,1,0,0,response3disk,,4,-10,5,1,0,0,rectangle,-10,5,1,0,0,-10,5,1,0,0,0,123,123,150,1,,,,,,,,
,,,,,,,,,,,,,FF,,,,,,,,0.8999,,,,,,,,,,,,,,,,,,,,,,5d8d5938657c76001d72805c,61036a68d26b3edfe4dfec3f,2021-07-29_20h59.29.607,Simcolourproject_2stim_asymm_v5,2020.2.10,Win32,60,61025ae37ef11b136ea224fe,,,,,,,,,743,81,-30,1,0,0,response3disk,,5,5,7,1,0,0,rectangle,5,7,1,0,0,5,7,1,0,0,0,124,124,50,1,,,,,,,,
,,,,,,,,,,,,,FF,,,,,,,,1.233,,,,,,,,,,,,,,,,,,,,,,5d8d5938657c76001d72805c,61036a68d26b3edfe4dfec3f,2021-07-29_20h59.29.607,Simcolourproject_2stim_asymm_v5,2020.2.10,Win32,60,61025ae37ef11b136ea224fe,,,,,,,,,3204,-29,-89,1,0,0,response5disk,,3,8,5,1,0,0,rectangle,8,5,1,0,0,8,5,1,0,0,0,125,125,8,1,,,,,,,,
,,,,,,,,,,,,,FF,,,,,,,,0.7998,,,,,,,,,,,,,,,,,,,,,,5d8d5938657c76001d72805c,61036a68d26b3edfe4dfec3f,2021-07-29_20h59.29.607,Simcolourproject_2stim_asymm_v5,2020.2.10,Win32,60,61025ae37ef11b136ea224fe,,,,,,,,,143,86,-44,1,0,0,response3disk,,5,-12,-1,1,0,0,rectangle,-12,-1,1,0,0,-12,-1,1,0,0,0,126,126,100,1,,,,,,,,
,,,,,,,,,,,,,FF,,,,,,,,1.0493,,,,,,,,,,,,,,,,,,,,,,5d8d5938657c76001d72805c,61036a68d26b3edfe4dfec3f,2021-07-29_20h59.29.607,Simcolourproject_2stim_asymm_v5,2020.2.10,Win32,60,61025ae37ef11b136ea224fe,,,,,,,,,2723,60,-76,1,0,0,response3disk,,4,-5,1,1,0,0,rectangle,-5,1,1,0,0,-5,1,1,0,0,0,127,127,130,1,,,,,,,,
,,,,,,,,,,,,,FF,,,,,,,,0.9664,,,,,,,,,,,,,,,,,,,,,,5d8d5938657c76001d72805c,61036a68d26b3edfe4dfec3f,2021-07-29_20h59.29.607,Simcolourproject_2stim_asymm_v5,2020.2.10,Win32,60,61025ae37ef11b136ea224fe,,,,,,,,,3080,82,-36,1,0,0,response3disk,,5,4,0,1,0,0,rectangle,4,0,1,0,0,4,0,1,0,0,0,128,128,33,1,,,,,,,,
,,,,,,,,,,,,,FF,,,,,,,,0.3834,,,,,,,,,,,,,,,,,,,,,,5d8d5938657c76001d72805c,61036a68d26b3edfe4dfec3f,2021-07-29_20h59.29.607,Simcolourproject_2stim_asymm_v5,2020.2.10,Win32,60,61025ae37ef11b136ea224fe,,,,,,,,,2339,66,-32,1,0,0,response3disk,,5,-19,4,1,0,0,rectangle,-19,4,1,0,0,-19,4,1,0,0,0,129,129,81,1,,,,,,,,
,,,,,,,,,,,,,FF,,,,,,,,0.4833,,,,,,,,,,,,,,,,,,,,,,5d8d5938657c76001d72805c,61036a68d26b3edfe4dfec3f,2021-07-29_20h59.29.607,Simcolourproject_2stim_asymm_v5,2020.2.10,Win32,60,61025ae37ef11b136ea224fe,,,,,,,,,3611,63,-26,1,0,0,response3disk,,5,7,1,1,0,0,rectangle,7,1,1,0,0,7,1,1,0,0,0,130,130,107,1,,,,,,,,
,,,,,,,,,,,,,FF,,,,,,,,0.9165,,,,,,,,,,,,,,,,,,,,,,5d8d5938657c76001d72805c,61036a68d26b3edfe4dfec3f,2021-07-29_20h59.29.607,Simcolourproject_2stim_asymm_v5,2020.2.10,Win32,60,61025ae37ef11b136ea224fe,,,,,,,,,1087,81,-42,1,0,0,response3disk,,5,-6,-1,1,0,0,rectangle,-6,-1,1,0,0,-6,-1,1,0,0,0,131,131,40,1,,,,,,,,
,,,,,,,,,,,,,FF,,,,,,,,1.7328,,,,,,,,,,,,,,,,,,,,,,5d8d5938657c76001d72805c,61036a68d26b3edfe4dfec3f,2021-07-29_20h59.29.607,Simcolourproject_2stim_asymm_v5,2020.2.10,Win32,60,61025ae37ef11b136ea224fe,,,,,,,,,881,84,-30,1,0,0,response3disk,,5,19,-3,1,0,0,rectangle,19,-3,1,0,0,19,-3,1,0,0,0,132,132,144,1,,,,,,,,
,,,,,,,,,,,,,FF,,,,,,,,1.1331,,,,,,,,,,,,,,,,,,,,,,5d8d5938657c76001d72805c,61036a68d26b3edfe4dfec3f,2021-07-29_20h59.29.607,Simcolourproject_2stim_asymm_v5,2020.2.10,Win32,60,61025ae37ef11b136ea224fe,,,,,,,,,1392,37,-61,1,0,0,response3disk,,4,-7,2,1,0,0,rectangle,-7,2,1,0,0,-7,2,1,0,0,0,133,133,133,1,,,,,,,,
,,,,,,,,,,,,,FF,,,,,,,,0.5332,,,,,,,,,,,,,,,,,,,,,,5d8d5938657c76001d72805c,61036a68d26b3edfe4dfec3f,2021-07-29_20h59.29.607,Simcolourproject_2stim_asymm_v5,2020.2.10,Win32,60,61025ae37ef11b136ea224fe,,,,,,,,,858,64,-30,1,0,0,response3disk,,5,1,-7,1,0,0,rectangle,1,-7,1,0,0,1,-7,1,0,0,0,134,134,56,1,,,,,,,,
,,,,,,,,,,,,,FF,,,,,,,,0.5831,,,,,,,,,,,,,,,,,,,,,,5d8d5938657c76001d72805c,61036a68d26b3edfe4dfec3f,2021-07-29_20h59.29.607,Simcolourproject_2stim_asymm_v5,2020.2.10,Win32,60,61025ae37ef11b136ea224fe,,,,,,,,,20,74,-30,1,0,0,response3disk,,5,7,3,1,0,0,rectangle,7,3,1,0,0,7,3,1,0,0,0,135,135,147,1,,,,,,,,
,,,,,,,,,,,,,FF,,,,,,,,0.8665,,,,,,,,,,,,,,,,,,,,,,5d8d5938657c76001d72805c,61036a68d26b3edfe4dfec3f,2021-07-29_20h59.29.607,Simcolourproject_2stim_asymm_v5,2020.2.10,Win32,60,61025ae37ef11b136ea224fe,,,,,,,,,630,-85,26,1,0,0,response7disk,,1,-8,4,1,0,0,rectangle,-8,4,1,0,0,-8,4,1,0,0,0,136,136,11,1,,,,,,,,
,,,,,,,,,,,,,FF,,,,,,,,0.9161,,,,,,,,,,,,,,,,,,,,,,5d8d5938657c76001d72805c,61036a68d26b3edfe4dfec3f,2021-07-29_20h59.29.607,Simcolourproject_2stim_asymm_v5,2020.2.10,Win32,60,61025ae37ef11b136ea224fe,,,,,,,,,1971,-35,-77,1,0,0,response5disk,,3,9,-7,1,0,0,rectangle,9,-7,1,0,0,9,-7,1,0,0,0,137,137,145,1,,,,,,,,
,,,,,,,,,,,,,FF,,,,,,,,0.6165,,,,,,,,,,,,,,,,,,,,,,5d8d5938657c76001d72805c,61036a68d26b3edfe4dfec3f,2021-07-29_20h59.29.607,Simcolourproject_2stim_asymm_v5,2020.2.10,Win32,60,61025ae37ef11b136ea224fe,,,,,,,,,2227,-57,-48,1,0,0,response5disk,,2,-4,-6,1,0,0,rectangle,73,-39,1,0,0,15,-5,1,0,0,0,138,138,118,1,,response3disk_3,TRUE,5,5,"[110,118,188,320,321,139,281,228,64,174,41,78,252,195,18,147,8,159,58,144]",1.3825,rectangle
,,,,,,,,,,,,,FF,,,,,,,,1.5496,,,,,,,,,,,,,,,,,,,,,,5d8d5938657c76001d72805c,61036a68d26b3edfe4dfec3f,2021-07-29_20h59.29.607,Simcolourproject_2stim_asymm_v5,2020.2.10,Win32,60,61025ae37ef11b136ea224fe,,,,,,,,,3311,80,-28,1,0,0,response3disk,,5,11,1,1,0,0,rectangle,11,1,1,0,0,11,1,1,0,0,0,139,139,106,1,,,,,,,,
,,,,,,,,,,,,,FF,,,,,,,,1.1331,,,,,,,,,,,,,,,,,,,,,,5d8d5938657c76001d72805c,61036a68d26b3edfe4dfec3f,2021-07-29_20h59.29.607,Simcolourproject_2stim_asymm_v5,2020.2.10,Win32,60,61025ae37ef11b136ea224fe,,,,,,,,,2948,31,-72,1,0,0,response3disk,,4,-9,2,1,0,0,rectangle,-9,2,1,0,0,-9,2,1,0,0,0,140,140,55,1,,,,,,,,
,,,,,,,,,,,,,FF,,,,,,,,0.9333,,,,,,,,,,,,,,,,,,,,,,5d8d5938657c76001d72805c,61036a68d26b3edfe4dfec3f,2021-07-29_20h59.29.607,Simcolourproject_2stim_asymm_v5,2020.2.10,Win32,60,61025ae37ef11b136ea224fe,,,,,,,,,2795,68,-25,1,0,0,response3disk,,5,13,-6,1,0,0,rectangle,13,-6,1,0,0,13,-6,1,0,0,0,141,141,23,1,,,,,,,,
,,,,,,,,,,,,,FF,,,,,,,,0.9164,,,,,,,,,,,,,,,,,,,,,,5d8d5938657c76001d72805c,61036a68d26b3edfe4dfec3f,2021-07-29_20h59.29.607,Simcolourproject_2stim_asymm_v5,2020.2.10,Win32,60,61025ae37ef11b136ea224fe,,,,,,,,,4022,-43,-76,1,0,0,response5disk,,3,-2,8,1,0,0,rectangle,-2,8,1,0,0,-2,8,1,0,0,0,142,142,38,1,,,,,,,,
,,,,,,,,,,,,,FF,,,,,,,,0.9998,,,,,,,,,,,,,,,,,,,,,,5d8d5938657c76001d72805c,61036a68d26b3edfe4dfec3f,2021-07-29_20h59.29.607,Simcolourproject_2stim_asymm_v5,2020.2.10,Win32,60,61025ae37ef11b136ea224fe,,,,,,,,,727,33,-71,1,0,0,response3disk,,4,-7,7,1,0,0,rectangle,-59,-42,1,0,0,-7,-4,1,0,0,0,143,143,12,1,,response5disk_3,TRUE,2,2,"[110,118,188,320,321,139,281,228,64,174,41,78,252,195,18,147,8,159,58,144]",1.316,rectangle
,,,,,,,,,,,,,FF,,,,,,,,1.5996,,,,,,,,,,,,,,,,,,,,,,5d8d5938657c76001d72805c,61036a68d26b3edfe4dfec3f,2021-07-29_20h59.29.607,Simcolourproject_2stim_asymm_v5,2020.2.10,Win32,60,61025ae37ef11b136ea224fe,,,,,,,,,1664,69,-30,1,0,0,response3disk,,5,6,-1,1,0,0,rectangle,6,-1,1,0,0,6,-1,1,0,0,0,144,144,101,1,,,,,,,,
,,,,,,,,,,,,,FF,,,,,,,,0.6165,,,,,,,,,,,,,,,,,,,,,,5d8d5938657c76001d72805c,61036a68d26b3edfe4dfec3f,2021-07-29_20h59.29.607,Simcolourproject_2stim_asymm_v5,2020.2.10,Win32,60,61025ae37ef11b136ea224fe,,,,,,,,,677,75,-31,1,0,0,response3disk,,5,3,0,1,0,0,rectangle,3,0,1,0,0,3,0,1,0,0,0,145,145,113,1,,,,,,,,
,,,,,,,,,,,,,FF,,,,,,,,0.8995,,,,,,,,,,,,,,,,,,,,,,5d8d5938657c76001d72805c,61036a68d26b3edfe4dfec3f,2021-07-29_20h59.29.607,Simcolourproject_2stim_asymm_v5,2020.2.10,Win32,60,61025ae37ef11b136ea224fe,,,,,,,,,3482,26,-84,1,0,0,response3disk,,4,-10,0,1,0,0,rectangle,76,-25,1,0,0,2,0,1,0,0,0,146,146,21,1,,response3disk_3,TRUE,5,5,"[110,118,188,320,321,139,281,228,64,174,41,78,252,195,18,147,8,159,58,144]",1.2659,rectangle
,,,,,,,,,,,,,FF,,,,,,,,0.8332,,,,,,,,,,,,,,,,,,,,,,5d8d5938657c76001d72805c,61036a68d26b3edfe4dfec3f,2021-07-29_20h59.29.607,Simcolourproject_2stim_asymm_v5,2020.2.10,Win32,60,61025ae37ef11b136ea224fe,,,,,,,,,3983,26,-79,1,0,0,response3disk,,4,-1,-6,1,0,0,rectangle,-1,-6,1,0,0,-1,-6,1,0,0,0,147,147,61,1,,,,,,,,
,,,,,,,,,,,,,FF,,,,,,,,0.5831,,,,,,,,,,,,,,,,,,,,,,5d8d5938657c76001d72805c,61036a68d26b3edfe4dfec3f,2021-07-29_20h59.29.607,Simcolourproject_2stim_asymm_v5,2020.2.10,Win32,60,61025ae37ef11b136ea224fe,,,,,,,,,3088,87,-38,1,0,0,response3disk,,5,11,-5,1,0,0,rectangle,11,-5,1,0,0,11,-5,1,0,0,0,148,148,90,1,,,,,,,,
,,,,,,,,,,,,,FF,,,,,,,,2.1161,,,,,,,,,,,,,,,,,,,,,,5d8d5938657c76001d72805c,61036a68d26b3edfe4dfec3f,2021-07-29_20h59.29.607,Simcolourproject_2stim_asymm_v5,2020.2.10,Win32,60,61025ae37ef11b136ea224fe,,,,,,,,,1029,78,-25,1,0,0,response3disk,,5,11,-4,1,0,0,rectangle,11,-4,1,0,0,11,-4,1,0,0,0,149,149,25,1,,,,,,,,
,,,,,,,,,,,,,FF,,,,,,,,1.1664,,,,,,,,,,,,,,,,,,,,,,5d8d5938657c76001d72805c,61036a68d26b3edfe4dfec3f,2021-07-29_20h59.29.607,Simcolourproject_2stim_asymm_v5,2020.2.10,Win32,60,61025ae37ef11b136ea224fe,,,,,,,,,81,34,-73,1,0,0,response3disk,,4,-3,4,1,0,0,rectangle,-3,4,1,0,0,-3,4,1,0,0,0,150,150,142,1,,,,,,,,
,,,,,,,,,,,,,FF,,,,,,,,0.5999,,,,,,,,,,,,,,,,,,,,,,5d8d5938657c76001d72805c,61036a68d26b3edfe4dfec3f,2021-07-29_20h59.29.607,Simcolourproject_2stim_asymm_v5,2020.2.10,Win32,60,61025ae37ef11b136ea224fe,,,,,,,,,2756,57,-29,1,0,0,response3disk,,5,2,9,1,0,0,rectangle,2,9,1,0,0,2,9,1,0,0,0,151,151,1,1,,,,,,,,
,,,,,,,,,,,,,FF,,,,,,,,0.483,,,,,,,,,,,,,,,,,,,,,,5d8d5938657c76001d72805c,61036a68d26b3edfe4dfec3f,2021-07-29_20h59.29.607,Simcolourproject_2stim_asymm_v5,2020.2.10,Win32,60,61025ae37ef11b136ea224fe,,,,,,,,,3268,60,-36,1,0,0,response3disk,,5,-2,-3,1,0,0,rectangle,-2,-3,1,0,0,-2,-3,1,0,0,0,152,152,34,1,,,,,,,,
,,,,,,,,,,,,,FF,,,,,,,,1.3326,,,,,,,,,,,,,,,,,,,,,,5d8d5938657c76001d72805c,61036a68d26b3edfe4dfec3f,2021-07-29_20h59.29.607,Simcolourproject_2stim_asymm_v5,2020.2.10,Win32,60,61025ae37ef11b136ea224fe,,,,,,,,,19,85,40,1,0,0,response1disk,,6,1,-5,1,0,0,rectangle,1,-5,1,0,0,1,-5,1,0,0,0,153,153,36,1,,,,,,,,
,,,,,,,,,,,,,FF,,,,,,,,0.8165,,,,,,,,,,,,,,,,,,,,,,5d8d5938657c76001d72805c,61036a68d26b3edfe4dfec3f,2021-07-29_20h59.29.607,Simcolourproject_2stim_asymm_v5,2020.2.10,Win32,60,61025ae37ef11b136ea224fe,,,,,,,,,3610,64,26,1,0,0,response1disk,,6,1,-4,1,0,0,rectangle,1,-4,1,0,0,1,-4,1,0,0,0,154,154,22,1,,,,,,,,
,,,,,,,,,,,,,FF,,,,,,,,1.1164,,,,,,,,,,,,,,,,,,,,,,5d8d5938657c76001d72805c,61036a68d26b3edfe4dfec3f,2021-07-29_20h59.29.607,Simcolourproject_2stim_asymm_v5,2020.2.10,Win32,60,61025ae37ef11b136ea224fe,,,,,,,,,905,71,-36,1,0,0,response3disk,,5,2,3,1,0,0,rectangle,2,3,1,0,0,2,3,1,0,0,0,155,155,71,1,,,,,,,,
,,,,,,,,,,,,,FF,,,,,,,,0.6665,,,,,,,,,,,,,,,,,,,,,,5d8d5938657c76001d72805c,61036a68d26b3edfe4dfec3f,2021-07-29_20h59.29.607,Simcolourproject_2stim_asymm_v5,2020.2.10,Win32,60,61025ae37ef11b136ea224fe,,,,,,,,,3763,94,38,1,0,0,response1disk,,6,-2,9,1,0,0,rectangle,-2,9,1,0,0,-2,9,1,0,0,0,156,156,149,1,,,,,,,,
,,,,,,,,,,,,,FF,,,,,,,,1.383,,,,,,,,,,,,,,,,,,,,,,5d8d5938657c76001d72805c,61036a68d26b3edfe4dfec3f,2021-07-29_20h59.29.607,Simcolourproject_2stim_asymm_v5,2020.2.10,Win32,60,61025ae37ef11b136ea224fe,,,,,,,,,63,83,-19,1,0,0,response3disk,,5,3,-3,1,0,0,rectangle,3,-3,1,0,0,3,-3,1,0,0,0,157,157,84,1,,,,,,,,
,,,,,,,,,,,,,FF,,,,,,,,1,,,,,,,,,,,,,,,,,,,,,,5d8d5938657c76001d72805c,61036a68d26b3edfe4dfec3f,2021-07-29_20h59.29.607,Simcolourproject_2stim_asymm_v5,2020.2.10,Win32,60,61025ae37ef11b136ea224fe,,,,,,,,,1804,98,26,1,0,0,response1disk,,6,8,0,1,0,0,rectangle,36,86,1,0,0,-12,-1,1,0,0,0,158,158,26,1,,response1disk_3,TRUE,7,7,"[110,118,188,320,321,139,281,228,64,174,41,78,252,195,18,147,8,159,58,144]",1.0992,rectangle
,,,,,,,,,,,,,FF,,,,,,,,1.4329,,,,,,,,,,,,,,,,,,,,,,5d8d5938657c76001d72805c,61036a68d26b3edfe4dfec3f,2021-07-29_20h59.29.607,Simcolourproject_2stim_asymm_v5,2020.2.10,Win32,60,61025ae37ef11b136ea224fe,,,,,,,,,422,62,-30,1,0,0,response3disk,,5,1,-5,1,0,0,rectangle,1,-5,1,0,0,1,-5,1,0,0,0,159,159,157,1,,,,,,,,
,,,,,,,,,,,,,FF,,,,,,,,0.9664,,,,,,,,,,,,,,,,,,,,,,5d8d5938657c76001d72805c,61036a68d26b3edfe4dfec3f,2021-07-29_20h59.29.607,Simcolourproject_2stim_asymm_v5,2020.2.10,Win32,60,61025ae37ef11b136ea224fe,,,,,,,,,1532,30,-93,1,0,0,response3disk,,4,11,-2,1,0,0,rectangle,11,-2,1,0,0,11,-2,1,0,0,1,0,160,135,1,,,,,,,,
,,,,,,,,,,,,,FF,,,,,,,,0.4998,,,,,,,,,,,,,,,,,,,,,,5d8d5938657c76001d72805c,61036a68d26b3edfe4dfec3f,2021-07-29_20h59.29.607,Simcolourproject_2stim_asymm_v5,2020.2.10,Win32,60,61025ae37ef11b136ea224fe,,,,,,,,,404,64,-34,1,0,0,response3disk,,5,9,-4,1,0,0,rectangle,9,-4,1,0,0,9,-4,1,0,0,1,1,161,11,1,,,,,,,,
,,,,,,,,,,,,,FF,,,,,,,,0.6499,,,,,,,,,,,,,,,,,,,,,,5d8d5938657c76001d72805c,61036a68d26b3edfe4dfec3f,2021-07-29_20h59.29.607,Simcolourproject_2stim_asymm_v5,2020.2.10,Win32,60,61025ae37ef11b136ea224fe,,,,,,,,,112,94,-38,1,0,0,response3disk,,5,10,-6,1,0,0,rectangle,10,-6,1,0,0,10,-6,1,0,0,1,2,162,77,1,,,,,,,,
,,,,,,,,,,,,,FF,,,,,,,,0.45,,,,,,,,,,,,,,,,,,,,,,5d8d5938657c76001d72805c,61036a68d26b3edfe4dfec3f,2021-07-29_20h59.29.607,Simcolourproject_2stim_asymm_v5,2020.2.10,Win32,60,61025ae37ef11b136ea224fe,,,,,,,,,1492,81,-34,1,0,0,response3disk,,5,-14,1,1,0,0,rectangle,-14,1,1,0,0,-14,1,1,0,0,1,3,163,86,1,,,,,,,,
,,,,,,,,,,,,,FF,,,,,,,,0.7329,,,,,,,,,,,,,,,,,,,,,,5d8d5938657c76001d72805c,61036a68d26b3edfe4dfec3f,2021-07-29_20h59.29.607,Simcolourproject_2stim_asymm_v5,2020.2.10,Win32,60,61025ae37ef11b136ea224fe,,,,,,,,,2803,57,-25,1,0,0,response3disk,,5,12,-2,1,0,0,rectangle,12,-2,1,0,0,12,-2,1,0,0,1,4,164,139,1,,,,,,,,
,,,,,,,,,,,,,FF,,,,,,,,1.7661,,,,,,,,,,,,,,,,,,,,,,5d8d5938657c76001d72805c,61036a68d26b3edfe4dfec3f,2021-07-29_20h59.29.607,Simcolourproject_2stim_asymm_v5,2020.2.10,Win32,60,61025ae37ef11b136ea224fe,,,,,,,,,2426,31,-75,1,0,0,response3disk,,4,-7,2,1,0,0,rectangle,-7,2,1,0,0,-7,2,1,0,0,1,5,165,8,1,,,,,,,,
,,,,,,,,,,,,,FF,,,,,,,,0.6998,,,,,,,,,,,,,,,,,,,,,,5d8d5938657c76001d72805c,61036a68d26b3edfe4dfec3f,2021-07-29_20h59.29.607,Simcolourproject_2stim_asymm_v5,2020.2.10,Win32,60,61025ae37ef11b136ea224fe,,,,,,,,,3422,74,-24,1,0,0,response3disk,,5,-3,2,1,0,0,rectangle,-3,2,1,0,0,-3,2,1,0,0,1,6,166,143,1,,,,,,,,
,,,,,,,,,,,,,FF,,,,,,,,1.1494,,,,,,,,,,,,,,,,,,,,,,5d8d5938657c76001d72805c,61036a68d26b3edfe4dfec3f,2021-07-29_20h59.29.607,Simcolourproject_2stim_asymm_v5,2020.2.10,Win32,60,61025ae37ef11b136ea224fe,,,,,,,,,2131,81,38,1,0,0,response1disk,,6,3,4,1,0,0,rectangle,3,4,1,0,0,3,4,1,0,0,1,7,167,107,1,,,,,,,,
,,,,,,,,,,,,,FF,,,,,,,,0.5999,,,,,,,,,,,,,,,,,,,,,,5d8d5938657c76001d72805c,61036a68d26b3edfe4dfec3f,2021-07-29_20h59.29.607,Simcolourproject_2stim_asymm_v5,2020.2.10,Win32,60,61025ae37ef11b136ea224fe,,,,,,,,,2143,80,32,1,0,0,response1disk,,6,-11,-5,1,0,0,rectangle,-11,-5,1,0,0,-11,-5,1,0,0,1,8,168,10,1,,,,,,,,
,,,,,,,,,,,,,FF,,,,,,,,0.6332,,,,,,,,,,,,,,,,,,,,,,5d8d5938657c76001d72805c,61036a68d26b3edfe4dfec3f,2021-07-29_20h59.29.607,Simcolourproject_2stim_asymm_v5,2020.2.10,Win32,60,61025ae37ef11b136ea224fe,,,,,,,,,50,63,-41,1,0,0,response3disk,,5,-12,-8,1,0,0,rectangle,-12,-8,1,0,0,-12,-8,1,0,0,1,9,169,36,1,,,,,,,,
,,,,,,,,,,,,,FF,,,,,,,,1.6161,,,,,,,,,,,,,,,,,,,,,,5d8d5938657c76001d72805c,61036a68d26b3edfe4dfec3f,2021-07-29_20h59.29.607,Simcolourproject_2stim_asymm_v5,2020.2.10,Win32,60,61025ae37ef11b136ea224fe,,,,,,,,,418,67,-35,1,0,0,response3disk,,5,11,4,1,0,0,rectangle,11,4,1,0,0,11,4,1,0,0,1,10,170,121,1,,,,,,,,
,,,,,,,,,,,,,FF,,,,,,,,0.7166,,,,,,,,,,,,,,,,,,,,,,5d8d5938657c76001d72805c,61036a68d26b3edfe4dfec3f,2021-07-29_20h59.29.607,Simcolourproject_2stim_asymm_v5,2020.2.10,Win32,60,61025ae37ef11b136ea224fe,,,,,,,,,198,-27,-82,1,0,0,response5disk,,3,3,-6,1,0,0,rectangle,3,-6,1,0,0,3,-6,1,0,0,1,11,171,41,1,,,,,,,,
,,,,,,,,,,,,,FF,,,,,,,,1.4163,,,,,,,,,,,,,,,,,,,,,,5d8d5938657c76001d72805c,61036a68d26b3edfe4dfec3f,2021-07-29_20h59.29.607,Simcolourproject_2stim_asymm_v5,2020.2.10,Win32,60,61025ae37ef11b136ea224fe,,,,,,,,,2713,83,-42,1,0,0,response3disk,,5,0,-2,1,0,0,rectangle,0,-2,1,0,0,0,-2,1,0,0,1,12,172,80,1,,,,,,,,
,,,,,,,,,,,,,FF,,,,,,,,1.7662,,,,,,,,,,,,,,,,,,,,,,5d8d5938657c76001d72805c,61036a68d26b3edfe4dfec3f,2021-07-29_20h59.29.607,Simcolourproject_2stim_asymm_v5,2020.2.10,Win32,60,61025ae37ef11b136ea224fe,,,,,,,,,3118,35,-61,1,0,0,response3disk,,4,0,-7,1,0,0,rectangle,109,32,1,0,0,11,3,1,0,0,1,13,173,129,1,,response1disk_3,TRUE,6,6,"[110,118,188,320,321,139,281,228,64,174,41,78,252,195,18,147,8,159,58,144]",1.5994,rectangle
,,,,,,,,,,,,,FF,,,,,,,,2.4993,,,,,,,,,,,,,,,,,,,,,,5d8d5938657c76001d72805c,61036a68d26b3edfe4dfec3f,2021-07-29_20h59.29.607,Simcolourproject_2stim_asymm_v5,2020.2.10,Win32,60,61025ae37ef11b136ea224fe,,,,,,,,,3833,92,-39,1,0,0,response3disk,,5,-17,-1,1,0,0,rectangle,-17,-1,1,0,0,-17,-1,1,0,0,1,14,174,25,1,,,,,,,,
,,,,,,,,,,,,,FF,,,,,,,,0.7332,,,,,,,,,,,,,,,,,,,,,,5d8d5938657c76001d72805c,61036a68d26b3edfe4dfec3f,2021-07-29_20h59.29.607,Simcolourproject_2stim_asymm_v5,2020.2.10,Win32,60,61025ae37ef11b136ea224fe,,,,,,,,,2796,31,-88,1,0,0,response3disk,,4,3,-7,1,0,0,rectangle,3,-7,1,0,0,3,-7,1,0,0,1,15,175,138,1,,,,,,,,
,,,,,,,,,,,,,FF,,,,,,,,0.5163,,,,,,,,,,,,,,,,,,,,,,5d8d5938657c76001d72805c,61036a68d26b3edfe4dfec3f,2021-07-29_20h59.29.607,Simcolourproject_2stim_asymm_v5,2020.2.10,Win32,60,61025ae37ef11b136ea224fe,,,,,,,,,3820,74,-43,1,0,0,response3disk,,5,-4,-2,1,0,0,rectangle,-4,-2,1,0,0,-4,-2,1,0,0,1,16,176,28,1,,,,,,,,
,,,,,,,,,,,,,FF,,,,,,,,0.586,,,,,,,,,,,,,,,,,,,,,,5d8d5938657c76001d72805c,61036a68d26b3edfe4dfec3f,2021-07-29_20h59.29.607,Simcolourproject_2stim_asymm_v5,2020.2.10,Win32,60,61025ae37ef11b136ea224fe,,,,,,,,,2635,81,36,1,0,0,response1disk,,6,1,3,1,0,0,rectangle,1,3,1,0,0,1,3,1,0,0,1,17,177,89,1,,,,,,,,
,,,,,,,,,,,,,FF,,,,,,,,0.6332,,,,,,,,,,,,,,,,,,,,,,5d8d5938657c76001d72805c,61036a68d26b3edfe4dfec3f,2021-07-29_20h59.29.607,Simcolourproject_2stim_asymm_v5,2020.2.10,Win32,60,61025ae37ef11b136ea224fe,,,,,,,,,2534,73,31,1,0,0,response1disk,,6,2,3,1,0,0,rectangle,2,3,1,0,0,2,3,1,0,0,1,18,178,13,1,,,,,,,,
,,,,,,,,,,,,,FF,,,,,,,,1.1997,,,,,,,,,,,,,,,,,,,,,,5d8d5938657c76001d72805c,61036a68d26b3edfe4dfec3f,2021-07-29_20h59.29.607,Simcolourproject_2stim_asymm_v5,2020.2.10,Win32,60,61025ae37ef11b136ea224fe,,,,,,,,,1360,31,-90,1,0,0,response3disk,,4,-9,6,1,0,0,rectangle,-9,6,1,0,0,-9,6,1,0,0,1,19,179,153,1,,,,,,,,
,,,,,,,,,,,,,FF,,,,,,,,0.8998,,,,,,,,,,,,,,,,,,,,,,5d8d5938657c76001d72805c,61036a68d26b3edfe4dfec3f,2021-07-29_20h59.29.607,Simcolourproject_2stim_asymm_v5,2020.2.10,Win32,60,61025ae37ef11b136ea224fe,,,,,,,,,1597,-77,-35,1,0,0,response5disk,,2,5,11,1,0,0,rectangle,5,11,1,0,0,5,11,1,0,0,1,20,180,15,1,,,,,,,,
,,,,,,,,,,,,,FF,,,,,,,,0.5329,,,,,,,,,,,,,,,,,,,,,,5d8d5938657c76001d72805c,61036a68d26b3edfe4dfec3f,2021-07-29_20h59.29.607,Simcolourproject_2stim_asymm_v5,2020.2.10,Win32,60,61025ae37ef11b136ea224fe,,,,,,,,,207,72,-42,1,0,0,response3disk,,5,-1,4,1,0,0,rectangle,-1,4,1,0,0,-1,4,1,0,0,1,21,181,144,1,,,,,,,,
,,,,,,,,,,,,,FF,,,,,,,,0.8828,,,,,,,,,,,,,,,,,,,,,,5d8d5938657c76001d72805c,61036a68d26b3edfe4dfec3f,2021-07-29_20h59.29.607,Simcolourproject_2stim_asymm_v5,2020.2.10,Win32,60,61025ae37ef11b136ea224fe,,,,,,,,,3838,82,-36,1,0,0,response3disk,,5,10,0,1,0,0,rectangle,10,0,1,0,0,10,0,1,0,0,1,22,182,78,1,,,,,,,,
,,,,,,,,,,,,,FF,,,,,,,,11.2966,,,,,,,,,,,,,,,,,,,,,,5d8d5938657c76001d72805c,61036a68d26b3edfe4dfec3f,2021-07-29_20h59.29.607,Simcolourproject_2stim_asymm_v5,2020.2.10,Win32,60,61025ae37ef11b136ea224fe,,,,,,,,,2070,63,-26,1,0,0,response3disk,,5,-7,5,1,0,0,rectangle,-7,5,1,0,0,-7,5,1,0,0,1,23,183,47,1,,,,,,,,
,,,,,,,,,,,,,FF,,,,,,,,0.8164,,,,,,,,,,,,,,,,,,,,,,5d8d5938657c76001d72805c,61036a68d26b3edfe4dfec3f,2021-07-29_20h59.29.607,Simcolourproject_2stim_asymm_v5,2020.2.10,Win32,60,61025ae37ef11b136ea224fe,,,,,,,,,2439,90,-46,1,0,0,response3disk,,5,-8,-3,1,0,0,rectangle,-8,-3,1,0,0,-8,-3,1,0,0,1,24,184,104,1,,,,,,,,
,,,,,,,,,,,,,FF,,,,,,,,0.8166,,,,,,,,,,,,,,,,,,,,,,5d8d5938657c76001d72805c,61036a68d26b3edfe4dfec3f,2021-07-29_20h59.29.607,Simcolourproject_2stim_asymm_v5,2020.2.10,Win32,60,61025ae37ef11b136ea224fe,,,,,,,,,1518,31,-72,1,0,0,response3disk,,4,-9,-4,1,0,0,rectangle,-9,-4,1,0,0,-9,-4,1,0,0,1,25,185,99,1,,,,,,,,
,,,,,,,,,,,,,FF,,,,,,,,0.4666,,,,,,,,,,,,,,,,,,,,,,5d8d5938657c76001d72805c,61036a68d26b3edfe4dfec3f,2021-07-29_20h59.29.607,Simcolourproject_2stim_asymm_v5,2020.2.10,Win32,60,61025ae37ef11b136ea224fe,,,,,,,,,1094,71,-47,1,0,0,response3disk,,5,11,-1,1,0,0,rectangle,11,-1,1,0,0,11,-1,1,0,0,1,26,186,33,1,,,,,,,,
,,,,,,,,,,,,,FF,,,,,,,,0.4999,,,,,,,,,,,,,,,,,,,,,,5d8d5938657c76001d72805c,61036a68d26b3edfe4dfec3f,2021-07-29_20h59.29.607,Simcolourproject_2stim_asymm_v5,2020.2.10,Win32,60,61025ae37ef11b136ea224fe,,,,,,,,,1936,72,-36,1,0,0,response3disk,,5,2,-5,1,0,0,rectangle,88,-37,1,0,0,3,8,1,0,0,1,27,187,60,1,,response3disk_3,TRUE,5,5,"[110,118,188,320,321,139,281,228,64,174,41,78,252,195,18,147,8,159,58,144]",1.4327,rectangle
,,,,,,,,,,,,,FF,,,,,,,,1.0168,,,,,,,,,,,,,,,,,,,,,,5d8d5938657c76001d72805c,61036a68d26b3edfe4dfec3f,2021-07-29_20h59.29.607,Simcolourproject_2stim_asymm_v5,2020.2.10,Win32,60,61025ae37ef11b136ea224fe,,,,,,,,,4202,72,-24,1,0,0,response3disk,,5,20,0,1,0,0,rectangle,20,0,1,0,0,20,0,1,0,0,1,28,188,103,1,,,,,,,,
,,,,,,,,,,,,,FF,,,,,,,,0.9001,,,,,,,,,,,,,,,,,,,,,,5d8d5938657c76001d72805c,61036a68d26b3edfe4dfec3f,2021-07-29_20h59.29.607,Simcolourproject_2stim_asymm_v5,2020.2.10,Win32,60,61025ae37ef11b136ea224fe,,,,,,,,,2618,70,-28,1,0,0,response3disk,,5,-1,-6,1,0,0,rectangle,-1,-6,1,0,0,-1,-6,1,0,0,1,29,189,58,1,,,,,,,,
,,,,,,,,,,,,,FF,,,,,,,,0.8332,,,,,,,,,,,,,,,,,,,,,,5d8d5938657c76001d72805c,61036a68d26b3edfe4dfec3f,2021-07-29_20h59.29.607,Simcolourproject_2stim_asymm_v5,2020.2.10,Win32,60,61025ae37ef11b136ea224fe,,,,,,,,,2553,-33,-88,1,0,0,response5disk,,3,4,6,1,0,0,rectangle,4,6,1,0,0,4,6,1,0,0,1,30,190,134,1,,,,,,,,
,,,,,,,,,,,,,FF,,,,,,,,0.6169,,,,,,,,,,,,,,,,,,,,,,5d8d5938657c76001d72805c,61036a68d26b3edfe4dfec3f,2021-07-29_20h59.29.607,Simcolourproject_2stim_asymm_v5,2020.2.10,Win32,60,61025ae37ef11b136ea224fe,,,,,,,,,2170,-30,-80,1,0,0,response5disk,,3,5,6,1,0,0,rectangle,5,6,1,0,0,5,6,1,0,0,1,31,191,151,1,,,,,,,,
,,,,,,,,,,,,,FF,,,,,,,,0.6164,,,,,,,,,,,,,,,,,,,,,,5d8d5938657c76001d72805c,61036a68d26b3edfe4dfec3f,2021-07-29_20h59.29.607,Simcolourproject_2stim_asymm_v5,2020.2.10,Win32,60,61025ae37ef11b136ea224fe,,,,,,,,,4297,28,-84,1,0,0,response3disk,,4,2,-12,1,0,0,rectangle,2,-12,1,0,0,2,-12,1,0,0,1,32,192,37,1,,,,,,,,
,,,,,,,,,,,,,FF,,,,,,,,0.4333,,,,,,,,,,,,,,,,,,,,,,5d8d5938657c76001d72805c,61036a68d26b3edfe4dfec3f,2021-07-29_20h59.29.607,Simcolourproject_2stim_asymm_v5,2020.2.10,Win32,60,61025ae37ef11b136ea224fe,,,,,,,,,1787,30,-64,1,0,0,response3disk,,4,10,-7,1,0,0,rectangle,10,-7,1,0,0,10,-7,1,0,0,1,33,193,93,1,,,,,,,,
,,,,,,,,,,,,,FF,,,,,,,,0.3997,,,,,,,,,,,,,,,,,,,,,,5d8d5938657c76001d72805c,61036a68d26b3edfe4dfec3f,2021-07-29_20h59.29.607,Simcolourproject_2stim_asymm_v5,2020.2.10,Win32,60,61025ae37ef11b136ea224fe,,,,,,,,,1844,80,-47,1,0,0,response3disk,,5,1,8,1,0,0,rectangle,-80,-25,1,0,0,8,-3,1,0,0,1,34,194,42,1,,response5disk_3,TRUE,2,2,"[110,118,188,320,321,139,281,228,64,174,41,78,252,195,18,147,8,159,58,144]",1.6826,rectangle
,,,,,,,,,,,,,FF,,,,,,,,0.9497,,,,,,,,,,,,,,,,,,,,,,5d8d5938657c76001d72805c,61036a68d26b3edfe4dfec3f,2021-07-29_20h59.29.607,Simcolourproject_2stim_asymm_v5,2020.2.10,Win32,60,61025ae37ef11b136ea224fe,,,,,,,,,2007,88,-32,1,0,0,response3disk,,5,11,-5,1,0,0,rectangle,11,-5,1,0,0,11,-5,1,0,0,1,35,195,6,1,,,,,,,,
,,,,,,,,,,,,,FF,,,,,,,,0.6667,,,,,,,,,,,,,,,,,,,,,,5d8d5938657c76001d72805c,61036a68d26b3edfe4dfec3f,2021-07-29_20h59.29.607,Simcolourproject_2stim_asymm_v5,2020.2.10,Win32,60,61025ae37ef11b136ea224fe,,,,,,,,,1471,84,-37,1,0,0,response3disk,,5,10,4,1,0,0,rectangle,10,4,1,0,0,10,4,1,0,0,1,36,196,148,1,,,,,,,,
,,,,,,,,,,,,,FF,,,,,,,,0.4662,,,,,,,,,,,,,,,,,,,,,,5d8d5938657c76001d72805c,61036a68d26b3edfe4dfec3f,2021-07-29_20h59.29.607,Simcolourproject_2stim_asymm_v5,2020.2.10,Win32,60,61025ae37ef11b136ea224fe,,,,,,,,,3263,36,-60,1,0,0,response3disk,,4,4,0,1,0,0,rectangle,4,0,1,0,0,4,0,1,0,0,1,37,197,120,1,,,,,,,,
,,,,,,,,,,,,,FF,,,,,,,,0.4832,,,,,,,,,,,,,,,,,,,,,,5d8d5938657c76001d72805c,61036a68d26b3edfe4dfec3f,2021-07-29_20h59.29.607,Simcolourproject_2stim_asymm_v5,2020.2.10,Win32,60,61025ae37ef11b136ea224fe,,,,,,,,,2710,26,-63,1,0,0,response3disk,,4,6,-6,1,0,0,rectangle,6,-6,1,0,0,6,-6,1,0,0,1,38,198,67,1,,,,,,,,
,,,,,,,,,,,,,FF,,,,,,,,0.5666,,,,,,,,,,,,,,,,,,,,,,5d8d5938657c76001d72805c,61036a68d26b3edfe4dfec3f,2021-07-29_20h59.29.607,Simcolourproject_2stim_asymm_v5,2020.2.10,Win32,60,61025ae37ef11b136ea224fe,,,,,,,,,4246,30,-59,1,0,0,response3disk,,4,-1,-6,1,0,0,rectangle,-1,-6,1,0,0,-1,-6,1,0,0,1,39,199,155,1,,,,,,,,
,,,,,,,,,,,,,FF,,,,,,,,1.0996,,,,,,,,,,,,,,,,,,,,,,5d8d5938657c76001d72805c,61036a68d26b3edfe4dfec3f,2021-07-29_20h59.29.607,Simcolourproject_2stim_asymm_v5,2020.2.10,Win32,60,61025ae37ef11b136ea224fe,,,,,,,,,1026,71,-34,1,0,0,response3disk,,5,3,2,1,0,0,rectangle,3,2,1,0,0,3,2,1,0,0,1,40,200,79,1,,,,,,,,
,,,,,,,,,,,,,FF,,,,,,,,1.5994,,,,,,,,,,,,,,,,,,,,,,5d8d5938657c76001d72805c,61036a68d26b3edfe4dfec3f,2021-07-29_20h59.29.607,Simcolourproject_2stim_asymm_v5,2020.2.10,Win32,60,61025ae37ef11b136ea224fe,,,,,,,,,4181,-80,-32,1,0,0,response5disk,,2,8,-6,1,0,0,rectangle,8,-6,1,0,0,8,-6,1,0,0,1,41,201,98,1,,,,,,,,
,,,,,,,,,,,,,FF,,,,,,,,4.0153,,,,,,,,,,,,,,,,,,,,,,5d8d5938657c76001d72805c,61036a68d26b3edfe4dfec3f,2021-07-29_20h59.29.607,Simcolourproject_2stim_asymm_v5,2020.2.10,Win32,60,61025ae37ef11b136ea224fe,,,,,,,,,1633,84,-29,1,0,0,response3disk,,5,12,-1,1,0,0,rectangle,12,-1,1,0,0,12,-1,1,0,0,1,42,202,157,1,,,,,,,,
,,,,,,,,,,,,,FF,,,,,,,,1.4332,,,,,,,,,,,,,,,,,,,,,,5d8d5938657c76001d72805c,61036a68d26b3edfe4dfec3f,2021-07-29_20h59.29.607,Simcolourproject_2stim_asymm_v5,2020.2.10,Win32,60,61025ae37ef11b136ea224fe,,,,,,,,,2314,-34,-93,1,0,0,response5disk,,3,7,6,1,0,0,rectangle,7,6,1,0,0,7,6,1,0,0,1,43,203,113,1,,,,,,,,
,,,,,,,,,,,,,FF,,,,,,,,0.6831,,,,,,,,,,,,,,,,,,,,,,5d8d5938657c76001d72805c,61036a68d26b3edfe4dfec3f,2021-07-29_20h59.29.607,Simcolourproject_2stim_asymm_v5,2020.2.10,Win32,60,61025ae37ef11b136ea224fe,,,,,,,,,2268,-35,-90,1,0,0,response5disk,,3,-1,-5,1,0,0,rectangle,-1,-5,1,0,0,-1,-5,1,0,0,1,44,204,146,1,,,,,,,,
,,,,,,,,,,,,,FF,,,,,,,,0.7829,,,,,,,,,,,,,,,,,,,,,,5d8d5938657c76001d72805c,61036a68d26b3edfe4dfec3f,2021-07-29_20h59.29.607,Simcolourproject_2stim_asymm_v5,2020.2.10,Win32,60,61025ae37ef11b136ea224fe,,,,,,,,,707,50,100,1,0,0,response1disk,,7,0,0,1,0,0,rectangle,0,0,1,0,0,0,0,1,0,0,1,45,205,88,1,,,,,,,,
,,,,,,,,,,,,,FF,,,,,,,,0.8995,,,,,,,,,,,,,,,,,,,,,,5d8d5938657c76001d72805c,61036a68d26b3edfe4dfec3f,2021-07-29_20h59.29.607,Simcolourproject_2stim_asymm_v5,2020.2.10,Win32,60,61025ae37ef11b136ea224fe,,,,,,,,,1848,67,-42,1,0,0,response3disk,,5,-9,2,1,0,0,rectangle,-9,2,1,0,0,-9,2,1,0,0,1,46,206,21,1,,,,,,,,
,,,,,,,,,,,,,FF,,,,,,,,0.9831,,,,,,,,,,,,,,,,,,,,,,5d8d5938657c76001d72805c,61036a68d26b3edfe4dfec3f,2021-07-29_20h59.29.607,Simcolourproject_2stim_asymm_v5,2020.2.10,Win32,60,61025ae37ef11b136ea224fe,,,,,,,,,1291,-47,101,1,0,0,response7disk,,0,-7,-2,1,0,0,rectangle,-7,-2,1,0,0,-7,-2,1,0,0,1,47,207,1,1,,,,,,,,
,,,,,,,,,,,,,FF,,,,,,,,4.282,,,,,,,,,,,,,,,,,,,,,,5d8d5938657c76001d72805c,61036a68d26b3edfe4dfec3f,2021-07-29_20h59.29.607,Simcolourproject_2stim_asymm_v5,2020.2.10,Win32,60,61025ae37ef11b136ea224fe,,,,,,,,,168,-32,-96,1,0,0,response5disk,,3,6,1,1,0,0,rectangle,6,1,1,0,0,6,1,1,0,0,1,48,208,96,1,,,,,,,,
,,,,,,,,,,,,,FF,,,,,,,,1.1302,,,,,,,,,,,,,,,,,,,,,,5d8d5938657c76001d72805c,61036a68d26b3edfe4dfec3f,2021-07-29_20h59.29.607,Simcolourproject_2stim_asymm_v5,2020.2.10,Win32,60,61025ae37ef11b136ea224fe,,,,,,,,,171,-78,45,1,0,0,response7disk,,1,4,3,1,0,0,rectangle,4,3,1,0,0,4,3,1,0,0,1,49,209,106,1,,,,,,,,
,,,,,,,,,,,,,FF,,,,,,,,0.9165,,,,,,,,,,,,,,,,,,,,,,5d8d5938657c76001d72805c,61036a68d26b3edfe4dfec3f,2021-07-29_20h59.29.607,Simcolourproject_2stim_asymm_v5,2020.2.10,Win32,60,61025ae37ef11b136ea224fe,,,,,,,,,1166,-91,-23,1,0,0,response5disk,,2,-14,-4,1,0,0,rectangle,-14,-4,1,0,0,-14,-4,1,0,0,1,50,210,17,1,,,,,,,,
,,,,,,,,,,,,,FF,,,,,,,,0.933,,,,,,,,,,,,,,,,,,,,,,5d8d5938657c76001d72805c,61036a68d26b3edfe4dfec3f,2021-07-29_20h59.29.607,Simcolourproject_2stim_asymm_v5,2020.2.10,Win32,60,61025ae37ef11b136ea224fe,,,,,,,,,3628,28,-79,1,0,0,response3disk,,4,0,11,1,0,0,rectangle,0,11,1,0,0,0,11,1,0,0,1,51,211,53,1,,,,,,,,
,,,,,,,,,,,,,FF,,,,,,,,0.6333,,,,,,,,,,,,,,,,,,,,,,5d8d5938657c76001d72805c,61036a68d26b3edfe4dfec3f,2021-07-29_20h59.29.607,Simcolourproject_2stim_asymm_v5,2020.2.10,Win32,60,61025ae37ef11b136ea224fe,,,,,,,,,3246,27,-73,1,0,0,response3disk,,4,-8,3,1,0,0,rectangle,-8,3,1,0,0,-8,3,1,0,0,1,52,212,32,1,,,,,,,,
,,,,,,,,,,,,,FF,,,,,,,,1.2662,,,,,,,,,,,,,,,,,,,,,,5d8d5938657c76001d72805c,61036a68d26b3edfe4dfec3f,2021-07-29_20h59.29.607,Simcolourproject_2stim_asymm_v5,2020.2.10,Win32,60,61025ae37ef11b136ea224fe,,,,,,,,,873,-79,-30,1,0,0,response5disk,,2,-5,3,1,0,0,rectangle,-5,3,1,0,0,-5,3,1,0,0,1,53,213,65,1,,,,,,,,
,,,,,,,,,,,,,FF,,,,,,,,0.6499,,,,,,,,,,,,,,,,,,,,,,5d8d5938657c76001d72805c,61036a68d26b3edfe4dfec3f,2021-07-29_20h59.29.607,Simcolourproject_2stim_asymm_v5,2020.2.10,Win32,60,61025ae37ef11b136ea224fe,,,,,,,,,1459,-77,53,1,0,0,response7disk,,1,-7,12,1,0,0,rectangle,-7,12,1,0,0,-7,12,1,0,0,1,54,214,126,1,,,,,,,,
,,,,,,,,,,,,,FF,,,,,,,,0.8002,,,,,,,,,,,,,,,,,,,,,,5d8d5938657c76001d72805c,61036a68d26b3edfe4dfec3f,2021-07-29_20h59.29.607,Simcolourproject_2stim_asymm_v5,2020.2.10,Win32,60,61025ae37ef11b136ea224fe,,,,,,,,,3395,-31,83,1,0,0,response7disk,,0,8,5,1,0,0,rectangle,8,5,1,0,0,8,5,1,0,0,1,55,215,72,1,,,,,,,,
,,,,,,,,,,,,,FF,,,,,,,,0.8329,,,,,,,,,,,,,,,,,,,,,,5d8d5938657c76001d72805c,61036a68d26b3edfe4dfec3f,2021-07-29_20h59.29.607,Simcolourproject_2stim_asymm_v5,2020.2.10,Win32,60,61025ae37ef11b136ea224fe,,,,,,,,,1490,19,-77,1,0,0,response3disk,,4,-1,4,1,0,0,rectangle,-1,4,1,0,0,-1,4,1,0,0,1,56,216,82,1,,,,,,,,
,,,,,,,,,,,,,FF,,,,,,,,0.5666,,,,,,,,,,,,,,,,,,,,,,5d8d5938657c76001d72805c,61036a68d26b3edfe4dfec3f,2021-07-29_20h59.29.607,Simcolourproject_2stim_asymm_v5,2020.2.10,Win32,60,61025ae37ef11b136ea224fe,,,,,,,,,3404,77,-37,1,0,0,response3disk,,5,2,11,1,0,0,rectangle,2,11,1,0,0,2,11,1,0,0,1,57,217,74,1,,,,,,,,
,,,,,,,,,,,,,FF,,,,,,,,0.683,,,,,,,,,,,,,,,,,,,,,,5d8d5938657c76001d72805c,61036a68d26b3edfe4dfec3f,2021-07-29_20h59.29.607,Simcolourproject_2stim_asymm_v5,2020.2.10,Win32,60,61025ae37ef11b136ea224fe,,,,,,,,,2692,79,27,1,0,0,response1disk,,6,-5,-12,1,0,0,rectangle,-5,-12,1,0,0,-5,-12,1,0,0,1,58,218,63,1,,,,,,,,
,,,,,,,,,,,,,FF,,,,,,,,0.9499,,,,,,,,,,,,,,,,,,,,,,5d8d5938657c76001d72805c,61036a68d26b3edfe4dfec3f,2021-07-29_20h59.29.607,Simcolourproject_2stim_asymm_v5,2020.2.10,Win32,60,61025ae37ef11b136ea224fe,,,,,,,,,1008,76,-50,1,0,0,response3disk,,5,0,-7,1,0,0,rectangle,0,-7,1,0,0,0,-7,1,0,0,1,59,219,20,1,,,,,,,,
,,,,,,,,,,,,,FF,,,,,,,,0.8165,,,,,,,,,,,,,,,,,,,,,,5d8d5938657c76001d72805c,61036a68d26b3edfe4dfec3f,2021-07-29_20h59.29.607,Simcolourproject_2stim_asymm_v5,2020.2.10,Win32,60,61025ae37ef11b136ea224fe,,,,,,,,,2703,77,-49,1,0,0,response3disk,,5,-17,4,1,0,0,rectangle,-17,4,1,0,0,-17,4,1,0,0,1,60,220,100,1,,,,,,,,
,,,,,,,,,,,,,FF,,,,,,,,0.6999,,,,,,,,,,,,,,,,,,,,,,5d8d5938657c76001d72805c,61036a68d26b3edfe4dfec3f,2021-07-29_20h59.29.607,Simcolourproject_2stim_asymm_v5,2020.2.10,Win32,60,61025ae37ef11b136ea224fe,,,,,,,,,702,-61,95,1,0,0,response7disk,,0,-7,-6,1,0,0,rectangle,-7,-6,1,0,0,-7,-6,1,0,0,1,61,221,2,1,,,,,,,,
,,,,,,,,,,,,,FF,,,,,,,,0.5999,,,,,,,,,,,,,,,,,,,,,,5d8d5938657c76001d72805c,61036a68d26b3edfe4dfec3f,2021-07-29_20h59.29.607,Simcolourproject_2stim_asymm_v5,2020.2.10,Win32,60,61025ae37ef11b136ea224fe,,,,,,,,,3600,38,-91,1,0,0,response3disk,,4,8,-8,1,0,0,rectangle,8,-8,1,0,0,8,-8,1,0,0,1,62,222,46,1,,,,,,,,
,,,,,,,,,,,,,FF,,,,,,,,1.7164,,,,,,,,,,,,,,,,,,,,,,5d8d5938657c76001d72805c,61036a68d26b3edfe4dfec3f,2021-07-29_20h59.29.607,Simcolourproject_2stim_asymm_v5,2020.2.10,Win32,60,61025ae37ef11b136ea224fe,,,,,,,,,88,84,-31,1,0,0,response3disk,,5,12,10,1,0,0,rectangle,12,10,1,0,0,12,10,1,0,0,1,63,223,18,1,,,,,,,,
,,,,,,,,,,,,,FF,,,,,,,,1.033,,,,,,,,,,,,,,,,,,,,,,5d8d5938657c76001d72805c,61036a68d26b3edfe4dfec3f,2021-07-29_20h59.29.607,Simcolourproject_2stim_asymm_v5,2020.2.10,Win32,60,61025ae37ef11b136ea224fe,,,,,,,,,2733,-77,-40,1,0,0,response5disk,,2,-20,0,1,0,0,rectangle,-20,0,1,0,0,-20,0,1,0,0,1,64,224,29,1,,,,,,,,
,,,,,,,,,,,,,FF,,,,,,,,0.5663,,,,,,,,,,,,,,,,,,,,,,5d8d5938657c76001d72805c,61036a68d26b3edfe4dfec3f,2021-07-29_20h59.29.607,Simcolourproject_2stim_asymm_v5,2020.2.10,Win32,60,61025ae37ef11b136ea224fe,,,,,,,,,363,69,-46,1,0,0,response3disk,,5,14,-8,1,0,0,rectangle,14,-8,1,0,0,14,-8,1,0,0,1,65,225,154,1,,,,,,,,
,,,,,,,,,,,,,FF,,,,,,,,0.6498,,,,,,,,,,,,,,,,,,,,,,5d8d5938657c76001d72805c,61036a68d26b3edfe4dfec3f,2021-07-29_20h59.29.607,Simcolourproject_2stim_asymm_v5,2020.2.10,Win32,60,61025ae37ef11b136ea224fe,,,,,,,,,2737,89,-41,1,0,0,response3disk,,5,10,10,1,0,0,rectangle,10,10,1,0,0,10,10,1,0,0,1,66,226,91,1,,,,,,,,
,,,,,,,,,,,,,FF,,,,,,,,0.6498,,,,,,,,,,,,,,,,,,,,,,5d8d5938657c76001d72805c,61036a68d26b3edfe4dfec3f,2021-07-29_20h59.29.607,Simcolourproject_2stim_asymm_v5,2020.2.10,Win32,60,61025ae37ef11b136ea224fe,,,,,,,,,1117,75,-43,1,0,0,response3disk,,5,2,5,1,0,0,rectangle,-62,37,1,0,0,1,-5,1,0,0,1,67,227,145,1,,response7disk_3,TRUE,1,1,"[110,118,188,320,321,139,281,228,64,174,41,78,252,195,18,147,8,159,58,144]",1.1826,rectangle
,,,,,,,,,,,,,FF,,,,,,,,0.8499,,,,,,,,,,,,,,,,,,,,,,5d8d5938657c76001d72805c,61036a68d26b3edfe4dfec3f,2021-07-29_20h59.29.607,Simcolourproject_2stim_asymm_v5,2020.2.10,Win32,60,61025ae37ef11b136ea224fe,,,,,,,,,2902,-33,-74,1,0,0,response5disk,,3,6,-4,1,0,0,rectangle,6,-4,1,0,0,6,-4,1,0,0,1,68,228,23,1,,,,,,,,
,,,,,,,,,,,,,FF,,,,,,,,0.5499,,,,,,,,,,,,,,,,,,,,,,5d8d5938657c76001d72805c,61036a68d26b3edfe4dfec3f,2021-07-29_20h59.29.607,Simcolourproject_2stim_asymm_v5,2020.2.10,Win32,60,61025ae37ef11b136ea224fe,,,,,,,,,2639,75,-39,1,0,0,response3disk,,5,-1,-3,1,0,0,rectangle,-1,-3,1,0,0,-1,-3,1,0,0,1,69,229,130,1,,,,,,,,
,,,,,,,,,,,,,FF,,,,,,,,0.6332,,,,,,,,,,,,,,,,,,,,,,5d8d5938657c76001d72805c,61036a68d26b3edfe4dfec3f,2021-07-29_20h59.29.607,Simcolourproject_2stim_asymm_v5,2020.2.10,Win32,60,61025ae37ef11b136ea224fe,,,,,,,,,3988,83,-39,1,0,0,response3disk,,5,0,1,1,0,0,rectangle,0,1,1,0,0,0,1,1,0,0,1,70,230,158,1,,,,,,,,
,,,,,,,,,,,,,FF,,,,,,,,1.4498,,,,,,,,,,,,,,,,,,,,,,5d8d5938657c76001d72805c,61036a68d26b3edfe4dfec3f,2021-07-29_20h59.29.607,Simcolourproject_2stim_asymm_v5,2020.2.10,Win32,60,61025ae37ef11b136ea224fe,,,,,,,,,972,33,-76,1,0,0,response3disk,,4,0,0,1,0,0,rectangle,0,0,1,0,0,0,0,1,0,0,1,71,231,44,1,,,,,,,,
,,,,,,,,,,,,,FF,,,,,,,,1.216,,,,,,,,,,,,,,,,,,,,,,5d8d5938657c76001d72805c,61036a68d26b3edfe4dfec3f,2021-07-29_20h59.29.607,Simcolourproject_2stim_asymm_v5,2020.2.10,Win32,60,61025ae37ef11b136ea224fe,,,,,,,,,3113,38,-74,1,0,0,response3disk,,4,-9,0,1,0,0,rectangle,-9,0,1,0,0,-9,0,1,0,0,1,72,232,75,1,,,,,,,,
,,,,,,,,,,,,,FF,,,,,,,,0.45,,,,,,,,,,,,,,,,,,,,,,5d8d5938657c76001d72805c,61036a68d26b3edfe4dfec3f,2021-07-29_20h59.29.607,Simcolourproject_2stim_asymm_v5,2020.2.10,Win32,60,61025ae37ef11b136ea224fe,,,,,,,,,3878,23,-75,1,0,0,response3disk,,4,-1,-8,1,0,0,rectangle,-1,-8,1,0,0,-1,-8,1,0,0,1,73,233,92,1,,,,,,,,
,,,,,,,,,,,,,FF,,,,,,,,0.9497,,,,,,,,,,,,,,,,,,,,,,5d8d5938657c76001d72805c,61036a68d26b3edfe4dfec3f,2021-07-29_20h59.29.607,Simcolourproject_2stim_asymm_v5,2020.2.10,Win32,60,61025ae37ef11b136ea224fe,,,,,,,,,1553,92,30,1,0,0,response1disk,,6,-3,-4,1,0,0,rectangle,-3,-4,1,0,0,-3,-4,1,0,0,1,74,234,114,1,,,,,,,,
,,,,,,,,,,,,,FF,,,,,,,,0.6499,,,,,,,,,,,,,,,,,,,,,,5d8d5938657c76001d72805c,61036a68d26b3edfe4dfec3f,2021-07-29_20h59.29.607,Simcolourproject_2stim_asymm_v5,2020.2.10,Win32,60,61025ae37ef11b136ea224fe,,,,,,,,,1083,93,35,1,0,0,response1disk,,6,-2,1,1,0,0,rectangle,-2,1,1,0,0,-2,1,1,0,0,1,75,235,137,1,,,,,,,,
,,,,,,,,,,,,,FF,,,,,,,,0.4499,,,,,,,,,,,,,,,,,,,,,,5d8d5938657c76001d72805c,61036a68d26b3edfe4dfec3f,2021-07-29_20h59.29.607,Simcolourproject_2stim_asymm_v5,2020.2.10,Win32,60,61025ae37ef11b136ea224fe,,,,,,,,,3607,87,27,1,0,0,response1disk,,6,-11,7,1,0,0,rectangle,-11,7,1,0,0,-11,7,1,0,0,1,76,236,117,1,,,,,,,,
,,,,,,,,,,,,,FF,,,,,,,,0.9663,,,,,,,,,,,,,,,,,,,,,,5d8d5938657c76001d72805c,61036a68d26b3edfe4dfec3f,2021-07-29_20h59.29.607,Simcolourproject_2stim_asymm_v5,2020.2.10,Win32,60,61025ae37ef11b136ea224fe,,,,,,,,,175,34,-79,1,0,0,response3disk,,4,-2,2,1,0,0,rectangle,-2,2,1,0,0,-2,2,1,0,0,1,77,237,102,1,,,,,,,,
,,,,,,,,,,,,,FF,,,,,,,,0.6167,,,,,,,,,,,,,,,,,,,,,,5d8d5938657c76001d72805c,61036a68d26b3edfe4dfec3f,2021-07-29_20h59.29.607,Simcolourproject_2stim_asymm_v5,2020.2.10,Win32,60,61025ae37ef11b136ea224fe,,,,,,,,,3931,27,-70,1,0,0,response3disk,,4,-5,-3,1,0,0,rectangle,-5,-3,1,0,0,-5,-3,1,0,0,1,78,238,61,1,,,,,,,,
,,,,,,,,,,,,,FF,,,,,,,,0.8831,,,,,,,,,,,,,,,,,,,,,,5d8d5938657c76001d72805c,61036a68d26b3edfe4dfec3f,2021-07-29_20h59.29.607,Simcolourproject_2stim_asymm_v5,2020.2.10,Win32,60,61025ae37ef11b136ea224fe,,,,,,,,,336,34,-61,1,0,0,response3disk,,4,8,-3,1,0,0,rectangle,8,-3,1,0,0,8,-3,1,0,0,1,79,239,90,1,,,,,,,,
,,,,,,,,,,,,,FF,,,,,,,,2.4493,,,,,,,,,,,,,,,,,,,,,,5d8d5938657c76001d72805c,61036a68d26b3edfe4dfec3f,2021-07-29_20h59.29.607,Simcolourproject_2stim_asymm_v5,2020.2.10,Win32,60,61025ae37ef11b136ea224fe,,,,,,,,,3647,97,-28,1,0,0,response3disk,,5,-4,-1,1,0,0,rectangle,-4,-1,1,0,0,-4,-1,1,0,0,1,80,240,87,1,,,,,,,,
,,,,,,,,,,,,,FF,,,,,,,,1.033,,,,,,,,,,,,,,,,,,,,,,5d8d5938657c76001d72805c,61036a68d26b3edfe4dfec3f,2021-07-29_20h59.29.607,Simcolourproject_2stim_asymm_v5,2020.2.10,Win32,60,61025ae37ef11b136ea224fe,,,,,,,,,4342,52,96,1,0,0,response1disk,,7,-18,-3,1,0,0,rectangle,-18,-3,1,0,0,-18,-3,1,0,0,1,81,241,122,1,,,,,,,,
,,,,,,,,,,,,,FF,,,,,,,,0.6998,,,,,,,,,,,,,,,,,,,,,,5d8d5938657c76001d72805c,61036a68d26b3edfe4dfec3f,2021-07-29_20h59.29.607,Simcolourproject_2stim_asymm_v5,2020.2.10,Win32,60,61025ae37ef11b136ea224fe,,,,,,,,,684,65,-39,1,0,0,response3disk,,5,-2,-7,1,0,0,rectangle,-2,-7,1,0,0,-2,-7,1,0,0,1,82,242,9,1,,,,,,,,
,,,,,,,,,,,,,FF,,,,,,,,0.5,,,,,,,,,,,,,,,,,,,,,,5d8d5938657c76001d72805c,61036a68d26b3edfe4dfec3f,2021-07-29_20h59.29.607,Simcolourproject_2stim_asymm_v5,2020.2.10,Win32,60,61025ae37ef11b136ea224fe,,,,,,,,,3699,67,-42,1,0,0,response3disk,,5,-10,2,1,0,0,rectangle,-10,2,1,0,0,-10,2,1,0,0,1,83,243,57,1,,,,,,,,
,,,,,,,,,,,,,FF,,,,,,,,0.7,,,,,,,,,,,,,,,,,,,,,,5d8d5938657c76001d72805c,61036a68d26b3edfe4dfec3f,2021-07-29_20h59.29.607,Simcolourproject_2stim_asymm_v5,2020.2.10,Win32,60,61025ae37ef11b136ea224fe,,,,,,,,,3194,-31,-86,1,0,0,response5disk,,3,-14,10,1,0,0,rectangle,-14,10,1,0,0,-14,10,1,0,0,1,84,244,159,1,,,,,,,,
,,,,,,,,,,,,,FF,,,,,,,,0.4166,,,,,,,,,,,,,,,,,,,,,,5d8d5938657c76001d72805c,61036a68d26b3edfe4dfec3f,2021-07-29_20h59.29.607,Simcolourproject_2stim_asymm_v5,2020.2.10,Win32,60,61025ae37ef11b136ea224fe,,,,,,,,,3873,28,-67,1,0,0,response3disk,,4,-6,13,1,0,0,rectangle,-6,13,1,0,0,-6,13,1,0,0,1,85,245,125,1,,,,,,,,
,,,,,,,,,,,,,FF,,,,,,,,1.533,,,,,,,,,,,,,,,,,,,,,,5d8d5938657c76001d72805c,61036a68d26b3edfe4dfec3f,2021-07-29_20h59.29.607,Simcolourproject_2stim_asymm_v5,2020.2.10,Win32,60,61025ae37ef11b136ea224fe,,,,,,,,,402,40,-60,1,0,0,response3disk,,4,-1,-5,1,0,0,rectangle,-1,-5,1,0,0,-1,-5,1,0,0,1,86,246,141,1,,,,,,,,
,,,,,,,,,,,,,FF,,,,,,,,0.6498,,,,,,,,,,,,,,,,,,,,,,5d8d5938657c76001d72805c,61036a68d26b3edfe4dfec3f,2021-07-29_20h59.29.607,Simcolourproject_2stim_asymm_v5,2020.2.10,Win32,60,61025ae37ef11b136ea224fe,,,,,,,,,2404,45,-75,1,0,0,response3disk,,4,1,15,1,0,0,rectangle,1,15,1,0,0,1,15,1,0,0,1,87,247,156,1,,,,,,,,
,,,,,,,,,,,,,FF,,,,,,,,0.4663,,,,,,,,,,,,,,,,,,,,,,5d8d5938657c76001d72805c,61036a68d26b3edfe4dfec3f,2021-07-29_20h59.29.607,Simcolourproject_2stim_asymm_v5,2020.2.10,Win32,60,61025ae37ef11b136ea224fe,,,,,,,,,3627,32,-77,1,0,0,response3disk,,4,-2,7,1,0,0,rectangle,-2,7,1,0,0,-2,7,1,0,0,1,88,248,152,1,,,,,,,,
,,,,,,,,,,,,,FF,,,,,,,,0.7164,,,,,,,,,,,,,,,,,,,,,,5d8d5938657c76001d72805c,61036a68d26b3edfe4dfec3f,2021-07-29_20h59.29.607,Simcolourproject_2stim_asymm_v5,2020.2.10,Win32,60,61025ae37ef11b136ea224fe,,,,,,,,,2002,66,-36,1,0,0,response3disk,,5,13,4,1,0,0,rectangle,13,4,1,0,0,13,4,1,0,0,1,89,249,62,1,,,,,,,,
,,,,,,,,,,,,,FF,,,,,,,,0.7501,,,,,,,,,,,,,,,,,,,,,,5d8d5938657c76001d72805c,61036a68d26b3edfe4dfec3f,2021-07-29_20h59.29.607,Simcolourproject_2stim_asymm_v5,2020.2.10,Win32,60,61025ae37ef11b136ea224fe,,,,,,,,,3769,73,-27,1,0,0,response3disk,,5,8,6,1,0,0,rectangle,8,6,1,0,0,8,6,1,0,0,1,90,250,147,1,,,,,,,,
,,,,,,,,,,,,,FF,,,,,,,,0.733,,,,,,,,,,,,,,,,,,,,,,5d8d5938657c76001d72805c,61036a68d26b3edfe4dfec3f,2021-07-29_20h59.29.607,Simcolourproject_2stim_asymm_v5,2020.2.10,Win32,60,61025ae37ef11b136ea224fe,,,,,,,,,454,89,33,1,0,0,response1disk,,6,-2,8,1,0,0,rectangle,66,-23,1,0,0,7,-10,1,0,0,1,91,251,109,1,,response3disk_3,TRUE,5,5,"[110,118,188,320,321,139,281,228,64,174,41,78,252,195,18,147,8,159,58,144]",1.1159,rectangle
,,,,,,,,,,,,,FF,,,,,,,,1.566,,,,,,,,,,,,,,,,,,,,,,5d8d5938657c76001d72805c,61036a68d26b3edfe4dfec3f,2021-07-29_20h59.29.607,Simcolourproject_2stim_asymm_v5,2020.2.10,Win32,60,61025ae37ef11b136ea224fe,,,,,,,,,167,95,31,1,0,0,response1disk,,6,3,9,1,0,0,rectangle,3,9,1,0,0,3,9,1,0,0,1,92,252,97,1,,,,,,,,
,,,,,,,,,,,,,FF,,,,,,,,0.5833,,,,,,,,,,,,,,,,,,,,,,5d8d5938657c76001d72805c,61036a68d26b3edfe4dfec3f,2021-07-29_20h59.29.607,Simcolourproject_2stim_asymm_v5,2020.2.10,Win32,60,61025ae37ef11b136ea224fe,,,,,,,,,1320,82,-42,1,0,0,response3disk,,5,0,-9,1,0,0,rectangle,0,-9,1,0,0,0,-9,1,0,0,1,93,253,124,1,,,,,,,,
,,,,,,,,,,,,,FF,,,,,,,,0.6332,,,,,,,,,,,,,,,,,,,,,,5d8d5938657c76001d72805c,61036a68d26b3edfe4dfec3f,2021-07-29_20h59.29.607,Simcolourproject_2stim_asymm_v5,2020.2.10,Win32,60,61025ae37ef11b136ea224fe,,,,,,,,,4061,94,15,1,0,0,response1disk,,6,23,0,1,0,0,rectangle,23,0,1,0,0,23,0,1,0,0,1,94,254,66,1,,,,,,,,
,,,,,,,,,,,,,FF,,,,,,,,0.4332,,,,,,,,,,,,,,,,,,,,,,5d8d5938657c76001d72805c,61036a68d26b3edfe4dfec3f,2021-07-29_20h59.29.607,Simcolourproject_2stim_asymm_v5,2020.2.10,Win32,60,61025ae37ef11b136ea224fe,,,,,,,,,2316,96,27,1,0,0,response1disk,,6,1,-2,1,0,0,rectangle,1,-2,1,0,0,1,-2,1,0,0,1,95,255,83,1,,,,,,,,
,,,,,,,,,,,,,FF,,,,,,,,0.7333,,,,,,,,,,,,,,,,,,,,,,5d8d5938657c76001d72805c,61036a68d26b3edfe4dfec3f,2021-07-29_20h59.29.607,Simcolourproject_2stim_asymm_v5,2020.2.10,Win32,60,61025ae37ef11b136ea224fe,,,,,,,,,438,-39,-79,1,0,0,response5disk,,3,-6,3,1,0,0,rectangle,-6,3,1,0,0,-6,3,1,0,0,1,96,256,127,1,,,,,,,,
,,,,,,,,,,,,,FF,,,,,,,,0.5166,,,,,,,,,,,,,,,,,,,,,,5d8d5938657c76001d72805c,61036a68d26b3edfe4dfec3f,2021-07-29_20h59.29.607,Simcolourproject_2stim_asymm_v5,2020.2.10,Win32,60,61025ae37ef11b136ea224fe,,,,,,,,,2125,73,-33,1,0,0,response3disk,,5,5,-2,1,0,0,rectangle,5,-2,1,0,0,5,-2,1,0,0,1,97,257,101,1,,,,,,,,
,,,,,,,,,,,,,FF,,,,,,,,0.5998,,,,,,,,,,,,,,,,,,,,,,5d8d5938657c76001d72805c,61036a68d26b3edfe4dfec3f,2021-07-29_20h59.29.607,Simcolourproject_2stim_asymm_v5,2020.2.10,Win32,60,61025ae37ef11b136ea224fe,,,,,,,,,4290,80,-32,1,0,0,response3disk,,5,13,8,1,0,0,rectangle,13,8,1,0,0,13,8,1,0,0,1,98,258,115,1,,,,,,,,
,,,,,,,,,,,,,FF,,,,,,,,0.5666,,,,,,,,,,,,,,,,,,,,,,5d8d5938657c76001d72805c,61036a68d26b3edfe4dfec3f,2021-07-29_20h59.29.607,Simcolourproject_2stim_asymm_v5,2020.2.10,Win32,60,61025ae37ef11b136ea224fe,,,,,,,,,1453,-70,-32,1,0,0,response5disk,,2,-8,2,1,0,0,rectangle,-8,2,1,0,0,-8,2,1,0,0,1,99,259,76,1,,,,,,,,
,,,,,,,,,,,,,FF,,,,,,,,0.4666,,,,,,,,,,,,,,,,,,,,,,5d8d5938657c76001d72805c,61036a68d26b3edfe4dfec3f,2021-07-29_20h59.29.607,Simcolourproject_2stim_asymm_v5,2020.2.10,Win32,60,61025ae37ef11b136ea224fe,,,,,,,,,3794,80,-26,1,0,0,response3disk,,5,-3,10,1,0,0,rectangle,-3,10,1,0,0,-3,10,1,0,0,1,100,260,132,1,,,,,,,,
,,,,,,,,,,,,,FF,,,,,,,,0.4499,,,,,,,,,,,,,,,,,,,,,,5d8d5938657c76001d72805c,61036a68d26b3edfe4dfec3f,2021-07-29_20h59.29.607,Simcolourproject_2stim_asymm_v5,2020.2.10,Win32,60,61025ae37ef11b136ea224fe,,,,,,,,,739,60,-36,1,0,0,response3disk,,5,0,7,1,0,0,rectangle,0,7,1,0,0,0,7,1,0,0,1,101,261,68,1,,,,,,,,
,,,,,,,,,,,,,FF,,,,,,,,0.9163,,,,,,,,,,,,,,,,,,,,,,5d8d5938657c76001d72805c,61036a68d26b3edfe4dfec3f,2021-07-29_20h59.29.607,Simcolourproject_2stim_asymm_v5,2020.2.10,Win32,60,61025ae37ef11b136ea224fe,,,,,,,,,1592,35,-75,1,0,0,response3disk,,4,1,-12,1,0,0,rectangle,1,-12,1,0,0,1,-12,1,0,0,1,102,262,27,1,,,,,,,,
,,,,,,,,,,,,,FF,,,,,,,,0.933,,,,,,,,,,,,,,,,,,,,,,5d8d5938657c76001d72805c,61036a68d26b3edfe4dfec3f,2021-07-29_20h59.29.607,Simcolourproject_2stim_asymm_v5,2020.2.10,Win32,60,61025ae37ef11b136ea224fe,,,,,,,,,713,-82,-41,1,0,0,response5disk,,2,-12,1,1,0,0,rectangle,-12,1,1,0,0,-12,1,1,0,0,1,103,263,136,1,,,,,,,,
,,,,,,,,,,,,,FF,,,,,,,,0.702,,,,,,,,,,,,,,,,,,,,,,5d8d5938657c76001d72805c,61036a68d26b3edfe4dfec3f,2021-07-29_20h59.29.607,Simcolourproject_2stim_asymm_v5,2020.2.10,Win32,60,61025ae37ef11b136ea224fe,,,,,,,,,2883,40,-73,1,0,0,response3disk,,4,-9,3,1,0,0,rectangle,-9,3,1,0,0,-9,3,1,0,0,1,104,264,16,1,,,,,,,,
,,,,,,,,,,,,,FF,,,,,,,,1.2031,,,,,,,,,,,,,,,,,,,,,,5d8d5938657c76001d72805c,61036a68d26b3edfe4dfec3f,2021-07-29_20h59.29.607,Simcolourproject_2stim_asymm_v5,2020.2.10,Win32,60,61025ae37ef11b136ea224fe,,,,,,,,,3503,78,-34,1,0,0,response3disk,,5,-4,8,1,0,0,rectangle,-4,8,1,0,0,-4,8,1,0,0,1,105,265,128,1,,,,,,,,
,,,,,,,,,,,,,FF,,,,,,,,0.9995,,,,,,,,,,,,,,,,,,,,,,5d8d5938657c76001d72805c,61036a68d26b3edfe4dfec3f,2021-07-29_20h59.29.607,Simcolourproject_2stim_asymm_v5,2020.2.10,Win32,60,61025ae37ef11b136ea224fe,,,,,,,,,2254,-85,-44,1,0,0,response5disk,,2,-4,3,1,0,0,rectangle,-4,3,1,0,0,-4,3,1,0,0,1,106,266,95,1,,,,,,,,
,,,,,,,,,,,,,FF,,,,,,,,0.8331,,,,,,,,,,,,,,,,,,,,,,5d8d5938657c76001d72805c,61036a68d26b3edfe4dfec3f,2021-07-29_20h59.29.607,Simcolourproject_2stim_asymm_v5,2020.2.10,Win32,60,61025ae37ef11b136ea224fe,,,,,,,,,1552,77,-44,1,0,0,response3disk,,5,-2,7,1,0,0,rectangle,-2,7,1,0,0,-2,7,1,0,0,1,107,267,38,1,,,,,,,,
,,,,,,,,,,,,,FF,,,,,,,,0.8334,,,,,,,,,,,,,,,,,,,,,,5d8d5938657c76001d72805c,61036a68d26b3edfe4dfec3f,2021-07-29_20h59.29.607,Simcolourproject_2stim_asymm_v5,2020.2.10,Win32,60,61025ae37ef11b136ea224fe,,,,,,,,,1250,-18,-73,1,0,0,response5disk,,3,13,5,1,0,0,rectangle,13,5,1,0,0,13,5,1,0,0,1,108,268,59,1,,,,,,,,
,,,,,,,,,,,,,FF,,,,,,,,0.8496,,,,,,,,,,,,,,,,,,,,,,5d8d5938657c76001d72805c,61036a68d26b3edfe4dfec3f,2021-07-29_20h59.29.607,Simcolourproject_2stim_asymm_v5,2020.2.10,Win32,60,61025ae37ef11b136ea224fe,,,,,,,,,886,-80,40,1,0,0,response7disk,,1,-2,10,1,0,0,rectangle,-2,10,1,0,0,-2,10,1,0,0,1,109,269,140,1,,,,,,,,
,,,,,,,,,,,,,FF,,,,,,,,1.1164,,,,,,,,,,,,,,,,,,,,,,5d8d5938657c76001d72805c,61036a68d26b3edfe4dfec3f,2021-07-29_20h59.29.607,Simcolourproject_2stim_asymm_v5,2020.2.10,Win32,60,61025ae37ef11b136ea224fe,,,,,,,,,2263,32,-72,1,0,0,response3disk,,4,0,9,1,0,0,rectangle,0,9,1,0,0,0,9,1,0,0,1,110,270,54,1,,,,,,,,
,,,,,,,,,,,,,FF,,,,,,,,1.4829,,,,,,,,,,,,,,,,,,,,,,5d8d5938657c76001d72805c,61036a68d26b3edfe4dfec3f,2021-07-29_20h59.29.607,Simcolourproject_2stim_asymm_v5,2020.2.10,Win32,60,61025ae37ef11b136ea224fe,,,,,,,,,3919,79,27,1,0,0,response1disk,,6,-7,7,1,0,0,rectangle,-7,7,1,0,0,-7,7,1,0,0,1,111,271,35,1,,,,,,,,
,,,,,,,,,,,,,FF,,,,,,,,0.8498,,,,,,,,,,,,,,,,,,,,,,5d8d5938657c76001d72805c,61036a68d26b3edfe4dfec3f,2021-07-29_20h59.29.607,Simcolourproject_2stim_asymm_v5,2020.2.10,Win32,60,61025ae37ef11b136ea224fe,,,,,,,,,476,80,25,1,0,0,response1disk,,6,5,-6,1,0,0,rectangle,5,-6,1,0,0,5,-6,1,0,0,1,112,272,116,1,,,,,,,,
,,,,,,,,,,,,,FF,,,,,,,,2.0662,,,,,,,,,,,,,,,,,,,,,,5d8d5938657c76001d72805c,61036a68d26b3edfe4dfec3f,2021-07-29_20h59.29.607,Simcolourproject_2stim_asymm_v5,2020.2.10,Win32,60,61025ae37ef11b136ea224fe,,,,,,,,,2280,74,-29,1,0,0,response3disk,,5,9,-9,1,0,0,rectangle,9,-9,1,0,0,9,-9,1,0,0,1,113,273,22,1,,,,,,,,
,,,,,,,,,,,,,FF,,,,,,,,1.5329,,,,,,,,,,,,,,,,,,,,,,5d8d5938657c76001d72805c,61036a68d26b3edfe4dfec3f,2021-07-29_20h59.29.607,Simcolourproject_2stim_asymm_v5,2020.2.10,Win32,60,61025ae37ef11b136ea224fe,,,,,,,,,387,56,-32,1,0,0,response3disk,,5,-16,-1,1,0,0,rectangle,-16,-1,1,0,0,-16,-1,1,0,0,1,114,274,55,1,,,,,,,,
,,,,,,,,,,,,,FF,,,,,,,,0.6332,,,,,,,,,,,,,,,,,,,,,,5d8d5938657c76001d72805c,61036a68d26b3edfe4dfec3f,2021-07-29_20h59.29.607,Simcolourproject_2stim_asymm_v5,2020.2.10,Win32,60,61025ae37ef11b136ea224fe,,,,,,,,,1751,-69,-41,1,0,0,response5disk,,2,-7,2,1,0,0,rectangle,-7,2,1,0,0,-7,2,1,0,0,1,115,275,14,1,,,,,,,,
,,,,,,,,,,,,,FF,,,,,,,,0.7833,,,,,,,,,,,,,,,,,,,,,,5d8d5938657c76001d72805c,61036a68d26b3edfe4dfec3f,2021-07-29_20h59.29.607,Simcolourproject_2stim_asymm_v5,2020.2.10,Win32,60,61025ae37ef11b136ea224fe,,,,,,,,,653,-25,-61,1,0,0,response5disk,,3,2,0,1,0,0,rectangle,2,0,1,0,0,2,0,1,0,0,1,116,276,112,1,,,,,,,,
,,,,,,,,,,,,,FF,,,,,,,,0.8665,,,,,,,,,,,,,,,,,,,,,,5d8d5938657c76001d72805c,61036a68d26b3edfe4dfec3f,2021-07-29_20h59.29.607,Simcolourproject_2stim_asymm_v5,2020.2.10,Win32,60,61025ae37ef11b136ea224fe,,,,,,,,,664,72,-39,1,0,0,response3disk,,5,-8,7,1,0,0,rectangle,-8,7,1,0,0,-8,7,1,0,0,1,117,277,24,1,,,,,,,,
,,,,,,,,,,,,,FF,,,,,,,,0.7832,,,,,,,,,,,,,,,,,,,,,,5d8d5938657c76001d72805c,61036a68d26b3edfe4dfec3f,2021-07-29_20h59.29.607,Simcolourproject_2stim_asymm_v5,2020.2.10,Win32,60,61025ae37ef11b136ea224fe,,,,,,,,,1,-28,-60,1,0,0,response5disk,,3,0,-1,1,0,0,rectangle,0,-1,1,0,0,0,-1,1,0,0,1,118,278,30,1,,,,,,,,
,,,,,,,,,,,,,FF,,,,,,,,0.8164,,,,,,,,,,,,,,,,,,,,,,5d8d5938657c76001d72805c,61036a68d26b3edfe4dfec3f,2021-07-29_20h59.29.607,Simcolourproject_2stim_asymm_v5,2020.2.10,Win32,60,61025ae37ef11b136ea224fe,,,,,,,,,1785,59,-25,1,0,0,response3disk,,5,13,-12,1,0,0,rectangle,13,-12,1,0,0,13,-12,1,0,0,1,119,279,81,1,,,,,,,,
,,,,,,,,,,,,,FF,,,,,,,,0.6997,,,,,,,,,,,,,,,,,,,,,,5d8d5938657c76001d72805c,61036a68d26b3edfe4dfec3f,2021-07-29_20h59.29.607,Simcolourproject_2stim_asymm_v5,2020.2.10,Win32,60,61025ae37ef11b136ea224fe,,,,,,,,,4182,33,-76,1,0,0,response3disk,,4,-4,-6,1,0,0,rectangle,-27,-68,1,0,0,-11,-5,1,0,0,1,120,280,3,1,,response5disk_3,TRUE,3,3,"[110,118,188,320,321,139,281,228,64,174,41,78,252,195,18,147,8,159,58,144]",1.3824,rectangle
,,,,,,,,,,,,,FF,,,,,,,,0.7499,,,,,,,,,,,,,,,,,,,,,,5d8d5938657c76001d72805c,61036a68d26b3edfe4dfec3f,2021-07-29_20h59.29.607,Simcolourproject_2stim_asymm_v5,2020.2.10,Win32,60,61025ae37ef11b136ea224fe,,,,,,,,,247,54,-35,1,0,0,response3disk,,5,-9,4,1,0,0,rectangle,-9,4,1,0,0,-9,4,1,0,0,1,121,281,19,1,,,,,,,,
,,,,,,,,,,,,,FF,,,,,,,,3.0155,,,,,,,,,,,,,,,,,,,,,,5d8d5938657c76001d72805c,61036a68d26b3edfe4dfec3f,2021-07-29_20h59.29.607,Simcolourproject_2stim_asymm_v5,2020.2.10,Win32,60,61025ae37ef11b136ea224fe,,,,,,,,,2466,64,-49,1,0,0,response3disk,,5,1,4,1,0,0,rectangle,1,4,1,0,0,1,4,1,0,0,1,122,282,31,1,,,,,,,,
,,,,,,,,,,,,,FF,,,,,,,,0.5664,,,,,,,,,,,,,,,,,,,,,,5d8d5938657c76001d72805c,61036a68d26b3edfe4dfec3f,2021-07-29_20h59.29.607,Simcolourproject_2stim_asymm_v5,2020.2.10,Win32,60,61025ae37ef11b136ea224fe,,,,,,,,,3101,-34,-68,1,0,0,response5disk,,3,-9,-6,1,0,0,rectangle,-9,-6,1,0,0,-9,-6,1,0,0,1,123,283,73,1,,,,,,,,
,,,,,,,,,,,,,FF,,,,,,,,0.816,,,,,,,,,,,,,,,,,,,,,,5d8d5938657c76001d72805c,61036a68d26b3edfe4dfec3f,2021-07-29_20h59.29.607,Simcolourproject_2stim_asymm_v5,2020.2.10,Win32,60,61025ae37ef11b136ea224fe,,,,,,,,,743,45,-84,1,0,0,response3disk,,4,-2,-11,1,0,0,rectangle,-2,-11,1,0,0,-2,-11,1,0,0,1,124,284,0,1,,,,,,,,
,,,,,,,,,,,,,FF,,,,,,,,0.8831,,,,,,,,,,,,,,,,,,,,,,5d8d5938657c76001d72805c,61036a68d26b3edfe4dfec3f,2021-07-29_20h59.29.607,Simcolourproject_2stim_asymm_v5,2020.2.10,Win32,60,61025ae37ef11b136ea224fe,,,,,,,,,3204,-71,-52,1,0,0,response5disk,,2,-19,-1,1,0,0,rectangle,-19,-1,1,0,0,-19,-1,1,0,0,1,125,285,105,1,,,,,,,,
,,,,,,,,,,,,,FF,,,,,,,,0.4999,,,,,,,,,,,,,,,,,,,,,,5d8d5938657c76001d72805c,61036a68d26b3edfe4dfec3f,2021-07-29_20h59.29.607,Simcolourproject_2stim_asymm_v5,2020.2.10,Win32,60,61025ae37ef11b136ea224fe,,,,,,,,,143,70,-45,1,0,0,response3disk,,5,5,1,1,0,0,rectangle,5,1,1,0,0,5,1,1,0,0,1,126,286,56,1,,,,,,,,
,,,,,,,,,,,,,FF,,,,,,,,0.5831,,,,,,,,,,,,,,,,,,,,,,5d8d5938657c76001d72805c,61036a68d26b3edfe4dfec3f,2021-07-29_20h59.29.607,Simcolourproject_2stim_asymm_v5,2020.2.10,Win32,60,61025ae37ef11b136ea224fe,,,,,,,,,2723,-35,-64,1,0,0,response5disk,,3,-11,-11,1,0,0,rectangle,-11,-11,1,0,0,-11,-11,1,0,0,1,127,287,5,1,,,,,,,,
,,,,,,,,,,,,,FF,,,,,,,,0.5,,,,,,,,,,,,,,,,,,,,,,5d8d5938657c76001d72805c,61036a68d26b3edfe4dfec3f,2021-07-29_20h59.29.607,Simcolourproject_2stim_asymm_v5,2020.2.10,Win32,60,61025ae37ef11b136ea224fe,,,,,,,,,3080,-43,-71,1,0,0,response5disk,,3,-10,0,1,0,0,rectangle,-10,0,1,0,0,-10,0,1,0,0,1,128,288,26,1,,,,,,,,
,,,,,,,,,,,,,FF,,,,,,,,0.5165,,,,,,,,,,,,,,,,,,,,,,5d8d5938657c76001d72805c,61036a68d26b3edfe4dfec3f,2021-07-29_20h59.29.607,Simcolourproject_2stim_asymm_v5,2020.2.10,Win32,60,61025ae37ef11b136ea224fe,,,,,,,,,2339,42,-69,1,0,0,response3disk,,4,-6,1,1,0,0,rectangle,-6,1,1,0,0,-6,1,1,0,0,1,129,289,71,1,,,,,,,,
,,,,,,,,,,,,,FF,,,,,,,,0.3662,,,,,,,,,,,,,,,,,,,,,,5d8d5938657c76001d72805c,61036a68d26b3edfe4dfec3f,2021-07-29_20h59.29.607,Simcolourproject_2stim_asymm_v5,2020.2.10,Win32,60,61025ae37ef11b136ea224fe,,,,,,,,,3611,79,-37,1,0,0,response3disk,,5,9,5,1,0,0,rectangle,9,5,1,0,0,9,5,1,0,0,1,130,290,142,1,,,,,,,,
,,,,,,,,,,,,,FF,,,,,,,,0.4667,,,,,,,,,,,,,,,,,,,,,,5d8d5938657c76001d72805c,61036a68d26b3edfe4dfec3f,2021-07-29_20h59.29.607,Simcolourproject_2stim_asymm_v5,2020.2.10,Win32,60,61025ae37ef11b136ea224fe,,,,,,,,,1087,90,23,1,0,0,response1disk,,6,2,-2,1,0,0,rectangle,2,-2,1,0,0,2,-2,1,0,0,1,131,291,48,1,,,,,,,,
,,,,,,,,,,,,,FF,,,,,,,,0.433,,,,,,,,,,,,,,,,,,,,,,5d8d5938657c76001d72805c,61036a68d26b3edfe4dfec3f,2021-07-29_20h59.29.607,Simcolourproject_2stim_asymm_v5,2020.2.10,Win32,60,61025ae37ef11b136ea224fe,,,,,,,,,881,71,-31,1,0,0,response3disk,,5,0,10,1,0,0,rectangle,0,10,1,0,0,0,10,1,0,0,1,132,292,39,1,,,,,,,,
,,,,,,,,,,,,,FF,,,,,,,,0.5165,,,,,,,,,,,,,,,,,,,,,,5d8d5938657c76001d72805c,61036a68d26b3edfe4dfec3f,2021-07-29_20h59.29.607,Simcolourproject_2stim_asymm_v5,2020.2.10,Win32,60,61025ae37ef11b136ea224fe,,,,,,,,,1392,40,-68,1,0,0,response3disk,,4,0,6,1,0,0,rectangle,0,6,1,0,0,0,6,1,0,0,1,133,293,45,1,,,,,,,,
,,,,,,,,,,,,,FF,,,,,,,,0.766,,,,,,,,,,,,,,,,,,,,,,5d8d5938657c76001d72805c,61036a68d26b3edfe4dfec3f,2021-07-29_20h59.29.607,Simcolourproject_2stim_asymm_v5,2020.2.10,Win32,60,61025ae37ef11b136ea224fe,,,,,,,,,858,60,-32,1,0,0,response3disk,,5,0,5,1,0,0,rectangle,0,5,1,0,0,0,5,1,0,0,1,134,294,12,1,,,,,,,,
,,,,,,,,,,,,,FF,,,,,,,,0.4832,,,,,,,,,,,,,,,,,,,,,,5d8d5938657c76001d72805c,61036a68d26b3edfe4dfec3f,2021-07-29_20h59.29.607,Simcolourproject_2stim_asymm_v5,2020.2.10,Win32,60,61025ae37ef11b136ea224fe,,,,,,,,,20,75,26,1,0,0,response1disk,,6,-2,4,1,0,0,rectangle,-2,4,1,0,0,-2,4,1,0,0,1,135,295,110,1,,,,,,,,
,,,,,,,,,,,,,FF,,,,,,,,0.5998,,,,,,,,,,,,,,,,,,,,,,5d8d5938657c76001d72805c,61036a68d26b3edfe4dfec3f,2021-07-29_20h59.29.607,Simcolourproject_2stim_asymm_v5,2020.2.10,Win32,60,61025ae37ef11b136ea224fe,,,,,,,,,630,-89,-36,1,0,0,response5disk,,2,-10,7,1,0,0,rectangle,-10,7,1,0,0,-10,7,1,0,0,1,136,296,111,1,,,,,,,,
,,,,,,,,,,,,,FF,,,,,,,,0.7999,,,,,,,,,,,,,,,,,,,,,,5d8d5938657c76001d72805c,61036a68d26b3edfe4dfec3f,2021-07-29_20h59.29.607,Simcolourproject_2stim_asymm_v5,2020.2.10,Win32,60,61025ae37ef11b136ea224fe,,,,,,,,,1971,-32,-53,1,0,0,response5disk,,3,4,-6,1,0,0,rectangle,4,-6,1,0,0,4,-6,1,0,0,1,137,297,118,1,,,,,,,,
,,,,,,,,,,,,,FF,,,,,,,,0.5499,,,,,,,,,,,,,,,,,,,,,,5d8d5938657c76001d72805c,61036a68d26b3edfe4dfec3f,2021-07-29_20h59.29.607,Simcolourproject_2stim_asymm_v5,2020.2.10,Win32,60,61025ae37ef11b136ea224fe,,,,,,,,,2227,-30,-49,1,0,0,response5disk,,3,7,-1,1,0,0,rectangle,7,-1,1,0,0,7,-1,1,0,0,1,138,298,70,1,,,,,,,,
,,,,,,,,,,,,,FF,,,,,,,,0.5331,,,,,,,,,,,,,,,,,,,,,,5d8d5938657c76001d72805c,61036a68d26b3edfe4dfec3f,2021-07-29_20h59.29.607,Simcolourproject_2stim_asymm_v5,2020.2.10,Win32,60,61025ae37ef11b136ea224fe,,,,,,,,,3311,64,-34,1,0,0,response3disk,,5,18,-4,1,0,0,rectangle,18,-4,1,0,0,18,-4,1,0,0,1,139,299,64,1,,,,,,,,
,,,,,,,,,,,,,FF,,,,,,,,0.6163,,,,,,,,,,,,,,,,,,,,,,5d8d5938657c76001d72805c,61036a68d26b3edfe4dfec3f,2021-07-29_20h59.29.607,Simcolourproject_2stim_asymm_v5,2020.2.10,Win32,60,61025ae37ef11b136ea224fe,,,,,,,,,2948,-29,-64,1,0,0,response5disk,,3,-2,15,1,0,0,rectangle,-2,15,1,0,0,-2,15,1,0,0,1,140,300,119,1,,,,,,,,
,,,,,,,,,,,,,FF,,,,,,,,0.7332,,,,,,,,,,,,,,,,,,,,,,5d8d5938657c76001d72805c,61036a68d26b3edfe4dfec3f,2021-07-29_20h59.29.607,Simcolourproject_2stim_asymm_v5,2020.2.10,Win32,60,61025ae37ef11b136ea224fe,,,,,,,,,2795,83,-29,1,0,0,response3disk,,5,9,1,1,0,0,rectangle,9,1,1,0,0,9,1,1,0,0,1,141,301,43,1,,,,,,,,
,,,,,,,,,,,,,FF,,,,,,,,0.6832,,,,,,,,,,,,,,,,,,,,,,5d8d5938657c76001d72805c,61036a68d26b3edfe4dfec3f,2021-07-29_20h59.29.607,Simcolourproject_2stim_asymm_v5,2020.2.10,Win32,60,61025ae37ef11b136ea224fe,,,,,,,,,4022,-38,-76,1,0,0,response5disk,,3,1,8,1,0,0,rectangle,1,8,1,0,0,1,8,1,0,0,1,142,302,150,1,,,,,,,,
,,,,,,,,,,,,,FF,,,,,,,,0.7331,,,,,,,,,,,,,,,,,,,,,,5d8d5938657c76001d72805c,61036a68d26b3edfe4dfec3f,2021-07-29_20h59.29.607,Simcolourproject_2stim_asymm_v5,2020.2.10,Win32,60,61025ae37ef11b136ea224fe,,,,,,,,,727,30,-61,1,0,0,response3disk,,4,-5,7,1,0,0,rectangle,-5,7,1,0,0,-5,7,1,0,0,1,143,303,84,1,,,,,,,,
