key_resp.keys,key_resp.rt,key_resp_14.keys,key_resp_14.rt,key_resp_15.keys,key_resp_15.rt,key_resp_17.keys,key_resp_17.rt,key_resp_9.keys,key_resp_9.rt,key_resp_10.keys,key_resp_10.rt,practice_comparison,Ecc,mouse_5.x,mouse_5.y,mouse_5.leftButton,mouse_5.midButton,mouse_5.rightButton,mouse_5.clicked_name,pracsimilarity,response_time,mouse_10.x,mouse_10.y,mouse_10.leftButton,mouse_10.midButton,mouse_10.rightButton,mouse_10.clicked_name,mouse_7.x,mouse_7.y,mouse_7.leftButton,mouse_7.midButton,mouse_7.rightButton,mouse_6.x,mouse_6.y,mouse_6.leftButton,mouse_6.midButton,mouse_6.rightButton,duringprac.thisRepN,duringprac.thisTrialN,duringprac.thisN,duringprac.thisIndex,duringprac.ran,participant,session,date,expName,psychopyVersion,OS,frameRate,study_id,mouse_7.clicked_name,catchpracsimilarity,catch_response_time,catchnumberprac,catchtrialorderprac,mouse_6.clicked_name,key_resp_22.keys,key_resp_22.rt,realcomparison,mouse.x,mouse.y,mouse.leftButton,mouse.midButton,mouse.rightButton,mouse.clicked_name,Colour2,similarity,mouse_2.x,mouse_2.y,mouse_2.leftButton,mouse_2.midButton,mouse_2.rightButton,mouse_2.clicked_name,mouse_3.x,mouse_3.y,mouse_3.leftButton,mouse_3.midButton,mouse_3.rightButton,mouse_11.x,mouse_11.y,mouse_11.leftButton,mouse_11.midButton,mouse_11.rightButton,trials_2.thisRepN,trials_2.thisTrialN,trials_2.thisN,trials_2.thisIndex,trials_2.ran,Colour1,mouse_3.clicked_name,catchornah,catchsimilarity,catchnumber,catchtrialorder,catchRT,mouse_11.clicked_name
space,1.551,space,10.791,space,28.329,space,12.784,space,1.306,space,2.853,99,PF,122,91,1,0,0,response1disk_5,6,10.327,-7,11,1,0,0,rectangle_8,-7,11,1,0,0,-7,11,1,0,0,0,0,0,1,1,5e3a069ef4b5e1000d04b724,61036b4516c09a78a6b32e7a,2021-07-30_13h01.18.538,Simcolourproject_2stim_asymm_v5,2020.2.10,Win32,60,61025ae37ef11b136ea224fe,,,,,,,,,,,,,,,,,,,,,,,,,,,,,,,,,,,,,,,,,,,,,,
,,,,,,,,,,,,23,PF,42,-108,1,0,0,response3disk_5,4,4.705,4,-5,1,0,0,rectangle_8,-119,-65,1,0,0,14,-2,1,0,0,0,1,1,2,1,5e3a069ef4b5e1000d04b724,61036b4516c09a78a6b32e7a,2021-07-30_13h01.18.538,Simcolourproject_2stim_asymm_v5,2020.2.10,Win32,60,61025ae37ef11b136ea224fe,response5disk_7,2,2.084,2,"[2,5]",rectangle_4,,,,,,,,,,,,,,,,,,,,,,,,,,,,,,,,,,,,,,,,
,,,,,,,,,,,,148,PF,51,-28,1,0,0,response3disk_5,5,3.387,8,-2,1,0,0,rectangle_8,8,-2,1,0,0,8,-2,1,0,0,0,2,2,6,1,5e3a069ef4b5e1000d04b724,61036b4516c09a78a6b32e7a,2021-07-30_13h01.18.538,Simcolourproject_2stim_asymm_v5,2020.2.10,Win32,60,61025ae37ef11b136ea224fe,,,,,,,,,,,,,,,,,,,,,,,,,,,,,,,,,,,,,,,,,,,,,,
,,,,,,,,,,,,11,FF,-70,-107,1,0,0,response5disk_5,3,6.157,3,5,1,0,0,rectangle_8,3,5,1,0,0,3,5,1,0,0,0,3,3,5,1,5e3a069ef4b5e1000d04b724,61036b4516c09a78a6b32e7a,2021-07-30_13h01.18.538,Simcolourproject_2stim_asymm_v5,2020.2.10,Win32,60,61025ae37ef11b136ea224fe,,,,,,,,,,,,,,,,,,,,,,,,,,,,,,,,,,,,,,,,,,,,,,
,,,,,,,,,,,,100,PF,38,93,1,0,0,response1disk_5,7,1.668,-4,8,1,0,0,rectangle_8,-99,-59,1,0,0,2,8,1,0,0,0,4,4,4,1,5e3a069ef4b5e1000d04b724,61036b4516c09a78a6b32e7a,2021-07-30_13h01.18.538,Simcolourproject_2stim_asymm_v5,2020.2.10,Win32,60,61025ae37ef11b136ea224fe,response5disk_7,2,1.983,2,"[2,5]",rectangle_4,,,,,,,,,,,,,,,,,,,,,,,,,,,,,,,,,,,,,,,,
,,,,,,,,,,,,71,FF,39,-123,1,0,0,response3disk_5,4,3.837,-5,1,1,0,0,rectangle_8,-5,1,1,0,0,-5,1,1,0,0,0,5,5,0,1,5e3a069ef4b5e1000d04b724,61036b4516c09a78a6b32e7a,2021-07-30_13h01.18.538,Simcolourproject_2stim_asymm_v5,2020.2.10,Win32,60,61025ae37ef11b136ea224fe,,,,,,,,,,,,,,,,,,,,,,,,,,,,,,,,,,,,,,,,,,,,,,
,,,,,,,,,,,,54,FF,-113,-47,1,0,0,response5disk_5,2,2.72,-13,-4,1,0,0,rectangle_8,-13,-4,1,0,0,-13,-4,1,0,0,0,6,6,3,1,5e3a069ef4b5e1000d04b724,61036b4516c09a78a6b32e7a,2021-07-30_13h01.18.538,Simcolourproject_2stim_asymm_v5,2020.2.10,Win32,60,61025ae37ef11b136ea224fe,,,,,,,,,,,,,,,,,,,,,,,,,,,,,,,,,,,,,,,,,,,,,,
,,,,,,,,,,,,,FF,,,,,,,,4.937,,,,,,,,,,,,,,,,,,,,,,5e3a069ef4b5e1000d04b724,61036b4516c09a78a6b32e7a,2021-07-30_13h01.18.538,Simcolourproject_2stim_asymm_v5,2020.2.10,Win32,60,61025ae37ef11b136ea224fe,,,,,,,space,2.674,1501,121,82,1,0,0,response1disk,,6,19,-7,1,0,0,rectangle,19,-7,1,0,0,19,-7,1,0,0,0,0,0,41,1,,,,,,,,
,,,,,,,,,,,,,FF,,,,,,,,1.685,,,,,,,,,,,,,,,,,,,,,,5e3a069ef4b5e1000d04b724,61036b4516c09a78a6b32e7a,2021-07-30_13h01.18.538,Simcolourproject_2stim_asymm_v5,2020.2.10,Win32,60,61025ae37ef11b136ea224fe,,,,,,,,,4330,-100,-29,1,0,0,response5disk,,2,-2,-4,1,0,0,rectangle,-2,-4,1,0,0,-2,-4,1,0,0,0,1,1,111,1,,,,,,,,
,,,,,,,,,,,,,FF,,,,,,,,1.452,,,,,,,,,,,,,,,,,,,,,,5e3a069ef4b5e1000d04b724,61036b4516c09a78a6b32e7a,2021-07-30_13h01.18.538,Simcolourproject_2stim_asymm_v5,2020.2.10,Win32,60,61025ae37ef11b136ea224fe,,,,,,,,,2701,88,-61,1,0,0,response3disk,,5,-15,3,1,0,0,rectangle,-15,3,1,0,0,-15,3,1,0,0,0,2,2,51,1,,,,,,,,
,,,,,,,,,,,,,FF,,,,,,,,2.218,,,,,,,,,,,,,,,,,,,,,,5e3a069ef4b5e1000d04b724,61036b4516c09a78a6b32e7a,2021-07-30_13h01.18.538,Simcolourproject_2stim_asymm_v5,2020.2.10,Win32,60,61025ae37ef11b136ea224fe,,,,,,,,,1995,115,51,1,0,0,response1disk,,6,31,-1,1,0,0,rectangle,31,-1,1,0,0,31,-1,1,0,0,0,3,3,40,1,,,,,,,,
,,,,,,,,,,,,,FF,,,,,,,,1.151,,,,,,,,,,,,,,,,,,,,,,5e3a069ef4b5e1000d04b724,61036b4516c09a78a6b32e7a,2021-07-30_13h01.18.538,Simcolourproject_2stim_asymm_v5,2020.2.10,Win32,60,61025ae37ef11b136ea224fe,,,,,,,,,3597,-94,-38,1,0,0,response5disk,,2,-6,1,1,0,0,rectangle,-6,1,1,0,0,-6,1,1,0,0,0,4,4,123,1,,,,,,,,
,,,,,,,,,,,,,FF,,,,,,,,1.469,,,,,,,,,,,,,,,,,,,,,,5e3a069ef4b5e1000d04b724,61036b4516c09a78a6b32e7a,2021-07-30_13h01.18.538,Simcolourproject_2stim_asymm_v5,2020.2.10,Win32,60,61025ae37ef11b136ea224fe,,,,,,,,,2738,41,93,1,0,0,response1disk,,7,2,7,1,0,0,rectangle,2,7,1,0,0,2,7,1,0,0,0,5,5,60,1,,,,,,,,
,,,,,,,,,,,,,FF,,,,,,,,0.817,,,,,,,,,,,,,,,,,,,,,,5e3a069ef4b5e1000d04b724,61036b4516c09a78a6b32e7a,2021-07-30_13h01.18.538,Simcolourproject_2stim_asymm_v5,2020.2.10,Win32,60,61025ae37ef11b136ea224fe,,,,,,,,,2133,53,107,1,0,0,response1disk,,7,8,-2,1,0,0,rectangle,8,-2,1,0,0,8,-2,1,0,0,0,6,6,75,1,,,,,,,,
,,,,,,,,,,,,,FF,,,,,,,,6.361,,,,,,,,,,,,,,,,,,,,,,5e3a069ef4b5e1000d04b724,61036b4516c09a78a6b32e7a,2021-07-30_13h01.18.538,Simcolourproject_2stim_asymm_v5,2020.2.10,Win32,60,61025ae37ef11b136ea224fe,,,,,,,,,1260,-54,-84,1,0,0,response5disk,,3,13,-7,1,0,0,rectangle,13,-7,1,0,0,13,-7,1,0,0,0,7,7,55,1,,,,,,,,
,,,,,,,,,,,,,FF,,,,,,,,2.953,,,,,,,,,,,,,,,,,,,,,,5e3a069ef4b5e1000d04b724,61036b4516c09a78a6b32e7a,2021-07-30_13h01.18.538,Simcolourproject_2stim_asymm_v5,2020.2.10,Win32,60,61025ae37ef11b136ea224fe,,,,,,,,,3459,77,103,1,0,0,response1disk,,7,-19,-6,1,0,0,rectangle,-19,-6,1,0,0,-19,-6,1,0,0,0,8,8,53,1,,,,,,,,
,,,,,,,,,,,,,FF,,,,,,,,1.84,,,,,,,,,,,,,,,,,,,,,,5e3a069ef4b5e1000d04b724,61036b4516c09a78a6b32e7a,2021-07-30_13h01.18.538,Simcolourproject_2stim_asymm_v5,2020.2.10,Win32,60,61025ae37ef11b136ea224fe,,,,,,,,,394,96,-46,1,0,0,response3disk,,5,9,-11,1,0,0,rectangle,9,-11,1,0,0,9,-11,1,0,0,0,9,9,147,1,,,,,,,,
,,,,,,,,,,,,,FF,,,,,,,,3.521,,,,,,,,,,,,,,,,,,,,,,5e3a069ef4b5e1000d04b724,61036b4516c09a78a6b32e7a,2021-07-30_13h01.18.538,Simcolourproject_2stim_asymm_v5,2020.2.10,Win32,60,61025ae37ef11b136ea224fe,,,,,,,,,3087,55,77,1,0,0,response1disk,,7,-8,1,1,0,0,rectangle,-8,1,1,0,0,-8,1,1,0,0,0,10,10,128,1,,,,,,,,
,,,,,,,,,,,,,FF,,,,,,,,1.869,,,,,,,,,,,,,,,,,,,,,,5e3a069ef4b5e1000d04b724,61036b4516c09a78a6b32e7a,2021-07-30_13h01.18.538,Simcolourproject_2stim_asymm_v5,2020.2.10,Win32,60,61025ae37ef11b136ea224fe,,,,,,,,,3761,-37,-88,1,0,0,response5disk,,3,8,-1,1,0,0,rectangle,8,-1,1,0,0,8,-1,1,0,0,0,11,11,38,1,,,,,,,,
,,,,,,,,,,,,,FF,,,,,,,,3.235,,,,,,,,,,,,,,,,,,,,,,5e3a069ef4b5e1000d04b724,61036b4516c09a78a6b32e7a,2021-07-30_13h01.18.538,Simcolourproject_2stim_asymm_v5,2020.2.10,Win32,60,61025ae37ef11b136ea224fe,,,,,,,,,3996,-62,-79,1,0,0,response5disk,,3,-16,-5,1,0,0,rectangle,-16,-5,1,0,0,-16,-5,1,0,0,0,12,12,137,1,,,,,,,,
,,,,,,,,,,,,,FF,,,,,,,,3.069,,,,,,,,,,,,,,,,,,,,,,5e3a069ef4b5e1000d04b724,61036b4516c09a78a6b32e7a,2021-07-30_13h01.18.538,Simcolourproject_2stim_asymm_v5,2020.2.10,Win32,60,61025ae37ef11b136ea224fe,,,,,,,,,500,106,33,1,0,0,response1disk,,6,-16,-7,1,0,0,rectangle,-16,-7,1,0,0,-16,-7,1,0,0,0,13,13,23,1,,,,,,,,
,,,,,,,,,,,,,FF,,,,,,,,1.202,,,,,,,,,,,,,,,,,,,,,,5e3a069ef4b5e1000d04b724,61036b4516c09a78a6b32e7a,2021-07-30_13h01.18.538,Simcolourproject_2stim_asymm_v5,2020.2.10,Win32,60,61025ae37ef11b136ea224fe,,,,,,,,,2931,89,44,1,0,0,response1disk,,6,38,9,1,0,0,rectangle,38,9,1,0,0,38,9,1,0,0,0,14,14,126,1,,,,,,,,
,,,,,,,,,,,,,FF,,,,,,,,1.42,,,,,,,,,,,,,,,,,,,,,,5e3a069ef4b5e1000d04b724,61036b4516c09a78a6b32e7a,2021-07-30_13h01.18.538,Simcolourproject_2stim_asymm_v5,2020.2.10,Win32,60,61025ae37ef11b136ea224fe,,,,,,,,,2233,-116,74,1,0,0,response7disk,,1,-25,6,1,0,0,rectangle,-25,6,1,0,0,-25,6,1,0,0,0,15,15,10,1,,,,,,,,
,,,,,,,,,,,,,FF,,,,,,,,1.401,,,,,,,,,,,,,,,,,,,,,,5e3a069ef4b5e1000d04b724,61036b4516c09a78a6b32e7a,2021-07-30_13h01.18.538,Simcolourproject_2stim_asymm_v5,2020.2.10,Win32,60,61025ae37ef11b136ea224fe,,,,,,,,,4207,-60,103,1,0,0,response7disk,,0,-5,0,1,0,0,rectangle,-5,0,1,0,0,-5,0,1,0,0,0,16,16,71,1,,,,,,,,
,,,,,,,,,,,,,FF,,,,,,,,0.984,,,,,,,,,,,,,,,,,,,,,,5e3a069ef4b5e1000d04b724,61036b4516c09a78a6b32e7a,2021-07-30_13h01.18.538,Simcolourproject_2stim_asymm_v5,2020.2.10,Win32,60,61025ae37ef11b136ea224fe,,,,,,,,,1892,-74,36,1,0,0,response7disk,,1,11,0,1,0,0,rectangle,11,0,1,0,0,11,0,1,0,0,0,17,17,26,1,,,,,,,,
,,,,,,,,,,,,,FF,,,,,,,,1.117,,,,,,,,,,,,,,,,,,,,,,5e3a069ef4b5e1000d04b724,61036b4516c09a78a6b32e7a,2021-07-30_13h01.18.538,Simcolourproject_2stim_asymm_v5,2020.2.10,Win32,60,61025ae37ef11b136ea224fe,,,,,,,,,3392,-104,-51,1,0,0,response5disk,,2,5,11,1,0,0,rectangle,5,11,1,0,0,5,11,1,0,0,0,18,18,9,1,,,,,,,,
,,,,,,,,,,,,,FF,,,,,,,,1.168,,,,,,,,,,,,,,,,,,,,,,5e3a069ef4b5e1000d04b724,61036b4516c09a78a6b32e7a,2021-07-30_13h01.18.538,Simcolourproject_2stim_asymm_v5,2020.2.10,Win32,60,61025ae37ef11b136ea224fe,,,,,,,,,2591,98,-42,1,0,0,response3disk,,5,11,-6,1,0,0,rectangle,11,-6,1,0,0,11,-6,1,0,0,0,19,19,70,1,,,,,,,,
,,,,,,,,,,,,,FF,,,,,,,,1.085,,,,,,,,,,,,,,,,,,,,,,5e3a069ef4b5e1000d04b724,61036b4516c09a78a6b32e7a,2021-07-30_13h01.18.538,Simcolourproject_2stim_asymm_v5,2020.2.10,Win32,60,61025ae37ef11b136ea224fe,,,,,,,,,2851,94,60,1,0,0,response1disk,,6,-7,-19,1,0,0,rectangle,-7,-19,1,0,0,-7,-19,1,0,0,0,20,20,135,1,,,,,,,,
,,,,,,,,,,,,,FF,,,,,,,,1.285,,,,,,,,,,,,,,,,,,,,,,5e3a069ef4b5e1000d04b724,61036b4516c09a78a6b32e7a,2021-07-30_13h01.18.538,Simcolourproject_2stim_asymm_v5,2020.2.10,Win32,60,61025ae37ef11b136ea224fe,,,,,,,,,29,62,26,1,0,0,response1disk,,6,14,-5,1,0,0,rectangle,14,-5,1,0,0,14,-5,1,0,0,0,21,21,154,1,,,,,,,,
,,,,,,,,,,,,,FF,,,,,,,,1.151,,,,,,,,,,,,,,,,,,,,,,5e3a069ef4b5e1000d04b724,61036b4516c09a78a6b32e7a,2021-07-30_13h01.18.538,Simcolourproject_2stim_asymm_v5,2020.2.10,Win32,60,61025ae37ef11b136ea224fe,,,,,,,,,2514,58,74,1,0,0,response1disk,,7,1,14,1,0,0,rectangle,1,14,1,0,0,1,14,1,0,0,0,22,22,68,1,,,,,,,,
,,,,,,,,,,,,,FF,,,,,,,,0.949,,,,,,,,,,,,,,,,,,,,,,5e3a069ef4b5e1000d04b724,61036b4516c09a78a6b32e7a,2021-07-30_13h01.18.538,Simcolourproject_2stim_asymm_v5,2020.2.10,Win32,60,61025ae37ef11b136ea224fe,,,,,,,,,3436,-57,-79,1,0,0,response5disk,,3,-30,-13,1,0,0,rectangle,-30,-13,1,0,0,-30,-13,1,0,0,0,23,23,100,1,,,,,,,,
,,,,,,,,,,,,,FF,,,,,,,,1.552,,,,,,,,,,,,,,,,,,,,,,5e3a069ef4b5e1000d04b724,61036b4516c09a78a6b32e7a,2021-07-30_13h01.18.538,Simcolourproject_2stim_asymm_v5,2020.2.10,Win32,60,61025ae37ef11b136ea224fe,,,,,,,,,2620,53,-72,1,0,0,response3disk,,4,-4,-10,1,0,0,rectangle,-4,-10,1,0,0,-4,-10,1,0,0,0,24,24,66,1,,,,,,,,
,,,,,,,,,,,,,FF,,,,,,,,0.984,,,,,,,,,,,,,,,,,,,,,,5e3a069ef4b5e1000d04b724,61036b4516c09a78a6b32e7a,2021-07-30_13h01.18.538,Simcolourproject_2stim_asymm_v5,2020.2.10,Win32,60,61025ae37ef11b136ea224fe,,,,,,,,,2214,101,-60,1,0,0,response3disk,,5,23,2,1,0,0,rectangle,23,2,1,0,0,23,2,1,0,0,0,25,25,80,1,,,,,,,,
,,,,,,,,,,,,,FF,,,,,,,,1.484,,,,,,,,,,,,,,,,,,,,,,5e3a069ef4b5e1000d04b724,61036b4516c09a78a6b32e7a,2021-07-30_13h01.18.538,Simcolourproject_2stim_asymm_v5,2020.2.10,Win32,60,61025ae37ef11b136ea224fe,,,,,,,,,2650,38,-68,1,0,0,response3disk,,4,5,1,1,0,0,rectangle,5,1,1,0,0,5,1,1,0,0,0,26,26,107,1,,,,,,,,
,,,,,,,,,,,,,FF,,,,,,,,2.652,,,,,,,,,,,,,,,,,,,,,,5e3a069ef4b5e1000d04b724,61036b4516c09a78a6b32e7a,2021-07-30_13h01.18.538,Simcolourproject_2stim_asymm_v5,2020.2.10,Win32,60,61025ae37ef11b136ea224fe,,,,,,,,,3454,37,-49,1,0,0,response3disk,,4,30,4,1,0,0,rectangle,30,4,1,0,0,30,4,1,0,0,0,27,27,148,1,,,,,,,,
,,,,,,,,,,,,,FF,,,,,,,,1.569,,,,,,,,,,,,,,,,,,,,,,5e3a069ef4b5e1000d04b724,61036b4516c09a78a6b32e7a,2021-07-30_13h01.18.538,Simcolourproject_2stim_asymm_v5,2020.2.10,Win32,60,61025ae37ef11b136ea224fe,,,,,,,,,685,76,65,1,0,0,response1disk,,6,-16,2,1,0,0,rectangle,-16,2,1,0,0,-16,2,1,0,0,0,28,28,84,1,,,,,,,,
,,,,,,,,,,,,,FF,,,,,,,,1.418,,,,,,,,,,,,,,,,,,,,,,5e3a069ef4b5e1000d04b724,61036b4516c09a78a6b32e7a,2021-07-30_13h01.18.538,Simcolourproject_2stim_asymm_v5,2020.2.10,Win32,60,61025ae37ef11b136ea224fe,,,,,,,,,3354,113,-49,1,0,0,response3disk,,5,39,-8,1,0,0,rectangle,39,-8,1,0,0,39,-8,1,0,0,0,29,29,6,1,,,,,,,,
,,,,,,,,,,,,,FF,,,,,,,,1.233,,,,,,,,,,,,,,,,,,,,,,5e3a069ef4b5e1000d04b724,61036b4516c09a78a6b32e7a,2021-07-30_13h01.18.538,Simcolourproject_2stim_asymm_v5,2020.2.10,Win32,60,61025ae37ef11b136ea224fe,,,,,,,,,3126,73,56,1,0,0,response1disk,,6,-21,13,1,0,0,rectangle,-21,13,1,0,0,-21,13,1,0,0,0,30,30,69,1,,,,,,,,
,,,,,,,,,,,,,FF,,,,,,,,1.234,,,,,,,,,,,,,,,,,,,,,,5e3a069ef4b5e1000d04b724,61036b4516c09a78a6b32e7a,2021-07-30_13h01.18.538,Simcolourproject_2stim_asymm_v5,2020.2.10,Win32,60,61025ae37ef11b136ea224fe,,,,,,,,,2029,-77,-42,1,0,0,response5disk,,2,-19,15,1,0,0,rectangle,-19,15,1,0,0,-19,15,1,0,0,0,31,31,87,1,,,,,,,,
,,,,,,,,,,,,,FF,,,,,,,,1.301,,,,,,,,,,,,,,,,,,,,,,5e3a069ef4b5e1000d04b724,61036b4516c09a78a6b32e7a,2021-07-30_13h01.18.538,Simcolourproject_2stim_asymm_v5,2020.2.10,Win32,60,61025ae37ef11b136ea224fe,,,,,,,,,4173,111,-41,1,0,0,response3disk,,5,-10,7,1,0,0,rectangle,-10,7,1,0,0,-10,7,1,0,0,0,32,32,25,1,,,,,,,,
,,,,,,,,,,,,,FF,,,,,,,,2.135,,,,,,,,,,,,,,,,,,,,,,5e3a069ef4b5e1000d04b724,61036b4516c09a78a6b32e7a,2021-07-30_13h01.18.538,Simcolourproject_2stim_asymm_v5,2020.2.10,Win32,60,61025ae37ef11b136ea224fe,,,,,,,,,2665,-99,-70,1,0,0,response5disk,,2,-8,-7,1,0,0,rectangle,-8,-7,1,0,0,-8,-7,1,0,0,0,33,33,155,1,,,,,,,,
,,,,,,,,,,,,,FF,,,,,,,,0.885,,,,,,,,,,,,,,,,,,,,,,5e3a069ef4b5e1000d04b724,61036b4516c09a78a6b32e7a,2021-07-30_13h01.18.538,Simcolourproject_2stim_asymm_v5,2020.2.10,Win32,60,61025ae37ef11b136ea224fe,,,,,,,,,341,41,-78,1,0,0,response3disk,,4,-17,-1,1,0,0,rectangle,-17,-1,1,0,0,-17,-1,1,0,0,0,34,34,46,1,,,,,,,,
,,,,,,,,,,,,,FF,,,,,,,,1.1,,,,,,,,,,,,,,,,,,,,,,5e3a069ef4b5e1000d04b724,61036b4516c09a78a6b32e7a,2021-07-30_13h01.18.538,Simcolourproject_2stim_asymm_v5,2020.2.10,Win32,60,61025ae37ef11b136ea224fe,,,,,,,,,829,58,-81,1,0,0,response3disk,,4,-48,-13,1,0,0,rectangle,-48,-13,1,0,0,-48,-13,1,0,0,0,35,35,61,1,,,,,,,,
,,,,,,,,,,,,,FF,,,,,,,,2.201,,,,,,,,,,,,,,,,,,,,,,5e3a069ef4b5e1000d04b724,61036b4516c09a78a6b32e7a,2021-07-30_13h01.18.538,Simcolourproject_2stim_asymm_v5,2020.2.10,Win32,60,61025ae37ef11b136ea224fe,,,,,,,,,4227,138,29,1,0,0,response1disk,,6,22,-19,1,0,0,rectangle,22,-19,1,0,0,22,-19,1,0,0,0,36,36,104,1,,,,,,,,
,,,,,,,,,,,,,FF,,,,,,,,1.684,,,,,,,,,,,,,,,,,,,,,,5e3a069ef4b5e1000d04b724,61036b4516c09a78a6b32e7a,2021-07-30_13h01.18.538,Simcolourproject_2stim_asymm_v5,2020.2.10,Win32,60,61025ae37ef11b136ea224fe,,,,,,,,,787,-65,-84,1,0,0,response5disk,,3,-12,-10,1,0,0,rectangle,-12,-10,1,0,0,-12,-10,1,0,0,0,37,37,11,1,,,,,,,,
,,,,,,,,,,,,,FF,,,,,,,,1.219,,,,,,,,,,,,,,,,,,,,,,5e3a069ef4b5e1000d04b724,61036b4516c09a78a6b32e7a,2021-07-30_13h01.18.538,Simcolourproject_2stim_asymm_v5,2020.2.10,Win32,60,61025ae37ef11b136ea224fe,,,,,,,,,129,83,-36,1,0,0,response3disk,,5,15,7,1,0,0,rectangle,15,7,1,0,0,15,7,1,0,0,0,38,38,78,1,,,,,,,,
,,,,,,,,,,,,,FF,,,,,,,,2.119,,,,,,,,,,,,,,,,,,,,,,5e3a069ef4b5e1000d04b724,61036b4516c09a78a6b32e7a,2021-07-30_13h01.18.538,Simcolourproject_2stim_asymm_v5,2020.2.10,Win32,60,61025ae37ef11b136ea224fe,,,,,,,,,2354,112,-29,1,0,0,response3disk,,5,24,17,1,0,0,rectangle,24,17,1,0,0,24,17,1,0,0,0,39,39,143,1,,,,,,,,
,,,,,,,,,,,,,FF,,,,,,,,1.252,,,,,,,,,,,,,,,,,,,,,,5e3a069ef4b5e1000d04b724,61036b4516c09a78a6b32e7a,2021-07-30_13h01.18.538,Simcolourproject_2stim_asymm_v5,2020.2.10,Win32,60,61025ae37ef11b136ea224fe,,,,,,,,,4052,-132,-40,1,0,0,response5disk,,2,-28,-4,1,0,0,rectangle,-28,-4,1,0,0,-28,-4,1,0,0,0,40,40,130,1,,,,,,,,
,,,,,,,,,,,,,FF,,,,,,,,0.751,,,,,,,,,,,,,,,,,,,,,,5e3a069ef4b5e1000d04b724,61036b4516c09a78a6b32e7a,2021-07-30_13h01.18.538,Simcolourproject_2stim_asymm_v5,2020.2.10,Win32,60,61025ae37ef11b136ea224fe,,,,,,,,,3450,79,49,1,0,0,response1disk,,6,4,3,1,0,0,rectangle,100,-54,1,0,0,2,0,1,0,0,0,41,41,133,1,,response3disk_3,TRUE,5,5,"[51,64,101,53,297,56,301,72,114,245,81,269,42,99,86,104,108,68,42,124]",1.619,rectangle
,,,,,,,,,,,,,FF,,,,,,,,1.985,,,,,,,,,,,,,,,,,,,,,,5e3a069ef4b5e1000d04b724,61036b4516c09a78a6b32e7a,2021-07-30_13h01.18.538,Simcolourproject_2stim_asymm_v5,2020.2.10,Win32,60,61025ae37ef11b136ea224fe,,,,,,,,,2884,84,-39,1,0,0,response3disk,,5,38,7,1,0,0,rectangle,38,7,1,0,0,38,7,1,0,0,0,42,42,121,1,,,,,,,,
,,,,,,,,,,,,,FF,,,,,,,,1.034,,,,,,,,,,,,,,,,,,,,,,5e3a069ef4b5e1000d04b724,61036b4516c09a78a6b32e7a,2021-07-30_13h01.18.538,Simcolourproject_2stim_asymm_v5,2020.2.10,Win32,60,61025ae37ef11b136ea224fe,,,,,,,,,1756,-87,-104,1,0,0,response5disk,,3,-5,-20,1,0,0,rectangle,-5,-20,1,0,0,-5,-20,1,0,0,0,43,43,125,1,,,,,,,,
,,,,,,,,,,,,,FF,,,,,,,,1.751,,,,,,,,,,,,,,,,,,,,,,5e3a069ef4b5e1000d04b724,61036b4516c09a78a6b32e7a,2021-07-30_13h01.18.538,Simcolourproject_2stim_asymm_v5,2020.2.10,Win32,60,61025ae37ef11b136ea224fe,,,,,,,,,133,97,42,1,0,0,response1disk,,6,12,8,1,0,0,rectangle,12,8,1,0,0,12,8,1,0,0,0,44,44,129,1,,,,,,,,
,,,,,,,,,,,,,FF,,,,,,,,1.151,,,,,,,,,,,,,,,,,,,,,,5e3a069ef4b5e1000d04b724,61036b4516c09a78a6b32e7a,2021-07-30_13h01.18.538,Simcolourproject_2stim_asymm_v5,2020.2.10,Win32,60,61025ae37ef11b136ea224fe,,,,,,,,,290,68,94,1,0,0,response1disk,,7,28,17,1,0,0,rectangle,28,17,1,0,0,28,17,1,0,0,0,45,45,8,1,,,,,,,,
,,,,,,,,,,,,,FF,,,,,,,,1.684,,,,,,,,,,,,,,,,,,,,,,5e3a069ef4b5e1000d04b724,61036b4516c09a78a6b32e7a,2021-07-30_13h01.18.538,Simcolourproject_2stim_asymm_v5,2020.2.10,Win32,60,61025ae37ef11b136ea224fe,,,,,,,,,1546,77,-41,1,0,0,response3disk,,5,24,-5,1,0,0,rectangle,24,-5,1,0,0,24,-5,1,0,0,0,46,46,7,1,,,,,,,,
,,,,,,,,,,,,,FF,,,,,,,,0.85,,,,,,,,,,,,,,,,,,,,,,5e3a069ef4b5e1000d04b724,61036b4516c09a78a6b32e7a,2021-07-30_13h01.18.538,Simcolourproject_2stim_asymm_v5,2020.2.10,Win32,60,61025ae37ef11b136ea224fe,,,,,,,,,2446,39,94,1,0,0,response1disk,,7,7,9,1,0,0,rectangle,7,9,1,0,0,7,9,1,0,0,0,47,47,21,1,,,,,,,,
,,,,,,,,,,,,,FF,,,,,,,,1.184,,,,,,,,,,,,,,,,,,,,,,5e3a069ef4b5e1000d04b724,61036b4516c09a78a6b32e7a,2021-07-30_13h01.18.538,Simcolourproject_2stim_asymm_v5,2020.2.10,Win32,60,61025ae37ef11b136ea224fe,,,,,,,,,2168,74,-46,1,0,0,response3disk,,5,16,-8,1,0,0,rectangle,16,-8,1,0,0,16,-8,1,0,0,0,48,48,149,1,,,,,,,,
,,,,,,,,,,,,,FF,,,,,,,,1.105,,,,,,,,,,,,,,,,,,,,,,5e3a069ef4b5e1000d04b724,61036b4516c09a78a6b32e7a,2021-07-30_13h01.18.538,Simcolourproject_2stim_asymm_v5,2020.2.10,Win32,60,61025ae37ef11b136ea224fe,,,,,,,,,4028,40,-66,1,0,0,response3disk,,4,-3,-1,1,0,0,rectangle,-3,-1,1,0,0,-3,-1,1,0,0,0,49,49,34,1,,,,,,,,
,,,,,,,,,,,,,FF,,,,,,,,0.835,,,,,,,,,,,,,,,,,,,,,,5e3a069ef4b5e1000d04b724,61036b4516c09a78a6b32e7a,2021-07-30_13h01.18.538,Simcolourproject_2stim_asymm_v5,2020.2.10,Win32,60,61025ae37ef11b136ea224fe,,,,,,,,,2820,83,40,1,0,0,response1disk,,6,8,11,1,0,0,rectangle,-57,-91,1,0,0,2,14,1,0,0,0,50,50,138,1,,response5disk_3,TRUE,3,3,"[51,64,101,53,297,56,301,72,114,245,81,269,42,99,86,104,108,68,42,124]",1.601,rectangle
,,,,,,,,,,,,,FF,,,,,,,,1.217,,,,,,,,,,,,,,,,,,,,,,5e3a069ef4b5e1000d04b724,61036b4516c09a78a6b32e7a,2021-07-30_13h01.18.538,Simcolourproject_2stim_asymm_v5,2020.2.10,Win32,60,61025ae37ef11b136ea224fe,,,,,,,,,2339,84,58,1,0,0,response1disk,,6,-14,6,1,0,0,rectangle,-14,6,1,0,0,-14,6,1,0,0,0,51,51,146,1,,,,,,,,
,,,,,,,,,,,,,FF,,,,,,,,1.001,,,,,,,,,,,,,,,,,,,,,,5e3a069ef4b5e1000d04b724,61036b4516c09a78a6b32e7a,2021-07-30_13h01.18.538,Simcolourproject_2stim_asymm_v5,2020.2.10,Win32,60,61025ae37ef11b136ea224fe,,,,,,,,,114,54,72,1,0,0,response1disk,,7,14,-8,1,0,0,rectangle,-108,-50,1,0,0,-23,8,1,0,0,0,52,52,120,1,,response5disk_3,TRUE,2,2,"[51,64,101,53,297,56,301,72,114,245,81,269,42,99,86,104,108,68,42,124]",1.501,rectangle
,,,,,,,,,,,,,FF,,,,,,,,1.902,,,,,,,,,,,,,,,,,,,,,,5e3a069ef4b5e1000d04b724,61036b4516c09a78a6b32e7a,2021-07-30_13h01.18.538,Simcolourproject_2stim_asymm_v5,2020.2.10,Win32,60,61025ae37ef11b136ea224fe,,,,,,,,,3751,-84,-39,1,0,0,response5disk,,2,-6,9,1,0,0,rectangle,-6,9,1,0,0,-6,9,1,0,0,0,53,53,19,1,,,,,,,,
,,,,,,,,,,,,,FF,,,,,,,,0.902,,,,,,,,,,,,,,,,,,,,,,5e3a069ef4b5e1000d04b724,61036b4516c09a78a6b32e7a,2021-07-30_13h01.18.538,Simcolourproject_2stim_asymm_v5,2020.2.10,Win32,60,61025ae37ef11b136ea224fe,,,,,,,,,1826,-56,32,1,0,0,response7disk,,1,18,-5,1,0,0,rectangle,18,-5,1,0,0,18,-5,1,0,0,0,54,54,122,1,,,,,,,,
,,,,,,,,,,,,,FF,,,,,,,,1.884,,,,,,,,,,,,,,,,,,,,,,5e3a069ef4b5e1000d04b724,61036b4516c09a78a6b32e7a,2021-07-30_13h01.18.538,Simcolourproject_2stim_asymm_v5,2020.2.10,Win32,60,61025ae37ef11b136ea224fe,,,,,,,,,3419,-88,-27,1,0,0,response5disk,,2,-43,13,1,0,0,rectangle,-67,115,1,0,0,-6,-1,1,0,0,0,55,55,2,1,,response7disk_3,TRUE,0,0,"[51,64,101,53,297,56,301,72,114,245,81,269,42,99,86,104,108,68,42,124]",1.301,rectangle
,,,,,,,,,,,,,FF,,,,,,,,1.285,,,,,,,,,,,,,,,,,,,,,,5e3a069ef4b5e1000d04b724,61036b4516c09a78a6b32e7a,2021-07-30_13h01.18.538,Simcolourproject_2stim_asymm_v5,2020.2.10,Win32,60,61025ae37ef11b136ea224fe,,,,,,,,,3513,-100,-38,1,0,0,response5disk,,2,-10,-3,1,0,0,rectangle,-10,-3,1,0,0,-10,-3,1,0,0,0,56,56,159,1,,,,,,,,
,,,,,,,,,,,,,FF,,,,,,,,0.684,,,,,,,,,,,,,,,,,,,,,,5e3a069ef4b5e1000d04b724,61036b4516c09a78a6b32e7a,2021-07-30_13h01.18.538,Simcolourproject_2stim_asymm_v5,2020.2.10,Win32,60,61025ae37ef11b136ea224fe,,,,,,,,,1458,-92,-35,1,0,0,response5disk,,2,-16,7,1,0,0,rectangle,-16,7,1,0,0,-16,7,1,0,0,0,57,57,0,1,,,,,,,,
,,,,,,,,,,,,,FF,,,,,,,,1.217,,,,,,,,,,,,,,,,,,,,,,5e3a069ef4b5e1000d04b724,61036b4516c09a78a6b32e7a,2021-07-30_13h01.18.538,Simcolourproject_2stim_asymm_v5,2020.2.10,Win32,60,61025ae37ef11b136ea224fe,,,,,,,,,3768,81,-50,1,0,0,response3disk,,5,33,1,1,0,0,rectangle,33,1,1,0,0,33,1,1,0,0,0,58,58,67,1,,,,,,,,
,,,,,,,,,,,,,FF,,,,,,,,1.318,,,,,,,,,,,,,,,,,,,,,,5e3a069ef4b5e1000d04b724,61036b4516c09a78a6b32e7a,2021-07-30_13h01.18.538,Simcolourproject_2stim_asymm_v5,2020.2.10,Win32,60,61025ae37ef11b136ea224fe,,,,,,,,,3017,95,30,1,0,0,response1disk,,6,11,-5,1,0,0,rectangle,11,-5,1,0,0,11,-5,1,0,0,0,59,59,14,1,,,,,,,,
,,,,,,,,,,,,,FF,,,,,,,,1.534,,,,,,,,,,,,,,,,,,,,,,5e3a069ef4b5e1000d04b724,61036b4516c09a78a6b32e7a,2021-07-30_13h01.18.538,Simcolourproject_2stim_asymm_v5,2020.2.10,Win32,60,61025ae37ef11b136ea224fe,,,,,,,,,3271,82,33,1,0,0,response1disk,,6,25,4,1,0,0,rectangle,25,4,1,0,0,25,4,1,0,0,0,60,60,93,1,,,,,,,,
,,,,,,,,,,,,,FF,,,,,,,,0.918,,,,,,,,,,,,,,,,,,,,,,5e3a069ef4b5e1000d04b724,61036b4516c09a78a6b32e7a,2021-07-30_13h01.18.538,Simcolourproject_2stim_asymm_v5,2020.2.10,Win32,60,61025ae37ef11b136ea224fe,,,,,,,,,1263,36,59,1,0,0,response1disk,,7,15,11,1,0,0,rectangle,15,11,1,0,0,15,11,1,0,0,0,61,61,49,1,,,,,,,,
,,,,,,,,,,,,,FF,,,,,,,,1.219,,,,,,,,,,,,,,,,,,,,,,5e3a069ef4b5e1000d04b724,61036b4516c09a78a6b32e7a,2021-07-30_13h01.18.538,Simcolourproject_2stim_asymm_v5,2020.2.10,Win32,60,61025ae37ef11b136ea224fe,,,,,,,,,2230,-81,-80,1,0,0,response5disk,,2,12,18,1,0,0,rectangle,12,18,1,0,0,12,18,1,0,0,0,62,62,127,1,,,,,,,,
,,,,,,,,,,,,,FF,,,,,,,,1.202,,,,,,,,,,,,,,,,,,,,,,5e3a069ef4b5e1000d04b724,61036b4516c09a78a6b32e7a,2021-07-30_13h01.18.538,Simcolourproject_2stim_asymm_v5,2020.2.10,Win32,60,61025ae37ef11b136ea224fe,,,,,,,,,3563,34,-61,1,0,0,response3disk,,4,-3,-3,1,0,0,rectangle,-43,-84,1,0,0,9,2,1,0,0,0,63,63,79,1,,response5disk_3,TRUE,3,3,"[51,64,101,53,297,56,301,72,114,245,81,269,42,99,86,104,108,68,42,124]",1.485,rectangle
,,,,,,,,,,,,,FF,,,,,,,,1.719,,,,,,,,,,,,,,,,,,,,,,5e3a069ef4b5e1000d04b724,61036b4516c09a78a6b32e7a,2021-07-30_13h01.18.538,Simcolourproject_2stim_asymm_v5,2020.2.10,Win32,60,61025ae37ef11b136ea224fe,,,,,,,,,2549,40,-59,1,0,0,response3disk,,4,5,-11,1,0,0,rectangle,5,-11,1,0,0,5,-11,1,0,0,0,64,64,89,1,,,,,,,,
,,,,,,,,,,,,,FF,,,,,,,,1.335,,,,,,,,,,,,,,,,,,,,,,5e3a069ef4b5e1000d04b724,61036b4516c09a78a6b32e7a,2021-07-30_13h01.18.538,Simcolourproject_2stim_asymm_v5,2020.2.10,Win32,60,61025ae37ef11b136ea224fe,,,,,,,,,2482,-67,-84,1,0,0,response5disk,,3,-11,-6,1,0,0,rectangle,-11,-6,1,0,0,-11,-6,1,0,0,0,65,65,134,1,,,,,,,,
,,,,,,,,,,,,,FF,,,,,,,,1.134,,,,,,,,,,,,,,,,,,,,,,5e3a069ef4b5e1000d04b724,61036b4516c09a78a6b32e7a,2021-07-30_13h01.18.538,Simcolourproject_2stim_asymm_v5,2020.2.10,Win32,60,61025ae37ef11b136ea224fe,,,,,,,,,874,-29,-51,1,0,0,response5disk,,3,0,-2,1,0,0,rectangle,0,-2,1,0,0,0,-2,1,0,0,0,66,66,15,1,,,,,,,,
,,,,,,,,,,,,,FF,,,,,,,,0.734,,,,,,,,,,,,,,,,,,,,,,5e3a069ef4b5e1000d04b724,61036b4516c09a78a6b32e7a,2021-07-30_13h01.18.538,Simcolourproject_2stim_asymm_v5,2020.2.10,Win32,60,61025ae37ef11b136ea224fe,,,,,,,,,1753,-100,-38,1,0,0,response5disk,,2,0,13,1,0,0,rectangle,102,-40,1,0,0,7,9,1,0,0,0,67,67,106,1,,response3disk_3,TRUE,5,5,"[51,64,101,53,297,56,301,72,114,245,81,269,42,99,86,104,108,68,42,124]",1.369,rectangle
,,,,,,,,,,,,,FF,,,,,,,,1.102,,,,,,,,,,,,,,,,,,,,,,5e3a069ef4b5e1000d04b724,61036b4516c09a78a6b32e7a,2021-07-30_13h01.18.538,Simcolourproject_2stim_asymm_v5,2020.2.10,Win32,60,61025ae37ef11b136ea224fe,,,,,,,,,3353,69,-36,1,0,0,response3disk,,5,14,10,1,0,0,rectangle,14,10,1,0,0,14,10,1,0,0,0,68,68,73,1,,,,,,,,
,,,,,,,,,,,,,FF,,,,,,,,1.952,,,,,,,,,,,,,,,,,,,,,,5e3a069ef4b5e1000d04b724,61036b4516c09a78a6b32e7a,2021-07-30_13h01.18.538,Simcolourproject_2stim_asymm_v5,2020.2.10,Win32,60,61025ae37ef11b136ea224fe,,,,,,,,,2494,35,-66,1,0,0,response3disk,,4,2,-3,1,0,0,rectangle,2,-3,1,0,0,2,-3,1,0,0,0,69,69,156,1,,,,,,,,
,,,,,,,,,,,,,FF,,,,,,,,1.902,,,,,,,,,,,,,,,,,,,,,,5e3a069ef4b5e1000d04b724,61036b4516c09a78a6b32e7a,2021-07-30_13h01.18.538,Simcolourproject_2stim_asymm_v5,2020.2.10,Win32,60,61025ae37ef11b136ea224fe,,,,,,,,,67,33,-77,1,0,0,response3disk,,4,-14,-5,1,0,0,rectangle,-14,-5,1,0,0,-14,-5,1,0,0,0,70,70,1,1,,,,,,,,
,,,,,,,,,,,,,FF,,,,,,,,1.501,,,,,,,,,,,,,,,,,,,,,,5e3a069ef4b5e1000d04b724,61036b4516c09a78a6b32e7a,2021-07-30_13h01.18.538,Simcolourproject_2stim_asymm_v5,2020.2.10,Win32,60,61025ae37ef11b136ea224fe,,,,,,,,,997,86,-39,1,0,0,response3disk,,5,40,5,1,0,0,rectangle,-92,65,1,0,0,24,-1,1,0,0,0,71,71,77,1,,response7disk_3,TRUE,1,1,"[51,64,101,53,297,56,301,72,114,245,81,269,42,99,86,104,108,68,42,124]",1.317,rectangle
,,,,,,,,,,,,,FF,,,,,,,,1.085,,,,,,,,,,,,,,,,,,,,,,5e3a069ef4b5e1000d04b724,61036b4516c09a78a6b32e7a,2021-07-30_13h01.18.538,Simcolourproject_2stim_asymm_v5,2020.2.10,Win32,60,61025ae37ef11b136ea224fe,,,,,,,,,103,-65,-82,1,0,0,response5disk,,3,-24,-14,1,0,0,rectangle,-24,-14,1,0,0,-24,-14,1,0,0,0,72,72,85,1,,,,,,,,
,,,,,,,,,,,,,FF,,,,,,,,1.152,,,,,,,,,,,,,,,,,,,,,,5e3a069ef4b5e1000d04b724,61036b4516c09a78a6b32e7a,2021-07-30_13h01.18.538,Simcolourproject_2stim_asymm_v5,2020.2.10,Win32,60,61025ae37ef11b136ea224fe,,,,,,,,,679,91,62,1,0,0,response1disk,,6,12,-1,1,0,0,rectangle,12,-1,1,0,0,12,-1,1,0,0,0,73,73,81,1,,,,,,,,
,,,,,,,,,,,,,FF,,,,,,,,1.268,,,,,,,,,,,,,,,,,,,,,,5e3a069ef4b5e1000d04b724,61036b4516c09a78a6b32e7a,2021-07-30_13h01.18.538,Simcolourproject_2stim_asymm_v5,2020.2.10,Win32,60,61025ae37ef11b136ea224fe,,,,,,,,,1817,-118,33,1,0,0,response7disk,,1,-39,2,1,0,0,rectangle,-39,2,1,0,0,-39,2,1,0,0,0,74,74,98,1,,,,,,,,
,,,,,,,,,,,,,FF,,,,,,,,0.817,,,,,,,,,,,,,,,,,,,,,,5e3a069ef4b5e1000d04b724,61036b4516c09a78a6b32e7a,2021-07-30_13h01.18.538,Simcolourproject_2stim_asymm_v5,2020.2.10,Win32,60,61025ae37ef11b136ea224fe,,,,,,,,,1852,61,100,1,0,0,response1disk,,7,25,19,1,0,0,rectangle,25,19,1,0,0,25,19,1,0,0,0,75,75,116,1,,,,,,,,
,,,,,,,,,,,,,FF,,,,,,,,1.1,,,,,,,,,,,,,,,,,,,,,,5e3a069ef4b5e1000d04b724,61036b4516c09a78a6b32e7a,2021-07-30_13h01.18.538,Simcolourproject_2stim_asymm_v5,2020.2.10,Win32,60,61025ae37ef11b136ea224fe,,,,,,,,,3952,-102,-35,1,0,0,response5disk,,2,-9,4,1,0,0,rectangle,-9,4,1,0,0,-9,4,1,0,0,0,76,76,35,1,,,,,,,,
,,,,,,,,,,,,,FF,,,,,,,,1.919,,,,,,,,,,,,,,,,,,,,,,5e3a069ef4b5e1000d04b724,61036b4516c09a78a6b32e7a,2021-07-30_13h01.18.538,Simcolourproject_2stim_asymm_v5,2020.2.10,Win32,60,61025ae37ef11b136ea224fe,,,,,,,,,3229,81,-57,1,0,0,response3disk,,5,11,-4,1,0,0,rectangle,11,-4,1,0,0,11,-4,1,0,0,0,77,77,142,1,,,,,,,,
,,,,,,,,,,,,,FF,,,,,,,,1.419,,,,,,,,,,,,,,,,,,,,,,5e3a069ef4b5e1000d04b724,61036b4516c09a78a6b32e7a,2021-07-30_13h01.18.538,Simcolourproject_2stim_asymm_v5,2020.2.10,Win32,60,61025ae37ef11b136ea224fe,,,,,,,,,1733,42,-63,1,0,0,response3disk,,4,0,6,1,0,0,rectangle,0,6,1,0,0,0,6,1,0,0,0,78,78,91,1,,,,,,,,
,,,,,,,,,,,,,FF,,,,,,,,1.568,,,,,,,,,,,,,,,,,,,,,,5e3a069ef4b5e1000d04b724,61036b4516c09a78a6b32e7a,2021-07-30_13h01.18.538,Simcolourproject_2stim_asymm_v5,2020.2.10,Win32,60,61025ae37ef11b136ea224fe,,,,,,,,,1257,93,-42,1,0,0,response3disk,,5,36,8,1,0,0,rectangle,36,8,1,0,0,36,8,1,0,0,0,79,79,65,1,,,,,,,,
,,,,,,,,,,,,,FF,,,,,,,,1.267,,,,,,,,,,,,,,,,,,,,,,5e3a069ef4b5e1000d04b724,61036b4516c09a78a6b32e7a,2021-07-30_13h01.18.538,Simcolourproject_2stim_asymm_v5,2020.2.10,Win32,60,61025ae37ef11b136ea224fe,,,,,,,,,3595,-90,-60,1,0,0,response5disk,,2,-46,-20,1,0,0,rectangle,-62,-32,1,0,0,25,1,1,0,0,0,80,80,94,1,,response5disk_3,TRUE,2,2,"[51,64,101,53,297,56,301,72,114,245,81,269,42,99,86,104,108,68,42,124]",1.234,rectangle
,,,,,,,,,,,,,FF,,,,,,,,0.936,,,,,,,,,,,,,,,,,,,,,,5e3a069ef4b5e1000d04b724,61036b4516c09a78a6b32e7a,2021-07-30_13h01.18.538,Simcolourproject_2stim_asymm_v5,2020.2.10,Win32,60,61025ae37ef11b136ea224fe,,,,,,,,,1833,-39,-68,1,0,0,response5disk,,3,7,-14,1,0,0,rectangle,7,-14,1,0,0,7,-14,1,0,0,0,81,81,152,1,,,,,,,,
,,,,,,,,,,,,,FF,,,,,,,,0.884,,,,,,,,,,,,,,,,,,,,,,5e3a069ef4b5e1000d04b724,61036b4516c09a78a6b32e7a,2021-07-30_13h01.18.538,Simcolourproject_2stim_asymm_v5,2020.2.10,Win32,60,61025ae37ef11b136ea224fe,,,,,,,,,3180,92,34,1,0,0,response1disk,,6,17,-15,1,0,0,rectangle,17,-15,1,0,0,17,-15,1,0,0,0,82,82,3,1,,,,,,,,
,,,,,,,,,,,,,FF,,,,,,,,2.635,,,,,,,,,,,,,,,,,,,,,,5e3a069ef4b5e1000d04b724,61036b4516c09a78a6b32e7a,2021-07-30_13h01.18.538,Simcolourproject_2stim_asymm_v5,2020.2.10,Win32,60,61025ae37ef11b136ea224fe,,,,,,,,,930,71,30,1,0,0,response1disk,,6,2,2,1,0,0,rectangle,2,2,1,0,0,2,2,1,0,0,0,83,83,74,1,,,,,,,,
,,,,,,,,,,,,,FF,,,,,,,,1.485,,,,,,,,,,,,,,,,,,,,,,5e3a069ef4b5e1000d04b724,61036b4516c09a78a6b32e7a,2021-07-30_13h01.18.538,Simcolourproject_2stim_asymm_v5,2020.2.10,Win32,60,61025ae37ef11b136ea224fe,,,,,,,,,4291,25,76,1,0,0,response1disk,,7,-15,8,1,0,0,rectangle,-15,8,1,0,0,-15,8,1,0,0,0,84,84,76,1,,,,,,,,
,,,,,,,,,,,,,FF,,,,,,,,1.101,,,,,,,,,,,,,,,,,,,,,,5e3a069ef4b5e1000d04b724,61036b4516c09a78a6b32e7a,2021-07-30_13h01.18.538,Simcolourproject_2stim_asymm_v5,2020.2.10,Win32,60,61025ae37ef11b136ea224fe,,,,,,,,,881,89,36,1,0,0,response1disk,,6,24,1,1,0,0,rectangle,92,-73,1,0,0,-12,-3,1,0,0,0,85,85,28,1,,response3disk_3,TRUE,5,5,"[51,64,101,53,297,56,301,72,114,245,81,269,42,99,86,104,108,68,42,124]",1.369,rectangle
,,,,,,,,,,,,,FF,,,,,,,,1.218,,,,,,,,,,,,,,,,,,,,,,5e3a069ef4b5e1000d04b724,61036b4516c09a78a6b32e7a,2021-07-30_13h01.18.538,Simcolourproject_2stim_asymm_v5,2020.2.10,Win32,60,61025ae37ef11b136ea224fe,,,,,,,,,3468,-55,106,1,0,0,response7disk,,0,-21,15,1,0,0,rectangle,-21,15,1,0,0,-21,15,1,0,0,0,86,86,117,1,,,,,,,,
,,,,,,,,,,,,,FF,,,,,,,,2.487,,,,,,,,,,,,,,,,,,,,,,5e3a069ef4b5e1000d04b724,61036b4516c09a78a6b32e7a,2021-07-30_13h01.18.538,Simcolourproject_2stim_asymm_v5,2020.2.10,Win32,60,61025ae37ef11b136ea224fe,,,,,,,,,60,68,42,1,0,0,response1disk,,6,2,-10,1,0,0,rectangle,2,-10,1,0,0,2,-10,1,0,0,0,87,87,64,1,,,,,,,,
,,,,,,,,,,,,,FF,,,,,,,,0.752,,,,,,,,,,,,,,,,,,,,,,5e3a069ef4b5e1000d04b724,61036b4516c09a78a6b32e7a,2021-07-30_13h01.18.538,Simcolourproject_2stim_asymm_v5,2020.2.10,Win32,60,61025ae37ef11b136ea224fe,,,,,,,,,2850,37,75,1,0,0,response1disk,,7,11,15,1,0,0,rectangle,11,15,1,0,0,11,15,1,0,0,0,88,88,18,1,,,,,,,,
,,,,,,,,,,,,,FF,,,,,,,,1.101,,,,,,,,,,,,,,,,,,,,,,5e3a069ef4b5e1000d04b724,61036b4516c09a78a6b32e7a,2021-07-30_13h01.18.538,Simcolourproject_2stim_asymm_v5,2020.2.10,Win32,60,61025ae37ef11b136ea224fe,,,,,,,,,2267,75,39,1,0,0,response1disk,,6,6,-2,1,0,0,rectangle,6,-2,1,0,0,6,-2,1,0,0,0,89,89,57,1,,,,,,,,
,,,,,,,,,,,,,FF,,,,,,,,0.783,,,,,,,,,,,,,,,,,,,,,,5e3a069ef4b5e1000d04b724,61036b4516c09a78a6b32e7a,2021-07-30_13h01.18.538,Simcolourproject_2stim_asymm_v5,2020.2.10,Win32,60,61025ae37ef11b136ea224fe,,,,,,,,,1644,57,37,1,0,0,response1disk,,6,2,2,1,0,0,rectangle,2,2,1,0,0,2,2,1,0,0,0,90,90,95,1,,,,,,,,
,,,,,,,,,,,,,FF,,,,,,,,1.118,,,,,,,,,,,,,,,,,,,,,,5e3a069ef4b5e1000d04b724,61036b4516c09a78a6b32e7a,2021-07-30_13h01.18.538,Simcolourproject_2stim_asymm_v5,2020.2.10,Win32,60,61025ae37ef11b136ea224fe,,,,,,,,,1389,44,-61,1,0,0,response3disk,,4,26,-17,1,0,0,rectangle,26,-17,1,0,0,26,-17,1,0,0,0,91,91,37,1,,,,,,,,
,,,,,,,,,,,,,FF,,,,,,,,1.118,,,,,,,,,,,,,,,,,,,,,,5e3a069ef4b5e1000d04b724,61036b4516c09a78a6b32e7a,2021-07-30_13h01.18.538,Simcolourproject_2stim_asymm_v5,2020.2.10,Win32,60,61025ae37ef11b136ea224fe,,,,,,,,,3284,-84,-56,1,0,0,response5disk,,2,-22,-9,1,0,0,rectangle,-22,-9,1,0,0,-22,-9,1,0,0,0,92,92,62,1,,,,,,,,
,,,,,,,,,,,,,FF,,,,,,,,1.136,,,,,,,,,,,,,,,,,,,,,,5e3a069ef4b5e1000d04b724,61036b4516c09a78a6b32e7a,2021-07-30_13h01.18.538,Simcolourproject_2stim_asymm_v5,2020.2.10,Win32,60,61025ae37ef11b136ea224fe,,,,,,,,,4216,84,54,1,0,0,response1disk,,6,-11,15,1,0,0,rectangle,-11,15,1,0,0,-11,15,1,0,0,0,93,93,144,1,,,,,,,,
,,,,,,,,,,,,,FF,,,,,,,,1.302,,,,,,,,,,,,,,,,,,,,,,5e3a069ef4b5e1000d04b724,61036b4516c09a78a6b32e7a,2021-07-30_13h01.18.538,Simcolourproject_2stim_asymm_v5,2020.2.10,Win32,60,61025ae37ef11b136ea224fe,,,,,,,,,3406,65,-34,1,0,0,response3disk,,5,11,-4,1,0,0,rectangle,11,-4,1,0,0,11,-4,1,0,0,0,94,94,136,1,,,,,,,,
,,,,,,,,,,,,,FF,,,,,,,,1.1,,,,,,,,,,,,,,,,,,,,,,5e3a069ef4b5e1000d04b724,61036b4516c09a78a6b32e7a,2021-07-30_13h01.18.538,Simcolourproject_2stim_asymm_v5,2020.2.10,Win32,60,61025ae37ef11b136ea224fe,,,,,,,,,1759,-53,-73,1,0,0,response5disk,,3,-15,-13,1,0,0,rectangle,-15,-13,1,0,0,-15,-13,1,0,0,0,95,95,140,1,,,,,,,,
,,,,,,,,,,,,,FF,,,,,,,,1.151,,,,,,,,,,,,,,,,,,,,,,5e3a069ef4b5e1000d04b724,61036b4516c09a78a6b32e7a,2021-07-30_13h01.18.538,Simcolourproject_2stim_asymm_v5,2020.2.10,Win32,60,61025ae37ef11b136ea224fe,,,,,,,,,3744,-81,64,1,0,0,response7disk,,1,11,8,1,0,0,rectangle,11,8,1,0,0,11,8,1,0,0,0,96,96,39,1,,,,,,,,
,,,,,,,,,,,,,FF,,,,,,,,1.068,,,,,,,,,,,,,,,,,,,,,,5e3a069ef4b5e1000d04b724,61036b4516c09a78a6b32e7a,2021-07-30_13h01.18.538,Simcolourproject_2stim_asymm_v5,2020.2.10,Win32,60,61025ae37ef11b136ea224fe,,,,,,,,,1716,60,39,1,0,0,response1disk,,6,-3,6,1,0,0,rectangle,-3,6,1,0,0,-3,6,1,0,0,0,97,97,86,1,,,,,,,,
,,,,,,,,,,,,,FF,,,,,,,,0.833,,,,,,,,,,,,,,,,,,,,,,5e3a069ef4b5e1000d04b724,61036b4516c09a78a6b32e7a,2021-07-30_13h01.18.538,Simcolourproject_2stim_asymm_v5,2020.2.10,Win32,60,61025ae37ef11b136ea224fe,,,,,,,,,4305,-59,99,1,0,0,response7disk,,0,-1,18,1,0,0,rectangle,51,-89,1,0,0,-13,9,1,0,0,0,98,98,42,1,,response3disk_3,TRUE,4,4,"[51,64,101,53,297,56,301,72,114,245,81,269,42,99,86,104,108,68,42,124]",1.101,rectangle
,,,,,,,,,,,,,FF,,,,,,,,0.951,,,,,,,,,,,,,,,,,,,,,,5e3a069ef4b5e1000d04b724,61036b4516c09a78a6b32e7a,2021-07-30_13h01.18.538,Simcolourproject_2stim_asymm_v5,2020.2.10,Win32,60,61025ae37ef11b136ea224fe,,,,,,,,,842,92,39,1,0,0,response1disk,,6,-5,3,1,0,0,rectangle,-5,3,1,0,0,-5,3,1,0,0,0,99,99,110,1,,,,,,,,
,,,,,,,,,,,,,FF,,,,,,,,1.001,,,,,,,,,,,,,,,,,,,,,,5e3a069ef4b5e1000d04b724,61036b4516c09a78a6b32e7a,2021-07-30_13h01.18.538,Simcolourproject_2stim_asymm_v5,2020.2.10,Win32,60,61025ae37ef11b136ea224fe,,,,,,,,,2519,54,86,1,0,0,response1disk,,7,3,5,1,0,0,rectangle,-57,-82,1,0,0,-2,1,1,0,0,0,100,100,30,1,,response5disk_3,TRUE,3,3,"[51,64,101,53,297,56,301,72,114,245,81,269,42,99,86,104,108,68,42,124]",1.368,rectangle
,,,,,,,,,,,,,FF,,,,,,,,0.817,,,,,,,,,,,,,,,,,,,,,,5e3a069ef4b5e1000d04b724,61036b4516c09a78a6b32e7a,2021-07-30_13h01.18.538,Simcolourproject_2stim_asymm_v5,2020.2.10,Win32,60,61025ae37ef11b136ea224fe,,,,,,,,,183,72,36,1,0,0,response1disk,,6,-1,-2,1,0,0,rectangle,-1,-2,1,0,0,-1,-2,1,0,0,0,101,101,157,1,,,,,,,,
,,,,,,,,,,,,,FF,,,,,,,,1.034,,,,,,,,,,,,,,,,,,,,,,5e3a069ef4b5e1000d04b724,61036b4516c09a78a6b32e7a,2021-07-30_13h01.18.538,Simcolourproject_2stim_asymm_v5,2020.2.10,Win32,60,61025ae37ef11b136ea224fe,,,,,,,,,2472,80,-25,1,0,0,response3disk,,5,10,-9,1,0,0,rectangle,10,-9,1,0,0,10,-9,1,0,0,0,102,102,44,1,,,,,,,,
,,,,,,,,,,,,,FF,,,,,,,,0.816,,,,,,,,,,,,,,,,,,,,,,5e3a069ef4b5e1000d04b724,61036b4516c09a78a6b32e7a,2021-07-30_13h01.18.538,Simcolourproject_2stim_asymm_v5,2020.2.10,Win32,60,61025ae37ef11b136ea224fe,,,,,,,,,3669,-69,84,1,0,0,response7disk,,0,-41,-1,1,0,0,rectangle,-75,98,1,0,0,-22,6,1,0,0,0,103,103,108,1,,response7disk_3,TRUE,0,0,"[51,64,101,53,297,56,301,72,114,245,81,269,42,99,86,104,108,68,42,124]",1.286,rectangle
,,,,,,,,,,,,,FF,,,,,,,,0.902,,,,,,,,,,,,,,,,,,,,,,5e3a069ef4b5e1000d04b724,61036b4516c09a78a6b32e7a,2021-07-30_13h01.18.538,Simcolourproject_2stim_asymm_v5,2020.2.10,Win32,60,61025ae37ef11b136ea224fe,,,,,,,,,3225,36,69,1,0,0,response1disk,,7,5,18,1,0,0,rectangle,5,18,1,0,0,5,18,1,0,0,0,104,104,20,1,,,,,,,,
,,,,,,,,,,,,,FF,,,,,,,,0.901,,,,,,,,,,,,,,,,,,,,,,5e3a069ef4b5e1000d04b724,61036b4516c09a78a6b32e7a,2021-07-30_13h01.18.538,Simcolourproject_2stim_asymm_v5,2020.2.10,Win32,60,61025ae37ef11b136ea224fe,,,,,,,,,1539,69,33,1,0,0,response1disk,,6,15,-9,1,0,0,rectangle,15,-9,1,0,0,15,-9,1,0,0,0,105,105,115,1,,,,,,,,
,,,,,,,,,,,,,FF,,,,,,,,0.901,,,,,,,,,,,,,,,,,,,,,,5e3a069ef4b5e1000d04b724,61036b4516c09a78a6b32e7a,2021-07-30_13h01.18.538,Simcolourproject_2stim_asymm_v5,2020.2.10,Win32,60,61025ae37ef11b136ea224fe,,,,,,,,,1971,63,-38,1,0,0,response3disk,,5,5,-12,1,0,0,rectangle,5,-12,1,0,0,5,-12,1,0,0,0,106,106,48,1,,,,,,,,
,,,,,,,,,,,,,FF,,,,,,,,1.252,,,,,,,,,,,,,,,,,,,,,,5e3a069ef4b5e1000d04b724,61036b4516c09a78a6b32e7a,2021-07-30_13h01.18.538,Simcolourproject_2stim_asymm_v5,2020.2.10,Win32,60,61025ae37ef11b136ea224fe,,,,,,,,,1431,74,-36,1,0,0,response3disk,,5,-1,-16,1,0,0,rectangle,48,-102,1,0,0,-14,8,1,0,0,0,107,107,114,1,,response3disk_3,TRUE,4,4,"[51,64,101,53,297,56,301,72,114,245,81,269,42,99,86,104,108,68,42,124]",1.368,rectangle
,,,,,,,,,,,,,FF,,,,,,,,1.502,,,,,,,,,,,,,,,,,,,,,,5e3a069ef4b5e1000d04b724,61036b4516c09a78a6b32e7a,2021-07-30_13h01.18.538,Simcolourproject_2stim_asymm_v5,2020.2.10,Win32,60,61025ae37ef11b136ea224fe,,,,,,,,,3605,49,-103,1,0,0,response3disk,,4,-12,-7,1,0,0,rectangle,-12,-7,1,0,0,-12,-7,1,0,0,0,108,108,45,1,,,,,,,,
,,,,,,,,,,,,,FF,,,,,,,,1.519,,,,,,,,,,,,,,,,,,,,,,5e3a069ef4b5e1000d04b724,61036b4516c09a78a6b32e7a,2021-07-30_13h01.18.538,Simcolourproject_2stim_asymm_v5,2020.2.10,Win32,60,61025ae37ef11b136ea224fe,,,,,,,,,1921,99,36,1,0,0,response1disk,,6,18,12,1,0,0,rectangle,18,12,1,0,0,18,12,1,0,0,0,109,109,109,1,,,,,,,,
,,,,,,,,,,,,,FF,,,,,,,,2.502,,,,,,,,,,,,,,,,,,,,,,5e3a069ef4b5e1000d04b724,61036b4516c09a78a6b32e7a,2021-07-30_13h01.18.538,Simcolourproject_2stim_asymm_v5,2020.2.10,Win32,60,61025ae37ef11b136ea224fe,,,,,,,,,1933,89,34,1,0,0,response1disk,,6,-1,15,1,0,0,rectangle,-1,15,1,0,0,-1,15,1,0,0,0,110,110,32,1,,,,,,,,
,,,,,,,,,,,,,FF,,,,,,,,1.051,,,,,,,,,,,,,,,,,,,,,,5e3a069ef4b5e1000d04b724,61036b4516c09a78a6b32e7a,2021-07-30_13h01.18.538,Simcolourproject_2stim_asymm_v5,2020.2.10,Win32,60,61025ae37ef11b136ea224fe,,,,,,,,,1839,89,-58,1,0,0,response3disk,,5,-9,-6,1,0,0,rectangle,-9,-6,1,0,0,-9,-6,1,0,0,0,111,111,105,1,,,,,,,,
,,,,,,,,,,,,,FF,,,,,,,,1.452,,,,,,,,,,,,,,,,,,,,,,5e3a069ef4b5e1000d04b724,61036b4516c09a78a6b32e7a,2021-07-30_13h01.18.538,Simcolourproject_2stim_asymm_v5,2020.2.10,Win32,60,61025ae37ef11b136ea224fe,,,,,,,,,957,-52,-62,1,0,0,response5disk,,3,-42,-4,1,0,0,rectangle,-42,-4,1,0,0,-42,-4,1,0,0,0,112,112,22,1,,,,,,,,
,,,,,,,,,,,,,FF,,,,,,,,2.602,,,,,,,,,,,,,,,,,,,,,,5e3a069ef4b5e1000d04b724,61036b4516c09a78a6b32e7a,2021-07-30_13h01.18.538,Simcolourproject_2stim_asymm_v5,2020.2.10,Win32,60,61025ae37ef11b136ea224fe,,,,,,,,,4176,29,-62,1,0,0,response3disk,,4,6,-13,1,0,0,rectangle,-59,-82,1,0,0,-12,1,1,0,0,0,113,113,153,1,,response5disk_3,TRUE,3,3,"[51,64,101,53,297,56,301,72,114,245,81,269,42,99,86,104,108,68,42,124]",1.335,rectangle
,,,,,,,,,,,,,FF,,,,,,,,1.369,,,,,,,,,,,,,,,,,,,,,,5e3a069ef4b5e1000d04b724,61036b4516c09a78a6b32e7a,2021-07-30_13h01.18.538,Simcolourproject_2stim_asymm_v5,2020.2.10,Win32,60,61025ae37ef11b136ea224fe,,,,,,,,,2700,86,33,1,0,0,response1disk,,6,13,-2,1,0,0,rectangle,13,-2,1,0,0,13,-2,1,0,0,0,114,114,101,1,,,,,,,,
,,,,,,,,,,,,,FF,,,,,,,,1.318,,,,,,,,,,,,,,,,,,,,,,5e3a069ef4b5e1000d04b724,61036b4516c09a78a6b32e7a,2021-07-30_13h01.18.538,Simcolourproject_2stim_asymm_v5,2020.2.10,Win32,60,61025ae37ef11b136ea224fe,,,,,,,,,3948,42,-65,1,0,0,response3disk,,4,28,6,1,0,0,rectangle,28,6,1,0,0,28,6,1,0,0,0,115,115,29,1,,,,,,,,
,,,,,,,,,,,,,FF,,,,,,,,1.901,,,,,,,,,,,,,,,,,,,,,,5e3a069ef4b5e1000d04b724,61036b4516c09a78a6b32e7a,2021-07-30_13h01.18.538,Simcolourproject_2stim_asymm_v5,2020.2.10,Win32,60,61025ae37ef11b136ea224fe,,,,,,,,,3824,-32,-64,1,0,0,response5disk,,3,-4,13,1,0,0,rectangle,-4,13,1,0,0,-4,13,1,0,0,0,116,116,99,1,,,,,,,,
,,,,,,,,,,,,,FF,,,,,,,,1.302,,,,,,,,,,,,,,,,,,,,,,5e3a069ef4b5e1000d04b724,61036b4516c09a78a6b32e7a,2021-07-30_13h01.18.538,Simcolourproject_2stim_asymm_v5,2020.2.10,Win32,60,61025ae37ef11b136ea224fe,,,,,,,,,938,56,-46,1,0,0,response3disk,,5,9,21,1,0,0,rectangle,9,21,1,0,0,9,21,1,0,0,0,117,117,158,1,,,,,,,,
,,,,,,,,,,,,,FF,,,,,,,,1.069,,,,,,,,,,,,,,,,,,,,,,5e3a069ef4b5e1000d04b724,61036b4516c09a78a6b32e7a,2021-07-30_13h01.18.538,Simcolourproject_2stim_asymm_v5,2020.2.10,Win32,60,61025ae37ef11b136ea224fe,,,,,,,,,4313,79,33,1,0,0,response1disk,,6,19,8,1,0,0,rectangle,19,8,1,0,0,19,8,1,0,0,0,118,118,97,1,,,,,,,,
,,,,,,,,,,,,,FF,,,,,,,,0.967,,,,,,,,,,,,,,,,,,,,,,5e3a069ef4b5e1000d04b724,61036b4516c09a78a6b32e7a,2021-07-30_13h01.18.538,Simcolourproject_2stim_asymm_v5,2020.2.10,Win32,60,61025ae37ef11b136ea224fe,,,,,,,,,2312,68,-36,1,0,0,response3disk,,5,15,5,1,0,0,rectangle,15,5,1,0,0,15,5,1,0,0,0,119,119,112,1,,,,,,,,
,,,,,,,,,,,,,FF,,,,,,,,0.867,,,,,,,,,,,,,,,,,,,,,,5e3a069ef4b5e1000d04b724,61036b4516c09a78a6b32e7a,2021-07-30_13h01.18.538,Simcolourproject_2stim_asymm_v5,2020.2.10,Win32,60,61025ae37ef11b136ea224fe,,,,,,,,,2718,-44,74,1,0,0,response7disk,,0,-6,6,1,0,0,rectangle,-6,6,1,0,0,-6,6,1,0,0,0,120,120,16,1,,,,,,,,
,,,,,,,,,,,,,FF,,,,,,,,1.217,,,,,,,,,,,,,,,,,,,,,,5e3a069ef4b5e1000d04b724,61036b4516c09a78a6b32e7a,2021-07-30_13h01.18.538,Simcolourproject_2stim_asymm_v5,2020.2.10,Win32,60,61025ae37ef11b136ea224fe,,,,,,,,,3735,89,-32,1,0,0,response3disk,,5,33,8,1,0,0,rectangle,33,8,1,0,0,33,8,1,0,0,0,121,121,113,1,,,,,,,,
,,,,,,,,,,,,,FF,,,,,,,,8.442,,,,,,,,,,,,,,,,,,,,,,5e3a069ef4b5e1000d04b724,61036b4516c09a78a6b32e7a,2021-07-30_13h01.18.538,Simcolourproject_2stim_asymm_v5,2020.2.10,Win32,60,61025ae37ef11b136ea224fe,,,,,,,,,1956,-66,90,1,0,0,response7disk,,0,-8,15,1,0,0,rectangle,-8,15,1,0,0,-8,15,1,0,0,0,122,122,141,1,,,,,,,,
