key_resp.keys,key_resp.rt,key_resp_14.keys,key_resp_14.rt,key_resp_15.keys,key_resp_15.rt,key_resp_17.keys,key_resp_17.rt,key_resp_9.keys,key_resp_9.rt,key_resp_10.keys,key_resp_10.rt,practice_comparison,Ecc,mouse_5.x,mouse_5.y,mouse_5.leftButton,mouse_5.midButton,mouse_5.rightButton,mouse_5.clicked_name,pracsimilarity,response_time,mouse_10.x,mouse_10.y,mouse_10.leftButton,mouse_10.midButton,mouse_10.rightButton,mouse_10.clicked_name,mouse_7.x,mouse_7.y,mouse_7.leftButton,mouse_7.midButton,mouse_7.rightButton,mouse_6.x,mouse_6.y,mouse_6.leftButton,mouse_6.midButton,mouse_6.rightButton,duringprac.thisRepN,duringprac.thisTrialN,duringprac.thisN,duringprac.thisIndex,duringprac.ran,participant,session,date,expName,psychopyVersion,OS,frameRate,study_id,mouse_7.clicked_name,catchpracsimilarity,catch_response_time,catchnumberprac,catchtrialorderprac,mouse_6.clicked_name,key_resp_22.keys,key_resp_22.rt,realcomparison,mouse.x,mouse.y,mouse.leftButton,mouse.midButton,mouse.rightButton,mouse.clicked_name,Colour2,similarity,mouse_2.x,mouse_2.y,mouse_2.leftButton,mouse_2.midButton,mouse_2.rightButton,mouse_2.clicked_name,mouse_3.x,mouse_3.y,mouse_3.leftButton,mouse_3.midButton,mouse_3.rightButton,mouse_11.x,mouse_11.y,mouse_11.leftButton,mouse_11.midButton,mouse_11.rightButton,trials_2.thisRepN,trials_2.thisTrialN,trials_2.thisN,trials_2.thisIndex,trials_2.ran,Colour1,mouse_3.clicked_name,catchornah,catchsimilarity,catchnumber,catchtrialorder,catchRT,mouse_11.clicked_name
space,4.334,space,37.376,space,52.372,space,18.686,space,6.022,space,5.506,41,FF,-99,44.5,1,0,0,response7disk_5,1,3.251,-5,4.5,1,0,0,rectangle_8,-5,4.5,1,0,0,-5,4.5,1,0,0,0,0,0,3,1,5e8ec3e28ee4fe17502d74eb,6103764a31b0121be5202ca6,2021-07-29_22h57.13.687,Simcolourproject_2stim_asymm_v5,2020.2.10,Win32,60,61025ae37ef11b136ea224fe,,,,,,,,,,,,,,,,,,,,,,,,,,,,,,,,,,,,,,,,,,,,,,
,,,,,,,,,,,,128,PF,-70,93.5,1,0,0,response7disk_5,0,4.8,6,-3.5,1,0,0,rectangle_8,-37,-105.5,1,0,0,-3,2.5,1,0,0,0,1,1,6,1,5e8ec3e28ee4fe17502d74eb,6103764a31b0121be5202ca6,2021-07-29_22h57.13.687,Simcolourproject_2stim_asymm_v5,2020.2.10,Win32,60,61025ae37ef11b136ea224fe,response5disk_7,3,4.301,3,"[2,5]",rectangle_4,,,,,,,,,,,,,,,,,,,,,,,,,,,,,,,,,,,,,,,,
,,,,,,,,,,,,133,FF,-39,105.5,1,0,0,response7disk_5,0,9.35,2,3.5,1,0,0,rectangle_8,2,3.5,1,0,0,2,3.5,1,0,0,0,2,2,5,1,5e8ec3e28ee4fe17502d74eb,6103764a31b0121be5202ca6,2021-07-29_22h57.13.687,Simcolourproject_2stim_asymm_v5,2020.2.10,Win32,60,61025ae37ef11b136ea224fe,,,,,,,,,,,,,,,,,,,,,,,,,,,,,,,,,,,,,,,,,,,,,,
,,,,,,,,,,,,80,FF,45,100.5,1,0,0,response1disk_5,7,4.316,2,-1.5,1,0,0,rectangle_8,2,-1.5,1,0,0,2,-1.5,1,0,0,0,3,3,0,1,5e8ec3e28ee4fe17502d74eb,6103764a31b0121be5202ca6,2021-07-29_22h57.13.687,Simcolourproject_2stim_asymm_v5,2020.2.10,Win32,60,61025ae37ef11b136ea224fe,,,,,,,,,,,,,,,,,,,,,,,,,,,,,,,,,,,,,,,,,,,,,,
,,,,,,,,,,,,39,PF,49,117.5,1,0,0,response1disk_5,7,5.85,-1,3.5,1,0,0,rectangle_8,-50,-106.5,1,0,0,2,1.5,1,0,0,0,4,4,1,1,5e8ec3e28ee4fe17502d74eb,6103764a31b0121be5202ca6,2021-07-29_22h57.13.687,Simcolourproject_2stim_asymm_v5,2020.2.10,Win32,60,61025ae37ef11b136ea224fe,response5disk_7,3,3.082,3,"[2,5]",rectangle_4,,,,,,,,,,,,,,,,,,,,,,,,,,,,,,,,,,,,,,,,
,,,,,,,,,,,,157,PF,37,99.5,1,0,0,response1disk_5,7,5.583,4,0.5,1,0,0,rectangle_8,4,0.5,1,0,0,4,0.5,1,0,0,0,5,5,2,1,5e8ec3e28ee4fe17502d74eb,6103764a31b0121be5202ca6,2021-07-29_22h57.13.687,Simcolourproject_2stim_asymm_v5,2020.2.10,Win32,60,61025ae37ef11b136ea224fe,,,,,,,,,,,,,,,,,,,,,,,,,,,,,,,,,,,,,,,,,,,,,,
,,,,,,,,,,,,95,PF,-46,119.5,1,0,0,response7disk_5,0,2.767,-3,5.5,1,0,0,rectangle_8,-3,5.5,1,0,0,-3,5.5,1,0,0,0,6,6,4,1,5e8ec3e28ee4fe17502d74eb,6103764a31b0121be5202ca6,2021-07-29_22h57.13.687,Simcolourproject_2stim_asymm_v5,2020.2.10,Win32,60,61025ae37ef11b136ea224fe,,,,,,,,,,,,,,,,,,,,,,,,,,,,,,,,,,,,,,,,,,,,,,
,,,,,,,,,,,,,FF,,,,,,,,3.983,,,,,,,,,,,,,,,,,,,,,,5e8ec3e28ee4fe17502d74eb,6103764a31b0121be5202ca6,2021-07-29_22h57.13.687,Simcolourproject_2stim_asymm_v5,2020.2.10,Win32,60,61025ae37ef11b136ea224fe,,,,,,,space,5.227,1014,56,112.5,1,0,0,response1disk,,7,-1,0.5,1,0,0,rectangle,-1,0.5,1,0,0,-1,0.5,1,0,0,0,0,0,106,1,,,,,,,,
,,,,,,,,,,,,,FF,,,,,,,,2.634,,,,,,,,,,,,,,,,,,,,,,5e8ec3e28ee4fe17502d74eb,6103764a31b0121be5202ca6,2021-07-29_22h57.13.687,Simcolourproject_2stim_asymm_v5,2020.2.10,Win32,60,61025ae37ef11b136ea224fe,,,,,,,,,751,50,122.5,1,0,0,response1disk,,7,-3,0.5,1,0,0,rectangle,-3,0.5,1,0,0,-3,0.5,1,0,0,0,1,1,108,1,,,,,,,,
,,,,,,,,,,,,,FF,,,,,,,,2.667,,,,,,,,,,,,,,,,,,,,,,5e8ec3e28ee4fe17502d74eb,6103764a31b0121be5202ca6,2021-07-29_22h57.13.687,Simcolourproject_2stim_asymm_v5,2020.2.10,Win32,60,61025ae37ef11b136ea224fe,,,,,,,,,383,61,137.5,1,0,0,response1disk,,7,-4,-0.5,1,0,0,rectangle,-4,-0.5,1,0,0,-4,-0.5,1,0,0,0,2,2,92,1,,,,,,,,
,,,,,,,,,,,,,FF,,,,,,,,2.866,,,,,,,,,,,,,,,,,,,,,,5e8ec3e28ee4fe17502d74eb,6103764a31b0121be5202ca6,2021-07-29_22h57.13.687,Simcolourproject_2stim_asymm_v5,2020.2.10,Win32,60,61025ae37ef11b136ea224fe,,,,,,,,,1816,-47,95.5,1,0,0,response7disk,,0,1,-0.5,1,0,0,rectangle,1,-0.5,1,0,0,1,-0.5,1,0,0,0,3,3,71,1,,,,,,,,
,,,,,,,,,,,,,FF,,,,,,,,1.884,,,,,,,,,,,,,,,,,,,,,,5e8ec3e28ee4fe17502d74eb,6103764a31b0121be5202ca6,2021-07-29_22h57.13.687,Simcolourproject_2stim_asymm_v5,2020.2.10,Win32,60,61025ae37ef11b136ea224fe,,,,,,,,,2467,48,108.5,1,0,0,response1disk,,7,1,1.5,1,0,0,rectangle,1,1.5,1,0,0,1,1.5,1,0,0,0,4,4,102,1,,,,,,,,
,,,,,,,,,,,,,FF,,,,,,,,4.966,,,,,,,,,,,,,,,,,,,,,,5e8ec3e28ee4fe17502d74eb,6103764a31b0121be5202ca6,2021-07-29_22h57.13.687,Simcolourproject_2stim_asymm_v5,2020.2.10,Win32,60,61025ae37ef11b136ea224fe,,,,,,,,,536,59,103.5,1,0,0,response1disk,,7,2,3.5,1,0,0,rectangle,2,3.5,1,0,0,2,3.5,1,0,0,0,5,5,131,1,,,,,,,,
,,,,,,,,,,,,,FF,,,,,,,,2.534,,,,,,,,,,,,,,,,,,,,,,5e8ec3e28ee4fe17502d74eb,6103764a31b0121be5202ca6,2021-07-29_22h57.13.687,Simcolourproject_2stim_asymm_v5,2020.2.10,Win32,60,61025ae37ef11b136ea224fe,,,,,,,,,3461,49,115.5,1,0,0,response1disk,,7,1,3.5,1,0,0,rectangle,1,3.5,1,0,0,1,3.5,1,0,0,0,6,6,64,1,,,,,,,,
,,,,,,,,,,,,,FF,,,,,,,,2.833,,,,,,,,,,,,,,,,,,,,,,5e8ec3e28ee4fe17502d74eb,6103764a31b0121be5202ca6,2021-07-29_22h57.13.687,Simcolourproject_2stim_asymm_v5,2020.2.10,Win32,60,61025ae37ef11b136ea224fe,,,,,,,,,1665,37,114.5,1,0,0,response1disk,,7,-5,0.5,1,0,0,rectangle,-5,0.5,1,0,0,-5,0.5,1,0,0,0,7,7,40,1,,,,,,,,
,,,,,,,,,,,,,FF,,,,,,,,11.883,,,,,,,,,,,,,,,,,,,,,,5e8ec3e28ee4fe17502d74eb,6103764a31b0121be5202ca6,2021-07-29_22h57.13.687,Simcolourproject_2stim_asymm_v5,2020.2.10,Win32,60,61025ae37ef11b136ea224fe,,,,,,,,,2756,56,96.5,1,0,0,response1disk,,7,3,0.5,1,0,0,rectangle,3,0.5,1,0,0,3,0.5,1,0,0,0,8,8,150,1,,,,,,,,
,,,,,,,,,,,,,FF,,,,,,,,2.017,,,,,,,,,,,,,,,,,,,,,,5e8ec3e28ee4fe17502d74eb,6103764a31b0121be5202ca6,2021-07-29_22h57.13.687,Simcolourproject_2stim_asymm_v5,2020.2.10,Win32,60,61025ae37ef11b136ea224fe,,,,,,,,,2572,53,108.5,1,0,0,response1disk,,7,-3,1.5,1,0,0,rectangle,-3,1.5,1,0,0,-3,1.5,1,0,0,0,9,9,54,1,,,,,,,,
,,,,,,,,,,,,,FF,,,,,,,,4,,,,,,,,,,,,,,,,,,,,,,5e8ec3e28ee4fe17502d74eb,6103764a31b0121be5202ca6,2021-07-29_22h57.13.687,Simcolourproject_2stim_asymm_v5,2020.2.10,Win32,60,61025ae37ef11b136ea224fe,,,,,,,,,3963,40,100.5,1,0,0,response1disk,,7,0,3.5,1,0,0,rectangle,0,3.5,1,0,0,0,3.5,1,0,0,0,10,10,16,1,,,,,,,,
,,,,,,,,,,,,,FF,,,,,,,,2.267,,,,,,,,,,,,,,,,,,,,,,5e8ec3e28ee4fe17502d74eb,6103764a31b0121be5202ca6,2021-07-29_22h57.13.687,Simcolourproject_2stim_asymm_v5,2020.2.10,Win32,60,61025ae37ef11b136ea224fe,,,,,,,,,3267,46,101.5,1,0,0,response1disk,,7,1,-1.5,1,0,0,rectangle,1,-1.5,1,0,0,1,-1.5,1,0,0,0,11,11,101,1,,,,,,,,
,,,,,,,,,,,,,FF,,,,,,,,5.9,,,,,,,,,,,,,,,,,,,,,,5e8ec3e28ee4fe17502d74eb,6103764a31b0121be5202ca6,2021-07-29_22h57.13.687,Simcolourproject_2stim_asymm_v5,2020.2.10,Win32,60,61025ae37ef11b136ea224fe,,,,,,,,,1296,-92,42.5,1,0,0,response7disk,,1,-1,2.5,1,0,0,rectangle,-1,2.5,1,0,0,-1,2.5,1,0,0,0,12,12,63,1,,,,,,,,
,,,,,,,,,,,,,FF,,,,,,,,1.451,,,,,,,,,,,,,,,,,,,,,,5e8ec3e28ee4fe17502d74eb,6103764a31b0121be5202ca6,2021-07-29_22h57.13.687,Simcolourproject_2stim_asymm_v5,2020.2.10,Win32,60,61025ae37ef11b136ea224fe,,,,,,,,,2036,65,136.5,1,0,0,response1disk,,7,3,4.5,1,0,0,rectangle,3,4.5,1,0,0,3,4.5,1,0,0,0,13,13,22,1,,,,,,,,
,,,,,,,,,,,,,FF,,,,,,,,5.151,,,,,,,,,,,,,,,,,,,,,,5e8ec3e28ee4fe17502d74eb,6103764a31b0121be5202ca6,2021-07-29_22h57.13.687,Simcolourproject_2stim_asymm_v5,2020.2.10,Win32,60,61025ae37ef11b136ea224fe,,,,,,,,,2127,48,95,1,0,0,response1disk,,7,8,3,1,0,0,rectangle,-42,105.5,1,0,0,-1,3.5,1,0,0,0,14,14,66,1,,response7disk_3,TRUE,0,4,"[192,265,92,192,178,273,165,148,126,179,115,87,150,214,15,32,216,22,252,271]",2.649,rectangle
,,,,,,,,,,,,,FF,,,,,,,,1.117,,,,,,,,,,,,,,,,,,,,,,5e8ec3e28ee4fe17502d74eb,6103764a31b0121be5202ca6,2021-07-29_22h57.13.687,Simcolourproject_2stim_asymm_v5,2020.2.10,Win32,60,61025ae37ef11b136ea224fe,,,,,,,,,2065,40,120.5,1,0,0,response1disk,,7,1,4.5,1,0,0,rectangle,1,4.5,1,0,0,1,4.5,1,0,0,0,15,15,98,1,,,,,,,,
,,,,,,,,,,,,,FF,,,,,,,,5.167,,,,,,,,,,,,,,,,,,,,,,5e8ec3e28ee4fe17502d74eb,6103764a31b0121be5202ca6,2021-07-29_22h57.13.687,Simcolourproject_2stim_asymm_v5,2020.2.10,Win32,60,61025ae37ef11b136ea224fe,,,,,,,,,829,47,124.5,1,0,0,response1disk,,7,-2,0.5,1,0,0,rectangle,-2,0.5,1,0,0,-2,0.5,1,0,0,0,16,16,39,1,,,,,,,,
,,,,,,,,,,,,,FF,,,,,,,,2.001,,,,,,,,,,,,,,,,,,,,,,5e8ec3e28ee4fe17502d74eb,6103764a31b0121be5202ca6,2021-07-29_22h57.13.687,Simcolourproject_2stim_asymm_v5,2020.2.10,Win32,60,61025ae37ef11b136ea224fe,,,,,,,,,1114,-46,108.5,1,0,0,response7disk,,0,6,3.5,1,0,0,rectangle,6,3.5,1,0,0,6,3.5,1,0,0,0,17,17,69,1,,,,,,,,
,,,,,,,,,,,,,FF,,,,,,,,1.134,,,,,,,,,,,,,,,,,,,,,,5e8ec3e28ee4fe17502d74eb,6103764a31b0121be5202ca6,2021-07-29_22h57.13.687,Simcolourproject_2stim_asymm_v5,2020.2.10,Win32,60,61025ae37ef11b136ea224fe,,,,,,,,,3684,25,119.5,1,0,0,response1disk,,7,3,-1.5,1,0,0,rectangle,3,-1.5,1,0,0,3,-1.5,1,0,0,0,18,18,45,1,,,,,,,,
,,,,,,,,,,,,,FF,,,,,,,,1.216,,,,,,,,,,,,,,,,,,,,,,5e8ec3e28ee4fe17502d74eb,6103764a31b0121be5202ca6,2021-07-29_22h57.13.687,Simcolourproject_2stim_asymm_v5,2020.2.10,Win32,60,61025ae37ef11b136ea224fe,,,,,,,,,4301,59,113.5,1,0,0,response1disk,,7,2,2.5,1,0,0,rectangle,2,2.5,1,0,0,2,2.5,1,0,0,0,19,19,28,1,,,,,,,,
,,,,,,,,,,,,,FF,,,,,,,,1.016,,,,,,,,,,,,,,,,,,,,,,5e8ec3e28ee4fe17502d74eb,6103764a31b0121be5202ca6,2021-07-29_22h57.13.687,Simcolourproject_2stim_asymm_v5,2020.2.10,Win32,60,61025ae37ef11b136ea224fe,,,,,,,,,914,51,114.5,1,0,0,response1disk,,7,-1,1.5,1,0,0,rectangle,-1,1.5,1,0,0,-1,1.5,1,0,0,0,20,20,77,1,,,,,,,,
,,,,,,,,,,,,,FF,,,,,,,,1.733,,,,,,,,,,,,,,,,,,,,,,5e8ec3e28ee4fe17502d74eb,6103764a31b0121be5202ca6,2021-07-29_22h57.13.687,Simcolourproject_2stim_asymm_v5,2020.2.10,Win32,60,61025ae37ef11b136ea224fe,,,,,,,,,4275,50,117.5,1,0,0,response1disk,,7,-4,5.5,1,0,0,rectangle,-106,47.5,1,0,0,-4,5.5,1,0,0,0,21,21,31,1,,response7disk_3,TRUE,1,1,"[192,265,92,192,178,273,165,148,126,179,115,87,150,214,15,32,216,22,252,271]",5.25,rectangle
,,,,,,,,,,,,,FF,,,,,,,,2.633,,,,,,,,,,,,,,,,,,,,,,5e8ec3e28ee4fe17502d74eb,6103764a31b0121be5202ca6,2021-07-29_22h57.13.687,Simcolourproject_2stim_asymm_v5,2020.2.10,Win32,60,61025ae37ef11b136ea224fe,,,,,,,,,1002,33,98.5,1,0,0,response1disk,,7,1,1.5,1,0,0,rectangle,1,1.5,1,0,0,1,1.5,1,0,0,0,22,22,1,1,,,,,,,,
,,,,,,,,,,,,,FF,,,,,,,,2,,,,,,,,,,,,,,,,,,,,,,5e8ec3e28ee4fe17502d74eb,6103764a31b0121be5202ca6,2021-07-29_22h57.13.687,Simcolourproject_2stim_asymm_v5,2020.2.10,Win32,60,61025ae37ef11b136ea224fe,,,,,,,,,449,42,94.5,1,0,0,response1disk,,7,-4,3.5,1,0,0,rectangle,-4,3.5,1,0,0,-4,3.5,1,0,0,0,23,23,61,1,,,,,,,,
,,,,,,,,,,,,,FF,,,,,,,,2.067,,,,,,,,,,,,,,,,,,,,,,5e8ec3e28ee4fe17502d74eb,6103764a31b0121be5202ca6,2021-07-29_22h57.13.687,Simcolourproject_2stim_asymm_v5,2020.2.10,Win32,60,61025ae37ef11b136ea224fe,,,,,,,,,1209,38,98.5,1,0,0,response1disk,,7,-1,-4.5,1,0,0,rectangle,-1,-4.5,1,0,0,-1,-4.5,1,0,0,0,24,24,75,1,,,,,,,,
,,,,,,,,,,,,,FF,,,,,,,,2.151,,,,,,,,,,,,,,,,,,,,,,5e8ec3e28ee4fe17502d74eb,6103764a31b0121be5202ca6,2021-07-29_22h57.13.687,Simcolourproject_2stim_asymm_v5,2020.2.10,Win32,60,61025ae37ef11b136ea224fe,,,,,,,,,1742,56,112.5,1,0,0,response1disk,,7,2,5.5,1,0,0,rectangle,2,5.5,1,0,0,2,5.5,1,0,0,0,25,25,157,1,,,,,,,,
,,,,,,,,,,,,,FF,,,,,,,,2.467,,,,,,,,,,,,,,,,,,,,,,5e8ec3e28ee4fe17502d74eb,6103764a31b0121be5202ca6,2021-07-29_22h57.13.687,Simcolourproject_2stim_asymm_v5,2020.2.10,Win32,60,61025ae37ef11b136ea224fe,,,,,,,,,3466,54,111.5,1,0,0,response1disk,,7,-1,3.5,1,0,0,rectangle,-1,3.5,1,0,0,-1,3.5,1,0,0,0,26,26,26,1,,,,,,,,
,,,,,,,,,,,,,FF,,,,,,,,2.633,,,,,,,,,,,,,,,,,,,,,,5e8ec3e28ee4fe17502d74eb,6103764a31b0121be5202ca6,2021-07-29_22h57.13.687,Simcolourproject_2stim_asymm_v5,2020.2.10,Win32,60,61025ae37ef11b136ea224fe,,,,,,,,,3115,37,107.5,1,0,0,response1disk,,7,-4,3.5,1,0,0,rectangle,-4,3.5,1,0,0,-4,3.5,1,0,0,0,27,27,0,1,,,,,,,,
,,,,,,,,,,,,,FF,,,,,,,,0.967,,,,,,,,,,,,,,,,,,,,,,5e8ec3e28ee4fe17502d74eb,6103764a31b0121be5202ca6,2021-07-29_22h57.13.687,Simcolourproject_2stim_asymm_v5,2020.2.10,Win32,60,61025ae37ef11b136ea224fe,,,,,,,,,1427,54,105.5,1,0,0,response1disk,,7,1,1.5,1,0,0,rectangle,1,1.5,1,0,0,1,1.5,1,0,0,0,28,28,34,1,,,,,,,,
,,,,,,,,,,,,,FF,,,,,,,,6.416,,,,,,,,,,,,,,,,,,,,,,5e8ec3e28ee4fe17502d74eb,6103764a31b0121be5202ca6,2021-07-29_22h57.13.687,Simcolourproject_2stim_asymm_v5,2020.2.10,Win32,60,61025ae37ef11b136ea224fe,,,,,,,,,2905,50,88.5,1,0,0,response1disk,,7,3,-0.5,1,0,0,rectangle,3,-0.5,1,0,0,3,-0.5,1,0,0,0,29,29,138,1,,,,,,,,
,,,,,,,,,,,,,FF,,,,,,,,1,,,,,,,,,,,,,,,,,,,,,,5e8ec3e28ee4fe17502d74eb,6103764a31b0121be5202ca6,2021-07-29_22h57.13.687,Simcolourproject_2stim_asymm_v5,2020.2.10,Win32,60,61025ae37ef11b136ea224fe,,,,,,,,,411,46,108.5,1,0,0,response1disk,,7,-3,1.5,1,0,0,rectangle,-3,1.5,1,0,0,-3,1.5,1,0,0,0,30,30,18,1,,,,,,,,
,,,,,,,,,,,,,FF,,,,,,,,1.85,,,,,,,,,,,,,,,,,,,,,,5e8ec3e28ee4fe17502d74eb,6103764a31b0121be5202ca6,2021-07-29_22h57.13.687,Simcolourproject_2stim_asymm_v5,2020.2.10,Win32,60,61025ae37ef11b136ea224fe,,,,,,,,,596,39,106.5,1,0,0,response1disk,,7,5,1.5,1,0,0,rectangle,34,-105.5,1,0,0,-1,-0.5,1,0,0,0,31,31,89,1,,response3disk_3,TRUE,4,4,"[192,265,92,192,178,273,165,148,126,179,115,87,150,214,15,32,216,22,252,271]",2.934,rectangle
,,,,,,,,,,,,,FF,,,,,,,,13.533,,,,,,,,,,,,,,,,,,,,,,5e8ec3e28ee4fe17502d74eb,6103764a31b0121be5202ca6,2021-07-29_22h57.13.687,Simcolourproject_2stim_asymm_v5,2020.2.10,Win32,60,61025ae37ef11b136ea224fe,,,,,,,,,82,123,48.5,1,0,0,response1disk,,6,3,0.5,1,0,0,rectangle,3,0.5,1,0,0,3,0.5,1,0,0,0,32,32,94,1,,,,,,,,
,,,,,,,,,,,,,FF,,,,,,,,6.901,,,,,,,,,,,,,,,,,,,,,,5e8ec3e28ee4fe17502d74eb,6103764a31b0121be5202ca6,2021-07-29_22h57.13.687,Simcolourproject_2stim_asymm_v5,2020.2.10,Win32,60,61025ae37ef11b136ea224fe,,,,,,,,,1824,-102,-44.5,1,0,0,response5disk,,2,6,-7.5,1,0,0,rectangle,6,-7.5,1,0,0,6,-7.5,1,0,0,0,33,33,110,1,,,,,,,,
,,,,,,,,,,,,,FF,,,,,,,,3.783,,,,,,,,,,,,,,,,,,,,,,5e8ec3e28ee4fe17502d74eb,6103764a31b0121be5202ca6,2021-07-29_22h57.13.687,Simcolourproject_2stim_asymm_v5,2020.2.10,Win32,60,61025ae37ef11b136ea224fe,,,,,,,,,1841,66,99.5,1,0,0,response1disk,,7,3,-3.5,1,0,0,rectangle,3,-3.5,1,0,0,3,-3.5,1,0,0,0,34,34,19,1,,,,,,,,
,,,,,,,,,,,,,FF,,,,,,,,6.634,,,,,,,,,,,,,,,,,,,,,,5e8ec3e28ee4fe17502d74eb,6103764a31b0121be5202ca6,2021-07-29_22h57.13.687,Simcolourproject_2stim_asymm_v5,2020.2.10,Win32,60,61025ae37ef11b136ea224fe,,,,,,,,,3634,100,-40.5,1,0,0,response3disk,,5,9,0.5,1,0,0,rectangle,9,0.5,1,0,0,9,0.5,1,0,0,0,35,35,23,1,,,,,,,,
,,,,,,,,,,,,,FF,,,,,,,,8.133,,,,,,,,,,,,,,,,,,,,,,5e8ec3e28ee4fe17502d74eb,6103764a31b0121be5202ca6,2021-07-29_22h57.13.687,Simcolourproject_2stim_asymm_v5,2020.2.10,Win32,60,61025ae37ef11b136ea224fe,,,,,,,,,2996,35,-124.5,1,0,0,response3disk,,4,-7,2.5,1,0,0,rectangle,-7,2.5,1,0,0,-7,2.5,1,0,0,0,36,36,148,1,,,,,,,,
,,,,,,,,,,,,,FF,,,,,,,,1.517,,,,,,,,,,,,,,,,,,,,,,5e8ec3e28ee4fe17502d74eb,6103764a31b0121be5202ca6,2021-07-29_22h57.13.687,Simcolourproject_2stim_asymm_v5,2020.2.10,Win32,60,61025ae37ef11b136ea224fe,,,,,,,,,901,46,108.5,1,0,0,response1disk,,7,3,1.5,1,0,0,rectangle,3,1.5,1,0,0,3,1.5,1,0,0,0,37,37,156,1,,,,,,,,
,,,,,,,,,,,,,FF,,,,,,,,1.367,,,,,,,,,,,,,,,,,,,,,,5e8ec3e28ee4fe17502d74eb,6103764a31b0121be5202ca6,2021-07-29_22h57.13.687,Simcolourproject_2stim_asymm_v5,2020.2.10,Win32,60,61025ae37ef11b136ea224fe,,,,,,,,,2441,35,100.5,1,0,0,response1disk,,7,-2,4.5,1,0,0,rectangle,-2,4.5,1,0,0,-2,4.5,1,0,0,0,38,38,36,1,,,,,,,,
,,,,,,,,,,,,,FF,,,,,,,,2.383,,,,,,,,,,,,,,,,,,,,,,5e8ec3e28ee4fe17502d74eb,6103764a31b0121be5202ca6,2021-07-29_22h57.13.687,Simcolourproject_2stim_asymm_v5,2020.2.10,Win32,60,61025ae37ef11b136ea224fe,,,,,,,,,2364,47,113.5,1,0,0,response1disk,,7,2,-2.5,1,0,0,rectangle,2,-2.5,1,0,0,2,-2.5,1,0,0,0,39,39,15,1,,,,,,,,
,,,,,,,,,,,,,FF,,,,,,,,2.05,,,,,,,,,,,,,,,,,,,,,,5e8ec3e28ee4fe17502d74eb,6103764a31b0121be5202ca6,2021-07-29_22h57.13.687,Simcolourproject_2stim_asymm_v5,2020.2.10,Win32,60,61025ae37ef11b136ea224fe,,,,,,,,,4006,59,102.5,1,0,0,response1disk,,7,-3,-2.5,1,0,0,rectangle,-3,-2.5,1,0,0,-3,-2.5,1,0,0,0,40,40,136,1,,,,,,,,
,,,,,,,,,,,,,FF,,,,,,,,1.351,,,,,,,,,,,,,,,,,,,,,,5e8ec3e28ee4fe17502d74eb,6103764a31b0121be5202ca6,2021-07-29_22h57.13.687,Simcolourproject_2stim_asymm_v5,2020.2.10,Win32,60,61025ae37ef11b136ea224fe,,,,,,,,,1431,48,106.5,1,0,0,response1disk,,7,-1,4.5,1,0,0,rectangle,-1,4.5,1,0,0,-1,4.5,1,0,0,0,41,41,57,1,,,,,,,,
,,,,,,,,,,,,,FF,,,,,,,,2.35,,,,,,,,,,,,,,,,,,,,,,5e8ec3e28ee4fe17502d74eb,6103764a31b0121be5202ca6,2021-07-29_22h57.13.687,Simcolourproject_2stim_asymm_v5,2020.2.10,Win32,60,61025ae37ef11b136ea224fe,,,,,,,,,600,103,-42.5,1,0,0,response3disk,,5,21,-6.5,1,0,0,rectangle,21,-6.5,1,0,0,21,-6.5,1,0,0,0,42,42,42,1,,,,,,,,
,,,,,,,,,,,,,FF,,,,,,,,2.983,,,,,,,,,,,,,,,,,,,,,,5e8ec3e28ee4fe17502d74eb,6103764a31b0121be5202ca6,2021-07-29_22h57.13.687,Simcolourproject_2stim_asymm_v5,2020.2.10,Win32,60,61025ae37ef11b136ea224fe,,,,,,,,,416,63,97.5,1,0,0,response1disk,,7,-3,3.5,1,0,0,rectangle,-3,3.5,1,0,0,-3,3.5,1,0,0,0,43,43,103,1,,,,,,,,
,,,,,,,,,,,,,FF,,,,,,,,1.434,,,,,,,,,,,,,,,,,,,,,,5e8ec3e28ee4fe17502d74eb,6103764a31b0121be5202ca6,2021-07-29_22h57.13.687,Simcolourproject_2stim_asymm_v5,2020.2.10,Win32,60,61025ae37ef11b136ea224fe,,,,,,,,,219,50,99.5,1,0,0,response1disk,,7,8,0.5,1,0,0,rectangle,8,0.5,1,0,0,8,0.5,1,0,0,0,44,44,33,1,,,,,,,,
,,,,,,,,,,,,,FF,,,,,,,,1.167,,,,,,,,,,,,,,,,,,,,,,5e8ec3e28ee4fe17502d74eb,6103764a31b0121be5202ca6,2021-07-29_22h57.13.687,Simcolourproject_2stim_asymm_v5,2020.2.10,Win32,60,61025ae37ef11b136ea224fe,,,,,,,,,474,69,126.5,1,0,0,response1disk,,7,3,-2.5,1,0,0,rectangle,3,-2.5,1,0,0,3,-2.5,1,0,0,0,45,45,50,1,,,,,,,,
,,,,,,,,,,,,,FF,,,,,,,,1.299,,,,,,,,,,,,,,,,,,,,,,5e8ec3e28ee4fe17502d74eb,6103764a31b0121be5202ca6,2021-07-29_22h57.13.687,Simcolourproject_2stim_asymm_v5,2020.2.10,Win32,60,61025ae37ef11b136ea224fe,,,,,,,,,3724,68,111.5,1,0,0,response1disk,,7,-2,-0.5,1,0,0,rectangle,-2,-0.5,1,0,0,-2,-0.5,1,0,0,0,46,46,118,1,,,,,,,,
,,,,,,,,,,,,,FF,,,,,,,,1.1,,,,,,,,,,,,,,,,,,,,,,5e8ec3e28ee4fe17502d74eb,6103764a31b0121be5202ca6,2021-07-29_22h57.13.687,Simcolourproject_2stim_asymm_v5,2020.2.10,Win32,60,61025ae37ef11b136ea224fe,,,,,,,,,3590,46,96.5,1,0,0,response1disk,,7,-6,0.5,1,0,0,rectangle,-6,0.5,1,0,0,-6,0.5,1,0,0,0,47,47,44,1,,,,,,,,
,,,,,,,,,,,,,FF,,,,,,,,0.884,,,,,,,,,,,,,,,,,,,,,,5e8ec3e28ee4fe17502d74eb,6103764a31b0121be5202ca6,2021-07-29_22h57.13.687,Simcolourproject_2stim_asymm_v5,2020.2.10,Win32,60,61025ae37ef11b136ea224fe,,,,,,,,,692,54,115.5,1,0,0,response1disk,,7,2,4.5,1,0,0,rectangle,2,4.5,1,0,0,2,4.5,1,0,0,0,48,48,3,1,,,,,,,,
,,,,,,,,,,,,,FF,,,,,,,,1.016,,,,,,,,,,,,,,,,,,,,,,5e8ec3e28ee4fe17502d74eb,6103764a31b0121be5202ca6,2021-07-29_22h57.13.687,Simcolourproject_2stim_asymm_v5,2020.2.10,Win32,60,61025ae37ef11b136ea224fe,,,,,,,,,578,44,100.5,1,0,0,response1disk,,7,7,-9.5,1,0,0,rectangle,7,-9.5,1,0,0,7,-9.5,1,0,0,0,49,49,105,1,,,,,,,,
,,,,,,,,,,,,,FF,,,,,,,,2.067,,,,,,,,,,,,,,,,,,,,,,5e8ec3e28ee4fe17502d74eb,6103764a31b0121be5202ca6,2021-07-29_22h57.13.687,Simcolourproject_2stim_asymm_v5,2020.2.10,Win32,60,61025ae37ef11b136ea224fe,,,,,,,,,158,37,121.5,1,0,0,response1disk,,7,-3,10.5,1,0,0,rectangle,-3,10.5,1,0,0,-3,10.5,1,0,0,0,50,50,67,1,,,,,,,,
,,,,,,,,,,,,,FF,,,,,,,,1.633,,,,,,,,,,,,,,,,,,,,,,5e8ec3e28ee4fe17502d74eb,6103764a31b0121be5202ca6,2021-07-29_22h57.13.687,Simcolourproject_2stim_asymm_v5,2020.2.10,Win32,60,61025ae37ef11b136ea224fe,,,,,,,,,2587,42,114.5,1,0,0,response1disk,,7,-5,4.5,1,0,0,rectangle,-5,4.5,1,0,0,-5,4.5,1,0,0,0,51,51,114,1,,,,,,,,
,,,,,,,,,,,,,FF,,,,,,,,1.667,,,,,,,,,,,,,,,,,,,,,,5e8ec3e28ee4fe17502d74eb,6103764a31b0121be5202ca6,2021-07-29_22h57.13.687,Simcolourproject_2stim_asymm_v5,2020.2.10,Win32,60,61025ae37ef11b136ea224fe,,,,,,,,,937,46,97.5,1,0,0,response1disk,,7,-2,12.5,1,0,0,rectangle,-2,12.5,1,0,0,-2,12.5,1,0,0,0,52,52,2,1,,,,,,,,
,,,,,,,,,,,,,FF,,,,,,,,3.199,,,,,,,,,,,,,,,,,,,,,,5e8ec3e28ee4fe17502d74eb,6103764a31b0121be5202ca6,2021-07-29_22h57.13.687,Simcolourproject_2stim_asymm_v5,2020.2.10,Win32,60,61025ae37ef11b136ea224fe,,,,,,,,,1573,55,115.5,1,0,0,response1disk,,7,10,6.5,1,0,0,rectangle,10,6.5,1,0,0,10,6.5,1,0,0,0,53,53,137,1,,,,,,,,
,,,,,,,,,,,,,FF,,,,,,,,1.584,,,,,,,,,,,,,,,,,,,,,,5e8ec3e28ee4fe17502d74eb,6103764a31b0121be5202ca6,2021-07-29_22h57.13.687,Simcolourproject_2stim_asymm_v5,2020.2.10,Win32,60,61025ae37ef11b136ea224fe,,,,,,,,,1255,46,115.5,1,0,0,response1disk,,7,-6,0.5,1,0,0,rectangle,-6,0.5,1,0,0,-6,0.5,1,0,0,0,54,54,91,1,,,,,,,,
,,,,,,,,,,,,,FF,,,,,,,,2.133,,,,,,,,,,,,,,,,,,,,,,5e8ec3e28ee4fe17502d74eb,6103764a31b0121be5202ca6,2021-07-29_22h57.13.687,Simcolourproject_2stim_asymm_v5,2020.2.10,Win32,60,61025ae37ef11b136ea224fe,,,,,,,,,4116,47,107.5,1,0,0,response1disk,,7,0,1.5,1,0,0,rectangle,0,1.5,1,0,0,0,1.5,1,0,0,0,55,55,107,1,,,,,,,,
,,,,,,,,,,,,,FF,,,,,,,,1.516,,,,,,,,,,,,,,,,,,,,,,5e8ec3e28ee4fe17502d74eb,6103764a31b0121be5202ca6,2021-07-29_22h57.13.687,Simcolourproject_2stim_asymm_v5,2020.2.10,Win32,60,61025ae37ef11b136ea224fe,,,,,,,,,2081,49,98.5,1,0,0,response1disk,,7,-1,6.5,1,0,0,rectangle,-1,6.5,1,0,0,-1,6.5,1,0,0,0,56,56,134,1,,,,,,,,
,,,,,,,,,,,,,FF,,,,,,,,1.933,,,,,,,,,,,,,,,,,,,,,,5e8ec3e28ee4fe17502d74eb,6103764a31b0121be5202ca6,2021-07-29_22h57.13.687,Simcolourproject_2stim_asymm_v5,2020.2.10,Win32,60,61025ae37ef11b136ea224fe,,,,,,,,,1522,48,102.5,1,0,0,response1disk,,7,1,3.5,1,0,0,rectangle,1,3.5,1,0,0,1,3.5,1,0,0,0,57,57,37,1,,,,,,,,
,,,,,,,,,,,,,FF,,,,,,,,2.05,,,,,,,,,,,,,,,,,,,,,,5e8ec3e28ee4fe17502d74eb,6103764a31b0121be5202ca6,2021-07-29_22h57.13.687,Simcolourproject_2stim_asymm_v5,2020.2.10,Win32,60,61025ae37ef11b136ea224fe,,,,,,,,,232,42,102.5,1,0,0,response1disk,,7,-3,-6.5,1,0,0,rectangle,-3,-6.5,1,0,0,-3,-6.5,1,0,0,0,58,58,62,1,,,,,,,,
,,,,,,,,,,,,,FF,,,,,,,,1.167,,,,,,,,,,,,,,,,,,,,,,5e8ec3e28ee4fe17502d74eb,6103764a31b0121be5202ca6,2021-07-29_22h57.13.687,Simcolourproject_2stim_asymm_v5,2020.2.10,Win32,60,61025ae37ef11b136ea224fe,,,,,,,,,3134,35,113.5,1,0,0,response1disk,,7,3,-1.5,1,0,0,rectangle,3,-1.5,1,0,0,3,-1.5,1,0,0,0,59,59,6,1,,,,,,,,
,,,,,,,,,,,,,FF,,,,,,,,4.017,,,,,,,,,,,,,,,,,,,,,,5e8ec3e28ee4fe17502d74eb,6103764a31b0121be5202ca6,2021-07-29_22h57.13.687,Simcolourproject_2stim_asymm_v5,2020.2.10,Win32,60,61025ae37ef11b136ea224fe,,,,,,,,,1950,92,-36.5,1,0,0,response3disk,,5,-3,5.5,1,0,0,rectangle,-3,5.5,1,0,0,-3,5.5,1,0,0,0,60,60,109,1,,,,,,,,
,,,,,,,,,,,,,FF,,,,,,,,2.317,,,,,,,,,,,,,,,,,,,,,,5e8ec3e28ee4fe17502d74eb,6103764a31b0121be5202ca6,2021-07-29_22h57.13.687,Simcolourproject_2stim_asymm_v5,2020.2.10,Win32,60,61025ae37ef11b136ea224fe,,,,,,,,,889,-43,-104.5,1,0,0,response5disk,,3,-1,0.5,1,0,0,rectangle,-1,0.5,1,0,0,-1,0.5,1,0,0,0,61,61,85,1,,,,,,,,
,,,,,,,,,,,,,FF,,,,,,,,2.4,,,,,,,,,,,,,,,,,,,,,,5e8ec3e28ee4fe17502d74eb,6103764a31b0121be5202ca6,2021-07-29_22h57.13.687,Simcolourproject_2stim_asymm_v5,2020.2.10,Win32,60,61025ae37ef11b136ea224fe,,,,,,,,,608,54,108.5,1,0,0,response1disk,,7,1,-3.5,1,0,0,rectangle,1,-3.5,1,0,0,1,-3.5,1,0,0,0,62,62,159,1,,,,,,,,
,,,,,,,,,,,,,FF,,,,,,,,4.75,,,,,,,,,,,,,,,,,,,,,,5e8ec3e28ee4fe17502d74eb,6103764a31b0121be5202ca6,2021-07-29_22h57.13.687,Simcolourproject_2stim_asymm_v5,2020.2.10,Win32,60,61025ae37ef11b136ea224fe,,,,,,,,,1748,-56,-106.5,1,0,0,response5disk,,3,0,0.5,1,0,0,rectangle,0,0.5,1,0,0,0,0.5,1,0,0,0,63,63,52,1,,,,,,,,
,,,,,,,,,,,,,FF,,,,,,,,1.735,,,,,,,,,,,,,,,,,,,,,,5e8ec3e28ee4fe17502d74eb,6103764a31b0121be5202ca6,2021-07-29_22h57.13.687,Simcolourproject_2stim_asymm_v5,2020.2.10,Win32,60,61025ae37ef11b136ea224fe,,,,,,,,,3760,69,116.5,1,0,0,response1disk,,7,-1,-1.5,1,0,0,rectangle,-1,-1.5,1,0,0,-1,-1.5,1,0,0,0,64,64,100,1,,,,,,,,
,,,,,,,,,,,,,FF,,,,,,,,1.267,,,,,,,,,,,,,,,,,,,,,,5e8ec3e28ee4fe17502d74eb,6103764a31b0121be5202ca6,2021-07-29_22h57.13.687,Simcolourproject_2stim_asymm_v5,2020.2.10,Win32,60,61025ae37ef11b136ea224fe,,,,,,,,,984,46,113.5,1,0,0,response1disk,,7,1,-0.5,1,0,0,rectangle,1,-0.5,1,0,0,1,-0.5,1,0,0,0,65,65,84,1,,,,,,,,
,,,,,,,,,,,,,FF,,,,,,,,1.133,,,,,,,,,,,,,,,,,,,,,,5e8ec3e28ee4fe17502d74eb,6103764a31b0121be5202ca6,2021-07-29_22h57.13.687,Simcolourproject_2stim_asymm_v5,2020.2.10,Win32,60,61025ae37ef11b136ea224fe,,,,,,,,,3945,-53,-98.5,1,0,0,response5disk,,3,-1,-4.5,1,0,0,rectangle,-1,-4.5,1,0,0,-1,-4.5,1,0,0,0,66,66,43,1,,,,,,,,
,,,,,,,,,,,,,FF,,,,,,,,1.268,,,,,,,,,,,,,,,,,,,,,,5e8ec3e28ee4fe17502d74eb,6103764a31b0121be5202ca6,2021-07-29_22h57.13.687,Simcolourproject_2stim_asymm_v5,2020.2.10,Win32,60,61025ae37ef11b136ea224fe,,,,,,,,,612,-39,-109.5,1,0,0,response5disk,,3,-1,2.5,1,0,0,rectangle,-1,2.5,1,0,0,-1,2.5,1,0,0,0,67,67,51,1,,,,,,,,
,,,,,,,,,,,,,FF,,,,,,,,1.401,,,,,,,,,,,,,,,,,,,,,,5e8ec3e28ee4fe17502d74eb,6103764a31b0121be5202ca6,2021-07-29_22h57.13.687,Simcolourproject_2stim_asymm_v5,2020.2.10,Win32,60,61025ae37ef11b136ea224fe,,,,,,,,,1845,45,98.5,1,0,0,response1disk,,7,-2,-1.5,1,0,0,rectangle,-2,-1.5,1,0,0,-2,-1.5,1,0,0,0,68,68,65,1,,,,,,,,
,,,,,,,,,,,,,FF,,,,,,,,2.25,,,,,,,,,,,,,,,,,,,,,,5e8ec3e28ee4fe17502d74eb,6103764a31b0121be5202ca6,2021-07-29_22h57.13.687,Simcolourproject_2stim_asymm_v5,2020.2.10,Win32,60,61025ae37ef11b136ea224fe,,,,,,,,,3441,121,34.5,1,0,0,response1disk,,6,6,2.5,1,0,0,rectangle,6,2.5,1,0,0,6,2.5,1,0,0,0,69,69,74,1,,,,,,,,
,,,,,,,,,,,,,FF,,,,,,,,1.217,,,,,,,,,,,,,,,,,,,,,,5e8ec3e28ee4fe17502d74eb,6103764a31b0121be5202ca6,2021-07-29_22h57.13.687,Simcolourproject_2stim_asymm_v5,2020.2.10,Win32,60,61025ae37ef11b136ea224fe,,,,,,,,,292,49,92.5,1,0,0,response1disk,,7,2,-2.5,1,0,0,rectangle,2,-2.5,1,0,0,2,-2.5,1,0,0,0,70,70,87,1,,,,,,,,
,,,,,,,,,,,,,FF,,,,,,,,1.684,,,,,,,,,,,,,,,,,,,,,,5e8ec3e28ee4fe17502d74eb,6103764a31b0121be5202ca6,2021-07-29_22h57.13.687,Simcolourproject_2stim_asymm_v5,2020.2.10,Win32,60,61025ae37ef11b136ea224fe,,,,,,,,,4154,44,87.5,1,0,0,response1disk,,7,2,5.5,1,0,0,rectangle,2,5.5,1,0,0,2,5.5,1,0,0,0,71,71,120,1,,,,,,,,
,,,,,,,,,,,,,FF,,,,,,,,1.066,,,,,,,,,,,,,,,,,,,,,,5e8ec3e28ee4fe17502d74eb,6103764a31b0121be5202ca6,2021-07-29_22h57.13.687,Simcolourproject_2stim_asymm_v5,2020.2.10,Win32,60,61025ae37ef11b136ea224fe,,,,,,,,,3789,45,89.5,1,0,0,response1disk,,7,0,2.5,1,0,0,rectangle,0,2.5,1,0,0,0,2.5,1,0,0,0,72,72,10,1,,,,,,,,
,,,,,,,,,,,,,FF,,,,,,,,1.384,,,,,,,,,,,,,,,,,,,,,,5e8ec3e28ee4fe17502d74eb,6103764a31b0121be5202ca6,2021-07-29_22h57.13.687,Simcolourproject_2stim_asymm_v5,2020.2.10,Win32,60,61025ae37ef11b136ea224fe,,,,,,,,,4037,62,114.5,1,0,0,response1disk,,7,5,1.5,1,0,0,rectangle,5,1.5,1,0,0,5,1.5,1,0,0,0,73,73,142,1,,,,,,,,
,,,,,,,,,,,,,FF,,,,,,,,1.149,,,,,,,,,,,,,,,,,,,,,,5e8ec3e28ee4fe17502d74eb,6103764a31b0121be5202ca6,2021-07-29_22h57.13.687,Simcolourproject_2stim_asymm_v5,2020.2.10,Win32,60,61025ae37ef11b136ea224fe,,,,,,,,,2255,43,93.5,1,0,0,response1disk,,7,-5,1.5,1,0,0,rectangle,-5,1.5,1,0,0,-5,1.5,1,0,0,0,74,74,79,1,,,,,,,,
,,,,,,,,,,,,,FF,,,,,,,,2.4,,,,,,,,,,,,,,,,,,,,,,5e8ec3e28ee4fe17502d74eb,6103764a31b0121be5202ca6,2021-07-29_22h57.13.687,Simcolourproject_2stim_asymm_v5,2020.2.10,Win32,60,61025ae37ef11b136ea224fe,,,,,,,,,1387,50,101.5,1,0,0,response1disk,,7,1,-0.5,1,0,0,rectangle,1,-0.5,1,0,0,1,-0.5,1,0,0,0,75,75,133,1,,,,,,,,
,,,,,,,,,,,,,FF,,,,,,,,0.917,,,,,,,,,,,,,,,,,,,,,,5e8ec3e28ee4fe17502d74eb,6103764a31b0121be5202ca6,2021-07-29_22h57.13.687,Simcolourproject_2stim_asymm_v5,2020.2.10,Win32,60,61025ae37ef11b136ea224fe,,,,,,,,,2135,37,109.5,1,0,0,response1disk,,7,-4,7.5,1,0,0,rectangle,-4,7.5,1,0,0,-4,7.5,1,0,0,0,76,76,83,1,,,,,,,,
,,,,,,,,,,,,,FF,,,,,,,,1.166,,,,,,,,,,,,,,,,,,,,,,5e8ec3e28ee4fe17502d74eb,6103764a31b0121be5202ca6,2021-07-29_22h57.13.687,Simcolourproject_2stim_asymm_v5,2020.2.10,Win32,60,61025ae37ef11b136ea224fe,,,,,,,,,3438,47,98.5,1,0,0,response1disk,,7,-2,1.5,1,0,0,rectangle,-2,1.5,1,0,0,-2,1.5,1,0,0,0,77,77,141,1,,,,,,,,
,,,,,,,,,,,,,FF,,,,,,,,1.435,,,,,,,,,,,,,,,,,,,,,,5e8ec3e28ee4fe17502d74eb,6103764a31b0121be5202ca6,2021-07-29_22h57.13.687,Simcolourproject_2stim_asymm_v5,2020.2.10,Win32,60,61025ae37ef11b136ea224fe,,,,,,,,,3517,-67,-49.5,1,0,0,response5disk,,2,1,-3.5,1,0,0,rectangle,1,-3.5,1,0,0,1,-3.5,1,0,0,0,78,78,93,1,,,,,,,,
,,,,,,,,,,,,,FF,,,,,,,,1.433,,,,,,,,,,,,,,,,,,,,,,5e8ec3e28ee4fe17502d74eb,6103764a31b0121be5202ca6,2021-07-29_22h57.13.687,Simcolourproject_2stim_asymm_v5,2020.2.10,Win32,60,61025ae37ef11b136ea224fe,,,,,,,,,3878,54,101.5,1,0,0,response1disk,,7,4,5.5,1,0,0,rectangle,4,5.5,1,0,0,4,5.5,1,0,0,0,79,79,27,1,,,,,,,,
,,,,,,,,,,,,,FF,,,,,,,,5.283,,,,,,,,,,,,,,,,,,,,,,5e8ec3e28ee4fe17502d74eb,6103764a31b0121be5202ca6,2021-07-29_22h57.13.687,Simcolourproject_2stim_asymm_v5,2020.2.10,Win32,60,61025ae37ef11b136ea224fe,,,,,,,,,3110,107,41.5,1,0,0,response1disk,,6,1,-1.5,1,0,0,rectangle,1,-1.5,1,0,0,1,-1.5,1,0,0,0,80,80,59,1,,,,,,,,
,,,,,,,,,,,,,FF,,,,,,,,1.601,,,,,,,,,,,,,,,,,,,,,,5e8ec3e28ee4fe17502d74eb,6103764a31b0121be5202ca6,2021-07-29_22h57.13.687,Simcolourproject_2stim_asymm_v5,2020.2.10,Win32,60,61025ae37ef11b136ea224fe,,,,,,,,,3595,46,-109.5,1,0,0,response3disk,,4,8,-0.5,1,0,0,rectangle,8,-0.5,1,0,0,8,-0.5,1,0,0,0,81,81,147,1,,,,,,,,
,,,,,,,,,,,,,FF,,,,,,,,1.617,,,,,,,,,,,,,,,,,,,,,,5e8ec3e28ee4fe17502d74eb,6103764a31b0121be5202ca6,2021-07-29_22h57.13.687,Simcolourproject_2stim_asymm_v5,2020.2.10,Win32,60,61025ae37ef11b136ea224fe,,,,,,,,,3638,53,110.5,1,0,0,response1disk,,7,16,-0.5,1,0,0,rectangle,16,-0.5,1,0,0,16,-0.5,1,0,0,0,82,82,139,1,,,,,,,,
,,,,,,,,,,,,,FF,,,,,,,,1.533,,,,,,,,,,,,,,,,,,,,,,5e8ec3e28ee4fe17502d74eb,6103764a31b0121be5202ca6,2021-07-29_22h57.13.687,Simcolourproject_2stim_asymm_v5,2020.2.10,Win32,60,61025ae37ef11b136ea224fe,,,,,,,,,64,52,110.5,1,0,0,response1disk,,7,2,-1.5,1,0,0,rectangle,2,-1.5,1,0,0,2,-1.5,1,0,0,0,83,83,145,1,,,,,,,,
,,,,,,,,,,,,,FF,,,,,,,,1.017,,,,,,,,,,,,,,,,,,,,,,5e8ec3e28ee4fe17502d74eb,6103764a31b0121be5202ca6,2021-07-29_22h57.13.687,Simcolourproject_2stim_asymm_v5,2020.2.10,Win32,60,61025ae37ef11b136ea224fe,,,,,,,,,332,34,104.5,1,0,0,response1disk,,7,8,-2.5,1,0,0,rectangle,8,-2.5,1,0,0,8,-2.5,1,0,0,0,84,84,125,1,,,,,,,,
,,,,,,,,,,,,,FF,,,,,,,,2.05,,,,,,,,,,,,,,,,,,,,,,5e8ec3e28ee4fe17502d74eb,6103764a31b0121be5202ca6,2021-07-29_22h57.13.687,Simcolourproject_2stim_asymm_v5,2020.2.10,Win32,60,61025ae37ef11b136ea224fe,,,,,,,,,785,75,113.5,1,0,0,response1disk,,7,-2,6.5,1,0,0,rectangle,-2,6.5,1,0,0,-2,6.5,1,0,0,0,85,85,149,1,,,,,,,,
,,,,,,,,,,,,,FF,,,,,,,,2.4,,,,,,,,,,,,,,,,,,,,,,5e8ec3e28ee4fe17502d74eb,6103764a31b0121be5202ca6,2021-07-29_22h57.13.687,Simcolourproject_2stim_asymm_v5,2020.2.10,Win32,60,61025ae37ef11b136ea224fe,,,,,,,,,4164,35,-116.5,1,0,0,response3disk,,4,-3,11.5,1,0,0,rectangle,60,-119.5,1,0,0,2,-4.5,1,0,0,0,86,86,53,1,,response3disk_3,TRUE,4,4,"[192,265,92,192,178,273,165,148,126,179,115,87,150,214,15,32,216,22,252,271]",3.283,rectangle
,,,,,,,,,,,,,FF,,,,,,,,1.216,,,,,,,,,,,,,,,,,,,,,,5e8ec3e28ee4fe17502d74eb,6103764a31b0121be5202ca6,2021-07-29_22h57.13.687,Simcolourproject_2stim_asymm_v5,2020.2.10,Win32,60,61025ae37ef11b136ea224fe,,,,,,,,,2801,48,119.5,1,0,0,response1disk,,7,-2,-5.5,1,0,0,rectangle,-2,-5.5,1,0,0,-2,-5.5,1,0,0,0,87,87,9,1,,,,,,,,
,,,,,,,,,,,,,FF,,,,,,,,0.933,,,,,,,,,,,,,,,,,,,,,,5e8ec3e28ee4fe17502d74eb,6103764a31b0121be5202ca6,2021-07-29_22h57.13.687,Simcolourproject_2stim_asymm_v5,2020.2.10,Win32,60,61025ae37ef11b136ea224fe,,,,,,,,,3759,53,134.5,1,0,0,response1disk,,7,7,-0.5,1,0,0,rectangle,7,-0.5,1,0,0,7,-0.5,1,0,0,0,88,88,48,1,,,,,,,,
,,,,,,,,,,,,,FF,,,,,,,,1.066,,,,,,,,,,,,,,,,,,,,,,5e8ec3e28ee4fe17502d74eb,6103764a31b0121be5202ca6,2021-07-29_22h57.13.687,Simcolourproject_2stim_asymm_v5,2020.2.10,Win32,60,61025ae37ef11b136ea224fe,,,,,,,,,50,44,85.5,1,0,0,response1disk,,7,-3,-1.5,1,0,0,rectangle,-3,-1.5,1,0,0,-3,-1.5,1,0,0,0,89,89,116,1,,,,,,,,
,,,,,,,,,,,,,FF,,,,,,,,1.034,,,,,,,,,,,,,,,,,,,,,,5e8ec3e28ee4fe17502d74eb,6103764a31b0121be5202ca6,2021-07-29_22h57.13.687,Simcolourproject_2stim_asymm_v5,2020.2.10,Win32,60,61025ae37ef11b136ea224fe,,,,,,,,,1108,40,105.5,1,0,0,response1disk,,7,2,-0.5,1,0,0,rectangle,2,-0.5,1,0,0,2,-0.5,1,0,0,0,90,90,7,1,,,,,,,,
,,,,,,,,,,,,,FF,,,,,,,,1,,,,,,,,,,,,,,,,,,,,,,5e8ec3e28ee4fe17502d74eb,6103764a31b0121be5202ca6,2021-07-29_22h57.13.687,Simcolourproject_2stim_asymm_v5,2020.2.10,Win32,60,61025ae37ef11b136ea224fe,,,,,,,,,4321,35,101.5,1,0,0,response1disk,,7,7,3.5,1,0,0,rectangle,39,106.5,1,0,0,5,-1.5,1,0,0,0,91,91,5,1,,response1disk_3,TRUE,7,7,"[192,265,92,192,178,273,165,148,126,179,115,87,150,214,15,32,216,22,252,271]",3.716,rectangle
,,,,,,,,,,,,,FF,,,,,,,,1.084,,,,,,,,,,,,,,,,,,,,,,5e8ec3e28ee4fe17502d74eb,6103764a31b0121be5202ca6,2021-07-29_22h57.13.687,Simcolourproject_2stim_asymm_v5,2020.2.10,Win32,60,61025ae37ef11b136ea224fe,,,,,,,,,1880,51,93.5,1,0,0,response1disk,,7,-5,1.5,1,0,0,rectangle,-5,1.5,1,0,0,-5,1.5,1,0,0,0,92,92,76,1,,,,,,,,
,,,,,,,,,,,,,FF,,,,,,,,1.533,,,,,,,,,,,,,,,,,,,,,,5e8ec3e28ee4fe17502d74eb,6103764a31b0121be5202ca6,2021-07-29_22h57.13.687,Simcolourproject_2stim_asymm_v5,2020.2.10,Win32,60,61025ae37ef11b136ea224fe,,,,,,,,,2723,-39,-111.5,1,0,0,response5disk,,3,-2,5.5,1,0,0,rectangle,-2,5.5,1,0,0,-2,5.5,1,0,0,0,93,93,95,1,,,,,,,,
,,,,,,,,,,,,,FF,,,,,,,,0.916,,,,,,,,,,,,,,,,,,,,,,5e8ec3e28ee4fe17502d74eb,6103764a31b0121be5202ca6,2021-07-29_22h57.13.687,Simcolourproject_2stim_asymm_v5,2020.2.10,Win32,60,61025ae37ef11b136ea224fe,,,,,,,,,2635,30,94.5,1,0,0,response1disk,,7,-1,0.5,1,0,0,rectangle,-1,0.5,1,0,0,-1,0.5,1,0,0,0,94,94,20,1,,,,,,,,
,,,,,,,,,,,,,FF,,,,,,,,1.9,,,,,,,,,,,,,,,,,,,,,,5e8ec3e28ee4fe17502d74eb,6103764a31b0121be5202ca6,2021-07-29_22h57.13.687,Simcolourproject_2stim_asymm_v5,2020.2.10,Win32,60,61025ae37ef11b136ea224fe,,,,,,,,,3810,-95,46.5,1,0,0,response7disk,,1,11,1.5,1,0,0,rectangle,11,1.5,1,0,0,11,1.5,1,0,0,0,95,95,146,1,,,,,,,,
,,,,,,,,,,,,,FF,,,,,,,,1.05,,,,,,,,,,,,,,,,,,,,,,5e8ec3e28ee4fe17502d74eb,6103764a31b0121be5202ca6,2021-07-29_22h57.13.687,Simcolourproject_2stim_asymm_v5,2020.2.10,Win32,60,61025ae37ef11b136ea224fe,,,,,,,,,3764,45,92.5,1,0,0,response1disk,,7,12,4.5,1,0,0,rectangle,12,4.5,1,0,0,12,4.5,1,0,0,0,96,96,60,1,,,,,,,,
,,,,,,,,,,,,,FF,,,,,,,,0.968,,,,,,,,,,,,,,,,,,,,,,5e8ec3e28ee4fe17502d74eb,6103764a31b0121be5202ca6,2021-07-29_22h57.13.687,Simcolourproject_2stim_asymm_v5,2020.2.10,Win32,60,61025ae37ef11b136ea224fe,,,,,,,,,1500,44,104.5,1,0,0,response1disk,,7,4,1.5,1,0,0,rectangle,4,1.5,1,0,0,4,1.5,1,0,0,0,97,97,115,1,,,,,,,,
,,,,,,,,,,,,,FF,,,,,,,,0.917,,,,,,,,,,,,,,,,,,,,,,5e8ec3e28ee4fe17502d74eb,6103764a31b0121be5202ca6,2021-07-29_22h57.13.687,Simcolourproject_2stim_asymm_v5,2020.2.10,Win32,60,61025ae37ef11b136ea224fe,,,,,,,,,131,52,119.5,1,0,0,response1disk,,7,4,-5.5,1,0,0,rectangle,4,-5.5,1,0,0,4,-5.5,1,0,0,0,98,98,29,1,,,,,,,,
,,,,,,,,,,,,,FF,,,,,,,,2.083,,,,,,,,,,,,,,,,,,,,,,5e8ec3e28ee4fe17502d74eb,6103764a31b0121be5202ca6,2021-07-29_22h57.13.687,Simcolourproject_2stim_asymm_v5,2020.2.10,Win32,60,61025ae37ef11b136ea224fe,,,,,,,,,3196,-89,-48.5,1,0,0,response5disk,,2,1,7.5,1,0,0,rectangle,1,7.5,1,0,0,1,7.5,1,0,0,0,99,99,96,1,,,,,,,,
,,,,,,,,,,,,,FF,,,,,,,,1.483,,,,,,,,,,,,,,,,,,,,,,5e8ec3e28ee4fe17502d74eb,6103764a31b0121be5202ca6,2021-07-29_22h57.13.687,Simcolourproject_2stim_asymm_v5,2020.2.10,Win32,60,61025ae37ef11b136ea224fe,,,,,,,,,638,45,106.5,1,0,0,response1disk,,7,-4,3.5,1,0,0,rectangle,-4,3.5,1,0,0,-4,3.5,1,0,0,0,100,100,13,1,,,,,,,,
,,,,,,,,,,,,,FF,,,,,,,,0.883,,,,,,,,,,,,,,,,,,,,,,5e8ec3e28ee4fe17502d74eb,6103764a31b0121be5202ca6,2021-07-29_22h57.13.687,Simcolourproject_2stim_asymm_v5,2020.2.10,Win32,60,61025ae37ef11b136ea224fe,,,,,,,,,2772,37,110.5,1,0,0,response1disk,,7,3,-1.5,1,0,0,rectangle,3,-1.5,1,0,0,3,-1.5,1,0,0,0,101,101,30,1,,,,,,,,
,,,,,,,,,,,,,FF,,,,,,,,1.499,,,,,,,,,,,,,,,,,,,,,,5e8ec3e28ee4fe17502d74eb,6103764a31b0121be5202ca6,2021-07-29_22h57.13.687,Simcolourproject_2stim_asymm_v5,2020.2.10,Win32,60,61025ae37ef11b136ea224fe,,,,,,,,,3419,-45,-108.5,1,0,0,response5disk,,3,-1,-0.5,1,0,0,rectangle,-1,-0.5,1,0,0,-1,-0.5,1,0,0,0,102,102,35,1,,,,,,,,
,,,,,,,,,,,,,FF,,,,,,,,0.949,,,,,,,,,,,,,,,,,,,,,,5e8ec3e28ee4fe17502d74eb,6103764a31b0121be5202ca6,2021-07-29_22h57.13.687,Simcolourproject_2stim_asymm_v5,2020.2.10,Win32,60,61025ae37ef11b136ea224fe,,,,,,,,,857,47,105.5,1,0,0,response1disk,,7,-4,-1.5,1,0,0,rectangle,-4,-1.5,1,0,0,-4,-1.5,1,0,0,0,103,103,46,1,,,,,,,,
,,,,,,,,,,,,,FF,,,,,,,,1.017,,,,,,,,,,,,,,,,,,,,,,5e8ec3e28ee4fe17502d74eb,6103764a31b0121be5202ca6,2021-07-29_22h57.13.687,Simcolourproject_2stim_asymm_v5,2020.2.10,Win32,60,61025ae37ef11b136ea224fe,,,,,,,,,3409,35,122.5,1,0,0,response1disk,,7,4,-1.5,1,0,0,rectangle,4,-1.5,1,0,0,4,-1.5,1,0,0,0,104,104,68,1,,,,,,,,
,,,,,,,,,,,,,FF,,,,,,,,1.283,,,,,,,,,,,,,,,,,,,,,,5e8ec3e28ee4fe17502d74eb,6103764a31b0121be5202ca6,2021-07-29_22h57.13.687,Simcolourproject_2stim_asymm_v5,2020.2.10,Win32,60,61025ae37ef11b136ea224fe,,,,,,,,,3476,-28,-98.5,1,0,0,response5disk,,3,4,5.5,1,0,0,rectangle,4,5.5,1,0,0,4,5.5,1,0,0,0,105,105,14,1,,,,,,,,
,,,,,,,,,,,,,FF,,,,,,,,1.034,,,,,,,,,,,,,,,,,,,,,,5e8ec3e28ee4fe17502d74eb,6103764a31b0121be5202ca6,2021-07-29_22h57.13.687,Simcolourproject_2stim_asymm_v5,2020.2.10,Win32,60,61025ae37ef11b136ea224fe,,,,,,,,,762,42,124.5,1,0,0,response1disk,,7,3,7.5,1,0,0,rectangle,3,7.5,1,0,0,3,7.5,1,0,0,0,106,106,151,1,,,,,,,,
,,,,,,,,,,,,,FF,,,,,,,,87.647,,,,,,,,,,,,,,,,,,,,,,5e8ec3e28ee4fe17502d74eb,6103764a31b0121be5202ca6,2021-07-29_22h57.13.687,Simcolourproject_2stim_asymm_v5,2020.2.10,Win32,60,61025ae37ef11b136ea224fe,,,,,,,,,1615,54,114.5,1,0,0,response1disk,,7,0,2.5,1,0,0,rectangle,0,2.5,1,0,0,0,2.5,1,0,0,0,107,107,12,1,,,,,,,,
,,,,,,,,,,,,,FF,,,,,,,,1,,,,,,,,,,,,,,,,,,,,,,5e8ec3e28ee4fe17502d74eb,6103764a31b0121be5202ca6,2021-07-29_22h57.13.687,Simcolourproject_2stim_asymm_v5,2020.2.10,Win32,60,61025ae37ef11b136ea224fe,,,,,,,,,239,53,113.5,1,0,0,response1disk,,7,-4,0.5,1,0,0,rectangle,-4,0.5,1,0,0,-4,0.5,1,0,0,0,108,108,72,1,,,,,,,,
,,,,,,,,,,,,,FF,,,,,,,,0.967,,,,,,,,,,,,,,,,,,,,,,5e8ec3e28ee4fe17502d74eb,6103764a31b0121be5202ca6,2021-07-29_22h57.13.687,Simcolourproject_2stim_asymm_v5,2020.2.10,Win32,60,61025ae37ef11b136ea224fe,,,,,,,,,4060,41,99.5,1,0,0,response1disk,,7,8,7.5,1,0,0,rectangle,8,7.5,1,0,0,8,7.5,1,0,0,0,109,109,88,1,,,,,,,,
,,,,,,,,,,,,,FF,,,,,,,,0.966,,,,,,,,,,,,,,,,,,,,,,5e8ec3e28ee4fe17502d74eb,6103764a31b0121be5202ca6,2021-07-29_22h57.13.687,Simcolourproject_2stim_asymm_v5,2020.2.10,Win32,60,61025ae37ef11b136ea224fe,,,,,,,,,1433,49,109.5,1,0,0,response1disk,,7,2,-2.5,1,0,0,rectangle,2,-2.5,1,0,0,2,-2.5,1,0,0,0,110,110,86,1,,,,,,,,
,,,,,,,,,,,,,FF,,,,,,,,1.483,,,,,,,,,,,,,,,,,,,,,,5e8ec3e28ee4fe17502d74eb,6103764a31b0121be5202ca6,2021-07-29_22h57.13.687,Simcolourproject_2stim_asymm_v5,2020.2.10,Win32,60,61025ae37ef11b136ea224fe,,,,,,,,,2249,46,109.5,1,0,0,response1disk,,7,-2,0.5,1,0,0,rectangle,-2,0.5,1,0,0,-2,0.5,1,0,0,0,111,111,113,1,,,,,,,,
,,,,,,,,,,,,,FF,,,,,,,,14.65,,,,,,,,,,,,,,,,,,,,,,5e8ec3e28ee4fe17502d74eb,6103764a31b0121be5202ca6,2021-07-29_22h57.13.687,Simcolourproject_2stim_asymm_v5,2020.2.10,Win32,60,61025ae37ef11b136ea224fe,,,,,,,,,201,53,117.5,1,0,0,response1disk,,7,7,1.5,1,0,0,rectangle,7,1.5,1,0,0,7,1.5,1,0,0,0,112,112,129,1,,,,,,,,
,,,,,,,,,,,,,FF,,,,,,,,1.25,,,,,,,,,,,,,,,,,,,,,,5e8ec3e28ee4fe17502d74eb,6103764a31b0121be5202ca6,2021-07-29_22h57.13.687,Simcolourproject_2stim_asymm_v5,2020.2.10,Win32,60,61025ae37ef11b136ea224fe,,,,,,,,,1514,45,92.5,1,0,0,response1disk,,7,5,-2.5,1,0,0,rectangle,5,-2.5,1,0,0,5,-2.5,1,0,0,0,113,113,135,1,,,,,,,,
,,,,,,,,,,,,,FF,,,,,,,,0.933,,,,,,,,,,,,,,,,,,,,,,5e8ec3e28ee4fe17502d74eb,6103764a31b0121be5202ca6,2021-07-29_22h57.13.687,Simcolourproject_2stim_asymm_v5,2020.2.10,Win32,60,61025ae37ef11b136ea224fe,,,,,,,,,3891,33,94.5,1,0,0,response1disk,,7,-6,-3.5,1,0,0,rectangle,40,-108.5,1,0,0,1,-1.5,1,0,0,0,114,114,123,1,,response3disk_3,TRUE,4,4,"[192,265,92,192,178,273,165,148,126,179,115,87,150,214,15,32,216,22,252,271]",2.234,rectangle
,,,,,,,,,,,,,FF,,,,,,,,1.166,,,,,,,,,,,,,,,,,,,,,,5e8ec3e28ee4fe17502d74eb,6103764a31b0121be5202ca6,2021-07-29_22h57.13.687,Simcolourproject_2stim_asymm_v5,2020.2.10,Win32,60,61025ae37ef11b136ea224fe,,,,,,,,,2352,71,109.5,1,0,0,response1disk,,7,8,3.5,1,0,0,rectangle,8,3.5,1,0,0,8,3.5,1,0,0,0,115,115,8,1,,,,,,,,
,,,,,,,,,,,,,FF,,,,,,,,2.45,,,,,,,,,,,,,,,,,,,,,,5e8ec3e28ee4fe17502d74eb,6103764a31b0121be5202ca6,2021-07-29_22h57.13.687,Simcolourproject_2stim_asymm_v5,2020.2.10,Win32,60,61025ae37ef11b136ea224fe,,,,,,,,,4339,56,-105.5,1,0,0,response3disk,,4,-6,-1.5,1,0,0,rectangle,-6,-1.5,1,0,0,-6,-1.5,1,0,0,0,116,116,99,1,,,,,,,,
,,,,,,,,,,,,,FF,,,,,,,,1.699,,,,,,,,,,,,,,,,,,,,,,5e8ec3e28ee4fe17502d74eb,6103764a31b0121be5202ca6,2021-07-29_22h57.13.687,Simcolourproject_2stim_asymm_v5,2020.2.10,Win32,60,61025ae37ef11b136ea224fe,,,,,,,,,91,46,103.5,1,0,0,response1disk,,7,-6,2.5,1,0,0,rectangle,-6,2.5,1,0,0,-6,2.5,1,0,0,0,117,117,80,1,,,,,,,,
,,,,,,,,,,,,,FF,,,,,,,,1,,,,,,,,,,,,,,,,,,,,,,5e8ec3e28ee4fe17502d74eb,6103764a31b0121be5202ca6,2021-07-29_22h57.13.687,Simcolourproject_2stim_asymm_v5,2020.2.10,Win32,60,61025ae37ef11b136ea224fe,,,,,,,,,3950,41,108.5,1,0,0,response1disk,,7,-3,2.5,1,0,0,rectangle,-3,2.5,1,0,0,-3,2.5,1,0,0,0,118,118,140,1,,,,,,,,
,,,,,,,,,,,,,FF,,,,,,,,1.834,,,,,,,,,,,,,,,,,,,,,,5e8ec3e28ee4fe17502d74eb,6103764a31b0121be5202ca6,2021-07-29_22h57.13.687,Simcolourproject_2stim_asymm_v5,2020.2.10,Win32,60,61025ae37ef11b136ea224fe,,,,,,,,,2163,56,115.5,1,0,0,response1disk,,7,5,3.5,1,0,0,rectangle,5,3.5,1,0,0,5,3.5,1,0,0,0,119,119,55,1,,,,,,,,
,,,,,,,,,,,,,FF,,,,,,,,1.484,,,,,,,,,,,,,,,,,,,,,,5e8ec3e28ee4fe17502d74eb,6103764a31b0121be5202ca6,2021-07-29_22h57.13.687,Simcolourproject_2stim_asymm_v5,2020.2.10,Win32,60,61025ae37ef11b136ea224fe,,,,,,,,,1361,47,105.5,1,0,0,response1disk,,7,0,-1.5,1,0,0,rectangle,0,-1.5,1,0,0,0,-1.5,1,0,0,0,120,120,121,1,,,,,,,,
,,,,,,,,,,,,,FF,,,,,,,,1.133,,,,,,,,,,,,,,,,,,,,,,5e8ec3e28ee4fe17502d74eb,6103764a31b0121be5202ca6,2021-07-29_22h57.13.687,Simcolourproject_2stim_asymm_v5,2020.2.10,Win32,60,61025ae37ef11b136ea224fe,,,,,,,,,483,39,118.5,1,0,0,response1disk,,7,2,3.5,1,0,0,rectangle,2,3.5,1,0,0,2,3.5,1,0,0,0,121,121,56,1,,,,,,,,
,,,,,,,,,,,,,FF,,,,,,,,0.917,,,,,,,,,,,,,,,,,,,,,,5e8ec3e28ee4fe17502d74eb,6103764a31b0121be5202ca6,2021-07-29_22h57.13.687,Simcolourproject_2stim_asymm_v5,2020.2.10,Win32,60,61025ae37ef11b136ea224fe,,,,,,,,,3703,46,101.5,1,0,0,response1disk,,7,8,6.5,1,0,0,rectangle,8,6.5,1,0,0,8,6.5,1,0,0,0,122,122,58,1,,,,,,,,
,,,,,,,,,,,,,FF,,,,,,,,0.967,,,,,,,,,,,,,,,,,,,,,,5e8ec3e28ee4fe17502d74eb,6103764a31b0121be5202ca6,2021-07-29_22h57.13.687,Simcolourproject_2stim_asymm_v5,2020.2.10,Win32,60,61025ae37ef11b136ea224fe,,,,,,,,,3507,44,106.5,1,0,0,response1disk,,7,0,-0.5,1,0,0,rectangle,0,-0.5,1,0,0,0,-0.5,1,0,0,0,123,123,132,1,,,,,,,,
,,,,,,,,,,,,,FF,,,,,,,,0.817,,,,,,,,,,,,,,,,,,,,,,5e8ec3e28ee4fe17502d74eb,6103764a31b0121be5202ca6,2021-07-29_22h57.13.687,Simcolourproject_2stim_asymm_v5,2020.2.10,Win32,60,61025ae37ef11b136ea224fe,,,,,,,,,1110,46,103.5,1,0,0,response1disk,,7,4,0.5,1,0,0,rectangle,4,0.5,1,0,0,4,0.5,1,0,0,0,124,124,104,1,,,,,,,,
,,,,,,,,,,,,,FF,,,,,,,,0.782,,,,,,,,,,,,,,,,,,,,,,5e8ec3e28ee4fe17502d74eb,6103764a31b0121be5202ca6,2021-07-29_22h57.13.687,Simcolourproject_2stim_asymm_v5,2020.2.10,Win32,60,61025ae37ef11b136ea224fe,,,,,,,,,1333,39,121.5,1,0,0,response1disk,,7,-5,4.5,1,0,0,rectangle,-43,-119.5,1,0,0,3,-4.5,1,0,0,0,125,125,111,1,,response5disk_3,TRUE,3,3,"[192,265,92,192,178,273,165,148,126,179,115,87,150,214,15,32,216,22,252,271]",2.732,rectangle
,,,,,,,,,,,,,FF,,,,,,,,3.167,,,,,,,,,,,,,,,,,,,,,,5e8ec3e28ee4fe17502d74eb,6103764a31b0121be5202ca6,2021-07-29_22h57.13.687,Simcolourproject_2stim_asymm_v5,2020.2.10,Win32,60,61025ae37ef11b136ea224fe,,,,,,,,,3440,112,-45.5,1,0,0,response3disk,,5,7,3.5,1,0,0,rectangle,7,3.5,1,0,0,7,3.5,1,0,0,0,126,126,38,1,,,,,,,,
,,,,,,,,,,,,,FF,,,,,,,,1.233,,,,,,,,,,,,,,,,,,,,,,5e8ec3e28ee4fe17502d74eb,6103764a31b0121be5202ca6,2021-07-29_22h57.13.687,Simcolourproject_2stim_asymm_v5,2020.2.10,Win32,60,61025ae37ef11b136ea224fe,,,,,,,,,3489,49,100.5,1,0,0,response1disk,,7,0,9.5,1,0,0,rectangle,0,9.5,1,0,0,0,9.5,1,0,0,0,127,127,143,1,,,,,,,,
,,,,,,,,,,,,,FF,,,,,,,,0.966,,,,,,,,,,,,,,,,,,,,,,5e8ec3e28ee4fe17502d74eb,6103764a31b0121be5202ca6,2021-07-29_22h57.13.687,Simcolourproject_2stim_asymm_v5,2020.2.10,Win32,60,61025ae37ef11b136ea224fe,,,,,,,,,2326,41,130.5,1,0,0,response1disk,,7,-7,8.5,1,0,0,rectangle,-7,8.5,1,0,0,-7,8.5,1,0,0,0,128,128,158,1,,,,,,,,
,,,,,,,,,,,,,FF,,,,,,,,1.067,,,,,,,,,,,,,,,,,,,,,,5e8ec3e28ee4fe17502d74eb,6103764a31b0121be5202ca6,2021-07-29_22h57.13.687,Simcolourproject_2stim_asymm_v5,2020.2.10,Win32,60,61025ae37ef11b136ea224fe,,,,,,,,,3652,47,113.5,1,0,0,response1disk,,7,2,0.5,1,0,0,rectangle,2,0.5,1,0,0,2,0.5,1,0,0,0,129,129,82,1,,,,,,,,
,,,,,,,,,,,,,FF,,,,,,,,2.901,,,,,,,,,,,,,,,,,,,,,,5e8ec3e28ee4fe17502d74eb,6103764a31b0121be5202ca6,2021-07-29_22h57.13.687,Simcolourproject_2stim_asymm_v5,2020.2.10,Win32,60,61025ae37ef11b136ea224fe,,,,,,,,,952,119,57.5,1,0,0,response1disk,,6,-1,-3.5,1,0,0,rectangle,-1,-3.5,1,0,0,-1,-3.5,1,0,0,0,130,130,112,1,,,,,,,,
,,,,,,,,,,,,,FF,,,,,,,,1.033,,,,,,,,,,,,,,,,,,,,,,5e8ec3e28ee4fe17502d74eb,6103764a31b0121be5202ca6,2021-07-29_22h57.13.687,Simcolourproject_2stim_asymm_v5,2020.2.10,Win32,60,61025ae37ef11b136ea224fe,,,,,,,,,1100,41,99.5,1,0,0,response1disk,,7,1,1.5,1,0,0,rectangle,1,1.5,1,0,0,1,1.5,1,0,0,0,131,131,70,1,,,,,,,,
,,,,,,,,,,,,,FF,,,,,,,,1.133,,,,,,,,,,,,,,,,,,,,,,5e8ec3e28ee4fe17502d74eb,6103764a31b0121be5202ca6,2021-07-29_22h57.13.687,Simcolourproject_2stim_asymm_v5,2020.2.10,Win32,60,61025ae37ef11b136ea224fe,,,,,,,,,2708,57,107.5,1,0,0,response1disk,,7,-10,7.5,1,0,0,rectangle,-10,7.5,1,0,0,-10,7.5,1,0,0,0,132,132,128,1,,,,,,,,
,,,,,,,,,,,,,FF,,,,,,,,1.717,,,,,,,,,,,,,,,,,,,,,,5e8ec3e28ee4fe17502d74eb,6103764a31b0121be5202ca6,2021-07-29_22h57.13.687,Simcolourproject_2stim_asymm_v5,2020.2.10,Win32,60,61025ae37ef11b136ea224fe,,,,,,,,,3243,-57,93.5,1,0,0,response7disk,,0,5,-5.5,1,0,0,rectangle,5,-5.5,1,0,0,5,-5.5,1,0,0,0,133,133,126,1,,,,,,,,
,,,,,,,,,,,,,FF,,,,,,,,1.883,,,,,,,,,,,,,,,,,,,,,,5e8ec3e28ee4fe17502d74eb,6103764a31b0121be5202ca6,2021-07-29_22h57.13.687,Simcolourproject_2stim_asymm_v5,2020.2.10,Win32,60,61025ae37ef11b136ea224fe,,,,,,,,,3880,56,-98.5,1,0,0,response3disk,,4,3,0.5,1,0,0,rectangle,3,0.5,1,0,0,3,0.5,1,0,0,0,134,134,153,1,,,,,,,,
,,,,,,,,,,,,,FF,,,,,,,,2.433,,,,,,,,,,,,,,,,,,,,,,5e8ec3e28ee4fe17502d74eb,6103764a31b0121be5202ca6,2021-07-29_22h57.13.687,Simcolourproject_2stim_asymm_v5,2020.2.10,Win32,60,61025ae37ef11b136ea224fe,,,,,,,,,4001,119,53.5,1,0,0,response1disk,,6,1,5.5,1,0,0,rectangle,1,5.5,1,0,0,1,5.5,1,0,0,0,135,135,90,1,,,,,,,,
,,,,,,,,,,,,,FF,,,,,,,,2.317,,,,,,,,,,,,,,,,,,,,,,5e8ec3e28ee4fe17502d74eb,6103764a31b0121be5202ca6,2021-07-29_22h57.13.687,Simcolourproject_2stim_asymm_v5,2020.2.10,Win32,60,61025ae37ef11b136ea224fe,,,,,,,,,3171,60,113.5,1,0,0,response1disk,,7,-1,-2.5,1,0,0,rectangle,-1,-2.5,1,0,0,-1,-2.5,1,0,0,0,136,136,127,1,,,,,,,,
,,,,,,,,,,,,,FF,,,,,,,,2.516,,,,,,,,,,,,,,,,,,,,,,5e8ec3e28ee4fe17502d74eb,6103764a31b0121be5202ca6,2021-07-29_22h57.13.687,Simcolourproject_2stim_asymm_v5,2020.2.10,Win32,60,61025ae37ef11b136ea224fe,,,,,,,,,4,74,116.5,1,0,0,response1disk,,7,-12,1.5,1,0,0,rectangle,-12,1.5,1,0,0,-12,1.5,1,0,0,0,137,137,32,1,,,,,,,,
,,,,,,,,,,,,,FF,,,,,,,,2.551,,,,,,,,,,,,,,,,,,,,,,5e8ec3e28ee4fe17502d74eb,6103764a31b0121be5202ca6,2021-07-29_22h57.13.687,Simcolourproject_2stim_asymm_v5,2020.2.10,Win32,60,61025ae37ef11b136ea224fe,,,,,,,,,1226,106,68.5,1,0,0,response1disk,,6,5,5.5,1,0,0,rectangle,5,5.5,1,0,0,5,5.5,1,0,0,0,138,138,4,1,,,,,,,,
,,,,,,,,,,,,,FF,,,,,,,,1.116,,,,,,,,,,,,,,,,,,,,,,5e8ec3e28ee4fe17502d74eb,6103764a31b0121be5202ca6,2021-07-29_22h57.13.687,Simcolourproject_2stim_asymm_v5,2020.2.10,Win32,60,61025ae37ef11b136ea224fe,,,,,,,,,3444,43,131.5,1,0,0,response1disk,,7,-3,-0.5,1,0,0,rectangle,-3,-0.5,1,0,0,-3,-0.5,1,0,0,0,139,139,122,1,,,,,,,,
,,,,,,,,,,,,,FF,,,,,,,,2.534,,,,,,,,,,,,,,,,,,,,,,5e8ec3e28ee4fe17502d74eb,6103764a31b0121be5202ca6,2021-07-29_22h57.13.687,Simcolourproject_2stim_asymm_v5,2020.2.10,Win32,60,61025ae37ef11b136ea224fe,,,,,,,,,438,42,-114.5,1,0,0,response3disk,,4,2,3.5,1,0,0,rectangle,2,3.5,1,0,0,2,3.5,1,0,0,0,140,140,24,1,,,,,,,,
,,,,,,,,,,,,,FF,,,,,,,,2.317,,,,,,,,,,,,,,,,,,,,,,5e8ec3e28ee4fe17502d74eb,6103764a31b0121be5202ca6,2021-07-29_22h57.13.687,Simcolourproject_2stim_asymm_v5,2020.2.10,Win32,60,61025ae37ef11b136ea224fe,,,,,,,,,1446,-43,-110.5,1,0,0,response5disk,,3,5,2.5,1,0,0,rectangle,5,2.5,1,0,0,5,2.5,1,0,0,0,141,141,21,1,,,,,,,,
,,,,,,,,,,,,,FF,,,,,,,,1.068,,,,,,,,,,,,,,,,,,,,,,5e8ec3e28ee4fe17502d74eb,6103764a31b0121be5202ca6,2021-07-29_22h57.13.687,Simcolourproject_2stim_asymm_v5,2020.2.10,Win32,60,61025ae37ef11b136ea224fe,,,,,,,,,15,41,88.5,1,0,0,response1disk,,7,-8,-1.5,1,0,0,rectangle,-8,-1.5,1,0,0,-8,-1.5,1,0,0,0,142,142,25,1,,,,,,,,
,,,,,,,,,,,,,FF,,,,,,,,2.45,,,,,,,,,,,,,,,,,,,,,,5e8ec3e28ee4fe17502d74eb,6103764a31b0121be5202ca6,2021-07-29_22h57.13.687,Simcolourproject_2stim_asymm_v5,2020.2.10,Win32,60,61025ae37ef11b136ea224fe,,,,,,,,,3520,50,-105.5,1,0,0,response3disk,,4,10,5.5,1,0,0,rectangle,10,5.5,1,0,0,10,5.5,1,0,0,0,143,143,17,1,,,,,,,,
,,,,,,,,,,,,,FF,,,,,,,,0.934,,,,,,,,,,,,,,,,,,,,,,5e8ec3e28ee4fe17502d74eb,6103764a31b0121be5202ca6,2021-07-29_22h57.13.687,Simcolourproject_2stim_asymm_v5,2020.2.10,Win32,60,61025ae37ef11b136ea224fe,,,,,,,,,1802,60,109.5,1,0,0,response1disk,,7,9,0.5,1,0,0,rectangle,9,0.5,1,0,0,9,0.5,1,0,0,0,144,144,117,1,,,,,,,,
,,,,,,,,,,,,,FF,,,,,,,,1.001,,,,,,,,,,,,,,,,,,,,,,5e8ec3e28ee4fe17502d74eb,6103764a31b0121be5202ca6,2021-07-29_22h57.13.687,Simcolourproject_2stim_asymm_v5,2020.2.10,Win32,60,61025ae37ef11b136ea224fe,,,,,,,,,2853,53,103.5,1,0,0,response1disk,,7,1,7.5,1,0,0,rectangle,1,7.5,1,0,0,1,7.5,1,0,0,0,145,145,119,1,,,,,,,,
,,,,,,,,,,,,,FF,,,,,,,,1.034,,,,,,,,,,,,,,,,,,,,,,5e8ec3e28ee4fe17502d74eb,6103764a31b0121be5202ca6,2021-07-29_22h57.13.687,Simcolourproject_2stim_asymm_v5,2020.2.10,Win32,60,61025ae37ef11b136ea224fe,,,,,,,,,2616,42,109.5,1,0,0,response1disk,,7,-1,-2.5,1,0,0,rectangle,-1,-2.5,1,0,0,-1,-2.5,1,0,0,0,146,146,130,1,,,,,,,,
,,,,,,,,,,,,,FF,,,,,,,,4.799,,,,,,,,,,,,,,,,,,,,,,5e8ec3e28ee4fe17502d74eb,6103764a31b0121be5202ca6,2021-07-29_22h57.13.687,Simcolourproject_2stim_asymm_v5,2020.2.10,Win32,60,61025ae37ef11b136ea224fe,,,,,,,,,3809,47,76.5,1,0,0,response1disk,,7,8,-1.5,1,0,0,rectangle,38,-96.5,1,0,0,10,1.5,1,0,0,0,147,147,154,1,,response3disk_3,TRUE,4,4,"[192,265,92,192,178,273,165,148,126,179,115,87,150,214,15,32,216,22,252,271]",1.783,rectangle
,,,,,,,,,,,,,FF,,,,,,,,1.099,,,,,,,,,,,,,,,,,,,,,,5e8ec3e28ee4fe17502d74eb,6103764a31b0121be5202ca6,2021-07-29_22h57.13.687,Simcolourproject_2stim_asymm_v5,2020.2.10,Win32,60,61025ae37ef11b136ea224fe,,,,,,,,,2938,69,111.5,1,0,0,response1disk,,7,6,-0.5,1,0,0,rectangle,6,-0.5,1,0,0,6,-0.5,1,0,0,0,148,148,49,1,,,,,,,,
,,,,,,,,,,,,,FF,,,,,,,,1.4,,,,,,,,,,,,,,,,,,,,,,5e8ec3e28ee4fe17502d74eb,6103764a31b0121be5202ca6,2021-07-29_22h57.13.687,Simcolourproject_2stim_asymm_v5,2020.2.10,Win32,60,61025ae37ef11b136ea224fe,,,,,,,,,3350,-41,-117.5,1,0,0,response5disk,,3,-5,-3.5,1,0,0,rectangle,-54,-113.5,1,0,0,-3,3.5,1,0,0,0,149,149,41,1,,response5disk_3,TRUE,3,3,"[192,265,92,192,178,273,165,148,126,179,115,87,150,214,15,32,216,22,252,271]",2.3,rectangle
,,,,,,,,,,,,,FF,,,,,,,,0.784,,,,,,,,,,,,,,,,,,,,,,5e8ec3e28ee4fe17502d74eb,6103764a31b0121be5202ca6,2021-07-29_22h57.13.687,Simcolourproject_2stim_asymm_v5,2020.2.10,Win32,60,61025ae37ef11b136ea224fe,,,,,,,,,656,44,88.5,1,0,0,response1disk,,7,-6,-7.5,1,0,0,rectangle,-6,-7.5,1,0,0,-6,-7.5,1,0,0,0,150,150,47,1,,,,,,,,
,,,,,,,,,,,,,FF,,,,,,,,0.8,,,,,,,,,,,,,,,,,,,,,,5e8ec3e28ee4fe17502d74eb,6103764a31b0121be5202ca6,2021-07-29_22h57.13.687,Simcolourproject_2stim_asymm_v5,2020.2.10,Win32,60,61025ae37ef11b136ea224fe,,,,,,,,,623,49,104.5,1,0,0,response1disk,,7,4,1.5,1,0,0,rectangle,4,1.5,1,0,0,4,1.5,1,0,0,0,151,151,81,1,,,,,,,,
,,,,,,,,,,,,,FF,,,,,,,,2.684,,,,,,,,,,,,,,,,,,,,,,5e8ec3e28ee4fe17502d74eb,6103764a31b0121be5202ca6,2021-07-29_22h57.13.687,Simcolourproject_2stim_asymm_v5,2020.2.10,Win32,60,61025ae37ef11b136ea224fe,,,,,,,,,2104,60,113.5,1,0,0,response1disk,,7,14,-1.5,1,0,0,rectangle,14,-1.5,1,0,0,14,-1.5,1,0,0,0,152,152,124,1,,,,,,,,
,,,,,,,,,,,,,FF,,,,,,,,1.5,,,,,,,,,,,,,,,,,,,,,,5e8ec3e28ee4fe17502d74eb,6103764a31b0121be5202ca6,2021-07-29_22h57.13.687,Simcolourproject_2stim_asymm_v5,2020.2.10,Win32,60,61025ae37ef11b136ea224fe,,,,,,,,,4208,39,-86.5,1,0,0,response3disk,,4,8,0.5,1,0,0,rectangle,8,0.5,1,0,0,8,0.5,1,0,0,0,153,153,73,1,,,,,,,,
,,,,,,,,,,,,,FF,,,,,,,,0.949,,,,,,,,,,,,,,,,,,,,,,5e8ec3e28ee4fe17502d74eb,6103764a31b0121be5202ca6,2021-07-29_22h57.13.687,Simcolourproject_2stim_asymm_v5,2020.2.10,Win32,60,61025ae37ef11b136ea224fe,,,,,,,,,1258,53,115.5,1,0,0,response1disk,,7,11,-13.5,1,0,0,rectangle,11,-13.5,1,0,0,11,-13.5,1,0,0,0,154,154,97,1,,,,,,,,
,,,,,,,,,,,,,FF,,,,,,,,0.75,,,,,,,,,,,,,,,,,,,,,,5e8ec3e28ee4fe17502d74eb,6103764a31b0121be5202ca6,2021-07-29_22h57.13.687,Simcolourproject_2stim_asymm_v5,2020.2.10,Win32,60,61025ae37ef11b136ea224fe,,,,,,,,,4332,39,102.5,1,0,0,response1disk,,7,7,-2.5,1,0,0,rectangle,7,-2.5,1,0,0,7,-2.5,1,0,0,0,155,155,11,1,,,,,,,,
,,,,,,,,,,,,,FF,,,,,,,,0.966,,,,,,,,,,,,,,,,,,,,,,5e8ec3e28ee4fe17502d74eb,6103764a31b0121be5202ca6,2021-07-29_22h57.13.687,Simcolourproject_2stim_asymm_v5,2020.2.10,Win32,60,61025ae37ef11b136ea224fe,,,,,,,,,41,52,109.5,1,0,0,response1disk,,7,20,10.5,1,0,0,rectangle,20,10.5,1,0,0,20,10.5,1,0,0,0,156,156,152,1,,,,,,,,
,,,,,,,,,,,,,FF,,,,,,,,0.7,,,,,,,,,,,,,,,,,,,,,,5e8ec3e28ee4fe17502d74eb,6103764a31b0121be5202ca6,2021-07-29_22h57.13.687,Simcolourproject_2stim_asymm_v5,2020.2.10,Win32,60,61025ae37ef11b136ea224fe,,,,,,,,,976,66,118.5,1,0,0,response1disk,,7,18,-1.5,1,0,0,rectangle,18,-1.5,1,0,0,18,-1.5,1,0,0,0,157,157,155,1,,,,,,,,
,,,,,,,,,,,,,FF,,,,,,,,1.066,,,,,,,,,,,,,,,,,,,,,,5e8ec3e28ee4fe17502d74eb,6103764a31b0121be5202ca6,2021-07-29_22h57.13.687,Simcolourproject_2stim_asymm_v5,2020.2.10,Win32,60,61025ae37ef11b136ea224fe,,,,,,,,,2757,47,97.5,1,0,0,response1disk,,7,6,-0.5,1,0,0,rectangle,6,-0.5,1,0,0,6,-0.5,1,0,0,0,158,158,144,1,,,,,,,,
,,,,,,,,,,,,,FF,,,,,,,,1.466,,,,,,,,,,,,,,,,,,,,,,5e8ec3e28ee4fe17502d74eb,6103764a31b0121be5202ca6,2021-07-29_22h57.13.687,Simcolourproject_2stim_asymm_v5,2020.2.10,Win32,60,61025ae37ef11b136ea224fe,,,,,,,,,1394,59,112.5,1,0,0,response1disk,,7,6,4.5,1,0,0,rectangle,6,4.5,1,0,0,6,4.5,1,0,0,0,159,159,78,1,,,,,,,,
,,,,,,,,,,,,,FF,,,,,,,,0.684,,,,,,,,,,,,,,,,,,,,,,5e8ec3e28ee4fe17502d74eb,6103764a31b0121be5202ca6,2021-07-29_22h57.13.687,Simcolourproject_2stim_asymm_v5,2020.2.10,Win32,60,61025ae37ef11b136ea224fe,,,,,,,,,1014,45,98.5,1,0,0,response1disk,,7,13,5.5,1,0,0,rectangle,13,5.5,1,0,0,13,5.5,1,0,0,1,0,160,142,1,,,,,,,,
,,,,,,,,,,,,,FF,,,,,,,,0.75,,,,,,,,,,,,,,,,,,,,,,5e8ec3e28ee4fe17502d74eb,6103764a31b0121be5202ca6,2021-07-29_22h57.13.687,Simcolourproject_2stim_asymm_v5,2020.2.10,Win32,60,61025ae37ef11b136ea224fe,,,,,,,,,751,38,84.5,1,0,0,response1disk,,7,6,2.5,1,0,0,rectangle,6,2.5,1,0,0,6,2.5,1,0,0,1,1,161,4,1,,,,,,,,
,,,,,,,,,,,,,FF,,,,,,,,0.85,,,,,,,,,,,,,,,,,,,,,,5e8ec3e28ee4fe17502d74eb,6103764a31b0121be5202ca6,2021-07-29_22h57.13.687,Simcolourproject_2stim_asymm_v5,2020.2.10,Win32,60,61025ae37ef11b136ea224fe,,,,,,,,,383,42,86.5,1,0,0,response1disk,,7,4,0.5,1,0,0,rectangle,4,0.5,1,0,0,4,0.5,1,0,0,1,2,162,99,1,,,,,,,,
,,,,,,,,,,,,,FF,,,,,,,,2.183,,,,,,,,,,,,,,,,,,,,,,5e8ec3e28ee4fe17502d74eb,6103764a31b0121be5202ca6,2021-07-29_22h57.13.687,Simcolourproject_2stim_asymm_v5,2020.2.10,Win32,60,61025ae37ef11b136ea224fe,,,,,,,,,1816,-103,38.5,1,0,0,response7disk,,1,8,6.5,1,0,0,rectangle,8,6.5,1,0,0,8,6.5,1,0,0,1,3,163,55,1,,,,,,,,
,,,,,,,,,,,,,FF,,,,,,,,0.95,,,,,,,,,,,,,,,,,,,,,,5e8ec3e28ee4fe17502d74eb,6103764a31b0121be5202ca6,2021-07-29_22h57.13.687,Simcolourproject_2stim_asymm_v5,2020.2.10,Win32,60,61025ae37ef11b136ea224fe,,,,,,,,,2467,55,104.5,1,0,0,response1disk,,7,9,-0.5,1,0,0,rectangle,-122,-51.5,1,0,0,0,0.5,1,0,0,1,4,164,97,1,,response5disk_3,TRUE,2,2,"[192,265,92,192,178,273,165,148,126,179,115,87,150,214,15,32,216,22,252,271]",2.45,rectangle
,,,,,,,,,,,,,FF,,,,,,,,0.933,,,,,,,,,,,,,,,,,,,,,,5e8ec3e28ee4fe17502d74eb,6103764a31b0121be5202ca6,2021-07-29_22h57.13.687,Simcolourproject_2stim_asymm_v5,2020.2.10,Win32,60,61025ae37ef11b136ea224fe,,,,,,,,,536,50,113.5,1,0,0,response1disk,,7,6,9.5,1,0,0,rectangle,6,9.5,1,0,0,6,9.5,1,0,0,1,5,165,85,1,,,,,,,,
,,,,,,,,,,,,,FF,,,,,,,,5.999,,,,,,,,,,,,,,,,,,,,,,5e8ec3e28ee4fe17502d74eb,6103764a31b0121be5202ca6,2021-07-29_22h57.13.687,Simcolourproject_2stim_asymm_v5,2020.2.10,Win32,60,61025ae37ef11b136ea224fe,,,,,,,,,3461,39,93.5,1,0,0,response1disk,,7,7,2.5,1,0,0,rectangle,7,2.5,1,0,0,7,2.5,1,0,0,1,6,166,54,1,,,,,,,,
,,,,,,,,,,,,,FF,,,,,,,,0.883,,,,,,,,,,,,,,,,,,,,,,5e8ec3e28ee4fe17502d74eb,6103764a31b0121be5202ca6,2021-07-29_22h57.13.687,Simcolourproject_2stim_asymm_v5,2020.2.10,Win32,60,61025ae37ef11b136ea224fe,,,,,,,,,1665,48,116.5,1,0,0,response1disk,,7,9,7.5,1,0,0,rectangle,9,7.5,1,0,0,9,7.5,1,0,0,1,7,167,0,1,,,,,,,,
,,,,,,,,,,,,,FF,,,,,,,,0.95,,,,,,,,,,,,,,,,,,,,,,5e8ec3e28ee4fe17502d74eb,6103764a31b0121be5202ca6,2021-07-29_22h57.13.687,Simcolourproject_2stim_asymm_v5,2020.2.10,Win32,60,61025ae37ef11b136ea224fe,,,,,,,,,2756,54,111.5,1,0,0,response1disk,,7,-9,0.5,1,0,0,rectangle,-9,0.5,1,0,0,-9,0.5,1,0,0,1,8,168,77,1,,,,,,,,
,,,,,,,,,,,,,FF,,,,,,,,1.1,,,,,,,,,,,,,,,,,,,,,,5e8ec3e28ee4fe17502d74eb,6103764a31b0121be5202ca6,2021-07-29_22h57.13.687,Simcolourproject_2stim_asymm_v5,2020.2.10,Win32,60,61025ae37ef11b136ea224fe,,,,,,,,,2572,53,106.5,1,0,0,response1disk,,7,4,3.5,1,0,0,rectangle,4,3.5,1,0,0,4,3.5,1,0,0,1,9,169,155,1,,,,,,,,
,,,,,,,,,,,,,FF,,,,,,,,0.683,,,,,,,,,,,,,,,,,,,,,,5e8ec3e28ee4fe17502d74eb,6103764a31b0121be5202ca6,2021-07-29_22h57.13.687,Simcolourproject_2stim_asymm_v5,2020.2.10,Win32,60,61025ae37ef11b136ea224fe,,,,,,,,,3963,45,104.5,1,0,0,response1disk,,7,16,-5.5,1,0,0,rectangle,16,-5.5,1,0,0,16,-5.5,1,0,0,1,10,170,140,1,,,,,,,,
,,,,,,,,,,,,,FF,,,,,,,,0.75,,,,,,,,,,,,,,,,,,,,,,5e8ec3e28ee4fe17502d74eb,6103764a31b0121be5202ca6,2021-07-29_22h57.13.687,Simcolourproject_2stim_asymm_v5,2020.2.10,Win32,60,61025ae37ef11b136ea224fe,,,,,,,,,3267,62,100.5,1,0,0,response1disk,,7,17,-0.5,1,0,0,rectangle,17,-0.5,1,0,0,17,-0.5,1,0,0,1,11,171,138,1,,,,,,,,
,,,,,,,,,,,,,FF,,,,,,,,2.301,,,,,,,,,,,,,,,,,,,,,,5e8ec3e28ee4fe17502d74eb,6103764a31b0121be5202ca6,2021-07-29_22h57.13.687,Simcolourproject_2stim_asymm_v5,2020.2.10,Win32,60,61025ae37ef11b136ea224fe,,,,,,,,,1296,43,81.5,1,0,0,response1disk,,7,3,7.5,1,0,0,rectangle,3,7.5,1,0,0,3,7.5,1,0,0,1,12,172,51,1,,,,,,,,
,,,,,,,,,,,,,FF,,,,,,,,1.467,,,,,,,,,,,,,,,,,,,,,,5e8ec3e28ee4fe17502d74eb,6103764a31b0121be5202ca6,2021-07-29_22h57.13.687,Simcolourproject_2stim_asymm_v5,2020.2.10,Win32,60,61025ae37ef11b136ea224fe,,,,,,,,,2036,89,-50.5,1,0,0,response3disk,,5,7,0.5,1,0,0,rectangle,7,0.5,1,0,0,7,0.5,1,0,0,1,13,173,15,1,,,,,,,,
,,,,,,,,,,,,,FF,,,,,,,,0.949,,,,,,,,,,,,,,,,,,,,,,5e8ec3e28ee4fe17502d74eb,6103764a31b0121be5202ca6,2021-07-29_22h57.13.687,Simcolourproject_2stim_asymm_v5,2020.2.10,Win32,60,61025ae37ef11b136ea224fe,,,,,,,,,2127,68,96.5,1,0,0,response1disk,,7,17,-1.5,1,0,0,rectangle,17,-1.5,1,0,0,17,-1.5,1,0,0,1,14,174,31,1,,,,,,,,
,,,,,,,,,,,,,FF,,,,,,,,0.95,,,,,,,,,,,,,,,,,,,,,,5e8ec3e28ee4fe17502d74eb,6103764a31b0121be5202ca6,2021-07-29_22h57.13.687,Simcolourproject_2stim_asymm_v5,2020.2.10,Win32,60,61025ae37ef11b136ea224fe,,,,,,,,,2065,42,89.5,1,0,0,response1disk,,7,3,-2.5,1,0,0,rectangle,3,-2.5,1,0,0,3,-2.5,1,0,0,1,15,175,65,1,,,,,,,,
,,,,,,,,,,,,,FF,,,,,,,,0.833,,,,,,,,,,,,,,,,,,,,,,5e8ec3e28ee4fe17502d74eb,6103764a31b0121be5202ca6,2021-07-29_22h57.13.687,Simcolourproject_2stim_asymm_v5,2020.2.10,Win32,60,61025ae37ef11b136ea224fe,,,,,,,,,829,47,102.5,1,0,0,response1disk,,7,2,3.5,1,0,0,rectangle,2,3.5,1,0,0,2,3.5,1,0,0,1,16,176,6,1,,,,,,,,
,,,,,,,,,,,,,FF,,,,,,,,1.033,,,,,,,,,,,,,,,,,,,,,,5e8ec3e28ee4fe17502d74eb,6103764a31b0121be5202ca6,2021-07-29_22h57.13.687,Simcolourproject_2stim_asymm_v5,2020.2.10,Win32,60,61025ae37ef11b136ea224fe,,,,,,,,,1114,40,110.5,1,0,0,response1disk,,7,-4,-6.5,1,0,0,rectangle,-45,111.5,1,0,0,2,3.5,1,0,0,1,17,177,53,1,,response7disk_3,TRUE,0,0,"[192,265,92,192,178,273,165,148,126,179,115,87,150,214,15,32,216,22,252,271]",2.915,rectangle
,,,,,,,,,,,,,FF,,,,,,,,1.966,,,,,,,,,,,,,,,,,,,,,,5e8ec3e28ee4fe17502d74eb,6103764a31b0121be5202ca6,2021-07-29_22h57.13.687,Simcolourproject_2stim_asymm_v5,2020.2.10,Win32,60,61025ae37ef11b136ea224fe,,,,,,,,,3684,48,91.5,1,0,0,response1disk,,7,2,-0.5,1,0,0,rectangle,39,116.5,1,0,0,-2,1.5,1,0,0,1,18,178,143,1,,response1disk_3,TRUE,7,7,"[192,265,92,192,178,273,165,148,126,179,115,87,150,214,15,32,216,22,252,271]",3.016,rectangle
,,,,,,,,,,,,,FF,,,,,,,,1.15,,,,,,,,,,,,,,,,,,,,,,5e8ec3e28ee4fe17502d74eb,6103764a31b0121be5202ca6,2021-07-29_22h57.13.687,Simcolourproject_2stim_asymm_v5,2020.2.10,Win32,60,61025ae37ef11b136ea224fe,,,,,,,,,4301,52,101.5,1,0,0,response1disk,,7,-4,1.5,1,0,0,rectangle,-4,1.5,1,0,0,-4,1.5,1,0,0,1,19,179,151,1,,,,,,,,
,,,,,,,,,,,,,FF,,,,,,,,2.399,,,,,,,,,,,,,,,,,,,,,,5e8ec3e28ee4fe17502d74eb,6103764a31b0121be5202ca6,2021-07-29_22h57.13.687,Simcolourproject_2stim_asymm_v5,2020.2.10,Win32,60,61025ae37ef11b136ea224fe,,,,,,,,,914,55,102.5,1,0,0,response1disk,,7,5,-2.5,1,0,0,rectangle,5,-2.5,1,0,0,5,-2.5,1,0,0,1,20,180,81,1,,,,,,,,
,,,,,,,,,,,,,FF,,,,,,,,0.835,,,,,,,,,,,,,,,,,,,,,,5e8ec3e28ee4fe17502d74eb,6103764a31b0121be5202ca6,2021-07-29_22h57.13.687,Simcolourproject_2stim_asymm_v5,2020.2.10,Win32,60,61025ae37ef11b136ea224fe,,,,,,,,,4275,51,109.5,1,0,0,response1disk,,7,-6,2.5,1,0,0,rectangle,-6,2.5,1,0,0,-6,2.5,1,0,0,1,21,181,25,1,,,,,,,,
,,,,,,,,,,,,,FF,,,,,,,,0.9,,,,,,,,,,,,,,,,,,,,,,5e8ec3e28ee4fe17502d74eb,6103764a31b0121be5202ca6,2021-07-29_22h57.13.687,Simcolourproject_2stim_asymm_v5,2020.2.10,Win32,60,61025ae37ef11b136ea224fe,,,,,,,,,1002,34,112.5,1,0,0,response1disk,,7,5,-7.5,1,0,0,rectangle,5,-7.5,1,0,0,5,-7.5,1,0,0,1,22,182,35,1,,,,,,,,
,,,,,,,,,,,,,FF,,,,,,,,0.717,,,,,,,,,,,,,,,,,,,,,,5e8ec3e28ee4fe17502d74eb,6103764a31b0121be5202ca6,2021-07-29_22h57.13.687,Simcolourproject_2stim_asymm_v5,2020.2.10,Win32,60,61025ae37ef11b136ea224fe,,,,,,,,,449,44,105.5,1,0,0,response1disk,,7,9,-0.5,1,0,0,rectangle,9,-0.5,1,0,0,9,-0.5,1,0,0,1,23,183,126,1,,,,,,,,
,,,,,,,,,,,,,FF,,,,,,,,0.751,,,,,,,,,,,,,,,,,,,,,,5e8ec3e28ee4fe17502d74eb,6103764a31b0121be5202ca6,2021-07-29_22h57.13.687,Simcolourproject_2stim_asymm_v5,2020.2.10,Win32,60,61025ae37ef11b136ea224fe,,,,,,,,,1209,27,105.5,1,0,0,response1disk,,7,1,-0.5,1,0,0,rectangle,1,-0.5,1,0,0,1,-0.5,1,0,0,1,24,184,110,1,,,,,,,,
,,,,,,,,,,,,,FF,,,,,,,,0.75,,,,,,,,,,,,,,,,,,,,,,5e8ec3e28ee4fe17502d74eb,6103764a31b0121be5202ca6,2021-07-29_22h57.13.687,Simcolourproject_2stim_asymm_v5,2020.2.10,Win32,60,61025ae37ef11b136ea224fe,,,,,,,,,1742,38,109.5,1,0,0,response1disk,,7,14,5.5,1,0,0,rectangle,14,5.5,1,0,0,14,5.5,1,0,0,1,25,185,127,1,,,,,,,,
,,,,,,,,,,,,,FF,,,,,,,,0.683,,,,,,,,,,,,,,,,,,,,,,5e8ec3e28ee4fe17502d74eb,6103764a31b0121be5202ca6,2021-07-29_22h57.13.687,Simcolourproject_2stim_asymm_v5,2020.2.10,Win32,60,61025ae37ef11b136ea224fe,,,,,,,,,3466,50,108.5,1,0,0,response1disk,,7,6,1.5,1,0,0,rectangle,6,1.5,1,0,0,6,1.5,1,0,0,1,26,186,78,1,,,,,,,,
,,,,,,,,,,,,,FF,,,,,,,,3.066,,,,,,,,,,,,,,,,,,,,,,5e8ec3e28ee4fe17502d74eb,6103764a31b0121be5202ca6,2021-07-29_22h57.13.687,Simcolourproject_2stim_asymm_v5,2020.2.10,Win32,60,61025ae37ef11b136ea224fe,,,,,,,,,3115,114,43.5,1,0,0,response1disk,,6,9,6.5,1,0,0,rectangle,9,6.5,1,0,0,9,6.5,1,0,0,1,27,187,29,1,,,,,,,,
,,,,,,,,,,,,,FF,,,,,,,,0.918,,,,,,,,,,,,,,,,,,,,,,5e8ec3e28ee4fe17502d74eb,6103764a31b0121be5202ca6,2021-07-29_22h57.13.687,Simcolourproject_2stim_asymm_v5,2020.2.10,Win32,60,61025ae37ef11b136ea224fe,,,,,,,,,1427,74,105.5,1,0,0,response1disk,,7,11,5.5,1,0,0,rectangle,11,5.5,1,0,0,11,5.5,1,0,0,1,28,188,141,1,,,,,,,,
,,,,,,,,,,,,,FF,,,,,,,,1.217,,,,,,,,,,,,,,,,,,,,,,5e8ec3e28ee4fe17502d74eb,6103764a31b0121be5202ca6,2021-07-29_22h57.13.687,Simcolourproject_2stim_asymm_v5,2020.2.10,Win32,60,61025ae37ef11b136ea224fe,,,,,,,,,2905,54,95.5,1,0,0,response1disk,,7,11,-0.5,1,0,0,rectangle,11,-0.5,1,0,0,11,-0.5,1,0,0,1,29,189,2,1,,,,,,,,
,,,,,,,,,,,,,FF,,,,,,,,0.817,,,,,,,,,,,,,,,,,,,,,,5e8ec3e28ee4fe17502d74eb,6103764a31b0121be5202ca6,2021-07-29_22h57.13.687,Simcolourproject_2stim_asymm_v5,2020.2.10,Win32,60,61025ae37ef11b136ea224fe,,,,,,,,,411,58,88.5,1,0,0,response1disk,,7,12,0.5,1,0,0,rectangle,12,0.5,1,0,0,12,0.5,1,0,0,1,30,190,39,1,,,,,,,,
,,,,,,,,,,,,,FF,,,,,,,,0.765,,,,,,,,,,,,,,,,,,,,,,5e8ec3e28ee4fe17502d74eb,6103764a31b0121be5202ca6,2021-07-29_22h57.13.687,Simcolourproject_2stim_asymm_v5,2020.2.10,Win32,60,61025ae37ef11b136ea224fe,,,,,,,,,596,41,98.5,1,0,0,response1disk,,7,19,4.5,1,0,0,rectangle,-93,48.5,1,0,0,10,5.5,1,0,0,1,31,191,24,1,,response7disk_3,TRUE,1,1,"[192,265,92,192,178,273,165,148,126,179,115,87,150,214,15,32,216,22,252,271]",1.866,rectangle
,,,,,,,,,,,,,FF,,,,,,,,3.317,,,,,,,,,,,,,,,,,,,,,,5e8ec3e28ee4fe17502d74eb,6103764a31b0121be5202ca6,2021-07-29_22h57.13.687,Simcolourproject_2stim_asymm_v5,2020.2.10,Win32,60,61025ae37ef11b136ea224fe,,,,,,,,,82,101,-42.5,1,0,0,response3disk,,5,9,0.5,1,0,0,rectangle,9,0.5,1,0,0,9,0.5,1,0,0,1,32,192,60,1,,,,,,,,
,,,,,,,,,,,,,FF,,,,,,,,1.434,,,,,,,,,,,,,,,,,,,,,,5e8ec3e28ee4fe17502d74eb,6103764a31b0121be5202ca6,2021-07-29_22h57.13.687,Simcolourproject_2stim_asymm_v5,2020.2.10,Win32,60,61025ae37ef11b136ea224fe,,,,,,,,,1824,-39,-118.5,1,0,0,response5disk,,3,6,0.5,1,0,0,rectangle,6,0.5,1,0,0,6,0.5,1,0,0,1,33,193,28,1,,,,,,,,
,,,,,,,,,,,,,FF,,,,,,,,0.883,,,,,,,,,,,,,,,,,,,,,,5e8ec3e28ee4fe17502d74eb,6103764a31b0121be5202ca6,2021-07-29_22h57.13.687,Simcolourproject_2stim_asymm_v5,2020.2.10,Win32,60,61025ae37ef11b136ea224fe,,,,,,,,,1841,66,99.5,1,0,0,response1disk,,7,17,0.5,1,0,0,rectangle,17,0.5,1,0,0,17,0.5,1,0,0,1,34,194,7,1,,,,,,,,
,,,,,,,,,,,,,FF,,,,,,,,3.583,,,,,,,,,,,,,,,,,,,,,,5e8ec3e28ee4fe17502d74eb,6103764a31b0121be5202ca6,2021-07-29_22h57.13.687,Simcolourproject_2stim_asymm_v5,2020.2.10,Win32,60,61025ae37ef11b136ea224fe,,,,,,,,,3634,82,-106.5,1,0,0,response3disk,,4,-1,-2.5,1,0,0,rectangle,-1,-2.5,1,0,0,-1,-2.5,1,0,0,1,35,195,23,1,,,,,,,,
,,,,,,,,,,,,,FF,,,,,,,,1.767,,,,,,,,,,,,,,,,,,,,,,5e8ec3e28ee4fe17502d74eb,6103764a31b0121be5202ca6,2021-07-29_22h57.13.687,Simcolourproject_2stim_asymm_v5,2020.2.10,Win32,60,61025ae37ef11b136ea224fe,,,,,,,,,2996,-37,-91.5,1,0,0,response5disk,,3,-15,7.5,1,0,0,rectangle,-15,7.5,1,0,0,-15,7.5,1,0,0,1,36,196,135,1,,,,,,,,
,,,,,,,,,,,,,FF,,,,,,,,0.934,,,,,,,,,,,,,,,,,,,,,,5e8ec3e28ee4fe17502d74eb,6103764a31b0121be5202ca6,2021-07-29_22h57.13.687,Simcolourproject_2stim_asymm_v5,2020.2.10,Win32,60,61025ae37ef11b136ea224fe,,,,,,,,,901,46,112.5,1,0,0,response1disk,,7,9,3.5,1,0,0,rectangle,9,3.5,1,0,0,9,3.5,1,0,0,1,37,197,144,1,,,,,,,,
,,,,,,,,,,,,,FF,,,,,,,,0.75,,,,,,,,,,,,,,,,,,,,,,5e8ec3e28ee4fe17502d74eb,6103764a31b0121be5202ca6,2021-07-29_22h57.13.687,Simcolourproject_2stim_asymm_v5,2020.2.10,Win32,60,61025ae37ef11b136ea224fe,,,,,,,,,2441,44,108.5,1,0,0,response1disk,,7,9,-3.5,1,0,0,rectangle,9,-3.5,1,0,0,9,-3.5,1,0,0,1,38,198,30,1,,,,,,,,
,,,,,,,,,,,,,FF,,,,,,,,0.768,,,,,,,,,,,,,,,,,,,,,,5e8ec3e28ee4fe17502d74eb,6103764a31b0121be5202ca6,2021-07-29_22h57.13.687,Simcolourproject_2stim_asymm_v5,2020.2.10,Win32,60,61025ae37ef11b136ea224fe,,,,,,,,,2364,37,93.5,1,0,0,response1disk,,7,11,6.5,1,0,0,rectangle,11,6.5,1,0,0,11,6.5,1,0,0,1,39,199,114,1,,,,,,,,
,,,,,,,,,,,,,FF,,,,,,,,1.017,,,,,,,,,,,,,,,,,,,,,,5e8ec3e28ee4fe17502d74eb,6103764a31b0121be5202ca6,2021-07-29_22h57.13.687,Simcolourproject_2stim_asymm_v5,2020.2.10,Win32,60,61025ae37ef11b136ea224fe,,,,,,,,,4006,37,89.5,1,0,0,response1disk,,7,3,-7.5,1,0,0,rectangle,3,-7.5,1,0,0,3,-7.5,1,0,0,1,40,200,122,1,,,,,,,,
,,,,,,,,,,,,,FF,,,,,,,,0.766,,,,,,,,,,,,,,,,,,,,,,5e8ec3e28ee4fe17502d74eb,6103764a31b0121be5202ca6,2021-07-29_22h57.13.687,Simcolourproject_2stim_asymm_v5,2020.2.10,Win32,60,61025ae37ef11b136ea224fe,,,,,,,,,1431,39,98.5,1,0,0,response1disk,,7,6,0.5,1,0,0,rectangle,6,0.5,1,0,0,6,0.5,1,0,0,1,41,201,41,1,,,,,,,,
,,,,,,,,,,,,,FF,,,,,,,,0.65,,,,,,,,,,,,,,,,,,,,,,5e8ec3e28ee4fe17502d74eb,6103764a31b0121be5202ca6,2021-07-29_22h57.13.687,Simcolourproject_2stim_asymm_v5,2020.2.10,Win32,60,61025ae37ef11b136ea224fe,,,,,,,,,600,45,95.5,1,0,0,response1disk,,7,18,10.5,1,0,0,rectangle,18,10.5,1,0,0,18,10.5,1,0,0,1,42,202,19,1,,,,,,,,
,,,,,,,,,,,,,FF,,,,,,,,0.817,,,,,,,,,,,,,,,,,,,,,,5e8ec3e28ee4fe17502d74eb,6103764a31b0121be5202ca6,2021-07-29_22h57.13.687,Simcolourproject_2stim_asymm_v5,2020.2.10,Win32,60,61025ae37ef11b136ea224fe,,,,,,,,,416,49,86.5,1,0,0,response1disk,,7,22,0.5,1,0,0,rectangle,22,0.5,1,0,0,22,0.5,1,0,0,1,43,203,16,1,,,,,,,,
,,,,,,,,,,,,,FF,,,,,,,,2.1,,,,,,,,,,,,,,,,,,,,,,5e8ec3e28ee4fe17502d74eb,6103764a31b0121be5202ca6,2021-07-29_22h57.13.687,Simcolourproject_2stim_asymm_v5,2020.2.10,Win32,60,61025ae37ef11b136ea224fe,,,,,,,,,219,48,110.5,1,0,0,response1disk,,7,10,-3.5,1,0,0,rectangle,10,-3.5,1,0,0,10,-3.5,1,0,0,1,44,204,49,1,,,,,,,,
,,,,,,,,,,,,,FF,,,,,,,,0.884,,,,,,,,,,,,,,,,,,,,,,5e8ec3e28ee4fe17502d74eb,6103764a31b0121be5202ca6,2021-07-29_22h57.13.687,Simcolourproject_2stim_asymm_v5,2020.2.10,Win32,60,61025ae37ef11b136ea224fe,,,,,,,,,474,48,108.5,1,0,0,response1disk,,7,-5,-1.5,1,0,0,rectangle,-5,-1.5,1,0,0,-5,-1.5,1,0,0,1,45,205,156,1,,,,,,,,
,,,,,,,,,,,,,FF,,,,,,,,0.95,,,,,,,,,,,,,,,,,,,,,,5e8ec3e28ee4fe17502d74eb,6103764a31b0121be5202ca6,2021-07-29_22h57.13.687,Simcolourproject_2stim_asymm_v5,2020.2.10,Win32,60,61025ae37ef11b136ea224fe,,,,,,,,,3724,32,118.5,1,0,0,response1disk,,7,7,2.5,1,0,0,rectangle,7,2.5,1,0,0,7,2.5,1,0,0,1,46,206,50,1,,,,,,,,
,,,,,,,,,,,,,FF,,,,,,,,0.749,,,,,,,,,,,,,,,,,,,,,,5e8ec3e28ee4fe17502d74eb,6103764a31b0121be5202ca6,2021-07-29_22h57.13.687,Simcolourproject_2stim_asymm_v5,2020.2.10,Win32,60,61025ae37ef11b136ea224fe,,,,,,,,,3590,41,97.5,1,0,0,response1disk,,7,11,-0.5,1,0,0,rectangle,11,-0.5,1,0,0,11,-0.5,1,0,0,1,47,207,136,1,,,,,,,,
,,,,,,,,,,,,,FF,,,,,,,,0.867,,,,,,,,,,,,,,,,,,,,,,5e8ec3e28ee4fe17502d74eb,6103764a31b0121be5202ca6,2021-07-29_22h57.13.687,Simcolourproject_2stim_asymm_v5,2020.2.10,Win32,60,61025ae37ef11b136ea224fe,,,,,,,,,692,63,100.5,1,0,0,response1disk,,7,6,4.5,1,0,0,rectangle,6,4.5,1,0,0,6,4.5,1,0,0,1,48,208,101,1,,,,,,,,
,,,,,,,,,,,,,FF,,,,,,,,8.217,,,,,,,,,,,,,,,,,,,,,,5e8ec3e28ee4fe17502d74eb,6103764a31b0121be5202ca6,2021-07-29_22h57.13.687,Simcolourproject_2stim_asymm_v5,2020.2.10,Win32,60,61025ae37ef11b136ea224fe,,,,,,,,,578,59,104.5,1,0,0,response1disk,,7,5,-1.5,1,0,0,rectangle,5,-1.5,1,0,0,5,-1.5,1,0,0,1,49,209,109,1,,,,,,,,
,,,,,,,,,,,,,FF,,,,,,,,0.817,,,,,,,,,,,,,,,,,,,,,,5e8ec3e28ee4fe17502d74eb,6103764a31b0121be5202ca6,2021-07-29_22h57.13.687,Simcolourproject_2stim_asymm_v5,2020.2.10,Win32,60,61025ae37ef11b136ea224fe,,,,,,,,,158,37,102.5,1,0,0,response1disk,,7,-3,-2.5,1,0,0,rectangle,-3,-2.5,1,0,0,-3,-2.5,1,0,0,1,50,210,61,1,,,,,,,,
,,,,,,,,,,,,,FF,,,,,,,,1.15,,,,,,,,,,,,,,,,,,,,,,5e8ec3e28ee4fe17502d74eb,6103764a31b0121be5202ca6,2021-07-29_22h57.13.687,Simcolourproject_2stim_asymm_v5,2020.2.10,Win32,60,61025ae37ef11b136ea224fe,,,,,,,,,2587,36,97.5,1,0,0,response1disk,,7,-3,5.5,1,0,0,rectangle,-3,5.5,1,0,0,-3,5.5,1,0,0,1,51,211,158,1,,,,,,,,
,,,,,,,,,,,,,FF,,,,,,,,0.766,,,,,,,,,,,,,,,,,,,,,,5e8ec3e28ee4fe17502d74eb,6103764a31b0121be5202ca6,2021-07-29_22h57.13.687,Simcolourproject_2stim_asymm_v5,2020.2.10,Win32,60,61025ae37ef11b136ea224fe,,,,,,,,,937,48,103.5,1,0,0,response1disk,,7,9,0.5,1,0,0,rectangle,9,0.5,1,0,0,9,0.5,1,0,0,1,52,212,66,1,,,,,,,,
,,,,,,,,,,,,,FF,,,,,,,,0.717,,,,,,,,,,,,,,,,,,,,,,5e8ec3e28ee4fe17502d74eb,6103764a31b0121be5202ca6,2021-07-29_22h57.13.687,Simcolourproject_2stim_asymm_v5,2020.2.10,Win32,60,61025ae37ef11b136ea224fe,,,,,,,,,1573,44,113.5,1,0,0,response1disk,,7,5,3.5,1,0,0,rectangle,-49,-113.5,1,0,0,-6,2.5,1,0,0,1,53,213,11,1,,response5disk_3,TRUE,3,3,"[192,265,92,192,178,273,165,148,126,179,115,87,150,214,15,32,216,22,252,271]",2.116,rectangle
,,,,,,,,,,,,,FF,,,,,,,,4.85,,,,,,,,,,,,,,,,,,,,,,5e8ec3e28ee4fe17502d74eb,6103764a31b0121be5202ca6,2021-07-29_22h57.13.687,Simcolourproject_2stim_asymm_v5,2020.2.10,Win32,60,61025ae37ef11b136ea224fe,,,,,,,,,1255,33,124.5,1,0,0,response1disk,,7,9,4.5,1,0,0,rectangle,9,4.5,1,0,0,9,4.5,1,0,0,1,54,214,121,1,,,,,,,,
,,,,,,,,,,,,,FF,,,,,,,,0.883,,,,,,,,,,,,,,,,,,,,,,5e8ec3e28ee4fe17502d74eb,6103764a31b0121be5202ca6,2021-07-29_22h57.13.687,Simcolourproject_2stim_asymm_v5,2020.2.10,Win32,60,61025ae37ef11b136ea224fe,,,,,,,,,4116,55,104.5,1,0,0,response1disk,,7,9,0.5,1,0,0,rectangle,49,-101.5,1,0,0,8,-3.5,1,0,0,1,55,215,134,1,,response3disk_3,TRUE,4,4,"[192,265,92,192,178,273,165,148,126,179,115,87,150,214,15,32,216,22,252,271]",1.699,rectangle
,,,,,,,,,,,,,FF,,,,,,,,1.183,,,,,,,,,,,,,,,,,,,,,,5e8ec3e28ee4fe17502d74eb,6103764a31b0121be5202ca6,2021-07-29_22h57.13.687,Simcolourproject_2stim_asymm_v5,2020.2.10,Win32,60,61025ae37ef11b136ea224fe,,,,,,,,,2081,29,86.5,1,0,0,response1disk,,7,5,14.5,1,0,0,rectangle,5,14.5,1,0,0,5,14.5,1,0,0,1,56,216,52,1,,,,,,,,
,,,,,,,,,,,,,FF,,,,,,,,1.199,,,,,,,,,,,,,,,,,,,,,,5e8ec3e28ee4fe17502d74eb,6103764a31b0121be5202ca6,2021-07-29_22h57.13.687,Simcolourproject_2stim_asymm_v5,2020.2.10,Win32,60,61025ae37ef11b136ea224fe,,,,,,,,,1522,-93,-48.5,1,0,0,response5disk,,2,9,9.5,1,0,0,rectangle,9,9.5,1,0,0,9,9.5,1,0,0,1,57,217,132,1,,,,,,,,
,,,,,,,,,,,,,FF,,,,,,,,0.883,,,,,,,,,,,,,,,,,,,,,,5e8ec3e28ee4fe17502d74eb,6103764a31b0121be5202ca6,2021-07-29_22h57.13.687,Simcolourproject_2stim_asymm_v5,2020.2.10,Win32,60,61025ae37ef11b136ea224fe,,,,,,,,,232,55,98.5,1,0,0,response1disk,,7,-3,-15.5,1,0,0,rectangle,-3,-15.5,1,0,0,-3,-15.5,1,0,0,1,58,218,56,1,,,,,,,,
,,,,,,,,,,,,,FF,,,,,,,,0.65,,,,,,,,,,,,,,,,,,,,,,5e8ec3e28ee4fe17502d74eb,6103764a31b0121be5202ca6,2021-07-29_22h57.13.687,Simcolourproject_2stim_asymm_v5,2020.2.10,Win32,60,61025ae37ef11b136ea224fe,,,,,,,,,3134,54,105.5,1,0,0,response1disk,,7,7,1.5,1,0,0,rectangle,7,1.5,1,0,0,7,1.5,1,0,0,1,59,219,57,1,,,,,,,,
,,,,,,,,,,,,,FF,,,,,,,,0.766,,,,,,,,,,,,,,,,,,,,,,5e8ec3e28ee4fe17502d74eb,6103764a31b0121be5202ca6,2021-07-29_22h57.13.687,Simcolourproject_2stim_asymm_v5,2020.2.10,Win32,60,61025ae37ef11b136ea224fe,,,,,,,,,1950,40,104.5,1,0,0,response1disk,,7,-3,-2.5,1,0,0,rectangle,-3,-2.5,1,0,0,-3,-2.5,1,0,0,1,60,220,72,1,,,,,,,,
,,,,,,,,,,,,,FF,,,,,,,,1.683,,,,,,,,,,,,,,,,,,,,,,5e8ec3e28ee4fe17502d74eb,6103764a31b0121be5202ca6,2021-07-29_22h57.13.687,Simcolourproject_2stim_asymm_v5,2020.2.10,Win32,60,61025ae37ef11b136ea224fe,,,,,,,,,889,62,-108.5,1,0,0,response3disk,,4,7,10.5,1,0,0,rectangle,7,10.5,1,0,0,7,10.5,1,0,0,1,61,221,63,1,,,,,,,,
,,,,,,,,,,,,,FF,,,,,,,,0.734,,,,,,,,,,,,,,,,,,,,,,5e8ec3e28ee4fe17502d74eb,6103764a31b0121be5202ca6,2021-07-29_22h57.13.687,Simcolourproject_2stim_asymm_v5,2020.2.10,Win32,60,61025ae37ef11b136ea224fe,,,,,,,,,608,43,117.5,1,0,0,response1disk,,7,-7,2.5,1,0,0,rectangle,-7,2.5,1,0,0,-7,2.5,1,0,0,1,62,222,133,1,,,,,,,,
,,,,,,,,,,,,,FF,,,,,,,,1.3,,,,,,,,,,,,,,,,,,,,,,5e8ec3e28ee4fe17502d74eb,6103764a31b0121be5202ca6,2021-07-29_22h57.13.687,Simcolourproject_2stim_asymm_v5,2020.2.10,Win32,60,61025ae37ef11b136ea224fe,,,,,,,,,1748,34,-105.5,1,0,0,response3disk,,4,-6,-0.5,1,0,0,rectangle,-6,-0.5,1,0,0,-6,-0.5,1,0,0,1,63,223,36,1,,,,,,,,
,,,,,,,,,,,,,FF,,,,,,,,0.984,,,,,,,,,,,,,,,,,,,,,,5e8ec3e28ee4fe17502d74eb,6103764a31b0121be5202ca6,2021-07-29_22h57.13.687,Simcolourproject_2stim_asymm_v5,2020.2.10,Win32,60,61025ae37ef11b136ea224fe,,,,,,,,,3760,45,92.5,1,0,0,response1disk,,7,2,-11.5,1,0,0,rectangle,2,-11.5,1,0,0,2,-11.5,1,0,0,1,64,224,18,1,,,,,,,,
,,,,,,,,,,,,,FF,,,,,,,,0.799,,,,,,,,,,,,,,,,,,,,,,5e8ec3e28ee4fe17502d74eb,6103764a31b0121be5202ca6,2021-07-29_22h57.13.687,Simcolourproject_2stim_asymm_v5,2020.2.10,Win32,60,61025ae37ef11b136ea224fe,,,,,,,,,984,41,95.5,1,0,0,response1disk,,7,28,5.5,1,0,0,rectangle,28,5.5,1,0,0,28,5.5,1,0,0,1,65,225,73,1,,,,,,,,
,,,,,,,,,,,,,FF,,,,,,,,1.783,,,,,,,,,,,,,,,,,,,,,,5e8ec3e28ee4fe17502d74eb,6103764a31b0121be5202ca6,2021-07-29_22h57.13.687,Simcolourproject_2stim_asymm_v5,2020.2.10,Win32,60,61025ae37ef11b136ea224fe,,,,,,,,,3945,101,-42.5,1,0,0,response3disk,,5,10,0.5,1,0,0,rectangle,10,0.5,1,0,0,10,0.5,1,0,0,1,66,226,43,1,,,,,,,,
,,,,,,,,,,,,,FF,,,,,,,,0.915,,,,,,,,,,,,,,,,,,,,,,5e8ec3e28ee4fe17502d74eb,6103764a31b0121be5202ca6,2021-07-29_22h57.13.687,Simcolourproject_2stim_asymm_v5,2020.2.10,Win32,60,61025ae37ef11b136ea224fe,,,,,,,,,612,33,106.5,1,0,0,response1disk,,7,9,1.5,1,0,0,rectangle,9,1.5,1,0,0,9,1.5,1,0,0,1,67,227,90,1,,,,,,,,
,,,,,,,,,,,,,FF,,,,,,,,0.834,,,,,,,,,,,,,,,,,,,,,,5e8ec3e28ee4fe17502d74eb,6103764a31b0121be5202ca6,2021-07-29_22h57.13.687,Simcolourproject_2stim_asymm_v5,2020.2.10,Win32,60,61025ae37ef11b136ea224fe,,,,,,,,,1845,42,122.5,1,0,0,response1disk,,7,12,2.5,1,0,0,rectangle,12,2.5,1,0,0,12,2.5,1,0,0,1,68,228,12,1,,,,,,,,
,,,,,,,,,,,,,FF,,,,,,,,0.833,,,,,,,,,,,,,,,,,,,,,,5e8ec3e28ee4fe17502d74eb,6103764a31b0121be5202ca6,2021-07-29_22h57.13.687,Simcolourproject_2stim_asymm_v5,2020.2.10,Win32,60,61025ae37ef11b136ea224fe,,,,,,,,,3441,69,104.5,1,0,0,response1disk,,7,10,2.5,1,0,0,rectangle,10,2.5,1,0,0,10,2.5,1,0,0,1,69,229,21,1,,,,,,,,
,,,,,,,,,,,,,FF,,,,,,,,0.633,,,,,,,,,,,,,,,,,,,,,,5e8ec3e28ee4fe17502d74eb,6103764a31b0121be5202ca6,2021-07-29_22h57.13.687,Simcolourproject_2stim_asymm_v5,2020.2.10,Win32,60,61025ae37ef11b136ea224fe,,,,,,,,,292,41,120.5,1,0,0,response1disk,,7,6,0.5,1,0,0,rectangle,6,0.5,1,0,0,6,0.5,1,0,0,1,70,230,157,1,,,,,,,,
,,,,,,,,,,,,,FF,,,,,,,,0.817,,,,,,,,,,,,,,,,,,,,,,5e8ec3e28ee4fe17502d74eb,6103764a31b0121be5202ca6,2021-07-29_22h57.13.687,Simcolourproject_2stim_asymm_v5,2020.2.10,Win32,60,61025ae37ef11b136ea224fe,,,,,,,,,4154,55,92.5,1,0,0,response1disk,,7,17,4.5,1,0,0,rectangle,17,4.5,1,0,0,17,4.5,1,0,0,1,71,231,34,1,,,,,,,,
,,,,,,,,,,,,,FF,,,,,,,,0.734,,,,,,,,,,,,,,,,,,,,,,5e8ec3e28ee4fe17502d74eb,6103764a31b0121be5202ca6,2021-07-29_22h57.13.687,Simcolourproject_2stim_asymm_v5,2020.2.10,Win32,60,61025ae37ef11b136ea224fe,,,,,,,,,3789,36,117.5,1,0,0,response1disk,,7,1,-2.5,1,0,0,rectangle,1,-2.5,1,0,0,1,-2.5,1,0,0,1,72,232,103,1,,,,,,,,
,,,,,,,,,,,,,FF,,,,,,,,0.784,,,,,,,,,,,,,,,,,,,,,,5e8ec3e28ee4fe17502d74eb,6103764a31b0121be5202ca6,2021-07-29_22h57.13.687,Simcolourproject_2stim_asymm_v5,2020.2.10,Win32,60,61025ae37ef11b136ea224fe,,,,,,,,,4037,48,106.5,1,0,0,response1disk,,7,16,5.5,1,0,0,rectangle,16,5.5,1,0,0,16,5.5,1,0,0,1,73,233,153,1,,,,,,,,
,,,,,,,,,,,,,FF,,,,,,,,0.7,,,,,,,,,,,,,,,,,,,,,,5e8ec3e28ee4fe17502d74eb,6103764a31b0121be5202ca6,2021-07-29_22h57.13.687,Simcolourproject_2stim_asymm_v5,2020.2.10,Win32,60,61025ae37ef11b136ea224fe,,,,,,,,,2255,44,112.5,1,0,0,response1disk,,7,18,1.5,1,0,0,rectangle,18,1.5,1,0,0,18,1.5,1,0,0,1,74,234,71,1,,,,,,,,
,,,,,,,,,,,,,FF,,,,,,,,0.784,,,,,,,,,,,,,,,,,,,,,,5e8ec3e28ee4fe17502d74eb,6103764a31b0121be5202ca6,2021-07-29_22h57.13.687,Simcolourproject_2stim_asymm_v5,2020.2.10,Win32,60,61025ae37ef11b136ea224fe,,,,,,,,,1387,37,83.5,1,0,0,response1disk,,7,19,5.5,1,0,0,rectangle,19,5.5,1,0,0,19,5.5,1,0,0,1,75,235,69,1,,,,,,,,
,,,,,,,,,,,,,FF,,,,,,,,0.633,,,,,,,,,,,,,,,,,,,,,,5e8ec3e28ee4fe17502d74eb,6103764a31b0121be5202ca6,2021-07-29_22h57.13.687,Simcolourproject_2stim_asymm_v5,2020.2.10,Win32,60,61025ae37ef11b136ea224fe,,,,,,,,,2135,57,103.5,1,0,0,response1disk,,7,19,-5.5,1,0,0,rectangle,19,-5.5,1,0,0,19,-5.5,1,0,0,1,76,236,5,1,,,,,,,,
,,,,,,,,,,,,,FF,,,,,,,,0.85,,,,,,,,,,,,,,,,,,,,,,5e8ec3e28ee4fe17502d74eb,6103764a31b0121be5202ca6,2021-07-29_22h57.13.687,Simcolourproject_2stim_asymm_v5,2020.2.10,Win32,60,61025ae37ef11b136ea224fe,,,,,,,,,3438,32,84.5,1,0,0,response1disk,,7,20,1.5,1,0,0,rectangle,20,1.5,1,0,0,20,1.5,1,0,0,1,77,237,92,1,,,,,,,,
,,,,,,,,,,,,,FF,,,,,,,,1.6,,,,,,,,,,,,,,,,,,,,,,5e8ec3e28ee4fe17502d74eb,6103764a31b0121be5202ca6,2021-07-29_22h57.13.687,Simcolourproject_2stim_asymm_v5,2020.2.10,Win32,60,61025ae37ef11b136ea224fe,,,,,,,,,3517,-73,-38.5,1,0,0,response5disk,,2,4,-2.5,1,0,0,rectangle,4,-2.5,1,0,0,4,-2.5,1,0,0,1,78,238,17,1,,,,,,,,
,,,,,,,,,,,,,FF,,,,,,,,1.084,,,,,,,,,,,,,,,,,,,,,,5e8ec3e28ee4fe17502d74eb,6103764a31b0121be5202ca6,2021-07-29_22h57.13.687,Simcolourproject_2stim_asymm_v5,2020.2.10,Win32,60,61025ae37ef11b136ea224fe,,,,,,,,,3878,50,130.5,1,0,0,response1disk,,7,18,1.5,1,0,0,rectangle,18,1.5,1,0,0,18,1.5,1,0,0,1,79,239,129,1,,,,,,,,
,,,,,,,,,,,,,FF,,,,,,,,1.334,,,,,,,,,,,,,,,,,,,,,,5e8ec3e28ee4fe17502d74eb,6103764a31b0121be5202ca6,2021-07-29_22h57.13.687,Simcolourproject_2stim_asymm_v5,2020.2.10,Win32,60,61025ae37ef11b136ea224fe,,,,,,,,,3110,50,97.5,1,0,0,response1disk,,7,20,-2.5,1,0,0,rectangle,20,-2.5,1,0,0,20,-2.5,1,0,0,1,80,240,9,1,,,,,,,,
,,,,,,,,,,,,,FF,,,,,,,,0.933,,,,,,,,,,,,,,,,,,,,,,5e8ec3e28ee4fe17502d74eb,6103764a31b0121be5202ca6,2021-07-29_22h57.13.687,Simcolourproject_2stim_asymm_v5,2020.2.10,Win32,60,61025ae37ef11b136ea224fe,,,,,,,,,3595,42,103.5,1,0,0,response1disk,,7,14,5.5,1,0,0,rectangle,14,5.5,1,0,0,14,5.5,1,0,0,1,81,241,95,1,,,,,,,,
,,,,,,,,,,,,,FF,,,,,,,,0.916,,,,,,,,,,,,,,,,,,,,,,5e8ec3e28ee4fe17502d74eb,6103764a31b0121be5202ca6,2021-07-29_22h57.13.687,Simcolourproject_2stim_asymm_v5,2020.2.10,Win32,60,61025ae37ef11b136ea224fe,,,,,,,,,3638,45,99.5,1,0,0,response1disk,,7,-6,-11.5,1,0,0,rectangle,-6,-11.5,1,0,0,-6,-11.5,1,0,0,1,82,242,149,1,,,,,,,,
,,,,,,,,,,,,,FF,,,,,,,,0.7,,,,,,,,,,,,,,,,,,,,,,5e8ec3e28ee4fe17502d74eb,6103764a31b0121be5202ca6,2021-07-29_22h57.13.687,Simcolourproject_2stim_asymm_v5,2020.2.10,Win32,60,61025ae37ef11b136ea224fe,,,,,,,,,64,45,88.5,1,0,0,response1disk,,7,23,-2.5,1,0,0,rectangle,23,-2.5,1,0,0,23,-2.5,1,0,0,1,83,243,104,1,,,,,,,,
,,,,,,,,,,,,,FF,,,,,,,,1,,,,,,,,,,,,,,,,,,,,,,5e8ec3e28ee4fe17502d74eb,6103764a31b0121be5202ca6,2021-07-29_22h57.13.687,Simcolourproject_2stim_asymm_v5,2020.2.10,Win32,60,61025ae37ef11b136ea224fe,,,,,,,,,332,51,104.5,1,0,0,response1disk,,7,22,-2.5,1,0,0,rectangle,22,-2.5,1,0,0,22,-2.5,1,0,0,1,84,244,83,1,,,,,,,,
,,,,,,,,,,,,,FF,,,,,,,,0.85,,,,,,,,,,,,,,,,,,,,,,5e8ec3e28ee4fe17502d74eb,6103764a31b0121be5202ca6,2021-07-29_22h57.13.687,Simcolourproject_2stim_asymm_v5,2020.2.10,Win32,60,61025ae37ef11b136ea224fe,,,,,,,,,785,48,108.5,1,0,0,response1disk,,7,12,7.5,1,0,0,rectangle,12,7.5,1,0,0,12,7.5,1,0,0,1,85,245,79,1,,,,,,,,
,,,,,,,,,,,,,FF,,,,,,,,1.8,,,,,,,,,,,,,,,,,,,,,,5e8ec3e28ee4fe17502d74eb,6103764a31b0121be5202ca6,2021-07-29_22h57.13.687,Simcolourproject_2stim_asymm_v5,2020.2.10,Win32,60,61025ae37ef11b136ea224fe,,,,,,,,,4164,60,-102.5,1,0,0,response3disk,,4,17,-3.5,1,0,0,rectangle,17,-3.5,1,0,0,17,-3.5,1,0,0,1,86,246,152,1,,,,,,,,
,,,,,,,,,,,,,FF,,,,,,,,0.834,,,,,,,,,,,,,,,,,,,,,,5e8ec3e28ee4fe17502d74eb,6103764a31b0121be5202ca6,2021-07-29_22h57.13.687,Simcolourproject_2stim_asymm_v5,2020.2.10,Win32,60,61025ae37ef11b136ea224fe,,,,,,,,,2801,27,105.5,1,0,0,response1disk,,7,8,2.5,1,0,0,rectangle,8,2.5,1,0,0,8,2.5,1,0,0,1,87,247,88,1,,,,,,,,
,,,,,,,,,,,,,FF,,,,,,,,0.95,,,,,,,,,,,,,,,,,,,,,,5e8ec3e28ee4fe17502d74eb,6103764a31b0121be5202ca6,2021-07-29_22h57.13.687,Simcolourproject_2stim_asymm_v5,2020.2.10,Win32,60,61025ae37ef11b136ea224fe,,,,,,,,,3759,63,112.5,1,0,0,response1disk,,7,1,7.5,1,0,0,rectangle,1,7.5,1,0,0,1,7.5,1,0,0,1,88,248,33,1,,,,,,,,
,,,,,,,,,,,,,FF,,,,,,,,0.716,,,,,,,,,,,,,,,,,,,,,,5e8ec3e28ee4fe17502d74eb,6103764a31b0121be5202ca6,2021-07-29_22h57.13.687,Simcolourproject_2stim_asymm_v5,2020.2.10,Win32,60,61025ae37ef11b136ea224fe,,,,,,,,,50,58,102.5,1,0,0,response1disk,,7,0,-3.5,1,0,0,rectangle,0,-3.5,1,0,0,0,-3.5,1,0,0,1,89,249,137,1,,,,,,,,
,,,,,,,,,,,,,FF,,,,,,,,0.866,,,,,,,,,,,,,,,,,,,,,,5e8ec3e28ee4fe17502d74eb,6103764a31b0121be5202ca6,2021-07-29_22h57.13.687,Simcolourproject_2stim_asymm_v5,2020.2.10,Win32,60,61025ae37ef11b136ea224fe,,,,,,,,,1108,52,125.5,1,0,0,response1disk,,7,13,7.5,1,0,0,rectangle,13,7.5,1,0,0,13,7.5,1,0,0,1,90,250,119,1,,,,,,,,
,,,,,,,,,,,,,FF,,,,,,,,1.166,,,,,,,,,,,,,,,,,,,,,,5e8ec3e28ee4fe17502d74eb,6103764a31b0121be5202ca6,2021-07-29_22h57.13.687,Simcolourproject_2stim_asymm_v5,2020.2.10,Win32,60,61025ae37ef11b136ea224fe,,,,,,,,,4321,52,107.5,1,0,0,response1disk,,7,22,-0.5,1,0,0,rectangle,119,50.5,1,0,0,8,-1.5,1,0,0,1,91,251,146,1,,response1disk_3,TRUE,6,6,"[192,265,92,192,178,273,165,148,126,179,115,87,150,214,15,32,216,22,252,271]",2.149,rectangle
,,,,,,,,,,,,,FF,,,,,,,,0.834,,,,,,,,,,,,,,,,,,,,,,5e8ec3e28ee4fe17502d74eb,6103764a31b0121be5202ca6,2021-07-29_22h57.13.687,Simcolourproject_2stim_asymm_v5,2020.2.10,Win32,60,61025ae37ef11b136ea224fe,,,,,,,,,1880,32,75.5,1,0,0,response1disk,,7,-3,1.5,1,0,0,rectangle,-3,1.5,1,0,0,-3,1.5,1,0,0,1,92,252,118,1,,,,,,,,
,,,,,,,,,,,,,FF,,,,,,,,1.966,,,,,,,,,,,,,,,,,,,,,,5e8ec3e28ee4fe17502d74eb,6103764a31b0121be5202ca6,2021-07-29_22h57.13.687,Simcolourproject_2stim_asymm_v5,2020.2.10,Win32,60,61025ae37ef11b136ea224fe,,,,,,,,,2723,92,-50.5,1,0,0,response3disk,,5,2,5.5,1,0,0,rectangle,2,5.5,1,0,0,2,5.5,1,0,0,1,93,253,130,1,,,,,,,,
,,,,,,,,,,,,,FF,,,,,,,,1.184,,,,,,,,,,,,,,,,,,,,,,5e8ec3e28ee4fe17502d74eb,6103764a31b0121be5202ca6,2021-07-29_22h57.13.687,Simcolourproject_2stim_asymm_v5,2020.2.10,Win32,60,61025ae37ef11b136ea224fe,,,,,,,,,2635,28,84.5,1,0,0,response1disk,,7,16,2.5,1,0,0,rectangle,16,2.5,1,0,0,16,2.5,1,0,0,1,94,254,26,1,,,,,,,,
,,,,,,,,,,,,,FF,,,,,,,,1.401,,,,,,,,,,,,,,,,,,,,,,5e8ec3e28ee4fe17502d74eb,6103764a31b0121be5202ca6,2021-07-29_22h57.13.687,Simcolourproject_2stim_asymm_v5,2020.2.10,Win32,60,61025ae37ef11b136ea224fe,,,,,,,,,3810,-97,37.5,1,0,0,response7disk,,1,2,11.5,1,0,0,rectangle,2,11.5,1,0,0,2,11.5,1,0,0,1,95,255,58,1,,,,,,,,
,,,,,,,,,,,,,FF,,,,,,,,0.666,,,,,,,,,,,,,,,,,,,,,,5e8ec3e28ee4fe17502d74eb,6103764a31b0121be5202ca6,2021-07-29_22h57.13.687,Simcolourproject_2stim_asymm_v5,2020.2.10,Win32,60,61025ae37ef11b136ea224fe,,,,,,,,,3764,69,97.5,1,0,0,response1disk,,7,18,-2.5,1,0,0,rectangle,18,-2.5,1,0,0,18,-2.5,1,0,0,1,96,256,86,1,,,,,,,,
,,,,,,,,,,,,,FF,,,,,,,,0.667,,,,,,,,,,,,,,,,,,,,,,5e8ec3e28ee4fe17502d74eb,6103764a31b0121be5202ca6,2021-07-29_22h57.13.687,Simcolourproject_2stim_asymm_v5,2020.2.10,Win32,60,61025ae37ef11b136ea224fe,,,,,,,,,1500,41,98.5,1,0,0,response1disk,,7,13,3.5,1,0,0,rectangle,13,3.5,1,0,0,13,3.5,1,0,0,1,97,257,124,1,,,,,,,,
,,,,,,,,,,,,,FF,,,,,,,,0.867,,,,,,,,,,,,,,,,,,,,,,5e8ec3e28ee4fe17502d74eb,6103764a31b0121be5202ca6,2021-07-29_22h57.13.687,Simcolourproject_2stim_asymm_v5,2020.2.10,Win32,60,61025ae37ef11b136ea224fe,,,,,,,,,131,43,112.5,1,0,0,response1disk,,7,12,3.5,1,0,0,rectangle,12,3.5,1,0,0,12,3.5,1,0,0,1,98,258,74,1,,,,,,,,
,,,,,,,,,,,,,FF,,,,,,,,1.133,,,,,,,,,,,,,,,,,,,,,,5e8ec3e28ee4fe17502d74eb,6103764a31b0121be5202ca6,2021-07-29_22h57.13.687,Simcolourproject_2stim_asymm_v5,2020.2.10,Win32,60,61025ae37ef11b136ea224fe,,,,,,,,,3196,-65,-41.5,1,0,0,response5disk,,2,-7,-7.5,1,0,0,rectangle,-7,-7.5,1,0,0,-7,-7.5,1,0,0,1,99,259,10,1,,,,,,,,
,,,,,,,,,,,,,FF,,,,,,,,0.952,,,,,,,,,,,,,,,,,,,,,,5e8ec3e28ee4fe17502d74eb,6103764a31b0121be5202ca6,2021-07-29_22h57.13.687,Simcolourproject_2stim_asymm_v5,2020.2.10,Win32,60,61025ae37ef11b136ea224fe,,,,,,,,,638,40,92.5,1,0,0,response1disk,,7,15,-8.5,1,0,0,rectangle,15,-8.5,1,0,0,15,-8.5,1,0,0,1,100,260,38,1,,,,,,,,
,,,,,,,,,,,,,FF,,,,,,,,1.433,,,,,,,,,,,,,,,,,,,,,,5e8ec3e28ee4fe17502d74eb,6103764a31b0121be5202ca6,2021-07-29_22h57.13.687,Simcolourproject_2stim_asymm_v5,2020.2.10,Win32,60,61025ae37ef11b136ea224fe,,,,,,,,,2772,52,-112.5,1,0,0,response3disk,,4,-12,-2.5,1,0,0,rectangle,-12,-2.5,1,0,0,-12,-2.5,1,0,0,1,101,261,117,1,,,,,,,,
,,,,,,,,,,,,,FF,,,,,,,,2.034,,,,,,,,,,,,,,,,,,,,,,5e8ec3e28ee4fe17502d74eb,6103764a31b0121be5202ca6,2021-07-29_22h57.13.687,Simcolourproject_2stim_asymm_v5,2020.2.10,Win32,60,61025ae37ef11b136ea224fe,,,,,,,,,3419,98,47.5,1,0,0,response1disk,,6,16,1.5,1,0,0,rectangle,16,1.5,1,0,0,16,1.5,1,0,0,1,102,262,112,1,,,,,,,,
,,,,,,,,,,,,,FF,,,,,,,,0.834,,,,,,,,,,,,,,,,,,,,,,5e8ec3e28ee4fe17502d74eb,6103764a31b0121be5202ca6,2021-07-29_22h57.13.687,Simcolourproject_2stim_asymm_v5,2020.2.10,Win32,60,61025ae37ef11b136ea224fe,,,,,,,,,857,38,103.5,1,0,0,response1disk,,7,12,0.5,1,0,0,rectangle,12,0.5,1,0,0,12,0.5,1,0,0,1,103,263,46,1,,,,,,,,
,,,,,,,,,,,,,FF,,,,,,,,0.883,,,,,,,,,,,,,,,,,,,,,,5e8ec3e28ee4fe17502d74eb,6103764a31b0121be5202ca6,2021-07-29_22h57.13.687,Simcolourproject_2stim_asymm_v5,2020.2.10,Win32,60,61025ae37ef11b136ea224fe,,,,,,,,,3409,27,80.5,1,0,0,response1disk,,7,15,2.5,1,0,0,rectangle,-107,-42.5,1,0,0,0,-0.5,1,0,0,1,104,264,87,1,,response5disk_3,TRUE,2,2,"[192,265,92,192,178,273,165,148,126,179,115,87,150,214,15,32,216,22,252,271]",2.35,rectangle
,,,,,,,,,,,,,FF,,,,,,,,1.334,,,,,,,,,,,,,,,,,,,,,,5e8ec3e28ee4fe17502d74eb,6103764a31b0121be5202ca6,2021-07-29_22h57.13.687,Simcolourproject_2stim_asymm_v5,2020.2.10,Win32,60,61025ae37ef11b136ea224fe,,,,,,,,,3476,97,-47.5,1,0,0,response3disk,,5,3,2.5,1,0,0,rectangle,3,2.5,1,0,0,3,2.5,1,0,0,1,105,265,150,1,,,,,,,,
,,,,,,,,,,,,,FF,,,,,,,,0.95,,,,,,,,,,,,,,,,,,,,,,5e8ec3e28ee4fe17502d74eb,6103764a31b0121be5202ca6,2021-07-29_22h57.13.687,Simcolourproject_2stim_asymm_v5,2020.2.10,Win32,60,61025ae37ef11b136ea224fe,,,,,,,,,762,69,101.5,1,0,0,response1disk,,7,10,-4.5,1,0,0,rectangle,10,-4.5,1,0,0,10,-4.5,1,0,0,1,106,266,22,1,,,,,,,,
,,,,,,,,,,,,,FF,,,,,,,,1.284,,,,,,,,,,,,,,,,,,,,,,5e8ec3e28ee4fe17502d74eb,6103764a31b0121be5202ca6,2021-07-29_22h57.13.687,Simcolourproject_2stim_asymm_v5,2020.2.10,Win32,60,61025ae37ef11b136ea224fe,,,,,,,,,1615,34,111.5,1,0,0,response1disk,,7,10,0.5,1,0,0,rectangle,10,0.5,1,0,0,10,0.5,1,0,0,1,107,267,45,1,,,,,,,,
,,,,,,,,,,,,,FF,,,,,,,,0.817,,,,,,,,,,,,,,,,,,,,,,5e8ec3e28ee4fe17502d74eb,6103764a31b0121be5202ca6,2021-07-29_22h57.13.687,Simcolourproject_2stim_asymm_v5,2020.2.10,Win32,60,61025ae37ef11b136ea224fe,,,,,,,,,239,44,88.5,1,0,0,response1disk,,7,11,-7.5,1,0,0,rectangle,11,-7.5,1,0,0,11,-7.5,1,0,0,1,108,268,67,1,,,,,,,,
,,,,,,,,,,,,,FF,,,,,,,,0.667,,,,,,,,,,,,,,,,,,,,,,5e8ec3e28ee4fe17502d74eb,6103764a31b0121be5202ca6,2021-07-29_22h57.13.687,Simcolourproject_2stim_asymm_v5,2020.2.10,Win32,60,61025ae37ef11b136ea224fe,,,,,,,,,4060,34,104.5,1,0,0,response1disk,,7,14,-3.5,1,0,0,rectangle,14,-3.5,1,0,0,14,-3.5,1,0,0,1,109,269,131,1,,,,,,,,
,,,,,,,,,,,,,FF,,,,,,,,1.55,,,,,,,,,,,,,,,,,,,,,,5e8ec3e28ee4fe17502d74eb,6103764a31b0121be5202ca6,2021-07-29_22h57.13.687,Simcolourproject_2stim_asymm_v5,2020.2.10,Win32,60,61025ae37ef11b136ea224fe,,,,,,,,,1433,43,91.5,1,0,0,response1disk,,7,15,6.5,1,0,0,rectangle,-109,48.5,1,0,0,11,-10.5,1,0,0,1,110,270,139,1,,response7disk_3,TRUE,1,1,"[192,265,92,192,178,273,165,148,126,179,115,87,150,214,15,32,216,22,252,271]",2.018,rectangle
,,,,,,,,,,,,,FF,,,,,,,,0.916,,,,,,,,,,,,,,,,,,,,,,5e8ec3e28ee4fe17502d74eb,6103764a31b0121be5202ca6,2021-07-29_22h57.13.687,Simcolourproject_2stim_asymm_v5,2020.2.10,Win32,60,61025ae37ef11b136ea224fe,,,,,,,,,2249,71,105.5,1,0,0,response1disk,,7,15,-0.5,1,0,0,rectangle,15,-0.5,1,0,0,15,-0.5,1,0,0,1,111,271,148,1,,,,,,,,
,,,,,,,,,,,,,FF,,,,,,,,0.75,,,,,,,,,,,,,,,,,,,,,,5e8ec3e28ee4fe17502d74eb,6103764a31b0121be5202ca6,2021-07-29_22h57.13.687,Simcolourproject_2stim_asymm_v5,2020.2.10,Win32,60,61025ae37ef11b136ea224fe,,,,,,,,,201,32,92.5,1,0,0,response1disk,,7,-10,-3.5,1,0,0,rectangle,-33,118.5,1,0,0,15,2.5,1,0,0,1,112,272,102,1,,response7disk_3,TRUE,0,0,"[192,265,92,192,178,273,165,148,126,179,115,87,150,214,15,32,216,22,252,271]",2.333,rectangle
,,,,,,,,,,,,,FF,,,,,,,,0.983,,,,,,,,,,,,,,,,,,,,,,5e8ec3e28ee4fe17502d74eb,6103764a31b0121be5202ca6,2021-07-29_22h57.13.687,Simcolourproject_2stim_asymm_v5,2020.2.10,Win32,60,61025ae37ef11b136ea224fe,,,,,,,,,1514,59,106.5,1,0,0,response1disk,,7,-1,6.5,1,0,0,rectangle,-1,6.5,1,0,0,-1,6.5,1,0,0,1,113,273,68,1,,,,,,,,
,,,,,,,,,,,,,FF,,,,,,,,0.766,,,,,,,,,,,,,,,,,,,,,,5e8ec3e28ee4fe17502d74eb,6103764a31b0121be5202ca6,2021-07-29_22h57.13.687,Simcolourproject_2stim_asymm_v5,2020.2.10,Win32,60,61025ae37ef11b136ea224fe,,,,,,,,,3891,34,102.5,1,0,0,response1disk,,7,-3,3.5,1,0,0,rectangle,-3,3.5,1,0,0,-3,3.5,1,0,0,1,114,274,93,1,,,,,,,,
,,,,,,,,,,,,,FF,,,,,,,,0.7,,,,,,,,,,,,,,,,,,,,,,5e8ec3e28ee4fe17502d74eb,6103764a31b0121be5202ca6,2021-07-29_22h57.13.687,Simcolourproject_2stim_asymm_v5,2020.2.10,Win32,60,61025ae37ef11b136ea224fe,,,,,,,,,2352,43,109.5,1,0,0,response1disk,,7,8,6.5,1,0,0,rectangle,8,6.5,1,0,0,8,6.5,1,0,0,1,115,275,70,1,,,,,,,,
,,,,,,,,,,,,,FF,,,,,,,,1.784,,,,,,,,,,,,,,,,,,,,,,5e8ec3e28ee4fe17502d74eb,6103764a31b0121be5202ca6,2021-07-29_22h57.13.687,Simcolourproject_2stim_asymm_v5,2020.2.10,Win32,60,61025ae37ef11b136ea224fe,,,,,,,,,4339,89,-43.5,1,0,0,response3disk,,5,4,3.5,1,0,0,rectangle,4,3.5,1,0,0,4,3.5,1,0,0,1,116,276,154,1,,,,,,,,
,,,,,,,,,,,,,FF,,,,,,,,0.967,,,,,,,,,,,,,,,,,,,,,,5e8ec3e28ee4fe17502d74eb,6103764a31b0121be5202ca6,2021-07-29_22h57.13.687,Simcolourproject_2stim_asymm_v5,2020.2.10,Win32,60,61025ae37ef11b136ea224fe,,,,,,,,,91,39,89.5,1,0,0,response1disk,,7,16,-10.5,1,0,0,rectangle,16,-10.5,1,0,0,16,-10.5,1,0,0,1,117,277,44,1,,,,,,,,
,,,,,,,,,,,,,FF,,,,,,,,0.868,,,,,,,,,,,,,,,,,,,,,,5e8ec3e28ee4fe17502d74eb,6103764a31b0121be5202ca6,2021-07-29_22h57.13.687,Simcolourproject_2stim_asymm_v5,2020.2.10,Win32,60,61025ae37ef11b136ea224fe,,,,,,,,,3950,38,93.5,1,0,0,response1disk,,7,15,1.5,1,0,0,rectangle,15,1.5,1,0,0,15,1.5,1,0,0,1,118,278,98,1,,,,,,,,
,,,,,,,,,,,,,FF,,,,,,,,2.849,,,,,,,,,,,,,,,,,,,,,,5e8ec3e28ee4fe17502d74eb,6103764a31b0121be5202ca6,2021-07-29_22h57.13.687,Simcolourproject_2stim_asymm_v5,2020.2.10,Win32,60,61025ae37ef11b136ea224fe,,,,,,,,,2163,39,89.5,1,0,0,response1disk,,7,-3,4.5,1,0,0,rectangle,-3,4.5,1,0,0,-3,4.5,1,0,0,1,119,279,47,1,,,,,,,,
,,,,,,,,,,,,,FF,,,,,,,,0.916,,,,,,,,,,,,,,,,,,,,,,5e8ec3e28ee4fe17502d74eb,6103764a31b0121be5202ca6,2021-07-29_22h57.13.687,Simcolourproject_2stim_asymm_v5,2020.2.10,Win32,60,61025ae37ef11b136ea224fe,,,,,,,,,1361,33,116.5,1,0,0,response1disk,,7,3,6.5,1,0,0,rectangle,3,6.5,1,0,0,3,6.5,1,0,0,1,120,280,94,1,,,,,,,,
,,,,,,,,,,,,,FF,,,,,,,,0.784,,,,,,,,,,,,,,,,,,,,,,5e8ec3e28ee4fe17502d74eb,6103764a31b0121be5202ca6,2021-07-29_22h57.13.687,Simcolourproject_2stim_asymm_v5,2020.2.10,Win32,60,61025ae37ef11b136ea224fe,,,,,,,,,483,57,123.5,1,0,0,response1disk,,7,10,0.5,1,0,0,rectangle,10,0.5,1,0,0,10,0.5,1,0,0,1,121,281,91,1,,,,,,,,
,,,,,,,,,,,,,FF,,,,,,,,0.815,,,,,,,,,,,,,,,,,,,,,,5e8ec3e28ee4fe17502d74eb,6103764a31b0121be5202ca6,2021-07-29_22h57.13.687,Simcolourproject_2stim_asymm_v5,2020.2.10,Win32,60,61025ae37ef11b136ea224fe,,,,,,,,,3703,37,98.5,1,0,0,response1disk,,7,3,-3.5,1,0,0,rectangle,3,-3.5,1,0,0,3,-3.5,1,0,0,1,122,282,113,1,,,,,,,,
,,,,,,,,,,,,,FF,,,,,,,,0.867,,,,,,,,,,,,,,,,,,,,,,5e8ec3e28ee4fe17502d74eb,6103764a31b0121be5202ca6,2021-07-29_22h57.13.687,Simcolourproject_2stim_asymm_v5,2020.2.10,Win32,60,61025ae37ef11b136ea224fe,,,,,,,,,3507,55,100.5,1,0,0,response1disk,,7,10,4.5,1,0,0,rectangle,10,4.5,1,0,0,10,4.5,1,0,0,1,123,283,13,1,,,,,,,,
,,,,,,,,,,,,,FF,,,,,,,,0.967,,,,,,,,,,,,,,,,,,,,,,5e8ec3e28ee4fe17502d74eb,6103764a31b0121be5202ca6,2021-07-29_22h57.13.687,Simcolourproject_2stim_asymm_v5,2020.2.10,Win32,60,61025ae37ef11b136ea224fe,,,,,,,,,1110,36,105.5,1,0,0,response1disk,,7,23,5.5,1,0,0,rectangle,23,5.5,1,0,0,23,5.5,1,0,0,1,124,284,80,1,,,,,,,,
,,,,,,,,,,,,,FF,,,,,,,,0.766,,,,,,,,,,,,,,,,,,,,,,5e8ec3e28ee4fe17502d74eb,6103764a31b0121be5202ca6,2021-07-29_22h57.13.687,Simcolourproject_2stim_asymm_v5,2020.2.10,Win32,60,61025ae37ef11b136ea224fe,,,,,,,,,1333,47,93.5,1,0,0,response1disk,,7,2,1.5,1,0,0,rectangle,2,1.5,1,0,0,2,1.5,1,0,0,1,125,285,75,1,,,,,,,,
,,,,,,,,,,,,,FF,,,,,,,,1.051,,,,,,,,,,,,,,,,,,,,,,5e8ec3e28ee4fe17502d74eb,6103764a31b0121be5202ca6,2021-07-29_22h57.13.687,Simcolourproject_2stim_asymm_v5,2020.2.10,Win32,60,61025ae37ef11b136ea224fe,,,,,,,,,3440,32,98.5,1,0,0,response1disk,,7,-6,-5.5,1,0,0,rectangle,-6,-5.5,1,0,0,-6,-5.5,1,0,0,1,126,286,76,1,,,,,,,,
,,,,,,,,,,,,,FF,,,,,,,,0.7,,,,,,,,,,,,,,,,,,,,,,5e8ec3e28ee4fe17502d74eb,6103764a31b0121be5202ca6,2021-07-29_22h57.13.687,Simcolourproject_2stim_asymm_v5,2020.2.10,Win32,60,61025ae37ef11b136ea224fe,,,,,,,,,3489,51,131.5,1,0,0,response1disk,,7,13,5.5,1,0,0,rectangle,13,5.5,1,0,0,13,5.5,1,0,0,1,127,287,159,1,,,,,,,,
,,,,,,,,,,,,,FF,,,,,,,,0.667,,,,,,,,,,,,,,,,,,,,,,5e8ec3e28ee4fe17502d74eb,6103764a31b0121be5202ca6,2021-07-29_22h57.13.687,Simcolourproject_2stim_asymm_v5,2020.2.10,Win32,60,61025ae37ef11b136ea224fe,,,,,,,,,2326,40,78.5,1,0,0,response1disk,,7,10,0.5,1,0,0,rectangle,10,0.5,1,0,0,10,0.5,1,0,0,1,128,288,8,1,,,,,,,,
,,,,,,,,,,,,,FF,,,,,,,,0.833,,,,,,,,,,,,,,,,,,,,,,5e8ec3e28ee4fe17502d74eb,6103764a31b0121be5202ca6,2021-07-29_22h57.13.687,Simcolourproject_2stim_asymm_v5,2020.2.10,Win32,60,61025ae37ef11b136ea224fe,,,,,,,,,3652,32,89.5,1,0,0,response1disk,,7,13,3.5,1,0,0,rectangle,13,3.5,1,0,0,13,3.5,1,0,0,1,129,289,120,1,,,,,,,,
,,,,,,,,,,,,,FF,,,,,,,,0.651,,,,,,,,,,,,,,,,,,,,,,5e8ec3e28ee4fe17502d74eb,6103764a31b0121be5202ca6,2021-07-29_22h57.13.687,Simcolourproject_2stim_asymm_v5,2020.2.10,Win32,60,61025ae37ef11b136ea224fe,,,,,,,,,952,31,78.5,1,0,0,response1disk,,7,3,-2.5,1,0,0,rectangle,3,-2.5,1,0,0,3,-2.5,1,0,0,1,130,290,32,1,,,,,,,,
,,,,,,,,,,,,,FF,,,,,,,,0.684,,,,,,,,,,,,,,,,,,,,,,5e8ec3e28ee4fe17502d74eb,6103764a31b0121be5202ca6,2021-07-29_22h57.13.687,Simcolourproject_2stim_asymm_v5,2020.2.10,Win32,60,61025ae37ef11b136ea224fe,,,,,,,,,1100,41,98.5,1,0,0,response1disk,,7,16,4.5,1,0,0,rectangle,16,4.5,1,0,0,16,4.5,1,0,0,1,131,291,48,1,,,,,,,,
,,,,,,,,,,,,,FF,,,,,,,,0.7,,,,,,,,,,,,,,,,,,,,,,5e8ec3e28ee4fe17502d74eb,6103764a31b0121be5202ca6,2021-07-29_22h57.13.687,Simcolourproject_2stim_asymm_v5,2020.2.10,Win32,60,61025ae37ef11b136ea224fe,,,,,,,,,2708,24,61.5,1,0,0,response1disk,,7,13,1.5,1,0,0,rectangle,13,1.5,1,0,0,13,1.5,1,0,0,1,132,292,107,1,,,,,,,,
,,,,,,,,,,,,,FF,,,,,,,,1.267,,,,,,,,,,,,,,,,,,,,,,5e8ec3e28ee4fe17502d74eb,6103764a31b0121be5202ca6,2021-07-29_22h57.13.687,Simcolourproject_2stim_asymm_v5,2020.2.10,Win32,60,61025ae37ef11b136ea224fe,,,,,,,,,3243,-59,99.5,1,0,0,response7disk,,0,9,2.5,1,0,0,rectangle,9,2.5,1,0,0,9,2.5,1,0,0,1,133,293,42,1,,,,,,,,
,,,,,,,,,,,,,FF,,,,,,,,2.067,,,,,,,,,,,,,,,,,,,,,,5e8ec3e28ee4fe17502d74eb,6103764a31b0121be5202ca6,2021-07-29_22h57.13.687,Simcolourproject_2stim_asymm_v5,2020.2.10,Win32,60,61025ae37ef11b136ea224fe,,,,,,,,,3880,-34,-102.5,1,0,0,response5disk,,3,3,3.5,1,0,0,rectangle,3,3.5,1,0,0,3,3.5,1,0,0,1,134,294,125,1,,,,,,,,
,,,,,,,,,,,,,FF,,,,,,,,1.149,,,,,,,,,,,,,,,,,,,,,,5e8ec3e28ee4fe17502d74eb,6103764a31b0121be5202ca6,2021-07-29_22h57.13.687,Simcolourproject_2stim_asymm_v5,2020.2.10,Win32,60,61025ae37ef11b136ea224fe,,,,,,,,,4001,62,102.5,1,0,0,response1disk,,7,18,9.5,1,0,0,rectangle,18,9.5,1,0,0,18,9.5,1,0,0,1,135,295,14,1,,,,,,,,
,,,,,,,,,,,,,FF,,,,,,,,0.85,,,,,,,,,,,,,,,,,,,,,,5e8ec3e28ee4fe17502d74eb,6103764a31b0121be5202ca6,2021-07-29_22h57.13.687,Simcolourproject_2stim_asymm_v5,2020.2.10,Win32,60,61025ae37ef11b136ea224fe,,,,,,,,,3171,42,73.5,1,0,0,response1disk,,7,12,3.5,1,0,0,rectangle,12,3.5,1,0,0,12,3.5,1,0,0,1,136,296,115,1,,,,,,,,
,,,,,,,,,,,,,FF,,,,,,,,0.701,,,,,,,,,,,,,,,,,,,,,,5e8ec3e28ee4fe17502d74eb,6103764a31b0121be5202ca6,2021-07-29_22h57.13.687,Simcolourproject_2stim_asymm_v5,2020.2.10,Win32,60,61025ae37ef11b136ea224fe,,,,,,,,,4,49,92.5,1,0,0,response1disk,,7,17,-11.5,1,0,0,rectangle,17,-11.5,1,0,0,17,-11.5,1,0,0,1,137,297,96,1,,,,,,,,
