key_resp.keys,key_resp.rt,key_resp_14.keys,key_resp_14.rt,key_resp_15.keys,key_resp_15.rt,key_resp_17.keys,key_resp_17.rt,key_resp_9.keys,key_resp_9.rt,key_resp_10.keys,key_resp_10.rt,practice_comparison,Ecc,mouse_5.x,mouse_5.y,mouse_5.leftButton,mouse_5.midButton,mouse_5.rightButton,mouse_5.clicked_name,pracsimilarity,response_time,mouse_10.x,mouse_10.y,mouse_10.leftButton,mouse_10.midButton,mouse_10.rightButton,mouse_10.clicked_name,mouse_7.x,mouse_7.y,mouse_7.leftButton,mouse_7.midButton,mouse_7.rightButton,mouse_6.x,mouse_6.y,mouse_6.leftButton,mouse_6.midButton,mouse_6.rightButton,duringprac.thisRepN,duringprac.thisTrialN,duringprac.thisN,duringprac.thisIndex,duringprac.ran,participant,session,date,expName,psychopyVersion,OS,frameRate,study_id,mouse_7.clicked_name,catchpracsimilarity,catch_response_time,catchnumberprac,catchtrialorderprac,mouse_6.clicked_name,key_resp_22.keys,key_resp_22.rt,realcomparison,mouse.x,mouse.y,mouse.leftButton,mouse.midButton,mouse.rightButton,mouse.clicked_name,Colour2,similarity,mouse_2.x,mouse_2.y,mouse_2.leftButton,mouse_2.midButton,mouse_2.rightButton,mouse_2.clicked_name,mouse_3.x,mouse_3.y,mouse_3.leftButton,mouse_3.midButton,mouse_3.rightButton,mouse_11.x,mouse_11.y,mouse_11.leftButton,mouse_11.midButton,mouse_11.rightButton,trials_2.thisRepN,trials_2.thisTrialN,trials_2.thisN,trials_2.thisIndex,trials_2.ran,Colour1,mouse_3.clicked_name,catchornah,catchsimilarity,catchnumber,catchtrialorder,catchRT,mouse_11.clicked_name
space,0.0011,space,2.2347,space,36.5089,space,5.2981,space,0.7333,space,3.4028,48,PF,-34.54296875,-100.1640625,1,0,0,response5disk_5,3,10.1882,7.75,-4.57421875,1,0,0,rectangle_8,7.75,-4.57421875,1,0,0,7.75,-4.57421875,1,0,0,0,0,0,6,1,5ecb57ce8473f06bc2a5060a,61036f361cbe328e09cf2633,2021-07-29_23h18.44.300,Simcolourproject_2stim_asymm_v5,2020.2.10,MacIntel,60,61025ae37ef11b136ea224fe,,,,,,,,,,,,,,,,,,,,,,,,,,,,,,,,,,,,,,,,,,,,,,
,,,,,,,,,,,,12,FF,18.76953125,49.953125,1,0,0,response1disk_5,7,5.439,-25.140625,-0.82421875,1,0,0,rectangle_8,-59.671875,25.48046875,1,0,0,-3.53125,4.2421875,1,0,0,0,1,1,3,1,5ecb57ce8473f06bc2a5060a,61036f361cbe328e09cf2633,2021-07-29_23h18.44.300,Simcolourproject_2stim_asymm_v5,2020.2.10,MacIntel,60,61025ae37ef11b136ea224fe,response7disk_7,1,1.6543,1,"[2,5]",rectangle_4,,,,,,,,,,,,,,,,,,,,,,,,,,,,,,,,,,,,,,,,
,,,,,,,,,,,,111,PF,88.109375,-50.625,1,0,0,response3disk_5,5,2.0178,31.60546875,-7.69140625,1,0,0,rectangle_8,31.60546875,-7.69140625,1,0,0,31.60546875,-7.69140625,1,0,0,0,2,2,4,1,5ecb57ce8473f06bc2a5060a,61036f361cbe328e09cf2633,2021-07-29_23h18.44.300,Simcolourproject_2stim_asymm_v5,2020.2.10,MacIntel,60,61025ae37ef11b136ea224fe,,,,,,,,,,,,,,,,,,,,,,,,,,,,,,,,,,,,,,,,,,,,,,
,,,,,,,,,,,,141,PF,-30.10546875,-60.984375,1,0,0,response5disk_5,3,1.0508,4.41796875,-0.23828125,1,0,0,rectangle_8,4.41796875,-0.23828125,1,0,0,4.41796875,-0.23828125,1,0,0,0,3,3,1,1,5ecb57ce8473f06bc2a5060a,61036f361cbe328e09cf2633,2021-07-29_23h18.44.300,Simcolourproject_2stim_asymm_v5,2020.2.10,MacIntel,60,61025ae37ef11b136ea224fe,,,,,,,,,,,,,,,,,,,,,,,,,,,,,,,,,,,,,,,,,,,,,,
,,,,,,,,,,,,35,FF,-20.08203125,46.80859375,1,0,0,response7disk_5,0,1.1173,-0.140625,2.359375,1,0,0,rectangle_8,-55.95703125,23.00390625,1,0,0,-20.7421875,3.17578125,1,0,0,0,4,4,0,1,5ecb57ce8473f06bc2a5060a,61036f361cbe328e09cf2633,2021-07-29_23h18.44.300,Simcolourproject_2stim_asymm_v5,2020.2.10,MacIntel,60,61025ae37ef11b136ea224fe,response7disk_7,1,1.7849,1,"[2,5]",rectangle_4,,,,,,,,,,,,,,,,,,,,,,,,,,,,,,,,,,,,,,,,
,,,,,,,,,,,,61,PF,47.40234375,-80.67578125,1,0,0,response3disk_5,4,2.8177,6.46875,-11.03515625,1,0,0,rectangle_8,6.46875,-11.03515625,1,0,0,6.46875,-11.03515625,1,0,0,0,5,5,2,1,5ecb57ce8473f06bc2a5060a,61036f361cbe328e09cf2633,2021-07-29_23h18.44.300,Simcolourproject_2stim_asymm_v5,2020.2.10,MacIntel,60,61025ae37ef11b136ea224fe,,,,,,,,,,,,,,,,,,,,,,,,,,,,,,,,,,,,,,,,,,,,,,
,,,,,,,,,,,,0,FF,-52.14453125,-44.921875,1,0,0,response5disk_5,2,1.8518,-4.046875,-1.9921875,1,0,0,rectangle_8,-4.046875,-1.9921875,1,0,0,-4.046875,-1.9921875,1,0,0,0,6,6,5,1,5ecb57ce8473f06bc2a5060a,61036f361cbe328e09cf2633,2021-07-29_23h18.44.300,Simcolourproject_2stim_asymm_v5,2020.2.10,MacIntel,60,61025ae37ef11b136ea224fe,,,,,,,,,,,,,,,,,,,,,,,,,,,,,,,,,,,,,,,,,,,,,,
,,,,,,,,,,,,,FF,,,,,,,,2.4021,,,,,,,,,,,,,,,,,,,,,,5ecb57ce8473f06bc2a5060a,61036f361cbe328e09cf2633,2021-07-29_23h18.44.300,Simcolourproject_2stim_asymm_v5,2020.2.10,MacIntel,60,61025ae37ef11b136ea224fe,,,,,,,space,21.8032,322,-71.94140625,-44.21875,1,0,0,response5disk,,2,-18.05859375,-8.73828125,1,0,0,rectangle,-18.05859375,-8.73828125,1,0,0,-18.05859375,-8.73828125,1,0,0,0,0,0,22,1,,,,,,,,
,,,,,,,,,,,,,FF,,,,,,,,1.149,,,,,,,,,,,,,,,,,,,,,,5ecb57ce8473f06bc2a5060a,61036f361cbe328e09cf2633,2021-07-29_23h18.44.300,Simcolourproject_2stim_asymm_v5,2020.2.10,MacIntel,60,61025ae37ef11b136ea224fe,,,,,,,,,976,61.0625,21.484375,1,0,0,response1disk,,6,10.3984375,-2.01953125,1,0,0,rectangle,10.3984375,-2.01953125,1,0,0,10.3984375,-2.01953125,1,0,0,0,1,1,56,1,,,,,,,,
,,,,,,,,,,,,,FF,,,,,,,,1.1012,,,,,,,,,,,,,,,,,,,,,,5ecb57ce8473f06bc2a5060a,61036f361cbe328e09cf2633,2021-07-29_23h18.44.300,Simcolourproject_2stim_asymm_v5,2020.2.10,MacIntel,60,61025ae37ef11b136ea224fe,,,,,,,,,27,44.41015625,-62.28515625,1,0,0,response3disk,,4,1.03515625,1.78125,1,0,0,rectangle,1.03515625,1.78125,1,0,0,1.03515625,1.78125,1,0,0,0,2,2,122,1,,,,,,,,
,,,,,,,,,,,,,FF,,,,,,,,1.7501,,,,,,,,,,,,,,,,,,,,,,5ecb57ce8473f06bc2a5060a,61036f361cbe328e09cf2633,2021-07-29_23h18.44.300,Simcolourproject_2stim_asymm_v5,2020.2.10,MacIntel,60,61025ae37ef11b136ea224fe,,,,,,,,,2194,-34.06640625,-70,1,0,0,response5disk,,3,1.37890625,-1.390625,1,0,0,rectangle,1.37890625,-1.390625,1,0,0,1.37890625,-1.390625,1,0,0,0,3,3,150,1,,,,,,,,
,,,,,,,,,,,,,FF,,,,,,,,1.6677,,,,,,,,,,,,,,,,,,,,,,5ecb57ce8473f06bc2a5060a,61036f361cbe328e09cf2633,2021-07-29_23h18.44.300,Simcolourproject_2stim_asymm_v5,2020.2.10,MacIntel,60,61025ae37ef11b136ea224fe,,,,,,,,,1860,-59.55078125,-49.625,1,0,0,response5disk,,2,-7.8125,-1.27734375,1,0,0,rectangle,-7.8125,-1.27734375,1,0,0,-7.8125,-1.27734375,1,0,0,0,4,4,132,1,,,,,,,,
,,,,,,,,,,,,,FF,,,,,,,,1.5821,,,,,,,,,,,,,,,,,,,,,,5ecb57ce8473f06bc2a5060a,61036f361cbe328e09cf2633,2021-07-29_23h18.44.300,Simcolourproject_2stim_asymm_v5,2020.2.10,MacIntel,60,61025ae37ef11b136ea224fe,,,,,,,,,210,-70.84765625,20.734375,1,0,0,response7disk,,1,-3.95703125,0.94921875,1,0,0,rectangle,-3.95703125,0.94921875,1,0,0,-3.95703125,0.94921875,1,0,0,0,5,5,125,1,,,,,,,,
,,,,,,,,,,,,,FF,,,,,,,,1.6333,,,,,,,,,,,,,,,,,,,,,,5ecb57ce8473f06bc2a5060a,61036f361cbe328e09cf2633,2021-07-29_23h18.44.300,Simcolourproject_2stim_asymm_v5,2020.2.10,MacIntel,60,61025ae37ef11b136ea224fe,,,,,,,,,3350,69.08984375,-29.67578125,1,0,0,response3disk,,5,16.640625,0.6953125,1,0,0,rectangle,16.640625,0.6953125,1,0,0,16.640625,0.6953125,1,0,0,0,6,6,65,1,,,,,,,,
,,,,,,,,,,,,,FF,,,,,,,,1.1529,,,,,,,,,,,,,,,,,,,,,,5ecb57ce8473f06bc2a5060a,61036f361cbe328e09cf2633,2021-07-29_23h18.44.300,Simcolourproject_2stim_asymm_v5,2020.2.10,MacIntel,60,61025ae37ef11b136ea224fe,,,,,,,,,3472,66.1640625,-31.01171875,1,0,0,response3disk,,5,21.06640625,3.14453125,1,0,0,rectangle,21.06640625,3.14453125,1,0,0,21.06640625,3.14453125,1,0,0,0,7,7,64,1,,,,,,,,
,,,,,,,,,,,,,FF,,,,,,,,1.6346,,,,,,,,,,,,,,,,,,,,,,5ecb57ce8473f06bc2a5060a,61036f361cbe328e09cf2633,2021-07-29_23h18.44.300,Simcolourproject_2stim_asymm_v5,2020.2.10,MacIntel,60,61025ae37ef11b136ea224fe,,,,,,,,,931,-40.921875,46.8359375,1,0,0,response7disk,,0,-11.08203125,6.26953125,1,0,0,rectangle,-11.08203125,6.26953125,1,0,0,-11.08203125,6.26953125,1,0,0,0,8,8,29,1,,,,,,,,
,,,,,,,,,,,,,FF,,,,,,,,0.918,,,,,,,,,,,,,,,,,,,,,,5ecb57ce8473f06bc2a5060a,61036f361cbe328e09cf2633,2021-07-29_23h18.44.300,Simcolourproject_2stim_asymm_v5,2020.2.10,MacIntel,60,61025ae37ef11b136ea224fe,,,,,,,,,3888,-23.21484375,-48.09765625,1,0,0,response5disk,,3,-15.25390625,10.04296875,1,0,0,rectangle,-15.25390625,10.04296875,1,0,0,-15.25390625,10.04296875,1,0,0,0,9,9,63,1,,,,,,,,
,,,,,,,,,,,,,FF,,,,,,,,1.1174,,,,,,,,,,,,,,,,,,,,,,5ecb57ce8473f06bc2a5060a,61036f361cbe328e09cf2633,2021-07-29_23h18.44.300,Simcolourproject_2stim_asymm_v5,2020.2.10,MacIntel,60,61025ae37ef11b136ea224fe,,,,,,,,,2148,-38.80078125,56.5703125,1,0,0,response7disk,,0,-11.23046875,-0.2734375,1,0,0,rectangle,-11.23046875,-0.2734375,1,0,0,-11.23046875,-0.2734375,1,0,0,0,10,10,87,1,,,,,,,,
,,,,,,,,,,,,,FF,,,,,,,,2.1848,,,,,,,,,,,,,,,,,,,,,,5ecb57ce8473f06bc2a5060a,61036f361cbe328e09cf2633,2021-07-29_23h18.44.300,Simcolourproject_2stim_asymm_v5,2020.2.10,MacIntel,60,61025ae37ef11b136ea224fe,,,,,,,,,464,-30.015625,50.98828125,1,0,0,response7disk,,0,-20.4609375,10.84375,1,0,0,rectangle,-20.4609375,10.84375,1,0,0,-20.4609375,10.84375,1,0,0,0,11,11,79,1,,,,,,,,
,,,,,,,,,,,,,FF,,,,,,,,1.6342,,,,,,,,,,,,,,,,,,,,,,5ecb57ce8473f06bc2a5060a,61036f361cbe328e09cf2633,2021-07-29_23h18.44.300,Simcolourproject_2stim_asymm_v5,2020.2.10,MacIntel,60,61025ae37ef11b136ea224fe,,,,,,,,,2319,-39.1953125,45.05078125,1,0,0,response7disk,,0,-21.75390625,8.328125,1,0,0,rectangle,-21.75390625,8.328125,1,0,0,-21.75390625,8.328125,1,0,0,0,12,12,85,1,,,,,,,,
,,,,,,,,,,,,,FF,,,,,,,,1,,,,,,,,,,,,,,,,,,,,,,5ecb57ce8473f06bc2a5060a,61036f361cbe328e09cf2633,2021-07-29_23h18.44.300,Simcolourproject_2stim_asymm_v5,2020.2.10,MacIntel,60,61025ae37ef11b136ea224fe,,,,,,,,,3788,-14.97265625,-44.41796875,1,0,0,response5disk,,3,-14.97265625,-0.18359375,1,0,0,rectangle,-14.97265625,-0.18359375,1,0,0,-14.97265625,-0.18359375,1,0,0,0,13,13,133,1,,,,,,,,
,,,,,,,,,,,,,FF,,,,,,,,0.9849,,,,,,,,,,,,,,,,,,,,,,5ecb57ce8473f06bc2a5060a,61036f361cbe328e09cf2633,2021-07-29_23h18.44.300,Simcolourproject_2stim_asymm_v5,2020.2.10,MacIntel,60,61025ae37ef11b136ea224fe,,,,,,,,,2889,46.2265625,-57.69921875,1,0,0,response3disk,,4,23.3984375,-1.04296875,1,0,0,rectangle,23.3984375,-1.04296875,1,0,0,23.3984375,-1.04296875,1,0,0,0,14,14,144,1,,,,,,,,
,,,,,,,,,,,,,FF,,,,,,,,1.1813,,,,,,,,,,,,,,,,,,,,,,5ecb57ce8473f06bc2a5060a,61036f361cbe328e09cf2633,2021-07-29_23h18.44.300,Simcolourproject_2stim_asymm_v5,2020.2.10,MacIntel,60,61025ae37ef11b136ea224fe,,,,,,,,,62,-27.95703125,48.4140625,1,0,0,response7disk,,0,-11.59765625,9.19921875,1,0,0,rectangle,-11.59765625,9.19921875,1,0,0,-11.59765625,9.19921875,1,0,0,0,15,15,41,1,,,,,,,,
,,,,,,,,,,,,,FF,,,,,,,,1.3192,,,,,,,,,,,,,,,,,,,,,,5ecb57ce8473f06bc2a5060a,61036f361cbe328e09cf2633,2021-07-29_23h18.44.300,Simcolourproject_2stim_asymm_v5,2020.2.10,MacIntel,60,61025ae37ef11b136ea224fe,,,,,,,,,2655,-28.0703125,48.3125,1,0,0,response7disk,,0,-10.47265625,7.18359375,1,0,0,rectangle,-10.47265625,7.18359375,1,0,0,-10.47265625,7.18359375,1,0,0,0,16,16,19,1,,,,,,,,
,,,,,,,,,,,,,FF,,,,,,,,0.6838,,,,,,,,,,,,,,,,,,,,,,5ecb57ce8473f06bc2a5060a,61036f361cbe328e09cf2633,2021-07-29_23h18.44.300,Simcolourproject_2stim_asymm_v5,2020.2.10,MacIntel,60,61025ae37ef11b136ea224fe,,,,,,,,,2741,-27.31640625,54.66015625,1,0,0,response7disk,,0,-16.328125,10.4453125,1,0,0,rectangle,-16.328125,10.4453125,1,0,0,-16.328125,10.4453125,1,0,0,0,17,17,153,1,,,,,,,,
,,,,,,,,,,,,,FF,,,,,,,,0.8001,,,,,,,,,,,,,,,,,,,,,,5ecb57ce8473f06bc2a5060a,61036f361cbe328e09cf2633,2021-07-29_23h18.44.300,Simcolourproject_2stim_asymm_v5,2020.2.10,MacIntel,60,61025ae37ef11b136ea224fe,,,,,,,,,940,-34.89453125,74.89453125,1,0,0,response7disk,,0,-8.30078125,-5.390625,1,0,0,rectangle,-8.30078125,-5.390625,1,0,0,-8.30078125,-5.390625,1,0,0,0,18,18,137,1,,,,,,,,
,,,,,,,,,,,,,FF,,,,,,,,1.153,,,,,,,,,,,,,,,,,,,,,,5ecb57ce8473f06bc2a5060a,61036f361cbe328e09cf2633,2021-07-29_23h18.44.300,Simcolourproject_2stim_asymm_v5,2020.2.10,MacIntel,60,61025ae37ef11b136ea224fe,,,,,,,,,4104,-24.9609375,-50.2109375,1,0,0,response5disk,,3,-7.07421875,-6.43359375,1,0,0,rectangle,-7.07421875,-6.43359375,1,0,0,-7.07421875,-6.43359375,1,0,0,0,19,19,136,1,,,,,,,,
,,,,,,,,,,,,,FF,,,,,,,,1.1172,,,,,,,,,,,,,,,,,,,,,,5ecb57ce8473f06bc2a5060a,61036f361cbe328e09cf2633,2021-07-29_23h18.44.300,Simcolourproject_2stim_asymm_v5,2020.2.10,MacIntel,60,61025ae37ef11b136ea224fe,,,,,,,,,2602,-20.01953125,-67.8125,1,0,0,response5disk,,3,-0.42578125,4.8203125,1,0,0,rectangle,-0.42578125,4.8203125,1,0,0,-0.42578125,4.8203125,1,0,0,0,20,20,21,1,,,,,,,,
,,,,,,,,,,,,,FF,,,,,,,,1.0857,,,,,,,,,,,,,,,,,,,,,,5ecb57ce8473f06bc2a5060a,61036f361cbe328e09cf2633,2021-07-29_23h18.44.300,Simcolourproject_2stim_asymm_v5,2020.2.10,MacIntel,60,61025ae37ef11b136ea224fe,,,,,,,,,1443,-28.37109375,49.3359375,1,0,0,response7disk,,0,-27.625,-2.13671875,1,0,0,rectangle,-27.625,-2.13671875,1,0,0,-27.625,-2.13671875,1,0,0,0,21,21,61,1,,,,,,,,
,,,,,,,,,,,,,FF,,,,,,,,2.0831,,,,,,,,,,,,,,,,,,,,,,5ecb57ce8473f06bc2a5060a,61036f361cbe328e09cf2633,2021-07-29_23h18.44.300,Simcolourproject_2stim_asymm_v5,2020.2.10,MacIntel,60,61025ae37ef11b136ea224fe,,,,,,,,,2313,-39.91796875,-32.53125,1,0,0,response5disk,,2,-1.7421875,-1.39453125,1,0,0,rectangle,-1.7421875,-1.39453125,1,0,0,-1.7421875,-1.39453125,1,0,0,0,22,22,39,1,,,,,,,,
,,,,,,,,,,,,,FF,,,,,,,,35.7474,,,,,,,,,,,,,,,,,,,,,,5ecb57ce8473f06bc2a5060a,61036f361cbe328e09cf2633,2021-07-29_23h18.44.300,Simcolourproject_2stim_asymm_v5,2020.2.10,MacIntel,60,61025ae37ef11b136ea224fe,,,,,,,,,3693,-49.22265625,32.6796875,1,0,0,response7disk,,1,8.7265625,-4.95703125,1,0,0,rectangle,8.7265625,-4.95703125,1,0,0,8.7265625,-4.95703125,1,0,0,0,23,23,30,1,,,,,,,,
,,,,,,,,,,,,,FF,,,,,,,,0.8508,,,,,,,,,,,,,,,,,,,,,,5ecb57ce8473f06bc2a5060a,61036f361cbe328e09cf2633,2021-07-29_23h18.44.300,Simcolourproject_2stim_asymm_v5,2020.2.10,MacIntel,60,61025ae37ef11b136ea224fe,,,,,,,,,2150,32.640625,-44.23046875,1,0,0,response3disk,,4,17.22265625,-6.4296875,1,0,0,rectangle,93.77734375,57.90625,1,0,0,11.125,1.078125,1,0,0,0,24,24,127,1,,response1disk_3,TRUE,6,6,"[70,268,70,34,50,144,191,37,62,55,47,269,297,122,53,316,320,25,214,30]",3.2197,rectangle
,,,,,,,,,,,,,FF,,,,,,,,1.7823,,,,,,,,,,,,,,,,,,,,,,5ecb57ce8473f06bc2a5060a,61036f361cbe328e09cf2633,2021-07-29_23h18.44.300,Simcolourproject_2stim_asymm_v5,2020.2.10,MacIntel,60,61025ae37ef11b136ea224fe,,,,,,,,,1388,-91.81640625,38.3203125,1,0,0,response7disk,,1,25.17578125,-6.3203125,1,0,0,rectangle,25.17578125,-6.3203125,1,0,0,25.17578125,-6.3203125,1,0,0,0,25,25,10,1,,,,,,,,
,,,,,,,,,,,,,FF,,,,,,,,0.8013,,,,,,,,,,,,,,,,,,,,,,5ecb57ce8473f06bc2a5060a,61036f361cbe328e09cf2633,2021-07-29_23h18.44.300,Simcolourproject_2stim_asymm_v5,2020.2.10,MacIntel,60,61025ae37ef11b136ea224fe,,,,,,,,,2984,40.22265625,-54.14453125,1,0,0,response3disk,,4,-0.28515625,5.01953125,1,0,0,rectangle,-0.28515625,5.01953125,1,0,0,-0.28515625,5.01953125,1,0,0,0,26,26,146,1,,,,,,,,
,,,,,,,,,,,,,FF,,,,,,,,1.0352,,,,,,,,,,,,,,,,,,,,,,5ecb57ce8473f06bc2a5060a,61036f361cbe328e09cf2633,2021-07-29_23h18.44.300,Simcolourproject_2stim_asymm_v5,2020.2.10,MacIntel,60,61025ae37ef11b136ea224fe,,,,,,,,,2040,-35.61328125,-51.83203125,1,0,0,response5disk,,3,-21.2109375,0.75,1,0,0,rectangle,-21.2109375,0.75,1,0,0,-21.2109375,0.75,1,0,0,0,27,27,47,1,,,,,,,,
,,,,,,,,,,,,,FF,,,,,,,,0.8027,,,,,,,,,,,,,,,,,,,,,,5ecb57ce8473f06bc2a5060a,61036f361cbe328e09cf2633,2021-07-29_23h18.44.300,Simcolourproject_2stim_asymm_v5,2020.2.10,MacIntel,60,61025ae37ef11b136ea224fe,,,,,,,,,1828,49.51953125,-53.24609375,1,0,0,response3disk,,4,-2.7265625,-4.390625,1,0,0,rectangle,-2.7265625,-4.390625,1,0,0,-2.7265625,-4.390625,1,0,0,0,28,28,99,1,,,,,,,,
,,,,,,,,,,,,,FF,,,,,,,,0.9018,,,,,,,,,,,,,,,,,,,,,,5ecb57ce8473f06bc2a5060a,61036f361cbe328e09cf2633,2021-07-29_23h18.44.300,Simcolourproject_2stim_asymm_v5,2020.2.10,MacIntel,60,61025ae37ef11b136ea224fe,,,,,,,,,3413,-20.7890625,75.41796875,1,0,0,response7disk,,0,-0.234375,-2.42578125,1,0,0,rectangle,-87.03515625,36.2578125,1,0,0,-7.53515625,5.5234375,1,0,0,0,29,29,111,1,,response7disk_3,TRUE,1,1,"[70,268,70,34,50,144,191,37,62,55,47,269,297,122,53,316,320,25,214,30]",1.7176,rectangle
,,,,,,,,,,,,,FF,,,,,,,,1.7373,,,,,,,,,,,,,,,,,,,,,,5ecb57ce8473f06bc2a5060a,61036f361cbe328e09cf2633,2021-07-29_23h18.44.300,Simcolourproject_2stim_asymm_v5,2020.2.10,MacIntel,60,61025ae37ef11b136ea224fe,,,,,,,,,948,-63.62890625,-25.6171875,1,0,0,response5disk,,2,13.7109375,2.07421875,1,0,0,rectangle,13.7109375,2.07421875,1,0,0,13.7109375,2.07421875,1,0,0,0,30,30,107,1,,,,,,,,
,,,,,,,,,,,,,FF,,,,,,,,1.5501,,,,,,,,,,,,,,,,,,,,,,5ecb57ce8473f06bc2a5060a,61036f361cbe328e09cf2633,2021-07-29_23h18.44.300,Simcolourproject_2stim_asymm_v5,2020.2.10,MacIntel,60,61025ae37ef11b136ea224fe,,,,,,,,,4236,71.09375,52.50390625,1,0,0,response1disk,,6,24.5078125,-3.8671875,1,0,0,rectangle,24.5078125,-3.8671875,1,0,0,24.5078125,-3.8671875,1,0,0,0,31,31,12,1,,,,,,,,
,,,,,,,,,,,,,FF,,,,,,,,3.4202,,,,,,,,,,,,,,,,,,,,,,5ecb57ce8473f06bc2a5060a,61036f361cbe328e09cf2633,2021-07-29_23h18.44.300,Simcolourproject_2stim_asymm_v5,2020.2.10,MacIntel,60,61025ae37ef11b136ea224fe,,,,,,,,,2300,-65.390625,31.78125,1,0,0,response7disk,,1,-6.73828125,-4.11328125,1,0,0,rectangle,-6.73828125,-4.11328125,1,0,0,-6.73828125,-4.11328125,1,0,0,0,32,32,52,1,,,,,,,,
,,,,,,,,,,,,,FF,,,,,,,,0.852,,,,,,,,,,,,,,,,,,,,,,5ecb57ce8473f06bc2a5060a,61036f361cbe328e09cf2633,2021-07-29_23h18.44.300,Simcolourproject_2stim_asymm_v5,2020.2.10,MacIntel,60,61025ae37ef11b136ea224fe,,,,,,,,,2817,-24.703125,71.578125,1,0,0,response7disk,,0,11.328125,-5.7734375,1,0,0,rectangle,-59.20703125,-32.1328125,1,0,0,-12.9609375,-8.046875,1,0,0,0,33,33,142,1,,response5disk_3,TRUE,2,2,"[70,268,70,34,50,144,191,37,62,55,47,269,297,122,53,316,320,25,214,30]",6.6358,rectangle
,,,,,,,,,,,,,FF,,,,,,,,0.6504,,,,,,,,,,,,,,,,,,,,,,5ecb57ce8473f06bc2a5060a,61036f361cbe328e09cf2633,2021-07-29_23h18.44.300,Simcolourproject_2stim_asymm_v5,2020.2.10,MacIntel,60,61025ae37ef11b136ea224fe,,,,,,,,,1592,-42.5625,53.140625,1,0,0,response7disk,,0,-18.93359375,7.4609375,1,0,0,rectangle,-18.93359375,7.4609375,1,0,0,-18.93359375,7.4609375,1,0,0,0,34,34,149,1,,,,,,,,
,,,,,,,,,,,,,FF,,,,,,,,0.5365,,,,,,,,,,,,,,,,,,,,,,5ecb57ce8473f06bc2a5060a,61036f361cbe328e09cf2633,2021-07-29_23h18.44.300,Simcolourproject_2stim_asymm_v5,2020.2.10,MacIntel,60,61025ae37ef11b136ea224fe,,,,,,,,,4303,-41.3359375,54.07421875,1,0,0,response7disk,,0,-24.69921875,-3.5703125,1,0,0,rectangle,-24.69921875,-3.5703125,1,0,0,-24.69921875,-3.5703125,1,0,0,0,35,35,135,1,,,,,,,,
,,,,,,,,,,,,,FF,,,,,,,,0.733,,,,,,,,,,,,,,,,,,,,,,5ecb57ce8473f06bc2a5060a,61036f361cbe328e09cf2633,2021-07-29_23h18.44.300,Simcolourproject_2stim_asymm_v5,2020.2.10,MacIntel,60,61025ae37ef11b136ea224fe,,,,,,,,,822,-48.25,29.5078125,1,0,0,response7disk,,1,-16.3671875,-1.97265625,1,0,0,rectangle,53.44921875,74.97265625,1,0,0,-1.390625,-6.8203125,1,0,0,0,36,36,69,1,,response1disk_3,TRUE,7,7,"[70,268,70,34,50,144,191,37,62,55,47,269,297,122,53,316,320,25,214,30]",1.8172,rectangle
,,,,,,,,,,,,,FF,,,,,,,,0.7854,,,,,,,,,,,,,,,,,,,,,,5ecb57ce8473f06bc2a5060a,61036f361cbe328e09cf2633,2021-07-29_23h18.44.300,Simcolourproject_2stim_asymm_v5,2020.2.10,MacIntel,60,61025ae37ef11b136ea224fe,,,,,,,,,2266,-31.328125,82.91015625,1,0,0,response7disk,,0,5.05078125,-6.68359375,1,0,0,rectangle,5.05078125,-6.68359375,1,0,0,5.05078125,-6.68359375,1,0,0,0,37,37,32,1,,,,,,,,
,,,,,,,,,,,,,FF,,,,,,,,33.8642,,,,,,,,,,,,,,,,,,,,,,5ecb57ce8473f06bc2a5060a,61036f361cbe328e09cf2633,2021-07-29_23h18.44.300,Simcolourproject_2stim_asymm_v5,2020.2.10,MacIntel,60,61025ae37ef11b136ea224fe,,,,,,,,,2089,-78.78125,-21.83203125,1,0,0,response5disk,,2,-23.46875,-5.5859375,1,0,0,rectangle,-23.46875,-5.5859375,1,0,0,-23.46875,-5.5859375,1,0,0,0,38,38,102,1,,,,,,,,
,,,,,,,,,,,,,FF,,,,,,,,0.6835,,,,,,,,,,,,,,,,,,,,,,5ecb57ce8473f06bc2a5060a,61036f361cbe328e09cf2633,2021-07-29_23h18.44.300,Simcolourproject_2stim_asymm_v5,2020.2.10,MacIntel,60,61025ae37ef11b136ea224fe,,,,,,,,,2059,-26.515625,29.91796875,1,0,0,response7disk,,0,-17.1171875,-7.29296875,1,0,0,rectangle,-17.1171875,-7.29296875,1,0,0,-17.1171875,-7.29296875,1,0,0,0,39,39,82,1,,,,,,,,
,,,,,,,,,,,,,FF,,,,,,,,2.0671,,,,,,,,,,,,,,,,,,,,,,5ecb57ce8473f06bc2a5060a,61036f361cbe328e09cf2633,2021-07-29_23h18.44.300,Simcolourproject_2stim_asymm_v5,2020.2.10,MacIntel,60,61025ae37ef11b136ea224fe,,,,,,,,,843,-21.51171875,41.63671875,1,0,0,response7disk,,0,-17.51171875,-1.375,1,0,0,rectangle,-17.51171875,-1.375,1,0,0,-17.51171875,-1.375,1,0,0,0,40,40,51,1,,,,,,,,
,,,,,,,,,,,,,FF,,,,,,,,1.0997,,,,,,,,,,,,,,,,,,,,,,5ecb57ce8473f06bc2a5060a,61036f361cbe328e09cf2633,2021-07-29_23h18.44.300,Simcolourproject_2stim_asymm_v5,2020.2.10,MacIntel,60,61025ae37ef11b136ea224fe,,,,,,,,,1648,-25.97265625,32.71875,1,0,0,response7disk,,0,-16.94140625,-1.265625,1,0,0,rectangle,-16.94140625,-1.265625,1,0,0,-16.94140625,-1.265625,1,0,0,0,41,41,9,1,,,,,,,,
,,,,,,,,,,,,,FF,,,,,,,,1.0344,,,,,,,,,,,,,,,,,,,,,,5ecb57ce8473f06bc2a5060a,61036f361cbe328e09cf2633,2021-07-29_23h18.44.300,Simcolourproject_2stim_asymm_v5,2020.2.10,MacIntel,60,61025ae37ef11b136ea224fe,,,,,,,,,3714,-42.19140625,-69.22265625,1,0,0,response5disk,,3,-14.734375,-1.4921875,1,0,0,rectangle,-14.734375,-1.4921875,1,0,0,-14.734375,-1.4921875,1,0,0,0,42,42,31,1,,,,,,,,
,,,,,,,,,,,,,FF,,,,,,,,1.116,,,,,,,,,,,,,,,,,,,,,,5ecb57ce8473f06bc2a5060a,61036f361cbe328e09cf2633,2021-07-29_23h18.44.300,Simcolourproject_2stim_asymm_v5,2020.2.10,MacIntel,60,61025ae37ef11b136ea224fe,,,,,,,,,2746,27.265625,-61.46875,1,0,0,response3disk,,4,19.35546875,4.078125,1,0,0,rectangle,19.35546875,4.078125,1,0,0,19.35546875,4.078125,1,0,0,0,43,43,106,1,,,,,,,,
,,,,,,,,,,,,,FF,,,,,,,,0.7486,,,,,,,,,,,,,,,,,,,,,,5ecb57ce8473f06bc2a5060a,61036f361cbe328e09cf2633,2021-07-29_23h18.44.300,Simcolourproject_2stim_asymm_v5,2020.2.10,MacIntel,60,61025ae37ef11b136ea224fe,,,,,,,,,2457,-29.27734375,45.984375,1,0,0,response7disk,,0,-18.45703125,9.8828125,1,0,0,rectangle,-18.45703125,9.8828125,1,0,0,-18.45703125,9.8828125,1,0,0,0,44,44,44,1,,,,,,,,
,,,,,,,,,,,,,FF,,,,,,,,0.6185,,,,,,,,,,,,,,,,,,,,,,5ecb57ce8473f06bc2a5060a,61036f361cbe328e09cf2633,2021-07-29_23h18.44.300,Simcolourproject_2stim_asymm_v5,2020.2.10,MacIntel,60,61025ae37ef11b136ea224fe,,,,,,,,,436,-31.76953125,50.30859375,1,0,0,response7disk,,0,-19.18359375,9.109375,1,0,0,rectangle,-19.18359375,9.109375,1,0,0,-19.18359375,9.109375,1,0,0,0,45,45,2,1,,,,,,,,
,,,,,,,,,,,,,FF,,,,,,,,0.536,,,,,,,,,,,,,,,,,,,,,,5ecb57ce8473f06bc2a5060a,61036f361cbe328e09cf2633,2021-07-29_23h18.44.300,Simcolourproject_2stim_asymm_v5,2020.2.10,MacIntel,60,61025ae37ef11b136ea224fe,,,,,,,,,2405,-33.65234375,37.42578125,1,0,0,response7disk,,0,-20.91796875,-5.26171875,1,0,0,rectangle,25.84375,66.234375,1,0,0,21.12109375,6.90625,1,0,0,0,46,46,14,1,,response1disk_3,TRUE,7,7,"[70,268,70,34,50,144,191,37,62,55,47,269,297,122,53,316,320,25,214,30]",1.5855,rectangle
,,,,,,,,,,,,,FF,,,,,,,,1.5674,,,,,,,,,,,,,,,,,,,,,,5ecb57ce8473f06bc2a5060a,61036f361cbe328e09cf2633,2021-07-29_23h18.44.300,Simcolourproject_2stim_asymm_v5,2020.2.10,MacIntel,60,61025ae37ef11b136ea224fe,,,,,,,,,2402,-48.5234375,38.59765625,1,0,0,response7disk,,1,-12.19140625,11.23046875,1,0,0,rectangle,-12.19140625,11.23046875,1,0,0,-12.19140625,11.23046875,1,0,0,0,47,47,83,1,,,,,,,,
,,,,,,,,,,,,,FF,,,,,,,,1.351,,,,,,,,,,,,,,,,,,,,,,5ecb57ce8473f06bc2a5060a,61036f361cbe328e09cf2633,2021-07-29_23h18.44.300,Simcolourproject_2stim_asymm_v5,2020.2.10,MacIntel,60,61025ae37ef11b136ea224fe,,,,,,,,,162,69.01171875,71.70703125,1,0,0,response1disk,,7,8.56640625,10.8671875,1,0,0,rectangle,8.56640625,10.8671875,1,0,0,8.56640625,10.8671875,1,0,0,0,48,48,117,1,,,,,,,,
,,,,,,,,,,,,,FF,,,,,,,,0.7336,,,,,,,,,,,,,,,,,,,,,,5ecb57ce8473f06bc2a5060a,61036f361cbe328e09cf2633,2021-07-29_23h18.44.300,Simcolourproject_2stim_asymm_v5,2020.2.10,MacIntel,60,61025ae37ef11b136ea224fe,,,,,,,,,4161,47.171875,71.22265625,1,0,0,response1disk,,7,16.26953125,1.59375,1,0,0,rectangle,-43.74609375,107.0117188,1,0,0,-14.875,5.609375,1,0,0,0,49,49,80,1,,response7disk_3,TRUE,0,0,"[70,268,70,34,50,144,191,37,62,55,47,269,297,122,53,316,320,25,214,30]",1.4012,rectangle
,,,,,,,,,,,,,FF,,,,,,,,1.1528,,,,,,,,,,,,,,,,,,,,,,5ecb57ce8473f06bc2a5060a,61036f361cbe328e09cf2633,2021-07-29_23h18.44.300,Simcolourproject_2stim_asymm_v5,2020.2.10,MacIntel,60,61025ae37ef11b136ea224fe,,,,,,,,,2421,65.7890625,35.625,1,0,0,response1disk,,6,29.71484375,-3.609375,1,0,0,rectangle,29.71484375,-3.609375,1,0,0,29.71484375,-3.609375,1,0,0,0,50,50,98,1,,,,,,,,
,,,,,,,,,,,,,FF,,,,,,,,1.5321,,,,,,,,,,,,,,,,,,,,,,5ecb57ce8473f06bc2a5060a,61036f361cbe328e09cf2633,2021-07-29_23h18.44.300,Simcolourproject_2stim_asymm_v5,2020.2.10,MacIntel,60,61025ae37ef11b136ea224fe,,,,,,,,,2584,37,-62.63671875,1,0,0,response3disk,,4,16.8359375,-9.26953125,1,0,0,rectangle,16.8359375,-9.26953125,1,0,0,16.8359375,-9.26953125,1,0,0,0,51,51,24,1,,,,,,,,
,,,,,,,,,,,,,FF,,,,,,,,1.0339,,,,,,,,,,,,,,,,,,,,,,5ecb57ce8473f06bc2a5060a,61036f361cbe328e09cf2633,2021-07-29_23h18.44.300,Simcolourproject_2stim_asymm_v5,2020.2.10,MacIntel,60,61025ae37ef11b136ea224fe,,,,,,,,,4302,-20.0234375,45.8203125,1,0,0,response7disk,,0,-1.67578125,-1.45703125,1,0,0,rectangle,-58.45703125,-29.7734375,1,0,0,-10.0234375,1.3046875,1,0,0,0,52,52,93,1,,response5disk_3,TRUE,2,2,"[70,268,70,34,50,144,191,37,62,55,47,269,297,122,53,316,320,25,214,30]",1.7148,rectangle
,,,,,,,,,,,,,FF,,,,,,,,0.6983,,,,,,,,,,,,,,,,,,,,,,5ecb57ce8473f06bc2a5060a,61036f361cbe328e09cf2633,2021-07-29_23h18.44.300,Simcolourproject_2stim_asymm_v5,2020.2.10,MacIntel,60,61025ae37ef11b136ea224fe,,,,,,,,,882,-45.546875,56.60546875,1,0,0,response7disk,,0,-6.75,4.1796875,1,0,0,rectangle,-6.75,4.1796875,1,0,0,-6.75,4.1796875,1,0,0,0,53,53,73,1,,,,,,,,
,,,,,,,,,,,,,FF,,,,,,,,0.9505,,,,,,,,,,,,,,,,,,,,,,5ecb57ce8473f06bc2a5060a,61036f361cbe328e09cf2633,2021-07-29_23h18.44.300,Simcolourproject_2stim_asymm_v5,2020.2.10,MacIntel,60,61025ae37ef11b136ea224fe,,,,,,,,,1893,-24.27734375,-66.21484375,1,0,0,response5disk,,3,13.0078125,-3.765625,1,0,0,rectangle,-37.53515625,-66.83203125,1,0,0,-7.65625,-9.234375,1,0,0,0,54,54,66,1,,response5disk_3,TRUE,3,3,"[70,268,70,34,50,144,191,37,62,55,47,269,297,122,53,316,320,25,214,30]",1.3839,rectangle
,,,,,,,,,,,,,FF,,,,,,,,1.017,,,,,,,,,,,,,,,,,,,,,,5ecb57ce8473f06bc2a5060a,61036f361cbe328e09cf2633,2021-07-29_23h18.44.300,Simcolourproject_2stim_asymm_v5,2020.2.10,MacIntel,60,61025ae37ef11b136ea224fe,,,,,,,,,1329,-29.24609375,-56.89453125,1,0,0,response5disk,,3,-6.35546875,2.75,1,0,0,rectangle,-6.35546875,2.75,1,0,0,-6.35546875,2.75,1,0,0,0,55,55,143,1,,,,,,,,
,,,,,,,,,,,,,FF,,,,,,,,0.9176,,,,,,,,,,,,,,,,,,,,,,5ecb57ce8473f06bc2a5060a,61036f361cbe328e09cf2633,2021-07-29_23h18.44.300,Simcolourproject_2stim_asymm_v5,2020.2.10,MacIntel,60,61025ae37ef11b136ea224fe,,,,,,,,,299,23.203125,-63.44921875,1,0,0,response3disk,,4,7.5234375,-3.59375,1,0,0,rectangle,7.5234375,-3.59375,1,0,0,7.5234375,-3.59375,1,0,0,0,56,56,72,1,,,,,,,,
,,,,,,,,,,,,,FF,,,,,,,,1.1837,,,,,,,,,,,,,,,,,,,,,,5ecb57ce8473f06bc2a5060a,61036f361cbe328e09cf2633,2021-07-29_23h18.44.300,Simcolourproject_2stim_asymm_v5,2020.2.10,MacIntel,60,61025ae37ef11b136ea224fe,,,,,,,,,3302,-26.65234375,-56.6484375,1,0,0,response5disk,,3,-20.84375,-9.0703125,1,0,0,rectangle,-20.84375,-9.0703125,1,0,0,-20.84375,-9.0703125,1,0,0,0,57,57,1,1,,,,,,,,
,,,,,,,,,,,,,FF,,,,,,,,1.2012,,,,,,,,,,,,,,,,,,,,,,5ecb57ce8473f06bc2a5060a,61036f361cbe328e09cf2633,2021-07-29_23h18.44.300,Simcolourproject_2stim_asymm_v5,2020.2.10,MacIntel,60,61025ae37ef11b136ea224fe,,,,,,,,,1249,-37.64453125,23.84765625,1,0,0,response7disk,,1,-5.91015625,2.40234375,1,0,0,rectangle,-5.91015625,2.40234375,1,0,0,-5.91015625,2.40234375,1,0,0,0,58,58,16,1,,,,,,,,
,,,,,,,,,,,,,FF,,,,,,,,0.6536,,,,,,,,,,,,,,,,,,,,,,5ecb57ce8473f06bc2a5060a,61036f361cbe328e09cf2633,2021-07-29_23h18.44.300,Simcolourproject_2stim_asymm_v5,2020.2.10,MacIntel,60,61025ae37ef11b136ea224fe,,,,,,,,,2356,22.33203125,-39.87890625,1,0,0,response3disk,,4,19.53515625,-11.3828125,1,0,0,rectangle,19.53515625,-11.3828125,1,0,0,19.53515625,-11.3828125,1,0,0,0,59,59,37,1,,,,,,,,
,,,,,,,,,,,,,FF,,,,,,,,0.9474,,,,,,,,,,,,,,,,,,,,,,5ecb57ce8473f06bc2a5060a,61036f361cbe328e09cf2633,2021-07-29_23h18.44.300,Simcolourproject_2stim_asymm_v5,2020.2.10,MacIntel,60,61025ae37ef11b136ea224fe,,,,,,,,,2141,-28.05859375,45.1953125,1,0,0,response7disk,,0,-4.6484375,8.375,1,0,0,rectangle,-4.6484375,8.375,1,0,0,-4.6484375,8.375,1,0,0,0,60,60,152,1,,,,,,,,
,,,,,,,,,,,,,FF,,,,,,,,0.6018,,,,,,,,,,,,,,,,,,,,,,5ecb57ce8473f06bc2a5060a,61036f361cbe328e09cf2633,2021-07-29_23h18.44.300,Simcolourproject_2stim_asymm_v5,2020.2.10,MacIntel,60,61025ae37ef11b136ea224fe,,,,,,,,,1578,-19.33203125,30.23828125,1,0,0,response7disk,,0,-12.8671875,10.84375,1,0,0,rectangle,20.66015625,74.00390625,1,0,0,10.28515625,-7.58984375,1,0,0,0,61,61,57,1,,response1disk_3,TRUE,7,7,"[70,268,70,34,50,144,191,37,62,55,47,269,297,122,53,316,320,25,214,30]",2.1182,rectangle
,,,,,,,,,,,,,FF,,,,,,,,0.6989,,,,,,,,,,,,,,,,,,,,,,5ecb57ce8473f06bc2a5060a,61036f361cbe328e09cf2633,2021-07-29_23h18.44.300,Simcolourproject_2stim_asymm_v5,2020.2.10,MacIntel,60,61025ae37ef11b136ea224fe,,,,,,,,,2802,-39.30859375,-46.265625,1,0,0,response5disk,,3,-12.77734375,-3.3359375,1,0,0,rectangle,-12.77734375,-3.3359375,1,0,0,-12.77734375,-3.3359375,1,0,0,0,62,62,116,1,,,,,,,,
,,,,,,,,,,,,,FF,,,,,,,,1.0669,,,,,,,,,,,,,,,,,,,,,,5ecb57ce8473f06bc2a5060a,61036f361cbe328e09cf2633,2021-07-29_23h18.44.300,Simcolourproject_2stim_asymm_v5,2020.2.10,MacIntel,60,61025ae37ef11b136ea224fe,,,,,,,,,3290,60.3984375,47.1875,1,0,0,response1disk,,6,19.33984375,10.19921875,1,0,0,rectangle,19.33984375,10.19921875,1,0,0,19.33984375,10.19921875,1,0,0,0,63,63,109,1,,,,,,,,
,,,,,,,,,,,,,FF,,,,,,,,1.2204,,,,,,,,,,,,,,,,,,,,,,5ecb57ce8473f06bc2a5060a,61036f361cbe328e09cf2633,2021-07-29_23h18.44.300,Simcolourproject_2stim_asymm_v5,2020.2.10,MacIntel,60,61025ae37ef11b136ea224fe,,,,,,,,,1204,-22.3515625,-52.16796875,1,0,0,response5disk,,3,-4.6328125,-5.45703125,1,0,0,rectangle,-4.6328125,-5.45703125,1,0,0,-4.6328125,-5.45703125,1,0,0,0,64,64,138,1,,,,,,,,
,,,,,,,,,,,,,FF,,,,,,,,0.8169,,,,,,,,,,,,,,,,,,,,,,5ecb57ce8473f06bc2a5060a,61036f361cbe328e09cf2633,2021-07-29_23h18.44.300,Simcolourproject_2stim_asymm_v5,2020.2.10,MacIntel,60,61025ae37ef11b136ea224fe,,,,,,,,,573,-34.5859375,33.859375,1,0,0,response7disk,,1,-16.7890625,-1.90234375,1,0,0,rectangle,-16.7890625,-1.90234375,1,0,0,-16.7890625,-1.90234375,1,0,0,0,65,65,128,1,,,,,,,,
,,,,,,,,,,,,,FF,,,,,,,,0.7499,,,,,,,,,,,,,,,,,,,,,,5ecb57ce8473f06bc2a5060a,61036f361cbe328e09cf2633,2021-07-29_23h18.44.300,Simcolourproject_2stim_asymm_v5,2020.2.10,MacIntel,60,61025ae37ef11b136ea224fe,,,,,,,,,2278,-38,60.62890625,1,0,0,response7disk,,0,-23.140625,4.734375,1,0,0,rectangle,-23.140625,4.734375,1,0,0,-23.140625,4.734375,1,0,0,0,66,66,88,1,,,,,,,,
,,,,,,,,,,,,,FF,,,,,,,,1.0003,,,,,,,,,,,,,,,,,,,,,,5ecb57ce8473f06bc2a5060a,61036f361cbe328e09cf2633,2021-07-29_23h18.44.300,Simcolourproject_2stim_asymm_v5,2020.2.10,MacIntel,60,61025ae37ef11b136ea224fe,,,,,,,,,426,-35.6640625,-37.55078125,1,0,0,response5disk,,3,7.22265625,7.578125,1,0,0,rectangle,7.22265625,7.578125,1,0,0,7.22265625,7.578125,1,0,0,0,67,67,75,1,,,,,,,,
,,,,,,,,,,,,,FF,,,,,,,,1.6342,,,,,,,,,,,,,,,,,,,,,,5ecb57ce8473f06bc2a5060a,61036f361cbe328e09cf2633,2021-07-29_23h18.44.300,Simcolourproject_2stim_asymm_v5,2020.2.10,MacIntel,60,61025ae37ef11b136ea224fe,,,,,,,,,2620,41.59375,-47.6171875,1,0,0,response3disk,,4,5.4140625,0.3828125,1,0,0,rectangle,5.4140625,0.3828125,1,0,0,5.4140625,0.3828125,1,0,0,0,68,68,131,1,,,,,,,,
,,,,,,,,,,,,,FF,,,,,,,,1.2353,,,,,,,,,,,,,,,,,,,,,,5ecb57ce8473f06bc2a5060a,61036f361cbe328e09cf2633,2021-07-29_23h18.44.300,Simcolourproject_2stim_asymm_v5,2020.2.10,MacIntel,60,61025ae37ef11b136ea224fe,,,,,,,,,1005,16.5625,-42.96484375,1,0,0,response3disk,,4,3.98046875,-8.35546875,1,0,0,rectangle,70.53515625,28.60546875,1,0,0,3.26953125,6.421875,1,0,0,0,69,69,119,1,,response1disk_3,TRUE,6,6,"[70,268,70,34,50,144,191,37,62,55,47,269,297,122,53,316,320,25,214,30]",1.5734,rectangle
,,,,,,,,,,,,,FF,,,,,,,,1.1362,,,,,,,,,,,,,,,,,,,,,,5ecb57ce8473f06bc2a5060a,61036f361cbe328e09cf2633,2021-07-29_23h18.44.300,Simcolourproject_2stim_asymm_v5,2020.2.10,MacIntel,60,61025ae37ef11b136ea224fe,,,,,,,,,54,-40.82421875,48.96875,1,0,0,response7disk,,0,-17.9375,-1.85546875,1,0,0,rectangle,-17.9375,-1.85546875,1,0,0,-17.9375,-1.85546875,1,0,0,0,70,70,26,1,,,,,,,,
,,,,,,,,,,,,,FF,,,,,,,,0.6519,,,,,,,,,,,,,,,,,,,,,,5ecb57ce8473f06bc2a5060a,61036f361cbe328e09cf2633,2021-07-29_23h18.44.300,Simcolourproject_2stim_asymm_v5,2020.2.10,MacIntel,60,61025ae37ef11b136ea224fe,,,,,,,,,3048,84.8515625,-28.30859375,1,0,0,response3disk,,5,-8.796875,1.64453125,1,0,0,rectangle,-8.796875,1.64453125,1,0,0,-8.796875,1.64453125,1,0,0,0,71,71,11,1,,,,,,,,
,,,,,,,,,,,,,FF,,,,,,,,0.8493,,,,,,,,,,,,,,,,,,,,,,5ecb57ce8473f06bc2a5060a,61036f361cbe328e09cf2633,2021-07-29_23h18.44.300,Simcolourproject_2stim_asymm_v5,2020.2.10,MacIntel,60,61025ae37ef11b136ea224fe,,,,,,,,,4098,62.234375,-32.75,1,0,0,response3disk,,5,16.41015625,3.5078125,1,0,0,rectangle,16.41015625,3.5078125,1,0,0,16.41015625,3.5078125,1,0,0,0,72,72,89,1,,,,,,,,
,,,,,,,,,,,,,FF,,,,,,,,1.35,,,,,,,,,,,,,,,,,,,,,,5ecb57ce8473f06bc2a5060a,61036f361cbe328e09cf2633,2021-07-29_23h18.44.300,Simcolourproject_2stim_asymm_v5,2020.2.10,MacIntel,60,61025ae37ef11b136ea224fe,,,,,,,,,563,77.6328125,-44.953125,1,0,0,response3disk,,5,29.09765625,-6.83203125,1,0,0,rectangle,29.09765625,-6.83203125,1,0,0,29.09765625,-6.83203125,1,0,0,0,73,73,28,1,,,,,,,,
,,,,,,,,,,,,,FF,,,,,,,,0.9173,,,,,,,,,,,,,,,,,,,,,,5ecb57ce8473f06bc2a5060a,61036f361cbe328e09cf2633,2021-07-29_23h18.44.300,Simcolourproject_2stim_asymm_v5,2020.2.10,MacIntel,60,61025ae37ef11b136ea224fe,,,,,,,,,1081,-32.89453125,51.2109375,1,0,0,response7disk,,0,-9.5625,-0.12890625,1,0,0,rectangle,-9.5625,-0.12890625,1,0,0,-9.5625,-0.12890625,1,0,0,0,74,74,70,1,,,,,,,,
,,,,,,,,,,,,,FF,,,,,,,,0.7342,,,,,,,,,,,,,,,,,,,,,,5ecb57ce8473f06bc2a5060a,61036f361cbe328e09cf2633,2021-07-29_23h18.44.300,Simcolourproject_2stim_asymm_v5,2020.2.10,MacIntel,60,61025ae37ef11b136ea224fe,,,,,,,,,3426,46.9375,78.89453125,1,0,0,response1disk,,7,-5.1328125,-3.2578125,1,0,0,rectangle,-5.1328125,-3.2578125,1,0,0,-5.1328125,-3.2578125,1,0,0,0,75,75,71,1,,,,,,,,
,,,,,,,,,,,,,FF,,,,,,,,1.3811,,,,,,,,,,,,,,,,,,,,,,5ecb57ce8473f06bc2a5060a,61036f361cbe328e09cf2633,2021-07-29_23h18.44.300,Simcolourproject_2stim_asymm_v5,2020.2.10,MacIntel,60,61025ae37ef11b136ea224fe,,,,,,,,,4013,-47.09765625,-24.47265625,1,0,0,response5disk,,2,-14.33984375,2.015625,1,0,0,rectangle,-14.33984375,2.015625,1,0,0,-14.33984375,2.015625,1,0,0,0,76,76,33,1,,,,,,,,
,,,,,,,,,,,,,FF,,,,,,,,0.8508,,,,,,,,,,,,,,,,,,,,,,5ecb57ce8473f06bc2a5060a,61036f361cbe328e09cf2633,2021-07-29_23h18.44.300,Simcolourproject_2stim_asymm_v5,2020.2.10,MacIntel,60,61025ae37ef11b136ea224fe,,,,,,,,,768,-36.1953125,25.7578125,1,0,0,response7disk,,1,-13.19140625,-7.30859375,1,0,0,rectangle,-13.19140625,-7.30859375,1,0,0,-13.19140625,-7.30859375,1,0,0,0,77,77,18,1,,,,,,,,
,,,,,,,,,,,,,FF,,,,,,,,0.7175,,,,,,,,,,,,,,,,,,,,,,5ecb57ce8473f06bc2a5060a,61036f361cbe328e09cf2633,2021-07-29_23h18.44.300,Simcolourproject_2stim_asymm_v5,2020.2.10,MacIntel,60,61025ae37ef11b136ea224fe,,,,,,,,,1944,-22.23828125,29.765625,1,0,0,response7disk,,0,-10.59375,-0.87890625,1,0,0,rectangle,-10.59375,-0.87890625,1,0,0,-10.59375,-0.87890625,1,0,0,0,78,78,17,1,,,,,,,,
,,,,,,,,,,,,,FF,,,,,,,,1.801,,,,,,,,,,,,,,,,,,,,,,5ecb57ce8473f06bc2a5060a,61036f361cbe328e09cf2633,2021-07-29_23h18.44.300,Simcolourproject_2stim_asymm_v5,2020.2.10,MacIntel,60,61025ae37ef11b136ea224fe,,,,,,,,,3746,87.94921875,15.8828125,1,0,0,response1disk,,6,14.47265625,-1.37890625,1,0,0,rectangle,14.47265625,-1.37890625,1,0,0,14.47265625,-1.37890625,1,0,0,0,79,79,13,1,,,,,,,,
,,,,,,,,,,,,,FF,,,,,,,,1.0497,,,,,,,,,,,,,,,,,,,,,,5ecb57ce8473f06bc2a5060a,61036f361cbe328e09cf2633,2021-07-29_23h18.44.300,Simcolourproject_2stim_asymm_v5,2020.2.10,MacIntel,60,61025ae37ef11b136ea224fe,,,,,,,,,2187,35.46875,-67.12890625,1,0,0,response3disk,,4,29.6640625,4.25,1,0,0,rectangle,29.6640625,4.25,1,0,0,29.6640625,4.25,1,0,0,0,80,80,141,1,,,,,,,,
,,,,,,,,,,,,,FF,,,,,,,,0.7832,,,,,,,,,,,,,,,,,,,,,,5ecb57ce8473f06bc2a5060a,61036f361cbe328e09cf2633,2021-07-29_23h18.44.300,Simcolourproject_2stim_asymm_v5,2020.2.10,MacIntel,60,61025ae37ef11b136ea224fe,,,,,,,,,2265,-21.6796875,35.90625,1,0,0,response7disk,,0,-15.140625,-4.4765625,1,0,0,rectangle,-15.140625,-4.4765625,1,0,0,-15.140625,-4.4765625,1,0,0,0,81,81,42,1,,,,,,,,
,,,,,,,,,,,,,FF,,,,,,,,1.3184,,,,,,,,,,,,,,,,,,,,,,5ecb57ce8473f06bc2a5060a,61036f361cbe328e09cf2633,2021-07-29_23h18.44.300,Simcolourproject_2stim_asymm_v5,2020.2.10,MacIntel,60,61025ae37ef11b136ea224fe,,,,,,,,,2600,-25.37109375,57.4609375,1,0,0,response7disk,,0,-25.1328125,-2.2578125,1,0,0,rectangle,-25.1328125,-2.2578125,1,0,0,-25.1328125,-2.2578125,1,0,0,0,82,82,3,1,,,,,,,,
,,,,,,,,,,,,,FF,,,,,,,,0.9355,,,,,,,,,,,,,,,,,,,,,,5ecb57ce8473f06bc2a5060a,61036f361cbe328e09cf2633,2021-07-29_23h18.44.300,Simcolourproject_2stim_asymm_v5,2020.2.10,MacIntel,60,61025ae37ef11b136ea224fe,,,,,,,,,609,-28.53125,-37.2578125,1,0,0,response5disk,,3,-8.609375,-10.7265625,1,0,0,rectangle,-8.609375,-10.7265625,1,0,0,-8.609375,-10.7265625,1,0,0,0,83,83,105,1,,,,,,,,
,,,,,,,,,,,,,FF,,,,,,,,1.083,,,,,,,,,,,,,,,,,,,,,,5ecb57ce8473f06bc2a5060a,61036f361cbe328e09cf2633,2021-07-29_23h18.44.300,Simcolourproject_2stim_asymm_v5,2020.2.10,MacIntel,60,61025ae37ef11b136ea224fe,,,,,,,,,994,-36.3984375,29.03125,1,0,0,response7disk,,1,-18.38671875,-0.203125,1,0,0,rectangle,-18.38671875,-0.203125,1,0,0,-18.38671875,-0.203125,1,0,0,0,84,84,49,1,,,,,,,,
,,,,,,,,,,,,,FF,,,,,,,,1.8859,,,,,,,,,,,,,,,,,,,,,,5ecb57ce8473f06bc2a5060a,61036f361cbe328e09cf2633,2021-07-29_23h18.44.300,Simcolourproject_2stim_asymm_v5,2020.2.10,MacIntel,60,61025ae37ef11b136ea224fe,,,,,,,,,2460,-15.70703125,-39.83984375,1,0,0,response5disk,,3,4.22265625,-6.16015625,1,0,0,rectangle,4.22265625,-6.16015625,1,0,0,4.22265625,-6.16015625,1,0,0,0,85,85,92,1,,,,,,,,
,,,,,,,,,,,,,FF,,,,,,,,0.7671,,,,,,,,,,,,,,,,,,,,,,5ecb57ce8473f06bc2a5060a,61036f361cbe328e09cf2633,2021-07-29_23h18.44.300,Simcolourproject_2stim_asymm_v5,2020.2.10,MacIntel,60,61025ae37ef11b136ea224fe,,,,,,,,,2771,-24.25390625,55.12890625,1,0,0,response7disk,,0,-19.04296875,3.52734375,1,0,0,rectangle,-19.04296875,3.52734375,1,0,0,-19.04296875,3.52734375,1,0,0,0,86,86,118,1,,,,,,,,
,,,,,,,,,,,,,FF,,,,,,,,1.4849,,,,,,,,,,,,,,,,,,,,,,5ecb57ce8473f06bc2a5060a,61036f361cbe328e09cf2633,2021-07-29_23h18.44.300,Simcolourproject_2stim_asymm_v5,2020.2.10,MacIntel,60,61025ae37ef11b136ea224fe,,,,,,,,,3420,-33.203125,-30.30859375,1,0,0,response5disk,,2,-0.34765625,-0.2265625,1,0,0,rectangle,-0.34765625,-0.2265625,1,0,0,-0.34765625,-0.2265625,1,0,0,0,87,87,147,1,,,,,,,,
,,,,,,,,,,,,,FF,,,,,,,,1.0215,,,,,,,,,,,,,,,,,,,,,,5ecb57ce8473f06bc2a5060a,61036f361cbe328e09cf2633,2021-07-29_23h18.44.300,Simcolourproject_2stim_asymm_v5,2020.2.10,MacIntel,60,61025ae37ef11b136ea224fe,,,,,,,,,2711,-19.09375,-59.26171875,1,0,0,response5disk,,3,8.10546875,-4.58203125,1,0,0,rectangle,8.10546875,-4.58203125,1,0,0,8.10546875,-4.58203125,1,0,0,0,88,88,60,1,,,,,,,,
,,,,,,,,,,,,,FF,,,,,,,,0.684,,,,,,,,,,,,,,,,,,,,,,5ecb57ce8473f06bc2a5060a,61036f361cbe328e09cf2633,2021-07-29_23h18.44.300,Simcolourproject_2stim_asymm_v5,2020.2.10,MacIntel,60,61025ae37ef11b136ea224fe,,,,,,,,,2632,-19.46875,39.13671875,1,0,0,response7disk,,0,-15.93359375,-3.14453125,1,0,0,rectangle,-15.93359375,-3.14453125,1,0,0,-15.93359375,-3.14453125,1,0,0,0,89,89,145,1,,,,,,,,
,,,,,,,,,,,,,FF,,,,,,,,0.7183,,,,,,,,,,,,,,,,,,,,,,5ecb57ce8473f06bc2a5060a,61036f361cbe328e09cf2633,2021-07-29_23h18.44.300,Simcolourproject_2stim_asymm_v5,2020.2.10,MacIntel,60,61025ae37ef11b136ea224fe,,,,,,,,,1740,-26.96875,24.88671875,1,0,0,response7disk,,1,-19.51953125,2.61328125,1,0,0,rectangle,-19.51953125,2.61328125,1,0,0,-19.51953125,2.61328125,1,0,0,0,90,90,68,1,,,,,,,,
,,,,,,,,,,,,,FF,,,,,,,,1.2501,,,,,,,,,,,,,,,,,,,,,,5ecb57ce8473f06bc2a5060a,61036f361cbe328e09cf2633,2021-07-29_23h18.44.300,Simcolourproject_2stim_asymm_v5,2020.2.10,MacIntel,60,61025ae37ef11b136ea224fe,,,,,,,,,1718,26.76171875,-38.16796875,1,0,0,response3disk,,4,17.75390625,-6.39453125,1,0,0,rectangle,17.75390625,-6.39453125,1,0,0,17.75390625,-6.39453125,1,0,0,0,91,91,46,1,,,,,,,,
,,,,,,,,,,,,,FF,,,,,,,,1.7488,,,,,,,,,,,,,,,,,,,,,,5ecb57ce8473f06bc2a5060a,61036f361cbe328e09cf2633,2021-07-29_23h18.44.300,Simcolourproject_2stim_asymm_v5,2020.2.10,MacIntel,60,61025ae37ef11b136ea224fe,,,,,,,,,3538,-37.10546875,71.77734375,1,0,0,response7disk,,0,-5.2890625,8.640625,1,0,0,rectangle,-5.2890625,8.640625,1,0,0,-5.2890625,8.640625,1,0,0,0,92,92,124,1,,,,,,,,
,,,,,,,,,,,,,FF,,,,,,,,1.0543,,,,,,,,,,,,,,,,,,,,,,5ecb57ce8473f06bc2a5060a,61036f361cbe328e09cf2633,2021-07-29_23h18.44.300,Simcolourproject_2stim_asymm_v5,2020.2.10,MacIntel,60,61025ae37ef11b136ea224fe,,,,,,,,,2949,29.63671875,-29.7109375,1,0,0,response3disk,,4,4.98046875,8.05078125,1,0,0,rectangle,4.98046875,8.05078125,1,0,0,4.98046875,8.05078125,1,0,0,0,93,93,84,1,,,,,,,,
,,,,,,,,,,,,,FF,,,,,,,,1.35,,,,,,,,,,,,,,,,,,,,,,5ecb57ce8473f06bc2a5060a,61036f361cbe328e09cf2633,2021-07-29_23h18.44.300,Simcolourproject_2stim_asymm_v5,2020.2.10,MacIntel,60,61025ae37ef11b136ea224fe,,,,,,,,,2329,-14.5234375,47.2890625,1,0,0,response7disk,,0,0.171875,9.00390625,1,0,0,rectangle,0.171875,9.00390625,1,0,0,0.171875,9.00390625,1,0,0,0,94,94,74,1,,,,,,,,
,,,,,,,,,,,,,FF,,,,,,,,0.7844,,,,,,,,,,,,,,,,,,,,,,5ecb57ce8473f06bc2a5060a,61036f361cbe328e09cf2633,2021-07-29_23h18.44.300,Simcolourproject_2stim_asymm_v5,2020.2.10,MacIntel,60,61025ae37ef11b136ea224fe,,,,,,,,,4117,-18.734375,42.23828125,1,0,0,response7disk,,0,-14.32421875,7.52734375,1,0,0,rectangle,-14.32421875,7.52734375,1,0,0,-14.32421875,7.52734375,1,0,0,0,95,95,43,1,,,,,,,,
,,,,,,,,,,,,,FF,,,,,,,,0.8671,,,,,,,,,,,,,,,,,,,,,,5ecb57ce8473f06bc2a5060a,61036f361cbe328e09cf2633,2021-07-29_23h18.44.300,Simcolourproject_2stim_asymm_v5,2020.2.10,MacIntel,60,61025ae37ef11b136ea224fe,,,,,,,,,1541,-24.03125,44.92578125,1,0,0,response7disk,,0,-19.65625,3.3125,1,0,0,rectangle,-19.65625,3.3125,1,0,0,-19.65625,3.3125,1,0,0,0,96,96,15,1,,,,,,,,
,,,,,,,,,,,,,FF,,,,,,,,0.8856,,,,,,,,,,,,,,,,,,,,,,5ecb57ce8473f06bc2a5060a,61036f361cbe328e09cf2633,2021-07-29_23h18.44.300,Simcolourproject_2stim_asymm_v5,2020.2.10,MacIntel,60,61025ae37ef11b136ea224fe,,,,,,,,,1177,-24.83984375,38.3046875,1,0,0,response7disk,,0,-20.25,11.1796875,1,0,0,rectangle,-20.25,11.1796875,1,0,0,-20.25,11.1796875,1,0,0,0,97,97,114,1,,,,,,,,
,,,,,,,,,,,,,FF,,,,,,,,0.8521,,,,,,,,,,,,,,,,,,,,,,5ecb57ce8473f06bc2a5060a,61036f361cbe328e09cf2633,2021-07-29_23h18.44.300,Simcolourproject_2stim_asymm_v5,2020.2.10,MacIntel,60,61025ae37ef11b136ea224fe,,,,,,,,,44,-34.58203125,-60.62109375,1,0,0,response5disk,,3,-19.30078125,-8.734375,1,0,0,rectangle,-19.30078125,-8.734375,1,0,0,-19.30078125,-8.734375,1,0,0,0,98,98,97,1,,,,,,,,
,,,,,,,,,,,,,FF,,,,,,,,1.2315,,,,,,,,,,,,,,,,,,,,,,5ecb57ce8473f06bc2a5060a,61036f361cbe328e09cf2633,2021-07-29_23h18.44.300,Simcolourproject_2stim_asymm_v5,2020.2.10,MacIntel,60,61025ae37ef11b136ea224fe,,,,,,,,,70,62.46484375,97.51171875,1,0,0,response1disk,,7,11.6015625,8.51171875,1,0,0,rectangle,11.6015625,8.51171875,1,0,0,11.6015625,8.51171875,1,0,0,0,99,99,115,1,,,,,,,,
,,,,,,,,,,,,,FF,,,,,,,,0.9854,,,,,,,,,,,,,,,,,,,,,,5ecb57ce8473f06bc2a5060a,61036f361cbe328e09cf2633,2021-07-29_23h18.44.300,Simcolourproject_2stim_asymm_v5,2020.2.10,MacIntel,60,61025ae37ef11b136ea224fe,,,,,,,,,3598,81.90234375,52.5703125,1,0,0,response1disk,,6,25.921875,3.3671875,1,0,0,rectangle,25.921875,3.3671875,1,0,0,25.921875,3.3671875,1,0,0,0,100,100,155,1,,,,,,,,
,,,,,,,,,,,,,FF,,,,,,,,0.883,,,,,,,,,,,,,,,,,,,,,,5ecb57ce8473f06bc2a5060a,61036f361cbe328e09cf2633,2021-07-29_23h18.44.300,Simcolourproject_2stim_asymm_v5,2020.2.10,MacIntel,60,61025ae37ef11b136ea224fe,,,,,,,,,544,45.84765625,-26.47265625,1,0,0,response3disk,,5,10.26171875,7.2578125,1,0,0,rectangle,10.26171875,7.2578125,1,0,0,10.26171875,7.2578125,1,0,0,0,101,101,0,1,,,,,,,,
,,,,,,,,,,,,,FF,,,,,,,,1.1912,,,,,,,,,,,,,,,,,,,,,,5ecb57ce8473f06bc2a5060a,61036f361cbe328e09cf2633,2021-07-29_23h18.44.300,Simcolourproject_2stim_asymm_v5,2020.2.10,MacIntel,60,61025ae37ef11b136ea224fe,,,,,,,,,784,30.140625,-56.70703125,1,0,0,response3disk,,4,12.0703125,3.22265625,1,0,0,rectangle,12.0703125,3.22265625,1,0,0,12.0703125,3.22265625,1,0,0,0,102,102,36,1,,,,,,,,
,,,,,,,,,,,,,FF,,,,,,,,0.898,,,,,,,,,,,,,,,,,,,,,,5ecb57ce8473f06bc2a5060a,61036f361cbe328e09cf2633,2021-07-29_23h18.44.300,Simcolourproject_2stim_asymm_v5,2020.2.10,MacIntel,60,61025ae37ef11b136ea224fe,,,,,,,,,1185,-22.9765625,-52.85546875,1,0,0,response5disk,,3,8.71875,0.40234375,1,0,0,rectangle,8.71875,0.40234375,1,0,0,8.71875,0.40234375,1,0,0,0,103,103,104,1,,,,,,,,
,,,,,,,,,,,,,FF,,,,,,,,1.2191,,,,,,,,,,,,,,,,,,,,,,5ecb57ce8473f06bc2a5060a,61036f361cbe328e09cf2633,2021-07-29_23h18.44.300,Simcolourproject_2stim_asymm_v5,2020.2.10,MacIntel,60,61025ae37ef11b136ea224fe,,,,,,,,,4354,-29.26953125,62.984375,1,0,0,response7disk,,0,-3.0546875,-9.62109375,1,0,0,rectangle,-3.0546875,-9.62109375,1,0,0,-3.0546875,-9.62109375,1,0,0,0,104,104,86,1,,,,,,,,
,,,,,,,,,,,,,FF,,,,,,,,1.0352,,,,,,,,,,,,,,,,,,,,,,5ecb57ce8473f06bc2a5060a,61036f361cbe328e09cf2633,2021-07-29_23h18.44.300,Simcolourproject_2stim_asymm_v5,2020.2.10,MacIntel,60,61025ae37ef11b136ea224fe,,,,,,,,,3411,-51.34375,35.42578125,1,0,0,response7disk,,1,-16.20703125,-8.390625,1,0,0,rectangle,-16.20703125,-8.390625,1,0,0,-16.20703125,-8.390625,1,0,0,0,105,105,6,1,,,,,,,,
,,,,,,,,,,,,,FF,,,,,,,,1.2354,,,,,,,,,,,,,,,,,,,,,,5ecb57ce8473f06bc2a5060a,61036f361cbe328e09cf2633,2021-07-29_23h18.44.300,Simcolourproject_2stim_asymm_v5,2020.2.10,MacIntel,60,61025ae37ef11b136ea224fe,,,,,,,,,300,-23.71484375,48.2890625,1,0,0,response7disk,,0,-23.71484375,-1.61328125,1,0,0,rectangle,-23.71484375,-1.61328125,1,0,0,-23.71484375,-1.61328125,1,0,0,0,106,106,5,1,,,,,,,,
,,,,,,,,,,,,,FF,,,,,,,,0.8518,,,,,,,,,,,,,,,,,,,,,,5ecb57ce8473f06bc2a5060a,61036f361cbe328e09cf2633,2021-07-29_23h18.44.300,Simcolourproject_2stim_asymm_v5,2020.2.10,MacIntel,60,61025ae37ef11b136ea224fe,,,,,,,,,3439,-24.20703125,-26.34375,1,0,0,response5disk,,3,-16.890625,3.48046875,1,0,0,rectangle,-16.890625,3.48046875,1,0,0,-16.890625,3.48046875,1,0,0,0,107,107,23,1,,,,,,,,
,,,,,,,,,,,,,FF,,,,,,,,0.6323,,,,,,,,,,,,,,,,,,,,,,5ecb57ce8473f06bc2a5060a,61036f361cbe328e09cf2633,2021-07-29_23h18.44.300,Simcolourproject_2stim_asymm_v5,2020.2.10,MacIntel,60,61025ae37ef11b136ea224fe,,,,,,,,,2069,-25.7265625,55.046875,1,0,0,response7disk,,0,-17.5,4.36328125,1,0,0,rectangle,-17.5,4.36328125,1,0,0,-17.5,4.36328125,1,0,0,0,108,108,91,1,,,,,,,,
,,,,,,,,,,,,,FF,,,,,,,,0.8352,,,,,,,,,,,,,,,,,,,,,,5ecb57ce8473f06bc2a5060a,61036f361cbe328e09cf2633,2021-07-29_23h18.44.300,Simcolourproject_2stim_asymm_v5,2020.2.10,MacIntel,60,61025ae37ef11b136ea224fe,,,,,,,,,3767,-36.02734375,37.58984375,1,0,0,response7disk,,0,-22.7734375,-8.4765625,1,0,0,rectangle,-22.7734375,-8.4765625,1,0,0,-22.7734375,-8.4765625,1,0,0,0,109,109,94,1,,,,,,,,
,,,,,,,,,,,,,FF,,,,,,,,0.7508,,,,,,,,,,,,,,,,,,,,,,5ecb57ce8473f06bc2a5060a,61036f361cbe328e09cf2633,2021-07-29_23h18.44.300,Simcolourproject_2stim_asymm_v5,2020.2.10,MacIntel,60,61025ae37ef11b136ea224fe,,,,,,,,,1483,-23.9921875,42.03515625,1,0,0,response7disk,,0,-23.9921875,2.00390625,1,0,0,rectangle,-23.9921875,2.00390625,1,0,0,-23.9921875,2.00390625,1,0,0,0,110,110,113,1,,,,,,,,
,,,,,,,,,,,,,FF,,,,,,,,2.0501,,,,,,,,,,,,,,,,,,,,,,5ecb57ce8473f06bc2a5060a,61036f361cbe328e09cf2633,2021-07-29_23h18.44.300,Simcolourproject_2stim_asymm_v5,2020.2.10,MacIntel,60,61025ae37ef11b136ea224fe,,,,,,,,,1033,-25.98046875,44.7421875,1,0,0,response7disk,,0,-25.98046875,2.04296875,1,0,0,rectangle,-25.98046875,2.04296875,1,0,0,-25.98046875,2.04296875,1,0,0,0,111,111,45,1,,,,,,,,
,,,,,,,,,,,,,FF,,,,,,,,1.2031,,,,,,,,,,,,,,,,,,,,,,5ecb57ce8473f06bc2a5060a,61036f361cbe328e09cf2633,2021-07-29_23h18.44.300,Simcolourproject_2stim_asymm_v5,2020.2.10,MacIntel,60,61025ae37ef11b136ea224fe,,,,,,,,,3422,41.71484375,72.421875,1,0,0,response1disk,,7,-6.3125,6.39453125,1,0,0,rectangle,-6.3125,6.39453125,1,0,0,-6.3125,6.39453125,1,0,0,0,112,112,50,1,,,,,,,,
,,,,,,,,,,,,,FF,,,,,,,,0.7504,,,,,,,,,,,,,,,,,,,,,,5ecb57ce8473f06bc2a5060a,61036f361cbe328e09cf2633,2021-07-29_23h18.44.300,Simcolourproject_2stim_asymm_v5,2020.2.10,MacIntel,60,61025ae37ef11b136ea224fe,,,,,,,,,1,51.13671875,74.4375,1,0,0,response1disk,,7,2.24609375,6.546875,1,0,0,rectangle,2.24609375,6.546875,1,0,0,2.24609375,6.546875,1,0,0,0,113,113,59,1,,,,,,,,
,,,,,,,,,,,,,FF,,,,,,,,0.6518,,,,,,,,,,,,,,,,,,,,,,5ecb57ce8473f06bc2a5060a,61036f361cbe328e09cf2633,2021-07-29_23h18.44.300,Simcolourproject_2stim_asymm_v5,2020.2.10,MacIntel,60,61025ae37ef11b136ea224fe,,,,,,,,,1858,-19.5859375,54.17578125,1,0,0,response7disk,,0,-9.51953125,-9.70703125,1,0,0,rectangle,-9.51953125,-9.70703125,1,0,0,-9.51953125,-9.70703125,1,0,0,0,114,114,81,1,,,,,,,,
,,,,,,,,,,,,,FF,,,,,,,,1.2833,,,,,,,,,,,,,,,,,,,,,,5ecb57ce8473f06bc2a5060a,61036f361cbe328e09cf2633,2021-07-29_23h18.44.300,Simcolourproject_2stim_asymm_v5,2020.2.10,MacIntel,60,61025ae37ef11b136ea224fe,,,,,,,,,997,52.01171875,-50,1,0,0,response3disk,,5,20.1015625,8.765625,1,0,0,rectangle,20.1015625,8.765625,1,0,0,20.1015625,8.765625,1,0,0,0,115,115,139,1,,,,,,,,
,,,,,,,,,,,,,FF,,,,,,,,1.1697,,,,,,,,,,,,,,,,,,,,,,5ecb57ce8473f06bc2a5060a,61036f361cbe328e09cf2633,2021-07-29_23h18.44.300,Simcolourproject_2stim_asymm_v5,2020.2.10,MacIntel,60,61025ae37ef11b136ea224fe,,,,,,,,,2839,54.29296875,15.796875,1,0,0,response1disk,,6,8.5078125,-0.41015625,1,0,0,rectangle,8.5078125,-0.41015625,1,0,0,8.5078125,-0.41015625,1,0,0,0,116,116,25,1,,,,,,,,
,,,,,,,,,,,,,FF,,,,,,,,1.736,,,,,,,,,,,,,,,,,,,,,,5ecb57ce8473f06bc2a5060a,61036f361cbe328e09cf2633,2021-07-29_23h18.44.300,Simcolourproject_2stim_asymm_v5,2020.2.10,MacIntel,60,61025ae37ef11b136ea224fe,,,,,,,,,2035,40.8828125,23.5703125,1,0,0,response1disk,,6,10.13671875,8.625,1,0,0,rectangle,10.13671875,8.625,1,0,0,10.13671875,8.625,1,0,0,0,117,117,53,1,,,,,,,,
,,,,,,,,,,,,,FF,,,,,,,,0.5859,,,,,,,,,,,,,,,,,,,,,,5ecb57ce8473f06bc2a5060a,61036f361cbe328e09cf2633,2021-07-29_23h18.44.300,Simcolourproject_2stim_asymm_v5,2020.2.10,MacIntel,60,61025ae37ef11b136ea224fe,,,,,,,,,3938,42.09375,58.71484375,1,0,0,response1disk,,7,28.90625,-0.87109375,1,0,0,rectangle,28.90625,-0.87109375,1,0,0,28.90625,-0.87109375,1,0,0,0,118,118,96,1,,,,,,,,
,,,,,,,,,,,,,FF,,,,,,,,1.501,,,,,,,,,,,,,,,,,,,,,,5ecb57ce8473f06bc2a5060a,61036f361cbe328e09cf2633,2021-07-29_23h18.44.300,Simcolourproject_2stim_asymm_v5,2020.2.10,MacIntel,60,61025ae37ef11b136ea224fe,,,,,,,,,1413,-56.4140625,27.37890625,1,0,0,response7disk,,1,-26.6015625,2.28125,1,0,0,rectangle,-26.6015625,2.28125,1,0,0,-26.6015625,2.28125,1,0,0,0,119,119,130,1,,,,,,,,
,,,,,,,,,,,,,FF,,,,,,,,0.784,,,,,,,,,,,,,,,,,,,,,,5ecb57ce8473f06bc2a5060a,61036f361cbe328e09cf2633,2021-07-29_23h18.44.300,Simcolourproject_2stim_asymm_v5,2020.2.10,MacIntel,60,61025ae37ef11b136ea224fe,,,,,,,,,325,-35.09765625,20.11328125,1,0,0,response7disk,,1,-15.875,-9.578125,1,0,0,rectangle,-15.875,-9.578125,1,0,0,-15.875,-9.578125,1,0,0,0,120,120,35,1,,,,,,,,
,,,,,,,,,,,,,FF,,,,,,,,1.0353,,,,,,,,,,,,,,,,,,,,,,5ecb57ce8473f06bc2a5060a,61036f361cbe328e09cf2633,2021-07-29_23h18.44.300,Simcolourproject_2stim_asymm_v5,2020.2.10,MacIntel,60,61025ae37ef11b136ea224fe,,,,,,,,,84,-21.109375,49.4140625,1,0,0,response7disk,,0,-11.19140625,2.1640625,1,0,0,rectangle,28.51171875,-69.98046875,1,0,0,17.26953125,-2.26171875,1,0,0,0,121,121,77,1,,response3disk_3,TRUE,4,4,"[70,268,70,34,50,144,191,37,62,55,47,269,297,122,53,316,320,25,214,30]",51.1627,rectangle
,,,,,,,,,,,,,FF,,,,,,,,0.8384,,,,,,,,,,,,,,,,,,,,,,5ecb57ce8473f06bc2a5060a,61036f361cbe328e09cf2633,2021-07-29_23h18.44.300,Simcolourproject_2stim_asymm_v5,2020.2.10,MacIntel,60,61025ae37ef11b136ea224fe,,,,,,,,,4351,53.78125,30.078125,1,0,0,response1disk,,6,20.0703125,9.51171875,1,0,0,rectangle,20.0703125,9.51171875,1,0,0,20.0703125,9.51171875,1,0,0,0,122,122,7,1,,,,,,,,
,,,,,,,,,,,,,FF,,,,,,,,0.9271,,,,,,,,,,,,,,,,,,,,,,5ecb57ce8473f06bc2a5060a,61036f361cbe328e09cf2633,2021-07-29_23h18.44.300,Simcolourproject_2stim_asymm_v5,2020.2.10,MacIntel,60,61025ae37ef11b136ea224fe,,,,,,,,,3794,-34.38671875,-46.16796875,1,0,0,response5disk,,3,-10.796875,0.6953125,1,0,0,rectangle,-10.796875,0.6953125,1,0,0,-10.796875,0.6953125,1,0,0,0,123,123,157,1,,,,,,,,
,,,,,,,,,,,,,FF,,,,,,,,0.6221,,,,,,,,,,,,,,,,,,,,,,5ecb57ce8473f06bc2a5060a,61036f361cbe328e09cf2633,2021-07-29_23h18.44.300,Simcolourproject_2stim_asymm_v5,2020.2.10,MacIntel,60,61025ae37ef11b136ea224fe,,,,,,,,,2027,14.03515625,55.98046875,1,0,0,response1disk,,7,-0.359375,-1.87890625,1,0,0,rectangle,-0.359375,-1.87890625,1,0,0,-0.359375,-1.87890625,1,0,0,0,124,124,67,1,,,,,,,,
,,,,,,,,,,,,,FF,,,,,,,,0.7222,,,,,,,,,,,,,,,,,,,,,,5ecb57ce8473f06bc2a5060a,61036f361cbe328e09cf2633,2021-07-29_23h18.44.300,Simcolourproject_2stim_asymm_v5,2020.2.10,MacIntel,60,61025ae37ef11b136ea224fe,,,,,,,,,3276,-28.54296875,-56,1,0,0,response5disk,,3,-17.0703125,1.1015625,1,0,0,rectangle,-17.0703125,1.1015625,1,0,0,-17.0703125,1.1015625,1,0,0,0,125,125,95,1,,,,,,,,
,,,,,,,,,,,,,FF,,,,,,,,0.7672,,,,,,,,,,,,,,,,,,,,,,5ecb57ce8473f06bc2a5060a,61036f361cbe328e09cf2633,2021-07-29_23h18.44.300,Simcolourproject_2stim_asymm_v5,2020.2.10,MacIntel,60,61025ae37ef11b136ea224fe,,,,,,,,,3747,72.3359375,-34.49609375,1,0,0,response3disk,,5,13.06640625,8.14453125,1,0,0,rectangle,13.06640625,8.14453125,1,0,0,13.06640625,8.14453125,1,0,0,0,126,126,110,1,,,,,,,,
,,,,,,,,,,,,,FF,,,,,,,,0.822,,,,,,,,,,,,,,,,,,,,,,5ecb57ce8473f06bc2a5060a,61036f361cbe328e09cf2633,2021-07-29_23h18.44.300,Simcolourproject_2stim_asymm_v5,2020.2.10,MacIntel,60,61025ae37ef11b136ea224fe,,,,,,,,,560,-26.484375,51.76953125,1,0,0,response7disk,,0,-10.5234375,-1.6171875,1,0,0,rectangle,-10.5234375,-1.6171875,1,0,0,-10.5234375,-1.6171875,1,0,0,0,127,127,78,1,,,,,,,,
,,,,,,,,,,,,,FF,,,,,,,,2.0034,,,,,,,,,,,,,,,,,,,,,,5ecb57ce8473f06bc2a5060a,61036f361cbe328e09cf2633,2021-07-29_23h18.44.300,Simcolourproject_2stim_asymm_v5,2020.2.10,MacIntel,60,61025ae37ef11b136ea224fe,,,,,,,,,4241,-36.05078125,-64.12890625,1,0,0,response5disk,,3,20.75390625,-1.046875,1,0,0,rectangle,20.75390625,-1.046875,1,0,0,20.75390625,-1.046875,1,0,0,0,128,128,156,1,,,,,,,,
,,,,,,,,,,,,,FF,,,,,,,,0.972,,,,,,,,,,,,,,,,,,,,,,5ecb57ce8473f06bc2a5060a,61036f361cbe328e09cf2633,2021-07-29_23h18.44.300,Simcolourproject_2stim_asymm_v5,2020.2.10,MacIntel,60,61025ae37ef11b136ea224fe,,,,,,,,,4193,-41.10546875,-50.09765625,1,0,0,response5disk,,3,-15.95703125,-5.44140625,1,0,0,rectangle,-15.95703125,-5.44140625,1,0,0,-15.95703125,-5.44140625,1,0,0,0,129,129,27,1,,,,,,,,
,,,,,,,,,,,,,FF,,,,,,,,0.7944,,,,,,,,,,,,,,,,,,,,,,5ecb57ce8473f06bc2a5060a,61036f361cbe328e09cf2633,2021-07-29_23h18.44.300,Simcolourproject_2stim_asymm_v5,2020.2.10,MacIntel,60,61025ae37ef11b136ea224fe,,,,,,,,,1767,-24.15625,42.9765625,1,0,0,response7disk,,0,-8.125,-8.84375,1,0,0,rectangle,-8.125,-8.84375,1,0,0,-8.125,-8.84375,1,0,0,0,130,130,54,1,,,,,,,,
,,,,,,,,,,,,,FF,,,,,,,,0.851,,,,,,,,,,,,,,,,,,,,,,5ecb57ce8473f06bc2a5060a,61036f361cbe328e09cf2633,2021-07-29_23h18.44.300,Simcolourproject_2stim_asymm_v5,2020.2.10,MacIntel,60,61025ae37ef11b136ea224fe,,,,,,,,,3330,47.66796875,65.546875,1,0,0,response1disk,,7,13.87890625,-9.328125,1,0,0,rectangle,13.87890625,-9.328125,1,0,0,13.87890625,-9.328125,1,0,0,0,131,131,58,1,,,,,,,,
,,,,,,,,,,,,,FF,,,,,,,,0.9697,,,,,,,,,,,,,,,,,,,,,,5ecb57ce8473f06bc2a5060a,61036f361cbe328e09cf2633,2021-07-29_23h18.44.300,Simcolourproject_2stim_asymm_v5,2020.2.10,MacIntel,60,61025ae37ef11b136ea224fe,,,,,,,,,1748,54.82421875,38.0703125,1,0,0,response1disk,,6,9.77734375,1.90625,1,0,0,rectangle,9.77734375,1.90625,1,0,0,9.77734375,1.90625,1,0,0,0,132,132,55,1,,,,,,,,
,,,,,,,,,,,,,FF,,,,,,,,1.0845,,,,,,,,,,,,,,,,,,,,,,5ecb57ce8473f06bc2a5060a,61036f361cbe328e09cf2633,2021-07-29_23h18.44.300,Simcolourproject_2stim_asymm_v5,2020.2.10,MacIntel,60,61025ae37ef11b136ea224fe,,,,,,,,,2453,-28.02734375,44.28515625,1,0,0,response7disk,,0,-5.3828125,-5.0390625,1,0,0,rectangle,-5.3828125,-5.0390625,1,0,0,-5.3828125,-5.0390625,1,0,0,0,133,133,20,1,,,,,,,,
,,,,,,,,,,,,,FF,,,,,,,,1.0015,,,,,,,,,,,,,,,,,,,,,,5ecb57ce8473f06bc2a5060a,61036f361cbe328e09cf2633,2021-07-29_23h18.44.300,Simcolourproject_2stim_asymm_v5,2020.2.10,MacIntel,60,61025ae37ef11b136ea224fe,,,,,,,,,4053,27.28515625,-41.9296875,1,0,0,response3disk,,4,27.28515625,1.33984375,1,0,0,rectangle,27.28515625,1.33984375,1,0,0,27.28515625,1.33984375,1,0,0,0,134,134,34,1,,,,,,,,
,,,,,,,,,,,,,FF,,,,,,,,0.7559,,,,,,,,,,,,,,,,,,,,,,5ecb57ce8473f06bc2a5060a,61036f361cbe328e09cf2633,2021-07-29_23h18.44.300,Simcolourproject_2stim_asymm_v5,2020.2.10,MacIntel,60,61025ae37ef11b136ea224fe,,,,,,,,,1811,-32.14453125,-47.76171875,1,0,0,response5disk,,3,-19.73046875,-7.74609375,1,0,0,rectangle,-19.73046875,-7.74609375,1,0,0,-19.73046875,-7.74609375,1,0,0,0,135,135,90,1,,,,,,,,
,,,,,,,,,,,,,FF,,,,,,,,0.7345,,,,,,,,,,,,,,,,,,,,,,5ecb57ce8473f06bc2a5060a,61036f361cbe328e09cf2633,2021-07-29_23h18.44.300,Simcolourproject_2stim_asymm_v5,2020.2.10,MacIntel,60,61025ae37ef11b136ea224fe,,,,,,,,,3361,-31.484375,-51.2890625,1,0,0,response5disk,,3,-19.64453125,6.64453125,1,0,0,rectangle,-19.64453125,6.64453125,1,0,0,-19.64453125,6.64453125,1,0,0,0,136,136,76,1,,,,,,,,
,,,,,,,,,,,,,FF,,,,,,,,0.6188,,,,,,,,,,,,,,,,,,,,,,5ecb57ce8473f06bc2a5060a,61036f361cbe328e09cf2633,2021-07-29_23h18.44.300,Simcolourproject_2stim_asymm_v5,2020.2.10,MacIntel,60,61025ae37ef11b136ea224fe,,,,,,,,,3427,39.01171875,45.90234375,1,0,0,response1disk,,7,7.0625,5.0078125,1,0,0,rectangle,7.0625,5.0078125,1,0,0,7.0625,5.0078125,1,0,0,0,137,137,148,1,,,,,,,,
,,,,,,,,,,,,,FF,,,,,,,,1.0193,,,,,,,,,,,,,,,,,,,,,,5ecb57ce8473f06bc2a5060a,61036f361cbe328e09cf2633,2021-07-29_23h18.44.300,Simcolourproject_2stim_asymm_v5,2020.2.10,MacIntel,60,61025ae37ef11b136ea224fe,,,,,,,,,30,-22.01171875,-35.25,1,0,0,response5disk,,3,9.80859375,7.7421875,1,0,0,rectangle,9.80859375,7.7421875,1,0,0,9.80859375,7.7421875,1,0,0,0,138,138,112,1,,,,,,,,
,,,,,,,,,,,,,FF,,,,,,,,1.1693,,,,,,,,,,,,,,,,,,,,,,5ecb57ce8473f06bc2a5060a,61036f361cbe328e09cf2633,2021-07-29_23h18.44.300,Simcolourproject_2stim_asymm_v5,2020.2.10,MacIntel,60,61025ae37ef11b136ea224fe,,,,,,,,,1721,-47.53125,26.15625,1,0,0,response7disk,,1,-3.53515625,-0.2421875,1,0,0,rectangle,-3.53515625,-0.2421875,1,0,0,-3.53515625,-0.2421875,1,0,0,0,139,139,121,1,,,,,,,,
,,,,,,,,,,,,,FF,,,,,,,,1.6343,,,,,,,,,,,,,,,,,,,,,,5ecb57ce8473f06bc2a5060a,61036f361cbe328e09cf2633,2021-07-29_23h18.44.300,Simcolourproject_2stim_asymm_v5,2020.2.10,MacIntel,60,61025ae37ef11b136ea224fe,,,,,,,,,246,-63.875,-23.77734375,1,0,0,response5disk,,2,-30.31640625,4.203125,1,0,0,rectangle,-30.31640625,4.203125,1,0,0,-30.31640625,4.203125,1,0,0,0,140,140,101,1,,,,,,,,
,,,,,,,,,,,,,FF,,,,,,,,1.1349,,,,,,,,,,,,,,,,,,,,,,5ecb57ce8473f06bc2a5060a,61036f361cbe328e09cf2633,2021-07-29_23h18.44.300,Simcolourproject_2stim_asymm_v5,2020.2.10,MacIntel,60,61025ae37ef11b136ea224fe,,,,,,,,,113,-41.1953125,-28.984375,1,0,0,response5disk,,2,2.26171875,-11.078125,1,0,0,rectangle,2.26171875,-11.078125,1,0,0,2.26171875,-11.078125,1,0,0,0,141,141,38,1,,,,,,,,
,,,,,,,,,,,,,FF,,,,,,,,1.0172,,,,,,,,,,,,,,,,,,,,,,5ecb57ce8473f06bc2a5060a,61036f361cbe328e09cf2633,2021-07-29_23h18.44.300,Simcolourproject_2stim_asymm_v5,2020.2.10,MacIntel,60,61025ae37ef11b136ea224fe,,,,,,,,,1852,-69.68359375,32.81640625,1,0,0,response7disk,,1,0.1875,-3.125,1,0,0,rectangle,0.1875,-3.125,1,0,0,0.1875,-3.125,1,0,0,0,142,142,151,1,,,,,,,,
,,,,,,,,,,,,,FF,,,,,,,,0.9556,,,,,,,,,,,,,,,,,,,,,,5ecb57ce8473f06bc2a5060a,61036f361cbe328e09cf2633,2021-07-29_23h18.44.300,Simcolourproject_2stim_asymm_v5,2020.2.10,MacIntel,60,61025ae37ef11b136ea224fe,,,,,,,,,1262,-25.671875,-44.13671875,1,0,0,response5disk,,3,4.2421875,-3.96875,1,0,0,rectangle,92.8515625,41.15234375,1,0,0,24.13671875,11.640625,1,0,0,0,143,143,8,1,,response1disk_3,TRUE,6,6,"[70,268,70,34,50,144,191,37,62,55,47,269,297,122,53,316,320,25,214,30]",2.7679,rectangle
,,,,,,,,,,,,,FF,,,,,,,,0.9683,,,,,,,,,,,,,,,,,,,,,,5ecb57ce8473f06bc2a5060a,61036f361cbe328e09cf2633,2021-07-29_23h18.44.300,Simcolourproject_2stim_asymm_v5,2020.2.10,MacIntel,60,61025ae37ef11b136ea224fe,,,,,,,,,409,60.63671875,-47.11328125,1,0,0,response3disk,,5,25.49609375,-6.7890625,1,0,0,rectangle,25.49609375,-6.7890625,1,0,0,25.49609375,-6.7890625,1,0,0,0,144,144,120,1,,,,,,,,
,,,,,,,,,,,,,FF,,,,,,,,0.8683,,,,,,,,,,,,,,,,,,,,,,5ecb57ce8473f06bc2a5060a,61036f361cbe328e09cf2633,2021-07-29_23h18.44.300,Simcolourproject_2stim_asymm_v5,2020.2.10,MacIntel,60,61025ae37ef11b136ea224fe,,,,,,,,,329,-39.046875,51.33203125,1,0,0,response7disk,,0,-7.53125,-7.25390625,1,0,0,rectangle,-7.53125,-7.25390625,1,0,0,-7.53125,-7.25390625,1,0,0,0,145,145,154,1,,,,,,,,
,,,,,,,,,,,,,FF,,,,,,,,53.1617,,,,,,,,,,,,,,,,,,,,,,5ecb57ce8473f06bc2a5060a,61036f361cbe328e09cf2633,2021-07-29_23h18.44.300,Simcolourproject_2stim_asymm_v5,2020.2.10,MacIntel,60,61025ae37ef11b136ea224fe,,,,,,,,,4043,-75.71875,-43.9765625,1,0,0,response5disk,,2,-4.8515625,3.7890625,1,0,0,rectangle,-4.8515625,3.7890625,1,0,0,-4.8515625,3.7890625,1,0,0,0,146,146,123,1,,,,,,,,
,,,,,,,,,,,,,FF,,,,,,,,0.7541,,,,,,,,,,,,,,,,,,,,,,5ecb57ce8473f06bc2a5060a,61036f361cbe328e09cf2633,2021-07-29_23h18.44.300,Simcolourproject_2stim_asymm_v5,2020.2.10,MacIntel,60,61025ae37ef11b136ea224fe,,,,,,,,,2676,72.71484375,-18.2109375,1,0,0,response3disk,,5,21.37890625,-5.6640625,1,0,0,rectangle,21.37890625,-5.6640625,1,0,0,21.37890625,-5.6640625,1,0,0,0,147,147,126,1,,,,,,,,
,,,,,,,,,,,,,FF,,,,,,,,0.7958,,,,,,,,,,,,,,,,,,,,,,5ecb57ce8473f06bc2a5060a,61036f361cbe328e09cf2633,2021-07-29_23h18.44.300,Simcolourproject_2stim_asymm_v5,2020.2.10,MacIntel,60,61025ae37ef11b136ea224fe,,,,,,,,,2018,-42.65625,16.046875,1,0,0,response7disk,,1,1.73828125,-2.17578125,1,0,0,rectangle,1.73828125,-2.17578125,1,0,0,1.73828125,-2.17578125,1,0,0,0,148,148,4,1,,,,,,,,
,,,,,,,,,,,,,FF,,,,,,,,1.0473,,,,,,,,,,,,,,,,,,,,,,5ecb57ce8473f06bc2a5060a,61036f361cbe328e09cf2633,2021-07-29_23h18.44.300,Simcolourproject_2stim_asymm_v5,2020.2.10,MacIntel,60,61025ae37ef11b136ea224fe,,,,,,,,,4142,37.8984375,18.0546875,1,0,0,response1disk,,6,1.25,2.26953125,1,0,0,rectangle,1.25,2.26953125,1,0,0,1.25,2.26953125,1,0,0,0,149,149,159,1,,,,,,,,
,,,,,,,,,,,,,FF,,,,,,,,0.9387,,,,,,,,,,,,,,,,,,,,,,5ecb57ce8473f06bc2a5060a,61036f361cbe328e09cf2633,2021-07-29_23h18.44.300,Simcolourproject_2stim_asymm_v5,2020.2.10,MacIntel,60,61025ae37ef11b136ea224fe,,,,,,,,,525,62.73828125,34.76953125,1,0,0,response1disk,,6,30.859375,1.1484375,1,0,0,rectangle,30.859375,1.1484375,1,0,0,30.859375,1.1484375,1,0,0,0,150,150,134,1,,,,,,,,
,,,,,,,,,,,,,FF,,,,,,,,0.7732,,,,,,,,,,,,,,,,,,,,,,5ecb57ce8473f06bc2a5060a,61036f361cbe328e09cf2633,2021-07-29_23h18.44.300,Simcolourproject_2stim_asymm_v5,2020.2.10,MacIntel,60,61025ae37ef11b136ea224fe,,,,,,,,,1644,-50.51953125,25.5078125,1,0,0,response7disk,,1,1.390625,6,1,0,0,rectangle,1.390625,6,1,0,0,1.390625,6,1,0,0,0,151,151,158,1,,,,,,,,
,,,,,,,,,,,,,FF,,,,,,,,0.6556,,,,,,,,,,,,,,,,,,,,,,5ecb57ce8473f06bc2a5060a,61036f361cbe328e09cf2633,2021-07-29_23h18.44.300,Simcolourproject_2stim_asymm_v5,2020.2.10,MacIntel,60,61025ae37ef11b136ea224fe,,,,,,,,,2729,17.50390625,-49.16796875,1,0,0,response3disk,,4,-3.22265625,-1.48828125,1,0,0,rectangle,-3.22265625,-1.48828125,1,0,0,-3.22265625,-1.48828125,1,0,0,0,152,152,100,1,,,,,,,,
,,,,,,,,,,,,,FF,,,,,,,,0.6183,,,,,,,,,,,,,,,,,,,,,,5ecb57ce8473f06bc2a5060a,61036f361cbe328e09cf2633,2021-07-29_23h18.44.300,Simcolourproject_2stim_asymm_v5,2020.2.10,MacIntel,60,61025ae37ef11b136ea224fe,,,,,,,,,2091,-30.9765625,52.9453125,1,0,0,response7disk,,0,-7.7890625,11.02734375,1,0,0,rectangle,-7.7890625,11.02734375,1,0,0,-7.7890625,11.02734375,1,0,0,0,153,153,108,1,,,,,,,,
,,,,,,,,,,,,,FF,,,,,,,,0.8743,,,,,,,,,,,,,,,,,,,,,,5ecb57ce8473f06bc2a5060a,61036f361cbe328e09cf2633,2021-07-29_23h18.44.300,Simcolourproject_2stim_asymm_v5,2020.2.10,MacIntel,60,61025ae37ef11b136ea224fe,,,,,,,,,2491,-24.00390625,32.73046875,1,0,0,response7disk,,0,-13.25390625,10.6484375,1,0,0,rectangle,-13.25390625,10.6484375,1,0,0,-13.25390625,10.6484375,1,0,0,0,154,154,40,1,,,,,,,,
,,,,,,,,,,,,,FF,,,,,,,,0.722,,,,,,,,,,,,,,,,,,,,,,5ecb57ce8473f06bc2a5060a,61036f361cbe328e09cf2633,2021-07-29_23h18.44.300,Simcolourproject_2stim_asymm_v5,2020.2.10,MacIntel,60,61025ae37ef11b136ea224fe,,,,,,,,,2996,56.46875,34.60546875,1,0,0,response1disk,,6,-6.0546875,-11.75390625,1,0,0,rectangle,-6.0546875,-11.75390625,1,0,0,-6.0546875,-11.75390625,1,0,0,0,155,155,140,1,,,,,,,,
,,,,,,,,,,,,,FF,,,,,,,,0.7195,,,,,,,,,,,,,,,,,,,,,,5ecb57ce8473f06bc2a5060a,61036f361cbe328e09cf2633,2021-07-29_23h18.44.300,Simcolourproject_2stim_asymm_v5,2020.2.10,MacIntel,60,61025ae37ef11b136ea224fe,,,,,,,,,29,-16.5625,-63.8671875,1,0,0,response5disk,,3,-12.8828125,-1.55078125,1,0,0,rectangle,-12.8828125,-1.55078125,1,0,0,-12.8828125,-1.55078125,1,0,0,0,156,156,103,1,,,,,,,,
,,,,,,,,,,,,,FF,,,,,,,,0.7313,,,,,,,,,,,,,,,,,,,,,,5ecb57ce8473f06bc2a5060a,61036f361cbe328e09cf2633,2021-07-29_23h18.44.300,Simcolourproject_2stim_asymm_v5,2020.2.10,MacIntel,60,61025ae37ef11b136ea224fe,,,,,,,,,1368,35.78515625,46.3671875,1,0,0,response1disk,,7,26.11328125,-11.16796875,1,0,0,rectangle,26.11328125,-11.16796875,1,0,0,26.11328125,-11.16796875,1,0,0,0,157,157,62,1,,,,,,,,
,,,,,,,,,,,,,FF,,,,,,,,0.6569,,,,,,,,,,,,,,,,,,,,,,5ecb57ce8473f06bc2a5060a,61036f361cbe328e09cf2633,2021-07-29_23h18.44.300,Simcolourproject_2stim_asymm_v5,2020.2.10,MacIntel,60,61025ae37ef11b136ea224fe,,,,,,,,,2017,34.765625,-48.1015625,1,0,0,response3disk,,4,28.9609375,-5.9296875,1,0,0,rectangle,28.9609375,-5.9296875,1,0,0,28.9609375,-5.9296875,1,0,0,0,158,158,129,1,,,,,,,,
,,,,,,,,,,,,,FF,,,,,,,,0.8013,,,,,,,,,,,,,,,,,,,,,,5ecb57ce8473f06bc2a5060a,61036f361cbe328e09cf2633,2021-07-29_23h18.44.300,Simcolourproject_2stim_asymm_v5,2020.2.10,MacIntel,60,61025ae37ef11b136ea224fe,,,,,,,,,4287,-20.49609375,31.8203125,1,0,0,response7disk,,0,-22.0390625,5.29296875,1,0,0,rectangle,-22.0390625,5.29296875,1,0,0,-22.0390625,5.29296875,1,0,0,0,159,159,48,1,,,,,,,,
,,,,,,,,,,,,,FF,,,,,,,,0.6071,,,,,,,,,,,,,,,,,,,,,,5ecb57ce8473f06bc2a5060a,61036f361cbe328e09cf2633,2021-07-29_23h18.44.300,Simcolourproject_2stim_asymm_v5,2020.2.10,MacIntel,60,61025ae37ef11b136ea224fe,,,,,,,,,322,-37.5625,68.83203125,1,0,0,response7disk,,0,-20.61328125,1.07421875,1,0,0,rectangle,-20.61328125,1.07421875,1,0,0,-20.61328125,1.07421875,1,0,0,1,0,160,84,1,,,,,,,,
,,,,,,,,,,,,,FF,,,,,,,,0.8654,,,,,,,,,,,,,,,,,,,,,,5ecb57ce8473f06bc2a5060a,61036f361cbe328e09cf2633,2021-07-29_23h18.44.300,Simcolourproject_2stim_asymm_v5,2020.2.10,MacIntel,60,61025ae37ef11b136ea224fe,,,,,,,,,976,21.8125,-62.75390625,1,0,0,response3disk,,4,21.8125,-6.359375,1,0,0,rectangle,21.8125,-6.359375,1,0,0,21.8125,-6.359375,1,0,0,1,1,161,87,1,,,,,,,,
,,,,,,,,,,,,,FF,,,,,,,,0.7874,,,,,,,,,,,,,,,,,,,,,,5ecb57ce8473f06bc2a5060a,61036f361cbe328e09cf2633,2021-07-29_23h18.44.300,Simcolourproject_2stim_asymm_v5,2020.2.10,MacIntel,60,61025ae37ef11b136ea224fe,,,,,,,,,27,-23.51171875,66.40234375,1,0,0,response7disk,,0,-5.16015625,11.4609375,1,0,0,rectangle,-5.16015625,11.4609375,1,0,0,-5.16015625,11.4609375,1,0,0,1,2,162,106,1,,,,,,,,
,,,,,,,,,,,,,FF,,,,,,,,1.2297,,,,,,,,,,,,,,,,,,,,,,5ecb57ce8473f06bc2a5060a,61036f361cbe328e09cf2633,2021-07-29_23h18.44.300,Simcolourproject_2stim_asymm_v5,2020.2.10,MacIntel,60,61025ae37ef11b136ea224fe,,,,,,,,,2194,26.0859375,-37.9765625,1,0,0,response3disk,,4,19.51171875,-10.29296875,1,0,0,rectangle,19.51171875,-10.29296875,1,0,0,19.51171875,-10.29296875,1,0,0,1,3,163,66,1,,,,,,,,
,,,,,,,,,,,,,FF,,,,,,,,0.6154,,,,,,,,,,,,,,,,,,,,,,5ecb57ce8473f06bc2a5060a,61036f361cbe328e09cf2633,2021-07-29_23h18.44.300,Simcolourproject_2stim_asymm_v5,2020.2.10,MacIntel,60,61025ae37ef11b136ea224fe,,,,,,,,,1860,-17.69921875,-33.125,1,0,0,response5disk,,3,-3.828125,-6.41796875,1,0,0,rectangle,-3.828125,-6.41796875,1,0,0,-3.828125,-6.41796875,1,0,0,1,4,164,120,1,,,,,,,,
,,,,,,,,,,,,,FF,,,,,,,,0.8879,,,,,,,,,,,,,,,,,,,,,,5ecb57ce8473f06bc2a5060a,61036f361cbe328e09cf2633,2021-07-29_23h18.44.300,Simcolourproject_2stim_asymm_v5,2020.2.10,MacIntel,60,61025ae37ef11b136ea224fe,,,,,,,,,210,-28.29296875,31.171875,1,0,0,response7disk,,0,21.8125,-4.83984375,1,0,0,rectangle,21.8125,-4.83984375,1,0,0,21.8125,-4.83984375,1,0,0,1,5,165,133,1,,,,,,,,
,,,,,,,,,,,,,FF,,,,,,,,0.8703,,,,,,,,,,,,,,,,,,,,,,5ecb57ce8473f06bc2a5060a,61036f361cbe328e09cf2633,2021-07-29_23h18.44.300,Simcolourproject_2stim_asymm_v5,2020.2.10,MacIntel,60,61025ae37ef11b136ea224fe,,,,,,,,,3350,49.55859375,-50.9375,1,0,0,response3disk,,4,31.0546875,-3.3046875,1,0,0,rectangle,31.0546875,-3.3046875,1,0,0,31.0546875,-3.3046875,1,0,0,1,6,166,128,1,,,,,,,,
,,,,,,,,,,,,,FF,,,,,,,,0.6444,,,,,,,,,,,,,,,,,,,,,,5ecb57ce8473f06bc2a5060a,61036f361cbe328e09cf2633,2021-07-29_23h18.44.300,Simcolourproject_2stim_asymm_v5,2020.2.10,MacIntel,60,61025ae37ef11b136ea224fe,,,,,,,,,3472,53.0546875,-23.41015625,1,0,0,response3disk,,5,20.51171875,-9.33203125,1,0,0,rectangle,20.51171875,-9.33203125,1,0,0,20.51171875,-9.33203125,1,0,0,1,7,167,88,1,,,,,,,,
,,,,,,,,,,,,,FF,,,,,,,,0.7408,,,,,,,,,,,,,,,,,,,,,,5ecb57ce8473f06bc2a5060a,61036f361cbe328e09cf2633,2021-07-29_23h18.44.300,Simcolourproject_2stim_asymm_v5,2020.2.10,MacIntel,60,61025ae37ef11b136ea224fe,,,,,,,,,931,-37.28125,-24.75390625,1,0,0,response5disk,,2,28.8671875,1.6015625,1,0,0,rectangle,28.8671875,1.6015625,1,0,0,28.8671875,1.6015625,1,0,0,1,8,168,57,1,,,,,,,,
,,,,,,,,,,,,,FF,,,,,,,,0.7664,,,,,,,,,,,,,,,,,,,,,,5ecb57ce8473f06bc2a5060a,61036f361cbe328e09cf2633,2021-07-29_23h18.44.300,Simcolourproject_2stim_asymm_v5,2020.2.10,MacIntel,60,61025ae37ef11b136ea224fe,,,,,,,,,3888,-22.8203125,-56.265625,1,0,0,response5disk,,3,-11.62890625,-0.9609375,1,0,0,rectangle,-11.62890625,-0.9609375,1,0,0,-11.62890625,-0.9609375,1,0,0,1,9,169,81,1,,,,,,,,
,,,,,,,,,,,,,FF,,,,,,,,0.8745,,,,,,,,,,,,,,,,,,,,,,5ecb57ce8473f06bc2a5060a,61036f361cbe328e09cf2633,2021-07-29_23h18.44.300,Simcolourproject_2stim_asymm_v5,2020.2.10,MacIntel,60,61025ae37ef11b136ea224fe,,,,,,,,,2148,-47.87890625,36.6796875,1,0,0,response7disk,,1,-15.65625,3.94921875,1,0,0,rectangle,-15.65625,3.94921875,1,0,0,-15.65625,3.94921875,1,0,0,1,10,170,70,1,,,,,,,,
,,,,,,,,,,,,,FF,,,,,,,,1.1544,,,,,,,,,,,,,,,,,,,,,,5ecb57ce8473f06bc2a5060a,61036f361cbe328e09cf2633,2021-07-29_23h18.44.300,Simcolourproject_2stim_asymm_v5,2020.2.10,MacIntel,60,61025ae37ef11b136ea224fe,,,,,,,,,464,55.078125,-64.58203125,1,0,0,response3disk,,4,3.5546875,-3.640625,1,0,0,rectangle,3.5546875,-3.640625,1,0,0,3.5546875,-3.640625,1,0,0,1,11,171,123,1,,,,,,,,
,,,,,,,,,,,,,FF,,,,,,,,1.3873,,,,,,,,,,,,,,,,,,,,,,5ecb57ce8473f06bc2a5060a,61036f361cbe328e09cf2633,2021-07-29_23h18.44.300,Simcolourproject_2stim_asymm_v5,2020.2.10,MacIntel,60,61025ae37ef11b136ea224fe,,,,,,,,,2319,-34.921875,48.30859375,1,0,0,response7disk,,0,-16.58984375,-8.40625,1,0,0,rectangle,-16.58984375,-8.40625,1,0,0,-16.58984375,-8.40625,1,0,0,1,12,172,29,1,,,,,,,,
,,,,,,,,,,,,,FF,,,,,,,,0.6839,,,,,,,,,,,,,,,,,,,,,,5ecb57ce8473f06bc2a5060a,61036f361cbe328e09cf2633,2021-07-29_23h18.44.300,Simcolourproject_2stim_asymm_v5,2020.2.10,MacIntel,60,61025ae37ef11b136ea224fe,,,,,,,,,3788,41.703125,-55.4765625,1,0,0,response3disk,,4,28.453125,-8.6875,1,0,0,rectangle,28.453125,-8.6875,1,0,0,28.453125,-8.6875,1,0,0,1,13,173,40,1,,,,,,,,
,,,,,,,,,,,,,FF,,,,,,,,0.7173,,,,,,,,,,,,,,,,,,,,,,5ecb57ce8473f06bc2a5060a,61036f361cbe328e09cf2633,2021-07-29_23h18.44.300,Simcolourproject_2stim_asymm_v5,2020.2.10,MacIntel,60,61025ae37ef11b136ea224fe,,,,,,,,,2889,69.53125,-15.4375,1,0,0,response3disk,,5,12.09765625,-11.109375,1,0,0,rectangle,12.09765625,-11.109375,1,0,0,12.09765625,-11.109375,1,0,0,1,14,174,20,1,,,,,,,,
,,,,,,,,,,,,,FF,,,,,,,,0.6014,,,,,,,,,,,,,,,,,,,,,,5ecb57ce8473f06bc2a5060a,61036f361cbe328e09cf2633,2021-07-29_23h18.44.300,Simcolourproject_2stim_asymm_v5,2020.2.10,MacIntel,60,61025ae37ef11b136ea224fe,,,,,,,,,62,-28.3671875,30.140625,1,0,0,response7disk,,0,-11.65625,-1.546875,1,0,0,rectangle,-11.65625,-1.546875,1,0,0,-11.65625,-1.546875,1,0,0,1,15,175,21,1,,,,,,,,
,,,,,,,,,,,,,FF,,,,,,,,0.8012,,,,,,,,,,,,,,,,,,,,,,5ecb57ce8473f06bc2a5060a,61036f361cbe328e09cf2633,2021-07-29_23h18.44.300,Simcolourproject_2stim_asymm_v5,2020.2.10,MacIntel,60,61025ae37ef11b136ea224fe,,,,,,,,,2655,-73.2265625,42.78125,1,0,0,response7disk,,1,-25.9375,0.65234375,1,0,0,rectangle,-25.9375,0.65234375,1,0,0,-25.9375,0.65234375,1,0,0,1,16,176,135,1,,,,,,,,
,,,,,,,,,,,,,FF,,,,,,,,0.5347,,,,,,,,,,,,,,,,,,,,,,5ecb57ce8473f06bc2a5060a,61036f361cbe328e09cf2633,2021-07-29_23h18.44.300,Simcolourproject_2stim_asymm_v5,2020.2.10,MacIntel,60,61025ae37ef11b136ea224fe,,,,,,,,,2741,-39.13671875,63.1953125,1,0,0,response7disk,,0,-23.51171875,-2.1328125,1,0,0,rectangle,-23.51171875,-2.1328125,1,0,0,-23.51171875,-2.1328125,1,0,0,1,17,177,86,1,,,,,,,,
,,,,,,,,,,,,,FF,,,,,,,,0.6325,,,,,,,,,,,,,,,,,,,,,,5ecb57ce8473f06bc2a5060a,61036f361cbe328e09cf2633,2021-07-29_23h18.44.300,Simcolourproject_2stim_asymm_v5,2020.2.10,MacIntel,60,61025ae37ef11b136ea224fe,,,,,,,,,940,-34.46875,43.0859375,1,0,0,response7disk,,0,-21.33203125,1.01171875,1,0,0,rectangle,-21.33203125,1.01171875,1,0,0,-21.33203125,1.01171875,1,0,0,1,18,178,2,1,,,,,,,,
,,,,,,,,,,,,,FF,,,,,,,,1.0354,,,,,,,,,,,,,,,,,,,,,,5ecb57ce8473f06bc2a5060a,61036f361cbe328e09cf2633,2021-07-29_23h18.44.300,Simcolourproject_2stim_asymm_v5,2020.2.10,MacIntel,60,61025ae37ef11b136ea224fe,,,,,,,,,4104,74.12109375,52.76171875,1,0,0,response1disk,,6,6.953125,6.92578125,1,0,0,rectangle,6.953125,6.92578125,1,0,0,6.953125,6.92578125,1,0,0,1,19,179,90,1,,,,,,,,
,,,,,,,,,,,,,FF,,,,,,,,1.3173,,,,,,,,,,,,,,,,,,,,,,5ecb57ce8473f06bc2a5060a,61036f361cbe328e09cf2633,2021-07-29_23h18.44.300,Simcolourproject_2stim_asymm_v5,2020.2.10,MacIntel,60,61025ae37ef11b136ea224fe,,,,,,,,,2602,49.796875,-27.0078125,1,0,0,response3disk,,5,19.0625,5.890625,1,0,0,rectangle,19.0625,5.890625,1,0,0,19.0625,5.890625,1,0,0,1,20,180,105,1,,,,,,,,
,,,,,,,,,,,,,FF,,,,,,,,1.5138,,,,,,,,,,,,,,,,,,,,,,5ecb57ce8473f06bc2a5060a,61036f361cbe328e09cf2633,2021-07-29_23h18.44.300,Simcolourproject_2stim_asymm_v5,2020.2.10,MacIntel,60,61025ae37ef11b136ea224fe,,,,,,,,,1443,-46.74609375,92.44921875,1,0,0,response7disk,,0,-22.56640625,0.2109375,1,0,0,rectangle,-22.56640625,0.2109375,1,0,0,-22.56640625,0.2109375,1,0,0,1,21,181,91,1,,,,,,,,
,,,,,,,,,,,,,FF,,,,,,,,1.3341,,,,,,,,,,,,,,,,,,,,,,5ecb57ce8473f06bc2a5060a,61036f361cbe328e09cf2633,2021-07-29_23h18.44.300,Simcolourproject_2stim_asymm_v5,2020.2.10,MacIntel,60,61025ae37ef11b136ea224fe,,,,,,,,,2313,-18.27734375,46.1953125,1,0,0,response7disk,,0,-13.91015625,3.8671875,1,0,0,rectangle,-13.91015625,3.8671875,1,0,0,-13.91015625,3.8671875,1,0,0,1,22,182,11,1,,,,,,,,
,,,,,,,,,,,,,FF,,,,,,,,1.2694,,,,,,,,,,,,,,,,,,,,,,5ecb57ce8473f06bc2a5060a,61036f361cbe328e09cf2633,2021-07-29_23h18.44.300,Simcolourproject_2stim_asymm_v5,2020.2.10,MacIntel,60,61025ae37ef11b136ea224fe,,,,,,,,,3693,-37.94921875,52.53125,1,0,0,response7disk,,0,-18.90625,1.203125,1,0,0,rectangle,-18.90625,1.203125,1,0,0,-18.90625,1.203125,1,0,0,1,23,183,44,1,,,,,,,,
,,,,,,,,,,,,,FF,,,,,,,,1.6836,,,,,,,,,,,,,,,,,,,,,,5ecb57ce8473f06bc2a5060a,61036f361cbe328e09cf2633,2021-07-29_23h18.44.300,Simcolourproject_2stim_asymm_v5,2020.2.10,MacIntel,60,61025ae37ef11b136ea224fe,,,,,,,,,2150,-18.13671875,-68.8515625,1,0,0,response5disk,,3,-11.85546875,-11.03125,1,0,0,rectangle,-11.85546875,-11.03125,1,0,0,-11.85546875,-11.03125,1,0,0,1,24,184,109,1,,,,,,,,
,,,,,,,,,,,,,FF,,,,,,,,0.8178,,,,,,,,,,,,,,,,,,,,,,5ecb57ce8473f06bc2a5060a,61036f361cbe328e09cf2633,2021-07-29_23h18.44.300,Simcolourproject_2stim_asymm_v5,2020.2.10,MacIntel,60,61025ae37ef11b136ea224fe,,,,,,,,,1388,-36.49609375,-51.1328125,1,0,0,response5disk,,3,-23.9296875,-1.203125,1,0,0,rectangle,-23.9296875,-1.203125,1,0,0,-23.9296875,-1.203125,1,0,0,1,25,185,119,1,,,,,,,,
,,,,,,,,,,,,,FF,,,,,,,,1.0039,,,,,,,,,,,,,,,,,,,,,,5ecb57ce8473f06bc2a5060a,61036f361cbe328e09cf2633,2021-07-29_23h18.44.300,Simcolourproject_2stim_asymm_v5,2020.2.10,MacIntel,60,61025ae37ef11b136ea224fe,,,,,,,,,2984,23.35546875,-78.13671875,1,0,0,response3disk,,4,13.0390625,-9.1015625,1,0,0,rectangle,13.0390625,-9.1015625,1,0,0,13.0390625,-9.1015625,1,0,0,1,26,186,41,1,,,,,,,,
,,,,,,,,,,,,,FF,,,,,,,,0.7178,,,,,,,,,,,,,,,,,,,,,,5ecb57ce8473f06bc2a5060a,61036f361cbe328e09cf2633,2021-07-29_23h18.44.300,Simcolourproject_2stim_asymm_v5,2020.2.10,MacIntel,60,61025ae37ef11b136ea224fe,,,,,,,,,2040,62.390625,-81.328125,1,0,0,response3disk,,4,17.734375,2.7109375,1,0,0,rectangle,17.734375,2.7109375,1,0,0,17.734375,2.7109375,1,0,0,1,27,187,55,1,,,,,,,,
,,,,,,,,,,,,,FF,,,,,,,,11.673,,,,,,,,,,,,,,,,,,,,,,5ecb57ce8473f06bc2a5060a,61036f361cbe328e09cf2633,2021-07-29_23h18.44.300,Simcolourproject_2stim_asymm_v5,2020.2.10,MacIntel,60,61025ae37ef11b136ea224fe,,,,,,,,,1828,-18.63671875,45.96484375,1,0,0,response7disk,,0,-1.6484375,4.1796875,1,0,0,rectangle,-1.6484375,4.1796875,1,0,0,-1.6484375,4.1796875,1,0,0,1,28,188,147,1,,,,,,,,
,,,,,,,,,,,,,FF,,,,,,,,0.8166,,,,,,,,,,,,,,,,,,,,,,5ecb57ce8473f06bc2a5060a,61036f361cbe328e09cf2633,2021-07-29_23h18.44.300,Simcolourproject_2stim_asymm_v5,2020.2.10,MacIntel,60,61025ae37ef11b136ea224fe,,,,,,,,,3413,40.546875,-69.3125,1,0,0,response3disk,,4,20.53515625,-4.15234375,1,0,0,rectangle,20.53515625,-4.15234375,1,0,0,20.53515625,-4.15234375,1,0,0,1,29,189,78,1,,,,,,,,
,,,,,,,,,,,,,FF,,,,,,,,0.6366,,,,,,,,,,,,,,,,,,,,,,5ecb57ce8473f06bc2a5060a,61036f361cbe328e09cf2633,2021-07-29_23h18.44.300,Simcolourproject_2stim_asymm_v5,2020.2.10,MacIntel,60,61025ae37ef11b136ea224fe,,,,,,,,,948,65.45703125,-45.50390625,1,0,0,response3disk,,5,22.7109375,-6.57421875,1,0,0,rectangle,-58.171875,-13.45703125,1,0,0,-6.73046875,1.00390625,1,0,0,1,30,190,28,1,,response5disk_3,TRUE,2,2,"[70,268,70,34,50,144,191,37,62,55,47,269,297,122,53,316,320,25,214,30]",1.3158,rectangle
,,,,,,,,,,,,,FF,,,,,,,,1.2003,,,,,,,,,,,,,,,,,,,,,,5ecb57ce8473f06bc2a5060a,61036f361cbe328e09cf2633,2021-07-29_23h18.44.300,Simcolourproject_2stim_asymm_v5,2020.2.10,MacIntel,60,61025ae37ef11b136ea224fe,,,,,,,,,4236,89.53125,35.0859375,1,0,0,response1disk,,6,26.29296875,-0.63671875,1,0,0,rectangle,26.29296875,-0.63671875,1,0,0,26.29296875,-0.63671875,1,0,0,1,31,191,117,1,,,,,,,,
,,,,,,,,,,,,,FF,,,,,,,,0.7511,,,,,,,,,,,,,,,,,,,,,,5ecb57ce8473f06bc2a5060a,61036f361cbe328e09cf2633,2021-07-29_23h18.44.300,Simcolourproject_2stim_asymm_v5,2020.2.10,MacIntel,60,61025ae37ef11b136ea224fe,,,,,,,,,2300,48.953125,-23.17578125,1,0,0,response3disk,,5,22.48828125,-10.859375,1,0,0,rectangle,22.48828125,-10.859375,1,0,0,22.48828125,-10.859375,1,0,0,1,32,192,146,1,,,,,,,,
,,,,,,,,,,,,,FF,,,,,,,,0.718,,,,,,,,,,,,,,,,,,,,,,5ecb57ce8473f06bc2a5060a,61036f361cbe328e09cf2633,2021-07-29_23h18.44.300,Simcolourproject_2stim_asymm_v5,2020.2.10,MacIntel,60,61025ae37ef11b136ea224fe,,,,,,,,,2817,-29.23828125,-32.12109375,1,0,0,response5disk,,3,-4.0859375,-2.7578125,1,0,0,rectangle,-4.0859375,-2.7578125,1,0,0,-4.0859375,-2.7578125,1,0,0,1,33,193,46,1,,,,,,,,
,,,,,,,,,,,,,FF,,,,,,,,1.0485,,,,,,,,,,,,,,,,,,,,,,5ecb57ce8473f06bc2a5060a,61036f361cbe328e09cf2633,2021-07-29_23h18.44.300,Simcolourproject_2stim_asymm_v5,2020.2.10,MacIntel,60,61025ae37ef11b136ea224fe,,,,,,,,,1592,-53.140625,32.26171875,1,0,0,response7disk,,1,29.5234375,-1.10546875,1,0,0,rectangle,29.5234375,-1.10546875,1,0,0,29.5234375,-1.10546875,1,0,0,1,34,194,48,1,,,,,,,,
,,,,,,,,,,,,,FF,,,,,,,,0.667,,,,,,,,,,,,,,,,,,,,,,5ecb57ce8473f06bc2a5060a,61036f361cbe328e09cf2633,2021-07-29_23h18.44.300,Simcolourproject_2stim_asymm_v5,2020.2.10,MacIntel,60,61025ae37ef11b136ea224fe,,,,,,,,,4303,-29.9765625,45.44921875,1,0,0,response7disk,,0,-2.51953125,4.86328125,1,0,0,rectangle,-2.51953125,4.86328125,1,0,0,-2.51953125,4.86328125,1,0,0,1,35,195,136,1,,,,,,,,
,,,,,,,,,,,,,FF,,,,,,,,0.8544,,,,,,,,,,,,,,,,,,,,,,5ecb57ce8473f06bc2a5060a,61036f361cbe328e09cf2633,2021-07-29_23h18.44.300,Simcolourproject_2stim_asymm_v5,2020.2.10,MacIntel,60,61025ae37ef11b136ea224fe,,,,,,,,,822,-28.53125,-37.2421875,1,0,0,response5disk,,3,-4.03125,-3.54296875,1,0,0,rectangle,-4.03125,-3.54296875,1,0,0,-4.03125,-3.54296875,1,0,0,1,36,196,59,1,,,,,,,,
,,,,,,,,,,,,,FF,,,,,,,,0.7334,,,,,,,,,,,,,,,,,,,,,,5ecb57ce8473f06bc2a5060a,61036f361cbe328e09cf2633,2021-07-29_23h18.44.300,Simcolourproject_2stim_asymm_v5,2020.2.10,MacIntel,60,61025ae37ef11b136ea224fe,,,,,,,,,2266,-31.8515625,42.6953125,1,0,0,response7disk,,0,-14.80859375,6.37109375,1,0,0,rectangle,-14.80859375,6.37109375,1,0,0,-14.80859375,6.37109375,1,0,0,1,37,197,45,1,,,,,,,,
,,,,,,,,,,,,,FF,,,,,,,,0.7079,,,,,,,,,,,,,,,,,,,,,,5ecb57ce8473f06bc2a5060a,61036f361cbe328e09cf2633,2021-07-29_23h18.44.300,Simcolourproject_2stim_asymm_v5,2020.2.10,MacIntel,60,61025ae37ef11b136ea224fe,,,,,,,,,2089,-40.9140625,15.42578125,1,0,0,response7disk,,1,-6.5078125,5.9609375,1,0,0,rectangle,-6.5078125,5.9609375,1,0,0,-6.5078125,5.9609375,1,0,0,1,38,198,93,1,,,,,,,,
,,,,,,,,,,,,,FF,,,,,,,,0.6755,,,,,,,,,,,,,,,,,,,,,,5ecb57ce8473f06bc2a5060a,61036f361cbe328e09cf2633,2021-07-29_23h18.44.300,Simcolourproject_2stim_asymm_v5,2020.2.10,MacIntel,60,61025ae37ef11b136ea224fe,,,,,,,,,2059,-21.9140625,40.60546875,1,0,0,response7disk,,0,-15.16015625,4.3515625,1,0,0,rectangle,-15.16015625,4.3515625,1,0,0,-15.16015625,4.3515625,1,0,0,1,39,199,125,1,,,,,,,,
,,,,,,,,,,,,,FF,,,,,,,,0.941,,,,,,,,,,,,,,,,,,,,,,5ecb57ce8473f06bc2a5060a,61036f361cbe328e09cf2633,2021-07-29_23h18.44.300,Simcolourproject_2stim_asymm_v5,2020.2.10,MacIntel,60,61025ae37ef11b136ea224fe,,,,,,,,,843,-19.40625,58.859375,1,0,0,response7disk,,0,-8.3515625,3.64453125,1,0,0,rectangle,-8.3515625,3.64453125,1,0,0,-8.3515625,3.64453125,1,0,0,1,40,200,34,1,,,,,,,,
,,,,,,,,,,,,,FF,,,,,,,,1.5569,,,,,,,,,,,,,,,,,,,,,,5ecb57ce8473f06bc2a5060a,61036f361cbe328e09cf2633,2021-07-29_23h18.44.300,Simcolourproject_2stim_asymm_v5,2020.2.10,MacIntel,60,61025ae37ef11b136ea224fe,,,,,,,,,1648,-21.65625,37.37109375,1,0,0,response7disk,,0,-13.140625,-4.13671875,1,0,0,rectangle,-13.140625,-4.13671875,1,0,0,-13.140625,-4.13671875,1,0,0,1,41,201,12,1,,,,,,,,
,,,,,,,,,,,,,FF,,,,,,,,1.5147,,,,,,,,,,,,,,,,,,,,,,5ecb57ce8473f06bc2a5060a,61036f361cbe328e09cf2633,2021-07-29_23h18.44.300,Simcolourproject_2stim_asymm_v5,2020.2.10,MacIntel,60,61025ae37ef11b136ea224fe,,,,,,,,,3714,65.19140625,60.0234375,1,0,0,response1disk,,6,12.09765625,7.4140625,1,0,0,rectangle,12.09765625,7.4140625,1,0,0,12.09765625,7.4140625,1,0,0,1,42,202,10,1,,,,,,,,
,,,,,,,,,,,,,FF,,,,,,,,1.6466,,,,,,,,,,,,,,,,,,,,,,5ecb57ce8473f06bc2a5060a,61036f361cbe328e09cf2633,2021-07-29_23h18.44.300,Simcolourproject_2stim_asymm_v5,2020.2.10,MacIntel,60,61025ae37ef11b136ea224fe,,,,,,,,,2746,-53.76953125,29.99609375,1,0,0,response7disk,,1,-9.7265625,7.859375,1,0,0,rectangle,-9.7265625,7.859375,1,0,0,-9.7265625,7.859375,1,0,0,1,43,203,71,1,,,,,,,,
,,,,,,,,,,,,,FF,,,,,,,,1.0496,,,,,,,,,,,,,,,,,,,,,,5ecb57ce8473f06bc2a5060a,61036f361cbe328e09cf2633,2021-07-29_23h18.44.300,Simcolourproject_2stim_asymm_v5,2020.2.10,MacIntel,60,61025ae37ef11b136ea224fe,,,,,,,,,2457,-57.87890625,46.109375,1,0,0,response7disk,,1,-19.0703125,-12.02734375,1,0,0,rectangle,-19.0703125,-12.02734375,1,0,0,-19.0703125,-12.02734375,1,0,0,1,44,204,101,1,,,,,,,,
,,,,,,,,,,,,,FF,,,,,,,,1.0055,,,,,,,,,,,,,,,,,,,,,,5ecb57ce8473f06bc2a5060a,61036f361cbe328e09cf2633,2021-07-29_23h18.44.300,Simcolourproject_2stim_asymm_v5,2020.2.10,MacIntel,60,61025ae37ef11b136ea224fe,,,,,,,,,436,61.98046875,-29.96875,1,0,0,response3disk,,5,9.4140625,-2.66015625,1,0,0,rectangle,9.4140625,-2.66015625,1,0,0,9.4140625,-2.66015625,1,0,0,1,45,205,152,1,,,,,,,,
,,,,,,,,,,,,,FF,,,,,,,,1.2865,,,,,,,,,,,,,,,,,,,,,,5ecb57ce8473f06bc2a5060a,61036f361cbe328e09cf2633,2021-07-29_23h18.44.300,Simcolourproject_2stim_asymm_v5,2020.2.10,MacIntel,60,61025ae37ef11b136ea224fe,,,,,,,,,2405,-51.76171875,26.5625,1,0,0,response7disk,,1,8.46875,1.0234375,1,0,0,rectangle,8.46875,1.0234375,1,0,0,8.46875,1.0234375,1,0,0,1,46,206,31,1,,,,,,,,
,,,,,,,,,,,,,FF,,,,,,,,0.7519,,,,,,,,,,,,,,,,,,,,,,5ecb57ce8473f06bc2a5060a,61036f361cbe328e09cf2633,2021-07-29_23h18.44.300,Simcolourproject_2stim_asymm_v5,2020.2.10,MacIntel,60,61025ae37ef11b136ea224fe,,,,,,,,,2402,-18.55078125,53.6796875,1,0,0,response7disk,,0,-9.12890625,-8.86328125,1,0,0,rectangle,-9.12890625,-8.86328125,1,0,0,-9.12890625,-8.86328125,1,0,0,1,47,207,112,1,,,,,,,,
,,,,,,,,,,,,,FF,,,,,,,,2.4487,,,,,,,,,,,,,,,,,,,,,,5ecb57ce8473f06bc2a5060a,61036f361cbe328e09cf2633,2021-07-29_23h18.44.300,Simcolourproject_2stim_asymm_v5,2020.2.10,MacIntel,60,61025ae37ef11b136ea224fe,,,,,,,,,162,-54.09765625,45.86328125,1,0,0,response7disk,,1,-16.18359375,5.59765625,1,0,0,rectangle,-16.18359375,5.59765625,1,0,0,-16.18359375,5.59765625,1,0,0,1,48,208,17,1,,,,,,,,
,,,,,,,,,,,,,FF,,,,,,,,0.7224,,,,,,,,,,,,,,,,,,,,,,5ecb57ce8473f06bc2a5060a,61036f361cbe328e09cf2633,2021-07-29_23h18.44.300,Simcolourproject_2stim_asymm_v5,2020.2.10,MacIntel,60,61025ae37ef11b136ea224fe,,,,,,,,,4161,32.98046875,47.8828125,1,0,0,response1disk,,7,-4.03515625,-10.546875,1,0,0,rectangle,-4.03515625,-10.546875,1,0,0,-4.03515625,-10.546875,1,0,0,1,49,209,80,1,,,,,,,,
,,,,,,,,,,,,,FF,,,,,,,,1.2173,,,,,,,,,,,,,,,,,,,,,,5ecb57ce8473f06bc2a5060a,61036f361cbe328e09cf2633,2021-07-29_23h18.44.300,Simcolourproject_2stim_asymm_v5,2020.2.10,MacIntel,60,61025ae37ef11b136ea224fe,,,,,,,,,2421,15.2265625,59.6875,1,0,0,response1disk,,7,-11.59765625,-1.78125,1,0,0,rectangle,-11.59765625,-1.78125,1,0,0,-11.59765625,-1.78125,1,0,0,1,50,210,150,1,,,,,,,,
,,,,,,,,,,,,,FF,,,,,,,,0.8842,,,,,,,,,,,,,,,,,,,,,,5ecb57ce8473f06bc2a5060a,61036f361cbe328e09cf2633,2021-07-29_23h18.44.300,Simcolourproject_2stim_asymm_v5,2020.2.10,MacIntel,60,61025ae37ef11b136ea224fe,,,,,,,,,2584,-72.30078125,28.37890625,1,0,0,response7disk,,1,-16.20703125,-8.078125,1,0,0,rectangle,-16.20703125,-8.078125,1,0,0,-16.20703125,-8.078125,1,0,0,1,51,211,144,1,,,,,,,,
,,,,,,,,,,,,,FF,,,,,,,,1.9354,,,,,,,,,,,,,,,,,,,,,,5ecb57ce8473f06bc2a5060a,61036f361cbe328e09cf2633,2021-07-29_23h18.44.300,Simcolourproject_2stim_asymm_v5,2020.2.10,MacIntel,60,61025ae37ef11b136ea224fe,,,,,,,,,4302,-47.99609375,38.640625,1,0,0,response7disk,,1,3.203125,6.22265625,1,0,0,rectangle,3.203125,6.22265625,1,0,0,3.203125,6.22265625,1,0,0,1,52,212,118,1,,,,,,,,
,,,,,,,,,,,,,FF,,,,,,,,0.5837,,,,,,,,,,,,,,,,,,,,,,5ecb57ce8473f06bc2a5060a,61036f361cbe328e09cf2633,2021-07-29_23h18.44.300,Simcolourproject_2stim_asymm_v5,2020.2.10,MacIntel,60,61025ae37ef11b136ea224fe,,,,,,,,,882,-20.43359375,37.0234375,1,0,0,response7disk,,0,-11.625,-10.94140625,1,0,0,rectangle,94.3828125,30.2421875,1,0,0,6.390625,1.328125,1,0,0,1,53,213,83,1,,response1disk_3,TRUE,6,6,"[70,268,70,34,50,144,191,37,62,55,47,269,297,122,53,316,320,25,214,30]",1.8163,rectangle
,,,,,,,,,,,,,FF,,,,,,,,0.8343,,,,,,,,,,,,,,,,,,,,,,5ecb57ce8473f06bc2a5060a,61036f361cbe328e09cf2633,2021-07-29_23h18.44.300,Simcolourproject_2stim_asymm_v5,2020.2.10,MacIntel,60,61025ae37ef11b136ea224fe,,,,,,,,,1893,56.58203125,-40.37890625,1,0,0,response3disk,,5,-7.21484375,-1.984375,1,0,0,rectangle,-7.21484375,-1.984375,1,0,0,-7.21484375,-1.984375,1,0,0,1,54,214,68,1,,,,,,,,
,,,,,,,,,,,,,FF,,,,,,,,0.9845,,,,,,,,,,,,,,,,,,,,,,5ecb57ce8473f06bc2a5060a,61036f361cbe328e09cf2633,2021-07-29_23h18.44.300,Simcolourproject_2stim_asymm_v5,2020.2.10,MacIntel,60,61025ae37ef11b136ea224fe,,,,,,,,,1329,-37.3828125,61.7734375,1,0,0,response7disk,,0,-12.90625,-5.7734375,1,0,0,rectangle,-12.90625,-5.7734375,1,0,0,-12.90625,-5.7734375,1,0,0,1,55,215,49,1,,,,,,,,
,,,,,,,,,,,,,FF,,,,,,,,0.7995,,,,,,,,,,,,,,,,,,,,,,5ecb57ce8473f06bc2a5060a,61036f361cbe328e09cf2633,2021-07-29_23h18.44.300,Simcolourproject_2stim_asymm_v5,2020.2.10,MacIntel,60,61025ae37ef11b136ea224fe,,,,,,,,,299,-24.46875,-48.0234375,1,0,0,response5disk,,3,-8.58984375,-2.52734375,1,0,0,rectangle,-8.58984375,-2.52734375,1,0,0,-8.58984375,-2.52734375,1,0,0,1,56,216,114,1,,,,,,,,
,,,,,,,,,,,,,FF,,,,,,,,0.7199,,,,,,,,,,,,,,,,,,,,,,5ecb57ce8473f06bc2a5060a,61036f361cbe328e09cf2633,2021-07-29_23h18.44.300,Simcolourproject_2stim_asymm_v5,2020.2.10,MacIntel,60,61025ae37ef11b136ea224fe,,,,,,,,,3302,35.94921875,-47.265625,1,0,0,response3disk,,4,23.69921875,11.2265625,1,0,0,rectangle,23.69921875,11.2265625,1,0,0,23.69921875,11.2265625,1,0,0,1,57,217,32,1,,,,,,,,
,,,,,,,,,,,,,FF,,,,,,,,0.7182,,,,,,,,,,,,,,,,,,,,,,5ecb57ce8473f06bc2a5060a,61036f361cbe328e09cf2633,2021-07-29_23h18.44.300,Simcolourproject_2stim_asymm_v5,2020.2.10,MacIntel,60,61025ae37ef11b136ea224fe,,,,,,,,,1249,-28.890625,-37.81640625,1,0,0,response5disk,,3,-16.19921875,-11.609375,1,0,0,rectangle,-16.19921875,-11.609375,1,0,0,-16.19921875,-11.609375,1,0,0,1,58,218,13,1,,,,,,,,
,,,,,,,,,,,,,FF,,,,,,,,0.6655,,,,,,,,,,,,,,,,,,,,,,5ecb57ce8473f06bc2a5060a,61036f361cbe328e09cf2633,2021-07-29_23h18.44.300,Simcolourproject_2stim_asymm_v5,2020.2.10,MacIntel,60,61025ae37ef11b136ea224fe,,,,,,,,,2356,74.625,-22.44921875,1,0,0,response3disk,,5,27.7109375,0.82421875,1,0,0,rectangle,27.7109375,0.82421875,1,0,0,27.7109375,0.82421875,1,0,0,1,59,219,142,1,,,,,,,,
,,,,,,,,,,,,,FF,,,,,,,,0.934,,,,,,,,,,,,,,,,,,,,,,5ecb57ce8473f06bc2a5060a,61036f361cbe328e09cf2633,2021-07-29_23h18.44.300,Simcolourproject_2stim_asymm_v5,2020.2.10,MacIntel,60,61025ae37ef11b136ea224fe,,,,,,,,,2141,-41.125,40.1171875,1,0,0,response7disk,,1,-8.12109375,-7.625,1,0,0,rectangle,-8.12109375,-7.625,1,0,0,-8.12109375,-7.625,1,0,0,1,60,220,54,1,,,,,,,,
,,,,,,,,,,,,,FF,,,,,,,,0.7341,,,,,,,,,,,,,,,,,,,,,,5ecb57ce8473f06bc2a5060a,61036f361cbe328e09cf2633,2021-07-29_23h18.44.300,Simcolourproject_2stim_asymm_v5,2020.2.10,MacIntel,60,61025ae37ef11b136ea224fe,,,,,,,,,1578,-27.53125,36.8671875,1,0,0,response7disk,,0,-20.76171875,2.48828125,1,0,0,rectangle,-20.76171875,2.48828125,1,0,0,-20.76171875,2.48828125,1,0,0,1,61,221,25,1,,,,,,,,
,,,,,,,,,,,,,FF,,,,,,,,0.7507,,,,,,,,,,,,,,,,,,,,,,5ecb57ce8473f06bc2a5060a,61036f361cbe328e09cf2633,2021-07-29_23h18.44.300,Simcolourproject_2stim_asymm_v5,2020.2.10,MacIntel,60,61025ae37ef11b136ea224fe,,,,,,,,,2802,-45.66015625,43.703125,1,0,0,response7disk,,1,-27.8984375,10.375,1,0,0,rectangle,-27.8984375,10.375,1,0,0,-27.8984375,10.375,1,0,0,1,62,222,43,1,,,,,,,,
,,,,,,,,,,,,,FF,,,,,,,,0.7695,,,,,,,,,,,,,,,,,,,,,,5ecb57ce8473f06bc2a5060a,61036f361cbe328e09cf2633,2021-07-29_23h18.44.300,Simcolourproject_2stim_asymm_v5,2020.2.10,MacIntel,60,61025ae37ef11b136ea224fe,,,,,,,,,3290,34.140625,79.30859375,1,0,0,response1disk,,7,-6.99609375,-1.51171875,1,0,0,rectangle,-6.99609375,-1.51171875,1,0,0,-6.99609375,-1.51171875,1,0,0,1,63,223,47,1,,,,,,,,
,,,,,,,,,,,,,FF,,,,,,,,0.7859,,,,,,,,,,,,,,,,,,,,,,5ecb57ce8473f06bc2a5060a,61036f361cbe328e09cf2633,2021-07-29_23h18.44.300,Simcolourproject_2stim_asymm_v5,2020.2.10,MacIntel,60,61025ae37ef11b136ea224fe,,,,,,,,,1204,40.79296875,-26.84375,1,0,0,response3disk,,5,12.21484375,-7.21484375,1,0,0,rectangle,12.21484375,-7.21484375,1,0,0,12.21484375,-7.21484375,1,0,0,1,64,224,121,1,,,,,,,,
,,,,,,,,,,,,,FF,,,,,,,,0.8498,,,,,,,,,,,,,,,,,,,,,,5ecb57ce8473f06bc2a5060a,61036f361cbe328e09cf2633,2021-07-29_23h18.44.300,Simcolourproject_2stim_asymm_v5,2020.2.10,MacIntel,60,61025ae37ef11b136ea224fe,,,,,,,,,573,55.41796875,-32.08984375,1,0,0,response3disk,,5,19.76171875,-3.4609375,1,0,0,rectangle,19.76171875,-3.4609375,1,0,0,19.76171875,-3.4609375,1,0,0,1,65,225,38,1,,,,,,,,
,,,,,,,,,,,,,FF,,,,,,,,0.8089,,,,,,,,,,,,,,,,,,,,,,5ecb57ce8473f06bc2a5060a,61036f361cbe328e09cf2633,2021-07-29_23h18.44.300,Simcolourproject_2stim_asymm_v5,2020.2.10,MacIntel,60,61025ae37ef11b136ea224fe,,,,,,,,,2278,-28.63671875,-30.6015625,1,0,0,response5disk,,3,5.01171875,1.7578125,1,0,0,rectangle,5.01171875,1.7578125,1,0,0,5.01171875,1.7578125,1,0,0,1,66,226,26,1,,,,,,,,
,,,,,,,,,,,,,FF,,,,,,,,1.1363,,,,,,,,,,,,,,,,,,,,,,5ecb57ce8473f06bc2a5060a,61036f361cbe328e09cf2633,2021-07-29_23h18.44.300,Simcolourproject_2stim_asymm_v5,2020.2.10,MacIntel,60,61025ae37ef11b136ea224fe,,,,,,,,,426,-33.109375,58.09375,1,0,0,response7disk,,0,-28.84375,-6.58203125,1,0,0,rectangle,-28.84375,-6.58203125,1,0,0,-28.84375,-6.58203125,1,0,0,1,67,227,116,1,,,,,,,,
,,,,,,,,,,,,,FF,,,,,,,,0.7175,,,,,,,,,,,,,,,,,,,,,,5ecb57ce8473f06bc2a5060a,61036f361cbe328e09cf2633,2021-07-29_23h18.44.300,Simcolourproject_2stim_asymm_v5,2020.2.10,MacIntel,60,61025ae37ef11b136ea224fe,,,,,,,,,2620,-51.2578125,31.66015625,1,0,0,response7disk,,1,7.92578125,4.8046875,1,0,0,rectangle,7.92578125,4.8046875,1,0,0,7.92578125,4.8046875,1,0,0,1,68,228,1,1,,,,,,,,
,,,,,,,,,,,,,FF,,,,,,,,0.7671,,,,,,,,,,,,,,,,,,,,,,5ecb57ce8473f06bc2a5060a,61036f361cbe328e09cf2633,2021-07-29_23h18.44.300,Simcolourproject_2stim_asymm_v5,2020.2.10,MacIntel,60,61025ae37ef11b136ea224fe,,,,,,,,,1005,-37.25390625,26.3046875,1,0,0,response7disk,,1,-8.38671875,5.5625,1,0,0,rectangle,-8.38671875,5.5625,1,0,0,-8.38671875,5.5625,1,0,0,1,69,229,79,1,,,,,,,,
,,,,,,,,,,,,,FF,,,,,,,,12.243,,,,,,,,,,,,,,,,,,,,,,5ecb57ce8473f06bc2a5060a,61036f361cbe328e09cf2633,2021-07-29_23h18.44.300,Simcolourproject_2stim_asymm_v5,2020.2.10,MacIntel,60,61025ae37ef11b136ea224fe,,,,,,,,,54,-44.203125,59.38671875,1,0,0,response7disk,,0,-16.66796875,-1.95703125,1,0,0,rectangle,-16.66796875,-1.95703125,1,0,0,-16.66796875,-1.95703125,1,0,0,1,70,230,67,1,,,,,,,,
,,,,,,,,,,,,,FF,,,,,,,,0.7827,,,,,,,,,,,,,,,,,,,,,,5ecb57ce8473f06bc2a5060a,61036f361cbe328e09cf2633,2021-07-29_23h18.44.300,Simcolourproject_2stim_asymm_v5,2020.2.10,MacIntel,60,61025ae37ef11b136ea224fe,,,,,,,,,3048,49.94140625,56,1,0,0,response1disk,,7,15.1953125,1.484375,1,0,0,rectangle,15.1953125,1.484375,1,0,0,15.1953125,1.484375,1,0,0,1,71,231,102,1,,,,,,,,
,,,,,,,,,,,,,FF,,,,,,,,1.5535,,,,,,,,,,,,,,,,,,,,,,5ecb57ce8473f06bc2a5060a,61036f361cbe328e09cf2633,2021-07-29_23h18.44.300,Simcolourproject_2stim_asymm_v5,2020.2.10,MacIntel,60,61025ae37ef11b136ea224fe,,,,,,,,,4098,52.48046875,102,1,0,0,response1disk,,7,1.40625,0.53125,1,0,0,rectangle,1.40625,0.53125,1,0,0,1.40625,0.53125,1,0,0,1,72,232,23,1,,,,,,,,
,,,,,,,,,,,,,FF,,,,,,,,0.6019,,,,,,,,,,,,,,,,,,,,,,5ecb57ce8473f06bc2a5060a,61036f361cbe328e09cf2633,2021-07-29_23h18.44.300,Simcolourproject_2stim_asymm_v5,2020.2.10,MacIntel,60,61025ae37ef11b136ea224fe,,,,,,,,,563,25.91796875,64.2890625,1,0,0,response1disk,,7,20.6328125,2.609375,1,0,0,rectangle,20.6328125,2.609375,1,0,0,20.6328125,2.609375,1,0,0,1,73,233,64,1,,,,,,,,
,,,,,,,,,,,,,FF,,,,,,,,0.785,,,,,,,,,,,,,,,,,,,,,,5ecb57ce8473f06bc2a5060a,61036f361cbe328e09cf2633,2021-07-29_23h18.44.300,Simcolourproject_2stim_asymm_v5,2020.2.10,MacIntel,60,61025ae37ef11b136ea224fe,,,,,,,,,1081,-77.5234375,82.4609375,1,0,0,response7disk,,0,1.69140625,-7.96484375,1,0,0,rectangle,1.69140625,-7.96484375,1,0,0,1.69140625,-7.96484375,1,0,0,1,74,234,22,1,,,,,,,,
,,,,,,,,,,,,,FF,,,,,,,,0.4831,,,,,,,,,,,,,,,,,,,,,,5ecb57ce8473f06bc2a5060a,61036f361cbe328e09cf2633,2021-07-29_23h18.44.300,Simcolourproject_2stim_asymm_v5,2020.2.10,MacIntel,60,61025ae37ef11b136ea224fe,,,,,,,,,3426,28.45703125,71.8828125,1,0,0,response1disk,,7,1.40625,-4.09765625,1,0,0,rectangle,1.40625,-4.09765625,1,0,0,1.40625,-4.09765625,1,0,0,1,75,235,155,1,,,,,,,,
,,,,,,,,,,,,,FF,,,,,,,,0.9678,,,,,,,,,,,,,,,,,,,,,,5ecb57ce8473f06bc2a5060a,61036f361cbe328e09cf2633,2021-07-29_23h18.44.300,Simcolourproject_2stim_asymm_v5,2020.2.10,MacIntel,60,61025ae37ef11b136ea224fe,,,,,,,,,4013,-43.37109375,77.09375,1,0,0,response7disk,,0,-19.59765625,-1.20703125,1,0,0,rectangle,-19.59765625,-1.20703125,1,0,0,-19.59765625,-1.20703125,1,0,0,1,76,236,33,1,,,,,,,,
,,,,,,,,,,,,,FF,,,,,,,,0.5505,,,,,,,,,,,,,,,,,,,,,,5ecb57ce8473f06bc2a5060a,61036f361cbe328e09cf2633,2021-07-29_23h18.44.300,Simcolourproject_2stim_asymm_v5,2020.2.10,MacIntel,60,61025ae37ef11b136ea224fe,,,,,,,,,768,-69.83984375,31.078125,1,0,0,response7disk,,1,-26.02734375,12.12890625,1,0,0,rectangle,-26.02734375,12.12890625,1,0,0,-26.02734375,12.12890625,1,0,0,1,77,237,85,1,,,,,,,,
,,,,,,,,,,,,,FF,,,,,,,,0.6501,,,,,,,,,,,,,,,,,,,,,,5ecb57ce8473f06bc2a5060a,61036f361cbe328e09cf2633,2021-07-29_23h18.44.300,Simcolourproject_2stim_asymm_v5,2020.2.10,MacIntel,60,61025ae37ef11b136ea224fe,,,,,,,,,1944,-36.12890625,13.8671875,1,0,0,response7disk,,1,-14.5234375,1.21484375,1,0,0,rectangle,-14.5234375,1.21484375,1,0,0,-14.5234375,1.21484375,1,0,0,1,78,238,53,1,,,,,,,,
,,,,,,,,,,,,,FF,,,,,,,,0.7673,,,,,,,,,,,,,,,,,,,,,,5ecb57ce8473f06bc2a5060a,61036f361cbe328e09cf2633,2021-07-29_23h18.44.300,Simcolourproject_2stim_asymm_v5,2020.2.10,MacIntel,60,61025ae37ef11b136ea224fe,,,,,,,,,3746,64.015625,98.28125,1,0,0,response1disk,,7,15.94140625,3.22265625,1,0,0,rectangle,15.94140625,3.22265625,1,0,0,15.94140625,3.22265625,1,0,0,1,79,239,96,1,,,,,,,,
,,,,,,,,,,,,,FF,,,,,,,,1.3525,,,,,,,,,,,,,,,,,,,,,,5ecb57ce8473f06bc2a5060a,61036f361cbe328e09cf2633,2021-07-29_23h18.44.300,Simcolourproject_2stim_asymm_v5,2020.2.10,MacIntel,60,61025ae37ef11b136ea224fe,,,,,,,,,2187,42.30859375,-58.43359375,1,0,0,response3disk,,4,27.33203125,1.35546875,1,0,0,rectangle,27.33203125,1.35546875,1,0,0,27.33203125,1.35546875,1,0,0,1,80,240,158,1,,,,,,,,
,,,,,,,,,,,,,FF,,,,,,,,1.0342,,,,,,,,,,,,,,,,,,,,,,5ecb57ce8473f06bc2a5060a,61036f361cbe328e09cf2633,2021-07-29_23h18.44.300,Simcolourproject_2stim_asymm_v5,2020.2.10,MacIntel,60,61025ae37ef11b136ea224fe,,,,,,,,,2265,-67.296875,51.078125,1,0,0,response7disk,,1,-22.65234375,10.94140625,1,0,0,rectangle,-22.65234375,10.94140625,1,0,0,-22.65234375,10.94140625,1,0,0,1,81,241,3,1,,,,,,,,
,,,,,,,,,,,,,FF,,,,,,,,0.6173,,,,,,,,,,,,,,,,,,,,,,5ecb57ce8473f06bc2a5060a,61036f361cbe328e09cf2633,2021-07-29_23h18.44.300,Simcolourproject_2stim_asymm_v5,2020.2.10,MacIntel,60,61025ae37ef11b136ea224fe,,,,,,,,,2600,-40.3125,91.9296875,1,0,0,response7disk,,0,-15.484375,4.38671875,1,0,0,rectangle,-15.484375,4.38671875,1,0,0,-15.484375,4.38671875,1,0,0,1,82,242,153,1,,,,,,,,
,,,,,,,,,,,,,FF,,,,,,,,1.6333,,,,,,,,,,,,,,,,,,,,,,5ecb57ce8473f06bc2a5060a,61036f361cbe328e09cf2633,2021-07-29_23h18.44.300,Simcolourproject_2stim_asymm_v5,2020.2.10,MacIntel,60,61025ae37ef11b136ea224fe,,,,,,,,,609,18.0859375,-42.046875,1,0,0,response3disk,,4,6.28125,8.45703125,1,0,0,rectangle,6.28125,8.45703125,1,0,0,6.28125,8.45703125,1,0,0,1,83,243,107,1,,,,,,,,
,,,,,,,,,,,,,FF,,,,,,,,0.9514,,,,,,,,,,,,,,,,,,,,,,5ecb57ce8473f06bc2a5060a,61036f361cbe328e09cf2633,2021-07-29_23h18.44.300,Simcolourproject_2stim_asymm_v5,2020.2.10,MacIntel,60,61025ae37ef11b136ea224fe,,,,,,,,,994,23.6328125,-80.3984375,1,0,0,response3disk,,4,20.12109375,-8.22265625,1,0,0,rectangle,20.12109375,-8.22265625,1,0,0,20.12109375,-8.22265625,1,0,0,1,84,244,56,1,,,,,,,,
,,,,,,,,,,,,,FF,,,,,,,,1.2687,,,,,,,,,,,,,,,,,,,,,,5ecb57ce8473f06bc2a5060a,61036f361cbe328e09cf2633,2021-07-29_23h18.44.300,Simcolourproject_2stim_asymm_v5,2020.2.10,MacIntel,60,61025ae37ef11b136ea224fe,,,,,,,,,2460,57.0078125,-21.31640625,1,0,0,response3disk,,5,27.33984375,-9.42578125,1,0,0,rectangle,27.33984375,-9.42578125,1,0,0,27.33984375,-9.42578125,1,0,0,1,85,245,157,1,,,,,,,,
,,,,,,,,,,,,,FF,,,,,,,,0.7182,,,,,,,,,,,,,,,,,,,,,,5ecb57ce8473f06bc2a5060a,61036f361cbe328e09cf2633,2021-07-29_23h18.44.300,Simcolourproject_2stim_asymm_v5,2020.2.10,MacIntel,60,61025ae37ef11b136ea224fe,,,,,,,,,2771,71.8203125,-22.1953125,1,0,0,response3disk,,5,28.55078125,-3.2578125,1,0,0,rectangle,28.55078125,-3.2578125,1,0,0,28.55078125,-3.2578125,1,0,0,1,86,246,14,1,,,,,,,,
,,,,,,,,,,,,,FF,,,,,,,,0.6835,,,,,,,,,,,,,,,,,,,,,,5ecb57ce8473f06bc2a5060a,61036f361cbe328e09cf2633,2021-07-29_23h18.44.300,Simcolourproject_2stim_asymm_v5,2020.2.10,MacIntel,60,61025ae37ef11b136ea224fe,,,,,,,,,3420,59.12109375,-23.13671875,1,0,0,response3disk,,5,23.1875,-2.31640625,1,0,0,rectangle,23.1875,-2.31640625,1,0,0,23.1875,-2.31640625,1,0,0,1,87,247,76,1,,,,,,,,
,,,,,,,,,,,,,FF,,,,,,,,0.8543,,,,,,,,,,,,,,,,,,,,,,5ecb57ce8473f06bc2a5060a,61036f361cbe328e09cf2633,2021-07-29_23h18.44.300,Simcolourproject_2stim_asymm_v5,2020.2.10,MacIntel,60,61025ae37ef11b136ea224fe,,,,,,,,,2711,22.15234375,-37.27734375,1,0,0,response3disk,,4,0.08984375,-1.953125,1,0,0,rectangle,0.08984375,-1.953125,1,0,0,0.08984375,-1.953125,1,0,0,1,88,248,148,1,,,,,,,,
