key_resp.keys,key_resp.rt,key_resp_14.keys,key_resp_14.rt,key_resp_15.keys,key_resp_15.rt,key_resp_17.keys,key_resp_17.rt,key_resp_9.keys,key_resp_9.rt,key_resp_10.keys,key_resp_10.rt,practice_comparison,Ecc,mouse_5.x,mouse_5.y,mouse_5.leftButton,mouse_5.midButton,mouse_5.rightButton,mouse_5.clicked_name,pracsimilarity,response_time,mouse_10.x,mouse_10.y,mouse_10.leftButton,mouse_10.midButton,mouse_10.rightButton,mouse_10.clicked_name,mouse_7.x,mouse_7.y,mouse_7.leftButton,mouse_7.midButton,mouse_7.rightButton,mouse_6.x,mouse_6.y,mouse_6.leftButton,mouse_6.midButton,mouse_6.rightButton,duringprac.thisRepN,duringprac.thisTrialN,duringprac.thisN,duringprac.thisIndex,duringprac.ran,participant,session,date,expName,psychopyVersion,OS,frameRate,study_id,mouse_7.clicked_name,catchpracsimilarity,catch_response_time,catchnumberprac,catchtrialorderprac,mouse_6.clicked_name,key_resp_22.keys,key_resp_22.rt,realcomparison,mouse.x,mouse.y,mouse.leftButton,mouse.midButton,mouse.rightButton,mouse.clicked_name,Colour2,similarity,mouse_2.x,mouse_2.y,mouse_2.leftButton,mouse_2.midButton,mouse_2.rightButton,mouse_2.clicked_name,mouse_3.x,mouse_3.y,mouse_3.leftButton,mouse_3.midButton,mouse_3.rightButton,mouse_11.x,mouse_11.y,mouse_11.leftButton,mouse_11.midButton,mouse_11.rightButton,trials_2.thisRepN,trials_2.thisTrialN,trials_2.thisN,trials_2.thisIndex,trials_2.ran,Colour1,mouse_3.clicked_name,catchornah,catchsimilarity,catchnumber,catchtrialorder,catchRT,mouse_11.clicked_name
space,2.3097,space,12.8315,space,34.9793,space,15.362,space,3.9839,space,6.5939,79,FF,27,75,1,0,0,response1disk_5,7,11.0992,9,-6,1,0,0,rectangle_8,9,-6,1,0,0,9,-6,1,0,0,0,0,0,5,1,5ecfd0b927d04d049d65b73d,61036eccf7272343cda563b6,2021-07-30_05h17.29.921,Simcolourproject_2stim_asymm_v5,2020.2.10,Win32,60,61025ae37ef11b136ea224fe,,,,,,,,,,,,,,,,,,,,,,,,,,,,,,,,,,,,,,,,,,,,,,
,,,,,,,,,,,,11,FF,98,-41,1,0,0,response3disk_5,5,6.1474,-18,-3,1,0,0,rectangle_8,-38,79,1,0,0,-6,-6,1,0,0,0,1,1,0,1,5ecfd0b927d04d049d65b73d,61036eccf7272343cda563b6,2021-07-30_05h17.29.921,Simcolourproject_2stim_asymm_v5,2020.2.10,Win32,60,61025ae37ef11b136ea224fe,response7disk_7,0,2.4491,0,"[2,5]",rectangle_4,,,,,,,,,,,,,,,,,,,,,,,,,,,,,,,,,,,,,,,,
,,,,,,,,,,,,119,PF,43,100,1,0,0,response1disk_5,7,2.6323,-6,-1,1,0,0,rectangle_8,-6,-1,1,0,0,-6,-1,1,0,0,0,2,2,6,1,5ecfd0b927d04d049d65b73d,61036eccf7272343cda563b6,2021-07-30_05h17.29.921,Simcolourproject_2stim_asymm_v5,2020.2.10,Win32,60,61025ae37ef11b136ea224fe,,,,,,,,,,,,,,,,,,,,,,,,,,,,,,,,,,,,,,,,,,,,,,
,,,,,,,,,,,,129,FF,33,-81,1,0,0,response3disk_5,4,4.3486,5,0,1,0,0,rectangle_8,5,0,1,0,0,5,0,1,0,0,0,3,3,3,1,5ecfd0b927d04d049d65b73d,61036eccf7272343cda563b6,2021-07-30_05h17.29.921,Simcolourproject_2stim_asymm_v5,2020.2.10,Win32,60,61025ae37ef11b136ea224fe,,,,,,,,,,,,,,,,,,,,,,,,,,,,,,,,,,,,,,,,,,,,,,
,,,,,,,,,,,,144,PF,96,36,1,0,0,response1disk_5,6,2.0326,18,-4,1,0,0,rectangle_8,-40,88,1,0,0,7,-9,1,0,0,0,4,4,1,1,5ecfd0b927d04d049d65b73d,61036eccf7272343cda563b6,2021-07-30_05h17.29.921,Simcolourproject_2stim_asymm_v5,2020.2.10,Win32,60,61025ae37ef11b136ea224fe,response7disk_7,0,1.8161,0,"[2,5]",rectangle_4,,,,,,,,,,,,,,,,,,,,,,,,,,,,,,,,,,,,,,,,
,,,,,,,,,,,,138,PF,-37,88,1,0,0,response7disk_5,0,3.2155,-12,3,1,0,0,rectangle_8,-12,3,1,0,0,-12,3,1,0,0,0,5,5,4,1,5ecfd0b927d04d049d65b73d,61036eccf7272343cda563b6,2021-07-30_05h17.29.921,Simcolourproject_2stim_asymm_v5,2020.2.10,Win32,60,61025ae37ef11b136ea224fe,,,,,,,,,,,,,,,,,,,,,,,,,,,,,,,,,,,,,,,,,,,,,,
,,,,,,,,,,,,57,PF,-53,-33,1,0,0,response5disk_5,2,3.7656,-13,10,1,0,0,rectangle_8,-13,10,1,0,0,-13,10,1,0,0,0,6,6,2,1,5ecfd0b927d04d049d65b73d,61036eccf7272343cda563b6,2021-07-30_05h17.29.921,Simcolourproject_2stim_asymm_v5,2020.2.10,Win32,60,61025ae37ef11b136ea224fe,,,,,,,,,,,,,,,,,,,,,,,,,,,,,,,,,,,,,,,,,,,,,,
,,,,,,,,,,,,,FF,,,,,,,,3.8825,,,,,,,,,,,,,,,,,,,,,,5ecfd0b927d04d049d65b73d,61036eccf7272343cda563b6,2021-07-30_05h17.29.921,Simcolourproject_2stim_asymm_v5,2020.2.10,Win32,60,61025ae37ef11b136ea224fe,,,,,,,space,4.0045,396,49,86,1,0,0,response1disk,,7,3,10,1,0,0,rectangle,3,10,1,0,0,3,10,1,0,0,0,0,0,49,1,,,,,,,,
,,,,,,,,,,,,,FF,,,,,,,,1.8324,,,,,,,,,,,,,,,,,,,,,,5ecfd0b927d04d049d65b73d,61036eccf7272343cda563b6,2021-07-30_05h17.29.921,Simcolourproject_2stim_asymm_v5,2020.2.10,Win32,60,61025ae37ef11b136ea224fe,,,,,,,,,2637,81,-42,1,0,0,response3disk,,5,7,2,1,0,0,rectangle,7,2,1,0,0,7,2,1,0,0,0,1,1,110,1,,,,,,,,
,,,,,,,,,,,,,FF,,,,,,,,4.1818,,,,,,,,,,,,,,,,,,,,,,5ecfd0b927d04d049d65b73d,61036eccf7272343cda563b6,2021-07-30_05h17.29.921,Simcolourproject_2stim_asymm_v5,2020.2.10,Win32,60,61025ae37ef11b136ea224fe,,,,,,,,,1587,58,-31,1,0,0,response3disk,,5,-2,9,1,0,0,rectangle,-2,9,1,0,0,-2,9,1,0,0,0,2,2,93,1,,,,,,,,
,,,,,,,,,,,,,FF,,,,,,,,1.7825,,,,,,,,,,,,,,,,,,,,,,5ecfd0b927d04d049d65b73d,61036eccf7272343cda563b6,2021-07-30_05h17.29.921,Simcolourproject_2stim_asymm_v5,2020.2.10,Win32,60,61025ae37ef11b136ea224fe,,,,,,,,,1953,38,65,1,0,0,response1disk,,7,9,-9,1,0,0,rectangle,9,-9,1,0,0,9,-9,1,0,0,0,3,3,102,1,,,,,,,,
,,,,,,,,,,,,,FF,,,,,,,,3.2489,,,,,,,,,,,,,,,,,,,,,,5ecfd0b927d04d049d65b73d,61036eccf7272343cda563b6,2021-07-30_05h17.29.921,Simcolourproject_2stim_asymm_v5,2020.2.10,Win32,60,61025ae37ef11b136ea224fe,,,,,,,,,310,86,36,1,0,0,response1disk,,6,2,2,1,0,0,rectangle,2,2,1,0,0,2,2,1,0,0,0,4,4,66,1,,,,,,,,
,,,,,,,,,,,,,FF,,,,,,,,1.9494,,,,,,,,,,,,,,,,,,,,,,5ecfd0b927d04d049d65b73d,61036eccf7272343cda563b6,2021-07-30_05h17.29.921,Simcolourproject_2stim_asymm_v5,2020.2.10,Win32,60,61025ae37ef11b136ea224fe,,,,,,,,,771,54,22,1,0,0,response1disk,,6,22,1,1,0,0,rectangle,22,1,1,0,0,22,1,1,0,0,0,5,5,24,1,,,,,,,,
,,,,,,,,,,,,,FF,,,,,,,,3.6487,,,,,,,,,,,,,,,,,,,,,,5ecfd0b927d04d049d65b73d,61036eccf7272343cda563b6,2021-07-30_05h17.29.921,Simcolourproject_2stim_asymm_v5,2020.2.10,Win32,60,61025ae37ef11b136ea224fe,,,,,,,,,3946,59,-71,1,0,0,response3disk,,4,0,-10,1,0,0,rectangle,0,-10,1,0,0,0,-10,1,0,0,0,6,6,62,1,,,,,,,,
,,,,,,,,,,,,,FF,,,,,,,,2.5657,,,,,,,,,,,,,,,,,,,,,,5ecfd0b927d04d049d65b73d,61036eccf7272343cda563b6,2021-07-30_05h17.29.921,Simcolourproject_2stim_asymm_v5,2020.2.10,Win32,60,61025ae37ef11b136ea224fe,,,,,,,,,1356,59,110,1,0,0,response1disk,,7,5,-13,1,0,0,rectangle,5,-13,1,0,0,5,-13,1,0,0,0,7,7,85,1,,,,,,,,
,,,,,,,,,,,,,FF,,,,,,,,0.9164,,,,,,,,,,,,,,,,,,,,,,5ecfd0b927d04d049d65b73d,61036eccf7272343cda563b6,2021-07-30_05h17.29.921,Simcolourproject_2stim_asymm_v5,2020.2.10,Win32,60,61025ae37ef11b136ea224fe,,,,,,,,,2560,25,75,1,0,0,response1disk,,7,-4,0,1,0,0,rectangle,-4,0,1,0,0,-4,0,1,0,0,0,8,8,8,1,,,,,,,,
,,,,,,,,,,,,,FF,,,,,,,,1.9994,,,,,,,,,,,,,,,,,,,,,,5ecfd0b927d04d049d65b73d,61036eccf7272343cda563b6,2021-07-30_05h17.29.921,Simcolourproject_2stim_asymm_v5,2020.2.10,Win32,60,61025ae37ef11b136ea224fe,,,,,,,,,2362,-22,-76,1,0,0,response5disk,,3,3,4,1,0,0,rectangle,3,4,1,0,0,3,4,1,0,0,0,9,9,20,1,,,,,,,,
,,,,,,,,,,,,,FF,,,,,,,,1.3494,,,,,,,,,,,,,,,,,,,,,,5ecfd0b927d04d049d65b73d,61036eccf7272343cda563b6,2021-07-30_05h17.29.921,Simcolourproject_2stim_asymm_v5,2020.2.10,Win32,60,61025ae37ef11b136ea224fe,,,,,,,,,1305,38,-84,1,0,0,response3disk,,4,11,4,1,0,0,rectangle,11,4,1,0,0,11,4,1,0,0,0,10,10,97,1,,,,,,,,
,,,,,,,,,,,,,FF,,,,,,,,1.4496,,,,,,,,,,,,,,,,,,,,,,5ecfd0b927d04d049d65b73d,61036eccf7272343cda563b6,2021-07-30_05h17.29.921,Simcolourproject_2stim_asymm_v5,2020.2.10,Win32,60,61025ae37ef11b136ea224fe,,,,,,,,,3132,81,53,1,0,0,response1disk,,6,11,3,1,0,0,rectangle,11,3,1,0,0,11,3,1,0,0,0,11,11,27,1,,,,,,,,
,,,,,,,,,,,,,FF,,,,,,,,1.1498,,,,,,,,,,,,,,,,,,,,,,5ecfd0b927d04d049d65b73d,61036eccf7272343cda563b6,2021-07-30_05h17.29.921,Simcolourproject_2stim_asymm_v5,2020.2.10,Win32,60,61025ae37ef11b136ea224fe,,,,,,,,,828,39,68,1,0,0,response1disk,,7,-1,12,1,0,0,rectangle,-1,12,1,0,0,-1,12,1,0,0,0,12,12,54,1,,,,,,,,
,,,,,,,,,,,,,FF,,,,,,,,4.9312,,,,,,,,,,,,,,,,,,,,,,5ecfd0b927d04d049d65b73d,61036eccf7272343cda563b6,2021-07-30_05h17.29.921,Simcolourproject_2stim_asymm_v5,2020.2.10,Win32,60,61025ae37ef11b136ea224fe,,,,,,,,,2651,44,-30,1,0,0,response3disk,,5,15,-13,1,0,0,rectangle,15,-13,1,0,0,15,-13,1,0,0,0,13,13,86,1,,,,,,,,
,,,,,,,,,,,,,FF,,,,,,,,1.7661,,,,,,,,,,,,,,,,,,,,,,5ecfd0b927d04d049d65b73d,61036eccf7272343cda563b6,2021-07-30_05h17.29.921,Simcolourproject_2stim_asymm_v5,2020.2.10,Win32,60,61025ae37ef11b136ea224fe,,,,,,,,,1610,-34,-64,1,0,0,response5disk,,3,-7,-7,1,0,0,rectangle,-7,-7,1,0,0,-7,-7,1,0,0,0,14,14,158,1,,,,,,,,
,,,,,,,,,,,,,FF,,,,,,,,2.749,,,,,,,,,,,,,,,,,,,,,,5ecfd0b927d04d049d65b73d,61036eccf7272343cda563b6,2021-07-30_05h17.29.921,Simcolourproject_2stim_asymm_v5,2020.2.10,Win32,60,61025ae37ef11b136ea224fe,,,,,,,,,2292,-74,41,1,0,0,response7disk,,1,30,4,1,0,0,rectangle,-31,85,1,0,0,11,-6,1,0,0,0,15,15,121,1,,response7disk_3,TRUE,0,0,"[108,127,52,114,235,187,104,72,36,62,98,17,233,284,187,288,235,16,209,209]",1.7167,rectangle
,,,,,,,,,,,,,FF,,,,,,,,1.5492,,,,,,,,,,,,,,,,,,,,,,5ecfd0b927d04d049d65b73d,61036eccf7272343cda563b6,2021-07-30_05h17.29.921,Simcolourproject_2stim_asymm_v5,2020.2.10,Win32,60,61025ae37ef11b136ea224fe,,,,,,,,,1983,70,40,1,0,0,response1disk,,6,-11,-7,1,0,0,rectangle,-38,88,1,0,0,1,-1,1,0,0,0,16,16,15,1,,response7disk_3,TRUE,0,0,"[108,127,52,114,235,187,104,72,36,62,98,17,233,284,187,288,235,16,209,209]",2.3493,rectangle
,,,,,,,,,,,,,FF,,,,,,,,1.8995,,,,,,,,,,,,,,,,,,,,,,5ecfd0b927d04d049d65b73d,61036eccf7272343cda563b6,2021-07-30_05h17.29.921,Simcolourproject_2stim_asymm_v5,2020.2.10,Win32,60,61025ae37ef11b136ea224fe,,,,,,,,,650,42,85,1,0,0,response1disk,,7,6,12,1,0,0,rectangle,6,12,1,0,0,6,12,1,0,0,0,17,17,70,1,,,,,,,,
,,,,,,,,,,,,,FF,,,,,,,,2.0993,,,,,,,,,,,,,,,,,,,,,,5ecfd0b927d04d049d65b73d,61036eccf7272343cda563b6,2021-07-30_05h17.29.921,Simcolourproject_2stim_asymm_v5,2020.2.10,Win32,60,61025ae37ef11b136ea224fe,,,,,,,,,813,69,94,1,0,0,response1disk,,7,16,-15,1,0,0,rectangle,16,-15,1,0,0,16,-15,1,0,0,0,18,18,159,1,,,,,,,,
,,,,,,,,,,,,,FF,,,,,,,,1.0163,,,,,,,,,,,,,,,,,,,,,,5ecfd0b927d04d049d65b73d,61036eccf7272343cda563b6,2021-07-30_05h17.29.921,Simcolourproject_2stim_asymm_v5,2020.2.10,Win32,60,61025ae37ef11b136ea224fe,,,,,,,,,2231,35,80,1,0,0,response1disk,,7,10,9,1,0,0,rectangle,10,9,1,0,0,10,9,1,0,0,0,19,19,94,1,,,,,,,,
,,,,,,,,,,,,,FF,,,,,,,,1.5329,,,,,,,,,,,,,,,,,,,,,,5ecfd0b927d04d049d65b73d,61036eccf7272343cda563b6,2021-07-30_05h17.29.921,Simcolourproject_2stim_asymm_v5,2020.2.10,Win32,60,61025ae37ef11b136ea224fe,,,,,,,,,4173,68,90,1,0,0,response1disk,,7,22,9,1,0,0,rectangle,22,9,1,0,0,22,9,1,0,0,0,20,20,48,1,,,,,,,,
,,,,,,,,,,,,,FF,,,,,,,,3.5653,,,,,,,,,,,,,,,,,,,,,,5ecfd0b927d04d049d65b73d,61036eccf7272343cda563b6,2021-07-30_05h17.29.921,Simcolourproject_2stim_asymm_v5,2020.2.10,Win32,60,61025ae37ef11b136ea224fe,,,,,,,,,1429,86,48,1,0,0,response1disk,,6,1,4,1,0,0,rectangle,1,4,1,0,0,1,4,1,0,0,0,21,21,17,1,,,,,,,,
,,,,,,,,,,,,,FF,,,,,,,,1.5163,,,,,,,,,,,,,,,,,,,,,,5ecfd0b927d04d049d65b73d,61036eccf7272343cda563b6,2021-07-30_05h17.29.921,Simcolourproject_2stim_asymm_v5,2020.2.10,Win32,60,61025ae37ef11b136ea224fe,,,,,,,,,4322,79,36,1,0,0,response1disk,,6,16,1,1,0,0,rectangle,16,1,1,0,0,16,1,1,0,0,0,22,22,81,1,,,,,,,,
,,,,,,,,,,,,,FF,,,,,,,,0.8332,,,,,,,,,,,,,,,,,,,,,,5ecfd0b927d04d049d65b73d,61036eccf7272343cda563b6,2021-07-30_05h17.29.921,Simcolourproject_2stim_asymm_v5,2020.2.10,Win32,60,61025ae37ef11b136ea224fe,,,,,,,,,3984,44,87,1,0,0,response1disk,,7,5,8,1,0,0,rectangle,5,8,1,0,0,5,8,1,0,0,0,23,23,73,1,,,,,,,,
,,,,,,,,,,,,,FF,,,,,,,,0.9164,,,,,,,,,,,,,,,,,,,,,,5ecfd0b927d04d049d65b73d,61036eccf7272343cda563b6,2021-07-30_05h17.29.921,Simcolourproject_2stim_asymm_v5,2020.2.10,Win32,60,61025ae37ef11b136ea224fe,,,,,,,,,575,43,72,1,0,0,response1disk,,7,13,5,1,0,0,rectangle,13,5,1,0,0,13,5,1,0,0,0,24,24,99,1,,,,,,,,
,,,,,,,,,,,,,FF,,,,,,,,1.2995,,,,,,,,,,,,,,,,,,,,,,5ecfd0b927d04d049d65b73d,61036eccf7272343cda563b6,2021-07-30_05h17.29.921,Simcolourproject_2stim_asymm_v5,2020.2.10,Win32,60,61025ae37ef11b136ea224fe,,,,,,,,,560,58,76,1,0,0,response1disk,,7,17,10,1,0,0,rectangle,17,10,1,0,0,17,10,1,0,0,0,25,25,36,1,,,,,,,,
,,,,,,,,,,,,,FF,,,,,,,,3.5655,,,,,,,,,,,,,,,,,,,,,,5ecfd0b927d04d049d65b73d,61036eccf7272343cda563b6,2021-07-30_05h17.29.921,Simcolourproject_2stim_asymm_v5,2020.2.10,Win32,60,61025ae37ef11b136ea224fe,,,,,,,,,2182,44,73,1,0,0,response1disk,,7,5,-6,1,0,0,rectangle,5,-6,1,0,0,5,-6,1,0,0,0,26,26,126,1,,,,,,,,
,,,,,,,,,,,,,FF,,,,,,,,1.6327,,,,,,,,,,,,,,,,,,,,,,5ecfd0b927d04d049d65b73d,61036eccf7272343cda563b6,2021-07-30_05h17.29.921,Simcolourproject_2stim_asymm_v5,2020.2.10,Win32,60,61025ae37ef11b136ea224fe,,,,,,,,,1326,73,34,1,0,0,response1disk,,6,4,1,1,0,0,rectangle,4,1,1,0,0,4,1,1,0,0,0,27,27,116,1,,,,,,,,
,,,,,,,,,,,,,FF,,,,,,,,1.1164,,,,,,,,,,,,,,,,,,,,,,5ecfd0b927d04d049d65b73d,61036eccf7272343cda563b6,2021-07-30_05h17.29.921,Simcolourproject_2stim_asymm_v5,2020.2.10,Win32,60,61025ae37ef11b136ea224fe,,,,,,,,,380,44,68,1,0,0,response1disk,,7,-3,1,1,0,0,rectangle,-3,1,1,0,0,-3,1,1,0,0,0,28,28,156,1,,,,,,,,
,,,,,,,,,,,,,FF,,,,,,,,0.9495,,,,,,,,,,,,,,,,,,,,,,5ecfd0b927d04d049d65b73d,61036eccf7272343cda563b6,2021-07-30_05h17.29.921,Simcolourproject_2stim_asymm_v5,2020.2.10,Win32,60,61025ae37ef11b136ea224fe,,,,,,,,,1079,26,65,1,0,0,response1disk,,7,-6,-9,1,0,0,rectangle,-6,-9,1,0,0,-6,-9,1,0,0,0,29,29,130,1,,,,,,,,
,,,,,,,,,,,,,FF,,,,,,,,1.6494,,,,,,,,,,,,,,,,,,,,,,5ecfd0b927d04d049d65b73d,61036eccf7272343cda563b6,2021-07-30_05h17.29.921,Simcolourproject_2stim_asymm_v5,2020.2.10,Win32,60,61025ae37ef11b136ea224fe,,,,,,,,,3173,55,-31,1,0,0,response3disk,,5,11,-10,1,0,0,rectangle,11,-10,1,0,0,11,-10,1,0,0,0,30,30,143,1,,,,,,,,
,,,,,,,,,,,,,FF,,,,,,,,1.2829,,,,,,,,,,,,,,,,,,,,,,5ecfd0b927d04d049d65b73d,61036eccf7272343cda563b6,2021-07-30_05h17.29.921,Simcolourproject_2stim_asymm_v5,2020.2.10,Win32,60,61025ae37ef11b136ea224fe,,,,,,,,,2455,39,-29,1,0,0,response3disk,,5,3,-8,1,0,0,rectangle,3,-8,1,0,0,3,-8,1,0,0,0,31,31,41,1,,,,,,,,
,,,,,,,,,,,,,FF,,,,,,,,1.1997,,,,,,,,,,,,,,,,,,,,,,5ecfd0b927d04d049d65b73d,61036eccf7272343cda563b6,2021-07-30_05h17.29.921,Simcolourproject_2stim_asymm_v5,2020.2.10,Win32,60,61025ae37ef11b136ea224fe,,,,,,,,,4012,67,50,1,0,0,response1disk,,6,13,4,1,0,0,rectangle,13,4,1,0,0,13,4,1,0,0,0,32,32,13,1,,,,,,,,
,,,,,,,,,,,,,FF,,,,,,,,0.8832,,,,,,,,,,,,,,,,,,,,,,5ecfd0b927d04d049d65b73d,61036eccf7272343cda563b6,2021-07-30_05h17.29.921,Simcolourproject_2stim_asymm_v5,2020.2.10,Win32,60,61025ae37ef11b136ea224fe,,,,,,,,,591,67,78,1,0,0,response1disk,,7,28,19,1,0,0,rectangle,28,19,1,0,0,28,19,1,0,0,0,33,33,16,1,,,,,,,,
,,,,,,,,,,,,,FF,,,,,,,,0.8834,,,,,,,,,,,,,,,,,,,,,,5ecfd0b927d04d049d65b73d,61036eccf7272343cda563b6,2021-07-30_05h17.29.921,Simcolourproject_2stim_asymm_v5,2020.2.10,Win32,60,61025ae37ef11b136ea224fe,,,,,,,,,3809,42,60,1,0,0,response1disk,,7,22,18,1,0,0,rectangle,22,18,1,0,0,22,18,1,0,0,0,34,34,65,1,,,,,,,,
,,,,,,,,,,,,,FF,,,,,,,,11.5956,,,,,,,,,,,,,,,,,,,,,,5ecfd0b927d04d049d65b73d,61036eccf7272343cda563b6,2021-07-30_05h17.29.921,Simcolourproject_2stim_asymm_v5,2020.2.10,Win32,60,61025ae37ef11b136ea224fe,,,,,,,,,598,48,79,1,0,0,response1disk,,7,-4,-13,1,0,0,rectangle,31,-80,1,0,0,0,9,1,0,0,0,35,35,131,1,,response3disk_3,TRUE,4,4,"[108,127,52,114,235,187,104,72,36,62,98,17,233,284,187,288,235,16,209,209]",2.7489,rectangle
,,,,,,,,,,,,,FF,,,,,,,,1.5995,,,,,,,,,,,,,,,,,,,,,,5ecfd0b927d04d049d65b73d,61036eccf7272343cda563b6,2021-07-30_05h17.29.921,Simcolourproject_2stim_asymm_v5,2020.2.10,Win32,60,61025ae37ef11b136ea224fe,,,,,,,,,181,25,71,1,0,0,response1disk,,7,-7,9,1,0,0,rectangle,-7,9,1,0,0,-7,9,1,0,0,0,36,36,138,1,,,,,,,,
,,,,,,,,,,,,,FF,,,,,,,,1.0997,,,,,,,,,,,,,,,,,,,,,,5ecfd0b927d04d049d65b73d,61036eccf7272343cda563b6,2021-07-30_05h17.29.921,Simcolourproject_2stim_asymm_v5,2020.2.10,Win32,60,61025ae37ef11b136ea224fe,,,,,,,,,3388,-33,84,1,0,0,response7disk,,0,19,-4,1,0,0,rectangle,19,-4,1,0,0,19,-4,1,0,0,0,37,37,157,1,,,,,,,,
,,,,,,,,,,,,,FF,,,,,,,,5.7974,,,,,,,,,,,,,,,,,,,,,,5ecfd0b927d04d049d65b73d,61036eccf7272343cda563b6,2021-07-30_05h17.29.921,Simcolourproject_2stim_asymm_v5,2020.2.10,Win32,60,61025ae37ef11b136ea224fe,,,,,,,,,3326,62,78,1,0,0,response1disk,,7,10,7,1,0,0,rectangle,10,7,1,0,0,10,7,1,0,0,0,38,38,105,1,,,,,,,,
,,,,,,,,,,,,,FF,,,,,,,,1.2829,,,,,,,,,,,,,,,,,,,,,,5ecfd0b927d04d049d65b73d,61036eccf7272343cda563b6,2021-07-30_05h17.29.921,Simcolourproject_2stim_asymm_v5,2020.2.10,Win32,60,61025ae37ef11b136ea224fe,,,,,,,,,3159,38,79,1,0,0,response1disk,,7,5,-5,1,0,0,rectangle,5,-5,1,0,0,5,-5,1,0,0,0,39,39,96,1,,,,,,,,
,,,,,,,,,,,,,FF,,,,,,,,2.9324,,,,,,,,,,,,,,,,,,,,,,5ecfd0b927d04d049d65b73d,61036eccf7272343cda563b6,2021-07-30_05h17.29.921,Simcolourproject_2stim_asymm_v5,2020.2.10,Win32,60,61025ae37ef11b136ea224fe,,,,,,,,,2772,75,46,1,0,0,response1disk,,6,0,2,1,0,0,rectangle,0,2,1,0,0,0,2,1,0,0,0,40,40,69,1,,,,,,,,
,,,,,,,,,,,,,FF,,,,,,,,0.7164,,,,,,,,,,,,,,,,,,,,,,5ecfd0b927d04d049d65b73d,61036eccf7272343cda563b6,2021-07-30_05h17.29.921,Simcolourproject_2stim_asymm_v5,2020.2.10,Win32,60,61025ae37ef11b136ea224fe,,,,,,,,,1640,20,49,1,0,0,response1disk,,7,-5,5,1,0,0,rectangle,-5,5,1,0,0,-5,5,1,0,0,0,41,41,123,1,,,,,,,,
,,,,,,,,,,,,,FF,,,,,,,,0.8498,,,,,,,,,,,,,,,,,,,,,,5ecfd0b927d04d049d65b73d,61036eccf7272343cda563b6,2021-07-30_05h17.29.921,Simcolourproject_2stim_asymm_v5,2020.2.10,Win32,60,61025ae37ef11b136ea224fe,,,,,,,,,2747,39,96,1,0,0,response1disk,,7,-3,-6,1,0,0,rectangle,-3,-6,1,0,0,-3,-6,1,0,0,0,42,42,155,1,,,,,,,,
,,,,,,,,,,,,,FF,,,,,,,,0.6665,,,,,,,,,,,,,,,,,,,,,,5ecfd0b927d04d049d65b73d,61036eccf7272343cda563b6,2021-07-30_05h17.29.921,Simcolourproject_2stim_asymm_v5,2020.2.10,Win32,60,61025ae37ef11b136ea224fe,,,,,,,,,3680,45,80,1,0,0,response1disk,,7,9,15,1,0,0,rectangle,9,15,1,0,0,9,15,1,0,0,0,43,43,10,1,,,,,,,,
,,,,,,,,,,,,,FF,,,,,,,,2.4824,,,,,,,,,,,,,,,,,,,,,,5ecfd0b927d04d049d65b73d,61036eccf7272343cda563b6,2021-07-30_05h17.29.921,Simcolourproject_2stim_asymm_v5,2020.2.10,Win32,60,61025ae37ef11b136ea224fe,,,,,,,,,1459,-62,-31,1,0,0,response5disk,,2,-8,4,1,0,0,rectangle,-8,4,1,0,0,-8,4,1,0,0,0,44,44,122,1,,,,,,,,
,,,,,,,,,,,,,FF,,,,,,,,2.549,,,,,,,,,,,,,,,,,,,,,,5ecfd0b927d04d049d65b73d,61036eccf7272343cda563b6,2021-07-30_05h17.29.921,Simcolourproject_2stim_asymm_v5,2020.2.10,Win32,60,61025ae37ef11b136ea224fe,,,,,,,,,944,21,57,1,0,0,response1disk,,7,-8,-14,1,0,0,rectangle,-8,-14,1,0,0,-8,-14,1,0,0,0,45,45,51,1,,,,,,,,
,,,,,,,,,,,,,FF,,,,,,,,0.7666,,,,,,,,,,,,,,,,,,,,,,5ecfd0b927d04d049d65b73d,61036eccf7272343cda563b6,2021-07-30_05h17.29.921,Simcolourproject_2stim_asymm_v5,2020.2.10,Win32,60,61025ae37ef11b136ea224fe,,,,,,,,,2015,62,88,1,0,0,response1disk,,7,9,9,1,0,0,rectangle,9,9,1,0,0,9,9,1,0,0,0,46,46,117,1,,,,,,,,
,,,,,,,,,,,,,FF,,,,,,,,0.8665,,,,,,,,,,,,,,,,,,,,,,5ecfd0b927d04d049d65b73d,61036eccf7272343cda563b6,2021-07-30_05h17.29.921,Simcolourproject_2stim_asymm_v5,2020.2.10,Win32,60,61025ae37ef11b136ea224fe,,,,,,,,,3899,36,66,1,0,0,response1disk,,7,-12,-9,1,0,0,rectangle,-12,-9,1,0,0,-12,-9,1,0,0,0,47,47,28,1,,,,,,,,
,,,,,,,,,,,,,FF,,,,,,,,0.6664,,,,,,,,,,,,,,,,,,,,,,5ecfd0b927d04d049d65b73d,61036eccf7272343cda563b6,2021-07-30_05h17.29.921,Simcolourproject_2stim_asymm_v5,2020.2.10,Win32,60,61025ae37ef11b136ea224fe,,,,,,,,,4131,50,94,1,0,0,response1disk,,7,10,2,1,0,0,rectangle,10,2,1,0,0,10,2,1,0,0,0,48,48,31,1,,,,,,,,
,,,,,,,,,,,,,FF,,,,,,,,0.6498,,,,,,,,,,,,,,,,,,,,,,5ecfd0b927d04d049d65b73d,61036eccf7272343cda563b6,2021-07-30_05h17.29.921,Simcolourproject_2stim_asymm_v5,2020.2.10,Win32,60,61025ae37ef11b136ea224fe,,,,,,,,,3866,36,82,1,0,0,response1disk,,7,-3,3,1,0,0,rectangle,-3,3,1,0,0,-3,3,1,0,0,0,49,49,139,1,,,,,,,,
,,,,,,,,,,,,,FF,,,,,,,,1.3829,,,,,,,,,,,,,,,,,,,,,,5ecfd0b927d04d049d65b73d,61036eccf7272343cda563b6,2021-07-30_05h17.29.921,Simcolourproject_2stim_asymm_v5,2020.2.10,Win32,60,61025ae37ef11b136ea224fe,,,,,,,,,2223,55,68,1,0,0,response1disk,,7,10,-2,1,0,0,rectangle,10,-2,1,0,0,10,-2,1,0,0,0,50,50,32,1,,,,,,,,
,,,,,,,,,,,,,FF,,,,,,,,0.9332,,,,,,,,,,,,,,,,,,,,,,5ecfd0b927d04d049d65b73d,61036eccf7272343cda563b6,2021-07-30_05h17.29.921,Simcolourproject_2stim_asymm_v5,2020.2.10,Win32,60,61025ae37ef11b136ea224fe,,,,,,,,,3740,62,42,1,0,0,response1disk,,6,-16,-6,1,0,0,rectangle,-40,69,1,0,0,6,-10,1,0,0,0,51,51,150,1,,response7disk_3,TRUE,0,0,"[108,127,52,114,235,187,104,72,36,62,98,17,233,284,187,288,235,16,209,209]",1.6659,rectangle
,,,,,,,,,,,,,FF,,,,,,,,1.4827,,,,,,,,,,,,,,,,,,,,,,5ecfd0b927d04d049d65b73d,61036eccf7272343cda563b6,2021-07-30_05h17.29.921,Simcolourproject_2stim_asymm_v5,2020.2.10,Win32,60,61025ae37ef11b136ea224fe,,,,,,,,,3260,42,88,1,0,0,response1disk,,7,11,-9,1,0,0,rectangle,11,-9,1,0,0,11,-9,1,0,0,0,52,52,80,1,,,,,,,,
,,,,,,,,,,,,,FF,,,,,,,,1.9994,,,,,,,,,,,,,,,,,,,,,,5ecfd0b927d04d049d65b73d,61036eccf7272343cda563b6,2021-07-30_05h17.29.921,Simcolourproject_2stim_asymm_v5,2020.2.10,Win32,60,61025ae37ef11b136ea224fe,,,,,,,,,1520,42,74,1,0,0,response1disk,,7,11,11,1,0,0,rectangle,11,11,1,0,0,11,11,1,0,0,0,53,53,153,1,,,,,,,,
,,,,,,,,,,,,,FF,,,,,,,,1.1496,,,,,,,,,,,,,,,,,,,,,,5ecfd0b927d04d049d65b73d,61036eccf7272343cda563b6,2021-07-30_05h17.29.921,Simcolourproject_2stim_asymm_v5,2020.2.10,Win32,60,61025ae37ef11b136ea224fe,,,,,,,,,296,43,101,1,0,0,response1disk,,7,7,18,1,0,0,rectangle,7,18,1,0,0,7,18,1,0,0,0,54,54,29,1,,,,,,,,
,,,,,,,,,,,,,FF,,,,,,,,0.7831,,,,,,,,,,,,,,,,,,,,,,5ecfd0b927d04d049d65b73d,61036eccf7272343cda563b6,2021-07-30_05h17.29.921,Simcolourproject_2stim_asymm_v5,2020.2.10,Win32,60,61025ae37ef11b136ea224fe,,,,,,,,,4235,-35,70,1,0,0,response7disk,,0,-18,-2,1,0,0,rectangle,-18,-2,1,0,0,-18,-2,1,0,0,0,55,55,25,1,,,,,,,,
,,,,,,,,,,,,,FF,,,,,,,,1.0162,,,,,,,,,,,,,,,,,,,,,,5ecfd0b927d04d049d65b73d,61036eccf7272343cda563b6,2021-07-30_05h17.29.921,Simcolourproject_2stim_asymm_v5,2020.2.10,Win32,60,61025ae37ef11b136ea224fe,,,,,,,,,1623,80,41,1,0,0,response1disk,,6,5,4,1,0,0,rectangle,5,4,1,0,0,5,4,1,0,0,0,56,56,142,1,,,,,,,,
,,,,,,,,,,,,,FF,,,,,,,,1.1167,,,,,,,,,,,,,,,,,,,,,,5ecfd0b927d04d049d65b73d,61036eccf7272343cda563b6,2021-07-30_05h17.29.921,Simcolourproject_2stim_asymm_v5,2020.2.10,Win32,60,61025ae37ef11b136ea224fe,,,,,,,,,1683,-63,22,1,0,0,response7disk,,1,-4,-10,1,0,0,rectangle,-4,-10,1,0,0,-4,-10,1,0,0,0,57,57,90,1,,,,,,,,
,,,,,,,,,,,,,FF,,,,,,,,3.8485,,,,,,,,,,,,,,,,,,,,,,5ecfd0b927d04d049d65b73d,61036eccf7272343cda563b6,2021-07-30_05h17.29.921,Simcolourproject_2stim_asymm_v5,2020.2.10,Win32,60,61025ae37ef11b136ea224fe,,,,,,,,,1740,38,86,1,0,0,response1disk,,7,-1,11,1,0,0,rectangle,-1,11,1,0,0,-1,11,1,0,0,0,58,58,89,1,,,,,,,,
,,,,,,,,,,,,,FF,,,,,,,,0.7499,,,,,,,,,,,,,,,,,,,,,,5ecfd0b927d04d049d65b73d,61036eccf7272343cda563b6,2021-07-30_05h17.29.921,Simcolourproject_2stim_asymm_v5,2020.2.10,Win32,60,61025ae37ef11b136ea224fe,,,,,,,,,1695,72,113,1,0,0,response1disk,,7,0,0,1,0,0,rectangle,0,0,1,0,0,0,0,1,0,0,0,59,59,0,1,,,,,,,,
,,,,,,,,,,,,,FF,,,,,,,,0.8166,,,,,,,,,,,,,,,,,,,,,,5ecfd0b927d04d049d65b73d,61036eccf7272343cda563b6,2021-07-30_05h17.29.921,Simcolourproject_2stim_asymm_v5,2020.2.10,Win32,60,61025ae37ef11b136ea224fe,,,,,,,,,2966,92,33,1,0,0,response1disk,,6,11,-2,1,0,0,rectangle,11,-2,1,0,0,11,-2,1,0,0,0,60,60,115,1,,,,,,,,
,,,,,,,,,,,,,FF,,,,,,,,0.5833,,,,,,,,,,,,,,,,,,,,,,5ecfd0b927d04d049d65b73d,61036eccf7272343cda563b6,2021-07-30_05h17.29.921,Simcolourproject_2stim_asymm_v5,2020.2.10,Win32,60,61025ae37ef11b136ea224fe,,,,,,,,,999,54,86,1,0,0,response1disk,,7,14,10,1,0,0,rectangle,82,32,1,0,0,15,2,1,0,0,0,61,61,2,1,,response1disk_3,TRUE,6,6,"[108,127,52,114,235,187,104,72,36,62,98,17,233,284,187,288,235,16,209,209]",2.2994,rectangle
,,,,,,,,,,,,,FF,,,,,,,,2.2157,,,,,,,,,,,,,,,,,,,,,,5ecfd0b927d04d049d65b73d,61036eccf7272343cda563b6,2021-07-30_05h17.29.921,Simcolourproject_2stim_asymm_v5,2020.2.10,Win32,60,61025ae37ef11b136ea224fe,,,,,,,,,3713,27,-96,1,0,0,response3disk,,4,12,-2,1,0,0,rectangle,12,-2,1,0,0,12,-2,1,0,0,0,62,62,79,1,,,,,,,,
,,,,,,,,,,,,,FF,,,,,,,,3.7986,,,,,,,,,,,,,,,,,,,,,,5ecfd0b927d04d049d65b73d,61036eccf7272343cda563b6,2021-07-30_05h17.29.921,Simcolourproject_2stim_asymm_v5,2020.2.10,Win32,60,61025ae37ef11b136ea224fe,,,,,,,,,1814,78,-38,1,0,0,response3disk,,5,4,18,1,0,0,rectangle,4,18,1,0,0,4,18,1,0,0,0,63,63,149,1,,,,,,,,
,,,,,,,,,,,,,FF,,,,,,,,0.8831,,,,,,,,,,,,,,,,,,,,,,5ecfd0b927d04d049d65b73d,61036eccf7272343cda563b6,2021-07-30_05h17.29.921,Simcolourproject_2stim_asymm_v5,2020.2.10,Win32,60,61025ae37ef11b136ea224fe,,,,,,,,,4080,42,79,1,0,0,response1disk,,7,-19,11,1,0,0,rectangle,-19,11,1,0,0,-19,11,1,0,0,0,64,64,61,1,,,,,,,,
,,,,,,,,,,,,,FF,,,,,,,,2.1826,,,,,,,,,,,,,,,,,,,,,,5ecfd0b927d04d049d65b73d,61036eccf7272343cda563b6,2021-07-30_05h17.29.921,Simcolourproject_2stim_asymm_v5,2020.2.10,Win32,60,61025ae37ef11b136ea224fe,,,,,,,,,2835,87,-49,1,0,0,response3disk,,5,-9,-1,1,0,0,rectangle,-9,-1,1,0,0,-9,-1,1,0,0,0,65,65,125,1,,,,,,,,
,,,,,,,,,,,,,FF,,,,,,,,1.5996,,,,,,,,,,,,,,,,,,,,,,5ecfd0b927d04d049d65b73d,61036eccf7272343cda563b6,2021-07-30_05h17.29.921,Simcolourproject_2stim_asymm_v5,2020.2.10,Win32,60,61025ae37ef11b136ea224fe,,,,,,,,,2867,53,93,1,0,0,response1disk,,7,-9,4,1,0,0,rectangle,-9,4,1,0,0,-9,4,1,0,0,0,66,66,128,1,,,,,,,,
,,,,,,,,,,,,,FF,,,,,,,,0.8165,,,,,,,,,,,,,,,,,,,,,,5ecfd0b927d04d049d65b73d,61036eccf7272343cda563b6,2021-07-30_05h17.29.921,Simcolourproject_2stim_asymm_v5,2020.2.10,Win32,60,61025ae37ef11b136ea224fe,,,,,,,,,3734,64,97,1,0,0,response1disk,,7,10,16,1,0,0,rectangle,10,16,1,0,0,10,16,1,0,0,0,67,67,68,1,,,,,,,,
,,,,,,,,,,,,,FF,,,,,,,,0.8666,,,,,,,,,,,,,,,,,,,,,,5ecfd0b927d04d049d65b73d,61036eccf7272343cda563b6,2021-07-30_05h17.29.921,Simcolourproject_2stim_asymm_v5,2020.2.10,Win32,60,61025ae37ef11b136ea224fe,,,,,,,,,2804,49,61,1,0,0,response1disk,,7,4,0,1,0,0,rectangle,4,0,1,0,0,4,0,1,0,0,0,68,68,34,1,,,,,,,,
,,,,,,,,,,,,,FF,,,,,,,,0.5999,,,,,,,,,,,,,,,,,,,,,,5ecfd0b927d04d049d65b73d,61036eccf7272343cda563b6,2021-07-30_05h17.29.921,Simcolourproject_2stim_asymm_v5,2020.2.10,Win32,60,61025ae37ef11b136ea224fe,,,,,,,,,2860,31,79,1,0,0,response1disk,,7,7,9,1,0,0,rectangle,7,9,1,0,0,7,9,1,0,0,0,69,69,55,1,,,,,,,,
,,,,,,,,,,,,,FF,,,,,,,,1.6327,,,,,,,,,,,,,,,,,,,,,,5ecfd0b927d04d049d65b73d,61036eccf7272343cda563b6,2021-07-30_05h17.29.921,Simcolourproject_2stim_asymm_v5,2020.2.10,Win32,60,61025ae37ef11b136ea224fe,,,,,,,,,2419,-49,-69,1,0,0,response5disk,,3,0,8,1,0,0,rectangle,0,8,1,0,0,0,8,1,0,0,0,70,70,151,1,,,,,,,,
,,,,,,,,,,,,,FF,,,,,,,,0.8664,,,,,,,,,,,,,,,,,,,,,,5ecfd0b927d04d049d65b73d,61036eccf7272343cda563b6,2021-07-30_05h17.29.921,Simcolourproject_2stim_asymm_v5,2020.2.10,Win32,60,61025ae37ef11b136ea224fe,,,,,,,,,418,39,70,1,0,0,response1disk,,7,11,-1,1,0,0,rectangle,-42,80,1,0,0,10,-15,1,0,0,0,71,71,71,1,,response7disk_3,TRUE,0,0,"[108,127,52,114,235,187,104,72,36,62,98,17,233,284,187,288,235,16,209,209]",1.4656,rectangle
,,,,,,,,,,,,,FF,,,,,,,,0.9165,,,,,,,,,,,,,,,,,,,,,,5ecfd0b927d04d049d65b73d,61036eccf7272343cda563b6,2021-07-30_05h17.29.921,Simcolourproject_2stim_asymm_v5,2020.2.10,Win32,60,61025ae37ef11b136ea224fe,,,,,,,,,1495,41,79,1,0,0,response1disk,,7,21,5,1,0,0,rectangle,21,5,1,0,0,21,5,1,0,0,0,72,72,4,1,,,,,,,,
,,,,,,,,,,,,,FF,,,,,,,,0.5833,,,,,,,,,,,,,,,,,,,,,,5ecfd0b927d04d049d65b73d,61036eccf7272343cda563b6,2021-07-30_05h17.29.921,Simcolourproject_2stim_asymm_v5,2020.2.10,Win32,60,61025ae37ef11b136ea224fe,,,,,,,,,2108,38,98,1,0,0,response1disk,,7,12,1,1,0,0,rectangle,12,1,1,0,0,12,1,1,0,0,0,73,73,137,1,,,,,,,,
,,,,,,,,,,,,,FF,,,,,,,,0.7166,,,,,,,,,,,,,,,,,,,,,,5ecfd0b927d04d049d65b73d,61036eccf7272343cda563b6,2021-07-30_05h17.29.921,Simcolourproject_2stim_asymm_v5,2020.2.10,Win32,60,61025ae37ef11b136ea224fe,,,,,,,,,3209,34,66,1,0,0,response1disk,,7,-2,-6,1,0,0,rectangle,-2,-6,1,0,0,-2,-6,1,0,0,0,74,74,83,1,,,,,,,,
,,,,,,,,,,,,,FF,,,,,,,,0.5833,,,,,,,,,,,,,,,,,,,,,,5ecfd0b927d04d049d65b73d,61036eccf7272343cda563b6,2021-07-30_05h17.29.921,Simcolourproject_2stim_asymm_v5,2020.2.10,Win32,60,61025ae37ef11b136ea224fe,,,,,,,,,3164,46,77,1,0,0,response1disk,,7,17,3,1,0,0,rectangle,17,3,1,0,0,17,3,1,0,0,0,75,75,145,1,,,,,,,,
,,,,,,,,,,,,,FF,,,,,,,,0.6665,,,,,,,,,,,,,,,,,,,,,,5ecfd0b927d04d049d65b73d,61036eccf7272343cda563b6,2021-07-30_05h17.29.921,Simcolourproject_2stim_asymm_v5,2020.2.10,Win32,60,61025ae37ef11b136ea224fe,,,,,,,,,2271,51,33,1,0,0,response1disk,,6,18,-2,1,0,0,rectangle,18,-2,1,0,0,18,-2,1,0,0,0,76,76,64,1,,,,,,,,
,,,,,,,,,,,,,FF,,,,,,,,0.7832,,,,,,,,,,,,,,,,,,,,,,5ecfd0b927d04d049d65b73d,61036eccf7272343cda563b6,2021-07-30_05h17.29.921,Simcolourproject_2stim_asymm_v5,2020.2.10,Win32,60,61025ae37ef11b136ea224fe,,,,,,,,,3628,40,64,1,0,0,response1disk,,7,2,-14,1,0,0,rectangle,2,-14,1,0,0,2,-14,1,0,0,0,77,77,50,1,,,,,,,,
,,,,,,,,,,,,,FF,,,,,,,,2.3823,,,,,,,,,,,,,,,,,,,,,,5ecfd0b927d04d049d65b73d,61036eccf7272343cda563b6,2021-07-30_05h17.29.921,Simcolourproject_2stim_asymm_v5,2020.2.10,Win32,60,61025ae37ef11b136ea224fe,,,,,,,,,3675,44,-88,1,0,0,response3disk,,4,-2,-7,1,0,0,rectangle,-2,-7,1,0,0,-2,-7,1,0,0,0,78,78,144,1,,,,,,,,
,,,,,,,,,,,,,FF,,,,,,,,0.7332,,,,,,,,,,,,,,,,,,,,,,5ecfd0b927d04d049d65b73d,61036eccf7272343cda563b6,2021-07-30_05h17.29.921,Simcolourproject_2stim_asymm_v5,2020.2.10,Win32,60,61025ae37ef11b136ea224fe,,,,,,,,,2451,61,110,1,0,0,response1disk,,7,0,4,1,0,0,rectangle,0,4,1,0,0,0,4,1,0,0,0,79,79,3,1,,,,,,,,
,,,,,,,,,,,,,FF,,,,,,,,1.0498,,,,,,,,,,,,,,,,,,,,,,5ecfd0b927d04d049d65b73d,61036eccf7272343cda563b6,2021-07-30_05h17.29.921,Simcolourproject_2stim_asymm_v5,2020.2.10,Win32,60,61025ae37ef11b136ea224fe,,,,,,,,,2378,41,98,1,0,0,response1disk,,7,11,11,1,0,0,rectangle,11,11,1,0,0,11,11,1,0,0,0,80,80,146,1,,,,,,,,
,,,,,,,,,,,,,FF,,,,,,,,1.8992,,,,,,,,,,,,,,,,,,,,,,5ecfd0b927d04d049d65b73d,61036eccf7272343cda563b6,2021-07-30_05h17.29.921,Simcolourproject_2stim_asymm_v5,2020.2.10,Win32,60,61025ae37ef11b136ea224fe,,,,,,,,,890,39,57,1,0,0,response1disk,,7,-3,-4,1,0,0,rectangle,-3,-4,1,0,0,-3,-4,1,0,0,0,81,81,5,1,,,,,,,,
,,,,,,,,,,,,,FF,,,,,,,,0.6002,,,,,,,,,,,,,,,,,,,,,,5ecfd0b927d04d049d65b73d,61036eccf7272343cda563b6,2021-07-30_05h17.29.921,Simcolourproject_2stim_asymm_v5,2020.2.10,Win32,60,61025ae37ef11b136ea224fe,,,,,,,,,2837,39,66,1,0,0,response1disk,,7,-4,-5,1,0,0,rectangle,-4,-5,1,0,0,-4,-5,1,0,0,0,82,82,22,1,,,,,,,,
,,,,,,,,,,,,,FF,,,,,,,,0.5668,,,,,,,,,,,,,,,,,,,,,,5ecfd0b927d04d049d65b73d,61036eccf7272343cda563b6,2021-07-30_05h17.29.921,Simcolourproject_2stim_asymm_v5,2020.2.10,Win32,60,61025ae37ef11b136ea224fe,,,,,,,,,312,57,83,1,0,0,response1disk,,7,5,-11,1,0,0,rectangle,5,-11,1,0,0,5,-11,1,0,0,0,83,83,7,1,,,,,,,,
,,,,,,,,,,,,,FF,,,,,,,,0.7165,,,,,,,,,,,,,,,,,,,,,,5ecfd0b927d04d049d65b73d,61036eccf7272343cda563b6,2021-07-30_05h17.29.921,Simcolourproject_2stim_asymm_v5,2020.2.10,Win32,60,61025ae37ef11b136ea224fe,,,,,,,,,1656,43,70,1,0,0,response1disk,,7,19,16,1,0,0,rectangle,19,16,1,0,0,19,16,1,0,0,0,84,84,95,1,,,,,,,,
,,,,,,,,,,,,,FF,,,,,,,,0.6501,,,,,,,,,,,,,,,,,,,,,,5ecfd0b927d04d049d65b73d,61036eccf7272343cda563b6,2021-07-30_05h17.29.921,Simcolourproject_2stim_asymm_v5,2020.2.10,Win32,60,61025ae37ef11b136ea224fe,,,,,,,,,1911,36,60,1,0,0,response1disk,,7,-15,-17,1,0,0,rectangle,-15,-17,1,0,0,-15,-17,1,0,0,0,85,85,152,1,,,,,,,,
,,,,,,,,,,,,,FF,,,,,,,,0.6331,,,,,,,,,,,,,,,,,,,,,,5ecfd0b927d04d049d65b73d,61036eccf7272343cda563b6,2021-07-30_05h17.29.921,Simcolourproject_2stim_asymm_v5,2020.2.10,Win32,60,61025ae37ef11b136ea224fe,,,,,,,,,3052,33,65,1,0,0,response1disk,,7,7,12,1,0,0,rectangle,7,12,1,0,0,7,12,1,0,0,0,86,86,35,1,,,,,,,,
,,,,,,,,,,,,,FF,,,,,,,,0.5832,,,,,,,,,,,,,,,,,,,,,,5ecfd0b927d04d049d65b73d,61036eccf7272343cda563b6,2021-07-30_05h17.29.921,Simcolourproject_2stim_asymm_v5,2020.2.10,Win32,60,61025ae37ef11b136ea224fe,,,,,,,,,1319,34,67,1,0,0,response1disk,,7,0,4,1,0,0,rectangle,0,4,1,0,0,0,4,1,0,0,0,87,87,136,1,,,,,,,,
,,,,,,,,,,,,,FF,,,,,,,,2.3325,,,,,,,,,,,,,,,,,,,,,,5ecfd0b927d04d049d65b73d,61036eccf7272343cda563b6,2021-07-30_05h17.29.921,Simcolourproject_2stim_asymm_v5,2020.2.10,Win32,60,61025ae37ef11b136ea224fe,,,,,,,,,1644,80,32,1,0,0,response1disk,,6,-12,-8,1,0,0,rectangle,-12,-8,1,0,0,-12,-8,1,0,0,0,88,88,104,1,,,,,,,,
,,,,,,,,,,,,,FF,,,,,,,,1.3329,,,,,,,,,,,,,,,,,,,,,,5ecfd0b927d04d049d65b73d,61036eccf7272343cda563b6,2021-07-30_05h17.29.921,Simcolourproject_2stim_asymm_v5,2020.2.10,Win32,60,61025ae37ef11b136ea224fe,,,,,,,,,3677,-33,-81,1,0,0,response5disk,,3,25,8,1,0,0,rectangle,25,8,1,0,0,25,8,1,0,0,0,89,89,30,1,,,,,,,,
,,,,,,,,,,,,,FF,,,,,,,,2.9991,,,,,,,,,,,,,,,,,,,,,,5ecfd0b927d04d049d65b73d,61036eccf7272343cda563b6,2021-07-30_05h17.29.921,Simcolourproject_2stim_asymm_v5,2020.2.10,Win32,60,61025ae37ef11b136ea224fe,,,,,,,,,3915,49,-37,1,0,0,response3disk,,5,3,-7,1,0,0,rectangle,3,-7,1,0,0,3,-7,1,0,0,0,90,90,135,1,,,,,,,,
,,,,,,,,,,,,,FF,,,,,,,,2.3326,,,,,,,,,,,,,,,,,,,,,,5ecfd0b927d04d049d65b73d,61036eccf7272343cda563b6,2021-07-30_05h17.29.921,Simcolourproject_2stim_asymm_v5,2020.2.10,Win32,60,61025ae37ef11b136ea224fe,,,,,,,,,1828,36,-81,1,0,0,response3disk,,4,-5,11,1,0,0,rectangle,-5,11,1,0,0,-5,11,1,0,0,0,91,91,44,1,,,,,,,,
,,,,,,,,,,,,,FF,,,,,,,,0.9332,,,,,,,,,,,,,,,,,,,,,,5ecfd0b927d04d049d65b73d,61036eccf7272343cda563b6,2021-07-30_05h17.29.921,Simcolourproject_2stim_asymm_v5,2020.2.10,Win32,60,61025ae37ef11b136ea224fe,,,,,,,,,652,69,94,1,0,0,response1disk,,7,-3,-12,1,0,0,rectangle,-3,-12,1,0,0,-3,-12,1,0,0,0,92,92,77,1,,,,,,,,
,,,,,,,,,,,,,FF,,,,,,,,0.7001,,,,,,,,,,,,,,,,,,,,,,5ecfd0b927d04d049d65b73d,61036eccf7272343cda563b6,2021-07-30_05h17.29.921,Simcolourproject_2stim_asymm_v5,2020.2.10,Win32,60,61025ae37ef11b136ea224fe,,,,,,,,,3158,52,97,1,0,0,response1disk,,7,5,4,1,0,0,rectangle,5,4,1,0,0,5,4,1,0,0,0,93,93,45,1,,,,,,,,
,,,,,,,,,,,,,FF,,,,,,,,0.9658,,,,,,,,,,,,,,,,,,,,,,5ecfd0b927d04d049d65b73d,61036eccf7272343cda563b6,2021-07-30_05h17.29.921,Simcolourproject_2stim_asymm_v5,2020.2.10,Win32,60,61025ae37ef11b136ea224fe,,,,,,,,,2374,32,57,1,0,0,response1disk,,7,5,-12,1,0,0,rectangle,5,-12,1,0,0,5,-12,1,0,0,0,94,94,26,1,,,,,,,,
,,,,,,,,,,,,,FF,,,,,,,,1.1495,,,,,,,,,,,,,,,,,,,,,,5ecfd0b927d04d049d65b73d,61036eccf7272343cda563b6,2021-07-30_05h17.29.921,Simcolourproject_2stim_asymm_v5,2020.2.10,Win32,60,61025ae37ef11b136ea224fe,,,,,,,,,1824,-71,-53,1,0,0,response5disk,,2,14,-5,1,0,0,rectangle,14,-5,1,0,0,14,-5,1,0,0,0,95,95,39,1,,,,,,,,
,,,,,,,,,,,,,FF,,,,,,,,1.7494,,,,,,,,,,,,,,,,,,,,,,5ecfd0b927d04d049d65b73d,61036eccf7272343cda563b6,2021-07-30_05h17.29.921,Simcolourproject_2stim_asymm_v5,2020.2.10,Win32,60,61025ae37ef11b136ea224fe,,,,,,,,,1720,42,68,1,0,0,response1disk,,7,17,6,1,0,0,rectangle,17,6,1,0,0,17,6,1,0,0,0,96,96,60,1,,,,,,,,
,,,,,,,,,,,,,FF,,,,,,,,0.6499,,,,,,,,,,,,,,,,,,,,,,5ecfd0b927d04d049d65b73d,61036eccf7272343cda563b6,2021-07-30_05h17.29.921,Simcolourproject_2stim_asymm_v5,2020.2.10,Win32,60,61025ae37ef11b136ea224fe,,,,,,,,,236,32,66,1,0,0,response1disk,,7,-1,1,1,0,0,rectangle,-34,-71,1,0,0,-7,-1,1,0,0,0,97,97,42,1,,response5disk_3,TRUE,3,3,"[108,127,52,114,235,187,104,72,36,62,98,17,233,284,187,288,235,16,209,209]",2.149,rectangle
,,,,,,,,,,,,,FF,,,,,,,,1.4825,,,,,,,,,,,,,,,,,,,,,,5ecfd0b927d04d049d65b73d,61036eccf7272343cda563b6,2021-07-30_05h17.29.921,Simcolourproject_2stim_asymm_v5,2020.2.10,Win32,60,61025ae37ef11b136ea224fe,,,,,,,,,1780,64,71,1,0,0,response1disk,,7,30,-9,1,0,0,rectangle,30,-9,1,0,0,30,-9,1,0,0,0,98,98,141,1,,,,,,,,
,,,,,,,,,,,,,FF,,,,,,,,1.9331,,,,,,,,,,,,,,,,,,,,,,5ecfd0b927d04d049d65b73d,61036eccf7272343cda563b6,2021-07-30_05h17.29.921,Simcolourproject_2stim_asymm_v5,2020.2.10,Win32,60,61025ae37ef11b136ea224fe,,,,,,,,,1291,-65,-45,1,0,0,response5disk,,2,28,19,1,0,0,rectangle,28,19,1,0,0,28,19,1,0,0,0,99,99,101,1,,,,,,,,
,,,,,,,,,,,,,FF,,,,,,,,1.5993,,,,,,,,,,,,,,,,,,,,,,5ecfd0b927d04d049d65b73d,61036eccf7272343cda563b6,2021-07-30_05h17.29.921,Simcolourproject_2stim_asymm_v5,2020.2.10,Win32,60,61025ae37ef11b136ea224fe,,,,,,,,,3485,37,73,1,0,0,response1disk,,7,8,4,1,0,0,rectangle,8,4,1,0,0,8,4,1,0,0,0,100,100,18,1,,,,,,,,
,,,,,,,,,,,,,FF,,,,,,,,0.7,,,,,,,,,,,,,,,,,,,,,,5ecfd0b927d04d049d65b73d,61036eccf7272343cda563b6,2021-07-30_05h17.29.921,Simcolourproject_2stim_asymm_v5,2020.2.10,Win32,60,61025ae37ef11b136ea224fe,,,,,,,,,1196,28,68,1,0,0,response1disk,,7,15,11,1,0,0,rectangle,15,11,1,0,0,15,11,1,0,0,0,101,101,67,1,,,,,,,,
,,,,,,,,,,,,,FF,,,,,,,,0.5499,,,,,,,,,,,,,,,,,,,,,,5ecfd0b927d04d049d65b73d,61036eccf7272343cda563b6,2021-07-30_05h17.29.921,Simcolourproject_2stim_asymm_v5,2020.2.10,Win32,60,61025ae37ef11b136ea224fe,,,,,,,,,932,39,76,1,0,0,response1disk,,7,13,9,1,0,0,rectangle,13,9,1,0,0,13,9,1,0,0,0,102,102,154,1,,,,,,,,
,,,,,,,,,,,,,FF,,,,,,,,0.6999,,,,,,,,,,,,,,,,,,,,,,5ecfd0b927d04d049d65b73d,61036eccf7272343cda563b6,2021-07-30_05h17.29.921,Simcolourproject_2stim_asymm_v5,2020.2.10,Win32,60,61025ae37ef11b136ea224fe,,,,,,,,,3114,30,70,1,0,0,response1disk,,7,12,2,1,0,0,rectangle,42,-83,1,0,0,-4,10,1,0,0,0,103,103,72,1,,response3disk_3,TRUE,4,4,"[108,127,52,114,235,187,104,72,36,62,98,17,233,284,187,288,235,16,209,209]",1.9158,rectangle
,,,,,,,,,,,,,FF,,,,,,,,2.8327,,,,,,,,,,,,,,,,,,,,,,5ecfd0b927d04d049d65b73d,61036eccf7272343cda563b6,2021-07-30_05h17.29.921,Simcolourproject_2stim_asymm_v5,2020.2.10,Win32,60,61025ae37ef11b136ea224fe,,,,,,,,,3889,31,65,1,0,0,response1disk,,7,17,5,1,0,0,rectangle,17,5,1,0,0,17,5,1,0,0,0,104,104,91,1,,,,,,,,
,,,,,,,,,,,,,FF,,,,,,,,1.0497,,,,,,,,,,,,,,,,,,,,,,5ecfd0b927d04d049d65b73d,61036eccf7272343cda563b6,2021-07-30_05h17.29.921,Simcolourproject_2stim_asymm_v5,2020.2.10,Win32,60,61025ae37ef11b136ea224fe,,,,,,,,,817,49,78,1,0,0,response1disk,,7,20,15,1,0,0,rectangle,20,15,1,0,0,20,15,1,0,0,0,105,105,37,1,,,,,,,,
,,,,,,,,,,,,,FF,,,,,,,,2.2659,,,,,,,,,,,,,,,,,,,,,,5ecfd0b927d04d049d65b73d,61036eccf7272343cda563b6,2021-07-30_05h17.29.921,Simcolourproject_2stim_asymm_v5,2020.2.10,Win32,60,61025ae37ef11b136ea224fe,,,,,,,,,1083,32,76,1,0,0,response1disk,,7,7,2,1,0,0,rectangle,7,2,1,0,0,7,2,1,0,0,0,106,106,92,1,,,,,,,,
,,,,,,,,,,,,,FF,,,,,,,,1.4831,,,,,,,,,,,,,,,,,,,,,,5ecfd0b927d04d049d65b73d,61036eccf7272343cda563b6,2021-07-30_05h17.29.921,Simcolourproject_2stim_asymm_v5,2020.2.10,Win32,60,61025ae37ef11b136ea224fe,,,,,,,,,2890,-69,-51,1,0,0,response5disk,,2,-2,-4,1,0,0,rectangle,33,82,1,0,0,-11,3,1,0,0,0,107,107,11,1,,response1disk_3,TRUE,7,7,"[108,127,52,114,235,187,104,72,36,62,98,17,233,284,187,288,235,16,209,209]",2.9652,rectangle
,,,,,,,,,,,,,FF,,,,,,,,1.316,,,,,,,,,,,,,,,,,,,,,,5ecfd0b927d04d049d65b73d,61036eccf7272343cda563b6,2021-07-30_05h17.29.921,Simcolourproject_2stim_asymm_v5,2020.2.10,Win32,60,61025ae37ef11b136ea224fe,,,,,,,,,79,-70,-36,1,0,0,response5disk,,2,15,-1,1,0,0,rectangle,15,-1,1,0,0,15,-1,1,0,0,0,108,108,6,1,,,,,,,,
,,,,,,,,,,,,,FF,,,,,,,,0.7332,,,,,,,,,,,,,,,,,,,,,,5ecfd0b927d04d049d65b73d,61036eccf7272343cda563b6,2021-07-30_05h17.29.921,Simcolourproject_2stim_asymm_v5,2020.2.10,Win32,60,61025ae37ef11b136ea224fe,,,,,,,,,2464,53,84,1,0,0,response1disk,,7,26,17,1,0,0,rectangle,26,17,1,0,0,26,17,1,0,0,0,109,109,106,1,,,,,,,,
,,,,,,,,,,,,,FF,,,,,,,,0.8666,,,,,,,,,,,,,,,,,,,,,,5ecfd0b927d04d049d65b73d,61036eccf7272343cda563b6,2021-07-30_05h17.29.921,Simcolourproject_2stim_asymm_v5,2020.2.10,Win32,60,61025ae37ef11b136ea224fe,,,,,,,,,4160,27,70,1,0,0,response1disk,,7,5,13,1,0,0,rectangle,5,13,1,0,0,5,13,1,0,0,0,110,110,38,1,,,,,,,,
,,,,,,,,,,,,,FF,,,,,,,,0.5999,,,,,,,,,,,,,,,,,,,,,,5ecfd0b927d04d049d65b73d,61036eccf7272343cda563b6,2021-07-30_05h17.29.921,Simcolourproject_2stim_asymm_v5,2020.2.10,Win32,60,61025ae37ef11b136ea224fe,,,,,,,,,3325,72,83,1,0,0,response1disk,,7,12,-17,1,0,0,rectangle,12,-17,1,0,0,12,-17,1,0,0,0,111,111,140,1,,,,,,,,
,,,,,,,,,,,,,FF,,,,,,,,0.883,,,,,,,,,,,,,,,,,,,,,,5ecfd0b927d04d049d65b73d,61036eccf7272343cda563b6,2021-07-30_05h17.29.921,Simcolourproject_2stim_asymm_v5,2020.2.10,Win32,60,61025ae37ef11b136ea224fe,,,,,,,,,3604,41,75,1,0,0,response1disk,,7,-2,-18,1,0,0,rectangle,-2,-18,1,0,0,-2,-18,1,0,0,0,112,112,103,1,,,,,,,,
,,,,,,,,,,,,,FF,,,,,,,,0.8004,,,,,,,,,,,,,,,,,,,,,,5ecfd0b927d04d049d65b73d,61036eccf7272343cda563b6,2021-07-30_05h17.29.921,Simcolourproject_2stim_asymm_v5,2020.2.10,Win32,60,61025ae37ef11b136ea224fe,,,,,,,,,4124,30,71,1,0,0,response1disk,,7,6,5,1,0,0,rectangle,-91,40,1,0,0,11,8,1,0,0,0,113,113,108,1,,response7disk_3,TRUE,1,1,"[108,127,52,114,235,187,104,72,36,62,98,17,233,284,187,288,235,16,209,209]",2.1826,rectangle
,,,,,,,,,,,,,FF,,,,,,,,1.3829,,,,,,,,,,,,,,,,,,,,,,5ecfd0b927d04d049d65b73d,61036eccf7272343cda563b6,2021-07-30_05h17.29.921,Simcolourproject_2stim_asymm_v5,2020.2.10,Win32,60,61025ae37ef11b136ea224fe,,,,,,,,,3335,25,55,1,0,0,response1disk,,7,6,-1,1,0,0,rectangle,6,-1,1,0,0,6,-1,1,0,0,0,114,114,120,1,,,,,,,,
,,,,,,,,,,,,,FF,,,,,,,,0.6502,,,,,,,,,,,,,,,,,,,,,,5ecfd0b927d04d049d65b73d,61036eccf7272343cda563b6,2021-07-30_05h17.29.921,Simcolourproject_2stim_asymm_v5,2020.2.10,Win32,60,61025ae37ef11b136ea224fe,,,,,,,,,228,59,77,1,0,0,response1disk,,7,8,10,1,0,0,rectangle,8,10,1,0,0,8,10,1,0,0,0,115,115,88,1,,,,,,,,
,,,,,,,,,,,,,FF,,,,,,,,0.6665,,,,,,,,,,,,,,,,,,,,,,5ecfd0b927d04d049d65b73d,61036eccf7272343cda563b6,2021-07-30_05h17.29.921,Simcolourproject_2stim_asymm_v5,2020.2.10,Win32,60,61025ae37ef11b136ea224fe,,,,,,,,,3312,41,74,1,0,0,response1disk,,7,8,-4,1,0,0,rectangle,8,-4,1,0,0,8,-4,1,0,0,0,116,116,111,1,,,,,,,,
,,,,,,,,,,,,,FF,,,,,,,,0.6832,,,,,,,,,,,,,,,,,,,,,,5ecfd0b927d04d049d65b73d,61036eccf7272343cda563b6,2021-07-30_05h17.29.921,Simcolourproject_2stim_asymm_v5,2020.2.10,Win32,60,61025ae37ef11b136ea224fe,,,,,,,,,193,41,78,1,0,0,response1disk,,7,12,5,1,0,0,rectangle,12,5,1,0,0,12,5,1,0,0,0,117,117,75,1,,,,,,,,
,,,,,,,,,,,,,FF,,,,,,,,0.6167,,,,,,,,,,,,,,,,,,,,,,5ecfd0b927d04d049d65b73d,61036eccf7272343cda563b6,2021-07-30_05h17.29.921,Simcolourproject_2stim_asymm_v5,2020.2.10,Win32,60,61025ae37ef11b136ea224fe,,,,,,,,,1015,24,90,1,0,0,response1disk,,7,8,9,1,0,0,rectangle,8,9,1,0,0,8,9,1,0,0,0,118,118,129,1,,,,,,,,
,,,,,,,,,,,,,FF,,,,,,,,0.5832,,,,,,,,,,,,,,,,,,,,,,5ecfd0b927d04d049d65b73d,61036eccf7272343cda563b6,2021-07-30_05h17.29.921,Simcolourproject_2stim_asymm_v5,2020.2.10,Win32,60,61025ae37ef11b136ea224fe,,,,,,,,,1619,62,32,1,0,0,response1disk,,6,11,0,1,0,0,rectangle,11,0,1,0,0,11,0,1,0,0,0,119,119,47,1,,,,,,,,
,,,,,,,,,,,,,FF,,,,,,,,0.6167,,,,,,,,,,,,,,,,,,,,,,5ecfd0b927d04d049d65b73d,61036eccf7272343cda563b6,2021-07-30_05h17.29.921,Simcolourproject_2stim_asymm_v5,2020.2.10,Win32,60,61025ae37ef11b136ea224fe,,,,,,,,,3764,33,77,1,0,0,response1disk,,7,5,-5,1,0,0,rectangle,5,-5,1,0,0,5,-5,1,0,0,0,120,120,53,1,,,,,,,,
,,,,,,,,,,,,,FF,,,,,,,,0.5665,,,,,,,,,,,,,,,,,,,,,,5ecfd0b927d04d049d65b73d,61036eccf7272343cda563b6,2021-07-30_05h17.29.921,Simcolourproject_2stim_asymm_v5,2020.2.10,Win32,60,61025ae37ef11b136ea224fe,,,,,,,,,2191,48,98,1,0,0,response1disk,,7,9,7,1,0,0,rectangle,9,7,1,0,0,9,7,1,0,0,0,121,121,132,1,,,,,,,,
,,,,,,,,,,,,,FF,,,,,,,,3.0322,,,,,,,,,,,,,,,,,,,,,,5ecfd0b927d04d049d65b73d,61036eccf7272343cda563b6,2021-07-30_05h17.29.921,Simcolourproject_2stim_asymm_v5,2020.2.10,Win32,60,61025ae37ef11b136ea224fe,,,,,,,,,1616,53,70,1,0,0,response1disk,,7,-13,3,1,0,0,rectangle,-13,3,1,0,0,-13,3,1,0,0,0,122,122,87,1,,,,,,,,
,,,,,,,,,,,,,FF,,,,,,,,1.7494,,,,,,,,,,,,,,,,,,,,,,5ecfd0b927d04d049d65b73d,61036eccf7272343cda563b6,2021-07-30_05h17.29.921,Simcolourproject_2stim_asymm_v5,2020.2.10,Win32,60,61025ae37ef11b136ea224fe,,,,,,,,,778,33,-92,1,0,0,response3disk,,4,5,-2,1,0,0,rectangle,5,-2,1,0,0,5,-2,1,0,0,0,123,123,112,1,,,,,,,,
,,,,,,,,,,,,,FF,,,,,,,,1.5496,,,,,,,,,,,,,,,,,,,,,,5ecfd0b927d04d049d65b73d,61036eccf7272343cda563b6,2021-07-30_05h17.29.921,Simcolourproject_2stim_asymm_v5,2020.2.10,Win32,60,61025ae37ef11b136ea224fe,,,,,,,,,2238,27,75,1,0,0,response1disk,,7,5,-4,1,0,0,rectangle,5,-4,1,0,0,5,-4,1,0,0,0,124,124,107,1,,,,,,,,
,,,,,,,,,,,,,FF,,,,,,,,1.3829,,,,,,,,,,,,,,,,,,,,,,5ecfd0b927d04d049d65b73d,61036eccf7272343cda563b6,2021-07-30_05h17.29.921,Simcolourproject_2stim_asymm_v5,2020.2.10,Win32,60,61025ae37ef11b136ea224fe,,,,,,,,,2003,44,109,1,0,0,response1disk,,7,14,-2,1,0,0,rectangle,14,-2,1,0,0,14,-2,1,0,0,0,125,125,84,1,,,,,,,,
,,,,,,,,,,,,,FF,,,,,,,,0.7832,,,,,,,,,,,,,,,,,,,,,,5ecfd0b927d04d049d65b73d,61036eccf7272343cda563b6,2021-07-30_05h17.29.921,Simcolourproject_2stim_asymm_v5,2020.2.10,Win32,60,61025ae37ef11b136ea224fe,,,,,,,,,2154,39,64,1,0,0,response1disk,,7,10,6,1,0,0,rectangle,55,-69,1,0,0,18,-11,1,0,0,0,126,126,58,1,,response3disk_3,TRUE,4,4,"[108,127,52,114,235,187,104,72,36,62,98,17,233,284,187,288,235,16,209,209]",1.4996,rectangle
,,,,,,,,,,,,,FF,,,,,,,,0.883,,,,,,,,,,,,,,,,,,,,,,5ecfd0b927d04d049d65b73d,61036eccf7272343cda563b6,2021-07-30_05h17.29.921,Simcolourproject_2stim_asymm_v5,2020.2.10,Win32,60,61025ae37ef11b136ea224fe,,,,,,,,,2291,-24,90,1,0,0,response7disk,,0,-5,3,1,0,0,rectangle,-5,3,1,0,0,-5,3,1,0,0,0,127,127,14,1,,,,,,,,
,,,,,,,,,,,,,FF,,,,,,,,2.1159,,,,,,,,,,,,,,,,,,,,,,5ecfd0b927d04d049d65b73d,61036eccf7272343cda563b6,2021-07-30_05h17.29.921,Simcolourproject_2stim_asymm_v5,2020.2.10,Win32,60,61025ae37ef11b136ea224fe,,,,,,,,,570,49,79,1,0,0,response1disk,,7,2,-12,1,0,0,rectangle,2,-12,1,0,0,2,-12,1,0,0,0,128,128,21,1,,,,,,,,
,,,,,,,,,,,,,FF,,,,,,,,1.4827,,,,,,,,,,,,,,,,,,,,,,5ecfd0b927d04d049d65b73d,61036eccf7272343cda563b6,2021-07-30_05h17.29.921,Simcolourproject_2stim_asymm_v5,2020.2.10,Win32,60,61025ae37ef11b136ea224fe,,,,,,,,,3488,78,-28,1,0,0,response3disk,,5,-2,-10,1,0,0,rectangle,-2,-10,1,0,0,-2,-10,1,0,0,0,129,129,109,1,,,,,,,,
,,,,,,,,,,,,,FF,,,,,,,,1.4496,,,,,,,,,,,,,,,,,,,,,,5ecfd0b927d04d049d65b73d,61036eccf7272343cda563b6,2021-07-30_05h17.29.921,Simcolourproject_2stim_asymm_v5,2020.2.10,Win32,60,61025ae37ef11b136ea224fe,,,,,,,,,2280,40,87,1,0,0,response1disk,,7,4,11,1,0,0,rectangle,4,11,1,0,0,4,11,1,0,0,0,130,130,127,1,,,,,,,,
,,,,,,,,,,,,,FF,,,,,,,,0.7171,,,,,,,,,,,,,,,,,,,,,,5ecfd0b927d04d049d65b73d,61036eccf7272343cda563b6,2021-07-30_05h17.29.921,Simcolourproject_2stim_asymm_v5,2020.2.10,Win32,60,61025ae37ef11b136ea224fe,,,,,,,,,906,42,74,1,0,0,response1disk,,7,11,5,1,0,0,rectangle,11,5,1,0,0,11,5,1,0,0,0,131,131,57,1,,,,,,,,
,,,,,,,,,,,,,FF,,,,,,,,1.0328,,,,,,,,,,,,,,,,,,,,,,5ecfd0b927d04d049d65b73d,61036eccf7272343cda563b6,2021-07-30_05h17.29.921,Simcolourproject_2stim_asymm_v5,2020.2.10,Win32,60,61025ae37ef11b136ea224fe,,,,,,,,,2816,35,70,1,0,0,response1disk,,7,0,-18,1,0,0,rectangle,0,-18,1,0,0,0,-18,1,0,0,0,132,132,134,1,,,,,,,,
,,,,,,,,,,,,,FF,,,,,,,,1.5328,,,,,,,,,,,,,,,,,,,,,,5ecfd0b927d04d049d65b73d,61036eccf7272343cda563b6,2021-07-30_05h17.29.921,Simcolourproject_2stim_asymm_v5,2020.2.10,Win32,60,61025ae37ef11b136ea224fe,,,,,,,,,1764,36,64,1,0,0,response1disk,,7,17,6,1,0,0,rectangle,17,6,1,0,0,17,6,1,0,0,0,133,133,76,1,,,,,,,,
,,,,,,,,,,,,,FF,,,,,,,,1.8826,,,,,,,,,,,,,,,,,,,,,,5ecfd0b927d04d049d65b73d,61036eccf7272343cda563b6,2021-07-30_05h17.29.921,Simcolourproject_2stim_asymm_v5,2020.2.10,Win32,60,61025ae37ef11b136ea224fe,,,,,,,,,3663,29,65,1,0,0,response1disk,,7,-1,-4,1,0,0,rectangle,-1,-4,1,0,0,-1,-4,1,0,0,0,134,134,78,1,,,,,,,,
,,,,,,,,,,,,,FF,,,,,,,,1.2661,,,,,,,,,,,,,,,,,,,,,,5ecfd0b927d04d049d65b73d,61036eccf7272343cda563b6,2021-07-30_05h17.29.921,Simcolourproject_2stim_asymm_v5,2020.2.10,Win32,60,61025ae37ef11b136ea224fe,,,,,,,,,719,-51,-70,1,0,0,response5disk,,3,-9,-3,1,0,0,rectangle,-9,-3,1,0,0,-9,-3,1,0,0,0,135,135,43,1,,,,,,,,
,,,,,,,,,,,,,FF,,,,,,,,1.2496,,,,,,,,,,,,,,,,,,,,,,5ecfd0b927d04d049d65b73d,61036eccf7272343cda563b6,2021-07-30_05h17.29.921,Simcolourproject_2stim_asymm_v5,2020.2.10,Win32,60,61025ae37ef11b136ea224fe,,,,,,,,,2396,47,51,1,0,0,response1disk,,7,22,12,1,0,0,rectangle,22,12,1,0,0,22,12,1,0,0,0,136,136,56,1,,,,,,,,
,,,,,,,,,,,,,FF,,,,,,,,0.6162,,,,,,,,,,,,,,,,,,,,,,5ecfd0b927d04d049d65b73d,61036eccf7272343cda563b6,2021-07-30_05h17.29.921,Simcolourproject_2stim_asymm_v5,2020.2.10,Win32,60,61025ae37ef11b136ea224fe,,,,,,,,,3024,39,84,1,0,0,response1disk,,7,6,-2,1,0,0,rectangle,6,-2,1,0,0,6,-2,1,0,0,0,137,137,74,1,,,,,,,,
,,,,,,,,,,,,,FF,,,,,,,,0.7166,,,,,,,,,,,,,,,,,,,,,,5ecfd0b927d04d049d65b73d,61036eccf7272343cda563b6,2021-07-30_05h17.29.921,Simcolourproject_2stim_asymm_v5,2020.2.10,Win32,60,61025ae37ef11b136ea224fe,,,,,,,,,4118,-37,69,1,0,0,response7disk,,0,2,11,1,0,0,rectangle,2,11,1,0,0,2,11,1,0,0,0,138,138,23,1,,,,,,,,
,,,,,,,,,,,,,FF,,,,,,,,0.5999,,,,,,,,,,,,,,,,,,,,,,5ecfd0b927d04d049d65b73d,61036eccf7272343cda563b6,2021-07-30_05h17.29.921,Simcolourproject_2stim_asymm_v5,2020.2.10,Win32,60,61025ae37ef11b136ea224fe,,,,,,,,,1461,-21,69,1,0,0,response7disk,,0,-2,3,1,0,0,rectangle,-2,3,1,0,0,-2,3,1,0,0,0,139,139,124,1,,,,,,,,
,,,,,,,,,,,,,FF,,,,,,,,0.7499,,,,,,,,,,,,,,,,,,,,,,5ecfd0b927d04d049d65b73d,61036eccf7272343cda563b6,2021-07-30_05h17.29.921,Simcolourproject_2stim_asymm_v5,2020.2.10,Win32,60,61025ae37ef11b136ea224fe,,,,,,,,,67,31,84,1,0,0,response1disk,,7,14,8,1,0,0,rectangle,14,8,1,0,0,14,8,1,0,0,0,140,140,100,1,,,,,,,,
,,,,,,,,,,,,,FF,,,,,,,,0.6664,,,,,,,,,,,,,,,,,,,,,,5ecfd0b927d04d049d65b73d,61036eccf7272343cda563b6,2021-07-30_05h17.29.921,Simcolourproject_2stim_asymm_v5,2020.2.10,Win32,60,61025ae37ef11b136ea224fe,,,,,,,,,1863,39,86,1,0,0,response1disk,,7,11,3,1,0,0,rectangle,11,3,1,0,0,11,3,1,0,0,0,141,141,114,1,,,,,,,,
,,,,,,,,,,,,,FF,,,,,,,,1.7495,,,,,,,,,,,,,,,,,,,,,,5ecfd0b927d04d049d65b73d,61036eccf7272343cda563b6,2021-07-30_05h17.29.921,Simcolourproject_2stim_asymm_v5,2020.2.10,Win32,60,61025ae37ef11b136ea224fe,,,,,,,,,2696,75,29,1,0,0,response1disk,,6,5,5,1,0,0,rectangle,5,5,1,0,0,5,5,1,0,0,0,142,142,59,1,,,,,,,,
,,,,,,,,,,,,,FF,,,,,,,,0.7499,,,,,,,,,,,,,,,,,,,,,,5ecfd0b927d04d049d65b73d,61036eccf7272343cda563b6,2021-07-30_05h17.29.921,Simcolourproject_2stim_asymm_v5,2020.2.10,Win32,60,61025ae37ef11b136ea224fe,,,,,,,,,882,38,84,1,0,0,response1disk,,7,7,9,1,0,0,rectangle,7,9,1,0,0,7,9,1,0,0,0,143,143,63,1,,,,,,,,
,,,,,,,,,,,,,FF,,,,,,,,0.9664,,,,,,,,,,,,,,,,,,,,,,5ecfd0b927d04d049d65b73d,61036eccf7272343cda563b6,2021-07-30_05h17.29.921,Simcolourproject_2stim_asymm_v5,2020.2.10,Win32,60,61025ae37ef11b136ea224fe,,,,,,,,,941,32,61,1,0,0,response1disk,,7,20,10,1,0,0,rectangle,20,10,1,0,0,20,10,1,0,0,0,144,144,119,1,,,,,,,,
,,,,,,,,,,,,,FF,,,,,,,,1.2162,,,,,,,,,,,,,,,,,,,,,,5ecfd0b927d04d049d65b73d,61036eccf7272343cda563b6,2021-07-30_05h17.29.921,Simcolourproject_2stim_asymm_v5,2020.2.10,Win32,60,61025ae37ef11b136ea224fe,,,,,,,,,645,73,39,1,0,0,response1disk,,6,13,6,1,0,0,rectangle,13,6,1,0,0,13,6,1,0,0,0,145,145,52,1,,,,,,,,
,,,,,,,,,,,,,FF,,,,,,,,0.5998,,,,,,,,,,,,,,,,,,,,,,5ecfd0b927d04d049d65b73d,61036eccf7272343cda563b6,2021-07-30_05h17.29.921,Simcolourproject_2stim_asymm_v5,2020.2.10,Win32,60,61025ae37ef11b136ea224fe,,,,,,,,,389,28,76,1,0,0,response1disk,,7,23,-3,1,0,0,rectangle,23,-3,1,0,0,23,-3,1,0,0,0,146,146,33,1,,,,,,,,
,,,,,,,,,,,,,FF,,,,,,,,0.7165,,,,,,,,,,,,,,,,,,,,,,5ecfd0b927d04d049d65b73d,61036eccf7272343cda563b6,2021-07-30_05h17.29.921,Simcolourproject_2stim_asymm_v5,2020.2.10,Win32,60,61025ae37ef11b136ea224fe,,,,,,,,,3551,-32,87,1,0,0,response7disk,,0,10,6,1,0,0,rectangle,10,6,1,0,0,10,6,1,0,0,0,147,147,118,1,,,,,,,,
,,,,,,,,,,,,,FF,,,,,,,,2.0996,,,,,,,,,,,,,,,,,,,,,,5ecfd0b927d04d049d65b73d,61036eccf7272343cda563b6,2021-07-30_05h17.29.921,Simcolourproject_2stim_asymm_v5,2020.2.10,Win32,60,61025ae37ef11b136ea224fe,,,,,,,,,2808,37,76,1,0,0,response1disk,,7,9,3,1,0,0,rectangle,9,3,1,0,0,9,3,1,0,0,0,148,148,82,1,,,,,,,,
,,,,,,,,,,,,,FF,,,,,,,,5.6979,,,,,,,,,,,,,,,,,,,,,,5ecfd0b927d04d049d65b73d,61036eccf7272343cda563b6,2021-07-30_05h17.29.921,Simcolourproject_2stim_asymm_v5,2020.2.10,Win32,60,61025ae37ef11b136ea224fe,,,,,,,,,470,30,97,1,0,0,response1disk,,7,5,5,1,0,0,rectangle,5,5,1,0,0,5,5,1,0,0,0,149,149,98,1,,,,,,,,
,,,,,,,,,,,,,FF,,,,,,,,1.2165,,,,,,,,,,,,,,,,,,,,,,5ecfd0b927d04d049d65b73d,61036eccf7272343cda563b6,2021-07-30_05h17.29.921,Simcolourproject_2stim_asymm_v5,2020.2.10,Win32,60,61025ae37ef11b136ea224fe,,,,,,,,,2800,70,40,1,0,0,response1disk,,6,-1,17,1,0,0,rectangle,-1,17,1,0,0,-1,17,1,0,0,0,150,150,1,1,,,,,,,,
,,,,,,,,,,,,,FF,,,,,,,,1.4999,,,,,,,,,,,,,,,,,,,,,,5ecfd0b927d04d049d65b73d,61036eccf7272343cda563b6,2021-07-30_05h17.29.921,Simcolourproject_2stim_asymm_v5,2020.2.10,Win32,60,61025ae37ef11b136ea224fe,,,,,,,,,3395,55,97,1,0,0,response1disk,,7,5,0,1,0,0,rectangle,5,0,1,0,0,5,0,1,0,0,0,151,151,147,1,,,,,,,,
,,,,,,,,,,,,,FF,,,,,,,,0.6666,,,,,,,,,,,,,,,,,,,,,,5ecfd0b927d04d049d65b73d,61036eccf7272343cda563b6,2021-07-30_05h17.29.921,Simcolourproject_2stim_asymm_v5,2020.2.10,Win32,60,61025ae37ef11b136ea224fe,,,,,,,,,1638,36,69,1,0,0,response1disk,,7,-5,-9,1,0,0,rectangle,-5,-9,1,0,0,-5,-9,1,0,0,0,152,152,12,1,,,,,,,,
,,,,,,,,,,,,,FF,,,,,,,,1.1498,,,,,,,,,,,,,,,,,,,,,,5ecfd0b927d04d049d65b73d,61036eccf7272343cda563b6,2021-07-30_05h17.29.921,Simcolourproject_2stim_asymm_v5,2020.2.10,Win32,60,61025ae37ef11b136ea224fe,,,,,,,,,4237,-50,-31,1,0,0,response5disk,,2,18,5,1,0,0,rectangle,18,5,1,0,0,18,5,1,0,0,0,153,153,19,1,,,,,,,,
,,,,,,,,,,,,,FF,,,,,,,,0.7497,,,,,,,,,,,,,,,,,,,,,,5ecfd0b927d04d049d65b73d,61036eccf7272343cda563b6,2021-07-30_05h17.29.921,Simcolourproject_2stim_asymm_v5,2020.2.10,Win32,60,61025ae37ef11b136ea224fe,,,,,,,,,2252,50,67,1,0,0,response1disk,,7,17,13,1,0,0,rectangle,17,13,1,0,0,17,13,1,0,0,0,154,154,148,1,,,,,,,,
,,,,,,,,,,,,,FF,,,,,,,,0.7831,,,,,,,,,,,,,,,,,,,,,,5ecfd0b927d04d049d65b73d,61036eccf7272343cda563b6,2021-07-30_05h17.29.921,Simcolourproject_2stim_asymm_v5,2020.2.10,Win32,60,61025ae37ef11b136ea224fe,,,,,,,,,987,43,80,1,0,0,response1disk,,7,11,8,1,0,0,rectangle,11,8,1,0,0,11,8,1,0,0,0,155,155,40,1,,,,,,,,
,,,,,,,,,,,,,FF,,,,,,,,0.5995,,,,,,,,,,,,,,,,,,,,,,5ecfd0b927d04d049d65b73d,61036eccf7272343cda563b6,2021-07-30_05h17.29.921,Simcolourproject_2stim_asymm_v5,2020.2.10,Win32,60,61025ae37ef11b136ea224fe,,,,,,,,,114,40,61,1,0,0,response1disk,,7,-1,0,1,0,0,rectangle,-1,0,1,0,0,-1,0,1,0,0,0,156,156,9,1,,,,,,,,
,,,,,,,,,,,,,FF,,,,,,,,0.7497,,,,,,,,,,,,,,,,,,,,,,5ecfd0b927d04d049d65b73d,61036eccf7272343cda563b6,2021-07-30_05h17.29.921,Simcolourproject_2stim_asymm_v5,2020.2.10,Win32,60,61025ae37ef11b136ea224fe,,,,,,,,,2826,71,33,1,0,0,response1disk,,6,16,2,1,0,0,rectangle,16,2,1,0,0,16,2,1,0,0,0,157,157,113,1,,,,,,,,
,,,,,,,,,,,,,FF,,,,,,,,0.5499,,,,,,,,,,,,,,,,,,,,,,5ecfd0b927d04d049d65b73d,61036eccf7272343cda563b6,2021-07-30_05h17.29.921,Simcolourproject_2stim_asymm_v5,2020.2.10,Win32,60,61025ae37ef11b136ea224fe,,,,,,,,,3582,61,92,1,0,0,response1disk,,7,3,-2,1,0,0,rectangle,3,-2,1,0,0,3,-2,1,0,0,0,158,158,46,1,,,,,,,,
,,,,,,,,,,,,,FF,,,,,,,,0.6001,,,,,,,,,,,,,,,,,,,,,,5ecfd0b927d04d049d65b73d,61036eccf7272343cda563b6,2021-07-30_05h17.29.921,Simcolourproject_2stim_asymm_v5,2020.2.10,Win32,60,61025ae37ef11b136ea224fe,,,,,,,,,508,46,93,1,0,0,response1disk,,7,23,17,1,0,0,rectangle,23,17,1,0,0,23,17,1,0,0,0,159,159,133,1,,,,,,,,
,,,,,,,,,,,,,FF,,,,,,,,0.5331,,,,,,,,,,,,,,,,,,,,,,5ecfd0b927d04d049d65b73d,61036eccf7272343cda563b6,2021-07-30_05h17.29.921,Simcolourproject_2stim_asymm_v5,2020.2.10,Win32,60,61025ae37ef11b136ea224fe,,,,,,,,,396,88,41,1,0,0,response1disk,,6,17,1,1,0,0,rectangle,17,1,1,0,0,17,1,1,0,0,1,0,160,2,1,,,,,,,,
,,,,,,,,,,,,,FF,,,,,,,,0.6497,,,,,,,,,,,,,,,,,,,,,,5ecfd0b927d04d049d65b73d,61036eccf7272343cda563b6,2021-07-30_05h17.29.921,Simcolourproject_2stim_asymm_v5,2020.2.10,Win32,60,61025ae37ef11b136ea224fe,,,,,,,,,2637,84,37,1,0,0,response1disk,,6,14,-7,1,0,0,rectangle,14,-7,1,0,0,14,-7,1,0,0,1,1,161,148,1,,,,,,,,
,,,,,,,,,,,,,FF,,,,,,,,1.0495,,,,,,,,,,,,,,,,,,,,,,5ecfd0b927d04d049d65b73d,61036eccf7272343cda563b6,2021-07-30_05h17.29.921,Simcolourproject_2stim_asymm_v5,2020.2.10,Win32,60,61025ae37ef11b136ea224fe,,,,,,,,,1587,53,95,1,0,0,response1disk,,7,19,9,1,0,0,rectangle,19,9,1,0,0,19,9,1,0,0,1,2,162,135,1,,,,,,,,
,,,,,,,,,,,,,FF,,,,,,,,0.9498,,,,,,,,,,,,,,,,,,,,,,5ecfd0b927d04d049d65b73d,61036eccf7272343cda563b6,2021-07-30_05h17.29.921,Simcolourproject_2stim_asymm_v5,2020.2.10,Win32,60,61025ae37ef11b136ea224fe,,,,,,,,,1953,48,36,1,0,0,response1disk,,6,24,12,1,0,0,rectangle,24,12,1,0,0,24,12,1,0,0,1,3,163,118,1,,,,,,,,
,,,,,,,,,,,,,FF,,,,,,,,0.7666,,,,,,,,,,,,,,,,,,,,,,5ecfd0b927d04d049d65b73d,61036eccf7272343cda563b6,2021-07-30_05h17.29.921,Simcolourproject_2stim_asymm_v5,2020.2.10,Win32,60,61025ae37ef11b136ea224fe,,,,,,,,,310,77,46,1,0,0,response1disk,,6,11,-2,1,0,0,rectangle,11,-2,1,0,0,11,-2,1,0,0,1,4,164,113,1,,,,,,,,
,,,,,,,,,,,,,FF,,,,,,,,0.7831,,,,,,,,,,,,,,,,,,,,,,5ecfd0b927d04d049d65b73d,61036eccf7272343cda563b6,2021-07-30_05h17.29.921,Simcolourproject_2stim_asymm_v5,2020.2.10,Win32,60,61025ae37ef11b136ea224fe,,,,,,,,,771,51,84,1,0,0,response1disk,,7,30,11,1,0,0,rectangle,30,11,1,0,0,30,11,1,0,0,1,5,165,35,1,,,,,,,,
,,,,,,,,,,,,,FF,,,,,,,,1.4995,,,,,,,,,,,,,,,,,,,,,,5ecfd0b927d04d049d65b73d,61036eccf7272343cda563b6,2021-07-30_05h17.29.921,Simcolourproject_2stim_asymm_v5,2020.2.10,Win32,60,61025ae37ef11b136ea224fe,,,,,,,,,3946,66,-51,1,0,0,response3disk,,5,15,-5,1,0,0,rectangle,15,-5,1,0,0,15,-5,1,0,0,1,6,166,127,1,,,,,,,,
,,,,,,,,,,,,,FF,,,,,,,,0.7499,,,,,,,,,,,,,,,,,,,,,,5ecfd0b927d04d049d65b73d,61036eccf7272343cda563b6,2021-07-30_05h17.29.921,Simcolourproject_2stim_asymm_v5,2020.2.10,Win32,60,61025ae37ef11b136ea224fe,,,,,,,,,1356,51,89,1,0,0,response1disk,,7,8,11,1,0,0,rectangle,8,11,1,0,0,8,11,1,0,0,1,7,167,95,1,,,,,,,,
,,,,,,,,,,,,,FF,,,,,,,,0.6331,,,,,,,,,,,,,,,,,,,,,,5ecfd0b927d04d049d65b73d,61036eccf7272343cda563b6,2021-07-30_05h17.29.921,Simcolourproject_2stim_asymm_v5,2020.2.10,Win32,60,61025ae37ef11b136ea224fe,,,,,,,,,2560,85,42,1,0,0,response1disk,,6,11,5,1,0,0,rectangle,11,5,1,0,0,11,5,1,0,0,1,8,168,44,1,,,,,,,,
,,,,,,,,,,,,,FF,,,,,,,,1.6826,,,,,,,,,,,,,,,,,,,,,,5ecfd0b927d04d049d65b73d,61036eccf7272343cda563b6,2021-07-30_05h17.29.921,Simcolourproject_2stim_asymm_v5,2020.2.10,Win32,60,61025ae37ef11b136ea224fe,,,,,,,,,2362,-40,-70,1,0,0,response5disk,,3,10,0,1,0,0,rectangle,10,0,1,0,0,10,0,1,0,0,1,9,169,98,1,,,,,,,,
,,,,,,,,,,,,,FF,,,,,,,,1.0832,,,,,,,,,,,,,,,,,,,,,,5ecfd0b927d04d049d65b73d,61036eccf7272343cda563b6,2021-07-30_05h17.29.921,Simcolourproject_2stim_asymm_v5,2020.2.10,Win32,60,61025ae37ef11b136ea224fe,,,,,,,,,1305,-50,-71,1,0,0,response5disk,,3,7,-8,1,0,0,rectangle,7,-8,1,0,0,7,-8,1,0,0,1,10,170,149,1,,,,,,,,
,,,,,,,,,,,,,FF,,,,,,,,0.5997,,,,,,,,,,,,,,,,,,,,,,5ecfd0b927d04d049d65b73d,61036eccf7272343cda563b6,2021-07-30_05h17.29.921,Simcolourproject_2stim_asymm_v5,2020.2.10,Win32,60,61025ae37ef11b136ea224fe,,,,,,,,,3132,53,84,1,0,0,response1disk,,7,21,12,1,0,0,rectangle,21,12,1,0,0,21,12,1,0,0,1,11,171,60,1,,,,,,,,
,,,,,,,,,,,,,FF,,,,,,,,1.283,,,,,,,,,,,,,,,,,,,,,,5ecfd0b927d04d049d65b73d,61036eccf7272343cda563b6,2021-07-30_05h17.29.921,Simcolourproject_2stim_asymm_v5,2020.2.10,Win32,60,61025ae37ef11b136ea224fe,,,,,,,,,828,59,41,1,0,0,response1disk,,6,13,-3,1,0,0,rectangle,13,-3,1,0,0,13,-3,1,0,0,1,12,172,77,1,,,,,,,,
,,,,,,,,,,,,,FF,,,,,,,,1.4329,,,,,,,,,,,,,,,,,,,,,,5ecfd0b927d04d049d65b73d,61036eccf7272343cda563b6,2021-07-30_05h17.29.921,Simcolourproject_2stim_asymm_v5,2020.2.10,Win32,60,61025ae37ef11b136ea224fe,,,,,,,,,2651,48,74,1,0,0,response1disk,,7,23,1,1,0,0,rectangle,23,1,1,0,0,23,1,1,0,0,1,13,173,70,1,,,,,,,,
,,,,,,,,,,,,,FF,,,,,,,,1.3333,,,,,,,,,,,,,,,,,,,,,,5ecfd0b927d04d049d65b73d,61036eccf7272343cda563b6,2021-07-30_05h17.29.921,Simcolourproject_2stim_asymm_v5,2020.2.10,Win32,60,61025ae37ef11b136ea224fe,,,,,,,,,1610,-59,-79,1,0,0,response5disk,,3,10,4,1,0,0,rectangle,10,4,1,0,0,10,4,1,0,0,1,14,174,90,1,,,,,,,,
,,,,,,,,,,,,,FF,,,,,,,,1.2826,,,,,,,,,,,,,,,,,,,,,,5ecfd0b927d04d049d65b73d,61036eccf7272343cda563b6,2021-07-30_05h17.29.921,Simcolourproject_2stim_asymm_v5,2020.2.10,Win32,60,61025ae37ef11b136ea224fe,,,,,,,,,2292,-20,82,1,0,0,response7disk,,0,-14,3,1,0,0,rectangle,-14,3,1,0,0,-14,3,1,0,0,1,15,175,67,1,,,,,,,,
,,,,,,,,,,,,,FF,,,,,,,,0.6332,,,,,,,,,,,,,,,,,,,,,,5ecfd0b927d04d049d65b73d,61036eccf7272343cda563b6,2021-07-30_05h17.29.921,Simcolourproject_2stim_asymm_v5,2020.2.10,Win32,60,61025ae37ef11b136ea224fe,,,,,,,,,1983,53,76,1,0,0,response1disk,,7,24,3,1,0,0,rectangle,24,3,1,0,0,24,3,1,0,0,1,16,176,86,1,,,,,,,,
,,,,,,,,,,,,,FF,,,,,,,,0.6997,,,,,,,,,,,,,,,,,,,,,,5ecfd0b927d04d049d65b73d,61036eccf7272343cda563b6,2021-07-30_05h17.29.921,Simcolourproject_2stim_asymm_v5,2020.2.10,Win32,60,61025ae37ef11b136ea224fe,,,,,,,,,650,77,36,1,0,0,response1disk,,6,19,-8,1,0,0,rectangle,19,-8,1,0,0,19,-8,1,0,0,1,17,177,23,1,,,,,,,,
,,,,,,,,,,,,,FF,,,,,,,,0.8165,,,,,,,,,,,,,,,,,,,,,,5ecfd0b927d04d049d65b73d,61036eccf7272343cda563b6,2021-07-30_05h17.29.921,Simcolourproject_2stim_asymm_v5,2020.2.10,Win32,60,61025ae37ef11b136ea224fe,,,,,,,,,813,67,31,1,0,0,response1disk,,6,14,-5,1,0,0,rectangle,14,-5,1,0,0,14,-5,1,0,0,1,18,178,66,1,,,,,,,,
,,,,,,,,,,,,,FF,,,,,,,,1.9494,,,,,,,,,,,,,,,,,,,,,,5ecfd0b927d04d049d65b73d,61036eccf7272343cda563b6,2021-07-30_05h17.29.921,Simcolourproject_2stim_asymm_v5,2020.2.10,Win32,60,61025ae37ef11b136ea224fe,,,,,,,,,2231,-32,-77,1,0,0,response5disk,,3,7,-8,1,0,0,rectangle,7,-8,1,0,0,7,-8,1,0,0,1,19,179,14,1,,,,,,,,
,,,,,,,,,,,,,FF,,,,,,,,0.8996,,,,,,,,,,,,,,,,,,,,,,5ecfd0b927d04d049d65b73d,61036eccf7272343cda563b6,2021-07-30_05h17.29.921,Simcolourproject_2stim_asymm_v5,2020.2.10,Win32,60,61025ae37ef11b136ea224fe,,,,,,,,,4173,39,87,1,0,0,response1disk,,7,-2,-7,1,0,0,rectangle,-2,-7,1,0,0,-2,-7,1,0,0,1,20,180,137,1,,,,,,,,
,,,,,,,,,,,,,FF,,,,,,,,0.6332,,,,,,,,,,,,,,,,,,,,,,5ecfd0b927d04d049d65b73d,61036eccf7272343cda563b6,2021-07-30_05h17.29.921,Simcolourproject_2stim_asymm_v5,2020.2.10,Win32,60,61025ae37ef11b136ea224fe,,,,,,,,,1429,35,78,1,0,0,response1disk,,7,14,2,1,0,0,rectangle,14,2,1,0,0,14,2,1,0,0,1,21,181,37,1,,,,,,,,
,,,,,,,,,,,,,FF,,,,,,,,2.0661,,,,,,,,,,,,,,,,,,,,,,5ecfd0b927d04d049d65b73d,61036eccf7272343cda563b6,2021-07-30_05h17.29.921,Simcolourproject_2stim_asymm_v5,2020.2.10,Win32,60,61025ae37ef11b136ea224fe,,,,,,,,,4322,36,68,1,0,0,response1disk,,7,17,19,1,0,0,rectangle,17,19,1,0,0,17,19,1,0,0,1,22,182,109,1,,,,,,,,
,,,,,,,,,,,,,FF,,,,,,,,2.9824,,,,,,,,,,,,,,,,,,,,,,5ecfd0b927d04d049d65b73d,61036eccf7272343cda563b6,2021-07-30_05h17.29.921,Simcolourproject_2stim_asymm_v5,2020.2.10,Win32,60,61025ae37ef11b136ea224fe,,,,,,,,,3984,31,61,1,0,0,response1disk,,7,16,3,1,0,0,rectangle,16,3,1,0,0,16,3,1,0,0,1,23,183,0,1,,,,,,,,
,,,,,,,,,,,,,FF,,,,,,,,1.0498,,,,,,,,,,,,,,,,,,,,,,5ecfd0b927d04d049d65b73d,61036eccf7272343cda563b6,2021-07-30_05h17.29.921,Simcolourproject_2stim_asymm_v5,2020.2.10,Win32,60,61025ae37ef11b136ea224fe,,,,,,,,,575,42,77,1,0,0,response1disk,,7,25,-4,1,0,0,rectangle,25,-4,1,0,0,25,-4,1,0,0,1,24,184,32,1,,,,,,,,
,,,,,,,,,,,,,FF,,,,,,,,0.683,,,,,,,,,,,,,,,,,,,,,,5ecfd0b927d04d049d65b73d,61036eccf7272343cda563b6,2021-07-30_05h17.29.921,Simcolourproject_2stim_asymm_v5,2020.2.10,Win32,60,61025ae37ef11b136ea224fe,,,,,,,,,560,32,44,1,0,0,response1disk,,7,19,3,1,0,0,rectangle,19,3,1,0,0,19,3,1,0,0,1,25,185,1,1,,,,,,,,
,,,,,,,,,,,,,FF,,,,,,,,0.6334,,,,,,,,,,,,,,,,,,,,,,5ecfd0b927d04d049d65b73d,61036eccf7272343cda563b6,2021-07-30_05h17.29.921,Simcolourproject_2stim_asymm_v5,2020.2.10,Win32,60,61025ae37ef11b136ea224fe,,,,,,,,,2182,44,34,1,0,0,response1disk,,6,7,4,1,0,0,rectangle,-73,39,1,0,0,11,2,1,0,0,1,26,186,104,1,,response7disk_3,TRUE,1,1,"[108,127,52,114,235,187,104,72,36,62,98,17,233,284,187,288,235,16,209,209]",1.483,rectangle
,,,,,,,,,,,,,FF,,,,,,,,1.6162,,,,,,,,,,,,,,,,,,,,,,5ecfd0b927d04d049d65b73d,61036eccf7272343cda563b6,2021-07-30_05h17.29.921,Simcolourproject_2stim_asymm_v5,2020.2.10,Win32,60,61025ae37ef11b136ea224fe,,,,,,,,,1326,40,75,1,0,0,response1disk,,7,8,8,1,0,0,rectangle,8,8,1,0,0,8,8,1,0,0,1,27,187,56,1,,,,,,,,
,,,,,,,,,,,,,FF,,,,,,,,0.9165,,,,,,,,,,,,,,,,,,,,,,5ecfd0b927d04d049d65b73d,61036eccf7272343cda563b6,2021-07-30_05h17.29.921,Simcolourproject_2stim_asymm_v5,2020.2.10,Win32,60,61025ae37ef11b136ea224fe,,,,,,,,,380,34,69,1,0,0,response1disk,,7,8,10,1,0,0,rectangle,8,10,1,0,0,8,10,1,0,0,1,28,188,25,1,,,,,,,,
,,,,,,,,,,,,,FF,,,,,,,,0.5663,,,,,,,,,,,,,,,,,,,,,,5ecfd0b927d04d049d65b73d,61036eccf7272343cda563b6,2021-07-30_05h17.29.921,Simcolourproject_2stim_asymm_v5,2020.2.10,Win32,60,61025ae37ef11b136ea224fe,,,,,,,,,1079,34,53,1,0,0,response1disk,,7,1,-12,1,0,0,rectangle,1,-12,1,0,0,1,-12,1,0,0,1,29,189,59,1,,,,,,,,
,,,,,,,,,,,,,FF,,,,,,,,0.7165,,,,,,,,,,,,,,,,,,,,,,5ecfd0b927d04d049d65b73d,61036eccf7272343cda563b6,2021-07-30_05h17.29.921,Simcolourproject_2stim_asymm_v5,2020.2.10,Win32,60,61025ae37ef11b136ea224fe,,,,,,,,,3173,41,86,1,0,0,response1disk,,7,7,10,1,0,0,rectangle,7,10,1,0,0,7,10,1,0,0,1,30,190,102,1,,,,,,,,
,,,,,,,,,,,,,FF,,,,,,,,0.6165,,,,,,,,,,,,,,,,,,,,,,5ecfd0b927d04d049d65b73d,61036eccf7272343cda563b6,2021-07-30_05h17.29.921,Simcolourproject_2stim_asymm_v5,2020.2.10,Win32,60,61025ae37ef11b136ea224fe,,,,,,,,,2455,34,80,1,0,0,response1disk,,7,3,2,1,0,0,rectangle,3,2,1,0,0,3,2,1,0,0,1,31,191,73,1,,,,,,,,
,,,,,,,,,,,,,FF,,,,,,,,0.6499,,,,,,,,,,,,,,,,,,,,,,5ecfd0b927d04d049d65b73d,61036eccf7272343cda563b6,2021-07-30_05h17.29.921,Simcolourproject_2stim_asymm_v5,2020.2.10,Win32,60,61025ae37ef11b136ea224fe,,,,,,,,,4012,58,79,1,0,0,response1disk,,7,-1,-2,1,0,0,rectangle,-1,-2,1,0,0,-1,-2,1,0,0,1,32,192,99,1,,,,,,,,
,,,,,,,,,,,,,FF,,,,,,,,0.6498,,,,,,,,,,,,,,,,,,,,,,5ecfd0b927d04d049d65b73d,61036eccf7272343cda563b6,2021-07-30_05h17.29.921,Simcolourproject_2stim_asymm_v5,2020.2.10,Win32,60,61025ae37ef11b136ea224fe,,,,,,,,,591,28,74,1,0,0,response1disk,,7,2,17,1,0,0,rectangle,2,17,1,0,0,2,17,1,0,0,1,33,193,17,1,,,,,,,,
,,,,,,,,,,,,,FF,,,,,,,,0.5831,,,,,,,,,,,,,,,,,,,,,,5ecfd0b927d04d049d65b73d,61036eccf7272343cda563b6,2021-07-30_05h17.29.921,Simcolourproject_2stim_asymm_v5,2020.2.10,Win32,60,61025ae37ef11b136ea224fe,,,,,,,,,3809,42,86,1,0,0,response1disk,,7,9,14,1,0,0,rectangle,9,14,1,0,0,9,14,1,0,0,1,34,194,19,1,,,,,,,,
,,,,,,,,,,,,,FF,,,,,,,,0.7667,,,,,,,,,,,,,,,,,,,,,,5ecfd0b927d04d049d65b73d,61036eccf7272343cda563b6,2021-07-30_05h17.29.921,Simcolourproject_2stim_asymm_v5,2020.2.10,Win32,60,61025ae37ef11b136ea224fe,,,,,,,,,598,33,70,1,0,0,response1disk,,7,7,6,1,0,0,rectangle,7,6,1,0,0,7,6,1,0,0,1,35,195,21,1,,,,,,,,
,,,,,,,,,,,,,FF,,,,,,,,0.5331,,,,,,,,,,,,,,,,,,,,,,5ecfd0b927d04d049d65b73d,61036eccf7272343cda563b6,2021-07-30_05h17.29.921,Simcolourproject_2stim_asymm_v5,2020.2.10,Win32,60,61025ae37ef11b136ea224fe,,,,,,,,,181,50,70,1,0,0,response1disk,,7,13,0,1,0,0,rectangle,13,0,1,0,0,13,0,1,0,0,1,36,196,27,1,,,,,,,,
,,,,,,,,,,,,,FF,,,,,,,,0.6999,,,,,,,,,,,,,,,,,,,,,,5ecfd0b927d04d049d65b73d,61036eccf7272343cda563b6,2021-07-30_05h17.29.921,Simcolourproject_2stim_asymm_v5,2020.2.10,Win32,60,61025ae37ef11b136ea224fe,,,,,,,,,3388,-32,88,1,0,0,response7disk,,0,1,16,1,0,0,rectangle,1,16,1,0,0,1,16,1,0,0,1,37,197,76,1,,,,,,,,
,,,,,,,,,,,,,FF,,,,,,,,0.6165,,,,,,,,,,,,,,,,,,,,,,5ecfd0b927d04d049d65b73d,61036eccf7272343cda563b6,2021-07-30_05h17.29.921,Simcolourproject_2stim_asymm_v5,2020.2.10,Win32,60,61025ae37ef11b136ea224fe,,,,,,,,,3326,34,93,1,0,0,response1disk,,7,10,9,1,0,0,rectangle,10,9,1,0,0,10,9,1,0,0,1,38,198,81,1,,,,,,,,
,,,,,,,,,,,,,FF,,,,,,,,0.5999,,,,,,,,,,,,,,,,,,,,,,5ecfd0b927d04d049d65b73d,61036eccf7272343cda563b6,2021-07-30_05h17.29.921,Simcolourproject_2stim_asymm_v5,2020.2.10,Win32,60,61025ae37ef11b136ea224fe,,,,,,,,,3159,28,71,1,0,0,response1disk,,7,3,1,1,0,0,rectangle,3,1,1,0,0,3,1,1,0,0,1,39,199,69,1,,,,,,,,
,,,,,,,,,,,,,FF,,,,,,,,0.4331,,,,,,,,,,,,,,,,,,,,,,5ecfd0b927d04d049d65b73d,61036eccf7272343cda563b6,2021-07-30_05h17.29.921,Simcolourproject_2stim_asymm_v5,2020.2.10,Win32,60,61025ae37ef11b136ea224fe,,,,,,,,,2772,50,84,1,0,0,response1disk,,7,17,5,1,0,0,rectangle,17,5,1,0,0,17,5,1,0,0,1,40,200,131,1,,,,,,,,
,,,,,,,,,,,,,FF,,,,,,,,0.4499,,,,,,,,,,,,,,,,,,,,,,5ecfd0b927d04d049d65b73d,61036eccf7272343cda563b6,2021-07-30_05h17.29.921,Simcolourproject_2stim_asymm_v5,2020.2.10,Win32,60,61025ae37ef11b136ea224fe,,,,,,,,,1640,41,74,1,0,0,response1disk,,7,6,-3,1,0,0,rectangle,6,-3,1,0,0,6,-3,1,0,0,1,41,201,111,1,,,,,,,,
,,,,,,,,,,,,,FF,,,,,,,,0.4999,,,,,,,,,,,,,,,,,,,,,,5ecfd0b927d04d049d65b73d,61036eccf7272343cda563b6,2021-07-30_05h17.29.921,Simcolourproject_2stim_asymm_v5,2020.2.10,Win32,60,61025ae37ef11b136ea224fe,,,,,,,,,2747,35,70,1,0,0,response1disk,,7,8,-10,1,0,0,rectangle,8,-10,1,0,0,8,-10,1,0,0,1,42,202,132,1,,,,,,,,
,,,,,,,,,,,,,FF,,,,,,,,0.6999,,,,,,,,,,,,,,,,,,,,,,5ecfd0b927d04d049d65b73d,61036eccf7272343cda563b6,2021-07-30_05h17.29.921,Simcolourproject_2stim_asymm_v5,2020.2.10,Win32,60,61025ae37ef11b136ea224fe,,,,,,,,,3680,39,89,1,0,0,response1disk,,7,11,8,1,0,0,rectangle,11,8,1,0,0,11,8,1,0,0,1,43,203,41,1,,,,,,,,
,,,,,,,,,,,,,FF,,,,,,,,1.4331,,,,,,,,,,,,,,,,,,,,,,5ecfd0b927d04d049d65b73d,61036eccf7272343cda563b6,2021-07-30_05h17.29.921,Simcolourproject_2stim_asymm_v5,2020.2.10,Win32,60,61025ae37ef11b136ea224fe,,,,,,,,,1459,-76,22,1,0,0,response7disk,,1,-9,3,1,0,0,rectangle,-9,3,1,0,0,-9,3,1,0,0,1,44,204,112,1,,,,,,,,
,,,,,,,,,,,,,FF,,,,,,,,1.233,,,,,,,,,,,,,,,,,,,,,,5ecfd0b927d04d049d65b73d,61036eccf7272343cda563b6,2021-07-30_05h17.29.921,Simcolourproject_2stim_asymm_v5,2020.2.10,Win32,60,61025ae37ef11b136ea224fe,,,,,,,,,944,30,75,1,0,0,response1disk,,7,3,6,1,0,0,rectangle,3,6,1,0,0,3,6,1,0,0,1,45,205,158,1,,,,,,,,
,,,,,,,,,,,,,FF,,,,,,,,0.9997,,,,,,,,,,,,,,,,,,,,,,5ecfd0b927d04d049d65b73d,61036eccf7272343cda563b6,2021-07-30_05h17.29.921,Simcolourproject_2stim_asymm_v5,2020.2.10,Win32,60,61025ae37ef11b136ea224fe,,,,,,,,,2015,62,82,1,0,0,response1disk,,7,24,13,1,0,0,rectangle,24,13,1,0,0,24,13,1,0,0,1,46,206,24,1,,,,,,,,
,,,,,,,,,,,,,FF,,,,,,,,0.7832,,,,,,,,,,,,,,,,,,,,,,5ecfd0b927d04d049d65b73d,61036eccf7272343cda563b6,2021-07-30_05h17.29.921,Simcolourproject_2stim_asymm_v5,2020.2.10,Win32,60,61025ae37ef11b136ea224fe,,,,,,,,,3899,32,74,1,0,0,response1disk,,7,7,12,1,0,0,rectangle,7,12,1,0,0,7,12,1,0,0,1,47,207,83,1,,,,,,,,
,,,,,,,,,,,,,FF,,,,,,,,1.0165,,,,,,,,,,,,,,,,,,,,,,5ecfd0b927d04d049d65b73d,61036eccf7272343cda563b6,2021-07-30_05h17.29.921,Simcolourproject_2stim_asymm_v5,2020.2.10,Win32,60,61025ae37ef11b136ea224fe,,,,,,,,,4131,23,82,1,0,0,response1disk,,7,6,0,1,0,0,rectangle,-31,83,1,0,0,9,4,1,0,0,1,48,208,4,1,,response7disk_3,TRUE,0,0,"[108,127,52,114,235,187,104,72,36,62,98,17,233,284,187,288,235,16,209,209]",1.599,rectangle
,,,,,,,,,,,,,FF,,,,,,,,0.5834,,,,,,,,,,,,,,,,,,,,,,5ecfd0b927d04d049d65b73d,61036eccf7272343cda563b6,2021-07-30_05h17.29.921,Simcolourproject_2stim_asymm_v5,2020.2.10,Win32,60,61025ae37ef11b136ea224fe,,,,,,,,,3866,32,72,1,0,0,response1disk,,7,10,-1,1,0,0,rectangle,10,-1,1,0,0,10,-1,1,0,0,1,49,209,123,1,,,,,,,,
,,,,,,,,,,,,,FF,,,,,,,,0.5167,,,,,,,,,,,,,,,,,,,,,,5ecfd0b927d04d049d65b73d,61036eccf7272343cda563b6,2021-07-30_05h17.29.921,Simcolourproject_2stim_asymm_v5,2020.2.10,Win32,60,61025ae37ef11b136ea224fe,,,,,,,,,2223,43,90,1,0,0,response1disk,,7,7,7,1,0,0,rectangle,7,7,1,0,0,7,7,1,0,0,1,50,210,8,1,,,,,,,,
,,,,,,,,,,,,,FF,,,,,,,,1.1496,,,,,,,,,,,,,,,,,,,,,,5ecfd0b927d04d049d65b73d,61036eccf7272343cda563b6,2021-07-30_05h17.29.921,Simcolourproject_2stim_asymm_v5,2020.2.10,Win32,60,61025ae37ef11b136ea224fe,,,,,,,,,3740,39,61,1,0,0,response1disk,,7,16,2,1,0,0,rectangle,16,2,1,0,0,16,2,1,0,0,1,51,211,80,1,,,,,,,,
,,,,,,,,,,,,,FF,,,,,,,,1.0333,,,,,,,,,,,,,,,,,,,,,,5ecfd0b927d04d049d65b73d,61036eccf7272343cda563b6,2021-07-30_05h17.29.921,Simcolourproject_2stim_asymm_v5,2020.2.10,Win32,60,61025ae37ef11b136ea224fe,,,,,,,,,3260,40,67,1,0,0,response1disk,,7,18,7,1,0,0,rectangle,18,7,1,0,0,18,7,1,0,0,1,52,212,12,1,,,,,,,,
,,,,,,,,,,,,,FF,,,,,,,,0.5167,,,,,,,,,,,,,,,,,,,,,,5ecfd0b927d04d049d65b73d,61036eccf7272343cda563b6,2021-07-30_05h17.29.921,Simcolourproject_2stim_asymm_v5,2020.2.10,Win32,60,61025ae37ef11b136ea224fe,,,,,,,,,1520,45,81,1,0,0,response1disk,,7,-25,-18,1,0,0,rectangle,-25,-18,1,0,0,-25,-18,1,0,0,1,53,213,82,1,,,,,,,,
,,,,,,,,,,,,,FF,,,,,,,,1.4996,,,,,,,,,,,,,,,,,,,,,,5ecfd0b927d04d049d65b73d,61036eccf7272343cda563b6,2021-07-30_05h17.29.921,Simcolourproject_2stim_asymm_v5,2020.2.10,Win32,60,61025ae37ef11b136ea224fe,,,,,,,,,296,49,84,1,0,0,response1disk,,7,23,0,1,0,0,rectangle,23,0,1,0,0,23,0,1,0,0,1,54,214,54,1,,,,,,,,
,,,,,,,,,,,,,FF,,,,,,,,0.9996,,,,,,,,,,,,,,,,,,,,,,5ecfd0b927d04d049d65b73d,61036eccf7272343cda563b6,2021-07-30_05h17.29.921,Simcolourproject_2stim_asymm_v5,2020.2.10,Win32,60,61025ae37ef11b136ea224fe,,,,,,,,,4235,-28,70,1,0,0,response7disk,,0,2,7,1,0,0,rectangle,2,7,1,0,0,2,7,1,0,0,1,55,215,146,1,,,,,,,,
,,,,,,,,,,,,,FF,,,,,,,,0.6164,,,,,,,,,,,,,,,,,,,,,,5ecfd0b927d04d049d65b73d,61036eccf7272343cda563b6,2021-07-30_05h17.29.921,Simcolourproject_2stim_asymm_v5,2020.2.10,Win32,60,61025ae37ef11b136ea224fe,,,,,,,,,1623,66,93,1,0,0,response1disk,,7,4,-4,1,0,0,rectangle,4,-4,1,0,0,4,-4,1,0,0,1,56,216,71,1,,,,,,,,
,,,,,,,,,,,,,FF,,,,,,,,1.5328,,,,,,,,,,,,,,,,,,,,,,5ecfd0b927d04d049d65b73d,61036eccf7272343cda563b6,2021-07-30_05h17.29.921,Simcolourproject_2stim_asymm_v5,2020.2.10,Win32,60,61025ae37ef11b136ea224fe,,,,,,,,,1683,-86,-41,1,0,0,response5disk,,2,-5,-4,1,0,0,rectangle,-5,-4,1,0,0,-5,-4,1,0,0,1,57,217,147,1,,,,,,,,
,,,,,,,,,,,,,FF,,,,,,,,0.6666,,,,,,,,,,,,,,,,,,,,,,5ecfd0b927d04d049d65b73d,61036eccf7272343cda563b6,2021-07-30_05h17.29.921,Simcolourproject_2stim_asymm_v5,2020.2.10,Win32,60,61025ae37ef11b136ea224fe,,,,,,,,,1740,28,91,1,0,0,response1disk,,7,1,11,1,0,0,rectangle,1,11,1,0,0,1,11,1,0,0,1,58,218,110,1,,,,,,,,
,,,,,,,,,,,,,FF,,,,,,,,0.683,,,,,,,,,,,,,,,,,,,,,,5ecfd0b927d04d049d65b73d,61036eccf7272343cda563b6,2021-07-30_05h17.29.921,Simcolourproject_2stim_asymm_v5,2020.2.10,Win32,60,61025ae37ef11b136ea224fe,,,,,,,,,1695,44,93,1,0,0,response1disk,,7,-1,-1,1,0,0,rectangle,-1,-1,1,0,0,-1,-1,1,0,0,1,59,219,138,1,,,,,,,,
,,,,,,,,,,,,,FF,,,,,,,,0.7997,,,,,,,,,,,,,,,,,,,,,,5ecfd0b927d04d049d65b73d,61036eccf7272343cda563b6,2021-07-30_05h17.29.921,Simcolourproject_2stim_asymm_v5,2020.2.10,Win32,60,61025ae37ef11b136ea224fe,,,,,,,,,2966,23,65,1,0,0,response1disk,,7,-3,-4,1,0,0,rectangle,-3,-4,1,0,0,-3,-4,1,0,0,1,60,220,74,1,,,,,,,,
,,,,,,,,,,,,,FF,,,,,,,,0.8498,,,,,,,,,,,,,,,,,,,,,,5ecfd0b927d04d049d65b73d,61036eccf7272343cda563b6,2021-07-30_05h17.29.921,Simcolourproject_2stim_asymm_v5,2020.2.10,Win32,60,61025ae37ef11b136ea224fe,,,,,,,,,999,29,69,1,0,0,response1disk,,7,5,-1,1,0,0,rectangle,5,-1,1,0,0,5,-1,1,0,0,1,61,221,72,1,,,,,,,,
,,,,,,,,,,,,,FF,,,,,,,,2.2159,,,,,,,,,,,,,,,,,,,,,,5ecfd0b927d04d049d65b73d,61036eccf7272343cda563b6,2021-07-30_05h17.29.921,Simcolourproject_2stim_asymm_v5,2020.2.10,Win32,60,61025ae37ef11b136ea224fe,,,,,,,,,3713,20,-82,1,0,0,response3disk,,4,-8,10,1,0,0,rectangle,-8,10,1,0,0,-8,10,1,0,0,1,62,222,122,1,,,,,,,,
,,,,,,,,,,,,,FF,,,,,,,,2.0991,,,,,,,,,,,,,,,,,,,,,,5ecfd0b927d04d049d65b73d,61036eccf7272343cda563b6,2021-07-30_05h17.29.921,Simcolourproject_2stim_asymm_v5,2020.2.10,Win32,60,61025ae37ef11b136ea224fe,,,,,,,,,1814,71,-19,1,0,0,response3disk,,5,26,13,1,0,0,rectangle,26,13,1,0,0,26,13,1,0,0,1,63,223,10,1,,,,,,,,
,,,,,,,,,,,,,FF,,,,,,,,1.9659,,,,,,,,,,,,,,,,,,,,,,5ecfd0b927d04d049d65b73d,61036eccf7272343cda563b6,2021-07-30_05h17.29.921,Simcolourproject_2stim_asymm_v5,2020.2.10,Win32,60,61025ae37ef11b136ea224fe,,,,,,,,,4080,55,89,1,0,0,response1disk,,7,17,3,1,0,0,rectangle,17,3,1,0,0,17,3,1,0,0,1,64,224,28,1,,,,,,,,
,,,,,,,,,,,,,FF,,,,,,,,1.4663,,,,,,,,,,,,,,,,,,,,,,5ecfd0b927d04d049d65b73d,61036eccf7272343cda563b6,2021-07-30_05h17.29.921,Simcolourproject_2stim_asymm_v5,2020.2.10,Win32,60,61025ae37ef11b136ea224fe,,,,,,,,,2835,64,-51,1,0,0,response3disk,,5,12,-2,1,0,0,rectangle,12,-2,1,0,0,12,-2,1,0,0,1,65,225,18,1,,,,,,,,
,,,,,,,,,,,,,FF,,,,,,,,2.8155,,,,,,,,,,,,,,,,,,,,,,5ecfd0b927d04d049d65b73d,61036eccf7272343cda563b6,2021-07-30_05h17.29.921,Simcolourproject_2stim_asymm_v5,2020.2.10,Win32,60,61025ae37ef11b136ea224fe,,,,,,,,,2867,50,85,1,0,0,response1disk,,7,18,5,1,0,0,rectangle,18,5,1,0,0,18,5,1,0,0,1,66,226,121,1,,,,,,,,
,,,,,,,,,,,,,FF,,,,,,,,0.6666,,,,,,,,,,,,,,,,,,,,,,5ecfd0b927d04d049d65b73d,61036eccf7272343cda563b6,2021-07-30_05h17.29.921,Simcolourproject_2stim_asymm_v5,2020.2.10,Win32,60,61025ae37ef11b136ea224fe,,,,,,,,,3734,48,83,1,0,0,response1disk,,7,21,-14,1,0,0,rectangle,21,-14,1,0,0,21,-14,1,0,0,1,67,227,31,1,,,,,,,,
,,,,,,,,,,,,,FF,,,,,,,,0.8997,,,,,,,,,,,,,,,,,,,,,,5ecfd0b927d04d049d65b73d,61036eccf7272343cda563b6,2021-07-30_05h17.29.921,Simcolourproject_2stim_asymm_v5,2020.2.10,Win32,60,61025ae37ef11b136ea224fe,,,,,,,,,2804,41,78,1,0,0,response1disk,,7,24,5,1,0,0,rectangle,24,5,1,0,0,24,5,1,0,0,1,68,228,61,1,,,,,,,,
,,,,,,,,,,,,,FF,,,,,,,,0.9828,,,,,,,,,,,,,,,,,,,,,,5ecfd0b927d04d049d65b73d,61036eccf7272343cda563b6,2021-07-30_05h17.29.921,Simcolourproject_2stim_asymm_v5,2020.2.10,Win32,60,61025ae37ef11b136ea224fe,,,,,,,,,2860,40,67,1,0,0,response1disk,,7,18,9,1,0,0,rectangle,18,9,1,0,0,18,9,1,0,0,1,69,229,152,1,,,,,,,,
,,,,,,,,,,,,,FF,,,,,,,,2.4158,,,,,,,,,,,,,,,,,,,,,,5ecfd0b927d04d049d65b73d,61036eccf7272343cda563b6,2021-07-30_05h17.29.921,Simcolourproject_2stim_asymm_v5,2020.2.10,Win32,60,61025ae37ef11b136ea224fe,,,,,,,,,2419,-35,-77,1,0,0,response5disk,,3,2,7,1,0,0,rectangle,2,7,1,0,0,2,7,1,0,0,1,70,230,47,1,,,,,,,,
,,,,,,,,,,,,,FF,,,,,,,,0.6831,,,,,,,,,,,,,,,,,,,,,,5ecfd0b927d04d049d65b73d,61036eccf7272343cda563b6,2021-07-30_05h17.29.921,Simcolourproject_2stim_asymm_v5,2020.2.10,Win32,60,61025ae37ef11b136ea224fe,,,,,,,,,418,24,72,1,0,0,response1disk,,7,10,7,1,0,0,rectangle,10,7,1,0,0,10,7,1,0,0,1,71,231,129,1,,,,,,,,
,,,,,,,,,,,,,FF,,,,,,,,0.6667,,,,,,,,,,,,,,,,,,,,,,5ecfd0b927d04d049d65b73d,61036eccf7272343cda563b6,2021-07-30_05h17.29.921,Simcolourproject_2stim_asymm_v5,2020.2.10,Win32,60,61025ae37ef11b136ea224fe,,,,,,,,,1495,56,89,1,0,0,response1disk,,7,9,8,1,0,0,rectangle,-86,53,1,0,0,6,12,1,0,0,1,72,232,36,1,,response7disk_3,TRUE,1,1,"[108,127,52,114,235,187,104,72,36,62,98,17,233,284,187,288,235,16,209,209]",1.416,rectangle
,,,,,,,,,,,,,FF,,,,,,,,1.6534,,,,,,,,,,,,,,,,,,,,,,5ecfd0b927d04d049d65b73d,61036eccf7272343cda563b6,2021-07-30_05h17.29.921,Simcolourproject_2stim_asymm_v5,2020.2.10,Win32,60,61025ae37ef11b136ea224fe,,,,,,,,,2108,33,84,1,0,0,response1disk,,7,4,-9,1,0,0,rectangle,4,-9,1,0,0,4,-9,1,0,0,1,73,233,126,1,,,,,,,,
,,,,,,,,,,,,,FF,,,,,,,,0.5664,,,,,,,,,,,,,,,,,,,,,,5ecfd0b927d04d049d65b73d,61036eccf7272343cda563b6,2021-07-30_05h17.29.921,Simcolourproject_2stim_asymm_v5,2020.2.10,Win32,60,61025ae37ef11b136ea224fe,,,,,,,,,3209,42,90,1,0,0,response1disk,,7,8,-1,1,0,0,rectangle,-33,-89,1,0,0,0,10,1,0,0,1,74,234,63,1,,response5disk_3,TRUE,3,3,"[108,127,52,114,235,187,104,72,36,62,98,17,233,284,187,288,235,16,209,209]",1.5663,rectangle
,,,,,,,,,,,,,FF,,,,,,,,7.7307,,,,,,,,,,,,,,,,,,,,,,5ecfd0b927d04d049d65b73d,61036eccf7272343cda563b6,2021-07-30_05h17.29.921,Simcolourproject_2stim_asymm_v5,2020.2.10,Win32,60,61025ae37ef11b136ea224fe,,,,,,,,,3164,32,69,1,0,0,response1disk,,7,-16,-4,1,0,0,rectangle,-16,-4,1,0,0,-16,-4,1,0,0,1,75,235,134,1,,,,,,,,
,,,,,,,,,,,,,FF,,,,,,,,2.4323,,,,,,,,,,,,,,,,,,,,,,5ecfd0b927d04d049d65b73d,61036eccf7272343cda563b6,2021-07-30_05h17.29.921,Simcolourproject_2stim_asymm_v5,2020.2.10,Win32,60,61025ae37ef11b136ea224fe,,,,,,,,,2271,29,56,1,0,0,response1disk,,7,-8,-9,1,0,0,rectangle,-8,-9,1,0,0,-8,-9,1,0,0,1,76,236,114,1,,,,,,,,
,,,,,,,,,,,,,FF,,,,,,,,0.8166,,,,,,,,,,,,,,,,,,,,,,5ecfd0b927d04d049d65b73d,61036eccf7272343cda563b6,2021-07-30_05h17.29.921,Simcolourproject_2stim_asymm_v5,2020.2.10,Win32,60,61025ae37ef11b136ea224fe,,,,,,,,,3628,56,71,1,0,0,response1disk,,7,-2,-5,1,0,0,rectangle,-2,-5,1,0,0,-2,-5,1,0,0,1,77,237,65,1,,,,,,,,
,,,,,,,,,,,,,FF,,,,,,,,1.0329,,,,,,,,,,,,,,,,,,,,,,5ecfd0b927d04d049d65b73d,61036eccf7272343cda563b6,2021-07-30_05h17.29.921,Simcolourproject_2stim_asymm_v5,2020.2.10,Win32,60,61025ae37ef11b136ea224fe,,,,,,,,,3675,-32,-73,1,0,0,response5disk,,3,16,6,1,0,0,rectangle,16,6,1,0,0,16,6,1,0,0,1,78,238,97,1,,,,,,,,
,,,,,,,,,,,,,FF,,,,,,,,0.7164,,,,,,,,,,,,,,,,,,,,,,5ecfd0b927d04d049d65b73d,61036eccf7272343cda563b6,2021-07-30_05h17.29.921,Simcolourproject_2stim_asymm_v5,2020.2.10,Win32,60,61025ae37ef11b136ea224fe,,,,,,,,,2451,49,90,1,0,0,response1disk,,7,15,10,1,0,0,rectangle,15,10,1,0,0,15,10,1,0,0,1,79,239,40,1,,,,,,,,
,,,,,,,,,,,,,FF,,,,,,,,0.6166,,,,,,,,,,,,,,,,,,,,,,5ecfd0b927d04d049d65b73d,61036eccf7272343cda563b6,2021-07-30_05h17.29.921,Simcolourproject_2stim_asymm_v5,2020.2.10,Win32,60,61025ae37ef11b136ea224fe,,,,,,,,,2378,34,90,1,0,0,response1disk,,7,2,8,1,0,0,rectangle,2,8,1,0,0,2,8,1,0,0,1,80,240,16,1,,,,,,,,
,,,,,,,,,,,,,FF,,,,,,,,2.166,,,,,,,,,,,,,,,,,,,,,,5ecfd0b927d04d049d65b73d,61036eccf7272343cda563b6,2021-07-30_05h17.29.921,Simcolourproject_2stim_asymm_v5,2020.2.10,Win32,60,61025ae37ef11b136ea224fe,,,,,,,,,890,67,-44,1,0,0,response3disk,,5,0,-12,1,0,0,rectangle,0,-12,1,0,0,0,-12,1,0,0,1,81,241,142,1,,,,,,,,
,,,,,,,,,,,,,FF,,,,,,,,2.2827,,,,,,,,,,,,,,,,,,,,,,5ecfd0b927d04d049d65b73d,61036eccf7272343cda563b6,2021-07-30_05h17.29.921,Simcolourproject_2stim_asymm_v5,2020.2.10,Win32,60,61025ae37ef11b136ea224fe,,,,,,,,,2837,40,80,1,0,0,response1disk,,7,18,1,1,0,0,rectangle,18,1,1,0,0,18,1,1,0,0,1,82,242,7,1,,,,,,,,
,,,,,,,,,,,,,FF,,,,,,,,0.6332,,,,,,,,,,,,,,,,,,,,,,5ecfd0b927d04d049d65b73d,61036eccf7272343cda563b6,2021-07-30_05h17.29.921,Simcolourproject_2stim_asymm_v5,2020.2.10,Win32,60,61025ae37ef11b136ea224fe,,,,,,,,,312,23,94,1,0,0,response1disk,,7,12,-15,1,0,0,rectangle,12,-15,1,0,0,12,-15,1,0,0,1,83,243,26,1,,,,,,,,
,,,,,,,,,,,,,FF,,,,,,,,1.0333,,,,,,,,,,,,,,,,,,,,,,5ecfd0b927d04d049d65b73d,61036eccf7272343cda563b6,2021-07-30_05h17.29.921,Simcolourproject_2stim_asymm_v5,2020.2.10,Win32,60,61025ae37ef11b136ea224fe,,,,,,,,,1656,32,56,1,0,0,response1disk,,7,14,6,1,0,0,rectangle,14,6,1,0,0,14,6,1,0,0,1,84,244,107,1,,,,,,,,
,,,,,,,,,,,,,FF,,,,,,,,1.0997,,,,,,,,,,,,,,,,,,,,,,5ecfd0b927d04d049d65b73d,61036eccf7272343cda563b6,2021-07-30_05h17.29.921,Simcolourproject_2stim_asymm_v5,2020.2.10,Win32,60,61025ae37ef11b136ea224fe,,,,,,,,,1911,42,57,1,0,0,response1disk,,7,14,7,1,0,0,rectangle,14,7,1,0,0,14,7,1,0,0,1,85,245,55,1,,,,,,,,
,,,,,,,,,,,,,FF,,,,,,,,2.1824,,,,,,,,,,,,,,,,,,,,,,5ecfd0b927d04d049d65b73d,61036eccf7272343cda563b6,2021-07-30_05h17.29.921,Simcolourproject_2stim_asymm_v5,2020.2.10,Win32,60,61025ae37ef11b136ea224fe,,,,,,,,,3052,37,65,1,0,0,response1disk,,7,4,-3,1,0,0,rectangle,4,-3,1,0,0,4,-3,1,0,0,1,86,246,128,1,,,,,,,,
,,,,,,,,,,,,,FF,,,,,,,,0.8831,,,,,,,,,,,,,,,,,,,,,,5ecfd0b927d04d049d65b73d,61036eccf7272343cda563b6,2021-07-30_05h17.29.921,Simcolourproject_2stim_asymm_v5,2020.2.10,Win32,60,61025ae37ef11b136ea224fe,,,,,,,,,1319,35,65,1,0,0,response1disk,,7,7,17,1,0,0,rectangle,7,17,1,0,0,7,17,1,0,0,1,87,247,79,1,,,,,,,,
,,,,,,,,,,,,,FF,,,,,,,,0.5832,,,,,,,,,,,,,,,,,,,,,,5ecfd0b927d04d049d65b73d,61036eccf7272343cda563b6,2021-07-30_05h17.29.921,Simcolourproject_2stim_asymm_v5,2020.2.10,Win32,60,61025ae37ef11b136ea224fe,,,,,,,,,1644,22,66,1,0,0,response1disk,,7,6,6,1,0,0,rectangle,6,6,1,0,0,6,6,1,0,0,1,88,248,124,1,,,,,,,,
,,,,,,,,,,,,,FF,,,,,,,,1.7826,,,,,,,,,,,,,,,,,,,,,,5ecfd0b927d04d049d65b73d,61036eccf7272343cda563b6,2021-07-30_05h17.29.921,Simcolourproject_2stim_asymm_v5,2020.2.10,Win32,60,61025ae37ef11b136ea224fe,,,,,,,,,3677,44,-81,1,0,0,response3disk,,4,4,-7,1,0,0,rectangle,4,-7,1,0,0,4,-7,1,0,0,1,89,249,116,1,,,,,,,,
,,,,,,,,,,,,,FF,,,,,,,,0.8996,,,,,,,,,,,,,,,,,,,,,,5ecfd0b927d04d049d65b73d,61036eccf7272343cda563b6,2021-07-30_05h17.29.921,Simcolourproject_2stim_asymm_v5,2020.2.10,Win32,60,61025ae37ef11b136ea224fe,,,,,,,,,3915,51,106,1,0,0,response1disk,,7,1,6,1,0,0,rectangle,1,6,1,0,0,1,6,1,0,0,1,90,250,159,1,,,,,,,,
,,,,,,,,,,,,,FF,,,,,,,,2.2824,,,,,,,,,,,,,,,,,,,,,,5ecfd0b927d04d049d65b73d,61036eccf7272343cda563b6,2021-07-30_05h17.29.921,Simcolourproject_2stim_asymm_v5,2020.2.10,Win32,60,61025ae37ef11b136ea224fe,,,,,,,,,1828,71,-42,1,0,0,response3disk,,5,-26,-5,1,0,0,rectangle,-26,-5,1,0,0,-26,-5,1,0,0,1,91,251,33,1,,,,,,,,
,,,,,,,,,,,,,FF,,,,,,,,1.333,,,,,,,,,,,,,,,,,,,,,,5ecfd0b927d04d049d65b73d,61036eccf7272343cda563b6,2021-07-30_05h17.29.921,Simcolourproject_2stim_asymm_v5,2020.2.10,Win32,60,61025ae37ef11b136ea224fe,,,,,,,,,652,34,67,1,0,0,response1disk,,7,6,4,1,0,0,rectangle,6,4,1,0,0,6,4,1,0,0,1,92,252,5,1,,,,,,,,
,,,,,,,,,,,,,FF,,,,,,,,0.633,,,,,,,,,,,,,,,,,,,,,,5ecfd0b927d04d049d65b73d,61036eccf7272343cda563b6,2021-07-30_05h17.29.921,Simcolourproject_2stim_asymm_v5,2020.2.10,Win32,60,61025ae37ef11b136ea224fe,,,,,,,,,3158,43,75,1,0,0,response1disk,,7,12,2,1,0,0,rectangle,12,2,1,0,0,12,2,1,0,0,1,93,253,29,1,,,,,,,,
,,,,,,,,,,,,,FF,,,,,,,,1.1496,,,,,,,,,,,,,,,,,,,,,,5ecfd0b927d04d049d65b73d,61036eccf7272343cda563b6,2021-07-30_05h17.29.921,Simcolourproject_2stim_asymm_v5,2020.2.10,Win32,60,61025ae37ef11b136ea224fe,,,,,,,,,2374,33,68,1,0,0,response1disk,,7,3,-4,1,0,0,rectangle,3,-4,1,0,0,3,-4,1,0,0,1,94,254,108,1,,,,,,,,
,,,,,,,,,,,,,FF,,,,,,,,1.0831,,,,,,,,,,,,,,,,,,,,,,5ecfd0b927d04d049d65b73d,61036eccf7272343cda563b6,2021-07-30_05h17.29.921,Simcolourproject_2stim_asymm_v5,2020.2.10,Win32,60,61025ae37ef11b136ea224fe,,,,,,,,,1824,-35,-84,1,0,0,response5disk,,3,1,2,1,0,0,rectangle,1,2,1,0,0,1,2,1,0,0,1,95,255,94,1,,,,,,,,
,,,,,,,,,,,,,FF,,,,,,,,2.5824,,,,,,,,,,,,,,,,,,,,,,5ecfd0b927d04d049d65b73d,61036eccf7272343cda563b6,2021-07-30_05h17.29.921,Simcolourproject_2stim_asymm_v5,2020.2.10,Win32,60,61025ae37ef11b136ea224fe,,,,,,,,,1720,34,69,1,0,0,response1disk,,7,3,-1,1,0,0,rectangle,3,-1,1,0,0,3,-1,1,0,0,1,96,256,130,1,,,,,,,,
,,,,,,,,,,,,,FF,,,,,,,,1.1999,,,,,,,,,,,,,,,,,,,,,,5ecfd0b927d04d049d65b73d,61036eccf7272343cda563b6,2021-07-30_05h17.29.921,Simcolourproject_2stim_asymm_v5,2020.2.10,Win32,60,61025ae37ef11b136ea224fe,,,,,,,,,236,17,57,1,0,0,response1disk,,7,-1,-12,1,0,0,rectangle,-1,-12,1,0,0,-1,-12,1,0,0,1,97,257,106,1,,,,,,,,
,,,,,,,,,,,,,FF,,,,,,,,1.8994,,,,,,,,,,,,,,,,,,,,,,5ecfd0b927d04d049d65b73d,61036eccf7272343cda563b6,2021-07-30_05h17.29.921,Simcolourproject_2stim_asymm_v5,2020.2.10,Win32,60,61025ae37ef11b136ea224fe,,,,,,,,,1780,25,59,1,0,0,response1disk,,7,5,0,1,0,0,rectangle,5,0,1,0,0,5,0,1,0,0,1,98,258,51,1,,,,,,,,
,,,,,,,,,,,,,FF,,,,,,,,3.6154,,,,,,,,,,,,,,,,,,,,,,5ecfd0b927d04d049d65b73d,61036eccf7272343cda563b6,2021-07-30_05h17.29.921,Simcolourproject_2stim_asymm_v5,2020.2.10,Win32,60,61025ae37ef11b136ea224fe,,,,,,,,,1291,-26,-96,1,0,0,response5disk,,3,2,-1,1,0,0,rectangle,2,-1,1,0,0,2,-1,1,0,0,1,99,259,43,1,,,,,,,,
,,,,,,,,,,,,,FF,,,,,,,,1.6661,,,,,,,,,,,,,,,,,,,,,,5ecfd0b927d04d049d65b73d,61036eccf7272343cda563b6,2021-07-30_05h17.29.921,Simcolourproject_2stim_asymm_v5,2020.2.10,Win32,60,61025ae37ef11b136ea224fe,,,,,,,,,3485,29,69,1,0,0,response1disk,,7,6,6,1,0,0,rectangle,6,6,1,0,0,6,6,1,0,0,1,100,260,64,1,,,,,,,,
,,,,,,,,,,,,,FF,,,,,,,,0.9664,,,,,,,,,,,,,,,,,,,,,,5ecfd0b927d04d049d65b73d,61036eccf7272343cda563b6,2021-07-30_05h17.29.921,Simcolourproject_2stim_asymm_v5,2020.2.10,Win32,60,61025ae37ef11b136ea224fe,,,,,,,,,1196,40,87,1,0,0,response1disk,,7,15,1,1,0,0,rectangle,15,1,1,0,0,15,1,1,0,0,1,101,261,154,1,,,,,,,,
,,,,,,,,,,,,,FF,,,,,,,,1.3329,,,,,,,,,,,,,,,,,,,,,,5ecfd0b927d04d049d65b73d,61036eccf7272343cda563b6,2021-07-30_05h17.29.921,Simcolourproject_2stim_asymm_v5,2020.2.10,Win32,60,61025ae37ef11b136ea224fe,,,,,,,,,932,35,71,1,0,0,response1disk,,7,11,9,1,0,0,rectangle,11,9,1,0,0,11,9,1,0,0,1,102,262,75,1,,,,,,,,
,,,,,,,,,,,,,FF,,,,,,,,2.0325,,,,,,,,,,,,,,,,,,,,,,5ecfd0b927d04d049d65b73d,61036eccf7272343cda563b6,2021-07-30_05h17.29.921,Simcolourproject_2stim_asymm_v5,2020.2.10,Win32,60,61025ae37ef11b136ea224fe,,,,,,,,,3114,32,60,1,0,0,response1disk,,7,2,-9,1,0,0,rectangle,2,-9,1,0,0,2,-9,1,0,0,1,103,263,117,1,,,,,,,,
,,,,,,,,,,,,,FF,,,,,,,,0.7999,,,,,,,,,,,,,,,,,,,,,,5ecfd0b927d04d049d65b73d,61036eccf7272343cda563b6,2021-07-30_05h17.29.921,Simcolourproject_2stim_asymm_v5,2020.2.10,Win32,60,61025ae37ef11b136ea224fe,,,,,,,,,3889,57,88,1,0,0,response1disk,,7,10,-2,1,0,0,rectangle,10,-2,1,0,0,10,-2,1,0,0,1,104,264,46,1,,,,,,,,
,,,,,,,,,,,,,FF,,,,,,,,0.7334,,,,,,,,,,,,,,,,,,,,,,5ecfd0b927d04d049d65b73d,61036eccf7272343cda563b6,2021-07-30_05h17.29.921,Simcolourproject_2stim_asymm_v5,2020.2.10,Win32,60,61025ae37ef11b136ea224fe,,,,,,,,,817,34,70,1,0,0,response1disk,,7,5,-8,1,0,0,rectangle,5,-8,1,0,0,5,-8,1,0,0,1,105,265,49,1,,,,,,,,
,,,,,,,,,,,,,FF,,,,,,,,1.0496,,,,,,,,,,,,,,,,,,,,,,5ecfd0b927d04d049d65b73d,61036eccf7272343cda563b6,2021-07-30_05h17.29.921,Simcolourproject_2stim_asymm_v5,2020.2.10,Win32,60,61025ae37ef11b136ea224fe,,,,,,,,,1083,40,79,1,0,0,response1disk,,7,23,16,1,0,0,rectangle,23,16,1,0,0,23,16,1,0,0,1,106,266,115,1,,,,,,,,
,,,,,,,,,,,,,FF,,,,,,,,1.1663,,,,,,,,,,,,,,,,,,,,,,5ecfd0b927d04d049d65b73d,61036eccf7272343cda563b6,2021-07-30_05h17.29.921,Simcolourproject_2stim_asymm_v5,2020.2.10,Win32,60,61025ae37ef11b136ea224fe,,,,,,,,,2890,-44,-74,1,0,0,response5disk,,3,7,-11,1,0,0,rectangle,7,-11,1,0,0,7,-11,1,0,0,1,107,267,53,1,,,,,,,,
,,,,,,,,,,,,,FF,,,,,,,,1.9825,,,,,,,,,,,,,,,,,,,,,,5ecfd0b927d04d049d65b73d,61036eccf7272343cda563b6,2021-07-30_05h17.29.921,Simcolourproject_2stim_asymm_v5,2020.2.10,Win32,60,61025ae37ef11b136ea224fe,,,,,,,,,79,-89,-38,1,0,0,response5disk,,2,-11,-6,1,0,0,rectangle,-11,-6,1,0,0,-11,-6,1,0,0,1,108,268,145,1,,,,,,,,
,,,,,,,,,,,,,FF,,,,,,,,1.3995,,,,,,,,,,,,,,,,,,,,,,5ecfd0b927d04d049d65b73d,61036eccf7272343cda563b6,2021-07-30_05h17.29.921,Simcolourproject_2stim_asymm_v5,2020.2.10,Win32,60,61025ae37ef11b136ea224fe,,,,,,,,,2464,33,65,1,0,0,response1disk,,7,-13,-2,1,0,0,rectangle,-13,-2,1,0,0,-13,-2,1,0,0,1,109,269,58,1,,,,,,,,
,,,,,,,,,,,,,FF,,,,,,,,0.7165,,,,,,,,,,,,,,,,,,,,,,5ecfd0b927d04d049d65b73d,61036eccf7272343cda563b6,2021-07-30_05h17.29.921,Simcolourproject_2stim_asymm_v5,2020.2.10,Win32,60,61025ae37ef11b136ea224fe,,,,,,,,,4160,30,77,1,0,0,response1disk,,7,8,15,1,0,0,rectangle,8,15,1,0,0,8,15,1,0,0,1,110,270,139,1,,,,,,,,
,,,,,,,,,,,,,FF,,,,,,,,0.6828,,,,,,,,,,,,,,,,,,,,,,5ecfd0b927d04d049d65b73d,61036eccf7272343cda563b6,2021-07-30_05h17.29.921,Simcolourproject_2stim_asymm_v5,2020.2.10,Win32,60,61025ae37ef11b136ea224fe,,,,,,,,,3325,30,65,1,0,0,response1disk,,7,-4,-20,1,0,0,rectangle,-4,-20,1,0,0,-4,-20,1,0,0,1,111,271,34,1,,,,,,,,
,,,,,,,,,,,,,FF,,,,,,,,2.7492,,,,,,,,,,,,,,,,,,,,,,5ecfd0b927d04d049d65b73d,61036eccf7272343cda563b6,2021-07-30_05h17.29.921,Simcolourproject_2stim_asymm_v5,2020.2.10,Win32,60,61025ae37ef11b136ea224fe,,,,,,,,,3604,24,64,1,0,0,response1disk,,7,9,8,1,0,0,rectangle,9,8,1,0,0,9,8,1,0,0,1,112,272,22,1,,,,,,,,
,,,,,,,,,,,,,FF,,,,,,,,2.2658,,,,,,,,,,,,,,,,,,,,,,5ecfd0b927d04d049d65b73d,61036eccf7272343cda563b6,2021-07-30_05h17.29.921,Simcolourproject_2stim_asymm_v5,2020.2.10,Win32,60,61025ae37ef11b136ea224fe,,,,,,,,,4124,73,39,1,0,0,response1disk,,6,16,1,1,0,0,rectangle,16,1,1,0,0,16,1,1,0,0,1,113,273,155,1,,,,,,,,
,,,,,,,,,,,,,FF,,,,,,,,1.2497,,,,,,,,,,,,,,,,,,,,,,5ecfd0b927d04d049d65b73d,61036eccf7272343cda563b6,2021-07-30_05h17.29.921,Simcolourproject_2stim_asymm_v5,2020.2.10,Win32,60,61025ae37ef11b136ea224fe,,,,,,,,,3335,49,80,1,0,0,response1disk,,7,16,6,1,0,0,rectangle,16,6,1,0,0,16,6,1,0,0,1,114,274,62,1,,,,,,,,
,,,,,,,,,,,,,FF,,,,,,,,1.2329,,,,,,,,,,,,,,,,,,,,,,5ecfd0b927d04d049d65b73d,61036eccf7272343cda563b6,2021-07-30_05h17.29.921,Simcolourproject_2stim_asymm_v5,2020.2.10,Win32,60,61025ae37ef11b136ea224fe,,,,,,,,,228,50,92,1,0,0,response1disk,,7,2,1,1,0,0,rectangle,2,1,1,0,0,2,1,1,0,0,1,115,275,48,1,,,,,,,,
,,,,,,,,,,,,,FF,,,,,,,,0.8996,,,,,,,,,,,,,,,,,,,,,,5ecfd0b927d04d049d65b73d,61036eccf7272343cda563b6,2021-07-30_05h17.29.921,Simcolourproject_2stim_asymm_v5,2020.2.10,Win32,60,61025ae37ef11b136ea224fe,,,,,,,,,3312,35,65,1,0,0,response1disk,,7,12,0,1,0,0,rectangle,12,0,1,0,0,12,0,1,0,0,1,116,276,39,1,,,,,,,,
,,,,,,,,,,,,,FF,,,,,,,,1.3162,,,,,,,,,,,,,,,,,,,,,,5ecfd0b927d04d049d65b73d,61036eccf7272343cda563b6,2021-07-30_05h17.29.921,Simcolourproject_2stim_asymm_v5,2020.2.10,Win32,60,61025ae37ef11b136ea224fe,,,,,,,,,193,21,67,1,0,0,response1disk,,7,-2,-3,1,0,0,rectangle,-2,-3,1,0,0,-2,-3,1,0,0,1,117,277,150,1,,,,,,,,
,,,,,,,,,,,,,FF,,,,,,,,0.75,,,,,,,,,,,,,,,,,,,,,,5ecfd0b927d04d049d65b73d,61036eccf7272343cda563b6,2021-07-30_05h17.29.921,Simcolourproject_2stim_asymm_v5,2020.2.10,Win32,60,61025ae37ef11b136ea224fe,,,,,,,,,1015,104,87,1,0,0,response1disk,,6,13,-7,1,0,0,rectangle,13,-7,1,0,0,13,-7,1,0,0,1,118,278,101,1,,,,,,,,
,,,,,,,,,,,,,FF,,,,,,,,0.8331,,,,,,,,,,,,,,,,,,,,,,5ecfd0b927d04d049d65b73d,61036eccf7272343cda563b6,2021-07-30_05h17.29.921,Simcolourproject_2stim_asymm_v5,2020.2.10,Win32,60,61025ae37ef11b136ea224fe,,,,,,,,,1619,50,97,1,0,0,response1disk,,7,18,20,1,0,0,rectangle,18,20,1,0,0,18,20,1,0,0,1,119,279,119,1,,,,,,,,
,,,,,,,,,,,,,FF,,,,,,,,0.683,,,,,,,,,,,,,,,,,,,,,,5ecfd0b927d04d049d65b73d,61036eccf7272343cda563b6,2021-07-30_05h17.29.921,Simcolourproject_2stim_asymm_v5,2020.2.10,Win32,60,61025ae37ef11b136ea224fe,,,,,,,,,3764,35,71,1,0,0,response1disk,,7,15,1,1,0,0,rectangle,15,1,1,0,0,15,1,1,0,0,1,120,280,125,1,,,,,,,,
,,,,,,,,,,,,,FF,,,,,,,,0.883,,,,,,,,,,,,,,,,,,,,,,5ecfd0b927d04d049d65b73d,61036eccf7272343cda563b6,2021-07-30_05h17.29.921,Simcolourproject_2stim_asymm_v5,2020.2.10,Win32,60,61025ae37ef11b136ea224fe,,,,,,,,,2191,32,50,1,0,0,response1disk,,7,9,-1,1,0,0,rectangle,9,-1,1,0,0,9,-1,1,0,0,1,121,281,87,1,,,,,,,,
,,,,,,,,,,,,,FF,,,,,,,,0.7331,,,,,,,,,,,,,,,,,,,,,,5ecfd0b927d04d049d65b73d,61036eccf7272343cda563b6,2021-07-30_05h17.29.921,Simcolourproject_2stim_asymm_v5,2020.2.10,Win32,60,61025ae37ef11b136ea224fe,,,,,,,,,1616,31,77,1,0,0,response1disk,,7,9,18,1,0,0,rectangle,9,18,1,0,0,9,18,1,0,0,1,122,282,140,1,,,,,,,,
,,,,,,,,,,,,,FF,,,,,,,,3.2823,,,,,,,,,,,,,,,,,,,,,,5ecfd0b927d04d049d65b73d,61036eccf7272343cda563b6,2021-07-30_05h17.29.921,Simcolourproject_2stim_asymm_v5,2020.2.10,Win32,60,61025ae37ef11b136ea224fe,,,,,,,,,778,68,35,1,0,0,response1disk,,6,17,11,1,0,0,rectangle,-40,84,1,0,0,-14,4,1,0,0,1,123,283,93,1,,response7disk_3,TRUE,0,0,"[108,127,52,114,235,187,104,72,36,62,98,17,233,284,187,288,235,16,209,209]",1.3497,rectangle
,,,,,,,,,,,,,FF,,,,,,,,3.5654,,,,,,,,,,,,,,,,,,,,,,5ecfd0b927d04d049d65b73d,61036eccf7272343cda563b6,2021-07-30_05h17.29.921,Simcolourproject_2stim_asymm_v5,2020.2.10,Win32,60,61025ae37ef11b136ea224fe,,,,,,,,,2238,64,29,1,0,0,response1disk,,6,12,2,1,0,0,rectangle,12,2,1,0,0,12,2,1,0,0,1,124,284,52,1,,,,,,,,
,,,,,,,,,,,,,FF,,,,,,,,0.8997,,,,,,,,,,,,,,,,,,,,,,5ecfd0b927d04d049d65b73d,61036eccf7272343cda563b6,2021-07-30_05h17.29.921,Simcolourproject_2stim_asymm_v5,2020.2.10,Win32,60,61025ae37ef11b136ea224fe,,,,,,,,,2003,36,54,1,0,0,response1disk,,7,2,3,1,0,0,rectangle,2,3,1,0,0,2,3,1,0,0,1,125,285,42,1,,,,,,,,
,,,,,,,,,,,,,FF,,,,,,,,0.9831,,,,,,,,,,,,,,,,,,,,,,5ecfd0b927d04d049d65b73d,61036eccf7272343cda563b6,2021-07-30_05h17.29.921,Simcolourproject_2stim_asymm_v5,2020.2.10,Win32,60,61025ae37ef11b136ea224fe,,,,,,,,,2154,45,80,1,0,0,response1disk,,7,10,6,1,0,0,rectangle,10,6,1,0,0,10,6,1,0,0,1,126,286,96,1,,,,,,,,
,,,,,,,,,,,,,FF,,,,,,,,0.783,,,,,,,,,,,,,,,,,,,,,,5ecfd0b927d04d049d65b73d,61036eccf7272343cda563b6,2021-07-30_05h17.29.921,Simcolourproject_2stim_asymm_v5,2020.2.10,Win32,60,61025ae37ef11b136ea224fe,,,,,,,,,2291,-27,75,1,0,0,response7disk,,0,-17,3,1,0,0,rectangle,73,34,1,0,0,12,-11,1,0,0,1,127,287,84,1,,response1disk_3,TRUE,6,6,"[108,127,52,114,235,187,104,72,36,62,98,17,233,284,187,288,235,16,209,209]",2.399,rectangle
,,,,,,,,,,,,,FF,,,,,,,,2.9155,,,,,,,,,,,,,,,,,,,,,,5ecfd0b927d04d049d65b73d,61036eccf7272343cda563b6,2021-07-30_05h17.29.921,Simcolourproject_2stim_asymm_v5,2020.2.10,Win32,60,61025ae37ef11b136ea224fe,,,,,,,,,570,40,59,1,0,0,response1disk,,7,-4,-6,1,0,0,rectangle,-4,-6,1,0,0,-4,-6,1,0,0,1,128,288,141,1,,,,,,,,
,,,,,,,,,,,,,FF,,,,,,,,1.4829,,,,,,,,,,,,,,,,,,,,,,5ecfd0b927d04d049d65b73d,61036eccf7272343cda563b6,2021-07-30_05h17.29.921,Simcolourproject_2stim_asymm_v5,2020.2.10,Win32,60,61025ae37ef11b136ea224fe,,,,,,,,,3488,66,-32,1,0,0,response3disk,,5,9,-5,1,0,0,rectangle,9,-5,1,0,0,9,-5,1,0,0,1,129,289,100,1,,,,,,,,
,,,,,,,,,,,,,FF,,,,,,,,1.5993,,,,,,,,,,,,,,,,,,,,,,5ecfd0b927d04d049d65b73d,61036eccf7272343cda563b6,2021-07-30_05h17.29.921,Simcolourproject_2stim_asymm_v5,2020.2.10,Win32,60,61025ae37ef11b136ea224fe,,,,,,,,,2280,42,75,1,0,0,response1disk,,7,17,8,1,0,0,rectangle,17,8,1,0,0,17,8,1,0,0,1,130,290,133,1,,,,,,,,
,,,,,,,,,,,,,FF,,,,,,,,0.6165,,,,,,,,,,,,,,,,,,,,,,5ecfd0b927d04d049d65b73d,61036eccf7272343cda563b6,2021-07-30_05h17.29.921,Simcolourproject_2stim_asymm_v5,2020.2.10,Win32,60,61025ae37ef11b136ea224fe,,,,,,,,,906,36,47,1,0,0,response1disk,,7,10,3,1,0,0,rectangle,10,3,1,0,0,10,3,1,0,0,1,131,291,105,1,,,,,,,,
,,,,,,,,,,,,,FF,,,,,,,,0.6166,,,,,,,,,,,,,,,,,,,,,,5ecfd0b927d04d049d65b73d,61036eccf7272343cda563b6,2021-07-30_05h17.29.921,Simcolourproject_2stim_asymm_v5,2020.2.10,Win32,60,61025ae37ef11b136ea224fe,,,,,,,,,2816,16,50,1,0,0,response1disk,,7,10,1,1,0,0,rectangle,10,1,1,0,0,10,1,1,0,0,1,132,292,92,1,,,,,,,,
,,,,,,,,,,,,,FF,,,,,,,,0.8333,,,,,,,,,,,,,,,,,,,,,,5ecfd0b927d04d049d65b73d,61036eccf7272343cda563b6,2021-07-30_05h17.29.921,Simcolourproject_2stim_asymm_v5,2020.2.10,Win32,60,61025ae37ef11b136ea224fe,,,,,,,,,1764,39,77,1,0,0,response1disk,,7,15,2,1,0,0,rectangle,15,2,1,0,0,15,2,1,0,0,1,133,293,144,1,,,,,,,,
,,,,,,,,,,,,,FF,,,,,,,,2.066,,,,,,,,,,,,,,,,,,,,,,5ecfd0b927d04d049d65b73d,61036eccf7272343cda563b6,2021-07-30_05h17.29.921,Simcolourproject_2stim_asymm_v5,2020.2.10,Win32,60,61025ae37ef11b136ea224fe,,,,,,,,,3663,86,-29,1,0,0,response3disk,,5,14,1,1,0,0,rectangle,14,1,1,0,0,14,1,1,0,0,1,134,294,20,1,,,,,,,,
,,,,,,,,,,,,,FF,,,,,,,,1.2496,,,,,,,,,,,,,,,,,,,,,,5ecfd0b927d04d049d65b73d,61036eccf7272343cda563b6,2021-07-30_05h17.29.921,Simcolourproject_2stim_asymm_v5,2020.2.10,Win32,60,61025ae37ef11b136ea224fe,,,,,,,,,719,-41,-73,1,0,0,response5disk,,3,-11,-19,1,0,0,rectangle,-11,-19,1,0,0,-11,-19,1,0,0,1,135,295,30,1,,,,,,,,
,,,,,,,,,,,,,FF,,,,,,,,0.7498,,,,,,,,,,,,,,,,,,,,,,5ecfd0b927d04d049d65b73d,61036eccf7272343cda563b6,2021-07-30_05h17.29.921,Simcolourproject_2stim_asymm_v5,2020.2.10,Win32,60,61025ae37ef11b136ea224fe,,,,,,,,,2396,47,95,1,0,0,response1disk,,7,-7,2,1,0,0,rectangle,-7,2,1,0,0,-7,2,1,0,0,1,136,296,15,1,,,,,,,,
,,,,,,,,,,,,,FF,,,,,,,,0.5501,,,,,,,,,,,,,,,,,,,,,,5ecfd0b927d04d049d65b73d,61036eccf7272343cda563b6,2021-07-30_05h17.29.921,Simcolourproject_2stim_asymm_v5,2020.2.10,Win32,60,61025ae37ef11b136ea224fe,,,,,,,,,3024,57,73,1,0,0,response1disk,,7,10,3,1,0,0,rectangle,10,3,1,0,0,10,3,1,0,0,1,137,297,136,1,,,,,,,,
,,,,,,,,,,,,,FF,,,,,,,,1.4829,,,,,,,,,,,,,,,,,,,,,,5ecfd0b927d04d049d65b73d,61036eccf7272343cda563b6,2021-07-30_05h17.29.921,Simcolourproject_2stim_asymm_v5,2020.2.10,Win32,60,61025ae37ef11b136ea224fe,,,,,,,,,4118,-24,72,1,0,0,response7disk,,0,-2,13,1,0,0,rectangle,-2,13,1,0,0,-2,13,1,0,0,1,138,298,38,1,,,,,,,,
,,,,,,,,,,,,,FF,,,,,,,,0.833,,,,,,,,,,,,,,,,,,,,,,5ecfd0b927d04d049d65b73d,61036eccf7272343cda563b6,2021-07-30_05h17.29.921,Simcolourproject_2stim_asymm_v5,2020.2.10,Win32,60,61025ae37ef11b136ea224fe,,,,,,,,,1461,-23,56,1,0,0,response7disk,,0,-4,6,1,0,0,rectangle,-4,6,1,0,0,-4,6,1,0,0,1,139,299,45,1,,,,,,,,
,,,,,,,,,,,,,FF,,,,,,,,1.0493,,,,,,,,,,,,,,,,,,,,,,5ecfd0b927d04d049d65b73d,61036eccf7272343cda563b6,2021-07-30_05h17.29.921,Simcolourproject_2stim_asymm_v5,2020.2.10,Win32,60,61025ae37ef11b136ea224fe,,,,,,,,,67,47,86,1,0,0,response1disk,,7,-2,-1,1,0,0,rectangle,-2,-1,1,0,0,-2,-1,1,0,0,1,140,300,103,1,,,,,,,,
,,,,,,,,,,,,,FF,,,,,,,,0.8498,,,,,,,,,,,,,,,,,,,,,,5ecfd0b927d04d049d65b73d,61036eccf7272343cda563b6,2021-07-30_05h17.29.921,Simcolourproject_2stim_asymm_v5,2020.2.10,Win32,60,61025ae37ef11b136ea224fe,,,,,,,,,1863,42,74,1,0,0,response1disk,,7,11,5,1,0,0,rectangle,11,5,1,0,0,11,5,1,0,0,1,141,301,13,1,,,,,,,,
,,,,,,,,,,,,,FF,,,,,,,,1.1997,,,,,,,,,,,,,,,,,,,,,,5ecfd0b927d04d049d65b73d,61036eccf7272343cda563b6,2021-07-30_05h17.29.921,Simcolourproject_2stim_asymm_v5,2020.2.10,Win32,60,61025ae37ef11b136ea224fe,,,,,,,,,2696,53,89,1,0,0,response1disk,,7,15,13,1,0,0,rectangle,15,13,1,0,0,15,13,1,0,0,1,142,302,57,1,,,,,,,,
,,,,,,,,,,,,,FF,,,,,,,,0.5165,,,,,,,,,,,,,,,,,,,,,,5ecfd0b927d04d049d65b73d,61036eccf7272343cda563b6,2021-07-30_05h17.29.921,Simcolourproject_2stim_asymm_v5,2020.2.10,Win32,60,61025ae37ef11b136ea224fe,,,,,,,,,882,41,91,1,0,0,response1disk,,7,6,14,1,0,0,rectangle,6,14,1,0,0,6,14,1,0,0,1,143,303,85,1,,,,,,,,
