key_resp.keys,key_resp.rt,key_resp_14.keys,key_resp_14.rt,key_resp_15.keys,key_resp_15.rt,key_resp_17.keys,key_resp_17.rt,key_resp_9.keys,key_resp_9.rt,key_resp_10.keys,key_resp_10.rt,practice_comparison,Ecc,mouse_5.x,mouse_5.y,mouse_5.leftButton,mouse_5.midButton,mouse_5.rightButton,mouse_5.clicked_name,pracsimilarity,response_time,mouse_10.x,mouse_10.y,mouse_10.leftButton,mouse_10.midButton,mouse_10.rightButton,mouse_10.clicked_name,mouse_7.x,mouse_7.y,mouse_7.leftButton,mouse_7.midButton,mouse_7.rightButton,mouse_6.x,mouse_6.y,mouse_6.leftButton,mouse_6.midButton,mouse_6.rightButton,duringprac.thisRepN,duringprac.thisTrialN,duringprac.thisN,duringprac.thisIndex,duringprac.ran,participant,session,date,expName,psychopyVersion,OS,frameRate,study_id,mouse_7.clicked_name,catchpracsimilarity,catch_response_time,catchnumberprac,catchtrialorderprac,mouse_6.clicked_name,key_resp_22.keys,key_resp_22.rt,realcomparison,mouse.x,mouse.y,mouse.leftButton,mouse.midButton,mouse.rightButton,mouse.clicked_name,Colour2,similarity,mouse_2.x,mouse_2.y,mouse_2.leftButton,mouse_2.midButton,mouse_2.rightButton,mouse_2.clicked_name,mouse_3.x,mouse_3.y,mouse_3.leftButton,mouse_3.midButton,mouse_3.rightButton,mouse_11.x,mouse_11.y,mouse_11.leftButton,mouse_11.midButton,mouse_11.rightButton,trials_2.thisRepN,trials_2.thisTrialN,trials_2.thisN,trials_2.thisIndex,trials_2.ran,Colour1,mouse_3.clicked_name,catchornah,catchsimilarity,catchnumber,catchtrialorder,catchRT,mouse_11.clicked_name
space,1.6345,space,9.4153,space,26.8878,space,7.0108,space,2.8258,space,3.5371,158,FF,-105,-70,1,0,0,response5disk_5,2,2.7523,-13,-8,1,0,0,rectangle_8,-13,-8,1,0,0,-13,-8,1,0,0,0,0,0,3,1,5ed17af75957f60d040e3f34,61036db916c09a78a6b32e9b,2021-07-29_23h14.17.682,Simcolourproject_2stim_asymm_v5,2020.2.10,Win32,60,61025ae37ef11b136ea224fe,,,,,,,,,,,,,,,,,,,,,,,,,,,,,,,,,,,,,,,,,,,,,,
,,,,,,,,,,,,74,PF,46,-92,1,0,0,response3disk_5,4,1.5369,2,-2,1,0,0,rectangle_8,98,49,1,0,0,-1,-5,1,0,0,0,1,1,1,1,5ed17af75957f60d040e3f34,61036db916c09a78a6b32e9b,2021-07-29_23h14.17.682,Simcolourproject_2stim_asymm_v5,2020.2.10,Win32,60,61025ae37ef11b136ea224fe,response1disk_7,6,2.5051,6,"[2,5]",rectangle_4,,,,,,,,,,,,,,,,,,,,,,,,,,,,,,,,,,,,,,,,
,,,,,,,,,,,,54,PF,-76,32,1,0,0,response7disk_5,1,2.7545,5,-7,1,0,0,rectangle_8,5,-7,1,0,0,5,-7,1,0,0,0,2,2,4,1,5ed17af75957f60d040e3f34,61036db916c09a78a6b32e9b,2021-07-29_23h14.17.682,Simcolourproject_2stim_asymm_v5,2020.2.10,Win32,60,61025ae37ef11b136ea224fe,,,,,,,,,,,,,,,,,,,,,,,,,,,,,,,,,,,,,,,,,,,,,,
,,,,,,,,,,,,57,PF,90,32,1,0,0,response1disk_5,6,1.5022,-1,8,1,0,0,rectangle_8,-1,8,1,0,0,-1,8,1,0,0,0,3,3,2,1,5ed17af75957f60d040e3f34,61036db916c09a78a6b32e9b,2021-07-29_23h14.17.682,Simcolourproject_2stim_asymm_v5,2020.2.10,Win32,60,61025ae37ef11b136ea224fe,,,,,,,,,,,,,,,,,,,,,,,,,,,,,,,,,,,,,,,,,,,,,,
,,,,,,,,,,,,106,FF,-24,-83,1,0,0,response5disk_5,3,2.0363,10,-3,1,0,0,rectangle_8,76,42,1,0,0,0,-10,1,0,0,0,4,4,5,1,5ed17af75957f60d040e3f34,61036db916c09a78a6b32e9b,2021-07-29_23h14.17.682,Simcolourproject_2stim_asymm_v5,2020.2.10,Win32,60,61025ae37ef11b136ea224fe,response1disk_7,6,1.5521,6,"[2,5]",rectangle_4,,,,,,,,,,,,,,,,,,,,,,,,,,,,,,,,,,,,,,,,
,,,,,,,,,,,,24,FF,-42,91,1,0,0,response7disk_5,0,2.4704,2,-1,1,0,0,rectangle_8,2,-1,1,0,0,2,-1,1,0,0,0,5,5,0,1,5ed17af75957f60d040e3f34,61036db916c09a78a6b32e9b,2021-07-29_23h14.17.682,Simcolourproject_2stim_asymm_v5,2020.2.10,Win32,60,61025ae37ef11b136ea224fe,,,,,,,,,,,,,,,,,,,,,,,,,,,,,,,,,,,,,,,,,,,,,,
,,,,,,,,,,,,25,PF,-57,-35,1,0,0,response5disk_5,2,0.8853,-1,-1,1,0,0,rectangle_8,-1,-1,1,0,0,-1,-1,1,0,0,0,6,6,6,1,5ed17af75957f60d040e3f34,61036db916c09a78a6b32e9b,2021-07-29_23h14.17.682,Simcolourproject_2stim_asymm_v5,2020.2.10,Win32,60,61025ae37ef11b136ea224fe,,,,,,,,,,,,,,,,,,,,,,,,,,,,,,,,,,,,,,,,,,,,,,
,,,,,,,,,,,,,FF,,,,,,,,2.5538,,,,,,,,,,,,,,,,,,,,,,5ed17af75957f60d040e3f34,61036db916c09a78a6b32e9b,2021-07-29_23h14.17.682,Simcolourproject_2stim_asymm_v5,2020.2.10,Win32,60,61025ae37ef11b136ea224fe,,,,,,,space,4.0615,2880,95,-46,1,0,0,response3disk,,5,-16,0,1,0,0,rectangle,-16,0,1,0,0,-16,0,1,0,0,0,0,0,0,1,,,,,,,,
,,,,,,,,,,,,,FF,,,,,,,,0.9182,,,,,,,,,,,,,,,,,,,,,,5ed17af75957f60d040e3f34,61036db916c09a78a6b32e9b,2021-07-29_23h14.17.682,Simcolourproject_2stim_asymm_v5,2020.2.10,Win32,60,61025ae37ef11b136ea224fe,,,,,,,,,660,-77,44,1,0,0,response7disk,,1,7,-2,1,0,0,rectangle,7,-2,1,0,0,7,-2,1,0,0,0,1,1,135,1,,,,,,,,
,,,,,,,,,,,,,FF,,,,,,,,0.8682,,,,,,,,,,,,,,,,,,,,,,5ed17af75957f60d040e3f34,61036db916c09a78a6b32e9b,2021-07-29_23h14.17.682,Simcolourproject_2stim_asymm_v5,2020.2.10,Win32,60,61025ae37ef11b136ea224fe,,,,,,,,,730,-62,-42,1,0,0,response5disk,,2,3,0,1,0,0,rectangle,3,0,1,0,0,3,0,1,0,0,0,2,2,17,1,,,,,,,,
,,,,,,,,,,,,,FF,,,,,,,,1.0342,,,,,,,,,,,,,,,,,,,,,,5ed17af75957f60d040e3f34,61036db916c09a78a6b32e9b,2021-07-29_23h14.17.682,Simcolourproject_2stim_asymm_v5,2020.2.10,Win32,60,61025ae37ef11b136ea224fe,,,,,,,,,1906,-33,-93,1,0,0,response5disk,,3,1,-9,1,0,0,rectangle,82,36,1,0,0,1,-2,1,0,0,0,3,3,85,1,,response1disk_3,TRUE,6,6,"[4,215,258,285,108,186,115,308,301,98,162,172,300,92,36,261,202,34,167,57]",1.5026,rectangle
,,,,,,,,,,,,,FF,,,,,,,,2.1029,,,,,,,,,,,,,,,,,,,,,,5ed17af75957f60d040e3f34,61036db916c09a78a6b32e9b,2021-07-29_23h14.17.682,Simcolourproject_2stim_asymm_v5,2020.2.10,Win32,60,61025ae37ef11b136ea224fe,,,,,,,,,2204,64,92,1,0,0,response1disk,,7,-2,4,1,0,0,rectangle,-2,4,1,0,0,-2,4,1,0,0,0,4,4,65,1,,,,,,,,
,,,,,,,,,,,,,FF,,,,,,,,1.2372,,,,,,,,,,,,,,,,,,,,,,5ed17af75957f60d040e3f34,61036db916c09a78a6b32e9b,2021-07-29_23h14.17.682,Simcolourproject_2stim_asymm_v5,2020.2.10,Win32,60,61025ae37ef11b136ea224fe,,,,,,,,,2535,87,-55,1,0,0,response3disk,,5,-11,2,1,0,0,rectangle,-11,2,1,0,0,-11,2,1,0,0,0,5,5,121,1,,,,,,,,
,,,,,,,,,,,,,FF,,,,,,,,0.7338,,,,,,,,,,,,,,,,,,,,,,5ed17af75957f60d040e3f34,61036db916c09a78a6b32e9b,2021-07-29_23h14.17.682,Simcolourproject_2stim_asymm_v5,2020.2.10,Win32,60,61025ae37ef11b136ea224fe,,,,,,,,,2894,-37,81,1,0,0,response7disk,,0,-4,1,1,0,0,rectangle,-4,1,1,0,0,-4,1,1,0,0,0,6,6,97,1,,,,,,,,
,,,,,,,,,,,,,FF,,,,,,,,0.9341,,,,,,,,,,,,,,,,,,,,,,5ed17af75957f60d040e3f34,61036db916c09a78a6b32e9b,2021-07-29_23h14.17.682,Simcolourproject_2stim_asymm_v5,2020.2.10,Win32,60,61025ae37ef11b136ea224fe,,,,,,,,,2333,46,-73,1,0,0,response3disk,,4,-2,6,1,0,0,rectangle,-2,6,1,0,0,-2,6,1,0,0,0,7,7,66,1,,,,,,,,
,,,,,,,,,,,,,FF,,,,,,,,1.0852,,,,,,,,,,,,,,,,,,,,,,5ed17af75957f60d040e3f34,61036db916c09a78a6b32e9b,2021-07-29_23h14.17.682,Simcolourproject_2stim_asymm_v5,2020.2.10,Win32,60,61025ae37ef11b136ea224fe,,,,,,,,,3228,98,-43,1,0,0,response3disk,,5,-13,1,1,0,0,rectangle,-13,1,1,0,0,-13,1,1,0,0,0,8,8,26,1,,,,,,,,
,,,,,,,,,,,,,FF,,,,,,,,1.1016,,,,,,,,,,,,,,,,,,,,,,5ed17af75957f60d040e3f34,61036db916c09a78a6b32e9b,2021-07-29_23h14.17.682,Simcolourproject_2stim_asymm_v5,2020.2.10,Win32,60,61025ae37ef11b136ea224fe,,,,,,,,,1108,110,49,1,0,0,response1disk,,6,9,-4,1,0,0,rectangle,9,-4,1,0,0,9,-4,1,0,0,0,9,9,37,1,,,,,,,,
,,,,,,,,,,,,,FF,,,,,,,,0.9683,,,,,,,,,,,,,,,,,,,,,,5ed17af75957f60d040e3f34,61036db916c09a78a6b32e9b,2021-07-29_23h14.17.682,Simcolourproject_2stim_asymm_v5,2020.2.10,Win32,60,61025ae37ef11b136ea224fe,,,,,,,,,2156,97,-35,1,0,0,response3disk,,5,-15,14,1,0,0,rectangle,-15,14,1,0,0,-15,14,1,0,0,0,10,10,148,1,,,,,,,,
,,,,,,,,,,,,,FF,,,,,,,,0.9508,,,,,,,,,,,,,,,,,,,,,,5ed17af75957f60d040e3f34,61036db916c09a78a6b32e9b,2021-07-29_23h14.17.682,Simcolourproject_2stim_asymm_v5,2020.2.10,Win32,60,61025ae37ef11b136ea224fe,,,,,,,,,3132,-40,-55,1,0,0,response5disk,,3,-18,-6,1,0,0,rectangle,-18,-6,1,0,0,-18,-6,1,0,0,0,11,11,18,1,,,,,,,,
,,,,,,,,,,,,,FF,,,,,,,,1.0518,,,,,,,,,,,,,,,,,,,,,,5ed17af75957f60d040e3f34,61036db916c09a78a6b32e9b,2021-07-29_23h14.17.682,Simcolourproject_2stim_asymm_v5,2020.2.10,Win32,60,61025ae37ef11b136ea224fe,,,,,,,,,4265,81,63,1,0,0,response1disk,,6,2,0,1,0,0,rectangle,2,0,1,0,0,2,0,1,0,0,0,12,12,88,1,,,,,,,,
,,,,,,,,,,,,,FF,,,,,,,,0.8515,,,,,,,,,,,,,,,,,,,,,,5ed17af75957f60d040e3f34,61036db916c09a78a6b32e9b,2021-07-29_23h14.17.682,Simcolourproject_2stim_asymm_v5,2020.2.10,Win32,60,61025ae37ef11b136ea224fe,,,,,,,,,309,67,-35,1,0,0,response3disk,,5,3,-1,1,0,0,rectangle,3,-1,1,0,0,3,-1,1,0,0,0,13,13,149,1,,,,,,,,
,,,,,,,,,,,,,FF,,,,,,,,0.7174,,,,,,,,,,,,,,,,,,,,,,5ed17af75957f60d040e3f34,61036db916c09a78a6b32e9b,2021-07-29_23h14.17.682,Simcolourproject_2stim_asymm_v5,2020.2.10,Win32,60,61025ae37ef11b136ea224fe,,,,,,,,,4328,-83,41,1,0,0,response7disk,,1,9,-1,1,0,0,rectangle,9,-1,1,0,0,9,-1,1,0,0,0,14,14,87,1,,,,,,,,
,,,,,,,,,,,,,FF,,,,,,,,1.0013,,,,,,,,,,,,,,,,,,,,,,5ed17af75957f60d040e3f34,61036db916c09a78a6b32e9b,2021-07-29_23h14.17.682,Simcolourproject_2stim_asymm_v5,2020.2.10,Win32,60,61025ae37ef11b136ea224fe,,,,,,,,,3546,-74,-35,1,0,0,response5disk,,2,-3,3,1,0,0,rectangle,-3,3,1,0,0,-3,3,1,0,0,0,15,15,107,1,,,,,,,,
,,,,,,,,,,,,,FF,,,,,,,,0.6516,,,,,,,,,,,,,,,,,,,,,,5ed17af75957f60d040e3f34,61036db916c09a78a6b32e9b,2021-07-29_23h14.17.682,Simcolourproject_2stim_asymm_v5,2020.2.10,Win32,60,61025ae37ef11b136ea224fe,,,,,,,,,1892,-51,55,1,0,0,response7disk,,0,1,-15,1,0,0,rectangle,1,-15,1,0,0,1,-15,1,0,0,0,16,16,16,1,,,,,,,,
,,,,,,,,,,,,,FF,,,,,,,,1.0359,,,,,,,,,,,,,,,,,,,,,,5ed17af75957f60d040e3f34,61036db916c09a78a6b32e9b,2021-07-29_23h14.17.682,Simcolourproject_2stim_asymm_v5,2020.2.10,Win32,60,61025ae37ef11b136ea224fe,,,,,,,,,2250,-38,-85,1,0,0,response5disk,,3,-6,-2,1,0,0,rectangle,-6,-2,1,0,0,-6,-2,1,0,0,0,17,17,29,1,,,,,,,,
,,,,,,,,,,,,,FF,,,,,,,,0.6511,,,,,,,,,,,,,,,,,,,,,,5ed17af75957f60d040e3f34,61036db916c09a78a6b32e9b,2021-07-29_23h14.17.682,Simcolourproject_2stim_asymm_v5,2020.2.10,Win32,60,61025ae37ef11b136ea224fe,,,,,,,,,1790,71,32,1,0,0,response1disk,,6,-5,3,1,0,0,rectangle,-5,3,1,0,0,-5,3,1,0,0,0,18,18,116,1,,,,,,,,
,,,,,,,,,,,,,FF,,,,,,,,0.6508,,,,,,,,,,,,,,,,,,,,,,5ed17af75957f60d040e3f34,61036db916c09a78a6b32e9b,2021-07-29_23h14.17.682,Simcolourproject_2stim_asymm_v5,2020.2.10,Win32,60,61025ae37ef11b136ea224fe,,,,,,,,,3365,41,67,1,0,0,response1disk,,7,6,-2,1,0,0,rectangle,6,-2,1,0,0,6,-2,1,0,0,0,19,19,139,1,,,,,,,,
,,,,,,,,,,,,,FF,,,,,,,,0.8678,,,,,,,,,,,,,,,,,,,,,,5ed17af75957f60d040e3f34,61036db916c09a78a6b32e9b,2021-07-29_23h14.17.682,Simcolourproject_2stim_asymm_v5,2020.2.10,Win32,60,61025ae37ef11b136ea224fe,,,,,,,,,424,-46,-71,1,0,0,response5disk,,3,-8,6,1,0,0,rectangle,-8,6,1,0,0,-8,6,1,0,0,0,20,20,80,1,,,,,,,,
,,,,,,,,,,,,,FF,,,,,,,,0.9842,,,,,,,,,,,,,,,,,,,,,,5ed17af75957f60d040e3f34,61036db916c09a78a6b32e9b,2021-07-29_23h14.17.682,Simcolourproject_2stim_asymm_v5,2020.2.10,Win32,60,61025ae37ef11b136ea224fe,,,,,,,,,763,92,-38,1,0,0,response3disk,,5,-1,-10,1,0,0,rectangle,-1,-10,1,0,0,-1,-10,1,0,0,0,21,21,122,1,,,,,,,,
,,,,,,,,,,,,,FF,,,,,,,,1.0186,,,,,,,,,,,,,,,,,,,,,,5ed17af75957f60d040e3f34,61036db916c09a78a6b32e9b,2021-07-29_23h14.17.682,Simcolourproject_2stim_asymm_v5,2020.2.10,Win32,60,61025ae37ef11b136ea224fe,,,,,,,,,11,-44,-100,1,0,0,response5disk,,3,4,14,1,0,0,rectangle,4,14,1,0,0,4,14,1,0,0,0,22,22,10,1,,,,,,,,
,,,,,,,,,,,,,FF,,,,,,,,1.3352,,,,,,,,,,,,,,,,,,,,,,5ed17af75957f60d040e3f34,61036db916c09a78a6b32e9b,2021-07-29_23h14.17.682,Simcolourproject_2stim_asymm_v5,2020.2.10,Win32,60,61025ae37ef11b136ea224fe,,,,,,,,,3700,-53,-85,1,0,0,response5disk,,3,-11,-10,1,0,0,rectangle,-11,-10,1,0,0,-11,-10,1,0,0,0,23,23,43,1,,,,,,,,
,,,,,,,,,,,,,FF,,,,,,,,0.5175,,,,,,,,,,,,,,,,,,,,,,5ed17af75957f60d040e3f34,61036db916c09a78a6b32e9b,2021-07-29_23h14.17.682,Simcolourproject_2stim_asymm_v5,2020.2.10,Win32,60,61025ae37ef11b136ea224fe,,,,,,,,,717,-34,91,1,0,0,response7disk,,0,16,4,1,0,0,rectangle,16,4,1,0,0,16,4,1,0,0,0,24,24,38,1,,,,,,,,
,,,,,,,,,,,,,FF,,,,,,,,0.8689,,,,,,,,,,,,,,,,,,,,,,5ed17af75957f60d040e3f34,61036db916c09a78a6b32e9b,2021-07-29_23h14.17.682,Simcolourproject_2stim_asymm_v5,2020.2.10,Win32,60,61025ae37ef11b136ea224fe,,,,,,,,,4032,52,-77,1,0,0,response3disk,,4,-12,-3,1,0,0,rectangle,-12,-3,1,0,0,-12,-3,1,0,0,0,25,25,112,1,,,,,,,,
,,,,,,,,,,,,,FF,,,,,,,,0.6343,,,,,,,,,,,,,,,,,,,,,,5ed17af75957f60d040e3f34,61036db916c09a78a6b32e9b,2021-07-29_23h14.17.682,Simcolourproject_2stim_asymm_v5,2020.2.10,Win32,60,61025ae37ef11b136ea224fe,,,,,,,,,2375,62,41,1,0,0,response1disk,,6,-22,-4,1,0,0,rectangle,-22,-4,1,0,0,-22,-4,1,0,0,0,26,26,134,1,,,,,,,,
,,,,,,,,,,,,,FF,,,,,,,,0.6173,,,,,,,,,,,,,,,,,,,,,,5ed17af75957f60d040e3f34,61036db916c09a78a6b32e9b,2021-07-29_23h14.17.682,Simcolourproject_2stim_asymm_v5,2020.2.10,Win32,60,61025ae37ef11b136ea224fe,,,,,,,,,3620,85,32,1,0,0,response1disk,,6,-5,2,1,0,0,rectangle,-5,2,1,0,0,-5,2,1,0,0,0,27,27,158,1,,,,,,,,
,,,,,,,,,,,,,FF,,,,,,,,0.7176,,,,,,,,,,,,,,,,,,,,,,5ed17af75957f60d040e3f34,61036db916c09a78a6b32e9b,2021-07-29_23h14.17.682,Simcolourproject_2stim_asymm_v5,2020.2.10,Win32,60,61025ae37ef11b136ea224fe,,,,,,,,,1308,-76,25,1,0,0,response7disk,,1,10,0,1,0,0,rectangle,10,0,1,0,0,10,0,1,0,0,0,28,28,42,1,,,,,,,,
,,,,,,,,,,,,,FF,,,,,,,,0.7006,,,,,,,,,,,,,,,,,,,,,,5ed17af75957f60d040e3f34,61036db916c09a78a6b32e9b,2021-07-29_23h14.17.682,Simcolourproject_2stim_asymm_v5,2020.2.10,Win32,60,61025ae37ef11b136ea224fe,,,,,,,,,866,48,-81,1,0,0,response3disk,,4,-23,5,1,0,0,rectangle,-23,5,1,0,0,-23,5,1,0,0,0,29,29,31,1,,,,,,,,
,,,,,,,,,,,,,FF,,,,,,,,0.5004,,,,,,,,,,,,,,,,,,,,,,5ed17af75957f60d040e3f34,61036db916c09a78a6b32e9b,2021-07-29_23h14.17.682,Simcolourproject_2stim_asymm_v5,2020.2.10,Win32,60,61025ae37ef11b136ea224fe,,,,,,,,,980,-38,-95,1,0,0,response5disk,,3,16,11,1,0,0,rectangle,16,11,1,0,0,16,11,1,0,0,0,30,30,150,1,,,,,,,,
,,,,,,,,,,,,,FF,,,,,,,,0.6343,,,,,,,,,,,,,,,,,,,,,,5ed17af75957f60d040e3f34,61036db916c09a78a6b32e9b,2021-07-29_23h14.17.682,Simcolourproject_2stim_asymm_v5,2020.2.10,Win32,60,61025ae37ef11b136ea224fe,,,,,,,,,227,67,-58,1,0,0,response3disk,,5,-9,-5,1,0,0,rectangle,-9,-5,1,0,0,-9,-5,1,0,0,0,31,31,8,1,,,,,,,,
,,,,,,,,,,,,,FF,,,,,,,,0.751,,,,,,,,,,,,,,,,,,,,,,5ed17af75957f60d040e3f34,61036db916c09a78a6b32e9b,2021-07-29_23h14.17.682,Simcolourproject_2stim_asymm_v5,2020.2.10,Win32,60,61025ae37ef11b136ea224fe,,,,,,,,,2536,90,30,1,0,0,response1disk,,6,-1,0,1,0,0,rectangle,-1,0,1,0,0,-1,0,1,0,0,0,32,32,123,1,,,,,,,,
,,,,,,,,,,,,,FF,,,,,,,,0.6173,,,,,,,,,,,,,,,,,,,,,,5ed17af75957f60d040e3f34,61036db916c09a78a6b32e9b,2021-07-29_23h14.17.682,Simcolourproject_2stim_asymm_v5,2020.2.10,Win32,60,61025ae37ef11b136ea224fe,,,,,,,,,2805,86,-47,1,0,0,response3disk,,5,-4,8,1,0,0,rectangle,-22,-87,1,0,0,8,5,1,0,0,0,33,33,151,1,,response5disk_3,TRUE,3,3,"[4,215,258,285,108,186,115,308,301,98,162,172,300,92,36,261,202,34,167,57]",1.8862,rectangle
,,,,,,,,,,,,,FF,,,,,,,,1.002,,,,,,,,,,,,,,,,,,,,,,5ed17af75957f60d040e3f34,61036db916c09a78a6b32e9b,2021-07-29_23h14.17.682,Simcolourproject_2stim_asymm_v5,2020.2.10,Win32,60,61025ae37ef11b136ea224fe,,,,,,,,,126,72,-47,1,0,0,response3disk,,5,-12,-11,1,0,0,rectangle,-12,-11,1,0,0,-12,-11,1,0,0,0,34,34,147,1,,,,,,,,
,,,,,,,,,,,,,FF,,,,,,,,0.6676,,,,,,,,,,,,,,,,,,,,,,5ed17af75957f60d040e3f34,61036db916c09a78a6b32e9b,2021-07-29_23h14.17.682,Simcolourproject_2stim_asymm_v5,2020.2.10,Win32,60,61025ae37ef11b136ea224fe,,,,,,,,,2127,66,-27,1,0,0,response3disk,,5,-12,12,1,0,0,rectangle,-100,24,1,0,0,-7,-1,1,0,0,0,35,35,82,1,,response7disk_3,TRUE,1,1,"[4,215,258,285,108,186,115,308,301,98,162,172,300,92,36,261,202,34,167,57]",1.2181,rectangle
,,,,,,,,,,,,,FF,,,,,,,,2.4705,,,,,,,,,,,,,,,,,,,,,,5ed17af75957f60d040e3f34,61036db916c09a78a6b32e9b,2021-07-29_23h14.17.682,Simcolourproject_2stim_asymm_v5,2020.2.10,Win32,60,61025ae37ef11b136ea224fe,,,,,,,,,2060,53,-40,1,0,0,response3disk,,5,-1,-1,1,0,0,rectangle,-1,-1,1,0,0,-1,-1,1,0,0,0,36,36,145,1,,,,,,,,
,,,,,,,,,,,,,FF,,,,,,,,0.6004,,,,,,,,,,,,,,,,,,,,,,5ed17af75957f60d040e3f34,61036db916c09a78a6b32e9b,2021-07-29_23h14.17.682,Simcolourproject_2stim_asymm_v5,2020.2.10,Win32,60,61025ae37ef11b136ea224fe,,,,,,,,,3352,99,35,1,0,0,response1disk,,6,6,-14,1,0,0,rectangle,6,-14,1,0,0,6,-14,1,0,0,0,37,37,20,1,,,,,,,,
,,,,,,,,,,,,,FF,,,,,,,,0.9009,,,,,,,,,,,,,,,,,,,,,,5ed17af75957f60d040e3f34,61036db916c09a78a6b32e9b,2021-07-29_23h14.17.682,Simcolourproject_2stim_asymm_v5,2020.2.10,Win32,60,61025ae37ef11b136ea224fe,,,,,,,,,2467,82,30,1,0,0,response1disk,,6,3,-15,1,0,0,rectangle,3,-15,1,0,0,3,-15,1,0,0,0,38,38,117,1,,,,,,,,
,,,,,,,,,,,,,FF,,,,,,,,1.0192,,,,,,,,,,,,,,,,,,,,,,5ed17af75957f60d040e3f34,61036db916c09a78a6b32e9b,2021-07-29_23h14.17.682,Simcolourproject_2stim_asymm_v5,2020.2.10,Win32,60,61025ae37ef11b136ea224fe,,,,,,,,,3080,105,39,1,0,0,response1disk,,6,7,1,1,0,0,rectangle,7,1,1,0,0,7,1,1,0,0,0,39,39,125,1,,,,,,,,
,,,,,,,,,,,,,FF,,,,,,,,0.6842,,,,,,,,,,,,,,,,,,,,,,5ed17af75957f60d040e3f34,61036db916c09a78a6b32e9b,2021-07-29_23h14.17.682,Simcolourproject_2stim_asymm_v5,2020.2.10,Win32,60,61025ae37ef11b136ea224fe,,,,,,,,,2115,-70,-38,1,0,0,response5disk,,2,-3,-12,1,0,0,rectangle,-3,-12,1,0,0,-3,-12,1,0,0,0,40,40,75,1,,,,,,,,
,,,,,,,,,,,,,FF,,,,,,,,0.5337,,,,,,,,,,,,,,,,,,,,,,5ed17af75957f60d040e3f34,61036db916c09a78a6b32e9b,2021-07-29_23h14.17.682,Simcolourproject_2stim_asymm_v5,2020.2.10,Win32,60,61025ae37ef11b136ea224fe,,,,,,,,,3508,-63,42,1,0,0,response7disk,,1,5,13,1,0,0,rectangle,5,13,1,0,0,5,13,1,0,0,0,41,41,24,1,,,,,,,,
,,,,,,,,,,,,,FF,,,,,,,,0.7511,,,,,,,,,,,,,,,,,,,,,,5ed17af75957f60d040e3f34,61036db916c09a78a6b32e9b,2021-07-29_23h14.17.682,Simcolourproject_2stim_asymm_v5,2020.2.10,Win32,60,61025ae37ef11b136ea224fe,,,,,,,,,3453,76,-25,1,0,0,response3disk,,5,-2,12,1,0,0,rectangle,-2,12,1,0,0,-2,12,1,0,0,0,42,42,48,1,,,,,,,,
,,,,,,,,,,,,,FF,,,,,,,,0.8351,,,,,,,,,,,,,,,,,,,,,,5ed17af75957f60d040e3f34,61036db916c09a78a6b32e9b,2021-07-29_23h14.17.682,Simcolourproject_2stim_asymm_v5,2020.2.10,Win32,60,61025ae37ef11b136ea224fe,,,,,,,,,75,-84,46,1,0,0,response7disk,,1,9,-1,1,0,0,rectangle,9,-1,1,0,0,9,-1,1,0,0,0,43,43,101,1,,,,,,,,
,,,,,,,,,,,,,FF,,,,,,,,0.567,,,,,,,,,,,,,,,,,,,,,,5ed17af75957f60d040e3f34,61036db916c09a78a6b32e9b,2021-07-29_23h14.17.682,Simcolourproject_2stim_asymm_v5,2020.2.10,Win32,60,61025ae37ef11b136ea224fe,,,,,,,,,4072,-56,-109,1,0,0,response5disk,,3,9,-11,1,0,0,rectangle,9,-11,1,0,0,9,-11,1,0,0,0,44,44,131,1,,,,,,,,
,,,,,,,,,,,,,FF,,,,,,,,0.7348,,,,,,,,,,,,,,,,,,,,,,5ed17af75957f60d040e3f34,61036db916c09a78a6b32e9b,2021-07-29_23h14.17.682,Simcolourproject_2stim_asymm_v5,2020.2.10,Win32,60,61025ae37ef11b136ea224fe,,,,,,,,,2361,-51,102,1,0,0,response7disk,,0,-7,-8,1,0,0,rectangle,-7,-8,1,0,0,-7,-8,1,0,0,0,45,45,141,1,,,,,,,,
,,,,,,,,,,,,,FF,,,,,,,,0.5838,,,,,,,,,,,,,,,,,,,,,,5ed17af75957f60d040e3f34,61036db916c09a78a6b32e9b,2021-07-29_23h14.17.682,Simcolourproject_2stim_asymm_v5,2020.2.10,Win32,60,61025ae37ef11b136ea224fe,,,,,,,,,438,-59,89,1,0,0,response7disk,,0,-7,-10,1,0,0,rectangle,-7,-10,1,0,0,-7,-10,1,0,0,0,46,46,100,1,,,,,,,,
,,,,,,,,,,,,,FF,,,,,,,,0.8511,,,,,,,,,,,,,,,,,,,,,,5ed17af75957f60d040e3f34,61036db916c09a78a6b32e9b,2021-07-29_23h14.17.682,Simcolourproject_2stim_asymm_v5,2020.2.10,Win32,60,61025ae37ef11b136ea224fe,,,,,,,,,1200,60,-56,1,0,0,response3disk,,5,-18,-13,1,0,0,rectangle,-18,-13,1,0,0,-18,-13,1,0,0,0,47,47,137,1,,,,,,,,
,,,,,,,,,,,,,FF,,,,,,,,0.7849,,,,,,,,,,,,,,,,,,,,,,5ed17af75957f60d040e3f34,61036db916c09a78a6b32e9b,2021-07-29_23h14.17.682,Simcolourproject_2stim_asymm_v5,2020.2.10,Win32,60,61025ae37ef11b136ea224fe,,,,,,,,,1463,-70,34,1,0,0,response7disk,,1,2,15,1,0,0,rectangle,2,15,1,0,0,2,15,1,0,0,0,48,48,94,1,,,,,,,,
,,,,,,,,,,,,,FF,,,,,,,,0.7343,,,,,,,,,,,,,,,,,,,,,,5ed17af75957f60d040e3f34,61036db916c09a78a6b32e9b,2021-07-29_23h14.17.682,Simcolourproject_2stim_asymm_v5,2020.2.10,Win32,60,61025ae37ef11b136ea224fe,,,,,,,,,459,-97,-54,1,0,0,response5disk,,2,2,-2,1,0,0,rectangle,2,-2,1,0,0,2,-2,1,0,0,0,49,49,44,1,,,,,,,,
,,,,,,,,,,,,,FF,,,,,,,,0.8678,,,,,,,,,,,,,,,,,,,,,,5ed17af75957f60d040e3f34,61036db916c09a78a6b32e9b,2021-07-29_23h14.17.682,Simcolourproject_2stim_asymm_v5,2020.2.10,Win32,60,61025ae37ef11b136ea224fe,,,,,,,,,2745,22,-91,1,0,0,response3disk,,4,-16,1,1,0,0,rectangle,-16,1,1,0,0,-16,1,1,0,0,0,50,50,91,1,,,,,,,,
,,,,,,,,,,,,,FF,,,,,,,,0.5346,,,,,,,,,,,,,,,,,,,,,,5ed17af75957f60d040e3f34,61036db916c09a78a6b32e9b,2021-07-29_23h14.17.682,Simcolourproject_2stim_asymm_v5,2020.2.10,Win32,60,61025ae37ef11b136ea224fe,,,,,,,,,4089,-25,-66,1,0,0,response5disk,,3,8,12,1,0,0,rectangle,8,12,1,0,0,8,12,1,0,0,0,51,51,157,1,,,,,,,,
,,,,,,,,,,,,,FF,,,,,,,,0.584,,,,,,,,,,,,,,,,,,,,,,5ed17af75957f60d040e3f34,61036db916c09a78a6b32e9b,2021-07-29_23h14.17.682,Simcolourproject_2stim_asymm_v5,2020.2.10,Win32,60,61025ae37ef11b136ea224fe,,,,,,,,,3987,-40,-87,1,0,0,response5disk,,3,-4,-4,1,0,0,rectangle,-4,-4,1,0,0,-4,-4,1,0,0,0,52,52,111,1,,,,,,,,
,,,,,,,,,,,,,FF,,,,,,,,0.4509,,,,,,,,,,,,,,,,,,,,,,5ed17af75957f60d040e3f34,61036db916c09a78a6b32e9b,2021-07-29_23h14.17.682,Simcolourproject_2stim_asymm_v5,2020.2.10,Win32,60,61025ae37ef11b136ea224fe,,,,,,,,,2748,37,27,1,0,0,response1disk,,6,-15,-4,1,0,0,rectangle,-15,-4,1,0,0,-15,-4,1,0,0,0,53,53,96,1,,,,,,,,
,,,,,,,,,,,,,FF,,,,,,,,0.7843,,,,,,,,,,,,,,,,,,,,,,5ed17af75957f60d040e3f34,61036db916c09a78a6b32e9b,2021-07-29_23h14.17.682,Simcolourproject_2stim_asymm_v5,2020.2.10,Win32,60,61025ae37ef11b136ea224fe,,,,,,,,,4185,-68,-21,1,0,0,response5disk,,2,18,13,1,0,0,rectangle,18,13,1,0,0,18,13,1,0,0,0,54,54,25,1,,,,,,,,
,,,,,,,,,,,,,FF,,,,,,,,0.4671,,,,,,,,,,,,,,,,,,,,,,5ed17af75957f60d040e3f34,61036db916c09a78a6b32e9b,2021-07-29_23h14.17.682,Simcolourproject_2stim_asymm_v5,2020.2.10,Win32,60,61025ae37ef11b136ea224fe,,,,,,,,,2354,90,35,1,0,0,response1disk,,6,13,-5,1,0,0,rectangle,13,-5,1,0,0,13,-5,1,0,0,0,55,55,76,1,,,,,,,,
,,,,,,,,,,,,,FF,,,,,,,,0.5513,,,,,,,,,,,,,,,,,,,,,,5ed17af75957f60d040e3f34,61036db916c09a78a6b32e9b,2021-07-29_23h14.17.682,Simcolourproject_2stim_asymm_v5,2020.2.10,Win32,60,61025ae37ef11b136ea224fe,,,,,,,,,3050,-57,112,1,0,0,response7disk,,0,-4,-3,1,0,0,rectangle,33,85,1,0,0,7,-11,1,0,0,0,56,56,54,1,,response1disk_3,TRUE,7,7,"[4,215,258,285,108,186,115,308,301,98,162,172,300,92,36,261,202,34,167,57]",1.2854,rectangle
,,,,,,,,,,,,,FF,,,,,,,,0.8015,,,,,,,,,,,,,,,,,,,,,,5ed17af75957f60d040e3f34,61036db916c09a78a6b32e9b,2021-07-29_23h14.17.682,Simcolourproject_2stim_asymm_v5,2020.2.10,Win32,60,61025ae37ef11b136ea224fe,,,,,,,,,2711,77,35,1,0,0,response1disk,,6,-18,-6,1,0,0,rectangle,-18,-6,1,0,0,-18,-6,1,0,0,0,57,57,47,1,,,,,,,,
,,,,,,,,,,,,,FF,,,,,,,,0.8184,,,,,,,,,,,,,,,,,,,,,,5ed17af75957f60d040e3f34,61036db916c09a78a6b32e9b,2021-07-29_23h14.17.682,Simcolourproject_2stim_asymm_v5,2020.2.10,Win32,60,61025ae37ef11b136ea224fe,,,,,,,,,4219,-55,-55,1,0,0,response5disk,,2,-18,-11,1,0,0,rectangle,-18,-11,1,0,0,-18,-11,1,0,0,0,58,58,68,1,,,,,,,,
,,,,,,,,,,,,,FF,,,,,,,,0.8513,,,,,,,,,,,,,,,,,,,,,,5ed17af75957f60d040e3f34,61036db916c09a78a6b32e9b,2021-07-29_23h14.17.682,Simcolourproject_2stim_asymm_v5,2020.2.10,Win32,60,61025ae37ef11b136ea224fe,,,,,,,,,782,-25,-75,1,0,0,response5disk,,3,8,-9,1,0,0,rectangle,8,-9,1,0,0,8,-9,1,0,0,0,59,59,126,1,,,,,,,,
,,,,,,,,,,,,,FF,,,,,,,,1.0026,,,,,,,,,,,,,,,,,,,,,,5ed17af75957f60d040e3f34,61036db916c09a78a6b32e9b,2021-07-29_23h14.17.682,Simcolourproject_2stim_asymm_v5,2020.2.10,Win32,60,61025ae37ef11b136ea224fe,,,,,,,,,1799,-46,-80,1,0,0,response5disk,,3,-22,-9,1,0,0,rectangle,-22,-9,1,0,0,-22,-9,1,0,0,0,60,60,19,1,,,,,,,,
,,,,,,,,,,,,,FF,,,,,,,,0.6183,,,,,,,,,,,,,,,,,,,,,,5ed17af75957f60d040e3f34,61036db916c09a78a6b32e9b,2021-07-29_23h14.17.682,Simcolourproject_2stim_asymm_v5,2020.2.10,Win32,60,61025ae37ef11b136ea224fe,,,,,,,,,971,-80,-39,1,0,0,response5disk,,2,-23,-12,1,0,0,rectangle,-23,-12,1,0,0,-23,-12,1,0,0,0,61,61,50,1,,,,,,,,
,,,,,,,,,,,,,FF,,,,,,,,0.6347,,,,,,,,,,,,,,,,,,,,,,5ed17af75957f60d040e3f34,61036db916c09a78a6b32e9b,2021-07-29_23h14.17.682,Simcolourproject_2stim_asymm_v5,2020.2.10,Win32,60,61025ae37ef11b136ea224fe,,,,,,,,,476,44,-37,1,0,0,response3disk,,5,-21,-3,1,0,0,rectangle,-21,-3,1,0,0,-21,-3,1,0,0,0,62,62,30,1,,,,,,,,
,,,,,,,,,,,,,FF,,,,,,,,1.0847,,,,,,,,,,,,,,,,,,,,,,5ed17af75957f60d040e3f34,61036db916c09a78a6b32e9b,2021-07-29_23h14.17.682,Simcolourproject_2stim_asymm_v5,2020.2.10,Win32,60,61025ae37ef11b136ea224fe,,,,,,,,,4289,72,43,1,0,0,response1disk,,6,-18,-5,1,0,0,rectangle,-18,-5,1,0,0,-18,-5,1,0,0,0,63,63,133,1,,,,,,,,
,,,,,,,,,,,,,FF,,,,,,,,0.5504,,,,,,,,,,,,,,,,,,,,,,5ed17af75957f60d040e3f34,61036db916c09a78a6b32e9b,2021-07-29_23h14.17.682,Simcolourproject_2stim_asymm_v5,2020.2.10,Win32,60,61025ae37ef11b136ea224fe,,,,,,,,,207,83,-41,1,0,0,response3disk,,5,5,-6,1,0,0,rectangle,5,-6,1,0,0,5,-6,1,0,0,0,64,64,115,1,,,,,,,,
,,,,,,,,,,,,,FF,,,,,,,,0.7514,,,,,,,,,,,,,,,,,,,,,,5ed17af75957f60d040e3f34,61036db916c09a78a6b32e9b,2021-07-29_23h14.17.682,Simcolourproject_2stim_asymm_v5,2020.2.10,Win32,60,61025ae37ef11b136ea224fe,,,,,,,,,2731,-30,-68,1,0,0,response5disk,,3,-9,-8,1,0,0,rectangle,-9,-8,1,0,0,-9,-8,1,0,0,0,65,65,58,1,,,,,,,,
,,,,,,,,,,,,,FF,,,,,,,,0.9518,,,,,,,,,,,,,,,,,,,,,,5ed17af75957f60d040e3f34,61036db916c09a78a6b32e9b,2021-07-29_23h14.17.682,Simcolourproject_2stim_asymm_v5,2020.2.10,Win32,60,61025ae37ef11b136ea224fe,,,,,,,,,3745,-76,-37,1,0,0,response5disk,,2,4,9,1,0,0,rectangle,4,9,1,0,0,4,9,1,0,0,0,66,66,4,1,,,,,,,,
,,,,,,,,,,,,,FF,,,,,,,,0.5336,,,,,,,,,,,,,,,,,,,,,,5ed17af75957f60d040e3f34,61036db916c09a78a6b32e9b,2021-07-29_23h14.17.682,Simcolourproject_2stim_asymm_v5,2020.2.10,Win32,60,61025ae37ef11b136ea224fe,,,,,,,,,366,-31,86,1,0,0,response7disk,,0,-9,-2,1,0,0,rectangle,-9,-2,1,0,0,-9,-2,1,0,0,0,67,67,142,1,,,,,,,,
,,,,,,,,,,,,,FF,,,,,,,,0.6838,,,,,,,,,,,,,,,,,,,,,,5ed17af75957f60d040e3f34,61036db916c09a78a6b32e9b,2021-07-29_23h14.17.682,Simcolourproject_2stim_asymm_v5,2020.2.10,Win32,60,61025ae37ef11b136ea224fe,,,,,,,,,3048,-60,37,1,0,0,response7disk,,1,0,-6,1,0,0,rectangle,0,-6,1,0,0,0,-6,1,0,0,0,68,68,138,1,,,,,,,,
,,,,,,,,,,,,,FF,,,,,,,,0.5505,,,,,,,,,,,,,,,,,,,,,,5ed17af75957f60d040e3f34,61036db916c09a78a6b32e9b,2021-07-29_23h14.17.682,Simcolourproject_2stim_asymm_v5,2020.2.10,Win32,60,61025ae37ef11b136ea224fe,,,,,,,,,3533,89,90,1,0,0,response1disk,,7,8,-13,1,0,0,rectangle,8,-13,1,0,0,8,-13,1,0,0,0,69,69,152,1,,,,,,,,
,,,,,,,,,,,,,FF,,,,,,,,0.752,,,,,,,,,,,,,,,,,,,,,,5ed17af75957f60d040e3f34,61036db916c09a78a6b32e9b,2021-07-29_23h14.17.682,Simcolourproject_2stim_asymm_v5,2020.2.10,Win32,60,61025ae37ef11b136ea224fe,,,,,,,,,2996,-82,30,1,0,0,response7disk,,1,-9,3,1,0,0,rectangle,-9,3,1,0,0,-9,3,1,0,0,0,70,70,113,1,,,,,,,,
,,,,,,,,,,,,,FF,,,,,,,,0.6674,,,,,,,,,,,,,,,,,,,,,,5ed17af75957f60d040e3f34,61036db916c09a78a6b32e9b,2021-07-29_23h14.17.682,Simcolourproject_2stim_asymm_v5,2020.2.10,Win32,60,61025ae37ef11b136ea224fe,,,,,,,,,3175,50,101,1,0,0,response1disk,,7,12,3,1,0,0,rectangle,12,3,1,0,0,12,3,1,0,0,0,71,71,93,1,,,,,,,,
,,,,,,,,,,,,,FF,,,,,,,,0.8346,,,,,,,,,,,,,,,,,,,,,,5ed17af75957f60d040e3f34,61036db916c09a78a6b32e9b,2021-07-29_23h14.17.682,Simcolourproject_2stim_asymm_v5,2020.2.10,Win32,60,61025ae37ef11b136ea224fe,,,,,,,,,3287,-78,-44,1,0,0,response5disk,,2,-2,-5,1,0,0,rectangle,-2,-5,1,0,0,-2,-5,1,0,0,0,72,72,106,1,,,,,,,,
,,,,,,,,,,,,,FF,,,,,,,,1.5529,,,,,,,,,,,,,,,,,,,,,,5ed17af75957f60d040e3f34,61036db916c09a78a6b32e9b,2021-07-29_23h14.17.682,Simcolourproject_2stim_asymm_v5,2020.2.10,Win32,60,61025ae37ef11b136ea224fe,,,,,,,,,3798,78,-42,1,0,0,response3disk,,5,2,1,1,0,0,rectangle,2,1,1,0,0,2,1,1,0,0,0,73,73,41,1,,,,,,,,
,,,,,,,,,,,,,FF,,,,,,,,0.7009,,,,,,,,,,,,,,,,,,,,,,5ed17af75957f60d040e3f34,61036db916c09a78a6b32e9b,2021-07-29_23h14.17.682,Simcolourproject_2stim_asymm_v5,2020.2.10,Win32,60,61025ae37ef11b136ea224fe,,,,,,,,,1240,29,-80,1,0,0,response3disk,,4,1,-7,1,0,0,rectangle,1,-7,1,0,0,1,-7,1,0,0,0,74,74,156,1,,,,,,,,
,,,,,,,,,,,,,FF,,,,,,,,0.6508,,,,,,,,,,,,,,,,,,,,,,5ed17af75957f60d040e3f34,61036db916c09a78a6b32e9b,2021-07-29_23h14.17.682,Simcolourproject_2stim_asymm_v5,2020.2.10,Win32,60,61025ae37ef11b136ea224fe,,,,,,,,,1545,42,-94,1,0,0,response3disk,,4,1,-18,1,0,0,rectangle,1,-18,1,0,0,1,-18,1,0,0,0,75,75,45,1,,,,,,,,
,,,,,,,,,,,,,FF,,,,,,,,0.684,,,,,,,,,,,,,,,,,,,,,,5ed17af75957f60d040e3f34,61036db916c09a78a6b32e9b,2021-07-29_23h14.17.682,Simcolourproject_2stim_asymm_v5,2020.2.10,Win32,60,61025ae37ef11b136ea224fe,,,,,,,,,2167,-42,97,1,0,0,response7disk,,0,-2,-6,1,0,0,rectangle,-2,-6,1,0,0,-2,-6,1,0,0,0,76,76,71,1,,,,,,,,
,,,,,,,,,,,,,FF,,,,,,,,0.6509,,,,,,,,,,,,,,,,,,,,,,5ed17af75957f60d040e3f34,61036db916c09a78a6b32e9b,2021-07-29_23h14.17.682,Simcolourproject_2stim_asymm_v5,2020.2.10,Win32,60,61025ae37ef11b136ea224fe,,,,,,,,,1844,75,35,1,0,0,response1disk,,6,-10,7,1,0,0,rectangle,-10,7,1,0,0,-10,7,1,0,0,0,77,77,98,1,,,,,,,,
,,,,,,,,,,,,,FF,,,,,,,,0.5171,,,,,,,,,,,,,,,,,,,,,,5ed17af75957f60d040e3f34,61036db916c09a78a6b32e9b,2021-07-29_23h14.17.682,Simcolourproject_2stim_asymm_v5,2020.2.10,Win32,60,61025ae37ef11b136ea224fe,,,,,,,,,453,104,63,1,0,0,response1disk,,6,19,3,1,0,0,rectangle,19,3,1,0,0,19,3,1,0,0,0,78,78,35,1,,,,,,,,
,,,,,,,,,,,,,FF,,,,,,,,0.4005,,,,,,,,,,,,,,,,,,,,,,5ed17af75957f60d040e3f34,61036db916c09a78a6b32e9b,2021-07-29_23h14.17.682,Simcolourproject_2stim_asymm_v5,2020.2.10,Win32,60,61025ae37ef11b136ea224fe,,,,,,,,,2407,102,-37,1,0,0,response3disk,,5,1,9,1,0,0,rectangle,1,9,1,0,0,1,9,1,0,0,0,79,79,14,1,,,,,,,,
,,,,,,,,,,,,,FF,,,,,,,,0.6507,,,,,,,,,,,,,,,,,,,,,,5ed17af75957f60d040e3f34,61036db916c09a78a6b32e9b,2021-07-29_23h14.17.682,Simcolourproject_2stim_asymm_v5,2020.2.10,Win32,60,61025ae37ef11b136ea224fe,,,,,,,,,4167,-84,21,1,0,0,response7disk,,1,-6,13,1,0,0,rectangle,-6,13,1,0,0,-6,13,1,0,0,0,80,80,70,1,,,,,,,,
,,,,,,,,,,,,,FF,,,,,,,,0.5337,,,,,,,,,,,,,,,,,,,,,,5ed17af75957f60d040e3f34,61036db916c09a78a6b32e9b,2021-07-29_23h14.17.682,Simcolourproject_2stim_asymm_v5,2020.2.10,Win32,60,61025ae37ef11b136ea224fe,,,,,,,,,3408,67,79,1,0,0,response1disk,,7,20,4,1,0,0,rectangle,20,4,1,0,0,20,4,1,0,0,0,81,81,12,1,,,,,,,,
,,,,,,,,,,,,,FF,,,,,,,,0.6504,,,,,,,,,,,,,,,,,,,,,,5ed17af75957f60d040e3f34,61036db916c09a78a6b32e9b,2021-07-29_23h14.17.682,Simcolourproject_2stim_asymm_v5,2020.2.10,Win32,60,61025ae37ef11b136ea224fe,,,,,,,,,1097,92,28,1,0,0,response1disk,,6,-26,-2,1,0,0,rectangle,-26,-2,1,0,0,-26,-2,1,0,0,0,82,82,89,1,,,,,,,,
,,,,,,,,,,,,,FF,,,,,,,,0.6839,,,,,,,,,,,,,,,,,,,,,,5ed17af75957f60d040e3f34,61036db916c09a78a6b32e9b,2021-07-29_23h14.17.682,Simcolourproject_2stim_asymm_v5,2020.2.10,Win32,60,61025ae37ef11b136ea224fe,,,,,,,,,1625,-91,-37,1,0,0,response5disk,,2,7,6,1,0,0,rectangle,7,6,1,0,0,7,6,1,0,0,0,83,83,81,1,,,,,,,,
,,,,,,,,,,,,,FF,,,,,,,,0.6341,,,,,,,,,,,,,,,,,,,,,,5ed17af75957f60d040e3f34,61036db916c09a78a6b32e9b,2021-07-29_23h14.17.682,Simcolourproject_2stim_asymm_v5,2020.2.10,Win32,60,61025ae37ef11b136ea224fe,,,,,,,,,3948,77,-38,1,0,0,response3disk,,5,-4,-2,1,0,0,rectangle,-4,-2,1,0,0,-4,-2,1,0,0,0,84,84,146,1,,,,,,,,
,,,,,,,,,,,,,FF,,,,,,,,0.634,,,,,,,,,,,,,,,,,,,,,,5ed17af75957f60d040e3f34,61036db916c09a78a6b32e9b,2021-07-29_23h14.17.682,Simcolourproject_2stim_asymm_v5,2020.2.10,Win32,60,61025ae37ef11b136ea224fe,,,,,,,,,3701,45,-79,1,0,0,response3disk,,4,-1,-17,1,0,0,rectangle,-1,-17,1,0,0,-1,-17,1,0,0,0,85,85,60,1,,,,,,,,
,,,,,,,,,,,,,FF,,,,,,,,0.6841,,,,,,,,,,,,,,,,,,,,,,5ed17af75957f60d040e3f34,61036db916c09a78a6b32e9b,2021-07-29_23h14.17.682,Simcolourproject_2stim_asymm_v5,2020.2.10,Win32,60,61025ae37ef11b136ea224fe,,,,,,,,,4065,46,-77,1,0,0,response3disk,,4,8,6,1,0,0,rectangle,8,6,1,0,0,8,6,1,0,0,0,86,86,67,1,,,,,,,,
,,,,,,,,,,,,,FF,,,,,,,,0.802,,,,,,,,,,,,,,,,,,,,,,5ed17af75957f60d040e3f34,61036db916c09a78a6b32e9b,2021-07-29_23h14.17.682,Simcolourproject_2stim_asymm_v5,2020.2.10,Win32,60,61025ae37ef11b136ea224fe,,,,,,,,,2024,94,69,1,0,0,response1disk,,6,26,13,1,0,0,rectangle,26,13,1,0,0,26,13,1,0,0,0,87,87,124,1,,,,,,,,
,,,,,,,,,,,,,FF,,,,,,,,0.7842,,,,,,,,,,,,,,,,,,,,,,5ed17af75957f60d040e3f34,61036db916c09a78a6b32e9b,2021-07-29_23h14.17.682,Simcolourproject_2stim_asymm_v5,2020.2.10,Win32,60,61025ae37ef11b136ea224fe,,,,,,,,,2088,-68,-31,1,0,0,response5disk,,2,-2,3,1,0,0,rectangle,-2,3,1,0,0,-2,3,1,0,0,0,88,88,56,1,,,,,,,,
,,,,,,,,,,,,,FF,,,,,,,,0.6507,,,,,,,,,,,,,,,,,,,,,,5ed17af75957f60d040e3f34,61036db916c09a78a6b32e9b,2021-07-29_23h14.17.682,Simcolourproject_2stim_asymm_v5,2020.2.10,Win32,60,61025ae37ef11b136ea224fe,,,,,,,,,4275,49,-20,1,0,0,response3disk,,5,-5,-2,1,0,0,rectangle,-5,-2,1,0,0,-5,-2,1,0,0,0,89,89,108,1,,,,,,,,
,,,,,,,,,,,,,FF,,,,,,,,0.6005,,,,,,,,,,,,,,,,,,,,,,5ed17af75957f60d040e3f34,61036db916c09a78a6b32e9b,2021-07-29_23h14.17.682,Simcolourproject_2stim_asymm_v5,2020.2.10,Win32,60,61025ae37ef11b136ea224fe,,,,,,,,,798,-46,-64,1,0,0,response5disk,,3,-8,-15,1,0,0,rectangle,-8,-15,1,0,0,-8,-15,1,0,0,0,90,90,155,1,,,,,,,,
,,,,,,,,,,,,,FF,,,,,,,,0.6347,,,,,,,,,,,,,,,,,,,,,,5ed17af75957f60d040e3f34,61036db916c09a78a6b32e9b,2021-07-29_23h14.17.682,Simcolourproject_2stim_asymm_v5,2020.2.10,Win32,60,61025ae37ef11b136ea224fe,,,,,,,,,1033,-27,-58,1,0,0,response5disk,,3,8,-1,1,0,0,rectangle,-40,-94,1,0,0,-3,-12,1,0,0,0,91,91,118,1,,response5disk_3,TRUE,3,3,"[4,215,258,285,108,186,115,308,301,98,162,172,300,92,36,261,202,34,167,57]",1.87,rectangle
,,,,,,,,,,,,,FF,,,,,,,,0.6844,,,,,,,,,,,,,,,,,,,,,,5ed17af75957f60d040e3f34,61036db916c09a78a6b32e9b,2021-07-29_23h14.17.682,Simcolourproject_2stim_asymm_v5,2020.2.10,Win32,60,61025ae37ef11b136ea224fe,,,,,,,,,3822,76,-28,1,0,0,response3disk,,5,-2,11,1,0,0,rectangle,-2,11,1,0,0,-2,11,1,0,0,0,92,92,154,1,,,,,,,,
,,,,,,,,,,,,,FF,,,,,,,,0.6842,,,,,,,,,,,,,,,,,,,,,,5ed17af75957f60d040e3f34,61036db916c09a78a6b32e9b,2021-07-29_23h14.17.682,Simcolourproject_2stim_asymm_v5,2020.2.10,Win32,60,61025ae37ef11b136ea224fe,,,,,,,,,3984,44,100,1,0,0,response1disk,,7,-1,3,1,0,0,rectangle,-1,3,1,0,0,-1,3,1,0,0,0,93,93,105,1,,,,,,,,
,,,,,,,,,,,,,FF,,,,,,,,0.5675,,,,,,,,,,,,,,,,,,,,,,5ed17af75957f60d040e3f34,61036db916c09a78a6b32e9b,2021-07-29_23h14.17.682,Simcolourproject_2stim_asymm_v5,2020.2.10,Win32,60,61025ae37ef11b136ea224fe,,,,,,,,,1716,71,37,1,0,0,response1disk,,6,17,-8,1,0,0,rectangle,17,-8,1,0,0,17,-8,1,0,0,0,94,94,36,1,,,,,,,,
,,,,,,,,,,,,,FF,,,,,,,,0.6679,,,,,,,,,,,,,,,,,,,,,,5ed17af75957f60d040e3f34,61036db916c09a78a6b32e9b,2021-07-29_23h14.17.682,Simcolourproject_2stim_asymm_v5,2020.2.10,Win32,60,61025ae37ef11b136ea224fe,,,,,,,,,4281,-38,61,1,0,0,response7disk,,0,9,-9,1,0,0,rectangle,9,-9,1,0,0,9,-9,1,0,0,0,95,95,92,1,,,,,,,,
,,,,,,,,,,,,,FF,,,,,,,,0.5845,,,,,,,,,,,,,,,,,,,,,,5ed17af75957f60d040e3f34,61036db916c09a78a6b32e9b,2021-07-29_23h14.17.682,Simcolourproject_2stim_asymm_v5,2020.2.10,Win32,60,61025ae37ef11b136ea224fe,,,,,,,,,2781,-37,89,1,0,0,response7disk,,0,-2,-8,1,0,0,rectangle,-2,-8,1,0,0,-2,-8,1,0,0,0,96,96,34,1,,,,,,,,
,,,,,,,,,,,,,FF,,,,,,,,0.5672,,,,,,,,,,,,,,,,,,,,,,5ed17af75957f60d040e3f34,61036db916c09a78a6b32e9b,2021-07-29_23h14.17.682,Simcolourproject_2stim_asymm_v5,2020.2.10,Win32,60,61025ae37ef11b136ea224fe,,,,,,,,,32,79,31,1,0,0,response1disk,,6,17,-13,1,0,0,rectangle,35,85,1,0,0,4,-4,1,0,0,0,97,97,57,1,,response1disk_3,TRUE,7,7,"[4,215,258,285,108,186,115,308,301,98,162,172,300,92,36,261,202,34,167,57]",1.085,rectangle
,,,,,,,,,,,,,FF,,,,,,,,0.6006,,,,,,,,,,,,,,,,,,,,,,5ed17af75957f60d040e3f34,61036db916c09a78a6b32e9b,2021-07-29_23h14.17.682,Simcolourproject_2stim_asymm_v5,2020.2.10,Win32,60,61025ae37ef11b136ea224fe,,,,,,,,,4327,-41,102,1,0,0,response7disk,,0,-11,15,1,0,0,rectangle,-11,15,1,0,0,-11,15,1,0,0,0,98,98,72,1,,,,,,,,
,,,,,,,,,,,,,FF,,,,,,,,0.6853,,,,,,,,,,,,,,,,,,,,,,5ed17af75957f60d040e3f34,61036db916c09a78a6b32e9b,2021-07-29_23h14.17.682,Simcolourproject_2stim_asymm_v5,2020.2.10,Win32,60,61025ae37ef11b136ea224fe,,,,,,,,,4,-85,34,1,0,0,response7disk,,1,-5,-13,1,0,0,rectangle,-5,-13,1,0,0,-5,-13,1,0,0,0,99,99,28,1,,,,,,,,
,,,,,,,,,,,,,FF,,,,,,,,0.5007,,,,,,,,,,,,,,,,,,,,,,5ed17af75957f60d040e3f34,61036db916c09a78a6b32e9b,2021-07-29_23h14.17.682,Simcolourproject_2stim_asymm_v5,2020.2.10,Win32,60,61025ae37ef11b136ea224fe,,,,,,,,,2489,-60,-52,1,0,0,response5disk,,2,20,6,1,0,0,rectangle,20,6,1,0,0,20,6,1,0,0,0,100,100,127,1,,,,,,,,
,,,,,,,,,,,,,FF,,,,,,,,0.6007,,,,,,,,,,,,,,,,,,,,,,5ed17af75957f60d040e3f34,61036db916c09a78a6b32e9b,2021-07-29_23h14.17.682,Simcolourproject_2stim_asymm_v5,2020.2.10,Win32,60,61025ae37ef11b136ea224fe,,,,,,,,,3017,91,55,1,0,0,response1disk,,6,5,-5,1,0,0,rectangle,5,-5,1,0,0,5,-5,1,0,0,0,101,101,79,1,,,,,,,,
,,,,,,,,,,,,,FF,,,,,,,,0.6681,,,,,,,,,,,,,,,,,,,,,,5ed17af75957f60d040e3f34,61036db916c09a78a6b32e9b,2021-07-29_23h14.17.682,Simcolourproject_2stim_asymm_v5,2020.2.10,Win32,60,61025ae37ef11b136ea224fe,,,,,,,,,4182,-77,-51,1,0,0,response5disk,,2,16,1,1,0,0,rectangle,16,1,1,0,0,16,1,1,0,0,0,102,102,130,1,,,,,,,,
,,,,,,,,,,,,,FF,,,,,,,,0.5341,,,,,,,,,,,,,,,,,,,,,,5ed17af75957f60d040e3f34,61036db916c09a78a6b32e9b,2021-07-29_23h14.17.682,Simcolourproject_2stim_asymm_v5,2020.2.10,Win32,60,61025ae37ef11b136ea224fe,,,,,,,,,3648,83,43,1,0,0,response1disk,,6,-14,-14,1,0,0,rectangle,-14,-14,1,0,0,-14,-14,1,0,0,0,103,103,114,1,,,,,,,,
,,,,,,,,,,,,,FF,,,,,,,,0.8175,,,,,,,,,,,,,,,,,,,,,,5ed17af75957f60d040e3f34,61036db916c09a78a6b32e9b,2021-07-29_23h14.17.682,Simcolourproject_2stim_asymm_v5,2020.2.10,Win32,60,61025ae37ef11b136ea224fe,,,,,,,,,199,64,-60,1,0,0,response3disk,,5,8,-7,1,0,0,rectangle,8,-7,1,0,0,8,-7,1,0,0,0,104,104,6,1,,,,,,,,
,,,,,,,,,,,,,FF,,,,,,,,0.6344,,,,,,,,,,,,,,,,,,,,,,5ed17af75957f60d040e3f34,61036db916c09a78a6b32e9b,2021-07-29_23h14.17.682,Simcolourproject_2stim_asymm_v5,2020.2.10,Win32,60,61025ae37ef11b136ea224fe,,,,,,,,,1767,-47,-73,1,0,0,response5disk,,3,-12,-9,1,0,0,rectangle,-12,-9,1,0,0,-12,-9,1,0,0,0,105,105,53,1,,,,,,,,
,,,,,,,,,,,,,FF,,,,,,,,0.8177,,,,,,,,,,,,,,,,,,,,,,5ed17af75957f60d040e3f34,61036db916c09a78a6b32e9b,2021-07-29_23h14.17.682,Simcolourproject_2stim_asymm_v5,2020.2.10,Win32,60,61025ae37ef11b136ea224fe,,,,,,,,,425,79,-55,1,0,0,response3disk,,5,9,0,1,0,0,rectangle,9,0,1,0,0,9,0,1,0,0,0,106,106,78,1,,,,,,,,
,,,,,,,,,,,,,FF,,,,,,,,1.1016,,,,,,,,,,,,,,,,,,,,,,5ed17af75957f60d040e3f34,61036db916c09a78a6b32e9b,2021-07-29_23h14.17.682,Simcolourproject_2stim_asymm_v5,2020.2.10,Win32,60,61025ae37ef11b136ea224fe,,,,,,,,,2295,-74,-19,1,0,0,response5disk,,2,-27,10,1,0,0,rectangle,86,45,1,0,0,15,4,1,0,0,0,107,107,11,1,,response1disk_3,TRUE,6,6,"[4,215,258,285,108,186,115,308,301,98,162,172,300,92,36,261,202,34,167,57]",1.3182,rectangle
,,,,,,,,,,,,,FF,,,,,,,,0.9846,,,,,,,,,,,,,,,,,,,,,,5ed17af75957f60d040e3f34,61036db916c09a78a6b32e9b,2021-07-29_23h14.17.682,Simcolourproject_2stim_asymm_v5,2020.2.10,Win32,60,61025ae37ef11b136ea224fe,,,,,,,,,895,-68,-24,1,0,0,response5disk,,2,-9,4,1,0,0,rectangle,-9,4,1,0,0,-9,4,1,0,0,0,108,108,40,1,,,,,,,,
,,,,,,,,,,,,,FF,,,,,,,,0.9347,,,,,,,,,,,,,,,,,,,,,,5ed17af75957f60d040e3f34,61036db916c09a78a6b32e9b,2021-07-29_23h14.17.682,Simcolourproject_2stim_asymm_v5,2020.2.10,Win32,60,61025ae37ef11b136ea224fe,,,,,,,,,897,62,-70,1,0,0,response3disk,,4,-7,-4,1,0,0,rectangle,-7,-4,1,0,0,-7,-4,1,0,0,0,109,109,128,1,,,,,,,,
,,,,,,,,,,,,,FF,,,,,,,,0.5672,,,,,,,,,,,,,,,,,,,,,,5ed17af75957f60d040e3f34,61036db916c09a78a6b32e9b,2021-07-29_23h14.17.682,Simcolourproject_2stim_asymm_v5,2020.2.10,Win32,60,61025ae37ef11b136ea224fe,,,,,,,,,1647,61,44,1,0,0,response1disk,,6,-5,6,1,0,0,rectangle,-5,6,1,0,0,-5,6,1,0,0,0,110,110,132,1,,,,,,,,
,,,,,,,,,,,,,FF,,,,,,,,0.8341,,,,,,,,,,,,,,,,,,,,,,5ed17af75957f60d040e3f34,61036db916c09a78a6b32e9b,2021-07-29_23h14.17.682,Simcolourproject_2stim_asymm_v5,2020.2.10,Win32,60,61025ae37ef11b136ea224fe,,,,,,,,,2208,44,56,1,0,0,response1disk,,7,7,-4,1,0,0,rectangle,7,-4,1,0,0,7,-4,1,0,0,0,111,111,23,1,,,,,,,,
,,,,,,,,,,,,,FF,,,,,,,,0.5846,,,,,,,,,,,,,,,,,,,,,,5ed17af75957f60d040e3f34,61036db916c09a78a6b32e9b,2021-07-29_23h14.17.682,Simcolourproject_2stim_asymm_v5,2020.2.10,Win32,60,61025ae37ef11b136ea224fe,,,,,,,,,2646,52,32,1,0,0,response1disk,,6,-3,-16,1,0,0,rectangle,-3,-16,1,0,0,-3,-16,1,0,0,0,112,112,83,1,,,,,,,,
,,,,,,,,,,,,,FF,,,,,,,,0.5849,,,,,,,,,,,,,,,,,,,,,,5ed17af75957f60d040e3f34,61036db916c09a78a6b32e9b,2021-07-29_23h14.17.682,Simcolourproject_2stim_asymm_v5,2020.2.10,Win32,60,61025ae37ef11b136ea224fe,,,,,,,,,4170,-101,47,1,0,0,response7disk,,1,-11,10,1,0,0,rectangle,-11,10,1,0,0,-11,10,1,0,0,0,113,113,51,1,,,,,,,,
,,,,,,,,,,,,,FF,,,,,,,,0.5682,,,,,,,,,,,,,,,,,,,,,,5ed17af75957f60d040e3f34,61036db916c09a78a6b32e9b,2021-07-29_23h14.17.682,Simcolourproject_2stim_asymm_v5,2020.2.10,Win32,60,61025ae37ef11b136ea224fe,,,,,,,,,168,-64,29,1,0,0,response7disk,,1,-11,0,1,0,0,rectangle,-30,68,1,0,0,-3,-8,1,0,0,0,114,114,64,1,,response7disk_3,TRUE,0,0,"[4,215,258,285,108,186,115,308,301,98,162,172,300,92,36,261,202,34,167,57]",1.0685,rectangle
,,,,,,,,,,,,,FF,,,,,,,,0.7017,,,,,,,,,,,,,,,,,,,,,,5ed17af75957f60d040e3f34,61036db916c09a78a6b32e9b,2021-07-29_23h14.17.682,Simcolourproject_2stim_asymm_v5,2020.2.10,Win32,60,61025ae37ef11b136ea224fe,,,,,,,,,4222,-31,74,1,0,0,response7disk,,0,-11,-16,1,0,0,rectangle,-11,-16,1,0,0,-11,-16,1,0,0,0,115,115,49,1,,,,,,,,
,,,,,,,,,,,,,FF,,,,,,,,0.7174,,,,,,,,,,,,,,,,,,,,,,5ed17af75957f60d040e3f34,61036db916c09a78a6b32e9b,2021-07-29_23h14.17.682,Simcolourproject_2stim_asymm_v5,2020.2.10,Win32,60,61025ae37ef11b136ea224fe,,,,,,,,,2742,-57,-35,1,0,0,response5disk,,2,-1,2,1,0,0,rectangle,-1,2,1,0,0,-1,2,1,0,0,0,116,116,120,1,,,,,,,,
,,,,,,,,,,,,,FF,,,,,,,,0.634,,,,,,,,,,,,,,,,,,,,,,5ed17af75957f60d040e3f34,61036db916c09a78a6b32e9b,2021-07-29_23h14.17.682,Simcolourproject_2stim_asymm_v5,2020.2.10,Win32,60,61025ae37ef11b136ea224fe,,,,,,,,,316,48,-29,1,0,0,response3disk,,5,6,-5,1,0,0,rectangle,6,-5,1,0,0,6,-5,1,0,0,0,117,117,143,1,,,,,,,,
,,,,,,,,,,,,,FF,,,,,,,,0.4502,,,,,,,,,,,,,,,,,,,,,,5ed17af75957f60d040e3f34,61036db916c09a78a6b32e9b,2021-07-29_23h14.17.682,Simcolourproject_2stim_asymm_v5,2020.2.10,Win32,60,61025ae37ef11b136ea224fe,,,,,,,,,2754,39,28,1,0,0,response1disk,,6,-12,-8,1,0,0,rectangle,-12,-8,1,0,0,-12,-8,1,0,0,0,118,118,33,1,,,,,,,,
,,,,,,,,,,,,,FF,,,,,,,,0.5503,,,,,,,,,,,,,,,,,,,,,,5ed17af75957f60d040e3f34,61036db916c09a78a6b32e9b,2021-07-29_23h14.17.682,Simcolourproject_2stim_asymm_v5,2020.2.10,Win32,60,61025ae37ef11b136ea224fe,,,,,,,,,2833,-64,76,1,0,0,response7disk,,0,-16,7,1,0,0,rectangle,-16,7,1,0,0,-16,7,1,0,0,0,119,119,52,1,,,,,,,,
,,,,,,,,,,,,,FF,,,,,,,,0.9513,,,,,,,,,,,,,,,,,,,,,,5ed17af75957f60d040e3f34,61036db916c09a78a6b32e9b,2021-07-29_23h14.17.682,Simcolourproject_2stim_asymm_v5,2020.2.10,Win32,60,61025ae37ef11b136ea224fe,,,,,,,,,2241,-53,30,1,0,0,response7disk,,1,-1,3,1,0,0,rectangle,-1,3,1,0,0,-1,3,1,0,0,0,120,120,153,1,,,,,,,,
,,,,,,,,,,,,,FF,,,,,,,,0.5005,,,,,,,,,,,,,,,,,,,,,,5ed17af75957f60d040e3f34,61036db916c09a78a6b32e9b,2021-07-29_23h14.17.682,Simcolourproject_2stim_asymm_v5,2020.2.10,Win32,60,61025ae37ef11b136ea224fe,,,,,,,,,154,47,57,1,0,0,response1disk,,7,-3,4,1,0,0,rectangle,-3,4,1,0,0,-3,4,1,0,0,0,121,121,86,1,,,,,,,,
,,,,,,,,,,,,,FF,,,,,,,,0.417,,,,,,,,,,,,,,,,,,,,,,5ed17af75957f60d040e3f34,61036db916c09a78a6b32e9b,2021-07-29_23h14.17.682,Simcolourproject_2stim_asymm_v5,2020.2.10,Win32,60,61025ae37ef11b136ea224fe,,,,,,,,,2808,57,25,1,0,0,response1disk,,6,-26,-4,1,0,0,rectangle,-26,-4,1,0,0,-26,-4,1,0,0,0,122,122,5,1,,,,,,,,
,,,,,,,,,,,,,FF,,,,,,,,0.5672,,,,,,,,,,,,,,,,,,,,,,5ed17af75957f60d040e3f34,61036db916c09a78a6b32e9b,2021-07-29_23h14.17.682,Simcolourproject_2stim_asymm_v5,2020.2.10,Win32,60,61025ae37ef11b136ea224fe,,,,,,,,,2654,-62,-29,1,0,0,response5disk,,2,4,14,1,0,0,rectangle,4,14,1,0,0,4,14,1,0,0,0,123,123,136,1,,,,,,,,
,,,,,,,,,,,,,FF,,,,,,,,1.2349,,,,,,,,,,,,,,,,,,,,,,5ed17af75957f60d040e3f34,61036db916c09a78a6b32e9b,2021-07-29_23h14.17.682,Simcolourproject_2stim_asymm_v5,2020.2.10,Win32,60,61025ae37ef11b136ea224fe,,,,,,,,,701,-47,-62,1,0,0,response5disk,,3,-22,-8,1,0,0,rectangle,-22,-8,1,0,0,-22,-8,1,0,0,0,124,124,15,1,,,,,,,,
,,,,,,,,,,,,,FF,,,,,,,,0.8512,,,,,,,,,,,,,,,,,,,,,,5ed17af75957f60d040e3f34,61036db916c09a78a6b32e9b,2021-07-29_23h14.17.682,Simcolourproject_2stim_asymm_v5,2020.2.10,Win32,60,61025ae37ef11b136ea224fe,,,,,,,,,2381,36,-58,1,0,0,response3disk,,4,8,-4,1,0,0,rectangle,8,-4,1,0,0,8,-4,1,0,0,0,125,125,9,1,,,,,,,,
,,,,,,,,,,,,,FF,,,,,,,,0.5677,,,,,,,,,,,,,,,,,,,,,,5ed17af75957f60d040e3f34,61036db916c09a78a6b32e9b,2021-07-29_23h14.17.682,Simcolourproject_2stim_asymm_v5,2020.2.10,Win32,60,61025ae37ef11b136ea224fe,,,,,,,,,39,47,31,1,0,0,response1disk,,6,-18,-3,1,0,0,rectangle,-18,-3,1,0,0,-18,-3,1,0,0,0,126,126,61,1,,,,,,,,
,,,,,,,,,,,,,FF,,,,,,,,0.7006,,,,,,,,,,,,,,,,,,,,,,5ed17af75957f60d040e3f34,61036db916c09a78a6b32e9b,2021-07-29_23h14.17.682,Simcolourproject_2stim_asymm_v5,2020.2.10,Win32,60,61025ae37ef11b136ea224fe,,,,,,,,,114,70,-35,1,0,0,response3disk,,5,-3,5,1,0,0,rectangle,-3,5,1,0,0,-3,5,1,0,0,0,127,127,1,1,,,,,,,,
,,,,,,,,,,,,,FF,,,,,,,,0.6341,,,,,,,,,,,,,,,,,,,,,,5ed17af75957f60d040e3f34,61036db916c09a78a6b32e9b,2021-07-29_23h14.17.682,Simcolourproject_2stim_asymm_v5,2020.2.10,Win32,60,61025ae37ef11b136ea224fe,,,,,,,,,4028,51,-27,1,0,0,response3disk,,5,-3,-3,1,0,0,rectangle,-3,-3,1,0,0,-3,-3,1,0,0,0,128,128,99,1,,,,,,,,
,,,,,,,,,,,,,FF,,,,,,,,0.6514,,,,,,,,,,,,,,,,,,,,,,5ed17af75957f60d040e3f34,61036db916c09a78a6b32e9b,2021-07-29_23h14.17.682,Simcolourproject_2stim_asymm_v5,2020.2.10,Win32,60,61025ae37ef11b136ea224fe,,,,,,,,,1903,-51,-30,1,0,0,response5disk,,2,-2,6,1,0,0,rectangle,-2,6,1,0,0,-2,6,1,0,0,0,129,129,69,1,,,,,,,,
,,,,,,,,,,,,,FF,,,,,,,,0.451,,,,,,,,,,,,,,,,,,,,,,5ed17af75957f60d040e3f34,61036db916c09a78a6b32e9b,2021-07-29_23h14.17.682,Simcolourproject_2stim_asymm_v5,2020.2.10,Win32,60,61025ae37ef11b136ea224fe,,,,,,,,,2929,48,-21,1,0,0,response3disk,,5,-11,7,1,0,0,rectangle,-11,7,1,0,0,-11,7,1,0,0,0,130,130,63,1,,,,,,,,
,,,,,,,,,,,,,FF,,,,,,,,0.5179,,,,,,,,,,,,,,,,,,,,,,5ed17af75957f60d040e3f34,61036db916c09a78a6b32e9b,2021-07-29_23h14.17.682,Simcolourproject_2stim_asymm_v5,2020.2.10,Win32,60,61025ae37ef11b136ea224fe,,,,,,,,,2628,46,29,1,0,0,response1disk,,6,-13,-5,1,0,0,rectangle,-13,-5,1,0,0,-13,-5,1,0,0,0,131,131,104,1,,,,,,,,
,,,,,,,,,,,,,FF,,,,,,,,0.6175,,,,,,,,,,,,,,,,,,,,,,5ed17af75957f60d040e3f34,61036db916c09a78a6b32e9b,2021-07-29_23h14.17.682,Simcolourproject_2stim_asymm_v5,2020.2.10,Win32,60,61025ae37ef11b136ea224fe,,,,,,,,,4147,-52,61,1,0,0,response7disk,,0,-5,-11,1,0,0,rectangle,-5,-11,1,0,0,-5,-11,1,0,0,0,132,132,21,1,,,,,,,,
,,,,,,,,,,,,,FF,,,,,,,,0.5009,,,,,,,,,,,,,,,,,,,,,,5ed17af75957f60d040e3f34,61036db916c09a78a6b32e9b,2021-07-29_23h14.17.682,Simcolourproject_2stim_asymm_v5,2020.2.10,Win32,60,61025ae37ef11b136ea224fe,,,,,,,,,2775,-29,69,1,0,0,response7disk,,0,-24,-17,1,0,0,rectangle,-24,-17,1,0,0,-24,-17,1,0,0,0,133,133,110,1,,,,,,,,
,,,,,,,,,,,,,FF,,,,,,,,0.8675,,,,,,,,,,,,,,,,,,,,,,5ed17af75957f60d040e3f34,61036db916c09a78a6b32e9b,2021-07-29_23h14.17.682,Simcolourproject_2stim_asymm_v5,2020.2.10,Win32,60,61025ae37ef11b136ea224fe,,,,,,,,,2089,63,-52,1,0,0,response3disk,,5,-22,-5,1,0,0,rectangle,-22,-5,1,0,0,-22,-5,1,0,0,0,134,134,84,1,,,,,,,,
,,,,,,,,,,,,,FF,,,,,,,,0.5674,,,,,,,,,,,,,,,,,,,,,,5ed17af75957f60d040e3f34,61036db916c09a78a6b32e9b,2021-07-29_23h14.17.682,Simcolourproject_2stim_asymm_v5,2020.2.10,Win32,60,61025ae37ef11b136ea224fe,,,,,,,,,4251,-50,86,1,0,0,response7disk,,0,-4,-8,1,0,0,rectangle,-4,-8,1,0,0,-4,-8,1,0,0,0,135,135,119,1,,,,,,,,
,,,,,,,,,,,,,FF,,,,,,,,1.0013,,,,,,,,,,,,,,,,,,,,,,5ed17af75957f60d040e3f34,61036db916c09a78a6b32e9b,2021-07-29_23h14.17.682,Simcolourproject_2stim_asymm_v5,2020.2.10,Win32,60,61025ae37ef11b136ea224fe,,,,,,,,,954,60,51,1,0,0,response1disk,,6,13,4,1,0,0,rectangle,13,4,1,0,0,13,4,1,0,0,0,136,136,22,1,,,,,,,,
,,,,,,,,,,,,,FF,,,,,,,,0.6847,,,,,,,,,,,,,,,,,,,,,,5ed17af75957f60d040e3f34,61036db916c09a78a6b32e9b,2021-07-29_23h14.17.682,Simcolourproject_2stim_asymm_v5,2020.2.10,Win32,60,61025ae37ef11b136ea224fe,,,,,,,,,3455,45,28,1,0,0,response1disk,,6,16,-12,1,0,0,rectangle,16,-12,1,0,0,16,-12,1,0,0,0,137,137,32,1,,,,,,,,
,,,,,,,,,,,,,FF,,,,,,,,0.4838,,,,,,,,,,,,,,,,,,,,,,5ed17af75957f60d040e3f34,61036db916c09a78a6b32e9b,2021-07-29_23h14.17.682,Simcolourproject_2stim_asymm_v5,2020.2.10,Win32,60,61025ae37ef11b136ea224fe,,,,,,,,,2870,85,42,1,0,0,response1disk,,6,-6,4,1,0,0,rectangle,-6,4,1,0,0,-6,4,1,0,0,0,138,138,55,1,,,,,,,,
,,,,,,,,,,,,,FF,,,,,,,,0.451,,,,,,,,,,,,,,,,,,,,,,5ed17af75957f60d040e3f34,61036db916c09a78a6b32e9b,2021-07-29_23h14.17.682,Simcolourproject_2stim_asymm_v5,2020.2.10,Win32,60,61025ae37ef11b136ea224fe,,,,,,,,,474,65,-38,1,0,0,response3disk,,5,-7,0,1,0,0,rectangle,-7,0,1,0,0,-7,0,1,0,0,0,139,139,102,1,,,,,,,,
,,,,,,,,,,,,,FF,,,,,,,,0.5842,,,,,,,,,,,,,,,,,,,,,,5ed17af75957f60d040e3f34,61036db916c09a78a6b32e9b,2021-07-29_23h14.17.682,Simcolourproject_2stim_asymm_v5,2020.2.10,Win32,60,61025ae37ef11b136ea224fe,,,,,,,,,319,63,36,1,0,0,response1disk,,6,8,-2,1,0,0,rectangle,8,-2,1,0,0,8,-2,1,0,0,0,140,140,77,1,,,,,,,,
,,,,,,,,,,,,,FF,,,,,,,,0.9014,,,,,,,,,,,,,,,,,,,,,,5ed17af75957f60d040e3f34,61036db916c09a78a6b32e9b,2021-07-29_23h14.17.682,Simcolourproject_2stim_asymm_v5,2020.2.10,Win32,60,61025ae37ef11b136ea224fe,,,,,,,,,792,93,-41,1,0,0,response3disk,,5,5,-2,1,0,0,rectangle,5,-2,1,0,0,5,-2,1,0,0,0,141,141,59,1,,,,,,,,
,,,,,,,,,,,,,FF,,,,,,,,0.5839,,,,,,,,,,,,,,,,,,,,,,5ed17af75957f60d040e3f34,61036db916c09a78a6b32e9b,2021-07-29_23h14.17.682,Simcolourproject_2stim_asymm_v5,2020.2.10,Win32,60,61025ae37ef11b136ea224fe,,,,,,,,,521,82,46,1,0,0,response1disk,,6,17,-1,1,0,0,rectangle,17,-1,1,0,0,17,-1,1,0,0,0,142,142,144,1,,,,,,,,
,,,,,,,,,,,,,FF,,,,,,,,0.8344,,,,,,,,,,,,,,,,,,,,,,5ed17af75957f60d040e3f34,61036db916c09a78a6b32e9b,2021-07-29_23h14.17.682,Simcolourproject_2stim_asymm_v5,2020.2.10,Win32,60,61025ae37ef11b136ea224fe,,,,,,,,,2891,-75,25,1,0,0,response7disk,,1,4,-2,1,0,0,rectangle,4,-2,1,0,0,4,-2,1,0,0,0,143,143,3,1,,,,,,,,
,,,,,,,,,,,,,FF,,,,,,,,0.584,,,,,,,,,,,,,,,,,,,,,,5ed17af75957f60d040e3f34,61036db916c09a78a6b32e9b,2021-07-29_23h14.17.682,Simcolourproject_2stim_asymm_v5,2020.2.10,Win32,60,61025ae37ef11b136ea224fe,,,,,,,,,1007,91,44,1,0,0,response1disk,,6,12,-3,1,0,0,rectangle,12,-3,1,0,0,12,-3,1,0,0,0,144,144,62,1,,,,,,,,
,,,,,,,,,,,,,FF,,,,,,,,0.5004,,,,,,,,,,,,,,,,,,,,,,5ed17af75957f60d040e3f34,61036db916c09a78a6b32e9b,2021-07-29_23h14.17.682,Simcolourproject_2stim_asymm_v5,2020.2.10,Win32,60,61025ae37ef11b136ea224fe,,,,,,,,,3790,84,28,1,0,0,response1disk,,6,15,1,1,0,0,rectangle,15,1,1,0,0,15,1,1,0,0,0,145,145,2,1,,,,,,,,
,,,,,,,,,,,,,FF,,,,,,,,0.4667,,,,,,,,,,,,,,,,,,,,,,5ed17af75957f60d040e3f34,61036db916c09a78a6b32e9b,2021-07-29_23h14.17.682,Simcolourproject_2stim_asymm_v5,2020.2.10,Win32,60,61025ae37ef11b136ea224fe,,,,,,,,,1409,84,-37,1,0,0,response3disk,,5,23,-6,1,0,0,rectangle,23,-6,1,0,0,23,-6,1,0,0,0,146,146,46,1,,,,,,,,
,,,,,,,,,,,,,FF,,,,,,,,0.8844,,,,,,,,,,,,,,,,,,,,,,5ed17af75957f60d040e3f34,61036db916c09a78a6b32e9b,2021-07-29_23h14.17.682,Simcolourproject_2stim_asymm_v5,2020.2.10,Win32,60,61025ae37ef11b136ea224fe,,,,,,,,,2904,71,-32,1,0,0,response3disk,,5,8,-5,1,0,0,rectangle,8,-5,1,0,0,8,-5,1,0,0,0,147,147,159,1,,,,,,,,
,,,,,,,,,,,,,FF,,,,,,,,0.7175,,,,,,,,,,,,,,,,,,,,,,5ed17af75957f60d040e3f34,61036db916c09a78a6b32e9b,2021-07-29_23h14.17.682,Simcolourproject_2stim_asymm_v5,2020.2.10,Win32,60,61025ae37ef11b136ea224fe,,,,,,,,,915,51,-66,1,0,0,response3disk,,4,-7,-3,1,0,0,rectangle,-7,-3,1,0,0,-7,-3,1,0,0,0,148,148,95,1,,,,,,,,
,,,,,,,,,,,,,FF,,,,,,,,0.8342,,,,,,,,,,,,,,,,,,,,,,5ed17af75957f60d040e3f34,61036db916c09a78a6b32e9b,2021-07-29_23h14.17.682,Simcolourproject_2stim_asymm_v5,2020.2.10,Win32,60,61025ae37ef11b136ea224fe,,,,,,,,,3301,-57,-33,1,0,0,response5disk,,2,17,8,1,0,0,rectangle,17,8,1,0,0,17,8,1,0,0,0,149,149,27,1,,,,,,,,
,,,,,,,,,,,,,FF,,,,,,,,0.5341,,,,,,,,,,,,,,,,,,,,,,5ed17af75957f60d040e3f34,61036db916c09a78a6b32e9b,2021-07-29_23h14.17.682,Simcolourproject_2stim_asymm_v5,2020.2.10,Win32,60,61025ae37ef11b136ea224fe,,,,,,,,,3090,-77,31,1,0,0,response7disk,,1,-21,3,1,0,0,rectangle,-21,3,1,0,0,-21,3,1,0,0,0,150,150,73,1,,,,,,,,
,,,,,,,,,,,,,FF,,,,,,,,0.8846,,,,,,,,,,,,,,,,,,,,,,5ed17af75957f60d040e3f34,61036db916c09a78a6b32e9b,2021-07-29_23h14.17.682,Simcolourproject_2stim_asymm_v5,2020.2.10,Win32,60,61025ae37ef11b136ea224fe,,,,,,,,,1842,57,25,1,0,0,response1disk,,6,1,-7,1,0,0,rectangle,1,-7,1,0,0,1,-7,1,0,0,0,151,151,7,1,,,,,,,,
,,,,,,,,,,,,,FF,,,,,,,,1.1021,,,,,,,,,,,,,,,,,,,,,,5ed17af75957f60d040e3f34,61036db916c09a78a6b32e9b,2021-07-29_23h14.17.682,Simcolourproject_2stim_asymm_v5,2020.2.10,Win32,60,61025ae37ef11b136ea224fe,,,,,,,,,3386,-78,51,1,0,0,response7disk,,1,-5,15,1,0,0,rectangle,-5,15,1,0,0,-5,15,1,0,0,0,152,152,103,1,,,,,,,,
,,,,,,,,,,,,,FF,,,,,,,,0.6507,,,,,,,,,,,,,,,,,,,,,,5ed17af75957f60d040e3f34,61036db916c09a78a6b32e9b,2021-07-29_23h14.17.682,Simcolourproject_2stim_asymm_v5,2020.2.10,Win32,60,61025ae37ef11b136ea224fe,,,,,,,,,2958,100,32,1,0,0,response1disk,,6,-11,-1,1,0,0,rectangle,-11,-1,1,0,0,-11,-1,1,0,0,0,153,153,140,1,,,,,,,,
,,,,,,,,,,,,,FF,,,,,,,,0.7348,,,,,,,,,,,,,,,,,,,,,,5ed17af75957f60d040e3f34,61036db916c09a78a6b32e9b,2021-07-29_23h14.17.682,Simcolourproject_2stim_asymm_v5,2020.2.10,Win32,60,61025ae37ef11b136ea224fe,,,,,,,,,678,64,58,1,0,0,response1disk,,6,-24,-15,1,0,0,rectangle,-24,-15,1,0,0,-24,-15,1,0,0,0,154,154,39,1,,,,,,,,
,,,,,,,,,,,,,FF,,,,,,,,1.8194,,,,,,,,,,,,,,,,,,,,,,5ed17af75957f60d040e3f34,61036db916c09a78a6b32e9b,2021-07-29_23h14.17.682,Simcolourproject_2stim_asymm_v5,2020.2.10,Win32,60,61025ae37ef11b136ea224fe,,,,,,,,,229,71,-44,1,0,0,response3disk,,5,15,-12,1,0,0,rectangle,15,-12,1,0,0,15,-12,1,0,0,0,155,155,129,1,,,,,,,,
,,,,,,,,,,,,,FF,,,,,,,,1.7361,,,,,,,,,,,,,,,,,,,,,,5ed17af75957f60d040e3f34,61036db916c09a78a6b32e9b,2021-07-29_23h14.17.682,Simcolourproject_2stim_asymm_v5,2020.2.10,Win32,60,61025ae37ef11b136ea224fe,,,,,,,,,1827,-53,-38,1,0,0,response5disk,,2,-3,-6,1,0,0,rectangle,-3,-6,1,0,0,-3,-6,1,0,0,0,156,156,90,1,,,,,,,,
,,,,,,,,,,,,,FF,,,,,,,,1.2684,,,,,,,,,,,,,,,,,,,,,,5ed17af75957f60d040e3f34,61036db916c09a78a6b32e9b,2021-07-29_23h14.17.682,Simcolourproject_2stim_asymm_v5,2020.2.10,Win32,60,61025ae37ef11b136ea224fe,,,,,,,,,2599,67,-47,1,0,0,response3disk,,5,2,-2,1,0,0,rectangle,2,-2,1,0,0,2,-2,1,0,0,0,157,157,109,1,,,,,,,,
,,,,,,,,,,,,,FF,,,,,,,,1.0013,,,,,,,,,,,,,,,,,,,,,,5ed17af75957f60d040e3f34,61036db916c09a78a6b32e9b,2021-07-29_23h14.17.682,Simcolourproject_2stim_asymm_v5,2020.2.10,Win32,60,61025ae37ef11b136ea224fe,,,,,,,,,197,-74,38,1,0,0,response7disk,,1,-1,-10,1,0,0,rectangle,-1,-10,1,0,0,-1,-10,1,0,0,0,158,158,13,1,,,,,,,,
,,,,,,,,,,,,,FF,,,,,,,,1.0013,,,,,,,,,,,,,,,,,,,,,,5ed17af75957f60d040e3f34,61036db916c09a78a6b32e9b,2021-07-29_23h14.17.682,Simcolourproject_2stim_asymm_v5,2020.2.10,Win32,60,61025ae37ef11b136ea224fe,,,,,,,,,2993,-28,68,1,0,0,response7disk,,0,17,2,1,0,0,rectangle,17,2,1,0,0,17,2,1,0,0,0,159,159,74,1,,,,,,,,
,,,,,,,,,,,,,FF,,,,,,,,0.5338,,,,,,,,,,,,,,,,,,,,,,5ed17af75957f60d040e3f34,61036db916c09a78a6b32e9b,2021-07-29_23h14.17.682,Simcolourproject_2stim_asymm_v5,2020.2.10,Win32,60,61025ae37ef11b136ea224fe,,,,,,,,,2880,79,44,1,0,0,response1disk,,6,-6,5,1,0,0,rectangle,-6,5,1,0,0,-6,5,1,0,0,1,0,160,65,1,,,,,,,,
,,,,,,,,,,,,,FF,,,,,,,,0.7511,,,,,,,,,,,,,,,,,,,,,,5ed17af75957f60d040e3f34,61036db916c09a78a6b32e9b,2021-07-29_23h14.17.682,Simcolourproject_2stim_asymm_v5,2020.2.10,Win32,60,61025ae37ef11b136ea224fe,,,,,,,,,660,-69,36,1,0,0,response7disk,,1,-3,-7,1,0,0,rectangle,96,34,1,0,0,0,-9,1,0,0,1,1,161,46,1,,response1disk_3,TRUE,6,6,"[4,215,258,285,108,186,115,308,301,98,162,172,300,92,36,261,202,34,167,57]",1.1851,rectangle
,,,,,,,,,,,,,FF,,,,,,,,0.6173,,,,,,,,,,,,,,,,,,,,,,5ed17af75957f60d040e3f34,61036db916c09a78a6b32e9b,2021-07-29_23h14.17.682,Simcolourproject_2stim_asymm_v5,2020.2.10,Win32,60,61025ae37ef11b136ea224fe,,,,,,,,,730,54,33,1,0,0,response1disk,,6,11,-3,1,0,0,rectangle,11,-3,1,0,0,11,-3,1,0,0,1,2,162,158,1,,,,,,,,
,,,,,,,,,,,,,FF,,,,,,,,1.1183,,,,,,,,,,,,,,,,,,,,,,5ed17af75957f60d040e3f34,61036db916c09a78a6b32e9b,2021-07-29_23h14.17.682,Simcolourproject_2stim_asymm_v5,2020.2.10,Win32,60,61025ae37ef11b136ea224fe,,,,,,,,,1906,-79,-34,1,0,0,response5disk,,2,-16,1,1,0,0,rectangle,-16,1,1,0,0,-16,1,1,0,0,1,3,163,40,1,,,,,,,,
,,,,,,,,,,,,,FF,,,,,,,,1.3182,,,,,,,,,,,,,,,,,,,,,,5ed17af75957f60d040e3f34,61036db916c09a78a6b32e9b,2021-07-29_23h14.17.682,Simcolourproject_2stim_asymm_v5,2020.2.10,Win32,60,61025ae37ef11b136ea224fe,,,,,,,,,2204,90,37,1,0,0,response1disk,,6,-22,-6,1,0,0,rectangle,-22,-6,1,0,0,-22,-6,1,0,0,1,4,164,145,1,,,,,,,,
,,,,,,,,,,,,,FF,,,,,,,,0.7178,,,,,,,,,,,,,,,,,,,,,,5ed17af75957f60d040e3f34,61036db916c09a78a6b32e9b,2021-07-29_23h14.17.682,Simcolourproject_2stim_asymm_v5,2020.2.10,Win32,60,61025ae37ef11b136ea224fe,,,,,,,,,2535,68,98,1,0,0,response1disk,,7,19,8,1,0,0,rectangle,19,8,1,0,0,19,8,1,0,0,1,5,165,126,1,,,,,,,,
,,,,,,,,,,,,,FF,,,,,,,,0.7516,,,,,,,,,,,,,,,,,,,,,,5ed17af75957f60d040e3f34,61036db916c09a78a6b32e9b,2021-07-29_23h14.17.682,Simcolourproject_2stim_asymm_v5,2020.2.10,Win32,60,61025ae37ef11b136ea224fe,,,,,,,,,2894,-45,69,1,0,0,response7disk,,0,9,1,1,0,0,rectangle,-38,-86,1,0,0,0,-12,1,0,0,1,6,166,80,1,,response5disk_3,TRUE,3,3,"[4,215,258,285,108,186,115,308,301,98,162,172,300,92,36,261,202,34,167,57]",1.62,rectangle
,,,,,,,,,,,,,FF,,,,,,,,0.7675,,,,,,,,,,,,,,,,,,,,,,5ed17af75957f60d040e3f34,61036db916c09a78a6b32e9b,2021-07-29_23h14.17.682,Simcolourproject_2stim_asymm_v5,2020.2.10,Win32,60,61025ae37ef11b136ea224fe,,,,,,,,,2333,82,-49,1,0,0,response3disk,,5,8,2,1,0,0,rectangle,8,2,1,0,0,8,2,1,0,0,1,7,167,28,1,,,,,,,,
,,,,,,,,,,,,,FF,,,,,,,,0.4504,,,,,,,,,,,,,,,,,,,,,,5ed17af75957f60d040e3f34,61036db916c09a78a6b32e9b,2021-07-29_23h14.17.682,Simcolourproject_2stim_asymm_v5,2020.2.10,Win32,60,61025ae37ef11b136ea224fe,,,,,,,,,3228,118,48,1,0,0,response1disk,,6,-9,-5,1,0,0,rectangle,-9,-5,1,0,0,-9,-5,1,0,0,1,8,168,104,1,,,,,,,,
,,,,,,,,,,,,,FF,,,,,,,,0.5001,,,,,,,,,,,,,,,,,,,,,,5ed17af75957f60d040e3f34,61036db916c09a78a6b32e9b,2021-07-29_23h14.17.682,Simcolourproject_2stim_asymm_v5,2020.2.10,Win32,60,61025ae37ef11b136ea224fe,,,,,,,,,1108,92,41,1,0,0,response1disk,,6,1,-4,1,0,0,rectangle,1,-4,1,0,0,1,-4,1,0,0,1,9,169,70,1,,,,,,,,
,,,,,,,,,,,,,FF,,,,,,,,0.5338,,,,,,,,,,,,,,,,,,,,,,5ed17af75957f60d040e3f34,61036db916c09a78a6b32e9b,2021-07-29_23h14.17.682,Simcolourproject_2stim_asymm_v5,2020.2.10,Win32,60,61025ae37ef11b136ea224fe,,,,,,,,,2156,86,-44,1,0,0,response3disk,,5,9,-8,1,0,0,rectangle,9,-8,1,0,0,9,-8,1,0,0,1,10,170,51,1,,,,,,,,
,,,,,,,,,,,,,FF,,,,,,,,0.6509,,,,,,,,,,,,,,,,,,,,,,5ed17af75957f60d040e3f34,61036db916c09a78a6b32e9b,2021-07-29_23h14.17.682,Simcolourproject_2stim_asymm_v5,2020.2.10,Win32,60,61025ae37ef11b136ea224fe,,,,,,,,,3132,72,29,1,0,0,response1disk,,6,-8,-5,1,0,0,rectangle,37,97,1,0,0,7,-4,1,0,0,1,11,171,43,1,,response1disk_3,TRUE,7,7,"[4,215,258,285,108,186,115,308,301,98,162,172,300,92,36,261,202,34,167,57]",1.1353,rectangle
,,,,,,,,,,,,,FF,,,,,,,,0.5674,,,,,,,,,,,,,,,,,,,,,,5ed17af75957f60d040e3f34,61036db916c09a78a6b32e9b,2021-07-29_23h14.17.682,Simcolourproject_2stim_asymm_v5,2020.2.10,Win32,60,61025ae37ef11b136ea224fe,,,,,,,,,4265,108,33,1,0,0,response1disk,,6,-1,-7,1,0,0,rectangle,-1,-7,1,0,0,-1,-7,1,0,0,1,12,172,103,1,,,,,,,,
,,,,,,,,,,,,,FF,,,,,,,,0.7847,,,,,,,,,,,,,,,,,,,,,,5ed17af75957f60d040e3f34,61036db916c09a78a6b32e9b,2021-07-29_23h14.17.682,Simcolourproject_2stim_asymm_v5,2020.2.10,Win32,60,61025ae37ef11b136ea224fe,,,,,,,,,309,76,-47,1,0,0,response3disk,,5,9,3,1,0,0,rectangle,9,3,1,0,0,9,3,1,0,0,1,13,173,2,1,,,,,,,,
,,,,,,,,,,,,,FF,,,,,,,,0.9179,,,,,,,,,,,,,,,,,,,,,,5ed17af75957f60d040e3f34,61036db916c09a78a6b32e9b,2021-07-29_23h14.17.682,Simcolourproject_2stim_asymm_v5,2020.2.10,Win32,60,61025ae37ef11b136ea224fe,,,,,,,,,4328,-52,47,1,0,0,response7disk,,1,8,2,1,0,0,rectangle,8,2,1,0,0,8,2,1,0,0,1,14,174,148,1,,,,,,,,
,,,,,,,,,,,,,FF,,,,,,,,0.9349,,,,,,,,,,,,,,,,,,,,,,5ed17af75957f60d040e3f34,61036db916c09a78a6b32e9b,2021-07-29_23h14.17.682,Simcolourproject_2stim_asymm_v5,2020.2.10,Win32,60,61025ae37ef11b136ea224fe,,,,,,,,,3546,-81,32,1,0,0,response7disk,,1,-4,4,1,0,0,rectangle,-4,4,1,0,0,-4,4,1,0,0,1,15,175,55,1,,,,,,,,
,,,,,,,,,,,,,FF,,,,,,,,0.6848,,,,,,,,,,,,,,,,,,,,,,5ed17af75957f60d040e3f34,61036db916c09a78a6b32e9b,2021-07-29_23h14.17.682,Simcolourproject_2stim_asymm_v5,2020.2.10,Win32,60,61025ae37ef11b136ea224fe,,,,,,,,,1892,-21,88,1,0,0,response7disk,,0,19,7,1,0,0,rectangle,19,7,1,0,0,19,7,1,0,0,1,16,176,82,1,,,,,,,,
,,,,,,,,,,,,,FF,,,,,,,,0.6842,,,,,,,,,,,,,,,,,,,,,,5ed17af75957f60d040e3f34,61036db916c09a78a6b32e9b,2021-07-29_23h14.17.682,Simcolourproject_2stim_asymm_v5,2020.2.10,Win32,60,61025ae37ef11b136ea224fe,,,,,,,,,2250,41,-87,1,0,0,response3disk,,4,-10,0,1,0,0,rectangle,-10,0,1,0,0,-10,0,1,0,0,1,17,177,26,1,,,,,,,,
,,,,,,,,,,,,,FF,,,,,,,,0.501,,,,,,,,,,,,,,,,,,,,,,5ed17af75957f60d040e3f34,61036db916c09a78a6b32e9b,2021-07-29_23h14.17.682,Simcolourproject_2stim_asymm_v5,2020.2.10,Win32,60,61025ae37ef11b136ea224fe,,,,,,,,,1790,84,-51,1,0,0,response3disk,,5,6,-6,1,0,0,rectangle,6,-6,1,0,0,6,-6,1,0,0,1,18,178,33,1,,,,,,,,
,,,,,,,,,,,,,FF,,,,,,,,1.0518,,,,,,,,,,,,,,,,,,,,,,5ed17af75957f60d040e3f34,61036db916c09a78a6b32e9b,2021-07-29_23h14.17.682,Simcolourproject_2stim_asymm_v5,2020.2.10,Win32,60,61025ae37ef11b136ea224fe,,,,,,,,,3365,92,44,1,0,0,response1disk,,6,15,5,1,0,0,rectangle,15,5,1,0,0,15,5,1,0,0,1,19,179,124,1,,,,,,,,
,,,,,,,,,,,,,FF,,,,,,,,1.035,,,,,,,,,,,,,,,,,,,,,,5ed17af75957f60d040e3f34,61036db916c09a78a6b32e9b,2021-07-29_23h14.17.682,Simcolourproject_2stim_asymm_v5,2020.2.10,Win32,60,61025ae37ef11b136ea224fe,,,,,,,,,424,66,-37,1,0,0,response3disk,,5,-1,-7,1,0,0,rectangle,-1,-7,1,0,0,-1,-7,1,0,0,1,20,180,29,1,,,,,,,,
,,,,,,,,,,,,,FF,,,,,,,,1.4356,,,,,,,,,,,,,,,,,,,,,,5ed17af75957f60d040e3f34,61036db916c09a78a6b32e9b,2021-07-29_23h14.17.682,Simcolourproject_2stim_asymm_v5,2020.2.10,Win32,60,61025ae37ef11b136ea224fe,,,,,,,,,763,62,18,1,0,0,response1disk,,6,14,-5,1,0,0,rectangle,14,-5,1,0,0,14,-5,1,0,0,1,21,181,16,1,,,,,,,,
,,,,,,,,,,,,,FF,,,,,,,,0.584,,,,,,,,,,,,,,,,,,,,,,5ed17af75957f60d040e3f34,61036db916c09a78a6b32e9b,2021-07-29_23h14.17.682,Simcolourproject_2stim_asymm_v5,2020.2.10,Win32,60,61025ae37ef11b136ea224fe,,,,,,,,,11,-26,-65,1,0,0,response5disk,,3,16,2,1,0,0,rectangle,16,2,1,0,0,16,2,1,0,0,1,22,182,73,1,,,,,,,,
,,,,,,,,,,,,,FF,,,,,,,,0.6843,,,,,,,,,,,,,,,,,,,,,,5ed17af75957f60d040e3f34,61036db916c09a78a6b32e9b,2021-07-29_23h14.17.682,Simcolourproject_2stim_asymm_v5,2020.2.10,Win32,60,61025ae37ef11b136ea224fe,,,,,,,,,3700,-46,-70,1,0,0,response5disk,,3,-4,-5,1,0,0,rectangle,-4,-5,1,0,0,-4,-5,1,0,0,1,23,183,112,1,,,,,,,,
,,,,,,,,,,,,,FF,,,,,,,,0.6508,,,,,,,,,,,,,,,,,,,,,,5ed17af75957f60d040e3f34,61036db916c09a78a6b32e9b,2021-07-29_23h14.17.682,Simcolourproject_2stim_asymm_v5,2020.2.10,Win32,60,61025ae37ef11b136ea224fe,,,,,,,,,717,-35,94,1,0,0,response7disk,,0,-6,9,1,0,0,rectangle,-6,9,1,0,0,-6,9,1,0,0,1,24,184,90,1,,,,,,,,
,,,,,,,,,,,,,FF,,,,,,,,0.9513,,,,,,,,,,,,,,,,,,,,,,5ed17af75957f60d040e3f34,61036db916c09a78a6b32e9b,2021-07-29_23h14.17.682,Simcolourproject_2stim_asymm_v5,2020.2.10,Win32,60,61025ae37ef11b136ea224fe,,,,,,,,,4032,-76,-38,1,0,0,response5disk,,2,-8,2,1,0,0,rectangle,102,49,1,0,0,17,-6,1,0,0,1,25,185,137,1,,response1disk_3,TRUE,6,6,"[4,215,258,285,108,186,115,308,301,98,162,172,300,92,36,261,202,34,167,57]",1.1856,rectangle
,,,,,,,,,,,,,FF,,,,,,,,0.6178,,,,,,,,,,,,,,,,,,,,,,5ed17af75957f60d040e3f34,61036db916c09a78a6b32e9b,2021-07-29_23h14.17.682,Simcolourproject_2stim_asymm_v5,2020.2.10,Win32,60,61025ae37ef11b136ea224fe,,,,,,,,,2375,75,-42,1,0,0,response3disk,,5,19,-16,1,0,0,rectangle,19,-16,1,0,0,19,-16,1,0,0,1,26,186,146,1,,,,,,,,
,,,,,,,,,,,,,FF,,,,,,,,0.5675,,,,,,,,,,,,,,,,,,,,,,5ed17af75957f60d040e3f34,61036db916c09a78a6b32e9b,2021-07-29_23h14.17.682,Simcolourproject_2stim_asymm_v5,2020.2.10,Win32,60,61025ae37ef11b136ea224fe,,,,,,,,,3620,70,70,1,0,0,response1disk,,7,2,11,1,0,0,rectangle,2,11,1,0,0,2,11,1,0,0,1,27,187,125,1,,,,,,,,
,,,,,,,,,,,,,FF,,,,,,,,0.7678,,,,,,,,,,,,,,,,,,,,,,5ed17af75957f60d040e3f34,61036db916c09a78a6b32e9b,2021-07-29_23h14.17.682,Simcolourproject_2stim_asymm_v5,2020.2.10,Win32,60,61025ae37ef11b136ea224fe,,,,,,,,,1308,-72,94,1,0,0,response7disk,,0,-6,3,1,0,0,rectangle,-6,3,1,0,0,-6,3,1,0,0,1,28,188,110,1,,,,,,,,
,,,,,,,,,,,,,FF,,,,,,,,0.5341,,,,,,,,,,,,,,,,,,,,,,5ed17af75957f60d040e3f34,61036db916c09a78a6b32e9b,2021-07-29_23h14.17.682,Simcolourproject_2stim_asymm_v5,2020.2.10,Win32,60,61025ae37ef11b136ea224fe,,,,,,,,,866,92,43,1,0,0,response1disk,,6,11,5,1,0,0,rectangle,11,5,1,0,0,11,5,1,0,0,1,29,189,11,1,,,,,,,,
,,,,,,,,,,,,,FF,,,,,,,,2.8881,,,,,,,,,,,,,,,,,,,,,,5ed17af75957f60d040e3f34,61036db916c09a78a6b32e9b,2021-07-29_23h14.17.682,Simcolourproject_2stim_asymm_v5,2020.2.10,Win32,60,61025ae37ef11b136ea224fe,,,,,,,,,980,100,-56,1,0,0,response3disk,,5,4,5,1,0,0,rectangle,4,5,1,0,0,4,5,1,0,0,1,30,190,139,1,,,,,,,,
,,,,,,,,,,,,,FF,,,,,,,,0.5003,,,,,,,,,,,,,,,,,,,,,,5ed17af75957f60d040e3f34,61036db916c09a78a6b32e9b,2021-07-29_23h14.17.682,Simcolourproject_2stim_asymm_v5,2020.2.10,Win32,60,61025ae37ef11b136ea224fe,,,,,,,,,227,81,53,1,0,0,response1disk,,6,-17,-1,1,0,0,rectangle,-17,-1,1,0,0,-17,-1,1,0,0,1,31,191,69,1,,,,,,,,
,,,,,,,,,,,,,FF,,,,,,,,0.8342,,,,,,,,,,,,,,,,,,,,,,5ed17af75957f60d040e3f34,61036db916c09a78a6b32e9b,2021-07-29_23h14.17.682,Simcolourproject_2stim_asymm_v5,2020.2.10,Win32,60,61025ae37ef11b136ea224fe,,,,,,,,,2536,72,-63,1,0,0,response3disk,,5,-1,-7,1,0,0,rectangle,-1,-7,1,0,0,-1,-7,1,0,0,1,32,192,117,1,,,,,,,,
,,,,,,,,,,,,,FF,,,,,,,,0.618,,,,,,,,,,,,,,,,,,,,,,5ed17af75957f60d040e3f34,61036db916c09a78a6b32e9b,2021-07-29_23h14.17.682,Simcolourproject_2stim_asymm_v5,2020.2.10,Win32,60,61025ae37ef11b136ea224fe,,,,,,,,,2805,57,-87,1,0,0,response3disk,,4,-13,-8,1,0,0,rectangle,-13,-8,1,0,0,-13,-8,1,0,0,1,33,193,84,1,,,,,,,,
,,,,,,,,,,,,,FF,,,,,,,,0.5507,,,,,,,,,,,,,,,,,,,,,,5ed17af75957f60d040e3f34,61036db916c09a78a6b32e9b,2021-07-29_23h14.17.682,Simcolourproject_2stim_asymm_v5,2020.2.10,Win32,60,61025ae37ef11b136ea224fe,,,,,,,,,126,74,54,1,0,0,response1disk,,6,10,1,1,0,0,rectangle,10,1,1,0,0,10,1,1,0,0,1,34,194,10,1,,,,,,,,
,,,,,,,,,,,,,FF,,,,,,,,0.467,,,,,,,,,,,,,,,,,,,,,,5ed17af75957f60d040e3f34,61036db916c09a78a6b32e9b,2021-07-29_23h14.17.682,Simcolourproject_2stim_asymm_v5,2020.2.10,Win32,60,61025ae37ef11b136ea224fe,,,,,,,,,2127,120,-38,1,0,0,response3disk,,5,5,-8,1,0,0,rectangle,5,-8,1,0,0,5,-8,1,0,0,1,35,195,71,1,,,,,,,,
,,,,,,,,,,,,,FF,,,,,,,,0.5003,,,,,,,,,,,,,,,,,,,,,,5ed17af75957f60d040e3f34,61036db916c09a78a6b32e9b,2021-07-29_23h14.17.682,Simcolourproject_2stim_asymm_v5,2020.2.10,Win32,60,61025ae37ef11b136ea224fe,,,,,,,,,2060,56,61,1,0,0,response1disk,,7,2,6,1,0,0,rectangle,2,6,1,0,0,2,6,1,0,0,1,36,196,131,1,,,,,,,,
,,,,,,,,,,,,,FF,,,,,,,,0.5675,,,,,,,,,,,,,,,,,,,,,,5ed17af75957f60d040e3f34,61036db916c09a78a6b32e9b,2021-07-29_23h14.17.682,Simcolourproject_2stim_asymm_v5,2020.2.10,Win32,60,61025ae37ef11b136ea224fe,,,,,,,,,3352,55,84,1,0,0,response1disk,,7,8,3,1,0,0,rectangle,8,3,1,0,0,8,3,1,0,0,1,37,197,155,1,,,,,,,,
,,,,,,,,,,,,,FF,,,,,,,,0.6337,,,,,,,,,,,,,,,,,,,,,,5ed17af75957f60d040e3f34,61036db916c09a78a6b32e9b,2021-07-29_23h14.17.682,Simcolourproject_2stim_asymm_v5,2020.2.10,Win32,60,61025ae37ef11b136ea224fe,,,,,,,,,2467,69,42,1,0,0,response1disk,,6,-4,2,1,0,0,rectangle,-4,2,1,0,0,-4,2,1,0,0,1,38,198,1,1,,,,,,,,
,,,,,,,,,,,,,FF,,,,,,,,0.9019,,,,,,,,,,,,,,,,,,,,,,5ed17af75957f60d040e3f34,61036db916c09a78a6b32e9b,2021-07-29_23h14.17.682,Simcolourproject_2stim_asymm_v5,2020.2.10,Win32,60,61025ae37ef11b136ea224fe,,,,,,,,,3080,28,-67,1,0,0,response3disk,,4,-11,-1,1,0,0,rectangle,-11,-1,1,0,0,-11,-1,1,0,0,1,39,199,45,1,,,,,,,,
,,,,,,,,,,,,,FF,,,,,,,,0.451,,,,,,,,,,,,,,,,,,,,,,5ed17af75957f60d040e3f34,61036db916c09a78a6b32e9b,2021-07-29_23h14.17.682,Simcolourproject_2stim_asymm_v5,2020.2.10,Win32,60,61025ae37ef11b136ea224fe,,,,,,,,,2115,-35,-52,1,0,0,response5disk,,3,8,10,1,0,0,rectangle,8,10,1,0,0,8,10,1,0,0,1,40,200,81,1,,,,,,,,
,,,,,,,,,,,,,FF,,,,,,,,0.5673,,,,,,,,,,,,,,,,,,,,,,5ed17af75957f60d040e3f34,61036db916c09a78a6b32e9b,2021-07-29_23h14.17.682,Simcolourproject_2stim_asymm_v5,2020.2.10,Win32,60,61025ae37ef11b136ea224fe,,,,,,,,,3508,-49,33,1,0,0,response7disk,,1,6,15,1,0,0,rectangle,37,-81,1,0,0,20,-5,1,0,0,1,41,201,60,1,,response3disk_3,TRUE,4,4,"[4,215,258,285,108,186,115,308,301,98,162,172,300,92,36,261,202,34,167,57]",2.1864,rectangle
,,,,,,,,,,,,,FF,,,,,,,,0.4835,,,,,,,,,,,,,,,,,,,,,,5ed17af75957f60d040e3f34,61036db916c09a78a6b32e9b,2021-07-29_23h14.17.682,Simcolourproject_2stim_asymm_v5,2020.2.10,Win32,60,61025ae37ef11b136ea224fe,,,,,,,,,3453,54,43,1,0,0,response1disk,,6,5,-12,1,0,0,rectangle,5,-12,1,0,0,5,-12,1,0,0,1,42,202,68,1,,,,,,,,
,,,,,,,,,,,,,FF,,,,,,,,0.6509,,,,,,,,,,,,,,,,,,,,,,5ed17af75957f60d040e3f34,61036db916c09a78a6b32e9b,2021-07-29_23h14.17.682,Simcolourproject_2stim_asymm_v5,2020.2.10,Win32,60,61025ae37ef11b136ea224fe,,,,,,,,,75,-49,33,1,0,0,response7disk,,1,12,0,1,0,0,rectangle,12,0,1,0,0,12,0,1,0,0,1,43,203,140,1,,,,,,,,
,,,,,,,,,,,,,FF,,,,,,,,0.5339,,,,,,,,,,,,,,,,,,,,,,5ed17af75957f60d040e3f34,61036db916c09a78a6b32e9b,2021-07-29_23h14.17.682,Simcolourproject_2stim_asymm_v5,2020.2.10,Win32,60,61025ae37ef11b136ea224fe,,,,,,,,,4072,90,-46,1,0,0,response3disk,,5,1,-8,1,0,0,rectangle,1,-8,1,0,0,1,-8,1,0,0,1,44,204,35,1,,,,,,,,
,,,,,,,,,,,,,FF,,,,,,,,0.6676,,,,,,,,,,,,,,,,,,,,,,5ed17af75957f60d040e3f34,61036db916c09a78a6b32e9b,2021-07-29_23h14.17.682,Simcolourproject_2stim_asymm_v5,2020.2.10,Win32,60,61025ae37ef11b136ea224fe,,,,,,,,,2361,-64,108,1,0,0,response7disk,,0,-20,-6,1,0,0,rectangle,-20,-6,1,0,0,-20,-6,1,0,0,1,45,205,18,1,,,,,,,,
,,,,,,,,,,,,,FF,,,,,,,,0.5839,,,,,,,,,,,,,,,,,,,,,,5ed17af75957f60d040e3f34,61036db916c09a78a6b32e9b,2021-07-29_23h14.17.682,Simcolourproject_2stim_asymm_v5,2020.2.10,Win32,60,61025ae37ef11b136ea224fe,,,,,,,,,438,-48,88,1,0,0,response7disk,,0,-4,4,1,0,0,rectangle,-4,4,1,0,0,-4,4,1,0,0,1,46,206,48,1,,,,,,,,
,,,,,,,,,,,,,FF,,,,,,,,1.1191,,,,,,,,,,,,,,,,,,,,,,5ed17af75957f60d040e3f34,61036db916c09a78a6b32e9b,2021-07-29_23h14.17.682,Simcolourproject_2stim_asymm_v5,2020.2.10,Win32,60,61025ae37ef11b136ea224fe,,,,,,,,,1200,-49,-71,1,0,0,response5disk,,3,-9,-3,1,0,0,rectangle,-9,-3,1,0,0,-9,-3,1,0,0,1,47,207,109,1,,,,,,,,
,,,,,,,,,,,,,FF,,,,,,,,0.8848,,,,,,,,,,,,,,,,,,,,,,5ed17af75957f60d040e3f34,61036db916c09a78a6b32e9b,2021-07-29_23h14.17.682,Simcolourproject_2stim_asymm_v5,2020.2.10,Win32,60,61025ae37ef11b136ea224fe,,,,,,,,,1463,-43,-73,1,0,0,response5disk,,3,-3,-3,1,0,0,rectangle,-3,-3,1,0,0,-3,-3,1,0,0,1,48,208,93,1,,,,,,,,
,,,,,,,,,,,,,FF,,,,,,,,0.5003,,,,,,,,,,,,,,,,,,,,,,5ed17af75957f60d040e3f34,61036db916c09a78a6b32e9b,2021-07-29_23h14.17.682,Simcolourproject_2stim_asymm_v5,2020.2.10,Win32,60,61025ae37ef11b136ea224fe,,,,,,,,,459,54,-41,1,0,0,response3disk,,5,-9,-9,1,0,0,rectangle,-9,-9,1,0,0,-9,-9,1,0,0,1,49,209,130,1,,,,,,,,
,,,,,,,,,,,,,FF,,,,,,,,0.6674,,,,,,,,,,,,,,,,,,,,,,5ed17af75957f60d040e3f34,61036db916c09a78a6b32e9b,2021-07-29_23h14.17.682,Simcolourproject_2stim_asymm_v5,2020.2.10,Win32,60,61025ae37ef11b136ea224fe,,,,,,,,,2745,103,-27,1,0,0,response3disk,,5,9,-1,1,0,0,rectangle,9,-1,1,0,0,9,-1,1,0,0,1,50,210,92,1,,,,,,,,
,,,,,,,,,,,,,FF,,,,,,,,1.0014,,,,,,,,,,,,,,,,,,,,,,5ed17af75957f60d040e3f34,61036db916c09a78a6b32e9b,2021-07-29_23h14.17.682,Simcolourproject_2stim_asymm_v5,2020.2.10,Win32,60,61025ae37ef11b136ea224fe,,,,,,,,,4089,-71,39,1,0,0,response7disk,,1,4,8,1,0,0,rectangle,4,8,1,0,0,4,8,1,0,0,1,51,211,79,1,,,,,,,,
,,,,,,,,,,,,,FF,,,,,,,,0.9013,,,,,,,,,,,,,,,,,,,,,,5ed17af75957f60d040e3f34,61036db916c09a78a6b32e9b,2021-07-29_23h14.17.682,Simcolourproject_2stim_asymm_v5,2020.2.10,Win32,60,61025ae37ef11b136ea224fe,,,,,,,,,3987,69,-50,1,0,0,response3disk,,5,-1,12,1,0,0,rectangle,-1,12,1,0,0,-1,12,1,0,0,1,52,212,143,1,,,,,,,,
,,,,,,,,,,,,,FF,,,,,,,,0.6017,,,,,,,,,,,,,,,,,,,,,,5ed17af75957f60d040e3f34,61036db916c09a78a6b32e9b,2021-07-29_23h14.17.682,Simcolourproject_2stim_asymm_v5,2020.2.10,Win32,60,61025ae37ef11b136ea224fe,,,,,,,,,2748,67,-34,1,0,0,response3disk,,5,-5,7,1,0,0,rectangle,-5,7,1,0,0,-5,7,1,0,0,1,53,213,86,1,,,,,,,,
,,,,,,,,,,,,,FF,,,,,,,,0.7008,,,,,,,,,,,,,,,,,,,,,,5ed17af75957f60d040e3f34,61036db916c09a78a6b32e9b,2021-07-29_23h14.17.682,Simcolourproject_2stim_asymm_v5,2020.2.10,Win32,60,61025ae37ef11b136ea224fe,,,,,,,,,4185,-84,78,1,0,0,response7disk,,1,1,8,1,0,0,rectangle,-52,90,1,0,0,2,3,1,0,0,1,54,214,0,1,,response7disk_3,TRUE,0,0,"[4,215,258,285,108,186,115,308,301,98,162,172,300,92,36,261,202,34,167,57]",1.3859,rectangle
,,,,,,,,,,,,,FF,,,,,,,,0.6679,,,,,,,,,,,,,,,,,,,,,,5ed17af75957f60d040e3f34,61036db916c09a78a6b32e9b,2021-07-29_23h14.17.682,Simcolourproject_2stim_asymm_v5,2020.2.10,Win32,60,61025ae37ef11b136ea224fe,,,,,,,,,2354,75,48,1,0,0,response1disk,,6,13,7,1,0,0,rectangle,13,7,1,0,0,13,7,1,0,0,1,55,215,42,1,,,,,,,,
,,,,,,,,,,,,,FF,,,,,,,,0.6174,,,,,,,,,,,,,,,,,,,,,,5ed17af75957f60d040e3f34,61036db916c09a78a6b32e9b,2021-07-29_23h14.17.682,Simcolourproject_2stim_asymm_v5,2020.2.10,Win32,60,61025ae37ef11b136ea224fe,,,,,,,,,3050,-47,75,1,0,0,response7disk,,0,-15,10,1,0,0,rectangle,-15,10,1,0,0,-15,10,1,0,0,1,56,216,96,1,,,,,,,,
,,,,,,,,,,,,,FF,,,,,,,,0.6506,,,,,,,,,,,,,,,,,,,,,,5ed17af75957f60d040e3f34,61036db916c09a78a6b32e9b,2021-07-29_23h14.17.682,Simcolourproject_2stim_asymm_v5,2020.2.10,Win32,60,61025ae37ef11b136ea224fe,,,,,,,,,2711,55,-46,1,0,0,response3disk,,5,-29,7,1,0,0,rectangle,-29,7,1,0,0,-29,7,1,0,0,1,57,217,136,1,,,,,,,,
,,,,,,,,,,,,,FF,,,,,,,,1.1688,,,,,,,,,,,,,,,,,,,,,,5ed17af75957f60d040e3f34,61036db916c09a78a6b32e9b,2021-07-29_23h14.17.682,Simcolourproject_2stim_asymm_v5,2020.2.10,Win32,60,61025ae37ef11b136ea224fe,,,,,,,,,4219,-72,30,1,0,0,response7disk,,1,18,-8,1,0,0,rectangle,18,-8,1,0,0,18,-8,1,0,0,1,58,218,47,1,,,,,,,,
,,,,,,,,,,,,,FF,,,,,,,,1.4028,,,,,,,,,,,,,,,,,,,,,,5ed17af75957f60d040e3f34,61036db916c09a78a6b32e9b,2021-07-29_23h14.17.682,Simcolourproject_2stim_asymm_v5,2020.2.10,Win32,60,61025ae37ef11b136ea224fe,,,,,,,,,782,56,29,1,0,0,response1disk,,6,27,-2,1,0,0,rectangle,27,-2,1,0,0,27,-2,1,0,0,1,59,219,63,1,,,,,,,,
,,,,,,,,,,,,,FF,,,,,,,,2.4207,,,,,,,,,,,,,,,,,,,,,,5ed17af75957f60d040e3f34,61036db916c09a78a6b32e9b,2021-07-29_23h14.17.682,Simcolourproject_2stim_asymm_v5,2020.2.10,Win32,60,61025ae37ef11b136ea224fe,,,,,,,,,1799,-104,75,1,0,0,response7disk,,1,-19,-16,1,0,0,rectangle,-19,-16,1,0,0,-19,-16,1,0,0,1,60,220,119,1,,,,,,,,
,,,,,,,,,,,,,FF,,,,,,,,0.6006,,,,,,,,,,,,,,,,,,,,,,5ed17af75957f60d040e3f34,61036db916c09a78a6b32e9b,2021-07-29_23h14.17.682,Simcolourproject_2stim_asymm_v5,2020.2.10,Win32,60,61025ae37ef11b136ea224fe,,,,,,,,,971,-64,31,1,0,0,response7disk,,1,4,-15,1,0,0,rectangle,4,-15,1,0,0,4,-15,1,0,0,1,61,221,128,1,,,,,,,,
,,,,,,,,,,,,,FF,,,,,,,,0.5377,,,,,,,,,,,,,,,,,,,,,,5ed17af75957f60d040e3f34,61036db916c09a78a6b32e9b,2021-07-29_23h14.17.682,Simcolourproject_2stim_asymm_v5,2020.2.10,Win32,60,61025ae37ef11b136ea224fe,,,,,,,,,476,51,-71,1,0,0,response3disk,,4,14,-14,1,0,0,rectangle,14,-14,1,0,0,14,-14,1,0,0,1,62,222,17,1,,,,,,,,
,,,,,,,,,,,,,FF,,,,,,,,0.4837,,,,,,,,,,,,,,,,,,,,,,5ed17af75957f60d040e3f34,61036db916c09a78a6b32e9b,2021-07-29_23h14.17.682,Simcolourproject_2stim_asymm_v5,2020.2.10,Win32,60,61025ae37ef11b136ea224fe,,,,,,,,,4289,65,-40,1,0,0,response3disk,,5,13,-6,1,0,0,rectangle,13,-6,1,0,0,13,-6,1,0,0,1,63,223,12,1,,,,,,,,
,,,,,,,,,,,,,FF,,,,,,,,0.7342,,,,,,,,,,,,,,,,,,,,,,5ed17af75957f60d040e3f34,61036db916c09a78a6b32e9b,2021-07-29_23h14.17.682,Simcolourproject_2stim_asymm_v5,2020.2.10,Win32,60,61025ae37ef11b136ea224fe,,,,,,,,,207,-42,-65,1,0,0,response5disk,,3,1,-6,1,0,0,rectangle,1,-6,1,0,0,1,-6,1,0,0,1,64,224,7,1,,,,,,,,
,,,,,,,,,,,,,FF,,,,,,,,1.0517,,,,,,,,,,,,,,,,,,,,,,5ed17af75957f60d040e3f34,61036db916c09a78a6b32e9b,2021-07-29_23h14.17.682,Simcolourproject_2stim_asymm_v5,2020.2.10,Win32,60,61025ae37ef11b136ea224fe,,,,,,,,,2731,56,-73,1,0,0,response3disk,,4,-8,11,1,0,0,rectangle,-8,11,1,0,0,-8,11,1,0,0,1,65,225,25,1,,,,,,,,
,,,,,,,,,,,,,FF,,,,,,,,0.5676,,,,,,,,,,,,,,,,,,,,,,5ed17af75957f60d040e3f34,61036db916c09a78a6b32e9b,2021-07-29_23h14.17.682,Simcolourproject_2stim_asymm_v5,2020.2.10,Win32,60,61025ae37ef11b136ea224fe,,,,,,,,,3745,-65,41,1,0,0,response7disk,,1,1,8,1,0,0,rectangle,1,8,1,0,0,1,8,1,0,0,1,66,226,8,1,,,,,,,,
,,,,,,,,,,,,,FF,,,,,,,,0.5174,,,,,,,,,,,,,,,,,,,,,,5ed17af75957f60d040e3f34,61036db916c09a78a6b32e9b,2021-07-29_23h14.17.682,Simcolourproject_2stim_asymm_v5,2020.2.10,Win32,60,61025ae37ef11b136ea224fe,,,,,,,,,366,-20,88,1,0,0,response7disk,,0,8,2,1,0,0,rectangle,8,2,1,0,0,8,2,1,0,0,1,67,227,53,1,,,,,,,,
,,,,,,,,,,,,,FF,,,,,,,,0.6677,,,,,,,,,,,,,,,,,,,,,,5ed17af75957f60d040e3f34,61036db916c09a78a6b32e9b,2021-07-29_23h14.17.682,Simcolourproject_2stim_asymm_v5,2020.2.10,Win32,60,61025ae37ef11b136ea224fe,,,,,,,,,3048,-83,46,1,0,0,response7disk,,1,-10,7,1,0,0,rectangle,-10,7,1,0,0,-10,7,1,0,0,1,68,228,121,1,,,,,,,,
,,,,,,,,,,,,,FF,,,,,,,,0.8844,,,,,,,,,,,,,,,,,,,,,,5ed17af75957f60d040e3f34,61036db916c09a78a6b32e9b,2021-07-29_23h14.17.682,Simcolourproject_2stim_asymm_v5,2020.2.10,Win32,60,61025ae37ef11b136ea224fe,,,,,,,,,3533,86,58,1,0,0,response1disk,,6,22,1,1,0,0,rectangle,22,1,1,0,0,22,1,1,0,0,1,69,229,38,1,,,,,,,,
,,,,,,,,,,,,,FF,,,,,,,,0.7341,,,,,,,,,,,,,,,,,,,,,,5ed17af75957f60d040e3f34,61036db916c09a78a6b32e9b,2021-07-29_23h14.17.682,Simcolourproject_2stim_asymm_v5,2020.2.10,Win32,60,61025ae37ef11b136ea224fe,,,,,,,,,2996,-94,-45,1,0,0,response5disk,,2,4,-13,1,0,0,rectangle,4,-13,1,0,0,4,-13,1,0,0,1,70,230,3,1,,,,,,,,
,,,,,,,,,,,,,FF,,,,,,,,0.4836,,,,,,,,,,,,,,,,,,,,,,5ed17af75957f60d040e3f34,61036db916c09a78a6b32e9b,2021-07-29_23h14.17.682,Simcolourproject_2stim_asymm_v5,2020.2.10,Win32,60,61025ae37ef11b136ea224fe,,,,,,,,,3175,49,-37,1,0,0,response3disk,,5,-10,-6,1,0,0,rectangle,-10,-6,1,0,0,-10,-6,1,0,0,1,71,231,134,1,,,,,,,,
,,,,,,,,,,,,,FF,,,,,,,,1.1187,,,,,,,,,,,,,,,,,,,,,,5ed17af75957f60d040e3f34,61036db916c09a78a6b32e9b,2021-07-29_23h14.17.682,Simcolourproject_2stim_asymm_v5,2020.2.10,Win32,60,61025ae37ef11b136ea224fe,,,,,,,,,3287,-79,-37,1,0,0,response5disk,,2,-1,2,1,0,0,rectangle,-1,2,1,0,0,-1,2,1,0,0,1,72,232,49,1,,,,,,,,
,,,,,,,,,,,,,FF,,,,,,,,1.2538,,,,,,,,,,,,,,,,,,,,,,5ed17af75957f60d040e3f34,61036db916c09a78a6b32e9b,2021-07-29_23h14.17.682,Simcolourproject_2stim_asymm_v5,2020.2.10,Win32,60,61025ae37ef11b136ea224fe,,,,,,,,,3798,44,93,1,0,0,response1disk,,7,2,-5,1,0,0,rectangle,2,-5,1,0,0,2,-5,1,0,0,1,73,233,114,1,,,,,,,,
,,,,,,,,,,,,,FF,,,,,,,,1.185,,,,,,,,,,,,,,,,,,,,,,5ed17af75957f60d040e3f34,61036db916c09a78a6b32e9b,2021-07-29_23h14.17.682,Simcolourproject_2stim_asymm_v5,2020.2.10,Win32,60,61025ae37ef11b136ea224fe,,,,,,,,,1240,-50,-89,1,0,0,response5disk,,3,4,-6,1,0,0,rectangle,4,-6,1,0,0,4,-6,1,0,0,1,74,234,37,1,,,,,,,,
,,,,,,,,,,,,,FF,,,,,,,,0.7343,,,,,,,,,,,,,,,,,,,,,,5ed17af75957f60d040e3f34,61036db916c09a78a6b32e9b,2021-07-29_23h14.17.682,Simcolourproject_2stim_asymm_v5,2020.2.10,Win32,60,61025ae37ef11b136ea224fe,,,,,,,,,1545,38,-67,1,0,0,response3disk,,4,20,-13,1,0,0,rectangle,20,-13,1,0,0,20,-13,1,0,0,1,75,235,154,1,,,,,,,,
,,,,,,,,,,,,,FF,,,,,,,,0.7008,,,,,,,,,,,,,,,,,,,,,,5ed17af75957f60d040e3f34,61036db916c09a78a6b32e9b,2021-07-29_23h14.17.682,Simcolourproject_2stim_asymm_v5,2020.2.10,Win32,60,61025ae37ef11b136ea224fe,,,,,,,,,2167,-47,56,1,0,0,response7disk,,0,-11,10,1,0,0,rectangle,-11,10,1,0,0,-11,10,1,0,0,1,76,236,111,1,,,,,,,,
,,,,,,,,,,,,,FF,,,,,,,,0.5673,,,,,,,,,,,,,,,,,,,,,,5ed17af75957f60d040e3f34,61036db916c09a78a6b32e9b,2021-07-29_23h14.17.682,Simcolourproject_2stim_asymm_v5,2020.2.10,Win32,60,61025ae37ef11b136ea224fe,,,,,,,,,1844,71,-32,1,0,0,response3disk,,5,9,6,1,0,0,rectangle,9,6,1,0,0,9,6,1,0,0,1,77,237,91,1,,,,,,,,
,,,,,,,,,,,,,FF,,,,,,,,2.5709,,,,,,,,,,,,,,,,,,,,,,5ed17af75957f60d040e3f34,61036db916c09a78a6b32e9b,2021-07-29_23h14.17.682,Simcolourproject_2stim_asymm_v5,2020.2.10,Win32,60,61025ae37ef11b136ea224fe,,,,,,,,,453,65,35,1,0,0,response1disk,,6,25,-3,1,0,0,rectangle,25,-3,1,0,0,25,-3,1,0,0,1,78,238,58,1,,,,,,,,
,,,,,,,,,,,,,FF,,,,,,,,0.6346,,,,,,,,,,,,,,,,,,,,,,5ed17af75957f60d040e3f34,61036db916c09a78a6b32e9b,2021-07-29_23h14.17.682,Simcolourproject_2stim_asymm_v5,2020.2.10,Win32,60,61025ae37ef11b136ea224fe,,,,,,,,,2407,94,42,1,0,0,response1disk,,6,20,1,1,0,0,rectangle,20,1,1,0,0,20,1,1,0,0,1,79,239,156,1,,,,,,,,
,,,,,,,,,,,,,FF,,,,,,,,0.6842,,,,,,,,,,,,,,,,,,,,,,5ed17af75957f60d040e3f34,61036db916c09a78a6b32e9b,2021-07-29_23h14.17.682,Simcolourproject_2stim_asymm_v5,2020.2.10,Win32,60,61025ae37ef11b136ea224fe,,,,,,,,,4167,-52,-37,1,0,0,response5disk,,2,-16,-17,1,0,0,rectangle,-16,-17,1,0,0,-16,-17,1,0,0,1,80,240,59,1,,,,,,,,
,,,,,,,,,,,,,FF,,,,,,,,0.5675,,,,,,,,,,,,,,,,,,,,,,5ed17af75957f60d040e3f34,61036db916c09a78a6b32e9b,2021-07-29_23h14.17.682,Simcolourproject_2stim_asymm_v5,2020.2.10,Win32,60,61025ae37ef11b136ea224fe,,,,,,,,,3408,54,-40,1,0,0,response3disk,,5,-3,-13,1,0,0,rectangle,-3,-13,1,0,0,-3,-13,1,0,0,1,81,241,77,1,,,,,,,,
,,,,,,,,,,,,,FF,,,,,,,,0.7176,,,,,,,,,,,,,,,,,,,,,,5ed17af75957f60d040e3f34,61036db916c09a78a6b32e9b,2021-07-29_23h14.17.682,Simcolourproject_2stim_asymm_v5,2020.2.10,Win32,60,61025ae37ef11b136ea224fe,,,,,,,,,1097,100,29,1,0,0,response1disk,,6,22,-13,1,0,0,rectangle,22,-13,1,0,0,22,-13,1,0,0,1,82,242,57,1,,,,,,,,
,,,,,,,,,,,,,FF,,,,,,,,0.7507,,,,,,,,,,,,,,,,,,,,,,5ed17af75957f60d040e3f34,61036db916c09a78a6b32e9b,2021-07-29_23h14.17.682,Simcolourproject_2stim_asymm_v5,2020.2.10,Win32,60,61025ae37ef11b136ea224fe,,,,,,,,,1625,-86,27,1,0,0,response7disk,,1,6,-15,1,0,0,rectangle,6,-15,1,0,0,6,-15,1,0,0,1,83,243,52,1,,,,,,,,
,,,,,,,,,,,,,FF,,,,,,,,0.5673,,,,,,,,,,,,,,,,,,,,,,5ed17af75957f60d040e3f34,61036db916c09a78a6b32e9b,2021-07-29_23h14.17.682,Simcolourproject_2stim_asymm_v5,2020.2.10,Win32,60,61025ae37ef11b136ea224fe,,,,,,,,,3948,35,77,1,0,0,response1disk,,7,20,13,1,0,0,rectangle,20,13,1,0,0,20,13,1,0,0,1,84,244,15,1,,,,,,,,
,,,,,,,,,,,,,FF,,,,,,,,0.8684,,,,,,,,,,,,,,,,,,,,,,5ed17af75957f60d040e3f34,61036db916c09a78a6b32e9b,2021-07-29_23h14.17.682,Simcolourproject_2stim_asymm_v5,2020.2.10,Win32,60,61025ae37ef11b136ea224fe,,,,,,,,,3701,-93,-55,1,0,0,response5disk,,2,18,-7,1,0,0,rectangle,18,-7,1,0,0,18,-7,1,0,0,1,85,245,159,1,,,,,,,,
,,,,,,,,,,,,,FF,,,,,,,,0.6342,,,,,,,,,,,,,,,,,,,,,,5ed17af75957f60d040e3f34,61036db916c09a78a6b32e9b,2021-07-29_23h14.17.682,Simcolourproject_2stim_asymm_v5,2020.2.10,Win32,60,61025ae37ef11b136ea224fe,,,,,,,,,4065,62,-30,1,0,0,response3disk,,5,23,7,1,0,0,rectangle,23,7,1,0,0,23,7,1,0,0,1,86,246,97,1,,,,,,,,
,,,,,,,,,,,,,FF,,,,,,,,1.1858,,,,,,,,,,,,,,,,,,,,,,5ed17af75957f60d040e3f34,61036db916c09a78a6b32e9b,2021-07-29_23h14.17.682,Simcolourproject_2stim_asymm_v5,2020.2.10,Win32,60,61025ae37ef11b136ea224fe,,,,,,,,,2024,103,37,1,0,0,response1disk,,6,33,0,1,0,0,rectangle,33,0,1,0,0,33,0,1,0,0,1,87,247,88,1,,,,,,,,
,,,,,,,,,,,,,FF,,,,,,,,0.7506,,,,,,,,,,,,,,,,,,,,,,5ed17af75957f60d040e3f34,61036db916c09a78a6b32e9b,2021-07-29_23h14.17.682,Simcolourproject_2stim_asymm_v5,2020.2.10,Win32,60,61025ae37ef11b136ea224fe,,,,,,,,,2088,40,-61,1,0,0,response3disk,,4,31,-12,1,0,0,rectangle,31,-12,1,0,0,31,-12,1,0,0,1,88,248,54,1,,,,,,,,
,,,,,,,,,,,,,FF,,,,,,,,1.4856,,,,,,,,,,,,,,,,,,,,,,5ed17af75957f60d040e3f34,61036db916c09a78a6b32e9b,2021-07-29_23h14.17.682,Simcolourproject_2stim_asymm_v5,2020.2.10,Win32,60,61025ae37ef11b136ea224fe,,,,,,,,,4275,-23,-70,1,0,0,response5disk,,3,7,-17,1,0,0,rectangle,7,-17,1,0,0,7,-17,1,0,0,1,89,249,89,1,,,,,,,,
,,,,,,,,,,,,,FF,,,,,,,,0.701,,,,,,,,,,,,,,,,,,,,,,5ed17af75957f60d040e3f34,61036db916c09a78a6b32e9b,2021-07-29_23h14.17.682,Simcolourproject_2stim_asymm_v5,2020.2.10,Win32,60,61025ae37ef11b136ea224fe,,,,,,,,,798,42,-33,1,0,0,response3disk,,5,5,1,1,0,0,rectangle,5,1,1,0,0,5,1,1,0,0,1,90,250,23,1,,,,,,,,
,,,,,,,,,,,,,FF,,,,,,,,0.8676,,,,,,,,,,,,,,,,,,,,,,5ed17af75957f60d040e3f34,61036db916c09a78a6b32e9b,2021-07-29_23h14.17.682,Simcolourproject_2stim_asymm_v5,2020.2.10,Win32,60,61025ae37ef11b136ea224fe,,,,,,,,,1033,71,-31,1,0,0,response3disk,,5,35,-9,1,0,0,rectangle,35,-9,1,0,0,35,-9,1,0,0,1,91,251,24,1,,,,,,,,
,,,,,,,,,,,,,FF,,,,,,,,0.9511,,,,,,,,,,,,,,,,,,,,,,5ed17af75957f60d040e3f34,61036db916c09a78a6b32e9b,2021-07-29_23h14.17.682,Simcolourproject_2stim_asymm_v5,2020.2.10,Win32,60,61025ae37ef11b136ea224fe,,,,,,,,,3822,63,34,1,0,0,response1disk,,6,16,10,1,0,0,rectangle,16,10,1,0,0,16,10,1,0,0,1,92,252,76,1,,,,,,,,
,,,,,,,,,,,,,FF,,,,,,,,0.7341,,,,,,,,,,,,,,,,,,,,,,5ed17af75957f60d040e3f34,61036db916c09a78a6b32e9b,2021-07-29_23h14.17.682,Simcolourproject_2stim_asymm_v5,2020.2.10,Win32,60,61025ae37ef11b136ea224fe,,,,,,,,,3984,56,87,1,0,0,response1disk,,7,26,-2,1,0,0,rectangle,26,-2,1,0,0,26,-2,1,0,0,1,93,253,115,1,,,,,,,,
,,,,,,,,,,,,,FF,,,,,,,,0.6842,,,,,,,,,,,,,,,,,,,,,,5ed17af75957f60d040e3f34,61036db916c09a78a6b32e9b,2021-07-29_23h14.17.682,Simcolourproject_2stim_asymm_v5,2020.2.10,Win32,60,61025ae37ef11b136ea224fe,,,,,,,,,1716,85,62,1,0,0,response1disk,,6,5,-2,1,0,0,rectangle,5,-2,1,0,0,5,-2,1,0,0,1,94,254,101,1,,,,,,,,
,,,,,,,,,,,,,FF,,,,,,,,0.9179,,,,,,,,,,,,,,,,,,,,,,5ed17af75957f60d040e3f34,61036db916c09a78a6b32e9b,2021-07-29_23h14.17.682,Simcolourproject_2stim_asymm_v5,2020.2.10,Win32,60,61025ae37ef11b136ea224fe,,,,,,,,,4281,-71,-45,1,0,0,response5disk,,2,-7,-6,1,0,0,rectangle,-7,-6,1,0,0,-7,-6,1,0,0,1,95,255,87,1,,,,,,,,
,,,,,,,,,,,,,FF,,,,,,,,0.634,,,,,,,,,,,,,,,,,,,,,,5ed17af75957f60d040e3f34,61036db916c09a78a6b32e9b,2021-07-29_23h14.17.682,Simcolourproject_2stim_asymm_v5,2020.2.10,Win32,60,61025ae37ef11b136ea224fe,,,,,,,,,2781,-41,80,1,0,0,response7disk,,0,0,-18,1,0,0,rectangle,0,-18,1,0,0,0,-18,1,0,0,1,96,256,30,1,,,,,,,,
,,,,,,,,,,,,,FF,,,,,,,,1.0345,,,,,,,,,,,,,,,,,,,,,,5ed17af75957f60d040e3f34,61036db916c09a78a6b32e9b,2021-07-29_23h14.17.682,Simcolourproject_2stim_asymm_v5,2020.2.10,Win32,60,61025ae37ef11b136ea224fe,,,,,,,,,32,76,-27,1,0,0,response3disk,,5,13,4,1,0,0,rectangle,35,114,1,0,0,14,4,1,0,0,1,97,257,113,1,,response1disk_3,TRUE,7,7,"[4,215,258,285,108,186,115,308,301,98,162,172,300,92,36,261,202,34,167,57]",1.836,rectangle
,,,,,,,,,,,,,FF,,,,,,,,0.8521,,,,,,,,,,,,,,,,,,,,,,5ed17af75957f60d040e3f34,61036db916c09a78a6b32e9b,2021-07-29_23h14.17.682,Simcolourproject_2stim_asymm_v5,2020.2.10,Win32,60,61025ae37ef11b136ea224fe,,,,,,,,,4327,-50,85,1,0,0,response7disk,,0,8,5,1,0,0,rectangle,8,5,1,0,0,8,5,1,0,0,1,98,258,4,1,,,,,,,,
,,,,,,,,,,,,,FF,,,,,,,,0.5506,,,,,,,,,,,,,,,,,,,,,,5ed17af75957f60d040e3f34,61036db916c09a78a6b32e9b,2021-07-29_23h14.17.682,Simcolourproject_2stim_asymm_v5,2020.2.10,Win32,60,61025ae37ef11b136ea224fe,,,,,,,,,4,-71,23,1,0,0,response7disk,,1,-10,-9,1,0,0,rectangle,-10,-9,1,0,0,-10,-9,1,0,0,1,99,259,36,1,,,,,,,,
,,,,,,,,,,,,,FF,,,,,,,,0.6509,,,,,,,,,,,,,,,,,,,,,,5ed17af75957f60d040e3f34,61036db916c09a78a6b32e9b,2021-07-29_23h14.17.682,Simcolourproject_2stim_asymm_v5,2020.2.10,Win32,60,61025ae37ef11b136ea224fe,,,,,,,,,2489,-71,-82,1,0,0,response5disk,,3,-27,-1,1,0,0,rectangle,-27,-86,1,0,0,-3,-1,1,0,0,1,100,260,142,1,,response5disk_3,TRUE,3,3,"[4,215,258,285,108,186,115,308,301,98,162,172,300,92,36,261,202,34,167,57]",1.8355,rectangle
,,,,,,,,,,,,,FF,,,,,,,,0.5339,,,,,,,,,,,,,,,,,,,,,,5ed17af75957f60d040e3f34,61036db916c09a78a6b32e9b,2021-07-29_23h14.17.682,Simcolourproject_2stim_asymm_v5,2020.2.10,Win32,60,61025ae37ef11b136ea224fe,,,,,,,,,3017,76,28,1,0,0,response1disk,,6,-1,-4,1,0,0,rectangle,-1,-4,1,0,0,-1,-4,1,0,0,1,101,261,14,1,,,,,,,,
,,,,,,,,,,,,,FF,,,,,,,,0.7509,,,,,,,,,,,,,,,,,,,,,,5ed17af75957f60d040e3f34,61036db916c09a78a6b32e9b,2021-07-29_23h14.17.682,Simcolourproject_2stim_asymm_v5,2020.2.10,Win32,60,61025ae37ef11b136ea224fe,,,,,,,,,4182,-74,-37,1,0,0,response5disk,,2,-24,-8,1,0,0,rectangle,-24,-8,1,0,0,-24,-8,1,0,0,1,102,262,102,1,,,,,,,,
,,,,,,,,,,,,,FF,,,,,,,,0.4338,,,,,,,,,,,,,,,,,,,,,,5ed17af75957f60d040e3f34,61036db916c09a78a6b32e9b,2021-07-29_23h14.17.682,Simcolourproject_2stim_asymm_v5,2020.2.10,Win32,60,61025ae37ef11b136ea224fe,,,,,,,,,3648,56,-26,1,0,0,response3disk,,5,-5,-4,1,0,0,rectangle,-5,-4,1,0,0,-5,-4,1,0,0,1,103,263,116,1,,,,,,,,
,,,,,,,,,,,,,FF,,,,,,,,0.5504,,,,,,,,,,,,,,,,,,,,,,5ed17af75957f60d040e3f34,61036db916c09a78a6b32e9b,2021-07-29_23h14.17.682,Simcolourproject_2stim_asymm_v5,2020.2.10,Win32,60,61025ae37ef11b136ea224fe,,,,,,,,,199,-65,29,1,0,0,response7disk,,1,-2,3,1,0,0,rectangle,-2,3,1,0,0,-2,3,1,0,0,1,104,264,32,1,,,,,,,,
,,,,,,,,,,,,,FF,,,,,,,,0.4846,,,,,,,,,,,,,,,,,,,,,,5ed17af75957f60d040e3f34,61036db916c09a78a6b32e9b,2021-07-29_23h14.17.682,Simcolourproject_2stim_asymm_v5,2020.2.10,Win32,60,61025ae37ef11b136ea224fe,,,,,,,,,1767,65,37,1,0,0,response1disk,,6,8,-1,1,0,0,rectangle,8,-1,1,0,0,8,-1,1,0,0,1,105,265,31,1,,,,,,,,
,,,,,,,,,,,,,FF,,,,,,,,0.6506,,,,,,,,,,,,,,,,,,,,,,5ed17af75957f60d040e3f34,61036db916c09a78a6b32e9b,2021-07-29_23h14.17.682,Simcolourproject_2stim_asymm_v5,2020.2.10,Win32,60,61025ae37ef11b136ea224fe,,,,,,,,,425,50,60,1,0,0,response1disk,,7,3,6,1,0,0,rectangle,3,6,1,0,0,3,6,1,0,0,1,106,266,127,1,,,,,,,,
,,,,,,,,,,,,,FF,,,,,,,,0.6507,,,,,,,,,,,,,,,,,,,,,,5ed17af75957f60d040e3f34,61036db916c09a78a6b32e9b,2021-07-29_23h14.17.682,Simcolourproject_2stim_asymm_v5,2020.2.10,Win32,60,61025ae37ef11b136ea224fe,,,,,,,,,2295,-74,-37,1,0,0,response5disk,,2,-14,-4,1,0,0,rectangle,-14,-4,1,0,0,-14,-4,1,0,0,1,107,267,13,1,,,,,,,,
,,,,,,,,,,,,,FF,,,,,,,,1.0852,,,,,,,,,,,,,,,,,,,,,,5ed17af75957f60d040e3f34,61036db916c09a78a6b32e9b,2021-07-29_23h14.17.682,Simcolourproject_2stim_asymm_v5,2020.2.10,Win32,60,61025ae37ef11b136ea224fe,,,,,,,,,895,-87,37,1,0,0,response7disk,,1,-15,7,1,0,0,rectangle,-15,7,1,0,0,-15,7,1,0,0,1,108,268,123,1,,,,,,,,
,,,,,,,,,,,,,FF,,,,,,,,0.8514,,,,,,,,,,,,,,,,,,,,,,5ed17af75957f60d040e3f34,61036db916c09a78a6b32e9b,2021-07-29_23h14.17.682,Simcolourproject_2stim_asymm_v5,2020.2.10,Win32,60,61025ae37ef11b136ea224fe,,,,,,,,,897,-23,-67,1,0,0,response5disk,,3,23,2,1,0,0,rectangle,23,2,1,0,0,23,2,1,0,0,1,109,269,118,1,,,,,,,,
,,,,,,,,,,,,,FF,,,,,,,,0.4335,,,,,,,,,,,,,,,,,,,,,,5ed17af75957f60d040e3f34,61036db916c09a78a6b32e9b,2021-07-29_23h14.17.682,Simcolourproject_2stim_asymm_v5,2020.2.10,Win32,60,61025ae37ef11b136ea224fe,,,,,,,,,1647,53,-27,1,0,0,response3disk,,5,-2,-5,1,0,0,rectangle,-2,-5,1,0,0,-2,-5,1,0,0,1,110,270,147,1,,,,,,,,
,,,,,,,,,,,,,FF,,,,,,,,0.6007,,,,,,,,,,,,,,,,,,,,,,5ed17af75957f60d040e3f34,61036db916c09a78a6b32e9b,2021-07-29_23h14.17.682,Simcolourproject_2stim_asymm_v5,2020.2.10,Win32,60,61025ae37ef11b136ea224fe,,,,,,,,,2208,55,28,1,0,0,response1disk,,6,9,-2,1,0,0,rectangle,9,-2,1,0,0,9,-2,1,0,0,1,111,271,100,1,,,,,,,,
,,,,,,,,,,,,,FF,,,,,,,,0.5176,,,,,,,,,,,,,,,,,,,,,,5ed17af75957f60d040e3f34,61036db916c09a78a6b32e9b,2021-07-29_23h14.17.682,Simcolourproject_2stim_asymm_v5,2020.2.10,Win32,60,61025ae37ef11b136ea224fe,,,,,,,,,2646,59,-21,1,0,0,response3disk,,5,7,0,1,0,0,rectangle,7,0,1,0,0,7,0,1,0,0,1,112,272,9,1,,,,,,,,
,,,,,,,,,,,,,FF,,,,,,,,0.7174,,,,,,,,,,,,,,,,,,,,,,5ed17af75957f60d040e3f34,61036db916c09a78a6b32e9b,2021-07-29_23h14.17.682,Simcolourproject_2stim_asymm_v5,2020.2.10,Win32,60,61025ae37ef11b136ea224fe,,,,,,,,,4170,-59,28,1,0,0,response7disk,,1,-13,9,1,0,0,rectangle,-13,9,1,0,0,-13,9,1,0,0,1,113,273,66,1,,,,,,,,
,,,,,,,,,,,,,FF,,,,,,,,1.1188,,,,,,,,,,,,,,,,,,,,,,5ed17af75957f60d040e3f34,61036db916c09a78a6b32e9b,2021-07-29_23h14.17.682,Simcolourproject_2stim_asymm_v5,2020.2.10,Win32,60,61025ae37ef11b136ea224fe,,,,,,,,,168,-68,-51,1,0,0,response5disk,,2,-21,-15,1,0,0,rectangle,-21,-15,1,0,0,-21,-15,1,0,0,1,114,274,21,1,,,,,,,,
,,,,,,,,,,,,,FF,,,,,,,,0.4345,,,,,,,,,,,,,,,,,,,,,,5ed17af75957f60d040e3f34,61036db916c09a78a6b32e9b,2021-07-29_23h14.17.682,Simcolourproject_2stim_asymm_v5,2020.2.10,Win32,60,61025ae37ef11b136ea224fe,,,,,,,,,4222,-43,69,1,0,0,response7disk,,0,-17,9,1,0,0,rectangle,-17,9,1,0,0,-17,9,1,0,0,1,115,275,157,1,,,,,,,,
,,,,,,,,,,,,,FF,,,,,,,,0.5845,,,,,,,,,,,,,,,,,,,,,,5ed17af75957f60d040e3f34,61036db916c09a78a6b32e9b,2021-07-29_23h14.17.682,Simcolourproject_2stim_asymm_v5,2020.2.10,Win32,60,61025ae37ef11b136ea224fe,,,,,,,,,2742,39,-30,1,0,0,response3disk,,5,10,-9,1,0,0,rectangle,10,-9,1,0,0,10,-9,1,0,0,1,116,276,34,1,,,,,,,,
,,,,,,,,,,,,,FF,,,,,,,,0.4514,,,,,,,,,,,,,,,,,,,,,,5ed17af75957f60d040e3f34,61036db916c09a78a6b32e9b,2021-07-29_23h14.17.682,Simcolourproject_2stim_asymm_v5,2020.2.10,Win32,60,61025ae37ef11b136ea224fe,,,,,,,,,316,71,30,1,0,0,response1disk,,6,18,8,1,0,0,rectangle,18,8,1,0,0,18,8,1,0,0,1,117,277,151,1,,,,,,,,
,,,,,,,,,,,,,FF,,,,,,,,0.467,,,,,,,,,,,,,,,,,,,,,,5ed17af75957f60d040e3f34,61036db916c09a78a6b32e9b,2021-07-29_23h14.17.682,Simcolourproject_2stim_asymm_v5,2020.2.10,Win32,60,61025ae37ef11b136ea224fe,,,,,,,,,2754,78,-25,1,0,0,response3disk,,5,15,-1,1,0,0,rectangle,15,-1,1,0,0,15,-1,1,0,0,1,118,278,39,1,,,,,,,,
,,,,,,,,,,,,,FF,,,,,,,,0.6172,,,,,,,,,,,,,,,,,,,,,,5ed17af75957f60d040e3f34,61036db916c09a78a6b32e9b,2021-07-29_23h14.17.682,Simcolourproject_2stim_asymm_v5,2020.2.10,Win32,60,61025ae37ef11b136ea224fe,,,,,,,,,2833,-58,96,1,0,0,response7disk,,0,3,1,1,0,0,rectangle,3,1,1,0,0,3,1,1,0,0,1,119,279,56,1,,,,,,,,
,,,,,,,,,,,,,FF,,,,,,,,0.6013,,,,,,,,,,,,,,,,,,,,,,5ed17af75957f60d040e3f34,61036db916c09a78a6b32e9b,2021-07-29_23h14.17.682,Simcolourproject_2stim_asymm_v5,2020.2.10,Win32,60,61025ae37ef11b136ea224fe,,,,,,,,,2241,-95,43,1,0,0,response7disk,,1,-32,16,1,0,0,rectangle,-32,16,1,0,0,-32,16,1,0,0,1,120,280,129,1,,,,,,,,
,,,,,,,,,,,,,FF,,,,,,,,0.6672,,,,,,,,,,,,,,,,,,,,,,5ed17af75957f60d040e3f34,61036db916c09a78a6b32e9b,2021-07-29_23h14.17.682,Simcolourproject_2stim_asymm_v5,2020.2.10,Win32,60,61025ae37ef11b136ea224fe,,,,,,,,,154,67,-75,1,0,0,response3disk,,4,1,-5,1,0,0,rectangle,1,-5,1,0,0,1,-5,1,0,0,1,121,281,19,1,,,,,,,,
,,,,,,,,,,,,,FF,,,,,,,,0.401,,,,,,,,,,,,,,,,,,,,,,5ed17af75957f60d040e3f34,61036db916c09a78a6b32e9b,2021-07-29_23h14.17.682,Simcolourproject_2stim_asymm_v5,2020.2.10,Win32,60,61025ae37ef11b136ea224fe,,,,,,,,,2808,66,39,1,0,0,response1disk,,6,-24,2,1,0,0,rectangle,-24,2,1,0,0,-24,2,1,0,0,1,122,282,20,1,,,,,,,,
,,,,,,,,,,,,,FF,,,,,,,,0.7509,,,,,,,,,,,,,,,,,,,,,,5ed17af75957f60d040e3f34,61036db916c09a78a6b32e9b,2021-07-29_23h14.17.682,Simcolourproject_2stim_asymm_v5,2020.2.10,Win32,60,61025ae37ef11b136ea224fe,,,,,,,,,2654,79,-47,1,0,0,response3disk,,5,-18,5,1,0,0,rectangle,-18,5,1,0,0,-18,5,1,0,0,1,123,283,78,1,,,,,,,,
,,,,,,,,,,,,,FF,,,,,,,,0.6011,,,,,,,,,,,,,,,,,,,,,,5ed17af75957f60d040e3f34,61036db916c09a78a6b32e9b,2021-07-29_23h14.17.682,Simcolourproject_2stim_asymm_v5,2020.2.10,Win32,60,61025ae37ef11b136ea224fe,,,,,,,,,701,-81,-36,1,0,0,response5disk,,2,-19,2,1,0,0,rectangle,40,92,1,0,0,12,9,1,0,0,1,124,284,106,1,,response1disk_3,TRUE,7,7,"[4,215,258,285,108,186,115,308,301,98,162,172,300,92,36,261,202,34,167,57]",1.4523,rectangle
,,,,,,,,,,,,,FF,,,,,,,,0.5671,,,,,,,,,,,,,,,,,,,,,,5ed17af75957f60d040e3f34,61036db916c09a78a6b32e9b,2021-07-29_23h14.17.682,Simcolourproject_2stim_asymm_v5,2020.2.10,Win32,60,61025ae37ef11b136ea224fe,,,,,,,,,2381,93,-46,1,0,0,response3disk,,5,16,-18,1,0,0,rectangle,16,-18,1,0,0,16,-18,1,0,0,1,125,285,105,1,,,,,,,,
,,,,,,,,,,,,,FF,,,,,,,,0.3669,,,,,,,,,,,,,,,,,,,,,,5ed17af75957f60d040e3f34,61036db916c09a78a6b32e9b,2021-07-29_23h14.17.682,Simcolourproject_2stim_asymm_v5,2020.2.10,Win32,60,61025ae37ef11b136ea224fe,,,,,,,,,39,74,-41,1,0,0,response3disk,,5,-1,-12,1,0,0,rectangle,-1,-12,1,0,0,-1,-12,1,0,0,1,126,286,6,1,,,,,,,,
,,,,,,,,,,,,,FF,,,,,,,,0.4176,,,,,,,,,,,,,,,,,,,,,,5ed17af75957f60d040e3f34,61036db916c09a78a6b32e9b,2021-07-29_23h14.17.682,Simcolourproject_2stim_asymm_v5,2020.2.10,Win32,60,61025ae37ef11b136ea224fe,,,,,,,,,114,32,-81,1,0,0,response3disk,,4,7,-18,1,0,0,rectangle,7,-18,1,0,0,7,-18,1,0,0,1,127,287,120,1,,,,,,,,
,,,,,,,,,,,,,FF,,,,,,,,0.7512,,,,,,,,,,,,,,,,,,,,,,5ed17af75957f60d040e3f34,61036db916c09a78a6b32e9b,2021-07-29_23h14.17.682,Simcolourproject_2stim_asymm_v5,2020.2.10,Win32,60,61025ae37ef11b136ea224fe,,,,,,,,,4028,64,40,1,0,0,response1disk,,6,14,8,1,0,0,rectangle,14,8,1,0,0,14,8,1,0,0,1,128,288,50,1,,,,,,,,
,,,,,,,,,,,,,FF,,,,,,,,0.5005,,,,,,,,,,,,,,,,,,,,,,5ed17af75957f60d040e3f34,61036db916c09a78a6b32e9b,2021-07-29_23h14.17.682,Simcolourproject_2stim_asymm_v5,2020.2.10,Win32,60,61025ae37ef11b136ea224fe,,,,,,,,,1903,80,-39,1,0,0,response3disk,,5,20,-6,1,0,0,rectangle,20,-6,1,0,0,20,-6,1,0,0,1,129,289,75,1,,,,,,,,
,,,,,,,,,,,,,FF,,,,,,,,0.6176,,,,,,,,,,,,,,,,,,,,,,5ed17af75957f60d040e3f34,61036db916c09a78a6b32e9b,2021-07-29_23h14.17.682,Simcolourproject_2stim_asymm_v5,2020.2.10,Win32,60,61025ae37ef11b136ea224fe,,,,,,,,,2929,65,-35,1,0,0,response3disk,,5,-6,-1,1,0,0,rectangle,-6,-1,1,0,0,-6,-1,1,0,0,1,130,290,122,1,,,,,,,,
,,,,,,,,,,,,,FF,,,,,,,,0.8843,,,,,,,,,,,,,,,,,,,,,,5ed17af75957f60d040e3f34,61036db916c09a78a6b32e9b,2021-07-29_23h14.17.682,Simcolourproject_2stim_asymm_v5,2020.2.10,Win32,60,61025ae37ef11b136ea224fe,,,,,,,,,2628,84,46,1,0,0,response1disk,,6,14,1,1,0,0,rectangle,14,1,1,0,0,14,1,1,0,0,1,131,291,41,1,,,,,,,,
,,,,,,,,,,,,,FF,,,,,,,,0.7682,,,,,,,,,,,,,,,,,,,,,,5ed17af75957f60d040e3f34,61036db916c09a78a6b32e9b,2021-07-29_23h14.17.682,Simcolourproject_2stim_asymm_v5,2020.2.10,Win32,60,61025ae37ef11b136ea224fe,,,,,,,,,4147,-74,27,1,0,0,response7disk,,1,-6,5,1,0,0,rectangle,-6,5,1,0,0,-6,5,1,0,0,1,132,292,83,1,,,,,,,,
,,,,,,,,,,,,,FF,,,,,,,,0.4503,,,,,,,,,,,,,,,,,,,,,,5ed17af75957f60d040e3f34,61036db916c09a78a6b32e9b,2021-07-29_23h14.17.682,Simcolourproject_2stim_asymm_v5,2020.2.10,Win32,60,61025ae37ef11b136ea224fe,,,,,,,,,2775,-34,91,1,0,0,response7disk,,0,-12,10,1,0,0,rectangle,-12,10,1,0,0,-12,10,1,0,0,1,133,293,94,1,,,,,,,,
,,,,,,,,,,,,,FF,,,,,,,,0.9182,,,,,,,,,,,,,,,,,,,,,,5ed17af75957f60d040e3f34,61036db916c09a78a6b32e9b,2021-07-29_23h14.17.682,Simcolourproject_2stim_asymm_v5,2020.2.10,Win32,60,61025ae37ef11b136ea224fe,,,,,,,,,2089,-56,-46,1,0,0,response5disk,,2,4,-4,1,0,0,rectangle,4,-4,1,0,0,4,-4,1,0,0,1,134,294,138,1,,,,,,,,
,,,,,,,,,,,,,FF,,,,,,,,0.6845,,,,,,,,,,,,,,,,,,,,,,5ed17af75957f60d040e3f34,61036db916c09a78a6b32e9b,2021-07-29_23h14.17.682,Simcolourproject_2stim_asymm_v5,2020.2.10,Win32,60,61025ae37ef11b136ea224fe,,,,,,,,,4251,-47,94,1,0,0,response7disk,,0,-4,-8,1,0,0,rectangle,-4,-8,1,0,0,-4,-8,1,0,0,1,135,295,150,1,,,,,,,,
,,,,,,,,,,,,,FF,,,,,,,,0.4508,,,,,,,,,,,,,,,,,,,,,,5ed17af75957f60d040e3f34,61036db916c09a78a6b32e9b,2021-07-29_23h14.17.682,Simcolourproject_2stim_asymm_v5,2020.2.10,Win32,60,61025ae37ef11b136ea224fe,,,,,,,,,954,59,27,1,0,0,response1disk,,6,-12,-3,1,0,0,rectangle,-12,-3,1,0,0,-12,-3,1,0,0,1,136,296,132,1,,,,,,,,
,,,,,,,,,,,,,FF,,,,,,,,0.4005,,,,,,,,,,,,,,,,,,,,,,5ed17af75957f60d040e3f34,61036db916c09a78a6b32e9b,2021-07-29_23h14.17.682,Simcolourproject_2stim_asymm_v5,2020.2.10,Win32,60,61025ae37ef11b136ea224fe,,,,,,,,,3455,93,45,1,0,0,response1disk,,6,4,-3,1,0,0,rectangle,4,-3,1,0,0,4,-3,1,0,0,1,137,297,67,1,,,,,,,,
,,,,,,,,,,,,,FF,,,,,,,,0.4004,,,,,,,,,,,,,,,,,,,,,,5ed17af75957f60d040e3f34,61036db916c09a78a6b32e9b,2021-07-29_23h14.17.682,Simcolourproject_2stim_asymm_v5,2020.2.10,Win32,60,61025ae37ef11b136ea224fe,,,,,,,,,2870,71,-35,1,0,0,response3disk,,5,12,-17,1,0,0,rectangle,12,-17,1,0,0,12,-17,1,0,0,1,138,298,135,1,,,,,,,,
,,,,,,,,,,,,,FF,,,,,,,,0.5671,,,,,,,,,,,,,,,,,,,,,,5ed17af75957f60d040e3f34,61036db916c09a78a6b32e9b,2021-07-29_23h14.17.682,Simcolourproject_2stim_asymm_v5,2020.2.10,Win32,60,61025ae37ef11b136ea224fe,,,,,,,,,474,19,-87,1,0,0,response3disk,,4,12,-11,1,0,0,rectangle,62,-19,1,0,0,12,-6,1,0,0,1,139,299,98,1,,response3disk_3,TRUE,5,5,"[4,215,258,285,108,186,115,308,301,98,162,172,300,92,36,261,202,34,167,57]",1.1352,rectangle
,,,,,,,,,,,,,FF,,,,,,,,0.5677,,,,,,,,,,,,,,,,,,,,,,5ed17af75957f60d040e3f34,61036db916c09a78a6b32e9b,2021-07-29_23h14.17.682,Simcolourproject_2stim_asymm_v5,2020.2.10,Win32,60,61025ae37ef11b136ea224fe,,,,,,,,,319,45,84,1,0,0,response1disk,,7,3,7,1,0,0,rectangle,72,-67,1,0,0,16,-9,1,0,0,1,140,300,74,1,,response3disk_3,TRUE,5,4,"[4,215,258,285,108,186,115,308,301,98,162,172,300,92,36,261,202,34,167,57]",1.5026,rectangle
,,,,,,,,,,,,,FF,,,,,,,,0.6507,,,,,,,,,,,,,,,,,,,,,,5ed17af75957f60d040e3f34,61036db916c09a78a6b32e9b,2021-07-29_23h14.17.682,Simcolourproject_2stim_asymm_v5,2020.2.10,Win32,60,61025ae37ef11b136ea224fe,,,,,,,,,792,80,36,1,0,0,response1disk,,6,25,-4,1,0,0,rectangle,25,-4,1,0,0,25,-4,1,0,0,1,141,301,62,1,,,,,,,,
