key_resp.keys,key_resp.rt,key_resp_14.keys,key_resp_14.rt,key_resp_15.keys,key_resp_15.rt,key_resp_17.keys,key_resp_17.rt,key_resp_9.keys,key_resp_9.rt,key_resp_10.keys,key_resp_10.rt,practice_comparison,Ecc,mouse_5.x,mouse_5.y,mouse_5.leftButton,mouse_5.midButton,mouse_5.rightButton,mouse_5.clicked_name,pracsimilarity,response_time,mouse_10.x,mouse_10.y,mouse_10.leftButton,mouse_10.midButton,mouse_10.rightButton,mouse_10.clicked_name,mouse_7.x,mouse_7.y,mouse_7.leftButton,mouse_7.midButton,mouse_7.rightButton,mouse_6.x,mouse_6.y,mouse_6.leftButton,mouse_6.midButton,mouse_6.rightButton,duringprac.thisRepN,duringprac.thisTrialN,duringprac.thisN,duringprac.thisIndex,duringprac.ran,participant,session,date,expName,psychopyVersion,OS,frameRate,study_id,mouse_7.clicked_name,catchpracsimilarity,catch_response_time,catchnumberprac,catchtrialorderprac,mouse_6.clicked_name,key_resp_22.keys,key_resp_22.rt,realcomparison,mouse.x,mouse.y,mouse.leftButton,mouse.midButton,mouse.rightButton,mouse.clicked_name,Colour2,similarity,mouse_2.x,mouse_2.y,mouse_2.leftButton,mouse_2.midButton,mouse_2.rightButton,mouse_2.clicked_name,mouse_3.x,mouse_3.y,mouse_3.leftButton,mouse_3.midButton,mouse_3.rightButton,mouse_11.x,mouse_11.y,mouse_11.leftButton,mouse_11.midButton,mouse_11.rightButton,trials_2.thisRepN,trials_2.thisTrialN,trials_2.thisN,trials_2.thisIndex,trials_2.ran,Colour1,mouse_3.clicked_name,catchornah,catchsimilarity,catchnumber,catchtrialorder,catchRT,mouse_11.clicked_name
space,0.8756,space,20.6094,space,90.7209,space,15.3891,space,6.17,space,5.9586,128,PF,94.40001285,-60.00000733,1,0,0,response3disk_5,5,10.2603,-10.39993988,-2.400006473,1,0,0,rectangle_8,-10.39993988,-2.400006473,1,0,0,-10.39993988,-2.400006473,1,0,0,0,0,0,2,1,5ee297bb2f43f7410c49f6ef,61036cc953b06843ea5920fd,2021-07-29_23h10.57.989,Simcolourproject_2stim_asymm_v5,2020.2.10,Win32,60,61025ae37ef11b136ea224fe,,,,,,,,,,,,,,,,,,,,,,,,,,,,,,,,,,,,,,,,,,,,,,
,,,,,,,,,,,,33,FF,99.20001292,43.19996979,1,0,0,response1disk_5,6,3.938,6.400011539,4.799993634,1,0,0,rectangle_8,-40.79998916,-74.40000755,1,0,0,-3.199988604,-3.200006485,1,0,0,0,1,1,0,1,5ee297bb2f43f7410c49f6ef,61036cc953b06843ea5920fd,2021-07-29_23h10.57.989,Simcolourproject_2stim_asymm_v5,2020.2.10,Win32,60,61025ae37ef11b136ea224fe,response5disk_7,3,3.5134,3,"[2,5]",rectangle_4,,,,,,,,,,,,,,,,,,,,,,,,,,,,,,,,,,,,,,,,
,,,,,,,,,,,,114,PF,-51.19998932,-107.200008,1,0,0,response5disk_5,3,5.2432,-1.59998858,-1.600006461,1,0,0,rectangle_8,-1.59998858,-1.600006461,1,0,0,-1.59998858,-1.600006461,1,0,0,0,2,2,6,1,5ee297bb2f43f7410c49f6ef,61036cc953b06843ea5920fd,2021-07-29_23h10.57.989,Simcolourproject_2stim_asymm_v5,2020.2.10,Win32,60,61025ae37ef11b136ea224fe,,,,,,,,,,,,,,,,,,,,,,,,,,,,,,,,,,,,,,,,,,,,,,
,,,,,,,,,,,,43,PF,-103.1999901,32.79999405,1,0,0,response7disk_5,1,5.0059,-16.79998881,13.59999377,1,0,0,rectangle_8,-16.79998881,13.59999377,1,0,0,-16.79998881,13.59999377,1,0,0,0,3,3,4,1,5ee297bb2f43f7410c49f6ef,61036cc953b06843ea5920fd,2021-07-29_23h10.57.989,Simcolourproject_2stim_asymm_v5,2020.2.10,Win32,60,61025ae37ef11b136ea224fe,,,,,,,,,,,,,,,,,,,,,,,,,,,,,,,,,,,,,,,,,,,,,,
,,,,,,,,,,,,133,FF,-104.7999901,52.79999435,1,0,0,response7disk_5,1,1.1457,7.200011551,4.799993634,1,0,0,rectangle_8,-36.7999891,-92.80000782,1,0,0,-2.399939764,10.39999372,1,0,0,0,4,4,5,1,5ee297bb2f43f7410c49f6ef,61036cc953b06843ea5920fd,2021-07-29_23h10.57.989,Simcolourproject_2stim_asymm_v5,2020.2.10,Win32,60,61025ae37ef11b136ea224fe,response5disk_7,3,1.9173,3,"[2,5]",rectangle_4,,,,,,,,,,,,,,,,,,,,,,,,,,,,,,,,,,,,,,,,
,,,,,,,,,,,,110,FF,94.40001285,47.99999428,1,0,0,response1disk_5,6,1.5376,0.800011456,11.99999374,1,0,0,rectangle_8,0.800011456,11.99999374,1,0,0,0.800011456,11.99999374,1,0,0,0,5,5,3,1,5ee297bb2f43f7410c49f6ef,61036cc953b06843ea5920fd,2021-07-29_23h10.57.989,Simcolourproject_2stim_asymm_v5,2020.2.10,Win32,60,61025ae37ef11b136ea224fe,,,,,,,,,,,,,,,,,,,,,,,,,,,,,,,,,,,,,,,,,,,,,,
,,,,,,,,,,,,146,PF,-42.39994036,-100.0000079,1,0,0,response5disk_5,3,2.5765,4.800011516,6.399993658,1,0,0,rectangle_8,4.800011516,6.399993658,1,0,0,4.800011516,6.399993658,1,0,0,0,6,6,1,1,5ee297bb2f43f7410c49f6ef,61036cc953b06843ea5920fd,2021-07-29_23h10.57.989,Simcolourproject_2stim_asymm_v5,2020.2.10,Win32,60,61025ae37ef11b136ea224fe,,,,,,,,,,,,,,,,,,,,,,,,,,,,,,,,,,,,,,,,,,,,,,
,,,,,,,,,,,,,FF,,,,,,,,5.3422,,,,,,,,,,,,,,,,,,,,,,5ee297bb2f43f7410c49f6ef,61036cc953b06843ea5920fd,2021-07-29_23h10.57.989,Simcolourproject_2stim_asymm_v5,2020.2.10,Win32,60,61025ae37ef11b136ea224fe,,,,,,,space,2.0557,2065,105.600013,28.79999399,1,0,0,response1disk,,6,-7.199988663,3.999993622,1,0,0,rectangle,-7.199988663,3.999993622,1,0,0,-7.199988663,3.999993622,1,0,0,0,0,0,117,1,,,,,,,,
,,,,,,,,,,,,,FF,,,,,,,,1.1876,,,,,,,,,,,,,,,,,,,,,,5ee297bb2f43f7410c49f6ef,61036cc953b06843ea5920fd,2021-07-29_23h10.57.989,Simcolourproject_2stim_asymm_v5,2020.2.10,Win32,60,61025ae37ef11b136ea224fe,,,,,,,,,4011,48.00001216,99.19997063,1,0,0,response1disk,,7,-7.999988675,4.799993634,1,0,0,rectangle,-7.999988675,4.799993634,1,0,0,-7.999988675,4.799993634,1,0,0,0,1,1,23,1,,,,,,,,
,,,,,,,,,,,,,FF,,,,,,,,2.8781,,,,,,,,,,,,,,,,,,,,,,5ee297bb2f43f7410c49f6ef,61036cc953b06843ea5920fd,2021-07-29_23h10.57.989,Simcolourproject_2stim_asymm_v5,2020.2.10,Win32,60,61025ae37ef11b136ea224fe,,,,,,,,,1246,99.20001292,-24.00000679,1,0,0,response3disk,,5,-10.39993988,7.19999367,1,0,0,rectangle,-10.39993988,7.19999367,1,0,0,-10.39993988,7.19999367,1,0,0,0,2,2,133,1,,,,,,,,
,,,,,,,,,,,,,FF,,,,,,,,1.7286,,,,,,,,,,,,,,,,,,,,,,5ee297bb2f43f7410c49f6ef,61036cc953b06843ea5920fd,2021-07-29_23h10.57.989,Simcolourproject_2stim_asymm_v5,2020.2.10,Win32,60,61025ae37ef11b136ea224fe,,,,,,,,,377,60.80001235,-88.00000775,1,0,0,response3disk,,4,-7.199988663,-2.400006473,1,0,0,rectangle,-7.199988663,-2.400006473,1,0,0,-7.199988663,-2.400006473,1,0,0,0,3,3,52,1,,,,,,,,
,,,,,,,,,,,,,FF,,,,,,,,1.6392,,,,,,,,,,,,,,,,,,,,,,5ee297bb2f43f7410c49f6ef,61036cc953b06843ea5920fd,2021-07-29_23h10.57.989,Simcolourproject_2stim_asymm_v5,2020.2.10,Win32,60,61025ae37ef11b136ea224fe,,,,,,,,,567,84.80001271,41.59999418,1,0,0,response1disk,,6,27.20001185,5.599993646,1,0,0,rectangle,27.20001185,5.599993646,1,0,0,27.20001185,5.599993646,1,0,0,0,4,4,62,1,,,,,,,,
,,,,,,,,,,,,,FF,,,,,,,,1.8192,,,,,,,,,,,,,,,,,,,,,,5ee297bb2f43f7410c49f6ef,61036cc953b06843ea5920fd,2021-07-29_23h10.57.989,Simcolourproject_2stim_asymm_v5,2020.2.10,Win32,60,61025ae37ef11b136ea224fe,,,,,,,,,693,-41.59998918,-78.40000761,1,0,0,response5disk,,3,-9.599988699,-8.800006568,1,0,0,rectangle,-9.599988699,-8.800006568,1,0,0,-9.599988699,-8.800006568,1,0,0,0,5,5,127,1,,,,,,,,
,,,,,,,,,,,,,FF,,,,,,,,1.7161,,,,,,,,,,,,,,,,,,,,,,5ee297bb2f43f7410c49f6ef,61036cc953b06843ea5920fd,2021-07-29_23h10.57.989,Simcolourproject_2stim_asymm_v5,2020.2.10,Win32,60,61025ae37ef11b136ea224fe,,,,,,,,,29,86.40001273,40.79999417,1,0,0,response1disk,,6,-0.799988568,1.599993587,1,0,0,rectangle,-0.799988568,1.599993587,1,0,0,-0.799988568,1.599993587,1,0,0,0,6,6,58,1,,,,,,,,
,,,,,,,,,,,,,FF,,,,,,,,1.4374,,,,,,,,,,,,,,,,,,,,,,5ee297bb2f43f7410c49f6ef,61036cc953b06843ea5920fd,2021-07-29_23h10.57.989,Simcolourproject_2stim_asymm_v5,2020.2.10,Win32,60,61025ae37ef11b136ea224fe,,,,,,,,,143,104.000013,43.19996979,1,0,0,response1disk,,6,-11.19998872,-0.800006449,1,0,0,rectangle,-11.19998872,-0.800006449,1,0,0,-11.19998872,-0.800006449,1,0,0,0,7,7,66,1,,,,,,,,
,,,,,,,,,,,,,FF,,,,,,,,1.2919,,,,,,,,,,,,,,,,,,,,,,5ee297bb2f43f7410c49f6ef,61036cc953b06843ea5920fd,2021-07-29_23h10.57.989,Simcolourproject_2stim_asymm_v5,2020.2.10,Win32,60,61025ae37ef11b136ea224fe,,,,,,,,,3361,47.20001215,95.19997057,1,0,0,response1disk,,7,-11.19998872,-2.400006473,1,0,0,rectangle,-11.19998872,-2.400006473,1,0,0,-11.19998872,-2.400006473,1,0,0,0,8,8,43,1,,,,,,,,
,,,,,,,,,,,,,FF,,,,,,,,0.6817,,,,,,,,,,,,,,,,,,,,,,5ee297bb2f43f7410c49f6ef,61036cc953b06843ea5920fd,2021-07-29_23h10.57.989,Simcolourproject_2stim_asymm_v5,2020.2.10,Win32,60,61025ae37ef11b136ea224fe,,,,,,,,,1806,42.40001208,89.5999949,1,0,0,response1disk,,7,-22.39994006,-5.600006521,1,0,0,rectangle,-22.39994006,-5.600006521,1,0,0,-22.39994006,-5.600006521,1,0,0,0,9,9,7,1,,,,,,,,
,,,,,,,,,,,,,FF,,,,,,,,1.5788,,,,,,,,,,,,,,,,,,,,,,5ee297bb2f43f7410c49f6ef,61036cc953b06843ea5920fd,2021-07-29_23h10.57.989,Simcolourproject_2stim_asymm_v5,2020.2.10,Win32,60,61025ae37ef11b136ea224fe,,,,,,,,,1297,-91.99998993,-39.20000702,1,0,0,response5disk,,2,2.40001148,6.399993658,1,0,0,rectangle,2.40001148,6.399993658,1,0,0,2.40001148,6.399993658,1,0,0,0,10,10,77,1,,,,,,,,
,,,,,,,,,,,,,FF,,,,,,,,1.7195,,,,,,,,,,,,,,,,,,,,,,5ee297bb2f43f7410c49f6ef,61036cc953b06843ea5920fd,2021-07-29_23h10.57.989,Simcolourproject_2stim_asymm_v5,2020.2.10,Win32,60,61025ae37ef11b136ea224fe,,,,,,,,,2652,94.40001285,-48.80000716,1,0,0,response3disk,,5,15.20001167,-7.200006545,1,0,0,rectangle,-44.79998922,119.1999709,1,0,0,3.200011492,4.799993634,1,0,0,0,11,11,82,1,,response7disk_3,TRUE,0,0,"[52,77,110,145,121,147,318,18,269,133,56,164,28,175,310,164,262,12,91,16]",1.8616,rectangle
,,,,,,,,,,,,,FF,,,,,,,,1.3751,,,,,,,,,,,,,,,,,,,,,,5ee297bb2f43f7410c49f6ef,61036cc953b06843ea5920fd,2021-07-29_23h10.57.989,Simcolourproject_2stim_asymm_v5,2020.2.10,Win32,60,61025ae37ef11b136ea224fe,,,,,,,,,1,-99.99999005,57.59999442,1,0,0,response7disk,,1,-7.999988675,-0.800006449,1,0,0,rectangle,-7.999988675,-0.800006449,1,0,0,-7.999988675,-0.800006449,1,0,0,0,12,12,100,1,,,,,,,,
,,,,,,,,,,,,,FF,,,,,,,,1.5417,,,,,,,,,,,,,,,,,,,,,,5ee297bb2f43f7410c49f6ef,61036cc953b06843ea5920fd,2021-07-29_23h10.57.989,Simcolourproject_2stim_asymm_v5,2020.2.10,Win32,60,61025ae37ef11b136ea224fe,,,,,,,,,3271,107.200013,49.5999943,1,0,0,response1disk,,6,12.80001163,7.999993682,1,0,0,rectangle,12.80001163,7.999993682,1,0,0,12.80001163,7.999993682,1,0,0,0,13,13,110,1,,,,,,,,
,,,,,,,,,,,,,FF,,,,,,,,1.3475,,,,,,,,,,,,,,,,,,,,,,5ee297bb2f43f7410c49f6ef,61036cc953b06843ea5920fd,2021-07-29_23h10.57.989,Simcolourproject_2stim_asymm_v5,2020.2.10,Win32,60,61025ae37ef11b136ea224fe,,,,,,,,,4025,49.60006101,-72.80000752,1,0,0,response3disk,,4,-2.399939764,-7.200006545,1,0,0,rectangle,-2.399939764,-7.200006545,1,0,0,-2.399939764,-7.200006545,1,0,0,0,14,14,91,1,,,,,,,,
,,,,,,,,,,,,,FF,,,,,,,,1.3473,,,,,,,,,,,,,,,,,,,,,,5ee297bb2f43f7410c49f6ef,61036cc953b06843ea5920fd,2021-07-29_23h10.57.989,Simcolourproject_2stim_asymm_v5,2020.2.10,Win32,60,61025ae37ef11b136ea224fe,,,,,,,,,2584,75.20001256,87.99999487,1,0,0,response1disk,,7,-0.799988568,1.599993587,1,0,0,rectangle,-29.599989,-84.00000769,1,0,0,2.40001148,15.9999938,1,0,0,0,15,15,90,1,,response5disk_3,TRUE,3,3,"[52,77,110,145,121,147,318,18,269,133,56,164,28,175,310,164,262,12,91,16]",1.7708,rectangle
,,,,,,,,,,,,,FF,,,,,,,,5.2987,,,,,,,,,,,,,,,,,,,,,,5ee297bb2f43f7410c49f6ef,61036cc953b06843ea5920fd,2021-07-29_23h10.57.989,Simcolourproject_2stim_asymm_v5,2020.2.10,Win32,60,61025ae37ef11b136ea224fe,,,,,,,,,1816,-83.1999898,-42.40000707,1,0,0,response5disk,,2,27.20001185,10.39999372,1,0,0,rectangle,27.20001185,10.39999372,1,0,0,27.20001185,10.39999372,1,0,0,0,16,16,48,1,,,,,,,,
,,,,,,,,,,,,,FF,,,,,,,,1.1532,,,,,,,,,,,,,,,,,,,,,,5ee297bb2f43f7410c49f6ef,61036cc953b06843ea5920fd,2021-07-29_23h10.57.989,Simcolourproject_2stim_asymm_v5,2020.2.10,Win32,60,61025ae37ef11b136ea224fe,,,,,,,,,2720,-96.79999,41.59999418,1,0,0,response7disk,,1,-37.59998912,5.599993646,1,0,0,rectangle,-117.5999903,51.19996991,1,0,0,4.800011516,4.799993634,1,0,0,0,17,17,123,1,,response7disk_3,TRUE,1,1,"[52,77,110,145,121,147,318,18,269,133,56,164,28,175,310,164,262,12,91,16]",1.5626,rectangle
,,,,,,,,,,,,,FF,,,,,,,,2.5217,,,,,,,,,,,,,,,,,,,,,,5ee297bb2f43f7410c49f6ef,61036cc953b06843ea5920fd,2021-07-29_23h10.57.989,Simcolourproject_2stim_asymm_v5,2020.2.10,Win32,60,61025ae37ef11b136ea224fe,,,,,,,,,1605,-95.99998999,19.99999386,1,0,0,response7disk,,1,-7.999988675,-8.000006557,1,0,0,rectangle,-7.999988675,-8.000006557,1,0,0,-7.999988675,-8.000006557,1,0,0,0,18,18,103,1,,,,,,,,
,,,,,,,,,,,,,FF,,,,,,,,3.0035,,,,,,,,,,,,,,,,,,,,,,5ee297bb2f43f7410c49f6ef,61036cc953b06843ea5920fd,2021-07-29_23h10.57.989,Simcolourproject_2stim_asymm_v5,2020.2.10,Win32,60,61025ae37ef11b136ea224fe,,,,,,,,,627,32.80001193,-92.80000782,1,0,0,response3disk,,4,-7.999988675,-6.4373E-06,1,0,0,rectangle,-7.999988675,-6.4373E-06,1,0,0,-7.999988675,-6.4373E-06,1,0,0,0,19,19,119,1,,,,,,,,
,,,,,,,,,,,,,FF,,,,,,,,1.2154,,,,,,,,,,,,,,,,,,,,,,5ee297bb2f43f7410c49f6ef,61036cc953b06843ea5920fd,2021-07-29_23h10.57.989,Simcolourproject_2stim_asymm_v5,2020.2.10,Win32,60,61025ae37ef11b136ea224fe,,,,,,,,,1036,-94.39994113,-49.60000718,1,0,0,response5disk,,2,-22.39994006,9.599993706,1,0,0,rectangle,-22.39994006,9.599993706,1,0,0,-22.39994006,9.599993706,1,0,0,0,20,20,6,1,,,,,,,,
,,,,,,,,,,,,,FF,,,,,,,,1.2922,,,,,,,,,,,,,,,,,,,,,,5ee297bb2f43f7410c49f6ef,61036cc953b06843ea5920fd,2021-07-29_23h10.57.989,Simcolourproject_2stim_asymm_v5,2020.2.10,Win32,60,61025ae37ef11b136ea224fe,,,,,,,,,1657,53.60001224,95.99999499,1,0,0,response1disk,,7,-2.399939764,-1.600006461,1,0,0,rectangle,-2.399939764,-1.600006461,1,0,0,-2.399939764,-1.600006461,1,0,0,0,21,21,81,1,,,,,,,,
,,,,,,,,,,,,,FF,,,,,,,,0.9579,,,,,,,,,,,,,,,,,,,,,,5ee297bb2f43f7410c49f6ef,61036cc953b06843ea5920fd,2021-07-29_23h10.57.989,Simcolourproject_2stim_asymm_v5,2020.2.10,Win32,60,61025ae37ef11b136ea224fe,,,,,,,,,3022,44.0000121,76.79999471,1,0,0,response1disk,,7,-11.99998873,-8.800006568,1,0,0,rectangle,-11.99998873,-8.800006568,1,0,0,-11.99998873,-8.800006568,1,0,0,0,22,22,143,1,,,,,,,,
,,,,,,,,,,,,,FF,,,,,,,,2.1073,,,,,,,,,,,,,,,,,,,,,,5ee297bb2f43f7410c49f6ef,61036cc953b06843ea5920fd,2021-07-29_23h10.57.989,Simcolourproject_2stim_asymm_v5,2020.2.10,Win32,60,61025ae37ef11b136ea224fe,,,,,,,,,1935,81.60001266,60.79999447,1,0,0,response1disk,,6,-17.59998882,1.599993587,1,0,0,rectangle,-17.59998882,1.599993587,1,0,0,-17.59998882,1.599993587,1,0,0,0,23,23,11,1,,,,,,,,
,,,,,,,,,,,,,FF,,,,,,,,1.8403,,,,,,,,,,,,,,,,,,,,,,5ee297bb2f43f7410c49f6ef,61036cc953b06843ea5920fd,2021-07-29_23h10.57.989,Simcolourproject_2stim_asymm_v5,2020.2.10,Win32,60,61025ae37ef11b136ea224fe,,,,,,,,,3560,-76.7999897,-49.60000718,1,0,0,response5disk,,2,35.20001197,11.19999373,1,0,0,rectangle,35.20001197,11.19999373,1,0,0,35.20001197,11.19999373,1,0,0,0,24,24,98,1,,,,,,,,
,,,,,,,,,,,,,FF,,,,,,,,1.8542,,,,,,,,,,,,,,,,,,,,,,5ee297bb2f43f7410c49f6ef,61036cc953b06843ea5920fd,2021-07-29_23h10.57.989,Simcolourproject_2stim_asymm_v5,2020.2.10,Win32,60,61025ae37ef11b136ea224fe,,,,,,,,,3870,-47.19998926,-83.20000768,1,0,0,response5disk,,3,-3.199988604,3.999993622,1,0,0,rectangle,-3.199988604,3.999993622,1,0,0,-3.199988604,3.999993622,1,0,0,0,25,25,146,1,,,,,,,,
,,,,,,,,,,,,,FF,,,,,,,,0.8957,,,,,,,,,,,,,,,,,,,,,,5ee297bb2f43f7410c49f6ef,61036cc953b06843ea5920fd,2021-07-29_23h10.57.989,Simcolourproject_2stim_asymm_v5,2020.2.10,Win32,60,61025ae37ef11b136ea224fe,,,,,,,,,322,61.60001236,23.19996949,1,0,0,response1disk,,6,-3.999988616,-0.800006449,1,0,0,rectangle,-3.999988616,-0.800006449,1,0,0,-3.999988616,-0.800006449,1,0,0,0,26,26,96,1,,,,,,,,
,,,,,,,,,,,,,FF,,,,,,,,1.2219,,,,,,,,,,,,,,,,,,,,,,5ee297bb2f43f7410c49f6ef,61036cc953b06843ea5920fd,2021-07-29_23h10.57.989,Simcolourproject_2stim_asymm_v5,2020.2.10,Win32,60,61025ae37ef11b136ea224fe,,,,,,,,,160,78.40001261,37.59999412,1,0,0,response1disk,,6,12.00001162,-9.60000658,1,0,0,rectangle,-58.3999406,91.19997051,1,0,0,6.400011539,9.599993706,1,0,0,0,27,27,155,1,,response7disk_3,TRUE,0,0,"[52,77,110,145,121,147,318,18,269,133,56,164,28,175,310,164,262,12,91,16]",1.7428,rectangle
,,,,,,,,,,,,,FF,,,,,,,,1.2569,,,,,,,,,,,,,,,,,,,,,,5ee297bb2f43f7410c49f6ef,61036cc953b06843ea5920fd,2021-07-29_23h10.57.989,Simcolourproject_2stim_asymm_v5,2020.2.10,Win32,60,61025ae37ef11b136ea224fe,,,,,,,,,4281,35.20001197,-84.00000769,1,0,0,response3disk,,4,-15.99998879,-3.200006485,1,0,0,rectangle,-15.99998879,-3.200006485,1,0,0,-15.99998879,-3.200006485,1,0,0,0,28,28,25,1,,,,,,,,
,,,,,,,,,,,,,FF,,,,,,,,1.2644,,,,,,,,,,,,,,,,,,,,,,5ee297bb2f43f7410c49f6ef,61036cc953b06843ea5920fd,2021-07-29_23h10.57.989,Simcolourproject_2stim_asymm_v5,2020.2.10,Win32,60,61025ae37ef11b136ea224fe,,,,,,,,,4147,-83.99998981,-35.20000696,1,0,0,response5disk,,2,5.600060356,1.599993587,1,0,0,rectangle,5.600060356,1.599993587,1,0,0,5.600060356,1.599993587,1,0,0,0,29,29,40,1,,,,,,,,
,,,,,,,,,,,,,FF,,,,,,,,3.702,,,,,,,,,,,,,,,,,,,,,,5ee297bb2f43f7410c49f6ef,61036cc953b06843ea5920fd,2021-07-29_23h10.57.989,Simcolourproject_2stim_asymm_v5,2020.2.10,Win32,60,61025ae37ef11b136ea224fe,,,,,,,,,3110,92.00001281,36.79999411,1,0,0,response1disk,,6,10.4000116,2.399993598,1,0,0,rectangle,10.4000116,2.399993598,1,0,0,10.4000116,2.399993598,1,0,0,0,30,30,24,1,,,,,,,,
,,,,,,,,,,,,,FF,,,,,,,,0.8262,,,,,,,,,,,,,,,,,,,,,,5ee297bb2f43f7410c49f6ef,61036cc953b06843ea5920fd,2021-07-29_23h10.57.989,Simcolourproject_2stim_asymm_v5,2020.2.10,Win32,60,61025ae37ef11b136ea224fe,,,,,,,,,2359,-80.79998976,44.79999423,1,0,0,response7disk,,1,3.200011492,-2.400006473,1,0,0,rectangle,3.200011492,-2.400006473,1,0,0,3.200011492,-2.400006473,1,0,0,0,31,31,34,1,,,,,,,,
,,,,,,,,,,,,,FF,,,,,,,,2.0072,,,,,,,,,,,,,,,,,,,,,,5ee297bb2f43f7410c49f6ef,61036cc953b06843ea5920fd,2021-07-29_23h10.57.989,Simcolourproject_2stim_asymm_v5,2020.2.10,Win32,60,61025ae37ef11b136ea224fe,,,,,,,,,1128,54.40001225,99.99999505,1,0,0,response1disk,,7,6.400011539,15.9999938,1,0,0,rectangle,6.400011539,15.9999938,1,0,0,6.400011539,15.9999938,1,0,0,0,32,32,14,1,,,,,,,,
,,,,,,,,,,,,,FF,,,,,,,,1.0425,,,,,,,,,,,,,,,,,,,,,,5ee297bb2f43f7410c49f6ef,61036cc953b06843ea5920fd,2021-07-29_23h10.57.989,Simcolourproject_2stim_asymm_v5,2020.2.10,Win32,60,61025ae37ef11b136ea224fe,,,,,,,,,1428,40.00001204,73.59999466,1,0,0,response1disk,,7,-2.399939764,-4.000006497,1,0,0,rectangle,-2.399939764,-4.000006497,1,0,0,-2.399939764,-4.000006497,1,0,0,0,33,33,92,1,,,,,,,,
,,,,,,,,,,,,,FF,,,,,,,,1.2019,,,,,,,,,,,,,,,,,,,,,,5ee297bb2f43f7410c49f6ef,61036cc953b06843ea5920fd,2021-07-29_23h10.57.989,Simcolourproject_2stim_asymm_v5,2020.2.10,Win32,60,61025ae37ef11b136ea224fe,,,,,,,,,1866,88.00001276,35.9999941,1,0,0,response1disk,,6,17.60006053,-13.60000664,1,0,0,rectangle,17.60006053,-13.60000664,1,0,0,17.60006053,-13.60000664,1,0,0,0,34,34,141,1,,,,,,,,
,,,,,,,,,,,,,FF,,,,,,,,1.8609,,,,,,,,,,,,,,,,,,,,,,5ee297bb2f43f7410c49f6ef,61036cc953b06843ea5920fd,2021-07-29_23h10.57.989,Simcolourproject_2stim_asymm_v5,2020.2.10,Win32,60,61025ae37ef11b136ea224fe,,,,,,,,,1383,-48.79998928,-76.00000757,1,0,0,response5disk,,3,-12.79998875,-8.800006568,1,0,0,rectangle,-12.79998875,-8.800006568,1,0,0,-12.79998875,-8.800006568,1,0,0,0,35,35,78,1,,,,,,,,
,,,,,,,,,,,,,FF,,,,,,,,3.0208,,,,,,,,,,,,,,,,,,,,,,5ee297bb2f43f7410c49f6ef,61036cc953b06843ea5920fd,2021-07-29_23h10.57.989,Simcolourproject_2stim_asymm_v5,2020.2.10,Win32,60,61025ae37ef11b136ea224fe,,,,,,,,,2024,46.40001214,-78.40000761,1,0,0,response3disk,,4,-12.79998875,-9.60000658,1,0,0,rectangle,-12.79998875,-9.60000658,1,0,0,-12.79998875,-9.60000658,1,0,0,0,36,36,150,1,,,,,,,,
,,,,,,,,,,,,,FF,,,,,,,,2.6039,,,,,,,,,,,,,,,,,,,,,,5ee297bb2f43f7410c49f6ef,61036cc953b06843ea5920fd,2021-07-29_23h10.57.989,Simcolourproject_2stim_asymm_v5,2020.2.10,Win32,60,61025ae37ef11b136ea224fe,,,,,,,,,1067,73.60001254,-44.8000071,1,0,0,response3disk,,5,11.20001161,-7.200006545,1,0,0,rectangle,11.20001161,-7.200006545,1,0,0,11.20001161,-7.200006545,1,0,0,0,37,37,39,1,,,,,,,,
,,,,,,,,,,,,,FF,,,,,,,,1.8474,,,,,,,,,,,,,,,,,,,,,,5ee297bb2f43f7410c49f6ef,61036cc953b06843ea5920fd,2021-07-29_23h10.57.989,Simcolourproject_2stim_asymm_v5,2020.2.10,Win32,60,61025ae37ef11b136ea224fe,,,,,,,,,652,121.6000133,59.19997003,1,0,0,response1disk,,6,25.60006065,1.599993587,1,0,0,rectangle,25.60006065,1.599993587,1,0,0,25.60006065,1.599993587,1,0,0,0,38,38,74,1,,,,,,,,
,,,,,,,,,,,,,FF,,,,,,,,0.8059,,,,,,,,,,,,,,,,,,,,,,5ee297bb2f43f7410c49f6ef,61036cc953b06843ea5920fd,2021-07-29_23h10.57.989,Simcolourproject_2stim_asymm_v5,2020.2.10,Win32,60,61025ae37ef11b136ea224fe,,,,,,,,,2883,68.00001246,51.19996991,1,0,0,response1disk,,6,-20.79998887,2.399993598,1,0,0,rectangle,-20.79998887,2.399993598,1,0,0,-20.79998887,2.399993598,1,0,0,0,39,39,112,1,,,,,,,,
,,,,,,,,,,,,,FF,,,,,,,,1.2847,,,,,,,,,,,,,,,,,,,,,,5ee297bb2f43f7410c49f6ef,61036cc953b06843ea5920fd,2021-07-29_23h10.57.989,Simcolourproject_2stim_asymm_v5,2020.2.10,Win32,60,61025ae37ef11b136ea224fe,,,,,,,,,3703,41.60006089,-80.80000764,1,0,0,response3disk,,4,-13.59998876,4.799993634,1,0,0,rectangle,-13.59998876,4.799993634,1,0,0,-13.59998876,4.799993634,1,0,0,0,40,40,147,1,,,,,,,,
,,,,,,,,,,,,,FF,,,,,,,,1.66,,,,,,,,,,,,,,,,,,,,,,5ee297bb2f43f7410c49f6ef,61036cc953b06843ea5920fd,2021-07-29_23h10.57.989,Simcolourproject_2stim_asymm_v5,2020.2.10,Win32,60,61025ae37ef11b136ea224fe,,,,,,,,,3973,-95.99998999,-24.00000679,1,0,0,response5disk,,2,1.14441E-05,3.19999361,1,0,0,rectangle,1.14441E-05,3.19999361,1,0,0,1.14441E-05,3.19999361,1,0,0,0,41,41,16,1,,,,,,,,
,,,,,,,,,,,,,FF,,,,,,,,1.6458,,,,,,,,,,,,,,,,,,,,,,5ee297bb2f43f7410c49f6ef,61036cc953b06843ea5920fd,2021-07-29_23h10.57.989,Simcolourproject_2stim_asymm_v5,2020.2.10,Win32,60,61025ae37ef11b136ea224fe,,,,,,,,,1181,89.60001278,-27.20000684,1,0,0,response3disk,,5,8.000011563,-6.400006533,1,0,0,rectangle,8.000011563,-6.400006533,1,0,0,8.000011563,-6.400006533,1,0,0,0,42,42,102,1,,,,,,,,
,,,,,,,,,,,,,FF,,,,,,,,0.9723,,,,,,,,,,,,,,,,,,,,,,5ee297bb2f43f7410c49f6ef,61036cc953b06843ea5920fd,2021-07-29_23h10.57.989,Simcolourproject_2stim_asymm_v5,2020.2.10,Win32,60,61025ae37ef11b136ea224fe,,,,,,,,,2229,-91.99998993,50.39999431,1,0,0,response7disk,,1,-8.799988687,-1.600006461,1,0,0,rectangle,-8.799988687,-1.600006461,1,0,0,-8.799988687,-1.600006461,1,0,0,0,43,43,154,1,,,,,,,,
,,,,,,,,,,,,,FF,,,,,,,,4.0279,,,,,,,,,,,,,,,,,,,,,,5ee297bb2f43f7410c49f6ef,61036cc953b06843ea5920fd,2021-07-29_23h10.57.989,Simcolourproject_2stim_asymm_v5,2020.2.10,Win32,60,61025ae37ef11b136ea224fe,,,,,,,,,374,-33.59998906,-68.00000745,1,0,0,response5disk,,3,12.80001163,-11.2000066,1,0,0,rectangle,12.80001163,-11.2000066,1,0,0,12.80001163,-11.2000066,1,0,0,0,44,44,0,1,,,,,,,,
,,,,,,,,,,,,,FF,,,,,,,,1.9515,,,,,,,,,,,,,,,,,,,,,,5ee297bb2f43f7410c49f6ef,61036cc953b06843ea5920fd,2021-07-29_23h10.57.989,Simcolourproject_2stim_asymm_v5,2020.2.10,Win32,60,61025ae37ef11b136ea224fe,,,,,,,,,3505,-34.39994024,-83.20000768,1,0,0,response5disk,,3,10.4000116,7.19999367,1,0,0,rectangle,10.4000116,7.19999367,1,0,0,10.4000116,7.19999367,1,0,0,0,45,45,53,1,,,,,,,,
,,,,,,,,,,,,,FF,,,,,,,,1.9913,,,,,,,,,,,,,,,,,,,,,,5ee297bb2f43f7410c49f6ef,61036cc953b06843ea5920fd,2021-07-29_23h10.57.989,Simcolourproject_2stim_asymm_v5,2020.2.10,Win32,60,61025ae37ef11b136ea224fe,,,,,,,,,2815,67.20001245,40.79999417,1,0,0,response1disk,,6,-23.99998891,3.999993622,1,0,0,rectangle,-23.99998891,3.999993622,1,0,0,-23.99998891,3.999993622,1,0,0,0,46,46,73,1,,,,,,,,
,,,,,,,,,,,,,FF,,,,,,,,0.8203,,,,,,,,,,,,,,,,,,,,,,5ee297bb2f43f7410c49f6ef,61036cc953b06843ea5920fd,2021-07-29_23h10.57.989,Simcolourproject_2stim_asymm_v5,2020.2.10,Win32,60,61025ae37ef11b136ea224fe,,,,,,,,,2951,40.80001205,-104.000008,1,0,0,response3disk,,4,-10.39993988,-5.600006521,1,0,0,rectangle,-10.39993988,-5.600006521,1,0,0,-10.39993988,-5.600006521,1,0,0,0,47,47,50,1,,,,,,,,
,,,,,,,,,,,,,FF,,,,,,,,1.0276,,,,,,,,,,,,,,,,,,,,,,5ee297bb2f43f7410c49f6ef,61036cc953b06843ea5920fd,2021-07-29_23h10.57.989,Simcolourproject_2stim_asymm_v5,2020.2.10,Win32,60,61025ae37ef11b136ea224fe,,,,,,,,,3221,80.00001264,92.79999495,1,0,0,response1disk,,7,8.800011575,0.799993575,1,0,0,rectangle,8.800011575,0.799993575,1,0,0,8.800011575,0.799993575,1,0,0,0,48,48,152,1,,,,,,,,
,,,,,,,,,,,,,FF,,,,,,,,1.6489,,,,,,,,,,,,,,,,,,,,,,5ee297bb2f43f7410c49f6ef,61036cc953b06843ea5920fd,2021-07-29_23h10.57.989,Simcolourproject_2stim_asymm_v5,2020.2.10,Win32,60,61025ae37ef11b136ea224fe,,,,,,,,,4249,52.00001222,-80.00000763,1,0,0,response3disk,,4,-1.59998858,14.39999378,1,0,0,rectangle,-1.59998858,14.39999378,1,0,0,-1.59998858,14.39999378,1,0,0,0,49,49,59,1,,,,,,,,
,,,,,,,,,,,,,FF,,,,,,,,1.5601,,,,,,,,,,,,,,,,,,,,,,5ee297bb2f43f7410c49f6ef,61036cc953b06843ea5920fd,2021-07-29_23h10.57.989,Simcolourproject_2stim_asymm_v5,2020.2.10,Win32,60,61025ae37ef11b136ea224fe,,,,,,,,,497,53.60001224,80.79999477,1,0,0,response1disk,,7,11.20001161,10.39999372,1,0,0,rectangle,11.20001161,10.39999372,1,0,0,11.20001161,10.39999372,1,0,0,0,50,50,5,1,,,,,,,,
,,,,,,,,,,,,,FF,,,,,,,,1.4789,,,,,,,,,,,,,,,,,,,,,,5ee297bb2f43f7410c49f6ef,61036cc953b06843ea5920fd,2021-07-29_23h10.57.989,Simcolourproject_2stim_asymm_v5,2020.2.10,Win32,60,61025ae37ef11b136ea224fe,,,,,,,,,3606,40.80001205,-100.8000079,1,0,0,response3disk,,4,-25.59998894,-5.600006521,1,0,0,rectangle,108.0000131,43.19996979,1,0,0,14.40001166,3.999993622,1,0,0,0,51,51,89,1,,response1disk_3,TRUE,6,6,"[52,77,110,145,121,147,318,18,269,133,56,164,28,175,310,164,262,12,91,16]",2.0002,rectangle
,,,,,,,,,,,,,FF,,,,,,,,0.9738,,,,,,,,,,,,,,,,,,,,,,5ee297bb2f43f7410c49f6ef,61036cc953b06843ea5920fd,2021-07-29_23h10.57.989,Simcolourproject_2stim_asymm_v5,2020.2.10,Win32,60,61025ae37ef11b136ea224fe,,,,,,,,,1712,30.4000119,54.39999437,1,0,0,response1disk,,7,2.40001148,-10.40000659,1,0,0,rectangle,2.40001148,-10.40000659,1,0,0,2.40001148,-10.40000659,1,0,0,0,52,52,47,1,,,,,,,,
,,,,,,,,,,,,,FF,,,,,,,,2.4202,,,,,,,,,,,,,,,,,,,,,,5ee297bb2f43f7410c49f6ef,61036cc953b06843ea5920fd,2021-07-29_23h10.57.989,Simcolourproject_2stim_asymm_v5,2020.2.10,Win32,60,61025ae37ef11b136ea224fe,,,,,,,,,1642,89.60001278,-48.00000715,1,0,0,response3disk,,5,-15.19998878,-4.800006509,1,0,0,rectangle,-15.19998878,-4.800006509,1,0,0,-15.19998878,-4.800006509,1,0,0,0,53,53,49,1,,,,,,,,
,,,,,,,,,,,,,FF,,,,,,,,1.3956,,,,,,,,,,,,,,,,,,,,,,5ee297bb2f43f7410c49f6ef,61036cc953b06843ea5920fd,2021-07-29_23h10.57.989,Simcolourproject_2stim_asymm_v5,2020.2.10,Win32,60,61025ae37ef11b136ea224fe,,,,,,,,,1102,45.60006095,100.7999951,1,0,0,response1disk,,7,4.800011516,-8.800006568,1,0,0,rectangle,4.800011516,-8.800006568,1,0,0,4.800011516,-8.800006568,1,0,0,0,54,54,126,1,,,,,,,,
,,,,,,,,,,,,,FF,,,,,,,,1.7922,,,,,,,,,,,,,,,,,,,,,,5ee297bb2f43f7410c49f6ef,61036cc953b06843ea5920fd,2021-07-29_23h10.57.989,Simcolourproject_2stim_asymm_v5,2020.2.10,Win32,60,61025ae37ef11b136ea224fe,,,,,,,,,3050,-87.99998987,-29.60000688,1,0,0,response5disk,,2,12.00001162,1.599993587,1,0,0,rectangle,54.40001225,-80.00000763,1,0,0,4.000011504,-12.00000662,1,0,0,0,55,55,56,1,,response3disk_3,TRUE,4,4,"[52,77,110,145,121,147,318,18,269,133,56,164,28,175,310,164,262,12,91,16]",1.5551,rectangle
,,,,,,,,,,,,,FF,,,,,,,,0.9651,,,,,,,,,,,,,,,,,,,,,,5ee297bb2f43f7410c49f6ef,61036cc953b06843ea5920fd,2021-07-29_23h10.57.989,Simcolourproject_2stim_asymm_v5,2020.2.10,Win32,60,61025ae37ef11b136ea224fe,,,,,,,,,1017,102.400013,38.39999413,1,0,0,response1disk,,6,-11.99998873,8.799993694,1,0,0,rectangle,-11.99998873,8.799993694,1,0,0,-11.99998873,8.799993694,1,0,0,0,56,56,19,1,,,,,,,,
,,,,,,,,,,,,,FF,,,,,,,,1.8339,,,,,,,,,,,,,,,,,,,,,,5ee297bb2f43f7410c49f6ef,61036cc953b06843ea5920fd,2021-07-29_23h10.57.989,Simcolourproject_2stim_asymm_v5,2020.2.10,Win32,60,61025ae37ef11b136ea224fe,,,,,,,,,135,88.00001276,74.39999467,1,0,0,response1disk,,6,5.600060356,5.599993646,1,0,0,rectangle,5.600060356,5.599993646,1,0,0,5.600060356,5.599993646,1,0,0,0,57,57,71,1,,,,,,,,
,,,,,,,,,,,,,FF,,,,,,,,1.3477,,,,,,,,,,,,,,,,,,,,,,5ee297bb2f43f7410c49f6ef,61036cc953b06843ea5920fd,2021-07-29_23h10.57.989,Simcolourproject_2stim_asymm_v5,2020.2.10,Win32,60,61025ae37ef11b136ea224fe,,,,,,,,,3909,-97.59999001,-31.2000069,1,0,0,response5disk,,2,4.000011504,-8.000006557,1,0,0,rectangle,4.000011504,-8.000006557,1,0,0,4.000011504,-8.000006557,1,0,0,0,58,58,79,1,,,,,,,,
,,,,,,,,,,,,,FF,,,,,,,,1.4792,,,,,,,,,,,,,,,,,,,,,,5ee297bb2f43f7410c49f6ef,61036cc953b06843ea5920fd,2021-07-29_23h10.57.989,Simcolourproject_2stim_asymm_v5,2020.2.10,Win32,60,61025ae37ef11b136ea224fe,,,,,,,,,1937,42.40001208,94.39999497,1,0,0,response1disk,,7,2.40001148,5.599993646,1,0,0,rectangle,2.40001148,5.599993646,1,0,0,2.40001148,5.599993646,1,0,0,0,59,59,115,1,,,,,,,,
,,,,,,,,,,,,,FF,,,,,,,,0.7093,,,,,,,,,,,,,,,,,,,,,,5ee297bb2f43f7410c49f6ef,61036cc953b06843ea5920fd,2021-07-29_23h10.57.989,Simcolourproject_2stim_asymm_v5,2020.2.10,Win32,60,61025ae37ef11b136ea224fe,,,,,,,,,2497,40.00001204,88.79999489,1,0,0,response1disk,,7,-3.999988616,-0.800006449,1,0,0,rectangle,-3.999988616,-0.800006449,1,0,0,-3.999988616,-0.800006449,1,0,0,0,60,60,28,1,,,,,,,,
,,,,,,,,,,,,,FF,,,,,,,,0.9517,,,,,,,,,,,,,,,,,,,,,,5ee297bb2f43f7410c49f6ef,61036cc953b06843ea5920fd,2021-07-29_23h10.57.989,Simcolourproject_2stim_asymm_v5,2020.2.10,Win32,60,61025ae37ef11b136ea224fe,,,,,,,,,25,90.40001279,33.59999406,1,0,0,response1disk,,6,-6.399939823,3.19999361,1,0,0,rectangle,-6.399939823,3.19999361,1,0,0,-6.399939823,3.19999361,1,0,0,0,61,61,109,1,,,,,,,,
,,,,,,,,,,,,,FF,,,,,,,,2.4792,,,,,,,,,,,,,,,,,,,,,,5ee297bb2f43f7410c49f6ef,61036cc953b06843ea5920fd,2021-07-29_23h10.57.989,Simcolourproject_2stim_asymm_v5,2020.2.10,Win32,60,61025ae37ef11b136ea224fe,,,,,,,,,3448,26.40001184,-79.20000762,1,0,0,response3disk,,4,1.600060296,7.19999367,1,0,0,rectangle,1.600060296,7.19999367,1,0,0,1.600060296,7.19999367,1,0,0,0,62,62,108,1,,,,,,,,
,,,,,,,,,,,,,FF,,,,,,,,1.1182,,,,,,,,,,,,,,,,,,,,,,5ee297bb2f43f7410c49f6ef,61036cc953b06843ea5920fd,2021-07-29_23h10.57.989,Simcolourproject_2stim_asymm_v5,2020.2.10,Win32,60,61025ae37ef11b136ea224fe,,,,,,,,,4053,52.00001222,-100.0000079,1,0,0,response3disk,,4,24.0000118,-0.800006449,1,0,0,rectangle,24.0000118,-0.800006449,1,0,0,24.0000118,-0.800006449,1,0,0,0,63,63,95,1,,,,,,,,
,,,,,,,,,,,,,FF,,,,,,,,1.0351,,,,,,,,,,,,,,,,,,,,,,5ee297bb2f43f7410c49f6ef,61036cc953b06843ea5920fd,2021-07-29_23h10.57.989,Simcolourproject_2stim_asymm_v5,2020.2.10,Win32,60,61025ae37ef11b136ea224fe,,,,,,,,,2816,63.20001239,65.59999454,1,0,0,response1disk,,7,8.800011575,0.799993575,1,0,0,rectangle,8.800011575,0.799993575,1,0,0,8.800011575,0.799993575,1,0,0,0,64,64,8,1,,,,,,,,
,,,,,,,,,,,,,FF,,,,,,,,1.757,,,,,,,,,,,,,,,,,,,,,,5ee297bb2f43f7410c49f6ef,61036cc953b06843ea5920fd,2021-07-29_23h10.57.989,Simcolourproject_2stim_asymm_v5,2020.2.10,Win32,60,61025ae37ef11b136ea224fe,,,,,,,,,1341,93.60001284,-40.80000705,1,0,0,response3disk,,5,13.60006047,3.19999361,1,0,0,rectangle,13.60006047,3.19999361,1,0,0,13.60006047,3.19999361,1,0,0,0,65,65,35,1,,,,,,,,
,,,,,,,,,,,,,FF,,,,,,,,1.549,,,,,,,,,,,,,,,,,,,,,,5ee297bb2f43f7410c49f6ef,61036cc953b06843ea5920fd,2021-07-29_23h10.57.989,Simcolourproject_2stim_asymm_v5,2020.2.10,Win32,60,61025ae37ef11b136ea224fe,,,,,,,,,3215,42.40001208,86.39999485,1,0,0,response1disk,,7,20.00001174,3.999993622,1,0,0,rectangle,20.00001174,3.999993622,1,0,0,20.00001174,3.999993622,1,0,0,0,66,66,94,1,,,,,,,,
,,,,,,,,,,,,,FF,,,,,,,,1.1266,,,,,,,,,,,,,,,,,,,,,,5ee297bb2f43f7410c49f6ef,61036cc953b06843ea5920fd,2021-07-29_23h10.57.989,Simcolourproject_2stim_asymm_v5,2020.2.10,Win32,60,61025ae37ef11b136ea224fe,,,,,,,,,1717,81.60001266,-43.20000708,1,0,0,response3disk,,5,-6.399939823,10.39999372,1,0,0,rectangle,-6.399939823,10.39999372,1,0,0,-6.399939823,10.39999372,1,0,0,0,67,67,75,1,,,,,,,,
,,,,,,,,,,,,,FF,,,,,,,,1.1879,,,,,,,,,,,,,,,,,,,,,,5ee297bb2f43f7410c49f6ef,61036cc953b06843ea5920fd,2021-07-29_23h10.57.989,Simcolourproject_2stim_asymm_v5,2020.2.10,Win32,60,61025ae37ef11b136ea224fe,,,,,,,,,880,73.60001254,36.79999411,1,0,0,response1disk,,6,-6.399939823,-4.000006497,1,0,0,rectangle,-6.399939823,-4.000006497,1,0,0,-6.399939823,-4.000006497,1,0,0,0,68,68,29,1,,,,,,,,
,,,,,,,,,,,,,FF,,,,,,,,0.9896,,,,,,,,,,,,,,,,,,,,,,5ee297bb2f43f7410c49f6ef,61036cc953b06843ea5920fd,2021-07-29_23h10.57.989,Simcolourproject_2stim_asymm_v5,2020.2.10,Win32,60,61025ae37ef11b136ea224fe,,,,,,,,,2246,89.60001278,49.5999943,1,0,0,response1disk,,6,4.000011504,-5.600006521,1,0,0,rectangle,4.000011504,-5.600006521,1,0,0,4.000011504,-5.600006521,1,0,0,0,69,69,139,1,,,,,,,,
,,,,,,,,,,,,,FF,,,,,,,,1.0973,,,,,,,,,,,,,,,,,,,,,,5ee297bb2f43f7410c49f6ef,61036cc953b06843ea5920fd,2021-07-29_23h10.57.989,Simcolourproject_2stim_asymm_v5,2020.2.10,Win32,60,61025ae37ef11b136ea224fe,,,,,,,,,2267,45.60006095,79.19997033,1,0,0,response1disk,,7,-18.39994,-0.800006449,1,0,0,rectangle,-18.39994,-0.800006449,1,0,0,-18.39994,-0.800006449,1,0,0,0,70,70,9,1,,,,,,,,
,,,,,,,,,,,,,FF,,,,,,,,1.9484,,,,,,,,,,,,,,,,,,,,,,5ee297bb2f43f7410c49f6ef,61036cc953b06843ea5920fd,2021-07-29_23h10.57.989,Simcolourproject_2stim_asymm_v5,2020.2.10,Win32,60,61025ae37ef11b136ea224fe,,,,,,,,,2479,84.80001271,-26.40000683,1,0,0,response3disk,,5,-22.39994006,-8.800006568,1,0,0,rectangle,-22.39994006,-8.800006568,1,0,0,-22.39994006,-8.800006568,1,0,0,0,71,71,159,1,,,,,,,,
,,,,,,,,,,,,,FF,,,,,,,,1.1702,,,,,,,,,,,,,,,,,,,,,,5ee297bb2f43f7410c49f6ef,61036cc953b06843ea5920fd,2021-07-29_23h10.57.989,Simcolourproject_2stim_asymm_v5,2020.2.10,Win32,60,61025ae37ef11b136ea224fe,,,,,,,,,3484,-43.1999892,-64.00000739,1,0,0,response5disk,,3,-11.19998872,1.599993587,1,0,0,rectangle,-11.19998872,1.599993587,1,0,0,-11.19998872,1.599993587,1,0,0,0,72,72,85,1,,,,,,,,
,,,,,,,,,,,,,FF,,,,,,,,1.2573,,,,,,,,,,,,,,,,,,,,,,5ee297bb2f43f7410c49f6ef,61036cc953b06843ea5920fd,2021-07-29_23h10.57.989,Simcolourproject_2stim_asymm_v5,2020.2.10,Win32,60,61025ae37ef11b136ea224fe,,,,,,,,,2390,84.0000127,-37.600007,1,0,0,response3disk,,5,-1.59998858,0.799993575,1,0,0,rectangle,-1.59998858,0.799993575,1,0,0,-1.59998858,0.799993575,1,0,0,0,73,73,10,1,,,,,,,,
,,,,,,,,,,,,,FF,,,,,,,,1.6589,,,,,,,,,,,,,,,,,,,,,,5ee297bb2f43f7410c49f6ef,61036cc953b06843ea5920fd,2021-07-29_23h10.57.989,Simcolourproject_2stim_asymm_v5,2020.2.10,Win32,60,61025ae37ef11b136ea224fe,,,,,,,,,950,37.60006083,-68.80000746,1,0,0,response3disk,,4,-11.19998872,9.599993706,1,0,0,rectangle,-11.19998872,9.599993706,1,0,0,-11.19998872,9.599993706,1,0,0,0,74,74,138,1,,,,,,,,
,,,,,,,,,,,,,FF,,,,,,,,1.1941,,,,,,,,,,,,,,,,,,,,,,5ee297bb2f43f7410c49f6ef,61036cc953b06843ea5920fd,2021-07-29_23h10.57.989,Simcolourproject_2stim_asymm_v5,2020.2.10,Win32,60,61025ae37ef11b136ea224fe,,,,,,,,,1674,-70.39994078,-25.60000682,1,0,0,response5disk,,2,-5.599988639,-6.4373E-06,1,0,0,rectangle,-5.599988639,-6.4373E-06,1,0,0,-5.599988639,-6.4373E-06,1,0,0,0,75,75,45,1,,,,,,,,
,,,,,,,,,,,,,FF,,,,,,,,2.4924,,,,,,,,,,,,,,,,,,,,,,5ee297bb2f43f7410c49f6ef,61036cc953b06843ea5920fd,2021-07-29_23h10.57.989,Simcolourproject_2stim_asymm_v5,2020.2.10,Win32,60,61025ae37ef11b136ea224fe,,,,,,,,,912,56.00001228,-39.20000702,1,0,0,response3disk,,5,-0.799988568,-2.400006473,1,0,0,rectangle,99.20001292,-46.40000713,1,0,0,-31.99998903,15.19999379,1,0,0,0,76,76,42,1,,response3disk_3,TRUE,5,5,"[52,77,110,145,121,147,318,18,269,133,56,164,28,175,310,164,262,12,91,16]",1.3572,rectangle
,,,,,,,,,,,,,FF,,,,,,,,1.6388,,,,,,,,,,,,,,,,,,,,,,5ee297bb2f43f7410c49f6ef,61036cc953b06843ea5920fd,2021-07-29_23h10.57.989,Simcolourproject_2stim_asymm_v5,2020.2.10,Win32,60,61025ae37ef11b136ea224fe,,,,,,,,,1606,-82.39994096,-38.40000701,1,0,0,response5disk,,2,-14.39993994,-1.600006461,1,0,0,rectangle,-14.39993994,-1.600006461,1,0,0,-14.39993994,-1.600006461,1,0,0,0,77,77,86,1,,,,,,,,
,,,,,,,,,,,,,FF,,,,,,,,5.0625,,,,,,,,,,,,,,,,,,,,,,5ee297bb2f43f7410c49f6ef,61036cc953b06843ea5920fd,2021-07-29_23h10.57.989,Simcolourproject_2stim_asymm_v5,2020.2.10,Win32,60,61025ae37ef11b136ea224fe,,,,,,,,,2305,-42.39994036,-80.00000763,1,0,0,response5disk,,3,-15.19998878,-12.00000662,1,0,0,rectangle,-15.19998878,-12.00000662,1,0,0,-15.19998878,-12.00000662,1,0,0,0,78,78,142,1,,,,,,,,
,,,,,,,,,,,,,FF,,,,,,,,1.2431,,,,,,,,,,,,,,,,,,,,,,5ee297bb2f43f7410c49f6ef,61036cc953b06843ea5920fd,2021-07-29_23h10.57.989,Simcolourproject_2stim_asymm_v5,2020.2.10,Win32,60,61025ae37ef11b136ea224fe,,,,,,,,,3418,31.20001191,-69.60000747,1,0,0,response3disk,,4,-7.199988663,-4.000006497,1,0,0,rectangle,-7.199988663,-4.000006497,1,0,0,-7.199988663,-4.000006497,1,0,0,0,79,79,63,1,,,,,,,,
,,,,,,,,,,,,,FF,,,,,,,,1.5576,,,,,,,,,,,,,,,,,,,,,,5ee297bb2f43f7410c49f6ef,61036cc953b06843ea5920fd,2021-07-29_23h10.57.989,Simcolourproject_2stim_asymm_v5,2020.2.10,Win32,60,61025ae37ef11b136ea224fe,,,,,,,,,1904,90.40001279,27.99999398,1,0,0,response1disk,,6,31.20001191,11.19999373,1,0,0,rectangle,31.20001191,11.19999373,1,0,0,31.20001191,11.19999373,1,0,0,0,80,80,26,1,,,,,,,,
,,,,,,,,,,,,,FF,,,,,,,,2.6603,,,,,,,,,,,,,,,,,,,,,,5ee297bb2f43f7410c49f6ef,61036cc953b06843ea5920fd,2021-07-29_23h10.57.989,Simcolourproject_2stim_asymm_v5,2020.2.10,Win32,60,61025ae37ef11b136ea224fe,,,,,,,,,1030,51.20001221,-82.40000767,1,0,0,response3disk,,4,6.400011539,5.599993646,1,0,0,rectangle,6.400011539,5.599993646,1,0,0,6.400011539,5.599993646,1,0,0,0,81,81,1,1,,,,,,,,
,,,,,,,,,,,,,FF,,,,,,,,1.021,,,,,,,,,,,,,,,,,,,,,,5ee297bb2f43f7410c49f6ef,61036cc953b06843ea5920fd,2021-07-29_23h10.57.989,Simcolourproject_2stim_asymm_v5,2020.2.10,Win32,60,61025ae37ef11b136ea224fe,,,,,,,,,2707,90.40001279,32.79999405,1,0,0,response1disk,,6,-5.599988639,7.19999367,1,0,0,rectangle,-5.599988639,7.19999367,1,0,0,-5.599988639,7.19999367,1,0,0,0,82,82,151,1,,,,,,,,
,,,,,,,,,,,,,FF,,,,,,,,0.7088,,,,,,,,,,,,,,,,,,,,,,5ee297bb2f43f7410c49f6ef,61036cc953b06843ea5920fd,2021-07-29_23h10.57.989,Simcolourproject_2stim_asymm_v5,2020.2.10,Win32,60,61025ae37ef11b136ea224fe,,,,,,,,,1708,44.0000121,73.59999466,1,0,0,response1disk,,7,9.600060415,-10.40000659,1,0,0,rectangle,9.600060415,-10.40000659,1,0,0,9.600060415,-10.40000659,1,0,0,0,83,83,67,1,,,,,,,,
,,,,,,,,,,,,,FF,,,,,,,,0.5419,,,,,,,,,,,,,,,,,,,,,,5ee297bb2f43f7410c49f6ef,61036cc953b06843ea5920fd,2021-07-29_23h10.57.989,Simcolourproject_2stim_asymm_v5,2020.2.10,Win32,60,61025ae37ef11b136ea224fe,,,,,,,,,2185,29.60006071,86.39999485,1,0,0,response1disk,,7,-7.999988675,-13.60000664,1,0,0,rectangle,-7.999988675,-13.60000664,1,0,0,-7.999988675,-13.60000664,1,0,0,0,84,84,128,1,,,,,,,,
,,,,,,,,,,,,,FF,,,,,,,,1.1326,,,,,,,,,,,,,,,,,,,,,,5ee297bb2f43f7410c49f6ef,61036cc953b06843ea5920fd,2021-07-29_23h10.57.989,Simcolourproject_2stim_asymm_v5,2020.2.10,Win32,60,61025ae37ef11b136ea224fe,,,,,,,,,3958,74.40001255,-53.60000724,1,0,0,response3disk,,5,-27.99998897,6.399993658,1,0,0,rectangle,-27.99998897,6.399993658,1,0,0,-27.99998897,6.399993658,1,0,0,0,85,85,64,1,,,,,,,,
,,,,,,,,,,,,,FF,,,,,,,,1.8199,,,,,,,,,,,,,,,,,,,,,,5ee297bb2f43f7410c49f6ef,61036cc953b06843ea5920fd,2021-07-29_23h10.57.989,Simcolourproject_2stim_asymm_v5,2020.2.10,Win32,60,61025ae37ef11b136ea224fe,,,,,,,,,97,-98.39994119,45.59999424,1,0,0,response7disk,,1,-15.19998878,-4.800006509,1,0,0,rectangle,-15.19998878,-4.800006509,1,0,0,-15.19998878,-4.800006509,1,0,0,0,86,86,2,1,,,,,,,,
,,,,,,,,,,,,,FF,,,,,,,,2.5208,,,,,,,,,,,,,,,,,,,,,,5ee297bb2f43f7410c49f6ef,61036cc953b06843ea5920fd,2021-07-29_23h10.57.989,Simcolourproject_2stim_asymm_v5,2020.2.10,Win32,60,61025ae37ef11b136ea224fe,,,,,,,,,3480,-42.39994036,-77.60000759,1,0,0,response5disk,,3,-15.19998878,-12.80000663,1,0,0,rectangle,-15.19998878,-12.80000663,1,0,0,-15.19998878,-12.80000663,1,0,0,0,87,87,27,1,,,,,,,,
,,,,,,,,,,,,,FF,,,,,,,,1.1392,,,,,,,,,,,,,,,,,,,,,,5ee297bb2f43f7410c49f6ef,61036cc953b06843ea5920fd,2021-07-29_23h10.57.989,Simcolourproject_2stim_asymm_v5,2020.2.10,Win32,60,61025ae37ef11b136ea224fe,,,,,,,,,1194,-79.99998975,-36.00000697,1,0,0,response5disk,,2,-1.59998858,12.79999375,1,0,0,rectangle,-1.59998858,12.79999375,1,0,0,-1.59998858,12.79999375,1,0,0,0,88,88,20,1,,,,,,,,
,,,,,,,,,,,,,FF,,,,,,,,1.1773,,,,,,,,,,,,,,,,,,,,,,5ee297bb2f43f7410c49f6ef,61036cc953b06843ea5920fd,2021-07-29_23h10.57.989,Simcolourproject_2stim_asymm_v5,2020.2.10,Win32,60,61025ae37ef11b136ea224fe,,,,,,,,,4339,-67.19998956,-27.20000684,1,0,0,response5disk,,2,16.00001168,-10.40000659,1,0,0,rectangle,16.00001168,-10.40000659,1,0,0,16.00001168,-10.40000659,1,0,0,0,89,89,157,1,,,,,,,,
,,,,,,,,,,,,,FF,,,,,,,,0.8686,,,,,,,,,,,,,,,,,,,,,,5ee297bb2f43f7410c49f6ef,61036cc953b06843ea5920fd,2021-07-29_23h10.57.989,Simcolourproject_2stim_asymm_v5,2020.2.10,Win32,60,61025ae37ef11b136ea224fe,,,,,,,,,3356,84.0000127,34.39999408,1,0,0,response1disk,,6,9.600060415,-6.4373E-06,1,0,0,rectangle,-101.5999901,39.99999416,1,0,0,-19.19998884,7.999993682,1,0,0,0,90,90,144,1,,response7disk_3,TRUE,1,1,"[52,77,110,145,121,147,318,18,269,133,56,164,28,175,310,164,262,12,91,16]",1.537,rectangle
,,,,,,,,,,,,,FF,,,,,,,,1.1805,,,,,,,,,,,,,,,,,,,,,,5ee297bb2f43f7410c49f6ef,61036cc953b06843ea5920fd,2021-07-29_23h10.57.989,Simcolourproject_2stim_asymm_v5,2020.2.10,Win32,60,61025ae37ef11b136ea224fe,,,,,,,,,564,77.6000126,-42.40000707,1,0,0,response3disk,,5,-29.599989,-8.000006557,1,0,0,rectangle,-29.599989,-8.000006557,1,0,0,-29.599989,-8.000006557,1,0,0,0,91,91,88,1,,,,,,,,
,,,,,,,,,,,,,FF,,,,,,,,0.8819,,,,,,,,,,,,,,,,,,,,,,5ee297bb2f43f7410c49f6ef,61036cc953b06843ea5920fd,2021-07-29_23h10.57.989,Simcolourproject_2stim_asymm_v5,2020.2.10,Win32,60,61025ae37ef11b136ea224fe,,,,,,,,,248,-39.19998914,-71.2000075,1,0,0,response5disk,,3,-16.79998881,-1.600006461,1,0,0,rectangle,-16.79998881,-1.600006461,1,0,0,-16.79998881,-1.600006461,1,0,0,0,92,92,21,1,,,,,,,,
,,,,,,,,,,,,,FF,,,,,,,,2.924,,,,,,,,,,,,,,,,,,,,,,5ee297bb2f43f7410c49f6ef,61036cc953b06843ea5920fd,2021-07-29_23h10.57.989,Simcolourproject_2stim_asymm_v5,2020.2.10,Win32,60,61025ae37ef11b136ea224fe,,,,,,,,,561,88.00001276,42.39999419,1,0,0,response1disk,,6,-0.799988568,0.799993575,1,0,0,rectangle,-0.799988568,0.799993575,1,0,0,-0.799988568,0.799993575,1,0,0,0,93,93,104,1,,,,,,,,
,,,,,,,,,,,,,FF,,,,,,,,1.2255,,,,,,,,,,,,,,,,,,,,,,5ee297bb2f43f7410c49f6ef,61036cc953b06843ea5920fd,2021-07-29_23h10.57.989,Simcolourproject_2stim_asymm_v5,2020.2.10,Win32,60,61025ae37ef11b136ea224fe,,,,,,,,,3988,44.0000121,-68.80000746,1,0,0,response3disk,,4,32.80001193,-5.600006521,1,0,0,rectangle,32.80001193,-5.600006521,1,0,0,32.80001193,-5.600006521,1,0,0,0,94,94,130,1,,,,,,,,
,,,,,,,,,,,,,FF,,,,,,,,1.3341,,,,,,,,,,,,,,,,,,,,,,5ee297bb2f43f7410c49f6ef,61036cc953b06843ea5920fd,2021-07-29_23h10.57.989,Simcolourproject_2stim_asymm_v5,2020.2.10,Win32,60,61025ae37ef11b136ea224fe,,,,,,,,,2439,20.00001174,67.19997015,1,0,0,response1disk,,7,8.800011575,13.59999377,1,0,0,rectangle,8.800011575,13.59999377,1,0,0,8.800011575,13.59999377,1,0,0,0,95,95,99,1,,,,,,,,
,,,,,,,,,,,,,FF,,,,,,,,4.4642,,,,,,,,,,,,,,,,,,,,,,5ee297bb2f43f7410c49f6ef,61036cc953b06843ea5920fd,2021-07-29_23h10.57.989,Simcolourproject_2stim_asymm_v5,2020.2.10,Win32,60,61025ae37ef11b136ea224fe,,,,,,,,,1781,95.20001286,-44.00000709,1,0,0,response3disk,,5,5.600060356,2.399993598,1,0,0,rectangle,5.600060356,2.399993598,1,0,0,5.600060356,2.399993598,1,0,0,0,96,96,37,1,,,,,,,,
,,,,,,,,,,,,,FF,,,,,,,,1.2085,,,,,,,,,,,,,,,,,,,,,,5ee297bb2f43f7410c49f6ef,61036cc953b06843ea5920fd,2021-07-29_23h10.57.989,Simcolourproject_2stim_asymm_v5,2020.2.10,Win32,60,61025ae37ef11b136ea224fe,,,,,,,,,1260,-51.99998933,-89.6000566,1,0,0,response5disk,,3,-15.99998879,-6.400006533,1,0,0,rectangle,-15.99998879,-6.400006533,1,0,0,-15.99998879,-6.400006533,1,0,0,0,97,97,46,1,,,,,,,,
,,,,,,,,,,,,,FF,,,,,,,,4.1671,,,,,,,,,,,,,,,,,,,,,,5ee297bb2f43f7410c49f6ef,61036cc953b06843ea5920fd,2021-07-29_23h10.57.989,Simcolourproject_2stim_asymm_v5,2020.2.10,Win32,60,61025ae37ef11b136ea224fe,,,,,,,,,1071,-39.19998914,-88.00000775,1,0,0,response5disk,,3,-19.99998885,4.799993634,1,0,0,rectangle,-19.99998885,4.799993634,1,0,0,-19.99998885,4.799993634,1,0,0,0,98,98,105,1,,,,,,,,
,,,,,,,,,,,,,FF,,,,,,,,0.8784,,,,,,,,,,,,,,,,,,,,,,5ee297bb2f43f7410c49f6ef,61036cc953b06843ea5920fd,2021-07-29_23h10.57.989,Simcolourproject_2stim_asymm_v5,2020.2.10,Win32,60,61025ae37ef11b136ea224fe,,,,,,,,,3567,-94.39994113,-28.80000687,1,0,0,response5disk,,2,-38.3999403,-6.400006533,1,0,0,rectangle,-38.3999403,-6.400006533,1,0,0,-38.3999403,-6.400006533,1,0,0,0,99,99,97,1,,,,,,,,
,,,,,,,,,,,,,FF,,,,,,,,1.0489,,,,,,,,,,,,,,,,,,,,,,5ee297bb2f43f7410c49f6ef,61036cc953b06843ea5920fd,2021-07-29_23h10.57.989,Simcolourproject_2stim_asymm_v5,2020.2.10,Win32,60,61025ae37ef11b136ea224fe,,,,,,,,,58,68.80001247,-35.20000696,1,0,0,response3disk,,5,4.800011516,7.999993682,1,0,0,rectangle,4.800011516,7.999993682,1,0,0,4.800011516,7.999993682,1,0,0,0,100,100,132,1,,,,,,,,
,,,,,,,,,,,,,FF,,,,,,,,2.8403,,,,,,,,,,,,,,,,,,,,,,5ee297bb2f43f7410c49f6ef,61036cc953b06843ea5920fd,2021-07-29_23h10.57.989,Simcolourproject_2stim_asymm_v5,2020.2.10,Win32,60,61025ae37ef11b136ea224fe,,,,,,,,,2936,58.40001231,-106.400008,1,0,0,response3disk,,4,4.000011504,-4.000006497,1,0,0,rectangle,4.000011504,-4.000006497,1,0,0,4.000011504,-4.000006497,1,0,0,0,101,101,134,1,,,,,,,,
,,,,,,,,,,,,,FF,,,,,,,,1.4515,,,,,,,,,,,,,,,,,,,,,,5ee297bb2f43f7410c49f6ef,61036cc953b06843ea5920fd,2021-07-29_23h10.57.989,Simcolourproject_2stim_asymm_v5,2020.2.10,Win32,60,61025ae37ef11b136ea224fe,,,,,,,,,2111,51.20001221,-95.20000786,1,0,0,response3disk,,4,-17.59998882,1.599993587,1,0,0,rectangle,-17.59998882,1.599993587,1,0,0,-17.59998882,1.599993587,1,0,0,0,102,102,41,1,,,,,,,,
,,,,,,,,,,,,,FF,,,,,,,,1.0838,,,,,,,,,,,,,,,,,,,,,,5ee297bb2f43f7410c49f6ef,61036cc953b06843ea5920fd,2021-07-29_23h10.57.989,Simcolourproject_2stim_asymm_v5,2020.2.10,Win32,60,61025ae37ef11b136ea224fe,,,,,,,,,2856,76.80001259,42.39999419,1,0,0,response1disk,,6,18.40001172,11.19999373,1,0,0,rectangle,18.40001172,11.19999373,1,0,0,18.40001172,11.19999373,1,0,0,0,103,103,68,1,,,,,,,,
,,,,,,,,,,,,,FF,,,,,,,,0.663,,,,,,,,,,,,,,,,,,,,,,5ee297bb2f43f7410c49f6ef,61036cc953b06843ea5920fd,2021-07-29_23h10.57.989,Simcolourproject_2stim_asymm_v5,2020.2.10,Win32,60,61025ae37ef11b136ea224fe,,,,,,,,,2578,79.20001262,39.19996973,1,0,0,response1disk,,6,1.600060296,9.599993706,1,0,0,rectangle,1.600060296,9.599993706,1,0,0,1.600060296,9.599993706,1,0,0,0,104,104,61,1,,,,,,,,
,,,,,,,,,,,,,FF,,,,,,,,1.9145,,,,,,,,,,,,,,,,,,,,,,5ee297bb2f43f7410c49f6ef,61036cc953b06843ea5920fd,2021-07-29_23h10.57.989,Simcolourproject_2stim_asymm_v5,2020.2.10,Win32,60,61025ae37ef11b136ea224fe,,,,,,,,,2531,82.40001267,-39.20000702,1,0,0,response3disk,,5,-7.199988663,13.59999377,1,0,0,rectangle,-7.199988663,13.59999377,1,0,0,-7.199988663,13.59999377,1,0,0,0,105,105,101,1,,,,,,,,
,,,,,,,,,,,,,FF,,,,,,,,1.594,,,,,,,,,,,,,,,,,,,,,,5ee297bb2f43f7410c49f6ef,61036cc953b06843ea5920fd,2021-07-29_23h10.57.989,Simcolourproject_2stim_asymm_v5,2020.2.10,Win32,60,61025ae37ef11b136ea224fe,,,,,,,,,3964,40.00001204,-68.80000746,1,0,0,response3disk,,4,-9.599988699,-6.400006533,1,0,0,rectangle,-9.599988699,-6.400006533,1,0,0,-9.599988699,-6.400006533,1,0,0,0,106,106,30,1,,,,,,,,
,,,,,,,,,,,,,FF,,,,,,,,1.4759,,,,,,,,,,,,,,,,,,,,,,5ee297bb2f43f7410c49f6ef,61036cc953b06843ea5920fd,2021-07-29_23h10.57.989,Simcolourproject_2stim_asymm_v5,2020.2.10,Win32,60,61025ae37ef11b136ea224fe,,,,,,,,,2949,44.0000121,-54.40000725,1,0,0,response3disk,,4,-0.799988568,10.39999372,1,0,0,rectangle,-0.799988568,10.39999372,1,0,0,-0.799988568,10.39999372,1,0,0,0,107,107,12,1,,,,,,,,
,,,,,,,,,,,,,FF,,,,,,,,1.0449,,,,,,,,,,,,,,,,,,,,,,5ee297bb2f43f7410c49f6ef,61036cc953b06843ea5920fd,2021-07-29_23h10.57.989,Simcolourproject_2stim_asymm_v5,2020.2.10,Win32,60,61025ae37ef11b136ea224fe,,,,,,,,,3461,43.20001209,-77.60000759,1,0,0,response3disk,,4,-28.79998899,-5.600006521,1,0,0,rectangle,-28.79998899,-5.600006521,1,0,0,-28.79998899,-5.600006521,1,0,0,0,108,108,22,1,,,,,,,,
,,,,,,,,,,,,,FF,,,,,,,,1.3817,,,,,,,,,,,,,,,,,,,,,,5ee297bb2f43f7410c49f6ef,61036cc953b06843ea5920fd,2021-07-29_23h10.57.989,Simcolourproject_2stim_asymm_v5,2020.2.10,Win32,60,61025ae37ef11b136ea224fe,,,,,,,,,1579,63.20001239,30.39999402,1,0,0,response1disk,,6,16.00001168,-8.000006557,1,0,0,rectangle,-81.59998977,-42.40000707,1,0,0,-1.59998858,-0.800006449,1,0,0,0,109,109,107,1,,response5disk_3,TRUE,2,2,"[52,77,110,145,121,147,318,18,269,133,56,164,28,175,310,164,262,12,91,16]",1.9318,rectangle
,,,,,,,,,,,,,FF,,,,,,,,1.6271,,,,,,,,,,,,,,,,,,,,,,5ee297bb2f43f7410c49f6ef,61036cc953b06843ea5920fd,2021-07-29_23h10.57.989,Simcolourproject_2stim_asymm_v5,2020.2.10,Win32,60,61025ae37ef11b136ea224fe,,,,,,,,,3314,56.80001229,-89.6000566,1,0,0,response3disk,,4,-22.39994006,-13.60000664,1,0,0,rectangle,-22.39994006,-13.60000664,1,0,0,-22.39994006,-13.60000664,1,0,0,0,110,110,55,1,,,,,,,,
,,,,,,,,,,,,,FF,,,,,,,,1.1823,,,,,,,,,,,,,,,,,,,,,,5ee297bb2f43f7410c49f6ef,61036cc953b06843ea5920fd,2021-07-29_23h10.57.989,Simcolourproject_2stim_asymm_v5,2020.2.10,Win32,60,61025ae37ef11b136ea224fe,,,,,,,,,2739,76.00001258,-41.60000706,1,0,0,response3disk,,5,-4.799988627,3.19999361,1,0,0,rectangle,-4.799988627,3.19999361,1,0,0,-4.799988627,3.19999361,1,0,0,0,111,111,4,1,,,,,,,,
,,,,,,,,,,,,,FF,,,,,,,,1.5901,,,,,,,,,,,,,,,,,,,,,,5ee297bb2f43f7410c49f6ef,61036cc953b06843ea5920fd,2021-07-29_23h10.57.989,Simcolourproject_2stim_asymm_v5,2020.2.10,Win32,60,61025ae37ef11b136ea224fe,,,,,,,,,3727,60.80001235,-48.00000715,1,0,0,response3disk,,5,-3.999988616,-12.00000662,1,0,0,rectangle,-3.999988616,-12.00000662,1,0,0,-3.999988616,-12.00000662,1,0,0,0,112,112,15,1,,,,,,,,
,,,,,,,,,,,,,FF,,,,,,,,0.7352,,,,,,,,,,,,,,,,,,,,,,5ee297bb2f43f7410c49f6ef,61036cc953b06843ea5920fd,2021-07-29_23h10.57.989,Simcolourproject_2stim_asymm_v5,2020.2.10,Win32,60,61025ae37ef11b136ea224fe,,,,,,,,,3175,89.60001278,47.99999428,1,0,0,response1disk,,6,12.80001163,12.79999375,1,0,0,rectangle,12.80001163,12.79999375,1,0,0,12.80001163,12.79999375,1,0,0,0,113,113,33,1,,,,,,,,
,,,,,,,,,,,,,FF,,,,,,,,1.2297,,,,,,,,,,,,,,,,,,,,,,5ee297bb2f43f7410c49f6ef,61036cc953b06843ea5920fd,2021-07-29_23h10.57.989,Simcolourproject_2stim_asymm_v5,2020.2.10,Win32,60,61025ae37ef11b136ea224fe,,,,,,,,,1277,-34.39994024,-79.20000762,1,0,0,response5disk,,3,6.400011539,-10.40000659,1,0,0,rectangle,6.400011539,-10.40000659,1,0,0,6.400011539,-10.40000659,1,0,0,0,114,114,31,1,,,,,,,,
,,,,,,,,,,,,,FF,,,,,,,,1.1949,,,,,,,,,,,,,,,,,,,,,,5ee297bb2f43f7410c49f6ef,61036cc953b06843ea5920fd,2021-07-29_23h10.57.989,Simcolourproject_2stim_asymm_v5,2020.2.10,Win32,60,61025ae37ef11b136ea224fe,,,,,,,,,3548,43.20001209,-75.20000756,1,0,0,response3disk,,4,8.800011575,-6.4373E-06,1,0,0,rectangle,8.800011575,-6.4373E-06,1,0,0,8.800011575,-6.4373E-06,1,0,0,0,115,115,121,1,,,,,,,,
,,,,,,,,,,,,,FF,,,,,,,,1.3596,,,,,,,,,,,,,,,,,,,,,,5ee297bb2f43f7410c49f6ef,61036cc953b06843ea5920fd,2021-07-29_23h10.57.989,Simcolourproject_2stim_asymm_v5,2020.2.10,Win32,60,61025ae37ef11b136ea224fe,,,,,,,,,3528,71.20001251,41.59999418,1,0,0,response1disk,,6,2.40001148,11.19999373,1,0,0,rectangle,2.40001148,11.19999373,1,0,0,2.40001148,11.19999373,1,0,0,0,116,116,18,1,,,,,,,,
,,,,,,,,,,,,,FF,,,,,,,,1.1208,,,,,,,,,,,,,,,,,,,,,,5ee297bb2f43f7410c49f6ef,61036cc953b06843ea5920fd,2021-07-29_23h10.57.989,Simcolourproject_2stim_asymm_v5,2020.2.10,Win32,60,61025ae37ef11b136ea224fe,,,,,,,,,90,66.40001243,-39.20000702,1,0,0,response3disk,,5,-35.99998909,-8.000006557,1,0,0,rectangle,-35.99998909,-8.000006557,1,0,0,-35.99998909,-8.000006557,1,0,0,0,117,117,136,1,,,,,,,,
,,,,,,,,,,,,,FF,,,,,,,,1.1739,,,,,,,,,,,,,,,,,,,,,,5ee297bb2f43f7410c49f6ef,61036cc953b06843ea5920fd,2021-07-29_23h10.57.989,Simcolourproject_2stim_asymm_v5,2020.2.10,Win32,60,61025ae37ef11b136ea224fe,,,,,,,,,3980,-39.99998915,-73.60000753,1,0,0,response5disk,,3,-1.59998858,13.59999377,1,0,0,rectangle,-1.59998858,13.59999377,1,0,0,-1.59998858,13.59999377,1,0,0,0,118,118,153,1,,,,,,,,
,,,,,,,,,,,,,FF,,,,,,,,1.3706,,,,,,,,,,,,,,,,,,,,,,5ee297bb2f43f7410c49f6ef,61036cc953b06843ea5920fd,2021-07-29_23h10.57.989,Simcolourproject_2stim_asymm_v5,2020.2.10,Win32,60,61025ae37ef11b136ea224fe,,,,,,,,,2671,-82.39994096,31.19996961,1,0,0,response7disk,,1,-23.99998891,7.999993682,1,0,0,rectangle,-23.99998891,7.999993682,1,0,0,-23.99998891,7.999993682,1,0,0,0,119,119,106,1,,,,,,,,
,,,,,,,,,,,,,FF,,,,,,,,2.5768,,,,,,,,,,,,,,,,,,,,,,5ee297bb2f43f7410c49f6ef,61036cc953b06843ea5920fd,2021-07-29_23h10.57.989,Simcolourproject_2stim_asymm_v5,2020.2.10,Win32,60,61025ae37ef11b136ea224fe,,,,,,,,,3756,26.40001184,-77.60000759,1,0,0,response3disk,,4,-12.79998875,-16.00000668,1,0,0,rectangle,96.00001287,39.99999416,1,0,0,10.4000116,3.999993622,1,0,0,0,120,120,3,1,,response1disk_3,TRUE,6,6,"[52,77,110,145,121,147,318,18,269,133,56,164,28,175,310,164,262,12,91,16]",1.9441,rectangle
,,,,,,,,,,,,,FF,,,,,,,,2.2082,,,,,,,,,,,,,,,,,,,,,,5ee297bb2f43f7410c49f6ef,61036cc953b06843ea5920fd,2021-07-29_23h10.57.989,Simcolourproject_2stim_asymm_v5,2020.2.10,Win32,60,61025ae37ef11b136ea224fe,,,,,,,,,964,60.80001235,38.39999413,1,0,0,response1disk,,6,24.80001181,8.799993694,1,0,0,rectangle,24.80001181,8.799993694,1,0,0,24.80001181,8.799993694,1,0,0,0,121,121,65,1,,,,,,,,
,,,,,,,,,,,,,FF,,,,,,,,0.7763,,,,,,,,,,,,,,,,,,,,,,5ee297bb2f43f7410c49f6ef,61036cc953b06843ea5920fd,2021-07-29_23h10.57.989,Simcolourproject_2stim_asymm_v5,2020.2.10,Win32,60,61025ae37ef11b136ea224fe,,,,,,,,,3877,-41.59998918,-101.6000568,1,0,0,response5disk,,3,-19.19998884,-6.400006533,1,0,0,rectangle,-19.19998884,-6.400006533,1,0,0,-19.19998884,-6.400006533,1,0,0,0,122,122,17,1,,,,,,,,
,,,,,,,,,,,,,FF,,,,,,,,2.1665,,,,,,,,,,,,,,,,,,,,,,5ee297bb2f43f7410c49f6ef,61036cc953b06843ea5920fd,2021-07-29_23h10.57.989,Simcolourproject_2stim_asymm_v5,2020.2.10,Win32,60,61025ae37ef11b136ea224fe,,,,,,,,,1839,20.00001174,85.59999484,1,0,0,response1disk,,7,8.000011563,-6.400006533,1,0,0,rectangle,8.000011563,-6.400006533,1,0,0,8.000011563,-6.400006533,1,0,0,0,123,123,36,1,,,,,,,,
,,,,,,,,,,,,,FF,,,,,,,,1.2785,,,,,,,,,,,,,,,,,,,,,,5ee297bb2f43f7410c49f6ef,61036cc953b06843ea5920fd,2021-07-29_23h10.57.989,Simcolourproject_2stim_asymm_v5,2020.2.10,Win32,60,61025ae37ef11b136ea224fe,,,,,,,,,3924,86.40001273,-48.80000716,1,0,0,response3disk,,5,-13.59998876,-4.800006509,1,0,0,rectangle,-13.59998876,-4.800006509,1,0,0,-13.59998876,-4.800006509,1,0,0,0,124,124,135,1,,,,,,,,
,,,,,,,,,,,,,FF,,,,,,,,1.7592,,,,,,,,,,,,,,,,,,,,,,5ee297bb2f43f7410c49f6ef,61036cc953b06843ea5920fd,2021-07-29_23h10.57.989,Simcolourproject_2stim_asymm_v5,2020.2.10,Win32,60,61025ae37ef11b136ea224fe,,,,,,,,,443,-87.99998987,41.59999418,1,0,0,response7disk,,1,-21.59998888,3.999993622,1,0,0,rectangle,-21.59998888,3.999993622,1,0,0,-21.59998888,3.999993622,1,0,0,0,125,125,124,1,,,,,,,,
,,,,,,,,,,,,,FF,,,,,,,,4.0917,,,,,,,,,,,,,,,,,,,,,,5ee297bb2f43f7410c49f6ef,61036cc953b06843ea5920fd,2021-07-29_23h10.57.989,Simcolourproject_2stim_asymm_v5,2020.2.10,Win32,60,61025ae37ef11b136ea224fe,,,,,,,,,3042,-35.19998908,-92.80000782,1,0,0,response5disk,,3,8.000011563,-8.800006568,1,0,0,rectangle,8.000011563,-8.800006568,1,0,0,8.000011563,-8.800006568,1,0,0,0,126,126,32,1,,,,,,,,
,,,,,,,,,,,,,FF,,,,,,,,1.3684,,,,,,,,,,,,,,,,,,,,,,5ee297bb2f43f7410c49f6ef,61036cc953b06843ea5920fd,2021-07-29_23h10.57.989,Simcolourproject_2stim_asymm_v5,2020.2.10,Win32,60,61025ae37ef11b136ea224fe,,,,,,,,,4014,28.00001186,70.39999461,1,0,0,response1disk,,7,12.80001163,-14.40000665,1,0,0,rectangle,12.80001163,-14.40000665,1,0,0,12.80001163,-14.40000665,1,0,0,0,127,127,118,1,,,,,,,,
,,,,,,,,,,,,,FF,,,,,,,,1.2788,,,,,,,,,,,,,,,,,,,,,,5ee297bb2f43f7410c49f6ef,61036cc953b06843ea5920fd,2021-07-29_23h10.57.989,Simcolourproject_2stim_asymm_v5,2020.2.10,Win32,60,61025ae37ef11b136ea224fe,,,,,,,,,3044,95.20001286,-45.60000712,1,0,0,response3disk,,5,-24.79998893,-8.800006568,1,0,0,rectangle,-24.79998893,-8.800006568,1,0,0,-24.79998893,-8.800006568,1,0,0,0,128,128,156,1,,,,,,,,
,,,,,,,,,,,,,FF,,,,,,,,1.0708,,,,,,,,,,,,,,,,,,,,,,5ee297bb2f43f7410c49f6ef,61036cc953b06843ea5920fd,2021-07-29_23h10.57.989,Simcolourproject_2stim_asymm_v5,2020.2.10,Win32,60,61025ae37ef11b136ea224fe,,,,,,,,,1495,24.0000118,92.79999495,1,0,0,response1disk,,7,-6.399939823,5.599993646,1,0,0,rectangle,-6.399939823,5.599993646,1,0,0,-6.399939823,5.599993646,1,0,0,0,129,129,129,1,,,,,,,,
,,,,,,,,,,,,,FF,,,,,,,,1.2742,,,,,,,,,,,,,,,,,,,,,,5ee297bb2f43f7410c49f6ef,61036cc953b06843ea5920fd,2021-07-29_23h10.57.989,Simcolourproject_2stim_asymm_v5,2020.2.10,Win32,60,61025ae37ef11b136ea224fe,,,,,,,,,220,70.40001249,28.79999399,1,0,0,response1disk,,6,8.000011563,8.799993694,1,0,0,rectangle,8.000011563,8.799993694,1,0,0,8.000011563,8.799993694,1,0,0,0,130,130,149,1,,,,,,,,
,,,,,,,,,,,,,FF,,,,,,,,1.3958,,,,,,,,,,,,,,,,,,,,,,5ee297bb2f43f7410c49f6ef,61036cc953b06843ea5920fd,2021-07-29_23h10.57.989,Simcolourproject_2stim_asymm_v5,2020.2.10,Win32,60,61025ae37ef11b136ea224fe,,,,,,,,,932,68.80001247,-28.00000685,1,0,0,response3disk,,5,-2.399939764,7.999993682,1,0,0,rectangle,-2.399939764,7.999993682,1,0,0,-2.399939764,7.999993682,1,0,0,0,131,131,158,1,,,,,,,,
,,,,,,,,,,,,,FF,,,,,,,,1.3623,,,,,,,,,,,,,,,,,,,,,,5ee297bb2f43f7410c49f6ef,61036cc953b06843ea5920fd,2021-07-29_23h10.57.989,Simcolourproject_2stim_asymm_v5,2020.2.10,Win32,60,61025ae37ef11b136ea224fe,,,,,,,,,1491,65.60001242,-44.8000071,1,0,0,response3disk,,5,-4.799988627,-8.800006568,1,0,0,rectangle,104.000013,-40.80000705,1,0,0,16.80001169,-5.600006521,1,0,0,0,132,132,60,1,,response3disk_3,TRUE,5,5,"[52,77,110,145,121,147,318,18,269,133,56,164,28,175,310,164,262,12,91,16]",1.368,rectangle
,,,,,,,,,,,,,FF,,,,,,,,1.3684,,,,,,,,,,,,,,,,,,,,,,5ee297bb2f43f7410c49f6ef,61036cc953b06843ea5920fd,2021-07-29_23h10.57.989,Simcolourproject_2stim_asymm_v5,2020.2.10,Win32,60,61025ae37ef11b136ea224fe,,,,,,,,,801,-54.39994054,85.59999484,1,0,0,response7disk,,0,-9.599988699,3.19999361,1,0,0,rectangle,-9.599988699,3.19999361,1,0,0,-9.599988699,3.19999361,1,0,0,0,133,133,44,1,,,,,,,,
,,,,,,,,,,,,,FF,,,,,,,,1.5628,,,,,,,,,,,,,,,,,,,,,,5ee297bb2f43f7410c49f6ef,61036cc953b06843ea5920fd,2021-07-29_23h10.57.989,Simcolourproject_2stim_asymm_v5,2020.2.10,Win32,60,61025ae37ef11b136ea224fe,,,,,,,,,1326,100.8000129,34.39999408,1,0,0,response1disk,,6,31.20001191,5.599993646,1,0,0,rectangle,31.20001191,5.599993646,1,0,0,31.20001191,5.599993646,1,0,0,0,134,134,70,1,,,,,,,,
,,,,,,,,,,,,,FF,,,,,,,,1.0204,,,,,,,,,,,,,,,,,,,,,,5ee297bb2f43f7410c49f6ef,61036cc953b06843ea5920fd,2021-07-29_23h10.57.989,Simcolourproject_2stim_asymm_v5,2020.2.10,Win32,60,61025ae37ef11b136ea224fe,,,,,,,,,761,88.00001276,-45.60000712,1,0,0,response3disk,,5,2.40001148,-6.4373E-06,1,0,0,rectangle,2.40001148,-6.4373E-06,1,0,0,2.40001148,-6.4373E-06,1,0,0,0,135,135,111,1,,,,,,,,
,,,,,,,,,,,,,FF,,,,,,,,1.863,,,,,,,,,,,,,,,,,,,,,,5ee297bb2f43f7410c49f6ef,61036cc953b06843ea5920fd,2021-07-29_23h10.57.989,Simcolourproject_2stim_asymm_v5,2020.2.10,Win32,60,61025ae37ef11b136ea224fe,,,,,,,,,4255,-57.59998941,-74.40000755,1,0,0,response5disk,,3,-8.799988687,7.19999367,1,0,0,rectangle,-8.799988687,7.19999367,1,0,0,-8.799988687,7.19999367,1,0,0,0,136,136,114,1,,,,,,,,
,,,,,,,,,,,,,FF,,,,,,,,1.3405,,,,,,,,,,,,,,,,,,,,,,5ee297bb2f43f7410c49f6ef,61036cc953b06843ea5920fd,2021-07-29_23h10.57.989,Simcolourproject_2stim_asymm_v5,2020.2.10,Win32,60,61025ae37ef11b136ea224fe,,,,,,,,,1441,36.00001198,-64.00000739,1,0,0,response3disk,,4,-11.19998872,-4.000006497,1,0,0,rectangle,-11.19998872,-4.000006497,1,0,0,-11.19998872,-4.000006497,1,0,0,0,137,137,72,1,,,,,,,,
,,,,,,,,,,,,,FF,,,,,,,,1.2437,,,,,,,,,,,,,,,,,,,,,,5ee297bb2f43f7410c49f6ef,61036cc953b06843ea5920fd,2021-07-29_23h10.57.989,Simcolourproject_2stim_asymm_v5,2020.2.10,Win32,60,61025ae37ef11b136ea224fe,,,,,,,,,3025,61.60001236,31.99999404,1,0,0,response1disk,,6,17.60006053,-11.2000066,1,0,0,rectangle,17.60006053,-11.2000066,1,0,0,17.60006053,-11.2000066,1,0,0,0,138,138,80,1,,,,,,,,
,,,,,,,,,,,,,FF,,,,,,,,1.1044,,,,,,,,,,,,,,,,,,,,,,5ee297bb2f43f7410c49f6ef,61036cc953b06843ea5920fd,2021-07-29_23h10.57.989,Simcolourproject_2stim_asymm_v5,2020.2.10,Win32,60,61025ae37ef11b136ea224fe,,,,,,,,,746,47.20001215,-77.60000759,1,0,0,response3disk,,4,-2.399939764,-12.00000662,1,0,0,rectangle,-2.399939764,-12.00000662,1,0,0,-2.399939764,-12.00000662,1,0,0,0,139,139,76,1,,,,,,,,
,,,,,,,,,,,,,FF,,,,,,,,1.264,,,,,,,,,,,,,,,,,,,,,,5ee297bb2f43f7410c49f6ef,61036cc953b06843ea5920fd,2021-07-29_23h10.57.989,Simcolourproject_2stim_asymm_v5,2020.2.10,Win32,60,61025ae37ef11b136ea224fe,,,,,,,,,3586,-47.99998927,-73.60000753,1,0,0,response5disk,,3,-12.79998875,15.19999379,1,0,0,rectangle,-12.79998875,15.19999379,1,0,0,-12.79998875,15.19999379,1,0,0,0,140,140,131,1,,,,,,,,
,,,,,,,,,,,,,FF,,,,,,,,0.9671,,,,,,,,,,,,,,,,,,,,,,5ee297bb2f43f7410c49f6ef,61036cc953b06843ea5920fd,2021-07-29_23h10.57.989,Simcolourproject_2stim_asymm_v5,2020.2.10,Win32,60,61025ae37ef11b136ea224fe,,,,,,,,,1644,88.80001277,39.19996973,1,0,0,response1disk,,6,32.80001193,15.19999379,1,0,0,rectangle,32.80001193,15.19999379,1,0,0,32.80001193,15.19999379,1,0,0,0,141,141,113,1,,,,,,,,
,,,,,,,,,,,,,FF,,,,,,,,1.1602,,,,,,,,,,,,,,,,,,,,,,5ee297bb2f43f7410c49f6ef,61036cc953b06843ea5920fd,2021-07-29_23h10.57.989,Simcolourproject_2stim_asymm_v5,2020.2.10,Win32,60,61025ae37ef11b136ea224fe,,,,,,,,,1298,-86.39994102,47.99999428,1,0,0,response7disk,,1,-0.799988568,3.999993622,1,0,0,rectangle,-0.799988568,3.999993622,1,0,0,-0.799988568,3.999993622,1,0,0,0,142,142,93,1,,,,,,,,
,,,,,,,,,,,,,FF,,,,,,,,1.5488,,,,,,,,,,,,,,,,,,,,,,5ee297bb2f43f7410c49f6ef,61036cc953b06843ea5920fd,2021-07-29_23h10.57.989,Simcolourproject_2stim_asymm_v5,2020.2.10,Win32,60,61025ae37ef11b136ea224fe,,,,,,,,,1559,97.6000129,-44.00000709,1,0,0,response3disk,,5,-38.3999403,-4.800006509,1,0,0,rectangle,-38.3999403,-4.800006509,1,0,0,-38.3999403,-4.800006509,1,0,0,0,143,143,148,1,,,,,,,,
,,,,,,,,,,,,,FF,,,,,,,,1.244,,,,,,,,,,,,,,,,,,,,,,5ee297bb2f43f7410c49f6ef,61036cc953b06843ea5920fd,2021-07-29_23h10.57.989,Simcolourproject_2stim_asymm_v5,2020.2.10,Win32,60,61025ae37ef11b136ea224fe,,,,,,,,,1558,80.80001265,-42.40000707,1,0,0,response3disk,,5,5.600060356,0.799993575,1,0,0,rectangle,-123.9999904,48.79999429,1,0,0,-23.99998891,2.399993598,1,0,0,0,144,144,87,1,,response7disk_3,TRUE,1,1,"[52,77,110,145,121,147,318,18,269,133,56,164,28,175,310,164,262,12,91,16]",1.2504,rectangle
,,,,,,,,,,,,,FF,,,,,,,,1.1706,,,,,,,,,,,,,,,,,,,,,,5ee297bb2f43f7410c49f6ef,61036cc953b06843ea5920fd,2021-07-29_23h10.57.989,Simcolourproject_2stim_asymm_v5,2020.2.10,Win32,60,61025ae37ef11b136ea224fe,,,,,,,,,2290,43.20001209,-90.40000778,1,0,0,response3disk,,4,-17.59998882,-4.000006497,1,0,0,rectangle,-17.59998882,-4.000006497,1,0,0,-17.59998882,-4.000006497,1,0,0,0,145,145,140,1,,,,,,,,
,,,,,,,,,,,,,FF,,,,,,,,1.2438,,,,,,,,,,,,,,,,,,,,,,5ee297bb2f43f7410c49f6ef,61036cc953b06843ea5920fd,2021-07-29_23h10.57.989,Simcolourproject_2stim_asymm_v5,2020.2.10,Win32,60,61025ae37ef11b136ea224fe,,,,,,,,,3375,-71.99998963,-47.20000714,1,0,0,response5disk,,2,-5.599988639,-4.000006497,1,0,0,rectangle,88.80001277,-26.40000683,1,0,0,9.600060415,-0.800006449,1,0,0,0,146,146,122,1,,response3disk_3,TRUE,5,5,"[52,77,110,145,121,147,318,18,269,133,56,164,28,175,310,164,262,12,91,16]",1.5449,rectangle
,,,,,,,,,,,,,FF,,,,,,,,1.6193,,,,,,,,,,,,,,,,,,,,,,5ee297bb2f43f7410c49f6ef,61036cc953b06843ea5920fd,2021-07-29_23h10.57.989,Simcolourproject_2stim_asymm_v5,2020.2.10,Win32,60,61025ae37ef11b136ea224fe,,,,,,,,,1500,95.20001286,-41.60000706,1,0,0,response3disk,,5,14.40001166,-1.600006461,1,0,0,rectangle,14.40001166,-1.600006461,1,0,0,14.40001166,-1.600006461,1,0,0,0,147,147,145,1,,,,,,,,
,,,,,,,,,,,,,FF,,,,,,,,1.8896,,,,,,,,,,,,,,,,,,,,,,5ee297bb2f43f7410c49f6ef,61036cc953b06843ea5920fd,2021-07-29_23h10.57.989,Simcolourproject_2stim_asymm_v5,2020.2.10,Win32,60,61025ae37ef11b136ea224fe,,,,,,,,,1873,97.6000129,40.79999417,1,0,0,response1disk,,6,2.40001148,-6.400006533,1,0,0,rectangle,2.40001148,-6.400006533,1,0,0,2.40001148,-6.400006533,1,0,0,0,148,148,51,1,,,,,,,,
,,,,,,,,,,,,,FF,,,,,,,,0.9586,,,,,,,,,,,,,,,,,,,,,,5ee297bb2f43f7410c49f6ef,61036cc953b06843ea5920fd,2021-07-29_23h10.57.989,Simcolourproject_2stim_asymm_v5,2020.2.10,Win32,60,61025ae37ef11b136ea224fe,,,,,,,,,3785,-49.5999893,-87.20000774,1,0,0,response5disk,,3,-15.99998879,1.599993587,1,0,0,rectangle,-15.99998879,1.599993587,1,0,0,-15.99998879,1.599993587,1,0,0,0,149,149,69,1,,,,,,,,
,,,,,,,,,,,,,FF,,,,,,,,2.6181,,,,,,,,,,,,,,,,,,,,,,5ee297bb2f43f7410c49f6ef,61036cc953b06843ea5920fd,2021-07-29_23h10.57.989,Simcolourproject_2stim_asymm_v5,2020.2.10,Win32,60,61025ae37ef11b136ea224fe,,,,,,,,,753,95.20001286,-40.80000705,1,0,0,response3disk,,5,32.80001193,-16.00000668,1,0,0,rectangle,32.80001193,-16.00000668,1,0,0,32.80001193,-16.00000668,1,0,0,0,150,150,83,1,,,,,,,,
,,,,,,,,,,,,,FF,,,,,,,,0.9102,,,,,,,,,,,,,,,,,,,,,,5ee297bb2f43f7410c49f6ef,61036cc953b06843ea5920fd,2021-07-29_23h10.57.989,Simcolourproject_2stim_asymm_v5,2020.2.10,Win32,60,61025ae37ef11b136ea224fe,,,,,,,,,1596,-42.39994036,91.99999493,1,0,0,response7disk,,0,-18.39994,9.599993706,1,0,0,rectangle,-18.39994,9.599993706,1,0,0,-18.39994,9.599993706,1,0,0,0,151,151,54,1,,,,,,,,
,,,,,,,,,,,,,FF,,,,,,,,3.7301,,,,,,,,,,,,,,,,,,,,,,5ee297bb2f43f7410c49f6ef,61036cc953b06843ea5920fd,2021-07-29_23h10.57.989,Simcolourproject_2stim_asymm_v5,2020.2.10,Win32,60,61025ae37ef11b136ea224fe,,,,,,,,,3555,-103.1999901,-43.20000708,1,0,0,response5disk,,2,-19.99998885,15.19999379,1,0,0,rectangle,-19.99998885,15.19999379,1,0,0,-19.99998885,15.19999379,1,0,0,0,152,152,125,1,,,,,,,,
,,,,,,,,,,,,,FF,,,,,,,,0.7392,,,,,,,,,,,,,,,,,,,,,,5ee297bb2f43f7410c49f6ef,61036cc953b06843ea5920fd,2021-07-29_23h10.57.989,Simcolourproject_2stim_asymm_v5,2020.2.10,Win32,60,61025ae37ef11b136ea224fe,,,,,,,,,4317,56.80001229,95.99999499,1,0,0,response1disk,,7,12.80001163,-2.400006473,1,0,0,rectangle,12.80001163,-2.400006473,1,0,0,12.80001163,-2.400006473,1,0,0,0,153,153,120,1,,,,,,,,
,,,,,,,,,,,,,FF,,,,,,,,1.0761,,,,,,,,,,,,,,,,,,,,,,5ee297bb2f43f7410c49f6ef,61036cc953b06843ea5920fd,2021-07-29_23h10.57.989,Simcolourproject_2stim_asymm_v5,2020.2.10,Win32,60,61025ae37ef11b136ea224fe,,,,,,,,,4057,96.00001287,30.39999402,1,0,0,response1disk,,6,9.600060415,-0.800006449,1,0,0,rectangle,9.600060415,-0.800006449,1,0,0,9.600060415,-0.800006449,1,0,0,0,154,154,116,1,,,,,,,,
,,,,,,,,,,,,,FF,,,,,,,,1.3755,,,,,,,,,,,,,,,,,,,,,,5ee297bb2f43f7410c49f6ef,61036cc953b06843ea5920fd,2021-07-29_23h10.57.989,Simcolourproject_2stim_asymm_v5,2020.2.10,Win32,60,61025ae37ef11b136ea224fe,,,,,,,,,828,36.00001198,82.39999479,1,0,0,response1disk,,7,23.20001179,3.999993622,1,0,0,rectangle,23.20001179,3.999993622,1,0,0,23.20001179,3.999993622,1,0,0,0,155,155,38,1,,,,,,,,
,,,,,,,,,,,,,FF,,,,,,,,0.7573,,,,,,,,,,,,,,,,,,,,,,5ee297bb2f43f7410c49f6ef,61036cc953b06843ea5920fd,2021-07-29_23h10.57.989,Simcolourproject_2stim_asymm_v5,2020.2.10,Win32,60,61025ae37ef11b136ea224fe,,,,,,,,,3804,57.6000123,77.59999472,1,0,0,response1disk,,7,36.00001198,-9.60000658,1,0,0,rectangle,36.00001198,-9.60000658,1,0,0,36.00001198,-9.60000658,1,0,0,0,156,156,84,1,,,,,,,,
,,,,,,,,,,,,,FF,,,,,,,,1.2892,,,,,,,,,,,,,,,,,,,,,,5ee297bb2f43f7410c49f6ef,61036cc953b06843ea5920fd,2021-07-29_23h10.57.989,Simcolourproject_2stim_asymm_v5,2020.2.10,Win32,60,61025ae37ef11b136ea224fe,,,,,,,,,1617,21.60006059,-94.40000784,1,0,0,response3disk,,4,-14.39993994,-7.200006545,1,0,0,rectangle,-14.39993994,-7.200006545,1,0,0,-14.39993994,-7.200006545,1,0,0,0,157,157,137,1,,,,,,,,
,,,,,,,,,,,,,FF,,,,,,,,1.1598,,,,,,,,,,,,,,,,,,,,,,5ee297bb2f43f7410c49f6ef,61036cc953b06843ea5920fd,2021-07-29_23h10.57.989,Simcolourproject_2stim_asymm_v5,2020.2.10,Win32,60,61025ae37ef11b136ea224fe,,,,,,,,,2594,79.20001262,-45.60000712,1,0,0,response3disk,,5,0.800011456,3.19999361,1,0,0,rectangle,0.800011456,3.19999361,1,0,0,0.800011456,3.19999361,1,0,0,0,158,158,57,1,,,,,,,,
,,,,,,,,,,,,,FF,,,,,,,,2.2012,,,,,,,,,,,,,,,,,,,,,,5ee297bb2f43f7410c49f6ef,61036cc953b06843ea5920fd,2021-07-29_23h10.57.989,Simcolourproject_2stim_asymm_v5,2020.2.10,Win32,60,61025ae37ef11b136ea224fe,,,,,,,,,2125,36.80001199,64.79999453,1,0,0,response1disk,,7,8.000011563,4.799993634,1,0,0,rectangle,8.000011563,4.799993634,1,0,0,8.000011563,4.799993634,1,0,0,0,159,159,13,1,,,,,,,,
,,,,,,,,,,,,,FF,,,,,,,,3.3692,,,,,,,,,,,,,,,,,,,,,,5ee297bb2f43f7410c49f6ef,61036cc953b06843ea5920fd,2021-07-29_23h10.57.989,Simcolourproject_2stim_asymm_v5,2020.2.10,Win32,60,61025ae37ef11b136ea224fe,,,,,,,,,2065,87.20001274,-56.80000728,1,0,0,response3disk,,5,14.40001166,-14.40000665,1,0,0,rectangle,14.40001166,-14.40000665,1,0,0,14.40001166,-14.40000665,1,0,0,1,0,160,33,1,,,,,,,,
,,,,,,,,,,,,,FF,,,,,,,,0.7158,,,,,,,,,,,,,,,,,,,,,,5ee297bb2f43f7410c49f6ef,61036cc953b06843ea5920fd,2021-07-29_23h10.57.989,Simcolourproject_2stim_asymm_v5,2020.2.10,Win32,60,61025ae37ef11b136ea224fe,,,,,,,,,4011,41.60006089,70.39999461,1,0,0,response1disk,,7,-4.799988627,-6.400006533,1,0,0,rectangle,-4.799988627,-6.400006533,1,0,0,-4.799988627,-6.400006533,1,0,0,1,1,161,122,1,,,,,,,,
,,,,,,,,,,,,,FF,,,,,,,,3.439,,,,,,,,,,,,,,,,,,,,,,5ee297bb2f43f7410c49f6ef,61036cc953b06843ea5920fd,2021-07-29_23h10.57.989,Simcolourproject_2stim_asymm_v5,2020.2.10,Win32,60,61025ae37ef11b136ea224fe,,,,,,,,,1246,84.0000127,-37.600007,1,0,0,response3disk,,5,4.000011504,8.799993694,1,0,0,rectangle,4.000011504,8.799993694,1,0,0,4.000011504,8.799993694,1,0,0,1,2,162,42,1,,,,,,,,
,,,,,,,,,,,,,FF,,,,,,,,1.0354,,,,,,,,,,,,,,,,,,,,,,5ee297bb2f43f7410c49f6ef,61036cc953b06843ea5920fd,2021-07-29_23h10.57.989,Simcolourproject_2stim_asymm_v5,2020.2.10,Win32,60,61025ae37ef11b136ea224fe,,,,,,,,,377,44.80001211,-88.80000776,1,0,0,response3disk,,4,-29.599989,-5.600006521,1,0,0,rectangle,-47.99998927,-98.4000079,1,0,0,-22.39994006,-8.000006557,1,0,0,1,3,163,145,1,,response5disk_3,TRUE,3,3,"[52,77,110,145,121,147,318,18,269,133,56,164,28,175,310,164,262,12,91,16]",1.7574,rectangle
,,,,,,,,,,,,,FF,,,,,,,,1.0291,,,,,,,,,,,,,,,,,,,,,,5ee297bb2f43f7410c49f6ef,61036cc953b06843ea5920fd,2021-07-29_23h10.57.989,Simcolourproject_2stim_asymm_v5,2020.2.10,Win32,60,61025ae37ef11b136ea224fe,,,,,,,,,567,52.00001222,87.99999487,1,0,0,response1disk,,7,-25.59998894,-8.000006557,1,0,0,rectangle,-25.59998894,-8.000006557,1,0,0,-25.59998894,-8.000006557,1,0,0,1,4,164,104,1,,,,,,,,
,,,,,,,,,,,,,FF,,,,,,,,0.8194,,,,,,,,,,,,,,,,,,,,,,5ee297bb2f43f7410c49f6ef,61036cc953b06843ea5920fd,2021-07-29_23h10.57.989,Simcolourproject_2stim_asymm_v5,2020.2.10,Win32,60,61025ae37ef11b136ea224fe,,,,,,,,,693,-47.19998926,-85.60005654,1,0,0,response5disk,,3,-34.39994024,-6.400006533,1,0,0,rectangle,-34.39994024,-6.400006533,1,0,0,-34.39994024,-6.400006533,1,0,0,1,5,165,11,1,,,,,,,,
,,,,,,,,,,,,,FF,,,,,,,,1.0518,,,,,,,,,,,,,,,,,,,,,,5ee297bb2f43f7410c49f6ef,61036cc953b06843ea5920fd,2021-07-29_23h10.57.989,Simcolourproject_2stim_asymm_v5,2020.2.10,Win32,60,61025ae37ef11b136ea224fe,,,,,,,,,29,39.20001203,-68.80000746,1,0,0,response3disk,,4,1.14441E-05,5.599993646,1,0,0,rectangle,1.14441E-05,5.599993646,1,0,0,1.14441E-05,5.599993646,1,0,0,1,6,166,138,1,,,,,,,,
,,,,,,,,,,,,,FF,,,,,,,,2.0449,,,,,,,,,,,,,,,,,,,,,,5ee297bb2f43f7410c49f6ef,61036cc953b06843ea5920fd,2021-07-29_23h10.57.989,Simcolourproject_2stim_asymm_v5,2020.2.10,Win32,60,61025ae37ef11b136ea224fe,,,,,,,,,143,76.00001258,-34.40000695,1,0,0,response3disk,,5,6.400011539,3.999993622,1,0,0,rectangle,6.400011539,3.999993622,1,0,0,6.400011539,3.999993622,1,0,0,1,7,167,70,1,,,,,,,,
,,,,,,,,,,,,,FF,,,,,,,,1.5488,,,,,,,,,,,,,,,,,,,,,,5ee297bb2f43f7410c49f6ef,61036cc953b06843ea5920fd,2021-07-29_23h10.57.989,Simcolourproject_2stim_asymm_v5,2020.2.10,Win32,60,61025ae37ef11b136ea224fe,,,,,,,,,3361,18.40001172,87.19997045,1,0,0,response1disk,,7,8.000011563,-8.800006568,1,0,0,rectangle,8.000011563,-8.800006568,1,0,0,8.000011563,-8.800006568,1,0,0,1,8,168,101,1,,,,,,,,
,,,,,,,,,,,,,FF,,,,,,,,0.5424,,,,,,,,,,,,,,,,,,,,,,5ee297bb2f43f7410c49f6ef,61036cc953b06843ea5920fd,2021-07-29_23h10.57.989,Simcolourproject_2stim_asymm_v5,2020.2.10,Win32,60,61025ae37ef11b136ea224fe,,,,,,,,,1806,36.00001198,88.79999489,1,0,0,response1disk,,7,1.14441E-05,7.999993682,1,0,0,rectangle,1.14441E-05,7.999993682,1,0,0,1.14441E-05,7.999993682,1,0,0,1,9,169,62,1,,,,,,,,
,,,,,,,,,,,,,FF,,,,,,,,1.0001,,,,,,,,,,,,,,,,,,,,,,5ee297bb2f43f7410c49f6ef,61036cc953b06843ea5920fd,2021-07-29_23h10.57.989,Simcolourproject_2stim_asymm_v5,2020.2.10,Win32,60,61025ae37ef11b136ea224fe,,,,,,,,,1297,-107.9999902,39.19996973,1,0,0,response7disk,,1,-17.59998882,-0.800006449,1,0,0,rectangle,-17.59998882,-0.800006449,1,0,0,-17.59998882,-0.800006449,1,0,0,1,10,170,58,1,,,,,,,,
,,,,,,,,,,,,,FF,,,,,,,,0.9315,,,,,,,,,,,,,,,,,,,,,,5ee297bb2f43f7410c49f6ef,61036cc953b06843ea5920fd,2021-07-29_23h10.57.989,Simcolourproject_2stim_asymm_v5,2020.2.10,Win32,60,61025ae37ef11b136ea224fe,,,,,,,,,2652,-65.59998953,-30.40000689,1,0,0,response5disk,,2,6.400011539,8.799993694,1,0,0,rectangle,6.400011539,8.799993694,1,0,0,6.400011539,8.799993694,1,0,0,1,11,171,127,1,,,,,,,,
,,,,,,,,,,,,,FF,,,,,,,,0.9064,,,,,,,,,,,,,,,,,,,,,,5ee297bb2f43f7410c49f6ef,61036cc953b06843ea5920fd,2021-07-29_23h10.57.989,Simcolourproject_2stim_asymm_v5,2020.2.10,Win32,60,61025ae37ef11b136ea224fe,,,,,,,,,1,-84.79998982,30.39999402,1,0,0,response7disk,,1,23.20001179,-12.80000663,1,0,0,rectangle,23.20001179,-12.80000663,1,0,0,23.20001179,-12.80000663,1,0,0,1,12,172,19,1,,,,,,,,
,,,,,,,,,,,,,FF,,,,,,,,3.4527,,,,,,,,,,,,,,,,,,,,,,5ee297bb2f43f7410c49f6ef,61036cc953b06843ea5920fd,2021-07-29_23h10.57.989,Simcolourproject_2stim_asymm_v5,2020.2.10,Win32,60,61025ae37ef11b136ea224fe,,,,,,,,,3271,42.40001208,-92.80000782,1,0,0,response3disk,,4,6.400011539,3.19999361,1,0,0,rectangle,6.400011539,3.19999361,1,0,0,6.400011539,3.19999361,1,0,0,1,13,173,110,1,,,,,,,,
,,,,,,,,,,,,,FF,,,,,,,,0.7986,,,,,,,,,,,,,,,,,,,,,,5ee297bb2f43f7410c49f6ef,61036cc953b06843ea5920fd,2021-07-29_23h10.57.989,Simcolourproject_2stim_asymm_v5,2020.2.10,Win32,60,61025ae37ef11b136ea224fe,,,,,,,,,4025,58.40001231,-74.40000755,1,0,0,response3disk,,4,13.60006047,-4.800006509,1,0,0,rectangle,92.00001281,-19.20000672,1,0,0,6.400011539,-0.800006449,1,0,0,1,14,174,156,1,,response3disk_3,TRUE,5,5,"[52,77,110,145,121,147,318,18,269,133,56,164,28,175,310,164,262,12,91,16]",1.1629,rectangle
,,,,,,,,,,,,,FF,,,,,,,,0.771,,,,,,,,,,,,,,,,,,,,,,5ee297bb2f43f7410c49f6ef,61036cc953b06843ea5920fd,2021-07-29_23h10.57.989,Simcolourproject_2stim_asymm_v5,2020.2.10,Win32,60,61025ae37ef11b136ea224fe,,,,,,,,,2584,38.40001202,59.99999446,1,0,0,response1disk,,7,4.000011504,-7.200006545,1,0,0,rectangle,4.000011504,-7.200006545,1,0,0,4.000011504,-7.200006545,1,0,0,1,15,175,43,1,,,,,,,,
,,,,,,,,,,,,,FF,,,,,,,,1.0144,,,,,,,,,,,,,,,,,,,,,,5ee297bb2f43f7410c49f6ef,61036cc953b06843ea5920fd,2021-07-29_23h10.57.989,Simcolourproject_2stim_asymm_v5,2020.2.10,Win32,60,61025ae37ef11b136ea224fe,,,,,,,,,1816,-79.19998974,-50.40000719,1,0,0,response5disk,,2,-8.799988687,-1.600006461,1,0,0,rectangle,-8.799988687,-1.600006461,1,0,0,-8.799988687,-1.600006461,1,0,0,1,16,176,3,1,,,,,,,,
,,,,,,,,,,,,,FF,,,,,,,,0.7878,,,,,,,,,,,,,,,,,,,,,,5ee297bb2f43f7410c49f6ef,61036cc953b06843ea5920fd,2021-07-29_23h10.57.989,Simcolourproject_2stim_asymm_v5,2020.2.10,Win32,60,61025ae37ef11b136ea224fe,,,,,,,,,2720,-86.39994102,-45.60000712,1,0,0,response5disk,,2,-13.59998876,3.19999361,1,0,0,rectangle,-13.59998876,3.19999361,1,0,0,-13.59998876,3.19999361,1,0,0,1,17,177,0,1,,,,,,,,
,,,,,,,,,,,,,FF,,,,,,,,1.4725,,,,,,,,,,,,,,,,,,,,,,5ee297bb2f43f7410c49f6ef,61036cc953b06843ea5920fd,2021-07-29_23h10.57.989,Simcolourproject_2stim_asymm_v5,2020.2.10,Win32,60,61025ae37ef11b136ea224fe,,,,,,,,,1605,-36.7999891,-64.00000739,1,0,0,response5disk,,3,-18.39994,-5.600006521,1,0,0,rectangle,-18.39994,-5.600006521,1,0,0,-18.39994,-5.600006521,1,0,0,1,18,178,155,1,,,,,,,,
,,,,,,,,,,,,,FF,,,,,,,,2.0311,,,,,,,,,,,,,,,,,,,,,,5ee297bb2f43f7410c49f6ef,61036cc953b06843ea5920fd,2021-07-29_23h10.57.989,Simcolourproject_2stim_asymm_v5,2020.2.10,Win32,60,61025ae37ef11b136ea224fe,,,,,,,,,627,44.0000121,-76.80000758,1,0,0,response3disk,,4,-15.19998878,0.799993575,1,0,0,rectangle,-15.19998878,0.799993575,1,0,0,-15.19998878,0.799993575,1,0,0,1,19,179,12,1,,,,,,,,
,,,,,,,,,,,,,FF,,,,,,,,1.6755,,,,,,,,,,,,,,,,,,,,,,5ee297bb2f43f7410c49f6ef,61036cc953b06843ea5920fd,2021-07-29_23h10.57.989,Simcolourproject_2stim_asymm_v5,2020.2.10,Win32,60,61025ae37ef11b136ea224fe,,,,,,,,,1036,24.0000118,-72.80000752,1,0,0,response3disk,,4,-3.199988604,-5.600006521,1,0,0,rectangle,-3.199988604,-5.600006521,1,0,0,-3.199988604,-5.600006521,1,0,0,1,20,180,30,1,,,,,,,,
,,,,,,,,,,,,,FF,,,,,,,,0.8816,,,,,,,,,,,,,,,,,,,,,,5ee297bb2f43f7410c49f6ef,61036cc953b06843ea5920fd,2021-07-29_23h10.57.989,Simcolourproject_2stim_asymm_v5,2020.2.10,Win32,60,61025ae37ef11b136ea224fe,,,,,,,,,1657,27.20001185,94.39999497,1,0,0,response1disk,,7,-3.999988616,1.599993587,1,0,0,rectangle,-3.999988616,1.599993587,1,0,0,-3.999988616,1.599993587,1,0,0,1,21,181,117,1,,,,,,,,
,,,,,,,,,,,,,FF,,,,,,,,2.0903,,,,,,,,,,,,,,,,,,,,,,5ee297bb2f43f7410c49f6ef,61036cc953b06843ea5920fd,2021-07-29_23h10.57.989,Simcolourproject_2stim_asymm_v5,2020.2.10,Win32,60,61025ae37ef11b136ea224fe,,,,,,,,,3022,95.20001286,-44.8000071,1,0,0,response3disk,,5,0.800011456,5.599993646,1,0,0,rectangle,0.800011456,5.599993646,1,0,0,0.800011456,5.599993646,1,0,0,1,22,182,15,1,,,,,,,,
,,,,,,,,,,,,,FF,,,,,,,,1.4659,,,,,,,,,,,,,,,,,,,,,,5ee297bb2f43f7410c49f6ef,61036cc953b06843ea5920fd,2021-07-29_23h10.57.989,Simcolourproject_2stim_asymm_v5,2020.2.10,Win32,60,61025ae37ef11b136ea224fe,,,,,,,,,1935,79.20001262,-35.20000696,1,0,0,response3disk,,5,-32.79998904,-4.000006497,1,0,0,rectangle,-32.79998904,-4.000006497,1,0,0,-32.79998904,-4.000006497,1,0,0,1,23,183,27,1,,,,,,,,
,,,,,,,,,,,,,FF,,,,,,,,1.0487,,,,,,,,,,,,,,,,,,,,,,5ee297bb2f43f7410c49f6ef,61036cc953b06843ea5920fd,2021-07-29_23h10.57.989,Simcolourproject_2stim_asymm_v5,2020.2.10,Win32,60,61025ae37ef11b136ea224fe,,,,,,,,,3560,-91.19998991,-46.40000713,1,0,0,response5disk,,2,-1.59998858,2.399993598,1,0,0,rectangle,-1.59998858,2.399993598,1,0,0,-1.59998858,2.399993598,1,0,0,1,24,184,123,1,,,,,,,,
,,,,,,,,,,,,,FF,,,,,,,,0.8991,,,,,,,,,,,,,,,,,,,,,,5ee297bb2f43f7410c49f6ef,61036cc953b06843ea5920fd,2021-07-29_23h10.57.989,Simcolourproject_2stim_asymm_v5,2020.2.10,Win32,60,61025ae37ef11b136ea224fe,,,,,,,,,3870,-39.99998915,-67.20000744,1,0,0,response5disk,,3,4.800011516,-4.800006509,1,0,0,rectangle,4.800011516,-4.800006509,1,0,0,4.800011516,-4.800006509,1,0,0,1,25,185,52,1,,,,,,,,
,,,,,,,,,,,,,FF,,,,,,,,1.4804,,,,,,,,,,,,,,,,,,,,,,5ee297bb2f43f7410c49f6ef,61036cc953b06843ea5920fd,2021-07-29_23h10.57.989,Simcolourproject_2stim_asymm_v5,2020.2.10,Win32,60,61025ae37ef11b136ea224fe,,,,,,,,,322,80.00001264,-29.60000688,1,0,0,response3disk,,5,0.800011456,10.39999372,1,0,0,rectangle,0.800011456,10.39999372,1,0,0,0.800011456,10.39999372,1,0,0,1,26,186,6,1,,,,,,,,
,,,,,,,,,,,,,FF,,,,,,,,1.1389,,,,,,,,,,,,,,,,,,,,,,5ee297bb2f43f7410c49f6ef,61036cc953b06843ea5920fd,2021-07-29_23h10.57.989,Simcolourproject_2stim_asymm_v5,2020.2.10,Win32,60,61025ae37ef11b136ea224fe,,,,,,,,,160,78.40001261,42.39999419,1,0,0,response1disk,,6,-27.19998896,-16.80000669,1,0,0,rectangle,-27.19998896,-16.80000669,1,0,0,-27.19998896,-16.80000669,1,0,0,1,27,187,29,1,,,,,,,,
,,,,,,,,,,,,,FF,,,,,,,,0.855,,,,,,,,,,,,,,,,,,,,,,5ee297bb2f43f7410c49f6ef,61036cc953b06843ea5920fd,2021-07-29_23h10.57.989,Simcolourproject_2stim_asymm_v5,2020.2.10,Win32,60,61025ae37ef11b136ea224fe,,,,,,,,,4281,-24.79998893,-60.80000734,1,0,0,response5disk,,3,-15.99998879,12.79999375,1,0,0,rectangle,-15.99998879,12.79999375,1,0,0,-15.99998879,12.79999375,1,0,0,1,28,188,80,1,,,,,,,,
,,,,,,,,,,,,,FF,,,,,,,,0.8348,,,,,,,,,,,,,,,,,,,,,,5ee297bb2f43f7410c49f6ef,61036cc953b06843ea5920fd,2021-07-29_23h10.57.989,Simcolourproject_2stim_asymm_v5,2020.2.10,Win32,60,61025ae37ef11b136ea224fe,,,,,,,,,4147,-80.79998976,-32.00000691,1,0,0,response5disk,,2,0.800011456,0.799993575,1,0,0,rectangle,0.800011456,0.799993575,1,0,0,0.800011456,0.799993575,1,0,0,1,29,189,85,1,,,,,,,,
,,,,,,,,,,,,,FF,,,,,,,,0.8545,,,,,,,,,,,,,,,,,,,,,,5ee297bb2f43f7410c49f6ef,61036cc953b06843ea5920fd,2021-07-29_23h10.57.989,Simcolourproject_2stim_asymm_v5,2020.2.10,Win32,60,61025ae37ef11b136ea224fe,,,,,,,,,3110,84.80001271,33.59999406,1,0,0,response1disk,,6,12.00001162,0.799993575,1,0,0,rectangle,12.00001162,0.799993575,1,0,0,12.00001162,0.799993575,1,0,0,1,30,190,28,1,,,,,,,,
,,,,,,,,,,,,,FF,,,,,,,,0.9098,,,,,,,,,,,,,,,,,,,,,,5ee297bb2f43f7410c49f6ef,61036cc953b06843ea5920fd,2021-07-29_23h10.57.989,Simcolourproject_2stim_asymm_v5,2020.2.10,Win32,60,61025ae37ef11b136ea224fe,,,,,,,,,2359,-63.99998951,-33.60000694,1,0,0,response5disk,,2,3.200011492,2.399993598,1,0,0,rectangle,3.200011492,2.399993598,1,0,0,3.200011492,2.399993598,1,0,0,1,31,191,115,1,,,,,,,,
,,,,,,,,,,,,,FF,,,,,,,,1.5015,,,,,,,,,,,,,,,,,,,,,,5ee297bb2f43f7410c49f6ef,61036cc953b06843ea5920fd,2021-07-29_23h10.57.989,Simcolourproject_2stim_asymm_v5,2020.2.10,Win32,60,61025ae37ef11b136ea224fe,,,,,,,,,1128,32.80001193,-64.8000074,1,0,0,response3disk,,4,15.20001167,-10.40000659,1,0,0,rectangle,15.20001167,-10.40000659,1,0,0,15.20001167,-10.40000659,1,0,0,1,32,192,133,1,,,,,,,,
,,,,,,,,,,,,,FF,,,,,,,,1.1667,,,,,,,,,,,,,,,,,,,,,,5ee297bb2f43f7410c49f6ef,61036cc953b06843ea5920fd,2021-07-29_23h10.57.989,Simcolourproject_2stim_asymm_v5,2020.2.10,Win32,60,61025ae37ef11b136ea224fe,,,,,,,,,1428,68.80001247,27.99999398,1,0,0,response1disk,,6,21.60006059,-8.800006568,1,0,0,rectangle,21.60006059,-8.800006568,1,0,0,21.60006059,-8.800006568,1,0,0,1,33,193,44,1,,,,,,,,
,,,,,,,,,,,,,FF,,,,,,,,1.0901,,,,,,,,,,,,,,,,,,,,,,5ee297bb2f43f7410c49f6ef,61036cc953b06843ea5920fd,2021-07-29_23h10.57.989,Simcolourproject_2stim_asymm_v5,2020.2.10,Win32,60,61025ae37ef11b136ea224fe,,,,,,,,,1866,29.60006071,75.9999947,1,0,0,response1disk,,7,1.600060296,11.19999373,1,0,0,rectangle,1.600060296,11.19999373,1,0,0,1.600060296,11.19999373,1,0,0,1,34,194,118,1,,,,,,,,
,,,,,,,,,,,,,FF,,,,,,,,1.403,,,,,,,,,,,,,,,,,,,,,,5ee297bb2f43f7410c49f6ef,61036cc953b06843ea5920fd,2021-07-29_23h10.57.989,Simcolourproject_2stim_asymm_v5,2020.2.10,Win32,60,61025ae37ef11b136ea224fe,,,,,,,,,1383,-40.79998916,-76.80000758,1,0,0,response5disk,,3,2.40001148,-5.600006521,1,0,0,rectangle,2.40001148,-5.600006521,1,0,0,2.40001148,-5.600006521,1,0,0,1,35,195,41,1,,,,,,,,
,,,,,,,,,,,,,FF,,,,,,,,0.8715,,,,,,,,,,,,,,,,,,,,,,5ee297bb2f43f7410c49f6ef,61036cc953b06843ea5920fd,2021-07-29_23h10.57.989,Simcolourproject_2stim_asymm_v5,2020.2.10,Win32,60,61025ae37ef11b136ea224fe,,,,,,,,,2024,36.00001198,-40.80000705,1,0,0,response3disk,,4,-10.39993988,7.999993682,1,0,0,rectangle,-10.39993988,7.999993682,1,0,0,-10.39993988,7.999993682,1,0,0,1,36,196,92,1,,,,,,,,
,,,,,,,,,,,,,FF,,,,,,,,1.66,,,,,,,,,,,,,,,,,,,,,,5ee297bb2f43f7410c49f6ef,61036cc953b06843ea5920fd,2021-07-29_23h10.57.989,Simcolourproject_2stim_asymm_v5,2020.2.10,Win32,60,61025ae37ef11b136ea224fe,,,,,,,,,1067,36.80001199,-90.40000778,1,0,0,response3disk,,4,-16.79998881,-9.60000658,1,0,0,rectangle,-16.79998881,-9.60000658,1,0,0,-16.79998881,-9.60000658,1,0,0,1,37,197,17,1,,,,,,,,
,,,,,,,,,,,,,FF,,,,,,,,2.6539,,,,,,,,,,,,,,,,,,,,,,5ee297bb2f43f7410c49f6ef,61036cc953b06843ea5920fd,2021-07-29_23h10.57.989,Simcolourproject_2stim_asymm_v5,2020.2.10,Win32,60,61025ae37ef11b136ea224fe,,,,,,,,,652,-33.59998906,-103.200008,1,0,0,response5disk,,3,4.000011504,-3.200006485,1,0,0,rectangle,4.000011504,-3.200006485,1,0,0,4.000011504,-3.200006485,1,0,0,1,38,198,150,1,,,,,,,,
,,,,,,,,,,,,,FF,,,,,,,,1.7117,,,,,,,,,,,,,,,,,,,,,,5ee297bb2f43f7410c49f6ef,61036cc953b06843ea5920fd,2021-07-29_23h10.57.989,Simcolourproject_2stim_asymm_v5,2020.2.10,Win32,60,61025ae37ef11b136ea224fe,,,,,,,,,2883,74.40001255,-36.00000697,1,0,0,response3disk,,5,1.14441E-05,-0.800006449,1,0,0,rectangle,1.14441E-05,-0.800006449,1,0,0,1.14441E-05,-0.800006449,1,0,0,1,39,199,10,1,,,,,,,,
,,,,,,,,,,,,,FF,,,,,,,,0.8816,,,,,,,,,,,,,,,,,,,,,,5ee297bb2f43f7410c49f6ef,61036cc953b06843ea5920fd,2021-07-29_23h10.57.989,Simcolourproject_2stim_asymm_v5,2020.2.10,Win32,60,61025ae37ef11b136ea224fe,,,,,,,,,3703,35.20001197,-72.00000751,1,0,0,response3disk,,4,-9.599988699,7.999993682,1,0,0,rectangle,-9.599988699,7.999993682,1,0,0,-9.599988699,7.999993682,1,0,0,1,40,200,32,1,,,,,,,,
,,,,,,,,,,,,,FF,,,,,,,,1.6183,,,,,,,,,,,,,,,,,,,,,,5ee297bb2f43f7410c49f6ef,61036cc953b06843ea5920fd,2021-07-29_23h10.57.989,Simcolourproject_2stim_asymm_v5,2020.2.10,Win32,60,61025ae37ef11b136ea224fe,,,,,,,,,3973,-47.19998926,-87.20000774,1,0,0,response5disk,,3,-7.199988663,-4.800006509,1,0,0,rectangle,-7.199988663,-4.800006509,1,0,0,-7.199988663,-4.800006509,1,0,0,1,41,201,121,1,,,,,,,,
,,,,,,,,,,,,,FF,,,,,,,,1.9738,,,,,,,,,,,,,,,,,,,,,,5ee297bb2f43f7410c49f6ef,61036cc953b06843ea5920fd,2021-07-29_23h10.57.989,Simcolourproject_2stim_asymm_v5,2020.2.10,Win32,60,61025ae37ef11b136ea224fe,,,,,,,,,1181,18.40001172,-92.00000781,1,0,0,response3disk,,4,-8.799988687,1.599993587,1,0,0,rectangle,-8.799988687,1.599993587,1,0,0,-8.799988687,1.599993587,1,0,0,1,42,202,125,1,,,,,,,,
,,,,,,,,,,,,,FF,,,,,,,,2.0865,,,,,,,,,,,,,,,,,,,,,,5ee297bb2f43f7410c49f6ef,61036cc953b06843ea5920fd,2021-07-29_23h10.57.989,Simcolourproject_2stim_asymm_v5,2020.2.10,Win32,60,61025ae37ef11b136ea224fe,,,,,,,,,2229,-103.1999901,-38.40000701,1,0,0,response5disk,,2,-1.59998858,1.599993587,1,0,0,rectangle,-1.59998858,1.599993587,1,0,0,-1.59998858,1.599993587,1,0,0,1,43,203,108,1,,,,,,,,
,,,,,,,,,,,,,FF,,,,,,,,1.4452,,,,,,,,,,,,,,,,,,,,,,5ee297bb2f43f7410c49f6ef,61036cc953b06843ea5920fd,2021-07-29_23h10.57.989,Simcolourproject_2stim_asymm_v5,2020.2.10,Win32,60,61025ae37ef11b136ea224fe,,,,,,,,,374,-41.59998918,-80.00000763,1,0,0,response5disk,,3,-11.99998873,11.19999373,1,0,0,rectangle,-11.99998873,11.19999373,1,0,0,-11.99998873,11.19999373,1,0,0,1,44,204,112,1,,,,,,,,
,,,,,,,,,,,,,FF,,,,,,,,0.8114,,,,,,,,,,,,,,,,,,,,,,5ee297bb2f43f7410c49f6ef,61036cc953b06843ea5920fd,2021-07-29_23h10.57.989,Simcolourproject_2stim_asymm_v5,2020.2.10,Win32,60,61025ae37ef11b136ea224fe,,,,,,,,,3505,-64.79998952,-36.80000699,1,0,0,response5disk,,2,0.800011456,-6.4373E-06,1,0,0,rectangle,0.800011456,-6.4373E-06,1,0,0,0.800011456,-6.4373E-06,1,0,0,1,45,205,51,1,,,,,,,,
,,,,,,,,,,,,,FF,,,,,,,,1.3058,,,,,,,,,,,,,,,,,,,,,,5ee297bb2f43f7410c49f6ef,61036cc953b06843ea5920fd,2021-07-29_23h10.57.989,Simcolourproject_2stim_asymm_v5,2020.2.10,Win32,60,61025ae37ef11b136ea224fe,,,,,,,,,2815,31.20001191,-76.80000758,1,0,0,response3disk,,4,-15.99998879,-8.000006557,1,0,0,rectangle,-15.99998879,-8.000006557,1,0,0,-15.99998879,-8.000006557,1,0,0,1,46,206,56,1,,,,,,,,
,,,,,,,,,,,,,FF,,,,,,,,1.4792,,,,,,,,,,,,,,,,,,,,,,5ee297bb2f43f7410c49f6ef,61036cc953b06843ea5920fd,2021-07-29_23h10.57.989,Simcolourproject_2stim_asymm_v5,2020.2.10,Win32,60,61025ae37ef11b136ea224fe,,,,,,,,,2951,30.4000119,-93.60005666,1,0,0,response3disk,,4,1.600060296,1.599993587,1,0,0,rectangle,1.600060296,1.599993587,1,0,0,1.600060296,1.599993587,1,0,0,1,47,207,39,1,,,,,,,,
,,,,,,,,,,,,,FF,,,,,,,,1.0472,,,,,,,,,,,,,,,,,,,,,,5ee297bb2f43f7410c49f6ef,61036cc953b06843ea5920fd,2021-07-29_23h10.57.989,Simcolourproject_2stim_asymm_v5,2020.2.10,Win32,60,61025ae37ef11b136ea224fe,,,,,,,,,3221,40.80001205,76.79999471,1,0,0,response1disk,,7,25.60006065,-12.00000662,1,0,0,rectangle,25.60006065,-12.00000662,1,0,0,25.60006065,-12.00000662,1,0,0,1,48,208,25,1,,,,,,,,
,,,,,,,,,,,,,FF,,,,,,,,1.6055,,,,,,,,,,,,,,,,,,,,,,5ee297bb2f43f7410c49f6ef,61036cc953b06843ea5920fd,2021-07-29_23h10.57.989,Simcolourproject_2stim_asymm_v5,2020.2.10,Win32,60,61025ae37ef11b136ea224fe,,,,,,,,,4249,20.80001175,-96.00000787,1,0,0,response3disk,,4,8.000011563,-12.80000663,1,0,0,rectangle,8.000011563,-12.80000663,1,0,0,8.000011563,-12.80000663,1,0,0,1,49,209,67,1,,,,,,,,
,,,,,,,,,,,,,FF,,,,,,,,1.2159,,,,,,,,,,,,,,,,,,,,,,5ee297bb2f43f7410c49f6ef,61036cc953b06843ea5920fd,2021-07-29_23h10.57.989,Simcolourproject_2stim_asymm_v5,2020.2.10,Win32,60,61025ae37ef11b136ea224fe,,,,,,,,,497,36.80001199,77.59999472,1,0,0,response1disk,,7,35.20001197,-2.400006473,1,0,0,rectangle,35.20001197,-2.400006473,1,0,0,35.20001197,-2.400006473,1,0,0,1,50,210,69,1,,,,,,,,
,,,,,,,,,,,,,FF,,,,,,,,2.2708,,,,,,,,,,,,,,,,,,,,,,5ee297bb2f43f7410c49f6ef,61036cc953b06843ea5920fd,2021-07-29_23h10.57.989,Simcolourproject_2stim_asymm_v5,2020.2.10,Win32,60,61025ae37ef11b136ea224fe,,,,,,,,,3606,23.20001179,-90.40000778,1,0,0,response3disk,,4,16.80001169,3.999993622,1,0,0,rectangle,16.80001169,3.999993622,1,0,0,16.80001169,3.999993622,1,0,0,1,51,211,7,1,,,,,,,,
,,,,,,,,,,,,,FF,,,,,,,,1.5902,,,,,,,,,,,,,,,,,,,,,,5ee297bb2f43f7410c49f6ef,61036cc953b06843ea5920fd,2021-07-29_23h10.57.989,Simcolourproject_2stim_asymm_v5,2020.2.10,Win32,60,61025ae37ef11b136ea224fe,,,,,,,,,1712,80.00001264,34.39999408,1,0,0,response1disk,,6,24.0000118,-12.80000663,1,0,0,rectangle,24.0000118,-12.80000663,1,0,0,24.0000118,-12.80000663,1,0,0,1,52,212,48,1,,,,,,,,
,,,,,,,,,,,,,FF,,,,,,,,0.8255,,,,,,,,,,,,,,,,,,,,,,5ee297bb2f43f7410c49f6ef,61036cc953b06843ea5920fd,2021-07-29_23h10.57.989,Simcolourproject_2stim_asymm_v5,2020.2.10,Win32,60,61025ae37ef11b136ea224fe,,,,,,,,,1642,29.60006071,67.19997015,1,0,0,response1disk,,7,11.20001161,-2.400006473,1,0,0,rectangle,11.20001161,-2.400006473,1,0,0,11.20001161,-2.400006473,1,0,0,1,53,213,26,1,,,,,,,,
,,,,,,,,,,,,,FF,,,,,,,,0.7434,,,,,,,,,,,,,,,,,,,,,,5ee297bb2f43f7410c49f6ef,61036cc953b06843ea5920fd,2021-07-29_23h10.57.989,Simcolourproject_2stim_asymm_v5,2020.2.10,Win32,60,61025ae37ef11b136ea224fe,,,,,,,,,1102,44.80001211,98.39999503,1,0,0,response1disk,,7,-0.799988568,-4.800006509,1,0,0,rectangle,-0.799988568,-4.800006509,1,0,0,-0.799988568,-4.800006509,1,0,0,1,54,214,9,1,,,,,,,,
,,,,,,,,,,,,,FF,,,,,,,,0.8644,,,,,,,,,,,,,,,,,,,,,,5ee297bb2f43f7410c49f6ef,61036cc953b06843ea5920fd,2021-07-29_23h10.57.989,Simcolourproject_2stim_asymm_v5,2020.2.10,Win32,60,61025ae37ef11b136ea224fe,,,,,,,,,3050,-83.1999898,-38.40000701,1,0,0,response5disk,,2,-14.39993994,-3.200006485,1,0,0,rectangle,-14.39993994,-3.200006485,1,0,0,-14.39993994,-3.200006485,1,0,0,1,55,215,24,1,,,,,,,,
,,,,,,,,,,,,,FF,,,,,,,,1.499,,,,,,,,,,,,,,,,,,,,,,5ee297bb2f43f7410c49f6ef,61036cc953b06843ea5920fd,2021-07-29_23h10.57.989,Simcolourproject_2stim_asymm_v5,2020.2.10,Win32,60,61025ae37ef11b136ea224fe,,,,,,,,,1017,54.40001225,79.19997033,1,0,0,response1disk,,7,5.600060356,-7.200006545,1,0,0,rectangle,5.600060356,-7.200006545,1,0,0,5.600060356,-7.200006545,1,0,0,1,56,216,2,1,,,,,,,,
,,,,,,,,,,,,,FF,,,,,,,,1.4167,,,,,,,,,,,,,,,,,,,,,,5ee297bb2f43f7410c49f6ef,61036cc953b06843ea5920fd,2021-07-29_23h10.57.989,Simcolourproject_2stim_asymm_v5,2020.2.10,Win32,60,61025ae37ef11b136ea224fe,,,,,,,,,135,27.20001185,85.59999484,1,0,0,response1disk,,7,0.800011456,3.999993622,1,0,0,rectangle,0.800011456,3.999993622,1,0,0,0.800011456,3.999993622,1,0,0,1,57,217,59,1,,,,,,,,
,,,,,,,,,,,,,FF,,,,,,,,0.8133,,,,,,,,,,,,,,,,,,,,,,5ee297bb2f43f7410c49f6ef,61036cc953b06843ea5920fd,2021-07-29_23h10.57.989,Simcolourproject_2stim_asymm_v5,2020.2.10,Win32,60,61025ae37ef11b136ea224fe,,,,,,,,,3909,-71.99998963,-86.40000772,1,0,0,response5disk,,3,-16.79998881,3.19999361,1,0,0,rectangle,-16.79998881,3.19999361,1,0,0,-16.79998881,3.19999361,1,0,0,1,58,218,134,1,,,,,,,,
,,,,,,,,,,,,,FF,,,,,,,,1.2842,,,,,,,,,,,,,,,,,,,,,,5ee297bb2f43f7410c49f6ef,61036cc953b06843ea5920fd,2021-07-29_23h10.57.989,Simcolourproject_2stim_asymm_v5,2020.2.10,Win32,60,61025ae37ef11b136ea224fe,,,,,,,,,1937,77.6000126,-44.00000709,1,0,0,response3disk,,5,16.00001168,-11.2000066,1,0,0,rectangle,16.00001168,-11.2000066,1,0,0,16.00001168,-11.2000066,1,0,0,1,59,219,142,1,,,,,,,,
,,,,,,,,,,,,,FF,,,,,,,,0.8644,,,,,,,,,,,,,,,,,,,,,,5ee297bb2f43f7410c49f6ef,61036cc953b06843ea5920fd,2021-07-29_23h10.57.989,Simcolourproject_2stim_asymm_v5,2020.2.10,Win32,60,61025ae37ef11b136ea224fe,,,,,,,,,2497,97.6000129,39.19996973,1,0,0,response1disk,,6,21.60006059,1.599993587,1,0,0,rectangle,21.60006059,1.599993587,1,0,0,21.60006059,1.599993587,1,0,0,1,60,220,90,1,,,,,,,,
,,,,,,,,,,,,,FF,,,,,,,,1.1954,,,,,,,,,,,,,,,,,,,,,,5ee297bb2f43f7410c49f6ef,61036cc953b06843ea5920fd,2021-07-29_23h10.57.989,Simcolourproject_2stim_asymm_v5,2020.2.10,Win32,60,61025ae37ef11b136ea224fe,,,,,,,,,25,17.60006053,80.79999477,1,0,0,response1disk,,7,3.200011492,-15.20000666,1,0,0,rectangle,3.200011492,-15.20000666,1,0,0,3.200011492,-15.20000666,1,0,0,1,61,221,13,1,,,,,,,,
,,,,,,,,,,,,,FF,,,,,,,,0.9993,,,,,,,,,,,,,,,,,,,,,,5ee297bb2f43f7410c49f6ef,61036cc953b06843ea5920fd,2021-07-29_23h10.57.989,Simcolourproject_2stim_asymm_v5,2020.2.10,Win32,60,61025ae37ef11b136ea224fe,,,,,,,,,3448,51.20001221,84.79999483,1,0,0,response1disk,,7,0.800011456,-11.2000066,1,0,0,rectangle,0.800011456,-11.2000066,1,0,0,0.800011456,-11.2000066,1,0,0,1,62,222,130,1,,,,,,,,
,,,,,,,,,,,,,FF,,,,,,,,1.4865,,,,,,,,,,,,,,,,,,,,,,5ee297bb2f43f7410c49f6ef,61036cc953b06843ea5920fd,2021-07-29_23h10.57.989,Simcolourproject_2stim_asymm_v5,2020.2.10,Win32,60,61025ae37ef11b136ea224fe,,,,,,,,,4053,92.00001281,-40.00000703,1,0,0,response3disk,,5,22.40001178,13.59999377,1,0,0,rectangle,22.40001178,13.59999377,1,0,0,22.40001178,13.59999377,1,0,0,1,63,223,23,1,,,,,,,,
,,,,,,,,,,,,,FF,,,,,,,,1.4269,,,,,,,,,,,,,,,,,,,,,,5ee297bb2f43f7410c49f6ef,61036cc953b06843ea5920fd,2021-07-29_23h10.57.989,Simcolourproject_2stim_asymm_v5,2020.2.10,Win32,60,61025ae37ef11b136ea224fe,,,,,,,,,2816,82.40001267,46.39999425,1,0,0,response1disk,,6,12.00001162,6.399993658,1,0,0,rectangle,12.00001162,6.399993658,1,0,0,12.00001162,6.399993658,1,0,0,1,64,224,88,1,,,,,,,,
,,,,,,,,,,,,,FF,,,,,,,,1.0271,,,,,,,,,,,,,,,,,,,,,,5ee297bb2f43f7410c49f6ef,61036cc953b06843ea5920fd,2021-07-29_23h10.57.989,Simcolourproject_2stim_asymm_v5,2020.2.10,Win32,60,61025ae37ef11b136ea224fe,,,,,,,,,1341,35.20001197,110.3999952,1,0,0,response1disk,,7,1.600060296,7.19999367,1,0,0,rectangle,1.600060296,7.19999367,1,0,0,1.600060296,7.19999367,1,0,0,1,65,225,65,1,,,,,,,,
,,,,,,,,,,,,,FF,,,,,,,,1.4615,,,,,,,,,,,,,,,,,,,,,,5ee297bb2f43f7410c49f6ef,61036cc953b06843ea5920fd,2021-07-29_23h10.57.989,Simcolourproject_2stim_asymm_v5,2020.2.10,Win32,60,61025ae37ef11b136ea224fe,,,,,,,,,3215,56.80001229,-95.20000786,1,0,0,response3disk,,4,12.00001162,-7.200006545,1,0,0,rectangle,12.00001162,-7.200006545,1,0,0,12.00001162,-7.200006545,1,0,0,1,66,226,21,1,,,,,,,,
,,,,,,,,,,,,,FF,,,,,,,,1.0166,,,,,,,,,,,,,,,,,,,,,,5ee297bb2f43f7410c49f6ef,61036cc953b06843ea5920fd,2021-07-29_23h10.57.989,Simcolourproject_2stim_asymm_v5,2020.2.10,Win32,60,61025ae37ef11b136ea224fe,,,,,,,,,1717,66.40001243,-52.80000722,1,0,0,response3disk,,5,8.000011563,-5.600006521,1,0,0,rectangle,8.000011563,-5.600006521,1,0,0,8.000011563,-5.600006521,1,0,0,1,67,227,82,1,,,,,,,,
,,,,,,,,,,,,,FF,,,,,,,,0.8819,,,,,,,,,,,,,,,,,,,,,,5ee297bb2f43f7410c49f6ef,61036cc953b06843ea5920fd,2021-07-29_23h10.57.989,Simcolourproject_2stim_asymm_v5,2020.2.10,Win32,60,61025ae37ef11b136ea224fe,,,,,,,,,880,40.00001204,-64.00000739,1,0,0,response3disk,,4,-6.399939823,2.399993598,1,0,0,rectangle,-6.399939823,2.399993598,1,0,0,-6.399939823,2.399993598,1,0,0,1,68,228,84,1,,,,,,,,
,,,,,,,,,,,,,FF,,,,,,,,1.3061,,,,,,,,,,,,,,,,,,,,,,5ee297bb2f43f7410c49f6ef,61036cc953b06843ea5920fd,2021-07-29_23h10.57.989,Simcolourproject_2stim_asymm_v5,2020.2.10,Win32,60,61025ae37ef11b136ea224fe,,,,,,,,,2246,61.60001236,-40.80000705,1,0,0,response3disk,,5,-11.19998872,3.19999361,1,0,0,rectangle,-11.19998872,3.19999361,1,0,0,-11.19998872,3.19999361,1,0,0,1,69,229,31,1,,,,,,,,
,,,,,,,,,,,,,FF,,,,,,,,1.1803,,,,,,,,,,,,,,,,,,,,,,5ee297bb2f43f7410c49f6ef,61036cc953b06843ea5920fd,2021-07-29_23h10.57.989,Simcolourproject_2stim_asymm_v5,2020.2.10,Win32,60,61025ae37ef11b136ea224fe,,,,,,,,,2267,17.60006053,82.39999479,1,0,0,response1disk,,7,16.00001168,0.799993575,1,0,0,rectangle,16.00001168,0.799993575,1,0,0,16.00001168,0.799993575,1,0,0,1,70,230,37,1,,,,,,,,
,,,,,,,,,,,,,FF,,,,,,,,0.9655,,,,,,,,,,,,,,,,,,,,,,5ee297bb2f43f7410c49f6ef,61036cc953b06843ea5920fd,2021-07-29_23h10.57.989,Simcolourproject_2stim_asymm_v5,2020.2.10,Win32,60,61025ae37ef11b136ea224fe,,,,,,,,,2479,38.40001202,-66.40000743,1,0,0,response3disk,,4,10.4000116,-14.40000665,1,0,0,rectangle,10.4000116,-14.40000665,1,0,0,10.4000116,-14.40000665,1,0,0,1,71,231,55,1,,,,,,,,
,,,,,,,,,,,,,FF,,,,,,,,2.1807,,,,,,,,,,,,,,,,,,,,,,5ee297bb2f43f7410c49f6ef,61036cc953b06843ea5920fd,2021-07-29_23h10.57.989,Simcolourproject_2stim_asymm_v5,2020.2.10,Win32,60,61025ae37ef11b136ea224fe,,,,,,,,,3484,-47.99998927,-78.40000761,1,0,0,response5disk,,3,10.4000116,-14.40000665,1,0,0,rectangle,10.4000116,-14.40000665,1,0,0,10.4000116,-14.40000665,1,0,0,1,72,232,151,1,,,,,,,,
,,,,,,,,,,,,,FF,,,,,,,,0.9099,,,,,,,,,,,,,,,,,,,,,,5ee297bb2f43f7410c49f6ef,61036cc953b06843ea5920fd,2021-07-29_23h10.57.989,Simcolourproject_2stim_asymm_v5,2020.2.10,Win32,60,61025ae37ef11b136ea224fe,,,,,,,,,2390,52.80001223,-30.40000689,1,0,0,response3disk,,5,12.00001162,15.19999379,1,0,0,rectangle,12.00001162,15.19999379,1,0,0,12.00001162,15.19999379,1,0,0,1,73,233,141,1,,,,,,,,
,,,,,,,,,,,,,FF,,,,,,,,1.3957,,,,,,,,,,,,,,,,,,,,,,5ee297bb2f43f7410c49f6ef,61036cc953b06843ea5920fd,2021-07-29_23h10.57.989,Simcolourproject_2stim_asymm_v5,2020.2.10,Win32,60,61025ae37ef11b136ea224fe,,,,,,,,,950,33.60006077,-73.60000753,1,0,0,response3disk,,4,-5.599988639,-1.600006461,1,0,0,rectangle,-5.599988639,-1.600006461,1,0,0,-5.599988639,-1.600006461,1,0,0,1,74,234,34,1,,,,,,,,
,,,,,,,,,,,,,FF,,,,,,,,1.7644,,,,,,,,,,,,,,,,,,,,,,5ee297bb2f43f7410c49f6ef,61036cc953b06843ea5920fd,2021-07-29_23h10.57.989,Simcolourproject_2stim_asymm_v5,2020.2.10,Win32,60,61025ae37ef11b136ea224fe,,,,,,,,,1674,-93.59998995,-52.00000721,1,0,0,response5disk,,2,-26.39994012,3.999993622,1,0,0,rectangle,-26.39994012,3.999993622,1,0,0,-26.39994012,3.999993622,1,0,0,1,75,235,76,1,,,,,,,,
,,,,,,,,,,,,,FF,,,,,,,,1.9643,,,,,,,,,,,,,,,,,,,,,,5ee297bb2f43f7410c49f6ef,61036cc953b06843ea5920fd,2021-07-29_23h10.57.989,Simcolourproject_2stim_asymm_v5,2020.2.10,Win32,60,61025ae37ef11b136ea224fe,,,,,,,,,912,37.60006083,-83.20000768,1,0,0,response3disk,,4,13.60006047,-14.40000665,1,0,0,rectangle,13.60006047,-14.40000665,1,0,0,13.60006047,-14.40000665,1,0,0,1,76,236,53,1,,,,,,,,
,,,,,,,,,,,,,FF,,,,,,,,0.7573,,,,,,,,,,,,,,,,,,,,,,5ee297bb2f43f7410c49f6ef,61036cc953b06843ea5920fd,2021-07-29_23h10.57.989,Simcolourproject_2stim_asymm_v5,2020.2.10,Win32,60,61025ae37ef11b136ea224fe,,,,,,,,,1606,-91.99998993,-36.00000697,1,0,0,response5disk,,2,-17.59998882,-3.200006485,1,0,0,rectangle,-17.59998882,-3.200006485,1,0,0,-17.59998882,-3.200006485,1,0,0,1,77,237,20,1,,,,,,,,
,,,,,,,,,,,,,FF,,,,,,,,0.9375,,,,,,,,,,,,,,,,,,,,,,5ee297bb2f43f7410c49f6ef,61036cc953b06843ea5920fd,2021-07-29_23h10.57.989,Simcolourproject_2stim_asymm_v5,2020.2.10,Win32,60,61025ae37ef11b136ea224fe,,,,,,,,,2305,23.20001179,66.39999455,1,0,0,response1disk,,7,13.60006047,-6.400006533,1,0,0,rectangle,13.60006047,-6.400006533,1,0,0,13.60006047,-6.400006533,1,0,0,1,78,238,97,1,,,,,,,,
,,,,,,,,,,,,,FF,,,,,,,,1.639,,,,,,,,,,,,,,,,,,,,,,5ee297bb2f43f7410c49f6ef,61036cc953b06843ea5920fd,2021-07-29_23h10.57.989,Simcolourproject_2stim_asymm_v5,2020.2.10,Win32,60,61025ae37ef11b136ea224fe,,,,,,,,,3418,64.0000124,-30.40000689,1,0,0,response3disk,,5,-22.39994006,-4.000006497,1,0,0,rectangle,-22.39994006,-4.000006497,1,0,0,-22.39994006,-4.000006497,1,0,0,1,79,239,132,1,,,,,,,,
,,,,,,,,,,,,,FF,,,,,,,,0.7993,,,,,,,,,,,,,,,,,,,,,,5ee297bb2f43f7410c49f6ef,61036cc953b06843ea5920fd,2021-07-29_23h10.57.989,Simcolourproject_2stim_asymm_v5,2020.2.10,Win32,60,61025ae37ef11b136ea224fe,,,,,,,,,1904,68.80001247,-54.40000725,1,0,0,response3disk,,5,-35.99998909,-8.800006568,1,0,0,rectangle,-35.99998909,-8.800006568,1,0,0,-35.99998909,-8.800006568,1,0,0,1,80,240,38,1,,,,,,,,
,,,,,,,,,,,,,FF,,,,,,,,1.4276,,,,,,,,,,,,,,,,,,,,,,5ee297bb2f43f7410c49f6ef,61036cc953b06843ea5920fd,2021-07-29_23h10.57.989,Simcolourproject_2stim_asymm_v5,2020.2.10,Win32,60,61025ae37ef11b136ea224fe,,,,,,,,,1030,21.60006059,-80.00000763,1,0,0,response3disk,,4,-23.1999889,-16.80000669,1,0,0,rectangle,-23.1999889,-16.80000669,1,0,0,-23.1999889,-16.80000669,1,0,0,1,81,241,83,1,,,,,,,,
,,,,,,,,,,,,,FF,,,,,,,,1.4919,,,,,,,,,,,,,,,,,,,,,,5ee297bb2f43f7410c49f6ef,61036cc953b06843ea5920fd,2021-07-29_23h10.57.989,Simcolourproject_2stim_asymm_v5,2020.2.10,Win32,60,61025ae37ef11b136ea224fe,,,,,,,,,2707,51.20001221,83.19997039,1,0,0,response1disk,,7,26.40001184,16.79999381,1,0,0,rectangle,26.40001184,16.79999381,1,0,0,26.40001184,16.79999381,1,0,0,1,82,242,79,1,,,,,,,,
