key_resp.keys,key_resp.rt,key_resp_14.keys,key_resp_14.rt,key_resp_15.keys,key_resp_15.rt,key_resp_17.keys,key_resp_17.rt,key_resp_9.keys,key_resp_9.rt,key_resp_10.keys,key_resp_10.rt,practice_comparison,Ecc,mouse_5.x,mouse_5.y,mouse_5.leftButton,mouse_5.midButton,mouse_5.rightButton,mouse_5.clicked_name,pracsimilarity,response_time,mouse_10.x,mouse_10.y,mouse_10.leftButton,mouse_10.midButton,mouse_10.rightButton,mouse_10.clicked_name,mouse_7.x,mouse_7.y,mouse_7.leftButton,mouse_7.midButton,mouse_7.rightButton,mouse_6.x,mouse_6.y,mouse_6.leftButton,mouse_6.midButton,mouse_6.rightButton,duringprac.thisRepN,duringprac.thisTrialN,duringprac.thisN,duringprac.thisIndex,duringprac.ran,participant,session,date,expName,psychopyVersion,OS,frameRate,study_id,mouse_7.clicked_name,catchpracsimilarity,catch_response_time,catchnumberprac,catchtrialorderprac,mouse_6.clicked_name,key_resp_22.keys,key_resp_22.rt,realcomparison,mouse.x,mouse.y,mouse.leftButton,mouse.midButton,mouse.rightButton,mouse.clicked_name,Colour2,similarity,mouse_2.x,mouse_2.y,mouse_2.leftButton,mouse_2.midButton,mouse_2.rightButton,mouse_2.clicked_name,mouse_3.x,mouse_3.y,mouse_3.leftButton,mouse_3.midButton,mouse_3.rightButton,mouse_11.x,mouse_11.y,mouse_11.leftButton,mouse_11.midButton,mouse_11.rightButton,trials_2.thisRepN,trials_2.thisTrialN,trials_2.thisN,trials_2.thisIndex,trials_2.ran,Colour1,mouse_3.clicked_name,catchornah,catchsimilarity,catchnumber,catchtrialorder,catchRT,mouse_11.clicked_name
space,1.3261,space,5.3345,space,14.3407,space,1.917,space,1.195,space,2.5285,82,FF,-112,55,1,0,0,response7disk_5,1,1.5415,10,-10,1,0,0,rectangle_8,10,-10,1,0,0,10,-10,1,0,0,0,0,0,0,1,5eebcc4620cb9a33cd0df72d,61036e083870dce2f2b6664d,2021-07-30_04h12.37.379,Simcolourproject_2stim_asymm_v5,2020.2.10,Win32,60,61025ae37ef11b136ea224fe,,,,,,,,,,,,,,,,,,,,,,,,,,,,,,,,,,,,,,,,,,,,,,
,,,,,,,,,,,,48,PF,-104,-97,1,0,0,response5disk_5,2,5.7114,-3,7,1,0,0,rectangle_8,60,121,1,0,0,1,-3,1,0,0,0,1,1,4,1,5eebcc4620cb9a33cd0df72d,61036e083870dce2f2b6664d,2021-07-30_04h12.37.379,Simcolourproject_2stim_asymm_v5,2020.2.10,Win32,60,61025ae37ef11b136ea224fe,response1disk_7,7,3.9498,7,"[2,5]",rectangle_4,,,,,,,,,,,,,,,,,,,,,,,,,,,,,,,,,,,,,,,,
,,,,,,,,,,,,102,PF,84,102,1,0,0,response1disk_5,7,3.2434,15,-16,1,0,0,rectangle_8,15,-16,1,0,0,15,-16,1,0,0,0,2,2,1,1,5eebcc4620cb9a33cd0df72d,61036e083870dce2f2b6664d,2021-07-30_04h12.37.379,Simcolourproject_2stim_asymm_v5,2020.2.10,Win32,60,61025ae37ef11b136ea224fe,,,,,,,,,,,,,,,,,,,,,,,,,,,,,,,,,,,,,,,,,,,,,,
,,,,,,,,,,,,76,PF,122,39,1,0,0,response1disk_5,6,5.542,2,0,1,0,0,rectangle_8,2,0,1,0,0,2,0,1,0,0,0,3,3,6,1,5eebcc4620cb9a33cd0df72d,61036e083870dce2f2b6664d,2021-07-30_04h12.37.379,Simcolourproject_2stim_asymm_v5,2020.2.10,Win32,60,61025ae37ef11b136ea224fe,,,,,,,,,,,,,,,,,,,,,,,,,,,,,,,,,,,,,,,,,,,,,,
,,,,,,,,,,,,150,FF,-88,-62,1,0,0,response5disk_5,2,2.0626,-17,-13,1,0,0,rectangle_8,49,95,1,0,0,12,-14,1,0,0,0,4,4,3,1,5eebcc4620cb9a33cd0df72d,61036e083870dce2f2b6664d,2021-07-30_04h12.37.379,Simcolourproject_2stim_asymm_v5,2020.2.10,Win32,60,61025ae37ef11b136ea224fe,response1disk_7,7,3.5071,7,"[2,5]",rectangle_4,,,,,,,,,,,,,,,,,,,,,,,,,,,,,,,,,,,,,,,,
,,,,,,,,,,,,57,PF,-77,-52,1,0,0,response5disk_5,2,4.6391,10,6,1,0,0,rectangle_8,10,6,1,0,0,10,6,1,0,0,0,5,5,2,1,5eebcc4620cb9a33cd0df72d,61036e083870dce2f2b6664d,2021-07-30_04h12.37.379,Simcolourproject_2stim_asymm_v5,2020.2.10,Win32,60,61025ae37ef11b136ea224fe,,,,,,,,,,,,,,,,,,,,,,,,,,,,,,,,,,,,,,,,,,,,,,
,,,,,,,,,,,,101,FF,-71,-43,1,0,0,response5disk_5,2,2.6669,6,-9,1,0,0,rectangle_8,6,-9,1,0,0,6,-9,1,0,0,0,6,6,5,1,5eebcc4620cb9a33cd0df72d,61036e083870dce2f2b6664d,2021-07-30_04h12.37.379,Simcolourproject_2stim_asymm_v5,2020.2.10,Win32,60,61025ae37ef11b136ea224fe,,,,,,,,,,,,,,,,,,,,,,,,,,,,,,,,,,,,,,,,,,,,,,
,,,,,,,,,,,,,FF,,,,,,,,5.861,,,,,,,,,,,,,,,,,,,,,,5eebcc4620cb9a33cd0df72d,61036e083870dce2f2b6664d,2021-07-30_04h12.37.379,Simcolourproject_2stim_asymm_v5,2020.2.10,Win32,60,61025ae37ef11b136ea224fe,,,,,,,space,6.8171,3473,-87,-53,1,0,0,response5disk,,2,-18,0,1,0,0,rectangle,-18,0,1,0,0,-18,0,1,0,0,0,0,0,49,1,,,,,,,,
,,,,,,,,,,,,,FF,,,,,,,,2.0513,,,,,,,,,,,,,,,,,,,,,,5eebcc4620cb9a33cd0df72d,61036e083870dce2f2b6664d,2021-07-30_04h12.37.379,Simcolourproject_2stim_asymm_v5,2020.2.10,Win32,60,61025ae37ef11b136ea224fe,,,,,,,,,570,72,-133,1,0,0,response3disk,,4,-23,-14,1,0,0,rectangle,-23,-14,1,0,0,-23,-14,1,0,0,0,1,1,153,1,,,,,,,,
,,,,,,,,,,,,,FF,,,,,,,,2.3892,,,,,,,,,,,,,,,,,,,,,,5eebcc4620cb9a33cd0df72d,61036e083870dce2f2b6664d,2021-07-30_04h12.37.379,Simcolourproject_2stim_asymm_v5,2020.2.10,Win32,60,61025ae37ef11b136ea224fe,,,,,,,,,3784,81,-131,1,0,0,response3disk,,4,4,3,1,0,0,rectangle,4,3,1,0,0,4,3,1,0,0,0,2,2,80,1,,,,,,,,
,,,,,,,,,,,,,FF,,,,,,,,3.5318,,,,,,,,,,,,,,,,,,,,,,5eebcc4620cb9a33cd0df72d,61036e083870dce2f2b6664d,2021-07-30_04h12.37.379,Simcolourproject_2stim_asymm_v5,2020.2.10,Win32,60,61025ae37ef11b136ea224fe,,,,,,,,,4152,140,-83,1,0,0,response3disk,,5,6,3,1,0,0,rectangle,6,3,1,0,0,6,3,1,0,0,0,3,3,71,1,,,,,,,,
,,,,,,,,,,,,,FF,,,,,,,,1.5767,,,,,,,,,,,,,,,,,,,,,,5eebcc4620cb9a33cd0df72d,61036e083870dce2f2b6664d,2021-07-30_04h12.37.379,Simcolourproject_2stim_asymm_v5,2020.2.10,Win32,60,61025ae37ef11b136ea224fe,,,,,,,,,3460,-109,-75,1,0,0,response5disk,,2,-5,-15,1,0,0,rectangle,-5,-15,1,0,0,-5,-15,1,0,0,0,4,4,114,1,,,,,,,,
,,,,,,,,,,,,,FF,,,,,,,,1.2571,,,,,,,,,,,,,,,,,,,,,,5eebcc4620cb9a33cd0df72d,61036e083870dce2f2b6664d,2021-07-30_04h12.37.379,Simcolourproject_2stim_asymm_v5,2020.2.10,Win32,60,61025ae37ef11b136ea224fe,,,,,,,,,4128,-92,-56,1,0,0,response5disk,,2,27,-13,1,0,0,rectangle,27,-13,1,0,0,27,-13,1,0,0,0,5,5,19,1,,,,,,,,
,,,,,,,,,,,,,FF,,,,,,,,2.299,,,,,,,,,,,,,,,,,,,,,,5eebcc4620cb9a33cd0df72d,61036e083870dce2f2b6664d,2021-07-30_04h12.37.379,Simcolourproject_2stim_asymm_v5,2020.2.10,Win32,60,61025ae37ef11b136ea224fe,,,,,,,,,3730,-36,-132,1,0,0,response5disk,,3,19,10,1,0,0,rectangle,19,10,1,0,0,19,10,1,0,0,0,6,6,59,1,,,,,,,,
,,,,,,,,,,,,,FF,,,,,,,,2.2916,,,,,,,,,,,,,,,,,,,,,,5eebcc4620cb9a33cd0df72d,61036e083870dce2f2b6664d,2021-07-30_04h12.37.379,Simcolourproject_2stim_asymm_v5,2020.2.10,Win32,60,61025ae37ef11b136ea224fe,,,,,,,,,2014,109,42,1,0,0,response1disk,,6,-1,8,1,0,0,rectangle,-1,8,1,0,0,-1,8,1,0,0,0,7,7,81,1,,,,,,,,
,,,,,,,,,,,,,FF,,,,,,,,1.1285,,,,,,,,,,,,,,,,,,,,,,5eebcc4620cb9a33cd0df72d,61036e083870dce2f2b6664d,2021-07-30_04h12.37.379,Simcolourproject_2stim_asymm_v5,2020.2.10,Win32,60,61025ae37ef11b136ea224fe,,,,,,,,,1885,116,34,1,0,0,response1disk,,6,33,-5,1,0,0,rectangle,33,-5,1,0,0,33,-5,1,0,0,0,8,8,151,1,,,,,,,,
,,,,,,,,,,,,,FF,,,,,,,,1.4862,,,,,,,,,,,,,,,,,,,,,,5eebcc4620cb9a33cd0df72d,61036e083870dce2f2b6664d,2021-07-30_04h12.37.379,Simcolourproject_2stim_asymm_v5,2020.2.10,Win32,60,61025ae37ef11b136ea224fe,,,,,,,,,1643,59,-135,1,0,0,response3disk,,4,30,-17,1,0,0,rectangle,30,-17,1,0,0,30,-17,1,0,0,0,9,9,34,1,,,,,,,,
,,,,,,,,,,,,,FF,,,,,,,,1.6044,,,,,,,,,,,,,,,,,,,,,,5eebcc4620cb9a33cd0df72d,61036e083870dce2f2b6664d,2021-07-30_04h12.37.379,Simcolourproject_2stim_asymm_v5,2020.2.10,Win32,60,61025ae37ef11b136ea224fe,,,,,,,,,0,113,-59,1,0,0,response3disk,,5,10,-17,1,0,0,rectangle,10,-17,1,0,0,10,-17,1,0,0,0,10,10,56,1,,,,,,,,
,,,,,,,,,,,,,FF,,,,,,,,2.9546,,,,,,,,,,,,,,,,,,,,,,5eebcc4620cb9a33cd0df72d,61036e083870dce2f2b6664d,2021-07-30_04h12.37.379,Simcolourproject_2stim_asymm_v5,2020.2.10,Win32,60,61025ae37ef11b136ea224fe,,,,,,,,,3091,-116,42,1,0,0,response7disk,,1,-32,-6,1,0,0,rectangle,-32,-6,1,0,0,-32,-6,1,0,0,0,11,11,2,1,,,,,,,,
,,,,,,,,,,,,,FF,,,,,,,,0.6455,,,,,,,,,,,,,,,,,,,,,,5eebcc4620cb9a33cd0df72d,61036e083870dce2f2b6664d,2021-07-30_04h12.37.379,Simcolourproject_2stim_asymm_v5,2020.2.10,Win32,60,61025ae37ef11b136ea224fe,,,,,,,,,3811,-37,105,1,0,0,response7disk,,0,-17,-5,1,0,0,rectangle,-17,-5,1,0,0,-17,-5,1,0,0,0,12,12,38,1,,,,,,,,
,,,,,,,,,,,,,FF,,,,,,,,1.3668,,,,,,,,,,,,,,,,,,,,,,5eebcc4620cb9a33cd0df72d,61036e083870dce2f2b6664d,2021-07-30_04h12.37.379,Simcolourproject_2stim_asymm_v5,2020.2.10,Win32,60,61025ae37ef11b136ea224fe,,,,,,,,,1695,73,-118,1,0,0,response3disk,,4,-2,-11,1,0,0,rectangle,-2,-11,1,0,0,-2,-11,1,0,0,0,13,13,72,1,,,,,,,,
,,,,,,,,,,,,,FF,,,,,,,,1.125,,,,,,,,,,,,,,,,,,,,,,5eebcc4620cb9a33cd0df72d,61036e083870dce2f2b6664d,2021-07-30_04h12.37.379,Simcolourproject_2stim_asymm_v5,2020.2.10,Win32,60,61025ae37ef11b136ea224fe,,,,,,,,,105,-54,-132,1,0,0,response5disk,,3,18,2,1,0,0,rectangle,-100,-67,1,0,0,-7,-13,1,0,0,0,14,14,29,1,,response5disk_3,TRUE,2,0,"[15,279,143,187,127,168,125,240,261,204,275,126,61,130,104,96,47,26,17,317]",1.3267,rectangle
,,,,,,,,,,,,,FF,,,,,,,,1.1945,,,,,,,,,,,,,,,,,,,,,,5eebcc4620cb9a33cd0df72d,61036e083870dce2f2b6664d,2021-07-30_04h12.37.379,Simcolourproject_2stim_asymm_v5,2020.2.10,Win32,60,61025ae37ef11b136ea224fe,,,,,,,,,1202,109,-62,1,0,0,response3disk,,5,21,-2,1,0,0,rectangle,21,-2,1,0,0,21,-2,1,0,0,0,15,15,99,1,,,,,,,,
,,,,,,,,,,,,,FF,,,,,,,,0.8338,,,,,,,,,,,,,,,,,,,,,,5eebcc4620cb9a33cd0df72d,61036e083870dce2f2b6664d,2021-07-30_04h12.37.379,Simcolourproject_2stim_asymm_v5,2020.2.10,Win32,60,61025ae37ef11b136ea224fe,,,,,,,,,3277,-114,-62,1,0,0,response5disk,,2,-35,4,1,0,0,rectangle,81,-54,1,0,0,39,-1,1,0,0,0,16,16,77,1,,response3disk_3,TRUE,5,6,"[15,279,143,187,127,168,125,240,261,204,275,126,61,130,104,96,47,26,17,317]",0.8965,rectangle
,,,,,,,,,,,,,FF,,,,,,,,1.0902,,,,,,,,,,,,,,,,,,,,,,5eebcc4620cb9a33cd0df72d,61036e083870dce2f2b6664d,2021-07-30_04h12.37.379,Simcolourproject_2stim_asymm_v5,2020.2.10,Win32,60,61025ae37ef11b136ea224fe,,,,,,,,,641,-68,85,1,0,0,response7disk,,0,-22,5,1,0,0,rectangle,-22,5,1,0,0,-22,5,1,0,0,0,17,17,17,1,,,,,,,,
,,,,,,,,,,,,,FF,,,,,,,,0.9727,,,,,,,,,,,,,,,,,,,,,,5eebcc4620cb9a33cd0df72d,61036e083870dce2f2b6664d,2021-07-30_04h12.37.379,Simcolourproject_2stim_asymm_v5,2020.2.10,Win32,60,61025ae37ef11b136ea224fe,,,,,,,,,999,-109,-63,1,0,0,response5disk,,2,30,-16,1,0,0,rectangle,30,-16,1,0,0,30,-16,1,0,0,0,18,18,143,1,,,,,,,,
,,,,,,,,,,,,,FF,,,,,,,,1.2228,,,,,,,,,,,,,,,,,,,,,,5eebcc4620cb9a33cd0df72d,61036e083870dce2f2b6664d,2021-07-30_04h12.37.379,Simcolourproject_2stim_asymm_v5,2020.2.10,Win32,60,61025ae37ef11b136ea224fe,,,,,,,,,1591,67,-108,1,0,0,response3disk,,4,42,-18,1,0,0,rectangle,42,-18,1,0,0,42,-18,1,0,0,0,19,19,119,1,,,,,,,,
,,,,,,,,,,,,,FF,,,,,,,,1.6251,,,,,,,,,,,,,,,,,,,,,,5eebcc4620cb9a33cd0df72d,61036e083870dce2f2b6664d,2021-07-30_04h12.37.379,Simcolourproject_2stim_asymm_v5,2020.2.10,Win32,60,61025ae37ef11b136ea224fe,,,,,,,,,4283,72,-95,1,0,0,response3disk,,4,21,-11,1,0,0,rectangle,21,-11,1,0,0,21,-11,1,0,0,0,20,20,107,1,,,,,,,,
,,,,,,,,,,,,,FF,,,,,,,,0.8611,,,,,,,,,,,,,,,,,,,,,,5eebcc4620cb9a33cd0df72d,61036e083870dce2f2b6664d,2021-07-30_04h12.37.379,Simcolourproject_2stim_asymm_v5,2020.2.10,Win32,60,61025ae37ef11b136ea224fe,,,,,,,,,828,75,-116,1,0,0,response3disk,,4,40,2,1,0,0,rectangle,40,2,1,0,0,40,2,1,0,0,0,21,21,146,1,,,,,,,,
,,,,,,,,,,,,,FF,,,,,,,,1.0621,,,,,,,,,,,,,,,,,,,,,,5eebcc4620cb9a33cd0df72d,61036e083870dce2f2b6664d,2021-07-30_04h12.37.379,Simcolourproject_2stim_asymm_v5,2020.2.10,Win32,60,61025ae37ef11b136ea224fe,,,,,,,,,151,-83,-81,1,0,0,response5disk,,2,-7,14,1,0,0,rectangle,-7,14,1,0,0,-7,14,1,0,0,0,22,22,120,1,,,,,,,,
,,,,,,,,,,,,,FF,,,,,,,,0.3962,,,,,,,,,,,,,,,,,,,,,,5eebcc4620cb9a33cd0df72d,61036e083870dce2f2b6664d,2021-07-30_04h12.37.379,Simcolourproject_2stim_asymm_v5,2020.2.10,Win32,60,61025ae37ef11b136ea224fe,,,,,,,,,4040,-35,-88,1,0,0,response5disk,,3,11,7,1,0,0,rectangle,11,7,1,0,0,11,7,1,0,0,0,23,23,58,1,,,,,,,,
,,,,,,,,,,,,,FF,,,,,,,,1.0764,,,,,,,,,,,,,,,,,,,,,,5eebcc4620cb9a33cd0df72d,61036e083870dce2f2b6664d,2021-07-30_04h12.37.379,Simcolourproject_2stim_asymm_v5,2020.2.10,Win32,60,61025ae37ef11b136ea224fe,,,,,,,,,2923,61,-50,1,0,0,response3disk,,5,34,8,1,0,0,rectangle,34,8,1,0,0,34,8,1,0,0,0,24,24,50,1,,,,,,,,
,,,,,,,,,,,,,FF,,,,,,,,0.2914,,,,,,,,,,,,,,,,,,,,,,5eebcc4620cb9a33cd0df72d,61036e083870dce2f2b6664d,2021-07-30_04h12.37.379,Simcolourproject_2stim_asymm_v5,2020.2.10,Win32,60,61025ae37ef11b136ea224fe,,,,,,,,,204,118,-104,1,0,0,response3disk,,5,13,14,1,0,0,rectangle,51,-81,1,0,0,6,6,1,0,0,0,25,25,55,1,,response3disk_3,TRUE,4,5,"[15,279,143,187,127,168,125,240,261,204,275,126,61,130,104,96,47,26,17,317]",1.1871,rectangle
,,,,,,,,,,,,,FF,,,,,,,,2.3404,,,,,,,,,,,,,,,,,,,,,,5eebcc4620cb9a33cd0df72d,61036e083870dce2f2b6664d,2021-07-30_04h12.37.379,Simcolourproject_2stim_asymm_v5,2020.2.10,Win32,60,61025ae37ef11b136ea224fe,,,,,,,,,870,84,44,1,0,0,response1disk,,6,-13,-7,1,0,0,rectangle,-13,-7,1,0,0,-13,-7,1,0,0,0,26,26,18,1,,,,,,,,
,,,,,,,,,,,,,FF,,,,,,,,1.1113,,,,,,,,,,,,,,,,,,,,,,5eebcc4620cb9a33cd0df72d,61036e083870dce2f2b6664d,2021-07-30_04h12.37.379,Simcolourproject_2stim_asymm_v5,2020.2.10,Win32,60,61025ae37ef11b136ea224fe,,,,,,,,,2552,102,-29,1,0,0,response3disk,,5,-6,11,1,0,0,rectangle,-6,11,1,0,0,-6,11,1,0,0,0,27,27,83,1,,,,,,,,
,,,,,,,,,,,,,FF,,,,,,,,1.0348,,,,,,,,,,,,,,,,,,,,,,5eebcc4620cb9a33cd0df72d,61036e083870dce2f2b6664d,2021-07-30_04h12.37.379,Simcolourproject_2stim_asymm_v5,2020.2.10,Win32,60,61025ae37ef11b136ea224fe,,,,,,,,,559,134,-54,1,0,0,response3disk,,5,-5,-6,1,0,0,rectangle,-5,-6,1,0,0,-5,-6,1,0,0,0,28,28,28,1,,,,,,,,
,,,,,,,,,,,,,FF,,,,,,,,0.6805,,,,,,,,,,,,,,,,,,,,,,5eebcc4620cb9a33cd0df72d,61036e083870dce2f2b6664d,2021-07-30_04h12.37.379,Simcolourproject_2stim_asymm_v5,2020.2.10,Win32,60,61025ae37ef11b136ea224fe,,,,,,,,,2567,99,30,1,0,0,response1disk,,6,26,7,1,0,0,rectangle,26,7,1,0,0,26,7,1,0,0,0,29,29,125,1,,,,,,,,
,,,,,,,,,,,,,FF,,,,,,,,0.8052,,,,,,,,,,,,,,,,,,,,,,5eebcc4620cb9a33cd0df72d,61036e083870dce2f2b6664d,2021-07-30_04h12.37.379,Simcolourproject_2stim_asymm_v5,2020.2.10,Win32,60,61025ae37ef11b136ea224fe,,,,,,,,,3104,92,38,1,0,0,response1disk,,6,23,-9,1,0,0,rectangle,23,-9,1,0,0,23,-9,1,0,0,0,30,30,74,1,,,,,,,,
,,,,,,,,,,,,,FF,,,,,,,,1.2222,,,,,,,,,,,,,,,,,,,,,,5eebcc4620cb9a33cd0df72d,61036e083870dce2f2b6664d,2021-07-30_04h12.37.379,Simcolourproject_2stim_asymm_v5,2020.2.10,Win32,60,61025ae37ef11b136ea224fe,,,,,,,,,3424,36,60,1,0,0,response1disk,,7,43,-4,1,0,0,rectangle,43,-4,1,0,0,43,-4,1,0,0,0,31,31,65,1,,,,,,,,
,,,,,,,,,,,,,FF,,,,,,,,0.8543,,,,,,,,,,,,,,,,,,,,,,5eebcc4620cb9a33cd0df72d,61036e083870dce2f2b6664d,2021-07-30_04h12.37.379,Simcolourproject_2stim_asymm_v5,2020.2.10,Win32,60,61025ae37ef11b136ea224fe,,,,,,,,,1727,40,-107,1,0,0,response3disk,,4,15,4,1,0,0,rectangle,15,4,1,0,0,15,4,1,0,0,0,32,32,106,1,,,,,,,,
,,,,,,,,,,,,,FF,,,,,,,,1.4236,,,,,,,,,,,,,,,,,,,,,,5eebcc4620cb9a33cd0df72d,61036e083870dce2f2b6664d,2021-07-30_04h12.37.379,Simcolourproject_2stim_asymm_v5,2020.2.10,Win32,60,61025ae37ef11b136ea224fe,,,,,,,,,1040,115,-69,1,0,0,response3disk,,5,1,3,1,0,0,rectangle,1,3,1,0,0,1,3,1,0,0,0,33,33,155,1,,,,,,,,
,,,,,,,,,,,,,FF,,,,,,,,0.9586,,,,,,,,,,,,,,,,,,,,,,5eebcc4620cb9a33cd0df72d,61036e083870dce2f2b6664d,2021-07-30_04h12.37.379,Simcolourproject_2stim_asymm_v5,2020.2.10,Win32,60,61025ae37ef11b136ea224fe,,,,,,,,,3973,-21,-96,1,0,0,response5disk,,3,11,6,1,0,0,rectangle,11,6,1,0,0,11,6,1,0,0,0,34,34,27,1,,,,,,,,
,,,,,,,,,,,,,FF,,,,,,,,0.5695,,,,,,,,,,,,,,,,,,,,,,5eebcc4620cb9a33cd0df72d,61036e083870dce2f2b6664d,2021-07-30_04h12.37.379,Simcolourproject_2stim_asymm_v5,2020.2.10,Win32,60,61025ae37ef11b136ea224fe,,,,,,,,,3751,-38,-100,1,0,0,response5disk,,3,-6,1,1,0,0,rectangle,-6,1,1,0,0,-6,1,1,0,0,0,35,35,70,1,,,,,,,,
,,,,,,,,,,,,,FF,,,,,,,,1.292,,,,,,,,,,,,,,,,,,,,,,5eebcc4620cb9a33cd0df72d,61036e083870dce2f2b6664d,2021-07-30_04h12.37.379,Simcolourproject_2stim_asymm_v5,2020.2.10,Win32,60,61025ae37ef11b136ea224fe,,,,,,,,,1693,53,-102,1,0,0,response3disk,,4,12,-5,1,0,0,rectangle,12,-5,1,0,0,12,-5,1,0,0,0,36,36,124,1,,,,,,,,
,,,,,,,,,,,,,FF,,,,,,,,2.0074,,,,,,,,,,,,,,,,,,,,,,5eebcc4620cb9a33cd0df72d,61036e083870dce2f2b6664d,2021-07-30_04h12.37.379,Simcolourproject_2stim_asymm_v5,2020.2.10,Win32,60,61025ae37ef11b136ea224fe,,,,,,,,,2062,113,-40,1,0,0,response3disk,,5,40,16,1,0,0,rectangle,40,16,1,0,0,40,16,1,0,0,0,37,37,32,1,,,,,,,,
,,,,,,,,,,,,,FF,,,,,,,,0.653,,,,,,,,,,,,,,,,,,,,,,5eebcc4620cb9a33cd0df72d,61036e083870dce2f2b6664d,2021-07-30_04h12.37.379,Simcolourproject_2stim_asymm_v5,2020.2.10,Win32,60,61025ae37ef11b136ea224fe,,,,,,,,,3516,-89,-51,1,0,0,response5disk,,2,8,7,1,0,0,rectangle,8,7,1,0,0,8,7,1,0,0,0,38,38,8,1,,,,,,,,
,,,,,,,,,,,,,FF,,,,,,,,3.5767,,,,,,,,,,,,,,,,,,,,,,5eebcc4620cb9a33cd0df72d,61036e083870dce2f2b6664d,2021-07-30_04h12.37.379,Simcolourproject_2stim_asymm_v5,2020.2.10,Win32,60,61025ae37ef11b136ea224fe,,,,,,,,,3364,89,-48,1,0,0,response3disk,,5,15,-3,1,0,0,rectangle,15,-3,1,0,0,15,-3,1,0,0,0,39,39,97,1,,,,,,,,
,,,,,,,,,,,,,FF,,,,,,,,1.0006,,,,,,,,,,,,,,,,,,,,,,5eebcc4620cb9a33cd0df72d,61036e083870dce2f2b6664d,2021-07-30_04h12.37.379,Simcolourproject_2stim_asymm_v5,2020.2.10,Win32,60,61025ae37ef11b136ea224fe,,,,,,,,,2690,35,-106,1,0,0,response3disk,,4,-19,3,1,0,0,rectangle,-19,3,1,0,0,-19,3,1,0,0,0,40,40,91,1,,,,,,,,
,,,,,,,,,,,,,FF,,,,,,,,2.3544,,,,,,,,,,,,,,,,,,,,,,5eebcc4620cb9a33cd0df72d,61036e083870dce2f2b6664d,2021-07-30_04h12.37.379,Simcolourproject_2stim_asymm_v5,2020.2.10,Win32,60,61025ae37ef11b136ea224fe,,,,,,,,,2347,115,25,1,0,0,response1disk,,6,18,-15,1,0,0,rectangle,18,-15,1,0,0,18,-15,1,0,0,0,41,41,116,1,,,,,,,,
,,,,,,,,,,,,,FF,,,,,,,,0.9443,,,,,,,,,,,,,,,,,,,,,,5eebcc4620cb9a33cd0df72d,61036e083870dce2f2b6664d,2021-07-30_04h12.37.379,Simcolourproject_2stim_asymm_v5,2020.2.10,Win32,60,61025ae37ef11b136ea224fe,,,,,,,,,2585,88,-51,1,0,0,response3disk,,5,39,-12,1,0,0,rectangle,39,-12,1,0,0,39,-12,1,0,0,0,42,42,4,1,,,,,,,,
,,,,,,,,,,,,,FF,,,,,,,,2.6877,,,,,,,,,,,,,,,,,,,,,,5eebcc4620cb9a33cd0df72d,61036e083870dce2f2b6664d,2021-07-30_04h12.37.379,Simcolourproject_2stim_asymm_v5,2020.2.10,Win32,60,61025ae37ef11b136ea224fe,,,,,,,,,1562,92,49,1,0,0,response1disk,,6,3,16,1,0,0,rectangle,3,16,1,0,0,3,16,1,0,0,0,43,43,46,1,,,,,,,,
,,,,,,,,,,,,,FF,,,,,,,,0.9445,,,,,,,,,,,,,,,,,,,,,,5eebcc4620cb9a33cd0df72d,61036e083870dce2f2b6664d,2021-07-30_04h12.37.379,Simcolourproject_2stim_asymm_v5,2020.2.10,Win32,60,61025ae37ef11b136ea224fe,,,,,,,,,1824,-92,52,1,0,0,response7disk,,1,19,-10,1,0,0,rectangle,19,-10,1,0,0,19,-10,1,0,0,0,44,44,131,1,,,,,,,,
,,,,,,,,,,,,,FF,,,,,,,,0.7849,,,,,,,,,,,,,,,,,,,,,,5eebcc4620cb9a33cd0df72d,61036e083870dce2f2b6664d,2021-07-30_04h12.37.379,Simcolourproject_2stim_asymm_v5,2020.2.10,Win32,60,61025ae37ef11b136ea224fe,,,,,,,,,2909,122,30,1,0,0,response1disk,,6,-3,-11,1,0,0,rectangle,-3,-11,1,0,0,-3,-11,1,0,0,0,45,45,109,1,,,,,,,,
,,,,,,,,,,,,,FF,,,,,,,,1.7571,,,,,,,,,,,,,,,,,,,,,,5eebcc4620cb9a33cd0df72d,61036e083870dce2f2b6664d,2021-07-30_04h12.37.379,Simcolourproject_2stim_asymm_v5,2020.2.10,Win32,60,61025ae37ef11b136ea224fe,,,,,,,,,1794,123,-74,1,0,0,response3disk,,5,42,-10,1,0,0,rectangle,-87,-50,1,0,0,-19,-18,1,0,0,0,46,46,37,1,,response5disk_3,TRUE,2,2,"[15,279,143,187,127,168,125,240,261,204,275,126,61,130,104,96,47,26,17,317]",4.3612,rectangle
,,,,,,,,,,,,,FF,,,,,,,,2.688,,,,,,,,,,,,,,,,,,,,,,5eebcc4620cb9a33cd0df72d,61036e083870dce2f2b6664d,2021-07-30_04h12.37.379,Simcolourproject_2stim_asymm_v5,2020.2.10,Win32,60,61025ae37ef11b136ea224fe,,,,,,,,,1439,-54,-108,1,0,0,response5disk,,3,15,1,1,0,0,rectangle,15,1,1,0,0,15,1,1,0,0,0,47,47,35,1,,,,,,,,
,,,,,,,,,,,,,FF,,,,,,,,1.7641,,,,,,,,,,,,,,,,,,,,,,5eebcc4620cb9a33cd0df72d,61036e083870dce2f2b6664d,2021-07-30_04h12.37.379,Simcolourproject_2stim_asymm_v5,2020.2.10,Win32,60,61025ae37ef11b136ea224fe,,,,,,,,,3978,142,23,1,0,0,response1disk,,6,30,1,1,0,0,rectangle,30,1,1,0,0,30,1,1,0,0,0,48,48,134,1,,,,,,,,
,,,,,,,,,,,,,FF,,,,,,,,2.3338,,,,,,,,,,,,,,,,,,,,,,5eebcc4620cb9a33cd0df72d,61036e083870dce2f2b6664d,2021-07-30_04h12.37.379,Simcolourproject_2stim_asymm_v5,2020.2.10,Win32,60,61025ae37ef11b136ea224fe,,,,,,,,,3082,68,-67,1,0,0,response3disk,,5,-31,-18,1,0,0,rectangle,-31,-18,1,0,0,-31,-18,1,0,0,0,49,49,136,1,,,,,,,,
,,,,,,,,,,,,,FF,,,,,,,,1.257,,,,,,,,,,,,,,,,,,,,,,5eebcc4620cb9a33cd0df72d,61036e083870dce2f2b6664d,2021-07-30_04h12.37.379,Simcolourproject_2stim_asymm_v5,2020.2.10,Win32,60,61025ae37ef11b136ea224fe,,,,,,,,,3393,-90,-43,1,0,0,response5disk,,2,1,-16,1,0,0,rectangle,1,-16,1,0,0,1,-16,1,0,0,0,50,50,44,1,,,,,,,,
,,,,,,,,,,,,,FF,,,,,,,,0.7778,,,,,,,,,,,,,,,,,,,,,,5eebcc4620cb9a33cd0df72d,61036e083870dce2f2b6664d,2021-07-30_04h12.37.379,Simcolourproject_2stim_asymm_v5,2020.2.10,Win32,60,61025ae37ef11b136ea224fe,,,,,,,,,1168,95,-73,1,0,0,response3disk,,5,13,-16,1,0,0,rectangle,13,-16,1,0,0,13,-16,1,0,0,0,51,51,123,1,,,,,,,,
,,,,,,,,,,,,,FF,,,,,,,,1.2916,,,,,,,,,,,,,,,,,,,,,,5eebcc4620cb9a33cd0df72d,61036e083870dce2f2b6664d,2021-07-30_04h12.37.379,Simcolourproject_2stim_asymm_v5,2020.2.10,Win32,60,61025ae37ef11b136ea224fe,,,,,,,,,376,116,23,1,0,0,response1disk,,6,39,1,1,0,0,rectangle,39,1,1,0,0,39,1,1,0,0,0,52,52,117,1,,,,,,,,
,,,,,,,,,,,,,FF,,,,,,,,1.5209,,,,,,,,,,,,,,,,,,,,,,5eebcc4620cb9a33cd0df72d,61036e083870dce2f2b6664d,2021-07-30_04h12.37.379,Simcolourproject_2stim_asymm_v5,2020.2.10,Win32,60,61025ae37ef11b136ea224fe,,,,,,,,,3681,-80,-54,1,0,0,response5disk,,2,-37,5,1,0,0,rectangle,-37,5,1,0,0,-37,5,1,0,0,0,53,53,86,1,,,,,,,,
,,,,,,,,,,,,,FF,,,,,,,,2.4652,,,,,,,,,,,,,,,,,,,,,,5eebcc4620cb9a33cd0df72d,61036e083870dce2f2b6664d,2021-07-30_04h12.37.379,Simcolourproject_2stim_asymm_v5,2020.2.10,Win32,60,61025ae37ef11b136ea224fe,,,,,,,,,2422,-46,-133,1,0,0,response5disk,,3,35,-8,1,0,0,rectangle,35,-8,1,0,0,35,-8,1,0,0,0,54,54,104,1,,,,,,,,
,,,,,,,,,,,,,FF,,,,,,,,0.7917,,,,,,,,,,,,,,,,,,,,,,5eebcc4620cb9a33cd0df72d,61036e083870dce2f2b6664d,2021-07-30_04h12.37.379,Simcolourproject_2stim_asymm_v5,2020.2.10,Win32,60,61025ae37ef11b136ea224fe,,,,,,,,,2506,108,-63,1,0,0,response3disk,,5,21,-13,1,0,0,rectangle,21,-13,1,0,0,21,-13,1,0,0,0,55,55,93,1,,,,,,,,
,,,,,,,,,,,,,FF,,,,,,,,0.4513,,,,,,,,,,,,,,,,,,,,,,5eebcc4620cb9a33cd0df72d,61036e083870dce2f2b6664d,2021-07-30_04h12.37.379,Simcolourproject_2stim_asymm_v5,2020.2.10,Win32,60,61025ae37ef11b136ea224fe,,,,,,,,,218,-21,-99,1,0,0,response5disk,,3,7,8,1,0,0,rectangle,7,8,1,0,0,7,8,1,0,0,0,56,56,111,1,,,,,,,,
,,,,,,,,,,,,,FF,,,,,,,,0.9235,,,,,,,,,,,,,,,,,,,,,,5eebcc4620cb9a33cd0df72d,61036e083870dce2f2b6664d,2021-07-30_04h12.37.379,Simcolourproject_2stim_asymm_v5,2020.2.10,Win32,60,61025ae37ef11b136ea224fe,,,,,,,,,458,-104,-33,1,0,0,response5disk,,2,-40,11,1,0,0,rectangle,-40,11,1,0,0,-40,11,1,0,0,0,57,57,89,1,,,,,,,,
,,,,,,,,,,,,,FF,,,,,,,,1.6042,,,,,,,,,,,,,,,,,,,,,,5eebcc4620cb9a33cd0df72d,61036e083870dce2f2b6664d,2021-07-30_04h12.37.379,Simcolourproject_2stim_asymm_v5,2020.2.10,Win32,60,61025ae37ef11b136ea224fe,,,,,,,,,773,72,-103,1,0,0,response3disk,,4,19,-4,1,0,0,rectangle,19,-4,1,0,0,19,-4,1,0,0,0,58,58,76,1,,,,,,,,
,,,,,,,,,,,,,FF,,,,,,,,0.5975,,,,,,,,,,,,,,,,,,,,,,5eebcc4620cb9a33cd0df72d,61036e083870dce2f2b6664d,2021-07-30_04h12.37.379,Simcolourproject_2stim_asymm_v5,2020.2.10,Win32,60,61025ae37ef11b136ea224fe,,,,,,,,,1012,-81,-44,1,0,0,response5disk,,2,-1,7,1,0,0,rectangle,-1,7,1,0,0,-1,7,1,0,0,0,59,59,41,1,,,,,,,,
,,,,,,,,,,,,,FF,,,,,,,,0.951,,,,,,,,,,,,,,,,,,,,,,5eebcc4620cb9a33cd0df72d,61036e083870dce2f2b6664d,2021-07-30_04h12.37.379,Simcolourproject_2stim_asymm_v5,2020.2.10,Win32,60,61025ae37ef11b136ea224fe,,,,,,,,,2757,110,42,1,0,0,response1disk,,6,21,3,1,0,0,rectangle,-123,-72,1,0,0,-3,-12,1,0,0,0,60,60,57,1,,response5disk_3,TRUE,2,2,"[15,279,143,187,127,168,125,240,261,204,275,126,61,130,104,96,47,26,17,317]",2.1118,rectangle
,,,,,,,,,,,,,FF,,,,,,,,3.7989,,,,,,,,,,,,,,,,,,,,,,5eebcc4620cb9a33cd0df72d,61036e083870dce2f2b6664d,2021-07-30_04h12.37.379,Simcolourproject_2stim_asymm_v5,2020.2.10,Win32,60,61025ae37ef11b136ea224fe,,,,,,,,,854,-80,-39,1,0,0,response5disk,,2,22,1,1,0,0,rectangle,22,1,1,0,0,22,1,1,0,0,0,61,61,30,1,,,,,,,,
,,,,,,,,,,,,,FF,,,,,,,,0.764,,,,,,,,,,,,,,,,,,,,,,5eebcc4620cb9a33cd0df72d,61036e083870dce2f2b6664d,2021-07-30_04h12.37.379,Simcolourproject_2stim_asymm_v5,2020.2.10,Win32,60,61025ae37ef11b136ea224fe,,,,,,,,,4322,97,47,1,0,0,response1disk,,6,-16,6,1,0,0,rectangle,-16,6,1,0,0,-16,6,1,0,0,0,62,62,133,1,,,,,,,,
,,,,,,,,,,,,,FF,,,,,,,,0.6668,,,,,,,,,,,,,,,,,,,,,,5eebcc4620cb9a33cd0df72d,61036e083870dce2f2b6664d,2021-07-30_04h12.37.379,Simcolourproject_2stim_asymm_v5,2020.2.10,Win32,60,61025ae37ef11b136ea224fe,,,,,,,,,1165,96,-67,1,0,0,response3disk,,5,12,-1,1,0,0,rectangle,12,-1,1,0,0,12,-1,1,0,0,0,63,63,39,1,,,,,,,,
,,,,,,,,,,,,,FF,,,,,,,,0.4236,,,,,,,,,,,,,,,,,,,,,,5eebcc4620cb9a33cd0df72d,61036e083870dce2f2b6664d,2021-07-30_04h12.37.379,Simcolourproject_2stim_asymm_v5,2020.2.10,Win32,60,61025ae37ef11b136ea224fe,,,,,,,,,4,-42,-132,1,0,0,response5disk,,3,2,-15,1,0,0,rectangle,2,-15,1,0,0,2,-15,1,0,0,0,64,64,87,1,,,,,,,,
,,,,,,,,,,,,,FF,,,,,,,,1.2566,,,,,,,,,,,,,,,,,,,,,,5eebcc4620cb9a33cd0df72d,61036e083870dce2f2b6664d,2021-07-30_04h12.37.379,Simcolourproject_2stim_asymm_v5,2020.2.10,Win32,60,61025ae37ef11b136ea224fe,,,,,,,,,3826,105,-48,1,0,0,response3disk,,5,35,-8,1,0,0,rectangle,35,-8,1,0,0,35,-8,1,0,0,0,65,65,84,1,,,,,,,,
,,,,,,,,,,,,,FF,,,,,,,,0.618,,,,,,,,,,,,,,,,,,,,,,5eebcc4620cb9a33cd0df72d,61036e083870dce2f2b6664d,2021-07-30_04h12.37.379,Simcolourproject_2stim_asymm_v5,2020.2.10,Win32,60,61025ae37ef11b136ea224fe,,,,,,,,,1474,93,-54,1,0,0,response3disk,,5,-17,2,1,0,0,rectangle,-17,2,1,0,0,-17,2,1,0,0,0,66,66,51,1,,,,,,,,
,,,,,,,,,,,,,FF,,,,,,,,0.8612,,,,,,,,,,,,,,,,,,,,,,5eebcc4620cb9a33cd0df72d,61036e083870dce2f2b6664d,2021-07-30_04h12.37.379,Simcolourproject_2stim_asymm_v5,2020.2.10,Win32,60,61025ae37ef11b136ea224fe,,,,,,,,,2482,-93,-50,1,0,0,response5disk,,2,-4,-2,1,0,0,rectangle,-4,-2,1,0,0,-4,-2,1,0,0,0,67,67,101,1,,,,,,,,
,,,,,,,,,,,,,FF,,,,,,,,0.7218,,,,,,,,,,,,,,,,,,,,,,5eebcc4620cb9a33cd0df72d,61036e083870dce2f2b6664d,2021-07-30_04h12.37.379,Simcolourproject_2stim_asymm_v5,2020.2.10,Win32,60,61025ae37ef11b136ea224fe,,,,,,,,,2313,-40,-115,1,0,0,response5disk,,3,21,-19,1,0,0,rectangle,21,-19,1,0,0,21,-19,1,0,0,0,68,68,145,1,,,,,,,,
,,,,,,,,,,,,,FF,,,,,,,,0.7224,,,,,,,,,,,,,,,,,,,,,,5eebcc4620cb9a33cd0df72d,61036e083870dce2f2b6664d,2021-07-30_04h12.37.379,Simcolourproject_2stim_asymm_v5,2020.2.10,Win32,60,61025ae37ef11b136ea224fe,,,,,,,,,1031,96,53,1,0,0,response1disk,,6,6,-10,1,0,0,rectangle,6,-10,1,0,0,6,-10,1,0,0,0,69,69,48,1,,,,,,,,
,,,,,,,,,,,,,FF,,,,,,,,0.8328,,,,,,,,,,,,,,,,,,,,,,5eebcc4620cb9a33cd0df72d,61036e083870dce2f2b6664d,2021-07-30_04h12.37.379,Simcolourproject_2stim_asymm_v5,2020.2.10,Win32,60,61025ae37ef11b136ea224fe,,,,,,,,,4082,-117,-81,1,0,0,response5disk,,2,-27,-3,1,0,0,rectangle,-27,-3,1,0,0,-27,-3,1,0,0,0,70,70,12,1,,,,,,,,
,,,,,,,,,,,,,FF,,,,,,,,0.7431,,,,,,,,,,,,,,,,,,,,,,5eebcc4620cb9a33cd0df72d,61036e083870dce2f2b6664d,2021-07-30_04h12.37.379,Simcolourproject_2stim_asymm_v5,2020.2.10,Win32,60,61025ae37ef11b136ea224fe,,,,,,,,,4219,-95,-37,1,0,0,response5disk,,2,-10,8,1,0,0,rectangle,-10,8,1,0,0,-10,8,1,0,0,0,71,71,75,1,,,,,,,,
,,,,,,,,,,,,,FF,,,,,,,,0.6249,,,,,,,,,,,,,,,,,,,,,,5eebcc4620cb9a33cd0df72d,61036e083870dce2f2b6664d,2021-07-30_04h12.37.379,Simcolourproject_2stim_asymm_v5,2020.2.10,Win32,60,61025ae37ef11b136ea224fe,,,,,,,,,2872,97,-59,1,0,0,response3disk,,5,3,-9,1,0,0,rectangle,3,-9,1,0,0,3,-9,1,0,0,0,72,72,147,1,,,,,,,,
,,,,,,,,,,,,,FF,,,,,,,,0.9516,,,,,,,,,,,,,,,,,,,,,,5eebcc4620cb9a33cd0df72d,61036e083870dce2f2b6664d,2021-07-30_04h12.37.379,Simcolourproject_2stim_asymm_v5,2020.2.10,Win32,60,61025ae37ef11b136ea224fe,,,,,,,,,860,117,-62,1,0,0,response3disk,,5,43,5,1,0,0,rectangle,43,5,1,0,0,43,5,1,0,0,0,73,73,69,1,,,,,,,,
,,,,,,,,,,,,,FF,,,,,,,,1.3509,,,,,,,,,,,,,,,,,,,,,,5eebcc4620cb9a33cd0df72d,61036e083870dce2f2b6664d,2021-07-30_04h12.37.379,Simcolourproject_2stim_asymm_v5,2020.2.10,Win32,60,61025ae37ef11b136ea224fe,,,,,,,,,181,125,45,1,0,0,response1disk,,6,-25,-17,1,0,0,rectangle,-25,-17,1,0,0,-25,-17,1,0,0,0,74,74,31,1,,,,,,,,
,,,,,,,,,,,,,FF,,,,,,,,0.9724,,,,,,,,,,,,,,,,,,,,,,5eebcc4620cb9a33cd0df72d,61036e083870dce2f2b6664d,2021-07-30_04h12.37.379,Simcolourproject_2stim_asymm_v5,2020.2.10,Win32,60,61025ae37ef11b136ea224fe,,,,,,,,,3441,-103,-62,1,0,0,response5disk,,2,-10,-7,1,0,0,rectangle,-10,-7,1,0,0,-10,-7,1,0,0,0,75,75,138,1,,,,,,,,
,,,,,,,,,,,,,FF,,,,,,,,0.889,,,,,,,,,,,,,,,,,,,,,,5eebcc4620cb9a33cd0df72d,61036e083870dce2f2b6664d,2021-07-30_04h12.37.379,Simcolourproject_2stim_asymm_v5,2020.2.10,Win32,60,61025ae37ef11b136ea224fe,,,,,,,,,2788,84,-135,1,0,0,response3disk,,4,13,-5,1,0,0,rectangle,13,-5,1,0,0,13,-5,1,0,0,0,76,76,112,1,,,,,,,,
,,,,,,,,,,,,,FF,,,,,,,,0.7225,,,,,,,,,,,,,,,,,,,,,,5eebcc4620cb9a33cd0df72d,61036e083870dce2f2b6664d,2021-07-30_04h12.37.379,Simcolourproject_2stim_asymm_v5,2020.2.10,Win32,60,61025ae37ef11b136ea224fe,,,,,,,,,963,-55,-108,1,0,0,response5disk,,3,-8,-9,1,0,0,rectangle,-8,-9,1,0,0,-8,-9,1,0,0,0,77,77,100,1,,,,,,,,
,,,,,,,,,,,,,FF,,,,,,,,1.5436,,,,,,,,,,,,,,,,,,,,,,5eebcc4620cb9a33cd0df72d,61036e083870dce2f2b6664d,2021-07-30_04h12.37.379,Simcolourproject_2stim_asymm_v5,2020.2.10,Win32,60,61025ae37ef11b136ea224fe,,,,,,,,,3762,120,41,1,0,0,response1disk,,6,-25,1,1,0,0,rectangle,-25,1,1,0,0,-25,1,1,0,0,0,78,78,16,1,,,,,,,,
,,,,,,,,,,,,,FF,,,,,,,,1.764,,,,,,,,,,,,,,,,,,,,,,5eebcc4620cb9a33cd0df72d,61036e083870dce2f2b6664d,2021-07-30_04h12.37.379,Simcolourproject_2stim_asymm_v5,2020.2.10,Win32,60,61025ae37ef11b136ea224fe,,,,,,,,,1661,60,-128,1,0,0,response3disk,,4,4,4,1,0,0,rectangle,4,4,1,0,0,4,4,1,0,0,0,79,79,94,1,,,,,,,,
,,,,,,,,,,,,,FF,,,,,,,,0.5141,,,,,,,,,,,,,,,,,,,,,,5eebcc4620cb9a33cd0df72d,61036e083870dce2f2b6664d,2021-07-30_04h12.37.379,Simcolourproject_2stim_asymm_v5,2020.2.10,Win32,60,61025ae37ef11b136ea224fe,,,,,,,,,4258,137,-40,1,0,0,response3disk,,5,40,-14,1,0,0,rectangle,40,-14,1,0,0,40,-14,1,0,0,0,80,80,67,1,,,,,,,,
,,,,,,,,,,,,,FF,,,,,,,,0.5832,,,,,,,,,,,,,,,,,,,,,,5eebcc4620cb9a33cd0df72d,61036e083870dce2f2b6664d,2021-07-30_04h12.37.379,Simcolourproject_2stim_asymm_v5,2020.2.10,Win32,60,61025ae37ef11b136ea224fe,,,,,,,,,1629,122,48,1,0,0,response1disk,,6,-8,-7,1,0,0,rectangle,-8,-7,1,0,0,-8,-7,1,0,0,0,81,81,53,1,,,,,,,,
,,,,,,,,,,,,,FF,,,,,,,,0.4376,,,,,,,,,,,,,,,,,,,,,,5eebcc4620cb9a33cd0df72d,61036e083870dce2f2b6664d,2021-07-30_04h12.37.379,Simcolourproject_2stim_asymm_v5,2020.2.10,Win32,60,61025ae37ef11b136ea224fe,,,,,,,,,2495,104,29,1,0,0,response1disk,,6,-34,-15,1,0,0,rectangle,-34,-15,1,0,0,-34,-15,1,0,0,0,82,82,126,1,,,,,,,,
,,,,,,,,,,,,,FF,,,,,,,,1.6306,,,,,,,,,,,,,,,,,,,,,,5eebcc4620cb9a33cd0df72d,61036e083870dce2f2b6664d,2021-07-30_04h12.37.379,Simcolourproject_2stim_asymm_v5,2020.2.10,Win32,60,61025ae37ef11b136ea224fe,,,,,,,,,511,-32,-134,1,0,0,response5disk,,3,24,1,1,0,0,rectangle,24,1,1,0,0,24,1,1,0,0,0,83,83,42,1,,,,,,,,
,,,,,,,,,,,,,FF,,,,,,,,0.7504,,,,,,,,,,,,,,,,,,,,,,5eebcc4620cb9a33cd0df72d,61036e083870dce2f2b6664d,2021-07-30_04h12.37.379,Simcolourproject_2stim_asymm_v5,2020.2.10,Win32,60,61025ae37ef11b136ea224fe,,,,,,,,,2043,75,-109,1,0,0,response3disk,,4,16,3,1,0,0,rectangle,16,3,1,0,0,16,3,1,0,0,0,84,84,68,1,,,,,,,,
,,,,,,,,,,,,,FF,,,,,,,,0.5213,,,,,,,,,,,,,,,,,,,,,,5eebcc4620cb9a33cd0df72d,61036e083870dce2f2b6664d,2021-07-30_04h12.37.379,Simcolourproject_2stim_asymm_v5,2020.2.10,Win32,60,61025ae37ef11b136ea224fe,,,,,,,,,1994,143,-70,1,0,0,response3disk,,5,36,13,1,0,0,rectangle,36,13,1,0,0,36,13,1,0,0,0,85,85,73,1,,,,,,,,
,,,,,,,,,,,,,FF,,,,,,,,0.6599,,,,,,,,,,,,,,,,,,,,,,5eebcc4620cb9a33cd0df72d,61036e083870dce2f2b6664d,2021-07-30_04h12.37.379,Simcolourproject_2stim_asymm_v5,2020.2.10,Win32,60,61025ae37ef11b136ea224fe,,,,,,,,,3180,106,-40,1,0,0,response3disk,,5,-30,14,1,0,0,rectangle,-30,14,1,0,0,-30,14,1,0,0,0,86,86,142,1,,,,,,,,
,,,,,,,,,,,,,FF,,,,,,,,0.5728,,,,,,,,,,,,,,,,,,,,,,5eebcc4620cb9a33cd0df72d,61036e083870dce2f2b6664d,2021-07-30_04h12.37.379,Simcolourproject_2stim_asymm_v5,2020.2.10,Win32,60,61025ae37ef11b136ea224fe,,,,,,,,,2559,106,33,1,0,0,response1disk,,6,-25,2,1,0,0,rectangle,-25,2,1,0,0,-25,2,1,0,0,0,87,87,132,1,,,,,,,,
,,,,,,,,,,,,,FF,,,,,,,,0.5074,,,,,,,,,,,,,,,,,,,,,,5eebcc4620cb9a33cd0df72d,61036e083870dce2f2b6664d,2021-07-30_04h12.37.379,Simcolourproject_2stim_asymm_v5,2020.2.10,Win32,60,61025ae37ef11b136ea224fe,,,,,,,,,2995,122,-84,1,0,0,response3disk,,5,11,-3,1,0,0,rectangle,11,-3,1,0,0,11,-3,1,0,0,0,88,88,5,1,,,,,,,,
,,,,,,,,,,,,,FF,,,,,,,,1.077,,,,,,,,,,,,,,,,,,,,,,5eebcc4620cb9a33cd0df72d,61036e083870dce2f2b6664d,2021-07-30_04h12.37.379,Simcolourproject_2stim_asymm_v5,2020.2.10,Win32,60,61025ae37ef11b136ea224fe,,,,,,,,,4286,-65,-91,1,0,0,response5disk,,3,-18,-6,1,0,0,rectangle,-18,-6,1,0,0,-18,-6,1,0,0,0,89,89,85,1,,,,,,,,
,,,,,,,,,,,,,FF,,,,,,,,1.0321,,,,,,,,,,,,,,,,,,,,,,5eebcc4620cb9a33cd0df72d,61036e083870dce2f2b6664d,2021-07-30_04h12.37.379,Simcolourproject_2stim_asymm_v5,2020.2.10,Win32,60,61025ae37ef11b136ea224fe,,,,,,,,,1059,126,-59,1,0,0,response3disk,,5,30,-10,1,0,0,rectangle,30,-10,1,0,0,30,-10,1,0,0,0,90,90,156,1,,,,,,,,
,,,,,,,,,,,,,FF,,,,,,,,1.4477,,,,,,,,,,,,,,,,,,,,,,5eebcc4620cb9a33cd0df72d,61036e083870dce2f2b6664d,2021-07-30_04h12.37.379,Simcolourproject_2stim_asymm_v5,2020.2.10,Win32,60,61025ae37ef11b136ea224fe,,,,,,,,,1800,110,41,1,0,0,response1disk,,6,-43,19,1,0,0,rectangle,-43,19,1,0,0,-43,19,1,0,0,0,91,91,3,1,,,,,,,,
,,,,,,,,,,,,,FF,,,,,,,,0.8062,,,,,,,,,,,,,,,,,,,,,,5eebcc4620cb9a33cd0df72d,61036e083870dce2f2b6664d,2021-07-30_04h12.37.379,Simcolourproject_2stim_asymm_v5,2020.2.10,Win32,60,61025ae37ef11b136ea224fe,,,,,,,,,1850,-37,-134,1,0,0,response5disk,,3,8,-9,1,0,0,rectangle,8,-9,1,0,0,8,-9,1,0,0,0,92,92,154,1,,,,,,,,
,,,,,,,,,,,,,FF,,,,,,,,0.945,,,,,,,,,,,,,,,,,,,,,,5eebcc4620cb9a33cd0df72d,61036e083870dce2f2b6664d,2021-07-30_04h12.37.379,Simcolourproject_2stim_asymm_v5,2020.2.10,Win32,60,61025ae37ef11b136ea224fe,,,,,,,,,1746,-90,-29,1,0,0,response5disk,,2,-37,1,1,0,0,rectangle,-37,1,1,0,0,-37,1,1,0,0,0,93,93,13,1,,,,,,,,
,,,,,,,,,,,,,FF,,,,,,,,1.9059,,,,,,,,,,,,,,,,,,,,,,5eebcc4620cb9a33cd0df72d,61036e083870dce2f2b6664d,2021-07-30_04h12.37.379,Simcolourproject_2stim_asymm_v5,2020.2.10,Win32,60,61025ae37ef11b136ea224fe,,,,,,,,,4209,105,27,1,0,0,response1disk,,6,9,-2,1,0,0,rectangle,9,-2,1,0,0,9,-2,1,0,0,0,94,94,129,1,,,,,,,,
,,,,,,,,,,,,,FF,,,,,,,,1.1637,,,,,,,,,,,,,,,,,,,,,,5eebcc4620cb9a33cd0df72d,61036e083870dce2f2b6664d,2021-07-30_04h12.37.379,Simcolourproject_2stim_asymm_v5,2020.2.10,Win32,60,61025ae37ef11b136ea224fe,,,,,,,,,627,121,-58,1,0,0,response3disk,,5,3,-9,1,0,0,rectangle,-48,117,1,0,0,-2,5,1,0,0,0,95,95,1,1,,response7disk_3,TRUE,0,0,"[15,279,143,187,127,168,125,240,261,204,275,126,61,130,104,96,47,26,17,317]",2.1085,rectangle
,,,,,,,,,,,,,FF,,,,,,,,1.0834,,,,,,,,,,,,,,,,,,,,,,5eebcc4620cb9a33cd0df72d,61036e083870dce2f2b6664d,2021-07-30_04h12.37.379,Simcolourproject_2stim_asymm_v5,2020.2.10,Win32,60,61025ae37ef11b136ea224fe,,,,,,,,,392,-94,-60,1,0,0,response5disk,,2,10,-8,1,0,0,rectangle,10,-8,1,0,0,10,-8,1,0,0,0,96,96,105,1,,,,,,,,
,,,,,,,,,,,,,FF,,,,,,,,0.8822,,,,,,,,,,,,,,,,,,,,,,5eebcc4620cb9a33cd0df72d,61036e083870dce2f2b6664d,2021-07-30_04h12.37.379,Simcolourproject_2stim_asymm_v5,2020.2.10,Win32,60,61025ae37ef11b136ea224fe,,,,,,,,,2952,-104,-47,1,0,0,response5disk,,2,-1,18,1,0,0,rectangle,-1,18,1,0,0,-1,18,1,0,0,0,97,97,148,1,,,,,,,,
,,,,,,,,,,,,,FF,,,,,,,,0.4517,,,,,,,,,,,,,,,,,,,,,,5eebcc4620cb9a33cd0df72d,61036e083870dce2f2b6664d,2021-07-30_04h12.37.379,Simcolourproject_2stim_asymm_v5,2020.2.10,Win32,60,61025ae37ef11b136ea224fe,,,,,,,,,1655,146,-66,1,0,0,response3disk,,5,23,-18,1,0,0,rectangle,23,-18,1,0,0,23,-18,1,0,0,0,98,98,7,1,,,,,,,,
,,,,,,,,,,,,,FF,,,,,,,,0.4339,,,,,,,,,,,,,,,,,,,,,,5eebcc4620cb9a33cd0df72d,61036e083870dce2f2b6664d,2021-07-30_04h12.37.379,Simcolourproject_2stim_asymm_v5,2020.2.10,Win32,60,61025ae37ef11b136ea224fe,,,,,,,,,1669,81,35,1,0,0,response1disk,,6,-31,-8,1,0,0,rectangle,-31,-8,1,0,0,-31,-8,1,0,0,0,99,99,159,1,,,,,,,,
,,,,,,,,,,,,,FF,,,,,,,,1.0904,,,,,,,,,,,,,,,,,,,,,,5eebcc4620cb9a33cd0df72d,61036e083870dce2f2b6664d,2021-07-30_04h12.37.379,Simcolourproject_2stim_asymm_v5,2020.2.10,Win32,60,61025ae37ef11b136ea224fe,,,,,,,,,4075,-72,-108,1,0,0,response5disk,,3,2,6,1,0,0,rectangle,2,6,1,0,0,2,6,1,0,0,0,100,100,102,1,,,,,,,,
,,,,,,,,,,,,,FF,,,,,,,,0.4698,,,,,,,,,,,,,,,,,,,,,,5eebcc4620cb9a33cd0df72d,61036e083870dce2f2b6664d,2021-07-30_04h12.37.379,Simcolourproject_2stim_asymm_v5,2020.2.10,Win32,60,61025ae37ef11b136ea224fe,,,,,,,,,408,-94,-67,1,0,0,response5disk,,2,-7,-14,1,0,0,rectangle,-7,-14,1,0,0,-7,-14,1,0,0,0,101,101,40,1,,,,,,,,
,,,,,,,,,,,,,FF,,,,,,,,0.6355,,,,,,,,,,,,,,,,,,,,,,5eebcc4620cb9a33cd0df72d,61036e083870dce2f2b6664d,2021-07-30_04h12.37.379,Simcolourproject_2stim_asymm_v5,2020.2.10,Win32,60,61025ae37ef11b136ea224fe,,,,,,,,,3127,67,-56,1,0,0,response3disk,,5,29,2,1,0,0,rectangle,29,2,1,0,0,29,2,1,0,0,0,102,102,96,1,,,,,,,,
,,,,,,,,,,,,,FF,,,,,,,,0.9475,,,,,,,,,,,,,,,,,,,,,,5eebcc4620cb9a33cd0df72d,61036e083870dce2f2b6664d,2021-07-30_04h12.37.379,Simcolourproject_2stim_asymm_v5,2020.2.10,Win32,60,61025ae37ef11b136ea224fe,,,,,,,,,3979,-114,46,1,0,0,response7disk,,1,-20,-4,1,0,0,rectangle,53,-118,1,0,0,-9,9,1,0,0,0,103,103,82,1,,response3disk_3,TRUE,4,4,"[15,279,143,187,127,168,125,240,261,204,275,126,61,130,104,96,47,26,17,317]",1.9967,rectangle
,,,,,,,,,,,,,FF,,,,,,,,0.8195,,,,,,,,,,,,,,,,,,,,,,5eebcc4620cb9a33cd0df72d,61036e083870dce2f2b6664d,2021-07-30_04h12.37.379,Simcolourproject_2stim_asymm_v5,2020.2.10,Win32,60,61025ae37ef11b136ea224fe,,,,,,,,,4140,-79,147,1,0,0,response7disk,,0,25,5,1,0,0,rectangle,25,5,1,0,0,25,5,1,0,0,0,104,104,6,1,,,,,,,,
,,,,,,,,,,,,,FF,,,,,,,,1.0975,,,,,,,,,,,,,,,,,,,,,,5eebcc4620cb9a33cd0df72d,61036e083870dce2f2b6664d,2021-07-30_04h12.37.379,Simcolourproject_2stim_asymm_v5,2020.2.10,Win32,60,61025ae37ef11b136ea224fe,,,,,,,,,3107,-103,41,1,0,0,response7disk,,1,-36,-2,1,0,0,rectangle,-36,-2,1,0,0,-36,-2,1,0,0,0,105,105,150,1,,,,,,,,
,,,,,,,,,,,,,FF,,,,,,,,1.062,,,,,,,,,,,,,,,,,,,,,,5eebcc4620cb9a33cd0df72d,61036e083870dce2f2b6664d,2021-07-30_04h12.37.379,Simcolourproject_2stim_asymm_v5,2020.2.10,Win32,60,61025ae37ef11b136ea224fe,,,,,,,,,669,-48,-125,1,0,0,response5disk,,3,-5,1,1,0,0,rectangle,-5,1,1,0,0,-5,1,1,0,0,0,106,106,135,1,,,,,,,,
,,,,,,,,,,,,,FF,,,,,,,,0.5212,,,,,,,,,,,,,,,,,,,,,,5eebcc4620cb9a33cd0df72d,61036e083870dce2f2b6664d,2021-07-30_04h12.37.379,Simcolourproject_2stim_asymm_v5,2020.2.10,Win32,60,61025ae37ef11b136ea224fe,,,,,,,,,4154,106,-44,1,0,0,response3disk,,5,-7,11,1,0,0,rectangle,-7,11,1,0,0,-7,11,1,0,0,0,107,107,45,1,,,,,,,,
,,,,,,,,,,,,,FF,,,,,,,,0.9097,,,,,,,,,,,,,,,,,,,,,,5eebcc4620cb9a33cd0df72d,61036e083870dce2f2b6664d,2021-07-30_04h12.37.379,Simcolourproject_2stim_asymm_v5,2020.2.10,Win32,60,61025ae37ef11b136ea224fe,,,,,,,,,993,85,-132,1,0,0,response3disk,,4,7,-11,1,0,0,rectangle,7,-11,1,0,0,7,-11,1,0,0,0,108,108,127,1,,,,,,,,
,,,,,,,,,,,,,FF,,,,,,,,0.7224,,,,,,,,,,,,,,,,,,,,,,5eebcc4620cb9a33cd0df72d,61036e083870dce2f2b6664d,2021-07-30_04h12.37.379,Simcolourproject_2stim_asymm_v5,2020.2.10,Win32,60,61025ae37ef11b136ea224fe,,,,,,,,,3086,139,-81,1,0,0,response3disk,,5,30,1,1,0,0,rectangle,30,1,1,0,0,30,1,1,0,0,0,109,109,130,1,,,,,,,,
,,,,,,,,,,,,,FF,,,,,,,,0.5834,,,,,,,,,,,,,,,,,,,,,,5eebcc4620cb9a33cd0df72d,61036e083870dce2f2b6664d,2021-07-30_04h12.37.379,Simcolourproject_2stim_asymm_v5,2020.2.10,Win32,60,61025ae37ef11b136ea224fe,,,,,,,,,2411,-33,-118,1,0,0,response5disk,,3,-14,9,1,0,0,rectangle,-14,9,1,0,0,-14,9,1,0,0,0,110,110,0,1,,,,,,,,
,,,,,,,,,,,,,FF,,,,,,,,0.6042,,,,,,,,,,,,,,,,,,,,,,5eebcc4620cb9a33cd0df72d,61036e083870dce2f2b6664d,2021-07-30_04h12.37.379,Simcolourproject_2stim_asymm_v5,2020.2.10,Win32,60,61025ae37ef11b136ea224fe,,,,,,,,,1414,107,36,1,0,0,response1disk,,6,17,18,1,0,0,rectangle,17,18,1,0,0,17,18,1,0,0,0,111,111,9,1,,,,,,,,
,,,,,,,,,,,,,FF,,,,,,,,0.3057,,,,,,,,,,,,,,,,,,,,,,5eebcc4620cb9a33cd0df72d,61036e083870dce2f2b6664d,2021-07-30_04h12.37.379,Simcolourproject_2stim_asymm_v5,2020.2.10,Win32,60,61025ae37ef11b136ea224fe,,,,,,,,,729,125,-81,1,0,0,response3disk,,5,-17,6,1,0,0,rectangle,-17,6,1,0,0,-17,6,1,0,0,0,112,112,95,1,,,,,,,,
,,,,,,,,,,,,,FF,,,,,,,,1.2708,,,,,,,,,,,,,,,,,,,,,,5eebcc4620cb9a33cd0df72d,61036e083870dce2f2b6664d,2021-07-30_04h12.37.379,Simcolourproject_2stim_asymm_v5,2020.2.10,Win32,60,61025ae37ef11b136ea224fe,,,,,,,,,3904,39,-98,1,0,0,response3disk,,4,-34,-5,1,0,0,rectangle,-34,-5,1,0,0,-34,-5,1,0,0,0,113,113,158,1,,,,,,,,
,,,,,,,,,,,,,FF,,,,,,,,0.9515,,,,,,,,,,,,,,,,,,,,,,5eebcc4620cb9a33cd0df72d,61036e083870dce2f2b6664d,2021-07-30_04h12.37.379,Simcolourproject_2stim_asymm_v5,2020.2.10,Win32,60,61025ae37ef11b136ea224fe,,,,,,,,,2112,104,45,1,0,0,response1disk,,6,6,4,1,0,0,rectangle,6,4,1,0,0,6,4,1,0,0,0,114,114,110,1,,,,,,,,
,,,,,,,,,,,,,FF,,,,,,,,1.4862,,,,,,,,,,,,,,,,,,,,,,5eebcc4620cb9a33cd0df72d,61036e083870dce2f2b6664d,2021-07-30_04h12.37.379,Simcolourproject_2stim_asymm_v5,2020.2.10,Win32,60,61025ae37ef11b136ea224fe,,,,,,,,,1871,113,37,1,0,0,response1disk,,6,4,17,1,0,0,rectangle,4,17,1,0,0,4,17,1,0,0,0,115,115,113,1,,,,,,,,
,,,,,,,,,,,,,FF,,,,,,,,0.6112,,,,,,,,,,,,,,,,,,,,,,5eebcc4620cb9a33cd0df72d,61036e083870dce2f2b6664d,2021-07-30_04h12.37.379,Simcolourproject_2stim_asymm_v5,2020.2.10,Win32,60,61025ae37ef11b136ea224fe,,,,,,,,,241,51,59,1,0,0,response1disk,,7,19,-6,1,0,0,rectangle,19,-6,1,0,0,19,-6,1,0,0,0,116,116,62,1,,,,,,,,
,,,,,,,,,,,,,FF,,,,,,,,0.6946,,,,,,,,,,,,,,,,,,,,,,5eebcc4620cb9a33cd0df72d,61036e083870dce2f2b6664d,2021-07-30_04h12.37.379,Simcolourproject_2stim_asymm_v5,2020.2.10,Win32,60,61025ae37ef11b136ea224fe,,,,,,,,,1769,63,90,1,0,0,response1disk,,7,5,9,1,0,0,rectangle,5,9,1,0,0,5,9,1,0,0,0,117,117,33,1,,,,,,,,
,,,,,,,,,,,,,FF,,,,,,,,0.5003,,,,,,,,,,,,,,,,,,,,,,5eebcc4620cb9a33cd0df72d,61036e083870dce2f2b6664d,2021-07-30_04h12.37.379,Simcolourproject_2stim_asymm_v5,2020.2.10,Win32,60,61025ae37ef11b136ea224fe,,,,,,,,,228,102,37,1,0,0,response1disk,,6,1,-19,1,0,0,rectangle,1,-19,1,0,0,1,-19,1,0,0,0,118,118,121,1,,,,,,,,
,,,,,,,,,,,,,FF,,,,,,,,0.5761,,,,,,,,,,,,,,,,,,,,,,5eebcc4620cb9a33cd0df72d,61036e083870dce2f2b6664d,2021-07-30_04h12.37.379,Simcolourproject_2stim_asymm_v5,2020.2.10,Win32,60,61025ae37ef11b136ea224fe,,,,,,,,,2019,35,92,1,0,0,response1disk,,7,-17,10,1,0,0,rectangle,-17,10,1,0,0,-17,10,1,0,0,0,119,119,88,1,,,,,,,,
,,,,,,,,,,,,,FF,,,,,,,,1.6248,,,,,,,,,,,,,,,,,,,,,,5eebcc4620cb9a33cd0df72d,61036e083870dce2f2b6664d,2021-07-30_04h12.37.379,Simcolourproject_2stim_asymm_v5,2020.2.10,Win32,60,61025ae37ef11b136ea224fe,,,,,,,,,643,133,37,1,0,0,response1disk,,6,45,-18,1,0,0,rectangle,45,-18,1,0,0,45,-18,1,0,0,0,120,120,21,1,,,,,,,,
,,,,,,,,,,,,,FF,,,,,,,,1.1878,,,,,,,,,,,,,,,,,,,,,,5eebcc4620cb9a33cd0df72d,61036e083870dce2f2b6664d,2021-07-30_04h12.37.379,Simcolourproject_2stim_asymm_v5,2020.2.10,Win32,60,61025ae37ef11b136ea224fe,,,,,,,,,1827,-80,51,1,0,0,response7disk,,1,13,0,1,0,0,rectangle,13,0,1,0,0,13,0,1,0,0,0,121,121,52,1,,,,,,,,
,,,,,,,,,,,,,FF,,,,,,,,1.2018,,,,,,,,,,,,,,,,,,,,,,5eebcc4620cb9a33cd0df72d,61036e083870dce2f2b6664d,2021-07-30_04h12.37.379,Simcolourproject_2stim_asymm_v5,2020.2.10,Win32,60,61025ae37ef11b136ea224fe,,,,,,,,,200,114,52,1,0,0,response1disk,,6,-7,8,1,0,0,rectangle,-7,8,1,0,0,-7,8,1,0,0,0,122,122,61,1,,,,,,,,
,,,,,,,,,,,,,FF,,,,,,,,1.2153,,,,,,,,,,,,,,,,,,,,,,5eebcc4620cb9a33cd0df72d,61036e083870dce2f2b6664d,2021-07-30_04h12.37.379,Simcolourproject_2stim_asymm_v5,2020.2.10,Win32,60,61025ae37ef11b136ea224fe,,,,,,,,,2936,-90,-74,1,0,0,response5disk,,2,-15,-12,1,0,0,rectangle,-15,-12,1,0,0,-15,-12,1,0,0,0,123,123,54,1,,,,,,,,
,,,,,,,,,,,,,FF,,,,,,,,1.2083,,,,,,,,,,,,,,,,,,,,,,5eebcc4620cb9a33cd0df72d,61036e083870dce2f2b6664d,2021-07-30_04h12.37.379,Simcolourproject_2stim_asymm_v5,2020.2.10,Win32,60,61025ae37ef11b136ea224fe,,,,,,,,,300,131,-75,1,0,0,response3disk,,5,20,-2,1,0,0,rectangle,-127,-67,1,0,0,5,17,1,0,0,0,124,124,115,1,,response5disk_3,TRUE,2,2,"[15,279,143,187,127,168,125,240,261,204,275,126,61,130,104,96,47,26,17,317]",1.5414,rectangle
,,,,,,,,,,,,,FF,,,,,,,,0.7224,,,,,,,,,,,,,,,,,,,,,,5eebcc4620cb9a33cd0df72d,61036e083870dce2f2b6664d,2021-07-30_04h12.37.379,Simcolourproject_2stim_asymm_v5,2020.2.10,Win32,60,61025ae37ef11b136ea224fe,,,,,,,,,3510,-32,113,1,0,0,response7disk,,0,19,-11,1,0,0,rectangle,38,-142,1,0,0,8,9,1,0,0,0,125,125,64,1,,response3disk_3,TRUE,4,4,"[15,279,143,187,127,168,125,240,261,204,275,126,61,130,104,96,47,26,17,317]",2.486,rectangle
,,,,,,,,,,,,,FF,,,,,,,,1.3407,,,,,,,,,,,,,,,,,,,,,,5eebcc4620cb9a33cd0df72d,61036e083870dce2f2b6664d,2021-07-30_04h12.37.379,Simcolourproject_2stim_asymm_v5,2020.2.10,Win32,60,61025ae37ef11b136ea224fe,,,,,,,,,3519,-96,-49,1,0,0,response5disk,,2,-20,1,1,0,0,rectangle,-95,42,1,0,0,-7,2,1,0,0,0,126,126,92,1,,response7disk_3,TRUE,1,1,"[15,279,143,187,127,168,125,240,261,204,275,126,61,130,104,96,47,26,17,317]",1.6247,rectangle
,,,,,,,,,,,,,FF,,,,,,,,2.0839,,,,,,,,,,,,,,,,,,,,,,5eebcc4620cb9a33cd0df72d,61036e083870dce2f2b6664d,2021-07-30_04h12.37.379,Simcolourproject_2stim_asymm_v5,2020.2.10,Win32,60,61025ae37ef11b136ea224fe,,,,,,,,,4005,-117,-79,1,0,0,response5disk,,2,-5,4,1,0,0,rectangle,-5,4,1,0,0,-5,4,1,0,0,0,127,127,20,1,,,,,,,,
,,,,,,,,,,,,,FF,,,,,,,,1.3058,,,,,,,,,,,,,,,,,,,,,,5eebcc4620cb9a33cd0df72d,61036e083870dce2f2b6664d,2021-07-30_04h12.37.379,Simcolourproject_2stim_asymm_v5,2020.2.10,Win32,60,61025ae37ef11b136ea224fe,,,,,,,,,3227,81,-49,1,0,0,response3disk,,5,1,15,1,0,0,rectangle,1,15,1,0,0,1,15,1,0,0,0,128,128,15,1,,,,,,,,
,,,,,,,,,,,,,FF,,,,,,,,1.3749,,,,,,,,,,,,,,,,,,,,,,5eebcc4620cb9a33cd0df72d,61036e083870dce2f2b6664d,2021-07-30_04h12.37.379,Simcolourproject_2stim_asymm_v5,2020.2.10,Win32,60,61025ae37ef11b136ea224fe,,,,,,,,,621,63,-116,1,0,0,response3disk,,4,10,10,1,0,0,rectangle,33,92,1,0,0,6,-17,1,0,0,0,129,129,118,1,,response1disk_3,TRUE,7,7,"[15,279,143,187,127,168,125,240,261,204,275,126,61,130,104,96,47,26,17,317]",1.8471,rectangle
,,,,,,,,,,,,,FF,,,,,,,,0.9378,,,,,,,,,,,,,,,,,,,,,,5eebcc4620cb9a33cd0df72d,61036e083870dce2f2b6664d,2021-07-30_04h12.37.379,Simcolourproject_2stim_asymm_v5,2020.2.10,Win32,60,61025ae37ef11b136ea224fe,,,,,,,,,2064,-102,-117,1,0,0,response5disk,,3,18,19,1,0,0,rectangle,18,19,1,0,0,18,19,1,0,0,0,130,130,66,1,,,,,,,,
,,,,,,,,,,,,,FF,,,,,,,,0.6113,,,,,,,,,,,,,,,,,,,,,,5eebcc4620cb9a33cd0df72d,61036e083870dce2f2b6664d,2021-07-30_04h12.37.379,Simcolourproject_2stim_asymm_v5,2020.2.10,Win32,60,61025ae37ef11b136ea224fe,,,,,,,,,2075,-97,-70,1,0,0,response5disk,,2,39,-12,1,0,0,rectangle,39,-12,1,0,0,39,-12,1,0,0,0,131,131,24,1,,,,,,,,
,,,,,,,,,,,,,FF,,,,,,,,0.4517,,,,,,,,,,,,,,,,,,,,,,5eebcc4620cb9a33cd0df72d,61036e083870dce2f2b6664d,2021-07-30_04h12.37.379,Simcolourproject_2stim_asymm_v5,2020.2.10,Win32,60,61025ae37ef11b136ea224fe,,,,,,,,,4087,107,44,1,0,0,response1disk,,6,28,-2,1,0,0,rectangle,28,-2,1,0,0,28,-2,1,0,0,0,132,132,22,1,,,,,,,,
,,,,,,,,,,,,,FF,,,,,,,,0.875,,,,,,,,,,,,,,,,,,,,,,5eebcc4620cb9a33cd0df72d,61036e083870dce2f2b6664d,2021-07-30_04h12.37.379,Simcolourproject_2stim_asymm_v5,2020.2.10,Win32,60,61025ae37ef11b136ea224fe,,,,,,,,,3187,-102,36,1,0,0,response7disk,,1,-15,-2,1,0,0,rectangle,-15,-2,1,0,0,-15,-2,1,0,0,0,133,133,10,1,,,,,,,,
,,,,,,,,,,,,,FF,,,,,,,,0.4932,,,,,,,,,,,,,,,,,,,,,,5eebcc4620cb9a33cd0df72d,61036e083870dce2f2b6664d,2021-07-30_04h12.37.379,Simcolourproject_2stim_asymm_v5,2020.2.10,Win32,60,61025ae37ef11b136ea224fe,,,,,,,,,1190,60,-97,1,0,0,response3disk,,4,23,-17,1,0,0,rectangle,23,-17,1,0,0,23,-17,1,0,0,0,134,134,98,1,,,,,,,,
,,,,,,,,,,,,,FF,,,,,,,,1.4724,,,,,,,,,,,,,,,,,,,,,,5eebcc4620cb9a33cd0df72d,61036e083870dce2f2b6664d,2021-07-30_04h12.37.379,Simcolourproject_2stim_asymm_v5,2020.2.10,Win32,60,61025ae37ef11b136ea224fe,,,,,,,,,3693,115,-51,1,0,0,response3disk,,5,6,-9,1,0,0,rectangle,6,-9,1,0,0,6,-9,1,0,0,0,135,135,157,1,,,,,,,,
,,,,,,,,,,,,,FF,,,,,,,,1.3539,,,,,,,,,,,,,,,,,,,,,,5eebcc4620cb9a33cd0df72d,61036e083870dce2f2b6664d,2021-07-30_04h12.37.379,Simcolourproject_2stim_asymm_v5,2020.2.10,Win32,60,61025ae37ef11b136ea224fe,,,,,,,,,247,100,35,1,0,0,response1disk,,6,-19,-16,1,0,0,rectangle,-19,-16,1,0,0,-19,-16,1,0,0,0,136,136,23,1,,,,,,,,
,,,,,,,,,,,,,FF,,,,,,,,1.0835,,,,,,,,,,,,,,,,,,,,,,5eebcc4620cb9a33cd0df72d,61036e083870dce2f2b6664d,2021-07-30_04h12.37.379,Simcolourproject_2stim_asymm_v5,2020.2.10,Win32,60,61025ae37ef11b136ea224fe,,,,,,,,,2635,116,32,1,0,0,response1disk,,6,29,-7,1,0,0,rectangle,29,-7,1,0,0,29,-7,1,0,0,0,137,137,141,1,,,,,,,,
,,,,,,,,,,,,,FF,,,,,,,,1.7227,,,,,,,,,,,,,,,,,,,,,,5eebcc4620cb9a33cd0df72d,61036e083870dce2f2b6664d,2021-07-30_04h12.37.379,Simcolourproject_2stim_asymm_v5,2020.2.10,Win32,60,61025ae37ef11b136ea224fe,,,,,,,,,1618,57,-144,1,0,0,response3disk,,4,12,-10,1,0,0,rectangle,12,-10,1,0,0,12,-10,1,0,0,0,138,138,14,1,,,,,,,,
,,,,,,,,,,,,,FF,,,,,,,,0.6593,,,,,,,,,,,,,,,,,,,,,,5eebcc4620cb9a33cd0df72d,61036e083870dce2f2b6664d,2021-07-30_04h12.37.379,Simcolourproject_2stim_asymm_v5,2020.2.10,Win32,60,61025ae37ef11b136ea224fe,,,,,,,,,708,134,52,1,0,0,response1disk,,6,-15,10,1,0,0,rectangle,-15,10,1,0,0,-15,10,1,0,0,0,139,139,140,1,,,,,,,,
,,,,,,,,,,,,,FF,,,,,,,,1.9932,,,,,,,,,,,,,,,,,,,,,,5eebcc4620cb9a33cd0df72d,61036e083870dce2f2b6664d,2021-07-30_04h12.37.379,Simcolourproject_2stim_asymm_v5,2020.2.10,Win32,60,61025ae37ef11b136ea224fe,,,,,,,,,3145,68,88,1,0,0,response1disk,,7,18,-6,1,0,0,rectangle,18,-6,1,0,0,18,-6,1,0,0,0,140,140,63,1,,,,,,,,
,,,,,,,,,,,,,FF,,,,,,,,0.7018,,,,,,,,,,,,,,,,,,,,,,5eebcc4620cb9a33cd0df72d,61036e083870dce2f2b6664d,2021-07-30_04h12.37.379,Simcolourproject_2stim_asymm_v5,2020.2.10,Win32,60,61025ae37ef11b136ea224fe,,,,,,,,,2797,128,-97,1,0,0,response3disk,,5,-3,14,1,0,0,rectangle,-3,14,1,0,0,-3,14,1,0,0,0,141,141,128,1,,,,,,,,
,,,,,,,,,,,,,FF,,,,,,,,0.4997,,,,,,,,,,,,,,,,,,,,,,5eebcc4620cb9a33cd0df72d,61036e083870dce2f2b6664d,2021-07-30_04h12.37.379,Simcolourproject_2stim_asymm_v5,2020.2.10,Win32,60,61025ae37ef11b136ea224fe,,,,,,,,,3112,-35,-124,1,0,0,response5disk,,3,-23,7,1,0,0,rectangle,55,-108,1,0,0,-3,9,1,0,0,0,142,142,152,1,,response3disk_3,TRUE,4,4,"[15,279,143,187,127,168,125,240,261,204,275,126,61,130,104,96,47,26,17,317]",1.2293,rectangle
,,,,,,,,,,,,,FF,,,,,,,,3.0693,,,,,,,,,,,,,,,,,,,,,,5eebcc4620cb9a33cd0df72d,61036e083870dce2f2b6664d,2021-07-30_04h12.37.379,Simcolourproject_2stim_asymm_v5,2020.2.10,Win32,60,61025ae37ef11b136ea224fe,,,,,,,,,324,64,-116,1,0,0,response3disk,,4,-22,7,1,0,0,rectangle,-22,7,1,0,0,-22,7,1,0,0,0,143,143,103,1,,,,,,,,
,,,,,,,,,,,,,FF,,,,,,,,1.1669,,,,,,,,,,,,,,,,,,,,,,5eebcc4620cb9a33cd0df72d,61036e083870dce2f2b6664d,2021-07-30_04h12.37.379,Simcolourproject_2stim_asymm_v5,2020.2.10,Win32,60,61025ae37ef11b136ea224fe,,,,,,,,,1964,-94,-56,1,0,0,response5disk,,2,-47,0,1,0,0,rectangle,-47,0,1,0,0,-47,0,1,0,0,0,144,144,149,1,,,,,,,,
,,,,,,,,,,,,,FF,,,,,,,,2.257,,,,,,,,,,,,,,,,,,,,,,5eebcc4620cb9a33cd0df72d,61036e083870dce2f2b6664d,2021-07-30_04h12.37.379,Simcolourproject_2stim_asymm_v5,2020.2.10,Win32,60,61025ae37ef11b136ea224fe,,,,,,,,,2709,149,39,1,0,0,response1disk,,6,24,-15,1,0,0,rectangle,24,-15,1,0,0,24,-15,1,0,0,0,145,145,108,1,,,,,,,,
,,,,,,,,,,,,,FF,,,,,,,,0.7292,,,,,,,,,,,,,,,,,,,,,,5eebcc4620cb9a33cd0df72d,61036e083870dce2f2b6664d,2021-07-30_04h12.37.379,Simcolourproject_2stim_asymm_v5,2020.2.10,Win32,60,61025ae37ef11b136ea224fe,,,,,,,,,2651,-45,-137,1,0,0,response5disk,,3,43,-10,1,0,0,rectangle,43,-10,1,0,0,43,-10,1,0,0,0,146,146,137,1,,,,,,,,
,,,,,,,,,,,,,FF,,,,,,,,0.7575,,,,,,,,,,,,,,,,,,,,,,5eebcc4620cb9a33cd0df72d,61036e083870dce2f2b6664d,2021-07-30_04h12.37.379,Simcolourproject_2stim_asymm_v5,2020.2.10,Win32,60,61025ae37ef11b136ea224fe,,,,,,,,,1664,83,-117,1,0,0,response3disk,,4,35,-8,1,0,0,rectangle,35,-8,1,0,0,35,-8,1,0,0,0,147,147,43,1,,,,,,,,
,,,,,,,,,,,,,FF,,,,,,,,0.8818,,,,,,,,,,,,,,,,,,,,,,5eebcc4620cb9a33cd0df72d,61036e083870dce2f2b6664d,2021-07-30_04h12.37.379,Simcolourproject_2stim_asymm_v5,2020.2.10,Win32,60,61025ae37ef11b136ea224fe,,,,,,,,,2054,-120,-53,1,0,0,response5disk,,2,-17,3,1,0,0,rectangle,-17,3,1,0,0,-17,3,1,0,0,0,148,148,122,1,,,,,,,,
,,,,,,,,,,,,,FF,,,,,,,,0.8333,,,,,,,,,,,,,,,,,,,,,,5eebcc4620cb9a33cd0df72d,61036e083870dce2f2b6664d,2021-07-30_04h12.37.379,Simcolourproject_2stim_asymm_v5,2020.2.10,Win32,60,61025ae37ef11b136ea224fe,,,,,,,,,1382,-45,-143,1,0,0,response5disk,,3,12,4,1,0,0,rectangle,12,4,1,0,0,12,4,1,0,0,0,149,149,139,1,,,,,,,,
,,,,,,,,,,,,,FF,,,,,,,,0.7501,,,,,,,,,,,,,,,,,,,,,,5eebcc4620cb9a33cd0df72d,61036e083870dce2f2b6664d,2021-07-30_04h12.37.379,Simcolourproject_2stim_asymm_v5,2020.2.10,Win32,60,61025ae37ef11b136ea224fe,,,,,,,,,586,99,22,1,0,0,response1disk,,6,30,-9,1,0,0,rectangle,30,-9,1,0,0,30,-9,1,0,0,0,150,150,11,1,,,,,,,,
,,,,,,,,,,,,,FF,,,,,,,,0.4029,,,,,,,,,,,,,,,,,,,,,,5eebcc4620cb9a33cd0df72d,61036e083870dce2f2b6664d,2021-07-30_04h12.37.379,Simcolourproject_2stim_asymm_v5,2020.2.10,Win32,60,61025ae37ef11b136ea224fe,,,,,,,,,1688,80,-105,1,0,0,response3disk,,4,-19,16,1,0,0,rectangle,-19,16,1,0,0,-19,16,1,0,0,0,151,151,90,1,,,,,,,,
,,,,,,,,,,,,,FF,,,,,,,,1.4793,,,,,,,,,,,,,,,,,,,,,,5eebcc4620cb9a33cd0df72d,61036e083870dce2f2b6664d,2021-07-30_04h12.37.379,Simcolourproject_2stim_asymm_v5,2020.2.10,Win32,60,61025ae37ef11b136ea224fe,,,,,,,,,4146,133,20,1,0,0,response1disk,,6,25,-14,1,0,0,rectangle,25,-14,1,0,0,25,-14,1,0,0,0,152,152,78,1,,,,,,,,
,,,,,,,,,,,,,FF,,,,,,,,0.8261,,,,,,,,,,,,,,,,,,,,,,5eebcc4620cb9a33cd0df72d,61036e083870dce2f2b6664d,2021-07-30_04h12.37.379,Simcolourproject_2stim_asymm_v5,2020.2.10,Win32,60,61025ae37ef11b136ea224fe,,,,,,,,,230,129,29,1,0,0,response1disk,,6,42,-11,1,0,0,rectangle,42,-11,1,0,0,42,-11,1,0,0,0,153,153,25,1,,,,,,,,
,,,,,,,,,,,,,FF,,,,,,,,0.653,,,,,,,,,,,,,,,,,,,,,,5eebcc4620cb9a33cd0df72d,61036e083870dce2f2b6664d,2021-07-30_04h12.37.379,Simcolourproject_2stim_asymm_v5,2020.2.10,Win32,60,61025ae37ef11b136ea224fe,,,,,,,,,608,-64,-98,1,0,0,response5disk,,3,-5,-11,1,0,0,rectangle,-5,-11,1,0,0,-5,-11,1,0,0,0,154,154,36,1,,,,,,,,
,,,,,,,,,,,,,FF,,,,,,,,1.5697,,,,,,,,,,,,,,,,,,,,,,5eebcc4620cb9a33cd0df72d,61036e083870dce2f2b6664d,2021-07-30_04h12.37.379,Simcolourproject_2stim_asymm_v5,2020.2.10,Win32,60,61025ae37ef11b136ea224fe,,,,,,,,,2997,-68,31,1,0,0,response7disk,,1,-20,-12,1,0,0,rectangle,-20,-12,1,0,0,-20,-12,1,0,0,0,155,155,79,1,,,,,,,,
,,,,,,,,,,,,,FF,,,,,,,,0.7018,,,,,,,,,,,,,,,,,,,,,,5eebcc4620cb9a33cd0df72d,61036e083870dce2f2b6664d,2021-07-30_04h12.37.379,Simcolourproject_2stim_asymm_v5,2020.2.10,Win32,60,61025ae37ef11b136ea224fe,,,,,,,,,3733,165,-46,1,0,0,response3disk,,5,45,0,1,0,0,rectangle,45,0,1,0,0,45,0,1,0,0,0,156,156,26,1,,,,,,,,
,,,,,,,,,,,,,FF,,,,,,,,0.9101,,,,,,,,,,,,,,,,,,,,,,5eebcc4620cb9a33cd0df72d,61036e083870dce2f2b6664d,2021-07-30_04h12.37.379,Simcolourproject_2stim_asymm_v5,2020.2.10,Win32,60,61025ae37ef11b136ea224fe,,,,,,,,,877,69,-120,1,0,0,response3disk,,4,21,1,1,0,0,rectangle,21,1,1,0,0,21,1,1,0,0,0,157,157,47,1,,,,,,,,
,,,,,,,,,,,,,FF,,,,,,,,0.8195,,,,,,,,,,,,,,,,,,,,,,5eebcc4620cb9a33cd0df72d,61036e083870dce2f2b6664d,2021-07-30_04h12.37.379,Simcolourproject_2stim_asymm_v5,2020.2.10,Win32,60,61025ae37ef11b136ea224fe,,,,,,,,,817,-78,-43,1,0,0,response5disk,,2,-22,8,1,0,0,rectangle,-22,8,1,0,0,-22,8,1,0,0,0,158,158,144,1,,,,,,,,
,,,,,,,,,,,,,FF,,,,,,,,1.0695,,,,,,,,,,,,,,,,,,,,,,5eebcc4620cb9a33cd0df72d,61036e083870dce2f2b6664d,2021-07-30_04h12.37.379,Simcolourproject_2stim_asymm_v5,2020.2.10,Win32,60,61025ae37ef11b136ea224fe,,,,,,,,,4043,136,32,1,0,0,response1disk,,6,13,-14,1,0,0,rectangle,13,-14,1,0,0,13,-14,1,0,0,0,159,159,60,1,,,,,,,,
,,,,,,,,,,,,,FF,,,,,,,,1.1394,,,,,,,,,,,,,,,,,,,,,,5eebcc4620cb9a33cd0df72d,61036e083870dce2f2b6664d,2021-07-30_04h12.37.379,Simcolourproject_2stim_asymm_v5,2020.2.10,Win32,60,61025ae37ef11b136ea224fe,,,,,,,,,3473,-45,-134,1,0,0,response5disk,,3,14,8,1,0,0,rectangle,14,8,1,0,0,14,8,1,0,0,1,0,160,25,1,,,,,,,,
,,,,,,,,,,,,,FF,,,,,,,,0.799,,,,,,,,,,,,,,,,,,,,,,5eebcc4620cb9a33cd0df72d,61036e083870dce2f2b6664d,2021-07-30_04h12.37.379,Simcolourproject_2stim_asymm_v5,2020.2.10,Win32,60,61025ae37ef11b136ea224fe,,,,,,,,,570,109,23,1,0,0,response1disk,,6,17,-1,1,0,0,rectangle,17,-1,1,0,0,17,-1,1,0,0,1,1,161,98,1,,,,,,,,
,,,,,,,,,,,,,FF,,,,,,,,2.0073,,,,,,,,,,,,,,,,,,,,,,5eebcc4620cb9a33cd0df72d,61036e083870dce2f2b6664d,2021-07-30_04h12.37.379,Simcolourproject_2stim_asymm_v5,2020.2.10,Win32,60,61025ae37ef11b136ea224fe,,,,,,,,,3784,-55,-147,1,0,0,response5disk,,3,33,-12,1,0,0,rectangle,33,-12,1,0,0,33,-12,1,0,0,1,2,162,44,1,,,,,,,,
,,,,,,,,,,,,,FF,,,,,,,,1.4998,,,,,,,,,,,,,,,,,,,,,,5eebcc4620cb9a33cd0df72d,61036e083870dce2f2b6664d,2021-07-30_04h12.37.379,Simcolourproject_2stim_asymm_v5,2020.2.10,Win32,60,61025ae37ef11b136ea224fe,,,,,,,,,4152,38,84,1,0,0,response1disk,,7,-14,16,1,0,0,rectangle,-14,16,1,0,0,-14,16,1,0,0,1,3,163,36,1,,,,,,,,
,,,,,,,,,,,,,FF,,,,,,,,2.007,,,,,,,,,,,,,,,,,,,,,,5eebcc4620cb9a33cd0df72d,61036e083870dce2f2b6664d,2021-07-30_04h12.37.379,Simcolourproject_2stim_asymm_v5,2020.2.10,Win32,60,61025ae37ef11b136ea224fe,,,,,,,,,3460,79,-114,1,0,0,response3disk,,4,36,6,1,0,0,rectangle,36,6,1,0,0,36,6,1,0,0,1,4,164,139,1,,,,,,,,
,,,,,,,,,,,,,FF,,,,,,,,1.1878,,,,,,,,,,,,,,,,,,,,,,5eebcc4620cb9a33cd0df72d,61036e083870dce2f2b6664d,2021-07-30_04h12.37.379,Simcolourproject_2stim_asymm_v5,2020.2.10,Win32,60,61025ae37ef11b136ea224fe,,,,,,,,,4128,-57,-135,1,0,0,response5disk,,3,30,-4,1,0,0,rectangle,30,-4,1,0,0,30,-4,1,0,0,1,5,165,151,1,,,,,,,,
,,,,,,,,,,,,,FF,,,,,,,,1.2428,,,,,,,,,,,,,,,,,,,,,,5eebcc4620cb9a33cd0df72d,61036e083870dce2f2b6664d,2021-07-30_04h12.37.379,Simcolourproject_2stim_asymm_v5,2020.2.10,Win32,60,61025ae37ef11b136ea224fe,,,,,,,,,3730,74,-87,1,0,0,response3disk,,4,39,-15,1,0,0,rectangle,39,-15,1,0,0,39,-15,1,0,0,1,6,166,150,1,,,,,,,,
,,,,,,,,,,,,,FF,,,,,,,,1.7154,,,,,,,,,,,,,,,,,,,,,,5eebcc4620cb9a33cd0df72d,61036e083870dce2f2b6664d,2021-07-30_04h12.37.379,Simcolourproject_2stim_asymm_v5,2020.2.10,Win32,60,61025ae37ef11b136ea224fe,,,,,,,,,2014,108,47,1,0,0,response1disk,,6,36,3,1,0,0,rectangle,-51,93,1,0,0,-10,-14,1,0,0,1,7,167,110,1,,response7disk_3,TRUE,0,0,"[15,279,143,187,127,168,125,240,261,204,275,126,61,130,104,96,47,26,17,317]",1.6671,rectangle
,,,,,,,,,,,,,FF,,,,,,,,2.6219,,,,,,,,,,,,,,,,,,,,,,5eebcc4620cb9a33cd0df72d,61036e083870dce2f2b6664d,2021-07-30_04h12.37.379,Simcolourproject_2stim_asymm_v5,2020.2.10,Win32,60,61025ae37ef11b136ea224fe,,,,,,,,,1885,159,50,1,0,0,response1disk,,6,19,-10,1,0,0,rectangle,19,-10,1,0,0,19,-10,1,0,0,1,8,168,79,1,,,,,,,,
,,,,,,,,,,,,,FF,,,,,,,,0.5148,,,,,,,,,,,,,,,,,,,,,,5eebcc4620cb9a33cd0df72d,61036e083870dce2f2b6664d,2021-07-30_04h12.37.379,Simcolourproject_2stim_asymm_v5,2020.2.10,Win32,60,61025ae37ef11b136ea224fe,,,,,,,,,1643,85,-118,1,0,0,response3disk,,4,31,-18,1,0,0,rectangle,31,-18,1,0,0,31,-18,1,0,0,1,9,169,1,1,,,,,,,,
,,,,,,,,,,,,,FF,,,,,,,,1.0905,,,,,,,,,,,,,,,,,,,,,,5eebcc4620cb9a33cd0df72d,61036e083870dce2f2b6664d,2021-07-30_04h12.37.379,Simcolourproject_2stim_asymm_v5,2020.2.10,Win32,60,61025ae37ef11b136ea224fe,,,,,,,,,0,109,-68,1,0,0,response3disk,,5,39,-9,1,0,0,rectangle,39,-9,1,0,0,39,-9,1,0,0,1,10,170,46,1,,,,,,,,
,,,,,,,,,,,,,FF,,,,,,,,2.1944,,,,,,,,,,,,,,,,,,,,,,5eebcc4620cb9a33cd0df72d,61036e083870dce2f2b6664d,2021-07-30_04h12.37.379,Simcolourproject_2stim_asymm_v5,2020.2.10,Win32,60,61025ae37ef11b136ea224fe,,,,,,,,,3091,-80,-65,1,0,0,response5disk,,2,-6,-1,1,0,0,rectangle,-6,-1,1,0,0,-6,-1,1,0,0,1,11,171,149,1,,,,,,,,
,,,,,,,,,,,,,FF,,,,,,,,1.1011,,,,,,,,,,,,,,,,,,,,,,5eebcc4620cb9a33cd0df72d,61036e083870dce2f2b6664d,2021-07-30_04h12.37.379,Simcolourproject_2stim_asymm_v5,2020.2.10,Win32,60,61025ae37ef11b136ea224fe,,,,,,,,,3811,-35,92,1,0,0,response7disk,,0,25,11,1,0,0,rectangle,25,11,1,0,0,25,11,1,0,0,1,12,172,60,1,,,,,,,,
,,,,,,,,,,,,,FF,,,,,,,,1.0144,,,,,,,,,,,,,,,,,,,,,,5eebcc4620cb9a33cd0df72d,61036e083870dce2f2b6664d,2021-07-30_04h12.37.379,Simcolourproject_2stim_asymm_v5,2020.2.10,Win32,60,61025ae37ef11b136ea224fe,,,,,,,,,1695,-66,-134,1,0,0,response5disk,,3,24,-13,1,0,0,rectangle,24,-13,1,0,0,24,-13,1,0,0,1,13,173,135,1,,,,,,,,
,,,,,,,,,,,,,FF,,,,,,,,0.6395,,,,,,,,,,,,,,,,,,,,,,5eebcc4620cb9a33cd0df72d,61036e083870dce2f2b6664d,2021-07-30_04h12.37.379,Simcolourproject_2stim_asymm_v5,2020.2.10,Win32,60,61025ae37ef11b136ea224fe,,,,,,,,,105,89,-113,1,0,0,response3disk,,4,41,-4,1,0,0,rectangle,41,-4,1,0,0,41,-4,1,0,0,1,14,174,14,1,,,,,,,,
,,,,,,,,,,,,,FF,,,,,,,,0.6941,,,,,,,,,,,,,,,,,,,,,,5eebcc4620cb9a33cd0df72d,61036e083870dce2f2b6664d,2021-07-30_04h12.37.379,Simcolourproject_2stim_asymm_v5,2020.2.10,Win32,60,61025ae37ef11b136ea224fe,,,,,,,,,1202,85,60,1,0,0,response1disk,,6,-8,7,1,0,0,rectangle,-8,7,1,0,0,-8,7,1,0,0,1,15,175,142,1,,,,,,,,
,,,,,,,,,,,,,FF,,,,,,,,0.4581,,,,,,,,,,,,,,,,,,,,,,5eebcc4620cb9a33cd0df72d,61036e083870dce2f2b6664d,2021-07-30_04h12.37.379,Simcolourproject_2stim_asymm_v5,2020.2.10,Win32,60,61025ae37ef11b136ea224fe,,,,,,,,,3277,-66,-154,1,0,0,response5disk,,3,-5,-13,1,0,0,rectangle,-5,-13,1,0,0,-5,-13,1,0,0,1,16,176,86,1,,,,,,,,
,,,,,,,,,,,,,FF,,,,,,,,1.3682,,,,,,,,,,,,,,,,,,,,,,5eebcc4620cb9a33cd0df72d,61036e083870dce2f2b6664d,2021-07-30_04h12.37.379,Simcolourproject_2stim_asymm_v5,2020.2.10,Win32,60,61025ae37ef11b136ea224fe,,,,,,,,,641,-119,-60,1,0,0,response5disk,,2,6,7,1,0,0,rectangle,6,7,1,0,0,6,7,1,0,0,1,17,177,95,1,,,,,,,,
,,,,,,,,,,,,,FF,,,,,,,,0.7638,,,,,,,,,,,,,,,,,,,,,,5eebcc4620cb9a33cd0df72d,61036e083870dce2f2b6664d,2021-07-30_04h12.37.379,Simcolourproject_2stim_asymm_v5,2020.2.10,Win32,60,61025ae37ef11b136ea224fe,,,,,,,,,999,86,-125,1,0,0,response3disk,,4,29,-1,1,0,0,rectangle,29,-1,1,0,0,29,-1,1,0,0,1,18,178,156,1,,,,,,,,
,,,,,,,,,,,,,FF,,,,,,,,0.7575,,,,,,,,,,,,,,,,,,,,,,5eebcc4620cb9a33cd0df72d,61036e083870dce2f2b6664d,2021-07-30_04h12.37.379,Simcolourproject_2stim_asymm_v5,2020.2.10,Win32,60,61025ae37ef11b136ea224fe,,,,,,,,,1591,128,-45,1,0,0,response3disk,,5,-13,3,1,0,0,rectangle,-13,3,1,0,0,-13,3,1,0,0,1,19,179,108,1,,,,,,,,
,,,,,,,,,,,,,FF,,,,,,,,1.0284,,,,,,,,,,,,,,,,,,,,,,5eebcc4620cb9a33cd0df72d,61036e083870dce2f2b6664d,2021-07-30_04h12.37.379,Simcolourproject_2stim_asymm_v5,2020.2.10,Win32,60,61025ae37ef11b136ea224fe,,,,,,,,,4283,-68,-49,1,0,0,response5disk,,2,-7,1,1,0,0,rectangle,-7,1,1,0,0,-7,1,1,0,0,1,20,180,58,1,,,,,,,,
,,,,,,,,,,,,,FF,,,,,,,,0.7921,,,,,,,,,,,,,,,,,,,,,,5eebcc4620cb9a33cd0df72d,61036e083870dce2f2b6664d,2021-07-30_04h12.37.379,Simcolourproject_2stim_asymm_v5,2020.2.10,Win32,60,61025ae37ef11b136ea224fe,,,,,,,,,828,-44,-122,1,0,0,response5disk,,3,9,-7,1,0,0,rectangle,9,-7,1,0,0,9,-7,1,0,0,1,21,181,61,1,,,,,,,,
,,,,,,,,,,,,,FF,,,,,,,,33.1748,,,,,,,,,,,,,,,,,,,,,,5eebcc4620cb9a33cd0df72d,61036e083870dce2f2b6664d,2021-07-30_04h12.37.379,Simcolourproject_2stim_asymm_v5,2020.2.10,Win32,60,61025ae37ef11b136ea224fe,,,,,,,,,151,53,-110,1,0,0,response3disk,,4,4,3,1,0,0,rectangle,4,3,1,0,0,4,3,1,0,0,1,22,182,97,1,,,,,,,,
,,,,,,,,,,,,,FF,,,,,,,,0.6324,,,,,,,,,,,,,,,,,,,,,,5eebcc4620cb9a33cd0df72d,61036e083870dce2f2b6664d,2021-07-30_04h12.37.379,Simcolourproject_2stim_asymm_v5,2020.2.10,Win32,60,61025ae37ef11b136ea224fe,,,,,,,,,4040,82,-51,1,0,0,response3disk,,5,8,-9,1,0,0,rectangle,8,-9,1,0,0,8,-9,1,0,0,1,23,183,54,1,,,,,,,,
,,,,,,,,,,,,,FF,,,,,,,,1.514,,,,,,,,,,,,,,,,,,,,,,5eebcc4620cb9a33cd0df72d,61036e083870dce2f2b6664d,2021-07-30_04h12.37.379,Simcolourproject_2stim_asymm_v5,2020.2.10,Win32,60,61025ae37ef11b136ea224fe,,,,,,,,,2923,102,-72,1,0,0,response3disk,,5,2,-8,1,0,0,rectangle,2,-8,1,0,0,2,-8,1,0,0,1,24,184,106,1,,,,,,,,
,,,,,,,,,,,,,FF,,,,,,,,0.8746,,,,,,,,,,,,,,,,,,,,,,5eebcc4620cb9a33cd0df72d,61036e083870dce2f2b6664d,2021-07-30_04h12.37.379,Simcolourproject_2stim_asymm_v5,2020.2.10,Win32,60,61025ae37ef11b136ea224fe,,,,,,,,,204,-128,-61,1,0,0,response5disk,,2,16,16,1,0,0,rectangle,16,16,1,0,0,16,16,1,0,0,1,25,185,88,1,,,,,,,,
,,,,,,,,,,,,,FF,,,,,,,,0.7292,,,,,,,,,,,,,,,,,,,,,,5eebcc4620cb9a33cd0df72d,61036e083870dce2f2b6664d,2021-07-30_04h12.37.379,Simcolourproject_2stim_asymm_v5,2020.2.10,Win32,60,61025ae37ef11b136ea224fe,,,,,,,,,870,-31,-133,1,0,0,response5disk,,3,25,-9,1,0,0,rectangle,57,111,1,0,0,0,8,1,0,0,1,26,186,10,1,,response1disk_3,TRUE,7,7,"[15,279,143,187,127,168,125,240,261,204,275,126,61,130,104,96,47,26,17,317]",1.7224,rectangle
,,,,,,,,,,,,,FF,,,,,,,,2.6321,,,,,,,,,,,,,,,,,,,,,,5eebcc4620cb9a33cd0df72d,61036e083870dce2f2b6664d,2021-07-30_04h12.37.379,Simcolourproject_2stim_asymm_v5,2020.2.10,Win32,60,61025ae37ef11b136ea224fe,,,,,,,,,2552,65,-92,1,0,0,response3disk,,4,34,-11,1,0,0,rectangle,34,-11,1,0,0,34,-11,1,0,0,1,27,187,123,1,,,,,,,,
,,,,,,,,,,,,,FF,,,,,,,,0.6801,,,,,,,,,,,,,,,,,,,,,,5eebcc4620cb9a33cd0df72d,61036e083870dce2f2b6664d,2021-07-30_04h12.37.379,Simcolourproject_2stim_asymm_v5,2020.2.10,Win32,60,61025ae37ef11b136ea224fe,,,,,,,,,559,-72,-86,1,0,0,response5disk,,3,-7,-8,1,0,0,rectangle,-7,-8,1,0,0,-7,-8,1,0,0,1,28,188,77,1,,,,,,,,
,,,,,,,,,,,,,FF,,,,,,,,1.292,,,,,,,,,,,,,,,,,,,,,,5eebcc4620cb9a33cd0df72d,61036e083870dce2f2b6664d,2021-07-30_04h12.37.379,Simcolourproject_2stim_asymm_v5,2020.2.10,Win32,60,61025ae37ef11b136ea224fe,,,,,,,,,2567,122,40,1,0,0,response1disk,,6,-11,5,1,0,0,rectangle,-11,5,1,0,0,-11,5,1,0,0,1,29,189,16,1,,,,,,,,
,,,,,,,,,,,,,FF,,,,,,,,1.1529,,,,,,,,,,,,,,,,,,,,,,5eebcc4620cb9a33cd0df72d,61036e083870dce2f2b6664d,2021-07-30_04h12.37.379,Simcolourproject_2stim_asymm_v5,2020.2.10,Win32,60,61025ae37ef11b136ea224fe,,,,,,,,,3104,-46,-101,1,0,0,response5disk,,3,-15,6,1,0,0,rectangle,-15,6,1,0,0,-15,6,1,0,0,1,30,190,12,1,,,,,,,,
,,,,,,,,,,,,,FF,,,,,,,,0.48,,,,,,,,,,,,,,,,,,,,,,5eebcc4620cb9a33cd0df72d,61036e083870dce2f2b6664d,2021-07-30_04h12.37.379,Simcolourproject_2stim_asymm_v5,2020.2.10,Win32,60,61025ae37ef11b136ea224fe,,,,,,,,,3424,-59,-133,1,0,0,response5disk,,3,-24,-17,1,0,0,rectangle,-24,-17,1,0,0,-24,-17,1,0,0,1,31,191,158,1,,,,,,,,
,,,,,,,,,,,,,FF,,,,,,,,0.7572,,,,,,,,,,,,,,,,,,,,,,5eebcc4620cb9a33cd0df72d,61036e083870dce2f2b6664d,2021-07-30_04h12.37.379,Simcolourproject_2stim_asymm_v5,2020.2.10,Win32,60,61025ae37ef11b136ea224fe,,,,,,,,,1727,95,-68,1,0,0,response3disk,,5,5,7,1,0,0,rectangle,5,7,1,0,0,5,7,1,0,0,1,32,192,30,1,,,,,,,,
,,,,,,,,,,,,,FF,,,,,,,,0.6044,,,,,,,,,,,,,,,,,,,,,,5eebcc4620cb9a33cd0df72d,61036e083870dce2f2b6664d,2021-07-30_04h12.37.379,Simcolourproject_2stim_asymm_v5,2020.2.10,Win32,60,61025ae37ef11b136ea224fe,,,,,,,,,1040,102,35,1,0,0,response1disk,,6,-27,-11,1,0,0,rectangle,-27,-11,1,0,0,-27,-11,1,0,0,1,33,193,134,1,,,,,,,,
,,,,,,,,,,,,,FF,,,,,,,,0.6254,,,,,,,,,,,,,,,,,,,,,,5eebcc4620cb9a33cd0df72d,61036e083870dce2f2b6664d,2021-07-30_04h12.37.379,Simcolourproject_2stim_asymm_v5,2020.2.10,Win32,60,61025ae37ef11b136ea224fe,,,,,,,,,3973,-66,-116,1,0,0,response5disk,,3,-27,15,1,0,0,rectangle,-27,15,1,0,0,-27,15,1,0,0,1,34,194,70,1,,,,,,,,
,,,,,,,,,,,,,FF,,,,,,,,0.5189,,,,,,,,,,,,,,,,,,,,,,5eebcc4620cb9a33cd0df72d,61036e083870dce2f2b6664d,2021-07-30_04h12.37.379,Simcolourproject_2stim_asymm_v5,2020.2.10,Win32,60,61025ae37ef11b136ea224fe,,,,,,,,,3751,-56,-100,1,0,0,response5disk,,3,-8,5,1,0,0,rectangle,-8,5,1,0,0,-8,5,1,0,0,1,35,195,148,1,,,,,,,,
,,,,,,,,,,,,,FF,,,,,,,,0.5469,,,,,,,,,,,,,,,,,,,,,,5eebcc4620cb9a33cd0df72d,61036e083870dce2f2b6664d,2021-07-30_04h12.37.379,Simcolourproject_2stim_asymm_v5,2020.2.10,Win32,60,61025ae37ef11b136ea224fe,,,,,,,,,1693,98,-130,1,0,0,response3disk,,4,21,-8,1,0,0,rectangle,21,-8,1,0,0,21,-8,1,0,0,1,36,196,146,1,,,,,,,,
,,,,,,,,,,,,,FF,,,,,,,,0.6118,,,,,,,,,,,,,,,,,,,,,,5eebcc4620cb9a33cd0df72d,61036e083870dce2f2b6664d,2021-07-30_04h12.37.379,Simcolourproject_2stim_asymm_v5,2020.2.10,Win32,60,61025ae37ef11b136ea224fe,,,,,,,,,2062,-50,-90,1,0,0,response5disk,,3,-35,16,1,0,0,rectangle,-35,16,1,0,0,-35,16,1,0,0,1,37,197,133,1,,,,,,,,
,,,,,,,,,,,,,FF,,,,,,,,0.7638,,,,,,,,,,,,,,,,,,,,,,5eebcc4620cb9a33cd0df72d,61036e083870dce2f2b6664d,2021-07-30_04h12.37.379,Simcolourproject_2stim_asymm_v5,2020.2.10,Win32,60,61025ae37ef11b136ea224fe,,,,,,,,,3516,-110,-63,1,0,0,response5disk,,2,19,3,1,0,0,rectangle,19,3,1,0,0,19,3,1,0,0,1,38,198,87,1,,,,,,,,
,,,,,,,,,,,,,FF,,,,,,,,0.4654,,,,,,,,,,,,,,,,,,,,,,5eebcc4620cb9a33cd0df72d,61036e083870dce2f2b6664d,2021-07-30_04h12.37.379,Simcolourproject_2stim_asymm_v5,2020.2.10,Win32,60,61025ae37ef11b136ea224fe,,,,,,,,,3364,122,-73,1,0,0,response3disk,,5,17,0,1,0,0,rectangle,17,0,1,0,0,17,0,1,0,0,1,39,199,50,1,,,,,,,,
,,,,,,,,,,,,,FF,,,,,,,,0.3857,,,,,,,,,,,,,,,,,,,,,,5eebcc4620cb9a33cd0df72d,61036e083870dce2f2b6664d,2021-07-30_04h12.37.379,Simcolourproject_2stim_asymm_v5,2020.2.10,Win32,60,61025ae37ef11b136ea224fe,,,,,,,,,2690,41,-86,1,0,0,response3disk,,4,-41,13,1,0,0,rectangle,-41,13,1,0,0,-41,13,1,0,0,1,40,200,145,1,,,,,,,,
,,,,,,,,,,,,,FF,,,,,,,,0.7329,,,,,,,,,,,,,,,,,,,,,,5eebcc4620cb9a33cd0df72d,61036e083870dce2f2b6664d,2021-07-30_04h12.37.379,Simcolourproject_2stim_asymm_v5,2020.2.10,Win32,60,61025ae37ef11b136ea224fe,,,,,,,,,2347,118,-65,1,0,0,response3disk,,5,11,-1,1,0,0,rectangle,11,-1,1,0,0,11,-1,1,0,0,1,41,201,66,1,,,,,,,,
,,,,,,,,,,,,,FF,,,,,,,,0.4515,,,,,,,,,,,,,,,,,,,,,,5eebcc4620cb9a33cd0df72d,61036e083870dce2f2b6664d,2021-07-30_04h12.37.379,Simcolourproject_2stim_asymm_v5,2020.2.10,Win32,60,61025ae37ef11b136ea224fe,,,,,,,,,2585,129,46,1,0,0,response1disk,,6,-24,2,1,0,0,rectangle,-24,2,1,0,0,-24,2,1,0,0,1,42,202,75,1,,,,,,,,
,,,,,,,,,,,,,FF,,,,,,,,0.3682,,,,,,,,,,,,,,,,,,,,,,5eebcc4620cb9a33cd0df72d,61036e083870dce2f2b6664d,2021-07-30_04h12.37.379,Simcolourproject_2stim_asymm_v5,2020.2.10,Win32,60,61025ae37ef11b136ea224fe,,,,,,,,,1562,131,39,1,0,0,response1disk,,6,-3,-6,1,0,0,rectangle,130,33,1,0,0,12,7,1,0,0,1,43,203,112,1,,response1disk_3,TRUE,6,6,"[15,279,143,187,127,168,125,240,261,204,275,126,61,130,104,96,47,26,17,317]",1.337,rectangle
,,,,,,,,,,,,,FF,,,,,,,,1.7367,,,,,,,,,,,,,,,,,,,,,,5eebcc4620cb9a33cd0df72d,61036e083870dce2f2b6664d,2021-07-30_04h12.37.379,Simcolourproject_2stim_asymm_v5,2020.2.10,Win32,60,61025ae37ef11b136ea224fe,,,,,,,,,1824,-100,34,1,0,0,response7disk,,1,10,-9,1,0,0,rectangle,10,-9,1,0,0,10,-9,1,0,0,1,44,204,130,1,,,,,,,,
,,,,,,,,,,,,,FF,,,,,,,,0.6251,,,,,,,,,,,,,,,,,,,,,,5eebcc4620cb9a33cd0df72d,61036e083870dce2f2b6664d,2021-07-30_04h12.37.379,Simcolourproject_2stim_asymm_v5,2020.2.10,Win32,60,61025ae37ef11b136ea224fe,,,,,,,,,2909,-69,-96,1,0,0,response5disk,,3,3,-1,1,0,0,rectangle,3,-1,1,0,0,3,-1,1,0,0,1,45,205,3,1,,,,,,,,
,,,,,,,,,,,,,FF,,,,,,,,0.8692,,,,,,,,,,,,,,,,,,,,,,5eebcc4620cb9a33cd0df72d,61036e083870dce2f2b6664d,2021-07-30_04h12.37.379,Simcolourproject_2stim_asymm_v5,2020.2.10,Win32,60,61025ae37ef11b136ea224fe,,,,,,,,,1794,58,-114,1,0,0,response3disk,,4,43,-6,1,0,0,rectangle,43,-6,1,0,0,43,-6,1,0,0,1,46,206,105,1,,,,,,,,
,,,,,,,,,,,,,FF,,,,,,,,1.0206,,,,,,,,,,,,,,,,,,,,,,5eebcc4620cb9a33cd0df72d,61036e083870dce2f2b6664d,2021-07-30_04h12.37.379,Simcolourproject_2stim_asymm_v5,2020.2.10,Win32,60,61025ae37ef11b136ea224fe,,,,,,,,,1439,115,-54,1,0,0,response3disk,,5,-37,11,1,0,0,rectangle,-37,11,1,0,0,-37,11,1,0,0,1,47,207,127,1,,,,,,,,
,,,,,,,,,,,,,FF,,,,,,,,0.9028,,,,,,,,,,,,,,,,,,,,,,5eebcc4620cb9a33cd0df72d,61036e083870dce2f2b6664d,2021-07-30_04h12.37.379,Simcolourproject_2stim_asymm_v5,2020.2.10,Win32,60,61025ae37ef11b136ea224fe,,,,,,,,,3978,-54,-116,1,0,0,response5disk,,3,-7,-13,1,0,0,rectangle,-7,-13,1,0,0,-7,-13,1,0,0,1,48,208,138,1,,,,,,,,
,,,,,,,,,,,,,FF,,,,,,,,0.5834,,,,,,,,,,,,,,,,,,,,,,5eebcc4620cb9a33cd0df72d,61036e083870dce2f2b6664d,2021-07-30_04h12.37.379,Simcolourproject_2stim_asymm_v5,2020.2.10,Win32,60,61025ae37ef11b136ea224fe,,,,,,,,,3082,126,-61,1,0,0,response3disk,,5,27,3,1,0,0,rectangle,27,3,1,0,0,27,3,1,0,0,1,49,209,55,1,,,,,,,,
,,,,,,,,,,,,,FF,,,,,,,,1.4654,,,,,,,,,,,,,,,,,,,,,,5eebcc4620cb9a33cd0df72d,61036e083870dce2f2b6664d,2021-07-30_04h12.37.379,Simcolourproject_2stim_asymm_v5,2020.2.10,Win32,60,61025ae37ef11b136ea224fe,,,,,,,,,3393,-133,-74,1,0,0,response5disk,,2,-18,-6,1,0,0,rectangle,-18,-6,1,0,0,-18,-6,1,0,0,1,50,210,4,1,,,,,,,,
,,,,,,,,,,,,,FF,,,,,,,,0.8539,,,,,,,,,,,,,,,,,,,,,,5eebcc4620cb9a33cd0df72d,61036e083870dce2f2b6664d,2021-07-30_04h12.37.379,Simcolourproject_2stim_asymm_v5,2020.2.10,Win32,60,61025ae37ef11b136ea224fe,,,,,,,,,1168,95,40,1,0,0,response1disk,,6,28,1,1,0,0,rectangle,28,1,1,0,0,28,1,1,0,0,1,51,211,140,1,,,,,,,,
,,,,,,,,,,,,,FF,,,,,,,,1.2989,,,,,,,,,,,,,,,,,,,,,,5eebcc4620cb9a33cd0df72d,61036e083870dce2f2b6664d,2021-07-30_04h12.37.379,Simcolourproject_2stim_asymm_v5,2020.2.10,Win32,60,61025ae37ef11b136ea224fe,,,,,,,,,376,134,-79,1,0,0,response3disk,,5,13,-4,1,0,0,rectangle,13,-4,1,0,0,13,-4,1,0,0,1,52,212,85,1,,,,,,,,
,,,,,,,,,,,,,FF,,,,,,,,0.4859,,,,,,,,,,,,,,,,,,,,,,5eebcc4620cb9a33cd0df72d,61036e083870dce2f2b6664d,2021-07-30_04h12.37.379,Simcolourproject_2stim_asymm_v5,2020.2.10,Win32,60,61025ae37ef11b136ea224fe,,,,,,,,,3681,155,33,1,0,0,response1disk,,6,27,-8,1,0,0,rectangle,27,-8,1,0,0,27,-8,1,0,0,1,53,213,69,1,,,,,,,,
,,,,,,,,,,,,,FF,,,,,,,,0.5,,,,,,,,,,,,,,,,,,,,,,5eebcc4620cb9a33cd0df72d,61036e083870dce2f2b6664d,2021-07-30_04h12.37.379,Simcolourproject_2stim_asymm_v5,2020.2.10,Win32,60,61025ae37ef11b136ea224fe,,,,,,,,,2422,-32,-108,1,0,0,response5disk,,3,-45,-10,1,0,0,rectangle,-45,-10,1,0,0,-45,-10,1,0,0,1,54,214,45,1,,,,,,,,
,,,,,,,,,,,,,FF,,,,,,,,0.3888,,,,,,,,,,,,,,,,,,,,,,5eebcc4620cb9a33cd0df72d,61036e083870dce2f2b6664d,2021-07-30_04h12.37.379,Simcolourproject_2stim_asymm_v5,2020.2.10,Win32,60,61025ae37ef11b136ea224fe,,,,,,,,,2506,124,-82,1,0,0,response3disk,,5,11,2,1,0,0,rectangle,11,2,1,0,0,11,2,1,0,0,1,55,215,116,1,,,,,,,,
,,,,,,,,,,,,,FF,,,,,,,,0.4877,,,,,,,,,,,,,,,,,,,,,,5eebcc4620cb9a33cd0df72d,61036e083870dce2f2b6664d,2021-07-30_04h12.37.379,Simcolourproject_2stim_asymm_v5,2020.2.10,Win32,60,61025ae37ef11b136ea224fe,,,,,,,,,218,60,-108,1,0,0,response3disk,,4,13,-8,1,0,0,rectangle,13,-8,1,0,0,13,-8,1,0,0,1,56,216,57,1,,,,,,,,
,,,,,,,,,,,,,FF,,,,,,,,0.3959,,,,,,,,,,,,,,,,,,,,,,5eebcc4620cb9a33cd0df72d,61036e083870dce2f2b6664d,2021-07-30_04h12.37.379,Simcolourproject_2stim_asymm_v5,2020.2.10,Win32,60,61025ae37ef11b136ea224fe,,,,,,,,,458,80,52,1,0,0,response1disk,,6,-19,8,1,0,0,rectangle,-19,8,1,0,0,-19,8,1,0,0,1,57,217,47,1,,,,,,,,
,,,,,,,,,,,,,FF,,,,,,,,0.5551,,,,,,,,,,,,,,,,,,,,,,5eebcc4620cb9a33cd0df72d,61036e083870dce2f2b6664d,2021-07-30_04h12.37.379,Simcolourproject_2stim_asymm_v5,2020.2.10,Win32,60,61025ae37ef11b136ea224fe,,,,,,,,,773,159,31,1,0,0,response1disk,,6,-16,0,1,0,0,rectangle,-16,0,1,0,0,-16,0,1,0,0,1,58,218,128,1,,,,,,,,
,,,,,,,,,,,,,FF,,,,,,,,0.5557,,,,,,,,,,,,,,,,,,,,,,5eebcc4620cb9a33cd0df72d,61036e083870dce2f2b6664d,2021-07-30_04h12.37.379,Simcolourproject_2stim_asymm_v5,2020.2.10,Win32,60,61025ae37ef11b136ea224fe,,,,,,,,,1012,118,37,1,0,0,response1disk,,6,5,9,1,0,0,rectangle,5,9,1,0,0,5,9,1,0,0,1,59,219,83,1,,,,,,,,
,,,,,,,,,,,,,FF,,,,,,,,0.4514,,,,,,,,,,,,,,,,,,,,,,5eebcc4620cb9a33cd0df72d,61036e083870dce2f2b6664d,2021-07-30_04h12.37.379,Simcolourproject_2stim_asymm_v5,2020.2.10,Win32,60,61025ae37ef11b136ea224fe,,,,,,,,,2757,121,-100,1,0,0,response3disk,,5,8,11,1,0,0,rectangle,8,11,1,0,0,8,11,1,0,0,1,60,220,101,1,,,,,,,,
,,,,,,,,,,,,,FF,,,,,,,,0.9027,,,,,,,,,,,,,,,,,,,,,,5eebcc4620cb9a33cd0df72d,61036e083870dce2f2b6664d,2021-07-30_04h12.37.379,Simcolourproject_2stim_asymm_v5,2020.2.10,Win32,60,61025ae37ef11b136ea224fe,,,,,,,,,854,22,-122,1,0,0,response3disk,,4,5,-4,1,0,0,rectangle,5,-4,1,0,0,5,-4,1,0,0,1,61,221,80,1,,,,,,,,
,,,,,,,,,,,,,FF,,,,,,,,0.5275,,,,,,,,,,,,,,,,,,,,,,5eebcc4620cb9a33cd0df72d,61036e083870dce2f2b6664d,2021-07-30_04h12.37.379,Simcolourproject_2stim_asymm_v5,2020.2.10,Win32,60,61025ae37ef11b136ea224fe,,,,,,,,,4322,113,51,1,0,0,response1disk,,6,39,-4,1,0,0,rectangle,39,-4,1,0,0,39,-4,1,0,0,1,62,222,2,1,,,,,,,,
,,,,,,,,,,,,,FF,,,,,,,,0.733,,,,,,,,,,,,,,,,,,,,,,5eebcc4620cb9a33cd0df72d,61036e083870dce2f2b6664d,2021-07-30_04h12.37.379,Simcolourproject_2stim_asymm_v5,2020.2.10,Win32,60,61025ae37ef11b136ea224fe,,,,,,,,,1165,-82,-133,1,0,0,response5disk,,3,-2,-5,1,0,0,rectangle,-2,-5,1,0,0,-2,-5,1,0,0,1,63,223,64,1,,,,,,,,
,,,,,,,,,,,,,FF,,,,,,,,0.5072,,,,,,,,,,,,,,,,,,,,,,5eebcc4620cb9a33cd0df72d,61036e083870dce2f2b6664d,2021-07-30_04h12.37.379,Simcolourproject_2stim_asymm_v5,2020.2.10,Win32,60,61025ae37ef11b136ea224fe,,,,,,,,,4,71,98,1,0,0,response1disk,,7,19,-10,1,0,0,rectangle,19,-10,1,0,0,19,-10,1,0,0,1,64,224,137,1,,,,,,,,
,,,,,,,,,,,,,FF,,,,,,,,1.3158,,,,,,,,,,,,,,,,,,,,,,5eebcc4620cb9a33cd0df72d,61036e083870dce2f2b6664d,2021-07-30_04h12.37.379,Simcolourproject_2stim_asymm_v5,2020.2.10,Win32,60,61025ae37ef11b136ea224fe,,,,,,,,,3826,-43,-126,1,0,0,response5disk,,3,44,-3,1,0,0,rectangle,44,-3,1,0,0,44,-3,1,0,0,1,65,225,121,1,,,,,,,,
,,,,,,,,,,,,,FF,,,,,,,,0.8094,,,,,,,,,,,,,,,,,,,,,,5eebcc4620cb9a33cd0df72d,61036e083870dce2f2b6664d,2021-07-30_04h12.37.379,Simcolourproject_2stim_asymm_v5,2020.2.10,Win32,60,61025ae37ef11b136ea224fe,,,,,,,,,1474,121,-61,1,0,0,response3disk,,5,7,9,1,0,0,rectangle,7,9,1,0,0,7,9,1,0,0,1,66,226,22,1,,,,,,,,
,,,,,,,,,,,,,FF,,,,,,,,0.7847,,,,,,,,,,,,,,,,,,,,,,5eebcc4620cb9a33cd0df72d,61036e083870dce2f2b6664d,2021-07-30_04h12.37.379,Simcolourproject_2stim_asymm_v5,2020.2.10,Win32,60,61025ae37ef11b136ea224fe,,,,,,,,,2482,-105,-58,1,0,0,response5disk,,2,-24,13,1,0,0,rectangle,-24,13,1,0,0,-24,13,1,0,0,1,67,227,23,1,,,,,,,,
,,,,,,,,,,,,,FF,,,,,,,,0.9722,,,,,,,,,,,,,,,,,,,,,,5eebcc4620cb9a33cd0df72d,61036e083870dce2f2b6664d,2021-07-30_04h12.37.379,Simcolourproject_2stim_asymm_v5,2020.2.10,Win32,60,61025ae37ef11b136ea224fe,,,,,,,,,2313,108,-71,1,0,0,response3disk,,5,33,-7,1,0,0,rectangle,33,-7,1,0,0,33,-7,1,0,0,1,68,228,15,1,,,,,,,,
,,,,,,,,,,,,,FF,,,,,,,,1.014,,,,,,,,,,,,,,,,,,,,,,5eebcc4620cb9a33cd0df72d,61036e083870dce2f2b6664d,2021-07-30_04h12.37.379,Simcolourproject_2stim_asymm_v5,2020.2.10,Win32,60,61025ae37ef11b136ea224fe,,,,,,,,,1031,134,-57,1,0,0,response3disk,,5,19,-7,1,0,0,rectangle,19,-7,1,0,0,19,-7,1,0,0,1,69,229,109,1,,,,,,,,
,,,,,,,,,,,,,FF,,,,,,,,1.66,,,,,,,,,,,,,,,,,,,,,,5eebcc4620cb9a33cd0df72d,61036e083870dce2f2b6664d,2021-07-30_04h12.37.379,Simcolourproject_2stim_asymm_v5,2020.2.10,Win32,60,61025ae37ef11b136ea224fe,,,,,,,,,4082,145,-36,1,0,0,response3disk,,5,-8,-12,1,0,0,rectangle,-8,-12,1,0,0,-8,-12,1,0,0,1,70,230,124,1,,,,,,,,
,,,,,,,,,,,,,FF,,,,,,,,1.1111,,,,,,,,,,,,,,,,,,,,,,5eebcc4620cb9a33cd0df72d,61036e083870dce2f2b6664d,2021-07-30_04h12.37.379,Simcolourproject_2stim_asymm_v5,2020.2.10,Win32,60,61025ae37ef11b136ea224fe,,,,,,,,,4219,-51,-104,1,0,0,response5disk,,3,-25,13,1,0,0,rectangle,-25,13,1,0,0,-25,13,1,0,0,1,71,231,78,1,,,,,,,,
,,,,,,,,,,,,,FF,,,,,,,,0.9719,,,,,,,,,,,,,,,,,,,,,,5eebcc4620cb9a33cd0df72d,61036e083870dce2f2b6664d,2021-07-30_04h12.37.379,Simcolourproject_2stim_asymm_v5,2020.2.10,Win32,60,61025ae37ef11b136ea224fe,,,,,,,,,2872,57,-141,1,0,0,response3disk,,4,28,-8,1,0,0,rectangle,28,-8,1,0,0,28,-8,1,0,0,1,72,232,43,1,,,,,,,,
,,,,,,,,,,,,,FF,,,,,,,,1.156,,,,,,,,,,,,,,,,,,,,,,5eebcc4620cb9a33cd0df72d,61036e083870dce2f2b6664d,2021-07-30_04h12.37.379,Simcolourproject_2stim_asymm_v5,2020.2.10,Win32,60,61025ae37ef11b136ea224fe,,,,,,,,,860,112,-82,1,0,0,response3disk,,5,-2,-6,1,0,0,rectangle,-2,-6,1,0,0,-2,-6,1,0,0,1,73,233,7,1,,,,,,,,
,,,,,,,,,,,,,FF,,,,,,,,0.8612,,,,,,,,,,,,,,,,,,,,,,5eebcc4620cb9a33cd0df72d,61036e083870dce2f2b6664d,2021-07-30_04h12.37.379,Simcolourproject_2stim_asymm_v5,2020.2.10,Win32,60,61025ae37ef11b136ea224fe,,,,,,,,,181,113,42,1,0,0,response1disk,,6,-6,-3,1,0,0,rectangle,-6,-3,1,0,0,-6,-3,1,0,0,1,74,234,89,1,,,,,,,,
,,,,,,,,,,,,,FF,,,,,,,,0.9029,,,,,,,,,,,,,,,,,,,,,,5eebcc4620cb9a33cd0df72d,61036e083870dce2f2b6664d,2021-07-30_04h12.37.379,Simcolourproject_2stim_asymm_v5,2020.2.10,Win32,60,61025ae37ef11b136ea224fe,,,,,,,,,3441,-127,-58,1,0,0,response5disk,,2,-27,-1,1,0,0,rectangle,-27,-1,1,0,0,-27,-1,1,0,0,1,75,235,91,1,,,,,,,,
,,,,,,,,,,,,,FF,,,,,,,,1.1248,,,,,,,,,,,,,,,,,,,,,,5eebcc4620cb9a33cd0df72d,61036e083870dce2f2b6664d,2021-07-30_04h12.37.379,Simcolourproject_2stim_asymm_v5,2020.2.10,Win32,60,61025ae37ef11b136ea224fe,,,,,,,,,2788,90,32,1,0,0,response1disk,,6,-2,3,1,0,0,rectangle,-2,3,1,0,0,-2,3,1,0,0,1,76,236,104,1,,,,,,,,
,,,,,,,,,,,,,FF,,,,,,,,0.8746,,,,,,,,,,,,,,,,,,,,,,5eebcc4620cb9a33cd0df72d,61036e083870dce2f2b6664d,2021-07-30_04h12.37.379,Simcolourproject_2stim_asymm_v5,2020.2.10,Win32,60,61025ae37ef11b136ea224fe,,,,,,,,,963,117,-61,1,0,0,response3disk,,5,17,-12,1,0,0,rectangle,17,-12,1,0,0,17,-12,1,0,0,1,77,237,107,1,,,,,,,,
,,,,,,,,,,,,,FF,,,,,,,,1.0903,,,,,,,,,,,,,,,,,,,,,,5eebcc4620cb9a33cd0df72d,61036e083870dce2f2b6664d,2021-07-30_04h12.37.379,Simcolourproject_2stim_asymm_v5,2020.2.10,Win32,60,61025ae37ef11b136ea224fe,,,,,,,,,3762,97,-39,1,0,0,response3disk,,5,14,4,1,0,0,rectangle,14,4,1,0,0,14,4,1,0,0,1,78,238,67,1,,,,,,,,
,,,,,,,,,,,,,FF,,,,,,,,0.7918,,,,,,,,,,,,,,,,,,,,,,5eebcc4620cb9a33cd0df72d,61036e083870dce2f2b6664d,2021-07-30_04h12.37.379,Simcolourproject_2stim_asymm_v5,2020.2.10,Win32,60,61025ae37ef11b136ea224fe,,,,,,,,,1661,42,86,1,0,0,response1disk,,7,12,-5,1,0,0,rectangle,-38,-153,1,0,0,41,14,1,0,0,1,79,239,5,1,,response5disk_3,TRUE,3,3,"[15,279,143,187,127,168,125,240,261,204,275,126,61,130,104,96,47,26,17,317]",1.549,rectangle
,,,,,,,,,,,,,FF,,,,,,,,0.865,,,,,,,,,,,,,,,,,,,,,,5eebcc4620cb9a33cd0df72d,61036e083870dce2f2b6664d,2021-07-30_04h12.37.379,Simcolourproject_2stim_asymm_v5,2020.2.10,Win32,60,61025ae37ef11b136ea224fe,,,,,,,,,4258,-59,-164,1,0,0,response5disk,,3,-2,-11,1,0,0,rectangle,-2,-11,1,0,0,-2,-11,1,0,0,1,80,240,131,1,,,,,,,,
,,,,,,,,,,,,,FF,,,,,,,,0.476,,,,,,,,,,,,,,,,,,,,,,5eebcc4620cb9a33cd0df72d,61036e083870dce2f2b6664d,2021-07-30_04h12.37.379,Simcolourproject_2stim_asymm_v5,2020.2.10,Win32,60,61025ae37ef11b136ea224fe,,,,,,,,,1629,119,-98,1,0,0,response3disk,,5,-6,6,1,0,0,rectangle,-6,6,1,0,0,-6,6,1,0,0,1,81,241,102,1,,,,,,,,
,,,,,,,,,,,,,FF,,,,,,,,0.4411,,,,,,,,,,,,,,,,,,,,,,5eebcc4620cb9a33cd0df72d,61036e083870dce2f2b6664d,2021-07-30_04h12.37.379,Simcolourproject_2stim_asymm_v5,2020.2.10,Win32,60,61025ae37ef11b136ea224fe,,,,,,,,,2495,-129,-59,1,0,0,response5disk,,2,-5,-8,1,0,0,rectangle,-5,-8,1,0,0,-5,-8,1,0,0,1,82,242,17,1,,,,,,,,
,,,,,,,,,,,,,FF,,,,,,,,0.6523,,,,,,,,,,,,,,,,,,,,,,5eebcc4620cb9a33cd0df72d,61036e083870dce2f2b6664d,2021-07-30_04h12.37.379,Simcolourproject_2stim_asymm_v5,2020.2.10,Win32,60,61025ae37ef11b136ea224fe,,,,,,,,,511,93,42,1,0,0,response1disk,,6,-6,-9,1,0,0,rectangle,-6,-9,1,0,0,-6,-9,1,0,0,1,83,243,39,1,,,,,,,,
,,,,,,,,,,,,,FF,,,,,,,,0.5833,,,,,,,,,,,,,,,,,,,,,,5eebcc4620cb9a33cd0df72d,61036e083870dce2f2b6664d,2021-07-30_04h12.37.379,Simcolourproject_2stim_asymm_v5,2020.2.10,Win32,60,61025ae37ef11b136ea224fe,,,,,,,,,2043,144,-83,1,0,0,response3disk,,5,29,1,1,0,0,rectangle,29,1,1,0,0,29,1,1,0,0,1,84,244,19,1,,,,,,,,
,,,,,,,,,,,,,FF,,,,,,,,0.587,,,,,,,,,,,,,,,,,,,,,,5eebcc4620cb9a33cd0df72d,61036e083870dce2f2b6664d,2021-07-30_04h12.37.379,Simcolourproject_2stim_asymm_v5,2020.2.10,Win32,60,61025ae37ef11b136ea224fe,,,,,,,,,1994,46,-76,1,0,0,response3disk,,4,7,1,1,0,0,rectangle,7,1,1,0,0,7,1,1,0,0,1,85,245,76,1,,,,,,,,
,,,,,,,,,,,,,FF,,,,,,,,0.5346,,,,,,,,,,,,,,,,,,,,,,5eebcc4620cb9a33cd0df72d,61036e083870dce2f2b6664d,2021-07-30_04h12.37.379,Simcolourproject_2stim_asymm_v5,2020.2.10,Win32,60,61025ae37ef11b136ea224fe,,,,,,,,,3180,104,-35,1,0,0,response3disk,,5,40,-5,1,0,0,rectangle,40,-5,1,0,0,40,-5,1,0,0,1,86,246,159,1,,,,,,,,
,,,,,,,,,,,,,FF,,,,,,,,0.7988,,,,,,,,,,,,,,,,,,,,,,5eebcc4620cb9a33cd0df72d,61036e083870dce2f2b6664d,2021-07-30_04h12.37.379,Simcolourproject_2stim_asymm_v5,2020.2.10,Win32,60,61025ae37ef11b136ea224fe,,,,,,,,,2559,104,49,1,0,0,response1disk,,6,-22,3,1,0,0,rectangle,-22,3,1,0,0,-22,3,1,0,0,1,87,247,129,1,,,,,,,,
,,,,,,,,,,,,,FF,,,,,,,,0.9694,,,,,,,,,,,,,,,,,,,,,,5eebcc4620cb9a33cd0df72d,61036e083870dce2f2b6664d,2021-07-30_04h12.37.379,Simcolourproject_2stim_asymm_v5,2020.2.10,Win32,60,61025ae37ef11b136ea224fe,,,,,,,,,2995,-44,-130,1,0,0,response5disk,,3,24,-3,1,0,0,rectangle,24,-3,1,0,0,24,-3,1,0,0,1,88,248,114,1,,,,,,,,
,,,,,,,,,,,,,FF,,,,,,,,0.6355,,,,,,,,,,,,,,,,,,,,,,5eebcc4620cb9a33cd0df72d,61036e083870dce2f2b6664d,2021-07-30_04h12.37.379,Simcolourproject_2stim_asymm_v5,2020.2.10,Win32,60,61025ae37ef11b136ea224fe,,,,,,,,,4286,-41,-130,1,0,0,response5disk,,3,-6,-7,1,0,0,rectangle,-6,-7,1,0,0,-6,-7,1,0,0,1,89,249,157,1,,,,,,,,
,,,,,,,,,,,,,FF,,,,,,,,0.7435,,,,,,,,,,,,,,,,,,,,,,5eebcc4620cb9a33cd0df72d,61036e083870dce2f2b6664d,2021-07-30_04h12.37.379,Simcolourproject_2stim_asymm_v5,2020.2.10,Win32,60,61025ae37ef11b136ea224fe,,,,,,,,,1059,-49,-155,1,0,0,response5disk,,3,11,7,1,0,0,rectangle,11,7,1,0,0,11,7,1,0,0,1,90,250,27,1,,,,,,,,
,,,,,,,,,,,,,FF,,,,,,,,0.6325,,,,,,,,,,,,,,,,,,,,,,5eebcc4620cb9a33cd0df72d,61036e083870dce2f2b6664d,2021-07-30_04h12.37.379,Simcolourproject_2stim_asymm_v5,2020.2.10,Win32,60,61025ae37ef11b136ea224fe,,,,,,,,,1800,50,-118,1,0,0,response3disk,,4,-1,-15,1,0,0,rectangle,-1,-15,1,0,0,-1,-15,1,0,0,1,91,251,6,1,,,,,,,,
,,,,,,,,,,,,,FF,,,,,,,,0.5559,,,,,,,,,,,,,,,,,,,,,,5eebcc4620cb9a33cd0df72d,61036e083870dce2f2b6664d,2021-07-30_04h12.37.379,Simcolourproject_2stim_asymm_v5,2020.2.10,Win32,60,61025ae37ef11b136ea224fe,,,,,,,,,1850,-65,-138,1,0,0,response5disk,,3,-34,1,1,0,0,rectangle,-34,1,1,0,0,-34,1,1,0,0,1,92,252,81,1,,,,,,,,
,,,,,,,,,,,,,FF,,,,,,,,0.4233,,,,,,,,,,,,,,,,,,,,,,5eebcc4620cb9a33cd0df72d,61036e083870dce2f2b6664d,2021-07-30_04h12.37.379,Simcolourproject_2stim_asymm_v5,2020.2.10,Win32,60,61025ae37ef11b136ea224fe,,,,,,,,,1746,54,-126,1,0,0,response3disk,,4,-21,7,1,0,0,rectangle,-21,7,1,0,0,-21,7,1,0,0,1,93,253,115,1,,,,,,,,
,,,,,,,,,,,,,FF,,,,,,,,0.9587,,,,,,,,,,,,,,,,,,,,,,5eebcc4620cb9a33cd0df72d,61036e083870dce2f2b6664d,2021-07-30_04h12.37.379,Simcolourproject_2stim_asymm_v5,2020.2.10,Win32,60,61025ae37ef11b136ea224fe,,,,,,,,,4209,76,128,1,0,0,response1disk,,7,41,-12,1,0,0,rectangle,41,-12,1,0,0,41,-12,1,0,0,1,94,254,11,1,,,,,,,,
,,,,,,,,,,,,,FF,,,,,,,,0.5485,,,,,,,,,,,,,,,,,,,,,,5eebcc4620cb9a33cd0df72d,61036e083870dce2f2b6664d,2021-07-30_04h12.37.379,Simcolourproject_2stim_asymm_v5,2020.2.10,Win32,60,61025ae37ef11b136ea224fe,,,,,,,,,627,65,96,1,0,0,response1disk,,7,9,18,1,0,0,rectangle,9,18,1,0,0,9,18,1,0,0,1,95,255,33,1,,,,,,,,
,,,,,,,,,,,,,FF,,,,,,,,0.6877,,,,,,,,,,,,,,,,,,,,,,5eebcc4620cb9a33cd0df72d,61036e083870dce2f2b6664d,2021-07-30_04h12.37.379,Simcolourproject_2stim_asymm_v5,2020.2.10,Win32,60,61025ae37ef11b136ea224fe,,,,,,,,,392,62,-138,1,0,0,response3disk,,4,-18,19,1,0,0,rectangle,-18,19,1,0,0,-18,19,1,0,0,1,96,256,32,1,,,,,,,,
,,,,,,,,,,,,,FF,,,,,,,,0.2704,,,,,,,,,,,,,,,,,,,,,,5eebcc4620cb9a33cd0df72d,61036e083870dce2f2b6664d,2021-07-30_04h12.37.379,Simcolourproject_2stim_asymm_v5,2020.2.10,Win32,60,61025ae37ef11b136ea224fe,,,,,,,,,2952,-25,-111,1,0,0,response5disk,,3,-10,-12,1,0,0,rectangle,-10,-12,1,0,0,-10,-12,1,0,0,1,97,257,72,1,,,,,,,,
,,,,,,,,,,,,,FF,,,,,,,,0.6457,,,,,,,,,,,,,,,,,,,,,,5eebcc4620cb9a33cd0df72d,61036e083870dce2f2b6664d,2021-07-30_04h12.37.379,Simcolourproject_2stim_asymm_v5,2020.2.10,Win32,60,61025ae37ef11b136ea224fe,,,,,,,,,1655,89,-42,1,0,0,response3disk,,5,15,16,1,0,0,rectangle,15,16,1,0,0,15,16,1,0,0,1,98,258,59,1,,,,,,,,
,,,,,,,,,,,,,FF,,,,,,,,0.7432,,,,,,,,,,,,,,,,,,,,,,5eebcc4620cb9a33cd0df72d,61036e083870dce2f2b6664d,2021-07-30_04h12.37.379,Simcolourproject_2stim_asymm_v5,2020.2.10,Win32,60,61025ae37ef11b136ea224fe,,,,,,,,,1669,71,102,1,0,0,response1disk,,7,-16,10,1,0,0,rectangle,-16,10,1,0,0,-16,10,1,0,0,1,99,259,51,1,,,,,,,,
,,,,,,,,,,,,,FF,,,,,,,,1.0143,,,,,,,,,,,,,,,,,,,,,,5eebcc4620cb9a33cd0df72d,61036e083870dce2f2b6664d,2021-07-30_04h12.37.379,Simcolourproject_2stim_asymm_v5,2020.2.10,Win32,60,61025ae37ef11b136ea224fe,,,,,,,,,4075,33,-115,1,0,0,response3disk,,4,-2,-4,1,0,0,rectangle,-77,-133,1,0,0,14,0,1,0,0,1,100,260,113,1,,response5disk_3,TRUE,3,3,"[15,279,143,187,127,168,125,240,261,204,275,126,61,130,104,96,47,26,17,317]",2.3994,rectangle
,,,,,,,,,,,,,FF,,,,,,,,0.7578,,,,,,,,,,,,,,,,,,,,,,5eebcc4620cb9a33cd0df72d,61036e083870dce2f2b6664d,2021-07-30_04h12.37.379,Simcolourproject_2stim_asymm_v5,2020.2.10,Win32,60,61025ae37ef11b136ea224fe,,,,,,,,,408,26,-121,1,0,0,response3disk,,4,-24,-10,1,0,0,rectangle,-24,-10,1,0,0,-24,-10,1,0,0,1,101,261,92,1,,,,,,,,
,,,,,,,,,,,,,FF,,,,,,,,0.4065,,,,,,,,,,,,,,,,,,,,,,5eebcc4620cb9a33cd0df72d,61036e083870dce2f2b6664d,2021-07-30_04h12.37.379,Simcolourproject_2stim_asymm_v5,2020.2.10,Win32,60,61025ae37ef11b136ea224fe,,,,,,,,,3127,-41,-127,1,0,0,response5disk,,3,-15,-6,1,0,0,rectangle,-15,-6,1,0,0,-15,-6,1,0,0,1,102,262,99,1,,,,,,,,
,,,,,,,,,,,,,FF,,,,,,,,1.292,,,,,,,,,,,,,,,,,,,,,,5eebcc4620cb9a33cd0df72d,61036e083870dce2f2b6664d,2021-07-30_04h12.37.379,Simcolourproject_2stim_asymm_v5,2020.2.10,Win32,60,61025ae37ef11b136ea224fe,,,,,,,,,3979,60,-128,1,0,0,response3disk,,4,-14,2,1,0,0,rectangle,-14,2,1,0,0,-14,2,1,0,0,1,103,263,8,1,,,,,,,,
,,,,,,,,,,,,,FF,,,,,,,,0.7365,,,,,,,,,,,,,,,,,,,,,,5eebcc4620cb9a33cd0df72d,61036e083870dce2f2b6664d,2021-07-30_04h12.37.379,Simcolourproject_2stim_asymm_v5,2020.2.10,Win32,60,61025ae37ef11b136ea224fe,,,,,,,,,4140,-41,132,1,0,0,response7disk,,0,16,9,1,0,0,rectangle,16,9,1,0,0,16,9,1,0,0,1,104,264,71,1,,,,,,,,
,,,,,,,,,,,,,FF,,,,,,,,1.4097,,,,,,,,,,,,,,,,,,,,,,5eebcc4620cb9a33cd0df72d,61036e083870dce2f2b6664d,2021-07-30_04h12.37.379,Simcolourproject_2stim_asymm_v5,2020.2.10,Win32,60,61025ae37ef11b136ea224fe,,,,,,,,,3107,-85,-54,1,0,0,response5disk,,2,-20,7,1,0,0,rectangle,-20,7,1,0,0,-20,7,1,0,0,1,105,265,48,1,,,,,,,,
,,,,,,,,,,,,,FF,,,,,,,,1.0144,,,,,,,,,,,,,,,,,,,,,,5eebcc4620cb9a33cd0df72d,61036e083870dce2f2b6664d,2021-07-30_04h12.37.379,Simcolourproject_2stim_asymm_v5,2020.2.10,Win32,60,61025ae37ef11b136ea224fe,,,,,,,,,669,81,-116,1,0,0,response3disk,,4,17,-1,1,0,0,rectangle,17,-1,1,0,0,17,-1,1,0,0,1,106,266,73,1,,,,,,,,
,,,,,,,,,,,,,FF,,,,,,,,1.3304,,,,,,,,,,,,,,,,,,,,,,5eebcc4620cb9a33cd0df72d,61036e083870dce2f2b6664d,2021-07-30_04h12.37.379,Simcolourproject_2stim_asymm_v5,2020.2.10,Win32,60,61025ae37ef11b136ea224fe,,,,,,,,,4154,85,-99,1,0,0,response3disk,,4,9,0,1,0,0,rectangle,9,0,1,0,0,9,0,1,0,0,1,107,267,37,1,,,,,,,,
,,,,,,,,,,,,,FF,,,,,,,,0.729,,,,,,,,,,,,,,,,,,,,,,5eebcc4620cb9a33cd0df72d,61036e083870dce2f2b6664d,2021-07-30_04h12.37.379,Simcolourproject_2stim_asymm_v5,2020.2.10,Win32,60,61025ae37ef11b136ea224fe,,,,,,,,,993,89,44,1,0,0,response1disk,,6,-5,11,1,0,0,rectangle,-5,11,1,0,0,-5,11,1,0,0,1,108,268,52,1,,,,,,,,
,,,,,,,,,,,,,FF,,,,,,,,0.5001,,,,,,,,,,,,,,,,,,,,,,5eebcc4620cb9a33cd0df72d,61036e083870dce2f2b6664d,2021-07-30_04h12.37.379,Simcolourproject_2stim_asymm_v5,2020.2.10,Win32,60,61025ae37ef11b136ea224fe,,,,,,,,,3086,23,74,1,0,0,response1disk,,7,1,-11,1,0,0,rectangle,1,-11,1,0,0,1,-11,1,0,0,1,109,269,9,1,,,,,,,,
,,,,,,,,,,,,,FF,,,,,,,,0.396,,,,,,,,,,,,,,,,,,,,,,5eebcc4620cb9a33cd0df72d,61036e083870dce2f2b6664d,2021-07-30_04h12.37.379,Simcolourproject_2stim_asymm_v5,2020.2.10,Win32,60,61025ae37ef11b136ea224fe,,,,,,,,,2411,-39,-117,1,0,0,response5disk,,3,-11,-14,1,0,0,rectangle,-11,-14,1,0,0,-11,-14,1,0,0,1,110,270,117,1,,,,,,,,
,,,,,,,,,,,,,FF,,,,,,,,0.5314,,,,,,,,,,,,,,,,,,,,,,5eebcc4620cb9a33cd0df72d,61036e083870dce2f2b6664d,2021-07-30_04h12.37.379,Simcolourproject_2stim_asymm_v5,2020.2.10,Win32,60,61025ae37ef11b136ea224fe,,,,,,,,,1414,-25,-74,1,0,0,response5disk,,3,28,-12,1,0,0,rectangle,28,-12,1,0,0,28,-12,1,0,0,1,111,271,147,1,,,,,,,,
,,,,,,,,,,,,,FF,,,,,,,,0.4376,,,,,,,,,,,,,,,,,,,,,,5eebcc4620cb9a33cd0df72d,61036e083870dce2f2b6664d,2021-07-30_04h12.37.379,Simcolourproject_2stim_asymm_v5,2020.2.10,Win32,60,61025ae37ef11b136ea224fe,,,,,,,,,729,-31,-136,1,0,0,response5disk,,3,5,-7,1,0,0,rectangle,5,-7,1,0,0,5,-7,1,0,0,1,112,272,118,1,,,,,,,,
,,,,,,,,,,,,,FF,,,,,,,,1.042,,,,,,,,,,,,,,,,,,,,,,5eebcc4620cb9a33cd0df72d,61036e083870dce2f2b6664d,2021-07-30_04h12.37.379,Simcolourproject_2stim_asymm_v5,2020.2.10,Win32,60,61025ae37ef11b136ea224fe,,,,,,,,,3904,70,-122,1,0,0,response3disk,,4,35,-12,1,0,0,rectangle,35,-12,1,0,0,35,-12,1,0,0,1,113,273,35,1,,,,,,,,
,,,,,,,,,,,,,FF,,,,,,,,0.8304,,,,,,,,,,,,,,,,,,,,,,5eebcc4620cb9a33cd0df72d,61036e083870dce2f2b6664d,2021-07-30_04h12.37.379,Simcolourproject_2stim_asymm_v5,2020.2.10,Win32,60,61025ae37ef11b136ea224fe,,,,,,,,,2112,128,-62,1,0,0,response3disk,,5,2,-14,1,0,0,rectangle,-53,119,1,0,0,2,-9,1,0,0,1,114,274,132,1,,response7disk_3,TRUE,0,0,"[15,279,143,187,127,168,125,240,261,204,275,126,61,130,104,96,47,26,17,317]",1.8956,rectangle
,,,,,,,,,,,,,FF,,,,,,,,0.8824,,,,,,,,,,,,,,,,,,,,,,5eebcc4620cb9a33cd0df72d,61036e083870dce2f2b6664d,2021-07-30_04h12.37.379,Simcolourproject_2stim_asymm_v5,2020.2.10,Win32,60,61025ae37ef11b136ea224fe,,,,,,,,,1871,139,-31,1,0,0,response3disk,,5,21,11,1,0,0,rectangle,21,11,1,0,0,21,11,1,0,0,1,115,275,120,1,,,,,,,,
,,,,,,,,,,,,,FF,,,,,,,,0.6322,,,,,,,,,,,,,,,,,,,,,,5eebcc4620cb9a33cd0df72d,61036e083870dce2f2b6664d,2021-07-30_04h12.37.379,Simcolourproject_2stim_asymm_v5,2020.2.10,Win32,60,61025ae37ef11b136ea224fe,,,,,,,,,241,52,-136,1,0,0,response3disk,,4,-34,19,1,0,0,rectangle,-34,19,1,0,0,-34,19,1,0,0,1,116,276,111,1,,,,,,,,
,,,,,,,,,,,,,FF,,,,,,,,1.2434,,,,,,,,,,,,,,,,,,,,,,5eebcc4620cb9a33cd0df72d,61036e083870dce2f2b6664d,2021-07-30_04h12.37.379,Simcolourproject_2stim_asymm_v5,2020.2.10,Win32,60,61025ae37ef11b136ea224fe,,,,,,,,,1769,96,-83,1,0,0,response3disk,,5,2,-5,1,0,0,rectangle,2,-5,1,0,0,2,-5,1,0,0,1,117,277,40,1,,,,,,,,
,,,,,,,,,,,,,FF,,,,,,,,56.4121,,,,,,,,,,,,,,,,,,,,,,5eebcc4620cb9a33cd0df72d,61036e083870dce2f2b6664d,2021-07-30_04h12.37.379,Simcolourproject_2stim_asymm_v5,2020.2.10,Win32,60,61025ae37ef11b136ea224fe,,,,,,,,,228,115,-62,1,0,0,response3disk,,5,5,9,1,0,0,rectangle,-98,31,1,0,0,-27,-9,1,0,0,1,118,278,34,1,,response7disk_3,TRUE,1,1,"[15,279,143,187,127,168,125,240,261,204,275,126,61,130,104,96,47,26,17,317]",1.5118,rectangle
,,,,,,,,,,,,,FF,,,,,,,,1.1462,,,,,,,,,,,,,,,,,,,,,,5eebcc4620cb9a33cd0df72d,61036e083870dce2f2b6664d,2021-07-30_04h12.37.379,Simcolourproject_2stim_asymm_v5,2020.2.10,Win32,60,61025ae37ef11b136ea224fe,,,,,,,,,2019,-25,-138,1,0,0,response5disk,,3,30,-18,1,0,0,rectangle,30,-18,1,0,0,30,-18,1,0,0,1,119,279,13,1,,,,,,,,
,,,,,,,,,,,,,FF,,,,,,,,0.7817,,,,,,,,,,,,,,,,,,,,,,5eebcc4620cb9a33cd0df72d,61036e083870dce2f2b6664d,2021-07-30_04h12.37.379,Simcolourproject_2stim_asymm_v5,2020.2.10,Win32,60,61025ae37ef11b136ea224fe,,,,,,,,,643,-29,-104,1,0,0,response5disk,,3,6,-17,1,0,0,rectangle,6,-17,1,0,0,6,-17,1,0,0,1,120,280,84,1,,,,,,,,
,,,,,,,,,,,,,FF,,,,,,,,1.2781,,,,,,,,,,,,,,,,,,,,,,5eebcc4620cb9a33cd0df72d,61036e083870dce2f2b6664d,2021-07-30_04h12.37.379,Simcolourproject_2stim_asymm_v5,2020.2.10,Win32,60,61025ae37ef11b136ea224fe,,,,,,,,,1827,-124,-44,1,0,0,response5disk,,2,-12,16,1,0,0,rectangle,-12,16,1,0,0,-12,16,1,0,0,1,121,281,49,1,,,,,,,,
,,,,,,,,,,,,,FF,,,,,,,,0.7952,,,,,,,,,,,,,,,,,,,,,,5eebcc4620cb9a33cd0df72d,61036e083870dce2f2b6664d,2021-07-30_04h12.37.379,Simcolourproject_2stim_asymm_v5,2020.2.10,Win32,60,61025ae37ef11b136ea224fe,,,,,,,,,200,99,-137,1,0,0,response3disk,,4,32,-12,1,0,0,rectangle,32,-12,1,0,0,32,-12,1,0,0,1,122,282,41,1,,,,,,,,
,,,,,,,,,,,,,FF,,,,,,,,1.0973,,,,,,,,,,,,,,,,,,,,,,5eebcc4620cb9a33cd0df72d,61036e083870dce2f2b6664d,2021-07-30_04h12.37.379,Simcolourproject_2stim_asymm_v5,2020.2.10,Win32,60,61025ae37ef11b136ea224fe,,,,,,,,,2936,-35,-104,1,0,0,response5disk,,3,-11,9,1,0,0,rectangle,-11,9,1,0,0,-11,9,1,0,0,1,123,283,82,1,,,,,,,,
,,,,,,,,,,,,,FF,,,,,,,,1.1834,,,,,,,,,,,,,,,,,,,,,,5eebcc4620cb9a33cd0df72d,61036e083870dce2f2b6664d,2021-07-30_04h12.37.379,Simcolourproject_2stim_asymm_v5,2020.2.10,Win32,60,61025ae37ef11b136ea224fe,,,,,,,,,300,114,25,1,0,0,response1disk,,6,7,-10,1,0,0,rectangle,7,-10,1,0,0,7,-10,1,0,0,1,124,284,63,1,,,,,,,,
,,,,,,,,,,,,,FF,,,,,,,,0.6808,,,,,,,,,,,,,,,,,,,,,,5eebcc4620cb9a33cd0df72d,61036e083870dce2f2b6664d,2021-07-30_04h12.37.379,Simcolourproject_2stim_asymm_v5,2020.2.10,Win32,60,61025ae37ef11b136ea224fe,,,,,,,,,3510,-39,111,1,0,0,response7disk,,0,-6,4,1,0,0,rectangle,-6,4,1,0,0,-6,4,1,0,0,1,125,285,122,1,,,,,,,,
,,,,,,,,,,,,,FF,,,,,,,,0.8682,,,,,,,,,,,,,,,,,,,,,,5eebcc4620cb9a33cd0df72d,61036e083870dce2f2b6664d,2021-07-30_04h12.37.379,Simcolourproject_2stim_asymm_v5,2020.2.10,Win32,60,61025ae37ef11b136ea224fe,,,,,,,,,3519,-79,43,1,0,0,response7disk,,1,27,3,1,0,0,rectangle,27,3,1,0,0,27,3,1,0,0,1,126,286,144,1,,,,,,,,
,,,,,,,,,,,,,FF,,,,,,,,0.9859,,,,,,,,,,,,,,,,,,,,,,5eebcc4620cb9a33cd0df72d,61036e083870dce2f2b6664d,2021-07-30_04h12.37.379,Simcolourproject_2stim_asymm_v5,2020.2.10,Win32,60,61025ae37ef11b136ea224fe,,,,,,,,,4005,-125,-70,1,0,0,response5disk,,2,28,6,1,0,0,rectangle,28,6,1,0,0,28,6,1,0,0,1,127,287,103,1,,,,,,,,
,,,,,,,,,,,,,FF,,,,,,,,0.7884,,,,,,,,,,,,,,,,,,,,,,5eebcc4620cb9a33cd0df72d,61036e083870dce2f2b6664d,2021-07-30_04h12.37.379,Simcolourproject_2stim_asymm_v5,2020.2.10,Win32,60,61025ae37ef11b136ea224fe,,,,,,,,,3227,141,-56,1,0,0,response3disk,,5,24,0,1,0,0,rectangle,24,0,1,0,0,24,0,1,0,0,1,128,288,62,1,,,,,,,,
,,,,,,,,,,,,,FF,,,,,,,,1.2466,,,,,,,,,,,,,,,,,,,,,,5eebcc4620cb9a33cd0df72d,61036e083870dce2f2b6664d,2021-07-30_04h12.37.379,Simcolourproject_2stim_asymm_v5,2020.2.10,Win32,60,61025ae37ef11b136ea224fe,,,,,,,,,621,-46,-115,1,0,0,response5disk,,3,27,0,1,0,0,rectangle,27,0,1,0,0,27,0,1,0,0,1,129,289,20,1,,,,,,,,
,,,,,,,,,,,,,FF,,,,,,,,0.9448,,,,,,,,,,,,,,,,,,,,,,5eebcc4620cb9a33cd0df72d,61036e083870dce2f2b6664d,2021-07-30_04h12.37.379,Simcolourproject_2stim_asymm_v5,2020.2.10,Win32,60,61025ae37ef11b136ea224fe,,,,,,,,,2064,-61,-123,1,0,0,response5disk,,3,-12,-6,1,0,0,rectangle,-12,-6,1,0,0,-12,-6,1,0,0,1,130,290,42,1,,,,,,,,
,,,,,,,,,,,,,FF,,,,,,,,1.434,,,,,,,,,,,,,,,,,,,,,,5eebcc4620cb9a33cd0df72d,61036e083870dce2f2b6664d,2021-07-30_04h12.37.379,Simcolourproject_2stim_asymm_v5,2020.2.10,Win32,60,61025ae37ef11b136ea224fe,,,,,,,,,2075,139,-61,1,0,0,response3disk,,5,15,-3,1,0,0,rectangle,15,-3,1,0,0,15,-3,1,0,0,1,131,291,38,1,,,,,,,,
,,,,,,,,,,,,,FF,,,,,,,,0.9308,,,,,,,,,,,,,,,,,,,,,,5eebcc4620cb9a33cd0df72d,61036e083870dce2f2b6664d,2021-07-30_04h12.37.379,Simcolourproject_2stim_asymm_v5,2020.2.10,Win32,60,61025ae37ef11b136ea224fe,,,,,,,,,4087,-41,-117,1,0,0,response5disk,,3,2,-2,1,0,0,rectangle,2,-2,1,0,0,2,-2,1,0,0,1,132,292,24,1,,,,,,,,
,,,,,,,,,,,,,FF,,,,,,,,1.3893,,,,,,,,,,,,,,,,,,,,,,5eebcc4620cb9a33cd0df72d,61036e083870dce2f2b6664d,2021-07-30_04h12.37.379,Simcolourproject_2stim_asymm_v5,2020.2.10,Win32,60,61025ae37ef11b136ea224fe,,,,,,,,,3187,-90,-48,1,0,0,response5disk,,2,7,2,1,0,0,rectangle,7,2,1,0,0,7,2,1,0,0,1,133,293,143,1,,,,,,,,
,,,,,,,,,,,,,FF,,,,,,,,1.6047,,,,,,,,,,,,,,,,,,,,,,5eebcc4620cb9a33cd0df72d,61036e083870dce2f2b6664d,2021-07-30_04h12.37.379,Simcolourproject_2stim_asymm_v5,2020.2.10,Win32,60,61025ae37ef11b136ea224fe,,,,,,,,,1190,85,-124,1,0,0,response3disk,,4,34,8,1,0,0,rectangle,34,8,1,0,0,34,8,1,0,0,1,134,294,65,1,,,,,,,,
,,,,,,,,,,,,,FF,,,,,,,,1.5009,,,,,,,,,,,,,,,,,,,,,,5eebcc4620cb9a33cd0df72d,61036e083870dce2f2b6664d,2021-07-30_04h12.37.379,Simcolourproject_2stim_asymm_v5,2020.2.10,Win32,60,61025ae37ef11b136ea224fe,,,,,,,,,3693,106,-60,1,0,0,response3disk,,5,-27,-4,1,0,0,rectangle,-27,-4,1,0,0,-27,-4,1,0,0,1,135,295,90,1,,,,,,,,
,,,,,,,,,,,,,FF,,,,,,,,0.7535,,,,,,,,,,,,,,,,,,,,,,5eebcc4620cb9a33cd0df72d,61036e083870dce2f2b6664d,2021-07-30_04h12.37.379,Simcolourproject_2stim_asymm_v5,2020.2.10,Win32,60,61025ae37ef11b136ea224fe,,,,,,,,,247,150,53,1,0,0,response1disk,,6,-3,-8,1,0,0,rectangle,-3,-8,1,0,0,-3,-8,1,0,0,1,136,296,31,1,,,,,,,,
,,,,,,,,,,,,,FF,,,,,,,,1.2847,,,,,,,,,,,,,,,,,,,,,,5eebcc4620cb9a33cd0df72d,61036e083870dce2f2b6664d,2021-07-30_04h12.37.379,Simcolourproject_2stim_asymm_v5,2020.2.10,Win32,60,61025ae37ef11b136ea224fe,,,,,,,,,2635,96,23,1,0,0,response1disk,,6,5,-1,1,0,0,rectangle,5,-1,1,0,0,5,-1,1,0,0,1,137,297,136,1,,,,,,,,
,,,,,,,,,,,,,FF,,,,,,,,1.3407,,,,,,,,,,,,,,,,,,,,,,5eebcc4620cb9a33cd0df72d,61036e083870dce2f2b6664d,2021-07-30_04h12.37.379,Simcolourproject_2stim_asymm_v5,2020.2.10,Win32,60,61025ae37ef11b136ea224fe,,,,,,,,,1618,-51,-117,1,0,0,response5disk,,3,23,-3,1,0,0,rectangle,23,-3,1,0,0,23,-3,1,0,0,1,138,298,94,1,,,,,,,,
,,,,,,,,,,,,,FF,,,,,,,,0.8122,,,,,,,,,,,,,,,,,,,,,,5eebcc4620cb9a33cd0df72d,61036e083870dce2f2b6664d,2021-07-30_04h12.37.379,Simcolourproject_2stim_asymm_v5,2020.2.10,Win32,60,61025ae37ef11b136ea224fe,,,,,,,,,708,-100,-45,1,0,0,response5disk,,2,-45,12,1,0,0,rectangle,-45,12,1,0,0,-45,12,1,0,0,1,139,299,93,1,,,,,,,,
