key_resp.keys,key_resp.rt,key_resp_14.keys,key_resp_14.rt,key_resp_15.keys,key_resp_15.rt,key_resp_17.keys,key_resp_17.rt,key_resp_9.keys,key_resp_9.rt,key_resp_10.keys,key_resp_10.rt,practice_comparison,Ecc,mouse_5.x,mouse_5.y,mouse_5.leftButton,mouse_5.midButton,mouse_5.rightButton,mouse_5.clicked_name,pracsimilarity,response_time,mouse_10.x,mouse_10.y,mouse_10.leftButton,mouse_10.midButton,mouse_10.rightButton,mouse_10.clicked_name,mouse_7.x,mouse_7.y,mouse_7.leftButton,mouse_7.midButton,mouse_7.rightButton,mouse_6.x,mouse_6.y,mouse_6.leftButton,mouse_6.midButton,mouse_6.rightButton,duringprac.thisRepN,duringprac.thisTrialN,duringprac.thisN,duringprac.thisIndex,duringprac.ran,participant,session,date,expName,psychopyVersion,OS,frameRate,study_id,mouse_7.clicked_name,catchpracsimilarity,catch_response_time,catchnumberprac,catchtrialorderprac,mouse_6.clicked_name,key_resp_22.keys,key_resp_22.rt,realcomparison,mouse.x,mouse.y,mouse.leftButton,mouse.midButton,mouse.rightButton,mouse.clicked_name,Colour2,similarity,mouse_2.x,mouse_2.y,mouse_2.leftButton,mouse_2.midButton,mouse_2.rightButton,mouse_2.clicked_name,mouse_3.x,mouse_3.y,mouse_3.leftButton,mouse_3.midButton,mouse_3.rightButton,mouse_11.x,mouse_11.y,mouse_11.leftButton,mouse_11.midButton,mouse_11.rightButton,trials_2.thisRepN,trials_2.thisTrialN,trials_2.thisN,trials_2.thisIndex,trials_2.ran,Colour1,mouse_3.clicked_name,catchornah,catchsimilarity,catchnumber,catchtrialorder,catchRT,mouse_11.clicked_name
space,4.0264,space,15.2102,space,27.0844,space,15.8896,space,1.1234,space,4.5656,126,FF,-73,-36.5,1,0,0,response5disk_5,2,3.7207,-6,2.5,1,0,0,rectangle_8,-6,2.5,1,0,0,-6,2.5,1,0,0,0,0,0,3,1,5f4d50ea11a0409f3b8db045,61036e9deff4554e65c63565,2021-07-29_22h18.14.287,Simcolourproject_2stim_asymm_v5,2020.2.10,Win32,60,61025ae37ef11b136ea224fe,,,,,,,,,,,,,,,,,,,,,,,,,,,,,,,,,,,,,,,,,,,,,,
,,,,,,,,,,,,61,PF,47,77.5,1,0,0,response1disk_5,7,11.2023,8,4.5,1,0,0,rectangle_8,-39,-73.5,1,0,0,2,3.5,1,0,0,0,1,1,6,1,5f4d50ea11a0409f3b8db045,61036e9deff4554e65c63565,2021-07-29_22h18.14.287,Simcolourproject_2stim_asymm_v5,2020.2.10,Win32,60,61025ae37ef11b136ea224fe,response5disk_7,3,2.6521,3,"[2,5]",rectangle_4,,,,,,,,,,,,,,,,,,,,,,,,,,,,,,,,,,,,,,,,
,,,,,,,,,,,,45,FF,-37,-65.5,1,0,0,response5disk_5,3,2.4695,5,-2.5,1,0,0,rectangle_8,5,-2.5,1,0,0,5,-2.5,1,0,0,0,2,2,5,1,5f4d50ea11a0409f3b8db045,61036e9deff4554e65c63565,2021-07-29_22h18.14.287,Simcolourproject_2stim_asymm_v5,2020.2.10,Win32,60,61025ae37ef11b136ea224fe,,,,,,,,,,,,,,,,,,,,,,,,,,,,,,,,,,,,,,,,,,,,,,
,,,,,,,,,,,,6,PF,28,85.5,1,0,0,response1disk_5,7,1.3178,4,-0.5,1,0,0,rectangle_8,4,-0.5,1,0,0,4,-0.5,1,0,0,0,3,3,2,1,5f4d50ea11a0409f3b8db045,61036e9deff4554e65c63565,2021-07-29_22h18.14.287,Simcolourproject_2stim_asymm_v5,2020.2.10,Win32,60,61025ae37ef11b136ea224fe,,,,,,,,,,,,,,,,,,,,,,,,,,,,,,,,,,,,,,,,,,,,,,
,,,,,,,,,,,,0,PF,41,-68.5,1,0,0,response3disk_5,4,2.2351,15,3.5,1,0,0,rectangle_8,-34,-83.5,1,0,0,10,2.5,1,0,0,0,4,4,4,1,5f4d50ea11a0409f3b8db045,61036e9deff4554e65c63565,2021-07-29_22h18.14.287,Simcolourproject_2stim_asymm_v5,2020.2.10,Win32,60,61025ae37ef11b136ea224fe,response5disk_7,3,4.1503,3,"[2,5]",rectangle_4,,,,,,,,,,,,,,,,,,,,,,,,,,,,,,,,,,,,,,,,
,,,,,,,,,,,,79,PF,87,-57.5,1,0,0,response3disk_5,5,2.2456,1,5.5,1,0,0,rectangle_8,1,5.5,1,0,0,1,5.5,1,0,0,0,5,5,1,1,5f4d50ea11a0409f3b8db045,61036e9deff4554e65c63565,2021-07-29_22h18.14.287,Simcolourproject_2stim_asymm_v5,2020.2.10,Win32,60,61025ae37ef11b136ea224fe,,,,,,,,,,,,,,,,,,,,,,,,,,,,,,,,,,,,,,,,,,,,,,
,,,,,,,,,,,,77,FF,-47,-78.5,1,0,0,response5disk_5,3,3.1666,3,0.5,1,0,0,rectangle_8,3,0.5,1,0,0,3,0.5,1,0,0,0,6,6,0,1,5f4d50ea11a0409f3b8db045,61036e9deff4554e65c63565,2021-07-29_22h18.14.287,Simcolourproject_2stim_asymm_v5,2020.2.10,Win32,60,61025ae37ef11b136ea224fe,,,,,,,,,,,,,,,,,,,,,,,,,,,,,,,,,,,,,,,,,,,,,,
,,,,,,,,,,,,,FF,,,,,,,,2.2919,,,,,,,,,,,,,,,,,,,,,,5f4d50ea11a0409f3b8db045,61036e9deff4554e65c63565,2021-07-29_22h18.14.287,Simcolourproject_2stim_asymm_v5,2020.2.10,Win32,60,61025ae37ef11b136ea224fe,,,,,,,space,27.328,339,40,-63.5,1,0,0,response3disk,,4,10,0.5,1,0,0,rectangle,10,0.5,1,0,0,10,0.5,1,0,0,0,0,0,66,1,,,,,,,,
,,,,,,,,,,,,,FF,,,,,,,,2.1675,,,,,,,,,,,,,,,,,,,,,,5f4d50ea11a0409f3b8db045,61036e9deff4554e65c63565,2021-07-29_22h18.14.287,Simcolourproject_2stim_asymm_v5,2020.2.10,Win32,60,61025ae37ef11b136ea224fe,,,,,,,,,1182,-48,-58.5,1,0,0,response5disk,,3,0,-4.5,1,0,0,rectangle,0,-4.5,1,0,0,0,-4.5,1,0,0,0,1,1,126,1,,,,,,,,
,,,,,,,,,,,,,FF,,,,,,,,2.0357,,,,,,,,,,,,,,,,,,,,,,5f4d50ea11a0409f3b8db045,61036e9deff4554e65c63565,2021-07-29_22h18.14.287,Simcolourproject_2stim_asymm_v5,2020.2.10,Win32,60,61025ae37ef11b136ea224fe,,,,,,,,,2502,-50,-78.5,1,0,0,response5disk,,3,3,-2.5,1,0,0,rectangle,3,-2.5,1,0,0,3,-2.5,1,0,0,0,2,2,61,1,,,,,,,,
,,,,,,,,,,,,,FF,,,,,,,,1.6681,,,,,,,,,,,,,,,,,,,,,,5f4d50ea11a0409f3b8db045,61036e9deff4554e65c63565,2021-07-29_22h18.14.287,Simcolourproject_2stim_asymm_v5,2020.2.10,Win32,60,61025ae37ef11b136ea224fe,,,,,,,,,2950,-73,-44.5,1,0,0,response5disk,,2,5,-6.5,1,0,0,rectangle,5,-6.5,1,0,0,5,-6.5,1,0,0,0,3,3,15,1,,,,,,,,
,,,,,,,,,,,,,FF,,,,,,,,1.4672,,,,,,,,,,,,,,,,,,,,,,5f4d50ea11a0409f3b8db045,61036e9deff4554e65c63565,2021-07-29_22h18.14.287,Simcolourproject_2stim_asymm_v5,2020.2.10,Win32,60,61025ae37ef11b136ea224fe,,,,,,,,,3154,-45,-33.5,1,0,0,response5disk,,2,12,0.5,1,0,0,rectangle,12,0.5,1,0,0,12,0.5,1,0,0,0,4,4,1,1,,,,,,,,
,,,,,,,,,,,,,FF,,,,,,,,1.3173,,,,,,,,,,,,,,,,,,,,,,5f4d50ea11a0409f3b8db045,61036e9deff4554e65c63565,2021-07-29_22h18.14.287,Simcolourproject_2stim_asymm_v5,2020.2.10,Win32,60,61025ae37ef11b136ea224fe,,,,,,,,,3130,66,-36.5,1,0,0,response3disk,,5,25,-6.5,1,0,0,rectangle,25,-6.5,1,0,0,25,-6.5,1,0,0,0,5,5,51,1,,,,,,,,
,,,,,,,,,,,,,FF,,,,,,,,0.8666,,,,,,,,,,,,,,,,,,,,,,5f4d50ea11a0409f3b8db045,61036e9deff4554e65c63565,2021-07-29_22h18.14.287,Simcolourproject_2stim_asymm_v5,2020.2.10,Win32,60,61025ae37ef11b136ea224fe,,,,,,,,,4139,49,74.5,1,0,0,response1disk,,7,15,2.5,1,0,0,rectangle,15,2.5,1,0,0,15,2.5,1,0,0,0,6,6,46,1,,,,,,,,
,,,,,,,,,,,,,FF,,,,,,,,1.6296,,,,,,,,,,,,,,,,,,,,,,5f4d50ea11a0409f3b8db045,61036e9deff4554e65c63565,2021-07-29_22h18.14.287,Simcolourproject_2stim_asymm_v5,2020.2.10,Win32,60,61025ae37ef11b136ea224fe,,,,,,,,,4300,28,71.5,1,0,0,response1disk,,7,-2,-1.5,1,0,0,rectangle,-2,-1.5,1,0,0,-2,-1.5,1,0,0,0,7,7,114,1,,,,,,,,
,,,,,,,,,,,,,FF,,,,,,,,1.1907,,,,,,,,,,,,,,,,,,,,,,5f4d50ea11a0409f3b8db045,61036e9deff4554e65c63565,2021-07-29_22h18.14.287,Simcolourproject_2stim_asymm_v5,2020.2.10,Win32,60,61025ae37ef11b136ea224fe,,,,,,,,,2890,-59,-32.5,1,0,0,response5disk,,2,-9,-1.5,1,0,0,rectangle,-9,-1.5,1,0,0,-9,-1.5,1,0,0,0,8,8,134,1,,,,,,,,
,,,,,,,,,,,,,FF,,,,,,,,1.7505,,,,,,,,,,,,,,,,,,,,,,5f4d50ea11a0409f3b8db045,61036e9deff4554e65c63565,2021-07-29_22h18.14.287,Simcolourproject_2stim_asymm_v5,2020.2.10,Win32,60,61025ae37ef11b136ea224fe,,,,,,,,,4240,-69,-21.5,1,0,0,response5disk,,2,-5,10.5,1,0,0,rectangle,96,51.5,1,0,0,-1,3.5,1,0,0,0,9,9,92,1,,response1disk_3,TRUE,6,6,"[86,114,209,209,279,186,57,35,104,267,52,257,27,143,191,41,100,10,215,22]",2.5862,rectangle
,,,,,,,,,,,,,FF,,,,,,,,3.3016,,,,,,,,,,,,,,,,,,,,,,5f4d50ea11a0409f3b8db045,61036e9deff4554e65c63565,2021-07-29_22h18.14.287,Simcolourproject_2stim_asymm_v5,2020.2.10,Win32,60,61025ae37ef11b136ea224fe,,,,,,,,,1590,-37,-64.5,1,0,0,response5disk,,3,7,-3.5,1,0,0,rectangle,7,-3.5,1,0,0,7,-3.5,1,0,0,0,10,10,132,1,,,,,,,,
,,,,,,,,,,,,,FF,,,,,,,,1.2355,,,,,,,,,,,,,,,,,,,,,,5f4d50ea11a0409f3b8db045,61036e9deff4554e65c63565,2021-07-29_22h18.14.287,Simcolourproject_2stim_asymm_v5,2020.2.10,Win32,60,61025ae37ef11b136ea224fe,,,,,,,,,1574,37,-69.5,1,0,0,response3disk,,4,18,-6.5,1,0,0,rectangle,18,-6.5,1,0,0,18,-6.5,1,0,0,0,11,11,120,1,,,,,,,,
,,,,,,,,,,,,,FF,,,,,,,,2.2306,,,,,,,,,,,,,,,,,,,,,,5f4d50ea11a0409f3b8db045,61036e9deff4554e65c63565,2021-07-29_22h18.14.287,Simcolourproject_2stim_asymm_v5,2020.2.10,Win32,60,61025ae37ef11b136ea224fe,,,,,,,,,3824,80,42.5,1,0,0,response1disk,,6,-3,0.5,1,0,0,rectangle,-3,0.5,1,0,0,-3,0.5,1,0,0,0,12,12,141,1,,,,,,,,
,,,,,,,,,,,,,FF,,,,,,,,3.1124,,,,,,,,,,,,,,,,,,,,,,5f4d50ea11a0409f3b8db045,61036e9deff4554e65c63565,2021-07-29_22h18.14.287,Simcolourproject_2stim_asymm_v5,2020.2.10,Win32,60,61025ae37ef11b136ea224fe,,,,,,,,,4262,88,-53.5,1,0,0,response3disk,,5,22,-5.5,1,0,0,rectangle,22,-5.5,1,0,0,22,-5.5,1,0,0,0,13,13,117,1,,,,,,,,
,,,,,,,,,,,,,FF,,,,,,,,2.2328,,,,,,,,,,,,,,,,,,,,,,5f4d50ea11a0409f3b8db045,61036e9deff4554e65c63565,2021-07-29_22h18.14.287,Simcolourproject_2stim_asymm_v5,2020.2.10,Win32,60,61025ae37ef11b136ea224fe,,,,,,,,,3016,-27,-46.5,1,0,0,response5disk,,3,16,4.5,1,0,0,rectangle,16,4.5,1,0,0,16,4.5,1,0,0,0,14,14,115,1,,,,,,,,
,,,,,,,,,,,,,FF,,,,,,,,5.0657,,,,,,,,,,,,,,,,,,,,,,5f4d50ea11a0409f3b8db045,61036e9deff4554e65c63565,2021-07-29_22h18.14.287,Simcolourproject_2stim_asymm_v5,2020.2.10,Win32,60,61025ae37ef11b136ea224fe,,,,,,,,,2909,86,-52.5,1,0,0,response3disk,,5,18,-1.5,1,0,0,rectangle,18,-1.5,1,0,0,18,-1.5,1,0,0,0,15,15,47,1,,,,,,,,
,,,,,,,,,,,,,FF,,,,,,,,1.7227,,,,,,,,,,,,,,,,,,,,,,5f4d50ea11a0409f3b8db045,61036e9deff4554e65c63565,2021-07-29_22h18.14.287,Simcolourproject_2stim_asymm_v5,2020.2.10,Win32,60,61025ae37ef11b136ea224fe,,,,,,,,,1273,55,87.5,1,0,0,response1disk,,7,14,2.5,1,0,0,rectangle,14,2.5,1,0,0,14,2.5,1,0,0,0,16,16,147,1,,,,,,,,
,,,,,,,,,,,,,FF,,,,,,,,3.7697,,,,,,,,,,,,,,,,,,,,,,5f4d50ea11a0409f3b8db045,61036e9deff4554e65c63565,2021-07-29_22h18.14.287,Simcolourproject_2stim_asymm_v5,2020.2.10,Win32,60,61025ae37ef11b136ea224fe,,,,,,,,,1779,48,96.5,1,0,0,response1disk,,7,5,0.5,1,0,0,rectangle,5,0.5,1,0,0,5,0.5,1,0,0,0,17,17,143,1,,,,,,,,
,,,,,,,,,,,,,FF,,,,,,,,1.2011,,,,,,,,,,,,,,,,,,,,,,5f4d50ea11a0409f3b8db045,61036e9deff4554e65c63565,2021-07-29_22h18.14.287,Simcolourproject_2stim_asymm_v5,2020.2.10,Win32,60,61025ae37ef11b136ea224fe,,,,,,,,,3518,-99,-41.5,1,0,0,response5disk,,2,10,-7.5,1,0,0,rectangle,10,-7.5,1,0,0,10,-7.5,1,0,0,0,18,18,103,1,,,,,,,,
,,,,,,,,,,,,,FF,,,,,,,,1.899,,,,,,,,,,,,,,,,,,,,,,5f4d50ea11a0409f3b8db045,61036e9deff4554e65c63565,2021-07-29_22h18.14.287,Simcolourproject_2stim_asymm_v5,2020.2.10,Win32,60,61025ae37ef11b136ea224fe,,,,,,,,,2306,85,-54.5,1,0,0,response3disk,,5,5,3.5,1,0,0,rectangle,5,3.5,1,0,0,5,3.5,1,0,0,0,19,19,58,1,,,,,,,,
,,,,,,,,,,,,,FF,,,,,,,,1.5206,,,,,,,,,,,,,,,,,,,,,,5f4d50ea11a0409f3b8db045,61036e9deff4554e65c63565,2021-07-29_22h18.14.287,Simcolourproject_2stim_asymm_v5,2020.2.10,Win32,60,61025ae37ef11b136ea224fe,,,,,,,,,540,33,54.5,1,0,0,response1disk,,7,10,7.5,1,0,0,rectangle,10,7.5,1,0,0,10,7.5,1,0,0,0,20,20,14,1,,,,,,,,
,,,,,,,,,,,,,FF,,,,,,,,1.2495,,,,,,,,,,,,,,,,,,,,,,5f4d50ea11a0409f3b8db045,61036e9deff4554e65c63565,2021-07-29_22h18.14.287,Simcolourproject_2stim_asymm_v5,2020.2.10,Win32,60,61025ae37ef11b136ea224fe,,,,,,,,,383,27,-40.5,1,0,0,response3disk,,4,12,-9.5,1,0,0,rectangle,-40,-72.5,1,0,0,0,5.5,1,0,0,0,21,21,56,1,,response5disk_3,TRUE,3,3,"[86,114,209,209,279,186,57,35,104,267,52,257,27,143,191,41,100,10,215,22]",3.0336,rectangle
,,,,,,,,,,,,,FF,,,,,,,,2.0497,,,,,,,,,,,,,,,,,,,,,,5f4d50ea11a0409f3b8db045,61036e9deff4554e65c63565,2021-07-29_22h18.14.287,Simcolourproject_2stim_asymm_v5,2020.2.10,Win32,60,61025ae37ef11b136ea224fe,,,,,,,,,715,51,112.5,1,0,0,response1disk,,7,-8,-3.5,1,0,0,rectangle,-8,-3.5,1,0,0,-8,-3.5,1,0,0,0,22,22,63,1,,,,,,,,
,,,,,,,,,,,,,FF,,,,,,,,33.8634,,,,,,,,,,,,,,,,,,,,,,5f4d50ea11a0409f3b8db045,61036e9deff4554e65c63565,2021-07-29_22h18.14.287,Simcolourproject_2stim_asymm_v5,2020.2.10,Win32,60,61025ae37ef11b136ea224fe,,,,,,,,,1790,52,77.5,1,0,0,response1disk,,7,4,-2.5,1,0,0,rectangle,4,-2.5,1,0,0,4,-2.5,1,0,0,0,23,23,150,1,,,,,,,,
,,,,,,,,,,,,,FF,,,,,,,,1.7566,,,,,,,,,,,,,,,,,,,,,,5f4d50ea11a0409f3b8db045,61036e9deff4554e65c63565,2021-07-29_22h18.14.287,Simcolourproject_2stim_asymm_v5,2020.2.10,Win32,60,61025ae37ef11b136ea224fe,,,,,,,,,687,74,43.5,1,0,0,response1disk,,6,11,0.5,1,0,0,rectangle,11,0.5,1,0,0,11,0.5,1,0,0,0,24,24,22,1,,,,,,,,
,,,,,,,,,,,,,FF,,,,,,,,1.3012,,,,,,,,,,,,,,,,,,,,,,5f4d50ea11a0409f3b8db045,61036e9deff4554e65c63565,2021-07-29_22h18.14.287,Simcolourproject_2stim_asymm_v5,2020.2.10,Win32,60,61025ae37ef11b136ea224fe,,,,,,,,,947,35,-62.5,1,0,0,response3disk,,4,7,5.5,1,0,0,rectangle,7,5.5,1,0,0,7,5.5,1,0,0,0,25,25,95,1,,,,,,,,
,,,,,,,,,,,,,FF,,,,,,,,1.1154,,,,,,,,,,,,,,,,,,,,,,5f4d50ea11a0409f3b8db045,61036e9deff4554e65c63565,2021-07-29_22h18.14.287,Simcolourproject_2stim_asymm_v5,2020.2.10,Win32,60,61025ae37ef11b136ea224fe,,,,,,,,,4342,33,91.5,1,0,0,response1disk,,7,1,-1.5,1,0,0,rectangle,-99,-34.5,1,0,0,8,-0.5,1,0,0,0,26,26,133,1,,response5disk_3,TRUE,2,2,"[86,114,209,209,279,186,57,35,104,267,52,257,27,143,191,41,100,10,215,22]",1.73,rectangle
,,,,,,,,,,,,,FF,,,,,,,,2.118,,,,,,,,,,,,,,,,,,,,,,5f4d50ea11a0409f3b8db045,61036e9deff4554e65c63565,2021-07-29_22h18.14.287,Simcolourproject_2stim_asymm_v5,2020.2.10,Win32,60,61025ae37ef11b136ea224fe,,,,,,,,,3102,-32,-74.5,1,0,0,response5disk,,3,-10,3.5,1,0,0,rectangle,-10,3.5,1,0,0,-10,3.5,1,0,0,0,27,27,50,1,,,,,,,,
,,,,,,,,,,,,,FF,,,,,,,,18.1818,,,,,,,,,,,,,,,,,,,,,,5f4d50ea11a0409f3b8db045,61036e9deff4554e65c63565,2021-07-29_22h18.14.287,Simcolourproject_2stim_asymm_v5,2020.2.10,Win32,60,61025ae37ef11b136ea224fe,,,,,,,,,2497,61,-35.5,1,0,0,response3disk,,5,-8,3.5,1,0,0,rectangle,-8,3.5,1,0,0,-8,3.5,1,0,0,0,28,28,138,1,,,,,,,,
,,,,,,,,,,,,,FF,,,,,,,,1.9327,,,,,,,,,,,,,,,,,,,,,,5f4d50ea11a0409f3b8db045,61036e9deff4554e65c63565,2021-07-29_22h18.14.287,Simcolourproject_2stim_asymm_v5,2020.2.10,Win32,60,61025ae37ef11b136ea224fe,,,,,,,,,2563,-63,-38.5,1,0,0,response5disk,,2,2,5.5,1,0,0,rectangle,2,5.5,1,0,0,2,5.5,1,0,0,0,29,29,80,1,,,,,,,,
,,,,,,,,,,,,,FF,,,,,,,,2.9333,,,,,,,,,,,,,,,,,,,,,,5f4d50ea11a0409f3b8db045,61036e9deff4554e65c63565,2021-07-29_22h18.14.287,Simcolourproject_2stim_asymm_v5,2020.2.10,Win32,60,61025ae37ef11b136ea224fe,,,,,,,,,1198,103,-24.5,1,0,0,response3disk,,5,26,0.5,1,0,0,rectangle,26,0.5,1,0,0,26,0.5,1,0,0,0,30,30,94,1,,,,,,,,
,,,,,,,,,,,,,FF,,,,,,,,1.7507,,,,,,,,,,,,,,,,,,,,,,5f4d50ea11a0409f3b8db045,61036e9deff4554e65c63565,2021-07-29_22h18.14.287,Simcolourproject_2stim_asymm_v5,2020.2.10,Win32,60,61025ae37ef11b136ea224fe,,,,,,,,,1915,65,31.5,1,0,0,response1disk,,6,25,8.5,1,0,0,rectangle,25,8.5,1,0,0,25,8.5,1,0,0,0,31,31,127,1,,,,,,,,
,,,,,,,,,,,,,FF,,,,,,,,1.5762,,,,,,,,,,,,,,,,,,,,,,5f4d50ea11a0409f3b8db045,61036e9deff4554e65c63565,2021-07-29_22h18.14.287,Simcolourproject_2stim_asymm_v5,2020.2.10,Win32,60,61025ae37ef11b136ea224fe,,,,,,,,,1814,-36,-52.5,1,0,0,response5disk,,3,12,5.5,1,0,0,rectangle,12,5.5,1,0,0,12,5.5,1,0,0,0,32,32,98,1,,,,,,,,
,,,,,,,,,,,,,FF,,,,,,,,1.2663,,,,,,,,,,,,,,,,,,,,,,5f4d50ea11a0409f3b8db045,61036e9deff4554e65c63565,2021-07-29_22h18.14.287,Simcolourproject_2stim_asymm_v5,2020.2.10,Win32,60,61025ae37ef11b136ea224fe,,,,,,,,,3438,-46,-56.5,1,0,0,response5disk,,3,-3,-2.5,1,0,0,rectangle,-3,-2.5,1,0,0,-3,-2.5,1,0,0,0,33,33,40,1,,,,,,,,
,,,,,,,,,,,,,FF,,,,,,,,1.9008,,,,,,,,,,,,,,,,,,,,,,5f4d50ea11a0409f3b8db045,61036e9deff4554e65c63565,2021-07-29_22h18.14.287,Simcolourproject_2stim_asymm_v5,2020.2.10,Win32,60,61025ae37ef11b136ea224fe,,,,,,,,,3267,38,-66.5,1,0,0,response3disk,,4,17,-6.5,1,0,0,rectangle,-51,81.5,1,0,0,1,2.5,1,0,0,0,34,34,20,1,,response7disk_3,TRUE,0,0,"[86,114,209,209,279,186,57,35,104,267,52,257,27,143,191,41,100,10,215,22]",1.7527,rectangle
,,,,,,,,,,,,,FF,,,,,,,,1.2223,,,,,,,,,,,,,,,,,,,,,,5f4d50ea11a0409f3b8db045,61036e9deff4554e65c63565,2021-07-29_22h18.14.287,Simcolourproject_2stim_asymm_v5,2020.2.10,Win32,60,61025ae37ef11b136ea224fe,,,,,,,,,506,52,34.5,1,0,0,response1disk,,6,2,2.5,1,0,0,rectangle,2,2.5,1,0,0,2,2.5,1,0,0,0,35,35,87,1,,,,,,,,
,,,,,,,,,,,,,FF,,,,,,,,1.3365,,,,,,,,,,,,,,,,,,,,,,5f4d50ea11a0409f3b8db045,61036e9deff4554e65c63565,2021-07-29_22h18.14.287,Simcolourproject_2stim_asymm_v5,2020.2.10,Win32,60,61025ae37ef11b136ea224fe,,,,,,,,,2877,-64,-28.5,1,0,0,response5disk,,2,-2,4.5,1,0,0,rectangle,-2,4.5,1,0,0,-2,4.5,1,0,0,0,36,36,72,1,,,,,,,,
,,,,,,,,,,,,,FF,,,,,,,,2.2819,,,,,,,,,,,,,,,,,,,,,,5f4d50ea11a0409f3b8db045,61036e9deff4554e65c63565,2021-07-29_22h18.14.287,Simcolourproject_2stim_asymm_v5,2020.2.10,Win32,60,61025ae37ef11b136ea224fe,,,,,,,,,666,-79,43.5,1,0,0,response7disk,,1,-5,3.5,1,0,0,rectangle,-5,3.5,1,0,0,-5,3.5,1,0,0,0,37,37,107,1,,,,,,,,
,,,,,,,,,,,,,FF,,,,,,,,3.0832,,,,,,,,,,,,,,,,,,,,,,5f4d50ea11a0409f3b8db045,61036e9deff4554e65c63565,2021-07-29_22h18.14.287,Simcolourproject_2stim_asymm_v5,2020.2.10,Win32,60,61025ae37ef11b136ea224fe,,,,,,,,,966,-46,-74.5,1,0,0,response5disk,,3,5,2.5,1,0,0,rectangle,5,2.5,1,0,0,5,2.5,1,0,0,0,38,38,68,1,,,,,,,,
,,,,,,,,,,,,,FF,,,,,,,,2.2618,,,,,,,,,,,,,,,,,,,,,,5f4d50ea11a0409f3b8db045,61036e9deff4554e65c63565,2021-07-29_22h18.14.287,Simcolourproject_2stim_asymm_v5,2020.2.10,Win32,60,61025ae37ef11b136ea224fe,,,,,,,,,2323,29,-74.5,1,0,0,response3disk,,4,4,-0.5,1,0,0,rectangle,4,-0.5,1,0,0,4,-0.5,1,0,0,0,39,39,121,1,,,,,,,,
,,,,,,,,,,,,,FF,,,,,,,,2.3414,,,,,,,,,,,,,,,,,,,,,,5f4d50ea11a0409f3b8db045,61036e9deff4554e65c63565,2021-07-29_22h18.14.287,Simcolourproject_2stim_asymm_v5,2020.2.10,Win32,60,61025ae37ef11b136ea224fe,,,,,,,,,1277,-65,-29.5,1,0,0,response5disk,,2,12,-1.5,1,0,0,rectangle,40,-66.5,1,0,0,-4,7.5,1,0,0,0,40,40,105,1,,response3disk_3,TRUE,4,4,"[86,114,209,209,279,186,57,35,104,267,52,257,27,143,191,41,100,10,215,22]",3.5316,rectangle
,,,,,,,,,,,,,FF,,,,,,,,1.0827,,,,,,,,,,,,,,,,,,,,,,5f4d50ea11a0409f3b8db045,61036e9deff4554e65c63565,2021-07-29_22h18.14.287,Simcolourproject_2stim_asymm_v5,2020.2.10,Win32,60,61025ae37ef11b136ea224fe,,,,,,,,,826,62,49.5,1,0,0,response1disk,,6,-5,2.5,1,0,0,rectangle,-5,2.5,1,0,0,-5,2.5,1,0,0,0,41,41,18,1,,,,,,,,
,,,,,,,,,,,,,FF,,,,,,,,1.2011,,,,,,,,,,,,,,,,,,,,,,5f4d50ea11a0409f3b8db045,61036e9deff4554e65c63565,2021-07-29_22h18.14.287,Simcolourproject_2stim_asymm_v5,2020.2.10,Win32,60,61025ae37ef11b136ea224fe,,,,,,,,,3904,-38,47.5,1,0,0,response7disk,,0,7,2.5,1,0,0,rectangle,7,2.5,1,0,0,7,2.5,1,0,0,0,42,42,156,1,,,,,,,,
,,,,,,,,,,,,,FF,,,,,,,,1.1003,,,,,,,,,,,,,,,,,,,,,,5f4d50ea11a0409f3b8db045,61036e9deff4554e65c63565,2021-07-29_22h18.14.287,Simcolourproject_2stim_asymm_v5,2020.2.10,Win32,60,61025ae37ef11b136ea224fe,,,,,,,,,1999,76,52.5,1,0,0,response1disk,,6,12,-4.5,1,0,0,rectangle,12,-4.5,1,0,0,12,-4.5,1,0,0,0,43,43,45,1,,,,,,,,
,,,,,,,,,,,,,FF,,,,,,,,1.3193,,,,,,,,,,,,,,,,,,,,,,5f4d50ea11a0409f3b8db045,61036e9deff4554e65c63565,2021-07-29_22h18.14.287,Simcolourproject_2stim_asymm_v5,2020.2.10,Win32,60,61025ae37ef11b136ea224fe,,,,,,,,,1243,48,-77.5,1,0,0,response3disk,,4,9,12.5,1,0,0,rectangle,9,12.5,1,0,0,9,12.5,1,0,0,0,44,44,13,1,,,,,,,,
,,,,,,,,,,,,,FF,,,,,,,,4.8165,,,,,,,,,,,,,,,,,,,,,,5f4d50ea11a0409f3b8db045,61036e9deff4554e65c63565,2021-07-29_22h18.14.287,Simcolourproject_2stim_asymm_v5,2020.2.10,Win32,60,61025ae37ef11b136ea224fe,,,,,,,,,2997,31,-72.5,1,0,0,response3disk,,4,-9,-0.5,1,0,0,rectangle,-9,-0.5,1,0,0,-9,-0.5,1,0,0,0,45,45,149,1,,,,,,,,
,,,,,,,,,,,,,FF,,,,,,,,3.523,,,,,,,,,,,,,,,,,,,,,,5f4d50ea11a0409f3b8db045,61036e9deff4554e65c63565,2021-07-29_22h18.14.287,Simcolourproject_2stim_asymm_v5,2020.2.10,Win32,60,61025ae37ef11b136ea224fe,,,,,,,,,1386,39,-61.5,1,0,0,response3disk,,4,10,-7.5,1,0,0,rectangle,10,-7.5,1,0,0,10,-7.5,1,0,0,0,46,46,3,1,,,,,,,,
,,,,,,,,,,,,,FF,,,,,,,,1.5117,,,,,,,,,,,,,,,,,,,,,,5f4d50ea11a0409f3b8db045,61036e9deff4554e65c63565,2021-07-29_22h18.14.287,Simcolourproject_2stim_asymm_v5,2020.2.10,Win32,60,61025ae37ef11b136ea224fe,,,,,,,,,3747,-79,46.5,1,0,0,response7disk,,1,-7,-1.5,1,0,0,rectangle,-7,-1.5,1,0,0,-7,-1.5,1,0,0,0,47,47,108,1,,,,,,,,
,,,,,,,,,,,,,FF,,,,,,,,2.5505,,,,,,,,,,,,,,,,,,,,,,5f4d50ea11a0409f3b8db045,61036e9deff4554e65c63565,2021-07-29_22h18.14.287,Simcolourproject_2stim_asymm_v5,2020.2.10,Win32,60,61025ae37ef11b136ea224fe,,,,,,,,,1414,-28,-50.5,1,0,0,response5disk,,3,1,3.5,1,0,0,rectangle,1,3.5,1,0,0,1,3.5,1,0,0,0,48,48,26,1,,,,,,,,
,,,,,,,,,,,,,FF,,,,,,,,1.0704,,,,,,,,,,,,,,,,,,,,,,5f4d50ea11a0409f3b8db045,61036e9deff4554e65c63565,2021-07-29_22h18.14.287,Simcolourproject_2stim_asymm_v5,2020.2.10,Win32,60,61025ae37ef11b136ea224fe,,,,,,,,,3568,79,22.5,1,0,0,response1disk,,6,11,-3.5,1,0,0,rectangle,11,-3.5,1,0,0,11,-3.5,1,0,0,0,49,49,104,1,,,,,,,,
,,,,,,,,,,,,,FF,,,,,,,,0.8486,,,,,,,,,,,,,,,,,,,,,,5f4d50ea11a0409f3b8db045,61036e9deff4554e65c63565,2021-07-29_22h18.14.287,Simcolourproject_2stim_asymm_v5,2020.2.10,Win32,60,61025ae37ef11b136ea224fe,,,,,,,,,2257,44,96.5,1,0,0,response1disk,,7,7,-6.5,1,0,0,rectangle,7,-6.5,1,0,0,7,-6.5,1,0,0,0,50,50,7,1,,,,,,,,
,,,,,,,,,,,,,FF,,,,,,,,0.9484,,,,,,,,,,,,,,,,,,,,,,5f4d50ea11a0409f3b8db045,61036e9deff4554e65c63565,2021-07-29_22h18.14.287,Simcolourproject_2stim_asymm_v5,2020.2.10,Win32,60,61025ae37ef11b136ea224fe,,,,,,,,,2807,-55,-30.5,1,0,0,response5disk,,2,7,0.5,1,0,0,rectangle,-72,-43.5,1,0,0,5,3.5,1,0,0,0,51,51,122,1,,response5disk_3,TRUE,2,2,"[86,114,209,209,279,186,57,35,104,267,52,257,27,143,191,41,100,10,215,22]",1.5155,rectangle
,,,,,,,,,,,,,FF,,,,,,,,1.2392,,,,,,,,,,,,,,,,,,,,,,5f4d50ea11a0409f3b8db045,61036e9deff4554e65c63565,2021-07-29_22h18.14.287,Simcolourproject_2stim_asymm_v5,2020.2.10,Win32,60,61025ae37ef11b136ea224fe,,,,,,,,,4323,31,96.5,1,0,0,response1disk,,7,12,1.5,1,0,0,rectangle,12,1.5,1,0,0,12,1.5,1,0,0,0,52,52,44,1,,,,,,,,
,,,,,,,,,,,,,FF,,,,,,,,1.352,,,,,,,,,,,,,,,,,,,,,,5f4d50ea11a0409f3b8db045,61036e9deff4554e65c63565,2021-07-29_22h18.14.287,Simcolourproject_2stim_asymm_v5,2020.2.10,Win32,60,61025ae37ef11b136ea224fe,,,,,,,,,203,-30,-67.5,1,0,0,response5disk,,3,4,-6.5,1,0,0,rectangle,4,-6.5,1,0,0,4,-6.5,1,0,0,0,53,53,52,1,,,,,,,,
,,,,,,,,,,,,,FF,,,,,,,,1.5189,,,,,,,,,,,,,,,,,,,,,,5f4d50ea11a0409f3b8db045,61036e9deff4554e65c63565,2021-07-29_22h18.14.287,Simcolourproject_2stim_asymm_v5,2020.2.10,Win32,60,61025ae37ef11b136ea224fe,,,,,,,,,767,55,-32.5,1,0,0,response3disk,,5,3,-4.5,1,0,0,rectangle,3,-4.5,1,0,0,3,-4.5,1,0,0,0,54,54,33,1,,,,,,,,
,,,,,,,,,,,,,FF,,,,,,,,1.1343,,,,,,,,,,,,,,,,,,,,,,5f4d50ea11a0409f3b8db045,61036e9deff4554e65c63565,2021-07-29_22h18.14.287,Simcolourproject_2stim_asymm_v5,2020.2.10,Win32,60,61025ae37ef11b136ea224fe,,,,,,,,,2010,33,-45.5,1,0,0,response3disk,,4,12,1.5,1,0,0,rectangle,12,1.5,1,0,0,12,1.5,1,0,0,0,55,55,42,1,,,,,,,,
,,,,,,,,,,,,,FF,,,,,,,,1.7177,,,,,,,,,,,,,,,,,,,,,,5f4d50ea11a0409f3b8db045,61036e9deff4554e65c63565,2021-07-29_22h18.14.287,Simcolourproject_2stim_asymm_v5,2020.2.10,Win32,60,61025ae37ef11b136ea224fe,,,,,,,,,1928,-25,-52.5,1,0,0,response5disk,,3,29,-6.5,1,0,0,rectangle,-84,41.5,1,0,0,-14,7.5,1,0,0,0,56,56,17,1,,response7disk_3,TRUE,1,1,"[86,114,209,209,279,186,57,35,104,267,52,257,27,143,191,41,100,10,215,22]",1.4463,rectangle
,,,,,,,,,,,,,FF,,,,,,,,5.0677,,,,,,,,,,,,,,,,,,,,,,5f4d50ea11a0409f3b8db045,61036e9deff4554e65c63565,2021-07-29_22h18.14.287,Simcolourproject_2stim_asymm_v5,2020.2.10,Win32,60,61025ae37ef11b136ea224fe,,,,,,,,,4260,104,38.5,1,0,0,response1disk,,6,12,2.5,1,0,0,rectangle,12,2.5,1,0,0,12,2.5,1,0,0,0,57,57,79,1,,,,,,,,
,,,,,,,,,,,,,FF,,,,,,,,1.2705,,,,,,,,,,,,,,,,,,,,,,5f4d50ea11a0409f3b8db045,61036e9deff4554e65c63565,2021-07-29_22h18.14.287,Simcolourproject_2stim_asymm_v5,2020.2.10,Win32,60,61025ae37ef11b136ea224fe,,,,,,,,,3963,38,60.5,1,0,0,response1disk,,7,-4,-11.5,1,0,0,rectangle,-4,-11.5,1,0,0,-4,-11.5,1,0,0,0,58,58,118,1,,,,,,,,
,,,,,,,,,,,,,FF,,,,,,,,1.1812,,,,,,,,,,,,,,,,,,,,,,5f4d50ea11a0409f3b8db045,61036e9deff4554e65c63565,2021-07-29_22h18.14.287,Simcolourproject_2stim_asymm_v5,2020.2.10,Win32,60,61025ae37ef11b136ea224fe,,,,,,,,,3294,-74,57.5,1,0,0,response7disk,,1,14,1.5,1,0,0,rectangle,14,1.5,1,0,0,14,1.5,1,0,0,0,59,59,89,1,,,,,,,,
,,,,,,,,,,,,,FF,,,,,,,,2.6492,,,,,,,,,,,,,,,,,,,,,,5f4d50ea11a0409f3b8db045,61036e9deff4554e65c63565,2021-07-29_22h18.14.287,Simcolourproject_2stim_asymm_v5,2020.2.10,Win32,60,61025ae37ef11b136ea224fe,,,,,,,,,607,-92,-34.5,1,0,0,response5disk,,2,-10,7.5,1,0,0,rectangle,-10,7.5,1,0,0,-10,7.5,1,0,0,0,60,60,70,1,,,,,,,,
,,,,,,,,,,,,,FF,,,,,,,,2.047,,,,,,,,,,,,,,,,,,,,,,5f4d50ea11a0409f3b8db045,61036e9deff4554e65c63565,2021-07-29_22h18.14.287,Simcolourproject_2stim_asymm_v5,2020.2.10,Win32,60,61025ae37ef11b136ea224fe,,,,,,,,,1834,72,-63.5,1,0,0,response3disk,,5,22,-9.5,1,0,0,rectangle,22,-9.5,1,0,0,22,-9.5,1,0,0,0,61,61,146,1,,,,,,,,
,,,,,,,,,,,,,FF,,,,,,,,2.3951,,,,,,,,,,,,,,,,,,,,,,5f4d50ea11a0409f3b8db045,61036e9deff4554e65c63565,2021-07-29_22h18.14.287,Simcolourproject_2stim_asymm_v5,2020.2.10,Win32,60,61025ae37ef11b136ea224fe,,,,,,,,,765,34,64.5,1,0,0,response1disk,,7,6,4.5,1,0,0,rectangle,6,4.5,1,0,0,6,4.5,1,0,0,0,62,62,157,1,,,,,,,,
,,,,,,,,,,,,,FF,,,,,,,,1.351,,,,,,,,,,,,,,,,,,,,,,5f4d50ea11a0409f3b8db045,61036e9deff4554e65c63565,2021-07-29_22h18.14.287,Simcolourproject_2stim_asymm_v5,2020.2.10,Win32,60,61025ae37ef11b136ea224fe,,,,,,,,,1143,-78,31.5,1,0,0,response7disk,,1,23,4.5,1,0,0,rectangle,23,4.5,1,0,0,23,4.5,1,0,0,0,63,63,139,1,,,,,,,,
,,,,,,,,,,,,,FF,,,,,,,,0.9982,,,,,,,,,,,,,,,,,,,,,,5f4d50ea11a0409f3b8db045,61036e9deff4554e65c63565,2021-07-29_22h18.14.287,Simcolourproject_2stim_asymm_v5,2020.2.10,Win32,60,61025ae37ef11b136ea224fe,,,,,,,,,2300,-83,38.5,1,0,0,response7disk,,1,4,3.5,1,0,0,rectangle,4,3.5,1,0,0,4,3.5,1,0,0,0,64,64,59,1,,,,,,,,
,,,,,,,,,,,,,FF,,,,,,,,1.4197,,,,,,,,,,,,,,,,,,,,,,5f4d50ea11a0409f3b8db045,61036e9deff4554e65c63565,2021-07-29_22h18.14.287,Simcolourproject_2stim_asymm_v5,2020.2.10,Win32,60,61025ae37ef11b136ea224fe,,,,,,,,,1862,43,-50.5,1,0,0,response3disk,,4,5,4.5,1,0,0,rectangle,5,4.5,1,0,0,5,4.5,1,0,0,0,65,65,55,1,,,,,,,,
,,,,,,,,,,,,,FF,,,,,,,,3.9838,,,,,,,,,,,,,,,,,,,,,,5f4d50ea11a0409f3b8db045,61036e9deff4554e65c63565,2021-07-29_22h18.14.287,Simcolourproject_2stim_asymm_v5,2020.2.10,Win32,60,61025ae37ef11b136ea224fe,,,,,,,,,2980,51,88.5,1,0,0,response1disk,,7,15,-0.5,1,0,0,rectangle,15,-0.5,1,0,0,15,-0.5,1,0,0,0,66,66,4,1,,,,,,,,
,,,,,,,,,,,,,FF,,,,,,,,3.5649,,,,,,,,,,,,,,,,,,,,,,5f4d50ea11a0409f3b8db045,61036e9deff4554e65c63565,2021-07-29_22h18.14.287,Simcolourproject_2stim_asymm_v5,2020.2.10,Win32,60,61025ae37ef11b136ea224fe,,,,,,,,,3241,-31,-73.5,1,0,0,response5disk,,3,7,3.5,1,0,0,rectangle,7,3.5,1,0,0,7,3.5,1,0,0,0,67,67,90,1,,,,,,,,
,,,,,,,,,,,,,FF,,,,,,,,2.4174,,,,,,,,,,,,,,,,,,,,,,5f4d50ea11a0409f3b8db045,61036e9deff4554e65c63565,2021-07-29_22h18.14.287,Simcolourproject_2stim_asymm_v5,2020.2.10,Win32,60,61025ae37ef11b136ea224fe,,,,,,,,,2818,63,-47.5,1,0,0,response3disk,,5,3,1.5,1,0,0,rectangle,3,1.5,1,0,0,3,1.5,1,0,0,0,68,68,28,1,,,,,,,,
,,,,,,,,,,,,,FF,,,,,,,,3.3375,,,,,,,,,,,,,,,,,,,,,,5f4d50ea11a0409f3b8db045,61036e9deff4554e65c63565,2021-07-29_22h18.14.287,Simcolourproject_2stim_asymm_v5,2020.2.10,Win32,60,61025ae37ef11b136ea224fe,,,,,,,,,2651,-87,-41.5,1,0,0,response5disk,,2,-1,5.5,1,0,0,rectangle,-1,5.5,1,0,0,-1,5.5,1,0,0,0,69,69,11,1,,,,,,,,
,,,,,,,,,,,,,FF,,,,,,,,1.4017,,,,,,,,,,,,,,,,,,,,,,5f4d50ea11a0409f3b8db045,61036e9deff4554e65c63565,2021-07-29_22h18.14.287,Simcolourproject_2stim_asymm_v5,2020.2.10,Win32,60,61025ae37ef11b136ea224fe,,,,,,,,,3571,44,-79.5,1,0,0,response3disk,,4,2,3.5,1,0,0,rectangle,2,3.5,1,0,0,2,3.5,1,0,0,0,70,70,83,1,,,,,,,,
,,,,,,,,,,,,,FF,,,,,,,,2.3838,,,,,,,,,,,,,,,,,,,,,,5f4d50ea11a0409f3b8db045,61036e9deff4554e65c63565,2021-07-29_22h18.14.287,Simcolourproject_2stim_asymm_v5,2020.2.10,Win32,60,61025ae37ef11b136ea224fe,,,,,,,,,2147,-38,-88.5,1,0,0,response5disk,,3,0,-3.5,1,0,0,rectangle,0,-3.5,1,0,0,0,-3.5,1,0,0,0,71,71,71,1,,,,,,,,
,,,,,,,,,,,,,FF,,,,,,,,2.2196,,,,,,,,,,,,,,,,,,,,,,5f4d50ea11a0409f3b8db045,61036e9deff4554e65c63565,2021-07-29_22h18.14.287,Simcolourproject_2stim_asymm_v5,2020.2.10,Win32,60,61025ae37ef11b136ea224fe,,,,,,,,,823,-82,-48.5,1,0,0,response5disk,,2,0,1.5,1,0,0,rectangle,0,1.5,1,0,0,0,1.5,1,0,0,0,72,72,74,1,,,,,,,,
,,,,,,,,,,,,,FF,,,,,,,,3.868,,,,,,,,,,,,,,,,,,,,,,5f4d50ea11a0409f3b8db045,61036e9deff4554e65c63565,2021-07-29_22h18.14.287,Simcolourproject_2stim_asymm_v5,2020.2.10,Win32,60,61025ae37ef11b136ea224fe,,,,,,,,,2513,34,-80.5,1,0,0,response3disk,,4,-1,4.5,1,0,0,rectangle,-1,4.5,1,0,0,-1,4.5,1,0,0,0,73,73,39,1,,,,,,,,
,,,,,,,,,,,,,FF,,,,,,,,4.1877,,,,,,,,,,,,,,,,,,,,,,5f4d50ea11a0409f3b8db045,61036e9deff4554e65c63565,2021-07-29_22h18.14.287,Simcolourproject_2stim_asymm_v5,2020.2.10,Win32,60,61025ae37ef11b136ea224fe,,,,,,,,,1545,-44,-71.5,1,0,0,response5disk,,3,0,-2.5,1,0,0,rectangle,0,-2.5,1,0,0,0,-2.5,1,0,0,0,74,74,19,1,,,,,,,,
,,,,,,,,,,,,,FF,,,,,,,,1.9665,,,,,,,,,,,,,,,,,,,,,,5f4d50ea11a0409f3b8db045,61036e9deff4554e65c63565,2021-07-29_22h18.14.287,Simcolourproject_2stim_asymm_v5,2020.2.10,Win32,60,61025ae37ef11b136ea224fe,,,,,,,,,3713,-82,-37.5,1,0,0,response5disk,,2,0,-5.5,1,0,0,rectangle,0,-5.5,1,0,0,0,-5.5,1,0,0,0,75,75,88,1,,,,,,,,
,,,,,,,,,,,,,FF,,,,,,,,2.9836,,,,,,,,,,,,,,,,,,,,,,5f4d50ea11a0409f3b8db045,61036e9deff4554e65c63565,2021-07-29_22h18.14.287,Simcolourproject_2stim_asymm_v5,2020.2.10,Win32,60,61025ae37ef11b136ea224fe,,,,,,,,,100,-80,-33.5,1,0,0,response5disk,,2,-5,1.5,1,0,0,rectangle,-5,1.5,1,0,0,-5,1.5,1,0,0,0,76,76,111,1,,,,,,,,
,,,,,,,,,,,,,FF,,,,,,,,2.4118,,,,,,,,,,,,,,,,,,,,,,5f4d50ea11a0409f3b8db045,61036e9deff4554e65c63565,2021-07-29_22h18.14.287,Simcolourproject_2stim_asymm_v5,2020.2.10,Win32,60,61025ae37ef11b136ea224fe,,,,,,,,,2528,-66,-40.5,1,0,0,response5disk,,2,6,-4.5,1,0,0,rectangle,6,-4.5,1,0,0,6,-4.5,1,0,0,0,77,77,93,1,,,,,,,,
,,,,,,,,,,,,,FF,,,,,,,,1.3502,,,,,,,,,,,,,,,,,,,,,,5f4d50ea11a0409f3b8db045,61036e9deff4554e65c63565,2021-07-29_22h18.14.287,Simcolourproject_2stim_asymm_v5,2020.2.10,Win32,60,61025ae37ef11b136ea224fe,,,,,,,,,398,37,-59.5,1,0,0,response3disk,,4,-11,-8.5,1,0,0,rectangle,-11,-8.5,1,0,0,-11,-8.5,1,0,0,0,78,78,25,1,,,,,,,,
,,,,,,,,,,,,,FF,,,,,,,,3.2845,,,,,,,,,,,,,,,,,,,,,,5f4d50ea11a0409f3b8db045,61036e9deff4554e65c63565,2021-07-29_22h18.14.287,Simcolourproject_2stim_asymm_v5,2020.2.10,Win32,60,61025ae37ef11b136ea224fe,,,,,,,,,3883,60,92.5,1,0,0,response1disk,,7,11,3.5,1,0,0,rectangle,11,3.5,1,0,0,11,3.5,1,0,0,0,79,79,123,1,,,,,,,,
,,,,,,,,,,,,,FF,,,,,,,,1.6522,,,,,,,,,,,,,,,,,,,,,,5f4d50ea11a0409f3b8db045,61036e9deff4554e65c63565,2021-07-29_22h18.14.287,Simcolourproject_2stim_asymm_v5,2020.2.10,Win32,60,61025ae37ef11b136ea224fe,,,,,,,,,1913,36,94.5,1,0,0,response1disk,,7,-10,-0.5,1,0,0,rectangle,-10,-0.5,1,0,0,-10,-0.5,1,0,0,0,80,80,53,1,,,,,,,,
,,,,,,,,,,,,,FF,,,,,,,,1.5363,,,,,,,,,,,,,,,,,,,,,,5f4d50ea11a0409f3b8db045,61036e9deff4554e65c63565,2021-07-29_22h18.14.287,Simcolourproject_2stim_asymm_v5,2020.2.10,Win32,60,61025ae37ef11b136ea224fe,,,,,,,,,4002,37,-67.5,1,0,0,response3disk,,4,5,-0.5,1,0,0,rectangle,5,-0.5,1,0,0,5,-0.5,1,0,0,0,81,81,85,1,,,,,,,,
,,,,,,,,,,,,,FF,,,,,,,,2.383,,,,,,,,,,,,,,,,,,,,,,5f4d50ea11a0409f3b8db045,61036e9deff4554e65c63565,2021-07-29_22h18.14.287,Simcolourproject_2stim_asymm_v5,2020.2.10,Win32,60,61025ae37ef11b136ea224fe,,,,,,,,,4259,-31,-61.5,1,0,0,response5disk,,3,-10,7.5,1,0,0,rectangle,-10,7.5,1,0,0,-10,7.5,1,0,0,0,82,82,30,1,,,,,,,,
,,,,,,,,,,,,,FF,,,,,,,,1.2171,,,,,,,,,,,,,,,,,,,,,,5f4d50ea11a0409f3b8db045,61036e9deff4554e65c63565,2021-07-29_22h18.14.287,Simcolourproject_2stim_asymm_v5,2020.2.10,Win32,60,61025ae37ef11b136ea224fe,,,,,,,,,1,-93,51.5,1,0,0,response7disk,,1,-2,1.5,1,0,0,rectangle,-2,1.5,1,0,0,-2,1.5,1,0,0,0,83,83,21,1,,,,,,,,
,,,,,,,,,,,,,FF,,,,,,,,1.257,,,,,,,,,,,,,,,,,,,,,,5f4d50ea11a0409f3b8db045,61036e9deff4554e65c63565,2021-07-29_22h18.14.287,Simcolourproject_2stim_asymm_v5,2020.2.10,Win32,60,61025ae37ef11b136ea224fe,,,,,,,,,472,32,-54.5,1,0,0,response3disk,,4,17,-8.5,1,0,0,rectangle,17,-8.5,1,0,0,17,-8.5,1,0,0,0,84,84,77,1,,,,,,,,
,,,,,,,,,,,,,FF,,,,,,,,1.5521,,,,,,,,,,,,,,,,,,,,,,5f4d50ea11a0409f3b8db045,61036e9deff4554e65c63565,2021-07-29_22h18.14.287,Simcolourproject_2stim_asymm_v5,2020.2.10,Win32,60,61025ae37ef11b136ea224fe,,,,,,,,,3363,-64,-42.5,1,0,0,response5disk,,2,-21,-8.5,1,0,0,rectangle,106,56.5,1,0,0,-3,2.5,1,0,0,0,85,85,32,1,,response1disk_3,TRUE,6,6,"[86,114,209,209,279,186,57,35,104,267,52,257,27,143,191,41,100,10,215,22]",2.0953,rectangle
,,,,,,,,,,,,,FF,,,,,,,,0.9173,,,,,,,,,,,,,,,,,,,,,,5f4d50ea11a0409f3b8db045,61036e9deff4554e65c63565,2021-07-29_22h18.14.287,Simcolourproject_2stim_asymm_v5,2020.2.10,Win32,60,61025ae37ef11b136ea224fe,,,,,,,,,891,-86,52.5,1,0,0,response7disk,,1,-10,6.5,1,0,0,rectangle,-10,6.5,1,0,0,-10,6.5,1,0,0,0,86,86,155,1,,,,,,,,
,,,,,,,,,,,,,FF,,,,,,,,1.3998,,,,,,,,,,,,,,,,,,,,,,5f4d50ea11a0409f3b8db045,61036e9deff4554e65c63565,2021-07-29_22h18.14.287,Simcolourproject_2stim_asymm_v5,2020.2.10,Win32,60,61025ae37ef11b136ea224fe,,,,,,,,,2816,-40,-81.5,1,0,0,response5disk,,3,4,10.5,1,0,0,rectangle,4,10.5,1,0,0,4,10.5,1,0,0,0,87,87,76,1,,,,,,,,
,,,,,,,,,,,,,FF,,,,,,,,3.7658,,,,,,,,,,,,,,,,,,,,,,5f4d50ea11a0409f3b8db045,61036e9deff4554e65c63565,2021-07-29_22h18.14.287,Simcolourproject_2stim_asymm_v5,2020.2.10,Win32,60,61025ae37ef11b136ea224fe,,,,,,,,,3565,-76,-38.5,1,0,0,response5disk,,2,4,1.5,1,0,0,rectangle,4,1.5,1,0,0,4,1.5,1,0,0,0,88,88,60,1,,,,,,,,
,,,,,,,,,,,,,FF,,,,,,,,1.0671,,,,,,,,,,,,,,,,,,,,,,5f4d50ea11a0409f3b8db045,61036e9deff4554e65c63565,2021-07-29_22h18.14.287,Simcolourproject_2stim_asymm_v5,2020.2.10,Win32,60,61025ae37ef11b136ea224fe,,,,,,,,,2310,62,-32.5,1,0,0,response3disk,,5,-6,6.5,1,0,0,rectangle,-6,6.5,1,0,0,-6,6.5,1,0,0,0,89,89,75,1,,,,,,,,
,,,,,,,,,,,,,FF,,,,,,,,2.9214,,,,,,,,,,,,,,,,,,,,,,5f4d50ea11a0409f3b8db045,61036e9deff4554e65c63565,2021-07-29_22h18.14.287,Simcolourproject_2stim_asymm_v5,2020.2.10,Win32,60,61025ae37ef11b136ea224fe,,,,,,,,,839,87,39.5,1,0,0,response1disk,,6,-5,8.5,1,0,0,rectangle,-5,8.5,1,0,0,-5,8.5,1,0,0,0,90,90,110,1,,,,,,,,
,,,,,,,,,,,,,FF,,,,,,,,3.1656,,,,,,,,,,,,,,,,,,,,,,5f4d50ea11a0409f3b8db045,61036e9deff4554e65c63565,2021-07-29_22h18.14.287,Simcolourproject_2stim_asymm_v5,2020.2.10,Win32,60,61025ae37ef11b136ea224fe,,,,,,,,,2987,-43,-84.5,1,0,0,response5disk,,3,5,2.5,1,0,0,rectangle,5,2.5,1,0,0,5,2.5,1,0,0,0,91,91,73,1,,,,,,,,
,,,,,,,,,,,,,FF,,,,,,,,1.934,,,,,,,,,,,,,,,,,,,,,,5f4d50ea11a0409f3b8db045,61036e9deff4554e65c63565,2021-07-29_22h18.14.287,Simcolourproject_2stim_asymm_v5,2020.2.10,Win32,60,61025ae37ef11b136ea224fe,,,,,,,,,200,-32,-64.5,1,0,0,response5disk,,3,9,2.5,1,0,0,rectangle,9,2.5,1,0,0,9,2.5,1,0,0,0,92,92,86,1,,,,,,,,
,,,,,,,,,,,,,FF,,,,,,,,2.401,,,,,,,,,,,,,,,,,,,,,,5f4d50ea11a0409f3b8db045,61036e9deff4554e65c63565,2021-07-29_22h18.14.287,Simcolourproject_2stim_asymm_v5,2020.2.10,Win32,60,61025ae37ef11b136ea224fe,,,,,,,,,824,-85,-54.5,1,0,0,response5disk,,2,8,5.5,1,0,0,rectangle,8,5.5,1,0,0,8,5.5,1,0,0,0,93,93,153,1,,,,,,,,
,,,,,,,,,,,,,FF,,,,,,,,3.6188,,,,,,,,,,,,,,,,,,,,,,5f4d50ea11a0409f3b8db045,61036e9deff4554e65c63565,2021-07-29_22h18.14.287,Simcolourproject_2stim_asymm_v5,2020.2.10,Win32,60,61025ae37ef11b136ea224fe,,,,,,,,,1374,-65,-32.5,1,0,0,response5disk,,2,-10,2.5,1,0,0,rectangle,-10,2.5,1,0,0,-10,2.5,1,0,0,0,94,94,38,1,,,,,,,,
,,,,,,,,,,,,,FF,,,,,,,,5.116,,,,,,,,,,,,,,,,,,,,,,5f4d50ea11a0409f3b8db045,61036e9deff4554e65c63565,2021-07-29_22h18.14.287,Simcolourproject_2stim_asymm_v5,2020.2.10,Win32,60,61025ae37ef11b136ea224fe,,,,,,,,,4244,79,34.5,1,0,0,response1disk,,6,2,-7.5,1,0,0,rectangle,2,-7.5,1,0,0,2,-7.5,1,0,0,0,95,95,106,1,,,,,,,,
,,,,,,,,,,,,,FF,,,,,,,,2.2525,,,,,,,,,,,,,,,,,,,,,,5f4d50ea11a0409f3b8db045,61036e9deff4554e65c63565,2021-07-29_22h18.14.287,Simcolourproject_2stim_asymm_v5,2020.2.10,Win32,60,61025ae37ef11b136ea224fe,,,,,,,,,645,44,-67.5,1,0,0,response3disk,,4,-2,2.5,1,0,0,rectangle,-2,2.5,1,0,0,-2,2.5,1,0,0,0,96,96,101,1,,,,,,,,
,,,,,,,,,,,,,FF,,,,,,,,3.4326,,,,,,,,,,,,,,,,,,,,,,5f4d50ea11a0409f3b8db045,61036e9deff4554e65c63565,2021-07-29_22h18.14.287,Simcolourproject_2stim_asymm_v5,2020.2.10,Win32,60,61025ae37ef11b136ea224fe,,,,,,,,,3879,89,-34.5,1,0,0,response3disk,,5,0,8.5,1,0,0,rectangle,0,8.5,1,0,0,0,8.5,1,0,0,0,97,97,119,1,,,,,,,,
,,,,,,,,,,,,,FF,,,,,,,,2.1007,,,,,,,,,,,,,,,,,,,,,,5f4d50ea11a0409f3b8db045,61036e9deff4554e65c63565,2021-07-29_22h18.14.287,Simcolourproject_2stim_asymm_v5,2020.2.10,Win32,60,61025ae37ef11b136ea224fe,,,,,,,,,1864,-28,-59.5,1,0,0,response5disk,,3,8,8.5,1,0,0,rectangle,8,8.5,1,0,0,8,8.5,1,0,0,0,98,98,145,1,,,,,,,,
,,,,,,,,,,,,,FF,,,,,,,,2.1838,,,,,,,,,,,,,,,,,,,,,,5f4d50ea11a0409f3b8db045,61036e9deff4554e65c63565,2021-07-29_22h18.14.287,Simcolourproject_2stim_asymm_v5,2020.2.10,Win32,60,61025ae37ef11b136ea224fe,,,,,,,,,3854,91,-44.5,1,0,0,response3disk,,5,0,5.5,1,0,0,rectangle,91,45.5,1,0,0,-4,1.5,1,0,0,0,99,99,152,1,,response1disk_3,TRUE,6,6,"[86,114,209,209,279,186,57,35,104,267,52,257,27,143,191,41,100,10,215,22]",2.0784,rectangle
,,,,,,,,,,,,,FF,,,,,,,,2.2585,,,,,,,,,,,,,,,,,,,,,,5f4d50ea11a0409f3b8db045,61036e9deff4554e65c63565,2021-07-29_22h18.14.287,Simcolourproject_2stim_asymm_v5,2020.2.10,Win32,60,61025ae37ef11b136ea224fe,,,,,,,,,1653,-22,-58.5,1,0,0,response5disk,,3,-2,0.5,1,0,0,rectangle,-2,0.5,1,0,0,-2,0.5,1,0,0,0,100,100,99,1,,,,,,,,
,,,,,,,,,,,,,FF,,,,,,,,1.1677,,,,,,,,,,,,,,,,,,,,,,5f4d50ea11a0409f3b8db045,61036e9deff4554e65c63565,2021-07-29_22h18.14.287,Simcolourproject_2stim_asymm_v5,2020.2.10,Win32,60,61025ae37ef11b136ea224fe,,,,,,,,,2876,-35,-46.5,1,0,0,response5disk,,3,5,1.5,1,0,0,rectangle,5,1.5,1,0,0,5,1.5,1,0,0,0,101,101,67,1,,,,,,,,
,,,,,,,,,,,,,FF,,,,,,,,1.2995,,,,,,,,,,,,,,,,,,,,,,5f4d50ea11a0409f3b8db045,61036e9deff4554e65c63565,2021-07-29_22h18.14.287,Simcolourproject_2stim_asymm_v5,2020.2.10,Win32,60,61025ae37ef11b136ea224fe,,,,,,,,,2253,48,68.5,1,0,0,response1disk,,7,9,-2.5,1,0,0,rectangle,9,-2.5,1,0,0,9,-2.5,1,0,0,0,102,102,140,1,,,,,,,,
,,,,,,,,,,,,,FF,,,,,,,,1.9042,,,,,,,,,,,,,,,,,,,,,,5f4d50ea11a0409f3b8db045,61036e9deff4554e65c63565,2021-07-29_22h18.14.287,Simcolourproject_2stim_asymm_v5,2020.2.10,Win32,60,61025ae37ef11b136ea224fe,,,,,,,,,1914,-37,-76.5,1,0,0,response5disk,,3,2,3.5,1,0,0,rectangle,43,-89.5,1,0,0,2,4.5,1,0,0,0,103,103,112,1,,response3disk_3,TRUE,4,4,"[86,114,209,209,279,186,57,35,104,267,52,257,27,143,191,41,100,10,215,22]",2.3523,rectangle
,,,,,,,,,,,,,FF,,,,,,,,2.5832,,,,,,,,,,,,,,,,,,,,,,5f4d50ea11a0409f3b8db045,61036e9deff4554e65c63565,2021-07-29_22h18.14.287,Simcolourproject_2stim_asymm_v5,2020.2.10,Win32,60,61025ae37ef11b136ea224fe,,,,,,,,,3293,-88,53.5,1,0,0,response7disk,,1,-5,-1.5,1,0,0,rectangle,-5,-1.5,1,0,0,-5,-1.5,1,0,0,0,104,104,8,1,,,,,,,,
,,,,,,,,,,,,,FF,,,,,,,,1.0509,,,,,,,,,,,,,,,,,,,,,,5f4d50ea11a0409f3b8db045,61036e9deff4554e65c63565,2021-07-29_22h18.14.287,Simcolourproject_2stim_asymm_v5,2020.2.10,Win32,60,61025ae37ef11b136ea224fe,,,,,,,,,89,-62,-31.5,1,0,0,response5disk,,2,12,6.5,1,0,0,rectangle,12,6.5,1,0,0,12,6.5,1,0,0,0,105,105,125,1,,,,,,,,
,,,,,,,,,,,,,FF,,,,,,,,1.0496,,,,,,,,,,,,,,,,,,,,,,5f4d50ea11a0409f3b8db045,61036e9deff4554e65c63565,2021-07-29_22h18.14.287,Simcolourproject_2stim_asymm_v5,2020.2.10,Win32,60,61025ae37ef11b136ea224fe,,,,,,,,,2965,73,-33.5,1,0,0,response3disk,,5,11,2.5,1,0,0,rectangle,11,2.5,1,0,0,11,2.5,1,0,0,0,106,106,36,1,,,,,,,,
,,,,,,,,,,,,,FF,,,,,,,,1.0682,,,,,,,,,,,,,,,,,,,,,,5f4d50ea11a0409f3b8db045,61036e9deff4554e65c63565,2021-07-29_22h18.14.287,Simcolourproject_2stim_asymm_v5,2020.2.10,Win32,60,61025ae37ef11b136ea224fe,,,,,,,,,3291,-64,39.5,1,0,0,response7disk,,1,8,-3.5,1,0,0,rectangle,8,-3.5,1,0,0,8,-3.5,1,0,0,0,107,107,124,1,,,,,,,,
,,,,,,,,,,,,,FF,,,,,,,,0.9682,,,,,,,,,,,,,,,,,,,,,,5f4d50ea11a0409f3b8db045,61036e9deff4554e65c63565,2021-07-29_22h18.14.287,Simcolourproject_2stim_asymm_v5,2020.2.10,Win32,60,61025ae37ef11b136ea224fe,,,,,,,,,541,44,96.5,1,0,0,response1disk,,7,12,-3.5,1,0,0,rectangle,12,-3.5,1,0,0,12,-3.5,1,0,0,0,108,108,78,1,,,,,,,,
,,,,,,,,,,,,,FF,,,,,,,,1.5677,,,,,,,,,,,,,,,,,,,,,,5f4d50ea11a0409f3b8db045,61036e9deff4554e65c63565,2021-07-29_22h18.14.287,Simcolourproject_2stim_asymm_v5,2020.2.10,Win32,60,61025ae37ef11b136ea224fe,,,,,,,,,910,28,-68.5,1,0,0,response3disk,,4,12,-4.5,1,0,0,rectangle,12,-4.5,1,0,0,12,-4.5,1,0,0,0,109,109,34,1,,,,,,,,
,,,,,,,,,,,,,FF,,,,,,,,1.6998,,,,,,,,,,,,,,,,,,,,,,5f4d50ea11a0409f3b8db045,61036e9deff4554e65c63565,2021-07-29_22h18.14.287,Simcolourproject_2stim_asymm_v5,2020.2.10,Win32,60,61025ae37ef11b136ea224fe,,,,,,,,,580,79,-36.5,1,0,0,response3disk,,5,9,12.5,1,0,0,rectangle,9,12.5,1,0,0,9,12.5,1,0,0,0,110,110,27,1,,,,,,,,
,,,,,,,,,,,,,FF,,,,,,,,1.35,,,,,,,,,,,,,,,,,,,,,,5f4d50ea11a0409f3b8db045,61036e9deff4554e65c63565,2021-07-29_22h18.14.287,Simcolourproject_2stim_asymm_v5,2020.2.10,Win32,60,61025ae37ef11b136ea224fe,,,,,,,,,4085,-78,-30.5,1,0,0,response5disk,,2,-5,3.5,1,0,0,rectangle,-5,3.5,1,0,0,-5,3.5,1,0,0,0,111,111,5,1,,,,,,,,
,,,,,,,,,,,,,FF,,,,,,,,1.2839,,,,,,,,,,,,,,,,,,,,,,5f4d50ea11a0409f3b8db045,61036e9deff4554e65c63565,2021-07-29_22h18.14.287,Simcolourproject_2stim_asymm_v5,2020.2.10,Win32,60,61025ae37ef11b136ea224fe,,,,,,,,,1027,-32,-60.5,1,0,0,response5disk,,3,3,8.5,1,0,0,rectangle,3,8.5,1,0,0,3,8.5,1,0,0,0,112,112,16,1,,,,,,,,
,,,,,,,,,,,,,FF,,,,,,,,1.0165,,,,,,,,,,,,,,,,,,,,,,5f4d50ea11a0409f3b8db045,61036e9deff4554e65c63565,2021-07-29_22h18.14.287,Simcolourproject_2stim_asymm_v5,2020.2.10,Win32,60,61025ae37ef11b136ea224fe,,,,,,,,,1006,87,36.5,1,0,0,response1disk,,6,11,1.5,1,0,0,rectangle,87,-36.5,1,0,0,10,6.5,1,0,0,0,113,113,31,1,,response3disk_3,TRUE,5,5,"[86,114,209,209,279,186,57,35,104,267,52,257,27,143,191,41,100,10,215,22]",1.566,rectangle
,,,,,,,,,,,,,FF,,,,,,,,1.1672,,,,,,,,,,,,,,,,,,,,,,5f4d50ea11a0409f3b8db045,61036e9deff4554e65c63565,2021-07-29_22h18.14.287,Simcolourproject_2stim_asymm_v5,2020.2.10,Win32,60,61025ae37ef11b136ea224fe,,,,,,,,,368,-60,26.5,1,0,0,response7disk,,1,21,1.5,1,0,0,rectangle,21,1.5,1,0,0,21,1.5,1,0,0,0,114,114,135,1,,,,,,,,
,,,,,,,,,,,,,FF,,,,,,,,3.2507,,,,,,,,,,,,,,,,,,,,,,5f4d50ea11a0409f3b8db045,61036e9deff4554e65c63565,2021-07-29_22h18.14.287,Simcolourproject_2stim_asymm_v5,2020.2.10,Win32,60,61025ae37ef11b136ea224fe,,,,,,,,,3718,-22,-73.5,1,0,0,response5disk,,3,5,-3.5,1,0,0,rectangle,5,-3.5,1,0,0,5,-3.5,1,0,0,0,115,115,35,1,,,,,,,,
,,,,,,,,,,,,,FF,,,,,,,,5.1012,,,,,,,,,,,,,,,,,,,,,,5f4d50ea11a0409f3b8db045,61036e9deff4554e65c63565,2021-07-29_22h18.14.287,Simcolourproject_2stim_asymm_v5,2020.2.10,Win32,60,61025ae37ef11b136ea224fe,,,,,,,,,4346,40,-70.5,1,0,0,response3disk,,4,1,-1.5,1,0,0,rectangle,1,-1.5,1,0,0,1,-1.5,1,0,0,0,116,116,129,1,,,,,,,,
,,,,,,,,,,,,,FF,,,,,,,,2.6157,,,,,,,,,,,,,,,,,,,,,,5f4d50ea11a0409f3b8db045,61036e9deff4554e65c63565,2021-07-29_22h18.14.287,Simcolourproject_2stim_asymm_v5,2020.2.10,Win32,60,61025ae37ef11b136ea224fe,,,,,,,,,732,-37,-60.5,1,0,0,response5disk,,3,10,-0.5,1,0,0,rectangle,10,-0.5,1,0,0,10,-0.5,1,0,0,0,117,117,10,1,,,,,,,,
,,,,,,,,,,,,,FF,,,,,,,,10.7983,,,,,,,,,,,,,,,,,,,,,,5f4d50ea11a0409f3b8db045,61036e9deff4554e65c63565,2021-07-29_22h18.14.287,Simcolourproject_2stim_asymm_v5,2020.2.10,Win32,60,61025ae37ef11b136ea224fe,,,,,,,,,1771,-25,-82.5,1,0,0,response5disk,,3,4,-0.5,1,0,0,rectangle,4,-0.5,1,0,0,4,-0.5,1,0,0,0,118,118,43,1,,,,,,,,
,,,,,,,,,,,,,FF,,,,,,,,0.9834,,,,,,,,,,,,,,,,,,,,,,5f4d50ea11a0409f3b8db045,61036e9deff4554e65c63565,2021-07-29_22h18.14.287,Simcolourproject_2stim_asymm_v5,2020.2.10,Win32,60,61025ae37ef11b136ea224fe,,,,,,,,,3712,-81,41.5,1,0,0,response7disk,,1,-12,6.5,1,0,0,rectangle,-12,6.5,1,0,0,-12,6.5,1,0,0,0,119,119,2,1,,,,,,,,
,,,,,,,,,,,,,FF,,,,,,,,3.4197,,,,,,,,,,,,,,,,,,,,,,5f4d50ea11a0409f3b8db045,61036e9deff4554e65c63565,2021-07-29_22h18.14.287,Simcolourproject_2stim_asymm_v5,2020.2.10,Win32,60,61025ae37ef11b136ea224fe,,,,,,,,,2975,-28,-75.5,1,0,0,response5disk,,3,1,-10.5,1,0,0,rectangle,1,-10.5,1,0,0,1,-10.5,1,0,0,0,120,120,158,1,,,,,,,,
,,,,,,,,,,,,,FF,,,,,,,,4.9395,,,,,,,,,,,,,,,,,,,,,,5f4d50ea11a0409f3b8db045,61036e9deff4554e65c63565,2021-07-29_22h18.14.287,Simcolourproject_2stim_asymm_v5,2020.2.10,Win32,60,61025ae37ef11b136ea224fe,,,,,,,,,1089,48,25.5,1,0,0,response1disk,,6,-4,2.5,1,0,0,rectangle,-4,2.5,1,0,0,-4,2.5,1,0,0,0,121,121,97,1,,,,,,,,
,,,,,,,,,,,,,FF,,,,,,,,1.7834,,,,,,,,,,,,,,,,,,,,,,5f4d50ea11a0409f3b8db045,61036e9deff4554e65c63565,2021-07-29_22h18.14.287,Simcolourproject_2stim_asymm_v5,2020.2.10,Win32,60,61025ae37ef11b136ea224fe,,,,,,,,,3542,20,-74.5,1,0,0,response3disk,,4,-3,-5.5,1,0,0,rectangle,-3,-5.5,1,0,0,-3,-5.5,1,0,0,0,122,122,23,1,,,,,,,,
,,,,,,,,,,,,,FF,,,,,,,,1.969,,,,,,,,,,,,,,,,,,,,,,5f4d50ea11a0409f3b8db045,61036e9deff4554e65c63565,2021-07-29_22h18.14.287,Simcolourproject_2stim_asymm_v5,2020.2.10,Win32,60,61025ae37ef11b136ea224fe,,,,,,,,,527,-73,-33.5,1,0,0,response5disk,,2,7,0.5,1,0,0,rectangle,7,0.5,1,0,0,7,0.5,1,0,0,0,123,123,41,1,,,,,,,,
,,,,,,,,,,,,,FF,,,,,,,,2.8991,,,,,,,,,,,,,,,,,,,,,,5f4d50ea11a0409f3b8db045,61036e9deff4554e65c63565,2021-07-29_22h18.14.287,Simcolourproject_2stim_asymm_v5,2020.2.10,Win32,60,61025ae37ef11b136ea224fe,,,,,,,,,3144,88,-36.5,1,0,0,response3disk,,5,-11,-4.5,1,0,0,rectangle,-11,-4.5,1,0,0,-11,-4.5,1,0,0,0,124,124,64,1,,,,,,,,
,,,,,,,,,,,,,FF,,,,,,,,1.9533,,,,,,,,,,,,,,,,,,,,,,5f4d50ea11a0409f3b8db045,61036e9deff4554e65c63565,2021-07-29_22h18.14.287,Simcolourproject_2stim_asymm_v5,2020.2.10,Win32,60,61025ae37ef11b136ea224fe,,,,,,,,,2016,-39,-75.5,1,0,0,response5disk,,3,-8,-12.5,1,0,0,rectangle,-8,-12.5,1,0,0,-8,-12.5,1,0,0,0,125,125,109,1,,,,,,,,
,,,,,,,,,,,,,FF,,,,,,,,0.9798,,,,,,,,,,,,,,,,,,,,,,5f4d50ea11a0409f3b8db045,61036e9deff4554e65c63565,2021-07-29_22h18.14.287,Simcolourproject_2stim_asymm_v5,2020.2.10,Win32,60,61025ae37ef11b136ea224fe,,,,,,,,,3198,-51,22.5,1,0,0,response7disk,,1,-18,4.5,1,0,0,rectangle,-18,4.5,1,0,0,-18,4.5,1,0,0,0,126,126,84,1,,,,,,,,
,,,,,,,,,,,,,FF,,,,,,,,0.8026,,,,,,,,,,,,,,,,,,,,,,5f4d50ea11a0409f3b8db045,61036e9deff4554e65c63565,2021-07-29_22h18.14.287,Simcolourproject_2stim_asymm_v5,2020.2.10,Win32,60,61025ae37ef11b136ea224fe,,,,,,,,,279,-69,33.5,1,0,0,response7disk,,1,-18,11.5,1,0,0,rectangle,-18,11.5,1,0,0,-18,11.5,1,0,0,0,127,127,62,1,,,,,,,,
,,,,,,,,,,,,,FF,,,,,,,,0.871,,,,,,,,,,,,,,,,,,,,,,5f4d50ea11a0409f3b8db045,61036e9deff4554e65c63565,2021-07-29_22h18.14.287,Simcolourproject_2stim_asymm_v5,2020.2.10,Win32,60,61025ae37ef11b136ea224fe,,,,,,,,,520,-56,-31.5,1,0,0,response5disk,,2,0,8.5,1,0,0,rectangle,0,8.5,1,0,0,0,8.5,1,0,0,0,128,128,116,1,,,,,,,,
,,,,,,,,,,,,,FF,,,,,,,,1.4328,,,,,,,,,,,,,,,,,,,,,,5f4d50ea11a0409f3b8db045,61036e9deff4554e65c63565,2021-07-29_22h18.14.287,Simcolourproject_2stim_asymm_v5,2020.2.10,Win32,60,61025ae37ef11b136ea224fe,,,,,,,,,1567,77,-39.5,1,0,0,response3disk,,5,24,-1.5,1,0,0,rectangle,24,-1.5,1,0,0,24,-1.5,1,0,0,0,129,129,69,1,,,,,,,,
,,,,,,,,,,,,,FF,,,,,,,,2.0843,,,,,,,,,,,,,,,,,,,,,,5f4d50ea11a0409f3b8db045,61036e9deff4554e65c63565,2021-07-29_22h18.14.287,Simcolourproject_2stim_asymm_v5,2020.2.10,Win32,60,61025ae37ef11b136ea224fe,,,,,,,,,2969,-30,-45.5,1,0,0,response5disk,,3,-3,0.5,1,0,0,rectangle,-3,0.5,1,0,0,-3,0.5,1,0,0,0,130,130,136,1,,,,,,,,
,,,,,,,,,,,,,FF,,,,,,,,4.0984,,,,,,,,,,,,,,,,,,,,,,5f4d50ea11a0409f3b8db045,61036e9deff4554e65c63565,2021-07-29_22h18.14.287,Simcolourproject_2stim_asymm_v5,2020.2.10,Win32,60,61025ae37ef11b136ea224fe,,,,,,,,,358,60,-71.5,1,0,0,response3disk,,4,0,-1.5,1,0,0,rectangle,0,-1.5,1,0,0,0,-1.5,1,0,0,0,131,131,81,1,,,,,,,,
,,,,,,,,,,,,,FF,,,,,,,,1.0486,,,,,,,,,,,,,,,,,,,,,,5f4d50ea11a0409f3b8db045,61036e9deff4554e65c63565,2021-07-29_22h18.14.287,Simcolourproject_2stim_asymm_v5,2020.2.10,Win32,60,61025ae37ef11b136ea224fe,,,,,,,,,2845,-38,-57.5,1,0,0,response5disk,,3,0,0.5,1,0,0,rectangle,0,0.5,1,0,0,0,0.5,1,0,0,0,132,132,65,1,,,,,,,,
,,,,,,,,,,,,,FF,,,,,,,,1.4002,,,,,,,,,,,,,,,,,,,,,,5f4d50ea11a0409f3b8db045,61036e9deff4554e65c63565,2021-07-29_22h18.14.287,Simcolourproject_2stim_asymm_v5,2020.2.10,Win32,60,61025ae37ef11b136ea224fe,,,,,,,,,4116,-65,-29.5,1,0,0,response5disk,,2,11,4.5,1,0,0,rectangle,11,4.5,1,0,0,11,4.5,1,0,0,0,133,133,100,1,,,,,,,,
,,,,,,,,,,,,,FF,,,,,,,,1.0165,,,,,,,,,,,,,,,,,,,,,,5f4d50ea11a0409f3b8db045,61036e9deff4554e65c63565,2021-07-29_22h18.14.287,Simcolourproject_2stim_asymm_v5,2020.2.10,Win32,60,61025ae37ef11b136ea224fe,,,,,,,,,3819,-58,-24.5,1,0,0,response5disk,,2,-1,-1.5,1,0,0,rectangle,-1,-1.5,1,0,0,-1,-1.5,1,0,0,0,134,134,131,1,,,,,,,,
,,,,,,,,,,,,,FF,,,,,,,,1.5659,,,,,,,,,,,,,,,,,,,,,,5f4d50ea11a0409f3b8db045,61036e9deff4554e65c63565,2021-07-29_22h18.14.287,Simcolourproject_2stim_asymm_v5,2020.2.10,Win32,60,61025ae37ef11b136ea224fe,,,,,,,,,1800,-43,-57.5,1,0,0,response5disk,,3,9,-0.5,1,0,0,rectangle,9,-0.5,1,0,0,9,-0.5,1,0,0,0,135,135,142,1,,,,,,,,
,,,,,,,,,,,,,FF,,,,,,,,1.7864,,,,,,,,,,,,,,,,,,,,,,5f4d50ea11a0409f3b8db045,61036e9deff4554e65c63565,2021-07-29_22h18.14.287,Simcolourproject_2stim_asymm_v5,2020.2.10,Win32,60,61025ae37ef11b136ea224fe,,,,,,,,,1157,51,-71.5,1,0,0,response3disk,,4,-2,6.5,1,0,0,rectangle,-2,6.5,1,0,0,-2,6.5,1,0,0,0,136,136,48,1,,,,,,,,
,,,,,,,,,,,,,FF,,,,,,,,0.8841,,,,,,,,,,,,,,,,,,,,,,5f4d50ea11a0409f3b8db045,61036e9deff4554e65c63565,2021-07-29_22h18.14.287,Simcolourproject_2stim_asymm_v5,2020.2.10,Win32,60,61025ae37ef11b136ea224fe,,,,,,,,,1301,-56,-26.5,1,0,0,response5disk,,2,6,9.5,1,0,0,rectangle,6,9.5,1,0,0,6,9.5,1,0,0,0,137,137,24,1,,,,,,,,
,,,,,,,,,,,,,FF,,,,,,,,1.6697,,,,,,,,,,,,,,,,,,,,,,5f4d50ea11a0409f3b8db045,61036e9deff4554e65c63565,2021-07-29_22h18.14.287,Simcolourproject_2stim_asymm_v5,2020.2.10,Win32,60,61025ae37ef11b136ea224fe,,,,,,,,,128,-83,-28.5,1,0,0,response5disk,,2,2,2.5,1,0,0,rectangle,2,2.5,1,0,0,2,2.5,1,0,0,0,138,138,137,1,,,,,,,,
,,,,,,,,,,,,,FF,,,,,,,,1.3308,,,,,,,,,,,,,,,,,,,,,,5f4d50ea11a0409f3b8db045,61036e9deff4554e65c63565,2021-07-29_22h18.14.287,Simcolourproject_2stim_asymm_v5,2020.2.10,Win32,60,61025ae37ef11b136ea224fe,,,,,,,,,3425,-39,87.5,1,0,0,response7disk,,0,-3,-2.5,1,0,0,rectangle,-3,-2.5,1,0,0,-3,-2.5,1,0,0,0,139,139,96,1,,,,,,,,
,,,,,,,,,,,,,FF,,,,,,,,1.9998,,,,,,,,,,,,,,,,,,,,,,5f4d50ea11a0409f3b8db045,61036e9deff4554e65c63565,2021-07-29_22h18.14.287,Simcolourproject_2stim_asymm_v5,2020.2.10,Win32,60,61025ae37ef11b136ea224fe,,,,,,,,,3769,-27,-58.5,1,0,0,response5disk,,3,5,5.5,1,0,0,rectangle,5,5.5,1,0,0,5,5.5,1,0,0,0,140,140,144,1,,,,,,,,
,,,,,,,,,,,,,FF,,,,,,,,1.2331,,,,,,,,,,,,,,,,,,,,,,5f4d50ea11a0409f3b8db045,61036e9deff4554e65c63565,2021-07-29_22h18.14.287,Simcolourproject_2stim_asymm_v5,2020.2.10,Win32,60,61025ae37ef11b136ea224fe,,,,,,,,,1122,-75,-25.5,1,0,0,response5disk,,2,19,10.5,1,0,0,rectangle,19,10.5,1,0,0,19,10.5,1,0,0,0,141,141,9,1,,,,,,,,
,,,,,,,,,,,,,FF,,,,,,,,2.1165,,,,,,,,,,,,,,,,,,,,,,5f4d50ea11a0409f3b8db045,61036e9deff4554e65c63565,2021-07-29_22h18.14.287,Simcolourproject_2stim_asymm_v5,2020.2.10,Win32,60,61025ae37ef11b136ea224fe,,,,,,,,,2050,-37,-68.5,1,0,0,response5disk,,3,-5,3.5,1,0,0,rectangle,49,85.5,1,0,0,5,5.5,1,0,0,0,142,142,151,1,,response1disk_3,TRUE,7,7,"[86,114,209,209,279,186,57,35,104,267,52,257,27,143,191,41,100,10,215,22]",2.2633,rectangle
,,,,,,,,,,,,,FF,,,,,,,,2.3357,,,,,,,,,,,,,,,,,,,,,,5f4d50ea11a0409f3b8db045,61036e9deff4554e65c63565,2021-07-29_22h18.14.287,Simcolourproject_2stim_asymm_v5,2020.2.10,Win32,60,61025ae37ef11b136ea224fe,,,,,,,,,34,32,-59.5,1,0,0,response3disk,,4,11,-6.5,1,0,0,rectangle,11,-6.5,1,0,0,11,-6.5,1,0,0,0,143,143,12,1,,,,,,,,
,,,,,,,,,,,,,FF,,,,,,,,0.9674,,,,,,,,,,,,,,,,,,,,,,5f4d50ea11a0409f3b8db045,61036e9deff4554e65c63565,2021-07-29_22h18.14.287,Simcolourproject_2stim_asymm_v5,2020.2.10,Win32,60,61025ae37ef11b136ea224fe,,,,,,,,,2256,-30,-39.5,1,0,0,response5disk,,3,-3,3.5,1,0,0,rectangle,-3,3.5,1,0,0,-3,3.5,1,0,0,0,144,144,91,1,,,,,,,,
,,,,,,,,,,,,,FF,,,,,,,,1.1495,,,,,,,,,,,,,,,,,,,,,,5f4d50ea11a0409f3b8db045,61036e9deff4554e65c63565,2021-07-29_22h18.14.287,Simcolourproject_2stim_asymm_v5,2020.2.10,Win32,60,61025ae37ef11b136ea224fe,,,,,,,,,1276,-62,-39.5,1,0,0,response5disk,,2,-6,5.5,1,0,0,rectangle,-6,5.5,1,0,0,-6,5.5,1,0,0,0,145,145,82,1,,,,,,,,
,,,,,,,,,,,,,FF,,,,,,,,0.8343,,,,,,,,,,,,,,,,,,,,,,5f4d50ea11a0409f3b8db045,61036e9deff4554e65c63565,2021-07-29_22h18.14.287,Simcolourproject_2stim_asymm_v5,2020.2.10,Win32,60,61025ae37ef11b136ea224fe,,,,,,,,,2363,-59,33.5,1,0,0,response7disk,,1,1,7.5,1,0,0,rectangle,1,7.5,1,0,0,1,7.5,1,0,0,0,146,146,154,1,,,,,,,,
,,,,,,,,,,,,,FF,,,,,,,,1.3033,,,,,,,,,,,,,,,,,,,,,,5f4d50ea11a0409f3b8db045,61036e9deff4554e65c63565,2021-07-29_22h18.14.287,Simcolourproject_2stim_asymm_v5,2020.2.10,Win32,60,61025ae37ef11b136ea224fe,,,,,,,,,2342,88,34.5,1,0,0,response1disk,,6,-17,0.5,1,0,0,rectangle,-17,0.5,1,0,0,-17,0.5,1,0,0,0,147,147,113,1,,,,,,,,
,,,,,,,,,,,,,FF,,,,,,,,0.8672,,,,,,,,,,,,,,,,,,,,,,5f4d50ea11a0409f3b8db045,61036e9deff4554e65c63565,2021-07-29_22h18.14.287,Simcolourproject_2stim_asymm_v5,2020.2.10,Win32,60,61025ae37ef11b136ea224fe,,,,,,,,,3933,-51,-20.5,1,0,0,response5disk,,2,-4,-0.5,1,0,0,rectangle,-4,-0.5,1,0,0,-4,-0.5,1,0,0,0,148,148,148,1,,,,,,,,
,,,,,,,,,,,,,FF,,,,,,,,0.8971,,,,,,,,,,,,,,,,,,,,,,5f4d50ea11a0409f3b8db045,61036e9deff4554e65c63565,2021-07-29_22h18.14.287,Simcolourproject_2stim_asymm_v5,2020.2.10,Win32,60,61025ae37ef11b136ea224fe,,,,,,,,,3478,-72,24.5,1,0,0,response7disk,,1,0,3.5,1,0,0,rectangle,0,3.5,1,0,0,0,3.5,1,0,0,0,149,149,6,1,,,,,,,,
,,,,,,,,,,,,,FF,,,,,,,,0.785,,,,,,,,,,,,,,,,,,,,,,5f4d50ea11a0409f3b8db045,61036e9deff4554e65c63565,2021-07-29_22h18.14.287,Simcolourproject_2stim_asymm_v5,2020.2.10,Win32,60,61025ae37ef11b136ea224fe,,,,,,,,,3743,-78,33.5,1,0,0,response7disk,,1,8,1.5,1,0,0,rectangle,8,1.5,1,0,0,8,1.5,1,0,0,0,150,150,37,1,,,,,,,,
,,,,,,,,,,,,,FF,,,,,,,,0.9862,,,,,,,,,,,,,,,,,,,,,,5f4d50ea11a0409f3b8db045,61036e9deff4554e65c63565,2021-07-29_22h18.14.287,Simcolourproject_2stim_asymm_v5,2020.2.10,Win32,60,61025ae37ef11b136ea224fe,,,,,,,,,4266,-41,73.5,1,0,0,response7disk,,0,-5,0.5,1,0,0,rectangle,-5,0.5,1,0,0,-5,0.5,1,0,0,0,151,151,57,1,,,,,,,,
,,,,,,,,,,,,,FF,,,,,,,,1.6504,,,,,,,,,,,,,,,,,,,,,,5f4d50ea11a0409f3b8db045,61036e9deff4554e65c63565,2021-07-29_22h18.14.287,Simcolourproject_2stim_asymm_v5,2020.2.10,Win32,60,61025ae37ef11b136ea224fe,,,,,,,,,3429,-81,30.5,1,0,0,response7disk,,1,0,-4.5,1,0,0,rectangle,0,-4.5,1,0,0,0,-4.5,1,0,0,0,152,152,159,1,,,,,,,,
,,,,,,,,,,,,,FF,,,,,,,,0.8011,,,,,,,,,,,,,,,,,,,,,,5f4d50ea11a0409f3b8db045,61036e9deff4554e65c63565,2021-07-29_22h18.14.287,Simcolourproject_2stim_asymm_v5,2020.2.10,Win32,60,61025ae37ef11b136ea224fe,,,,,,,,,3466,-23,-83.5,1,0,0,response5disk,,3,0,-8.5,1,0,0,rectangle,0,-8.5,1,0,0,0,-8.5,1,0,0,0,153,153,29,1,,,,,,,,
,,,,,,,,,,,,,FF,,,,,,,,1.2833,,,,,,,,,,,,,,,,,,,,,,5f4d50ea11a0409f3b8db045,61036e9deff4554e65c63565,2021-07-29_22h18.14.287,Simcolourproject_2stim_asymm_v5,2020.2.10,Win32,60,61025ae37ef11b136ea224fe,,,,,,,,,2624,40,59.5,1,0,0,response1disk,,7,6,3.5,1,0,0,rectangle,6,3.5,1,0,0,6,3.5,1,0,0,0,154,154,54,1,,,,,,,,
,,,,,,,,,,,,,FF,,,,,,,,2.2815,,,,,,,,,,,,,,,,,,,,,,5f4d50ea11a0409f3b8db045,61036e9deff4554e65c63565,2021-07-29_22h18.14.287,Simcolourproject_2stim_asymm_v5,2020.2.10,Win32,60,61025ae37ef11b136ea224fe,,,,,,,,,3508,77,29.5,1,0,0,response1disk,,6,-4,1.5,1,0,0,rectangle,-4,1.5,1,0,0,-4,1.5,1,0,0,0,155,155,128,1,,,,,,,,
,,,,,,,,,,,,,FF,,,,,,,,1.0696,,,,,,,,,,,,,,,,,,,,,,5f4d50ea11a0409f3b8db045,61036e9deff4554e65c63565,2021-07-29_22h18.14.287,Simcolourproject_2stim_asymm_v5,2020.2.10,Win32,60,61025ae37ef11b136ea224fe,,,,,,,,,692,57,82.5,1,0,0,response1disk,,7,15,3.5,1,0,0,rectangle,15,3.5,1,0,0,15,3.5,1,0,0,0,156,156,0,1,,,,,,,,
,,,,,,,,,,,,,FF,,,,,,,,1.1521,,,,,,,,,,,,,,,,,,,,,,5f4d50ea11a0409f3b8db045,61036e9deff4554e65c63565,2021-07-29_22h18.14.287,Simcolourproject_2stim_asymm_v5,2020.2.10,Win32,60,61025ae37ef11b136ea224fe,,,,,,,,,4211,48,81.5,1,0,0,response1disk,,7,12,-12.5,1,0,0,rectangle,12,-12.5,1,0,0,12,-12.5,1,0,0,0,157,157,102,1,,,,,,,,
,,,,,,,,,,,,,FF,,,,,,,,1.8182,,,,,,,,,,,,,,,,,,,,,,5f4d50ea11a0409f3b8db045,61036e9deff4554e65c63565,2021-07-29_22h18.14.287,Simcolourproject_2stim_asymm_v5,2020.2.10,Win32,60,61025ae37ef11b136ea224fe,,,,,,,,,86,66,-35.5,1,0,0,response3disk,,5,-11,10.5,1,0,0,rectangle,-11,10.5,1,0,0,-11,10.5,1,0,0,0,158,158,130,1,,,,,,,,
,,,,,,,,,,,,,FF,,,,,,,,1.3997,,,,,,,,,,,,,,,,,,,,,,5f4d50ea11a0409f3b8db045,61036e9deff4554e65c63565,2021-07-29_22h18.14.287,Simcolourproject_2stim_asymm_v5,2020.2.10,Win32,60,61025ae37ef11b136ea224fe,,,,,,,,,4171,-30,-60.5,1,0,0,response5disk,,3,0,9.5,1,0,0,rectangle,0,9.5,1,0,0,0,9.5,1,0,0,0,159,159,49,1,,,,,,,,
,,,,,,,,,,,,,FF,,,,,,,,2.8315,,,,,,,,,,,,,,,,,,,,,,5f4d50ea11a0409f3b8db045,61036e9deff4554e65c63565,2021-07-29_22h18.14.287,Simcolourproject_2stim_asymm_v5,2020.2.10,Win32,60,61025ae37ef11b136ea224fe,,,,,,,,,339,79,45.5,1,0,0,response1disk,,6,15,3.5,1,0,0,rectangle,15,3.5,1,0,0,15,3.5,1,0,0,1,0,160,73,1,,,,,,,,
,,,,,,,,,,,,,FF,,,,,,,,1.5027,,,,,,,,,,,,,,,,,,,,,,5f4d50ea11a0409f3b8db045,61036e9deff4554e65c63565,2021-07-29_22h18.14.287,Simcolourproject_2stim_asymm_v5,2020.2.10,Win32,60,61025ae37ef11b136ea224fe,,,,,,,,,1182,81,38.5,1,0,0,response1disk,,6,5,6.5,1,0,0,rectangle,5,6.5,1,0,0,5,6.5,1,0,0,1,1,161,76,1,,,,,,,,
,,,,,,,,,,,,,FF,,,,,,,,1.2835,,,,,,,,,,,,,,,,,,,,,,5f4d50ea11a0409f3b8db045,61036e9deff4554e65c63565,2021-07-29_22h18.14.287,Simcolourproject_2stim_asymm_v5,2020.2.10,Win32,60,61025ae37ef11b136ea224fe,,,,,,,,,2502,40,-66.5,1,0,0,response3disk,,4,1,-5.5,1,0,0,rectangle,1,-5.5,1,0,0,1,-5.5,1,0,0,1,2,162,64,1,,,,,,,,
,,,,,,,,,,,,,FF,,,,,,,,1.0194,,,,,,,,,,,,,,,,,,,,,,5f4d50ea11a0409f3b8db045,61036e9deff4554e65c63565,2021-07-29_22h18.14.287,Simcolourproject_2stim_asymm_v5,2020.2.10,Win32,60,61025ae37ef11b136ea224fe,,,,,,,,,2950,-27,-48.5,1,0,0,response5disk,,3,1,6.5,1,0,0,rectangle,1,6.5,1,0,0,1,6.5,1,0,0,1,3,163,33,1,,,,,,,,
,,,,,,,,,,,,,FF,,,,,,,,1.3805,,,,,,,,,,,,,,,,,,,,,,5f4d50ea11a0409f3b8db045,61036e9deff4554e65c63565,2021-07-29_22h18.14.287,Simcolourproject_2stim_asymm_v5,2020.2.10,Win32,60,61025ae37ef11b136ea224fe,,,,,,,,,3154,-92,42.5,1,0,0,response7disk,,1,-1,6.5,1,0,0,rectangle,-1,6.5,1,0,0,-1,6.5,1,0,0,1,4,164,85,1,,,,,,,,
,,,,,,,,,,,,,FF,,,,,,,,2.4684,,,,,,,,,,,,,,,,,,,,,,5f4d50ea11a0409f3b8db045,61036e9deff4554e65c63565,2021-07-29_22h18.14.287,Simcolourproject_2stim_asymm_v5,2020.2.10,Win32,60,61025ae37ef11b136ea224fe,,,,,,,,,3130,-41,-31.5,1,0,0,response5disk,,2,-2,4.5,1,0,0,rectangle,-2,4.5,1,0,0,-2,4.5,1,0,0,1,5,165,25,1,,,,,,,,
,,,,,,,,,,,,,FF,,,,,,,,1.4025,,,,,,,,,,,,,,,,,,,,,,5f4d50ea11a0409f3b8db045,61036e9deff4554e65c63565,2021-07-29_22h18.14.287,Simcolourproject_2stim_asymm_v5,2020.2.10,Win32,60,61025ae37ef11b136ea224fe,,,,,,,,,4139,69,-33.5,1,0,0,response3disk,,5,28,-8.5,1,0,0,rectangle,28,-8.5,1,0,0,28,-8.5,1,0,0,1,6,166,143,1,,,,,,,,
,,,,,,,,,,,,,FF,,,,,,,,3.9359,,,,,,,,,,,,,,,,,,,,,,5f4d50ea11a0409f3b8db045,61036e9deff4554e65c63565,2021-07-29_22h18.14.287,Simcolourproject_2stim_asymm_v5,2020.2.10,Win32,60,61025ae37ef11b136ea224fe,,,,,,,,,4300,-35,-62.5,1,0,0,response5disk,,3,-6,-9.5,1,0,0,rectangle,-6,-9.5,1,0,0,-6,-9.5,1,0,0,1,7,167,91,1,,,,,,,,
,,,,,,,,,,,,,FF,,,,,,,,0.8983,,,,,,,,,,,,,,,,,,,,,,5f4d50ea11a0409f3b8db045,61036e9deff4554e65c63565,2021-07-29_22h18.14.287,Simcolourproject_2stim_asymm_v5,2020.2.10,Win32,60,61025ae37ef11b136ea224fe,,,,,,,,,2890,-76,30.5,1,0,0,response7disk,,1,12,3.5,1,0,0,rectangle,12,3.5,1,0,0,12,3.5,1,0,0,1,8,168,72,1,,,,,,,,
,,,,,,,,,,,,,FF,,,,,,,,2.8667,,,,,,,,,,,,,,,,,,,,,,5f4d50ea11a0409f3b8db045,61036e9deff4554e65c63565,2021-07-29_22h18.14.287,Simcolourproject_2stim_asymm_v5,2020.2.10,Win32,60,61025ae37ef11b136ea224fe,,,,,,,,,4240,-75,-23.5,1,0,0,response5disk,,2,-11,0.5,1,0,0,rectangle,-11,0.5,1,0,0,-11,0.5,1,0,0,1,9,169,133,1,,,,,,,,
,,,,,,,,,,,,,FF,,,,,,,,1.6995,,,,,,,,,,,,,,,,,,,,,,5f4d50ea11a0409f3b8db045,61036e9deff4554e65c63565,2021-07-29_22h18.14.287,Simcolourproject_2stim_asymm_v5,2020.2.10,Win32,60,61025ae37ef11b136ea224fe,,,,,,,,,1590,-35,-66.5,1,0,0,response5disk,,3,4,-7.5,1,0,0,rectangle,4,-7.5,1,0,0,4,-7.5,1,0,0,1,10,170,86,1,,,,,,,,
,,,,,,,,,,,,,FF,,,,,,,,1.3814,,,,,,,,,,,,,,,,,,,,,,5f4d50ea11a0409f3b8db045,61036e9deff4554e65c63565,2021-07-29_22h18.14.287,Simcolourproject_2stim_asymm_v5,2020.2.10,Win32,60,61025ae37ef11b136ea224fe,,,,,,,,,1574,37,-55.5,1,0,0,response3disk,,4,-2,2.5,1,0,0,rectangle,-2,2.5,1,0,0,-2,2.5,1,0,0,1,11,171,50,1,,,,,,,,
,,,,,,,,,,,,,FF,,,,,,,,0.8474,,,,,,,,,,,,,,,,,,,,,,5f4d50ea11a0409f3b8db045,61036e9deff4554e65c63565,2021-07-29_22h18.14.287,Simcolourproject_2stim_asymm_v5,2020.2.10,Win32,60,61025ae37ef11b136ea224fe,,,,,,,,,3824,-21,-60.5,1,0,0,response5disk,,3,5,-2.5,1,0,0,rectangle,5,-2.5,1,0,0,5,-2.5,1,0,0,1,12,172,77,1,,,,,,,,
,,,,,,,,,,,,,FF,,,,,,,,0.8335,,,,,,,,,,,,,,,,,,,,,,5f4d50ea11a0409f3b8db045,61036e9deff4554e65c63565,2021-07-29_22h18.14.287,Simcolourproject_2stim_asymm_v5,2020.2.10,Win32,60,61025ae37ef11b136ea224fe,,,,,,,,,4262,-27,-68.5,1,0,0,response5disk,,3,-7,2.5,1,0,0,rectangle,-7,2.5,1,0,0,-7,2.5,1,0,0,1,13,173,80,1,,,,,,,,
,,,,,,,,,,,,,FF,,,,,,,,1.7512,,,,,,,,,,,,,,,,,,,,,,5f4d50ea11a0409f3b8db045,61036e9deff4554e65c63565,2021-07-29_22h18.14.287,Simcolourproject_2stim_asymm_v5,2020.2.10,Win32,60,61025ae37ef11b136ea224fe,,,,,,,,,3016,63,28.5,1,0,0,response1disk,,6,13,-1.5,1,0,0,rectangle,13,-1.5,1,0,0,13,-1.5,1,0,0,1,14,174,27,1,,,,,,,,
,,,,,,,,,,,,,FF,,,,,,,,2.9837,,,,,,,,,,,,,,,,,,,,,,5f4d50ea11a0409f3b8db045,61036e9deff4554e65c63565,2021-07-29_22h18.14.287,Simcolourproject_2stim_asymm_v5,2020.2.10,Win32,60,61025ae37ef11b136ea224fe,,,,,,,,,2909,-24,-66.5,1,0,0,response5disk,,3,1,4.5,1,0,0,rectangle,1,4.5,1,0,0,1,4.5,1,0,0,1,15,175,30,1,,,,,,,,
,,,,,,,,,,,,,FF,,,,,,,,3.9356,,,,,,,,,,,,,,,,,,,,,,5f4d50ea11a0409f3b8db045,61036e9deff4554e65c63565,2021-07-29_22h18.14.287,Simcolourproject_2stim_asymm_v5,2020.2.10,Win32,60,61025ae37ef11b136ea224fe,,,,,,,,,1273,81,-47.5,1,0,0,response3disk,,5,8,3.5,1,0,0,rectangle,8,3.5,1,0,0,8,3.5,1,0,0,1,16,176,152,1,,,,,,,,
,,,,,,,,,,,,,FF,,,,,,,,3.1166,,,,,,,,,,,,,,,,,,,,,,5f4d50ea11a0409f3b8db045,61036e9deff4554e65c63565,2021-07-29_22h18.14.287,Simcolourproject_2stim_asymm_v5,2020.2.10,Win32,60,61025ae37ef11b136ea224fe,,,,,,,,,1779,35,-46.5,1,0,0,response3disk,,4,18,5.5,1,0,0,rectangle,18,5.5,1,0,0,18,5.5,1,0,0,1,17,177,3,1,,,,,,,,
,,,,,,,,,,,,,FF,,,,,,,,1.0362,,,,,,,,,,,,,,,,,,,,,,5f4d50ea11a0409f3b8db045,61036e9deff4554e65c63565,2021-07-29_22h18.14.287,Simcolourproject_2stim_asymm_v5,2020.2.10,Win32,60,61025ae37ef11b136ea224fe,,,,,,,,,3518,-68,30.5,1,0,0,response7disk,,1,-24,7.5,1,0,0,rectangle,-24,7.5,1,0,0,-24,7.5,1,0,0,1,18,178,62,1,,,,,,,,
,,,,,,,,,,,,,FF,,,,,,,,2.2139,,,,,,,,,,,,,,,,,,,,,,5f4d50ea11a0409f3b8db045,61036e9deff4554e65c63565,2021-07-29_22h18.14.287,Simcolourproject_2stim_asymm_v5,2020.2.10,Win32,60,61025ae37ef11b136ea224fe,,,,,,,,,2306,-32,-73.5,1,0,0,response5disk,,3,6,6.5,1,0,0,rectangle,6,6.5,1,0,0,6,6.5,1,0,0,1,19,179,108,1,,,,,,,,
,,,,,,,,,,,,,FF,,,,,,,,1.9665,,,,,,,,,,,,,,,,,,,,,,5f4d50ea11a0409f3b8db045,61036e9deff4554e65c63565,2021-07-29_22h18.14.287,Simcolourproject_2stim_asymm_v5,2020.2.10,Win32,60,61025ae37ef11b136ea224fe,,,,,,,,,540,45,-58.5,1,0,0,response3disk,,4,-1,3.5,1,0,0,rectangle,-1,3.5,1,0,0,-1,3.5,1,0,0,1,20,180,60,1,,,,,,,,
,,,,,,,,,,,,,FF,,,,,,,,1.5998,,,,,,,,,,,,,,,,,,,,,,5f4d50ea11a0409f3b8db045,61036e9deff4554e65c63565,2021-07-29_22h18.14.287,Simcolourproject_2stim_asymm_v5,2020.2.10,Win32,60,61025ae37ef11b136ea224fe,,,,,,,,,383,-24,-59.5,1,0,0,response5disk,,3,-3,6.5,1,0,0,rectangle,-3,6.5,1,0,0,-3,6.5,1,0,0,1,21,181,52,1,,,,,,,,
,,,,,,,,,,,,,FF,,,,,,,,4.5493,,,,,,,,,,,,,,,,,,,,,,5f4d50ea11a0409f3b8db045,61036e9deff4554e65c63565,2021-07-29_22h18.14.287,Simcolourproject_2stim_asymm_v5,2020.2.10,Win32,60,61025ae37ef11b136ea224fe,,,,,,,,,715,34,-71.5,1,0,0,response3disk,,4,10,4.5,1,0,0,rectangle,10,4.5,1,0,0,10,4.5,1,0,0,1,22,182,92,1,,,,,,,,
,,,,,,,,,,,,,FF,,,,,,,,1.2498,,,,,,,,,,,,,,,,,,,,,,5f4d50ea11a0409f3b8db045,61036e9deff4554e65c63565,2021-07-29_22h18.14.287,Simcolourproject_2stim_asymm_v5,2020.2.10,Win32,60,61025ae37ef11b136ea224fe,,,,,,,,,1790,99,-22.5,1,0,0,response3disk,,5,-3,-1.5,1,0,0,rectangle,-3,-1.5,1,0,0,-3,-1.5,1,0,0,1,23,183,34,1,,,,,,,,
,,,,,,,,,,,,,FF,,,,,,,,2.1496,,,,,,,,,,,,,,,,,,,,,,5f4d50ea11a0409f3b8db045,61036e9deff4554e65c63565,2021-07-29_22h18.14.287,Simcolourproject_2stim_asymm_v5,2020.2.10,Win32,60,61025ae37ef11b136ea224fe,,,,,,,,,687,33,-44.5,1,0,0,response3disk,,4,9,-1.5,1,0,0,rectangle,9,-1.5,1,0,0,9,-1.5,1,0,0,1,24,184,5,1,,,,,,,,
,,,,,,,,,,,,,FF,,,,,,,,1.1988,,,,,,,,,,,,,,,,,,,,,,5f4d50ea11a0409f3b8db045,61036e9deff4554e65c63565,2021-07-29_22h18.14.287,Simcolourproject_2stim_asymm_v5,2020.2.10,Win32,60,61025ae37ef11b136ea224fe,,,,,,,,,947,-42,-52.5,1,0,0,response5disk,,3,1,8.5,1,0,0,rectangle,45,82.5,1,0,0,7,-12.5,1,0,0,1,25,185,83,1,,response1disk_3,TRUE,7,7,"[86,114,209,209,279,186,57,35,104,267,52,257,27,143,191,41,100,10,215,22]",1.4496,rectangle
,,,,,,,,,,,,,FF,,,,,,,,1.0659,,,,,,,,,,,,,,,,,,,,,,5f4d50ea11a0409f3b8db045,61036e9deff4554e65c63565,2021-07-29_22h18.14.287,Simcolourproject_2stim_asymm_v5,2020.2.10,Win32,60,61025ae37ef11b136ea224fe,,,,,,,,,4342,26,81.5,1,0,0,response1disk,,7,-2,-4.5,1,0,0,rectangle,-2,-4.5,1,0,0,-2,-4.5,1,0,0,1,26,186,146,1,,,,,,,,
,,,,,,,,,,,,,FF,,,,,,,,1.0168,,,,,,,,,,,,,,,,,,,,,,5f4d50ea11a0409f3b8db045,61036e9deff4554e65c63565,2021-07-29_22h18.14.287,Simcolourproject_2stim_asymm_v5,2020.2.10,Win32,60,61025ae37ef11b136ea224fe,,,,,,,,,3102,-58,30.5,1,0,0,response7disk,,1,16,-7.5,1,0,0,rectangle,16,-7.5,1,0,0,16,-7.5,1,0,0,1,27,187,151,1,,,,,,,,
,,,,,,,,,,,,,FF,,,,,,,,4.3673,,,,,,,,,,,,,,,,,,,,,,5f4d50ea11a0409f3b8db045,61036e9deff4554e65c63565,2021-07-29_22h18.14.287,Simcolourproject_2stim_asymm_v5,2020.2.10,Win32,60,61025ae37ef11b136ea224fe,,,,,,,,,2497,88,-28.5,1,0,0,response3disk,,5,8,9.5,1,0,0,rectangle,8,9.5,1,0,0,8,9.5,1,0,0,1,28,188,65,1,,,,,,,,
,,,,,,,,,,,,,FF,,,,,,,,1.3499,,,,,,,,,,,,,,,,,,,,,,5f4d50ea11a0409f3b8db045,61036e9deff4554e65c63565,2021-07-29_22h18.14.287,Simcolourproject_2stim_asymm_v5,2020.2.10,Win32,60,61025ae37ef11b136ea224fe,,,,,,,,,2563,33,-70.5,1,0,0,response3disk,,4,7,2.5,1,0,0,rectangle,7,2.5,1,0,0,7,2.5,1,0,0,1,29,189,58,1,,,,,,,,
,,,,,,,,,,,,,FF,,,,,,,,1.5665,,,,,,,,,,,,,,,,,,,,,,5f4d50ea11a0409f3b8db045,61036e9deff4554e65c63565,2021-07-29_22h18.14.287,Simcolourproject_2stim_asymm_v5,2020.2.10,Win32,60,61025ae37ef11b136ea224fe,,,,,,,,,1198,32,-67.5,1,0,0,response3disk,,4,6,-0.5,1,0,0,rectangle,55,-81.5,1,0,0,4,-2.5,1,0,0,1,30,190,134,1,,response3disk_3,TRUE,4,4,"[86,114,209,209,279,186,57,35,104,267,52,257,27,143,191,41,100,10,215,22]",2.4343,rectangle
,,,,,,,,,,,,,FF,,,,,,,,1.883,,,,,,,,,,,,,,,,,,,,,,5f4d50ea11a0409f3b8db045,61036e9deff4554e65c63565,2021-07-29_22h18.14.287,Simcolourproject_2stim_asymm_v5,2020.2.10,Win32,60,61025ae37ef11b136ea224fe,,,,,,,,,1915,46,-56.5,1,0,0,response3disk,,4,-3,12.5,1,0,0,rectangle,-3,12.5,1,0,0,-3,12.5,1,0,0,1,31,191,22,1,,,,,,,,
,,,,,,,,,,,,,FF,,,,,,,,1.7001,,,,,,,,,,,,,,,,,,,,,,5f4d50ea11a0409f3b8db045,61036e9deff4554e65c63565,2021-07-29_22h18.14.287,Simcolourproject_2stim_asymm_v5,2020.2.10,Win32,60,61025ae37ef11b136ea224fe,,,,,,,,,1814,-37,-53.5,1,0,0,response5disk,,3,10,-4.5,1,0,0,rectangle,10,-4.5,1,0,0,10,-4.5,1,0,0,1,32,192,40,1,,,,,,,,
,,,,,,,,,,,,,FF,,,,,,,,2.1664,,,,,,,,,,,,,,,,,,,,,,5f4d50ea11a0409f3b8db045,61036e9deff4554e65c63565,2021-07-29_22h18.14.287,Simcolourproject_2stim_asymm_v5,2020.2.10,Win32,60,61025ae37ef11b136ea224fe,,,,,,,,,3438,40,-70.5,1,0,0,response3disk,,4,-7,2.5,1,0,0,rectangle,-7,2.5,1,0,0,-7,2.5,1,0,0,1,33,193,144,1,,,,,,,,
,,,,,,,,,,,,,FF,,,,,,,,3.1318,,,,,,,,,,,,,,,,,,,,,,5f4d50ea11a0409f3b8db045,61036e9deff4554e65c63565,2021-07-29_22h18.14.287,Simcolourproject_2stim_asymm_v5,2020.2.10,Win32,60,61025ae37ef11b136ea224fe,,,,,,,,,3267,-40,-75.5,1,0,0,response5disk,,3,1,8.5,1,0,0,rectangle,1,8.5,1,0,0,1,8.5,1,0,0,1,34,194,81,1,,,,,,,,
,,,,,,,,,,,,,FF,,,,,,,,1.6833,,,,,,,,,,,,,,,,,,,,,,5f4d50ea11a0409f3b8db045,61036e9deff4554e65c63565,2021-07-29_22h18.14.287,Simcolourproject_2stim_asymm_v5,2020.2.10,Win32,60,61025ae37ef11b136ea224fe,,,,,,,,,506,56,80.5,1,0,0,response1disk,,7,4,3.5,1,0,0,rectangle,4,3.5,1,0,0,4,3.5,1,0,0,1,35,195,97,1,,,,,,,,
,,,,,,,,,,,,,FF,,,,,,,,2.1361,,,,,,,,,,,,,,,,,,,,,,5f4d50ea11a0409f3b8db045,61036e9deff4554e65c63565,2021-07-29_22h18.14.287,Simcolourproject_2stim_asymm_v5,2020.2.10,Win32,60,61025ae37ef11b136ea224fe,,,,,,,,,2877,-31,-66.5,1,0,0,response5disk,,3,-2,-11.5,1,0,0,rectangle,-2,-11.5,1,0,0,-2,-11.5,1,0,0,1,36,196,39,1,,,,,,,,
,,,,,,,,,,,,,FF,,,,,,,,0.9666,,,,,,,,,,,,,,,,,,,,,,5f4d50ea11a0409f3b8db045,61036e9deff4554e65c63565,2021-07-29_22h18.14.287,Simcolourproject_2stim_asymm_v5,2020.2.10,Win32,60,61025ae37ef11b136ea224fe,,,,,,,,,666,-26,-40.5,1,0,0,response5disk,,3,-2,-6.5,1,0,0,rectangle,-2,-6.5,1,0,0,-2,-6.5,1,0,0,1,37,197,100,1,,,,,,,,
,,,,,,,,,,,,,FF,,,,,,,,1.1499,,,,,,,,,,,,,,,,,,,,,,5f4d50ea11a0409f3b8db045,61036e9deff4554e65c63565,2021-07-29_22h18.14.287,Simcolourproject_2stim_asymm_v5,2020.2.10,Win32,60,61025ae37ef11b136ea224fe,,,,,,,,,966,38,53.5,1,0,0,response1disk,,7,-3,8.5,1,0,0,rectangle,-3,8.5,1,0,0,-3,8.5,1,0,0,1,38,198,90,1,,,,,,,,
,,,,,,,,,,,,,FF,,,,,,,,1.4841,,,,,,,,,,,,,,,,,,,,,,5f4d50ea11a0409f3b8db045,61036e9deff4554e65c63565,2021-07-29_22h18.14.287,Simcolourproject_2stim_asymm_v5,2020.2.10,Win32,60,61025ae37ef11b136ea224fe,,,,,,,,,2323,73,-25.5,1,0,0,response3disk,,5,19,2.5,1,0,0,rectangle,19,2.5,1,0,0,19,2.5,1,0,0,1,39,199,121,1,,,,,,,,
,,,,,,,,,,,,,FF,,,,,,,,1.9996,,,,,,,,,,,,,,,,,,,,,,5f4d50ea11a0409f3b8db045,61036e9deff4554e65c63565,2021-07-29_22h18.14.287,Simcolourproject_2stim_asymm_v5,2020.2.10,Win32,60,61025ae37ef11b136ea224fe,,,,,,,,,1277,24,-65.5,1,0,0,response3disk,,4,-6,-1.5,1,0,0,rectangle,-6,-1.5,1,0,0,-6,-1.5,1,0,0,1,40,200,35,1,,,,,,,,
,,,,,,,,,,,,,FF,,,,,,,,0.9334,,,,,,,,,,,,,,,,,,,,,,5f4d50ea11a0409f3b8db045,61036e9deff4554e65c63565,2021-07-29_22h18.14.287,Simcolourproject_2stim_asymm_v5,2020.2.10,Win32,60,61025ae37ef11b136ea224fe,,,,,,,,,826,-18,-67.5,1,0,0,response5disk,,3,0,1.5,1,0,0,rectangle,0,1.5,1,0,0,0,1.5,1,0,0,1,41,201,0,1,,,,,,,,
,,,,,,,,,,,,,FF,,,,,,,,1.5826,,,,,,,,,,,,,,,,,,,,,,5f4d50ea11a0409f3b8db045,61036e9deff4554e65c63565,2021-07-29_22h18.14.287,Simcolourproject_2stim_asymm_v5,2020.2.10,Win32,60,61025ae37ef11b136ea224fe,,,,,,,,,3904,29,39.5,1,0,0,response1disk,,7,16,4.5,1,0,0,rectangle,16,4.5,1,0,0,16,4.5,1,0,0,1,42,202,105,1,,,,,,,,
,,,,,,,,,,,,,FF,,,,,,,,2.499,,,,,,,,,,,,,,,,,,,,,,5f4d50ea11a0409f3b8db045,61036e9deff4554e65c63565,2021-07-29_22h18.14.287,Simcolourproject_2stim_asymm_v5,2020.2.10,Win32,60,61025ae37ef11b136ea224fe,,,,,,,,,1999,45,-59.5,1,0,0,response3disk,,4,5,8.5,1,0,0,rectangle,5,8.5,1,0,0,5,8.5,1,0,0,1,43,203,140,1,,,,,,,,
,,,,,,,,,,,,,FF,,,,,,,,0.8829,,,,,,,,,,,,,,,,,,,,,,5f4d50ea11a0409f3b8db045,61036e9deff4554e65c63565,2021-07-29_22h18.14.287,Simcolourproject_2stim_asymm_v5,2020.2.10,Win32,60,61025ae37ef11b136ea224fe,,,,,,,,,1243,22,-67.5,1,0,0,response3disk,,4,-1,-8.5,1,0,0,rectangle,-1,-8.5,1,0,0,-1,-8.5,1,0,0,1,44,204,71,1,,,,,,,,
,,,,,,,,,,,,,FF,,,,,,,,1.0845,,,,,,,,,,,,,,,,,,,,,,5f4d50ea11a0409f3b8db045,61036e9deff4554e65c63565,2021-07-29_22h18.14.287,Simcolourproject_2stim_asymm_v5,2020.2.10,Win32,60,61025ae37ef11b136ea224fe,,,,,,,,,2997,-104,32.5,1,0,0,response7disk,,1,8,0.5,1,0,0,rectangle,8,0.5,1,0,0,8,0.5,1,0,0,1,45,205,139,1,,,,,,,,
,,,,,,,,,,,,,FF,,,,,,,,1.2663,,,,,,,,,,,,,,,,,,,,,,5f4d50ea11a0409f3b8db045,61036e9deff4554e65c63565,2021-07-29_22h18.14.287,Simcolourproject_2stim_asymm_v5,2020.2.10,Win32,60,61025ae37ef11b136ea224fe,,,,,,,,,1386,-72,39.5,1,0,0,response7disk,,1,-6,10.5,1,0,0,rectangle,-6,10.5,1,0,0,-6,10.5,1,0,0,1,46,206,111,1,,,,,,,,
,,,,,,,,,,,,,FF,,,,,,,,0.95,,,,,,,,,,,,,,,,,,,,,,5f4d50ea11a0409f3b8db045,61036e9deff4554e65c63565,2021-07-29_22h18.14.287,Simcolourproject_2stim_asymm_v5,2020.2.10,Win32,60,61025ae37ef11b136ea224fe,,,,,,,,,3747,-75,29.5,1,0,0,response7disk,,1,3,0.5,1,0,0,rectangle,3,0.5,1,0,0,3,0.5,1,0,0,1,47,207,78,1,,,,,,,,
,,,,,,,,,,,,,FF,,,,,,,,1.5974,,,,,,,,,,,,,,,,,,,,,,5f4d50ea11a0409f3b8db045,61036e9deff4554e65c63565,2021-07-29_22h18.14.287,Simcolourproject_2stim_asymm_v5,2020.2.10,Win32,60,61025ae37ef11b136ea224fe,,,,,,,,,1414,51,64.5,1,0,0,response1disk,,7,21,5.5,1,0,0,rectangle,94,-33.5,1,0,0,1,-1.5,1,0,0,1,48,208,24,1,,response3disk_3,TRUE,5,5,"[86,114,209,209,279,186,57,35,104,267,52,257,27,143,191,41,100,10,215,22]",1.4494,rectangle
,,,,,,,,,,,,,FF,,,,,,,,1.2503,,,,,,,,,,,,,,,,,,,,,,5f4d50ea11a0409f3b8db045,61036e9deff4554e65c63565,2021-07-29_22h18.14.287,Simcolourproject_2stim_asymm_v5,2020.2.10,Win32,60,61025ae37ef11b136ea224fe,,,,,,,,,3568,39,92.5,1,0,0,response1disk,,7,-2,-1.5,1,0,0,rectangle,-2,-1.5,1,0,0,-2,-1.5,1,0,0,1,49,209,66,1,,,,,,,,
,,,,,,,,,,,,,FF,,,,,,,,2.6664,,,,,,,,,,,,,,,,,,,,,,5f4d50ea11a0409f3b8db045,61036e9deff4554e65c63565,2021-07-29_22h18.14.287,Simcolourproject_2stim_asymm_v5,2020.2.10,Win32,60,61025ae37ef11b136ea224fe,,,,,,,,,2257,66,-28.5,1,0,0,response3disk,,5,-3,6.5,1,0,0,rectangle,-3,6.5,1,0,0,-3,6.5,1,0,0,1,50,210,137,1,,,,,,,,
,,,,,,,,,,,,,FF,,,,,,,,1.4498,,,,,,,,,,,,,,,,,,,,,,5f4d50ea11a0409f3b8db045,61036e9deff4554e65c63565,2021-07-29_22h18.14.287,Simcolourproject_2stim_asymm_v5,2020.2.10,Win32,60,61025ae37ef11b136ea224fe,,,,,,,,,2807,33,72.5,1,0,0,response1disk,,7,11,1.5,1,0,0,rectangle,11,1.5,1,0,0,11,1.5,1,0,0,1,51,211,103,1,,,,,,,,
,,,,,,,,,,,,,FF,,,,,,,,1.0335,,,,,,,,,,,,,,,,,,,,,,5f4d50ea11a0409f3b8db045,61036e9deff4554e65c63565,2021-07-29_22h18.14.287,Simcolourproject_2stim_asymm_v5,2020.2.10,Win32,60,61025ae37ef11b136ea224fe,,,,,,,,,4323,52,90.5,1,0,0,response1disk,,7,4,-1.5,1,0,0,rectangle,4,-1.5,1,0,0,4,-1.5,1,0,0,1,52,212,98,1,,,,,,,,
,,,,,,,,,,,,,FF,,,,,,,,1.4664,,,,,,,,,,,,,,,,,,,,,,5f4d50ea11a0409f3b8db045,61036e9deff4554e65c63565,2021-07-29_22h18.14.287,Simcolourproject_2stim_asymm_v5,2020.2.10,Win32,60,61025ae37ef11b136ea224fe,,,,,,,,,203,67,-39.5,1,0,0,response3disk,,5,13,2.5,1,0,0,rectangle,13,2.5,1,0,0,13,2.5,1,0,0,1,53,213,147,1,,,,,,,,
,,,,,,,,,,,,,FF,,,,,,,,1.2332,,,,,,,,,,,,,,,,,,,,,,5f4d50ea11a0409f3b8db045,61036e9deff4554e65c63565,2021-07-29_22h18.14.287,Simcolourproject_2stim_asymm_v5,2020.2.10,Win32,60,61025ae37ef11b136ea224fe,,,,,,,,,767,48,-84.5,1,0,0,response3disk,,4,0,-1.5,1,0,0,rectangle,-80,41.5,1,0,0,-1,-1.5,1,0,0,1,54,214,150,1,,response7disk_3,TRUE,1,1,"[86,114,209,209,279,186,57,35,104,267,52,257,27,143,191,41,100,10,215,22]",1.5504,rectangle
,,,,,,,,,,,,,FF,,,,,,,,1.9496,,,,,,,,,,,,,,,,,,,,,,5f4d50ea11a0409f3b8db045,61036e9deff4554e65c63565,2021-07-29_22h18.14.287,Simcolourproject_2stim_asymm_v5,2020.2.10,Win32,60,61025ae37ef11b136ea224fe,,,,,,,,,2010,-23,-72.5,1,0,0,response5disk,,3,0,7.5,1,0,0,rectangle,0,7.5,1,0,0,0,7.5,1,0,0,1,55,215,109,1,,,,,,,,
,,,,,,,,,,,,,FF,,,,,,,,1.1332,,,,,,,,,,,,,,,,,,,,,,5f4d50ea11a0409f3b8db045,61036e9deff4554e65c63565,2021-07-29_22h18.14.287,Simcolourproject_2stim_asymm_v5,2020.2.10,Win32,60,61025ae37ef11b136ea224fe,,,,,,,,,1928,69,-44.5,1,0,0,response3disk,,5,15,-1.5,1,0,0,rectangle,15,-1.5,1,0,0,15,-1.5,1,0,0,1,56,216,55,1,,,,,,,,
,,,,,,,,,,,,,FF,,,,,,,,2.7997,,,,,,,,,,,,,,,,,,,,,,5f4d50ea11a0409f3b8db045,61036e9deff4554e65c63565,2021-07-29_22h18.14.287,Simcolourproject_2stim_asymm_v5,2020.2.10,Win32,60,61025ae37ef11b136ea224fe,,,,,,,,,4260,29,-52.5,1,0,0,response3disk,,4,15,-0.5,1,0,0,rectangle,15,-0.5,1,0,0,15,-0.5,1,0,0,1,57,217,67,1,,,,,,,,
,,,,,,,,,,,,,FF,,,,,,,,0.9498,,,,,,,,,,,,,,,,,,,,,,5f4d50ea11a0409f3b8db045,61036e9deff4554e65c63565,2021-07-29_22h18.14.287,Simcolourproject_2stim_asymm_v5,2020.2.10,Win32,60,61025ae37ef11b136ea224fe,,,,,,,,,3963,39,75.5,1,0,0,response1disk,,7,10,1.5,1,0,0,rectangle,10,1.5,1,0,0,10,1.5,1,0,0,1,58,218,126,1,,,,,,,,
,,,,,,,,,,,,,FF,,,,,,,,0.8833,,,,,,,,,,,,,,,,,,,,,,5f4d50ea11a0409f3b8db045,61036e9deff4554e65c63565,2021-07-29_22h18.14.287,Simcolourproject_2stim_asymm_v5,2020.2.10,Win32,60,61025ae37ef11b136ea224fe,,,,,,,,,3294,-70,43.5,1,0,0,response7disk,,1,18,-2.5,1,0,0,rectangle,18,-2.5,1,0,0,18,-2.5,1,0,0,1,59,219,154,1,,,,,,,,
,,,,,,,,,,,,,FF,,,,,,,,2.2158,,,,,,,,,,,,,,,,,,,,,,5f4d50ea11a0409f3b8db045,61036e9deff4554e65c63565,2021-07-29_22h18.14.287,Simcolourproject_2stim_asymm_v5,2020.2.10,Win32,60,61025ae37ef11b136ea224fe,,,,,,,,,607,-62,-42.5,1,0,0,response5disk,,2,0,-1.5,1,0,0,rectangle,0,-1.5,1,0,0,0,-1.5,1,0,0,1,60,220,26,1,,,,,,,,
,,,,,,,,,,,,,FF,,,,,,,,1.432,,,,,,,,,,,,,,,,,,,,,,5f4d50ea11a0409f3b8db045,61036e9deff4554e65c63565,2021-07-29_22h18.14.287,Simcolourproject_2stim_asymm_v5,2020.2.10,Win32,60,61025ae37ef11b136ea224fe,,,,,,,,,1834,37,-82.5,1,0,0,response3disk,,4,-11,11.5,1,0,0,rectangle,-11,11.5,1,0,0,-11,11.5,1,0,0,1,61,221,17,1,,,,,,,,
,,,,,,,,,,,,,FF,,,,,,,,0.9666,,,,,,,,,,,,,,,,,,,,,,5f4d50ea11a0409f3b8db045,61036e9deff4554e65c63565,2021-07-29_22h18.14.287,Simcolourproject_2stim_asymm_v5,2020.2.10,Win32,60,61025ae37ef11b136ea224fe,,,,,,,,,765,36,68.5,1,0,0,response1disk,,7,8,1.5,1,0,0,rectangle,8,1.5,1,0,0,8,1.5,1,0,0,1,62,222,104,1,,,,,,,,
,,,,,,,,,,,,,FF,,,,,,,,0.8841,,,,,,,,,,,,,,,,,,,,,,5f4d50ea11a0409f3b8db045,61036e9deff4554e65c63565,2021-07-29_22h18.14.287,Simcolourproject_2stim_asymm_v5,2020.2.10,Win32,60,61025ae37ef11b136ea224fe,,,,,,,,,1143,-55,26.5,1,0,0,response7disk,,1,5,4.5,1,0,0,rectangle,5,4.5,1,0,0,5,4.5,1,0,0,1,63,223,101,1,,,,,,,,
,,,,,,,,,,,,,FF,,,,,,,,0.8502,,,,,,,,,,,,,,,,,,,,,,5f4d50ea11a0409f3b8db045,61036e9deff4554e65c63565,2021-07-29_22h18.14.287,Simcolourproject_2stim_asymm_v5,2020.2.10,Win32,60,61025ae37ef11b136ea224fe,,,,,,,,,2300,-89,32.5,1,0,0,response7disk,,1,-2,-0.5,1,0,0,rectangle,-2,-0.5,1,0,0,-2,-0.5,1,0,0,1,64,224,32,1,,,,,,,,
,,,,,,,,,,,,,FF,,,,,,,,1.5662,,,,,,,,,,,,,,,,,,,,,,5f4d50ea11a0409f3b8db045,61036e9deff4554e65c63565,2021-07-29_22h18.14.287,Simcolourproject_2stim_asymm_v5,2020.2.10,Win32,60,61025ae37ef11b136ea224fe,,,,,,,,,1862,77,23.5,1,0,0,response1disk,,6,0,1.5,1,0,0,rectangle,0,1.5,1,0,0,0,1.5,1,0,0,1,65,225,149,1,,,,,,,,
,,,,,,,,,,,,,FF,,,,,,,,1.1673,,,,,,,,,,,,,,,,,,,,,,5f4d50ea11a0409f3b8db045,61036e9deff4554e65c63565,2021-07-29_22h18.14.287,Simcolourproject_2stim_asymm_v5,2020.2.10,Win32,60,61025ae37ef11b136ea224fe,,,,,,,,,2980,26,-60.5,1,0,0,response3disk,,4,-11,6.5,1,0,0,rectangle,-11,6.5,1,0,0,-11,6.5,1,0,0,1,66,226,114,1,,,,,,,,
,,,,,,,,,,,,,FF,,,,,,,,1.5828,,,,,,,,,,,,,,,,,,,,,,5f4d50ea11a0409f3b8db045,61036e9deff4554e65c63565,2021-07-29_22h18.14.287,Simcolourproject_2stim_asymm_v5,2020.2.10,Win32,60,61025ae37ef11b136ea224fe,,,,,,,,,3241,43,67.5,1,0,0,response1disk,,7,13,2.5,1,0,0,rectangle,13,2.5,1,0,0,13,2.5,1,0,0,1,67,227,69,1,,,,,,,,
,,,,,,,,,,,,,FF,,,,,,,,1.0363,,,,,,,,,,,,,,,,,,,,,,5f4d50ea11a0409f3b8db045,61036e9deff4554e65c63565,2021-07-29_22h18.14.287,Simcolourproject_2stim_asymm_v5,2020.2.10,Win32,60,61025ae37ef11b136ea224fe,,,,,,,,,2818,49,-31.5,1,0,0,response3disk,,5,-6,-4.5,1,0,0,rectangle,-6,-4.5,1,0,0,-6,-4.5,1,0,0,1,68,228,119,1,,,,,,,,
,,,,,,,,,,,,,FF,,,,,,,,1.0959,,,,,,,,,,,,,,,,,,,,,,5f4d50ea11a0409f3b8db045,61036e9deff4554e65c63565,2021-07-29_22h18.14.287,Simcolourproject_2stim_asymm_v5,2020.2.10,Win32,60,61025ae37ef11b136ea224fe,,,,,,,,,2651,-80,28.5,1,0,0,response7disk,,1,-13,9.5,1,0,0,rectangle,-13,9.5,1,0,0,-13,9.5,1,0,0,1,69,229,156,1,,,,,,,,
,,,,,,,,,,,,,FF,,,,,,,,1.4861,,,,,,,,,,,,,,,,,,,,,,5f4d50ea11a0409f3b8db045,61036e9deff4554e65c63565,2021-07-29_22h18.14.287,Simcolourproject_2stim_asymm_v5,2020.2.10,Win32,60,61025ae37ef11b136ea224fe,,,,,,,,,3571,43,-54.5,1,0,0,response3disk,,4,11,-2.5,1,0,0,rectangle,11,-2.5,1,0,0,11,-2.5,1,0,0,1,70,230,136,1,,,,,,,,
,,,,,,,,,,,,,FF,,,,,,,,1.4021,,,,,,,,,,,,,,,,,,,,,,5f4d50ea11a0409f3b8db045,61036e9deff4554e65c63565,2021-07-29_22h18.14.287,Simcolourproject_2stim_asymm_v5,2020.2.10,Win32,60,61025ae37ef11b136ea224fe,,,,,,,,,2147,-41,-92.5,1,0,0,response5disk,,3,12,6.5,1,0,0,rectangle,12,6.5,1,0,0,12,6.5,1,0,0,1,71,231,117,1,,,,,,,,
,,,,,,,,,,,,,FF,,,,,,,,10.8124,,,,,,,,,,,,,,,,,,,,,,5f4d50ea11a0409f3b8db045,61036e9deff4554e65c63565,2021-07-29_22h18.14.287,Simcolourproject_2stim_asymm_v5,2020.2.10,Win32,60,61025ae37ef11b136ea224fe,,,,,,,,,823,65,-44.5,1,0,0,response3disk,,5,8,4.5,1,0,0,rectangle,8,4.5,1,0,0,8,4.5,1,0,0,1,72,232,21,1,,,,,,,,
,,,,,,,,,,,,,FF,,,,,,,,4.3831,,,,,,,,,,,,,,,,,,,,,,5f4d50ea11a0409f3b8db045,61036e9deff4554e65c63565,2021-07-29_22h18.14.287,Simcolourproject_2stim_asymm_v5,2020.2.10,Win32,60,61025ae37ef11b136ea224fe,,,,,,,,,2513,34,-73.5,1,0,0,response3disk,,4,-3,4.5,1,0,0,rectangle,-3,4.5,1,0,0,-3,4.5,1,0,0,1,73,233,46,1,,,,,,,,
,,,,,,,,,,,,,FF,,,,,,,,1.3654,,,,,,,,,,,,,,,,,,,,,,5f4d50ea11a0409f3b8db045,61036e9deff4554e65c63565,2021-07-29_22h18.14.287,Simcolourproject_2stim_asymm_v5,2020.2.10,Win32,60,61025ae37ef11b136ea224fe,,,,,,,,,1545,-48,-35.5,1,0,0,response5disk,,2,2,-0.5,1,0,0,rectangle,2,-0.5,1,0,0,2,-0.5,1,0,0,1,74,234,68,1,,,,,,,,
,,,,,,,,,,,,,FF,,,,,,,,5.7675,,,,,,,,,,,,,,,,,,,,,,5f4d50ea11a0409f3b8db045,61036e9deff4554e65c63565,2021-07-29_22h18.14.287,Simcolourproject_2stim_asymm_v5,2020.2.10,Win32,60,61025ae37ef11b136ea224fe,,,,,,,,,3713,-81,-27.5,1,0,0,response5disk,,2,6,11.5,1,0,0,rectangle,6,11.5,1,0,0,6,11.5,1,0,0,1,75,235,125,1,,,,,,,,
,,,,,,,,,,,,,FF,,,,,,,,2.2493,,,,,,,,,,,,,,,,,,,,,,5f4d50ea11a0409f3b8db045,61036e9deff4554e65c63565,2021-07-29_22h18.14.287,Simcolourproject_2stim_asymm_v5,2020.2.10,Win32,60,61025ae37ef11b136ea224fe,,,,,,,,,100,-87,-26.5,1,0,0,response5disk,,2,6,-6.5,1,0,0,rectangle,6,-6.5,1,0,0,6,-6.5,1,0,0,1,76,236,155,1,,,,,,,,
,,,,,,,,,,,,,FF,,,,,,,,2.6982,,,,,,,,,,,,,,,,,,,,,,5f4d50ea11a0409f3b8db045,61036e9deff4554e65c63565,2021-07-29_22h18.14.287,Simcolourproject_2stim_asymm_v5,2020.2.10,Win32,60,61025ae37ef11b136ea224fe,,,,,,,,,2528,34,-62.5,1,0,0,response3disk,,4,0,1.5,1,0,0,rectangle,0,1.5,1,0,0,0,1.5,1,0,0,1,77,237,127,1,,,,,,,,
,,,,,,,,,,,,,FF,,,,,,,,1.7853,,,,,,,,,,,,,,,,,,,,,,5f4d50ea11a0409f3b8db045,61036e9deff4554e65c63565,2021-07-29_22h18.14.287,Simcolourproject_2stim_asymm_v5,2020.2.10,Win32,60,61025ae37ef11b136ea224fe,,,,,,,,,398,24,-65.5,1,0,0,response3disk,,4,-7,4.5,1,0,0,rectangle,-7,4.5,1,0,0,-7,4.5,1,0,0,1,78,238,18,1,,,,,,,,
,,,,,,,,,,,,,FF,,,,,,,,1.0015,,,,,,,,,,,,,,,,,,,,,,5f4d50ea11a0409f3b8db045,61036e9deff4554e65c63565,2021-07-29_22h18.14.287,Simcolourproject_2stim_asymm_v5,2020.2.10,Win32,60,61025ae37ef11b136ea224fe,,,,,,,,,3883,-46,-57.5,1,0,0,response5disk,,3,-13,-11.5,1,0,0,rectangle,-13,-11.5,1,0,0,-13,-11.5,1,0,0,1,79,239,61,1,,,,,,,,
,,,,,,,,,,,,,FF,,,,,,,,1.9393,,,,,,,,,,,,,,,,,,,,,,5f4d50ea11a0409f3b8db045,61036e9deff4554e65c63565,2021-07-29_22h18.14.287,Simcolourproject_2stim_asymm_v5,2020.2.10,Win32,60,61025ae37ef11b136ea224fe,,,,,,,,,1913,24,-54.5,1,0,0,response3disk,,4,10,-8.5,1,0,0,rectangle,10,-8.5,1,0,0,10,-8.5,1,0,0,1,80,240,56,1,,,,,,,,
,,,,,,,,,,,,,FF,,,,,,,,1.4736,,,,,,,,,,,,,,,,,,,,,,5f4d50ea11a0409f3b8db045,61036e9deff4554e65c63565,2021-07-29_22h18.14.287,Simcolourproject_2stim_asymm_v5,2020.2.10,Win32,60,61025ae37ef11b136ea224fe,,,,,,,,,4002,-28,-66.5,1,0,0,response5disk,,3,10,13.5,1,0,0,rectangle,10,13.5,1,0,0,10,13.5,1,0,0,1,81,241,110,1,,,,,,,,
,,,,,,,,,,,,,FF,,,,,,,,3.2863,,,,,,,,,,,,,,,,,,,,,,5f4d50ea11a0409f3b8db045,61036e9deff4554e65c63565,2021-07-29_22h18.14.287,Simcolourproject_2stim_asymm_v5,2020.2.10,Win32,60,61025ae37ef11b136ea224fe,,,,,,,,,4259,-20,-70.5,1,0,0,response5disk,,3,1,-0.5,1,0,0,rectangle,1,-0.5,1,0,0,1,-0.5,1,0,0,1,82,242,29,1,,,,,,,,
,,,,,,,,,,,,,FF,,,,,,,,0.8019,,,,,,,,,,,,,,,,,,,,,,5f4d50ea11a0409f3b8db045,61036e9deff4554e65c63565,2021-07-29_22h18.14.287,Simcolourproject_2stim_asymm_v5,2020.2.10,Win32,60,61025ae37ef11b136ea224fe,,,,,,,,,1,-57,24.5,1,0,0,response7disk,,1,-10,-2.5,1,0,0,rectangle,-10,-2.5,1,0,0,-10,-2.5,1,0,0,1,83,243,28,1,,,,,,,,
,,,,,,,,,,,,,FF,,,,,,,,1.5011,,,,,,,,,,,,,,,,,,,,,,5f4d50ea11a0409f3b8db045,61036e9deff4554e65c63565,2021-07-29_22h18.14.287,Simcolourproject_2stim_asymm_v5,2020.2.10,Win32,60,61025ae37ef11b136ea224fe,,,,,,,,,472,41,-73.5,1,0,0,response3disk,,4,-2,4.5,1,0,0,rectangle,-2,4.5,1,0,0,-2,4.5,1,0,0,1,84,244,44,1,,,,,,,,
,,,,,,,,,,,,,FF,,,,,,,,1.4836,,,,,,,,,,,,,,,,,,,,,,5f4d50ea11a0409f3b8db045,61036e9deff4554e65c63565,2021-07-29_22h18.14.287,Simcolourproject_2stim_asymm_v5,2020.2.10,Win32,60,61025ae37ef11b136ea224fe,,,,,,,,,3363,36,-64.5,1,0,0,response3disk,,4,-1,6.5,1,0,0,rectangle,-1,6.5,1,0,0,-1,6.5,1,0,0,1,85,245,47,1,,,,,,,,
,,,,,,,,,,,,,FF,,,,,,,,0.668,,,,,,,,,,,,,,,,,,,,,,5f4d50ea11a0409f3b8db045,61036e9deff4554e65c63565,2021-07-29_22h18.14.287,Simcolourproject_2stim_asymm_v5,2020.2.10,Win32,60,61025ae37ef11b136ea224fe,,,,,,,,,891,-54,22.5,1,0,0,response7disk,,1,-1,4.5,1,0,0,rectangle,-1,4.5,1,0,0,-1,4.5,1,0,0,1,86,246,57,1,,,,,,,,
,,,,,,,,,,,,,FF,,,,,,,,0.9816,,,,,,,,,,,,,,,,,,,,,,5f4d50ea11a0409f3b8db045,61036e9deff4554e65c63565,2021-07-29_22h18.14.287,Simcolourproject_2stim_asymm_v5,2020.2.10,Win32,60,61025ae37ef11b136ea224fe,,,,,,,,,2816,-56,-51.5,1,0,0,response5disk,,2,-16,4.5,1,0,0,rectangle,-16,4.5,1,0,0,-16,4.5,1,0,0,1,87,247,79,1,,,,,,,,
,,,,,,,,,,,,,FF,,,,,,,,1.0278,,,,,,,,,,,,,,,,,,,,,,5f4d50ea11a0409f3b8db045,61036e9deff4554e65c63565,2021-07-29_22h18.14.287,Simcolourproject_2stim_asymm_v5,2020.2.10,Win32,60,61025ae37ef11b136ea224fe,,,,,,,,,3565,-78,-45.5,1,0,0,response5disk,,2,3,4.5,1,0,0,rectangle,3,4.5,1,0,0,3,4.5,1,0,0,1,88,248,45,1,,,,,,,,
,,,,,,,,,,,,,FF,,,,,,,,1.4677,,,,,,,,,,,,,,,,,,,,,,5f4d50ea11a0409f3b8db045,61036e9deff4554e65c63565,2021-07-29_22h18.14.287,Simcolourproject_2stim_asymm_v5,2020.2.10,Win32,60,61025ae37ef11b136ea224fe,,,,,,,,,2310,82,42.5,1,0,0,response1disk,,6,-3,-1.5,1,0,0,rectangle,-3,-1.5,1,0,0,-3,-1.5,1,0,0,1,89,249,6,1,,,,,,,,
,,,,,,,,,,,,,FF,,,,,,,,4.5371,,,,,,,,,,,,,,,,,,,,,,5f4d50ea11a0409f3b8db045,61036e9deff4554e65c63565,2021-07-29_22h18.14.287,Simcolourproject_2stim_asymm_v5,2020.2.10,Win32,60,61025ae37ef11b136ea224fe,,,,,,,,,839,43,-64.5,1,0,0,response3disk,,4,2,6.5,1,0,0,rectangle,2,6.5,1,0,0,2,6.5,1,0,0,1,90,250,49,1,,,,,,,,
,,,,,,,,,,,,,FF,,,,,,,,0.835,,,,,,,,,,,,,,,,,,,,,,5f4d50ea11a0409f3b8db045,61036e9deff4554e65c63565,2021-07-29_22h18.14.287,Simcolourproject_2stim_asymm_v5,2020.2.10,Win32,60,61025ae37ef11b136ea224fe,,,,,,,,,2987,-68,43.5,1,0,0,response7disk,,1,-14,2.5,1,0,0,rectangle,-14,2.5,1,0,0,-14,2.5,1,0,0,1,91,251,20,1,,,,,,,,
,,,,,,,,,,,,,FF,,,,,,,,0.7741,,,,,,,,,,,,,,,,,,,,,,5f4d50ea11a0409f3b8db045,61036e9deff4554e65c63565,2021-07-29_22h18.14.287,Simcolourproject_2stim_asymm_v5,2020.2.10,Win32,60,61025ae37ef11b136ea224fe,,,,,,,,,200,-32,-57.5,1,0,0,response5disk,,3,-1,0.5,1,0,0,rectangle,-1,0.5,1,0,0,-1,0.5,1,0,0,1,92,252,2,1,,,,,,,,
,,,,,,,,,,,,,FF,,,,,,,,1.0549,,,,,,,,,,,,,,,,,,,,,,5f4d50ea11a0409f3b8db045,61036e9deff4554e65c63565,2021-07-29_22h18.14.287,Simcolourproject_2stim_asymm_v5,2020.2.10,Win32,60,61025ae37ef11b136ea224fe,,,,,,,,,824,-31,-36.5,1,0,0,response5disk,,3,6,9.5,1,0,0,rectangle,6,9.5,1,0,0,6,9.5,1,0,0,1,93,253,129,1,,,,,,,,
,,,,,,,,,,,,,FF,,,,,,,,2.001,,,,,,,,,,,,,,,,,,,,,,5f4d50ea11a0409f3b8db045,61036e9deff4554e65c63565,2021-07-29_22h18.14.287,Simcolourproject_2stim_asymm_v5,2020.2.10,Win32,60,61025ae37ef11b136ea224fe,,,,,,,,,1374,-72,-34.5,1,0,0,response5disk,,2,13,-0.5,1,0,0,rectangle,13,-0.5,1,0,0,13,-0.5,1,0,0,1,94,254,107,1,,,,,,,,
,,,,,,,,,,,,,FF,,,,,,,,4.3157,,,,,,,,,,,,,,,,,,,,,,5f4d50ea11a0409f3b8db045,61036e9deff4554e65c63565,2021-07-29_22h18.14.287,Simcolourproject_2stim_asymm_v5,2020.2.10,Win32,60,61025ae37ef11b136ea224fe,,,,,,,,,4244,-31,-67.5,1,0,0,response5disk,,3,2,8.5,1,0,0,rectangle,2,8.5,1,0,0,2,8.5,1,0,0,1,95,255,59,1,,,,,,,,
,,,,,,,,,,,,,FF,,,,,,,,1.1353,,,,,,,,,,,,,,,,,,,,,,5f4d50ea11a0409f3b8db045,61036e9deff4554e65c63565,2021-07-29_22h18.14.287,Simcolourproject_2stim_asymm_v5,2020.2.10,Win32,60,61025ae37ef11b136ea224fe,,,,,,,,,645,-73,-23.5,1,0,0,response5disk,,2,3,6.5,1,0,0,rectangle,33,88.5,1,0,0,0,-0.5,1,0,0,1,96,256,14,1,,response1disk_3,TRUE,7,7,"[86,114,209,209,279,186,57,35,104,267,52,257,27,143,191,41,100,10,215,22]",1.9821,rectangle
,,,,,,,,,,,,,FF,,,,,,,,0.8518,,,,,,,,,,,,,,,,,,,,,,5f4d50ea11a0409f3b8db045,61036e9deff4554e65c63565,2021-07-29_22h18.14.287,Simcolourproject_2stim_asymm_v5,2020.2.10,Win32,60,61025ae37ef11b136ea224fe,,,,,,,,,3879,-27,-66.5,1,0,0,response5disk,,3,-4,3.5,1,0,0,rectangle,-4,3.5,1,0,0,-4,3.5,1,0,0,1,97,257,145,1,,,,,,,,
,,,,,,,,,,,,,FF,,,,,,,,1.7513,,,,,,,,,,,,,,,,,,,,,,5f4d50ea11a0409f3b8db045,61036e9deff4554e65c63565,2021-07-29_22h18.14.287,Simcolourproject_2stim_asymm_v5,2020.2.10,Win32,60,61025ae37ef11b136ea224fe,,,,,,,,,1864,-83,-48.5,1,0,0,response5disk,,2,-11,-6.5,1,0,0,rectangle,-11,-6.5,1,0,0,-11,-6.5,1,0,0,1,98,258,96,1,,,,,,,,
,,,,,,,,,,,,,FF,,,,,,,,1.732,,,,,,,,,,,,,,,,,,,,,,5f4d50ea11a0409f3b8db045,61036e9deff4554e65c63565,2021-07-29_22h18.14.287,Simcolourproject_2stim_asymm_v5,2020.2.10,Win32,60,61025ae37ef11b136ea224fe,,,,,,,,,3854,-33,-63.5,1,0,0,response5disk,,3,6,5.5,1,0,0,rectangle,6,5.5,1,0,0,6,5.5,1,0,0,1,99,259,1,1,,,,,,,,
,,,,,,,,,,,,,FF,,,,,,,,1.4331,,,,,,,,,,,,,,,,,,,,,,5f4d50ea11a0409f3b8db045,61036e9deff4554e65c63565,2021-07-29_22h18.14.287,Simcolourproject_2stim_asymm_v5,2020.2.10,Win32,60,61025ae37ef11b136ea224fe,,,,,,,,,1653,27,-58.5,1,0,0,response3disk,,4,-8,-0.5,1,0,0,rectangle,-8,-0.5,1,0,0,-8,-0.5,1,0,0,1,100,260,84,1,,,,,,,,
,,,,,,,,,,,,,FF,,,,,,,,1.5043,,,,,,,,,,,,,,,,,,,,,,5f4d50ea11a0409f3b8db045,61036e9deff4554e65c63565,2021-07-29_22h18.14.287,Simcolourproject_2stim_asymm_v5,2020.2.10,Win32,60,61025ae37ef11b136ea224fe,,,,,,,,,2876,73,-28.5,1,0,0,response3disk,,5,11,4.5,1,0,0,rectangle,11,4.5,1,0,0,11,4.5,1,0,0,1,101,261,124,1,,,,,,,,
,,,,,,,,,,,,,FF,,,,,,,,2.2195,,,,,,,,,,,,,,,,,,,,,,5f4d50ea11a0409f3b8db045,61036e9deff4554e65c63565,2021-07-29_22h18.14.287,Simcolourproject_2stim_asymm_v5,2020.2.10,Win32,60,61025ae37ef11b136ea224fe,,,,,,,,,2253,46,72.5,1,0,0,response1disk,,7,-4,-5.5,1,0,0,rectangle,-4,-5.5,1,0,0,-4,-5.5,1,0,0,1,102,262,38,1,,,,,,,,
,,,,,,,,,,,,,FF,,,,,,,,1.8214,,,,,,,,,,,,,,,,,,,,,,5f4d50ea11a0409f3b8db045,61036e9deff4554e65c63565,2021-07-29_22h18.14.287,Simcolourproject_2stim_asymm_v5,2020.2.10,Win32,60,61025ae37ef11b136ea224fe,,,,,,,,,1914,-24,-60.5,1,0,0,response5disk,,3,2,0.5,1,0,0,rectangle,2,0.5,1,0,0,2,0.5,1,0,0,1,103,263,48,1,,,,,,,,
,,,,,,,,,,,,,FF,,,,,,,,1.3475,,,,,,,,,,,,,,,,,,,,,,5f4d50ea11a0409f3b8db045,61036e9deff4554e65c63565,2021-07-29_22h18.14.287,Simcolourproject_2stim_asymm_v5,2020.2.10,Win32,60,61025ae37ef11b136ea224fe,,,,,,,,,3293,-74,37.5,1,0,0,response7disk,,1,10,-2.5,1,0,0,rectangle,10,-2.5,1,0,0,10,-2.5,1,0,0,1,104,264,113,1,,,,,,,,
,,,,,,,,,,,,,FF,,,,,,,,1.8717,,,,,,,,,,,,,,,,,,,,,,5f4d50ea11a0409f3b8db045,61036e9deff4554e65c63565,2021-07-29_22h18.14.287,Simcolourproject_2stim_asymm_v5,2020.2.10,Win32,60,61025ae37ef11b136ea224fe,,,,,,,,,89,-27,-42.5,1,0,0,response5disk,,3,-2,-1.5,1,0,0,rectangle,-2,-1.5,1,0,0,-2,-1.5,1,0,0,1,105,265,16,1,,,,,,,,
,,,,,,,,,,,,,FF,,,,,,,,1.4172,,,,,,,,,,,,,,,,,,,,,,5f4d50ea11a0409f3b8db045,61036e9deff4554e65c63565,2021-07-29_22h18.14.287,Simcolourproject_2stim_asymm_v5,2020.2.10,Win32,60,61025ae37ef11b136ea224fe,,,,,,,,,2965,83,-49.5,1,0,0,response3disk,,5,3,0.5,1,0,0,rectangle,64,-44.5,1,0,0,-4,1.5,1,0,0,1,106,266,132,1,,response3disk_3,TRUE,5,5,"[86,114,209,209,279,186,57,35,104,267,52,257,27,143,191,41,100,10,215,22]",1.4819,rectangle
,,,,,,,,,,,,,FF,,,,,,,,0.8692,,,,,,,,,,,,,,,,,,,,,,5f4d50ea11a0409f3b8db045,61036e9deff4554e65c63565,2021-07-29_22h18.14.287,Simcolourproject_2stim_asymm_v5,2020.2.10,Win32,60,61025ae37ef11b136ea224fe,,,,,,,,,3291,-63,33.5,1,0,0,response7disk,,1,-7,2.5,1,0,0,rectangle,-7,2.5,1,0,0,-7,2.5,1,0,0,1,107,267,120,1,,,,,,,,
,,,,,,,,,,,,,FF,,,,,,,,1.4175,,,,,,,,,,,,,,,,,,,,,,5f4d50ea11a0409f3b8db045,61036e9deff4554e65c63565,2021-07-29_22h18.14.287,Simcolourproject_2stim_asymm_v5,2020.2.10,Win32,60,61025ae37ef11b136ea224fe,,,,,,,,,541,45,75.5,1,0,0,response1disk,,7,3,1.5,1,0,0,rectangle,3,1.5,1,0,0,3,1.5,1,0,0,1,108,268,10,1,,,,,,,,
,,,,,,,,,,,,,FF,,,,,,,,4.5149,,,,,,,,,,,,,,,,,,,,,,5f4d50ea11a0409f3b8db045,61036e9deff4554e65c63565,2021-07-29_22h18.14.287,Simcolourproject_2stim_asymm_v5,2020.2.10,Win32,60,61025ae37ef11b136ea224fe,,,,,,,,,910,36,54.5,1,0,0,response1disk,,7,6,2.5,1,0,0,rectangle,6,2.5,1,0,0,6,2.5,1,0,0,1,109,269,11,1,,,,,,,,
,,,,,,,,,,,,,FF,,,,,,,,1.6822,,,,,,,,,,,,,,,,,,,,,,5f4d50ea11a0409f3b8db045,61036e9deff4554e65c63565,2021-07-29_22h18.14.287,Simcolourproject_2stim_asymm_v5,2020.2.10,Win32,60,61025ae37ef11b136ea224fe,,,,,,,,,580,84,26.5,1,0,0,response1disk,,6,-5,-4.5,1,0,0,rectangle,-5,-4.5,1,0,0,-5,-4.5,1,0,0,1,110,270,37,1,,,,,,,,
,,,,,,,,,,,,,FF,,,,,,,,0.7986,,,,,,,,,,,,,,,,,,,,,,5f4d50ea11a0409f3b8db045,61036e9deff4554e65c63565,2021-07-29_22h18.14.287,Simcolourproject_2stim_asymm_v5,2020.2.10,Win32,60,61025ae37ef11b136ea224fe,,,,,,,,,4085,-81,47.5,1,0,0,response7disk,,1,-15,6.5,1,0,0,rectangle,-15,6.5,1,0,0,-15,6.5,1,0,0,1,111,271,42,1,,,,,,,,
,,,,,,,,,,,,,FF,,,,,,,,1.0156,,,,,,,,,,,,,,,,,,,,,,5f4d50ea11a0409f3b8db045,61036e9deff4554e65c63565,2021-07-29_22h18.14.287,Simcolourproject_2stim_asymm_v5,2020.2.10,Win32,60,61025ae37ef11b136ea224fe,,,,,,,,,1027,-46,-62.5,1,0,0,response5disk,,3,0,7.5,1,0,0,rectangle,0,7.5,1,0,0,0,7.5,1,0,0,1,112,272,106,1,,,,,,,,
,,,,,,,,,,,,,FF,,,,,,,,1,,,,,,,,,,,,,,,,,,,,,,5f4d50ea11a0409f3b8db045,61036e9deff4554e65c63565,2021-07-29_22h18.14.287,Simcolourproject_2stim_asymm_v5,2020.2.10,Win32,60,61025ae37ef11b136ea224fe,,,,,,,,,1006,29,90.5,1,0,0,response1disk,,7,4,8.5,1,0,0,rectangle,4,8.5,1,0,0,4,8.5,1,0,0,1,113,273,118,1,,,,,,,,
,,,,,,,,,,,,,FF,,,,,,,,0.8215,,,,,,,,,,,,,,,,,,,,,,5f4d50ea11a0409f3b8db045,61036e9deff4554e65c63565,2021-07-29_22h18.14.287,Simcolourproject_2stim_asymm_v5,2020.2.10,Win32,60,61025ae37ef11b136ea224fe,,,,,,,,,368,-85,41.5,1,0,0,response7disk,,1,10,1.5,1,0,0,rectangle,10,1.5,1,0,0,10,1.5,1,0,0,1,114,274,128,1,,,,,,,,
,,,,,,,,,,,,,FF,,,,,,,,1.1175,,,,,,,,,,,,,,,,,,,,,,5f4d50ea11a0409f3b8db045,61036e9deff4554e65c63565,2021-07-29_22h18.14.287,Simcolourproject_2stim_asymm_v5,2020.2.10,Win32,60,61025ae37ef11b136ea224fe,,,,,,,,,3718,-24,-66.5,1,0,0,response5disk,,3,2,-0.5,1,0,0,rectangle,2,-0.5,1,0,0,2,-0.5,1,0,0,1,115,275,116,1,,,,,,,,
,,,,,,,,,,,,,FF,,,,,,,,0.8505,,,,,,,,,,,,,,,,,,,,,,5f4d50ea11a0409f3b8db045,61036e9deff4554e65c63565,2021-07-29_22h18.14.287,Simcolourproject_2stim_asymm_v5,2020.2.10,Win32,60,61025ae37ef11b136ea224fe,,,,,,,,,4346,-68,44.5,1,0,0,response7disk,,1,-1,4.5,1,0,0,rectangle,-1,4.5,1,0,0,-1,4.5,1,0,0,1,116,276,89,1,,,,,,,,
,,,,,,,,,,,,,FF,,,,,,,,1.5662,,,,,,,,,,,,,,,,,,,,,,5f4d50ea11a0409f3b8db045,61036e9deff4554e65c63565,2021-07-29_22h18.14.287,Simcolourproject_2stim_asymm_v5,2020.2.10,Win32,60,61025ae37ef11b136ea224fe,,,,,,,,,732,62,-39.5,1,0,0,response3disk,,5,2,2.5,1,0,0,rectangle,2,2.5,1,0,0,2,2.5,1,0,0,1,117,277,43,1,,,,,,,,
,,,,,,,,,,,,,FF,,,,,,,,5.4692,,,,,,,,,,,,,,,,,,,,,,5f4d50ea11a0409f3b8db045,61036e9deff4554e65c63565,2021-07-29_22h18.14.287,Simcolourproject_2stim_asymm_v5,2020.2.10,Win32,60,61025ae37ef11b136ea224fe,,,,,,,,,1771,30,-82.5,1,0,0,response3disk,,4,10,2.5,1,0,0,rectangle,37,108.5,1,0,0,-3,-11.5,1,0,0,1,118,278,131,1,,response1disk_3,TRUE,7,7,"[86,114,209,209,279,186,57,35,104,267,52,257,27,143,191,41,100,10,215,22]",1.8354,rectangle
,,,,,,,,,,,,,FF,,,,,,,,0.8156,,,,,,,,,,,,,,,,,,,,,,5f4d50ea11a0409f3b8db045,61036e9deff4554e65c63565,2021-07-29_22h18.14.287,Simcolourproject_2stim_asymm_v5,2020.2.10,Win32,60,61025ae37ef11b136ea224fe,,,,,,,,,3712,-58,31.5,1,0,0,response7disk,,1,-10,2.5,1,0,0,rectangle,-10,2.5,1,0,0,-10,2.5,1,0,0,1,119,279,88,1,,,,,,,,
,,,,,,,,,,,,,FF,,,,,,,,1.0168,,,,,,,,,,,,,,,,,,,,,,5f4d50ea11a0409f3b8db045,61036e9deff4554e65c63565,2021-07-29_22h18.14.287,Simcolourproject_2stim_asymm_v5,2020.2.10,Win32,60,61025ae37ef11b136ea224fe,,,,,,,,,2975,39,-59.5,1,0,0,response3disk,,4,3,0.5,1,0,0,rectangle,3,0.5,1,0,0,3,0.5,1,0,0,1,120,280,93,1,,,,,,,,
,,,,,,,,,,,,,FF,,,,,,,,1.1163,,,,,,,,,,,,,,,,,,,,,,5f4d50ea11a0409f3b8db045,61036e9deff4554e65c63565,2021-07-29_22h18.14.287,Simcolourproject_2stim_asymm_v5,2020.2.10,Win32,60,61025ae37ef11b136ea224fe,,,,,,,,,1089,80,61.5,1,0,0,response1disk,,6,15,-6.5,1,0,0,rectangle,15,-6.5,1,0,0,15,-6.5,1,0,0,1,121,281,19,1,,,,,,,,
,,,,,,,,,,,,,FF,,,,,,,,0.7982,,,,,,,,,,,,,,,,,,,,,,5f4d50ea11a0409f3b8db045,61036e9deff4554e65c63565,2021-07-29_22h18.14.287,Simcolourproject_2stim_asymm_v5,2020.2.10,Win32,60,61025ae37ef11b136ea224fe,,,,,,,,,3542,42,81.5,1,0,0,response1disk,,7,1,0.5,1,0,0,rectangle,1,0.5,1,0,0,1,0.5,1,0,0,1,122,282,7,1,,,,,,,,
,,,,,,,,,,,,,FF,,,,,,,,0.8513,,,,,,,,,,,,,,,,,,,,,,5f4d50ea11a0409f3b8db045,61036e9deff4554e65c63565,2021-07-29_22h18.14.287,Simcolourproject_2stim_asymm_v5,2020.2.10,Win32,60,61025ae37ef11b136ea224fe,,,,,,,,,527,-64,25.5,1,0,0,response7disk,,1,-13,1.5,1,0,0,rectangle,-13,1.5,1,0,0,-13,1.5,1,0,0,1,123,283,102,1,,,,,,,,
,,,,,,,,,,,,,FF,,,,,,,,1.8506,,,,,,,,,,,,,,,,,,,,,,5f4d50ea11a0409f3b8db045,61036e9deff4554e65c63565,2021-07-29_22h18.14.287,Simcolourproject_2stim_asymm_v5,2020.2.10,Win32,60,61025ae37ef11b136ea224fe,,,,,,,,,3144,59,-44.5,1,0,0,response3disk,,5,-5,4.5,1,0,0,rectangle,-5,4.5,1,0,0,-5,4.5,1,0,0,1,124,284,94,1,,,,,,,,
,,,,,,,,,,,,,FF,,,,,,,,1.401,,,,,,,,,,,,,,,,,,,,,,5f4d50ea11a0409f3b8db045,61036e9deff4554e65c63565,2021-07-29_22h18.14.287,Simcolourproject_2stim_asymm_v5,2020.2.10,Win32,60,61025ae37ef11b136ea224fe,,,,,,,,,2016,27,-73.5,1,0,0,response3disk,,4,1,-8.5,1,0,0,rectangle,1,-8.5,1,0,0,1,-8.5,1,0,0,1,125,285,95,1,,,,,,,,
,,,,,,,,,,,,,FF,,,,,,,,0.8662,,,,,,,,,,,,,,,,,,,,,,5f4d50ea11a0409f3b8db045,61036e9deff4554e65c63565,2021-07-29_22h18.14.287,Simcolourproject_2stim_asymm_v5,2020.2.10,Win32,60,61025ae37ef11b136ea224fe,,,,,,,,,3198,-55,29.5,1,0,0,response7disk,,1,7,2.5,1,0,0,rectangle,7,2.5,1,0,0,7,2.5,1,0,0,1,126,286,9,1,,,,,,,,
,,,,,,,,,,,,,FF,,,,,,,,0.6845,,,,,,,,,,,,,,,,,,,,,,5f4d50ea11a0409f3b8db045,61036e9deff4554e65c63565,2021-07-29_22h18.14.287,Simcolourproject_2stim_asymm_v5,2020.2.10,Win32,60,61025ae37ef11b136ea224fe,,,,,,,,,279,-71,36.5,1,0,0,response7disk,,1,-6,8.5,1,0,0,rectangle,-6,8.5,1,0,0,-6,8.5,1,0,0,1,127,287,141,1,,,,,,,,
,,,,,,,,,,,,,FF,,,,,,,,1.1503,,,,,,,,,,,,,,,,,,,,,,5f4d50ea11a0409f3b8db045,61036e9deff4554e65c63565,2021-07-29_22h18.14.287,Simcolourproject_2stim_asymm_v5,2020.2.10,Win32,60,61025ae37ef11b136ea224fe,,,,,,,,,520,-69,-29.5,1,0,0,response5disk,,2,-7,2.5,1,0,0,rectangle,-7,2.5,1,0,0,-7,2.5,1,0,0,1,128,288,8,1,,,,,,,,
,,,,,,,,,,,,,FF,,,,,,,,1.5346,,,,,,,,,,,,,,,,,,,,,,5f4d50ea11a0409f3b8db045,61036e9deff4554e65c63565,2021-07-29_22h18.14.287,Simcolourproject_2stim_asymm_v5,2020.2.10,Win32,60,61025ae37ef11b136ea224fe,,,,,,,,,1567,60,-21.5,1,0,0,response3disk,,5,13,0.5,1,0,0,rectangle,13,0.5,1,0,0,13,0.5,1,0,0,1,129,289,75,1,,,,,,,,
,,,,,,,,,,,,,FF,,,,,,,,2.2837,,,,,,,,,,,,,,,,,,,,,,5f4d50ea11a0409f3b8db045,61036e9deff4554e65c63565,2021-07-29_22h18.14.287,Simcolourproject_2stim_asymm_v5,2020.2.10,Win32,60,61025ae37ef11b136ea224fe,,,,,,,,,2969,-26,-55.5,1,0,0,response5disk,,3,2,1.5,1,0,0,rectangle,2,1.5,1,0,0,2,1.5,1,0,0,1,130,290,12,1,,,,,,,,
,,,,,,,,,,,,,FF,,,,,,,,1.0985,,,,,,,,,,,,,,,,,,,,,,5f4d50ea11a0409f3b8db045,61036e9deff4554e65c63565,2021-07-29_22h18.14.287,Simcolourproject_2stim_asymm_v5,2020.2.10,Win32,60,61025ae37ef11b136ea224fe,,,,,,,,,358,-55,-25.5,1,0,0,response5disk,,2,6,4.5,1,0,0,rectangle,6,4.5,1,0,0,6,4.5,1,0,0,1,131,291,115,1,,,,,,,,
,,,,,,,,,,,,,FF,,,,,,,,1.6521,,,,,,,,,,,,,,,,,,,,,,5f4d50ea11a0409f3b8db045,61036e9deff4554e65c63565,2021-07-29_22h18.14.287,Simcolourproject_2stim_asymm_v5,2020.2.10,Win32,60,61025ae37ef11b136ea224fe,,,,,,,,,2845,34,-62.5,1,0,0,response3disk,,4,11,1.5,1,0,0,rectangle,11,1.5,1,0,0,11,1.5,1,0,0,1,132,292,153,1,,,,,,,,
,,,,,,,,,,,,,FF,,,,,,,,0.881,,,,,,,,,,,,,,,,,,,,,,5f4d50ea11a0409f3b8db045,61036e9deff4554e65c63565,2021-07-29_22h18.14.287,Simcolourproject_2stim_asymm_v5,2020.2.10,Win32,60,61025ae37ef11b136ea224fe,,,,,,,,,4116,-66,25.5,1,0,0,response7disk,,1,-5,6.5,1,0,0,rectangle,-5,6.5,1,0,0,-5,6.5,1,0,0,1,133,293,41,1,,,,,,,,
,,,,,,,,,,,,,FF,,,,,,,,0.6826,,,,,,,,,,,,,,,,,,,,,,5f4d50ea11a0409f3b8db045,61036e9deff4554e65c63565,2021-07-29_22h18.14.287,Simcolourproject_2stim_asymm_v5,2020.2.10,Win32,60,61025ae37ef11b136ea224fe,,,,,,,,,3819,-62,39.5,1,0,0,response7disk,,1,12,3.5,1,0,0,rectangle,12,3.5,1,0,0,12,3.5,1,0,0,1,134,294,123,1,,,,,,,,
,,,,,,,,,,,,,FF,,,,,,,,1.8137,,,,,,,,,,,,,,,,,,,,,,5f4d50ea11a0409f3b8db045,61036e9deff4554e65c63565,2021-07-29_22h18.14.287,Simcolourproject_2stim_asymm_v5,2020.2.10,Win32,60,61025ae37ef11b136ea224fe,,,,,,,,,1800,-47,-65.5,1,0,0,response5disk,,3,3,5.5,1,0,0,rectangle,3,5.5,1,0,0,3,5.5,1,0,0,1,135,295,82,1,,,,,,,,
