key_resp.keys,key_resp.rt,key_resp_14.keys,key_resp_14.rt,key_resp_15.keys,key_resp_15.rt,key_resp_17.keys,key_resp_17.rt,key_resp_9.keys,key_resp_9.rt,key_resp_10.keys,key_resp_10.rt,practice_comparison,Ecc,mouse_5.x,mouse_5.y,mouse_5.leftButton,mouse_5.midButton,mouse_5.rightButton,mouse_5.clicked_name,pracsimilarity,response_time,mouse_10.x,mouse_10.y,mouse_10.leftButton,mouse_10.midButton,mouse_10.rightButton,mouse_10.clicked_name,mouse_7.x,mouse_7.y,mouse_7.leftButton,mouse_7.midButton,mouse_7.rightButton,mouse_6.x,mouse_6.y,mouse_6.leftButton,mouse_6.midButton,mouse_6.rightButton,duringprac.thisRepN,duringprac.thisTrialN,duringprac.thisN,duringprac.thisIndex,duringprac.ran,participant,session,date,expName,psychopyVersion,OS,frameRate,study_id,mouse_7.clicked_name,catchpracsimilarity,catch_response_time,catchnumberprac,catchtrialorderprac,mouse_6.clicked_name,key_resp_22.keys,key_resp_22.rt,realcomparison,mouse.x,mouse.y,mouse.leftButton,mouse.midButton,mouse.rightButton,mouse.clicked_name,Colour2,similarity,mouse_2.x,mouse_2.y,mouse_2.leftButton,mouse_2.midButton,mouse_2.rightButton,mouse_2.clicked_name,mouse_3.x,mouse_3.y,mouse_3.leftButton,mouse_3.midButton,mouse_3.rightButton,mouse_11.x,mouse_11.y,mouse_11.leftButton,mouse_11.midButton,mouse_11.rightButton,trials_2.thisRepN,trials_2.thisTrialN,trials_2.thisN,trials_2.thisIndex,trials_2.ran,Colour1,mouse_3.clicked_name,catchornah,catchsimilarity,catchnumber,catchtrialorder,catchRT,mouse_11.clicked_name
space,803.5466,space,43.3802,space,43.1503,space,15.2125,space,59.5958,space,7.5586,80,PF,71,-100,1,0,0,response3disk_5,4,3.6121,15,-1,1,0,0,rectangle_8,15,-1,1,0,0,15,-1,1,0,0,0,0,0,6,1,5f545f4aa6b1d47cba7d71ae,6103772272c6cfec7a218145,2021-07-29_22h02.48.619,Simcolourproject_2stim_asymm_v5,2020.2.10,Win32,60,61025ae37ef11b136ea224fe,,,,,,,,,,,,,,,,,,,,,,,,,,,,,,,,,,,,,,,,,,,,,,
,,,,,,,,,,,,118,PF,77,-44,1,0,0,response3disk_5,5,13.1175,6,4,1,0,0,rectangle_8,105,41,1,0,0,-19,-2,1,0,0,0,1,1,4,1,5f545f4aa6b1d47cba7d71ae,6103772272c6cfec7a218145,2021-07-29_22h02.48.619,Simcolourproject_2stim_asymm_v5,2020.2.10,Win32,60,61025ae37ef11b136ea224fe,response1disk_7,6,4.2575,6,"[2,5]",rectangle_4,,,,,,,,,,,,,,,,,,,,,,,,,,,,,,,,,,,,,,,,
,,,,,,,,,,,,104,PF,94,64,1,0,0,response1disk_5,6,4.1844,19,-1,1,0,0,rectangle_8,19,-1,1,0,0,19,-1,1,0,0,0,2,2,1,1,5f545f4aa6b1d47cba7d71ae,6103772272c6cfec7a218145,2021-07-29_22h02.48.619,Simcolourproject_2stim_asymm_v5,2020.2.10,Win32,60,61025ae37ef11b136ea224fe,,,,,,,,,,,,,,,,,,,,,,,,,,,,,,,,,,,,,,,,,,,,,,
,,,,,,,,,,,,105,PF,-41,-94,1,0,0,response5disk_5,3,2.1731,-9,0,1,0,0,rectangle_8,-9,0,1,0,0,-9,0,1,0,0,0,3,3,2,1,5f545f4aa6b1d47cba7d71ae,6103772272c6cfec7a218145,2021-07-29_22h02.48.619,Simcolourproject_2stim_asymm_v5,2020.2.10,Win32,60,61025ae37ef11b136ea224fe,,,,,,,,,,,,,,,,,,,,,,,,,,,,,,,,,,,,,,,,,,,,,,
,,,,,,,,,,,,69,FF,37,-69,1,0,0,response3disk_5,4,1.4679,17,-1,1,0,0,rectangle_8,84,45,1,0,0,12,-2,1,0,0,0,4,4,0,1,5f545f4aa6b1d47cba7d71ae,6103772272c6cfec7a218145,2021-07-29_22h02.48.619,Simcolourproject_2stim_asymm_v5,2020.2.10,Win32,60,61025ae37ef11b136ea224fe,response1disk_7,6,2.5336,6,"[2,5]",rectangle_4,,,,,,,,,,,,,,,,,,,,,,,,,,,,,,,,,,,,,,,,
,,,,,,,,,,,,158,FF,-52,-80,1,0,0,response5disk_5,3,2.5674,-11,4,1,0,0,rectangle_8,-11,4,1,0,0,-11,4,1,0,0,0,5,5,3,1,5f545f4aa6b1d47cba7d71ae,6103772272c6cfec7a218145,2021-07-29_22h02.48.619,Simcolourproject_2stim_asymm_v5,2020.2.10,Win32,60,61025ae37ef11b136ea224fe,,,,,,,,,,,,,,,,,,,,,,,,,,,,,,,,,,,,,,,,,,,,,,
,,,,,,,,,,,,74,FF,85,32,1,0,0,response1disk_5,6,6.0396,-23,3,1,0,0,rectangle_8,-23,3,1,0,0,-23,3,1,0,0,0,6,6,5,1,5f545f4aa6b1d47cba7d71ae,6103772272c6cfec7a218145,2021-07-29_22h02.48.619,Simcolourproject_2stim_asymm_v5,2020.2.10,Win32,60,61025ae37ef11b136ea224fe,,,,,,,,,,,,,,,,,,,,,,,,,,,,,,,,,,,,,,,,,,,,,,
,,,,,,,,,,,,,FF,,,,,,,,3.2856,,,,,,,,,,,,,,,,,,,,,,5f545f4aa6b1d47cba7d71ae,6103772272c6cfec7a218145,2021-07-29_22h02.48.619,Simcolourproject_2stim_asymm_v5,2020.2.10,Win32,60,61025ae37ef11b136ea224fe,,,,,,,space,6.8629,2026,-86,-39,1,0,0,response5disk,,2,5,-1,1,0,0,rectangle,5,-1,1,0,0,5,-1,1,0,0,0,0,0,134,1,,,,,,,,
,,,,,,,,,,,,,FF,,,,,,,,1.9168,,,,,,,,,,,,,,,,,,,,,,5f545f4aa6b1d47cba7d71ae,6103772272c6cfec7a218145,2021-07-29_22h02.48.619,Simcolourproject_2stim_asymm_v5,2020.2.10,Win32,60,61025ae37ef11b136ea224fe,,,,,,,,,72,-71,-42,1,0,0,response5disk,,2,5,-2,1,0,0,rectangle,5,-2,1,0,0,5,-2,1,0,0,0,1,1,84,1,,,,,,,,
,,,,,,,,,,,,,FF,,,,,,,,0.8502,,,,,,,,,,,,,,,,,,,,,,5f545f4aa6b1d47cba7d71ae,6103772272c6cfec7a218145,2021-07-29_22h02.48.619,Simcolourproject_2stim_asymm_v5,2020.2.10,Win32,60,61025ae37ef11b136ea224fe,,,,,,,,,4241,-52,-82,1,0,0,response5disk,,3,6,-13,1,0,0,rectangle,6,-13,1,0,0,6,-13,1,0,0,0,2,2,147,1,,,,,,,,
,,,,,,,,,,,,,FF,,,,,,,,1.3196,,,,,,,,,,,,,,,,,,,,,,5f545f4aa6b1d47cba7d71ae,6103772272c6cfec7a218145,2021-07-29_22h02.48.619,Simcolourproject_2stim_asymm_v5,2020.2.10,Win32,60,61025ae37ef11b136ea224fe,,,,,,,,,3557,-71,-38,1,0,0,response5disk,,2,4,-2,1,0,0,rectangle,4,-2,1,0,0,4,-2,1,0,0,0,3,3,64,1,,,,,,,,
,,,,,,,,,,,,,FF,,,,,,,,2.0167,,,,,,,,,,,,,,,,,,,,,,5f545f4aa6b1d47cba7d71ae,6103772272c6cfec7a218145,2021-07-29_22h02.48.619,Simcolourproject_2stim_asymm_v5,2020.2.10,Win32,60,61025ae37ef11b136ea224fe,,,,,,,,,4321,100,39,1,0,0,response1disk,,6,6,3,1,0,0,rectangle,6,3,1,0,0,6,3,1,0,0,0,4,4,137,1,,,,,,,,
,,,,,,,,,,,,,FF,,,,,,,,0.957,,,,,,,,,,,,,,,,,,,,,,5f545f4aa6b1d47cba7d71ae,6103772272c6cfec7a218145,2021-07-29_22h02.48.619,Simcolourproject_2stim_asymm_v5,2020.2.10,Win32,60,61025ae37ef11b136ea224fe,,,,,,,,,898,34,-93,1,0,0,response3disk,,4,10,-3,1,0,0,rectangle,10,-3,1,0,0,10,-3,1,0,0,0,5,5,14,1,,,,,,,,
,,,,,,,,,,,,,FF,,,,,,,,1.1955,,,,,,,,,,,,,,,,,,,,,,5f545f4aa6b1d47cba7d71ae,6103772272c6cfec7a218145,2021-07-29_22h02.48.619,Simcolourproject_2stim_asymm_v5,2020.2.10,Win32,60,61025ae37ef11b136ea224fe,,,,,,,,,3153,-88,-61,1,0,0,response5disk,,2,-5,6,1,0,0,rectangle,-5,6,1,0,0,-5,6,1,0,0,0,6,6,20,1,,,,,,,,
,,,,,,,,,,,,,FF,,,,,,,,1.0235,,,,,,,,,,,,,,,,,,,,,,5f545f4aa6b1d47cba7d71ae,6103772272c6cfec7a218145,2021-07-29_22h02.48.619,Simcolourproject_2stim_asymm_v5,2020.2.10,Win32,60,61025ae37ef11b136ea224fe,,,,,,,,,4077,-35,-99,1,0,0,response5disk,,3,7,12,1,0,0,rectangle,7,12,1,0,0,7,12,1,0,0,0,7,7,127,1,,,,,,,,
,,,,,,,,,,,,,FF,,,,,,,,2.5798,,,,,,,,,,,,,,,,,,,,,,5f545f4aa6b1d47cba7d71ae,6103772272c6cfec7a218145,2021-07-29_22h02.48.619,Simcolourproject_2stim_asymm_v5,2020.2.10,Win32,60,61025ae37ef11b136ea224fe,,,,,,,,,2428,-55,-89,1,0,0,response5disk,,3,2,6,1,0,0,rectangle,2,6,1,0,0,2,6,1,0,0,0,8,8,30,1,,,,,,,,
,,,,,,,,,,,,,FF,,,,,,,,0.8507,,,,,,,,,,,,,,,,,,,,,,5f545f4aa6b1d47cba7d71ae,6103772272c6cfec7a218145,2021-07-29_22h02.48.619,Simcolourproject_2stim_asymm_v5,2020.2.10,Win32,60,61025ae37ef11b136ea224fe,,,,,,,,,3265,60,-88,1,0,0,response3disk,,4,4,-6,1,0,0,rectangle,4,-6,1,0,0,4,-6,1,0,0,0,9,9,77,1,,,,,,,,
,,,,,,,,,,,,,FF,,,,,,,,1.5055,,,,,,,,,,,,,,,,,,,,,,5f545f4aa6b1d47cba7d71ae,6103772272c6cfec7a218145,2021-07-29_22h02.48.619,Simcolourproject_2stim_asymm_v5,2020.2.10,Win32,60,61025ae37ef11b136ea224fe,,,,,,,,,2747,86,26,1,0,0,response1disk,,6,20,-3,1,0,0,rectangle,20,-3,1,0,0,20,-3,1,0,0,0,10,10,4,1,,,,,,,,
,,,,,,,,,,,,,FF,,,,,,,,1.3228,,,,,,,,,,,,,,,,,,,,,,5f545f4aa6b1d47cba7d71ae,6103772272c6cfec7a218145,2021-07-29_22h02.48.619,Simcolourproject_2stim_asymm_v5,2020.2.10,Win32,60,61025ae37ef11b136ea224fe,,,,,,,,,574,92,-34,1,0,0,response3disk,,5,28,1,1,0,0,rectangle,28,1,1,0,0,28,1,1,0,0,0,11,11,93,1,,,,,,,,
,,,,,,,,,,,,,FF,,,,,,,,3.1512,,,,,,,,,,,,,,,,,,,,,,5f545f4aa6b1d47cba7d71ae,6103772272c6cfec7a218145,2021-07-29_22h02.48.619,Simcolourproject_2stim_asymm_v5,2020.2.10,Win32,60,61025ae37ef11b136ea224fe,,,,,,,,,2650,102,-49,1,0,0,response3disk,,5,-23,4,1,0,0,rectangle,-23,4,1,0,0,-23,4,1,0,0,0,12,12,145,1,,,,,,,,
,,,,,,,,,,,,,FF,,,,,,,,1.9344,,,,,,,,,,,,,,,,,,,,,,5f545f4aa6b1d47cba7d71ae,6103772272c6cfec7a218145,2021-07-29_22h02.48.619,Simcolourproject_2stim_asymm_v5,2020.2.10,Win32,60,61025ae37ef11b136ea224fe,,,,,,,,,3703,-68,-51,1,0,0,response5disk,,2,-7,1,1,0,0,rectangle,-7,1,1,0,0,-7,1,1,0,0,0,13,13,150,1,,,,,,,,
,,,,,,,,,,,,,FF,,,,,,,,1.0702,,,,,,,,,,,,,,,,,,,,,,5f545f4aa6b1d47cba7d71ae,6103772272c6cfec7a218145,2021-07-29_22h02.48.619,Simcolourproject_2stim_asymm_v5,2020.2.10,Win32,60,61025ae37ef11b136ea224fe,,,,,,,,,1578,102,-45,1,0,0,response3disk,,5,12,5,1,0,0,rectangle,44,74,1,0,0,0,15,1,0,0,0,14,14,65,1,,response1disk_3,TRUE,7,7,"[265,320,141,97,250,89,323,289,116,101,248,88,15,210,302,68,279,281,129,315]",3.1179,rectangle
,,,,,,,,,,,,,FF,,,,,,,,1.0013,,,,,,,,,,,,,,,,,,,,,,5f545f4aa6b1d47cba7d71ae,6103772272c6cfec7a218145,2021-07-29_22h02.48.619,Simcolourproject_2stim_asymm_v5,2020.2.10,Win32,60,61025ae37ef11b136ea224fe,,,,,,,,,1914,82,-73,1,0,0,response3disk,,5,19,-15,1,0,0,rectangle,19,-15,1,0,0,19,-15,1,0,0,0,15,15,41,1,,,,,,,,
,,,,,,,,,,,,,FF,,,,,,,,1.5337,,,,,,,,,,,,,,,,,,,,,,5f545f4aa6b1d47cba7d71ae,6103772272c6cfec7a218145,2021-07-29_22h02.48.619,Simcolourproject_2stim_asymm_v5,2020.2.10,Win32,60,61025ae37ef11b136ea224fe,,,,,,,,,1711,101,27,1,0,0,response1disk,,6,4,6,1,0,0,rectangle,4,6,1,0,0,4,6,1,0,0,0,16,16,83,1,,,,,,,,
,,,,,,,,,,,,,FF,,,,,,,,1.0627,,,,,,,,,,,,,,,,,,,,,,5f545f4aa6b1d47cba7d71ae,6103772272c6cfec7a218145,2021-07-29_22h02.48.619,Simcolourproject_2stim_asymm_v5,2020.2.10,Win32,60,61025ae37ef11b136ea224fe,,,,,,,,,767,102,33,1,0,0,response1disk,,6,1,6,1,0,0,rectangle,1,6,1,0,0,1,6,1,0,0,0,17,17,73,1,,,,,,,,
,,,,,,,,,,,,,FF,,,,,,,,1.4512,,,,,,,,,,,,,,,,,,,,,,5f545f4aa6b1d47cba7d71ae,6103772272c6cfec7a218145,2021-07-29_22h02.48.619,Simcolourproject_2stim_asymm_v5,2020.2.10,Win32,60,61025ae37ef11b136ea224fe,,,,,,,,,4276,-37,-87,1,0,0,response5disk,,3,-2,4,1,0,0,rectangle,-2,4,1,0,0,-2,4,1,0,0,0,18,18,11,1,,,,,,,,
,,,,,,,,,,,,,FF,,,,,,,,0.8629,,,,,,,,,,,,,,,,,,,,,,5f545f4aa6b1d47cba7d71ae,6103772272c6cfec7a218145,2021-07-29_22h02.48.619,Simcolourproject_2stim_asymm_v5,2020.2.10,Win32,60,61025ae37ef11b136ea224fe,,,,,,,,,237,65,-88,1,0,0,response3disk,,4,6,-9,1,0,0,rectangle,6,-9,1,0,0,6,-9,1,0,0,0,19,19,111,1,,,,,,,,
,,,,,,,,,,,,,FF,,,,,,,,1.8178,,,,,,,,,,,,,,,,,,,,,,5f545f4aa6b1d47cba7d71ae,6103772272c6cfec7a218145,2021-07-29_22h02.48.619,Simcolourproject_2stim_asymm_v5,2020.2.10,Win32,60,61025ae37ef11b136ea224fe,,,,,,,,,2217,-100,34,1,0,0,response7disk,,1,-2,2,1,0,0,rectangle,-2,2,1,0,0,-2,2,1,0,0,0,20,20,104,1,,,,,,,,
,,,,,,,,,,,,,FF,,,,,,,,1.2846,,,,,,,,,,,,,,,,,,,,,,5f545f4aa6b1d47cba7d71ae,6103772272c6cfec7a218145,2021-07-29_22h02.48.619,Simcolourproject_2stim_asymm_v5,2020.2.10,Win32,60,61025ae37ef11b136ea224fe,,,,,,,,,4193,-39,-97,1,0,0,response5disk,,3,13,3,1,0,0,rectangle,13,3,1,0,0,13,3,1,0,0,0,21,21,109,1,,,,,,,,
,,,,,,,,,,,,,FF,,,,,,,,0.8514,,,,,,,,,,,,,,,,,,,,,,5f545f4aa6b1d47cba7d71ae,6103772272c6cfec7a218145,2021-07-29_22h02.48.619,Simcolourproject_2stim_asymm_v5,2020.2.10,Win32,60,61025ae37ef11b136ea224fe,,,,,,,,,117,92,-57,1,0,0,response3disk,,5,4,-10,1,0,0,rectangle,4,-10,1,0,0,4,-10,1,0,0,0,22,22,121,1,,,,,,,,
,,,,,,,,,,,,,FF,,,,,,,,2.4226,,,,,,,,,,,,,,,,,,,,,,5f545f4aa6b1d47cba7d71ae,6103772272c6cfec7a218145,2021-07-29_22h02.48.619,Simcolourproject_2stim_asymm_v5,2020.2.10,Win32,60,61025ae37ef11b136ea224fe,,,,,,,,,3965,-74,24,1,0,0,response7disk,,1,19,-2,1,0,0,rectangle,19,-2,1,0,0,19,-2,1,0,0,0,23,23,47,1,,,,,,,,
,,,,,,,,,,,,,FF,,,,,,,,0.782,,,,,,,,,,,,,,,,,,,,,,5f545f4aa6b1d47cba7d71ae,6103772272c6cfec7a218145,2021-07-29_22h02.48.619,Simcolourproject_2stim_asymm_v5,2020.2.10,Win32,60,61025ae37ef11b136ea224fe,,,,,,,,,4274,80,-39,1,0,0,response3disk,,5,-5,-2,1,0,0,rectangle,-5,-2,1,0,0,-5,-2,1,0,0,0,24,24,115,1,,,,,,,,
,,,,,,,,,,,,,FF,,,,,,,,1.9346,,,,,,,,,,,,,,,,,,,,,,5f545f4aa6b1d47cba7d71ae,6103772272c6cfec7a218145,2021-07-29_22h02.48.619,Simcolourproject_2stim_asymm_v5,2020.2.10,Win32,60,61025ae37ef11b136ea224fe,,,,,,,,,4070,92,-35,1,0,0,response3disk,,5,2,-4,1,0,0,rectangle,2,-4,1,0,0,2,-4,1,0,0,0,25,25,32,1,,,,,,,,
,,,,,,,,,,,,,FF,,,,,,,,1.6673,,,,,,,,,,,,,,,,,,,,,,5f545f4aa6b1d47cba7d71ae,6103772272c6cfec7a218145,2021-07-29_22h02.48.619,Simcolourproject_2stim_asymm_v5,2020.2.10,Win32,60,61025ae37ef11b136ea224fe,,,,,,,,,454,77,34,1,0,0,response1disk,,6,-2,7,1,0,0,rectangle,-2,7,1,0,0,-2,7,1,0,0,0,26,26,122,1,,,,,,,,
,,,,,,,,,,,,,FF,,,,,,,,1.5672,,,,,,,,,,,,,,,,,,,,,,5f545f4aa6b1d47cba7d71ae,6103772272c6cfec7a218145,2021-07-29_22h02.48.619,Simcolourproject_2stim_asymm_v5,2020.2.10,Win32,60,61025ae37ef11b136ea224fe,,,,,,,,,3663,76,46,1,0,0,response1disk,,6,5,1,1,0,0,rectangle,5,1,1,0,0,5,1,1,0,0,0,27,27,107,1,,,,,,,,
,,,,,,,,,,,,,FF,,,,,,,,1.8002,,,,,,,,,,,,,,,,,,,,,,5f545f4aa6b1d47cba7d71ae,6103772272c6cfec7a218145,2021-07-29_22h02.48.619,Simcolourproject_2stim_asymm_v5,2020.2.10,Win32,60,61025ae37ef11b136ea224fe,,,,,,,,,3600,106,-33,1,0,0,response3disk,,5,13,5,1,0,0,rectangle,13,5,1,0,0,13,5,1,0,0,0,28,28,67,1,,,,,,,,
,,,,,,,,,,,,,FF,,,,,,,,1.5833,,,,,,,,,,,,,,,,,,,,,,5f545f4aa6b1d47cba7d71ae,6103772272c6cfec7a218145,2021-07-29_22h02.48.619,Simcolourproject_2stim_asymm_v5,2020.2.10,Win32,60,61025ae37ef11b136ea224fe,,,,,,,,,4060,-75,-54,1,0,0,response5disk,,2,-6,6,1,0,0,rectangle,-6,6,1,0,0,-6,6,1,0,0,0,29,29,105,1,,,,,,,,
,,,,,,,,,,,,,FF,,,,,,,,0.7505,,,,,,,,,,,,,,,,,,,,,,5f545f4aa6b1d47cba7d71ae,6103772272c6cfec7a218145,2021-07-29_22h02.48.619,Simcolourproject_2stim_asymm_v5,2020.2.10,Win32,60,61025ae37ef11b136ea224fe,,,,,,,,,2902,-66,-25,1,0,0,response5disk,,2,-5,13,1,0,0,rectangle,-5,13,1,0,0,-5,13,1,0,0,0,30,30,54,1,,,,,,,,
,,,,,,,,,,,,,FF,,,,,,,,1.7019,,,,,,,,,,,,,,,,,,,,,,5f545f4aa6b1d47cba7d71ae,6103772272c6cfec7a218145,2021-07-29_22h02.48.619,Simcolourproject_2stim_asymm_v5,2020.2.10,Win32,60,61025ae37ef11b136ea224fe,,,,,,,,,3640,35,-90,1,0,0,response3disk,,4,-8,7,1,0,0,rectangle,-8,7,1,0,0,-8,7,1,0,0,0,31,31,97,1,,,,,,,,
,,,,,,,,,,,,,FF,,,,,,,,1.0674,,,,,,,,,,,,,,,,,,,,,,5f545f4aa6b1d47cba7d71ae,6103772272c6cfec7a218145,2021-07-29_22h02.48.619,Simcolourproject_2stim_asymm_v5,2020.2.10,Win32,60,61025ae37ef11b136ea224fe,,,,,,,,,281,-35,-72,1,0,0,response5disk,,3,2,4,1,0,0,rectangle,2,4,1,0,0,2,4,1,0,0,0,32,32,18,1,,,,,,,,
,,,,,,,,,,,,,FF,,,,,,,,1.117,,,,,,,,,,,,,,,,,,,,,,5f545f4aa6b1d47cba7d71ae,6103772272c6cfec7a218145,2021-07-29_22h02.48.619,Simcolourproject_2stim_asymm_v5,2020.2.10,Win32,60,61025ae37ef11b136ea224fe,,,,,,,,,4235,-69,26,1,0,0,response7disk,,1,-9,-7,1,0,0,rectangle,-9,-7,1,0,0,-9,-7,1,0,0,0,33,33,1,1,,,,,,,,
,,,,,,,,,,,,,FF,,,,,,,,1.1009,,,,,,,,,,,,,,,,,,,,,,5f545f4aa6b1d47cba7d71ae,6103772272c6cfec7a218145,2021-07-29_22h02.48.619,Simcolourproject_2stim_asymm_v5,2020.2.10,Win32,60,61025ae37ef11b136ea224fe,,,,,,,,,226,86,-38,1,0,0,response3disk,,5,-23,-1,1,0,0,rectangle,-23,-1,1,0,0,-23,-1,1,0,0,0,34,34,131,1,,,,,,,,
,,,,,,,,,,,,,FF,,,,,,,,0.9346,,,,,,,,,,,,,,,,,,,,,,5f545f4aa6b1d47cba7d71ae,6103772272c6cfec7a218145,2021-07-29_22h02.48.619,Simcolourproject_2stim_asymm_v5,2020.2.10,Win32,60,61025ae37ef11b136ea224fe,,,,,,,,,75,-31,-66,1,0,0,response5disk,,3,-17,-7,1,0,0,rectangle,-17,-7,1,0,0,-17,-7,1,0,0,0,35,35,68,1,,,,,,,,
,,,,,,,,,,,,,FF,,,,,,,,0.8155,,,,,,,,,,,,,,,,,,,,,,5f545f4aa6b1d47cba7d71ae,6103772272c6cfec7a218145,2021-07-29_22h02.48.619,Simcolourproject_2stim_asymm_v5,2020.2.10,Win32,60,61025ae37ef11b136ea224fe,,,,,,,,,3227,90,-32,1,0,0,response3disk,,5,6,-2,1,0,0,rectangle,6,-2,1,0,0,6,-2,1,0,0,0,36,36,0,1,,,,,,,,
,,,,,,,,,,,,,FF,,,,,,,,1.1171,,,,,,,,,,,,,,,,,,,,,,5f545f4aa6b1d47cba7d71ae,6103772272c6cfec7a218145,2021-07-29_22h02.48.619,Simcolourproject_2stim_asymm_v5,2020.2.10,Win32,60,61025ae37ef11b136ea224fe,,,,,,,,,8,52,-81,1,0,0,response3disk,,4,2,-4,1,0,0,rectangle,2,-4,1,0,0,2,-4,1,0,0,0,37,37,8,1,,,,,,,,
,,,,,,,,,,,,,FF,,,,,,,,0.7836,,,,,,,,,,,,,,,,,,,,,,5f545f4aa6b1d47cba7d71ae,6103772272c6cfec7a218145,2021-07-29_22h02.48.619,Simcolourproject_2stim_asymm_v5,2020.2.10,Win32,60,61025ae37ef11b136ea224fe,,,,,,,,,3222,62,-28,1,0,0,response3disk,,5,-4,11,1,0,0,rectangle,-4,11,1,0,0,-4,11,1,0,0,0,38,38,144,1,,,,,,,,
,,,,,,,,,,,,,FF,,,,,,,,0.9845,,,,,,,,,,,,,,,,,,,,,,5f545f4aa6b1d47cba7d71ae,6103772272c6cfec7a218145,2021-07-29_22h02.48.619,Simcolourproject_2stim_asymm_v5,2020.2.10,Win32,60,61025ae37ef11b136ea224fe,,,,,,,,,45,75,26,1,0,0,response1disk,,6,-2,-6,1,0,0,rectangle,-2,-6,1,0,0,-2,-6,1,0,0,0,39,39,79,1,,,,,,,,
,,,,,,,,,,,,,FF,,,,,,,,0.8506,,,,,,,,,,,,,,,,,,,,,,5f545f4aa6b1d47cba7d71ae,6103772272c6cfec7a218145,2021-07-29_22h02.48.619,Simcolourproject_2stim_asymm_v5,2020.2.10,Win32,60,61025ae37ef11b136ea224fe,,,,,,,,,648,50,-90,1,0,0,response3disk,,4,-9,-2,1,0,0,rectangle,-9,-2,1,0,0,-9,-2,1,0,0,0,40,40,71,1,,,,,,,,
,,,,,,,,,,,,,FF,,,,,,,,1.7673,,,,,,,,,,,,,,,,,,,,,,5f545f4aa6b1d47cba7d71ae,6103772272c6cfec7a218145,2021-07-29_22h02.48.619,Simcolourproject_2stim_asymm_v5,2020.2.10,Win32,60,61025ae37ef11b136ea224fe,,,,,,,,,610,64,-30,1,0,0,response3disk,,5,-3,12,1,0,0,rectangle,-3,12,1,0,0,-3,12,1,0,0,0,41,41,152,1,,,,,,,,
,,,,,,,,,,,,,FF,,,,,,,,1.1182,,,,,,,,,,,,,,,,,,,,,,5f545f4aa6b1d47cba7d71ae,6103772272c6cfec7a218145,2021-07-29_22h02.48.619,Simcolourproject_2stim_asymm_v5,2020.2.10,Win32,60,61025ae37ef11b136ea224fe,,,,,,,,,4261,40,86,1,0,0,response1disk,,7,6,-3,1,0,0,rectangle,6,-3,1,0,0,6,-3,1,0,0,0,42,42,87,1,,,,,,,,
,,,,,,,,,,,,,FF,,,,,,,,1.8187,,,,,,,,,,,,,,,,,,,,,,5f545f4aa6b1d47cba7d71ae,6103772272c6cfec7a218145,2021-07-29_22h02.48.619,Simcolourproject_2stim_asymm_v5,2020.2.10,Win32,60,61025ae37ef11b136ea224fe,,,,,,,,,1505,32,90,1,0,0,response1disk,,7,-7,8,1,0,0,rectangle,-7,8,1,0,0,-7,8,1,0,0,0,43,43,85,1,,,,,,,,
,,,,,,,,,,,,,FF,,,,,,,,0.7669,,,,,,,,,,,,,,,,,,,,,,5f545f4aa6b1d47cba7d71ae,6103772272c6cfec7a218145,2021-07-29_22h02.48.619,Simcolourproject_2stim_asymm_v5,2020.2.10,Win32,60,61025ae37ef11b136ea224fe,,,,,,,,,434,-25,-79,1,0,0,response5disk,,3,-7,3,1,0,0,rectangle,-7,3,1,0,0,-7,3,1,0,0,0,44,44,2,1,,,,,,,,
,,,,,,,,,,,,,FF,,,,,,,,0.95,,,,,,,,,,,,,,,,,,,,,,5f545f4aa6b1d47cba7d71ae,6103772272c6cfec7a218145,2021-07-29_22h02.48.619,Simcolourproject_2stim_asymm_v5,2020.2.10,Win32,60,61025ae37ef11b136ea224fe,,,,,,,,,439,-24,-89,1,0,0,response5disk,,3,6,-3,1,0,0,rectangle,6,-3,1,0,0,6,-3,1,0,0,0,45,45,113,1,,,,,,,,
,,,,,,,,,,,,,FF,,,,,,,,2.0157,,,,,,,,,,,,,,,,,,,,,,5f545f4aa6b1d47cba7d71ae,6103772272c6cfec7a218145,2021-07-29_22h02.48.619,Simcolourproject_2stim_asymm_v5,2020.2.10,Win32,60,61025ae37ef11b136ea224fe,,,,,,,,,3502,-51,-74,1,0,0,response5disk,,3,-4,-8,1,0,0,rectangle,-4,-8,1,0,0,-4,-8,1,0,0,0,46,46,16,1,,,,,,,,
,,,,,,,,,,,,,FF,,,,,,,,0.9862,,,,,,,,,,,,,,,,,,,,,,5f545f4aa6b1d47cba7d71ae,6103772272c6cfec7a218145,2021-07-29_22h02.48.619,Simcolourproject_2stim_asymm_v5,2020.2.10,Win32,60,61025ae37ef11b136ea224fe,,,,,,,,,3002,58,-93,1,0,0,response3disk,,4,-18,-6,1,0,0,rectangle,-18,-6,1,0,0,-18,-6,1,0,0,0,47,47,102,1,,,,,,,,
,,,,,,,,,,,,,FF,,,,,,,,0.8181,,,,,,,,,,,,,,,,,,,,,,5f545f4aa6b1d47cba7d71ae,6103772272c6cfec7a218145,2021-07-29_22h02.48.619,Simcolourproject_2stim_asymm_v5,2020.2.10,Win32,60,61025ae37ef11b136ea224fe,,,,,,,,,348,-77,-26,1,0,0,response5disk,,2,-11,-4,1,0,0,rectangle,-11,-4,1,0,0,-11,-4,1,0,0,0,48,48,10,1,,,,,,,,
,,,,,,,,,,,,,FF,,,,,,,,0.7647,,,,,,,,,,,,,,,,,,,,,,5f545f4aa6b1d47cba7d71ae,6103772272c6cfec7a218145,2021-07-29_22h02.48.619,Simcolourproject_2stim_asymm_v5,2020.2.10,Win32,60,61025ae37ef11b136ea224fe,,,,,,,,,478,81,-46,1,0,0,response3disk,,5,-15,-5,1,0,0,rectangle,-15,-5,1,0,0,-15,-5,1,0,0,0,49,49,132,1,,,,,,,,
,,,,,,,,,,,,,FF,,,,,,,,1.8839,,,,,,,,,,,,,,,,,,,,,,5f545f4aa6b1d47cba7d71ae,6103772272c6cfec7a218145,2021-07-29_22h02.48.619,Simcolourproject_2stim_asymm_v5,2020.2.10,Win32,60,61025ae37ef11b136ea224fe,,,,,,,,,1300,-46,-89,1,0,0,response5disk,,3,-19,-3,1,0,0,rectangle,-19,-3,1,0,0,-19,-3,1,0,0,0,50,50,82,1,,,,,,,,
,,,,,,,,,,,,,FF,,,,,,,,79.8973,,,,,,,,,,,,,,,,,,,,,,5f545f4aa6b1d47cba7d71ae,6103772272c6cfec7a218145,2021-07-29_22h02.48.619,Simcolourproject_2stim_asymm_v5,2020.2.10,Win32,60,61025ae37ef11b136ea224fe,,,,,,,,,4152,37,-80,1,0,0,response3disk,,4,-5,-6,1,0,0,rectangle,-5,-6,1,0,0,-5,-6,1,0,0,0,51,51,38,1,,,,,,,,
,,,,,,,,,,,,,FF,,,,,,,,0.9122,,,,,,,,,,,,,,,,,,,,,,5f545f4aa6b1d47cba7d71ae,6103772272c6cfec7a218145,2021-07-29_22h02.48.619,Simcolourproject_2stim_asymm_v5,2020.2.10,Win32,60,61025ae37ef11b136ea224fe,,,,,,,,,267,74,-35,1,0,0,response3disk,,5,13,5,1,0,0,rectangle,13,5,1,0,0,13,5,1,0,0,0,52,52,72,1,,,,,,,,
,,,,,,,,,,,,,FF,,,,,,,,1.2662,,,,,,,,,,,,,,,,,,,,,,5f545f4aa6b1d47cba7d71ae,6103772272c6cfec7a218145,2021-07-29_22h02.48.619,Simcolourproject_2stim_asymm_v5,2020.2.10,Win32,60,61025ae37ef11b136ea224fe,,,,,,,,,647,89,36,1,0,0,response1disk,,6,-4,8,1,0,0,rectangle,-4,8,1,0,0,-4,8,1,0,0,0,53,53,108,1,,,,,,,,
,,,,,,,,,,,,,FF,,,,,,,,2.3177,,,,,,,,,,,,,,,,,,,,,,5f545f4aa6b1d47cba7d71ae,6103772272c6cfec7a218145,2021-07-29_22h02.48.619,Simcolourproject_2stim_asymm_v5,2020.2.10,Win32,60,61025ae37ef11b136ea224fe,,,,,,,,,2023,72,24,1,0,0,response1disk,,6,2,4,1,0,0,rectangle,2,4,1,0,0,2,4,1,0,0,0,54,54,21,1,,,,,,,,
,,,,,,,,,,,,,FF,,,,,,,,4.3175,,,,,,,,,,,,,,,,,,,,,,5f545f4aa6b1d47cba7d71ae,6103772272c6cfec7a218145,2021-07-29_22h02.48.619,Simcolourproject_2stim_asymm_v5,2020.2.10,Win32,60,61025ae37ef11b136ea224fe,,,,,,,,,2547,80,26,1,0,0,response1disk,,6,-13,-7,1,0,0,rectangle,-13,-7,1,0,0,-13,-7,1,0,0,0,55,55,120,1,,,,,,,,
,,,,,,,,,,,,,FF,,,,,,,,1.7476,,,,,,,,,,,,,,,,,,,,,,5f545f4aa6b1d47cba7d71ae,6103772272c6cfec7a218145,2021-07-29_22h02.48.619,Simcolourproject_2stim_asymm_v5,2020.2.10,Win32,60,61025ae37ef11b136ea224fe,,,,,,,,,2015,75,-37,1,0,0,response3disk,,5,8,-4,1,0,0,rectangle,8,-4,1,0,0,8,-4,1,0,0,0,56,56,24,1,,,,,,,,
,,,,,,,,,,,,,FF,,,,,,,,4.1394,,,,,,,,,,,,,,,,,,,,,,5f545f4aa6b1d47cba7d71ae,6103772272c6cfec7a218145,2021-07-29_22h02.48.619,Simcolourproject_2stim_asymm_v5,2020.2.10,Win32,60,61025ae37ef11b136ea224fe,,,,,,,,,2413,38,83,1,0,0,response1disk,,7,13,-6,1,0,0,rectangle,13,-6,1,0,0,13,-6,1,0,0,0,57,57,48,1,,,,,,,,
,,,,,,,,,,,,,FF,,,,,,,,1.2667,,,,,,,,,,,,,,,,,,,,,,5f545f4aa6b1d47cba7d71ae,6103772272c6cfec7a218145,2021-07-29_22h02.48.619,Simcolourproject_2stim_asymm_v5,2020.2.10,Win32,60,61025ae37ef11b136ea224fe,,,,,,,,,327,95,52,1,0,0,response1disk,,6,-17,-9,1,0,0,rectangle,-17,-9,1,0,0,-17,-9,1,0,0,0,58,58,148,1,,,,,,,,
,,,,,,,,,,,,,FF,,,,,,,,1.9862,,,,,,,,,,,,,,,,,,,,,,5f545f4aa6b1d47cba7d71ae,6103772272c6cfec7a218145,2021-07-29_22h02.48.619,Simcolourproject_2stim_asymm_v5,2020.2.10,Win32,60,61025ae37ef11b136ea224fe,,,,,,,,,3730,90,-42,1,0,0,response3disk,,5,9,6,1,0,0,rectangle,9,6,1,0,0,9,6,1,0,0,0,59,59,42,1,,,,,,,,
,,,,,,,,,,,,,FF,,,,,,,,0.901,,,,,,,,,,,,,,,,,,,,,,5f545f4aa6b1d47cba7d71ae,6103772272c6cfec7a218145,2021-07-29_22h02.48.619,Simcolourproject_2stim_asymm_v5,2020.2.10,Win32,60,61025ae37ef11b136ea224fe,,,,,,,,,4125,-28,-73,1,0,0,response5disk,,3,7,-4,1,0,0,rectangle,7,-4,1,0,0,7,-4,1,0,0,0,60,60,139,1,,,,,,,,
,,,,,,,,,,,,,FF,,,,,,,,1.0508,,,,,,,,,,,,,,,,,,,,,,5f545f4aa6b1d47cba7d71ae,6103772272c6cfec7a218145,2021-07-29_22h02.48.619,Simcolourproject_2stim_asymm_v5,2020.2.10,Win32,60,61025ae37ef11b136ea224fe,,,,,,,,,1963,-77,33,1,0,0,response7disk,,1,1,6,1,0,0,rectangle,1,6,1,0,0,1,6,1,0,0,0,61,61,70,1,,,,,,,,
,,,,,,,,,,,,,FF,,,,,,,,2.818,,,,,,,,,,,,,,,,,,,,,,5f545f4aa6b1d47cba7d71ae,6103772272c6cfec7a218145,2021-07-29_22h02.48.619,Simcolourproject_2stim_asymm_v5,2020.2.10,Win32,60,61025ae37ef11b136ea224fe,,,,,,,,,1843,34,-91,1,0,0,response3disk,,4,-1,14,1,0,0,rectangle,-1,14,1,0,0,-1,14,1,0,0,0,62,62,99,1,,,,,,,,
,,,,,,,,,,,,,FF,,,,,,,,2.3004,,,,,,,,,,,,,,,,,,,,,,5f545f4aa6b1d47cba7d71ae,6103772272c6cfec7a218145,2021-07-29_22h02.48.619,Simcolourproject_2stim_asymm_v5,2020.2.10,Win32,60,61025ae37ef11b136ea224fe,,,,,,,,,3954,26,-82,1,0,0,response3disk,,4,10,-8,1,0,0,rectangle,10,-8,1,0,0,10,-8,1,0,0,0,63,63,7,1,,,,,,,,
,,,,,,,,,,,,,FF,,,,,,,,1.1842,,,,,,,,,,,,,,,,,,,,,,5f545f4aa6b1d47cba7d71ae,6103772272c6cfec7a218145,2021-07-29_22h02.48.619,Simcolourproject_2stim_asymm_v5,2020.2.10,Win32,60,61025ae37ef11b136ea224fe,,,,,,,,,30,93,29,1,0,0,response1disk,,6,8,-3,1,0,0,rectangle,8,-3,1,0,0,8,-3,1,0,0,0,64,64,119,1,,,,,,,,
,,,,,,,,,,,,,FF,,,,,,,,0.934,,,,,,,,,,,,,,,,,,,,,,5f545f4aa6b1d47cba7d71ae,6103772272c6cfec7a218145,2021-07-29_22h02.48.619,Simcolourproject_2stim_asymm_v5,2020.2.10,Win32,60,61025ae37ef11b136ea224fe,,,,,,,,,2039,-36,-58,1,0,0,response5disk,,3,-29,-1,1,0,0,rectangle,-29,-1,1,0,0,-29,-1,1,0,0,0,65,65,60,1,,,,,,,,
,,,,,,,,,,,,,FF,,,,,,,,1.1336,,,,,,,,,,,,,,,,,,,,,,5f545f4aa6b1d47cba7d71ae,6103772272c6cfec7a218145,2021-07-29_22h02.48.619,Simcolourproject_2stim_asymm_v5,2020.2.10,Win32,60,61025ae37ef11b136ea224fe,,,,,,,,,2278,96,-31,1,0,0,response3disk,,5,-19,4,1,0,0,rectangle,-19,4,1,0,0,-19,4,1,0,0,0,66,66,59,1,,,,,,,,
,,,,,,,,,,,,,FF,,,,,,,,1.8525,,,,,,,,,,,,,,,,,,,,,,5f545f4aa6b1d47cba7d71ae,6103772272c6cfec7a218145,2021-07-29_22h02.48.619,Simcolourproject_2stim_asymm_v5,2020.2.10,Win32,60,61025ae37ef11b136ea224fe,,,,,,,,,1623,115,-60,1,0,0,response3disk,,5,15,-2,1,0,0,rectangle,-70,35,1,0,0,8,3,1,0,0,0,67,67,78,1,,response7disk_3,TRUE,1,1,"[265,320,141,97,250,89,323,289,116,101,248,88,15,210,302,68,279,281,129,315]",2.4843,rectangle
,,,,,,,,,,,,,FF,,,,,,,,1.2508,,,,,,,,,,,,,,,,,,,,,,5f545f4aa6b1d47cba7d71ae,6103772272c6cfec7a218145,2021-07-29_22h02.48.619,Simcolourproject_2stim_asymm_v5,2020.2.10,Win32,60,61025ae37ef11b136ea224fe,,,,,,,,,1440,92,53,1,0,0,response1disk,,6,-7,1,1,0,0,rectangle,-7,1,1,0,0,-7,1,1,0,0,0,68,68,46,1,,,,,,,,
,,,,,,,,,,,,,FF,,,,,,,,3.0502,,,,,,,,,,,,,,,,,,,,,,5f545f4aa6b1d47cba7d71ae,6103772272c6cfec7a218145,2021-07-29_22h02.48.619,Simcolourproject_2stim_asymm_v5,2020.2.10,Win32,60,61025ae37ef11b136ea224fe,,,,,,,,,3220,73,44,1,0,0,response1disk,,6,-2,7,1,0,0,rectangle,-2,7,1,0,0,-2,7,1,0,0,0,69,69,92,1,,,,,,,,
,,,,,,,,,,,,,FF,,,,,,,,0.9178,,,,,,,,,,,,,,,,,,,,,,5f545f4aa6b1d47cba7d71ae,6103772272c6cfec7a218145,2021-07-29_22h02.48.619,Simcolourproject_2stim_asymm_v5,2020.2.10,Win32,60,61025ae37ef11b136ea224fe,,,,,,,,,3,-42,-77,1,0,0,response5disk,,3,7,-4,1,0,0,rectangle,7,-4,1,0,0,7,-4,1,0,0,0,70,70,140,1,,,,,,,,
,,,,,,,,,,,,,FF,,,,,,,,1.8999,,,,,,,,,,,,,,,,,,,,,,5f545f4aa6b1d47cba7d71ae,6103772272c6cfec7a218145,2021-07-29_22h02.48.619,Simcolourproject_2stim_asymm_v5,2020.2.10,Win32,60,61025ae37ef11b136ea224fe,,,,,,,,,2489,-87,-45,1,0,0,response5disk,,2,12,-7,1,0,0,rectangle,12,-7,1,0,0,12,-7,1,0,0,0,71,71,112,1,,,,,,,,
,,,,,,,,,,,,,FF,,,,,,,,0.9491,,,,,,,,,,,,,,,,,,,,,,5f545f4aa6b1d47cba7d71ae,6103772272c6cfec7a218145,2021-07-29_22h02.48.619,Simcolourproject_2stim_asymm_v5,2020.2.10,Win32,60,61025ae37ef11b136ea224fe,,,,,,,,,3402,-43,-73,1,0,0,response5disk,,3,-8,-1,1,0,0,rectangle,-8,-1,1,0,0,-8,-1,1,0,0,0,72,72,116,1,,,,,,,,
,,,,,,,,,,,,,FF,,,,,,,,1.0294,,,,,,,,,,,,,,,,,,,,,,5f545f4aa6b1d47cba7d71ae,6103772272c6cfec7a218145,2021-07-29_22h02.48.619,Simcolourproject_2stim_asymm_v5,2020.2.10,Win32,60,61025ae37ef11b136ea224fe,,,,,,,,,738,79,-43,1,0,0,response3disk,,5,-1,-10,1,0,0,rectangle,-1,-10,1,0,0,-1,-10,1,0,0,0,73,73,62,1,,,,,,,,
,,,,,,,,,,,,,FF,,,,,,,,0.7897,,,,,,,,,,,,,,,,,,,,,,5f545f4aa6b1d47cba7d71ae,6103772272c6cfec7a218145,2021-07-29_22h02.48.619,Simcolourproject_2stim_asymm_v5,2020.2.10,Win32,60,61025ae37ef11b136ea224fe,,,,,,,,,2216,-37,-75,1,0,0,response5disk,,3,4,-4,1,0,0,rectangle,4,-4,1,0,0,4,-4,1,0,0,0,74,74,110,1,,,,,,,,
,,,,,,,,,,,,,FF,,,,,,,,0.9728,,,,,,,,,,,,,,,,,,,,,,5f545f4aa6b1d47cba7d71ae,6103772272c6cfec7a218145,2021-07-29_22h02.48.619,Simcolourproject_2stim_asymm_v5,2020.2.10,Win32,60,61025ae37ef11b136ea224fe,,,,,,,,,90,26,-85,1,0,0,response3disk,,4,10,0,1,0,0,rectangle,10,0,1,0,0,10,0,1,0,0,0,75,75,96,1,,,,,,,,
,,,,,,,,,,,,,FF,,,,,,,,1.1233,,,,,,,,,,,,,,,,,,,,,,5f545f4aa6b1d47cba7d71ae,6103772272c6cfec7a218145,2021-07-29_22h02.48.619,Simcolourproject_2stim_asymm_v5,2020.2.10,Win32,60,61025ae37ef11b136ea224fe,,,,,,,,,1123,35,-88,1,0,0,response3disk,,4,1,-9,1,0,0,rectangle,1,-9,1,0,0,1,-9,1,0,0,0,76,76,58,1,,,,,,,,
,,,,,,,,,,,,,FF,,,,,,,,1.8678,,,,,,,,,,,,,,,,,,,,,,5f545f4aa6b1d47cba7d71ae,6103772272c6cfec7a218145,2021-07-29_22h02.48.619,Simcolourproject_2stim_asymm_v5,2020.2.10,Win32,60,61025ae37ef11b136ea224fe,,,,,,,,,1154,86,-48,1,0,0,response3disk,,5,9,8,1,0,0,rectangle,9,8,1,0,0,9,8,1,0,0,0,77,77,146,1,,,,,,,,
,,,,,,,,,,,,,FF,,,,,,,,1.0538,,,,,,,,,,,,,,,,,,,,,,5f545f4aa6b1d47cba7d71ae,6103772272c6cfec7a218145,2021-07-29_22h02.48.619,Simcolourproject_2stim_asymm_v5,2020.2.10,Win32,60,61025ae37ef11b136ea224fe,,,,,,,,,2685,74,-49,1,0,0,response3disk,,5,18,4,1,0,0,rectangle,18,4,1,0,0,18,4,1,0,0,0,78,78,135,1,,,,,,,,
,,,,,,,,,,,,,FF,,,,,,,,1.4511,,,,,,,,,,,,,,,,,,,,,,5f545f4aa6b1d47cba7d71ae,6103772272c6cfec7a218145,2021-07-29_22h02.48.619,Simcolourproject_2stim_asymm_v5,2020.2.10,Win32,60,61025ae37ef11b136ea224fe,,,,,,,,,135,91,45,1,0,0,response1disk,,6,-26,-7,1,0,0,rectangle,-26,-7,1,0,0,-26,-7,1,0,0,0,79,79,156,1,,,,,,,,
,,,,,,,,,,,,,FF,,,,,,,,0.9174,,,,,,,,,,,,,,,,,,,,,,5f545f4aa6b1d47cba7d71ae,6103772272c6cfec7a218145,2021-07-29_22h02.48.619,Simcolourproject_2stim_asymm_v5,2020.2.10,Win32,60,61025ae37ef11b136ea224fe,,,,,,,,,337,46,-85,1,0,0,response3disk,,4,19,2,1,0,0,rectangle,19,2,1,0,0,19,2,1,0,0,0,80,80,133,1,,,,,,,,
,,,,,,,,,,,,,FF,,,,,,,,1.0499,,,,,,,,,,,,,,,,,,,,,,5f545f4aa6b1d47cba7d71ae,6103772272c6cfec7a218145,2021-07-29_22h02.48.619,Simcolourproject_2stim_asymm_v5,2020.2.10,Win32,60,61025ae37ef11b136ea224fe,,,,,,,,,1804,73,-41,1,0,0,response3disk,,5,-7,5,1,0,0,rectangle,-7,5,1,0,0,-7,5,1,0,0,0,81,81,15,1,,,,,,,,
,,,,,,,,,,,,,FF,,,,,,,,1.235,,,,,,,,,,,,,,,,,,,,,,5f545f4aa6b1d47cba7d71ae,6103772272c6cfec7a218145,2021-07-29_22h02.48.619,Simcolourproject_2stim_asymm_v5,2020.2.10,Win32,60,61025ae37ef11b136ea224fe,,,,,,,,,1475,66,-40,1,0,0,response3disk,,5,17,-6,1,0,0,rectangle,17,-6,1,0,0,17,-6,1,0,0,0,82,82,57,1,,,,,,,,
,,,,,,,,,,,,,FF,,,,,,,,0.8224,,,,,,,,,,,,,,,,,,,,,,5f545f4aa6b1d47cba7d71ae,6103772272c6cfec7a218145,2021-07-29_22h02.48.619,Simcolourproject_2stim_asymm_v5,2020.2.10,Win32,60,61025ae37ef11b136ea224fe,,,,,,,,,4093,-34,-76,1,0,0,response5disk,,3,24,15,1,0,0,rectangle,24,15,1,0,0,24,15,1,0,0,0,83,83,75,1,,,,,,,,
,,,,,,,,,,,,,FF,,,,,,,,1.0684,,,,,,,,,,,,,,,,,,,,,,5f545f4aa6b1d47cba7d71ae,6103772272c6cfec7a218145,2021-07-29_22h02.48.619,Simcolourproject_2stim_asymm_v5,2020.2.10,Win32,60,61025ae37ef11b136ea224fe,,,,,,,,,3334,77,-35,1,0,0,response3disk,,5,13,6,1,0,0,rectangle,13,6,1,0,0,13,6,1,0,0,0,84,84,143,1,,,,,,,,
,,,,,,,,,,,,,FF,,,,,,,,1.0691,,,,,,,,,,,,,,,,,,,,,,5f545f4aa6b1d47cba7d71ae,6103772272c6cfec7a218145,2021-07-29_22h02.48.619,Simcolourproject_2stim_asymm_v5,2020.2.10,Win32,60,61025ae37ef11b136ea224fe,,,,,,,,,977,-86,-40,1,0,0,response5disk,,2,-8,7,1,0,0,rectangle,-8,7,1,0,0,-8,7,1,0,0,0,85,85,35,1,,,,,,,,
,,,,,,,,,,,,,FF,,,,,,,,0.7513,,,,,,,,,,,,,,,,,,,,,,5f545f4aa6b1d47cba7d71ae,6103772272c6cfec7a218145,2021-07-29_22h02.48.619,Simcolourproject_2stim_asymm_v5,2020.2.10,Win32,60,61025ae37ef11b136ea224fe,,,,,,,,,2032,-76,-42,1,0,0,response5disk,,2,13,5,1,0,0,rectangle,13,5,1,0,0,13,5,1,0,0,0,86,86,157,1,,,,,,,,
,,,,,,,,,,,,,FF,,,,,,,,0.6843,,,,,,,,,,,,,,,,,,,,,,5f545f4aa6b1d47cba7d71ae,6103772272c6cfec7a218145,2021-07-29_22h02.48.619,Simcolourproject_2stim_asymm_v5,2020.2.10,Win32,60,61025ae37ef11b136ea224fe,,,,,,,,,2729,-55,-29,1,0,0,response5disk,,2,2,6,1,0,0,rectangle,-29,92,1,0,0,0,3,1,0,0,0,87,87,141,1,,response7disk_3,TRUE,0,0,"[265,320,141,97,250,89,323,289,116,101,248,88,15,210,302,68,279,281,129,315]",3.1329,rectangle
,,,,,,,,,,,,,FF,,,,,,,,0.7179,,,,,,,,,,,,,,,,,,,,,,5f545f4aa6b1d47cba7d71ae,6103772272c6cfec7a218145,2021-07-29_22h02.48.619,Simcolourproject_2stim_asymm_v5,2020.2.10,Win32,60,61025ae37ef11b136ea224fe,,,,,,,,,2076,47,-18,1,0,0,response3disk,,5,1,2,1,0,0,rectangle,39,71,1,0,0,1,-12,1,0,0,0,88,88,138,1,,response1disk_3,TRUE,7,7,"[265,320,141,97,250,89,323,289,116,101,248,88,15,210,302,68,279,281,129,315]",1.9334,rectangle
,,,,,,,,,,,,,FF,,,,,,,,0.9507,,,,,,,,,,,,,,,,,,,,,,5f545f4aa6b1d47cba7d71ae,6103772272c6cfec7a218145,2021-07-29_22h02.48.619,Simcolourproject_2stim_asymm_v5,2020.2.10,Win32,60,61025ae37ef11b136ea224fe,,,,,,,,,312,79,-24,1,0,0,response3disk,,5,6,7,1,0,0,rectangle,6,7,1,0,0,6,7,1,0,0,0,89,89,39,1,,,,,,,,
,,,,,,,,,,,,,FF,,,,,,,,1.3895,,,,,,,,,,,,,,,,,,,,,,5f545f4aa6b1d47cba7d71ae,6103772272c6cfec7a218145,2021-07-29_22h02.48.619,Simcolourproject_2stim_asymm_v5,2020.2.10,Win32,60,61025ae37ef11b136ea224fe,,,,,,,,,1001,91,43,1,0,0,response1disk,,6,6,4,1,0,0,rectangle,6,4,1,0,0,6,4,1,0,0,0,90,90,51,1,,,,,,,,
,,,,,,,,,,,,,FF,,,,,,,,1.1306,,,,,,,,,,,,,,,,,,,,,,5f545f4aa6b1d47cba7d71ae,6103772272c6cfec7a218145,2021-07-29_22h02.48.619,Simcolourproject_2stim_asymm_v5,2020.2.10,Win32,60,61025ae37ef11b136ea224fe,,,,,,,,,3968,-78,-62,1,0,0,response5disk,,2,6,5,1,0,0,rectangle,6,5,1,0,0,6,5,1,0,0,0,91,91,154,1,,,,,,,,
,,,,,,,,,,,,,FF,,,,,,,,0.89,,,,,,,,,,,,,,,,,,,,,,5f545f4aa6b1d47cba7d71ae,6103772272c6cfec7a218145,2021-07-29_22h02.48.619,Simcolourproject_2stim_asymm_v5,2020.2.10,Win32,60,61025ae37ef11b136ea224fe,,,,,,,,,2609,-41,-84,1,0,0,response5disk,,3,-10,4,1,0,0,rectangle,-10,4,1,0,0,-10,4,1,0,0,0,92,92,25,1,,,,,,,,
,,,,,,,,,,,,,FF,,,,,,,,0.7714,,,,,,,,,,,,,,,,,,,,,,5f545f4aa6b1d47cba7d71ae,6103772272c6cfec7a218145,2021-07-29_22h02.48.619,Simcolourproject_2stim_asymm_v5,2020.2.10,Win32,60,61025ae37ef11b136ea224fe,,,,,,,,,721,-32,-88,1,0,0,response5disk,,3,-5,-7,1,0,0,rectangle,-5,-7,1,0,0,-5,-7,1,0,0,0,93,93,89,1,,,,,,,,
,,,,,,,,,,,,,FF,,,,,,,,0.7341,,,,,,,,,,,,,,,,,,,,,,5f545f4aa6b1d47cba7d71ae,6103772272c6cfec7a218145,2021-07-29_22h02.48.619,Simcolourproject_2stim_asymm_v5,2020.2.10,Win32,60,61025ae37ef11b136ea224fe,,,,,,,,,1777,85,-46,1,0,0,response3disk,,5,-10,-3,1,0,0,rectangle,-10,-3,1,0,0,-10,-3,1,0,0,0,94,94,36,1,,,,,,,,
,,,,,,,,,,,,,FF,,,,,,,,0.9345,,,,,,,,,,,,,,,,,,,,,,5f545f4aa6b1d47cba7d71ae,6103772272c6cfec7a218145,2021-07-29_22h02.48.619,Simcolourproject_2stim_asymm_v5,2020.2.10,Win32,60,61025ae37ef11b136ea224fe,,,,,,,,,632,-95,-51,1,0,0,response5disk,,2,-15,0,1,0,0,rectangle,-15,0,1,0,0,-15,0,1,0,0,0,95,95,80,1,,,,,,,,
,,,,,,,,,,,,,FF,,,,,,,,0.856,,,,,,,,,,,,,,,,,,,,,,5f545f4aa6b1d47cba7d71ae,6103772272c6cfec7a218145,2021-07-29_22h02.48.619,Simcolourproject_2stim_asymm_v5,2020.2.10,Win32,60,61025ae37ef11b136ea224fe,,,,,,,,,2823,-26,-78,1,0,0,response5disk,,3,-3,-1,1,0,0,rectangle,-37,87,1,0,0,1,5,1,0,0,0,96,96,149,1,,response7disk_3,TRUE,0,0,"[265,320,141,97,250,89,323,289,116,101,248,88,15,210,302,68,279,281,129,315]",1.8409,rectangle
,,,,,,,,,,,,,FF,,,,,,,,1.5846,,,,,,,,,,,,,,,,,,,,,,5f545f4aa6b1d47cba7d71ae,6103772272c6cfec7a218145,2021-07-29_22h02.48.619,Simcolourproject_2stim_asymm_v5,2020.2.10,Win32,60,61025ae37ef11b136ea224fe,,,,,,,,,2876,63,37,1,0,0,response1disk,,6,-6,-9,1,0,0,rectangle,-6,-9,1,0,0,-6,-9,1,0,0,0,97,97,63,1,,,,,,,,
,,,,,,,,,,,,,FF,,,,,,,,1.434,,,,,,,,,,,,,,,,,,,,,,5f545f4aa6b1d47cba7d71ae,6103772272c6cfec7a218145,2021-07-29_22h02.48.619,Simcolourproject_2stim_asymm_v5,2020.2.10,Win32,60,61025ae37ef11b136ea224fe,,,,,,,,,2458,87,49,1,0,0,response1disk,,6,-16,-1,1,0,0,rectangle,-16,-1,1,0,0,-16,-1,1,0,0,0,98,98,124,1,,,,,,,,
,,,,,,,,,,,,,FF,,,,,,,,1.1005,,,,,,,,,,,,,,,,,,,,,,5f545f4aa6b1d47cba7d71ae,6103772272c6cfec7a218145,2021-07-29_22h02.48.619,Simcolourproject_2stim_asymm_v5,2020.2.10,Win32,60,61025ae37ef11b136ea224fe,,,,,,,,,2666,-76,-36,1,0,0,response5disk,,2,-6,-2,1,0,0,rectangle,-6,-2,1,0,0,-6,-2,1,0,0,0,99,99,126,1,,,,,,,,
,,,,,,,,,,,,,FF,,,,,,,,0.7669,,,,,,,,,,,,,,,,,,,,,,5f545f4aa6b1d47cba7d71ae,6103772272c6cfec7a218145,2021-07-29_22h02.48.619,Simcolourproject_2stim_asymm_v5,2020.2.10,Win32,60,61025ae37ef11b136ea224fe,,,,,,,,,2364,-63,-28,1,0,0,response5disk,,2,-12,1,1,0,0,rectangle,-74,-45,1,0,0,1,-3,1,0,0,0,100,100,123,1,,response5disk_3,TRUE,2,2,"[265,320,141,97,250,89,323,289,116,101,248,88,15,210,302,68,279,281,129,315]",2.0507,rectangle
,,,,,,,,,,,,,FF,,,,,,,,1.4848,,,,,,,,,,,,,,,,,,,,,,5f545f4aa6b1d47cba7d71ae,6103772272c6cfec7a218145,2021-07-29_22h02.48.619,Simcolourproject_2stim_asymm_v5,2020.2.10,Win32,60,61025ae37ef11b136ea224fe,,,,,,,,,3856,-45,-92,1,0,0,response5disk,,3,2,0,1,0,0,rectangle,2,0,1,0,0,2,0,1,0,0,0,101,101,29,1,,,,,,,,
,,,,,,,,,,,,,FF,,,,,,,,1.2677,,,,,,,,,,,,,,,,,,,,,,5f545f4aa6b1d47cba7d71ae,6103772272c6cfec7a218145,2021-07-29_22h02.48.619,Simcolourproject_2stim_asymm_v5,2020.2.10,Win32,60,61025ae37ef11b136ea224fe,,,,,,,,,3038,40,-106,1,0,0,response3disk,,4,10,-2,1,0,0,rectangle,10,-2,1,0,0,10,-2,1,0,0,0,102,102,114,1,,,,,,,,
,,,,,,,,,,,,,FF,,,,,,,,1.4162,,,,,,,,,,,,,,,,,,,,,,5f545f4aa6b1d47cba7d71ae,6103772272c6cfec7a218145,2021-07-29_22h02.48.619,Simcolourproject_2stim_asymm_v5,2020.2.10,Win32,60,61025ae37ef11b136ea224fe,,,,,,,,,2374,73,-53,1,0,0,response3disk,,5,6,-3,1,0,0,rectangle,6,-3,1,0,0,6,-3,1,0,0,0,103,103,45,1,,,,,,,,
,,,,,,,,,,,,,FF,,,,,,,,0.9502,,,,,,,,,,,,,,,,,,,,,,5f545f4aa6b1d47cba7d71ae,6103772272c6cfec7a218145,2021-07-29_22h02.48.619,Simcolourproject_2stim_asymm_v5,2020.2.10,Win32,60,61025ae37ef11b136ea224fe,,,,,,,,,3326,96,50,1,0,0,response1disk,,6,2,-12,1,0,0,rectangle,2,-12,1,0,0,2,-12,1,0,0,0,104,104,95,1,,,,,,,,
,,,,,,,,,,,,,FF,,,,,,,,1.4509,,,,,,,,,,,,,,,,,,,,,,5f545f4aa6b1d47cba7d71ae,6103772272c6cfec7a218145,2021-07-29_22h02.48.619,Simcolourproject_2stim_asymm_v5,2020.2.10,Win32,60,61025ae37ef11b136ea224fe,,,,,,,,,3874,-25,-103,1,0,0,response5disk,,3,7,1,1,0,0,rectangle,7,1,1,0,0,7,1,1,0,0,0,105,105,19,1,,,,,,,,
,,,,,,,,,,,,,FF,,,,,,,,2.151,,,,,,,,,,,,,,,,,,,,,,5f545f4aa6b1d47cba7d71ae,6103772272c6cfec7a218145,2021-07-29_22h02.48.619,Simcolourproject_2stim_asymm_v5,2020.2.10,Win32,60,61025ae37ef11b136ea224fe,,,,,,,,,4265,108,-62,1,0,0,response3disk,,5,10,3,1,0,0,rectangle,10,3,1,0,0,10,3,1,0,0,0,106,106,117,1,,,,,,,,
,,,,,,,,,,,,,FF,,,,,,,,1.1835,,,,,,,,,,,,,,,,,,,,,,5f545f4aa6b1d47cba7d71ae,6103772272c6cfec7a218145,2021-07-29_22h02.48.619,Simcolourproject_2stim_asymm_v5,2020.2.10,Win32,60,61025ae37ef11b136ea224fe,,,,,,,,,4011,99,54,1,0,0,response1disk,,6,10,2,1,0,0,rectangle,10,2,1,0,0,10,2,1,0,0,0,107,107,130,1,,,,,,,,
,,,,,,,,,,,,,FF,,,,,,,,1.0869,,,,,,,,,,,,,,,,,,,,,,5f545f4aa6b1d47cba7d71ae,6103772272c6cfec7a218145,2021-07-29_22h02.48.619,Simcolourproject_2stim_asymm_v5,2020.2.10,Win32,60,61025ae37ef11b136ea224fe,,,,,,,,,1553,43,94,1,0,0,response1disk,,7,15,1,1,0,0,rectangle,15,1,1,0,0,15,1,1,0,0,0,108,108,31,1,,,,,,,,
,,,,,,,,,,,,,FF,,,,,,,,0.917,,,,,,,,,,,,,,,,,,,,,,5f545f4aa6b1d47cba7d71ae,6103772272c6cfec7a218145,2021-07-29_22h02.48.619,Simcolourproject_2stim_asymm_v5,2020.2.10,Win32,60,61025ae37ef11b136ea224fe,,,,,,,,,4081,-53,-64,1,0,0,response5disk,,3,-12,-7,1,0,0,rectangle,-12,-7,1,0,0,-12,-7,1,0,0,0,109,109,118,1,,,,,,,,
,,,,,,,,,,,,,FF,,,,,,,,1.1668,,,,,,,,,,,,,,,,,,,,,,5f545f4aa6b1d47cba7d71ae,6103772272c6cfec7a218145,2021-07-29_22h02.48.619,Simcolourproject_2stim_asymm_v5,2020.2.10,Win32,60,61025ae37ef11b136ea224fe,,,,,,,,,2422,61,-100,1,0,0,response3disk,,4,-30,-4,1,0,0,rectangle,-30,-4,1,0,0,-30,-4,1,0,0,0,110,110,129,1,,,,,,,,
,,,,,,,,,,,,,FF,,,,,,,,1.3842,,,,,,,,,,,,,,,,,,,,,,5f545f4aa6b1d47cba7d71ae,6103772272c6cfec7a218145,2021-07-29_22h02.48.619,Simcolourproject_2stim_asymm_v5,2020.2.10,Win32,60,61025ae37ef11b136ea224fe,,,,,,,,,1443,99,-53,1,0,0,response3disk,,5,-13,14,1,0,0,rectangle,-13,14,1,0,0,-13,14,1,0,0,0,111,111,158,1,,,,,,,,
,,,,,,,,,,,,,FF,,,,,,,,1.8196,,,,,,,,,,,,,,,,,,,,,,5f545f4aa6b1d47cba7d71ae,6103772272c6cfec7a218145,2021-07-29_22h02.48.619,Simcolourproject_2stim_asymm_v5,2020.2.10,Win32,60,61025ae37ef11b136ea224fe,,,,,,,,,3992,-47,-90,1,0,0,response5disk,,3,-13,6,1,0,0,rectangle,-13,6,1,0,0,-13,6,1,0,0,0,112,112,86,1,,,,,,,,
,,,,,,,,,,,,,FF,,,,,,,,1.0174,,,,,,,,,,,,,,,,,,,,,,5f545f4aa6b1d47cba7d71ae,6103772272c6cfec7a218145,2021-07-29_22h02.48.619,Simcolourproject_2stim_asymm_v5,2020.2.10,Win32,60,61025ae37ef11b136ea224fe,,,,,,,,,181,105,-44,1,0,0,response3disk,,5,-3,3,1,0,0,rectangle,-3,3,1,0,0,-3,3,1,0,0,0,113,113,12,1,,,,,,,,
,,,,,,,,,,,,,FF,,,,,,,,1.0005,,,,,,,,,,,,,,,,,,,,,,5f545f4aa6b1d47cba7d71ae,6103772272c6cfec7a218145,2021-07-29_22h02.48.619,Simcolourproject_2stim_asymm_v5,2020.2.10,Win32,60,61025ae37ef11b136ea224fe,,,,,,,,,1416,110,32,1,0,0,response1disk,,6,8,-8,1,0,0,rectangle,8,-8,1,0,0,8,-8,1,0,0,0,114,114,40,1,,,,,,,,
,,,,,,,,,,,,,FF,,,,,,,,2.1335,,,,,,,,,,,,,,,,,,,,,,5f545f4aa6b1d47cba7d71ae,6103772272c6cfec7a218145,2021-07-29_22h02.48.619,Simcolourproject_2stim_asymm_v5,2020.2.10,Win32,60,61025ae37ef11b136ea224fe,,,,,,,,,868,102,-56,1,0,0,response3disk,,5,-11,4,1,0,0,rectangle,-42,-103,1,0,0,0,-1,1,0,0,0,115,115,37,1,,response5disk_3,TRUE,3,3,"[265,320,141,97,250,89,323,289,116,101,248,88,15,210,302,68,279,281,129,315]",1.9837,rectangle
,,,,,,,,,,,,,FF,,,,,,,,1.3004,,,,,,,,,,,,,,,,,,,,,,5f545f4aa6b1d47cba7d71ae,6103772272c6cfec7a218145,2021-07-29_22h02.48.619,Simcolourproject_2stim_asymm_v5,2020.2.10,Win32,60,61025ae37ef11b136ea224fe,,,,,,,,,3692,91,48,1,0,0,response1disk,,6,5,7,1,0,0,rectangle,5,7,1,0,0,5,7,1,0,0,0,116,116,155,1,,,,,,,,
,,,,,,,,,,,,,FF,,,,,,,,0.9181,,,,,,,,,,,,,,,,,,,,,,5f545f4aa6b1d47cba7d71ae,6103772272c6cfec7a218145,2021-07-29_22h02.48.619,Simcolourproject_2stim_asymm_v5,2020.2.10,Win32,60,61025ae37ef11b136ea224fe,,,,,,,,,3316,42,81,1,0,0,response1disk,,7,-23,-3,1,0,0,rectangle,-23,-3,1,0,0,-23,-3,1,0,0,0,117,117,53,1,,,,,,,,
,,,,,,,,,,,,,FF,,,,,,,,0.8342,,,,,,,,,,,,,,,,,,,,,,5f545f4aa6b1d47cba7d71ae,6103772272c6cfec7a218145,2021-07-29_22h02.48.619,Simcolourproject_2stim_asymm_v5,2020.2.10,Win32,60,61025ae37ef11b136ea224fe,,,,,,,,,476,75,-48,1,0,0,response3disk,,5,8,1,1,0,0,rectangle,8,1,1,0,0,8,1,1,0,0,0,118,118,17,1,,,,,,,,
,,,,,,,,,,,,,FF,,,,,,,,1.65,,,,,,,,,,,,,,,,,,,,,,5f545f4aa6b1d47cba7d71ae,6103772272c6cfec7a218145,2021-07-29_22h02.48.619,Simcolourproject_2stim_asymm_v5,2020.2.10,Win32,60,61025ae37ef11b136ea224fe,,,,,,,,,233,102,38,1,0,0,response1disk,,6,-3,-2,1,0,0,rectangle,-3,-2,1,0,0,-3,-2,1,0,0,0,119,119,49,1,,,,,,,,
,,,,,,,,,,,,,FF,,,,,,,,1.2175,,,,,,,,,,,,,,,,,,,,,,5f545f4aa6b1d47cba7d71ae,6103772272c6cfec7a218145,2021-07-29_22h02.48.619,Simcolourproject_2stim_asymm_v5,2020.2.10,Win32,60,61025ae37ef11b136ea224fe,,,,,,,,,1036,60,-80,1,0,0,response3disk,,4,6,0,1,0,0,rectangle,6,0,1,0,0,6,0,1,0,0,0,120,120,27,1,,,,,,,,
,,,,,,,,,,,,,FF,,,,,,,,0.9349,,,,,,,,,,,,,,,,,,,,,,5f545f4aa6b1d47cba7d71ae,6103772272c6cfec7a218145,2021-07-29_22h02.48.619,Simcolourproject_2stim_asymm_v5,2020.2.10,Win32,60,61025ae37ef11b136ea224fe,,,,,,,,,3852,-40,-87,1,0,0,response5disk,,3,2,-1,1,0,0,rectangle,2,-1,1,0,0,2,-1,1,0,0,0,121,121,23,1,,,,,,,,
,,,,,,,,,,,,,FF,,,,,,,,1.4667,,,,,,,,,,,,,,,,,,,,,,5f545f4aa6b1d47cba7d71ae,6103772272c6cfec7a218145,2021-07-29_22h02.48.619,Simcolourproject_2stim_asymm_v5,2020.2.10,Win32,60,61025ae37ef11b136ea224fe,,,,,,,,,1534,-55,-89,1,0,0,response5disk,,3,-10,6,1,0,0,rectangle,-10,6,1,0,0,-10,6,1,0,0,0,122,122,56,1,,,,,,,,
,,,,,,,,,,,,,FF,,,,,,,,1.1511,,,,,,,,,,,,,,,,,,,,,,5f545f4aa6b1d47cba7d71ae,6103772272c6cfec7a218145,2021-07-29_22h02.48.619,Simcolourproject_2stim_asymm_v5,2020.2.10,Win32,60,61025ae37ef11b136ea224fe,,,,,,,,,2801,97,-52,1,0,0,response3disk,,5,0,13,1,0,0,rectangle,0,13,1,0,0,0,13,1,0,0,0,123,123,153,1,,,,,,,,
,,,,,,,,,,,,,FF,,,,,,,,1.0834,,,,,,,,,,,,,,,,,,,,,,5f545f4aa6b1d47cba7d71ae,6103772272c6cfec7a218145,2021-07-29_22h02.48.619,Simcolourproject_2stim_asymm_v5,2020.2.10,Win32,60,61025ae37ef11b136ea224fe,,,,,,,,,241,85,-36,1,0,0,response3disk,,5,-3,-5,1,0,0,rectangle,-3,-5,1,0,0,-3,-5,1,0,0,0,124,124,159,1,,,,,,,,
,,,,,,,,,,,,,FF,,,,,,,,1.0337,,,,,,,,,,,,,,,,,,,,,,5f545f4aa6b1d47cba7d71ae,6103772272c6cfec7a218145,2021-07-29_22h02.48.619,Simcolourproject_2stim_asymm_v5,2020.2.10,Win32,60,61025ae37ef11b136ea224fe,,,,,,,,,2117,94,41,1,0,0,response1disk,,6,8,-8,1,0,0,rectangle,8,-8,1,0,0,8,-8,1,0,0,0,125,125,100,1,,,,,,,,
,,,,,,,,,,,,,FF,,,,,,,,1.0163,,,,,,,,,,,,,,,,,,,,,,5f545f4aa6b1d47cba7d71ae,6103772272c6cfec7a218145,2021-07-29_22h02.48.619,Simcolourproject_2stim_asymm_v5,2020.2.10,Win32,60,61025ae37ef11b136ea224fe,,,,,,,,,3258,63,-99,1,0,0,response3disk,,4,23,-6,1,0,0,rectangle,23,-6,1,0,0,23,-6,1,0,0,0,126,126,136,1,,,,,,,,
,,,,,,,,,,,,,FF,,,,,,,,1.1015,,,,,,,,,,,,,,,,,,,,,,5f545f4aa6b1d47cba7d71ae,6103772272c6cfec7a218145,2021-07-29_22h02.48.619,Simcolourproject_2stim_asymm_v5,2020.2.10,Win32,60,61025ae37ef11b136ea224fe,,,,,,,,,680,81,29,1,0,0,response1disk,,6,4,-11,1,0,0,rectangle,4,-11,1,0,0,4,-11,1,0,0,0,127,127,6,1,,,,,,,,
,,,,,,,,,,,,,FF,,,,,,,,0.8672,,,,,,,,,,,,,,,,,,,,,,5f545f4aa6b1d47cba7d71ae,6103772272c6cfec7a218145,2021-07-29_22h02.48.619,Simcolourproject_2stim_asymm_v5,2020.2.10,Win32,60,61025ae37ef11b136ea224fe,,,,,,,,,2945,-42,-99,1,0,0,response5disk,,3,16,-13,1,0,0,rectangle,29,84,1,0,0,-1,1,1,0,0,0,128,128,106,1,,response1disk_3,TRUE,7,7,"[265,320,141,97,250,89,323,289,116,101,248,88,15,210,302,68,279,281,129,315]",1.8502,rectangle
,,,,,,,,,,,,,FF,,,,,,,,2.1507,,,,,,,,,,,,,,,,,,,,,,5f545f4aa6b1d47cba7d71ae,6103772272c6cfec7a218145,2021-07-29_22h02.48.619,Simcolourproject_2stim_asymm_v5,2020.2.10,Win32,60,61025ae37ef11b136ea224fe,,,,,,,,,47,45,101,1,0,0,response1disk,,7,16,-6,1,0,0,rectangle,16,-6,1,0,0,16,-6,1,0,0,0,129,129,69,1,,,,,,,,
,,,,,,,,,,,,,FF,,,,,,,,1.4012,,,,,,,,,,,,,,,,,,,,,,5f545f4aa6b1d47cba7d71ae,6103772272c6cfec7a218145,2021-07-29_22h02.48.619,Simcolourproject_2stim_asymm_v5,2020.2.10,Win32,60,61025ae37ef11b136ea224fe,,,,,,,,,2152,-53,-98,1,0,0,response5disk,,3,1,3,1,0,0,rectangle,1,3,1,0,0,1,3,1,0,0,0,130,130,128,1,,,,,,,,
,,,,,,,,,,,,,FF,,,,,,,,1.468,,,,,,,,,,,,,,,,,,,,,,5f545f4aa6b1d47cba7d71ae,6103772272c6cfec7a218145,2021-07-29_22h02.48.619,Simcolourproject_2stim_asymm_v5,2020.2.10,Win32,60,61025ae37ef11b136ea224fe,,,,,,,,,3763,105,33,1,0,0,response1disk,,6,-15,3,1,0,0,rectangle,-15,3,1,0,0,-15,3,1,0,0,0,131,131,50,1,,,,,,,,
,,,,,,,,,,,,,FF,,,,,,,,1.5845,,,,,,,,,,,,,,,,,,,,,,5f545f4aa6b1d47cba7d71ae,6103772272c6cfec7a218145,2021-07-29_22h02.48.619,Simcolourproject_2stim_asymm_v5,2020.2.10,Win32,60,61025ae37ef11b136ea224fe,,,,,,,,,2126,42,89,1,0,0,response1disk,,7,9,11,1,0,0,rectangle,9,11,1,0,0,9,11,1,0,0,0,132,132,55,1,,,,,,,,
,,,,,,,,,,,,,FF,,,,,,,,1.8841,,,,,,,,,,,,,,,,,,,,,,5f545f4aa6b1d47cba7d71ae,6103772272c6cfec7a218145,2021-07-29_22h02.48.619,Simcolourproject_2stim_asymm_v5,2020.2.10,Win32,60,61025ae37ef11b136ea224fe,,,,,,,,,3768,81,52,1,0,0,response1disk,,6,6,11,1,0,0,rectangle,6,11,1,0,0,6,11,1,0,0,0,133,133,88,1,,,,,,,,
,,,,,,,,,,,,,FF,,,,,,,,1.2337,,,,,,,,,,,,,,,,,,,,,,5f545f4aa6b1d47cba7d71ae,6103772272c6cfec7a218145,2021-07-29_22h02.48.619,Simcolourproject_2stim_asymm_v5,2020.2.10,Win32,60,61025ae37ef11b136ea224fe,,,,,,,,,526,24,-101,1,0,0,response3disk,,4,14,-9,1,0,0,rectangle,14,-9,1,0,0,14,-9,1,0,0,0,134,134,98,1,,,,,,,,
,,,,,,,,,,,,,FF,,,,,,,,1.9673,,,,,,,,,,,,,,,,,,,,,,5f545f4aa6b1d47cba7d71ae,6103772272c6cfec7a218145,2021-07-29_22h02.48.619,Simcolourproject_2stim_asymm_v5,2020.2.10,Win32,60,61025ae37ef11b136ea224fe,,,,,,,,,2162,-20,-97,1,0,0,response5disk,,3,16,-1,1,0,0,rectangle,16,-1,1,0,0,16,-1,1,0,0,0,135,135,5,1,,,,,,,,
,,,,,,,,,,,,,FF,,,,,,,,1.4008,,,,,,,,,,,,,,,,,,,,,,5f545f4aa6b1d47cba7d71ae,6103772272c6cfec7a218145,2021-07-29_22h02.48.619,Simcolourproject_2stim_asymm_v5,2020.2.10,Win32,60,61025ae37ef11b136ea224fe,,,,,,,,,2751,84,-57,1,0,0,response3disk,,5,-3,0,1,0,0,rectangle,-3,0,1,0,0,-3,0,1,0,0,0,136,136,52,1,,,,,,,,
,,,,,,,,,,,,,FF,,,,,,,,1.8174,,,,,,,,,,,,,,,,,,,,,,5f545f4aa6b1d47cba7d71ae,6103772272c6cfec7a218145,2021-07-29_22h02.48.619,Simcolourproject_2stim_asymm_v5,2020.2.10,Win32,60,61025ae37ef11b136ea224fe,,,,,,,,,2708,88,46,1,0,0,response1disk,,6,14,5,1,0,0,rectangle,14,5,1,0,0,14,5,1,0,0,0,137,137,125,1,,,,,,,,
,,,,,,,,,,,,,FF,,,,,,,,1.1846,,,,,,,,,,,,,,,,,,,,,,5f545f4aa6b1d47cba7d71ae,6103772272c6cfec7a218145,2021-07-29_22h02.48.619,Simcolourproject_2stim_asymm_v5,2020.2.10,Win32,60,61025ae37ef11b136ea224fe,,,,,,,,,4318,24,-97,1,0,0,response3disk,,4,30,-7,1,0,0,rectangle,30,-7,1,0,0,30,-7,1,0,0,0,138,138,28,1,,,,,,,,
,,,,,,,,,,,,,FF,,,,,,,,0.9015,,,,,,,,,,,,,,,,,,,,,,5f545f4aa6b1d47cba7d71ae,6103772272c6cfec7a218145,2021-07-29_22h02.48.619,Simcolourproject_2stim_asymm_v5,2020.2.10,Win32,60,61025ae37ef11b136ea224fe,,,,,,,,,3280,81,-55,1,0,0,response3disk,,5,19,0,1,0,0,rectangle,19,0,1,0,0,19,0,1,0,0,0,139,139,3,1,,,,,,,,
,,,,,,,,,,,,,FF,,,,,,,,0.9675,,,,,,,,,,,,,,,,,,,,,,5f545f4aa6b1d47cba7d71ae,6103772272c6cfec7a218145,2021-07-29_22h02.48.619,Simcolourproject_2stim_asymm_v5,2020.2.10,Win32,60,61025ae37ef11b136ea224fe,,,,,,,,,1985,115,42,1,0,0,response1disk,,6,14,7,1,0,0,rectangle,46,76,1,0,0,17,4,1,0,0,0,140,140,9,1,,response1disk_3,TRUE,7,7,"[265,320,141,97,250,89,323,289,116,101,248,88,15,210,302,68,279,281,129,315]",1.5831,rectangle
,,,,,,,,,,,,,FF,,,,,,,,0.9506,,,,,,,,,,,,,,,,,,,,,,5f545f4aa6b1d47cba7d71ae,6103772272c6cfec7a218145,2021-07-29_22h02.48.619,Simcolourproject_2stim_asymm_v5,2020.2.10,Win32,60,61025ae37ef11b136ea224fe,,,,,,,,,2412,-85,-79,1,0,0,response5disk,,2,4,5,1,0,0,rectangle,4,5,1,0,0,4,5,1,0,0,0,141,141,66,1,,,,,,,,
,,,,,,,,,,,,,FF,,,,,,,,1.0334,,,,,,,,,,,,,,,,,,,,,,5f545f4aa6b1d47cba7d71ae,6103772272c6cfec7a218145,2021-07-29_22h02.48.619,Simcolourproject_2stim_asymm_v5,2020.2.10,Win32,60,61025ae37ef11b136ea224fe,,,,,,,,,2506,73,-47,1,0,0,response3disk,,5,-8,7,1,0,0,rectangle,-8,7,1,0,0,-8,7,1,0,0,0,142,142,61,1,,,,,,,,
,,,,,,,,,,,,,FF,,,,,,,,0.8361,,,,,,,,,,,,,,,,,,,,,,5f545f4aa6b1d47cba7d71ae,6103772272c6cfec7a218145,2021-07-29_22h02.48.619,Simcolourproject_2stim_asymm_v5,2020.2.10,Win32,60,61025ae37ef11b136ea224fe,,,,,,,,,2661,-66,-30,1,0,0,response5disk,,2,15,1,1,0,0,rectangle,15,1,1,0,0,15,1,1,0,0,0,143,143,81,1,,,,,,,,
,,,,,,,,,,,,,FF,,,,,,,,0.702,,,,,,,,,,,,,,,,,,,,,,5f545f4aa6b1d47cba7d71ae,6103772272c6cfec7a218145,2021-07-29_22h02.48.619,Simcolourproject_2stim_asymm_v5,2020.2.10,Win32,60,61025ae37ef11b136ea224fe,,,,,,,,,1493,81,-38,1,0,0,response3disk,,5,-4,2,1,0,0,rectangle,-4,2,1,0,0,-4,2,1,0,0,0,144,144,43,1,,,,,,,,
,,,,,,,,,,,,,FF,,,,,,,,1.0455,,,,,,,,,,,,,,,,,,,,,,5f545f4aa6b1d47cba7d71ae,6103772272c6cfec7a218145,2021-07-29_22h02.48.619,Simcolourproject_2stim_asymm_v5,2020.2.10,Win32,60,61025ae37ef11b136ea224fe,,,,,,,,,3638,62,-90,1,0,0,response3disk,,4,-2,1,1,0,0,rectangle,-2,1,1,0,0,-2,1,1,0,0,0,145,145,101,1,,,,,,,,
,,,,,,,,,,,,,FF,,,,,,,,1.1016,,,,,,,,,,,,,,,,,,,,,,5f545f4aa6b1d47cba7d71ae,6103772272c6cfec7a218145,2021-07-29_22h02.48.619,Simcolourproject_2stim_asymm_v5,2020.2.10,Win32,60,61025ae37ef11b136ea224fe,,,,,,,,,1597,-91,28,1,0,0,response7disk,,1,-3,-4,1,0,0,rectangle,-3,-4,1,0,0,-3,-4,1,0,0,0,146,146,76,1,,,,,,,,
,,,,,,,,,,,,,FF,,,,,,,,0.7628,,,,,,,,,,,,,,,,,,,,,,5f545f4aa6b1d47cba7d71ae,6103772272c6cfec7a218145,2021-07-29_22h02.48.619,Simcolourproject_2stim_asymm_v5,2020.2.10,Win32,60,61025ae37ef11b136ea224fe,,,,,,,,,479,93,36,1,0,0,response1disk,,6,-5,-9,1,0,0,rectangle,-5,-9,1,0,0,-5,-9,1,0,0,0,147,147,44,1,,,,,,,,
,,,,,,,,,,,,,FF,,,,,,,,2.0171,,,,,,,,,,,,,,,,,,,,,,5f545f4aa6b1d47cba7d71ae,6103772272c6cfec7a218145,2021-07-29_22h02.48.619,Simcolourproject_2stim_asymm_v5,2020.2.10,Win32,60,61025ae37ef11b136ea224fe,,,,,,,,,3256,-37,-99,1,0,0,response5disk,,3,-6,0,1,0,0,rectangle,-6,0,1,0,0,-6,0,1,0,0,0,148,148,74,1,,,,,,,,
,,,,,,,,,,,,,FF,,,,,,,,1.1841,,,,,,,,,,,,,,,,,,,,,,5f545f4aa6b1d47cba7d71ae,6103772272c6cfec7a218145,2021-07-29_22h02.48.619,Simcolourproject_2stim_asymm_v5,2020.2.10,Win32,60,61025ae37ef11b136ea224fe,,,,,,,,,3053,-74,-49,1,0,0,response5disk,,2,13,1,1,0,0,rectangle,13,1,1,0,0,13,1,1,0,0,0,149,149,33,1,,,,,,,,
,,,,,,,,,,,,,FF,,,,,,,,0.6692,,,,,,,,,,,,,,,,,,,,,,5f545f4aa6b1d47cba7d71ae,6103772272c6cfec7a218145,2021-07-29_22h02.48.619,Simcolourproject_2stim_asymm_v5,2020.2.10,Win32,60,61025ae37ef11b136ea224fe,,,,,,,,,1501,82,-31,1,0,0,response3disk,,5,1,-3,1,0,0,rectangle,1,-3,1,0,0,1,-3,1,0,0,0,150,150,103,1,,,,,,,,
,,,,,,,,,,,,,FF,,,,,,,,1.5846,,,,,,,,,,,,,,,,,,,,,,5f545f4aa6b1d47cba7d71ae,6103772272c6cfec7a218145,2021-07-29_22h02.48.619,Simcolourproject_2stim_asymm_v5,2020.2.10,Win32,60,61025ae37ef11b136ea224fe,,,,,,,,,2958,52,-97,1,0,0,response3disk,,4,2,4,1,0,0,rectangle,2,4,1,0,0,2,4,1,0,0,0,151,151,151,1,,,,,,,,
,,,,,,,,,,,,,FF,,,,,,,,0.8552,,,,,,,,,,,,,,,,,,,,,,5f545f4aa6b1d47cba7d71ae,6103772272c6cfec7a218145,2021-07-29_22h02.48.619,Simcolourproject_2stim_asymm_v5,2020.2.10,Win32,60,61025ae37ef11b136ea224fe,,,,,,,,,2779,-58,-39,1,0,0,response5disk,,2,-2,5,1,0,0,rectangle,-2,5,1,0,0,-2,5,1,0,0,0,152,152,34,1,,,,,,,,
,,,,,,,,,,,,,FF,,,,,,,,0.9345,,,,,,,,,,,,,,,,,,,,,,5f545f4aa6b1d47cba7d71ae,6103772272c6cfec7a218145,2021-07-29_22h02.48.619,Simcolourproject_2stim_asymm_v5,2020.2.10,Win32,60,61025ae37ef11b136ea224fe,,,,,,,,,907,-65,37,1,0,0,response7disk,,1,-2,1,1,0,0,rectangle,-2,1,1,0,0,-2,1,1,0,0,0,153,153,90,1,,,,,,,,
,,,,,,,,,,,,,FF,,,,,,,,0.9675,,,,,,,,,,,,,,,,,,,,,,5f545f4aa6b1d47cba7d71ae,6103772272c6cfec7a218145,2021-07-29_22h02.48.619,Simcolourproject_2stim_asymm_v5,2020.2.10,Win32,60,61025ae37ef11b136ea224fe,,,,,,,,,2010,76,41,1,0,0,response1disk,,6,12,-1,1,0,0,rectangle,12,-1,1,0,0,12,-1,1,0,0,0,154,154,26,1,,,,,,,,
,,,,,,,,,,,,,FF,,,,,,,,0.8011,,,,,,,,,,,,,,,,,,,,,,5f545f4aa6b1d47cba7d71ae,6103772272c6cfec7a218145,2021-07-29_22h02.48.619,Simcolourproject_2stim_asymm_v5,2020.2.10,Win32,60,61025ae37ef11b136ea224fe,,,,,,,,,3884,56,-102,1,0,0,response3disk,,4,-1,-1,1,0,0,rectangle,-1,-1,1,0,0,-1,-1,1,0,0,0,155,155,94,1,,,,,,,,
,,,,,,,,,,,,,FF,,,,,,,,0.9335,,,,,,,,,,,,,,,,,,,,,,5f545f4aa6b1d47cba7d71ae,6103772272c6cfec7a218145,2021-07-29_22h02.48.619,Simcolourproject_2stim_asymm_v5,2020.2.10,Win32,60,61025ae37ef11b136ea224fe,,,,,,,,,1643,78,-42,1,0,0,response3disk,,5,-9,-5,1,0,0,rectangle,-9,-5,1,0,0,-9,-5,1,0,0,0,156,156,13,1,,,,,,,,
,,,,,,,,,,,,,FF,,,,,,,,0.7675,,,,,,,,,,,,,,,,,,,,,,5f545f4aa6b1d47cba7d71ae,6103772272c6cfec7a218145,2021-07-29_22h02.48.619,Simcolourproject_2stim_asymm_v5,2020.2.10,Win32,60,61025ae37ef11b136ea224fe,,,,,,,,,891,-109,-28,1,0,0,response5disk,,2,-2,0,1,0,0,rectangle,-2,0,1,0,0,-2,0,1,0,0,0,157,157,91,1,,,,,,,,
,,,,,,,,,,,,,FF,,,,,,,,3.8348,,,,,,,,,,,,,,,,,,,,,,5f545f4aa6b1d47cba7d71ae,6103772272c6cfec7a218145,2021-07-29_22h02.48.619,Simcolourproject_2stim_asymm_v5,2020.2.10,Win32,60,61025ae37ef11b136ea224fe,,,,,,,,,425,95,-23,1,0,0,response3disk,,5,-9,7,1,0,0,rectangle,-9,7,1,0,0,-9,7,1,0,0,0,158,158,142,1,,,,,,,,
,,,,,,,,,,,,,FF,,,,,,,,1.3003,,,,,,,,,,,,,,,,,,,,,,5f545f4aa6b1d47cba7d71ae,6103772272c6cfec7a218145,2021-07-29_22h02.48.619,Simcolourproject_2stim_asymm_v5,2020.2.10,Win32,60,61025ae37ef11b136ea224fe,,,,,,,,,1881,42,76,1,0,0,response1disk,,7,1,4,1,0,0,rectangle,1,4,1,0,0,1,4,1,0,0,0,159,159,22,1,,,,,,,,
,,,,,,,,,,,,,FF,,,,,,,,1.5538,,,,,,,,,,,,,,,,,,,,,,5f545f4aa6b1d47cba7d71ae,6103772272c6cfec7a218145,2021-07-29_22h02.48.619,Simcolourproject_2stim_asymm_v5,2020.2.10,Win32,60,61025ae37ef11b136ea224fe,,,,,,,,,2026,-92,34,1,0,0,response7disk,,1,-11,-4,1,0,0,rectangle,-11,-4,1,0,0,-11,-4,1,0,0,1,0,160,156,1,,,,,,,,
,,,,,,,,,,,,,FF,,,,,,,,1.1841,,,,,,,,,,,,,,,,,,,,,,5f545f4aa6b1d47cba7d71ae,6103772272c6cfec7a218145,2021-07-29_22h02.48.619,Simcolourproject_2stim_asymm_v5,2020.2.10,Win32,60,61025ae37ef11b136ea224fe,,,,,,,,,72,-44,65,1,0,0,response7disk,,0,-4,6,1,0,0,rectangle,-4,6,1,0,0,-4,6,1,0,0,1,1,161,34,1,,,,,,,,
,,,,,,,,,,,,,FF,,,,,,,,0.8344,,,,,,,,,,,,,,,,,,,,,,5f545f4aa6b1d47cba7d71ae,6103772272c6cfec7a218145,2021-07-29_22h02.48.619,Simcolourproject_2stim_asymm_v5,2020.2.10,Win32,60,61025ae37ef11b136ea224fe,,,,,,,,,4241,-64,-29,1,0,0,response5disk,,2,22,-10,1,0,0,rectangle,22,-10,1,0,0,22,-10,1,0,0,1,2,162,44,1,,,,,,,,
,,,,,,,,,,,,,FF,,,,,,,,1.366,,,,,,,,,,,,,,,,,,,,,,5f545f4aa6b1d47cba7d71ae,6103772272c6cfec7a218145,2021-07-29_22h02.48.619,Simcolourproject_2stim_asymm_v5,2020.2.10,Win32,60,61025ae37ef11b136ea224fe,,,,,,,,,3557,-79,35,1,0,0,response7disk,,1,-3,-12,1,0,0,rectangle,-3,-12,1,0,0,-3,-12,1,0,0,1,3,163,126,1,,,,,,,,
,,,,,,,,,,,,,FF,,,,,,,,0.9508,,,,,,,,,,,,,,,,,,,,,,5f545f4aa6b1d47cba7d71ae,6103772272c6cfec7a218145,2021-07-29_22h02.48.619,Simcolourproject_2stim_asymm_v5,2020.2.10,Win32,60,61025ae37ef11b136ea224fe,,,,,,,,,4321,71,-31,1,0,0,response3disk,,5,-9,2,1,0,0,rectangle,-9,2,1,0,0,-9,2,1,0,0,1,4,164,86,1,,,,,,,,
,,,,,,,,,,,,,FF,,,,,,,,0.9675,,,,,,,,,,,,,,,,,,,,,,5f545f4aa6b1d47cba7d71ae,6103772272c6cfec7a218145,2021-07-29_22h02.48.619,Simcolourproject_2stim_asymm_v5,2020.2.10,Win32,60,61025ae37ef11b136ea224fe,,,,,,,,,898,-33,-63,1,0,0,response5disk,,3,-18,6,1,0,0,rectangle,-18,6,1,0,0,-18,6,1,0,0,1,5,165,135,1,,,,,,,,
,,,,,,,,,,,,,FF,,,,,,,,1.3352,,,,,,,,,,,,,,,,,,,,,,5f545f4aa6b1d47cba7d71ae,6103772272c6cfec7a218145,2021-07-29_22h02.48.619,Simcolourproject_2stim_asymm_v5,2020.2.10,Win32,60,61025ae37ef11b136ea224fe,,,,,,,,,3153,-30,66,1,0,0,response7disk,,0,-22,-1,1,0,0,rectangle,-22,-1,1,0,0,-22,-1,1,0,0,1,6,166,52,1,,,,,,,,
,,,,,,,,,,,,,FF,,,,,,,,1.2064,,,,,,,,,,,,,,,,,,,,,,5f545f4aa6b1d47cba7d71ae,6103772272c6cfec7a218145,2021-07-29_22h02.48.619,Simcolourproject_2stim_asymm_v5,2020.2.10,Win32,60,61025ae37ef11b136ea224fe,,,,,,,,,4077,-59,-56,1,0,0,response5disk,,2,-9,-4,1,0,0,rectangle,-9,-4,1,0,0,-9,-4,1,0,0,1,7,167,1,1,,,,,,,,
,,,,,,,,,,,,,FF,,,,,,,,0.8733,,,,,,,,,,,,,,,,,,,,,,5f545f4aa6b1d47cba7d71ae,6103772272c6cfec7a218145,2021-07-29_22h02.48.619,Simcolourproject_2stim_asymm_v5,2020.2.10,Win32,60,61025ae37ef11b136ea224fe,,,,,,,,,2428,32,-71,1,0,0,response3disk,,4,-18,-6,1,0,0,rectangle,-18,-6,1,0,0,-18,-6,1,0,0,1,8,168,139,1,,,,,,,,
,,,,,,,,,,,,,FF,,,,,,,,0.7893,,,,,,,,,,,,,,,,,,,,,,5f545f4aa6b1d47cba7d71ae,6103772272c6cfec7a218145,2021-07-29_22h02.48.619,Simcolourproject_2stim_asymm_v5,2020.2.10,Win32,60,61025ae37ef11b136ea224fe,,,,,,,,,3265,66,-46,1,0,0,response3disk,,5,-16,7,1,0,0,rectangle,-16,7,1,0,0,-16,7,1,0,0,1,9,169,60,1,,,,,,,,
,,,,,,,,,,,,,FF,,,,,,,,0.9842,,,,,,,,,,,,,,,,,,,,,,5f545f4aa6b1d47cba7d71ae,6103772272c6cfec7a218145,2021-07-29_22h02.48.619,Simcolourproject_2stim_asymm_v5,2020.2.10,Win32,60,61025ae37ef11b136ea224fe,,,,,,,,,2747,92,38,1,0,0,response1disk,,6,15,4,1,0,0,rectangle,15,4,1,0,0,15,4,1,0,0,1,10,170,59,1,,,,,,,,
,,,,,,,,,,,,,FF,,,,,,,,1.3673,,,,,,,,,,,,,,,,,,,,,,5f545f4aa6b1d47cba7d71ae,6103772272c6cfec7a218145,2021-07-29_22h02.48.619,Simcolourproject_2stim_asymm_v5,2020.2.10,Win32,60,61025ae37ef11b136ea224fe,,,,,,,,,574,101,34,1,0,0,response1disk,,6,-8,4,1,0,0,rectangle,-8,4,1,0,0,-8,4,1,0,0,1,11,171,132,1,,,,,,,,
,,,,,,,,,,,,,FF,,,,,,,,1.1725,,,,,,,,,,,,,,,,,,,,,,5f545f4aa6b1d47cba7d71ae,6103772272c6cfec7a218145,2021-07-29_22h02.48.619,Simcolourproject_2stim_asymm_v5,2020.2.10,Win32,60,61025ae37ef11b136ea224fe,,,,,,,,,2650,47,-99,1,0,0,response3disk,,4,10,-2,1,0,0,rectangle,10,-2,1,0,0,10,-2,1,0,0,1,12,172,39,1,,,,,,,,
,,,,,,,,,,,,,FF,,,,,,,,1.1729,,,,,,,,,,,,,,,,,,,,,,5f545f4aa6b1d47cba7d71ae,6103772272c6cfec7a218145,2021-07-29_22h02.48.619,Simcolourproject_2stim_asymm_v5,2020.2.10,Win32,60,61025ae37ef11b136ea224fe,,,,,,,,,3703,-95,-48,1,0,0,response5disk,,2,-14,10,1,0,0,rectangle,-14,10,1,0,0,-14,10,1,0,0,1,13,173,30,1,,,,,,,,
,,,,,,,,,,,,,FF,,,,,,,,0.7903,,,,,,,,,,,,,,,,,,,,,,5f545f4aa6b1d47cba7d71ae,6103772272c6cfec7a218145,2021-07-29_22h02.48.619,Simcolourproject_2stim_asymm_v5,2020.2.10,Win32,60,61025ae37ef11b136ea224fe,,,,,,,,,1578,31,-73,1,0,0,response3disk,,4,-6,-3,1,0,0,rectangle,-6,-3,1,0,0,-6,-3,1,0,0,1,14,174,61,1,,,,,,,,
,,,,,,,,,,,,,FF,,,,,,,,0.9678,,,,,,,,,,,,,,,,,,,,,,5f545f4aa6b1d47cba7d71ae,6103772272c6cfec7a218145,2021-07-29_22h02.48.619,Simcolourproject_2stim_asymm_v5,2020.2.10,Win32,60,61025ae37ef11b136ea224fe,,,,,,,,,1914,-57,-32,1,0,0,response5disk,,2,7,9,1,0,0,rectangle,7,9,1,0,0,7,9,1,0,0,1,15,175,23,1,,,,,,,,
,,,,,,,,,,,,,FF,,,,,,,,1.8063,,,,,,,,,,,,,,,,,,,,,,5f545f4aa6b1d47cba7d71ae,6103772272c6cfec7a218145,2021-07-29_22h02.48.619,Simcolourproject_2stim_asymm_v5,2020.2.10,Win32,60,61025ae37ef11b136ea224fe,,,,,,,,,1711,95,-38,1,0,0,response3disk,,5,9,-6,1,0,0,rectangle,9,-6,1,0,0,9,-6,1,0,0,1,16,176,110,1,,,,,,,,
,,,,,,,,,,,,,FF,,,,,,,,1.49,,,,,,,,,,,,,,,,,,,,,,5f545f4aa6b1d47cba7d71ae,6103772272c6cfec7a218145,2021-07-29_22h02.48.619,Simcolourproject_2stim_asymm_v5,2020.2.10,Win32,60,61025ae37ef11b136ea224fe,,,,,,,,,767,75,-47,1,0,0,response3disk,,5,6,-6,1,0,0,rectangle,6,-6,1,0,0,6,-6,1,0,0,1,17,177,6,1,,,,,,,,
,,,,,,,,,,,,,FF,,,,,,,,1.1677,,,,,,,,,,,,,,,,,,,,,,5f545f4aa6b1d47cba7d71ae,6103772272c6cfec7a218145,2021-07-29_22h02.48.619,Simcolourproject_2stim_asymm_v5,2020.2.10,Win32,60,61025ae37ef11b136ea224fe,,,,,,,,,4276,67,-82,1,0,0,response3disk,,4,16,-7,1,0,0,rectangle,16,-7,1,0,0,16,-7,1,0,0,1,18,178,90,1,,,,,,,,
,,,,,,,,,,,,,FF,,,,,,,,2.4183,,,,,,,,,,,,,,,,,,,,,,5f545f4aa6b1d47cba7d71ae,6103772272c6cfec7a218145,2021-07-29_22h02.48.619,Simcolourproject_2stim_asymm_v5,2020.2.10,Win32,60,61025ae37ef11b136ea224fe,,,,,,,,,237,52,-66,1,0,0,response3disk,,4,3,-3,1,0,0,rectangle,3,-3,1,0,0,3,-3,1,0,0,1,19,179,147,1,,,,,,,,
,,,,,,,,,,,,,FF,,,,,,,,0.9329,,,,,,,,,,,,,,,,,,,,,,5f545f4aa6b1d47cba7d71ae,6103772272c6cfec7a218145,2021-07-29_22h02.48.619,Simcolourproject_2stim_asymm_v5,2020.2.10,Win32,60,61025ae37ef11b136ea224fe,,,,,,,,,2217,-72,48,1,0,0,response7disk,,1,-6,7,1,0,0,rectangle,-6,7,1,0,0,-6,7,1,0,0,1,20,180,88,1,,,,,,,,
,,,,,,,,,,,,,FF,,,,,,,,1.3899,,,,,,,,,,,,,,,,,,,,,,5f545f4aa6b1d47cba7d71ae,6103772272c6cfec7a218145,2021-07-29_22h02.48.619,Simcolourproject_2stim_asymm_v5,2020.2.10,Win32,60,61025ae37ef11b136ea224fe,,,,,,,,,4193,-42,-91,1,0,0,response5disk,,3,6,-8,1,0,0,rectangle,6,-8,1,0,0,6,-8,1,0,0,1,21,181,3,1,,,,,,,,
,,,,,,,,,,,,,FF,,,,,,,,1.1507,,,,,,,,,,,,,,,,,,,,,,5f545f4aa6b1d47cba7d71ae,6103772272c6cfec7a218145,2021-07-29_22h02.48.619,Simcolourproject_2stim_asymm_v5,2020.2.10,Win32,60,61025ae37ef11b136ea224fe,,,,,,,,,117,92,-39,1,0,0,response3disk,,5,10,-4,1,0,0,rectangle,10,-4,1,0,0,10,-4,1,0,0,1,22,182,19,1,,,,,,,,
,,,,,,,,,,,,,FF,,,,,,,,1.5833,,,,,,,,,,,,,,,,,,,,,,5f545f4aa6b1d47cba7d71ae,6103772272c6cfec7a218145,2021-07-29_22h02.48.619,Simcolourproject_2stim_asymm_v5,2020.2.10,Win32,60,61025ae37ef11b136ea224fe,,,,,,,,,3965,-50,71,1,0,0,response7disk,,0,-9,-9,1,0,0,rectangle,-9,-9,1,0,0,-9,-9,1,0,0,1,23,183,104,1,,,,,,,,
,,,,,,,,,,,,,FF,,,,,,,,1.317,,,,,,,,,,,,,,,,,,,,,,5f545f4aa6b1d47cba7d71ae,6103772272c6cfec7a218145,2021-07-29_22h02.48.619,Simcolourproject_2stim_asymm_v5,2020.2.10,Win32,60,61025ae37ef11b136ea224fe,,,,,,,,,4274,103,-45,1,0,0,response3disk,,5,-8,2,1,0,0,rectangle,-8,2,1,0,0,-8,2,1,0,0,1,24,184,27,1,,,,,,,,
,,,,,,,,,,,,,FF,,,,,,,,0.9516,,,,,,,,,,,,,,,,,,,,,,5f545f4aa6b1d47cba7d71ae,6103772272c6cfec7a218145,2021-07-29_22h02.48.619,Simcolourproject_2stim_asymm_v5,2020.2.10,Win32,60,61025ae37ef11b136ea224fe,,,,,,,,,4070,-37,-114,1,0,0,response5disk,,3,12,11,1,0,0,rectangle,12,11,1,0,0,12,11,1,0,0,1,25,185,42,1,,,,,,,,
,,,,,,,,,,,,,FF,,,,,,,,1.2675,,,,,,,,,,,,,,,,,,,,,,5f545f4aa6b1d47cba7d71ae,6103772272c6cfec7a218145,2021-07-29_22h02.48.619,Simcolourproject_2stim_asymm_v5,2020.2.10,Win32,60,61025ae37ef11b136ea224fe,,,,,,,,,454,49,-84,1,0,0,response3disk,,4,9,7,1,0,0,rectangle,9,7,1,0,0,9,7,1,0,0,1,26,186,53,1,,,,,,,,
,,,,,,,,,,,,,FF,,,,,,,,0.9351,,,,,,,,,,,,,,,,,,,,,,5f545f4aa6b1d47cba7d71ae,6103772272c6cfec7a218145,2021-07-29_22h02.48.619,Simcolourproject_2stim_asymm_v5,2020.2.10,Win32,60,61025ae37ef11b136ea224fe,,,,,,,,,3663,71,45,1,0,0,response1disk,,6,12,-3,1,0,0,rectangle,12,-3,1,0,0,12,-3,1,0,0,1,27,187,65,1,,,,,,,,
,,,,,,,,,,,,,FF,,,,,,,,2.3672,,,,,,,,,,,,,,,,,,,,,,5f545f4aa6b1d47cba7d71ae,6103772272c6cfec7a218145,2021-07-29_22h02.48.619,Simcolourproject_2stim_asymm_v5,2020.2.10,Win32,60,61025ae37ef11b136ea224fe,,,,,,,,,3600,-99,-53,1,0,0,response5disk,,2,-3,-1,1,0,0,rectangle,-3,-1,1,0,0,-3,-1,1,0,0,1,28,188,56,1,,,,,,,,
,,,,,,,,,,,,,FF,,,,,,,,1.5021,,,,,,,,,,,,,,,,,,,,,,5f545f4aa6b1d47cba7d71ae,6103772272c6cfec7a218145,2021-07-29_22h02.48.619,Simcolourproject_2stim_asymm_v5,2020.2.10,Win32,60,61025ae37ef11b136ea224fe,,,,,,,,,4060,-67,-54,1,0,0,response5disk,,2,-3,-3,1,0,0,rectangle,-3,-3,1,0,0,-3,-3,1,0,0,1,29,189,73,1,,,,,,,,
,,,,,,,,,,,,,FF,,,,,,,,1.4683,,,,,,,,,,,,,,,,,,,,,,5f545f4aa6b1d47cba7d71ae,6103772272c6cfec7a218145,2021-07-29_22h02.48.619,Simcolourproject_2stim_asymm_v5,2020.2.10,Win32,60,61025ae37ef11b136ea224fe,,,,,,,,,2902,-96,-44,1,0,0,response5disk,,2,-19,-9,1,0,0,rectangle,-19,-9,1,0,0,-19,-9,1,0,0,1,30,190,62,1,,,,,,,,
,,,,,,,,,,,,,FF,,,,,,,,0.7518,,,,,,,,,,,,,,,,,,,,,,5f545f4aa6b1d47cba7d71ae,6103772272c6cfec7a218145,2021-07-29_22h02.48.619,Simcolourproject_2stim_asymm_v5,2020.2.10,Win32,60,61025ae37ef11b136ea224fe,,,,,,,,,3640,70,-29,1,0,0,response3disk,,5,7,4,1,0,0,rectangle,7,4,1,0,0,7,4,1,0,0,1,31,191,31,1,,,,,,,,
,,,,,,,,,,,,,FF,,,,,,,,2.7011,,,,,,,,,,,,,,,,,,,,,,5f545f4aa6b1d47cba7d71ae,6103772272c6cfec7a218145,2021-07-29_22h02.48.619,Simcolourproject_2stim_asymm_v5,2020.2.10,Win32,60,61025ae37ef11b136ea224fe,,,,,,,,,281,-23,-82,1,0,0,response5disk,,3,-4,-5,1,0,0,rectangle,-4,-5,1,0,0,-4,-5,1,0,0,1,32,192,158,1,,,,,,,,
,,,,,,,,,,,,,FF,,,,,,,,1.1175,,,,,,,,,,,,,,,,,,,,,,5f545f4aa6b1d47cba7d71ae,6103772272c6cfec7a218145,2021-07-29_22h02.48.619,Simcolourproject_2stim_asymm_v5,2020.2.10,Win32,60,61025ae37ef11b136ea224fe,,,,,,,,,4235,-57,99,1,0,0,response7disk,,0,-18,0,1,0,0,rectangle,-18,0,1,0,0,-18,0,1,0,0,1,33,193,43,1,,,,,,,,
,,,,,,,,,,,,,FF,,,,,,,,1.0679,,,,,,,,,,,,,,,,,,,,,,5f545f4aa6b1d47cba7d71ae,6103772272c6cfec7a218145,2021-07-29_22h02.48.619,Simcolourproject_2stim_asymm_v5,2020.2.10,Win32,60,61025ae37ef11b136ea224fe,,,,,,,,,226,31,-75,1,0,0,response3disk,,4,1,5,1,0,0,rectangle,1,5,1,0,0,1,5,1,0,0,1,34,194,69,1,,,,,,,,
,,,,,,,,,,,,,FF,,,,,,,,0.8338,,,,,,,,,,,,,,,,,,,,,,5f545f4aa6b1d47cba7d71ae,6103772272c6cfec7a218145,2021-07-29_22h02.48.619,Simcolourproject_2stim_asymm_v5,2020.2.10,Win32,60,61025ae37ef11b136ea224fe,,,,,,,,,75,-40,-85,1,0,0,response5disk,,3,1,-2,1,0,0,rectangle,1,-2,1,0,0,1,-2,1,0,0,1,35,195,33,1,,,,,,,,
,,,,,,,,,,,,,FF,,,,,,,,1.1394,,,,,,,,,,,,,,,,,,,,,,5f545f4aa6b1d47cba7d71ae,6103772272c6cfec7a218145,2021-07-29_22h02.48.619,Simcolourproject_2stim_asymm_v5,2020.2.10,Win32,60,61025ae37ef11b136ea224fe,,,,,,,,,3227,106,49,1,0,0,response1disk,,6,11,-6,1,0,0,rectangle,11,-6,1,0,0,11,-6,1,0,0,1,36,196,154,1,,,,,,,,
,,,,,,,,,,,,,FF,,,,,,,,1.2401,,,,,,,,,,,,,,,,,,,,,,5f545f4aa6b1d47cba7d71ae,6103772272c6cfec7a218145,2021-07-29_22h02.48.619,Simcolourproject_2stim_asymm_v5,2020.2.10,Win32,60,61025ae37ef11b136ea224fe,,,,,,,,,8,-47,-74,1,0,0,response5disk,,3,8,3,1,0,0,rectangle,8,3,1,0,0,8,3,1,0,0,1,37,197,57,1,,,,,,,,
,,,,,,,,,,,,,FF,,,,,,,,0.9352,,,,,,,,,,,,,,,,,,,,,,5f545f4aa6b1d47cba7d71ae,6103772272c6cfec7a218145,2021-07-29_22h02.48.619,Simcolourproject_2stim_asymm_v5,2020.2.10,Win32,60,61025ae37ef11b136ea224fe,,,,,,,,,3222,102,33,1,0,0,response1disk,,6,4,0,1,0,0,rectangle,4,0,1,0,0,4,0,1,0,0,1,38,198,32,1,,,,,,,,
,,,,,,,,,,,,,FF,,,,,,,,0.8625,,,,,,,,,,,,,,,,,,,,,,5f545f4aa6b1d47cba7d71ae,6103772272c6cfec7a218145,2021-07-29_22h02.48.619,Simcolourproject_2stim_asymm_v5,2020.2.10,Win32,60,61025ae37ef11b136ea224fe,,,,,,,,,45,79,41,1,0,0,response1disk,,6,-10,-3,1,0,0,rectangle,-10,-3,1,0,0,-10,-3,1,0,0,1,39,199,67,1,,,,,,,,
,,,,,,,,,,,,,FF,,,,,,,,1.1398,,,,,,,,,,,,,,,,,,,,,,5f545f4aa6b1d47cba7d71ae,6103772272c6cfec7a218145,2021-07-29_22h02.48.619,Simcolourproject_2stim_asymm_v5,2020.2.10,Win32,60,61025ae37ef11b136ea224fe,,,,,,,,,648,87,-30,1,0,0,response3disk,,5,-3,9,1,0,0,rectangle,-3,9,1,0,0,-3,9,1,0,0,1,40,200,37,1,,,,,,,,
,,,,,,,,,,,,,FF,,,,,,,,2.2175,,,,,,,,,,,,,,,,,,,,,,5f545f4aa6b1d47cba7d71ae,6103772272c6cfec7a218145,2021-07-29_22h02.48.619,Simcolourproject_2stim_asymm_v5,2020.2.10,Win32,60,61025ae37ef11b136ea224fe,,,,,,,,,610,43,-80,1,0,0,response3disk,,4,6,-7,1,0,0,rectangle,6,-7,1,0,0,6,-7,1,0,0,1,41,201,21,1,,,,,,,,
,,,,,,,,,,,,,FF,,,,,,,,1.1056,,,,,,,,,,,,,,,,,,,,,,5f545f4aa6b1d47cba7d71ae,6103772272c6cfec7a218145,2021-07-29_22h02.48.619,Simcolourproject_2stim_asymm_v5,2020.2.10,Win32,60,61025ae37ef11b136ea224fe,,,,,,,,,4261,94,45,1,0,0,response1disk,,6,3,-1,1,0,0,rectangle,3,-1,1,0,0,3,-1,1,0,0,1,42,202,119,1,,,,,,,,
,,,,,,,,,,,,,FF,,,,,,,,1.0994,,,,,,,,,,,,,,,,,,,,,,5f545f4aa6b1d47cba7d71ae,6103772272c6cfec7a218145,2021-07-29_22h02.48.619,Simcolourproject_2stim_asymm_v5,2020.2.10,Win32,60,61025ae37ef11b136ea224fe,,,,,,,,,1505,85,-43,1,0,0,response3disk,,5,-4,8,1,0,0,rectangle,-4,8,1,0,0,-4,8,1,0,0,1,43,203,80,1,,,,,,,,
,,,,,,,,,,,,,FF,,,,,,,,1.0009,,,,,,,,,,,,,,,,,,,,,,5f545f4aa6b1d47cba7d71ae,6103772272c6cfec7a218145,2021-07-29_22h02.48.619,Simcolourproject_2stim_asymm_v5,2020.2.10,Win32,60,61025ae37ef11b136ea224fe,,,,,,,,,434,-52,-76,1,0,0,response5disk,,3,0,7,1,0,0,rectangle,0,7,1,0,0,0,7,1,0,0,1,44,204,22,1,,,,,,,,
,,,,,,,,,,,,,FF,,,,,,,,0.9186,,,,,,,,,,,,,,,,,,,,,,5f545f4aa6b1d47cba7d71ae,6103772272c6cfec7a218145,2021-07-29_22h02.48.619,Simcolourproject_2stim_asymm_v5,2020.2.10,Win32,60,61025ae37ef11b136ea224fe,,,,,,,,,439,-32,-64,1,0,0,response5disk,,3,5,1,1,0,0,rectangle,5,1,1,0,0,5,1,1,0,0,1,45,205,125,1,,,,,,,,
,,,,,,,,,,,,,FF,,,,,,,,1.0329,,,,,,,,,,,,,,,,,,,,,,5f545f4aa6b1d47cba7d71ae,6103772272c6cfec7a218145,2021-07-29_22h02.48.619,Simcolourproject_2stim_asymm_v5,2020.2.10,Win32,60,61025ae37ef11b136ea224fe,,,,,,,,,3502,-61,-40,1,0,0,response5disk,,2,4,-1,1,0,0,rectangle,4,-1,1,0,0,4,-1,1,0,0,1,46,206,109,1,,,,,,,,
,,,,,,,,,,,,,FF,,,,,,,,0.923,,,,,,,,,,,,,,,,,,,,,,5f545f4aa6b1d47cba7d71ae,6103772272c6cfec7a218145,2021-07-29_22h02.48.619,Simcolourproject_2stim_asymm_v5,2020.2.10,Win32,60,61025ae37ef11b136ea224fe,,,,,,,,,3002,-30,-91,1,0,0,response5disk,,3,9,-2,1,0,0,rectangle,9,-2,1,0,0,9,-2,1,0,0,1,47,207,14,1,,,,,,,,
,,,,,,,,,,,,,FF,,,,,,,,1.1063,,,,,,,,,,,,,,,,,,,,,,5f545f4aa6b1d47cba7d71ae,6103772272c6cfec7a218145,2021-07-29_22h02.48.619,Simcolourproject_2stim_asymm_v5,2020.2.10,Win32,60,61025ae37ef11b136ea224fe,,,,,,,,,348,-93,55,1,0,0,response7disk,,1,3,-5,1,0,0,rectangle,3,-5,1,0,0,3,-5,1,0,0,1,48,208,9,1,,,,,,,,
,,,,,,,,,,,,,FF,,,,,,,,0.7857,,,,,,,,,,,,,,,,,,,,,,5f545f4aa6b1d47cba7d71ae,6103772272c6cfec7a218145,2021-07-29_22h02.48.619,Simcolourproject_2stim_asymm_v5,2020.2.10,Win32,60,61025ae37ef11b136ea224fe,,,,,,,,,478,98,-38,1,0,0,response3disk,,5,5,2,1,0,0,rectangle,58,-100,1,0,0,-1,0,1,0,0,1,49,209,64,1,,response3disk_3,TRUE,4,4,"[265,320,141,97,250,89,323,289,116,101,248,88,15,210,302,68,279,281,129,315]",2.282,rectangle
,,,,,,,,,,,,,FF,,,,,,,,1.7342,,,,,,,,,,,,,,,,,,,,,,5f545f4aa6b1d47cba7d71ae,6103772272c6cfec7a218145,2021-07-29_22h02.48.619,Simcolourproject_2stim_asymm_v5,2020.2.10,Win32,60,61025ae37ef11b136ea224fe,,,,,,,,,1300,-89,-47,1,0,0,response5disk,,2,10,3,1,0,0,rectangle,10,3,1,0,0,10,3,1,0,0,1,50,210,25,1,,,,,,,,
,,,,,,,,,,,,,FF,,,,,,,,1.0509,,,,,,,,,,,,,,,,,,,,,,5f545f4aa6b1d47cba7d71ae,6103772272c6cfec7a218145,2021-07-29_22h02.48.619,Simcolourproject_2stim_asymm_v5,2020.2.10,Win32,60,61025ae37ef11b136ea224fe,,,,,,,,,4152,101,-30,1,0,0,response3disk,,5,22,5,1,0,0,rectangle,22,5,1,0,0,22,5,1,0,0,1,51,211,26,1,,,,,,,,
,,,,,,,,,,,,,FF,,,,,,,,1.0508,,,,,,,,,,,,,,,,,,,,,,5f545f4aa6b1d47cba7d71ae,6103772272c6cfec7a218145,2021-07-29_22h02.48.619,Simcolourproject_2stim_asymm_v5,2020.2.10,Win32,60,61025ae37ef11b136ea224fe,,,,,,,,,267,73,-39,1,0,0,response3disk,,5,7,-5,1,0,0,rectangle,7,-5,1,0,0,7,-5,1,0,0,1,52,212,93,1,,,,,,,,
,,,,,,,,,,,,,FF,,,,,,,,1.017,,,,,,,,,,,,,,,,,,,,,,5f545f4aa6b1d47cba7d71ae,6103772272c6cfec7a218145,2021-07-29_22h02.48.619,Simcolourproject_2stim_asymm_v5,2020.2.10,Win32,60,61025ae37ef11b136ea224fe,,,,,,,,,647,101,41,1,0,0,response1disk,,6,2,1,1,0,0,rectangle,2,1,1,0,0,2,1,1,0,0,1,53,213,2,1,,,,,,,,
,,,,,,,,,,,,,FF,,,,,,,,1.2008,,,,,,,,,,,,,,,,,,,,,,5f545f4aa6b1d47cba7d71ae,6103772272c6cfec7a218145,2021-07-29_22h02.48.619,Simcolourproject_2stim_asymm_v5,2020.2.10,Win32,60,61025ae37ef11b136ea224fe,,,,,,,,,2023,79,-35,1,0,0,response3disk,,5,4,5,1,0,0,rectangle,4,5,1,0,0,4,5,1,0,0,1,54,214,114,1,,,,,,,,
,,,,,,,,,,,,,FF,,,,,,,,0.8839,,,,,,,,,,,,,,,,,,,,,,5f545f4aa6b1d47cba7d71ae,6103772272c6cfec7a218145,2021-07-29_22h02.48.619,Simcolourproject_2stim_asymm_v5,2020.2.10,Win32,60,61025ae37ef11b136ea224fe,,,,,,,,,2547,-64,-95,1,0,0,response5disk,,3,-7,5,1,0,0,rectangle,-7,5,1,0,0,-7,5,1,0,0,1,55,215,79,1,,,,,,,,
,,,,,,,,,,,,,FF,,,,,,,,1.0347,,,,,,,,,,,,,,,,,,,,,,5f545f4aa6b1d47cba7d71ae,6103772272c6cfec7a218145,2021-07-29_22h02.48.619,Simcolourproject_2stim_asymm_v5,2020.2.10,Win32,60,61025ae37ef11b136ea224fe,,,,,,,,,2015,107,33,1,0,0,response1disk,,6,7,-5,1,0,0,rectangle,7,-5,1,0,0,7,-5,1,0,0,1,56,216,7,1,,,,,,,,
,,,,,,,,,,,,,FF,,,,,,,,0.9869,,,,,,,,,,,,,,,,,,,,,,5f545f4aa6b1d47cba7d71ae,6103772272c6cfec7a218145,2021-07-29_22h02.48.619,Simcolourproject_2stim_asymm_v5,2020.2.10,Win32,60,61025ae37ef11b136ea224fe,,,,,,,,,2413,31,70,1,0,0,response1disk,,7,-4,-5,1,0,0,rectangle,-4,-5,1,0,0,-4,-5,1,0,0,1,57,217,97,1,,,,,,,,
,,,,,,,,,,,,,FF,,,,,,,,1.5164,,,,,,,,,,,,,,,,,,,,,,5f545f4aa6b1d47cba7d71ae,6103772272c6cfec7a218145,2021-07-29_22h02.48.619,Simcolourproject_2stim_asymm_v5,2020.2.10,Win32,60,61025ae37ef11b136ea224fe,,,,,,,,,327,83,49,1,0,0,response1disk,,6,-9,7,1,0,0,rectangle,-9,7,1,0,0,-9,7,1,0,0,1,58,218,0,1,,,,,,,,
,,,,,,,,,,,,,FF,,,,,,,,1.7179,,,,,,,,,,,,,,,,,,,,,,5f545f4aa6b1d47cba7d71ae,6103772272c6cfec7a218145,2021-07-29_22h02.48.619,Simcolourproject_2stim_asymm_v5,2020.2.10,Win32,60,61025ae37ef11b136ea224fe,,,,,,,,,3730,46,-101,1,0,0,response3disk,,4,0,4,1,0,0,rectangle,0,4,1,0,0,0,4,1,0,0,1,59,219,10,1,,,,,,,,
,,,,,,,,,,,,,FF,,,,,,,,0.9342,,,,,,,,,,,,,,,,,,,,,,5f545f4aa6b1d47cba7d71ae,6103772272c6cfec7a218145,2021-07-29_22h02.48.619,Simcolourproject_2stim_asymm_v5,2020.2.10,Win32,60,61025ae37ef11b136ea224fe,,,,,,,,,4125,-62,-39,1,0,0,response5disk,,2,0,5,1,0,0,rectangle,0,5,1,0,0,0,5,1,0,0,1,60,220,16,1,,,,,,,,
,,,,,,,,,,,,,FF,,,,,,,,0.8833,,,,,,,,,,,,,,,,,,,,,,5f545f4aa6b1d47cba7d71ae,6103772272c6cfec7a218145,2021-07-29_22h02.48.619,Simcolourproject_2stim_asymm_v5,2020.2.10,Win32,60,61025ae37ef11b136ea224fe,,,,,,,,,1963,-81,47,1,0,0,response7disk,,1,-24,4,1,0,0,rectangle,-24,4,1,0,0,-24,4,1,0,0,1,61,221,82,1,,,,,,,,
,,,,,,,,,,,,,FF,,,,,,,,0.8015,,,,,,,,,,,,,,,,,,,,,,5f545f4aa6b1d47cba7d71ae,6103772272c6cfec7a218145,2021-07-29_22h02.48.619,Simcolourproject_2stim_asymm_v5,2020.2.10,Win32,60,61025ae37ef11b136ea224fe,,,,,,,,,1843,104,-43,1,0,0,response3disk,,5,-3,15,1,0,0,rectangle,-3,15,1,0,0,-3,15,1,0,0,1,62,222,157,1,,,,,,,,
,,,,,,,,,,,,,FF,,,,,,,,1.05,,,,,,,,,,,,,,,,,,,,,,5f545f4aa6b1d47cba7d71ae,6103772272c6cfec7a218145,2021-07-29_22h02.48.619,Simcolourproject_2stim_asymm_v5,2020.2.10,Win32,60,61025ae37ef11b136ea224fe,,,,,,,,,3954,-30,-92,1,0,0,response5disk,,3,5,7,1,0,0,rectangle,5,7,1,0,0,5,7,1,0,0,1,63,223,75,1,,,,,,,,
,,,,,,,,,,,,,FF,,,,,,,,0.7511,,,,,,,,,,,,,,,,,,,,,,5f545f4aa6b1d47cba7d71ae,6103772272c6cfec7a218145,2021-07-29_22h02.48.619,Simcolourproject_2stim_asymm_v5,2020.2.10,Win32,60,61025ae37ef11b136ea224fe,,,,,,,,,30,71,-37,1,0,0,response3disk,,5,3,-6,1,0,0,rectangle,3,-6,1,0,0,3,-6,1,0,0,1,64,224,70,1,,,,,,,,
,,,,,,,,,,,,,FF,,,,,,,,1.3345,,,,,,,,,,,,,,,,,,,,,,5f545f4aa6b1d47cba7d71ae,6103772272c6cfec7a218145,2021-07-29_22h02.48.619,Simcolourproject_2stim_asymm_v5,2020.2.10,Win32,60,61025ae37ef11b136ea224fe,,,,,,,,,2039,-92,-51,1,0,0,response5disk,,2,14,7,1,0,0,rectangle,14,7,1,0,0,14,7,1,0,0,1,65,225,138,1,,,,,,,,
,,,,,,,,,,,,,FF,,,,,,,,0.938,,,,,,,,,,,,,,,,,,,,,,5f545f4aa6b1d47cba7d71ae,6103772272c6cfec7a218145,2021-07-29_22h02.48.619,Simcolourproject_2stim_asymm_v5,2020.2.10,Win32,60,61025ae37ef11b136ea224fe,,,,,,,,,2278,97,-41,1,0,0,response3disk,,5,-1,7,1,0,0,rectangle,-1,7,1,0,0,-1,7,1,0,0,1,66,226,20,1,,,,,,,,
,,,,,,,,,,,,,FF,,,,,,,,1.7368,,,,,,,,,,,,,,,,,,,,,,5f545f4aa6b1d47cba7d71ae,6103772272c6cfec7a218145,2021-07-29_22h02.48.619,Simcolourproject_2stim_asymm_v5,2020.2.10,Win32,60,61025ae37ef11b136ea224fe,,,,,,,,,1623,48,-80,1,0,0,response3disk,,4,8,-6,1,0,0,rectangle,8,-6,1,0,0,8,-6,1,0,0,1,67,227,83,1,,,,,,,,
,,,,,,,,,,,,,FF,,,,,,,,1.118,,,,,,,,,,,,,,,,,,,,,,5f545f4aa6b1d47cba7d71ae,6103772272c6cfec7a218145,2021-07-29_22h02.48.619,Simcolourproject_2stim_asymm_v5,2020.2.10,Win32,60,61025ae37ef11b136ea224fe,,,,,,,,,1440,76,33,1,0,0,response1disk,,6,-5,2,1,0,0,rectangle,-5,2,1,0,0,-5,2,1,0,0,1,68,228,137,1,,,,,,,,
,,,,,,,,,,,,,FF,,,,,,,,1.4527,,,,,,,,,,,,,,,,,,,,,,5f545f4aa6b1d47cba7d71ae,6103772272c6cfec7a218145,2021-07-29_22h02.48.619,Simcolourproject_2stim_asymm_v5,2020.2.10,Win32,60,61025ae37ef11b136ea224fe,,,,,,,,,3220,46,92,1,0,0,response1disk,,7,13,-1,1,0,0,rectangle,13,-1,1,0,0,13,-1,1,0,0,1,69,229,89,1,,,,,,,,
,,,,,,,,,,,,,FF,,,,,,,,0.7362,,,,,,,,,,,,,,,,,,,,,,5f545f4aa6b1d47cba7d71ae,6103772272c6cfec7a218145,2021-07-29_22h02.48.619,Simcolourproject_2stim_asymm_v5,2020.2.10,Win32,60,61025ae37ef11b136ea224fe,,,,,,,,,3,-41,-93,1,0,0,response5disk,,3,20,11,1,0,0,rectangle,20,11,1,0,0,20,11,1,0,0,1,70,230,47,1,,,,,,,,
,,,,,,,,,,,,,FF,,,,,,,,0.802,,,,,,,,,,,,,,,,,,,,,,5f545f4aa6b1d47cba7d71ae,6103772272c6cfec7a218145,2021-07-29_22h02.48.619,Simcolourproject_2stim_asymm_v5,2020.2.10,Win32,60,61025ae37ef11b136ea224fe,,,,,,,,,2489,-83,-38,1,0,0,response5disk,,2,5,4,1,0,0,rectangle,5,4,1,0,0,5,4,1,0,0,1,71,231,24,1,,,,,,,,
,,,,,,,,,,,,,FF,,,,,,,,1.0169,,,,,,,,,,,,,,,,,,,,,,5f545f4aa6b1d47cba7d71ae,6103772272c6cfec7a218145,2021-07-29_22h02.48.619,Simcolourproject_2stim_asymm_v5,2020.2.10,Win32,60,61025ae37ef11b136ea224fe,,,,,,,,,3402,-41,-70,1,0,0,response5disk,,3,2,5,1,0,0,rectangle,2,5,1,0,0,2,5,1,0,0,1,72,232,87,1,,,,,,,,
,,,,,,,,,,,,,FF,,,,,,,,0.9343,,,,,,,,,,,,,,,,,,,,,,5f545f4aa6b1d47cba7d71ae,6103772272c6cfec7a218145,2021-07-29_22h02.48.619,Simcolourproject_2stim_asymm_v5,2020.2.10,Win32,60,61025ae37ef11b136ea224fe,,,,,,,,,738,23,-85,1,0,0,response3disk,,4,-2,0,1,0,0,rectangle,-2,0,1,0,0,-2,0,1,0,0,1,73,233,15,1,,,,,,,,
,,,,,,,,,,,,,FF,,,,,,,,1.5661,,,,,,,,,,,,,,,,,,,,,,5f545f4aa6b1d47cba7d71ae,6103772272c6cfec7a218145,2021-07-29_22h02.48.619,Simcolourproject_2stim_asymm_v5,2020.2.10,Win32,60,61025ae37ef11b136ea224fe,,,,,,,,,2216,-33,-74,1,0,0,response5disk,,3,0,-1,1,0,0,rectangle,0,-1,1,0,0,0,-1,1,0,0,1,74,234,141,1,,,,,,,,
,,,,,,,,,,,,,FF,,,,,,,,1.3346,,,,,,,,,,,,,,,,,,,,,,5f545f4aa6b1d47cba7d71ae,6103772272c6cfec7a218145,2021-07-29_22h02.48.619,Simcolourproject_2stim_asymm_v5,2020.2.10,Win32,60,61025ae37ef11b136ea224fe,,,,,,,,,90,92,-44,1,0,0,response3disk,,5,13,3,1,0,0,rectangle,13,3,1,0,0,13,3,1,0,0,1,75,235,78,1,,,,,,,,
,,,,,,,,,,,,,FF,,,,,,,,1.3161,,,,,,,,,,,,,,,,,,,,,,5f545f4aa6b1d47cba7d71ae,6103772272c6cfec7a218145,2021-07-29_22h02.48.619,Simcolourproject_2stim_asymm_v5,2020.2.10,Win32,60,61025ae37ef11b136ea224fe,,,,,,,,,1123,60,-97,1,0,0,response3disk,,4,-5,-9,1,0,0,rectangle,-5,-9,1,0,0,-5,-9,1,0,0,1,76,236,92,1,,,,,,,,
,,,,,,,,,,,,,FF,,,,,,,,0.884,,,,,,,,,,,,,,,,,,,,,,5f545f4aa6b1d47cba7d71ae,6103772272c6cfec7a218145,2021-07-29_22h02.48.619,Simcolourproject_2stim_asymm_v5,2020.2.10,Win32,60,61025ae37ef11b136ea224fe,,,,,,,,,1154,95,-38,1,0,0,response3disk,,5,7,1,1,0,0,rectangle,7,1,1,0,0,7,1,1,0,0,1,77,237,29,1,,,,,,,,
,,,,,,,,,,,,,FF,,,,,,,,1.0009,,,,,,,,,,,,,,,,,,,,,,5f545f4aa6b1d47cba7d71ae,6103772272c6cfec7a218145,2021-07-29_22h02.48.619,Simcolourproject_2stim_asymm_v5,2020.2.10,Win32,60,61025ae37ef11b136ea224fe,,,,,,,,,2685,89,-39,1,0,0,response3disk,,5,25,-9,1,0,0,rectangle,25,-9,1,0,0,25,-9,1,0,0,1,78,238,143,1,,,,,,,,
,,,,,,,,,,,,,FF,,,,,,,,0.6837,,,,,,,,,,,,,,,,,,,,,,5f545f4aa6b1d47cba7d71ae,6103772272c6cfec7a218145,2021-07-29_22h02.48.619,Simcolourproject_2stim_asymm_v5,2020.2.10,Win32,60,61025ae37ef11b136ea224fe,,,,,,,,,135,61,-35,1,0,0,response3disk,,5,-9,3,1,0,0,rectangle,-9,3,1,0,0,-9,3,1,0,0,1,79,239,130,1,,,,,,,,
,,,,,,,,,,,,,FF,,,,,,,,1.2495,,,,,,,,,,,,,,,,,,,,,,5f545f4aa6b1d47cba7d71ae,6103772272c6cfec7a218145,2021-07-29_22h02.48.619,Simcolourproject_2stim_asymm_v5,2020.2.10,Win32,60,61025ae37ef11b136ea224fe,,,,,,,,,337,66,-35,1,0,0,response3disk,,5,15,-11,1,0,0,rectangle,15,-11,1,0,0,15,-11,1,0,0,1,80,240,68,1,,,,,,,,
,,,,,,,,,,,,,FF,,,,,,,,0.7682,,,,,,,,,,,,,,,,,,,,,,5f545f4aa6b1d47cba7d71ae,6103772272c6cfec7a218145,2021-07-29_22h02.48.619,Simcolourproject_2stim_asymm_v5,2020.2.10,Win32,60,61025ae37ef11b136ea224fe,,,,,,,,,1804,67,39,1,0,0,response1disk,,6,1,8,1,0,0,rectangle,1,8,1,0,0,1,8,1,0,0,1,81,241,48,1,,,,,,,,
,,,,,,,,,,,,,FF,,,,,,,,2.7177,,,,,,,,,,,,,,,,,,,,,,5f545f4aa6b1d47cba7d71ae,6103772272c6cfec7a218145,2021-07-29_22h02.48.619,Simcolourproject_2stim_asymm_v5,2020.2.10,Win32,60,61025ae37ef11b136ea224fe,,,,,,,,,1475,84,-33,1,0,0,response3disk,,5,7,3,1,0,0,rectangle,7,3,1,0,0,7,3,1,0,0,1,82,242,159,1,,,,,,,,
,,,,,,,,,,,,,FF,,,,,,,,1.1364,,,,,,,,,,,,,,,,,,,,,,5f545f4aa6b1d47cba7d71ae,6103772272c6cfec7a218145,2021-07-29_22h02.48.619,Simcolourproject_2stim_asymm_v5,2020.2.10,Win32,60,61025ae37ef11b136ea224fe,,,,,,,,,4093,88,-32,1,0,0,response3disk,,5,15,-9,1,0,0,rectangle,15,-9,1,0,0,15,-9,1,0,0,1,83,243,145,1,,,,,,,,
,,,,,,,,,,,,,FF,,,,,,,,0.8895,,,,,,,,,,,,,,,,,,,,,,5f545f4aa6b1d47cba7d71ae,6103772272c6cfec7a218145,2021-07-29_22h02.48.619,Simcolourproject_2stim_asymm_v5,2020.2.10,Win32,60,61025ae37ef11b136ea224fe,,,,,,,,,3334,29,-83,1,0,0,response3disk,,4,-11,-4,1,0,0,rectangle,-11,-4,1,0,0,-11,-4,1,0,0,1,84,244,98,1,,,,,,,,
,,,,,,,,,,,,,FF,,,,,,,,0.8852,,,,,,,,,,,,,,,,,,,,,,5f545f4aa6b1d47cba7d71ae,6103772272c6cfec7a218145,2021-07-29_22h02.48.619,Simcolourproject_2stim_asymm_v5,2020.2.10,Win32,60,61025ae37ef11b136ea224fe,,,,,,,,,977,-44,-76,1,0,0,response5disk,,3,-1,2,1,0,0,rectangle,-1,2,1,0,0,-1,2,1,0,0,1,85,245,112,1,,,,,,,,
,,,,,,,,,,,,,FF,,,,,,,,0.951,,,,,,,,,,,,,,,,,,,,,,5f545f4aa6b1d47cba7d71ae,6103772272c6cfec7a218145,2021-07-29_22h02.48.619,Simcolourproject_2stim_asymm_v5,2020.2.10,Win32,60,61025ae37ef11b136ea224fe,,,,,,,,,2032,-70,-37,1,0,0,response5disk,,2,15,3,1,0,0,rectangle,15,3,1,0,0,15,3,1,0,0,1,86,246,123,1,,,,,,,,
,,,,,,,,,,,,,FF,,,,,,,,1.0384,,,,,,,,,,,,,,,,,,,,,,5f545f4aa6b1d47cba7d71ae,6103772272c6cfec7a218145,2021-07-29_22h02.48.619,Simcolourproject_2stim_asymm_v5,2020.2.10,Win32,60,61025ae37ef11b136ea224fe,,,,,,,,,2729,-33,-75,1,0,0,response5disk,,3,-3,-11,1,0,0,rectangle,47,81,1,0,0,-1,-10,1,0,0,1,87,247,140,1,,response1disk_3,TRUE,7,7,"[265,320,141,97,250,89,323,289,116,101,248,88,15,210,302,68,279,281,129,315]",1.665,rectangle
,,,,,,,,,,,,,FF,,,,,,,,0.9848,,,,,,,,,,,,,,,,,,,,,,5f545f4aa6b1d47cba7d71ae,6103772272c6cfec7a218145,2021-07-29_22h02.48.619,Simcolourproject_2stim_asymm_v5,2020.2.10,Win32,60,61025ae37ef11b136ea224fe,,,,,,,,,2076,99,-52,1,0,0,response3disk,,5,-3,1,1,0,0,rectangle,-3,1,1,0,0,-3,1,1,0,0,1,88,248,35,1,,,,,,,,
,,,,,,,,,,,,,FF,,,,,,,,0.9177,,,,,,,,,,,,,,,,,,,,,,5f545f4aa6b1d47cba7d71ae,6103772272c6cfec7a218145,2021-07-29_22h02.48.619,Simcolourproject_2stim_asymm_v5,2020.2.10,Win32,60,61025ae37ef11b136ea224fe,,,,,,,,,312,52,-102,1,0,0,response3disk,,4,-9,11,1,0,0,rectangle,-80,50,1,0,0,-15,6,1,0,0,1,89,249,124,1,,response7disk_3,TRUE,1,1,"[265,320,141,97,250,89,323,289,116,101,248,88,15,210,302,68,279,281,129,315]",1.6671,rectangle
,,,,,,,,,,,,,FF,,,,,,,,2.0676,,,,,,,,,,,,,,,,,,,,,,5f545f4aa6b1d47cba7d71ae,6103772272c6cfec7a218145,2021-07-29_22h02.48.619,Simcolourproject_2stim_asymm_v5,2020.2.10,Win32,60,61025ae37ef11b136ea224fe,,,,,,,,,1001,-27,-85,1,0,0,response5disk,,3,10,15,1,0,0,rectangle,10,15,1,0,0,10,15,1,0,0,1,90,250,71,1,,,,,,,,
,,,,,,,,,,,,,FF,,,,,,,,0.9182,,,,,,,,,,,,,,,,,,,,,,5f545f4aa6b1d47cba7d71ae,6103772272c6cfec7a218145,2021-07-29_22h02.48.619,Simcolourproject_2stim_asymm_v5,2020.2.10,Win32,60,61025ae37ef11b136ea224fe,,,,,,,,,3968,-89,-39,1,0,0,response5disk,,2,24,-5,1,0,0,rectangle,24,-5,1,0,0,24,-5,1,0,0,1,91,251,76,1,,,,,,,,
,,,,,,,,,,,,,FF,,,,,,,,1.1061,,,,,,,,,,,,,,,,,,,,,,5f545f4aa6b1d47cba7d71ae,6103772272c6cfec7a218145,2021-07-29_22h02.48.619,Simcolourproject_2stim_asymm_v5,2020.2.10,Win32,60,61025ae37ef11b136ea224fe,,,,,,,,,2609,-42,-74,1,0,0,response5disk,,3,12,4,1,0,0,rectangle,12,4,1,0,0,12,4,1,0,0,1,92,252,101,1,,,,,,,,
,,,,,,,,,,,,,FF,,,,,,,,1.1728,,,,,,,,,,,,,,,,,,,,,,5f545f4aa6b1d47cba7d71ae,6103772272c6cfec7a218145,2021-07-29_22h02.48.619,Simcolourproject_2stim_asymm_v5,2020.2.10,Win32,60,61025ae37ef11b136ea224fe,,,,,,,,,721,-71,-35,1,0,0,response5disk,,2,6,3,1,0,0,rectangle,6,3,1,0,0,6,3,1,0,0,1,93,253,84,1,,,,,,,,
,,,,,,,,,,,,,FF,,,,,,,,0.9009,,,,,,,,,,,,,,,,,,,,,,5f545f4aa6b1d47cba7d71ae,6103772272c6cfec7a218145,2021-07-29_22h02.48.619,Simcolourproject_2stim_asymm_v5,2020.2.10,Win32,60,61025ae37ef11b136ea224fe,,,,,,,,,1777,105,-65,1,0,0,response3disk,,5,4,-10,1,0,0,rectangle,4,-10,1,0,0,4,-10,1,0,0,1,94,254,103,1,,,,,,,,
,,,,,,,,,,,,,FF,,,,,,,,1.0061,,,,,,,,,,,,,,,,,,,,,,5f545f4aa6b1d47cba7d71ae,6103772272c6cfec7a218145,2021-07-29_22h02.48.619,Simcolourproject_2stim_asymm_v5,2020.2.10,Win32,60,61025ae37ef11b136ea224fe,,,,,,,,,632,-85,-31,1,0,0,response5disk,,2,-1,-11,1,0,0,rectangle,-1,-11,1,0,0,-1,-11,1,0,0,1,95,255,142,1,,,,,,,,
,,,,,,,,,,,,,FF,,,,,,,,0.8529,,,,,,,,,,,,,,,,,,,,,,5f545f4aa6b1d47cba7d71ae,6103772272c6cfec7a218145,2021-07-29_22h02.48.619,Simcolourproject_2stim_asymm_v5,2020.2.10,Win32,60,61025ae37ef11b136ea224fe,,,,,,,,,2823,-41,-57,1,0,0,response5disk,,3,-17,-1,1,0,0,rectangle,-17,-1,1,0,0,-17,-1,1,0,0,1,96,256,128,1,,,,,,,,
,,,,,,,,,,,,,FF,,,,,,,,0.7173,,,,,,,,,,,,,,,,,,,,,,5f545f4aa6b1d47cba7d71ae,6103772272c6cfec7a218145,2021-07-29_22h02.48.619,Simcolourproject_2stim_asymm_v5,2020.2.10,Win32,60,61025ae37ef11b136ea224fe,,,,,,,,,2876,97,-52,1,0,0,response3disk,,5,-13,6,1,0,0,rectangle,-13,6,1,0,0,-13,6,1,0,0,1,97,257,58,1,,,,,,,,
,,,,,,,,,,,,,FF,,,,,,,,0.9568,,,,,,,,,,,,,,,,,,,,,,5f545f4aa6b1d47cba7d71ae,6103772272c6cfec7a218145,2021-07-29_22h02.48.619,Simcolourproject_2stim_asymm_v5,2020.2.10,Win32,60,61025ae37ef11b136ea224fe,,,,,,,,,2458,95,35,1,0,0,response1disk,,6,10,4,1,0,0,rectangle,10,4,1,0,0,10,4,1,0,0,1,98,258,54,1,,,,,,,,
,,,,,,,,,,,,,FF,,,,,,,,0.8997,,,,,,,,,,,,,,,,,,,,,,5f545f4aa6b1d47cba7d71ae,6103772272c6cfec7a218145,2021-07-29_22h02.48.619,Simcolourproject_2stim_asymm_v5,2020.2.10,Win32,60,61025ae37ef11b136ea224fe,,,,,,,,,2666,-49,-97,1,0,0,response5disk,,3,0,3,1,0,0,rectangle,0,3,1,0,0,0,3,1,0,0,1,99,259,55,1,,,,,,,,
,,,,,,,,,,,,,FF,,,,,,,,0.9067,,,,,,,,,,,,,,,,,,,,,,5f545f4aa6b1d47cba7d71ae,6103772272c6cfec7a218145,2021-07-29_22h02.48.619,Simcolourproject_2stim_asymm_v5,2020.2.10,Win32,60,61025ae37ef11b136ea224fe,,,,,,,,,2364,-88,-42,1,0,0,response5disk,,2,23,9,1,0,0,rectangle,23,9,1,0,0,23,9,1,0,0,1,100,260,77,1,,,,,,,,
,,,,,,,,,,,,,FF,,,,,,,,1.0224,,,,,,,,,,,,,,,,,,,,,,5f545f4aa6b1d47cba7d71ae,6103772272c6cfec7a218145,2021-07-29_22h02.48.619,Simcolourproject_2stim_asymm_v5,2020.2.10,Win32,60,61025ae37ef11b136ea224fe,,,,,,,,,3856,-92,-40,1,0,0,response5disk,,2,4,13,1,0,0,rectangle,4,13,1,0,0,4,13,1,0,0,1,101,261,127,1,,,,,,,,
,,,,,,,,,,,,,FF,,,,,,,,0.8729,,,,,,,,,,,,,,,,,,,,,,5f545f4aa6b1d47cba7d71ae,6103772272c6cfec7a218145,2021-07-29_22h02.48.619,Simcolourproject_2stim_asymm_v5,2020.2.10,Win32,60,61025ae37ef11b136ea224fe,,,,,,,,,3038,-36,-81,1,0,0,response5disk,,3,-3,-1,1,0,0,rectangle,-3,-1,1,0,0,-3,-1,1,0,0,1,102,262,41,1,,,,,,,,
,,,,,,,,,,,,,FF,,,,,,,,1.2233,,,,,,,,,,,,,,,,,,,,,,5f545f4aa6b1d47cba7d71ae,6103772272c6cfec7a218145,2021-07-29_22h02.48.619,Simcolourproject_2stim_asymm_v5,2020.2.10,Win32,60,61025ae37ef11b136ea224fe,,,,,,,,,2374,43,-91,1,0,0,response3disk,,4,-14,-5,1,0,0,rectangle,-14,-5,1,0,0,-14,-5,1,0,0,1,103,263,95,1,,,,,,,,
,,,,,,,,,,,,,FF,,,,,,,,0.8568,,,,,,,,,,,,,,,,,,,,,,5f545f4aa6b1d47cba7d71ae,6103772272c6cfec7a218145,2021-07-29_22h02.48.619,Simcolourproject_2stim_asymm_v5,2020.2.10,Win32,60,61025ae37ef11b136ea224fe,,,,,,,,,3326,80,-38,1,0,0,response3disk,,5,-7,-2,1,0,0,rectangle,54,-99,1,0,0,-15,-2,1,0,0,1,104,264,146,1,,response3disk_3,TRUE,4,4,"[265,320,141,97,250,89,323,289,116,101,248,88,15,210,302,68,279,281,129,315]",1.9546,rectangle
,,,,,,,,,,,,,FF,,,,,,,,2.7681,,,,,,,,,,,,,,,,,,,,,,5f545f4aa6b1d47cba7d71ae,6103772272c6cfec7a218145,2021-07-29_22h02.48.619,Simcolourproject_2stim_asymm_v5,2020.2.10,Win32,60,61025ae37ef11b136ea224fe,,,,,,,,,3874,-102,-61,1,0,0,response5disk,,2,10,-9,1,0,0,rectangle,10,-9,1,0,0,10,-9,1,0,0,1,105,265,121,1,,,,,,,,
,,,,,,,,,,,,,FF,,,,,,,,1.712,,,,,,,,,,,,,,,,,,,,,,5f545f4aa6b1d47cba7d71ae,6103772272c6cfec7a218145,2021-07-29_22h02.48.619,Simcolourproject_2stim_asymm_v5,2020.2.10,Win32,60,61025ae37ef11b136ea224fe,,,,,,,,,4265,51,-82,1,0,0,response3disk,,4,13,4,1,0,0,rectangle,13,4,1,0,0,13,4,1,0,0,1,106,266,153,1,,,,,,,,
,,,,,,,,,,,,,FF,,,,,,,,1.1346,,,,,,,,,,,,,,,,,,,,,,5f545f4aa6b1d47cba7d71ae,6103772272c6cfec7a218145,2021-07-29_22h02.48.619,Simcolourproject_2stim_asymm_v5,2020.2.10,Win32,60,61025ae37ef11b136ea224fe,,,,,,,,,4011,80,-34,1,0,0,response3disk,,5,20,-1,1,0,0,rectangle,20,-1,1,0,0,20,-1,1,0,0,1,107,267,8,1,,,,,,,,
,,,,,,,,,,,,,FF,,,,,,,,2.2501,,,,,,,,,,,,,,,,,,,,,,5f545f4aa6b1d47cba7d71ae,6103772272c6cfec7a218145,2021-07-29_22h02.48.619,Simcolourproject_2stim_asymm_v5,2020.2.10,Win32,60,61025ae37ef11b136ea224fe,,,,,,,,,1553,31,-87,1,0,0,response3disk,,4,11,7,1,0,0,rectangle,11,7,1,0,0,11,7,1,0,0,1,108,268,13,1,,,,,,,,
,,,,,,,,,,,,,FF,,,,,,,,1.8824,,,,,,,,,,,,,,,,,,,,,,5f545f4aa6b1d47cba7d71ae,6103772272c6cfec7a218145,2021-07-29_22h02.48.619,Simcolourproject_2stim_asymm_v5,2020.2.10,Win32,60,61025ae37ef11b136ea224fe,,,,,,,,,4081,-42,-75,1,0,0,response5disk,,3,-2,7,1,0,0,rectangle,-2,7,1,0,0,-2,7,1,0,0,1,109,269,12,1,,,,,,,,
,,,,,,,,,,,,,FF,,,,,,,,2.2006,,,,,,,,,,,,,,,,,,,,,,5f545f4aa6b1d47cba7d71ae,6103772272c6cfec7a218145,2021-07-29_22h02.48.619,Simcolourproject_2stim_asymm_v5,2020.2.10,Win32,60,61025ae37ef11b136ea224fe,,,,,,,,,2422,-45,-90,1,0,0,response5disk,,3,-15,10,1,0,0,rectangle,-15,10,1,0,0,-15,10,1,0,0,1,110,270,133,1,,,,,,,,
,,,,,,,,,,,,,FF,,,,,,,,1.518,,,,,,,,,,,,,,,,,,,,,,5f545f4aa6b1d47cba7d71ae,6103772272c6cfec7a218145,2021-07-29_22h02.48.619,Simcolourproject_2stim_asymm_v5,2020.2.10,Win32,60,61025ae37ef11b136ea224fe,,,,,,,,,1443,33,-85,1,0,0,response3disk,,4,-14,-4,1,0,0,rectangle,-14,-4,1,0,0,-14,-4,1,0,0,1,111,271,18,1,,,,,,,,
,,,,,,,,,,,,,FF,,,,,,,,27.1331,,,,,,,,,,,,,,,,,,,,,,5f545f4aa6b1d47cba7d71ae,6103772272c6cfec7a218145,2021-07-29_22h02.48.619,Simcolourproject_2stim_asymm_v5,2020.2.10,Win32,60,61025ae37ef11b136ea224fe,,,,,,,,,3992,53,-83,1,0,0,response3disk,,4,-12,-7,1,0,0,rectangle,-12,-7,1,0,0,-12,-7,1,0,0,1,112,272,4,1,,,,,,,,
,,,,,,,,,,,,,FF,,,,,,,,2.0009,,,,,,,,,,,,,,,,,,,,,,5f545f4aa6b1d47cba7d71ae,6103772272c6cfec7a218145,2021-07-29_22h02.48.619,Simcolourproject_2stim_asymm_v5,2020.2.10,Win32,60,61025ae37ef11b136ea224fe,,,,,,,,,181,66,-49,1,0,0,response3disk,,5,-3,-2,1,0,0,rectangle,-3,-2,1,0,0,-3,-2,1,0,0,1,113,273,85,1,,,,,,,,
,,,,,,,,,,,,,FF,,,,,,,,1.6174,,,,,,,,,,,,,,,,,,,,,,5f545f4aa6b1d47cba7d71ae,6103772272c6cfec7a218145,2021-07-29_22h02.48.619,Simcolourproject_2stim_asymm_v5,2020.2.10,Win32,60,61025ae37ef11b136ea224fe,,,,,,,,,1416,91,40,1,0,0,response1disk,,6,12,-5,1,0,0,rectangle,12,-5,1,0,0,12,-5,1,0,0,1,114,274,36,1,,,,,,,,
,,,,,,,,,,,,,FF,,,,,,,,2.4006,,,,,,,,,,,,,,,,,,,,,,5f545f4aa6b1d47cba7d71ae,6103772272c6cfec7a218145,2021-07-29_22h02.48.619,Simcolourproject_2stim_asymm_v5,2020.2.10,Win32,60,61025ae37ef11b136ea224fe,,,,,,,,,868,39,-106,1,0,0,response3disk,,4,5,-5,1,0,0,rectangle,5,-5,1,0,0,5,-5,1,0,0,1,115,275,120,1,,,,,,,,
,,,,,,,,,,,,,FF,,,,,,,,0.9208,,,,,,,,,,,,,,,,,,,,,,5f545f4aa6b1d47cba7d71ae,6103772272c6cfec7a218145,2021-07-29_22h02.48.619,Simcolourproject_2stim_asymm_v5,2020.2.10,Win32,60,61025ae37ef11b136ea224fe,,,,,,,,,3692,93,-55,1,0,0,response3disk,,5,-7,4,1,0,0,rectangle,-7,4,1,0,0,-7,4,1,0,0,1,116,276,102,1,,,,,,,,
,,,,,,,,,,,,,FF,,,,,,,,1.4853,,,,,,,,,,,,,,,,,,,,,,5f545f4aa6b1d47cba7d71ae,6103772272c6cfec7a218145,2021-07-29_22h02.48.619,Simcolourproject_2stim_asymm_v5,2020.2.10,Win32,60,61025ae37ef11b136ea224fe,,,,,,,,,3316,107,46,1,0,0,response1disk,,6,4,-3,1,0,0,rectangle,4,-3,1,0,0,4,-3,1,0,0,1,117,277,94,1,,,,,,,,
,,,,,,,,,,,,,FF,,,,,,,,0.9567,,,,,,,,,,,,,,,,,,,,,,5f545f4aa6b1d47cba7d71ae,6103772272c6cfec7a218145,2021-07-29_22h02.48.619,Simcolourproject_2stim_asymm_v5,2020.2.10,Win32,60,61025ae37ef11b136ea224fe,,,,,,,,,476,35,-82,1,0,0,response3disk,,4,12,0,1,0,0,rectangle,36,-112,1,0,0,5,-9,1,0,0,1,118,278,151,1,,response3disk_3,TRUE,4,4,"[265,320,141,97,250,89,323,289,116,101,248,88,15,210,302,68,279,281,129,315]",1.9484,rectangle
,,,,,,,,,,,,,FF,,,,,,,,1.3296,,,,,,,,,,,,,,,,,,,,,,5f545f4aa6b1d47cba7d71ae,6103772272c6cfec7a218145,2021-07-29_22h02.48.619,Simcolourproject_2stim_asymm_v5,2020.2.10,Win32,60,61025ae37ef11b136ea224fe,,,,,,,,,233,87,-46,1,0,0,response3disk,,5,12,6,1,0,0,rectangle,12,6,1,0,0,12,6,1,0,0,1,119,279,129,1,,,,,,,,
,,,,,,,,,,,,,FF,,,,,,,,1.6858,,,,,,,,,,,,,,,,,,,,,,5f545f4aa6b1d47cba7d71ae,6103772272c6cfec7a218145,2021-07-29_22h02.48.619,Simcolourproject_2stim_asymm_v5,2020.2.10,Win32,60,61025ae37ef11b136ea224fe,,,,,,,,,1036,42,-90,1,0,0,response3disk,,4,2,11,1,0,0,rectangle,99,-51,1,0,0,6,-2,1,0,0,1,120,280,66,1,,response3disk_3,TRUE,5,5,"[265,320,141,97,250,89,323,289,116,101,248,88,15,210,302,68,279,281,129,315]",3.1779,rectangle
,,,,,,,,,,,,,FF,,,,,,,,1.8895,,,,,,,,,,,,,,,,,,,,,,5f545f4aa6b1d47cba7d71ae,6103772272c6cfec7a218145,2021-07-29_22h02.48.619,Simcolourproject_2stim_asymm_v5,2020.2.10,Win32,60,61025ae37ef11b136ea224fe,,,,,,,,,3852,-56,-93,1,0,0,response5disk,,3,5,-4,1,0,0,rectangle,5,-4,1,0,0,5,-4,1,0,0,1,121,281,134,1,,,,,,,,
,,,,,,,,,,,,,FF,,,,,,,,1.3343,,,,,,,,,,,,,,,,,,,,,,5f545f4aa6b1d47cba7d71ae,6103772272c6cfec7a218145,2021-07-29_22h02.48.619,Simcolourproject_2stim_asymm_v5,2020.2.10,Win32,60,61025ae37ef11b136ea224fe,,,,,,,,,1534,-62,-73,1,0,0,response5disk,,3,7,3,1,0,0,rectangle,7,3,1,0,0,7,3,1,0,0,1,122,282,113,1,,,,,,,,
,,,,,,,,,,,,,FF,,,,,,,,1.0182,,,,,,,,,,,,,,,,,,,,,,5f545f4aa6b1d47cba7d71ae,6103772272c6cfec7a218145,2021-07-29_22h02.48.619,Simcolourproject_2stim_asymm_v5,2020.2.10,Win32,60,61025ae37ef11b136ea224fe,,,,,,,,,2801,93,-52,1,0,0,response3disk,,5,3,5,1,0,0,rectangle,3,5,1,0,0,3,5,1,0,0,1,123,283,49,1,,,,,,,,
,,,,,,,,,,,,,FF,,,,,,,,1.0354,,,,,,,,,,,,,,,,,,,,,,5f545f4aa6b1d47cba7d71ae,6103772272c6cfec7a218145,2021-07-29_22h02.48.619,Simcolourproject_2stim_asymm_v5,2020.2.10,Win32,60,61025ae37ef11b136ea224fe,,,,,,,,,241,43,-99,1,0,0,response3disk,,4,3,2,1,0,0,rectangle,3,2,1,0,0,3,2,1,0,0,1,124,284,63,1,,,,,,,,
,,,,,,,,,,,,,FF,,,,,,,,3.3922,,,,,,,,,,,,,,,,,,,,,,5f545f4aa6b1d47cba7d71ae,6103772272c6cfec7a218145,2021-07-29_22h02.48.619,Simcolourproject_2stim_asymm_v5,2020.2.10,Win32,60,61025ae37ef11b136ea224fe,,,,,,,,,2117,64,-42,1,0,0,response3disk,,5,3,5,1,0,0,rectangle,3,5,1,0,0,3,5,1,0,0,1,125,285,152,1,,,,,,,,
,,,,,,,,,,,,,FF,,,,,,,,1.8893,,,,,,,,,,,,,,,,,,,,,,5f545f4aa6b1d47cba7d71ae,6103772272c6cfec7a218145,2021-07-29_22h02.48.619,Simcolourproject_2stim_asymm_v5,2020.2.10,Win32,60,61025ae37ef11b136ea224fe,,,,,,,,,3258,-72,-83,1,0,0,response5disk,,3,-3,4,1,0,0,rectangle,-3,4,1,0,0,-3,4,1,0,0,1,126,286,46,1,,,,,,,,
,,,,,,,,,,,,,FF,,,,,,,,28.5166,,,,,,,,,,,,,,,,,,,,,,5f545f4aa6b1d47cba7d71ae,6103772272c6cfec7a218145,2021-07-29_22h02.48.619,Simcolourproject_2stim_asymm_v5,2020.2.10,Win32,60,61025ae37ef11b136ea224fe,,,,,,,,,680,42,-90,1,0,0,response3disk,,4,-3,-3,1,0,0,rectangle,-3,-3,1,0,0,-3,-3,1,0,0,1,127,287,28,1,,,,,,,,
,,,,,,,,,,,,,FF,,,,,,,,1.7009,,,,,,,,,,,,,,,,,,,,,,5f545f4aa6b1d47cba7d71ae,6103772272c6cfec7a218145,2021-07-29_22h02.48.619,Simcolourproject_2stim_asymm_v5,2020.2.10,Win32,60,61025ae37ef11b136ea224fe,,,,,,,,,2945,-42,-77,1,0,0,response5disk,,3,-6,9,1,0,0,rectangle,-79,34,1,0,0,-17,-6,1,0,0,1,128,288,131,1,,response7disk_3,TRUE,1,1,"[265,320,141,97,250,89,323,289,116,101,248,88,15,210,302,68,279,281,129,315]",1.5551,rectangle
,,,,,,,,,,,,,FF,,,,,,,,2.0564,,,,,,,,,,,,,,,,,,,,,,5f545f4aa6b1d47cba7d71ae,6103772272c6cfec7a218145,2021-07-29_22h02.48.619,Simcolourproject_2stim_asymm_v5,2020.2.10,Win32,60,61025ae37ef11b136ea224fe,,,,,,,,,47,99,-51,1,0,0,response3disk,,5,-1,-7,1,0,0,rectangle,-1,-7,1,0,0,-1,-7,1,0,0,1,129,289,115,1,,,,,,,,
,,,,,,,,,,,,,FF,,,,,,,,1.0642,,,,,,,,,,,,,,,,,,,,,,5f545f4aa6b1d47cba7d71ae,6103772272c6cfec7a218145,2021-07-29_22h02.48.619,Simcolourproject_2stim_asymm_v5,2020.2.10,Win32,60,61025ae37ef11b136ea224fe,,,,,,,,,2152,-67,-34,1,0,0,response5disk,,2,0,-4,1,0,0,rectangle,0,-4,1,0,0,0,-4,1,0,0,1,130,290,50,1,,,,,,,,
,,,,,,,,,,,,,FF,,,,,,,,1.6232,,,,,,,,,,,,,,,,,,,,,,5f545f4aa6b1d47cba7d71ae,6103772272c6cfec7a218145,2021-07-29_22h02.48.619,Simcolourproject_2stim_asymm_v5,2020.2.10,Win32,60,61025ae37ef11b136ea224fe,,,,,,,,,3763,44,-74,1,0,0,response3disk,,4,-9,8,1,0,0,rectangle,-9,8,1,0,0,-9,8,1,0,0,1,131,291,136,1,,,,,,,,
,,,,,,,,,,,,,FF,,,,,,,,1.9662,,,,,,,,,,,,,,,,,,,,,,5f545f4aa6b1d47cba7d71ae,6103772272c6cfec7a218145,2021-07-29_22h02.48.619,Simcolourproject_2stim_asymm_v5,2020.2.10,Win32,60,61025ae37ef11b136ea224fe,,,,,,,,,2126,77,-43,1,0,0,response3disk,,5,-1,-2,1,0,0,rectangle,-1,-2,1,0,0,-1,-2,1,0,0,1,132,292,72,1,,,,,,,,
,,,,,,,,,,,,,FF,,,,,,,,1.5181,,,,,,,,,,,,,,,,,,,,,,5f545f4aa6b1d47cba7d71ae,6103772272c6cfec7a218145,2021-07-29_22h02.48.619,Simcolourproject_2stim_asymm_v5,2020.2.10,Win32,60,61025ae37ef11b136ea224fe,,,,,,,,,3768,45,-88,1,0,0,response3disk,,4,-12,7,1,0,0,rectangle,-12,7,1,0,0,-12,7,1,0,0,1,133,293,118,1,,,,,,,,
,,,,,,,,,,,,,FF,,,,,,,,1.9341,,,,,,,,,,,,,,,,,,,,,,5f545f4aa6b1d47cba7d71ae,6103772272c6cfec7a218145,2021-07-29_22h02.48.619,Simcolourproject_2stim_asymm_v5,2020.2.10,Win32,60,61025ae37ef11b136ea224fe,,,,,,,,,526,-88,46,1,0,0,response7disk,,1,2,2,1,0,0,rectangle,2,2,1,0,0,2,2,1,0,0,1,134,294,11,1,,,,,,,,
,,,,,,,,,,,,,FF,,,,,,,,2.8895,,,,,,,,,,,,,,,,,,,,,,5f545f4aa6b1d47cba7d71ae,6103772272c6cfec7a218145,2021-07-29_22h02.48.619,Simcolourproject_2stim_asymm_v5,2020.2.10,Win32,60,61025ae37ef11b136ea224fe,,,,,,,,,2162,-51,-85,1,0,0,response5disk,,3,-8,6,1,0,0,rectangle,-8,6,1,0,0,-8,6,1,0,0,1,135,295,150,1,,,,,,,,
,,,,,,,,,,,,,FF,,,,,,,,1.0561,,,,,,,,,,,,,,,,,,,,,,5f545f4aa6b1d47cba7d71ae,6103772272c6cfec7a218145,2021-07-29_22h02.48.619,Simcolourproject_2stim_asymm_v5,2020.2.10,Win32,60,61025ae37ef11b136ea224fe,,,,,,,,,2751,75,-37,1,0,0,response3disk,,5,3,1,1,0,0,rectangle,3,1,1,0,0,3,1,1,0,0,1,136,296,45,1,,,,,,,,
,,,,,,,,,,,,,FF,,,,,,,,1.9841,,,,,,,,,,,,,,,,,,,,,,5f545f4aa6b1d47cba7d71ae,6103772272c6cfec7a218145,2021-07-29_22h02.48.619,Simcolourproject_2stim_asymm_v5,2020.2.10,Win32,60,61025ae37ef11b136ea224fe,,,,,,,,,2708,85,-33,1,0,0,response3disk,,5,6,-3,1,0,0,rectangle,6,-3,1,0,0,6,-3,1,0,0,1,137,297,38,1,,,,,,,,
,,,,,,,,,,,,,FF,,,,,,,,1.1006,,,,,,,,,,,,,,,,,,,,,,5f545f4aa6b1d47cba7d71ae,6103772272c6cfec7a218145,2021-07-29_22h02.48.619,Simcolourproject_2stim_asymm_v5,2020.2.10,Win32,60,61025ae37ef11b136ea224fe,,,,,,,,,4318,-67,-62,1,0,0,response5disk,,2,19,5,1,0,0,rectangle,19,5,1,0,0,19,5,1,0,0,1,138,298,149,1,,,,,,,,
,,,,,,,,,,,,,FF,,,,,,,,0.8395,,,,,,,,,,,,,,,,,,,,,,5f545f4aa6b1d47cba7d71ae,6103772272c6cfec7a218145,2021-07-29_22h02.48.619,Simcolourproject_2stim_asymm_v5,2020.2.10,Win32,60,61025ae37ef11b136ea224fe,,,,,,,,,3280,79,-30,1,0,0,response3disk,,5,-14,7,1,0,0,rectangle,-14,7,1,0,0,-14,7,1,0,0,1,139,299,91,1,,,,,,,,
,,,,,,,,,,,,,FF,,,,,,,,0.9173,,,,,,,,,,,,,,,,,,,,,,5f545f4aa6b1d47cba7d71ae,6103772272c6cfec7a218145,2021-07-29_22h02.48.619,Simcolourproject_2stim_asymm_v5,2020.2.10,Win32,60,61025ae37ef11b136ea224fe,,,,,,,,,1985,74,46,1,0,0,response1disk,,6,21,4,1,0,0,rectangle,21,4,1,0,0,21,4,1,0,0,1,140,300,117,1,,,,,,,,
,,,,,,,,,,,,,FF,,,,,,,,5.1189,,,,,,,,,,,,,,,,,,,,,,5f545f4aa6b1d47cba7d71ae,6103772272c6cfec7a218145,2021-07-29_22h02.48.619,Simcolourproject_2stim_asymm_v5,2020.2.10,Win32,60,61025ae37ef11b136ea224fe,,,,,,,,,2412,-59,-89,1,0,0,response5disk,,3,-18,-3,1,0,0,rectangle,48,88,1,0,0,-8,-2,1,0,0,1,141,301,40,1,,response1disk_3,TRUE,7,7,"[265,320,141,97,250,89,323,289,116,101,248,88,15,210,302,68,279,281,129,315]",2.0341,rectangle
,,,,,,,,,,,,,FF,,,,,,,,1.0506,,,,,,,,,,,,,,,,,,,,,,5f545f4aa6b1d47cba7d71ae,6103772272c6cfec7a218145,2021-07-29_22h02.48.619,Simcolourproject_2stim_asymm_v5,2020.2.10,Win32,60,61025ae37ef11b136ea224fe,,,,,,,,,2506,100,-39,1,0,0,response3disk,,5,5,2,1,0,0,rectangle,5,2,1,0,0,5,2,1,0,0,1,142,302,116,1,,,,,,,,
