key_resp.keys,key_resp.rt,key_resp_14.keys,key_resp_14.rt,key_resp_15.keys,key_resp_15.rt,key_resp_17.keys,key_resp_17.rt,key_resp_9.keys,key_resp_9.rt,key_resp_10.keys,key_resp_10.rt,practice_comparison,Ecc,mouse_5.x,mouse_5.y,mouse_5.leftButton,mouse_5.midButton,mouse_5.rightButton,mouse_5.clicked_name,pracsimilarity,response_time,mouse_10.x,mouse_10.y,mouse_10.leftButton,mouse_10.midButton,mouse_10.rightButton,mouse_10.clicked_name,mouse_7.x,mouse_7.y,mouse_7.leftButton,mouse_7.midButton,mouse_7.rightButton,mouse_6.x,mouse_6.y,mouse_6.leftButton,mouse_6.midButton,mouse_6.rightButton,duringprac.thisRepN,duringprac.thisTrialN,duringprac.thisN,duringprac.thisIndex,duringprac.ran,participant,session,date,expName,psychopyVersion,OS,frameRate,study_id,mouse_7.clicked_name,catchpracsimilarity,catch_response_time,catchnumberprac,catchtrialorderprac,mouse_6.clicked_name,key_resp_22.keys,key_resp_22.rt,realcomparison,mouse.x,mouse.y,mouse.leftButton,mouse.midButton,mouse.rightButton,mouse.clicked_name,Colour2,similarity,mouse_2.x,mouse_2.y,mouse_2.leftButton,mouse_2.midButton,mouse_2.rightButton,mouse_2.clicked_name,mouse_3.x,mouse_3.y,mouse_3.leftButton,mouse_3.midButton,mouse_3.rightButton,mouse_11.x,mouse_11.y,mouse_11.leftButton,mouse_11.midButton,mouse_11.rightButton,trials_2.thisRepN,trials_2.thisTrialN,trials_2.thisN,trials_2.thisIndex,trials_2.ran,Colour1,mouse_3.clicked_name,catchornah,catchsimilarity,catchnumber,catchtrialorder,catchRT,mouse_11.clicked_name
space,2.103,space,90.393,space,36.835,space,13.752,space,4.143,space,5.732,14,PF,24,67,1,0,0,response1disk_5,7,12.168,-5,3,1,0,0,rectangle_8,-5,3,1,0,0,-5,3,1,0,0,0,0,0,1,1,5f555cfc020a36015dd15a36,610378aa8aa60ca94ea087f3,2021-07-30_05h57.50.426,Simcolourproject_2stim_asymm_v5,2020.2.10,Win32,60,61025ae37ef11b136ea224fe,,,,,,,,,,,,,,,,,,,,,,,,,,,,,,,,,,,,,,,,,,,,,,
,,,,,,,,,,,,92,PF,77,43,1,0,0,response1disk_5,6,3.367,-4,0,1,0,0,rectangle_8,-35,76,1,0,0,0,-1,1,0,0,0,1,1,4,1,5f555cfc020a36015dd15a36,610378aa8aa60ca94ea087f3,2021-07-30_05h57.50.426,Simcolourproject_2stim_asymm_v5,2020.2.10,Win32,60,61025ae37ef11b136ea224fe,response7disk_7,0,6.067,0,"[2,5]",rectangle_4,,,,,,,,,,,,,,,,,,,,,,,,,,,,,,,,,,,,,,,,
,,,,,,,,,,,,127,FF,89,-39,1,0,0,response3disk_5,5,3.767,4,2,1,0,0,rectangle_8,4,2,1,0,0,4,2,1,0,0,0,2,2,5,1,5f555cfc020a36015dd15a36,610378aa8aa60ca94ea087f3,2021-07-30_05h57.50.426,Simcolourproject_2stim_asymm_v5,2020.2.10,Win32,60,61025ae37ef11b136ea224fe,,,,,,,,,,,,,,,,,,,,,,,,,,,,,,,,,,,,,,,,,,,,,,
,,,,,,,,,,,,108,PF,-82,-37,1,0,0,response5disk_5,2,2.634,2,4,1,0,0,rectangle_8,2,4,1,0,0,2,4,1,0,0,0,3,3,6,1,5f555cfc020a36015dd15a36,610378aa8aa60ca94ea087f3,2021-07-30_05h57.50.426,Simcolourproject_2stim_asymm_v5,2020.2.10,Win32,60,61025ae37ef11b136ea224fe,,,,,,,,,,,,,,,,,,,,,,,,,,,,,,,,,,,,,,,,,,,,,,
,,,,,,,,,,,,34,PF,-71,-37,1,0,0,response5disk_5,2,2.901,5,4,1,0,0,rectangle_8,-33,77,1,0,0,-6,2,1,0,0,0,4,4,2,1,5f555cfc020a36015dd15a36,610378aa8aa60ca94ea087f3,2021-07-30_05h57.50.426,Simcolourproject_2stim_asymm_v5,2020.2.10,Win32,60,61025ae37ef11b136ea224fe,response7disk_7,0,2.932,0,"[2,5]",rectangle_4,,,,,,,,,,,,,,,,,,,,,,,,,,,,,,,,,,,,,,,,
,,,,,,,,,,,,36,FF,26,-85,1,0,0,response3disk_5,4,2.467,1,5,1,0,0,rectangle_8,1,5,1,0,0,1,5,1,0,0,0,5,5,0,1,5f555cfc020a36015dd15a36,610378aa8aa60ca94ea087f3,2021-07-30_05h57.50.426,Simcolourproject_2stim_asymm_v5,2020.2.10,Win32,60,61025ae37ef11b136ea224fe,,,,,,,,,,,,,,,,,,,,,,,,,,,,,,,,,,,,,,,,,,,,,,
,,,,,,,,,,,,79,FF,58,-40,1,0,0,response3disk_5,5,2.401,-5,-4,1,0,0,rectangle_8,-5,-4,1,0,0,-5,-4,1,0,0,0,6,6,3,1,5f555cfc020a36015dd15a36,610378aa8aa60ca94ea087f3,2021-07-30_05h57.50.426,Simcolourproject_2stim_asymm_v5,2020.2.10,Win32,60,61025ae37ef11b136ea224fe,,,,,,,,,,,,,,,,,,,,,,,,,,,,,,,,,,,,,,,,,,,,,,
,,,,,,,,,,,,,FF,,,,,,,,5.466,,,,,,,,,,,,,,,,,,,,,,5f555cfc020a36015dd15a36,610378aa8aa60ca94ea087f3,2021-07-30_05h57.50.426,Simcolourproject_2stim_asymm_v5,2020.2.10,Win32,60,61025ae37ef11b136ea224fe,,,,,,,space,3.775,1288,-31,-89,1,0,0,response5disk,,3,1,0,1,0,0,rectangle,1,0,1,0,0,1,0,1,0,0,0,0,0,93,1,,,,,,,,
,,,,,,,,,,,,,FF,,,,,,,,3.1,,,,,,,,,,,,,,,,,,,,,,5f555cfc020a36015dd15a36,610378aa8aa60ca94ea087f3,2021-07-30_05h57.50.426,Simcolourproject_2stim_asymm_v5,2020.2.10,Win32,60,61025ae37ef11b136ea224fe,,,,,,,,,704,-68,45,1,0,0,response7disk,,1,-7,-5,1,0,0,rectangle,-7,-5,1,0,0,-7,-5,1,0,0,0,1,1,100,1,,,,,,,,
,,,,,,,,,,,,,FF,,,,,,,,3.7,,,,,,,,,,,,,,,,,,,,,,5f555cfc020a36015dd15a36,610378aa8aa60ca94ea087f3,2021-07-30_05h57.50.426,Simcolourproject_2stim_asymm_v5,2020.2.10,Win32,60,61025ae37ef11b136ea224fe,,,,,,,,,1006,91,-18,1,0,0,response3disk,,5,2,-5,1,0,0,rectangle,2,-5,1,0,0,2,-5,1,0,0,0,2,2,109,1,,,,,,,,
,,,,,,,,,,,,,FF,,,,,,,,2.7,,,,,,,,,,,,,,,,,,,,,,5f555cfc020a36015dd15a36,610378aa8aa60ca94ea087f3,2021-07-30_05h57.50.426,Simcolourproject_2stim_asymm_v5,2020.2.10,Win32,60,61025ae37ef11b136ea224fe,,,,,,,,,1515,34,-72,1,0,0,response3disk,,4,-5,4,1,0,0,rectangle,-90,-49,1,0,0,6,0,1,0,0,0,3,3,9,1,,response5disk_3,TRUE,2,2,"[32,145,4,238,80,132,281,139,258,168,201,136,164,201,248,66,96,69,298,290]",3.699,rectangle
,,,,,,,,,,,,,FF,,,,,,,,5.166,,,,,,,,,,,,,,,,,,,,,,5f555cfc020a36015dd15a36,610378aa8aa60ca94ea087f3,2021-07-30_05h57.50.426,Simcolourproject_2stim_asymm_v5,2020.2.10,Win32,60,61025ae37ef11b136ea224fe,,,,,,,,,926,105,31,1,0,0,response1disk,,6,1,3,1,0,0,rectangle,1,3,1,0,0,1,3,1,0,0,0,4,4,113,1,,,,,,,,
,,,,,,,,,,,,,FF,,,,,,,,2.534,,,,,,,,,,,,,,,,,,,,,,5f555cfc020a36015dd15a36,610378aa8aa60ca94ea087f3,2021-07-30_05h57.50.426,Simcolourproject_2stim_asymm_v5,2020.2.10,Win32,60,61025ae37ef11b136ea224fe,,,,,,,,,4207,-43,66,1,0,0,response7disk,,0,-7,-8,1,0,0,rectangle,-7,-8,1,0,0,-7,-8,1,0,0,0,5,5,40,1,,,,,,,,
,,,,,,,,,,,,,FF,,,,,,,,2.5,,,,,,,,,,,,,,,,,,,,,,5f555cfc020a36015dd15a36,610378aa8aa60ca94ea087f3,2021-07-30_05h57.50.426,Simcolourproject_2stim_asymm_v5,2020.2.10,Win32,60,61025ae37ef11b136ea224fe,,,,,,,,,1919,23,-96,1,0,0,response3disk,,4,-21,9,1,0,0,rectangle,-21,9,1,0,0,-21,9,1,0,0,0,6,6,130,1,,,,,,,,
,,,,,,,,,,,,,FF,,,,,,,,2.733,,,,,,,,,,,,,,,,,,,,,,5f555cfc020a36015dd15a36,610378aa8aa60ca94ea087f3,2021-07-30_05h57.50.426,Simcolourproject_2stim_asymm_v5,2020.2.10,Win32,60,61025ae37ef11b136ea224fe,,,,,,,,,3021,79,-29,1,0,0,response3disk,,5,1,1,1,0,0,rectangle,1,1,1,0,0,1,1,1,0,0,0,7,7,7,1,,,,,,,,
,,,,,,,,,,,,,FF,,,,,,,,2.167,,,,,,,,,,,,,,,,,,,,,,5f555cfc020a36015dd15a36,610378aa8aa60ca94ea087f3,2021-07-30_05h57.50.426,Simcolourproject_2stim_asymm_v5,2020.2.10,Win32,60,61025ae37ef11b136ea224fe,,,,,,,,,3332,-62,-27,1,0,0,response5disk,,2,1,0,1,0,0,rectangle,1,0,1,0,0,1,0,1,0,0,0,8,8,18,1,,,,,,,,
,,,,,,,,,,,,,FF,,,,,,,,3.434,,,,,,,,,,,,,,,,,,,,,,5f555cfc020a36015dd15a36,610378aa8aa60ca94ea087f3,2021-07-30_05h57.50.426,Simcolourproject_2stim_asymm_v5,2020.2.10,Win32,60,61025ae37ef11b136ea224fe,,,,,,,,,2674,-74,-94,1,0,0,response5disk,,3,-3,7,1,0,0,rectangle,-3,7,1,0,0,-3,7,1,0,0,0,9,9,147,1,,,,,,,,
,,,,,,,,,,,,,FF,,,,,,,,2.167,,,,,,,,,,,,,,,,,,,,,,5f555cfc020a36015dd15a36,610378aa8aa60ca94ea087f3,2021-07-30_05h57.50.426,Simcolourproject_2stim_asymm_v5,2020.2.10,Win32,60,61025ae37ef11b136ea224fe,,,,,,,,,1553,90,35,1,0,0,response1disk,,6,-15,-5,1,0,0,rectangle,-15,-5,1,0,0,-15,-5,1,0,0,0,10,10,82,1,,,,,,,,
,,,,,,,,,,,,,FF,,,,,,,,1.533,,,,,,,,,,,,,,,,,,,,,,5f555cfc020a36015dd15a36,610378aa8aa60ca94ea087f3,2021-07-30_05h57.50.426,Simcolourproject_2stim_asymm_v5,2020.2.10,Win32,60,61025ae37ef11b136ea224fe,,,,,,,,,1348,88,-26,1,0,0,response3disk,,5,10,0,1,0,0,rectangle,10,0,1,0,0,10,0,1,0,0,0,11,11,110,1,,,,,,,,
,,,,,,,,,,,,,FF,,,,,,,,2.801,,,,,,,,,,,,,,,,,,,,,,5f555cfc020a36015dd15a36,610378aa8aa60ca94ea087f3,2021-07-30_05h57.50.426,Simcolourproject_2stim_asymm_v5,2020.2.10,Win32,60,61025ae37ef11b136ea224fe,,,,,,,,,3396,39,-88,1,0,0,response3disk,,4,-11,5,1,0,0,rectangle,-11,5,1,0,0,-11,5,1,0,0,0,12,12,57,1,,,,,,,,
,,,,,,,,,,,,,FF,,,,,,,,3.067,,,,,,,,,,,,,,,,,,,,,,5f555cfc020a36015dd15a36,610378aa8aa60ca94ea087f3,2021-07-30_05h57.50.426,Simcolourproject_2stim_asymm_v5,2020.2.10,Win32,60,61025ae37ef11b136ea224fe,,,,,,,,,3770,65,-23,1,0,0,response3disk,,5,5,-2,1,0,0,rectangle,5,-2,1,0,0,5,-2,1,0,0,0,13,13,120,1,,,,,,,,
,,,,,,,,,,,,,FF,,,,,,,,2.367,,,,,,,,,,,,,,,,,,,,,,5f555cfc020a36015dd15a36,610378aa8aa60ca94ea087f3,2021-07-30_05h57.50.426,Simcolourproject_2stim_asymm_v5,2020.2.10,Win32,60,61025ae37ef11b136ea224fe,,,,,,,,,2919,81,-32,1,0,0,response3disk,,5,-4,3,1,0,0,rectangle,-4,3,1,0,0,-4,3,1,0,0,0,14,14,105,1,,,,,,,,
,,,,,,,,,,,,,FF,,,,,,,,1.667,,,,,,,,,,,,,,,,,,,,,,5f555cfc020a36015dd15a36,610378aa8aa60ca94ea087f3,2021-07-30_05h57.50.426,Simcolourproject_2stim_asymm_v5,2020.2.10,Win32,60,61025ae37ef11b136ea224fe,,,,,,,,,702,-79,38,1,0,0,response7disk,,1,8,-2,1,0,0,rectangle,8,-2,1,0,0,8,-2,1,0,0,0,15,15,137,1,,,,,,,,
,,,,,,,,,,,,,FF,,,,,,,,4.767,,,,,,,,,,,,,,,,,,,,,,5f555cfc020a36015dd15a36,610378aa8aa60ca94ea087f3,2021-07-30_05h57.50.426,Simcolourproject_2stim_asymm_v5,2020.2.10,Win32,60,61025ae37ef11b136ea224fe,,,,,,,,,2267,72,46,1,0,0,response1disk,,6,-13,3,1,0,0,rectangle,-13,3,1,0,0,-13,3,1,0,0,0,16,16,158,1,,,,,,,,
,,,,,,,,,,,,,FF,,,,,,,,2.233,,,,,,,,,,,,,,,,,,,,,,5f555cfc020a36015dd15a36,610378aa8aa60ca94ea087f3,2021-07-30_05h57.50.426,Simcolourproject_2stim_asymm_v5,2020.2.10,Win32,60,61025ae37ef11b136ea224fe,,,,,,,,,1377,-48,-68,1,0,0,response5disk,,3,13,5,1,0,0,rectangle,13,5,1,0,0,13,5,1,0,0,0,17,17,123,1,,,,,,,,
,,,,,,,,,,,,,FF,,,,,,,,3.267,,,,,,,,,,,,,,,,,,,,,,5f555cfc020a36015dd15a36,610378aa8aa60ca94ea087f3,2021-07-30_05h57.50.426,Simcolourproject_2stim_asymm_v5,2020.2.10,Win32,60,61025ae37ef11b136ea224fe,,,,,,,,,3682,-32,-75,1,0,0,response5disk,,3,6,4,1,0,0,rectangle,6,4,1,0,0,6,4,1,0,0,0,18,18,75,1,,,,,,,,
,,,,,,,,,,,,,FF,,,,,,,,1.4,,,,,,,,,,,,,,,,,,,,,,5f555cfc020a36015dd15a36,610378aa8aa60ca94ea087f3,2021-07-30_05h57.50.426,Simcolourproject_2stim_asymm_v5,2020.2.10,Win32,60,61025ae37ef11b136ea224fe,,,,,,,,,1535,-72,30,1,0,0,response7disk,,1,-17,-1,1,0,0,rectangle,-17,-1,1,0,0,-17,-1,1,0,0,0,19,19,89,1,,,,,,,,
,,,,,,,,,,,,,FF,,,,,,,,1.5,,,,,,,,,,,,,,,,,,,,,,5f555cfc020a36015dd15a36,610378aa8aa60ca94ea087f3,2021-07-30_05h57.50.426,Simcolourproject_2stim_asymm_v5,2020.2.10,Win32,60,61025ae37ef11b136ea224fe,,,,,,,,,3217,-40,-55,1,0,0,response5disk,,3,-9,0,1,0,0,rectangle,-9,0,1,0,0,-9,0,1,0,0,0,20,20,85,1,,,,,,,,
,,,,,,,,,,,,,FF,,,,,,,,2.866,,,,,,,,,,,,,,,,,,,,,,5f555cfc020a36015dd15a36,610378aa8aa60ca94ea087f3,2021-07-30_05h57.50.426,Simcolourproject_2stim_asymm_v5,2020.2.10,Win32,60,61025ae37ef11b136ea224fe,,,,,,,,,3723,89,46,1,0,0,response1disk,,6,-1,0,1,0,0,rectangle,-1,0,1,0,0,-1,0,1,0,0,0,21,21,132,1,,,,,,,,
,,,,,,,,,,,,,FF,,,,,,,,1.167,,,,,,,,,,,,,,,,,,,,,,5f555cfc020a36015dd15a36,610378aa8aa60ca94ea087f3,2021-07-30_05h57.50.426,Simcolourproject_2stim_asymm_v5,2020.2.10,Win32,60,61025ae37ef11b136ea224fe,,,,,,,,,455,-42,73,1,0,0,response7disk,,0,1,1,1,0,0,rectangle,1,1,1,0,0,1,1,1,0,0,0,22,22,63,1,,,,,,,,
,,,,,,,,,,,,,FF,,,,,,,,2.533,,,,,,,,,,,,,,,,,,,,,,5f555cfc020a36015dd15a36,610378aa8aa60ca94ea087f3,2021-07-30_05h57.50.426,Simcolourproject_2stim_asymm_v5,2020.2.10,Win32,60,61025ae37ef11b136ea224fe,,,,,,,,,625,76,-28,1,0,0,response3disk,,5,-2,2,1,0,0,rectangle,-2,2,1,0,0,-2,2,1,0,0,0,23,23,46,1,,,,,,,,
,,,,,,,,,,,,,FF,,,,,,,,4.767,,,,,,,,,,,,,,,,,,,,,,5f555cfc020a36015dd15a36,610378aa8aa60ca94ea087f3,2021-07-30_05h57.50.426,Simcolourproject_2stim_asymm_v5,2020.2.10,Win32,60,61025ae37ef11b136ea224fe,,,,,,,,,365,44,69,1,0,0,response1disk,,7,-8,-3,1,0,0,rectangle,-8,-3,1,0,0,-8,-3,1,0,0,0,24,24,95,1,,,,,,,,
,,,,,,,,,,,,,FF,,,,,,,,1.633,,,,,,,,,,,,,,,,,,,,,,5f555cfc020a36015dd15a36,610378aa8aa60ca94ea087f3,2021-07-30_05h57.50.426,Simcolourproject_2stim_asymm_v5,2020.2.10,Win32,60,61025ae37ef11b136ea224fe,,,,,,,,,2317,91,50,1,0,0,response1disk,,6,-3,-1,1,0,0,rectangle,-3,-1,1,0,0,-3,-1,1,0,0,0,25,25,1,1,,,,,,,,
,,,,,,,,,,,,,FF,,,,,,,,2.501,,,,,,,,,,,,,,,,,,,,,,5f555cfc020a36015dd15a36,610378aa8aa60ca94ea087f3,2021-07-30_05h57.50.426,Simcolourproject_2stim_asymm_v5,2020.2.10,Win32,60,61025ae37ef11b136ea224fe,,,,,,,,,1495,88,-47,1,0,0,response3disk,,5,0,4,1,0,0,rectangle,0,4,1,0,0,0,4,1,0,0,0,26,26,8,1,,,,,,,,
,,,,,,,,,,,,,FF,,,,,,,,3.8,,,,,,,,,,,,,,,,,,,,,,5f555cfc020a36015dd15a36,610378aa8aa60ca94ea087f3,2021-07-30_05h57.50.426,Simcolourproject_2stim_asymm_v5,2020.2.10,Win32,60,61025ae37ef11b136ea224fe,,,,,,,,,3779,-30,-75,1,0,0,response5disk,,3,12,2,1,0,0,rectangle,12,2,1,0,0,12,2,1,0,0,0,27,27,28,1,,,,,,,,
,,,,,,,,,,,,,FF,,,,,,,,1.5,,,,,,,,,,,,,,,,,,,,,,5f555cfc020a36015dd15a36,610378aa8aa60ca94ea087f3,2021-07-30_05h57.50.426,Simcolourproject_2stim_asymm_v5,2020.2.10,Win32,60,61025ae37ef11b136ea224fe,,,,,,,,,1301,-35,-67,1,0,0,response5disk,,3,-10,-4,1,0,0,rectangle,-10,-4,1,0,0,-10,-4,1,0,0,0,28,28,54,1,,,,,,,,
,,,,,,,,,,,,,FF,,,,,,,,1.834,,,,,,,,,,,,,,,,,,,,,,5f555cfc020a36015dd15a36,610378aa8aa60ca94ea087f3,2021-07-30_05h57.50.426,Simcolourproject_2stim_asymm_v5,2020.2.10,Win32,60,61025ae37ef11b136ea224fe,,,,,,,,,1262,32,-66,1,0,0,response3disk,,4,6,6,1,0,0,rectangle,6,6,1,0,0,6,6,1,0,0,0,29,29,4,1,,,,,,,,
,,,,,,,,,,,,,FF,,,,,,,,3.5,,,,,,,,,,,,,,,,,,,,,,5f555cfc020a36015dd15a36,610378aa8aa60ca94ea087f3,2021-07-30_05h57.50.426,Simcolourproject_2stim_asymm_v5,2020.2.10,Win32,60,61025ae37ef11b136ea224fe,,,,,,,,,3445,75,-44,1,0,0,response3disk,,5,10,7,1,0,0,rectangle,10,7,1,0,0,10,7,1,0,0,0,30,30,97,1,,,,,,,,
,,,,,,,,,,,,,FF,,,,,,,,2.967,,,,,,,,,,,,,,,,,,,,,,5f555cfc020a36015dd15a36,610378aa8aa60ca94ea087f3,2021-07-30_05h57.50.426,Simcolourproject_2stim_asymm_v5,2020.2.10,Win32,60,61025ae37ef11b136ea224fe,,,,,,,,,1732,46,77,1,0,0,response1disk,,7,4,-2,1,0,0,rectangle,90,-43,1,0,0,-3,3,1,0,0,0,31,31,129,1,,response3disk_3,TRUE,5,5,"[32,145,4,238,80,132,281,139,258,168,201,136,164,201,248,66,96,69,298,290]",2.533,rectangle
,,,,,,,,,,,,,FF,,,,,,,,3.099,,,,,,,,,,,,,,,,,,,,,,5f555cfc020a36015dd15a36,610378aa8aa60ca94ea087f3,2021-07-30_05h57.50.426,Simcolourproject_2stim_asymm_v5,2020.2.10,Win32,60,61025ae37ef11b136ea224fe,,,,,,,,,1188,82,-29,1,0,0,response3disk,,5,2,0,1,0,0,rectangle,2,0,1,0,0,2,0,1,0,0,0,32,32,24,1,,,,,,,,
,,,,,,,,,,,,,FF,,,,,,,,1.767,,,,,,,,,,,,,,,,,,,,,,5f555cfc020a36015dd15a36,610378aa8aa60ca94ea087f3,2021-07-30_05h57.50.426,Simcolourproject_2stim_asymm_v5,2020.2.10,Win32,60,61025ae37ef11b136ea224fe,,,,,,,,,3296,-48,-30,1,0,0,response5disk,,2,4,-1,1,0,0,rectangle,4,-1,1,0,0,4,-1,1,0,0,0,33,33,153,1,,,,,,,,
,,,,,,,,,,,,,FF,,,,,,,,4.3,,,,,,,,,,,,,,,,,,,,,,5f555cfc020a36015dd15a36,610378aa8aa60ca94ea087f3,2021-07-30_05h57.50.426,Simcolourproject_2stim_asymm_v5,2020.2.10,Win32,60,61025ae37ef11b136ea224fe,,,,,,,,,3481,-80,-55,1,0,0,response5disk,,2,-1,0,1,0,0,rectangle,-1,0,1,0,0,-1,0,1,0,0,0,34,34,150,1,,,,,,,,
,,,,,,,,,,,,,FF,,,,,,,,2.533,,,,,,,,,,,,,,,,,,,,,,5f555cfc020a36015dd15a36,610378aa8aa60ca94ea087f3,2021-07-30_05h57.50.426,Simcolourproject_2stim_asymm_v5,2020.2.10,Win32,60,61025ae37ef11b136ea224fe,,,,,,,,,208,70,-46,1,0,0,response3disk,,5,0,0,1,0,0,rectangle,0,0,1,0,0,0,0,1,0,0,0,35,35,47,1,,,,,,,,
,,,,,,,,,,,,,FF,,,,,,,,3.901,,,,,,,,,,,,,,,,,,,,,,5f555cfc020a36015dd15a36,610378aa8aa60ca94ea087f3,2021-07-30_05h57.50.426,Simcolourproject_2stim_asymm_v5,2020.2.10,Win32,60,61025ae37ef11b136ea224fe,,,,,,,,,1779,79,40,1,0,0,response1disk,,6,-8,5,1,0,0,rectangle,-8,5,1,0,0,-8,5,1,0,0,0,36,36,64,1,,,,,,,,
,,,,,,,,,,,,,FF,,,,,,,,2.333,,,,,,,,,,,,,,,,,,,,,,5f555cfc020a36015dd15a36,610378aa8aa60ca94ea087f3,2021-07-30_05h57.50.426,Simcolourproject_2stim_asymm_v5,2020.2.10,Win32,60,61025ae37ef11b136ea224fe,,,,,,,,,1542,-61,-35,1,0,0,response5disk,,2,-5,-2,1,0,0,rectangle,-5,-2,1,0,0,-5,-2,1,0,0,0,37,37,17,1,,,,,,,,
,,,,,,,,,,,,,FF,,,,,,,,3.4,,,,,,,,,,,,,,,,,,,,,,5f555cfc020a36015dd15a36,610378aa8aa60ca94ea087f3,2021-07-30_05h57.50.426,Simcolourproject_2stim_asymm_v5,2020.2.10,Win32,60,61025ae37ef11b136ea224fe,,,,,,,,,2202,37,-78,1,0,0,response3disk,,4,5,5,1,0,0,rectangle,5,5,1,0,0,5,5,1,0,0,0,38,38,58,1,,,,,,,,
,,,,,,,,,,,,,FF,,,,,,,,2.333,,,,,,,,,,,,,,,,,,,,,,5f555cfc020a36015dd15a36,610378aa8aa60ca94ea087f3,2021-07-30_05h57.50.426,Simcolourproject_2stim_asymm_v5,2020.2.10,Win32,60,61025ae37ef11b136ea224fe,,,,,,,,,1046,85,-45,1,0,0,response3disk,,5,-1,1,1,0,0,rectangle,-1,1,1,0,0,-1,1,1,0,0,0,39,39,23,1,,,,,,,,
,,,,,,,,,,,,,FF,,,,,,,,3.167,,,,,,,,,,,,,,,,,,,,,,5f555cfc020a36015dd15a36,610378aa8aa60ca94ea087f3,2021-07-30_05h57.50.426,Simcolourproject_2stim_asymm_v5,2020.2.10,Win32,60,61025ae37ef11b136ea224fe,,,,,,,,,1346,84,28,1,0,0,response1disk,,6,-2,1,1,0,0,rectangle,-2,1,1,0,0,-2,1,1,0,0,0,40,40,138,1,,,,,,,,
,,,,,,,,,,,,,FF,,,,,,,,2.8,,,,,,,,,,,,,,,,,,,,,,5f555cfc020a36015dd15a36,610378aa8aa60ca94ea087f3,2021-07-30_05h57.50.426,Simcolourproject_2stim_asymm_v5,2020.2.10,Win32,60,61025ae37ef11b136ea224fe,,,,,,,,,4288,96,42,1,0,0,response1disk,,6,-14,-1,1,0,0,rectangle,-14,-1,1,0,0,-14,-1,1,0,0,0,41,41,144,1,,,,,,,,
,,,,,,,,,,,,,FF,,,,,,,,2.801,,,,,,,,,,,,,,,,,,,,,,5f555cfc020a36015dd15a36,610378aa8aa60ca94ea087f3,2021-07-30_05h57.50.426,Simcolourproject_2stim_asymm_v5,2020.2.10,Win32,60,61025ae37ef11b136ea224fe,,,,,,,,,2272,99,-38,1,0,0,response3disk,,5,-6,4,1,0,0,rectangle,-6,4,1,0,0,-6,4,1,0,0,0,42,42,61,1,,,,,,,,
,,,,,,,,,,,,,FF,,,,,,,,2.267,,,,,,,,,,,,,,,,,,,,,,5f555cfc020a36015dd15a36,610378aa8aa60ca94ea087f3,2021-07-30_05h57.50.426,Simcolourproject_2stim_asymm_v5,2020.2.10,Win32,60,61025ae37ef11b136ea224fe,,,,,,,,,4289,104,50,1,0,0,response1disk,,6,-10,0,1,0,0,rectangle,-10,0,1,0,0,-10,0,1,0,0,0,43,43,39,1,,,,,,,,
,,,,,,,,,,,,,FF,,,,,,,,1.133,,,,,,,,,,,,,,,,,,,,,,5f555cfc020a36015dd15a36,610378aa8aa60ca94ea087f3,2021-07-30_05h57.50.426,Simcolourproject_2stim_asymm_v5,2020.2.10,Win32,60,61025ae37ef11b136ea224fe,,,,,,,,,3416,47,85,1,0,0,response1disk,,7,5,4,1,0,0,rectangle,5,4,1,0,0,5,4,1,0,0,0,44,44,35,1,,,,,,,,
,,,,,,,,,,,,,FF,,,,,,,,2.7,,,,,,,,,,,,,,,,,,,,,,5f555cfc020a36015dd15a36,610378aa8aa60ca94ea087f3,2021-07-30_05h57.50.426,Simcolourproject_2stim_asymm_v5,2020.2.10,Win32,60,61025ae37ef11b136ea224fe,,,,,,,,,1123,82,-39,1,0,0,response3disk,,5,-2,1,1,0,0,rectangle,-2,1,1,0,0,-2,1,1,0,0,0,45,45,143,1,,,,,,,,
,,,,,,,,,,,,,FF,,,,,,,,6.034,,,,,,,,,,,,,,,,,,,,,,5f555cfc020a36015dd15a36,610378aa8aa60ca94ea087f3,2021-07-30_05h57.50.426,Simcolourproject_2stim_asymm_v5,2020.2.10,Win32,60,61025ae37ef11b136ea224fe,,,,,,,,,558,36,-82,1,0,0,response3disk,,4,8,6,1,0,0,rectangle,8,6,1,0,0,8,6,1,0,0,0,46,46,112,1,,,,,,,,
,,,,,,,,,,,,,FF,,,,,,,,2.201,,,,,,,,,,,,,,,,,,,,,,5f555cfc020a36015dd15a36,610378aa8aa60ca94ea087f3,2021-07-30_05h57.50.426,Simcolourproject_2stim_asymm_v5,2020.2.10,Win32,60,61025ae37ef11b136ea224fe,,,,,,,,,4072,-44,-85,1,0,0,response5disk,,3,6,10,1,0,0,rectangle,6,10,1,0,0,6,10,1,0,0,0,47,47,16,1,,,,,,,,
,,,,,,,,,,,,,FF,,,,,,,,1.735,,,,,,,,,,,,,,,,,,,,,,5f555cfc020a36015dd15a36,610378aa8aa60ca94ea087f3,2021-07-30_05h57.50.426,Simcolourproject_2stim_asymm_v5,2020.2.10,Win32,60,61025ae37ef11b136ea224fe,,,,,,,,,2340,72,-47,1,0,0,response3disk,,5,3,0,1,0,0,rectangle,3,0,1,0,0,3,0,1,0,0,0,48,48,126,1,,,,,,,,
,,,,,,,,,,,,,FF,,,,,,,,2.401,,,,,,,,,,,,,,,,,,,,,,5f555cfc020a36015dd15a36,610378aa8aa60ca94ea087f3,2021-07-30_05h57.50.426,Simcolourproject_2stim_asymm_v5,2020.2.10,Win32,60,61025ae37ef11b136ea224fe,,,,,,,,,17,81,31,1,0,0,response1disk,,6,1,-3,1,0,0,rectangle,1,-3,1,0,0,1,-3,1,0,0,0,49,49,121,1,,,,,,,,
,,,,,,,,,,,,,FF,,,,,,,,1.867,,,,,,,,,,,,,,,,,,,,,,5f555cfc020a36015dd15a36,610378aa8aa60ca94ea087f3,2021-07-30_05h57.50.426,Simcolourproject_2stim_asymm_v5,2020.2.10,Win32,60,61025ae37ef11b136ea224fe,,,,,,,,,822,93,-60,1,0,0,response3disk,,5,12,0,1,0,0,rectangle,12,0,1,0,0,12,0,1,0,0,0,50,50,37,1,,,,,,,,
,,,,,,,,,,,,,FF,,,,,,,,1.867,,,,,,,,,,,,,,,,,,,,,,5f555cfc020a36015dd15a36,610378aa8aa60ca94ea087f3,2021-07-30_05h57.50.426,Simcolourproject_2stim_asymm_v5,2020.2.10,Win32,60,61025ae37ef11b136ea224fe,,,,,,,,,3298,-74,24,1,0,0,response7disk,,1,-19,-6,1,0,0,rectangle,-19,-6,1,0,0,-19,-6,1,0,0,0,51,51,142,1,,,,,,,,
,,,,,,,,,,,,,FF,,,,,,,,1.934,,,,,,,,,,,,,,,,,,,,,,5f555cfc020a36015dd15a36,610378aa8aa60ca94ea087f3,2021-07-30_05h57.50.426,Simcolourproject_2stim_asymm_v5,2020.2.10,Win32,60,61025ae37ef11b136ea224fe,,,,,,,,,4286,92,42,1,0,0,response1disk,,6,-9,-1,1,0,0,rectangle,-9,-1,1,0,0,-9,-1,1,0,0,0,52,52,29,1,,,,,,,,
,,,,,,,,,,,,,FF,,,,,,,,2.234,,,,,,,,,,,,,,,,,,,,,,5f555cfc020a36015dd15a36,610378aa8aa60ca94ea087f3,2021-07-30_05h57.50.426,Simcolourproject_2stim_asymm_v5,2020.2.10,Win32,60,61025ae37ef11b136ea224fe,,,,,,,,,1948,22,-81,1,0,0,response3disk,,4,-1,0,1,0,0,rectangle,-1,0,1,0,0,-1,0,1,0,0,0,53,53,84,1,,,,,,,,
,,,,,,,,,,,,,FF,,,,,,,,3.534,,,,,,,,,,,,,,,,,,,,,,5f555cfc020a36015dd15a36,610378aa8aa60ca94ea087f3,2021-07-30_05h57.50.426,Simcolourproject_2stim_asymm_v5,2020.2.10,Win32,60,61025ae37ef11b136ea224fe,,,,,,,,,2382,76,-48,1,0,0,response3disk,,5,-2,1,1,0,0,rectangle,-2,1,1,0,0,-2,1,1,0,0,0,54,54,139,1,,,,,,,,
,,,,,,,,,,,,,FF,,,,,,,,2.533,,,,,,,,,,,,,,,,,,,,,,5f555cfc020a36015dd15a36,610378aa8aa60ca94ea087f3,2021-07-30_05h57.50.426,Simcolourproject_2stim_asymm_v5,2020.2.10,Win32,60,61025ae37ef11b136ea224fe,,,,,,,,,2235,-78,49,1,0,0,response7disk,,1,-7,2,1,0,0,rectangle,-7,2,1,0,0,-7,2,1,0,0,0,55,55,136,1,,,,,,,,
,,,,,,,,,,,,,FF,,,,,,,,1.701,,,,,,,,,,,,,,,,,,,,,,5f555cfc020a36015dd15a36,610378aa8aa60ca94ea087f3,2021-07-30_05h57.50.426,Simcolourproject_2stim_asymm_v5,2020.2.10,Win32,60,61025ae37ef11b136ea224fe,,,,,,,,,4125,-85,-51,1,0,0,response5disk,,2,-13,4,1,0,0,rectangle,-13,4,1,0,0,-13,4,1,0,0,0,56,56,94,1,,,,,,,,
,,,,,,,,,,,,,FF,,,,,,,,4.6,,,,,,,,,,,,,,,,,,,,,,5f555cfc020a36015dd15a36,610378aa8aa60ca94ea087f3,2021-07-30_05h57.50.426,Simcolourproject_2stim_asymm_v5,2020.2.10,Win32,60,61025ae37ef11b136ea224fe,,,,,,,,,2881,-78,-27,1,0,0,response5disk,,2,5,-4,1,0,0,rectangle,5,-4,1,0,0,5,-4,1,0,0,0,57,57,124,1,,,,,,,,
,,,,,,,,,,,,,FF,,,,,,,,14.535,,,,,,,,,,,,,,,,,,,,,,5f555cfc020a36015dd15a36,610378aa8aa60ca94ea087f3,2021-07-30_05h57.50.426,Simcolourproject_2stim_asymm_v5,2020.2.10,Win32,60,61025ae37ef11b136ea224fe,,,,,,,,,2562,28,-88,1,0,0,response3disk,,4,2,-2,1,0,0,rectangle,2,-2,1,0,0,2,-2,1,0,0,0,58,58,103,1,,,,,,,,
,,,,,,,,,,,,,FF,,,,,,,,2.601,,,,,,,,,,,,,,,,,,,,,,5f555cfc020a36015dd15a36,610378aa8aa60ca94ea087f3,2021-07-30_05h57.50.426,Simcolourproject_2stim_asymm_v5,2020.2.10,Win32,60,61025ae37ef11b136ea224fe,,,,,,,,,956,-41,-78,1,0,0,response5disk,,3,-2,1,1,0,0,rectangle,-2,1,1,0,0,-2,1,1,0,0,0,59,59,36,1,,,,,,,,
,,,,,,,,,,,,,FF,,,,,,,,1.567,,,,,,,,,,,,,,,,,,,,,,5f555cfc020a36015dd15a36,610378aa8aa60ca94ea087f3,2021-07-30_05h57.50.426,Simcolourproject_2stim_asymm_v5,2020.2.10,Win32,60,61025ae37ef11b136ea224fe,,,,,,,,,764,64,35,1,0,0,response1disk,,6,0,-2,1,0,0,rectangle,0,-2,1,0,0,0,-2,1,0,0,0,60,60,25,1,,,,,,,,
,,,,,,,,,,,,,FF,,,,,,,,1.5,,,,,,,,,,,,,,,,,,,,,,5f555cfc020a36015dd15a36,610378aa8aa60ca94ea087f3,2021-07-30_05h57.50.426,Simcolourproject_2stim_asymm_v5,2020.2.10,Win32,60,61025ae37ef11b136ea224fe,,,,,,,,,1124,68,-35,1,0,0,response3disk,,5,8,6,1,0,0,rectangle,8,6,1,0,0,8,6,1,0,0,0,61,61,99,1,,,,,,,,
,,,,,,,,,,,,,FF,,,,,,,,1.733,,,,,,,,,,,,,,,,,,,,,,5f555cfc020a36015dd15a36,610378aa8aa60ca94ea087f3,2021-07-30_05h57.50.426,Simcolourproject_2stim_asymm_v5,2020.2.10,Win32,60,61025ae37ef11b136ea224fe,,,,,,,,,3340,72,50,1,0,0,response1disk,,6,-17,0,1,0,0,rectangle,-17,0,1,0,0,-17,0,1,0,0,0,62,62,56,1,,,,,,,,
,,,,,,,,,,,,,FF,,,,,,,,1.467,,,,,,,,,,,,,,,,,,,,,,5f555cfc020a36015dd15a36,610378aa8aa60ca94ea087f3,2021-07-30_05h57.50.426,Simcolourproject_2stim_asymm_v5,2020.2.10,Win32,60,61025ae37ef11b136ea224fe,,,,,,,,,2998,-77,28,1,0,0,response7disk,,1,-20,3,1,0,0,rectangle,-20,3,1,0,0,-20,3,1,0,0,0,63,63,5,1,,,,,,,,
,,,,,,,,,,,,,FF,,,,,,,,1.867,,,,,,,,,,,,,,,,,,,,,,5f555cfc020a36015dd15a36,610378aa8aa60ca94ea087f3,2021-07-30_05h57.50.426,Simcolourproject_2stim_asymm_v5,2020.2.10,Win32,60,61025ae37ef11b136ea224fe,,,,,,,,,1000,88,51,1,0,0,response1disk,,6,-5,3,1,0,0,rectangle,-5,3,1,0,0,-5,3,1,0,0,0,64,64,73,1,,,,,,,,
,,,,,,,,,,,,,FF,,,,,,,,2.767,,,,,,,,,,,,,,,,,,,,,,5f555cfc020a36015dd15a36,610378aa8aa60ca94ea087f3,2021-07-30_05h57.50.426,Simcolourproject_2stim_asymm_v5,2020.2.10,Win32,60,61025ae37ef11b136ea224fe,,,,,,,,,1907,36,-91,1,0,0,response3disk,,4,-2,-1,1,0,0,rectangle,38,-74,1,0,0,-5,3,1,0,0,0,65,65,96,1,,response3disk_3,TRUE,4,4,"[32,145,4,238,80,132,281,139,258,168,201,136,164,201,248,66,96,69,298,290]",2.334,rectangle
,,,,,,,,,,,,,FF,,,,,,,,10.568,,,,,,,,,,,,,,,,,,,,,,5f555cfc020a36015dd15a36,610378aa8aa60ca94ea087f3,2021-07-30_05h57.50.426,Simcolourproject_2stim_asymm_v5,2020.2.10,Win32,60,61025ae37ef11b136ea224fe,,,,,,,,,333,-43,-90,1,0,0,response5disk,,3,-3,-3,1,0,0,rectangle,-3,-3,1,0,0,-3,-3,1,0,0,0,66,66,102,1,,,,,,,,
,,,,,,,,,,,,,FF,,,,,,,,1.867,,,,,,,,,,,,,,,,,,,,,,5f555cfc020a36015dd15a36,610378aa8aa60ca94ea087f3,2021-07-30_05h57.50.426,Simcolourproject_2stim_asymm_v5,2020.2.10,Win32,60,61025ae37ef11b136ea224fe,,,,,,,,,4073,-67,-26,1,0,0,response5disk,,2,-8,4,1,0,0,rectangle,-8,4,1,0,0,-8,4,1,0,0,0,67,67,13,1,,,,,,,,
,,,,,,,,,,,,,FF,,,,,,,,3.235,,,,,,,,,,,,,,,,,,,,,,5f555cfc020a36015dd15a36,610378aa8aa60ca94ea087f3,2021-07-30_05h57.50.426,Simcolourproject_2stim_asymm_v5,2020.2.10,Win32,60,61025ae37ef11b136ea224fe,,,,,,,,,3725,39,-69,1,0,0,response3disk,,4,-11,3,1,0,0,rectangle,74,32,1,0,0,-5,-2,1,0,0,0,68,68,45,1,,response1disk_3,TRUE,6,6,"[32,145,4,238,80,132,281,139,258,168,201,136,164,201,248,66,96,69,298,290]",1.633,rectangle
,,,,,,,,,,,,,FF,,,,,,,,3.433,,,,,,,,,,,,,,,,,,,,,,5f555cfc020a36015dd15a36,610378aa8aa60ca94ea087f3,2021-07-30_05h57.50.426,Simcolourproject_2stim_asymm_v5,2020.2.10,Win32,60,61025ae37ef11b136ea224fe,,,,,,,,,1275,72,-38,1,0,0,response3disk,,5,5,4,1,0,0,rectangle,5,4,1,0,0,5,4,1,0,0,0,69,69,141,1,,,,,,,,
,,,,,,,,,,,,,FF,,,,,,,,2.867,,,,,,,,,,,,,,,,,,,,,,5f555cfc020a36015dd15a36,610378aa8aa60ca94ea087f3,2021-07-30_05h57.50.426,Simcolourproject_2stim_asymm_v5,2020.2.10,Win32,60,61025ae37ef11b136ea224fe,,,,,,,,,3545,-44,-78,1,0,0,response5disk,,3,-4,0,1,0,0,rectangle,-4,0,1,0,0,-4,0,1,0,0,0,70,70,115,1,,,,,,,,
,,,,,,,,,,,,,FF,,,,,,,,1.699,,,,,,,,,,,,,,,,,,,,,,5f555cfc020a36015dd15a36,610378aa8aa60ca94ea087f3,2021-07-30_05h57.50.426,Simcolourproject_2stim_asymm_v5,2020.2.10,Win32,60,61025ae37ef11b136ea224fe,,,,,,,,,3409,28,-55,1,0,0,response3disk,,4,-6,8,1,0,0,rectangle,-6,8,1,0,0,-6,8,1,0,0,0,71,71,22,1,,,,,,,,
,,,,,,,,,,,,,FF,,,,,,,,1.666,,,,,,,,,,,,,,,,,,,,,,5f555cfc020a36015dd15a36,610378aa8aa60ca94ea087f3,2021-07-30_05h57.50.426,Simcolourproject_2stim_asymm_v5,2020.2.10,Win32,60,61025ae37ef11b136ea224fe,,,,,,,,,2977,88,-36,1,0,0,response3disk,,5,4,5,1,0,0,rectangle,4,5,1,0,0,4,5,1,0,0,0,72,72,51,1,,,,,,,,
,,,,,,,,,,,,,FF,,,,,,,,2.866,,,,,,,,,,,,,,,,,,,,,,5f555cfc020a36015dd15a36,610378aa8aa60ca94ea087f3,2021-07-30_05h57.50.426,Simcolourproject_2stim_asymm_v5,2020.2.10,Win32,60,61025ae37ef11b136ea224fe,,,,,,,,,1859,89,39,1,0,0,response1disk,,6,5,-3,1,0,0,rectangle,5,-3,1,0,0,5,-3,1,0,0,0,73,73,62,1,,,,,,,,
,,,,,,,,,,,,,FF,,,,,,,,1.666,,,,,,,,,,,,,,,,,,,,,,5f555cfc020a36015dd15a36,610378aa8aa60ca94ea087f3,2021-07-30_05h57.50.426,Simcolourproject_2stim_asymm_v5,2020.2.10,Win32,60,61025ae37ef11b136ea224fe,,,,,,,,,2812,-30,-52,1,0,0,response5disk,,3,-11,1,1,0,0,rectangle,-11,1,1,0,0,-11,1,1,0,0,0,74,74,152,1,,,,,,,,
,,,,,,,,,,,,,FF,,,,,,,,4.501,,,,,,,,,,,,,,,,,,,,,,5f555cfc020a36015dd15a36,610378aa8aa60ca94ea087f3,2021-07-30_05h57.50.426,Simcolourproject_2stim_asymm_v5,2020.2.10,Win32,60,61025ae37ef11b136ea224fe,,,,,,,,,757,84,-44,1,0,0,response3disk,,5,8,6,1,0,0,rectangle,8,6,1,0,0,8,6,1,0,0,0,75,75,14,1,,,,,,,,
,,,,,,,,,,,,,FF,,,,,,,,3.767,,,,,,,,,,,,,,,,,,,,,,5f555cfc020a36015dd15a36,610378aa8aa60ca94ea087f3,2021-07-30_05h57.50.426,Simcolourproject_2stim_asymm_v5,2020.2.10,Win32,60,61025ae37ef11b136ea224fe,,,,,,,,,1349,72,-38,1,0,0,response3disk,,5,1,1,1,0,0,rectangle,1,1,1,0,0,1,1,1,0,0,0,76,76,134,1,,,,,,,,
,,,,,,,,,,,,,FF,,,,,,,,5.101,,,,,,,,,,,,,,,,,,,,,,5f555cfc020a36015dd15a36,610378aa8aa60ca94ea087f3,2021-07-30_05h57.50.426,Simcolourproject_2stim_asymm_v5,2020.2.10,Win32,60,61025ae37ef11b136ea224fe,,,,,,,,,2956,30,-54,1,0,0,response3disk,,4,-7,4,1,0,0,rectangle,-7,4,1,0,0,-7,4,1,0,0,0,77,77,33,1,,,,,,,,
,,,,,,,,,,,,,FF,,,,,,,,3.3,,,,,,,,,,,,,,,,,,,,,,5f555cfc020a36015dd15a36,610378aa8aa60ca94ea087f3,2021-07-30_05h57.50.426,Simcolourproject_2stim_asymm_v5,2020.2.10,Win32,60,61025ae37ef11b136ea224fe,,,,,,,,,3287,-84,-51,1,0,0,response5disk,,2,-4,10,1,0,0,rectangle,-4,10,1,0,0,-4,10,1,0,0,0,78,78,10,1,,,,,,,,
,,,,,,,,,,,,,FF,,,,,,,,2.067,,,,,,,,,,,,,,,,,,,,,,5f555cfc020a36015dd15a36,610378aa8aa60ca94ea087f3,2021-07-30_05h57.50.426,Simcolourproject_2stim_asymm_v5,2020.2.10,Win32,60,61025ae37ef11b136ea224fe,,,,,,,,,2083,68,-43,1,0,0,response3disk,,5,-1,4,1,0,0,rectangle,-42,-75,1,0,0,0,6,1,0,0,0,79,79,31,1,,response5disk_3,TRUE,3,3,"[32,145,4,238,80,132,281,139,258,168,201,136,164,201,248,66,96,69,298,290]",2.699,rectangle
,,,,,,,,,,,,,FF,,,,,,,,2.833,,,,,,,,,,,,,,,,,,,,,,5f555cfc020a36015dd15a36,610378aa8aa60ca94ea087f3,2021-07-30_05h57.50.426,Simcolourproject_2stim_asymm_v5,2020.2.10,Win32,60,61025ae37ef11b136ea224fe,,,,,,,,,2280,76,26,1,0,0,response1disk,,6,0,1,1,0,0,rectangle,0,1,1,0,0,0,1,1,0,0,0,80,80,27,1,,,,,,,,
,,,,,,,,,,,,,FF,,,,,,,,5.4,,,,,,,,,,,,,,,,,,,,,,5f555cfc020a36015dd15a36,610378aa8aa60ca94ea087f3,2021-07-30_05h57.50.426,Simcolourproject_2stim_asymm_v5,2020.2.10,Win32,60,61025ae37ef11b136ea224fe,,,,,,,,,3492,-41,-82,1,0,0,response5disk,,3,-4,-1,1,0,0,rectangle,-4,-1,1,0,0,-4,-1,1,0,0,0,81,81,92,1,,,,,,,,
,,,,,,,,,,,,,FF,,,,,,,,2.6,,,,,,,,,,,,,,,,,,,,,,5f555cfc020a36015dd15a36,610378aa8aa60ca94ea087f3,2021-07-30_05h57.50.426,Simcolourproject_2stim_asymm_v5,2020.2.10,Win32,60,61025ae37ef11b136ea224fe,,,,,,,,,228,57,-29,1,0,0,response3disk,,5,2,1,1,0,0,rectangle,2,1,1,0,0,2,1,1,0,0,0,82,82,2,1,,,,,,,,
,,,,,,,,,,,,,FF,,,,,,,,2.867,,,,,,,,,,,,,,,,,,,,,,5f555cfc020a36015dd15a36,610378aa8aa60ca94ea087f3,2021-07-30_05h57.50.426,Simcolourproject_2stim_asymm_v5,2020.2.10,Win32,60,61025ae37ef11b136ea224fe,,,,,,,,,942,44,-62,1,0,0,response3disk,,4,-9,1,1,0,0,rectangle,-9,1,1,0,0,-9,1,1,0,0,0,83,83,60,1,,,,,,,,
,,,,,,,,,,,,,FF,,,,,,,,7.667,,,,,,,,,,,,,,,,,,,,,,5f555cfc020a36015dd15a36,610378aa8aa60ca94ea087f3,2021-07-30_05h57.50.426,Simcolourproject_2stim_asymm_v5,2020.2.10,Win32,60,61025ae37ef11b136ea224fe,,,,,,,,,2863,71,-55,1,0,0,response3disk,,5,-15,3,1,0,0,rectangle,-15,3,1,0,0,-15,3,1,0,0,0,84,84,3,1,,,,,,,,
,,,,,,,,,,,,,FF,,,,,,,,3.067,,,,,,,,,,,,,,,,,,,,,,5f555cfc020a36015dd15a36,610378aa8aa60ca94ea087f3,2021-07-30_05h57.50.426,Simcolourproject_2stim_asymm_v5,2020.2.10,Win32,60,61025ae37ef11b136ea224fe,,,,,,,,,1984,82,-43,1,0,0,response3disk,,5,0,4,1,0,0,rectangle,0,4,1,0,0,0,4,1,0,0,0,85,85,159,1,,,,,,,,
,,,,,,,,,,,,,FF,,,,,,,,2.334,,,,,,,,,,,,,,,,,,,,,,5f555cfc020a36015dd15a36,610378aa8aa60ca94ea087f3,2021-07-30_05h57.50.426,Simcolourproject_2stim_asymm_v5,2020.2.10,Win32,60,61025ae37ef11b136ea224fe,,,,,,,,,2853,70,-61,1,0,0,response3disk,,5,10,5,1,0,0,rectangle,10,5,1,0,0,10,5,1,0,0,0,86,86,135,1,,,,,,,,
,,,,,,,,,,,,,FF,,,,,,,,2.4,,,,,,,,,,,,,,,,,,,,,,5f555cfc020a36015dd15a36,610378aa8aa60ca94ea087f3,2021-07-30_05h57.50.426,Simcolourproject_2stim_asymm_v5,2020.2.10,Win32,60,61025ae37ef11b136ea224fe,,,,,,,,,1726,32,-97,1,0,0,response3disk,,4,-2,5,1,0,0,rectangle,-2,5,1,0,0,-2,5,1,0,0,0,87,87,117,1,,,,,,,,
,,,,,,,,,,,,,FF,,,,,,,,9.599,,,,,,,,,,,,,,,,,,,,,,5f555cfc020a36015dd15a36,610378aa8aa60ca94ea087f3,2021-07-30_05h57.50.426,Simcolourproject_2stim_asymm_v5,2020.2.10,Win32,60,61025ae37ef11b136ea224fe,,,,,,,,,1399,86,51,1,0,0,response1disk,,6,2,10,1,0,0,rectangle,2,10,1,0,0,2,10,1,0,0,0,88,88,128,1,,,,,,,,
,,,,,,,,,,,,,FF,,,,,,,,1.267,,,,,,,,,,,,,,,,,,,,,,5f555cfc020a36015dd15a36,610378aa8aa60ca94ea087f3,2021-07-30_05h57.50.426,Simcolourproject_2stim_asymm_v5,2020.2.10,Win32,60,61025ae37ef11b136ea224fe,,,,,,,,,3966,-77,36,1,0,0,response7disk,,1,19,-9,1,0,0,rectangle,19,-9,1,0,0,19,-9,1,0,0,0,89,89,86,1,,,,,,,,
,,,,,,,,,,,,,FF,,,,,,,,1.767,,,,,,,,,,,,,,,,,,,,,,5f555cfc020a36015dd15a36,610378aa8aa60ca94ea087f3,2021-07-30_05h57.50.426,Simcolourproject_2stim_asymm_v5,2020.2.10,Win32,60,61025ae37ef11b136ea224fe,,,,,,,,,554,-40,-64,1,0,0,response5disk,,3,-7,2,1,0,0,rectangle,-7,2,1,0,0,-7,2,1,0,0,0,90,90,43,1,,,,,,,,
,,,,,,,,,,,,,FF,,,,,,,,2.234,,,,,,,,,,,,,,,,,,,,,,5f555cfc020a36015dd15a36,610378aa8aa60ca94ea087f3,2021-07-30_05h57.50.426,Simcolourproject_2stim_asymm_v5,2020.2.10,Win32,60,61025ae37ef11b136ea224fe,,,,,,,,,3442,22,-75,1,0,0,response3disk,,4,-6,0,1,0,0,rectangle,-6,0,1,0,0,-6,0,1,0,0,0,91,91,19,1,,,,,,,,
,,,,,,,,,,,,,FF,,,,,,,,3,,,,,,,,,,,,,,,,,,,,,,5f555cfc020a36015dd15a36,610378aa8aa60ca94ea087f3,2021-07-30_05h57.50.426,Simcolourproject_2stim_asymm_v5,2020.2.10,Win32,60,61025ae37ef11b136ea224fe,,,,,,,,,2135,84,35,1,0,0,response1disk,,6,-5,5,1,0,0,rectangle,-5,5,1,0,0,-5,5,1,0,0,0,92,92,111,1,,,,,,,,
,,,,,,,,,,,,,FF,,,,,,,,1.201,,,,,,,,,,,,,,,,,,,,,,5f555cfc020a36015dd15a36,610378aa8aa60ca94ea087f3,2021-07-30_05h57.50.426,Simcolourproject_2stim_asymm_v5,2020.2.10,Win32,60,61025ae37ef11b136ea224fe,,,,,,,,,2042,-65,-44,1,0,0,response5disk,,2,-5,-5,1,0,0,rectangle,-5,-5,1,0,0,-5,-5,1,0,0,0,93,93,68,1,,,,,,,,
,,,,,,,,,,,,,FF,,,,,,,,2.134,,,,,,,,,,,,,,,,,,,,,,5f555cfc020a36015dd15a36,610378aa8aa60ca94ea087f3,2021-07-30_05h57.50.426,Simcolourproject_2stim_asymm_v5,2020.2.10,Win32,60,61025ae37ef11b136ea224fe,,,,,,,,,1778,49,-82,1,0,0,response3disk,,4,6,1,1,0,0,rectangle,6,1,1,0,0,6,1,1,0,0,0,94,94,81,1,,,,,,,,
,,,,,,,,,,,,,FF,,,,,,,,1.299,,,,,,,,,,,,,,,,,,,,,,5f555cfc020a36015dd15a36,610378aa8aa60ca94ea087f3,2021-07-30_05h57.50.426,Simcolourproject_2stim_asymm_v5,2020.2.10,Win32,60,61025ae37ef11b136ea224fe,,,,,,,,,3994,-75,28,1,0,0,response7disk,,1,1,-1,1,0,0,rectangle,42,-82,1,0,0,-4,-1,1,0,0,0,95,95,127,1,,response3disk_3,TRUE,4,4,"[32,145,4,238,80,132,281,139,258,168,201,136,164,201,248,66,96,69,298,290]",1.999,rectangle
,,,,,,,,,,,,,FF,,,,,,,,4.333,,,,,,,,,,,,,,,,,,,,,,5f555cfc020a36015dd15a36,610378aa8aa60ca94ea087f3,2021-07-30_05h57.50.426,Simcolourproject_2stim_asymm_v5,2020.2.10,Win32,60,61025ae37ef11b136ea224fe,,,,,,,,,1489,49,-73,1,0,0,response3disk,,4,-2,-3,1,0,0,rectangle,-2,-3,1,0,0,-2,-3,1,0,0,0,96,96,91,1,,,,,,,,
,,,,,,,,,,,,,FF,,,,,,,,3.567,,,,,,,,,,,,,,,,,,,,,,5f555cfc020a36015dd15a36,610378aa8aa60ca94ea087f3,2021-07-30_05h57.50.426,Simcolourproject_2stim_asymm_v5,2020.2.10,Win32,60,61025ae37ef11b136ea224fe,,,,,,,,,20,73,55,1,0,0,response1disk,,6,5,5,1,0,0,rectangle,5,5,1,0,0,5,5,1,0,0,0,97,97,83,1,,,,,,,,
,,,,,,,,,,,,,FF,,,,,,,,1.333,,,,,,,,,,,,,,,,,,,,,,5f555cfc020a36015dd15a36,610378aa8aa60ca94ea087f3,2021-07-30_05h57.50.426,Simcolourproject_2stim_asymm_v5,2020.2.10,Win32,60,61025ae37ef11b136ea224fe,,,,,,,,,3476,-63,33,1,0,0,response7disk,,1,-18,-3,1,0,0,rectangle,-18,-3,1,0,0,-18,-3,1,0,0,0,98,98,116,1,,,,,,,,
,,,,,,,,,,,,,FF,,,,,,,,16.705,,,,,,,,,,,,,,,,,,,,,,5f555cfc020a36015dd15a36,610378aa8aa60ca94ea087f3,2021-07-30_05h57.50.426,Simcolourproject_2stim_asymm_v5,2020.2.10,Win32,60,61025ae37ef11b136ea224fe,,,,,,,,,1273,31,-89,1,0,0,response3disk,,4,6,4,1,0,0,rectangle,6,4,1,0,0,6,4,1,0,0,0,99,99,70,1,,,,,,,,
,,,,,,,,,,,,,FF,,,,,,,,1.734,,,,,,,,,,,,,,,,,,,,,,5f555cfc020a36015dd15a36,610378aa8aa60ca94ea087f3,2021-07-30_05h57.50.426,Simcolourproject_2stim_asymm_v5,2020.2.10,Win32,60,61025ae37ef11b136ea224fe,,,,,,,,,181,73,-31,1,0,0,response3disk,,5,6,-4,1,0,0,rectangle,6,-4,1,0,0,6,-4,1,0,0,0,100,100,12,1,,,,,,,,
,,,,,,,,,,,,,FF,,,,,,,,2.801,,,,,,,,,,,,,,,,,,,,,,5f555cfc020a36015dd15a36,610378aa8aa60ca94ea087f3,2021-07-30_05h57.50.426,Simcolourproject_2stim_asymm_v5,2020.2.10,Win32,60,61025ae37ef11b136ea224fe,,,,,,,,,2953,-79,-33,1,0,0,response5disk,,2,-15,4,1,0,0,rectangle,-15,4,1,0,0,-15,4,1,0,0,0,101,101,65,1,,,,,,,,
,,,,,,,,,,,,,FF,,,,,,,,2.767,,,,,,,,,,,,,,,,,,,,,,5f555cfc020a36015dd15a36,610378aa8aa60ca94ea087f3,2021-07-30_05h57.50.426,Simcolourproject_2stim_asymm_v5,2020.2.10,Win32,60,61025ae37ef11b136ea224fe,,,,,,,,,178,63,-36,1,0,0,response3disk,,5,-1,1,1,0,0,rectangle,-1,1,1,0,0,-1,1,1,0,0,0,102,102,77,1,,,,,,,,
,,,,,,,,,,,,,FF,,,,,,,,1.6,,,,,,,,,,,,,,,,,,,,,,5f555cfc020a36015dd15a36,610378aa8aa60ca94ea087f3,2021-07-30_05h57.50.426,Simcolourproject_2stim_asymm_v5,2020.2.10,Win32,60,61025ae37ef11b136ea224fe,,,,,,,,,3088,-66,-44,1,0,0,response5disk,,2,9,0,1,0,0,rectangle,9,0,1,0,0,9,0,1,0,0,0,103,103,78,1,,,,,,,,
,,,,,,,,,,,,,FF,,,,,,,,3.4,,,,,,,,,,,,,,,,,,,,,,5f555cfc020a36015dd15a36,610378aa8aa60ca94ea087f3,2021-07-30_05h57.50.426,Simcolourproject_2stim_asymm_v5,2020.2.10,Win32,60,61025ae37ef11b136ea224fe,,,,,,,,,3920,75,-39,1,0,0,response3disk,,5,10,-4,1,0,0,rectangle,10,-4,1,0,0,10,-4,1,0,0,0,104,104,154,1,,,,,,,,
,,,,,,,,,,,,,FF,,,,,,,,2.6,,,,,,,,,,,,,,,,,,,,,,5f555cfc020a36015dd15a36,610378aa8aa60ca94ea087f3,2021-07-30_05h57.50.426,Simcolourproject_2stim_asymm_v5,2020.2.10,Win32,60,61025ae37ef11b136ea224fe,,,,,,,,,2585,80,38,1,0,0,response1disk,,6,12,3,1,0,0,rectangle,12,3,1,0,0,12,3,1,0,0,0,105,105,140,1,,,,,,,,
,,,,,,,,,,,,,FF,,,,,,,,6.299,,,,,,,,,,,,,,,,,,,,,,5f555cfc020a36015dd15a36,610378aa8aa60ca94ea087f3,2021-07-30_05h57.50.426,Simcolourproject_2stim_asymm_v5,2020.2.10,Win32,60,61025ae37ef11b136ea224fe,,,,,,,,,4160,89,45,1,0,0,response1disk,,6,1,-6,1,0,0,rectangle,1,-6,1,0,0,1,-6,1,0,0,0,106,106,26,1,,,,,,,,
,,,,,,,,,,,,,FF,,,,,,,,2.267,,,,,,,,,,,,,,,,,,,,,,5f555cfc020a36015dd15a36,610378aa8aa60ca94ea087f3,2021-07-30_05h57.50.426,Simcolourproject_2stim_asymm_v5,2020.2.10,Win32,60,61025ae37ef11b136ea224fe,,,,,,,,,2234,-80,53,1,0,0,response7disk,,1,-8,0,1,0,0,rectangle,-8,0,1,0,0,-8,0,1,0,0,0,107,107,50,1,,,,,,,,
,,,,,,,,,,,,,FF,,,,,,,,1.567,,,,,,,,,,,,,,,,,,,,,,5f555cfc020a36015dd15a36,610378aa8aa60ca94ea087f3,2021-07-30_05h57.50.426,Simcolourproject_2stim_asymm_v5,2020.2.10,Win32,60,61025ae37ef11b136ea224fe,,,,,,,,,3881,-66,-31,1,0,0,response5disk,,2,-9,-5,1,0,0,rectangle,-9,-5,1,0,0,-9,-5,1,0,0,0,108,108,80,1,,,,,,,,
,,,,,,,,,,,,,FF,,,,,,,,2.199,,,,,,,,,,,,,,,,,,,,,,5f555cfc020a36015dd15a36,610378aa8aa60ca94ea087f3,2021-07-30_05h57.50.426,Simcolourproject_2stim_asymm_v5,2020.2.10,Win32,60,61025ae37ef11b136ea224fe,,,,,,,,,2523,50,88,1,0,0,response1disk,,7,-1,-4,1,0,0,rectangle,-1,-4,1,0,0,-1,-4,1,0,0,0,109,109,74,1,,,,,,,,
,,,,,,,,,,,,,FF,,,,,,,,3.034,,,,,,,,,,,,,,,,,,,,,,5f555cfc020a36015dd15a36,610378aa8aa60ca94ea087f3,2021-07-30_05h57.50.426,Simcolourproject_2stim_asymm_v5,2020.2.10,Win32,60,61025ae37ef11b136ea224fe,,,,,,,,,698,39,-64,1,0,0,response3disk,,4,-3,-3,1,0,0,rectangle,-3,-3,1,0,0,-3,-3,1,0,0,0,110,110,11,1,,,,,,,,
,,,,,,,,,,,,,FF,,,,,,,,5.001,,,,,,,,,,,,,,,,,,,,,,5f555cfc020a36015dd15a36,610378aa8aa60ca94ea087f3,2021-07-30_05h57.50.426,Simcolourproject_2stim_asymm_v5,2020.2.10,Win32,60,61025ae37ef11b136ea224fe,,,,,,,,,1225,-38,-77,1,0,0,response5disk,,3,0,-2,1,0,0,rectangle,0,-2,1,0,0,0,-2,1,0,0,0,111,111,55,1,,,,,,,,
,,,,,,,,,,,,,FF,,,,,,,,2.401,,,,,,,,,,,,,,,,,,,,,,5f555cfc020a36015dd15a36,610378aa8aa60ca94ea087f3,2021-07-30_05h57.50.426,Simcolourproject_2stim_asymm_v5,2020.2.10,Win32,60,61025ae37ef11b136ea224fe,,,,,,,,,4117,-34,-92,1,0,0,response5disk,,3,-6,-4,1,0,0,rectangle,-6,-4,1,0,0,-6,-4,1,0,0,0,112,112,30,1,,,,,,,,
,,,,,,,,,,,,,FF,,,,,,,,1.366,,,,,,,,,,,,,,,,,,,,,,5f555cfc020a36015dd15a36,610378aa8aa60ca94ea087f3,2021-07-30_05h57.50.426,Simcolourproject_2stim_asymm_v5,2020.2.10,Win32,60,61025ae37ef11b136ea224fe,,,,,,,,,2402,41,-33,1,0,0,response3disk,,5,4,-4,1,0,0,rectangle,4,-4,1,0,0,4,-4,1,0,0,0,113,113,59,1,,,,,,,,
,,,,,,,,,,,,,FF,,,,,,,,2.233,,,,,,,,,,,,,,,,,,,,,,5f555cfc020a36015dd15a36,610378aa8aa60ca94ea087f3,2021-07-30_05h57.50.426,Simcolourproject_2stim_asymm_v5,2020.2.10,Win32,60,61025ae37ef11b136ea224fe,,,,,,,,,3364,76,36,1,0,0,response1disk,,6,-7,-7,1,0,0,rectangle,-7,-7,1,0,0,-7,-7,1,0,0,0,114,114,114,1,,,,,,,,
,,,,,,,,,,,,,FF,,,,,,,,2.134,,,,,,,,,,,,,,,,,,,,,,5f555cfc020a36015dd15a36,610378aa8aa60ca94ea087f3,2021-07-30_05h57.50.426,Simcolourproject_2stim_asymm_v5,2020.2.10,Win32,60,61025ae37ef11b136ea224fe,,,,,,,,,1761,-51,-81,1,0,0,response5disk,,3,-10,-3,1,0,0,rectangle,-10,-3,1,0,0,-10,-3,1,0,0,0,115,115,32,1,,,,,,,,
,,,,,,,,,,,,,FF,,,,,,,,1.601,,,,,,,,,,,,,,,,,,,,,,5f555cfc020a36015dd15a36,610378aa8aa60ca94ea087f3,2021-07-30_05h57.50.426,Simcolourproject_2stim_asymm_v5,2020.2.10,Win32,60,61025ae37ef11b136ea224fe,,,,,,,,,249,31,-61,1,0,0,response3disk,,4,5,-3,1,0,0,rectangle,5,-3,1,0,0,5,-3,1,0,0,0,116,116,79,1,,,,,,,,
,,,,,,,,,,,,,FF,,,,,,,,6.067,,,,,,,,,,,,,,,,,,,,,,5f555cfc020a36015dd15a36,610378aa8aa60ca94ea087f3,2021-07-30_05h57.50.426,Simcolourproject_2stim_asymm_v5,2020.2.10,Win32,60,61025ae37ef11b136ea224fe,,,,,,,,,2221,42,-62,1,0,0,response3disk,,4,1,5,1,0,0,rectangle,1,5,1,0,0,1,5,1,0,0,0,117,117,69,1,,,,,,,,
,,,,,,,,,,,,,FF,,,,,,,,1.301,,,,,,,,,,,,,,,,,,,,,,5f555cfc020a36015dd15a36,610378aa8aa60ca94ea087f3,2021-07-30_05h57.50.426,Simcolourproject_2stim_asymm_v5,2020.2.10,Win32,60,61025ae37ef11b136ea224fe,,,,,,,,,4147,-76,-29,1,0,0,response5disk,,2,-3,10,1,0,0,rectangle,-3,10,1,0,0,-3,10,1,0,0,0,118,118,76,1,,,,,,,,
,,,,,,,,,,,,,FF,,,,,,,,1.8,,,,,,,,,,,,,,,,,,,,,,5f555cfc020a36015dd15a36,610378aa8aa60ca94ea087f3,2021-07-30_05h57.50.426,Simcolourproject_2stim_asymm_v5,2020.2.10,Win32,60,61025ae37ef11b136ea224fe,,,,,,,,,383,48,-71,1,0,0,response3disk,,4,-6,11,1,0,0,rectangle,-6,11,1,0,0,-6,11,1,0,0,0,119,119,71,1,,,,,,,,
,,,,,,,,,,,,,FF,,,,,,,,3.5,,,,,,,,,,,,,,,,,,,,,,5f555cfc020a36015dd15a36,610378aa8aa60ca94ea087f3,2021-07-30_05h57.50.426,Simcolourproject_2stim_asymm_v5,2020.2.10,Win32,60,61025ae37ef11b136ea224fe,,,,,,,,,1794,86,55,1,0,0,response1disk,,6,1,7,1,0,0,rectangle,1,7,1,0,0,1,7,1,0,0,0,120,120,122,1,,,,,,,,
,,,,,,,,,,,,,FF,,,,,,,,2.7,,,,,,,,,,,,,,,,,,,,,,5f555cfc020a36015dd15a36,610378aa8aa60ca94ea087f3,2021-07-30_05h57.50.426,Simcolourproject_2stim_asymm_v5,2020.2.10,Win32,60,61025ae37ef11b136ea224fe,,,,,,,,,608,35,-60,1,0,0,response3disk,,4,-5,6,1,0,0,rectangle,-5,6,1,0,0,-5,6,1,0,0,0,121,121,88,1,,,,,,,,
,,,,,,,,,,,,,FF,,,,,,,,4.5,,,,,,,,,,,,,,,,,,,,,,5f555cfc020a36015dd15a36,610378aa8aa60ca94ea087f3,2021-07-30_05h57.50.426,Simcolourproject_2stim_asymm_v5,2020.2.10,Win32,60,61025ae37ef11b136ea224fe,,,,,,,,,3494,-36,-75,1,0,0,response5disk,,3,0,0,1,0,0,rectangle,0,0,1,0,0,0,0,1,0,0,0,122,122,118,1,,,,,,,,
,,,,,,,,,,,,,FF,,,,,,,,3.8,,,,,,,,,,,,,,,,,,,,,,5f555cfc020a36015dd15a36,610378aa8aa60ca94ea087f3,2021-07-30_05h57.50.426,Simcolourproject_2stim_asymm_v5,2020.2.10,Win32,60,61025ae37ef11b136ea224fe,,,,,,,,,732,88,-45,1,0,0,response3disk,,5,2,5,1,0,0,rectangle,2,5,1,0,0,2,5,1,0,0,0,123,123,21,1,,,,,,,,
,,,,,,,,,,,,,FF,,,,,,,,3.134,,,,,,,,,,,,,,,,,,,,,,5f555cfc020a36015dd15a36,610378aa8aa60ca94ea087f3,2021-07-30_05h57.50.426,Simcolourproject_2stim_asymm_v5,2020.2.10,Win32,60,61025ae37ef11b136ea224fe,,,,,,,,,3386,-84,37,1,0,0,response7disk,,1,-15,-2,1,0,0,rectangle,-15,-2,1,0,0,-15,-2,1,0,0,0,124,124,145,1,,,,,,,,
,,,,,,,,,,,,,FF,,,,,,,,4.733,,,,,,,,,,,,,,,,,,,,,,5f555cfc020a36015dd15a36,610378aa8aa60ca94ea087f3,2021-07-30_05h57.50.426,Simcolourproject_2stim_asymm_v5,2020.2.10,Win32,60,61025ae37ef11b136ea224fe,,,,,,,,,2397,37,-76,1,0,0,response3disk,,4,-5,2,1,0,0,rectangle,-5,2,1,0,0,-5,2,1,0,0,0,125,125,67,1,,,,,,,,
,,,,,,,,,,,,,FF,,,,,,,,2.367,,,,,,,,,,,,,,,,,,,,,,5f555cfc020a36015dd15a36,610378aa8aa60ca94ea087f3,2021-07-30_05h57.50.426,Simcolourproject_2stim_asymm_v5,2020.2.10,Win32,60,61025ae37ef11b136ea224fe,,,,,,,,,4295,-75,42,1,0,0,response7disk,,1,1,-10,1,0,0,rectangle,1,-10,1,0,0,1,-10,1,0,0,0,126,126,41,1,,,,,,,,
,,,,,,,,,,,,,FF,,,,,,,,1.701,,,,,,,,,,,,,,,,,,,,,,5f555cfc020a36015dd15a36,610378aa8aa60ca94ea087f3,2021-07-30_05h57.50.426,Simcolourproject_2stim_asymm_v5,2020.2.10,Win32,60,61025ae37ef11b136ea224fe,,,,,,,,,3631,-45,-77,1,0,0,response5disk,,3,1,0,1,0,0,rectangle,1,0,1,0,0,1,0,1,0,0,0,127,127,49,1,,,,,,,,
,,,,,,,,,,,,,FF,,,,,,,,2,,,,,,,,,,,,,,,,,,,,,,5f555cfc020a36015dd15a36,610378aa8aa60ca94ea087f3,2021-07-30_05h57.50.426,Simcolourproject_2stim_asymm_v5,2020.2.10,Win32,60,61025ae37ef11b136ea224fe,,,,,,,,,3533,92,40,1,0,0,response1disk,,6,-1,2,1,0,0,rectangle,-1,2,1,0,0,-1,2,1,0,0,0,128,128,66,1,,,,,,,,
,,,,,,,,,,,,,FF,,,,,,,,1.799,,,,,,,,,,,,,,,,,,,,,,5f555cfc020a36015dd15a36,610378aa8aa60ca94ea087f3,2021-07-30_05h57.50.426,Simcolourproject_2stim_asymm_v5,2020.2.10,Win32,60,61025ae37ef11b136ea224fe,,,,,,,,,3313,73,-39,1,0,0,response3disk,,5,3,-4,1,0,0,rectangle,3,-4,1,0,0,3,-4,1,0,0,0,129,129,157,1,,,,,,,,
,,,,,,,,,,,,,FF,,,,,,,,1.767,,,,,,,,,,,,,,,,,,,,,,5f555cfc020a36015dd15a36,610378aa8aa60ca94ea087f3,2021-07-30_05h57.50.426,Simcolourproject_2stim_asymm_v5,2020.2.10,Win32,60,61025ae37ef11b136ea224fe,,,,,,,,,683,-41,-71,1,0,0,response5disk,,3,1,5,1,0,0,rectangle,1,5,1,0,0,1,5,1,0,0,0,130,130,52,1,,,,,,,,
,,,,,,,,,,,,,FF,,,,,,,,2.866,,,,,,,,,,,,,,,,,,,,,,5f555cfc020a36015dd15a36,610378aa8aa60ca94ea087f3,2021-07-30_05h57.50.426,Simcolourproject_2stim_asymm_v5,2020.2.10,Win32,60,61025ae37ef11b136ea224fe,,,,,,,,,2369,-77,-48,1,0,0,response5disk,,2,-4,-1,1,0,0,rectangle,84,52,1,0,0,-6,1,1,0,0,0,131,131,149,1,,response1disk_3,TRUE,6,6,"[32,145,4,238,80,132,281,139,258,168,201,136,164,201,248,66,96,69,298,290]",2.266,rectangle
,,,,,,,,,,,,,FF,,,,,,,,3.802,,,,,,,,,,,,,,,,,,,,,,5f555cfc020a36015dd15a36,610378aa8aa60ca94ea087f3,2021-07-30_05h57.50.426,Simcolourproject_2stim_asymm_v5,2020.2.10,Win32,60,61025ae37ef11b136ea224fe,,,,,,,,,2677,-43,-99,1,0,0,response5disk,,3,-11,4,1,0,0,rectangle,-11,4,1,0,0,-11,4,1,0,0,0,132,132,104,1,,,,,,,,
,,,,,,,,,,,,,FF,,,,,,,,5.6,,,,,,,,,,,,,,,,,,,,,,5f555cfc020a36015dd15a36,610378aa8aa60ca94ea087f3,2021-07-30_05h57.50.426,Simcolourproject_2stim_asymm_v5,2020.2.10,Win32,60,61025ae37ef11b136ea224fe,,,,,,,,,657,93,-44,1,0,0,response3disk,,5,-5,-2,1,0,0,rectangle,-5,-2,1,0,0,-5,-2,1,0,0,0,133,133,53,1,,,,,,,,
,,,,,,,,,,,,,FF,,,,,,,,2.167,,,,,,,,,,,,,,,,,,,,,,5f555cfc020a36015dd15a36,610378aa8aa60ca94ea087f3,2021-07-30_05h57.50.426,Simcolourproject_2stim_asymm_v5,2020.2.10,Win32,60,61025ae37ef11b136ea224fe,,,,,,,,,2011,82,-59,1,0,0,response3disk,,5,7,3,1,0,0,rectangle,7,3,1,0,0,7,3,1,0,0,0,134,134,44,1,,,,,,,,
,,,,,,,,,,,,,FF,,,,,,,,3.268,,,,,,,,,,,,,,,,,,,,,,5f555cfc020a36015dd15a36,610378aa8aa60ca94ea087f3,2021-07-30_05h57.50.426,Simcolourproject_2stim_asymm_v5,2020.2.10,Win32,60,61025ae37ef11b136ea224fe,,,,,,,,,895,-40,-73,1,0,0,response5disk,,3,-10,-2,1,0,0,rectangle,35,78,1,0,0,7,-1,1,0,0,0,135,135,107,1,,response1disk_3,TRUE,7,7,"[32,145,4,238,80,132,281,139,258,168,201,136,164,201,248,66,96,69,298,290]",2.134,rectangle
,,,,,,,,,,,,,FF,,,,,,,,2.567,,,,,,,,,,,,,,,,,,,,,,5f555cfc020a36015dd15a36,610378aa8aa60ca94ea087f3,2021-07-30_05h57.50.426,Simcolourproject_2stim_asymm_v5,2020.2.10,Win32,60,61025ae37ef11b136ea224fe,,,,,,,,,379,64,-35,1,0,0,response3disk,,5,6,1,1,0,0,rectangle,6,1,1,0,0,6,1,1,0,0,0,136,136,34,1,,,,,,,,
,,,,,,,,,,,,,FF,,,,,,,,2.3,,,,,,,,,,,,,,,,,,,,,,5f555cfc020a36015dd15a36,610378aa8aa60ca94ea087f3,2021-07-30_05h57.50.426,Simcolourproject_2stim_asymm_v5,2020.2.10,Win32,60,61025ae37ef11b136ea224fe,,,,,,,,,215,31,-91,1,0,0,response3disk,,4,-8,-3,1,0,0,rectangle,-8,-3,1,0,0,-8,-3,1,0,0,0,137,137,98,1,,,,,,,,
,,,,,,,,,,,,,FF,,,,,,,,1,,,,,,,,,,,,,,,,,,,,,,5f555cfc020a36015dd15a36,610378aa8aa60ca94ea087f3,2021-07-30_05h57.50.426,Simcolourproject_2stim_asymm_v5,2020.2.10,Win32,60,61025ae37ef11b136ea224fe,,,,,,,,,3843,-39,83,1,0,0,response7disk,,0,-7,0,1,0,0,rectangle,-52,-97,1,0,0,-4,2,1,0,0,0,138,138,156,1,,response5disk_3,TRUE,3,3,"[32,145,4,238,80,132,281,139,258,168,201,136,164,201,248,66,96,69,298,290]",2.1,rectangle
,,,,,,,,,,,,,FF,,,,,,,,1.467,,,,,,,,,,,,,,,,,,,,,,5f555cfc020a36015dd15a36,610378aa8aa60ca94ea087f3,2021-07-30_05h57.50.426,Simcolourproject_2stim_asymm_v5,2020.2.10,Win32,60,61025ae37ef11b136ea224fe,,,,,,,,,2909,-36,-62,1,0,0,response5disk,,3,-13,2,1,0,0,rectangle,-13,2,1,0,0,-13,2,1,0,0,0,139,139,101,1,,,,,,,,
,,,,,,,,,,,,,FF,,,,,,,,1.6,,,,,,,,,,,,,,,,,,,,,,5f555cfc020a36015dd15a36,610378aa8aa60ca94ea087f3,2021-07-30_05h57.50.426,Simcolourproject_2stim_asymm_v5,2020.2.10,Win32,60,61025ae37ef11b136ea224fe,,,,,,,,,1234,22,-84,1,0,0,response3disk,,4,3,-1,1,0,0,rectangle,3,-1,1,0,0,3,-1,1,0,0,0,140,140,108,1,,,,,,,,
,,,,,,,,,,,,,FF,,,,,,,,1.034,,,,,,,,,,,,,,,,,,,,,,5f555cfc020a36015dd15a36,610378aa8aa60ca94ea087f3,2021-07-30_05h57.50.426,Simcolourproject_2stim_asymm_v5,2020.2.10,Win32,60,61025ae37ef11b136ea224fe,,,,,,,,,2893,-57,30,1,0,0,response7disk,,1,3,-10,1,0,0,rectangle,3,-10,1,0,0,3,-10,1,0,0,0,141,141,155,1,,,,,,,,
,,,,,,,,,,,,,FF,,,,,,,,1.1,,,,,,,,,,,,,,,,,,,,,,5f555cfc020a36015dd15a36,610378aa8aa60ca94ea087f3,2021-07-30_05h57.50.426,Simcolourproject_2stim_asymm_v5,2020.2.10,Win32,60,61025ae37ef11b136ea224fe,,,,,,,,,1562,59,27,1,0,0,response1disk,,6,-11,-2,1,0,0,rectangle,-11,-2,1,0,0,-11,-2,1,0,0,0,142,142,90,1,,,,,,,,
,,,,,,,,,,,,,FF,,,,,,,,2.299,,,,,,,,,,,,,,,,,,,,,,5f555cfc020a36015dd15a36,610378aa8aa60ca94ea087f3,2021-07-30_05h57.50.426,Simcolourproject_2stim_asymm_v5,2020.2.10,Win32,60,61025ae37ef11b136ea224fe,,,,,,,,,160,23,-78,1,0,0,response3disk,,4,4,2,1,0,0,rectangle,4,2,1,0,0,4,2,1,0,0,0,143,143,146,1,,,,,,,,
,,,,,,,,,,,,,FF,,,,,,,,1.133,,,,,,,,,,,,,,,,,,,,,,5f555cfc020a36015dd15a36,610378aa8aa60ca94ea087f3,2021-07-30_05h57.50.426,Simcolourproject_2stim_asymm_v5,2020.2.10,Win32,60,61025ae37ef11b136ea224fe,,,,,,,,,1445,-39,59,1,0,0,response7disk,,0,-17,-6,1,0,0,rectangle,-77,45,1,0,0,0,1,1,0,0,0,144,144,106,1,,response7disk_3,TRUE,1,1,"[32,145,4,238,80,132,281,139,258,168,201,136,164,201,248,66,96,69,298,290]",2.434,rectangle
,,,,,,,,,,,,,FF,,,,,,,,1.134,,,,,,,,,,,,,,,,,,,,,,5f555cfc020a36015dd15a36,610378aa8aa60ca94ea087f3,2021-07-30_05h57.50.426,Simcolourproject_2stim_asymm_v5,2020.2.10,Win32,60,61025ae37ef11b136ea224fe,,,,,,,,,2784,-69,38,1,0,0,response7disk,,1,-10,-3,1,0,0,rectangle,-10,-3,1,0,0,-10,-3,1,0,0,0,145,145,42,1,,,,,,,,
,,,,,,,,,,,,,FF,,,,,,,,1.7,,,,,,,,,,,,,,,,,,,,,,5f555cfc020a36015dd15a36,610378aa8aa60ca94ea087f3,2021-07-30_05h57.50.426,Simcolourproject_2stim_asymm_v5,2020.2.10,Win32,60,61025ae37ef11b136ea224fe,,,,,,,,,2029,-64,33,1,0,0,response7disk,,1,-4,2,1,0,0,rectangle,-4,2,1,0,0,-4,2,1,0,0,0,146,146,131,1,,,,,,,,
,,,,,,,,,,,,,FF,,,,,,,,2.266,,,,,,,,,,,,,,,,,,,,,,5f555cfc020a36015dd15a36,610378aa8aa60ca94ea087f3,2021-07-30_05h57.50.426,Simcolourproject_2stim_asymm_v5,2020.2.10,Win32,60,61025ae37ef11b136ea224fe,,,,,,,,,204,36,-65,1,0,0,response3disk,,4,-3,5,1,0,0,rectangle,-3,5,1,0,0,-3,5,1,0,0,0,147,147,48,1,,,,,,,,
,,,,,,,,,,,,,FF,,,,,,,,1.867,,,,,,,,,,,,,,,,,,,,,,5f555cfc020a36015dd15a36,610378aa8aa60ca94ea087f3,2021-07-30_05h57.50.426,Simcolourproject_2stim_asymm_v5,2020.2.10,Win32,60,61025ae37ef11b136ea224fe,,,,,,,,,2991,75,-33,1,0,0,response3disk,,5,3,3,1,0,0,rectangle,3,3,1,0,0,3,3,1,0,0,0,148,148,151,1,,,,,,,,
,,,,,,,,,,,,,FF,,,,,,,,1.734,,,,,,,,,,,,,,,,,,,,,,5f555cfc020a36015dd15a36,610378aa8aa60ca94ea087f3,2021-07-30_05h57.50.426,Simcolourproject_2stim_asymm_v5,2020.2.10,Win32,60,61025ae37ef11b136ea224fe,,,,,,,,,1080,89,45,1,0,0,response1disk,,6,6,9,1,0,0,rectangle,6,9,1,0,0,6,9,1,0,0,0,149,149,125,1,,,,,,,,
,,,,,,,,,,,,,FF,,,,,,,,1.134,,,,,,,,,,,,,,,,,,,,,,5f555cfc020a36015dd15a36,610378aa8aa60ca94ea087f3,2021-07-30_05h57.50.426,Simcolourproject_2stim_asymm_v5,2020.2.10,Win32,60,61025ae37ef11b136ea224fe,,,,,,,,,356,-77,-38,1,0,0,response5disk,,2,9,2,1,0,0,rectangle,9,2,1,0,0,9,2,1,0,0,0,150,150,15,1,,,,,,,,
,,,,,,,,,,,,,FF,,,,,,,,1.067,,,,,,,,,,,,,,,,,,,,,,5f555cfc020a36015dd15a36,610378aa8aa60ca94ea087f3,2021-07-30_05h57.50.426,Simcolourproject_2stim_asymm_v5,2020.2.10,Win32,60,61025ae37ef11b136ea224fe,,,,,,,,,266,-26,-57,1,0,0,response5disk,,3,-1,2,1,0,0,rectangle,-1,2,1,0,0,-1,2,1,0,0,0,151,151,119,1,,,,,,,,
,,,,,,,,,,,,,FF,,,,,,,,0.999,,,,,,,,,,,,,,,,,,,,,,5f555cfc020a36015dd15a36,610378aa8aa60ca94ea087f3,2021-07-30_05h57.50.426,Simcolourproject_2stim_asymm_v5,2020.2.10,Win32,60,61025ae37ef11b136ea224fe,,,,,,,,,2160,-26,57,1,0,0,response7disk,,0,-5,-3,1,0,0,rectangle,-5,-3,1,0,0,-5,-3,1,0,0,0,152,152,133,1,,,,,,,,
,,,,,,,,,,,,,FF,,,,,,,,2.567,,,,,,,,,,,,,,,,,,,,,,5f555cfc020a36015dd15a36,610378aa8aa60ca94ea087f3,2021-07-30_05h57.50.426,Simcolourproject_2stim_asymm_v5,2020.2.10,Win32,60,61025ae37ef11b136ea224fe,,,,,,,,,1136,-70,-48,1,0,0,response5disk,,2,-14,-1,1,0,0,rectangle,-14,-1,1,0,0,-14,-1,1,0,0,0,153,153,148,1,,,,,,,,
,,,,,,,,,,,,,FF,,,,,,,,1.9,,,,,,,,,,,,,,,,,,,,,,5f555cfc020a36015dd15a36,610378aa8aa60ca94ea087f3,2021-07-30_05h57.50.426,Simcolourproject_2stim_asymm_v5,2020.2.10,Win32,60,61025ae37ef11b136ea224fe,,,,,,,,,2282,82,40,1,0,0,response1disk,,6,2,-1,1,0,0,rectangle,2,-1,1,0,0,2,-1,1,0,0,0,154,154,6,1,,,,,,,,
,,,,,,,,,,,,,FF,,,,,,,,1.634,,,,,,,,,,,,,,,,,,,,,,5f555cfc020a36015dd15a36,610378aa8aa60ca94ea087f3,2021-07-30_05h57.50.426,Simcolourproject_2stim_asymm_v5,2020.2.10,Win32,60,61025ae37ef11b136ea224fe,,,,,,,,,289,31,-68,1,0,0,response3disk,,4,-6,3,1,0,0,rectangle,-6,3,1,0,0,-6,3,1,0,0,0,155,155,38,1,,,,,,,,
,,,,,,,,,,,,,FF,,,,,,,,0.967,,,,,,,,,,,,,,,,,,,,,,5f555cfc020a36015dd15a36,610378aa8aa60ca94ea087f3,2021-07-30_05h57.50.426,Simcolourproject_2stim_asymm_v5,2020.2.10,Win32,60,61025ae37ef11b136ea224fe,,,,,,,,,2902,-28,-56,1,0,0,response5disk,,3,-4,-4,1,0,0,rectangle,-4,-4,1,0,0,-4,-4,1,0,0,0,156,156,87,1,,,,,,,,
,,,,,,,,,,,,,FF,,,,,,,,1.4,,,,,,,,,,,,,,,,,,,,,,5f555cfc020a36015dd15a36,610378aa8aa60ca94ea087f3,2021-07-30_05h57.50.426,Simcolourproject_2stim_asymm_v5,2020.2.10,Win32,60,61025ae37ef11b136ea224fe,,,,,,,,,967,74,45,1,0,0,response1disk,,6,-7,0,1,0,0,rectangle,-7,0,1,0,0,-7,0,1,0,0,0,157,157,0,1,,,,,,,,
,,,,,,,,,,,,,FF,,,,,,,,1.967,,,,,,,,,,,,,,,,,,,,,,5f555cfc020a36015dd15a36,610378aa8aa60ca94ea087f3,2021-07-30_05h57.50.426,Simcolourproject_2stim_asymm_v5,2020.2.10,Win32,60,61025ae37ef11b136ea224fe,,,,,,,,,1843,44,80,1,0,0,response1disk,,7,-16,0,1,0,0,rectangle,-16,0,1,0,0,-16,0,1,0,0,0,158,158,72,1,,,,,,,,
,,,,,,,,,,,,,FF,,,,,,,,2.666,,,,,,,,,,,,,,,,,,,,,,5f555cfc020a36015dd15a36,610378aa8aa60ca94ea087f3,2021-07-30_05h57.50.426,Simcolourproject_2stim_asymm_v5,2020.2.10,Win32,60,61025ae37ef11b136ea224fe,,,,,,,,,1304,29,-84,1,0,0,response3disk,,4,-7,3,1,0,0,rectangle,-7,3,1,0,0,-7,3,1,0,0,0,159,159,20,1,,,,,,,,
,,,,,,,,,,,,,FF,,,,,,,,1.067,,,,,,,,,,,,,,,,,,,,,,5f555cfc020a36015dd15a36,610378aa8aa60ca94ea087f3,2021-07-30_05h57.50.426,Simcolourproject_2stim_asymm_v5,2020.2.10,Win32,60,61025ae37ef11b136ea224fe,,,,,,,,,1288,-40,-61,1,0,0,response5disk,,3,-7,1,1,0,0,rectangle,-7,1,1,0,0,-7,1,1,0,0,1,0,160,24,1,,,,,,,,
,,,,,,,,,,,,,FF,,,,,,,,1.6,,,,,,,,,,,,,,,,,,,,,,5f555cfc020a36015dd15a36,610378aa8aa60ca94ea087f3,2021-07-30_05h57.50.426,Simcolourproject_2stim_asymm_v5,2020.2.10,Win32,60,61025ae37ef11b136ea224fe,,,,,,,,,704,-48,-63,1,0,0,response5disk,,3,-7,-4,1,0,0,rectangle,-7,-4,1,0,0,-7,-4,1,0,0,1,1,161,49,1,,,,,,,,
,,,,,,,,,,,,,FF,,,,,,,,1.532,,,,,,,,,,,,,,,,,,,,,,5f555cfc020a36015dd15a36,610378aa8aa60ca94ea087f3,2021-07-30_05h57.50.426,Simcolourproject_2stim_asymm_v5,2020.2.10,Win32,60,61025ae37ef11b136ea224fe,,,,,,,,,1006,42,-61,1,0,0,response3disk,,4,-2,10,1,0,0,rectangle,-2,10,1,0,0,-2,10,1,0,0,1,2,162,130,1,,,,,,,,
,,,,,,,,,,,,,FF,,,,,,,,2.467,,,,,,,,,,,,,,,,,,,,,,5f555cfc020a36015dd15a36,610378aa8aa60ca94ea087f3,2021-07-30_05h57.50.426,Simcolourproject_2stim_asymm_v5,2020.2.10,Win32,60,61025ae37ef11b136ea224fe,,,,,,,,,1515,44,-59,1,0,0,response3disk,,4,-11,2,1,0,0,rectangle,92,43,1,0,0,8,-1,1,0,0,1,3,163,65,1,,response1disk_3,TRUE,6,6,"[32,145,4,238,80,132,281,139,258,168,201,136,164,201,248,66,96,69,298,290]",1.866,rectangle
,,,,,,,,,,,,,FF,,,,,,,,3.933,,,,,,,,,,,,,,,,,,,,,,5f555cfc020a36015dd15a36,610378aa8aa60ca94ea087f3,2021-07-30_05h57.50.426,Simcolourproject_2stim_asymm_v5,2020.2.10,Win32,60,61025ae37ef11b136ea224fe,,,,,,,,,926,68,-39,1,0,0,response3disk,,5,-8,0,1,0,0,rectangle,-8,0,1,0,0,-8,0,1,0,0,1,4,164,1,1,,,,,,,,
,,,,,,,,,,,,,FF,,,,,,,,1.9,,,,,,,,,,,,,,,,,,,,,,5f555cfc020a36015dd15a36,610378aa8aa60ca94ea087f3,2021-07-30_05h57.50.426,Simcolourproject_2stim_asymm_v5,2020.2.10,Win32,60,61025ae37ef11b136ea224fe,,,,,,,,,4207,-59,38,1,0,0,response7disk,,1,6,2,1,0,0,rectangle,6,2,1,0,0,6,2,1,0,0,1,5,165,139,1,,,,,,,,
,,,,,,,,,,,,,FF,,,,,,,,1.9,,,,,,,,,,,,,,,,,,,,,,5f555cfc020a36015dd15a36,610378aa8aa60ca94ea087f3,2021-07-30_05h57.50.426,Simcolourproject_2stim_asymm_v5,2020.2.10,Win32,60,61025ae37ef11b136ea224fe,,,,,,,,,1919,77,35,1,0,0,response1disk,,6,1,-3,1,0,0,rectangle,1,-3,1,0,0,1,-3,1,0,0,1,6,166,98,1,,,,,,,,
,,,,,,,,,,,,,FF,,,,,,,,3.134,,,,,,,,,,,,,,,,,,,,,,5f555cfc020a36015dd15a36,610378aa8aa60ca94ea087f3,2021-07-30_05h57.50.426,Simcolourproject_2stim_asymm_v5,2020.2.10,Win32,60,61025ae37ef11b136ea224fe,,,,,,,,,3021,95,-46,1,0,0,response3disk,,5,6,3,1,0,0,rectangle,-91,50,1,0,0,0,3,1,0,0,1,7,167,156,1,,response7disk_3,TRUE,1,1,"[32,145,4,238,80,132,281,139,258,168,201,136,164,201,248,66,96,69,298,290]",1.7,rectangle
,,,,,,,,,,,,,FF,,,,,,,,2.634,,,,,,,,,,,,,,,,,,,,,,5f555cfc020a36015dd15a36,610378aa8aa60ca94ea087f3,2021-07-30_05h57.50.426,Simcolourproject_2stim_asymm_v5,2020.2.10,Win32,60,61025ae37ef11b136ea224fe,,,,,,,,,3332,-62,-36,1,0,0,response5disk,,2,3,1,1,0,0,rectangle,3,1,1,0,0,3,1,1,0,0,1,8,168,30,1,,,,,,,,
,,,,,,,,,,,,,FF,,,,,,,,1.966,,,,,,,,,,,,,,,,,,,,,,5f555cfc020a36015dd15a36,610378aa8aa60ca94ea087f3,2021-07-30_05h57.50.426,Simcolourproject_2stim_asymm_v5,2020.2.10,Win32,60,61025ae37ef11b136ea224fe,,,,,,,,,2674,-33,-78,1,0,0,response5disk,,3,-9,4,1,0,0,rectangle,-9,4,1,0,0,-9,4,1,0,0,1,9,169,19,1,,,,,,,,
,,,,,,,,,,,,,FF,,,,,,,,1.168,,,,,,,,,,,,,,,,,,,,,,5f555cfc020a36015dd15a36,610378aa8aa60ca94ea087f3,2021-07-30_05h57.50.426,Simcolourproject_2stim_asymm_v5,2020.2.10,Win32,60,61025ae37ef11b136ea224fe,,,,,,,,,1553,31,-66,1,0,0,response3disk,,4,5,12,1,0,0,rectangle,5,12,1,0,0,5,12,1,0,0,1,10,170,48,1,,,,,,,,
,,,,,,,,,,,,,FF,,,,,,,,2.234,,,,,,,,,,,,,,,,,,,,,,5f555cfc020a36015dd15a36,610378aa8aa60ca94ea087f3,2021-07-30_05h57.50.426,Simcolourproject_2stim_asymm_v5,2020.2.10,Win32,60,61025ae37ef11b136ea224fe,,,,,,,,,1348,89,47,1,0,0,response1disk,,6,-6,2,1,0,0,rectangle,-6,2,1,0,0,-6,2,1,0,0,1,11,171,82,1,,,,,,,,
,,,,,,,,,,,,,FF,,,,,,,,1.5,,,,,,,,,,,,,,,,,,,,,,5f555cfc020a36015dd15a36,610378aa8aa60ca94ea087f3,2021-07-30_05h57.50.426,Simcolourproject_2stim_asymm_v5,2020.2.10,Win32,60,61025ae37ef11b136ea224fe,,,,,,,,,3396,-35,-87,1,0,0,response5disk,,3,-1,7,1,0,0,rectangle,-1,7,1,0,0,-1,7,1,0,0,1,12,172,99,1,,,,,,,,
,,,,,,,,,,,,,FF,,,,,,,,2.066,,,,,,,,,,,,,,,,,,,,,,5f555cfc020a36015dd15a36,610378aa8aa60ca94ea087f3,2021-07-30_05h57.50.426,Simcolourproject_2stim_asymm_v5,2020.2.10,Win32,60,61025ae37ef11b136ea224fe,,,,,,,,,3770,38,-70,1,0,0,response3disk,,4,8,4,1,0,0,rectangle,8,4,1,0,0,8,4,1,0,0,1,13,173,110,1,,,,,,,,
,,,,,,,,,,,,,FF,,,,,,,,2.3,,,,,,,,,,,,,,,,,,,,,,5f555cfc020a36015dd15a36,610378aa8aa60ca94ea087f3,2021-07-30_05h57.50.426,Simcolourproject_2stim_asymm_v5,2020.2.10,Win32,60,61025ae37ef11b136ea224fe,,,,,,,,,2919,89,41,1,0,0,response1disk,,6,-15,0,1,0,0,rectangle,-15,0,1,0,0,-15,0,1,0,0,1,14,174,118,1,,,,,,,,
,,,,,,,,,,,,,FF,,,,,,,,1.1,,,,,,,,,,,,,,,,,,,,,,5f555cfc020a36015dd15a36,610378aa8aa60ca94ea087f3,2021-07-30_05h57.50.426,Simcolourproject_2stim_asymm_v5,2020.2.10,Win32,60,61025ae37ef11b136ea224fe,,,,,,,,,702,-52,-28,1,0,0,response5disk,,2,-8,-1,1,0,0,rectangle,-8,-1,1,0,0,-8,-1,1,0,0,1,15,175,15,1,,,,,,,,
,,,,,,,,,,,,,FF,,,,,,,,1.267,,,,,,,,,,,,,,,,,,,,,,5f555cfc020a36015dd15a36,610378aa8aa60ca94ea087f3,2021-07-30_05h57.50.426,Simcolourproject_2stim_asymm_v5,2020.2.10,Win32,60,61025ae37ef11b136ea224fe,,,,,,,,,2267,79,40,1,0,0,response1disk,,6,-4,-7,1,0,0,rectangle,-4,-7,1,0,0,-4,-7,1,0,0,1,16,176,108,1,,,,,,,,
,,,,,,,,,,,,,FF,,,,,,,,1.632,,,,,,,,,,,,,,,,,,,,,,5f555cfc020a36015dd15a36,610378aa8aa60ca94ea087f3,2021-07-30_05h57.50.426,Simcolourproject_2stim_asymm_v5,2020.2.10,Win32,60,61025ae37ef11b136ea224fe,,,,,,,,,1377,-59,-79,1,0,0,response5disk,,3,16,13,1,0,0,rectangle,16,13,1,0,0,16,13,1,0,0,1,17,177,61,1,,,,,,,,
,,,,,,,,,,,,,FF,,,,,,,,2.366,,,,,,,,,,,,,,,,,,,,,,5f555cfc020a36015dd15a36,610378aa8aa60ca94ea087f3,2021-07-30_05h57.50.426,Simcolourproject_2stim_asymm_v5,2020.2.10,Win32,60,61025ae37ef11b136ea224fe,,,,,,,,,3682,44,-75,1,0,0,response3disk,,4,2,14,1,0,0,rectangle,2,14,1,0,0,2,14,1,0,0,1,18,178,95,1,,,,,,,,
,,,,,,,,,,,,,FF,,,,,,,,1.6,,,,,,,,,,,,,,,,,,,,,,5f555cfc020a36015dd15a36,610378aa8aa60ca94ea087f3,2021-07-30_05h57.50.426,Simcolourproject_2stim_asymm_v5,2020.2.10,Win32,60,61025ae37ef11b136ea224fe,,,,,,,,,1535,-68,29,1,0,0,response7disk,,1,-1,-7,1,0,0,rectangle,-1,-7,1,0,0,-1,-7,1,0,0,1,19,179,125,1,,,,,,,,
,,,,,,,,,,,,,FF,,,,,,,,1.9,,,,,,,,,,,,,,,,,,,,,,5f555cfc020a36015dd15a36,610378aa8aa60ca94ea087f3,2021-07-30_05h57.50.426,Simcolourproject_2stim_asymm_v5,2020.2.10,Win32,60,61025ae37ef11b136ea224fe,,,,,,,,,3217,77,-48,1,0,0,response3disk,,5,11,11,1,0,0,rectangle,11,11,1,0,0,11,11,1,0,0,1,20,180,73,1,,,,,,,,
,,,,,,,,,,,,,FF,,,,,,,,1.2,,,,,,,,,,,,,,,,,,,,,,5f555cfc020a36015dd15a36,610378aa8aa60ca94ea087f3,2021-07-30_05h57.50.426,Simcolourproject_2stim_asymm_v5,2020.2.10,Win32,60,61025ae37ef11b136ea224fe,,,,,,,,,3723,42,69,1,0,0,response1disk,,7,10,-6,1,0,0,rectangle,10,-6,1,0,0,10,-6,1,0,0,1,21,181,87,1,,,,,,,,
,,,,,,,,,,,,,FF,,,,,,,,1.2,,,,,,,,,,,,,,,,,,,,,,5f555cfc020a36015dd15a36,610378aa8aa60ca94ea087f3,2021-07-30_05h57.50.426,Simcolourproject_2stim_asymm_v5,2020.2.10,Win32,60,61025ae37ef11b136ea224fe,,,,,,,,,455,-39,72,1,0,0,response7disk,,0,-4,2,1,0,0,rectangle,-4,2,1,0,0,-4,2,1,0,0,1,22,182,60,1,,,,,,,,
,,,,,,,,,,,,,FF,,,,,,,,2.834,,,,,,,,,,,,,,,,,,,,,,5f555cfc020a36015dd15a36,610378aa8aa60ca94ea087f3,2021-07-30_05h57.50.426,Simcolourproject_2stim_asymm_v5,2020.2.10,Win32,60,61025ae37ef11b136ea224fe,,,,,,,,,625,34,-69,1,0,0,response3disk,,4,-2,3,1,0,0,rectangle,-2,3,1,0,0,-2,3,1,0,0,1,23,183,158,1,,,,,,,,
,,,,,,,,,,,,,FF,,,,,,,,1.166,,,,,,,,,,,,,,,,,,,,,,5f555cfc020a36015dd15a36,610378aa8aa60ca94ea087f3,2021-07-30_05h57.50.426,Simcolourproject_2stim_asymm_v5,2020.2.10,Win32,60,61025ae37ef11b136ea224fe,,,,,,,,,365,55,26,1,0,0,response1disk,,6,-2,-3,1,0,0,rectangle,-2,-3,1,0,0,-2,-3,1,0,0,1,24,184,26,1,,,,,,,,
,,,,,,,,,,,,,FF,,,,,,,,1.133,,,,,,,,,,,,,,,,,,,,,,5f555cfc020a36015dd15a36,610378aa8aa60ca94ea087f3,2021-07-30_05h57.50.426,Simcolourproject_2stim_asymm_v5,2020.2.10,Win32,60,61025ae37ef11b136ea224fe,,,,,,,,,2317,79,34,1,0,0,response1disk,,6,0,-2,1,0,0,rectangle,0,-2,1,0,0,0,-2,1,0,0,1,25,185,106,1,,,,,,,,
,,,,,,,,,,,,,FF,,,,,,,,2.801,,,,,,,,,,,,,,,,,,,,,,5f555cfc020a36015dd15a36,610378aa8aa60ca94ea087f3,2021-07-30_05h57.50.426,Simcolourproject_2stim_asymm_v5,2020.2.10,Win32,60,61025ae37ef11b136ea224fe,,,,,,,,,1495,65,-27,1,0,0,response3disk,,5,6,-4,1,0,0,rectangle,6,-4,1,0,0,6,-4,1,0,0,1,26,186,41,1,,,,,,,,
,,,,,,,,,,,,,FF,,,,,,,,3.534,,,,,,,,,,,,,,,,,,,,,,5f555cfc020a36015dd15a36,610378aa8aa60ca94ea087f3,2021-07-30_05h57.50.426,Simcolourproject_2stim_asymm_v5,2020.2.10,Win32,60,61025ae37ef11b136ea224fe,,,,,,,,,3779,29,-69,1,0,0,response3disk,,4,-2,2,1,0,0,rectangle,-2,2,1,0,0,-2,2,1,0,0,1,27,187,23,1,,,,,,,,
,,,,,,,,,,,,,FF,,,,,,,,2.633,,,,,,,,,,,,,,,,,,,,,,5f555cfc020a36015dd15a36,610378aa8aa60ca94ea087f3,2021-07-30_05h57.50.426,Simcolourproject_2stim_asymm_v5,2020.2.10,Win32,60,61025ae37ef11b136ea224fe,,,,,,,,,1301,-44,-69,1,0,0,response5disk,,3,3,1,1,0,0,rectangle,3,1,1,0,0,3,1,1,0,0,1,28,188,31,1,,,,,,,,
,,,,,,,,,,,,,FF,,,,,,,,1.9,,,,,,,,,,,,,,,,,,,,,,5f555cfc020a36015dd15a36,610378aa8aa60ca94ea087f3,2021-07-30_05h57.50.426,Simcolourproject_2stim_asymm_v5,2020.2.10,Win32,60,61025ae37ef11b136ea224fe,,,,,,,,,1262,77,-45,1,0,0,response3disk,,5,7,3,1,0,0,rectangle,7,3,1,0,0,7,3,1,0,0,1,29,189,126,1,,,,,,,,
,,,,,,,,,,,,,FF,,,,,,,,1.367,,,,,,,,,,,,,,,,,,,,,,5f555cfc020a36015dd15a36,610378aa8aa60ca94ea087f3,2021-07-30_05h57.50.426,Simcolourproject_2stim_asymm_v5,2020.2.10,Win32,60,61025ae37ef11b136ea224fe,,,,,,,,,3445,59,28,1,0,0,response1disk,,6,4,1,1,0,0,rectangle,4,1,1,0,0,4,1,1,0,0,1,30,190,129,1,,,,,,,,
,,,,,,,,,,,,,FF,,,,,,,,1.8,,,,,,,,,,,,,,,,,,,,,,5f555cfc020a36015dd15a36,610378aa8aa60ca94ea087f3,2021-07-30_05h57.50.426,Simcolourproject_2stim_asymm_v5,2020.2.10,Win32,60,61025ae37ef11b136ea224fe,,,,,,,,,1732,79,34,1,0,0,response1disk,,6,2,-4,1,0,0,rectangle,2,-4,1,0,0,2,-4,1,0,0,1,31,191,123,1,,,,,,,,
,,,,,,,,,,,,,FF,,,,,,,,2.534,,,,,,,,,,,,,,,,,,,,,,5f555cfc020a36015dd15a36,610378aa8aa60ca94ea087f3,2021-07-30_05h57.50.426,Simcolourproject_2stim_asymm_v5,2020.2.10,Win32,60,61025ae37ef11b136ea224fe,,,,,,,,,1188,58,-89,1,0,0,response3disk,,4,-6,7,1,0,0,rectangle,-6,7,1,0,0,-6,7,1,0,0,1,32,192,79,1,,,,,,,,
,,,,,,,,,,,,,FF,,,,,,,,1.367,,,,,,,,,,,,,,,,,,,,,,5f555cfc020a36015dd15a36,610378aa8aa60ca94ea087f3,2021-07-30_05h57.50.426,Simcolourproject_2stim_asymm_v5,2020.2.10,Win32,60,61025ae37ef11b136ea224fe,,,,,,,,,3296,-55,-28,1,0,0,response5disk,,2,-4,-1,1,0,0,rectangle,-4,-1,1,0,0,-4,-1,1,0,0,1,33,193,35,1,,,,,,,,
,,,,,,,,,,,,,FF,,,,,,,,1.433,,,,,,,,,,,,,,,,,,,,,,5f555cfc020a36015dd15a36,610378aa8aa60ca94ea087f3,2021-07-30_05h57.50.426,Simcolourproject_2stim_asymm_v5,2020.2.10,Win32,60,61025ae37ef11b136ea224fe,,,,,,,,,3481,-36,-57,1,0,0,response5disk,,3,-3,2,1,0,0,rectangle,-3,2,1,0,0,-3,2,1,0,0,1,34,194,102,1,,,,,,,,
,,,,,,,,,,,,,FF,,,,,,,,1.434,,,,,,,,,,,,,,,,,,,,,,5f555cfc020a36015dd15a36,610378aa8aa60ca94ea087f3,2021-07-30_05h57.50.426,Simcolourproject_2stim_asymm_v5,2020.2.10,Win32,60,61025ae37ef11b136ea224fe,,,,,,,,,208,91,-33,1,0,0,response3disk,,5,5,4,1,0,0,rectangle,5,4,1,0,0,5,4,1,0,0,1,35,195,136,1,,,,,,,,
,,,,,,,,,,,,,FF,,,,,,,,2.032,,,,,,,,,,,,,,,,,,,,,,5f555cfc020a36015dd15a36,610378aa8aa60ca94ea087f3,2021-07-30_05h57.50.426,Simcolourproject_2stim_asymm_v5,2020.2.10,Win32,60,61025ae37ef11b136ea224fe,,,,,,,,,1779,95,-40,1,0,0,response3disk,,5,13,-2,1,0,0,rectangle,13,-2,1,0,0,13,-2,1,0,0,1,36,196,3,1,,,,,,,,
,,,,,,,,,,,,,FF,,,,,,,,1.1,,,,,,,,,,,,,,,,,,,,,,5f555cfc020a36015dd15a36,610378aa8aa60ca94ea087f3,2021-07-30_05h57.50.426,Simcolourproject_2stim_asymm_v5,2020.2.10,Win32,60,61025ae37ef11b136ea224fe,,,,,,,,,1542,74,44,1,0,0,response1disk,,6,13,-2,1,0,0,rectangle,13,-2,1,0,0,13,-2,1,0,0,1,37,197,100,1,,,,,,,,
,,,,,,,,,,,,,FF,,,,,,,,1.401,,,,,,,,,,,,,,,,,,,,,,5f555cfc020a36015dd15a36,610378aa8aa60ca94ea087f3,2021-07-30_05h57.50.426,Simcolourproject_2stim_asymm_v5,2020.2.10,Win32,60,61025ae37ef11b136ea224fe,,,,,,,,,2202,78,-38,1,0,0,response3disk,,5,11,1,1,0,0,rectangle,11,1,1,0,0,11,1,1,0,0,1,38,198,40,1,,,,,,,,
,,,,,,,,,,,,,FF,,,,,,,,2.834,,,,,,,,,,,,,,,,,,,,,,5f555cfc020a36015dd15a36,610378aa8aa60ca94ea087f3,2021-07-30_05h57.50.426,Simcolourproject_2stim_asymm_v5,2020.2.10,Win32,60,61025ae37ef11b136ea224fe,,,,,,,,,1046,74,-44,1,0,0,response3disk,,5,8,0,1,0,0,rectangle,8,0,1,0,0,8,0,1,0,0,1,39,199,127,1,,,,,,,,
,,,,,,,,,,,,,FF,,,,,,,,1,,,,,,,,,,,,,,,,,,,,,,5f555cfc020a36015dd15a36,610378aa8aa60ca94ea087f3,2021-07-30_05h57.50.426,Simcolourproject_2stim_asymm_v5,2020.2.10,Win32,60,61025ae37ef11b136ea224fe,,,,,,,,,1346,80,48,1,0,0,response1disk,,6,13,3,1,0,0,rectangle,-35,-88,1,0,0,8,1,1,0,0,1,40,200,145,1,,response5disk_3,TRUE,3,3,"[32,145,4,238,80,132,281,139,258,168,201,136,164,201,248,66,96,69,298,290]",2.567,rectangle
,,,,,,,,,,,,,FF,,,,,,,,2.567,,,,,,,,,,,,,,,,,,,,,,5f555cfc020a36015dd15a36,610378aa8aa60ca94ea087f3,2021-07-30_05h57.50.426,Simcolourproject_2stim_asymm_v5,2020.2.10,Win32,60,61025ae37ef11b136ea224fe,,,,,,,,,4288,78,37,1,0,0,response1disk,,6,16,3,1,0,0,rectangle,16,3,1,0,0,16,3,1,0,0,1,41,201,52,1,,,,,,,,
,,,,,,,,,,,,,FF,,,,,,,,4.9,,,,,,,,,,,,,,,,,,,,,,5f555cfc020a36015dd15a36,610378aa8aa60ca94ea087f3,2021-07-30_05h57.50.426,Simcolourproject_2stim_asymm_v5,2020.2.10,Win32,60,61025ae37ef11b136ea224fe,,,,,,,,,2272,91,-43,1,0,0,response3disk,,5,5,-4,1,0,0,rectangle,5,-4,1,0,0,5,-4,1,0,0,1,42,202,131,1,,,,,,,,
,,,,,,,,,,,,,FF,,,,,,,,1.633,,,,,,,,,,,,,,,,,,,,,,5f555cfc020a36015dd15a36,610378aa8aa60ca94ea087f3,2021-07-30_05h57.50.426,Simcolourproject_2stim_asymm_v5,2020.2.10,Win32,60,61025ae37ef11b136ea224fe,,,,,,,,,4289,59,35,1,0,0,response1disk,,6,-13,-4,1,0,0,rectangle,-13,-4,1,0,0,-13,-4,1,0,0,1,43,203,10,1,,,,,,,,
,,,,,,,,,,,,,FF,,,,,,,,1.499,,,,,,,,,,,,,,,,,,,,,,5f555cfc020a36015dd15a36,610378aa8aa60ca94ea087f3,2021-07-30_05h57.50.426,Simcolourproject_2stim_asymm_v5,2020.2.10,Win32,60,61025ae37ef11b136ea224fe,,,,,,,,,3416,48,85,1,0,0,response1disk,,7,4,-11,1,0,0,rectangle,4,-11,1,0,0,4,-11,1,0,0,1,44,204,149,1,,,,,,,,
,,,,,,,,,,,,,FF,,,,,,,,2.266,,,,,,,,,,,,,,,,,,,,,,5f555cfc020a36015dd15a36,610378aa8aa60ca94ea087f3,2021-07-30_05h57.50.426,Simcolourproject_2stim_asymm_v5,2020.2.10,Win32,60,61025ae37ef11b136ea224fe,,,,,,,,,1123,84,-39,1,0,0,response3disk,,5,15,3,1,0,0,rectangle,15,3,1,0,0,15,3,1,0,0,1,45,205,71,1,,,,,,,,
,,,,,,,,,,,,,FF,,,,,,,,2.032,,,,,,,,,,,,,,,,,,,,,,5f555cfc020a36015dd15a36,610378aa8aa60ca94ea087f3,2021-07-30_05h57.50.426,Simcolourproject_2stim_asymm_v5,2020.2.10,Win32,60,61025ae37ef11b136ea224fe,,,,,,,,,558,72,-32,1,0,0,response3disk,,5,-5,0,1,0,0,rectangle,-5,0,1,0,0,-5,0,1,0,0,1,46,206,119,1,,,,,,,,
,,,,,,,,,,,,,FF,,,,,,,,1.8,,,,,,,,,,,,,,,,,,,,,,5f555cfc020a36015dd15a36,610378aa8aa60ca94ea087f3,2021-07-30_05h57.50.426,Simcolourproject_2stim_asymm_v5,2020.2.10,Win32,60,61025ae37ef11b136ea224fe,,,,,,,,,4072,-42,-58,1,0,0,response5disk,,3,-1,-4,1,0,0,rectangle,-1,-4,1,0,0,-1,-4,1,0,0,1,47,207,38,1,,,,,,,,
,,,,,,,,,,,,,FF,,,,,,,,2.133,,,,,,,,,,,,,,,,,,,,,,5f555cfc020a36015dd15a36,610378aa8aa60ca94ea087f3,2021-07-30_05h57.50.426,Simcolourproject_2stim_asymm_v5,2020.2.10,Win32,60,61025ae37ef11b136ea224fe,,,,,,,,,2340,66,-36,1,0,0,response3disk,,5,-4,2,1,0,0,rectangle,-4,2,1,0,0,-4,2,1,0,0,1,48,208,67,1,,,,,,,,
,,,,,,,,,,,,,FF,,,,,,,,3.399,,,,,,,,,,,,,,,,,,,,,,5f555cfc020a36015dd15a36,610378aa8aa60ca94ea087f3,2021-07-30_05h57.50.426,Simcolourproject_2stim_asymm_v5,2020.2.10,Win32,60,61025ae37ef11b136ea224fe,,,,,,,,,17,60,-34,1,0,0,response3disk,,5,12,-2,1,0,0,rectangle,12,-2,1,0,0,12,-2,1,0,0,1,49,209,148,1,,,,,,,,
,,,,,,,,,,,,,FF,,,,,,,,1.467,,,,,,,,,,,,,,,,,,,,,,5f555cfc020a36015dd15a36,610378aa8aa60ca94ea087f3,2021-07-30_05h57.50.426,Simcolourproject_2stim_asymm_v5,2020.2.10,Win32,60,61025ae37ef11b136ea224fe,,,,,,,,,822,67,-41,1,0,0,response3disk,,5,7,7,1,0,0,rectangle,7,7,1,0,0,7,7,1,0,0,1,50,210,80,1,,,,,,,,
,,,,,,,,,,,,,FF,,,,,,,,1.334,,,,,,,,,,,,,,,,,,,,,,5f555cfc020a36015dd15a36,610378aa8aa60ca94ea087f3,2021-07-30_05h57.50.426,Simcolourproject_2stim_asymm_v5,2020.2.10,Win32,60,61025ae37ef11b136ea224fe,,,,,,,,,3298,-54,30,1,0,0,response7disk,,1,-3,1,1,0,0,rectangle,-3,1,1,0,0,-3,1,1,0,0,1,51,211,27,1,,,,,,,,
,,,,,,,,,,,,,FF,,,,,,,,2.533,,,,,,,,,,,,,,,,,,,,,,5f555cfc020a36015dd15a36,610378aa8aa60ca94ea087f3,2021-07-30_05h57.50.426,Simcolourproject_2stim_asymm_v5,2020.2.10,Win32,60,61025ae37ef11b136ea224fe,,,,,,,,,4286,79,31,1,0,0,response1disk,,6,-8,-1,1,0,0,rectangle,-8,-1,1,0,0,-8,-1,1,0,0,1,52,212,43,1,,,,,,,,
,,,,,,,,,,,,,FF,,,,,,,,1.533,,,,,,,,,,,,,,,,,,,,,,5f555cfc020a36015dd15a36,610378aa8aa60ca94ea087f3,2021-07-30_05h57.50.426,Simcolourproject_2stim_asymm_v5,2020.2.10,Win32,60,61025ae37ef11b136ea224fe,,,,,,,,,1948,39,-86,1,0,0,response3disk,,4,-5,1,1,0,0,rectangle,-5,1,1,0,0,-5,1,1,0,0,1,53,213,63,1,,,,,,,,
,,,,,,,,,,,,,FF,,,,,,,,2.001,,,,,,,,,,,,,,,,,,,,,,5f555cfc020a36015dd15a36,610378aa8aa60ca94ea087f3,2021-07-30_05h57.50.426,Simcolourproject_2stim_asymm_v5,2020.2.10,Win32,60,61025ae37ef11b136ea224fe,,,,,,,,,2382,75,41,1,0,0,response1disk,,6,-8,3,1,0,0,rectangle,-8,3,1,0,0,-8,3,1,0,0,1,54,214,135,1,,,,,,,,
,,,,,,,,,,,,,FF,,,,,,,,0.933,,,,,,,,,,,,,,,,,,,,,,5f555cfc020a36015dd15a36,610378aa8aa60ca94ea087f3,2021-07-30_05h57.50.426,Simcolourproject_2stim_asymm_v5,2020.2.10,Win32,60,61025ae37ef11b136ea224fe,,,,,,,,,2235,-77,41,1,0,0,response7disk,,1,4,-5,1,0,0,rectangle,4,-5,1,0,0,4,-5,1,0,0,1,55,215,12,1,,,,,,,,
,,,,,,,,,,,,,FF,,,,,,,,5.433,,,,,,,,,,,,,,,,,,,,,,5f555cfc020a36015dd15a36,610378aa8aa60ca94ea087f3,2021-07-30_05h57.50.426,Simcolourproject_2stim_asymm_v5,2020.2.10,Win32,60,61025ae37ef11b136ea224fe,,,,,,,,,4125,-29,-86,1,0,0,response5disk,,3,5,-3,1,0,0,rectangle,5,-3,1,0,0,5,-3,1,0,0,1,56,216,58,1,,,,,,,,
,,,,,,,,,,,,,FF,,,,,,,,1.834,,,,,,,,,,,,,,,,,,,,,,5f555cfc020a36015dd15a36,610378aa8aa60ca94ea087f3,2021-07-30_05h57.50.426,Simcolourproject_2stim_asymm_v5,2020.2.10,Win32,60,61025ae37ef11b136ea224fe,,,,,,,,,2881,-41,-92,1,0,0,response5disk,,3,-7,2,1,0,0,rectangle,-7,2,1,0,0,-7,2,1,0,0,1,57,217,91,1,,,,,,,,
,,,,,,,,,,,,,FF,,,,,,,,1.5,,,,,,,,,,,,,,,,,,,,,,5f555cfc020a36015dd15a36,610378aa8aa60ca94ea087f3,2021-07-30_05h57.50.426,Simcolourproject_2stim_asymm_v5,2020.2.10,Win32,60,61025ae37ef11b136ea224fe,,,,,,,,,2562,78,-35,1,0,0,response3disk,,5,3,7,1,0,0,rectangle,3,7,1,0,0,3,7,1,0,0,1,58,218,13,1,,,,,,,,
,,,,,,,,,,,,,FF,,,,,,,,1.401,,,,,,,,,,,,,,,,,,,,,,5f555cfc020a36015dd15a36,610378aa8aa60ca94ea087f3,2021-07-30_05h57.50.426,Simcolourproject_2stim_asymm_v5,2020.2.10,Win32,60,61025ae37ef11b136ea224fe,,,,,,,,,956,-75,-37,1,0,0,response5disk,,2,-1,3,1,0,0,rectangle,-1,3,1,0,0,-1,3,1,0,0,1,59,219,109,1,,,,,,,,
,,,,,,,,,,,,,FF,,,,,,,,1.101,,,,,,,,,,,,,,,,,,,,,,5f555cfc020a36015dd15a36,610378aa8aa60ca94ea087f3,2021-07-30_05h57.50.426,Simcolourproject_2stim_asymm_v5,2020.2.10,Win32,60,61025ae37ef11b136ea224fe,,,,,,,,,764,59,30,1,0,0,response1disk,,6,-17,-4,1,0,0,rectangle,-17,-4,1,0,0,-17,-4,1,0,0,1,60,220,44,1,,,,,,,,
,,,,,,,,,,,,,FF,,,,,,,,1.767,,,,,,,,,,,,,,,,,,,,,,5f555cfc020a36015dd15a36,610378aa8aa60ca94ea087f3,2021-07-30_05h57.50.426,Simcolourproject_2stim_asymm_v5,2020.2.10,Win32,60,61025ae37ef11b136ea224fe,,,,,,,,,1124,40,-95,1,0,0,response3disk,,4,-4,1,1,0,0,rectangle,-4,1,1,0,0,-4,1,1,0,0,1,61,221,75,1,,,,,,,,
,,,,,,,,,,,,,FF,,,,,,,,1.834,,,,,,,,,,,,,,,,,,,,,,5f555cfc020a36015dd15a36,610378aa8aa60ca94ea087f3,2021-07-30_05h57.50.426,Simcolourproject_2stim_asymm_v5,2020.2.10,Win32,60,61025ae37ef11b136ea224fe,,,,,,,,,3340,32,-62,1,0,0,response3disk,,4,10,14,1,0,0,rectangle,10,14,1,0,0,10,14,1,0,0,1,62,222,5,1,,,,,,,,
,,,,,,,,,,,,,FF,,,,,,,,1.466,,,,,,,,,,,,,,,,,,,,,,5f555cfc020a36015dd15a36,610378aa8aa60ca94ea087f3,2021-07-30_05h57.50.426,Simcolourproject_2stim_asymm_v5,2020.2.10,Win32,60,61025ae37ef11b136ea224fe,,,,,,,,,2998,-77,-30,1,0,0,response5disk,,2,0,1,1,0,0,rectangle,0,1,1,0,0,0,1,1,0,0,1,63,223,89,1,,,,,,,,
,,,,,,,,,,,,,FF,,,,,,,,1.267,,,,,,,,,,,,,,,,,,,,,,5f555cfc020a36015dd15a36,610378aa8aa60ca94ea087f3,2021-07-30_05h57.50.426,Simcolourproject_2stim_asymm_v5,2020.2.10,Win32,60,61025ae37ef11b136ea224fe,,,,,,,,,1000,35,-98,1,0,0,response3disk,,4,5,-5,1,0,0,rectangle,5,-5,1,0,0,5,-5,1,0,0,1,64,224,146,1,,,,,,,,
,,,,,,,,,,,,,FF,,,,,,,,2.6,,,,,,,,,,,,,,,,,,,,,,5f555cfc020a36015dd15a36,610378aa8aa60ca94ea087f3,2021-07-30_05h57.50.426,Simcolourproject_2stim_asymm_v5,2020.2.10,Win32,60,61025ae37ef11b136ea224fe,,,,,,,,,1907,42,-69,1,0,0,response3disk,,4,15,-7,1,0,0,rectangle,15,-7,1,0,0,15,-7,1,0,0,1,65,225,47,1,,,,,,,,
,,,,,,,,,,,,,FF,,,,,,,,4.435,,,,,,,,,,,,,,,,,,,,,,5f555cfc020a36015dd15a36,610378aa8aa60ca94ea087f3,2021-07-30_05h57.50.426,Simcolourproject_2stim_asymm_v5,2020.2.10,Win32,60,61025ae37ef11b136ea224fe,,,,,,,,,333,45,-81,1,0,0,response3disk,,4,1,-4,1,0,0,rectangle,1,-4,1,0,0,1,-4,1,0,0,1,66,226,116,1,,,,,,,,
,,,,,,,,,,,,,FF,,,,,,,,2.034,,,,,,,,,,,,,,,,,,,,,,5f555cfc020a36015dd15a36,610378aa8aa60ca94ea087f3,2021-07-30_05h57.50.426,Simcolourproject_2stim_asymm_v5,2020.2.10,Win32,60,61025ae37ef11b136ea224fe,,,,,,,,,4073,-49,-88,1,0,0,response5disk,,3,4,-7,1,0,0,rectangle,4,-7,1,0,0,4,-7,1,0,0,1,67,227,18,1,,,,,,,,
,,,,,,,,,,,,,FF,,,,,,,,1.601,,,,,,,,,,,,,,,,,,,,,,5f555cfc020a36015dd15a36,610378aa8aa60ca94ea087f3,2021-07-30_05h57.50.426,Simcolourproject_2stim_asymm_v5,2020.2.10,Win32,60,61025ae37ef11b136ea224fe,,,,,,,,,3725,83,-40,1,0,0,response3disk,,5,15,1,1,0,0,rectangle,15,1,1,0,0,15,1,1,0,0,1,68,228,103,1,,,,,,,,
,,,,,,,,,,,,,FF,,,,,,,,2.667,,,,,,,,,,,,,,,,,,,,,,5f555cfc020a36015dd15a36,610378aa8aa60ca94ea087f3,2021-07-30_05h57.50.426,Simcolourproject_2stim_asymm_v5,2020.2.10,Win32,60,61025ae37ef11b136ea224fe,,,,,,,,,1275,25,-89,1,0,0,response3disk,,4,6,4,1,0,0,rectangle,6,4,1,0,0,6,4,1,0,0,1,69,229,111,1,,,,,,,,
,,,,,,,,,,,,,FF,,,,,,,,5,,,,,,,,,,,,,,,,,,,,,,5f555cfc020a36015dd15a36,610378aa8aa60ca94ea087f3,2021-07-30_05h57.50.426,Simcolourproject_2stim_asymm_v5,2020.2.10,Win32,60,61025ae37ef11b136ea224fe,,,,,,,,,3545,36,-99,1,0,0,response3disk,,4,8,-1,1,0,0,rectangle,8,-1,1,0,0,8,-1,1,0,0,1,70,230,55,1,,,,,,,,
,,,,,,,,,,,,,FF,,,,,,,,1.534,,,,,,,,,,,,,,,,,,,,,,5f555cfc020a36015dd15a36,610378aa8aa60ca94ea087f3,2021-07-30_05h57.50.426,Simcolourproject_2stim_asymm_v5,2020.2.10,Win32,60,61025ae37ef11b136ea224fe,,,,,,,,,3409,83,-32,1,0,0,response3disk,,5,18,1,1,0,0,rectangle,18,1,1,0,0,18,1,1,0,0,1,71,231,70,1,,,,,,,,
,,,,,,,,,,,,,FF,,,,,,,,1.134,,,,,,,,,,,,,,,,,,,,,,5f555cfc020a36015dd15a36,610378aa8aa60ca94ea087f3,2021-07-30_05h57.50.426,Simcolourproject_2stim_asymm_v5,2020.2.10,Win32,60,61025ae37ef11b136ea224fe,,,,,,,,,2977,91,42,1,0,0,response1disk,,6,1,2,1,0,0,rectangle,1,2,1,0,0,1,2,1,0,0,1,72,232,134,1,,,,,,,,
,,,,,,,,,,,,,FF,,,,,,,,1.233,,,,,,,,,,,,,,,,,,,,,,5f555cfc020a36015dd15a36,610378aa8aa60ca94ea087f3,2021-07-30_05h57.50.426,Simcolourproject_2stim_asymm_v5,2020.2.10,Win32,60,61025ae37ef11b136ea224fe,,,,,,,,,1859,94,45,1,0,0,response1disk,,6,3,-11,1,0,0,rectangle,3,-11,1,0,0,3,-11,1,0,0,1,73,233,107,1,,,,,,,,
,,,,,,,,,,,,,FF,,,,,,,,2.667,,,,,,,,,,,,,,,,,,,,,,5f555cfc020a36015dd15a36,610378aa8aa60ca94ea087f3,2021-07-30_05h57.50.426,Simcolourproject_2stim_asymm_v5,2020.2.10,Win32,60,61025ae37ef11b136ea224fe,,,,,,,,,2812,85,-37,1,0,0,response3disk,,5,9,-2,1,0,0,rectangle,9,-2,1,0,0,9,-2,1,0,0,1,74,234,72,1,,,,,,,,
,,,,,,,,,,,,,FF,,,,,,,,1.501,,,,,,,,,,,,,,,,,,,,,,5f555cfc020a36015dd15a36,610378aa8aa60ca94ea087f3,2021-07-30_05h57.50.426,Simcolourproject_2stim_asymm_v5,2020.2.10,Win32,60,61025ae37ef11b136ea224fe,,,,,,,,,757,88,42,1,0,0,response1disk,,6,-2,3,1,0,0,rectangle,-2,3,1,0,0,-2,3,1,0,0,1,75,235,39,1,,,,,,,,
,,,,,,,,,,,,,FF,,,,,,,,1.834,,,,,,,,,,,,,,,,,,,,,,5f555cfc020a36015dd15a36,610378aa8aa60ca94ea087f3,2021-07-30_05h57.50.426,Simcolourproject_2stim_asymm_v5,2020.2.10,Win32,60,61025ae37ef11b136ea224fe,,,,,,,,,1349,58,-36,1,0,0,response3disk,,5,8,11,1,0,0,rectangle,8,11,1,0,0,8,11,1,0,0,1,76,236,59,1,,,,,,,,
,,,,,,,,,,,,,FF,,,,,,,,2.367,,,,,,,,,,,,,,,,,,,,,,5f555cfc020a36015dd15a36,610378aa8aa60ca94ea087f3,2021-07-30_05h57.50.426,Simcolourproject_2stim_asymm_v5,2020.2.10,Win32,60,61025ae37ef11b136ea224fe,,,,,,,,,2956,77,-46,1,0,0,response3disk,,5,-3,-1,1,0,0,rectangle,76,50,1,0,0,2,3,1,0,0,1,77,237,157,1,,response1disk_3,TRUE,6,6,"[32,145,4,238,80,132,281,139,258,168,201,136,164,201,248,66,96,69,298,290]",2.3,rectangle
,,,,,,,,,,,,,FF,,,,,,,,1.9,,,,,,,,,,,,,,,,,,,,,,5f555cfc020a36015dd15a36,610378aa8aa60ca94ea087f3,2021-07-30_05h57.50.426,Simcolourproject_2stim_asymm_v5,2020.2.10,Win32,60,61025ae37ef11b136ea224fe,,,,,,,,,3287,-22,-60,1,0,0,response5disk,,3,-4,6,1,0,0,rectangle,-4,6,1,0,0,-4,6,1,0,0,1,78,238,28,1,,,,,,,,
,,,,,,,,,,,,,FF,,,,,,,,2.367,,,,,,,,,,,,,,,,,,,,,,5f555cfc020a36015dd15a36,610378aa8aa60ca94ea087f3,2021-07-30_05h57.50.426,Simcolourproject_2stim_asymm_v5,2020.2.10,Win32,60,61025ae37ef11b136ea224fe,,,,,,,,,2083,82,45,1,0,0,response1disk,,6,4,2,1,0,0,rectangle,4,2,1,0,0,4,2,1,0,0,1,79,239,54,1,,,,,,,,
,,,,,,,,,,,,,FF,,,,,,,,2.067,,,,,,,,,,,,,,,,,,,,,,5f555cfc020a36015dd15a36,610378aa8aa60ca94ea087f3,2021-07-30_05h57.50.426,Simcolourproject_2stim_asymm_v5,2020.2.10,Win32,60,61025ae37ef11b136ea224fe,,,,,,,,,2280,87,55,1,0,0,response1disk,,6,6,3,1,0,0,rectangle,6,3,1,0,0,6,3,1,0,0,1,80,240,69,1,,,,,,,,
,,,,,,,,,,,,,FF,,,,,,,,1.099,,,,,,,,,,,,,,,,,,,,,,5f555cfc020a36015dd15a36,610378aa8aa60ca94ea087f3,2021-07-30_05h57.50.426,Simcolourproject_2stim_asymm_v5,2020.2.10,Win32,60,61025ae37ef11b136ea224fe,,,,,,,,,3492,45,75,1,0,0,response1disk,,7,3,5,1,0,0,rectangle,3,5,1,0,0,3,5,1,0,0,1,81,241,104,1,,,,,,,,
,,,,,,,,,,,,,FF,,,,,,,,2.233,,,,,,,,,,,,,,,,,,,,,,5f555cfc020a36015dd15a36,610378aa8aa60ca94ea087f3,2021-07-30_05h57.50.426,Simcolourproject_2stim_asymm_v5,2020.2.10,Win32,60,61025ae37ef11b136ea224fe,,,,,,,,,228,85,41,1,0,0,response1disk,,6,-1,-7,1,0,0,rectangle,-1,-7,1,0,0,-1,-7,1,0,0,1,82,242,128,1,,,,,,,,
,,,,,,,,,,,,,FF,,,,,,,,3.767,,,,,,,,,,,,,,,,,,,,,,5f555cfc020a36015dd15a36,610378aa8aa60ca94ea087f3,2021-07-30_05h57.50.426,Simcolourproject_2stim_asymm_v5,2020.2.10,Win32,60,61025ae37ef11b136ea224fe,,,,,,,,,942,82,28,1,0,0,response1disk,,6,8,-2,1,0,0,rectangle,8,-2,1,0,0,8,-2,1,0,0,1,83,243,11,1,,,,,,,,
,,,,,,,,,,,,,FF,,,,,,,,4.5,,,,,,,,,,,,,,,,,,,,,,5f555cfc020a36015dd15a36,610378aa8aa60ca94ea087f3,2021-07-30_05h57.50.426,Simcolourproject_2stim_asymm_v5,2020.2.10,Win32,60,61025ae37ef11b136ea224fe,,,,,,,,,2863,87,-42,1,0,0,response3disk,,5,1,-1,1,0,0,rectangle,1,-1,1,0,0,1,-1,1,0,0,1,84,244,21,1,,,,,,,,
,,,,,,,,,,,,,FF,,,,,,,,1.966,,,,,,,,,,,,,,,,,,,,,,5f555cfc020a36015dd15a36,610378aa8aa60ca94ea087f3,2021-07-30_05h57.50.426,Simcolourproject_2stim_asymm_v5,2020.2.10,Win32,60,61025ae37ef11b136ea224fe,,,,,,,,,1984,46,73,1,0,0,response1disk,,7,9,-3,1,0,0,rectangle,9,-3,1,0,0,9,-3,1,0,0,1,85,245,6,1,,,,,,,,
,,,,,,,,,,,,,FF,,,,,,,,1.7,,,,,,,,,,,,,,,,,,,,,,5f555cfc020a36015dd15a36,610378aa8aa60ca94ea087f3,2021-07-30_05h57.50.426,Simcolourproject_2stim_asymm_v5,2020.2.10,Win32,60,61025ae37ef11b136ea224fe,,,,,,,,,2853,86,22,1,0,0,response1disk,,6,11,-10,1,0,0,rectangle,11,-10,1,0,0,11,-10,1,0,0,1,86,246,114,1,,,,,,,,
,,,,,,,,,,,,,FF,,,,,,,,2.1,,,,,,,,,,,,,,,,,,,,,,5f555cfc020a36015dd15a36,610378aa8aa60ca94ea087f3,2021-07-30_05h57.50.426,Simcolourproject_2stim_asymm_v5,2020.2.10,Win32,60,61025ae37ef11b136ea224fe,,,,,,,,,1726,60,-32,1,0,0,response3disk,,5,6,-1,1,0,0,rectangle,-81,40,1,0,0,-1,-7,1,0,0,1,87,247,138,1,,response7disk_3,TRUE,1,1,"[32,145,4,238,80,132,281,139,258,168,201,136,164,201,248,66,96,69,298,290]",1.834,rectangle
,,,,,,,,,,,,,FF,,,,,,,,3.767,,,,,,,,,,,,,,,,,,,,,,5f555cfc020a36015dd15a36,610378aa8aa60ca94ea087f3,2021-07-30_05h57.50.426,Simcolourproject_2stim_asymm_v5,2020.2.10,Win32,60,61025ae37ef11b136ea224fe,,,,,,,,,1399,88,-28,1,0,0,response3disk,,5,1,3,1,0,0,rectangle,1,3,1,0,0,1,3,1,0,0,1,88,248,147,1,,,,,,,,
,,,,,,,,,,,,,FF,,,,,,,,1.3,,,,,,,,,,,,,,,,,,,,,,5f555cfc020a36015dd15a36,610378aa8aa60ca94ea087f3,2021-07-30_05h57.50.426,Simcolourproject_2stim_asymm_v5,2020.2.10,Win32,60,61025ae37ef11b136ea224fe,,,,,,,,,3966,-106,43,1,0,0,response7disk,,1,0,4,1,0,0,rectangle,0,4,1,0,0,0,4,1,0,0,1,89,249,94,1,,,,,,,,
,,,,,,,,,,,,,FF,,,,,,,,2.5,,,,,,,,,,,,,,,,,,,,,,5f555cfc020a36015dd15a36,610378aa8aa60ca94ea087f3,2021-07-30_05h57.50.426,Simcolourproject_2stim_asymm_v5,2020.2.10,Win32,60,61025ae37ef11b136ea224fe,,,,,,,,,554,55,-73,1,0,0,response3disk,,4,-5,11,1,0,0,rectangle,-5,11,1,0,0,-5,11,1,0,0,1,90,250,78,1,,,,,,,,
,,,,,,,,,,,,,FF,,,,,,,,1.633,,,,,,,,,,,,,,,,,,,,,,5f555cfc020a36015dd15a36,610378aa8aa60ca94ea087f3,2021-07-30_05h57.50.426,Simcolourproject_2stim_asymm_v5,2020.2.10,Win32,60,61025ae37ef11b136ea224fe,,,,,,,,,3442,70,-46,1,0,0,response3disk,,5,3,-1,1,0,0,rectangle,3,-1,1,0,0,3,-1,1,0,0,1,91,251,113,1,,,,,,,,
,,,,,,,,,,,,,FF,,,,,,,,1.634,,,,,,,,,,,,,,,,,,,,,,5f555cfc020a36015dd15a36,610378aa8aa60ca94ea087f3,2021-07-30_05h57.50.426,Simcolourproject_2stim_asymm_v5,2020.2.10,Win32,60,61025ae37ef11b136ea224fe,,,,,,,,,2135,78,-48,1,0,0,response3disk,,5,-14,5,1,0,0,rectangle,-14,5,1,0,0,-14,5,1,0,0,1,92,252,25,1,,,,,,,,
,,,,,,,,,,,,,FF,,,,,,,,1.301,,,,,,,,,,,,,,,,,,,,,,5f555cfc020a36015dd15a36,610378aa8aa60ca94ea087f3,2021-07-30_05h57.50.426,Simcolourproject_2stim_asymm_v5,2020.2.10,Win32,60,61025ae37ef11b136ea224fe,,,,,,,,,2042,-44,-70,1,0,0,response5disk,,3,-12,4,1,0,0,rectangle,-12,4,1,0,0,-12,4,1,0,0,1,93,253,151,1,,,,,,,,
,,,,,,,,,,,,,FF,,,,,,,,3.1,,,,,,,,,,,,,,,,,,,,,,5f555cfc020a36015dd15a36,610378aa8aa60ca94ea087f3,2021-07-30_05h57.50.426,Simcolourproject_2stim_asymm_v5,2020.2.10,Win32,60,61025ae37ef11b136ea224fe,,,,,,,,,1778,29,-52,1,0,0,response3disk,,4,-5,4,1,0,0,rectangle,-5,4,1,0,0,-5,4,1,0,0,1,94,254,154,1,,,,,,,,
,,,,,,,,,,,,,FF,,,,,,,,2.5,,,,,,,,,,,,,,,,,,,,,,5f555cfc020a36015dd15a36,610378aa8aa60ca94ea087f3,2021-07-30_05h57.50.426,Simcolourproject_2stim_asymm_v5,2020.2.10,Win32,60,61025ae37ef11b136ea224fe,,,,,,,,,3994,-52,-39,1,0,0,response5disk,,2,2,1,1,0,0,rectangle,2,1,1,0,0,2,1,1,0,0,1,95,255,42,1,,,,,,,,
,,,,,,,,,,,,,FF,,,,,,,,5.233,,,,,,,,,,,,,,,,,,,,,,5f555cfc020a36015dd15a36,610378aa8aa60ca94ea087f3,2021-07-30_05h57.50.426,Simcolourproject_2stim_asymm_v5,2020.2.10,Win32,60,61025ae37ef11b136ea224fe,,,,,,,,,1489,58,-31,1,0,0,response3disk,,5,5,1,1,0,0,rectangle,5,1,1,0,0,5,1,1,0,0,1,96,256,152,1,,,,,,,,
,,,,,,,,,,,,,FF,,,,,,,,1.667,,,,,,,,,,,,,,,,,,,,,,5f555cfc020a36015dd15a36,610378aa8aa60ca94ea087f3,2021-07-30_05h57.50.426,Simcolourproject_2stim_asymm_v5,2020.2.10,Win32,60,61025ae37ef11b136ea224fe,,,,,,,,,20,76,-50,1,0,0,response3disk,,5,8,1,1,0,0,rectangle,-74,43,1,0,0,-7,-7,1,0,0,1,97,257,105,1,,response7disk_3,TRUE,1,1,"[32,145,4,238,80,132,281,139,258,168,201,136,164,201,248,66,96,69,298,290]",1.668,rectangle
,,,,,,,,,,,,,FF,,,,,,,,2.434,,,,,,,,,,,,,,,,,,,,,,5f555cfc020a36015dd15a36,610378aa8aa60ca94ea087f3,2021-07-30_05h57.50.426,Simcolourproject_2stim_asymm_v5,2020.2.10,Win32,60,61025ae37ef11b136ea224fe,,,,,,,,,3476,-63,-25,1,0,0,response5disk,,2,-10,4,1,0,0,rectangle,-10,4,1,0,0,-10,4,1,0,0,1,98,258,76,1,,,,,,,,
,,,,,,,,,,,,,FF,,,,,,,,1.267,,,,,,,,,,,,,,,,,,,,,,5f555cfc020a36015dd15a36,610378aa8aa60ca94ea087f3,2021-07-30_05h57.50.426,Simcolourproject_2stim_asymm_v5,2020.2.10,Win32,60,61025ae37ef11b136ea224fe,,,,,,,,,1273,78,-27,1,0,0,response3disk,,5,0,-2,1,0,0,rectangle,0,-2,1,0,0,0,-2,1,0,0,1,99,259,37,1,,,,,,,,
,,,,,,,,,,,,,FF,,,,,,,,3.634,,,,,,,,,,,,,,,,,,,,,,5f555cfc020a36015dd15a36,610378aa8aa60ca94ea087f3,2021-07-30_05h57.50.426,Simcolourproject_2stim_asymm_v5,2020.2.10,Win32,60,61025ae37ef11b136ea224fe,,,,,,,,,181,25,-72,1,0,0,response3disk,,4,-14,-6,1,0,0,rectangle,-14,-6,1,0,0,-14,-6,1,0,0,1,100,260,51,1,,,,,,,,
,,,,,,,,,,,,,FF,,,,,,,,1.967,,,,,,,,,,,,,,,,,,,,,,5f555cfc020a36015dd15a36,610378aa8aa60ca94ea087f3,2021-07-30_05h57.50.426,Simcolourproject_2stim_asymm_v5,2020.2.10,Win32,60,61025ae37ef11b136ea224fe,,,,,,,,,2953,-27,-67,1,0,0,response5disk,,3,0,0,1,0,0,rectangle,0,0,1,0,0,0,0,1,0,0,1,101,261,45,1,,,,,,,,
,,,,,,,,,,,,,FF,,,,,,,,1.1,,,,,,,,,,,,,,,,,,,,,,5f555cfc020a36015dd15a36,610378aa8aa60ca94ea087f3,2021-07-30_05h57.50.426,Simcolourproject_2stim_asymm_v5,2020.2.10,Win32,60,61025ae37ef11b136ea224fe,,,,,,,,,178,76,-33,1,0,0,response3disk,,5,9,0,1,0,0,rectangle,9,0,1,0,0,9,0,1,0,0,1,102,262,144,1,,,,,,,,
,,,,,,,,,,,,,FF,,,,,,,,1.466,,,,,,,,,,,,,,,,,,,,,,5f555cfc020a36015dd15a36,610378aa8aa60ca94ea087f3,2021-07-30_05h57.50.426,Simcolourproject_2stim_asymm_v5,2020.2.10,Win32,60,61025ae37ef11b136ea224fe,,,,,,,,,3088,-41,-69,1,0,0,response5disk,,3,-4,4,1,0,0,rectangle,-4,4,1,0,0,-4,4,1,0,0,1,103,263,53,1,,,,,,,,
,,,,,,,,,,,,,FF,,,,,,,,2.1,,,,,,,,,,,,,,,,,,,,,,5f555cfc020a36015dd15a36,610378aa8aa60ca94ea087f3,2021-07-30_05h57.50.426,Simcolourproject_2stim_asymm_v5,2020.2.10,Win32,60,61025ae37ef11b136ea224fe,,,,,,,,,3920,-29,-72,1,0,0,response5disk,,3,5,-1,1,0,0,rectangle,5,-1,1,0,0,5,-1,1,0,0,1,104,264,140,1,,,,,,,,
,,,,,,,,,,,,,FF,,,,,,,,2.901,,,,,,,,,,,,,,,,,,,,,,5f555cfc020a36015dd15a36,610378aa8aa60ca94ea087f3,2021-07-30_05h57.50.426,Simcolourproject_2stim_asymm_v5,2020.2.10,Win32,60,61025ae37ef11b136ea224fe,,,,,,,,,2585,91,40,1,0,0,response1disk,,6,-3,-3,1,0,0,rectangle,-3,-3,1,0,0,-3,-3,1,0,0,1,105,265,92,1,,,,,,,,
,,,,,,,,,,,,,FF,,,,,,,,2.101,,,,,,,,,,,,,,,,,,,,,,5f555cfc020a36015dd15a36,610378aa8aa60ca94ea087f3,2021-07-30_05h57.50.426,Simcolourproject_2stim_asymm_v5,2020.2.10,Win32,60,61025ae37ef11b136ea224fe,,,,,,,,,4160,80,-41,1,0,0,response3disk,,5,-3,7,1,0,0,rectangle,-3,7,1,0,0,-3,7,1,0,0,1,106,266,96,1,,,,,,,,
,,,,,,,,,,,,,FF,,,,,,,,2.033,,,,,,,,,,,,,,,,,,,,,,5f555cfc020a36015dd15a36,610378aa8aa60ca94ea087f3,2021-07-30_05h57.50.426,Simcolourproject_2stim_asymm_v5,2020.2.10,Win32,60,61025ae37ef11b136ea224fe,,,,,,,,,2234,-79,31,1,0,0,response7disk,,1,-11,-8,1,0,0,rectangle,-11,-8,1,0,0,-11,-8,1,0,0,1,107,267,56,1,,,,,,,,
,,,,,,,,,,,,,FF,,,,,,,,1.6,,,,,,,,,,,,,,,,,,,,,,5f555cfc020a36015dd15a36,610378aa8aa60ca94ea087f3,2021-07-30_05h57.50.426,Simcolourproject_2stim_asymm_v5,2020.2.10,Win32,60,61025ae37ef11b136ea224fe,,,,,,,,,3881,-68,-22,1,0,0,response5disk,,2,-14,-8,1,0,0,rectangle,-14,-8,1,0,0,-14,-8,1,0,0,1,108,268,115,1,,,,,,,,
,,,,,,,,,,,,,FF,,,,,,,,1.899,,,,,,,,,,,,,,,,,,,,,,5f555cfc020a36015dd15a36,610378aa8aa60ca94ea087f3,2021-07-30_05h57.50.426,Simcolourproject_2stim_asymm_v5,2020.2.10,Win32,60,61025ae37ef11b136ea224fe,,,,,,,,,2523,44,78,1,0,0,response1disk,,7,0,3,1,0,0,rectangle,0,3,1,0,0,0,3,1,0,0,1,109,269,8,1,,,,,,,,
,,,,,,,,,,,,,FF,,,,,,,,3.068,,,,,,,,,,,,,,,,,,,,,,5f555cfc020a36015dd15a36,610378aa8aa60ca94ea087f3,2021-07-30_05h57.50.426,Simcolourproject_2stim_asymm_v5,2020.2.10,Win32,60,61025ae37ef11b136ea224fe,,,,,,,,,698,73,-39,1,0,0,response3disk,,5,3,0,1,0,0,rectangle,3,0,1,0,0,3,0,1,0,0,1,110,270,141,1,,,,,,,,
,,,,,,,,,,,,,FF,,,,,,,,2.434,,,,,,,,,,,,,,,,,,,,,,5f555cfc020a36015dd15a36,610378aa8aa60ca94ea087f3,2021-07-30_05h57.50.426,Simcolourproject_2stim_asymm_v5,2020.2.10,Win32,60,61025ae37ef11b136ea224fe,,,,,,,,,1225,35,-63,1,0,0,response3disk,,4,-4,-6,1,0,0,rectangle,-4,-6,1,0,0,-4,-6,1,0,0,1,111,271,124,1,,,,,,,,
,,,,,,,,,,,,,FF,,,,,,,,2.866,,,,,,,,,,,,,,,,,,,,,,5f555cfc020a36015dd15a36,610378aa8aa60ca94ea087f3,2021-07-30_05h57.50.426,Simcolourproject_2stim_asymm_v5,2020.2.10,Win32,60,61025ae37ef11b136ea224fe,,,,,,,,,4117,29,-75,1,0,0,response3disk,,4,-5,0,1,0,0,rectangle,-5,0,1,0,0,-5,0,1,0,0,1,112,272,74,1,,,,,,,,
,,,,,,,,,,,,,FF,,,,,,,,1.534,,,,,,,,,,,,,,,,,,,,,,5f555cfc020a36015dd15a36,610378aa8aa60ca94ea087f3,2021-07-30_05h57.50.426,Simcolourproject_2stim_asymm_v5,2020.2.10,Win32,60,61025ae37ef11b136ea224fe,,,,,,,,,2402,76,-38,1,0,0,response3disk,,5,4,4,1,0,0,rectangle,4,4,1,0,0,4,4,1,0,0,1,113,273,120,1,,,,,,,,
,,,,,,,,,,,,,FF,,,,,,,,1.233,,,,,,,,,,,,,,,,,,,,,,5f555cfc020a36015dd15a36,610378aa8aa60ca94ea087f3,2021-07-30_05h57.50.426,Simcolourproject_2stim_asymm_v5,2020.2.10,Win32,60,61025ae37ef11b136ea224fe,,,,,,,,,3364,52,46,1,0,0,response1disk,,6,-7,-10,1,0,0,rectangle,-7,-10,1,0,0,-7,-10,1,0,0,1,114,274,117,1,,,,,,,,
,,,,,,,,,,,,,FF,,,,,,,,2.7,,,,,,,,,,,,,,,,,,,,,,5f555cfc020a36015dd15a36,610378aa8aa60ca94ea087f3,2021-07-30_05h57.50.426,Simcolourproject_2stim_asymm_v5,2020.2.10,Win32,60,61025ae37ef11b136ea224fe,,,,,,,,,1761,33,-78,1,0,0,response3disk,,4,-9,0,1,0,0,rectangle,-9,0,1,0,0,-9,0,1,0,0,1,115,275,0,1,,,,,,,,
,,,,,,,,,,,,,FF,,,,,,,,1.633,,,,,,,,,,,,,,,,,,,,,,5f555cfc020a36015dd15a36,610378aa8aa60ca94ea087f3,2021-07-30_05h57.50.426,Simcolourproject_2stim_asymm_v5,2020.2.10,Win32,60,61025ae37ef11b136ea224fe,,,,,,,,,249,29,-71,1,0,0,response3disk,,4,-19,0,1,0,0,rectangle,-19,0,1,0,0,-19,0,1,0,0,1,116,276,101,1,,,,,,,,
,,,,,,,,,,,,,FF,,,,,,,,2.699,,,,,,,,,,,,,,,,,,,,,,5f555cfc020a36015dd15a36,610378aa8aa60ca94ea087f3,2021-07-30_05h57.50.426,Simcolourproject_2stim_asymm_v5,2020.2.10,Win32,60,61025ae37ef11b136ea224fe,,,,,,,,,2221,99,-35,1,0,0,response3disk,,5,7,4,1,0,0,rectangle,7,4,1,0,0,7,4,1,0,0,1,117,277,153,1,,,,,,,,
,,,,,,,,,,,,,FF,,,,,,,,1.467,,,,,,,,,,,,,,,,,,,,,,5f555cfc020a36015dd15a36,610378aa8aa60ca94ea087f3,2021-07-30_05h57.50.426,Simcolourproject_2stim_asymm_v5,2020.2.10,Win32,60,61025ae37ef11b136ea224fe,,,,,,,,,4147,-22,-53,1,0,0,response5disk,,3,-1,-4,1,0,0,rectangle,-1,-4,1,0,0,-1,-4,1,0,0,1,118,278,88,1,,,,,,,,
,,,,,,,,,,,,,FF,,,,,,,,2.267,,,,,,,,,,,,,,,,,,,,,,5f555cfc020a36015dd15a36,610378aa8aa60ca94ea087f3,2021-07-30_05h57.50.426,Simcolourproject_2stim_asymm_v5,2020.2.10,Win32,60,61025ae37ef11b136ea224fe,,,,,,,,,383,86,40,1,0,0,response1disk,,6,-5,-5,1,0,0,rectangle,-5,-5,1,0,0,-5,-5,1,0,0,1,119,279,132,1,,,,,,,,
,,,,,,,,,,,,,FF,,,,,,,,2.6,,,,,,,,,,,,,,,,,,,,,,5f555cfc020a36015dd15a36,610378aa8aa60ca94ea087f3,2021-07-30_05h57.50.426,Simcolourproject_2stim_asymm_v5,2020.2.10,Win32,60,61025ae37ef11b136ea224fe,,,,,,,,,1794,29,-89,1,0,0,response3disk,,4,-9,-3,1,0,0,rectangle,26,82,1,0,0,3,-4,1,0,0,1,120,280,85,1,,response1disk_3,TRUE,7,7,"[32,145,4,238,80,132,281,139,258,168,201,136,164,201,248,66,96,69,298,290]",2.6,rectangle
,,,,,,,,,,,,,FF,,,,,,,,4.234,,,,,,,,,,,,,,,,,,,,,,5f555cfc020a36015dd15a36,610378aa8aa60ca94ea087f3,2021-07-30_05h57.50.426,Simcolourproject_2stim_asymm_v5,2020.2.10,Win32,60,61025ae37ef11b136ea224fe,,,,,,,,,608,78,-58,1,0,0,response3disk,,5,-2,1,1,0,0,rectangle,-2,1,1,0,0,-2,1,1,0,0,1,121,281,22,1,,,,,,,,
,,,,,,,,,,,,,FF,,,,,,,,2,,,,,,,,,,,,,,,,,,,,,,5f555cfc020a36015dd15a36,610378aa8aa60ca94ea087f3,2021-07-30_05h57.50.426,Simcolourproject_2stim_asymm_v5,2020.2.10,Win32,60,61025ae37ef11b136ea224fe,,,,,,,,,3494,57,-45,1,0,0,response3disk,,5,11,4,1,0,0,rectangle,11,4,1,0,0,11,4,1,0,0,1,122,282,50,1,,,,,,,,
,,,,,,,,,,,,,FF,,,,,,,,1.967,,,,,,,,,,,,,,,,,,,,,,5f555cfc020a36015dd15a36,610378aa8aa60ca94ea087f3,2021-07-30_05h57.50.426,Simcolourproject_2stim_asymm_v5,2020.2.10,Win32,60,61025ae37ef11b136ea224fe,,,,,,,,,732,55,39,1,0,0,response1disk,,6,-19,-4,1,0,0,rectangle,-19,-4,1,0,0,-19,-4,1,0,0,1,123,283,150,1,,,,,,,,
,,,,,,,,,,,,,FF,,,,,,,,1.1,,,,,,,,,,,,,,,,,,,,,,5f555cfc020a36015dd15a36,610378aa8aa60ca94ea087f3,2021-07-30_05h57.50.426,Simcolourproject_2stim_asymm_v5,2020.2.10,Win32,60,61025ae37ef11b136ea224fe,,,,,,,,,3386,-38,-63,1,0,0,response5disk,,3,-17,2,1,0,0,rectangle,-17,2,1,0,0,-17,2,1,0,0,1,124,284,57,1,,,,,,,,
,,,,,,,,,,,,,FF,,,,,,,,1.133,,,,,,,,,,,,,,,,,,,,,,5f555cfc020a36015dd15a36,610378aa8aa60ca94ea087f3,2021-07-30_05h57.50.426,Simcolourproject_2stim_asymm_v5,2020.2.10,Win32,60,61025ae37ef11b136ea224fe,,,,,,,,,2397,70,-47,1,0,0,response3disk,,5,-8,3,1,0,0,rectangle,-8,3,1,0,0,-8,3,1,0,0,1,125,285,32,1,,,,,,,,
,,,,,,,,,,,,,FF,,,,,,,,1.134,,,,,,,,,,,,,,,,,,,,,,5f555cfc020a36015dd15a36,610378aa8aa60ca94ea087f3,2021-07-30_05h57.50.426,Simcolourproject_2stim_asymm_v5,2020.2.10,Win32,60,61025ae37ef11b136ea224fe,,,,,,,,,4295,-66,-32,1,0,0,response5disk,,2,2,8,1,0,0,rectangle,2,8,1,0,0,2,8,1,0,0,1,126,286,137,1,,,,,,,,
,,,,,,,,,,,,,FF,,,,,,,,2.166,,,,,,,,,,,,,,,,,,,,,,5f555cfc020a36015dd15a36,610378aa8aa60ca94ea087f3,2021-07-30_05h57.50.426,Simcolourproject_2stim_asymm_v5,2020.2.10,Win32,60,61025ae37ef11b136ea224fe,,,,,,,,,3631,43,-82,1,0,0,response3disk,,4,-8,3,1,0,0,rectangle,-8,3,1,0,0,-8,3,1,0,0,1,127,287,77,1,,,,,,,,
,,,,,,,,,,,,,FF,,,,,,,,3.8,,,,,,,,,,,,,,,,,,,,,,5f555cfc020a36015dd15a36,610378aa8aa60ca94ea087f3,2021-07-30_05h57.50.426,Simcolourproject_2stim_asymm_v5,2020.2.10,Win32,60,61025ae37ef11b136ea224fe,,,,,,,,,3533,89,58,1,0,0,response1disk,,6,-9,-7,1,0,0,rectangle,-9,-7,1,0,0,-9,-7,1,0,0,1,128,288,83,1,,,,,,,,
,,,,,,,,,,,,,FF,,,,,,,,1.367,,,,,,,,,,,,,,,,,,,,,,5f555cfc020a36015dd15a36,610378aa8aa60ca94ea087f3,2021-07-30_05h57.50.426,Simcolourproject_2stim_asymm_v5,2020.2.10,Win32,60,61025ae37ef11b136ea224fe,,,,,,,,,3313,60,35,1,0,0,response1disk,,6,-17,-6,1,0,0,rectangle,86,44,1,0,0,8,-1,1,0,0,1,129,289,9,1,,response1disk_3,TRUE,6,6,"[32,145,4,238,80,132,281,139,258,168,201,136,164,201,248,66,96,69,298,290]",2.633,rectangle
,,,,,,,,,,,,,FF,,,,,,,,3.634,,,,,,,,,,,,,,,,,,,,,,5f555cfc020a36015dd15a36,610378aa8aa60ca94ea087f3,2021-07-30_05h57.50.426,Simcolourproject_2stim_asymm_v5,2020.2.10,Win32,60,61025ae37ef11b136ea224fe,,,,,,,,,683,99,-39,1,0,0,response3disk,,5,2,4,1,0,0,rectangle,2,4,1,0,0,2,4,1,0,0,1,130,290,97,1,,,,,,,,
,,,,,,,,,,,,,FF,,,,,,,,1.334,,,,,,,,,,,,,,,,,,,,,,5f555cfc020a36015dd15a36,610378aa8aa60ca94ea087f3,2021-07-30_05h57.50.426,Simcolourproject_2stim_asymm_v5,2020.2.10,Win32,60,61025ae37ef11b136ea224fe,,,,,,,,,2369,-85,-45,1,0,0,response5disk,,2,-16,0,1,0,0,rectangle,-16,0,1,0,0,-16,0,1,0,0,1,131,291,16,1,,,,,,,,
,,,,,,,,,,,,,FF,,,,,,,,1.568,,,,,,,,,,,,,,,,,,,,,,5f555cfc020a36015dd15a36,610378aa8aa60ca94ea087f3,2021-07-30_05h57.50.426,Simcolourproject_2stim_asymm_v5,2020.2.10,Win32,60,61025ae37ef11b136ea224fe,,,,,,,,,2677,-24,-58,1,0,0,response5disk,,3,-10,9,1,0,0,rectangle,-10,9,1,0,0,-10,9,1,0,0,1,132,292,36,1,,,,,,,,
,,,,,,,,,,,,,FF,,,,,,,,2.267,,,,,,,,,,,,,,,,,,,,,,5f555cfc020a36015dd15a36,610378aa8aa60ca94ea087f3,2021-07-30_05h57.50.426,Simcolourproject_2stim_asymm_v5,2020.2.10,Win32,60,61025ae37ef11b136ea224fe,,,,,,,,,657,60,-24,1,0,0,response3disk,,5,0,-5,1,0,0,rectangle,0,-5,1,0,0,0,-5,1,0,0,1,133,293,17,1,,,,,,,,
,,,,,,,,,,,,,FF,,,,,,,,1.934,,,,,,,,,,,,,,,,,,,,,,5f555cfc020a36015dd15a36,610378aa8aa60ca94ea087f3,2021-07-30_05h57.50.426,Simcolourproject_2stim_asymm_v5,2020.2.10,Win32,60,61025ae37ef11b136ea224fe,,,,,,,,,2011,79,37,1,0,0,response1disk,,6,-10,0,1,0,0,rectangle,-10,0,1,0,0,-10,0,1,0,0,1,134,294,14,1,,,,,,,,
,,,,,,,,,,,,,FF,,,,,,,,2.467,,,,,,,,,,,,,,,,,,,,,,5f555cfc020a36015dd15a36,610378aa8aa60ca94ea087f3,2021-07-30_05h57.50.426,Simcolourproject_2stim_asymm_v5,2020.2.10,Win32,60,61025ae37ef11b136ea224fe,,,,,,,,,895,28,-83,1,0,0,response3disk,,4,4,-3,1,0,0,rectangle,4,-3,1,0,0,4,-3,1,0,0,1,135,295,159,1,,,,,,,,
,,,,,,,,,,,,,FF,,,,,,,,2.566,,,,,,,,,,,,,,,,,,,,,,5f555cfc020a36015dd15a36,610378aa8aa60ca94ea087f3,2021-07-30_05h57.50.426,Simcolourproject_2stim_asymm_v5,2020.2.10,Win32,60,61025ae37ef11b136ea224fe,,,,,,,,,379,76,-26,1,0,0,response3disk,,5,3,-3,1,0,0,rectangle,3,-3,1,0,0,3,-3,1,0,0,1,136,296,66,1,,,,,,,,
,,,,,,,,,,,,,FF,,,,,,,,2.132,,,,,,,,,,,,,,,,,,,,,,5f555cfc020a36015dd15a36,610378aa8aa60ca94ea087f3,2021-07-30_05h57.50.426,Simcolourproject_2stim_asymm_v5,2020.2.10,Win32,60,61025ae37ef11b136ea224fe,,,,,,,,,215,69,-39,1,0,0,response3disk,,5,2,4,1,0,0,rectangle,-88,-46,1,0,0,3,1,1,0,0,1,137,297,29,1,,response5disk_3,TRUE,2,2,"[32,145,4,238,80,132,281,139,258,168,201,136,164,201,248,66,96,69,298,290]",3.867,rectangle
,,,,,,,,,,,,,FF,,,,,,,,1.6,,,,,,,,,,,,,,,,,,,,,,5f555cfc020a36015dd15a36,610378aa8aa60ca94ea087f3,2021-07-30_05h57.50.426,Simcolourproject_2stim_asymm_v5,2020.2.10,Win32,60,61025ae37ef11b136ea224fe,,,,,,,,,3843,-51,105,1,0,0,response7disk,,0,4,0,1,0,0,rectangle,4,0,1,0,0,4,0,1,0,0,1,138,298,93,1,,,,,,,,
,,,,,,,,,,,,,FF,,,,,,,,2.433,,,,,,,,,,,,,,,,,,,,,,5f555cfc020a36015dd15a36,610378aa8aa60ca94ea087f3,2021-07-30_05h57.50.426,Simcolourproject_2stim_asymm_v5,2020.2.10,Win32,60,61025ae37ef11b136ea224fe,,,,,,,,,2909,-48,-78,1,0,0,response5disk,,3,-7,2,1,0,0,rectangle,-7,2,1,0,0,-7,2,1,0,0,1,139,299,46,1,,,,,,,,
,,,,,,,,,,,,,FF,,,,,,,,2.933,,,,,,,,,,,,,,,,,,,,,,5f555cfc020a36015dd15a36,610378aa8aa60ca94ea087f3,2021-07-30_05h57.50.426,Simcolourproject_2stim_asymm_v5,2020.2.10,Win32,60,61025ae37ef11b136ea224fe,,,,,,,,,1234,45,-74,1,0,0,response3disk,,4,-11,2,1,0,0,rectangle,-11,2,1,0,0,-11,2,1,0,0,1,140,300,2,1,,,,,,,,
,,,,,,,,,,,,,FF,,,,,,,,1.133,,,,,,,,,,,,,,,,,,,,,,5f555cfc020a36015dd15a36,610378aa8aa60ca94ea087f3,2021-07-30_05h57.50.426,Simcolourproject_2stim_asymm_v5,2020.2.10,Win32,60,61025ae37ef11b136ea224fe,,,,,,,,,2893,-60,37,1,0,0,response7disk,,1,-11,-3,1,0,0,rectangle,-11,-3,1,0,0,-11,-3,1,0,0,1,141,301,142,1,,,,,,,,
,,,,,,,,,,,,,FF,,,,,,,,3.833,,,,,,,,,,,,,,,,,,,,,,5f555cfc020a36015dd15a36,610378aa8aa60ca94ea087f3,2021-07-30_05h57.50.426,Simcolourproject_2stim_asymm_v5,2020.2.10,Win32,60,61025ae37ef11b136ea224fe,,,,,,,,,1562,66,-40,1,0,0,response3disk,,5,4,-4,1,0,0,rectangle,4,-4,1,0,0,4,-4,1,0,0,1,142,302,68,1,,,,,,,,
,,,,,,,,,,,,,FF,,,,,,,,4.034,,,,,,,,,,,,,,,,,,,,,,5f555cfc020a36015dd15a36,610378aa8aa60ca94ea087f3,2021-07-30_05h57.50.426,Simcolourproject_2stim_asymm_v5,2020.2.10,Win32,60,61025ae37ef11b136ea224fe,,,,,,,,,160,-42,-80,1,0,0,response5disk,,3,11,1,1,0,0,rectangle,11,1,1,0,0,11,1,1,0,0,1,143,303,7,1,,,,,,,,
,,,,,,,,,,,,,FF,,,,,,,,1.499,,,,,,,,,,,,,,,,,,,,,,5f555cfc020a36015dd15a36,610378aa8aa60ca94ea087f3,2021-07-30_05h57.50.426,Simcolourproject_2stim_asymm_v5,2020.2.10,Win32,60,61025ae37ef11b136ea224fe,,,,,,,,,1445,-48,77,1,0,0,response7disk,,0,-12,0,1,0,0,rectangle,-12,0,1,0,0,-12,0,1,0,0,1,144,304,155,1,,,,,,,,
