key_resp.keys,key_resp.rt,key_resp_14.keys,key_resp_14.rt,key_resp_15.keys,key_resp_15.rt,key_resp_17.keys,key_resp_17.rt,key_resp_9.keys,key_resp_9.rt,key_resp_10.keys,key_resp_10.rt,practice_comparison,Ecc,mouse_5.x,mouse_5.y,mouse_5.leftButton,mouse_5.midButton,mouse_5.rightButton,mouse_5.clicked_name,pracsimilarity,response_time,mouse_10.x,mouse_10.y,mouse_10.leftButton,mouse_10.midButton,mouse_10.rightButton,mouse_10.clicked_name,mouse_7.x,mouse_7.y,mouse_7.leftButton,mouse_7.midButton,mouse_7.rightButton,mouse_6.x,mouse_6.y,mouse_6.leftButton,mouse_6.midButton,mouse_6.rightButton,duringprac.thisRepN,duringprac.thisTrialN,duringprac.thisN,duringprac.thisIndex,duringprac.ran,participant,session,date,expName,psychopyVersion,OS,frameRate,study_id,mouse_7.clicked_name,catchpracsimilarity,catch_response_time,catchnumberprac,catchtrialorderprac,mouse_6.clicked_name,key_resp_22.keys,key_resp_22.rt,realcomparison,mouse.x,mouse.y,mouse.leftButton,mouse.midButton,mouse.rightButton,mouse.clicked_name,Colour2,similarity,mouse_2.x,mouse_2.y,mouse_2.leftButton,mouse_2.midButton,mouse_2.rightButton,mouse_2.clicked_name,mouse_3.x,mouse_3.y,mouse_3.leftButton,mouse_3.midButton,mouse_3.rightButton,mouse_11.x,mouse_11.y,mouse_11.leftButton,mouse_11.midButton,mouse_11.rightButton,trials_2.thisRepN,trials_2.thisTrialN,trials_2.thisN,trials_2.thisIndex,trials_2.ran,Colour1,mouse_3.clicked_name,catchornah,catchsimilarity,catchnumber,catchtrialorder,catchRT,mouse_11.clicked_name
space,5.5866,space,29.3518,space,40.4172,space,12.6324,space,21.3021,space,8.0911,44,PF,33,-105,1,0,0,response3disk_5,4,15.5081,2,2,1,0,0,rectangle_8,2,2,1,0,0,2,2,1,0,0,0,0,0,4,1,5f63b9d3a83a7d0ecdda4eb2,61037757864e7cffc8c688f6,2021-07-29_22h55.54.830,Simcolourproject_2stim_asymm_v5,2020.2.10,Win32,60,61025ae37ef11b136ea224fe,,,,,,,,,,,,,,,,,,,,,,,,,,,,,,,,,,,,,,,,,,,,,,
,,,,,,,,,,,,127,FF,74,-34,1,0,0,response3disk_5,5,11.9157,-3,0,1,0,0,rectangle_8,-76,-46,1,0,0,15,-8,1,0,0,0,1,1,0,1,5f63b9d3a83a7d0ecdda4eb2,61037757864e7cffc8c688f6,2021-07-29_22h55.54.830,Simcolourproject_2stim_asymm_v5,2020.2.10,Win32,60,61025ae37ef11b136ea224fe,response5disk_7,2,2.3985,2,"[2,5]",rectangle_4,,,,,,,,,,,,,,,,,,,,,,,,,,,,,,,,,,,,,,,,
,,,,,,,,,,,,108,FF,61,107,1,0,0,response1disk_5,7,3.4334,-12,-6,1,0,0,rectangle_8,-12,-6,1,0,0,-12,-6,1,0,0,0,2,2,3,1,5f63b9d3a83a7d0ecdda4eb2,61037757864e7cffc8c688f6,2021-07-29_22h55.54.830,Simcolourproject_2stim_asymm_v5,2020.2.10,Win32,60,61025ae37ef11b136ea224fe,,,,,,,,,,,,,,,,,,,,,,,,,,,,,,,,,,,,,,,,,,,,,,
,,,,,,,,,,,,91,PF,-35,85,1,0,0,response7disk_5,0,3.9831,4,-8,1,0,0,rectangle_8,4,-8,1,0,0,4,-8,1,0,0,0,3,3,6,1,5f63b9d3a83a7d0ecdda4eb2,61037757864e7cffc8c688f6,2021-07-29_22h55.54.830,Simcolourproject_2stim_asymm_v5,2020.2.10,Win32,60,61025ae37ef11b136ea224fe,,,,,,,,,,,,,,,,,,,,,,,,,,,,,,,,,,,,,,,,,,,,,,
,,,,,,,,,,,,34,FF,33,81,1,0,0,response1disk_5,7,5.6351,4,5,1,0,0,rectangle_8,-80,-35,1,0,0,13,5,1,0,0,0,4,4,5,1,5f63b9d3a83a7d0ecdda4eb2,61037757864e7cffc8c688f6,2021-07-29_22h55.54.830,Simcolourproject_2stim_asymm_v5,2020.2.10,Win32,60,61025ae37ef11b136ea224fe,response5disk_7,2,2.1836,2,"[2,5]",rectangle_4,,,,,,,,,,,,,,,,,,,,,,,,,,,,,,,,,,,,,,,,
,,,,,,,,,,,,37,PF,-86,-45,1,0,0,response5disk_5,2,3.682,14,-5,1,0,0,rectangle_8,14,-5,1,0,0,14,-5,1,0,0,0,5,5,1,1,5f63b9d3a83a7d0ecdda4eb2,61037757864e7cffc8c688f6,2021-07-29_22h55.54.830,Simcolourproject_2stim_asymm_v5,2020.2.10,Win32,60,61025ae37ef11b136ea224fe,,,,,,,,,,,,,,,,,,,,,,,,,,,,,,,,,,,,,,,,,,,,,,
,,,,,,,,,,,,15,PF,31,-79,1,0,0,response3disk_5,4,2.6173,9,3,1,0,0,rectangle_8,9,3,1,0,0,9,3,1,0,0,0,6,6,2,1,5f63b9d3a83a7d0ecdda4eb2,61037757864e7cffc8c688f6,2021-07-29_22h55.54.830,Simcolourproject_2stim_asymm_v5,2020.2.10,Win32,60,61025ae37ef11b136ea224fe,,,,,,,,,,,,,,,,,,,,,,,,,,,,,,,,,,,,,,,,,,,,,,
,,,,,,,,,,,,,FF,,,,,,,,3.1861,,,,,,,,,,,,,,,,,,,,,,5f63b9d3a83a7d0ecdda4eb2,61037757864e7cffc8c688f6,2021-07-29_22h55.54.830,Simcolourproject_2stim_asymm_v5,2020.2.10,Win32,60,61025ae37ef11b136ea224fe,,,,,,,space,3.2927,1600,-63,-38,1,0,0,response5disk,,2,16,-2,1,0,0,rectangle,16,-2,1,0,0,16,-2,1,0,0,0,0,0,145,1,,,,,,,,
,,,,,,,,,,,,,FF,,,,,,,,2.1548,,,,,,,,,,,,,,,,,,,,,,5f63b9d3a83a7d0ecdda4eb2,61037757864e7cffc8c688f6,2021-07-29_22h55.54.830,Simcolourproject_2stim_asymm_v5,2020.2.10,Win32,60,61025ae37ef11b136ea224fe,,,,,,,,,3475,-73,31,1,0,0,response7disk,,1,0,1,1,0,0,rectangle,0,1,1,0,0,0,1,1,0,0,0,1,1,78,1,,,,,,,,
,,,,,,,,,,,,,FF,,,,,,,,1.6384,,,,,,,,,,,,,,,,,,,,,,5f63b9d3a83a7d0ecdda4eb2,61037757864e7cffc8c688f6,2021-07-29_22h55.54.830,Simcolourproject_2stim_asymm_v5,2020.2.10,Win32,60,61025ae37ef11b136ea224fe,,,,,,,,,2809,76,54,1,0,0,response1disk,,6,11,-2,1,0,0,rectangle,11,-2,1,0,0,11,-2,1,0,0,0,2,2,63,1,,,,,,,,
,,,,,,,,,,,,,FF,,,,,,,,2.2827,,,,,,,,,,,,,,,,,,,,,,5f63b9d3a83a7d0ecdda4eb2,61037757864e7cffc8c688f6,2021-07-29_22h55.54.830,Simcolourproject_2stim_asymm_v5,2020.2.10,Win32,60,61025ae37ef11b136ea224fe,,,,,,,,,2580,57,90,1,0,0,response1disk,,7,10,-3,1,0,0,rectangle,10,-3,1,0,0,10,-3,1,0,0,0,3,3,26,1,,,,,,,,
,,,,,,,,,,,,,FF,,,,,,,,1.3015,,,,,,,,,,,,,,,,,,,,,,5f63b9d3a83a7d0ecdda4eb2,61037757864e7cffc8c688f6,2021-07-29_22h55.54.830,Simcolourproject_2stim_asymm_v5,2020.2.10,Win32,60,61025ae37ef11b136ea224fe,,,,,,,,,2069,30,66,1,0,0,response1disk,,7,9,1,1,0,0,rectangle,9,1,1,0,0,9,1,1,0,0,0,4,4,35,1,,,,,,,,
,,,,,,,,,,,,,FF,,,,,,,,1.5167,,,,,,,,,,,,,,,,,,,,,,5f63b9d3a83a7d0ecdda4eb2,61037757864e7cffc8c688f6,2021-07-29_22h55.54.830,Simcolourproject_2stim_asymm_v5,2020.2.10,Win32,60,61025ae37ef11b136ea224fe,,,,,,,,,1465,47,-66,1,0,0,response3disk,,4,13,-3,1,0,0,rectangle,13,-3,1,0,0,13,-3,1,0,0,0,5,5,77,1,,,,,,,,
,,,,,,,,,,,,,FF,,,,,,,,2.4218,,,,,,,,,,,,,,,,,,,,,,5f63b9d3a83a7d0ecdda4eb2,61037757864e7cffc8c688f6,2021-07-29_22h55.54.830,Simcolourproject_2stim_asymm_v5,2020.2.10,Win32,60,61025ae37ef11b136ea224fe,,,,,,,,,1071,78,-38,1,0,0,response3disk,,5,19,-2,1,0,0,rectangle,19,-2,1,0,0,19,-2,1,0,0,0,6,6,19,1,,,,,,,,
,,,,,,,,,,,,,FF,,,,,,,,1.5872,,,,,,,,,,,,,,,,,,,,,,5f63b9d3a83a7d0ecdda4eb2,61037757864e7cffc8c688f6,2021-07-29_22h55.54.830,Simcolourproject_2stim_asymm_v5,2020.2.10,Win32,60,61025ae37ef11b136ea224fe,,,,,,,,,2672,79,34,1,0,0,response1disk,,6,6,-2,1,0,0,rectangle,6,-2,1,0,0,6,-2,1,0,0,0,7,7,42,1,,,,,,,,
,,,,,,,,,,,,,FF,,,,,,,,1.4812,,,,,,,,,,,,,,,,,,,,,,5f63b9d3a83a7d0ecdda4eb2,61037757864e7cffc8c688f6,2021-07-29_22h55.54.830,Simcolourproject_2stim_asymm_v5,2020.2.10,Win32,60,61025ae37ef11b136ea224fe,,,,,,,,,730,42,56,1,0,0,response1disk,,7,9,2,1,0,0,rectangle,9,2,1,0,0,9,2,1,0,0,0,8,8,53,1,,,,,,,,
,,,,,,,,,,,,,FF,,,,,,,,1.4014,,,,,,,,,,,,,,,,,,,,,,5f63b9d3a83a7d0ecdda4eb2,61037757864e7cffc8c688f6,2021-07-29_22h55.54.830,Simcolourproject_2stim_asymm_v5,2020.2.10,Win32,60,61025ae37ef11b136ea224fe,,,,,,,,,3664,24,57,1,0,0,response1disk,,7,5,0,1,0,0,rectangle,5,0,1,0,0,5,0,1,0,0,0,9,9,2,1,,,,,,,,
,,,,,,,,,,,,,FF,,,,,,,,1.4143,,,,,,,,,,,,,,,,,,,,,,5f63b9d3a83a7d0ecdda4eb2,61037757864e7cffc8c688f6,2021-07-29_22h55.54.830,Simcolourproject_2stim_asymm_v5,2020.2.10,Win32,60,61025ae37ef11b136ea224fe,,,,,,,,,3669,-83,-55,1,0,0,response5disk,,2,-10,-3,1,0,0,rectangle,-10,-3,1,0,0,-10,-3,1,0,0,0,10,10,0,1,,,,,,,,
,,,,,,,,,,,,,FF,,,,,,,,1.3875,,,,,,,,,,,,,,,,,,,,,,5f63b9d3a83a7d0ecdda4eb2,61037757864e7cffc8c688f6,2021-07-29_22h55.54.830,Simcolourproject_2stim_asymm_v5,2020.2.10,Win32,60,61025ae37ef11b136ea224fe,,,,,,,,,3107,-32,-70,1,0,0,response5disk,,3,15,4,1,0,0,rectangle,-71,-49,1,0,0,2,3,1,0,0,0,11,11,73,1,,response5disk_3,TRUE,2,2,"[303,145,34,238,138,200,155,23,184,145,306,199,168,76,311,12,239,298,126,181]",2.164,rectangle
,,,,,,,,,,,,,FF,,,,,,,,1.3836,,,,,,,,,,,,,,,,,,,,,,5f63b9d3a83a7d0ecdda4eb2,61037757864e7cffc8c688f6,2021-07-29_22h55.54.830,Simcolourproject_2stim_asymm_v5,2020.2.10,Win32,60,61025ae37ef11b136ea224fe,,,,,,,,,1863,55,95,1,0,0,response1disk,,7,16,2,1,0,0,rectangle,16,2,1,0,0,16,2,1,0,0,0,12,12,140,1,,,,,,,,
,,,,,,,,,,,,,FF,,,,,,,,1.6171,,,,,,,,,,,,,,,,,,,,,,5f63b9d3a83a7d0ecdda4eb2,61037757864e7cffc8c688f6,2021-07-29_22h55.54.830,Simcolourproject_2stim_asymm_v5,2020.2.10,Win32,60,61025ae37ef11b136ea224fe,,,,,,,,,2025,-50,74,1,0,0,response7disk,,0,-3,-3,1,0,0,rectangle,-3,-3,1,0,0,-3,-3,1,0,0,0,13,13,51,1,,,,,,,,
,,,,,,,,,,,,,FF,,,,,,,,1.2507,,,,,,,,,,,,,,,,,,,,,,5f63b9d3a83a7d0ecdda4eb2,61037757864e7cffc8c688f6,2021-07-29_22h55.54.830,Simcolourproject_2stim_asymm_v5,2020.2.10,Win32,60,61025ae37ef11b136ea224fe,,,,,,,,,626,37,55,1,0,0,response1disk,,7,10,-5,1,0,0,rectangle,10,-5,1,0,0,10,-5,1,0,0,0,14,14,94,1,,,,,,,,
,,,,,,,,,,,,,FF,,,,,,,,3.7832,,,,,,,,,,,,,,,,,,,,,,5f63b9d3a83a7d0ecdda4eb2,61037757864e7cffc8c688f6,2021-07-29_22h55.54.830,Simcolourproject_2stim_asymm_v5,2020.2.10,Win32,60,61025ae37ef11b136ea224fe,,,,,,,,,3554,41,-92,1,0,0,response3disk,,4,22,2,1,0,0,rectangle,22,2,1,0,0,22,2,1,0,0,0,15,15,60,1,,,,,,,,
,,,,,,,,,,,,,FF,,,,,,,,1.2666,,,,,,,,,,,,,,,,,,,,,,5f63b9d3a83a7d0ecdda4eb2,61037757864e7cffc8c688f6,2021-07-29_22h55.54.830,Simcolourproject_2stim_asymm_v5,2020.2.10,Win32,60,61025ae37ef11b136ea224fe,,,,,,,,,2219,36,52,1,0,0,response1disk,,7,16,-13,1,0,0,rectangle,16,-13,1,0,0,16,-13,1,0,0,0,16,16,27,1,,,,,,,,
,,,,,,,,,,,,,FF,,,,,,,,1.3668,,,,,,,,,,,,,,,,,,,,,,5f63b9d3a83a7d0ecdda4eb2,61037757864e7cffc8c688f6,2021-07-29_22h55.54.830,Simcolourproject_2stim_asymm_v5,2020.2.10,Win32,60,61025ae37ef11b136ea224fe,,,,,,,,,2648,30,92,1,0,0,response1disk,,7,11,-7,1,0,0,rectangle,11,-7,1,0,0,11,-7,1,0,0,0,17,17,111,1,,,,,,,,
,,,,,,,,,,,,,FF,,,,,,,,1.2163,,,,,,,,,,,,,,,,,,,,,,5f63b9d3a83a7d0ecdda4eb2,61037757864e7cffc8c688f6,2021-07-29_22h55.54.830,Simcolourproject_2stim_asymm_v5,2020.2.10,Win32,60,61025ae37ef11b136ea224fe,,,,,,,,,462,74,26,1,0,0,response1disk,,6,6,-8,1,0,0,rectangle,6,-8,1,0,0,6,-8,1,0,0,0,18,18,154,1,,,,,,,,
,,,,,,,,,,,,,FF,,,,,,,,1.2343,,,,,,,,,,,,,,,,,,,,,,5f63b9d3a83a7d0ecdda4eb2,61037757864e7cffc8c688f6,2021-07-29_22h55.54.830,Simcolourproject_2stim_asymm_v5,2020.2.10,Win32,60,61025ae37ef11b136ea224fe,,,,,,,,,365,36,80,1,0,0,response1disk,,7,14,1,1,0,0,rectangle,14,1,1,0,0,14,1,1,0,0,0,19,19,7,1,,,,,,,,
,,,,,,,,,,,,,FF,,,,,,,,2.2504,,,,,,,,,,,,,,,,,,,,,,5f63b9d3a83a7d0ecdda4eb2,61037757864e7cffc8c688f6,2021-07-29_22h55.54.830,Simcolourproject_2stim_asymm_v5,2020.2.10,Win32,60,61025ae37ef11b136ea224fe,,,,,,,,,2887,-39,-88,1,0,0,response5disk,,3,0,9,1,0,0,rectangle,0,9,1,0,0,0,9,1,0,0,0,20,20,56,1,,,,,,,,
,,,,,,,,,,,,,FF,,,,,,,,1.1166,,,,,,,,,,,,,,,,,,,,,,5f63b9d3a83a7d0ecdda4eb2,61037757864e7cffc8c688f6,2021-07-29_22h55.54.830,Simcolourproject_2stim_asymm_v5,2020.2.10,Win32,60,61025ae37ef11b136ea224fe,,,,,,,,,3314,43,72,1,0,0,response1disk,,7,21,2,1,0,0,rectangle,21,2,1,0,0,21,2,1,0,0,0,21,21,81,1,,,,,,,,
,,,,,,,,,,,,,FF,,,,,,,,3.7167,,,,,,,,,,,,,,,,,,,,,,5f63b9d3a83a7d0ecdda4eb2,61037757864e7cffc8c688f6,2021-07-29_22h55.54.830,Simcolourproject_2stim_asymm_v5,2020.2.10,Win32,60,61025ae37ef11b136ea224fe,,,,,,,,,2895,36,58,1,0,0,response1disk,,7,3,1,1,0,0,rectangle,-58,-45,1,0,0,9,-1,1,0,0,0,22,22,34,1,,response5disk_3,TRUE,2,2,"[303,145,34,238,138,200,155,23,184,145,306,199,168,76,311,12,239,298,126,181]",1.6165,rectangle
,,,,,,,,,,,,,FF,,,,,,,,1.4839,,,,,,,,,,,,,,,,,,,,,,5f63b9d3a83a7d0ecdda4eb2,61037757864e7cffc8c688f6,2021-07-29_22h55.54.830,Simcolourproject_2stim_asymm_v5,2020.2.10,Win32,60,61025ae37ef11b136ea224fe,,,,,,,,,737,105,30,1,0,0,response1disk,,6,-9,-3,1,0,0,rectangle,-9,-3,1,0,0,-9,-3,1,0,0,0,23,23,112,1,,,,,,,,
,,,,,,,,,,,,,FF,,,,,,,,1.1173,,,,,,,,,,,,,,,,,,,,,,5f63b9d3a83a7d0ecdda4eb2,61037757864e7cffc8c688f6,2021-07-29_22h55.54.830,Simcolourproject_2stim_asymm_v5,2020.2.10,Win32,60,61025ae37ef11b136ea224fe,,,,,,,,,779,19,73,1,0,0,response1disk,,7,-1,2,1,0,0,rectangle,-1,2,1,0,0,-1,2,1,0,0,0,24,24,65,1,,,,,,,,
,,,,,,,,,,,,,FF,,,,,,,,1.5671,,,,,,,,,,,,,,,,,,,,,,5f63b9d3a83a7d0ecdda4eb2,61037757864e7cffc8c688f6,2021-07-29_22h55.54.830,Simcolourproject_2stim_asymm_v5,2020.2.10,Win32,60,61025ae37ef11b136ea224fe,,,,,,,,,3081,24,38,1,0,0,response1disk,,7,5,-10,1,0,0,rectangle,5,-10,1,0,0,5,-10,1,0,0,0,25,25,74,1,,,,,,,,
,,,,,,,,,,,,,FF,,,,,,,,1.0983,,,,,,,,,,,,,,,,,,,,,,5f63b9d3a83a7d0ecdda4eb2,61037757864e7cffc8c688f6,2021-07-29_22h55.54.830,Simcolourproject_2stim_asymm_v5,2020.2.10,Win32,60,61025ae37ef11b136ea224fe,,,,,,,,,3317,25,71,1,0,0,response1disk,,7,5,4,1,0,0,rectangle,5,4,1,0,0,5,4,1,0,0,0,26,26,129,1,,,,,,,,
,,,,,,,,,,,,,FF,,,,,,,,2.7507,,,,,,,,,,,,,,,,,,,,,,5f63b9d3a83a7d0ecdda4eb2,61037757864e7cffc8c688f6,2021-07-29_22h55.54.830,Simcolourproject_2stim_asymm_v5,2020.2.10,Win32,60,61025ae37ef11b136ea224fe,,,,,,,,,969,-68,-45,1,0,0,response5disk,,2,-8,-2,1,0,0,rectangle,-8,-2,1,0,0,-8,-2,1,0,0,0,27,27,99,1,,,,,,,,
,,,,,,,,,,,,,FF,,,,,,,,2.484,,,,,,,,,,,,,,,,,,,,,,5f63b9d3a83a7d0ecdda4eb2,61037757864e7cffc8c688f6,2021-07-29_22h55.54.830,Simcolourproject_2stim_asymm_v5,2020.2.10,Win32,60,61025ae37ef11b136ea224fe,,,,,,,,,2792,105,33,1,0,0,response1disk,,6,21,3,1,0,0,rectangle,21,3,1,0,0,21,3,1,0,0,0,28,28,70,1,,,,,,,,
,,,,,,,,,,,,,FF,,,,,,,,1.2489,,,,,,,,,,,,,,,,,,,,,,5f63b9d3a83a7d0ecdda4eb2,61037757864e7cffc8c688f6,2021-07-29_22h55.54.830,Simcolourproject_2stim_asymm_v5,2020.2.10,Win32,60,61025ae37ef11b136ea224fe,,,,,,,,,952,31,61,1,0,0,response1disk,,7,14,3,1,0,0,rectangle,14,3,1,0,0,14,3,1,0,0,0,29,29,142,1,,,,,,,,
,,,,,,,,,,,,,FF,,,,,,,,1.067,,,,,,,,,,,,,,,,,,,,,,5f63b9d3a83a7d0ecdda4eb2,61037757864e7cffc8c688f6,2021-07-29_22h55.54.830,Simcolourproject_2stim_asymm_v5,2020.2.10,Win32,60,61025ae37ef11b136ea224fe,,,,,,,,,780,32,61,1,0,0,response1disk,,7,5,0,1,0,0,rectangle,5,0,1,0,0,5,0,1,0,0,0,30,30,98,1,,,,,,,,
,,,,,,,,,,,,,FF,,,,,,,,1.0504,,,,,,,,,,,,,,,,,,,,,,5f63b9d3a83a7d0ecdda4eb2,61037757864e7cffc8c688f6,2021-07-29_22h55.54.830,Simcolourproject_2stim_asymm_v5,2020.2.10,Win32,60,61025ae37ef11b136ea224fe,,,,,,,,,3316,23,65,1,0,0,response1disk,,7,6,5,1,0,0,rectangle,6,5,1,0,0,6,5,1,0,0,0,31,31,121,1,,,,,,,,
,,,,,,,,,,,,,FF,,,,,,,,3.9143,,,,,,,,,,,,,,,,,,,,,,5f63b9d3a83a7d0ecdda4eb2,61037757864e7cffc8c688f6,2021-07-29_22h55.54.830,Simcolourproject_2stim_asymm_v5,2020.2.10,Win32,60,61025ae37ef11b136ea224fe,,,,,,,,,3098,-55,-81,1,0,0,response5disk,,3,7,-8,1,0,0,rectangle,7,-8,1,0,0,7,-8,1,0,0,0,32,32,119,1,,,,,,,,
,,,,,,,,,,,,,FF,,,,,,,,1.054,,,,,,,,,,,,,,,,,,,,,,5f63b9d3a83a7d0ecdda4eb2,61037757864e7cffc8c688f6,2021-07-29_22h55.54.830,Simcolourproject_2stim_asymm_v5,2020.2.10,Win32,60,61025ae37ef11b136ea224fe,,,,,,,,,306,24,67,1,0,0,response1disk,,7,10,-5,1,0,0,rectangle,-60,-30,1,0,0,-13,2,1,0,0,0,33,33,55,1,,response5disk_3,TRUE,2,2,"[303,145,34,238,138,200,155,23,184,145,306,199,168,76,311,12,239,298,126,181]",1.7708,rectangle
,,,,,,,,,,,,,FF,,,,,,,,3.8477,,,,,,,,,,,,,,,,,,,,,,5f63b9d3a83a7d0ecdda4eb2,61037757864e7cffc8c688f6,2021-07-29_22h55.54.830,Simcolourproject_2stim_asymm_v5,2020.2.10,Win32,60,61025ae37ef11b136ea224fe,,,,,,,,,1309,63,-48,1,0,0,response3disk,,5,-13,-8,1,0,0,rectangle,-13,-8,1,0,0,-13,-8,1,0,0,0,34,34,67,1,,,,,,,,
,,,,,,,,,,,,,FF,,,,,,,,2.351,,,,,,,,,,,,,,,,,,,,,,5f63b9d3a83a7d0ecdda4eb2,61037757864e7cffc8c688f6,2021-07-29_22h55.54.830,Simcolourproject_2stim_asymm_v5,2020.2.10,Win32,60,61025ae37ef11b136ea224fe,,,,,,,,,1232,23,-95,1,0,0,response3disk,,4,20,3,1,0,0,rectangle,20,3,1,0,0,20,3,1,0,0,0,35,35,41,1,,,,,,,,
,,,,,,,,,,,,,FF,,,,,,,,1.3341,,,,,,,,,,,,,,,,,,,,,,5f63b9d3a83a7d0ecdda4eb2,61037757864e7cffc8c688f6,2021-07-29_22h55.54.830,Simcolourproject_2stim_asymm_v5,2020.2.10,Win32,60,61025ae37ef11b136ea224fe,,,,,,,,,2779,62,90,1,0,0,response1disk,,7,23,8,1,0,0,rectangle,23,8,1,0,0,23,8,1,0,0,0,36,36,126,1,,,,,,,,
,,,,,,,,,,,,,FF,,,,,,,,1.2199,,,,,,,,,,,,,,,,,,,,,,5f63b9d3a83a7d0ecdda4eb2,61037757864e7cffc8c688f6,2021-07-29_22h55.54.830,Simcolourproject_2stim_asymm_v5,2020.2.10,Win32,60,61025ae37ef11b136ea224fe,,,,,,,,,804,-42,-99,1,0,0,response5disk,,3,-1,-3,1,0,0,rectangle,-1,-3,1,0,0,-1,-3,1,0,0,0,37,37,21,1,,,,,,,,
,,,,,,,,,,,,,FF,,,,,,,,1.2174,,,,,,,,,,,,,,,,,,,,,,5f63b9d3a83a7d0ecdda4eb2,61037757864e7cffc8c688f6,2021-07-29_22h55.54.830,Simcolourproject_2stim_asymm_v5,2020.2.10,Win32,60,61025ae37ef11b136ea224fe,,,,,,,,,2327,32,56,1,0,0,response1disk,,7,9,-6,1,0,0,rectangle,9,-6,1,0,0,9,-6,1,0,0,0,38,38,25,1,,,,,,,,
,,,,,,,,,,,,,FF,,,,,,,,3.9184,,,,,,,,,,,,,,,,,,,,,,5f63b9d3a83a7d0ecdda4eb2,61037757864e7cffc8c688f6,2021-07-29_22h55.54.830,Simcolourproject_2stim_asymm_v5,2020.2.10,Win32,60,61025ae37ef11b136ea224fe,,,,,,,,,3158,75,-26,1,0,0,response3disk,,5,-18,-3,1,0,0,rectangle,-18,-3,1,0,0,-18,-3,1,0,0,0,39,39,135,1,,,,,,,,
,,,,,,,,,,,,,FF,,,,,,,,1.3336,,,,,,,,,,,,,,,,,,,,,,5f63b9d3a83a7d0ecdda4eb2,61037757864e7cffc8c688f6,2021-07-29_22h55.54.830,Simcolourproject_2stim_asymm_v5,2020.2.10,Win32,60,61025ae37ef11b136ea224fe,,,,,,,,,267,37,61,1,0,0,response1disk,,7,-23,7,1,0,0,rectangle,-23,7,1,0,0,-23,7,1,0,0,0,40,40,131,1,,,,,,,,
,,,,,,,,,,,,,FF,,,,,,,,1.3224,,,,,,,,,,,,,,,,,,,,,,5f63b9d3a83a7d0ecdda4eb2,61037757864e7cffc8c688f6,2021-07-29_22h55.54.830,Simcolourproject_2stim_asymm_v5,2020.2.10,Win32,60,61025ae37ef11b136ea224fe,,,,,,,,,2698,29,74,1,0,0,response1disk,,7,13,0,1,0,0,rectangle,13,0,1,0,0,13,0,1,0,0,0,41,41,136,1,,,,,,,,
,,,,,,,,,,,,,FF,,,,,,,,2.2171,,,,,,,,,,,,,,,,,,,,,,5f63b9d3a83a7d0ecdda4eb2,61037757864e7cffc8c688f6,2021-07-29_22h55.54.830,Simcolourproject_2stim_asymm_v5,2020.2.10,Win32,60,61025ae37ef11b136ea224fe,,,,,,,,,888,-28,-100,1,0,0,response5disk,,3,6,9,1,0,0,rectangle,6,9,1,0,0,6,9,1,0,0,0,42,42,84,1,,,,,,,,
,,,,,,,,,,,,,FF,,,,,,,,2.152,,,,,,,,,,,,,,,,,,,,,,5f63b9d3a83a7d0ecdda4eb2,61037757864e7cffc8c688f6,2021-07-29_22h55.54.830,Simcolourproject_2stim_asymm_v5,2020.2.10,Win32,60,61025ae37ef11b136ea224fe,,,,,,,,,2155,33,63,1,0,0,response1disk,,7,11,5,1,0,0,rectangle,11,5,1,0,0,11,5,1,0,0,0,43,43,132,1,,,,,,,,
,,,,,,,,,,,,,FF,,,,,,,,2.017,,,,,,,,,,,,,,,,,,,,,,5f63b9d3a83a7d0ecdda4eb2,61037757864e7cffc8c688f6,2021-07-29_22h55.54.830,Simcolourproject_2stim_asymm_v5,2020.2.10,Win32,60,61025ae37ef11b136ea224fe,,,,,,,,,281,23,-80,1,0,0,response3disk,,4,12,4,1,0,0,rectangle,12,4,1,0,0,12,4,1,0,0,0,44,44,144,1,,,,,,,,
,,,,,,,,,,,,,FF,,,,,,,,1.2841,,,,,,,,,,,,,,,,,,,,,,5f63b9d3a83a7d0ecdda4eb2,61037757864e7cffc8c688f6,2021-07-29_22h55.54.830,Simcolourproject_2stim_asymm_v5,2020.2.10,Win32,60,61025ae37ef11b136ea224fe,,,,,,,,,168,41,62,1,0,0,response1disk,,7,3,-15,1,0,0,rectangle,3,-15,1,0,0,3,-15,1,0,0,0,45,45,46,1,,,,,,,,
,,,,,,,,,,,,,FF,,,,,,,,1.0172,,,,,,,,,,,,,,,,,,,,,,5f63b9d3a83a7d0ecdda4eb2,61037757864e7cffc8c688f6,2021-07-29_22h55.54.830,Simcolourproject_2stim_asymm_v5,2020.2.10,Win32,60,61025ae37ef11b136ea224fe,,,,,,,,,320,24,59,1,0,0,response1disk,,7,6,0,1,0,0,rectangle,6,0,1,0,0,6,0,1,0,0,0,46,46,104,1,,,,,,,,
,,,,,,,,,,,,,FF,,,,,,,,0.9505,,,,,,,,,,,,,,,,,,,,,,5f63b9d3a83a7d0ecdda4eb2,61037757864e7cffc8c688f6,2021-07-29_22h55.54.830,Simcolourproject_2stim_asymm_v5,2020.2.10,Win32,60,61025ae37ef11b136ea224fe,,,,,,,,,3315,26,58,1,0,0,response1disk,,7,17,-4,1,0,0,rectangle,17,-4,1,0,0,17,-4,1,0,0,0,47,47,43,1,,,,,,,,
,,,,,,,,,,,,,FF,,,,,,,,2.1668,,,,,,,,,,,,,,,,,,,,,,5f63b9d3a83a7d0ecdda4eb2,61037757864e7cffc8c688f6,2021-07-29_22h55.54.830,Simcolourproject_2stim_asymm_v5,2020.2.10,Win32,60,61025ae37ef11b136ea224fe,,,,,,,,,3977,28,-91,1,0,0,response3disk,,4,12,-7,1,0,0,rectangle,12,-7,1,0,0,12,-7,1,0,0,0,48,48,28,1,,,,,,,,
,,,,,,,,,,,,,FF,,,,,,,,3.017,,,,,,,,,,,,,,,,,,,,,,5f63b9d3a83a7d0ecdda4eb2,61037757864e7cffc8c688f6,2021-07-29_22h55.54.830,Simcolourproject_2stim_asymm_v5,2020.2.10,Win32,60,61025ae37ef11b136ea224fe,,,,,,,,,2660,50,-86,1,0,0,response3disk,,4,4,-3,1,0,0,rectangle,4,-3,1,0,0,4,-3,1,0,0,0,49,49,116,1,,,,,,,,
,,,,,,,,,,,,,FF,,,,,,,,0.9872,,,,,,,,,,,,,,,,,,,,,,5f63b9d3a83a7d0ecdda4eb2,61037757864e7cffc8c688f6,2021-07-29_22h55.54.830,Simcolourproject_2stim_asymm_v5,2020.2.10,Win32,60,61025ae37ef11b136ea224fe,,,,,,,,,698,32,57,1,0,0,response1disk,,7,2,2,1,0,0,rectangle,2,2,1,0,0,2,2,1,0,0,0,50,50,68,1,,,,,,,,
,,,,,,,,,,,,,FF,,,,,,,,0.9513,,,,,,,,,,,,,,,,,,,,,,5f63b9d3a83a7d0ecdda4eb2,61037757864e7cffc8c688f6,2021-07-29_22h55.54.830,Simcolourproject_2stim_asymm_v5,2020.2.10,Win32,60,61025ae37ef11b136ea224fe,,,,,,,,,1344,35,90,1,0,0,response1disk,,7,-3,-1,1,0,0,rectangle,-3,-1,1,0,0,-3,-1,1,0,0,0,51,51,134,1,,,,,,,,
,,,,,,,,,,,,,FF,,,,,,,,1.7697,,,,,,,,,,,,,,,,,,,,,,5f63b9d3a83a7d0ecdda4eb2,61037757864e7cffc8c688f6,2021-07-29_22h55.54.830,Simcolourproject_2stim_asymm_v5,2020.2.10,Win32,60,61025ae37ef11b136ea224fe,,,,,,,,,1241,-29,-70,1,0,0,response5disk,,3,10,-3,1,0,0,rectangle,10,-3,1,0,0,10,-3,1,0,0,0,52,52,87,1,,,,,,,,
,,,,,,,,,,,,,FF,,,,,,,,2.1987,,,,,,,,,,,,,,,,,,,,,,5f63b9d3a83a7d0ecdda4eb2,61037757864e7cffc8c688f6,2021-07-29_22h55.54.830,Simcolourproject_2stim_asymm_v5,2020.2.10,Win32,60,61025ae37ef11b136ea224fe,,,,,,,,,1362,72,43,1,0,0,response1disk,,6,16,3,1,0,0,rectangle,16,3,1,0,0,16,3,1,0,0,0,53,53,86,1,,,,,,,,
,,,,,,,,,,,,,FF,,,,,,,,2.7181,,,,,,,,,,,,,,,,,,,,,,5f63b9d3a83a7d0ecdda4eb2,61037757864e7cffc8c688f6,2021-07-29_22h55.54.830,Simcolourproject_2stim_asymm_v5,2020.2.10,Win32,60,61025ae37ef11b136ea224fe,,,,,,,,,2817,42,-81,1,0,0,response3disk,,4,18,3,1,0,0,rectangle,18,3,1,0,0,18,3,1,0,0,0,54,54,101,1,,,,,,,,
,,,,,,,,,,,,,FF,,,,,,,,1.0842,,,,,,,,,,,,,,,,,,,,,,5f63b9d3a83a7d0ecdda4eb2,61037757864e7cffc8c688f6,2021-07-29_22h55.54.830,Simcolourproject_2stim_asymm_v5,2020.2.10,Win32,60,61025ae37ef11b136ea224fe,,,,,,,,,1999,29,53,1,0,0,response1disk,,7,4,-3,1,0,0,rectangle,4,-3,1,0,0,4,-3,1,0,0,0,55,55,151,1,,,,,,,,
,,,,,,,,,,,,,FF,,,,,,,,1.2004,,,,,,,,,,,,,,,,,,,,,,5f63b9d3a83a7d0ecdda4eb2,61037757864e7cffc8c688f6,2021-07-29_22h55.54.830,Simcolourproject_2stim_asymm_v5,2020.2.10,Win32,60,61025ae37ef11b136ea224fe,,,,,,,,,4108,42,58,1,0,0,response1disk,,7,12,0,1,0,0,rectangle,12,0,1,0,0,12,0,1,0,0,0,56,56,139,1,,,,,,,,
,,,,,,,,,,,,,FF,,,,,,,,1.0172,,,,,,,,,,,,,,,,,,,,,,5f63b9d3a83a7d0ecdda4eb2,61037757864e7cffc8c688f6,2021-07-29_22h55.54.830,Simcolourproject_2stim_asymm_v5,2020.2.10,Win32,60,61025ae37ef11b136ea224fe,,,,,,,,,650,39,79,1,0,0,response1disk,,7,-12,-3,1,0,0,rectangle,-12,-3,1,0,0,-12,-3,1,0,0,0,57,57,115,1,,,,,,,,
,,,,,,,,,,,,,FF,,,,,,,,1.5178,,,,,,,,,,,,,,,,,,,,,,5f63b9d3a83a7d0ecdda4eb2,61037757864e7cffc8c688f6,2021-07-29_22h55.54.830,Simcolourproject_2stim_asymm_v5,2020.2.10,Win32,60,61025ae37ef11b136ea224fe,,,,,,,,,68,53,73,1,0,0,response1disk,,7,1,-6,1,0,0,rectangle,1,-6,1,0,0,1,-6,1,0,0,0,58,58,105,1,,,,,,,,
,,,,,,,,,,,,,FF,,,,,,,,0.9845,,,,,,,,,,,,,,,,,,,,,,5f63b9d3a83a7d0ecdda4eb2,61037757864e7cffc8c688f6,2021-07-29_22h55.54.830,Simcolourproject_2stim_asymm_v5,2020.2.10,Win32,60,61025ae37ef11b136ea224fe,,,,,,,,,3498,42,103,1,0,0,response1disk,,7,-5,8,1,0,0,rectangle,-5,8,1,0,0,-5,8,1,0,0,0,59,59,3,1,,,,,,,,
,,,,,,,,,,,,,FF,,,,,,,,2.2346,,,,,,,,,,,,,,,,,,,,,,5f63b9d3a83a7d0ecdda4eb2,61037757864e7cffc8c688f6,2021-07-29_22h55.54.830,Simcolourproject_2stim_asymm_v5,2020.2.10,Win32,60,61025ae37ef11b136ea224fe,,,,,,,,,1652,81,49,1,0,0,response1disk,,6,18,11,1,0,0,rectangle,18,11,1,0,0,18,11,1,0,0,0,60,60,157,1,,,,,,,,
,,,,,,,,,,,,,FF,,,,,,,,1.268,,,,,,,,,,,,,,,,,,,,,,5f63b9d3a83a7d0ecdda4eb2,61037757864e7cffc8c688f6,2021-07-29_22h55.54.830,Simcolourproject_2stim_asymm_v5,2020.2.10,Win32,60,61025ae37ef11b136ea224fe,,,,,,,,,117,41,96,1,0,0,response1disk,,7,0,2,1,0,0,rectangle,0,2,1,0,0,0,2,1,0,0,0,61,61,106,1,,,,,,,,
,,,,,,,,,,,,,FF,,,,,,,,0.9174,,,,,,,,,,,,,,,,,,,,,,5f63b9d3a83a7d0ecdda4eb2,61037757864e7cffc8c688f6,2021-07-29_22h55.54.830,Simcolourproject_2stim_asymm_v5,2020.2.10,Win32,60,61025ae37ef11b136ea224fe,,,,,,,,,2144,21,87,1,0,0,response1disk,,7,-20,15,1,0,0,rectangle,-20,15,1,0,0,-20,15,1,0,0,0,62,62,20,1,,,,,,,,
,,,,,,,,,,,,,FF,,,,,,,,1.0499,,,,,,,,,,,,,,,,,,,,,,5f63b9d3a83a7d0ecdda4eb2,61037757864e7cffc8c688f6,2021-07-29_22h55.54.830,Simcolourproject_2stim_asymm_v5,2020.2.10,Win32,60,61025ae37ef11b136ea224fe,,,,,,,,,370,22,69,1,0,0,response1disk,,7,-29,5,1,0,0,rectangle,-29,5,1,0,0,-29,5,1,0,0,0,63,63,13,1,,,,,,,,
,,,,,,,,,,,,,FF,,,,,,,,1.9838,,,,,,,,,,,,,,,,,,,,,,5f63b9d3a83a7d0ecdda4eb2,61037757864e7cffc8c688f6,2021-07-29_22h55.54.830,Simcolourproject_2stim_asymm_v5,2020.2.10,Win32,60,61025ae37ef11b136ea224fe,,,,,,,,,3295,-27,-82,1,0,0,response5disk,,3,7,-2,1,0,0,rectangle,7,-2,1,0,0,7,-2,1,0,0,0,64,64,103,1,,,,,,,,
,,,,,,,,,,,,,FF,,,,,,,,2.067,,,,,,,,,,,,,,,,,,,,,,5f63b9d3a83a7d0ecdda4eb2,61037757864e7cffc8c688f6,2021-07-29_22h55.54.830,Simcolourproject_2stim_asymm_v5,2020.2.10,Win32,60,61025ae37ef11b136ea224fe,,,,,,,,,3097,-80,-36,1,0,0,response5disk,,2,-6,1,1,0,0,rectangle,-6,1,1,0,0,-6,1,1,0,0,0,65,65,8,1,,,,,,,,
,,,,,,,,,,,,,FF,,,,,,,,1.6001,,,,,,,,,,,,,,,,,,,,,,5f63b9d3a83a7d0ecdda4eb2,61037757864e7cffc8c688f6,2021-07-29_22h55.54.830,Simcolourproject_2stim_asymm_v5,2020.2.10,Win32,60,61025ae37ef11b136ea224fe,,,,,,,,,2285,103,-52,1,0,0,response3disk,,5,-9,-7,1,0,0,rectangle,-9,-7,1,0,0,-9,-7,1,0,0,0,66,66,71,1,,,,,,,,
,,,,,,,,,,,,,FF,,,,,,,,1.0365,,,,,,,,,,,,,,,,,,,,,,5f63b9d3a83a7d0ecdda4eb2,61037757864e7cffc8c688f6,2021-07-29_22h55.54.830,Simcolourproject_2stim_asymm_v5,2020.2.10,Win32,60,61025ae37ef11b136ea224fe,,,,,,,,,1867,52,43,1,0,0,response1disk,,6,5,0,1,0,0,rectangle,5,0,1,0,0,5,0,1,0,0,0,67,67,90,1,,,,,,,,
,,,,,,,,,,,,,FF,,,,,,,,0.9839,,,,,,,,,,,,,,,,,,,,,,5f63b9d3a83a7d0ecdda4eb2,61037757864e7cffc8c688f6,2021-07-29_22h55.54.830,Simcolourproject_2stim_asymm_v5,2020.2.10,Win32,60,61025ae37ef11b136ea224fe,,,,,,,,,3618,29,53,1,0,0,response1disk,,7,7,1,1,0,0,rectangle,7,1,1,0,0,7,1,1,0,0,0,68,68,66,1,,,,,,,,
,,,,,,,,,,,,,FF,,,,,,,,1.0827,,,,,,,,,,,,,,,,,,,,,,5f63b9d3a83a7d0ecdda4eb2,61037757864e7cffc8c688f6,2021-07-29_22h55.54.830,Simcolourproject_2stim_asymm_v5,2020.2.10,Win32,60,61025ae37ef11b136ea224fe,,,,,,,,,1193,47,64,1,0,0,response1disk,,7,14,6,1,0,0,rectangle,14,6,1,0,0,14,6,1,0,0,0,69,69,30,1,,,,,,,,
,,,,,,,,,,,,,FF,,,,,,,,2.0502,,,,,,,,,,,,,,,,,,,,,,5f63b9d3a83a7d0ecdda4eb2,61037757864e7cffc8c688f6,2021-07-29_22h55.54.830,Simcolourproject_2stim_asymm_v5,2020.2.10,Win32,60,61025ae37ef11b136ea224fe,,,,,,,,,1326,50,65,1,0,0,response1disk,,7,16,-7,1,0,0,rectangle,16,-7,1,0,0,16,-7,1,0,0,0,70,70,122,1,,,,,,,,
,,,,,,,,,,,,,FF,,,,,,,,2.3038,,,,,,,,,,,,,,,,,,,,,,5f63b9d3a83a7d0ecdda4eb2,61037757864e7cffc8c688f6,2021-07-29_22h55.54.830,Simcolourproject_2stim_asymm_v5,2020.2.10,Win32,60,61025ae37ef11b136ea224fe,,,,,,,,,1528,80,45,1,0,0,response1disk,,6,12,-10,1,0,0,rectangle,12,-10,1,0,0,12,-10,1,0,0,0,71,71,123,1,,,,,,,,
,,,,,,,,,,,,,FF,,,,,,,,1.7005,,,,,,,,,,,,,,,,,,,,,,5f63b9d3a83a7d0ecdda4eb2,61037757864e7cffc8c688f6,2021-07-29_22h55.54.830,Simcolourproject_2stim_asymm_v5,2020.2.10,Win32,60,61025ae37ef11b136ea224fe,,,,,,,,,1902,74,25,1,0,0,response1disk,,6,23,5,1,0,0,rectangle,23,5,1,0,0,23,5,1,0,0,0,72,72,85,1,,,,,,,,
,,,,,,,,,,,,,FF,,,,,,,,2.5158,,,,,,,,,,,,,,,,,,,,,,5f63b9d3a83a7d0ecdda4eb2,61037757864e7cffc8c688f6,2021-07-29_22h55.54.830,Simcolourproject_2stim_asymm_v5,2020.2.10,Win32,60,61025ae37ef11b136ea224fe,,,,,,,,,999,32,-86,1,0,0,response3disk,,4,21,-3,1,0,0,rectangle,21,-3,1,0,0,21,-3,1,0,0,0,73,73,158,1,,,,,,,,
,,,,,,,,,,,,,FF,,,,,,,,1.7677,,,,,,,,,,,,,,,,,,,,,,5f63b9d3a83a7d0ecdda4eb2,61037757864e7cffc8c688f6,2021-07-29_22h55.54.830,Simcolourproject_2stim_asymm_v5,2020.2.10,Win32,60,61025ae37ef11b136ea224fe,,,,,,,,,2149,73,-41,1,0,0,response3disk,,5,22,-3,1,0,0,rectangle,22,-3,1,0,0,22,-3,1,0,0,0,74,74,152,1,,,,,,,,
,,,,,,,,,,,,,FF,,,,,,,,1.349,,,,,,,,,,,,,,,,,,,,,,5f63b9d3a83a7d0ecdda4eb2,61037757864e7cffc8c688f6,2021-07-29_22h55.54.830,Simcolourproject_2stim_asymm_v5,2020.2.10,Win32,60,61025ae37ef11b136ea224fe,,,,,,,,,3351,35,91,1,0,0,response1disk,,7,14,3,1,0,0,rectangle,-33,89,1,0,0,10,-5,1,0,0,0,75,75,6,1,,response7disk_3,TRUE,0,0,"[303,145,34,238,138,200,155,23,184,145,306,199,168,76,311,12,239,298,126,181]",2.2163,rectangle
,,,,,,,,,,,,,FF,,,,,,,,2.2851,,,,,,,,,,,,,,,,,,,,,,5f63b9d3a83a7d0ecdda4eb2,61037757864e7cffc8c688f6,2021-07-29_22h55.54.830,Simcolourproject_2stim_asymm_v5,2020.2.10,Win32,60,61025ae37ef11b136ea224fe,,,,,,,,,670,64,37,1,0,0,response1disk,,6,17,10,1,0,0,rectangle,17,10,1,0,0,17,10,1,0,0,0,76,76,88,1,,,,,,,,
,,,,,,,,,,,,,FF,,,,,,,,11.0822,,,,,,,,,,,,,,,,,,,,,,5f63b9d3a83a7d0ecdda4eb2,61037757864e7cffc8c688f6,2021-07-29_22h55.54.830,Simcolourproject_2stim_asymm_v5,2020.2.10,Win32,60,61025ae37ef11b136ea224fe,,,,,,,,,3661,40,-86,1,0,0,response3disk,,4,20,-8,1,0,0,rectangle,20,-8,1,0,0,20,-8,1,0,0,0,77,77,57,1,,,,,,,,
,,,,,,,,,,,,,FF,,,,,,,,1.3682,,,,,,,,,,,,,,,,,,,,,,5f63b9d3a83a7d0ecdda4eb2,61037757864e7cffc8c688f6,2021-07-29_22h55.54.830,Simcolourproject_2stim_asymm_v5,2020.2.10,Win32,60,61025ae37ef11b136ea224fe,,,,,,,,,1742,41,93,1,0,0,response1disk,,7,10,-4,1,0,0,rectangle,10,-4,1,0,0,10,-4,1,0,0,0,78,78,153,1,,,,,,,,
,,,,,,,,,,,,,FF,,,,,,,,1.834,,,,,,,,,,,,,,,,,,,,,,5f63b9d3a83a7d0ecdda4eb2,61037757864e7cffc8c688f6,2021-07-29_22h55.54.830,Simcolourproject_2stim_asymm_v5,2020.2.10,Win32,60,61025ae37ef11b136ea224fe,,,,,,,,,92,51,-87,1,0,0,response3disk,,4,12,-10,1,0,0,rectangle,12,-10,1,0,0,12,-10,1,0,0,0,79,79,1,1,,,,,,,,
,,,,,,,,,,,,,FF,,,,,,,,2.8842,,,,,,,,,,,,,,,,,,,,,,5f63b9d3a83a7d0ecdda4eb2,61037757864e7cffc8c688f6,2021-07-29_22h55.54.830,Simcolourproject_2stim_asymm_v5,2020.2.10,Win32,60,61025ae37ef11b136ea224fe,,,,,,,,,2548,-53,-79,1,0,0,response5disk,,3,2,-4,1,0,0,rectangle,2,-4,1,0,0,2,-4,1,0,0,0,80,80,47,1,,,,,,,,
,,,,,,,,,,,,,FF,,,,,,,,3.45,,,,,,,,,,,,,,,,,,,,,,5f63b9d3a83a7d0ecdda4eb2,61037757864e7cffc8c688f6,2021-07-29_22h55.54.830,Simcolourproject_2stim_asymm_v5,2020.2.10,Win32,60,61025ae37ef11b136ea224fe,,,,,,,,,1711,72,-33,1,0,0,response3disk,,5,12,-2,1,0,0,rectangle,12,-2,1,0,0,12,-2,1,0,0,0,81,81,95,1,,,,,,,,
,,,,,,,,,,,,,FF,,,,,,,,2.3163,,,,,,,,,,,,,,,,,,,,,,5f63b9d3a83a7d0ecdda4eb2,61037757864e7cffc8c688f6,2021-07-29_22h55.54.830,Simcolourproject_2stim_asymm_v5,2020.2.10,Win32,60,61025ae37ef11b136ea224fe,,,,,,,,,18,94,61,1,0,0,response1disk,,6,14,-5,1,0,0,rectangle,14,-5,1,0,0,14,-5,1,0,0,0,82,82,148,1,,,,,,,,
,,,,,,,,,,,,,FF,,,,,,,,2.1526,,,,,,,,,,,,,,,,,,,,,,5f63b9d3a83a7d0ecdda4eb2,61037757864e7cffc8c688f6,2021-07-29_22h55.54.830,Simcolourproject_2stim_asymm_v5,2020.2.10,Win32,60,61025ae37ef11b136ea224fe,,,,,,,,,3088,58,37,1,0,0,response1disk,,6,-6,-3,1,0,0,rectangle,-6,-3,1,0,0,-6,-3,1,0,0,0,83,83,76,1,,,,,,,,
,,,,,,,,,,,,,FF,,,,,,,,2.3009,,,,,,,,,,,,,,,,,,,,,,5f63b9d3a83a7d0ecdda4eb2,61037757864e7cffc8c688f6,2021-07-29_22h55.54.830,Simcolourproject_2stim_asymm_v5,2020.2.10,Win32,60,61025ae37ef11b136ea224fe,,,,,,,,,2845,59,-68,1,0,0,response3disk,,4,11,4,1,0,0,rectangle,11,4,1,0,0,11,4,1,0,0,0,84,84,49,1,,,,,,,,
,,,,,,,,,,,,,FF,,,,,,,,1.7818,,,,,,,,,,,,,,,,,,,,,,5f63b9d3a83a7d0ecdda4eb2,61037757864e7cffc8c688f6,2021-07-29_22h55.54.830,Simcolourproject_2stim_asymm_v5,2020.2.10,Win32,60,61025ae37ef11b136ea224fe,,,,,,,,,1502,81,-39,1,0,0,response3disk,,5,18,-3,1,0,0,rectangle,18,-3,1,0,0,18,-3,1,0,0,0,85,85,37,1,,,,,,,,
,,,,,,,,,,,,,FF,,,,,,,,1.3376,,,,,,,,,,,,,,,,,,,,,,5f63b9d3a83a7d0ecdda4eb2,61037757864e7cffc8c688f6,2021-07-29_22h55.54.830,Simcolourproject_2stim_asymm_v5,2020.2.10,Win32,60,61025ae37ef11b136ea224fe,,,,,,,,,1487,66,92,1,0,0,response1disk,,7,8,2,1,0,0,rectangle,8,2,1,0,0,8,2,1,0,0,0,86,86,108,1,,,,,,,,
,,,,,,,,,,,,,FF,,,,,,,,1.2489,,,,,,,,,,,,,,,,,,,,,,5f63b9d3a83a7d0ecdda4eb2,61037757864e7cffc8c688f6,2021-07-29_22h55.54.830,Simcolourproject_2stim_asymm_v5,2020.2.10,Win32,60,61025ae37ef11b136ea224fe,,,,,,,,,1088,21,52,1,0,0,response1disk,,7,11,-1,1,0,0,rectangle,11,-1,1,0,0,11,-1,1,0,0,0,87,87,31,1,,,,,,,,
,,,,,,,,,,,,,FF,,,,,,,,1.7836,,,,,,,,,,,,,,,,,,,,,,5f63b9d3a83a7d0ecdda4eb2,61037757864e7cffc8c688f6,2021-07-29_22h55.54.830,Simcolourproject_2stim_asymm_v5,2020.2.10,Win32,60,61025ae37ef11b136ea224fe,,,,,,,,,2745,92,39,1,0,0,response1disk,,6,19,-5,1,0,0,rectangle,19,-5,1,0,0,19,-5,1,0,0,0,88,88,16,1,,,,,,,,
,,,,,,,,,,,,,FF,,,,,,,,1.0548,,,,,,,,,,,,,,,,,,,,,,5f63b9d3a83a7d0ecdda4eb2,61037757864e7cffc8c688f6,2021-07-29_22h55.54.830,Simcolourproject_2stim_asymm_v5,2020.2.10,Win32,60,61025ae37ef11b136ea224fe,,,,,,,,,2003,21,55,1,0,0,response1disk,,7,9,-5,1,0,0,rectangle,9,-5,1,0,0,9,-5,1,0,0,0,89,89,120,1,,,,,,,,
,,,,,,,,,,,,,FF,,,,,,,,1.9702,,,,,,,,,,,,,,,,,,,,,,5f63b9d3a83a7d0ecdda4eb2,61037757864e7cffc8c688f6,2021-07-29_22h55.54.830,Simcolourproject_2stim_asymm_v5,2020.2.10,Win32,60,61025ae37ef11b136ea224fe,,,,,,,,,343,36,-74,1,0,0,response3disk,,4,28,-7,1,0,0,rectangle,28,-7,1,0,0,28,-7,1,0,0,0,90,90,150,1,,,,,,,,
,,,,,,,,,,,,,FF,,,,,,,,1.9045,,,,,,,,,,,,,,,,,,,,,,5f63b9d3a83a7d0ecdda4eb2,61037757864e7cffc8c688f6,2021-07-29_22h55.54.830,Simcolourproject_2stim_asymm_v5,2020.2.10,Win32,60,61025ae37ef11b136ea224fe,,,,,,,,,4368,-43,65,1,0,0,response7disk,,0,-11,5,1,0,0,rectangle,-11,5,1,0,0,-11,5,1,0,0,0,91,91,79,1,,,,,,,,
,,,,,,,,,,,,,FF,,,,,,,,1.704,,,,,,,,,,,,,,,,,,,,,,5f63b9d3a83a7d0ecdda4eb2,61037757864e7cffc8c688f6,2021-07-29_22h55.54.830,Simcolourproject_2stim_asymm_v5,2020.2.10,Win32,60,61025ae37ef11b136ea224fe,,,,,,,,,2982,71,38,1,0,0,response1disk,,6,9,5,1,0,0,rectangle,9,5,1,0,0,9,5,1,0,0,0,92,92,11,1,,,,,,,,
,,,,,,,,,,,,,FF,,,,,,,,1.3339,,,,,,,,,,,,,,,,,,,,,,5f63b9d3a83a7d0ecdda4eb2,61037757864e7cffc8c688f6,2021-07-29_22h55.54.830,Simcolourproject_2stim_asymm_v5,2020.2.10,Win32,60,61025ae37ef11b136ea224fe,,,,,,,,,490,45,87,1,0,0,response1disk,,7,17,1,1,0,0,rectangle,17,1,1,0,0,17,1,1,0,0,0,93,93,52,1,,,,,,,,
,,,,,,,,,,,,,FF,,,,,,,,1.5,,,,,,,,,,,,,,,,,,,,,,5f63b9d3a83a7d0ecdda4eb2,61037757864e7cffc8c688f6,2021-07-29_22h55.54.830,Simcolourproject_2stim_asymm_v5,2020.2.10,Win32,60,61025ae37ef11b136ea224fe,,,,,,,,,667,36,-51,1,0,0,response3disk,,4,14,0,1,0,0,rectangle,14,0,1,0,0,14,0,1,0,0,0,94,94,143,1,,,,,,,,
,,,,,,,,,,,,,FF,,,,,,,,1.8331,,,,,,,,,,,,,,,,,,,,,,5f63b9d3a83a7d0ecdda4eb2,61037757864e7cffc8c688f6,2021-07-29_22h55.54.830,Simcolourproject_2stim_asymm_v5,2020.2.10,Win32,60,61025ae37ef11b136ea224fe,,,,,,,,,605,-31,-76,1,0,0,response5disk,,3,-10,2,1,0,0,rectangle,-10,2,1,0,0,-10,2,1,0,0,0,95,95,44,1,,,,,,,,
,,,,,,,,,,,,,FF,,,,,,,,3.3668,,,,,,,,,,,,,,,,,,,,,,5f63b9d3a83a7d0ecdda4eb2,61037757864e7cffc8c688f6,2021-07-29_22h55.54.830,Simcolourproject_2stim_asymm_v5,2020.2.10,Win32,60,61025ae37ef11b136ea224fe,,,,,,,,,248,61,-45,1,0,0,response3disk,,5,7,3,1,0,0,rectangle,7,3,1,0,0,7,3,1,0,0,0,96,96,80,1,,,,,,,,
,,,,,,,,,,,,,FF,,,,,,,,1.1004,,,,,,,,,,,,,,,,,,,,,,5f63b9d3a83a7d0ecdda4eb2,61037757864e7cffc8c688f6,2021-07-29_22h55.54.830,Simcolourproject_2stim_asymm_v5,2020.2.10,Win32,60,61025ae37ef11b136ea224fe,,,,,,,,,4035,51,114,1,0,0,response1disk,,7,6,3,1,0,0,rectangle,6,3,1,0,0,6,3,1,0,0,0,97,97,24,1,,,,,,,,
,,,,,,,,,,,,,FF,,,,,,,,1.0684,,,,,,,,,,,,,,,,,,,,,,5f63b9d3a83a7d0ecdda4eb2,61037757864e7cffc8c688f6,2021-07-29_22h55.54.830,Simcolourproject_2stim_asymm_v5,2020.2.10,Win32,60,61025ae37ef11b136ea224fe,,,,,,,,,1173,23,61,1,0,0,response1disk,,7,11,2,1,0,0,rectangle,11,2,1,0,0,11,2,1,0,0,0,98,98,100,1,,,,,,,,
,,,,,,,,,,,,,FF,,,,,,,,1.0168,,,,,,,,,,,,,,,,,,,,,,5f63b9d3a83a7d0ecdda4eb2,61037757864e7cffc8c688f6,2021-07-29_22h55.54.830,Simcolourproject_2stim_asymm_v5,2020.2.10,Win32,60,61025ae37ef11b136ea224fe,,,,,,,,,2269,20,64,1,0,0,response1disk,,7,9,3,1,0,0,rectangle,9,3,1,0,0,9,3,1,0,0,0,99,99,141,1,,,,,,,,
,,,,,,,,,,,,,FF,,,,,,,,11.0823,,,,,,,,,,,,,,,,,,,,,,5f63b9d3a83a7d0ecdda4eb2,61037757864e7cffc8c688f6,2021-07-29_22h55.54.830,Simcolourproject_2stim_asymm_v5,2020.2.10,Win32,60,61025ae37ef11b136ea224fe,,,,,,,,,2177,-28,-101,1,0,0,response5disk,,3,4,-11,1,0,0,rectangle,4,-11,1,0,0,4,-11,1,0,0,0,100,100,36,1,,,,,,,,
,,,,,,,,,,,,,FF,,,,,,,,1.5503,,,,,,,,,,,,,,,,,,,,,,5f63b9d3a83a7d0ecdda4eb2,61037757864e7cffc8c688f6,2021-07-29_22h55.54.830,Simcolourproject_2stim_asymm_v5,2020.2.10,Win32,60,61025ae37ef11b136ea224fe,,,,,,,,,3683,-30,-109,1,0,0,response5disk,,3,14,-3,1,0,0,rectangle,14,-3,1,0,0,14,-3,1,0,0,0,101,101,159,1,,,,,,,,
,,,,,,,,,,,,,FF,,,,,,,,1.2011,,,,,,,,,,,,,,,,,,,,,,5f63b9d3a83a7d0ecdda4eb2,61037757864e7cffc8c688f6,2021-07-29_22h55.54.830,Simcolourproject_2stim_asymm_v5,2020.2.10,Win32,60,61025ae37ef11b136ea224fe,,,,,,,,,958,-34,-61,1,0,0,response5disk,,3,-3,6,1,0,0,rectangle,-3,6,1,0,0,-3,6,1,0,0,0,102,102,110,1,,,,,,,,
,,,,,,,,,,,,,FF,,,,,,,,1.6509,,,,,,,,,,,,,,,,,,,,,,5f63b9d3a83a7d0ecdda4eb2,61037757864e7cffc8c688f6,2021-07-29_22h55.54.830,Simcolourproject_2stim_asymm_v5,2020.2.10,Win32,60,61025ae37ef11b136ea224fe,,,,,,,,,1536,30,-67,1,0,0,response3disk,,4,-10,4,1,0,0,rectangle,-10,4,1,0,0,-10,4,1,0,0,0,103,103,107,1,,,,,,,,
,,,,,,,,,,,,,FF,,,,,,,,1.1328,,,,,,,,,,,,,,,,,,,,,,5f63b9d3a83a7d0ecdda4eb2,61037757864e7cffc8c688f6,2021-07-29_22h55.54.830,Simcolourproject_2stim_asymm_v5,2020.2.10,Win32,60,61025ae37ef11b136ea224fe,,,,,,,,,1620,-50,-76,1,0,0,response5disk,,3,32,14,1,0,0,rectangle,32,14,1,0,0,32,14,1,0,0,0,104,104,10,1,,,,,,,,
,,,,,,,,,,,,,FF,,,,,,,,1.8994,,,,,,,,,,,,,,,,,,,,,,5f63b9d3a83a7d0ecdda4eb2,61037757864e7cffc8c688f6,2021-07-29_22h55.54.830,Simcolourproject_2stim_asymm_v5,2020.2.10,Win32,60,61025ae37ef11b136ea224fe,,,,,,,,,406,55,-81,1,0,0,response3disk,,4,-1,3,1,0,0,rectangle,-1,3,1,0,0,-1,3,1,0,0,0,105,105,5,1,,,,,,,,
,,,,,,,,,,,,,FF,,,,,,,,1.7873,,,,,,,,,,,,,,,,,,,,,,5f63b9d3a83a7d0ecdda4eb2,61037757864e7cffc8c688f6,2021-07-29_22h55.54.830,Simcolourproject_2stim_asymm_v5,2020.2.10,Win32,60,61025ae37ef11b136ea224fe,,,,,,,,,3258,-59,-84,1,0,0,response5disk,,3,5,3,1,0,0,rectangle,5,3,1,0,0,5,3,1,0,0,0,106,106,15,1,,,,,,,,
,,,,,,,,,,,,,FF,,,,,,,,1.6684,,,,,,,,,,,,,,,,,,,,,,5f63b9d3a83a7d0ecdda4eb2,61037757864e7cffc8c688f6,2021-07-29_22h55.54.830,Simcolourproject_2stim_asymm_v5,2020.2.10,Win32,60,61025ae37ef11b136ea224fe,,,,,,,,,4113,48,54,1,0,0,response1disk,,7,-3,5,1,0,0,rectangle,-3,5,1,0,0,-3,5,1,0,0,0,107,107,102,1,,,,,,,,
,,,,,,,,,,,,,FF,,,,,,,,1.2672,,,,,,,,,,,,,,,,,,,,,,5f63b9d3a83a7d0ecdda4eb2,61037757864e7cffc8c688f6,2021-07-29_22h55.54.830,Simcolourproject_2stim_asymm_v5,2020.2.10,Win32,60,61025ae37ef11b136ea224fe,,,,,,,,,310,39,51,1,0,0,response1disk,,7,10,-2,1,0,0,rectangle,10,-2,1,0,0,10,-2,1,0,0,0,108,108,127,1,,,,,,,,
,,,,,,,,,,,,,FF,,,,,,,,1.5363,,,,,,,,,,,,,,,,,,,,,,5f63b9d3a83a7d0ecdda4eb2,61037757864e7cffc8c688f6,2021-07-29_22h55.54.830,Simcolourproject_2stim_asymm_v5,2020.2.10,Win32,60,61025ae37ef11b136ea224fe,,,,,,,,,3564,84,45,1,0,0,response1disk,,6,11,-6,1,0,0,rectangle,11,-6,1,0,0,11,-6,1,0,0,0,109,109,133,1,,,,,,,,
,,,,,,,,,,,,,FF,,,,,,,,1.6832,,,,,,,,,,,,,,,,,,,,,,5f63b9d3a83a7d0ecdda4eb2,61037757864e7cffc8c688f6,2021-07-29_22h55.54.830,Simcolourproject_2stim_asymm_v5,2020.2.10,Win32,60,61025ae37ef11b136ea224fe,,,,,,,,,2195,79,-43,1,0,0,response3disk,,5,-2,3,1,0,0,rectangle,-2,3,1,0,0,-2,3,1,0,0,0,110,110,82,1,,,,,,,,
,,,,,,,,,,,,,FF,,,,,,,,2.0157,,,,,,,,,,,,,,,,,,,,,,5f63b9d3a83a7d0ecdda4eb2,61037757864e7cffc8c688f6,2021-07-29_22h55.54.830,Simcolourproject_2stim_asymm_v5,2020.2.10,Win32,60,61025ae37ef11b136ea224fe,,,,,,,,,576,114,29,1,0,0,response1disk,,6,9,-6,1,0,0,rectangle,9,-6,1,0,0,9,-6,1,0,0,0,111,111,45,1,,,,,,,,
,,,,,,,,,,,,,FF,,,,,,,,3.2836,,,,,,,,,,,,,,,,,,,,,,5f63b9d3a83a7d0ecdda4eb2,61037757864e7cffc8c688f6,2021-07-29_22h55.54.830,Simcolourproject_2stim_asymm_v5,2020.2.10,Win32,60,61025ae37ef11b136ea224fe,,,,,,,,,2682,50,77,1,0,0,response1disk,,7,8,-1,1,0,0,rectangle,8,-1,1,0,0,8,-1,1,0,0,0,112,112,75,1,,,,,,,,
,,,,,,,,,,,,,FF,,,,,,,,1.4833,,,,,,,,,,,,,,,,,,,,,,5f63b9d3a83a7d0ecdda4eb2,61037757864e7cffc8c688f6,2021-07-29_22h55.54.830,Simcolourproject_2stim_asymm_v5,2020.2.10,Win32,60,61025ae37ef11b136ea224fe,,,,,,,,,1779,50,63,1,0,0,response1disk,,7,12,-1,1,0,0,rectangle,12,-1,1,0,0,12,-1,1,0,0,0,113,113,62,1,,,,,,,,
,,,,,,,,,,,,,FF,,,,,,,,0.9149,,,,,,,,,,,,,,,,,,,,,,5f63b9d3a83a7d0ecdda4eb2,61037757864e7cffc8c688f6,2021-07-29_22h55.54.830,Simcolourproject_2stim_asymm_v5,2020.2.10,Win32,60,61025ae37ef11b136ea224fe,,,,,,,,,1210,39,88,1,0,0,response1disk,,7,6,3,1,0,0,rectangle,6,3,1,0,0,6,3,1,0,0,0,114,114,125,1,,,,,,,,
,,,,,,,,,,,,,FF,,,,,,,,8.2483,,,,,,,,,,,,,,,,,,,,,,5f63b9d3a83a7d0ecdda4eb2,61037757864e7cffc8c688f6,2021-07-29_22h55.54.830,Simcolourproject_2stim_asymm_v5,2020.2.10,Win32,60,61025ae37ef11b136ea224fe,,,,,,,,,1188,31,-85,1,0,0,response3disk,,4,0,-5,1,0,0,rectangle,0,-5,1,0,0,0,-5,1,0,0,0,115,115,48,1,,,,,,,,
,,,,,,,,,,,,,FF,,,,,,,,18.3008,,,,,,,,,,,,,,,,,,,,,,5f63b9d3a83a7d0ecdda4eb2,61037757864e7cffc8c688f6,2021-07-29_22h55.54.830,Simcolourproject_2stim_asymm_v5,2020.2.10,Win32,60,61025ae37ef11b136ea224fe,,,,,,,,,4060,20,-85,1,0,0,response3disk,,4,21,0,1,0,0,rectangle,21,0,1,0,0,21,0,1,0,0,0,116,116,128,1,,,,,,,,
,,,,,,,,,,,,,FF,,,,,,,,1.9368,,,,,,,,,,,,,,,,,,,,,,5f63b9d3a83a7d0ecdda4eb2,61037757864e7cffc8c688f6,2021-07-29_22h55.54.830,Simcolourproject_2stim_asymm_v5,2020.2.10,Win32,60,61025ae37ef11b136ea224fe,,,,,,,,,2459,79,29,1,0,0,response1disk,,6,24,1,1,0,0,rectangle,24,1,1,0,0,24,1,1,0,0,0,117,117,64,1,,,,,,,,
,,,,,,,,,,,,,FF,,,,,,,,3.5372,,,,,,,,,,,,,,,,,,,,,,5f63b9d3a83a7d0ecdda4eb2,61037757864e7cffc8c688f6,2021-07-29_22h55.54.830,Simcolourproject_2stim_asymm_v5,2020.2.10,Win32,60,61025ae37ef11b136ea224fe,,,,,,,,,377,50,46,1,0,0,response1disk,,6,7,6,1,0,0,rectangle,7,6,1,0,0,7,6,1,0,0,0,118,118,61,1,,,,,,,,
,,,,,,,,,,,,,FF,,,,,,,,2.8831,,,,,,,,,,,,,,,,,,,,,,5f63b9d3a83a7d0ecdda4eb2,61037757864e7cffc8c688f6,2021-07-29_22h55.54.830,Simcolourproject_2stim_asymm_v5,2020.2.10,Win32,60,61025ae37ef11b136ea224fe,,,,,,,,,3218,42,-68,1,0,0,response3disk,,4,18,0,1,0,0,rectangle,18,0,1,0,0,18,0,1,0,0,0,119,119,40,1,,,,,,,,
,,,,,,,,,,,,,FF,,,,,,,,2.6332,,,,,,,,,,,,,,,,,,,,,,5f63b9d3a83a7d0ecdda4eb2,61037757864e7cffc8c688f6,2021-07-29_22h55.54.830,Simcolourproject_2stim_asymm_v5,2020.2.10,Win32,60,61025ae37ef11b136ea224fe,,,,,,,,,4211,68,46,1,0,0,response1disk,,6,17,-2,1,0,0,rectangle,17,-2,1,0,0,17,-2,1,0,0,0,120,120,38,1,,,,,,,,
,,,,,,,,,,,,,FF,,,,,,,,1.6373,,,,,,,,,,,,,,,,,,,,,,5f63b9d3a83a7d0ecdda4eb2,61037757864e7cffc8c688f6,2021-07-29_22h55.54.830,Simcolourproject_2stim_asymm_v5,2020.2.10,Win32,60,61025ae37ef11b136ea224fe,,,,,,,,,1380,-51,-59,1,0,0,response5disk,,3,-6,-3,1,0,0,rectangle,-6,-3,1,0,0,-6,-3,1,0,0,0,121,121,59,1,,,,,,,,
,,,,,,,,,,,,,FF,,,,,,,,1.1849,,,,,,,,,,,,,,,,,,,,,,5f63b9d3a83a7d0ecdda4eb2,61037757864e7cffc8c688f6,2021-07-29_22h55.54.830,Simcolourproject_2stim_asymm_v5,2020.2.10,Win32,60,61025ae37ef11b136ea224fe,,,,,,,,,3818,-51,-36,1,0,0,response5disk,,2,4,0,1,0,0,rectangle,4,0,1,0,0,4,0,1,0,0,0,122,122,50,1,,,,,,,,
,,,,,,,,,,,,,FF,,,,,,,,1.6709,,,,,,,,,,,,,,,,,,,,,,5f63b9d3a83a7d0ecdda4eb2,61037757864e7cffc8c688f6,2021-07-29_22h55.54.830,Simcolourproject_2stim_asymm_v5,2020.2.10,Win32,60,61025ae37ef11b136ea224fe,,,,,,,,,1263,72,35,1,0,0,response1disk,,6,-4,-8,1,0,0,rectangle,-4,-8,1,0,0,-4,-8,1,0,0,0,123,123,118,1,,,,,,,,
,,,,,,,,,,,,,FF,,,,,,,,2.1838,,,,,,,,,,,,,,,,,,,,,,5f63b9d3a83a7d0ecdda4eb2,61037757864e7cffc8c688f6,2021-07-29_22h55.54.830,Simcolourproject_2stim_asymm_v5,2020.2.10,Win32,60,61025ae37ef11b136ea224fe,,,,,,,,,621,98,42,1,0,0,response1disk,,6,6,-11,1,0,0,rectangle,6,-11,1,0,0,6,-11,1,0,0,0,124,124,17,1,,,,,,,,
,,,,,,,,,,,,,FF,,,,,,,,1.1672,,,,,,,,,,,,,,,,,,,,,,5f63b9d3a83a7d0ecdda4eb2,61037757864e7cffc8c688f6,2021-07-29_22h55.54.830,Simcolourproject_2stim_asymm_v5,2020.2.10,Win32,60,61025ae37ef11b136ea224fe,,,,,,,,,2054,62,43,1,0,0,response1disk,,6,-2,-10,1,0,0,rectangle,-41,94,1,0,0,-18,2,1,0,0,0,125,125,137,1,,response7disk_3,TRUE,0,0,"[303,145,34,238,138,200,155,23,184,145,306,199,168,76,311,12,239,298,126,181]",1.9858,rectangle
,,,,,,,,,,,,,FF,,,,,,,,1.5505,,,,,,,,,,,,,,,,,,,,,,5f63b9d3a83a7d0ecdda4eb2,61037757864e7cffc8c688f6,2021-07-29_22h55.54.830,Simcolourproject_2stim_asymm_v5,2020.2.10,Win32,60,61025ae37ef11b136ea224fe,,,,,,,,,3347,103,41,1,0,0,response1disk,,6,27,2,1,0,0,rectangle,27,2,1,0,0,27,2,1,0,0,0,126,126,146,1,,,,,,,,
,,,,,,,,,,,,,FF,,,,,,,,1.349,,,,,,,,,,,,,,,,,,,,,,5f63b9d3a83a7d0ecdda4eb2,61037757864e7cffc8c688f6,2021-07-29_22h55.54.830,Simcolourproject_2stim_asymm_v5,2020.2.10,Win32,60,61025ae37ef11b136ea224fe,,,,,,,,,974,-84,-30,1,0,0,response5disk,,2,9,1,1,0,0,rectangle,9,1,1,0,0,9,1,1,0,0,0,127,127,72,1,,,,,,,,
,,,,,,,,,,,,,FF,,,,,,,,1.7338,,,,,,,,,,,,,,,,,,,,,,5f63b9d3a83a7d0ecdda4eb2,61037757864e7cffc8c688f6,2021-07-29_22h55.54.830,Simcolourproject_2stim_asymm_v5,2020.2.10,Win32,60,61025ae37ef11b136ea224fe,,,,,,,,,228,60,37,1,0,0,response1disk,,6,18,-5,1,0,0,rectangle,18,-5,1,0,0,18,-5,1,0,0,0,128,128,14,1,,,,,,,,
,,,,,,,,,,,,,FF,,,,,,,,1.534,,,,,,,,,,,,,,,,,,,,,,5f63b9d3a83a7d0ecdda4eb2,61037757864e7cffc8c688f6,2021-07-29_22h55.54.830,Simcolourproject_2stim_asymm_v5,2020.2.10,Win32,60,61025ae37ef11b136ea224fe,,,,,,,,,3763,26,64,1,0,0,response1disk,,7,5,-1,1,0,0,rectangle,5,-1,1,0,0,5,-1,1,0,0,0,129,129,91,1,,,,,,,,
,,,,,,,,,,,,,FF,,,,,,,,1.5835,,,,,,,,,,,,,,,,,,,,,,5f63b9d3a83a7d0ecdda4eb2,61037757864e7cffc8c688f6,2021-07-29_22h55.54.830,Simcolourproject_2stim_asymm_v5,2020.2.10,Win32,60,61025ae37ef11b136ea224fe,,,,,,,,,3459,70,76,1,0,0,response1disk,,7,3,11,1,0,0,rectangle,3,11,1,0,0,3,11,1,0,0,0,130,130,113,1,,,,,,,,
,,,,,,,,,,,,,FF,,,,,,,,0.9462,,,,,,,,,,,,,,,,,,,,,,5f63b9d3a83a7d0ecdda4eb2,61037757864e7cffc8c688f6,2021-07-29_22h55.54.830,Simcolourproject_2stim_asymm_v5,2020.2.10,Win32,60,61025ae37ef11b136ea224fe,,,,,,,,,4272,20,58,1,0,0,response1disk,,7,13,5,1,0,0,rectangle,13,5,1,0,0,13,5,1,0,0,0,131,131,4,1,,,,,,,,
,,,,,,,,,,,,,FF,,,,,,,,1.1173,,,,,,,,,,,,,,,,,,,,,,5f63b9d3a83a7d0ecdda4eb2,61037757864e7cffc8c688f6,2021-07-29_22h55.54.830,Simcolourproject_2stim_asymm_v5,2020.2.10,Win32,60,61025ae37ef11b136ea224fe,,,,,,,,,118,26,82,1,0,0,response1disk,,7,5,4,1,0,0,rectangle,5,4,1,0,0,5,4,1,0,0,0,132,132,18,1,,,,,,,,
,,,,,,,,,,,,,FF,,,,,,,,1.3366,,,,,,,,,,,,,,,,,,,,,,5f63b9d3a83a7d0ecdda4eb2,61037757864e7cffc8c688f6,2021-07-29_22h55.54.830,Simcolourproject_2stim_asymm_v5,2020.2.10,Win32,60,61025ae37ef11b136ea224fe,,,,,,,,,1063,-35,-80,1,0,0,response5disk,,3,5,9,1,0,0,rectangle,5,9,1,0,0,5,9,1,0,0,0,133,133,9,1,,,,,,,,
,,,,,,,,,,,,,FF,,,,,,,,1.2008,,,,,,,,,,,,,,,,,,,,,,5f63b9d3a83a7d0ecdda4eb2,61037757864e7cffc8c688f6,2021-07-29_22h55.54.830,Simcolourproject_2stim_asymm_v5,2020.2.10,Win32,60,61025ae37ef11b136ea224fe,,,,,,,,,2670,-91,-62,1,0,0,response5disk,,2,11,-9,1,0,0,rectangle,11,-9,1,0,0,11,-9,1,0,0,0,134,134,155,1,,,,,,,,
,,,,,,,,,,,,,FF,,,,,,,,4.934,,,,,,,,,,,,,,,,,,,,,,5f63b9d3a83a7d0ecdda4eb2,61037757864e7cffc8c688f6,2021-07-29_22h55.54.830,Simcolourproject_2stim_asymm_v5,2020.2.10,Win32,60,61025ae37ef11b136ea224fe,,,,,,,,,2572,87,72,1,0,0,response1disk,,6,1,12,1,0,0,rectangle,1,12,1,0,0,1,12,1,0,0,0,135,135,92,1,,,,,,,,
,,,,,,,,,,,,,FF,,,,,,,,1.4665,,,,,,,,,,,,,,,,,,,,,,5f63b9d3a83a7d0ecdda4eb2,61037757864e7cffc8c688f6,2021-07-29_22h55.54.830,Simcolourproject_2stim_asymm_v5,2020.2.10,Win32,60,61025ae37ef11b136ea224fe,,,,,,,,,2043,38,-93,1,0,0,response3disk,,4,18,9,1,0,0,rectangle,18,9,1,0,0,18,9,1,0,0,0,136,136,39,1,,,,,,,,
,,,,,,,,,,,,,FF,,,,,,,,1.1172,,,,,,,,,,,,,,,,,,,,,,5f63b9d3a83a7d0ecdda4eb2,61037757864e7cffc8c688f6,2021-07-29_22h55.54.830,Simcolourproject_2stim_asymm_v5,2020.2.10,Win32,60,61025ae37ef11b136ea224fe,,,,,,,,,773,-58,-63,1,0,0,response5disk,,3,-28,4,1,0,0,rectangle,73,-47,1,0,0,0,8,1,0,0,0,137,137,32,1,,response3disk_3,TRUE,5,5,"[303,145,34,238,138,200,155,23,184,145,306,199,168,76,311,12,239,298,126,181]",1.8662,rectangle
,,,,,,,,,,,,,FF,,,,,,,,2.1017,,,,,,,,,,,,,,,,,,,,,,5f63b9d3a83a7d0ecdda4eb2,61037757864e7cffc8c688f6,2021-07-29_22h55.54.830,Simcolourproject_2stim_asymm_v5,2020.2.10,Win32,60,61025ae37ef11b136ea224fe,,,,,,,,,1374,-61,-93,1,0,0,response5disk,,3,3,4,1,0,0,rectangle,3,4,1,0,0,3,4,1,0,0,0,138,138,83,1,,,,,,,,
,,,,,,,,,,,,,FF,,,,,,,,1.5339,,,,,,,,,,,,,,,,,,,,,,5f63b9d3a83a7d0ecdda4eb2,61037757864e7cffc8c688f6,2021-07-29_22h55.54.830,Simcolourproject_2stim_asymm_v5,2020.2.10,Win32,60,61025ae37ef11b136ea224fe,,,,,,,,,1408,72,23,1,0,0,response1disk,,6,9,0,1,0,0,rectangle,9,0,1,0,0,9,0,1,0,0,0,139,139,93,1,,,,,,,,
,,,,,,,,,,,,,FF,,,,,,,,1.5156,,,,,,,,,,,,,,,,,,,,,,5f63b9d3a83a7d0ecdda4eb2,61037757864e7cffc8c688f6,2021-07-29_22h55.54.830,Simcolourproject_2stim_asymm_v5,2020.2.10,Win32,60,61025ae37ef11b136ea224fe,,,,,,,,,1041,79,44,1,0,0,response1disk,,6,1,6,1,0,0,rectangle,1,6,1,0,0,1,6,1,0,0,0,140,140,124,1,,,,,,,,
,,,,,,,,,,,,,FF,,,,,,,,2.0338,,,,,,,,,,,,,,,,,,,,,,5f63b9d3a83a7d0ecdda4eb2,61037757864e7cffc8c688f6,2021-07-29_22h55.54.830,Simcolourproject_2stim_asymm_v5,2020.2.10,Win32,60,61025ae37ef11b136ea224fe,,,,,,,,,1604,-71,30,1,0,0,response7disk,,1,0,0,1,0,0,rectangle,0,0,1,0,0,0,0,1,0,0,0,141,141,109,1,,,,,,,,
,,,,,,,,,,,,,FF,,,,,,,,4.5503,,,,,,,,,,,,,,,,,,,,,,5f63b9d3a83a7d0ecdda4eb2,61037757864e7cffc8c688f6,2021-07-29_22h55.54.830,Simcolourproject_2stim_asymm_v5,2020.2.10,Win32,60,61025ae37ef11b136ea224fe,,,,,,,,,4191,54,66,1,0,0,response1disk,,7,13,-1,1,0,0,rectangle,13,-1,1,0,0,13,-1,1,0,0,0,142,142,147,1,,,,,,,,
,,,,,,,,,,,,,FF,,,,,,,,2.3349,,,,,,,,,,,,,,,,,,,,,,5f63b9d3a83a7d0ecdda4eb2,61037757864e7cffc8c688f6,2021-07-29_22h55.54.830,Simcolourproject_2stim_asymm_v5,2020.2.10,Win32,60,61025ae37ef11b136ea224fe,,,,,,,,,3116,95,-31,1,0,0,response3disk,,5,12,6,1,0,0,rectangle,12,6,1,0,0,12,6,1,0,0,0,143,143,12,1,,,,,,,,
,,,,,,,,,,,,,FF,,,,,,,,1.0172,,,,,,,,,,,,,,,,,,,,,,5f63b9d3a83a7d0ecdda4eb2,61037757864e7cffc8c688f6,2021-07-29_22h55.54.830,Simcolourproject_2stim_asymm_v5,2020.2.10,Win32,60,61025ae37ef11b136ea224fe,,,,,,,,,3912,38,58,1,0,0,response1disk,,7,7,-5,1,0,0,rectangle,-63,-32,1,0,0,-1,-3,1,0,0,0,144,144,54,1,,response5disk_3,TRUE,2,2,"[303,145,34,238,138,200,155,23,184,145,306,199,168,76,311,12,239,298,126,181]",1.767,rectangle
,,,,,,,,,,,,,FF,,,,,,,,1.3003,,,,,,,,,,,,,,,,,,,,,,5f63b9d3a83a7d0ecdda4eb2,61037757864e7cffc8c688f6,2021-07-29_22h55.54.830,Simcolourproject_2stim_asymm_v5,2020.2.10,Win32,60,61025ae37ef11b136ea224fe,,,,,,,,,3997,109,36,1,0,0,response1disk,,6,22,1,1,0,0,rectangle,22,1,1,0,0,22,1,1,0,0,0,145,145,22,1,,,,,,,,
,,,,,,,,,,,,,FF,,,,,,,,2.1162,,,,,,,,,,,,,,,,,,,,,,5f63b9d3a83a7d0ecdda4eb2,61037757864e7cffc8c688f6,2021-07-29_22h55.54.830,Simcolourproject_2stim_asymm_v5,2020.2.10,Win32,60,61025ae37ef11b136ea224fe,,,,,,,,,883,67,44,1,0,0,response1disk,,6,20,-5,1,0,0,rectangle,20,-5,1,0,0,20,-5,1,0,0,0,146,146,89,1,,,,,,,,
,,,,,,,,,,,,,FF,,,,,,,,1.0838,,,,,,,,,,,,,,,,,,,,,,5f63b9d3a83a7d0ecdda4eb2,61037757864e7cffc8c688f6,2021-07-29_22h55.54.830,Simcolourproject_2stim_asymm_v5,2020.2.10,Win32,60,61025ae37ef11b136ea224fe,,,,,,,,,38,65,88,1,0,0,response1disk,,7,11,-10,1,0,0,rectangle,11,-10,1,0,0,11,-10,1,0,0,0,147,147,96,1,,,,,,,,
,,,,,,,,,,,,,FF,,,,,,,,1.4012,,,,,,,,,,,,,,,,,,,,,,5f63b9d3a83a7d0ecdda4eb2,61037757864e7cffc8c688f6,2021-07-29_22h55.54.830,Simcolourproject_2stim_asymm_v5,2020.2.10,Win32,60,61025ae37ef11b136ea224fe,,,,,,,,,897,100,-61,1,0,0,response3disk,,5,20,5,1,0,0,rectangle,20,5,1,0,0,20,5,1,0,0,0,148,148,114,1,,,,,,,,
,,,,,,,,,,,,,FF,,,,,,,,0.9673,,,,,,,,,,,,,,,,,,,,,,5f63b9d3a83a7d0ecdda4eb2,61037757864e7cffc8c688f6,2021-07-29_22h55.54.830,Simcolourproject_2stim_asymm_v5,2020.2.10,Win32,60,61025ae37ef11b136ea224fe,,,,,,,,,4019,68,96,1,0,0,response1disk,,7,16,7,1,0,0,rectangle,16,7,1,0,0,16,7,1,0,0,0,149,149,69,1,,,,,,,,
,,,,,,,,,,,,,FF,,,,,,,,0.8484,,,,,,,,,,,,,,,,,,,,,,5f63b9d3a83a7d0ecdda4eb2,61037757864e7cffc8c688f6,2021-07-29_22h55.54.830,Simcolourproject_2stim_asymm_v5,2020.2.10,Win32,60,61025ae37ef11b136ea224fe,,,,,,,,,508,35,54,1,0,0,response1disk,,7,9,-8,1,0,0,rectangle,9,-8,1,0,0,9,-8,1,0,0,0,150,150,138,1,,,,,,,,
,,,,,,,,,,,,,FF,,,,,,,,0.6172,,,,,,,,,,,,,,,,,,,,,,5f63b9d3a83a7d0ecdda4eb2,61037757864e7cffc8c688f6,2021-07-29_22h55.54.830,Simcolourproject_2stim_asymm_v5,2020.2.10,Win32,60,61025ae37ef11b136ea224fe,,,,,,,,,2145,41,69,1,0,0,response1disk,,7,13,-2,1,0,0,rectangle,13,-2,1,0,0,13,-2,1,0,0,0,151,151,23,1,,,,,,,,
,,,,,,,,,,,,,FF,,,,,,,,0.8501,,,,,,,,,,,,,,,,,,,,,,5f63b9d3a83a7d0ecdda4eb2,61037757864e7cffc8c688f6,2021-07-29_22h55.54.830,Simcolourproject_2stim_asymm_v5,2020.2.10,Win32,60,61025ae37ef11b136ea224fe,,,,,,,,,680,27,50,1,0,0,response1disk,,7,4,-4,1,0,0,rectangle,4,-4,1,0,0,4,-4,1,0,0,0,152,152,58,1,,,,,,,,
,,,,,,,,,,,,,FF,,,,,,,,1.1668,,,,,,,,,,,,,,,,,,,,,,5f63b9d3a83a7d0ecdda4eb2,61037757864e7cffc8c688f6,2021-07-29_22h55.54.830,Simcolourproject_2stim_asymm_v5,2020.2.10,Win32,60,61025ae37ef11b136ea224fe,,,,,,,,,3960,22,54,1,0,0,response1disk,,7,5,-12,1,0,0,rectangle,5,-12,1,0,0,5,-12,1,0,0,0,153,153,130,1,,,,,,,,
,,,,,,,,,,,,,FF,,,,,,,,1.4005,,,,,,,,,,,,,,,,,,,,,,5f63b9d3a83a7d0ecdda4eb2,61037757864e7cffc8c688f6,2021-07-29_22h55.54.830,Simcolourproject_2stim_asymm_v5,2020.2.10,Win32,60,61025ae37ef11b136ea224fe,,,,,,,,,175,-34,-70,1,0,0,response5disk,,3,-11,3,1,0,0,rectangle,68,-37,1,0,0,-6,8,1,0,0,0,154,154,117,1,,response3disk_3,TRUE,5,5,"[303,145,34,238,138,200,155,23,184,145,306,199,168,76,311,12,239,298,126,181]",1.5337,rectangle
,,,,,,,,,,,,,FF,,,,,,,,1.1836,,,,,,,,,,,,,,,,,,,,,,5f63b9d3a83a7d0ecdda4eb2,61037757864e7cffc8c688f6,2021-07-29_22h55.54.830,Simcolourproject_2stim_asymm_v5,2020.2.10,Win32,60,61025ae37ef11b136ea224fe,,,,,,,,,2506,51,66,1,0,0,response1disk,,7,19,0,1,0,0,rectangle,19,0,1,0,0,19,0,1,0,0,0,155,155,97,1,,,,,,,,
,,,,,,,,,,,,,FF,,,,,,,,0.8672,,,,,,,,,,,,,,,,,,,,,,5f63b9d3a83a7d0ecdda4eb2,61037757864e7cffc8c688f6,2021-07-29_22h55.54.830,Simcolourproject_2stim_asymm_v5,2020.2.10,Win32,60,61025ae37ef11b136ea224fe,,,,,,,,,4312,41,112,1,0,0,response1disk,,7,11,-1,1,0,0,rectangle,11,-1,1,0,0,11,-1,1,0,0,0,156,156,33,1,,,,,,,,
,,,,,,,,,,,,,FF,,,,,,,,2.0169,,,,,,,,,,,,,,,,,,,,,,5f63b9d3a83a7d0ecdda4eb2,61037757864e7cffc8c688f6,2021-07-29_22h55.54.830,Simcolourproject_2stim_asymm_v5,2020.2.10,Win32,60,61025ae37ef11b136ea224fe,,,,,,,,,2422,-35,-92,1,0,0,response5disk,,3,-8,-3,1,0,0,rectangle,-8,-3,1,0,0,-8,-3,1,0,0,0,157,157,149,1,,,,,,,,
,,,,,,,,,,,,,FF,,,,,,,,1.1674,,,,,,,,,,,,,,,,,,,,,,5f63b9d3a83a7d0ecdda4eb2,61037757864e7cffc8c688f6,2021-07-29_22h55.54.830,Simcolourproject_2stim_asymm_v5,2020.2.10,Win32,60,61025ae37ef11b136ea224fe,,,,,,,,,2708,77,46,1,0,0,response1disk,,6,23,7,1,0,0,rectangle,23,7,1,0,0,23,7,1,0,0,0,158,158,29,1,,,,,,,,
,,,,,,,,,,,,,FF,,,,,,,,1.9816,,,,,,,,,,,,,,,,,,,,,,5f63b9d3a83a7d0ecdda4eb2,61037757864e7cffc8c688f6,2021-07-29_22h55.54.830,Simcolourproject_2stim_asymm_v5,2020.2.10,Win32,60,61025ae37ef11b136ea224fe,,,,,,,,,378,82,74,1,0,0,response1disk,,6,23,8,1,0,0,rectangle,23,8,1,0,0,23,8,1,0,0,0,159,159,156,1,,,,,,,,
,,,,,,,,,,,,,FF,,,,,,,,1.7005,,,,,,,,,,,,,,,,,,,,,,5f63b9d3a83a7d0ecdda4eb2,61037757864e7cffc8c688f6,2021-07-29_22h55.54.830,Simcolourproject_2stim_asymm_v5,2020.2.10,Win32,60,61025ae37ef11b136ea224fe,,,,,,,,,1600,-74,-53,1,0,0,response5disk,,2,-8,-4,1,0,0,rectangle,-8,-4,1,0,0,-8,-4,1,0,0,1,0,160,29,1,,,,,,,,
,,,,,,,,,,,,,FF,,,,,,,,1.4337,,,,,,,,,,,,,,,,,,,,,,5f63b9d3a83a7d0ecdda4eb2,61037757864e7cffc8c688f6,2021-07-29_22h55.54.830,Simcolourproject_2stim_asymm_v5,2020.2.10,Win32,60,61025ae37ef11b136ea224fe,,,,,,,,,3475,-92,54,1,0,0,response7disk,,1,-11,10,1,0,0,rectangle,-11,10,1,0,0,-11,10,1,0,0,1,1,161,119,1,,,,,,,,
,,,,,,,,,,,,,FF,,,,,,,,1.3161,,,,,,,,,,,,,,,,,,,,,,5f63b9d3a83a7d0ecdda4eb2,61037757864e7cffc8c688f6,2021-07-29_22h55.54.830,Simcolourproject_2stim_asymm_v5,2020.2.10,Win32,60,61025ae37ef11b136ea224fe,,,,,,,,,2809,45,69,1,0,0,response1disk,,7,5,4,1,0,0,rectangle,5,4,1,0,0,5,4,1,0,0,1,2,162,154,1,,,,,,,,
,,,,,,,,,,,,,FF,,,,,,,,0.9502,,,,,,,,,,,,,,,,,,,,,,5f63b9d3a83a7d0ecdda4eb2,61037757864e7cffc8c688f6,2021-07-29_22h55.54.830,Simcolourproject_2stim_asymm_v5,2020.2.10,Win32,60,61025ae37ef11b136ea224fe,,,,,,,,,2580,32,80,1,0,0,response1disk,,7,-12,3,1,0,0,rectangle,-12,3,1,0,0,-12,3,1,0,0,1,3,163,148,1,,,,,,,,
,,,,,,,,,,,,,FF,,,,,,,,0.7835,,,,,,,,,,,,,,,,,,,,,,5f63b9d3a83a7d0ecdda4eb2,61037757864e7cffc8c688f6,2021-07-29_22h55.54.830,Simcolourproject_2stim_asymm_v5,2020.2.10,Win32,60,61025ae37ef11b136ea224fe,,,,,,,,,2069,37,81,1,0,0,response1disk,,7,-4,1,1,0,0,rectangle,-4,1,1,0,0,-4,1,1,0,0,1,4,164,120,1,,,,,,,,
,,,,,,,,,,,,,FF,,,,,,,,1.3504,,,,,,,,,,,,,,,,,,,,,,5f63b9d3a83a7d0ecdda4eb2,61037757864e7cffc8c688f6,2021-07-29_22h55.54.830,Simcolourproject_2stim_asymm_v5,2020.2.10,Win32,60,61025ae37ef11b136ea224fe,,,,,,,,,1465,53,-72,1,0,0,response3disk,,4,5,-6,1,0,0,rectangle,5,-6,1,0,0,5,-6,1,0,0,1,5,165,141,1,,,,,,,,
,,,,,,,,,,,,,FF,,,,,,,,1.2009,,,,,,,,,,,,,,,,,,,,,,5f63b9d3a83a7d0ecdda4eb2,61037757864e7cffc8c688f6,2021-07-29_22h55.54.830,Simcolourproject_2stim_asymm_v5,2020.2.10,Win32,60,61025ae37ef11b136ea224fe,,,,,,,,,1071,69,-39,1,0,0,response3disk,,5,4,8,1,0,0,rectangle,4,8,1,0,0,4,8,1,0,0,1,6,166,63,1,,,,,,,,
,,,,,,,,,,,,,FF,,,,,,,,1.3848,,,,,,,,,,,,,,,,,,,,,,5f63b9d3a83a7d0ecdda4eb2,61037757864e7cffc8c688f6,2021-07-29_22h55.54.830,Simcolourproject_2stim_asymm_v5,2020.2.10,Win32,60,61025ae37ef11b136ea224fe,,,,,,,,,2672,54,71,1,0,0,response1disk,,7,9,-4,1,0,0,rectangle,68,-56,1,0,0,11,-1,1,0,0,1,7,167,68,1,,response3disk_3,TRUE,5,5,"[303,145,34,238,138,200,155,23,184,145,306,199,168,76,311,12,239,298,126,181]",1.6996,rectangle
,,,,,,,,,,,,,FF,,,,,,,,0.9838,,,,,,,,,,,,,,,,,,,,,,5f63b9d3a83a7d0ecdda4eb2,61037757864e7cffc8c688f6,2021-07-29_22h55.54.830,Simcolourproject_2stim_asymm_v5,2020.2.10,Win32,60,61025ae37ef11b136ea224fe,,,,,,,,,730,-53,-71,1,0,0,response5disk,,3,5,10,1,0,0,rectangle,5,10,1,0,0,5,10,1,0,0,1,8,168,82,1,,,,,,,,
,,,,,,,,,,,,,FF,,,,,,,,0.9508,,,,,,,,,,,,,,,,,,,,,,5f63b9d3a83a7d0ecdda4eb2,61037757864e7cffc8c688f6,2021-07-29_22h55.54.830,Simcolourproject_2stim_asymm_v5,2020.2.10,Win32,60,61025ae37ef11b136ea224fe,,,,,,,,,3664,60,82,1,0,0,response1disk,,7,-10,4,1,0,0,rectangle,-10,4,1,0,0,-10,4,1,0,0,1,9,169,8,1,,,,,,,,
,,,,,,,,,,,,,FF,,,,,,,,1.4009,,,,,,,,,,,,,,,,,,,,,,5f63b9d3a83a7d0ecdda4eb2,61037757864e7cffc8c688f6,2021-07-29_22h55.54.830,Simcolourproject_2stim_asymm_v5,2020.2.10,Win32,60,61025ae37ef11b136ea224fe,,,,,,,,,3669,-97,20,1,0,0,response7disk,,1,30,7,1,0,0,rectangle,30,7,1,0,0,30,7,1,0,0,1,10,170,77,1,,,,,,,,
,,,,,,,,,,,,,FF,,,,,,,,1.5338,,,,,,,,,,,,,,,,,,,,,,5f63b9d3a83a7d0ecdda4eb2,61037757864e7cffc8c688f6,2021-07-29_22h55.54.830,Simcolourproject_2stim_asymm_v5,2020.2.10,Win32,60,61025ae37ef11b136ea224fe,,,,,,,,,3107,-38,-94,1,0,0,response5disk,,3,13,-2,1,0,0,rectangle,13,-2,1,0,0,13,-2,1,0,0,1,11,171,151,1,,,,,,,,
,,,,,,,,,,,,,FF,,,,,,,,1.0314,,,,,,,,,,,,,,,,,,,,,,5f63b9d3a83a7d0ecdda4eb2,61037757864e7cffc8c688f6,2021-07-29_22h55.54.830,Simcolourproject_2stim_asymm_v5,2020.2.10,Win32,60,61025ae37ef11b136ea224fe,,,,,,,,,1863,83,38,1,0,0,response1disk,,6,18,6,1,0,0,rectangle,18,6,1,0,0,18,6,1,0,0,1,12,172,85,1,,,,,,,,
,,,,,,,,,,,,,FF,,,,,,,,1.2664,,,,,,,,,,,,,,,,,,,,,,5f63b9d3a83a7d0ecdda4eb2,61037757864e7cffc8c688f6,2021-07-29_22h55.54.830,Simcolourproject_2stim_asymm_v5,2020.2.10,Win32,60,61025ae37ef11b136ea224fe,,,,,,,,,2025,-93,30,1,0,0,response7disk,,1,-13,4,1,0,0,rectangle,-13,4,1,0,0,-13,4,1,0,0,1,13,173,159,1,,,,,,,,
,,,,,,,,,,,,,FF,,,,,,,,1.0507,,,,,,,,,,,,,,,,,,,,,,5f63b9d3a83a7d0ecdda4eb2,61037757864e7cffc8c688f6,2021-07-29_22h55.54.830,Simcolourproject_2stim_asymm_v5,2020.2.10,Win32,60,61025ae37ef11b136ea224fe,,,,,,,,,626,76,95,1,0,0,response1disk,,7,-2,-14,1,0,0,rectangle,-2,-14,1,0,0,-2,-14,1,0,0,1,14,174,104,1,,,,,,,,
,,,,,,,,,,,,,FF,,,,,,,,1.7501,,,,,,,,,,,,,,,,,,,,,,5f63b9d3a83a7d0ecdda4eb2,61037757864e7cffc8c688f6,2021-07-29_22h55.54.830,Simcolourproject_2stim_asymm_v5,2020.2.10,Win32,60,61025ae37ef11b136ea224fe,,,,,,,,,3554,-42,-75,1,0,0,response5disk,,3,7,7,1,0,0,rectangle,7,7,1,0,0,7,7,1,0,0,1,15,175,50,1,,,,,,,,
,,,,,,,,,,,,,FF,,,,,,,,1.4175,,,,,,,,,,,,,,,,,,,,,,5f63b9d3a83a7d0ecdda4eb2,61037757864e7cffc8c688f6,2021-07-29_22h55.54.830,Simcolourproject_2stim_asymm_v5,2020.2.10,Win32,60,61025ae37ef11b136ea224fe,,,,,,,,,2219,89,-51,1,0,0,response3disk,,5,-4,5,1,0,0,rectangle,-4,5,1,0,0,-4,5,1,0,0,1,16,176,142,1,,,,,,,,
,,,,,,,,,,,,,FF,,,,,,,,1.1348,,,,,,,,,,,,,,,,,,,,,,5f63b9d3a83a7d0ecdda4eb2,61037757864e7cffc8c688f6,2021-07-29_22h55.54.830,Simcolourproject_2stim_asymm_v5,2020.2.10,Win32,60,61025ae37ef11b136ea224fe,,,,,,,,,2648,46,101,1,0,0,response1disk,,7,11,4,1,0,0,rectangle,11,4,1,0,0,11,4,1,0,0,1,17,177,56,1,,,,,,,,
,,,,,,,,,,,,,FF,,,,,,,,2.3157,,,,,,,,,,,,,,,,,,,,,,5f63b9d3a83a7d0ecdda4eb2,61037757864e7cffc8c688f6,2021-07-29_22h55.54.830,Simcolourproject_2stim_asymm_v5,2020.2.10,Win32,60,61025ae37ef11b136ea224fe,,,,,,,,,462,51,-85,1,0,0,response3disk,,4,-1,8,1,0,0,rectangle,-1,8,1,0,0,-1,8,1,0,0,1,18,178,105,1,,,,,,,,
,,,,,,,,,,,,,FF,,,,,,,,0.9005,,,,,,,,,,,,,,,,,,,,,,5f63b9d3a83a7d0ecdda4eb2,61037757864e7cffc8c688f6,2021-07-29_22h55.54.830,Simcolourproject_2stim_asymm_v5,2020.2.10,Win32,60,61025ae37ef11b136ea224fe,,,,,,,,,365,43,73,1,0,0,response1disk,,7,11,4,1,0,0,rectangle,11,4,1,0,0,11,4,1,0,0,1,19,179,155,1,,,,,,,,
,,,,,,,,,,,,,FF,,,,,,,,3.1999,,,,,,,,,,,,,,,,,,,,,,5f63b9d3a83a7d0ecdda4eb2,61037757864e7cffc8c688f6,2021-07-29_22h55.54.830,Simcolourproject_2stim_asymm_v5,2020.2.10,Win32,60,61025ae37ef11b136ea224fe,,,,,,,,,2887,-79,-46,1,0,0,response5disk,,2,7,1,1,0,0,rectangle,-92,-42,1,0,0,9,-8,1,0,0,1,20,180,152,1,,response5disk_3,TRUE,2,2,"[303,145,34,238,138,200,155,23,184,145,306,199,168,76,311,12,239,298,126,181]",1.5988,rectangle
,,,,,,,,,,,,,FF,,,,,,,,0.9839,,,,,,,,,,,,,,,,,,,,,,5f63b9d3a83a7d0ecdda4eb2,61037757864e7cffc8c688f6,2021-07-29_22h55.54.830,Simcolourproject_2stim_asymm_v5,2020.2.10,Win32,60,61025ae37ef11b136ea224fe,,,,,,,,,3314,47,59,1,0,0,response1disk,,7,-1,-8,1,0,0,rectangle,-1,-8,1,0,0,-1,-8,1,0,0,1,21,181,79,1,,,,,,,,
,,,,,,,,,,,,,FF,,,,,,,,1.6845,,,,,,,,,,,,,,,,,,,,,,5f63b9d3a83a7d0ecdda4eb2,61037757864e7cffc8c688f6,2021-07-29_22h55.54.830,Simcolourproject_2stim_asymm_v5,2020.2.10,Win32,60,61025ae37ef11b136ea224fe,,,,,,,,,2895,-59,-38,1,0,0,response5disk,,2,1,6,1,0,0,rectangle,1,6,1,0,0,1,6,1,0,0,1,22,182,40,1,,,,,,,,
,,,,,,,,,,,,,FF,,,,,,,,1.517,,,,,,,,,,,,,,,,,,,,,,5f63b9d3a83a7d0ecdda4eb2,61037757864e7cffc8c688f6,2021-07-29_22h55.54.830,Simcolourproject_2stim_asymm_v5,2020.2.10,Win32,60,61025ae37ef11b136ea224fe,,,,,,,,,737,89,40,1,0,0,response1disk,,6,1,2,1,0,0,rectangle,60,-92,1,0,0,19,-1,1,0,0,1,23,183,64,1,,response3disk_3,TRUE,4,4,"[303,145,34,238,138,200,155,23,184,145,306,199,168,76,311,12,239,298,126,181]",1.8656,rectangle
,,,,,,,,,,,,,FF,,,,,,,,0.9161,,,,,,,,,,,,,,,,,,,,,,5f63b9d3a83a7d0ecdda4eb2,61037757864e7cffc8c688f6,2021-07-29_22h55.54.830,Simcolourproject_2stim_asymm_v5,2020.2.10,Win32,60,61025ae37ef11b136ea224fe,,,,,,,,,779,34,57,1,0,0,response1disk,,7,-6,-6,1,0,0,rectangle,-6,-6,1,0,0,-6,-6,1,0,0,1,24,184,109,1,,,,,,,,
,,,,,,,,,,,,,FF,,,,,,,,0.9841,,,,,,,,,,,,,,,,,,,,,,5f63b9d3a83a7d0ecdda4eb2,61037757864e7cffc8c688f6,2021-07-29_22h55.54.830,Simcolourproject_2stim_asymm_v5,2020.2.10,Win32,60,61025ae37ef11b136ea224fe,,,,,,,,,3081,34,68,1,0,0,response1disk,,7,3,-7,1,0,0,rectangle,3,-7,1,0,0,3,-7,1,0,0,1,25,185,76,1,,,,,,,,
,,,,,,,,,,,,,FF,,,,,,,,0.6666,,,,,,,,,,,,,,,,,,,,,,5f63b9d3a83a7d0ecdda4eb2,61037757864e7cffc8c688f6,2021-07-29_22h55.54.830,Simcolourproject_2stim_asymm_v5,2020.2.10,Win32,60,61025ae37ef11b136ea224fe,,,,,,,,,3317,47,68,1,0,0,response1disk,,7,9,6,1,0,0,rectangle,9,6,1,0,0,9,6,1,0,0,1,26,186,140,1,,,,,,,,
,,,,,,,,,,,,,FF,,,,,,,,1.1504,,,,,,,,,,,,,,,,,,,,,,5f63b9d3a83a7d0ecdda4eb2,61037757864e7cffc8c688f6,2021-07-29_22h55.54.830,Simcolourproject_2stim_asymm_v5,2020.2.10,Win32,60,61025ae37ef11b136ea224fe,,,,,,,,,969,-66,-47,1,0,0,response5disk,,2,-1,-7,1,0,0,rectangle,-1,-7,1,0,0,-1,-7,1,0,0,1,27,187,118,1,,,,,,,,
,,,,,,,,,,,,,FF,,,,,,,,2.2337,,,,,,,,,,,,,,,,,,,,,,5f63b9d3a83a7d0ecdda4eb2,61037757864e7cffc8c688f6,2021-07-29_22h55.54.830,Simcolourproject_2stim_asymm_v5,2020.2.10,Win32,60,61025ae37ef11b136ea224fe,,,,,,,,,2792,-22,-62,1,0,0,response5disk,,3,13,4,1,0,0,rectangle,13,4,1,0,0,13,4,1,0,0,1,28,188,80,1,,,,,,,,
,,,,,,,,,,,,,FF,,,,,,,,1.4835,,,,,,,,,,,,,,,,,,,,,,5f63b9d3a83a7d0ecdda4eb2,61037757864e7cffc8c688f6,2021-07-29_22h55.54.830,Simcolourproject_2stim_asymm_v5,2020.2.10,Win32,60,61025ae37ef11b136ea224fe,,,,,,,,,952,46,-75,1,0,0,response3disk,,4,20,-3,1,0,0,rectangle,20,-3,1,0,0,20,-3,1,0,0,1,29,189,87,1,,,,,,,,
,,,,,,,,,,,,,FF,,,,,,,,2.4003,,,,,,,,,,,,,,,,,,,,,,5f63b9d3a83a7d0ecdda4eb2,61037757864e7cffc8c688f6,2021-07-29_22h55.54.830,Simcolourproject_2stim_asymm_v5,2020.2.10,Win32,60,61025ae37ef11b136ea224fe,,,,,,,,,780,102,-38,1,0,0,response3disk,,5,15,-11,1,0,0,rectangle,15,-11,1,0,0,15,-11,1,0,0,1,30,190,146,1,,,,,,,,
,,,,,,,,,,,,,FF,,,,,,,,1.086,,,,,,,,,,,,,,,,,,,,,,5f63b9d3a83a7d0ecdda4eb2,61037757864e7cffc8c688f6,2021-07-29_22h55.54.830,Simcolourproject_2stim_asymm_v5,2020.2.10,Win32,60,61025ae37ef11b136ea224fe,,,,,,,,,3316,42,96,1,0,0,response1disk,,7,7,-4,1,0,0,rectangle,7,-4,1,0,0,7,-4,1,0,0,1,31,191,25,1,,,,,,,,
,,,,,,,,,,,,,FF,,,,,,,,1.4205,,,,,,,,,,,,,,,,,,,,,,5f63b9d3a83a7d0ecdda4eb2,61037757864e7cffc8c688f6,2021-07-29_22h55.54.830,Simcolourproject_2stim_asymm_v5,2020.2.10,Win32,60,61025ae37ef11b136ea224fe,,,,,,,,,3098,-68,-33,1,0,0,response5disk,,2,24,1,1,0,0,rectangle,24,1,1,0,0,24,1,1,0,0,1,32,192,38,1,,,,,,,,
,,,,,,,,,,,,,FF,,,,,,,,1.0857,,,,,,,,,,,,,,,,,,,,,,5f63b9d3a83a7d0ecdda4eb2,61037757864e7cffc8c688f6,2021-07-29_22h55.54.830,Simcolourproject_2stim_asymm_v5,2020.2.10,Win32,60,61025ae37ef11b136ea224fe,,,,,,,,,306,95,36,1,0,0,response1disk,,6,23,7,1,0,0,rectangle,23,7,1,0,0,23,7,1,0,0,1,33,193,117,1,,,,,,,,
,,,,,,,,,,,,,FF,,,,,,,,2.3144,,,,,,,,,,,,,,,,,,,,,,5f63b9d3a83a7d0ecdda4eb2,61037757864e7cffc8c688f6,2021-07-29_22h55.54.830,Simcolourproject_2stim_asymm_v5,2020.2.10,Win32,60,61025ae37ef11b136ea224fe,,,,,,,,,1309,52,-87,1,0,0,response3disk,,4,5,14,1,0,0,rectangle,5,14,1,0,0,5,14,1,0,0,1,34,194,128,1,,,,,,,,
,,,,,,,,,,,,,FF,,,,,,,,1.6184,,,,,,,,,,,,,,,,,,,,,,5f63b9d3a83a7d0ecdda4eb2,61037757864e7cffc8c688f6,2021-07-29_22h55.54.830,Simcolourproject_2stim_asymm_v5,2020.2.10,Win32,60,61025ae37ef11b136ea224fe,,,,,,,,,1232,84,-59,1,0,0,response3disk,,5,-7,2,1,0,0,rectangle,-7,2,1,0,0,-7,2,1,0,0,1,35,195,52,1,,,,,,,,
,,,,,,,,,,,,,FF,,,,,,,,1.1875,,,,,,,,,,,,,,,,,,,,,,5f63b9d3a83a7d0ecdda4eb2,61037757864e7cffc8c688f6,2021-07-29_22h55.54.830,Simcolourproject_2stim_asymm_v5,2020.2.10,Win32,60,61025ae37ef11b136ea224fe,,,,,,,,,2779,-38,-100,1,0,0,response5disk,,3,3,8,1,0,0,rectangle,3,8,1,0,0,3,8,1,0,0,1,36,196,111,1,,,,,,,,
,,,,,,,,,,,,,FF,,,,,,,,1.2355,,,,,,,,,,,,,,,,,,,,,,5f63b9d3a83a7d0ecdda4eb2,61037757864e7cffc8c688f6,2021-07-29_22h55.54.830,Simcolourproject_2stim_asymm_v5,2020.2.10,Win32,60,61025ae37ef11b136ea224fe,,,,,,,,,804,-88,-38,1,0,0,response5disk,,2,11,1,1,0,0,rectangle,11,1,1,0,0,11,1,1,0,0,1,37,197,14,1,,,,,,,,
,,,,,,,,,,,,,FF,,,,,,,,1.0077,,,,,,,,,,,,,,,,,,,,,,5f63b9d3a83a7d0ecdda4eb2,61037757864e7cffc8c688f6,2021-07-29_22h55.54.830,Simcolourproject_2stim_asymm_v5,2020.2.10,Win32,60,61025ae37ef11b136ea224fe,,,,,,,,,2327,58,60,1,0,0,response1disk,,7,10,-2,1,0,0,rectangle,-82,34,1,0,0,-9,-1,1,0,0,1,38,198,131,1,,response7disk_3,TRUE,1,1,"[303,145,34,238,138,200,155,23,184,145,306,199,168,76,311,12,239,298,126,181]",1.5886,rectangle
,,,,,,,,,,,,,FF,,,,,,,,2.5185,,,,,,,,,,,,,,,,,,,,,,5f63b9d3a83a7d0ecdda4eb2,61037757864e7cffc8c688f6,2021-07-29_22h55.54.830,Simcolourproject_2stim_asymm_v5,2020.2.10,Win32,60,61025ae37ef11b136ea224fe,,,,,,,,,3158,-21,-78,1,0,0,response5disk,,3,-2,-2,1,0,0,rectangle,66,-92,1,0,0,4,3,1,0,0,1,39,199,41,1,,response3disk_3,TRUE,4,4,"[303,145,34,238,138,200,155,23,184,145,306,199,168,76,311,12,239,298,126,181]",1.5499,rectangle
,,,,,,,,,,,,,FF,,,,,,,,1.7024,,,,,,,,,,,,,,,,,,,,,,5f63b9d3a83a7d0ecdda4eb2,61037757864e7cffc8c688f6,2021-07-29_22h55.54.830,Simcolourproject_2stim_asymm_v5,2020.2.10,Win32,60,61025ae37ef11b136ea224fe,,,,,,,,,267,30,67,1,0,0,response1disk,,7,5,-7,1,0,0,rectangle,5,-7,1,0,0,5,-7,1,0,0,1,40,200,9,1,,,,,,,,
,,,,,,,,,,,,,FF,,,,,,,,1.0505,,,,,,,,,,,,,,,,,,,,,,5f63b9d3a83a7d0ecdda4eb2,61037757864e7cffc8c688f6,2021-07-29_22h55.54.830,Simcolourproject_2stim_asymm_v5,2020.2.10,Win32,60,61025ae37ef11b136ea224fe,,,,,,,,,2698,63,104,1,0,0,response1disk,,7,19,3,1,0,0,rectangle,19,3,1,0,0,19,3,1,0,0,1,41,201,74,1,,,,,,,,
,,,,,,,,,,,,,FF,,,,,,,,1.2004,,,,,,,,,,,,,,,,,,,,,,5f63b9d3a83a7d0ecdda4eb2,61037757864e7cffc8c688f6,2021-07-29_22h55.54.830,Simcolourproject_2stim_asymm_v5,2020.2.10,Win32,60,61025ae37ef11b136ea224fe,,,,,,,,,888,-72,31,1,0,0,response7disk,,1,-6,3,1,0,0,rectangle,-6,3,1,0,0,-6,3,1,0,0,1,42,202,100,1,,,,,,,,
,,,,,,,,,,,,,FF,,,,,,,,1.9992,,,,,,,,,,,,,,,,,,,,,,5f63b9d3a83a7d0ecdda4eb2,61037757864e7cffc8c688f6,2021-07-29_22h55.54.830,Simcolourproject_2stim_asymm_v5,2020.2.10,Win32,60,61025ae37ef11b136ea224fe,,,,,,,,,2155,59,-23,1,0,0,response3disk,,5,12,14,1,0,0,rectangle,12,14,1,0,0,12,14,1,0,0,1,43,203,123,1,,,,,,,,
,,,,,,,,,,,,,FF,,,,,,,,2.4835,,,,,,,,,,,,,,,,,,,,,,5f63b9d3a83a7d0ecdda4eb2,61037757864e7cffc8c688f6,2021-07-29_22h55.54.830,Simcolourproject_2stim_asymm_v5,2020.2.10,Win32,60,61025ae37ef11b136ea224fe,,,,,,,,,281,25,58,1,0,0,response1disk,,7,-1,5,1,0,0,rectangle,-1,5,1,0,0,-1,5,1,0,0,1,44,204,97,1,,,,,,,,
,,,,,,,,,,,,,FF,,,,,,,,1.2847,,,,,,,,,,,,,,,,,,,,,,5f63b9d3a83a7d0ecdda4eb2,61037757864e7cffc8c688f6,2021-07-29_22h55.54.830,Simcolourproject_2stim_asymm_v5,2020.2.10,Win32,60,61025ae37ef11b136ea224fe,,,,,,,,,168,51,-65,1,0,0,response3disk,,4,20,0,1,0,0,rectangle,20,0,1,0,0,20,0,1,0,0,1,45,205,1,1,,,,,,,,
,,,,,,,,,,,,,FF,,,,,,,,0.9667,,,,,,,,,,,,,,,,,,,,,,5f63b9d3a83a7d0ecdda4eb2,61037757864e7cffc8c688f6,2021-07-29_22h55.54.830,Simcolourproject_2stim_asymm_v5,2020.2.10,Win32,60,61025ae37ef11b136ea224fe,,,,,,,,,320,50,87,1,0,0,response1disk,,7,12,0,1,0,0,rectangle,12,0,1,0,0,12,0,1,0,0,1,46,206,26,1,,,,,,,,
,,,,,,,,,,,,,FF,,,,,,,,0.7841,,,,,,,,,,,,,,,,,,,,,,5f63b9d3a83a7d0ecdda4eb2,61037757864e7cffc8c688f6,2021-07-29_22h55.54.830,Simcolourproject_2stim_asymm_v5,2020.2.10,Win32,60,61025ae37ef11b136ea224fe,,,,,,,,,3315,47,79,1,0,0,response1disk,,7,5,4,1,0,0,rectangle,5,4,1,0,0,5,4,1,0,0,1,47,207,107,1,,,,,,,,
,,,,,,,,,,,,,FF,,,,,,,,0.9673,,,,,,,,,,,,,,,,,,,,,,5f63b9d3a83a7d0ecdda4eb2,61037757864e7cffc8c688f6,2021-07-29_22h55.54.830,Simcolourproject_2stim_asymm_v5,2020.2.10,Win32,60,61025ae37ef11b136ea224fe,,,,,,,,,3977,88,31,1,0,0,response1disk,,6,10,0,1,0,0,rectangle,10,0,1,0,0,10,0,1,0,0,1,48,208,99,1,,,,,,,,
,,,,,,,,,,,,,FF,,,,,,,,1.267,,,,,,,,,,,,,,,,,,,,,,5f63b9d3a83a7d0ecdda4eb2,61037757864e7cffc8c688f6,2021-07-29_22h55.54.830,Simcolourproject_2stim_asymm_v5,2020.2.10,Win32,60,61025ae37ef11b136ea224fe,,,,,,,,,2660,-45,72,1,0,0,response7disk,,0,-2,-1,1,0,0,rectangle,-2,-1,1,0,0,-2,-1,1,0,0,1,49,209,129,1,,,,,,,,
,,,,,,,,,,,,,FF,,,,,,,,0.9847,,,,,,,,,,,,,,,,,,,,,,5f63b9d3a83a7d0ecdda4eb2,61037757864e7cffc8c688f6,2021-07-29_22h55.54.830,Simcolourproject_2stim_asymm_v5,2020.2.10,Win32,60,61025ae37ef11b136ea224fe,,,,,,,,,698,100,59,1,0,0,response1disk,,6,22,2,1,0,0,rectangle,22,2,1,0,0,22,2,1,0,0,1,50,210,84,1,,,,,,,,
,,,,,,,,,,,,,FF,,,,,,,,0.9352,,,,,,,,,,,,,,,,,,,,,,5f63b9d3a83a7d0ecdda4eb2,61037757864e7cffc8c688f6,2021-07-29_22h55.54.830,Simcolourproject_2stim_asymm_v5,2020.2.10,Win32,60,61025ae37ef11b136ea224fe,,,,,,,,,1344,41,59,1,0,0,response1disk,,7,16,-4,1,0,0,rectangle,16,-4,1,0,0,16,-4,1,0,0,1,51,211,90,1,,,,,,,,
,,,,,,,,,,,,,FF,,,,,,,,1.3672,,,,,,,,,,,,,,,,,,,,,,5f63b9d3a83a7d0ecdda4eb2,61037757864e7cffc8c688f6,2021-07-29_22h55.54.830,Simcolourproject_2stim_asymm_v5,2020.2.10,Win32,60,61025ae37ef11b136ea224fe,,,,,,,,,1241,63,-68,1,0,0,response3disk,,4,-15,14,1,0,0,rectangle,-15,14,1,0,0,-15,14,1,0,0,1,52,212,89,1,,,,,,,,
,,,,,,,,,,,,,FF,,,,,,,,1.6505,,,,,,,,,,,,,,,,,,,,,,5f63b9d3a83a7d0ecdda4eb2,61037757864e7cffc8c688f6,2021-07-29_22h55.54.830,Simcolourproject_2stim_asymm_v5,2020.2.10,Win32,60,61025ae37ef11b136ea224fe,,,,,,,,,1362,83,24,1,0,0,response1disk,,6,11,8,1,0,0,rectangle,11,8,1,0,0,11,8,1,0,0,1,53,213,145,1,,,,,,,,
,,,,,,,,,,,,,FF,,,,,,,,0.9338,,,,,,,,,,,,,,,,,,,,,,5f63b9d3a83a7d0ecdda4eb2,61037757864e7cffc8c688f6,2021-07-29_22h55.54.830,Simcolourproject_2stim_asymm_v5,2020.2.10,Win32,60,61025ae37ef11b136ea224fe,,,,,,,,,2817,67,40,1,0,0,response1disk,,6,7,8,1,0,0,rectangle,7,8,1,0,0,7,8,1,0,0,1,54,214,47,1,,,,,,,,
,,,,,,,,,,,,,FF,,,,,,,,0.867,,,,,,,,,,,,,,,,,,,,,,5f63b9d3a83a7d0ecdda4eb2,61037757864e7cffc8c688f6,2021-07-29_22h55.54.830,Simcolourproject_2stim_asymm_v5,2020.2.10,Win32,60,61025ae37ef11b136ea224fe,,,,,,,,,1999,23,64,1,0,0,response1disk,,7,-14,-4,1,0,0,rectangle,-14,-4,1,0,0,-14,-4,1,0,0,1,55,215,32,1,,,,,,,,
,,,,,,,,,,,,,FF,,,,,,,,0.8008,,,,,,,,,,,,,,,,,,,,,,5f63b9d3a83a7d0ecdda4eb2,61037757864e7cffc8c688f6,2021-07-29_22h55.54.830,Simcolourproject_2stim_asymm_v5,2020.2.10,Win32,60,61025ae37ef11b136ea224fe,,,,,,,,,4108,20,68,1,0,0,response1disk,,7,-8,6,1,0,0,rectangle,-8,6,1,0,0,-8,6,1,0,0,1,56,216,58,1,,,,,,,,
,,,,,,,,,,,,,FF,,,,,,,,0.7171,,,,,,,,,,,,,,,,,,,,,,5f63b9d3a83a7d0ecdda4eb2,61037757864e7cffc8c688f6,2021-07-29_22h55.54.830,Simcolourproject_2stim_asymm_v5,2020.2.10,Win32,60,61025ae37ef11b136ea224fe,,,,,,,,,650,20,54,1,0,0,response1disk,,7,-3,5,1,0,0,rectangle,-3,5,1,0,0,-3,5,1,0,0,1,57,217,106,1,,,,,,,,
,,,,,,,,,,,,,FF,,,,,,,,0.7172,,,,,,,,,,,,,,,,,,,,,,5f63b9d3a83a7d0ecdda4eb2,61037757864e7cffc8c688f6,2021-07-29_22h55.54.830,Simcolourproject_2stim_asymm_v5,2020.2.10,Win32,60,61025ae37ef11b136ea224fe,,,,,,,,,68,26,56,1,0,0,response1disk,,7,-3,1,1,0,0,rectangle,-3,1,1,0,0,-3,1,1,0,0,1,58,218,22,1,,,,,,,,
,,,,,,,,,,,,,FF,,,,,,,,0.7171,,,,,,,,,,,,,,,,,,,,,,5f63b9d3a83a7d0ecdda4eb2,61037757864e7cffc8c688f6,2021-07-29_22h55.54.830,Simcolourproject_2stim_asymm_v5,2020.2.10,Win32,60,61025ae37ef11b136ea224fe,,,,,,,,,3498,28,61,1,0,0,response1disk,,7,-7,-1,1,0,0,rectangle,-7,-1,1,0,0,-7,-1,1,0,0,1,59,219,57,1,,,,,,,,
,,,,,,,,,,,,,FF,,,,,,,,0.6167,,,,,,,,,,,,,,,,,,,,,,5f63b9d3a83a7d0ecdda4eb2,61037757864e7cffc8c688f6,2021-07-29_22h55.54.830,Simcolourproject_2stim_asymm_v5,2020.2.10,Win32,60,61025ae37ef11b136ea224fe,,,,,,,,,1652,30,50,1,0,0,response1disk,,7,14,8,1,0,0,rectangle,14,8,1,0,0,14,8,1,0,0,1,60,220,13,1,,,,,,,,
,,,,,,,,,,,,,FF,,,,,,,,0.6159,,,,,,,,,,,,,,,,,,,,,,5f63b9d3a83a7d0ecdda4eb2,61037757864e7cffc8c688f6,2021-07-29_22h55.54.830,Simcolourproject_2stim_asymm_v5,2020.2.10,Win32,60,61025ae37ef11b136ea224fe,,,,,,,,,117,50,69,1,0,0,response1disk,,7,11,-1,1,0,0,rectangle,11,-1,1,0,0,11,-1,1,0,0,1,61,221,103,1,,,,,,,,
,,,,,,,,,,,,,FF,,,,,,,,1.1169,,,,,,,,,,,,,,,,,,,,,,5f63b9d3a83a7d0ecdda4eb2,61037757864e7cffc8c688f6,2021-07-29_22h55.54.830,Simcolourproject_2stim_asymm_v5,2020.2.10,Win32,60,61025ae37ef11b136ea224fe,,,,,,,,,2144,32,38,1,0,0,response1disk,,7,11,-3,1,0,0,rectangle,11,-3,1,0,0,11,-3,1,0,0,1,62,222,153,1,,,,,,,,
,,,,,,,,,,,,,FF,,,,,,,,0.7836,,,,,,,,,,,,,,,,,,,,,,5f63b9d3a83a7d0ecdda4eb2,61037757864e7cffc8c688f6,2021-07-29_22h55.54.830,Simcolourproject_2stim_asymm_v5,2020.2.10,Win32,60,61025ae37ef11b136ea224fe,,,,,,,,,370,52,79,1,0,0,response1disk,,7,2,3,1,0,0,rectangle,2,3,1,0,0,2,3,1,0,0,1,63,223,133,1,,,,,,,,
,,,,,,,,,,,,,FF,,,,,,,,1.1505,,,,,,,,,,,,,,,,,,,,,,5f63b9d3a83a7d0ecdda4eb2,61037757864e7cffc8c688f6,2021-07-29_22h55.54.830,Simcolourproject_2stim_asymm_v5,2020.2.10,Win32,60,61025ae37ef11b136ea224fe,,,,,,,,,3295,-54,-34,1,0,0,response5disk,,2,-1,7,1,0,0,rectangle,-1,7,1,0,0,-1,7,1,0,0,1,64,224,144,1,,,,,,,,
,,,,,,,,,,,,,FF,,,,,,,,0.9674,,,,,,,,,,,,,,,,,,,,,,5f63b9d3a83a7d0ecdda4eb2,61037757864e7cffc8c688f6,2021-07-29_22h55.54.830,Simcolourproject_2stim_asymm_v5,2020.2.10,Win32,60,61025ae37ef11b136ea224fe,,,,,,,,,3097,-78,21,1,0,0,response7disk,,1,-11,-1,1,0,0,rectangle,-11,-1,1,0,0,-11,-1,1,0,0,1,65,225,18,1,,,,,,,,
,,,,,,,,,,,,,FF,,,,,,,,1.4053,,,,,,,,,,,,,,,,,,,,,,5f63b9d3a83a7d0ecdda4eb2,61037757864e7cffc8c688f6,2021-07-29_22h55.54.830,Simcolourproject_2stim_asymm_v5,2020.2.10,Win32,60,61025ae37ef11b136ea224fe,,,,,,,,,2285,47,-83,1,0,0,response3disk,,4,-10,4,1,0,0,rectangle,-10,4,1,0,0,-10,4,1,0,0,1,66,226,72,1,,,,,,,,
,,,,,,,,,,,,,FF,,,,,,,,1.1679,,,,,,,,,,,,,,,,,,,,,,5f63b9d3a83a7d0ecdda4eb2,61037757864e7cffc8c688f6,2021-07-29_22h55.54.830,Simcolourproject_2stim_asymm_v5,2020.2.10,Win32,60,61025ae37ef11b136ea224fe,,,,,,,,,1867,39,96,1,0,0,response1disk,,7,14,3,1,0,0,rectangle,14,3,1,0,0,14,3,1,0,0,1,67,227,60,1,,,,,,,,
,,,,,,,,,,,,,FF,,,,,,,,0.9004,,,,,,,,,,,,,,,,,,,,,,5f63b9d3a83a7d0ecdda4eb2,61037757864e7cffc8c688f6,2021-07-29_22h55.54.830,Simcolourproject_2stim_asymm_v5,2020.2.10,Win32,60,61025ae37ef11b136ea224fe,,,,,,,,,3618,61,108,1,0,0,response1disk,,7,13,5,1,0,0,rectangle,13,5,1,0,0,13,5,1,0,0,1,68,228,31,1,,,,,,,,
,,,,,,,,,,,,,FF,,,,,,,,2.1173,,,,,,,,,,,,,,,,,,,,,,5f63b9d3a83a7d0ecdda4eb2,61037757864e7cffc8c688f6,2021-07-29_22h55.54.830,Simcolourproject_2stim_asymm_v5,2020.2.10,Win32,60,61025ae37ef11b136ea224fe,,,,,,,,,1193,65,-29,1,0,0,response3disk,,5,18,2,1,0,0,rectangle,18,2,1,0,0,18,2,1,0,0,1,69,229,23,1,,,,,,,,
,,,,,,,,,,,,,FF,,,,,,,,5.1669,,,,,,,,,,,,,,,,,,,,,,5f63b9d3a83a7d0ecdda4eb2,61037757864e7cffc8c688f6,2021-07-29_22h55.54.830,Simcolourproject_2stim_asymm_v5,2020.2.10,Win32,60,61025ae37ef11b136ea224fe,,,,,,,,,1326,60,-76,1,0,0,response3disk,,4,30,-10,1,0,0,rectangle,30,-10,1,0,0,30,-10,1,0,0,1,70,230,137,1,,,,,,,,
,,,,,,,,,,,,,FF,,,,,,,,1.9007,,,,,,,,,,,,,,,,,,,,,,5f63b9d3a83a7d0ecdda4eb2,61037757864e7cffc8c688f6,2021-07-29_22h55.54.830,Simcolourproject_2stim_asymm_v5,2020.2.10,Win32,60,61025ae37ef11b136ea224fe,,,,,,,,,1528,-84,-57,1,0,0,response5disk,,2,-14,15,1,0,0,rectangle,-14,15,1,0,0,-14,15,1,0,0,1,71,231,20,1,,,,,,,,
,,,,,,,,,,,,,FF,,,,,,,,1.1339,,,,,,,,,,,,,,,,,,,,,,5f63b9d3a83a7d0ecdda4eb2,61037757864e7cffc8c688f6,2021-07-29_22h55.54.830,Simcolourproject_2stim_asymm_v5,2020.2.10,Win32,60,61025ae37ef11b136ea224fe,,,,,,,,,1902,-90,-49,1,0,0,response5disk,,2,-14,-6,1,0,0,rectangle,-14,-6,1,0,0,-14,-6,1,0,0,1,72,232,92,1,,,,,,,,
,,,,,,,,,,,,,FF,,,,,,,,0.9836,,,,,,,,,,,,,,,,,,,,,,5f63b9d3a83a7d0ecdda4eb2,61037757864e7cffc8c688f6,2021-07-29_22h55.54.830,Simcolourproject_2stim_asymm_v5,2020.2.10,Win32,60,61025ae37ef11b136ea224fe,,,,,,,,,999,70,-41,1,0,0,response3disk,,5,14,-7,1,0,0,rectangle,14,-7,1,0,0,14,-7,1,0,0,1,73,233,7,1,,,,,,,,
,,,,,,,,,,,,,FF,,,,,,,,0.9172,,,,,,,,,,,,,,,,,,,,,,5f63b9d3a83a7d0ecdda4eb2,61037757864e7cffc8c688f6,2021-07-29_22h55.54.830,Simcolourproject_2stim_asymm_v5,2020.2.10,Win32,60,61025ae37ef11b136ea224fe,,,,,,,,,2149,26,64,1,0,0,response1disk,,7,5,-2,1,0,0,rectangle,5,-2,1,0,0,5,-2,1,0,0,1,74,234,88,1,,,,,,,,
,,,,,,,,,,,,,FF,,,,,,,,0.834,,,,,,,,,,,,,,,,,,,,,,5f63b9d3a83a7d0ecdda4eb2,61037757864e7cffc8c688f6,2021-07-29_22h55.54.830,Simcolourproject_2stim_asymm_v5,2020.2.10,Win32,60,61025ae37ef11b136ea224fe,,,,,,,,,3351,70,43,1,0,0,response1disk,,6,1,0,1,0,0,rectangle,1,0,1,0,0,1,0,1,0,0,1,75,235,17,1,,,,,,,,
,,,,,,,,,,,,,FF,,,,,,,,0.9671,,,,,,,,,,,,,,,,,,,,,,5f63b9d3a83a7d0ecdda4eb2,61037757864e7cffc8c688f6,2021-07-29_22h55.54.830,Simcolourproject_2stim_asymm_v5,2020.2.10,Win32,60,61025ae37ef11b136ea224fe,,,,,,,,,670,36,71,1,0,0,response1disk,,7,-23,3,1,0,0,rectangle,-23,3,1,0,0,-23,3,1,0,0,1,76,236,12,1,,,,,,,,
,,,,,,,,,,,,,FF,,,,,,,,1.1837,,,,,,,,,,,,,,,,,,,,,,5f63b9d3a83a7d0ecdda4eb2,61037757864e7cffc8c688f6,2021-07-29_22h55.54.830,Simcolourproject_2stim_asymm_v5,2020.2.10,Win32,60,61025ae37ef11b136ea224fe,,,,,,,,,3661,-44,-63,1,0,0,response5disk,,3,0,-4,1,0,0,rectangle,36,71,1,0,0,-3,-7,1,0,0,1,77,237,66,1,,response1disk_3,TRUE,7,7,"[303,145,34,238,138,200,155,23,184,145,306,199,168,76,311,12,239,298,126,181]",1.8056,rectangle
,,,,,,,,,,,,,FF,,,,,,,,1.3337,,,,,,,,,,,,,,,,,,,,,,5f63b9d3a83a7d0ecdda4eb2,61037757864e7cffc8c688f6,2021-07-29_22h55.54.830,Simcolourproject_2stim_asymm_v5,2020.2.10,Win32,60,61025ae37ef11b136ea224fe,,,,,,,,,1742,42,79,1,0,0,response1disk,,7,-2,1,1,0,0,rectangle,-88,-55,1,0,0,1,0,1,0,0,1,78,238,36,1,,response5disk_3,TRUE,2,2,"[303,145,34,238,138,200,155,23,184,145,306,199,168,76,311,12,239,298,126,181]",1.7502,rectangle
,,,,,,,,,,,,,FF,,,,,,,,1.7169,,,,,,,,,,,,,,,,,,,,,,5f63b9d3a83a7d0ecdda4eb2,61037757864e7cffc8c688f6,2021-07-29_22h55.54.830,Simcolourproject_2stim_asymm_v5,2020.2.10,Win32,60,61025ae37ef11b136ea224fe,,,,,,,,,92,34,-86,1,0,0,response3disk,,4,-11,13,1,0,0,rectangle,-11,13,1,0,0,-11,13,1,0,0,1,79,239,125,1,,,,,,,,
,,,,,,,,,,,,,FF,,,,,,,,1.2007,,,,,,,,,,,,,,,,,,,,,,5f63b9d3a83a7d0ecdda4eb2,61037757864e7cffc8c688f6,2021-07-29_22h55.54.830,Simcolourproject_2stim_asymm_v5,2020.2.10,Win32,60,61025ae37ef11b136ea224fe,,,,,,,,,2548,-83,-49,1,0,0,response5disk,,2,-19,-6,1,0,0,rectangle,-19,-6,1,0,0,-19,-6,1,0,0,1,80,240,127,1,,,,,,,,
,,,,,,,,,,,,,FF,,,,,,,,1.2651,,,,,,,,,,,,,,,,,,,,,,5f63b9d3a83a7d0ecdda4eb2,61037757864e7cffc8c688f6,2021-07-29_22h55.54.830,Simcolourproject_2stim_asymm_v5,2020.2.10,Win32,60,61025ae37ef11b136ea224fe,,,,,,,,,1711,94,72,1,0,0,response1disk,,6,-6,-3,1,0,0,rectangle,-6,-3,1,0,0,-6,-3,1,0,0,1,81,241,15,1,,,,,,,,
,,,,,,,,,,,,,FF,,,,,,,,2.1686,,,,,,,,,,,,,,,,,,,,,,5f63b9d3a83a7d0ecdda4eb2,61037757864e7cffc8c688f6,2021-07-29_22h55.54.830,Simcolourproject_2stim_asymm_v5,2020.2.10,Win32,60,61025ae37ef11b136ea224fe,,,,,,,,,18,103,-34,1,0,0,response3disk,,5,13,-3,1,0,0,rectangle,13,-3,1,0,0,13,-3,1,0,0,1,82,242,59,1,,,,,,,,
,,,,,,,,,,,,,FF,,,,,,,,1.2543,,,,,,,,,,,,,,,,,,,,,,5f63b9d3a83a7d0ecdda4eb2,61037757864e7cffc8c688f6,2021-07-29_22h55.54.830,Simcolourproject_2stim_asymm_v5,2020.2.10,Win32,60,61025ae37ef11b136ea224fe,,,,,,,,,3088,26,-84,1,0,0,response3disk,,4,-10,-1,1,0,0,rectangle,-10,-1,1,0,0,-10,-1,1,0,0,1,83,243,136,1,,,,,,,,
,,,,,,,,,,,,,FF,,,,,,,,1.1641,,,,,,,,,,,,,,,,,,,,,,5f63b9d3a83a7d0ecdda4eb2,61037757864e7cffc8c688f6,2021-07-29_22h55.54.830,Simcolourproject_2stim_asymm_v5,2020.2.10,Win32,60,61025ae37ef11b136ea224fe,,,,,,,,,2845,84,-105,1,0,0,response3disk,,4,4,10,1,0,0,rectangle,4,10,1,0,0,4,10,1,0,0,1,84,244,10,1,,,,,,,,
,,,,,,,,,,,,,FF,,,,,,,,1.0853,,,,,,,,,,,,,,,,,,,,,,5f63b9d3a83a7d0ecdda4eb2,61037757864e7cffc8c688f6,2021-07-29_22h55.54.830,Simcolourproject_2stim_asymm_v5,2020.2.10,Win32,60,61025ae37ef11b136ea224fe,,,,,,,,,1502,41,94,1,0,0,response1disk,,7,11,4,1,0,0,rectangle,11,4,1,0,0,11,4,1,0,0,1,85,245,101,1,,,,,,,,
,,,,,,,,,,,,,FF,,,,,,,,1.52,,,,,,,,,,,,,,,,,,,,,,5f63b9d3a83a7d0ecdda4eb2,61037757864e7cffc8c688f6,2021-07-29_22h55.54.830,Simcolourproject_2stim_asymm_v5,2020.2.10,Win32,60,61025ae37ef11b136ea224fe,,,,,,,,,1487,36,99,1,0,0,response1disk,,7,-20,-4,1,0,0,rectangle,-20,-4,1,0,0,-20,-4,1,0,0,1,86,246,30,1,,,,,,,,
,,,,,,,,,,,,,FF,,,,,,,,0.7544,,,,,,,,,,,,,,,,,,,,,,5f63b9d3a83a7d0ecdda4eb2,61037757864e7cffc8c688f6,2021-07-29_22h55.54.830,Simcolourproject_2stim_asymm_v5,2020.2.10,Win32,60,61025ae37ef11b136ea224fe,,,,,,,,,1088,32,47,1,0,0,response1disk,,7,5,7,1,0,0,rectangle,5,7,1,0,0,5,7,1,0,0,1,87,247,124,1,,,,,,,,
,,,,,,,,,,,,,FF,,,,,,,,0.885,,,,,,,,,,,,,,,,,,,,,,5f63b9d3a83a7d0ecdda4eb2,61037757864e7cffc8c688f6,2021-07-29_22h55.54.830,Simcolourproject_2stim_asymm_v5,2020.2.10,Win32,60,61025ae37ef11b136ea224fe,,,,,,,,,2745,40,56,1,0,0,response1disk,,7,20,4,1,0,0,rectangle,20,4,1,0,0,20,4,1,0,0,1,88,248,143,1,,,,,,,,
,,,,,,,,,,,,,FF,,,,,,,,0.902,,,,,,,,,,,,,,,,,,,,,,5f63b9d3a83a7d0ecdda4eb2,61037757864e7cffc8c688f6,2021-07-29_22h55.54.830,Simcolourproject_2stim_asymm_v5,2020.2.10,Win32,60,61025ae37ef11b136ea224fe,,,,,,,,,2003,47,88,1,0,0,response1disk,,7,15,6,1,0,0,rectangle,15,6,1,0,0,15,6,1,0,0,1,89,249,93,1,,,,,,,,
,,,,,,,,,,,,,FF,,,,,,,,1.1677,,,,,,,,,,,,,,,,,,,,,,5f63b9d3a83a7d0ecdda4eb2,61037757864e7cffc8c688f6,2021-07-29_22h55.54.830,Simcolourproject_2stim_asymm_v5,2020.2.10,Win32,60,61025ae37ef11b136ea224fe,,,,,,,,,343,-36,-95,1,0,0,response5disk,,3,0,1,1,0,0,rectangle,0,1,1,0,0,0,1,1,0,0,1,90,250,96,1,,,,,,,,
,,,,,,,,,,,,,FF,,,,,,,,1.0169,,,,,,,,,,,,,,,,,,,,,,5f63b9d3a83a7d0ecdda4eb2,61037757864e7cffc8c688f6,2021-07-29_22h55.54.830,Simcolourproject_2stim_asymm_v5,2020.2.10,Win32,60,61025ae37ef11b136ea224fe,,,,,,,,,4368,-46,70,1,0,0,response7disk,,0,-6,-10,1,0,0,rectangle,-6,-10,1,0,0,-6,-10,1,0,0,1,91,251,42,1,,,,,,,,
,,,,,,,,,,,,,FF,,,,,,,,1.4835,,,,,,,,,,,,,,,,,,,,,,5f63b9d3a83a7d0ecdda4eb2,61037757864e7cffc8c688f6,2021-07-29_22h55.54.830,Simcolourproject_2stim_asymm_v5,2020.2.10,Win32,60,61025ae37ef11b136ea224fe,,,,,,,,,2982,76,52,1,0,0,response1disk,,6,-19,-6,1,0,0,rectangle,-19,-6,1,0,0,-19,-6,1,0,0,1,92,252,138,1,,,,,,,,
,,,,,,,,,,,,,FF,,,,,,,,1.4528,,,,,,,,,,,,,,,,,,,,,,5f63b9d3a83a7d0ecdda4eb2,61037757864e7cffc8c688f6,2021-07-29_22h55.54.830,Simcolourproject_2stim_asymm_v5,2020.2.10,Win32,60,61025ae37ef11b136ea224fe,,,,,,,,,490,57,86,1,0,0,response1disk,,7,23,5,1,0,0,rectangle,23,5,1,0,0,23,5,1,0,0,1,93,253,46,1,,,,,,,,
,,,,,,,,,,,,,FF,,,,,,,,1.1999,,,,,,,,,,,,,,,,,,,,,,5f63b9d3a83a7d0ecdda4eb2,61037757864e7cffc8c688f6,2021-07-29_22h55.54.830,Simcolourproject_2stim_asymm_v5,2020.2.10,Win32,60,61025ae37ef11b136ea224fe,,,,,,,,,667,79,-102,1,0,0,response3disk,,4,5,0,1,0,0,rectangle,5,0,1,0,0,5,0,1,0,0,1,94,254,24,1,,,,,,,,
,,,,,,,,,,,,,FF,,,,,,,,1.5542,,,,,,,,,,,,,,,,,,,,,,5f63b9d3a83a7d0ecdda4eb2,61037757864e7cffc8c688f6,2021-07-29_22h55.54.830,Simcolourproject_2stim_asymm_v5,2020.2.10,Win32,60,61025ae37ef11b136ea224fe,,,,,,,,,605,-57,-89,1,0,0,response5disk,,3,-27,-7,1,0,0,rectangle,-27,-7,1,0,0,-27,-7,1,0,0,1,95,255,61,1,,,,,,,,
,,,,,,,,,,,,,FF,,,,,,,,1.421,,,,,,,,,,,,,,,,,,,,,,5f63b9d3a83a7d0ecdda4eb2,61037757864e7cffc8c688f6,2021-07-29_22h55.54.830,Simcolourproject_2stim_asymm_v5,2020.2.10,Win32,60,61025ae37ef11b136ea224fe,,,,,,,,,248,-84,-54,1,0,0,response5disk,,2,-8,-8,1,0,0,rectangle,-8,-8,1,0,0,-8,-8,1,0,0,1,96,256,121,1,,,,,,,,
,,,,,,,,,,,,,FF,,,,,,,,1.9798,,,,,,,,,,,,,,,,,,,,,,5f63b9d3a83a7d0ecdda4eb2,61037757864e7cffc8c688f6,2021-07-29_22h55.54.830,Simcolourproject_2stim_asymm_v5,2020.2.10,Win32,60,61025ae37ef11b136ea224fe,,,,,,,,,4035,61,-24,1,0,0,response3disk,,5,-10,6,1,0,0,rectangle,-10,6,1,0,0,-10,6,1,0,0,1,97,257,4,1,,,,,,,,
,,,,,,,,,,,,,FF,,,,,,,,2.4348,,,,,,,,,,,,,,,,,,,,,,5f63b9d3a83a7d0ecdda4eb2,61037757864e7cffc8c688f6,2021-07-29_22h55.54.830,Simcolourproject_2stim_asymm_v5,2020.2.10,Win32,60,61025ae37ef11b136ea224fe,,,,,,,,,1173,37,-104,1,0,0,response3disk,,4,12,1,1,0,0,rectangle,12,1,1,0,0,12,1,1,0,0,1,98,258,94,1,,,,,,,,
,,,,,,,,,,,,,FF,,,,,,,,1.0497,,,,,,,,,,,,,,,,,,,,,,5f63b9d3a83a7d0ecdda4eb2,61037757864e7cffc8c688f6,2021-07-29_22h55.54.830,Simcolourproject_2stim_asymm_v5,2020.2.10,Win32,60,61025ae37ef11b136ea224fe,,,,,,,,,2269,59,73,1,0,0,response1disk,,7,-1,0,1,0,0,rectangle,-1,0,1,0,0,-1,0,1,0,0,1,99,259,156,1,,,,,,,,
,,,,,,,,,,,,,FF,,,,,,,,0.919,,,,,,,,,,,,,,,,,,,,,,5f63b9d3a83a7d0ecdda4eb2,61037757864e7cffc8c688f6,2021-07-29_22h55.54.830,Simcolourproject_2stim_asymm_v5,2020.2.10,Win32,60,61025ae37ef11b136ea224fe,,,,,,,,,2177,22,47,1,0,0,response1disk,,7,-21,-1,1,0,0,rectangle,-21,-1,1,0,0,-21,-1,1,0,0,1,100,260,115,1,,,,,,,,
,,,,,,,,,,,,,FF,,,,,,,,1.6811,,,,,,,,,,,,,,,,,,,,,,5f63b9d3a83a7d0ecdda4eb2,61037757864e7cffc8c688f6,2021-07-29_22h55.54.830,Simcolourproject_2stim_asymm_v5,2020.2.10,Win32,60,61025ae37ef11b136ea224fe,,,,,,,,,3683,32,-82,1,0,0,response3disk,,4,4,-4,1,0,0,rectangle,4,-4,1,0,0,4,-4,1,0,0,1,101,261,149,1,,,,,,,,
,,,,,,,,,,,,,FF,,,,,,,,1.2356,,,,,,,,,,,,,,,,,,,,,,5f63b9d3a83a7d0ecdda4eb2,61037757864e7cffc8c688f6,2021-07-29_22h55.54.830,Simcolourproject_2stim_asymm_v5,2020.2.10,Win32,60,61025ae37ef11b136ea224fe,,,,,,,,,958,-33,-91,1,0,0,response5disk,,3,22,9,1,0,0,rectangle,22,9,1,0,0,22,9,1,0,0,1,102,262,53,1,,,,,,,,
,,,,,,,,,,,,,FF,,,,,,,,3.3833,,,,,,,,,,,,,,,,,,,,,,5f63b9d3a83a7d0ecdda4eb2,61037757864e7cffc8c688f6,2021-07-29_22h55.54.830,Simcolourproject_2stim_asymm_v5,2020.2.10,Win32,60,61025ae37ef11b136ea224fe,,,,,,,,,1536,-60,-94,1,0,0,response5disk,,3,21,2,1,0,0,rectangle,21,2,1,0,0,21,2,1,0,0,1,103,263,113,1,,,,,,,,
,,,,,,,,,,,,,FF,,,,,,,,1.0684,,,,,,,,,,,,,,,,,,,,,,5f63b9d3a83a7d0ecdda4eb2,61037757864e7cffc8c688f6,2021-07-29_22h55.54.830,Simcolourproject_2stim_asymm_v5,2020.2.10,Win32,60,61025ae37ef11b136ea224fe,,,,,,,,,1620,-39,-114,1,0,0,response5disk,,3,-8,0,1,0,0,rectangle,-8,0,1,0,0,-8,0,1,0,0,1,104,264,108,1,,,,,,,,
,,,,,,,,,,,,,FF,,,,,,,,0.9676,,,,,,,,,,,,,,,,,,,,,,5f63b9d3a83a7d0ecdda4eb2,61037757864e7cffc8c688f6,2021-07-29_22h55.54.830,Simcolourproject_2stim_asymm_v5,2020.2.10,Win32,60,61025ae37ef11b136ea224fe,,,,,,,,,406,44,66,1,0,0,response1disk,,7,3,-2,1,0,0,rectangle,3,-2,1,0,0,3,-2,1,0,0,1,105,265,86,1,,,,,,,,
,,,,,,,,,,,,,FF,,,,,,,,0.9338,,,,,,,,,,,,,,,,,,,,,,5f63b9d3a83a7d0ecdda4eb2,61037757864e7cffc8c688f6,2021-07-29_22h55.54.830,Simcolourproject_2stim_asymm_v5,2020.2.10,Win32,60,61025ae37ef11b136ea224fe,,,,,,,,,3258,-73,-99,1,0,0,response5disk,,3,8,-9,1,0,0,rectangle,8,-9,1,0,0,8,-9,1,0,0,1,106,266,69,1,,,,,,,,
,,,,,,,,,,,,,FF,,,,,,,,4.8664,,,,,,,,,,,,,,,,,,,,,,5f63b9d3a83a7d0ecdda4eb2,61037757864e7cffc8c688f6,2021-07-29_22h55.54.830,Simcolourproject_2stim_asymm_v5,2020.2.10,Win32,60,61025ae37ef11b136ea224fe,,,,,,,,,4113,82,-63,1,0,0,response3disk,,5,7,12,1,0,0,rectangle,7,12,1,0,0,7,12,1,0,0,1,107,267,122,1,,,,,,,,
,,,,,,,,,,,,,FF,,,,,,,,3.0501,,,,,,,,,,,,,,,,,,,,,,5f63b9d3a83a7d0ecdda4eb2,61037757864e7cffc8c688f6,2021-07-29_22h55.54.830,Simcolourproject_2stim_asymm_v5,2020.2.10,Win32,60,61025ae37ef11b136ea224fe,,,,,,,,,310,79,-73,1,0,0,response3disk,,5,-1,-11,1,0,0,rectangle,-1,-11,1,0,0,-1,-11,1,0,0,1,108,268,147,1,,,,,,,,
,,,,,,,,,,,,,FF,,,,,,,,1.1175,,,,,,,,,,,,,,,,,,,,,,5f63b9d3a83a7d0ecdda4eb2,61037757864e7cffc8c688f6,2021-07-29_22h55.54.830,Simcolourproject_2stim_asymm_v5,2020.2.10,Win32,60,61025ae37ef11b136ea224fe,,,,,,,,,3564,55,-70,1,0,0,response3disk,,4,13,-4,1,0,0,rectangle,13,-4,1,0,0,13,-4,1,0,0,1,109,269,27,1,,,,,,,,
,,,,,,,,,,,,,FF,,,,,,,,0.9673,,,,,,,,,,,,,,,,,,,,,,5f63b9d3a83a7d0ecdda4eb2,61037757864e7cffc8c688f6,2021-07-29_22h55.54.830,Simcolourproject_2stim_asymm_v5,2020.2.10,Win32,60,61025ae37ef11b136ea224fe,,,,,,,,,2195,63,-49,1,0,0,response3disk,,5,21,5,1,0,0,rectangle,21,5,1,0,0,21,5,1,0,0,1,110,270,37,1,,,,,,,,
,,,,,,,,,,,,,FF,,,,,,,,0.8672,,,,,,,,,,,,,,,,,,,,,,5f63b9d3a83a7d0ecdda4eb2,61037757864e7cffc8c688f6,2021-07-29_22h55.54.830,Simcolourproject_2stim_asymm_v5,2020.2.10,Win32,60,61025ae37ef11b136ea224fe,,,,,,,,,576,65,51,1,0,0,response1disk,,6,19,-4,1,0,0,rectangle,19,-4,1,0,0,19,-4,1,0,0,1,111,271,19,1,,,,,,,,
,,,,,,,,,,,,,FF,,,,,,,,1.7173,,,,,,,,,,,,,,,,,,,,,,5f63b9d3a83a7d0ecdda4eb2,61037757864e7cffc8c688f6,2021-07-29_22h55.54.830,Simcolourproject_2stim_asymm_v5,2020.2.10,Win32,60,61025ae37ef11b136ea224fe,,,,,,,,,2682,44,60,1,0,0,response1disk,,7,21,10,1,0,0,rectangle,21,10,1,0,0,21,10,1,0,0,1,112,272,157,1,,,,,,,,
,,,,,,,,,,,,,FF,,,,,,,,1.0013,,,,,,,,,,,,,,,,,,,,,,5f63b9d3a83a7d0ecdda4eb2,61037757864e7cffc8c688f6,2021-07-29_22h55.54.830,Simcolourproject_2stim_asymm_v5,2020.2.10,Win32,60,61025ae37ef11b136ea224fe,,,,,,,,,1779,100,31,1,0,0,response1disk,,6,-8,-6,1,0,0,rectangle,-8,-6,1,0,0,-8,-6,1,0,0,1,113,273,0,1,,,,,,,,
,,,,,,,,,,,,,FF,,,,,,,,0.9838,,,,,,,,,,,,,,,,,,,,,,5f63b9d3a83a7d0ecdda4eb2,61037757864e7cffc8c688f6,2021-07-29_22h55.54.830,Simcolourproject_2stim_asymm_v5,2020.2.10,Win32,60,61025ae37ef11b136ea224fe,,,,,,,,,1210,73,118,1,0,0,response1disk,,7,17,8,1,0,0,rectangle,17,8,1,0,0,17,8,1,0,0,1,114,274,83,1,,,,,,,,
,,,,,,,,,,,,,FF,,,,,,,,1.5001,,,,,,,,,,,,,,,,,,,,,,5f63b9d3a83a7d0ecdda4eb2,61037757864e7cffc8c688f6,2021-07-29_22h55.54.830,Simcolourproject_2stim_asymm_v5,2020.2.10,Win32,60,61025ae37ef11b136ea224fe,,,,,,,,,1188,48,-76,1,0,0,response3disk,,4,15,0,1,0,0,rectangle,15,0,1,0,0,15,0,1,0,0,1,115,275,130,1,,,,,,,,
,,,,,,,,,,,,,FF,,,,,,,,1.3172,,,,,,,,,,,,,,,,,,,,,,5f63b9d3a83a7d0ecdda4eb2,61037757864e7cffc8c688f6,2021-07-29_22h55.54.830,Simcolourproject_2stim_asymm_v5,2020.2.10,Win32,60,61025ae37ef11b136ea224fe,,,,,,,,,4060,87,-51,1,0,0,response3disk,,5,4,7,1,0,0,rectangle,4,7,1,0,0,4,7,1,0,0,1,116,276,43,1,,,,,,,,
,,,,,,,,,,,,,FF,,,,,,,,3.8335,,,,,,,,,,,,,,,,,,,,,,5f63b9d3a83a7d0ecdda4eb2,61037757864e7cffc8c688f6,2021-07-29_22h55.54.830,Simcolourproject_2stim_asymm_v5,2020.2.10,Win32,60,61025ae37ef11b136ea224fe,,,,,,,,,2459,60,-104,1,0,0,response3disk,,4,1,3,1,0,0,rectangle,1,3,1,0,0,1,3,1,0,0,1,117,277,65,1,,,,,,,,
,,,,,,,,,,,,,FF,,,,,,,,1.0669,,,,,,,,,,,,,,,,,,,,,,5f63b9d3a83a7d0ecdda4eb2,61037757864e7cffc8c688f6,2021-07-29_22h55.54.830,Simcolourproject_2stim_asymm_v5,2020.2.10,Win32,60,61025ae37ef11b136ea224fe,,,,,,,,,377,76,-68,1,0,0,response3disk,,5,27,14,1,0,0,rectangle,27,14,1,0,0,27,14,1,0,0,1,118,278,139,1,,,,,,,,
,,,,,,,,,,,,,FF,,,,,,,,1.8002,,,,,,,,,,,,,,,,,,,,,,5f63b9d3a83a7d0ecdda4eb2,61037757864e7cffc8c688f6,2021-07-29_22h55.54.830,Simcolourproject_2stim_asymm_v5,2020.2.10,Win32,60,61025ae37ef11b136ea224fe,,,,,,,,,3218,75,18,1,0,0,response1disk,,6,12,0,1,0,0,rectangle,12,0,1,0,0,12,0,1,0,0,1,119,279,5,1,,,,,,,,
,,,,,,,,,,,,,FF,,,,,,,,0.9026,,,,,,,,,,,,,,,,,,,,,,5f63b9d3a83a7d0ecdda4eb2,61037757864e7cffc8c688f6,2021-07-29_22h55.54.830,Simcolourproject_2stim_asymm_v5,2020.2.10,Win32,60,61025ae37ef11b136ea224fe,,,,,,,,,4211,41,65,1,0,0,response1disk,,7,10,3,1,0,0,rectangle,10,3,1,0,0,10,3,1,0,0,1,120,280,81,1,,,,,,,,
,,,,,,,,,,,,,FF,,,,,,,,1.4015,,,,,,,,,,,,,,,,,,,,,,5f63b9d3a83a7d0ecdda4eb2,61037757864e7cffc8c688f6,2021-07-29_22h55.54.830,Simcolourproject_2stim_asymm_v5,2020.2.10,Win32,60,61025ae37ef11b136ea224fe,,,,,,,,,1380,-74,-89,1,0,0,response5disk,,3,16,-4,1,0,0,rectangle,16,-4,1,0,0,16,-4,1,0,0,1,121,281,158,1,,,,,,,,
,,,,,,,,,,,,,FF,,,,,,,,1.8338,,,,,,,,,,,,,,,,,,,,,,5f63b9d3a83a7d0ecdda4eb2,61037757864e7cffc8c688f6,2021-07-29_22h55.54.830,Simcolourproject_2stim_asymm_v5,2020.2.10,Win32,60,61025ae37ef11b136ea224fe,,,,,,,,,3818,-83,-63,1,0,0,response5disk,,2,23,4,1,0,0,rectangle,23,4,1,0,0,23,4,1,0,0,1,122,282,116,1,,,,,,,,
,,,,,,,,,,,,,FF,,,,,,,,1.9862,,,,,,,,,,,,,,,,,,,,,,5f63b9d3a83a7d0ecdda4eb2,61037757864e7cffc8c688f6,2021-07-29_22h55.54.830,Simcolourproject_2stim_asymm_v5,2020.2.10,Win32,60,61025ae37ef11b136ea224fe,,,,,,,,,1263,82,-30,1,0,0,response3disk,,5,20,-10,1,0,0,rectangle,20,-10,1,0,0,20,-10,1,0,0,1,123,283,54,1,,,,,,,,
,,,,,,,,,,,,,FF,,,,,,,,1.3041,,,,,,,,,,,,,,,,,,,,,,5f63b9d3a83a7d0ecdda4eb2,61037757864e7cffc8c688f6,2021-07-29_22h55.54.830,Simcolourproject_2stim_asymm_v5,2020.2.10,Win32,60,61025ae37ef11b136ea224fe,,,,,,,,,621,77,46,1,0,0,response1disk,,6,14,-4,1,0,0,rectangle,14,-4,1,0,0,14,-4,1,0,0,1,124,284,3,1,,,,,,,,
,,,,,,,,,,,,,FF,,,,,,,,1.3006,,,,,,,,,,,,,,,,,,,,,,5f63b9d3a83a7d0ecdda4eb2,61037757864e7cffc8c688f6,2021-07-29_22h55.54.830,Simcolourproject_2stim_asymm_v5,2020.2.10,Win32,60,61025ae37ef11b136ea224fe,,,,,,,,,2054,71,44,1,0,0,response1disk,,6,20,4,1,0,0,rectangle,20,4,1,0,0,20,4,1,0,0,1,125,285,34,1,,,,,,,,
,,,,,,,,,,,,,FF,,,,,,,,2.1843,,,,,,,,,,,,,,,,,,,,,,5f63b9d3a83a7d0ecdda4eb2,61037757864e7cffc8c688f6,2021-07-29_22h55.54.830,Simcolourproject_2stim_asymm_v5,2020.2.10,Win32,60,61025ae37ef11b136ea224fe,,,,,,,,,3347,94,-71,1,0,0,response3disk,,5,22,-2,1,0,0,rectangle,22,-2,1,0,0,22,-2,1,0,0,1,126,286,44,1,,,,,,,,
,,,,,,,,,,,,,FF,,,,,,,,1.3665,,,,,,,,,,,,,,,,,,,,,,5f63b9d3a83a7d0ecdda4eb2,61037757864e7cffc8c688f6,2021-07-29_22h55.54.830,Simcolourproject_2stim_asymm_v5,2020.2.10,Win32,60,61025ae37ef11b136ea224fe,,,,,,,,,974,-79,-68,1,0,0,response5disk,,2,19,12,1,0,0,rectangle,19,12,1,0,0,19,12,1,0,0,1,127,287,39,1,,,,,,,,
,,,,,,,,,,,,,FF,,,,,,,,0.9671,,,,,,,,,,,,,,,,,,,,,,5f63b9d3a83a7d0ecdda4eb2,61037757864e7cffc8c688f6,2021-07-29_22h55.54.830,Simcolourproject_2stim_asymm_v5,2020.2.10,Win32,60,61025ae37ef11b136ea224fe,,,,,,,,,228,38,-89,1,0,0,response3disk,,4,12,1,1,0,0,rectangle,12,1,1,0,0,12,1,1,0,0,1,128,288,132,1,,,,,,,,
,,,,,,,,,,,,,FF,,,,,,,,1.7003,,,,,,,,,,,,,,,,,,,,,,5f63b9d3a83a7d0ecdda4eb2,61037757864e7cffc8c688f6,2021-07-29_22h55.54.830,Simcolourproject_2stim_asymm_v5,2020.2.10,Win32,60,61025ae37ef11b136ea224fe,,,,,,,,,3763,50,70,1,0,0,response1disk,,7,15,3,1,0,0,rectangle,15,3,1,0,0,15,3,1,0,0,1,129,289,35,1,,,,,,,,
,,,,,,,,,,,,,FF,,,,,,,,0.7173,,,,,,,,,,,,,,,,,,,,,,5f63b9d3a83a7d0ecdda4eb2,61037757864e7cffc8c688f6,2021-07-29_22h55.54.830,Simcolourproject_2stim_asymm_v5,2020.2.10,Win32,60,61025ae37ef11b136ea224fe,,,,,,,,,3459,22,51,1,0,0,response1disk,,7,-10,-11,1,0,0,rectangle,-10,-11,1,0,0,-10,-11,1,0,0,1,130,290,45,1,,,,,,,,
,,,,,,,,,,,,,FF,,,,,,,,0.9177,,,,,,,,,,,,,,,,,,,,,,5f63b9d3a83a7d0ecdda4eb2,61037757864e7cffc8c688f6,2021-07-29_22h55.54.830,Simcolourproject_2stim_asymm_v5,2020.2.10,Win32,60,61025ae37ef11b136ea224fe,,,,,,,,,4272,45,43,1,0,0,response1disk,,6,12,-7,1,0,0,rectangle,12,-7,1,0,0,12,-7,1,0,0,1,131,291,135,1,,,,,,,,
,,,,,,,,,,,,,FF,,,,,,,,1.6181,,,,,,,,,,,,,,,,,,,,,,5f63b9d3a83a7d0ecdda4eb2,61037757864e7cffc8c688f6,2021-07-29_22h55.54.830,Simcolourproject_2stim_asymm_v5,2020.2.10,Win32,60,61025ae37ef11b136ea224fe,,,,,,,,,118,74,101,1,0,0,response1disk,,7,11,0,1,0,0,rectangle,11,0,1,0,0,11,0,1,0,0,1,132,292,150,1,,,,,,,,
,,,,,,,,,,,,,FF,,,,,,,,0.8344,,,,,,,,,,,,,,,,,,,,,,5f63b9d3a83a7d0ecdda4eb2,61037757864e7cffc8c688f6,2021-07-29_22h55.54.830,Simcolourproject_2stim_asymm_v5,2020.2.10,Win32,60,61025ae37ef11b136ea224fe,,,,,,,,,1063,50,-68,1,0,0,response3disk,,4,2,5,1,0,0,rectangle,2,5,1,0,0,2,5,1,0,0,1,133,293,55,1,,,,,,,,
,,,,,,,,,,,,,FF,,,,,,,,0.8848,,,,,,,,,,,,,,,,,,,,,,5f63b9d3a83a7d0ecdda4eb2,61037757864e7cffc8c688f6,2021-07-29_22h55.54.830,Simcolourproject_2stim_asymm_v5,2020.2.10,Win32,60,61025ae37ef11b136ea224fe,,,,,,,,,2670,-41,-86,1,0,0,response5disk,,3,-12,0,1,0,0,rectangle,-12,0,1,0,0,-12,0,1,0,0,1,134,294,28,1,,,,,,,,
,,,,,,,,,,,,,FF,,,,,,,,0.8335,,,,,,,,,,,,,,,,,,,,,,5f63b9d3a83a7d0ecdda4eb2,61037757864e7cffc8c688f6,2021-07-29_22h55.54.830,Simcolourproject_2stim_asymm_v5,2020.2.10,Win32,60,61025ae37ef11b136ea224fe,,,,,,,,,2572,25,63,1,0,0,response1disk,,7,-19,2,1,0,0,rectangle,-19,2,1,0,0,-19,2,1,0,0,1,135,295,102,1,,,,,,,,
,,,,,,,,,,,,,FF,,,,,,,,2.5987,,,,,,,,,,,,,,,,,,,,,,5f63b9d3a83a7d0ecdda4eb2,61037757864e7cffc8c688f6,2021-07-29_22h55.54.830,Simcolourproject_2stim_asymm_v5,2020.2.10,Win32,60,61025ae37ef11b136ea224fe,,,,,,,,,2043,-21,-108,1,0,0,response5disk,,3,9,0,1,0,0,rectangle,9,0,1,0,0,9,0,1,0,0,1,136,296,73,1,,,,,,,,
,,,,,,,,,,,,,FF,,,,,,,,1.0153,,,,,,,,,,,,,,,,,,,,,,5f63b9d3a83a7d0ecdda4eb2,61037757864e7cffc8c688f6,2021-07-29_22h55.54.830,Simcolourproject_2stim_asymm_v5,2020.2.10,Win32,60,61025ae37ef11b136ea224fe,,,,,,,,,773,30,-60,1,0,0,response3disk,,4,20,-1,1,0,0,rectangle,35,60,1,0,0,-2,2,1,0,0,1,137,297,75,1,,response1disk_3,TRUE,7,7,"[303,145,34,238,138,200,155,23,184,145,306,199,168,76,311,12,239,298,126,181]",1.9504,rectangle
,,,,,,,,,,,,,FF,,,,,,,,1.3856,,,,,,,,,,,,,,,,,,,,,,5f63b9d3a83a7d0ecdda4eb2,61037757864e7cffc8c688f6,2021-07-29_22h55.54.830,Simcolourproject_2stim_asymm_v5,2020.2.10,Win32,60,61025ae37ef11b136ea224fe,,,,,,,,,1374,-98,-54,1,0,0,response5disk,,2,5,-2,1,0,0,rectangle,5,-2,1,0,0,5,-2,1,0,0,1,138,298,11,1,,,,,,,,
,,,,,,,,,,,,,FF,,,,,,,,1.1838,,,,,,,,,,,,,,,,,,,,,,5f63b9d3a83a7d0ecdda4eb2,61037757864e7cffc8c688f6,2021-07-29_22h55.54.830,Simcolourproject_2stim_asymm_v5,2020.2.10,Win32,60,61025ae37ef11b136ea224fe,,,,,,,,,1408,72,-56,1,0,0,response3disk,,5,16,7,1,0,0,rectangle,16,7,1,0,0,16,7,1,0,0,1,139,299,51,1,,,,,,,,
,,,,,,,,,,,,,FF,,,,,,,,1.6337,,,,,,,,,,,,,,,,,,,,,,5f63b9d3a83a7d0ecdda4eb2,61037757864e7cffc8c688f6,2021-07-29_22h55.54.830,Simcolourproject_2stim_asymm_v5,2020.2.10,Win32,60,61025ae37ef11b136ea224fe,,,,,,,,,1041,-43,-94,1,0,0,response5disk,,3,16,6,1,0,0,rectangle,16,6,1,0,0,16,6,1,0,0,1,140,300,95,1,,,,,,,,
,,,,,,,,,,,,,FF,,,,,,,,1.1175,,,,,,,,,,,,,,,,,,,,,,5f63b9d3a83a7d0ecdda4eb2,61037757864e7cffc8c688f6,2021-07-29_22h55.54.830,Simcolourproject_2stim_asymm_v5,2020.2.10,Win32,60,61025ae37ef11b136ea224fe,,,,,,,,,1604,-65,-30,1,0,0,response5disk,,2,14,1,1,0,0,rectangle,14,1,1,0,0,14,1,1,0,0,1,141,301,16,1,,,,,,,,
,,,,,,,,,,,,,FF,,,,,,,,1.734,,,,,,,,,,,,,,,,,,,,,,5f63b9d3a83a7d0ecdda4eb2,61037757864e7cffc8c688f6,2021-07-29_22h55.54.830,Simcolourproject_2stim_asymm_v5,2020.2.10,Win32,60,61025ae37ef11b136ea224fe,,,,,,,,,4191,88,-53,1,0,0,response3disk,,5,2,8,1,0,0,rectangle,77,-43,1,0,0,0,9,1,0,0,1,142,302,134,1,,response3disk_3,TRUE,5,5,"[303,145,34,238,138,200,155,23,184,145,306,199,168,76,311,12,239,298,126,181]",1.4292,rectangle
,,,,,,,,,,,,,FF,,,,,,,,1.1377,,,,,,,,,,,,,,,,,,,,,,5f63b9d3a83a7d0ecdda4eb2,61037757864e7cffc8c688f6,2021-07-29_22h55.54.830,Simcolourproject_2stim_asymm_v5,2020.2.10,Win32,60,61025ae37ef11b136ea224fe,,,,,,,,,3116,65,-33,1,0,0,response3disk,,5,5,5,1,0,0,rectangle,5,5,1,0,0,5,5,1,0,0,1,143,303,71,1,,,,,,,,
