key_resp.keys,key_resp.rt,key_resp_14.keys,key_resp_14.rt,key_resp_15.keys,key_resp_15.rt,key_resp_17.keys,key_resp_17.rt,key_resp_9.keys,key_resp_9.rt,key_resp_10.keys,key_resp_10.rt,practice_comparison,Ecc,mouse_5.x,mouse_5.y,mouse_5.leftButton,mouse_5.midButton,mouse_5.rightButton,mouse_5.clicked_name,pracsimilarity,response_time,mouse_10.x,mouse_10.y,mouse_10.leftButton,mouse_10.midButton,mouse_10.rightButton,mouse_10.clicked_name,mouse_7.x,mouse_7.y,mouse_7.leftButton,mouse_7.midButton,mouse_7.rightButton,mouse_6.x,mouse_6.y,mouse_6.leftButton,mouse_6.midButton,mouse_6.rightButton,duringprac.thisRepN,duringprac.thisTrialN,duringprac.thisN,duringprac.thisIndex,duringprac.ran,participant,session,date,expName,psychopyVersion,OS,frameRate,study_id,mouse_7.clicked_name,catchpracsimilarity,catch_response_time,catchnumberprac,catchtrialorderprac,mouse_6.clicked_name,key_resp_22.keys,key_resp_22.rt,realcomparison,mouse.x,mouse.y,mouse.leftButton,mouse.midButton,mouse.rightButton,mouse.clicked_name,Colour2,similarity,mouse_2.x,mouse_2.y,mouse_2.leftButton,mouse_2.midButton,mouse_2.rightButton,mouse_2.clicked_name,mouse_3.x,mouse_3.y,mouse_3.leftButton,mouse_3.midButton,mouse_3.rightButton,mouse_11.x,mouse_11.y,mouse_11.leftButton,mouse_11.midButton,mouse_11.rightButton,trials_2.thisRepN,trials_2.thisTrialN,trials_2.thisN,trials_2.thisIndex,trials_2.ran,Colour1,mouse_3.clicked_name,catchornah,catchsimilarity,catchnumber,catchtrialorder,catchRT,mouse_11.clicked_name
space,1.4854,space,4.6267,space,25.2596,space,7.7311,space,1.5176,space,4.5161,49,PF,-75,129,1,0,0,response7disk_5,0,2.9516,-7,1,1,0,0,rectangle_8,-7,1,1,0,0,-7,1,1,0,0,0,0,0,6,1,5ff3e48f937861584630e5a2,610369d986f319e6b28f8ee2,2021-07-29_21h54.54.136,Simcolourproject_2stim_asymm_v5,2020.2.10,Win32,60,61025ae37ef11b136ea224fe,,,,,,,,,,,,,,,,,,,,,,,,,,,,,,,,,,,,,,,,,,,,,,
,,,,,,,,,,,,149,PF,-81,127,1,0,0,response7disk_5,0,1.947,-4,5,1,0,0,rectangle_8,-49,142,1,0,0,-13,11,1,0,0,0,1,1,4,1,5ff3e48f937861584630e5a2,610369d986f319e6b28f8ee2,2021-07-29_21h54.54.136,Simcolourproject_2stim_asymm_v5,2020.2.10,Win32,60,61025ae37ef11b136ea224fe,response7disk_7,0,2.5458,0,"[2,5]",rectangle_4,,,,,,,,,,,,,,,,,,,,,,,,,,,,,,,,,,,,,,,,
,,,,,,,,,,,,159,FF,-47,93,1,0,0,response7disk_5,0,1.1998,-11,-1,1,0,0,rectangle_8,-11,-1,1,0,0,-11,-1,1,0,0,0,2,2,5,1,5ff3e48f937861584630e5a2,610369d986f319e6b28f8ee2,2021-07-29_21h54.54.136,Simcolourproject_2stim_asymm_v5,2020.2.10,Win32,60,61025ae37ef11b136ea224fe,,,,,,,,,,,,,,,,,,,,,,,,,,,,,,,,,,,,,,,,,,,,,,
,,,,,,,,,,,,75,PF,-84,143,1,0,0,response7disk_5,0,1.0502,5,-5,1,0,0,rectangle_8,5,-5,1,0,0,5,-5,1,0,0,0,3,3,1,1,5ff3e48f937861584630e5a2,610369d986f319e6b28f8ee2,2021-07-29_21h54.54.136,Simcolourproject_2stim_asymm_v5,2020.2.10,Win32,60,61025ae37ef11b136ea224fe,,,,,,,,,,,,,,,,,,,,,,,,,,,,,,,,,,,,,,,,,,,,,,
,,,,,,,,,,,,45,FF,-47,114,1,0,0,response7disk_5,0,0.5834,-4,-3,1,0,0,rectangle_8,-27,94,1,0,0,1,-9,1,0,0,0,4,4,3,1,5ff3e48f937861584630e5a2,610369d986f319e6b28f8ee2,2021-07-29_21h54.54.136,Simcolourproject_2stim_asymm_v5,2020.2.10,Win32,60,61025ae37ef11b136ea224fe,response7disk_7,0,1.6827,0,"[2,5]",rectangle_4,,,,,,,,,,,,,,,,,,,,,,,,,,,,,,,,,,,,,,,,
,,,,,,,,,,,,126,FF,-70,124,1,0,0,response7disk_5,0,0.5505,-8,-3,1,0,0,rectangle_8,-8,-3,1,0,0,-8,-3,1,0,0,0,5,5,0,1,5ff3e48f937861584630e5a2,610369d986f319e6b28f8ee2,2021-07-29_21h54.54.136,Simcolourproject_2stim_asymm_v5,2020.2.10,Win32,60,61025ae37ef11b136ea224fe,,,,,,,,,,,,,,,,,,,,,,,,,,,,,,,,,,,,,,,,,,,,,,
,,,,,,,,,,,,128,PF,-48,118,1,0,0,response7disk_5,0,0.6501,-8,5,1,0,0,rectangle_8,-8,5,1,0,0,-8,5,1,0,0,0,6,6,2,1,5ff3e48f937861584630e5a2,610369d986f319e6b28f8ee2,2021-07-29_21h54.54.136,Simcolourproject_2stim_asymm_v5,2020.2.10,Win32,60,61025ae37ef11b136ea224fe,,,,,,,,,,,,,,,,,,,,,,,,,,,,,,,,,,,,,,,,,,,,,,
,,,,,,,,,,,,,FF,,,,,,,,0.6006,,,,,,,,,,,,,,,,,,,,,,5ff3e48f937861584630e5a2,610369d986f319e6b28f8ee2,2021-07-29_21h54.54.136,Simcolourproject_2stim_asymm_v5,2020.2.10,Win32,60,61025ae37ef11b136ea224fe,,,,,,,space,3.5164,2850,-44,96,1,0,0,response7disk,,0,3,-3,1,0,0,rectangle,3,-3,1,0,0,3,-3,1,0,0,0,0,0,67,1,,,,,,,,
,,,,,,,,,,,,,FF,,,,,,,,0.7161,,,,,,,,,,,,,,,,,,,,,,5ff3e48f937861584630e5a2,610369d986f319e6b28f8ee2,2021-07-29_21h54.54.136,Simcolourproject_2stim_asymm_v5,2020.2.10,Win32,60,61025ae37ef11b136ea224fe,,,,,,,,,3762,-42,95,1,0,0,response7disk,,0,-5,4,1,0,0,rectangle,-5,4,1,0,0,-5,4,1,0,0,0,1,1,1,1,,,,,,,,
,,,,,,,,,,,,,FF,,,,,,,,0.5848,,,,,,,,,,,,,,,,,,,,,,5ff3e48f937861584630e5a2,610369d986f319e6b28f8ee2,2021-07-29_21h54.54.136,Simcolourproject_2stim_asymm_v5,2020.2.10,Win32,60,61025ae37ef11b136ea224fe,,,,,,,,,1788,-47,118,1,0,0,response7disk,,0,4,5,1,0,0,rectangle,4,5,1,0,0,4,5,1,0,0,0,2,2,130,1,,,,,,,,
,,,,,,,,,,,,,FF,,,,,,,,0.4847,,,,,,,,,,,,,,,,,,,,,,5ff3e48f937861584630e5a2,610369d986f319e6b28f8ee2,2021-07-29_21h54.54.136,Simcolourproject_2stim_asymm_v5,2020.2.10,Win32,60,61025ae37ef11b136ea224fe,,,,,,,,,3212,-33,72,1,0,0,response7disk,,0,-8,-12,1,0,0,rectangle,-8,-12,1,0,0,-8,-12,1,0,0,0,3,3,113,1,,,,,,,,
,,,,,,,,,,,,,FF,,,,,,,,0.4174,,,,,,,,,,,,,,,,,,,,,,5ff3e48f937861584630e5a2,610369d986f319e6b28f8ee2,2021-07-29_21h54.54.136,Simcolourproject_2stim_asymm_v5,2020.2.10,Win32,60,61025ae37ef11b136ea224fe,,,,,,,,,1102,-37,99,1,0,0,response7disk,,0,-9,2,1,0,0,rectangle,-9,2,1,0,0,-9,2,1,0,0,0,4,4,28,1,,,,,,,,
,,,,,,,,,,,,,FF,,,,,,,,0.3995,,,,,,,,,,,,,,,,,,,,,,5ff3e48f937861584630e5a2,610369d986f319e6b28f8ee2,2021-07-29_21h54.54.136,Simcolourproject_2stim_asymm_v5,2020.2.10,Win32,60,61025ae37ef11b136ea224fe,,,,,,,,,2430,-39,107,1,0,0,response7disk,,0,4,11,1,0,0,rectangle,4,11,1,0,0,4,11,1,0,0,0,5,5,39,1,,,,,,,,
,,,,,,,,,,,,,FF,,,,,,,,0.3302,,,,,,,,,,,,,,,,,,,,,,5ff3e48f937861584630e5a2,610369d986f319e6b28f8ee2,2021-07-29_21h54.54.136,Simcolourproject_2stim_asymm_v5,2020.2.10,Win32,60,61025ae37ef11b136ea224fe,,,,,,,,,2817,-35,93,1,0,0,response7disk,,0,10,15,1,0,0,rectangle,10,15,1,0,0,10,15,1,0,0,0,6,6,62,1,,,,,,,,
,,,,,,,,,,,,,FF,,,,,,,,0.3303,,,,,,,,,,,,,,,,,,,,,,5ff3e48f937861584630e5a2,610369d986f319e6b28f8ee2,2021-07-29_21h54.54.136,Simcolourproject_2stim_asymm_v5,2020.2.10,Win32,60,61025ae37ef11b136ea224fe,,,,,,,,,204,-27,75,1,0,0,response7disk,,0,-10,6,1,0,0,rectangle,-10,6,1,0,0,-10,6,1,0,0,0,7,7,21,1,,,,,,,,
,,,,,,,,,,,,,FF,,,,,,,,0.3659,,,,,,,,,,,,,,,,,,,,,,5ff3e48f937861584630e5a2,610369d986f319e6b28f8ee2,2021-07-29_21h54.54.136,Simcolourproject_2stim_asymm_v5,2020.2.10,Win32,60,61025ae37ef11b136ea224fe,,,,,,,,,4054,-58,126,1,0,0,response7disk,,0,-11,-2,1,0,0,rectangle,-11,-2,1,0,0,-11,-2,1,0,0,0,8,8,84,1,,,,,,,,
,,,,,,,,,,,,,FF,,,,,,,,2.2649,,,,,,,,,,,,,,,,,,,,,,5ff3e48f937861584630e5a2,610369d986f319e6b28f8ee2,2021-07-29_21h54.54.136,Simcolourproject_2stim_asymm_v5,2020.2.10,Win32,60,61025ae37ef11b136ea224fe,,,,,,,,,3148,78,-35,1,0,0,response3disk,,5,-3,4,1,0,0,rectangle,-3,4,1,0,0,-3,4,1,0,0,0,9,9,152,1,,,,,,,,
,,,,,,,,,,,,,FF,,,,,,,,0.5329,,,,,,,,,,,,,,,,,,,,,,5ff3e48f937861584630e5a2,610369d986f319e6b28f8ee2,2021-07-29_21h54.54.136,Simcolourproject_2stim_asymm_v5,2020.2.10,Win32,60,61025ae37ef11b136ea224fe,,,,,,,,,1012,-27,99,1,0,0,response7disk,,0,-9,21,1,0,0,rectangle,-9,21,1,0,0,-9,21,1,0,0,0,10,10,56,1,,,,,,,,
,,,,,,,,,,,,,FF,,,,,,,,1.832,,,,,,,,,,,,,,,,,,,,,,5ff3e48f937861584630e5a2,610369d986f319e6b28f8ee2,2021-07-29_21h54.54.136,Simcolourproject_2stim_asymm_v5,2020.2.10,Win32,60,61025ae37ef11b136ea224fe,,,,,,,,,394,-49,-77,1,0,0,response5disk,,3,4,18,1,0,0,rectangle,4,18,1,0,0,4,18,1,0,0,0,11,11,93,1,,,,,,,,
,,,,,,,,,,,,,FF,,,,,,,,0.8992,,,,,,,,,,,,,,,,,,,,,,5ff3e48f937861584630e5a2,610369d986f319e6b28f8ee2,2021-07-29_21h54.54.136,Simcolourproject_2stim_asymm_v5,2020.2.10,Win32,60,61025ae37ef11b136ea224fe,,,,,,,,,1892,72,46,1,0,0,response1disk,,6,-7,2,1,0,0,rectangle,-7,2,1,0,0,-7,2,1,0,0,0,12,12,52,1,,,,,,,,
,,,,,,,,,,,,,FF,,,,,,,,0.7002,,,,,,,,,,,,,,,,,,,,,,5ff3e48f937861584630e5a2,610369d986f319e6b28f8ee2,2021-07-29_21h54.54.136,Simcolourproject_2stim_asymm_v5,2020.2.10,Win32,60,61025ae37ef11b136ea224fe,,,,,,,,,314,-37,101,1,0,0,response7disk,,0,-11,0,1,0,0,rectangle,-92,38,1,0,0,0,2,1,0,0,0,13,13,107,1,,response7disk_3,TRUE,1,1,"[71,315,14,257,290,170,293,82,269,199,115,290,315,169,55,249,121,320,123,225]",1.4501,rectangle
,,,,,,,,,,,,,FF,,,,,,,,0.8167,,,,,,,,,,,,,,,,,,,,,,5ff3e48f937861584630e5a2,610369d986f319e6b28f8ee2,2021-07-29_21h54.54.136,Simcolourproject_2stim_asymm_v5,2020.2.10,Win32,60,61025ae37ef11b136ea224fe,,,,,,,,,640,-41,112,1,0,0,response7disk,,0,1,4,1,0,0,rectangle,1,4,1,0,0,1,4,1,0,0,0,14,14,156,1,,,,,,,,
,,,,,,,,,,,,,FF,,,,,,,,1.1487,,,,,,,,,,,,,,,,,,,,,,5ff3e48f937861584630e5a2,610369d986f319e6b28f8ee2,2021-07-29_21h54.54.136,Simcolourproject_2stim_asymm_v5,2020.2.10,Win32,60,61025ae37ef11b136ea224fe,,,,,,,,,3477,78,-23,1,0,0,response3disk,,5,7,-11,1,0,0,rectangle,7,-11,1,0,0,7,-11,1,0,0,0,15,15,122,1,,,,,,,,
,,,,,,,,,,,,,FF,,,,,,,,1.2163,,,,,,,,,,,,,,,,,,,,,,5ff3e48f937861584630e5a2,610369d986f319e6b28f8ee2,2021-07-29_21h54.54.136,Simcolourproject_2stim_asymm_v5,2020.2.10,Win32,60,61025ae37ef11b136ea224fe,,,,,,,,,3057,31,-64,1,0,0,response3disk,,4,2,-20,1,0,0,rectangle,2,-20,1,0,0,2,-20,1,0,0,0,16,16,134,1,,,,,,,,
,,,,,,,,,,,,,FF,,,,,,,,1.0164,,,,,,,,,,,,,,,,,,,,,,5ff3e48f937861584630e5a2,610369d986f319e6b28f8ee2,2021-07-29_21h54.54.136,Simcolourproject_2stim_asymm_v5,2020.2.10,Win32,60,61025ae37ef11b136ea224fe,,,,,,,,,1810,-37,115,1,0,0,response7disk,,0,11,9,1,0,0,rectangle,11,9,1,0,0,11,9,1,0,0,0,17,17,131,1,,,,,,,,
,,,,,,,,,,,,,FF,,,,,,,,0.8455,,,,,,,,,,,,,,,,,,,,,,5ff3e48f937861584630e5a2,610369d986f319e6b28f8ee2,2021-07-29_21h54.54.136,Simcolourproject_2stim_asymm_v5,2020.2.10,Win32,60,61025ae37ef11b136ea224fe,,,,,,,,,2542,59,80,1,0,0,response1disk,,7,-16,0,1,0,0,rectangle,-16,0,1,0,0,-16,0,1,0,0,0,18,18,0,1,,,,,,,,
,,,,,,,,,,,,,FF,,,,,,,,0.5826,,,,,,,,,,,,,,,,,,,,,,5ff3e48f937861584630e5a2,610369d986f319e6b28f8ee2,2021-07-29_21h54.54.136,Simcolourproject_2stim_asymm_v5,2020.2.10,Win32,60,61025ae37ef11b136ea224fe,,,,,,,,,2185,-57,106,1,0,0,response7disk,,0,-11,-1,1,0,0,rectangle,-11,-1,1,0,0,-11,-1,1,0,0,0,19,19,138,1,,,,,,,,
,,,,,,,,,,,,,FF,,,,,,,,0.4668,,,,,,,,,,,,,,,,,,,,,,5ff3e48f937861584630e5a2,610369d986f319e6b28f8ee2,2021-07-29_21h54.54.136,Simcolourproject_2stim_asymm_v5,2020.2.10,Win32,60,61025ae37ef11b136ea224fe,,,,,,,,,2842,-44,91,1,0,0,response7disk,,0,3,-2,1,0,0,rectangle,3,-2,1,0,0,3,-2,1,0,0,0,20,20,96,1,,,,,,,,
,,,,,,,,,,,,,FF,,,,,,,,0.3995,,,,,,,,,,,,,,,,,,,,,,5ff3e48f937861584630e5a2,610369d986f319e6b28f8ee2,2021-07-29_21h54.54.136,Simcolourproject_2stim_asymm_v5,2020.2.10,Win32,60,61025ae37ef11b136ea224fe,,,,,,,,,2441,-41,96,1,0,0,response7disk,,0,2,-1,1,0,0,rectangle,2,-1,1,0,0,2,-1,1,0,0,0,21,21,10,1,,,,,,,,
,,,,,,,,,,,,,FF,,,,,,,,2.3324,,,,,,,,,,,,,,,,,,,,,,5ff3e48f937861584630e5a2,610369d986f319e6b28f8ee2,2021-07-29_21h54.54.136,Simcolourproject_2stim_asymm_v5,2020.2.10,Win32,60,61025ae37ef11b136ea224fe,,,,,,,,,3472,-119,-38,1,0,0,response5disk,,2,-36,-6,1,0,0,rectangle,-36,-6,1,0,0,-36,-6,1,0,0,0,22,22,43,1,,,,,,,,
,,,,,,,,,,,,,FF,,,,,,,,1.2999,,,,,,,,,,,,,,,,,,,,,,5ff3e48f937861584630e5a2,610369d986f319e6b28f8ee2,2021-07-29_21h54.54.136,Simcolourproject_2stim_asymm_v5,2020.2.10,Win32,60,61025ae37ef11b136ea224fe,,,,,,,,,1454,-100,-24,1,0,0,response5disk,,2,-18,-12,1,0,0,rectangle,-18,-12,1,0,0,-18,-12,1,0,0,0,23,23,24,1,,,,,,,,
,,,,,,,,,,,,,FF,,,,,,,,1.0336,,,,,,,,,,,,,,,,,,,,,,5ff3e48f937861584630e5a2,610369d986f319e6b28f8ee2,2021-07-29_21h54.54.136,Simcolourproject_2stim_asymm_v5,2020.2.10,Win32,60,61025ae37ef11b136ea224fe,,,,,,,,,1832,-99,-24,1,0,0,response5disk,,2,-1,-11,1,0,0,rectangle,-1,-11,1,0,0,-1,-11,1,0,0,0,24,24,9,1,,,,,,,,
,,,,,,,,,,,,,FF,,,,,,,,0.9991,,,,,,,,,,,,,,,,,,,,,,5ff3e48f937861584630e5a2,610369d986f319e6b28f8ee2,2021-07-29_21h54.54.136,Simcolourproject_2stim_asymm_v5,2020.2.10,Win32,60,61025ae37ef11b136ea224fe,,,,,,,,,1150,55,127,1,0,0,response1disk,,7,12,3,1,0,0,rectangle,12,3,1,0,0,12,3,1,0,0,0,25,25,26,1,,,,,,,,
,,,,,,,,,,,,,FF,,,,,,,,0.6826,,,,,,,,,,,,,,,,,,,,,,5ff3e48f937861584630e5a2,610369d986f319e6b28f8ee2,2021-07-29_21h54.54.136,Simcolourproject_2stim_asymm_v5,2020.2.10,Win32,60,61025ae37ef11b136ea224fe,,,,,,,,,3306,-46,114,1,0,0,response7disk,,0,-3,6,1,0,0,rectangle,-3,6,1,0,0,-3,6,1,0,0,0,26,26,76,1,,,,,,,,
,,,,,,,,,,,,,FF,,,,,,,,0.6998,,,,,,,,,,,,,,,,,,,,,,5ff3e48f937861584630e5a2,610369d986f319e6b28f8ee2,2021-07-29_21h54.54.136,Simcolourproject_2stim_asymm_v5,2020.2.10,Win32,60,61025ae37ef11b136ea224fe,,,,,,,,,4338,-53,108,1,0,0,response7disk,,0,-1,4,1,0,0,rectangle,-1,4,1,0,0,-1,4,1,0,0,0,27,27,106,1,,,,,,,,
,,,,,,,,,,,,,FF,,,,,,,,0.366,,,,,,,,,,,,,,,,,,,,,,5ff3e48f937861584630e5a2,610369d986f319e6b28f8ee2,2021-07-29_21h54.54.136,Simcolourproject_2stim_asymm_v5,2020.2.10,Win32,60,61025ae37ef11b136ea224fe,,,,,,,,,846,-37,93,1,0,0,response7disk,,0,-4,3,1,0,0,rectangle,-4,3,1,0,0,-4,3,1,0,0,0,28,28,145,1,,,,,,,,
,,,,,,,,,,,,,FF,,,,,,,,0.316,,,,,,,,,,,,,,,,,,,,,,5ff3e48f937861584630e5a2,610369d986f319e6b28f8ee2,2021-07-29_21h54.54.136,Simcolourproject_2stim_asymm_v5,2020.2.10,Win32,60,61025ae37ef11b136ea224fe,,,,,,,,,3211,-36,75,1,0,0,response7disk,,0,-3,-3,1,0,0,rectangle,-3,-3,1,0,0,-3,-3,1,0,0,0,29,29,25,1,,,,,,,,
,,,,,,,,,,,,,FF,,,,,,,,0.5156,,,,,,,,,,,,,,,,,,,,,,5ff3e48f937861584630e5a2,610369d986f319e6b28f8ee2,2021-07-29_21h54.54.136,Simcolourproject_2stim_asymm_v5,2020.2.10,Win32,60,61025ae37ef11b136ea224fe,,,,,,,,,4343,43,109,1,0,0,response1disk,,7,-3,5,1,0,0,rectangle,-3,5,1,0,0,-3,5,1,0,0,0,30,30,29,1,,,,,,,,
,,,,,,,,,,,,,FF,,,,,,,,0.3998,,,,,,,,,,,,,,,,,,,,,,5ff3e48f937861584630e5a2,610369d986f319e6b28f8ee2,2021-07-29_21h54.54.136,Simcolourproject_2stim_asymm_v5,2020.2.10,Win32,60,61025ae37ef11b136ea224fe,,,,,,,,,2214,-31,86,1,0,0,response7disk,,0,11,-19,1,0,0,rectangle,11,-19,1,0,0,11,-19,1,0,0,0,31,31,23,1,,,,,,,,
,,,,,,,,,,,,,FF,,,,,,,,0.3492,,,,,,,,,,,,,,,,,,,,,,5ff3e48f937861584630e5a2,610369d986f319e6b28f8ee2,2021-07-29_21h54.54.136,Simcolourproject_2stim_asymm_v5,2020.2.10,Win32,60,61025ae37ef11b136ea224fe,,,,,,,,,1488,-43,124,1,0,0,response7disk,,0,-3,16,1,0,0,rectangle,-3,16,1,0,0,-3,16,1,0,0,0,32,32,100,1,,,,,,,,
,,,,,,,,,,,,,FF,,,,,,,,0.4495,,,,,,,,,,,,,,,,,,,,,,5ff3e48f937861584630e5a2,610369d986f319e6b28f8ee2,2021-07-29_21h54.54.136,Simcolourproject_2stim_asymm_v5,2020.2.10,Win32,60,61025ae37ef11b136ea224fe,,,,,,,,,2140,-38,83,1,0,0,response7disk,,0,-4,-4,1,0,0,rectangle,-4,-4,1,0,0,-4,-4,1,0,0,0,33,33,83,1,,,,,,,,
,,,,,,,,,,,,,FF,,,,,,,,0.316,,,,,,,,,,,,,,,,,,,,,,5ff3e48f937861584630e5a2,610369d986f319e6b28f8ee2,2021-07-29_21h54.54.136,Simcolourproject_2stim_asymm_v5,2020.2.10,Win32,60,61025ae37ef11b136ea224fe,,,,,,,,,298,-44,79,1,0,0,response7disk,,0,-10,9,1,0,0,rectangle,-10,9,1,0,0,-10,9,1,0,0,0,34,34,77,1,,,,,,,,
,,,,,,,,,,,,,FF,,,,,,,,0.2826,,,,,,,,,,,,,,,,,,,,,,5ff3e48f937861584630e5a2,610369d986f319e6b28f8ee2,2021-07-29_21h54.54.136,Simcolourproject_2stim_asymm_v5,2020.2.10,Win32,60,61025ae37ef11b136ea224fe,,,,,,,,,236,-39,83,1,0,0,response7disk,,0,-5,13,1,0,0,rectangle,-5,13,1,0,0,-5,13,1,0,0,0,35,35,92,1,,,,,,,,
,,,,,,,,,,,,,FF,,,,,,,,0.3493,,,,,,,,,,,,,,,,,,,,,,5ff3e48f937861584630e5a2,610369d986f319e6b28f8ee2,2021-07-29_21h54.54.136,Simcolourproject_2stim_asymm_v5,2020.2.10,Win32,60,61025ae37ef11b136ea224fe,,,,,,,,,1046,-32,66,1,0,0,response7disk,,0,-7,1,1,0,0,rectangle,-7,1,1,0,0,-7,1,1,0,0,0,36,36,66,1,,,,,,,,
,,,,,,,,,,,,,FF,,,,,,,,0.3003,,,,,,,,,,,,,,,,,,,,,,5ff3e48f937861584630e5a2,610369d986f319e6b28f8ee2,2021-07-29_21h54.54.136,Simcolourproject_2stim_asymm_v5,2020.2.10,Win32,60,61025ae37ef11b136ea224fe,,,,,,,,,24,-42,103,1,0,0,response7disk,,0,1,0,1,0,0,rectangle,1,0,1,0,0,1,0,1,0,0,0,37,37,85,1,,,,,,,,
,,,,,,,,,,,,,FF,,,,,,,,0.5822,,,,,,,,,,,,,,,,,,,,,,5ff3e48f937861584630e5a2,610369d986f319e6b28f8ee2,2021-07-29_21h54.54.136,Simcolourproject_2stim_asymm_v5,2020.2.10,Win32,60,61025ae37ef11b136ea224fe,,,,,,,,,4201,43,93,1,0,0,response1disk,,7,-1,4,1,0,0,rectangle,-1,4,1,0,0,-1,4,1,0,0,0,38,38,146,1,,,,,,,,
,,,,,,,,,,,,,FF,,,,,,,,0.4157,,,,,,,,,,,,,,,,,,,,,,5ff3e48f937861584630e5a2,610369d986f319e6b28f8ee2,2021-07-29_21h54.54.136,Simcolourproject_2stim_asymm_v5,2020.2.10,Win32,60,61025ae37ef11b136ea224fe,,,,,,,,,1622,-37,73,1,0,0,response7disk,,0,-16,20,1,0,0,rectangle,-16,20,1,0,0,-16,20,1,0,0,0,39,39,34,1,,,,,,,,
,,,,,,,,,,,,,FF,,,,,,,,0.2502,,,,,,,,,,,,,,,,,,,,,,5ff3e48f937861584630e5a2,610369d986f319e6b28f8ee2,2021-07-29_21h54.54.136,Simcolourproject_2stim_asymm_v5,2020.2.10,Win32,60,61025ae37ef11b136ea224fe,,,,,,,,,661,-56,116,1,0,0,response7disk,,0,-4,19,1,0,0,rectangle,-4,19,1,0,0,-4,19,1,0,0,0,40,40,55,1,,,,,,,,
,,,,,,,,,,,,,FF,,,,,,,,0.299,,,,,,,,,,,,,,,,,,,,,,5ff3e48f937861584630e5a2,610369d986f319e6b28f8ee2,2021-07-29_21h54.54.136,Simcolourproject_2stim_asymm_v5,2020.2.10,Win32,60,61025ae37ef11b136ea224fe,,,,,,,,,763,-61,89,1,0,0,response7disk,,0,-21,-1,1,0,0,rectangle,-21,-1,1,0,0,-21,-1,1,0,0,0,41,41,3,1,,,,,,,,
,,,,,,,,,,,,,FF,,,,,,,,0.3326,,,,,,,,,,,,,,,,,,,,,,5ff3e48f937861584630e5a2,610369d986f319e6b28f8ee2,2021-07-29_21h54.54.136,Simcolourproject_2stim_asymm_v5,2020.2.10,Win32,60,61025ae37ef11b136ea224fe,,,,,,,,,2035,-35,69,1,0,0,response7disk,,0,0,3,1,0,0,rectangle,0,3,1,0,0,0,3,1,0,0,0,42,42,2,1,,,,,,,,
,,,,,,,,,,,,,FF,,,,,,,,0.3991,,,,,,,,,,,,,,,,,,,,,,5ff3e48f937861584630e5a2,610369d986f319e6b28f8ee2,2021-07-29_21h54.54.136,Simcolourproject_2stim_asymm_v5,2020.2.10,Win32,60,61025ae37ef11b136ea224fe,,,,,,,,,676,-29,66,1,0,0,response7disk,,0,2,-5,1,0,0,rectangle,2,-5,1,0,0,2,-5,1,0,0,0,43,43,124,1,,,,,,,,
,,,,,,,,,,,,,FF,,,,,,,,0.4996,,,,,,,,,,,,,,,,,,,,,,5ff3e48f937861584630e5a2,610369d986f319e6b28f8ee2,2021-07-29_21h54.54.136,Simcolourproject_2stim_asymm_v5,2020.2.10,Win32,60,61025ae37ef11b136ea224fe,,,,,,,,,3076,-34,109,1,0,0,response7disk,,0,-4,9,1,0,0,rectangle,-4,9,1,0,0,-4,9,1,0,0,0,44,44,99,1,,,,,,,,
,,,,,,,,,,,,,FF,,,,,,,,0.4999,,,,,,,,,,,,,,,,,,,,,,5ff3e48f937861584630e5a2,610369d986f319e6b28f8ee2,2021-07-29_21h54.54.136,Simcolourproject_2stim_asymm_v5,2020.2.10,Win32,60,61025ae37ef11b136ea224fe,,,,,,,,,1335,-37,99,1,0,0,response7disk,,0,6,-12,1,0,0,rectangle,6,-12,1,0,0,6,-12,1,0,0,0,45,45,27,1,,,,,,,,
,,,,,,,,,,,,,FF,,,,,,,,0.9494,,,,,,,,,,,,,,,,,,,,,,5ff3e48f937861584630e5a2,610369d986f319e6b28f8ee2,2021-07-29_21h54.54.136,Simcolourproject_2stim_asymm_v5,2020.2.10,Win32,60,61025ae37ef11b136ea224fe,,,,,,,,,2151,53,93,1,0,0,response1disk,,7,27,11,1,0,0,rectangle,27,11,1,0,0,27,11,1,0,0,0,46,46,108,1,,,,,,,,
,,,,,,,,,,,,,FF,,,,,,,,0.4832,,,,,,,,,,,,,,,,,,,,,,5ff3e48f937861584630e5a2,610369d986f319e6b28f8ee2,2021-07-29_21h54.54.136,Simcolourproject_2stim_asymm_v5,2020.2.10,Win32,60,61025ae37ef11b136ea224fe,,,,,,,,,3231,-64,107,1,0,0,response7disk,,0,-35,-12,1,0,0,rectangle,-35,-12,1,0,0,-35,-12,1,0,0,0,47,47,11,1,,,,,,,,
,,,,,,,,,,,,,FF,,,,,,,,0.5669,,,,,,,,,,,,,,,,,,,,,,5ff3e48f937861584630e5a2,610369d986f319e6b28f8ee2,2021-07-29_21h54.54.136,Simcolourproject_2stim_asymm_v5,2020.2.10,Win32,60,61025ae37ef11b136ea224fe,,,,,,,,,876,-41,138,1,0,0,response7disk,,0,-3,14,1,0,0,rectangle,-3,14,1,0,0,-3,14,1,0,0,0,48,48,6,1,,,,,,,,
,,,,,,,,,,,,,FF,,,,,,,,0.3664,,,,,,,,,,,,,,,,,,,,,,5ff3e48f937861584630e5a2,610369d986f319e6b28f8ee2,2021-07-29_21h54.54.136,Simcolourproject_2stim_asymm_v5,2020.2.10,Win32,60,61025ae37ef11b136ea224fe,,,,,,,,,3902,-47,99,1,0,0,response7disk,,0,-9,4,1,0,0,rectangle,-9,4,1,0,0,-9,4,1,0,0,0,49,49,74,1,,,,,,,,
,,,,,,,,,,,,,FF,,,,,,,,0.4343,,,,,,,,,,,,,,,,,,,,,,5ff3e48f937861584630e5a2,610369d986f319e6b28f8ee2,2021-07-29_21h54.54.136,Simcolourproject_2stim_asymm_v5,2020.2.10,Win32,60,61025ae37ef11b136ea224fe,,,,,,,,,1700,-33,84,1,0,0,response7disk,,0,10,-17,1,0,0,rectangle,10,-17,1,0,0,10,-17,1,0,0,0,50,50,32,1,,,,,,,,
,,,,,,,,,,,,,FF,,,,,,,,0.3825,,,,,,,,,,,,,,,,,,,,,,5ff3e48f937861584630e5a2,610369d986f319e6b28f8ee2,2021-07-29_21h54.54.136,Simcolourproject_2stim_asymm_v5,2020.2.10,Win32,60,61025ae37ef11b136ea224fe,,,,,,,,,1081,-46,95,1,0,0,response7disk,,0,0,5,1,0,0,rectangle,0,5,1,0,0,0,5,1,0,0,0,51,51,144,1,,,,,,,,
,,,,,,,,,,,,,FF,,,,,,,,1.316,,,,,,,,,,,,,,,,,,,,,,5ff3e48f937861584630e5a2,610369d986f319e6b28f8ee2,2021-07-29_21h54.54.136,Simcolourproject_2stim_asymm_v5,2020.2.10,Win32,60,61025ae37ef11b136ea224fe,,,,,,,,,1740,-49,101,1,0,0,response7disk,,0,-9,4,1,0,0,rectangle,-9,4,1,0,0,-9,4,1,0,0,0,52,52,133,1,,,,,,,,
,,,,,,,,,,,,,FF,,,,,,,,0.3833,,,,,,,,,,,,,,,,,,,,,,5ff3e48f937861584630e5a2,610369d986f319e6b28f8ee2,2021-07-29_21h54.54.136,Simcolourproject_2stim_asymm_v5,2020.2.10,Win32,60,61025ae37ef11b136ea224fe,,,,,,,,,323,-50,75,1,0,0,response7disk,,0,-7,14,1,0,0,rectangle,-7,14,1,0,0,-7,14,1,0,0,0,53,53,111,1,,,,,,,,
,,,,,,,,,,,,,FF,,,,,,,,0.4495,,,,,,,,,,,,,,,,,,,,,,5ff3e48f937861584630e5a2,610369d986f319e6b28f8ee2,2021-07-29_21h54.54.136,Simcolourproject_2stim_asymm_v5,2020.2.10,Win32,60,61025ae37ef11b136ea224fe,,,,,,,,,469,-47,89,1,0,0,response7disk,,0,4,1,1,0,0,rectangle,43,-116,1,0,0,0,15,1,0,0,0,54,54,22,1,,response3disk_3,TRUE,4,4,"[71,315,14,257,290,170,293,82,269,199,115,290,315,169,55,249,121,320,123,225]",2.0481,rectangle
,,,,,,,,,,,,,FF,,,,,,,,0.4997,,,,,,,,,,,,,,,,,,,,,,5ff3e48f937861584630e5a2,610369d986f319e6b28f8ee2,2021-07-29_21h54.54.136,Simcolourproject_2stim_asymm_v5,2020.2.10,Win32,60,61025ae37ef11b136ea224fe,,,,,,,,,2618,-26,83,1,0,0,response7disk,,0,-4,-7,1,0,0,rectangle,-4,-7,1,0,0,-4,-7,1,0,0,0,55,55,86,1,,,,,,,,
,,,,,,,,,,,,,FF,,,,,,,,0.8458,,,,,,,,,,,,,,,,,,,,,,5ff3e48f937861584630e5a2,610369d986f319e6b28f8ee2,2021-07-29_21h54.54.136,Simcolourproject_2stim_asymm_v5,2020.2.10,Win32,60,61025ae37ef11b136ea224fe,,,,,,,,,3701,-39,72,1,0,0,response7disk,,0,-16,-11,1,0,0,rectangle,-16,-11,1,0,0,-16,-11,1,0,0,0,56,56,57,1,,,,,,,,
,,,,,,,,,,,,,FF,,,,,,,,0.3161,,,,,,,,,,,,,,,,,,,,,,5ff3e48f937861584630e5a2,610369d986f319e6b28f8ee2,2021-07-29_21h54.54.136,Simcolourproject_2stim_asymm_v5,2020.2.10,Win32,60,61025ae37ef11b136ea224fe,,,,,,,,,3861,-48,118,1,0,0,response7disk,,0,-6,21,1,0,0,rectangle,-6,21,1,0,0,-6,21,1,0,0,0,57,57,149,1,,,,,,,,
,,,,,,,,,,,,,FF,,,,,,,,0.5784,,,,,,,,,,,,,,,,,,,,,,5ff3e48f937861584630e5a2,610369d986f319e6b28f8ee2,2021-07-29_21h54.54.136,Simcolourproject_2stim_asymm_v5,2020.2.10,Win32,60,61025ae37ef11b136ea224fe,,,,,,,,,1138,40,96,1,0,0,response1disk,,7,4,-15,1,0,0,rectangle,4,-15,1,0,0,4,-15,1,0,0,0,58,58,120,1,,,,,,,,
,,,,,,,,,,,,,FF,,,,,,,,0.3871,,,,,,,,,,,,,,,,,,,,,,5ff3e48f937861584630e5a2,610369d986f319e6b28f8ee2,2021-07-29_21h54.54.136,Simcolourproject_2stim_asymm_v5,2020.2.10,Win32,60,61025ae37ef11b136ea224fe,,,,,,,,,1693,-25,89,1,0,0,response7disk,,0,-5,14,1,0,0,rectangle,-5,14,1,0,0,-5,14,1,0,0,0,59,59,94,1,,,,,,,,
,,,,,,,,,,,,,FF,,,,,,,,0.3653,,,,,,,,,,,,,,,,,,,,,,5ff3e48f937861584630e5a2,610369d986f319e6b28f8ee2,2021-07-29_21h54.54.136,Simcolourproject_2stim_asymm_v5,2020.2.10,Win32,60,61025ae37ef11b136ea224fe,,,,,,,,,3394,-39,87,1,0,0,response7disk,,0,-1,7,1,0,0,rectangle,-1,7,1,0,0,-1,7,1,0,0,0,60,60,114,1,,,,,,,,
,,,,,,,,,,,,,FF,,,,,,,,0.2834,,,,,,,,,,,,,,,,,,,,,,5ff3e48f937861584630e5a2,610369d986f319e6b28f8ee2,2021-07-29_21h54.54.136,Simcolourproject_2stim_asymm_v5,2020.2.10,Win32,60,61025ae37ef11b136ea224fe,,,,,,,,,151,-47,94,1,0,0,response7disk,,0,-7,12,1,0,0,rectangle,-7,12,1,0,0,-7,12,1,0,0,0,61,61,71,1,,,,,,,,
,,,,,,,,,,,,,FF,,,,,,,,0.5157,,,,,,,,,,,,,,,,,,,,,,5ff3e48f937861584630e5a2,610369d986f319e6b28f8ee2,2021-07-29_21h54.54.136,Simcolourproject_2stim_asymm_v5,2020.2.10,Win32,60,61025ae37ef11b136ea224fe,,,,,,,,,4329,-41,88,1,0,0,response7disk,,0,2,-19,1,0,0,rectangle,2,-19,1,0,0,2,-19,1,0,0,0,62,62,139,1,,,,,,,,
,,,,,,,,,,,,,FF,,,,,,,,0.393,,,,,,,,,,,,,,,,,,,,,,5ff3e48f937861584630e5a2,610369d986f319e6b28f8ee2,2021-07-29_21h54.54.136,Simcolourproject_2stim_asymm_v5,2020.2.10,Win32,60,61025ae37ef11b136ea224fe,,,,,,,,,3897,-43,97,1,0,0,response7disk,,0,-7,18,1,0,0,rectangle,-7,18,1,0,0,-7,18,1,0,0,0,63,63,123,1,,,,,,,,
,,,,,,,,,,,,,FF,,,,,,,,0.3834,,,,,,,,,,,,,,,,,,,,,,5ff3e48f937861584630e5a2,610369d986f319e6b28f8ee2,2021-07-29_21h54.54.136,Simcolourproject_2stim_asymm_v5,2020.2.10,Win32,60,61025ae37ef11b136ea224fe,,,,,,,,,3733,-47,91,1,0,0,response7disk,,0,-14,4,1,0,0,rectangle,-14,4,1,0,0,-14,4,1,0,0,0,64,64,80,1,,,,,,,,
,,,,,,,,,,,,,FF,,,,,,,,0.3162,,,,,,,,,,,,,,,,,,,,,,5ff3e48f937861584630e5a2,610369d986f319e6b28f8ee2,2021-07-29_21h54.54.136,Simcolourproject_2stim_asymm_v5,2020.2.10,Win32,60,61025ae37ef11b136ea224fe,,,,,,,,,880,-50,91,1,0,0,response7disk,,0,-8,0,1,0,0,rectangle,-8,0,1,0,0,-8,0,1,0,0,0,65,65,48,1,,,,,,,,
,,,,,,,,,,,,,FF,,,,,,,,0.3298,,,,,,,,,,,,,,,,,,,,,,5ff3e48f937861584630e5a2,610369d986f319e6b28f8ee2,2021-07-29_21h54.54.136,Simcolourproject_2stim_asymm_v5,2020.2.10,Win32,60,61025ae37ef11b136ea224fe,,,,,,,,,777,-45,79,1,0,0,response7disk,,0,-5,17,1,0,0,rectangle,-5,17,1,0,0,-5,17,1,0,0,0,66,66,153,1,,,,,,,,
,,,,,,,,,,,,,FF,,,,,,,,0.3796,,,,,,,,,,,,,,,,,,,,,,5ff3e48f937861584630e5a2,610369d986f319e6b28f8ee2,2021-07-29_21h54.54.136,Simcolourproject_2stim_asymm_v5,2020.2.10,Win32,60,61025ae37ef11b136ea224fe,,,,,,,,,1599,-29,78,1,0,0,response7disk,,0,-6,15,1,0,0,rectangle,-6,15,1,0,0,-6,15,1,0,0,0,67,67,14,1,,,,,,,,
,,,,,,,,,,,,,FF,,,,,,,,0.4802,,,,,,,,,,,,,,,,,,,,,,5ff3e48f937861584630e5a2,610369d986f319e6b28f8ee2,2021-07-29_21h54.54.136,Simcolourproject_2stim_asymm_v5,2020.2.10,Win32,60,61025ae37ef11b136ea224fe,,,,,,,,,2659,-43,80,1,0,0,response7disk,,0,6,4,1,0,0,rectangle,6,4,1,0,0,6,4,1,0,0,0,68,68,35,1,,,,,,,,
,,,,,,,,,,,,,FF,,,,,,,,1.0137,,,,,,,,,,,,,,,,,,,,,,5ff3e48f937861584630e5a2,610369d986f319e6b28f8ee2,2021-07-29_21h54.54.136,Simcolourproject_2stim_asymm_v5,2020.2.10,Win32,60,61025ae37ef11b136ea224fe,,,,,,,,,174,-92,49,1,0,0,response7disk,,1,-15,16,1,0,0,rectangle,-15,16,1,0,0,-15,16,1,0,0,0,69,69,158,1,,,,,,,,
,,,,,,,,,,,,,FF,,,,,,,,0.3791,,,,,,,,,,,,,,,,,,,,,,5ff3e48f937861584630e5a2,610369d986f319e6b28f8ee2,2021-07-29_21h54.54.136,Simcolourproject_2stim_asymm_v5,2020.2.10,Win32,60,61025ae37ef11b136ea224fe,,,,,,,,,1124,-54,97,1,0,0,response7disk,,0,-14,16,1,0,0,rectangle,90,-40,1,0,0,-20,8,1,0,0,0,70,70,125,1,,response3disk_3,TRUE,5,5,"[71,315,14,257,290,170,293,82,269,199,115,290,315,169,55,249,121,320,123,225]",1.3484,rectangle
,,,,,,,,,,,,,FF,,,,,,,,1.4496,,,,,,,,,,,,,,,,,,,,,,5ff3e48f937861584630e5a2,610369d986f319e6b28f8ee2,2021-07-29_21h54.54.136,Simcolourproject_2stim_asymm_v5,2020.2.10,Win32,60,61025ae37ef11b136ea224fe,,,,,,,,,1748,-119,41,1,0,0,response7disk,,1,7,-9,1,0,0,rectangle,7,-9,1,0,0,7,-9,1,0,0,0,71,71,150,1,,,,,,,,
,,,,,,,,,,,,,FF,,,,,,,,0.2985,,,,,,,,,,,,,,,,,,,,,,5ff3e48f937861584630e5a2,610369d986f319e6b28f8ee2,2021-07-29_21h54.54.136,Simcolourproject_2stim_asymm_v5,2020.2.10,Win32,60,61025ae37ef11b136ea224fe,,,,,,,,,1015,-35,96,1,0,0,response7disk,,0,-6,14,1,0,0,rectangle,-6,14,1,0,0,-6,14,1,0,0,0,72,72,38,1,,,,,,,,
,,,,,,,,,,,,,FF,,,,,,,,0.3123,,,,,,,,,,,,,,,,,,,,,,5ff3e48f937861584630e5a2,610369d986f319e6b28f8ee2,2021-07-29_21h54.54.136,Simcolourproject_2stim_asymm_v5,2020.2.10,Win32,60,61025ae37ef11b136ea224fe,,,,,,,,,2700,-29,83,1,0,0,response7disk,,0,-14,17,1,0,0,rectangle,-14,17,1,0,0,-14,17,1,0,0,0,73,73,137,1,,,,,,,,
,,,,,,,,,,,,,FF,,,,,,,,0.3321,,,,,,,,,,,,,,,,,,,,,,5ff3e48f937861584630e5a2,610369d986f319e6b28f8ee2,2021-07-29_21h54.54.136,Simcolourproject_2stim_asymm_v5,2020.2.10,Win32,60,61025ae37ef11b136ea224fe,,,,,,,,,1585,-37,80,1,0,0,response7disk,,0,-12,7,1,0,0,rectangle,-12,7,1,0,0,-12,7,1,0,0,0,74,74,102,1,,,,,,,,
,,,,,,,,,,,,,FF,,,,,,,,0.3,,,,,,,,,,,,,,,,,,,,,,5ff3e48f937861584630e5a2,610369d986f319e6b28f8ee2,2021-07-29_21h54.54.136,Simcolourproject_2stim_asymm_v5,2020.2.10,Win32,60,61025ae37ef11b136ea224fe,,,,,,,,,3310,-37,70,1,0,0,response7disk,,0,-1,-20,1,0,0,rectangle,-1,-20,1,0,0,-1,-20,1,0,0,0,75,75,141,1,,,,,,,,
,,,,,,,,,,,,,FF,,,,,,,,0.3131,,,,,,,,,,,,,,,,,,,,,,5ff3e48f937861584630e5a2,610369d986f319e6b28f8ee2,2021-07-29_21h54.54.136,Simcolourproject_2stim_asymm_v5,2020.2.10,Win32,60,61025ae37ef11b136ea224fe,,,,,,,,,2123,-44,89,1,0,0,response7disk,,0,-9,4,1,0,0,rectangle,-9,4,1,0,0,-9,4,1,0,0,0,76,76,142,1,,,,,,,,
,,,,,,,,,,,,,FF,,,,,,,,0.3794,,,,,,,,,,,,,,,,,,,,,,5ff3e48f937861584630e5a2,610369d986f319e6b28f8ee2,2021-07-29_21h54.54.136,Simcolourproject_2stim_asymm_v5,2020.2.10,Win32,60,61025ae37ef11b136ea224fe,,,,,,,,,3739,-51,93,1,0,0,response7disk,,0,-12,14,1,0,0,rectangle,-12,14,1,0,0,-12,14,1,0,0,0,77,77,61,1,,,,,,,,
,,,,,,,,,,,,,FF,,,,,,,,0.2996,,,,,,,,,,,,,,,,,,,,,,5ff3e48f937861584630e5a2,610369d986f319e6b28f8ee2,2021-07-29_21h54.54.136,Simcolourproject_2stim_asymm_v5,2020.2.10,Win32,60,61025ae37ef11b136ea224fe,,,,,,,,,1302,-45,82,1,0,0,response7disk,,0,-12,12,1,0,0,rectangle,-12,12,1,0,0,-12,12,1,0,0,0,78,78,82,1,,,,,,,,
,,,,,,,,,,,,,FF,,,,,,,,1.5151,,,,,,,,,,,,,,,,,,,,,,5ff3e48f937861584630e5a2,610369d986f319e6b28f8ee2,2021-07-29_21h54.54.136,Simcolourproject_2stim_asymm_v5,2020.2.10,Win32,60,61025ae37ef11b136ea224fe,,,,,,,,,1194,-54,-88,1,0,0,response5disk,,3,-3,3,1,0,0,rectangle,-3,3,1,0,0,-3,3,1,0,0,0,79,79,91,1,,,,,,,,
,,,,,,,,,,,,,FF,,,,,,,,0.3323,,,,,,,,,,,,,,,,,,,,,,5ff3e48f937861584630e5a2,610369d986f319e6b28f8ee2,2021-07-29_21h54.54.136,Simcolourproject_2stim_asymm_v5,2020.2.10,Win32,60,61025ae37ef11b136ea224fe,,,,,,,,,111,-29,78,1,0,0,response7disk,,0,-17,2,1,0,0,rectangle,-17,2,1,0,0,-17,2,1,0,0,0,80,80,37,1,,,,,,,,
,,,,,,,,,,,,,FF,,,,,,,,0.3498,,,,,,,,,,,,,,,,,,,,,,5ff3e48f937861584630e5a2,610369d986f319e6b28f8ee2,2021-07-29_21h54.54.136,Simcolourproject_2stim_asymm_v5,2020.2.10,Win32,60,61025ae37ef11b136ea224fe,,,,,,,,,3578,-40,83,1,0,0,response7disk,,0,-13,16,1,0,0,rectangle,128,61,1,0,0,15,3,1,0,0,0,81,81,33,1,,response1disk_3,TRUE,6,6,"[71,315,14,257,290,170,293,82,269,199,115,290,315,169,55,249,121,320,123,225]",1.4653,rectangle
,,,,,,,,,,,,,FF,,,,,,,,0.3158,,,,,,,,,,,,,,,,,,,,,,5ff3e48f937861584630e5a2,610369d986f319e6b28f8ee2,2021-07-29_21h54.54.136,Simcolourproject_2stim_asymm_v5,2020.2.10,Win32,60,61025ae37ef11b136ea224fe,,,,,,,,,997,-49,81,1,0,0,response7disk,,0,-5,10,1,0,0,rectangle,-5,10,1,0,0,-5,10,1,0,0,0,82,82,51,1,,,,,,,,
,,,,,,,,,,,,,FF,,,,,,,,0.3161,,,,,,,,,,,,,,,,,,,,,,5ff3e48f937861584630e5a2,610369d986f319e6b28f8ee2,2021-07-29_21h54.54.136,Simcolourproject_2stim_asymm_v5,2020.2.10,Win32,60,61025ae37ef11b136ea224fe,,,,,,,,,2767,-24,76,1,0,0,response7disk,,0,-9,-10,1,0,0,rectangle,-9,-10,1,0,0,-9,-10,1,0,0,0,83,83,65,1,,,,,,,,
,,,,,,,,,,,,,FF,,,,,,,,0.3001,,,,,,,,,,,,,,,,,,,,,,5ff3e48f937861584630e5a2,610369d986f319e6b28f8ee2,2021-07-29_21h54.54.136,Simcolourproject_2stim_asymm_v5,2020.2.10,Win32,60,61025ae37ef11b136ea224fe,,,,,,,,,3442,-29,70,1,0,0,response7disk,,0,-4,10,1,0,0,rectangle,-4,10,1,0,0,-4,10,1,0,0,0,84,84,136,1,,,,,,,,
,,,,,,,,,,,,,FF,,,,,,,,0.65,,,,,,,,,,,,,,,,,,,,,,5ff3e48f937861584630e5a2,610369d986f319e6b28f8ee2,2021-07-29_21h54.54.136,Simcolourproject_2stim_asymm_v5,2020.2.10,Win32,60,61025ae37ef11b136ea224fe,,,,,,,,,2940,41,96,1,0,0,response1disk,,7,-7,0,1,0,0,rectangle,-7,0,1,0,0,-7,0,1,0,0,0,85,85,126,1,,,,,,,,
,,,,,,,,,,,,,FF,,,,,,,,1.1166,,,,,,,,,,,,,,,,,,,,,,5ff3e48f937861584630e5a2,610369d986f319e6b28f8ee2,2021-07-29_21h54.54.136,Simcolourproject_2stim_asymm_v5,2020.2.10,Win32,60,61025ae37ef11b136ea224fe,,,,,,,,,3050,-54,-40,1,0,0,response5disk,,2,14,7,1,0,0,rectangle,14,7,1,0,0,14,7,1,0,0,0,86,86,7,1,,,,,,,,
,,,,,,,,,,,,,FF,,,,,,,,1.0499,,,,,,,,,,,,,,,,,,,,,,5ff3e48f937861584630e5a2,610369d986f319e6b28f8ee2,2021-07-29_21h54.54.136,Simcolourproject_2stim_asymm_v5,2020.2.10,Win32,60,61025ae37ef11b136ea224fe,,,,,,,,,3817,-37,69,1,0,0,response7disk,,0,-18,18,1,0,0,rectangle,-18,18,1,0,0,-18,18,1,0,0,0,87,87,72,1,,,,,,,,
,,,,,,,,,,,,,FF,,,,,,,,0.3166,,,,,,,,,,,,,,,,,,,,,,5ff3e48f937861584630e5a2,610369d986f319e6b28f8ee2,2021-07-29_21h54.54.136,Simcolourproject_2stim_asymm_v5,2020.2.10,Win32,60,61025ae37ef11b136ea224fe,,,,,,,,,270,-50,84,1,0,0,response7disk,,0,-16,1,1,0,0,rectangle,-16,1,1,0,0,-16,1,1,0,0,0,88,88,12,1,,,,,,,,
,,,,,,,,,,,,,FF,,,,,,,,0.6653,,,,,,,,,,,,,,,,,,,,,,5ff3e48f937861584630e5a2,610369d986f319e6b28f8ee2,2021-07-29_21h54.54.136,Simcolourproject_2stim_asymm_v5,2020.2.10,Win32,60,61025ae37ef11b136ea224fe,,,,,,,,,1547,-45,73,1,0,0,response7disk,,0,-8,17,1,0,0,rectangle,-8,17,1,0,0,-8,17,1,0,0,0,89,89,104,1,,,,,,,,
,,,,,,,,,,,,,FF,,,,,,,,0.2662,,,,,,,,,,,,,,,,,,,,,,5ff3e48f937861584630e5a2,610369d986f319e6b28f8ee2,2021-07-29_21h54.54.136,Simcolourproject_2stim_asymm_v5,2020.2.10,Win32,60,61025ae37ef11b136ea224fe,,,,,,,,,363,-53,102,1,0,0,response7disk,,0,-7,19,1,0,0,rectangle,-7,19,1,0,0,-7,19,1,0,0,0,90,90,17,1,,,,,,,,
,,,,,,,,,,,,,FF,,,,,,,,0.216,,,,,,,,,,,,,,,,,,,,,,5ff3e48f937861584630e5a2,610369d986f319e6b28f8ee2,2021-07-29_21h54.54.136,Simcolourproject_2stim_asymm_v5,2020.2.10,Win32,60,61025ae37ef11b136ea224fe,,,,,,,,,3654,-45,96,1,0,0,response7disk,,0,-8,-17,1,0,0,rectangle,-8,-17,1,0,0,-8,-17,1,0,0,0,91,91,15,1,,,,,,,,
,,,,,,,,,,,,,FF,,,,,,,,0.2836,,,,,,,,,,,,,,,,,,,,,,5ff3e48f937861584630e5a2,610369d986f319e6b28f8ee2,2021-07-29_21h54.54.136,Simcolourproject_2stim_asymm_v5,2020.2.10,Win32,60,61025ae37ef11b136ea224fe,,,,,,,,,2373,-61,107,1,0,0,response7disk,,0,17,1,1,0,0,rectangle,17,1,1,0,0,17,1,1,0,0,0,92,92,64,1,,,,,,,,
,,,,,,,,,,,,,FF,,,,,,,,0.8825,,,,,,,,,,,,,,,,,,,,,,5ff3e48f937861584630e5a2,610369d986f319e6b28f8ee2,2021-07-29_21h54.54.136,Simcolourproject_2stim_asymm_v5,2020.2.10,Win32,60,61025ae37ef11b136ea224fe,,,,,,,,,134,-27,73,1,0,0,response7disk,,0,4,-13,1,0,0,rectangle,4,-13,1,0,0,4,-13,1,0,0,0,93,93,49,1,,,,,,,,
,,,,,,,,,,,,,FF,,,,,,,,0.5002,,,,,,,,,,,,,,,,,,,,,,5ff3e48f937861584630e5a2,610369d986f319e6b28f8ee2,2021-07-29_21h54.54.136,Simcolourproject_2stim_asymm_v5,2020.2.10,Win32,60,61025ae37ef11b136ea224fe,,,,,,,,,1923,-28,81,1,0,0,response7disk,,0,7,-5,1,0,0,rectangle,7,-5,1,0,0,7,-5,1,0,0,0,94,94,16,1,,,,,,,,
,,,,,,,,,,,,,FF,,,,,,,,0.4496,,,,,,,,,,,,,,,,,,,,,,5ff3e48f937861584630e5a2,610369d986f319e6b28f8ee2,2021-07-29_21h54.54.136,Simcolourproject_2stim_asymm_v5,2020.2.10,Win32,60,61025ae37ef11b136ea224fe,,,,,,,,,45,-54,82,1,0,0,response7disk,,0,-22,17,1,0,0,rectangle,-22,17,1,0,0,-22,17,1,0,0,0,95,95,13,1,,,,,,,,
,,,,,,,,,,,,,FF,,,,,,,,0.9657,,,,,,,,,,,,,,,,,,,,,,5ff3e48f937861584630e5a2,610369d986f319e6b28f8ee2,2021-07-29_21h54.54.136,Simcolourproject_2stim_asymm_v5,2020.2.10,Win32,60,61025ae37ef11b136ea224fe,,,,,,,,,2047,-86,45,1,0,0,response7disk,,1,-5,8,1,0,0,rectangle,-5,8,1,0,0,-5,8,1,0,0,0,96,96,81,1,,,,,,,,
,,,,,,,,,,,,,FF,,,,,,,,0.3996,,,,,,,,,,,,,,,,,,,,,,5ff3e48f937861584630e5a2,610369d986f319e6b28f8ee2,2021-07-29_21h54.54.136,Simcolourproject_2stim_asymm_v5,2020.2.10,Win32,60,61025ae37ef11b136ea224fe,,,,,,,,,818,-39,75,1,0,0,response7disk,,0,-12,17,1,0,0,rectangle,-12,17,1,0,0,-12,17,1,0,0,0,97,97,155,1,,,,,,,,
,,,,,,,,,,,,,FF,,,,,,,,0.5832,,,,,,,,,,,,,,,,,,,,,,5ff3e48f937861584630e5a2,610369d986f319e6b28f8ee2,2021-07-29_21h54.54.136,Simcolourproject_2stim_asymm_v5,2020.2.10,Win32,60,61025ae37ef11b136ea224fe,,,,,,,,,4075,-61,81,1,0,0,response7disk,,0,-22,8,1,0,0,rectangle,-22,8,1,0,0,-22,8,1,0,0,0,98,98,157,1,,,,,,,,
,,,,,,,,,,,,,FF,,,,,,,,0.2826,,,,,,,,,,,,,,,,,,,,,,5ff3e48f937861584630e5a2,610369d986f319e6b28f8ee2,2021-07-29_21h54.54.136,Simcolourproject_2stim_asymm_v5,2020.2.10,Win32,60,61025ae37ef11b136ea224fe,,,,,,,,,2177,-48,78,1,0,0,response7disk,,0,-8,5,1,0,0,rectangle,-8,5,1,0,0,-8,5,1,0,0,0,99,99,109,1,,,,,,,,
,,,,,,,,,,,,,FF,,,,,,,,0.4002,,,,,,,,,,,,,,,,,,,,,,5ff3e48f937861584630e5a2,610369d986f319e6b28f8ee2,2021-07-29_21h54.54.136,Simcolourproject_2stim_asymm_v5,2020.2.10,Win32,60,61025ae37ef11b136ea224fe,,,,,,,,,914,-38,75,1,0,0,response7disk,,0,-4,4,1,0,0,rectangle,-4,4,1,0,0,-4,4,1,0,0,0,100,100,148,1,,,,,,,,
,,,,,,,,,,,,,FF,,,,,,,,0.3331,,,,,,,,,,,,,,,,,,,,,,5ff3e48f937861584630e5a2,610369d986f319e6b28f8ee2,2021-07-29_21h54.54.136,Simcolourproject_2stim_asymm_v5,2020.2.10,Win32,60,61025ae37ef11b136ea224fe,,,,,,,,,746,-26,73,1,0,0,response7disk,,0,-5,11,1,0,0,rectangle,-5,11,1,0,0,-5,11,1,0,0,0,101,101,8,1,,,,,,,,
,,,,,,,,,,,,,FF,,,,,,,,0.2838,,,,,,,,,,,,,,,,,,,,,,5ff3e48f937861584630e5a2,610369d986f319e6b28f8ee2,2021-07-29_21h54.54.136,Simcolourproject_2stim_asymm_v5,2020.2.10,Win32,60,61025ae37ef11b136ea224fe,,,,,,,,,590,-28,59,1,0,0,response7disk,,0,-8,7,1,0,0,rectangle,-8,7,1,0,0,-8,7,1,0,0,0,102,102,45,1,,,,,,,,
,,,,,,,,,,,,,FF,,,,,,,,0.3327,,,,,,,,,,,,,,,,,,,,,,5ff3e48f937861584630e5a2,610369d986f319e6b28f8ee2,2021-07-29_21h54.54.136,Simcolourproject_2stim_asymm_v5,2020.2.10,Win32,60,61025ae37ef11b136ea224fe,,,,,,,,,3641,-31,81,1,0,0,response7disk,,0,-11,-1,1,0,0,rectangle,-11,-1,1,0,0,-11,-1,1,0,0,0,103,103,151,1,,,,,,,,
,,,,,,,,,,,,,FF,,,,,,,,0.7497,,,,,,,,,,,,,,,,,,,,,,5ff3e48f937861584630e5a2,610369d986f319e6b28f8ee2,2021-07-29_21h54.54.136,Simcolourproject_2stim_asymm_v5,2020.2.10,Win32,60,61025ae37ef11b136ea224fe,,,,,,,,,1816,41,97,1,0,0,response1disk,,7,-12,-6,1,0,0,rectangle,-12,-6,1,0,0,-12,-6,1,0,0,0,104,104,105,1,,,,,,,,
,,,,,,,,,,,,,FF,,,,,,,,0.3663,,,,,,,,,,,,,,,,,,,,,,5ff3e48f937861584630e5a2,610369d986f319e6b28f8ee2,2021-07-29_21h54.54.136,Simcolourproject_2stim_asymm_v5,2020.2.10,Win32,60,61025ae37ef11b136ea224fe,,,,,,,,,2199,-29,73,1,0,0,response7disk,,0,1,2,1,0,0,rectangle,1,2,1,0,0,1,2,1,0,0,0,105,105,89,1,,,,,,,,
,,,,,,,,,,,,,FF,,,,,,,,0.3664,,,,,,,,,,,,,,,,,,,,,,5ff3e48f937861584630e5a2,610369d986f319e6b28f8ee2,2021-07-29_21h54.54.136,Simcolourproject_2stim_asymm_v5,2020.2.10,Win32,60,61025ae37ef11b136ea224fe,,,,,,,,,3931,-31,64,1,0,0,response7disk,,0,0,-4,1,0,0,rectangle,0,-4,1,0,0,0,-4,1,0,0,0,106,106,46,1,,,,,,,,
,,,,,,,,,,,,,FF,,,,,,,,0.333,,,,,,,,,,,,,,,,,,,,,,5ff3e48f937861584630e5a2,610369d986f319e6b28f8ee2,2021-07-29_21h54.54.136,Simcolourproject_2stim_asymm_v5,2020.2.10,Win32,60,61025ae37ef11b136ea224fe,,,,,,,,,857,-28,99,1,0,0,response7disk,,0,-5,16,1,0,0,rectangle,-5,16,1,0,0,-5,16,1,0,0,0,107,107,41,1,,,,,,,,
,,,,,,,,,,,,,FF,,,,,,,,0.3,,,,,,,,,,,,,,,,,,,,,,5ff3e48f937861584630e5a2,610369d986f319e6b28f8ee2,2021-07-29_21h54.54.136,Simcolourproject_2stim_asymm_v5,2020.2.10,Win32,60,61025ae37ef11b136ea224fe,,,,,,,,,583,-34,87,1,0,0,response7disk,,0,-2,2,1,0,0,rectangle,-2,2,1,0,0,-2,2,1,0,0,0,108,108,78,1,,,,,,,,
,,,,,,,,,,,,,FF,,,,,,,,0.316,,,,,,,,,,,,,,,,,,,,,,5ff3e48f937861584630e5a2,610369d986f319e6b28f8ee2,2021-07-29_21h54.54.136,Simcolourproject_2stim_asymm_v5,2020.2.10,Win32,60,61025ae37ef11b136ea224fe,,,,,,,,,1030,-38,100,1,0,0,response7disk,,0,-5,15,1,0,0,rectangle,-5,15,1,0,0,-5,15,1,0,0,0,109,109,18,1,,,,,,,,
,,,,,,,,,,,,,FF,,,,,,,,0.816,,,,,,,,,,,,,,,,,,,,,,5ff3e48f937861584630e5a2,610369d986f319e6b28f8ee2,2021-07-29_21h54.54.136,Simcolourproject_2stim_asymm_v5,2020.2.10,Win32,60,61025ae37ef11b136ea224fe,,,,,,,,,73,-68,48,1,0,0,response7disk,,1,-2,2,1,0,0,rectangle,-2,2,1,0,0,-2,2,1,0,0,0,110,110,30,1,,,,,,,,
,,,,,,,,,,,,,FF,,,,,,,,0.5998,,,,,,,,,,,,,,,,,,,,,,5ff3e48f937861584630e5a2,610369d986f319e6b28f8ee2,2021-07-29_21h54.54.136,Simcolourproject_2stim_asymm_v5,2020.2.10,Win32,60,61025ae37ef11b136ea224fe,,,,,,,,,79,34,108,1,0,0,response1disk,,7,8,1,1,0,0,rectangle,8,1,1,0,0,8,1,1,0,0,0,111,111,87,1,,,,,,,,
,,,,,,,,,,,,,FF,,,,,,,,0.3501,,,,,,,,,,,,,,,,,,,,,,5ff3e48f937861584630e5a2,610369d986f319e6b28f8ee2,2021-07-29_21h54.54.136,Simcolourproject_2stim_asymm_v5,2020.2.10,Win32,60,61025ae37ef11b136ea224fe,,,,,,,,,600,-54,86,1,0,0,response7disk,,0,-3,-8,1,0,0,rectangle,-3,-8,1,0,0,-3,-8,1,0,0,0,112,112,115,1,,,,,,,,
,,,,,,,,,,,,,FF,,,,,,,,1.133,,,,,,,,,,,,,,,,,,,,,,5ff3e48f937861584630e5a2,610369d986f319e6b28f8ee2,2021-07-29_21h54.54.136,Simcolourproject_2stim_asymm_v5,2020.2.10,Win32,60,61025ae37ef11b136ea224fe,,,,,,,,,2366,-94,-43,1,0,0,response5disk,,2,8,9,1,0,0,rectangle,8,9,1,0,0,8,9,1,0,0,0,113,113,54,1,,,,,,,,
,,,,,,,,,,,,,FF,,,,,,,,0.3004,,,,,,,,,,,,,,,,,,,,,,5ff3e48f937861584630e5a2,610369d986f319e6b28f8ee2,2021-07-29_21h54.54.136,Simcolourproject_2stim_asymm_v5,2020.2.10,Win32,60,61025ae37ef11b136ea224fe,,,,,,,,,2321,-43,90,1,0,0,response7disk,,0,13,6,1,0,0,rectangle,-49,-106,1,0,0,6,-13,1,0,0,0,114,114,117,1,,response5disk_3,TRUE,3,3,"[71,315,14,257,290,170,293,82,269,199,115,290,315,169,55,249,121,320,123,225]",1.2485,rectangle
,,,,,,,,,,,,,FF,,,,,,,,0.3996,,,,,,,,,,,,,,,,,,,,,,5ff3e48f937861584630e5a2,610369d986f319e6b28f8ee2,2021-07-29_21h54.54.136,Simcolourproject_2stim_asymm_v5,2020.2.10,Win32,60,61025ae37ef11b136ea224fe,,,,,,,,,641,-56,80,1,0,0,response7disk,,0,-25,-9,1,0,0,rectangle,-25,-9,1,0,0,-25,-9,1,0,0,0,115,115,154,1,,,,,,,,
,,,,,,,,,,,,,FF,,,,,,,,0.2996,,,,,,,,,,,,,,,,,,,,,,5ff3e48f937861584630e5a2,610369d986f319e6b28f8ee2,2021-07-29_21h54.54.136,Simcolourproject_2stim_asymm_v5,2020.2.10,Win32,60,61025ae37ef11b136ea224fe,,,,,,,,,2388,-41,75,1,0,0,response7disk,,0,6,-5,1,0,0,rectangle,6,-5,1,0,0,6,-5,1,0,0,0,116,116,42,1,,,,,,,,
,,,,,,,,,,,,,FF,,,,,,,,0.3497,,,,,,,,,,,,,,,,,,,,,,5ff3e48f937861584630e5a2,610369d986f319e6b28f8ee2,2021-07-29_21h54.54.136,Simcolourproject_2stim_asymm_v5,2020.2.10,Win32,60,61025ae37ef11b136ea224fe,,,,,,,,,74,-24,108,1,0,0,response7disk,,0,-6,18,1,0,0,rectangle,-6,18,1,0,0,-6,18,1,0,0,0,117,117,44,1,,,,,,,,
,,,,,,,,,,,,,FF,,,,,,,,0.9666,,,,,,,,,,,,,,,,,,,,,,5ff3e48f937861584630e5a2,610369d986f319e6b28f8ee2,2021-07-29_21h54.54.136,Simcolourproject_2stim_asymm_v5,2020.2.10,Win32,60,61025ae37ef11b136ea224fe,,,,,,,,,3200,-68,-42,1,0,0,response5disk,,2,18,-11,1,0,0,rectangle,18,-11,1,0,0,18,-11,1,0,0,0,118,118,121,1,,,,,,,,
,,,,,,,,,,,,,FF,,,,,,,,0.3497,,,,,,,,,,,,,,,,,,,,,,5ff3e48f937861584630e5a2,610369d986f319e6b28f8ee2,2021-07-29_21h54.54.136,Simcolourproject_2stim_asymm_v5,2020.2.10,Win32,60,61025ae37ef11b136ea224fe,,,,,,,,,3624,-39,98,1,0,0,response7disk,,0,-10,-19,1,0,0,rectangle,-10,-19,1,0,0,-10,-19,1,0,0,0,119,119,98,1,,,,,,,,
,,,,,,,,,,,,,FF,,,,,,,,0.3502,,,,,,,,,,,,,,,,,,,,,,5ff3e48f937861584630e5a2,610369d986f319e6b28f8ee2,2021-07-29_21h54.54.136,Simcolourproject_2stim_asymm_v5,2020.2.10,Win32,60,61025ae37ef11b136ea224fe,,,,,,,,,3283,-30,82,1,0,0,response7disk,,0,-9,6,1,0,0,rectangle,-64,-95,1,0,0,-4,4,1,0,0,0,120,120,79,1,,response5disk_3,TRUE,3,3,"[71,315,14,257,290,170,293,82,269,199,115,290,315,169,55,249,121,320,123,225]",1.1154,rectangle
,,,,,,,,,,,,,FF,,,,,,,,0.5333,,,,,,,,,,,,,,,,,,,,,,5ff3e48f937861584630e5a2,610369d986f319e6b28f8ee2,2021-07-29_21h54.54.136,Simcolourproject_2stim_asymm_v5,2020.2.10,Win32,60,61025ae37ef11b136ea224fe,,,,,,,,,1400,-29,80,1,0,0,response7disk,,0,2,-4,1,0,0,rectangle,2,-4,1,0,0,2,-4,1,0,0,0,121,121,90,1,,,,,,,,
,,,,,,,,,,,,,FF,,,,,,,,0.3999,,,,,,,,,,,,,,,,,,,,,,5ff3e48f937861584630e5a2,610369d986f319e6b28f8ee2,2021-07-29_21h54.54.136,Simcolourproject_2stim_asymm_v5,2020.2.10,Win32,60,61025ae37ef11b136ea224fe,,,,,,,,,1185,-38,83,1,0,0,response7disk,,0,-6,3,1,0,0,rectangle,-96,-52,1,0,0,8,6,1,0,0,0,122,122,140,1,,response5disk_3,TRUE,2,2,"[71,315,14,257,290,170,293,82,269,199,115,290,315,169,55,249,121,320,123,225]",1.0327,rectangle
,,,,,,,,,,,,,FF,,,,,,,,0.4331,,,,,,,,,,,,,,,,,,,,,,5ff3e48f937861584630e5a2,610369d986f319e6b28f8ee2,2021-07-29_21h54.54.136,Simcolourproject_2stim_asymm_v5,2020.2.10,Win32,60,61025ae37ef11b136ea224fe,,,,,,,,,2875,-35,82,1,0,0,response7disk,,0,14,-7,1,0,0,rectangle,14,-7,1,0,0,14,-7,1,0,0,0,123,123,159,1,,,,,,,,
,,,,,,,,,,,,,FF,,,,,,,,0.2999,,,,,,,,,,,,,,,,,,,,,,5ff3e48f937861584630e5a2,610369d986f319e6b28f8ee2,2021-07-29_21h54.54.136,Simcolourproject_2stim_asymm_v5,2020.2.10,Win32,60,61025ae37ef11b136ea224fe,,,,,,,,,1355,-36,80,1,0,0,response7disk,,0,-1,6,1,0,0,rectangle,-1,6,1,0,0,-1,6,1,0,0,0,124,124,47,1,,,,,,,,
,,,,,,,,,,,,,FF,,,,,,,,0.3994,,,,,,,,,,,,,,,,,,,,,,5ff3e48f937861584630e5a2,610369d986f319e6b28f8ee2,2021-07-29_21h54.54.136,Simcolourproject_2stim_asymm_v5,2020.2.10,Win32,60,61025ae37ef11b136ea224fe,,,,,,,,,1536,-37,84,1,0,0,response7disk,,0,6,-9,1,0,0,rectangle,6,-9,1,0,0,6,-9,1,0,0,0,125,125,69,1,,,,,,,,
,,,,,,,,,,,,,FF,,,,,,,,0.317,,,,,,,,,,,,,,,,,,,,,,5ff3e48f937861584630e5a2,610369d986f319e6b28f8ee2,2021-07-29_21h54.54.136,Simcolourproject_2stim_asymm_v5,2020.2.10,Win32,60,61025ae37ef11b136ea224fe,,,,,,,,,774,-51,93,1,0,0,response7disk,,0,-8,12,1,0,0,rectangle,-8,12,1,0,0,-8,12,1,0,0,0,126,126,143,1,,,,,,,,
,,,,,,,,,,,,,FF,,,,,,,,0.3669,,,,,,,,,,,,,,,,,,,,,,5ff3e48f937861584630e5a2,610369d986f319e6b28f8ee2,2021-07-29_21h54.54.136,Simcolourproject_2stim_asymm_v5,2020.2.10,Win32,60,61025ae37ef11b136ea224fe,,,,,,,,,3170,-36,82,1,0,0,response7disk,,0,-14,14,1,0,0,rectangle,-14,14,1,0,0,-14,14,1,0,0,0,127,127,50,1,,,,,,,,
,,,,,,,,,,,,,FF,,,,,,,,0.2668,,,,,,,,,,,,,,,,,,,,,,5ff3e48f937861584630e5a2,610369d986f319e6b28f8ee2,2021-07-29_21h54.54.136,Simcolourproject_2stim_asymm_v5,2020.2.10,Win32,60,61025ae37ef11b136ea224fe,,,,,,,,,682,-52,97,1,0,0,response7disk,,0,-23,18,1,0,0,rectangle,-23,18,1,0,0,-23,18,1,0,0,0,128,128,53,1,,,,,,,,
,,,,,,,,,,,,,FF,,,,,,,,0.2667,,,,,,,,,,,,,,,,,,,,,,5ff3e48f937861584630e5a2,610369d986f319e6b28f8ee2,2021-07-29_21h54.54.136,Simcolourproject_2stim_asymm_v5,2020.2.10,Win32,60,61025ae37ef11b136ea224fe,,,,,,,,,2269,-36,86,1,0,0,response7disk,,0,0,6,1,0,0,rectangle,0,6,1,0,0,0,6,1,0,0,0,129,129,31,1,,,,,,,,
,,,,,,,,,,,,,FF,,,,,,,,0.2487,,,,,,,,,,,,,,,,,,,,,,5ff3e48f937861584630e5a2,610369d986f319e6b28f8ee2,2021-07-29_21h54.54.136,Simcolourproject_2stim_asymm_v5,2020.2.10,Win32,60,61025ae37ef11b136ea224fe,,,,,,,,,4317,-37,97,1,0,0,response7disk,,0,7,8,1,0,0,rectangle,7,8,1,0,0,7,8,1,0,0,0,130,130,40,1,,,,,,,,
,,,,,,,,,,,,,FF,,,,,,,,0.7,,,,,,,,,,,,,,,,,,,,,,5ff3e48f937861584630e5a2,610369d986f319e6b28f8ee2,2021-07-29_21h54.54.136,Simcolourproject_2stim_asymm_v5,2020.2.10,Win32,60,61025ae37ef11b136ea224fe,,,,,,,,,367,52,84,1,0,0,response1disk,,7,2,-13,1,0,0,rectangle,2,-13,1,0,0,2,-13,1,0,0,0,131,131,147,1,,,,,,,,
,,,,,,,,,,,,,FF,,,,,,,,0.3664,,,,,,,,,,,,,,,,,,,,,,5ff3e48f937861584630e5a2,610369d986f319e6b28f8ee2,2021-07-29_21h54.54.136,Simcolourproject_2stim_asymm_v5,2020.2.10,Win32,60,61025ae37ef11b136ea224fe,,,,,,,,,1594,-29,80,1,0,0,response7disk,,0,0,12,1,0,0,rectangle,0,12,1,0,0,0,12,1,0,0,0,132,132,110,1,,,,,,,,
,,,,,,,,,,,,,FF,,,,,,,,0.8158,,,,,,,,,,,,,,,,,,,,,,5ff3e48f937861584630e5a2,610369d986f319e6b28f8ee2,2021-07-29_21h54.54.136,Simcolourproject_2stim_asymm_v5,2020.2.10,Win32,60,61025ae37ef11b136ea224fe,,,,,,,,,2456,-33,67,1,0,0,response7disk,,0,-3,4,1,0,0,rectangle,-3,4,1,0,0,-3,4,1,0,0,0,133,133,63,1,,,,,,,,
,,,,,,,,,,,,,FF,,,,,,,,0.2496,,,,,,,,,,,,,,,,,,,,,,5ff3e48f937861584630e5a2,610369d986f319e6b28f8ee2,2021-07-29_21h54.54.136,Simcolourproject_2stim_asymm_v5,2020.2.10,Win32,60,61025ae37ef11b136ea224fe,,,,,,,,,674,-48,97,1,0,0,response7disk,,0,5,0,1,0,0,rectangle,5,0,1,0,0,5,0,1,0,0,0,134,134,101,1,,,,,,,,
,,,,,,,,,,,,,FF,,,,,,,,0.267,,,,,,,,,,,,,,,,,,,,,,5ff3e48f937861584630e5a2,610369d986f319e6b28f8ee2,2021-07-29_21h54.54.136,Simcolourproject_2stim_asymm_v5,2020.2.10,Win32,60,61025ae37ef11b136ea224fe,,,,,,,,,3915,-50,91,1,0,0,response7disk,,0,1,5,1,0,0,rectangle,1,5,1,0,0,1,5,1,0,0,0,135,135,58,1,,,,,,,,
,,,,,,,,,,,,,FF,,,,,,,,0.2668,,,,,,,,,,,,,,,,,,,,,,5ff3e48f937861584630e5a2,610369d986f319e6b28f8ee2,2021-07-29_21h54.54.136,Simcolourproject_2stim_asymm_v5,2020.2.10,Win32,60,61025ae37ef11b136ea224fe,,,,,,,,,4238,-52,112,1,0,0,response7disk,,0,-10,2,1,0,0,rectangle,-10,2,1,0,0,-10,2,1,0,0,0,136,136,135,1,,,,,,,,
,,,,,,,,,,,,,FF,,,,,,,,0.6823,,,,,,,,,,,,,,,,,,,,,,5ff3e48f937861584630e5a2,610369d986f319e6b28f8ee2,2021-07-29_21h54.54.136,Simcolourproject_2stim_asymm_v5,2020.2.10,Win32,60,61025ae37ef11b136ea224fe,,,,,,,,,1893,58,100,1,0,0,response1disk,,7,10,-9,1,0,0,rectangle,10,-9,1,0,0,10,-9,1,0,0,0,137,137,132,1,,,,,,,,
,,,,,,,,,,,,,FF,,,,,,,,0.5002,,,,,,,,,,,,,,,,,,,,,,5ff3e48f937861584630e5a2,610369d986f319e6b28f8ee2,2021-07-29_21h54.54.136,Simcolourproject_2stim_asymm_v5,2020.2.10,Win32,60,61025ae37ef11b136ea224fe,,,,,,,,,1018,-43,76,1,0,0,response7disk,,0,-3,6,1,0,0,rectangle,-3,6,1,0,0,-3,6,1,0,0,0,138,138,36,1,,,,,,,,
,,,,,,,,,,,,,FF,,,,,,,,0.45,,,,,,,,,,,,,,,,,,,,,,5ff3e48f937861584630e5a2,610369d986f319e6b28f8ee2,2021-07-29_21h54.54.136,Simcolourproject_2stim_asymm_v5,2020.2.10,Win32,60,61025ae37ef11b136ea224fe,,,,,,,,,2981,-30,71,1,0,0,response7disk,,0,-2,2,1,0,0,rectangle,-2,2,1,0,0,-2,2,1,0,0,0,139,139,112,1,,,,,,,,
,,,,,,,,,,,,,FF,,,,,,,,0.4328,,,,,,,,,,,,,,,,,,,,,,5ff3e48f937861584630e5a2,610369d986f319e6b28f8ee2,2021-07-29_21h54.54.136,Simcolourproject_2stim_asymm_v5,2020.2.10,Win32,60,61025ae37ef11b136ea224fe,,,,,,,,,294,-28,78,1,0,0,response7disk,,0,0,20,1,0,0,rectangle,0,20,1,0,0,0,20,1,0,0,0,140,140,116,1,,,,,,,,
,,,,,,,,,,,,,FF,,,,,,,,0.3829,,,,,,,,,,,,,,,,,,,,,,5ff3e48f937861584630e5a2,610369d986f319e6b28f8ee2,2021-07-29_21h54.54.136,Simcolourproject_2stim_asymm_v5,2020.2.10,Win32,60,61025ae37ef11b136ea224fe,,,,,,,,,628,-65,88,1,0,0,response7disk,,0,-10,7,1,0,0,rectangle,-10,7,1,0,0,-10,7,1,0,0,0,141,141,88,1,,,,,,,,
,,,,,,,,,,,,,FF,,,,,,,,0.3985,,,,,,,,,,,,,,,,,,,,,,5ff3e48f937861584630e5a2,610369d986f319e6b28f8ee2,2021-07-29_21h54.54.136,Simcolourproject_2stim_asymm_v5,2020.2.10,Win32,60,61025ae37ef11b136ea224fe,,,,,,,,,2748,-39,68,1,0,0,response7disk,,0,5,1,1,0,0,rectangle,5,1,1,0,0,5,1,1,0,0,0,142,142,59,1,,,,,,,,
,,,,,,,,,,,,,FF,,,,,,,,0.3667,,,,,,,,,,,,,,,,,,,,,,5ff3e48f937861584630e5a2,610369d986f319e6b28f8ee2,2021-07-29_21h54.54.136,Simcolourproject_2stim_asymm_v5,2020.2.10,Win32,60,61025ae37ef11b136ea224fe,,,,,,,,,4264,-44,70,1,0,0,response7disk,,0,-4,10,1,0,0,rectangle,-4,10,1,0,0,-4,10,1,0,0,0,143,143,19,1,,,,,,,,
,,,,,,,,,,,,,FF,,,,,,,,1.3833,,,,,,,,,,,,,,,,,,,,,,5ff3e48f937861584630e5a2,610369d986f319e6b28f8ee2,2021-07-29_21h54.54.136,Simcolourproject_2stim_asymm_v5,2020.2.10,Win32,60,61025ae37ef11b136ea224fe,,,,,,,,,3594,-57,-51,1,0,0,response5disk,,2,-24,-5,1,0,0,rectangle,-24,-5,1,0,0,-24,-5,1,0,0,0,144,144,95,1,,,,,,,,
,,,,,,,,,,,,,FF,,,,,,,,1.0483,,,,,,,,,,,,,,,,,,,,,,5ff3e48f937861584630e5a2,610369d986f319e6b28f8ee2,2021-07-29_21h54.54.136,Simcolourproject_2stim_asymm_v5,2020.2.10,Win32,60,61025ae37ef11b136ea224fe,,,,,,,,,4125,94,35,1,0,0,response1disk,,6,6,0,1,0,0,rectangle,6,0,1,0,0,6,0,1,0,0,0,145,145,129,1,,,,,,,,
,,,,,,,,,,,,,FF,,,,,,,,0.4672,,,,,,,,,,,,,,,,,,,,,,5ff3e48f937861584630e5a2,610369d986f319e6b28f8ee2,2021-07-29_21h54.54.136,Simcolourproject_2stim_asymm_v5,2020.2.10,Win32,60,61025ae37ef11b136ea224fe,,,,,,,,,426,-45,85,1,0,0,response7disk,,0,-7,-14,1,0,0,rectangle,-7,-14,1,0,0,-7,-14,1,0,0,0,146,146,4,1,,,,,,,,
,,,,,,,,,,,,,FF,,,,,,,,0.4164,,,,,,,,,,,,,,,,,,,,,,5ff3e48f937861584630e5a2,610369d986f319e6b28f8ee2,2021-07-29_21h54.54.136,Simcolourproject_2stim_asymm_v5,2020.2.10,Win32,60,61025ae37ef11b136ea224fe,,,,,,,,,2799,-28,56,1,0,0,response7disk,,0,-2,7,1,0,0,rectangle,-2,7,1,0,0,-2,7,1,0,0,0,147,147,73,1,,,,,,,,
,,,,,,,,,,,,,FF,,,,,,,,0.3159,,,,,,,,,,,,,,,,,,,,,,5ff3e48f937861584630e5a2,610369d986f319e6b28f8ee2,2021-07-29_21h54.54.136,Simcolourproject_2stim_asymm_v5,2020.2.10,Win32,60,61025ae37ef11b136ea224fe,,,,,,,,,427,-38,69,1,0,0,response7disk,,0,-4,13,1,0,0,rectangle,-4,13,1,0,0,-4,13,1,0,0,0,148,148,119,1,,,,,,,,
,,,,,,,,,,,,,FF,,,,,,,,0.3333,,,,,,,,,,,,,,,,,,,,,,5ff3e48f937861584630e5a2,610369d986f319e6b28f8ee2,2021-07-29_21h54.54.136,Simcolourproject_2stim_asymm_v5,2020.2.10,Win32,60,61025ae37ef11b136ea224fe,,,,,,,,,3857,-39,88,1,0,0,response7disk,,0,-2,-6,1,0,0,rectangle,-2,-6,1,0,0,-2,-6,1,0,0,0,149,149,68,1,,,,,,,,
,,,,,,,,,,,,,FF,,,,,,,,0.2668,,,,,,,,,,,,,,,,,,,,,,5ff3e48f937861584630e5a2,610369d986f319e6b28f8ee2,2021-07-29_21h54.54.136,Simcolourproject_2stim_asymm_v5,2020.2.10,Win32,60,61025ae37ef11b136ea224fe,,,,,,,,,855,-49,79,1,0,0,response7disk,,0,-6,-5,1,0,0,rectangle,-6,-5,1,0,0,-6,-5,1,0,0,0,150,150,118,1,,,,,,,,
,,,,,,,,,,,,,FF,,,,,,,,0.3326,,,,,,,,,,,,,,,,,,,,,,5ff3e48f937861584630e5a2,610369d986f319e6b28f8ee2,2021-07-29_21h54.54.136,Simcolourproject_2stim_asymm_v5,2020.2.10,Win32,60,61025ae37ef11b136ea224fe,,,,,,,,,994,-46,86,1,0,0,response7disk,,0,-5,15,1,0,0,rectangle,-5,15,1,0,0,-5,15,1,0,0,0,151,151,70,1,,,,,,,,
,,,,,,,,,,,,,FF,,,,,,,,0.4659,,,,,,,,,,,,,,,,,,,,,,5ff3e48f937861584630e5a2,610369d986f319e6b28f8ee2,2021-07-29_21h54.54.136,Simcolourproject_2stim_asymm_v5,2020.2.10,Win32,60,61025ae37ef11b136ea224fe,,,,,,,,,562,-38,81,1,0,0,response7disk,,0,-17,-1,1,0,0,rectangle,-17,-1,1,0,0,-17,-1,1,0,0,0,152,152,20,1,,,,,,,,
,,,,,,,,,,,,,FF,,,,,,,,0.3665,,,,,,,,,,,,,,,,,,,,,,5ff3e48f937861584630e5a2,610369d986f319e6b28f8ee2,2021-07-29_21h54.54.136,Simcolourproject_2stim_asymm_v5,2020.2.10,Win32,60,61025ae37ef11b136ea224fe,,,,,,,,,4152,-36,62,1,0,0,response7disk,,0,-18,17,1,0,0,rectangle,-18,17,1,0,0,-18,17,1,0,0,0,153,153,128,1,,,,,,,,
,,,,,,,,,,,,,FF,,,,,,,,0.2836,,,,,,,,,,,,,,,,,,,,,,5ff3e48f937861584630e5a2,610369d986f319e6b28f8ee2,2021-07-29_21h54.54.136,Simcolourproject_2stim_asymm_v5,2020.2.10,Win32,60,61025ae37ef11b136ea224fe,,,,,,,,,1790,-36,76,1,0,0,response7disk,,0,-13,-1,1,0,0,rectangle,-13,-1,1,0,0,-13,-1,1,0,0,0,154,154,60,1,,,,,,,,
,,,,,,,,,,,,,FF,,,,,,,,0.3165,,,,,,,,,,,,,,,,,,,,,,5ff3e48f937861584630e5a2,610369d986f319e6b28f8ee2,2021-07-29_21h54.54.136,Simcolourproject_2stim_asymm_v5,2020.2.10,Win32,60,61025ae37ef11b136ea224fe,,,,,,,,,3566,-45,75,1,0,0,response7disk,,0,-18,15,1,0,0,rectangle,-18,15,1,0,0,-18,15,1,0,0,0,155,155,127,1,,,,,,,,
,,,,,,,,,,,,,FF,,,,,,,,0.3661,,,,,,,,,,,,,,,,,,,,,,5ff3e48f937861584630e5a2,610369d986f319e6b28f8ee2,2021-07-29_21h54.54.136,Simcolourproject_2stim_asymm_v5,2020.2.10,Win32,60,61025ae37ef11b136ea224fe,,,,,,,,,1317,-41,69,1,0,0,response7disk,,0,-10,7,1,0,0,rectangle,-10,7,1,0,0,-10,7,1,0,0,0,156,156,103,1,,,,,,,,
,,,,,,,,,,,,,FF,,,,,,,,0.3501,,,,,,,,,,,,,,,,,,,,,,5ff3e48f937861584630e5a2,610369d986f319e6b28f8ee2,2021-07-29_21h54.54.136,Simcolourproject_2stim_asymm_v5,2020.2.10,Win32,60,61025ae37ef11b136ea224fe,,,,,,,,,4041,-34,63,1,0,0,response7disk,,0,0,3,1,0,0,rectangle,0,3,1,0,0,0,3,1,0,0,0,157,157,75,1,,,,,,,,
,,,,,,,,,,,,,FF,,,,,,,,0.2334,,,,,,,,,,,,,,,,,,,,,,5ff3e48f937861584630e5a2,610369d986f319e6b28f8ee2,2021-07-29_21h54.54.136,Simcolourproject_2stim_asymm_v5,2020.2.10,Win32,60,61025ae37ef11b136ea224fe,,,,,,,,,2219,-37,74,1,0,0,response7disk,,0,4,3,1,0,0,rectangle,4,3,1,0,0,4,3,1,0,0,0,158,158,5,1,,,,,,,,
,,,,,,,,,,,,,FF,,,,,,,,0.2329,,,,,,,,,,,,,,,,,,,,,,5ff3e48f937861584630e5a2,610369d986f319e6b28f8ee2,2021-07-29_21h54.54.136,Simcolourproject_2stim_asymm_v5,2020.2.10,Win32,60,61025ae37ef11b136ea224fe,,,,,,,,,223,-67,90,1,0,0,response7disk,,0,-6,-1,1,0,0,rectangle,-6,-1,1,0,0,-6,-1,1,0,0,0,159,159,97,1,,,,,,,,
,,,,,,,,,,,,,FF,,,,,,,,0.3998,,,,,,,,,,,,,,,,,,,,,,5ff3e48f937861584630e5a2,610369d986f319e6b28f8ee2,2021-07-29_21h54.54.136,Simcolourproject_2stim_asymm_v5,2020.2.10,Win32,60,61025ae37ef11b136ea224fe,,,,,,,,,2850,-66,93,1,0,0,response7disk,,0,-11,5,1,0,0,rectangle,-11,5,1,0,0,-11,5,1,0,0,1,0,160,21,1,,,,,,,,
,,,,,,,,,,,,,FF,,,,,,,,0.3496,,,,,,,,,,,,,,,,,,,,,,5ff3e48f937861584630e5a2,610369d986f319e6b28f8ee2,2021-07-29_21h54.54.136,Simcolourproject_2stim_asymm_v5,2020.2.10,Win32,60,61025ae37ef11b136ea224fe,,,,,,,,,3762,-49,75,1,0,0,response7disk,,0,-16,-2,1,0,0,rectangle,-16,-2,1,0,0,-16,-2,1,0,0,1,1,161,29,1,,,,,,,,
,,,,,,,,,,,,,FF,,,,,,,,0.2835,,,,,,,,,,,,,,,,,,,,,,5ff3e48f937861584630e5a2,610369d986f319e6b28f8ee2,2021-07-29_21h54.54.136,Simcolourproject_2stim_asymm_v5,2020.2.10,Win32,60,61025ae37ef11b136ea224fe,,,,,,,,,1788,-38,51,1,0,0,response7disk,,0,-9,-6,1,0,0,rectangle,-9,-6,1,0,0,-9,-6,1,0,0,1,2,162,80,1,,,,,,,,
,,,,,,,,,,,,,FF,,,,,,,,0.3168,,,,,,,,,,,,,,,,,,,,,,5ff3e48f937861584630e5a2,610369d986f319e6b28f8ee2,2021-07-29_21h54.54.136,Simcolourproject_2stim_asymm_v5,2020.2.10,Win32,60,61025ae37ef11b136ea224fe,,,,,,,,,3212,-33,78,1,0,0,response7disk,,0,3,-4,1,0,0,rectangle,3,-4,1,0,0,3,-4,1,0,0,1,3,163,104,1,,,,,,,,
,,,,,,,,,,,,,FF,,,,,,,,0.3005,,,,,,,,,,,,,,,,,,,,,,5ff3e48f937861584630e5a2,610369d986f319e6b28f8ee2,2021-07-29_21h54.54.136,Simcolourproject_2stim_asymm_v5,2020.2.10,Win32,60,61025ae37ef11b136ea224fe,,,,,,,,,1102,-39,82,1,0,0,response7disk,,0,-10,14,1,0,0,rectangle,-10,14,1,0,0,-10,14,1,0,0,1,4,164,119,1,,,,,,,,
,,,,,,,,,,,,,FF,,,,,,,,0.3,,,,,,,,,,,,,,,,,,,,,,5ff3e48f937861584630e5a2,610369d986f319e6b28f8ee2,2021-07-29_21h54.54.136,Simcolourproject_2stim_asymm_v5,2020.2.10,Win32,60,61025ae37ef11b136ea224fe,,,,,,,,,2430,-37,87,1,0,0,response7disk,,0,-3,6,1,0,0,rectangle,-3,6,1,0,0,-3,6,1,0,0,1,5,165,132,1,,,,,,,,
,,,,,,,,,,,,,FF,,,,,,,,0.2002,,,,,,,,,,,,,,,,,,,,,,5ff3e48f937861584630e5a2,610369d986f319e6b28f8ee2,2021-07-29_21h54.54.136,Simcolourproject_2stim_asymm_v5,2020.2.10,Win32,60,61025ae37ef11b136ea224fe,,,,,,,,,2817,-28,61,1,0,0,response7disk,,0,9,-1,1,0,0,rectangle,9,-1,1,0,0,9,-1,1,0,0,1,6,166,57,1,,,,,,,,
,,,,,,,,,,,,,FF,,,,,,,,0.1835,,,,,,,,,,,,,,,,,,,,,,5ff3e48f937861584630e5a2,610369d986f319e6b28f8ee2,2021-07-29_21h54.54.136,Simcolourproject_2stim_asymm_v5,2020.2.10,Win32,60,61025ae37ef11b136ea224fe,,,,,,,,,204,-37,88,1,0,0,response7disk,,0,5,-2,1,0,0,rectangle,5,-2,1,0,0,5,-2,1,0,0,1,7,167,71,1,,,,,,,,
,,,,,,,,,,,,,FF,,,,,,,,0.233,,,,,,,,,,,,,,,,,,,,,,5ff3e48f937861584630e5a2,610369d986f319e6b28f8ee2,2021-07-29_21h54.54.136,Simcolourproject_2stim_asymm_v5,2020.2.10,Win32,60,61025ae37ef11b136ea224fe,,,,,,,,,4054,-44,61,1,0,0,response7disk,,0,-5,-2,1,0,0,rectangle,49,99,1,0,0,10,7,1,0,0,1,8,168,130,1,,response1disk_3,TRUE,7,7,"[71,315,14,257,290,170,293,82,269,199,115,290,315,169,55,249,121,320,123,225]",1.4822,rectangle
,,,,,,,,,,,,,FF,,,,,,,,0.8161,,,,,,,,,,,,,,,,,,,,,,5ff3e48f937861584630e5a2,610369d986f319e6b28f8ee2,2021-07-29_21h54.54.136,Simcolourproject_2stim_asymm_v5,2020.2.10,Win32,60,61025ae37ef11b136ea224fe,,,,,,,,,3148,44,101,1,0,0,response1disk,,7,13,-18,1,0,0,rectangle,38,-92,1,0,0,16,3,1,0,0,1,9,169,102,1,,response3disk_3,TRUE,4,4,"[71,315,14,257,290,170,293,82,269,199,115,290,315,169,55,249,121,320,123,225]",1.949,rectangle
,,,,,,,,,,,,,FF,,,,,,,,0.3164,,,,,,,,,,,,,,,,,,,,,,5ff3e48f937861584630e5a2,610369d986f319e6b28f8ee2,2021-07-29_21h54.54.136,Simcolourproject_2stim_asymm_v5,2020.2.10,Win32,60,61025ae37ef11b136ea224fe,,,,,,,,,1012,-34,65,1,0,0,response7disk,,0,5,-11,1,0,0,rectangle,5,-11,1,0,0,5,-11,1,0,0,1,10,170,31,1,,,,,,,,
,,,,,,,,,,,,,FF,,,,,,,,0.1331,,,,,,,,,,,,,,,,,,,,,,5ff3e48f937861584630e5a2,610369d986f319e6b28f8ee2,2021-07-29_21h54.54.136,Simcolourproject_2stim_asymm_v5,2020.2.10,Win32,60,61025ae37ef11b136ea224fe,,,,,,,,,394,-39,64,1,0,0,response7disk,,0,-7,8,1,0,0,rectangle,-7,8,1,0,0,-7,8,1,0,0,1,11,171,20,1,,,,,,,,
,,,,,,,,,,,,,FF,,,,,,,,0.5162,,,,,,,,,,,,,,,,,,,,,,5ff3e48f937861584630e5a2,610369d986f319e6b28f8ee2,2021-07-29_21h54.54.136,Simcolourproject_2stim_asymm_v5,2020.2.10,Win32,60,61025ae37ef11b136ea224fe,,,,,,,,,1892,37,96,1,0,0,response1disk,,7,0,18,1,0,0,rectangle,0,18,1,0,0,0,18,1,0,0,1,12,172,27,1,,,,,,,,
,,,,,,,,,,,,,FF,,,,,,,,0.3492,,,,,,,,,,,,,,,,,,,,,,5ff3e48f937861584630e5a2,610369d986f319e6b28f8ee2,2021-07-29_21h54.54.136,Simcolourproject_2stim_asymm_v5,2020.2.10,Win32,60,61025ae37ef11b136ea224fe,,,,,,,,,314,-34,77,1,0,0,response7disk,,0,-7,5,1,0,0,rectangle,-7,5,1,0,0,-7,5,1,0,0,1,13,173,50,1,,,,,,,,
,,,,,,,,,,,,,FF,,,,,,,,0.2499,,,,,,,,,,,,,,,,,,,,,,5ff3e48f937861584630e5a2,610369d986f319e6b28f8ee2,2021-07-29_21h54.54.136,Simcolourproject_2stim_asymm_v5,2020.2.10,Win32,60,61025ae37ef11b136ea224fe,,,,,,,,,640,-34,81,1,0,0,response7disk,,0,3,-11,1,0,0,rectangle,3,-11,1,0,0,3,-11,1,0,0,1,14,174,90,1,,,,,,,,
,,,,,,,,,,,,,FF,,,,,,,,0.6003,,,,,,,,,,,,,,,,,,,,,,5ff3e48f937861584630e5a2,610369d986f319e6b28f8ee2,2021-07-29_21h54.54.136,Simcolourproject_2stim_asymm_v5,2020.2.10,Win32,60,61025ae37ef11b136ea224fe,,,,,,,,,3477,-32,73,1,0,0,response7disk,,0,18,11,1,0,0,rectangle,18,11,1,0,0,18,11,1,0,0,1,15,175,141,1,,,,,,,,
,,,,,,,,,,,,,FF,,,,,,,,1.4327,,,,,,,,,,,,,,,,,,,,,,5ff3e48f937861584630e5a2,610369d986f319e6b28f8ee2,2021-07-29_21h54.54.136,Simcolourproject_2stim_asymm_v5,2020.2.10,Win32,60,61025ae37ef11b136ea224fe,,,,,,,,,3057,-63,48,1,0,0,response7disk,,1,-12,-2,1,0,0,rectangle,-12,-2,1,0,0,-12,-2,1,0,0,1,16,176,1,1,,,,,,,,
,,,,,,,,,,,,,FF,,,,,,,,0.6004,,,,,,,,,,,,,,,,,,,,,,5ff3e48f937861584630e5a2,610369d986f319e6b28f8ee2,2021-07-29_21h54.54.136,Simcolourproject_2stim_asymm_v5,2020.2.10,Win32,60,61025ae37ef11b136ea224fe,,,,,,,,,1810,-41,66,1,0,0,response7disk,,0,-9,-4,1,0,0,rectangle,-9,-4,1,0,0,-9,-4,1,0,0,1,17,177,126,1,,,,,,,,
,,,,,,,,,,,,,FF,,,,,,,,0.5322,,,,,,,,,,,,,,,,,,,,,,5ff3e48f937861584630e5a2,610369d986f319e6b28f8ee2,2021-07-29_21h54.54.136,Simcolourproject_2stim_asymm_v5,2020.2.10,Win32,60,61025ae37ef11b136ea224fe,,,,,,,,,2542,60,110,1,0,0,response1disk,,7,-3,8,1,0,0,rectangle,-3,8,1,0,0,-3,8,1,0,0,1,18,178,107,1,,,,,,,,
,,,,,,,,,,,,,FF,,,,,,,,0.3169,,,,,,,,,,,,,,,,,,,,,,5ff3e48f937861584630e5a2,610369d986f319e6b28f8ee2,2021-07-29_21h54.54.136,Simcolourproject_2stim_asymm_v5,2020.2.10,Win32,60,61025ae37ef11b136ea224fe,,,,,,,,,2185,-34,75,1,0,0,response7disk,,0,-9,-3,1,0,0,rectangle,-9,-3,1,0,0,-9,-3,1,0,0,1,19,179,120,1,,,,,,,,
,,,,,,,,,,,,,FF,,,,,,,,0.2161,,,,,,,,,,,,,,,,,,,,,,5ff3e48f937861584630e5a2,610369d986f319e6b28f8ee2,2021-07-29_21h54.54.136,Simcolourproject_2stim_asymm_v5,2020.2.10,Win32,60,61025ae37ef11b136ea224fe,,,,,,,,,2842,-53,86,1,0,0,response7disk,,0,-15,15,1,0,0,rectangle,-15,15,1,0,0,-15,15,1,0,0,1,20,180,83,1,,,,,,,,
,,,,,,,,,,,,,FF,,,,,,,,0.3165,,,,,,,,,,,,,,,,,,,,,,5ff3e48f937861584630e5a2,610369d986f319e6b28f8ee2,2021-07-29_21h54.54.136,Simcolourproject_2stim_asymm_v5,2020.2.10,Win32,60,61025ae37ef11b136ea224fe,,,,,,,,,2441,-35,67,1,0,0,response7disk,,0,-3,-1,1,0,0,rectangle,-3,-1,1,0,0,-3,-1,1,0,0,1,21,181,156,1,,,,,,,,
,,,,,,,,,,,,,FF,,,,,,,,1.4325,,,,,,,,,,,,,,,,,,,,,,5ff3e48f937861584630e5a2,610369d986f319e6b28f8ee2,2021-07-29_21h54.54.136,Simcolourproject_2stim_asymm_v5,2020.2.10,Win32,60,61025ae37ef11b136ea224fe,,,,,,,,,3472,-92,41,1,0,0,response7disk,,1,4,-2,1,0,0,rectangle,4,-2,1,0,0,4,-2,1,0,0,1,22,182,49,1,,,,,,,,
,,,,,,,,,,,,,FF,,,,,,,,1.099,,,,,,,,,,,,,,,,,,,,,,5ff3e48f937861584630e5a2,610369d986f319e6b28f8ee2,2021-07-29_21h54.54.136,Simcolourproject_2stim_asymm_v5,2020.2.10,Win32,60,61025ae37ef11b136ea224fe,,,,,,,,,1454,69,29,1,0,0,response1disk,,6,4,-4,1,0,0,rectangle,4,-4,1,0,0,4,-4,1,0,0,1,23,183,43,1,,,,,,,,
,,,,,,,,,,,,,FF,,,,,,,,1.1338,,,,,,,,,,,,,,,,,,,,,,5ff3e48f937861584630e5a2,610369d986f319e6b28f8ee2,2021-07-29_21h54.54.136,Simcolourproject_2stim_asymm_v5,2020.2.10,Win32,60,61025ae37ef11b136ea224fe,,,,,,,,,1832,-44,-100,1,0,0,response5disk,,3,-8,-8,1,0,0,rectangle,-8,-8,1,0,0,-8,-8,1,0,0,1,24,184,158,1,,,,,,,,
,,,,,,,,,,,,,FF,,,,,,,,1.2832,,,,,,,,,,,,,,,,,,,,,,5ff3e48f937861584630e5a2,610369d986f319e6b28f8ee2,2021-07-29_21h54.54.136,Simcolourproject_2stim_asymm_v5,2020.2.10,Win32,60,61025ae37ef11b136ea224fe,,,,,,,,,1150,-51,-67,1,0,0,response5disk,,3,-14,-3,1,0,0,rectangle,-14,-3,1,0,0,-14,-3,1,0,0,1,25,185,18,1,,,,,,,,
,,,,,,,,,,,,,FF,,,,,,,,0.4004,,,,,,,,,,,,,,,,,,,,,,5ff3e48f937861584630e5a2,610369d986f319e6b28f8ee2,2021-07-29_21h54.54.136,Simcolourproject_2stim_asymm_v5,2020.2.10,Win32,60,61025ae37ef11b136ea224fe,,,,,,,,,3306,-43,76,1,0,0,response7disk,,0,1,7,1,0,0,rectangle,1,7,1,0,0,1,7,1,0,0,1,26,186,143,1,,,,,,,,
,,,,,,,,,,,,,FF,,,,,,,,0.3494,,,,,,,,,,,,,,,,,,,,,,5ff3e48f937861584630e5a2,610369d986f319e6b28f8ee2,2021-07-29_21h54.54.136,Simcolourproject_2stim_asymm_v5,2020.2.10,Win32,60,61025ae37ef11b136ea224fe,,,,,,,,,4338,-28,62,1,0,0,response7disk,,0,7,7,1,0,0,rectangle,7,7,1,0,0,7,7,1,0,0,1,27,187,95,1,,,,,,,,
,,,,,,,,,,,,,FF,,,,,,,,0.5166,,,,,,,,,,,,,,,,,,,,,,5ff3e48f937861584630e5a2,610369d986f319e6b28f8ee2,2021-07-29_21h54.54.136,Simcolourproject_2stim_asymm_v5,2020.2.10,Win32,60,61025ae37ef11b136ea224fe,,,,,,,,,846,-34,89,1,0,0,response7disk,,0,-13,20,1,0,0,rectangle,-13,20,1,0,0,-13,20,1,0,0,1,28,188,33,1,,,,,,,,
,,,,,,,,,,,,,FF,,,,,,,,0.217,,,,,,,,,,,,,,,,,,,,,,5ff3e48f937861584630e5a2,610369d986f319e6b28f8ee2,2021-07-29_21h54.54.136,Simcolourproject_2stim_asymm_v5,2020.2.10,Win32,60,61025ae37ef11b136ea224fe,,,,,,,,,3211,-41,80,1,0,0,response7disk,,0,-10,9,1,0,0,rectangle,-10,9,1,0,0,-10,9,1,0,0,1,29,189,148,1,,,,,,,,
,,,,,,,,,,,,,FF,,,,,,,,0.5321,,,,,,,,,,,,,,,,,,,,,,5ff3e48f937861584630e5a2,610369d986f319e6b28f8ee2,2021-07-29_21h54.54.136,Simcolourproject_2stim_asymm_v5,2020.2.10,Win32,60,61025ae37ef11b136ea224fe,,,,,,,,,4343,36,116,1,0,0,response1disk,,7,-15,-3,1,0,0,rectangle,-15,-3,1,0,0,-15,-3,1,0,0,1,30,190,3,1,,,,,,,,
,,,,,,,,,,,,,FF,,,,,,,,0.3492,,,,,,,,,,,,,,,,,,,,,,5ff3e48f937861584630e5a2,610369d986f319e6b28f8ee2,2021-07-29_21h54.54.136,Simcolourproject_2stim_asymm_v5,2020.2.10,Win32,60,61025ae37ef11b136ea224fe,,,,,,,,,2214,-33,68,1,0,0,response7disk,,0,-4,15,1,0,0,rectangle,-4,15,1,0,0,-4,15,1,0,0,1,31,191,115,1,,,,,,,,
,,,,,,,,,,,,,FF,,,,,,,,0.367,,,,,,,,,,,,,,,,,,,,,,5ff3e48f937861584630e5a2,610369d986f319e6b28f8ee2,2021-07-29_21h54.54.136,Simcolourproject_2stim_asymm_v5,2020.2.10,Win32,60,61025ae37ef11b136ea224fe,,,,,,,,,1488,-44,79,1,0,0,response7disk,,0,-6,16,1,0,0,rectangle,-6,16,1,0,0,-6,16,1,0,0,1,32,192,12,1,,,,,,,,
,,,,,,,,,,,,,FF,,,,,,,,0.2658,,,,,,,,,,,,,,,,,,,,,,5ff3e48f937861584630e5a2,610369d986f319e6b28f8ee2,2021-07-29_21h54.54.136,Simcolourproject_2stim_asymm_v5,2020.2.10,Win32,60,61025ae37ef11b136ea224fe,,,,,,,,,2140,-34,73,1,0,0,response7disk,,0,4,1,1,0,0,rectangle,4,1,1,0,0,4,1,1,0,0,1,33,193,35,1,,,,,,,,
,,,,,,,,,,,,,FF,,,,,,,,0.2324,,,,,,,,,,,,,,,,,,,,,,5ff3e48f937861584630e5a2,610369d986f319e6b28f8ee2,2021-07-29_21h54.54.136,Simcolourproject_2stim_asymm_v5,2020.2.10,Win32,60,61025ae37ef11b136ea224fe,,,,,,,,,298,-35,73,1,0,0,response7disk,,0,-2,-5,1,0,0,rectangle,-2,-5,1,0,0,-2,-5,1,0,0,1,34,194,123,1,,,,,,,,
,,,,,,,,,,,,,FF,,,,,,,,0.35,,,,,,,,,,,,,,,,,,,,,,5ff3e48f937861584630e5a2,610369d986f319e6b28f8ee2,2021-07-29_21h54.54.136,Simcolourproject_2stim_asymm_v5,2020.2.10,Win32,60,61025ae37ef11b136ea224fe,,,,,,,,,236,-28,72,1,0,0,response7disk,,0,0,1,1,0,0,rectangle,0,1,1,0,0,0,1,1,0,0,1,35,195,54,1,,,,,,,,
,,,,,,,,,,,,,FF,,,,,,,,0.3168,,,,,,,,,,,,,,,,,,,,,,5ff3e48f937861584630e5a2,610369d986f319e6b28f8ee2,2021-07-29_21h54.54.136,Simcolourproject_2stim_asymm_v5,2020.2.10,Win32,60,61025ae37ef11b136ea224fe,,,,,,,,,1046,-27,57,1,0,0,response7disk,,0,5,-7,1,0,0,rectangle,5,-7,1,0,0,5,-7,1,0,0,1,36,196,150,1,,,,,,,,
,,,,,,,,,,,,,FF,,,,,,,,0.2997,,,,,,,,,,,,,,,,,,,,,,5ff3e48f937861584630e5a2,610369d986f319e6b28f8ee2,2021-07-29_21h54.54.136,Simcolourproject_2stim_asymm_v5,2020.2.10,Win32,60,61025ae37ef11b136ea224fe,,,,,,,,,24,-39,70,1,0,0,response7disk,,0,8,0,1,0,0,rectangle,8,0,1,0,0,8,0,1,0,0,1,37,197,113,1,,,,,,,,
,,,,,,,,,,,,,FF,,,,,,,,0.6005,,,,,,,,,,,,,,,,,,,,,,5ff3e48f937861584630e5a2,610369d986f319e6b28f8ee2,2021-07-29_21h54.54.136,Simcolourproject_2stim_asymm_v5,2020.2.10,Win32,60,61025ae37ef11b136ea224fe,,,,,,,,,4201,54,109,1,0,0,response1disk,,7,-3,13,1,0,0,rectangle,-40,140,1,0,0,-6,6,1,0,0,1,38,198,8,1,,response7disk_3,TRUE,0,0,"[71,315,14,257,290,170,293,82,269,199,115,290,315,169,55,249,121,320,123,225]",1.8319,rectangle
,,,,,,,,,,,,,FF,,,,,,,,0.4007,,,,,,,,,,,,,,,,,,,,,,5ff3e48f937861584630e5a2,610369d986f319e6b28f8ee2,2021-07-29_21h54.54.136,Simcolourproject_2stim_asymm_v5,2020.2.10,Win32,60,61025ae37ef11b136ea224fe,,,,,,,,,1622,-37,82,1,0,0,response7disk,,0,5,-1,1,0,0,rectangle,5,-1,1,0,0,5,-1,1,0,0,1,39,199,155,1,,,,,,,,
,,,,,,,,,,,,,FF,,,,,,,,0.4834,,,,,,,,,,,,,,,,,,,,,,5ff3e48f937861584630e5a2,610369d986f319e6b28f8ee2,2021-07-29_21h54.54.136,Simcolourproject_2stim_asymm_v5,2020.2.10,Win32,60,61025ae37ef11b136ea224fe,,,,,,,,,661,-32,62,1,0,0,response7disk,,0,-18,8,1,0,0,rectangle,-18,8,1,0,0,-18,8,1,0,0,1,40,200,159,1,,,,,,,,
,,,,,,,,,,,,,FF,,,,,,,,0.3657,,,,,,,,,,,,,,,,,,,,,,5ff3e48f937861584630e5a2,610369d986f319e6b28f8ee2,2021-07-29_21h54.54.136,Simcolourproject_2stim_asymm_v5,2020.2.10,Win32,60,61025ae37ef11b136ea224fe,,,,,,,,,763,-46,61,1,0,0,response7disk,,0,-14,2,1,0,0,rectangle,-14,2,1,0,0,-14,2,1,0,0,1,41,201,34,1,,,,,,,,
,,,,,,,,,,,,,FF,,,,,,,,0.2994,,,,,,,,,,,,,,,,,,,,,,5ff3e48f937861584630e5a2,610369d986f319e6b28f8ee2,2021-07-29_21h54.54.136,Simcolourproject_2stim_asymm_v5,2020.2.10,Win32,60,61025ae37ef11b136ea224fe,,,,,,,,,2035,-38,98,1,0,0,response7disk,,0,-20,6,1,0,0,rectangle,-20,6,1,0,0,-20,6,1,0,0,1,42,202,133,1,,,,,,,,
,,,,,,,,,,,,,FF,,,,,,,,0.3336,,,,,,,,,,,,,,,,,,,,,,5ff3e48f937861584630e5a2,610369d986f319e6b28f8ee2,2021-07-29_21h54.54.136,Simcolourproject_2stim_asymm_v5,2020.2.10,Win32,60,61025ae37ef11b136ea224fe,,,,,,,,,676,-48,88,1,0,0,response7disk,,0,-11,3,1,0,0,rectangle,-11,3,1,0,0,-11,3,1,0,0,1,43,203,157,1,,,,,,,,
,,,,,,,,,,,,,FF,,,,,,,,0.4499,,,,,,,,,,,,,,,,,,,,,,5ff3e48f937861584630e5a2,610369d986f319e6b28f8ee2,2021-07-29_21h54.54.136,Simcolourproject_2stim_asymm_v5,2020.2.10,Win32,60,61025ae37ef11b136ea224fe,,,,,,,,,3076,-37,80,1,0,0,response7disk,,0,-1,-6,1,0,0,rectangle,-1,-6,1,0,0,-1,-6,1,0,0,1,44,204,146,1,,,,,,,,
,,,,,,,,,,,,,FF,,,,,,,,0.3499,,,,,,,,,,,,,,,,,,,,,,5ff3e48f937861584630e5a2,610369d986f319e6b28f8ee2,2021-07-29_21h54.54.136,Simcolourproject_2stim_asymm_v5,2020.2.10,Win32,60,61025ae37ef11b136ea224fe,,,,,,,,,1335,-33,80,1,0,0,response7disk,,0,-5,-8,1,0,0,rectangle,-5,-8,1,0,0,-5,-8,1,0,0,1,45,205,76,1,,,,,,,,
,,,,,,,,,,,,,FF,,,,,,,,0.567,,,,,,,,,,,,,,,,,,,,,,5ff3e48f937861584630e5a2,610369d986f319e6b28f8ee2,2021-07-29_21h54.54.136,Simcolourproject_2stim_asymm_v5,2020.2.10,Win32,60,61025ae37ef11b136ea224fe,,,,,,,,,2151,47,106,1,0,0,response1disk,,7,-17,5,1,0,0,rectangle,-17,5,1,0,0,-17,5,1,0,0,1,46,206,52,1,,,,,,,,
,,,,,,,,,,,,,FF,,,,,,,,0.3159,,,,,,,,,,,,,,,,,,,,,,5ff3e48f937861584630e5a2,610369d986f319e6b28f8ee2,2021-07-29_21h54.54.136,Simcolourproject_2stim_asymm_v5,2020.2.10,Win32,60,61025ae37ef11b136ea224fe,,,,,,,,,3231,-31,81,1,0,0,response7disk,,0,8,6,1,0,0,rectangle,8,6,1,0,0,8,6,1,0,0,1,47,207,124,1,,,,,,,,
,,,,,,,,,,,,,FF,,,,,,,,0.3989,,,,,,,,,,,,,,,,,,,,,,5ff3e48f937861584630e5a2,610369d986f319e6b28f8ee2,2021-07-29_21h54.54.136,Simcolourproject_2stim_asymm_v5,2020.2.10,Win32,60,61025ae37ef11b136ea224fe,,,,,,,,,876,-22,57,1,0,0,response7disk,,0,-9,-5,1,0,0,rectangle,-9,-5,1,0,0,-9,-5,1,0,0,1,48,208,64,1,,,,,,,,
,,,,,,,,,,,,,FF,,,,,,,,0.5157,,,,,,,,,,,,,,,,,,,,,,5ff3e48f937861584630e5a2,610369d986f319e6b28f8ee2,2021-07-29_21h54.54.136,Simcolourproject_2stim_asymm_v5,2020.2.10,Win32,60,61025ae37ef11b136ea224fe,,,,,,,,,3902,-38,73,1,0,0,response7disk,,0,-16,-4,1,0,0,rectangle,-16,-4,1,0,0,-16,-4,1,0,0,1,49,209,147,1,,,,,,,,
,,,,,,,,,,,,,FF,,,,,,,,0.2839,,,,,,,,,,,,,,,,,,,,,,5ff3e48f937861584630e5a2,610369d986f319e6b28f8ee2,2021-07-29_21h54.54.136,Simcolourproject_2stim_asymm_v5,2020.2.10,Win32,60,61025ae37ef11b136ea224fe,,,,,,,,,1700,-37,69,1,0,0,response7disk,,0,2,-17,1,0,0,rectangle,2,-17,1,0,0,2,-17,1,0,0,1,50,210,23,1,,,,,,,,
,,,,,,,,,,,,,FF,,,,,,,,0.3,,,,,,,,,,,,,,,,,,,,,,5ff3e48f937861584630e5a2,610369d986f319e6b28f8ee2,2021-07-29_21h54.54.136,Simcolourproject_2stim_asymm_v5,2020.2.10,Win32,60,61025ae37ef11b136ea224fe,,,,,,,,,1081,-44,92,1,0,0,response7disk,,0,-2,-4,1,0,0,rectangle,-2,-4,1,0,0,-2,-4,1,0,0,1,51,211,86,1,,,,,,,,
,,,,,,,,,,,,,FF,,,,,,,,0.3336,,,,,,,,,,,,,,,,,,,,,,5ff3e48f937861584630e5a2,610369d986f319e6b28f8ee2,2021-07-29_21h54.54.136,Simcolourproject_2stim_asymm_v5,2020.2.10,Win32,60,61025ae37ef11b136ea224fe,,,,,,,,,1740,-45,82,1,0,0,response7disk,,0,-20,19,1,0,0,rectangle,-20,19,1,0,0,-20,19,1,0,0,1,52,212,121,1,,,,,,,,
,,,,,,,,,,,,,FF,,,,,,,,0.3001,,,,,,,,,,,,,,,,,,,,,,5ff3e48f937861584630e5a2,610369d986f319e6b28f8ee2,2021-07-29_21h54.54.136,Simcolourproject_2stim_asymm_v5,2020.2.10,Win32,60,61025ae37ef11b136ea224fe,,,,,,,,,323,-28,86,1,0,0,response7disk,,0,-2,-17,1,0,0,rectangle,-2,-17,1,0,0,-2,-17,1,0,0,1,53,213,75,1,,,,,,,,
,,,,,,,,,,,,,FF,,,,,,,,0.366,,,,,,,,,,,,,,,,,,,,,,5ff3e48f937861584630e5a2,610369d986f319e6b28f8ee2,2021-07-29_21h54.54.136,Simcolourproject_2stim_asymm_v5,2020.2.10,Win32,60,61025ae37ef11b136ea224fe,,,,,,,,,469,-38,84,1,0,0,response7disk,,0,-12,2,1,0,0,rectangle,-12,2,1,0,0,-12,2,1,0,0,1,54,214,63,1,,,,,,,,
,,,,,,,,,,,,,FF,,,,,,,,0.3328,,,,,,,,,,,,,,,,,,,,,,5ff3e48f937861584630e5a2,610369d986f319e6b28f8ee2,2021-07-29_21h54.54.136,Simcolourproject_2stim_asymm_v5,2020.2.10,Win32,60,61025ae37ef11b136ea224fe,,,,,,,,,2618,-37,72,1,0,0,response7disk,,0,-14,13,1,0,0,rectangle,-14,13,1,0,0,-14,13,1,0,0,1,55,215,109,1,,,,,,,,
,,,,,,,,,,,,,FF,,,,,,,,0.3839,,,,,,,,,,,,,,,,,,,,,,5ff3e48f937861584630e5a2,610369d986f319e6b28f8ee2,2021-07-29_21h54.54.136,Simcolourproject_2stim_asymm_v5,2020.2.10,Win32,60,61025ae37ef11b136ea224fe,,,,,,,,,3701,-34,68,1,0,0,response7disk,,0,-12,-2,1,0,0,rectangle,-12,-2,1,0,0,-12,-2,1,0,0,1,56,216,139,1,,,,,,,,
,,,,,,,,,,,,,FF,,,,,,,,0.3995,,,,,,,,,,,,,,,,,,,,,,5ff3e48f937861584630e5a2,610369d986f319e6b28f8ee2,2021-07-29_21h54.54.136,Simcolourproject_2stim_asymm_v5,2020.2.10,Win32,60,61025ae37ef11b136ea224fe,,,,,,,,,3861,-30,63,1,0,0,response7disk,,0,-18,0,1,0,0,rectangle,-18,0,1,0,0,-18,0,1,0,0,1,57,217,110,1,,,,,,,,
,,,,,,,,,,,,,FF,,,,,,,,1.0826,,,,,,,,,,,,,,,,,,,,,,5ff3e48f937861584630e5a2,610369d986f319e6b28f8ee2,2021-07-29_21h54.54.136,Simcolourproject_2stim_asymm_v5,2020.2.10,Win32,60,61025ae37ef11b136ea224fe,,,,,,,,,1138,28,-81,1,0,0,response3disk,,4,1,-13,1,0,0,rectangle,1,-13,1,0,0,1,-13,1,0,0,1,58,218,46,1,,,,,,,,
,,,,,,,,,,,,,FF,,,,,,,,0.383,,,,,,,,,,,,,,,,,,,,,,5ff3e48f937861584630e5a2,610369d986f319e6b28f8ee2,2021-07-29_21h54.54.136,Simcolourproject_2stim_asymm_v5,2020.2.10,Win32,60,61025ae37ef11b136ea224fe,,,,,,,,,1693,-35,90,1,0,0,response7disk,,0,1,5,1,0,0,rectangle,1,5,1,0,0,1,5,1,0,0,1,59,219,65,1,,,,,,,,
,,,,,,,,,,,,,FF,,,,,,,,0.3496,,,,,,,,,,,,,,,,,,,,,,5ff3e48f937861584630e5a2,610369d986f319e6b28f8ee2,2021-07-29_21h54.54.136,Simcolourproject_2stim_asymm_v5,2020.2.10,Win32,60,61025ae37ef11b136ea224fe,,,,,,,,,3394,-26,79,1,0,0,response7disk,,0,10,13,1,0,0,rectangle,10,13,1,0,0,10,13,1,0,0,1,60,220,151,1,,,,,,,,
,,,,,,,,,,,,,FF,,,,,,,,0.3498,,,,,,,,,,,,,,,,,,,,,,5ff3e48f937861584630e5a2,610369d986f319e6b28f8ee2,2021-07-29_21h54.54.136,Simcolourproject_2stim_asymm_v5,2020.2.10,Win32,60,61025ae37ef11b136ea224fe,,,,,,,,,151,-23,64,1,0,0,response7disk,,0,3,3,1,0,0,rectangle,3,3,1,0,0,3,3,1,0,0,1,61,221,129,1,,,,,,,,
,,,,,,,,,,,,,FF,,,,,,,,0.3665,,,,,,,,,,,,,,,,,,,,,,5ff3e48f937861584630e5a2,610369d986f319e6b28f8ee2,2021-07-29_21h54.54.136,Simcolourproject_2stim_asymm_v5,2020.2.10,Win32,60,61025ae37ef11b136ea224fe,,,,,,,,,4329,-40,71,1,0,0,response7disk,,0,2,13,1,0,0,rectangle,2,13,1,0,0,2,13,1,0,0,1,62,222,61,1,,,,,,,,
,,,,,,,,,,,,,FF,,,,,,,,0.3496,,,,,,,,,,,,,,,,,,,,,,5ff3e48f937861584630e5a2,610369d986f319e6b28f8ee2,2021-07-29_21h54.54.136,Simcolourproject_2stim_asymm_v5,2020.2.10,Win32,60,61025ae37ef11b136ea224fe,,,,,,,,,3897,-27,71,1,0,0,response7disk,,0,7,9,1,0,0,rectangle,7,9,1,0,0,7,9,1,0,0,1,63,223,40,1,,,,,,,,
,,,,,,,,,,,,,FF,,,,,,,,0.3342,,,,,,,,,,,,,,,,,,,,,,5ff3e48f937861584630e5a2,610369d986f319e6b28f8ee2,2021-07-29_21h54.54.136,Simcolourproject_2stim_asymm_v5,2020.2.10,Win32,60,61025ae37ef11b136ea224fe,,,,,,,,,3733,-32,67,1,0,0,response7disk,,0,-11,-14,1,0,0,rectangle,128,34,1,0,0,-10,8,1,0,0,1,64,224,55,1,,response1disk_3,TRUE,6,6,"[71,315,14,257,290,170,293,82,269,199,115,290,315,169,55,249,121,320,123,225]",1.3665,rectangle
,,,,,,,,,,,,,FF,,,,,,,,0.4003,,,,,,,,,,,,,,,,,,,,,,5ff3e48f937861584630e5a2,610369d986f319e6b28f8ee2,2021-07-29_21h54.54.136,Simcolourproject_2stim_asymm_v5,2020.2.10,Win32,60,61025ae37ef11b136ea224fe,,,,,,,,,880,-33,76,1,0,0,response7disk,,0,16,-2,1,0,0,rectangle,16,-2,1,0,0,16,-2,1,0,0,1,65,225,128,1,,,,,,,,
,,,,,,,,,,,,,FF,,,,,,,,0.6997,,,,,,,,,,,,,,,,,,,,,,5ff3e48f937861584630e5a2,610369d986f319e6b28f8ee2,2021-07-29_21h54.54.136,Simcolourproject_2stim_asymm_v5,2020.2.10,Win32,60,61025ae37ef11b136ea224fe,,,,,,,,,777,-33,81,1,0,0,response7disk,,0,-1,9,1,0,0,rectangle,-1,9,1,0,0,-1,9,1,0,0,1,66,226,69,1,,,,,,,,
,,,,,,,,,,,,,FF,,,,,,,,0.3324,,,,,,,,,,,,,,,,,,,,,,5ff3e48f937861584630e5a2,610369d986f319e6b28f8ee2,2021-07-29_21h54.54.136,Simcolourproject_2stim_asymm_v5,2020.2.10,Win32,60,61025ae37ef11b136ea224fe,,,,,,,,,1599,-36,58,1,0,0,response7disk,,0,-5,4,1,0,0,rectangle,-5,4,1,0,0,-5,4,1,0,0,1,67,227,106,1,,,,,,,,
,,,,,,,,,,,,,FF,,,,,,,,0.3659,,,,,,,,,,,,,,,,,,,,,,5ff3e48f937861584630e5a2,610369d986f319e6b28f8ee2,2021-07-29_21h54.54.136,Simcolourproject_2stim_asymm_v5,2020.2.10,Win32,60,61025ae37ef11b136ea224fe,,,,,,,,,2659,-36,69,1,0,0,response7disk,,0,0,8,1,0,0,rectangle,0,8,1,0,0,0,8,1,0,0,1,68,228,111,1,,,,,,,,
,,,,,,,,,,,,,FF,,,,,,,,0.7661,,,,,,,,,,,,,,,,,,,,,,5ff3e48f937861584630e5a2,610369d986f319e6b28f8ee2,2021-07-29_21h54.54.136,Simcolourproject_2stim_asymm_v5,2020.2.10,Win32,60,61025ae37ef11b136ea224fe,,,,,,,,,174,90,50,1,0,0,response1disk,,6,-8,6,1,0,0,rectangle,-8,6,1,0,0,-8,6,1,0,0,1,69,229,2,1,,,,,,,,
,,,,,,,,,,,,,FF,,,,,,,,0.3503,,,,,,,,,,,,,,,,,,,,,,5ff3e48f937861584630e5a2,610369d986f319e6b28f8ee2,2021-07-29_21h54.54.136,Simcolourproject_2stim_asymm_v5,2020.2.10,Win32,60,61025ae37ef11b136ea224fe,,,,,,,,,1124,-34,70,1,0,0,response7disk,,0,2,8,1,0,0,rectangle,2,8,1,0,0,2,8,1,0,0,1,70,230,59,1,,,,,,,,
,,,,,,,,,,,,,FF,,,,,,,,0.4002,,,,,,,,,,,,,,,,,,,,,,5ff3e48f937861584630e5a2,610369d986f319e6b28f8ee2,2021-07-29_21h54.54.136,Simcolourproject_2stim_asymm_v5,2020.2.10,Win32,60,61025ae37ef11b136ea224fe,,,,,,,,,1748,-26,65,1,0,0,response7disk,,0,4,-3,1,0,0,rectangle,4,-3,1,0,0,4,-3,1,0,0,1,71,231,22,1,,,,,,,,
,,,,,,,,,,,,,FF,,,,,,,,0.2656,,,,,,,,,,,,,,,,,,,,,,5ff3e48f937861584630e5a2,610369d986f319e6b28f8ee2,2021-07-29_21h54.54.136,Simcolourproject_2stim_asymm_v5,2020.2.10,Win32,60,61025ae37ef11b136ea224fe,,,,,,,,,1015,-21,80,1,0,0,response7disk,,0,-1,19,1,0,0,rectangle,-1,19,1,0,0,-1,19,1,0,0,1,72,232,74,1,,,,,,,,
,,,,,,,,,,,,,FF,,,,,,,,0.2658,,,,,,,,,,,,,,,,,,,,,,5ff3e48f937861584630e5a2,610369d986f319e6b28f8ee2,2021-07-29_21h54.54.136,Simcolourproject_2stim_asymm_v5,2020.2.10,Win32,60,61025ae37ef11b136ea224fe,,,,,,,,,2700,-37,82,1,0,0,response7disk,,0,3,16,1,0,0,rectangle,3,16,1,0,0,3,16,1,0,0,1,73,233,7,1,,,,,,,,
,,,,,,,,,,,,,FF,,,,,,,,0.2332,,,,,,,,,,,,,,,,,,,,,,5ff3e48f937861584630e5a2,610369d986f319e6b28f8ee2,2021-07-29_21h54.54.136,Simcolourproject_2stim_asymm_v5,2020.2.10,Win32,60,61025ae37ef11b136ea224fe,,,,,,,,,1585,-36,77,1,0,0,response7disk,,0,-1,3,1,0,0,rectangle,-1,3,1,0,0,-1,3,1,0,0,1,74,234,135,1,,,,,,,,
,,,,,,,,,,,,,FF,,,,,,,,0.2329,,,,,,,,,,,,,,,,,,,,,,5ff3e48f937861584630e5a2,610369d986f319e6b28f8ee2,2021-07-29_21h54.54.136,Simcolourproject_2stim_asymm_v5,2020.2.10,Win32,60,61025ae37ef11b136ea224fe,,,,,,,,,3310,-49,79,1,0,0,response7disk,,0,1,-5,1,0,0,rectangle,1,-5,1,0,0,1,-5,1,0,0,1,75,235,56,1,,,,,,,,
,,,,,,,,,,,,,FF,,,,,,,,0.3838,,,,,,,,,,,,,,,,,,,,,,5ff3e48f937861584630e5a2,610369d986f319e6b28f8ee2,2021-07-29_21h54.54.136,Simcolourproject_2stim_asymm_v5,2020.2.10,Win32,60,61025ae37ef11b136ea224fe,,,,,,,,,2123,-41,71,1,0,0,response7disk,,0,-6,3,1,0,0,rectangle,-6,3,1,0,0,-6,3,1,0,0,1,76,236,125,1,,,,,,,,
,,,,,,,,,,,,,FF,,,,,,,,0.3505,,,,,,,,,,,,,,,,,,,,,,5ff3e48f937861584630e5a2,610369d986f319e6b28f8ee2,2021-07-29_21h54.54.136,Simcolourproject_2stim_asymm_v5,2020.2.10,Win32,60,61025ae37ef11b136ea224fe,,,,,,,,,3739,-31,60,1,0,0,response7disk,,0,-4,-5,1,0,0,rectangle,-4,-5,1,0,0,-4,-5,1,0,0,1,77,237,96,1,,,,,,,,
,,,,,,,,,,,,,FF,,,,,,,,0.3157,,,,,,,,,,,,,,,,,,,,,,5ff3e48f937861584630e5a2,610369d986f319e6b28f8ee2,2021-07-29_21h54.54.136,Simcolourproject_2stim_asymm_v5,2020.2.10,Win32,60,61025ae37ef11b136ea224fe,,,,,,,,,1302,-41,72,1,0,0,response7disk,,0,8,10,1,0,0,rectangle,8,10,1,0,0,8,10,1,0,0,1,78,238,117,1,,,,,,,,
,,,,,,,,,,,,,FF,,,,,,,,0.3166,,,,,,,,,,,,,,,,,,,,,,5ff3e48f937861584630e5a2,610369d986f319e6b28f8ee2,2021-07-29_21h54.54.136,Simcolourproject_2stim_asymm_v5,2020.2.10,Win32,60,61025ae37ef11b136ea224fe,,,,,,,,,1194,-35,71,1,0,0,response7disk,,0,0,-1,1,0,0,rectangle,0,-1,1,0,0,0,-1,1,0,0,1,79,239,81,1,,,,,,,,
,,,,,,,,,,,,,FF,,,,,,,,0.3503,,,,,,,,,,,,,,,,,,,,,,5ff3e48f937861584630e5a2,610369d986f319e6b28f8ee2,2021-07-29_21h54.54.136,Simcolourproject_2stim_asymm_v5,2020.2.10,Win32,60,61025ae37ef11b136ea224fe,,,,,,,,,111,-49,61,1,0,0,response7disk,,0,4,-6,1,0,0,rectangle,4,-6,1,0,0,4,-6,1,0,0,1,80,240,66,1,,,,,,,,
,,,,,,,,,,,,,FF,,,,,,,,0.3167,,,,,,,,,,,,,,,,,,,,,,5ff3e48f937861584630e5a2,610369d986f319e6b28f8ee2,2021-07-29_21h54.54.136,Simcolourproject_2stim_asymm_v5,2020.2.10,Win32,60,61025ae37ef11b136ea224fe,,,,,,,,,3578,-50,86,1,0,0,response7disk,,0,-11,8,1,0,0,rectangle,-11,8,1,0,0,-11,8,1,0,0,1,81,241,98,1,,,,,,,,
,,,,,,,,,,,,,FF,,,,,,,,0.2825,,,,,,,,,,,,,,,,,,,,,,5ff3e48f937861584630e5a2,610369d986f319e6b28f8ee2,2021-07-29_21h54.54.136,Simcolourproject_2stim_asymm_v5,2020.2.10,Win32,60,61025ae37ef11b136ea224fe,,,,,,,,,997,-39,82,1,0,0,response7disk,,0,-7,0,1,0,0,rectangle,-7,0,1,0,0,-7,0,1,0,0,1,82,242,68,1,,,,,,,,
,,,,,,,,,,,,,FF,,,,,,,,0.3332,,,,,,,,,,,,,,,,,,,,,,5ff3e48f937861584630e5a2,610369d986f319e6b28f8ee2,2021-07-29_21h54.54.136,Simcolourproject_2stim_asymm_v5,2020.2.10,Win32,60,61025ae37ef11b136ea224fe,,,,,,,,,2767,-39,73,1,0,0,response7disk,,0,-2,2,1,0,0,rectangle,-2,2,1,0,0,-2,2,1,0,0,1,83,243,36,1,,,,,,,,
,,,,,,,,,,,,,FF,,,,,,,,0.3161,,,,,,,,,,,,,,,,,,,,,,5ff3e48f937861584630e5a2,610369d986f319e6b28f8ee2,2021-07-29_21h54.54.136,Simcolourproject_2stim_asymm_v5,2020.2.10,Win32,60,61025ae37ef11b136ea224fe,,,,,,,,,3442,-34,66,1,0,0,response7disk,,0,-12,21,1,0,0,rectangle,-12,21,1,0,0,-12,21,1,0,0,1,84,244,131,1,,,,,,,,
,,,,,,,,,,,,,FF,,,,,,,,0.5498,,,,,,,,,,,,,,,,,,,,,,5ff3e48f937861584630e5a2,610369d986f319e6b28f8ee2,2021-07-29_21h54.54.136,Simcolourproject_2stim_asymm_v5,2020.2.10,Win32,60,61025ae37ef11b136ea224fe,,,,,,,,,2940,52,110,1,0,0,response1disk,,7,18,16,1,0,0,rectangle,18,16,1,0,0,18,16,1,0,0,1,85,245,67,1,,,,,,,,
,,,,,,,,,,,,,FF,,,,,,,,0.3496,,,,,,,,,,,,,,,,,,,,,,5ff3e48f937861584630e5a2,610369d986f319e6b28f8ee2,2021-07-29_21h54.54.136,Simcolourproject_2stim_asymm_v5,2020.2.10,Win32,60,61025ae37ef11b136ea224fe,,,,,,,,,3050,-34,91,1,0,0,response7disk,,0,-7,10,1,0,0,rectangle,-7,10,1,0,0,-7,10,1,0,0,1,86,246,9,1,,,,,,,,
,,,,,,,,,,,,,FF,,,,,,,,0.4666,,,,,,,,,,,,,,,,,,,,,,5ff3e48f937861584630e5a2,610369d986f319e6b28f8ee2,2021-07-29_21h54.54.136,Simcolourproject_2stim_asymm_v5,2020.2.10,Win32,60,61025ae37ef11b136ea224fe,,,,,,,,,3817,-54,80,1,0,0,response7disk,,0,8,6,1,0,0,rectangle,8,6,1,0,0,8,6,1,0,0,1,87,247,97,1,,,,,,,,
,,,,,,,,,,,,,FF,,,,,,,,0.3323,,,,,,,,,,,,,,,,,,,,,,5ff3e48f937861584630e5a2,610369d986f319e6b28f8ee2,2021-07-29_21h54.54.136,Simcolourproject_2stim_asymm_v5,2020.2.10,Win32,60,61025ae37ef11b136ea224fe,,,,,,,,,270,-41,90,1,0,0,response7disk,,0,7,5,1,0,0,rectangle,-59,-128,1,0,0,-1,7,1,0,0,1,88,248,11,1,,response5disk_3,TRUE,3,3,"[71,315,14,257,290,170,293,82,269,199,115,290,315,169,55,249,121,320,123,225]",1.3661,rectangle
,,,,,,,,,,,,,FF,,,,,,,,0.349,,,,,,,,,,,,,,,,,,,,,,5ff3e48f937861584630e5a2,610369d986f319e6b28f8ee2,2021-07-29_21h54.54.136,Simcolourproject_2stim_asymm_v5,2020.2.10,Win32,60,61025ae37ef11b136ea224fe,,,,,,,,,1547,-46,81,1,0,0,response7disk,,0,7,-12,1,0,0,rectangle,7,-12,1,0,0,7,-12,1,0,0,1,89,249,94,1,,,,,,,,
,,,,,,,,,,,,,FF,,,,,,,,0.3495,,,,,,,,,,,,,,,,,,,,,,5ff3e48f937861584630e5a2,610369d986f319e6b28f8ee2,2021-07-29_21h54.54.136,Simcolourproject_2stim_asymm_v5,2020.2.10,Win32,60,61025ae37ef11b136ea224fe,,,,,,,,,363,-28,59,1,0,0,response7disk,,0,0,-3,1,0,0,rectangle,0,-3,1,0,0,0,-3,1,0,0,1,90,250,24,1,,,,,,,,
,,,,,,,,,,,,,FF,,,,,,,,0.3323,,,,,,,,,,,,,,,,,,,,,,5ff3e48f937861584630e5a2,610369d986f319e6b28f8ee2,2021-07-29_21h54.54.136,Simcolourproject_2stim_asymm_v5,2020.2.10,Win32,60,61025ae37ef11b136ea224fe,,,,,,,,,3654,-40,78,1,0,0,response7disk,,0,-12,-15,1,0,0,rectangle,-12,-15,1,0,0,-12,-15,1,0,0,1,91,251,58,1,,,,,,,,
,,,,,,,,,,,,,FF,,,,,,,,0.3339,,,,,,,,,,,,,,,,,,,,,,5ff3e48f937861584630e5a2,610369d986f319e6b28f8ee2,2021-07-29_21h54.54.136,Simcolourproject_2stim_asymm_v5,2020.2.10,Win32,60,61025ae37ef11b136ea224fe,,,,,,,,,2373,-53,94,1,0,0,response7disk,,0,-23,3,1,0,0,rectangle,-23,3,1,0,0,-23,3,1,0,0,1,92,252,103,1,,,,,,,,
,,,,,,,,,,,,,FF,,,,,,,,0.3326,,,,,,,,,,,,,,,,,,,,,,5ff3e48f937861584630e5a2,610369d986f319e6b28f8ee2,2021-07-29_21h54.54.136,Simcolourproject_2stim_asymm_v5,2020.2.10,Win32,60,61025ae37ef11b136ea224fe,,,,,,,,,134,-34,73,1,0,0,response7disk,,0,-8,9,1,0,0,rectangle,-8,9,1,0,0,-8,9,1,0,0,1,93,253,5,1,,,,,,,,
,,,,,,,,,,,,,FF,,,,,,,,0.2499,,,,,,,,,,,,,,,,,,,,,,5ff3e48f937861584630e5a2,610369d986f319e6b28f8ee2,2021-07-29_21h54.54.136,Simcolourproject_2stim_asymm_v5,2020.2.10,Win32,60,61025ae37ef11b136ea224fe,,,,,,,,,1923,-49,77,1,0,0,response7disk,,0,-4,3,1,0,0,rectangle,-4,3,1,0,0,-4,3,1,0,0,1,94,254,100,1,,,,,,,,
,,,,,,,,,,,,,FF,,,,,,,,0.2491,,,,,,,,,,,,,,,,,,,,,,5ff3e48f937861584630e5a2,610369d986f319e6b28f8ee2,2021-07-29_21h54.54.136,Simcolourproject_2stim_asymm_v5,2020.2.10,Win32,60,61025ae37ef11b136ea224fe,,,,,,,,,45,-33,57,1,0,0,response7disk,,0,-2,-9,1,0,0,rectangle,-2,-9,1,0,0,-2,-9,1,0,0,1,95,255,77,1,,,,,,,,
,,,,,,,,,,,,,FF,,,,,,,,1.2325,,,,,,,,,,,,,,,,,,,,,,5ff3e48f937861584630e5a2,610369d986f319e6b28f8ee2,2021-07-29_21h54.54.136,Simcolourproject_2stim_asymm_v5,2020.2.10,Win32,60,61025ae37ef11b136ea224fe,,,,,,,,,2047,-28,-85,1,0,0,response5disk,,3,-14,-12,1,0,0,rectangle,47,119,1,0,0,24,9,1,0,0,1,96,256,47,1,,response1disk_3,TRUE,7,7,"[71,315,14,257,290,170,293,82,269,199,115,290,315,169,55,249,121,320,123,225]",1.2991,rectangle
,,,,,,,,,,,,,FF,,,,,,,,0.669,,,,,,,,,,,,,,,,,,,,,,5ff3e48f937861584630e5a2,610369d986f319e6b28f8ee2,2021-07-29_21h54.54.136,Simcolourproject_2stim_asymm_v5,2020.2.10,Win32,60,61025ae37ef11b136ea224fe,,,,,,,,,818,-32,80,1,0,0,response7disk,,0,3,8,1,0,0,rectangle,3,8,1,0,0,3,8,1,0,0,1,97,257,138,1,,,,,,,,
,,,,,,,,,,,,,FF,,,,,,,,0.4333,,,,,,,,,,,,,,,,,,,,,,5ff3e48f937861584630e5a2,610369d986f319e6b28f8ee2,2021-07-29_21h54.54.136,Simcolourproject_2stim_asymm_v5,2020.2.10,Win32,60,61025ae37ef11b136ea224fe,,,,,,,,,4075,-26,59,1,0,0,response7disk,,0,-3,2,1,0,0,rectangle,-3,2,1,0,0,-3,2,1,0,0,1,98,258,78,1,,,,,,,,
,,,,,,,,,,,,,FF,,,,,,,,0.3488,,,,,,,,,,,,,,,,,,,,,,5ff3e48f937861584630e5a2,610369d986f319e6b28f8ee2,2021-07-29_21h54.54.136,Simcolourproject_2stim_asymm_v5,2020.2.10,Win32,60,61025ae37ef11b136ea224fe,,,,,,,,,2177,-26,56,1,0,0,response7disk,,0,-10,8,1,0,0,rectangle,-10,8,1,0,0,-10,8,1,0,0,1,99,259,60,1,,,,,,,,
,,,,,,,,,,,,,FF,,,,,,,,0.3326,,,,,,,,,,,,,,,,,,,,,,5ff3e48f937861584630e5a2,610369d986f319e6b28f8ee2,2021-07-29_21h54.54.136,Simcolourproject_2stim_asymm_v5,2020.2.10,Win32,60,61025ae37ef11b136ea224fe,,,,,,,,,914,-44,86,1,0,0,response7disk,,0,-17,19,1,0,0,rectangle,-17,19,1,0,0,-17,19,1,0,0,1,100,260,112,1,,,,,,,,
,,,,,,,,,,,,,FF,,,,,,,,0.3338,,,,,,,,,,,,,,,,,,,,,,5ff3e48f937861584630e5a2,610369d986f319e6b28f8ee2,2021-07-29_21h54.54.136,Simcolourproject_2stim_asymm_v5,2020.2.10,Win32,60,61025ae37ef11b136ea224fe,,,,,,,,,746,-42,70,1,0,0,response7disk,,0,3,0,1,0,0,rectangle,3,0,1,0,0,3,0,1,0,0,1,101,261,53,1,,,,,,,,
,,,,,,,,,,,,,FF,,,,,,,,0.2834,,,,,,,,,,,,,,,,,,,,,,5ff3e48f937861584630e5a2,610369d986f319e6b28f8ee2,2021-07-29_21h54.54.136,Simcolourproject_2stim_asymm_v5,2020.2.10,Win32,60,61025ae37ef11b136ea224fe,,,,,,,,,590,-30,85,1,0,0,response7disk,,0,15,-1,1,0,0,rectangle,15,-1,1,0,0,15,-1,1,0,0,1,102,262,153,1,,,,,,,,
,,,,,,,,,,,,,FF,,,,,,,,0.2824,,,,,,,,,,,,,,,,,,,,,,5ff3e48f937861584630e5a2,610369d986f319e6b28f8ee2,2021-07-29_21h54.54.136,Simcolourproject_2stim_asymm_v5,2020.2.10,Win32,60,61025ae37ef11b136ea224fe,,,,,,,,,3641,-35,74,1,0,0,response7disk,,0,13,-4,1,0,0,rectangle,13,-4,1,0,0,13,-4,1,0,0,1,103,263,19,1,,,,,,,,
,,,,,,,,,,,,,FF,,,,,,,,0.7826,,,,,,,,,,,,,,,,,,,,,,5ff3e48f937861584630e5a2,610369d986f319e6b28f8ee2,2021-07-29_21h54.54.136,Simcolourproject_2stim_asymm_v5,2020.2.10,Win32,60,61025ae37ef11b136ea224fe,,,,,,,,,1816,52,96,1,0,0,response1disk,,7,6,-3,1,0,0,rectangle,6,-3,1,0,0,6,-3,1,0,0,1,104,264,91,1,,,,,,,,
,,,,,,,,,,,,,FF,,,,,,,,0.3168,,,,,,,,,,,,,,,,,,,,,,5ff3e48f937861584630e5a2,610369d986f319e6b28f8ee2,2021-07-29_21h54.54.136,Simcolourproject_2stim_asymm_v5,2020.2.10,Win32,60,61025ae37ef11b136ea224fe,,,,,,,,,2199,-46,87,1,0,0,response7disk,,0,-9,-2,1,0,0,rectangle,-9,-2,1,0,0,-9,-2,1,0,0,1,105,265,154,1,,,,,,,,
,,,,,,,,,,,,,FF,,,,,,,,0.3499,,,,,,,,,,,,,,,,,,,,,,5ff3e48f937861584630e5a2,610369d986f319e6b28f8ee2,2021-07-29_21h54.54.136,Simcolourproject_2stim_asymm_v5,2020.2.10,Win32,60,61025ae37ef11b136ea224fe,,,,,,,,,3931,-39,71,1,0,0,response7disk,,0,-12,8,1,0,0,rectangle,-12,8,1,0,0,-12,8,1,0,0,1,106,266,13,1,,,,,,,,
,,,,,,,,,,,,,FF,,,,,,,,0.2664,,,,,,,,,,,,,,,,,,,,,,5ff3e48f937861584630e5a2,610369d986f319e6b28f8ee2,2021-07-29_21h54.54.136,Simcolourproject_2stim_asymm_v5,2020.2.10,Win32,60,61025ae37ef11b136ea224fe,,,,,,,,,857,-27,53,1,0,0,response7disk,,0,-1,-16,1,0,0,rectangle,-1,-16,1,0,0,-1,-16,1,0,0,1,107,267,116,1,,,,,,,,
,,,,,,,,,,,,,FF,,,,,,,,0.2162,,,,,,,,,,,,,,,,,,,,,,5ff3e48f937861584630e5a2,610369d986f319e6b28f8ee2,2021-07-29_21h54.54.136,Simcolourproject_2stim_asymm_v5,2020.2.10,Win32,60,61025ae37ef11b136ea224fe,,,,,,,,,583,-44,86,1,0,0,response7disk,,0,-7,15,1,0,0,rectangle,-66,-110,1,0,0,1,12,1,0,0,1,108,268,149,1,,response5disk_3,TRUE,3,3,"[71,315,14,257,290,170,293,82,269,199,115,290,315,169,55,249,121,320,123,225]",1.4828,rectangle
,,,,,,,,,,,,,FF,,,,,,,,0.299,,,,,,,,,,,,,,,,,,,,,,5ff3e48f937861584630e5a2,610369d986f319e6b28f8ee2,2021-07-29_21h54.54.136,Simcolourproject_2stim_asymm_v5,2020.2.10,Win32,60,61025ae37ef11b136ea224fe,,,,,,,,,1030,-28,81,1,0,0,response7disk,,0,2,9,1,0,0,rectangle,2,9,1,0,0,2,9,1,0,0,1,109,269,92,1,,,,,,,,
,,,,,,,,,,,,,FF,,,,,,,,0.9496,,,,,,,,,,,,,,,,,,,,,,5ff3e48f937861584630e5a2,610369d986f319e6b28f8ee2,2021-07-29_21h54.54.136,Simcolourproject_2stim_asymm_v5,2020.2.10,Win32,60,61025ae37ef11b136ea224fe,,,,,,,,,73,78,38,1,0,0,response1disk,,6,23,1,1,0,0,rectangle,23,1,1,0,0,23,1,1,0,0,1,110,270,42,1,,,,,,,,
,,,,,,,,,,,,,FF,,,,,,,,0.4328,,,,,,,,,,,,,,,,,,,,,,5ff3e48f937861584630e5a2,610369d986f319e6b28f8ee2,2021-07-29_21h54.54.136,Simcolourproject_2stim_asymm_v5,2020.2.10,Win32,60,61025ae37ef11b136ea224fe,,,,,,,,,79,53,95,1,0,0,response1disk,,7,5,6,1,0,0,rectangle,5,6,1,0,0,5,6,1,0,0,1,111,271,30,1,,,,,,,,
,,,,,,,,,,,,,FF,,,,,,,,0.233,,,,,,,,,,,,,,,,,,,,,,5ff3e48f937861584630e5a2,610369d986f319e6b28f8ee2,2021-07-29_21h54.54.136,Simcolourproject_2stim_asymm_v5,2020.2.10,Win32,60,61025ae37ef11b136ea224fe,,,,,,,,,600,-28,75,1,0,0,response7disk,,0,-1,9,1,0,0,rectangle,-1,9,1,0,0,-1,9,1,0,0,1,112,272,108,1,,,,,,,,
,,,,,,,,,,,,,FF,,,,,,,,0.3333,,,,,,,,,,,,,,,,,,,,,,5ff3e48f937861584630e5a2,610369d986f319e6b28f8ee2,2021-07-29_21h54.54.136,Simcolourproject_2stim_asymm_v5,2020.2.10,Win32,60,61025ae37ef11b136ea224fe,,,,,,,,,2366,-24,75,1,0,0,response7disk,,0,-23,-2,1,0,0,rectangle,-23,-2,1,0,0,-23,-2,1,0,0,1,113,273,82,1,,,,,,,,
,,,,,,,,,,,,,FF,,,,,,,,0.4,,,,,,,,,,,,,,,,,,,,,,5ff3e48f937861584630e5a2,610369d986f319e6b28f8ee2,2021-07-29_21h54.54.136,Simcolourproject_2stim_asymm_v5,2020.2.10,Win32,60,61025ae37ef11b136ea224fe,,,,,,,,,2321,-35,62,1,0,0,response7disk,,0,2,-4,1,0,0,rectangle,2,-4,1,0,0,2,-4,1,0,0,1,114,274,145,1,,,,,,,,
,,,,,,,,,,,,,FF,,,,,,,,3.0147,,,,,,,,,,,,,,,,,,,,,,5ff3e48f937861584630e5a2,610369d986f319e6b28f8ee2,2021-07-29_21h54.54.136,Simcolourproject_2stim_asymm_v5,2020.2.10,Win32,60,61025ae37ef11b136ea224fe,,,,,,,,,641,-37,88,1,0,0,response7disk,,0,1,1,1,0,0,rectangle,1,1,1,0,0,1,1,1,0,0,1,115,275,72,1,,,,,,,,
,,,,,,,,,,,,,FF,,,,,,,,0.3657,,,,,,,,,,,,,,,,,,,,,,5ff3e48f937861584630e5a2,610369d986f319e6b28f8ee2,2021-07-29_21h54.54.136,Simcolourproject_2stim_asymm_v5,2020.2.10,Win32,60,61025ae37ef11b136ea224fe,,,,,,,,,2388,-24,72,1,0,0,response7disk,,0,-10,12,1,0,0,rectangle,-10,12,1,0,0,-10,12,1,0,0,1,116,276,26,1,,,,,,,,
,,,,,,,,,,,,,FF,,,,,,,,0.8492,,,,,,,,,,,,,,,,,,,,,,5ff3e48f937861584630e5a2,610369d986f319e6b28f8ee2,2021-07-29_21h54.54.136,Simcolourproject_2stim_asymm_v5,2020.2.10,Win32,60,61025ae37ef11b136ea224fe,,,,,,,,,74,35,-73,1,0,0,response3disk,,4,4,-14,1,0,0,rectangle,4,-14,1,0,0,4,-14,1,0,0,1,117,277,15,1,,,,,,,,
,,,,,,,,,,,,,FF,,,,,,,,0.816,,,,,,,,,,,,,,,,,,,,,,5ff3e48f937861584630e5a2,610369d986f319e6b28f8ee2,2021-07-29_21h54.54.136,Simcolourproject_2stim_asymm_v5,2020.2.10,Win32,60,61025ae37ef11b136ea224fe,,,,,,,,,3200,-55,-81,1,0,0,response5disk,,3,-2,-3,1,0,0,rectangle,-2,-3,1,0,0,-2,-3,1,0,0,1,118,278,118,1,,,,,,,,
,,,,,,,,,,,,,FF,,,,,,,,0.3828,,,,,,,,,,,,,,,,,,,,,,5ff3e48f937861584630e5a2,610369d986f319e6b28f8ee2,2021-07-29_21h54.54.136,Simcolourproject_2stim_asymm_v5,2020.2.10,Win32,60,61025ae37ef11b136ea224fe,,,,,,,,,3624,-46,85,1,0,0,response7disk,,0,-13,16,1,0,0,rectangle,-13,16,1,0,0,-13,16,1,0,0,1,119,279,41,1,,,,,,,,
,,,,,,,,,,,,,FF,,,,,,,,0.5324,,,,,,,,,,,,,,,,,,,,,,5ff3e48f937861584630e5a2,610369d986f319e6b28f8ee2,2021-07-29_21h54.54.136,Simcolourproject_2stim_asymm_v5,2020.2.10,Win32,60,61025ae37ef11b136ea224fe,,,,,,,,,3283,-33,67,1,0,0,response7disk,,0,-7,6,1,0,0,rectangle,-7,6,1,0,0,-7,6,1,0,0,1,120,280,136,1,,,,,,,,
,,,,,,,,,,,,,FF,,,,,,,,0.4335,,,,,,,,,,,,,,,,,,,,,,5ff3e48f937861584630e5a2,610369d986f319e6b28f8ee2,2021-07-29_21h54.54.136,Simcolourproject_2stim_asymm_v5,2020.2.10,Win32,60,61025ae37ef11b136ea224fe,,,,,,,,,1400,-29,74,1,0,0,response7disk,,0,-13,2,1,0,0,rectangle,-13,2,1,0,0,-13,2,1,0,0,1,121,281,28,1,,,,,,,,
,,,,,,,,,,,,,FF,,,,,,,,0.3993,,,,,,,,,,,,,,,,,,,,,,5ff3e48f937861584630e5a2,610369d986f319e6b28f8ee2,2021-07-29_21h54.54.136,Simcolourproject_2stim_asymm_v5,2020.2.10,Win32,60,61025ae37ef11b136ea224fe,,,,,,,,,1185,-32,75,1,0,0,response7disk,,0,-2,-3,1,0,0,rectangle,-2,-3,1,0,0,-2,-3,1,0,0,1,122,282,89,1,,,,,,,,
,,,,,,,,,,,,,FF,,,,,,,,0.2833,,,,,,,,,,,,,,,,,,,,,,5ff3e48f937861584630e5a2,610369d986f319e6b28f8ee2,2021-07-29_21h54.54.136,Simcolourproject_2stim_asymm_v5,2020.2.10,Win32,60,61025ae37ef11b136ea224fe,,,,,,,,,2875,-38,79,1,0,0,response7disk,,0,-12,16,1,0,0,rectangle,-12,16,1,0,0,-12,16,1,0,0,1,123,283,44,1,,,,,,,,
,,,,,,,,,,,,,FF,,,,,,,,0.1007,,,,,,,,,,,,,,,,,,,,,,5ff3e48f937861584630e5a2,610369d986f319e6b28f8ee2,2021-07-29_21h54.54.136,Simcolourproject_2stim_asymm_v5,2020.2.10,Win32,60,61025ae37ef11b136ea224fe,,,,,,,,,1355,-45,106,1,0,0,response7disk,,0,0,5,1,0,0,rectangle,0,5,1,0,0,0,5,1,0,0,1,124,284,25,1,,,,,,,,
,,,,,,,,,,,,,FF,,,,,,,,0.5166,,,,,,,,,,,,,,,,,,,,,,5ff3e48f937861584630e5a2,610369d986f319e6b28f8ee2,2021-07-29_21h54.54.136,Simcolourproject_2stim_asymm_v5,2020.2.10,Win32,60,61025ae37ef11b136ea224fe,,,,,,,,,1536,-31,74,1,0,0,response7disk,,0,-14,2,1,0,0,rectangle,-14,2,1,0,0,-14,2,1,0,0,1,125,285,37,1,,,,,,,,
,,,,,,,,,,,,,FF,,,,,,,,0.3337,,,,,,,,,,,,,,,,,,,,,,5ff3e48f937861584630e5a2,610369d986f319e6b28f8ee2,2021-07-29_21h54.54.136,Simcolourproject_2stim_asymm_v5,2020.2.10,Win32,60,61025ae37ef11b136ea224fe,,,,,,,,,774,-38,71,1,0,0,response7disk,,0,8,11,1,0,0,rectangle,8,11,1,0,0,8,11,1,0,0,1,126,286,48,1,,,,,,,,
,,,,,,,,,,,,,FF,,,,,,,,0.6658,,,,,,,,,,,,,,,,,,,,,,5ff3e48f937861584630e5a2,610369d986f319e6b28f8ee2,2021-07-29_21h54.54.136,Simcolourproject_2stim_asymm_v5,2020.2.10,Win32,60,61025ae37ef11b136ea224fe,,,,,,,,,3170,-38,79,1,0,0,response7disk,,0,10,13,1,0,0,rectangle,10,13,1,0,0,10,13,1,0,0,1,127,287,114,1,,,,,,,,
,,,,,,,,,,,,,FF,,,,,,,,0.1996,,,,,,,,,,,,,,,,,,,,,,5ff3e48f937861584630e5a2,610369d986f319e6b28f8ee2,2021-07-29_21h54.54.136,Simcolourproject_2stim_asymm_v5,2020.2.10,Win32,60,61025ae37ef11b136ea224fe,,,,,,,,,682,-28,85,1,0,0,response7disk,,0,-1,14,1,0,0,rectangle,-1,14,1,0,0,-1,14,1,0,0,1,128,288,0,1,,,,,,,,
,,,,,,,,,,,,,FF,,,,,,,,0.2496,,,,,,,,,,,,,,,,,,,,,,5ff3e48f937861584630e5a2,610369d986f319e6b28f8ee2,2021-07-29_21h54.54.136,Simcolourproject_2stim_asymm_v5,2020.2.10,Win32,60,61025ae37ef11b136ea224fe,,,,,,,,,2269,-28,81,1,0,0,response7disk,,0,-2,11,1,0,0,rectangle,25,-88,1,0,0,5,0,1,0,0,1,129,289,4,1,,response3disk_3,TRUE,4,4,"[71,315,14,257,290,170,293,82,269,199,115,290,315,169,55,249,121,320,123,225]",1.5318,rectangle
,,,,,,,,,,,,,FF,,,,,,,,0.4992,,,,,,,,,,,,,,,,,,,,,,5ff3e48f937861584630e5a2,610369d986f319e6b28f8ee2,2021-07-29_21h54.54.136,Simcolourproject_2stim_asymm_v5,2020.2.10,Win32,60,61025ae37ef11b136ea224fe,,,,,,,,,4317,-47,95,1,0,0,response7disk,,0,-6,2,1,0,0,rectangle,-6,2,1,0,0,-6,2,1,0,0,1,130,290,87,1,,,,,,,,
,,,,,,,,,,,,,FF,,,,,,,,0.6998,,,,,,,,,,,,,,,,,,,,,,5ff3e48f937861584630e5a2,610369d986f319e6b28f8ee2,2021-07-29_21h54.54.136,Simcolourproject_2stim_asymm_v5,2020.2.10,Win32,60,61025ae37ef11b136ea224fe,,,,,,,,,367,51,111,1,0,0,response1disk,,7,-1,9,1,0,0,rectangle,-1,9,1,0,0,-1,9,1,0,0,1,131,291,17,1,,,,,,,,
,,,,,,,,,,,,,FF,,,,,,,,0.2496,,,,,,,,,,,,,,,,,,,,,,5ff3e48f937861584630e5a2,610369d986f319e6b28f8ee2,2021-07-29_21h54.54.136,Simcolourproject_2stim_asymm_v5,2020.2.10,Win32,60,61025ae37ef11b136ea224fe,,,,,,,,,1594,-35,72,1,0,0,response7disk,,0,0,-4,1,0,0,rectangle,47,-118,1,0,0,-10,13,1,0,0,1,132,292,16,1,,response3disk_3,TRUE,4,4,"[71,315,14,257,290,170,293,82,269,199,115,290,315,169,55,249,121,320,123,225]",1.2647,rectangle
,,,,,,,,,,,,,FF,,,,,,,,0.3666,,,,,,,,,,,,,,,,,,,,,,5ff3e48f937861584630e5a2,610369d986f319e6b28f8ee2,2021-07-29_21h54.54.136,Simcolourproject_2stim_asymm_v5,2020.2.10,Win32,60,61025ae37ef11b136ea224fe,,,,,,,,,2456,-47,95,1,0,0,response7disk,,0,-1,-8,1,0,0,rectangle,-1,-8,1,0,0,-1,-8,1,0,0,1,133,293,39,1,,,,,,,,
,,,,,,,,,,,,,FF,,,,,,,,0.3836,,,,,,,,,,,,,,,,,,,,,,5ff3e48f937861584630e5a2,610369d986f319e6b28f8ee2,2021-07-29_21h54.54.136,Simcolourproject_2stim_asymm_v5,2020.2.10,Win32,60,61025ae37ef11b136ea224fe,,,,,,,,,674,-29,78,1,0,0,response7disk,,0,2,-1,1,0,0,rectangle,2,-1,1,0,0,2,-1,1,0,0,1,134,294,127,1,,,,,,,,
,,,,,,,,,,,,,FF,,,,,,,,0.333,,,,,,,,,,,,,,,,,,,,,,5ff3e48f937861584630e5a2,610369d986f319e6b28f8ee2,2021-07-29_21h54.54.136,Simcolourproject_2stim_asymm_v5,2020.2.10,Win32,60,61025ae37ef11b136ea224fe,,,,,,,,,3915,-50,106,1,0,0,response7disk,,0,11,-13,1,0,0,rectangle,11,-13,1,0,0,11,-13,1,0,0,1,135,295,84,1,,,,,,,,
,,,,,,,,,,,,,FF,,,,,,,,0.7655,,,,,,,,,,,,,,,,,,,,,,5ff3e48f937861584630e5a2,610369d986f319e6b28f8ee2,2021-07-29_21h54.54.136,Simcolourproject_2stim_asymm_v5,2020.2.10,Win32,60,61025ae37ef11b136ea224fe,,,,,,,,,4238,91,49,1,0,0,response1disk,,6,-8,10,1,0,0,rectangle,-8,10,1,0,0,-8,10,1,0,0,1,136,296,88,1,,,,,,,,
,,,,,,,,,,,,,FF,,,,,,,,0.6333,,,,,,,,,,,,,,,,,,,,,,5ff3e48f937861584630e5a2,610369d986f319e6b28f8ee2,2021-07-29_21h54.54.136,Simcolourproject_2stim_asymm_v5,2020.2.10,Win32,60,61025ae37ef11b136ea224fe,,,,,,,,,1893,105,57,1,0,0,response1disk,,6,31,10,1,0,0,rectangle,31,10,1,0,0,31,10,1,0,0,1,137,297,10,1,,,,,,,,
,,,,,,,,,,,,,FF,,,,,,,,0.3502,,,,,,,,,,,,,,,,,,,,,,5ff3e48f937861584630e5a2,610369d986f319e6b28f8ee2,2021-07-29_21h54.54.136,Simcolourproject_2stim_asymm_v5,2020.2.10,Win32,60,61025ae37ef11b136ea224fe,,,,,,,,,1018,-67,105,1,0,0,response7disk,,0,0,20,1,0,0,rectangle,0,20,1,0,0,0,20,1,0,0,1,138,298,137,1,,,,,,,,
,,,,,,,,,,,,,FF,,,,,,,,0.2832,,,,,,,,,,,,,,,,,,,,,,5ff3e48f937861584630e5a2,610369d986f319e6b28f8ee2,2021-07-29_21h54.54.136,Simcolourproject_2stim_asymm_v5,2020.2.10,Win32,60,61025ae37ef11b136ea224fe,,,,,,,,,2981,-26,60,1,0,0,response7disk,,0,14,-6,1,0,0,rectangle,14,-6,1,0,0,14,-6,1,0,0,1,139,299,105,1,,,,,,,,
,,,,,,,,,,,,,FF,,,,,,,,0.3993,,,,,,,,,,,,,,,,,,,,,,5ff3e48f937861584630e5a2,610369d986f319e6b28f8ee2,2021-07-29_21h54.54.136,Simcolourproject_2stim_asymm_v5,2020.2.10,Win32,60,61025ae37ef11b136ea224fe,,,,,,,,,294,-42,87,1,0,0,response7disk,,0,12,2,1,0,0,rectangle,12,2,1,0,0,12,2,1,0,0,1,140,300,32,1,,,,,,,,
,,,,,,,,,,,,,FF,,,,,,,,0.2827,,,,,,,,,,,,,,,,,,,,,,5ff3e48f937861584630e5a2,610369d986f319e6b28f8ee2,2021-07-29_21h54.54.136,Simcolourproject_2stim_asymm_v5,2020.2.10,Win32,60,61025ae37ef11b136ea224fe,,,,,,,,,628,-45,74,1,0,0,response7disk,,0,3,4,1,0,0,rectangle,3,4,1,0,0,3,4,1,0,0,1,141,301,134,1,,,,,,,,
,,,,,,,,,,,,,FF,,,,,,,,0.316,,,,,,,,,,,,,,,,,,,,,,5ff3e48f937861584630e5a2,610369d986f319e6b28f8ee2,2021-07-29_21h54.54.136,Simcolourproject_2stim_asymm_v5,2020.2.10,Win32,60,61025ae37ef11b136ea224fe,,,,,,,,,2748,-35,80,1,0,0,response7disk,,0,11,-5,1,0,0,rectangle,11,-5,1,0,0,11,-5,1,0,0,1,142,302,45,1,,,,,,,,
