key_resp.keys,key_resp.rt,key_resp_14.keys,key_resp_14.rt,key_resp_15.keys,key_resp_15.rt,key_resp_17.keys,key_resp_17.rt,key_resp_9.keys,key_resp_9.rt,key_resp_10.keys,key_resp_10.rt,practice_comparison,Ecc,mouse_5.x,mouse_5.y,mouse_5.leftButton,mouse_5.midButton,mouse_5.rightButton,mouse_5.clicked_name,pracsimilarity,response_time,mouse_10.x,mouse_10.y,mouse_10.leftButton,mouse_10.midButton,mouse_10.rightButton,mouse_10.clicked_name,mouse_7.x,mouse_7.y,mouse_7.leftButton,mouse_7.midButton,mouse_7.rightButton,mouse_6.x,mouse_6.y,mouse_6.leftButton,mouse_6.midButton,mouse_6.rightButton,duringprac.thisRepN,duringprac.thisTrialN,duringprac.thisN,duringprac.thisIndex,duringprac.ran,participant,session,date,expName,psychopyVersion,OS,frameRate,study_id,mouse_7.clicked_name,catchpracsimilarity,catch_response_time,catchnumberprac,catchtrialorderprac,mouse_6.clicked_name,key_resp_22.keys,key_resp_22.rt,realcomparison,mouse.x,mouse.y,mouse.leftButton,mouse.midButton,mouse.rightButton,mouse.clicked_name,Colour2,similarity,mouse_2.x,mouse_2.y,mouse_2.leftButton,mouse_2.midButton,mouse_2.rightButton,mouse_2.clicked_name,mouse_3.x,mouse_3.y,mouse_3.leftButton,mouse_3.midButton,mouse_3.rightButton,mouse_11.x,mouse_11.y,mouse_11.leftButton,mouse_11.midButton,mouse_11.rightButton,trials_2.thisRepN,trials_2.thisTrialN,trials_2.thisN,trials_2.thisIndex,trials_2.ran,Colour1,mouse_3.clicked_name,catchornah,catchsimilarity,catchnumber,catchtrialorder,catchRT,mouse_11.clicked_name
space,1.1775,space,23.9826,space,5.7281,space,4.8633,space,3.2112,space,3.7814,46,PF,33.60006077,83.19997039,1,0,0,response1disk_5,7,11.8591,-8.799988687,0.799993575,1,0,0,rectangle_8,-8.799988687,0.799993575,1,0,0,-8.799988687,0.799993575,1,0,0,0,0,0,1,1,605f064127eec9cb4494b4d9,61036acc047d57234b058b71,2021-07-30_03h59.08.100,Simcolourproject_2stim_asymm_v5,2020.2.10,Win32,60,61025ae37ef11b136ea224fe,,,,,,,,,,,,,,,,,,,,,,,,,,,,,,,,,,,,,,,,,,,,,,
,,,,,,,,,,,,156,FF,-33.59998906,-115.2000082,1,0,0,response5disk_5,3,4.8398,0.800011456,2.399993598,1,0,0,rectangle_8,100.8000129,54.39999437,1,0,0,8.000011563,-9.60000658,1,0,0,0,1,1,3,1,605f064127eec9cb4494b4d9,61036acc047d57234b058b71,2021-07-30_03h59.08.100,Simcolourproject_2stim_asymm_v5,2020.2.10,Win32,60,61025ae37ef11b136ea224fe,response1disk_7,6,2.8955,6,"[2,5]",rectangle_4,,,,,,,,,,,,,,,,,,,,,,,,,,,,,,,,,,,,,,,,
,,,,,,,,,,,,0,FF,59.20001233,115.9999953,1,0,0,response1disk_5,7,3.6387,-11.19998872,1.599993587,1,0,0,rectangle_8,-11.19998872,1.599993587,1,0,0,-11.19998872,1.599993587,1,0,0,0,2,2,0,1,605f064127eec9cb4494b4d9,61036acc047d57234b058b71,2021-07-30_03h59.08.100,Simcolourproject_2stim_asymm_v5,2020.2.10,Win32,60,61025ae37ef11b136ea224fe,,,,,,,,,,,,,,,,,,,,,,,,,,,,,,,,,,,,,,,,,,,,,,
,,,,,,,,,,,,9,PF,-94.39994113,-56.00000727,1,0,0,response5disk_5,2,2.0206,-12.79998875,9.599993706,1,0,0,rectangle_8,-12.79998875,9.599993706,1,0,0,-12.79998875,9.599993706,1,0,0,0,3,3,4,1,605f064127eec9cb4494b4d9,61036acc047d57234b058b71,2021-07-30_03h59.08.100,Simcolourproject_2stim_asymm_v5,2020.2.10,Win32,60,61025ae37ef11b136ea224fe,,,,,,,,,,,,,,,,,,,,,,,,,,,,,,,,,,,,,,,,,,,,,,
,,,,,,,,,,,,2,PF,88.00001276,-39.20000702,1,0,0,response3disk_5,5,1.5693,10.4000116,-10.40000659,1,0,0,rectangle_8,103.200013,29.599994,1,0,0,-4.799988627,-6.400006533,1,0,0,0,4,4,2,1,605f064127eec9cb4494b4d9,61036acc047d57234b058b71,2021-07-30_03h59.08.100,Simcolourproject_2stim_asymm_v5,2020.2.10,Win32,60,61025ae37ef11b136ea224fe,response1disk_7,6,2.0068,6,"[2,5]",rectangle_4,,,,,,,,,,,,,,,,,,,,,,,,,,,,,,,,,,,,,,,,
,,,,,,,,,,,,154,FF,53.60001224,-82.40000767,1,0,0,response3disk_5,4,2.7769,13.60006047,-7.200006545,1,0,0,rectangle_8,13.60006047,-7.200006545,1,0,0,13.60006047,-7.200006545,1,0,0,0,5,5,5,1,605f064127eec9cb4494b4d9,61036acc047d57234b058b71,2021-07-30_03h59.08.100,Simcolourproject_2stim_asymm_v5,2020.2.10,Win32,60,61025ae37ef11b136ea224fe,,,,,,,,,,,,,,,,,,,,,,,,,,,,,,,,,,,,,,,,,,,,,,
,,,,,,,,,,,,119,PF,-85.59998983,-56.00000727,1,0,0,response5disk_5,2,2.1727,-7.999988675,2.399993598,1,0,0,rectangle_8,-7.999988675,2.399993598,1,0,0,-7.999988675,2.399993598,1,0,0,0,6,6,6,1,605f064127eec9cb4494b4d9,61036acc047d57234b058b71,2021-07-30_03h59.08.100,Simcolourproject_2stim_asymm_v5,2020.2.10,Win32,60,61025ae37ef11b136ea224fe,,,,,,,,,,,,,,,,,,,,,,,,,,,,,,,,,,,,,,,,,,,,,,
,,,,,,,,,,,,,FF,,,,,,,,2.5209,,,,,,,,,,,,,,,,,,,,,,605f064127eec9cb4494b4d9,61036acc047d57234b058b71,2021-07-30_03h59.08.100,Simcolourproject_2stim_asymm_v5,2020.2.10,Win32,60,61025ae37ef11b136ea224fe,,,,,,,space,4.2532,3543,-51.19998932,-96.00000787,1,0,0,response5disk,,3,0.800011456,6.399993658,1,0,0,rectangle,0.800011456,6.399993658,1,0,0,0.800011456,6.399993658,1,0,0,0,0,0,104,1,,,,,,,,
,,,,,,,,,,,,,FF,,,,,,,,1.5898,,,,,,,,,,,,,,,,,,,,,,605f064127eec9cb4494b4d9,61036acc047d57234b058b71,2021-07-30_03h59.08.100,Simcolourproject_2stim_asymm_v5,2020.2.10,Win32,60,61025ae37ef11b136ea224fe,,,,,,,,,3016,57.6000123,-92.80000782,1,0,0,response3disk,,4,8.800011575,-5.600006521,1,0,0,rectangle,8.800011575,-5.600006521,1,0,0,8.800011575,-5.600006521,1,0,0,0,1,1,52,1,,,,,,,,
,,,,,,,,,,,,,FF,,,,,,,,4.2845,,,,,,,,,,,,,,,,,,,,,,605f064127eec9cb4494b4d9,61036acc047d57234b058b71,2021-07-30_03h59.08.100,Simcolourproject_2stim_asymm_v5,2020.2.10,Win32,60,61025ae37ef11b136ea224fe,,,,,,,,,20,107.200013,-41.60000706,1,0,0,response3disk,,5,9.600060415,-5.600006521,1,0,0,rectangle,9.600060415,-5.600006521,1,0,0,9.600060415,-5.600006521,1,0,0,0,2,2,120,1,,,,,,,,
,,,,,,,,,,,,,FF,,,,,,,,0.5805,,,,,,,,,,,,,,,,,,,,,,605f064127eec9cb4494b4d9,61036acc047d57234b058b71,2021-07-30_03h59.08.100,Simcolourproject_2stim_asymm_v5,2020.2.10,Win32,60,61025ae37ef11b136ea224fe,,,,,,,,,819,-69.59998959,-35.20000696,1,0,0,response5disk,,2,20.80001175,10.39999372,1,0,0,rectangle,20.80001175,10.39999372,1,0,0,20.80001175,10.39999372,1,0,0,0,3,3,13,1,,,,,,,,
,,,,,,,,,,,,,FF,,,,,,,,0.5836,,,,,,,,,,,,,,,,,,,,,,605f064127eec9cb4494b4d9,61036acc047d57234b058b71,2021-07-30_03h59.08.100,Simcolourproject_2stim_asymm_v5,2020.2.10,Win32,60,61025ae37ef11b136ea224fe,,,,,,,,,1028,36.80001199,-72.80000752,1,0,0,response3disk,,4,-11.99998873,3.999993622,1,0,0,rectangle,-11.99998873,3.999993622,1,0,0,-11.99998873,3.999993622,1,0,0,0,4,4,72,1,,,,,,,,
,,,,,,,,,,,,,FF,,,,,,,,0.8124,,,,,,,,,,,,,,,,,,,,,,605f064127eec9cb4494b4d9,61036acc047d57234b058b71,2021-07-30_03h59.08.100,Simcolourproject_2stim_asymm_v5,2020.2.10,Win32,60,61025ae37ef11b136ea224fe,,,,,,,,,3845,-75.99998969,-48.80000716,1,0,0,response5disk,,2,12.80001163,3.19999361,1,0,0,rectangle,12.80001163,3.19999361,1,0,0,12.80001163,3.19999361,1,0,0,0,5,5,111,1,,,,,,,,
,,,,,,,,,,,,,FF,,,,,,,,0.9651,,,,,,,,,,,,,,,,,,,,,,605f064127eec9cb4494b4d9,61036acc047d57234b058b71,2021-07-30_03h59.08.100,Simcolourproject_2stim_asymm_v5,2020.2.10,Win32,60,61025ae37ef11b136ea224fe,,,,,,,,,2290,-53.59998935,-78.40000761,1,0,0,response5disk,,3,-3.999988616,-8.800006568,1,0,0,rectangle,-3.999988616,-8.800006568,1,0,0,-3.999988616,-8.800006568,1,0,0,0,6,6,107,1,,,,,,,,
,,,,,,,,,,,,,FF,,,,,,,,0.9054,,,,,,,,,,,,,,,,,,,,,,605f064127eec9cb4494b4d9,61036acc047d57234b058b71,2021-07-30_03h59.08.100,Simcolourproject_2stim_asymm_v5,2020.2.10,Win32,60,61025ae37ef11b136ea224fe,,,,,,,,,4198,28.80001187,47.19996985,1,0,0,response1disk,,7,0.800011456,-4.000006497,1,0,0,rectangle,0.800011456,-4.000006497,1,0,0,0.800011456,-4.000006497,1,0,0,0,7,7,45,1,,,,,,,,
,,,,,,,,,,,,,FF,,,,,,,,0.7708,,,,,,,,,,,,,,,,,,,,,,605f064127eec9cb4494b4d9,61036acc047d57234b058b71,2021-07-30_03h59.08.100,Simcolourproject_2stim_asymm_v5,2020.2.10,Win32,60,61025ae37ef11b136ea224fe,,,,,,,,,2398,102.400013,-63.20000738,1,0,0,response3disk,,5,6.400011539,-8.000006557,1,0,0,rectangle,6.400011539,-8.000006557,1,0,0,6.400011539,-8.000006557,1,0,0,0,8,8,11,1,,,,,,,,
,,,,,,,,,,,,,FF,,,,,,,,0.9652,,,,,,,,,,,,,,,,,,,,,,605f064127eec9cb4494b4d9,61036acc047d57234b058b71,2021-07-30_03h59.08.100,Simcolourproject_2stim_asymm_v5,2020.2.10,Win32,60,61025ae37ef11b136ea224fe,,,,,,,,,3192,-81.59998977,-23.20000678,1,0,0,response5disk,,2,1.600060296,-4.000006497,1,0,0,rectangle,1.600060296,-4.000006497,1,0,0,1.600060296,-4.000006497,1,0,0,0,9,9,141,1,,,,,,,,
,,,,,,,,,,,,,FF,,,,,,,,0.8819,,,,,,,,,,,,,,,,,,,,,,605f064127eec9cb4494b4d9,61036acc047d57234b058b71,2021-07-30_03h59.08.100,Simcolourproject_2stim_asymm_v5,2020.2.10,Win32,60,61025ae37ef11b136ea224fe,,,,,,,,,215,50.4000122,-76.80000758,1,0,0,response3disk,,4,3.200011492,2.399993598,1,0,0,rectangle,89.60001278,-44.8000071,1,0,0,-19.19998884,3.19999361,1,0,0,0,10,10,102,1,,response3disk_3,TRUE,5,5,"[315,84,60,311,194,60,296,152,196,96,146,103,273,15,88,231,11,196,217,180]",1.5206,rectangle
,,,,,,,,,,,,,FF,,,,,,,,0.8682,,,,,,,,,,,,,,,,,,,,,,605f064127eec9cb4494b4d9,61036acc047d57234b058b71,2021-07-30_03h59.08.100,Simcolourproject_2stim_asymm_v5,2020.2.10,Win32,60,61025ae37ef11b136ea224fe,,,,,,,,,359,-71.19998962,-40.80000705,1,0,0,response5disk,,2,3.200011492,-11.2000066,1,0,0,rectangle,3.200011492,-11.2000066,1,0,0,3.200011492,-11.2000066,1,0,0,0,11,11,10,1,,,,,,,,
,,,,,,,,,,,,,FF,,,,,,,,1.0581,,,,,,,,,,,,,,,,,,,,,,605f064127eec9cb4494b4d9,61036acc047d57234b058b71,2021-07-30_03h59.08.100,Simcolourproject_2stim_asymm_v5,2020.2.10,Win32,60,61025ae37ef11b136ea224fe,,,,,,,,,4277,-60.79998946,-80.80000764,1,0,0,response5disk,,3,-6.399939823,-5.600006521,1,0,0,rectangle,-6.399939823,-5.600006521,1,0,0,-6.399939823,-5.600006521,1,0,0,0,12,12,40,1,,,,,,,,
,,,,,,,,,,,,,FF,,,,,,,,0.7848,,,,,,,,,,,,,,,,,,,,,,605f064127eec9cb4494b4d9,61036acc047d57234b058b71,2021-07-30_03h59.08.100,Simcolourproject_2stim_asymm_v5,2020.2.10,Win32,60,61025ae37ef11b136ea224fe,,,,,,,,,756,44.80001211,-60.80000734,1,0,0,response3disk,,4,6.400011539,-3.200006485,1,0,0,rectangle,6.400011539,-3.200006485,1,0,0,6.400011539,-3.200006485,1,0,0,0,13,13,18,1,,,,,,,,
,,,,,,,,,,,,,FF,,,,,,,,0.9094,,,,,,,,,,,,,,,,,,,,,,605f064127eec9cb4494b4d9,61036acc047d57234b058b71,2021-07-30_03h59.08.100,Simcolourproject_2stim_asymm_v5,2020.2.10,Win32,60,61025ae37ef11b136ea224fe,,,,,,,,,974,75.20001256,30.39999402,1,0,0,response1disk,,6,21.60006059,-6.4373E-06,1,0,0,rectangle,-43.99998921,79.99999475,1,0,0,-15.99998879,7.19999367,1,0,0,0,14,14,83,1,,response7disk_3,TRUE,0,0,"[315,84,60,311,194,60,296,152,196,96,146,103,273,15,88,231,11,196,217,180]",1.8494,rectangle
,,,,,,,,,,,,,FF,,,,,,,,2.0138,,,,,,,,,,,,,,,,,,,,,,605f064127eec9cb4494b4d9,61036acc047d57234b058b71,2021-07-30_03h59.08.100,Simcolourproject_2stim_asymm_v5,2020.2.10,Win32,60,61025ae37ef11b136ea224fe,,,,,,,,,4363,34.40001196,59.19997003,1,0,0,response1disk,,7,3.200011492,-4.000006497,1,0,0,rectangle,3.200011492,-4.000006497,1,0,0,3.200011492,-4.000006497,1,0,0,0,15,15,50,1,,,,,,,,
,,,,,,,,,,,,,FF,,,,,,,,0.9007,,,,,,,,,,,,,,,,,,,,,,605f064127eec9cb4494b4d9,61036acc047d57234b058b71,2021-07-30_03h59.08.100,Simcolourproject_2stim_asymm_v5,2020.2.10,Win32,60,61025ae37ef11b136ea224fe,,,,,,,,,3061,44.0000121,-74.40000755,1,0,0,response3disk,,4,4.000011504,-2.400006473,1,0,0,rectangle,4.000011504,-2.400006473,1,0,0,4.000011504,-2.400006473,1,0,0,0,16,16,76,1,,,,,,,,
,,,,,,,,,,,,,FF,,,,,,,,0.9999,,,,,,,,,,,,,,,,,,,,,,605f064127eec9cb4494b4d9,61036acc047d57234b058b71,2021-07-30_03h59.08.100,Simcolourproject_2stim_asymm_v5,2020.2.10,Win32,60,61025ae37ef11b136ea224fe,,,,,,,,,1668,-91.99998993,-36.00000697,1,0,0,response5disk,,2,8.000011563,7.19999367,1,0,0,rectangle,8.000011563,7.19999367,1,0,0,8.000011563,7.19999367,1,0,0,0,17,17,96,1,,,,,,,,
,,,,,,,,,,,,,FF,,,,,,,,0.847,,,,,,,,,,,,,,,,,,,,,,605f064127eec9cb4494b4d9,61036acc047d57234b058b71,2021-07-30_03h59.08.100,Simcolourproject_2stim_asymm_v5,2020.2.10,Win32,60,61025ae37ef11b136ea224fe,,,,,,,,,4314,-51.19998932,-97.60005672,1,0,0,response5disk,,3,11.20001161,0.799993575,1,0,0,rectangle,11.20001161,0.799993575,1,0,0,11.20001161,0.799993575,1,0,0,0,18,18,47,1,,,,,,,,
,,,,,,,,,,,,,FF,,,,,,,,0.868,,,,,,,,,,,,,,,,,,,,,,605f064127eec9cb4494b4d9,61036acc047d57234b058b71,2021-07-30_03h59.08.100,Simcolourproject_2stim_asymm_v5,2020.2.10,Win32,60,61025ae37ef11b136ea224fe,,,,,,,,,2242,-90.39994107,-55.20000726,1,0,0,response5disk,,2,4.800011516,-11.2000066,1,0,0,rectangle,4.800011516,-11.2000066,1,0,0,4.800011516,-11.2000066,1,0,0,0,19,19,64,1,,,,,,,,
,,,,,,,,,,,,,FF,,,,,,,,0.8343,,,,,,,,,,,,,,,,,,,,,,605f064127eec9cb4494b4d9,61036acc047d57234b058b71,2021-07-30_03h59.08.100,Simcolourproject_2stim_asymm_v5,2020.2.10,Win32,60,61025ae37ef11b136ea224fe,,,,,,,,,2479,-50.39994048,-116.8000082,1,0,0,response5disk,,3,-11.19998872,-9.60000658,1,0,0,rectangle,-11.19998872,-9.60000658,1,0,0,-11.19998872,-9.60000658,1,0,0,0,20,20,123,1,,,,,,,,
,,,,,,,,,,,,,FF,,,,,,,,0.8749,,,,,,,,,,,,,,,,,,,,,,605f064127eec9cb4494b4d9,61036acc047d57234b058b71,2021-07-30_03h59.08.100,Simcolourproject_2stim_asymm_v5,2020.2.10,Win32,60,61025ae37ef11b136ea224fe,,,,,,,,,3623,46.40001214,-87.20000774,1,0,0,response3disk,,4,-6.399939823,-2.400006473,1,0,0,rectangle,-6.399939823,-2.400006473,1,0,0,-6.399939823,-2.400006473,1,0,0,0,21,21,156,1,,,,,,,,
,,,,,,,,,,,,,FF,,,,,,,,1.5901,,,,,,,,,,,,,,,,,,,,,,605f064127eec9cb4494b4d9,61036acc047d57234b058b71,2021-07-30_03h59.08.100,Simcolourproject_2stim_asymm_v5,2020.2.10,Win32,60,61025ae37ef11b136ea224fe,,,,,,,,,3850,-90.39994107,49.5999943,1,0,0,response7disk,,1,8.000011563,-0.800006449,1,0,0,rectangle,8.000011563,-0.800006449,1,0,0,8.000011563,-0.800006449,1,0,0,0,22,22,53,1,,,,,,,,
,,,,,,,,,,,,,FF,,,,,,,,1.3471,,,,,,,,,,,,,,,,,,,,,,605f064127eec9cb4494b4d9,61036acc047d57234b058b71,2021-07-30_03h59.08.100,Simcolourproject_2stim_asymm_v5,2020.2.10,Win32,60,61025ae37ef11b136ea224fe,,,,,,,,,185,-43.99998921,95.19997057,1,0,0,response7disk,,0,-16.79998881,6.399993658,1,0,0,rectangle,-16.79998881,6.399993658,1,0,0,-16.79998881,6.399993658,1,0,0,0,23,23,132,1,,,,,,,,
,,,,,,,,,,,,,FF,,,,,,,,2.6939,,,,,,,,,,,,,,,,,,,,,,605f064127eec9cb4494b4d9,61036acc047d57234b058b71,2021-07-30_03h59.08.100,Simcolourproject_2stim_asymm_v5,2020.2.10,Win32,60,61025ae37ef11b136ea224fe,,,,,,,,,1420,-74.39994084,-36.00000697,1,0,0,response5disk,,2,1.600060296,-4.800006509,1,0,0,rectangle,1.600060296,-4.800006509,1,0,0,1.600060296,-4.800006509,1,0,0,0,24,24,97,1,,,,,,,,
,,,,,,,,,,,,,FF,,,,,,,,0.8883,,,,,,,,,,,,,,,,,,,,,,605f064127eec9cb4494b4d9,61036acc047d57234b058b71,2021-07-30_03h59.08.100,Simcolourproject_2stim_asymm_v5,2020.2.10,Win32,60,61025ae37ef11b136ea224fe,,,,,,,,,891,-59.19998944,-87.20000774,1,0,0,response5disk,,3,-1.59998858,1.599993587,1,0,0,rectangle,-1.59998858,1.599993587,1,0,0,-1.59998858,1.599993587,1,0,0,0,25,25,126,1,,,,,,,,
,,,,,,,,,,,,,FF,,,,,,,,0.8087,,,,,,,,,,,,,,,,,,,,,,605f064127eec9cb4494b4d9,61036acc047d57234b058b71,2021-07-30_03h59.08.100,Simcolourproject_2stim_asymm_v5,2020.2.10,Win32,60,61025ae37ef11b136ea224fe,,,,,,,,,3921,43.20001209,-79.20000762,1,0,0,response3disk,,4,6.400011539,0.799993575,1,0,0,rectangle,6.400011539,0.799993575,1,0,0,6.400011539,0.799993575,1,0,0,0,26,26,44,1,,,,,,,,
,,,,,,,,,,,,,FF,,,,,,,,0.7918,,,,,,,,,,,,,,,,,,,,,,605f064127eec9cb4494b4d9,61036acc047d57234b058b71,2021-07-30_03h59.08.100,Simcolourproject_2stim_asymm_v5,2020.2.10,Win32,60,61025ae37ef11b136ea224fe,,,,,,,,,473,-68.79998958,-50.40000719,1,0,0,response5disk,,2,9.600060415,-4.000006497,1,0,0,rectangle,9.600060415,-4.000006497,1,0,0,9.600060415,-4.000006497,1,0,0,0,27,27,57,1,,,,,,,,
,,,,,,,,,,,,,FF,,,,,,,,1.1353,,,,,,,,,,,,,,,,,,,,,,605f064127eec9cb4494b4d9,61036acc047d57234b058b71,2021-07-30_03h59.08.100,Simcolourproject_2stim_asymm_v5,2020.2.10,Win32,60,61025ae37ef11b136ea224fe,,,,,,,,,711,72.00001252,-66.40000743,1,0,0,response3disk,,5,-7.999988675,1.599993587,1,0,0,rectangle,-7.999988675,1.599993587,1,0,0,-7.999988675,1.599993587,1,0,0,0,28,28,71,1,,,,,,,,
,,,,,,,,,,,,,FF,,,,,,,,0.7987,,,,,,,,,,,,,,,,,,,,,,605f064127eec9cb4494b4d9,61036acc047d57234b058b71,2021-07-30_03h59.08.100,Simcolourproject_2stim_asymm_v5,2020.2.10,Win32,60,61025ae37ef11b136ea224fe,,,,,,,,,498,80.80001265,-52.80000722,1,0,0,response3disk,,5,14.40001166,-1.600006461,1,0,0,rectangle,14.40001166,-1.600006461,1,0,0,14.40001166,-1.600006461,1,0,0,0,29,29,67,1,,,,,,,,
,,,,,,,,,,,,,FF,,,,,,,,0.9163,,,,,,,,,,,,,,,,,,,,,,605f064127eec9cb4494b4d9,61036acc047d57234b058b71,2021-07-30_03h59.08.100,Simcolourproject_2stim_asymm_v5,2020.2.10,Win32,60,61025ae37ef11b136ea224fe,,,,,,,,,386,-60.79998946,-86.40000772,1,0,0,response5disk,,3,-7.199988663,2.399993598,1,0,0,rectangle,-7.199988663,2.399993598,1,0,0,-7.199988663,2.399993598,1,0,0,0,30,30,75,1,,,,,,,,
,,,,,,,,,,,,,FF,,,,,,,,0.837,,,,,,,,,,,,,,,,,,,,,,605f064127eec9cb4494b4d9,61036acc047d57234b058b71,2021-07-30_03h59.08.100,Simcolourproject_2stim_asymm_v5,2020.2.10,Win32,60,61025ae37ef11b136ea224fe,,,,,,,,,2867,78.40001261,47.19996985,1,0,0,response1disk,,6,-1.59998858,-13.60000664,1,0,0,rectangle,-1.59998858,-13.60000664,1,0,0,-1.59998858,-13.60000664,1,0,0,0,31,31,115,1,,,,,,,,
,,,,,,,,,,,,,FF,,,,,,,,0.7849,,,,,,,,,,,,,,,,,,,,,,605f064127eec9cb4494b4d9,61036acc047d57234b058b71,2021-07-30_03h59.08.100,Simcolourproject_2stim_asymm_v5,2020.2.10,Win32,60,61025ae37ef11b136ea224fe,,,,,,,,,225,-35.99998909,-48.00000715,1,0,0,response5disk,,3,7.200011551,16.79999381,1,0,0,rectangle,7.200011551,16.79999381,1,0,0,7.200011551,16.79999381,1,0,0,0,32,32,128,1,,,,,,,,
,,,,,,,,,,,,,FF,,,,,,,,0.8223,,,,,,,,,,,,,,,,,,,,,,605f064127eec9cb4494b4d9,61036acc047d57234b058b71,2021-07-30_03h59.08.100,Simcolourproject_2stim_asymm_v5,2020.2.10,Win32,60,61025ae37ef11b136ea224fe,,,,,,,,,306,56.00001228,-82.40000767,1,0,0,response3disk,,4,6.400011539,-0.800006449,1,0,0,rectangle,6.400011539,-0.800006449,1,0,0,6.400011539,-0.800006449,1,0,0,0,33,33,114,1,,,,,,,,
,,,,,,,,,,,,,FF,,,,,,,,0.7362,,,,,,,,,,,,,,,,,,,,,,605f064127eec9cb4494b4d9,61036acc047d57234b058b71,2021-07-30_03h59.08.100,Simcolourproject_2stim_asymm_v5,2020.2.10,Win32,60,61025ae37ef11b136ea224fe,,,,,,,,,2526,75.20001256,-44.8000071,1,0,0,response3disk,,5,16.80001169,-3.200006485,1,0,0,rectangle,16.80001169,-3.200006485,1,0,0,16.80001169,-3.200006485,1,0,0,0,34,34,4,1,,,,,,,,
,,,,,,,,,,,,,FF,,,,,,,,0.7428,,,,,,,,,,,,,,,,,,,,,,605f064127eec9cb4494b4d9,61036acc047d57234b058b71,2021-07-30_03h59.08.100,Simcolourproject_2stim_asymm_v5,2020.2.10,Win32,60,61025ae37ef11b136ea224fe,,,,,,,,,919,69.60001248,-43.20000708,1,0,0,response3disk,,5,16.80001169,-3.200006485,1,0,0,rectangle,16.80001169,-3.200006485,1,0,0,16.80001169,-3.200006485,1,0,0,0,35,35,157,1,,,,,,,,
,,,,,,,,,,,,,FF,,,,,,,,1.0108,,,,,,,,,,,,,,,,,,,,,,605f064127eec9cb4494b4d9,61036acc047d57234b058b71,2021-07-30_03h59.08.100,Simcolourproject_2stim_asymm_v5,2020.2.10,Win32,60,61025ae37ef11b136ea224fe,,,,,,,,,1894,-107.9999902,-42.40000707,1,0,0,response5disk,,2,-22.39994006,-6.400006533,1,0,0,rectangle,-22.39994006,-6.400006533,1,0,0,-22.39994006,-6.400006533,1,0,0,0,36,36,134,1,,,,,,,,
,,,,,,,,,,,,,FF,,,,,,,,0.7916,,,,,,,,,,,,,,,,,,,,,,605f064127eec9cb4494b4d9,61036acc047d57234b058b71,2021-07-30_03h59.08.100,Simcolourproject_2stim_asymm_v5,2020.2.10,Win32,60,61025ae37ef11b136ea224fe,,,,,,,,,2481,-67.19998956,-38.40000701,1,0,0,response5disk,,2,0.800011456,-6.4373E-06,1,0,0,rectangle,0.800011456,-6.4373E-06,1,0,0,0.800011456,-6.4373E-06,1,0,0,0,37,37,90,1,,,,,,,,
,,,,,,,,,,,,,FF,,,,,,,,0.7501,,,,,,,,,,,,,,,,,,,,,,605f064127eec9cb4494b4d9,61036acc047d57234b058b71,2021-07-30_03h59.08.100,Simcolourproject_2stim_asymm_v5,2020.2.10,Win32,60,61025ae37ef11b136ea224fe,,,,,,,,,613,-75.99998969,-40.80000705,1,0,0,response5disk,,2,-4.799988627,4.799993634,1,0,0,rectangle,-4.799988627,4.799993634,1,0,0,-4.799988627,4.799993634,1,0,0,0,38,38,82,1,,,,,,,,
,,,,,,,,,,,,,FF,,,,,,,,0.9514,,,,,,,,,,,,,,,,,,,,,,605f064127eec9cb4494b4d9,61036acc047d57234b058b71,2021-07-30_03h59.08.100,Simcolourproject_2stim_asymm_v5,2020.2.10,Win32,60,61025ae37ef11b136ea224fe,,,,,,,,,3588,-71.19998962,39.99999416,1,0,0,response7disk,,1,-0.799988568,5.599993646,1,0,0,rectangle,-0.799988568,5.599993646,1,0,0,-0.799988568,5.599993646,1,0,0,0,39,39,136,1,,,,,,,,
,,,,,,,,,,,,,FF,,,,,,,,1.3751,,,,,,,,,,,,,,,,,,,,,,605f064127eec9cb4494b4d9,61036acc047d57234b058b71,2021-07-30_03h59.08.100,Simcolourproject_2stim_asymm_v5,2020.2.10,Win32,60,61025ae37ef11b136ea224fe,,,,,,,,,3536,-41.59998918,-80.80000764,1,0,0,response5disk,,3,-10.39993988,-5.600006521,1,0,0,rectangle,-10.39993988,-5.600006521,1,0,0,-10.39993988,-5.600006521,1,0,0,0,40,40,91,1,,,,,,,,
,,,,,,,,,,,,,FF,,,,,,,,0.8189,,,,,,,,,,,,,,,,,,,,,,605f064127eec9cb4494b4d9,61036acc047d57234b058b71,2021-07-30_03h59.08.100,Simcolourproject_2stim_asymm_v5,2020.2.10,Win32,60,61025ae37ef11b136ea224fe,,,,,,,,,3727,-62.39994066,-88.80000776,1,0,0,response5disk,,3,-16.79998881,-1.600006461,1,0,0,rectangle,-16.79998881,-1.600006461,1,0,0,-16.79998881,-1.600006461,1,0,0,0,41,41,26,1,,,,,,,,
,,,,,,,,,,,,,FF,,,,,,,,1.5439,,,,,,,,,,,,,,,,,,,,,,605f064127eec9cb4494b4d9,61036acc047d57234b058b71,2021-07-30_03h59.08.100,Simcolourproject_2stim_asymm_v5,2020.2.10,Win32,60,61025ae37ef11b136ea224fe,,,,,,,,,3691,51.20001221,-68.00000745,1,0,0,response3disk,,4,12.00001162,-2.400006473,1,0,0,rectangle,12.00001162,-2.400006473,1,0,0,12.00001162,-2.400006473,1,0,0,0,42,42,105,1,,,,,,,,
,,,,,,,,,,,,,FF,,,,,,,,0.8613,,,,,,,,,,,,,,,,,,,,,,605f064127eec9cb4494b4d9,61036acc047d57234b058b71,2021-07-30_03h59.08.100,Simcolourproject_2stim_asymm_v5,2020.2.10,Win32,60,61025ae37ef11b136ea224fe,,,,,,,,,1247,104.000013,-69.60000747,1,0,0,response3disk,,5,13.60006047,-13.60000664,1,0,0,rectangle,13.60006047,-13.60000664,1,0,0,13.60006047,-13.60000664,1,0,0,0,43,43,56,1,,,,,,,,
,,,,,,,,,,,,,FF,,,,,,,,1.3121,,,,,,,,,,,,,,,,,,,,,,605f064127eec9cb4494b4d9,61036acc047d57234b058b71,2021-07-30_03h59.08.100,Simcolourproject_2stim_asymm_v5,2020.2.10,Win32,60,61025ae37ef11b136ea224fe,,,,,,,,,2543,94.40001285,40.79999417,1,0,0,response1disk,,6,15.20001167,-11.2000066,1,0,0,rectangle,15.20001167,-11.2000066,1,0,0,15.20001167,-11.2000066,1,0,0,0,44,44,0,1,,,,,,,,
,,,,,,,,,,,,,FF,,,,,,,,0.8072,,,,,,,,,,,,,,,,,,,,,,605f064127eec9cb4494b4d9,61036acc047d57234b058b71,2021-07-30_03h59.08.100,Simcolourproject_2stim_asymm_v5,2020.2.10,Win32,60,61025ae37ef11b136ea224fe,,,,,,,,,633,-67.19998956,-39.20000702,1,0,0,response5disk,,2,-11.19998872,7.999993682,1,0,0,rectangle,-11.19998872,7.999993682,1,0,0,-11.19998872,7.999993682,1,0,0,0,45,45,159,1,,,,,,,,
,,,,,,,,,,,,,FF,,,,,,,,1.354,,,,,,,,,,,,,,,,,,,,,,605f064127eec9cb4494b4d9,61036acc047d57234b058b71,2021-07-30_03h59.08.100,Simcolourproject_2stim_asymm_v5,2020.2.10,Win32,60,61025ae37ef11b136ea224fe,,,,,,,,,4173,44.0000121,86.39999485,1,0,0,response1disk,,7,8.000011563,-5.600006521,1,0,0,rectangle,8.000011563,-5.600006521,1,0,0,8.000011563,-5.600006521,1,0,0,0,46,46,118,1,,,,,,,,
,,,,,,,,,,,,,FF,,,,,,,,1.8566,,,,,,,,,,,,,,,,,,,,,,605f064127eec9cb4494b4d9,61036acc047d57234b058b71,2021-07-30_03h59.08.100,Simcolourproject_2stim_asymm_v5,2020.2.10,Win32,60,61025ae37ef11b136ea224fe,,,,,,,,,2384,-70.39994078,-54.40000725,1,0,0,response5disk,,2,4.800011516,-11.2000066,1,0,0,rectangle,4.800011516,-11.2000066,1,0,0,4.800011516,-11.2000066,1,0,0,0,47,47,130,1,,,,,,,,
,,,,,,,,,,,,,FF,,,,,,,,0.7399,,,,,,,,,,,,,,,,,,,,,,605f064127eec9cb4494b4d9,61036acc047d57234b058b71,2021-07-30_03h59.08.100,Simcolourproject_2stim_asymm_v5,2020.2.10,Win32,60,61025ae37ef11b136ea224fe,,,,,,,,,2115,-64.79998952,-51.2000072,1,0,0,response5disk,,2,12.00001162,-3.200006485,1,0,0,rectangle,12.00001162,-3.200006485,1,0,0,12.00001162,-3.200006485,1,0,0,0,48,48,35,1,,,,,,,,
,,,,,,,,,,,,,FF,,,,,,,,1.0344,,,,,,,,,,,,,,,,,,,,,,605f064127eec9cb4494b4d9,61036acc047d57234b058b71,2021-07-30_03h59.08.100,Simcolourproject_2stim_asymm_v5,2020.2.10,Win32,60,61025ae37ef11b136ea224fe,,,,,,,,,2891,-77.59998971,50.39999431,1,0,0,response7disk,,1,-19.99998885,3.999993622,1,0,0,rectangle,-19.99998885,3.999993622,1,0,0,-19.99998885,3.999993622,1,0,0,0,49,49,23,1,,,,,,,,
,,,,,,,,,,,,,FF,,,,,,,,0.7391,,,,,,,,,,,,,,,,,,,,,,605f064127eec9cb4494b4d9,61036acc047d57234b058b71,2021-07-30_03h59.08.100,Simcolourproject_2stim_asymm_v5,2020.2.10,Win32,60,61025ae37ef11b136ea224fe,,,,,,,,,2362,-76.7999897,34.39999408,1,0,0,response7disk,,1,-7.199988663,0.799993575,1,0,0,rectangle,-7.199988663,0.799993575,1,0,0,-7.199988663,0.799993575,1,0,0,0,50,50,5,1,,,,,,,,
,,,,,,,,,,,,,FF,,,,,,,,0.9475,,,,,,,,,,,,,,,,,,,,,,605f064127eec9cb4494b4d9,61036acc047d57234b058b71,2021-07-30_03h59.08.100,Simcolourproject_2stim_asymm_v5,2020.2.10,Win32,60,61025ae37ef11b136ea224fe,,,,,,,,,2916,-44.79998922,-73.60000753,1,0,0,response5disk,,3,0.800011456,8.799993694,1,0,0,rectangle,0.800011456,8.799993694,1,0,0,0.800011456,8.799993694,1,0,0,0,51,51,146,1,,,,,,,,
,,,,,,,,,,,,,FF,,,,,,,,0.7599,,,,,,,,,,,,,,,,,,,,,,605f064127eec9cb4494b4d9,61036acc047d57234b058b71,2021-07-30_03h59.08.100,Simcolourproject_2stim_asymm_v5,2020.2.10,Win32,60,61025ae37ef11b136ea224fe,,,,,,,,,684,44.0000121,-53.60000724,1,0,0,response3disk,,4,7.200011551,9.599993706,1,0,0,rectangle,7.200011551,9.599993706,1,0,0,7.200011551,9.599993706,1,0,0,0,52,52,69,1,,,,,,,,
,,,,,,,,,,,,,FF,,,,,,,,0.7328,,,,,,,,,,,,,,,,,,,,,,605f064127eec9cb4494b4d9,61036acc047d57234b058b71,2021-07-30_03h59.08.100,Simcolourproject_2stim_asymm_v5,2020.2.10,Win32,60,61025ae37ef11b136ea224fe,,,,,,,,,3315,40.80001205,-60.80000734,1,0,0,response3disk,,4,5.600060356,4.799993634,1,0,0,rectangle,5.600060356,4.799993634,1,0,0,5.600060356,4.799993634,1,0,0,0,53,53,70,1,,,,,,,,
,,,,,,,,,,,,,FF,,,,,,,,0.8221,,,,,,,,,,,,,,,,,,,,,,605f064127eec9cb4494b4d9,61036acc047d57234b058b71,2021-07-30_03h59.08.100,Simcolourproject_2stim_asymm_v5,2020.2.10,Win32,60,61025ae37ef11b136ea224fe,,,,,,,,,3896,85.60001272,-61.60000736,1,0,0,response3disk,,5,19.20001173,-13.60000664,1,0,0,rectangle,19.20001173,-13.60000664,1,0,0,19.20001173,-13.60000664,1,0,0,0,54,54,86,1,,,,,,,,
,,,,,,,,,,,,,FF,,,,,,,,0.6779,,,,,,,,,,,,,,,,,,,,,,605f064127eec9cb4494b4d9,61036acc047d57234b058b71,2021-07-30_03h59.08.100,Simcolourproject_2stim_asymm_v5,2020.2.10,Win32,60,61025ae37ef11b136ea224fe,,,,,,,,,942,53.60001224,-30.40000689,1,0,0,response3disk,,5,10.4000116,-3.200006485,1,0,0,rectangle,10.4000116,-3.200006485,1,0,0,10.4000116,-3.200006485,1,0,0,0,55,55,19,1,,,,,,,,
,,,,,,,,,,,,,FF,,,,,,,,1.0344,,,,,,,,,,,,,,,,,,,,,,605f064127eec9cb4494b4d9,61036acc047d57234b058b71,2021-07-30_03h59.08.100,Simcolourproject_2stim_asymm_v5,2020.2.10,Win32,60,61025ae37ef11b136ea224fe,,,,,,,,,2292,-87.19998986,40.79999417,1,0,0,response7disk,,1,-19.99998885,-2.400006473,1,0,0,rectangle,-19.99998885,-2.400006473,1,0,0,-19.99998885,-2.400006473,1,0,0,0,56,56,39,1,,,,,,,,
,,,,,,,,,,,,,FF,,,,,,,,1.2365,,,,,,,,,,,,,,,,,,,,,,605f064127eec9cb4494b4d9,61036acc047d57234b058b71,2021-07-30_03h59.08.100,Simcolourproject_2stim_asymm_v5,2020.2.10,Win32,60,61025ae37ef11b136ea224fe,,,,,,,,,963,74.40001255,51.19996991,1,0,0,response1disk,,6,8.800011575,-5.600006521,1,0,0,rectangle,8.800011575,-5.600006521,1,0,0,8.800011575,-5.600006521,1,0,0,0,57,57,30,1,,,,,,,,
,,,,,,,,,,,,,FF,,,,,,,,3.597,,,,,,,,,,,,,,,,,,,,,,605f064127eec9cb4494b4d9,61036acc047d57234b058b71,2021-07-30_03h59.08.100,Simcolourproject_2stim_asymm_v5,2020.2.10,Win32,60,61025ae37ef11b136ea224fe,,,,,,,,,1619,-59.99998945,-104.800008,1,0,0,response5disk,,3,9.600060415,-8.000006557,1,0,0,rectangle,9.600060415,-8.000006557,1,0,0,9.600060415,-8.000006557,1,0,0,0,58,58,21,1,,,,,,,,
,,,,,,,,,,,,,FF,,,,,,,,0.8675,,,,,,,,,,,,,,,,,,,,,,605f064127eec9cb4494b4d9,61036acc047d57234b058b71,2021-07-30_03h59.08.100,Simcolourproject_2stim_asymm_v5,2020.2.10,Win32,60,61025ae37ef11b136ea224fe,,,,,,,,,2270,-67.19998956,-24.00000679,1,0,0,response5disk,,2,11.20001161,7.999993682,1,0,0,rectangle,-90.39994107,42.39999419,1,0,0,-9.599988699,-14.40000665,1,0,0,0,59,59,49,1,,response7disk_3,TRUE,1,1,"[315,84,60,311,194,60,296,152,196,96,146,103,273,15,88,231,11,196,217,180]",1.4116,rectangle
,,,,,,,,,,,,,FF,,,,,,,,1.1057,,,,,,,,,,,,,,,,,,,,,,605f064127eec9cb4494b4d9,61036acc047d57234b058b71,2021-07-30_03h59.08.100,Simcolourproject_2stim_asymm_v5,2020.2.10,Win32,60,61025ae37ef11b136ea224fe,,,,,,,,,781,64.80001241,-88.80000776,1,0,0,response3disk,,4,19.20001173,-3.200006485,1,0,0,rectangle,19.20001173,-3.200006485,1,0,0,19.20001173,-3.200006485,1,0,0,0,60,60,152,1,,,,,,,,
,,,,,,,,,,,,,FF,,,,,,,,0.6057,,,,,,,,,,,,,,,,,,,,,,605f064127eec9cb4494b4d9,61036acc047d57234b058b71,2021-07-30_03h59.08.100,Simcolourproject_2stim_asymm_v5,2020.2.10,Win32,60,61025ae37ef11b136ea224fe,,,,,,,,,750,41.60006089,-57.6000073,1,0,0,response3disk,,4,-3.199988604,1.599993587,1,0,0,rectangle,-3.199988604,1.599993587,1,0,0,-3.199988604,1.599993587,1,0,0,0,61,61,38,1,,,,,,,,
,,,,,,,,,,,,,FF,,,,,,,,0.7218,,,,,,,,,,,,,,,,,,,,,,605f064127eec9cb4494b4d9,61036acc047d57234b058b71,2021-07-30_03h59.08.100,Simcolourproject_2stim_asymm_v5,2020.2.10,Win32,60,61025ae37ef11b136ea224fe,,,,,,,,,443,-63.99998951,66.39999455,1,0,0,response7disk,,0,-15.99998879,1.599993587,1,0,0,rectangle,-15.99998879,1.599993587,1,0,0,-15.99998879,1.599993587,1,0,0,0,62,62,81,1,,,,,,,,
,,,,,,,,,,,,,FF,,,,,,,,1.1046,,,,,,,,,,,,,,,,,,,,,,605f064127eec9cb4494b4d9,61036acc047d57234b058b71,2021-07-30_03h59.08.100,Simcolourproject_2stim_asymm_v5,2020.2.10,Win32,60,61025ae37ef11b136ea224fe,,,,,,,,,122,66.40001243,-128.0000083,1,0,0,response3disk,,4,-6.399939823,7.19999367,1,0,0,rectangle,-6.399939823,7.19999367,1,0,0,-6.399939823,7.19999367,1,0,0,0,63,63,147,1,,,,,,,,
,,,,,,,,,,,,,FF,,,,,,,,0.8767,,,,,,,,,,,,,,,,,,,,,,605f064127eec9cb4494b4d9,61036acc047d57234b058b71,2021-07-30_03h59.08.100,Simcolourproject_2stim_asymm_v5,2020.2.10,Win32,60,61025ae37ef11b136ea224fe,,,,,,,,,4141,-83.99998981,-40.80000705,1,0,0,response5disk,,2,-5.599988639,0.799993575,1,0,0,rectangle,-5.599988639,0.799993575,1,0,0,-5.599988639,0.799993575,1,0,0,0,64,64,149,1,,,,,,,,
,,,,,,,,,,,,,FF,,,,,,,,1.1248,,,,,,,,,,,,,,,,,,,,,,605f064127eec9cb4494b4d9,61036acc047d57234b058b71,2021-07-30_03h59.08.100,Simcolourproject_2stim_asymm_v5,2020.2.10,Win32,60,61025ae37ef11b136ea224fe,,,,,,,,,1363,36.00001198,-101.6000568,1,0,0,response3disk,,4,-5.599988639,14.39999378,1,0,0,rectangle,-5.599988639,14.39999378,1,0,0,-5.599988639,14.39999378,1,0,0,0,65,65,78,1,,,,,,,,
,,,,,,,,,,,,,FF,,,,,,,,0.8818,,,,,,,,,,,,,,,,,,,,,,605f064127eec9cb4494b4d9,61036acc047d57234b058b71,2021-07-30_03h59.08.100,Simcolourproject_2stim_asymm_v5,2020.2.10,Win32,60,61025ae37ef11b136ea224fe,,,,,,,,,3726,-17.59998882,-80.80000764,1,0,0,response5disk,,3,5.600060356,-6.4373E-06,1,0,0,rectangle,5.600060356,-6.4373E-06,1,0,0,5.600060356,-6.4373E-06,1,0,0,0,66,66,122,1,,,,,,,,
,,,,,,,,,,,,,FF,,,,,,,,0.8676,,,,,,,,,,,,,,,,,,,,,,605f064127eec9cb4494b4d9,61036acc047d57234b058b71,2021-07-30_03h59.08.100,Simcolourproject_2stim_asymm_v5,2020.2.10,Win32,60,61025ae37ef11b136ea224fe,,,,,,,,,1714,63.20001239,-40.80000705,1,0,0,response3disk,,5,20.00001174,-7.200006545,1,0,0,rectangle,20.00001174,-7.200006545,1,0,0,20.00001174,-7.200006545,1,0,0,0,67,67,110,1,,,,,,,,
,,,,,,,,,,,,,FF,,,,,,,,0.6595,,,,,,,,,,,,,,,,,,,,,,605f064127eec9cb4494b4d9,61036acc047d57234b058b71,2021-07-30_03h59.08.100,Simcolourproject_2stim_asymm_v5,2020.2.10,Win32,60,61025ae37ef11b136ea224fe,,,,,,,,,3358,56.80001229,-32.80000693,1,0,0,response3disk,,5,4.000011504,5.599993646,1,0,0,rectangle,4.000011504,5.599993646,1,0,0,4.000011504,5.599993646,1,0,0,0,68,68,116,1,,,,,,,,
,,,,,,,,,,,,,FF,,,,,,,,0.7708,,,,,,,,,,,,,,,,,,,,,,605f064127eec9cb4494b4d9,61036acc047d57234b058b71,2021-07-30_03h59.08.100,Simcolourproject_2stim_asymm_v5,2020.2.10,Win32,60,61025ae37ef11b136ea224fe,,,,,,,,,985,44.80001211,-108.8000081,1,0,0,response3disk,,4,-2.399939764,-8.000006557,1,0,0,rectangle,-2.399939764,-8.000006557,1,0,0,-2.399939764,-8.000006557,1,0,0,0,69,69,80,1,,,,,,,,
,,,,,,,,,,,,,FF,,,,,,,,0.8608,,,,,,,,,,,,,,,,,,,,,,605f064127eec9cb4494b4d9,61036acc047d57234b058b71,2021-07-30_03h59.08.100,Simcolourproject_2stim_asymm_v5,2020.2.10,Win32,60,61025ae37ef11b136ea224fe,,,,,,,,,4118,-55.99998939,64.79999453,1,0,0,response7disk,,0,0.800011456,2.399993598,1,0,0,rectangle,0.800011456,2.399993598,1,0,0,0.800011456,2.399993598,1,0,0,0,70,70,43,1,,,,,,,,
,,,,,,,,,,,,,FF,,,,,,,,0.8751,,,,,,,,,,,,,,,,,,,,,,605f064127eec9cb4494b4d9,61036acc047d57234b058b71,2021-07-30_03h59.08.100,Simcolourproject_2stim_asymm_v5,2020.2.10,Win32,60,61025ae37ef11b136ea224fe,,,,,,,,,3648,40.00001204,63.19997009,1,0,0,response1disk,,7,8.800011575,3.19999361,1,0,0,rectangle,8.800011575,3.19999361,1,0,0,8.800011575,3.19999361,1,0,0,0,71,71,16,1,,,,,,,,
,,,,,,,,,,,,,FF,,,,,,,,0.9163,,,,,,,,,,,,,,,,,,,,,,605f064127eec9cb4494b4d9,61036acc047d57234b058b71,2021-07-30_03h59.08.100,Simcolourproject_2stim_asymm_v5,2020.2.10,Win32,60,61025ae37ef11b136ea224fe,,,,,,,,,1480,68.80001247,-42.40000707,1,0,0,response3disk,,5,16.80001169,-4.800006509,1,0,0,rectangle,16.80001169,-4.800006509,1,0,0,16.80001169,-4.800006509,1,0,0,0,72,72,155,1,,,,,,,,
,,,,,,,,,,,,,FF,,,,,,,,0.6595,,,,,,,,,,,,,,,,,,,,,,605f064127eec9cb4494b4d9,61036acc047d57234b058b71,2021-07-30_03h59.08.100,Simcolourproject_2stim_asymm_v5,2020.2.10,Win32,60,61025ae37ef11b136ea224fe,,,,,,,,,3948,66.40001243,-36.80000699,1,0,0,response3disk,,5,13.60006047,1.599993587,1,0,0,rectangle,13.60006047,1.599993587,1,0,0,13.60006047,1.599993587,1,0,0,0,73,73,61,1,,,,,,,,
,,,,,,,,,,,,,FF,,,,,,,,1.4234,,,,,,,,,,,,,,,,,,,,,,605f064127eec9cb4494b4d9,61036acc047d57234b058b71,2021-07-30_03h59.08.100,Simcolourproject_2stim_asymm_v5,2020.2.10,Win32,60,61025ae37ef11b136ea224fe,,,,,,,,,1325,62.40001237,47.19996985,1,0,0,response1disk,,6,20.00001174,3.19999361,1,0,0,rectangle,20.00001174,3.19999361,1,0,0,20.00001174,3.19999361,1,0,0,0,74,74,7,1,,,,,,,,
,,,,,,,,,,,,,FF,,,,,,,,0.6942,,,,,,,,,,,,,,,,,,,,,,605f064127eec9cb4494b4d9,61036acc047d57234b058b71,2021-07-30_03h59.08.100,Simcolourproject_2stim_asymm_v5,2020.2.10,Win32,60,61025ae37ef11b136ea224fe,,,,,,,,,2987,-63.99998951,-27.20000684,1,0,0,response5disk,,2,-7.999988675,-8.000006557,1,0,0,rectangle,-7.999988675,-8.000006557,1,0,0,-7.999988675,-8.000006557,1,0,0,0,75,75,154,1,,,,,,,,
,,,,,,,,,,,,,FF,,,,,,,,0.6807,,,,,,,,,,,,,,,,,,,,,,605f064127eec9cb4494b4d9,61036acc047d57234b058b71,2021-07-30_03h59.08.100,Simcolourproject_2stim_asymm_v5,2020.2.10,Win32,60,61025ae37ef11b136ea224fe,,,,,,,,,2519,-23.99998891,-90.40000778,1,0,0,response5disk,,3,9.600060415,-1.600006461,1,0,0,rectangle,9.600060415,-1.600006461,1,0,0,9.600060415,-1.600006461,1,0,0,0,76,76,74,1,,,,,,,,
,,,,,,,,,,,,,FF,,,,,,,,0.6459,,,,,,,,,,,,,,,,,,,,,,605f064127eec9cb4494b4d9,61036acc047d57234b058b71,2021-07-30_03h59.08.100,Simcolourproject_2stim_asymm_v5,2020.2.10,Win32,60,61025ae37ef11b136ea224fe,,,,,,,,,1536,58.40001231,-76.00000757,1,0,0,response3disk,,4,15.20001167,-12.00000662,1,0,0,rectangle,15.20001167,-12.00000662,1,0,0,15.20001167,-12.00000662,1,0,0,0,77,77,42,1,,,,,,,,
,,,,,,,,,,,,,FF,,,,,,,,0.6322,,,,,,,,,,,,,,,,,,,,,,605f064127eec9cb4494b4d9,61036acc047d57234b058b71,2021-07-30_03h59.08.100,Simcolourproject_2stim_asymm_v5,2020.2.10,Win32,60,61025ae37ef11b136ea224fe,,,,,,,,,206,78.40001261,-52.80000722,1,0,0,response3disk,,5,4.800011516,-10.40000659,1,0,0,rectangle,4.800011516,-10.40000659,1,0,0,4.800011516,-10.40000659,1,0,0,0,78,78,124,1,,,,,,,,
,,,,,,,,,,,,,FF,,,,,,,,0.6388,,,,,,,,,,,,,,,,,,,,,,605f064127eec9cb4494b4d9,61036acc047d57234b058b71,2021-07-30_03h59.08.100,Simcolourproject_2stim_asymm_v5,2020.2.10,Win32,60,61025ae37ef11b136ea224fe,,,,,,,,,4133,76.00001258,-35.20000696,1,0,0,response3disk,,5,11.20001161,4.799993634,1,0,0,rectangle,11.20001161,4.799993634,1,0,0,11.20001161,4.799993634,1,0,0,0,79,79,92,1,,,,,,,,
,,,,,,,,,,,,,FF,,,,,,,,0.7151,,,,,,,,,,,,,,,,,,,,,,605f064127eec9cb4494b4d9,61036acc047d57234b058b71,2021-07-30_03h59.08.100,Simcolourproject_2stim_asymm_v5,2020.2.10,Win32,60,61025ae37ef11b136ea224fe,,,,,,,,,186,-73.59998965,-25.60000682,1,0,0,response5disk,,2,8.800011575,6.399993658,1,0,0,rectangle,8.800011575,6.399993658,1,0,0,8.800011575,6.399993658,1,0,0,0,80,80,3,1,,,,,,,,
,,,,,,,,,,,,,FF,,,,,,,,0.6593,,,,,,,,,,,,,,,,,,,,,,605f064127eec9cb4494b4d9,61036acc047d57234b058b71,2021-07-30_03h59.08.100,Simcolourproject_2stim_asymm_v5,2020.2.10,Win32,60,61025ae37ef11b136ea224fe,,,,,,,,,187,-56.7999894,-30.40000689,1,0,0,response5disk,,2,2.40001148,-8.000006557,1,0,0,rectangle,2.40001148,-8.000006557,1,0,0,2.40001148,-8.000006557,1,0,0,0,81,81,68,1,,,,,,,,
,,,,,,,,,,,,,FF,,,,,,,,0.7706,,,,,,,,,,,,,,,,,,,,,,605f064127eec9cb4494b4d9,61036acc047d57234b058b71,2021-07-30_03h59.08.100,Simcolourproject_2stim_asymm_v5,2020.2.10,Win32,60,61025ae37ef11b136ea224fe,,,,,,,,,2496,57.6000123,-85.60005654,1,0,0,response3disk,,4,2.40001148,-6.4373E-06,1,0,0,rectangle,2.40001148,-6.4373E-06,1,0,0,2.40001148,-6.4373E-06,1,0,0,0,82,82,125,1,,,,,,,,
,,,,,,,,,,,,,FF,,,,,,,,0.8334,,,,,,,,,,,,,,,,,,,,,,605f064127eec9cb4494b4d9,61036acc047d57234b058b71,2021-07-30_03h59.08.100,Simcolourproject_2stim_asymm_v5,2020.2.10,Win32,60,61025ae37ef11b136ea224fe,,,,,,,,,2466,68.00001246,-32.80000693,1,0,0,response3disk,,5,4.800011516,-4.000006497,1,0,0,rectangle,-103.1999901,40.79999417,1,0,0,4.000011504,-1.600006461,1,0,0,0,83,83,131,1,,response7disk_3,TRUE,1,1,"[315,84,60,311,194,60,296,152,196,96,146,103,273,15,88,231,11,196,217,180]",1.3976,rectangle
,,,,,,,,,,,,,FF,,,,,,,,0.764,,,,,,,,,,,,,,,,,,,,,,605f064127eec9cb4494b4d9,61036acc047d57234b058b71,2021-07-30_03h59.08.100,Simcolourproject_2stim_asymm_v5,2020.2.10,Win32,60,61025ae37ef11b136ea224fe,,,,,,,,,3780,-69.59998959,-38.40000701,1,0,0,response5disk,,2,3.200011492,-4.000006497,1,0,0,rectangle,3.200011492,-4.000006497,1,0,0,3.200011492,-4.000006497,1,0,0,0,84,84,87,1,,,,,,,,
,,,,,,,,,,,,,FF,,,,,,,,0.7803,,,,,,,,,,,,,,,,,,,,,,605f064127eec9cb4494b4d9,61036acc047d57234b058b71,2021-07-30_03h59.08.100,Simcolourproject_2stim_asymm_v5,2020.2.10,Win32,60,61025ae37ef11b136ea224fe,,,,,,,,,3054,-40.79998916,-62.40000737,1,0,0,response5disk,,3,1.600060296,-0.800006449,1,0,0,rectangle,1.600060296,-0.800006449,1,0,0,1.600060296,-0.800006449,1,0,0,0,85,85,73,1,,,,,,,,
,,,,,,,,,,,,,FF,,,,,,,,0.767,,,,,,,,,,,,,,,,,,,,,,605f064127eec9cb4494b4d9,61036acc047d57234b058b71,2021-07-30_03h59.08.100,Simcolourproject_2stim_asymm_v5,2020.2.10,Win32,60,61025ae37ef11b136ea224fe,,,,,,,,,2654,-67.19998956,-44.8000071,1,0,0,response5disk,,2,-0.799988568,-6.400006533,1,0,0,rectangle,-0.799988568,-6.400006533,1,0,0,-0.799988568,-6.400006533,1,0,0,0,86,86,95,1,,,,,,,,
,,,,,,,,,,,,,FF,,,,,,,,0.7986,,,,,,,,,,,,,,,,,,,,,,605f064127eec9cb4494b4d9,61036acc047d57234b058b71,2021-07-30_03h59.08.100,Simcolourproject_2stim_asymm_v5,2020.2.10,Win32,60,61025ae37ef11b136ea224fe,,,,,,,,,1591,54.40001225,-70.40000749,1,0,0,response3disk,,4,16.00001168,-8.000006557,1,0,0,rectangle,-115.1999903,-48.00000715,1,0,0,-10.39993988,11.19999373,1,0,0,0,87,87,109,1,,response5disk_3,TRUE,2,2,"[315,84,60,311,194,60,296,152,196,96,146,103,273,15,88,231,11,196,217,180]",1.3887,rectangle
,,,,,,,,,,,,,FF,,,,,,,,0.8123,,,,,,,,,,,,,,,,,,,,,,605f064127eec9cb4494b4d9,61036acc047d57234b058b71,2021-07-30_03h59.08.100,Simcolourproject_2stim_asymm_v5,2020.2.10,Win32,60,61025ae37ef11b136ea224fe,,,,,,,,,1800,44.80001211,-78.40000761,1,0,0,response3disk,,4,-4.799988627,7.999993682,1,0,0,rectangle,-4.799988627,7.999993682,1,0,0,-4.799988627,7.999993682,1,0,0,0,88,88,93,1,,,,,,,,
,,,,,,,,,,,,,FF,,,,,,,,0.6877,,,,,,,,,,,,,,,,,,,,,,605f064127eec9cb4494b4d9,61036acc047d57234b058b71,2021-07-30_03h59.08.100,Simcolourproject_2stim_asymm_v5,2020.2.10,Win32,60,61025ae37ef11b136ea224fe,,,,,,,,,2850,75.20001256,-36.00000697,1,0,0,response3disk,,5,8.000011563,-1.600006461,1,0,0,rectangle,8.000011563,-1.600006461,1,0,0,8.000011563,-1.600006461,1,0,0,0,89,89,31,1,,,,,,,,
,,,,,,,,,,,,,FF,,,,,,,,0.8402,,,,,,,,,,,,,,,,,,,,,,605f064127eec9cb4494b4d9,61036acc047d57234b058b71,2021-07-30_03h59.08.100,Simcolourproject_2stim_asymm_v5,2020.2.10,Win32,60,61025ae37ef11b136ea224fe,,,,,,,,,1695,79.20001262,-55.20000726,1,0,0,response3disk,,5,2.40001148,-4.800006509,1,0,0,rectangle,2.40001148,-4.800006509,1,0,0,2.40001148,-4.800006509,1,0,0,0,90,90,106,1,,,,,,,,
,,,,,,,,,,,,,FF,,,,,,,,0.6663,,,,,,,,,,,,,,,,,,,,,,605f064127eec9cb4494b4d9,61036acc047d57234b058b71,2021-07-30_03h59.08.100,Simcolourproject_2stim_asymm_v5,2020.2.10,Win32,60,61025ae37ef11b136ea224fe,,,,,,,,,3172,44.0000121,-84.00000769,1,0,0,response3disk,,4,16.00001168,-6.4373E-06,1,0,0,rectangle,16.00001168,-6.4373E-06,1,0,0,16.00001168,-6.4373E-06,1,0,0,0,91,91,77,1,,,,,,,,
,,,,,,,,,,,,,FF,,,,,,,,1.4996,,,,,,,,,,,,,,,,,,,,,,605f064127eec9cb4494b4d9,61036acc047d57234b058b71,2021-07-30_03h59.08.100,Simcolourproject_2stim_asymm_v5,2020.2.10,Win32,60,61025ae37ef11b136ea224fe,,,,,,,,,3633,56.00001228,-44.8000071,1,0,0,response3disk,,5,20.00001174,4.799993634,1,0,0,rectangle,20.00001174,4.799993634,1,0,0,20.00001174,4.799993634,1,0,0,0,92,92,2,1,,,,,,,,
,,,,,,,,,,,,,FF,,,,,,,,0.7492,,,,,,,,,,,,,,,,,,,,,,605f064127eec9cb4494b4d9,61036acc047d57234b058b71,2021-07-30_03h59.08.100,Simcolourproject_2stim_asymm_v5,2020.2.10,Win32,60,61025ae37ef11b136ea224fe,,,,,,,,,1578,42.40001208,-72.00000751,1,0,0,response3disk,,4,4.000011504,2.399993598,1,0,0,rectangle,4.000011504,2.399993598,1,0,0,4.000011504,2.399993598,1,0,0,0,93,93,151,1,,,,,,,,
,,,,,,,,,,,,,FF,,,,,,,,0.7919,,,,,,,,,,,,,,,,,,,,,,605f064127eec9cb4494b4d9,61036acc047d57234b058b71,2021-07-30_03h59.08.100,Simcolourproject_2stim_asymm_v5,2020.2.10,Win32,60,61025ae37ef11b136ea224fe,,,,,,,,,4193,39.20001203,62.39999449,1,0,0,response1disk,,7,6.400011539,2.399993598,1,0,0,rectangle,6.400011539,2.399993598,1,0,0,6.400011539,2.399993598,1,0,0,0,94,94,121,1,,,,,,,,
,,,,,,,,,,,,,FF,,,,,,,,0.8468,,,,,,,,,,,,,,,,,,,,,,605f064127eec9cb4494b4d9,61036acc047d57234b058b71,2021-07-30_03h59.08.100,Simcolourproject_2stim_asymm_v5,2020.2.10,Win32,60,61025ae37ef11b136ea224fe,,,,,,,,,2035,-71.19998962,-40.80000705,1,0,0,response5disk,,2,4.000011504,-6.4373E-06,1,0,0,rectangle,-100.7999901,-40.80000705,1,0,0,-7.199988663,-4.000006497,1,0,0,0,95,95,46,1,,response5disk_3,TRUE,2,2,"[315,84,60,311,194,60,296,152,196,96,146,103,273,15,88,231,11,196,217,180]",1.965,rectangle
,,,,,,,,,,,,,FF,,,,,,,,0.91,,,,,,,,,,,,,,,,,,,,,,605f064127eec9cb4494b4d9,61036acc047d57234b058b71,2021-07-30_03h59.08.100,Simcolourproject_2stim_asymm_v5,2020.2.10,Win32,60,61025ae37ef11b136ea224fe,,,,,,,,,1540,-55.19998938,-75.20000756,1,0,0,response5disk,,3,-13.59998876,-3.200006485,1,0,0,rectangle,-13.59998876,-3.200006485,1,0,0,-13.59998876,-3.200006485,1,0,0,0,96,96,153,1,,,,,,,,
,,,,,,,,,,,,,FF,,,,,,,,1.2699,,,,,,,,,,,,,,,,,,,,,,605f064127eec9cb4494b4d9,61036acc047d57234b058b71,2021-07-30_03h59.08.100,Simcolourproject_2stim_asymm_v5,2020.2.10,Win32,60,61025ae37ef11b136ea224fe,,,,,,,,,1678,-69.59998959,-50.40000719,1,0,0,response5disk,,2,2.40001148,-2.400006473,1,0,0,rectangle,2.40001148,-2.400006473,1,0,0,2.40001148,-2.400006473,1,0,0,0,97,97,32,1,,,,,,,,
,,,,,,,,,,,,,FF,,,,,,,,0.6319,,,,,,,,,,,,,,,,,,,,,,605f064127eec9cb4494b4d9,61036acc047d57234b058b71,2021-07-30_03h59.08.100,Simcolourproject_2stim_asymm_v5,2020.2.10,Win32,60,61025ae37ef11b136ea224fe,,,,,,,,,3573,60.00001234,-84.00000769,1,0,0,response3disk,,4,11.20001161,-4.800006509,1,0,0,rectangle,11.20001161,-4.800006509,1,0,0,11.20001161,-4.800006509,1,0,0,0,98,98,14,1,,,,,,,,
,,,,,,,,,,,,,FF,,,,,,,,0.7429,,,,,,,,,,,,,,,,,,,,,,605f064127eec9cb4494b4d9,61036acc047d57234b058b71,2021-07-30_03h59.08.100,Simcolourproject_2stim_asymm_v5,2020.2.10,Win32,60,61025ae37ef11b136ea224fe,,,,,,,,,1702,67.20001245,-35.20000696,1,0,0,response3disk,,5,8.000011563,7.19999367,1,0,0,rectangle,8.000011563,7.19999367,1,0,0,8.000011563,7.19999367,1,0,0,0,99,99,139,1,,,,,,,,
,,,,,,,,,,,,,FF,,,,,,,,1.1595,,,,,,,,,,,,,,,,,,,,,,605f064127eec9cb4494b4d9,61036acc047d57234b058b71,2021-07-30_03h59.08.100,Simcolourproject_2stim_asymm_v5,2020.2.10,Win32,60,61025ae37ef11b136ea224fe,,,,,,,,,4347,-75.99998969,31.19996961,1,0,0,response7disk,,1,-12.79998875,-6.4373E-06,1,0,0,rectangle,-12.79998875,-6.4373E-06,1,0,0,-12.79998875,-6.4373E-06,1,0,0,0,100,100,51,1,,,,,,,,
,,,,,,,,,,,,,FF,,,,,,,,0.7562,,,,,,,,,,,,,,,,,,,,,,605f064127eec9cb4494b4d9,61036acc047d57234b058b71,2021-07-30_03h59.08.100,Simcolourproject_2stim_asymm_v5,2020.2.10,Win32,60,61025ae37ef11b136ea224fe,,,,,,,,,1954,-52.79998934,-60.80000734,1,0,0,response5disk,,3,3.200011492,5.599993646,1,0,0,rectangle,3.200011492,5.599993646,1,0,0,3.200011492,5.599993646,1,0,0,0,101,101,140,1,,,,,,,,
,,,,,,,,,,,,,FF,,,,,,,,0.7841,,,,,,,,,,,,,,,,,,,,,,605f064127eec9cb4494b4d9,61036acc047d57234b058b71,2021-07-30_03h59.08.100,Simcolourproject_2stim_asymm_v5,2020.2.10,Win32,60,61025ae37ef11b136ea224fe,,,,,,,,,3716,43.20001209,-92.80000782,1,0,0,response3disk,,4,-1.59998858,3.999993622,1,0,0,rectangle,-35.19998908,75.9999947,1,0,0,-4.799988627,2.399993598,1,0,0,0,102,102,25,1,,response7disk_3,TRUE,0,0,"[315,84,60,311,194,60,296,152,196,96,146,103,273,15,88,231,11,196,217,180]",1.8606,rectangle
,,,,,,,,,,,,,FF,,,,,,,,0.847,,,,,,,,,,,,,,,,,,,,,,605f064127eec9cb4494b4d9,61036acc047d57234b058b71,2021-07-30_03h59.08.100,Simcolourproject_2stim_asymm_v5,2020.2.10,Win32,60,61025ae37ef11b136ea224fe,,,,,,,,,372,-37.59998912,-58.40000731,1,0,0,response5disk,,3,20.00001174,2.399993598,1,0,0,rectangle,20.00001174,2.399993598,1,0,0,20.00001174,2.399993598,1,0,0,0,103,103,29,1,,,,,,,,
,,,,,,,,,,,,,FF,,,,,,,,0.8256,,,,,,,,,,,,,,,,,,,,,,605f064127eec9cb4494b4d9,61036acc047d57234b058b71,2021-07-30_03h59.08.100,Simcolourproject_2stim_asymm_v5,2020.2.10,Win32,60,61025ae37ef11b136ea224fe,,,,,,,,,1301,-103.1999901,-54.40000725,1,0,0,response5disk,,2,-15.99998879,4.799993634,1,0,0,rectangle,-15.99998879,4.799993634,1,0,0,-15.99998879,4.799993634,1,0,0,0,104,104,158,1,,,,,,,,
,,,,,,,,,,,,,FF,,,,,,,,0.7359,,,,,,,,,,,,,,,,,,,,,,605f064127eec9cb4494b4d9,61036acc047d57234b058b71,2021-07-30_03h59.08.100,Simcolourproject_2stim_asymm_v5,2020.2.10,Win32,60,61025ae37ef11b136ea224fe,,,,,,,,,712,-27.99998897,-44.8000071,1,0,0,response5disk,,3,14.40001166,10.39999372,1,0,0,rectangle,14.40001166,10.39999372,1,0,0,14.40001166,10.39999372,1,0,0,0,105,105,15,1,,,,,,,,
,,,,,,,,,,,,,FF,,,,,,,,0.6737,,,,,,,,,,,,,,,,,,,,,,605f064127eec9cb4494b4d9,61036acc047d57234b058b71,2021-07-30_03h59.08.100,Simcolourproject_2stim_asymm_v5,2020.2.10,Win32,60,61025ae37ef11b136ea224fe,,,,,,,,,2787,-82.39994096,-37.600007,1,0,0,response5disk,,2,12.00001162,5.599993646,1,0,0,rectangle,12.00001162,5.599993646,1,0,0,12.00001162,5.599993646,1,0,0,0,106,106,88,1,,,,,,,,
,,,,,,,,,,,,,FF,,,,,,,,0.7915,,,,,,,,,,,,,,,,,,,,,,605f064127eec9cb4494b4d9,61036acc047d57234b058b71,2021-07-30_03h59.08.100,Simcolourproject_2stim_asymm_v5,2020.2.10,Win32,60,61025ae37ef11b136ea224fe,,,,,,,,,1346,36.00001198,-65.60000741,1,0,0,response3disk,,4,8.000011563,3.999993622,1,0,0,rectangle,8.000011563,3.999993622,1,0,0,8.000011563,3.999993622,1,0,0,0,107,107,60,1,,,,,,,,
,,,,,,,,,,,,,FF,,,,,,,,0.8327,,,,,,,,,,,,,,,,,,,,,,605f064127eec9cb4494b4d9,61036acc047d57234b058b71,2021-07-30_03h59.08.100,Simcolourproject_2stim_asymm_v5,2020.2.10,Win32,60,61025ae37ef11b136ea224fe,,,,,,,,,2813,77.6000126,-27.20000684,1,0,0,response3disk,,5,16.00001168,-10.40000659,1,0,0,rectangle,16.00001168,-10.40000659,1,0,0,16.00001168,-10.40000659,1,0,0,0,108,108,79,1,,,,,,,,
,,,,,,,,,,,,,FF,,,,,,,,0.861,,,,,,,,,,,,,,,,,,,,,,605f064127eec9cb4494b4d9,61036acc047d57234b058b71,2021-07-30_03h59.08.100,Simcolourproject_2stim_asymm_v5,2020.2.10,Win32,60,61025ae37ef11b136ea224fe,,,,,,,,,943,54.40001225,-74.40000755,1,0,0,response3disk,,4,12.80001163,0.799993575,1,0,0,rectangle,12.80001163,0.799993575,1,0,0,12.80001163,0.799993575,1,0,0,0,109,109,63,1,,,,,,,,
,,,,,,,,,,,,,FF,,,,,,,,2.0718,,,,,,,,,,,,,,,,,,,,,,605f064127eec9cb4494b4d9,61036acc047d57234b058b71,2021-07-30_03h59.08.100,Simcolourproject_2stim_asymm_v5,2020.2.10,Win32,60,61025ae37ef11b136ea224fe,,,,,,,,,1410,72.80001253,35.19996967,1,0,0,response1disk,,6,10.4000116,-0.800006449,1,0,0,rectangle,10.4000116,-0.800006449,1,0,0,10.4000116,-0.800006449,1,0,0,0,110,110,24,1,,,,,,,,
,,,,,,,,,,,,,FF,,,,,,,,0.6735,,,,,,,,,,,,,,,,,,,,,,605f064127eec9cb4494b4d9,61036acc047d57234b058b71,2021-07-30_03h59.08.100,Simcolourproject_2stim_asymm_v5,2020.2.10,Win32,60,61025ae37ef11b136ea224fe,,,,,,,,,1868,-31.99998903,-65.60000741,1,0,0,response5disk,,3,13.60006047,-6.400006533,1,0,0,rectangle,13.60006047,-6.400006533,1,0,0,13.60006047,-6.400006533,1,0,0,0,111,111,98,1,,,,,,,,
,,,,,,,,,,,,,FF,,,,,,,,0.7289,,,,,,,,,,,,,,,,,,,,,,605f064127eec9cb4494b4d9,61036acc047d57234b058b71,2021-07-30_03h59.08.100,Simcolourproject_2stim_asymm_v5,2020.2.10,Win32,60,61025ae37ef11b136ea224fe,,,,,,,,,3194,48.00001216,-76.80000758,1,0,0,response3disk,,4,11.20001161,-1.600006461,1,0,0,rectangle,11.20001161,-1.600006461,1,0,0,11.20001161,-1.600006461,1,0,0,0,112,112,37,1,,,,,,,,
,,,,,,,,,,,,,FF,,,,,,,,0.5765,,,,,,,,,,,,,,,,,,,,,,605f064127eec9cb4494b4d9,61036acc047d57234b058b71,2021-07-30_03h59.08.100,Simcolourproject_2stim_asymm_v5,2020.2.10,Win32,60,61025ae37ef11b136ea224fe,,,,,,,,,2580,51.20001221,-68.00000745,1,0,0,response3disk,,4,0.800011456,8.799993694,1,0,0,rectangle,0.800011456,8.799993694,1,0,0,0.800011456,8.799993694,1,0,0,0,113,113,137,1,,,,,,,,
,,,,,,,,,,,,,FF,,,,,,,,0.6596,,,,,,,,,,,,,,,,,,,,,,605f064127eec9cb4494b4d9,61036acc047d57234b058b71,2021-07-30_03h59.08.100,Simcolourproject_2stim_asymm_v5,2020.2.10,Win32,60,61025ae37ef11b136ea224fe,,,,,,,,,1993,96.80001289,-41.60000706,1,0,0,response3disk,,5,16.00001168,0.799993575,1,0,0,rectangle,16.00001168,0.799993575,1,0,0,16.00001168,0.799993575,1,0,0,0,114,114,135,1,,,,,,,,
,,,,,,,,,,,,,FF,,,,,,,,0.7733,,,,,,,,,,,,,,,,,,,,,,605f064127eec9cb4494b4d9,61036acc047d57234b058b71,2021-07-30_03h59.08.100,Simcolourproject_2stim_asymm_v5,2020.2.10,Win32,60,61025ae37ef11b136ea224fe,,,,,,,,,3349,70.40001249,-48.00000715,1,0,0,response3disk,,5,-3.199988604,3.999993622,1,0,0,rectangle,-3.199988604,3.999993622,1,0,0,-3.199988604,3.999993622,1,0,0,0,115,115,145,1,,,,,,,,
,,,,,,,,,,,,,FF,,,,,,,,0.7913,,,,,,,,,,,,,,,,,,,,,,605f064127eec9cb4494b4d9,61036acc047d57234b058b71,2021-07-30_03h59.08.100,Simcolourproject_2stim_asymm_v5,2020.2.10,Win32,60,61025ae37ef11b136ea224fe,,,,,,,,,831,-103.1999901,-72.00000751,1,0,0,response5disk,,2,16.00001168,9.599993706,1,0,0,rectangle,16.00001168,9.599993706,1,0,0,16.00001168,9.599993706,1,0,0,0,116,116,12,1,,,,,,,,
,,,,,,,,,,,,,FF,,,,,,,,0.8119,,,,,,,,,,,,,,,,,,,,,,605f064127eec9cb4494b4d9,61036acc047d57234b058b71,2021-07-30_03h59.08.100,Simcolourproject_2stim_asymm_v5,2020.2.10,Win32,60,61025ae37ef11b136ea224fe,,,,,,,,,3064,-36.7999891,-60.00000733,1,0,0,response5disk,,3,4.000011504,0.799993575,1,0,0,rectangle,4.000011504,0.799993575,1,0,0,4.000011504,0.799993575,1,0,0,0,117,117,8,1,,,,,,,,
,,,,,,,,,,,,,FF,,,,,,,,0.7776,,,,,,,,,,,,,,,,,,,,,,605f064127eec9cb4494b4d9,61036acc047d57234b058b71,2021-07-30_03h59.08.100,Simcolourproject_2stim_asymm_v5,2020.2.10,Win32,60,61025ae37ef11b136ea224fe,,,,,,,,,1435,50.4000122,-89.6000566,1,0,0,response3disk,,4,6.400011539,0.799993575,1,0,0,rectangle,6.400011539,0.799993575,1,0,0,6.400011539,0.799993575,1,0,0,0,118,118,62,1,,,,,,,,
,,,,,,,,,,,,,FF,,,,,,,,0.8677,,,,,,,,,,,,,,,,,,,,,,605f064127eec9cb4494b4d9,61036acc047d57234b058b71,2021-07-30_03h59.08.100,Simcolourproject_2stim_asymm_v5,2020.2.10,Win32,60,61025ae37ef11b136ea224fe,,,,,,,,,2316,74.40001255,-64.00000739,1,0,0,response3disk,,5,14.40001166,-12.80000663,1,0,0,rectangle,14.40001166,-12.80000663,1,0,0,14.40001166,-12.80000663,1,0,0,0,119,119,58,1,,,,,,,,
,,,,,,,,,,,,,FF,,,,,,,,0.8228,,,,,,,,,,,,,,,,,,,,,,605f064127eec9cb4494b4d9,61036acc047d57234b058b71,2021-07-30_03h59.08.100,Simcolourproject_2stim_asymm_v5,2020.2.10,Win32,60,61025ae37ef11b136ea224fe,,,,,,,,,2366,62.40001237,23.19996949,1,0,0,response1disk,,6,7.200011551,0.799993575,1,0,0,rectangle,7.200011551,0.799993575,1,0,0,7.200011551,0.799993575,1,0,0,0,120,120,100,1,,,,,,,,
,,,,,,,,,,,,,FF,,,,,,,,0.7426,,,,,,,,,,,,,,,,,,,,,,605f064127eec9cb4494b4d9,61036acc047d57234b058b71,2021-07-30_03h59.08.100,Simcolourproject_2stim_asymm_v5,2020.2.10,Win32,60,61025ae37ef11b136ea224fe,,,,,,,,,1533,72.80001253,37.59999412,1,0,0,response1disk,,6,20.00001174,10.39999372,1,0,0,rectangle,20.00001174,10.39999372,1,0,0,20.00001174,10.39999372,1,0,0,0,121,121,84,1,,,,,,,,
,,,,,,,,,,,,,FF,,,,,,,,0.7362,,,,,,,,,,,,,,,,,,,,,,605f064127eec9cb4494b4d9,61036acc047d57234b058b71,2021-07-30_03h59.08.100,Simcolourproject_2stim_asymm_v5,2020.2.10,Win32,60,61025ae37ef11b136ea224fe,,,,,,,,,3029,-31.99998903,-90.40000778,1,0,0,response5disk,,3,7.200011551,-7.200006545,1,0,0,rectangle,7.200011551,-7.200006545,1,0,0,7.200011551,-7.200006545,1,0,0,0,122,122,1,1,,,,,,,,
,,,,,,,,,,,,,FF,,,,,,,,0.9167,,,,,,,,,,,,,,,,,,,,,,605f064127eec9cb4494b4d9,61036acc047d57234b058b71,2021-07-30_03h59.08.100,Simcolourproject_2stim_asymm_v5,2020.2.10,Win32,60,61025ae37ef11b136ea224fe,,,,,,,,,2255,-39.99998915,-106.400008,1,0,0,response5disk,,3,-3.999988616,-3.200006485,1,0,0,rectangle,-3.999988616,-3.200006485,1,0,0,-3.999988616,-3.200006485,1,0,0,0,123,123,89,1,,,,,,,,
,,,,,,,,,,,,,FF,,,,,,,,0.8679,,,,,,,,,,,,,,,,,,,,,,605f064127eec9cb4494b4d9,61036acc047d57234b058b71,2021-07-30_03h59.08.100,Simcolourproject_2stim_asymm_v5,2020.2.10,Win32,60,61025ae37ef11b136ea224fe,,,,,,,,,1838,-87.99998987,-49.60000718,1,0,0,response5disk,,2,8.000011563,1.599993587,1,0,0,rectangle,8.000011563,1.599993587,1,0,0,8.000011563,1.599993587,1,0,0,0,124,124,129,1,,,,,,,,
,,,,,,,,,,,,,FF,,,,,,,,0.889,,,,,,,,,,,,,,,,,,,,,,605f064127eec9cb4494b4d9,61036acc047d57234b058b71,2021-07-30_03h59.08.100,Simcolourproject_2stim_asymm_v5,2020.2.10,Win32,60,61025ae37ef11b136ea224fe,,,,,,,,,2558,-48.79998928,-96.80000788,1,0,0,response5disk,,3,-18.39994,-2.400006473,1,0,0,rectangle,-18.39994,-2.400006473,1,0,0,-18.39994,-2.400006473,1,0,0,0,125,125,143,1,,,,,,,,
,,,,,,,,,,,,,FF,,,,,,,,0.9584,,,,,,,,,,,,,,,,,,,,,,605f064127eec9cb4494b4d9,61036acc047d57234b058b71,2021-07-30_03h59.08.100,Simcolourproject_2stim_asymm_v5,2020.2.10,Win32,60,61025ae37ef11b136ea224fe,,,,,,,,,3436,57.6000123,-89.6000566,1,0,0,response3disk,,4,4.800011516,-4.800006509,1,0,0,rectangle,4.800011516,-4.800006509,1,0,0,4.800011516,-4.800006509,1,0,0,0,126,126,33,1,,,,,,,,
,,,,,,,,,,,,,FF,,,,,,,,0.847,,,,,,,,,,,,,,,,,,,,,,605f064127eec9cb4494b4d9,61036acc047d57234b058b71,2021-07-30_03h59.08.100,Simcolourproject_2stim_asymm_v5,2020.2.10,Win32,60,61025ae37ef11b136ea224fe,,,,,,,,,1666,109.6000131,-40.80000705,1,0,0,response3disk,,5,6.400011539,14.39999378,1,0,0,rectangle,6.400011539,14.39999378,1,0,0,6.400011539,14.39999378,1,0,0,0,127,127,138,1,,,,,,,,
,,,,,,,,,,,,,FF,,,,,,,,0.6874,,,,,,,,,,,,,,,,,,,,,,605f064127eec9cb4494b4d9,61036acc047d57234b058b71,2021-07-30_03h59.08.100,Simcolourproject_2stim_asymm_v5,2020.2.10,Win32,60,61025ae37ef11b136ea224fe,,,,,,,,,1215,-47.99998927,26.39999396,1,0,0,response7disk,,1,8.000011563,3.19999361,1,0,0,rectangle,8.000011563,3.19999361,1,0,0,8.000011563,3.19999361,1,0,0,0,128,128,20,1,,,,,,,,
,,,,,,,,,,,,,FF,,,,,,,,0.7846,,,,,,,,,,,,,,,,,,,,,,605f064127eec9cb4494b4d9,61036acc047d57234b058b71,2021-07-30_03h59.08.100,Simcolourproject_2stim_asymm_v5,2020.2.10,Win32,60,61025ae37ef11b136ea224fe,,,,,,,,,940,-32.79998904,-86.40000772,1,0,0,response5disk,,3,3.200011492,-0.800006449,1,0,0,rectangle,3.200011492,-0.800006449,1,0,0,3.200011492,-0.800006449,1,0,0,0,129,129,9,1,,,,,,,,
,,,,,,,,,,,,,FF,,,,,,,,0.712,,,,,,,,,,,,,,,,,,,,,,605f064127eec9cb4494b4d9,61036acc047d57234b058b71,2021-07-30_03h59.08.100,Simcolourproject_2stim_asymm_v5,2020.2.10,Win32,60,61025ae37ef11b136ea224fe,,,,,,,,,1910,48.80001217,-92.80000782,1,0,0,response3disk,,4,4.000011504,3.999993622,1,0,0,rectangle,4.000011504,3.999993622,1,0,0,4.000011504,3.999993622,1,0,0,0,130,130,113,1,,,,,,,,
,,,,,,,,,,,,,FF,,,,,,,,1.1459,,,,,,,,,,,,,,,,,,,,,,605f064127eec9cb4494b4d9,61036acc047d57234b058b71,2021-07-30_03h59.08.100,Simcolourproject_2stim_asymm_v5,2020.2.10,Win32,60,61025ae37ef11b136ea224fe,,,,,,,,,4069,-69.59998959,-37.600007,1,0,0,response5disk,,2,10.4000116,11.19999373,1,0,0,rectangle,10.4000116,11.19999373,1,0,0,10.4000116,11.19999373,1,0,0,0,131,131,65,1,,,,,,,,
,,,,,,,,,,,,,FF,,,,,,,,1.7125,,,,,,,,,,,,,,,,,,,,,,605f064127eec9cb4494b4d9,61036acc047d57234b058b71,2021-07-30_03h59.08.100,Simcolourproject_2stim_asymm_v5,2020.2.10,Win32,60,61025ae37ef11b136ea224fe,,,,,,,,,3243,96.80001289,-44.00000709,1,0,0,response3disk,,5,9.600060415,-3.200006485,1,0,0,rectangle,9.600060415,-3.200006485,1,0,0,9.600060415,-3.200006485,1,0,0,0,132,132,27,1,,,,,,,,
,,,,,,,,,,,,,FF,,,,,,,,1.1871,,,,,,,,,,,,,,,,,,,,,,605f064127eec9cb4494b4d9,61036acc047d57234b058b71,2021-07-30_03h59.08.100,Simcolourproject_2stim_asymm_v5,2020.2.10,Win32,60,61025ae37ef11b136ea224fe,,,,,,,,,1048,-71.19998962,-40.00000703,1,0,0,response5disk,,2,-11.19998872,-5.600006521,1,0,0,rectangle,-11.19998872,-5.600006521,1,0,0,-11.19998872,-5.600006521,1,0,0,0,133,133,94,1,,,,,,,,
,,,,,,,,,,,,,FF,,,,,,,,0.9167,,,,,,,,,,,,,,,,,,,,,,605f064127eec9cb4494b4d9,61036acc047d57234b058b71,2021-07-30_03h59.08.100,Simcolourproject_2stim_asymm_v5,2020.2.10,Win32,60,61025ae37ef11b136ea224fe,,,,,,,,,3108,-95.99998999,-44.00000709,1,0,0,response5disk,,2,-1.59998858,4.799993634,1,0,0,rectangle,-1.59998858,4.799993634,1,0,0,-1.59998858,4.799993634,1,0,0,0,134,134,66,1,,,,,,,,
,,,,,,,,,,,,,FF,,,,,,,,0.7844,,,,,,,,,,,,,,,,,,,,,,605f064127eec9cb4494b4d9,61036acc047d57234b058b71,2021-07-30_03h59.08.100,Simcolourproject_2stim_asymm_v5,2020.2.10,Win32,60,61025ae37ef11b136ea224fe,,,,,,,,,3516,-69.59998959,23.19996949,1,0,0,response7disk,,1,-5.599988639,2.399993598,1,0,0,rectangle,-5.599988639,2.399993598,1,0,0,-5.599988639,2.399993598,1,0,0,0,135,135,112,1,,,,,,,,
,,,,,,,,,,,,,FF,,,,,,,,0.6619,,,,,,,,,,,,,,,,,,,,,,605f064127eec9cb4494b4d9,61036acc047d57234b058b71,2021-07-30_03h59.08.100,Simcolourproject_2stim_asymm_v5,2020.2.10,Win32,60,61025ae37ef11b136ea224fe,,,,,,,,,1704,-42.39994036,-72.80000752,1,0,0,response5disk,,3,9.600060415,5.599993646,1,0,0,rectangle,9.600060415,5.599993646,1,0,0,9.600060415,5.599993646,1,0,0,0,136,136,54,1,,,,,,,,
,,,,,,,,,,,,,FF,,,,,,,,0.7361,,,,,,,,,,,,,,,,,,,,,,605f064127eec9cb4494b4d9,61036acc047d57234b058b71,2021-07-30_03h59.08.100,Simcolourproject_2stim_asymm_v5,2020.2.10,Win32,60,61025ae37ef11b136ea224fe,,,,,,,,,911,44.0000121,-80.80000764,1,0,0,response3disk,,4,-2.399939764,5.599993646,1,0,0,rectangle,-2.399939764,5.599993646,1,0,0,-2.399939764,5.599993646,1,0,0,0,137,137,22,1,,,,,,,,
,,,,,,,,,,,,,FF,,,,,,,,0.7634,,,,,,,,,,,,,,,,,,,,,,605f064127eec9cb4494b4d9,61036acc047d57234b058b71,2021-07-30_03h59.08.100,Simcolourproject_2stim_asymm_v5,2020.2.10,Win32,60,61025ae37ef11b136ea224fe,,,,,,,,,2171,-71.99998963,-62.40000737,1,0,0,response5disk,,2,4.800011516,5.599993646,1,0,0,rectangle,4.800011516,5.599993646,1,0,0,4.800011516,5.599993646,1,0,0,0,138,138,127,1,,,,,,,,
,,,,,,,,,,,,,FF,,,,,,,,1.0072,,,,,,,,,,,,,,,,,,,,,,605f064127eec9cb4494b4d9,61036acc047d57234b058b71,2021-07-30_03h59.08.100,Simcolourproject_2stim_asymm_v5,2020.2.10,Win32,60,61025ae37ef11b136ea224fe,,,,,,,,,3865,96.00001287,-76.00000757,1,0,0,response3disk,,5,-15.19998878,-0.800006449,1,0,0,rectangle,-15.19998878,-0.800006449,1,0,0,-15.19998878,-0.800006449,1,0,0,0,139,139,133,1,,,,,,,,
,,,,,,,,,,,,,FF,,,,,,,,0.916,,,,,,,,,,,,,,,,,,,,,,605f064127eec9cb4494b4d9,61036acc047d57234b058b71,2021-07-30_03h59.08.100,Simcolourproject_2stim_asymm_v5,2020.2.10,Win32,60,61025ae37ef11b136ea224fe,,,,,,,,,741,58.40001231,19.19999385,1,0,0,response1disk,,6,0.800011456,-5.600006521,1,0,0,rectangle,0.800011456,-5.600006521,1,0,0,0.800011456,-5.600006521,1,0,0,0,140,140,142,1,,,,,,,,
,,,,,,,,,,,,,FF,,,,,,,,0.8193,,,,,,,,,,,,,,,,,,,,,,605f064127eec9cb4494b4d9,61036acc047d57234b058b71,2021-07-30_03h59.08.100,Simcolourproject_2stim_asymm_v5,2020.2.10,Win32,60,61025ae37ef11b136ea224fe,,,,,,,,,1188,-34.39994024,-64.00000739,1,0,0,response5disk,,3,10.4000116,9.599993706,1,0,0,rectangle,10.4000116,9.599993706,1,0,0,10.4000116,9.599993706,1,0,0,0,141,141,36,1,,,,,,,,
,,,,,,,,,,,,,FF,,,,,,,,0.6734,,,,,,,,,,,,,,,,,,,,,,605f064127eec9cb4494b4d9,61036acc047d57234b058b71,2021-07-30_03h59.08.100,Simcolourproject_2stim_asymm_v5,2020.2.10,Win32,60,61025ae37ef11b136ea224fe,,,,,,,,,2012,37.60006083,73.59999466,1,0,0,response1disk,,7,20.80001175,12.79999375,1,0,0,rectangle,20.80001175,12.79999375,1,0,0,20.80001175,12.79999375,1,0,0,0,142,142,150,1,,,,,,,,
,,,,,,,,,,,,,FF,,,,,,,,1.1319,,,,,,,,,,,,,,,,,,,,,,605f064127eec9cb4494b4d9,61036acc047d57234b058b71,2021-07-30_03h59.08.100,Simcolourproject_2stim_asymm_v5,2020.2.10,Win32,60,61025ae37ef11b136ea224fe,,,,,,,,,2402,35.20001197,82.39999479,1,0,0,response1disk,,7,16.80001169,-6.400006533,1,0,0,rectangle,16.80001169,-6.400006533,1,0,0,16.80001169,-6.400006533,1,0,0,0,143,143,6,1,,,,,,,,
,,,,,,,,,,,,,FF,,,,,,,,0.6521,,,,,,,,,,,,,,,,,,,,,,605f064127eec9cb4494b4d9,61036acc047d57234b058b71,2021-07-30_03h59.08.100,Simcolourproject_2stim_asymm_v5,2020.2.10,Win32,60,61025ae37ef11b136ea224fe,,,,,,,,,1079,67.20001245,-36.80000699,1,0,0,response3disk,,5,2.40001148,6.399993658,1,0,0,rectangle,2.40001148,6.399993658,1,0,0,2.40001148,6.399993658,1,0,0,0,144,144,101,1,,,,,,,,
,,,,,,,,,,,,,FF,,,,,,,,0.7473,,,,,,,,,,,,,,,,,,,,,,605f064127eec9cb4494b4d9,61036acc047d57234b058b71,2021-07-30_03h59.08.100,Simcolourproject_2stim_asymm_v5,2020.2.10,Win32,60,61025ae37ef11b136ea224fe,,,,,,,,,2327,48.80001217,-84.8000077,1,0,0,response3disk,,4,12.80001163,6.399993658,1,0,0,rectangle,99.20001292,-76.80000758,1,0,0,7.200011551,15.19999379,1,0,0,0,145,145,148,1,,response3disk_3,TRUE,5,5,"[315,84,60,311,194,60,296,152,196,96,146,103,273,15,88,231,11,196,217,180]",3.0793,rectangle
,,,,,,,,,,,,,FF,,,,,,,,0.7431,,,,,,,,,,,,,,,,,,,,,,605f064127eec9cb4494b4d9,61036acc047d57234b058b71,2021-07-30_03h59.08.100,Simcolourproject_2stim_asymm_v5,2020.2.10,Win32,60,61025ae37ef11b136ea224fe,,,,,,,,,3982,-39.19998914,-70.40000749,1,0,0,response5disk,,3,1.600060296,1.599993587,1,0,0,rectangle,1.600060296,1.599993587,1,0,0,1.600060296,1.599993587,1,0,0,0,146,146,103,1,,,,,,,,
,,,,,,,,,,,,,FF,,,,,,,,0.7494,,,,,,,,,,,,,,,,,,,,,,605f064127eec9cb4494b4d9,61036acc047d57234b058b71,2021-07-30_03h59.08.100,Simcolourproject_2stim_asymm_v5,2020.2.10,Win32,60,61025ae37ef11b136ea224fe,,,,,,,,,275,-70.39994078,-63.20000738,1,0,0,response5disk,,2,8.000011563,-6.4373E-06,1,0,0,rectangle,8.000011563,-6.4373E-06,1,0,0,8.000011563,-6.4373E-06,1,0,0,0,147,147,99,1,,,,,,,,
,,,,,,,,,,,,,FF,,,,,,,,0.6378,,,,,,,,,,,,,,,,,,,,,,605f064127eec9cb4494b4d9,61036acc047d57234b058b71,2021-07-30_03h59.08.100,Simcolourproject_2stim_asymm_v5,2020.2.10,Win32,60,61025ae37ef11b136ea224fe,,,,,,,,,3222,-31.99998903,-57.6000073,1,0,0,response5disk,,3,-10.39993988,1.599993587,1,0,0,rectangle,-10.39993988,1.599993587,1,0,0,-10.39993988,1.599993587,1,0,0,0,148,148,17,1,,,,,,,,
,,,,,,,,,,,,,FF,,,,,,,,0.8677,,,,,,,,,,,,,,,,,,,,,,605f064127eec9cb4494b4d9,61036acc047d57234b058b71,2021-07-30_03h59.08.100,Simcolourproject_2stim_asymm_v5,2020.2.10,Win32,60,61025ae37ef11b136ea224fe,,,,,,,,,3439,-57.59998941,-32.00000691,1,0,0,response5disk,,2,-0.799988568,-8.000006557,1,0,0,rectangle,-0.799988568,-8.000006557,1,0,0,-0.799988568,-8.000006557,1,0,0,0,149,149,48,1,,,,,,,,
,,,,,,,,,,,,,FF,,,,,,,,0.8261,,,,,,,,,,,,,,,,,,,,,,605f064127eec9cb4494b4d9,61036acc047d57234b058b71,2021-07-30_03h59.08.100,Simcolourproject_2stim_asymm_v5,2020.2.10,Win32,60,61025ae37ef11b136ea224fe,,,,,,,,,3130,38.40001202,-93.60005666,1,0,0,response3disk,,4,0.800011456,5.599993646,1,0,0,rectangle,0.800011456,5.599993646,1,0,0,0.800011456,5.599993646,1,0,0,0,150,150,108,1,,,,,,,,
,,,,,,,,,,,,,FF,,,,,,,,0.9798,,,,,,,,,,,,,,,,,,,,,,605f064127eec9cb4494b4d9,61036acc047d57234b058b71,2021-07-30_03h59.08.100,Simcolourproject_2stim_asymm_v5,2020.2.10,Win32,60,61025ae37ef11b136ea224fe,,,,,,,,,546,-58.3999406,-72.00000751,1,0,0,response5disk,,3,4.800011516,-10.40000659,1,0,0,rectangle,-25.59998894,83.99999481,1,0,0,2.40001148,13.59999377,1,0,0,0,151,151,85,1,,response7disk_3,TRUE,0,0,"[315,84,60,311,194,60,296,152,196,96,146,103,273,15,88,231,11,196,217,180]",1.7843,rectangle
,,,,,,,,,,,,,FF,,,,,,,,0.9931,,,,,,,,,,,,,,,,,,,,,,605f064127eec9cb4494b4d9,61036acc047d57234b058b71,2021-07-30_03h59.08.100,Simcolourproject_2stim_asymm_v5,2020.2.10,Win32,60,61025ae37ef11b136ea224fe,,,,,,,,,569,-75.99998969,-55.20000726,1,0,0,response5disk,,2,1.14441E-05,-7.200006545,1,0,0,rectangle,1.14441E-05,-7.200006545,1,0,0,1.14441E-05,-7.200006545,1,0,0,0,152,152,55,1,,,,,,,,
,,,,,,,,,,,,,FF,,,,,,,,0.7221,,,,,,,,,,,,,,,,,,,,,,605f064127eec9cb4494b4d9,61036acc047d57234b058b71,2021-07-30_03h59.08.100,Simcolourproject_2stim_asymm_v5,2020.2.10,Win32,60,61025ae37ef11b136ea224fe,,,,,,,,,1903,-75.99998969,-43.20000708,1,0,0,response5disk,,2,-11.99998873,-11.2000066,1,0,0,rectangle,-11.99998873,-11.2000066,1,0,0,-11.99998873,-11.2000066,1,0,0,0,153,153,41,1,,,,,,,,
,,,,,,,,,,,,,FF,,,,,,,,0.6251,,,,,,,,,,,,,,,,,,,,,,605f064127eec9cb4494b4d9,61036acc047d57234b058b71,2021-07-30_03h59.08.100,Simcolourproject_2stim_asymm_v5,2020.2.10,Win32,60,61025ae37ef11b136ea224fe,,,,,,,,,27,-35.19998908,-82.40000767,1,0,0,response5disk,,3,-1.59998858,0.799993575,1,0,0,rectangle,-1.59998858,0.799993575,1,0,0,-1.59998858,0.799993575,1,0,0,0,154,154,117,1,,,,,,,,
,,,,,,,,,,,,,FF,,,,,,,,0.882,,,,,,,,,,,,,,,,,,,,,,605f064127eec9cb4494b4d9,61036acc047d57234b058b71,2021-07-30_03h59.08.100,Simcolourproject_2stim_asymm_v5,2020.2.10,Win32,60,61025ae37ef11b136ea224fe,,,,,,,,,1452,-48.79998928,73.59999466,1,0,0,response7disk,,0,2.40001148,10.39999372,1,0,0,rectangle,2.40001148,10.39999372,1,0,0,2.40001148,10.39999372,1,0,0,0,155,155,28,1,,,,,,,,
,,,,,,,,,,,,,FF,,,,,,,,0.6802,,,,,,,,,,,,,,,,,,,,,,605f064127eec9cb4494b4d9,61036acc047d57234b058b71,2021-07-30_03h59.08.100,Simcolourproject_2stim_asymm_v5,2020.2.10,Win32,60,61025ae37ef11b136ea224fe,,,,,,,,,240,44.0000121,-56.00000727,1,0,0,response3disk,,4,1.14441E-05,6.399993658,1,0,0,rectangle,1.14441E-05,6.399993658,1,0,0,1.14441E-05,6.399993658,1,0,0,0,156,156,59,1,,,,,,,,
,,,,,,,,,,,,,FF,,,,,,,,0.6275,,,,,,,,,,,,,,,,,,,,,,605f064127eec9cb4494b4d9,61036acc047d57234b058b71,2021-07-30_03h59.08.100,Simcolourproject_2stim_asymm_v5,2020.2.10,Win32,60,61025ae37ef11b136ea224fe,,,,,,,,,925,35.20001197,-62.40000737,1,0,0,response3disk,,4,5.600060356,-4.000006497,1,0,0,rectangle,5.600060356,-4.000006497,1,0,0,5.600060356,-4.000006497,1,0,0,0,157,157,119,1,,,,,,,,
,,,,,,,,,,,,,FF,,,,,,,,0.5764,,,,,,,,,,,,,,,,,,,,,,605f064127eec9cb4494b4d9,61036acc047d57234b058b71,2021-07-30_03h59.08.100,Simcolourproject_2stim_asymm_v5,2020.2.10,Win32,60,61025ae37ef11b136ea224fe,,,,,,,,,1081,40.00001204,-82.40000767,1,0,0,response3disk,,4,3.200011492,1.599993587,1,0,0,rectangle,3.200011492,1.599993587,1,0,0,3.200011492,1.599993587,1,0,0,0,158,158,144,1,,,,,,,,
,,,,,,,,,,,,,FF,,,,,,,,0.502,,,,,,,,,,,,,,,,,,,,,,605f064127eec9cb4494b4d9,61036acc047d57234b058b71,2021-07-30_03h59.08.100,Simcolourproject_2stim_asymm_v5,2020.2.10,Win32,60,61025ae37ef11b136ea224fe,,,,,,,,,2334,102.400013,-49.60000718,1,0,0,response3disk,,5,4.000011504,-1.600006461,1,0,0,rectangle,4.000011504,-1.600006461,1,0,0,4.000011504,-1.600006461,1,0,0,0,159,159,34,1,,,,,,,,
,,,,,,,,,,,,,FF,,,,,,,,0.9654,,,,,,,,,,,,,,,,,,,,,,605f064127eec9cb4494b4d9,61036acc047d57234b058b71,2021-07-30_03h59.08.100,Simcolourproject_2stim_asymm_v5,2020.2.10,Win32,60,61025ae37ef11b136ea224fe,,,,,,,,,3543,85.60001272,32.79999405,1,0,0,response1disk,,6,22.40001178,8.799993694,1,0,0,rectangle,22.40001178,8.799993694,1,0,0,22.40001178,8.799993694,1,0,0,1,0,160,10,1,,,,,,,,
,,,,,,,,,,,,,FF,,,,,,,,0.8955,,,,,,,,,,,,,,,,,,,,,,605f064127eec9cb4494b4d9,61036acc047d57234b058b71,2021-07-30_03h59.08.100,Simcolourproject_2stim_asymm_v5,2020.2.10,Win32,60,61025ae37ef11b136ea224fe,,,,,,,,,3016,50.4000122,87.19997045,1,0,0,response1disk,,7,20.80001175,0.799993575,1,0,0,rectangle,20.80001175,0.799993575,1,0,0,20.80001175,0.799993575,1,0,0,1,1,161,65,1,,,,,,,,
,,,,,,,,,,,,,FF,,,,,,,,1.8262,,,,,,,,,,,,,,,,,,,,,,605f064127eec9cb4494b4d9,61036acc047d57234b058b71,2021-07-30_03h59.08.100,Simcolourproject_2stim_asymm_v5,2020.2.10,Win32,60,61025ae37ef11b136ea224fe,,,,,,,,,20,-37.59998912,-74.40000755,1,0,0,response5disk,,3,8.000011563,-5.600006521,1,0,0,rectangle,8.000011563,-5.600006521,1,0,0,8.000011563,-5.600006521,1,0,0,1,2,162,87,1,,,,,,,,
,,,,,,,,,,,,,FF,,,,,,,,0.6274,,,,,,,,,,,,,,,,,,,,,,605f064127eec9cb4494b4d9,61036acc047d57234b058b71,2021-07-30_03h59.08.100,Simcolourproject_2stim_asymm_v5,2020.2.10,Win32,60,61025ae37ef11b136ea224fe,,,,,,,,,819,-38.3999403,-77.60000759,1,0,0,response5disk,,3,-4.799988627,-13.60000664,1,0,0,rectangle,-4.799988627,-13.60000664,1,0,0,-4.799988627,-13.60000664,1,0,0,1,3,163,48,1,,,,,,,,
,,,,,,,,,,,,,FF,,,,,,,,0.7983,,,,,,,,,,,,,,,,,,,,,,605f064127eec9cb4494b4d9,61036acc047d57234b058b71,2021-07-30_03h59.08.100,Simcolourproject_2stim_asymm_v5,2020.2.10,Win32,60,61025ae37ef11b136ea224fe,,,,,,,,,1028,39.20001203,-80.80000764,1,0,0,response3disk,,4,-3.199988604,2.399993598,1,0,0,rectangle,-3.199988604,2.399993598,1,0,0,-3.199988604,2.399993598,1,0,0,1,4,164,134,1,,,,,,,,
,,,,,,,,,,,,,FF,,,,,,,,1.0134,,,,,,,,,,,,,,,,,,,,,,605f064127eec9cb4494b4d9,61036acc047d57234b058b71,2021-07-30_03h59.08.100,Simcolourproject_2stim_asymm_v5,2020.2.10,Win32,60,61025ae37ef11b136ea224fe,,,,,,,,,3845,-77.59998971,24.79999393,1,0,0,response7disk,,1,-12.79998875,3.999993622,1,0,0,rectangle,-12.79998875,3.999993622,1,0,0,-12.79998875,3.999993622,1,0,0,1,5,165,123,1,,,,,,,,
,,,,,,,,,,,,,FF,,,,,,,,1.7284,,,,,,,,,,,,,,,,,,,,,,605f064127eec9cb4494b4d9,61036acc047d57234b058b71,2021-07-30_03h59.08.100,Simcolourproject_2stim_asymm_v5,2020.2.10,Win32,60,61025ae37ef11b136ea224fe,,,,,,,,,2290,-56.7999894,44.79999423,1,0,0,response7disk,,1,7.200011551,-13.60000664,1,0,0,rectangle,7.200011551,-13.60000664,1,0,0,7.200011551,-13.60000664,1,0,0,1,6,166,50,1,,,,,,,,
,,,,,,,,,,,,,FF,,,,,,,,0.9025,,,,,,,,,,,,,,,,,,,,,,605f064127eec9cb4494b4d9,61036acc047d57234b058b71,2021-07-30_03h59.08.100,Simcolourproject_2stim_asymm_v5,2020.2.10,Win32,60,61025ae37ef11b136ea224fe,,,,,,,,,4198,-51.99998933,-65.60000741,1,0,0,response5disk,,3,-4.799988627,-8.000006557,1,0,0,rectangle,-4.799988627,-8.000006557,1,0,0,-4.799988627,-8.000006557,1,0,0,1,7,167,108,1,,,,,,,,
,,,,,,,,,,,,,FF,,,,,,,,0.9161,,,,,,,,,,,,,,,,,,,,,,605f064127eec9cb4494b4d9,61036acc047d57234b058b71,2021-07-30_03h59.08.100,Simcolourproject_2stim_asymm_v5,2020.2.10,Win32,60,61025ae37ef11b136ea224fe,,,,,,,,,2398,98.40001291,38.39999413,1,0,0,response1disk,,6,24.80001181,-2.400006473,1,0,0,rectangle,24.80001181,-2.400006473,1,0,0,24.80001181,-2.400006473,1,0,0,1,8,168,37,1,,,,,,,,
,,,,,,,,,,,,,FF,,,,,,,,0.7911,,,,,,,,,,,,,,,,,,,,,,605f064127eec9cb4494b4d9,61036acc047d57234b058b71,2021-07-30_03h59.08.100,Simcolourproject_2stim_asymm_v5,2020.2.10,Win32,60,61025ae37ef11b136ea224fe,,,,,,,,,3192,-58.3999406,31.99999404,1,0,0,response7disk,,1,-23.99998891,-6.4373E-06,1,0,0,rectangle,-23.99998891,-6.4373E-06,1,0,0,-23.99998891,-6.4373E-06,1,0,0,1,9,169,14,1,,,,,,,,
,,,,,,,,,,,,,FF,,,,,,,,0.7431,,,,,,,,,,,,,,,,,,,,,,605f064127eec9cb4494b4d9,61036acc047d57234b058b71,2021-07-30_03h59.08.100,Simcolourproject_2stim_asymm_v5,2020.2.10,Win32,60,61025ae37ef11b136ea224fe,,,,,,,,,215,50.4000122,-72.80000752,1,0,0,response3disk,,4,7.200011551,8.799993694,1,0,0,rectangle,7.200011551,8.799993694,1,0,0,7.200011551,8.799993694,1,0,0,1,10,170,43,1,,,,,,,,
,,,,,,,,,,,,,FF,,,,,,,,1.1664,,,,,,,,,,,,,,,,,,,,,,605f064127eec9cb4494b4d9,61036acc047d57234b058b71,2021-07-30_03h59.08.100,Simcolourproject_2stim_asymm_v5,2020.2.10,Win32,60,61025ae37ef11b136ea224fe,,,,,,,,,359,105.600013,-64.8000074,1,0,0,response3disk,,5,15.20001167,-3.200006485,1,0,0,rectangle,15.20001167,-3.200006485,1,0,0,15.20001167,-3.200006485,1,0,0,1,11,171,109,1,,,,,,,,
,,,,,,,,,,,,,FF,,,,,,,,1.9645,,,,,,,,,,,,,,,,,,,,,,605f064127eec9cb4494b4d9,61036acc047d57234b058b71,2021-07-30_03h59.08.100,Simcolourproject_2stim_asymm_v5,2020.2.10,Win32,60,61025ae37ef11b136ea224fe,,,,,,,,,4277,47.20001215,-75.20000756,1,0,0,response3disk,,4,16.00001168,-2.400006473,1,0,0,rectangle,16.00001168,-2.400006473,1,0,0,16.00001168,-2.400006473,1,0,0,1,12,172,49,1,,,,,,,,
,,,,,,,,,,,,,FF,,,,,,,,0.6601,,,,,,,,,,,,,,,,,,,,,,605f064127eec9cb4494b4d9,61036acc047d57234b058b71,2021-07-30_03h59.08.100,Simcolourproject_2stim_asymm_v5,2020.2.10,Win32,60,61025ae37ef11b136ea224fe,,,,,,,,,756,37.60006083,-30.40000689,1,0,0,response3disk,,5,-7.199988663,-6.400006533,1,0,0,rectangle,-7.199988663,-6.400006533,1,0,0,-7.199988663,-6.400006533,1,0,0,1,13,173,149,1,,,,,,,,
,,,,,,,,,,,,,FF,,,,,,,,0.796,,,,,,,,,,,,,,,,,,,,,,605f064127eec9cb4494b4d9,61036acc047d57234b058b71,2021-07-30_03h59.08.100,Simcolourproject_2stim_asymm_v5,2020.2.10,Win32,60,61025ae37ef11b136ea224fe,,,,,,,,,974,-69.59998959,-45.60000712,1,0,0,response5disk,,2,25.60006065,1.599993587,1,0,0,rectangle,25.60006065,1.599993587,1,0,0,25.60006065,1.599993587,1,0,0,1,14,174,84,1,,,,,,,,
,,,,,,,,,,,,,FF,,,,,,,,0.9762,,,,,,,,,,,,,,,,,,,,,,605f064127eec9cb4494b4d9,61036acc047d57234b058b71,2021-07-30_03h59.08.100,Simcolourproject_2stim_asymm_v5,2020.2.10,Win32,60,61025ae37ef11b136ea224fe,,,,,,,,,4363,-59.99998945,79.99999475,1,0,0,response7disk,,0,-15.99998879,-3.200006485,1,0,0,rectangle,-15.99998879,-3.200006485,1,0,0,-15.99998879,-3.200006485,1,0,0,1,15,175,140,1,,,,,,,,
,,,,,,,,,,,,,FF,,,,,,,,0.9789,,,,,,,,,,,,,,,,,,,,,,605f064127eec9cb4494b4d9,61036acc047d57234b058b71,2021-07-30_03h59.08.100,Simcolourproject_2stim_asymm_v5,2020.2.10,Win32,60,61025ae37ef11b136ea224fe,,,,,,,,,3061,-82.39994096,39.19996973,1,0,0,response7disk,,1,-11.19998872,7.999993682,1,0,0,rectangle,-11.19998872,7.999993682,1,0,0,-11.19998872,7.999993682,1,0,0,1,16,176,118,1,,,,,,,,
,,,,,,,,,,,,,FF,,,,,,,,0.7774,,,,,,,,,,,,,,,,,,,,,,605f064127eec9cb4494b4d9,61036acc047d57234b058b71,2021-07-30_03h59.08.100,Simcolourproject_2stim_asymm_v5,2020.2.10,Win32,60,61025ae37ef11b136ea224fe,,,,,,,,,1668,71.20001251,35.19996967,1,0,0,response1disk,,6,11.20001161,-6.4373E-06,1,0,0,rectangle,11.20001161,-6.4373E-06,1,0,0,11.20001161,-6.4373E-06,1,0,0,1,17,177,136,1,,,,,,,,
,,,,,,,,,,,,,FF,,,,,,,,0.7221,,,,,,,,,,,,,,,,,,,,,,605f064127eec9cb4494b4d9,61036acc047d57234b058b71,2021-07-30_03h59.08.100,Simcolourproject_2stim_asymm_v5,2020.2.10,Win32,60,61025ae37ef11b136ea224fe,,,,,,,,,4314,68.80001247,-78.40000761,1,0,0,response3disk,,4,9.600060415,-0.800006449,1,0,0,rectangle,9.600060415,-0.800006449,1,0,0,9.600060415,-0.800006449,1,0,0,1,18,178,44,1,,,,,,,,
,,,,,,,,,,,,,FF,,,,,,,,0.736,,,,,,,,,,,,,,,,,,,,,,605f064127eec9cb4494b4d9,61036acc047d57234b058b71,2021-07-30_03h59.08.100,Simcolourproject_2stim_asymm_v5,2020.2.10,Win32,60,61025ae37ef11b136ea224fe,,,,,,,,,2242,-59.19998944,-24.00000679,1,0,0,response5disk,,2,3.200011492,8.799993694,1,0,0,rectangle,45.60006095,85.59999484,1,0,0,2.40001148,-2.400006473,1,0,0,1,19,179,152,1,,response1disk_3,TRUE,7,7,"[315,84,60,311,194,60,296,152,196,96,146,103,273,15,88,231,11,196,217,180]",1.7082,rectangle
,,,,,,,,,,,,,FF,,,,,,,,0.9438,,,,,,,,,,,,,,,,,,,,,,605f064127eec9cb4494b4d9,61036acc047d57234b058b71,2021-07-30_03h59.08.100,Simcolourproject_2stim_asymm_v5,2020.2.10,Win32,60,61025ae37ef11b136ea224fe,,,,,,,,,2479,21.60006059,-89.6000566,1,0,0,response3disk,,4,-15.19998878,9.599993706,1,0,0,rectangle,-15.19998878,9.599993706,1,0,0,-15.19998878,9.599993706,1,0,0,1,20,180,117,1,,,,,,,,
,,,,,,,,,,,,,FF,,,,,,,,0.9098,,,,,,,,,,,,,,,,,,,,,,605f064127eec9cb4494b4d9,61036acc047d57234b058b71,2021-07-30_03h59.08.100,Simcolourproject_2stim_asymm_v5,2020.2.10,Win32,60,61025ae37ef11b136ea224fe,,,,,,,,,3623,-59.99998945,31.99999404,1,0,0,response7disk,,1,-29.599989,7.19999367,1,0,0,rectangle,-29.599989,7.19999367,1,0,0,-29.599989,7.19999367,1,0,0,1,21,181,23,1,,,,,,,,
,,,,,,,,,,,,,FF,,,,,,,,0.6662,,,,,,,,,,,,,,,,,,,,,,605f064127eec9cb4494b4d9,61036acc047d57234b058b71,2021-07-30_03h59.08.100,Simcolourproject_2stim_asymm_v5,2020.2.10,Win32,60,61025ae37ef11b136ea224fe,,,,,,,,,3850,-59.19998944,-41.60000706,1,0,0,response5disk,,2,23.20001179,7.19999367,1,0,0,rectangle,23.20001179,7.19999367,1,0,0,23.20001179,7.19999367,1,0,0,1,22,182,53,1,,,,,,,,
,,,,,,,,,,,,,FF,,,,,,,,0.7216,,,,,,,,,,,,,,,,,,,,,,605f064127eec9cb4494b4d9,61036acc047d57234b058b71,2021-07-30_03h59.08.100,Simcolourproject_2stim_asymm_v5,2020.2.10,Win32,60,61025ae37ef11b136ea224fe,,,,,,,,,185,-24.79998893,81.59999478,1,0,0,response7disk,,0,8.800011575,15.9999938,1,0,0,rectangle,8.800011575,15.9999938,1,0,0,8.800011575,15.9999938,1,0,0,1,23,183,159,1,,,,,,,,
,,,,,,,,,,,,,FF,,,,,,,,0.7292,,,,,,,,,,,,,,,,,,,,,,605f064127eec9cb4494b4d9,61036acc047d57234b058b71,2021-07-30_03h59.08.100,Simcolourproject_2stim_asymm_v5,2020.2.10,Win32,60,61025ae37ef11b136ea224fe,,,,,,,,,1420,-37.59998912,-88.00000775,1,0,0,response5disk,,3,7.200011551,-6.400006533,1,0,0,rectangle,7.200011551,-6.400006533,1,0,0,7.200011551,-6.400006533,1,0,0,1,24,184,7,1,,,,,,,,
,,,,,,,,,,,,,FF,,,,,,,,0.6871,,,,,,,,,,,,,,,,,,,,,,605f064127eec9cb4494b4d9,61036acc047d57234b058b71,2021-07-30_03h59.08.100,Simcolourproject_2stim_asymm_v5,2020.2.10,Win32,60,61025ae37ef11b136ea224fe,,,,,,,,,891,-65.59998953,-42.40000707,1,0,0,response5disk,,2,14.40001166,9.599993706,1,0,0,rectangle,14.40001166,9.599993706,1,0,0,14.40001166,9.599993706,1,0,0,1,25,185,78,1,,,,,,,,
,,,,,,,,,,,,,FF,,,,,,,,0.6667,,,,,,,,,,,,,,,,,,,,,,605f064127eec9cb4494b4d9,61036acc047d57234b058b71,2021-07-30_03h59.08.100,Simcolourproject_2stim_asymm_v5,2020.2.10,Win32,60,61025ae37ef11b136ea224fe,,,,,,,,,3921,42.40001208,-70.40000749,1,0,0,response3disk,,4,13.60006047,-11.2000066,1,0,0,rectangle,13.60006047,-11.2000066,1,0,0,13.60006047,-11.2000066,1,0,0,1,26,186,40,1,,,,,,,,
,,,,,,,,,,,,,FF,,,,,,,,0.729,,,,,,,,,,,,,,,,,,,,,,605f064127eec9cb4494b4d9,61036acc047d57234b058b71,2021-07-30_03h59.08.100,Simcolourproject_2stim_asymm_v5,2020.2.10,Win32,60,61025ae37ef11b136ea224fe,,,,,,,,,473,82.40001267,-66.40000743,1,0,0,response3disk,,5,12.00001162,-15.20000666,1,0,0,rectangle,12.00001162,-15.20000666,1,0,0,12.00001162,-15.20000666,1,0,0,1,27,187,91,1,,,,,,,,
,,,,,,,,,,,,,FF,,,,,,,,1.4518,,,,,,,,,,,,,,,,,,,,,,605f064127eec9cb4494b4d9,61036acc047d57234b058b71,2021-07-30_03h59.08.100,Simcolourproject_2stim_asymm_v5,2020.2.10,Win32,60,61025ae37ef11b136ea224fe,,,,,,,,,711,76.00001258,47.19996985,1,0,0,response1disk,,6,14.40001166,-6.4373E-06,1,0,0,rectangle,14.40001166,-6.4373E-06,1,0,0,14.40001166,-6.4373E-06,1,0,0,1,28,188,8,1,,,,,,,,
,,,,,,,,,,,,,FF,,,,,,,,0.7424,,,,,,,,,,,,,,,,,,,,,,605f064127eec9cb4494b4d9,61036acc047d57234b058b71,2021-07-30_03h59.08.100,Simcolourproject_2stim_asymm_v5,2020.2.10,Win32,60,61025ae37ef11b136ea224fe,,,,,,,,,498,38.40001202,61.59999448,1,0,0,response1disk,,7,12.00001162,-6.4373E-06,1,0,0,rectangle,12.00001162,-6.4373E-06,1,0,0,12.00001162,-6.4373E-06,1,0,0,1,29,189,64,1,,,,,,,,
,,,,,,,,,,,,,FF,,,,,,,,0.6046,,,,,,,,,,,,,,,,,,,,,,605f064127eec9cb4494b4d9,61036acc047d57234b058b71,2021-07-30_03h59.08.100,Simcolourproject_2stim_asymm_v5,2020.2.10,Win32,60,61025ae37ef11b136ea224fe,,,,,,,,,386,52.80001223,69.5999946,1,0,0,response1disk,,7,15.20001167,3.999993622,1,0,0,rectangle,15.20001167,3.999993622,1,0,0,15.20001167,3.999993622,1,0,0,1,30,190,6,1,,,,,,,,
,,,,,,,,,,,,,FF,,,,,,,,0.9577,,,,,,,,,,,,,,,,,,,,,,605f064127eec9cb4494b4d9,61036acc047d57234b058b71,2021-07-30_03h59.08.100,Simcolourproject_2stim_asymm_v5,2020.2.10,Win32,60,61025ae37ef11b136ea224fe,,,,,,,,,2867,109.6000131,-38.40000701,1,0,0,response3disk,,5,20.80001175,-2.400006473,1,0,0,rectangle,20.80001175,-2.400006473,1,0,0,20.80001175,-2.400006473,1,0,0,1,31,191,81,1,,,,,,,,
,,,,,,,,,,,,,FF,,,,,,,,0.7981,,,,,,,,,,,,,,,,,,,,,,605f064127eec9cb4494b4d9,61036acc047d57234b058b71,2021-07-30_03h59.08.100,Simcolourproject_2stim_asymm_v5,2020.2.10,Win32,60,61025ae37ef11b136ea224fe,,,,,,,,,225,-52.79998934,-64.8000074,1,0,0,response5disk,,3,12.80001163,-6.4373E-06,1,0,0,rectangle,12.80001163,-6.4373E-06,1,0,0,12.80001163,-6.4373E-06,1,0,0,1,32,192,154,1,,,,,,,,
,,,,,,,,,,,,,FF,,,,,,,,0.9373,,,,,,,,,,,,,,,,,,,,,,605f064127eec9cb4494b4d9,61036acc047d57234b058b71,2021-07-30_03h59.08.100,Simcolourproject_2stim_asymm_v5,2020.2.10,Win32,60,61025ae37ef11b136ea224fe,,,,,,,,,306,103.200013,-56.80000728,1,0,0,response3disk,,5,26.40001184,-7.200006545,1,0,0,rectangle,126.4000133,36.79999411,1,0,0,5.600060356,-4.000006497,1,0,0,1,33,193,158,1,,response1disk_3,TRUE,6,6,"[315,84,60,311,194,60,296,152,196,96,146,103,273,15,88,231,11,196,217,180]",1.6803,rectangle
,,,,,,,,,,,,,FF,,,,,,,,0.9862,,,,,,,,,,,,,,,,,,,,,,605f064127eec9cb4494b4d9,61036acc047d57234b058b71,2021-07-30_03h59.08.100,Simcolourproject_2stim_asymm_v5,2020.2.10,Win32,60,61025ae37ef11b136ea224fe,,,,,,,,,2526,46.40001214,-87.20000774,1,0,0,response3disk,,4,4.000011504,3.19999361,1,0,0,rectangle,4.000011504,3.19999361,1,0,0,4.000011504,3.19999361,1,0,0,1,34,194,144,1,,,,,,,,
,,,,,,,,,,,,,FF,,,,,,,,0.7155,,,,,,,,,,,,,,,,,,,,,,605f064127eec9cb4494b4d9,61036acc047d57234b058b71,2021-07-30_03h59.08.100,Simcolourproject_2stim_asymm_v5,2020.2.10,Win32,60,61025ae37ef11b136ea224fe,,,,,,,,,919,78.40001261,-52.80000722,1,0,0,response3disk,,5,15.20001167,-16.80000669,1,0,0,rectangle,-39.99998915,-80.80000764,1,0,0,1.14441E-05,-12.00000662,1,0,0,1,35,195,45,1,,response5disk_3,TRUE,3,3,"[315,84,60,311,194,60,296,152,196,96,146,103,273,15,88,231,11,196,217,180]",1.7915,rectangle
,,,,,,,,,,,,,FF,,,,,,,,0.8332,,,,,,,,,,,,,,,,,,,,,,605f064127eec9cb4494b4d9,61036acc047d57234b058b71,2021-07-30_03h59.08.100,Simcolourproject_2stim_asymm_v5,2020.2.10,Win32,60,61025ae37ef11b136ea224fe,,,,,,,,,1894,-99.99999005,-42.40000707,1,0,0,response5disk,,2,-8.799988687,-5.600006521,1,0,0,rectangle,-8.799988687,-5.600006521,1,0,0,-8.799988687,-5.600006521,1,0,0,1,36,196,143,1,,,,,,,,
,,,,,,,,,,,,,FF,,,,,,,,1.2637,,,,,,,,,,,,,,,,,,,,,,605f064127eec9cb4494b4d9,61036acc047d57234b058b71,2021-07-30_03h59.08.100,Simcolourproject_2stim_asymm_v5,2020.2.10,Win32,60,61025ae37ef11b136ea224fe,,,,,,,,,2481,52.00001222,-94.40000784,1,0,0,response3disk,,4,-7.199988663,2.399993598,1,0,0,rectangle,-7.199988663,2.399993598,1,0,0,-7.199988663,2.399993598,1,0,0,1,37,197,133,1,,,,,,,,
,,,,,,,,,,,,,FF,,,,,,,,0.6663,,,,,,,,,,,,,,,,,,,,,,605f064127eec9cb4494b4d9,61036acc047d57234b058b71,2021-07-30_03h59.08.100,Simcolourproject_2stim_asymm_v5,2020.2.10,Win32,60,61025ae37ef11b136ea224fe,,,,,,,,,613,-78.3999409,-37.600007,1,0,0,response5disk,,2,-18.39994,-8.800006568,1,0,0,rectangle,-18.39994,-8.800006568,1,0,0,-18.39994,-8.800006568,1,0,0,1,38,198,147,1,,,,,,,,
,,,,,,,,,,,,,FF,,,,,,,,0.7221,,,,,,,,,,,,,,,,,,,,,,605f064127eec9cb4494b4d9,61036acc047d57234b058b71,2021-07-30_03h59.08.100,Simcolourproject_2stim_asymm_v5,2020.2.10,Win32,60,61025ae37ef11b136ea224fe,,,,,,,,,3588,-45.59998924,-83.20000768,1,0,0,response5disk,,3,-16.79998881,-6.400006533,1,0,0,rectangle,-16.79998881,-6.400006533,1,0,0,-16.79998881,-6.400006533,1,0,0,1,39,199,42,1,,,,,,,,
,,,,,,,,,,,,,FF,,,,,,,,0.8326,,,,,,,,,,,,,,,,,,,,,,605f064127eec9cb4494b4d9,61036acc047d57234b058b71,2021-07-30_03h59.08.100,Simcolourproject_2stim_asymm_v5,2020.2.10,Win32,60,61025ae37ef11b136ea224fe,,,,,,,,,3536,78.40001261,-45.60000712,1,0,0,response3disk,,5,-2.399939764,5.599993646,1,0,0,rectangle,-2.399939764,5.599993646,1,0,0,-2.399939764,5.599993646,1,0,0,1,40,200,135,1,,,,,,,,
,,,,,,,,,,,,,FF,,,,,,,,0.6391,,,,,,,,,,,,,,,,,,,,,,605f064127eec9cb4494b4d9,61036acc047d57234b058b71,2021-07-30_03h59.08.100,Simcolourproject_2stim_asymm_v5,2020.2.10,Win32,60,61025ae37ef11b136ea224fe,,,,,,,,,3727,57.6000123,-105.6000568,1,0,0,response3disk,,4,16.00001168,-10.40000659,1,0,0,rectangle,16.00001168,-10.40000659,1,0,0,16.00001168,-10.40000659,1,0,0,1,41,201,101,1,,,,,,,,
,,,,,,,,,,,,,FF,,,,,,,,0.6458,,,,,,,,,,,,,,,,,,,,,,605f064127eec9cb4494b4d9,61036acc047d57234b058b71,2021-07-30_03h59.08.100,Simcolourproject_2stim_asymm_v5,2020.2.10,Win32,60,61025ae37ef11b136ea224fe,,,,,,,,,3691,57.6000123,-80.00000763,1,0,0,response3disk,,4,4.800011516,12.79999375,1,0,0,rectangle,4.800011516,12.79999375,1,0,0,4.800011516,12.79999375,1,0,0,1,42,202,77,1,,,,,,,,
,,,,,,,,,,,,,FF,,,,,,,,0.77,,,,,,,,,,,,,,,,,,,,,,605f064127eec9cb4494b4d9,61036acc047d57234b058b71,2021-07-30_03h59.08.100,Simcolourproject_2stim_asymm_v5,2020.2.10,Win32,60,61025ae37ef11b136ea224fe,,,,,,,,,1247,-74.39994084,-55.20000726,1,0,0,response5disk,,2,3.200011492,-6.400006533,1,0,0,rectangle,3.200011492,-6.400006533,1,0,0,3.200011492,-6.400006533,1,0,0,1,43,203,88,1,,,,,,,,
,,,,,,,,,,,,,FF,,,,,,,,1.3611,,,,,,,,,,,,,,,,,,,,,,605f064127eec9cb4494b4d9,61036acc047d57234b058b71,2021-07-30_03h59.08.100,Simcolourproject_2stim_asymm_v5,2020.2.10,Win32,60,61025ae37ef11b136ea224fe,,,,,,,,,2543,-44.79998922,-82.40000767,1,0,0,response5disk,,3,12.80001163,3.19999361,1,0,0,rectangle,12.80001163,3.19999361,1,0,0,12.80001163,3.19999361,1,0,0,1,44,204,59,1,,,,,,,,
,,,,,,,,,,,,,FF,,,,,,,,1.3122,,,,,,,,,,,,,,,,,,,,,,605f064127eec9cb4494b4d9,61036acc047d57234b058b71,2021-07-30_03h59.08.100,Simcolourproject_2stim_asymm_v5,2020.2.10,Win32,60,61025ae37ef11b136ea224fe,,,,,,,,,633,-70.39994078,-65.60000741,1,0,0,response5disk,,2,-0.799988568,-3.200006485,1,0,0,rectangle,-0.799988568,-3.200006485,1,0,0,-0.799988568,-3.200006485,1,0,0,1,45,205,71,1,,,,,,,,
,,,,,,,,,,,,,FF,,,,,,,,0.8819,,,,,,,,,,,,,,,,,,,,,,605f064127eec9cb4494b4d9,61036acc047d57234b058b71,2021-07-30_03h59.08.100,Simcolourproject_2stim_asymm_v5,2020.2.10,Win32,60,61025ae37ef11b136ea224fe,,,,,,,,,4173,36.80001199,75.19997027,1,0,0,response1disk,,7,3.200011492,3.19999361,1,0,0,rectangle,3.200011492,3.19999361,1,0,0,3.200011492,3.19999361,1,0,0,1,46,206,12,1,,,,,,,,
,,,,,,,,,,,,,FF,,,,,,,,7.0686,,,,,,,,,,,,,,,,,,,,,,605f064127eec9cb4494b4d9,61036acc047d57234b058b71,2021-07-30_03h59.08.100,Simcolourproject_2stim_asymm_v5,2020.2.10,Win32,60,61025ae37ef11b136ea224fe,,,,,,,,,2384,40.00001204,-95.20000786,1,0,0,response3disk,,4,20.80001175,-6.400006533,1,0,0,rectangle,20.80001175,-6.400006533,1,0,0,20.80001175,-6.400006533,1,0,0,1,47,207,30,1,,,,,,,,
,,,,,,,,,,,,,FF,,,,,,,,1.8188,,,,,,,,,,,,,,,,,,,,,,605f064127eec9cb4494b4d9,61036acc047d57234b058b71,2021-07-30_03h59.08.100,Simcolourproject_2stim_asymm_v5,2020.2.10,Win32,60,61025ae37ef11b136ea224fe,,,,,,,,,2115,79.20001262,-33.60000694,1,0,0,response3disk,,5,26.40001184,1.599993587,1,0,0,rectangle,26.40001184,1.599993587,1,0,0,26.40001184,1.599993587,1,0,0,1,48,208,155,1,,,,,,,,
,,,,,,,,,,,,,FF,,,,,,,,0.8611,,,,,,,,,,,,,,,,,,,,,,605f064127eec9cb4494b4d9,61036acc047d57234b058b71,2021-07-30_03h59.08.100,Simcolourproject_2stim_asymm_v5,2020.2.10,Win32,60,61025ae37ef11b136ea224fe,,,,,,,,,2891,-81.59998977,-50.40000719,1,0,0,response5disk,,2,-6.399939823,-12.00000662,1,0,0,rectangle,-6.399939823,-12.00000662,1,0,0,-6.399939823,-12.00000662,1,0,0,1,49,209,100,1,,,,,,,,
,,,,,,,,,,,,,FF,,,,,,,,0.6525,,,,,,,,,,,,,,,,,,,,,,605f064127eec9cb4494b4d9,61036acc047d57234b058b71,2021-07-30_03h59.08.100,Simcolourproject_2stim_asymm_v5,2020.2.10,Win32,60,61025ae37ef11b136ea224fe,,,,,,,,,2362,-73.59998965,-38.40000701,1,0,0,response5disk,,2,4.800011516,11.19999373,1,0,0,rectangle,4.800011516,11.19999373,1,0,0,4.800011516,11.19999373,1,0,0,1,50,210,17,1,,,,,,,,
,,,,,,,,,,,,,FF,,,,,,,,0.639,,,,,,,,,,,,,,,,,,,,,,605f064127eec9cb4494b4d9,61036acc047d57234b058b71,2021-07-30_03h59.08.100,Simcolourproject_2stim_asymm_v5,2020.2.10,Win32,60,61025ae37ef11b136ea224fe,,,,,,,,,2916,89.60001278,-40.00000703,1,0,0,response3disk,,5,12.00001162,-1.600006461,1,0,0,rectangle,12.00001162,-1.600006461,1,0,0,12.00001162,-1.600006461,1,0,0,1,51,211,9,1,,,,,,,,
,,,,,,,,,,,,,FF,,,,,,,,0.7228,,,,,,,,,,,,,,,,,,,,,,605f064127eec9cb4494b4d9,61036acc047d57234b058b71,2021-07-30_03h59.08.100,Simcolourproject_2stim_asymm_v5,2020.2.10,Win32,60,61025ae37ef11b136ea224fe,,,,,,,,,684,45.60006095,-96.80000788,1,0,0,response3disk,,4,-8.799988687,-6.4373E-06,1,0,0,rectangle,-8.799988687,-6.4373E-06,1,0,0,-8.799988687,-6.4373E-06,1,0,0,1,52,212,139,1,,,,,,,,
,,,,,,,,,,,,,FF,,,,,,,,2.5209,,,,,,,,,,,,,,,,,,,,,,605f064127eec9cb4494b4d9,61036acc047d57234b058b71,2021-07-30_03h59.08.100,Simcolourproject_2stim_asymm_v5,2020.2.10,Win32,60,61025ae37ef11b136ea224fe,,,,,,,,,3315,39.20001203,63.99999452,1,0,0,response1disk,,7,12.00001162,8.799993694,1,0,0,rectangle,12.00001162,8.799993694,1,0,0,12.00001162,8.799993694,1,0,0,1,53,213,74,1,,,,,,,,
,,,,,,,,,,,,,FF,,,,,,,,1.1108,,,,,,,,,,,,,,,,,,,,,,605f064127eec9cb4494b4d9,61036acc047d57234b058b71,2021-07-30_03h59.08.100,Simcolourproject_2stim_asymm_v5,2020.2.10,Win32,60,61025ae37ef11b136ea224fe,,,,,,,,,3896,111.2000131,-36.80000699,1,0,0,response3disk,,5,27.20001185,-0.800006449,1,0,0,rectangle,27.20001185,-0.800006449,1,0,0,27.20001185,-0.800006449,1,0,0,1,54,214,104,1,,,,,,,,
,,,,,,,,,,,,,FF,,,,,,,,0.9376,,,,,,,,,,,,,,,,,,,,,,605f064127eec9cb4494b4d9,61036acc047d57234b058b71,2021-07-30_03h59.08.100,Simcolourproject_2stim_asymm_v5,2020.2.10,Win32,60,61025ae37ef11b136ea224fe,,,,,,,,,942,-35.19998908,-97.60005672,1,0,0,response5disk,,3,8.000011563,-12.80000663,1,0,0,rectangle,8.000011563,-12.80000663,1,0,0,8.000011563,-12.80000663,1,0,0,1,55,215,26,1,,,,,,,,
,,,,,,,,,,,,,FF,,,,,,,,0.7013,,,,,,,,,,,,,,,,,,,,,,605f064127eec9cb4494b4d9,61036acc047d57234b058b71,2021-07-30_03h59.08.100,Simcolourproject_2stim_asymm_v5,2020.2.10,Win32,60,61025ae37ef11b136ea224fe,,,,,,,,,2292,-47.99998927,72.79999465,1,0,0,response7disk,,0,-10.39993988,-7.200006545,1,0,0,rectangle,111.2000131,-71.2000075,1,0,0,12.00001162,-4.000006497,1,0,0,1,56,216,70,1,,response3disk_3,TRUE,5,5,"[315,84,60,311,194,60,296,152,196,96,146,103,273,15,88,231,11,196,217,180]",1.5619,rectangle
,,,,,,,,,,,,,FF,,,,,,,,0.9023,,,,,,,,,,,,,,,,,,,,,,605f064127eec9cb4494b4d9,61036acc047d57234b058b71,2021-07-30_03h59.08.100,Simcolourproject_2stim_asymm_v5,2020.2.10,Win32,60,61025ae37ef11b136ea224fe,,,,,,,,,963,82.40001267,-57.6000073,1,0,0,response3disk,,5,20.00001174,-4.800006509,1,0,0,rectangle,20.00001174,-4.800006509,1,0,0,20.00001174,-4.800006509,1,0,0,1,57,217,46,1,,,,,,,,
,,,,,,,,,,,,,FF,,,,,,,,0.7639,,,,,,,,,,,,,,,,,,,,,,605f064127eec9cb4494b4d9,61036acc047d57234b058b71,2021-07-30_03h59.08.100,Simcolourproject_2stim_asymm_v5,2020.2.10,Win32,60,61025ae37ef11b136ea224fe,,,,,,,,,1619,-61.59998947,-42.40000707,1,0,0,response5disk,,2,-10.39993988,-11.2000066,1,0,0,rectangle,-10.39993988,-11.2000066,1,0,0,-10.39993988,-11.2000066,1,0,0,1,58,218,121,1,,,,,,,,
,,,,,,,,,,,,,FF,,,,,,,,0.6392,,,,,,,,,,,,,,,,,,,,,,605f064127eec9cb4494b4d9,61036acc047d57234b058b71,2021-07-30_03h59.08.100,Simcolourproject_2stim_asymm_v5,2020.2.10,Win32,60,61025ae37ef11b136ea224fe,,,,,,,,,2270,-24.79998893,-70.40000749,1,0,0,response5disk,,3,12.80001163,-4.000006497,1,0,0,rectangle,12.80001163,-4.000006497,1,0,0,12.80001163,-4.000006497,1,0,0,1,59,219,4,1,,,,,,,,
,,,,,,,,,,,,,FF,,,,,,,,0.6873,,,,,,,,,,,,,,,,,,,,,,605f064127eec9cb4494b4d9,61036acc047d57234b058b71,2021-07-30_03h59.08.100,Simcolourproject_2stim_asymm_v5,2020.2.10,Win32,60,61025ae37ef11b136ea224fe,,,,,,,,,781,82.40001267,-44.00000709,1,0,0,response3disk,,5,14.40001166,-5.600006521,1,0,0,rectangle,14.40001166,-5.600006521,1,0,0,14.40001166,-5.600006521,1,0,0,1,60,220,111,1,,,,,,,,
,,,,,,,,,,,,,FF,,,,,,,,1.0555,,,,,,,,,,,,,,,,,,,,,,605f064127eec9cb4494b4d9,61036acc047d57234b058b71,2021-07-30_03h59.08.100,Simcolourproject_2stim_asymm_v5,2020.2.10,Win32,60,61025ae37ef11b136ea224fe,,,,,,,,,750,51.20001221,-97.60005672,1,0,0,response3disk,,4,12.80001163,-6.400006533,1,0,0,rectangle,12.80001163,-6.400006533,1,0,0,12.80001163,-6.400006533,1,0,0,1,61,221,146,1,,,,,,,,
,,,,,,,,,,,,,FF,,,,,,,,0.8745,,,,,,,,,,,,,,,,,,,,,,605f064127eec9cb4494b4d9,61036acc047d57234b058b71,2021-07-30_03h59.08.100,Simcolourproject_2stim_asymm_v5,2020.2.10,Win32,60,61025ae37ef11b136ea224fe,,,,,,,,,443,-34.39994024,75.9999947,1,0,0,response7disk,,0,1.14441E-05,10.39999372,1,0,0,rectangle,1.14441E-05,10.39999372,1,0,0,1.14441E-05,10.39999372,1,0,0,1,62,222,96,1,,,,,,,,
,,,,,,,,,,,,,FF,,,,,,,,0.8817,,,,,,,,,,,,,,,,,,,,,,605f064127eec9cb4494b4d9,61036acc047d57234b058b71,2021-07-30_03h59.08.100,Simcolourproject_2stim_asymm_v5,2020.2.10,Win32,60,61025ae37ef11b136ea224fe,,,,,,,,,122,-40.79998916,-108.8000081,1,0,0,response5disk,,3,19.20001173,-2.400006473,1,0,0,rectangle,19.20001173,-2.400006473,1,0,0,19.20001173,-2.400006473,1,0,0,1,63,223,124,1,,,,,,,,
,,,,,,,,,,,,,FF,,,,,,,,0.6872,,,,,,,,,,,,,,,,,,,,,,605f064127eec9cb4494b4d9,61036acc047d57234b058b71,2021-07-30_03h59.08.100,Simcolourproject_2stim_asymm_v5,2020.2.10,Win32,60,61025ae37ef11b136ea224fe,,,,,,,,,4141,-75.19998968,-49.60000718,1,0,0,response5disk,,2,-0.799988568,-2.400006473,1,0,0,rectangle,-0.799988568,-2.400006473,1,0,0,-0.799988568,-2.400006473,1,0,0,1,64,224,128,1,,,,,,,,
,,,,,,,,,,,,,FF,,,,,,,,0.7222,,,,,,,,,,,,,,,,,,,,,,605f064127eec9cb4494b4d9,61036acc047d57234b058b71,2021-07-30_03h59.08.100,Simcolourproject_2stim_asymm_v5,2020.2.10,Win32,60,61025ae37ef11b136ea224fe,,,,,,,,,1363,60.80001235,63.19997009,1,0,0,response1disk,,7,0.800011456,-4.800006509,1,0,0,rectangle,0.800011456,-4.800006509,1,0,0,0.800011456,-4.800006509,1,0,0,1,65,225,107,1,,,,,,,,
,,,,,,,,,,,,,FF,,,,,,,,0.6667,,,,,,,,,,,,,,,,,,,,,,605f064127eec9cb4494b4d9,61036acc047d57234b058b71,2021-07-30_03h59.08.100,Simcolourproject_2stim_asymm_v5,2020.2.10,Win32,60,61025ae37ef11b136ea224fe,,,,,,,,,3726,78.40001261,-56.80000728,1,0,0,response3disk,,5,15.20001167,0.799993575,1,0,0,rectangle,15.20001167,0.799993575,1,0,0,15.20001167,0.799993575,1,0,0,1,66,226,51,1,,,,,,,,
,,,,,,,,,,,,,FF,,,,,,,,0.9789,,,,,,,,,,,,,,,,,,,,,,605f064127eec9cb4494b4d9,61036acc047d57234b058b71,2021-07-30_03h59.08.100,Simcolourproject_2stim_asymm_v5,2020.2.10,Win32,60,61025ae37ef11b136ea224fe,,,,,,,,,1714,43.20001209,72.79999465,1,0,0,response1disk,,7,-1.59998858,1.599993587,1,0,0,rectangle,-1.59998858,1.599993587,1,0,0,-1.59998858,1.599993587,1,0,0,1,67,227,31,1,,,,,,,,
,,,,,,,,,,,,,FF,,,,,,,,0.7916,,,,,,,,,,,,,,,,,,,,,,605f064127eec9cb4494b4d9,61036acc047d57234b058b71,2021-07-30_03h59.08.100,Simcolourproject_2stim_asymm_v5,2020.2.10,Win32,60,61025ae37ef11b136ea224fe,,,,,,,,,3358,-81.59998977,-53.60000724,1,0,0,response5disk,,2,0.800011456,-4.000006497,1,0,0,rectangle,0.800011456,-4.000006497,1,0,0,0.800011456,-4.000006497,1,0,0,1,68,228,113,1,,,,,,,,
,,,,,,,,,,,,,FF,,,,,,,,0.8816,,,,,,,,,,,,,,,,,,,,,,605f064127eec9cb4494b4d9,61036acc047d57234b058b71,2021-07-30_03h59.08.100,Simcolourproject_2stim_asymm_v5,2020.2.10,Win32,60,61025ae37ef11b136ea224fe,,,,,,,,,985,68.80001247,-76.00000757,1,0,0,response3disk,,4,13.60006047,11.19999373,1,0,0,rectangle,13.60006047,11.19999373,1,0,0,13.60006047,11.19999373,1,0,0,1,69,229,132,1,,,,,,,,
,,,,,,,,,,,,,FF,,,,,,,,0.6946,,,,,,,,,,,,,,,,,,,,,,605f064127eec9cb4494b4d9,61036acc047d57234b058b71,2021-07-30_03h59.08.100,Simcolourproject_2stim_asymm_v5,2020.2.10,Win32,60,61025ae37ef11b136ea224fe,,,,,,,,,4118,-39.99998915,60.79999447,1,0,0,response7disk,,0,-8.799988687,3.999993622,1,0,0,rectangle,-92.79998994,-50.40000719,1,0,0,3.200011492,-3.200006485,1,0,0,1,70,230,131,1,,response5disk_3,TRUE,2,2,"[315,84,60,311,194,60,296,152,196,96,146,103,273,15,88,231,11,196,217,180]",1.8052,rectangle
,,,,,,,,,,,,,FF,,,,,,,,0.8051,,,,,,,,,,,,,,,,,,,,,,605f064127eec9cb4494b4d9,61036acc047d57234b058b71,2021-07-30_03h59.08.100,Simcolourproject_2stim_asymm_v5,2020.2.10,Win32,60,61025ae37ef11b136ea224fe,,,,,,,,,3648,92.80001283,-71.2000075,1,0,0,response3disk,,5,11.20001161,4.799993634,1,0,0,rectangle,11.20001161,4.799993634,1,0,0,11.20001161,4.799993634,1,0,0,1,71,231,58,1,,,,,,,,
,,,,,,,,,,,,,FF,,,,,,,,0.6114,,,,,,,,,,,,,,,,,,,,,,605f064127eec9cb4494b4d9,61036acc047d57234b058b71,2021-07-30_03h59.08.100,Simcolourproject_2stim_asymm_v5,2020.2.10,Win32,60,61025ae37ef11b136ea224fe,,,,,,,,,1480,40.80001205,-89.6000566,1,0,0,response3disk,,4,-3.199988604,0.799993575,1,0,0,rectangle,-3.199988604,0.799993575,1,0,0,-3.199988604,0.799993575,1,0,0,1,72,232,148,1,,,,,,,,
,,,,,,,,,,,,,FF,,,,,,,,0.7934,,,,,,,,,,,,,,,,,,,,,,605f064127eec9cb4494b4d9,61036acc047d57234b058b71,2021-07-30_03h59.08.100,Simcolourproject_2stim_asymm_v5,2020.2.10,Win32,60,61025ae37ef11b136ea224fe,,,,,,,,,3948,66.40001243,34.39999408,1,0,0,response1disk,,6,8.800011575,-6.4373E-06,1,0,0,rectangle,8.800011575,-6.4373E-06,1,0,0,8.800011575,-6.4373E-06,1,0,0,1,73,233,69,1,,,,,,,,
,,,,,,,,,,,,,FF,,,,,,,,0.9093,,,,,,,,,,,,,,,,,,,,,,605f064127eec9cb4494b4d9,61036acc047d57234b058b71,2021-07-30_03h59.08.100,Simcolourproject_2stim_asymm_v5,2020.2.10,Win32,60,61025ae37ef11b136ea224fe,,,,,,,,,1325,-45.59998924,-89.6000566,1,0,0,response5disk,,3,1.600060296,-13.60000664,1,0,0,rectangle,1.600060296,-13.60000664,1,0,0,1.600060296,-13.60000664,1,0,0,1,74,234,95,1,,,,,,,,
,,,,,,,,,,,,,FF,,,,,,,,0.8959,,,,,,,,,,,,,,,,,,,,,,605f064127eec9cb4494b4d9,61036acc047d57234b058b71,2021-07-30_03h59.08.100,Simcolourproject_2stim_asymm_v5,2020.2.10,Win32,60,61025ae37ef11b136ea224fe,,,,,,,,,2987,76.80001259,-49.60000718,1,0,0,response3disk,,5,11.20001161,-7.200006545,1,0,0,rectangle,11.20001161,-7.200006545,1,0,0,11.20001161,-7.200006545,1,0,0,1,75,235,110,1,,,,,,,,
,,,,,,,,,,,,,FF,,,,,,,,0.701,,,,,,,,,,,,,,,,,,,,,,605f064127eec9cb4494b4d9,61036acc047d57234b058b71,2021-07-30_03h59.08.100,Simcolourproject_2stim_asymm_v5,2020.2.10,Win32,60,61025ae37ef11b136ea224fe,,,,,,,,,2519,76.80001259,-28.80000687,1,0,0,response3disk,,5,15.20001167,2.399993598,1,0,0,rectangle,15.20001167,2.399993598,1,0,0,15.20001167,2.399993598,1,0,0,1,76,236,62,1,,,,,,,,
,,,,,,,,,,,,,FF,,,,,,,,0.7359,,,,,,,,,,,,,,,,,,,,,,605f064127eec9cb4494b4d9,61036acc047d57234b058b71,2021-07-30_03h59.08.100,Simcolourproject_2stim_asymm_v5,2020.2.10,Win32,60,61025ae37ef11b136ea224fe,,,,,,,,,1536,56.00001228,-84.8000077,1,0,0,response3disk,,4,17.60006053,-4.800006509,1,0,0,rectangle,17.60006053,-4.800006509,1,0,0,17.60006053,-4.800006509,1,0,0,1,77,237,29,1,,,,,,,,
,,,,,,,,,,,,,FF,,,,,,,,0.7495,,,,,,,,,,,,,,,,,,,,,,605f064127eec9cb4494b4d9,61036acc047d57234b058b71,2021-07-30_03h59.08.100,Simcolourproject_2stim_asymm_v5,2020.2.10,Win32,60,61025ae37ef11b136ea224fe,,,,,,,,,206,-77.59998971,-24.80000681,1,0,0,response5disk,,2,-14.39993994,11.99999374,1,0,0,rectangle,-14.39993994,11.99999374,1,0,0,-14.39993994,11.99999374,1,0,0,1,78,238,68,1,,,,,,,,
,,,,,,,,,,,,,FF,,,,,,,,1.0201,,,,,,,,,,,,,,,,,,,,,,605f064127eec9cb4494b4d9,61036acc047d57234b058b71,2021-07-30_03h59.08.100,Simcolourproject_2stim_asymm_v5,2020.2.10,Win32,60,61025ae37ef11b136ea224fe,,,,,,,,,4133,73.60001254,-99.20000792,1,0,0,response3disk,,4,7.200011551,-4.800006509,1,0,0,rectangle,7.200011551,-4.800006509,1,0,0,7.200011551,-4.800006509,1,0,0,1,79,239,157,1,,,,,,,,
,,,,,,,,,,,,,FF,,,,,,,,1.0418,,,,,,,,,,,,,,,,,,,,,,605f064127eec9cb4494b4d9,61036acc047d57234b058b71,2021-07-30_03h59.08.100,Simcolourproject_2stim_asymm_v5,2020.2.10,Win32,60,61025ae37ef11b136ea224fe,,,,,,,,,186,-61.59998947,16.79999381,1,0,0,response7disk,,1,-9.599988699,12.79999375,1,0,0,rectangle,-9.599988699,12.79999375,1,0,0,-9.599988699,12.79999375,1,0,0,1,80,240,75,1,,,,,,,,
,,,,,,,,,,,,,FF,,,,,,,,0.8049,,,,,,,,,,,,,,,,,,,,,,605f064127eec9cb4494b4d9,61036acc047d57234b058b71,2021-07-30_03h59.08.100,Simcolourproject_2stim_asymm_v5,2020.2.10,Win32,60,61025ae37ef11b136ea224fe,,,,,,,,,187,-63.1999895,27.19996955,1,0,0,response7disk,,1,-26.39994012,3.999993622,1,0,0,rectangle,-26.39994012,3.999993622,1,0,0,-26.39994012,3.999993622,1,0,0,1,81,241,60,1,,,,,,,,
,,,,,,,,,,,,,FF,,,,,,,,0.9851,,,,,,,,,,,,,,,,,,,,,,605f064127eec9cb4494b4d9,61036acc047d57234b058b71,2021-07-30_03h59.08.100,Simcolourproject_2stim_asymm_v5,2020.2.10,Win32,60,61025ae37ef11b136ea224fe,,,,,,,,,2496,99.20001292,40.79999417,1,0,0,response1disk,,6,5.600060356,-6.400006533,1,0,0,rectangle,5.600060356,-6.400006533,1,0,0,5.600060356,-6.400006533,1,0,0,1,82,242,142,1,,,,,,,,
,,,,,,,,,,,,,FF,,,,,,,,2.3956,,,,,,,,,,,,,,,,,,,,,,605f064127eec9cb4494b4d9,61036acc047d57234b058b71,2021-07-30_03h59.08.100,Simcolourproject_2stim_asymm_v5,2020.2.10,Win32,60,61025ae37ef11b136ea224fe,,,,,,,,,2466,70.40001249,-54.40000725,1,0,0,response3disk,,5,12.00001162,-3.200006485,1,0,0,rectangle,12.00001162,-3.200006485,1,0,0,12.00001162,-3.200006485,1,0,0,1,83,243,27,1,,,,,,,,
