key_resp.keys,key_resp.rt,key_resp_14.keys,key_resp_14.rt,key_resp_15.keys,key_resp_15.rt,key_resp_17.keys,key_resp_17.rt,key_resp_9.keys,key_resp_9.rt,key_resp_10.keys,key_resp_10.rt,practice_comparison,Ecc,mouse_5.x,mouse_5.y,mouse_5.leftButton,mouse_5.midButton,mouse_5.rightButton,mouse_5.clicked_name,pracsimilarity,response_time,mouse_10.x,mouse_10.y,mouse_10.leftButton,mouse_10.midButton,mouse_10.rightButton,mouse_10.clicked_name,mouse_7.x,mouse_7.y,mouse_7.leftButton,mouse_7.midButton,mouse_7.rightButton,mouse_6.x,mouse_6.y,mouse_6.leftButton,mouse_6.midButton,mouse_6.rightButton,duringprac.thisRepN,duringprac.thisTrialN,duringprac.thisN,duringprac.thisIndex,duringprac.ran,participant,session,date,expName,psychopyVersion,OS,frameRate,study_id,mouse_7.clicked_name,catchpracsimilarity,catch_response_time,catchnumberprac,catchtrialorderprac,mouse_6.clicked_name,key_resp_22.keys,key_resp_22.rt,realcomparison,mouse.x,mouse.y,mouse.leftButton,mouse.midButton,mouse.rightButton,mouse.clicked_name,Colour2,similarity,mouse_2.x,mouse_2.y,mouse_2.leftButton,mouse_2.midButton,mouse_2.rightButton,mouse_2.clicked_name,mouse_3.x,mouse_3.y,mouse_3.leftButton,mouse_3.midButton,mouse_3.rightButton,mouse_3.clicked_name,catchornah,catchsimilarity,catchnumber,catchtrialorder,catchRT,mouse_11.x,mouse_11.y,mouse_11.leftButton,mouse_11.midButton,mouse_11.rightButton,mouse_11.clicked_name,trials_2.thisRepN,trials_2.thisTrialN,trials_2.thisN,trials_2.thisIndex,trials_2.ran,Colour1
space,4.8519,space,54.062,space,30.8578,space,12.9057,space,3.4594,space,4.1696,145,PF,103.200013,46.39999425,1,0,0,response1disk_5,6,17.5896,1.14441E-05,-6.400006533,1,0,0,rectangle_8,1.14441E-05,-6.400006533,1,0,0,1.14441E-05,-6.400006533,1,0,0,0,0,0,4,1,60b9af795939f976cb74232a,61036c65a3908e3f4b868f84,2021-07-29_23h06.09.832,Simcolourproject_2stim_asymm_v5,2020.2.10,Win32,60,61025ae37ef11b136ea224fe,,,,,,,,,,,,,,,,,,,,,,,,,,,,,,,,,,,,,,,,,,,,,,
,,,,,,,,,,,,39,FF,-77.59998971,-57.6000073,1,0,0,response5disk_5,2,3.6217,12.00001162,3.19999361,1,0,0,rectangle_8,-47.99998927,93.59999496,1,0,0,-0.799988568,-5.600006521,1,0,0,0,1,1,0,1,60b9af795939f976cb74232a,61036c65a3908e3f4b868f84,2021-07-29_23h06.09.832,Simcolourproject_2stim_asymm_v5,2020.2.10,Win32,60,61025ae37ef11b136ea224fe,response7disk_7,0,3.4191,0,"[2,5]",rectangle_4,,,,,,,,,,,,,,,,,,,,,,,,,,,,,,,,,,,,,,,,
,,,,,,,,,,,,64,FF,72.80001253,-118.4000082,1,0,0,response3disk_5,4,11.626,-11.99998873,3.999993622,1,0,0,rectangle_8,-11.99998873,3.999993622,1,0,0,-11.99998873,3.999993622,1,0,0,0,2,2,3,1,60b9af795939f976cb74232a,61036c65a3908e3f4b868f84,2021-07-29_23h06.09.832,Simcolourproject_2stim_asymm_v5,2020.2.10,Win32,60,61025ae37ef11b136ea224fe,,,,,,,,,,,,,,,,,,,,,,,,,,,,,,,,,,,,,,,,,,,,,,
,,,,,,,,,,,,6,PF,85.60001272,-58.40000731,1,0,0,response3disk_5,5,6.5028,1.600060296,0.799993575,1,0,0,rectangle_8,1.600060296,0.799993575,1,0,0,1.600060296,0.799993575,1,0,0,0,3,3,1,1,60b9af795939f976cb74232a,61036c65a3908e3f4b868f84,2021-07-29_23h06.09.832,Simcolourproject_2stim_asymm_v5,2020.2.10,Win32,60,61025ae37ef11b136ea224fe,,,,,,,,,,,,,,,,,,,,,,,,,,,,,,,,,,,,,,,,,,,,,,
,,,,,,,,,,,,5,PF,-96.79999,-49.60000718,1,0,0,response5disk_5,2,3.2488,0.800011456,-4.800006509,1,0,0,rectangle_8,-45.59998924,94.39999497,1,0,0,-5.599988639,-1.600006461,1,0,0,0,4,4,6,1,60b9af795939f976cb74232a,61036c65a3908e3f4b868f84,2021-07-29_23h06.09.832,Simcolourproject_2stim_asymm_v5,2020.2.10,Win32,60,61025ae37ef11b136ea224fe,response7disk_7,0,2.086,0,"[2,5]",rectangle_4,,,,,,,,,,,,,,,,,,,,,,,,,,,,,,,,,,,,,,,,
,,,,,,,,,,,,114,PF,-85.59998983,-48.80000716,1,0,0,response5disk_5,2,8.7087,1.600060296,-2.400006473,1,0,0,rectangle_8,1.600060296,-2.400006473,1,0,0,1.600060296,-2.400006473,1,0,0,0,5,5,2,1,60b9af795939f976cb74232a,61036c65a3908e3f4b868f84,2021-07-29_23h06.09.832,Simcolourproject_2stim_asymm_v5,2020.2.10,Win32,60,61025ae37ef11b136ea224fe,,,,,,,,,,,,,,,,,,,,,,,,,,,,,,,,,,,,,,,,,,,,,,
,,,,,,,,,,,,126,FF,55.20001227,-92.00000781,1,0,0,response3disk_5,4,3.4993,1.600060296,11.99999374,1,0,0,rectangle_8,1.600060296,11.99999374,1,0,0,1.600060296,11.99999374,1,0,0,0,6,6,5,1,60b9af795939f976cb74232a,61036c65a3908e3f4b868f84,2021-07-29_23h06.09.832,Simcolourproject_2stim_asymm_v5,2020.2.10,Win32,60,61025ae37ef11b136ea224fe,,,,,,,,,,,,,,,,,,,,,,,,,,,,,,,,,,,,,,,,,,,,,,
,,,,,,,,,,,,,FF,,,,,,,,14.2524,,,,,,,,,,,,,,,,,,,,,,60b9af795939f976cb74232a,61036c65a3908e3f4b868f84,2021-07-29_23h06.09.832,Simcolourproject_2stim_asymm_v5,2020.2.10,Win32,60,61025ae37ef11b136ea224fe,,,,,,,space,3.7566,333,84.0000127,-39.20000702,1,0,0,response3disk,,5,-11.19998872,-3.200006485,1,0,0,rectangle,94.40001285,48.79999429,1,0,0,response1disk_3,TRUE,6,6,"[237,150,276,18,121,24,302,180,245,4,40,16,317,1,310,242,278,70,109,212]",3.3323,29.60006071,8.799993694,1,0,0,rectangle,0,0,0,37,1,
,,,,,,,,,,,,,FF,,,,,,,,6.2921,,,,,,,,,,,,,,,,,,,,,,60b9af795939f976cb74232a,61036c65a3908e3f4b868f84,2021-07-29_23h06.09.832,Simcolourproject_2stim_asymm_v5,2020.2.10,Win32,60,61025ae37ef11b136ea224fe,,,,,,,,,55,49.60006101,81.59999478,1,0,0,response1disk,,7,1.14441E-05,-6.4373E-06,1,0,0,rectangle,1.14441E-05,-6.4373E-06,1,0,0,,,,,,,1.14441E-05,-6.4373E-06,1,0,0,,0,1,1,36,1,
,,,,,,,,,,,,,FF,,,,,,,,17.1259,,,,,,,,,,,,,,,,,,,,,,60b9af795939f976cb74232a,61036c65a3908e3f4b868f84,2021-07-29_23h06.09.832,Simcolourproject_2stim_asymm_v5,2020.2.10,Win32,60,61025ae37ef11b136ea224fe,,,,,,,,,3069,-77.59998971,-43.20000708,1,0,0,response5disk,,2,13.60006047,-6.400006533,1,0,0,rectangle,13.60006047,-6.400006533,1,0,0,,,,,,,13.60006047,-6.400006533,1,0,0,,0,2,2,131,1,
,,,,,,,,,,,,,FF,,,,,,,,8.6256,,,,,,,,,,,,,,,,,,,,,,60b9af795939f976cb74232a,61036c65a3908e3f4b868f84,2021-07-29_23h06.09.832,Simcolourproject_2stim_asymm_v5,2020.2.10,Win32,60,61025ae37ef11b136ea224fe,,,,,,,,,4064,84.80001271,-67.20000744,1,0,0,response3disk,,5,9.600060415,-6.4373E-06,1,0,0,rectangle,111.2000131,32.79999405,1,0,0,response1disk_3,TRUE,6,6,"[237,150,276,18,121,24,302,180,245,4,40,16,317,1,310,242,278,70,109,212]",2.292,0.800011456,-3.200006485,1,0,0,rectangle,0,3,3,106,1,
,,,,,,,,,,,,,FF,,,,,,,,2.25,,,,,,,,,,,,,,,,,,,,,,60b9af795939f976cb74232a,61036c65a3908e3f4b868f84,2021-07-29_23h06.09.832,Simcolourproject_2stim_asymm_v5,2020.2.10,Win32,60,61025ae37ef11b136ea224fe,,,,,,,,,3195,-44.79998922,87.99999487,1,0,0,response7disk,,0,11.20001161,-4.800006509,1,0,0,rectangle,11.20001161,-4.800006509,1,0,0,,,,,,,11.20001161,-4.800006509,1,0,0,,0,4,4,72,1,
,,,,,,,,,,,,,FF,,,,,,,,3.3767,,,,,,,,,,,,,,,,,,,,,,60b9af795939f976cb74232a,61036c65a3908e3f4b868f84,2021-07-29_23h06.09.832,Simcolourproject_2stim_asymm_v5,2020.2.10,Win32,60,61025ae37ef11b136ea224fe,,,,,,,,,2174,-83.1999898,-41.60000706,1,0,0,response5disk,,2,3.200011492,3.19999361,1,0,0,rectangle,3.200011492,3.19999361,1,0,0,,,,,,,3.200011492,3.19999361,1,0,0,,0,5,5,157,1,
,,,,,,,,,,,,,FF,,,,,,,,3.0414,,,,,,,,,,,,,,,,,,,,,,60b9af795939f976cb74232a,61036c65a3908e3f4b868f84,2021-07-29_23h06.09.832,Simcolourproject_2stim_asymm_v5,2020.2.10,Win32,60,61025ae37ef11b136ea224fe,,,,,,,,,1119,92.80001283,-38.40000701,1,0,0,response3disk,,5,-1.59998858,-2.400006473,1,0,0,rectangle,-1.59998858,-2.400006473,1,0,0,,,,,,,-1.59998858,-2.400006473,1,0,0,,0,6,6,130,1,
,,,,,,,,,,,,,FF,,,,,,,,2.0818,,,,,,,,,,,,,,,,,,,,,,60b9af795939f976cb74232a,61036c65a3908e3f4b868f84,2021-07-29_23h06.09.832,Simcolourproject_2stim_asymm_v5,2020.2.10,Win32,60,61025ae37ef11b136ea224fe,,,,,,,,,2165,-70.39994078,35.19996967,1,0,0,response7disk,,1,-7.199988663,-7.200006545,1,0,0,rectangle,-7.199988663,-7.200006545,1,0,0,,,,,,,-7.199988663,-7.200006545,1,0,0,,0,7,7,128,1,
,,,,,,,,,,,,,FF,,,,,,,,5.6254,,,,,,,,,,,,,,,,,,,,,,60b9af795939f976cb74232a,61036c65a3908e3f4b868f84,2021-07-29_23h06.09.832,Simcolourproject_2stim_asymm_v5,2020.2.10,Win32,60,61025ae37ef11b136ea224fe,,,,,,,,,2371,-101.5999901,-36.80000699,1,0,0,response5disk,,2,26.40001184,-8.000006557,1,0,0,rectangle,26.40001184,-8.000006557,1,0,0,,,,,,,26.40001184,-8.000006557,1,0,0,,0,8,8,115,1,
,,,,,,,,,,,,,FF,,,,,,,,2.1227,,,,,,,,,,,,,,,,,,,,,,60b9af795939f976cb74232a,61036c65a3908e3f4b868f84,2021-07-29_23h06.09.832,Simcolourproject_2stim_asymm_v5,2020.2.10,Win32,60,61025ae37ef11b136ea224fe,,,,,,,,,188,-83.1999898,43.19996979,1,0,0,response7disk,,1,-27.19998896,-2.400006473,1,0,0,rectangle,-27.19998896,-2.400006473,1,0,0,,,,,,,-27.19998896,-2.400006473,1,0,0,,0,9,9,159,1,
,,,,,,,,,,,,,FF,,,,,,,,2.5045,,,,,,,,,,,,,,,,,,,,,,60b9af795939f976cb74232a,61036c65a3908e3f4b868f84,2021-07-29_23h06.09.832,Simcolourproject_2stim_asymm_v5,2020.2.10,Win32,60,61025ae37ef11b136ea224fe,,,,,,,,,2153,-49.5999893,-91.2000078,1,0,0,response5disk,,3,-7.199988663,2.399993598,1,0,0,rectangle,-7.199988663,2.399993598,1,0,0,,,,,,,-7.199988663,2.399993598,1,0,0,,0,10,10,88,1,
,,,,,,,,,,,,,FF,,,,,,,,2.0026,,,,,,,,,,,,,,,,,,,,,,60b9af795939f976cb74232a,61036c65a3908e3f4b868f84,2021-07-29_23h06.09.832,Simcolourproject_2stim_asymm_v5,2020.2.10,Win32,60,61025ae37ef11b136ea224fe,,,,,,,,,617,-83.99998981,-37.600007,1,0,0,response5disk,,2,9.600060415,-5.600006521,1,0,0,rectangle,9.600060415,-5.600006521,1,0,0,,,,,,,9.600060415,-5.600006521,1,0,0,,0,11,11,99,1,
,,,,,,,,,,,,,FF,,,,,,,,2.7529,,,,,,,,,,,,,,,,,,,,,,60b9af795939f976cb74232a,61036c65a3908e3f4b868f84,2021-07-29_23h06.09.832,Simcolourproject_2stim_asymm_v5,2020.2.10,Win32,60,61025ae37ef11b136ea224fe,,,,,,,,,1638,-42.39994036,-93.60005666,1,0,0,response5disk,,3,5.600060356,-6.400006533,1,0,0,rectangle,5.600060356,-6.400006533,1,0,0,,,,,,,5.600060356,-6.400006533,1,0,0,,0,12,12,11,1,
,,,,,,,,,,,,,FF,,,,,,,,3.9152,,,,,,,,,,,,,,,,,,,,,,60b9af795939f976cb74232a,61036c65a3908e3f4b868f84,2021-07-29_23h06.09.832,Simcolourproject_2stim_asymm_v5,2020.2.10,Win32,60,61025ae37ef11b136ea224fe,,,,,,,,,2367,-56.7999894,39.19996973,1,0,0,response7disk,,1,-11.19998872,-5.600006521,1,0,0,rectangle,-11.19998872,-5.600006521,1,0,0,,,,,,,-11.19998872,-5.600006521,1,0,0,,0,13,13,138,1,
,,,,,,,,,,,,,FF,,,,,,,,1.3738,,,,,,,,,,,,,,,,,,,,,,60b9af795939f976cb74232a,61036c65a3908e3f4b868f84,2021-07-29_23h06.09.832,Simcolourproject_2stim_asymm_v5,2020.2.10,Win32,60,61025ae37ef11b136ea224fe,,,,,,,,,2742,-85.59998983,38.39999413,1,0,0,response7disk,,1,-15.19998878,-4.000006497,1,0,0,rectangle,-15.19998878,-4.000006497,1,0,0,,,,,,,-15.19998878,-4.000006497,1,0,0,,0,14,14,122,1,
,,,,,,,,,,,,,FF,,,,,,,,4.7505,,,,,,,,,,,,,,,,,,,,,,60b9af795939f976cb74232a,61036c65a3908e3f4b868f84,2021-07-29_23h06.09.832,Simcolourproject_2stim_asymm_v5,2020.2.10,Win32,60,61025ae37ef11b136ea224fe,,,,,,,,,649,51.20001221,-82.40000767,1,0,0,response3disk,,4,-33.59998906,-4.800006509,1,0,0,rectangle,-28.79998899,91.99999493,1,0,0,response7disk_3,TRUE,0,0,"[237,150,276,18,121,24,302,180,245,4,40,16,317,1,310,242,278,70,109,212]",2.5013,-4.799988627,-2.400006473,1,0,0,rectangle,0,15,15,25,1,
,,,,,,,,,,,,,FF,,,,,,,,4.1669,,,,,,,,,,,,,,,,,,,,,,60b9af795939f976cb74232a,61036c65a3908e3f4b868f84,2021-07-29_23h06.09.832,Simcolourproject_2stim_asymm_v5,2020.2.10,Win32,60,61025ae37ef11b136ea224fe,,,,,,,,,2068,91.2000128,31.19996961,1,0,0,response1disk,,6,-4.799988627,4.799993634,1,0,0,rectangle,-4.799988627,4.799993634,1,0,0,,,,,,,-4.799988627,4.799993634,1,0,0,,0,16,16,146,1,
,,,,,,,,,,,,,FF,,,,,,,,3.753,,,,,,,,,,,,,,,,,,,,,,60b9af795939f976cb74232a,61036c65a3908e3f4b868f84,2021-07-29_23h06.09.832,Simcolourproject_2stim_asymm_v5,2020.2.10,Win32,60,61025ae37ef11b136ea224fe,,,,,,,,,3651,84.80001271,42.39999419,1,0,0,response1disk,,6,1.600060296,5.599993646,1,0,0,rectangle,-109.5999902,-36.80000699,1,0,0,response5disk_3,TRUE,2,2,"[237,150,276,18,121,24,302,180,245,4,40,16,317,1,310,242,278,70,109,212]",2.5427,4.800011516,0.799993575,1,0,0,rectangle,0,17,17,64,1,
,,,,,,,,,,,,,FF,,,,,,,,5.0445,,,,,,,,,,,,,,,,,,,,,,60b9af795939f976cb74232a,61036c65a3908e3f4b868f84,2021-07-29_23h06.09.832,Simcolourproject_2stim_asymm_v5,2020.2.10,Win32,60,61025ae37ef11b136ea224fe,,,,,,,,,3656,96.00001287,39.19996973,1,0,0,response1disk,,6,5.600060356,3.19999361,1,0,0,rectangle,5.600060356,3.19999361,1,0,0,,,,,,,5.600060356,3.19999361,1,0,0,,0,18,18,125,1,
,,,,,,,,,,,,,FF,,,,,,,,8.0839,,,,,,,,,,,,,,,,,,,,,,60b9af795939f976cb74232a,61036c65a3908e3f4b868f84,2021-07-29_23h06.09.832,Simcolourproject_2stim_asymm_v5,2020.2.10,Win32,60,61025ae37ef11b136ea224fe,,,,,,,,,442,-82.39994096,41.59999418,1,0,0,response7disk,,1,-9.599988699,-4.800006509,1,0,0,rectangle,-9.599988699,-4.800006509,1,0,0,,,,,,,-9.599988699,-4.800006509,1,0,0,,0,19,19,62,1,
,,,,,,,,,,,,,FF,,,,,,,,5.2088,,,,,,,,,,,,,,,,,,,,,,60b9af795939f976cb74232a,61036c65a3908e3f4b868f84,2021-07-29_23h06.09.832,Simcolourproject_2stim_asymm_v5,2020.2.10,Win32,60,61025ae37ef11b136ea224fe,,,,,,,,,2813,91.2000128,-42.40000707,1,0,0,response3disk,,5,-10.39993988,-3.200006485,1,0,0,rectangle,-10.39993988,-3.200006485,1,0,0,,,,,,,-10.39993988,-3.200006485,1,0,0,,0,20,20,41,1,
,,,,,,,,,,,,,FF,,,,,,,,6.6235,,,,,,,,,,,,,,,,,,,,,,60b9af795939f976cb74232a,61036c65a3908e3f4b868f84,2021-07-29_23h06.09.832,Simcolourproject_2stim_asymm_v5,2020.2.10,Win32,60,61025ae37ef11b136ea224fe,,,,,,,,,1331,-44.79998922,-84.8000077,1,0,0,response5disk,,3,13.60006047,9.599993706,1,0,0,rectangle,13.60006047,9.599993706,1,0,0,,,,,,,13.60006047,9.599993706,1,0,0,,0,21,21,40,1,
,,,,,,,,,,,,,FF,,,,,,,,5.2083,,,,,,,,,,,,,,,,,,,,,,60b9af795939f976cb74232a,61036c65a3908e3f4b868f84,2021-07-29_23h06.09.832,Simcolourproject_2stim_asymm_v5,2020.2.10,Win32,60,61025ae37ef11b136ea224fe,,,,,,,,,500,96.80001289,55.19996997,1,0,0,response1disk,,6,-3.999988616,5.599993646,1,0,0,rectangle,-3.999988616,5.599993646,1,0,0,,,,,,,-3.999988616,5.599993646,1,0,0,,0,22,22,44,1,
,,,,,,,,,,,,,FF,,,,,,,,3.7527,,,,,,,,,,,,,,,,,,,,,,60b9af795939f976cb74232a,61036c65a3908e3f4b868f84,2021-07-29_23h06.09.832,Simcolourproject_2stim_asymm_v5,2020.2.10,Win32,60,61025ae37ef11b136ea224fe,,,,,,,,,2095,-92.79998994,40.79999417,1,0,0,response7disk,,1,2.40001148,-2.400006473,1,0,0,rectangle,40.80001205,99.19997063,1,0,0,response1disk_3,TRUE,7,7,"[237,150,276,18,121,24,302,180,245,4,40,16,317,1,310,242,278,70,109,212]",2.3749,12.00001162,-4.000006497,1,0,0,rectangle,0,23,23,29,1,
,,,,,,,,,,,,,FF,,,,,,,,5.2504,,,,,,,,,,,,,,,,,,,,,,60b9af795939f976cb74232a,61036c65a3908e3f4b868f84,2021-07-29_23h06.09.832,Simcolourproject_2stim_asymm_v5,2020.2.10,Win32,60,61025ae37ef11b136ea224fe,,,,,,,,,2758,97.6000129,52.79999435,1,0,0,response1disk,,6,-5.599988639,1.599993587,1,0,0,rectangle,-5.599988639,1.599993587,1,0,0,,,,,,,-5.599988639,1.599993587,1,0,0,,0,24,24,103,1,
,,,,,,,,,,,,,FF,,,,,,,,2.7086,,,,,,,,,,,,,,,,,,,,,,60b9af795939f976cb74232a,61036c65a3908e3f4b868f84,2021-07-29_23h06.09.832,Simcolourproject_2stim_asymm_v5,2020.2.10,Win32,60,61025ae37ef11b136ea224fe,,,,,,,,,1147,-93.59998995,-36.80000699,1,0,0,response5disk,,2,-1.59998858,7.19999367,1,0,0,rectangle,-1.59998858,7.19999367,1,0,0,,,,,,,-1.59998858,7.19999367,1,0,0,,0,25,25,32,1,
,,,,,,,,,,,,,FF,,,,,,,,1.7922,,,,,,,,,,,,,,,,,,,,,,60b9af795939f976cb74232a,61036c65a3908e3f4b868f84,2021-07-29_23h06.09.832,Simcolourproject_2stim_asymm_v5,2020.2.10,Win32,60,61025ae37ef11b136ea224fe,,,,,,,,,3974,-93.59998995,-56.80000728,1,0,0,response5disk,,2,-15.99998879,-8.800006568,1,0,0,rectangle,-15.99998879,-8.800006568,1,0,0,,,,,,,-15.99998879,-8.800006568,1,0,0,,0,26,26,143,1,
,,,,,,,,,,,,,FF,,,,,,,,2.1671,,,,,,,,,,,,,,,,,,,,,,60b9af795939f976cb74232a,61036c65a3908e3f4b868f84,2021-07-29_23h06.09.832,Simcolourproject_2stim_asymm_v5,2020.2.10,Win32,60,61025ae37ef11b136ea224fe,,,,,,,,,1683,-96.79999,-59.20000732,1,0,0,response5disk,,2,-12.79998875,-4.800006509,1,0,0,rectangle,-12.79998875,-4.800006509,1,0,0,,,,,,,-12.79998875,-4.800006509,1,0,0,,0,27,27,135,1,
,,,,,,,,,,,,,FF,,,,,,,,4.1675,,,,,,,,,,,,,,,,,,,,,,60b9af795939f976cb74232a,61036c65a3908e3f4b868f84,2021-07-29_23h06.09.832,Simcolourproject_2stim_asymm_v5,2020.2.10,Win32,60,61025ae37ef11b136ea224fe,,,,,,,,,665,92.00001281,42.39999419,1,0,0,response1disk,,6,2.40001148,-3.200006485,1,0,0,rectangle,2.40001148,-3.200006485,1,0,0,,,,,,,2.40001148,-3.200006485,1,0,0,,0,28,28,85,1,
,,,,,,,,,,,,,FF,,,,,,,,5.708,,,,,,,,,,,,,,,,,,,,,,60b9af795939f976cb74232a,61036c65a3908e3f4b868f84,2021-07-29_23h06.09.832,Simcolourproject_2stim_asymm_v5,2020.2.10,Win32,60,61025ae37ef11b136ea224fe,,,,,,,,,1689,-55.99998939,-99.20000792,1,0,0,response5disk,,3,-2.399939764,2.399993598,1,0,0,rectangle,-2.399939764,2.399993598,1,0,0,,,,,,,-2.399939764,2.399993598,1,0,0,,0,29,29,133,1,
,,,,,,,,,,,,,FF,,,,,,,,2.2909,,,,,,,,,,,,,,,,,,,,,,60b9af795939f976cb74232a,61036c65a3908e3f4b868f84,2021-07-29_23h06.09.832,Simcolourproject_2stim_asymm_v5,2020.2.10,Win32,60,61025ae37ef11b136ea224fe,,,,,,,,,3326,57.6000123,107.1999707,1,0,0,response1disk,,7,7.200011551,3.19999361,1,0,0,rectangle,7.200011551,3.19999361,1,0,0,,,,,,,7.200011551,3.19999361,1,0,0,,0,30,30,81,1,
,,,,,,,,,,,,,FF,,,,,,,,3.2065,,,,,,,,,,,,,,,,,,,,,,60b9af795939f976cb74232a,61036c65a3908e3f4b868f84,2021-07-29_23h06.09.832,Simcolourproject_2stim_asymm_v5,2020.2.10,Win32,60,61025ae37ef11b136ea224fe,,,,,,,,,249,80.00001264,-36.00000697,1,0,0,response3disk,,5,-13.59998876,1.599993587,1,0,0,rectangle,-13.59998876,1.599993587,1,0,0,,,,,,,-13.59998876,1.599993587,1,0,0,,0,31,31,53,1,
,,,,,,,,,,,,,FF,,,,,,,,5.7476,,,,,,,,,,,,,,,,,,,,,,60b9af795939f976cb74232a,61036c65a3908e3f4b868f84,2021-07-29_23h06.09.832,Simcolourproject_2stim_asymm_v5,2020.2.10,Win32,60,61025ae37ef11b136ea224fe,,,,,,,,,1561,46.40001214,-100.0000079,1,0,0,response3disk,,4,1.14441E-05,-3.200006485,1,0,0,rectangle,1.14441E-05,-3.200006485,1,0,0,,,,,,,1.14441E-05,-3.200006485,1,0,0,,0,32,32,112,1,
,,,,,,,,,,,,,FF,,,,,,,,4.5008,,,,,,,,,,,,,,,,,,,,,,60b9af795939f976cb74232a,61036c65a3908e3f4b868f84,2021-07-29_23h06.09.832,Simcolourproject_2stim_asymm_v5,2020.2.10,Win32,60,61025ae37ef11b136ea224fe,,,,,,,,,2412,-47.99998927,-97.60005672,1,0,0,response5disk,,3,-1.59998858,-10.40000659,1,0,0,rectangle,-1.59998858,-10.40000659,1,0,0,,,,,,,-1.59998858,-10.40000659,1,0,0,,0,33,33,100,1,
,,,,,,,,,,,,,FF,,,,,,,,2.3752,,,,,,,,,,,,,,,,,,,,,,60b9af795939f976cb74232a,61036c65a3908e3f4b868f84,2021-07-29_23h06.09.832,Simcolourproject_2stim_asymm_v5,2020.2.10,Win32,60,61025ae37ef11b136ea224fe,,,,,,,,,4247,-95.99998999,-49.60000718,1,0,0,response5disk,,2,-7.999988675,-12.00000662,1,0,0,rectangle,-7.999988675,-12.00000662,1,0,0,,,,,,,-7.999988675,-12.00000662,1,0,0,,0,34,34,0,1,
,,,,,,,,,,,,,FF,,,,,,,,1.2926,,,,,,,,,,,,,,,,,,,,,,60b9af795939f976cb74232a,61036c65a3908e3f4b868f84,2021-07-29_23h06.09.832,Simcolourproject_2stim_asymm_v5,2020.2.10,Win32,60,61025ae37ef11b136ea224fe,,,,,,,,,3678,-107.9999902,-41.60000706,1,0,0,response5disk,,2,-18.39994,1.599993587,1,0,0,rectangle,-18.39994,1.599993587,1,0,0,,,,,,,-18.39994,1.599993587,1,0,0,,0,35,35,154,1,
,,,,,,,,,,,,,FF,,,,,,,,2.0004,,,,,,,,,,,,,,,,,,,,,,60b9af795939f976cb74232a,61036c65a3908e3f4b868f84,2021-07-29_23h06.09.832,Simcolourproject_2stim_asymm_v5,2020.2.10,Win32,60,61025ae37ef11b136ea224fe,,,,,,,,,2180,-38.3999403,-97.60005672,1,0,0,response5disk,,3,-17.59998882,-13.60000664,1,0,0,rectangle,-17.59998882,-13.60000664,1,0,0,,,,,,,-17.59998882,-13.60000664,1,0,0,,0,36,36,22,1,
,,,,,,,,,,,,,FF,,,,,,,,1.792,,,,,,,,,,,,,,,,,,,,,,60b9af795939f976cb74232a,61036c65a3908e3f4b868f84,2021-07-29_23h06.09.832,Simcolourproject_2stim_asymm_v5,2020.2.10,Win32,60,61025ae37ef11b136ea224fe,,,,,,,,,316,52.00001222,-92.00000781,1,0,0,response3disk,,4,-7.199988663,7.19999367,1,0,0,rectangle,-7.199988663,7.19999367,1,0,0,,,,,,,-7.199988663,7.19999367,1,0,0,,0,37,37,46,1,
,,,,,,,,,,,,,FF,,,,,,,,2.1248,,,,,,,,,,,,,,,,,,,,,,60b9af795939f976cb74232a,61036c65a3908e3f4b868f84,2021-07-29_23h06.09.832,Simcolourproject_2stim_asymm_v5,2020.2.10,Win32,60,61025ae37ef11b136ea224fe,,,,,,,,,726,-42.39994036,-118.4000082,1,0,0,response5disk,,3,-1.59998858,4.799993634,1,0,0,rectangle,-1.59998858,4.799993634,1,0,0,,,,,,,-1.59998858,4.799993634,1,0,0,,0,38,38,49,1,
,,,,,,,,,,,,,FF,,,,,,,,3.2928,,,,,,,,,,,,,,,,,,,,,,60b9af795939f976cb74232a,61036c65a3908e3f4b868f84,2021-07-29_23h06.09.832,Simcolourproject_2stim_asymm_v5,2020.2.10,Win32,60,61025ae37ef11b136ea224fe,,,,,,,,,817,-29.599989,-107.200008,1,0,0,response5disk,,3,-9.599988699,4.799993634,1,0,0,rectangle,25.60006065,-88.80000776,1,0,0,response3disk_3,TRUE,4,4,"[237,150,276,18,121,24,302,180,245,4,40,16,317,1,310,242,278,70,109,212]",2.5022,-3.999988616,9.599993706,1,0,0,rectangle,0,39,39,20,1,
,,,,,,,,,,,,,FF,,,,,,,,2.0421,,,,,,,,,,,,,,,,,,,,,,60b9af795939f976cb74232a,61036c65a3908e3f4b868f84,2021-07-29_23h06.09.832,Simcolourproject_2stim_asymm_v5,2020.2.10,Win32,60,61025ae37ef11b136ea224fe,,,,,,,,,619,-44.79998922,-97.60005672,1,0,0,response5disk,,3,-1.59998858,-10.40000659,1,0,0,rectangle,-1.59998858,-10.40000659,1,0,0,,,,,,,-1.59998858,-10.40000659,1,0,0,,0,40,40,116,1,
,,,,,,,,,,,,,FF,,,,,,,,1.8657,,,,,,,,,,,,,,,,,,,,,,60b9af795939f976cb74232a,61036c65a3908e3f4b868f84,2021-07-29_23h06.09.832,Simcolourproject_2stim_asymm_v5,2020.2.10,Win32,60,61025ae37ef11b136ea224fe,,,,,,,,,4126,-35.99998909,-100.0000079,1,0,0,response5disk,,3,4.800011516,-4.000006497,1,0,0,rectangle,4.800011516,-4.000006497,1,0,0,,,,,,,4.800011516,-4.000006497,1,0,0,,0,41,41,1,1,
,,,,,,,,,,,,,FF,,,,,,,,1.8731,,,,,,,,,,,,,,,,,,,,,,60b9af795939f976cb74232a,61036c65a3908e3f4b868f84,2021-07-29_23h06.09.832,Simcolourproject_2stim_asymm_v5,2020.2.10,Win32,60,61025ae37ef11b136ea224fe,,,,,,,,,2207,74.40001255,-64.8000074,1,0,0,response3disk,,5,8.000011563,3.19999361,1,0,0,rectangle,8.000011563,3.19999361,1,0,0,,,,,,,8.000011563,3.19999361,1,0,0,,0,42,42,16,1,
,,,,,,,,,,,,,FF,,,,,,,,1.417,,,,,,,,,,,,,,,,,,,,,,60b9af795939f976cb74232a,61036c65a3908e3f4b868f84,2021-07-29_23h06.09.832,Simcolourproject_2stim_asymm_v5,2020.2.10,Win32,60,61025ae37ef11b136ea224fe,,,,,,,,,489,92.80001283,-32.00000691,1,0,0,response3disk,,5,8.800011575,-6.4373E-06,1,0,0,rectangle,8.800011575,-6.4373E-06,1,0,0,,,,,,,8.800011575,-6.4373E-06,1,0,0,,0,43,43,30,1,
,,,,,,,,,,,,,FF,,,,,,,,1.6257,,,,,,,,,,,,,,,,,,,,,,60b9af795939f976cb74232a,61036c65a3908e3f4b868f84,2021-07-29_23h06.09.832,Simcolourproject_2stim_asymm_v5,2020.2.10,Win32,60,61025ae37ef11b136ea224fe,,,,,,,,,1570,79.20001262,40.79999417,1,0,0,response1disk,,6,7.200011551,10.39999372,1,0,0,rectangle,7.200011551,10.39999372,1,0,0,,,,,,,7.200011551,10.39999372,1,0,0,,0,44,44,67,1,
,,,,,,,,,,,,,FF,,,,,,,,6.4587,,,,,,,,,,,,,,,,,,,,,,60b9af795939f976cb74232a,61036c65a3908e3f4b868f84,2021-07-29_23h06.09.832,Simcolourproject_2stim_asymm_v5,2020.2.10,Win32,60,61025ae37ef11b136ea224fe,,,,,,,,,3174,112.0000131,-46.40000713,1,0,0,response3disk,,5,-11.99998873,-8.000006557,1,0,0,rectangle,-11.99998873,-8.000006557,1,0,0,,,,,,,-11.99998873,-8.000006557,1,0,0,,0,45,45,48,1,
,,,,,,,,,,,,,FF,,,,,,,,1.7091,,,,,,,,,,,,,,,,,,,,,,60b9af795939f976cb74232a,61036c65a3908e3f4b868f84,2021-07-29_23h06.09.832,Simcolourproject_2stim_asymm_v5,2020.2.10,Win32,60,61025ae37ef11b136ea224fe,,,,,,,,,1308,-83.99998981,28.79999399,1,0,0,response7disk,,1,2.40001148,-5.600006521,1,0,0,rectangle,2.40001148,-5.600006521,1,0,0,,,,,,,2.40001148,-5.600006521,1,0,0,,0,46,46,73,1,
,,,,,,,,,,,,,FF,,,,,,,,2.0407,,,,,,,,,,,,,,,,,,,,,,60b9af795939f976cb74232a,61036c65a3908e3f4b868f84,2021-07-29_23h06.09.832,Simcolourproject_2stim_asymm_v5,2020.2.10,Win32,60,61025ae37ef11b136ea224fe,,,,,,,,,352,-94.39994113,45.59999424,1,0,0,response7disk,,1,-2.399939764,-6.4373E-06,1,0,0,rectangle,-2.399939764,-6.4373E-06,1,0,0,,,,,,,-2.399939764,-6.4373E-06,1,0,0,,0,47,47,28,1,
,,,,,,,,,,,,,FF,,,,,,,,4.3326,,,,,,,,,,,,,,,,,,,,,,60b9af795939f976cb74232a,61036c65a3908e3f4b868f84,2021-07-29_23h06.09.832,Simcolourproject_2stim_asymm_v5,2020.2.10,Win32,60,61025ae37ef11b136ea224fe,,,,,,,,,3925,98.40001291,-45.60000712,1,0,0,response3disk,,5,0.800011456,3.19999361,1,0,0,rectangle,0.800011456,3.19999361,1,0,0,,,,,,,0.800011456,3.19999361,1,0,0,,0,48,48,91,1,
,,,,,,,,,,,,,FF,,,,,,,,3.0002,,,,,,,,,,,,,,,,,,,,,,60b9af795939f976cb74232a,61036c65a3908e3f4b868f84,2021-07-29_23h06.09.832,Simcolourproject_2stim_asymm_v5,2020.2.10,Win32,60,61025ae37ef11b136ea224fe,,,,,,,,,3666,61.60001236,110.3999952,1,0,0,response1disk,,7,-6.399939823,-4.800006509,1,0,0,rectangle,-6.399939823,-4.800006509,1,0,0,,,,,,,-6.399939823,-4.800006509,1,0,0,,0,49,49,96,1,
,,,,,,,,,,,,,FF,,,,,,,,1.6298,,,,,,,,,,,,,,,,,,,,,,60b9af795939f976cb74232a,61036c65a3908e3f4b868f84,2021-07-29_23h06.09.832,Simcolourproject_2stim_asymm_v5,2020.2.10,Win32,60,61025ae37ef11b136ea224fe,,,,,,,,,3182,105.600013,45.59999424,1,0,0,response1disk,,6,6.400011539,-1.600006461,1,0,0,rectangle,6.400011539,-1.600006461,1,0,0,,,,,,,6.400011539,-1.600006461,1,0,0,,0,50,50,127,1,
,,,,,,,,,,,,,FF,,,,,,,,4.6155,,,,,,,,,,,,,,,,,,,,,,60b9af795939f976cb74232a,61036c65a3908e3f4b868f84,2021-07-29_23h06.09.832,Simcolourproject_2stim_asymm_v5,2020.2.10,Win32,60,61025ae37ef11b136ea224fe,,,,,,,,,3259,-104.7999901,-38.40000701,1,0,0,response5disk,,2,-15.99998879,3.999993622,1,0,0,rectangle,-15.99998879,3.999993622,1,0,0,,,,,,,-15.99998879,3.999993622,1,0,0,,0,51,51,84,1,
,,,,,,,,,,,,,FF,,,,,,,,2.3325,,,,,,,,,,,,,,,,,,,,,,60b9af795939f976cb74232a,61036c65a3908e3f4b868f84,2021-07-29_23h06.09.832,Simcolourproject_2stim_asymm_v5,2020.2.10,Win32,60,61025ae37ef11b136ea224fe,,,,,,,,,959,94.40001285,53.59999436,1,0,0,response1disk,,6,13.60006047,1.599993587,1,0,0,rectangle,13.60006047,1.599993587,1,0,0,,,,,,,13.60006047,1.599993587,1,0,0,,0,52,52,45,1,
,,,,,,,,,,,,,FF,,,,,,,,2.5029,,,,,,,,,,,,,,,,,,,,,,60b9af795939f976cb74232a,61036c65a3908e3f4b868f84,2021-07-29_23h06.09.832,Simcolourproject_2stim_asymm_v5,2020.2.10,Win32,60,61025ae37ef11b136ea224fe,,,,,,,,,1876,86.40001273,-32.00000691,1,0,0,response3disk,,5,-3.199988604,6.399993658,1,0,0,rectangle,-3.199988604,6.399993658,1,0,0,,,,,,,-3.199988604,6.399993658,1,0,0,,0,53,53,148,1,
,,,,,,,,,,,,,FF,,,,,,,,5.3742,,,,,,,,,,,,,,,,,,,,,,60b9af795939f976cb74232a,61036c65a3908e3f4b868f84,2021-07-29_23h06.09.832,Simcolourproject_2stim_asymm_v5,2020.2.10,Win32,60,61025ae37ef11b136ea224fe,,,,,,,,,815,-35.99998909,-97.60005672,1,0,0,response5disk,,3,3.200011492,2.399993598,1,0,0,rectangle,3.200011492,2.399993598,1,0,0,,,,,,,3.200011492,2.399993598,1,0,0,,0,54,54,151,1,
,,,,,,,,,,,,,FF,,,,,,,,2.2495,,,,,,,,,,,,,,,,,,,,,,60b9af795939f976cb74232a,61036c65a3908e3f4b868f84,2021-07-29_23h06.09.832,Simcolourproject_2stim_asymm_v5,2020.2.10,Win32,60,61025ae37ef11b136ea224fe,,,,,,,,,1472,40.00001204,-87.20000774,1,0,0,response3disk,,4,6.400011539,-8.800006568,1,0,0,rectangle,6.400011539,-8.800006568,1,0,0,,,,,,,6.400011539,-8.800006568,1,0,0,,0,55,55,150,1,
,,,,,,,,,,,,,FF,,,,,,,,1.8348,,,,,,,,,,,,,,,,,,,,,,60b9af795939f976cb74232a,61036c65a3908e3f4b868f84,2021-07-29_23h06.09.832,Simcolourproject_2stim_asymm_v5,2020.2.10,Win32,60,61025ae37ef11b136ea224fe,,,,,,,,,2425,-88.79998988,28.79999399,1,0,0,response7disk,,1,-14.39993994,-4.000006497,1,0,0,rectangle,-14.39993994,-4.000006497,1,0,0,,,,,,,-14.39993994,-4.000006497,1,0,0,,0,56,56,18,1,
,,,,,,,,,,,,,FF,,,,,,,,6.2923,,,,,,,,,,,,,,,,,,,,,,60b9af795939f976cb74232a,61036c65a3908e3f4b868f84,2021-07-29_23h06.09.832,Simcolourproject_2stim_asymm_v5,2020.2.10,Win32,60,61025ae37ef11b136ea224fe,,,,,,,,,2325,52.00001222,-81.60005648,1,0,0,response3disk,,4,-7.999988675,-3.200006485,1,0,0,rectangle,-7.999988675,-3.200006485,1,0,0,,,,,,,-7.999988675,-3.200006485,1,0,0,,0,57,57,26,1,
,,,,,,,,,,,,,FF,,,,,,,,1.3336,,,,,,,,,,,,,,,,,,,,,,60b9af795939f976cb74232a,61036c65a3908e3f4b868f84,2021-07-29_23h06.09.832,Simcolourproject_2stim_asymm_v5,2020.2.10,Win32,60,61025ae37ef11b136ea224fe,,,,,,,,,3497,44.80001211,-75.20000756,1,0,0,response3disk,,4,7.200011551,-3.200006485,1,0,0,rectangle,7.200011551,-3.200006485,1,0,0,,,,,,,7.200011551,-3.200006485,1,0,0,,0,58,58,21,1,
,,,,,,,,,,,,,FF,,,,,,,,1.5838,,,,,,,,,,,,,,,,,,,,,,60b9af795939f976cb74232a,61036c65a3908e3f4b868f84,2021-07-29_23h06.09.832,Simcolourproject_2stim_asymm_v5,2020.2.10,Win32,60,61025ae37ef11b136ea224fe,,,,,,,,,2192,86.40001273,43.99999422,1,0,0,response1disk,,6,8.000011563,-1.600006461,1,0,0,rectangle,8.000011563,-1.600006461,1,0,0,,,,,,,8.000011563,-1.600006461,1,0,0,,0,59,59,137,1,
,,,,,,,,,,,,,FF,,,,,,,,1.7389,,,,,,,,,,,,,,,,,,,,,,60b9af795939f976cb74232a,61036c65a3908e3f4b868f84,2021-07-29_23h06.09.832,Simcolourproject_2stim_asymm_v5,2020.2.10,Win32,60,61025ae37ef11b136ea224fe,,,,,,,,,2525,93.60001284,35.19996967,1,0,0,response1disk,,6,4.000011504,0.799993575,1,0,0,rectangle,4.000011504,0.799993575,1,0,0,,,,,,,4.000011504,0.799993575,1,0,0,,0,60,60,89,1,
,,,,,,,,,,,,,FF,,,,,,,,1.2081,,,,,,,,,,,,,,,,,,,,,,60b9af795939f976cb74232a,61036c65a3908e3f4b868f84,2021-07-29_23h06.09.832,Simcolourproject_2stim_asymm_v5,2020.2.10,Win32,60,61025ae37ef11b136ea224fe,,,,,,,,,3583,53.60001224,107.9999952,1,0,0,response1disk,,7,6.400011539,-6.4373E-06,1,0,0,rectangle,6.400011539,-6.4373E-06,1,0,0,,,,,,,6.400011539,-6.4373E-06,1,0,0,,0,61,61,87,1,
,,,,,,,,,,,,,FF,,,,,,,,2.1256,,,,,,,,,,,,,,,,,,,,,,60b9af795939f976cb74232a,61036c65a3908e3f4b868f84,2021-07-29_23h06.09.832,Simcolourproject_2stim_asymm_v5,2020.2.10,Win32,60,61025ae37ef11b136ea224fe,,,,,,,,,2738,52.00001222,-77.60000759,1,0,0,response3disk,,4,5.600060356,-6.400006533,1,0,0,rectangle,5.600060356,-6.400006533,1,0,0,,,,,,,5.600060356,-6.400006533,1,0,0,,0,62,62,90,1,
,,,,,,,,,,,,,FF,,,,,,,,2.5807,,,,,,,,,,,,,,,,,,,,,,60b9af795939f976cb74232a,61036c65a3908e3f4b868f84,2021-07-29_23h06.09.832,Simcolourproject_2stim_asymm_v5,2020.2.10,Win32,60,61025ae37ef11b136ea224fe,,,,,,,,,3247,-38.3999403,-92.00000781,1,0,0,response5disk,,3,-3.199988604,-6.400006533,1,0,0,rectangle,-3.199988604,-6.400006533,1,0,0,,,,,,,-3.199988604,-6.400006533,1,0,0,,0,63,63,123,1,
,,,,,,,,,,,,,FF,,,,,,,,2.8782,,,,,,,,,,,,,,,,,,,,,,60b9af795939f976cb74232a,61036c65a3908e3f4b868f84,2021-07-29_23h06.09.832,Simcolourproject_2stim_asymm_v5,2020.2.10,Win32,60,61025ae37ef11b136ea224fe,,,,,,,,,2559,105.600013,-37.600007,1,0,0,response3disk,,5,-3.199988604,-2.400006473,1,0,0,rectangle,-3.199988604,-2.400006473,1,0,0,,,,,,,-3.199988604,-2.400006473,1,0,0,,0,64,64,141,1,
,,,,,,,,,,,,,FF,,,,,,,,6.7088,,,,,,,,,,,,,,,,,,,,,,60b9af795939f976cb74232a,61036c65a3908e3f4b868f84,2021-07-29_23h06.09.832,Simcolourproject_2stim_asymm_v5,2020.2.10,Win32,60,61025ae37ef11b136ea224fe,,,,,,,,,2858,39.20001203,-88.00000775,1,0,0,response3disk,,4,-0.799988568,-6.400006533,1,0,0,rectangle,-0.799988568,-6.400006533,1,0,0,,,,,,,-0.799988568,-6.400006533,1,0,0,,0,65,65,52,1,
,,,,,,,,,,,,,FF,,,,,,,,3.2075,,,,,,,,,,,,,,,,,,,,,,60b9af795939f976cb74232a,61036c65a3908e3f4b868f84,2021-07-29_23h06.09.832,Simcolourproject_2stim_asymm_v5,2020.2.10,Win32,60,61025ae37ef11b136ea224fe,,,,,,,,,1199,80.00001264,-52.00000721,1,0,0,response3disk,,5,13.60006047,1.599993587,1,0,0,rectangle,13.60006047,1.599993587,1,0,0,,,,,,,13.60006047,1.599993587,1,0,0,,0,66,66,6,1,
,,,,,,,,,,,,,FF,,,,,,,,2.9197,,,,,,,,,,,,,,,,,,,,,,60b9af795939f976cb74232a,61036c65a3908e3f4b868f84,2021-07-29_23h06.09.832,Simcolourproject_2stim_asymm_v5,2020.2.10,Win32,60,61025ae37ef11b136ea224fe,,,,,,,,,1908,-63.1999895,-80.00000763,1,0,0,response5disk,,3,-4.799988627,-1.600006461,1,0,0,rectangle,-4.799988627,-1.600006461,1,0,0,,,,,,,-4.799988627,-1.600006461,1,0,0,,0,67,67,155,1,
,,,,,,,,,,,,,FF,,,,,,,,1.9994,,,,,,,,,,,,,,,,,,,,,,60b9af795939f976cb74232a,61036c65a3908e3f4b868f84,2021-07-29_23h06.09.832,Simcolourproject_2stim_asymm_v5,2020.2.10,Win32,60,61025ae37ef11b136ea224fe,,,,,,,,,3253,-47.99998927,-89.6000566,1,0,0,response5disk,,3,5.600060356,-4.000006497,1,0,0,rectangle,5.600060356,-4.000006497,1,0,0,,,,,,,5.600060356,-4.000006497,1,0,0,,0,68,68,74,1,
,,,,,,,,,,,,,FF,,,,,,,,5.1244,,,,,,,,,,,,,,,,,,,,,,60b9af795939f976cb74232a,61036c65a3908e3f4b868f84,2021-07-29_23h06.09.832,Simcolourproject_2stim_asymm_v5,2020.2.10,Win32,60,61025ae37ef11b136ea224fe,,,,,,,,,160,95.20001286,40.79999417,1,0,0,response1disk,,6,1.14441E-05,-3.200006485,1,0,0,rectangle,43.20001209,104.7999951,1,0,0,response1disk_3,TRUE,7,7,"[237,150,276,18,121,24,302,180,245,4,40,16,317,1,310,242,278,70,109,212]",2.211,8.000011563,-0.800006449,1,0,0,rectangle,0,69,69,35,1,
,,,,,,,,,,,,,FF,,,,,,,,5.8694,,,,,,,,,,,,,,,,,,,,,,60b9af795939f976cb74232a,61036c65a3908e3f4b868f84,2021-07-29_23h06.09.832,Simcolourproject_2stim_asymm_v5,2020.2.10,Win32,60,61025ae37ef11b136ea224fe,,,,,,,,,2765,-34.39994024,-93.60005666,1,0,0,response5disk,,3,2.40001148,-7.200006545,1,0,0,rectangle,2.40001148,-7.200006545,1,0,0,,,,,,,2.40001148,-7.200006545,1,0,0,,0,70,70,65,1,
,,,,,,,,,,,,,FF,,,,,,,,1.4566,,,,,,,,,,,,,,,,,,,,,,60b9af795939f976cb74232a,61036c65a3908e3f4b868f84,2021-07-29_23h06.09.832,Simcolourproject_2stim_asymm_v5,2020.2.10,Win32,60,61025ae37ef11b136ea224fe,,,,,,,,,2986,-79.99998975,51.99999434,1,0,0,response7disk,,1,-0.799988568,4.799993634,1,0,0,rectangle,-0.799988568,4.799993634,1,0,0,,,,,,,-0.799988568,4.799993634,1,0,0,,0,71,71,119,1,
,,,,,,,,,,,,,FF,,,,,,,,4.1649,,,,,,,,,,,,,,,,,,,,,,60b9af795939f976cb74232a,61036c65a3908e3f4b868f84,2021-07-29_23h06.09.832,Simcolourproject_2stim_asymm_v5,2020.2.10,Win32,60,61025ae37ef11b136ea224fe,,,,,,,,,268,48.80001217,104.7999951,1,0,0,response1disk,,7,-1.59998858,2.399993598,1,0,0,rectangle,-1.59998858,2.399993598,1,0,0,,,,,,,-1.59998858,2.399993598,1,0,0,,0,72,72,120,1,
,,,,,,,,,,,,,FF,,,,,,,,1.3754,,,,,,,,,,,,,,,,,,,,,,60b9af795939f976cb74232a,61036c65a3908e3f4b868f84,2021-07-29_23h06.09.832,Simcolourproject_2stim_asymm_v5,2020.2.10,Win32,60,61025ae37ef11b136ea224fe,,,,,,,,,2748,-87.19998986,45.59999424,1,0,0,response7disk,,1,-0.799988568,-0.800006449,1,0,0,rectangle,-0.799988568,-0.800006449,1,0,0,,,,,,,-0.799988568,-0.800006449,1,0,0,,0,73,73,10,1,
,,,,,,,,,,,,,FF,,,,,,,,1.956,,,,,,,,,,,,,,,,,,,,,,60b9af795939f976cb74232a,61036c65a3908e3f4b868f84,2021-07-29_23h06.09.832,Simcolourproject_2stim_asymm_v5,2020.2.10,Win32,60,61025ae37ef11b136ea224fe,,,,,,,,,3178,106.400013,35.9999941,1,0,0,response1disk,,6,4.800011516,-3.200006485,1,0,0,rectangle,4.800011516,-3.200006485,1,0,0,,,,,,,4.800011516,-3.200006485,1,0,0,,0,74,74,126,1,
,,,,,,,,,,,,,FF,,,,,,,,2.4589,,,,,,,,,,,,,,,,,,,,,,60b9af795939f976cb74232a,61036c65a3908e3f4b868f84,2021-07-29_23h06.09.832,Simcolourproject_2stim_asymm_v5,2020.2.10,Win32,60,61025ae37ef11b136ea224fe,,,,,,,,,3028,41.60006089,-70.40000749,1,0,0,response3disk,,4,-25.59998894,1.599993587,1,0,0,rectangle,-25.59998894,1.599993587,1,0,0,,,,,,,-25.59998894,1.599993587,1,0,0,,0,75,75,140,1,
,,,,,,,,,,,,,FF,,,,,,,,1.3335,,,,,,,,,,,,,,,,,,,,,,60b9af795939f976cb74232a,61036c65a3908e3f4b868f84,2021-07-29_23h06.09.832,Simcolourproject_2stim_asymm_v5,2020.2.10,Win32,60,61025ae37ef11b136ea224fe,,,,,,,,,182,-90.39994107,-44.00000709,1,0,0,response5disk,,2,9.600060415,5.599993646,1,0,0,rectangle,9.600060415,5.599993646,1,0,0,,,,,,,9.600060415,5.599993646,1,0,0,,0,76,76,68,1,
,,,,,,,,,,,,,FF,,,,,,,,3.2926,,,,,,,,,,,,,,,,,,,,,,60b9af795939f976cb74232a,61036c65a3908e3f4b868f84,2021-07-29_23h06.09.832,Simcolourproject_2stim_asymm_v5,2020.2.10,Win32,60,61025ae37ef11b136ea224fe,,,,,,,,,403,92.00001281,28.79999399,1,0,0,response1disk,,6,7.200011551,-0.800006449,1,0,0,rectangle,7.200011551,-0.800006449,1,0,0,,,,,,,7.200011551,-0.800006449,1,0,0,,0,77,77,23,1,
,,,,,,,,,,,,,FF,,,,,,,,1.6283,,,,,,,,,,,,,,,,,,,,,,60b9af795939f976cb74232a,61036c65a3908e3f4b868f84,2021-07-29_23h06.09.832,Simcolourproject_2stim_asymm_v5,2020.2.10,Win32,60,61025ae37ef11b136ea224fe,,,,,,,,,1928,92.00001281,-40.80000705,1,0,0,response3disk,,5,4.800011516,-1.600006461,1,0,0,rectangle,4.800011516,-1.600006461,1,0,0,,,,,,,4.800011516,-1.600006461,1,0,0,,0,78,78,139,1,
,,,,,,,,,,,,,FF,,,,,,,,1.5837,,,,,,,,,,,,,,,,,,,,,,60b9af795939f976cb74232a,61036c65a3908e3f4b868f84,2021-07-29_23h06.09.832,Simcolourproject_2stim_asymm_v5,2020.2.10,Win32,60,61025ae37ef11b136ea224fe,,,,,,,,,4075,-86.39994102,-40.80000705,1,0,0,response5disk,,2,1.600060296,-6.400006533,1,0,0,rectangle,1.600060296,-6.400006533,1,0,0,,,,,,,1.600060296,-6.400006533,1,0,0,,0,79,79,79,1,
,,,,,,,,,,,,,FF,,,,,,,,2.1229,,,,,,,,,,,,,,,,,,,,,,60b9af795939f976cb74232a,61036c65a3908e3f4b868f84,2021-07-29_23h06.09.832,Simcolourproject_2stim_asymm_v5,2020.2.10,Win32,60,61025ae37ef11b136ea224fe,,,,,,,,,2743,-78.3999409,27.99999398,1,0,0,response7disk,,1,0.800011456,2.399993598,1,0,0,rectangle,0.800011456,2.399993598,1,0,0,,,,,,,0.800011456,2.399993598,1,0,0,,0,80,80,83,1,
,,,,,,,,,,,,,FF,,,,,,,,2.0841,,,,,,,,,,,,,,,,,,,,,,60b9af795939f976cb74232a,61036c65a3908e3f4b868f84,2021-07-29_23h06.09.832,Simcolourproject_2stim_asymm_v5,2020.2.10,Win32,60,61025ae37ef11b136ea224fe,,,,,,,,,2158,80.80001265,32.79999405,1,0,0,response1disk,,6,20.80001175,-4.000006497,1,0,0,rectangle,20.80001175,-4.000006497,1,0,0,,,,,,,20.80001175,-4.000006497,1,0,0,,0,81,81,104,1,
,,,,,,,,,,,,,FF,,,,,,,,1.2087,,,,,,,,,,,,,,,,,,,,,,60b9af795939f976cb74232a,61036c65a3908e3f4b868f84,2021-07-29_23h06.09.832,Simcolourproject_2stim_asymm_v5,2020.2.10,Win32,60,61025ae37ef11b136ea224fe,,,,,,,,,2392,89.60001278,38.39999413,1,0,0,response1disk,,6,19.20001173,-2.400006473,1,0,0,rectangle,19.20001173,-2.400006473,1,0,0,,,,,,,19.20001173,-2.400006473,1,0,0,,0,82,82,144,1,
,,,,,,,,,,,,,FF,,,,,,,,2.292,,,,,,,,,,,,,,,,,,,,,,60b9af795939f976cb74232a,61036c65a3908e3f4b868f84,2021-07-29_23h06.09.832,Simcolourproject_2stim_asymm_v5,2020.2.10,Win32,60,61025ae37ef11b136ea224fe,,,,,,,,,2289,52.80001223,-31.2000069,1,0,0,response3disk,,5,-0.799988568,3.19999361,1,0,0,rectangle,-0.799988568,3.19999361,1,0,0,,,,,,,-0.799988568,3.19999361,1,0,0,,0,83,83,76,1,
,,,,,,,,,,,,,FF,,,,,,,,1.75,,,,,,,,,,,,,,,,,,,,,,60b9af795939f976cb74232a,61036c65a3908e3f4b868f84,2021-07-29_23h06.09.832,Simcolourproject_2stim_asymm_v5,2020.2.10,Win32,60,61025ae37ef11b136ea224fe,,,,,,,,,166,81.60001266,-44.8000071,1,0,0,response3disk,,5,8.800011575,-15.20000666,1,0,0,rectangle,8.800011575,-15.20000666,1,0,0,,,,,,,8.800011575,-15.20000666,1,0,0,,0,84,84,70,1,
,,,,,,,,,,,,,FF,,,,,,,,1.2087,,,,,,,,,,,,,,,,,,,,,,60b9af795939f976cb74232a,61036c65a3908e3f4b868f84,2021-07-29_23h06.09.832,Simcolourproject_2stim_asymm_v5,2020.2.10,Win32,60,61025ae37ef11b136ea224fe,,,,,,,,,2056,112.0000131,-25.60000682,1,0,0,response3disk,,5,-13.59998876,8.799993694,1,0,0,rectangle,-13.59998876,8.799993694,1,0,0,,,,,,,-13.59998876,8.799993694,1,0,0,,0,85,85,8,1,
,,,,,,,,,,,,,FF,,,,,,,,1.7501,,,,,,,,,,,,,,,,,,,,,,60b9af795939f976cb74232a,61036c65a3908e3f4b868f84,2021-07-29_23h06.09.832,Simcolourproject_2stim_asymm_v5,2020.2.10,Win32,60,61025ae37ef11b136ea224fe,,,,,,,,,2586,80.00001264,-54.40000725,1,0,0,response3disk,,5,-0.799988568,-1.600006461,1,0,0,rectangle,-0.799988568,-1.600006461,1,0,0,,,,,,,-0.799988568,-1.600006461,1,0,0,,0,86,86,51,1,
,,,,,,,,,,,,,FF,,,,,,,,2.0002,,,,,,,,,,,,,,,,,,,,,,60b9af795939f976cb74232a,61036c65a3908e3f4b868f84,2021-07-29_23h06.09.832,Simcolourproject_2stim_asymm_v5,2020.2.10,Win32,60,61025ae37ef11b136ea224fe,,,,,,,,,1418,-51.99998933,-72.00000751,1,0,0,response5disk,,3,-6.399939823,-12.80000663,1,0,0,rectangle,-6.399939823,-12.80000663,1,0,0,,,,,,,-6.399939823,-12.80000663,1,0,0,,0,87,87,153,1,
,,,,,,,,,,,,,FF,,,,,,,,1.8755,,,,,,,,,,,,,,,,,,,,,,60b9af795939f976cb74232a,61036c65a3908e3f4b868f84,2021-07-29_23h06.09.832,Simcolourproject_2stim_asymm_v5,2020.2.10,Win32,60,61025ae37ef11b136ea224fe,,,,,,,,,2907,-99.19999003,-40.80000705,1,0,0,response5disk,,2,-5.599988639,-0.800006449,1,0,0,rectangle,-5.599988639,-0.800006449,1,0,0,,,,,,,-5.599988639,-0.800006449,1,0,0,,0,88,88,145,1,
,,,,,,,,,,,,,FF,,,,,,,,1.6672,,,,,,,,,,,,,,,,,,,,,,60b9af795939f976cb74232a,61036c65a3908e3f4b868f84,2021-07-29_23h06.09.832,Simcolourproject_2stim_asymm_v5,2020.2.10,Win32,60,61025ae37ef11b136ea224fe,,,,,,,,,4348,-72.79998964,37.59999412,1,0,0,response7disk,,1,-12.79998875,-2.400006473,1,0,0,rectangle,-12.79998875,-2.400006473,1,0,0,,,,,,,-12.79998875,-2.400006473,1,0,0,,0,89,89,92,1,
,,,,,,,,,,,,,FF,,,,,,,,1.7923,,,,,,,,,,,,,,,,,,,,,,60b9af795939f976cb74232a,61036c65a3908e3f4b868f84,2021-07-29_23h06.09.832,Simcolourproject_2stim_asymm_v5,2020.2.10,Win32,60,61025ae37ef11b136ea224fe,,,,,,,,,1918,-31.99998903,-82.40000767,1,0,0,response5disk,,3,2.40001148,0.799993575,1,0,0,rectangle,2.40001148,0.799993575,1,0,0,,,,,,,2.40001148,0.799993575,1,0,0,,0,90,90,9,1,
,,,,,,,,,,,,,FF,,,,,,,,2.4585,,,,,,,,,,,,,,,,,,,,,,60b9af795939f976cb74232a,61036c65a3908e3f4b868f84,2021-07-29_23h06.09.832,Simcolourproject_2stim_asymm_v5,2020.2.10,Win32,60,61025ae37ef11b136ea224fe,,,,,,,,,1792,52.00001222,-70.40000749,1,0,0,response3disk,,4,-2.399939764,-4.800006509,1,0,0,rectangle,-2.399939764,-4.800006509,1,0,0,,,,,,,-2.399939764,-4.800006509,1,0,0,,0,91,91,156,1,
,,,,,,,,,,,,,FF,,,,,,,,3.7921,,,,,,,,,,,,,,,,,,,,,,60b9af795939f976cb74232a,61036c65a3908e3f4b868f84,2021-07-29_23h06.09.832,Simcolourproject_2stim_asymm_v5,2020.2.10,Win32,60,61025ae37ef11b136ea224fe,,,,,,,,,3596,-67.19998956,83.19997039,1,0,0,response7disk,,0,-11.19998872,-0.800006449,1,0,0,rectangle,-11.19998872,-0.800006449,1,0,0,,,,,,,-11.19998872,-0.800006449,1,0,0,,0,92,92,134,1,
,,,,,,,,,,,,,FF,,,,,,,,4.0004,,,,,,,,,,,,,,,,,,,,,,60b9af795939f976cb74232a,61036c65a3908e3f4b868f84,2021-07-29_23h06.09.832,Simcolourproject_2stim_asymm_v5,2020.2.10,Win32,60,61025ae37ef11b136ea224fe,,,,,,,,,1636,48.80001217,-76.00000757,1,0,0,response3disk,,4,2.40001148,0.799993575,1,0,0,rectangle,2.40001148,0.799993575,1,0,0,,,,,,,2.40001148,0.799993575,1,0,0,,0,93,93,31,1,
,,,,,,,,,,,,,FF,,,,,,,,1.875,,,,,,,,,,,,,,,,,,,,,,60b9af795939f976cb74232a,61036c65a3908e3f4b868f84,2021-07-29_23h06.09.832,Simcolourproject_2stim_asymm_v5,2020.2.10,Win32,60,61025ae37ef11b136ea224fe,,,,,,,,,2145,86.40001273,53.59999436,1,0,0,response1disk,,6,-9.599988699,3.19999361,1,0,0,rectangle,-9.599988699,3.19999361,1,0,0,,,,,,,-9.599988699,3.19999361,1,0,0,,0,94,94,17,1,
,,,,,,,,,,,,,FF,,,,,,,,7.4171,,,,,,,,,,,,,,,,,,,,,,60b9af795939f976cb74232a,61036c65a3908e3f4b868f84,2021-07-29_23h06.09.832,Simcolourproject_2stim_asymm_v5,2020.2.10,Win32,60,61025ae37ef11b136ea224fe,,,,,,,,,3308,60.00001234,83.99999481,1,0,0,response1disk,,7,13.60006047,-5.600006521,1,0,0,rectangle,13.60006047,-5.600006521,1,0,0,,,,,,,13.60006047,-5.600006521,1,0,0,,0,95,95,95,1,
,,,,,,,,,,,,,FF,,,,,,,,4.1252,,,,,,,,,,,,,,,,,,,,,,60b9af795939f976cb74232a,61036c65a3908e3f4b868f84,2021-07-29_23h06.09.832,Simcolourproject_2stim_asymm_v5,2020.2.10,Win32,60,61025ae37ef11b136ea224fe,,,,,,,,,1377,-91.19998991,35.19996967,1,0,0,response7disk,,1,14.40001166,-13.60000664,1,0,0,rectangle,14.40001166,-13.60000664,1,0,0,,,,,,,14.40001166,-13.60000664,1,0,0,,0,96,96,93,1,
,,,,,,,,,,,,,FF,,,,,,,,3.0836,,,,,,,,,,,,,,,,,,,,,,60b9af795939f976cb74232a,61036c65a3908e3f4b868f84,2021-07-29_23h06.09.832,Simcolourproject_2stim_asymm_v5,2020.2.10,Win32,60,61025ae37ef11b136ea224fe,,,,,,,,,2603,-103.9999901,-29.60000688,1,0,0,response5disk,,2,-3.999988616,13.59999377,1,0,0,rectangle,-3.999988616,13.59999377,1,0,0,,,,,,,-3.999988616,13.59999377,1,0,0,,0,97,97,59,1,
,,,,,,,,,,,,,FF,,,,,,,,7.4586,,,,,,,,,,,,,,,,,,,,,,60b9af795939f976cb74232a,61036c65a3908e3f4b868f84,2021-07-29_23h06.09.832,Simcolourproject_2stim_asymm_v5,2020.2.10,Win32,60,61025ae37ef11b136ea224fe,,,,,,,,,2911,-102.3999413,-40.00000703,1,0,0,response5disk,,2,10.4000116,7.999993682,1,0,0,rectangle,10.4000116,7.999993682,1,0,0,,,,,,,10.4000116,7.999993682,1,0,0,,0,98,98,5,1,
,,,,,,,,,,,,,FF,,,,,,,,1.8335,,,,,,,,,,,,,,,,,,,,,,60b9af795939f976cb74232a,61036c65a3908e3f4b868f84,2021-07-29_23h06.09.832,Simcolourproject_2stim_asymm_v5,2020.2.10,Win32,60,61025ae37ef11b136ea224fe,,,,,,,,,2027,-67.19998956,31.99999404,1,0,0,response7disk,,1,3.200011492,3.19999361,1,0,0,rectangle,3.200011492,3.19999361,1,0,0,,,,,,,3.200011492,3.19999361,1,0,0,,0,99,99,136,1,
,,,,,,,,,,,,,FF,,,,,,,,1.7924,,,,,,,,,,,,,,,,,,,,,,60b9af795939f976cb74232a,61036c65a3908e3f4b868f84,2021-07-29_23h06.09.832,Simcolourproject_2stim_asymm_v5,2020.2.10,Win32,60,61025ae37ef11b136ea224fe,,,,,,,,,1163,-43.1999892,-100.8000079,1,0,0,response5disk,,3,12.00001162,1.599993587,1,0,0,rectangle,12.00001162,1.599993587,1,0,0,,,,,,,12.00001162,1.599993587,1,0,0,,0,100,100,149,1,
,,,,,,,,,,,,,FF,,,,,,,,2.2922,,,,,,,,,,,,,,,,,,,,,,60b9af795939f976cb74232a,61036c65a3908e3f4b868f84,2021-07-29_23h06.09.832,Simcolourproject_2stim_asymm_v5,2020.2.10,Win32,60,61025ae37ef11b136ea224fe,,,,,,,,,2826,-37.59998912,-84.8000077,1,0,0,response5disk,,3,8.000011563,-8.800006568,1,0,0,rectangle,8.000011563,-8.800006568,1,0,0,,,,,,,8.000011563,-8.800006568,1,0,0,,0,101,101,63,1,
,,,,,,,,,,,,,FF,,,,,,,,1.7085,,,,,,,,,,,,,,,,,,,,,,60b9af795939f976cb74232a,61036c65a3908e3f4b868f84,2021-07-29_23h06.09.832,Simcolourproject_2stim_asymm_v5,2020.2.10,Win32,60,61025ae37ef11b136ea224fe,,,,,,,,,2887,-77.59998971,30.39999402,1,0,0,response7disk,,1,-24.79998893,3.999993622,1,0,0,rectangle,-24.79998893,3.999993622,1,0,0,,,,,,,-24.79998893,3.999993622,1,0,0,,0,102,102,33,1,
,,,,,,,,,,,,,FF,,,,,,,,6.1255,,,,,,,,,,,,,,,,,,,,,,60b9af795939f976cb74232a,61036c65a3908e3f4b868f84,2021-07-29_23h06.09.832,Simcolourproject_2stim_asymm_v5,2020.2.10,Win32,60,61025ae37ef11b136ea224fe,,,,,,,,,3829,113.6000131,-39.20000702,1,0,0,response3disk,,5,19.20001173,-3.200006485,1,0,0,rectangle,19.20001173,-3.200006485,1,0,0,,,,,,,19.20001173,-3.200006485,1,0,0,,0,103,103,39,1,
,,,,,,,,,,,,,FF,,,,,,,,2.0829,,,,,,,,,,,,,,,,,,,,,,60b9af795939f976cb74232a,61036c65a3908e3f4b868f84,2021-07-29_23h06.09.832,Simcolourproject_2stim_asymm_v5,2020.2.10,Win32,60,61025ae37ef11b136ea224fe,,,,,,,,,2015,99.20001292,57.59999442,1,0,0,response1disk,,6,15.20001167,1.599993587,1,0,0,rectangle,15.20001167,1.599993587,1,0,0,,,,,,,15.20001167,1.599993587,1,0,0,,0,104,104,56,1,
,,,,,,,,,,,,,FF,,,,,,,,5.5004,,,,,,,,,,,,,,,,,,,,,,60b9af795939f976cb74232a,61036c65a3908e3f4b868f84,2021-07-29_23h06.09.832,Simcolourproject_2stim_asymm_v5,2020.2.10,Win32,60,61025ae37ef11b136ea224fe,,,,,,,,,3734,-97.59999001,-34.40000695,1,0,0,response5disk,,2,5.600060356,1.599993587,1,0,0,rectangle,5.600060356,1.599993587,1,0,0,,,,,,,5.600060356,1.599993587,1,0,0,,0,105,105,75,1,
,,,,,,,,,,,,,FF,,,,,,,,1.3335,,,,,,,,,,,,,,,,,,,,,,60b9af795939f976cb74232a,61036c65a3908e3f4b868f84,2021-07-29_23h06.09.832,Simcolourproject_2stim_asymm_v5,2020.2.10,Win32,60,61025ae37ef11b136ea224fe,,,,,,,,,2251,-108.7999902,-56.80000728,1,0,0,response5disk,,2,10.4000116,8.799993694,1,0,0,rectangle,10.4000116,8.799993694,1,0,0,,,,,,,10.4000116,8.799993694,1,0,0,,0,106,106,71,1,
,,,,,,,,,,,,,FF,,,,,,,,2.8346,,,,,,,,,,,,,,,,,,,,,,60b9af795939f976cb74232a,61036c65a3908e3f4b868f84,2021-07-29_23h06.09.832,Simcolourproject_2stim_asymm_v5,2020.2.10,Win32,60,61025ae37ef11b136ea224fe,,,,,,,,,2870,96.00001287,33.59999406,1,0,0,response1disk,,6,9.600060415,-5.600006521,1,0,0,rectangle,9.600060415,-5.600006521,1,0,0,,,,,,,9.600060415,-5.600006521,1,0,0,,0,107,107,129,1,
,,,,,,,,,,,,,FF,,,,,,,,3.0003,,,,,,,,,,,,,,,,,,,,,,60b9af795939f976cb74232a,61036c65a3908e3f4b868f84,2021-07-29_23h06.09.832,Simcolourproject_2stim_asymm_v5,2020.2.10,Win32,60,61025ae37ef11b136ea224fe,,,,,,,,,3676,-57.59998941,93.59999496,1,0,0,response7disk,,0,8.000011563,-4.800006509,1,0,0,rectangle,-47.19998926,-90.40000778,1,0,0,response5disk_3,TRUE,3,3,"[237,150,276,18,121,24,302,180,245,4,40,16,317,1,310,242,278,70,109,212]",2.0415,4.000011504,0.799993575,1,0,0,rectangle,0,108,108,86,1,
,,,,,,,,,,,,,FF,,,,,,,,2.7504,,,,,,,,,,,,,,,,,,,,,,60b9af795939f976cb74232a,61036c65a3908e3f4b868f84,2021-07-29_23h06.09.832,Simcolourproject_2stim_asymm_v5,2020.2.10,Win32,60,61025ae37ef11b136ea224fe,,,,,,,,,205,104.000013,-30.40000689,1,0,0,response3disk,,5,10.4000116,0.799993575,1,0,0,rectangle,10.4000116,0.799993575,1,0,0,,,,,,,10.4000116,0.799993575,1,0,0,,0,109,109,19,1,
,,,,,,,,,,,,,FF,,,,,,,,1.8746,,,,,,,,,,,,,,,,,,,,,,60b9af795939f976cb74232a,61036c65a3908e3f4b868f84,2021-07-29_23h06.09.832,Simcolourproject_2stim_asymm_v5,2020.2.10,Win32,60,61025ae37ef11b136ea224fe,,,,,,,,,2400,76.80001259,43.19996979,1,0,0,response1disk,,6,1.600060296,-5.600006521,1,0,0,rectangle,1.600060296,-5.600006521,1,0,0,,,,,,,1.600060296,-5.600006521,1,0,0,,0,110,110,38,1,
,,,,,,,,,,,,,FF,,,,,,,,4.1253,,,,,,,,,,,,,,,,,,,,,,60b9af795939f976cb74232a,61036c65a3908e3f4b868f84,2021-07-29_23h06.09.832,Simcolourproject_2stim_asymm_v5,2020.2.10,Win32,60,61025ae37ef11b136ea224fe,,,,,,,,,2283,62.40001237,87.99999487,1,0,0,response1disk,,7,8.800011575,-2.400006473,1,0,0,rectangle,8.800011575,-2.400006473,1,0,0,,,,,,,8.800011575,-2.400006473,1,0,0,,0,111,111,47,1,
,,,,,,,,,,,,,FF,,,,,,,,2.3335,,,,,,,,,,,,,,,,,,,,,,60b9af795939f976cb74232a,61036c65a3908e3f4b868f84,2021-07-29_23h06.09.832,Simcolourproject_2stim_asymm_v5,2020.2.10,Win32,60,61025ae37ef11b136ea224fe,,,,,,,,,2800,88.00001276,25.59999394,1,0,0,response1disk,,6,22.40001178,2.399993598,1,0,0,rectangle,22.40001178,2.399993598,1,0,0,,,,,,,22.40001178,2.399993598,1,0,0,,0,112,112,80,1,
,,,,,,,,,,,,,FF,,,,,,,,5.0001,,,,,,,,,,,,,,,,,,,,,,60b9af795939f976cb74232a,61036c65a3908e3f4b868f84,2021-07-29_23h06.09.832,Simcolourproject_2stim_asymm_v5,2020.2.10,Win32,60,61025ae37ef11b136ea224fe,,,,,,,,,2801,-35.99998909,-76.00000757,1,0,0,response5disk,,3,-8.799988687,-8.800006568,1,0,0,rectangle,-8.799988687,-8.800006568,1,0,0,,,,,,,-8.799988687,-8.800006568,1,0,0,,0,113,113,114,1,
,,,,,,,,,,,,,FF,,,,,,,,2.8746,,,,,,,,,,,,,,,,,,,,,,60b9af795939f976cb74232a,61036c65a3908e3f4b868f84,2021-07-29_23h06.09.832,Simcolourproject_2stim_asymm_v5,2020.2.10,Win32,60,61025ae37ef11b136ea224fe,,,,,,,,,3409,92.80001283,29.599994,1,0,0,response1disk,,6,14.40001166,-0.800006449,1,0,0,rectangle,14.40001166,-0.800006449,1,0,0,,,,,,,14.40001166,-0.800006449,1,0,0,,0,114,114,24,1,
,,,,,,,,,,,,,FF,,,,,,,,2.2918,,,,,,,,,,,,,,,,,,,,,,60b9af795939f976cb74232a,61036c65a3908e3f4b868f84,2021-07-29_23h06.09.832,Simcolourproject_2stim_asymm_v5,2020.2.10,Win32,60,61025ae37ef11b136ea224fe,,,,,,,,,2058,75.20001256,-52.80000722,1,0,0,response3disk,,5,-15.19998878,-5.600006521,1,0,0,rectangle,-15.19998878,-5.600006521,1,0,0,,,,,,,-15.19998878,-5.600006521,1,0,0,,0,115,115,34,1,
,,,,,,,,,,,,,FF,,,,,,,,1.7085,,,,,,,,,,,,,,,,,,,,,,60b9af795939f976cb74232a,61036c65a3908e3f4b868f84,2021-07-29_23h06.09.832,Simcolourproject_2stim_asymm_v5,2020.2.10,Win32,60,61025ae37ef11b136ea224fe,,,,,,,,,993,39.20001203,-68.80000746,1,0,0,response3disk,,4,-2.399939764,-8.800006568,1,0,0,rectangle,-2.399939764,-8.800006568,1,0,0,,,,,,,-2.399939764,-8.800006568,1,0,0,,0,116,116,55,1,
,,,,,,,,,,,,,FF,,,,,,,,2.4571,,,,,,,,,,,,,,,,,,,,,,60b9af795939f976cb74232a,61036c65a3908e3f4b868f84,2021-07-29_23h06.09.832,Simcolourproject_2stim_asymm_v5,2020.2.10,Win32,60,61025ae37ef11b136ea224fe,,,,,,,,,629,48.00001216,86.39999485,1,0,0,response1disk,,7,-8.799988687,-1.600006461,1,0,0,rectangle,-8.799988687,-1.600006461,1,0,0,,,,,,,-8.799988687,-1.600006461,1,0,0,,0,117,117,54,1,
,,,,,,,,,,,,,FF,,,,,,,,1.1669,,,,,,,,,,,,,,,,,,,,,,60b9af795939f976cb74232a,61036c65a3908e3f4b868f84,2021-07-29_23h06.09.832,Simcolourproject_2stim_asymm_v5,2020.2.10,Win32,60,61025ae37ef11b136ea224fe,,,,,,,,,1499,47.20001215,88.79999489,1,0,0,response1disk,,7,0.800011456,-6.4373E-06,1,0,0,rectangle,0.800011456,-6.4373E-06,1,0,0,,,,,,,0.800011456,-6.4373E-06,1,0,0,,0,118,118,118,1,
,,,,,,,,,,,,,FF,,,,,,,,1.5843,,,,,,,,,,,,,,,,,,,,,,60b9af795939f976cb74232a,61036c65a3908e3f4b868f84,2021-07-29_23h06.09.832,Simcolourproject_2stim_asymm_v5,2020.2.10,Win32,60,61025ae37ef11b136ea224fe,,,,,,,,,2672,45.60006095,-79.20000762,1,0,0,response3disk,,4,3.200011492,-4.800006509,1,0,0,rectangle,3.200011492,-4.800006509,1,0,0,,,,,,,3.200011492,-4.800006509,1,0,0,,0,119,119,107,1,
,,,,,,,,,,,,,FF,,,,,,,,2.8754,,,,,,,,,,,,,,,,,,,,,,60b9af795939f976cb74232a,61036c65a3908e3f4b868f84,2021-07-29_23h06.09.832,Simcolourproject_2stim_asymm_v5,2020.2.10,Win32,60,61025ae37ef11b136ea224fe,,,,,,,,,16,56.80001229,-83.20000768,1,0,0,response3disk,,4,-13.59998876,0.799993575,1,0,0,rectangle,74.40001255,-49.60000718,1,0,0,response3disk_3,TRUE,5,5,"[237,150,276,18,121,24,302,180,245,4,40,16,317,1,310,242,278,70,109,212]",1.8329,-0.799988568,-7.200006545,1,0,0,rectangle,0,120,120,94,1,
,,,,,,,,,,,,,FF,,,,,,,,2.2501,,,,,,,,,,,,,,,,,,,,,,60b9af795939f976cb74232a,61036c65a3908e3f4b868f84,2021-07-29_23h06.09.832,Simcolourproject_2stim_asymm_v5,2020.2.10,Win32,60,61025ae37ef11b136ea224fe,,,,,,,,,580,48.80001217,-94.40000784,1,0,0,response3disk,,4,1.14441E-05,-10.40000659,1,0,0,rectangle,1.14441E-05,-10.40000659,1,0,0,,,,,,,1.14441E-05,-10.40000659,1,0,0,,0,121,121,105,1,
,,,,,,,,,,,,,FF,,,,,,,,2.1852,,,,,,,,,,,,,,,,,,,,,,60b9af795939f976cb74232a,61036c65a3908e3f4b868f84,2021-07-29_23h06.09.832,Simcolourproject_2stim_asymm_v5,2020.2.10,Win32,60,61025ae37ef11b136ea224fe,,,,,,,,,3571,64.80001241,-78.40000761,1,0,0,response3disk,,4,12.00001162,7.999993682,1,0,0,rectangle,12.00001162,7.999993682,1,0,0,,,,,,,12.00001162,7.999993682,1,0,0,,0,122,122,58,1,
,,,,,,,,,,,,,FF,,,,,,,,5.6243,,,,,,,,,,,,,,,,,,,,,,60b9af795939f976cb74232a,61036c65a3908e3f4b868f84,2021-07-29_23h06.09.832,Simcolourproject_2stim_asymm_v5,2020.2.10,Win32,60,61025ae37ef11b136ea224fe,,,,,,,,,1550,-35.99998909,-89.6000566,1,0,0,response5disk,,3,-9.599988699,-4.000006497,1,0,0,rectangle,-9.599988699,-4.000006497,1,0,0,,,,,,,-9.599988699,-4.000006497,1,0,0,,0,123,123,152,1,
,,,,,,,,,,,,,FF,,,,,,,,2.1256,,,,,,,,,,,,,,,,,,,,,,60b9af795939f976cb74232a,61036c65a3908e3f4b868f84,2021-07-29_23h06.09.832,Simcolourproject_2stim_asymm_v5,2020.2.10,Win32,60,61025ae37ef11b136ea224fe,,,,,,,,,978,-29.599989,-87.20000774,1,0,0,response5disk,,3,-3.999988616,-5.600006521,1,0,0,rectangle,-3.999988616,-5.600006521,1,0,0,,,,,,,-3.999988616,-5.600006521,1,0,0,,0,124,124,77,1,
,,,,,,,,,,,,,FF,,,,,,,,3.7922,,,,,,,,,,,,,,,,,,,,,,60b9af795939f976cb74232a,61036c65a3908e3f4b868f84,2021-07-29_23h06.09.832,Simcolourproject_2stim_asymm_v5,2020.2.10,Win32,60,61025ae37ef11b136ea224fe,,,,,,,,,431,-42.39994036,-76.80000758,1,0,0,response5disk,,3,-5.599988639,-5.600006521,1,0,0,rectangle,-5.599988639,-5.600006521,1,0,0,,,,,,,-5.599988639,-5.600006521,1,0,0,,0,125,125,102,1,
,,,,,,,,,,,,,FF,,,,,,,,3.4586,,,,,,,,,,,,,,,,,,,,,,60b9af795939f976cb74232a,61036c65a3908e3f4b868f84,2021-07-29_23h06.09.832,Simcolourproject_2stim_asymm_v5,2020.2.10,Win32,60,61025ae37ef11b136ea224fe,,,,,,,,,4265,-77.59998971,31.99999404,1,0,0,response7disk,,1,11.20001161,-11.2000066,1,0,0,rectangle,11.20001161,-11.2000066,1,0,0,,,,,,,11.20001161,-11.2000066,1,0,0,,0,126,126,42,1,
,,,,,,,,,,,,,FF,,,,,,,,2.5019,,,,,,,,,,,,,,,,,,,,,,60b9af795939f976cb74232a,61036c65a3908e3f4b868f84,2021-07-29_23h06.09.832,Simcolourproject_2stim_asymm_v5,2020.2.10,Win32,60,61025ae37ef11b136ea224fe,,,,,,,,,1104,91.2000128,45.59999424,1,0,0,response1disk,,6,0.800011456,6.399993658,1,0,0,rectangle,0.800011456,6.399993658,1,0,0,,,,,,,0.800011456,6.399993658,1,0,0,,0,127,127,27,1,
,,,,,,,,,,,,,FF,,,,,,,,1.6672,,,,,,,,,,,,,,,,,,,,,,60b9af795939f976cb74232a,61036c65a3908e3f4b868f84,2021-07-29_23h06.09.832,Simcolourproject_2stim_asymm_v5,2020.2.10,Win32,60,61025ae37ef11b136ea224fe,,,,,,,,,4274,83.20001268,41.59999418,1,0,0,response1disk,,6,4.800011516,2.399993598,1,0,0,rectangle,4.800011516,2.399993598,1,0,0,,,,,,,4.800011516,2.399993598,1,0,0,,0,128,128,117,1,
,,,,,,,,,,,,,FF,,,,,,,,2.917,,,,,,,,,,,,,,,,,,,,,,60b9af795939f976cb74232a,61036c65a3908e3f4b868f84,2021-07-29_23h06.09.832,Simcolourproject_2stim_asymm_v5,2020.2.10,Win32,60,61025ae37ef11b136ea224fe,,,,,,,,,1585,73.60001254,-41.60000706,1,0,0,response3disk,,5,-0.799988568,2.399993598,1,0,0,rectangle,-0.799988568,2.399993598,1,0,0,,,,,,,-0.799988568,2.399993598,1,0,0,,0,129,129,142,1,
,,,,,,,,,,,,,FF,,,,,,,,5.0837,,,,,,,,,,,,,,,,,,,,,,60b9af795939f976cb74232a,61036c65a3908e3f4b868f84,2021-07-29_23h06.09.832,Simcolourproject_2stim_asymm_v5,2020.2.10,Win32,60,61025ae37ef11b136ea224fe,,,,,,,,,2313,27.20001185,-92.00000781,1,0,0,response3disk,,4,2.40001148,-8.000006557,1,0,0,rectangle,2.40001148,-8.000006557,1,0,0,,,,,,,2.40001148,-8.000006557,1,0,0,,0,130,130,69,1,
,,,,,,,,,,,,,FF,,,,,,,,2.3752,,,,,,,,,,,,,,,,,,,,,,60b9af795939f976cb74232a,61036c65a3908e3f4b868f84,2021-07-29_23h06.09.832,Simcolourproject_2stim_asymm_v5,2020.2.10,Win32,60,61025ae37ef11b136ea224fe,,,,,,,,,4119,-45.59998924,-99.20000792,1,0,0,response5disk,,3,1.600060296,4.799993634,1,0,0,rectangle,1.600060296,4.799993634,1,0,0,,,,,,,1.600060296,4.799993634,1,0,0,,0,131,131,82,1,
,,,,,,,,,,,,,FF,,,,,,,,1.5417,,,,,,,,,,,,,,,,,,,,,,60b9af795939f976cb74232a,61036c65a3908e3f4b868f84,2021-07-29_23h06.09.832,Simcolourproject_2stim_asymm_v5,2020.2.10,Win32,60,61025ae37ef11b136ea224fe,,,,,,,,,286,94.40001285,-31.2000069,1,0,0,response3disk,,5,-11.19998872,-2.400006473,1,0,0,rectangle,-11.19998872,-2.400006473,1,0,0,,,,,,,-11.19998872,-2.400006473,1,0,0,,0,132,132,66,1,
,,,,,,,,,,,,,FF,,,,,,,,2.8752,,,,,,,,,,,,,,,,,,,,,,60b9af795939f976cb74232a,61036c65a3908e3f4b868f84,2021-07-29_23h06.09.832,Simcolourproject_2stim_asymm_v5,2020.2.10,Win32,60,61025ae37ef11b136ea224fe,,,,,,,,,1167,58.40001231,86.39999485,1,0,0,response1disk,,7,-9.599988699,-5.600006521,1,0,0,rectangle,-9.599988699,-5.600006521,1,0,0,,,,,,,-9.599988699,-5.600006521,1,0,0,,0,133,133,101,1,
,,,,,,,,,,,,,FF,,,,,,,,2.0003,,,,,,,,,,,,,,,,,,,,,,60b9af795939f976cb74232a,61036c65a3908e3f4b868f84,2021-07-29_23h06.09.832,Simcolourproject_2stim_asymm_v5,2020.2.10,Win32,60,61025ae37ef11b136ea224fe,,,,,,,,,2305,-30.39994018,-92.80000782,1,0,0,response5disk,,3,-9.599988699,2.399993598,1,0,0,rectangle,-9.599988699,2.399993598,1,0,0,,,,,,,-9.599988699,2.399993598,1,0,0,,0,134,134,4,1,
,,,,,,,,,,,,,FF,,,,,,,,4.9168,,,,,,,,,,,,,,,,,,,,,,60b9af795939f976cb74232a,61036c65a3908e3f4b868f84,2021-07-29_23h06.09.832,Simcolourproject_2stim_asymm_v5,2020.2.10,Win32,60,61025ae37ef11b136ea224fe,,,,,,,,,2124,87.20001274,-56.00000727,1,0,0,response3disk,,5,-21.59998888,-3.200006485,1,0,0,rectangle,-21.59998888,-3.200006485,1,0,0,,,,,,,-21.59998888,-3.200006485,1,0,0,,0,135,135,109,1,
,,,,,,,,,,,,,FF,,,,,,,,1.6668,,,,,,,,,,,,,,,,,,,,,,60b9af795939f976cb74232a,61036c65a3908e3f4b868f84,2021-07-29_23h06.09.832,Simcolourproject_2stim_asymm_v5,2020.2.10,Win32,60,61025ae37ef11b136ea224fe,,,,,,,,,4136,-91.99998993,-54.40000725,1,0,0,response5disk,,2,-20.79998887,-2.400006473,1,0,0,rectangle,-20.79998887,-2.400006473,1,0,0,,,,,,,-20.79998887,-2.400006473,1,0,0,,0,136,136,13,1,
,,,,,,,,,,,,,FF,,,,,,,,1.1258,,,,,,,,,,,,,,,,,,,,,,60b9af795939f976cb74232a,61036c65a3908e3f4b868f84,2021-07-29_23h06.09.832,Simcolourproject_2stim_asymm_v5,2020.2.10,Win32,60,61025ae37ef11b136ea224fe,,,,,,,,,4284,54.40001225,95.99999499,1,0,0,response1disk,,7,5.600060356,11.19999373,1,0,0,rectangle,5.600060356,11.19999373,1,0,0,,,,,,,5.600060356,11.19999373,1,0,0,,0,137,137,121,1,
,,,,,,,,,,,,,FF,,,,,,,,4.292,,,,,,,,,,,,,,,,,,,,,,60b9af795939f976cb74232a,61036c65a3908e3f4b868f84,2021-07-29_23h06.09.832,Simcolourproject_2stim_asymm_v5,2020.2.10,Win32,60,61025ae37ef11b136ea224fe,,,,,,,,,3636,-40.79998916,-86.40000772,1,0,0,response5disk,,3,-9.599988699,4.799993634,1,0,0,rectangle,-9.599988699,4.799993634,1,0,0,,,,,,,-9.599988699,4.799993634,1,0,0,,0,138,138,57,1,
,,,,,,,,,,,,,FF,,,,,,,,3.1252,,,,,,,,,,,,,,,,,,,,,,60b9af795939f976cb74232a,61036c65a3908e3f4b868f84,2021-07-29_23h06.09.832,Simcolourproject_2stim_asymm_v5,2020.2.10,Win32,60,61025ae37ef11b136ea224fe,,,,,,,,,547,-83.99998981,-32.00000691,1,0,0,response5disk,,2,-17.59998882,-6.4373E-06,1,0,0,rectangle,-17.59998882,-6.4373E-06,1,0,0,,,,,,,-17.59998882,-6.4373E-06,1,0,0,,0,139,139,14,1,
,,,,,,,,,,,,,FF,,,,,,,,2.4585,,,,,,,,,,,,,,,,,,,,,,60b9af795939f976cb74232a,61036c65a3908e3f4b868f84,2021-07-29_23h06.09.832,Simcolourproject_2stim_asymm_v5,2020.2.10,Win32,60,61025ae37ef11b136ea224fe,,,,,,,,,3393,-55.19998938,86.39999485,1,0,0,response7disk,,0,-14.39993994,4.799993634,1,0,0,rectangle,-14.39993994,4.799993634,1,0,0,,,,,,,-14.39993994,4.799993634,1,0,0,,0,140,140,3,1,
,,,,,,,,,,,,,FF,,,,,,,,1.2499,,,,,,,,,,,,,,,,,,,,,,60b9af795939f976cb74232a,61036c65a3908e3f4b868f84,2021-07-29_23h06.09.832,Simcolourproject_2stim_asymm_v5,2020.2.10,Win32,60,61025ae37ef11b136ea224fe,,,,,,,,,3196,-44.79998922,70.39999461,1,0,0,response7disk,,0,-12.79998875,-1.600006461,1,0,0,rectangle,-12.79998875,-1.600006461,1,0,0,,,,,,,-12.79998875,-1.600006461,1,0,0,,0,141,141,111,1,
,,,,,,,,,,,,,FF,,,,,,,,2.9586,,,,,,,,,,,,,,,,,,,,,,60b9af795939f976cb74232a,61036c65a3908e3f4b868f84,2021-07-29_23h06.09.832,Simcolourproject_2stim_asymm_v5,2020.2.10,Win32,60,61025ae37ef11b136ea224fe,,,,,,,,,2491,-52.79998934,-80.80000764,1,0,0,response5disk,,3,16.00001168,-6.4373E-06,1,0,0,rectangle,16.00001168,-6.4373E-06,1,0,0,,,,,,,16.00001168,-6.4373E-06,1,0,0,,0,142,142,113,1,
,,,,,,,,,,,,,FF,,,,,,,,2.9169,,,,,,,,,,,,,,,,,,,,,,60b9af795939f976cb74232a,61036c65a3908e3f4b868f84,2021-07-29_23h06.09.832,Simcolourproject_2stim_asymm_v5,2020.2.10,Win32,60,61025ae37ef11b136ea224fe,,,,,,,,,2024,95.20001286,27.99999398,1,0,0,response1disk,,6,-7.999988675,3.19999361,1,0,0,rectangle,-7.999988675,3.19999361,1,0,0,,,,,,,-7.999988675,3.19999361,1,0,0,,0,143,143,12,1,
,,,,,,,,,,,,,FF,,,,,,,,2.2086,,,,,,,,,,,,,,,,,,,,,,60b9af795939f976cb74232a,61036c65a3908e3f4b868f84,2021-07-29_23h06.09.832,Simcolourproject_2stim_asymm_v5,2020.2.10,Win32,60,61025ae37ef11b136ea224fe,,,,,,,,,3329,-73.59998965,31.19996961,1,0,0,response7disk,,1,2.40001148,2.399993598,1,0,0,rectangle,2.40001148,2.399993598,1,0,0,,,,,,,2.40001148,2.399993598,1,0,0,,0,144,144,110,1,
,,,,,,,,,,,,,FF,,,,,,,,3.6669,,,,,,,,,,,,,,,,,,,,,,60b9af795939f976cb74232a,61036c65a3908e3f4b868f84,2021-07-29_23h06.09.832,Simcolourproject_2stim_asymm_v5,2020.2.10,Win32,60,61025ae37ef11b136ea224fe,,,,,,,,,537,101.600013,-49.60000718,1,0,0,response3disk,,5,7.200011551,-1.600006461,1,0,0,rectangle,7.200011551,-1.600006461,1,0,0,,,,,,,7.200011551,-1.600006461,1,0,0,,0,145,145,7,1,
,,,,,,,,,,,,,FF,,,,,,,,2.9163,,,,,,,,,,,,,,,,,,,,,,60b9af795939f976cb74232a,61036c65a3908e3f4b868f84,2021-07-29_23h06.09.832,Simcolourproject_2stim_asymm_v5,2020.2.10,Win32,60,61025ae37ef11b136ea224fe,,,,,,,,,1244,104.000013,41.59999418,1,0,0,response1disk,,6,4.800011516,5.599993646,1,0,0,rectangle,4.800011516,5.599993646,1,0,0,,,,,,,4.800011516,5.599993646,1,0,0,,0,146,146,61,1,
,,,,,,,,,,,,,FF,,,,,,,,2.2518,,,,,,,,,,,,,,,,,,,,,,60b9af795939f976cb74232a,61036c65a3908e3f4b868f84,2021-07-29_23h06.09.832,Simcolourproject_2stim_asymm_v5,2020.2.10,Win32,60,61025ae37ef11b136ea224fe,,,,,,,,,187,-87.19998986,42.39999419,1,0,0,response7disk,,1,-10.39993988,4.799993634,1,0,0,rectangle,-10.39993988,4.799993634,1,0,0,,,,,,,-10.39993988,4.799993634,1,0,0,,0,147,147,147,1,
,,,,,,,,,,,,,FF,,,,,,,,1.1663,,,,,,,,,,,,,,,,,,,,,,60b9af795939f976cb74232a,61036c65a3908e3f4b868f84,2021-07-29_23h06.09.832,Simcolourproject_2stim_asymm_v5,2020.2.10,Win32,60,61025ae37ef11b136ea224fe,,,,,,,,,257,-88.79998988,40.79999417,1,0,0,response7disk,,1,-14.39993994,7.19999367,1,0,0,rectangle,-14.39993994,7.19999367,1,0,0,,,,,,,-14.39993994,7.19999367,1,0,0,,0,148,148,108,1,
,,,,,,,,,,,,,FF,,,,,,,,2.4169,,,,,,,,,,,,,,,,,,,,,,60b9af795939f976cb74232a,61036c65a3908e3f4b868f84,2021-07-29_23h06.09.832,Simcolourproject_2stim_asymm_v5,2020.2.10,Win32,60,61025ae37ef11b136ea224fe,,,,,,,,,478,92.00001281,-34.40000695,1,0,0,response3disk,,5,-5.599988639,14.39999378,1,0,0,rectangle,-85.59998983,-20.80000675,1,0,0,response5disk_3,TRUE,2,2,"[237,150,276,18,121,24,302,180,245,4,40,16,317,1,310,242,278,70,109,212]",1.8748,-0.799988568,7.19999367,1,0,0,rectangle,0,149,149,98,1,
,,,,,,,,,,,,,FF,,,,,,,,2.5835,,,,,,,,,,,,,,,,,,,,,,60b9af795939f976cb74232a,61036c65a3908e3f4b868f84,2021-07-29_23h06.09.832,Simcolourproject_2stim_asymm_v5,2020.2.10,Win32,60,61025ae37ef11b136ea224fe,,,,,,,,,3410,-62.39994066,-85.60005654,1,0,0,response5disk,,3,-1.59998858,-6.400006533,1,0,0,rectangle,-1.59998858,-6.400006533,1,0,0,,,,,,,-1.59998858,-6.400006533,1,0,0,,0,150,150,97,1,
,,,,,,,,,,,,,FF,,,,,,,,1.9168,,,,,,,,,,,,,,,,,,,,,,60b9af795939f976cb74232a,61036c65a3908e3f4b868f84,2021-07-29_23h06.09.832,Simcolourproject_2stim_asymm_v5,2020.2.10,Win32,60,61025ae37ef11b136ea224fe,,,,,,,,,42,-98.39994119,-42.40000707,1,0,0,response5disk,,2,22.40001178,1.599993587,1,0,0,rectangle,22.40001178,1.599993587,1,0,0,,,,,,,22.40001178,1.599993587,1,0,0,,0,151,151,78,1,
,,,,,,,,,,,,,FF,,,,,,,,3.8746,,,,,,,,,,,,,,,,,,,,,,60b9af795939f976cb74232a,61036c65a3908e3f4b868f84,2021-07-29_23h06.09.832,Simcolourproject_2stim_asymm_v5,2020.2.10,Win32,60,61025ae37ef11b136ea224fe,,,,,,,,,3539,58.40001231,87.19997045,1,0,0,response1disk,,7,4.000011504,-4.000006497,1,0,0,rectangle,4.000011504,-4.000006497,1,0,0,,,,,,,4.000011504,-4.000006497,1,0,0,,0,152,152,158,1,
,,,,,,,,,,,,,FF,,,,,,,,4.9583,,,,,,,,,,,,,,,,,,,,,,60b9af795939f976cb74232a,61036c65a3908e3f4b868f84,2021-07-29_23h06.09.832,Simcolourproject_2stim_asymm_v5,2020.2.10,Win32,60,61025ae37ef11b136ea224fe,,,,,,,,,137,81.60001266,38.39999413,1,0,0,response1disk,,6,9.600060415,-8.000006557,1,0,0,rectangle,9.600060415,-8.000006557,1,0,0,,,,,,,9.600060415,-8.000006557,1,0,0,,0,153,153,15,1,
,,,,,,,,,,,,,FF,,,,,,,,3.0418,,,,,,,,,,,,,,,,,,,,,,60b9af795939f976cb74232a,61036c65a3908e3f4b868f84,2021-07-29_23h06.09.832,Simcolourproject_2stim_asymm_v5,2020.2.10,Win32,60,61025ae37ef11b136ea224fe,,,,,,,,,540,31.20001191,104.7999951,1,0,0,response1disk,,7,10.4000116,-12.80000663,1,0,0,rectangle,10.4000116,-12.80000663,1,0,0,,,,,,,10.4000116,-12.80000663,1,0,0,,0,154,154,60,1,
,,,,,,,,,,,,,FF,,,,,,,,2.917,,,,,,,,,,,,,,,,,,,,,,60b9af795939f976cb74232a,61036c65a3908e3f4b868f84,2021-07-29_23h06.09.832,Simcolourproject_2stim_asymm_v5,2020.2.10,Win32,60,61025ae37ef11b136ea224fe,,,,,,,,,3323,99.20001292,37.59999412,1,0,0,response1disk,,6,14.40001166,-4.800006509,1,0,0,rectangle,14.40001166,-4.800006509,1,0,0,,,,,,,14.40001166,-4.800006509,1,0,0,,0,155,155,50,1,
,,,,,,,,,,,,,FF,,,,,,,,1.7921,,,,,,,,,,,,,,,,,,,,,,60b9af795939f976cb74232a,61036c65a3908e3f4b868f84,2021-07-29_23h06.09.832,Simcolourproject_2stim_asymm_v5,2020.2.10,Win32,60,61025ae37ef11b136ea224fe,,,,,,,,,1372,-99.19999003,28.79999399,1,0,0,response7disk,,1,-21.59998888,4.799993634,1,0,0,rectangle,-21.59998888,4.799993634,1,0,0,,,,,,,-21.59998888,4.799993634,1,0,0,,0,156,156,124,1,
,,,,,,,,,,,,,FF,,,,,,,,2.1663,,,,,,,,,,,,,,,,,,,,,,60b9af795939f976cb74232a,61036c65a3908e3f4b868f84,2021-07-29_23h06.09.832,Simcolourproject_2stim_asymm_v5,2020.2.10,Win32,60,61025ae37ef11b136ea224fe,,,,,,,,,2798,97.6000129,-39.20000702,1,0,0,response3disk,,5,26.40001184,8.799993694,1,0,0,rectangle,26.40001184,8.799993694,1,0,0,,,,,,,26.40001184,8.799993694,1,0,0,,0,157,157,43,1,
,,,,,,,,,,,,,FF,,,,,,,,2.3751,,,,,,,,,,,,,,,,,,,,,,60b9af795939f976cb74232a,61036c65a3908e3f4b868f84,2021-07-29_23h06.09.832,Simcolourproject_2stim_asymm_v5,2020.2.10,Win32,60,61025ae37ef11b136ea224fe,,,,,,,,,71,97.6000129,-24.80000681,1,0,0,response3disk,,5,15.20001167,9.599993706,1,0,0,rectangle,15.20001167,9.599993706,1,0,0,,,,,,,15.20001167,9.599993706,1,0,0,,0,158,158,132,1,
,,,,,,,,,,,,,FF,,,,,,,,2.0836,,,,,,,,,,,,,,,,,,,,,,60b9af795939f976cb74232a,61036c65a3908e3f4b868f84,2021-07-29_23h06.09.832,Simcolourproject_2stim_asymm_v5,2020.2.10,Win32,60,61025ae37ef11b136ea224fe,,,,,,,,,3796,40.00001204,-76.80000758,1,0,0,response3disk,,4,-2.399939764,-2.400006473,1,0,0,rectangle,-2.399939764,-2.400006473,1,0,0,,,,,,,-2.399939764,-2.400006473,1,0,0,,0,159,159,2,1,
,,,,,,,,,,,,,FF,,,,,,,,1.8751,,,,,,,,,,,,,,,,,,,,,,60b9af795939f976cb74232a,61036c65a3908e3f4b868f84,2021-07-29_23h06.09.832,Simcolourproject_2stim_asymm_v5,2020.2.10,Win32,60,61025ae37ef11b136ea224fe,,,,,,,,,333,67.20001245,-32.80000693,1,0,0,response3disk,,5,13.60006047,-3.200006485,1,0,0,rectangle,13.60006047,-3.200006485,1,0,0,,,,,,,13.60006047,-3.200006485,1,0,0,,1,0,160,14,1,
,,,,,,,,,,,,,FF,,,,,,,,2.2089,,,,,,,,,,,,,,,,,,,,,,60b9af795939f976cb74232a,61036c65a3908e3f4b868f84,2021-07-29_23h06.09.832,Simcolourproject_2stim_asymm_v5,2020.2.10,Win32,60,61025ae37ef11b136ea224fe,,,,,,,,,55,56.80001229,98.39999503,1,0,0,response1disk,,7,-4.799988627,5.599993646,1,0,0,rectangle,-4.799988627,5.599993646,1,0,0,,,,,,,-4.799988627,5.599993646,1,0,0,,1,1,161,9,1,
,,,,,,,,,,,,,FF,,,,,,,,1.3754,,,,,,,,,,,,,,,,,,,,,,60b9af795939f976cb74232a,61036c65a3908e3f4b868f84,2021-07-29_23h06.09.832,Simcolourproject_2stim_asymm_v5,2020.2.10,Win32,60,61025ae37ef11b136ea224fe,,,,,,,,,3069,42.40001208,-92.00000781,1,0,0,response3disk,,4,6.400011539,-12.80000663,1,0,0,rectangle,6.400011539,-12.80000663,1,0,0,,,,,,,6.400011539,-12.80000663,1,0,0,,1,2,162,20,1,
,,,,,,,,,,,,,FF,,,,,,,,2.8753,,,,,,,,,,,,,,,,,,,,,,60b9af795939f976cb74232a,61036c65a3908e3f4b868f84,2021-07-29_23h06.09.832,Simcolourproject_2stim_asymm_v5,2020.2.10,Win32,60,61025ae37ef11b136ea224fe,,,,,,,,,4064,44.80001211,-99.20000792,1,0,0,response3disk,,4,22.40001178,1.599993587,1,0,0,rectangle,22.40001178,1.599993587,1,0,0,,,,,,,22.40001178,1.599993587,1,0,0,,1,3,163,56,1,
,,,,,,,,,,,,,FF,,,,,,,,1.7084,,,,,,,,,,,,,,,,,,,,,,60b9af795939f976cb74232a,61036c65a3908e3f4b868f84,2021-07-29_23h06.09.832,Simcolourproject_2stim_asymm_v5,2020.2.10,Win32,60,61025ae37ef11b136ea224fe,,,,,,,,,3195,-51.99998933,90.39999491,1,0,0,response7disk,,0,-10.39993988,-7.200006545,1,0,0,rectangle,-10.39993988,-7.200006545,1,0,0,,,,,,,-10.39993988,-7.200006545,1,0,0,,1,4,164,121,1,
,,,,,,,,,,,,,FF,,,,,,,,1.2086,,,,,,,,,,,,,,,,,,,,,,60b9af795939f976cb74232a,61036c65a3908e3f4b868f84,2021-07-29_23h06.09.832,Simcolourproject_2stim_asymm_v5,2020.2.10,Win32,60,61025ae37ef11b136ea224fe,,,,,,,,,2174,59.20001233,111.1999708,1,0,0,response1disk,,7,20.00001174,0.799993575,1,0,0,rectangle,20.00001174,0.799993575,1,0,0,,,,,,,20.00001174,0.799993575,1,0,0,,1,5,165,124,1,
,,,,,,,,,,,,,FF,,,,,,,,6.6254,,,,,,,,,,,,,,,,,,,,,,60b9af795939f976cb74232a,61036c65a3908e3f4b868f84,2021-07-29_23h06.09.832,Simcolourproject_2stim_asymm_v5,2020.2.10,Win32,60,61025ae37ef11b136ea224fe,,,,,,,,,1119,87.20001274,-60.80000734,1,0,0,response3disk,,5,1.14441E-05,-1.600006461,1,0,0,rectangle,1.14441E-05,-1.600006461,1,0,0,,,,,,,1.14441E-05,-1.600006461,1,0,0,,1,6,166,113,1,
,,,,,,,,,,,,,FF,,,,,,,,1.5001,,,,,,,,,,,,,,,,,,,,,,60b9af795939f976cb74232a,61036c65a3908e3f4b868f84,2021-07-29_23h06.09.832,Simcolourproject_2stim_asymm_v5,2020.2.10,Win32,60,61025ae37ef11b136ea224fe,,,,,,,,,2165,-101.5999901,49.5999943,1,0,0,response7disk,,1,-5.599988639,-9.60000658,1,0,0,rectangle,-5.599988639,-9.60000658,1,0,0,,,,,,,-5.599988639,-9.60000658,1,0,0,,1,7,167,157,1,
,,,,,,,,,,,,,FF,,,,,,,,2.3337,,,,,,,,,,,,,,,,,,,,,,60b9af795939f976cb74232a,61036c65a3908e3f4b868f84,2021-07-29_23h06.09.832,Simcolourproject_2stim_asymm_v5,2020.2.10,Win32,60,61025ae37ef11b136ea224fe,,,,,,,,,2371,-57.59998941,-100.8000079,1,0,0,response5disk,,3,2.40001148,-2.400006473,1,0,0,rectangle,2.40001148,-2.400006473,1,0,0,,,,,,,2.40001148,-2.400006473,1,0,0,,1,8,168,5,1,
,,,,,,,,,,,,,FF,,,,,,,,1.5419,,,,,,,,,,,,,,,,,,,,,,60b9af795939f976cb74232a,61036c65a3908e3f4b868f84,2021-07-29_23h06.09.832,Simcolourproject_2stim_asymm_v5,2020.2.10,Win32,60,61025ae37ef11b136ea224fe,,,,,,,,,188,-96.79999,31.19996961,1,0,0,response7disk,,1,-6.399939823,-9.60000658,1,0,0,rectangle,-6.399939823,-9.60000658,1,0,0,,,,,,,-6.399939823,-9.60000658,1,0,0,,1,9,169,1,1,
,,,,,,,,,,,,,FF,,,,,,,,3.0837,,,,,,,,,,,,,,,,,,,,,,60b9af795939f976cb74232a,61036c65a3908e3f4b868f84,2021-07-29_23h06.09.832,Simcolourproject_2stim_asymm_v5,2020.2.10,Win32,60,61025ae37ef11b136ea224fe,,,,,,,,,2153,76.00001258,-41.60000706,1,0,0,response3disk,,5,1.14441E-05,-4.000006497,1,0,0,rectangle,1.14441E-05,-4.000006497,1,0,0,,,,,,,1.14441E-05,-4.000006497,1,0,0,,1,10,170,34,1,
,,,,,,,,,,,,,FF,,,,,,,,2.8752,,,,,,,,,,,,,,,,,,,,,,60b9af795939f976cb74232a,61036c65a3908e3f4b868f84,2021-07-29_23h06.09.832,Simcolourproject_2stim_asymm_v5,2020.2.10,Win32,60,61025ae37ef11b136ea224fe,,,,,,,,,617,-87.99998987,-30.40000689,1,0,0,response5disk,,2,4.800011516,-8.000006557,1,0,0,rectangle,4.800011516,-8.000006557,1,0,0,,,,,,,4.800011516,-8.000006557,1,0,0,,1,11,171,23,1,
,,,,,,,,,,,,,FF,,,,,,,,3.1251,,,,,,,,,,,,,,,,,,,,,,60b9af795939f976cb74232a,61036c65a3908e3f4b868f84,2021-07-29_23h06.09.832,Simcolourproject_2stim_asymm_v5,2020.2.10,Win32,60,61025ae37ef11b136ea224fe,,,,,,,,,1638,30.4000119,-74.40000755,1,0,0,response3disk,,4,0.800011456,-15.20000666,1,0,0,rectangle,0.800011456,-15.20000666,1,0,0,,,,,,,0.800011456,-15.20000666,1,0,0,,1,12,172,75,1,
,,,,,,,,,,,,,FF,,,,,,,,1.7916,,,,,,,,,,,,,,,,,,,,,,60b9af795939f976cb74232a,61036c65a3908e3f4b868f84,2021-07-29_23h06.09.832,Simcolourproject_2stim_asymm_v5,2020.2.10,Win32,60,61025ae37ef11b136ea224fe,,,,,,,,,2367,-89.59998989,-31.2000069,1,0,0,response5disk,,2,-20.79998887,-4.800006509,1,0,0,rectangle,-20.79998887,-4.800006509,1,0,0,,,,,,,-20.79998887,-4.800006509,1,0,0,,1,13,173,35,1,
,,,,,,,,,,,,,FF,,,,,,,,1.0004,,,,,,,,,,,,,,,,,,,,,,60b9af795939f976cb74232a,61036c65a3908e3f4b868f84,2021-07-29_23h06.09.832,Simcolourproject_2stim_asymm_v5,2020.2.10,Win32,60,61025ae37ef11b136ea224fe,,,,,,,,,2742,-66.39994072,-29.60000688,1,0,0,response5disk,,2,-4.799988627,1.599993587,1,0,0,rectangle,-4.799988627,1.599993587,1,0,0,,,,,,,-4.799988627,1.599993587,1,0,0,,1,14,174,51,1,
,,,,,,,,,,,,,FF,,,,,,,,1.5006,,,,,,,,,,,,,,,,,,,,,,60b9af795939f976cb74232a,61036c65a3908e3f4b868f84,2021-07-29_23h06.09.832,Simcolourproject_2stim_asymm_v5,2020.2.10,Win32,60,61025ae37ef11b136ea224fe,,,,,,,,,649,84.80001271,-36.80000699,1,0,0,response3disk,,5,15.20001167,0.799993575,1,0,0,rectangle,15.20001167,0.799993575,1,0,0,,,,,,,15.20001167,0.799993575,1,0,0,,1,15,175,105,1,
,,,,,,,,,,,,,FF,,,,,,,,1.8336,,,,,,,,,,,,,,,,,,,,,,60b9af795939f976cb74232a,61036c65a3908e3f4b868f84,2021-07-29_23h06.09.832,Simcolourproject_2stim_asymm_v5,2020.2.10,Win32,60,61025ae37ef11b136ea224fe,,,,,,,,,2068,90.40001279,34.39999408,1,0,0,response1disk,,6,0.800011456,-3.200006485,1,0,0,rectangle,0.800011456,-3.200006485,1,0,0,,,,,,,0.800011456,-3.200006485,1,0,0,,1,16,176,40,1,
,,,,,,,,,,,,,FF,,,,,,,,1.5837,,,,,,,,,,,,,,,,,,,,,,60b9af795939f976cb74232a,61036c65a3908e3f4b868f84,2021-07-29_23h06.09.832,Simcolourproject_2stim_asymm_v5,2020.2.10,Win32,60,61025ae37ef11b136ea224fe,,,,,,,,,3651,88.00001276,38.39999413,1,0,0,response1disk,,6,20.80001175,7.19999367,1,0,0,rectangle,20.80001175,7.19999367,1,0,0,,,,,,,20.80001175,7.19999367,1,0,0,,1,17,177,42,1,
,,,,,,,,,,,,,FF,,,,,,,,0.9163,,,,,,,,,,,,,,,,,,,,,,60b9af795939f976cb74232a,61036c65a3908e3f4b868f84,2021-07-29_23h06.09.832,Simcolourproject_2stim_asymm_v5,2020.2.10,Win32,60,61025ae37ef11b136ea224fe,,,,,,,,,3656,88.00001276,51.19996991,1,0,0,response1disk,,6,20.00001174,6.399993658,1,0,0,rectangle,20.00001174,6.399993658,1,0,0,,,,,,,20.00001174,6.399993658,1,0,0,,1,18,178,128,1,
,,,,,,,,,,,,,FF,,,,,,,,1.3335,,,,,,,,,,,,,,,,,,,,,,60b9af795939f976cb74232a,61036c65a3908e3f4b868f84,2021-07-29_23h06.09.832,Simcolourproject_2stim_asymm_v5,2020.2.10,Win32,60,61025ae37ef11b136ea224fe,,,,,,,,,442,-74.39994084,40.79999417,1,0,0,response7disk,,1,-11.99998873,7.999993682,1,0,0,rectangle,-100.7999901,-29.60000688,1,0,0,response5disk_3,TRUE,2,2,"[237,150,276,18,121,24,302,180,245,4,40,16,317,1,310,242,278,70,109,212]",1.791,-19.19998884,4.799993634,1,0,0,rectangle,1,19,179,17,1,
,,,,,,,,,,,,,FF,,,,,,,,1.7501,,,,,,,,,,,,,,,,,,,,,,60b9af795939f976cb74232a,61036c65a3908e3f4b868f84,2021-07-29_23h06.09.832,Simcolourproject_2stim_asymm_v5,2020.2.10,Win32,60,61025ae37ef11b136ea224fe,,,,,,,,,2813,-43.99998921,-96.80000788,1,0,0,response5disk,,3,-6.399939823,-7.200006545,1,0,0,rectangle,-6.399939823,-7.200006545,1,0,0,,,,,,,-6.399939823,-7.200006545,1,0,0,,1,20,180,62,1,
,,,,,,,,,,,,,FF,,,,,,,,1.9173,,,,,,,,,,,,,,,,,,,,,,60b9af795939f976cb74232a,61036c65a3908e3f4b868f84,2021-07-29_23h06.09.832,Simcolourproject_2stim_asymm_v5,2020.2.10,Win32,60,61025ae37ef11b136ea224fe,,,,,,,,,1331,-52.79998934,-95.20000786,1,0,0,response5disk,,3,-14.39993994,-8.000006557,1,0,0,rectangle,-14.39993994,-8.000006557,1,0,0,,,,,,,-14.39993994,-8.000006557,1,0,0,,1,21,181,153,1,
,,,,,,,,,,,,,FF,,,,,,,,1.3749,,,,,,,,,,,,,,,,,,,,,,60b9af795939f976cb74232a,61036c65a3908e3f4b868f84,2021-07-29_23h06.09.832,Simcolourproject_2stim_asymm_v5,2020.2.10,Win32,60,61025ae37ef11b136ea224fe,,,,,,,,,500,96.80001289,43.19996979,1,0,0,response1disk,,6,4.800011516,-4.000006497,1,0,0,rectangle,4.800011516,-4.000006497,1,0,0,,,,,,,4.800011516,-4.000006497,1,0,0,,1,22,182,47,1,
,,,,,,,,,,,,,FF,,,,,,,,1.8335,,,,,,,,,,,,,,,,,,,,,,60b9af795939f976cb74232a,61036c65a3908e3f4b868f84,2021-07-29_23h06.09.832,Simcolourproject_2stim_asymm_v5,2020.2.10,Win32,60,61025ae37ef11b136ea224fe,,,,,,,,,2095,-102.3999413,-29.60000688,1,0,0,response5disk,,2,9.600060415,-4.800006509,1,0,0,rectangle,9.600060415,-4.800006509,1,0,0,,,,,,,9.600060415,-4.800006509,1,0,0,,1,23,183,106,1,
,,,,,,,,,,,,,FF,,,,,,,,1.3336,,,,,,,,,,,,,,,,,,,,,,60b9af795939f976cb74232a,61036c65a3908e3f4b868f84,2021-07-29_23h06.09.832,Simcolourproject_2stim_asymm_v5,2020.2.10,Win32,60,61025ae37ef11b136ea224fe,,,,,,,,,2758,68.80001247,-41.60000706,1,0,0,response3disk,,5,4.000011504,0.799993575,1,0,0,rectangle,4.000011504,0.799993575,1,0,0,,,,,,,4.000011504,0.799993575,1,0,0,,1,24,184,129,1,
,,,,,,,,,,,,,FF,,,,,,,,3.5003,,,,,,,,,,,,,,,,,,,,,,60b9af795939f976cb74232a,61036c65a3908e3f4b868f84,2021-07-29_23h06.09.832,Simcolourproject_2stim_asymm_v5,2020.2.10,Win32,60,61025ae37ef11b136ea224fe,,,,,,,,,1147,44.0000121,-81.60005648,1,0,0,response3disk,,4,-3.999988616,-4.800006509,1,0,0,rectangle,-3.999988616,-4.800006509,1,0,0,,,,,,,-3.999988616,-4.800006509,1,0,0,,1,25,185,144,1,
,,,,,,,,,,,,,FF,,,,,,,,2.5421,,,,,,,,,,,,,,,,,,,,,,60b9af795939f976cb74232a,61036c65a3908e3f4b868f84,2021-07-29_23h06.09.832,Simcolourproject_2stim_asymm_v5,2020.2.10,Win32,60,61025ae37ef11b136ea224fe,,,,,,,,,3974,-93.59998995,-49.60000718,1,0,0,response5disk,,2,0.800011456,-10.40000659,1,0,0,rectangle,0.800011456,-10.40000659,1,0,0,,,,,,,0.800011456,-10.40000659,1,0,0,,1,26,186,89,1,
,,,,,,,,,,,,,FF,,,,,,,,3.1254,,,,,,,,,,,,,,,,,,,,,,60b9af795939f976cb74232a,61036c65a3908e3f4b868f84,2021-07-29_23h06.09.832,Simcolourproject_2stim_asymm_v5,2020.2.10,Win32,60,61025ae37ef11b136ea224fe,,,,,,,,,1683,-46.39994042,-108.000008,1,0,0,response5disk,,3,5.600060356,-8.800006568,1,0,0,rectangle,5.600060356,-8.800006568,1,0,0,,,,,,,5.600060356,-8.800006568,1,0,0,,1,27,187,154,1,
,,,,,,,,,,,,,FF,,,,,,,,6.5835,,,,,,,,,,,,,,,,,,,,,,60b9af795939f976cb74232a,61036c65a3908e3f4b868f84,2021-07-29_23h06.09.832,Simcolourproject_2stim_asymm_v5,2020.2.10,Win32,60,61025ae37ef11b136ea224fe,,,,,,,,,665,59.20001233,-103.200008,1,0,0,response3disk,,4,-3.999988616,-7.200006545,1,0,0,rectangle,-3.999988616,-7.200006545,1,0,0,,,,,,,-3.999988616,-7.200006545,1,0,0,,1,28,188,139,1,
,,,,,,,,,,,,,FF,,,,,,,,1.5836,,,,,,,,,,,,,,,,,,,,,,60b9af795939f976cb74232a,61036c65a3908e3f4b868f84,2021-07-29_23h06.09.832,Simcolourproject_2stim_asymm_v5,2020.2.10,Win32,60,61025ae37ef11b136ea224fe,,,,,,,,,1689,-84.79998982,-30.40000689,1,0,0,response5disk,,2,-0.799988568,-6.400006533,1,0,0,rectangle,-0.799988568,-6.400006533,1,0,0,,,,,,,-0.799988568,-6.400006533,1,0,0,,1,29,189,100,1,
,,,,,,,,,,,,,FF,,,,,,,,1.5006,,,,,,,,,,,,,,,,,,,,,,60b9af795939f976cb74232a,61036c65a3908e3f4b868f84,2021-07-29_23h06.09.832,Simcolourproject_2stim_asymm_v5,2020.2.10,Win32,60,61025ae37ef11b136ea224fe,,,,,,,,,3326,90.40001279,-31.2000069,1,0,0,response3disk,,5,26.40001184,3.19999361,1,0,0,rectangle,26.40001184,3.19999361,1,0,0,,,,,,,26.40001184,3.19999361,1,0,0,,1,30,190,15,1,
,,,,,,,,,,,,,FF,,,,,,,,1.2918,,,,,,,,,,,,,,,,,,,,,,60b9af795939f976cb74232a,61036c65a3908e3f4b868f84,2021-07-29_23h06.09.832,Simcolourproject_2stim_asymm_v5,2020.2.10,Win32,60,61025ae37ef11b136ea224fe,,,,,,,,,249,-35.99998909,-93.60005666,1,0,0,response5disk,,3,-6.399939823,-8.800006568,1,0,0,rectangle,-6.399939823,-8.800006568,1,0,0,,,,,,,-6.399939823,-8.800006568,1,0,0,,1,31,191,88,1,
,,,,,,,,,,,,,FF,,,,,,,,1.1252,,,,,,,,,,,,,,,,,,,,,,60b9af795939f976cb74232a,61036c65a3908e3f4b868f84,2021-07-29_23h06.09.832,Simcolourproject_2stim_asymm_v5,2020.2.10,Win32,60,61025ae37ef11b136ea224fe,,,,,,,,,1561,107.200013,-49.60000718,1,0,0,response3disk,,5,22.40001178,-11.2000066,1,0,0,rectangle,22.40001178,-11.2000066,1,0,0,,,,,,,22.40001178,-11.2000066,1,0,0,,1,32,192,98,1,
,,,,,,,,,,,,,FF,,,,,,,,1.2085,,,,,,,,,,,,,,,,,,,,,,60b9af795939f976cb74232a,61036c65a3908e3f4b868f84,2021-07-29_23h06.09.832,Simcolourproject_2stim_asymm_v5,2020.2.10,Win32,60,61025ae37ef11b136ea224fe,,,,,,,,,2412,-102.3999413,-31.2000069,1,0,0,response5disk,,2,-17.59998882,3.999993622,1,0,0,rectangle,-17.59998882,3.999993622,1,0,0,,,,,,,-17.59998882,3.999993622,1,0,0,,1,33,193,131,1,
,,,,,,,,,,,,,FF,,,,,,,,2.0835,,,,,,,,,,,,,,,,,,,,,,60b9af795939f976cb74232a,61036c65a3908e3f4b868f84,2021-07-29_23h06.09.832,Simcolourproject_2stim_asymm_v5,2020.2.10,Win32,60,61025ae37ef11b136ea224fe,,,,,,,,,4247,-99.99999005,-64.8000074,1,0,0,response5disk,,2,-1.59998858,1.599993587,1,0,0,rectangle,-1.59998858,1.599993587,1,0,0,,,,,,,-1.59998858,1.599993587,1,0,0,,1,34,194,6,1,
,,,,,,,,,,,,,FF,,,,,,,,1.6667,,,,,,,,,,,,,,,,,,,,,,60b9af795939f976cb74232a,61036c65a3908e3f4b868f84,2021-07-29_23h06.09.832,Simcolourproject_2stim_asymm_v5,2020.2.10,Win32,60,61025ae37ef11b136ea224fe,,,,,,,,,3678,-87.19998986,38.39999413,1,0,0,response7disk,,1,-10.39993988,1.599993587,1,0,0,rectangle,-10.39993988,1.599993587,1,0,0,,,,,,,-10.39993988,1.599993587,1,0,0,,1,35,195,55,1,
,,,,,,,,,,,,,FF,,,,,,,,1.7086,,,,,,,,,,,,,,,,,,,,,,60b9af795939f976cb74232a,61036c65a3908e3f4b868f84,2021-07-29_23h06.09.832,Simcolourproject_2stim_asymm_v5,2020.2.10,Win32,60,61025ae37ef11b136ea224fe,,,,,,,,,2180,-43.1999892,-96.00000787,1,0,0,response5disk,,3,6.400011539,-1.600006461,1,0,0,rectangle,6.400011539,-1.600006461,1,0,0,,,,,,,6.400011539,-1.600006461,1,0,0,,1,36,196,126,1,
,,,,,,,,,,,,,FF,,,,,,,,1.2913,,,,,,,,,,,,,,,,,,,,,,60b9af795939f976cb74232a,61036c65a3908e3f4b868f84,2021-07-29_23h06.09.832,Simcolourproject_2stim_asymm_v5,2020.2.10,Win32,60,61025ae37ef11b136ea224fe,,,,,,,,,316,85.60001272,-32.00000691,1,0,0,response3disk,,5,11.20001161,-5.600006521,1,0,0,rectangle,11.20001161,-5.600006521,1,0,0,,,,,,,11.20001161,-5.600006521,1,0,0,,1,37,197,74,1,
,,,,,,,,,,,,,FF,,,,,,,,1.5007,,,,,,,,,,,,,,,,,,,,,,60b9af795939f976cb74232a,61036c65a3908e3f4b868f84,2021-07-29_23h06.09.832,Simcolourproject_2stim_asymm_v5,2020.2.10,Win32,60,61025ae37ef11b136ea224fe,,,,,,,,,726,-89.59998989,36.79999411,1,0,0,response7disk,,1,-11.19998872,-6.4373E-06,1,0,0,rectangle,-11.19998872,-6.4373E-06,1,0,0,,,,,,,-11.19998872,-6.4373E-06,1,0,0,,1,38,198,102,1,
,,,,,,,,,,,,,FF,,,,,,,,0.7918,,,,,,,,,,,,,,,,,,,,,,60b9af795939f976cb74232a,61036c65a3908e3f4b868f84,2021-07-29_23h06.09.832,Simcolourproject_2stim_asymm_v5,2020.2.10,Win32,60,61025ae37ef11b136ea224fe,,,,,,,,,817,-42.39994036,22.3999939,1,0,0,response7disk,,1,23.20001179,-3.200006485,1,0,0,rectangle,23.20001179,-3.200006485,1,0,0,,,,,,,23.20001179,-3.200006485,1,0,0,,1,39,199,135,1,
,,,,,,,,,,,,,FF,,,,,,,,2.8752,,,,,,,,,,,,,,,,,,,,,,60b9af795939f976cb74232a,61036c65a3908e3f4b868f84,2021-07-29_23h06.09.832,Simcolourproject_2stim_asymm_v5,2020.2.10,Win32,60,61025ae37ef11b136ea224fe,,,,,,,,,619,-51.99998933,-93.60005666,1,0,0,response5disk,,3,-3.199988604,-13.60000664,1,0,0,rectangle,-3.199988604,-13.60000664,1,0,0,,,,,,,-3.199988604,-13.60000664,1,0,0,,1,40,200,39,1,
,,,,,,,,,,,,,FF,,,,,,,,1.0417,,,,,,,,,,,,,,,,,,,,,,60b9af795939f976cb74232a,61036c65a3908e3f4b868f84,2021-07-29_23h06.09.832,Simcolourproject_2stim_asymm_v5,2020.2.10,Win32,60,61025ae37ef11b136ea224fe,,,,,,,,,4126,-75.19998968,-20.00000674,1,0,0,response5disk,,2,-5.599988639,2.399993598,1,0,0,rectangle,-5.599988639,2.399993598,1,0,0,,,,,,,-5.599988639,2.399993598,1,0,0,,1,41,201,54,1,
,,,,,,,,,,,,,FF,,,,,,,,1.5418,,,,,,,,,,,,,,,,,,,,,,60b9af795939f976cb74232a,61036c65a3908e3f4b868f84,2021-07-29_23h06.09.832,Simcolourproject_2stim_asymm_v5,2020.2.10,Win32,60,61025ae37ef11b136ea224fe,,,,,,,,,2207,55.20001227,83.99999481,1,0,0,response1disk,,7,5.600060356,3.19999361,1,0,0,rectangle,5.600060356,3.19999361,1,0,0,,,,,,,5.600060356,3.19999361,1,0,0,,1,42,202,79,1,
,,,,,,,,,,,,,FF,,,,,,,,1.125,,,,,,,,,,,,,,,,,,,,,,60b9af795939f976cb74232a,61036c65a3908e3f4b868f84,2021-07-29_23h06.09.832,Simcolourproject_2stim_asymm_v5,2020.2.10,Win32,60,61025ae37ef11b136ea224fe,,,,,,,,,489,116.0000132,54.39999437,1,0,0,response1disk,,6,-7.199988663,-8.800006568,1,0,0,rectangle,-7.199988663,-8.800006568,1,0,0,,,,,,,-7.199988663,-8.800006568,1,0,0,,1,43,203,138,1,
,,,,,,,,,,,,,FF,,,,,,,,1.1669,,,,,,,,,,,,,,,,,,,,,,60b9af795939f976cb74232a,61036c65a3908e3f4b868f84,2021-07-29_23h06.09.832,Simcolourproject_2stim_asymm_v5,2020.2.10,Win32,60,61025ae37ef11b136ea224fe,,,,,,,,,1570,35.20001197,83.19997039,1,0,0,response1disk,,7,7.200011551,6.399993658,1,0,0,rectangle,7.200011551,6.399993658,1,0,0,,,,,,,7.200011551,6.399993658,1,0,0,,1,44,204,119,1,
,,,,,,,,,,,,,FF,,,,,,,,4.7503,,,,,,,,,,,,,,,,,,,,,,60b9af795939f976cb74232a,61036c65a3908e3f4b868f84,2021-07-29_23h06.09.832,Simcolourproject_2stim_asymm_v5,2020.2.10,Win32,60,61025ae37ef11b136ea224fe,,,,,,,,,3174,72.80001253,-43.20000708,1,0,0,response3disk,,5,-5.599988639,-1.600006461,1,0,0,rectangle,-5.599988639,-1.600006461,1,0,0,,,,,,,-5.599988639,-1.600006461,1,0,0,,1,45,205,67,1,
,,,,,,,,,,,,,FF,,,,,,,,1.2917,,,,,,,,,,,,,,,,,,,,,,60b9af795939f976cb74232a,61036c65a3908e3f4b868f84,2021-07-29_23h06.09.832,Simcolourproject_2stim_asymm_v5,2020.2.10,Win32,60,61025ae37ef11b136ea224fe,,,,,,,,,1308,-96.79999,43.99999422,1,0,0,response7disk,,1,-30.39994018,3.19999361,1,0,0,rectangle,-30.39994018,3.19999361,1,0,0,,,,,,,-30.39994018,3.19999361,1,0,0,,1,46,206,49,1,
,,,,,,,,,,,,,FF,,,,,,,,2.4585,,,,,,,,,,,,,,,,,,,,,,60b9af795939f976cb74232a,61036c65a3908e3f4b868f84,2021-07-29_23h06.09.832,Simcolourproject_2stim_asymm_v5,2020.2.10,Win32,60,61025ae37ef11b136ea224fe,,,,,,,,,352,-84.79998982,-51.2000072,1,0,0,response5disk,,2,-7.999988675,-7.200006545,1,0,0,rectangle,-7.999988675,-7.200006545,1,0,0,,,,,,,-7.999988675,-7.200006545,1,0,0,,1,47,207,84,1,
,,,,,,,,,,,,,FF,,,,,,,,1.5421,,,,,,,,,,,,,,,,,,,,,,60b9af795939f976cb74232a,61036c65a3908e3f4b868f84,2021-07-29_23h06.09.832,Simcolourproject_2stim_asymm_v5,2020.2.10,Win32,60,61025ae37ef11b136ea224fe,,,,,,,,,3925,93.60001284,-31.2000069,1,0,0,response3disk,,5,8.800011575,0.799993575,1,0,0,rectangle,8.800011575,0.799993575,1,0,0,,,,,,,8.800011575,0.799993575,1,0,0,,1,48,208,65,1,
,,,,,,,,,,,,,FF,,,,,,,,2.7917,,,,,,,,,,,,,,,,,,,,,,60b9af795939f976cb74232a,61036c65a3908e3f4b868f84,2021-07-29_23h06.09.832,Simcolourproject_2stim_asymm_v5,2020.2.10,Win32,60,61025ae37ef11b136ea224fe,,,,,,,,,3666,46.40001214,99.19997063,1,0,0,response1disk,,7,-15.19998878,-3.200006485,1,0,0,rectangle,-15.19998878,-3.200006485,1,0,0,,,,,,,-15.19998878,-3.200006485,1,0,0,,1,49,209,50,1,
,,,,,,,,,,,,,FF,,,,,,,,7.292,,,,,,,,,,,,,,,,,,,,,,60b9af795939f976cb74232a,61036c65a3908e3f4b868f84,2021-07-29_23h06.09.832,Simcolourproject_2stim_asymm_v5,2020.2.10,Win32,60,61025ae37ef11b136ea224fe,,,,,,,,,3182,100.0000129,34.39999408,1,0,0,response1disk,,6,0.800011456,-5.600006521,1,0,0,rectangle,0.800011456,-5.600006521,1,0,0,,,,,,,0.800011456,-5.600006521,1,0,0,,1,50,210,2,1,
,,,,,,,,,,,,,FF,,,,,,,,1.708,,,,,,,,,,,,,,,,,,,,,,60b9af795939f976cb74232a,61036c65a3908e3f4b868f84,2021-07-29_23h06.09.832,Simcolourproject_2stim_asymm_v5,2020.2.10,Win32,60,61025ae37ef11b136ea224fe,,,,,,,,,3259,-105.5999901,36.79999411,1,0,0,response7disk,,1,-10.39993988,1.599993587,1,0,0,rectangle,109.6000131,-44.8000071,1,0,0,response3disk_3,TRUE,5,5,"[237,150,276,18,121,24,302,180,245,4,40,16,317,1,310,242,278,70,109,212]",1.9166,6.400011539,5.599993646,1,0,0,rectangle,1,51,211,141,1,
,,,,,,,,,,,,,FF,,,,,,,,2.0431,,,,,,,,,,,,,,,,,,,,,,60b9af795939f976cb74232a,61036c65a3908e3f4b868f84,2021-07-29_23h06.09.832,Simcolourproject_2stim_asymm_v5,2020.2.10,Win32,60,61025ae37ef11b136ea224fe,,,,,,,,,959,71.20001251,-36.00000697,1,0,0,response3disk,,5,-14.39993994,5.599993646,1,0,0,rectangle,-14.39993994,5.599993646,1,0,0,,,,,,,-14.39993994,5.599993646,1,0,0,,1,52,212,60,1,
,,,,,,,,,,,,,FF,,,,,,,,1.1668,,,,,,,,,,,,,,,,,,,,,,60b9af795939f976cb74232a,61036c65a3908e3f4b868f84,2021-07-29_23h06.09.832,Simcolourproject_2stim_asymm_v5,2020.2.10,Win32,60,61025ae37ef11b136ea224fe,,,,,,,,,1876,91.2000128,-48.00000715,1,0,0,response3disk,,5,-20.79998887,14.39999378,1,0,0,rectangle,-20.79998887,14.39999378,1,0,0,,,,,,,-20.79998887,14.39999378,1,0,0,,1,53,213,118,1,
,,,,,,,,,,,,,FF,,,,,,,,1.8326,,,,,,,,,,,,,,,,,,,,,,60b9af795939f976cb74232a,61036c65a3908e3f4b868f84,2021-07-29_23h06.09.832,Simcolourproject_2stim_asymm_v5,2020.2.10,Win32,60,61025ae37ef11b136ea224fe,,,,,,,,,815,49.60006101,-79.20000762,1,0,0,response3disk,,4,-14.39993994,-1.600006461,1,0,0,rectangle,-14.39993994,-1.600006461,1,0,0,,,,,,,-14.39993994,-1.600006461,1,0,0,,1,54,214,52,1,
,,,,,,,,,,,,,FF,,,,,,,,2.1668,,,,,,,,,,,,,,,,,,,,,,60b9af795939f976cb74232a,61036c65a3908e3f4b868f84,2021-07-29_23h06.09.832,Simcolourproject_2stim_asymm_v5,2020.2.10,Win32,60,61025ae37ef11b136ea224fe,,,,,,,,,1472,-27.99998897,-89.6000566,1,0,0,response5disk,,3,1.600060296,-2.400006473,1,0,0,rectangle,1.600060296,-2.400006473,1,0,0,,,,,,,1.600060296,-2.400006473,1,0,0,,1,55,215,117,1,
,,,,,,,,,,,,,FF,,,,,,,,1.9168,,,,,,,,,,,,,,,,,,,,,,60b9af795939f976cb74232a,61036c65a3908e3f4b868f84,2021-07-29_23h06.09.832,Simcolourproject_2stim_asymm_v5,2020.2.10,Win32,60,61025ae37ef11b136ea224fe,,,,,,,,,2425,-106.3999413,30.39999402,1,0,0,response7disk,,1,-26.39994012,2.399993598,1,0,0,rectangle,-26.39994012,2.399993598,1,0,0,,,,,,,-26.39994012,2.399993598,1,0,0,,1,56,216,37,1,
,,,,,,,,,,,,,FF,,,,,,,,4.0007,,,,,,,,,,,,,,,,,,,,,,60b9af795939f976cb74232a,61036c65a3908e3f4b868f84,2021-07-29_23h06.09.832,Simcolourproject_2stim_asymm_v5,2020.2.10,Win32,60,61025ae37ef11b136ea224fe,,,,,,,,,2325,-39.99998915,-100.8000079,1,0,0,response5disk,,3,-4.799988627,-0.800006449,1,0,0,rectangle,-4.799988627,-0.800006449,1,0,0,,,,,,,-4.799988627,-0.800006449,1,0,0,,1,57,217,127,1,
,,,,,,,,,,,,,FF,,,,,,,,3.4586,,,,,,,,,,,,,,,,,,,,,,60b9af795939f976cb74232a,61036c65a3908e3f4b868f84,2021-07-29_23h06.09.832,Simcolourproject_2stim_asymm_v5,2020.2.10,Win32,60,61025ae37ef11b136ea224fe,,,,,,,,,3497,45.60006095,-86.40000772,1,0,0,response3disk,,4,-3.199988604,-4.000006497,1,0,0,rectangle,-3.199988604,-4.000006497,1,0,0,,,,,,,-3.199988604,-4.000006497,1,0,0,,1,58,218,134,1,
,,,,,,,,,,,,,FF,,,,,,,,3.167,,,,,,,,,,,,,,,,,,,,,,60b9af795939f976cb74232a,61036c65a3908e3f4b868f84,2021-07-29_23h06.09.832,Simcolourproject_2stim_asymm_v5,2020.2.10,Win32,60,61025ae37ef11b136ea224fe,,,,,,,,,2192,51.20001221,-110.4000081,1,0,0,response3disk,,4,-10.39993988,7.999993682,1,0,0,rectangle,-10.39993988,7.999993682,1,0,0,,,,,,,-10.39993988,7.999993682,1,0,0,,1,59,219,19,1,
,,,,,,,,,,,,,FF,,,,,,,,3.4171,,,,,,,,,,,,,,,,,,,,,,60b9af795939f976cb74232a,61036c65a3908e3f4b868f84,2021-07-29_23h06.09.832,Simcolourproject_2stim_asymm_v5,2020.2.10,Win32,60,61025ae37ef11b136ea224fe,,,,,,,,,2525,92.00001281,31.99999404,1,0,0,response1disk,,6,-1.59998858,-1.600006461,1,0,0,rectangle,-1.59998858,-1.600006461,1,0,0,,,,,,,-1.59998858,-1.600006461,1,0,0,,1,60,220,24,1,
,,,,,,,,,,,,,FF,,,,,,,,2.9585,,,,,,,,,,,,,,,,,,,,,,60b9af795939f976cb74232a,61036c65a3908e3f4b868f84,2021-07-29_23h06.09.832,Simcolourproject_2stim_asymm_v5,2020.2.10,Win32,60,61025ae37ef11b136ea224fe,,,,,,,,,3583,50.4000122,93.59999496,1,0,0,response1disk,,7,4.800011516,-6.4373E-06,1,0,0,rectangle,4.800011516,-6.4373E-06,1,0,0,,,,,,,4.800011516,-6.4373E-06,1,0,0,,1,61,221,133,1,
,,,,,,,,,,,,,FF,,,,,,,,1.5418,,,,,,,,,,,,,,,,,,,,,,60b9af795939f976cb74232a,61036c65a3908e3f4b868f84,2021-07-29_23h06.09.832,Simcolourproject_2stim_asymm_v5,2020.2.10,Win32,60,61025ae37ef11b136ea224fe,,,,,,,,,2738,-81.59998977,-40.80000705,1,0,0,response5disk,,2,-12.79998875,-9.60000658,1,0,0,rectangle,-12.79998875,-9.60000658,1,0,0,,,,,,,-12.79998875,-9.60000658,1,0,0,,1,62,222,4,1,
,,,,,,,,,,,,,FF,,,,,,,,1.6249,,,,,,,,,,,,,,,,,,,,,,60b9af795939f976cb74232a,61036c65a3908e3f4b868f84,2021-07-29_23h06.09.832,Simcolourproject_2stim_asymm_v5,2020.2.10,Win32,60,61025ae37ef11b136ea224fe,,,,,,,,,3247,-81.59998977,25.59999394,1,0,0,response7disk,,1,-7.199988663,-0.800006449,1,0,0,rectangle,-7.199988663,-0.800006449,1,0,0,,,,,,,-7.199988663,-0.800006449,1,0,0,,1,63,223,155,1,
,,,,,,,,,,,,,FF,,,,,,,,1.7085,,,,,,,,,,,,,,,,,,,,,,60b9af795939f976cb74232a,61036c65a3908e3f4b868f84,2021-07-29_23h06.09.832,Simcolourproject_2stim_asymm_v5,2020.2.10,Win32,60,61025ae37ef11b136ea224fe,,,,,,,,,2559,40.80001205,-100.8000079,1,0,0,response3disk,,4,-10.39993988,3.999993622,1,0,0,rectangle,-10.39993988,3.999993622,1,0,0,,,,,,,-10.39993988,3.999993622,1,0,0,,1,64,224,7,1,
,,,,,,,,,,,,,FF,,,,,,,,2.2084,,,,,,,,,,,,,,,,,,,,,,60b9af795939f976cb74232a,61036c65a3908e3f4b868f84,2021-07-29_23h06.09.832,Simcolourproject_2stim_asymm_v5,2020.2.10,Win32,60,61025ae37ef11b136ea224fe,,,,,,,,,2858,39.20001203,-64.8000074,1,0,0,response3disk,,4,8.000011563,9.599993706,1,0,0,rectangle,8.000011563,9.599993706,1,0,0,,,,,,,8.000011563,9.599993706,1,0,0,,1,65,225,99,1,
,,,,,,,,,,,,,FF,,,,,,,,3.2081,,,,,,,,,,,,,,,,,,,,,,60b9af795939f976cb74232a,61036c65a3908e3f4b868f84,2021-07-29_23h06.09.832,Simcolourproject_2stim_asymm_v5,2020.2.10,Win32,60,61025ae37ef11b136ea224fe,,,,,,,,,1199,89.60001278,45.59999424,1,0,0,response1disk,,6,11.20001161,7.19999367,1,0,0,rectangle,11.20001161,7.19999367,1,0,0,,,,,,,11.20001161,7.19999367,1,0,0,,1,66,226,18,1,
,,,,,,,,,,,,,FF,,,,,,,,1.6252,,,,,,,,,,,,,,,,,,,,,,60b9af795939f976cb74232a,61036c65a3908e3f4b868f84,2021-07-29_23h06.09.832,Simcolourproject_2stim_asymm_v5,2020.2.10,Win32,60,61025ae37ef11b136ea224fe,,,,,,,,,1908,-68.79998958,-103.200008,1,0,0,response5disk,,3,-11.99998873,7.999993682,1,0,0,rectangle,-11.99998873,7.999993682,1,0,0,,,,,,,-11.99998873,7.999993682,1,0,0,,1,67,227,140,1,
,,,,,,,,,,,,,FF,,,,,,,,2.0835,,,,,,,,,,,,,,,,,,,,,,60b9af795939f976cb74232a,61036c65a3908e3f4b868f84,2021-07-29_23h06.09.832,Simcolourproject_2stim_asymm_v5,2020.2.10,Win32,60,61025ae37ef11b136ea224fe,,,,,,,,,3253,-102.3999413,-38.40000701,1,0,0,response5disk,,2,5.600060356,-6.4373E-06,1,0,0,rectangle,5.600060356,-6.4373E-06,1,0,0,,,,,,,5.600060356,-6.4373E-06,1,0,0,,1,68,228,58,1,
,,,,,,,,,,,,,FF,,,,,,,,2.6255,,,,,,,,,,,,,,,,,,,,,,60b9af795939f976cb74232a,61036c65a3908e3f4b868f84,2021-07-29_23h06.09.832,Simcolourproject_2stim_asymm_v5,2020.2.10,Win32,60,61025ae37ef11b136ea224fe,,,,,,,,,160,66.40001243,32.79999405,1,0,0,response1disk,,6,-13.59998876,-0.800006449,1,0,0,rectangle,-13.59998876,-0.800006449,1,0,0,,,,,,,-13.59998876,-0.800006449,1,0,0,,1,69,229,93,1,
,,,,,,,,,,,,,FF,,,,,,,,1.2086,,,,,,,,,,,,,,,,,,,,,,60b9af795939f976cb74232a,61036c65a3908e3f4b868f84,2021-07-29_23h06.09.832,Simcolourproject_2stim_asymm_v5,2020.2.10,Win32,60,61025ae37ef11b136ea224fe,,,,,,,,,2765,80.00001264,41.59999418,1,0,0,response1disk,,6,8.000011563,2.399993598,1,0,0,rectangle,8.000011563,2.399993598,1,0,0,,,,,,,8.000011563,2.399993598,1,0,0,,1,70,230,41,1,
,,,,,,,,,,,,,FF,,,,,,,,3.291,,,,,,,,,,,,,,,,,,,,,,60b9af795939f976cb74232a,61036c65a3908e3f4b868f84,2021-07-29_23h06.09.832,Simcolourproject_2stim_asymm_v5,2020.2.10,Win32,60,61025ae37ef11b136ea224fe,,,,,,,,,2986,-102.3999413,-24.00000679,1,0,0,response5disk,,2,-10.39993988,5.599993646,1,0,0,rectangle,-10.39993988,5.599993646,1,0,0,,,,,,,-10.39993988,5.599993646,1,0,0,,1,71,231,90,1,
,,,,,,,,,,,,,FF,,,,,,,,1.3336,,,,,,,,,,,,,,,,,,,,,,60b9af795939f976cb74232a,61036c65a3908e3f4b868f84,2021-07-29_23h06.09.832,Simcolourproject_2stim_asymm_v5,2020.2.10,Win32,60,61025ae37ef11b136ea224fe,,,,,,,,,268,36.80001199,97.59999502,1,0,0,response1disk,,7,-3.999988616,6.399993658,1,0,0,rectangle,-3.999988616,6.399993658,1,0,0,,,,,,,-3.999988616,6.399993658,1,0,0,,1,72,232,32,1,
,,,,,,,,,,,,,FF,,,,,,,,4.8754,,,,,,,,,,,,,,,,,,,,,,60b9af795939f976cb74232a,61036c65a3908e3f4b868f84,2021-07-29_23h06.09.832,Simcolourproject_2stim_asymm_v5,2020.2.10,Win32,60,61025ae37ef11b136ea224fe,,,,,,,,,2748,60.80001235,-33.60000694,1,0,0,response3disk,,5,-9.599988699,1.599993587,1,0,0,rectangle,-9.599988699,1.599993587,1,0,0,,,,,,,-9.599988699,1.599993587,1,0,0,,1,73,233,111,1,
,,,,,,,,,,,,,FF,,,,,,,,3.3754,,,,,,,,,,,,,,,,,,,,,,60b9af795939f976cb74232a,61036c65a3908e3f4b868f84,2021-07-29_23h06.09.832,Simcolourproject_2stim_asymm_v5,2020.2.10,Win32,60,61025ae37ef11b136ea224fe,,,,,,,,,3178,41.60006089,103.1999707,1,0,0,response1disk,,7,-2.399939764,2.399993598,1,0,0,rectangle,-2.399939764,2.399993598,1,0,0,,,,,,,-2.399939764,2.399993598,1,0,0,,1,74,234,69,1,
,,,,,,,,,,,,,FF,,,,,,,,7.5413,,,,,,,,,,,,,,,,,,,,,,60b9af795939f976cb74232a,61036c65a3908e3f4b868f84,2021-07-29_23h06.09.832,Simcolourproject_2stim_asymm_v5,2020.2.10,Win32,60,61025ae37ef11b136ea224fe,,,,,,,,,3028,91.2000128,-37.600007,1,0,0,response3disk,,5,-10.39993988,5.599993646,1,0,0,rectangle,-10.39993988,5.599993646,1,0,0,,,,,,,-10.39993988,5.599993646,1,0,0,,1,75,235,63,1,
,,,,,,,,,,,,,FF,,,,,,,,5.6671,,,,,,,,,,,,,,,,,,,,,,60b9af795939f976cb74232a,61036c65a3908e3f4b868f84,2021-07-29_23h06.09.832,Simcolourproject_2stim_asymm_v5,2020.2.10,Win32,60,61025ae37ef11b136ea224fe,,,,,,,,,182,-52.79998934,-83.20000768,1,0,0,response5disk,,3,-1.59998858,4.799993634,1,0,0,rectangle,91.2000128,31.19996961,1,0,0,response1disk_3,TRUE,6,6,"[237,150,276,18,121,24,302,180,245,4,40,16,317,1,310,242,278,70,109,212]",1.9171,31.20001191,0.799993575,1,0,0,rectangle,1,76,236,130,1,
,,,,,,,,,,,,,FF,,,,,,,,2.8334,,,,,,,,,,,,,,,,,,,,,,60b9af795939f976cb74232a,61036c65a3908e3f4b868f84,2021-07-29_23h06.09.832,Simcolourproject_2stim_asymm_v5,2020.2.10,Win32,60,61025ae37ef11b136ea224fe,,,,,,,,,403,84.0000127,-48.00000715,1,0,0,response3disk,,5,-16.79998881,-3.200006485,1,0,0,rectangle,-16.79998881,-3.200006485,1,0,0,,,,,,,-16.79998881,-3.200006485,1,0,0,,1,77,237,45,1,
,,,,,,,,,,,,,FF,,,,,,,,6.1671,,,,,,,,,,,,,,,,,,,,,,60b9af795939f976cb74232a,61036c65a3908e3f4b868f84,2021-07-29_23h06.09.832,Simcolourproject_2stim_asymm_v5,2020.2.10,Win32,60,61025ae37ef11b136ea224fe,,,,,,,,,1928,43.20001209,90.39999491,1,0,0,response1disk,,7,1.14441E-05,-10.40000659,1,0,0,rectangle,1.14441E-05,-10.40000659,1,0,0,,,,,,,1.14441E-05,-10.40000659,1,0,0,,1,78,238,152,1,
,,,,,,,,,,,,,FF,,,,,,,,2.7501,,,,,,,,,,,,,,,,,,,,,,60b9af795939f976cb74232a,61036c65a3908e3f4b868f84,2021-07-29_23h06.09.832,Simcolourproject_2stim_asymm_v5,2020.2.10,Win32,60,61025ae37ef11b136ea224fe,,,,,,,,,4075,-81.59998977,-55.20000726,1,0,0,response5disk,,2,-4.799988627,-8.000006557,1,0,0,rectangle,-4.799988627,-8.000006557,1,0,0,,,,,,,-4.799988627,-8.000006557,1,0,0,,1,79,239,13,1,
,,,,,,,,,,,,,FF,,,,,,,,2.0001,,,,,,,,,,,,,,,,,,,,,,60b9af795939f976cb74232a,61036c65a3908e3f4b868f84,2021-07-29_23h06.09.832,Simcolourproject_2stim_asymm_v5,2020.2.10,Win32,60,61025ae37ef11b136ea224fe,,,,,,,,,2743,-82.39994096,-47.20000714,1,0,0,response5disk,,2,-11.99998873,-12.80000663,1,0,0,rectangle,-11.99998873,-12.80000663,1,0,0,,,,,,,-11.99998873,-12.80000663,1,0,0,,1,80,240,158,1,
,,,,,,,,,,,,,FF,,,,,,,,21.1671,,,,,,,,,,,,,,,,,,,,,,60b9af795939f976cb74232a,61036c65a3908e3f4b868f84,2021-07-29_23h06.09.832,Simcolourproject_2stim_asymm_v5,2020.2.10,Win32,60,61025ae37ef11b136ea224fe,,,,,,,,,2158,31.20001191,-85.60005654,1,0,0,response3disk,,4,-8.799988687,7.19999367,1,0,0,rectangle,-43.99998921,-106.400008,1,0,0,response5disk_3,TRUE,3,3,"[237,150,276,18,121,24,302,180,245,4,40,16,317,1,310,242,278,70,109,212]",5.5421,4.800011516,-3.200006485,1,0,0,rectangle,1,81,241,26,1,
,,,,,,,,,,,,,FF,,,,,,,,2.2505,,,,,,,,,,,,,,,,,,,,,,60b9af795939f976cb74232a,61036c65a3908e3f4b868f84,2021-07-29_23h06.09.832,Simcolourproject_2stim_asymm_v5,2020.2.10,Win32,60,61025ae37ef11b136ea224fe,,,,,,,,,2392,101.600013,52.79999435,1,0,0,response1disk,,6,10.4000116,-5.600006521,1,0,0,rectangle,10.4000116,-5.600006521,1,0,0,,,,,,,10.4000116,-5.600006521,1,0,0,,1,82,242,72,1,
