key_resp.keys,key_resp.rt,key_resp_14.keys,key_resp_14.rt,key_resp_15.keys,key_resp_15.rt,key_resp_17.keys,key_resp_17.rt,key_resp_9.keys,key_resp_9.rt,key_resp_10.keys,key_resp_10.rt,practice_comparison,Ecc,mouse_5.x,mouse_5.y,mouse_5.leftButton,mouse_5.midButton,mouse_5.rightButton,mouse_5.clicked_name,pracsimilarity,response_time,mouse_10.x,mouse_10.y,mouse_10.leftButton,mouse_10.midButton,mouse_10.rightButton,mouse_10.clicked_name,mouse_7.x,mouse_7.y,mouse_7.leftButton,mouse_7.midButton,mouse_7.rightButton,mouse_6.x,mouse_6.y,mouse_6.leftButton,mouse_6.midButton,mouse_6.rightButton,duringprac.thisRepN,duringprac.thisTrialN,duringprac.thisN,duringprac.thisIndex,duringprac.ran,participant,session,date,expName,psychopyVersion,OS,frameRate,study_id,mouse_7.clicked_name,catchpracsimilarity,catch_response_time,catchnumberprac,catchtrialorderprac,mouse_6.clicked_name,key_resp_22.keys,key_resp_22.rt,realcomparison,mouse.x,mouse.y,mouse.leftButton,mouse.midButton,mouse.rightButton,mouse.clicked_name,Colour2,similarity,mouse_2.x,mouse_2.y,mouse_2.leftButton,mouse_2.midButton,mouse_2.rightButton,mouse_2.clicked_name,mouse_3.x,mouse_3.y,mouse_3.leftButton,mouse_3.midButton,mouse_3.rightButton,mouse_11.x,mouse_11.y,mouse_11.leftButton,mouse_11.midButton,mouse_11.rightButton,trials_2.thisRepN,trials_2.thisTrialN,trials_2.thisN,trials_2.thisIndex,trials_2.ran,Colour1,mouse_3.clicked_name,catchornah,catchsimilarity,catchnumber,catchtrialorder,catchRT,mouse_11.clicked_name
space,1.8012,space,13.9772,space,16.1595,space,2.9523,space,5.14,space,6.2455,87,FF,54.40001225,99.99999505,1,0,0,response1disk_5,7,15.678,0.800011456,1.599993587,1,0,0,rectangle_8,0.800011456,1.599993587,1,0,0,0.800011456,1.599993587,1,0,0,0,0,0,0,1,60f36868575f391fc987f84e,61036777852ae037ac352524,2021-07-30_03h44.46.950,Simcolourproject_2stim_asymm_v5,2020.2.10,Win32,60,61025ae37ef11b136ea224fe,,,,,,,,,,,,,,,,,,,,,,,,,,,,,,,,,,,,,,,,,,,,,,
,,,,,,,,,,,,23,PF,96.00001287,-44.00000709,1,0,0,response3disk_5,5,5.8801,2.40001148,3.999993622,1,0,0,rectangle_8,-41.59998918,111.9999952,1,0,0,5.600060356,-0.800006449,1,0,0,0,1,1,1,1,60f36868575f391fc987f84e,61036777852ae037ac352524,2021-07-30_03h44.46.950,Simcolourproject_2stim_asymm_v5,2020.2.10,Win32,60,61025ae37ef11b136ea224fe,response7disk_7,0,1.8824,0,"[2,5]",rectangle_4,,,,,,,,,,,,,,,,,,,,,,,,,,,,,,,,,,,,,,,,
,,,,,,,,,,,,24,FF,109.6000131,45.59999424,1,0,0,response1disk_5,6,6.8468,-9.599988699,0.799993575,1,0,0,rectangle_8,-9.599988699,0.799993575,1,0,0,-9.599988699,0.799993575,1,0,0,0,2,2,3,1,60f36868575f391fc987f84e,61036777852ae037ac352524,2021-07-30_03h44.46.950,Simcolourproject_2stim_asymm_v5,2020.2.10,Win32,60,61025ae37ef11b136ea224fe,,,,,,,,,,,,,,,,,,,,,,,,,,,,,,,,,,,,,,,,,,,,,,
,,,,,,,,,,,,82,PF,56.80001229,116.7999953,1,0,0,response1disk_5,7,2.9485,-2.399939764,1.599993587,1,0,0,rectangle_8,-2.399939764,1.599993587,1,0,0,-2.399939764,1.599993587,1,0,0,0,3,3,2,1,60f36868575f391fc987f84e,61036777852ae037ac352524,2021-07-30_03h44.46.950,Simcolourproject_2stim_asymm_v5,2020.2.10,Win32,60,61025ae37ef11b136ea224fe,,,,,,,,,,,,,,,,,,,,,,,,,,,,,,,,,,,,,,,,,,,,,,
,,,,,,,,,,,,32,FF,56.00001228,-100.0000079,1,0,0,response3disk_5,4,6.78,1.600060296,-1.600006461,1,0,0,rectangle_8,-50.39994048,91.99999493,1,0,0,0.800011456,5.599993646,1,0,0,0,4,4,5,1,60f36868575f391fc987f84e,61036777852ae037ac352524,2021-07-30_03h44.46.950,Simcolourproject_2stim_asymm_v5,2020.2.10,Win32,60,61025ae37ef11b136ea224fe,response7disk_7,0,1.4657,0,"[2,5]",rectangle_4,,,,,,,,,,,,,,,,,,,,,,,,,,,,,,,,,,,,,,,,
,,,,,,,,,,,,27,PF,41.60006089,110.3999952,1,0,0,response1disk_5,7,3.9313,-7.199988663,2.399993598,1,0,0,rectangle_8,-7.199988663,2.399993598,1,0,0,-7.199988663,2.399993598,1,0,0,0,5,5,6,1,60f36868575f391fc987f84e,61036777852ae037ac352524,2021-07-30_03h44.46.950,Simcolourproject_2stim_asymm_v5,2020.2.10,Win32,60,61025ae37ef11b136ea224fe,,,,,,,,,,,,,,,,,,,,,,,,,,,,,,,,,,,,,,,,,,,,,,
,,,,,,,,,,,,147,PF,-93.59998995,-41.60000706,1,0,0,response5disk_5,2,4.548,3.200011492,8.799993694,1,0,0,rectangle_8,3.200011492,8.799993694,1,0,0,3.200011492,8.799993694,1,0,0,0,6,6,4,1,60f36868575f391fc987f84e,61036777852ae037ac352524,2021-07-30_03h44.46.950,Simcolourproject_2stim_asymm_v5,2020.2.10,Win32,60,61025ae37ef11b136ea224fe,,,,,,,,,,,,,,,,,,,,,,,,,,,,,,,,,,,,,,,,,,,,,,
,,,,,,,,,,,,,FF,,,,,,,,1.7322,,,,,,,,,,,,,,,,,,,,,,60f36868575f391fc987f84e,61036777852ae037ac352524,2021-07-30_03h44.46.950,Simcolourproject_2stim_asymm_v5,2020.2.10,Win32,60,61025ae37ef11b136ea224fe,,,,,,,space,5.0108,630,48.80001217,114.3999953,1,0,0,response1disk,,7,2.40001148,1.599993587,1,0,0,rectangle,2.40001148,1.599993587,1,0,0,2.40001148,1.599993587,1,0,0,0,0,0,106,1,,,,,,,,
,,,,,,,,,,,,,FF,,,,,,,,6.0968,,,,,,,,,,,,,,,,,,,,,,60f36868575f391fc987f84e,61036777852ae037ac352524,2021-07-30_03h44.46.950,Simcolourproject_2stim_asymm_v5,2020.2.10,Win32,60,61025ae37ef11b136ea224fe,,,,,,,,,2532,42.40001208,112.7999952,1,0,0,response1disk,,7,1.600060296,1.599993587,1,0,0,rectangle,1.600060296,1.599993587,1,0,0,1.600060296,1.599993587,1,0,0,0,1,1,83,1,,,,,,,,
,,,,,,,,,,,,,FF,,,,,,,,2.8321,,,,,,,,,,,,,,,,,,,,,,60f36868575f391fc987f84e,61036777852ae037ac352524,2021-07-30_03h44.46.950,Simcolourproject_2stim_asymm_v5,2020.2.10,Win32,60,61025ae37ef11b136ea224fe,,,,,,,,,4228,95.20001286,-41.60000706,1,0,0,response3disk,,5,-3.999988616,5.599993646,1,0,0,rectangle,-3.999988616,5.599993646,1,0,0,-3.999988616,5.599993646,1,0,0,0,2,2,41,1,,,,,,,,
,,,,,,,,,,,,,FF,,,,,,,,3.1817,,,,,,,,,,,,,,,,,,,,,,60f36868575f391fc987f84e,61036777852ae037ac352524,2021-07-30_03h44.46.950,Simcolourproject_2stim_asymm_v5,2020.2.10,Win32,60,61025ae37ef11b136ea224fe,,,,,,,,,1822,-95.19998997,39.99999416,1,0,0,response7disk,,1,-7.199988663,-4.800006509,1,0,0,rectangle,-7.199988663,-4.800006509,1,0,0,-7.199988663,-4.800006509,1,0,0,0,3,3,74,1,,,,,,,,
,,,,,,,,,,,,,FF,,,,,,,,4.0811,,,,,,,,,,,,,,,,,,,,,,60f36868575f391fc987f84e,61036777852ae037ac352524,2021-07-30_03h44.46.950,Simcolourproject_2stim_asymm_v5,2020.2.10,Win32,60,61025ae37ef11b136ea224fe,,,,,,,,,2308,96.80001289,-40.00000703,1,0,0,response3disk,,5,-7.199988663,5.599993646,1,0,0,rectangle,-7.199988663,5.599993646,1,0,0,-7.199988663,5.599993646,1,0,0,0,4,4,113,1,,,,,,,,
,,,,,,,,,,,,,FF,,,,,,,,7.2299,,,,,,,,,,,,,,,,,,,,,,60f36868575f391fc987f84e,61036777852ae037ac352524,2021-07-30_03h44.46.950,Simcolourproject_2stim_asymm_v5,2020.2.10,Win32,60,61025ae37ef11b136ea224fe,,,,,,,,,3538,34.40001196,-112.0000081,1,0,0,response3disk,,4,-9.599988699,3.999993622,1,0,0,rectangle,-9.599988699,3.999993622,1,0,0,-9.599988699,3.999993622,1,0,0,0,5,5,73,1,,,,,,,,
,,,,,,,,,,,,,FF,,,,,,,,5.6803,,,,,,,,,,,,,,,,,,,,,,60f36868575f391fc987f84e,61036777852ae037ac352524,2021-07-30_03h44.46.950,Simcolourproject_2stim_asymm_v5,2020.2.10,Win32,60,61025ae37ef11b136ea224fe,,,,,,,,,1434,111.2000131,42.39999419,1,0,0,response1disk,,6,-7.199988663,3.999993622,1,0,0,rectangle,-7.199988663,3.999993622,1,0,0,-7.199988663,3.999993622,1,0,0,0,6,6,26,1,,,,,,,,
,,,,,,,,,,,,,FF,,,,,,,,2.1319,,,,,,,,,,,,,,,,,,,,,,60f36868575f391fc987f84e,61036777852ae037ac352524,2021-07-30_03h44.46.950,Simcolourproject_2stim_asymm_v5,2020.2.10,Win32,60,61025ae37ef11b136ea224fe,,,,,,,,,1111,45.60006095,111.1999708,1,0,0,response1disk,,7,-0.799988568,-2.400006473,1,0,0,rectangle,-0.799988568,-2.400006473,1,0,0,-0.799988568,-2.400006473,1,0,0,0,7,7,130,1,,,,,,,,
,,,,,,,,,,,,,FF,,,,,,,,4.2642,,,,,,,,,,,,,,,,,,,,,,60f36868575f391fc987f84e,61036777852ae037ac352524,2021-07-30_03h44.46.950,Simcolourproject_2stim_asymm_v5,2020.2.10,Win32,60,61025ae37ef11b136ea224fe,,,,,,,,,1261,44.80001211,-106.400008,1,0,0,response3disk,,4,2.40001148,5.599993646,1,0,0,rectangle,2.40001148,5.599993646,1,0,0,2.40001148,5.599993646,1,0,0,0,8,8,143,1,,,,,,,,
,,,,,,,,,,,,,FF,,,,,,,,2.7483,,,,,,,,,,,,,,,,,,,,,,60f36868575f391fc987f84e,61036777852ae037ac352524,2021-07-30_03h44.46.950,Simcolourproject_2stim_asymm_v5,2020.2.10,Win32,60,61025ae37ef11b136ea224fe,,,,,,,,,884,39.20001203,-109.6000569,1,0,0,response3disk,,4,-3.199988604,-1.600006461,1,0,0,rectangle,-3.199988604,-1.600006461,1,0,0,-3.199988604,-1.600006461,1,0,0,0,9,9,107,1,,,,,,,,
,,,,,,,,,,,,,FF,,,,,,,,2.782,,,,,,,,,,,,,,,,,,,,,,60f36868575f391fc987f84e,61036777852ae037ac352524,2021-07-30_03h44.46.950,Simcolourproject_2stim_asymm_v5,2020.2.10,Win32,60,61025ae37ef11b136ea224fe,,,,,,,,,785,-46.39994042,-104.800008,1,0,0,response5disk,,3,-0.799988568,3.999993622,1,0,0,rectangle,-0.799988568,3.999993622,1,0,0,-0.799988568,3.999993622,1,0,0,0,10,10,14,1,,,,,,,,
,,,,,,,,,,,,,FF,,,,,,,,2.4319,,,,,,,,,,,,,,,,,,,,,,60f36868575f391fc987f84e,61036777852ae037ac352524,2021-07-30_03h44.46.950,Simcolourproject_2stim_asymm_v5,2020.2.10,Win32,60,61025ae37ef11b136ea224fe,,,,,,,,,2063,96.00001287,-40.00000703,1,0,0,response3disk,,5,2.40001148,3.19999361,1,0,0,rectangle,2.40001148,3.19999361,1,0,0,2.40001148,3.19999361,1,0,0,0,11,11,31,1,,,,,,,,
,,,,,,,,,,,,,FF,,,,,,,,3.1812,,,,,,,,,,,,,,,,,,,,,,60f36868575f391fc987f84e,61036777852ae037ac352524,2021-07-30_03h44.46.950,Simcolourproject_2stim_asymm_v5,2020.2.10,Win32,60,61025ae37ef11b136ea224fe,,,,,,,,,4238,-44.79998922,-108.000008,1,0,0,response5disk,,3,-3.199988604,3.19999361,1,0,0,rectangle,-3.199988604,3.19999361,1,0,0,-3.199988604,3.19999361,1,0,0,0,12,12,152,1,,,,,,,,
,,,,,,,,,,,,,FF,,,,,,,,5.2144,,,,,,,,,,,,,,,,,,,,,,60f36868575f391fc987f84e,61036777852ae037ac352524,2021-07-30_03h44.46.950,Simcolourproject_2stim_asymm_v5,2020.2.10,Win32,60,61025ae37ef11b136ea224fe,,,,,,,,,1518,108.8000131,39.19996973,1,0,0,response1disk,,6,-11.19998872,5.599993646,1,0,0,rectangle,-11.19998872,5.599993646,1,0,0,-11.19998872,5.599993646,1,0,0,0,13,13,109,1,,,,,,,,
,,,,,,,,,,,,,FF,,,,,,,,4.6644,,,,,,,,,,,,,,,,,,,,,,60f36868575f391fc987f84e,61036777852ae037ac352524,2021-07-30_03h44.46.950,Simcolourproject_2stim_asymm_v5,2020.2.10,Win32,60,61025ae37ef11b136ea224fe,,,,,,,,,814,-96.79999,-40.80000705,1,0,0,response5disk,,2,4.800011516,1.599993587,1,0,0,rectangle,4.800011516,1.599993587,1,0,0,4.800011516,1.599993587,1,0,0,0,14,14,1,1,,,,,,,,
,,,,,,,,,,,,,FF,,,,,,,,3.6148,,,,,,,,,,,,,,,,,,,,,,60f36868575f391fc987f84e,61036777852ae037ac352524,2021-07-30_03h44.46.950,Simcolourproject_2stim_asymm_v5,2020.2.10,Win32,60,61025ae37ef11b136ea224fe,,,,,,,,,4253,-93.59998995,50.39999431,1,0,0,response7disk,,1,-7.199988663,1.599993587,1,0,0,rectangle,-7.199988663,1.599993587,1,0,0,-7.199988663,1.599993587,1,0,0,0,15,15,51,1,,,,,,,,
,,,,,,,,,,,,,FF,,,,,,,,3.5819,,,,,,,,,,,,,,,,,,,,,,60f36868575f391fc987f84e,61036777852ae037ac352524,2021-07-30_03h44.46.950,Simcolourproject_2stim_asymm_v5,2020.2.10,Win32,60,61025ae37ef11b136ea224fe,,,,,,,,,2029,-44.79998922,-106.400008,1,0,0,response5disk,,3,4.800011516,4.799993634,1,0,0,rectangle,4.800011516,4.799993634,1,0,0,4.800011516,4.799993634,1,0,0,0,16,16,0,1,,,,,,,,
,,,,,,,,,,,,,FF,,,,,,,,4.4641,,,,,,,,,,,,,,,,,,,,,,60f36868575f391fc987f84e,61036777852ae037ac352524,2021-07-30_03h44.46.950,Simcolourproject_2stim_asymm_v5,2020.2.10,Win32,60,61025ae37ef11b136ea224fe,,,,,,,,,317,91.2000128,-41.60000706,1,0,0,response3disk,,5,0.800011456,-3.200006485,1,0,0,rectangle,-32.79998904,112.7999952,1,0,0,0.800011456,3.999993622,1,0,0,0,17,17,57,1,,response7disk_3,TRUE,0,0,"[306,71,222,33,72,102,145,138,140,272,225,286,28,245,33,306,110,309,18,285]",1.4499,rectangle
,,,,,,,,,,,,,FF,,,,,,,,7.2799,,,,,,,,,,,,,,,,,,,,,,60f36868575f391fc987f84e,61036777852ae037ac352524,2021-07-30_03h44.46.950,Simcolourproject_2stim_asymm_v5,2020.2.10,Win32,60,61025ae37ef11b136ea224fe,,,,,,,,,772,109.6000131,41.59999418,1,0,0,response1disk,,6,-3.999988616,-6.400006533,1,0,0,rectangle,-3.999988616,-6.400006533,1,0,0,-3.999988616,-6.400006533,1,0,0,0,18,18,101,1,,,,,,,,
,,,,,,,,,,,,,FF,,,,,,,,3.5313,,,,,,,,,,,,,,,,,,,,,,60f36868575f391fc987f84e,61036777852ae037ac352524,2021-07-30_03h44.46.950,Simcolourproject_2stim_asymm_v5,2020.2.10,Win32,60,61025ae37ef11b136ea224fe,,,,,,,,,1792,-42.39994036,-104.800008,1,0,0,response5disk,,3,5.600060356,-0.800006449,1,0,0,rectangle,5.600060356,-0.800006449,1,0,0,5.600060356,-0.800006449,1,0,0,0,19,19,125,1,,,,,,,,
,,,,,,,,,,,,,FF,,,,,,,,1.7826,,,,,,,,,,,,,,,,,,,,,,60f36868575f391fc987f84e,61036777852ae037ac352524,2021-07-30_03h44.46.950,Simcolourproject_2stim_asymm_v5,2020.2.10,Win32,60,61025ae37ef11b136ea224fe,,,,,,,,,92,43.20001209,109.5999952,1,0,0,response1disk,,7,1.14441E-05,-4.800006509,1,0,0,rectangle,1.14441E-05,-4.800006509,1,0,0,1.14441E-05,-4.800006509,1,0,0,0,20,20,148,1,,,,,,,,
,,,,,,,,,,,,,FF,,,,,,,,4.1977,,,,,,,,,,,,,,,,,,,,,,60f36868575f391fc987f84e,61036777852ae037ac352524,2021-07-30_03h44.46.950,Simcolourproject_2stim_asymm_v5,2020.2.10,Win32,60,61025ae37ef11b136ea224fe,,,,,,,,,1478,40.00001204,107.1999707,1,0,0,response1disk,,7,-0.799988568,-1.600006461,1,0,0,rectangle,-0.799988568,-1.600006461,1,0,0,-0.799988568,-1.600006461,1,0,0,0,21,21,24,1,,,,,,,,
,,,,,,,,,,,,,FF,,,,,,,,1.9491,,,,,,,,,,,,,,,,,,,,,,60f36868575f391fc987f84e,61036777852ae037ac352524,2021-07-30_03h44.46.950,Simcolourproject_2stim_asymm_v5,2020.2.10,Win32,60,61025ae37ef11b136ea224fe,,,,,,,,,2562,95.20001286,-39.20000702,1,0,0,response3disk,,5,12.00001162,-5.600006521,1,0,0,rectangle,12.00001162,-5.600006521,1,0,0,12.00001162,-5.600006521,1,0,0,0,22,22,25,1,,,,,,,,
,,,,,,,,,,,,,FF,,,,,,,,4.7143,,,,,,,,,,,,,,,,,,,,,,60f36868575f391fc987f84e,61036777852ae037ac352524,2021-07-30_03h44.46.950,Simcolourproject_2stim_asymm_v5,2020.2.10,Win32,60,61025ae37ef11b136ea224fe,,,,,,,,,1993,94.40001285,-43.20000708,1,0,0,response3disk,,5,-9.599988699,7.19999367,1,0,0,rectangle,-9.599988699,7.19999367,1,0,0,-9.599988699,7.19999367,1,0,0,0,23,23,6,1,,,,,,,,
,,,,,,,,,,,,,FF,,,,,,,,1.8324,,,,,,,,,,,,,,,,,,,,,,60f36868575f391fc987f84e,61036777852ae037ac352524,2021-07-30_03h44.46.950,Simcolourproject_2stim_asymm_v5,2020.2.10,Win32,60,61025ae37ef11b136ea224fe,,,,,,,,,2716,-39.99998915,-99.20000792,1,0,0,response5disk,,3,-8.799988687,7.19999367,1,0,0,rectangle,-8.799988687,7.19999367,1,0,0,-8.799988687,7.19999367,1,0,0,0,24,24,52,1,,,,,,,,
,,,,,,,,,,,,,FF,,,,,,,,4.6475,,,,,,,,,,,,,,,,,,,,,,60f36868575f391fc987f84e,61036777852ae037ac352524,2021-07-30_03h44.46.950,Simcolourproject_2stim_asymm_v5,2020.2.10,Win32,60,61025ae37ef11b136ea224fe,,,,,,,,,1562,60.00001234,-100.0000079,1,0,0,response3disk,,4,0.800011456,4.799993634,1,0,0,rectangle,0.800011456,4.799993634,1,0,0,0.800011456,4.799993634,1,0,0,0,25,25,131,1,,,,,,,,
,,,,,,,,,,,,,FF,,,,,,,,1.4501,,,,,,,,,,,,,,,,,,,,,,60f36868575f391fc987f84e,61036777852ae037ac352524,2021-07-30_03h44.46.950,Simcolourproject_2stim_asymm_v5,2020.2.10,Win32,60,61025ae37ef11b136ea224fe,,,,,,,,,674,-92.79998994,-44.00000709,1,0,0,response5disk,,2,-4.799988627,7.999993682,1,0,0,rectangle,-4.799988627,7.999993682,1,0,0,-4.799988627,7.999993682,1,0,0,0,26,26,47,1,,,,,,,,
,,,,,,,,,,,,,FF,,,,,,,,1.5489,,,,,,,,,,,,,,,,,,,,,,60f36868575f391fc987f84e,61036777852ae037ac352524,2021-07-30_03h44.46.950,Simcolourproject_2stim_asymm_v5,2020.2.10,Win32,60,61025ae37ef11b136ea224fe,,,,,,,,,3616,96.00001287,-43.20000708,1,0,0,response3disk,,5,16.00001168,-6.400006533,1,0,0,rectangle,-44.79998922,112.7999952,1,0,0,-1.59998858,-3.200006485,1,0,0,0,27,27,62,1,,response7disk_3,TRUE,0,0,"[306,71,222,33,72,102,145,138,140,272,225,286,28,245,33,306,110,309,18,285]",1.0497,rectangle
,,,,,,,,,,,,,FF,,,,,,,,3.798,,,,,,,,,,,,,,,,,,,,,,60f36868575f391fc987f84e,61036777852ae037ac352524,2021-07-30_03h44.46.950,Simcolourproject_2stim_asymm_v5,2020.2.10,Win32,60,61025ae37ef11b136ea224fe,,,,,,,,,1789,105.600013,48.79999429,1,0,0,response1disk,,6,-15.99998879,8.799993694,1,0,0,rectangle,-15.99998879,8.799993694,1,0,0,-15.99998879,8.799993694,1,0,0,0,28,28,153,1,,,,,,,,
,,,,,,,,,,,,,FF,,,,,,,,1.5161,,,,,,,,,,,,,,,,,,,,,,60f36868575f391fc987f84e,61036777852ae037ac352524,2021-07-30_03h44.46.950,Simcolourproject_2stim_asymm_v5,2020.2.10,Win32,60,61025ae37ef11b136ea224fe,,,,,,,,,3733,40.80001205,107.9999952,1,0,0,response1disk,,7,5.600060356,-3.200006485,1,0,0,rectangle,5.600060356,-3.200006485,1,0,0,5.600060356,-3.200006485,1,0,0,0,29,29,46,1,,,,,,,,
,,,,,,,,,,,,,FF,,,,,,,,1.8326,,,,,,,,,,,,,,,,,,,,,,60f36868575f391fc987f84e,61036777852ae037ac352524,2021-07-30_03h44.46.950,Simcolourproject_2stim_asymm_v5,2020.2.10,Win32,60,61025ae37ef11b136ea224fe,,,,,,,,,3239,45.60006095,-108.8000081,1,0,0,response3disk,,4,2.40001148,-6.4373E-06,1,0,0,rectangle,2.40001148,-6.4373E-06,1,0,0,2.40001148,-6.4373E-06,1,0,0,0,30,30,116,1,,,,,,,,
,,,,,,,,,,,,,FF,,,,,,,,1.6827,,,,,,,,,,,,,,,,,,,,,,60f36868575f391fc987f84e,61036777852ae037ac352524,2021-07-30_03h44.46.950,Simcolourproject_2stim_asymm_v5,2020.2.10,Win32,60,61025ae37ef11b136ea224fe,,,,,,,,,298,93.60001284,-38.40000701,1,0,0,response3disk,,5,0.800011456,-6.4373E-06,1,0,0,rectangle,0.800011456,-6.4373E-06,1,0,0,0.800011456,-6.4373E-06,1,0,0,0,31,31,61,1,,,,,,,,
,,,,,,,,,,,,,FF,,,,,,,,1.6159,,,,,,,,,,,,,,,,,,,,,,60f36868575f391fc987f84e,61036777852ae037ac352524,2021-07-30_03h44.46.950,Simcolourproject_2stim_asymm_v5,2020.2.10,Win32,60,61025ae37ef11b136ea224fe,,,,,,,,,1097,106.400013,40.79999417,1,0,0,response1disk,,6,-9.599988699,-5.600006521,1,0,0,rectangle,-47.19998926,107.9999952,1,0,0,-13.59998876,3.999993622,1,0,0,0,32,32,117,1,,response7disk_3,TRUE,0,0,"[306,71,222,33,72,102,145,138,140,272,225,286,28,245,33,306,110,309,18,285]",0.9162,rectangle
,,,,,,,,,,,,,FF,,,,,,,,3.1651,,,,,,,,,,,,,,,,,,,,,,60f36868575f391fc987f84e,61036777852ae037ac352524,2021-07-30_03h44.46.950,Simcolourproject_2stim_asymm_v5,2020.2.10,Win32,60,61025ae37ef11b136ea224fe,,,,,,,,,2963,93.60001284,-39.20000702,1,0,0,response3disk,,5,-2.399939764,0.799993575,1,0,0,rectangle,-2.399939764,0.799993575,1,0,0,-2.399939764,0.799993575,1,0,0,0,33,33,145,1,,,,,,,,
,,,,,,,,,,,,,FF,,,,,,,,5.5639,,,,,,,,,,,,,,,,,,,,,,60f36868575f391fc987f84e,61036777852ae037ac352524,2021-07-30_03h44.46.950,Simcolourproject_2stim_asymm_v5,2020.2.10,Win32,60,61025ae37ef11b136ea224fe,,,,,,,,,2375,93.60001284,-44.00000709,1,0,0,response3disk,,5,7.200011551,4.799993634,1,0,0,rectangle,7.200011551,4.799993634,1,0,0,7.200011551,4.799993634,1,0,0,0,34,34,119,1,,,,,,,,
,,,,,,,,,,,,,FF,,,,,,,,1.8657,,,,,,,,,,,,,,,,,,,,,,60f36868575f391fc987f84e,61036777852ae037ac352524,2021-07-30_03h44.46.950,Simcolourproject_2stim_asymm_v5,2020.2.10,Win32,60,61025ae37ef11b136ea224fe,,,,,,,,,784,45.60006095,-116.0000082,1,0,0,response3disk,,4,-0.799988568,3.19999361,1,0,0,rectangle,-0.799988568,3.19999361,1,0,0,-0.799988568,3.19999361,1,0,0,0,35,35,82,1,,,,,,,,
,,,,,,,,,,,,,FF,,,,,,,,2.3659,,,,,,,,,,,,,,,,,,,,,,60f36868575f391fc987f84e,61036777852ae037ac352524,2021-07-30_03h44.46.950,Simcolourproject_2stim_asymm_v5,2020.2.10,Win32,60,61025ae37ef11b136ea224fe,,,,,,,,,1595,108.0000131,43.19996979,1,0,0,response1disk,,6,-13.59998876,-11.2000066,1,0,0,rectangle,-13.59998876,-11.2000066,1,0,0,-13.59998876,-11.2000066,1,0,0,0,36,36,87,1,,,,,,,,
,,,,,,,,,,,,,FF,,,,,,,,2.1489,,,,,,,,,,,,,,,,,,,,,,60f36868575f391fc987f84e,61036777852ae037ac352524,2021-07-30_03h44.46.950,Simcolourproject_2stim_asymm_v5,2020.2.10,Win32,60,61025ae37ef11b136ea224fe,,,,,,,,,3362,92.00001281,-43.20000708,1,0,0,response3disk,,5,-0.799988568,5.599993646,1,0,0,rectangle,-0.799988568,5.599993646,1,0,0,-0.799988568,5.599993646,1,0,0,0,37,37,135,1,,,,,,,,
,,,,,,,,,,,,,FF,,,,,,,,2.2494,,,,,,,,,,,,,,,,,,,,,,60f36868575f391fc987f84e,61036777852ae037ac352524,2021-07-30_03h44.46.950,Simcolourproject_2stim_asymm_v5,2020.2.10,Win32,60,61025ae37ef11b136ea224fe,,,,,,,,,928,106.400013,40.79999417,1,0,0,response1disk,,6,-7.999988675,-4.000006497,1,0,0,rectangle,-7.999988675,-4.000006497,1,0,0,-7.999988675,-4.000006497,1,0,0,0,38,38,96,1,,,,,,,,
,,,,,,,,,,,,,FF,,,,,,,,1.7994,,,,,,,,,,,,,,,,,,,,,,60f36868575f391fc987f84e,61036777852ae037ac352524,2021-07-30_03h44.46.950,Simcolourproject_2stim_asymm_v5,2020.2.10,Win32,60,61025ae37ef11b136ea224fe,,,,,,,,,1425,110.4000131,46.39999425,1,0,0,response1disk,,6,-18.39994,0.799993575,1,0,0,rectangle,-18.39994,0.799993575,1,0,0,-18.39994,0.799993575,1,0,0,0,39,39,16,1,,,,,,,,
,,,,,,,,,,,,,FF,,,,,,,,3.2318,,,,,,,,,,,,,,,,,,,,,,60f36868575f391fc987f84e,61036777852ae037ac352524,2021-07-30_03h44.46.950,Simcolourproject_2stim_asymm_v5,2020.2.10,Win32,60,61025ae37ef11b136ea224fe,,,,,,,,,3285,105.600013,27.19996955,1,0,0,response1disk,,6,-11.19998872,0.799993575,1,0,0,rectangle,-11.19998872,0.799993575,1,0,0,-11.19998872,0.799993575,1,0,0,0,40,40,91,1,,,,,,,,
,,,,,,,,,,,,,FF,,,,,,,,4.4977,,,,,,,,,,,,,,,,,,,,,,60f36868575f391fc987f84e,61036777852ae037ac352524,2021-07-30_03h44.46.950,Simcolourproject_2stim_asymm_v5,2020.2.10,Win32,60,61025ae37ef11b136ea224fe,,,,,,,,,2848,40.00001204,-108.000008,1,0,0,response3disk,,4,-4.799988627,-6.4373E-06,1,0,0,rectangle,-4.799988627,-6.4373E-06,1,0,0,-4.799988627,-6.4373E-06,1,0,0,0,41,41,81,1,,,,,,,,
,,,,,,,,,,,,,FF,,,,,,,,2.4988,,,,,,,,,,,,,,,,,,,,,,60f36868575f391fc987f84e,61036777852ae037ac352524,2021-07-30_03h44.46.950,Simcolourproject_2stim_asymm_v5,2020.2.10,Win32,60,61025ae37ef11b136ea224fe,,,,,,,,,157,-45.59998924,-109.6000569,1,0,0,response5disk,,3,4.800011516,1.599993587,1,0,0,rectangle,4.800011516,1.599993587,1,0,0,4.800011516,1.599993587,1,0,0,0,42,42,80,1,,,,,,,,
,,,,,,,,,,,,,FF,,,,,,,,1.2992,,,,,,,,,,,,,,,,,,,,,,60f36868575f391fc987f84e,61036777852ae037ac352524,2021-07-30_03h44.46.950,Simcolourproject_2stim_asymm_v5,2020.2.10,Win32,60,61025ae37ef11b136ea224fe,,,,,,,,,4292,44.0000121,109.5999952,1,0,0,response1disk,,7,-1.59998858,-6.4373E-06,1,0,0,rectangle,-1.59998858,-6.4373E-06,1,0,0,-1.59998858,-6.4373E-06,1,0,0,0,43,43,93,1,,,,,,,,
,,,,,,,,,,,,,FF,,,,,,,,4.4982,,,,,,,,,,,,,,,,,,,,,,60f36868575f391fc987f84e,61036777852ae037ac352524,2021-07-30_03h44.46.950,Simcolourproject_2stim_asymm_v5,2020.2.10,Win32,60,61025ae37ef11b136ea224fe,,,,,,,,,1617,43.20001209,-112.8000081,1,0,0,response3disk,,4,-1.59998858,-0.800006449,1,0,0,rectangle,-1.59998858,-0.800006449,1,0,0,-1.59998858,-0.800006449,1,0,0,0,44,44,29,1,,,,,,,,
,,,,,,,,,,,,,FF,,,,,,,,3.0984,,,,,,,,,,,,,,,,,,,,,,60f36868575f391fc987f84e,61036777852ae037ac352524,2021-07-30_03h44.46.950,Simcolourproject_2stim_asymm_v5,2020.2.10,Win32,60,61025ae37ef11b136ea224fe,,,,,,,,,1432,95.20001286,-40.00000703,1,0,0,response3disk,,5,3.200011492,7.19999367,1,0,0,rectangle,3.200011492,7.19999367,1,0,0,3.200011492,7.19999367,1,0,0,0,45,45,49,1,,,,,,,,
,,,,,,,,,,,,,FF,,,,,,,,4.6142,,,,,,,,,,,,,,,,,,,,,,60f36868575f391fc987f84e,61036777852ae037ac352524,2021-07-30_03h44.46.950,Simcolourproject_2stim_asymm_v5,2020.2.10,Win32,60,61025ae37ef11b136ea224fe,,,,,,,,,709,111.2000131,38.39999413,1,0,0,response1disk,,6,-6.399939823,-0.800006449,1,0,0,rectangle,-6.399939823,-0.800006449,1,0,0,-6.399939823,-0.800006449,1,0,0,0,46,46,37,1,,,,,,,,
,,,,,,,,,,,,,FF,,,,,,,,1.9159,,,,,,,,,,,,,,,,,,,,,,60f36868575f391fc987f84e,61036777852ae037ac352524,2021-07-30_03h44.46.950,Simcolourproject_2stim_asymm_v5,2020.2.10,Win32,60,61025ae37ef11b136ea224fe,,,,,,,,,1207,-91.19998991,-42.40000707,1,0,0,response5disk,,2,9.600060415,-2.400006473,1,0,0,rectangle,9.600060415,-2.400006473,1,0,0,9.600060415,-2.400006473,1,0,0,0,47,47,33,1,,,,,,,,
,,,,,,,,,,,,,FF,,,,,,,,2.0824,,,,,,,,,,,,,,,,,,,,,,60f36868575f391fc987f84e,61036777852ae037ac352524,2021-07-30_03h44.46.950,Simcolourproject_2stim_asymm_v5,2020.2.10,Win32,60,61025ae37ef11b136ea224fe,,,,,,,,,2362,-88.79998988,51.19996991,1,0,0,response7disk,,1,-4.799988627,-5.600006521,1,0,0,rectangle,-4.799988627,-5.600006521,1,0,0,-4.799988627,-5.600006521,1,0,0,0,48,48,121,1,,,,,,,,
,,,,,,,,,,,,,FF,,,,,,,,3.9986,,,,,,,,,,,,,,,,,,,,,,60f36868575f391fc987f84e,61036777852ae037ac352524,2021-07-30_03h44.46.950,Simcolourproject_2stim_asymm_v5,2020.2.10,Win32,60,61025ae37ef11b136ea224fe,,,,,,,,,3978,-45.59998924,-111.2000081,1,0,0,response5disk,,3,-0.799988568,11.99999374,1,0,0,rectangle,-0.799988568,11.99999374,1,0,0,-0.799988568,11.99999374,1,0,0,0,49,49,94,1,,,,,,,,
,,,,,,,,,,,,,FF,,,,,,,,1.7495,,,,,,,,,,,,,,,,,,,,,,60f36868575f391fc987f84e,61036777852ae037ac352524,2021-07-30_03h44.46.950,Simcolourproject_2stim_asymm_v5,2020.2.10,Win32,60,61025ae37ef11b136ea224fe,,,,,,,,,461,44.0000121,-116.0000082,1,0,0,response3disk,,4,10.4000116,-4.800006509,1,0,0,rectangle,10.4000116,-4.800006509,1,0,0,10.4000116,-4.800006509,1,0,0,0,50,50,64,1,,,,,,,,
,,,,,,,,,,,,,FF,,,,,,,,1.6161,,,,,,,,,,,,,,,,,,,,,,60f36868575f391fc987f84e,61036777852ae037ac352524,2021-07-30_03h44.46.950,Simcolourproject_2stim_asymm_v5,2020.2.10,Win32,60,61025ae37ef11b136ea224fe,,,,,,,,,3274,95.20001286,39.99999416,1,0,0,response1disk,,6,-9.599988699,-1.600006461,1,0,0,rectangle,-9.599988699,-1.600006461,1,0,0,-9.599988699,-1.600006461,1,0,0,0,51,51,18,1,,,,,,,,
,,,,,,,,,,,,,FF,,,,,,,,4.6811,,,,,,,,,,,,,,,,,,,,,,60f36868575f391fc987f84e,61036777852ae037ac352524,2021-07-30_03h44.46.950,Simcolourproject_2stim_asymm_v5,2020.2.10,Win32,60,61025ae37ef11b136ea224fe,,,,,,,,,4041,93.60001284,-46.40000713,1,0,0,response3disk,,5,6.400011539,9.599993706,1,0,0,rectangle,6.400011539,9.599993706,1,0,0,6.400011539,9.599993706,1,0,0,0,52,52,15,1,,,,,,,,
,,,,,,,,,,,,,FF,,,,,,,,3.4818,,,,,,,,,,,,,,,,,,,,,,60f36868575f391fc987f84e,61036777852ae037ac352524,2021-07-30_03h44.46.950,Simcolourproject_2stim_asymm_v5,2020.2.10,Win32,60,61025ae37ef11b136ea224fe,,,,,,,,,2938,108.0000131,42.39999419,1,0,0,response1disk,,6,-10.39993988,-4.000006497,1,0,0,rectangle,-10.39993988,-4.000006497,1,0,0,-10.39993988,-4.000006497,1,0,0,0,53,53,11,1,,,,,,,,
,,,,,,,,,,,,,FF,,,,,,,,5.3643,,,,,,,,,,,,,,,,,,,,,,60f36868575f391fc987f84e,61036777852ae037ac352524,2021-07-30_03h44.46.950,Simcolourproject_2stim_asymm_v5,2020.2.10,Win32,60,61025ae37ef11b136ea224fe,,,,,,,,,1293,111.2000131,41.59999418,1,0,0,response1disk,,6,-20.79998887,-7.200006545,1,0,0,rectangle,-20.79998887,-7.200006545,1,0,0,-20.79998887,-7.200006545,1,0,0,0,54,54,90,1,,,,,,,,
,,,,,,,,,,,,,FF,,,,,,,,3.6815,,,,,,,,,,,,,,,,,,,,,,60f36868575f391fc987f84e,61036777852ae037ac352524,2021-07-30_03h44.46.950,Simcolourproject_2stim_asymm_v5,2020.2.10,Win32,60,61025ae37ef11b136ea224fe,,,,,,,,,1675,40.80001205,-112.8000081,1,0,0,response3disk,,4,-9.599988699,6.399993658,1,0,0,rectangle,-9.599988699,6.399993658,1,0,0,-9.599988699,6.399993658,1,0,0,0,55,55,89,1,,,,,,,,
,,,,,,,,,,,,,FF,,,,,,,,3.5313,,,,,,,,,,,,,,,,,,,,,,60f36868575f391fc987f84e,61036777852ae037ac352524,2021-07-30_03h44.46.950,Simcolourproject_2stim_asymm_v5,2020.2.10,Win32,60,61025ae37ef11b136ea224fe,,,,,,,,,980,106.400013,-47.20000714,1,0,0,response3disk,,5,2.40001148,3.999993622,1,0,0,rectangle,2.40001148,3.999993622,1,0,0,2.40001148,3.999993622,1,0,0,0,56,56,38,1,,,,,,,,
,,,,,,,,,,,,,FF,,,,,,,,2.3325,,,,,,,,,,,,,,,,,,,,,,60f36868575f391fc987f84e,61036777852ae037ac352524,2021-07-30_03h44.46.950,Simcolourproject_2stim_asymm_v5,2020.2.10,Win32,60,61025ae37ef11b136ea224fe,,,,,,,,,4043,104.000013,48.79999429,1,0,0,response1disk,,6,-3.999988616,-2.400006473,1,0,0,rectangle,-3.999988616,-2.400006473,1,0,0,-3.999988616,-2.400006473,1,0,0,0,57,57,63,1,,,,,,,,
,,,,,,,,,,,,,FF,,,,,,,,1.6157,,,,,,,,,,,,,,,,,,,,,,60f36868575f391fc987f84e,61036777852ae037ac352524,2021-07-30_03h44.46.950,Simcolourproject_2stim_asymm_v5,2020.2.10,Win32,60,61025ae37ef11b136ea224fe,,,,,,,,,1464,42.40001208,-107.200008,1,0,0,response3disk,,4,-1.59998858,-6.4373E-06,1,0,0,rectangle,-1.59998858,-6.4373E-06,1,0,0,-1.59998858,-6.4373E-06,1,0,0,0,58,58,78,1,,,,,,,,
,,,,,,,,,,,,,FF,,,,,,,,2.349,,,,,,,,,,,,,,,,,,,,,,60f36868575f391fc987f84e,61036777852ae037ac352524,2021-07-30_03h44.46.950,Simcolourproject_2stim_asymm_v5,2020.2.10,Win32,60,61025ae37ef11b136ea224fe,,,,,,,,,2365,-32.79998904,-111.2000081,1,0,0,response5disk,,3,5.600060356,4.799993634,1,0,0,rectangle,5.600060356,4.799993634,1,0,0,5.600060356,4.799993634,1,0,0,0,59,59,36,1,,,,,,,,
,,,,,,,,,,,,,FF,,,,,,,,3.4315,,,,,,,,,,,,,,,,,,,,,,60f36868575f391fc987f84e,61036777852ae037ac352524,2021-07-30_03h44.46.950,Simcolourproject_2stim_asymm_v5,2020.2.10,Win32,60,61025ae37ef11b136ea224fe,,,,,,,,,2276,96.00001287,-36.00000697,1,0,0,response3disk,,5,9.600060415,-6.4373E-06,1,0,0,rectangle,9.600060415,-6.4373E-06,1,0,0,9.600060415,-6.4373E-06,1,0,0,0,60,60,159,1,,,,,,,,
,,,,,,,,,,,,,FF,,,,,,,,2.6156,,,,,,,,,,,,,,,,,,,,,,60f36868575f391fc987f84e,61036777852ae037ac352524,2021-07-30_03h44.46.950,Simcolourproject_2stim_asymm_v5,2020.2.10,Win32,60,61025ae37ef11b136ea224fe,,,,,,,,,3094,104.000013,55.9999944,1,0,0,response1disk,,6,-7.999988675,6.399993658,1,0,0,rectangle,-7.999988675,6.399993658,1,0,0,-7.999988675,6.399993658,1,0,0,0,61,61,132,1,,,,,,,,
,,,,,,,,,,,,,FF,,,,,,,,1.5992,,,,,,,,,,,,,,,,,,,,,,60f36868575f391fc987f84e,61036777852ae037ac352524,2021-07-30_03h44.46.950,Simcolourproject_2stim_asymm_v5,2020.2.10,Win32,60,61025ae37ef11b136ea224fe,,,,,,,,,3845,92.80001283,-44.00000709,1,0,0,response3disk,,5,11.20001161,3.999993622,1,0,0,rectangle,11.20001161,3.999993622,1,0,0,11.20001161,3.999993622,1,0,0,0,62,62,127,1,,,,,,,,
,,,,,,,,,,,,,FF,,,,,,,,3.3156,,,,,,,,,,,,,,,,,,,,,,60f36868575f391fc987f84e,61036777852ae037ac352524,2021-07-30_03h44.46.950,Simcolourproject_2stim_asymm_v5,2020.2.10,Win32,60,61025ae37ef11b136ea224fe,,,,,,,,,1363,100.8000129,33.59999406,1,0,0,response1disk,,6,-0.799988568,-0.800006449,1,0,0,rectangle,-0.799988568,-0.800006449,1,0,0,-0.799988568,-0.800006449,1,0,0,0,63,63,32,1,,,,,,,,
,,,,,,,,,,,,,FF,,,,,,,,3.7481,,,,,,,,,,,,,,,,,,,,,,60f36868575f391fc987f84e,61036777852ae037ac352524,2021-07-30_03h44.46.950,Simcolourproject_2stim_asymm_v5,2020.2.10,Win32,60,61025ae37ef11b136ea224fe,,,,,,,,,515,97.6000129,58.39999443,1,0,0,response1disk,,6,-18.39994,-0.800006449,1,0,0,rectangle,-18.39994,-0.800006449,1,0,0,-18.39994,-0.800006449,1,0,0,0,64,64,35,1,,,,,,,,
,,,,,,,,,,,,,FF,,,,,,,,2.0324,,,,,,,,,,,,,,,,,,,,,,60f36868575f391fc987f84e,61036777852ae037ac352524,2021-07-30_03h44.46.950,Simcolourproject_2stim_asymm_v5,2020.2.10,Win32,60,61025ae37ef11b136ea224fe,,,,,,,,,2785,-49.5999893,-103.200008,1,0,0,response5disk,,3,1.14441E-05,4.799993634,1,0,0,rectangle,1.14441E-05,4.799993634,1,0,0,1.14441E-05,4.799993634,1,0,0,0,65,65,154,1,,,,,,,,
,,,,,,,,,,,,,FF,,,,,,,,2.1826,,,,,,,,,,,,,,,,,,,,,,60f36868575f391fc987f84e,61036777852ae037ac352524,2021-07-30_03h44.46.950,Simcolourproject_2stim_asymm_v5,2020.2.10,Win32,60,61025ae37ef11b136ea224fe,,,,,,,,,3308,112.0000131,36.79999411,1,0,0,response1disk,,6,1.14441E-05,-6.4373E-06,1,0,0,rectangle,1.14441E-05,-6.4373E-06,1,0,0,1.14441E-05,-6.4373E-06,1,0,0,0,66,66,144,1,,,,,,,,
,,,,,,,,,,,,,FF,,,,,,,,1.7328,,,,,,,,,,,,,,,,,,,,,,60f36868575f391fc987f84e,61036777852ae037ac352524,2021-07-30_03h44.46.950,Simcolourproject_2stim_asymm_v5,2020.2.10,Win32,60,61025ae37ef11b136ea224fe,,,,,,,,,2629,96.80001289,-41.60000706,1,0,0,response3disk,,5,-3.999988616,-4.000006497,1,0,0,rectangle,-3.999988616,-4.000006497,1,0,0,-3.999988616,-4.000006497,1,0,0,0,67,67,104,1,,,,,,,,
,,,,,,,,,,,,,FF,,,,,,,,2.6656,,,,,,,,,,,,,,,,,,,,,,60f36868575f391fc987f84e,61036777852ae037ac352524,2021-07-30_03h44.46.950,Simcolourproject_2stim_asymm_v5,2020.2.10,Win32,60,61025ae37ef11b136ea224fe,,,,,,,,,2709,111.2000131,43.19996979,1,0,0,response1disk,,6,-3.199988604,-7.200006545,1,0,0,rectangle,-3.199988604,-7.200006545,1,0,0,-3.199988604,-7.200006545,1,0,0,0,68,68,39,1,,,,,,,,
,,,,,,,,,,,,,FF,,,,,,,,1.9321,,,,,,,,,,,,,,,,,,,,,,60f36868575f391fc987f84e,61036777852ae037ac352524,2021-07-30_03h44.46.950,Simcolourproject_2stim_asymm_v5,2020.2.10,Win32,60,61025ae37ef11b136ea224fe,,,,,,,,,151,104.800013,43.99999422,1,0,0,response1disk,,6,-12.79998875,-6.4373E-06,1,0,0,rectangle,-12.79998875,-6.4373E-06,1,0,0,-12.79998875,-6.4373E-06,1,0,0,0,69,69,5,1,,,,,,,,
,,,,,,,,,,,,,FF,,,,,,,,2.3822,,,,,,,,,,,,,,,,,,,,,,60f36868575f391fc987f84e,61036777852ae037ac352524,2021-07-30_03h44.46.950,Simcolourproject_2stim_asymm_v5,2020.2.10,Win32,60,61025ae37ef11b136ea224fe,,,,,,,,,4107,-51.99998933,-119.2000082,1,0,0,response5disk,,3,-3.199988604,-5.600006521,1,0,0,rectangle,-103.9999901,34.39999408,1,0,0,-10.39993988,-1.600006461,1,0,0,0,70,70,27,1,,response7disk_3,TRUE,1,1,"[306,71,222,33,72,102,145,138,140,272,225,286,28,245,33,306,110,309,18,285]",1.3995,rectangle
,,,,,,,,,,,,,FF,,,,,,,,2.4153,,,,,,,,,,,,,,,,,,,,,,60f36868575f391fc987f84e,61036777852ae037ac352524,2021-07-30_03h44.46.950,Simcolourproject_2stim_asymm_v5,2020.2.10,Win32,60,61025ae37ef11b136ea224fe,,,,,,,,,2715,44.0000121,-95.20000786,1,0,0,response3disk,,4,0.800011456,-5.600006521,1,0,0,rectangle,-98.39994119,46.39999425,1,0,0,-12.79998875,7.19999367,1,0,0,0,71,71,54,1,,response7disk_3,TRUE,1,1,"[306,71,222,33,72,102,145,138,140,272,225,286,28,245,33,306,110,309,18,285]",1.4159,rectangle
,,,,,,,,,,,,,FF,,,,,,,,2.0488,,,,,,,,,,,,,,,,,,,,,,60f36868575f391fc987f84e,61036777852ae037ac352524,2021-07-30_03h44.46.950,Simcolourproject_2stim_asymm_v5,2020.2.10,Win32,60,61025ae37ef11b136ea224fe,,,,,,,,,3003,89.60001278,-45.60000712,1,0,0,response3disk,,5,-10.39993988,7.999993682,1,0,0,rectangle,-10.39993988,7.999993682,1,0,0,-10.39993988,7.999993682,1,0,0,0,72,72,123,1,,,,,,,,
,,,,,,,,,,,,,FF,,,,,,,,1.4664,,,,,,,,,,,,,,,,,,,,,,60f36868575f391fc987f84e,61036777852ae037ac352524,2021-07-30_03h44.46.950,Simcolourproject_2stim_asymm_v5,2020.2.10,Win32,60,61025ae37ef11b136ea224fe,,,,,,,,,1445,32.80001193,103.1999707,1,0,0,response1disk,,7,-2.399939764,1.599993587,1,0,0,rectangle,-2.399939764,1.599993587,1,0,0,-2.399939764,1.599993587,1,0,0,0,73,73,43,1,,,,,,,,
,,,,,,,,,,,,,FF,,,,,,,,4.6808,,,,,,,,,,,,,,,,,,,,,,60f36868575f391fc987f84e,61036777852ae037ac352524,2021-07-30_03h44.46.950,Simcolourproject_2stim_asymm_v5,2020.2.10,Win32,60,61025ae37ef11b136ea224fe,,,,,,,,,3335,29.60006071,103.1999707,1,0,0,response1disk,,7,-15.19998878,-3.200006485,1,0,0,rectangle,-15.19998878,-3.200006485,1,0,0,-15.19998878,-3.200006485,1,0,0,0,74,74,147,1,,,,,,,,
,,,,,,,,,,,,,FF,,,,,,,,2.6824,,,,,,,,,,,,,,,,,,,,,,60f36868575f391fc987f84e,61036777852ae037ac352524,2021-07-30_03h44.46.950,Simcolourproject_2stim_asymm_v5,2020.2.10,Win32,60,61025ae37ef11b136ea224fe,,,,,,,,,291,108.8000131,44.79999423,1,0,0,response1disk,,6,16.00001168,-8.000006557,1,0,0,rectangle,16.00001168,-8.000006557,1,0,0,16.00001168,-8.000006557,1,0,0,0,75,75,72,1,,,,,,,,
,,,,,,,,,,,,,FF,,,,,,,,1.6661,,,,,,,,,,,,,,,,,,,,,,60f36868575f391fc987f84e,61036777852ae037ac352524,2021-07-30_03h44.46.950,Simcolourproject_2stim_asymm_v5,2020.2.10,Win32,60,61025ae37ef11b136ea224fe,,,,,,,,,369,-91.19998991,-57.6000073,1,0,0,response5disk,,2,-5.599988639,4.799993634,1,0,0,rectangle,-5.599988639,4.799993634,1,0,0,-5.599988639,4.799993634,1,0,0,0,76,76,7,1,,,,,,,,
,,,,,,,,,,,,,FF,,,,,,,,1.9327,,,,,,,,,,,,,,,,,,,,,,60f36868575f391fc987f84e,61036777852ae037ac352524,2021-07-30_03h44.46.950,Simcolourproject_2stim_asymm_v5,2020.2.10,Win32,60,61025ae37ef11b136ea224fe,,,,,,,,,3814,-79.99998975,38.39999413,1,0,0,response7disk,,1,-12.79998875,0.799993575,1,0,0,rectangle,-12.79998875,0.799993575,1,0,0,-12.79998875,0.799993575,1,0,0,0,77,77,142,1,,,,,,,,
,,,,,,,,,,,,,FF,,,,,,,,3.7634,,,,,,,,,,,,,,,,,,,,,,60f36868575f391fc987f84e,61036777852ae037ac352524,2021-07-30_03h44.46.950,Simcolourproject_2stim_asymm_v5,2020.2.10,Win32,60,61025ae37ef11b136ea224fe,,,,,,,,,50,93.60001284,-35.20000696,1,0,0,response3disk,,5,8.000011563,-6.4373E-06,1,0,0,rectangle,8.000011563,-6.4373E-06,1,0,0,8.000011563,-6.4373E-06,1,0,0,0,78,78,69,1,,,,,,,,
,,,,,,,,,,,,,FF,,,,,,,,1.1833,,,,,,,,,,,,,,,,,,,,,,60f36868575f391fc987f84e,61036777852ae037ac352524,2021-07-30_03h44.46.950,Simcolourproject_2stim_asymm_v5,2020.2.10,Win32,60,61025ae37ef11b136ea224fe,,,,,,,,,4285,53.60001224,115.9999953,1,0,0,response1disk,,7,-5.599988639,7.19999367,1,0,0,rectangle,-5.599988639,7.19999367,1,0,0,-5.599988639,7.19999367,1,0,0,0,79,79,22,1,,,,,,,,
,,,,,,,,,,,,,FF,,,,,,,,1.033,,,,,,,,,,,,,,,,,,,,,,60f36868575f391fc987f84e,61036777852ae037ac352524,2021-07-30_03h44.46.950,Simcolourproject_2stim_asymm_v5,2020.2.10,Win32,60,61025ae37ef11b136ea224fe,,,,,,,,,2418,-39.99998915,131.1999711,1,0,0,response7disk,,0,-4.799988627,-0.800006449,1,0,0,rectangle,-4.799988627,-0.800006449,1,0,0,-4.799988627,-0.800006449,1,0,0,0,80,80,97,1,,,,,,,,
,,,,,,,,,,,,,FF,,,,,,,,6.4969,,,,,,,,,,,,,,,,,,,,,,60f36868575f391fc987f84e,61036777852ae037ac352524,2021-07-30_03h44.46.950,Simcolourproject_2stim_asymm_v5,2020.2.10,Win32,60,61025ae37ef11b136ea224fe,,,,,,,,,3800,108.8000131,40.79999417,1,0,0,response1disk,,6,-3.999988616,-8.800006568,1,0,0,rectangle,-3.999988616,-8.800006568,1,0,0,-3.999988616,-8.800006568,1,0,0,0,81,81,115,1,,,,,,,,
,,,,,,,,,,,,,FF,,,,,,,,1.6988,,,,,,,,,,,,,,,,,,,,,,60f36868575f391fc987f84e,61036777852ae037ac352524,2021-07-30_03h44.46.950,Simcolourproject_2stim_asymm_v5,2020.2.10,Win32,60,61025ae37ef11b136ea224fe,,,,,,,,,4137,93.60001284,-41.60000706,1,0,0,response3disk,,5,17.60006053,3.999993622,1,0,0,rectangle,17.60006053,3.999993622,1,0,0,17.60006053,3.999993622,1,0,0,0,82,82,158,1,,,,,,,,
,,,,,,,,,,,,,FF,,,,,,,,1.7333,,,,,,,,,,,,,,,,,,,,,,60f36868575f391fc987f84e,61036777852ae037ac352524,2021-07-30_03h44.46.950,Simcolourproject_2stim_asymm_v5,2020.2.10,Win32,60,61025ae37ef11b136ea224fe,,,,,,,,,883,110.4000131,44.79999423,1,0,0,response1disk,,6,-10.39993988,3.19999361,1,0,0,rectangle,-10.39993988,3.19999361,1,0,0,-10.39993988,3.19999361,1,0,0,0,83,83,111,1,,,,,,,,
,,,,,,,,,,,,,FF,,,,,,,,3.1145,,,,,,,,,,,,,,,,,,,,,,60f36868575f391fc987f84e,61036777852ae037ac352524,2021-07-30_03h44.46.950,Simcolourproject_2stim_asymm_v5,2020.2.10,Win32,60,61025ae37ef11b136ea224fe,,,,,,,,,1744,-94.39994113,33.59999406,1,0,0,response7disk,,1,9.600060415,3.999993622,1,0,0,rectangle,9.600060415,3.999993622,1,0,0,9.600060415,3.999993622,1,0,0,0,84,84,12,1,,,,,,,,
,,,,,,,,,,,,,FF,,,,,,,,2.3823,,,,,,,,,,,,,,,,,,,,,,60f36868575f391fc987f84e,61036777852ae037ac352524,2021-07-30_03h44.46.950,Simcolourproject_2stim_asymm_v5,2020.2.10,Win32,60,61025ae37ef11b136ea224fe,,,,,,,,,1353,108.8000131,49.5999943,1,0,0,response1disk,,6,0.800011456,0.799993575,1,0,0,rectangle,0.800011456,0.799993575,1,0,0,0.800011456,0.799993575,1,0,0,0,85,85,122,1,,,,,,,,
,,,,,,,,,,,,,FF,,,,,,,,5.7974,,,,,,,,,,,,,,,,,,,,,,60f36868575f391fc987f84e,61036777852ae037ac352524,2021-07-30_03h44.46.950,Simcolourproject_2stim_asymm_v5,2020.2.10,Win32,60,61025ae37ef11b136ea224fe,,,,,,,,,1848,113.6000131,56.79999441,1,0,0,response1disk,,6,14.40001166,10.39999372,1,0,0,rectangle,14.40001166,10.39999372,1,0,0,14.40001166,10.39999372,1,0,0,0,86,86,156,1,,,,,,,,
,,,,,,,,,,,,,FF,,,,,,,,4.0314,,,,,,,,,,,,,,,,,,,,,,60f36868575f391fc987f84e,61036777852ae037ac352524,2021-07-30_03h44.46.950,Simcolourproject_2stim_asymm_v5,2020.2.10,Win32,60,61025ae37ef11b136ea224fe,,,,,,,,,765,114.4000131,44.79999423,1,0,0,response1disk,,6,-19.99998885,-5.600006521,1,0,0,rectangle,-19.99998885,-5.600006521,1,0,0,-19.99998885,-5.600006521,1,0,0,0,87,87,42,1,,,,,,,,
,,,,,,,,,,,,,FF,,,,,,,,3.5652,,,,,,,,,,,,,,,,,,,,,,60f36868575f391fc987f84e,61036777852ae037ac352524,2021-07-30_03h44.46.950,Simcolourproject_2stim_asymm_v5,2020.2.10,Win32,60,61025ae37ef11b136ea224fe,,,,,,,,,3517,-46.39994042,-111.2000081,1,0,0,response5disk,,3,-7.199988663,-0.800006449,1,0,0,rectangle,-7.199988663,-0.800006449,1,0,0,-7.199988663,-0.800006449,1,0,0,0,88,88,10,1,,,,,,,,
,,,,,,,,,,,,,FF,,,,,,,,3.6817,,,,,,,,,,,,,,,,,,,,,,60f36868575f391fc987f84e,61036777852ae037ac352524,2021-07-30_03h44.46.950,Simcolourproject_2stim_asymm_v5,2020.2.10,Win32,60,61025ae37ef11b136ea224fe,,,,,,,,,3344,111.2000131,43.19996979,1,0,0,response1disk,,6,2.40001148,3.19999361,1,0,0,rectangle,2.40001148,3.19999361,1,0,0,2.40001148,3.19999361,1,0,0,0,89,89,50,1,,,,,,,,
,,,,,,,,,,,,,FF,,,,,,,,3.7314,,,,,,,,,,,,,,,,,,,,,,60f36868575f391fc987f84e,61036777852ae037ac352524,2021-07-30_03h44.46.950,Simcolourproject_2stim_asymm_v5,2020.2.10,Win32,60,61025ae37ef11b136ea224fe,,,,,,,,,635,94.40001285,-44.00000709,1,0,0,response3disk,,5,3.200011492,0.799993575,1,0,0,rectangle,3.200011492,0.799993575,1,0,0,3.200011492,0.799993575,1,0,0,0,90,90,76,1,,,,,,,,
,,,,,,,,,,,,,FF,,,,,,,,3.0651,,,,,,,,,,,,,,,,,,,,,,60f36868575f391fc987f84e,61036777852ae037ac352524,2021-07-30_03h44.46.950,Simcolourproject_2stim_asymm_v5,2020.2.10,Win32,60,61025ae37ef11b136ea224fe,,,,,,,,,3799,109.6000131,45.59999424,1,0,0,response1disk,,6,-7.999988675,5.599993646,1,0,0,rectangle,-7.999988675,5.599993646,1,0,0,-7.999988675,5.599993646,1,0,0,0,91,91,118,1,,,,,,,,
,,,,,,,,,,,,,FF,,,,,,,,1.2326,,,,,,,,,,,,,,,,,,,,,,60f36868575f391fc987f84e,61036777852ae037ac352524,2021-07-30_03h44.46.950,Simcolourproject_2stim_asymm_v5,2020.2.10,Win32,60,61025ae37ef11b136ea224fe,,,,,,,,,367,-95.99998999,50.39999431,1,0,0,response7disk,,1,15.20001167,-8.800006568,1,0,0,rectangle,15.20001167,-8.800006568,1,0,0,15.20001167,-8.800006568,1,0,0,0,92,92,146,1,,,,,,,,
,,,,,,,,,,,,,FF,,,,,,,,4.3479,,,,,,,,,,,,,,,,,,,,,,60f36868575f391fc987f84e,61036777852ae037ac352524,2021-07-30_03h44.46.950,Simcolourproject_2stim_asymm_v5,2020.2.10,Win32,60,61025ae37ef11b136ea224fe,,,,,,,,,2231,45.60006095,-107.200008,1,0,0,response3disk,,4,-0.799988568,-7.200006545,1,0,0,rectangle,-0.799988568,-7.200006545,1,0,0,-0.799988568,-7.200006545,1,0,0,0,93,93,8,1,,,,,,,,
,,,,,,,,,,,,,FF,,,,,,,,5.0314,,,,,,,,,,,,,,,,,,,,,,60f36868575f391fc987f84e,61036777852ae037ac352524,2021-07-30_03h44.46.950,Simcolourproject_2stim_asymm_v5,2020.2.10,Win32,60,61025ae37ef11b136ea224fe,,,,,,,,,1905,46.40001214,-92.00000781,1,0,0,response3disk,,4,16.80001169,-13.60000664,1,0,0,rectangle,16.80001169,-13.60000664,1,0,0,16.80001169,-13.60000664,1,0,0,0,94,94,95,1,,,,,,,,
,,,,,,,,,,,,,FF,,,,,,,,1.3163,,,,,,,,,,,,,,,,,,,,,,60f36868575f391fc987f84e,61036777852ae037ac352524,2021-07-30_03h44.46.950,Simcolourproject_2stim_asymm_v5,2020.2.10,Win32,60,61025ae37ef11b136ea224fe,,,,,,,,,3656,106.400013,-41.60000706,1,0,0,response3disk,,5,-7.999988675,1.599993587,1,0,0,rectangle,-7.999988675,1.599993587,1,0,0,-7.999988675,1.599993587,1,0,0,0,95,95,128,1,,,,,,,,
,,,,,,,,,,,,,FF,,,,,,,,1.8993,,,,,,,,,,,,,,,,,,,,,,60f36868575f391fc987f84e,61036777852ae037ac352524,2021-07-30_03h44.46.950,Simcolourproject_2stim_asymm_v5,2020.2.10,Win32,60,61025ae37ef11b136ea224fe,,,,,,,,,1761,-41.59998918,-109.6000569,1,0,0,response5disk,,3,8.800011575,2.399993598,1,0,0,rectangle,8.800011575,2.399993598,1,0,0,8.800011575,2.399993598,1,0,0,0,96,96,60,1,,,,,,,,
,,,,,,,,,,,,,FF,,,,,,,,3.0986,,,,,,,,,,,,,,,,,,,,,,60f36868575f391fc987f84e,61036777852ae037ac352524,2021-07-30_03h44.46.950,Simcolourproject_2stim_asymm_v5,2020.2.10,Win32,60,61025ae37ef11b136ea224fe,,,,,,,,,2035,93.60001284,-48.80000716,1,0,0,response3disk,,5,7.200011551,-6.400006533,1,0,0,rectangle,7.200011551,-6.400006533,1,0,0,7.200011551,-6.400006533,1,0,0,0,97,97,13,1,,,,,,,,
,,,,,,,,,,,,,FF,,,,,,,,2.5989,,,,,,,,,,,,,,,,,,,,,,60f36868575f391fc987f84e,61036777852ae037ac352524,2021-07-30_03h44.46.950,Simcolourproject_2stim_asymm_v5,2020.2.10,Win32,60,61025ae37ef11b136ea224fe,,,,,,,,,1950,39.20001203,-108.000008,1,0,0,response3disk,,4,1.14441E-05,4.799993634,1,0,0,rectangle,1.14441E-05,4.799993634,1,0,0,1.14441E-05,4.799993634,1,0,0,0,98,98,151,1,,,,,,,,
,,,,,,,,,,,,,FF,,,,,,,,1.6159,,,,,,,,,,,,,,,,,,,,,,60f36868575f391fc987f84e,61036777852ae037ac352524,2021-07-30_03h44.46.950,Simcolourproject_2stim_asymm_v5,2020.2.10,Win32,60,61025ae37ef11b136ea224fe,,,,,,,,,2747,116.0000132,47.19996985,1,0,0,response1disk,,6,-13.59998876,-4.000006497,1,0,0,rectangle,-13.59998876,-4.000006497,1,0,0,-13.59998876,-4.000006497,1,0,0,0,99,99,71,1,,,,,,,,
,,,,,,,,,,,,,FF,,,,,,,,5.3976,,,,,,,,,,,,,,,,,,,,,,60f36868575f391fc987f84e,61036777852ae037ac352524,2021-07-30_03h44.46.950,Simcolourproject_2stim_asymm_v5,2020.2.10,Win32,60,61025ae37ef11b136ea224fe,,,,,,,,,3846,40.80001205,-113.600057,1,0,0,response3disk,,4,-0.799988568,-4.000006497,1,0,0,rectangle,-0.799988568,-4.000006497,1,0,0,-0.799988568,-4.000006497,1,0,0,0,100,100,65,1,,,,,,,,
,,,,,,,,,,,,,FF,,,,,,,,1.7987,,,,,,,,,,,,,,,,,,,,,,60f36868575f391fc987f84e,61036777852ae037ac352524,2021-07-30_03h44.46.950,Simcolourproject_2stim_asymm_v5,2020.2.10,Win32,60,61025ae37ef11b136ea224fe,,,,,,,,,4057,96.00001287,-41.60000706,1,0,0,response3disk,,5,1.600060296,1.599993587,1,0,0,rectangle,-35.19998908,-97.60005672,1,0,0,-7.999988675,1.599993587,1,0,0,0,101,101,56,1,,response5disk_3,TRUE,3,3,"[306,71,222,33,72,102,145,138,140,272,225,286,28,245,33,306,110,309,18,285]",1.9989,rectangle
,,,,,,,,,,,,,FF,,,,,,,,2.8487,,,,,,,,,,,,,,,,,,,,,,60f36868575f391fc987f84e,61036777852ae037ac352524,2021-07-30_03h44.46.950,Simcolourproject_2stim_asymm_v5,2020.2.10,Win32,60,61025ae37ef11b136ea224fe,,,,,,,,,961,115.2000132,53.59999436,1,0,0,response1disk,,6,-10.39993988,0.799993575,1,0,0,rectangle,-10.39993988,0.799993575,1,0,0,-10.39993988,0.799993575,1,0,0,0,102,102,79,1,,,,,,,,
,,,,,,,,,,,,,FF,,,,,,,,1.7157,,,,,,,,,,,,,,,,,,,,,,60f36868575f391fc987f84e,61036777852ae037ac352524,2021-07-30_03h44.46.950,Simcolourproject_2stim_asymm_v5,2020.2.10,Win32,60,61025ae37ef11b136ea224fe,,,,,,,,,1453,-94.39994113,-40.00000703,1,0,0,response5disk,,2,-19.19998884,-4.000006497,1,0,0,rectangle,-19.19998884,-4.000006497,1,0,0,-19.19998884,-4.000006497,1,0,0,0,103,103,124,1,,,,,,,,
,,,,,,,,,,,,,FF,,,,,,,,2.4491,,,,,,,,,,,,,,,,,,,,,,60f36868575f391fc987f84e,61036777852ae037ac352524,2021-07-30_03h44.46.950,Simcolourproject_2stim_asymm_v5,2020.2.10,Win32,60,61025ae37ef11b136ea224fe,,,,,,,,,345,-43.1999892,-112.8000081,1,0,0,response5disk,,3,-7.199988663,6.399993658,1,0,0,rectangle,-7.199988663,6.399993658,1,0,0,-7.199988663,6.399993658,1,0,0,0,104,104,44,1,,,,,,,,
,,,,,,,,,,,,,FF,,,,,,,,3.5813,,,,,,,,,,,,,,,,,,,,,,60f36868575f391fc987f84e,61036777852ae037ac352524,2021-07-30_03h44.46.950,Simcolourproject_2stim_asymm_v5,2020.2.10,Win32,60,61025ae37ef11b136ea224fe,,,,,,,,,2653,48.00001216,-114.4000081,1,0,0,response3disk,,4,0.800011456,-7.200006545,1,0,0,rectangle,0.800011456,-7.200006545,1,0,0,0.800011456,-7.200006545,1,0,0,0,105,105,88,1,,,,,,,,
,,,,,,,,,,,,,FF,,,,,,,,2.7152,,,,,,,,,,,,,,,,,,,,,,60f36868575f391fc987f84e,61036777852ae037ac352524,2021-07-30_03h44.46.950,Simcolourproject_2stim_asymm_v5,2020.2.10,Win32,60,61025ae37ef11b136ea224fe,,,,,,,,,3864,48.00001216,111.1999708,1,0,0,response1disk,,7,3.200011492,-2.400006473,1,0,0,rectangle,3.200011492,-2.400006473,1,0,0,3.200011492,-2.400006473,1,0,0,0,106,106,110,1,,,,,,,,
,,,,,,,,,,,,,FF,,,,,,,,2.9654,,,,,,,,,,,,,,,,,,,,,,60f36868575f391fc987f84e,61036777852ae037ac352524,2021-07-30_03h44.46.950,Simcolourproject_2stim_asymm_v5,2020.2.10,Win32,60,61025ae37ef11b136ea224fe,,,,,,,,,2754,92.80001283,-40.80000705,1,0,0,response3disk,,5,-0.799988568,-6.4373E-06,1,0,0,rectangle,-0.799988568,-6.4373E-06,1,0,0,-0.799988568,-6.4373E-06,1,0,0,0,107,107,103,1,,,,,,,,
,,,,,,,,,,,,,FF,,,,,,,,2.5815,,,,,,,,,,,,,,,,,,,,,,60f36868575f391fc987f84e,61036777852ae037ac352524,2021-07-30_03h44.46.950,Simcolourproject_2stim_asymm_v5,2020.2.10,Win32,60,61025ae37ef11b136ea224fe,,,,,,,,,246,109.6000131,47.19996985,1,0,0,response1disk,,6,-9.599988699,-6.4373E-06,1,0,0,rectangle,-9.599988699,-6.4373E-06,1,0,0,-9.599988699,-6.4373E-06,1,0,0,0,108,108,155,1,,,,,,,,
,,,,,,,,,,,,,FF,,,,,,,,2.7987,,,,,,,,,,,,,,,,,,,,,,60f36868575f391fc987f84e,61036777852ae037ac352524,2021-07-30_03h44.46.950,Simcolourproject_2stim_asymm_v5,2020.2.10,Win32,60,61025ae37ef11b136ea224fe,,,,,,,,,3072,50.4000122,115.9999953,1,0,0,response1disk,,7,-2.399939764,-7.200006545,1,0,0,rectangle,-93.59998995,-47.20000714,1,0,0,8.800011575,4.799993634,1,0,0,0,109,109,126,1,,response5disk_3,TRUE,2,2,"[306,71,222,33,72,102,145,138,140,272,225,286,28,245,33,306,110,309,18,285]",1.8322,rectangle
,,,,,,,,,,,,,FF,,,,,,,,3.2486,,,,,,,,,,,,,,,,,,,,,,60f36868575f391fc987f84e,61036777852ae037ac352524,2021-07-30_03h44.46.950,Simcolourproject_2stim_asymm_v5,2020.2.10,Win32,60,61025ae37ef11b136ea224fe,,,,,,,,,355,-93.59998995,-39.20000702,1,0,0,response5disk,,2,-11.19998872,-2.400006473,1,0,0,rectangle,-11.19998872,-2.400006473,1,0,0,-11.19998872,-2.400006473,1,0,0,0,110,110,75,1,,,,,,,,
,,,,,,,,,,,,,FF,,,,,,,,3.0484,,,,,,,,,,,,,,,,,,,,,,60f36868575f391fc987f84e,61036777852ae037ac352524,2021-07-30_03h44.46.950,Simcolourproject_2stim_asymm_v5,2020.2.10,Win32,60,61025ae37ef11b136ea224fe,,,,,,,,,2950,42.40001208,-112.0000081,1,0,0,response3disk,,4,-8.799988687,2.399993598,1,0,0,rectangle,-8.799988687,2.399993598,1,0,0,-8.799988687,2.399993598,1,0,0,0,111,111,141,1,,,,,,,,
,,,,,,,,,,,,,FF,,,,,,,,1.8157,,,,,,,,,,,,,,,,,,,,,,60f36868575f391fc987f84e,61036777852ae037ac352524,2021-07-30_03h44.46.950,Simcolourproject_2stim_asymm_v5,2020.2.10,Win32,60,61025ae37ef11b136ea224fe,,,,,,,,,1530,-42.39994036,-104.000008,1,0,0,response5disk,,3,4.000011504,6.399993658,1,0,0,rectangle,4.000011504,6.399993658,1,0,0,4.000011504,6.399993658,1,0,0,0,112,112,70,1,,,,,,,,
,,,,,,,,,,,,,FF,,,,,,,,1.8821,,,,,,,,,,,,,,,,,,,,,,60f36868575f391fc987f84e,61036777852ae037ac352524,2021-07-30_03h44.46.950,Simcolourproject_2stim_asymm_v5,2020.2.10,Win32,60,61025ae37ef11b136ea224fe,,,,,,,,,185,-44.79998922,108.7999952,1,0,0,response7disk,,0,-6.399939823,9.599993706,1,0,0,rectangle,-6.399939823,9.599993706,1,0,0,-6.399939823,9.599993706,1,0,0,0,113,113,48,1,,,,,,,,
,,,,,,,,,,,,,FF,,,,,,,,3.3981,,,,,,,,,,,,,,,,,,,,,,60f36868575f391fc987f84e,61036777852ae037ac352524,2021-07-30_03h44.46.950,Simcolourproject_2stim_asymm_v5,2020.2.10,Win32,60,61025ae37ef11b136ea224fe,,,,,,,,,2755,40.00001204,119.9999954,1,0,0,response1disk,,7,1.600060296,3.19999361,1,0,0,rectangle,1.600060296,3.19999361,1,0,0,1.600060296,3.19999361,1,0,0,0,114,114,92,1,,,,,,,,
,,,,,,,,,,,,,FF,,,,,,,,2.3823,,,,,,,,,,,,,,,,,,,,,,60f36868575f391fc987f84e,61036777852ae037ac352524,2021-07-30_03h44.46.950,Simcolourproject_2stim_asymm_v5,2020.2.10,Win32,60,61025ae37ef11b136ea224fe,,,,,,,,,3734,109.6000131,41.59999418,1,0,0,response1disk,,6,2.40001148,1.599993587,1,0,0,rectangle,2.40001148,1.599993587,1,0,0,2.40001148,1.599993587,1,0,0,0,115,115,68,1,,,,,,,,
,,,,,,,,,,,,,FF,,,,,,,,4.3149,,,,,,,,,,,,,,,,,,,,,,60f36868575f391fc987f84e,61036777852ae037ac352524,2021-07-30_03h44.46.950,Simcolourproject_2stim_asymm_v5,2020.2.10,Win32,60,61025ae37ef11b136ea224fe,,,,,,,,,4019,44.80001211,110.3999952,1,0,0,response1disk,,7,1.14441E-05,-5.600006521,1,0,0,rectangle,1.14441E-05,-5.600006521,1,0,0,1.14441E-05,-5.600006521,1,0,0,0,116,116,98,1,,,,,,,,
,,,,,,,,,,,,,FF,,,,,,,,0.9826,,,,,,,,,,,,,,,,,,,,,,60f36868575f391fc987f84e,61036777852ae037ac352524,2021-07-30_03h44.46.950,Simcolourproject_2stim_asymm_v5,2020.2.10,Win32,60,61025ae37ef11b136ea224fe,,,,,,,,,4140,-47.99998927,104.7999951,1,0,0,response7disk,,0,-0.799988568,2.399993598,1,0,0,rectangle,-0.799988568,2.399993598,1,0,0,-0.799988568,2.399993598,1,0,0,0,117,117,99,1,,,,,,,,
,,,,,,,,,,,,,FF,,,,,,,,4.2809,,,,,,,,,,,,,,,,,,,,,,60f36868575f391fc987f84e,61036777852ae037ac352524,2021-07-30_03h44.46.950,Simcolourproject_2stim_asymm_v5,2020.2.10,Win32,60,61025ae37ef11b136ea224fe,,,,,,,,,3128,96.00001287,-32.00000691,1,0,0,response3disk,,5,11.20001161,4.799993634,1,0,0,rectangle,11.20001161,4.799993634,1,0,0,11.20001161,4.799993634,1,0,0,0,118,118,45,1,,,,,,,,
,,,,,,,,,,,,,FF,,,,,,,,1.8325,,,,,,,,,,,,,,,,,,,,,,60f36868575f391fc987f84e,61036777852ae037ac352524,2021-07-30_03h44.46.950,Simcolourproject_2stim_asymm_v5,2020.2.10,Win32,60,61025ae37ef11b136ea224fe,,,,,,,,,3400,89.60001278,-32.80000693,1,0,0,response3disk,,5,-6.399939823,3.19999361,1,0,0,rectangle,-6.399939823,3.19999361,1,0,0,-6.399939823,3.19999361,1,0,0,0,119,119,19,1,,,,,,,,
,,,,,,,,,,,,,FF,,,,,,,,3.9646,,,,,,,,,,,,,,,,,,,,,,60f36868575f391fc987f84e,61036777852ae037ac352524,2021-07-30_03h44.46.950,Simcolourproject_2stim_asymm_v5,2020.2.10,Win32,60,61025ae37ef11b136ea224fe,,,,,,,,,2883,46.40001214,113.5999953,1,0,0,response1disk,,7,1.14441E-05,-3.200006485,1,0,0,rectangle,1.14441E-05,-3.200006485,1,0,0,1.14441E-05,-3.200006485,1,0,0,0,120,120,105,1,,,,,,,,
,,,,,,,,,,,,,FF,,,,,,,,2.132,,,,,,,,,,,,,,,,,,,,,,60f36868575f391fc987f84e,61036777852ae037ac352524,2021-07-30_03h44.46.950,Simcolourproject_2stim_asymm_v5,2020.2.10,Win32,60,61025ae37ef11b136ea224fe,,,,,,,,,875,106.400013,31.19996961,1,0,0,response1disk,,6,7.200011551,3.19999361,1,0,0,rectangle,7.200011551,3.19999361,1,0,0,7.200011551,3.19999361,1,0,0,0,121,121,134,1,,,,,,,,
,,,,,,,,,,,,,FF,,,,,,,,1.6825,,,,,,,,,,,,,,,,,,,,,,60f36868575f391fc987f84e,61036777852ae037ac352524,2021-07-30_03h44.46.950,Simcolourproject_2stim_asymm_v5,2020.2.10,Win32,60,61025ae37ef11b136ea224fe,,,,,,,,,1630,113.6000131,39.19996973,1,0,0,response1disk,,6,7.200011551,2.399993598,1,0,0,rectangle,7.200011551,2.399993598,1,0,0,7.200011551,2.399993598,1,0,0,0,122,122,40,1,,,,,,,,
,,,,,,,,,,,,,FF,,,,,,,,3.315,,,,,,,,,,,,,,,,,,,,,,60f36868575f391fc987f84e,61036777852ae037ac352524,2021-07-30_03h44.46.950,Simcolourproject_2stim_asymm_v5,2020.2.10,Win32,60,61025ae37ef11b136ea224fe,,,,,,,,,1377,-44.79998922,-108.8000081,1,0,0,response5disk,,3,-6.399939823,-3.200006485,1,0,0,rectangle,-6.399939823,-3.200006485,1,0,0,-6.399939823,-3.200006485,1,0,0,0,123,123,140,1,,,,,,,,
,,,,,,,,,,,,,FF,,,,,,,,3.3984,,,,,,,,,,,,,,,,,,,,,,60f36868575f391fc987f84e,61036777852ae037ac352524,2021-07-30_03h44.46.950,Simcolourproject_2stim_asymm_v5,2020.2.10,Win32,60,61025ae37ef11b136ea224fe,,,,,,,,,1341,109.6000131,31.99999404,1,0,0,response1disk,,6,-16.79998881,-4.000006497,1,0,0,rectangle,-16.79998881,-4.000006497,1,0,0,-16.79998881,-4.000006497,1,0,0,0,124,124,2,1,,,,,,,,
,,,,,,,,,,,,,FF,,,,,,,,1.3825,,,,,,,,,,,,,,,,,,,,,,60f36868575f391fc987f84e,61036777852ae037ac352524,2021-07-30_03h44.46.950,Simcolourproject_2stim_asymm_v5,2020.2.10,Win32,60,61025ae37ef11b136ea224fe,,,,,,,,,2122,48.00001216,120.7999954,1,0,0,response1disk,,7,-2.399939764,3.999993622,1,0,0,rectangle,-2.399939764,3.999993622,1,0,0,-2.399939764,3.999993622,1,0,0,0,125,125,149,1,,,,,,,,
,,,,,,,,,,,,,FF,,,,,,,,1.8825,,,,,,,,,,,,,,,,,,,,,,60f36868575f391fc987f84e,61036777852ae037ac352524,2021-07-30_03h44.46.950,Simcolourproject_2stim_asymm_v5,2020.2.10,Win32,60,61025ae37ef11b136ea224fe,,,,,,,,,2479,48.00001216,108.7999952,1,0,0,response1disk,,7,-17.59998882,-2.400006473,1,0,0,rectangle,-17.59998882,-2.400006473,1,0,0,-17.59998882,-2.400006473,1,0,0,0,126,126,3,1,,,,,,,,
,,,,,,,,,,,,,FF,,,,,,,,4.0478,,,,,,,,,,,,,,,,,,,,,,60f36868575f391fc987f84e,61036777852ae037ac352524,2021-07-30_03h44.46.950,Simcolourproject_2stim_asymm_v5,2020.2.10,Win32,60,61025ae37ef11b136ea224fe,,,,,,,,,210,107.200013,31.19996961,1,0,0,response1disk,,6,-0.799988568,-6.4373E-06,1,0,0,rectangle,-0.799988568,-6.4373E-06,1,0,0,-0.799988568,-6.4373E-06,1,0,0,0,127,127,137,1,,,,,,,,
,,,,,,,,,,,,,FF,,,,,,,,1.6492,,,,,,,,,,,,,,,,,,,,,,60f36868575f391fc987f84e,61036777852ae037ac352524,2021-07-30_03h44.46.950,Simcolourproject_2stim_asymm_v5,2020.2.10,Win32,60,61025ae37ef11b136ea224fe,,,,,,,,,2003,112.8000131,39.99999416,1,0,0,response1disk,,6,-0.799988568,0.799993575,1,0,0,rectangle,-0.799988568,0.799993575,1,0,0,-0.799988568,0.799993575,1,0,0,0,128,128,150,1,,,,,,,,
,,,,,,,,,,,,,FF,,,,,,,,1.483,,,,,,,,,,,,,,,,,,,,,,60f36868575f391fc987f84e,61036777852ae037ac352524,2021-07-30_03h44.46.950,Simcolourproject_2stim_asymm_v5,2020.2.10,Win32,60,61025ae37ef11b136ea224fe,,,,,,,,,2069,88.00001276,-39.20000702,1,0,0,response3disk,,5,6.400011539,-6.400006533,1,0,0,rectangle,6.400011539,-6.400006533,1,0,0,6.400011539,-6.400006533,1,0,0,0,129,129,136,1,,,,,,,,
,,,,,,,,,,,,,FF,,,,,,,,1.8991,,,,,,,,,,,,,,,,,,,,,,60f36868575f391fc987f84e,61036777852ae037ac352524,2021-07-30_03h44.46.950,Simcolourproject_2stim_asymm_v5,2020.2.10,Win32,60,61025ae37ef11b136ea224fe,,,,,,,,,2631,106.400013,44.79999423,1,0,0,response1disk,,6,-2.399939764,7.999993682,1,0,0,rectangle,-2.399939764,7.999993682,1,0,0,-2.399939764,7.999993682,1,0,0,0,130,130,112,1,,,,,,,,
,,,,,,,,,,,,,FF,,,,,,,,1.2323,,,,,,,,,,,,,,,,,,,,,,60f36868575f391fc987f84e,61036777852ae037ac352524,2021-07-30_03h44.46.950,Simcolourproject_2stim_asymm_v5,2020.2.10,Win32,60,61025ae37ef11b136ea224fe,,,,,,,,,126,88.00001276,-39.20000702,1,0,0,response3disk,,5,12.00001162,-6.4373E-06,1,0,0,rectangle,12.00001162,-6.4373E-06,1,0,0,12.00001162,-6.4373E-06,1,0,0,0,131,131,53,1,,,,,,,,
,,,,,,,,,,,,,FF,,,,,,,,1.7153,,,,,,,,,,,,,,,,,,,,,,60f36868575f391fc987f84e,61036777852ae037ac352524,2021-07-30_03h44.46.950,Simcolourproject_2stim_asymm_v5,2020.2.10,Win32,60,61025ae37ef11b136ea224fe,,,,,,,,,136,110.4000131,42.39999419,1,0,0,response1disk,,6,-1.59998858,-0.800006449,1,0,0,rectangle,-1.59998858,-0.800006449,1,0,0,-1.59998858,-0.800006449,1,0,0,0,132,132,30,1,,,,,,,,
,,,,,,,,,,,,,FF,,,,,,,,1.8992,,,,,,,,,,,,,,,,,,,,,,60f36868575f391fc987f84e,61036777852ae037ac352524,2021-07-30_03h44.46.950,Simcolourproject_2stim_asymm_v5,2020.2.10,Win32,60,61025ae37ef11b136ea224fe,,,,,,,,,3497,111.2000131,47.19996985,1,0,0,response1disk,,6,-20.79998887,-2.400006473,1,0,0,rectangle,-20.79998887,-2.400006473,1,0,0,-20.79998887,-2.400006473,1,0,0,0,133,133,20,1,,,,,,,,
,,,,,,,,,,,,,FF,,,,,,,,2.0327,,,,,,,,,,,,,,,,,,,,,,60f36868575f391fc987f84e,61036777852ae037ac352524,2021-07-30_03h44.46.950,Simcolourproject_2stim_asymm_v5,2020.2.10,Win32,60,61025ae37ef11b136ea224fe,,,,,,,,,1628,94.40001285,-39.20000702,1,0,0,response3disk,,5,-8.799988687,4.799993634,1,0,0,rectangle,-8.799988687,4.799993634,1,0,0,-8.799988687,4.799993634,1,0,0,0,134,134,59,1,,,,,,,,
,,,,,,,,,,,,,FF,,,,,,,,1.1659,,,,,,,,,,,,,,,,,,,,,,60f36868575f391fc987f84e,61036777852ae037ac352524,2021-07-30_03h44.46.950,Simcolourproject_2stim_asymm_v5,2020.2.10,Win32,60,61025ae37ef11b136ea224fe,,,,,,,,,176,45.60006095,95.19997057,1,0,0,response1disk,,7,-3.199988604,-12.80000663,1,0,0,rectangle,-3.199988604,-12.80000663,1,0,0,-3.199988604,-12.80000663,1,0,0,0,135,135,58,1,,,,,,,,
,,,,,,,,,,,,,FF,,,,,,,,2.399,,,,,,,,,,,,,,,,,,,,,,60f36868575f391fc987f84e,61036777852ae037ac352524,2021-07-30_03h44.46.950,Simcolourproject_2stim_asymm_v5,2020.2.10,Win32,60,61025ae37ef11b136ea224fe,,,,,,,,,1387,112.8000131,39.99999416,1,0,0,response1disk,,6,-8.799988687,-6.400006533,1,0,0,rectangle,-8.799988687,-6.400006533,1,0,0,-8.799988687,-6.400006533,1,0,0,0,136,136,17,1,,,,,,,,
,,,,,,,,,,,,,FF,,,,,,,,1.3493,,,,,,,,,,,,,,,,,,,,,,60f36868575f391fc987f84e,61036777852ae037ac352524,2021-07-30_03h44.46.950,Simcolourproject_2stim_asymm_v5,2020.2.10,Win32,60,61025ae37ef11b136ea224fe,,,,,,,,,2465,94.40001285,-40.80000705,1,0,0,response3disk,,5,8.800011575,-2.400006473,1,0,0,rectangle,89.60001278,-28.80000687,1,0,0,2.40001148,0.799993575,1,0,0,0,137,137,77,1,,response3disk_3,TRUE,5,5,"[306,71,222,33,72,102,145,138,140,272,225,286,28,245,33,306,110,309,18,285]",1.5828,rectangle
,,,,,,,,,,,,,FF,,,,,,,,1.5158,,,,,,,,,,,,,,,,,,,,,,60f36868575f391fc987f84e,61036777852ae037ac352524,2021-07-30_03h44.46.950,Simcolourproject_2stim_asymm_v5,2020.2.10,Win32,60,61025ae37ef11b136ea224fe,,,,,,,,,2793,-103.1999901,-52.00000721,1,0,0,response5disk,,2,4.800011516,10.39999372,1,0,0,rectangle,4.800011516,10.39999372,1,0,0,4.800011516,10.39999372,1,0,0,0,138,138,23,1,,,,,,,,
,,,,,,,,,,,,,FF,,,,,,,,1.8992,,,,,,,,,,,,,,,,,,,,,,60f36868575f391fc987f84e,61036777852ae037ac352524,2021-07-30_03h44.46.950,Simcolourproject_2stim_asymm_v5,2020.2.10,Win32,60,61025ae37ef11b136ea224fe,,,,,,,,,1907,44.0000121,-111.2000081,1,0,0,response3disk,,4,-0.799988568,6.399993658,1,0,0,rectangle,-34.39994024,-108.000008,1,0,0,4.000011504,-7.200006545,1,0,0,0,139,139,139,1,,response5disk_3,TRUE,3,3,"[306,71,222,33,72,102,145,138,140,272,225,286,28,245,33,306,110,309,18,285]",1.6151,rectangle
,,,,,,,,,,,,,FF,,,,,,,,8.5299,,,,,,,,,,,,,,,,,,,,,,60f36868575f391fc987f84e,61036777852ae037ac352524,2021-07-30_03h44.46.950,Simcolourproject_2stim_asymm_v5,2020.2.10,Win32,60,61025ae37ef11b136ea224fe,,,,,,,,,1673,95.20001286,-37.600007,1,0,0,response3disk,,5,-8.799988687,3.19999361,1,0,0,rectangle,-8.799988687,3.19999361,1,0,0,-8.799988687,3.19999361,1,0,0,0,140,140,9,1,,,,,,,,
,,,,,,,,,,,,,FF,,,,,,,,1.2823,,,,,,,,,,,,,,,,,,,,,,60f36868575f391fc987f84e,61036777852ae037ac352524,2021-07-30_03h44.46.950,Simcolourproject_2stim_asymm_v5,2020.2.10,Win32,60,61025ae37ef11b136ea224fe,,,,,,,,,1442,-45.59998924,-96.00000787,1,0,0,response5disk,,3,16.80001169,15.19999379,1,0,0,rectangle,16.80001169,15.19999379,1,0,0,16.80001169,15.19999379,1,0,0,0,141,141,138,1,,,,,,,,
,,,,,,,,,,,,,FF,,,,,,,,1.5829,,,,,,,,,,,,,,,,,,,,,,60f36868575f391fc987f84e,61036777852ae037ac352524,2021-07-30_03h44.46.950,Simcolourproject_2stim_asymm_v5,2020.2.10,Win32,60,61025ae37ef11b136ea224fe,,,,,,,,,705,104.800013,42.39999419,1,0,0,response1disk,,6,4.000011504,0.799993575,1,0,0,rectangle,4.000011504,0.799993575,1,0,0,4.000011504,0.799993575,1,0,0,0,142,142,84,1,,,,,,,,
,,,,,,,,,,,,,FF,,,,,,,,1.6824,,,,,,,,,,,,,,,,,,,,,,60f36868575f391fc987f84e,61036777852ae037ac352524,2021-07-30_03h44.46.950,Simcolourproject_2stim_asymm_v5,2020.2.10,Win32,60,61025ae37ef11b136ea224fe,,,,,,,,,746,96.00001287,43.99999422,1,0,0,response1disk,,6,3.200011492,1.599993587,1,0,0,rectangle,3.200011492,1.599993587,1,0,0,3.200011492,1.599993587,1,0,0,0,143,143,21,1,,,,,,,,
,,,,,,,,,,,,,FF,,,,,,,,2.9319,,,,,,,,,,,,,,,,,,,,,,60f36868575f391fc987f84e,61036777852ae037ac352524,2021-07-30_03h44.46.950,Simcolourproject_2stim_asymm_v5,2020.2.10,Win32,60,61025ae37ef11b136ea224fe,,,,,,,,,3303,48.00001216,-102.400008,1,0,0,response3disk,,4,13.60006047,7.19999367,1,0,0,rectangle,87.20001274,-28.00000685,1,0,0,-1.59998858,-0.800006449,1,0,0,0,144,144,34,1,,response3disk_3,TRUE,5,5,"[306,71,222,33,72,102,145,138,140,272,225,286,28,245,33,306,110,309,18,285]",1.3322,rectangle
,,,,,,,,,,,,,FF,,,,,,,,1.8321,,,,,,,,,,,,,,,,,,,,,,60f36868575f391fc987f84e,61036777852ae037ac352524,2021-07-30_03h44.46.950,Simcolourproject_2stim_asymm_v5,2020.2.10,Win32,60,61025ae37ef11b136ea224fe,,,,,,,,,1355,115.2000132,48.79999429,1,0,0,response1disk,,6,-16.79998881,-4.800006509,1,0,0,rectangle,-16.79998881,-4.800006509,1,0,0,-16.79998881,-4.800006509,1,0,0,0,145,145,157,1,,,,,,,,
,,,,,,,,,,,,,FF,,,,,,,,1.3157,,,,,,,,,,,,,,,,,,,,,,60f36868575f391fc987f84e,61036777852ae037ac352524,2021-07-30_03h44.46.950,Simcolourproject_2stim_asymm_v5,2020.2.10,Win32,60,61025ae37ef11b136ea224fe,,,,,,,,,3289,46.40001214,112.7999952,1,0,0,response1disk,,7,-7.999988675,6.399993658,1,0,0,rectangle,-7.999988675,6.399993658,1,0,0,-7.999988675,6.399993658,1,0,0,0,146,146,114,1,,,,,,,,
,,,,,,,,,,,,,FF,,,,,,,,3.7654,,,,,,,,,,,,,,,,,,,,,,60f36868575f391fc987f84e,61036777852ae037ac352524,2021-07-30_03h44.46.950,Simcolourproject_2stim_asymm_v5,2020.2.10,Win32,60,61025ae37ef11b136ea224fe,,,,,,,,,4268,-47.99998927,-98.4000079,1,0,0,response5disk,,3,4.000011504,-6.4373E-06,1,0,0,rectangle,4.000011504,-6.4373E-06,1,0,0,4.000011504,-6.4373E-06,1,0,0,0,147,147,86,1,,,,,,,,
,,,,,,,,,,,,,FF,,,,,,,,2.8488,,,,,,,,,,,,,,,,,,,,,,60f36868575f391fc987f84e,61036777852ae037ac352524,2021-07-30_03h44.46.950,Simcolourproject_2stim_asymm_v5,2020.2.10,Win32,60,61025ae37ef11b136ea224fe,,,,,,,,,1164,52.00001222,103.1999707,1,0,0,response1disk,,7,-0.799988568,6.399993658,1,0,0,rectangle,-0.799988568,6.399993658,1,0,0,-0.799988568,6.399993658,1,0,0,0,148,148,120,1,,,,,,,,
,,,,,,,,,,,,,FF,,,,,,,,2.0324,,,,,,,,,,,,,,,,,,,,,,60f36868575f391fc987f84e,61036777852ae037ac352524,2021-07-30_03h44.46.950,Simcolourproject_2stim_asymm_v5,2020.2.10,Win32,60,61025ae37ef11b136ea224fe,,,,,,,,,3574,108.8000131,43.19996979,1,0,0,response1disk,,6,-6.399939823,-0.800006449,1,0,0,rectangle,-6.399939823,-0.800006449,1,0,0,-6.399939823,-0.800006449,1,0,0,0,149,149,85,1,,,,,,,,
,,,,,,,,,,,,,FF,,,,,,,,1.999,,,,,,,,,,,,,,,,,,,,,,60f36868575f391fc987f84e,61036777852ae037ac352524,2021-07-30_03h44.46.950,Simcolourproject_2stim_asymm_v5,2020.2.10,Win32,60,61025ae37ef11b136ea224fe,,,,,,,,,4010,31.20001191,-100.0000079,1,0,0,response3disk,,4,-2.399939764,2.399993598,1,0,0,rectangle,-2.399939764,2.399993598,1,0,0,-2.399939764,2.399993598,1,0,0,0,150,150,129,1,,,,,,,,
,,,,,,,,,,,,,FF,,,,,,,,1.3158,,,,,,,,,,,,,,,,,,,,,,60f36868575f391fc987f84e,61036777852ae037ac352524,2021-07-30_03h44.46.950,Simcolourproject_2stim_asymm_v5,2020.2.10,Win32,60,61025ae37ef11b136ea224fe,,,,,,,,,3909,-61.59998947,-108.000008,1,0,0,response5disk,,3,3.200011492,0.799993575,1,0,0,rectangle,3.200011492,0.799993575,1,0,0,3.200011492,0.799993575,1,0,0,0,151,151,133,1,,,,,,,,
,,,,,,,,,,,,,FF,,,,,,,,1.0496,,,,,,,,,,,,,,,,,,,,,,60f36868575f391fc987f84e,61036777852ae037ac352524,2021-07-30_03h44.46.950,Simcolourproject_2stim_asymm_v5,2020.2.10,Win32,60,61025ae37ef11b136ea224fe,,,,,,,,,490,122.4000133,55.9999944,1,0,0,response1disk,,6,2.40001148,3.999993622,1,0,0,rectangle,2.40001148,3.999993622,1,0,0,2.40001148,3.999993622,1,0,0,0,152,152,100,1,,,,,,,,
,,,,,,,,,,,,,FF,,,,,,,,1.3665,,,,,,,,,,,,,,,,,,,,,,60f36868575f391fc987f84e,61036777852ae037ac352524,2021-07-30_03h44.46.950,Simcolourproject_2stim_asymm_v5,2020.2.10,Win32,60,61025ae37ef11b136ea224fe,,,,,,,,,3853,97.6000129,-36.00000697,1,0,0,response3disk,,5,-1.59998858,-0.800006449,1,0,0,rectangle,-1.59998858,-0.800006449,1,0,0,-1.59998858,-0.800006449,1,0,0,0,153,153,108,1,,,,,,,,
,,,,,,,,,,,,,FF,,,,,,,,0.9329,,,,,,,,,,,,,,,,,,,,,,60f36868575f391fc987f84e,61036777852ae037ac352524,2021-07-30_03h44.46.950,Simcolourproject_2stim_asymm_v5,2020.2.10,Win32,60,61025ae37ef11b136ea224fe,,,,,,,,,1242,95.20001286,-48.80000716,1,0,0,response3disk,,5,1.600060296,3.19999361,1,0,0,rectangle,1.600060296,3.19999361,1,0,0,1.600060296,3.19999361,1,0,0,0,154,154,67,1,,,,,,,,
,,,,,,,,,,,,,FF,,,,,,,,1.0497,,,,,,,,,,,,,,,,,,,,,,60f36868575f391fc987f84e,61036777852ae037ac352524,2021-07-30_03h44.46.950,Simcolourproject_2stim_asymm_v5,2020.2.10,Win32,60,61025ae37ef11b136ea224fe,,,,,,,,,3714,-58.3999406,-93.60005666,1,0,0,response5disk,,3,-6.399939823,7.999993682,1,0,0,rectangle,-6.399939823,7.999993682,1,0,0,-6.399939823,7.999993682,1,0,0,0,155,155,55,1,,,,,,,,
,,,,,,,,,,,,,FF,,,,,,,,1.3995,,,,,,,,,,,,,,,,,,,,,,60f36868575f391fc987f84e,61036777852ae037ac352524,2021-07-30_03h44.46.950,Simcolourproject_2stim_asymm_v5,2020.2.10,Win32,60,61025ae37ef11b136ea224fe,,,,,,,,,4083,95.20001286,36.79999411,1,0,0,response1disk,,6,-4.799988627,-1.600006461,1,0,0,rectangle,-4.799988627,-1.600006461,1,0,0,-4.799988627,-1.600006461,1,0,0,0,156,156,102,1,,,,,,,,
,,,,,,,,,,,,,FF,,,,,,,,1.6654,,,,,,,,,,,,,,,,,,,,,,60f36868575f391fc987f84e,61036777852ae037ac352524,2021-07-30_03h44.46.950,Simcolourproject_2stim_asymm_v5,2020.2.10,Win32,60,61025ae37ef11b136ea224fe,,,,,,,,,2815,88.80001277,-47.20000714,1,0,0,response3disk,,5,-2.399939764,3.19999361,1,0,0,rectangle,-2.399939764,3.19999361,1,0,0,-2.399939764,3.19999361,1,0,0,0,157,157,28,1,,,,,,,,
,,,,,,,,,,,,,FF,,,,,,,,1.2167,,,,,,,,,,,,,,,,,,,,,,60f36868575f391fc987f84e,61036777852ae037ac352524,2021-07-30_03h44.46.950,Simcolourproject_2stim_asymm_v5,2020.2.10,Win32,60,61025ae37ef11b136ea224fe,,,,,,,,,1726,64.80001241,97.59999502,1,0,0,response1disk,,7,-7.999988675,-4.800006509,1,0,0,rectangle,-7.999988675,-4.800006509,1,0,0,-7.999988675,-4.800006509,1,0,0,0,158,158,4,1,,,,,,,,
,,,,,,,,,,,,,FF,,,,,,,,0.9995,,,,,,,,,,,,,,,,,,,,,,60f36868575f391fc987f84e,61036777852ae037ac352524,2021-07-30_03h44.46.950,Simcolourproject_2stim_asymm_v5,2020.2.10,Win32,60,61025ae37ef11b136ea224fe,,,,,,,,,2250,99.20001292,35.9999941,1,0,0,response1disk,,6,8.000011563,1.599993587,1,0,0,rectangle,8.000011563,1.599993587,1,0,0,8.000011563,1.599993587,1,0,0,0,159,159,66,1,,,,,,,,
,,,,,,,,,,,,,FF,,,,,,,,0.9831,,,,,,,,,,,,,,,,,,,,,,60f36868575f391fc987f84e,61036777852ae037ac352524,2021-07-30_03h44.46.950,Simcolourproject_2stim_asymm_v5,2020.2.10,Win32,60,61025ae37ef11b136ea224fe,,,,,,,,,630,-47.19998926,107.1999707,1,0,0,response7disk,,0,-3.999988616,7.19999367,1,0,0,rectangle,-3.999988616,7.19999367,1,0,0,-3.999988616,7.19999367,1,0,0,1,0,160,113,1,,,,,,,,
,,,,,,,,,,,,,FF,,,,,,,,2.2485,,,,,,,,,,,,,,,,,,,,,,60f36868575f391fc987f84e,61036777852ae037ac352524,2021-07-30_03h44.46.950,Simcolourproject_2stim_asymm_v5,2020.2.10,Win32,60,61025ae37ef11b136ea224fe,,,,,,,,,2532,51.20001221,91.99999493,1,0,0,response1disk,,7,-3.999988616,3.19999361,1,0,0,rectangle,-3.999988616,3.19999361,1,0,0,-3.999988616,3.19999361,1,0,0,1,1,161,123,1,,,,,,,,
,,,,,,,,,,,,,FF,,,,,,,,1.6987,,,,,,,,,,,,,,,,,,,,,,60f36868575f391fc987f84e,61036777852ae037ac352524,2021-07-30_03h44.46.950,Simcolourproject_2stim_asymm_v5,2020.2.10,Win32,60,61025ae37ef11b136ea224fe,,,,,,,,,4228,112.8000131,43.19996979,1,0,0,response1disk,,6,-9.599988699,3.999993622,1,0,0,rectangle,-9.599988699,3.999993622,1,0,0,-9.599988699,3.999993622,1,0,0,1,2,162,34,1,,,,,,,,
,,,,,,,,,,,,,FF,,,,,,,,1.3321,,,,,,,,,,,,,,,,,,,,,,60f36868575f391fc987f84e,61036777852ae037ac352524,2021-07-30_03h44.46.950,Simcolourproject_2stim_asymm_v5,2020.2.10,Win32,60,61025ae37ef11b136ea224fe,,,,,,,,,1822,-115.1999903,52.79999435,1,0,0,response7disk,,1,-4.799988627,-6.4373E-06,1,0,0,rectangle,-4.799988627,-6.4373E-06,1,0,0,-4.799988627,-6.4373E-06,1,0,0,1,3,163,12,1,,,,,,,,
,,,,,,,,,,,,,FF,,,,,,,,3.0485,,,,,,,,,,,,,,,,,,,,,,60f36868575f391fc987f84e,61036777852ae037ac352524,2021-07-30_03h44.46.950,Simcolourproject_2stim_asymm_v5,2020.2.10,Win32,60,61025ae37ef11b136ea224fe,,,,,,,,,2308,113.6000131,41.59999418,1,0,0,response1disk,,6,7.200011551,-0.800006449,1,0,0,rectangle,7.200011551,-0.800006449,1,0,0,7.200011551,-0.800006449,1,0,0,1,4,164,90,1,,,,,,,,
,,,,,,,,,,,,,FF,,,,,,,,1.1494,,,,,,,,,,,,,,,,,,,,,,60f36868575f391fc987f84e,61036777852ae037ac352524,2021-07-30_03h44.46.950,Simcolourproject_2stim_asymm_v5,2020.2.10,Win32,60,61025ae37ef11b136ea224fe,,,,,,,,,3538,35.20001197,102.3999951,1,0,0,response1disk,,7,-4.799988627,-5.600006521,1,0,0,rectangle,-4.799988627,-5.600006521,1,0,0,-4.799988627,-5.600006521,1,0,0,1,5,165,157,1,,,,,,,,
,,,,,,,,,,,,,FF,,,,,,,,2.2992,,,,,,,,,,,,,,,,,,,,,,60f36868575f391fc987f84e,61036777852ae037ac352524,2021-07-30_03h44.46.950,Simcolourproject_2stim_asymm_v5,2020.2.10,Win32,60,61025ae37ef11b136ea224fe,,,,,,,,,1434,102.400013,32.79999405,1,0,0,response1disk,,6,-18.39994,-2.400006473,1,0,0,rectangle,-18.39994,-2.400006473,1,0,0,-18.39994,-2.400006473,1,0,0,1,6,166,117,1,,,,,,,,
,,,,,,,,,,,,,FF,,,,,,,,1.0996,,,,,,,,,,,,,,,,,,,,,,60f36868575f391fc987f84e,61036777852ae037ac352524,2021-07-30_03h44.46.950,Simcolourproject_2stim_asymm_v5,2020.2.10,Win32,60,61025ae37ef11b136ea224fe,,,,,,,,,1111,37.60006083,106.3999951,1,0,0,response1disk,,7,15.20001167,-0.800006449,1,0,0,rectangle,15.20001167,-0.800006449,1,0,0,15.20001167,-0.800006449,1,0,0,1,7,167,28,1,,,,,,,,
,,,,,,,,,,,,,FF,,,,,,,,1.2657,,,,,,,,,,,,,,,,,,,,,,60f36868575f391fc987f84e,61036777852ae037ac352524,2021-07-30_03h44.46.950,Simcolourproject_2stim_asymm_v5,2020.2.10,Win32,60,61025ae37ef11b136ea224fe,,,,,,,,,1261,89.60001278,-41.60000706,1,0,0,response3disk,,5,1.600060296,-5.600006521,1,0,0,rectangle,1.600060296,-5.600006521,1,0,0,1.600060296,-5.600006521,1,0,0,1,8,168,58,1,,,,,,,,
,,,,,,,,,,,,,FF,,,,,,,,1.1498,,,,,,,,,,,,,,,,,,,,,,60f36868575f391fc987f84e,61036777852ae037ac352524,2021-07-30_03h44.46.950,Simcolourproject_2stim_asymm_v5,2020.2.10,Win32,60,61025ae37ef11b136ea224fe,,,,,,,,,884,42.40001208,98.39999503,1,0,0,response1disk,,7,1.14441E-05,-4.800006509,1,0,0,rectangle,1.14441E-05,-4.800006509,1,0,0,1.14441E-05,-4.800006509,1,0,0,1,9,169,129,1,,,,,,,,
,,,,,,,,,,,,,FF,,,,,,,,1.4992,,,,,,,,,,,,,,,,,,,,,,60f36868575f391fc987f84e,61036777852ae037ac352524,2021-07-30_03h44.46.950,Simcolourproject_2stim_asymm_v5,2020.2.10,Win32,60,61025ae37ef11b136ea224fe,,,,,,,,,785,93.60001284,-36.00000697,1,0,0,response3disk,,5,-2.399939764,9.599993706,1,0,0,rectangle,-2.399939764,9.599993706,1,0,0,-2.399939764,9.599993706,1,0,0,1,10,170,62,1,,,,,,,,
,,,,,,,,,,,,,FF,,,,,,,,1.1329,,,,,,,,,,,,,,,,,,,,,,60f36868575f391fc987f84e,61036777852ae037ac352524,2021-07-30_03h44.46.950,Simcolourproject_2stim_asymm_v5,2020.2.10,Win32,60,61025ae37ef11b136ea224fe,,,,,,,,,2063,96.00001287,51.99999434,1,0,0,response1disk,,6,-36.7999891,-13.60000664,1,0,0,rectangle,-36.7999891,-13.60000664,1,0,0,-36.7999891,-13.60000664,1,0,0,1,11,171,2,1,,,,,,,,
,,,,,,,,,,,,,FF,,,,,,,,1.9328,,,,,,,,,,,,,,,,,,,,,,60f36868575f391fc987f84e,61036777852ae037ac352524,2021-07-30_03h44.46.950,Simcolourproject_2stim_asymm_v5,2020.2.10,Win32,60,61025ae37ef11b136ea224fe,,,,,,,,,4238,-101.5999901,-30.40000689,1,0,0,response5disk,,2,-15.99998879,-1.600006461,1,0,0,rectangle,-15.99998879,-1.600006461,1,0,0,-15.99998879,-1.600006461,1,0,0,1,12,172,87,1,,,,,,,,
,,,,,,,,,,,,,FF,,,,,,,,1.7323,,,,,,,,,,,,,,,,,,,,,,60f36868575f391fc987f84e,61036777852ae037ac352524,2021-07-30_03h44.46.950,Simcolourproject_2stim_asymm_v5,2020.2.10,Win32,60,61025ae37ef11b136ea224fe,,,,,,,,,1518,88.00001276,-36.80000699,1,0,0,response3disk,,5,1.14441E-05,-0.800006449,1,0,0,rectangle,1.14441E-05,-0.800006449,1,0,0,1.14441E-05,-0.800006449,1,0,0,1,13,173,95,1,,,,,,,,
,,,,,,,,,,,,,FF,,,,,,,,1.882,,,,,,,,,,,,,,,,,,,,,,60f36868575f391fc987f84e,61036777852ae037ac352524,2021-07-30_03h44.46.950,Simcolourproject_2stim_asymm_v5,2020.2.10,Win32,60,61025ae37ef11b136ea224fe,,,,,,,,,814,24.0000118,-102.400008,1,0,0,response3disk,,4,-15.99998879,-7.200006545,1,0,0,rectangle,-15.99998879,-7.200006545,1,0,0,-15.99998879,-7.200006545,1,0,0,1,14,174,158,1,,,,,,,,
,,,,,,,,,,,,,FF,,,,,,,,2.5153,,,,,,,,,,,,,,,,,,,,,,60f36868575f391fc987f84e,61036777852ae037ac352524,2021-07-30_03h44.46.950,Simcolourproject_2stim_asymm_v5,2020.2.10,Win32,60,61025ae37ef11b136ea224fe,,,,,,,,,4253,-55.19998938,-97.60005672,1,0,0,response5disk,,3,-0.799988568,6.399993658,1,0,0,rectangle,-0.799988568,6.399993658,1,0,0,-0.799988568,6.399993658,1,0,0,1,15,175,130,1,,,,,,,,
,,,,,,,,,,,,,FF,,,,,,,,2.066,,,,,,,,,,,,,,,,,,,,,,60f36868575f391fc987f84e,61036777852ae037ac352524,2021-07-30_03h44.46.950,Simcolourproject_2stim_asymm_v5,2020.2.10,Win32,60,61025ae37ef11b136ea224fe,,,,,,,,,2029,109.6000131,46.39999425,1,0,0,response1disk,,6,6.400011539,3.999993622,1,0,0,rectangle,6.400011539,3.999993622,1,0,0,6.400011539,3.999993622,1,0,0,1,16,176,44,1,,,,,,,,
,,,,,,,,,,,,,FF,,,,,,,,2.1992,,,,,,,,,,,,,,,,,,,,,,60f36868575f391fc987f84e,61036777852ae037ac352524,2021-07-30_03h44.46.950,Simcolourproject_2stim_asymm_v5,2020.2.10,Win32,60,61025ae37ef11b136ea224fe,,,,,,,,,317,89.60001278,-36.00000697,1,0,0,response3disk,,5,-30.39994018,11.19999373,1,0,0,rectangle,-30.39994018,11.19999373,1,0,0,-30.39994018,11.19999373,1,0,0,1,17,177,11,1,,,,,,,,
,,,,,,,,,,,,,FF,,,,,,,,1.45,,,,,,,,,,,,,,,,,,,,,,60f36868575f391fc987f84e,61036777852ae037ac352524,2021-07-30_03h44.46.950,Simcolourproject_2stim_asymm_v5,2020.2.10,Win32,60,61025ae37ef11b136ea224fe,,,,,,,,,772,45.60006095,96.79999501,1,0,0,response1disk,,7,4.800011516,-8.800006568,1,0,0,rectangle,4.800011516,-8.800006568,1,0,0,4.800011516,-8.800006568,1,0,0,1,18,178,94,1,,,,,,,,
,,,,,,,,,,,,,FF,,,,,,,,1.6822,,,,,,,,,,,,,,,,,,,,,,60f36868575f391fc987f84e,61036777852ae037ac352524,2021-07-30_03h44.46.950,Simcolourproject_2stim_asymm_v5,2020.2.10,Win32,60,61025ae37ef11b136ea224fe,,,,,,,,,1792,95.20001286,-36.80000699,1,0,0,response3disk,,5,5.600060356,4.799993634,1,0,0,rectangle,5.600060356,4.799993634,1,0,0,5.600060356,4.799993634,1,0,0,1,19,179,33,1,,,,,,,,
,,,,,,,,,,,,,FF,,,,,,,,0.9495,,,,,,,,,,,,,,,,,,,,,,60f36868575f391fc987f84e,61036777852ae037ac352524,2021-07-30_03h44.46.950,Simcolourproject_2stim_asymm_v5,2020.2.10,Win32,60,61025ae37ef11b136ea224fe,,,,,,,,,92,76.00001258,131.9999955,1,0,0,response1disk,,7,1.600060296,-2.400006473,1,0,0,rectangle,1.600060296,-2.400006473,1,0,0,1.600060296,-2.400006473,1,0,0,1,20,180,41,1,,,,,,,,
,,,,,,,,,,,,,FF,,,,,,,,1.0992,,,,,,,,,,,,,,,,,,,,,,60f36868575f391fc987f84e,61036777852ae037ac352524,2021-07-30_03h44.46.950,Simcolourproject_2stim_asymm_v5,2020.2.10,Win32,60,61025ae37ef11b136ea224fe,,,,,,,,,1478,94.40001285,47.99999428,1,0,0,response1disk,,6,5.600060356,7.999993682,1,0,0,rectangle,5.600060356,7.999993682,1,0,0,5.600060356,7.999993682,1,0,0,1,21,181,154,1,,,,,,,,
,,,,,,,,,,,,,FF,,,,,,,,1.5327,,,,,,,,,,,,,,,,,,,,,,60f36868575f391fc987f84e,61036777852ae037ac352524,2021-07-30_03h44.46.950,Simcolourproject_2stim_asymm_v5,2020.2.10,Win32,60,61025ae37ef11b136ea224fe,,,,,,,,,2562,60.80001235,-94.40000784,1,0,0,response3disk,,4,5.600060356,0.799993575,1,0,0,rectangle,5.600060356,0.799993575,1,0,0,5.600060356,0.799993575,1,0,0,1,22,182,127,1,,,,,,,,
,,,,,,,,,,,,,FF,,,,,,,,1.7498,,,,,,,,,,,,,,,,,,,,,,60f36868575f391fc987f84e,61036777852ae037ac352524,2021-07-30_03h44.46.950,Simcolourproject_2stim_asymm_v5,2020.2.10,Win32,60,61025ae37ef11b136ea224fe,,,,,,,,,1993,99.20001292,-39.20000702,1,0,0,response3disk,,5,16.80001169,-1.600006461,1,0,0,rectangle,16.80001169,-1.600006461,1,0,0,16.80001169,-1.600006461,1,0,0,1,23,183,31,1,,,,,,,,
,,,,,,,,,,,,,FF,,,,,,,,4.0312,,,,,,,,,,,,,,,,,,,,,,60f36868575f391fc987f84e,61036777852ae037ac352524,2021-07-30_03h44.46.950,Simcolourproject_2stim_asymm_v5,2020.2.10,Win32,60,61025ae37ef11b136ea224fe,,,,,,,,,2716,105.600013,78.39999473,1,0,0,response1disk,,6,21.60006059,7.19999367,1,0,0,rectangle,21.60006059,7.19999367,1,0,0,21.60006059,7.19999367,1,0,0,1,24,184,49,1,,,,,,,,
,,,,,,,,,,,,,FF,,,,,,,,2.2821,,,,,,,,,,,,,,,,,,,,,,60f36868575f391fc987f84e,61036777852ae037ac352524,2021-07-30_03h44.46.950,Simcolourproject_2stim_asymm_v5,2020.2.10,Win32,60,61025ae37ef11b136ea224fe,,,,,,,,,1562,110.4000131,39.99999416,1,0,0,response1disk,,6,1.600060296,-3.200006485,1,0,0,rectangle,1.600060296,-3.200006485,1,0,0,1.600060296,-3.200006485,1,0,0,1,25,185,50,1,,,,,,,,
,,,,,,,,,,,,,FF,,,,,,,,1.4829,,,,,,,,,,,,,,,,,,,,,,60f36868575f391fc987f84e,61036777852ae037ac352524,2021-07-30_03h44.46.950,Simcolourproject_2stim_asymm_v5,2020.2.10,Win32,60,61025ae37ef11b136ea224fe,,,,,,,,,674,102.400013,-40.80000705,1,0,0,response3disk,,5,-4.799988627,-2.400006473,1,0,0,rectangle,-4.799988627,-2.400006473,1,0,0,-4.799988627,-2.400006473,1,0,0,1,26,186,114,1,,,,,,,,
,,,,,,,,,,,,,FF,,,,,,,,1.5157,,,,,,,,,,,,,,,,,,,,,,60f36868575f391fc987f84e,61036777852ae037ac352524,2021-07-30_03h44.46.950,Simcolourproject_2stim_asymm_v5,2020.2.10,Win32,60,61025ae37ef11b136ea224fe,,,,,,,,,3616,55.20001227,-101.6000568,1,0,0,response3disk,,4,-12.79998875,-4.000006497,1,0,0,rectangle,-12.79998875,-4.000006497,1,0,0,-12.79998875,-4.000006497,1,0,0,1,27,187,68,1,,,,,,,,
,,,,,,,,,,,,,FF,,,,,,,,1.1994,,,,,,,,,,,,,,,,,,,,,,60f36868575f391fc987f84e,61036777852ae037ac352524,2021-07-30_03h44.46.950,Simcolourproject_2stim_asymm_v5,2020.2.10,Win32,60,61025ae37ef11b136ea224fe,,,,,,,,,1789,101.600013,46.39999425,1,0,0,response1disk,,6,1.14441E-05,-0.800006449,1,0,0,rectangle,1.14441E-05,-0.800006449,1,0,0,1.14441E-05,-0.800006449,1,0,0,1,28,188,81,1,,,,,,,,
,,,,,,,,,,,,,FF,,,,,,,,1.0654,,,,,,,,,,,,,,,,,,,,,,60f36868575f391fc987f84e,61036777852ae037ac352524,2021-07-30_03h44.46.950,Simcolourproject_2stim_asymm_v5,2020.2.10,Win32,60,61025ae37ef11b136ea224fe,,,,,,,,,3733,90.40001279,-40.80000705,1,0,0,response3disk,,5,-11.19998872,7.19999367,1,0,0,rectangle,-11.19998872,7.19999367,1,0,0,-11.19998872,7.19999367,1,0,0,1,29,189,131,1,,,,,,,,
,,,,,,,,,,,,,FF,,,,,,,,2.4155,,,,,,,,,,,,,,,,,,,,,,60f36868575f391fc987f84e,61036777852ae037ac352524,2021-07-30_03h44.46.950,Simcolourproject_2stim_asymm_v5,2020.2.10,Win32,60,61025ae37ef11b136ea224fe,,,,,,,,,3239,-47.19998926,-116.8000082,1,0,0,response5disk,,3,3.200011492,-12.80000663,1,0,0,rectangle,3.200011492,-12.80000663,1,0,0,3.200011492,-12.80000663,1,0,0,1,30,190,22,1,,,,,,,,
,,,,,,,,,,,,,FF,,,,,,,,2.0822,,,,,,,,,,,,,,,,,,,,,,60f36868575f391fc987f84e,61036777852ae037ac352524,2021-07-30_03h44.46.950,Simcolourproject_2stim_asymm_v5,2020.2.10,Win32,60,61025ae37ef11b136ea224fe,,,,,,,,,298,109.6000131,45.59999424,1,0,0,response1disk,,6,-20.79998887,-4.000006497,1,0,0,rectangle,-20.79998887,-4.000006497,1,0,0,-20.79998887,-4.000006497,1,0,0,1,31,191,93,1,,,,,,,,
,,,,,,,,,,,,,FF,,,,,,,,0.8331,,,,,,,,,,,,,,,,,,,,,,60f36868575f391fc987f84e,61036777852ae037ac352524,2021-07-30_03h44.46.950,Simcolourproject_2stim_asymm_v5,2020.2.10,Win32,60,61025ae37ef11b136ea224fe,,,,,,,,,1097,48.00001216,113.5999953,1,0,0,response1disk,,7,-7.199988663,-4.800006509,1,0,0,rectangle,-7.199988663,-4.800006509,1,0,0,-7.199988663,-4.800006509,1,0,0,1,32,192,108,1,,,,,,,,
,,,,,,,,,,,,,FF,,,,,,,,3.5644,,,,,,,,,,,,,,,,,,,,,,60f36868575f391fc987f84e,61036777852ae037ac352524,2021-07-30_03h44.46.950,Simcolourproject_2stim_asymm_v5,2020.2.10,Win32,60,61025ae37ef11b136ea224fe,,,,,,,,,2963,107.200013,36.79999411,1,0,0,response1disk,,6,1.14441E-05,2.399993598,1,0,0,rectangle,1.14441E-05,2.399993598,1,0,0,1.14441E-05,2.399993598,1,0,0,1,33,193,78,1,,,,,,,,
,,,,,,,,,,,,,FF,,,,,,,,1.549,,,,,,,,,,,,,,,,,,,,,,60f36868575f391fc987f84e,61036777852ae037ac352524,2021-07-30_03h44.46.950,Simcolourproject_2stim_asymm_v5,2020.2.10,Win32,60,61025ae37ef11b136ea224fe,,,,,,,,,2375,52.80001223,-101.6000568,1,0,0,response3disk,,4,-7.199988663,-7.200006545,1,0,0,rectangle,-7.199988663,-7.200006545,1,0,0,-7.199988663,-7.200006545,1,0,0,1,34,194,110,1,,,,,,,,
,,,,,,,,,,,,,FF,,,,,,,,1.483,,,,,,,,,,,,,,,,,,,,,,60f36868575f391fc987f84e,61036777852ae037ac352524,2021-07-30_03h44.46.950,Simcolourproject_2stim_asymm_v5,2020.2.10,Win32,60,61025ae37ef11b136ea224fe,,,,,,,,,784,104.800013,45.59999424,1,0,0,response1disk,,6,10.4000116,-2.400006473,1,0,0,rectangle,10.4000116,-2.400006473,1,0,0,10.4000116,-2.400006473,1,0,0,1,35,195,137,1,,,,,,,,
,,,,,,,,,,,,,FF,,,,,,,,1.1664,,,,,,,,,,,,,,,,,,,,,,60f36868575f391fc987f84e,61036777852ae037ac352524,2021-07-30_03h44.46.950,Simcolourproject_2stim_asymm_v5,2020.2.10,Win32,60,61025ae37ef11b136ea224fe,,,,,,,,,1595,44.80001211,124.7999954,1,0,0,response1disk,,7,-3.199988604,-14.40000665,1,0,0,rectangle,-3.199988604,-14.40000665,1,0,0,-3.199988604,-14.40000665,1,0,0,1,36,196,57,1,,,,,,,,
,,,,,,,,,,,,,FF,,,,,,,,3.115,,,,,,,,,,,,,,,,,,,,,,60f36868575f391fc987f84e,61036777852ae037ac352524,2021-07-30_03h44.46.950,Simcolourproject_2stim_asymm_v5,2020.2.10,Win32,60,61025ae37ef11b136ea224fe,,,,,,,,,3362,89.60001278,66.39999455,1,0,0,response1disk,,6,-4.799988627,1.599993587,1,0,0,rectangle,-4.799988627,1.599993587,1,0,0,-4.799988627,1.599993587,1,0,0,1,37,197,56,1,,,,,,,,
,,,,,,,,,,,,,FF,,,,,,,,1.6823,,,,,,,,,,,,,,,,,,,,,,60f36868575f391fc987f84e,61036777852ae037ac352524,2021-07-30_03h44.46.950,Simcolourproject_2stim_asymm_v5,2020.2.10,Win32,60,61025ae37ef11b136ea224fe,,,,,,,,,928,44.80001211,110.3999952,1,0,0,response1disk,,7,11.20001161,7.19999367,1,0,0,rectangle,11.20001161,7.19999367,1,0,0,11.20001161,7.19999367,1,0,0,1,38,198,48,1,,,,,,,,
,,,,,,,,,,,,,FF,,,,,,,,1.0993,,,,,,,,,,,,,,,,,,,,,,60f36868575f391fc987f84e,61036777852ae037ac352524,2021-07-30_03h44.46.950,Simcolourproject_2stim_asymm_v5,2020.2.10,Win32,60,61025ae37ef11b136ea224fe,,,,,,,,,1425,40.80001205,101.5999951,1,0,0,response1disk,,7,7.200011551,-2.400006473,1,0,0,rectangle,7.200011551,-2.400006473,1,0,0,7.200011551,-2.400006473,1,0,0,1,39,199,144,1,,,,,,,,
,,,,,,,,,,,,,FF,,,,,,,,1.1164,,,,,,,,,,,,,,,,,,,,,,60f36868575f391fc987f84e,61036777852ae037ac352524,2021-07-30_03h44.46.950,Simcolourproject_2stim_asymm_v5,2020.2.10,Win32,60,61025ae37ef11b136ea224fe,,,,,,,,,3285,-48.79998928,-89.6000566,1,0,0,response5disk,,3,7.200011551,12.79999375,1,0,0,rectangle,7.200011551,12.79999375,1,0,0,7.200011551,12.79999375,1,0,0,1,40,200,88,1,,,,,,,,
,,,,,,,,,,,,,FF,,,,,,,,2.3157,,,,,,,,,,,,,,,,,,,,,,60f36868575f391fc987f84e,61036777852ae037ac352524,2021-07-30_03h44.46.950,Simcolourproject_2stim_asymm_v5,2020.2.10,Win32,60,61025ae37ef11b136ea224fe,,,,,,,,,2848,95.20001286,-43.20000708,1,0,0,response3disk,,5,-10.39993988,-3.200006485,1,0,0,rectangle,-10.39993988,-3.200006485,1,0,0,-10.39993988,-3.200006485,1,0,0,1,41,201,55,1,,,,,,,,
,,,,,,,,,,,,,FF,,,,,,,,0.9996,,,,,,,,,,,,,,,,,,,,,,60f36868575f391fc987f84e,61036777852ae037ac352524,2021-07-30_03h44.46.950,Simcolourproject_2stim_asymm_v5,2020.2.10,Win32,60,61025ae37ef11b136ea224fe,,,,,,,,,157,97.6000129,28.79999399,1,0,0,response1disk,,6,-3.999988616,-6.4373E-06,1,0,0,rectangle,-3.999988616,-6.4373E-06,1,0,0,-3.999988616,-6.4373E-06,1,0,0,1,42,202,42,1,,,,,,,,
,,,,,,,,,,,,,FF,,,,,,,,1.433,,,,,,,,,,,,,,,,,,,,,,60f36868575f391fc987f84e,61036777852ae037ac352524,2021-07-30_03h44.46.950,Simcolourproject_2stim_asymm_v5,2020.2.10,Win32,60,61025ae37ef11b136ea224fe,,,,,,,,,4292,54.40001225,107.9999952,1,0,0,response1disk,,7,4.800011516,3.999993622,1,0,0,rectangle,4.800011516,3.999993622,1,0,0,4.800011516,3.999993622,1,0,0,1,43,203,98,1,,,,,,,,
,,,,,,,,,,,,,FF,,,,,,,,2.0824,,,,,,,,,,,,,,,,,,,,,,60f36868575f391fc987f84e,61036777852ae037ac352524,2021-07-30_03h44.46.950,Simcolourproject_2stim_asymm_v5,2020.2.10,Win32,60,61025ae37ef11b136ea224fe,,,,,,,,,1617,-36.7999891,-112.8000081,1,0,0,response5disk,,3,3.200011492,-1.600006461,1,0,0,rectangle,3.200011492,-1.600006461,1,0,0,3.200011492,-1.600006461,1,0,0,1,44,204,32,1,,,,,,,,
,,,,,,,,,,,,,FF,,,,,,,,2.1322,,,,,,,,,,,,,,,,,,,,,,60f36868575f391fc987f84e,61036777852ae037ac352524,2021-07-30_03h44.46.950,Simcolourproject_2stim_asymm_v5,2020.2.10,Win32,60,61025ae37ef11b136ea224fe,,,,,,,,,1432,93.60001284,-40.00000703,1,0,0,response3disk,,5,19.20001173,1.599993587,1,0,0,rectangle,19.20001173,1.599993587,1,0,0,19.20001173,1.599993587,1,0,0,1,45,205,105,1,,,,,,,,
,,,,,,,,,,,,,FF,,,,,,,,1.8488,,,,,,,,,,,,,,,,,,,,,,60f36868575f391fc987f84e,61036777852ae037ac352524,2021-07-30_03h44.46.950,Simcolourproject_2stim_asymm_v5,2020.2.10,Win32,60,61025ae37ef11b136ea224fe,,,,,,,,,709,112.8000131,43.99999422,1,0,0,response1disk,,6,-7.999988675,-1.600006461,1,0,0,rectangle,-7.999988675,-1.600006461,1,0,0,-7.999988675,-1.600006461,1,0,0,1,46,206,21,1,,,,,,,,
,,,,,,,,,,,,,FF,,,,,,,,1.3824,,,,,,,,,,,,,,,,,,,,,,60f36868575f391fc987f84e,61036777852ae037ac352524,2021-07-30_03h44.46.950,Simcolourproject_2stim_asymm_v5,2020.2.10,Win32,60,61025ae37ef11b136ea224fe,,,,,,,,,1207,-43.99998921,-120.0000082,1,0,0,response5disk,,3,4.000011504,4.799993634,1,0,0,rectangle,4.000011504,4.799993634,1,0,0,4.000011504,4.799993634,1,0,0,1,47,207,24,1,,,,,,,,
,,,,,,,,,,,,,FF,,,,,,,,1.5488,,,,,,,,,,,,,,,,,,,,,,60f36868575f391fc987f84e,61036777852ae037ac352524,2021-07-30_03h44.46.950,Simcolourproject_2stim_asymm_v5,2020.2.10,Win32,60,61025ae37ef11b136ea224fe,,,,,,,,,2362,-103.9999901,-44.00000709,1,0,0,response5disk,,2,-20.79998887,11.19999373,1,0,0,rectangle,-20.79998887,11.19999373,1,0,0,-20.79998887,11.19999373,1,0,0,1,48,208,35,1,,,,,,,,
,,,,,,,,,,,,,FF,,,,,,,,2.0654,,,,,,,,,,,,,,,,,,,,,,60f36868575f391fc987f84e,61036777852ae037ac352524,2021-07-30_03h44.46.950,Simcolourproject_2stim_asymm_v5,2020.2.10,Win32,60,61025ae37ef11b136ea224fe,,,,,,,,,3978,32.80001193,-114.4000081,1,0,0,response3disk,,4,-15.19998878,0.799993575,1,0,0,rectangle,-15.19998878,0.799993575,1,0,0,-15.19998878,0.799993575,1,0,0,1,49,209,156,1,,,,,,,,
,,,,,,,,,,,,,FF,,,,,,,,1.732,,,,,,,,,,,,,,,,,,,,,,60f36868575f391fc987f84e,61036777852ae037ac352524,2021-07-30_03h44.46.950,Simcolourproject_2stim_asymm_v5,2020.2.10,Win32,60,61025ae37ef11b136ea224fe,,,,,,,,,461,-39.99998915,-116.8000082,1,0,0,response5disk,,3,0.800011456,-4.000006497,1,0,0,rectangle,0.800011456,-4.000006497,1,0,0,0.800011456,-4.000006497,1,0,0,1,50,210,115,1,,,,,,,,
,,,,,,,,,,,,,FF,,,,,,,,1.2994,,,,,,,,,,,,,,,,,,,,,,60f36868575f391fc987f84e,61036777852ae037ac352524,2021-07-30_03h44.46.950,Simcolourproject_2stim_asymm_v5,2020.2.10,Win32,60,61025ae37ef11b136ea224fe,,,,,,,,,3274,95.20001286,54.39999437,1,0,0,response1disk,,6,9.600060415,6.399993658,1,0,0,rectangle,9.600060415,6.399993658,1,0,0,9.600060415,6.399993658,1,0,0,1,51,211,82,1,,,,,,,,
,,,,,,,,,,,,,FF,,,,,,,,1.8656,,,,,,,,,,,,,,,,,,,,,,60f36868575f391fc987f84e,61036777852ae037ac352524,2021-07-30_03h44.46.950,Simcolourproject_2stim_asymm_v5,2020.2.10,Win32,60,61025ae37ef11b136ea224fe,,,,,,,,,4041,111.2000131,38.39999413,1,0,0,response1disk,,6,-21.59998888,-6.400006533,1,0,0,rectangle,-21.59998888,-6.400006533,1,0,0,-21.59998888,-6.400006533,1,0,0,1,52,212,100,1,,,,,,,,
,,,,,,,,,,,,,FF,,,,,,,,1.7825,,,,,,,,,,,,,,,,,,,,,,60f36868575f391fc987f84e,61036777852ae037ac352524,2021-07-30_03h44.46.950,Simcolourproject_2stim_asymm_v5,2020.2.10,Win32,60,61025ae37ef11b136ea224fe,,,,,,,,,2938,115.2000132,55.9999944,1,0,0,response1disk,,6,-18.39994,-7.200006545,1,0,0,rectangle,-18.39994,-7.200006545,1,0,0,-18.39994,-7.200006545,1,0,0,1,53,213,125,1,,,,,,,,
,,,,,,,,,,,,,FF,,,,,,,,2.7317,,,,,,,,,,,,,,,,,,,,,,60f36868575f391fc987f84e,61036777852ae037ac352524,2021-07-30_03h44.46.950,Simcolourproject_2stim_asymm_v5,2020.2.10,Win32,60,61025ae37ef11b136ea224fe,,,,,,,,,1293,40.80001205,-108.8000081,1,0,0,response3disk,,4,-12.79998875,-5.600006521,1,0,0,rectangle,-12.79998875,-5.600006521,1,0,0,-12.79998875,-5.600006521,1,0,0,1,54,214,121,1,,,,,,,,
,,,,,,,,,,,,,FF,,,,,,,,3.2815,,,,,,,,,,,,,,,,,,,,,,60f36868575f391fc987f84e,61036777852ae037ac352524,2021-07-30_03h44.46.950,Simcolourproject_2stim_asymm_v5,2020.2.10,Win32,60,61025ae37ef11b136ea224fe,,,,,,,,,1675,46.40001214,-108.000008,1,0,0,response3disk,,4,-1.59998858,7.19999367,1,0,0,rectangle,-1.59998858,7.19999367,1,0,0,-1.59998858,7.19999367,1,0,0,1,55,215,45,1,,,,,,,,
,,,,,,,,,,,,,FF,,,,,,,,1.9659,,,,,,,,,,,,,,,,,,,,,,60f36868575f391fc987f84e,61036777852ae037ac352524,2021-07-30_03h44.46.950,Simcolourproject_2stim_asymm_v5,2020.2.10,Win32,60,61025ae37ef11b136ea224fe,,,,,,,,,980,110.4000131,48.79999429,1,0,0,response1disk,,6,7.200011551,-0.800006449,1,0,0,rectangle,7.200011551,-0.800006449,1,0,0,7.200011551,-0.800006449,1,0,0,1,56,216,23,1,,,,,,,,
,,,,,,,,,,,,,FF,,,,,,,,1.6658,,,,,,,,,,,,,,,,,,,,,,60f36868575f391fc987f84e,61036777852ae037ac352524,2021-07-30_03h44.46.950,Simcolourproject_2stim_asymm_v5,2020.2.10,Win32,60,61025ae37ef11b136ea224fe,,,,,,,,,4043,27.20001185,99.99999505,1,0,0,response1disk,,7,-0.799988568,6.399993658,1,0,0,rectangle,-0.799988568,6.399993658,1,0,0,-0.799988568,6.399993658,1,0,0,1,57,217,38,1,,,,,,,,
,,,,,,,,,,,,,FF,,,,,,,,3.0319,,,,,,,,,,,,,,,,,,,,,,60f36868575f391fc987f84e,61036777852ae037ac352524,2021-07-30_03h44.46.950,Simcolourproject_2stim_asymm_v5,2020.2.10,Win32,60,61025ae37ef11b136ea224fe,,,,,,,,,1464,105.600013,29.599994,1,0,0,response1disk,,6,3.200011492,7.19999367,1,0,0,rectangle,3.200011492,7.19999367,1,0,0,3.200011492,7.19999367,1,0,0,1,58,218,133,1,,,,,,,,
,,,,,,,,,,,,,FF,,,,,,,,1.4661,,,,,,,,,,,,,,,,,,,,,,60f36868575f391fc987f84e,61036777852ae037ac352524,2021-07-30_03h44.46.950,Simcolourproject_2stim_asymm_v5,2020.2.10,Win32,60,61025ae37ef11b136ea224fe,,,,,,,,,2365,-56.7999894,-108.000008,1,0,0,response5disk,,3,4.800011516,-1.600006461,1,0,0,rectangle,4.800011516,-1.600006461,1,0,0,4.800011516,-1.600006461,1,0,0,1,59,219,26,1,,,,,,,,
,,,,,,,,,,,,,FF,,,,,,,,2.7154,,,,,,,,,,,,,,,,,,,,,,60f36868575f391fc987f84e,61036777852ae037ac352524,2021-07-30_03h44.46.950,Simcolourproject_2stim_asymm_v5,2020.2.10,Win32,60,61025ae37ef11b136ea224fe,,,,,,,,,2276,105.600013,44.79999423,1,0,0,response1disk,,6,-14.39993994,-6.4373E-06,1,0,0,rectangle,-14.39993994,-6.4373E-06,1,0,0,-14.39993994,-6.4373E-06,1,0,0,1,60,220,109,1,,,,,,,,
,,,,,,,,,,,,,FF,,,,,,,,1.499,,,,,,,,,,,,,,,,,,,,,,60f36868575f391fc987f84e,61036777852ae037ac352524,2021-07-30_03h44.46.950,Simcolourproject_2stim_asymm_v5,2020.2.10,Win32,60,61025ae37ef11b136ea224fe,,,,,,,,,3094,48.80001217,103.1999707,1,0,0,response1disk,,7,3.200011492,11.99999374,1,0,0,rectangle,-95.99998999,-48.00000715,1,0,0,-11.19998872,0.799993575,1,0,0,1,61,221,6,1,,response5disk_3,TRUE,2,2,"[306,71,222,33,72,102,145,138,140,272,225,286,28,245,33,306,110,309,18,285]",1.3997,rectangle
,,,,,,,,,,,,,FF,,,,,,,,1.9657,,,,,,,,,,,,,,,,,,,,,,60f36868575f391fc987f84e,61036777852ae037ac352524,2021-07-30_03h44.46.950,Simcolourproject_2stim_asymm_v5,2020.2.10,Win32,60,61025ae37ef11b136ea224fe,,,,,,,,,3845,107.200013,39.99999416,1,0,0,response1disk,,6,-2.399939764,0.799993575,1,0,0,rectangle,-2.399939764,0.799993575,1,0,0,-2.399939764,0.799993575,1,0,0,1,62,222,39,1,,,,,,,,
,,,,,,,,,,,,,FF,,,,,,,,1.2664,,,,,,,,,,,,,,,,,,,,,,60f36868575f391fc987f84e,61036777852ae037ac352524,2021-07-30_03h44.46.950,Simcolourproject_2stim_asymm_v5,2020.2.10,Win32,60,61025ae37ef11b136ea224fe,,,,,,,,,1363,81.60001266,-32.00000691,1,0,0,response3disk,,5,-11.19998872,4.799993634,1,0,0,rectangle,-11.19998872,4.799993634,1,0,0,-11.19998872,4.799993634,1,0,0,1,63,223,153,1,,,,,,,,
,,,,,,,,,,,,,FF,,,,,,,,1.9819,,,,,,,,,,,,,,,,,,,,,,60f36868575f391fc987f84e,61036777852ae037ac352524,2021-07-30_03h44.46.950,Simcolourproject_2stim_asymm_v5,2020.2.10,Win32,60,61025ae37ef11b136ea224fe,,,,,,,,,515,105.600013,37.59999412,1,0,0,response1disk,,6,4.000011504,5.599993646,1,0,0,rectangle,-111.1999902,49.5999943,1,0,0,6.400011539,3.999993622,1,0,0,1,64,224,43,1,,response7disk_3,TRUE,1,1,"[306,71,222,33,72,102,145,138,140,272,225,286,28,245,33,306,110,309,18,285]",1.6161,rectangle
,,,,,,,,,,,,,FF,,,,,,,,2.2987,,,,,,,,,,,,,,,,,,,,,,60f36868575f391fc987f84e,61036777852ae037ac352524,2021-07-30_03h44.46.950,Simcolourproject_2stim_asymm_v5,2020.2.10,Win32,60,61025ae37ef11b136ea224fe,,,,,,,,,2785,-37.59998912,-107.200008,1,0,0,response5disk,,3,1.600060296,-11.2000066,1,0,0,rectangle,1.600060296,-11.2000066,1,0,0,1.600060296,-11.2000066,1,0,0,1,65,225,17,1,,,,,,,,
,,,,,,,,,,,,,FF,,,,,,,,1.7331,,,,,,,,,,,,,,,,,,,,,,60f36868575f391fc987f84e,61036777852ae037ac352524,2021-07-30_03h44.46.950,Simcolourproject_2stim_asymm_v5,2020.2.10,Win32,60,61025ae37ef11b136ea224fe,,,,,,,,,3308,103.200013,35.19996967,1,0,0,response1disk,,6,-17.59998882,-12.80000663,1,0,0,rectangle,-17.59998882,-12.80000663,1,0,0,-17.59998882,-12.80000663,1,0,0,1,66,226,5,1,,,,,,,,
,,,,,,,,,,,,,FF,,,,,,,,1.4491,,,,,,,,,,,,,,,,,,,,,,60f36868575f391fc987f84e,61036777852ae037ac352524,2021-07-30_03h44.46.950,Simcolourproject_2stim_asymm_v5,2020.2.10,Win32,60,61025ae37ef11b136ea224fe,,,,,,,,,2629,104.000013,43.19996979,1,0,0,response1disk,,6,-7.999988675,-9.60000658,1,0,0,rectangle,-7.999988675,-9.60000658,1,0,0,-7.999988675,-9.60000658,1,0,0,1,67,227,111,1,,,,,,,,
,,,,,,,,,,,,,FF,,,,,,,,1.2496,,,,,,,,,,,,,,,,,,,,,,60f36868575f391fc987f84e,61036777852ae037ac352524,2021-07-30_03h44.46.950,Simcolourproject_2stim_asymm_v5,2020.2.10,Win32,60,61025ae37ef11b136ea224fe,,,,,,,,,2709,36.00001198,93.59999496,1,0,0,response1disk,,7,-3.999988616,7.999993682,1,0,0,rectangle,-3.999988616,7.999993682,1,0,0,-3.999988616,7.999993682,1,0,0,1,68,228,29,1,,,,,,,,
,,,,,,,,,,,,,FF,,,,,,,,2.0656,,,,,,,,,,,,,,,,,,,,,,60f36868575f391fc987f84e,61036777852ae037ac352524,2021-07-30_03h44.46.950,Simcolourproject_2stim_asymm_v5,2020.2.10,Win32,60,61025ae37ef11b136ea224fe,,,,,,,,,151,40.80001205,99.19997063,1,0,0,response1disk,,7,0.800011456,-6.4373E-06,1,0,0,rectangle,0.800011456,-6.4373E-06,1,0,0,0.800011456,-6.4373E-06,1,0,0,1,69,229,51,1,,,,,,,,
,,,,,,,,,,,,,FF,,,,,,,,3.4481,,,,,,,,,,,,,,,,,,,,,,60f36868575f391fc987f84e,61036777852ae037ac352524,2021-07-30_03h44.46.950,Simcolourproject_2stim_asymm_v5,2020.2.10,Win32,60,61025ae37ef11b136ea224fe,,,,,,,,,4107,42.40001208,-103.200008,1,0,0,response3disk,,4,-22.39994006,9.599993706,1,0,0,rectangle,-22.39994006,9.599993706,1,0,0,-22.39994006,9.599993706,1,0,0,1,70,230,86,1,,,,,,,,
,,,,,,,,,,,,,FF,,,,,,,,1.5495,,,,,,,,,,,,,,,,,,,,,,60f36868575f391fc987f84e,61036777852ae037ac352524,2021-07-30_03h44.46.950,Simcolourproject_2stim_asymm_v5,2020.2.10,Win32,60,61025ae37ef11b136ea224fe,,,,,,,,,2715,110.4000131,42.39999419,1,0,0,response1disk,,6,9.600060415,12.79999375,1,0,0,rectangle,9.600060415,12.79999375,1,0,0,9.600060415,12.79999375,1,0,0,1,71,231,18,1,,,,,,,,
,,,,,,,,,,,,,FF,,,,,,,,1.8657,,,,,,,,,,,,,,,,,,,,,,60f36868575f391fc987f84e,61036777852ae037ac352524,2021-07-30_03h44.46.950,Simcolourproject_2stim_asymm_v5,2020.2.10,Win32,60,61025ae37ef11b136ea224fe,,,,,,,,,3003,112.8000131,42.39999419,1,0,0,response1disk,,6,1.14441E-05,-2.400006473,1,0,0,rectangle,1.14441E-05,-2.400006473,1,0,0,1.14441E-05,-2.400006473,1,0,0,1,72,232,101,1,,,,,,,,
,,,,,,,,,,,,,FF,,,,,,,,0.9666,,,,,,,,,,,,,,,,,,,,,,60f36868575f391fc987f84e,61036777852ae037ac352524,2021-07-30_03h44.46.950,Simcolourproject_2stim_asymm_v5,2020.2.10,Win32,60,61025ae37ef11b136ea224fe,,,,,,,,,1445,-60.79998946,108.7999952,1,0,0,response7disk,,0,-4.799988627,-4.000006497,1,0,0,rectangle,-4.799988627,-4.000006497,1,0,0,-4.799988627,-4.000006497,1,0,0,1,73,233,147,1,,,,,,,,
,,,,,,,,,,,,,FF,,,,,,,,2.8986,,,,,,,,,,,,,,,,,,,,,,60f36868575f391fc987f84e,61036777852ae037ac352524,2021-07-30_03h44.46.950,Simcolourproject_2stim_asymm_v5,2020.2.10,Win32,60,61025ae37ef11b136ea224fe,,,,,,,,,3335,34.40001196,89.5999949,1,0,0,response1disk,,7,3.200011492,-3.200006485,1,0,0,rectangle,3.200011492,-3.200006485,1,0,0,3.200011492,-3.200006485,1,0,0,1,74,234,132,1,,,,,,,,
,,,,,,,,,,,,,FF,,,,,,,,1.6817,,,,,,,,,,,,,,,,,,,,,,60f36868575f391fc987f84e,61036777852ae037ac352524,2021-07-30_03h44.46.950,Simcolourproject_2stim_asymm_v5,2020.2.10,Win32,60,61025ae37ef11b136ea224fe,,,,,,,,,291,108.0000131,42.39999419,1,0,0,response1disk,,6,3.200011492,6.399993658,1,0,0,rectangle,3.200011492,6.399993658,1,0,0,3.200011492,6.399993658,1,0,0,1,75,235,103,1,,,,,,,,
,,,,,,,,,,,,,FF,,,,,,,,2.582,,,,,,,,,,,,,,,,,,,,,,60f36868575f391fc987f84e,61036777852ae037ac352524,2021-07-30_03h44.46.950,Simcolourproject_2stim_asymm_v5,2020.2.10,Win32,60,61025ae37ef11b136ea224fe,,,,,,,,,369,92.00001281,-38.40000701,1,0,0,response3disk,,5,-2.399939764,1.599993587,1,0,0,rectangle,-2.399939764,1.599993587,1,0,0,-2.399939764,1.599993587,1,0,0,1,76,236,104,1,,,,,,,,
,,,,,,,,,,,,,FF,,,,,,,,2.1653,,,,,,,,,,,,,,,,,,,,,,60f36868575f391fc987f84e,61036777852ae037ac352524,2021-07-30_03h44.46.950,Simcolourproject_2stim_asymm_v5,2020.2.10,Win32,60,61025ae37ef11b136ea224fe,,,,,,,,,3814,49.60006101,-110.4000081,1,0,0,response3disk,,4,-7.999988675,11.19999373,1,0,0,rectangle,-7.999988675,11.19999373,1,0,0,-7.999988675,11.19999373,1,0,0,1,77,237,72,1,,,,,,,,
,,,,,,,,,,,,,FF,,,,,,,,1.1997,,,,,,,,,,,,,,,,,,,,,,60f36868575f391fc987f84e,61036777852ae037ac352524,2021-07-30_03h44.46.950,Simcolourproject_2stim_asymm_v5,2020.2.10,Win32,60,61025ae37ef11b136ea224fe,,,,,,,,,50,103.200013,39.99999416,1,0,0,response1disk,,6,5.600060356,-1.600006461,1,0,0,rectangle,5.600060356,-1.600006461,1,0,0,5.600060356,-1.600006461,1,0,0,1,78,238,122,1,,,,,,,,
,,,,,,,,,,,,,FF,,,,,,,,1.7162,,,,,,,,,,,,,,,,,,,,,,60f36868575f391fc987f84e,61036777852ae037ac352524,2021-07-30_03h44.46.950,Simcolourproject_2stim_asymm_v5,2020.2.10,Win32,60,61025ae37ef11b136ea224fe,,,,,,,,,4285,46.40001214,98.39999503,1,0,0,response1disk,,7,-0.799988568,-0.800006449,1,0,0,rectangle,-0.799988568,-0.800006449,1,0,0,-0.799988568,-0.800006449,1,0,0,1,79,239,73,1,,,,,,,,
,,,,,,,,,,,,,FF,,,,,,,,0.8325,,,,,,,,,,,,,,,,,,,,,,60f36868575f391fc987f84e,61036777852ae037ac352524,2021-07-30_03h44.46.950,Simcolourproject_2stim_asymm_v5,2020.2.10,Win32,60,61025ae37ef11b136ea224fe,,,,,,,,,2418,-50.39994048,86.39999485,1,0,0,response7disk,,0,-3.199988604,0.799993575,1,0,0,rectangle,-3.199988604,0.799993575,1,0,0,-3.199988604,0.799993575,1,0,0,1,80,240,120,1,,,,,,,,
,,,,,,,,,,,,,FF,,,,,,,,3.1818,,,,,,,,,,,,,,,,,,,,,,60f36868575f391fc987f84e,61036777852ae037ac352524,2021-07-30_03h44.46.950,Simcolourproject_2stim_asymm_v5,2020.2.10,Win32,60,61025ae37ef11b136ea224fe,,,,,,,,,3800,55.20001227,98.39999503,1,0,0,response1disk,,7,5.600060356,5.599993646,1,0,0,rectangle,5.600060356,5.599993646,1,0,0,5.600060356,5.599993646,1,0,0,1,81,241,149,1,,,,,,,,
,,,,,,,,,,,,,FF,,,,,,,,1.5992,,,,,,,,,,,,,,,,,,,,,,60f36868575f391fc987f84e,61036777852ae037ac352524,2021-07-30_03h44.46.950,Simcolourproject_2stim_asymm_v5,2020.2.10,Win32,60,61025ae37ef11b136ea224fe,,,,,,,,,4137,108.8000131,68.79999459,1,0,0,response1disk,,6,-27.19998896,-12.80000663,1,0,0,rectangle,-27.19998896,-12.80000663,1,0,0,-27.19998896,-12.80000663,1,0,0,1,82,242,63,1,,,,,,,,
,,,,,,,,,,,,,FF,,,,,,,,1.7323,,,,,,,,,,,,,,,,,,,,,,60f36868575f391fc987f84e,61036777852ae037ac352524,2021-07-30_03h44.46.950,Simcolourproject_2stim_asymm_v5,2020.2.10,Win32,60,61025ae37ef11b136ea224fe,,,,,,,,,883,110.4000131,45.59999424,1,0,0,response1disk,,6,-26.39994012,0.799993575,1,0,0,rectangle,-26.39994012,0.799993575,1,0,0,-26.39994012,0.799993575,1,0,0,1,83,243,106,1,,,,,,,,
