key_resp.keys,key_resp.rt,key_resp_14.keys,key_resp_14.rt,key_resp_15.keys,key_resp_15.rt,key_resp_17.keys,key_resp_17.rt,key_resp_9.keys,key_resp_9.rt,key_resp_10.keys,key_resp_10.rt,practice_comparison,Ecc,mouse_5.x,mouse_5.y,mouse_5.leftButton,mouse_5.midButton,mouse_5.rightButton,mouse_5.clicked_name,pracsimilarity,response_time,mouse_10.x,mouse_10.y,mouse_10.leftButton,mouse_10.midButton,mouse_10.rightButton,mouse_10.clicked_name,mouse_7.x,mouse_7.y,mouse_7.leftButton,mouse_7.midButton,mouse_7.rightButton,mouse_6.x,mouse_6.y,mouse_6.leftButton,mouse_6.midButton,mouse_6.rightButton,duringprac.thisRepN,duringprac.thisTrialN,duringprac.thisN,duringprac.thisIndex,duringprac.ran,participant,session,date,expName,psychopyVersion,OS,frameRate,study_id,mouse_7.clicked_name,catchpracsimilarity,catch_response_time,catchnumberprac,catchtrialorderprac,mouse_6.clicked_name,key_resp_22.keys,key_resp_22.rt,realcomparison,mouse.x,mouse.y,mouse.leftButton,mouse.midButton,mouse.rightButton,mouse.clicked_name,Colour2,similarity,mouse_2.x,mouse_2.y,mouse_2.leftButton,mouse_2.midButton,mouse_2.rightButton,mouse_2.clicked_name,mouse_3.x,mouse_3.y,mouse_3.leftButton,mouse_3.midButton,mouse_3.rightButton,mouse_11.x,mouse_11.y,mouse_11.leftButton,mouse_11.midButton,mouse_11.rightButton,trials_2.thisRepN,trials_2.thisTrialN,trials_2.thisN,trials_2.thisIndex,trials_2.ran,Colour1,mouse_3.clicked_name,catchornah,catchsimilarity,catchnumber,catchtrialorder,catchRT,mouse_11.clicked_name
space,2.5355,space,26.0567,space,17.0923,space,6.2624,space,2.368,space,3.4349,6,FF,71.22722799,-40.2727021,1,0,0,response3disk_5,5,9.6322,-9.98488766,2.151537418,1,0,0,rectangle_8,-9.98488766,2.151537418,1,0,0,-9.98488766,2.151537418,1,0,0,0,0,0,0,1,60f3bc4e36762e0c2d9132cb,61036f849502754c05212a36,2021-07-29_23h25.23.886,Simcolourproject_2stim_asymm_v5,2020.2.10,Win32,60,61025ae37ef11b136ea224fe,,,,,,,,,,,,,,,,,,,,,,,,,,,,,,,,,,,,,,,,,,,,,,
,,,,,,,,,,,,131,PF,74.86359137,30.63638395,1,0,0,response1disk_5,6,2.083,10.01514796,-5.72724992,1,0,0,rectangle_8,-41.50007401,90.03030078,1,0,0,-0.287918627,-5.121189356,1,0,0,0,1,1,4,1,60f3bc4e36762e0c2d9132cb,61036f849502754c05212a36,2021-07-29_23h25.23.886,Simcolourproject_2stim_asymm_v5,2020.2.10,Win32,60,61025ae37ef11b136ea224fe,response7disk_7,0,2.8494,0,"[2,5]",rectangle_4,,,,,,,,,,,,,,,,,,,,,,,,,,,,,,,,,,,,,,,,
,,,,,,,,,,,,130,PF,50.62116879,67.60607839,1,0,0,response1disk_5,7,2.883,-4.530342579,-2.696947098,1,0,0,rectangle_8,-4.530342579,-2.696947098,1,0,0,-4.530342579,-2.696947098,1,0,0,0,2,2,2,1,60f3bc4e36762e0c2d9132cb,61036f849502754c05212a36,2021-07-29_23h25.23.886,Simcolourproject_2stim_asymm_v5,2020.2.10,Win32,60,61025ae37ef11b136ea224fe,,,,,,,,,,,,,,,,,,,,,,,,,,,,,,,,,,,,,,,,,,,,,,
,,,,,,,,,,,,117,FF,63.95450121,33.0606447,1,0,0,response1disk_5,6,2.6822,6.378710591,3.363658547,1,0,0,rectangle_8,6.378710591,3.363658547,1,0,0,6.378710591,3.363658547,1,0,0,0,3,3,5,1,60f3bc4e36762e0c2d9132cb,61036f849502754c05212a36,2021-07-29_23h25.23.886,Simcolourproject_2stim_asymm_v5,2020.2.10,Win32,60,61025ae37ef11b136ea224fe,,,,,,,,,,,,,,,,,,,,,,,,,,,,,,,,,,,,,,,,,,,,,,
,,,,,,,,,,,,113,PF,78.49995476,34.27274734,1,0,0,response1disk_5,6,1.2324,5.772687018,-0.27270484,1,0,0,rectangle_8,-27.56060704,71.84848384,1,0,0,-0.893979192,2.757597983,1,0,0,0,4,4,1,1,60f3bc4e36762e0c2d9132cb,61036f849502754c05212a36,2021-07-29_23h25.23.886,Simcolourproject_2stim_asymm_v5,2020.2.10,Win32,60,61025ae37ef11b136ea224fe,response7disk_7,0,1.5986,0,"[2,5]",rectangle_4,,,,,,,,,,,,,,,,,,,,,,,,,,,,,,,,,,,,,,,,
,,,,,,,,,,,,46,FF,-78.46969446,34.27274734,1,0,0,response7disk_5,1,4.1832,-8.166705966,-3.303007662,1,0,0,rectangle_8,-8.166705966,-3.303007662,1,0,0,-8.166705966,-3.303007662,1,0,0,0,5,5,3,1,60f3bc4e36762e0c2d9132cb,61036f849502754c05212a36,2021-07-29_23h25.23.886,Simcolourproject_2stim_asymm_v5,2020.2.10,Win32,60,61025ae37ef11b136ea224fe,,,,,,,,,,,,,,,,,,,,,,,,,,,,,,,,,,,,,,,,,,,,,,
,,,,,,,,,,,,85,PF,77.28783363,38.51517129,1,0,0,response1disk_5,6,1.3498,13.04541379,3.969719112,1,0,0,rectangle_8,13.04541379,3.969719112,1,0,0,13.04541379,3.969719112,1,0,0,0,6,6,6,1,60f3bc4e36762e0c2d9132cb,61036f849502754c05212a36,2021-07-29_23h25.23.886,Simcolourproject_2stim_asymm_v5,2020.2.10,Win32,60,61025ae37ef11b136ea224fe,,,,,,,,,,,,,,,,,,,,,,,,,,,,,,,,,,,,,,,,,,,,,,
,,,,,,,,,,,,,FF,,,,,,,,2.8648,,,,,,,,,,,,,,,,,,,,,,60f3bc4e36762e0c2d9132cb,61036f849502754c05212a36,2021-07-29_23h25.23.886,Simcolourproject_2stim_asymm_v5,2020.2.10,Win32,60,61025ae37ef11b136ea224fe,,,,,,,space,3.4022,3376,29.40904903,72.4545629,1,0,0,response1disk,,7,-4.530342579,-3.909068227,1,0,0,rectangle,-4.530342579,-3.909068227,1,0,0,-4.530342579,-3.909068227,1,0,0,0,0,0,129,1,,,,,,,,
,,,,,,,,,,,,,FF,,,,,,,,3.6998,,,,,,,,,,,,,,,,,,,,,,60f3bc4e36762e0c2d9132cb,61036f849502754c05212a36,2021-07-29_23h25.23.886,Simcolourproject_2stim_asymm_v5,2020.2.10,Win32,60,61025ae37ef11b136ea224fe,,,,,,,,,1035,21.5302617,-59.66664016,1,0,0,response3disk,,4,-2.712160885,3.363658547,1,0,0,rectangle,-2.712160885,3.363658547,1,0,0,-2.712160885,3.363658547,1,0,0,0,1,1,74,1,,,,,,,,
,,,,,,,,,,,,,FF,,,,,,,,3.1186,,,,,,,,,,,,,,,,,,,,,,60f3bc4e36762e0c2d9132cb,61036f849502754c05212a36,2021-07-29_23h25.23.886,Simcolourproject_2stim_asymm_v5,2020.2.10,Win32,60,61025ae37ef11b136ea224fe,,,,,,,,,983,-43.3182557,-56.03027678,1,0,0,response5disk,,3,3.348518742,-3.909068227,1,0,0,rectangle,3.348518742,-3.909068227,1,0,0,3.348518742,-3.909068227,1,0,0,0,2,2,153,1,,,,,,,,
,,,,,,,,,,,,,FF,,,,,,,,1.4667,,,,,,,,,,,,,,,,,,,,,,60f3bc4e36762e0c2d9132cb,61036f849502754c05212a36,2021-07-29_23h25.23.886,Simcolourproject_2stim_asymm_v5,2020.2.10,Win32,60,61025ae37ef11b136ea224fe,,,,,,,,,2574,57.287835,65.18181763,1,0,0,response1disk,,7,14.25757191,-3.303007662,1,0,0,rectangle,14.25757191,-3.303007662,1,0,0,14.25757191,-3.303007662,1,0,0,0,3,3,37,1,,,,,,,,
,,,,,,,,,,,,,FF,,,,,,,,1.0121,,,,,,,,,,,,,,,,,,,,,,60f3bc4e36762e0c2d9132cb,61036f849502754c05212a36,2021-07-29_23h25.23.886,Simcolourproject_2stim_asymm_v5,2020.2.10,Win32,60,61025ae37ef11b136ea224fe,,,,,,,,,1357,53.04541105,64.57573857,1,0,0,response1disk,,7,13.04541379,-2.090886533,1,0,0,rectangle,13.04541379,-2.090886533,1,0,0,13.04541379,-2.090886533,1,0,0,0,4,4,21,1,,,,,,,,
,,,,,,,,,,,,,FF,,,,,,,,1.9228,,,,,,,,,,,,,,,,,,,,,,60f3bc4e36762e0c2d9132cb,61036f849502754c05212a36,2021-07-29_23h25.23.886,Simcolourproject_2stim_asymm_v5,2020.2.10,Win32,60,61025ae37ef11b136ea224fe,,,,,,,,,1469,27.59086734,-48.75755,1,0,0,response3disk,,4,7.590868711,-3.909068227,1,0,0,rectangle,7.590868711,-3.909068227,1,0,0,7.590868711,-3.909068227,1,0,0,0,5,5,13,1,,,,,,,,
,,,,,,,,,,,,,FF,,,,,,,,1.3335,,,,,,,,,,,,,,,,,,,,,,60f3bc4e36762e0c2d9132cb,61036f849502754c05212a36,2021-07-29_23h25.23.886,Simcolourproject_2stim_asymm_v5,2020.2.10,Win32,60,61025ae37ef11b136ea224fe,,,,,,,,,2261,40.3181392,43.96973487,1,0,0,response1disk,,7,13.04541379,-9.363613307,1,0,0,rectangle,13.04541379,-9.363613307,1,0,0,13.04541379,-9.363613307,1,0,0,0,6,6,147,1,,,,,,,,
,,,,,,,,,,,,,FF,,,,,,,,1.1663,,,,,,,,,,,,,,,,,,,,,,60f3bc4e36762e0c2d9132cb,61036f849502754c05212a36,2021-07-29_23h25.23.886,Simcolourproject_2stim_asymm_v5,2020.2.10,Win32,60,61025ae37ef11b136ea224fe,,,,,,,,,2020,31.83329129,54.27274597,1,0,0,response1disk,,7,14.25757191,2.757597983,1,0,0,rectangle,14.25757191,2.757597983,1,0,0,14.25757191,2.757597983,1,0,0,0,7,7,159,1,,,,,,,,
,,,,,,,,,,,,,FF,,,,,,,,2.1828,,,,,,,,,,,,,,,,,,,,,,60f3bc4e36762e0c2d9132cb,61036f849502754c05212a36,2021-07-29_23h25.23.886,Simcolourproject_2stim_asymm_v5,2020.2.10,Win32,60,61025ae37ef11b136ea224fe,,,,,,,,,287,84.56056041,33.66666828,1,0,0,response1disk,,6,-2.106100321,-2.696947098,1,0,0,rectangle,-2.106100321,-2.696947098,1,0,0,-2.106100321,-2.696947098,1,0,0,0,8,8,86,1,,,,,,,,
,,,,,,,,,,,,,FF,,,,,,,,1,,,,,,,,,,,,,,,,,,,,,,60f3bc4e36762e0c2d9132cb,61036f849502754c05212a36,2021-07-29_23h25.23.886,Simcolourproject_2stim_asymm_v5,2020.2.10,Win32,60,61025ae37ef11b136ea224fe,,,,,,,,,3126,45.77268428,61.54547274,1,0,0,response1disk,,7,9.409050405,2.151537418,1,0,0,rectangle,9.409050405,2.151537418,1,0,0,9.409050405,2.151537418,1,0,0,0,9,9,60,1,,,,,,,,
,,,,,,,,,,,,,FF,,,,,,,,1.3661,,,,,,,,,,,,,,,,,,,,,,60f3bc4e36762e0c2d9132cb,61036f849502754c05212a36,2021-07-29_23h25.23.886,Simcolourproject_2stim_asymm_v5,2020.2.10,Win32,60,61025ae37ef11b136ea224fe,,,,,,,,,1776,31.22723073,-59.0605796,1,0,0,response3disk,,4,5.166663444,-1.484825969,1,0,0,rectangle,5.166663444,-1.484825969,1,0,0,5.166663444,-1.484825969,1,0,0,0,10,10,50,1,,,,,,,,
,,,,,,,,,,,,,FF,,,,,,,,4.1328,,,,,,,,,,,,,,,,,,,,,,60f3bc4e36762e0c2d9132cb,61036f849502754c05212a36,2021-07-29_23h25.23.886,Simcolourproject_2stim_asymm_v5,2020.2.10,Win32,60,61025ae37ef11b136ea224fe,,,,,,,,,1327,56.68177444,-22.69694573,1,0,0,response3disk,,5,19.10601944,4.575779676,1,0,0,rectangle,19.10601944,4.575779676,1,0,0,19.10601944,4.575779676,1,0,0,0,11,11,49,1,,,,,,,,
,,,,,,,,,,,,,FF,,,,,,,,1.5499,,,,,,,,,,,,,,,,,,,,,,60f3bc4e36762e0c2d9132cb,61036f849502754c05212a36,2021-07-29_23h25.23.886,Simcolourproject_2stim_asymm_v5,2020.2.10,Win32,60,61025ae37ef11b136ea224fe,,,,,,,,,439,-20.28791726,-53.60603452,1,0,0,response5disk,,3,14.86359549,-2.696947098,1,0,0,rectangle,14.86359549,-2.696947098,1,0,0,14.86359549,-2.696947098,1,0,0,0,12,12,51,1,,,,,,,,
,,,,,,,,,,,,,FF,,,,,,,,1.4323,,,,,,,,,,,,,,,,,,,,,,60f3bc4e36762e0c2d9132cb,61036f849502754c05212a36,2021-07-29_23h25.23.886,Simcolourproject_2stim_asymm_v5,2020.2.10,Win32,60,61025ae37ef11b136ea224fe,,,,,,,,,2612,-34.22731024,-56.03027678,1,0,0,response5disk,,3,5.166663444,2.151537418,1,0,0,rectangle,5.166663444,2.151537418,1,0,0,5.166663444,2.151537418,1,0,0,0,13,13,113,1,,,,,,,,
,,,,,,,,,,,,,FF,,,,,,,,1.732,,,,,,,,,,,,,,,,,,,,,,60f3bc4e36762e0c2d9132cb,61036f849502754c05212a36,2021-07-29_23h25.23.886,Simcolourproject_2stim_asymm_v5,2020.2.10,Win32,60,61025ae37ef11b136ea224fe,,,,,,,,,2214,57.287835,34.8788264,1,0,0,response1disk,,6,8.803026832,-5.121189356,1,0,0,rectangle,8.803026832,-5.121189356,1,0,0,8.803026832,-5.121189356,1,0,0,0,14,14,115,1,,,,,,,,
,,,,,,,,,,,,,FF,,,,,,,,1.1496,,,,,,,,,,,,,,,,,,,,,,60f3bc4e36762e0c2d9132cb,61036f849502754c05212a36,2021-07-29_23h25.23.886,Simcolourproject_2stim_asymm_v5,2020.2.10,Win32,60,61025ae37ef11b136ea224fe,,,,,,,,,3262,85.77268153,27.00003906,1,0,0,response1disk,,6,15.46965605,-4.515128791,1,0,0,rectangle,15.46965605,-4.515128791,1,0,0,15.46965605,-4.515128791,1,0,0,0,15,15,95,1,,,,,,,,
,,,,,,,,,,,,,FF,,,,,,,,2.0327,,,,,,,,,,,,,,,,,,,,,,60f3bc4e36762e0c2d9132cb,61036f849502754c05212a36,2021-07-29_23h25.23.886,Simcolourproject_2stim_asymm_v5,2020.2.10,Win32,60,61025ae37ef11b136ea224fe,,,,,,,,,2855,61.53025895,-29.9696725,1,0,0,response3disk,,5,-5.742426717,-7.545431614,1,0,0,rectangle,-5.742426717,-7.545431614,1,0,0,-5.742426717,-7.545431614,1,0,0,0,16,16,48,1,,,,,,,,
,,,,,,,,,,,,,FF,,,,,,,,1.6003,,,,,,,,,,,,,,,,,,,,,,60f3bc4e36762e0c2d9132cb,61036f849502754c05212a36,2021-07-29_23h25.23.886,Simcolourproject_2stim_asymm_v5,2020.2.10,Win32,60,61025ae37ef11b136ea224fe,,,,,,,,,4269,60.92419839,-23.90906686,1,0,0,response3disk,,5,17.28783774,-5.72724992,1,0,0,rectangle,17.28783774,-5.72724992,1,0,0,17.28783774,-5.72724992,1,0,0,0,17,17,46,1,,,,,,,,
,,,,,,,,,,,,,FF,,,,,,,,1.0169,,,,,,,,,,,,,,,,,,,,,,60f3bc4e36762e0c2d9132cb,61036f849502754c05212a36,2021-07-29_23h25.23.886,Simcolourproject_2stim_asymm_v5,2020.2.10,Win32,60,61025ae37ef11b136ea224fe,,,,,,,,,3229,49.40904766,57.90912785,1,0,0,response1disk,,7,25.77268565,6.39396137,1,0,0,rectangle,25.77268565,6.39396137,1,0,0,25.77268565,6.39396137,1,0,0,0,18,18,149,1,,,,,,,,
,,,,,,,,,,,,,FF,,,,,,,,0.7001,,,,,,,,,,,,,,,,,,,,,,60f3bc4e36762e0c2d9132cb,61036f849502754c05212a36,2021-07-29_23h25.23.886,Simcolourproject_2stim_asymm_v5,2020.2.10,Win32,60,61025ae37ef11b136ea224fe,,,,,,,,,2452,40.92419976,54.87882503,1,0,0,response1disk,,7,9.409050405,-4.515128791,1,0,0,rectangle,9.409050405,-4.515128791,1,0,0,9.409050405,-4.515128791,1,0,0,0,19,19,118,1,,,,,,,,
,,,,,,,,,,,,,FF,,,,,,,,1.7662,,,,,,,,,,,,,,,,,,,,,,60f3bc4e36762e0c2d9132cb,61036f849502754c05212a36,2021-07-29_23h25.23.886,Simcolourproject_2stim_asymm_v5,2020.2.10,Win32,60,61025ae37ef11b136ea224fe,,,,,,,,,1116,48.19692653,-63.90906411,1,0,0,response3disk,,4,16.07575361,-4.515128791,1,0,0,rectangle,16.07575361,-4.515128791,1,0,0,16.07575361,-4.515128791,1,0,0,0,20,20,44,1,,,,,,,,
,,,,,,,,,,,,,FF,,,,,,,,0.9494,,,,,,,,,,,,,,,,,,,,,,60f3bc4e36762e0c2d9132cb,61036f849502754c05212a36,2021-07-29_23h25.23.886,Simcolourproject_2stim_asymm_v5,2020.2.10,Win32,60,61025ae37ef11b136ea224fe,,,,,,,,,3269,66.37874347,34.8788264,1,0,0,response1disk,,6,8.803026832,-5.72724992,1,0,0,rectangle,8.803026832,-5.72724992,1,0,0,8.803026832,-5.72724992,1,0,0,0,21,21,96,1,,,,,,,,
,,,,,,,,,,,,,FF,,,,,,,,1.1995,,,,,,,,,,,,,,,,,,,,,,60f3bc4e36762e0c2d9132cb,61036f849502754c05212a36,2021-07-29_23h25.23.886,Simcolourproject_2stim_asymm_v5,2020.2.10,Win32,60,61025ae37ef11b136ea224fe,,,,,,,,,1769,48.8029871,-30.57573307,1,0,0,response3disk,,5,-11.80303236,-10.57573444,1,0,0,rectangle,-25.13640177,59.12121199,1,0,0,-0.893979192,0.333355725,1,0,0,0,22,22,3,1,,response7disk_3,TRUE,0,0,"[256,158,189,278,238,208,85,255,167,277,229,179,223,320,242,53,143,23,294,137]",1.3508,rectangle
,,,,,,,,,,,,,FF,,,,,,,,1.4658,,,,,,,,,,,,,,,,,,,,,,60f3bc4e36762e0c2d9132cb,61036f849502754c05212a36,2021-07-29_23h25.23.886,Simcolourproject_2stim_asymm_v5,2020.2.10,Win32,60,61025ae37ef11b136ea224fe,,,,,,,,,2896,-33.01515212,-57.2423979,1,0,0,response5disk,,3,2.742347204,-0.27270484,1,0,0,rectangle,2.742347204,-0.27270484,1,0,0,2.742347204,-0.27270484,1,0,0,0,23,23,124,1,,,,,,,,
,,,,,,,,,,,,,FF,,,,,,,,1.0713,,,,,,,,,,,,,,,,,,,,,,60f3bc4e36762e0c2d9132cb,61036f849502754c05212a36,2021-07-29_23h25.23.886,Simcolourproject_2stim_asymm_v5,2020.2.10,Win32,60,61025ae37ef11b136ea224fe,,,,,,,,,2960,-26.3485229,-82.09088105,1,0,0,response5disk,,3,18.49992188,5.787900805,1,0,0,rectangle,18.49992188,5.787900805,1,0,0,18.49992188,5.787900805,1,0,0,0,24,24,136,1,,,,,,,,
,,,,,,,,,,,,,FF,,,,,,,,1.3594,,,,,,,,,,,,,,,,,,,,,,60f3bc4e36762e0c2d9132cb,61036f849502754c05212a36,2021-07-29_23h25.23.886,Simcolourproject_2stim_asymm_v5,2020.2.10,Win32,60,61025ae37ef11b136ea224fe,,,,,,,,,1338,56.07563989,-23.90906686,1,0,0,response3disk,,5,8.803026832,-1.484825969,1,0,0,rectangle,8.803026832,-1.484825969,1,0,0,8.803026832,-1.484825969,1,0,0,0,25,25,47,1,,,,,,,,
,,,,,,,,,,,,,FF,,,,,,,,1.2825,,,,,,,,,,,,,,,,,,,,,,60f3bc4e36762e0c2d9132cb,61036f849502754c05212a36,2021-07-29_23h25.23.886,Simcolourproject_2stim_asymm_v5,2020.2.10,Win32,60,61025ae37ef11b136ea224fe,,,,,,,,,825,33.65147299,-74.21209371,1,0,0,response3disk,,4,0.318104946,-5.72724992,1,0,0,rectangle,0.318104946,-5.72724992,1,0,0,0.318104946,-5.72724992,1,0,0,0,26,26,101,1,,,,,,,,
,,,,,,,,,,,,,FF,,,,,,,,1.1325,,,,,,,,,,,,,,,,,,,,,,60f3bc4e36762e0c2d9132cb,61036f849502754c05212a36,2021-07-29_23h25.23.886,Simcolourproject_2stim_asymm_v5,2020.2.10,Win32,60,61025ae37ef11b136ea224fe,,,,,,,,,2572,67.5908646,47.00003769,1,0,0,response1disk,,6,17.89389831,3.363658547,1,0,0,rectangle,17.89389831,3.363658547,1,0,0,17.89389831,3.363658547,1,0,0,0,27,27,25,1,,,,,,,,
,,,,,,,,,,,,,FF,,,,,,,,1.5333,,,,,,,,,,,,,,,,,,,,,,60f3bc4e36762e0c2d9132cb,61036f849502754c05212a36,2021-07-29_23h25.23.886,Simcolourproject_2stim_asymm_v5,2020.2.10,Win32,60,61025ae37ef11b136ea224fe,,,,,,,,,1592,64.56056178,33.66666828,1,0,0,response1disk,,6,-4.530342579,-3.909068227,1,0,0,rectangle,-4.530342579,-3.909068227,1,0,0,-4.530342579,-3.909068227,1,0,0,0,28,28,130,1,,,,,,,,
,,,,,,,,,,,,,FF,,,,,,,,0.9505,,,,,,,,,,,,,,,,,,,,,,60f3bc4e36762e0c2d9132cb,61036f849502754c05212a36,2021-07-29_23h25.23.886,Simcolourproject_2stim_asymm_v5,2020.2.10,Win32,60,61025ae37ef11b136ea224fe,,,,,,,,,1929,72.43934911,20.93939642,1,0,0,response1disk,,6,17.28783774,-2.696947098,1,0,0,rectangle,17.28783774,-2.696947098,1,0,0,17.28783774,-2.696947098,1,0,0,0,29,29,1,1,,,,,,,,
,,,,,,,,,,,,,FF,,,,,,,,1.3324,,,,,,,,,,,,,,,,,,,,,,60f3bc4e36762e0c2d9132cb,61036f849502754c05212a36,2021-07-29_23h25.23.886,Simcolourproject_2stim_asymm_v5,2020.2.10,Win32,60,61025ae37ef11b136ea224fe,,,,,,,,,1818,-68.77276242,-51.78785282,1,0,0,response5disk,,2,9.409050405,-3.909068227,1,0,0,rectangle,9.409050405,-3.909068227,1,0,0,9.409050405,-3.909068227,1,0,0,0,30,30,154,1,,,,,,,,
,,,,,,,,,,,,,FF,,,,,,,,1.4499,,,,,,,,,,,,,,,,,,,,,,60f3bc4e36762e0c2d9132cb,61036f849502754c05212a36,2021-07-29_23h25.23.886,Simcolourproject_2stim_asymm_v5,2020.2.10,Win32,60,61025ae37ef11b136ea224fe,,,,,,,,,3395,-72.4091258,25.18182037,1,0,0,response7disk,,1,4.560528898,-5.121189356,1,0,0,rectangle,4.560528898,-5.121189356,1,0,0,4.560528898,-5.121189356,1,0,0,0,31,31,27,1,,,,,,,,
,,,,,,,,,,,,,FF,,,,,,,,1.9004,,,,,,,,,,,,,,,,,,,,,,60f3bc4e36762e0c2d9132cb,61036f849502754c05212a36,2021-07-29_23h25.23.886,Simcolourproject_2stim_asymm_v5,2020.2.10,Win32,60,61025ae37ef11b136ea224fe,,,,,,,,,2516,49.40904766,-21.4848246,1,0,0,response3disk,,5,11.83329266,8.818203628,1,0,0,rectangle,11.83329266,8.818203628,1,0,0,11.83329266,8.818203628,1,0,0,0,32,32,32,1,,,,,,,,
,,,,,,,,,,,,,FF,,,,,,,,0.5801,,,,,,,,,,,,,,,,,,,,,,60f3bc4e36762e0c2d9132cb,61036f849502754c05212a36,2021-07-29_23h25.23.886,Simcolourproject_2stim_asymm_v5,2020.2.10,Win32,60,61025ae37ef11b136ea224fe,,,,,,,,,2638,62.74238008,27.60608113,1,0,0,response1disk,,6,-8.166705966,-3.303007662,1,0,0,rectangle,-8.166705966,-3.303007662,1,0,0,-8.166705966,-3.303007662,1,0,0,0,33,33,127,1,,,,,,,,
,,,,,,,,,,,,,FF,,,,,,,,1.021,,,,,,,,,,,,,,,,,,,,,,60f3bc4e36762e0c2d9132cb,61036f849502754c05212a36,2021-07-29_23h25.23.886,Simcolourproject_2stim_asymm_v5,2020.2.10,Win32,60,61025ae37ef11b136ea224fe,,,,,,,,,2503,40.92419976,-51.78785282,1,0,0,response3disk,,4,19.10601944,-3.909068227,1,0,0,rectangle,19.10601944,-3.909068227,1,0,0,19.10601944,-3.909068227,1,0,0,0,34,34,146,1,,,,,,,,
,,,,,,,,,,,,,FF,,,,,,,,0.8371,,,,,,,,,,,,,,,,,,,,,,60f3bc4e36762e0c2d9132cb,61036f849502754c05212a36,2021-07-29_23h25.23.886,Simcolourproject_2stim_asymm_v5,2020.2.10,Win32,60,61025ae37ef11b136ea224fe,,,,,,,,,2438,62.74238008,-34.21209645,1,0,0,response3disk,,5,9.409050405,-3.303007662,1,0,0,rectangle,9.409050405,-3.303007662,1,0,0,9.409050405,-3.303007662,1,0,0,0,35,35,143,1,,,,,,,,
,,,,,,,,,,,,,FF,,,,,,,,1.1696,,,,,,,,,,,,,,,,,,,,,,60f3bc4e36762e0c2d9132cb,61036f849502754c05212a36,2021-07-29_23h25.23.886,Simcolourproject_2stim_asymm_v5,2020.2.10,Win32,60,61025ae37ef11b136ea224fe,,,,,,,,,1028,62.13631952,-31.78785419,1,0,0,response3disk,,5,11.2272321,4.575779676,1,0,0,rectangle,11.2272321,4.575779676,1,0,0,11.2272321,4.575779676,1,0,0,0,36,36,90,1,,,,,,,,
,,,,,,,,,,,,,FF,,,,,,,,1.5658,,,,,,,,,,,,,,,,,,,,,,60f3bc4e36762e0c2d9132cb,61036f849502754c05212a36,2021-07-29_23h25.23.886,Simcolourproject_2stim_asymm_v5,2020.2.10,Win32,60,61025ae37ef11b136ea224fe,,,,,,,,,343,42.13632089,-68.15148807,1,0,0,response3disk,,4,12.43939022,-10.57573444,1,0,0,rectangle,12.43939022,-10.57573444,1,0,0,12.43939022,-10.57573444,1,0,0,0,37,37,122,1,,,,,,,,
,,,,,,,,,,,,,FF,,,,,,,,2.4155,,,,,,,,,,,,,,,,,,,,,,60f3bc4e36762e0c2d9132cb,61036f849502754c05212a36,2021-07-29_23h25.23.886,Simcolourproject_2stim_asymm_v5,2020.2.10,Win32,60,61025ae37ef11b136ea224fe,,,,,,,,,2884,49.40904766,-74.21209371,1,0,0,response3disk,,4,17.28783774,-8.151492178,1,0,0,rectangle,17.28783774,-8.151492178,1,0,0,17.28783774,-8.151492178,1,0,0,0,38,38,114,1,,,,,,,,
,,,,,,,,,,,,,FF,,,,,,,,1.2496,,,,,,,,,,,,,,,,,,,,,,60f3bc4e36762e0c2d9132cb,61036f849502754c05212a36,2021-07-29_23h25.23.886,Simcolourproject_2stim_asymm_v5,2020.2.10,Win32,60,61025ae37ef11b136ea224fe,,,,,,,,,36,40.92419976,60.93939368,1,0,0,response1disk,,7,8.803026832,-2.090886533,1,0,0,rectangle,8.803026832,-2.090886533,1,0,0,8.803026832,-2.090886533,1,0,0,0,39,39,94,1,,,,,,,,
,,,,,,,,,,,,,FF,,,,,,,,1.4996,,,,,,,,,,,,,,,,,,,,,,60f3bc4e36762e0c2d9132cb,61036f849502754c05212a36,2021-07-29_23h25.23.886,Simcolourproject_2stim_asymm_v5,2020.2.10,Win32,60,61025ae37ef11b136ea224fe,,,,,,,,,1375,-48.77276379,-74.21209371,1,0,0,response5disk,,3,-8.772766531,1.545476854,1,0,0,rectangle,-8.772766531,1.545476854,1,0,0,-8.772766531,1.545476854,1,0,0,0,40,40,105,1,,,,,,,,
,,,,,,,,,,,,,FF,,,,,,,,1.0327,,,,,,,,,,,,,,,,,,,,,,60f3bc4e36762e0c2d9132cb,61036f849502754c05212a36,2021-07-29_23h25.23.886,Simcolourproject_2stim_asymm_v5,2020.2.10,Win32,60,61025ae37ef11b136ea224fe,,,,,,,,,2571,76.68177307,33.66666828,1,0,0,response1disk,,6,12.43939022,3.363658547,1,0,0,rectangle,12.43939022,3.363658547,1,0,0,12.43939022,3.363658547,1,0,0,0,41,41,139,1,,,,,,,,
,,,,,,,,,,,,,FF,,,,,,,,0.8832,,,,,,,,,,,,,,,,,,,,,,60f3bc4e36762e0c2d9132cb,61036f849502754c05212a36,2021-07-29_23h25.23.886,Simcolourproject_2stim_asymm_v5,2020.2.10,Win32,60,61025ae37ef11b136ea224fe,,,,,,,,,226,73.65147024,23.36365718,1,0,0,response1disk,,6,2.742347204,-6.333310485,1,0,0,rectangle,2.742347204,-6.333310485,1,0,0,2.742347204,-6.333310485,1,0,0,0,42,42,132,1,,,,,,,,
,,,,,,,,,,,,,FF,,,,,,,,0.8665,,,,,,,,,,,,,,,,,,,,,,60f3bc4e36762e0c2d9132cb,61036f849502754c05212a36,2021-07-29_23h25.23.886,Simcolourproject_2stim_asymm_v5,2020.2.10,Win32,60,61025ae37ef11b136ea224fe,,,,,,,,,72,-42.71215814,-28.75755137,1,0,0,response5disk,,2,13.04541379,3.363658547,1,0,0,rectangle,13.04541379,3.363658547,1,0,0,13.04541379,3.363658547,1,0,0,0,43,43,62,1,,,,,,,,
,,,,,,,,,,,,,FF,,,,,,,,1.6667,,,,,,,,,,,,,,,,,,,,,,60f3bc4e36762e0c2d9132cb,61036f849502754c05212a36,2021-07-29_23h25.23.886,Simcolourproject_2stim_asymm_v5,2020.2.10,Win32,60,61025ae37ef11b136ea224fe,,,,,,,,,210,73.65147024,24.57574131,1,0,0,response1disk,,6,20.31810358,-8.151492178,1,0,0,rectangle,20.31810358,-8.151492178,1,0,0,20.31810358,-8.151492178,1,0,0,0,44,44,22,1,,,,,,,,
,,,,,,,,,,,,,FF,,,,,,,,1.5672,,,,,,,,,,,,,,,,,,,,,,60f3bc4e36762e0c2d9132cb,61036f849502754c05212a36,2021-07-29_23h25.23.886,Simcolourproject_2stim_asymm_v5,2020.2.10,Win32,60,61025ae37ef11b136ea224fe,,,,,,,,,2650,77.8938942,28.81820226,1,0,0,response1disk,,6,-4.530342579,-6.333310485,1,0,0,rectangle,-4.530342579,-6.333310485,1,0,0,-4.530342579,-6.333310485,1,0,0,0,45,45,54,1,,,,,,,,
,,,,,,,,,,,,,FF,,,,,,,,1.4332,,,,,,,,,,,,,,,,,,,,,,60f3bc4e36762e0c2d9132cb,61036f849502754c05212a36,2021-07-29_23h25.23.886,Simcolourproject_2stim_asymm_v5,2020.2.10,Win32,60,61025ae37ef11b136ea224fe,,,,,,,,,4207,-53.01515075,-32.99997532,1,0,0,response5disk,,2,21.5302617,7.606082499,1,0,0,rectangle,21.5302617,7.606082499,1,0,0,21.5302617,7.606082499,1,0,0,0,46,46,104,1,,,,,,,,
,,,,,,,,,,,,,FF,,,,,,,,2.2326,,,,,,,,,,,,,,,,,,,,,,60f3bc4e36762e0c2d9132cb,61036f849502754c05212a36,2021-07-29_23h25.23.886,Simcolourproject_2stim_asymm_v5,2020.2.10,Win32,60,61025ae37ef11b136ea224fe,,,,,,,,,3899,-20.28791726,-72.99997258,1,0,0,response5disk,,3,15.46965605,-0.878765404,1,0,0,rectangle,15.46965605,-0.878765404,1,0,0,15.46965605,-0.878765404,1,0,0,0,47,47,40,1,,,,,,,,
,,,,,,,,,,,,,FF,,,,,,,,0.9161,,,,,,,,,,,,,,,,,,,,,,60f3bc4e36762e0c2d9132cb,61036f849502754c05212a36,2021-07-29_23h25.23.886,Simcolourproject_2stim_asymm_v5,2020.2.10,Win32,60,61025ae37ef11b136ea224fe,,,,,,,,,327,82.74237871,31.24242602,1,0,0,response1disk,,6,9.409050405,-5.121189356,1,0,0,rectangle,9.409050405,-5.121189356,1,0,0,9.409050405,-5.121189356,1,0,0,0,48,48,66,1,,,,,,,,
,,,,,,,,,,,,,FF,,,,,,,,0.9994,,,,,,,,,,,,,,,,,,,,,,60f3bc4e36762e0c2d9132cb,61036f849502754c05212a36,2021-07-29_23h25.23.886,Simcolourproject_2stim_asymm_v5,2020.2.10,Win32,60,61025ae37ef11b136ea224fe,,,,,,,,,2974,71.22722799,36.6969896,1,0,0,response1disk,,6,13.04541379,10.63638532,1,0,0,rectangle,13.04541379,10.63638532,1,0,0,13.04541379,10.63638532,1,0,0,0,49,49,157,1,,,,,,,,
,,,,,,,,,,,,,FF,,,,,,,,3.6158,,,,,,,,,,,,,,,,,,,,,,60f3bc4e36762e0c2d9132cb,61036f849502754c05212a36,2021-07-29_23h25.23.886,Simcolourproject_2stim_asymm_v5,2020.2.10,Win32,60,61025ae37ef11b136ea224fe,,,,,,,,,2806,56.07563989,-30.57573307,1,0,0,response3disk,,5,-0.287918627,-6.333310485,1,0,0,rectangle,-0.287918627,-6.333310485,1,0,0,-0.287918627,-6.333310485,1,0,0,0,50,50,29,1,,,,,,,,
,,,,,,,,,,,,,FF,,,,,,,,0.7497,,,,,,,,,,,,,,,,,,,,,,60f3bc4e36762e0c2d9132cb,61036f849502754c05212a36,2021-07-29_23h25.23.886,Simcolourproject_2stim_asymm_v5,2020.2.10,Win32,60,61025ae37ef11b136ea224fe,,,,,,,,,291,74.25753081,23.96973624,1,0,0,response1disk,,6,17.89389831,0.939416289,1,0,0,rectangle,17.89389831,0.939416289,1,0,0,17.89389831,0.939416289,1,0,0,0,51,51,145,1,,,,,,,,
,,,,,,,,,,,,,FF,,,,,,,,3.0153,,,,,,,,,,,,,,,,,,,,,,60f3bc4e36762e0c2d9132cb,61036f849502754c05212a36,2021-07-29_23h25.23.886,Simcolourproject_2stim_asymm_v5,2020.2.10,Win32,60,61025ae37ef11b136ea224fe,,,,,,,,,2122,64.56056178,25.78789943,1,0,0,response1disk,,6,2.136360622,-3.303007662,1,0,0,rectangle,37.28783637,-75.42421484,1,0,0,2.742347204,1.545476854,1,0,0,0,52,52,128,1,,response3disk_3,TRUE,4,4,"[256,158,189,278,238,208,85,255,167,277,229,179,223,320,242,53,143,23,294,137]",2.2165,rectangle
,,,,,,,,,,,,,FF,,,,,,,,0.9826,,,,,,,,,,,,,,,,,,,,,,60f3bc4e36762e0c2d9132cb,61036f849502754c05212a36,2021-07-29_23h25.23.886,Simcolourproject_2stim_asymm_v5,2020.2.10,Win32,60,61025ae37ef11b136ea224fe,,,,,,,,,3469,-80.28787615,28.2121232,1,0,0,response7disk,,1,2.742347204,2.757597983,1,0,0,rectangle,2.742347204,2.757597983,1,0,0,2.742347204,2.757597983,1,0,0,0,53,53,10,1,,,,,,,,
,,,,,,,,,,,,,FF,,,,,,,,0.9328,,,,,,,,,,,,,,,,,,,,,,60f3bc4e36762e0c2d9132cb,61036f849502754c05212a36,2021-07-29_23h25.23.886,Simcolourproject_2stim_asymm_v5,2020.2.10,Win32,60,61025ae37ef11b136ea224fe,,,,,,,,,2779,-64.53033847,-37.24239928,1,0,0,response5disk,,2,2.136360622,-2.696947098,1,0,0,rectangle,2.136360622,-2.696947098,1,0,0,2.136360622,-2.696947098,1,0,0,0,54,54,110,1,,,,,,,,
,,,,,,,,,,,,,FF,,,,,,,,1.4334,,,,,,,,,,,,,,,,,,,,,,60f3bc4e36762e0c2d9132cb,61036f849502754c05212a36,2021-07-29_23h25.23.886,Simcolourproject_2stim_asymm_v5,2020.2.10,Win32,60,61025ae37ef11b136ea224fe,,,,,,,,,1825,-29.98488629,-50.57573169,1,0,0,response5disk,,3,16.68174019,-0.878765404,1,0,0,rectangle,16.68174019,-0.878765404,1,0,0,16.68174019,-0.878765404,1,0,0,0,55,55,150,1,,,,,,,,
,,,,,,,,,,,,,FF,,,,,,,,1.1492,,,,,,,,,,,,,,,,,,,,,,60f3bc4e36762e0c2d9132cb,61036f849502754c05212a36,2021-07-29_23h25.23.886,Simcolourproject_2stim_asymm_v5,2020.2.10,Win32,60,61025ae37ef11b136ea224fe,,,,,,,,,2937,32.43938885,-60.27270073,1,0,0,response3disk,,4,5.772687018,-2.696947098,1,0,0,rectangle,5.772687018,-2.696947098,1,0,0,5.772687018,-2.696947098,1,0,0,0,56,56,135,1,,,,,,,,
,,,,,,,,,,,,,FF,,,,,,,,1.4661,,,,,,,,,,,,,,,,,,,,,,60f3bc4e36762e0c2d9132cb,61036f849502754c05212a36,2021-07-29_23h25.23.886,Simcolourproject_2stim_asymm_v5,2020.2.10,Win32,60,61025ae37ef11b136ea224fe,,,,,,,,,2143,42.13632089,57.30304879,1,0,0,response1disk,,7,24.56052753,2.151537418,1,0,0,rectangle,24.56052753,2.151537418,1,0,0,24.56052753,2.151537418,1,0,0,0,57,57,77,1,,,,,,,,
,,,,,,,,,,,,,FF,,,,,,,,1.5993,,,,,,,,,,,,,,,,,,,,,,60f3bc4e36762e0c2d9132cb,61036f849502754c05212a36,2021-07-29_23h25.23.886,Simcolourproject_2stim_asymm_v5,2020.2.10,Win32,60,61025ae37ef11b136ea224fe,,,,,,,,,2332,43.95450258,53.06064333,1,0,0,response1disk,,7,25.77268565,7.000021935,1,0,0,rectangle,25.77268565,7.000021935,1,0,0,25.77268565,7.000021935,1,0,0,0,58,58,72,1,,,,,,,,
,,,,,,,,,,,,,FF,,,,,,,,0.6335,,,,,,,,,,,,,,,,,,,,,,60f3bc4e36762e0c2d9132cb,61036f849502754c05212a36,2021-07-29_23h25.23.886,Simcolourproject_2stim_asymm_v5,2020.2.10,Win32,60,61025ae37ef11b136ea224fe,,,,,,,,,397,42.74238145,60.33335161,1,0,0,response1disk,,7,22.74234583,7.000021935,1,0,0,rectangle,22.74234583,7.000021935,1,0,0,22.74234583,7.000021935,1,0,0,0,59,59,144,1,,,,,,,,
,,,,,,,,,,,,,FF,,,,,,,,1.3664,,,,,,,,,,,,,,,,,,,,,,60f3bc4e36762e0c2d9132cb,61036f849502754c05212a36,2021-07-29_23h25.23.886,Simcolourproject_2stim_asymm_v5,2020.2.10,Win32,60,61025ae37ef11b136ea224fe,,,,,,,,,1115,57.287835,-24.51512742,1,0,0,response3disk,,5,8.196892285,2.151537418,1,0,0,rectangle,8.196892285,2.151537418,1,0,0,8.196892285,2.151537418,1,0,0,0,60,60,16,1,,,,,,,,
,,,,,,,,,,,,,FF,,,,,,,,3.3986,,,,,,,,,,,,,,,,,,,,,,60f3bc4e36762e0c2d9132cb,61036f849502754c05212a36,2021-07-29_23h25.23.886,Simcolourproject_2stim_asymm_v5,2020.2.10,Win32,60,61025ae37ef11b136ea224fe,,,,,,,,,2529,39.10601807,53.66666691,1,0,0,response1disk,,7,8.196892285,3.969719112,1,0,0,rectangle,8.196892285,3.969719112,1,0,0,8.196892285,3.969719112,1,0,0,0,61,61,58,1,,,,,,,,
,,,,,,,,,,,,,FF,,,,,,,,0.6497,,,,,,,,,,,,,,,,,,,,,,60f3bc4e36762e0c2d9132cb,61036f849502754c05212a36,2021-07-29_23h25.23.886,Simcolourproject_2stim_asymm_v5,2020.2.10,Win32,60,61025ae37ef11b136ea224fe,,,,,,,,,1499,36.68173882,54.87882503,1,0,0,response1disk,,7,10.01514796,5.181840241,1,0,0,rectangle,10.01514796,5.181840241,1,0,0,10.01514796,5.181840241,1,0,0,0,62,62,33,1,,,,,,,,
,,,,,,,,,,,,,FF,,,,,,,,1.4332,,,,,,,,,,,,,,,,,,,,,,60f3bc4e36762e0c2d9132cb,61036f849502754c05212a36,2021-07-29_23h25.23.886,Simcolourproject_2stim_asymm_v5,2020.2.10,Win32,60,61025ae37ef11b136ea224fe,,,,,,,,,4029,65.77268291,-37.24239928,1,0,0,response3disk,,5,-9.378790104,-0.878765404,1,0,0,rectangle,-9.378790104,-0.878765404,1,0,0,-9.378790104,-0.878765404,1,0,0,0,63,63,17,1,,,,,,,,
,,,,,,,,,,,,,FF,,,,,,,,1.8498,,,,,,,,,,,,,,,,,,,,,,60f3bc4e36762e0c2d9132cb,61036f849502754c05212a36,2021-07-29_23h25.23.886,Simcolourproject_2stim_asymm_v5,2020.2.10,Win32,60,61025ae37ef11b136ea224fe,,,,,,,,,722,43.95450258,-69.36360919,1,0,0,response3disk,,4,15.46965605,-3.909068227,1,0,0,rectangle,15.46965605,-3.909068227,1,0,0,15.46965605,-3.909068227,1,0,0,0,64,64,89,1,,,,,,,,
,,,,,,,,,,,,,FF,,,,,,,,1.4494,,,,,,,,,,,,,,,,,,,,,,60f3bc4e36762e0c2d9132cb,61036f849502754c05212a36,2021-07-29_23h25.23.886,Simcolourproject_2stim_asymm_v5,2020.2.10,Win32,60,61025ae37ef11b136ea224fe,,,,,,,,,3299,62.74238008,-41.48482323,1,0,0,response3disk,,5,1.530263066,-9.363613307,1,0,0,rectangle,1.530263066,-9.363613307,1,0,0,1.530263066,-9.363613307,1,0,0,0,65,65,6,1,,,,,,,,
,,,,,,,,,,,,,FF,,,,,,,,1.0647,,,,,,,,,,,,,,,,,,,,,,60f3bc4e36762e0c2d9132cb,61036f849502754c05212a36,2021-07-29_23h25.23.886,Simcolourproject_2stim_asymm_v5,2020.2.10,Win32,60,61025ae37ef11b136ea224fe,,,,,,,,,2864,43.95450258,62.75757537,1,0,0,response1disk,,7,5.166663444,3.363658547,1,0,0,rectangle,5.166663444,3.363658547,1,0,0,5.166663444,3.363658547,1,0,0,0,66,66,68,1,,,,,,,,
,,,,,,,,,,,,,FF,,,,,,,,1.9654,,,,,,,,,,,,,,,,,,,,,,60f3bc4e36762e0c2d9132cb,61036f849502754c05212a36,2021-07-29_23h25.23.886,Simcolourproject_2stim_asymm_v5,2020.2.10,Win32,60,61025ae37ef11b136ea224fe,,,,,,,,,2351,74.25753081,-35.42421758,1,0,0,response3disk,,5,3.348518742,-3.303007662,1,0,0,rectangle,3.348518742,-3.303007662,1,0,0,3.348518742,-3.303007662,1,0,0,0,67,67,126,1,,,,,,,,
,,,,,,,,,,,,,FF,,,,,,,,1.5665,,,,,,,,,,,,,,,,,,,,,,60f3bc4e36762e0c2d9132cb,61036f849502754c05212a36,2021-07-29_23h25.23.886,Simcolourproject_2stim_asymm_v5,2020.2.10,Win32,60,61025ae37ef11b136ea224fe,,,,,,,,,2768,36.07575223,-69.96966976,1,0,0,response3disk,,4,-0.287918627,-5.121189356,1,0,0,rectangle,-0.287918627,-5.121189356,1,0,0,-0.287918627,-5.121189356,1,0,0,0,68,68,138,1,,,,,,,,
,,,,,,,,,,,,,FF,,,,,,,,0.8827,,,,,,,,,,,,,,,,,,,,,,60f3bc4e36762e0c2d9132cb,61036f849502754c05212a36,2021-07-29_23h25.23.886,Simcolourproject_2stim_asymm_v5,2020.2.10,Win32,60,61025ae37ef11b136ea224fe,,,,,,,,,3970,-32.40912855,-67.5454275,1,0,0,response5disk,,3,0.924202502,-2.090886533,1,0,0,rectangle,0.924202502,-2.090886533,1,0,0,0.924202502,-2.090886533,1,0,0,0,69,69,55,1,,,,,,,,
,,,,,,,,,,,,,FF,,,,,,,,1.3666,,,,,,,,,,,,,,,,,,,,,,60f3bc4e36762e0c2d9132cb,61036f849502754c05212a36,2021-07-29_23h25.23.886,Simcolourproject_2stim_asymm_v5,2020.2.10,Win32,60,61025ae37ef11b136ea224fe,,,,,,,,,964,51.22722936,60.93939368,1,0,0,response1disk,,7,20.31810358,3.969719112,1,0,0,rectangle,20.31810358,3.969719112,1,0,0,20.31810358,3.969719112,1,0,0,0,70,70,70,1,,,,,,,,
,,,,,,,,,,,,,FF,,,,,,,,0.7164,,,,,,,,,,,,,,,,,,,,,,60f3bc4e36762e0c2d9132cb,61036f849502754c05212a36,2021-07-29_23h25.23.886,Simcolourproject_2stim_asymm_v5,2020.2.10,Win32,60,61025ae37ef11b136ea224fe,,,,,,,,,708,38.49992051,60.33335161,1,0,0,response1disk,,7,8.803026832,-1.484825969,1,0,0,rectangle,8.803026832,-1.484825969,1,0,0,8.803026832,-1.484825969,1,0,0,0,71,71,91,1,,,,,,,,
,,,,,,,,,,,,,FF,,,,,,,,2.3662,,,,,,,,,,,,,,,,,,,,,,60f3bc4e36762e0c2d9132cb,61036f849502754c05212a36,2021-07-29_23h25.23.886,Simcolourproject_2stim_asymm_v5,2020.2.10,Win32,60,61025ae37ef11b136ea224fe,,,,,,,,,2952,-25.13640177,-79.06057823,1,0,0,response5disk,,3,-5.136403143,-5.121189356,1,0,0,rectangle,-5.136403143,-5.121189356,1,0,0,-5.136403143,-5.121189356,1,0,0,0,72,72,12,1,,,,,,,,
,,,,,,,,,,,,,FF,,,,,,,,3.3318,,,,,,,,,,,,,,,,,,,,,,60f3bc4e36762e0c2d9132cb,61036f849502754c05212a36,2021-07-29_23h25.23.886,Simcolourproject_2stim_asymm_v5,2020.2.10,Win32,60,61025ae37ef11b136ea224fe,,,,,,,,,268,46.98480541,59.72729105,1,0,0,response1disk,,7,17.89389831,-5.121189356,1,0,0,rectangle,17.89389831,-5.121189356,1,0,0,17.89389831,-5.121189356,1,0,0,0,73,73,23,1,,,,,,,,
,,,,,,,,,,,,,FF,,,,,,,,1.0496,,,,,,,,,,,,,,,,,,,,,,60f3bc4e36762e0c2d9132cb,61036f849502754c05212a36,2021-07-29_23h25.23.886,Simcolourproject_2stim_asymm_v5,2020.2.10,Win32,60,61025ae37ef11b136ea224fe,,,,,,,,,1007,37.89389694,64.57573857,1,0,0,response1disk,,7,9.409050405,-5.121189356,1,0,0,rectangle,9.409050405,-5.121189356,1,0,0,9.409050405,-5.121189356,1,0,0,0,74,74,75,1,,,,,,,,
,,,,,,,,,,,,,FF,,,,,,,,0.6165,,,,,,,,,,,,,,,,,,,,,,60f3bc4e36762e0c2d9132cb,61036f849502754c05212a36,2021-07-29_23h25.23.886,Simcolourproject_2stim_asymm_v5,2020.2.10,Win32,60,61025ae37ef11b136ea224fe,,,,,,,,,2465,28.80302546,45.181819,1,0,0,response1disk,,7,9.409050405,-3.909068227,1,0,0,rectangle,9.409050405,-3.909068227,1,0,0,9.409050405,-3.909068227,1,0,0,0,75,75,67,1,,,,,,,,
,,,,,,,,,,,,,FF,,,,,,,,1.299,,,,,,,,,,,,,,,,,,,,,,60f3bc4e36762e0c2d9132cb,61036f849502754c05212a36,2021-07-29_23h25.23.886,Simcolourproject_2stim_asymm_v5,2020.2.10,Win32,60,61025ae37ef11b136ea224fe,,,,,,,,,157,74.86359137,-42.09088379,1,0,0,response3disk,,5,5.772687018,-2.090886533,1,0,0,rectangle,5.772687018,-2.090886533,1,0,0,5.772687018,-2.090886533,1,0,0,0,76,76,116,1,,,,,,,,
,,,,,,,,,,,,,FF,,,,,,,,0.9826,,,,,,,,,,,,,,,,,,,,,,60f3bc4e36762e0c2d9132cb,61036f849502754c05212a36,2021-07-29_23h25.23.886,Simcolourproject_2stim_asymm_v5,2020.2.10,Win32,60,61025ae37ef11b136ea224fe,,,,,,,,,851,71.83328855,30.03030489,1,0,0,response1disk,,6,5.772687018,3.969719112,1,0,0,rectangle,5.772687018,3.969719112,1,0,0,5.772687018,3.969719112,1,0,0,0,77,77,38,1,,,,,,,,
,,,,,,,,,,,,,FF,,,,,,,,1.2494,,,,,,,,,,,,,,,,,,,,,,60f3bc4e36762e0c2d9132cb,61036f849502754c05212a36,2021-07-29_23h25.23.886,Simcolourproject_2stim_asymm_v5,2020.2.10,Win32,60,61025ae37ef11b136ea224fe,,,,,,,,,3824,32.43938885,-71.78785145,1,0,0,response3disk,,4,1.530263066,-10.57573444,1,0,0,rectangle,1.530263066,-10.57573444,1,0,0,1.530263066,-10.57573444,1,0,0,0,78,78,98,1,,,,,,,,
,,,,,,,,,,,,,FF,,,,,,,,1.2165,,,,,,,,,,,,,,,,,,,,,,60f3bc4e36762e0c2d9132cb,61036f849502754c05212a36,2021-07-29_23h25.23.886,Simcolourproject_2stim_asymm_v5,2020.2.10,Win32,60,61025ae37ef11b136ea224fe,,,,,,,,,1068,53.65147161,-32.39391476,1,0,0,response3disk,,5,14.25757191,-0.878765404,1,0,0,rectangle,14.25757191,-0.878765404,1,0,0,14.25757191,-0.878765404,1,0,0,0,79,79,93,1,,,,,,,,
,,,,,,,,,,,,,FF,,,,,,,,2.1163,,,,,,,,,,,,,,,,,,,,,,60f3bc4e36762e0c2d9132cb,61036f849502754c05212a36,2021-07-29_23h25.23.886,Simcolourproject_2stim_asymm_v5,2020.2.10,Win32,60,61025ae37ef11b136ea224fe,,,,,,,,,4057,70.01510686,27.60608113,1,0,0,response1disk,,6,19.10601944,-0.27270484,1,0,0,rectangle,19.10601944,-0.27270484,1,0,0,19.10601944,-0.27270484,1,0,0,0,80,80,79,1,,,,,,,,
,,,,,,,,,,,,,FF,,,,,,,,1.2158,,,,,,,,,,,,,,,,,,,,,,60f3bc4e36762e0c2d9132cb,61036f849502754c05212a36,2021-07-29_23h25.23.886,Simcolourproject_2stim_asymm_v5,2020.2.10,Win32,60,61025ae37ef11b136ea224fe,,,,,,,,,2844,85.77268153,34.8788264,1,0,0,response1disk,,6,22.13635925,-4.515128791,1,0,0,rectangle,22.13635925,-4.515128791,1,0,0,22.13635925,-4.515128791,1,0,0,0,81,81,87,1,,,,,,,,
,,,,,,,,,,,,,FF,,,,,,,,0.8827,,,,,,,,,,,,,,,,,,,,,,60f3bc4e36762e0c2d9132cb,61036f849502754c05212a36,2021-07-29_23h25.23.886,Simcolourproject_2stim_asymm_v5,2020.2.10,Win32,60,61025ae37ef11b136ea224fe,,,,,,,,,4213,39.10601807,53.66666691,1,0,0,response1disk,,7,-5.742426717,1.545476854,1,0,0,rectangle,-5.742426717,1.545476854,1,0,0,-5.742426717,1.545476854,1,0,0,0,82,82,152,1,,,,,,,,
,,,,,,,,,,,,,FF,,,,,,,,1.6662,,,,,,,,,,,,,,,,,,,,,,60f3bc4e36762e0c2d9132cb,61036f849502754c05212a36,2021-07-29_23h25.23.886,Simcolourproject_2stim_asymm_v5,2020.2.10,Win32,60,61025ae37ef11b136ea224fe,,,,,,,,,4124,35.46965468,48.21212183,1,0,0,response1disk,,7,8.803026832,10.63638532,1,0,0,rectangle,8.803026832,10.63638532,1,0,0,8.803026832,10.63638532,1,0,0,0,83,83,7,1,,,,,,,,
,,,,,,,,,,,,,FF,,,,,,,,1.2667,,,,,,,,,,,,,,,,,,,,,,60f3bc4e36762e0c2d9132cb,61036f849502754c05212a36,2021-07-29_23h25.23.886,Simcolourproject_2stim_asymm_v5,2020.2.10,Win32,60,61025ae37ef11b136ea224fe,,,,,,,,,3192,80.92419702,27.60608113,1,0,0,response1disk,,6,13.04541379,0.939416289,1,0,0,rectangle,-19.07579613,-72.99997258,1,0,0,-5.742426717,-3.909068227,1,0,0,0,84,84,41,1,,response5disk_3,TRUE,3,3,"[256,158,189,278,238,208,85,255,167,277,229,179,223,320,242,53,143,23,294,137]",1.8328,rectangle
,,,,,,,,,,,,,FF,,,,,,,,1.2498,,,,,,,,,,,,,,,,,,,,,,60f3bc4e36762e0c2d9132cb,61036f849502754c05212a36,2021-07-29_23h25.23.886,Simcolourproject_2stim_asymm_v5,2020.2.10,Win32,60,61025ae37ef11b136ea224fe,,,,,,,,,43,48.19692653,47.60607976,1,0,0,response1disk,,6,14.25757191,-3.909068227,1,0,0,rectangle,14.25757191,-3.909068227,1,0,0,14.25757191,-3.909068227,1,0,0,0,85,85,56,1,,,,,,,,
,,,,,,,,,,,,,FF,,,,,,,,1.5831,,,,,,,,,,,,,,,,,,,,,,60f3bc4e36762e0c2d9132cb,61036f849502754c05212a36,2021-07-29_23h25.23.886,Simcolourproject_2stim_asymm_v5,2020.2.10,Win32,60,61025ae37ef11b136ea224fe,,,,,,,,,3967,-70.59094411,-36.03027815,1,0,0,response5disk,,2,-10.59094822,1.545476854,1,0,0,rectangle,-10.59094822,1.545476854,1,0,0,-10.59094822,1.545476854,1,0,0,0,86,86,123,1,,,,,,,,
,,,,,,,,,,,,,FF,,,,,,,,2.3158,,,,,,,,,,,,,,,,,,,,,,60f3bc4e36762e0c2d9132cb,61036f849502754c05212a36,2021-07-29_23h25.23.886,Simcolourproject_2stim_asymm_v5,2020.2.10,Win32,60,61025ae37ef11b136ea224fe,,,,,,,,,3168,75.46965194,30.03030489,1,0,0,response1disk,,6,5.166663444,-6.939371049,1,0,0,rectangle,5.166663444,-6.939371049,1,0,0,5.166663444,-6.939371049,1,0,0,0,87,87,9,1,,,,,,,,
,,,,,,,,,,,,,FF,,,,,,,,0.8001,,,,,,,,,,,,,,,,,,,,,,60f3bc4e36762e0c2d9132cb,61036f849502754c05212a36,2021-07-29_23h25.23.886,Simcolourproject_2stim_asymm_v5,2020.2.10,Win32,60,61025ae37ef11b136ea224fe,,,,,,,,,3105,-65.7424226,-36.63633871,1,0,0,response5disk,,2,1.530263066,-2.090886533,1,0,0,rectangle,1.530263066,-2.090886533,1,0,0,1.530263066,-2.090886533,1,0,0,0,88,88,69,1,,,,,,,,
,,,,,,,,,,,,,FF,,,,,,,,2.1326,,,,,,,,,,,,,,,,,,,,,,60f3bc4e36762e0c2d9132cb,61036f849502754c05212a36,2021-07-29_23h25.23.886,Simcolourproject_2stim_asymm_v5,2020.2.10,Win32,60,61025ae37ef11b136ea224fe,,,,,,,,,3991,34.86359411,43.96973487,1,0,0,response1disk,,7,-3.924245023,-4.515128791,1,0,0,rectangle,-3.924245023,-4.515128791,1,0,0,-3.924245023,-4.515128791,1,0,0,0,89,89,0,1,,,,,,,,
,,,,,,,,,,,,,FF,,,,,,,,0.8666,,,,,,,,,,,,,,,,,,,,,,60f3bc4e36762e0c2d9132cb,61036f849502754c05212a36,2021-07-29_23h25.23.886,Simcolourproject_2stim_asymm_v5,2020.2.10,Win32,60,61025ae37ef11b136ea224fe,,,,,,,,,3548,20.31810358,50.63638258,1,0,0,response1disk,,7,-14.22731161,1.545476854,1,0,0,rectangle,-14.22731161,1.545476854,1,0,0,-14.22731161,1.545476854,1,0,0,0,90,90,65,1,,,,,,,,
,,,,,,,,,,,,,FF,,,,,,,,2.2486,,,,,,,,,,,,,,,,,,,,,,60f3bc4e36762e0c2d9132cb,61036f849502754c05212a36,2021-07-29_23h25.23.886,Simcolourproject_2stim_asymm_v5,2020.2.10,Win32,60,61025ae37ef11b136ea224fe,,,,,,,,,10,57.287835,-31.18179363,1,0,0,response3disk,,5,3.348518742,-1.484825969,1,0,0,rectangle,3.348518742,-1.484825969,1,0,0,3.348518742,-1.484825969,1,0,0,0,91,91,140,1,,,,,,,,
,,,,,,,,,,,,,FF,,,,,,,,0.8824,,,,,,,,,,,,,,,,,,,,,,60f3bc4e36762e0c2d9132cb,61036f849502754c05212a36,2021-07-29_23h25.23.886,Simcolourproject_2stim_asymm_v5,2020.2.10,Win32,60,61025ae37ef11b136ea224fe,,,,,,,,,1220,-34.83333381,-58.45451903,1,0,0,response5disk,,3,-9.378790104,-0.27270484,1,0,0,rectangle,-9.378790104,-0.27270484,1,0,0,-9.378790104,-0.27270484,1,0,0,0,92,92,39,1,,,,,,,,
,,,,,,,,,,,,,FF,,,,,,,,0.983,,,,,,,,,,,,,,,,,,,,,,60f3bc4e36762e0c2d9132cb,61036f849502754c05212a36,2021-07-29_23h25.23.886,Simcolourproject_2stim_asymm_v5,2020.2.10,Win32,60,61025ae37ef11b136ea224fe,,,,,,,,,3650,48.8029871,65.18181763,1,0,0,response1disk,,7,22.74234583,5.787900805,1,0,0,rectangle,22.74234583,5.787900805,1,0,0,22.74234583,5.787900805,1,0,0,0,93,93,120,1,,,,,,,,
,,,,,,,,,,,,,FF,,,,,,,,0.899,,,,,,,,,,,,,,,,,,,,,,60f3bc4e36762e0c2d9132cb,61036f849502754c05212a36,2021-07-29_23h25.23.886,Simcolourproject_2stim_asymm_v5,2020.2.10,Win32,60,61025ae37ef11b136ea224fe,,,,,,,,,2463,68.19692516,34.8788264,1,0,0,response1disk,,6,-2.712160885,-2.696947098,1,0,0,rectangle,-2.712160885,-2.696947098,1,0,0,-2.712160885,-2.696947098,1,0,0,0,94,94,59,1,,,,,,,,
,,,,,,,,,,,,,FF,,,,,,,,1.1162,,,,,,,,,,,,,,,,,,,,,,60f3bc4e36762e0c2d9132cb,61036f849502754c05212a36,2021-07-29_23h25.23.886,Simcolourproject_2stim_asymm_v5,2020.2.10,Win32,60,61025ae37ef11b136ea224fe,,,,,,,,,3052,-39.68189231,-84.51512331,1,0,0,response5disk,,3,-2.712160885,-9.969673872,1,0,0,rectangle,-2.712160885,-9.969673872,1,0,0,-2.712160885,-9.969673872,1,0,0,0,95,95,108,1,,,,,,,,
,,,,,,,,,,,,,FF,,,,,,,,0.8161,,,,,,,,,,,,,,,,,,,,,,60f3bc4e36762e0c2d9132cb,61036f849502754c05212a36,2021-07-29_23h25.23.886,Simcolourproject_2stim_asymm_v5,2020.2.10,Win32,60,61025ae37ef11b136ea224fe,,,,,,,,,236,26.98484377,51.84848521,1,0,0,response1disk,,7,8.196892285,-0.878765404,1,0,0,rectangle,8.196892285,-0.878765404,1,0,0,8.196892285,-0.878765404,1,0,0,0,96,96,137,1,,,,,,,,
,,,,,,,,,,,,,FF,,,,,,,,0.933,,,,,,,,,,,,,,,,,,,,,,60f3bc4e36762e0c2d9132cb,61036f849502754c05212a36,2021-07-29_23h25.23.886,Simcolourproject_2stim_asymm_v5,2020.2.10,Win32,60,61025ae37ef11b136ea224fe,,,,,,,,,952,76.68177307,-40.87876266,1,0,0,response3disk,,5,9.409050405,-9.969673872,1,0,0,rectangle,9.409050405,-9.969673872,1,0,0,9.409050405,-9.969673872,1,0,0,0,97,97,103,1,,,,,,,,
,,,,,,,,,,,,,FF,,,,,,,,1.6819,,,,,,,,,,,,,,,,,,,,,,60f3bc4e36762e0c2d9132cb,61036f849502754c05212a36,2021-07-29_23h25.23.886,Simcolourproject_2stim_asymm_v5,2020.2.10,Win32,60,61025ae37ef11b136ea224fe,,,,,,,,,1696,62.74238008,27.60608113,1,0,0,response1disk,,6,11.83329266,5.181840241,1,0,0,rectangle,11.83329266,5.181840241,1,0,0,11.83329266,5.181840241,1,0,0,0,98,98,78,1,,,,,,,,
,,,,,,,,,,,,,FF,,,,,,,,2.3325,,,,,,,,,,,,,,,,,,,,,,60f3bc4e36762e0c2d9132cb,61036f849502754c05212a36,2021-07-29_23h25.23.886,Simcolourproject_2stim_asymm_v5,2020.2.10,Win32,60,61025ae37ef11b136ea224fe,,,,,,,,,1445,-76.04548919,39.72729242,1,0,0,response7disk,,1,3.348518742,5.181840241,1,0,0,rectangle,3.348518742,5.181840241,1,0,0,3.348518742,5.181840241,1,0,0,0,99,99,155,1,,,,,,,,
,,,,,,,,,,,,,FF,,,,,,,,0.8177,,,,,,,,,,,,,,,,,,,,,,60f3bc4e36762e0c2d9132cb,61036f849502754c05212a36,2021-07-29_23h25.23.886,Simcolourproject_2stim_asymm_v5,2020.2.10,Win32,60,61025ae37ef11b136ea224fe,,,,,,,,,3335,31.22723073,51.24244314,1,0,0,response1disk,,7,3.954505324,2.151537418,1,0,0,rectangle,3.954505324,2.151537418,1,0,0,3.954505324,2.151537418,1,0,0,0,100,100,100,1,,,,,,,,
,,,,,,,,,,,,,FF,,,,,,,,1.0325,,,,,,,,,,,,,,,,,,,,,,60f3bc4e36762e0c2d9132cb,61036f849502754c05212a36,2021-07-29_23h25.23.886,Simcolourproject_2stim_asymm_v5,2020.2.10,Win32,60,61025ae37ef11b136ea224fe,,,,,,,,,3101,-50.59094548,-40.2727021,1,0,0,response5disk,,2,0.318104946,6.39396137,1,0,0,rectangle,0.318104946,6.39396137,1,0,0,0.318104946,6.39396137,1,0,0,0,101,101,88,1,,,,,,,,
,,,,,,,,,,,,,FF,,,,,,,,1.6124,,,,,,,,,,,,,,,,,,,,,,60f3bc4e36762e0c2d9132cb,61036f849502754c05212a36,2021-07-29_23h25.23.886,Simcolourproject_2stim_asymm_v5,2020.2.10,Win32,60,61025ae37ef11b136ea224fe,,,,,,,,,1503,22.74234583,60.33335161,1,0,0,response1disk,,7,5.166663444,5.181840241,1,0,0,rectangle,5.166663444,5.181840241,1,0,0,5.166663444,5.181840241,1,0,0,0,102,102,64,1,,,,,,,,
,,,,,,,,,,,,,FF,,,,,,,,1.0631,,,,,,,,,,,,,,,,,,,,,,60f3bc4e36762e0c2d9132cb,61036f849502754c05212a36,2021-07-29_23h25.23.886,Simcolourproject_2stim_asymm_v5,2020.2.10,Win32,60,61025ae37ef11b136ea224fe,,,,,,,,,1845,73.04540968,23.96973624,1,0,0,response1disk,,6,10.01514796,9.424264193,1,0,0,rectangle,10.01514796,9.424264193,1,0,0,10.01514796,9.424264193,1,0,0,0,103,103,14,1,,,,,,,,
,,,,,,,,,,,,,FF,,,,,,,,1.2163,,,,,,,,,,,,,,,,,,,,,,60f3bc4e36762e0c2d9132cb,61036f849502754c05212a36,2021-07-29_23h25.23.886,Simcolourproject_2stim_asymm_v5,2020.2.10,Win32,60,61025ae37ef11b136ea224fe,,,,,,,,,3796,87.59086323,26.39396,1,0,0,response1disk,,6,19.10601944,-1.484825969,1,0,0,rectangle,19.10601944,-1.484825969,1,0,0,19.10601944,-1.484825969,1,0,0,0,104,104,107,1,,,,,,,,
,,,,,,,,,,,,,FF,,,,,,,,0.9302,,,,,,,,,,,,,,,,,,,,,,60f3bc4e36762e0c2d9132cb,61036f849502754c05212a36,2021-07-29_23h25.23.886,Simcolourproject_2stim_asymm_v5,2020.2.10,Win32,60,61025ae37ef11b136ea224fe,,,,,,,,,3619,54.25753218,62.75757537,1,0,0,response1disk,,7,17.28783774,-6.939371049,1,0,0,rectangle,17.28783774,-6.939371049,1,0,0,17.28783774,-6.939371049,1,0,0,0,105,105,52,1,,,,,,,,
,,,,,,,,,,,,,FF,,,,,,,,1.3828,,,,,,,,,,,,,,,,,,,,,,60f3bc4e36762e0c2d9132cb,61036f849502754c05212a36,2021-07-29_23h25.23.886,Simcolourproject_2stim_asymm_v5,2020.2.10,Win32,60,61025ae37ef11b136ea224fe,,,,,,,,,422,37.89389694,67.00003632,1,0,0,response1disk,,7,13.04541379,8.818203628,1,0,0,rectangle,13.04541379,8.818203628,1,0,0,13.04541379,8.818203628,1,0,0,0,106,106,121,1,,,,,,,,
,,,,,,,,,,,,,FF,,,,,,,,0.8161,,,,,,,,,,,,,,,,,,,,,,60f3bc4e36762e0c2d9132cb,61036f849502754c05212a36,2021-07-29_23h25.23.886,Simcolourproject_2stim_asymm_v5,2020.2.10,Win32,60,61025ae37ef11b136ea224fe,,,,,,,,,942,20.92420113,59.72729105,1,0,0,response1disk,,7,-4.530342579,-2.696947098,1,0,0,rectangle,-4.530342579,-2.696947098,1,0,0,-4.530342579,-2.696947098,1,0,0,0,107,107,76,1,,,,,,,,
,,,,,,,,,,,,,FF,,,,,,,,0.5662,,,,,,,,,,,,,,,,,,,,,,60f3bc4e36762e0c2d9132cb,61036f849502754c05212a36,2021-07-29_23h25.23.886,Simcolourproject_2stim_asymm_v5,2020.2.10,Win32,60,61025ae37ef11b136ea224fe,,,,,,,,,577,36.07575223,47.60607976,1,0,0,response1disk,,7,-0.287918627,3.363658547,1,0,0,rectangle,-0.287918627,3.363658547,1,0,0,-0.287918627,3.363658547,1,0,0,0,108,108,99,1,,,,,,,,
,,,,,,,,,,,,,FF,,,,,,,,1.2831,,,,,,,,,,,,,,,,,,,,,,60f3bc4e36762e0c2d9132cb,61036f849502754c05212a36,2021-07-29_23h25.23.886,Simcolourproject_2stim_asymm_v5,2020.2.10,Win32,60,61025ae37ef11b136ea224fe,,,,,,,,,672,80.92419702,-29.36361194,1,0,0,response3disk,,5,-0.893979192,6.39396137,1,0,0,rectangle,-0.893979192,6.39396137,1,0,0,-0.893979192,6.39396137,1,0,0,0,109,109,26,1,,,,,,,,
,,,,,,,,,,,,,FF,,,,,,,,1.917,,,,,,,,,,,,,,,,,,,,,,60f3bc4e36762e0c2d9132cb,61036f849502754c05212a36,2021-07-29_23h25.23.886,Simcolourproject_2stim_asymm_v5,2020.2.10,Win32,60,61025ae37ef11b136ea224fe,,,,,,,,,2113,46.98480541,48.81820089,1,0,0,response1disk,,7,11.83329266,-0.878765404,1,0,0,rectangle,11.83329266,-0.878765404,1,0,0,11.83329266,-0.878765404,1,0,0,0,110,110,148,1,,,,,,,,
,,,,,,,,,,,,,FF,,,,,,,,2.0164,,,,,,,,,,,,,,,,,,,,,,60f3bc4e36762e0c2d9132cb,61036f849502754c05212a36,2021-07-29_23h25.23.886,Simcolourproject_2stim_asymm_v5,2020.2.10,Win32,60,61025ae37ef11b136ea224fe,,,,,,,,,4356,-58.46965884,36.6969896,1,0,0,response7disk,,1,-3.318258441,-6.333310485,1,0,0,rectangle,-3.318258441,-6.333310485,1,0,0,-3.318258441,-6.333310485,1,0,0,0,111,111,134,1,,,,,,,,
,,,,,,,,,,,,,FF,,,,,,,,3.865,,,,,,,,,,,,,,,,,,,,,,60f3bc4e36762e0c2d9132cb,61036f849502754c05212a36,2021-07-29_23h25.23.886,Simcolourproject_2stim_asymm_v5,2020.2.10,Win32,60,61025ae37ef11b136ea224fe,,,,,,,,,1438,30.01514659,50.03030352,1,0,0,response1disk,,7,-6.954584837,-10.57573444,1,0,0,rectangle,-6.954584837,-10.57573444,1,0,0,-6.954584837,-10.57573444,1,0,0,0,112,112,125,1,,,,,,,,
,,,,,,,,,,,,,FF,,,,,,,,0.4995,,,,,,,,,,,,,,,,,,,,,,60f3bc4e36762e0c2d9132cb,61036f849502754c05212a36,2021-07-29_23h25.23.886,Simcolourproject_2stim_asymm_v5,2020.2.10,Win32,60,61025ae37ef11b136ea224fe,,,,,,,,,2340,26.37870922,60.33335161,1,0,0,response1disk,,7,-5.136403143,6.39396137,1,0,0,rectangle,-5.136403143,6.39396137,1,0,0,-5.136403143,6.39396137,1,0,0,0,113,113,84,1,,,,,,,,
,,,,,,,,,,,,,FF,,,,,,,,0.4997,,,,,,,,,,,,,,,,,,,,,,60f3bc4e36762e0c2d9132cb,61036f849502754c05212a36,2021-07-29_23h25.23.886,Simcolourproject_2stim_asymm_v5,2020.2.10,Win32,60,61025ae37ef11b136ea224fe,,,,,,,,,1714,30.01514659,54.87882503,1,0,0,response1disk,,7,-0.287918627,1.545476854,1,0,0,rectangle,-0.287918627,1.545476854,1,0,0,-0.287918627,1.545476854,1,0,0,0,114,114,97,1,,,,,,,,
,,,,,,,,,,,,,FF,,,,,,,,1.1833,,,,,,,,,,,,,,,,,,,,,,60f3bc4e36762e0c2d9132cb,61036f849502754c05212a36,2021-07-29_23h25.23.886,Simcolourproject_2stim_asymm_v5,2020.2.10,Win32,60,61025ae37ef11b136ea224fe,,,,,,,,,2301,56.68177444,-34.21209645,1,0,0,response3disk,,5,-8.772766531,-0.878765404,1,0,0,rectangle,-8.772766531,-0.878765404,1,0,0,-8.772766531,-0.878765404,1,0,0,0,115,115,112,1,,,,,,,,
,,,,,,,,,,,,,FF,,,,,,,,1.1,,,,,,,,,,,,,,,,,,,,,,60f3bc4e36762e0c2d9132cb,61036f849502754c05212a36,2021-07-29_23h25.23.886,Simcolourproject_2stim_asymm_v5,2020.2.10,Win32,60,61025ae37ef11b136ea224fe,,,,,,,,,2238,65.77268291,-36.03027815,1,0,0,response3disk,,5,11.83329266,-5.121189356,1,0,0,rectangle,11.83329266,-5.121189356,1,0,0,11.83329266,-5.121189356,1,0,0,0,116,116,53,1,,,,,,,,
,,,,,,,,,,,,,FF,,,,,,,,1.0664,,,,,,,,,,,,,,,,,,,,,,60f3bc4e36762e0c2d9132cb,61036f849502754c05212a36,2021-07-29_23h25.23.886,Simcolourproject_2stim_asymm_v5,2020.2.10,Win32,60,61025ae37ef11b136ea224fe,,,,,,,,,1329,51.83328992,28.2121232,1,0,0,response1disk,,6,5.772687018,-5.72724992,1,0,0,rectangle,5.772687018,-5.72724992,1,0,0,5.772687018,-5.72724992,1,0,0,0,117,117,30,1,,,,,,,,
,,,,,,,,,,,,,FF,,,,,,,,1.4161,,,,,,,,,,,,,,,,,,,,,,60f3bc4e36762e0c2d9132cb,61036f849502754c05212a36,2021-07-29_23h25.23.886,Simcolourproject_2stim_asymm_v5,2020.2.10,Win32,60,61025ae37ef11b136ea224fe,,,,,,,,,700,-48.77276379,-71.18179089,1,0,0,response5disk,,3,0.318104946,-11.181795,1,0,0,rectangle,0.318104946,-11.181795,1,0,0,0.318104946,-11.181795,1,0,0,0,118,118,42,1,,,,,,,,
,,,,,,,,,,,,,FF,,,,,,,,0.9832,,,,,,,,,,,,,,,,,,,,,,60f3bc4e36762e0c2d9132cb,61036f849502754c05212a36,2021-07-29_23h25.23.886,Simcolourproject_2stim_asymm_v5,2020.2.10,Win32,60,61025ae37ef11b136ea224fe,,,,,,,,,3474,-23.92424365,-76.63633597,1,0,0,response5disk,,3,7.590868711,-8.151492178,1,0,0,rectangle,7.590868711,-8.151492178,1,0,0,7.590868711,-8.151492178,1,0,0,0,119,119,131,1,,,,,,,,
,,,,,,,,,,,,,FF,,,,,,,,1.4998,,,,,,,,,,,,,,,,,,,,,,60f3bc4e36762e0c2d9132cb,61036f849502754c05212a36,2021-07-29_23h25.23.886,Simcolourproject_2stim_asymm_v5,2020.2.10,Win32,60,61025ae37ef11b136ea224fe,,,,,,,,,121,22.13635925,45.78789806,1,0,0,response1disk,,7,-3.318258441,-3.303007662,1,0,0,rectangle,-3.318258441,-3.303007662,1,0,0,-3.318258441,-3.303007662,1,0,0,0,120,120,83,1,,,,,,,,
,,,,,,,,,,,,,FF,,,,,,,,1.1168,,,,,,,,,,,,,,,,,,,,,,60f3bc4e36762e0c2d9132cb,61036f849502754c05212a36,2021-07-29_23h25.23.886,Simcolourproject_2stim_asymm_v5,2020.2.10,Win32,60,61025ae37ef11b136ea224fe,,,,,,,,,78,25.16666207,-70.57573032,1,0,0,response3disk,,4,-14.22731161,-2.696947098,1,0,0,rectangle,-14.22731161,-2.696947098,1,0,0,-14.22731161,-2.696947098,1,0,0,0,121,121,19,1,,,,,,,,
,,,,,,,,,,,,,FF,,,,,,,,0.8993,,,,,,,,,,,,,,,,,,,,,,60f3bc4e36762e0c2d9132cb,61036f849502754c05212a36,2021-07-29_23h25.23.886,Simcolourproject_2stim_asymm_v5,2020.2.10,Win32,60,61025ae37ef11b136ea224fe,,,,,,,,,4011,28.80302546,60.33335161,1,0,0,response1disk,,7,-19.68189368,2.757597983,1,0,0,rectangle,-19.68189368,2.757597983,1,0,0,-19.68189368,2.757597983,1,0,0,0,122,122,151,1,,,,,,,,
,,,,,,,,,,,,,FF,,,,,,,,0.9999,,,,,,,,,,,,,,,,,,,,,,60f3bc4e36762e0c2d9132cb,61036f849502754c05212a36,2021-07-29_23h25.23.886,Simcolourproject_2stim_asymm_v5,2020.2.10,Win32,60,61025ae37ef11b136ea224fe,,,,,,,,,4305,-67.5606043,31.24242602,1,0,0,response7disk,,1,-9.98488766,7.000021935,1,0,0,rectangle,-9.98488766,7.000021935,1,0,0,-9.98488766,7.000021935,1,0,0,0,123,123,73,1,,,,,,,,
,,,,,,,,,,,,,FF,,,,,,,,1.2498,,,,,,,,,,,,,,,,,,,,,,60f3bc4e36762e0c2d9132cb,61036f849502754c05212a36,2021-07-29_23h25.23.886,Simcolourproject_2stim_asymm_v5,2020.2.10,Win32,60,61025ae37ef11b136ea224fe,,,,,,,,,1230,-32.40912855,-69.36360919,1,0,0,response5disk,,3,-2.106100321,-2.696947098,1,0,0,rectangle,-2.106100321,-2.696947098,1,0,0,-2.106100321,-2.696947098,1,0,0,0,124,124,82,1,,,,,,,,
,,,,,,,,,,,,,FF,,,,,,,,0.7996,,,,,,,,,,,,,,,,,,,,,,60f3bc4e36762e0c2d9132cb,61036f849502754c05212a36,2021-07-29_23h25.23.886,Simcolourproject_2stim_asymm_v5,2020.2.10,Win32,60,61025ae37ef11b136ea224fe,,,,,,,,,4052,-69.37878599,-32.99997532,1,0,0,response5disk,,2,7.590868711,-3.909068227,1,0,0,rectangle,7.590868711,-3.909068227,1,0,0,7.590868711,-3.909068227,1,0,0,0,125,125,8,1,,,,,,,,
,,,,,,,,,,,,,FF,,,,,,,,1.1661,,,,,,,,,,,,,,,,,,,,,,60f3bc4e36762e0c2d9132cb,61036f849502754c05212a36,2021-07-29_23h25.23.886,Simcolourproject_2stim_asymm_v5,2020.2.10,Win32,60,61025ae37ef11b136ea224fe,,,,,,,,,1443,39.10601807,57.30304879,1,0,0,response1disk,,7,26.98484377,3.969719112,1,0,0,rectangle,26.98484377,3.969719112,1,0,0,26.98484377,3.969719112,1,0,0,0,126,126,133,1,,,,,,,,
,,,,,,,,,,,,,FF,,,,,,,,1.2657,,,,,,,,,,,,,,,,,,,,,,60f3bc4e36762e0c2d9132cb,61036f849502754c05212a36,2021-07-29_23h25.23.886,Simcolourproject_2stim_asymm_v5,2020.2.10,Win32,60,61025ae37ef11b136ea224fe,,,,,,,,,529,23.95450395,-85.72724444,1,0,0,response3disk,,4,-5.742426717,5.787900805,1,0,0,rectangle,-5.742426717,5.787900805,1,0,0,-5.742426717,5.787900805,1,0,0,0,127,127,117,1,,,,,,,,
,,,,,,,,,,,,,FF,,,,,,,,0.9669,,,,,,,,,,,,,,,,,,,,,,60f3bc4e36762e0c2d9132cb,61036f849502754c05212a36,2021-07-29_23h25.23.886,Simcolourproject_2stim_asymm_v5,2020.2.10,Win32,60,61025ae37ef11b136ea224fe,,,,,,,,,2534,43.34844202,58.51516992,1,0,0,response1disk,,7,28.80302546,5.181840241,1,0,0,rectangle,28.80302546,5.181840241,1,0,0,28.80302546,5.181840241,1,0,0,0,128,128,2,1,,,,,,,,
,,,,,,,,,,,,,FF,,,,,,,,0.9995,,,,,,,,,,,,,,,,,,,,,,60f3bc4e36762e0c2d9132cb,61036f849502754c05212a36,2021-07-29_23h25.23.886,Simcolourproject_2stim_asymm_v5,2020.2.10,Win32,60,61025ae37ef11b136ea224fe,,,,,,,,,4100,73.65147024,-38.4545204,1,0,0,response3disk,,5,11.2272321,2.757597983,1,0,0,rectangle,11.2272321,2.757597983,1,0,0,11.2272321,2.757597983,1,0,0,0,129,129,31,1,,,,,,,,
,,,,,,,,,,,,,FF,,,,,,,,0.9162,,,,,,,,,,,,,,,,,,,,,,60f3bc4e36762e0c2d9132cb,61036f849502754c05212a36,2021-07-29_23h25.23.886,Simcolourproject_2stim_asymm_v5,2020.2.10,Win32,60,61025ae37ef11b136ea224fe,,,,,,,,,2221,23.95450395,48.21212183,1,0,0,response1disk,,7,0.924202502,-0.878765404,1,0,0,rectangle,0.924202502,-0.878765404,1,0,0,0.924202502,-0.878765404,1,0,0,0,130,130,28,1,,,,,,,,
,,,,,,,,,,,,,FF,,,,,,,,1.4658,,,,,,,,,,,,,,,,,,,,,,60f3bc4e36762e0c2d9132cb,61036f849502754c05212a36,2021-07-29_23h25.23.886,Simcolourproject_2stim_asymm_v5,2020.2.10,Win32,60,61025ae37ef11b136ea224fe,,,,,,,,,206,60.92419839,23.36365718,1,0,0,response1disk,,6,6.984845138,2.151537418,1,0,0,rectangle,6.984845138,2.151537418,1,0,0,6.984845138,2.151537418,1,0,0,0,131,131,36,1,,,,,,,,
,,,,,,,,,,,,,FF,,,,,,,,1.5993,,,,,,,,,,,,,,,,,,,,,,60f3bc4e36762e0c2d9132cb,61036f849502754c05212a36,2021-07-29_23h25.23.886,Simcolourproject_2stim_asymm_v5,2020.2.10,Win32,60,61025ae37ef11b136ea224fe,,,,,,,,,1044,31.22723073,49.42426145,1,0,0,response1disk,,7,5.772687018,-3.909068227,1,0,0,rectangle,5.772687018,-3.909068227,1,0,0,5.772687018,-3.909068227,1,0,0,0,132,132,102,1,,,,,,,,
,,,,,,,,,,,,,FF,,,,,,,,0.5159,,,,,,,,,,,,,,,,,,,,,,60f3bc4e36762e0c2d9132cb,61036f849502754c05212a36,2021-07-29_23h25.23.886,Simcolourproject_2stim_asymm_v5,2020.2.10,Win32,60,61025ae37ef11b136ea224fe,,,,,,,,,589,23.95450395,47.60607976,1,0,0,response1disk,,7,-1.500076747,-3.909068227,1,0,0,rectangle,-1.500076747,-3.909068227,1,0,0,-1.500076747,-3.909068227,1,0,0,0,133,133,109,1,,,,,,,,
,,,,,,,,,,,,,FF,,,,,,,,1.099,,,,,,,,,,,,,,,,,,,,,,60f3bc4e36762e0c2d9132cb,61036f849502754c05212a36,2021-07-29_23h25.23.886,Simcolourproject_2stim_asymm_v5,2020.2.10,Win32,60,61025ae37ef11b136ea224fe,,,,,,,,,197,25.77268565,-73.60599616,1,0,0,response3disk,,4,-14.22731161,3.969719112,1,0,0,rectangle,-14.22731161,3.969719112,1,0,0,-14.22731161,3.969719112,1,0,0,0,134,134,156,1,,,,,,,,
,,,,,,,,,,,,,FF,,,,,,,,0.7167,,,,,,,,,,,,,,,,,,,,,,60f3bc4e36762e0c2d9132cb,61036f849502754c05212a36,2021-07-29_23h25.23.886,Simcolourproject_2stim_asymm_v5,2020.2.10,Win32,60,61025ae37ef11b136ea224fe,,,,,,,,,2391,36.68173882,57.30304879,1,0,0,response1disk,,7,16.68174019,-5.121189356,1,0,0,rectangle,16.68174019,-5.121189356,1,0,0,16.68174019,-5.121189356,1,0,0,0,135,135,63,1,,,,,,,,
,,,,,,,,,,,,,FF,,,,,,,,1.3168,,,,,,,,,,,,,,,,,,,,,,60f3bc4e36762e0c2d9132cb,61036f849502754c05212a36,2021-07-29_23h25.23.886,Simcolourproject_2stim_asymm_v5,2020.2.10,Win32,60,61025ae37ef11b136ea224fe,,,,,,,,,3484,26.98484377,-70.57573032,1,0,0,response3disk,,4,-6.348524272,-3.303007662,1,0,0,rectangle,-39.07579476,-74.21209371,1,0,0,-5.742426717,-6.333310485,1,0,0,0,136,136,85,1,,response5disk_3,TRUE,3,3,"[256,158,189,278,238,208,85,255,167,277,229,179,223,320,242,53,143,23,294,137]",1.6325,rectangle
,,,,,,,,,,,,,FF,,,,,,,,8.7301,,,,,,,,,,,,,,,,,,,,,,60f3bc4e36762e0c2d9132cb,61036f849502754c05212a36,2021-07-29_23h25.23.886,Simcolourproject_2stim_asymm_v5,2020.2.10,Win32,60,61025ae37ef11b136ea224fe,,,,,,,,,264,29.40904903,-43.90906549,1,0,0,response3disk,,4,0.318104946,-3.909068227,1,0,0,rectangle,0.318104946,-3.909068227,1,0,0,0.318104946,-3.909068227,1,0,0,0,137,137,43,1,,,,,,,,
,,,,,,,,,,,,,FF,,,,,,,,1.083,,,,,,,,,,,,,,,,,,,,,,60f3bc4e36762e0c2d9132cb,61036f849502754c05212a36,2021-07-29_23h25.23.886,Simcolourproject_2stim_asymm_v5,2020.2.10,Win32,60,61025ae37ef11b136ea224fe,,,,,,,,,2795,-45.74242398,-79.06057823,1,0,0,response5disk,,3,-6.954584837,-0.27270484,1,0,0,rectangle,-6.954584837,-0.27270484,1,0,0,-6.954584837,-0.27270484,1,0,0,0,138,138,119,1,,,,,,,,
,,,,,,,,,,,,,FF,,,,,,,,0.6497,,,,,,,,,,,,,,,,,,,,,,60f3bc4e36762e0c2d9132cb,61036f849502754c05212a36,2021-07-29_23h25.23.886,Simcolourproject_2stim_asymm_v5,2020.2.10,Win32,60,61025ae37ef11b136ea224fe,,,,,,,,,2729,-37.25765005,-74.81815428,1,0,0,response5disk,,3,8.196892285,1.545476854,1,0,0,rectangle,8.196892285,1.545476854,1,0,0,8.196892285,1.545476854,1,0,0,0,139,139,142,1,,,,,,,,
,,,,,,,,,,,,,FF,,,,,,,,1.0496,,,,,,,,,,,,,,,,,,,,,,60f3bc4e36762e0c2d9132cb,61036f849502754c05212a36,2021-07-29_23h25.23.886,Simcolourproject_2stim_asymm_v5,2020.2.10,Win32,60,61025ae37ef11b136ea224fe,,,,,,,,,194,36.07575223,-60.87876129,1,0,0,response3disk,,4,1.530263066,-5.72724992,1,0,0,rectangle,1.530263066,-5.72724992,1,0,0,1.530263066,-5.72724992,1,0,0,0,140,140,35,1,,,,,,,,
,,,,,,,,,,,,,FF,,,,,,,,0.9503,,,,,,,,,,,,,,,,,,,,,,60f3bc4e36762e0c2d9132cb,61036f849502754c05212a36,2021-07-29_23h25.23.886,Simcolourproject_2stim_asymm_v5,2020.2.10,Win32,60,61025ae37ef11b136ea224fe,,,,,,,,,3760,25.77268565,40.33335298,1,0,0,response1disk,,7,14.25757191,-8.151492178,1,0,0,rectangle,14.25757191,-8.151492178,1,0,0,14.25757191,-8.151492178,1,0,0,0,141,141,61,1,,,,,,,,
,,,,,,,,,,,,,FF,,,,,,,,1.9661,,,,,,,,,,,,,,,,,,,,,,60f3bc4e36762e0c2d9132cb,61036f849502754c05212a36,2021-07-29_23h25.23.886,Simcolourproject_2stim_asymm_v5,2020.2.10,Win32,60,61025ae37ef11b136ea224fe,,,,,,,,,1653,70.01510686,22.15155454,1,0,0,response1disk,,6,21.5302617,2.757597983,1,0,0,rectangle,-90.59094274,31.24242602,1,0,0,-6.348524272,2.151537418,1,0,0,0,142,142,45,1,,response7disk_3,TRUE,1,1,"[256,158,189,278,238,208,85,255,167,277,229,179,223,320,242,53,143,23,294,137]",1.4491,rectangle
,,,,,,,,,,,,,FF,,,,,,,,0.7658,,,,,,,,,,,,,,,,,,,,,,60f3bc4e36762e0c2d9132cb,61036f849502754c05212a36,2021-07-29_23h25.23.886,Simcolourproject_2stim_asymm_v5,2020.2.10,Win32,60,61025ae37ef11b136ea224fe,,,,,,,,,144,36.07575223,43.96973487,1,0,0,response1disk,,7,2.742347204,-2.090886533,1,0,0,rectangle,2.742347204,-2.090886533,1,0,0,2.742347204,-2.090886533,1,0,0,0,143,143,34,1,,,,,,,,
,,,,,,,,,,,,,FF,,,,,,,,2.2321,,,,,,,,,,,,,,,,,,,,,,60f3bc4e36762e0c2d9132cb,61036f849502754c05212a36,2021-07-29_23h25.23.886,Simcolourproject_2stim_asymm_v5,2020.2.10,Win32,60,61025ae37ef11b136ea224fe,,,,,,,,,332,35.46965468,68.81821801,1,0,0,response1disk,,7,-0.893979192,-2.696947098,1,0,0,rectangle,-0.893979192,-2.696947098,1,0,0,-0.893979192,-2.696947098,1,0,0,0,144,144,158,1,,,,,,,,
,,,,,,,,,,,,,FF,,,,,,,,0.7163,,,,,,,,,,,,,,,,,,,,,,60f3bc4e36762e0c2d9132cb,61036f849502754c05212a36,2021-07-29_23h25.23.886,Simcolourproject_2stim_asymm_v5,2020.2.10,Win32,60,61025ae37ef11b136ea224fe,,,,,,,,,3033,24.56052753,55.4848671,1,0,0,response1disk,,7,-6.954584837,2.151537418,1,0,0,rectangle,-6.954584837,2.151537418,1,0,0,-6.954584837,2.151537418,1,0,0,0,145,145,15,1,,,,,,,,
,,,,,,,,,,,,,FF,,,,,,,,0.6496,,,,,,,,,,,,,,,,,,,,,,60f3bc4e36762e0c2d9132cb,61036f849502754c05212a36,2021-07-29_23h25.23.886,Simcolourproject_2stim_asymm_v5,2020.2.10,Win32,60,61025ae37ef11b136ea224fe,,,,,,,,,142,26.37870922,63.96973349,1,0,0,response1disk,,7,-6.954584837,-5.72724992,1,0,0,rectangle,-6.954584837,-5.72724992,1,0,0,-6.954584837,-5.72724992,1,0,0,0,146,146,57,1,,,,,,,,
,,,,,,,,,,,,,FF,,,,,,,,0.9996,,,,,,,,,,,,,,,,,,,,,,60f3bc4e36762e0c2d9132cb,61036f849502754c05212a36,2021-07-29_23h25.23.886,Simcolourproject_2stim_asymm_v5,2020.2.10,Win32,60,61025ae37ef11b136ea224fe,,,,,,,,,667,33.65147299,-21.4848246,1,0,0,response3disk,,5,-3.924245023,1.545476854,1,0,0,rectangle,-3.924245023,1.545476854,1,0,0,-3.924245023,1.545476854,1,0,0,0,147,147,24,1,,,,,,,,
,,,,,,,,,,,,,FF,,,,,,,,1.3325,,,,,,,,,,,,,,,,,,,,,,60f3bc4e36762e0c2d9132cb,61036f849502754c05212a36,2021-07-29_23h25.23.886,Simcolourproject_2stim_asymm_v5,2020.2.10,Win32,60,61025ae37ef11b136ea224fe,,,,,,,,,896,53.65147161,-35.42421758,1,0,0,response3disk,,5,-6.954584837,-11.78785557,1,0,0,rectangle,-6.954584837,-11.78785557,1,0,0,-6.954584837,-11.78785557,1,0,0,0,148,148,141,1,,,,,,,,
,,,,,,,,,,,,,FF,,,,,,,,1.0997,,,,,,,,,,,,,,,,,,,,,,60f3bc4e36762e0c2d9132cb,61036f849502754c05212a36,2021-07-29_23h25.23.886,Simcolourproject_2stim_asymm_v5,2020.2.10,Win32,60,61025ae37ef11b136ea224fe,,,,,,,,,2770,20.31810358,41.54547411,1,0,0,response1disk,,7,8.803026832,2.151537418,1,0,0,rectangle,8.803026832,2.151537418,1,0,0,8.803026832,2.151537418,1,0,0,0,149,149,71,1,,,,,,,,
,,,,,,,,,,,,,FF,,,,,,,,1.3993,,,,,,,,,,,,,,,,,,,,,,60f3bc4e36762e0c2d9132cb,61036f849502754c05212a36,2021-07-29_23h25.23.886,Simcolourproject_2stim_asymm_v5,2020.2.10,Win32,60,61025ae37ef11b136ea224fe,,,,,,,,,3158,85.77268153,-48.15148944,1,0,0,response3disk,,5,5.166663444,-6.333310485,1,0,0,rectangle,5.166663444,-6.333310485,1,0,0,5.166663444,-6.333310485,1,0,0,0,150,150,11,1,,,,,,,,
,,,,,,,,,,,,,FF,,,,,,,,0.9175,,,,,,,,,,,,,,,,,,,,,,60f3bc4e36762e0c2d9132cb,61036f849502754c05212a36,2021-07-29_23h25.23.886,Simcolourproject_2stim_asymm_v5,2020.2.10,Win32,60,61025ae37ef11b136ea224fe,,,,,,,,,3781,36.07575223,-69.96966976,1,0,0,response3disk,,4,-16.65147989,0.333355725,1,0,0,rectangle,-16.65147989,0.333355725,1,0,0,-16.65147989,0.333355725,1,0,0,0,151,151,81,1,,,,,,,,
,,,,,,,,,,,,,FF,,,,,,,,0.8996,,,,,,,,,,,,,,,,,,,,,,60f3bc4e36762e0c2d9132cb,61036f849502754c05212a36,2021-07-29_23h25.23.886,Simcolourproject_2stim_asymm_v5,2020.2.10,Win32,60,61025ae37ef11b136ea224fe,,,,,,,,,1308,23.34851737,-73.60599616,1,0,0,response3disk,,4,-6.954584837,-0.27270484,1,0,0,rectangle,-6.954584837,-0.27270484,1,0,0,-6.954584837,-0.27270484,1,0,0,0,152,152,4,1,,,,,,,,
,,,,,,,,,,,,,FF,,,,,,,,0.7154,,,,,,,,,,,,,,,,,,,,,,60f3bc4e36762e0c2d9132cb,61036f849502754c05212a36,2021-07-29_23h25.23.886,Simcolourproject_2stim_asymm_v5,2020.2.10,Win32,60,61025ae37ef11b136ea224fe,,,,,,,,,475,25.77268565,60.33335161,1,0,0,response1disk,,7,11.2272321,-6.939371049,1,0,0,rectangle,11.2272321,-6.939371049,1,0,0,11.2272321,-6.939371049,1,0,0,0,153,153,80,1,,,,,,,,
,,,,,,,,,,,,,FF,,,,,,,,1.1664,,,,,,,,,,,,,,,,,,,,,,60f3bc4e36762e0c2d9132cb,61036f849502754c05212a36,2021-07-29_23h25.23.886,Simcolourproject_2stim_asymm_v5,2020.2.10,Win32,60,61025ae37ef11b136ea224fe,,,,,,,,,279,-23.31825707,-71.78785145,1,0,0,response5disk,,3,11.2272321,-0.27270484,1,0,0,rectangle,11.2272321,-0.27270484,1,0,0,11.2272321,-0.27270484,1,0,0,0,154,154,111,1,,,,,,,,
,,,,,,,,,,,,,FF,,,,,,,,1.099,,,,,,,,,,,,,,,,,,,,,,60f3bc4e36762e0c2d9132cb,61036f849502754c05212a36,2021-07-29_23h25.23.886,Simcolourproject_2stim_asymm_v5,2020.2.10,Win32,60,61025ae37ef11b136ea224fe,,,,,,,,,4201,-77.25761032,24.57574131,1,0,0,response7disk,,1,-14.22731161,-2.696947098,1,0,0,rectangle,-14.22731161,-2.696947098,1,0,0,-14.22731161,-2.696947098,1,0,0,0,155,155,106,1,,,,,,,,
,,,,,,,,,,,,,FF,,,,,,,,1.1497,,,,,,,,,,,,,,,,,,,,,,60f3bc4e36762e0c2d9132cb,61036f849502754c05212a36,2021-07-29_23h25.23.886,Simcolourproject_2stim_asymm_v5,2020.2.10,Win32,60,61025ae37ef11b136ea224fe,,,,,,,,,3167,48.8029871,61.54547274,1,0,0,response1disk,,7,28.80302546,5.787900805,1,0,0,rectangle,28.80302546,5.787900805,1,0,0,28.80302546,5.787900805,1,0,0,0,156,156,18,1,,,,,,,,
,,,,,,,,,,,,,FF,,,,,,,,2.6156,,,,,,,,,,,,,,,,,,,,,,60f3bc4e36762e0c2d9132cb,61036f849502754c05212a36,2021-07-29_23h25.23.886,Simcolourproject_2stim_asymm_v5,2020.2.10,Win32,60,61025ae37ef11b136ea224fe,,,,,,,,,3286,30.62120715,49.42426145,1,0,0,response1disk,,7,-6.954584837,-1.484825969,1,0,0,rectangle,25.77268565,65.78789669,1,0,0,-0.893979192,-2.090886533,1,0,0,0,157,157,92,1,,response1disk_3,TRUE,7,7,"[256,158,189,278,238,208,85,255,167,277,229,179,223,320,242,53,143,23,294,137]",1.4159,rectangle
,,,,,,,,,,,,,FF,,,,,,,,1.5663,,,,,,,,,,,,,,,,,,,,,,60f3bc4e36762e0c2d9132cb,61036f849502754c05212a36,2021-07-29_23h25.23.886,Simcolourproject_2stim_asymm_v5,2020.2.10,Win32,60,61025ae37ef11b136ea224fe,,,,,,,,,1065,-25.74242535,-66.93936694,1,0,0,response5disk,,3,5.772687018,0.939416289,1,0,0,rectangle,5.772687018,0.939416289,1,0,0,5.772687018,0.939416289,1,0,0,0,158,158,20,1,,,,,,,,
,,,,,,,,,,,,,FF,,,,,,,,1.7495,,,,,,,,,,,,,,,,,,,,,,60f3bc4e36762e0c2d9132cb,61036f849502754c05212a36,2021-07-29_23h25.23.886,Simcolourproject_2stim_asymm_v5,2020.2.10,Win32,60,61025ae37ef11b136ea224fe,,,,,,,,,3182,21.5302617,63.96973349,1,0,0,response1disk,,7,11.2272321,1.545476854,1,0,0,rectangle,11.2272321,1.545476854,1,0,0,11.2272321,1.545476854,1,0,0,0,159,159,5,1,,,,,,,,
,,,,,,,,,,,,,FF,,,,,,,,1.1832,,,,,,,,,,,,,,,,,,,,,,60f3bc4e36762e0c2d9132cb,61036f849502754c05212a36,2021-07-29_23h25.23.886,Simcolourproject_2stim_asymm_v5,2020.2.10,Win32,60,61025ae37ef11b136ea224fe,,,,,,,,,3376,60.31813782,25.78789943,1,0,0,response1disk,,6,23.34851737,-6.939371049,1,0,0,rectangle,23.34851737,-6.939371049,1,0,0,23.34851737,-6.939371049,1,0,0,1,0,160,93,1,,,,,,,,
,,,,,,,,,,,,,FF,,,,,,,,1.8494,,,,,,,,,,,,,,,,,,,,,,60f3bc4e36762e0c2d9132cb,61036f849502754c05212a36,2021-07-29_23h25.23.886,Simcolourproject_2stim_asymm_v5,2020.2.10,Win32,60,61025ae37ef11b136ea224fe,,,,,,,,,1035,36.07575223,53.66666691,1,0,0,response1disk,,7,10.01514796,1.545476854,1,0,0,rectangle,10.01514796,1.545476854,1,0,0,10.01514796,1.545476854,1,0,0,1,1,161,30,1,,,,,,,,
,,,,,,,,,,,,,FF,,,,,,,,1.4162,,,,,,,,,,,,,,,,,,,,,,60f3bc4e36762e0c2d9132cb,61036f849502754c05212a36,2021-07-29_23h25.23.886,Simcolourproject_2stim_asymm_v5,2020.2.10,Win32,60,61025ae37ef11b136ea224fe,,,,,,,,,983,67.5908646,-37.84845984,1,0,0,response3disk,,5,2.136360622,-10.57573444,1,0,0,rectangle,2.136360622,-10.57573444,1,0,0,2.136360622,-10.57573444,1,0,0,1,2,162,87,1,,,,,,,,
,,,,,,,,,,,,,FF,,,,,,,,0.7662,,,,,,,,,,,,,,,,,,,,,,60f3bc4e36762e0c2d9132cb,61036f849502754c05212a36,2021-07-29_23h25.23.886,Simcolourproject_2stim_asymm_v5,2020.2.10,Win32,60,61025ae37ef11b136ea224fe,,,,,,,,,2574,25.77268565,51.24244314,1,0,0,response1disk,,7,8.803026832,4.575779676,1,0,0,rectangle,8.803026832,4.575779676,1,0,0,8.803026832,4.575779676,1,0,0,1,3,163,65,1,,,,,,,,
,,,,,,,,,,,,,FF,,,,,,,,3.4321,,,,,,,,,,,,,,,,,,,,,,60f3bc4e36762e0c2d9132cb,61036f849502754c05212a36,2021-07-29_23h25.23.886,Simcolourproject_2stim_asymm_v5,2020.2.10,Win32,60,61025ae37ef11b136ea224fe,,,,,,,,,1357,36.68173882,58.51516992,1,0,0,response1disk,,7,8.196892285,-11.78785557,1,0,0,rectangle,8.196892285,-11.78785557,1,0,0,8.196892285,-11.78785557,1,0,0,1,4,164,83,1,,,,,,,,
,,,,,,,,,,,,,FF,,,,,,,,1.5819,,,,,,,,,,,,,,,,,,,,,,60f3bc4e36762e0c2d9132cb,61036f849502754c05212a36,2021-07-29_23h25.23.886,Simcolourproject_2stim_asymm_v5,2020.2.10,Win32,60,61025ae37ef11b136ea224fe,,,,,,,,,1469,75.46965194,-28.75755137,1,0,0,response3disk,,5,7.590868711,5.181840241,1,0,0,rectangle,7.590868711,5.181840241,1,0,0,7.590868711,5.181840241,1,0,0,1,5,165,91,1,,,,,,,,
,,,,,,,,,,,,,FF,,,,,,,,0.8988,,,,,,,,,,,,,,,,,,,,,,60f3bc4e36762e0c2d9132cb,61036f849502754c05212a36,2021-07-29_23h25.23.886,Simcolourproject_2stim_asymm_v5,2020.2.10,Win32,60,61025ae37ef11b136ea224fe,,,,,,,,,2261,77.28783363,30.03030489,1,0,0,response1disk,,6,16.07575361,-3.303007662,1,0,0,rectangle,-82.10605785,40.33335298,1,0,0,-13.01515349,3.969719112,1,0,0,1,6,166,69,1,,response7disk_3,TRUE,1,1,"[256,158,189,278,238,208,85,255,167,277,229,179,223,320,242,53,143,23,294,137]",2.3646,rectangle
,,,,,,,,,,,,,FF,,,,,,,,0.6338,,,,,,,,,,,,,,,,,,,,,,60f3bc4e36762e0c2d9132cb,61036f849502754c05212a36,2021-07-29_23h25.23.886,Simcolourproject_2stim_asymm_v5,2020.2.10,Win32,60,61025ae37ef11b136ea224fe,,,,,,,,,2020,26.37870922,54.87882503,1,0,0,response1disk,,7,3.348518742,-0.27270484,1,0,0,rectangle,3.348518742,-0.27270484,1,0,0,3.348518742,-0.27270484,1,0,0,1,7,167,89,1,,,,,,,,
,,,,,,,,,,,,,FF,,,,,,,,0.8338,,,,,,,,,,,,,,,,,,,,,,60f3bc4e36762e0c2d9132cb,61036f849502754c05212a36,2021-07-29_23h25.23.886,Simcolourproject_2stim_asymm_v5,2020.2.10,Win32,60,61025ae37ef11b136ea224fe,,,,,,,,,287,23.34851737,50.63638258,1,0,0,response1disk,,7,3.348518742,1.545476854,1,0,0,rectangle,3.348518742,1.545476854,1,0,0,3.348518742,1.545476854,1,0,0,1,8,168,6,1,,,,,,,,
,,,,,,,,,,,,,FF,,,,,,,,0.5501,,,,,,,,,,,,,,,,,,,,,,60f3bc4e36762e0c2d9132cb,61036f849502754c05212a36,2021-07-29_23h25.23.886,Simcolourproject_2stim_asymm_v5,2020.2.10,Win32,60,61025ae37ef11b136ea224fe,,,,,,,,,3126,35.46965468,56.09094616,1,0,0,response1disk,,7,7.590868711,2.757597983,1,0,0,rectangle,7.590868711,2.757597983,1,0,0,7.590868711,2.757597983,1,0,0,1,9,169,24,1,,,,,,,,
,,,,,,,,,,,,,FF,,,,,,,,0.5494,,,,,,,,,,,,,,,,,,,,,,60f3bc4e36762e0c2d9132cb,61036f849502754c05212a36,2021-07-29_23h25.23.886,Simcolourproject_2stim_asymm_v5,2020.2.10,Win32,60,61025ae37ef11b136ea224fe,,,,,,,,,1776,25.16666207,50.63638258,1,0,0,response1disk,,7,3.348518742,-2.696947098,1,0,0,rectangle,3.348518742,-2.696947098,1,0,0,3.348518742,-2.696947098,1,0,0,1,10,170,147,1,,,,,,,,
,,,,,,,,,,,,,FF,,,,,,,,0.6329,,,,,,,,,,,,,,,,,,,,,,60f3bc4e36762e0c2d9132cb,61036f849502754c05212a36,2021-07-29_23h25.23.886,Simcolourproject_2stim_asymm_v5,2020.2.10,Win32,60,61025ae37ef11b136ea224fe,,,,,,,,,1327,29.40904903,44.57573994,1,0,0,response1disk,,7,8.196892285,1.545476854,1,0,0,rectangle,8.196892285,1.545476854,1,0,0,8.196892285,1.545476854,1,0,0,1,11,171,13,1,,,,,,,,
,,,,,,,,,,,,,FF,,,,,,,,0.9168,,,,,,,,,,,,,,,,,,,,,,60f3bc4e36762e0c2d9132cb,61036f849502754c05212a36,2021-07-29_23h25.23.886,Simcolourproject_2stim_asymm_v5,2020.2.10,Win32,60,61025ae37ef11b136ea224fe,,,,,,,,,439,32.43938885,59.12121199,1,0,0,response1disk,,7,6.378710591,4.575779676,1,0,0,rectangle,6.378710591,4.575779676,1,0,0,6.378710591,4.575779676,1,0,0,1,12,172,150,1,,,,,,,,
,,,,,,,,,,,,,FF,,,,,,,,1.0501,,,,,,,,,,,,,,,,,,,,,,60f3bc4e36762e0c2d9132cb,61036f849502754c05212a36,2021-07-29_23h25.23.886,Simcolourproject_2stim_asymm_v5,2020.2.10,Win32,60,61025ae37ef11b136ea224fe,,,,,,,,,2612,57.287835,-28.15149081,1,0,0,response3disk,,5,11.2272321,5.181840241,1,0,0,rectangle,11.2272321,5.181840241,1,0,0,11.2272321,5.181840241,1,0,0,1,13,173,152,1,,,,,,,,
,,,,,,,,,,,,,FF,,,,,,,,0.4998,,,,,,,,,,,,,,,,,,,,,,60f3bc4e36762e0c2d9132cb,61036f849502754c05212a36,2021-07-29_23h25.23.886,Simcolourproject_2stim_asymm_v5,2020.2.10,Win32,60,61025ae37ef11b136ea224fe,,,,,,,,,2214,36.68173882,56.09094616,1,0,0,response1disk,,7,9.409050405,2.757597983,1,0,0,rectangle,9.409050405,2.757597983,1,0,0,9.409050405,2.757597983,1,0,0,1,14,174,121,1,,,,,,,,
,,,,,,,,,,,,,FF,,,,,,,,0.5159,,,,,,,,,,,,,,,,,,,,,,60f3bc4e36762e0c2d9132cb,61036f849502754c05212a36,2021-07-29_23h25.23.886,Simcolourproject_2stim_asymm_v5,2020.2.10,Win32,60,61025ae37ef11b136ea224fe,,,,,,,,,3262,23.34851737,40.33335298,1,0,0,response1disk,,7,-0.893979192,1.545476854,1,0,0,rectangle,-0.893979192,1.545476854,1,0,0,-0.893979192,1.545476854,1,0,0,1,15,175,72,1,,,,,,,,
,,,,,,,,,,,,,FF,,,,,,,,0.9668,,,,,,,,,,,,,,,,,,,,,,60f3bc4e36762e0c2d9132cb,61036f849502754c05212a36,2021-07-29_23h25.23.886,Simcolourproject_2stim_asymm_v5,2020.2.10,Win32,60,61025ae37ef11b136ea224fe,,,,,,,,,2855,68.80298573,26.39396,1,0,0,response1disk,,6,0.924202502,-1.484825969,1,0,0,rectangle,0.924202502,-1.484825969,1,0,0,0.924202502,-1.484825969,1,0,0,1,16,176,46,1,,,,,,,,
,,,,,,,,,,,,,FF,,,,,,,,1.5995,,,,,,,,,,,,,,,,,,,,,,60f3bc4e36762e0c2d9132cb,61036f849502754c05212a36,2021-07-29_23h25.23.886,Simcolourproject_2stim_asymm_v5,2020.2.10,Win32,60,61025ae37ef11b136ea224fe,,,,,,,,,4269,82.13631815,30.03030489,1,0,0,response1disk,,6,13.65147436,-3.909068227,1,0,0,rectangle,13.65147436,-3.909068227,1,0,0,13.65147436,-3.909068227,1,0,0,1,17,177,51,1,,,,,,,,
,,,,,,,,,,,,,FF,,,,,,,,1.0328,,,,,,,,,,,,,,,,,,,,,,60f3bc4e36762e0c2d9132cb,61036f849502754c05212a36,2021-07-29_23h25.23.886,Simcolourproject_2stim_asymm_v5,2020.2.10,Win32,60,61025ae37ef11b136ea224fe,,,,,,,,,3229,14.86359549,51.24244314,1,0,0,response1disk,,7,-8.772766531,-2.696947098,1,0,0,rectangle,60.31813782,-23.30300629,1,0,0,14.25757191,-1.484825969,1,0,0,1,18,178,26,1,,response3disk_3,TRUE,5,5,"[256,158,189,278,238,208,85,255,167,277,229,179,223,320,242,53,143,23,294,137]",2.9496,rectangle
,,,,,,,,,,,,,FF,,,,,,,,1.0499,,,,,,,,,,,,,,,,,,,,,,60f3bc4e36762e0c2d9132cb,61036f849502754c05212a36,2021-07-29_23h25.23.886,Simcolourproject_2stim_asymm_v5,2020.2.10,Win32,60,61025ae37ef11b136ea224fe,,,,,,,,,2452,19.71208,47.00003769,1,0,0,response1disk,,7,8.803026832,0.333355725,1,0,0,rectangle,8.803026832,0.333355725,1,0,0,8.803026832,0.333355725,1,0,0,1,19,179,61,1,,,,,,,,
,,,,,,,,,,,,,FF,,,,,,,,0.5499,,,,,,,,,,,,,,,,,,,,,,60f3bc4e36762e0c2d9132cb,61036f849502754c05212a36,2021-07-29_23h25.23.886,Simcolourproject_2stim_asymm_v5,2020.2.10,Win32,60,61025ae37ef11b136ea224fe,,,,,,,,,1116,25.16666207,47.00003769,1,0,0,response1disk,,7,8.803026832,0.333355725,1,0,0,rectangle,8.803026832,0.333355725,1,0,0,8.803026832,0.333355725,1,0,0,1,20,180,84,1,,,,,,,,
,,,,,,,,,,,,,FF,,,,,,,,0.4997,,,,,,,,,,,,,,,,,,,,,,60f3bc4e36762e0c2d9132cb,61036f849502754c05212a36,2021-07-29_23h25.23.886,Simcolourproject_2stim_asymm_v5,2020.2.10,Win32,60,61025ae37ef11b136ea224fe,,,,,,,,,3269,25.77268565,49.42426145,1,0,0,response1disk,,7,1.530263066,-0.878765404,1,0,0,rectangle,1.530263066,-0.878765404,1,0,0,1.530263066,-0.878765404,1,0,0,1,21,181,132,1,,,,,,,,
,,,,,,,,,,,,,FF,,,,,,,,0.6002,,,,,,,,,,,,,,,,,,,,,,60f3bc4e36762e0c2d9132cb,61036f849502754c05212a36,2021-07-29_23h25.23.886,Simcolourproject_2stim_asymm_v5,2020.2.10,Win32,60,61025ae37ef11b136ea224fe,,,,,,,,,1769,26.98484377,51.24244314,1,0,0,response1disk,,7,3.954505324,3.363658547,1,0,0,rectangle,3.954505324,3.363658547,1,0,0,3.954505324,3.363658547,1,0,0,1,22,182,115,1,,,,,,,,
,,,,,,,,,,,,,FF,,,,,,,,1.2669,,,,,,,,,,,,,,,,,,,,,,60f3bc4e36762e0c2d9132cb,61036f849502754c05212a36,2021-07-29_23h25.23.886,Simcolourproject_2stim_asymm_v5,2020.2.10,Win32,60,61025ae37ef11b136ea224fe,,,,,,,,,2896,36.68173882,-63.90906411,1,0,0,response3disk,,4,16.07575361,-6.333310485,1,0,0,rectangle,16.07575361,-6.333310485,1,0,0,16.07575361,-6.333310485,1,0,0,1,23,183,25,1,,,,,,,,
,,,,,,,,,,,,,FF,,,,,,,,1.0161,,,,,,,,,,,,,,,,,,,,,,60f3bc4e36762e0c2d9132cb,61036f849502754c05212a36,2021-07-29_23h25.23.886,Simcolourproject_2stim_asymm_v5,2020.2.10,Win32,60,61025ae37ef11b136ea224fe,,,,,,,,,2960,35.46965468,-51.78785282,1,0,0,response3disk,,4,0.924202502,3.969719112,1,0,0,rectangle,0.924202502,3.969719112,1,0,0,0.924202502,3.969719112,1,0,0,1,24,184,77,1,,,,,,,,
,,,,,,,,,,,,,FF,,,,,,,,0.6669,,,,,,,,,,,,,,,,,,,,,,60f3bc4e36762e0c2d9132cb,61036f849502754c05212a36,2021-07-29_23h25.23.886,Simcolourproject_2stim_asymm_v5,2020.2.10,Win32,60,61025ae37ef11b136ea224fe,,,,,,,,,1338,42.74238145,49.42426145,1,0,0,response1disk,,7,13.04541379,-5.72724992,1,0,0,rectangle,13.04541379,-5.72724992,1,0,0,13.04541379,-5.72724992,1,0,0,1,25,185,127,1,,,,,,,,
,,,,,,,,,,,,,FF,,,,,,,,1.0825,,,,,,,,,,,,,,,,,,,,,,60f3bc4e36762e0c2d9132cb,61036f849502754c05212a36,2021-07-29_23h25.23.886,Simcolourproject_2stim_asymm_v5,2020.2.10,Win32,60,61025ae37ef11b136ea224fe,,,,,,,,,825,63.95450121,-39.06058097,1,0,0,response3disk,,5,9.409050405,5.787900805,1,0,0,rectangle,9.409050405,5.787900805,1,0,0,9.409050405,5.787900805,1,0,0,1,26,186,9,1,,,,,,,,
,,,,,,,,,,,,,FF,,,,,,,,0.6991,,,,,,,,,,,,,,,,,,,,,,60f3bc4e36762e0c2d9132cb,61036f849502754c05212a36,2021-07-29_23h25.23.886,Simcolourproject_2stim_asymm_v5,2020.2.10,Win32,60,61025ae37ef11b136ea224fe,,,,,,,,,2572,30.62120715,49.42426145,1,0,0,response1disk,,7,3.348518742,-0.878765404,1,0,0,rectangle,3.348518742,-0.878765404,1,0,0,3.348518742,-0.878765404,1,0,0,1,27,187,3,1,,,,,,,,
,,,,,,,,,,,,,FF,,,,,,,,0.9833,,,,,,,,,,,,,,,,,,,,,,60f3bc4e36762e0c2d9132cb,61036f849502754c05212a36,2021-07-29_23h25.23.886,Simcolourproject_2stim_asymm_v5,2020.2.10,Win32,60,61025ae37ef11b136ea224fe,,,,,,,,,1592,30.62120715,50.63638258,1,0,0,response1disk,,7,1.530263066,6.39396137,1,0,0,rectangle,71.22722799,-32.39391476,1,0,0,-14.22731161,0.333355725,1,0,0,1,28,188,97,1,,response3disk_3,TRUE,5,5,"[256,158,189,278,238,208,85,255,167,277,229,179,223,320,242,53,143,23,294,137]",1.7329,rectangle
,,,,,,,,,,,,,FF,,,,,,,,1.0161,,,,,,,,,,,,,,,,,,,,,,60f3bc4e36762e0c2d9132cb,61036f849502754c05212a36,2021-07-29_23h25.23.886,Simcolourproject_2stim_asymm_v5,2020.2.10,Win32,60,61025ae37ef11b136ea224fe,,,,,,,,,1929,24.56052753,43.36365581,1,0,0,response1disk,,7,-5.742426717,2.151537418,1,0,0,rectangle,-5.742426717,2.151537418,1,0,0,-5.742426717,2.151537418,1,0,0,1,29,189,15,1,,,,,,,,
,,,,,,,,,,,,,FF,,,,,,,,0.7992,,,,,,,,,,,,,,,,,,,,,,60f3bc4e36762e0c2d9132cb,61036f849502754c05212a36,2021-07-29_23h25.23.886,Simcolourproject_2stim_asymm_v5,2020.2.10,Win32,60,61025ae37ef11b136ea224fe,,,,,,,,,1818,-26.3485229,-44.51512605,1,0,0,response5disk,,3,0.924202502,6.39396137,1,0,0,rectangle,0.924202502,6.39396137,1,0,0,0.924202502,6.39396137,1,0,0,1,30,190,144,1,,,,,,,,
,,,,,,,,,,,,,FF,,,,,,,,1.033,,,,,,,,,,,,,,,,,,,,,,60f3bc4e36762e0c2d9132cb,61036f849502754c05212a36,2021-07-29_23h25.23.886,Simcolourproject_2stim_asymm_v5,2020.2.10,Win32,60,61025ae37ef11b136ea224fe,,,,,,,,,3395,-56.65147715,-45.12118661,1,0,0,response5disk,,2,18.49992188,-5.72724992,1,0,0,rectangle,18.49992188,-5.72724992,1,0,0,18.49992188,-5.72724992,1,0,0,1,31,191,76,1,,,,,,,,
,,,,,,,,,,,,,FF,,,,,,,,1.3668,,,,,,,,,,,,,,,,,,,,,,60f3bc4e36762e0c2d9132cb,61036f849502754c05212a36,2021-07-29_23h25.23.886,Simcolourproject_2stim_asymm_v5,2020.2.10,Win32,60,61025ae37ef11b136ea224fe,,,,,,,,,2516,27.59086734,50.03030352,1,0,0,response1disk,,7,5.772687018,12.45456702,1,0,0,rectangle,5.772687018,12.45456702,1,0,0,5.772687018,12.45456702,1,0,0,1,32,192,18,1,,,,,,,,
,,,,,,,,,,,,,FF,,,,,,,,0.8831,,,,,,,,,,,,,,,,,,,,,,60f3bc4e36762e0c2d9132cb,61036f849502754c05212a36,2021-07-29_23h25.23.886,Simcolourproject_2stim_asymm_v5,2020.2.10,Win32,60,61025ae37ef11b136ea224fe,,,,,,,,,2638,21.5302617,43.36365581,1,0,0,response1disk,,7,6.378710591,10.03032476,1,0,0,rectangle,6.378710591,10.03032476,1,0,0,6.378710591,10.03032476,1,0,0,1,33,193,14,1,,,,,,,,
,,,,,,,,,,,,,FF,,,,,,,,0.7329,,,,,,,,,,,,,,,,,,,,,,60f3bc4e36762e0c2d9132cb,61036f849502754c05212a36,2021-07-29_23h25.23.886,Simcolourproject_2stim_asymm_v5,2020.2.10,Win32,60,61025ae37ef11b136ea224fe,,,,,,,,,2503,22.74234583,39.72729242,1,0,0,response1disk,,7,-5.742426717,-3.303007662,1,0,0,rectangle,-5.742426717,-3.303007662,1,0,0,-5.742426717,-3.303007662,1,0,0,1,34,194,154,1,,,,,,,,
,,,,,,,,,,,,,FF,,,,,,,,0.6329,,,,,,,,,,,,,,,,,,,,,,60f3bc4e36762e0c2d9132cb,61036f849502754c05212a36,2021-07-29_23h25.23.886,Simcolourproject_2stim_asymm_v5,2020.2.10,Win32,60,61025ae37ef11b136ea224fe,,,,,,,,,2438,24.56052753,34.27274734,1,0,0,response1disk,,7,7.590868711,-2.090886533,1,0,0,rectangle,7.590868711,-2.090886533,1,0,0,7.590868711,-2.090886533,1,0,0,1,35,195,32,1,,,,,,,,
,,,,,,,,,,,,,FF,,,,,,,,1.316,,,,,,,,,,,,,,,,,,,,,,60f3bc4e36762e0c2d9132cb,61036f849502754c05212a36,2021-07-29_23h25.23.886,Simcolourproject_2stim_asymm_v5,2020.2.10,Win32,60,61025ae37ef11b136ea224fe,,,,,,,,,1028,25.77268565,41.54547411,1,0,0,response1disk,,7,13.65147436,3.969719112,1,0,0,rectangle,13.65147436,3.969719112,1,0,0,13.65147436,3.969719112,1,0,0,1,36,196,73,1,,,,,,,,
,,,,,,,,,,,,,FF,,,,,,,,0.5826,,,,,,,,,,,,,,,,,,,,,,60f3bc4e36762e0c2d9132cb,61036f849502754c05212a36,2021-07-29_23h25.23.886,Simcolourproject_2stim_asymm_v5,2020.2.10,Win32,60,61025ae37ef11b136ea224fe,,,,,,,,,343,20.31810358,37.30305016,1,0,0,response1disk,,7,1.530263066,-1.484825969,1,0,0,rectangle,1.530263066,-1.484825969,1,0,0,1.530263066,-1.484825969,1,0,0,1,37,197,35,1,,,,,,,,
,,,,,,,,,,,,,FF,,,,,,,,4.2322,,,,,,,,,,,,,,,,,,,,,,60f3bc4e36762e0c2d9132cb,61036f849502754c05212a36,2021-07-29_23h25.23.886,Simcolourproject_2stim_asymm_v5,2020.2.10,Win32,60,61025ae37ef11b136ea224fe,,,,,,,,,2884,42.13632089,19.72729379,1,0,0,response1disk,,6,-13.01515349,-8.757515752,1,0,0,rectangle,-13.01515349,-8.757515752,1,0,0,-13.01515349,-8.757515752,1,0,0,1,38,198,110,1,,,,,,,,
,,,,,,,,,,,,,FF,,,,,,,,0.5666,,,,,,,,,,,,,,,,,,,,,,60f3bc4e36762e0c2d9132cb,61036f849502754c05212a36,2021-07-29_23h25.23.886,Simcolourproject_2stim_asymm_v5,2020.2.10,Win32,60,61025ae37ef11b136ea224fe,,,,,,,,,36,27.59086734,50.63638258,1,0,0,response1disk,,7,-3.924245023,0.939416289,1,0,0,rectangle,-3.924245023,0.939416289,1,0,0,-3.924245023,0.939416289,1,0,0,1,39,199,49,1,,,,,,,,
,,,,,,,,,,,,,FF,,,,,,,,1.1665,,,,,,,,,,,,,,,,,,,,,,60f3bc4e36762e0c2d9132cb,61036f849502754c05212a36,2021-07-29_23h25.23.886,Simcolourproject_2stim_asymm_v5,2020.2.10,Win32,60,61025ae37ef11b136ea224fe,,,,,,,,,1375,24.56052753,-63.30300355,1,0,0,response3disk,,4,7.590868711,3.363658547,1,0,0,rectangle,7.590868711,3.363658547,1,0,0,7.590868711,3.363658547,1,0,0,1,40,200,126,1,,,,,,,,
,,,,,,,,,,,,,FF,,,,,,,,0.6992,,,,,,,,,,,,,,,,,,,,,,60f3bc4e36762e0c2d9132cb,61036f849502754c05212a36,2021-07-29_23h25.23.886,Simcolourproject_2stim_asymm_v5,2020.2.10,Win32,60,61025ae37ef11b136ea224fe,,,,,,,,,2571,24.56052753,43.36365581,1,0,0,response1disk,,7,6.378710591,-6.333310485,1,0,0,rectangle,6.378710591,-6.333310485,1,0,0,6.378710591,-6.333310485,1,0,0,1,41,201,66,1,,,,,,,,
,,,,,,,,,,,,,FF,,,,,,,,0.5162,,,,,,,,,,,,,,,,,,,,,,60f3bc4e36762e0c2d9132cb,61036f849502754c05212a36,2021-07-29_23h25.23.886,Simcolourproject_2stim_asymm_v5,2020.2.10,Win32,60,61025ae37ef11b136ea224fe,,,,,,,,,226,18.49992188,40.33335298,1,0,0,response1disk,,7,1.530263066,-7.545431614,1,0,0,rectangle,1.530263066,-7.545431614,1,0,0,1.530263066,-7.545431614,1,0,0,1,42,202,47,1,,,,,,,,
,,,,,,,,,,,,,FF,,,,,,,,1.233,,,,,,,,,,,,,,,,,,,,,,60f3bc4e36762e0c2d9132cb,61036f849502754c05212a36,2021-07-29_23h25.23.886,Simcolourproject_2stim_asymm_v5,2020.2.10,Win32,60,61025ae37ef11b136ea224fe,,,,,,,,,72,41.53026032,-76.63633597,1,0,0,response3disk,,4,1.530263066,-12.99997669,1,0,0,rectangle,1.530263066,-12.99997669,1,0,0,1.530263066,-12.99997669,1,0,0,1,43,203,40,1,,,,,,,,
,,,,,,,,,,,,,FF,,,,,,,,0.6666,,,,,,,,,,,,,,,,,,,,,,60f3bc4e36762e0c2d9132cb,61036f849502754c05212a36,2021-07-29_23h25.23.886,Simcolourproject_2stim_asymm_v5,2020.2.10,Win32,60,61025ae37ef11b136ea224fe,,,,,,,,,210,27.59086734,54.87882503,1,0,0,response1disk,,7,6.378710591,2.757597983,1,0,0,rectangle,6.378710591,2.757597983,1,0,0,6.378710591,2.757597983,1,0,0,1,44,204,70,1,,,,,,,,
,,,,,,,,,,,,,FF,,,,,,,,0.8333,,,,,,,,,,,,,,,,,,,,,,60f3bc4e36762e0c2d9132cb,61036f849502754c05212a36,2021-07-29_23h25.23.886,Simcolourproject_2stim_asymm_v5,2020.2.10,Win32,60,61025ae37ef11b136ea224fe,,,,,,,,,2650,33.04541242,40.93939505,1,0,0,response1disk,,7,8.196892285,-6.333310485,1,0,0,rectangle,8.196892285,-6.333310485,1,0,0,8.196892285,-6.333310485,1,0,0,1,45,205,119,1,,,,,,,,
,,,,,,,,,,,,,FF,,,,,,,,0.9501,,,,,,,,,,,,,,,,,,,,,,60f3bc4e36762e0c2d9132cb,61036f849502754c05212a36,2021-07-29_23h25.23.886,Simcolourproject_2stim_asymm_v5,2020.2.10,Win32,60,61025ae37ef11b136ea224fe,,,,,,,,,4207,-67.5606043,23.36365718,1,0,0,response7disk,,1,-10.59094822,-5.72724992,1,0,0,rectangle,-10.59094822,-5.72724992,1,0,0,-10.59094822,-5.72724992,1,0,0,1,46,206,38,1,,,,,,,,
,,,,,,,,,,,,,FF,,,,,,,,4.8648,,,,,,,,,,,,,,,,,,,,,,60f3bc4e36762e0c2d9132cb,61036f849502754c05212a36,2021-07-29_23h25.23.886,Simcolourproject_2stim_asymm_v5,2020.2.10,Win32,60,61025ae37ef11b136ea224fe,,,,,,,,,3899,26.37870922,40.93939505,1,0,0,response1disk,,7,3.954505324,-0.27270484,1,0,0,rectangle,65.77268291,-29.9696725,1,0,0,10.62120853,-2.696947098,1,0,0,1,47,207,55,1,,response3disk_3,TRUE,5,5,"[256,158,189,278,238,208,85,255,167,277,229,179,223,320,242,53,143,23,294,137]",1.9988,rectangle
,,,,,,,,,,,,,FF,,,,,,,,0.6662,,,,,,,,,,,,,,,,,,,,,,60f3bc4e36762e0c2d9132cb,61036f849502754c05212a36,2021-07-29_23h25.23.886,Simcolourproject_2stim_asymm_v5,2020.2.10,Win32,60,61025ae37ef11b136ea224fe,,,,,,,,,327,25.16666207,47.00003769,1,0,0,response1disk,,7,0.318104946,-0.27270484,1,0,0,rectangle,0.318104946,-0.27270484,1,0,0,0.318104946,-0.27270484,1,0,0,1,48,208,21,1,,,,,,,,
,,,,,,,,,,,,,FF,,,,,,,,0.6166,,,,,,,,,,,,,,,,,,,,,,60f3bc4e36762e0c2d9132cb,61036f849502754c05212a36,2021-07-29_23h25.23.886,Simcolourproject_2stim_asymm_v5,2020.2.10,Win32,60,61025ae37ef11b136ea224fe,,,,,,,,,2974,19.10601944,48.81820089,1,0,0,response1disk,,7,0.924202502,2.757597983,1,0,0,rectangle,0.924202502,2.757597983,1,0,0,0.924202502,2.757597983,1,0,0,1,49,209,148,1,,,,,,,,
,,,,,,,,,,,,,FF,,,,,,,,0.467,,,,,,,,,,,,,,,,,,,,,,60f3bc4e36762e0c2d9132cb,61036f849502754c05212a36,2021-07-29_23h25.23.886,Simcolourproject_2stim_asymm_v5,2020.2.10,Win32,60,61025ae37ef11b136ea224fe,,,,,,,,,2806,28.19689091,47.60607976,1,0,0,response1disk,,7,2.136360622,-0.27270484,1,0,0,rectangle,2.136360622,-0.27270484,1,0,0,2.136360622,-0.27270484,1,0,0,1,50,210,125,1,,,,,,,,
,,,,,,,,,,,,,FF,,,,,,,,0.4328,,,,,,,,,,,,,,,,,,,,,,60f3bc4e36762e0c2d9132cb,61036f849502754c05212a36,2021-07-29_23h25.23.886,Simcolourproject_2stim_asymm_v5,2020.2.10,Win32,60,61025ae37ef11b136ea224fe,,,,,,,,,291,28.19689091,51.24244314,1,0,0,response1disk,,7,-2.106100321,2.757597983,1,0,0,rectangle,-2.106100321,2.757597983,1,0,0,-2.106100321,2.757597983,1,0,0,1,51,211,34,1,,,,,,,,
,,,,,,,,,,,,,FF,,,,,,,,0.4335,,,,,,,,,,,,,,,,,,,,,,60f3bc4e36762e0c2d9132cb,61036f849502754c05212a36,2021-07-29_23h25.23.886,Simcolourproject_2stim_asymm_v5,2020.2.10,Win32,60,61025ae37ef11b136ea224fe,,,,,,,,,2122,19.10601944,41.54547411,1,0,0,response1disk,,7,-3.924245023,-0.878765404,1,0,0,rectangle,-3.924245023,-0.878765404,1,0,0,-3.924245023,-0.878765404,1,0,0,1,52,212,112,1,,,,,,,,
,,,,,,,,,,,,,FF,,,,,,,,2.2155,,,,,,,,,,,,,,,,,,,,,,60f3bc4e36762e0c2d9132cb,61036f849502754c05212a36,2021-07-29_23h25.23.886,Simcolourproject_2stim_asymm_v5,2020.2.10,Win32,60,61025ae37ef11b136ea224fe,,,,,,,,,3469,-38.46973419,59.12121199,1,0,0,response7disk,,0,-5.742426717,-2.090886533,1,0,0,rectangle,-5.742426717,-2.090886533,1,0,0,-5.742426717,-2.090886533,1,0,0,1,53,213,0,1,,,,,,,,
,,,,,,,,,,,,,FF,,,,,,,,1.3487,,,,,,,,,,,,,,,,,,,,,,60f3bc4e36762e0c2d9132cb,61036f849502754c05212a36,2021-07-29_23h25.23.886,Simcolourproject_2stim_asymm_v5,2020.2.10,Win32,60,61025ae37ef11b136ea224fe,,,,,,,,,2779,-35.43946836,-60.27270073,1,0,0,response5disk,,3,-4.530342579,-0.878765404,1,0,0,rectangle,-4.530342579,-0.878765404,1,0,0,-4.530342579,-0.878765404,1,0,0,1,54,214,156,1,,,,,,,,
,,,,,,,,,,,,,FF,,,,,,,,1.2835,,,,,,,,,,,,,,,,,,,,,,60f3bc4e36762e0c2d9132cb,61036f849502754c05212a36,2021-07-29_23h25.23.886,Simcolourproject_2stim_asymm_v5,2020.2.10,Win32,60,61025ae37ef11b136ea224fe,,,,,,,,,1825,16.07575361,-55.42421621,1,0,0,response3disk,,4,2.136360622,5.787900805,1,0,0,rectangle,2.136360622,5.787900805,1,0,0,2.136360622,5.787900805,1,0,0,1,55,215,139,1,,,,,,,,
,,,,,,,,,,,,,FF,,,,,,,,0.6492,,,,,,,,,,,,,,,,,,,,,,60f3bc4e36762e0c2d9132cb,61036f849502754c05212a36,2021-07-29_23h25.23.886,Simcolourproject_2stim_asymm_v5,2020.2.10,Win32,60,61025ae37ef11b136ea224fe,,,,,,,,,2937,33.65147299,47.60607976,1,0,0,response1disk,,7,12.43939022,5.181840241,1,0,0,rectangle,12.43939022,5.181840241,1,0,0,12.43939022,5.181840241,1,0,0,1,56,216,122,1,,,,,,,,
,,,,,,,,,,,,,FF,,,,,,,,0.4999,,,,,,,,,,,,,,,,,,,,,,60f3bc4e36762e0c2d9132cb,61036f849502754c05212a36,2021-07-29_23h25.23.886,Simcolourproject_2stim_asymm_v5,2020.2.10,Win32,60,61025ae37ef11b136ea224fe,,,,,,,,,2143,19.10601944,37.30305016,1,0,0,response1disk,,7,0.318104946,-0.878765404,1,0,0,rectangle,0.318104946,-0.878765404,1,0,0,0.318104946,-0.878765404,1,0,0,1,57,217,88,1,,,,,,,,
,,,,,,,,,,,,,FF,,,,,,,,0.4661,,,,,,,,,,,,,,,,,,,,,,60f3bc4e36762e0c2d9132cb,61036f849502754c05212a36,2021-07-29_23h25.23.886,Simcolourproject_2stim_asymm_v5,2020.2.10,Win32,60,61025ae37ef11b136ea224fe,,,,,,,,,2332,32.43938885,41.54547411,1,0,0,response1disk,,7,13.65147436,-0.27270484,1,0,0,rectangle,13.65147436,-0.27270484,1,0,0,13.65147436,-0.27270484,1,0,0,1,58,218,95,1,,,,,,,,
,,,,,,,,,,,,,FF,,,,,,,,0.4336,,,,,,,,,,,,,,,,,,,,,,60f3bc4e36762e0c2d9132cb,61036f849502754c05212a36,2021-07-29_23h25.23.886,Simcolourproject_2stim_asymm_v5,2020.2.10,Win32,60,61025ae37ef11b136ea224fe,,,,,,,,,397,29.40904903,44.57573994,1,0,0,response1disk,,7,9.409050405,-2.090886533,1,0,0,rectangle,9.409050405,-2.090886533,1,0,0,9.409050405,-2.090886533,1,0,0,1,59,219,111,1,,,,,,,,
,,,,,,,,,,,,,FF,,,,,,,,0.5498,,,,,,,,,,,,,,,,,,,,,,60f3bc4e36762e0c2d9132cb,61036f849502754c05212a36,2021-07-29_23h25.23.886,Simcolourproject_2stim_asymm_v5,2020.2.10,Win32,60,61025ae37ef11b136ea224fe,,,,,,,,,1115,31.83329129,43.96973487,1,0,0,response1disk,,7,11.2272321,-3.303007662,1,0,0,rectangle,11.2272321,-3.303007662,1,0,0,11.2272321,-3.303007662,1,0,0,1,60,220,28,1,,,,,,,,
,,,,,,,,,,,,,FF,,,,,,,,0.4339,,,,,,,,,,,,,,,,,,,,,,60f3bc4e36762e0c2d9132cb,61036f849502754c05212a36,2021-07-29_23h25.23.886,Simcolourproject_2stim_asymm_v5,2020.2.10,Win32,60,61025ae37ef11b136ea224fe,,,,,,,,,2529,27.59086734,44.57573994,1,0,0,response1disk,,7,8.196892285,-2.090886533,1,0,0,rectangle,8.196892285,-2.090886533,1,0,0,8.196892285,-2.090886533,1,0,0,1,61,221,151,1,,,,,,,,
,,,,,,,,,,,,,FF,,,,,,,,0.4998,,,,,,,,,,,,,,,,,,,,,,60f3bc4e36762e0c2d9132cb,61036f849502754c05212a36,2021-07-29_23h25.23.886,Simcolourproject_2stim_asymm_v5,2020.2.10,Win32,60,61025ae37ef11b136ea224fe,,,,,,,,,1499,19.10601944,41.54547411,1,0,0,response1disk,,7,5.166663444,-0.878765404,1,0,0,rectangle,-59.07579339,-32.39391476,1,0,0,-1.500076747,2.151537418,1,0,0,1,62,222,82,1,,response5disk_3,TRUE,2,2,"[256,158,189,278,238,208,85,255,167,277,229,179,223,320,242,53,143,23,294,137]",1.5999,rectangle
,,,,,,,,,,,,,FF,,,,,,,,0.8837,,,,,,,,,,,,,,,,,,,,,,60f3bc4e36762e0c2d9132cb,61036f849502754c05212a36,2021-07-29_23h25.23.886,Simcolourproject_2stim_asymm_v5,2020.2.10,Win32,60,61025ae37ef11b136ea224fe,,,,,,,,,4029,27.59086734,-57.2423979,1,0,0,response3disk,,4,3.954505324,-2.696947098,1,0,0,rectangle,3.954505324,-2.696947098,1,0,0,3.954505324,-2.696947098,1,0,0,1,63,223,123,1,,,,,,,,
,,,,,,,,,,,,,FF,,,,,,,,1.0162,,,,,,,,,,,,,,,,,,,,,,60f3bc4e36762e0c2d9132cb,61036f849502754c05212a36,2021-07-29_23h25.23.886,Simcolourproject_2stim_asymm_v5,2020.2.10,Win32,60,61025ae37ef11b136ea224fe,,,,,,,,,722,30.62120715,-63.90906411,1,0,0,response3disk,,4,-0.893979192,0.333355725,1,0,0,rectangle,-0.893979192,0.333355725,1,0,0,-0.893979192,0.333355725,1,0,0,1,64,224,37,1,,,,,,,,
,,,,,,,,,,,,,FF,,,,,,,,1.3038,,,,,,,,,,,,,,,,,,,,,,60f3bc4e36762e0c2d9132cb,61036f849502754c05212a36,2021-07-29_23h25.23.886,Simcolourproject_2stim_asymm_v5,2020.2.10,Win32,60,61025ae37ef11b136ea224fe,,,,,,,,,3299,45.77268428,-31.18179363,1,0,0,response3disk,,5,-11.80303236,-9.969673872,1,0,0,rectangle,-11.80303236,-9.969673872,1,0,0,-11.80303236,-9.969673872,1,0,0,1,65,225,48,1,,,,,,,,
,,,,,,,,,,,,,FF,,,,,,,,1,,,,,,,,,,,,,,,,,,,,,,60f3bc4e36762e0c2d9132cb,61036f849502754c05212a36,2021-07-29_23h25.23.886,Simcolourproject_2stim_asymm_v5,2020.2.10,Win32,60,61025ae37ef11b136ea224fe,,,,,,,,,2864,48.19692653,55.4848671,1,0,0,response1disk,,7,14.25757191,0.333355725,1,0,0,rectangle,14.25757191,0.333355725,1,0,0,14.25757191,0.333355725,1,0,0,1,66,226,140,1,,,,,,,,
,,,,,,,,,,,,,FF,,,,,,,,0.5999,,,,,,,,,,,,,,,,,,,,,,60f3bc4e36762e0c2d9132cb,61036f849502754c05212a36,2021-07-29_23h25.23.886,Simcolourproject_2stim_asymm_v5,2020.2.10,Win32,60,61025ae37ef11b136ea224fe,,,,,,,,,2351,25.77268565,42.15151618,1,0,0,response1disk,,7,7.590868711,5.181840241,1,0,0,rectangle,7.590868711,5.181840241,1,0,0,7.590868711,5.181840241,1,0,0,1,67,227,20,1,,,,,,,,
,,,,,,,,,,,,,FF,,,,,,,,0.8825,,,,,,,,,,,,,,,,,,,,,,60f3bc4e36762e0c2d9132cb,61036f849502754c05212a36,2021-07-29_23h25.23.886,Simcolourproject_2stim_asymm_v5,2020.2.10,Win32,60,61025ae37ef11b136ea224fe,,,,,,,,,2768,62.74238008,-34.81815702,1,0,0,response3disk,,5,0.924202502,2.151537418,1,0,0,rectangle,66.98480403,40.33335298,1,0,0,18.49992188,-5.72724992,1,0,0,1,68,228,96,1,,response1disk_3,TRUE,6,6,"[256,158,189,278,238,208,85,255,167,277,229,179,223,320,242,53,143,23,294,137]",1.4317,rectangle
,,,,,,,,,,,,,FF,,,,,,,,1.0324,,,,,,,,,,,,,,,,,,,,,,60f3bc4e36762e0c2d9132cb,61036f849502754c05212a36,2021-07-29_23h25.23.886,Simcolourproject_2stim_asymm_v5,2020.2.10,Win32,60,61025ae37ef11b136ea224fe,,,,,,,,,3970,40.92419976,-31.18179363,1,0,0,response3disk,,5,10.62120853,-3.303007662,1,0,0,rectangle,10.62120853,-3.303007662,1,0,0,10.62120853,-3.303007662,1,0,0,1,69,229,143,1,,,,,,,,
,,,,,,,,,,,,,FF,,,,,,,,0.5326,,,,,,,,,,,,,,,,,,,,,,60f3bc4e36762e0c2d9132cb,61036f849502754c05212a36,2021-07-29_23h25.23.886,Simcolourproject_2stim_asymm_v5,2020.2.10,Win32,60,61025ae37ef11b136ea224fe,,,,,,,,,964,28.19689091,41.54547411,1,0,0,response1disk,,7,7.590868711,-4.515128791,1,0,0,rectangle,7.590868711,-4.515128791,1,0,0,7.590868711,-4.515128791,1,0,0,1,70,230,105,1,,,,,,,,
,,,,,,,,,,,,,FF,,,,,,,,0.5337,,,,,,,,,,,,,,,,,,,,,,60f3bc4e36762e0c2d9132cb,61036f849502754c05212a36,2021-07-29_23h25.23.886,Simcolourproject_2stim_asymm_v5,2020.2.10,Win32,60,61025ae37ef11b136ea224fe,,,,,,,,,708,25.16666207,41.54547411,1,0,0,response1disk,,7,6.378710591,-3.303007662,1,0,0,rectangle,6.378710591,-3.303007662,1,0,0,6.378710591,-3.303007662,1,0,0,1,71,231,8,1,,,,,,,,
,,,,,,,,,,,,,FF,,,,,,,,0.9493,,,,,,,,,,,,,,,,,,,,,,60f3bc4e36762e0c2d9132cb,61036f849502754c05212a36,2021-07-29_23h25.23.886,Simcolourproject_2stim_asymm_v5,2020.2.10,Win32,60,61025ae37ef11b136ea224fe,,,,,,,,,2952,27.59086734,-61.48482186,1,0,0,response3disk,,4,-9.98488766,-3.303007662,1,0,0,rectangle,-9.98488766,-3.303007662,1,0,0,-9.98488766,-3.303007662,1,0,0,1,72,232,104,1,,,,,,,,
,,,,,,,,,,,,,FF,,,,,,,,0.6,,,,,,,,,,,,,,,,,,,,,,60f3bc4e36762e0c2d9132cb,61036f849502754c05212a36,2021-07-29_23h25.23.886,Simcolourproject_2stim_asymm_v5,2020.2.10,Win32,60,61025ae37ef11b136ea224fe,,,,,,,,,268,29.40904903,47.60607976,1,0,0,response1disk,,7,13.65147436,-1.484825969,1,0,0,rectangle,13.65147436,-1.484825969,1,0,0,13.65147436,-1.484825969,1,0,0,1,73,233,124,1,,,,,,,,
,,,,,,,,,,,,,FF,,,,,,,,0.5998,,,,,,,,,,,,,,,,,,,,,,60f3bc4e36762e0c2d9132cb,61036f849502754c05212a36,2021-07-29_23h25.23.886,Simcolourproject_2stim_asymm_v5,2020.2.10,Win32,60,61025ae37ef11b136ea224fe,,,,,,,,,1007,23.34851737,38.51517129,1,0,0,response1disk,,7,3.348518742,-0.27270484,1,0,0,rectangle,3.348518742,-0.27270484,1,0,0,3.348518742,-0.27270484,1,0,0,1,74,234,7,1,,,,,,,,
,,,,,,,,,,,,,FF,,,,,,,,0.4321,,,,,,,,,,,,,,,,,,,,,,60f3bc4e36762e0c2d9132cb,61036f849502754c05212a36,2021-07-29_23h25.23.886,Simcolourproject_2stim_asymm_v5,2020.2.10,Win32,60,61025ae37ef11b136ea224fe,,,,,,,,,2465,17.89389831,49.42426145,1,0,0,response1disk,,7,-0.893979192,-2.696947098,1,0,0,rectangle,-0.893979192,-2.696947098,1,0,0,-0.893979192,-2.696947098,1,0,0,1,75,235,79,1,,,,,,,,
,,,,,,,,,,,,,FF,,,,,,,,1.0491,,,,,,,,,,,,,,,,,,,,,,60f3bc4e36762e0c2d9132cb,61036f849502754c05212a36,2021-07-29_23h25.23.886,Simcolourproject_2stim_asymm_v5,2020.2.10,Win32,60,61025ae37ef11b136ea224fe,,,,,,,,,157,65.77268291,-38.4545204,1,0,0,response3disk,,5,17.89389831,3.363658547,1,0,0,rectangle,17.89389831,3.363658547,1,0,0,17.89389831,3.363658547,1,0,0,1,76,236,114,1,,,,,,,,
,,,,,,,,,,,,,FF,,,,,,,,0.6504,,,,,,,,,,,,,,,,,,,,,,60f3bc4e36762e0c2d9132cb,61036f849502754c05212a36,2021-07-29_23h25.23.886,Simcolourproject_2stim_asymm_v5,2020.2.10,Win32,60,61025ae37ef11b136ea224fe,,,,,,,,,851,30.01514659,54.87882503,1,0,0,response1disk,,7,11.2272321,5.787900805,1,0,0,rectangle,68.80298573,-36.63633871,1,0,0,4.560528898,-3.303007662,1,0,0,1,77,237,146,1,,response3disk_3,TRUE,5,5,"[256,158,189,278,238,208,85,255,167,277,229,179,223,320,242,53,143,23,294,137]",1.4494,rectangle
,,,,,,,,,,,,,FF,,,,,,,,0.9511,,,,,,,,,,,,,,,,,,,,,,60f3bc4e36762e0c2d9132cb,61036f849502754c05212a36,2021-07-29_23h25.23.886,Simcolourproject_2stim_asymm_v5,2020.2.10,Win32,60,61025ae37ef11b136ea224fe,,,,,,,,,3824,26.37870922,-50.57573169,1,0,0,response3disk,,4,3.348518742,5.787900805,1,0,0,rectangle,3.348518742,5.787900805,1,0,0,3.348518742,5.787900805,1,0,0,1,78,238,85,1,,,,,,,,
,,,,,,,,,,,,,FF,,,,,,,,0.534,,,,,,,,,,,,,,,,,,,,,,60f3bc4e36762e0c2d9132cb,61036f849502754c05212a36,2021-07-29_23h25.23.886,Simcolourproject_2stim_asymm_v5,2020.2.10,Win32,60,61025ae37ef11b136ea224fe,,,,,,,,,1068,27.59086734,42.15151618,1,0,0,response1disk,,7,9.409050405,-1.484825969,1,0,0,rectangle,9.409050405,-1.484825969,1,0,0,9.409050405,-1.484825969,1,0,0,1,79,239,4,1,,,,,,,,
,,,,,,,,,,,,,FF,,,,,,,,0.6335,,,,,,,,,,,,,,,,,,,,,,60f3bc4e36762e0c2d9132cb,61036f849502754c05212a36,2021-07-29_23h25.23.886,Simcolourproject_2stim_asymm_v5,2020.2.10,Win32,60,61025ae37ef11b136ea224fe,,,,,,,,,4057,17.28783774,46.39395863,1,0,0,response1disk,,7,-0.893979192,-2.696947098,1,0,0,rectangle,-0.893979192,-2.696947098,1,0,0,-0.893979192,-2.696947098,1,0,0,1,80,240,134,1,,,,,,,,
,,,,,,,,,,,,,FF,,,,,,,,0.8998,,,,,,,,,,,,,,,,,,,,,,60f3bc4e36762e0c2d9132cb,61036f849502754c05212a36,2021-07-29_23h25.23.886,Simcolourproject_2stim_asymm_v5,2020.2.10,Win32,60,61025ae37ef11b136ea224fe,,,,,,,,,2844,65.77268291,-37.84845984,1,0,0,response3disk,,5,14.25757191,-0.27270484,1,0,0,rectangle,-30.59094685,-56.63633734,1,0,0,2.742347204,7.000021935,1,0,0,1,81,241,149,1,,response5disk_3,TRUE,3,3,"[256,158,189,278,238,208,85,255,167,277,229,179,223,320,242,53,143,23,294,137]",1.6833,rectangle
,,,,,,,,,,,,,FF,,,,,,,,0.6491,,,,,,,,,,,,,,,,,,,,,,60f3bc4e36762e0c2d9132cb,61036f849502754c05212a36,2021-07-29_23h25.23.886,Simcolourproject_2stim_asymm_v5,2020.2.10,Win32,60,61025ae37ef11b136ea224fe,,,,,,,,,4213,22.13635925,49.42426145,1,0,0,response1disk,,7,-6.954584837,-3.909068227,1,0,0,rectangle,-6.954584837,-3.909068227,1,0,0,-6.954584837,-3.909068227,1,0,0,1,82,242,60,1,,,,,,,,
,,,,,,,,,,,,,FF,,,,,,,,0.6994,,,,,,,,,,,,,,,,,,,,,,60f3bc4e36762e0c2d9132cb,61036f849502754c05212a36,2021-07-29_23h25.23.886,Simcolourproject_2stim_asymm_v5,2020.2.10,Win32,60,61025ae37ef11b136ea224fe,,,,,,,,,4124,28.19689091,43.36365581,1,0,0,response1disk,,7,-5.136403143,-3.909068227,1,0,0,rectangle,-5.136403143,-3.909068227,1,0,0,-5.136403143,-3.909068227,1,0,0,1,83,243,33,1,,,,,,,,
