key_resp.keys,key_resp.rt,key_resp_14.keys,key_resp_14.rt,key_resp_15.keys,key_resp_15.rt,key_resp_17.keys,key_resp_17.rt,key_resp_9.keys,key_resp_9.rt,key_resp_10.keys,key_resp_10.rt,practice_comparison,Ecc,mouse_5.x,mouse_5.y,mouse_5.leftButton,mouse_5.midButton,mouse_5.rightButton,mouse_5.clicked_name,pracsimilarity,response_time,mouse_10.x,mouse_10.y,mouse_10.leftButton,mouse_10.midButton,mouse_10.rightButton,mouse_10.clicked_name,mouse_7.x,mouse_7.y,mouse_7.leftButton,mouse_7.midButton,mouse_7.rightButton,mouse_6.x,mouse_6.y,mouse_6.leftButton,mouse_6.midButton,mouse_6.rightButton,duringprac.thisRepN,duringprac.thisTrialN,duringprac.thisN,duringprac.thisIndex,duringprac.ran,participant,session,date,expName,psychopyVersion,OS,frameRate,study_id,mouse_7.clicked_name,catchpracsimilarity,catch_response_time,catchnumberprac,catchtrialorderprac,mouse_6.clicked_name,key_resp_22.keys,key_resp_22.rt,realcomparison,mouse.x,mouse.y,mouse.leftButton,mouse.midButton,mouse.rightButton,mouse.clicked_name,Colour2,similarity,mouse_2.x,mouse_2.y,mouse_2.leftButton,mouse_2.midButton,mouse_2.rightButton,mouse_2.clicked_name,mouse_3.x,mouse_3.y,mouse_3.leftButton,mouse_3.midButton,mouse_3.rightButton,mouse_11.x,mouse_11.y,mouse_11.leftButton,mouse_11.midButton,mouse_11.rightButton,trials_2.thisRepN,trials_2.thisTrialN,trials_2.thisN,trials_2.thisIndex,trials_2.ran,Colour1,mouse_3.clicked_name,catchornah,catchsimilarity,catchnumber,catchtrialorder,catchRT,mouse_11.clicked_name
space,1.8712,space,19.0333,space,19.4448,space,5.3841,space,2.3929,space,4.9286,94,FF,26.66668653,84.66665846,1,0,0,response1disk_5,7,3.7979,2.000019133,-2.666677475,1,0,0,rectangle_8,2.000019133,-2.666677475,1,0,0,2.000019133,-2.666677475,1,0,0,0,0,0,0,1,60f4e713c05794eb144760df,61036af6360a8e49a79c85a6,2021-07-29_21h59.42.208,Simcolourproject_2stim_asymm_v5,2020.2.10,Win32,60,61025ae37ef11b136ea224fe,,,,,,,,,,,,,,,,,,,,,,,,,,,,,,,,,,,,,,,,,,,,,,
,,,,,,,,,,,,26,PF,40.66668695,-78.00001305,1,0,0,response3disk_5,4,2.8663,-1.999980986,4.666656077,1,0,0,rectangle_8,89.33335507,37.33330337,1,0,0,-11.3333146,-9.33334434,1,0,0,0,1,1,6,1,60f4e713c05794eb144760df,61036af6360a8e49a79c85a6,2021-07-29_21h59.42.208,Simcolourproject_2stim_asymm_v5,2020.2.10,Win32,60,61025ae37ef11b136ea224fe,response1disk_7,6,2.7001,6,"[2,5]",rectangle_4,,,,,,,,,,,,,,,,,,,,,,,,,,,,,,,,,,,,,,,,
,,,,,,,,,,,,141,PF,40.66668695,86.66665852,1,0,0,response1disk_5,7,1.6832,2.66668582,-1.333344102,1,0,0,rectangle_8,2.66668582,-1.333344102,1,0,0,2.66668582,-1.333344102,1,0,0,0,2,2,2,1,60f4e713c05794eb144760df,61036af6360a8e49a79c85a6,2021-07-29_21h59.42.208,Simcolourproject_2stim_asymm_v5,2020.2.10,Win32,60,61025ae37ef11b136ea224fe,,,,,,,,,,,,,,,,,,,,,,,,,,,,,,,,,,,,,,,,,,,,,,
,,,,,,,,,,,,132,PF,38.66668689,-82.66667986,1,0,0,response3disk_5,4,7.4819,22.66668642,-6.000010908,1,0,0,rectangle_8,22.66668642,-6.000010908,1,0,0,22.66668642,-6.000010908,1,0,0,0,3,3,1,1,60f4e713c05794eb144760df,61036af6360a8e49a79c85a6,2021-07-29_21h59.42.208,Simcolourproject_2stim_asymm_v5,2020.2.10,Win32,60,61025ae37ef11b136ea224fe,,,,,,,,,,,,,,,,,,,,,,,,,,,,,,,,,,,,,,,,,,,,,,
,,,,,,,,,,,,7,FF,46.00002044,-109.3333473,1,0,0,response3disk_5,4,5.049,14.66668618,-5.333344221,1,0,0,rectangle_8,83.33335489,45.99999064,1,0,0,10.00001937,-2.000010788,1,0,0,0,4,4,3,1,60f4e713c05794eb144760df,61036af6360a8e49a79c85a6,2021-07-29_21h59.42.208,Simcolourproject_2stim_asymm_v5,2020.2.10,Win32,60,61025ae37ef11b136ea224fe,response1disk_7,6,1.8664,6,"[2,5]",rectangle_4,,,,,,,,,,,,,,,,,,,,,,,,,,,,,,,,,,,,,,,,
,,,,,,,,,,,,92,PF,46.66668713,85.3333048,1,0,0,response1disk_5,7,4.4656,18.6666863,1.999989331,1,0,0,rectangle_8,18.6666863,1.999989331,1,0,0,18.6666863,1.999989331,1,0,0,0,5,5,4,1,60f4e713c05794eb144760df,61036af6360a8e49a79c85a6,2021-07-29_21h59.42.208,Simcolourproject_2stim_asymm_v5,2020.2.10,Win32,60,61025ae37ef11b136ea224fe,,,,,,,,,,,,,,,,,,,,,,,,,,,,,,,,,,,,,,,,,,,,,,
,,,,,,,,,,,,59,FF,-47.33331567,-77.33334637,1,0,0,response5disk_5,3,2.1832,-8.666607161,5.99998945,1,0,0,rectangle_8,-8.666607161,5.99998945,1,0,0,-8.666607161,5.99998945,1,0,0,0,6,6,5,1,60f4e713c05794eb144760df,61036af6360a8e49a79c85a6,2021-07-29_21h59.42.208,Simcolourproject_2stim_asymm_v5,2020.2.10,Win32,60,61025ae37ef11b136ea224fe,,,,,,,,,,,,,,,,,,,,,,,,,,,,,,,,,,,,,,,,,,,,,,
,,,,,,,,,,,,,FF,,,,,,,,4.3502,,,,,,,,,,,,,,,,,,,,,,60f4e713c05794eb144760df,61036af6360a8e49a79c85a6,2021-07-29_21h59.42.208,Simcolourproject_2stim_asymm_v5,2020.2.10,Win32,60,61025ae37ef11b136ea224fe,,,,,,,space,3.8941,4128,-36.666608,-84.00001323,1,0,0,response5disk,,3,3.333393196,-1.07288E-05,1,0,0,rectangle,3.333393196,-1.07288E-05,1,0,0,3.333393196,-1.07288E-05,1,0,0,0,0,0,135,1,,,,,,,,
,,,,,,,,,,,,,FF,,,,,,,,5.0824,,,,,,,,,,,,,,,,,,,,,,60f4e713c05794eb144760df,61036af6360a8e49a79c85a6,2021-07-29_21h59.42.208,Simcolourproject_2stim_asymm_v5,2020.2.10,Win32,60,61025ae37ef11b136ea224fe,,,,,,,,,273,93.33335519,28.66665679,1,0,0,response1disk,,6,-5.333314419,-3.333344162,1,0,0,rectangle,-5.333314419,-3.333344162,1,0,0,-5.333314419,-3.333344162,1,0,0,0,1,1,142,1,,,,,,,,
,,,,,,,,,,,,,FF,,,,,,,,3.5493,,,,,,,,,,,,,,,,,,,,,,60f4e713c05794eb144760df,61036af6360a8e49a79c85a6,2021-07-29_21h59.42.208,Simcolourproject_2stim_asymm_v5,2020.2.10,Win32,60,61025ae37ef11b136ea224fe,,,,,,,,,2951,-43.99998224,-79.33334643,1,0,0,response5disk,,3,-2.666606983,9.333322883,1,0,0,rectangle,-2.666606983,9.333322883,1,0,0,-2.666606983,9.333322883,1,0,0,0,2,2,159,1,,,,,,,,
,,,,,,,,,,,,,FF,,,,,,,,2.1499,,,,,,,,,,,,,,,,,,,,,,60f4e713c05794eb144760df,61036af6360a8e49a79c85a6,2021-07-29_21h59.42.208,Simcolourproject_2stim_asymm_v5,2020.2.10,Win32,60,61025ae37ef11b136ea224fe,,,,,,,,,3711,-31.33331519,-60.6666792,1,0,0,response5disk,,3,4.000019193,1.333322644,1,0,0,rectangle,4.000019193,1.333322644,1,0,0,4.000019193,1.333322644,1,0,0,0,3,3,102,1,,,,,,,,
,,,,,,,,,,,,,FF,,,,,,,,5.0492,,,,,,,,,,,,,,,,,,,,,,60f4e713c05794eb144760df,61036af6360a8e49a79c85a6,2021-07-29_21h59.42.208,Simcolourproject_2stim_asymm_v5,2020.2.10,Win32,60,61025ae37ef11b136ea224fe,,,,,,,,,4011,46.00002044,84.66665846,1,0,0,response1disk,,7,8.000019312,3.99998939,1,0,0,rectangle,8.000019312,3.99998939,1,0,0,8.000019312,3.99998939,1,0,0,0,4,4,17,1,,,,,,,,
,,,,,,,,,,,,,FF,,,,,,,,3.1161,,,,,,,,,,,,,,,,,,,,,,60f4e713c05794eb144760df,61036af6360a8e49a79c85a6,2021-07-29_21h59.42.208,Simcolourproject_2stim_asymm_v5,2020.2.10,Win32,60,61025ae37ef11b136ea224fe,,,,,,,,,1610,-73.33331645,31.99999022,1,0,0,response7disk,,1,-3.333314359,0.666655958,1,0,0,rectangle,-3.333314359,0.666655958,1,0,0,-3.333314359,0.666655958,1,0,0,0,5,5,45,1,,,,,,,,
,,,,,,,,,,,,,FF,,,,,,,,5.5324,,,,,,,,,,,,,,,,,,,,,,60f4e713c05794eb144760df,61036af6360a8e49a79c85a6,2021-07-29_21h59.42.208,Simcolourproject_2stim_asymm_v5,2020.2.10,Win32,60,61025ae37ef11b136ea224fe,,,,,,,,,1241,48.0000205,86.66665852,1,0,0,response1disk,,7,-10.66660722,-2.000010788,1,0,0,rectangle,-10.66660722,-2.000010788,1,0,0,-10.66660722,-2.000010788,1,0,0,0,6,6,148,1,,,,,,,,
,,,,,,,,,,,,,FF,,,,,,,,1.4329,,,,,,,,,,,,,,,,,,,,,,60f4e713c05794eb144760df,61036af6360a8e49a79c85a6,2021-07-29_21h59.42.208,Simcolourproject_2stim_asymm_v5,2020.2.10,Win32,60,61025ae37ef11b136ea224fe,,,,,,,,,2400,17.33339361,77.33330456,1,0,0,response1disk,,7,0.66668576,-1.333344102,1,0,0,rectangle,0.66668576,-1.333344102,1,0,0,0.66668576,-1.333344102,1,0,0,0,7,7,82,1,,,,,,,,
,,,,,,,,,,,,,FF,,,,,,,,3.1995,,,,,,,,,,,,,,,,,,,,,,60f4e713c05794eb144760df,61036af6360a8e49a79c85a6,2021-07-29_21h59.42.208,Simcolourproject_2stim_asymm_v5,2020.2.10,Win32,60,61025ae37ef11b136ea224fe,,,,,,,,,2365,38.00002021,-81.33334649,1,0,0,response3disk,,4,10.66668606,3.333322704,1,0,0,rectangle,10.66668606,3.333322704,1,0,0,10.66668606,3.333322704,1,0,0,0,8,8,28,1,,,,,,,,
,,,,,,,,,,,,,FF,,,,,,,,2.8669,,,,,,,,,,,,,,,,,,,,,,60f4e713c05794eb144760df,61036af6360a8e49a79c85a6,2021-07-29_21h59.42.208,Simcolourproject_2stim_asymm_v5,2020.2.10,Win32,60,61025ae37ef11b136ea224fe,,,,,,,,,4115,94.00002187,31.33330319,1,0,0,response1disk,,6,14.66668618,-4.000010848,1,0,0,rectangle,14.66668618,-4.000010848,1,0,0,14.66668618,-4.000010848,1,0,0,0,9,9,149,1,,,,,,,,
,,,,,,,,,,,,,FF,,,,,,,,3.1329,,,,,,,,,,,,,,,,,,,,,,60f4e713c05794eb144760df,61036af6360a8e49a79c85a6,2021-07-29_21h59.42.208,Simcolourproject_2stim_asymm_v5,2020.2.10,Win32,60,61025ae37ef11b136ea224fe,,,,,,,,,3256,26.66668653,-87.33334666,1,0,0,response3disk,,4,2.000019133,-4.666677535,1,0,0,rectangle,2.000019133,-4.666677535,1,0,0,2.000019133,-4.666677535,1,0,0,0,10,10,89,1,,,,,,,,
,,,,,,,,,,,,,FF,,,,,,,,2.6497,,,,,,,,,,,,,,,,,,,,,,60f4e713c05794eb144760df,61036af6360a8e49a79c85a6,2021-07-29_21h59.42.208,Simcolourproject_2stim_asymm_v5,2020.2.10,Win32,60,61025ae37ef11b136ea224fe,,,,,,,,,2837,-31.33331519,-91.33334678,1,0,0,response5disk,,3,-3.999981046,3.333322704,1,0,0,rectangle,-3.999981046,3.333322704,1,0,0,-3.999981046,3.333322704,1,0,0,0,11,11,49,1,,,,,,,,
,,,,,,,,,,,,,FF,,,,,,,,3.7494,,,,,,,,,,,,,,,,,,,,,,60f4e713c05794eb144760df,61036af6360a8e49a79c85a6,2021-07-29_21h59.42.208,Simcolourproject_2stim_asymm_v5,2020.2.10,Win32,60,61025ae37ef11b136ea224fe,,,,,,,,,3341,-56.66660859,-86.00001329,1,0,0,response5disk,,3,-1.3333143,-4.000010848,1,0,0,rectangle,-1.3333143,-4.000010848,1,0,0,-1.3333143,-4.000010848,1,0,0,0,12,12,15,1,,,,,,,,
,,,,,,,,,,,,,FF,,,,,,,,3.5155,,,,,,,,,,,,,,,,,,,,,,60f4e713c05794eb144760df,61036af6360a8e49a79c85a6,2021-07-29_21h59.42.208,Simcolourproject_2stim_asymm_v5,2020.2.10,Win32,60,61025ae37ef11b136ea224fe,,,,,,,,,699,93.33335519,-31.333345,1,0,0,response3disk,,5,30.66668665,-4.666677535,1,0,0,rectangle,30.66668665,-4.666677535,1,0,0,30.66668665,-4.666677535,1,0,0,0,13,13,62,1,,,,,,,,
,,,,,,,,,,,,,FF,,,,,,,,2.9832,,,,,,,,,,,,,,,,,,,,,,60f4e713c05794eb144760df,61036af6360a8e49a79c85a6,2021-07-29_21h59.42.208,Simcolourproject_2stim_asymm_v5,2020.2.10,Win32,60,61025ae37ef11b136ea224fe,,,,,,,,,734,44.00002038,-75.33334631,1,0,0,response3disk,,4,19.33339367,-3.333344162,1,0,0,rectangle,19.33339367,-3.333344162,1,0,0,19.33339367,-3.333344162,1,0,0,0,14,14,140,1,,,,,,,,
,,,,,,,,,,,,,FF,,,,,,,,3.1162,,,,,,,,,,,,,,,,,,,,,,60f4e713c05794eb144760df,61036af6360a8e49a79c85a6,2021-07-29_21h59.42.208,Simcolourproject_2stim_asymm_v5,2020.2.10,Win32,60,61025ae37ef11b136ea224fe,,,,,,,,,3811,-45.9999823,98.66665888,1,0,0,response7disk,,0,-7.999981165,0.666655958,1,0,0,rectangle,-7.999981165,0.666655958,1,0,0,-7.999981165,0.666655958,1,0,0,0,15,15,72,1,,,,,,,,
,,,,,,,,,,,,,FF,,,,,,,,1.2168,,,,,,,,,,,,,,,,,,,,,,60f4e713c05794eb144760df,61036af6360a8e49a79c85a6,2021-07-29_21h59.42.208,Simcolourproject_2stim_asymm_v5,2020.2.10,Win32,60,61025ae37ef11b136ea224fe,,,,,,,,,3956,33.33339409,84.66665846,1,0,0,response1disk,,7,4.000019193,1.999989331,1,0,0,rectangle,4.000019193,1.999989331,1,0,0,4.000019193,1.999989331,1,0,0,0,16,16,24,1,,,,,,,,
,,,,,,,,,,,,,FF,,,,,,,,2.0032,,,,,,,,,,,,,,,,,,,,,,60f4e713c05794eb144760df,61036af6360a8e49a79c85a6,2021-07-29_21h59.42.208,Simcolourproject_2stim_asymm_v5,2020.2.10,Win32,60,61025ae37ef11b136ea224fe,,,,,,,,,2342,20.66668636,79.99999166,1,0,0,response1disk,,7,1.9735E-05,-1.333344102,1,0,0,rectangle,1.9735E-05,-1.333344102,1,0,0,1.9735E-05,-1.333344102,1,0,0,0,17,17,125,1,,,,,,,,
,,,,,,,,,,,,,FF,,,,,,,,2.8996,,,,,,,,,,,,,,,,,,,,,,60f4e713c05794eb144760df,61036af6360a8e49a79c85a6,2021-07-29_21h59.42.208,Simcolourproject_2stim_asymm_v5,2020.2.10,Win32,60,61025ae37ef11b136ea224fe,,,,,,,,,2339,30.00001997,73.33330444,1,0,0,response1disk,,7,-15.9999814,-7.333344281,1,0,0,rectangle,-15.9999814,-7.333344281,1,0,0,-15.9999814,-7.333344281,1,0,0,0,18,18,69,1,,,,,,,,
,,,,,,,,,,,,,FF,,,,,,,,1.4834,,,,,,,,,,,,,,,,,,,,,,60f4e713c05794eb144760df,61036af6360a8e49a79c85a6,2021-07-29_21h59.42.208,Simcolourproject_2stim_asymm_v5,2020.2.10,Win32,60,61025ae37ef11b136ea224fe,,,,,,,,,3323,37.33339421,75.99999154,1,0,0,response1disk,,7,4.666685879,-2.000010788,1,0,0,rectangle,17.33339361,81.99999171,1,0,0,-1.3333143,3.333322704,1,0,0,0,19,19,7,1,,response1disk_3,TRUE,7,7,"[226,74,192,214,305,23,87,112,144,220,257,169,20,283,300,91,168,267,193,138]",2.1169,rectangle
,,,,,,,,,,,,,FF,,,,,,,,2.2531,,,,,,,,,,,,,,,,,,,,,,60f4e713c05794eb144760df,61036af6360a8e49a79c85a6,2021-07-29_21h59.42.208,Simcolourproject_2stim_asymm_v5,2020.2.10,Win32,60,61025ae37ef11b136ea224fe,,,,,,,,,2137,21.33339373,74.66665816,1,0,0,response1disk,,7,-5.999981105,-1.333344102,1,0,0,rectangle,-5.999981105,-1.333344102,1,0,0,-5.999981105,-1.333344102,1,0,0,0,20,20,92,1,,,,,,,,
,,,,,,,,,,,,,FF,,,,,,,,0.9205,,,,,,,,,,,,,,,,,,,,,,60f4e713c05794eb144760df,61036af6360a8e49a79c85a6,2021-07-29_21h59.42.208,Simcolourproject_2stim_asymm_v5,2020.2.10,Win32,60,61025ae37ef11b136ea224fe,,,,,,,,,2093,-43.33331555,90.66665864,1,0,0,response7disk,,0,-1.999980986,3.99998939,1,0,0,rectangle,-1.999980986,3.99998939,1,0,0,-1.999980986,3.99998939,1,0,0,0,21,21,84,1,,,,,,,,
,,,,,,,,,,,,,FF,,,,,,,,1.7165,,,,,,,,,,,,,,,,,,,,,,60f4e713c05794eb144760df,61036af6360a8e49a79c85a6,2021-07-29_21h59.42.208,Simcolourproject_2stim_asymm_v5,2020.2.10,Win32,60,61025ae37ef11b136ea224fe,,,,,,,,,520,-42.66660817,-86.66667998,1,0,0,response5disk,,3,6.000019252,3.99998939,1,0,0,rectangle,86.00002164,45.99999064,1,0,0,10.00001937,3.99998939,1,0,0,0,22,22,38,1,,response1disk_3,TRUE,6,6,"[226,74,192,214,305,23,87,112,144,220,257,169,20,283,300,91,168,267,193,138]",1.3805,rectangle
,,,,,,,,,,,,,FF,,,,,,,,2.8464,,,,,,,,,,,,,,,,,,,,,,60f4e713c05794eb144760df,61036af6360a8e49a79c85a6,2021-07-29_21h59.42.208,Simcolourproject_2stim_asymm_v5,2020.2.10,Win32,60,61025ae37ef11b136ea224fe,,,,,,,,,4346,21.33339373,-92.66668016,1,0,0,response3disk,,4,-9.333314538,5.333322763,1,0,0,rectangle,-9.333314538,5.333322763,1,0,0,-9.333314538,5.333322763,1,0,0,0,23,23,20,1,,,,,,,,
,,,,,,,,,,,,,FF,,,,,,,,1.3335,,,,,,,,,,,,,,,,,,,,,,60f4e713c05794eb144760df,61036af6360a8e49a79c85a6,2021-07-29_21h59.42.208,Simcolourproject_2stim_asymm_v5,2020.2.10,Win32,60,61025ae37ef11b136ea224fe,,,,,,,,,4294,-60.66660871,-42.66667867,1,0,0,response5disk,,2,6.000019252,-1.07288E-05,1,0,0,rectangle,6.000019252,-1.07288E-05,1,0,0,6.000019252,-1.07288E-05,1,0,0,0,24,24,64,1,,,,,,,,
,,,,,,,,,,,,,FF,,,,,,,,1.6211,,,,,,,,,,,,,,,,,,,,,,60f4e713c05794eb144760df,61036af6360a8e49a79c85a6,2021-07-29_21h59.42.208,Simcolourproject_2stim_asymm_v5,2020.2.10,Win32,60,61025ae37ef11b136ea224fe,,,,,,,,,936,72.66668791,48.66665739,1,0,0,response1disk,,6,6.666685939,7.99998951,1,0,0,rectangle,6.666685939,7.99998951,1,0,0,6.666685939,7.99998951,1,0,0,0,25,25,1,1,,,,,,,,
,,,,,,,,,,,,,FF,,,,,,,,1.2672,,,,,,,,,,,,,,,,,,,,,,60f4e713c05794eb144760df,61036af6360a8e49a79c85a6,2021-07-29_21h59.42.208,Simcolourproject_2stim_asymm_v5,2020.2.10,Win32,60,61025ae37ef11b136ea224fe,,,,,,,,,1718,34.66668677,63.99999118,1,0,0,response1disk,,7,-2.666606983,-2.000010788,1,0,0,rectangle,-2.666606983,-2.000010788,1,0,0,-2.666606983,-2.000010788,1,0,0,0,26,26,78,1,,,,,,,,
,,,,,,,,,,,,,FF,,,,,,,,4.5794,,,,,,,,,,,,,,,,,,,,,,60f4e713c05794eb144760df,61036af6360a8e49a79c85a6,2021-07-29_21h59.42.208,Simcolourproject_2stim_asymm_v5,2020.2.10,Win32,60,61025ae37ef11b136ea224fe,,,,,,,,,3923,-65.33331621,-34.66667843,1,0,0,response5disk,,2,1.333393137,-6.000010908,1,0,0,rectangle,1.333393137,-6.000010908,1,0,0,1.333393137,-6.000010908,1,0,0,0,27,27,47,1,,,,,,,,
,,,,,,,,,,,,,FF,,,,,,,,1.7503,,,,,,,,,,,,,,,,,,,,,,60f4e713c05794eb144760df,61036af6360a8e49a79c85a6,2021-07-29_21h59.42.208,Simcolourproject_2stim_asymm_v5,2020.2.10,Win32,60,61025ae37ef11b136ea224fe,,,,,,,,,1913,86.00002164,47.33330367,1,0,0,response1disk,,6,6.666685939,-4.000010848,1,0,0,rectangle,6.666685939,-4.000010848,1,0,0,6.666685939,-4.000010848,1,0,0,0,28,28,71,1,,,,,,,,
,,,,,,,,,,,,,FF,,,,,,,,1.3832,,,,,,,,,,,,,,,,,,,,,,60f4e713c05794eb144760df,61036af6360a8e49a79c85a6,2021-07-29_21h59.42.208,Simcolourproject_2stim_asymm_v5,2020.2.10,Win32,60,61025ae37ef11b136ea224fe,,,,,,,,,189,-49.99998242,-72.00001287,1,0,0,response5disk,,3,-4.666607042,4.666656077,1,0,0,rectangle,-4.666607042,4.666656077,1,0,0,-4.666607042,4.666656077,1,0,0,0,29,29,54,1,,,,,,,,
,,,,,,,,,,,,,FF,,,,,,,,1.5172,,,,,,,,,,,,,,,,,,,,,,60f4e713c05794eb144760df,61036af6360a8e49a79c85a6,2021-07-29_21h59.42.208,Simcolourproject_2stim_asymm_v5,2020.2.10,Win32,60,61025ae37ef11b136ea224fe,,,,,,,,,2870,66.66668773,87.33330486,1,0,0,response1disk,,7,-4.666607042,-1.07288E-05,1,0,0,rectangle,-4.666607042,-1.07288E-05,1,0,0,-4.666607042,-1.07288E-05,1,0,0,0,30,30,127,1,,,,,,,,
,,,,,,,,,,,,,FF,,,,,,,,3.699,,,,,,,,,,,,,,,,,,,,,,60f4e713c05794eb144760df,61036af6360a8e49a79c85a6,2021-07-29_21h59.42.208,Simcolourproject_2stim_asymm_v5,2020.2.10,Win32,60,61025ae37ef11b136ea224fe,,,,,,,,,2994,-83.33331674,-46.66667879,1,0,0,response5disk,,2,4.000019193,3.333322704,1,0,0,rectangle,4.000019193,3.333322704,1,0,0,4.000019193,3.333322704,1,0,0,0,31,31,88,1,,,,,,,,
,,,,,,,,,,,,,FF,,,,,,,,2.0163,,,,,,,,,,,,,,,,,,,,,,60f4e713c05794eb144760df,61036af6360a8e49a79c85a6,2021-07-29_21h59.42.208,Simcolourproject_2stim_asymm_v5,2020.2.10,Win32,60,61025ae37ef11b136ea224fe,,,,,,,,,4268,-83.33331674,-60.00001252,1,0,0,response5disk,,2,-11.99998128,-3.333344162,1,0,0,rectangle,-11.99998128,-3.333344162,1,0,0,-11.99998128,-3.333344162,1,0,0,0,32,32,56,1,,,,,,,,
,,,,,,,,,,,,,FF,,,,,,,,2.9495,,,,,,,,,,,,,,,,,,,,,,60f4e713c05794eb144760df,61036af6360a8e49a79c85a6,2021-07-29_21h59.42.208,Simcolourproject_2stim_asymm_v5,2020.2.10,Win32,60,61025ae37ef11b136ea224fe,,,,,,,,,1416,52.66668731,35.99999034,1,0,0,response1disk,,6,19.33339367,-1.333344102,1,0,0,rectangle,19.33339367,-1.333344102,1,0,0,19.33339367,-1.333344102,1,0,0,0,33,33,22,1,,,,,,,,
,,,,,,,,,,,,,FF,,,,,,,,1.1668,,,,,,,,,,,,,,,,,,,,,,60f4e713c05794eb144760df,61036af6360a8e49a79c85a6,2021-07-29_21h59.42.208,Simcolourproject_2stim_asymm_v5,2020.2.10,Win32,60,61025ae37ef11b136ea224fe,,,,,,,,,1862,48.0000205,71.33330439,1,0,0,response1disk,,7,18.00001961,-1.07288E-05,1,0,0,rectangle,18.00001961,-1.07288E-05,1,0,0,18.00001961,-1.07288E-05,1,0,0,0,34,34,23,1,,,,,,,,
,,,,,,,,,,,,,FF,,,,,,,,0.9001,,,,,,,,,,,,,,,,,,,,,,60f4e713c05794eb144760df,61036af6360a8e49a79c85a6,2021-07-29_21h59.42.208,Simcolourproject_2stim_asymm_v5,2020.2.10,Win32,60,61025ae37ef11b136ea224fe,,,,,,,,,3498,26.66668653,63.33330415,1,0,0,response1disk,,7,-5.999981105,-3.333344162,1,0,0,rectangle,-5.999981105,-3.333344162,1,0,0,-5.999981105,-3.333344162,1,0,0,0,35,35,80,1,,,,,,,,
,,,,,,,,,,,,,FF,,,,,,,,2.4827,,,,,,,,,,,,,,,,,,,,,,60f4e713c05794eb144760df,61036af6360a8e49a79c85a6,2021-07-29_21h59.42.208,Simcolourproject_2stim_asymm_v5,2020.2.10,Win32,60,61025ae37ef11b136ea224fe,,,,,,,,,4298,78.0000214,39.33330343,1,0,0,response1disk,,6,20.66668636,1.999989331,1,0,0,rectangle,20.66668636,1.999989331,1,0,0,20.66668636,1.999989331,1,0,0,0,36,36,90,1,,,,,,,,
,,,,,,,,,,,,,FF,,,,,,,,1.9163,,,,,,,,,,,,,,,,,,,,,,60f4e713c05794eb144760df,61036af6360a8e49a79c85a6,2021-07-29_21h59.42.208,Simcolourproject_2stim_asymm_v5,2020.2.10,Win32,60,61025ae37ef11b136ea224fe,,,,,,,,,3085,46.00002044,75.3333045,1,0,0,response1disk,,7,8.666685998,-2.000010788,1,0,0,rectangle,8.666685998,-2.000010788,1,0,0,8.666685998,-2.000010788,1,0,0,0,37,37,139,1,,,,,,,,
,,,,,,,,,,,,,FF,,,,,,,,1.6664,,,,,,,,,,,,,,,,,,,,,,60f4e713c05794eb144760df,61036af6360a8e49a79c85a6,2021-07-29_21h59.42.208,Simcolourproject_2stim_asymm_v5,2020.2.10,Win32,60,61025ae37ef11b136ea224fe,,,,,,,,,184,24.66668648,-75.33334631,1,0,0,response3disk,,4,-5.333314419,1.333322644,1,0,0,rectangle,-5.333314419,1.333322644,1,0,0,-5.333314419,1.333322644,1,0,0,0,38,38,156,1,,,,,,,,
,,,,,,,,,,,,,FF,,,,,,,,2.383,,,,,,,,,,,,,,,,,,,,,,60f4e713c05794eb144760df,61036af6360a8e49a79c85a6,2021-07-29_21h59.42.208,Simcolourproject_2stim_asymm_v5,2020.2.10,Win32,60,61025ae37ef11b136ea224fe,,,,,,,,,2625,38.66668689,-62.66667926,1,0,0,response3disk,,4,11.33339343,-4.666677535,1,0,0,rectangle,11.33339343,-4.666677535,1,0,0,11.33339343,-4.666677535,1,0,0,0,39,39,103,1,,,,,,,,
,,,,,,,,,,,,,FF,,,,,,,,1.2168,,,,,,,,,,,,,,,,,,,,,,60f4e713c05794eb144760df,61036af6360a8e49a79c85a6,2021-07-29_21h59.42.208,Simcolourproject_2stim_asymm_v5,2020.2.10,Win32,60,61025ae37ef11b136ea224fe,,,,,,,,,528,-39.99998212,-70.00001281,1,0,0,response5disk,,3,-5.999981105,-0.666677415,1,0,0,rectangle,-5.999981105,-0.666677415,1,0,0,-5.999981105,-0.666677415,1,0,0,0,40,40,32,1,,,,,,,,
,,,,,,,,,,,,,FF,,,,,,,,1.6166,,,,,,,,,,,,,,,,,,,,,,60f4e713c05794eb144760df,61036af6360a8e49a79c85a6,2021-07-29_21h59.42.208,Simcolourproject_2stim_asymm_v5,2020.2.10,Win32,60,61025ae37ef11b136ea224fe,,,,,,,,,319,53.333354,87.99999189,1,0,0,response1disk,,7,19.33339367,0.666655958,1,0,0,rectangle,19.33339367,0.666655958,1,0,0,19.33339367,0.666655958,1,0,0,0,41,41,34,1,,,,,,,,
,,,,,,,,,,,,,FF,,,,,,,,1.3999,,,,,,,,,,,,,,,,,,,,,,60f4e713c05794eb144760df,61036af6360a8e49a79c85a6,2021-07-29_21h59.42.208,Simcolourproject_2stim_asymm_v5,2020.2.10,Win32,60,61025ae37ef11b136ea224fe,,,,,,,,,2252,50.66668725,77.33330456,1,0,0,response1disk,,7,19.33339367,8.666656196,1,0,0,rectangle,19.33339367,8.666656196,1,0,0,19.33339367,8.666656196,1,0,0,0,42,42,114,1,,,,,,,,
,,,,,,,,,,,,,FF,,,,,,,,1.9494,,,,,,,,,,,,,,,,,,,,,,60f4e713c05794eb144760df,61036af6360a8e49a79c85a6,2021-07-29_21h59.42.208,Simcolourproject_2stim_asymm_v5,2020.2.10,Win32,60,61025ae37ef11b136ea224fe,,,,,,,,,1540,110.666689,-38.00001186,1,0,0,response3disk,,5,14.66668618,-10.66667771,1,0,0,rectangle,14.66668618,-10.66667771,1,0,0,14.66668618,-10.66667771,1,0,0,0,43,43,25,1,,,,,,,,
,,,,,,,,,,,,,FF,,,,,,,,0.9831,,,,,,,,,,,,,,,,,,,,,,60f4e713c05794eb144760df,61036af6360a8e49a79c85a6,2021-07-29_21h59.42.208,Simcolourproject_2stim_asymm_v5,2020.2.10,Win32,60,61025ae37ef11b136ea224fe,,,,,,,,,4112,47.33335382,79.99999166,1,0,0,response1disk,,7,22.00001973,3.333322704,1,0,0,rectangle,22.00001973,3.333322704,1,0,0,22.00001973,3.333322704,1,0,0,0,44,44,118,1,,,,,,,,
,,,,,,,,,,,,,FF,,,,,,,,1.1165,,,,,,,,,,,,,,,,,,,,,,60f4e713c05794eb144760df,61036af6360a8e49a79c85a6,2021-07-29_21h59.42.208,Simcolourproject_2stim_asymm_v5,2020.2.10,Win32,60,61025ae37ef11b136ea224fe,,,,,,,,,495,34.66668677,80.66665834,1,0,0,response1disk,,7,-4.666607042,11.99998963,1,0,0,rectangle,-4.666607042,11.99998963,1,0,0,-4.666607042,11.99998963,1,0,0,0,45,45,96,1,,,,,,,,
,,,,,,,,,,,,,FF,,,,,,,,1.9837,,,,,,,,,,,,,,,,,,,,,,60f4e713c05794eb144760df,61036af6360a8e49a79c85a6,2021-07-29_21h59.42.208,Simcolourproject_2stim_asymm_v5,2020.2.10,Win32,60,61025ae37ef11b136ea224fe,,,,,,,,,4329,-34.66660794,-75.33334631,1,0,0,response5disk,,3,-4.666607042,1.333322644,1,0,0,rectangle,-4.666607042,1.333322644,1,0,0,-4.666607042,1.333322644,1,0,0,0,46,46,18,1,,,,,,,,
,,,,,,,,,,,,,FF,,,,,,,,1.6831,,,,,,,,,,,,,,,,,,,,,,60f4e713c05794eb144760df,61036af6360a8e49a79c85a6,2021-07-29_21h59.42.208,Simcolourproject_2stim_asymm_v5,2020.2.10,Win32,60,61025ae37ef11b136ea224fe,,,,,,,,,994,79.33335477,23.33330295,1,0,0,response1disk,,6,14.00001949,1.999989331,1,0,0,rectangle,14.00001949,1.999989331,1,0,0,14.00001949,1.999989331,1,0,0,0,47,47,85,1,,,,,,,,
,,,,,,,,,,,,,FF,,,,,,,,1.2166,,,,,,,,,,,,,,,,,,,,,,60f4e713c05794eb144760df,61036af6360a8e49a79c85a6,2021-07-29_21h59.42.208,Simcolourproject_2stim_asymm_v5,2020.2.10,Win32,60,61025ae37ef11b136ea224fe,,,,,,,,,598,76.00002134,47.9999907,1,0,0,response1disk,,6,8.666685998,9.333322883,1,0,0,rectangle,8.666685998,9.333322883,1,0,0,8.666685998,9.333322883,1,0,0,0,48,48,74,1,,,,,,,,
,,,,,,,,,,,,,FF,,,,,,,,1.0831,,,,,,,,,,,,,,,,,,,,,,60f4e713c05794eb144760df,61036af6360a8e49a79c85a6,2021-07-29_21h59.42.208,Simcolourproject_2stim_asymm_v5,2020.2.10,Win32,60,61025ae37ef11b136ea224fe,,,,,,,,,1298,-57.99998266,27.99999011,1,0,0,response7disk,,1,-1.3333143,3.99998939,1,0,0,rectangle,-1.3333143,3.99998939,1,0,0,-1.3333143,3.99998939,1,0,0,0,49,49,95,1,,,,,,,,
,,,,,,,,,,,,,FF,,,,,,,,1.2999,,,,,,,,,,,,,,,,,,,,,,60f4e713c05794eb144760df,61036af6360a8e49a79c85a6,2021-07-29_21h59.42.208,Simcolourproject_2stim_asymm_v5,2020.2.10,Win32,60,61025ae37ef11b136ea224fe,,,,,,,,,2705,42.66668701,78.66665828,1,0,0,response1disk,,7,16.00001955,-0.666677415,1,0,0,rectangle,16.00001955,-0.666677415,1,0,0,16.00001955,-0.666677415,1,0,0,0,50,50,104,1,,,,,,,,
,,,,,,,,,,,,,FF,,,,,,,,1.4999,,,,,,,,,,,,,,,,,,,,,,60f4e713c05794eb144760df,61036af6360a8e49a79c85a6,2021-07-29_21h59.42.208,Simcolourproject_2stim_asymm_v5,2020.2.10,Win32,60,61025ae37ef11b136ea224fe,,,,,,,,,3095,72.66668791,51.99999082,1,0,0,response1disk,,6,23.33339379,9.333322883,1,0,0,rectangle,23.33339379,9.333322883,1,0,0,23.33339379,9.333322883,1,0,0,0,51,51,76,1,,,,,,,,
,,,,,,,,,,,,,FF,,,,,,,,2.0498,,,,,,,,,,,,,,,,,,,,,,60f4e713c05794eb144760df,61036af6360a8e49a79c85a6,2021-07-29_21h59.42.208,Simcolourproject_2stim_asymm_v5,2020.2.10,Win32,60,61025ae37ef11b136ea224fe,,,,,,,,,1787,74.66668797,33.99999028,1,0,0,response1disk,,6,-5.999981105,-6.666677594,1,0,0,rectangle,-5.999981105,-6.666677594,1,0,0,-5.999981105,-6.666677594,1,0,0,0,52,52,137,1,,,,,,,,
,,,,,,,,,,,,,FF,,,,,,,,0.8999,,,,,,,,,,,,,,,,,,,,,,60f4e713c05794eb144760df,61036af6360a8e49a79c85a6,2021-07-29_21h59.42.208,Simcolourproject_2stim_asymm_v5,2020.2.10,Win32,60,61025ae37ef11b136ea224fe,,,,,,,,,84,63.33335429,69.33330433,1,0,0,response1disk,,7,10.00001937,7.99998951,1,0,0,rectangle,10.00001937,7.99998951,1,0,0,10.00001937,7.99998951,1,0,0,0,53,53,141,1,,,,,,,,
,,,,,,,,,,,,,FF,,,,,,,,1.6164,,,,,,,,,,,,,,,,,,,,,,60f4e713c05794eb144760df,61036af6360a8e49a79c85a6,2021-07-29_21h59.42.208,Simcolourproject_2stim_asymm_v5,2020.2.10,Win32,60,61025ae37ef11b136ea224fe,,,,,,,,,2686,67.33335441,-34.66667843,1,0,0,response3disk,,5,20.00001967,0.666655958,1,0,0,rectangle,20.00001967,0.666655958,1,0,0,20.00001967,0.666655958,1,0,0,0,54,54,8,1,,,,,,,,
,,,,,,,,,,,,,FF,,,,,,,,2.233,,,,,,,,,,,,,,,,,,,,,,60f4e713c05794eb144760df,61036af6360a8e49a79c85a6,2021-07-29_21h59.42.208,Simcolourproject_2stim_asymm_v5,2020.2.10,Win32,60,61025ae37ef11b136ea224fe,,,,,,,,,538,78.0000214,-34.66667843,1,0,0,response3disk,,5,-3.333314359,9.999989569,1,0,0,rectangle,-3.333314359,9.999989569,1,0,0,-3.333314359,9.999989569,1,0,0,0,55,55,50,1,,,,,,,,
,,,,,,,,,,,,,FF,,,,,,,,0.8167,,,,,,,,,,,,,,,,,,,,,,60f4e713c05794eb144760df,61036af6360a8e49a79c85a6,2021-07-29_21h59.42.208,Simcolourproject_2stim_asymm_v5,2020.2.10,Win32,60,61025ae37ef11b136ea224fe,,,,,,,,,3411,56.66668743,42.66665721,1,0,0,response1disk,,6,6.000019252,3.333322704,1,0,0,rectangle,6.000019252,3.333322704,1,0,0,6.000019252,3.333322704,1,0,0,0,56,56,9,1,,,,,,,,
,,,,,,,,,,,,,FF,,,,,,,,1.2165,,,,,,,,,,,,,,,,,,,,,,60f4e713c05794eb144760df,61036af6360a8e49a79c85a6,2021-07-29_21h59.42.208,Simcolourproject_2stim_asymm_v5,2020.2.10,Win32,60,61025ae37ef11b136ea224fe,,,,,,,,,2083,64.66668767,45.33330361,1,0,0,response1disk,,6,8.666685998,3.99998939,1,0,0,rectangle,8.666685998,3.99998939,1,0,0,8.666685998,3.99998939,1,0,0,0,57,57,117,1,,,,,,,,
,,,,,,,,,,,,,FF,,,,,,,,0.8835,,,,,,,,,,,,,,,,,,,,,,60f4e713c05794eb144760df,61036af6360a8e49a79c85a6,2021-07-29_21h59.42.208,Simcolourproject_2stim_asymm_v5,2020.2.10,Win32,60,61025ae37ef11b136ea224fe,,,,,,,,,2012,57.33335412,93.99999207,1,0,0,response1disk,,7,4.000019193,4.666656077,1,0,0,rectangle,4.000019193,4.666656077,1,0,0,4.000019193,4.666656077,1,0,0,0,58,58,11,1,,,,,,,,
,,,,,,,,,,,,,FF,,,,,,,,2.0163,,,,,,,,,,,,,,,,,,,,,,60f4e713c05794eb144760df,61036af6360a8e49a79c85a6,2021-07-29_21h59.42.208,Simcolourproject_2stim_asymm_v5,2020.2.10,Win32,60,61025ae37ef11b136ea224fe,,,,,,,,,3376,-73.99998313,-32.00001168,1,0,0,response5disk,,2,-5.999981105,-2.666677475,1,0,0,rectangle,-5.999981105,-2.666677475,1,0,0,-5.999981105,-2.666677475,1,0,0,0,59,59,65,1,,,,,,,,
,,,,,,,,,,,,,FF,,,,,,,,2.5331,,,,,,,,,,,,,,,,,,,,,,60f4e713c05794eb144760df,61036af6360a8e49a79c85a6,2021-07-29_21h59.42.208,Simcolourproject_2stim_asymm_v5,2020.2.10,Win32,60,61025ae37ef11b136ea224fe,,,,,,,,,3344,51.33335394,-71.33334619,1,0,0,response3disk,,4,12.66668612,-10.66667771,1,0,0,rectangle,12.66668612,-10.66667771,1,0,0,12.66668612,-10.66667771,1,0,0,0,60,60,105,1,,,,,,,,
,,,,,,,,,,,,,FF,,,,,,,,1.6999,,,,,,,,,,,,,,,,,,,,,,60f4e713c05794eb144760df,61036af6360a8e49a79c85a6,2021-07-29_21h59.42.208,Simcolourproject_2stim_asymm_v5,2020.2.10,Win32,60,61025ae37ef11b136ea224fe,,,,,,,,,2133,36.00002015,61.33330409,1,0,0,response1disk,,7,16.66668624,5.333322763,1,0,0,rectangle,16.66668624,5.333322763,1,0,0,16.66668624,5.333322763,1,0,0,0,61,61,16,1,,,,,,,,
,,,,,,,,,,,,,FF,,,,,,,,1.3832,,,,,,,,,,,,,,,,,,,,,,60f4e713c05794eb144760df,61036af6360a8e49a79c85a6,2021-07-29_21h59.42.208,Simcolourproject_2stim_asymm_v5,2020.2.10,Win32,60,61025ae37ef11b136ea224fe,,,,,,,,,2530,72.00002122,31.99999022,1,0,0,response1disk,,6,-10.66660722,-5.333344221,1,0,0,rectangle,-10.66660722,-5.333344221,1,0,0,-10.66660722,-5.333344221,1,0,0,0,62,62,61,1,,,,,,,,
,,,,,,,,,,,,,FF,,,,,,,,2.2497,,,,,,,,,,,,,,,,,,,,,,60f4e713c05794eb144760df,61036af6360a8e49a79c85a6,2021-07-29_21h59.42.208,Simcolourproject_2stim_asymm_v5,2020.2.10,Win32,60,61025ae37ef11b136ea224fe,,,,,,,,,2091,35.33339415,75.3333045,1,0,0,response1disk,,7,20.66668636,7.99998951,1,0,0,rectangle,20.66668636,7.99998951,1,0,0,20.66668636,7.99998951,1,0,0,0,63,63,27,1,,,,,,,,
,,,,,,,,,,,,,FF,,,,,,,,3.1662,,,,,,,,,,,,,,,,,,,,,,60f4e713c05794eb144760df,61036af6360a8e49a79c85a6,2021-07-29_21h59.42.208,Simcolourproject_2stim_asymm_v5,2020.2.10,Win32,60,61025ae37ef11b136ea224fe,,,,,,,,,2898,-76.66660919,-36.0000118,1,0,0,response5disk,,2,0.66668576,-4.000010848,1,0,0,rectangle,0.66668576,-4.000010848,1,0,0,0.66668576,-4.000010848,1,0,0,0,64,64,5,1,,,,,,,,
,,,,,,,,,,,,,FF,,,,,,,,1.75,,,,,,,,,,,,,,,,,,,,,,60f4e713c05794eb144760df,61036af6360a8e49a79c85a6,2021-07-29_21h59.42.208,Simcolourproject_2stim_asymm_v5,2020.2.10,Win32,60,61025ae37ef11b136ea224fe,,,,,,,,,3296,-71.33331639,61.33330409,1,0,0,response7disk,,1,-1.999980986,7.333322823,1,0,0,rectangle,-1.999980986,7.333322823,1,0,0,-1.999980986,7.333322823,1,0,0,0,65,65,87,1,,,,,,,,
,,,,,,,,,,,,,FF,,,,,,,,1.05,,,,,,,,,,,,,,,,,,,,,,60f4e713c05794eb144760df,61036af6360a8e49a79c85a6,2021-07-29_21h59.42.208,Simcolourproject_2stim_asymm_v5,2020.2.10,Win32,60,61025ae37ef11b136ea224fe,,,,,,,,,4291,39.33339427,83.99999177,1,0,0,response1disk,,7,-10.66660722,-2.666677475,1,0,0,rectangle,-10.66660722,-2.666677475,1,0,0,-10.66660722,-2.666677475,1,0,0,0,66,66,116,1,,,,,,,,
,,,,,,,,,,,,,FF,,,,,,,,0.9666,,,,,,,,,,,,,,,,,,,,,,60f4e713c05794eb144760df,61036af6360a8e49a79c85a6,2021-07-29_21h59.42.208,Simcolourproject_2stim_asymm_v5,2020.2.10,Win32,60,61025ae37ef11b136ea224fe,,,,,,,,,3760,42.00002033,64.66665787,1,0,0,response1disk,,7,4.666685879,-7.333344281,1,0,0,rectangle,4.666685879,-7.333344281,1,0,0,4.666685879,-7.333344281,1,0,0,0,67,67,129,1,,,,,,,,
,,,,,,,,,,,,,FF,,,,,,,,0.8167,,,,,,,,,,,,,,,,,,,,,,60f4e713c05794eb144760df,61036af6360a8e49a79c85a6,2021-07-29_21h59.42.208,Simcolourproject_2stim_asymm_v5,2020.2.10,Win32,60,61025ae37ef11b136ea224fe,,,,,,,,,1961,-69.99998301,40.66665715,1,0,0,response7disk,,1,-1.3333143,7.99998951,1,0,0,rectangle,-1.3333143,7.99998951,1,0,0,-1.3333143,7.99998951,1,0,0,0,68,68,73,1,,,,,,,,
,,,,,,,,,,,,,FF,,,,,,,,0.8499,,,,,,,,,,,,,,,,,,,,,,60f4e713c05794eb144760df,61036af6360a8e49a79c85a6,2021-07-29_21h59.42.208,Simcolourproject_2stim_asymm_v5,2020.2.10,Win32,60,61025ae37ef11b136ea224fe,,,,,,,,,1957,-68.66660895,30.66665685,1,0,0,response7disk,,1,-7.333314478,10.66665626,1,0,0,rectangle,-7.333314478,10.66665626,1,0,0,-7.333314478,10.66665626,1,0,0,0,69,69,155,1,,,,,,,,
,,,,,,,,,,,,,FF,,,,,,,,1.4498,,,,,,,,,,,,,,,,,,,,,,60f4e713c05794eb144760df,61036af6360a8e49a79c85a6,2021-07-29_21h59.42.208,Simcolourproject_2stim_asymm_v5,2020.2.10,Win32,60,61025ae37ef11b136ea224fe,,,,,,,,,855,92.00002182,-26.0000115,1,0,0,response3disk,,5,14.66668618,-8.000010967,1,0,0,rectangle,14.66668618,-8.000010967,1,0,0,14.66668618,-8.000010967,1,0,0,0,70,70,91,1,,,,,,,,
,,,,,,,,,,,,,FF,,,,,,,,0.9834,,,,,,,,,,,,,,,,,,,,,,60f4e713c05794eb144760df,61036af6360a8e49a79c85a6,2021-07-29_21h59.42.208,Simcolourproject_2stim_asymm_v5,2020.2.10,Win32,60,61025ae37ef11b136ea224fe,,,,,,,,,2781,-70.66660901,29.99999017,1,0,0,response7disk,,1,10.00001937,-8.000010967,1,0,0,rectangle,10.00001937,-8.000010967,1,0,0,10.00001937,-8.000010967,1,0,0,0,71,71,99,1,,,,,,,,
,,,,,,,,,,,,,FF,,,,,,,,1.533,,,,,,,,,,,,,,,,,,,,,,60f4e713c05794eb144760df,61036af6360a8e49a79c85a6,2021-07-29_21h59.42.208,Simcolourproject_2stim_asymm_v5,2020.2.10,Win32,60,61025ae37ef11b136ea224fe,,,,,,,,,752,73.33335459,48.66665739,1,0,0,response1disk,,6,14.66668618,-4.000010848,1,0,0,rectangle,14.66668618,-4.000010848,1,0,0,14.66668618,-4.000010848,1,0,0,0,72,72,119,1,,,,,,,,
,,,,,,,,,,,,,FF,,,,,,,,0.7667,,,,,,,,,,,,,,,,,,,,,,60f4e713c05794eb144760df,61036af6360a8e49a79c85a6,2021-07-29_21h59.42.208,Simcolourproject_2stim_asymm_v5,2020.2.10,Win32,60,61025ae37ef11b136ea224fe,,,,,,,,,3781,-76.66660919,35.33330331,1,0,0,response7disk,,1,-7.333314478,6.666656137,1,0,0,rectangle,-44.66660823,85.3333048,1,0,0,3.333393196,-2.000010788,1,0,0,0,73,73,111,1,,response7disk_3,TRUE,0,0,"[226,74,192,214,305,23,87,112,144,220,257,169,20,283,300,91,168,267,193,138]",2.4501,rectangle
,,,,,,,,,,,,,FF,,,,,,,,2.1998,,,,,,,,,,,,,,,,,,,,,,60f4e713c05794eb144760df,61036af6360a8e49a79c85a6,2021-07-29_21h59.42.208,Simcolourproject_2stim_asymm_v5,2020.2.10,Win32,60,61025ae37ef11b136ea224fe,,,,,,,,,3891,80.00002146,-32.00001168,1,0,0,response3disk,,5,1.333393137,7.333322823,1,0,0,rectangle,1.333393137,7.333322823,1,0,0,1.333393137,7.333322823,1,0,0,0,74,74,146,1,,,,,,,,
,,,,,,,,,,,,,FF,,,,,,,,2.6996,,,,,,,,,,,,,,,,,,,,,,60f4e713c05794eb144760df,61036af6360a8e49a79c85a6,2021-07-29_21h59.42.208,Simcolourproject_2stim_asymm_v5,2020.2.10,Win32,60,61025ae37ef11b136ea224fe,,,,,,,,,3753,-18.66660746,-80.6666798,1,0,0,response5disk,,3,-3.333314359,7.333322823,1,0,0,rectangle,-3.333314359,7.333322823,1,0,0,-3.333314359,7.333322823,1,0,0,0,75,75,143,1,,,,,,,,
,,,,,,,,,,,,,FF,,,,,,,,0.9997,,,,,,,,,,,,,,,,,,,,,,60f4e713c05794eb144760df,61036af6360a8e49a79c85a6,2021-07-29_21h59.42.208,Simcolourproject_2stim_asymm_v5,2020.2.10,Win32,60,61025ae37ef11b136ea224fe,,,,,,,,,1691,-62.66660877,33.33330325,1,0,0,response7disk,,1,4.666685879,-0.666677415,1,0,0,rectangle,4.666685879,-0.666677415,1,0,0,4.666685879,-0.666677415,1,0,0,0,76,76,19,1,,,,,,,,
,,,,,,,,,,,,,FF,,,,,,,,0.9165,,,,,,,,,,,,,,,,,,,,,,60f4e713c05794eb144760df,61036af6360a8e49a79c85a6,2021-07-29_21h59.42.208,Simcolourproject_2stim_asymm_v5,2020.2.10,Win32,60,61025ae37ef11b136ea224fe,,,,,,,,,3831,56.66668743,32.66665691,1,0,0,response1disk,,6,15.33339355,3.333322704,1,0,0,rectangle,15.33339355,3.333322704,1,0,0,15.33339355,3.333322704,1,0,0,0,77,77,128,1,,,,,,,,
,,,,,,,,,,,,,FF,,,,,,,,1.5333,,,,,,,,,,,,,,,,,,,,,,60f4e713c05794eb144760df,61036af6360a8e49a79c85a6,2021-07-29_21h59.42.208,Simcolourproject_2stim_asymm_v5,2020.2.10,Win32,60,61025ae37ef11b136ea224fe,,,,,,,,,765,45.33335376,71.33330439,1,0,0,response1disk,,7,13.33339349,0.666655958,1,0,0,rectangle,13.33339349,0.666655958,1,0,0,13.33339349,0.666655958,1,0,0,0,78,78,123,1,,,,,,,,
,,,,,,,,,,,,,FF,,,,,,,,0.7668,,,,,,,,,,,,,,,,,,,,,,60f4e713c05794eb144760df,61036af6360a8e49a79c85a6,2021-07-29_21h59.42.208,Simcolourproject_2stim_asymm_v5,2020.2.10,Win32,60,61025ae37ef11b136ea224fe,,,,,,,,,1628,31.33339403,89.33330492,1,0,0,response1disk,,7,1.333393137,10.66665626,1,0,0,rectangle,1.333393137,10.66665626,1,0,0,1.333393137,10.66665626,1,0,0,0,79,79,46,1,,,,,,,,
,,,,,,,,,,,,,FF,,,,,,,,0.9165,,,,,,,,,,,,,,,,,,,,,,60f4e713c05794eb144760df,61036af6360a8e49a79c85a6,2021-07-29_21h59.42.208,Simcolourproject_2stim_asymm_v5,2020.2.10,Win32,60,61025ae37ef11b136ea224fe,,,,,,,,,1293,-75.3333165,39.99999046,1,0,0,response7disk,,1,13.33339349,-2.666677475,1,0,0,rectangle,13.33339349,-2.666677475,1,0,0,13.33339349,-2.666677475,1,0,0,0,80,80,57,1,,,,,,,,
,,,,,,,,,,,,,FF,,,,,,,,2.6162,,,,,,,,,,,,,,,,,,,,,,60f4e713c05794eb144760df,61036af6360a8e49a79c85a6,2021-07-29_21h59.42.208,Simcolourproject_2stim_asymm_v5,2020.2.10,Win32,60,61025ae37ef11b136ea224fe,,,,,,,,,1987,79.33335477,37.33330337,1,0,0,response1disk,,6,13.33339349,4.666656077,1,0,0,rectangle,13.33339349,4.666656077,1,0,0,13.33339349,4.666656077,1,0,0,0,81,81,12,1,,,,,,,,
,,,,,,,,,,,,,FF,,,,,,,,1.2331,,,,,,,,,,,,,,,,,,,,,,60f4e713c05794eb144760df,61036af6360a8e49a79c85a6,2021-07-29_21h59.42.208,Simcolourproject_2stim_asymm_v5,2020.2.10,Win32,60,61025ae37ef11b136ea224fe,,,,,,,,,2439,45.33335376,73.33330444,1,0,0,response1disk,,7,25.33339385,-1.07288E-05,1,0,0,rectangle,25.33339385,-1.07288E-05,1,0,0,25.33339385,-1.07288E-05,1,0,0,0,82,82,121,1,,,,,,,,
,,,,,,,,,,,,,FF,,,,,,,,2.1665,,,,,,,,,,,,,,,,,,,,,,60f4e713c05794eb144760df,61036af6360a8e49a79c85a6,2021-07-29_21h59.42.208,Simcolourproject_2stim_asymm_v5,2020.2.10,Win32,60,61025ae37ef11b136ea224fe,,,,,,,,,412,14.66668618,79.99999166,1,0,0,response1disk,,7,16.00001955,3.99998939,1,0,0,rectangle,16.00001955,3.99998939,1,0,0,16.00001955,3.99998939,1,0,0,0,83,83,94,1,,,,,,,,
,,,,,,,,,,,,,FF,,,,,,,,2.1664,,,,,,,,,,,,,,,,,,,,,,60f4e713c05794eb144760df,61036af6360a8e49a79c85a6,2021-07-29_21h59.42.208,Simcolourproject_2stim_asymm_v5,2020.2.10,Win32,60,61025ae37ef11b136ea224fe,,,,,,,,,3774,80.66668814,-26.0000115,1,0,0,response3disk,,5,-8.666607161,-2.666677475,1,0,0,rectangle,-8.666607161,-2.666677475,1,0,0,-8.666607161,-2.666677475,1,0,0,0,84,84,83,1,,,,,,,,
,,,,,,,,,,,,,FF,,,,,,,,2.3663,,,,,,,,,,,,,,,,,,,,,,60f4e713c05794eb144760df,61036af6360a8e49a79c85a6,2021-07-29_21h59.42.208,Simcolourproject_2stim_asymm_v5,2020.2.10,Win32,60,61025ae37ef11b136ea224fe,,,,,,,,,362,42.66668701,74.66665816,1,0,0,response1disk,,7,16.66668624,9.333322883,1,0,0,rectangle,16.66668624,9.333322883,1,0,0,16.66668624,9.333322883,1,0,0,0,85,85,21,1,,,,,,,,
,,,,,,,,,,,,,FF,,,,,,,,1.1499,,,,,,,,,,,,,,,,,,,,,,60f4e713c05794eb144760df,61036af6360a8e49a79c85a6,2021-07-29_21h59.42.208,Simcolourproject_2stim_asymm_v5,2020.2.10,Win32,60,61025ae37ef11b136ea224fe,,,,,,,,,2638,44.66668707,81.99999171,1,0,0,response1disk,,7,-1.999980986,5.333322763,1,0,0,rectangle,95.33335525,-46.0000121,1,0,0,15.33339355,-4.000010848,1,0,0,0,86,86,55,1,,response3disk_3,TRUE,5,5,"[226,74,192,214,305,23,87,112,144,220,257,169,20,283,300,91,168,267,193,138]",1.3163,rectangle
,,,,,,,,,,,,,FF,,,,,,,,1.4499,,,,,,,,,,,,,,,,,,,,,,60f4e713c05794eb144760df,61036af6360a8e49a79c85a6,2021-07-29_21h59.42.208,Simcolourproject_2stim_asymm_v5,2020.2.10,Win32,60,61025ae37ef11b136ea224fe,,,,,,,,,3397,92.00002182,-40.00001192,1,0,0,response3disk,,5,-7.333314478,-7.333344281,1,0,0,rectangle,-7.333314478,-7.333344281,1,0,0,-7.333314478,-7.333344281,1,0,0,0,87,87,43,1,,,,,,,,
,,,,,,,,,,,,,FF,,,,,,,,1.5833,,,,,,,,,,,,,,,,,,,,,,60f4e713c05794eb144760df,61036af6360a8e49a79c85a6,2021-07-29_21h59.42.208,Simcolourproject_2stim_asymm_v5,2020.2.10,Win32,60,61025ae37ef11b136ea224fe,,,,,,,,,3523,78.66668808,-41.33334529,1,0,0,response3disk,,5,-5.999981105,-0.666677415,1,0,0,rectangle,-5.999981105,-0.666677415,1,0,0,-5.999981105,-0.666677415,1,0,0,0,88,88,86,1,,,,,,,,
,,,,,,,,,,,,,FF,,,,,,,,2.6662,,,,,,,,,,,,,,,,,,,,,,60f4e713c05794eb144760df,61036af6360a8e49a79c85a6,2021-07-29_21h59.42.208,Simcolourproject_2stim_asymm_v5,2020.2.10,Win32,60,61025ae37ef11b136ea224fe,,,,,,,,,689,74.00002128,49.33330373,1,0,0,response1disk,,6,2.66668582,2.666656017,1,0,0,rectangle,2.66668582,2.666656017,1,0,0,2.66668582,2.666656017,1,0,0,0,89,89,77,1,,,,,,,,
,,,,,,,,,,,,,FF,,,,,,,,1.2997,,,,,,,,,,,,,,,,,,,,,,60f4e713c05794eb144760df,61036af6360a8e49a79c85a6,2021-07-29_21h59.42.208,Simcolourproject_2stim_asymm_v5,2020.2.10,Win32,60,61025ae37ef11b136ea224fe,,,,,,,,,606,-55.9999826,36.66665703,1,0,0,response7disk,,1,3.333393196,9.999989569,1,0,0,rectangle,84.00002158,-26.0000115,1,0,0,14.66668618,-4.666677535,1,0,0,0,90,90,131,1,,response3disk_3,TRUE,5,5,"[226,74,192,214,305,23,87,112,144,220,257,169,20,283,300,91,168,267,193,138]",1.5664,rectangle
,,,,,,,,,,,,,FF,,,,,,,,0.9834,,,,,,,,,,,,,,,,,,,,,,60f4e713c05794eb144760df,61036af6360a8e49a79c85a6,2021-07-29_21h59.42.208,Simcolourproject_2stim_asymm_v5,2020.2.10,Win32,60,61025ae37ef11b136ea224fe,,,,,,,,,4017,74.00002128,34.66665697,1,0,0,response1disk,,6,3.333393196,-7.333344281,1,0,0,rectangle,3.333393196,-7.333344281,1,0,0,3.333393196,-7.333344281,1,0,0,0,91,91,154,1,,,,,,,,
,,,,,,,,,,,,,FF,,,,,,,,1.0505,,,,,,,,,,,,,,,,,,,,,,60f4e713c05794eb144760df,61036af6360a8e49a79c85a6,2021-07-29_21h59.42.208,Simcolourproject_2stim_asymm_v5,2020.2.10,Win32,60,61025ae37ef11b136ea224fe,,,,,,,,,2272,77.33335471,50.66665745,1,0,0,response1disk,,6,-1.999980986,13.333323,1,0,0,rectangle,-1.999980986,13.333323,1,0,0,-1.999980986,13.333323,1,0,0,0,92,92,79,1,,,,,,,,
,,,,,,,,,,,,,FF,,,,,,,,1.1666,,,,,,,,,,,,,,,,,,,,,,60f4e713c05794eb144760df,61036af6360a8e49a79c85a6,2021-07-29_21h59.42.208,Simcolourproject_2stim_asymm_v5,2020.2.10,Win32,60,61025ae37ef11b136ea224fe,,,,,,,,,578,-63.33331615,27.99999011,1,0,0,response7disk,,1,-9.999981225,12.66665632,1,0,0,rectangle,-9.999981225,12.66665632,1,0,0,-9.999981225,12.66665632,1,0,0,0,93,93,53,1,,,,,,,,
,,,,,,,,,,,,,FF,,,,,,,,0.7499,,,,,,,,,,,,,,,,,,,,,,60f4e713c05794eb144760df,61036af6360a8e49a79c85a6,2021-07-29_21h59.42.208,Simcolourproject_2stim_asymm_v5,2020.2.10,Win32,60,61025ae37ef11b136ea224fe,,,,,,,,,939,29.33339397,77.33330456,1,0,0,response1disk,,7,9.333393375,4.666656077,1,0,0,rectangle,9.333393375,4.666656077,1,0,0,9.333393375,4.666656077,1,0,0,0,94,94,145,1,,,,,,,,
,,,,,,,,,,,,,FF,,,,,,,,1.9997,,,,,,,,,,,,,,,,,,,,,,60f4e713c05794eb144760df,61036af6360a8e49a79c85a6,2021-07-29_21h59.42.208,Simcolourproject_2stim_asymm_v5,2020.2.10,Win32,60,61025ae37ef11b136ea224fe,,,,,,,,,814,44.00002038,75.99999154,1,0,0,response1disk,,7,9.333393375,7.99998951,1,0,0,rectangle,9.333393375,7.99998951,1,0,0,9.333393375,7.99998951,1,0,0,0,95,95,35,1,,,,,,,,
,,,,,,,,,,,,,FF,,,,,,,,1.0169,,,,,,,,,,,,,,,,,,,,,,60f4e713c05794eb144760df,61036af6360a8e49a79c85a6,2021-07-29_21h59.42.208,Simcolourproject_2stim_asymm_v5,2020.2.10,Win32,60,61025ae37ef11b136ea224fe,,,,,,,,,755,46.66668713,93.33330504,1,0,0,response1disk,,7,-2.666606983,13.333323,1,0,0,rectangle,-2.666606983,13.333323,1,0,0,-2.666606983,13.333323,1,0,0,0,96,96,134,1,,,,,,,,
,,,,,,,,,,,,,FF,,,,,,,,1.4499,,,,,,,,,,,,,,,,,,,,,,60f4e713c05794eb144760df,61036af6360a8e49a79c85a6,2021-07-29_21h59.42.208,Simcolourproject_2stim_asymm_v5,2020.2.10,Win32,60,61025ae37ef11b136ea224fe,,,,,,,,,822,17.33339361,-70.00001281,1,0,0,response3disk,,4,2.000019133,9.999989569,1,0,0,rectangle,2.000019133,9.999989569,1,0,0,2.000019133,9.999989569,1,0,0,0,97,97,107,1,,,,,,,,
,,,,,,,,,,,,,FF,,,,,,,,0.7665,,,,,,,,,,,,,,,,,,,,,,60f4e713c05794eb144760df,61036af6360a8e49a79c85a6,2021-07-29_21h59.42.208,Simcolourproject_2stim_asymm_v5,2020.2.10,Win32,60,61025ae37ef11b136ea224fe,,,,,,,,,1856,33.33339409,75.99999154,1,0,0,response1disk,,7,6.000019252,1.333322644,1,0,0,rectangle,6.000019252,1.333322644,1,0,0,6.000019252,1.333322644,1,0,0,0,98,98,144,1,,,,,,,,
,,,,,,,,,,,,,FF,,,,,,,,2.1496,,,,,,,,,,,,,,,,,,,,,,60f4e713c05794eb144760df,61036af6360a8e49a79c85a6,2021-07-29_21h59.42.208,Simcolourproject_2stim_asymm_v5,2020.2.10,Win32,60,61025ae37ef11b136ea224fe,,,,,,,,,1884,26.66668653,70.66665804,1,0,0,response1disk,,7,-1.3333143,3.99998939,1,0,0,rectangle,-1.3333143,3.99998939,1,0,0,-1.3333143,3.99998939,1,0,0,0,99,99,126,1,,,,,,,,
,,,,,,,,,,,,,FF,,,,,,,,1.4168,,,,,,,,,,,,,,,,,,,,,,60f4e713c05794eb144760df,61036af6360a8e49a79c85a6,2021-07-29_21h59.42.208,Simcolourproject_2stim_asymm_v5,2020.2.10,Win32,60,61025ae37ef11b136ea224fe,,,,,,,,,3826,42.00002033,-82.66667986,1,0,0,response3disk,,4,-7.999981165,0.666655958,1,0,0,rectangle,-7.999981165,0.666655958,1,0,0,-7.999981165,0.666655958,1,0,0,0,100,100,6,1,,,,,,,,
,,,,,,,,,,,,,FF,,,,,,,,1.1,,,,,,,,,,,,,,,,,,,,,,60f4e713c05794eb144760df,61036af6360a8e49a79c85a6,2021-07-29_21h59.42.208,Simcolourproject_2stim_asymm_v5,2020.2.10,Win32,60,61025ae37ef11b136ea224fe,,,,,,,,,2369,56.66668743,-86.66667998,1,0,0,response3disk,,4,4.000019193,-1.333344102,1,0,0,rectangle,4.000019193,-1.333344102,1,0,0,4.000019193,-1.333344102,1,0,0,0,101,101,101,1,,,,,,,,
,,,,,,,,,,,,,FF,,,,,,,,2.1496,,,,,,,,,,,,,,,,,,,,,,60f4e713c05794eb144760df,61036af6360a8e49a79c85a6,2021-07-29_21h59.42.208,Simcolourproject_2stim_asymm_v5,2020.2.10,Win32,60,61025ae37ef11b136ea224fe,,,,,,,,,4089,50.66668725,-65.33334601,1,0,0,response3disk,,4,8.000019312,-8.000010967,1,0,0,rectangle,8.000019312,-8.000010967,1,0,0,8.000019312,-8.000010967,1,0,0,0,102,102,26,1,,,,,,,,
,,,,,,,,,,,,,FF,,,,,,,,0.7166,,,,,,,,,,,,,,,,,,,,,,60f4e713c05794eb144760df,61036af6360a8e49a79c85a6,2021-07-29_21h59.42.208,Simcolourproject_2stim_asymm_v5,2020.2.10,Win32,60,61025ae37ef11b136ea224fe,,,,,,,,,2453,22.00001973,77.9999916,1,0,0,response1disk,,7,-9.333314538,-2.000010788,1,0,0,rectangle,-9.333314538,-2.000010788,1,0,0,-9.333314538,-2.000010788,1,0,0,0,103,103,58,1,,,,,,,,
,,,,,,,,,,,,,FF,,,,,,,,1.4832,,,,,,,,,,,,,,,,,,,,,,60f4e713c05794eb144760df,61036af6360a8e49a79c85a6,2021-07-29_21h59.42.208,Simcolourproject_2stim_asymm_v5,2020.2.10,Win32,60,61025ae37ef11b136ea224fe,,,,,,,,,3163,87.33335501,-49.33334553,1,0,0,response3disk,,5,4.666685879,-2.666677475,1,0,0,rectangle,4.666685879,-2.666677475,1,0,0,4.666685879,-2.666677475,1,0,0,0,104,104,59,1,,,,,,,,
,,,,,,,,,,,,,FF,,,,,,,,1.2499,,,,,,,,,,,,,,,,,,,,,,60f4e713c05794eb144760df,61036af6360a8e49a79c85a6,2021-07-29_21h59.42.208,Simcolourproject_2stim_asymm_v5,2020.2.10,Win32,60,61025ae37ef11b136ea224fe,,,,,,,,,3633,-20.66660752,-58.00001246,1,0,0,response5disk,,3,-1.999980986,-4.666677535,1,0,0,rectangle,-1.999980986,-4.666677535,1,0,0,-1.999980986,-4.666677535,1,0,0,0,105,105,158,1,,,,,,,,
,,,,,,,,,,,,,FF,,,,,,,,0.8,,,,,,,,,,,,,,,,,,,,,,60f4e713c05794eb144760df,61036af6360a8e49a79c85a6,2021-07-29_21h59.42.208,Simcolourproject_2stim_asymm_v5,2020.2.10,Win32,60,61025ae37ef11b136ea224fe,,,,,,,,,3790,44.66668707,84.66665846,1,0,0,response1disk,,7,-11.99998128,-6.000010908,1,0,0,rectangle,-11.99998128,-6.000010908,1,0,0,-11.99998128,-6.000010908,1,0,0,0,106,106,2,1,,,,,,,,
,,,,,,,,,,,,,FF,,,,,,,,1.983,,,,,,,,,,,,,,,,,,,,,,60f4e713c05794eb144760df,61036af6360a8e49a79c85a6,2021-07-29_21h59.42.208,Simcolourproject_2stim_asymm_v5,2020.2.10,Win32,60,61025ae37ef11b136ea224fe,,,,,,,,,1204,50.00002056,-75.33334631,1,0,0,response3disk,,4,-3.999981046,-3.333344162,1,0,0,rectangle,-3.999981046,-3.333344162,1,0,0,-3.999981046,-3.333344162,1,0,0,0,107,107,157,1,,,,,,,,
,,,,,,,,,,,,,FF,,,,,,,,1.0498,,,,,,,,,,,,,,,,,,,,,,60f4e713c05794eb144760df,61036af6360a8e49a79c85a6,2021-07-29_21h59.42.208,Simcolourproject_2stim_asymm_v5,2020.2.10,Win32,60,61025ae37ef11b136ea224fe,,,,,,,,,683,70.66668785,-34.00001174,1,0,0,response3disk,,5,8.666685998,-1.07288E-05,1,0,0,rectangle,8.666685998,-1.07288E-05,1,0,0,8.666685998,-1.07288E-05,1,0,0,0,108,108,33,1,,,,,,,,
,,,,,,,,,,,,,FF,,,,,,,,1.7993,,,,,,,,,,,,,,,,,,,,,,60f4e713c05794eb144760df,61036af6360a8e49a79c85a6,2021-07-29_21h59.42.208,Simcolourproject_2stim_asymm_v5,2020.2.10,Win32,60,61025ae37ef11b136ea224fe,,,,,,,,,2969,-34.66660794,-56.0000124,1,0,0,response5disk,,3,1.9735E-05,-10.00001103,1,0,0,rectangle,1.9735E-05,-10.00001103,1,0,0,1.9735E-05,-10.00001103,1,0,0,0,109,109,44,1,,,,,,,,
,,,,,,,,,,,,,FF,,,,,,,,1.2835,,,,,,,,,,,,,,,,,,,,,,60f4e713c05794eb144760df,61036af6360a8e49a79c85a6,2021-07-29_21h59.42.208,Simcolourproject_2stim_asymm_v5,2020.2.10,Win32,60,61025ae37ef11b136ea224fe,,,,,,,,,3560,-83.99998343,25.99999005,1,0,0,response7disk,,1,-18.66660746,7.99998951,1,0,0,rectangle,-18.66660746,7.99998951,1,0,0,-18.66660746,7.99998951,1,0,0,0,110,110,75,1,,,,,,,,
,,,,,,,,,,,,,FF,,,,,,,,1.8664,,,,,,,,,,,,,,,,,,,,,,60f4e713c05794eb144760df,61036af6360a8e49a79c85a6,2021-07-29_21h59.42.208,Simcolourproject_2stim_asymm_v5,2020.2.10,Win32,60,61025ae37ef11b136ea224fe,,,,,,,,,3244,-71.99998307,40.66665715,1,0,0,response7disk,,1,-7.999981165,4.666656077,1,0,0,rectangle,-57.99998266,26.66665673,1,0,0,-13.99998134,4.666656077,1,0,0,0,111,111,109,1,,response7disk_3,TRUE,1,1,"[226,74,192,214,305,23,87,112,144,220,257,169,20,283,300,91,168,267,193,138]",1.3998,rectangle
,,,,,,,,,,,,,FF,,,,,,,,1.4663,,,,,,,,,,,,,,,,,,,,,,60f4e713c05794eb144760df,61036af6360a8e49a79c85a6,2021-07-29_21h59.42.208,Simcolourproject_2stim_asymm_v5,2020.2.10,Win32,60,61025ae37ef11b136ea224fe,,,,,,,,,1008,68.66668779,-32.00001168,1,0,0,response3disk,,5,-15.33331472,-0.666677415,1,0,0,rectangle,-15.33331472,-0.666677415,1,0,0,-15.33331472,-0.666677415,1,0,0,0,112,112,110,1,,,,,,,,
,,,,,,,,,,,,,FF,,,,,,,,2.0331,,,,,,,,,,,,,,,,,,,,,,60f4e713c05794eb144760df,61036af6360a8e49a79c85a6,2021-07-29_21h59.42.208,Simcolourproject_2stim_asymm_v5,2020.2.10,Win32,60,61025ae37ef11b136ea224fe,,,,,,,,,4024,-31.33331519,-82.66667986,1,0,0,response5disk,,3,10.66668606,-8.666677654,1,0,0,rectangle,10.66668606,-8.666677654,1,0,0,10.66668606,-8.666677654,1,0,0,0,113,113,3,1,,,,,,,,
,,,,,,,,,,,,,FF,,,,,,,,1.0834,,,,,,,,,,,,,,,,,,,,,,60f4e713c05794eb144760df,61036af6360a8e49a79c85a6,2021-07-29_21h59.42.208,Simcolourproject_2stim_asymm_v5,2020.2.10,Win32,60,61025ae37ef11b136ea224fe,,,,,,,,,4245,60.00002086,38.66665709,1,0,0,response1disk,,6,-1.3333143,-6.000010908,1,0,0,rectangle,-1.3333143,-6.000010908,1,0,0,-1.3333143,-6.000010908,1,0,0,0,114,114,100,1,,,,,,,,
,,,,,,,,,,,,,FF,,,,,,,,0.75,,,,,,,,,,,,,,,,,,,,,,60f4e713c05794eb144760df,61036af6360a8e49a79c85a6,2021-07-29_21h59.42.208,Simcolourproject_2stim_asymm_v5,2020.2.10,Win32,60,61025ae37ef11b136ea224fe,,,,,,,,,1629,28.66668659,70.66665804,1,0,0,response1disk,,7,-11.99998128,-6.000010908,1,0,0,rectangle,-11.99998128,-6.000010908,1,0,0,-11.99998128,-6.000010908,1,0,0,0,115,115,113,1,,,,,,,,
,,,,,,,,,,,,,FF,,,,,,,,0.9333,,,,,,,,,,,,,,,,,,,,,,60f4e713c05794eb144760df,61036af6360a8e49a79c85a6,2021-07-29_21h59.42.208,Simcolourproject_2stim_asymm_v5,2020.2.10,Win32,60,61025ae37ef11b136ea224fe,,,,,,,,,2240,46.66668713,69.33330433,1,0,0,response1disk,,7,0.66668576,1.333322644,1,0,0,rectangle,0.66668576,1.333322644,1,0,0,0.66668576,1.333322644,1,0,0,0,116,116,66,1,,,,,,,,
,,,,,,,,,,,,,FF,,,,,,,,1.4832,,,,,,,,,,,,,,,,,,,,,,60f4e713c05794eb144760df,61036af6360a8e49a79c85a6,2021-07-29_21h59.42.208,Simcolourproject_2stim_asymm_v5,2020.2.10,Win32,60,61025ae37ef11b136ea224fe,,,,,,,,,1815,-35.999982,73.99999148,1,0,0,response7disk,,0,1.333393137,5.99998945,1,0,0,rectangle,1.333393137,5.99998945,1,0,0,1.333393137,5.99998945,1,0,0,0,117,117,106,1,,,,,,,,
,,,,,,,,,,,,,FF,,,,,,,,1.3,,,,,,,,,,,,,,,,,,,,,,60f4e713c05794eb144760df,61036af6360a8e49a79c85a6,2021-07-29_21h59.42.208,Simcolourproject_2stim_asymm_v5,2020.2.10,Win32,60,61025ae37ef11b136ea224fe,,,,,,,,,2835,-56.66660859,-40.00001192,1,0,0,response5disk,,2,-5.999981105,-4.666677535,1,0,0,rectangle,-5.999981105,-4.666677535,1,0,0,-5.999981105,-4.666677535,1,0,0,0,118,118,120,1,,,,,,,,
,,,,,,,,,,,,,FF,,,,,,,,5.0326,,,,,,,,,,,,,,,,,,,,,,60f4e713c05794eb144760df,61036af6360a8e49a79c85a6,2021-07-29_21h59.42.208,Simcolourproject_2stim_asymm_v5,2020.2.10,Win32,60,61025ae37ef11b136ea224fe,,,,,,,,,3818,70.66668785,-31.333345,1,0,0,response3disk,,5,1.9735E-05,-14.00001115,1,0,0,rectangle,1.9735E-05,-14.00001115,1,0,0,1.9735E-05,-14.00001115,1,0,0,0,119,119,130,1,,,,,,,,
,,,,,,,,,,,,,FF,,,,,,,,1.4832,,,,,,,,,,,,,,,,,,,,,,60f4e713c05794eb144760df,61036af6360a8e49a79c85a6,2021-07-29_21h59.42.208,Simcolourproject_2stim_asymm_v5,2020.2.10,Win32,60,61025ae37ef11b136ea224fe,,,,,,,,,2203,41.33339433,99.33330522,1,0,0,response1disk,,7,-3.999981046,7.99998951,1,0,0,rectangle,-3.999981046,7.99998951,1,0,0,-3.999981046,7.99998951,1,0,0,0,120,120,122,1,,,,,,,,
,,,,,,,,,,,,,FF,,,,,,,,0.9333,,,,,,,,,,,,,,,,,,,,,,60f4e713c05794eb144760df,61036af6360a8e49a79c85a6,2021-07-29_21h59.42.208,Simcolourproject_2stim_asymm_v5,2020.2.10,Win32,60,61025ae37ef11b136ea224fe,,,,,,,,,1964,-93.99998373,51.99999082,1,0,0,response7disk,,1,-22.66660758,8.666656196,1,0,0,rectangle,-22.66660758,8.666656196,1,0,0,-22.66660758,8.666656196,1,0,0,0,121,121,29,1,,,,,,,,
,,,,,,,,,,,,,FF,,,,,,,,0.8166,,,,,,,,,,,,,,,,,,,,,,60f4e713c05794eb144760df,61036af6360a8e49a79c85a6,2021-07-29_21h59.42.208,Simcolourproject_2stim_asymm_v5,2020.2.10,Win32,60,61025ae37ef11b136ea224fe,,,,,,,,,3322,68.0000211,58.66665769,1,0,0,response1disk,,6,20.66668636,-1.333344102,1,0,0,rectangle,20.66668636,-1.333344102,1,0,0,20.66668636,-1.333344102,1,0,0,0,122,122,132,1,,,,,,,,
,,,,,,,,,,,,,FF,,,,,,,,3.1998,,,,,,,,,,,,,,,,,,,,,,60f4e713c05794eb144760df,61036af6360a8e49a79c85a6,2021-07-29_21h59.42.208,Simcolourproject_2stim_asymm_v5,2020.2.10,Win32,60,61025ae37ef11b136ea224fe,,,,,,,,,2348,-22.66660758,-88.00001335,1,0,0,response5disk,,3,1.333393137,3.99998939,1,0,0,rectangle,1.333393137,3.99998939,1,0,0,1.333393137,3.99998939,1,0,0,0,123,123,41,1,,,,,,,,
,,,,,,,,,,,,,FF,,,,,,,,0.6167,,,,,,,,,,,,,,,,,,,,,,60f4e713c05794eb144760df,61036af6360a8e49a79c85a6,2021-07-29_21h59.42.208,Simcolourproject_2stim_asymm_v5,2020.2.10,Win32,60,61025ae37ef11b136ea224fe,,,,,,,,,2512,32.66668671,69.99999136,1,0,0,response1disk,,7,-6.666607102,-4.666677535,1,0,0,rectangle,-6.666607102,-4.666677535,1,0,0,-6.666607102,-4.666677535,1,0,0,0,124,124,98,1,,,,,,,,
,,,,,,,,,,,,,FF,,,,,,,,0.7333,,,,,,,,,,,,,,,,,,,,,,60f4e713c05794eb144760df,61036af6360a8e49a79c85a6,2021-07-29_21h59.42.208,Simcolourproject_2stim_asymm_v5,2020.2.10,Win32,60,61025ae37ef11b136ea224fe,,,,,,,,,1352,53.333354,82.6666584,1,0,0,response1disk,,7,15.33339355,9.333322883,1,0,0,rectangle,15.33339355,9.333322883,1,0,0,15.33339355,9.333322883,1,0,0,0,125,125,138,1,,,,,,,,
,,,,,,,,,,,,,FF,,,,,,,,1.6658,,,,,,,,,,,,,,,,,,,,,,60f4e713c05794eb144760df,61036af6360a8e49a79c85a6,2021-07-29_21h59.42.208,Simcolourproject_2stim_asymm_v5,2020.2.10,Win32,60,61025ae37ef11b136ea224fe,,,,,,,,,472,22.00001973,101.3333053,1,0,0,response1disk,,7,-7.999981165,5.99998945,1,0,0,rectangle,-7.999981165,5.99998945,1,0,0,-7.999981165,5.99998945,1,0,0,0,126,126,39,1,,,,,,,,
,,,,,,,,,,,,,FF,,,,,,,,1.3334,,,,,,,,,,,,,,,,,,,,,,60f4e713c05794eb144760df,61036af6360a8e49a79c85a6,2021-07-29_21h59.42.208,Simcolourproject_2stim_asymm_v5,2020.2.10,Win32,60,61025ae37ef11b136ea224fe,,,,,,,,,4320,44.66668707,-28.00001156,1,0,0,response3disk,,5,8.666685998,-10.00001103,1,0,0,rectangle,8.666685998,-10.00001103,1,0,0,8.666685998,-10.00001103,1,0,0,0,127,127,60,1,,,,,,,,
,,,,,,,,,,,,,FF,,,,,,,,1.3333,,,,,,,,,,,,,,,,,,,,,,60f4e713c05794eb144760df,61036af6360a8e49a79c85a6,2021-07-29_21h59.42.208,Simcolourproject_2stim_asymm_v5,2020.2.10,Win32,60,61025ae37ef11b136ea224fe,,,,,,,,,3290,-47.99998236,79.99999166,1,0,0,response7disk,,0,-4.666607042,13.99998969,1,0,0,rectangle,-4.666607042,13.99998969,1,0,0,-4.666607042,13.99998969,1,0,0,0,128,128,68,1,,,,,,,,
,,,,,,,,,,,,,FF,,,,,,,,0.7001,,,,,,,,,,,,,,,,,,,,,,60f4e713c05794eb144760df,61036af6360a8e49a79c85a6,2021-07-29_21h59.42.208,Simcolourproject_2stim_asymm_v5,2020.2.10,Win32,60,61025ae37ef11b136ea224fe,,,,,,,,,1353,62.66668761,37.9999904,1,0,0,response1disk,,6,2.000019133,-4.000010848,1,0,0,rectangle,2.000019133,-4.000010848,1,0,0,2.000019133,-4.000010848,1,0,0,0,129,129,133,1,,,,,,,,
,,,,,,,,,,,,,FF,,,,,,,,0.6833,,,,,,,,,,,,,,,,,,,,,,60f4e713c05794eb144760df,61036af6360a8e49a79c85a6,2021-07-29_21h59.42.208,Simcolourproject_2stim_asymm_v5,2020.2.10,Win32,60,61025ae37ef11b136ea224fe,,,,,,,,,4356,-31.33331519,59.99999106,1,0,0,response7disk,,0,-5.999981105,-10.00001103,1,0,0,rectangle,-5.999981105,-10.00001103,1,0,0,-5.999981105,-10.00001103,1,0,0,0,130,130,0,1,,,,,,,,
,,,,,,,,,,,,,FF,,,,,,,,0.9832,,,,,,,,,,,,,,,,,,,,,,60f4e713c05794eb144760df,61036af6360a8e49a79c85a6,2021-07-29_21h59.42.208,Simcolourproject_2stim_asymm_v5,2020.2.10,Win32,60,61025ae37ef11b136ea224fe,,,,,,,,,3328,41.33339433,88.66665858,1,0,0,response1disk,,7,8.000019312,9.999989569,1,0,0,rectangle,8.000019312,9.999989569,1,0,0,8.000019312,9.999989569,1,0,0,0,131,131,48,1,,,,,,,,
,,,,,,,,,,,,,FF,,,,,,,,0.7,,,,,,,,,,,,,,,,,,,,,,60f4e713c05794eb144760df,61036af6360a8e49a79c85a6,2021-07-29_21h59.42.208,Simcolourproject_2stim_asymm_v5,2020.2.10,Win32,60,61025ae37ef11b136ea224fe,,,,,,,,,698,58.66668749,79.99999166,1,0,0,response1disk,,7,6.000019252,5.333322763,1,0,0,rectangle,6.000019252,5.333322763,1,0,0,6.000019252,5.333322763,1,0,0,0,132,132,13,1,,,,,,,,
,,,,,,,,,,,,,FF,,,,,,,,1.7832,,,,,,,,,,,,,,,,,,,,,,60f4e713c05794eb144760df,61036af6360a8e49a79c85a6,2021-07-29_21h59.42.208,Simcolourproject_2stim_asymm_v5,2020.2.10,Win32,60,61025ae37ef11b136ea224fe,,,,,,,,,2178,72.00002122,45.99999064,1,0,0,response1disk,,6,12.00001943,-6.000010908,1,0,0,rectangle,12.00001943,-6.000010908,1,0,0,12.00001943,-6.000010908,1,0,0,0,133,133,115,1,,,,,,,,
,,,,,,,,,,,,,FF,,,,,,,,0.8166,,,,,,,,,,,,,,,,,,,,,,60f4e713c05794eb144760df,61036af6360a8e49a79c85a6,2021-07-29_21h59.42.208,Simcolourproject_2stim_asymm_v5,2020.2.10,Win32,60,61025ae37ef11b136ea224fe,,,,,,,,,3645,28.66668659,67.33330427,1,0,0,response1disk,,7,-7.999981165,-2.666677475,1,0,0,rectangle,-7.999981165,-2.666677475,1,0,0,-7.999981165,-2.666677475,1,0,0,0,134,134,147,1,,,,,,,,
,,,,,,,,,,,,,FF,,,,,,,,0.8168,,,,,,,,,,,,,,,,,,,,,,60f4e713c05794eb144760df,61036af6360a8e49a79c85a6,2021-07-29_21h59.42.208,Simcolourproject_2stim_asymm_v5,2020.2.10,Win32,60,61025ae37ef11b136ea224fe,,,,,,,,,4100,91.33335513,35.99999034,1,0,0,response1disk,,6,16.66668624,-6.000010908,1,0,0,rectangle,16.66668624,-6.000010908,1,0,0,16.66668624,-6.000010908,1,0,0,0,135,135,151,1,,,,,,,,
,,,,,,,,,,,,,FF,,,,,,,,1,,,,,,,,,,,,,,,,,,,,,,60f4e713c05794eb144760df,61036af6360a8e49a79c85a6,2021-07-29_21h59.42.208,Simcolourproject_2stim_asymm_v5,2020.2.10,Win32,60,61025ae37ef11b136ea224fe,,,,,,,,,1021,43.3333537,74.66665816,1,0,0,response1disk,,7,-9.333314538,-1.07288E-05,1,0,0,rectangle,-9.333314538,-1.07288E-05,1,0,0,-9.333314538,-1.07288E-05,1,0,0,0,136,136,112,1,,,,,,,,
,,,,,,,,,,,,,FF,,,,,,,,0.6333,,,,,,,,,,,,,,,,,,,,,,60f4e713c05794eb144760df,61036af6360a8e49a79c85a6,2021-07-29_21h59.42.208,Simcolourproject_2stim_asymm_v5,2020.2.10,Win32,60,61025ae37ef11b136ea224fe,,,,,,,,,3697,52.66668731,79.33330462,1,0,0,response1disk,,7,2.000019133,-4.666677535,1,0,0,rectangle,58.0000208,-30.66667831,1,0,0,18.00001961,-2.000010788,1,0,0,0,137,137,70,1,,response3disk_3,TRUE,5,5,"[226,74,192,214,305,23,87,112,144,220,257,169,20,283,300,91,168,267,193,138]",1.4668,rectangle
,,,,,,,,,,,,,FF,,,,,,,,0.8834,,,,,,,,,,,,,,,,,,,,,,60f4e713c05794eb144760df,61036af6360a8e49a79c85a6,2021-07-29_21h59.42.208,Simcolourproject_2stim_asymm_v5,2020.2.10,Win32,60,61025ae37ef11b136ea224fe,,,,,,,,,3942,-30.66660782,-62.00001258,1,0,0,response5disk,,3,14.66668618,-4.000010848,1,0,0,rectangle,14.66668618,-4.000010848,1,0,0,14.66668618,-4.000010848,1,0,0,0,138,138,81,1,,,,,,,,
,,,,,,,,,,,,,FF,,,,,,,,0.7,,,,,,,,,,,,,,,,,,,,,,60f4e713c05794eb144760df,61036af6360a8e49a79c85a6,2021-07-29_21h59.42.208,Simcolourproject_2stim_asymm_v5,2020.2.10,Win32,60,61025ae37ef11b136ea224fe,,,,,,,,,4290,40.66668695,79.99999166,1,0,0,response1disk,,7,-11.99998128,-1.07288E-05,1,0,0,rectangle,-11.99998128,-1.07288E-05,1,0,0,-11.99998128,-1.07288E-05,1,0,0,0,139,139,4,1,,,,,,,,
,,,,,,,,,,,,,FF,,,,,,,,1.1665,,,,,,,,,,,,,,,,,,,,,,60f4e713c05794eb144760df,61036af6360a8e49a79c85a6,2021-07-29_21h59.42.208,Simcolourproject_2stim_asymm_v5,2020.2.10,Win32,60,61025ae37ef11b136ea224fe,,,,,,,,,864,50.66668725,-28.00001156,1,0,0,response3disk,,5,12.66668612,3.99998939,1,0,0,rectangle,12.66668612,3.99998939,1,0,0,12.66668612,3.99998939,1,0,0,0,140,140,150,1,,,,,,,,
,,,,,,,,,,,,,FF,,,,,,,,0.7833,,,,,,,,,,,,,,,,,,,,,,60f4e713c05794eb144760df,61036af6360a8e49a79c85a6,2021-07-29_21h59.42.208,Simcolourproject_2stim_asymm_v5,2020.2.10,Win32,60,61025ae37ef11b136ea224fe,,,,,,,,,3077,54.00002068,101.3333053,1,0,0,response1disk,,7,16.00001955,5.99998945,1,0,0,rectangle,16.00001955,5.99998945,1,0,0,16.00001955,5.99998945,1,0,0,0,141,141,136,1,,,,,,,,
,,,,,,,,,,,,,FF,,,,,,,,1.7997,,,,,,,,,,,,,,,,,,,,,,60f4e713c05794eb144760df,61036af6360a8e49a79c85a6,2021-07-29_21h59.42.208,Simcolourproject_2stim_asymm_v5,2020.2.10,Win32,60,61025ae37ef11b136ea224fe,,,,,,,,,1814,60.00002086,-84.66667992,1,0,0,response3disk,,4,4.000019193,3.99998939,1,0,0,rectangle,4.000019193,3.99998939,1,0,0,4.000019193,3.99998939,1,0,0,0,142,142,93,1,,,,,,,,
,,,,,,,,,,,,,FF,,,,,,,,1.1166,,,,,,,,,,,,,,,,,,,,,,60f4e713c05794eb144760df,61036af6360a8e49a79c85a6,2021-07-29_21h59.42.208,Simcolourproject_2stim_asymm_v5,2020.2.10,Win32,60,61025ae37ef11b136ea224fe,,,,,,,,,1197,30.66668665,63.33330415,1,0,0,response1disk,,7,-1.999980986,3.333322704,1,0,0,rectangle,70.00002116,-38.00001186,1,0,0,5.333393256,-1.333344102,1,0,0,0,143,143,31,1,,response3disk_3,TRUE,5,5,"[226,74,192,214,305,23,87,112,144,220,257,169,20,283,300,91,168,267,193,138]",1.4331,rectangle
,,,,,,,,,,,,,FF,,,,,,,,1.3167,,,,,,,,,,,,,,,,,,,,,,60f4e713c05794eb144760df,61036af6360a8e49a79c85a6,2021-07-29_21h59.42.208,Simcolourproject_2stim_asymm_v5,2020.2.10,Win32,60,61025ae37ef11b136ea224fe,,,,,,,,,2209,-67.99998295,-36.0000118,1,0,0,response5disk,,2,-9.999981225,8.666656196,1,0,0,rectangle,-9.999981225,8.666656196,1,0,0,-9.999981225,8.666656196,1,0,0,0,144,144,36,1,,,,,,,,
,,,,,,,,,,,,,FF,,,,,,,,1.3165,,,,,,,,,,,,,,,,,,,,,,60f4e713c05794eb144760df,61036af6360a8e49a79c85a6,2021-07-29_21h59.42.208,Simcolourproject_2stim_asymm_v5,2020.2.10,Win32,60,61025ae37ef11b136ea224fe,,,,,,,,,3769,-69.33331633,-51.33334559,1,0,0,response5disk,,2,6.000019252,5.333322763,1,0,0,rectangle,6.000019252,5.333322763,1,0,0,6.000019252,5.333322763,1,0,0,0,145,145,67,1,,,,,,,,
,,,,,,,,,,,,,FF,,,,,,,,1.7331,,,,,,,,,,,,,,,,,,,,,,60f4e713c05794eb144760df,61036af6360a8e49a79c85a6,2021-07-29_21h59.42.208,Simcolourproject_2stim_asymm_v5,2020.2.10,Win32,60,61025ae37ef11b136ea224fe,,,,,,,,,565,66.66668773,-29.33334494,1,0,0,response3disk,,5,21.33339373,7.99998951,1,0,0,rectangle,21.33339373,7.99998951,1,0,0,21.33339373,7.99998951,1,0,0,0,146,146,14,1,,,,,,,,
,,,,,,,,,,,,,FF,,,,,,,,1.0333,,,,,,,,,,,,,,,,,,,,,,60f4e713c05794eb144760df,61036af6360a8e49a79c85a6,2021-07-29_21h59.42.208,Simcolourproject_2stim_asymm_v5,2020.2.10,Win32,60,61025ae37ef11b136ea224fe,,,,,,,,,1377,-61.33331609,-30.66667831,1,0,0,response5disk,,2,-19.99998152,5.333322763,1,0,0,rectangle,-19.99998152,5.333322763,1,0,0,-19.99998152,5.333322763,1,0,0,0,147,147,153,1,,,,,,,,
,,,,,,,,,,,,,FF,,,,,,,,1.5497,,,,,,,,,,,,,,,,,,,,,,60f4e713c05794eb144760df,61036af6360a8e49a79c85a6,2021-07-29_21h59.42.208,Simcolourproject_2stim_asymm_v5,2020.2.10,Win32,60,61025ae37ef11b136ea224fe,,,,,,,,,163,94.00002187,46.66665733,1,0,0,response1disk,,6,-3.999981046,8.666656196,1,0,0,rectangle,-3.999981046,8.666656196,1,0,0,-3.999981046,8.666656196,1,0,0,0,148,148,52,1,,,,,,,,
,,,,,,,,,,,,,FF,,,,,,,,0.8501,,,,,,,,,,,,,,,,,,,,,,60f4e713c05794eb144760df,61036af6360a8e49a79c85a6,2021-07-29_21h59.42.208,Simcolourproject_2stim_asymm_v5,2020.2.10,Win32,60,61025ae37ef11b136ea224fe,,,,,,,,,2632,36.66668683,77.9999916,1,0,0,response1disk,,7,6.666685939,6.666656137,1,0,0,rectangle,6.666685939,6.666656137,1,0,0,6.666685939,6.666656137,1,0,0,0,149,149,42,1,,,,,,,,
,,,,,,,,,,,,,FF,,,,,,,,0.6998,,,,,,,,,,,,,,,,,,,,,,60f4e713c05794eb144760df,61036af6360a8e49a79c85a6,2021-07-29_21h59.42.208,Simcolourproject_2stim_asymm_v5,2020.2.10,Win32,60,61025ae37ef11b136ea224fe,,,,,,,,,2774,46.66668713,75.99999154,1,0,0,response1disk,,7,-19.33331484,6.666656137,1,0,0,rectangle,-19.33331484,6.666656137,1,0,0,-19.33331484,6.666656137,1,0,0,0,150,150,51,1,,,,,,,,
,,,,,,,,,,,,,FF,,,,,,,,1.4498,,,,,,,,,,,,,,,,,,,,,,60f4e713c05794eb144760df,61036af6360a8e49a79c85a6,2021-07-29_21h59.42.208,Simcolourproject_2stim_asymm_v5,2020.2.10,Win32,60,61025ae37ef11b136ea224fe,,,,,,,,,871,36.00002015,89.33330492,1,0,0,response1disk,,7,3.333393196,-8.000010967,1,0,0,rectangle,3.333393196,-8.000010967,1,0,0,3.333393196,-8.000010967,1,0,0,0,151,151,124,1,,,,,,,,
,,,,,,,,,,,,,FF,,,,,,,,0.6166,,,,,,,,,,,,,,,,,,,,,,60f4e713c05794eb144760df,61036af6360a8e49a79c85a6,2021-07-29_21h59.42.208,Simcolourproject_2stim_asymm_v5,2020.2.10,Win32,60,61025ae37ef11b136ea224fe,,,,,,,,,3765,41.33339433,71.33330439,1,0,0,response1disk,,7,2.000019133,-3.333344162,1,0,0,rectangle,2.000019133,-3.333344162,1,0,0,2.000019133,-3.333344162,1,0,0,0,152,152,37,1,,,,,,,,
,,,,,,,,,,,,,FF,,,,,,,,1.6665,,,,,,,,,,,,,,,,,,,,,,60f4e713c05794eb144760df,61036af6360a8e49a79c85a6,2021-07-29_21h59.42.208,Simcolourproject_2stim_asymm_v5,2020.2.10,Win32,60,61025ae37ef11b136ea224fe,,,,,,,,,3024,42.66668701,97.99999219,1,0,0,response1disk,,7,-2.666606983,7.99998951,1,0,0,rectangle,-2.666606983,7.99998951,1,0,0,-2.666606983,7.99998951,1,0,0,0,153,153,152,1,,,,,,,,
,,,,,,,,,,,,,FF,,,,,,,,1.4005,,,,,,,,,,,,,,,,,,,,,,60f4e713c05794eb144760df,61036af6360a8e49a79c85a6,2021-07-29_21h59.42.208,Simcolourproject_2stim_asymm_v5,2020.2.10,Win32,60,61025ae37ef11b136ea224fe,,,,,,,,,4185,84.00002158,-31.333345,1,0,0,response3disk,,5,26.66668653,5.99998945,1,0,0,rectangle,26.66668653,5.99998945,1,0,0,26.66668653,5.99998945,1,0,0,0,154,154,63,1,,,,,,,,
,,,,,,,,,,,,,FF,,,,,,,,0.6501,,,,,,,,,,,,,,,,,,,,,,60f4e713c05794eb144760df,61036af6360a8e49a79c85a6,2021-07-29_21h59.42.208,Simcolourproject_2stim_asymm_v5,2020.2.10,Win32,60,61025ae37ef11b136ea224fe,,,,,,,,,1648,37.33339421,88.66665858,1,0,0,response1disk,,7,10.00001937,7.99998951,1,0,0,rectangle,10.00001937,7.99998951,1,0,0,10.00001937,7.99998951,1,0,0,0,155,155,40,1,,,,,,,,
,,,,,,,,,,,,,FF,,,,,,,,0.7333,,,,,,,,,,,,,,,,,,,,,,60f4e713c05794eb144760df,61036af6360a8e49a79c85a6,2021-07-29_21h59.42.208,Simcolourproject_2stim_asymm_v5,2020.2.10,Win32,60,61025ae37ef11b136ea224fe,,,,,,,,,2007,48.66668719,78.66665828,1,0,0,response1disk,,7,4.666685879,7.99998951,1,0,0,rectangle,4.666685879,7.99998951,1,0,0,4.666685879,7.99998951,1,0,0,0,156,156,108,1,,,,,,,,
,,,,,,,,,,,,,FF,,,,,,,,0.7333,,,,,,,,,,,,,,,,,,,,,,60f4e713c05794eb144760df,61036af6360a8e49a79c85a6,2021-07-29_21h59.42.208,Simcolourproject_2stim_asymm_v5,2020.2.10,Win32,60,61025ae37ef11b136ea224fe,,,,,,,,,2249,41.33339433,82.6666584,1,0,0,response1disk,,7,22.00001973,-0.666677415,1,0,0,rectangle,22.00001973,-0.666677415,1,0,0,22.00001973,-0.666677415,1,0,0,0,157,157,10,1,,,,,,,,
,,,,,,,,,,,,,FF,,,,,,,,0.8167,,,,,,,,,,,,,,,,,,,,,,60f4e713c05794eb144760df,61036af6360a8e49a79c85a6,2021-07-29_21h59.42.208,Simcolourproject_2stim_asymm_v5,2020.2.10,Win32,60,61025ae37ef11b136ea224fe,,,,,,,,,2199,37.33339421,64.66665787,1,0,0,response1disk,,7,17.33339361,-10.00001103,1,0,0,rectangle,17.33339361,-10.00001103,1,0,0,17.33339361,-10.00001103,1,0,0,0,158,158,97,1,,,,,,,,
,,,,,,,,,,,,,FF,,,,,,,,1.0998,,,,,,,,,,,,,,,,,,,,,,60f4e713c05794eb144760df,61036af6360a8e49a79c85a6,2021-07-29_21h59.42.208,Simcolourproject_2stim_asymm_v5,2020.2.10,Win32,60,61025ae37ef11b136ea224fe,,,,,,,,,471,23.33339379,57.999991,1,0,0,response1disk,,7,-5.333314419,7.99998951,1,0,0,rectangle,-5.333314419,7.99998951,1,0,0,-5.333314419,7.99998951,1,0,0,0,159,159,30,1,,,,,,,,
,,,,,,,,,,,,,FF,,,,,,,,2.6663,,,,,,,,,,,,,,,,,,,,,,60f4e713c05794eb144760df,61036af6360a8e49a79c85a6,2021-07-29_21h59.42.208,Simcolourproject_2stim_asymm_v5,2020.2.10,Win32,60,61025ae37ef11b136ea224fe,,,,,,,,,4128,39.33339427,-76.00001299,1,0,0,response3disk,,4,-5.333314419,-5.333344221,1,0,0,rectangle,-5.333314419,-5.333344221,1,0,0,-5.333314419,-5.333344221,1,0,0,1,0,160,50,1,,,,,,,,
,,,,,,,,,,,,,FF,,,,,,,,1.3,,,,,,,,,,,,,,,,,,,,,,60f4e713c05794eb144760df,61036af6360a8e49a79c85a6,2021-07-29_21h59.42.208,Simcolourproject_2stim_asymm_v5,2020.2.10,Win32,60,61025ae37ef11b136ea224fe,,,,,,,,,273,74.66668797,29.99999017,1,0,0,response1disk,,6,22.66668642,6.666656137,1,0,0,rectangle,22.66668642,6.666656137,1,0,0,22.66668642,6.666656137,1,0,0,1,1,161,139,1,,,,,,,,
,,,,,,,,,,,,,FF,,,,,,,,2.7327,,,,,,,,,,,,,,,,,,,,,,60f4e713c05794eb144760df,61036af6360a8e49a79c85a6,2021-07-29_21h59.42.208,Simcolourproject_2stim_asymm_v5,2020.2.10,Win32,60,61025ae37ef11b136ea224fe,,,,,,,,,2951,-67.99998295,-34.00001174,1,0,0,response5disk,,2,1.9735E-05,0.666655958,1,0,0,rectangle,1.9735E-05,0.666655958,1,0,0,1.9735E-05,0.666655958,1,0,0,1,2,162,70,1,,,,,,,,
,,,,,,,,,,,,,FF,,,,,,,,3.1329,,,,,,,,,,,,,,,,,,,,,,60f4e713c05794eb144760df,61036af6360a8e49a79c85a6,2021-07-29_21h59.42.208,Simcolourproject_2stim_asymm_v5,2020.2.10,Win32,60,61025ae37ef11b136ea224fe,,,,,,,,,3711,-43.33331555,-85.33334661,1,0,0,response5disk,,3,1.9735E-05,3.333322704,1,0,0,rectangle,1.9735E-05,3.333322704,1,0,0,1.9735E-05,3.333322704,1,0,0,1,3,163,148,1,,,,,,,,
,,,,,,,,,,,,,FF,,,,,,,,0.8999,,,,,,,,,,,,,,,,,,,,,,60f4e713c05794eb144760df,61036af6360a8e49a79c85a6,2021-07-29_21h59.42.208,Simcolourproject_2stim_asymm_v5,2020.2.10,Win32,60,61025ae37ef11b136ea224fe,,,,,,,,,4011,46.66668713,106.6666591,1,0,0,response1disk,,7,-2.666606983,12.66665632,1,0,0,rectangle,-2.666606983,12.66665632,1,0,0,-2.666606983,12.66665632,1,0,0,1,4,164,108,1,,,,,,,,
,,,,,,,,,,,,,FF,,,,,,,,2.2998,,,,,,,,,,,,,,,,,,,,,,60f4e713c05794eb144760df,61036af6360a8e49a79c85a6,2021-07-29_21h59.42.208,Simcolourproject_2stim_asymm_v5,2020.2.10,Win32,60,61025ae37ef11b136ea224fe,,,,,,,,,1610,-55.9999826,79.99999166,1,0,0,response7disk,,0,3.333393196,5.333322763,1,0,0,rectangle,3.333393196,5.333322763,1,0,0,3.333393196,5.333322763,1,0,0,1,5,165,146,1,,,,,,,,
,,,,,,,,,,,,,FF,,,,,,,,2.5162,,,,,,,,,,,,,,,,,,,,,,60f4e713c05794eb144760df,61036af6360a8e49a79c85a6,2021-07-29_21h59.42.208,Simcolourproject_2stim_asymm_v5,2020.2.10,Win32,60,61025ae37ef11b136ea224fe,,,,,,,,,1241,88.0000217,-47.33334547,1,0,0,response3disk,,5,24.66668648,-14.00001115,1,0,0,rectangle,24.66668648,-14.00001115,1,0,0,24.66668648,-14.00001115,1,0,0,1,6,166,80,1,,,,,,,,
,,,,,,,,,,,,,FF,,,,,,,,1.0833,,,,,,,,,,,,,,,,,,,,,,60f4e713c05794eb144760df,61036af6360a8e49a79c85a6,2021-07-29_21h59.42.208,Simcolourproject_2stim_asymm_v5,2020.2.10,Win32,60,61025ae37ef11b136ea224fe,,,,,,,,,2400,25.33339385,82.6666584,1,0,0,response1disk,,7,-4.666607042,11.33332294,1,0,0,rectangle,44.66668707,78.66665828,1,0,0,10.00001937,-6.666677594,1,0,0,1,7,167,2,1,,response1disk_3,TRUE,7,7,"[226,74,192,214,305,23,87,112,144,220,257,169,20,283,300,91,168,267,193,138]",1.1327,rectangle
,,,,,,,,,,,,,FF,,,,,,,,1.6331,,,,,,,,,,,,,,,,,,,,,,60f4e713c05794eb144760df,61036af6360a8e49a79c85a6,2021-07-29_21h59.42.208,Simcolourproject_2stim_asymm_v5,2020.2.10,Win32,60,61025ae37ef11b136ea224fe,,,,,,,,,2365,-87.99998355,-29.33334494,1,0,0,response5disk,,2,-7.333314478,-2.666677475,1,0,0,rectangle,-76.66660919,-32.66667837,1,0,0,6.000019252,-1.333344102,1,0,0,1,8,168,16,1,,response5disk_3,TRUE,2,2,"[226,74,192,214,305,23,87,112,144,220,257,169,20,283,300,91,168,267,193,138]",1.8163,rectangle
,,,,,,,,,,,,,FF,,,,,,,,1.4998,,,,,,,,,,,,,,,,,,,,,,60f4e713c05794eb144760df,61036af6360a8e49a79c85a6,2021-07-29_21h59.42.208,Simcolourproject_2stim_asymm_v5,2020.2.10,Win32,60,61025ae37ef11b136ea224fe,,,,,,,,,4115,-21.3333149,-72.66667956,1,0,0,response5disk,,3,12.00001943,-1.333344102,1,0,0,rectangle,12.00001943,-1.333344102,1,0,0,12.00001943,-1.333344102,1,0,0,1,9,169,79,1,,,,,,,,
,,,,,,,,,,,,,FF,,,,,,,,1.7166,,,,,,,,,,,,,,,,,,,,,,60f4e713c05794eb144760df,61036af6360a8e49a79c85a6,2021-07-29_21h59.42.208,Simcolourproject_2stim_asymm_v5,2020.2.10,Win32,60,61025ae37ef11b136ea224fe,,,,,,,,,3256,-26.6666077,-92.00001347,1,0,0,response5disk,,3,-3.333314359,-3.333344162,1,0,0,rectangle,-3.333314359,-3.333344162,1,0,0,-3.333314359,-3.333344162,1,0,0,1,10,170,49,1,,,,,,,,
,,,,,,,,,,,,,FF,,,,,,,,3.3163,,,,,,,,,,,,,,,,,,,,,,60f4e713c05794eb144760df,61036af6360a8e49a79c85a6,2021-07-29_21h59.42.208,Simcolourproject_2stim_asymm_v5,2020.2.10,Win32,60,61025ae37ef11b136ea224fe,,,,,,,,,2837,-97.99998385,-44.66667873,1,0,0,response5disk,,2,1.9735E-05,-4.666677535,1,0,0,rectangle,1.9735E-05,-4.666677535,1,0,0,1.9735E-05,-4.666677535,1,0,0,1,11,171,43,1,,,,,,,,
,,,,,,,,,,,,,FF,,,,,,,,1.6497,,,,,,,,,,,,,,,,,,,,,,60f4e713c05794eb144760df,61036af6360a8e49a79c85a6,2021-07-29_21h59.42.208,Simcolourproject_2stim_asymm_v5,2020.2.10,Win32,60,61025ae37ef11b136ea224fe,,,,,,,,,3341,52.00002062,-80.6666798,1,0,0,response3disk,,4,-0.666606923,-10.00001103,1,0,0,rectangle,-0.666606923,-10.00001103,1,0,0,-0.666606923,-10.00001103,1,0,0,1,12,172,18,1,,,,,,,,
,,,,,,,,,,,,,FF,,,,,,,,1.6165,,,,,,,,,,,,,,,,,,,,,,60f4e713c05794eb144760df,61036af6360a8e49a79c85a6,2021-07-29_21h59.42.208,Simcolourproject_2stim_asymm_v5,2020.2.10,Win32,60,61025ae37ef11b136ea224fe,,,,,,,,,699,73.33335459,24.66665667,1,0,0,response1disk,,6,16.00001955,-2.666677475,1,0,0,rectangle,16.00001955,-2.666677475,1,0,0,16.00001955,-2.666677475,1,0,0,1,13,173,46,1,,,,,,,,
,,,,,,,,,,,,,FF,,,,,,,,1.5666,,,,,,,,,,,,,,,,,,,,,,60f4e713c05794eb144760df,61036af6360a8e49a79c85a6,2021-07-29_21h59.42.208,Simcolourproject_2stim_asymm_v5,2020.2.10,Win32,60,61025ae37ef11b136ea224fe,,,,,,,,,734,37.33339421,67.33330427,1,0,0,response1disk,,7,9.333393375,-2.000010788,1,0,0,rectangle,9.333393375,-2.000010788,1,0,0,9.333393375,-2.000010788,1,0,0,1,14,174,110,1,,,,,,,,
,,,,,,,,,,,,,FF,,,,,,,,0.9332,,,,,,,,,,,,,,,,,,,,,,60f4e713c05794eb144760df,61036af6360a8e49a79c85a6,2021-07-29_21h59.42.208,Simcolourproject_2stim_asymm_v5,2020.2.10,Win32,60,61025ae37ef11b136ea224fe,,,,,,,,,3811,-39.99998212,90.66665864,1,0,0,response7disk,,0,-6.666607102,5.333322763,1,0,0,rectangle,-6.666607102,5.333322763,1,0,0,-6.666607102,5.333322763,1,0,0,1,15,175,60,1,,,,,,,,
,,,,,,,,,,,,,FF,,,,,,,,0.7333,,,,,,,,,,,,,,,,,,,,,,60f4e713c05794eb144760df,61036af6360a8e49a79c85a6,2021-07-29_21h59.42.208,Simcolourproject_2stim_asymm_v5,2020.2.10,Win32,60,61025ae37ef11b136ea224fe,,,,,,,,,3956,42.66668701,77.9999916,1,0,0,response1disk,,7,-2.666606983,-0.666677415,1,0,0,rectangle,-2.666606983,-0.666677415,1,0,0,-2.666606983,-0.666677415,1,0,0,1,16,176,141,1,,,,,,,,
,,,,,,,,,,,,,FF,,,,,,,,0.7967,,,,,,,,,,,,,,,,,,,,,,60f4e713c05794eb144760df,61036af6360a8e49a79c85a6,2021-07-29_21h59.42.208,Simcolourproject_2stim_asymm_v5,2020.2.10,Win32,60,61025ae37ef11b136ea224fe,,,,,,,,,2342,36.00002015,77.33330456,1,0,0,response1disk,,7,-16.6666074,5.333322763,1,0,0,rectangle,-16.6666074,5.333322763,1,0,0,-16.6666074,5.333322763,1,0,0,1,17,177,30,1,,,,,,,,
,,,,,,,,,,,,,FF,,,,,,,,1.0833,,,,,,,,,,,,,,,,,,,,,,60f4e713c05794eb144760df,61036af6360a8e49a79c85a6,2021-07-29_21h59.42.208,Simcolourproject_2stim_asymm_v5,2020.2.10,Win32,60,61025ae37ef11b136ea224fe,,,,,,,,,2339,34.66668677,79.99999166,1,0,0,response1disk,,7,-11.3333146,2.666656017,1,0,0,rectangle,-11.3333146,2.666656017,1,0,0,-11.3333146,2.666656017,1,0,0,1,18,178,151,1,,,,,,,,
,,,,,,,,,,,,,FF,,,,,,,,0.8502,,,,,,,,,,,,,,,,,,,,,,60f4e713c05794eb144760df,61036af6360a8e49a79c85a6,2021-07-29_21h59.42.208,Simcolourproject_2stim_asymm_v5,2020.2.10,Win32,60,61025ae37ef11b136ea224fe,,,,,,,,,3323,45.33335376,69.33330433,1,0,0,response1disk,,7,1.333393137,-2.666677475,1,0,0,rectangle,1.333393137,-2.666677475,1,0,0,1.333393137,-2.666677475,1,0,0,1,19,179,99,1,,,,,,,,
,,,,,,,,,,,,,FF,,,,,,,,0.7166,,,,,,,,,,,,,,,,,,,,,,60f4e713c05794eb144760df,61036af6360a8e49a79c85a6,2021-07-29_21h59.42.208,Simcolourproject_2stim_asymm_v5,2020.2.10,Win32,60,61025ae37ef11b136ea224fe,,,,,,,,,2137,38.66668689,70.66665804,1,0,0,response1disk,,7,-5.999981105,1.999989331,1,0,0,rectangle,-5.999981105,1.999989331,1,0,0,-5.999981105,1.999989331,1,0,0,1,20,180,21,1,,,,,,,,
,,,,,,,,,,,,,FF,,,,,,,,0.8499,,,,,,,,,,,,,,,,,,,,,,60f4e713c05794eb144760df,61036af6360a8e49a79c85a6,2021-07-29_21h59.42.208,Simcolourproject_2stim_asymm_v5,2020.2.10,Win32,60,61025ae37ef11b136ea224fe,,,,,,,,,2093,-24.66660764,82.6666584,1,0,0,response7disk,,0,-12.66660728,-0.666677415,1,0,0,rectangle,-12.66660728,-0.666677415,1,0,0,-12.66660728,-0.666677415,1,0,0,1,21,181,94,1,,,,,,,,
,,,,,,,,,,,,,FF,,,,,,,,0.9666,,,,,,,,,,,,,,,,,,,,,,60f4e713c05794eb144760df,61036af6360a8e49a79c85a6,2021-07-29_21h59.42.208,Simcolourproject_2stim_asymm_v5,2020.2.10,Win32,60,61025ae37ef11b136ea224fe,,,,,,,,,520,-70.66660901,-36.66667849,1,0,0,response5disk,,2,-6.666607102,6.666656137,1,0,0,rectangle,-6.666607102,6.666656137,1,0,0,-6.666607102,6.666656137,1,0,0,1,22,182,76,1,,,,,,,,
,,,,,,,,,,,,,FF,,,,,,,,1.4665,,,,,,,,,,,,,,,,,,,,,,60f4e713c05794eb144760df,61036af6360a8e49a79c85a6,2021-07-29_21h59.42.208,Simcolourproject_2stim_asymm_v5,2020.2.10,Win32,60,61025ae37ef11b136ea224fe,,,,,,,,,4346,-69.99998301,-40.00001192,1,0,0,response5disk,,2,-10.66660722,-1.333344102,1,0,0,rectangle,-10.66660722,-1.333344102,1,0,0,-10.66660722,-1.333344102,1,0,0,1,23,183,57,1,,,,,,,,
,,,,,,,,,,,,,FF,,,,,,,,1.2498,,,,,,,,,,,,,,,,,,,,,,60f4e713c05794eb144760df,61036af6360a8e49a79c85a6,2021-07-29_21h59.42.208,Simcolourproject_2stim_asymm_v5,2020.2.10,Win32,60,61025ae37ef11b136ea224fe,,,,,,,,,4294,-84.66660943,36.66665703,1,0,0,response7disk,,1,4.000019193,-2.000010788,1,0,0,rectangle,4.000019193,-2.000010788,1,0,0,4.000019193,-2.000010788,1,0,0,1,24,184,25,1,,,,,,,,
,,,,,,,,,,,,,FF,,,,,,,,0.6,,,,,,,,,,,,,,,,,,,,,,60f4e713c05794eb144760df,61036af6360a8e49a79c85a6,2021-07-29_21h59.42.208,Simcolourproject_2stim_asymm_v5,2020.2.10,Win32,60,61025ae37ef11b136ea224fe,,,,,,,,,936,39.33339427,95.99999213,1,0,0,response1disk,,7,4.000019193,-2.000010788,1,0,0,rectangle,4.000019193,-2.000010788,1,0,0,4.000019193,-2.000010788,1,0,0,1,25,185,11,1,,,,,,,,
,,,,,,,,,,,,,FF,,,,,,,,0.8665,,,,,,,,,,,,,,,,,,,,,,60f4e713c05794eb144760df,61036af6360a8e49a79c85a6,2021-07-29_21h59.42.208,Simcolourproject_2stim_asymm_v5,2020.2.10,Win32,60,61025ae37ef11b136ea224fe,,,,,,,,,1718,30.00001997,73.33330444,1,0,0,response1disk,,7,10.66668606,-3.333344162,1,0,0,rectangle,10.66668606,-3.333344162,1,0,0,10.66668606,-3.333344162,1,0,0,1,26,186,140,1,,,,,,,,
,,,,,,,,,,,,,FF,,,,,,,,1.4664,,,,,,,,,,,,,,,,,,,,,,60f4e713c05794eb144760df,61036af6360a8e49a79c85a6,2021-07-29_21h59.42.208,Simcolourproject_2stim_asymm_v5,2020.2.10,Win32,60,61025ae37ef11b136ea224fe,,,,,,,,,3923,44.00002038,-80.6666798,1,0,0,response3disk,,4,-11.99998128,7.99998951,1,0,0,rectangle,-11.99998128,7.99998951,1,0,0,-11.99998128,7.99998951,1,0,0,1,27,187,121,1,,,,,,,,
,,,,,,,,,,,,,FF,,,,,,,,1.4165,,,,,,,,,,,,,,,,,,,,,,60f4e713c05794eb144760df,61036af6360a8e49a79c85a6,2021-07-29_21h59.42.208,Simcolourproject_2stim_asymm_v5,2020.2.10,Win32,60,61025ae37ef11b136ea224fe,,,,,,,,,1913,44.00002038,77.33330456,1,0,0,response1disk,,7,20.00001967,1.333322644,1,0,0,rectangle,20.00001967,1.333322644,1,0,0,20.00001967,1.333322644,1,0,0,1,28,188,85,1,,,,,,,,
,,,,,,,,,,,,,FF,,,,,,,,1.0833,,,,,,,,,,,,,,,,,,,,,,60f4e713c05794eb144760df,61036af6360a8e49a79c85a6,2021-07-29_21h59.42.208,Simcolourproject_2stim_asymm_v5,2020.2.10,Win32,60,61025ae37ef11b136ea224fe,,,,,,,,,189,-46.66660829,-73.33334625,1,0,0,response5disk,,3,-26.6666077,-0.666677415,1,0,0,rectangle,-26.6666077,-0.666677415,1,0,0,-26.6666077,-0.666677415,1,0,0,1,29,189,105,1,,,,,,,,
,,,,,,,,,,,,,FF,,,,,,,,0.8665,,,,,,,,,,,,,,,,,,,,,,60f4e713c05794eb144760df,61036af6360a8e49a79c85a6,2021-07-29_21h59.42.208,Simcolourproject_2stim_asymm_v5,2020.2.10,Win32,60,61025ae37ef11b136ea224fe,,,,,,,,,2870,18.00001961,77.33330456,1,0,0,response1disk,,7,0.66668576,5.99998945,1,0,0,rectangle,0.66668576,5.99998945,1,0,0,0.66668576,5.99998945,1,0,0,1,30,190,52,1,,,,,,,,
,,,,,,,,,,,,,FF,,,,,,,,1.5001,,,,,,,,,,,,,,,,,,,,,,60f4e713c05794eb144760df,61036af6360a8e49a79c85a6,2021-07-29_21h59.42.208,Simcolourproject_2stim_asymm_v5,2020.2.10,Win32,60,61025ae37ef11b136ea224fe,,,,,,,,,2994,72.66668791,21.99998993,1,0,0,response1disk,,6,14.66668618,4.666656077,1,0,0,rectangle,86.00002164,37.33330337,1,0,0,30.00001997,-1.07288E-05,1,0,0,1,31,191,36,1,,response1disk_3,TRUE,6,6,"[226,74,192,214,305,23,87,112,144,220,257,169,20,283,300,91,168,267,193,138]",1.1997,rectangle
,,,,,,,,,,,,,FF,,,,,,,,3.2829,,,,,,,,,,,,,,,,,,,,,,60f4e713c05794eb144760df,61036af6360a8e49a79c85a6,2021-07-29_21h59.42.208,Simcolourproject_2stim_asymm_v5,2020.2.10,Win32,60,61025ae37ef11b136ea224fe,,,,,,,,,4268,-39.99998212,-76.00001299,1,0,0,response5disk,,3,2.000019133,4.666656077,1,0,0,rectangle,-49.33331573,90.66665864,1,0,0,-3.333314359,1.999989331,1,0,0,1,32,192,132,1,,response7disk_3,TRUE,0,0,"[226,74,192,214,305,23,87,112,144,220,257,169,20,283,300,91,168,267,193,138]",1.783,rectangle
,,,,,,,,,,,,,FF,,,,,,,,2.1834,,,,,,,,,,,,,,,,,,,,,,60f4e713c05794eb144760df,61036af6360a8e49a79c85a6,2021-07-29_21h59.42.208,Simcolourproject_2stim_asymm_v5,2020.2.10,Win32,60,61025ae37ef11b136ea224fe,,,,,,,,,1416,32.66668671,80.66665834,1,0,0,response1disk,,7,-3.999981046,5.333322763,1,0,0,rectangle,-3.999981046,5.333322763,1,0,0,-3.999981046,5.333322763,1,0,0,1,33,193,74,1,,,,,,,,
,,,,,,,,,,,,,FF,,,,,,,,1.2,,,,,,,,,,,,,,,,,,,,,,60f4e713c05794eb144760df,61036af6360a8e49a79c85a6,2021-07-29_21h59.42.208,Simcolourproject_2stim_asymm_v5,2020.2.10,Win32,60,61025ae37ef11b136ea224fe,,,,,,,,,1862,62.66668761,89.33330492,1,0,0,response1disk,,7,16.66668624,11.33332294,1,0,0,rectangle,16.66668624,11.33332294,1,0,0,16.66668624,11.33332294,1,0,0,1,34,194,157,1,,,,,,,,
,,,,,,,,,,,,,FF,,,,,,,,0.7338,,,,,,,,,,,,,,,,,,,,,,60f4e713c05794eb144760df,61036af6360a8e49a79c85a6,2021-07-29_21h59.42.208,Simcolourproject_2stim_asymm_v5,2020.2.10,Win32,60,61025ae37ef11b136ea224fe,,,,,,,,,3498,43.3333537,78.66665828,1,0,0,response1disk,,7,-3.999981046,-0.666677415,1,0,0,rectangle,-3.999981046,-0.666677415,1,0,0,-3.999981046,-0.666677415,1,0,0,1,35,195,122,1,,,,,,,,
,,,,,,,,,,,,,FF,,,,,,,,0.8035,,,,,,,,,,,,,,,,,,,,,,60f4e713c05794eb144760df,61036af6360a8e49a79c85a6,2021-07-29_21h59.42.208,Simcolourproject_2stim_asymm_v5,2020.2.10,Win32,60,61025ae37ef11b136ea224fe,,,,,,,,,4298,46.66668713,84.66665846,1,0,0,response1disk,,7,14.00001949,-7.333344281,1,0,0,rectangle,14.00001949,-7.333344281,1,0,0,14.00001949,-7.333344281,1,0,0,1,36,196,138,1,,,,,,,,
,,,,,,,,,,,,,FF,,,,,,,,0.7372,,,,,,,,,,,,,,,,,,,,,,60f4e713c05794eb144760df,61036af6360a8e49a79c85a6,2021-07-29_21h59.42.208,Simcolourproject_2stim_asymm_v5,2020.2.10,Win32,60,61025ae37ef11b136ea224fe,,,,,,,,,3085,37.33339421,70.66665804,1,0,0,response1disk,,7,12.00001943,0.666655958,1,0,0,rectangle,12.00001943,0.666655958,1,0,0,12.00001943,0.666655958,1,0,0,1,37,197,68,1,,,,,,,,
,,,,,,,,,,,,,FF,,,,,,,,1.9965,,,,,,,,,,,,,,,,,,,,,,60f4e713c05794eb144760df,61036af6360a8e49a79c85a6,2021-07-29_21h59.42.208,Simcolourproject_2stim_asymm_v5,2020.2.10,Win32,60,61025ae37ef11b136ea224fe,,,,,,,,,184,95.33335525,-47.33334547,1,0,0,response3disk,,5,16.66668624,-2.666677475,1,0,0,rectangle,16.66668624,-2.666677475,1,0,0,16.66668624,-2.666677475,1,0,0,1,38,198,47,1,,,,,,,,
,,,,,,,,,,,,,FF,,,,,,,,1.6702,,,,,,,,,,,,,,,,,,,,,,60f4e713c05794eb144760df,61036af6360a8e49a79c85a6,2021-07-29_21h59.42.208,Simcolourproject_2stim_asymm_v5,2020.2.10,Win32,60,61025ae37ef11b136ea224fe,,,,,,,,,2625,79.33335477,31.99999022,1,0,0,response1disk,,6,18.6666863,10.66665626,1,0,0,rectangle,18.6666863,10.66665626,1,0,0,18.6666863,10.66665626,1,0,0,1,39,199,78,1,,,,,,,,
,,,,,,,,,,,,,FF,,,,,,,,1.9167,,,,,,,,,,,,,,,,,,,,,,60f4e713c05794eb144760df,61036af6360a8e49a79c85a6,2021-07-29_21h59.42.208,Simcolourproject_2stim_asymm_v5,2020.2.10,Win32,60,61025ae37ef11b136ea224fe,,,,,,,,,528,-79.99998331,-47.33334547,1,0,0,response5disk,,2,9.333393375,2.666656017,1,0,0,rectangle,9.333393375,2.666656017,1,0,0,9.333393375,2.666656017,1,0,0,1,40,200,15,1,,,,,,,,
,,,,,,,,,,,,,FF,,,,,,,,0.6203,,,,,,,,,,,,,,,,,,,,,,60f4e713c05794eb144760df,61036af6360a8e49a79c85a6,2021-07-29_21h59.42.208,Simcolourproject_2stim_asymm_v5,2020.2.10,Win32,60,61025ae37ef11b136ea224fe,,,,,,,,,319,48.0000205,54.66665757,1,0,0,response1disk,,7,14.00001949,3.333322704,1,0,0,rectangle,14.00001949,3.333322704,1,0,0,14.00001949,3.333322704,1,0,0,1,41,201,45,1,,,,,,,,
,,,,,,,,,,,,,FF,,,,,,,,1.5339,,,,,,,,,,,,,,,,,,,,,,60f4e713c05794eb144760df,61036af6360a8e49a79c85a6,2021-07-29_21h59.42.208,Simcolourproject_2stim_asymm_v5,2020.2.10,Win32,60,61025ae37ef11b136ea224fe,,,,,,,,,2252,61.33335423,-73.33334625,1,0,0,response3disk,,4,20.00001967,-11.3333444,1,0,0,rectangle,20.00001967,-11.3333444,1,0,0,20.00001967,-11.3333444,1,0,0,1,42,202,3,1,,,,,,,,
,,,,,,,,,,,,,FF,,,,,,,,1.9179,,,,,,,,,,,,,,,,,,,,,,60f4e713c05794eb144760df,61036af6360a8e49a79c85a6,2021-07-29_21h59.42.208,Simcolourproject_2stim_asymm_v5,2020.2.10,Win32,60,61025ae37ef11b136ea224fe,,,,,,,,,1540,67.33335441,21.99998993,1,0,0,response1disk,,6,11.33339343,3.99998939,1,0,0,rectangle,11.33339343,3.99998939,1,0,0,11.33339343,3.99998939,1,0,0,1,43,203,51,1,,,,,,,,
,,,,,,,,,,,,,FF,,,,,,,,0.7203,,,,,,,,,,,,,,,,,,,,,,60f4e713c05794eb144760df,61036af6360a8e49a79c85a6,2021-07-29_21h59.42.208,Simcolourproject_2stim_asymm_v5,2020.2.10,Win32,60,61025ae37ef11b136ea224fe,,,,,,,,,4112,29.33339397,71.33330439,1,0,0,response1disk,,7,-9.333314538,-0.666677415,1,0,0,rectangle,-9.333314538,-0.666677415,1,0,0,-9.333314538,-0.666677415,1,0,0,1,44,204,100,1,,,,,,,,
,,,,,,,,,,,,,FF,,,,,,,,0.8331,,,,,,,,,,,,,,,,,,,,,,60f4e713c05794eb144760df,61036af6360a8e49a79c85a6,2021-07-29_21h59.42.208,Simcolourproject_2stim_asymm_v5,2020.2.10,Win32,60,61025ae37ef11b136ea224fe,,,,,,,,,495,34.00002009,75.3333045,1,0,0,response1disk,,7,3.333393196,0.666655958,1,0,0,rectangle,3.333393196,0.666655958,1,0,0,3.333393196,0.666655958,1,0,0,1,45,205,137,1,,,,,,,,
,,,,,,,,,,,,,FF,,,,,,,,2.5165,,,,,,,,,,,,,,,,,,,,,,60f4e713c05794eb144760df,61036af6360a8e49a79c85a6,2021-07-29_21h59.42.208,Simcolourproject_2stim_asymm_v5,2020.2.10,Win32,60,61025ae37ef11b136ea224fe,,,,,,,,,4329,-43.33331555,-84.66667992,1,0,0,response5disk,,3,-5.999981105,-1.333344102,1,0,0,rectangle,-5.999981105,-1.333344102,1,0,0,-5.999981105,-1.333344102,1,0,0,1,46,206,71,1,,,,,,,,
,,,,,,,,,,,,,FF,,,,,,,,0.9667,,,,,,,,,,,,,,,,,,,,,,60f4e713c05794eb144760df,61036af6360a8e49a79c85a6,2021-07-29_21h59.42.208,Simcolourproject_2stim_asymm_v5,2020.2.10,Win32,60,61025ae37ef11b136ea224fe,,,,,,,,,994,36.66668683,80.66665834,1,0,0,response1disk,,7,14.66668618,1.999989331,1,0,0,rectangle,14.66668618,1.999989331,1,0,0,14.66668618,1.999989331,1,0,0,1,47,207,104,1,,,,,,,,
,,,,,,,,,,,,,FF,,,,,,,,0.9504,,,,,,,,,,,,,,,,,,,,,,60f4e713c05794eb144760df,61036af6360a8e49a79c85a6,2021-07-29_21h59.42.208,Simcolourproject_2stim_asymm_v5,2020.2.10,Win32,60,61025ae37ef11b136ea224fe,,,,,,,,,598,36.00002015,77.33330456,1,0,0,response1disk,,7,8.666685998,-6.666677594,1,0,0,rectangle,8.666685998,-6.666677594,1,0,0,8.666685998,-6.666677594,1,0,0,1,48,208,9,1,,,,,,,,
,,,,,,,,,,,,,FF,,,,,,,,1.0003,,,,,,,,,,,,,,,,,,,,,,60f4e713c05794eb144760df,61036af6360a8e49a79c85a6,2021-07-29_21h59.42.208,Simcolourproject_2stim_asymm_v5,2020.2.10,Win32,60,61025ae37ef11b136ea224fe,,,,,,,,,1298,-84.66660943,23.99998999,1,0,0,response7disk,,1,-24.66660764,7.333322823,1,0,0,rectangle,-24.66660764,7.333322823,1,0,0,-24.66660764,7.333322823,1,0,0,1,49,209,34,1,,,,,,,,
,,,,,,,,,,,,,FF,,,,,,,,0.8504,,,,,,,,,,,,,,,,,,,,,,60f4e713c05794eb144760df,61036af6360a8e49a79c85a6,2021-07-29_21h59.42.208,Simcolourproject_2stim_asymm_v5,2020.2.10,Win32,60,61025ae37ef11b136ea224fe,,,,,,,,,2705,30.00001997,74.66665816,1,0,0,response1disk,,7,-1.3333143,1.999989331,1,0,0,rectangle,-1.3333143,1.999989331,1,0,0,-1.3333143,1.999989331,1,0,0,1,50,210,130,1,,,,,,,,
,,,,,,,,,,,,,FF,,,,,,,,1.8006,,,,,,,,,,,,,,,,,,,,,,60f4e713c05794eb144760df,61036af6360a8e49a79c85a6,2021-07-29_21h59.42.208,Simcolourproject_2stim_asymm_v5,2020.2.10,Win32,60,61025ae37ef11b136ea224fe,,,,,,,,,3095,67.33335441,30.66665685,1,0,0,response1disk,,6,11.33339343,-1.333344102,1,0,0,rectangle,11.33339343,-1.333344102,1,0,0,11.33339343,-1.333344102,1,0,0,1,51,211,154,1,,,,,,,,
,,,,,,,,,,,,,FF,,,,,,,,0.9167,,,,,,,,,,,,,,,,,,,,,,60f4e713c05794eb144760df,61036af6360a8e49a79c85a6,2021-07-29_21h59.42.208,Simcolourproject_2stim_asymm_v5,2020.2.10,Win32,60,61025ae37ef11b136ea224fe,,,,,,,,,1787,92.00002182,32.66665691,1,0,0,response1disk,,6,21.33339373,-6.000010908,1,0,0,rectangle,21.33339373,-6.000010908,1,0,0,21.33339373,-6.000010908,1,0,0,1,52,212,44,1,,,,,,,,
,,,,,,,,,,,,,FF,,,,,,,,0.7639,,,,,,,,,,,,,,,,,,,,,,60f4e713c05794eb144760df,61036af6360a8e49a79c85a6,2021-07-29_21h59.42.208,Simcolourproject_2stim_asymm_v5,2020.2.10,Win32,60,61025ae37ef11b136ea224fe,,,,,,,,,84,34.66668677,83.33330474,1,0,0,response1disk,,7,-2.666606983,7.99998951,1,0,0,rectangle,-80.66660931,27.33330307,1,0,0,-7.333314478,-0.666677415,1,0,0,1,53,213,63,1,,response7disk_3,TRUE,1,1,"[226,74,192,214,305,23,87,112,144,220,257,169,20,283,300,91,168,267,193,138]",1.5,rectangle
,,,,,,,,,,,,,FF,,,,,,,,1.6365,,,,,,,,,,,,,,,,,,,,,,60f4e713c05794eb144760df,61036af6360a8e49a79c85a6,2021-07-29_21h59.42.208,Simcolourproject_2stim_asymm_v5,2020.2.10,Win32,60,61025ae37ef11b136ea224fe,,,,,,,,,2686,85.33335495,-40.00001192,1,0,0,response3disk,,5,-13.33331466,-4.000010848,1,0,0,rectangle,-13.33331466,-4.000010848,1,0,0,-13.33331466,-4.000010848,1,0,0,1,54,214,143,1,,,,,,,,
,,,,,,,,,,,,,FF,,,,,,,,2.7034,,,,,,,,,,,,,,,,,,,,,,60f4e713c05794eb144760df,61036af6360a8e49a79c85a6,2021-07-29_21h59.42.208,Simcolourproject_2stim_asymm_v5,2020.2.10,Win32,60,61025ae37ef11b136ea224fe,,,,,,,,,538,100.0000221,41.33330349,1,0,0,response1disk,,6,-0.666606923,8.666656196,1,0,0,rectangle,-0.666606923,8.666656196,1,0,0,-0.666606923,8.666656196,1,0,0,1,55,215,62,1,,,,,,,,
,,,,,,,,,,,,,FF,,,,,,,,0.5668,,,,,,,,,,,,,,,,,,,,,,60f4e713c05794eb144760df,61036af6360a8e49a79c85a6,2021-07-29_21h59.42.208,Simcolourproject_2stim_asymm_v5,2020.2.10,Win32,60,61025ae37ef11b136ea224fe,,,,,,,,,3411,35.33339415,56.66665763,1,0,0,response1disk,,7,-3.999981046,5.333322763,1,0,0,rectangle,-3.999981046,5.333322763,1,0,0,-3.999981046,5.333322763,1,0,0,1,56,216,12,1,,,,,,,,
,,,,,,,,,,,,,FF,,,,,,,,3.4327,,,,,,,,,,,,,,,,,,,,,,60f4e713c05794eb144760df,61036af6360a8e49a79c85a6,2021-07-29_21h59.42.208,Simcolourproject_2stim_asymm_v5,2020.2.10,Win32,60,61025ae37ef11b136ea224fe,,,,,,,,,2083,100.6666887,36.66665703,1,0,0,response1disk,,6,4.000019193,4.666656077,1,0,0,rectangle,4.000019193,4.666656077,1,0,0,4.000019193,4.666656077,1,0,0,1,57,217,48,1,,,,,,,,
,,,,,,,,,,,,,FF,,,,,,,,0.6203,,,,,,,,,,,,,,,,,,,,,,60f4e713c05794eb144760df,61036af6360a8e49a79c85a6,2021-07-29_21h59.42.208,Simcolourproject_2stim_asymm_v5,2020.2.10,Win32,60,61025ae37ef11b136ea224fe,,,,,,,,,2012,32.66668671,95.99999213,1,0,0,response1disk,,7,20.66668636,9.999989569,1,0,0,rectangle,20.66668636,9.999989569,1,0,0,20.66668636,9.999989569,1,0,0,1,58,218,39,1,,,,,,,,
,,,,,,,,,,,,,FF,,,,,,,,1.7977,,,,,,,,,,,,,,,,,,,,,,60f4e713c05794eb144760df,61036af6360a8e49a79c85a6,2021-07-29_21h59.42.208,Simcolourproject_2stim_asymm_v5,2020.2.10,Win32,60,61025ae37ef11b136ea224fe,,,,,,,,,3376,42.00002033,-88.00001335,1,0,0,response3disk,,4,-15.33331472,8.666656196,1,0,0,rectangle,-33.99998194,83.33330474,1,0,0,-0.666606923,-0.666677415,1,0,0,1,59,219,147,1,,response7disk_3,TRUE,0,0,"[226,74,192,214,305,23,87,112,144,220,257,169,20,283,300,91,168,267,193,138]",1.5478,rectangle
,,,,,,,,,,,,,FF,,,,,,,,1.4011,,,,,,,,,,,,,,,,,,,,,,60f4e713c05794eb144760df,61036af6360a8e49a79c85a6,2021-07-29_21h59.42.208,Simcolourproject_2stim_asymm_v5,2020.2.10,Win32,60,61025ae37ef11b136ea224fe,,,,,,,,,3344,-35.999982,-80.00001311,1,0,0,response5disk,,3,-2.666606983,8.666656196,1,0,0,rectangle,-2.666606983,8.666656196,1,0,0,-2.666606983,8.666656196,1,0,0,1,60,220,86,1,,,,,,,,
,,,,,,,,,,,,,FF,,,,,,,,0.7199,,,,,,,,,,,,,,,,,,,,,,60f4e713c05794eb144760df,61036af6360a8e49a79c85a6,2021-07-29_21h59.42.208,Simcolourproject_2stim_asymm_v5,2020.2.10,Win32,60,61025ae37ef11b136ea224fe,,,,,,,,,2133,36.00002015,83.33330474,1,0,0,response1disk,,7,8.666685998,5.333322763,1,0,0,rectangle,8.666685998,5.333322763,1,0,0,8.666685998,5.333322763,1,0,0,1,61,221,136,1,,,,,,,,
,,,,,,,,,,,,,FF,,,,,,,,0.8867,,,,,,,,,,,,,,,,,,,,,,60f4e713c05794eb144760df,61036af6360a8e49a79c85a6,2021-07-29_21h59.42.208,Simcolourproject_2stim_asymm_v5,2020.2.10,Win32,60,61025ae37ef11b136ea224fe,,,,,,,,,2530,32.66668671,79.99999166,1,0,0,response1disk,,7,11.33339343,3.333322704,1,0,0,rectangle,11.33339343,3.333322704,1,0,0,11.33339343,3.333322704,1,0,0,1,62,222,90,1,,,,,,,,
,,,,,,,,,,,,,FF,,,,,,,,1.5501,,,,,,,,,,,,,,,,,,,,,,60f4e713c05794eb144760df,61036af6360a8e49a79c85a6,2021-07-29_21h59.42.208,Simcolourproject_2stim_asymm_v5,2020.2.10,Win32,60,61025ae37ef11b136ea224fe,,,,,,,,,2091,92.00002182,-50.66667891,1,0,0,response3disk,,5,-11.3333146,-6.666677594,1,0,0,rectangle,-11.3333146,-6.666677594,1,0,0,-11.3333146,-6.666677594,1,0,0,1,63,223,33,1,,,,,,,,
,,,,,,,,,,,,,FF,,,,,,,,1.9666,,,,,,,,,,,,,,,,,,,,,,60f4e713c05794eb144760df,61036af6360a8e49a79c85a6,2021-07-29_21h59.42.208,Simcolourproject_2stim_asymm_v5,2020.2.10,Win32,60,61025ae37ef11b136ea224fe,,,,,,,,,2898,-75.99998319,-28.00001156,1,0,0,response5disk,,2,-21.3333149,-8.000010967,1,0,0,rectangle,-21.3333149,-8.000010967,1,0,0,-21.3333149,-8.000010967,1,0,0,1,64,224,84,1,,,,,,,,
,,,,,,,,,,,,,FF,,,,,,,,0.8203,,,,,,,,,,,,,,,,,,,,,,60f4e713c05794eb144760df,61036af6360a8e49a79c85a6,2021-07-29_21h59.42.208,Simcolourproject_2stim_asymm_v5,2020.2.10,Win32,60,61025ae37ef11b136ea224fe,,,,,,,,,3296,-95.99998379,40.66665715,1,0,0,response7disk,,1,-5.333314419,3.99998939,1,0,0,rectangle,-39.99998212,99.33330522,1,0,0,9.333393375,4.666656077,1,0,0,1,65,225,55,1,,response7disk_3,TRUE,0,0,"[226,74,192,214,305,23,87,112,144,220,257,169,20,283,300,91,168,267,193,138]",1.4196,rectangle
,,,,,,,,,,,,,FF,,,,,,,,0.7194,,,,,,,,,,,,,,,,,,,,,,60f4e713c05794eb144760df,61036af6360a8e49a79c85a6,2021-07-29_21h59.42.208,Simcolourproject_2stim_asymm_v5,2020.2.10,Win32,60,61025ae37ef11b136ea224fe,,,,,,,,,4291,43.3333537,81.99999171,1,0,0,response1disk,,7,4.666685879,1.999989331,1,0,0,rectangle,4.666685879,1.999989331,1,0,0,4.666685879,1.999989331,1,0,0,1,66,226,77,1,,,,,,,,
,,,,,,,,,,,,,FF,,,,,,,,0.7346,,,,,,,,,,,,,,,,,,,,,,60f4e713c05794eb144760df,61036af6360a8e49a79c85a6,2021-07-29_21h59.42.208,Simcolourproject_2stim_asymm_v5,2020.2.10,Win32,60,61025ae37ef11b136ea224fe,,,,,,,,,3760,36.66668683,86.66665852,1,0,0,response1disk,,7,10.66668606,8.666656196,1,0,0,rectangle,10.66668606,8.666656196,1,0,0,10.66668606,8.666656196,1,0,0,1,67,227,113,1,,,,,,,,
,,,,,,,,,,,,,FF,,,,,,,,1.1499,,,,,,,,,,,,,,,,,,,,,,60f4e713c05794eb144760df,61036af6360a8e49a79c85a6,2021-07-29_21h59.42.208,Simcolourproject_2stim_asymm_v5,2020.2.10,Win32,60,61025ae37ef11b136ea224fe,,,,,,,,,1961,-86.66660949,23.99998999,1,0,0,response7disk,,1,-5.333314419,-4.000010848,1,0,0,rectangle,-5.333314419,-4.000010848,1,0,0,-5.333314419,-4.000010848,1,0,0,1,68,228,102,1,,,,,,,,
,,,,,,,,,,,,,FF,,,,,,,,0.8305,,,,,,,,,,,,,,,,,,,,,,60f4e713c05794eb144760df,61036af6360a8e49a79c85a6,2021-07-29_21h59.42.208,Simcolourproject_2stim_asymm_v5,2020.2.10,Win32,60,61025ae37ef11b136ea224fe,,,,,,,,,1957,-71.33331639,36.66665703,1,0,0,response7disk,,1,7.333393315,7.333322823,1,0,0,rectangle,7.333393315,7.333322823,1,0,0,7.333393315,7.333322823,1,0,0,1,69,229,103,1,,,,,,,,
,,,,,,,,,,,,,FF,,,,,,,,1.3638,,,,,,,,,,,,,,,,,,,,,,60f4e713c05794eb144760df,61036af6360a8e49a79c85a6,2021-07-29_21h59.42.208,Simcolourproject_2stim_asymm_v5,2020.2.10,Win32,60,61025ae37ef11b136ea224fe,,,,,,,,,855,42.66668701,75.99999154,1,0,0,response1disk,,7,3.333393196,0.666655958,1,0,0,rectangle,3.333393196,0.666655958,1,0,0,3.333393196,0.666655958,1,0,0,1,70,230,23,1,,,,,,,,
,,,,,,,,,,,,,FF,,,,,,,,0.8673,,,,,,,,,,,,,,,,,,,,,,60f4e713c05794eb144760df,61036af6360a8e49a79c85a6,2021-07-29_21h59.42.208,Simcolourproject_2stim_asymm_v5,2020.2.10,Win32,60,61025ae37ef11b136ea224fe,,,,,,,,,2781,-73.33331645,29.33330313,1,0,0,response7disk,,1,11.33339343,-7.333344281,1,0,0,rectangle,11.33339343,-7.333344281,1,0,0,11.33339343,-7.333344281,1,0,0,1,71,231,40,1,,,,,,,,
,,,,,,,,,,,,,FF,,,,,,,,1.3834,,,,,,,,,,,,,,,,,,,,,,60f4e713c05794eb144760df,61036af6360a8e49a79c85a6,2021-07-29_21h59.42.208,Simcolourproject_2stim_asymm_v5,2020.2.10,Win32,60,61025ae37ef11b136ea224fe,,,,,,,,,752,18.00001961,77.33330456,1,0,0,response1disk,,7,-0.666606923,13.99998969,1,0,0,rectangle,-0.666606923,13.99998969,1,0,0,-0.666606923,13.99998969,1,0,0,1,72,232,1,1,,,,,,,,
,,,,,,,,,,,,,FF,,,,,,,,3.6169,,,,,,,,,,,,,,,,,,,,,,60f4e713c05794eb144760df,61036af6360a8e49a79c85a6,2021-07-29_21h59.42.208,Simcolourproject_2stim_asymm_v5,2020.2.10,Win32,60,61025ae37ef11b136ea224fe,,,,,,,,,3781,-83.33331674,25.99999005,1,0,0,response7disk,,1,2.000019133,0.666655958,1,0,0,rectangle,2.000019133,0.666655958,1,0,0,2.000019133,0.666655958,1,0,0,1,73,233,13,1,,,,,,,,
,,,,,,,,,,,,,FF,,,,,,,,0.6199,,,,,,,,,,,,,,,,,,,,,,60f4e713c05794eb144760df,61036af6360a8e49a79c85a6,2021-07-29_21h59.42.208,Simcolourproject_2stim_asymm_v5,2020.2.10,Win32,60,61025ae37ef11b136ea224fe,,,,,,,,,3891,57.33335412,109.9999925,1,0,0,response1disk,,7,7.333393315,-5.333344221,1,0,0,rectangle,7.333393315,-5.333344221,1,0,0,7.333393315,-5.333344221,1,0,0,1,74,234,93,1,,,,,,,,
,,,,,,,,,,,,,FF,,,,,,,,1.5628,,,,,,,,,,,,,,,,,,,,,,60f4e713c05794eb144760df,61036af6360a8e49a79c85a6,2021-07-29_21h59.42.208,Simcolourproject_2stim_asymm_v5,2020.2.10,Win32,60,61025ae37ef11b136ea224fe,,,,,,,,,3753,90.00002176,-24.00001144,1,0,0,response3disk,,5,0.66668576,-12.00001109,1,0,0,rectangle,0.66668576,-12.00001109,1,0,0,0.66668576,-12.00001109,1,0,0,1,75,235,128,1,,,,,,,,
,,,,,,,,,,,,,FF,,,,,,,,1.8004,,,,,,,,,,,,,,,,,,,,,,60f4e713c05794eb144760df,61036af6360a8e49a79c85a6,2021-07-29_21h59.42.208,Simcolourproject_2stim_asymm_v5,2020.2.10,Win32,60,61025ae37ef11b136ea224fe,,,,,,,,,1691,-35.999982,74.66665816,1,0,0,response7disk,,0,7.333393315,7.99998951,1,0,0,rectangle,7.333393315,7.99998951,1,0,0,7.333393315,7.99998951,1,0,0,1,76,236,69,1,,,,,,,,
,,,,,,,,,,,,,FF,,,,,,,,1.0003,,,,,,,,,,,,,,,,,,,,,,60f4e713c05794eb144760df,61036af6360a8e49a79c85a6,2021-07-29_21h59.42.208,Simcolourproject_2stim_asymm_v5,2020.2.10,Win32,60,61025ae37ef11b136ea224fe,,,,,,,,,3831,78.66668808,35.99999034,1,0,0,response1disk,,6,18.00001961,0.666655958,1,0,0,rectangle,18.00001961,0.666655958,1,0,0,18.00001961,0.666655958,1,0,0,1,77,237,123,1,,,,,,,,
,,,,,,,,,,,,,FF,,,,,,,,0.6043,,,,,,,,,,,,,,,,,,,,,,60f4e713c05794eb144760df,61036af6360a8e49a79c85a6,2021-07-29_21h59.42.208,Simcolourproject_2stim_asymm_v5,2020.2.10,Win32,60,61025ae37ef11b136ea224fe,,,,,,,,,765,28.00001991,69.33330433,1,0,0,response1disk,,7,16.66668624,7.333322823,1,0,0,rectangle,16.66668624,7.333322823,1,0,0,16.66668624,7.333322823,1,0,0,1,78,238,14,1,,,,,,,,
,,,,,,,,,,,,,FF,,,,,,,,1.3205,,,,,,,,,,,,,,,,,,,,,,60f4e713c05794eb144760df,61036af6360a8e49a79c85a6,2021-07-29_21h59.42.208,Simcolourproject_2stim_asymm_v5,2020.2.10,Win32,60,61025ae37ef11b136ea224fe,,,,,,,,,1628,42.66668701,94.66665876,1,0,0,response1disk,,7,14.66668618,9.999989569,1,0,0,rectangle,14.66668618,9.999989569,1,0,0,14.66668618,9.999989569,1,0,0,1,79,239,112,1,,,,,,,,
,,,,,,,,,,,,,FF,,,,,,,,1.2832,,,,,,,,,,,,,,,,,,,,,,60f4e713c05794eb144760df,61036af6360a8e49a79c85a6,2021-07-29_21h59.42.208,Simcolourproject_2stim_asymm_v5,2020.2.10,Win32,60,61025ae37ef11b136ea224fe,,,,,,,,,1293,-75.99998319,-59.33334583,1,0,0,response5disk,,2,-7.999981165,4.666656077,1,0,0,rectangle,-7.999981165,4.666656077,1,0,0,-7.999981165,4.666656077,1,0,0,1,80,240,24,1,,,,,,,,
,,,,,,,,,,,,,FF,,,,,,,,0.8535,,,,,,,,,,,,,,,,,,,,,,60f4e713c05794eb144760df,61036af6360a8e49a79c85a6,2021-07-29_21h59.42.208,Simcolourproject_2stim_asymm_v5,2020.2.10,Win32,60,61025ae37ef11b136ea224fe,,,,,,,,,1987,50.00002056,85.99999183,1,0,0,response1disk,,7,18.00001961,9.999989569,1,0,0,rectangle,18.00001961,9.999989569,1,0,0,18.00001961,9.999989569,1,0,0,1,81,241,101,1,,,,,,,,
,,,,,,,,,,,,,FF,,,,,,,,0.6836,,,,,,,,,,,,,,,,,,,,,,60f4e713c05794eb144760df,61036af6360a8e49a79c85a6,2021-07-29_21h59.42.208,Simcolourproject_2stim_asymm_v5,2020.2.10,Win32,60,61025ae37ef11b136ea224fe,,,,,,,,,2439,38.00002021,69.99999136,1,0,0,response1disk,,7,4.666685879,5.333322763,1,0,0,rectangle,4.666685879,5.333322763,1,0,0,4.666685879,5.333322763,1,0,0,1,82,242,53,1,,,,,,,,
,,,,,,,,,,,,,FF,,,,,,,,1.0835,,,,,,,,,,,,,,,,,,,,,,60f4e713c05794eb144760df,61036af6360a8e49a79c85a6,2021-07-29_21h59.42.208,Simcolourproject_2stim_asymm_v5,2020.2.10,Win32,60,61025ae37ef11b136ea224fe,,,,,,,,,412,44.00002038,80.66665834,1,0,0,response1disk,,7,16.66668624,-2.666677475,1,0,0,rectangle,16.66668624,-2.666677475,1,0,0,16.66668624,-2.666677475,1,0,0,1,83,243,124,1,,,,,,,,
