key_resp.keys,key_resp.rt,key_resp_14.keys,key_resp_14.rt,key_resp_15.keys,key_resp_15.rt,key_resp_17.keys,key_resp_17.rt,key_resp_9.keys,key_resp_9.rt,key_resp_10.keys,key_resp_10.rt,practice_comparison,Ecc,mouse_5.x,mouse_5.y,mouse_5.leftButton,mouse_5.midButton,mouse_5.rightButton,mouse_5.clicked_name,pracsimilarity,response_time,mouse_10.x,mouse_10.y,mouse_10.leftButton,mouse_10.midButton,mouse_10.rightButton,mouse_10.clicked_name,mouse_7.x,mouse_7.y,mouse_7.leftButton,mouse_7.midButton,mouse_7.rightButton,mouse_6.x,mouse_6.y,mouse_6.leftButton,mouse_6.midButton,mouse_6.rightButton,duringprac.thisRepN,duringprac.thisTrialN,duringprac.thisN,duringprac.thisIndex,duringprac.ran,participant,session,date,expName,psychopyVersion,OS,frameRate,study_id,mouse_7.clicked_name,catchpracsimilarity,catch_response_time,catchnumberprac,catchtrialorderprac,mouse_6.clicked_name,key_resp_22.keys,key_resp_22.rt,realcomparison,mouse.x,mouse.y,mouse.leftButton,mouse.midButton,mouse.rightButton,mouse.clicked_name,Colour2,similarity,mouse_2.x,mouse_2.y,mouse_2.leftButton,mouse_2.midButton,mouse_2.rightButton,mouse_2.clicked_name,mouse_3.x,mouse_3.y,mouse_3.leftButton,mouse_3.midButton,mouse_3.rightButton,mouse_11.x,mouse_11.y,mouse_11.leftButton,mouse_11.midButton,mouse_11.rightButton,trials_2.thisRepN,trials_2.thisTrialN,trials_2.thisN,trials_2.thisIndex,trials_2.ran,Colour1,mouse_3.clicked_name,catchornah,catchsimilarity,catchnumber,catchtrialorder,catchRT,mouse_11.clicked_name
space,2.268,space,22.779,space,21.128,space,9.587,space,20.029,space,7.115,93,PF,55,-133,1,0,0,response3disk_5,4,9.617,-16,-11,1,0,0,rectangle_8,-16,-11,1,0,0,-16,-11,1,0,0,0,0,0,1,1,60f660d407beb2fa01b360ef,6103770326b3a5b98dfa1790,2021-07-29_20h58.55.993,Simcolourproject_2stim_asymm_v5,2020.2.10,Win32,60,61025ae37ef11b136ea224fe,,,,,,,,,,,,,,,,,,,,,,,,,,,,,,,,,,,,,,,,,,,,,,
,,,,,,,,,,,,43,PF,122,61,1,0,0,response1disk_5,6,2.183,-14,-20,1,0,0,rectangle_8,48,-122,1,0,0,-11,3,1,0,0,0,1,1,6,1,60f660d407beb2fa01b360ef,6103770326b3a5b98dfa1790,2021-07-29_20h58.55.993,Simcolourproject_2stim_asymm_v5,2020.2.10,Win32,60,61025ae37ef11b136ea224fe,response3disk_7,4,4.951,4,"[2,5]",rectangle_4,,,,,,,,,,,,,,,,,,,,,,,,,,,,,,,,,,,,,,,,
,,,,,,,,,,,,112,FF,-67,-155,1,0,0,response5disk_5,3,3.233,17,4,1,0,0,rectangle_8,17,4,1,0,0,17,4,1,0,0,0,2,2,0,1,60f660d407beb2fa01b360ef,6103770326b3a5b98dfa1790,2021-07-29_20h58.55.993,Simcolourproject_2stim_asymm_v5,2020.2.10,Win32,60,61025ae37ef11b136ea224fe,,,,,,,,,,,,,,,,,,,,,,,,,,,,,,,,,,,,,,,,,,,,,,
,,,,,,,,,,,,76,PF,-42,-77,1,0,0,response5disk_5,3,1.985,0,-4,1,0,0,rectangle_8,0,-4,1,0,0,0,-4,1,0,0,0,3,3,4,1,60f660d407beb2fa01b360ef,6103770326b3a5b98dfa1790,2021-07-29_20h58.55.993,Simcolourproject_2stim_asymm_v5,2020.2.10,Win32,60,61025ae37ef11b136ea224fe,,,,,,,,,,,,,,,,,,,,,,,,,,,,,,,,,,,,,,,,,,,,,,
,,,,,,,,,,,,109,FF,-130,36,1,0,0,response7disk_5,1,2.501,20,-5,1,0,0,rectangle_8,44,-127,1,0,0,-11,-5,1,0,0,0,4,4,3,1,60f660d407beb2fa01b360ef,6103770326b3a5b98dfa1790,2021-07-29_20h58.55.993,Simcolourproject_2stim_asymm_v5,2020.2.10,Win32,60,61025ae37ef11b136ea224fe,response3disk_7,4,3.517,4,"[2,5]",rectangle_4,,,,,,,,,,,,,,,,,,,,,,,,,,,,,,,,,,,,,,,,
,,,,,,,,,,,,137,PF,-121,-52,1,0,0,response5disk_5,2,3.25,14,10,1,0,0,rectangle_8,14,10,1,0,0,14,10,1,0,0,0,5,5,2,1,60f660d407beb2fa01b360ef,6103770326b3a5b98dfa1790,2021-07-29_20h58.55.993,Simcolourproject_2stim_asymm_v5,2020.2.10,Win32,60,61025ae37ef11b136ea224fe,,,,,,,,,,,,,,,,,,,,,,,,,,,,,,,,,,,,,,,,,,,,,,
,,,,,,,,,,,,122,FF,122,54,1,0,0,response1disk_5,6,5.133,-8,-7,1,0,0,rectangle_8,-8,-7,1,0,0,-8,-7,1,0,0,0,6,6,5,1,60f660d407beb2fa01b360ef,6103770326b3a5b98dfa1790,2021-07-29_20h58.55.993,Simcolourproject_2stim_asymm_v5,2020.2.10,Win32,60,61025ae37ef11b136ea224fe,,,,,,,,,,,,,,,,,,,,,,,,,,,,,,,,,,,,,,,,,,,,,,
,,,,,,,,,,,,,FF,,,,,,,,3.599,,,,,,,,,,,,,,,,,,,,,,60f660d407beb2fa01b360ef,6103770326b3a5b98dfa1790,2021-07-29_20h58.55.993,Simcolourproject_2stim_asymm_v5,2020.2.10,Win32,60,61025ae37ef11b136ea224fe,,,,,,,space,5.244,3328,-139,53,1,0,0,response7disk,,1,3,-13,1,0,0,rectangle,3,-13,1,0,0,3,-13,1,0,0,0,0,0,146,1,,,,,,,,
,,,,,,,,,,,,,FF,,,,,,,,2.233,,,,,,,,,,,,,,,,,,,,,,60f660d407beb2fa01b360ef,6103770326b3a5b98dfa1790,2021-07-29_20h58.55.993,Simcolourproject_2stim_asymm_v5,2020.2.10,Win32,60,61025ae37ef11b136ea224fe,,,,,,,,,1327,-99,-73,1,0,0,response5disk,,2,19,-3,1,0,0,rectangle,19,-3,1,0,0,19,-3,1,0,0,0,1,1,62,1,,,,,,,,
,,,,,,,,,,,,,FF,,,,,,,,2,,,,,,,,,,,,,,,,,,,,,,60f660d407beb2fa01b360ef,6103770326b3a5b98dfa1790,2021-07-29_20h58.55.993,Simcolourproject_2stim_asymm_v5,2020.2.10,Win32,60,61025ae37ef11b136ea224fe,,,,,,,,,3027,142,51,1,0,0,response1disk,,6,-27,-9,1,0,0,rectangle,-27,-9,1,0,0,-27,-9,1,0,0,0,2,2,73,1,,,,,,,,
,,,,,,,,,,,,,FF,,,,,,,,2.616,,,,,,,,,,,,,,,,,,,,,,60f660d407beb2fa01b360ef,6103770326b3a5b98dfa1790,2021-07-29_20h58.55.993,Simcolourproject_2stim_asymm_v5,2020.2.10,Win32,60,61025ae37ef11b136ea224fe,,,,,,,,,2308,33,-147,1,0,0,response3disk,,4,-1,16,1,0,0,rectangle,-1,16,1,0,0,-1,16,1,0,0,0,3,3,25,1,,,,,,,,
,,,,,,,,,,,,,FF,,,,,,,,2.082,,,,,,,,,,,,,,,,,,,,,,60f660d407beb2fa01b360ef,6103770326b3a5b98dfa1790,2021-07-29_20h58.55.993,Simcolourproject_2stim_asymm_v5,2020.2.10,Win32,60,61025ae37ef11b136ea224fe,,,,,,,,,609,-64,-132,1,0,0,response5disk,,3,19,9,1,0,0,rectangle,19,9,1,0,0,19,9,1,0,0,0,4,4,48,1,,,,,,,,
,,,,,,,,,,,,,FF,,,,,,,,2.133,,,,,,,,,,,,,,,,,,,,,,60f660d407beb2fa01b360ef,6103770326b3a5b98dfa1790,2021-07-29_20h58.55.993,Simcolourproject_2stim_asymm_v5,2020.2.10,Win32,60,61025ae37ef11b136ea224fe,,,,,,,,,2250,-55,-113,1,0,0,response5disk,,3,7,-2,1,0,0,rectangle,7,-2,1,0,0,7,-2,1,0,0,0,5,5,4,1,,,,,,,,
,,,,,,,,,,,,,FF,,,,,,,,5.115,,,,,,,,,,,,,,,,,,,,,,60f660d407beb2fa01b360ef,6103770326b3a5b98dfa1790,2021-07-29_20h58.55.993,Simcolourproject_2stim_asymm_v5,2020.2.10,Win32,60,61025ae37ef11b136ea224fe,,,,,,,,,1777,-33,-99,1,0,0,response5disk,,3,11,-7,1,0,0,rectangle,11,-7,1,0,0,11,-7,1,0,0,0,6,6,113,1,,,,,,,,
,,,,,,,,,,,,,FF,,,,,,,,1.851,,,,,,,,,,,,,,,,,,,,,,60f660d407beb2fa01b360ef,6103770326b3a5b98dfa1790,2021-07-29_20h58.55.993,Simcolourproject_2stim_asymm_v5,2020.2.10,Win32,60,61025ae37ef11b136ea224fe,,,,,,,,,2604,-105,-48,1,0,0,response5disk,,2,13,14,1,0,0,rectangle,13,14,1,0,0,13,14,1,0,0,0,7,7,55,1,,,,,,,,
,,,,,,,,,,,,,FF,,,,,,,,4.75,,,,,,,,,,,,,,,,,,,,,,60f660d407beb2fa01b360ef,6103770326b3a5b98dfa1790,2021-07-29_20h58.55.993,Simcolourproject_2stim_asymm_v5,2020.2.10,Win32,60,61025ae37ef11b136ea224fe,,,,,,,,,3823,141,54,1,0,0,response1disk,,6,5,-8,1,0,0,rectangle,5,-8,1,0,0,5,-8,1,0,0,0,8,8,35,1,,,,,,,,
,,,,,,,,,,,,,FF,,,,,,,,0.883,,,,,,,,,,,,,,,,,,,,,,60f660d407beb2fa01b360ef,6103770326b3a5b98dfa1790,2021-07-29_20h58.55.993,Simcolourproject_2stim_asymm_v5,2020.2.10,Win32,60,61025ae37ef11b136ea224fe,,,,,,,,,4289,69,103,1,0,0,response1disk,,7,-10,0,1,0,0,rectangle,-10,0,1,0,0,-10,0,1,0,0,0,9,9,45,1,,,,,,,,
,,,,,,,,,,,,,FF,,,,,,,,4.067,,,,,,,,,,,,,,,,,,,,,,60f660d407beb2fa01b360ef,6103770326b3a5b98dfa1790,2021-07-29_20h58.55.993,Simcolourproject_2stim_asymm_v5,2020.2.10,Win32,60,61025ae37ef11b136ea224fe,,,,,,,,,641,-45,-142,1,0,0,response5disk,,3,5,12,1,0,0,rectangle,5,12,1,0,0,5,12,1,0,0,0,10,10,58,1,,,,,,,,
,,,,,,,,,,,,,FF,,,,,,,,1.75,,,,,,,,,,,,,,,,,,,,,,60f660d407beb2fa01b360ef,6103770326b3a5b98dfa1790,2021-07-29_20h58.55.993,Simcolourproject_2stim_asymm_v5,2020.2.10,Win32,60,61025ae37ef11b136ea224fe,,,,,,,,,16,134,-109,1,0,0,response3disk,,5,2,-7,1,0,0,rectangle,2,-7,1,0,0,2,-7,1,0,0,0,11,11,107,1,,,,,,,,
,,,,,,,,,,,,,FF,,,,,,,,1.468,,,,,,,,,,,,,,,,,,,,,,60f660d407beb2fa01b360ef,6103770326b3a5b98dfa1790,2021-07-29_20h58.55.993,Simcolourproject_2stim_asymm_v5,2020.2.10,Win32,60,61025ae37ef11b136ea224fe,,,,,,,,,2397,140,32,1,0,0,response1disk,,6,-2,-2,1,0,0,rectangle,-2,-2,1,0,0,-2,-2,1,0,0,0,12,12,129,1,,,,,,,,
,,,,,,,,,,,,,FF,,,,,,,,0.884,,,,,,,,,,,,,,,,,,,,,,60f660d407beb2fa01b360ef,6103770326b3a5b98dfa1790,2021-07-29_20h58.55.993,Simcolourproject_2stim_asymm_v5,2020.2.10,Win32,60,61025ae37ef11b136ea224fe,,,,,,,,,394,148,44,1,0,0,response1disk,,6,-5,-21,1,0,0,rectangle,-5,-21,1,0,0,-5,-21,1,0,0,0,13,13,21,1,,,,,,,,
,,,,,,,,,,,,,FF,,,,,,,,1.251,,,,,,,,,,,,,,,,,,,,,,60f660d407beb2fa01b360ef,6103770326b3a5b98dfa1790,2021-07-29_20h58.55.993,Simcolourproject_2stim_asymm_v5,2020.2.10,Win32,60,61025ae37ef11b136ea224fe,,,,,,,,,2418,-61,99,1,0,0,response7disk,,0,1,-2,1,0,0,rectangle,1,-2,1,0,0,1,-2,1,0,0,0,14,14,76,1,,,,,,,,
,,,,,,,,,,,,,FF,,,,,,,,3.4,,,,,,,,,,,,,,,,,,,,,,60f660d407beb2fa01b360ef,6103770326b3a5b98dfa1790,2021-07-29_20h58.55.993,Simcolourproject_2stim_asymm_v5,2020.2.10,Win32,60,61025ae37ef11b136ea224fe,,,,,,,,,2020,133,-81,1,0,0,response3disk,,5,-14,3,1,0,0,rectangle,-14,3,1,0,0,-14,3,1,0,0,0,15,15,144,1,,,,,,,,
,,,,,,,,,,,,,FF,,,,,,,,1.367,,,,,,,,,,,,,,,,,,,,,,60f660d407beb2fa01b360ef,6103770326b3a5b98dfa1790,2021-07-29_20h58.55.993,Simcolourproject_2stim_asymm_v5,2020.2.10,Win32,60,61025ae37ef11b136ea224fe,,,,,,,,,1213,-159,43,1,0,0,response7disk,,1,-13,-4,1,0,0,rectangle,-13,-4,1,0,0,-13,-4,1,0,0,0,16,16,135,1,,,,,,,,
,,,,,,,,,,,,,FF,,,,,,,,1.051,,,,,,,,,,,,,,,,,,,,,,60f660d407beb2fa01b360ef,6103770326b3a5b98dfa1790,2021-07-29_20h58.55.993,Simcolourproject_2stim_asymm_v5,2020.2.10,Win32,60,61025ae37ef11b136ea224fe,,,,,,,,,1507,141,74,1,0,0,response1disk,,6,8,-12,1,0,0,rectangle,8,-12,1,0,0,8,-12,1,0,0,0,17,17,32,1,,,,,,,,
,,,,,,,,,,,,,FF,,,,,,,,0.934,,,,,,,,,,,,,,,,,,,,,,60f660d407beb2fa01b360ef,6103770326b3a5b98dfa1790,2021-07-29_20h58.55.993,Simcolourproject_2stim_asymm_v5,2020.2.10,Win32,60,61025ae37ef11b136ea224fe,,,,,,,,,126,98,44,1,0,0,response1disk,,6,-2,-11,1,0,0,rectangle,-2,-11,1,0,0,-2,-11,1,0,0,0,18,18,83,1,,,,,,,,
,,,,,,,,,,,,,FF,,,,,,,,1.317,,,,,,,,,,,,,,,,,,,,,,60f660d407beb2fa01b360ef,6103770326b3a5b98dfa1790,2021-07-29_20h58.55.993,Simcolourproject_2stim_asymm_v5,2020.2.10,Win32,60,61025ae37ef11b136ea224fe,,,,,,,,,2496,-65,-113,1,0,0,response5disk,,3,-8,-5,1,0,0,rectangle,-8,-5,1,0,0,-8,-5,1,0,0,0,19,19,97,1,,,,,,,,
,,,,,,,,,,,,,FF,,,,,,,,1.25,,,,,,,,,,,,,,,,,,,,,,60f660d407beb2fa01b360ef,6103770326b3a5b98dfa1790,2021-07-29_20h58.55.993,Simcolourproject_2stim_asymm_v5,2020.2.10,Win32,60,61025ae37ef11b136ea224fe,,,,,,,,,496,36,124,1,0,0,response1disk,,7,4,-1,1,0,0,rectangle,4,-1,1,0,0,4,-1,1,0,0,0,20,20,92,1,,,,,,,,
,,,,,,,,,,,,,FF,,,,,,,,1.199,,,,,,,,,,,,,,,,,,,,,,60f660d407beb2fa01b360ef,6103770326b3a5b98dfa1790,2021-07-29_20h58.55.993,Simcolourproject_2stim_asymm_v5,2020.2.10,Win32,60,61025ae37ef11b136ea224fe,,,,,,,,,3660,-128,59,1,0,0,response7disk,,1,-1,4,1,0,0,rectangle,-1,4,1,0,0,-1,4,1,0,0,0,21,21,26,1,,,,,,,,
,,,,,,,,,,,,,FF,,,,,,,,1.484,,,,,,,,,,,,,,,,,,,,,,60f660d407beb2fa01b360ef,6103770326b3a5b98dfa1790,2021-07-29_20h58.55.993,Simcolourproject_2stim_asymm_v5,2020.2.10,Win32,60,61025ae37ef11b136ea224fe,,,,,,,,,1256,40,129,1,0,0,response1disk,,7,-5,-12,1,0,0,rectangle,-5,-12,1,0,0,-5,-12,1,0,0,0,22,22,114,1,,,,,,,,
,,,,,,,,,,,,,FF,,,,,,,,0.85,,,,,,,,,,,,,,,,,,,,,,60f660d407beb2fa01b360ef,6103770326b3a5b98dfa1790,2021-07-29_20h58.55.993,Simcolourproject_2stim_asymm_v5,2020.2.10,Win32,60,61025ae37ef11b136ea224fe,,,,,,,,,467,155,59,1,0,0,response1disk,,6,24,-14,1,0,0,rectangle,24,-14,1,0,0,24,-14,1,0,0,0,23,23,84,1,,,,,,,,
,,,,,,,,,,,,,FF,,,,,,,,1.134,,,,,,,,,,,,,,,,,,,,,,60f660d407beb2fa01b360ef,6103770326b3a5b98dfa1790,2021-07-29_20h58.55.993,Simcolourproject_2stim_asymm_v5,2020.2.10,Win32,60,61025ae37ef11b136ea224fe,,,,,,,,,45,73,118,1,0,0,response1disk,,7,14,4,1,0,0,rectangle,14,4,1,0,0,14,4,1,0,0,0,24,24,78,1,,,,,,,,
,,,,,,,,,,,,,FF,,,,,,,,1.25,,,,,,,,,,,,,,,,,,,,,,60f660d407beb2fa01b360ef,6103770326b3a5b98dfa1790,2021-07-29_20h58.55.993,Simcolourproject_2stim_asymm_v5,2020.2.10,Win32,60,61025ae37ef11b136ea224fe,,,,,,,,,546,-94,-123,1,0,0,response5disk,,3,-2,4,1,0,0,rectangle,-2,4,1,0,0,-2,4,1,0,0,0,25,25,145,1,,,,,,,,
,,,,,,,,,,,,,FF,,,,,,,,1.117,,,,,,,,,,,,,,,,,,,,,,60f660d407beb2fa01b360ef,6103770326b3a5b98dfa1790,2021-07-29_20h58.55.993,Simcolourproject_2stim_asymm_v5,2020.2.10,Win32,60,61025ae37ef11b136ea224fe,,,,,,,,,1530,-45,-113,1,0,0,response5disk,,3,33,5,1,0,0,rectangle,33,5,1,0,0,33,5,1,0,0,0,26,26,81,1,,,,,,,,
,,,,,,,,,,,,,FF,,,,,,,,0.884,,,,,,,,,,,,,,,,,,,,,,60f660d407beb2fa01b360ef,6103770326b3a5b98dfa1790,2021-07-29_20h58.55.993,Simcolourproject_2stim_asymm_v5,2020.2.10,Win32,60,61025ae37ef11b136ea224fe,,,,,,,,,3101,-109,-36,1,0,0,response5disk,,2,3,-5,1,0,0,rectangle,3,-5,1,0,0,3,-5,1,0,0,0,27,27,109,1,,,,,,,,
,,,,,,,,,,,,,FF,,,,,,,,0.951,,,,,,,,,,,,,,,,,,,,,,60f660d407beb2fa01b360ef,6103770326b3a5b98dfa1790,2021-07-29_20h58.55.993,Simcolourproject_2stim_asymm_v5,2020.2.10,Win32,60,61025ae37ef11b136ea224fe,,,,,,,,,3278,69,131,1,0,0,response1disk,,7,0,-1,1,0,0,rectangle,0,-1,1,0,0,0,-1,1,0,0,0,28,28,68,1,,,,,,,,
,,,,,,,,,,,,,FF,,,,,,,,0.584,,,,,,,,,,,,,,,,,,,,,,60f660d407beb2fa01b360ef,6103770326b3a5b98dfa1790,2021-07-29_20h58.55.993,Simcolourproject_2stim_asymm_v5,2020.2.10,Win32,60,61025ae37ef11b136ea224fe,,,,,,,,,859,66,162,1,0,0,response1disk,,7,-6,-11,1,0,0,rectangle,-6,-11,1,0,0,-6,-11,1,0,0,0,29,29,7,1,,,,,,,,
,,,,,,,,,,,,,FF,,,,,,,,2.1,,,,,,,,,,,,,,,,,,,,,,60f660d407beb2fa01b360ef,6103770326b3a5b98dfa1790,2021-07-29_20h58.55.993,Simcolourproject_2stim_asymm_v5,2020.2.10,Win32,60,61025ae37ef11b136ea224fe,,,,,,,,,4035,125,42,1,0,0,response1disk,,6,-8,14,1,0,0,rectangle,-8,14,1,0,0,-8,14,1,0,0,0,30,30,67,1,,,,,,,,
,,,,,,,,,,,,,FF,,,,,,,,0.833,,,,,,,,,,,,,,,,,,,,,,60f660d407beb2fa01b360ef,6103770326b3a5b98dfa1790,2021-07-29_20h58.55.993,Simcolourproject_2stim_asymm_v5,2020.2.10,Win32,60,61025ae37ef11b136ea224fe,,,,,,,,,3488,106,64,1,0,0,response1disk,,6,36,-10,1,0,0,rectangle,36,-10,1,0,0,36,-10,1,0,0,0,31,31,13,1,,,,,,,,
,,,,,,,,,,,,,FF,,,,,,,,1.084,,,,,,,,,,,,,,,,,,,,,,60f660d407beb2fa01b360ef,6103770326b3a5b98dfa1790,2021-07-29_20h58.55.993,Simcolourproject_2stim_asymm_v5,2020.2.10,Win32,60,61025ae37ef11b136ea224fe,,,,,,,,,1431,110,66,1,0,0,response1disk,,6,-17,-6,1,0,0,rectangle,-17,-6,1,0,0,-17,-6,1,0,0,0,32,32,128,1,,,,,,,,
,,,,,,,,,,,,,FF,,,,,,,,1.034,,,,,,,,,,,,,,,,,,,,,,60f660d407beb2fa01b360ef,6103770326b3a5b98dfa1790,2021-07-29_20h58.55.993,Simcolourproject_2stim_asymm_v5,2020.2.10,Win32,60,61025ae37ef11b136ea224fe,,,,,,,,,2176,-61,-120,1,0,0,response5disk,,3,-2,19,1,0,0,rectangle,-2,19,1,0,0,-2,19,1,0,0,0,33,33,59,1,,,,,,,,
,,,,,,,,,,,,,FF,,,,,,,,1.334,,,,,,,,,,,,,,,,,,,,,,60f660d407beb2fa01b360ef,6103770326b3a5b98dfa1790,2021-07-29_20h58.55.993,Simcolourproject_2stim_asymm_v5,2020.2.10,Win32,60,61025ae37ef11b136ea224fe,,,,,,,,,146,79,126,1,0,0,response1disk,,7,0,-6,1,0,0,rectangle,0,-6,1,0,0,0,-6,1,0,0,0,34,34,126,1,,,,,,,,
,,,,,,,,,,,,,FF,,,,,,,,0.883,,,,,,,,,,,,,,,,,,,,,,60f660d407beb2fa01b360ef,6103770326b3a5b98dfa1790,2021-07-29_20h58.55.993,Simcolourproject_2stim_asymm_v5,2020.2.10,Win32,60,61025ae37ef11b136ea224fe,,,,,,,,,1451,-109,40,1,0,0,response7disk,,1,-25,3,1,0,0,rectangle,-25,3,1,0,0,-25,3,1,0,0,0,35,35,93,1,,,,,,,,
,,,,,,,,,,,,,FF,,,,,,,,0.7,,,,,,,,,,,,,,,,,,,,,,60f660d407beb2fa01b360ef,6103770326b3a5b98dfa1790,2021-07-29_20h58.55.993,Simcolourproject_2stim_asymm_v5,2020.2.10,Win32,60,61025ae37ef11b136ea224fe,,,,,,,,,1087,89,108,1,0,0,response1disk,,7,21,10,1,0,0,rectangle,21,10,1,0,0,21,10,1,0,0,0,36,36,50,1,,,,,,,,
,,,,,,,,,,,,,FF,,,,,,,,1.134,,,,,,,,,,,,,,,,,,,,,,60f660d407beb2fa01b360ef,6103770326b3a5b98dfa1790,2021-07-29_20h58.55.993,Simcolourproject_2stim_asymm_v5,2020.2.10,Win32,60,61025ae37ef11b136ea224fe,,,,,,,,,912,81,-51,1,0,0,response3disk,,5,7,12,1,0,0,rectangle,7,12,1,0,0,7,12,1,0,0,0,37,37,141,1,,,,,,,,
,,,,,,,,,,,,,FF,,,,,,,,1.55,,,,,,,,,,,,,,,,,,,,,,60f660d407beb2fa01b360ef,6103770326b3a5b98dfa1790,2021-07-29_20h58.55.993,Simcolourproject_2stim_asymm_v5,2020.2.10,Win32,60,61025ae37ef11b136ea224fe,,,,,,,,,2373,45,-127,1,0,0,response3disk,,4,-7,-3,1,0,0,rectangle,-7,-3,1,0,0,-7,-3,1,0,0,0,38,38,61,1,,,,,,,,
,,,,,,,,,,,,,FF,,,,,,,,1.067,,,,,,,,,,,,,,,,,,,,,,60f660d407beb2fa01b360ef,6103770326b3a5b98dfa1790,2021-07-29_20h58.55.993,Simcolourproject_2stim_asymm_v5,2020.2.10,Win32,60,61025ae37ef11b136ea224fe,,,,,,,,,2032,-100,66,1,0,0,response7disk,,1,-8,10,1,0,0,rectangle,-8,10,1,0,0,-8,10,1,0,0,0,39,39,86,1,,,,,,,,
,,,,,,,,,,,,,FF,,,,,,,,0.95,,,,,,,,,,,,,,,,,,,,,,60f660d407beb2fa01b360ef,6103770326b3a5b98dfa1790,2021-07-29_20h58.55.993,Simcolourproject_2stim_asymm_v5,2020.2.10,Win32,60,61025ae37ef11b136ea224fe,,,,,,,,,2575,71,156,1,0,0,response1disk,,7,-16,-11,1,0,0,rectangle,-16,-11,1,0,0,-16,-11,1,0,0,0,40,40,148,1,,,,,,,,
,,,,,,,,,,,,,FF,,,,,,,,5.183,,,,,,,,,,,,,,,,,,,,,,60f660d407beb2fa01b360ef,6103770326b3a5b98dfa1790,2021-07-29_20h58.55.993,Simcolourproject_2stim_asymm_v5,2020.2.10,Win32,60,61025ae37ef11b136ea224fe,,,,,,,,,1433,30,-123,1,0,0,response3disk,,4,-11,3,1,0,0,rectangle,-11,3,1,0,0,-11,3,1,0,0,0,41,41,24,1,,,,,,,,
,,,,,,,,,,,,,FF,,,,,,,,1.133,,,,,,,,,,,,,,,,,,,,,,60f660d407beb2fa01b360ef,6103770326b3a5b98dfa1790,2021-07-29_20h58.55.993,Simcolourproject_2stim_asymm_v5,2020.2.10,Win32,60,61025ae37ef11b136ea224fe,,,,,,,,,1165,84,61,1,0,0,response1disk,,6,17,-9,1,0,0,rectangle,17,-9,1,0,0,17,-9,1,0,0,0,42,42,90,1,,,,,,,,
,,,,,,,,,,,,,FF,,,,,,,,0.983,,,,,,,,,,,,,,,,,,,,,,60f660d407beb2fa01b360ef,6103770326b3a5b98dfa1790,2021-07-29_20h58.55.993,Simcolourproject_2stim_asymm_v5,2020.2.10,Win32,60,61025ae37ef11b136ea224fe,,,,,,,,,4141,-81,-45,1,0,0,response5disk,,2,-20,8,1,0,0,rectangle,-20,8,1,0,0,-20,8,1,0,0,0,43,43,117,1,,,,,,,,
,,,,,,,,,,,,,FF,,,,,,,,0.7,,,,,,,,,,,,,,,,,,,,,,60f660d407beb2fa01b360ef,6103770326b3a5b98dfa1790,2021-07-29_20h58.55.993,Simcolourproject_2stim_asymm_v5,2020.2.10,Win32,60,61025ae37ef11b136ea224fe,,,,,,,,,4027,-108,62,1,0,0,response7disk,,1,10,3,1,0,0,rectangle,10,3,1,0,0,10,3,1,0,0,0,44,44,71,1,,,,,,,,
,,,,,,,,,,,,,FF,,,,,,,,0.883,,,,,,,,,,,,,,,,,,,,,,60f660d407beb2fa01b360ef,6103770326b3a5b98dfa1790,2021-07-29_20h58.55.993,Simcolourproject_2stim_asymm_v5,2020.2.10,Win32,60,61025ae37ef11b136ea224fe,,,,,,,,,3334,80,109,1,0,0,response1disk,,7,-16,-13,1,0,0,rectangle,-16,-13,1,0,0,-16,-13,1,0,0,0,45,45,122,1,,,,,,,,
,,,,,,,,,,,,,FF,,,,,,,,0.65,,,,,,,,,,,,,,,,,,,,,,60f660d407beb2fa01b360ef,6103770326b3a5b98dfa1790,2021-07-29_20h58.55.993,Simcolourproject_2stim_asymm_v5,2020.2.10,Win32,60,61025ae37ef11b136ea224fe,,,,,,,,,333,108,70,1,0,0,response1disk,,6,7,-15,1,0,0,rectangle,7,-15,1,0,0,7,-15,1,0,0,0,46,46,53,1,,,,,,,,
,,,,,,,,,,,,,FF,,,,,,,,0.966,,,,,,,,,,,,,,,,,,,,,,60f660d407beb2fa01b360ef,6103770326b3a5b98dfa1790,2021-07-29_20h58.55.993,Simcolourproject_2stim_asymm_v5,2020.2.10,Win32,60,61025ae37ef11b136ea224fe,,,,,,,,,3855,148,66,1,0,0,response1disk,,6,13,5,1,0,0,rectangle,13,5,1,0,0,13,5,1,0,0,0,47,47,150,1,,,,,,,,
,,,,,,,,,,,,,FF,,,,,,,,0.816,,,,,,,,,,,,,,,,,,,,,,60f660d407beb2fa01b360ef,6103770326b3a5b98dfa1790,2021-07-29_20h58.55.993,Simcolourproject_2stim_asymm_v5,2020.2.10,Win32,60,61025ae37ef11b136ea224fe,,,,,,,,,632,-132,40,1,0,0,response7disk,,1,-25,2,1,0,0,rectangle,-25,2,1,0,0,-25,2,1,0,0,0,48,48,137,1,,,,,,,,
,,,,,,,,,,,,,FF,,,,,,,,0.95,,,,,,,,,,,,,,,,,,,,,,60f660d407beb2fa01b360ef,6103770326b3a5b98dfa1790,2021-07-29_20h58.55.993,Simcolourproject_2stim_asymm_v5,2020.2.10,Win32,60,61025ae37ef11b136ea224fe,,,,,,,,,2954,-111,-55,1,0,0,response5disk,,2,-10,8,1,0,0,rectangle,-10,8,1,0,0,-10,8,1,0,0,0,49,49,74,1,,,,,,,,
,,,,,,,,,,,,,FF,,,,,,,,0.817,,,,,,,,,,,,,,,,,,,,,,60f660d407beb2fa01b360ef,6103770326b3a5b98dfa1790,2021-07-29_20h58.55.993,Simcolourproject_2stim_asymm_v5,2020.2.10,Win32,60,61025ae37ef11b136ea224fe,,,,,,,,,810,-53,-103,1,0,0,response5disk,,3,-10,8,1,0,0,rectangle,-10,8,1,0,0,-10,8,1,0,0,0,50,50,79,1,,,,,,,,
,,,,,,,,,,,,,FF,,,,,,,,0.734,,,,,,,,,,,,,,,,,,,,,,60f660d407beb2fa01b360ef,6103770326b3a5b98dfa1790,2021-07-29_20h58.55.993,Simcolourproject_2stim_asymm_v5,2020.2.10,Win32,60,61025ae37ef11b136ea224fe,,,,,,,,,1816,-106,59,1,0,0,response7disk,,1,17,-5,1,0,0,rectangle,17,-5,1,0,0,17,-5,1,0,0,0,51,51,151,1,,,,,,,,
,,,,,,,,,,,,,FF,,,,,,,,0.766,,,,,,,,,,,,,,,,,,,,,,60f660d407beb2fa01b360ef,6103770326b3a5b98dfa1790,2021-07-29_20h58.55.993,Simcolourproject_2stim_asymm_v5,2020.2.10,Win32,60,61025ae37ef11b136ea224fe,,,,,,,,,3544,-90,-59,1,0,0,response5disk,,2,-20,3,1,0,0,rectangle,-20,3,1,0,0,-20,3,1,0,0,0,52,52,82,1,,,,,,,,
,,,,,,,,,,,,,FF,,,,,,,,1.566,,,,,,,,,,,,,,,,,,,,,,60f660d407beb2fa01b360ef,6103770326b3a5b98dfa1790,2021-07-29_20h58.55.993,Simcolourproject_2stim_asymm_v5,2020.2.10,Win32,60,61025ae37ef11b136ea224fe,,,,,,,,,1334,69,112,1,0,0,response1disk,,7,5,10,1,0,0,rectangle,5,10,1,0,0,5,10,1,0,0,0,53,53,95,1,,,,,,,,
,,,,,,,,,,,,,FF,,,,,,,,0.766,,,,,,,,,,,,,,,,,,,,,,60f660d407beb2fa01b360ef,6103770326b3a5b98dfa1790,2021-07-29_20h58.55.993,Simcolourproject_2stim_asymm_v5,2020.2.10,Win32,60,61025ae37ef11b136ea224fe,,,,,,,,,3760,39,131,1,0,0,response1disk,,7,-25,-6,1,0,0,rectangle,-25,-6,1,0,0,-25,-6,1,0,0,0,54,54,38,1,,,,,,,,
,,,,,,,,,,,,,FF,,,,,,,,0.999,,,,,,,,,,,,,,,,,,,,,,60f660d407beb2fa01b360ef,6103770326b3a5b98dfa1790,2021-07-29_20h58.55.993,Simcolourproject_2stim_asymm_v5,2020.2.10,Win32,60,61025ae37ef11b136ea224fe,,,,,,,,,3151,-120,51,1,0,0,response7disk,,1,-18,6,1,0,0,rectangle,-18,6,1,0,0,-18,6,1,0,0,0,55,55,65,1,,,,,,,,
,,,,,,,,,,,,,FF,,,,,,,,0.95,,,,,,,,,,,,,,,,,,,,,,60f660d407beb2fa01b360ef,6103770326b3a5b98dfa1790,2021-07-29_20h58.55.993,Simcolourproject_2stim_asymm_v5,2020.2.10,Win32,60,61025ae37ef11b136ea224fe,,,,,,,,,4083,63,-137,1,0,0,response3disk,,4,-5,-18,1,0,0,rectangle,-5,-18,1,0,0,-5,-18,1,0,0,0,56,56,70,1,,,,,,,,
,,,,,,,,,,,,,FF,,,,,,,,0.867,,,,,,,,,,,,,,,,,,,,,,60f660d407beb2fa01b360ef,6103770326b3a5b98dfa1790,2021-07-29_20h58.55.993,Simcolourproject_2stim_asymm_v5,2020.2.10,Win32,60,61025ae37ef11b136ea224fe,,,,,,,,,642,106,-33,1,0,0,response3disk,,5,11,9,1,0,0,rectangle,11,9,1,0,0,11,9,1,0,0,0,57,57,115,1,,,,,,,,
,,,,,,,,,,,,,FF,,,,,,,,1.817,,,,,,,,,,,,,,,,,,,,,,60f660d407beb2fa01b360ef,6103770326b3a5b98dfa1790,2021-07-29_20h58.55.993,Simcolourproject_2stim_asymm_v5,2020.2.10,Win32,60,61025ae37ef11b136ea224fe,,,,,,,,,61,105,29,1,0,0,response1disk,,6,-18,6,1,0,0,rectangle,-18,6,1,0,0,-18,6,1,0,0,0,58,58,18,1,,,,,,,,
,,,,,,,,,,,,,FF,,,,,,,,1.05,,,,,,,,,,,,,,,,,,,,,,60f660d407beb2fa01b360ef,6103770326b3a5b98dfa1790,2021-07-29_20h58.55.993,Simcolourproject_2stim_asymm_v5,2020.2.10,Win32,60,61025ae37ef11b136ea224fe,,,,,,,,,2673,-108,-44,1,0,0,response5disk,,2,-31,7,1,0,0,rectangle,-31,7,1,0,0,-31,7,1,0,0,0,59,59,154,1,,,,,,,,
,,,,,,,,,,,,,FF,,,,,,,,1.251,,,,,,,,,,,,,,,,,,,,,,60f660d407beb2fa01b360ef,6103770326b3a5b98dfa1790,2021-07-29_20h58.55.993,Simcolourproject_2stim_asymm_v5,2020.2.10,Win32,60,61025ae37ef11b136ea224fe,,,,,,,,,3350,54,-130,1,0,0,response3disk,,4,-15,5,1,0,0,rectangle,-15,5,1,0,0,-15,5,1,0,0,0,60,60,29,1,,,,,,,,
,,,,,,,,,,,,,FF,,,,,,,,0.867,,,,,,,,,,,,,,,,,,,,,,60f660d407beb2fa01b360ef,6103770326b3a5b98dfa1790,2021-07-29_20h58.55.993,Simcolourproject_2stim_asymm_v5,2020.2.10,Win32,60,61025ae37ef11b136ea224fe,,,,,,,,,1504,92,-54,1,0,0,response3disk,,5,-3,-6,1,0,0,rectangle,-3,-6,1,0,0,-3,-6,1,0,0,0,61,61,14,1,,,,,,,,
,,,,,,,,,,,,,FF,,,,,,,,0.834,,,,,,,,,,,,,,,,,,,,,,60f660d407beb2fa01b360ef,6103770326b3a5b98dfa1790,2021-07-29_20h58.55.993,Simcolourproject_2stim_asymm_v5,2020.2.10,Win32,60,61025ae37ef11b136ea224fe,,,,,,,,,1460,-124,52,1,0,0,response7disk,,1,-8,11,1,0,0,rectangle,48,125,1,0,0,2,-12,1,0,0,0,62,62,75,1,,response1disk_3,TRUE,7,7,"[269,93,226,224,63,219,312,310,302,212,184,63,295,198,64,162,175,82,133,66]",2.617,rectangle
,,,,,,,,,,,,,FF,,,,,,,,0.867,,,,,,,,,,,,,,,,,,,,,,60f660d407beb2fa01b360ef,6103770326b3a5b98dfa1790,2021-07-29_20h58.55.993,Simcolourproject_2stim_asymm_v5,2020.2.10,Win32,60,61025ae37ef11b136ea224fe,,,,,,,,,779,73,131,1,0,0,response1disk,,7,5,-7,1,0,0,rectangle,49,118,1,0,0,-2,-10,1,0,0,0,63,63,46,1,,response1disk_3,TRUE,7,7,"[269,93,226,224,63,219,312,310,302,212,184,63,295,198,64,162,175,82,133,66]",1.483,rectangle
,,,,,,,,,,,,,FF,,,,,,,,1.966,,,,,,,,,,,,,,,,,,,,,,60f660d407beb2fa01b360ef,6103770326b3a5b98dfa1790,2021-07-29_20h58.55.993,Simcolourproject_2stim_asymm_v5,2020.2.10,Win32,60,61025ae37ef11b136ea224fe,,,,,,,,,2617,136,50,1,0,0,response1disk,,6,-3,-9,1,0,0,rectangle,-3,-9,1,0,0,-3,-9,1,0,0,0,64,64,10,1,,,,,,,,
,,,,,,,,,,,,,FF,,,,,,,,0.983,,,,,,,,,,,,,,,,,,,,,,60f660d407beb2fa01b360ef,6103770326b3a5b98dfa1790,2021-07-29_20h58.55.993,Simcolourproject_2stim_asymm_v5,2020.2.10,Win32,60,61025ae37ef11b136ea224fe,,,,,,,,,2359,-44,-138,1,0,0,response5disk,,3,23,16,1,0,0,rectangle,53,146,1,0,0,-2,-2,1,0,0,0,65,65,36,1,,response1disk_3,TRUE,7,7,"[269,93,226,224,63,219,312,310,302,212,184,63,295,198,64,162,175,82,133,66]",1.984,rectangle
,,,,,,,,,,,,,FF,,,,,,,,1.067,,,,,,,,,,,,,,,,,,,,,,60f660d407beb2fa01b360ef,6103770326b3a5b98dfa1790,2021-07-29_20h58.55.993,Simcolourproject_2stim_asymm_v5,2020.2.10,Win32,60,61025ae37ef11b136ea224fe,,,,,,,,,3225,54,153,1,0,0,response1disk,,7,1,-4,1,0,0,rectangle,1,-4,1,0,0,1,-4,1,0,0,0,66,66,80,1,,,,,,,,
,,,,,,,,,,,,,FF,,,,,,,,3.584,,,,,,,,,,,,,,,,,,,,,,60f660d407beb2fa01b360ef,6103770326b3a5b98dfa1790,2021-07-29_20h58.55.993,Simcolourproject_2stim_asymm_v5,2020.2.10,Win32,60,61025ae37ef11b136ea224fe,,,,,,,,,3616,138,53,1,0,0,response1disk,,6,-8,3,1,0,0,rectangle,-8,3,1,0,0,-8,3,1,0,0,0,67,67,41,1,,,,,,,,
,,,,,,,,,,,,,FF,,,,,,,,0.901,,,,,,,,,,,,,,,,,,,,,,60f660d407beb2fa01b360ef,6103770326b3a5b98dfa1790,2021-07-29_20h58.55.993,Simcolourproject_2stim_asymm_v5,2020.2.10,Win32,60,61025ae37ef11b136ea224fe,,,,,,,,,2916,97,-38,1,0,0,response3disk,,5,5,5,1,0,0,rectangle,5,5,1,0,0,5,5,1,0,0,0,68,68,119,1,,,,,,,,
,,,,,,,,,,,,,FF,,,,,,,,0.984,,,,,,,,,,,,,,,,,,,,,,60f660d407beb2fa01b360ef,6103770326b3a5b98dfa1790,2021-07-29_20h58.55.993,Simcolourproject_2stim_asymm_v5,2020.2.10,Win32,60,61025ae37ef11b136ea224fe,,,,,,,,,3462,123,-44,1,0,0,response3disk,,5,7,10,1,0,0,rectangle,7,10,1,0,0,7,10,1,0,0,0,69,69,64,1,,,,,,,,
,,,,,,,,,,,,,FF,,,,,,,,1.183,,,,,,,,,,,,,,,,,,,,,,60f660d407beb2fa01b360ef,6103770326b3a5b98dfa1790,2021-07-29_20h58.55.993,Simcolourproject_2stim_asymm_v5,2020.2.10,Win32,60,61025ae37ef11b136ea224fe,,,,,,,,,2748,50,145,1,0,0,response1disk,,7,-4,-11,1,0,0,rectangle,-4,-11,1,0,0,-4,-11,1,0,0,0,70,70,87,1,,,,,,,,
,,,,,,,,,,,,,FF,,,,,,,,2.667,,,,,,,,,,,,,,,,,,,,,,60f660d407beb2fa01b360ef,6103770326b3a5b98dfa1790,2021-07-29_20h58.55.993,Simcolourproject_2stim_asymm_v5,2020.2.10,Win32,60,61025ae37ef11b136ea224fe,,,,,,,,,3922,61,138,1,0,0,response1disk,,7,-7,4,1,0,0,rectangle,-7,4,1,0,0,-7,4,1,0,0,0,71,71,27,1,,,,,,,,
,,,,,,,,,,,,,FF,,,,,,,,1.05,,,,,,,,,,,,,,,,,,,,,,60f660d407beb2fa01b360ef,6103770326b3a5b98dfa1790,2021-07-29_20h58.55.993,Simcolourproject_2stim_asymm_v5,2020.2.10,Win32,60,61025ae37ef11b136ea224fe,,,,,,,,,2348,-59,-137,1,0,0,response5disk,,3,1,4,1,0,0,rectangle,1,4,1,0,0,1,4,1,0,0,0,72,72,54,1,,,,,,,,
,,,,,,,,,,,,,FF,,,,,,,,1.367,,,,,,,,,,,,,,,,,,,,,,60f660d407beb2fa01b360ef,6103770326b3a5b98dfa1790,2021-07-29_20h58.55.993,Simcolourproject_2stim_asymm_v5,2020.2.10,Win32,60,61025ae37ef11b136ea224fe,,,,,,,,,2867,-63,-122,1,0,0,response5disk,,3,3,9,1,0,0,rectangle,3,9,1,0,0,3,9,1,0,0,0,73,73,112,1,,,,,,,,
,,,,,,,,,,,,,FF,,,,,,,,1.067,,,,,,,,,,,,,,,,,,,,,,60f660d407beb2fa01b360ef,6103770326b3a5b98dfa1790,2021-07-29_20h58.55.993,Simcolourproject_2stim_asymm_v5,2020.2.10,Win32,60,61025ae37ef11b136ea224fe,,,,,,,,,3373,-128,61,1,0,0,response7disk,,1,-10,-7,1,0,0,rectangle,-10,-7,1,0,0,-10,-7,1,0,0,0,74,74,56,1,,,,,,,,
,,,,,,,,,,,,,FF,,,,,,,,0.834,,,,,,,,,,,,,,,,,,,,,,60f660d407beb2fa01b360ef,6103770326b3a5b98dfa1790,2021-07-29_20h58.55.993,Simcolourproject_2stim_asymm_v5,2020.2.10,Win32,60,61025ae37ef11b136ea224fe,,,,,,,,,555,-116,-42,1,0,0,response5disk,,2,18,10,1,0,0,rectangle,18,10,1,0,0,18,10,1,0,0,0,75,75,134,1,,,,,,,,
,,,,,,,,,,,,,FF,,,,,,,,1.251,,,,,,,,,,,,,,,,,,,,,,60f660d407beb2fa01b360ef,6103770326b3a5b98dfa1790,2021-07-29_20h58.55.993,Simcolourproject_2stim_asymm_v5,2020.2.10,Win32,60,61025ae37ef11b136ea224fe,,,,,,,,,3299,-58,-119,1,0,0,response5disk,,3,-4,11,1,0,0,rectangle,-4,11,1,0,0,-4,11,1,0,0,0,76,76,157,1,,,,,,,,
,,,,,,,,,,,,,FF,,,,,,,,1.417,,,,,,,,,,,,,,,,,,,,,,60f660d407beb2fa01b360ef,6103770326b3a5b98dfa1790,2021-07-29_20h58.55.993,Simcolourproject_2stim_asymm_v5,2020.2.10,Win32,60,61025ae37ef11b136ea224fe,,,,,,,,,1021,58,144,1,0,0,response1disk,,7,-5,2,1,0,0,rectangle,-5,2,1,0,0,-5,2,1,0,0,0,77,77,104,1,,,,,,,,
,,,,,,,,,,,,,FF,,,,,,,,0.8,,,,,,,,,,,,,,,,,,,,,,60f660d407beb2fa01b360ef,6103770326b3a5b98dfa1790,2021-07-29_20h58.55.993,Simcolourproject_2stim_asymm_v5,2020.2.10,Win32,60,61025ae37ef11b136ea224fe,,,,,,,,,3638,52,139,1,0,0,response1disk,,7,-7,7,1,0,0,rectangle,-7,7,1,0,0,-7,7,1,0,0,0,78,78,37,1,,,,,,,,
,,,,,,,,,,,,,FF,,,,,,,,1.083,,,,,,,,,,,,,,,,,,,,,,60f660d407beb2fa01b360ef,6103770326b3a5b98dfa1790,2021-07-29_20h58.55.993,Simcolourproject_2stim_asymm_v5,2020.2.10,Win32,60,61025ae37ef11b136ea224fe,,,,,,,,,2376,-118,-56,1,0,0,response5disk,,2,7,-7,1,0,0,rectangle,7,-7,1,0,0,7,-7,1,0,0,0,79,79,155,1,,,,,,,,
,,,,,,,,,,,,,FF,,,,,,,,0.95,,,,,,,,,,,,,,,,,,,,,,60f660d407beb2fa01b360ef,6103770326b3a5b98dfa1790,2021-07-29_20h58.55.993,Simcolourproject_2stim_asymm_v5,2020.2.10,Win32,60,61025ae37ef11b136ea224fe,,,,,,,,,4271,55,144,1,0,0,response1disk,,7,6,4,1,0,0,rectangle,6,4,1,0,0,6,4,1,0,0,0,80,80,96,1,,,,,,,,
,,,,,,,,,,,,,FF,,,,,,,,1.416,,,,,,,,,,,,,,,,,,,,,,60f660d407beb2fa01b360ef,6103770326b3a5b98dfa1790,2021-07-29_20h58.55.993,Simcolourproject_2stim_asymm_v5,2020.2.10,Win32,60,61025ae37ef11b136ea224fe,,,,,,,,,3396,-127,67,1,0,0,response7disk,,1,-25,5,1,0,0,rectangle,-118,-44,1,0,0,12,2,1,0,0,0,81,81,140,1,,response5disk_3,TRUE,2,2,"[269,93,226,224,63,219,312,310,302,212,184,63,295,198,64,162,175,82,133,66]",2.116,rectangle
,,,,,,,,,,,,,FF,,,,,,,,1.467,,,,,,,,,,,,,,,,,,,,,,60f660d407beb2fa01b360ef,6103770326b3a5b98dfa1790,2021-07-29_20h58.55.993,Simcolourproject_2stim_asymm_v5,2020.2.10,Win32,60,61025ae37ef11b136ea224fe,,,,,,,,,1765,-53,-137,1,0,0,response5disk,,3,20,4,1,0,0,rectangle,20,4,1,0,0,20,4,1,0,0,0,82,82,17,1,,,,,,,,
,,,,,,,,,,,,,FF,,,,,,,,1.067,,,,,,,,,,,,,,,,,,,,,,60f660d407beb2fa01b360ef,6103770326b3a5b98dfa1790,2021-07-29_20h58.55.993,Simcolourproject_2stim_asymm_v5,2020.2.10,Win32,60,61025ae37ef11b136ea224fe,,,,,,,,,1377,49,-129,1,0,0,response3disk,,4,3,5,1,0,0,rectangle,3,5,1,0,0,3,5,1,0,0,0,83,83,33,1,,,,,,,,
,,,,,,,,,,,,,FF,,,,,,,,2.2,,,,,,,,,,,,,,,,,,,,,,60f660d407beb2fa01b360ef,6103770326b3a5b98dfa1790,2021-07-29_20h58.55.993,Simcolourproject_2stim_asymm_v5,2020.2.10,Win32,60,61025ae37ef11b136ea224fe,,,,,,,,,2457,133,49,1,0,0,response1disk,,6,-21,5,1,0,0,rectangle,-21,5,1,0,0,-21,5,1,0,0,0,84,84,6,1,,,,,,,,
,,,,,,,,,,,,,FF,,,,,,,,0.951,,,,,,,,,,,,,,,,,,,,,,60f660d407beb2fa01b360ef,6103770326b3a5b98dfa1790,2021-07-29_20h58.55.993,Simcolourproject_2stim_asymm_v5,2020.2.10,Win32,60,61025ae37ef11b136ea224fe,,,,,,,,,3885,139,63,1,0,0,response1disk,,6,4,13,1,0,0,rectangle,4,13,1,0,0,4,13,1,0,0,0,85,85,94,1,,,,,,,,
,,,,,,,,,,,,,FF,,,,,,,,0.967,,,,,,,,,,,,,,,,,,,,,,60f660d407beb2fa01b360ef,6103770326b3a5b98dfa1790,2021-07-29_20h58.55.993,Simcolourproject_2stim_asymm_v5,2020.2.10,Win32,60,61025ae37ef11b136ea224fe,,,,,,,,,458,-57,-127,1,0,0,response5disk,,3,5,-7,1,0,0,rectangle,5,-7,1,0,0,5,-7,1,0,0,0,86,86,23,1,,,,,,,,
,,,,,,,,,,,,,FF,,,,,,,,4.417,,,,,,,,,,,,,,,,,,,,,,60f660d407beb2fa01b360ef,6103770326b3a5b98dfa1790,2021-07-29_20h58.55.993,Simcolourproject_2stim_asymm_v5,2020.2.10,Win32,60,61025ae37ef11b136ea224fe,,,,,,,,,122,55,-141,1,0,0,response3disk,,4,-7,5,1,0,0,rectangle,-7,5,1,0,0,-7,5,1,0,0,0,87,87,9,1,,,,,,,,
,,,,,,,,,,,,,FF,,,,,,,,2.651,,,,,,,,,,,,,,,,,,,,,,60f660d407beb2fa01b360ef,6103770326b3a5b98dfa1790,2021-07-29_20h58.55.993,Simcolourproject_2stim_asymm_v5,2020.2.10,Win32,60,61025ae37ef11b136ea224fe,,,,,,,,,60,54,-138,1,0,0,response3disk,,4,11,5,1,0,0,rectangle,11,5,1,0,0,11,5,1,0,0,0,88,88,124,1,,,,,,,,
,,,,,,,,,,,,,FF,,,,,,,,1.517,,,,,,,,,,,,,,,,,,,,,,60f660d407beb2fa01b360ef,6103770326b3a5b98dfa1790,2021-07-29_20h58.55.993,Simcolourproject_2stim_asymm_v5,2020.2.10,Win32,60,61025ae37ef11b136ea224fe,,,,,,,,,3486,49,-142,1,0,0,response3disk,,4,18,2,1,0,0,rectangle,18,2,1,0,0,18,2,1,0,0,0,89,89,158,1,,,,,,,,
,,,,,,,,,,,,,FF,,,,,,,,0.866,,,,,,,,,,,,,,,,,,,,,,60f660d407beb2fa01b360ef,6103770326b3a5b98dfa1790,2021-07-29_20h58.55.993,Simcolourproject_2stim_asymm_v5,2020.2.10,Win32,60,61025ae37ef11b136ea224fe,,,,,,,,,2167,-119,56,1,0,0,response7disk,,1,7,8,1,0,0,rectangle,7,8,1,0,0,7,8,1,0,0,0,90,90,40,1,,,,,,,,
,,,,,,,,,,,,,FF,,,,,,,,0.85,,,,,,,,,,,,,,,,,,,,,,60f660d407beb2fa01b360ef,6103770326b3a5b98dfa1790,2021-07-29_20h58.55.993,Simcolourproject_2stim_asymm_v5,2020.2.10,Win32,60,61025ae37ef11b136ea224fe,,,,,,,,,3965,-119,52,1,0,0,response7disk,,1,-15,9,1,0,0,rectangle,-15,9,1,0,0,-15,9,1,0,0,0,91,91,52,1,,,,,,,,
,,,,,,,,,,,,,FF,,,,,,,,1.183,,,,,,,,,,,,,,,,,,,,,,60f660d407beb2fa01b360ef,6103770326b3a5b98dfa1790,2021-07-29_20h58.55.993,Simcolourproject_2stim_asymm_v5,2020.2.10,Win32,60,61025ae37ef11b136ea224fe,,,,,,,,,2740,53,-131,1,0,0,response3disk,,4,-1,5,1,0,0,rectangle,117,-49,1,0,0,-9,8,1,0,0,0,92,92,19,1,,response3disk_3,TRUE,5,5,"[269,93,226,224,63,219,312,310,302,212,184,63,295,198,64,162,175,82,133,66]",2.251,rectangle
,,,,,,,,,,,,,FF,,,,,,,,1.618,,,,,,,,,,,,,,,,,,,,,,60f660d407beb2fa01b360ef,6103770326b3a5b98dfa1790,2021-07-29_20h58.55.993,Simcolourproject_2stim_asymm_v5,2020.2.10,Win32,60,61025ae37ef11b136ea224fe,,,,,,,,,1535,-120,-49,1,0,0,response5disk,,2,-7,-5,1,0,0,rectangle,-7,-5,1,0,0,-7,-5,1,0,0,0,93,93,103,1,,,,,,,,
,,,,,,,,,,,,,FF,,,,,,,,1.2,,,,,,,,,,,,,,,,,,,,,,60f660d407beb2fa01b360ef,6103770326b3a5b98dfa1790,2021-07-29_20h58.55.993,Simcolourproject_2stim_asymm_v5,2020.2.10,Win32,60,61025ae37ef11b136ea224fe,,,,,,,,,1203,53,-148,1,0,0,response3disk,,4,-3,7,1,0,0,rectangle,-3,7,1,0,0,-3,7,1,0,0,0,94,94,120,1,,,,,,,,
,,,,,,,,,,,,,FF,,,,,,,,1.65,,,,,,,,,,,,,,,,,,,,,,60f660d407beb2fa01b360ef,6103770326b3a5b98dfa1790,2021-07-29_20h58.55.993,Simcolourproject_2stim_asymm_v5,2020.2.10,Win32,60,61025ae37ef11b136ea224fe,,,,,,,,,110,111,-53,1,0,0,response3disk,,5,-12,9,1,0,0,rectangle,-12,9,1,0,0,-12,9,1,0,0,0,95,95,51,1,,,,,,,,
,,,,,,,,,,,,,FF,,,,,,,,1.567,,,,,,,,,,,,,,,,,,,,,,60f660d407beb2fa01b360ef,6103770326b3a5b98dfa1790,2021-07-29_20h58.55.993,Simcolourproject_2stim_asymm_v5,2020.2.10,Win32,60,61025ae37ef11b136ea224fe,,,,,,,,,2058,55,152,1,0,0,response1disk,,7,1,3,1,0,0,rectangle,1,3,1,0,0,1,3,1,0,0,0,96,96,138,1,,,,,,,,
,,,,,,,,,,,,,FF,,,,,,,,0.949,,,,,,,,,,,,,,,,,,,,,,60f660d407beb2fa01b360ef,6103770326b3a5b98dfa1790,2021-07-29_20h58.55.993,Simcolourproject_2stim_asymm_v5,2020.2.10,Win32,60,61025ae37ef11b136ea224fe,,,,,,,,,2450,59,143,1,0,0,response1disk,,7,4,-1,1,0,0,rectangle,4,-1,1,0,0,4,-1,1,0,0,0,97,97,8,1,,,,,,,,
,,,,,,,,,,,,,FF,,,,,,,,1.334,,,,,,,,,,,,,,,,,,,,,,60f660d407beb2fa01b360ef,6103770326b3a5b98dfa1790,2021-07-29_20h58.55.993,Simcolourproject_2stim_asymm_v5,2020.2.10,Win32,60,61025ae37ef11b136ea224fe,,,,,,,,,2838,-125,-48,1,0,0,response5disk,,2,-23,4,1,0,0,rectangle,-23,4,1,0,0,-23,4,1,0,0,0,98,98,2,1,,,,,,,,
,,,,,,,,,,,,,FF,,,,,,,,0.733,,,,,,,,,,,,,,,,,,,,,,60f660d407beb2fa01b360ef,6103770326b3a5b98dfa1790,2021-07-29_20h58.55.993,Simcolourproject_2stim_asymm_v5,2020.2.10,Win32,60,61025ae37ef11b136ea224fe,,,,,,,,,2533,-72,-150,1,0,0,response5disk,,3,8,7,1,0,0,rectangle,8,7,1,0,0,8,7,1,0,0,0,99,99,110,1,,,,,,,,
,,,,,,,,,,,,,FF,,,,,,,,0.899,,,,,,,,,,,,,,,,,,,,,,60f660d407beb2fa01b360ef,6103770326b3a5b98dfa1790,2021-07-29_20h58.55.993,Simcolourproject_2stim_asymm_v5,2020.2.10,Win32,60,61025ae37ef11b136ea224fe,,,,,,,,,2522,52,-141,1,0,0,response3disk,,4,11,12,1,0,0,rectangle,11,12,1,0,0,11,12,1,0,0,0,100,100,66,1,,,,,,,,
,,,,,,,,,,,,,FF,,,,,,,,2.15,,,,,,,,,,,,,,,,,,,,,,60f660d407beb2fa01b360ef,6103770326b3a5b98dfa1790,2021-07-29_20h58.55.993,Simcolourproject_2stim_asymm_v5,2020.2.10,Win32,60,61025ae37ef11b136ea224fe,,,,,,,,,2650,115,-53,1,0,0,response3disk,,5,5,15,1,0,0,rectangle,5,15,1,0,0,5,15,1,0,0,0,101,101,28,1,,,,,,,,
,,,,,,,,,,,,,FF,,,,,,,,0.916,,,,,,,,,,,,,,,,,,,,,,60f660d407beb2fa01b360ef,6103770326b3a5b98dfa1790,2021-07-29_20h58.55.993,Simcolourproject_2stim_asymm_v5,2020.2.10,Win32,60,61025ae37ef11b136ea224fe,,,,,,,,,2033,-123,-49,1,0,0,response5disk,,2,-1,10,1,0,0,rectangle,-1,10,1,0,0,-1,10,1,0,0,0,102,102,142,1,,,,,,,,
,,,,,,,,,,,,,FF,,,,,,,,3.466,,,,,,,,,,,,,,,,,,,,,,60f660d407beb2fa01b360ef,6103770326b3a5b98dfa1790,2021-07-29_20h58.55.993,Simcolourproject_2stim_asymm_v5,2020.2.10,Win32,60,61025ae37ef11b136ea224fe,,,,,,,,,3683,54,137,1,0,0,response1disk,,7,-2,7,1,0,0,rectangle,-2,7,1,0,0,-2,7,1,0,0,0,103,103,131,1,,,,,,,,
,,,,,,,,,,,,,FF,,,,,,,,0.716,,,,,,,,,,,,,,,,,,,,,,60f660d407beb2fa01b360ef,6103770326b3a5b98dfa1790,2021-07-29_20h58.55.993,Simcolourproject_2stim_asymm_v5,2020.2.10,Win32,60,61025ae37ef11b136ea224fe,,,,,,,,,3797,59,148,1,0,0,response1disk,,7,0,7,1,0,0,rectangle,0,7,1,0,0,0,7,1,0,0,0,104,104,39,1,,,,,,,,
,,,,,,,,,,,,,FF,,,,,,,,2.066,,,,,,,,,,,,,,,,,,,,,,60f660d407beb2fa01b360ef,6103770326b3a5b98dfa1790,2021-07-29_20h58.55.993,Simcolourproject_2stim_asymm_v5,2020.2.10,Win32,60,61025ae37ef11b136ea224fe,,,,,,,,,2795,41,148,1,0,0,response1disk,,7,16,21,1,0,0,rectangle,16,21,1,0,0,16,21,1,0,0,0,105,105,15,1,,,,,,,,
,,,,,,,,,,,,,FF,,,,,,,,1.967,,,,,,,,,,,,,,,,,,,,,,60f660d407beb2fa01b360ef,6103770326b3a5b98dfa1790,2021-07-29_20h58.55.993,Simcolourproject_2stim_asymm_v5,2020.2.10,Win32,60,61025ae37ef11b136ea224fe,,,,,,,,,811,46,-141,1,0,0,response3disk,,4,-11,0,1,0,0,rectangle,-11,0,1,0,0,-11,0,1,0,0,0,106,106,121,1,,,,,,,,
,,,,,,,,,,,,,FF,,,,,,,,0.951,,,,,,,,,,,,,,,,,,,,,,60f660d407beb2fa01b360ef,6103770326b3a5b98dfa1790,2021-07-29_20h58.55.993,Simcolourproject_2stim_asymm_v5,2020.2.10,Win32,60,61025ae37ef11b136ea224fe,,,,,,,,,1496,52,147,1,0,0,response1disk,,7,12,8,1,0,0,rectangle,12,8,1,0,0,12,8,1,0,0,0,107,107,30,1,,,,,,,,
,,,,,,,,,,,,,FF,,,,,,,,0.883,,,,,,,,,,,,,,,,,,,,,,60f660d407beb2fa01b360ef,6103770326b3a5b98dfa1790,2021-07-29_20h58.55.993,Simcolourproject_2stim_asymm_v5,2020.2.10,Win32,60,61025ae37ef11b136ea224fe,,,,,,,,,1024,56,136,1,0,0,response1disk,,7,-5,-2,1,0,0,rectangle,-5,-2,1,0,0,-5,-2,1,0,0,0,108,108,22,1,,,,,,,,
,,,,,,,,,,,,,FF,,,,,,,,2.517,,,,,,,,,,,,,,,,,,,,,,60f660d407beb2fa01b360ef,6103770326b3a5b98dfa1790,2021-07-29_20h58.55.993,Simcolourproject_2stim_asymm_v5,2020.2.10,Win32,60,61025ae37ef11b136ea224fe,,,,,,,,,2644,129,50,1,0,0,response1disk,,6,11,8,1,0,0,rectangle,11,8,1,0,0,11,8,1,0,0,0,109,109,16,1,,,,,,,,
,,,,,,,,,,,,,FF,,,,,,,,0.817,,,,,,,,,,,,,,,,,,,,,,60f660d407beb2fa01b360ef,6103770326b3a5b98dfa1790,2021-07-29_20h58.55.993,Simcolourproject_2stim_asymm_v5,2020.2.10,Win32,60,61025ae37ef11b136ea224fe,,,,,,,,,3368,42,135,1,0,0,response1disk,,7,-3,-2,1,0,0,rectangle,-3,-2,1,0,0,-3,-2,1,0,0,0,110,110,102,1,,,,,,,,
,,,,,,,,,,,,,FF,,,,,,,,1.284,,,,,,,,,,,,,,,,,,,,,,60f660d407beb2fa01b360ef,6103770326b3a5b98dfa1790,2021-07-29_20h58.55.993,Simcolourproject_2stim_asymm_v5,2020.2.10,Win32,60,61025ae37ef11b136ea224fe,,,,,,,,,3718,120,-49,1,0,0,response3disk,,5,-6,7,1,0,0,rectangle,-6,7,1,0,0,-6,7,1,0,0,0,111,111,43,1,,,,,,,,
,,,,,,,,,,,,,FF,,,,,,,,0.751,,,,,,,,,,,,,,,,,,,,,,60f660d407beb2fa01b360ef,6103770326b3a5b98dfa1790,2021-07-29_20h58.55.993,Simcolourproject_2stim_asymm_v5,2020.2.10,Win32,60,61025ae37ef11b136ea224fe,,,,,,,,,3798,49,147,1,0,0,response1disk,,7,-6,-2,1,0,0,rectangle,-6,-2,1,0,0,-6,-2,1,0,0,0,112,112,105,1,,,,,,,,
,,,,,,,,,,,,,FF,,,,,,,,0.867,,,,,,,,,,,,,,,,,,,,,,60f660d407beb2fa01b360ef,6103770326b3a5b98dfa1790,2021-07-29_20h58.55.993,Simcolourproject_2stim_asymm_v5,2020.2.10,Win32,60,61025ae37ef11b136ea224fe,,,,,,,,,2983,63,127,1,0,0,response1disk,,7,-2,16,1,0,0,rectangle,-2,16,1,0,0,-2,16,1,0,0,0,113,113,116,1,,,,,,,,
,,,,,,,,,,,,,FF,,,,,,,,1.583,,,,,,,,,,,,,,,,,,,,,,60f660d407beb2fa01b360ef,6103770326b3a5b98dfa1790,2021-07-29_20h58.55.993,Simcolourproject_2stim_asymm_v5,2020.2.10,Win32,60,61025ae37ef11b136ea224fe,,,,,,,,,2040,-55,-127,1,0,0,response5disk,,3,-5,8,1,0,0,rectangle,-5,8,1,0,0,-5,8,1,0,0,0,114,114,63,1,,,,,,,,
,,,,,,,,,,,,,FF,,,,,,,,1.134,,,,,,,,,,,,,,,,,,,,,,60f660d407beb2fa01b360ef,6103770326b3a5b98dfa1790,2021-07-29_20h58.55.993,Simcolourproject_2stim_asymm_v5,2020.2.10,Win32,60,61025ae37ef11b136ea224fe,,,,,,,,,335,48,128,1,0,0,response1disk,,7,0,-3,1,0,0,rectangle,0,-3,1,0,0,0,-3,1,0,0,0,115,115,136,1,,,,,,,,
,,,,,,,,,,,,,FF,,,,,,,,1,,,,,,,,,,,,,,,,,,,,,,60f660d407beb2fa01b360ef,6103770326b3a5b98dfa1790,2021-07-29_20h58.55.993,Simcolourproject_2stim_asymm_v5,2020.2.10,Win32,60,61025ae37ef11b136ea224fe,,,,,,,,,1234,121,-48,1,0,0,response3disk,,5,10,8,1,0,0,rectangle,10,8,1,0,0,10,8,1,0,0,0,116,116,44,1,,,,,,,,
,,,,,,,,,,,,,FF,,,,,,,,0.8,,,,,,,,,,,,,,,,,,,,,,60f660d407beb2fa01b360ef,6103770326b3a5b98dfa1790,2021-07-29_20h58.55.993,Simcolourproject_2stim_asymm_v5,2020.2.10,Win32,60,61025ae37ef11b136ea224fe,,,,,,,,,2499,122,-51,1,0,0,response3disk,,5,-6,6,1,0,0,rectangle,-6,6,1,0,0,-6,6,1,0,0,0,117,117,127,1,,,,,,,,
,,,,,,,,,,,,,FF,,,,,,,,1.084,,,,,,,,,,,,,,,,,,,,,,60f660d407beb2fa01b360ef,6103770326b3a5b98dfa1790,2021-07-29_20h58.55.993,Simcolourproject_2stim_asymm_v5,2020.2.10,Win32,60,61025ae37ef11b136ea224fe,,,,,,,,,24,138,72,1,0,0,response1disk,,6,25,-5,1,0,0,rectangle,25,-5,1,0,0,25,-5,1,0,0,0,118,118,60,1,,,,,,,,
,,,,,,,,,,,,,FF,,,,,,,,1.418,,,,,,,,,,,,,,,,,,,,,,60f660d407beb2fa01b360ef,6103770326b3a5b98dfa1790,2021-07-29_20h58.55.993,Simcolourproject_2stim_asymm_v5,2020.2.10,Win32,60,61025ae37ef11b136ea224fe,,,,,,,,,2178,-60,-133,1,0,0,response5disk,,3,8,11,1,0,0,rectangle,8,11,1,0,0,8,11,1,0,0,0,119,119,69,1,,,,,,,,
,,,,,,,,,,,,,FF,,,,,,,,1.183,,,,,,,,,,,,,,,,,,,,,,60f660d407beb2fa01b360ef,6103770326b3a5b98dfa1790,2021-07-29_20h58.55.993,Simcolourproject_2stim_asymm_v5,2020.2.10,Win32,60,61025ae37ef11b136ea224fe,,,,,,,,,20,56,145,1,0,0,response1disk,,7,11,7,1,0,0,rectangle,11,7,1,0,0,11,7,1,0,0,0,120,120,91,1,,,,,,,,
,,,,,,,,,,,,,FF,,,,,,,,0.699,,,,,,,,,,,,,,,,,,,,,,60f660d407beb2fa01b360ef,6103770326b3a5b98dfa1790,2021-07-29_20h58.55.993,Simcolourproject_2stim_asymm_v5,2020.2.10,Win32,60,61025ae37ef11b136ea224fe,,,,,,,,,1719,52,132,1,0,0,response1disk,,7,1,15,1,0,0,rectangle,1,15,1,0,0,1,15,1,0,0,0,121,121,42,1,,,,,,,,
,,,,,,,,,,,,,FF,,,,,,,,1.45,,,,,,,,,,,,,,,,,,,,,,60f660d407beb2fa01b360ef,6103770326b3a5b98dfa1790,2021-07-29_20h58.55.993,Simcolourproject_2stim_asymm_v5,2020.2.10,Win32,60,61025ae37ef11b136ea224fe,,,,,,,,,3235,-58,-139,1,0,0,response5disk,,3,2,-6,1,0,0,rectangle,2,-6,1,0,0,2,-6,1,0,0,0,122,122,111,1,,,,,,,,
,,,,,,,,,,,,,FF,,,,,,,,1.969,,,,,,,,,,,,,,,,,,,,,,60f660d407beb2fa01b360ef,6103770326b3a5b98dfa1790,2021-07-29_20h58.55.993,Simcolourproject_2stim_asymm_v5,2020.2.10,Win32,60,61025ae37ef11b136ea224fe,,,,,,,,,4360,47,135,1,0,0,response1disk,,7,-20,-6,1,0,0,rectangle,-20,-6,1,0,0,-20,-6,1,0,0,0,123,123,118,1,,,,,,,,
,,,,,,,,,,,,,FF,,,,,,,,0.834,,,,,,,,,,,,,,,,,,,,,,60f660d407beb2fa01b360ef,6103770326b3a5b98dfa1790,2021-07-29_20h58.55.993,Simcolourproject_2stim_asymm_v5,2020.2.10,Win32,60,61025ae37ef11b136ea224fe,,,,,,,,,2557,141,62,1,0,0,response1disk,,6,16,-4,1,0,0,rectangle,16,-4,1,0,0,16,-4,1,0,0,0,124,124,57,1,,,,,,,,
,,,,,,,,,,,,,FF,,,,,,,,1.133,,,,,,,,,,,,,,,,,,,,,,60f660d407beb2fa01b360ef,6103770326b3a5b98dfa1790,2021-07-29_20h58.55.993,Simcolourproject_2stim_asymm_v5,2020.2.10,Win32,60,61025ae37ef11b136ea224fe,,,,,,,,,2501,107,-49,1,0,0,response3disk,,5,7,-11,1,0,0,rectangle,7,-11,1,0,0,7,-11,1,0,0,0,125,125,153,1,,,,,,,,
,,,,,,,,,,,,,FF,,,,,,,,1.099,,,,,,,,,,,,,,,,,,,,,,60f660d407beb2fa01b360ef,6103770326b3a5b98dfa1790,2021-07-29_20h58.55.993,Simcolourproject_2stim_asymm_v5,2020.2.10,Win32,60,61025ae37ef11b136ea224fe,,,,,,,,,1936,47,151,1,0,0,response1disk,,7,-2,2,1,0,0,rectangle,-2,2,1,0,0,-2,2,1,0,0,0,126,126,0,1,,,,,,,,
,,,,,,,,,,,,,FF,,,,,,,,0.717,,,,,,,,,,,,,,,,,,,,,,60f660d407beb2fa01b360ef,6103770326b3a5b98dfa1790,2021-07-29_20h58.55.993,Simcolourproject_2stim_asymm_v5,2020.2.10,Win32,60,61025ae37ef11b136ea224fe,,,,,,,,,841,55,145,1,0,0,response1disk,,7,-8,-19,1,0,0,rectangle,-8,-19,1,0,0,-8,-19,1,0,0,0,127,127,149,1,,,,,,,,
,,,,,,,,,,,,,FF,,,,,,,,0.634,,,,,,,,,,,,,,,,,,,,,,60f660d407beb2fa01b360ef,6103770326b3a5b98dfa1790,2021-07-29_20h58.55.993,Simcolourproject_2stim_asymm_v5,2020.2.10,Win32,60,61025ae37ef11b136ea224fe,,,,,,,,,52,51,154,1,0,0,response1disk,,7,8,15,1,0,0,rectangle,8,15,1,0,0,8,15,1,0,0,0,128,128,132,1,,,,,,,,
,,,,,,,,,,,,,FF,,,,,,,,0.767,,,,,,,,,,,,,,,,,,,,,,60f660d407beb2fa01b360ef,6103770326b3a5b98dfa1790,2021-07-29_20h58.55.993,Simcolourproject_2stim_asymm_v5,2020.2.10,Win32,60,61025ae37ef11b136ea224fe,,,,,,,,,3947,65,162,1,0,0,response1disk,,7,-5,-1,1,0,0,rectangle,-5,-1,1,0,0,-5,-1,1,0,0,0,129,129,5,1,,,,,,,,
,,,,,,,,,,,,,FF,,,,,,,,0.734,,,,,,,,,,,,,,,,,,,,,,60f660d407beb2fa01b360ef,6103770326b3a5b98dfa1790,2021-07-29_20h58.55.993,Simcolourproject_2stim_asymm_v5,2020.2.10,Win32,60,61025ae37ef11b136ea224fe,,,,,,,,,2079,55,133,1,0,0,response1disk,,7,8,5,1,0,0,rectangle,8,5,1,0,0,8,5,1,0,0,0,130,130,34,1,,,,,,,,
,,,,,,,,,,,,,FF,,,,,,,,0.967,,,,,,,,,,,,,,,,,,,,,,60f660d407beb2fa01b360ef,6103770326b3a5b98dfa1790,2021-07-29_20h58.55.993,Simcolourproject_2stim_asymm_v5,2020.2.10,Win32,60,61025ae37ef11b136ea224fe,,,,,,,,,3639,140,49,1,0,0,response1disk,,6,-3,-4,1,0,0,rectangle,-3,-4,1,0,0,-3,-4,1,0,0,0,131,131,11,1,,,,,,,,
,,,,,,,,,,,,,FF,,,,,,,,1.95,,,,,,,,,,,,,,,,,,,,,,60f660d407beb2fa01b360ef,6103770326b3a5b98dfa1790,2021-07-29_20h58.55.993,Simcolourproject_2stim_asymm_v5,2020.2.10,Win32,60,61025ae37ef11b136ea224fe,,,,,,,,,4305,-113,50,1,0,0,response7disk,,1,-3,-2,1,0,0,rectangle,-129,-48,1,0,0,6,2,1,0,0,0,132,132,130,1,,response5disk_3,TRUE,2,2,"[269,93,226,224,63,219,312,310,302,212,184,63,295,198,64,162,175,82,133,66]",2.733,rectangle
,,,,,,,,,,,,,FF,,,,,,,,1.183,,,,,,,,,,,,,,,,,,,,,,60f660d407beb2fa01b360ef,6103770326b3a5b98dfa1790,2021-07-29_20h58.55.993,Simcolourproject_2stim_asymm_v5,2020.2.10,Win32,60,61025ae37ef11b136ea224fe,,,,,,,,,2857,55,143,1,0,0,response1disk,,7,4,0,1,0,0,rectangle,4,0,1,0,0,4,0,1,0,0,0,133,133,20,1,,,,,,,,
,,,,,,,,,,,,,FF,,,,,,,,0.8,,,,,,,,,,,,,,,,,,,,,,60f660d407beb2fa01b360ef,6103770326b3a5b98dfa1790,2021-07-29_20h58.55.993,Simcolourproject_2stim_asymm_v5,2020.2.10,Win32,60,61025ae37ef11b136ea224fe,,,,,,,,,401,51,141,1,0,0,response1disk,,7,3,-17,1,0,0,rectangle,3,-17,1,0,0,3,-17,1,0,0,0,134,134,49,1,,,,,,,,
,,,,,,,,,,,,,FF,,,,,,,,0.65,,,,,,,,,,,,,,,,,,,,,,60f660d407beb2fa01b360ef,6103770326b3a5b98dfa1790,2021-07-29_20h58.55.993,Simcolourproject_2stim_asymm_v5,2020.2.10,Win32,60,61025ae37ef11b136ea224fe,,,,,,,,,3128,49,140,1,0,0,response1disk,,7,12,3,1,0,0,rectangle,12,3,1,0,0,12,3,1,0,0,0,135,135,89,1,,,,,,,,
,,,,,,,,,,,,,FF,,,,,,,,0.684,,,,,,,,,,,,,,,,,,,,,,60f660d407beb2fa01b360ef,6103770326b3a5b98dfa1790,2021-07-29_20h58.55.993,Simcolourproject_2stim_asymm_v5,2020.2.10,Win32,60,61025ae37ef11b136ea224fe,,,,,,,,,3534,47,145,1,0,0,response1disk,,7,-6,-3,1,0,0,rectangle,-6,-3,1,0,0,-6,-3,1,0,0,0,136,136,99,1,,,,,,,,
,,,,,,,,,,,,,FF,,,,,,,,0.767,,,,,,,,,,,,,,,,,,,,,,60f660d407beb2fa01b360ef,6103770326b3a5b98dfa1790,2021-07-29_20h58.55.993,Simcolourproject_2stim_asymm_v5,2020.2.10,Win32,60,61025ae37ef11b136ea224fe,,,,,,,,,111,56,151,1,0,0,response1disk,,7,-10,-16,1,0,0,rectangle,-10,-16,1,0,0,-10,-16,1,0,0,0,137,137,100,1,,,,,,,,
,,,,,,,,,,,,,FF,,,,,,,,1.284,,,,,,,,,,,,,,,,,,,,,,60f660d407beb2fa01b360ef,6103770326b3a5b98dfa1790,2021-07-29_20h58.55.993,Simcolourproject_2stim_asymm_v5,2020.2.10,Win32,60,61025ae37ef11b136ea224fe,,,,,,,,,3836,130,46,1,0,0,response1disk,,6,-6,0,1,0,0,rectangle,-6,0,1,0,0,-6,0,1,0,0,0,138,138,159,1,,,,,,,,
,,,,,,,,,,,,,FF,,,,,,,,0.75,,,,,,,,,,,,,,,,,,,,,,60f660d407beb2fa01b360ef,6103770326b3a5b98dfa1790,2021-07-29_20h58.55.993,Simcolourproject_2stim_asymm_v5,2020.2.10,Win32,60,61025ae37ef11b136ea224fe,,,,,,,,,560,50,143,1,0,0,response1disk,,7,6,2,1,0,0,rectangle,6,2,1,0,0,6,2,1,0,0,0,139,139,139,1,,,,,,,,
,,,,,,,,,,,,,FF,,,,,,,,0.717,,,,,,,,,,,,,,,,,,,,,,60f660d407beb2fa01b360ef,6103770326b3a5b98dfa1790,2021-07-29_20h58.55.993,Simcolourproject_2stim_asymm_v5,2020.2.10,Win32,60,61025ae37ef11b136ea224fe,,,,,,,,,3415,60,152,1,0,0,response1disk,,7,1,-1,1,0,0,rectangle,1,-1,1,0,0,1,-1,1,0,0,0,140,140,98,1,,,,,,,,
,,,,,,,,,,,,,FF,,,,,,,,0.783,,,,,,,,,,,,,,,,,,,,,,60f660d407beb2fa01b360ef,6103770326b3a5b98dfa1790,2021-07-29_20h58.55.993,Simcolourproject_2stim_asymm_v5,2020.2.10,Win32,60,61025ae37ef11b136ea224fe,,,,,,,,,1988,46,130,1,0,0,response1disk,,7,-1,17,1,0,0,rectangle,-1,17,1,0,0,-1,17,1,0,0,0,141,141,12,1,,,,,,,,
,,,,,,,,,,,,,FF,,,,,,,,1.533,,,,,,,,,,,,,,,,,,,,,,60f660d407beb2fa01b360ef,6103770326b3a5b98dfa1790,2021-07-29_20h58.55.993,Simcolourproject_2stim_asymm_v5,2020.2.10,Win32,60,61025ae37ef11b136ea224fe,,,,,,,,,1794,51,148,1,0,0,response1disk,,7,4,12,1,0,0,rectangle,4,12,1,0,0,4,12,1,0,0,0,142,142,108,1,,,,,,,,
,,,,,,,,,,,,,FF,,,,,,,,0.517,,,,,,,,,,,,,,,,,,,,,,60f660d407beb2fa01b360ef,6103770326b3a5b98dfa1790,2021-07-29_20h58.55.993,Simcolourproject_2stim_asymm_v5,2020.2.10,Win32,60,61025ae37ef11b136ea224fe,,,,,,,,,882,42,149,1,0,0,response1disk,,7,-2,6,1,0,0,rectangle,-2,6,1,0,0,-2,6,1,0,0,0,143,143,152,1,,,,,,,,
,,,,,,,,,,,,,FF,,,,,,,,1.151,,,,,,,,,,,,,,,,,,,,,,60f660d407beb2fa01b360ef,6103770326b3a5b98dfa1790,2021-07-29_20h58.55.993,Simcolourproject_2stim_asymm_v5,2020.2.10,Win32,60,61025ae37ef11b136ea224fe,,,,,,,,,713,54,133,1,0,0,response1disk,,7,4,6,1,0,0,rectangle,4,6,1,0,0,4,6,1,0,0,0,144,144,106,1,,,,,,,,
,,,,,,,,,,,,,FF,,,,,,,,0.75,,,,,,,,,,,,,,,,,,,,,,60f660d407beb2fa01b360ef,6103770326b3a5b98dfa1790,2021-07-29_20h58.55.993,Simcolourproject_2stim_asymm_v5,2020.2.10,Win32,60,61025ae37ef11b136ea224fe,,,,,,,,,1411,50,136,1,0,0,response1disk,,7,3,0,1,0,0,rectangle,3,0,1,0,0,3,0,1,0,0,0,145,145,72,1,,,,,,,,
,,,,,,,,,,,,,FF,,,,,,,,1.65,,,,,,,,,,,,,,,,,,,,,,60f660d407beb2fa01b360ef,6103770326b3a5b98dfa1790,2021-07-29_20h58.55.993,Simcolourproject_2stim_asymm_v5,2020.2.10,Win32,60,61025ae37ef11b136ea224fe,,,,,,,,,257,-116,64,1,0,0,response7disk,,1,3,1,1,0,0,rectangle,3,1,1,0,0,3,1,1,0,0,0,146,146,77,1,,,,,,,,
,,,,,,,,,,,,,FF,,,,,,,,0.799,,,,,,,,,,,,,,,,,,,,,,60f660d407beb2fa01b360ef,6103770326b3a5b98dfa1790,2021-07-29_20h58.55.993,Simcolourproject_2stim_asymm_v5,2020.2.10,Win32,60,61025ae37ef11b136ea224fe,,,,,,,,,3752,53,141,1,0,0,response1disk,,7,-13,0,1,0,0,rectangle,-13,0,1,0,0,-13,0,1,0,0,0,147,147,101,1,,,,,,,,
,,,,,,,,,,,,,FF,,,,,,,,0.883,,,,,,,,,,,,,,,,,,,,,,60f660d407beb2fa01b360ef,6103770326b3a5b98dfa1790,2021-07-29_20h58.55.993,Simcolourproject_2stim_asymm_v5,2020.2.10,Win32,60,61025ae37ef11b136ea224fe,,,,,,,,,1677,-123,57,1,0,0,response7disk,,1,1,-5,1,0,0,rectangle,1,-5,1,0,0,1,-5,1,0,0,0,148,148,147,1,,,,,,,,
,,,,,,,,,,,,,FF,,,,,,,,1.084,,,,,,,,,,,,,,,,,,,,,,60f660d407beb2fa01b360ef,6103770326b3a5b98dfa1790,2021-07-29_20h58.55.993,Simcolourproject_2stim_asymm_v5,2020.2.10,Win32,60,61025ae37ef11b136ea224fe,,,,,,,,,1019,60,134,1,0,0,response1disk,,7,8,-10,1,0,0,rectangle,8,-10,1,0,0,8,-10,1,0,0,0,149,149,3,1,,,,,,,,
,,,,,,,,,,,,,FF,,,,,,,,0.95,,,,,,,,,,,,,,,,,,,,,,60f660d407beb2fa01b360ef,6103770326b3a5b98dfa1790,2021-07-29_20h58.55.993,Simcolourproject_2stim_asymm_v5,2020.2.10,Win32,60,61025ae37ef11b136ea224fe,,,,,,,,,170,-121,59,1,0,0,response7disk,,1,4,4,1,0,0,rectangle,4,4,1,0,0,4,4,1,0,0,0,150,150,31,1,,,,,,,,
,,,,,,,,,,,,,FF,,,,,,,,2,,,,,,,,,,,,,,,,,,,,,,60f660d407beb2fa01b360ef,6103770326b3a5b98dfa1790,2021-07-29_20h58.55.993,Simcolourproject_2stim_asymm_v5,2020.2.10,Win32,60,61025ae37ef11b136ea224fe,,,,,,,,,554,119,-38,1,0,0,response3disk,,5,20,18,1,0,0,rectangle,20,18,1,0,0,20,18,1,0,0,0,151,151,123,1,,,,,,,,
,,,,,,,,,,,,,FF,,,,,,,,0.735,,,,,,,,,,,,,,,,,,,,,,60f660d407beb2fa01b360ef,6103770326b3a5b98dfa1790,2021-07-29_20h58.55.993,Simcolourproject_2stim_asymm_v5,2020.2.10,Win32,60,61025ae37ef11b136ea224fe,,,,,,,,,2023,41,135,1,0,0,response1disk,,7,-10,-9,1,0,0,rectangle,-10,-9,1,0,0,-10,-9,1,0,0,0,152,152,88,1,,,,,,,,
,,,,,,,,,,,,,FF,,,,,,,,1.683,,,,,,,,,,,,,,,,,,,,,,60f660d407beb2fa01b360ef,6103770326b3a5b98dfa1790,2021-07-29_20h58.55.993,Simcolourproject_2stim_asymm_v5,2020.2.10,Win32,60,61025ae37ef11b136ea224fe,,,,,,,,,2249,127,46,1,0,0,response1disk,,6,-8,3,1,0,0,rectangle,-8,3,1,0,0,-8,3,1,0,0,0,153,153,1,1,,,,,,,,
,,,,,,,,,,,,,FF,,,,,,,,1.017,,,,,,,,,,,,,,,,,,,,,,60f660d407beb2fa01b360ef,6103770326b3a5b98dfa1790,2021-07-29_20h58.55.993,Simcolourproject_2stim_asymm_v5,2020.2.10,Win32,60,61025ae37ef11b136ea224fe,,,,,,,,,4194,49,149,1,0,0,response1disk,,7,5,-2,1,0,0,rectangle,5,-2,1,0,0,5,-2,1,0,0,0,154,154,133,1,,,,,,,,
,,,,,,,,,,,,,FF,,,,,,,,0.734,,,,,,,,,,,,,,,,,,,,,,60f660d407beb2fa01b360ef,6103770326b3a5b98dfa1790,2021-07-29_20h58.55.993,Simcolourproject_2stim_asymm_v5,2020.2.10,Win32,60,61025ae37ef11b136ea224fe,,,,,,,,,3217,43,123,1,0,0,response1disk,,7,1,-21,1,0,0,rectangle,1,-21,1,0,0,1,-21,1,0,0,0,155,155,156,1,,,,,,,,
,,,,,,,,,,,,,FF,,,,,,,,1.134,,,,,,,,,,,,,,,,,,,,,,60f660d407beb2fa01b360ef,6103770326b3a5b98dfa1790,2021-07-29_20h58.55.993,Simcolourproject_2stim_asymm_v5,2020.2.10,Win32,60,61025ae37ef11b136ea224fe,,,,,,,,,1589,131,58,1,0,0,response1disk,,6,16,16,1,0,0,rectangle,16,16,1,0,0,16,16,1,0,0,0,156,156,125,1,,,,,,,,
,,,,,,,,,,,,,FF,,,,,,,,0.7,,,,,,,,,,,,,,,,,,,,,,60f660d407beb2fa01b360ef,6103770326b3a5b98dfa1790,2021-07-29_20h58.55.993,Simcolourproject_2stim_asymm_v5,2020.2.10,Win32,60,61025ae37ef11b136ea224fe,,,,,,,,,2798,53,138,1,0,0,response1disk,,7,4,11,1,0,0,rectangle,4,11,1,0,0,4,11,1,0,0,0,157,157,143,1,,,,,,,,
,,,,,,,,,,,,,FF,,,,,,,,1.183,,,,,,,,,,,,,,,,,,,,,,60f660d407beb2fa01b360ef,6103770326b3a5b98dfa1790,2021-07-29_20h58.55.993,Simcolourproject_2stim_asymm_v5,2020.2.10,Win32,60,61025ae37ef11b136ea224fe,,,,,,,,,3540,34,137,1,0,0,response1disk,,7,-30,-6,1,0,0,rectangle,-30,-6,1,0,0,-30,-6,1,0,0,0,158,158,85,1,,,,,,,,
,,,,,,,,,,,,,FF,,,,,,,,1.267,,,,,,,,,,,,,,,,,,,,,,60f660d407beb2fa01b360ef,6103770326b3a5b98dfa1790,2021-07-29_20h58.55.993,Simcolourproject_2stim_asymm_v5,2020.2.10,Win32,60,61025ae37ef11b136ea224fe,,,,,,,,,4171,137,71,1,0,0,response1disk,,6,-20,-5,1,0,0,rectangle,-20,-5,1,0,0,-20,-5,1,0,0,0,159,159,47,1,,,,,,,,
,,,,,,,,,,,,,FF,,,,,,,,1.066,,,,,,,,,,,,,,,,,,,,,,60f660d407beb2fa01b360ef,6103770326b3a5b98dfa1790,2021-07-29_20h58.55.993,Simcolourproject_2stim_asymm_v5,2020.2.10,Win32,60,61025ae37ef11b136ea224fe,,,,,,,,,3328,120,-52,1,0,0,response3disk,,5,6,10,1,0,0,rectangle,6,10,1,0,0,6,10,1,0,0,1,0,160,157,1,,,,,,,,
,,,,,,,,,,,,,FF,,,,,,,,0.817,,,,,,,,,,,,,,,,,,,,,,60f660d407beb2fa01b360ef,6103770326b3a5b98dfa1790,2021-07-29_20h58.55.993,Simcolourproject_2stim_asymm_v5,2020.2.10,Win32,60,61025ae37ef11b136ea224fe,,,,,,,,,1327,111,-45,1,0,0,response3disk,,5,1,16,1,0,0,rectangle,-108,52,1,0,0,-4,0,1,0,0,1,1,161,107,1,,response7disk_3,TRUE,1,1,"[269,93,226,224,63,219,312,310,302,212,184,63,295,198,64,162,175,82,133,66]",1.232,rectangle
,,,,,,,,,,,,,FF,,,,,,,,0.85,,,,,,,,,,,,,,,,,,,,,,60f660d407beb2fa01b360ef,6103770326b3a5b98dfa1790,2021-07-29_20h58.55.993,Simcolourproject_2stim_asymm_v5,2020.2.10,Win32,60,61025ae37ef11b136ea224fe,,,,,,,,,3027,72,126,1,0,0,response1disk,,7,3,-7,1,0,0,rectangle,3,-7,1,0,0,3,-7,1,0,0,1,2,162,19,1,,,,,,,,
,,,,,,,,,,,,,FF,,,,,,,,0.833,,,,,,,,,,,,,,,,,,,,,,60f660d407beb2fa01b360ef,6103770326b3a5b98dfa1790,2021-07-29_20h58.55.993,Simcolourproject_2stim_asymm_v5,2020.2.10,Win32,60,61025ae37ef11b136ea224fe,,,,,,,,,2308,99,-43,1,0,0,response3disk,,5,-14,7,1,0,0,rectangle,-14,7,1,0,0,-14,7,1,0,0,1,3,163,52,1,,,,,,,,
,,,,,,,,,,,,,FF,,,,,,,,0.733,,,,,,,,,,,,,,,,,,,,,,60f660d407beb2fa01b360ef,6103770326b3a5b98dfa1790,2021-07-29_20h58.55.993,Simcolourproject_2stim_asymm_v5,2020.2.10,Win32,60,61025ae37ef11b136ea224fe,,,,,,,,,609,108,-45,1,0,0,response3disk,,5,10,3,1,0,0,rectangle,10,3,1,0,0,10,3,1,0,0,1,4,164,156,1,,,,,,,,
,,,,,,,,,,,,,FF,,,,,,,,1.149,,,,,,,,,,,,,,,,,,,,,,60f660d407beb2fa01b360ef,6103770326b3a5b98dfa1790,2021-07-29_20h58.55.993,Simcolourproject_2stim_asymm_v5,2020.2.10,Win32,60,61025ae37ef11b136ea224fe,,,,,,,,,2250,46,-118,1,0,0,response3disk,,4,-4,6,1,0,0,rectangle,-4,6,1,0,0,-4,6,1,0,0,1,5,165,112,1,,,,,,,,
,,,,,,,,,,,,,FF,,,,,,,,1.367,,,,,,,,,,,,,,,,,,,,,,60f660d407beb2fa01b360ef,6103770326b3a5b98dfa1790,2021-07-29_20h58.55.993,Simcolourproject_2stim_asymm_v5,2020.2.10,Win32,60,61025ae37ef11b136ea224fe,,,,,,,,,1777,48,147,1,0,0,response1disk,,7,-2,10,1,0,0,rectangle,-2,10,1,0,0,-2,10,1,0,0,1,6,166,89,1,,,,,,,,
,,,,,,,,,,,,,FF,,,,,,,,1.067,,,,,,,,,,,,,,,,,,,,,,60f660d407beb2fa01b360ef,6103770326b3a5b98dfa1790,2021-07-29_20h58.55.993,Simcolourproject_2stim_asymm_v5,2020.2.10,Win32,60,61025ae37ef11b136ea224fe,,,,,,,,,2604,-50,-126,1,0,0,response5disk,,3,7,11,1,0,0,rectangle,7,11,1,0,0,7,11,1,0,0,1,7,167,88,1,,,,,,,,
,,,,,,,,,,,,,FF,,,,,,,,0.7,,,,,,,,,,,,,,,,,,,,,,60f660d407beb2fa01b360ef,6103770326b3a5b98dfa1790,2021-07-29_20h58.55.993,Simcolourproject_2stim_asymm_v5,2020.2.10,Win32,60,61025ae37ef11b136ea224fe,,,,,,,,,3823,51,144,1,0,0,response1disk,,7,-2,-1,1,0,0,rectangle,-2,-1,1,0,0,-2,-1,1,0,0,1,8,168,86,1,,,,,,,,
,,,,,,,,,,,,,FF,,,,,,,,0.818,,,,,,,,,,,,,,,,,,,,,,60f660d407beb2fa01b360ef,6103770326b3a5b98dfa1790,2021-07-29_20h58.55.993,Simcolourproject_2stim_asymm_v5,2020.2.10,Win32,60,61025ae37ef11b136ea224fe,,,,,,,,,4289,59,135,1,0,0,response1disk,,7,1,-14,1,0,0,rectangle,1,-14,1,0,0,1,-14,1,0,0,1,9,169,73,1,,,,,,,,
,,,,,,,,,,,,,FF,,,,,,,,0.734,,,,,,,,,,,,,,,,,,,,,,60f660d407beb2fa01b360ef,6103770326b3a5b98dfa1790,2021-07-29_20h58.55.993,Simcolourproject_2stim_asymm_v5,2020.2.10,Win32,60,61025ae37ef11b136ea224fe,,,,,,,,,641,141,63,1,0,0,response1disk,,6,-25,-2,1,0,0,rectangle,-25,-2,1,0,0,-25,-2,1,0,0,1,10,170,82,1,,,,,,,,
,,,,,,,,,,,,,FF,,,,,,,,0.833,,,,,,,,,,,,,,,,,,,,,,60f660d407beb2fa01b360ef,6103770326b3a5b98dfa1790,2021-07-29_20h58.55.993,Simcolourproject_2stim_asymm_v5,2020.2.10,Win32,60,61025ae37ef11b136ea224fe,,,,,,,,,16,139,69,1,0,0,response1disk,,6,-1,10,1,0,0,rectangle,-1,10,1,0,0,-1,10,1,0,0,1,11,171,74,1,,,,,,,,
,,,,,,,,,,,,,FF,,,,,,,,0.867,,,,,,,,,,,,,,,,,,,,,,60f660d407beb2fa01b360ef,6103770326b3a5b98dfa1790,2021-07-29_20h58.55.993,Simcolourproject_2stim_asymm_v5,2020.2.10,Win32,60,61025ae37ef11b136ea224fe,,,,,,,,,2397,58,130,1,0,0,response1disk,,7,-32,-20,1,0,0,rectangle,-32,-20,1,0,0,-32,-20,1,0,0,1,12,172,36,1,,,,,,,,
,,,,,,,,,,,,,FF,,,,,,,,0.85,,,,,,,,,,,,,,,,,,,,,,60f660d407beb2fa01b360ef,6103770326b3a5b98dfa1790,2021-07-29_20h58.55.993,Simcolourproject_2stim_asymm_v5,2020.2.10,Win32,60,61025ae37ef11b136ea224fe,,,,,,,,,394,50,134,1,0,0,response1disk,,7,-1,-4,1,0,0,rectangle,-1,-4,1,0,0,-1,-4,1,0,0,1,13,173,109,1,,,,,,,,
,,,,,,,,,,,,,FF,,,,,,,,1,,,,,,,,,,,,,,,,,,,,,,60f660d407beb2fa01b360ef,6103770326b3a5b98dfa1790,2021-07-29_20h58.55.993,Simcolourproject_2stim_asymm_v5,2020.2.10,Win32,60,61025ae37ef11b136ea224fe,,,,,,,,,2418,-50,153,1,0,0,response7disk,,0,-8,9,1,0,0,rectangle,114,-47,1,0,0,8,5,1,0,0,1,14,174,121,1,,response3disk_3,TRUE,5,5,"[269,93,226,224,63,219,312,310,302,212,184,63,295,198,64,162,175,82,133,66]",1.933,rectangle
,,,,,,,,,,,,,FF,,,,,,,,1.367,,,,,,,,,,,,,,,,,,,,,,60f660d407beb2fa01b360ef,6103770326b3a5b98dfa1790,2021-07-29_20h58.55.993,Simcolourproject_2stim_asymm_v5,2020.2.10,Win32,60,61025ae37ef11b136ea224fe,,,,,,,,,2020,60,132,1,0,0,response1disk,,7,17,19,1,0,0,rectangle,17,19,1,0,0,17,19,1,0,0,1,15,175,44,1,,,,,,,,
,,,,,,,,,,,,,FF,,,,,,,,0.801,,,,,,,,,,,,,,,,,,,,,,60f660d407beb2fa01b360ef,6103770326b3a5b98dfa1790,2021-07-29_20h58.55.993,Simcolourproject_2stim_asymm_v5,2020.2.10,Win32,60,61025ae37ef11b136ea224fe,,,,,,,,,1213,-137,63,1,0,0,response7disk,,1,-2,4,1,0,0,rectangle,-2,4,1,0,0,-2,4,1,0,0,1,16,176,149,1,,,,,,,,
,,,,,,,,,,,,,FF,,,,,,,,1.317,,,,,,,,,,,,,,,,,,,,,,60f660d407beb2fa01b360ef,6103770326b3a5b98dfa1790,2021-07-29_20h58.55.993,Simcolourproject_2stim_asymm_v5,2020.2.10,Win32,60,61025ae37ef11b136ea224fe,,,,,,,,,1507,120,-37,1,0,0,response3disk,,5,12,8,1,0,0,rectangle,12,8,1,0,0,12,8,1,0,0,1,17,177,155,1,,,,,,,,
,,,,,,,,,,,,,FF,,,,,,,,0.8,,,,,,,,,,,,,,,,,,,,,,60f660d407beb2fa01b360ef,6103770326b3a5b98dfa1790,2021-07-29_20h58.55.993,Simcolourproject_2stim_asymm_v5,2020.2.10,Win32,60,61025ae37ef11b136ea224fe,,,,,,,,,126,63,145,1,0,0,response1disk,,7,10,4,1,0,0,rectangle,10,4,1,0,0,10,4,1,0,0,1,18,178,117,1,,,,,,,,
,,,,,,,,,,,,,FF,,,,,,,,1.417,,,,,,,,,,,,,,,,,,,,,,60f660d407beb2fa01b360ef,6103770326b3a5b98dfa1790,2021-07-29_20h58.55.993,Simcolourproject_2stim_asymm_v5,2020.2.10,Win32,60,61025ae37ef11b136ea224fe,,,,,,,,,2496,144,51,1,0,0,response1disk,,6,-3,2,1,0,0,rectangle,-3,2,1,0,0,-3,2,1,0,0,1,19,179,10,1,,,,,,,,
,,,,,,,,,,,,,FF,,,,,,,,78.783,,,,,,,,,,,,,,,,,,,,,,60f660d407beb2fa01b360ef,6103770326b3a5b98dfa1790,2021-07-29_20h58.55.993,Simcolourproject_2stim_asymm_v5,2020.2.10,Win32,60,61025ae37ef11b136ea224fe,,,,,,,,,496,71,-127,1,0,0,response3disk,,4,1,17,1,0,0,rectangle,1,17,1,0,0,1,17,1,0,0,1,20,180,80,1,,,,,,,,
,,,,,,,,,,,,,FF,,,,,,,,0.95,,,,,,,,,,,,,,,,,,,,,,60f660d407beb2fa01b360ef,6103770326b3a5b98dfa1790,2021-07-29_20h58.55.993,Simcolourproject_2stim_asymm_v5,2020.2.10,Win32,60,61025ae37ef11b136ea224fe,,,,,,,,,3660,-137,-37,1,0,0,response5disk,,2,13,10,1,0,0,rectangle,13,10,1,0,0,13,10,1,0,0,1,21,181,46,1,,,,,,,,
,,,,,,,,,,,,,FF,,,,,,,,0.783,,,,,,,,,,,,,,,,,,,,,,60f660d407beb2fa01b360ef,6103770326b3a5b98dfa1790,2021-07-29_20h58.55.993,Simcolourproject_2stim_asymm_v5,2020.2.10,Win32,60,61025ae37ef11b136ea224fe,,,,,,,,,1256,60,138,1,0,0,response1disk,,7,-6,3,1,0,0,rectangle,-6,3,1,0,0,-6,3,1,0,0,1,22,182,91,1,,,,,,,,
,,,,,,,,,,,,,FF,,,,,,,,0.834,,,,,,,,,,,,,,,,,,,,,,60f660d407beb2fa01b360ef,6103770326b3a5b98dfa1790,2021-07-29_20h58.55.993,Simcolourproject_2stim_asymm_v5,2020.2.10,Win32,60,61025ae37ef11b136ea224fe,,,,,,,,,467,59,140,1,0,0,response1disk,,7,-11,-3,1,0,0,rectangle,-57,-134,1,0,0,-7,4,1,0,0,1,23,183,61,1,,response5disk_3,TRUE,3,3,"[269,93,226,224,63,219,312,310,302,212,184,63,295,198,64,162,175,82,133,66]",2.699,rectangle
,,,,,,,,,,,,,FF,,,,,,,,0.9,,,,,,,,,,,,,,,,,,,,,,60f660d407beb2fa01b360ef,6103770326b3a5b98dfa1790,2021-07-29_20h58.55.993,Simcolourproject_2stim_asymm_v5,2020.2.10,Win32,60,61025ae37ef11b136ea224fe,,,,,,,,,45,54,141,1,0,0,response1disk,,7,-12,-4,1,0,0,rectangle,-12,-4,1,0,0,-12,-4,1,0,0,1,24,184,68,1,,,,,,,,
,,,,,,,,,,,,,FF,,,,,,,,1.467,,,,,,,,,,,,,,,,,,,,,,60f660d407beb2fa01b360ef,6103770326b3a5b98dfa1790,2021-07-29_20h58.55.993,Simcolourproject_2stim_asymm_v5,2020.2.10,Win32,60,61025ae37ef11b136ea224fe,,,,,,,,,546,127,-43,1,0,0,response3disk,,5,-3,17,1,0,0,rectangle,-3,17,1,0,0,-3,17,1,0,0,1,25,185,131,1,,,,,,,,
,,,,,,,,,,,,,FF,,,,,,,,1.466,,,,,,,,,,,,,,,,,,,,,,60f660d407beb2fa01b360ef,6103770326b3a5b98dfa1790,2021-07-29_20h58.55.993,Simcolourproject_2stim_asymm_v5,2020.2.10,Win32,60,61025ae37ef11b136ea224fe,,,,,,,,,1530,-61,-122,1,0,0,response5disk,,3,-5,5,1,0,0,rectangle,-5,5,1,0,0,-5,5,1,0,0,1,26,186,26,1,,,,,,,,
,,,,,,,,,,,,,FF,,,,,,,,0.899,,,,,,,,,,,,,,,,,,,,,,60f660d407beb2fa01b360ef,6103770326b3a5b98dfa1790,2021-07-29_20h58.55.993,Simcolourproject_2stim_asymm_v5,2020.2.10,Win32,60,61025ae37ef11b136ea224fe,,,,,,,,,3101,-52,-137,1,0,0,response5disk,,3,12,11,1,0,0,rectangle,12,11,1,0,0,12,11,1,0,0,1,27,187,101,1,,,,,,,,
,,,,,,,,,,,,,FF,,,,,,,,1,,,,,,,,,,,,,,,,,,,,,,60f660d407beb2fa01b360ef,6103770326b3a5b98dfa1790,2021-07-29_20h58.55.993,Simcolourproject_2stim_asymm_v5,2020.2.10,Win32,60,61025ae37ef11b136ea224fe,,,,,,,,,3278,49,141,1,0,0,response1disk,,7,-5,8,1,0,0,rectangle,-5,8,1,0,0,-5,8,1,0,0,1,28,188,134,1,,,,,,,,
,,,,,,,,,,,,,FF,,,,,,,,0.633,,,,,,,,,,,,,,,,,,,,,,60f660d407beb2fa01b360ef,6103770326b3a5b98dfa1790,2021-07-29_20h58.55.993,Simcolourproject_2stim_asymm_v5,2020.2.10,Win32,60,61025ae37ef11b136ea224fe,,,,,,,,,859,51,135,1,0,0,response1disk,,7,-10,2,1,0,0,rectangle,-10,2,1,0,0,-10,2,1,0,0,1,29,189,151,1,,,,,,,,
,,,,,,,,,,,,,FF,,,,,,,,0.666,,,,,,,,,,,,,,,,,,,,,,60f660d407beb2fa01b360ef,6103770326b3a5b98dfa1790,2021-07-29_20h58.55.993,Simcolourproject_2stim_asymm_v5,2020.2.10,Win32,60,61025ae37ef11b136ea224fe,,,,,,,,,4035,47,130,1,0,0,response1disk,,7,1,-4,1,0,0,rectangle,1,-4,1,0,0,1,-4,1,0,0,1,30,190,23,1,,,,,,,,
,,,,,,,,,,,,,FF,,,,,,,,0.651,,,,,,,,,,,,,,,,,,,,,,60f660d407beb2fa01b360ef,6103770326b3a5b98dfa1790,2021-07-29_20h58.55.993,Simcolourproject_2stim_asymm_v5,2020.2.10,Win32,60,61025ae37ef11b136ea224fe,,,,,,,,,3488,58,133,1,0,0,response1disk,,7,-4,1,1,0,0,rectangle,-4,1,1,0,0,-4,1,1,0,0,1,31,191,97,1,,,,,,,,
,,,,,,,,,,,,,FF,,,,,,,,0.717,,,,,,,,,,,,,,,,,,,,,,60f660d407beb2fa01b360ef,6103770326b3a5b98dfa1790,2021-07-29_20h58.55.993,Simcolourproject_2stim_asymm_v5,2020.2.10,Win32,60,61025ae37ef11b136ea224fe,,,,,,,,,1431,46,135,1,0,0,response1disk,,7,-12,8,1,0,0,rectangle,-12,8,1,0,0,-12,8,1,0,0,1,32,192,29,1,,,,,,,,
,,,,,,,,,,,,,FF,,,,,,,,0.583,,,,,,,,,,,,,,,,,,,,,,60f660d407beb2fa01b360ef,6103770326b3a5b98dfa1790,2021-07-29_20h58.55.993,Simcolourproject_2stim_asymm_v5,2020.2.10,Win32,60,61025ae37ef11b136ea224fe,,,,,,,,,2176,77,144,1,0,0,response1disk,,7,-4,11,1,0,0,rectangle,-4,11,1,0,0,-4,11,1,0,0,1,33,193,94,1,,,,,,,,
,,,,,,,,,,,,,FF,,,,,,,,0.651,,,,,,,,,,,,,,,,,,,,,,60f660d407beb2fa01b360ef,6103770326b3a5b98dfa1790,2021-07-29_20h58.55.993,Simcolourproject_2stim_asymm_v5,2020.2.10,Win32,60,61025ae37ef11b136ea224fe,,,,,,,,,146,42,143,1,0,0,response1disk,,7,17,16,1,0,0,rectangle,17,16,1,0,0,17,16,1,0,0,1,34,194,142,1,,,,,,,,
,,,,,,,,,,,,,FF,,,,,,,,0.867,,,,,,,,,,,,,,,,,,,,,,60f660d407beb2fa01b360ef,6103770326b3a5b98dfa1790,2021-07-29_20h58.55.993,Simcolourproject_2stim_asymm_v5,2020.2.10,Win32,60,61025ae37ef11b136ea224fe,,,,,,,,,1451,-126,53,1,0,0,response7disk,,1,5,3,1,0,0,rectangle,5,3,1,0,0,5,3,1,0,0,1,35,195,136,1,,,,,,,,
,,,,,,,,,,,,,FF,,,,,,,,0.784,,,,,,,,,,,,,,,,,,,,,,60f660d407beb2fa01b360ef,6103770326b3a5b98dfa1790,2021-07-29_20h58.55.993,Simcolourproject_2stim_asymm_v5,2020.2.10,Win32,60,61025ae37ef11b136ea224fe,,,,,,,,,1087,48,144,1,0,0,response1disk,,7,2,15,1,0,0,rectangle,2,15,1,0,0,2,15,1,0,0,1,36,196,138,1,,,,,,,,
,,,,,,,,,,,,,FF,,,,,,,,1.783,,,,,,,,,,,,,,,,,,,,,,60f660d407beb2fa01b360ef,6103770326b3a5b98dfa1790,2021-07-29_20h58.55.993,Simcolourproject_2stim_asymm_v5,2020.2.10,Win32,60,61025ae37ef11b136ea224fe,,,,,,,,,912,140,43,1,0,0,response1disk,,6,-8,2,1,0,0,rectangle,54,-132,1,0,0,-8,9,1,0,0,1,37,197,53,1,,response3disk_3,TRUE,4,4,"[269,93,226,224,63,219,312,310,302,212,184,63,295,198,64,162,175,82,133,66]",2.433,rectangle
,,,,,,,,,,,,,FF,,,,,,,,2.684,,,,,,,,,,,,,,,,,,,,,,60f660d407beb2fa01b360ef,6103770326b3a5b98dfa1790,2021-07-29_20h58.55.993,Simcolourproject_2stim_asymm_v5,2020.2.10,Win32,60,61025ae37ef11b136ea224fe,,,,,,,,,2373,130,63,1,0,0,response1disk,,6,14,2,1,0,0,rectangle,14,2,1,0,0,14,2,1,0,0,1,38,198,116,1,,,,,,,,
,,,,,,,,,,,,,FF,,,,,,,,0.751,,,,,,,,,,,,,,,,,,,,,,60f660d407beb2fa01b360ef,6103770326b3a5b98dfa1790,2021-07-29_20h58.55.993,Simcolourproject_2stim_asymm_v5,2020.2.10,Win32,60,61025ae37ef11b136ea224fe,,,,,,,,,2032,-108,54,1,0,0,response7disk,,1,-5,-7,1,0,0,rectangle,-5,-7,1,0,0,-5,-7,1,0,0,1,39,199,108,1,,,,,,,,
,,,,,,,,,,,,,FF,,,,,,,,0.8,,,,,,,,,,,,,,,,,,,,,,60f660d407beb2fa01b360ef,6103770326b3a5b98dfa1790,2021-07-29_20h58.55.993,Simcolourproject_2stim_asymm_v5,2020.2.10,Win32,60,61025ae37ef11b136ea224fe,,,,,,,,,2575,39,153,1,0,0,response1disk,,7,9,4,1,0,0,rectangle,9,4,1,0,0,9,4,1,0,0,1,40,200,139,1,,,,,,,,
,,,,,,,,,,,,,FF,,,,,,,,0.767,,,,,,,,,,,,,,,,,,,,,,60f660d407beb2fa01b360ef,6103770326b3a5b98dfa1790,2021-07-29_20h58.55.993,Simcolourproject_2stim_asymm_v5,2020.2.10,Win32,60,61025ae37ef11b136ea224fe,,,,,,,,,1433,54,152,1,0,0,response1disk,,7,-2,3,1,0,0,rectangle,-2,3,1,0,0,-2,3,1,0,0,1,41,201,96,1,,,,,,,,
,,,,,,,,,,,,,FF,,,,,,,,0.766,,,,,,,,,,,,,,,,,,,,,,60f660d407beb2fa01b360ef,6103770326b3a5b98dfa1790,2021-07-29_20h58.55.993,Simcolourproject_2stim_asymm_v5,2020.2.10,Win32,60,61025ae37ef11b136ea224fe,,,,,,,,,1165,60,156,1,0,0,response1disk,,7,4,17,1,0,0,rectangle,4,17,1,0,0,4,17,1,0,0,1,42,202,55,1,,,,,,,,
,,,,,,,,,,,,,FF,,,,,,,,0.751,,,,,,,,,,,,,,,,,,,,,,60f660d407beb2fa01b360ef,6103770326b3a5b98dfa1790,2021-07-29_20h58.55.993,Simcolourproject_2stim_asymm_v5,2020.2.10,Win32,60,61025ae37ef11b136ea224fe,,,,,,,,,4141,-122,56,1,0,0,response7disk,,1,-1,-4,1,0,0,rectangle,-1,-4,1,0,0,-1,-4,1,0,0,1,43,203,154,1,,,,,,,,
,,,,,,,,,,,,,FF,,,,,,,,0.85,,,,,,,,,,,,,,,,,,,,,,60f660d407beb2fa01b360ef,6103770326b3a5b98dfa1790,2021-07-29_20h58.55.993,Simcolourproject_2stim_asymm_v5,2020.2.10,Win32,60,61025ae37ef11b136ea224fe,,,,,,,,,4027,-98,46,1,0,0,response7disk,,1,23,-12,1,0,0,rectangle,23,-12,1,0,0,23,-12,1,0,0,1,44,204,95,1,,,,,,,,
,,,,,,,,,,,,,FF,,,,,,,,0.583,,,,,,,,,,,,,,,,,,,,,,60f660d407beb2fa01b360ef,6103770326b3a5b98dfa1790,2021-07-29_20h58.55.993,Simcolourproject_2stim_asymm_v5,2020.2.10,Win32,60,61025ae37ef11b136ea224fe,,,,,,,,,3334,62,155,1,0,0,response1disk,,7,10,12,1,0,0,rectangle,10,12,1,0,0,10,12,1,0,0,1,45,205,7,1,,,,,,,,
,,,,,,,,,,,,,FF,,,,,,,,0.551,,,,,,,,,,,,,,,,,,,,,,60f660d407beb2fa01b360ef,6103770326b3a5b98dfa1790,2021-07-29_20h58.55.993,Simcolourproject_2stim_asymm_v5,2020.2.10,Win32,60,61025ae37ef11b136ea224fe,,,,,,,,,333,54,156,1,0,0,response1disk,,7,5,2,1,0,0,rectangle,5,2,1,0,0,5,2,1,0,0,1,46,206,67,1,,,,,,,,
,,,,,,,,,,,,,FF,,,,,,,,0.984,,,,,,,,,,,,,,,,,,,,,,60f660d407beb2fa01b360ef,6103770326b3a5b98dfa1790,2021-07-29_20h58.55.993,Simcolourproject_2stim_asymm_v5,2020.2.10,Win32,60,61025ae37ef11b136ea224fe,,,,,,,,,3855,54,130,1,0,0,response1disk,,7,9,-5,1,0,0,rectangle,9,-5,1,0,0,9,-5,1,0,0,1,47,207,84,1,,,,,,,,
,,,,,,,,,,,,,FF,,,,,,,,0.767,,,,,,,,,,,,,,,,,,,,,,60f660d407beb2fa01b360ef,6103770326b3a5b98dfa1790,2021-07-29_20h58.55.993,Simcolourproject_2stim_asymm_v5,2020.2.10,Win32,60,61025ae37ef11b136ea224fe,,,,,,,,,632,-118,57,1,0,0,response7disk,,1,-1,-1,1,0,0,rectangle,-1,-1,1,0,0,-1,-1,1,0,0,1,48,208,28,1,,,,,,,,
,,,,,,,,,,,,,FF,,,,,,,,1.15,,,,,,,,,,,,,,,,,,,,,,60f660d407beb2fa01b360ef,6103770326b3a5b98dfa1790,2021-07-29_20h58.55.993,Simcolourproject_2stim_asymm_v5,2020.2.10,Win32,60,61025ae37ef11b136ea224fe,,,,,,,,,2954,-120,-57,1,0,0,response5disk,,2,12,3,1,0,0,rectangle,12,3,1,0,0,12,3,1,0,0,1,49,209,11,1,,,,,,,,
,,,,,,,,,,,,,FF,,,,,,,,0.899,,,,,,,,,,,,,,,,,,,,,,60f660d407beb2fa01b360ef,6103770326b3a5b98dfa1790,2021-07-29_20h58.55.993,Simcolourproject_2stim_asymm_v5,2020.2.10,Win32,60,61025ae37ef11b136ea224fe,,,,,,,,,810,-124,65,1,0,0,response7disk,,1,-3,13,1,0,0,rectangle,-3,13,1,0,0,-3,13,1,0,0,1,50,210,102,1,,,,,,,,
,,,,,,,,,,,,,FF,,,,,,,,0.568,,,,,,,,,,,,,,,,,,,,,,60f660d407beb2fa01b360ef,6103770326b3a5b98dfa1790,2021-07-29_20h58.55.993,Simcolourproject_2stim_asymm_v5,2020.2.10,Win32,60,61025ae37ef11b136ea224fe,,,,,,,,,1816,-130,56,1,0,0,response7disk,,1,-3,5,1,0,0,rectangle,137,46,1,0,0,7,8,1,0,0,1,51,211,123,1,,response1disk_3,TRUE,6,6,"[269,93,226,224,63,219,312,310,302,212,184,63,295,198,64,162,175,82,133,66]",1.733,rectangle
,,,,,,,,,,,,,FF,,,,,,,,1.35,,,,,,,,,,,,,,,,,,,,,,60f660d407beb2fa01b360ef,6103770326b3a5b98dfa1790,2021-07-29_20h58.55.993,Simcolourproject_2stim_asymm_v5,2020.2.10,Win32,60,61025ae37ef11b136ea224fe,,,,,,,,,3544,49,145,1,0,0,response1disk,,7,-16,-6,1,0,0,rectangle,-16,-6,1,0,0,-16,-6,1,0,0,1,52,212,30,1,,,,,,,,
,,,,,,,,,,,,,FF,,,,,,,,2.084,,,,,,,,,,,,,,,,,,,,,,60f660d407beb2fa01b360ef,6103770326b3a5b98dfa1790,2021-07-29_20h58.55.993,Simcolourproject_2stim_asymm_v5,2020.2.10,Win32,60,61025ae37ef11b136ea224fe,,,,,,,,,1334,118,-53,1,0,0,response3disk,,5,-8,-11,1,0,0,rectangle,-8,-11,1,0,0,-8,-11,1,0,0,1,53,213,31,1,,,,,,,,
,,,,,,,,,,,,,FF,,,,,,,,0.9,,,,,,,,,,,,,,,,,,,,,,60f660d407beb2fa01b360ef,6103770326b3a5b98dfa1790,2021-07-29_20h58.55.993,Simcolourproject_2stim_asymm_v5,2020.2.10,Win32,60,61025ae37ef11b136ea224fe,,,,,,,,,3760,110,-37,1,0,0,response3disk,,5,11,4,1,0,0,rectangle,11,4,1,0,0,11,4,1,0,0,1,54,214,125,1,,,,,,,,
,,,,,,,,,,,,,FF,,,,,,,,0.867,,,,,,,,,,,,,,,,,,,,,,60f660d407beb2fa01b360ef,6103770326b3a5b98dfa1790,2021-07-29_20h58.55.993,Simcolourproject_2stim_asymm_v5,2020.2.10,Win32,60,61025ae37ef11b136ea224fe,,,,,,,,,3151,-129,51,1,0,0,response7disk,,1,1,6,1,0,0,rectangle,1,6,1,0,0,1,6,1,0,0,1,55,215,79,1,,,,,,,,
,,,,,,,,,,,,,FF,,,,,,,,2.151,,,,,,,,,,,,,,,,,,,,,,60f660d407beb2fa01b360ef,6103770326b3a5b98dfa1790,2021-07-29_20h58.55.993,Simcolourproject_2stim_asymm_v5,2020.2.10,Win32,60,61025ae37ef11b136ea224fe,,,,,,,,,4083,49,-135,1,0,0,response3disk,,4,-23,0,1,0,0,rectangle,-23,0,1,0,0,-23,0,1,0,0,1,56,216,87,1,,,,,,,,
,,,,,,,,,,,,,FF,,,,,,,,1.034,,,,,,,,,,,,,,,,,,,,,,60f660d407beb2fa01b360ef,6103770326b3a5b98dfa1790,2021-07-29_20h58.55.993,Simcolourproject_2stim_asymm_v5,2020.2.10,Win32,60,61025ae37ef11b136ea224fe,,,,,,,,,642,69,-147,1,0,0,response3disk,,4,-5,7,1,0,0,rectangle,-5,7,1,0,0,-5,7,1,0,0,1,57,217,15,1,,,,,,,,
,,,,,,,,,,,,,FF,,,,,,,,1.167,,,,,,,,,,,,,,,,,,,,,,60f660d407beb2fa01b360ef,6103770326b3a5b98dfa1790,2021-07-29_20h58.55.993,Simcolourproject_2stim_asymm_v5,2020.2.10,Win32,60,61025ae37ef11b136ea224fe,,,,,,,,,61,127,48,1,0,0,response1disk,,6,-11,2,1,0,0,rectangle,-52,-138,1,0,0,17,8,1,0,0,1,58,218,1,1,,response5disk_3,TRUE,3,3,"[269,93,226,224,63,219,312,310,302,212,184,63,295,198,64,162,175,82,133,66]",1.85,rectangle
,,,,,,,,,,,,,FF,,,,,,,,0.983,,,,,,,,,,,,,,,,,,,,,,60f660d407beb2fa01b360ef,6103770326b3a5b98dfa1790,2021-07-29_20h58.55.993,Simcolourproject_2stim_asymm_v5,2020.2.10,Win32,60,61025ae37ef11b136ea224fe,,,,,,,,,2673,68,-137,1,0,0,response3disk,,4,-7,10,1,0,0,rectangle,-7,10,1,0,0,-7,10,1,0,0,1,59,219,113,1,,,,,,,,
,,,,,,,,,,,,,FF,,,,,,,,1.334,,,,,,,,,,,,,,,,,,,,,,60f660d407beb2fa01b360ef,6103770326b3a5b98dfa1790,2021-07-29_20h58.55.993,Simcolourproject_2stim_asymm_v5,2020.2.10,Win32,60,61025ae37ef11b136ea224fe,,,,,,,,,3350,126,-61,1,0,0,response3disk,,5,9,-4,1,0,0,rectangle,9,-4,1,0,0,9,-4,1,0,0,1,60,220,41,1,,,,,,,,
,,,,,,,,,,,,,FF,,,,,,,,0.95,,,,,,,,,,,,,,,,,,,,,,60f660d407beb2fa01b360ef,6103770326b3a5b98dfa1790,2021-07-29_20h58.55.993,Simcolourproject_2stim_asymm_v5,2020.2.10,Win32,60,61025ae37ef11b136ea224fe,,,,,,,,,1504,118,53,1,0,0,response1disk,,6,-4,10,1,0,0,rectangle,-4,10,1,0,0,-4,10,1,0,0,1,61,221,147,1,,,,,,,,
,,,,,,,,,,,,,FF,,,,,,,,0.75,,,,,,,,,,,,,,,,,,,,,,60f660d407beb2fa01b360ef,6103770326b3a5b98dfa1790,2021-07-29_20h58.55.993,Simcolourproject_2stim_asymm_v5,2020.2.10,Win32,60,61025ae37ef11b136ea224fe,,,,,,,,,1460,-112,52,1,0,0,response7disk,,1,21,-12,1,0,0,rectangle,21,-12,1,0,0,21,-12,1,0,0,1,62,222,56,1,,,,,,,,
,,,,,,,,,,,,,FF,,,,,,,,1.217,,,,,,,,,,,,,,,,,,,,,,60f660d407beb2fa01b360ef,6103770326b3a5b98dfa1790,2021-07-29_20h58.55.993,Simcolourproject_2stim_asymm_v5,2020.2.10,Win32,60,61025ae37ef11b136ea224fe,,,,,,,,,779,56,141,1,0,0,response1disk,,7,24,11,1,0,0,rectangle,135,69,1,0,0,-8,-2,1,0,0,1,63,223,22,1,,response1disk_3,TRUE,6,6,"[269,93,226,224,63,219,312,310,302,212,184,63,295,198,64,162,175,82,133,66]",1.516,rectangle
,,,,,,,,,,,,,FF,,,,,,,,0.801,,,,,,,,,,,,,,,,,,,,,,60f660d407beb2fa01b360ef,6103770326b3a5b98dfa1790,2021-07-29_20h58.55.993,Simcolourproject_2stim_asymm_v5,2020.2.10,Win32,60,61025ae37ef11b136ea224fe,,,,,,,,,2617,112,-32,1,0,0,response3disk,,5,2,0,1,0,0,rectangle,2,0,1,0,0,2,0,1,0,0,1,64,224,115,1,,,,,,,,
,,,,,,,,,,,,,FF,,,,,,,,1.017,,,,,,,,,,,,,,,,,,,,,,60f660d407beb2fa01b360ef,6103770326b3a5b98dfa1790,2021-07-29_20h58.55.993,Simcolourproject_2stim_asymm_v5,2020.2.10,Win32,60,61025ae37ef11b136ea224fe,,,,,,,,,2359,-114,-63,1,0,0,response5disk,,2,12,9,1,0,0,rectangle,58,-132,1,0,0,-7,0,1,0,0,1,65,225,152,1,,response3disk_3,TRUE,4,4,"[269,93,226,224,63,219,312,310,302,212,184,63,295,198,64,162,175,82,133,66]",2.501,rectangle
,,,,,,,,,,,,,FF,,,,,,,,1,,,,,,,,,,,,,,,,,,,,,,60f660d407beb2fa01b360ef,6103770326b3a5b98dfa1790,2021-07-29_20h58.55.993,Simcolourproject_2stim_asymm_v5,2020.2.10,Win32,60,61025ae37ef11b136ea224fe,,,,,,,,,3225,50,124,1,0,0,response1disk,,7,28,-3,1,0,0,rectangle,28,-3,1,0,0,28,-3,1,0,0,1,66,226,93,1,,,,,,,,
,,,,,,,,,,,,,FF,,,,,,,,0.767,,,,,,,,,,,,,,,,,,,,,,60f660d407beb2fa01b360ef,6103770326b3a5b98dfa1790,2021-07-29_20h58.55.993,Simcolourproject_2stim_asymm_v5,2020.2.10,Win32,60,61025ae37ef11b136ea224fe,,,,,,,,,3616,51,131,1,0,0,response1disk,,7,-14,-1,1,0,0,rectangle,-14,-1,1,0,0,-14,-1,1,0,0,1,67,227,47,1,,,,,,,,
,,,,,,,,,,,,,FF,,,,,,,,0.65,,,,,,,,,,,,,,,,,,,,,,60f660d407beb2fa01b360ef,6103770326b3a5b98dfa1790,2021-07-29_20h58.55.993,Simcolourproject_2stim_asymm_v5,2020.2.10,Win32,60,61025ae37ef11b136ea224fe,,,,,,,,,2916,168,47,1,0,0,response1disk,,6,-1,-1,1,0,0,rectangle,-1,-1,1,0,0,-1,-1,1,0,0,1,68,228,45,1,,,,,,,,
,,,,,,,,,,,,,FF,,,,,,,,0.8,,,,,,,,,,,,,,,,,,,,,,60f660d407beb2fa01b360ef,6103770326b3a5b98dfa1790,2021-07-29_20h58.55.993,Simcolourproject_2stim_asymm_v5,2020.2.10,Win32,60,61025ae37ef11b136ea224fe,,,,,,,,,3462,47,146,1,0,0,response1disk,,7,-7,20,1,0,0,rectangle,-7,20,1,0,0,-7,20,1,0,0,1,69,229,49,1,,,,,,,,
,,,,,,,,,,,,,FF,,,,,,,,0.549,,,,,,,,,,,,,,,,,,,,,,60f660d407beb2fa01b360ef,6103770326b3a5b98dfa1790,2021-07-29_20h58.55.993,Simcolourproject_2stim_asymm_v5,2020.2.10,Win32,60,61025ae37ef11b136ea224fe,,,,,,,,,2748,59,134,1,0,0,response1disk,,7,-12,4,1,0,0,rectangle,-12,4,1,0,0,-12,4,1,0,0,1,70,230,3,1,,,,,,,,
,,,,,,,,,,,,,FF,,,,,,,,0.868,,,,,,,,,,,,,,,,,,,,,,60f660d407beb2fa01b360ef,6103770326b3a5b98dfa1790,2021-07-29_20h58.55.993,Simcolourproject_2stim_asymm_v5,2020.2.10,Win32,60,61025ae37ef11b136ea224fe,,,,,,,,,3922,55,136,1,0,0,response1disk,,7,10,0,1,0,0,rectangle,10,0,1,0,0,10,0,1,0,0,1,71,231,62,1,,,,,,,,
,,,,,,,,,,,,,FF,,,,,,,,0.833,,,,,,,,,,,,,,,,,,,,,,60f660d407beb2fa01b360ef,6103770326b3a5b98dfa1790,2021-07-29_20h58.55.993,Simcolourproject_2stim_asymm_v5,2020.2.10,Win32,60,61025ae37ef11b136ea224fe,,,,,,,,,2348,136,51,1,0,0,response1disk,,6,-8,5,1,0,0,rectangle,-8,5,1,0,0,-8,5,1,0,0,1,72,232,110,1,,,,,,,,
,,,,,,,,,,,,,FF,,,,,,,,0.7,,,,,,,,,,,,,,,,,,,,,,60f660d407beb2fa01b360ef,6103770326b3a5b98dfa1790,2021-07-29_20h58.55.993,Simcolourproject_2stim_asymm_v5,2020.2.10,Win32,60,61025ae37ef11b136ea224fe,,,,,,,,,2867,55,138,1,0,0,response1disk,,7,15,7,1,0,0,rectangle,15,7,1,0,0,15,7,1,0,0,1,73,233,43,1,,,,,,,,
,,,,,,,,,,,,,FF,,,,,,,,0.7,,,,,,,,,,,,,,,,,,,,,,60f660d407beb2fa01b360ef,6103770326b3a5b98dfa1790,2021-07-29_20h58.55.993,Simcolourproject_2stim_asymm_v5,2020.2.10,Win32,60,61025ae37ef11b136ea224fe,,,,,,,,,3373,-127,52,1,0,0,response7disk,,1,-7,0,1,0,0,rectangle,-7,0,1,0,0,-7,0,1,0,0,1,74,234,8,1,,,,,,,,
,,,,,,,,,,,,,FF,,,,,,,,0.867,,,,,,,,,,,,,,,,,,,,,,60f660d407beb2fa01b360ef,6103770326b3a5b98dfa1790,2021-07-29_20h58.55.993,Simcolourproject_2stim_asymm_v5,2020.2.10,Win32,60,61025ae37ef11b136ea224fe,,,,,,,,,555,-118,61,1,0,0,response7disk,,1,18,-11,1,0,0,rectangle,18,-11,1,0,0,18,-11,1,0,0,1,75,235,12,1,,,,,,,,
,,,,,,,,,,,,,FF,,,,,,,,1.201,,,,,,,,,,,,,,,,,,,,,,60f660d407beb2fa01b360ef,6103770326b3a5b98dfa1790,2021-07-29_20h58.55.993,Simcolourproject_2stim_asymm_v5,2020.2.10,Win32,60,61025ae37ef11b136ea224fe,,,,,,,,,3299,118,-32,1,0,0,response3disk,,5,34,17,1,0,0,rectangle,34,17,1,0,0,34,17,1,0,0,1,76,236,143,1,,,,,,,,
,,,,,,,,,,,,,FF,,,,,,,,1.051,,,,,,,,,,,,,,,,,,,,,,60f660d407beb2fa01b360ef,6103770326b3a5b98dfa1790,2021-07-29_20h58.55.993,Simcolourproject_2stim_asymm_v5,2020.2.10,Win32,60,61025ae37ef11b136ea224fe,,,,,,,,,1021,42,140,1,0,0,response1disk,,7,-1,-5,1,0,0,rectangle,-1,-5,1,0,0,-1,-5,1,0,0,1,77,237,106,1,,,,,,,,
,,,,,,,,,,,,,FF,,,,,,,,0.617,,,,,,,,,,,,,,,,,,,,,,60f660d407beb2fa01b360ef,6103770326b3a5b98dfa1790,2021-07-29_20h58.55.993,Simcolourproject_2stim_asymm_v5,2020.2.10,Win32,60,61025ae37ef11b136ea224fe,,,,,,,,,3638,62,134,1,0,0,response1disk,,7,8,12,1,0,0,rectangle,8,12,1,0,0,8,12,1,0,0,1,78,238,104,1,,,,,,,,
,,,,,,,,,,,,,FF,,,,,,,,0.799,,,,,,,,,,,,,,,,,,,,,,60f660d407beb2fa01b360ef,6103770326b3a5b98dfa1790,2021-07-29_20h58.55.993,Simcolourproject_2stim_asymm_v5,2020.2.10,Win32,60,61025ae37ef11b136ea224fe,,,,,,,,,2376,139,51,1,0,0,response1disk,,6,-30,-9,1,0,0,rectangle,-30,-9,1,0,0,-30,-9,1,0,0,1,79,239,144,1,,,,,,,,
,,,,,,,,,,,,,FF,,,,,,,,0.633,,,,,,,,,,,,,,,,,,,,,,60f660d407beb2fa01b360ef,6103770326b3a5b98dfa1790,2021-07-29_20h58.55.993,Simcolourproject_2stim_asymm_v5,2020.2.10,Win32,60,61025ae37ef11b136ea224fe,,,,,,,,,4271,54,140,1,0,0,response1disk,,7,23,3,1,0,0,rectangle,23,3,1,0,0,23,3,1,0,0,1,80,240,17,1,,,,,,,,
,,,,,,,,,,,,,FF,,,,,,,,0.885,,,,,,,,,,,,,,,,,,,,,,60f660d407beb2fa01b360ef,6103770326b3a5b98dfa1790,2021-07-29_20h58.55.993,Simcolourproject_2stim_asymm_v5,2020.2.10,Win32,60,61025ae37ef11b136ea224fe,,,,,,,,,3396,-120,-52,1,0,0,response5disk,,2,33,17,1,0,0,rectangle,33,17,1,0,0,33,17,1,0,0,1,81,241,148,1,,,,,,,,
,,,,,,,,,,,,,FF,,,,,,,,0.917,,,,,,,,,,,,,,,,,,,,,,60f660d407beb2fa01b360ef,6103770326b3a5b98dfa1790,2021-07-29_20h58.55.993,Simcolourproject_2stim_asymm_v5,2020.2.10,Win32,60,61025ae37ef11b136ea224fe,,,,,,,,,1765,-55,-147,1,0,0,response5disk,,3,8,6,1,0,0,rectangle,8,6,1,0,0,8,6,1,0,0,1,82,242,65,1,,,,,,,,
,,,,,,,,,,,,,FF,,,,,,,,1.017,,,,,,,,,,,,,,,,,,,,,,60f660d407beb2fa01b360ef,6103770326b3a5b98dfa1790,2021-07-29_20h58.55.993,Simcolourproject_2stim_asymm_v5,2020.2.10,Win32,60,61025ae37ef11b136ea224fe,,,,,,,,,1377,-127,-43,1,0,0,response5disk,,2,-11,20,1,0,0,rectangle,-11,20,1,0,0,-11,20,1,0,0,1,83,243,153,1,,,,,,,,
,,,,,,,,,,,,,FF,,,,,,,,0.801,,,,,,,,,,,,,,,,,,,,,,60f660d407beb2fa01b360ef,6103770326b3a5b98dfa1790,2021-07-29_20h58.55.993,Simcolourproject_2stim_asymm_v5,2020.2.10,Win32,60,61025ae37ef11b136ea224fe,,,,,,,,,2457,58,135,1,0,0,response1disk,,7,9,15,1,0,0,rectangle,9,15,1,0,0,9,15,1,0,0,1,84,244,48,1,,,,,,,,
,,,,,,,,,,,,,FF,,,,,,,,0.683,,,,,,,,,,,,,,,,,,,,,,60f660d407beb2fa01b360ef,6103770326b3a5b98dfa1790,2021-07-29_20h58.55.993,Simcolourproject_2stim_asymm_v5,2020.2.10,Win32,60,61025ae37ef11b136ea224fe,,,,,,,,,3885,41,135,1,0,0,response1disk,,7,-3,0,1,0,0,rectangle,-3,0,1,0,0,-3,0,1,0,0,1,85,245,40,1,,,,,,,,
,,,,,,,,,,,,,FF,,,,,,,,0.951,,,,,,,,,,,,,,,,,,,,,,60f660d407beb2fa01b360ef,6103770326b3a5b98dfa1790,2021-07-29_20h58.55.993,Simcolourproject_2stim_asymm_v5,2020.2.10,Win32,60,61025ae37ef11b136ea224fe,,,,,,,,,458,61,-115,1,0,0,response3disk,,4,20,13,1,0,0,rectangle,20,13,1,0,0,20,13,1,0,0,1,86,246,24,1,,,,,,,,
,,,,,,,,,,,,,FF,,,,,,,,0.9,,,,,,,,,,,,,,,,,,,,,,60f660d407beb2fa01b360ef,6103770326b3a5b98dfa1790,2021-07-29_20h58.55.993,Simcolourproject_2stim_asymm_v5,2020.2.10,Win32,60,61025ae37ef11b136ea224fe,,,,,,,,,122,54,154,1,0,0,response1disk,,7,9,1,1,0,0,rectangle,9,1,1,0,0,9,1,1,0,0,1,87,247,27,1,,,,,,,,
,,,,,,,,,,,,,FF,,,,,,,,0.601,,,,,,,,,,,,,,,,,,,,,,60f660d407beb2fa01b360ef,6103770326b3a5b98dfa1790,2021-07-29_20h58.55.993,Simcolourproject_2stim_asymm_v5,2020.2.10,Win32,60,61025ae37ef11b136ea224fe,,,,,,,,,60,66,137,1,0,0,response1disk,,7,-1,5,1,0,0,rectangle,-1,5,1,0,0,-1,5,1,0,0,1,88,248,5,1,,,,,,,,
,,,,,,,,,,,,,FF,,,,,,,,0.549,,,,,,,,,,,,,,,,,,,,,,60f660d407beb2fa01b360ef,6103770326b3a5b98dfa1790,2021-07-29_20h58.55.993,Simcolourproject_2stim_asymm_v5,2020.2.10,Win32,60,61025ae37ef11b136ea224fe,,,,,,,,,3486,27,108,1,0,0,response1disk,,7,0,10,1,0,0,rectangle,0,10,1,0,0,0,10,1,0,0,1,89,249,122,1,,,,,,,,
,,,,,,,,,,,,,FF,,,,,,,,0.685,,,,,,,,,,,,,,,,,,,,,,60f660d407beb2fa01b360ef,6103770326b3a5b98dfa1790,2021-07-29_20h58.55.993,Simcolourproject_2stim_asymm_v5,2020.2.10,Win32,60,61025ae37ef11b136ea224fe,,,,,,,,,2167,-118,52,1,0,0,response7disk,,1,35,-4,1,0,0,rectangle,35,-4,1,0,0,35,-4,1,0,0,1,90,250,54,1,,,,,,,,
,,,,,,,,,,,,,FF,,,,,,,,0.766,,,,,,,,,,,,,,,,,,,,,,60f660d407beb2fa01b360ef,6103770326b3a5b98dfa1790,2021-07-29_20h58.55.993,Simcolourproject_2stim_asymm_v5,2020.2.10,Win32,60,61025ae37ef11b136ea224fe,,,,,,,,,3965,-122,57,1,0,0,response7disk,,1,1,0,1,0,0,rectangle,1,0,1,0,0,1,0,1,0,0,1,91,251,37,1,,,,,,,,
,,,,,,,,,,,,,FF,,,,,,,,0.766,,,,,,,,,,,,,,,,,,,,,,60f660d407beb2fa01b360ef,6103770326b3a5b98dfa1790,2021-07-29_20h58.55.993,Simcolourproject_2stim_asymm_v5,2020.2.10,Win32,60,61025ae37ef11b136ea224fe,,,,,,,,,2740,55,-123,1,0,0,response3disk,,4,6,11,1,0,0,rectangle,6,11,1,0,0,6,11,1,0,0,1,92,252,130,1,,,,,,,,
,,,,,,,,,,,,,FF,,,,,,,,0.767,,,,,,,,,,,,,,,,,,,,,,60f660d407beb2fa01b360ef,6103770326b3a5b98dfa1790,2021-07-29_20h58.55.993,Simcolourproject_2stim_asymm_v5,2020.2.10,Win32,60,61025ae37ef11b136ea224fe,,,,,,,,,1535,-118,50,1,0,0,response7disk,,1,23,-6,1,0,0,rectangle,23,-6,1,0,0,23,-6,1,0,0,1,93,253,69,1,,,,,,,,
,,,,,,,,,,,,,FF,,,,,,,,1.1,,,,,,,,,,,,,,,,,,,,,,60f660d407beb2fa01b360ef,6103770326b3a5b98dfa1790,2021-07-29_20h58.55.993,Simcolourproject_2stim_asymm_v5,2020.2.10,Win32,60,61025ae37ef11b136ea224fe,,,,,,,,,1203,-66,-134,1,0,0,response5disk,,3,-1,2,1,0,0,rectangle,-1,2,1,0,0,-1,2,1,0,0,1,94,254,60,1,,,,,,,,
,,,,,,,,,,,,,FF,,,,,,,,2,,,,,,,,,,,,,,,,,,,,,,60f660d407beb2fa01b360ef,6103770326b3a5b98dfa1790,2021-07-29_20h58.55.993,Simcolourproject_2stim_asymm_v5,2020.2.10,Win32,60,61025ae37ef11b136ea224fe,,,,,,,,,110,124,52,1,0,0,response1disk,,6,-20,-3,1,0,0,rectangle,-20,-3,1,0,0,-20,-3,1,0,0,1,95,255,120,1,,,,,,,,
,,,,,,,,,,,,,FF,,,,,,,,0.766,,,,,,,,,,,,,,,,,,,,,,60f660d407beb2fa01b360ef,6103770326b3a5b98dfa1790,2021-07-29_20h58.55.993,Simcolourproject_2stim_asymm_v5,2020.2.10,Win32,60,61025ae37ef11b136ea224fe,,,,,,,,,2058,31,104,1,0,0,response1disk,,7,-7,4,1,0,0,rectangle,-7,4,1,0,0,-7,4,1,0,0,1,96,256,33,1,,,,,,,,
,,,,,,,,,,,,,FF,,,,,,,,0.617,,,,,,,,,,,,,,,,,,,,,,60f660d407beb2fa01b360ef,6103770326b3a5b98dfa1790,2021-07-29_20h58.55.993,Simcolourproject_2stim_asymm_v5,2020.2.10,Win32,60,61025ae37ef11b136ea224fe,,,,,,,,,2450,48,126,1,0,0,response1disk,,7,-18,2,1,0,0,rectangle,-18,2,1,0,0,-18,2,1,0,0,1,97,257,66,1,,,,,,,,
,,,,,,,,,,,,,FF,,,,,,,,0.967,,,,,,,,,,,,,,,,,,,,,,60f660d407beb2fa01b360ef,6103770326b3a5b98dfa1790,2021-07-29_20h58.55.993,Simcolourproject_2stim_asymm_v5,2020.2.10,Win32,60,61025ae37ef11b136ea224fe,,,,,,,,,2838,-56,-138,1,0,0,response5disk,,3,-7,-5,1,0,0,rectangle,-7,-5,1,0,0,-7,-5,1,0,0,1,98,258,103,1,,,,,,,,
,,,,,,,,,,,,,FF,,,,,,,,1.734,,,,,,,,,,,,,,,,,,,,,,60f660d407beb2fa01b360ef,6103770326b3a5b98dfa1790,2021-07-29_20h58.55.993,Simcolourproject_2stim_asymm_v5,2020.2.10,Win32,60,61025ae37ef11b136ea224fe,,,,,,,,,2533,62,-126,1,0,0,response3disk,,4,14,-6,1,0,0,rectangle,14,-6,1,0,0,14,-6,1,0,0,1,99,259,4,1,,,,,,,,
,,,,,,,,,,,,,FF,,,,,,,,0.849,,,,,,,,,,,,,,,,,,,,,,60f660d407beb2fa01b360ef,6103770326b3a5b98dfa1790,2021-07-29_20h58.55.993,Simcolourproject_2stim_asymm_v5,2020.2.10,Win32,60,61025ae37ef11b136ea224fe,,,,,,,,,2522,129,52,1,0,0,response1disk,,6,8,-2,1,0,0,rectangle,8,-2,1,0,0,8,-2,1,0,0,1,100,260,2,1,,,,,,,,
,,,,,,,,,,,,,FF,,,,,,,,0.633,,,,,,,,,,,,,,,,,,,,,,60f660d407beb2fa01b360ef,6103770326b3a5b98dfa1790,2021-07-29_20h58.55.993,Simcolourproject_2stim_asymm_v5,2020.2.10,Win32,60,61025ae37ef11b136ea224fe,,,,,,,,,2650,133,51,1,0,0,response1disk,,6,-4,8,1,0,0,rectangle,-4,8,1,0,0,-4,8,1,0,0,1,101,261,111,1,,,,,,,,
,,,,,,,,,,,,,FF,,,,,,,,0.8,,,,,,,,,,,,,,,,,,,,,,60f660d407beb2fa01b360ef,6103770326b3a5b98dfa1790,2021-07-29_20h58.55.993,Simcolourproject_2stim_asymm_v5,2020.2.10,Win32,60,61025ae37ef11b136ea224fe,,,,,,,,,2033,-115,-58,1,0,0,response5disk,,2,29,4,1,0,0,rectangle,29,4,1,0,0,29,4,1,0,0,1,102,262,78,1,,,,,,,,
,,,,,,,,,,,,,FF,,,,,,,,1,,,,,,,,,,,,,,,,,,,,,,60f660d407beb2fa01b360ef,6103770326b3a5b98dfa1790,2021-07-29_20h58.55.993,Simcolourproject_2stim_asymm_v5,2020.2.10,Win32,60,61025ae37ef11b136ea224fe,,,,,,,,,3683,50,156,1,0,0,response1disk,,7,-11,5,1,0,0,rectangle,-11,5,1,0,0,-11,5,1,0,0,1,103,263,158,1,,,,,,,,
,,,,,,,,,,,,,FF,,,,,,,,0.917,,,,,,,,,,,,,,,,,,,,,,60f660d407beb2fa01b360ef,6103770326b3a5b98dfa1790,2021-07-29_20h58.55.993,Simcolourproject_2stim_asymm_v5,2020.2.10,Win32,60,61025ae37ef11b136ea224fe,,,,,,,,,3797,132,60,1,0,0,response1disk,,6,7,-1,1,0,0,rectangle,7,-1,1,0,0,7,-1,1,0,0,1,104,264,51,1,,,,,,,,
,,,,,,,,,,,,,FF,,,,,,,,1.033,,,,,,,,,,,,,,,,,,,,,,60f660d407beb2fa01b360ef,6103770326b3a5b98dfa1790,2021-07-29_20h58.55.993,Simcolourproject_2stim_asymm_v5,2020.2.10,Win32,60,61025ae37ef11b136ea224fe,,,,,,,,,2795,133,45,1,0,0,response1disk,,6,3,-7,1,0,0,rectangle,3,-7,1,0,0,3,-7,1,0,0,1,105,265,146,1,,,,,,,,
,,,,,,,,,,,,,FF,,,,,,,,1.216,,,,,,,,,,,,,,,,,,,,,,60f660d407beb2fa01b360ef,6103770326b3a5b98dfa1790,2021-07-29_20h58.55.993,Simcolourproject_2stim_asymm_v5,2020.2.10,Win32,60,61025ae37ef11b136ea224fe,,,,,,,,,811,-121,-56,1,0,0,response5disk,,2,9,0,1,0,0,rectangle,9,0,1,0,0,9,0,1,0,0,1,106,266,13,1,,,,,,,,
,,,,,,,,,,,,,FF,,,,,,,,1.084,,,,,,,,,,,,,,,,,,,,,,60f660d407beb2fa01b360ef,6103770326b3a5b98dfa1790,2021-07-29_20h58.55.993,Simcolourproject_2stim_asymm_v5,2020.2.10,Win32,60,61025ae37ef11b136ea224fe,,,,,,,,,1496,57,126,1,0,0,response1disk,,7,-12,12,1,0,0,rectangle,-12,12,1,0,0,-12,12,1,0,0,1,107,267,39,1,,,,,,,,
,,,,,,,,,,,,,FF,,,,,,,,0.751,,,,,,,,,,,,,,,,,,,,,,60f660d407beb2fa01b360ef,6103770326b3a5b98dfa1790,2021-07-29_20h58.55.993,Simcolourproject_2stim_asymm_v5,2020.2.10,Win32,60,61025ae37ef11b136ea224fe,,,,,,,,,1024,120,64,1,0,0,response1disk,,6,13,4,1,0,0,rectangle,-114,53,1,0,0,-6,3,1,0,0,1,108,268,63,1,,response7disk_3,TRUE,1,1,"[269,93,226,224,63,219,312,310,302,212,184,63,295,198,64,162,175,82,133,66]",1.534,rectangle
,,,,,,,,,,,,,FF,,,,,,,,0.818,,,,,,,,,,,,,,,,,,,,,,60f660d407beb2fa01b360ef,6103770326b3a5b98dfa1790,2021-07-29_20h58.55.993,Simcolourproject_2stim_asymm_v5,2020.2.10,Win32,60,61025ae37ef11b136ea224fe,,,,,,,,,2644,63,146,1,0,0,response1disk,,7,-3,5,1,0,0,rectangle,-3,5,1,0,0,-3,5,1,0,0,1,109,269,133,1,,,,,,,,
,,,,,,,,,,,,,FF,,,,,,,,0.599,,,,,,,,,,,,,,,,,,,,,,60f660d407beb2fa01b360ef,6103770326b3a5b98dfa1790,2021-07-29_20h58.55.993,Simcolourproject_2stim_asymm_v5,2020.2.10,Win32,60,61025ae37ef11b136ea224fe,,,,,,,,,3368,42,135,1,0,0,response1disk,,7,-2,2,1,0,0,rectangle,-2,2,1,0,0,-2,2,1,0,0,1,110,270,129,1,,,,,,,,
,,,,,,,,,,,,,FF,,,,,,,,1.217,,,,,,,,,,,,,,,,,,,,,,60f660d407beb2fa01b360ef,6103770326b3a5b98dfa1790,2021-07-29_20h58.55.993,Simcolourproject_2stim_asymm_v5,2020.2.10,Win32,60,61025ae37ef11b136ea224fe,,,,,,,,,3718,60,-135,1,0,0,response3disk,,4,-5,13,1,0,0,rectangle,-5,13,1,0,0,-5,13,1,0,0,1,111,271,75,1,,,,,,,,
,,,,,,,,,,,,,FF,,,,,,,,1.2,,,,,,,,,,,,,,,,,,,,,,60f660d407beb2fa01b360ef,6103770326b3a5b98dfa1790,2021-07-29_20h58.55.993,Simcolourproject_2stim_asymm_v5,2020.2.10,Win32,60,61025ae37ef11b136ea224fe,,,,,,,,,3798,117,-47,1,0,0,response3disk,,5,-14,6,1,0,0,rectangle,-14,6,1,0,0,-14,6,1,0,0,1,112,272,50,1,,,,,,,,
,,,,,,,,,,,,,FF,,,,,,,,1.233,,,,,,,,,,,,,,,,,,,,,,60f660d407beb2fa01b360ef,6103770326b3a5b98dfa1790,2021-07-29_20h58.55.993,Simcolourproject_2stim_asymm_v5,2020.2.10,Win32,60,61025ae37ef11b136ea224fe,,,,,,,,,2983,63,128,1,0,0,response1disk,,7,3,7,1,0,0,rectangle,3,7,1,0,0,3,7,1,0,0,1,113,273,59,1,,,,,,,,
,,,,,,,,,,,,,FF,,,,,,,,1.167,,,,,,,,,,,,,,,,,,,,,,60f660d407beb2fa01b360ef,6103770326b3a5b98dfa1790,2021-07-29_20h58.55.993,Simcolourproject_2stim_asymm_v5,2020.2.10,Win32,60,61025ae37ef11b136ea224fe,,,,,,,,,2040,-120,-55,1,0,0,response5disk,,2,8,7,1,0,0,rectangle,8,7,1,0,0,8,7,1,0,0,1,114,274,150,1,,,,,,,,
,,,,,,,,,,,,,FF,,,,,,,,0.615,,,,,,,,,,,,,,,,,,,,,,60f660d407beb2fa01b360ef,6103770326b3a5b98dfa1790,2021-07-29_20h58.55.993,Simcolourproject_2stim_asymm_v5,2020.2.10,Win32,60,61025ae37ef11b136ea224fe,,,,,,,,,335,49,144,1,0,0,response1disk,,7,-5,-3,1,0,0,rectangle,-5,-3,1,0,0,-5,-3,1,0,0,1,115,275,6,1,,,,,,,,
,,,,,,,,,,,,,FF,,,,,,,,1.334,,,,,,,,,,,,,,,,,,,,,,60f660d407beb2fa01b360ef,6103770326b3a5b98dfa1790,2021-07-29_20h58.55.993,Simcolourproject_2stim_asymm_v5,2020.2.10,Win32,60,61025ae37ef11b136ea224fe,,,,,,,,,1234,110,-51,1,0,0,response3disk,,5,1,1,1,0,0,rectangle,1,1,1,0,0,1,1,1,0,0,1,116,276,72,1,,,,,,,,
,,,,,,,,,,,,,FF,,,,,,,,0.834,,,,,,,,,,,,,,,,,,,,,,60f660d407beb2fa01b360ef,6103770326b3a5b98dfa1790,2021-07-29_20h58.55.993,Simcolourproject_2stim_asymm_v5,2020.2.10,Win32,60,61025ae37ef11b136ea224fe,,,,,,,,,2499,47,132,1,0,0,response1disk,,7,9,6,1,0,0,rectangle,9,6,1,0,0,9,6,1,0,0,1,117,277,38,1,,,,,,,,
,,,,,,,,,,,,,FF,,,,,,,,0.65,,,,,,,,,,,,,,,,,,,,,,60f660d407beb2fa01b360ef,6103770326b3a5b98dfa1790,2021-07-29_20h58.55.993,Simcolourproject_2stim_asymm_v5,2020.2.10,Win32,60,61025ae37ef11b136ea224fe,,,,,,,,,24,58,132,1,0,0,response1disk,,7,-4,-17,1,0,0,rectangle,-4,-17,1,0,0,-4,-17,1,0,0,1,118,278,35,1,,,,,,,,
,,,,,,,,,,,,,FF,,,,,,,,0.85,,,,,,,,,,,,,,,,,,,,,,60f660d407beb2fa01b360ef,6103770326b3a5b98dfa1790,2021-07-29_20h58.55.993,Simcolourproject_2stim_asymm_v5,2020.2.10,Win32,60,61025ae37ef11b136ea224fe,,,,,,,,,2178,116,-44,1,0,0,response3disk,,5,-8,3,1,0,0,rectangle,-8,3,1,0,0,-8,3,1,0,0,1,119,279,99,1,,,,,,,,
,,,,,,,,,,,,,FF,,,,,,,,0.75,,,,,,,,,,,,,,,,,,,,,,60f660d407beb2fa01b360ef,6103770326b3a5b98dfa1790,2021-07-29_20h58.55.993,Simcolourproject_2stim_asymm_v5,2020.2.10,Win32,60,61025ae37ef11b136ea224fe,,,,,,,,,20,50,141,1,0,0,response1disk,,7,0,8,1,0,0,rectangle,0,8,1,0,0,0,8,1,0,0,1,120,280,114,1,,,,,,,,
,,,,,,,,,,,,,FF,,,,,,,,0.733,,,,,,,,,,,,,,,,,,,,,,60f660d407beb2fa01b360ef,6103770326b3a5b98dfa1790,2021-07-29_20h58.55.993,Simcolourproject_2stim_asymm_v5,2020.2.10,Win32,60,61025ae37ef11b136ea224fe,,,,,,,,,1719,65,133,1,0,0,response1disk,,7,13,15,1,0,0,rectangle,13,15,1,0,0,13,15,1,0,0,1,121,281,21,1,,,,,,,,
,,,,,,,,,,,,,FF,,,,,,,,0.917,,,,,,,,,,,,,,,,,,,,,,60f660d407beb2fa01b360ef,6103770326b3a5b98dfa1790,2021-07-29_20h58.55.993,Simcolourproject_2stim_asymm_v5,2020.2.10,Win32,60,61025ae37ef11b136ea224fe,,,,,,,,,3235,57,-123,1,0,0,response3disk,,4,2,10,1,0,0,rectangle,2,10,1,0,0,2,10,1,0,0,1,122,282,100,1,,,,,,,,
,,,,,,,,,,,,,FF,,,,,,,,1.584,,,,,,,,,,,,,,,,,,,,,,60f660d407beb2fa01b360ef,6103770326b3a5b98dfa1790,2021-07-29_20h58.55.993,Simcolourproject_2stim_asymm_v5,2020.2.10,Win32,60,61025ae37ef11b136ea224fe,,,,,,,,,4360,-65,-128,1,0,0,response5disk,,3,13,-9,1,0,0,rectangle,13,-9,1,0,0,13,-9,1,0,0,1,123,283,76,1,,,,,,,,
,,,,,,,,,,,,,FF,,,,,,,,1.034,,,,,,,,,,,,,,,,,,,,,,60f660d407beb2fa01b360ef,6103770326b3a5b98dfa1790,2021-07-29_20h58.55.993,Simcolourproject_2stim_asymm_v5,2020.2.10,Win32,60,61025ae37ef11b136ea224fe,,,,,,,,,2557,118,-45,1,0,0,response3disk,,5,-12,3,1,0,0,rectangle,-12,3,1,0,0,-12,3,1,0,0,1,124,284,34,1,,,,,,,,
,,,,,,,,,,,,,FF,,,,,,,,1,,,,,,,,,,,,,,,,,,,,,,60f660d407beb2fa01b360ef,6103770326b3a5b98dfa1790,2021-07-29_20h58.55.993,Simcolourproject_2stim_asymm_v5,2020.2.10,Win32,60,61025ae37ef11b136ea224fe,,,,,,,,,2501,114,-46,1,0,0,response3disk,,5,-1,-1,1,0,0,rectangle,-1,-1,1,0,0,-1,-1,1,0,0,1,125,285,0,1,,,,,,,,
,,,,,,,,,,,,,FF,,,,,,,,0.883,,,,,,,,,,,,,,,,,,,,,,60f660d407beb2fa01b360ef,6103770326b3a5b98dfa1790,2021-07-29_20h58.55.993,Simcolourproject_2stim_asymm_v5,2020.2.10,Win32,60,61025ae37ef11b136ea224fe,,,,,,,,,1936,71,126,1,0,0,response1disk,,7,17,10,1,0,0,rectangle,17,10,1,0,0,17,10,1,0,0,1,126,286,81,1,,,,,,,,
,,,,,,,,,,,,,FF,,,,,,,,0.783,,,,,,,,,,,,,,,,,,,,,,60f660d407beb2fa01b360ef,6103770326b3a5b98dfa1790,2021-07-29_20h58.55.993,Simcolourproject_2stim_asymm_v5,2020.2.10,Win32,60,61025ae37ef11b136ea224fe,,,,,,,,,841,51,138,1,0,0,response1disk,,7,7,5,1,0,0,rectangle,7,5,1,0,0,7,5,1,0,0,1,127,287,83,1,,,,,,,,
,,,,,,,,,,,,,FF,,,,,,,,0.667,,,,,,,,,,,,,,,,,,,,,,60f660d407beb2fa01b360ef,6103770326b3a5b98dfa1790,2021-07-29_20h58.55.993,Simcolourproject_2stim_asymm_v5,2020.2.10,Win32,60,61025ae37ef11b136ea224fe,,,,,,,,,52,44,116,1,0,0,response1disk,,7,-25,-18,1,0,0,rectangle,-25,-18,1,0,0,-25,-18,1,0,0,1,128,288,14,1,,,,,,,,
,,,,,,,,,,,,,FF,,,,,,,,0.983,,,,,,,,,,,,,,,,,,,,,,60f660d407beb2fa01b360ef,6103770326b3a5b98dfa1790,2021-07-29_20h58.55.993,Simcolourproject_2stim_asymm_v5,2020.2.10,Win32,60,61025ae37ef11b136ea224fe,,,,,,,,,3947,146,49,1,0,0,response1disk,,6,-11,17,1,0,0,rectangle,-11,17,1,0,0,-11,17,1,0,0,1,129,289,92,1,,,,,,,,
,,,,,,,,,,,,,FF,,,,,,,,0.916,,,,,,,,,,,,,,,,,,,,,,60f660d407beb2fa01b360ef,6103770326b3a5b98dfa1790,2021-07-29_20h58.55.993,Simcolourproject_2stim_asymm_v5,2020.2.10,Win32,60,61025ae37ef11b136ea224fe,,,,,,,,,2079,109,-57,1,0,0,response3disk,,5,4,4,1,0,0,rectangle,4,4,1,0,0,4,4,1,0,0,1,130,290,18,1,,,,,,,,
,,,,,,,,,,,,,FF,,,,,,,,0.9,,,,,,,,,,,,,,,,,,,,,,60f660d407beb2fa01b360ef,6103770326b3a5b98dfa1790,2021-07-29_20h58.55.993,Simcolourproject_2stim_asymm_v5,2020.2.10,Win32,60,61025ae37ef11b136ea224fe,,,,,,,,,3639,116,-53,1,0,0,response3disk,,5,21,0,1,0,0,rectangle,21,0,1,0,0,21,0,1,0,0,1,131,291,98,1,,,,,,,,
,,,,,,,,,,,,,FF,,,,,,,,0.784,,,,,,,,,,,,,,,,,,,,,,60f660d407beb2fa01b360ef,6103770326b3a5b98dfa1790,2021-07-29_20h58.55.993,Simcolourproject_2stim_asymm_v5,2020.2.10,Win32,60,61025ae37ef11b136ea224fe,,,,,,,,,4305,-117,55,1,0,0,response7disk,,1,22,6,1,0,0,rectangle,22,6,1,0,0,22,6,1,0,0,1,132,292,141,1,,,,,,,,
,,,,,,,,,,,,,FF,,,,,,,,1.05,,,,,,,,,,,,,,,,,,,,,,60f660d407beb2fa01b360ef,6103770326b3a5b98dfa1790,2021-07-29_20h58.55.993,Simcolourproject_2stim_asymm_v5,2020.2.10,Win32,60,61025ae37ef11b136ea224fe,,,,,,,,,2857,56,145,1,0,0,response1disk,,7,-16,0,1,0,0,rectangle,-16,0,1,0,0,-16,0,1,0,0,1,133,293,118,1,,,,,,,,
,,,,,,,,,,,,,FF,,,,,,,,0.75,,,,,,,,,,,,,,,,,,,,,,60f660d407beb2fa01b360ef,6103770326b3a5b98dfa1790,2021-07-29_20h58.55.993,Simcolourproject_2stim_asymm_v5,2020.2.10,Win32,60,61025ae37ef11b136ea224fe,,,,,,,,,401,55,140,1,0,0,response1disk,,7,7,0,1,0,0,rectangle,-55,-139,1,0,0,1,7,1,0,0,1,134,294,159,1,,response5disk_3,TRUE,3,3,"[269,93,226,224,63,219,312,310,302,212,184,63,295,198,64,162,175,82,133,66]",2.3,rectangle
,,,,,,,,,,,,,FF,,,,,,,,1.317,,,,,,,,,,,,,,,,,,,,,,60f660d407beb2fa01b360ef,6103770326b3a5b98dfa1790,2021-07-29_20h58.55.993,Simcolourproject_2stim_asymm_v5,2020.2.10,Win32,60,61025ae37ef11b136ea224fe,,,,,,,,,3128,59,134,1,0,0,response1disk,,7,21,9,1,0,0,rectangle,21,9,1,0,0,21,9,1,0,0,1,135,295,85,1,,,,,,,,
,,,,,,,,,,,,,FF,,,,,,,,1.033,,,,,,,,,,,,,,,,,,,,,,60f660d407beb2fa01b360ef,6103770326b3a5b98dfa1790,2021-07-29_20h58.55.993,Simcolourproject_2stim_asymm_v5,2020.2.10,Win32,60,61025ae37ef11b136ea224fe,,,,,,,,,3534,132,55,1,0,0,response1disk,,6,-17,0,1,0,0,rectangle,-17,0,1,0,0,-17,0,1,0,0,1,136,296,119,1,,,,,,,,
,,,,,,,,,,,,,FF,,,,,,,,0.65,,,,,,,,,,,,,,,,,,,,,,60f660d407beb2fa01b360ef,6103770326b3a5b98dfa1790,2021-07-29_20h58.55.993,Simcolourproject_2stim_asymm_v5,2020.2.10,Win32,60,61025ae37ef11b136ea224fe,,,,,,,,,111,45,147,1,0,0,response1disk,,7,2,7,1,0,0,rectangle,2,7,1,0,0,2,7,1,0,0,1,137,297,57,1,,,,,,,,
,,,,,,,,,,,,,FF,,,,,,,,1,,,,,,,,,,,,,,,,,,,,,,60f660d407beb2fa01b360ef,6103770326b3a5b98dfa1790,2021-07-29_20h58.55.993,Simcolourproject_2stim_asymm_v5,2020.2.10,Win32,60,61025ae37ef11b136ea224fe,,,,,,,,,3836,127,-55,1,0,0,response3disk,,5,11,-1,1,0,0,rectangle,11,-1,1,0,0,11,-1,1,0,0,1,138,298,42,1,,,,,,,,
,,,,,,,,,,,,,FF,,,,,,,,0.734,,,,,,,,,,,,,,,,,,,,,,60f660d407beb2fa01b360ef,6103770326b3a5b98dfa1790,2021-07-29_20h58.55.993,Simcolourproject_2stim_asymm_v5,2020.2.10,Win32,60,61025ae37ef11b136ea224fe,,,,,,,,,560,46,139,1,0,0,response1disk,,7,2,20,1,0,0,rectangle,2,20,1,0,0,2,20,1,0,0,1,139,299,64,1,,,,,,,,
,,,,,,,,,,,,,FF,,,,,,,,0.516,,,,,,,,,,,,,,,,,,,,,,60f660d407beb2fa01b360ef,6103770326b3a5b98dfa1790,2021-07-29_20h58.55.993,Simcolourproject_2stim_asymm_v5,2020.2.10,Win32,60,61025ae37ef11b136ea224fe,,,,,,,,,3415,86,137,1,0,0,response1disk,,7,3,2,1,0,0,rectangle,3,2,1,0,0,3,2,1,0,0,1,140,300,132,1,,,,,,,,
,,,,,,,,,,,,,FF,,,,,,,,0.65,,,,,,,,,,,,,,,,,,,,,,60f660d407beb2fa01b360ef,6103770326b3a5b98dfa1790,2021-07-29_20h58.55.993,Simcolourproject_2stim_asymm_v5,2020.2.10,Win32,60,61025ae37ef11b136ea224fe,,,,,,,,,1988,60,155,1,0,0,response1disk,,7,-2,-4,1,0,0,rectangle,137,46,1,0,0,1,5,1,0,0,1,141,301,90,1,,response1disk_3,TRUE,6,6,"[269,93,226,224,63,219,312,310,302,212,184,63,295,198,64,162,175,82,133,66]",1.533,rectangle
,,,,,,,,,,,,,FF,,,,,,,,1.249,,,,,,,,,,,,,,,,,,,,,,60f660d407beb2fa01b360ef,6103770326b3a5b98dfa1790,2021-07-29_20h58.55.993,Simcolourproject_2stim_asymm_v5,2020.2.10,Win32,60,61025ae37ef11b136ea224fe,,,,,,,,,1794,52,-140,1,0,0,response3disk,,4,-6,1,1,0,0,rectangle,-6,1,1,0,0,-6,1,1,0,0,1,142,302,20,1,,,,,,,,
,,,,,,,,,,,,,FF,,,,,,,,1.1,,,,,,,,,,,,,,,,,,,,,,60f660d407beb2fa01b360ef,6103770326b3a5b98dfa1790,2021-07-29_20h58.55.993,Simcolourproject_2stim_asymm_v5,2020.2.10,Win32,60,61025ae37ef11b136ea224fe,,,,,,,,,882,65,-139,1,0,0,response3disk,,4,23,-2,1,0,0,rectangle,23,-2,1,0,0,23,-2,1,0,0,1,143,303,105,1,,,,,,,,
