key_resp.keys,key_resp.rt,key_resp_14.keys,key_resp_14.rt,key_resp_15.keys,key_resp_15.rt,key_resp_17.keys,key_resp_17.rt,key_resp_9.keys,key_resp_9.rt,key_resp_10.keys,key_resp_10.rt,practice_comparison,Ecc,mouse_5.x,mouse_5.y,mouse_5.leftButton,mouse_5.midButton,mouse_5.rightButton,mouse_5.clicked_name,pracsimilarity,response_time,mouse_10.x,mouse_10.y,mouse_10.leftButton,mouse_10.midButton,mouse_10.rightButton,mouse_10.clicked_name,mouse_7.x,mouse_7.y,mouse_7.leftButton,mouse_7.midButton,mouse_7.rightButton,mouse_6.x,mouse_6.y,mouse_6.leftButton,mouse_6.midButton,mouse_6.rightButton,duringprac.thisRepN,duringprac.thisTrialN,duringprac.thisN,duringprac.thisIndex,duringprac.ran,participant,session,date,expName,psychopyVersion,OS,frameRate,study_id,mouse_7.clicked_name,catchpracsimilarity,catch_response_time,catchnumberprac,catchtrialorderprac,mouse_6.clicked_name,key_resp_22.keys,key_resp_22.rt,realcomparison,mouse.x,mouse.y,mouse.leftButton,mouse.midButton,mouse.rightButton,mouse.clicked_name,Colour2,similarity,mouse_2.x,mouse_2.y,mouse_2.leftButton,mouse_2.midButton,mouse_2.rightButton,mouse_2.clicked_name,mouse_3.x,mouse_3.y,mouse_3.leftButton,mouse_3.midButton,mouse_3.rightButton,mouse_11.x,mouse_11.y,mouse_11.leftButton,mouse_11.midButton,mouse_11.rightButton,trials_2.thisRepN,trials_2.thisTrialN,trials_2.thisN,trials_2.thisIndex,trials_2.ran,Colour1,mouse_3.clicked_name,catchornah,catchsimilarity,catchnumber,catchtrialorder,catchRT,mouse_11.clicked_name
space,2.2009,space,11.8872,space,18.3582,space,8.9266,space,3.7013,space,5.6992,72,PF,43,75,1,0,0,response1disk_5,7,11.105,-4,-1,1,0,0,rectangle_8,-4,-1,1,0,0,-4,-1,1,0,0,0,0,0,1,1,60f7da3cfc0813737c408ce3,610378d108a848faa498e4a5,2021-07-30_05h59.52.865,Simcolourproject_2stim_asymm_v5,2020.2.10,Win32,60,61025ae37ef11b136ea224fe,,,,,,,,,,,,,,,,,,,,,,,,,,,,,,,,,,,,,,,,,,,,,,
,,,,,,,,,,,,39,FF,-88,-38,1,0,0,response5disk_5,2,7.6079,5,2,1,0,0,rectangle_8,-91,-49,1,0,0,14,-6,1,0,0,0,1,1,3,1,60f7da3cfc0813737c408ce3,610378d108a848faa498e4a5,2021-07-30_05h59.52.865,Simcolourproject_2stim_asymm_v5,2020.2.10,Win32,60,61025ae37ef11b136ea224fe,response5disk_7,2,4.2737,2,"[2,5]",rectangle_4,,,,,,,,,,,,,,,,,,,,,,,,,,,,,,,,,,,,,,,,
,,,,,,,,,,,,34,PF,45,69,1,0,0,response1disk_5,7,4.7852,-2,-3,1,0,0,rectangle_8,-2,-3,1,0,0,-2,-3,1,0,0,0,2,2,2,1,60f7da3cfc0813737c408ce3,610378d108a848faa498e4a5,2021-07-30_05h59.52.865,Simcolourproject_2stim_asymm_v5,2020.2.10,Win32,60,61025ae37ef11b136ea224fe,,,,,,,,,,,,,,,,,,,,,,,,,,,,,,,,,,,,,,,,,,,,,,
,,,,,,,,,,,,95,PF,50,102,1,0,0,response1disk_5,7,4.0739,-15,4,1,0,0,rectangle_8,-15,4,1,0,0,-15,4,1,0,0,0,3,3,6,1,60f7da3cfc0813737c408ce3,610378d108a848faa498e4a5,2021-07-30_05h59.52.865,Simcolourproject_2stim_asymm_v5,2020.2.10,Win32,60,61025ae37ef11b136ea224fe,,,,,,,,,,,,,,,,,,,,,,,,,,,,,,,,,,,,,,,,,,,,,,
,,,,,,,,,,,,154,FF,-47,98,1,0,0,response7disk_5,0,3.5028,1,11,1,0,0,rectangle_8,-102,-46,1,0,0,-13,-6,1,0,0,0,4,4,5,1,60f7da3cfc0813737c408ce3,610378d108a848faa498e4a5,2021-07-30_05h59.52.865,Simcolourproject_2stim_asymm_v5,2020.2.10,Win32,60,61025ae37ef11b136ea224fe,response5disk_7,2,5.6028,2,"[2,5]",rectangle_4,,,,,,,,,,,,,,,,,,,,,,,,,,,,,,,,,,,,,,,,
,,,,,,,,,,,,127,PF,53,92,1,0,0,response1disk_5,7,5.785,2,9,1,0,0,rectangle_8,2,9,1,0,0,2,9,1,0,0,0,5,5,4,1,60f7da3cfc0813737c408ce3,610378d108a848faa498e4a5,2021-07-30_05h59.52.865,Simcolourproject_2stim_asymm_v5,2020.2.10,Win32,60,61025ae37ef11b136ea224fe,,,,,,,,,,,,,,,,,,,,,,,,,,,,,,,,,,,,,,,,,,,,,,
,,,,,,,,,,,,52,FF,-47,93,1,0,0,response7disk_5,0,12.9723,9,6,1,0,0,rectangle_8,9,6,1,0,0,9,6,1,0,0,0,6,6,0,1,60f7da3cfc0813737c408ce3,610378d108a848faa498e4a5,2021-07-30_05h59.52.865,Simcolourproject_2stim_asymm_v5,2020.2.10,Win32,60,61025ae37ef11b136ea224fe,,,,,,,,,,,,,,,,,,,,,,,,,,,,,,,,,,,,,,,,,,,,,,
,,,,,,,,,,,,,FF,,,,,,,,4.9896,,,,,,,,,,,,,,,,,,,,,,60f7da3cfc0813737c408ce3,610378d108a848faa498e4a5,2021-07-30_05h59.52.865,Simcolourproject_2stim_asymm_v5,2020.2.10,Win32,60,61025ae37ef11b136ea224fe,,,,,,,space,7,834,-49,82,1,0,0,response7disk,,0,-18,-4,1,0,0,rectangle,-18,-4,1,0,0,-18,-4,1,0,0,0,0,0,103,1,,,,,,,,
,,,,,,,,,,,,,FF,,,,,,,,3.4192,,,,,,,,,,,,,,,,,,,,,,60f7da3cfc0813737c408ce3,610378d108a848faa498e4a5,2021-07-30_05h59.52.865,Simcolourproject_2stim_asymm_v5,2020.2.10,Win32,60,61025ae37ef11b136ea224fe,,,,,,,,,1400,-34,96,1,0,0,response7disk,,0,20,-2,1,0,0,rectangle,20,-2,1,0,0,20,-2,1,0,0,0,1,1,3,1,,,,,,,,
,,,,,,,,,,,,,FF,,,,,,,,13.8896,,,,,,,,,,,,,,,,,,,,,,60f7da3cfc0813737c408ce3,610378d108a848faa498e4a5,2021-07-30_05h59.52.865,Simcolourproject_2stim_asymm_v5,2020.2.10,Win32,60,61025ae37ef11b136ea224fe,,,,,,,,,2401,24,67,1,0,0,response1disk,,7,-11,-5,1,0,0,rectangle,-11,-5,1,0,0,-11,-5,1,0,0,0,2,2,154,1,,,,,,,,
,,,,,,,,,,,,,FF,,,,,,,,2.4334,,,,,,,,,,,,,,,,,,,,,,60f7da3cfc0813737c408ce3,610378d108a848faa498e4a5,2021-07-30_05h59.52.865,Simcolourproject_2stim_asymm_v5,2020.2.10,Win32,60,61025ae37ef11b136ea224fe,,,,,,,,,2178,32,109,1,0,0,response1disk,,7,-6,4,1,0,0,rectangle,-6,4,1,0,0,-6,4,1,0,0,0,3,3,48,1,,,,,,,,
,,,,,,,,,,,,,FF,,,,,,,,2.7352,,,,,,,,,,,,,,,,,,,,,,60f7da3cfc0813737c408ce3,610378d108a848faa498e4a5,2021-07-30_05h59.52.865,Simcolourproject_2stim_asymm_v5,2020.2.10,Win32,60,61025ae37ef11b136ea224fe,,,,,,,,,1887,-33,104,1,0,0,response7disk,,0,7,0,1,0,0,rectangle,7,0,1,0,0,7,0,1,0,0,0,4,4,44,1,,,,,,,,
,,,,,,,,,,,,,FF,,,,,,,,1.7014,,,,,,,,,,,,,,,,,,,,,,60f7da3cfc0813737c408ce3,610378d108a848faa498e4a5,2021-07-30_05h59.52.865,Simcolourproject_2stim_asymm_v5,2020.2.10,Win32,60,61025ae37ef11b136ea224fe,,,,,,,,,3495,56,111,1,0,0,response1disk,,7,5,0,1,0,0,rectangle,5,0,1,0,0,5,0,1,0,0,0,5,5,47,1,,,,,,,,
,,,,,,,,,,,,,FF,,,,,,,,2.9856,,,,,,,,,,,,,,,,,,,,,,60f7da3cfc0813737c408ce3,610378d108a848faa498e4a5,2021-07-30_05h59.52.865,Simcolourproject_2stim_asymm_v5,2020.2.10,Win32,60,61025ae37ef11b136ea224fe,,,,,,,,,99,-37,85,1,0,0,response7disk,,0,6,-7,1,0,0,rectangle,6,-7,1,0,0,6,-7,1,0,0,0,6,6,11,1,,,,,,,,
,,,,,,,,,,,,,FF,,,,,,,,8.5034,,,,,,,,,,,,,,,,,,,,,,60f7da3cfc0813737c408ce3,610378d108a848faa498e4a5,2021-07-30_05h59.52.865,Simcolourproject_2stim_asymm_v5,2020.2.10,Win32,60,61025ae37ef11b136ea224fe,,,,,,,,,3138,43,-67,1,0,0,response3disk,,4,-5,2,1,0,0,rectangle,-5,2,1,0,0,-5,2,1,0,0,0,7,7,117,1,,,,,,,,
,,,,,,,,,,,,,FF,,,,,,,,3.7358,,,,,,,,,,,,,,,,,,,,,,60f7da3cfc0813737c408ce3,610378d108a848faa498e4a5,2021-07-30_05h59.52.865,Simcolourproject_2stim_asymm_v5,2020.2.10,Win32,60,61025ae37ef11b136ea224fe,,,,,,,,,773,44,65,1,0,0,response1disk,,7,8,4,1,0,0,rectangle,8,4,1,0,0,8,4,1,0,0,0,8,8,59,1,,,,,,,,
,,,,,,,,,,,,,FF,,,,,,,,3.2694,,,,,,,,,,,,,,,,,,,,,,60f7da3cfc0813737c408ce3,610378d108a848faa498e4a5,2021-07-30_05h59.52.865,Simcolourproject_2stim_asymm_v5,2020.2.10,Win32,60,61025ae37ef11b136ea224fe,,,,,,,,,1695,39,87,1,0,0,response1disk,,7,-3,6,1,0,0,rectangle,-3,6,1,0,0,-3,6,1,0,0,0,9,9,60,1,,,,,,,,
,,,,,,,,,,,,,FF,,,,,,,,5.2199,,,,,,,,,,,,,,,,,,,,,,60f7da3cfc0813737c408ce3,610378d108a848faa498e4a5,2021-07-30_05h59.52.865,Simcolourproject_2stim_asymm_v5,2020.2.10,Win32,60,61025ae37ef11b136ea224fe,,,,,,,,,3623,-89,-37,1,0,0,response5disk,,2,-4,4,1,0,0,rectangle,-4,4,1,0,0,-4,4,1,0,0,0,10,10,40,1,,,,,,,,
,,,,,,,,,,,,,FF,,,,,,,,9.2212,,,,,,,,,,,,,,,,,,,,,,60f7da3cfc0813737c408ce3,610378d108a848faa498e4a5,2021-07-30_05h59.52.865,Simcolourproject_2stim_asymm_v5,2020.2.10,Win32,60,61025ae37ef11b136ea224fe,,,,,,,,,1832,-85,54,1,0,0,response7disk,,1,12,13,1,0,0,rectangle,12,13,1,0,0,12,13,1,0,0,0,11,11,137,1,,,,,,,,
,,,,,,,,,,,,,FF,,,,,,,,2.6181,,,,,,,,,,,,,,,,,,,,,,60f7da3cfc0813737c408ce3,610378d108a848faa498e4a5,2021-07-30_05h59.52.865,Simcolourproject_2stim_asymm_v5,2020.2.10,Win32,60,61025ae37ef11b136ea224fe,,,,,,,,,2201,67,106,1,0,0,response1disk,,7,6,1,1,0,0,rectangle,6,1,1,0,0,6,1,1,0,0,0,12,12,37,1,,,,,,,,
,,,,,,,,,,,,,FF,,,,,,,,1.6369,,,,,,,,,,,,,,,,,,,,,,60f7da3cfc0813737c408ce3,610378d108a848faa498e4a5,2021-07-30_05h59.52.865,Simcolourproject_2stim_asymm_v5,2020.2.10,Win32,60,61025ae37ef11b136ea224fe,,,,,,,,,1399,48,104,1,0,0,response1disk,,7,11,-1,1,0,0,rectangle,11,-1,1,0,0,11,-1,1,0,0,0,13,13,135,1,,,,,,,,
,,,,,,,,,,,,,FF,,,,,,,,2.1526,,,,,,,,,,,,,,,,,,,,,,60f7da3cfc0813737c408ce3,610378d108a848faa498e4a5,2021-07-30_05h59.52.865,Simcolourproject_2stim_asymm_v5,2020.2.10,Win32,60,61025ae37ef11b136ea224fe,,,,,,,,,3620,31,81,1,0,0,response1disk,,7,-4,-3,1,0,0,rectangle,-4,-3,1,0,0,-4,-3,1,0,0,0,14,14,118,1,,,,,,,,
,,,,,,,,,,,,,FF,,,,,,,,2.966,,,,,,,,,,,,,,,,,,,,,,60f7da3cfc0813737c408ce3,610378d108a848faa498e4a5,2021-07-30_05h59.52.865,Simcolourproject_2stim_asymm_v5,2020.2.10,Win32,60,61025ae37ef11b136ea224fe,,,,,,,,,872,43,80,1,0,0,response1disk,,7,-1,2,1,0,0,rectangle,-1,2,1,0,0,-1,2,1,0,0,0,15,15,90,1,,,,,,,,
,,,,,,,,,,,,,FF,,,,,,,,1.1403,,,,,,,,,,,,,,,,,,,,,,60f7da3cfc0813737c408ce3,610378d108a848faa498e4a5,2021-07-30_05h59.52.865,Simcolourproject_2stim_asymm_v5,2020.2.10,Win32,60,61025ae37ef11b136ea224fe,,,,,,,,,782,56,117,1,0,0,response1disk,,7,5,0,1,0,0,rectangle,5,0,1,0,0,5,0,1,0,0,0,16,16,101,1,,,,,,,,
,,,,,,,,,,,,,FF,,,,,,,,2.0366,,,,,,,,,,,,,,,,,,,,,,60f7da3cfc0813737c408ce3,610378d108a848faa498e4a5,2021-07-30_05h59.52.865,Simcolourproject_2stim_asymm_v5,2020.2.10,Win32,60,61025ae37ef11b136ea224fe,,,,,,,,,815,22,68,1,0,0,response1disk,,7,-13,0,1,0,0,rectangle,-13,0,1,0,0,-13,0,1,0,0,0,17,17,143,1,,,,,,,,
,,,,,,,,,,,,,FF,,,,,,,,1.8683,,,,,,,,,,,,,,,,,,,,,,60f7da3cfc0813737c408ce3,610378d108a848faa498e4a5,2021-07-30_05h59.52.865,Simcolourproject_2stim_asymm_v5,2020.2.10,Win32,60,61025ae37ef11b136ea224fe,,,,,,,,,3747,-39,71,1,0,0,response7disk,,0,-12,-1,1,0,0,rectangle,-44,-90,1,0,0,2,4,1,0,0,0,18,18,148,1,,response5disk_3,TRUE,3,3,"[262,227,173,100,66,222,168,204,310,250,249,206,279,102,142,19,270,45,23,163]",2.9209,rectangle
,,,,,,,,,,,,,FF,,,,,,,,2.0522,,,,,,,,,,,,,,,,,,,,,,60f7da3cfc0813737c408ce3,610378d108a848faa498e4a5,2021-07-30_05h59.52.865,Simcolourproject_2stim_asymm_v5,2020.2.10,Win32,60,61025ae37ef11b136ea224fe,,,,,,,,,2314,19,91,1,0,0,response1disk,,7,-7,4,1,0,0,rectangle,-7,4,1,0,0,-7,4,1,0,0,0,19,19,130,1,,,,,,,,
,,,,,,,,,,,,,FF,,,,,,,,1.635,,,,,,,,,,,,,,,,,,,,,,60f7da3cfc0813737c408ce3,610378d108a848faa498e4a5,2021-07-30_05h59.52.865,Simcolourproject_2stim_asymm_v5,2020.2.10,Win32,60,61025ae37ef11b136ea224fe,,,,,,,,,494,36,77,1,0,0,response1disk,,7,1,7,1,0,0,rectangle,1,7,1,0,0,1,7,1,0,0,0,20,20,93,1,,,,,,,,
,,,,,,,,,,,,,FF,,,,,,,,2.7028,,,,,,,,,,,,,,,,,,,,,,60f7da3cfc0813737c408ce3,610378d108a848faa498e4a5,2021-07-30_05h59.52.865,Simcolourproject_2stim_asymm_v5,2020.2.10,Win32,60,61025ae37ef11b136ea224fe,,,,,,,,,2111,-59,-65,1,0,0,response5disk,,3,2,12,1,0,0,rectangle,2,12,1,0,0,2,12,1,0,0,0,21,21,89,1,,,,,,,,
,,,,,,,,,,,,,FF,,,,,,,,1.5021,,,,,,,,,,,,,,,,,,,,,,60f7da3cfc0813737c408ce3,610378d108a848faa498e4a5,2021-07-30_05h59.52.865,Simcolourproject_2stim_asymm_v5,2020.2.10,Win32,60,61025ae37ef11b136ea224fe,,,,,,,,,3758,35,112,1,0,0,response1disk,,7,-1,8,1,0,0,rectangle,93,-35,1,0,0,11,6,1,0,0,0,22,22,53,1,,response3disk_3,TRUE,5,5,"[262,227,173,100,66,222,168,204,310,250,249,206,279,102,142,19,270,45,23,163]",2.8733,rectangle
,,,,,,,,,,,,,FF,,,,,,,,1.6175,,,,,,,,,,,,,,,,,,,,,,60f7da3cfc0813737c408ce3,610378d108a848faa498e4a5,2021-07-30_05h59.52.865,Simcolourproject_2stim_asymm_v5,2020.2.10,Win32,60,61025ae37ef11b136ea224fe,,,,,,,,,2736,45,94,1,0,0,response1disk,,7,12,10,1,0,0,rectangle,12,10,1,0,0,12,10,1,0,0,0,23,23,31,1,,,,,,,,
,,,,,,,,,,,,,FF,,,,,,,,2.2015,,,,,,,,,,,,,,,,,,,,,,60f7da3cfc0813737c408ce3,610378d108a848faa498e4a5,2021-07-30_05h59.52.865,Simcolourproject_2stim_asymm_v5,2020.2.10,Win32,60,61025ae37ef11b136ea224fe,,,,,,,,,898,-70,-28,1,0,0,response5disk,,2,0,3,1,0,0,rectangle,0,3,1,0,0,0,3,1,0,0,0,24,24,87,1,,,,,,,,
,,,,,,,,,,,,,FF,,,,,,,,1.6182,,,,,,,,,,,,,,,,,,,,,,60f7da3cfc0813737c408ce3,610378d108a848faa498e4a5,2021-07-30_05h59.52.865,Simcolourproject_2stim_asymm_v5,2020.2.10,Win32,60,61025ae37ef11b136ea224fe,,,,,,,,,2636,-48,-98,1,0,0,response5disk,,3,-5,0,1,0,0,rectangle,-5,0,1,0,0,-5,0,1,0,0,0,25,25,1,1,,,,,,,,
,,,,,,,,,,,,,FF,,,,,,,,1.7351,,,,,,,,,,,,,,,,,,,,,,60f7da3cfc0813737c408ce3,610378d108a848faa498e4a5,2021-07-30_05h59.52.865,Simcolourproject_2stim_asymm_v5,2020.2.10,Win32,60,61025ae37ef11b136ea224fe,,,,,,,,,3365,16,50,1,0,0,response1disk,,7,-14,-15,1,0,0,rectangle,-14,-15,1,0,0,-14,-15,1,0,0,0,26,26,146,1,,,,,,,,
,,,,,,,,,,,,,FF,,,,,,,,1.7357,,,,,,,,,,,,,,,,,,,,,,60f7da3cfc0813737c408ce3,610378d108a848faa498e4a5,2021-07-30_05h59.52.865,Simcolourproject_2stim_asymm_v5,2020.2.10,Win32,60,61025ae37ef11b136ea224fe,,,,,,,,,824,93,-34,1,0,0,response3disk,,5,18,2,1,0,0,rectangle,18,2,1,0,0,18,2,1,0,0,0,27,27,58,1,,,,,,,,
,,,,,,,,,,,,,FF,,,,,,,,1.4847,,,,,,,,,,,,,,,,,,,,,,60f7da3cfc0813737c408ce3,610378d108a848faa498e4a5,2021-07-30_05h59.52.865,Simcolourproject_2stim_asymm_v5,2020.2.10,Win32,60,61025ae37ef11b136ea224fe,,,,,,,,,4325,30,79,1,0,0,response1disk,,7,2,-1,1,0,0,rectangle,2,-1,1,0,0,2,-1,1,0,0,0,28,28,12,1,,,,,,,,
,,,,,,,,,,,,,FF,,,,,,,,1.0682,,,,,,,,,,,,,,,,,,,,,,60f7da3cfc0813737c408ce3,610378d108a848faa498e4a5,2021-07-30_05h59.52.865,Simcolourproject_2stim_asymm_v5,2020.2.10,Win32,60,61025ae37ef11b136ea224fe,,,,,,,,,1725,48,99,1,0,0,response1disk,,7,1,-2,1,0,0,rectangle,1,-2,1,0,0,1,-2,1,0,0,0,29,29,88,1,,,,,,,,
,,,,,,,,,,,,,FF,,,,,,,,1.167,,,,,,,,,,,,,,,,,,,,,,60f7da3cfc0813737c408ce3,610378d108a848faa498e4a5,2021-07-30_05h59.52.865,Simcolourproject_2stim_asymm_v5,2020.2.10,Win32,60,61025ae37ef11b136ea224fe,,,,,,,,,604,42,102,1,0,0,response1disk,,7,7,-1,1,0,0,rectangle,7,-1,1,0,0,7,-1,1,0,0,0,30,30,111,1,,,,,,,,
,,,,,,,,,,,,,FF,,,,,,,,1.2011,,,,,,,,,,,,,,,,,,,,,,60f7da3cfc0813737c408ce3,610378d108a848faa498e4a5,2021-07-30_05h59.52.865,Simcolourproject_2stim_asymm_v5,2020.2.10,Win32,60,61025ae37ef11b136ea224fe,,,,,,,,,2080,29,83,1,0,0,response1disk,,7,-4,-7,1,0,0,rectangle,-4,-7,1,0,0,-4,-7,1,0,0,0,31,31,153,1,,,,,,,,
,,,,,,,,,,,,,FF,,,,,,,,1.0709,,,,,,,,,,,,,,,,,,,,,,60f7da3cfc0813737c408ce3,610378d108a848faa498e4a5,2021-07-30_05h59.52.865,Simcolourproject_2stim_asymm_v5,2020.2.10,Win32,60,61025ae37ef11b136ea224fe,,,,,,,,,1848,41,80,1,0,0,response1disk,,7,-4,-2,1,0,0,rectangle,-4,-2,1,0,0,-4,-2,1,0,0,0,32,32,25,1,,,,,,,,
,,,,,,,,,,,,,FF,,,,,,,,1.0002,,,,,,,,,,,,,,,,,,,,,,60f7da3cfc0813737c408ce3,610378d108a848faa498e4a5,2021-07-30_05h59.52.865,Simcolourproject_2stim_asymm_v5,2020.2.10,Win32,60,61025ae37ef11b136ea224fe,,,,,,,,,861,43,84,1,0,0,response1disk,,7,9,-1,1,0,0,rectangle,9,-1,1,0,0,9,-1,1,0,0,0,33,33,115,1,,,,,,,,
,,,,,,,,,,,,,FF,,,,,,,,1.2178,,,,,,,,,,,,,,,,,,,,,,60f7da3cfc0813737c408ce3,610378d108a848faa498e4a5,2021-07-30_05h59.52.865,Simcolourproject_2stim_asymm_v5,2020.2.10,Win32,60,61025ae37ef11b136ea224fe,,,,,,,,,4274,27,67,1,0,0,response1disk,,7,6,1,1,0,0,rectangle,6,1,1,0,0,6,1,1,0,0,0,34,34,69,1,,,,,,,,
,,,,,,,,,,,,,FF,,,,,,,,0.9512,,,,,,,,,,,,,,,,,,,,,,60f7da3cfc0813737c408ce3,610378d108a848faa498e4a5,2021-07-30_05h59.52.865,Simcolourproject_2stim_asymm_v5,2020.2.10,Win32,60,61025ae37ef11b136ea224fe,,,,,,,,,4008,43,107,1,0,0,response1disk,,7,1,1,1,0,0,rectangle,1,1,1,0,0,1,1,1,0,0,0,35,35,77,1,,,,,,,,
,,,,,,,,,,,,,FF,,,,,,,,0.9672,,,,,,,,,,,,,,,,,,,,,,60f7da3cfc0813737c408ce3,610378d108a848faa498e4a5,2021-07-30_05h59.52.865,Simcolourproject_2stim_asymm_v5,2020.2.10,Win32,60,61025ae37ef11b136ea224fe,,,,,,,,,3121,46,107,1,0,0,response1disk,,7,1,1,1,0,0,rectangle,1,1,1,0,0,1,1,1,0,0,0,36,36,144,1,,,,,,,,
,,,,,,,,,,,,,FF,,,,,,,,0.9682,,,,,,,,,,,,,,,,,,,,,,60f7da3cfc0813737c408ce3,610378d108a848faa498e4a5,2021-07-30_05h59.52.865,Simcolourproject_2stim_asymm_v5,2020.2.10,Win32,60,61025ae37ef11b136ea224fe,,,,,,,,,318,40,88,1,0,0,response1disk,,7,3,3,1,0,0,rectangle,3,3,1,0,0,3,3,1,0,0,0,37,37,94,1,,,,,,,,
,,,,,,,,,,,,,FF,,,,,,,,1.8361,,,,,,,,,,,,,,,,,,,,,,60f7da3cfc0813737c408ce3,610378d108a848faa498e4a5,2021-07-30_05h59.52.865,Simcolourproject_2stim_asymm_v5,2020.2.10,Win32,60,61025ae37ef11b136ea224fe,,,,,,,,,180,34,87,1,0,0,response1disk,,7,6,5,1,0,0,rectangle,6,5,1,0,0,6,5,1,0,0,0,38,38,74,1,,,,,,,,
,,,,,,,,,,,,,FF,,,,,,,,1.334,,,,,,,,,,,,,,,,,,,,,,60f7da3cfc0813737c408ce3,610378d108a848faa498e4a5,2021-07-30_05h59.52.865,Simcolourproject_2stim_asymm_v5,2020.2.10,Win32,60,61025ae37ef11b136ea224fe,,,,,,,,,3968,-79,-53,1,0,0,response5disk,,2,-26,-3,1,0,0,rectangle,-26,-3,1,0,0,-26,-3,1,0,0,0,39,39,52,1,,,,,,,,
,,,,,,,,,,,,,FF,,,,,,,,2.1178,,,,,,,,,,,,,,,,,,,,,,60f7da3cfc0813737c408ce3,610378d108a848faa498e4a5,2021-07-30_05h59.52.865,Simcolourproject_2stim_asymm_v5,2020.2.10,Win32,60,61025ae37ef11b136ea224fe,,,,,,,,,1395,29,83,1,0,0,response1disk,,7,12,4,1,0,0,rectangle,12,4,1,0,0,12,4,1,0,0,0,40,40,62,1,,,,,,,,
,,,,,,,,,,,,,FF,,,,,,,,1.6011,,,,,,,,,,,,,,,,,,,,,,60f7da3cfc0813737c408ce3,610378d108a848faa498e4a5,2021-07-30_05h59.52.865,Simcolourproject_2stim_asymm_v5,2020.2.10,Win32,60,61025ae37ef11b136ea224fe,,,,,,,,,185,-41,96,1,0,0,response7disk,,0,11,6,1,0,0,rectangle,11,6,1,0,0,11,6,1,0,0,0,41,41,67,1,,,,,,,,
,,,,,,,,,,,,,FF,,,,,,,,1.1835,,,,,,,,,,,,,,,,,,,,,,60f7da3cfc0813737c408ce3,610378d108a848faa498e4a5,2021-07-30_05h59.52.865,Simcolourproject_2stim_asymm_v5,2020.2.10,Win32,60,61025ae37ef11b136ea224fe,,,,,,,,,310,63,99,1,0,0,response1disk,,7,18,9,1,0,0,rectangle,18,9,1,0,0,18,9,1,0,0,0,42,42,76,1,,,,,,,,
,,,,,,,,,,,,,FF,,,,,,,,1.1348,,,,,,,,,,,,,,,,,,,,,,60f7da3cfc0813737c408ce3,610378d108a848faa498e4a5,2021-07-30_05h59.52.865,Simcolourproject_2stim_asymm_v5,2020.2.10,Win32,60,61025ae37ef11b136ea224fe,,,,,,,,,2356,-34,90,1,0,0,response7disk,,0,5,2,1,0,0,rectangle,5,2,1,0,0,5,2,1,0,0,0,43,43,81,1,,,,,,,,
,,,,,,,,,,,,,FF,,,,,,,,1.1674,,,,,,,,,,,,,,,,,,,,,,60f7da3cfc0813737c408ce3,610378d108a848faa498e4a5,2021-07-30_05h59.52.865,Simcolourproject_2stim_asymm_v5,2020.2.10,Win32,60,61025ae37ef11b136ea224fe,,,,,,,,,4223,-47,82,1,0,0,response7disk,,0,-10,4,1,0,0,rectangle,-40,113,1,0,0,-17,11,1,0,0,0,44,44,17,1,,response7disk_3,TRUE,0,0,"[262,227,173,100,66,222,168,204,310,250,249,206,279,102,142,19,270,45,23,163]",2.5364,rectangle
,,,,,,,,,,,,,FF,,,,,,,,1.0842,,,,,,,,,,,,,,,,,,,,,,60f7da3cfc0813737c408ce3,610378d108a848faa498e4a5,2021-07-30_05h59.52.865,Simcolourproject_2stim_asymm_v5,2020.2.10,Win32,60,61025ae37ef11b136ea224fe,,,,,,,,,1300,-47,105,1,0,0,response7disk,,0,1,2,1,0,0,rectangle,1,2,1,0,0,1,2,1,0,0,0,45,45,26,1,,,,,,,,
,,,,,,,,,,,,,FF,,,,,,,,1.6855,,,,,,,,,,,,,,,,,,,,,,60f7da3cfc0813737c408ce3,610378d108a848faa498e4a5,2021-07-30_05h59.52.865,Simcolourproject_2stim_asymm_v5,2020.2.10,Win32,60,61025ae37ef11b136ea224fe,,,,,,,,,4347,-49,-71,1,0,0,response5disk,,3,-3,3,1,0,0,rectangle,-3,3,1,0,0,-3,3,1,0,0,0,46,46,61,1,,,,,,,,
,,,,,,,,,,,,,FF,,,,,,,,1.9356,,,,,,,,,,,,,,,,,,,,,,60f7da3cfc0813737c408ce3,610378d108a848faa498e4a5,2021-07-30_05h59.52.865,Simcolourproject_2stim_asymm_v5,2020.2.10,Win32,60,61025ae37ef11b136ea224fe,,,,,,,,,770,38,82,1,0,0,response1disk,,7,14,-1,1,0,0,rectangle,14,-1,1,0,0,14,-1,1,0,0,0,47,47,63,1,,,,,,,,
,,,,,,,,,,,,,FF,,,,,,,,1.649,,,,,,,,,,,,,,,,,,,,,,60f7da3cfc0813737c408ce3,610378d108a848faa498e4a5,2021-07-30_05h59.52.865,Simcolourproject_2stim_asymm_v5,2020.2.10,Win32,60,61025ae37ef11b136ea224fe,,,,,,,,,2103,-44,-65,1,0,0,response5disk,,3,-9,12,1,0,0,rectangle,-9,12,1,0,0,-9,12,1,0,0,0,48,48,121,1,,,,,,,,
,,,,,,,,,,,,,FF,,,,,,,,1.7649,,,,,,,,,,,,,,,,,,,,,,60f7da3cfc0813737c408ce3,610378d108a848faa498e4a5,2021-07-30_05h59.52.865,Simcolourproject_2stim_asymm_v5,2020.2.10,Win32,60,61025ae37ef11b136ea224fe,,,,,,,,,3157,-25,-73,1,0,0,response5disk,,3,-12,-7,1,0,0,rectangle,-12,-7,1,0,0,-12,-7,1,0,0,0,49,49,149,1,,,,,,,,
,,,,,,,,,,,,,FF,,,,,,,,1.2548,,,,,,,,,,,,,,,,,,,,,,60f7da3cfc0813737c408ce3,610378d108a848faa498e4a5,2021-07-30_05h59.52.865,Simcolourproject_2stim_asymm_v5,2020.2.10,Win32,60,61025ae37ef11b136ea224fe,,,,,,,,,220,22,84,1,0,0,response1disk,,7,7,-4,1,0,0,rectangle,7,-4,1,0,0,7,-4,1,0,0,0,50,50,80,1,,,,,,,,
,,,,,,,,,,,,,FF,,,,,,,,1.017,,,,,,,,,,,,,,,,,,,,,,60f7da3cfc0813737c408ce3,610378d108a848faa498e4a5,2021-07-30_05h59.52.865,Simcolourproject_2stim_asymm_v5,2020.2.10,Win32,60,61025ae37ef11b136ea224fe,,,,,,,,,1634,31,92,1,0,0,response1disk,,7,0,-1,1,0,0,rectangle,0,-1,1,0,0,0,-1,1,0,0,0,51,51,32,1,,,,,,,,
,,,,,,,,,,,,,FF,,,,,,,,1.1219,,,,,,,,,,,,,,,,,,,,,,60f7da3cfc0813737c408ce3,610378d108a848faa498e4a5,2021-07-30_05h59.52.865,Simcolourproject_2stim_asymm_v5,2020.2.10,Win32,60,61025ae37ef11b136ea224fe,,,,,,,,,1245,35,81,1,0,0,response1disk,,7,13,5,1,0,0,rectangle,13,5,1,0,0,13,5,1,0,0,0,52,52,45,1,,,,,,,,
,,,,,,,,,,,,,FF,,,,,,,,0.9867,,,,,,,,,,,,,,,,,,,,,,60f7da3cfc0813737c408ce3,610378d108a848faa498e4a5,2021-07-30_05h59.52.865,Simcolourproject_2stim_asymm_v5,2020.2.10,Win32,60,61025ae37ef11b136ea224fe,,,,,,,,,2535,22,91,1,0,0,response1disk,,7,-5,-4,1,0,0,rectangle,-5,-4,1,0,0,-5,-4,1,0,0,0,53,53,19,1,,,,,,,,
,,,,,,,,,,,,,FF,,,,,,,,1.764,,,,,,,,,,,,,,,,,,,,,,60f7da3cfc0813737c408ce3,610378d108a848faa498e4a5,2021-07-30_05h59.52.865,Simcolourproject_2stim_asymm_v5,2020.2.10,Win32,60,61025ae37ef11b136ea224fe,,,,,,,,,2976,39,90,1,0,0,response1disk,,7,-4,-13,1,0,0,rectangle,-4,-13,1,0,0,-4,-13,1,0,0,0,54,54,105,1,,,,,,,,
,,,,,,,,,,,,,FF,,,,,,,,1.101,,,,,,,,,,,,,,,,,,,,,,60f7da3cfc0813737c408ce3,610378d108a848faa498e4a5,2021-07-30_05h59.52.865,Simcolourproject_2stim_asymm_v5,2020.2.10,Win32,60,61025ae37ef11b136ea224fe,,,,,,,,,4212,36,97,1,0,0,response1disk,,7,-9,-5,1,0,0,rectangle,-9,-5,1,0,0,-9,-5,1,0,0,0,55,55,7,1,,,,,,,,
,,,,,,,,,,,,,FF,,,,,,,,1.0145,,,,,,,,,,,,,,,,,,,,,,60f7da3cfc0813737c408ce3,610378d108a848faa498e4a5,2021-07-30_05h59.52.865,Simcolourproject_2stim_asymm_v5,2020.2.10,Win32,60,61025ae37ef11b136ea224fe,,,,,,,,,1004,39,93,1,0,0,response1disk,,7,16,-3,1,0,0,rectangle,16,-3,1,0,0,16,-3,1,0,0,0,56,56,145,1,,,,,,,,
,,,,,,,,,,,,,FF,,,,,,,,1.5219,,,,,,,,,,,,,,,,,,,,,,60f7da3cfc0813737c408ce3,610378d108a848faa498e4a5,2021-07-30_05h59.52.865,Simcolourproject_2stim_asymm_v5,2020.2.10,Win32,60,61025ae37ef11b136ea224fe,,,,,,,,,1207,33,91,1,0,0,response1disk,,7,-22,-6,1,0,0,rectangle,-22,-6,1,0,0,-22,-6,1,0,0,0,57,57,79,1,,,,,,,,
,,,,,,,,,,,,,FF,,,,,,,,0.9519,,,,,,,,,,,,,,,,,,,,,,60f7da3cfc0813737c408ce3,610378d108a848faa498e4a5,2021-07-30_05h59.52.865,Simcolourproject_2stim_asymm_v5,2020.2.10,Win32,60,61025ae37ef11b136ea224fe,,,,,,,,,230,29,83,1,0,0,response1disk,,7,7,7,1,0,0,rectangle,7,7,1,0,0,7,7,1,0,0,0,58,58,6,1,,,,,,,,
,,,,,,,,,,,,,FF,,,,,,,,1.5342,,,,,,,,,,,,,,,,,,,,,,60f7da3cfc0813737c408ce3,610378d108a848faa498e4a5,2021-07-30_05h59.52.865,Simcolourproject_2stim_asymm_v5,2020.2.10,Win32,60,61025ae37ef11b136ea224fe,,,,,,,,,1224,-38,-72,1,0,0,response5disk,,3,9,14,1,0,0,rectangle,9,14,1,0,0,9,14,1,0,0,0,59,59,30,1,,,,,,,,
,,,,,,,,,,,,,FF,,,,,,,,0.9019,,,,,,,,,,,,,,,,,,,,,,60f7da3cfc0813737c408ce3,610378d108a848faa498e4a5,2021-07-30_05h59.52.865,Simcolourproject_2stim_asymm_v5,2020.2.10,Win32,60,61025ae37ef11b136ea224fe,,,,,,,,,2581,23,86,1,0,0,response1disk,,7,1,6,1,0,0,rectangle,1,6,1,0,0,1,6,1,0,0,0,60,60,139,1,,,,,,,,
,,,,,,,,,,,,,FF,,,,,,,,1.1344,,,,,,,,,,,,,,,,,,,,,,60f7da3cfc0813737c408ce3,610378d108a848faa498e4a5,2021-07-30_05h59.52.865,Simcolourproject_2stim_asymm_v5,2020.2.10,Win32,60,61025ae37ef11b136ea224fe,,,,,,,,,1913,41,98,1,0,0,response1disk,,7,0,7,1,0,0,rectangle,0,7,1,0,0,0,7,1,0,0,0,61,61,83,1,,,,,,,,
,,,,,,,,,,,,,FF,,,,,,,,1.868,,,,,,,,,,,,,,,,,,,,,,60f7da3cfc0813737c408ce3,610378d108a848faa498e4a5,2021-07-30_05h59.52.865,Simcolourproject_2stim_asymm_v5,2020.2.10,Win32,60,61025ae37ef11b136ea224fe,,,,,,,,,3554,-74,-43,1,0,0,response5disk,,2,-4,6,1,0,0,rectangle,-4,6,1,0,0,-4,6,1,0,0,0,62,62,140,1,,,,,,,,
,,,,,,,,,,,,,FF,,,,,,,,1.5342,,,,,,,,,,,,,,,,,,,,,,60f7da3cfc0813737c408ce3,610378d108a848faa498e4a5,2021-07-30_05h59.52.865,Simcolourproject_2stim_asymm_v5,2020.2.10,Win32,60,61025ae37ef11b136ea224fe,,,,,,,,,438,-91,-45,1,0,0,response5disk,,2,-12,11,1,0,0,rectangle,-12,11,1,0,0,-12,11,1,0,0,0,63,63,99,1,,,,,,,,
,,,,,,,,,,,,,FF,,,,,,,,1.8511,,,,,,,,,,,,,,,,,,,,,,60f7da3cfc0813737c408ce3,610378d108a848faa498e4a5,2021-07-30_05h59.52.865,Simcolourproject_2stim_asymm_v5,2020.2.10,Win32,60,61025ae37ef11b136ea224fe,,,,,,,,,3856,67,90,1,0,0,response1disk,,7,19,9,1,0,0,rectangle,19,9,1,0,0,19,9,1,0,0,0,64,64,102,1,,,,,,,,
,,,,,,,,,,,,,FF,,,,,,,,1.6522,,,,,,,,,,,,,,,,,,,,,,60f7da3cfc0813737c408ce3,610378d108a848faa498e4a5,2021-07-30_05h59.52.865,Simcolourproject_2stim_asymm_v5,2020.2.10,Win32,60,61025ae37ef11b136ea224fe,,,,,,,,,3686,-49,-76,1,0,0,response5disk,,3,-10,2,1,0,0,rectangle,43,-77,1,0,0,21,1,1,0,0,0,65,65,10,1,,response3disk_3,TRUE,4,4,"[262,227,173,100,66,222,168,204,310,250,249,206,279,102,142,19,270,45,23,163]",1.6674,rectangle
,,,,,,,,,,,,,FF,,,,,,,,1.6693,,,,,,,,,,,,,,,,,,,,,,60f7da3cfc0813737c408ce3,610378d108a848faa498e4a5,2021-07-30_05h59.52.865,Simcolourproject_2stim_asymm_v5,2020.2.10,Win32,60,61025ae37ef11b136ea224fe,,,,,,,,,3752,41,120,1,0,0,response1disk,,7,0,8,1,0,0,rectangle,0,8,1,0,0,0,8,1,0,0,0,66,66,113,1,,,,,,,,
,,,,,,,,,,,,,FF,,,,,,,,3.2548,,,,,,,,,,,,,,,,,,,,,,60f7da3cfc0813737c408ce3,610378d108a848faa498e4a5,2021-07-30_05h59.52.865,Simcolourproject_2stim_asymm_v5,2020.2.10,Win32,60,61025ae37ef11b136ea224fe,,,,,,,,,1810,43,-101,1,0,0,response3disk,,4,20,-5,1,0,0,rectangle,20,-5,1,0,0,20,-5,1,0,0,0,67,67,70,1,,,,,,,,
,,,,,,,,,,,,,FF,,,,,,,,1.6714,,,,,,,,,,,,,,,,,,,,,,60f7da3cfc0813737c408ce3,610378d108a848faa498e4a5,2021-07-30_05h59.52.865,Simcolourproject_2stim_asymm_v5,2020.2.10,Win32,60,61025ae37ef11b136ea224fe,,,,,,,,,3183,31,115,1,0,0,response1disk,,7,2,11,1,0,0,rectangle,2,11,1,0,0,2,11,1,0,0,0,68,68,106,1,,,,,,,,
,,,,,,,,,,,,,FF,,,,,,,,0.8986,,,,,,,,,,,,,,,,,,,,,,60f7da3cfc0813737c408ce3,610378d108a848faa498e4a5,2021-07-30_05h59.52.865,Simcolourproject_2stim_asymm_v5,2020.2.10,Win32,60,61025ae37ef11b136ea224fe,,,,,,,,,928,28,73,1,0,0,response1disk,,7,11,7,1,0,0,rectangle,11,7,1,0,0,11,7,1,0,0,0,69,69,85,1,,,,,,,,
,,,,,,,,,,,,,FF,,,,,,,,0.9213,,,,,,,,,,,,,,,,,,,,,,60f7da3cfc0813737c408ce3,610378d108a848faa498e4a5,2021-07-30_05h59.52.865,Simcolourproject_2stim_asymm_v5,2020.2.10,Win32,60,61025ae37ef11b136ea224fe,,,,,,,,,160,48,78,1,0,0,response1disk,,7,19,3,1,0,0,rectangle,19,3,1,0,0,19,3,1,0,0,0,70,70,28,1,,,,,,,,
,,,,,,,,,,,,,FF,,,,,,,,2.4687,,,,,,,,,,,,,,,,,,,,,,60f7da3cfc0813737c408ce3,610378d108a848faa498e4a5,2021-07-30_05h59.52.865,Simcolourproject_2stim_asymm_v5,2020.2.10,Win32,60,61025ae37ef11b136ea224fe,,,,,,,,,1956,-63,117,1,0,0,response7disk,,0,-14,12,1,0,0,rectangle,-14,12,1,0,0,-14,12,1,0,0,0,71,71,122,1,,,,,,,,
,,,,,,,,,,,,,FF,,,,,,,,1.0045,,,,,,,,,,,,,,,,,,,,,,60f7da3cfc0813737c408ce3,610378d108a848faa498e4a5,2021-07-30_05h59.52.865,Simcolourproject_2stim_asymm_v5,2020.2.10,Win32,60,61025ae37ef11b136ea224fe,,,,,,,,,373,32,77,1,0,0,response1disk,,7,12,2,1,0,0,rectangle,12,2,1,0,0,12,2,1,0,0,0,72,72,51,1,,,,,,,,
,,,,,,,,,,,,,FF,,,,,,,,1.2062,,,,,,,,,,,,,,,,,,,,,,60f7da3cfc0813737c408ce3,610378d108a848faa498e4a5,2021-07-30_05h59.52.865,Simcolourproject_2stim_asymm_v5,2020.2.10,Win32,60,61025ae37ef11b136ea224fe,,,,,,,,,2406,36,73,1,0,0,response1disk,,7,15,-1,1,0,0,rectangle,15,-1,1,0,0,15,-1,1,0,0,0,73,73,13,1,,,,,,,,
,,,,,,,,,,,,,FF,,,,,,,,0.8515,,,,,,,,,,,,,,,,,,,,,,60f7da3cfc0813737c408ce3,610378d108a848faa498e4a5,2021-07-30_05h59.52.865,Simcolourproject_2stim_asymm_v5,2020.2.10,Win32,60,61025ae37ef11b136ea224fe,,,,,,,,,3026,39,72,1,0,0,response1disk,,7,16,4,1,0,0,rectangle,16,4,1,0,0,16,4,1,0,0,0,74,74,24,1,,,,,,,,
,,,,,,,,,,,,,FF,,,,,,,,0.8684,,,,,,,,,,,,,,,,,,,,,,60f7da3cfc0813737c408ce3,610378d108a848faa498e4a5,2021-07-30_05h59.52.865,Simcolourproject_2stim_asymm_v5,2020.2.10,Win32,60,61025ae37ef11b136ea224fe,,,,,,,,,841,26,68,1,0,0,response1disk,,7,5,2,1,0,0,rectangle,5,2,1,0,0,5,2,1,0,0,0,75,75,136,1,,,,,,,,
,,,,,,,,,,,,,FF,,,,,,,,0.9986,,,,,,,,,,,,,,,,,,,,,,60f7da3cfc0813737c408ce3,610378d108a848faa498e4a5,2021-07-30_05h59.52.865,Simcolourproject_2stim_asymm_v5,2020.2.10,Win32,60,61025ae37ef11b136ea224fe,,,,,,,,,2699,20,95,1,0,0,response1disk,,7,-19,4,1,0,0,rectangle,-19,4,1,0,0,-19,4,1,0,0,0,76,76,0,1,,,,,,,,
,,,,,,,,,,,,,FF,,,,,,,,1.3874,,,,,,,,,,,,,,,,,,,,,,60f7da3cfc0813737c408ce3,610378d108a848faa498e4a5,2021-07-30_05h59.52.865,Simcolourproject_2stim_asymm_v5,2020.2.10,Win32,60,61025ae37ef11b136ea224fe,,,,,,,,,1155,71,-47,1,0,0,response3disk,,5,12,-5,1,0,0,rectangle,12,-5,1,0,0,12,-5,1,0,0,0,77,77,120,1,,,,,,,,
,,,,,,,,,,,,,FF,,,,,,,,0.9663,,,,,,,,,,,,,,,,,,,,,,60f7da3cfc0813737c408ce3,610378d108a848faa498e4a5,2021-07-30_05h59.52.865,Simcolourproject_2stim_asymm_v5,2020.2.10,Win32,60,61025ae37ef11b136ea224fe,,,,,,,,,4023,28,95,1,0,0,response1disk,,7,-10,-8,1,0,0,rectangle,-10,-8,1,0,0,-10,-8,1,0,0,0,78,78,43,1,,,,,,,,
,,,,,,,,,,,,,FF,,,,,,,,1.0379,,,,,,,,,,,,,,,,,,,,,,60f7da3cfc0813737c408ce3,610378d108a848faa498e4a5,2021-07-30_05h59.52.865,Simcolourproject_2stim_asymm_v5,2020.2.10,Win32,60,61025ae37ef11b136ea224fe,,,,,,,,,1204,57,100,1,0,0,response1disk,,7,13,6,1,0,0,rectangle,13,6,1,0,0,13,6,1,0,0,0,79,79,129,1,,,,,,,,
,,,,,,,,,,,,,FF,,,,,,,,0.9516,,,,,,,,,,,,,,,,,,,,,,60f7da3cfc0813737c408ce3,610378d108a848faa498e4a5,2021-07-30_05h59.52.865,Simcolourproject_2stim_asymm_v5,2020.2.10,Win32,60,61025ae37ef11b136ea224fe,,,,,,,,,1643,53,85,1,0,0,response1disk,,7,15,5,1,0,0,rectangle,15,5,1,0,0,15,5,1,0,0,0,80,80,104,1,,,,,,,,
,,,,,,,,,,,,,FF,,,,,,,,0.7343,,,,,,,,,,,,,,,,,,,,,,60f7da3cfc0813737c408ce3,610378d108a848faa498e4a5,2021-07-30_05h59.52.865,Simcolourproject_2stim_asymm_v5,2020.2.10,Win32,60,61025ae37ef11b136ea224fe,,,,,,,,,55,24,77,1,0,0,response1disk,,7,4,12,1,0,0,rectangle,4,12,1,0,0,4,12,1,0,0,0,81,81,157,1,,,,,,,,
,,,,,,,,,,,,,FF,,,,,,,,0.7516,,,,,,,,,,,,,,,,,,,,,,60f7da3cfc0813737c408ce3,610378d108a848faa498e4a5,2021-07-30_05h59.52.865,Simcolourproject_2stim_asymm_v5,2020.2.10,Win32,60,61025ae37ef11b136ea224fe,,,,,,,,,3321,21,84,1,0,0,response1disk,,7,-18,-4,1,0,0,rectangle,-18,-4,1,0,0,-18,-4,1,0,0,0,82,82,158,1,,,,,,,,
,,,,,,,,,,,,,FF,,,,,,,,1.4251,,,,,,,,,,,,,,,,,,,,,,60f7da3cfc0813737c408ce3,610378d108a848faa498e4a5,2021-07-30_05h59.52.865,Simcolourproject_2stim_asymm_v5,2020.2.10,Win32,60,61025ae37ef11b136ea224fe,,,,,,,,,3099,-86,33,1,0,0,response7disk,,1,-4,-3,1,0,0,rectangle,-4,-3,1,0,0,-4,-3,1,0,0,0,83,83,54,1,,,,,,,,
,,,,,,,,,,,,,FF,,,,,,,,1.1348,,,,,,,,,,,,,,,,,,,,,,60f7da3cfc0813737c408ce3,610378d108a848faa498e4a5,2021-07-30_05h59.52.865,Simcolourproject_2stim_asymm_v5,2020.2.10,Win32,60,61025ae37ef11b136ea224fe,,,,,,,,,1374,-73,34,1,0,0,response7disk,,1,-1,-4,1,0,0,rectangle,-1,-4,1,0,0,-1,-4,1,0,0,0,84,84,91,1,,,,,,,,
,,,,,,,,,,,,,FF,,,,,,,,0.9544,,,,,,,,,,,,,,,,,,,,,,60f7da3cfc0813737c408ce3,610378d108a848faa498e4a5,2021-07-30_05h59.52.865,Simcolourproject_2stim_asymm_v5,2020.2.10,Win32,60,61025ae37ef11b136ea224fe,,,,,,,,,1635,21,82,1,0,0,response1disk,,7,14,8,1,0,0,rectangle,14,8,1,0,0,14,8,1,0,0,0,85,85,41,1,,,,,,,,
,,,,,,,,,,,,,FF,,,,,,,,1.2193,,,,,,,,,,,,,,,,,,,,,,60f7da3cfc0813737c408ce3,610378d108a848faa498e4a5,2021-07-30_05h59.52.865,Simcolourproject_2stim_asymm_v5,2020.2.10,Win32,60,61025ae37ef11b136ea224fe,,,,,,,,,1953,31,79,1,0,0,response1disk,,7,6,-5,1,0,0,rectangle,6,-5,1,0,0,6,-5,1,0,0,0,86,86,109,1,,,,,,,,
,,,,,,,,,,,,,FF,,,,,,,,0.9703,,,,,,,,,,,,,,,,,,,,,,60f7da3cfc0813737c408ce3,610378d108a848faa498e4a5,2021-07-30_05h59.52.865,Simcolourproject_2stim_asymm_v5,2020.2.10,Win32,60,61025ae37ef11b136ea224fe,,,,,,,,,2533,33,85,1,0,0,response1disk,,7,10,5,1,0,0,rectangle,10,5,1,0,0,10,5,1,0,0,0,87,87,71,1,,,,,,,,
,,,,,,,,,,,,,FF,,,,,,,,0.8844,,,,,,,,,,,,,,,,,,,,,,60f7da3cfc0813737c408ce3,610378d108a848faa498e4a5,2021-07-30_05h59.52.865,Simcolourproject_2stim_asymm_v5,2020.2.10,Win32,60,61025ae37ef11b136ea224fe,,,,,,,,,2122,15,87,1,0,0,response1disk,,7,7,2,1,0,0,rectangle,7,2,1,0,0,7,2,1,0,0,0,88,88,75,1,,,,,,,,
,,,,,,,,,,,,,FF,,,,,,,,0.8338,,,,,,,,,,,,,,,,,,,,,,60f7da3cfc0813737c408ce3,610378d108a848faa498e4a5,2021-07-30_05h59.52.865,Simcolourproject_2stim_asymm_v5,2020.2.10,Win32,60,61025ae37ef11b136ea224fe,,,,,,,,,2678,54,98,1,0,0,response1disk,,7,20,4,1,0,0,rectangle,20,4,1,0,0,20,4,1,0,0,0,89,89,15,1,,,,,,,,
,,,,,,,,,,,,,FF,,,,,,,,0.7503,,,,,,,,,,,,,,,,,,,,,,60f7da3cfc0813737c408ce3,610378d108a848faa498e4a5,2021-07-30_05h59.52.865,Simcolourproject_2stim_asymm_v5,2020.2.10,Win32,60,61025ae37ef11b136ea224fe,,,,,,,,,1038,53,109,1,0,0,response1disk,,7,18,-10,1,0,0,rectangle,18,-10,1,0,0,18,-10,1,0,0,0,90,90,73,1,,,,,,,,
,,,,,,,,,,,,,FF,,,,,,,,0.9363,,,,,,,,,,,,,,,,,,,,,,60f7da3cfc0813737c408ce3,610378d108a848faa498e4a5,2021-07-30_05h59.52.865,Simcolourproject_2stim_asymm_v5,2020.2.10,Win32,60,61025ae37ef11b136ea224fe,,,,,,,,,1500,29,76,1,0,0,response1disk,,7,-6,3,1,0,0,rectangle,-6,3,1,0,0,-6,3,1,0,0,0,91,91,39,1,,,,,,,,
,,,,,,,,,,,,,FF,,,,,,,,1.1672,,,,,,,,,,,,,,,,,,,,,,60f7da3cfc0813737c408ce3,610378d108a848faa498e4a5,2021-07-30_05h59.52.865,Simcolourproject_2stim_asymm_v5,2020.2.10,Win32,60,61025ae37ef11b136ea224fe,,,,,,,,,2898,27,77,1,0,0,response1disk,,7,-3,4,1,0,0,rectangle,-3,4,1,0,0,-3,4,1,0,0,0,92,92,147,1,,,,,,,,
,,,,,,,,,,,,,FF,,,,,,,,1.4008,,,,,,,,,,,,,,,,,,,,,,60f7da3cfc0813737c408ce3,610378d108a848faa498e4a5,2021-07-30_05h59.52.865,Simcolourproject_2stim_asymm_v5,2020.2.10,Win32,60,61025ae37ef11b136ea224fe,,,,,,,,,3193,-35,-88,1,0,0,response5disk,,3,-17,12,1,0,0,rectangle,-17,12,1,0,0,-17,12,1,0,0,0,93,93,55,1,,,,,,,,
,,,,,,,,,,,,,FF,,,,,,,,1.3863,,,,,,,,,,,,,,,,,,,,,,60f7da3cfc0813737c408ce3,610378d108a848faa498e4a5,2021-07-30_05h59.52.865,Simcolourproject_2stim_asymm_v5,2020.2.10,Win32,60,61025ae37ef11b136ea224fe,,,,,,,,,873,34,93,1,0,0,response1disk,,7,2,-2,1,0,0,rectangle,2,-2,1,0,0,2,-2,1,0,0,0,94,94,9,1,,,,,,,,
,,,,,,,,,,,,,FF,,,,,,,,1.051,,,,,,,,,,,,,,,,,,,,,,60f7da3cfc0813737c408ce3,610378d108a848faa498e4a5,2021-07-30_05h59.52.865,Simcolourproject_2stim_asymm_v5,2020.2.10,Win32,60,61025ae37ef11b136ea224fe,,,,,,,,,2795,49,104,1,0,0,response1disk,,7,-13,-6,1,0,0,rectangle,-13,-6,1,0,0,-13,-6,1,0,0,0,95,95,86,1,,,,,,,,
,,,,,,,,,,,,,FF,,,,,,,,1.1679,,,,,,,,,,,,,,,,,,,,,,60f7da3cfc0813737c408ce3,610378d108a848faa498e4a5,2021-07-30_05h59.52.865,Simcolourproject_2stim_asymm_v5,2020.2.10,Win32,60,61025ae37ef11b136ea224fe,,,,,,,,,2612,27,78,1,0,0,response1disk,,7,3,1,1,0,0,rectangle,3,1,1,0,0,3,1,1,0,0,0,96,96,18,1,,,,,,,,
,,,,,,,,,,,,,FF,,,,,,,,1.418,,,,,,,,,,,,,,,,,,,,,,60f7da3cfc0813737c408ce3,610378d108a848faa498e4a5,2021-07-30_05h59.52.865,Simcolourproject_2stim_asymm_v5,2020.2.10,Win32,60,61025ae37ef11b136ea224fe,,,,,,,,,970,-35,77,1,0,0,response7disk,,0,-18,6,1,0,0,rectangle,-18,6,1,0,0,-18,6,1,0,0,0,97,97,49,1,,,,,,,,
,,,,,,,,,,,,,FF,,,,,,,,0.9849,,,,,,,,,,,,,,,,,,,,,,60f7da3cfc0813737c408ce3,610378d108a848faa498e4a5,2021-07-30_05h59.52.865,Simcolourproject_2stim_asymm_v5,2020.2.10,Win32,60,61025ae37ef11b136ea224fe,,,,,,,,,1368,-36,106,1,0,0,response7disk,,0,-23,12,1,0,0,rectangle,-23,12,1,0,0,-23,12,1,0,0,0,98,98,50,1,,,,,,,,
,,,,,,,,,,,,,FF,,,,,,,,0.9341,,,,,,,,,,,,,,,,,,,,,,60f7da3cfc0813737c408ce3,610378d108a848faa498e4a5,2021-07-30_05h59.52.865,Simcolourproject_2stim_asymm_v5,2020.2.10,Win32,60,61025ae37ef11b136ea224fe,,,,,,,,,897,51,100,1,0,0,response1disk,,7,-4,4,1,0,0,rectangle,87,-33,1,0,0,6,2,1,0,0,0,99,99,124,1,,response3disk_3,TRUE,5,5,"[262,227,173,100,66,222,168,204,310,250,249,206,279,102,142,19,270,45,23,163]",2.0677,rectangle
,,,,,,,,,,,,,FF,,,,,,,,1.2007,,,,,,,,,,,,,,,,,,,,,,60f7da3cfc0813737c408ce3,610378d108a848faa498e4a5,2021-07-30_05h59.52.865,Simcolourproject_2stim_asymm_v5,2020.2.10,Win32,60,61025ae37ef11b136ea224fe,,,,,,,,,912,41,86,1,0,0,response1disk,,7,15,-4,1,0,0,rectangle,15,-4,1,0,0,15,-4,1,0,0,0,100,100,97,1,,,,,,,,
,,,,,,,,,,,,,FF,,,,,,,,1.1178,,,,,,,,,,,,,,,,,,,,,,60f7da3cfc0813737c408ce3,610378d108a848faa498e4a5,2021-07-30_05h59.52.865,Simcolourproject_2stim_asymm_v5,2020.2.10,Win32,60,61025ae37ef11b136ea224fe,,,,,,,,,4021,-21,93,1,0,0,response7disk,,0,-3,1,1,0,0,rectangle,-42,99,1,0,0,-18,10,1,0,0,0,101,101,141,1,,response7disk_3,TRUE,0,0,"[262,227,173,100,66,222,168,204,310,250,249,206,279,102,142,19,270,45,23,163]",3.7357,rectangle
,,,,,,,,,,,,,FF,,,,,,,,1.2011,,,,,,,,,,,,,,,,,,,,,,60f7da3cfc0813737c408ce3,610378d108a848faa498e4a5,2021-07-30_05h59.52.865,Simcolourproject_2stim_asymm_v5,2020.2.10,Win32,60,61025ae37ef11b136ea224fe,,,,,,,,,3825,72,103,1,0,0,response1disk,,7,20,5,1,0,0,rectangle,20,5,1,0,0,20,5,1,0,0,0,102,102,5,1,,,,,,,,
,,,,,,,,,,,,,FF,,,,,,,,0.9069,,,,,,,,,,,,,,,,,,,,,,60f7da3cfc0813737c408ce3,610378d108a848faa498e4a5,2021-07-30_05h59.52.865,Simcolourproject_2stim_asymm_v5,2020.2.10,Win32,60,61025ae37ef11b136ea224fe,,,,,,,,,1350,29,86,1,0,0,response1disk,,7,1,-6,1,0,0,rectangle,1,-6,1,0,0,1,-6,1,0,0,0,103,103,95,1,,,,,,,,
,,,,,,,,,,,,,FF,,,,,,,,0.9013,,,,,,,,,,,,,,,,,,,,,,60f7da3cfc0813737c408ce3,610378d108a848faa498e4a5,2021-07-30_05h59.52.865,Simcolourproject_2stim_asymm_v5,2020.2.10,Win32,60,61025ae37ef11b136ea224fe,,,,,,,,,2910,30,95,1,0,0,response1disk,,7,5,-10,1,0,0,rectangle,5,-10,1,0,0,5,-10,1,0,0,0,104,104,127,1,,,,,,,,
,,,,,,,,,,,,,FF,,,,,,,,0.7701,,,,,,,,,,,,,,,,,,,,,,60f7da3cfc0813737c408ce3,610378d108a848faa498e4a5,2021-07-30_05h59.52.865,Simcolourproject_2stim_asymm_v5,2020.2.10,Win32,60,61025ae37ef11b136ea224fe,,,,,,,,,1028,38,90,1,0,0,response1disk,,7,-4,2,1,0,0,rectangle,-4,2,1,0,0,-4,2,1,0,0,0,105,105,133,1,,,,,,,,
,,,,,,,,,,,,,FF,,,,,,,,0.7176,,,,,,,,,,,,,,,,,,,,,,60f7da3cfc0813737c408ce3,610378d108a848faa498e4a5,2021-07-30_05h59.52.865,Simcolourproject_2stim_asymm_v5,2020.2.10,Win32,60,61025ae37ef11b136ea224fe,,,,,,,,,523,31,82,1,0,0,response1disk,,7,-5,-4,1,0,0,rectangle,-5,-4,1,0,0,-5,-4,1,0,0,0,106,106,46,1,,,,,,,,
,,,,,,,,,,,,,FF,,,,,,,,0.8513,,,,,,,,,,,,,,,,,,,,,,60f7da3cfc0813737c408ce3,610378d108a848faa498e4a5,2021-07-30_05h59.52.865,Simcolourproject_2stim_asymm_v5,2020.2.10,Win32,60,61025ae37ef11b136ea224fe,,,,,,,,,1263,30,92,1,0,0,response1disk,,7,-15,1,1,0,0,rectangle,-15,1,1,0,0,-15,1,1,0,0,0,107,107,64,1,,,,,,,,
,,,,,,,,,,,,,FF,,,,,,,,0.8853,,,,,,,,,,,,,,,,,,,,,,60f7da3cfc0813737c408ce3,610378d108a848faa498e4a5,2021-07-30_05h59.52.865,Simcolourproject_2stim_asymm_v5,2020.2.10,Win32,60,61025ae37ef11b136ea224fe,,,,,,,,,681,18,72,1,0,0,response1disk,,7,2,-4,1,0,0,rectangle,2,-4,1,0,0,2,-4,1,0,0,0,108,108,29,1,,,,,,,,
,,,,,,,,,,,,,FF,,,,,,,,0.7649,,,,,,,,,,,,,,,,,,,,,,60f7da3cfc0813737c408ce3,610378d108a848faa498e4a5,2021-07-30_05h59.52.865,Simcolourproject_2stim_asymm_v5,2020.2.10,Win32,60,61025ae37ef11b136ea224fe,,,,,,,,,3273,29,118,1,0,0,response1disk,,7,-8,-7,1,0,0,rectangle,-8,-7,1,0,0,-8,-7,1,0,0,0,109,109,96,1,,,,,,,,
,,,,,,,,,,,,,FF,,,,,,,,0.7686,,,,,,,,,,,,,,,,,,,,,,60f7da3cfc0813737c408ce3,610378d108a848faa498e4a5,2021-07-30_05h59.52.865,Simcolourproject_2stim_asymm_v5,2020.2.10,Win32,60,61025ae37ef11b136ea224fe,,,,,,,,,2560,27,88,1,0,0,response1disk,,7,3,-1,1,0,0,rectangle,3,-1,1,0,0,3,-1,1,0,0,0,110,110,100,1,,,,,,,,
,,,,,,,,,,,,,FF,,,,,,,,0.8017,,,,,,,,,,,,,,,,,,,,,,60f7da3cfc0813737c408ce3,610378d108a848faa498e4a5,2021-07-30_05h59.52.865,Simcolourproject_2stim_asymm_v5,2020.2.10,Win32,60,61025ae37ef11b136ea224fe,,,,,,,,,4214,48,93,1,0,0,response1disk,,7,6,-11,1,0,0,rectangle,6,-11,1,0,0,6,-11,1,0,0,0,111,111,57,1,,,,,,,,
,,,,,,,,,,,,,FF,,,,,,,,0.6888,,,,,,,,,,,,,,,,,,,,,,60f7da3cfc0813737c408ce3,610378d108a848faa498e4a5,2021-07-30_05h59.52.865,Simcolourproject_2stim_asymm_v5,2020.2.10,Win32,60,61025ae37ef11b136ea224fe,,,,,,,,,3116,22,59,1,0,0,response1disk,,7,11,6,1,0,0,rectangle,11,6,1,0,0,11,6,1,0,0,0,112,112,159,1,,,,,,,,
,,,,,,,,,,,,,FF,,,,,,,,0.7217,,,,,,,,,,,,,,,,,,,,,,60f7da3cfc0813737c408ce3,610378d108a848faa498e4a5,2021-07-30_05h59.52.865,Simcolourproject_2stim_asymm_v5,2020.2.10,Win32,60,61025ae37ef11b136ea224fe,,,,,,,,,3733,34,80,1,0,0,response1disk,,7,-4,-1,1,0,0,rectangle,-4,-1,1,0,0,-4,-1,1,0,0,0,113,113,84,1,,,,,,,,
,,,,,,,,,,,,,FF,,,,,,,,0.9851,,,,,,,,,,,,,,,,,,,,,,60f7da3cfc0813737c408ce3,610378d108a848faa498e4a5,2021-07-30_05h59.52.865,Simcolourproject_2stim_asymm_v5,2020.2.10,Win32,60,61025ae37ef11b136ea224fe,,,,,,,,,3579,26,73,1,0,0,response1disk,,7,5,13,1,0,0,rectangle,5,13,1,0,0,5,13,1,0,0,0,114,114,34,1,,,,,,,,
,,,,,,,,,,,,,FF,,,,,,,,0.9045,,,,,,,,,,,,,,,,,,,,,,60f7da3cfc0813737c408ce3,610378d108a848faa498e4a5,2021-07-30_05h59.52.865,Simcolourproject_2stim_asymm_v5,2020.2.10,Win32,60,61025ae37ef11b136ea224fe,,,,,,,,,3688,41,97,1,0,0,response1disk,,7,16,8,1,0,0,rectangle,16,8,1,0,0,16,8,1,0,0,0,115,115,138,1,,,,,,,,
,,,,,,,,,,,,,FF,,,,,,,,1.3013,,,,,,,,,,,,,,,,,,,,,,60f7da3cfc0813737c408ce3,610378d108a848faa498e4a5,2021-07-30_05h59.52.865,Simcolourproject_2stim_asymm_v5,2020.2.10,Win32,60,61025ae37ef11b136ea224fe,,,,,,,,,4116,19,72,1,0,0,response1disk,,7,7,6,1,0,0,rectangle,7,6,1,0,0,7,6,1,0,0,0,116,116,27,1,,,,,,,,
,,,,,,,,,,,,,FF,,,,,,,,1.0011,,,,,,,,,,,,,,,,,,,,,,60f7da3cfc0813737c408ce3,610378d108a848faa498e4a5,2021-07-30_05h59.52.865,Simcolourproject_2stim_asymm_v5,2020.2.10,Win32,60,61025ae37ef11b136ea224fe,,,,,,,,,3147,-45,93,1,0,0,response7disk,,0,-19,11,1,0,0,rectangle,-19,11,1,0,0,-19,11,1,0,0,0,117,117,98,1,,,,,,,,
,,,,,,,,,,,,,FF,,,,,,,,1.1186,,,,,,,,,,,,,,,,,,,,,,60f7da3cfc0813737c408ce3,610378d108a848faa498e4a5,2021-07-30_05h59.52.865,Simcolourproject_2stim_asymm_v5,2020.2.10,Win32,60,61025ae37ef11b136ea224fe,,,,,,,,,3972,38,89,1,0,0,response1disk,,7,2,-9,1,0,0,rectangle,2,-9,1,0,0,2,-9,1,0,0,0,118,118,35,1,,,,,,,,
,,,,,,,,,,,,,FF,,,,,,,,0.9183,,,,,,,,,,,,,,,,,,,,,,60f7da3cfc0813737c408ce3,610378d108a848faa498e4a5,2021-07-30_05h59.52.865,Simcolourproject_2stim_asymm_v5,2020.2.10,Win32,60,61025ae37ef11b136ea224fe,,,,,,,,,4030,48,83,1,0,0,response1disk,,7,8,-7,1,0,0,rectangle,8,-7,1,0,0,8,-7,1,0,0,0,119,119,155,1,,,,,,,,
,,,,,,,,,,,,,FF,,,,,,,,1.0547,,,,,,,,,,,,,,,,,,,,,,60f7da3cfc0813737c408ce3,610378d108a848faa498e4a5,2021-07-30_05h59.52.865,Simcolourproject_2stim_asymm_v5,2020.2.10,Win32,60,61025ae37ef11b136ea224fe,,,,,,,,,4327,-45,95,1,0,0,response7disk,,0,-25,6,1,0,0,rectangle,-25,6,1,0,0,-25,6,1,0,0,0,120,120,156,1,,,,,,,,
,,,,,,,,,,,,,FF,,,,,,,,0.7714,,,,,,,,,,,,,,,,,,,,,,60f7da3cfc0813737c408ce3,610378d108a848faa498e4a5,2021-07-30_05h59.52.865,Simcolourproject_2stim_asymm_v5,2020.2.10,Win32,60,61025ae37ef11b136ea224fe,,,,,,,,,1699,30,99,1,0,0,response1disk,,7,-4,-5,1,0,0,rectangle,-4,-5,1,0,0,-4,-5,1,0,0,0,121,121,142,1,,,,,,,,
,,,,,,,,,,,,,FF,,,,,,,,0.901,,,,,,,,,,,,,,,,,,,,,,60f7da3cfc0813737c408ce3,610378d108a848faa498e4a5,2021-07-30_05h59.52.865,Simcolourproject_2stim_asymm_v5,2020.2.10,Win32,60,61025ae37ef11b136ea224fe,,,,,,,,,1912,33,81,1,0,0,response1disk,,7,-8,1,1,0,0,rectangle,-8,1,1,0,0,-8,1,1,0,0,0,122,122,116,1,,,,,,,,
,,,,,,,,,,,,,FF,,,,,,,,0.8546,,,,,,,,,,,,,,,,,,,,,,60f7da3cfc0813737c408ce3,610378d108a848faa498e4a5,2021-07-30_05h59.52.865,Simcolourproject_2stim_asymm_v5,2020.2.10,Win32,60,61025ae37ef11b136ea224fe,,,,,,,,,850,47,83,1,0,0,response1disk,,7,9,-8,1,0,0,rectangle,9,-8,1,0,0,9,-8,1,0,0,0,123,123,126,1,,,,,,,,
,,,,,,,,,,,,,FF,,,,,,,,0.8523,,,,,,,,,,,,,,,,,,,,,,60f7da3cfc0813737c408ce3,610378d108a848faa498e4a5,2021-07-30_05h59.52.865,Simcolourproject_2stim_asymm_v5,2020.2.10,Win32,60,61025ae37ef11b136ea224fe,,,,,,,,,135,45,91,1,0,0,response1disk,,7,11,-3,1,0,0,rectangle,11,-3,1,0,0,11,-3,1,0,0,0,124,124,151,1,,,,,,,,
,,,,,,,,,,,,,FF,,,,,,,,0.8679,,,,,,,,,,,,,,,,,,,,,,60f7da3cfc0813737c408ce3,610378d108a848faa498e4a5,2021-07-30_05h59.52.865,Simcolourproject_2stim_asymm_v5,2020.2.10,Win32,60,61025ae37ef11b136ea224fe,,,,,,,,,3016,25,84,1,0,0,response1disk,,7,8,1,1,0,0,rectangle,8,1,1,0,0,8,1,1,0,0,0,125,125,114,1,,,,,,,,
,,,,,,,,,,,,,FF,,,,,,,,0.8797,,,,,,,,,,,,,,,,,,,,,,60f7da3cfc0813737c408ce3,610378d108a848faa498e4a5,2021-07-30_05h59.52.865,Simcolourproject_2stim_asymm_v5,2020.2.10,Win32,60,61025ae37ef11b136ea224fe,,,,,,,,,2762,42,87,1,0,0,response1disk,,7,8,3,1,0,0,rectangle,8,3,1,0,0,8,3,1,0,0,0,126,126,150,1,,,,,,,,
,,,,,,,,,,,,,FF,,,,,,,,1.1485,,,,,,,,,,,,,,,,,,,,,,60f7da3cfc0813737c408ce3,610378d108a848faa498e4a5,2021-07-30_05h59.52.865,Simcolourproject_2stim_asymm_v5,2020.2.10,Win32,60,61025ae37ef11b136ea224fe,,,,,,,,,1621,-27,82,1,0,0,response7disk,,0,6,6,1,0,0,rectangle,6,6,1,0,0,6,6,1,0,0,0,127,127,4,1,,,,,,,,
,,,,,,,,,,,,,FF,,,,,,,,0.7718,,,,,,,,,,,,,,,,,,,,,,60f7da3cfc0813737c408ce3,610378d108a848faa498e4a5,2021-07-30_05h59.52.865,Simcolourproject_2stim_asymm_v5,2020.2.10,Win32,60,61025ae37ef11b136ea224fe,,,,,,,,,686,25,75,1,0,0,response1disk,,7,7,12,1,0,0,rectangle,7,12,1,0,0,7,12,1,0,0,0,128,128,119,1,,,,,,,,
,,,,,,,,,,,,,FF,,,,,,,,0.9016,,,,,,,,,,,,,,,,,,,,,,60f7da3cfc0813737c408ce3,610378d108a848faa498e4a5,2021-07-30_05h59.52.865,Simcolourproject_2stim_asymm_v5,2020.2.10,Win32,60,61025ae37ef11b136ea224fe,,,,,,,,,1732,30,87,1,0,0,response1disk,,7,7,12,1,0,0,rectangle,7,12,1,0,0,7,12,1,0,0,0,129,129,92,1,,,,,,,,
,,,,,,,,,,,,,FF,,,,,,,,1.7367,,,,,,,,,,,,,,,,,,,,,,60f7da3cfc0813737c408ce3,610378d108a848faa498e4a5,2021-07-30_05h59.52.865,Simcolourproject_2stim_asymm_v5,2020.2.10,Win32,60,61025ae37ef11b136ea224fe,,,,,,,,,1077,45,114,1,0,0,response1disk,,7,2,8,1,0,0,rectangle,2,8,1,0,0,2,8,1,0,0,0,130,130,20,1,,,,,,,,
,,,,,,,,,,,,,FF,,,,,,,,0.823,,,,,,,,,,,,,,,,,,,,,,60f7da3cfc0813737c408ce3,610378d108a848faa498e4a5,2021-07-30_05h59.52.865,Simcolourproject_2stim_asymm_v5,2020.2.10,Win32,60,61025ae37ef11b136ea224fe,,,,,,,,,2916,38,80,1,0,0,response1disk,,7,-4,-9,1,0,0,rectangle,-4,-9,1,0,0,-4,-9,1,0,0,0,131,131,110,1,,,,,,,,
,,,,,,,,,,,,,FF,,,,,,,,0.6675,,,,,,,,,,,,,,,,,,,,,,60f7da3cfc0813737c408ce3,610378d108a848faa498e4a5,2021-07-30_05h59.52.865,Simcolourproject_2stim_asymm_v5,2020.2.10,Win32,60,61025ae37ef11b136ea224fe,,,,,,,,,3762,28,82,1,0,0,response1disk,,7,3,6,1,0,0,rectangle,3,6,1,0,0,3,6,1,0,0,0,132,132,2,1,,,,,,,,
,,,,,,,,,,,,,FF,,,,,,,,1.056,,,,,,,,,,,,,,,,,,,,,,60f7da3cfc0813737c408ce3,610378d108a848faa498e4a5,2021-07-30_05h59.52.865,Simcolourproject_2stim_asymm_v5,2020.2.10,Win32,60,61025ae37ef11b136ea224fe,,,,,,,,,3187,37,94,1,0,0,response1disk,,7,-1,4,1,0,0,rectangle,-1,4,1,0,0,-1,4,1,0,0,0,133,133,22,1,,,,,,,,
,,,,,,,,,,,,,FF,,,,,,,,0.7671,,,,,,,,,,,,,,,,,,,,,,60f7da3cfc0813737c408ce3,610378d108a848faa498e4a5,2021-07-30_05h59.52.865,Simcolourproject_2stim_asymm_v5,2020.2.10,Win32,60,61025ae37ef11b136ea224fe,,,,,,,,,1582,30,84,1,0,0,response1disk,,7,5,4,1,0,0,rectangle,5,4,1,0,0,5,4,1,0,0,0,134,134,82,1,,,,,,,,
,,,,,,,,,,,,,FF,,,,,,,,0.8173,,,,,,,,,,,,,,,,,,,,,,60f7da3cfc0813737c408ce3,610378d108a848faa498e4a5,2021-07-30_05h59.52.865,Simcolourproject_2stim_asymm_v5,2020.2.10,Win32,60,61025ae37ef11b136ea224fe,,,,,,,,,380,24,104,1,0,0,response1disk,,7,6,3,1,0,0,rectangle,6,3,1,0,0,6,3,1,0,0,0,135,135,21,1,,,,,,,,
,,,,,,,,,,,,,FF,,,,,,,,0.8343,,,,,,,,,,,,,,,,,,,,,,60f7da3cfc0813737c408ce3,610378d108a848faa498e4a5,2021-07-30_05h59.52.865,Simcolourproject_2stim_asymm_v5,2020.2.10,Win32,60,61025ae37ef11b136ea224fe,,,,,,,,,1993,28,89,1,0,0,response1disk,,7,13,5,1,0,0,rectangle,13,5,1,0,0,13,5,1,0,0,0,136,136,134,1,,,,,,,,
,,,,,,,,,,,,,FF,,,,,,,,0.8716,,,,,,,,,,,,,,,,,,,,,,60f7da3cfc0813737c408ce3,610378d108a848faa498e4a5,2021-07-30_05h59.52.865,Simcolourproject_2stim_asymm_v5,2020.2.10,Win32,60,61025ae37ef11b136ea224fe,,,,,,,,,362,26,70,1,0,0,response1disk,,7,4,-8,1,0,0,rectangle,4,-8,1,0,0,4,-8,1,0,0,0,137,137,14,1,,,,,,,,
,,,,,,,,,,,,,FF,,,,,,,,0.7848,,,,,,,,,,,,,,,,,,,,,,60f7da3cfc0813737c408ce3,610378d108a848faa498e4a5,2021-07-30_05h59.52.865,Simcolourproject_2stim_asymm_v5,2020.2.10,Win32,60,61025ae37ef11b136ea224fe,,,,,,,,,2121,37,88,1,0,0,response1disk,,7,-1,-10,1,0,0,rectangle,-1,-10,1,0,0,-1,-10,1,0,0,0,138,138,72,1,,,,,,,,
,,,,,,,,,,,,,FF,,,,,,,,0.9342,,,,,,,,,,,,,,,,,,,,,,60f7da3cfc0813737c408ce3,610378d108a848faa498e4a5,2021-07-30_05h59.52.865,Simcolourproject_2stim_asymm_v5,2020.2.10,Win32,60,61025ae37ef11b136ea224fe,,,,,,,,,3496,28,79,1,0,0,response1disk,,7,14,6,1,0,0,rectangle,14,6,1,0,0,14,6,1,0,0,0,139,139,107,1,,,,,,,,
,,,,,,,,,,,,,FF,,,,,,,,0.868,,,,,,,,,,,,,,,,,,,,,,60f7da3cfc0813737c408ce3,610378d108a848faa498e4a5,2021-07-30_05h59.52.865,Simcolourproject_2stim_asymm_v5,2020.2.10,Win32,60,61025ae37ef11b136ea224fe,,,,,,,,,3133,26,74,1,0,0,response1disk,,7,-10,-4,1,0,0,rectangle,-10,-4,1,0,0,-10,-4,1,0,0,0,140,140,36,1,,,,,,,,
,,,,,,,,,,,,,FF,,,,,,,,0.9008,,,,,,,,,,,,,,,,,,,,,,60f7da3cfc0813737c408ce3,610378d108a848faa498e4a5,2021-07-30_05h59.52.865,Simcolourproject_2stim_asymm_v5,2020.2.10,Win32,60,61025ae37ef11b136ea224fe,,,,,,,,,2992,25,91,1,0,0,response1disk,,7,11,8,1,0,0,rectangle,36,-63,1,0,0,19,10,1,0,0,0,141,141,68,1,,response3disk_3,TRUE,4,4,"[262,227,173,100,66,222,168,204,310,250,249,206,279,102,142,19,270,45,23,163]",2.8362,rectangle
,,,,,,,,,,,,,FF,,,,,,,,29.282,,,,,,,,,,,,,,,,,,,,,,60f7da3cfc0813737c408ce3,610378d108a848faa498e4a5,2021-07-30_05h59.52.865,Simcolourproject_2stim_asymm_v5,2020.2.10,Win32,60,61025ae37ef11b136ea224fe,,,,,,,,,3771,43,-92,1,0,0,response3disk,,4,-1,-1,1,0,0,rectangle,-1,-1,1,0,0,-1,-1,1,0,0,0,142,142,42,1,,,,,,,,
,,,,,,,,,,,,,FF,,,,,,,,2.1679,,,,,,,,,,,,,,,,,,,,,,60f7da3cfc0813737c408ce3,610378d108a848faa498e4a5,2021-07-30_05h59.52.865,Simcolourproject_2stim_asymm_v5,2020.2.10,Win32,60,61025ae37ef11b136ea224fe,,,,,,,,,4334,39,92,1,0,0,response1disk,,7,9,10,1,0,0,rectangle,9,10,1,0,0,9,10,1,0,0,0,143,143,152,1,,,,,,,,
,,,,,,,,,,,,,FF,,,,,,,,9.3533,,,,,,,,,,,,,,,,,,,,,,60f7da3cfc0813737c408ce3,610378d108a848faa498e4a5,2021-07-30_05h59.52.865,Simcolourproject_2stim_asymm_v5,2020.2.10,Win32,60,61025ae37ef11b136ea224fe,,,,,,,,,2913,27,-104,1,0,0,response3disk,,4,2,-7,1,0,0,rectangle,2,-7,1,0,0,2,-7,1,0,0,0,144,144,128,1,,,,,,,,
,,,,,,,,,,,,,FF,,,,,,,,1.1006,,,,,,,,,,,,,,,,,,,,,,60f7da3cfc0813737c408ce3,610378d108a848faa498e4a5,2021-07-30_05h59.52.865,Simcolourproject_2stim_asymm_v5,2020.2.10,Win32,60,61025ae37ef11b136ea224fe,,,,,,,,,1191,40,72,1,0,0,response1disk,,7,-5,-5,1,0,0,rectangle,-5,-5,1,0,0,-5,-5,1,0,0,0,145,145,8,1,,,,,,,,
,,,,,,,,,,,,,FF,,,,,,,,0.887,,,,,,,,,,,,,,,,,,,,,,60f7da3cfc0813737c408ce3,610378d108a848faa498e4a5,2021-07-30_05h59.52.865,Simcolourproject_2stim_asymm_v5,2020.2.10,Win32,60,61025ae37ef11b136ea224fe,,,,,,,,,69,57,105,1,0,0,response1disk,,7,7,11,1,0,0,rectangle,7,11,1,0,0,7,11,1,0,0,0,146,146,56,1,,,,,,,,
,,,,,,,,,,,,,FF,,,,,,,,1.3676,,,,,,,,,,,,,,,,,,,,,,60f7da3cfc0813737c408ce3,610378d108a848faa498e4a5,2021-07-30_05h59.52.865,Simcolourproject_2stim_asymm_v5,2020.2.10,Win32,60,61025ae37ef11b136ea224fe,,,,,,,,,2782,-38,98,1,0,0,response7disk,,0,-13,2,1,0,0,rectangle,-13,2,1,0,0,-13,2,1,0,0,0,147,147,123,1,,,,,,,,
,,,,,,,,,,,,,FF,,,,,,,,12.3886,,,,,,,,,,,,,,,,,,,,,,60f7da3cfc0813737c408ce3,610378d108a848faa498e4a5,2021-07-30_05h59.52.865,Simcolourproject_2stim_asymm_v5,2020.2.10,Win32,60,61025ae37ef11b136ea224fe,,,,,,,,,2413,32,-85,1,0,0,response3disk,,4,12,6,1,0,0,rectangle,12,6,1,0,0,12,6,1,0,0,0,148,148,38,1,,,,,,,,
,,,,,,,,,,,,,FF,,,,,,,,0.9337,,,,,,,,,,,,,,,,,,,,,,60f7da3cfc0813737c408ce3,610378d108a848faa498e4a5,2021-07-30_05h59.52.865,Simcolourproject_2stim_asymm_v5,2020.2.10,Win32,60,61025ae37ef11b136ea224fe,,,,,,,,,198,33,72,1,0,0,response1disk,,7,9,1,1,0,0,rectangle,9,1,1,0,0,9,1,1,0,0,0,149,149,108,1,,,,,,,,
,,,,,,,,,,,,,FF,,,,,,,,1.0883,,,,,,,,,,,,,,,,,,,,,,60f7da3cfc0813737c408ce3,610378d108a848faa498e4a5,2021-07-30_05h59.52.865,Simcolourproject_2stim_asymm_v5,2020.2.10,Win32,60,61025ae37ef11b136ea224fe,,,,,,,,,1817,-26,100,1,0,0,response7disk,,0,-11,2,1,0,0,rectangle,-11,2,1,0,0,-11,2,1,0,0,0,150,150,132,1,,,,,,,,
,,,,,,,,,,,,,FF,,,,,,,,1.1507,,,,,,,,,,,,,,,,,,,,,,60f7da3cfc0813737c408ce3,610378d108a848faa498e4a5,2021-07-30_05h59.52.865,Simcolourproject_2stim_asymm_v5,2020.2.10,Win32,60,61025ae37ef11b136ea224fe,,,,,,,,,1464,-21,93,1,0,0,response7disk,,0,18,-4,1,0,0,rectangle,18,-4,1,0,0,18,-4,1,0,0,0,151,151,78,1,,,,,,,,
,,,,,,,,,,,,,FF,,,,,,,,1.0189,,,,,,,,,,,,,,,,,,,,,,60f7da3cfc0813737c408ce3,610378d108a848faa498e4a5,2021-07-30_05h59.52.865,Simcolourproject_2stim_asymm_v5,2020.2.10,Win32,60,61025ae37ef11b136ea224fe,,,,,,,,,170,-17,82,1,0,0,response7disk,,0,0,8,1,0,0,rectangle,0,8,1,0,0,0,8,1,0,0,0,152,152,125,1,,,,,,,,
,,,,,,,,,,,,,FF,,,,,,,,0.8206,,,,,,,,,,,,,,,,,,,,,,60f7da3cfc0813737c408ce3,610378d108a848faa498e4a5,2021-07-30_05h59.52.865,Simcolourproject_2stim_asymm_v5,2020.2.10,Win32,60,61025ae37ef11b136ea224fe,,,,,,,,,3753,15,97,1,0,0,response1disk,,7,1,12,1,0,0,rectangle,1,12,1,0,0,1,12,1,0,0,0,153,153,23,1,,,,,,,,
,,,,,,,,,,,,,FF,,,,,,,,0.8402,,,,,,,,,,,,,,,,,,,,,,60f7da3cfc0813737c408ce3,610378d108a848faa498e4a5,2021-07-30_05h59.52.865,Simcolourproject_2stim_asymm_v5,2020.2.10,Win32,60,61025ae37ef11b136ea224fe,,,,,,,,,4356,-29,71,1,0,0,response7disk,,0,-6,-1,1,0,0,rectangle,-6,-1,1,0,0,-6,-1,1,0,0,0,154,154,33,1,,,,,,,,
,,,,,,,,,,,,,FF,,,,,,,,0.851,,,,,,,,,,,,,,,,,,,,,,60f7da3cfc0813737c408ce3,610378d108a848faa498e4a5,2021-07-30_05h59.52.865,Simcolourproject_2stim_asymm_v5,2020.2.10,Win32,60,61025ae37ef11b136ea224fe,,,,,,,,,262,-47,97,1,0,0,response7disk,,0,-13,7,1,0,0,rectangle,-13,7,1,0,0,-13,7,1,0,0,0,155,155,65,1,,,,,,,,
,,,,,,,,,,,,,FF,,,,,,,,0.8839,,,,,,,,,,,,,,,,,,,,,,60f7da3cfc0813737c408ce3,610378d108a848faa498e4a5,2021-07-30_05h59.52.865,Simcolourproject_2stim_asymm_v5,2020.2.10,Win32,60,61025ae37ef11b136ea224fe,,,,,,,,,2320,40,102,1,0,0,response1disk,,7,-4,-6,1,0,0,rectangle,-4,-6,1,0,0,-4,-6,1,0,0,0,156,156,131,1,,,,,,,,
,,,,,,,,,,,,,FF,,,,,,,,0.8513,,,,,,,,,,,,,,,,,,,,,,60f7da3cfc0813737c408ce3,610378d108a848faa498e4a5,2021-07-30_05h59.52.865,Simcolourproject_2stim_asymm_v5,2020.2.10,Win32,60,61025ae37ef11b136ea224fe,,,,,,,,,3319,24,76,1,0,0,response1disk,,7,13,1,1,0,0,rectangle,13,1,1,0,0,13,1,1,0,0,0,157,157,112,1,,,,,,,,
,,,,,,,,,,,,,FF,,,,,,,,0.8514,,,,,,,,,,,,,,,,,,,,,,60f7da3cfc0813737c408ce3,610378d108a848faa498e4a5,2021-07-30_05h59.52.865,Simcolourproject_2stim_asymm_v5,2020.2.10,Win32,60,61025ae37ef11b136ea224fe,,,,,,,,,3221,42,112,1,0,0,response1disk,,7,7,-3,1,0,0,rectangle,7,-3,1,0,0,7,-3,1,0,0,0,158,158,16,1,,,,,,,,
,,,,,,,,,,,,,FF,,,,,,,,5.2006,,,,,,,,,,,,,,,,,,,,,,60f7da3cfc0813737c408ce3,610378d108a848faa498e4a5,2021-07-30_05h59.52.865,Simcolourproject_2stim_asymm_v5,2020.2.10,Win32,60,61025ae37ef11b136ea224fe,,,,,,,,,1189,42,88,1,0,0,response1disk,,7,3,-1,1,0,0,rectangle,3,-1,1,0,0,3,-1,1,0,0,0,159,159,66,1,,,,,,,,
,,,,,,,,,,,,,FF,,,,,,,,0.9006,,,,,,,,,,,,,,,,,,,,,,60f7da3cfc0813737c408ce3,610378d108a848faa498e4a5,2021-07-30_05h59.52.865,Simcolourproject_2stim_asymm_v5,2020.2.10,Win32,60,61025ae37ef11b136ea224fe,,,,,,,,,834,23,88,1,0,0,response1disk,,7,-6,8,1,0,0,rectangle,-6,8,1,0,0,-6,8,1,0,0,1,0,160,63,1,,,,,,,,
,,,,,,,,,,,,,FF,,,,,,,,0.6847,,,,,,,,,,,,,,,,,,,,,,60f7da3cfc0813737c408ce3,610378d108a848faa498e4a5,2021-07-30_05h59.52.865,Simcolourproject_2stim_asymm_v5,2020.2.10,Win32,60,61025ae37ef11b136ea224fe,,,,,,,,,1400,26,70,1,0,0,response1disk,,7,8,8,1,0,0,rectangle,8,8,1,0,0,8,8,1,0,0,1,1,161,149,1,,,,,,,,
,,,,,,,,,,,,,FF,,,,,,,,0.665,,,,,,,,,,,,,,,,,,,,,,60f7da3cfc0813737c408ce3,610378d108a848faa498e4a5,2021-07-30_05h59.52.865,Simcolourproject_2stim_asymm_v5,2020.2.10,Win32,60,61025ae37ef11b136ea224fe,,,,,,,,,2401,34,107,1,0,0,response1disk,,7,-6,-10,1,0,0,rectangle,35,-101,1,0,0,9,3,1,0,0,1,2,162,76,1,,response3disk_3,TRUE,4,4,"[262,227,173,100,66,222,168,204,310,250,249,206,279,102,142,19,270,45,23,163]",1.6675,rectangle
,,,,,,,,,,,,,FF,,,,,,,,0.7869,,,,,,,,,,,,,,,,,,,,,,60f7da3cfc0813737c408ce3,610378d108a848faa498e4a5,2021-07-30_05h59.52.865,Simcolourproject_2stim_asymm_v5,2020.2.10,Win32,60,61025ae37ef11b136ea224fe,,,,,,,,,2178,40,60,1,0,0,response1disk,,7,20,-2,1,0,0,rectangle,20,-2,1,0,0,20,-2,1,0,0,1,3,163,134,1,,,,,,,,
,,,,,,,,,,,,,FF,,,,,,,,0.9833,,,,,,,,,,,,,,,,,,,,,,60f7da3cfc0813737c408ce3,610378d108a848faa498e4a5,2021-07-30_05h59.52.865,Simcolourproject_2stim_asymm_v5,2020.2.10,Win32,60,61025ae37ef11b136ea224fe,,,,,,,,,1887,-32,87,1,0,0,response7disk,,0,-2,4,1,0,0,rectangle,-2,4,1,0,0,-2,4,1,0,0,1,4,164,17,1,,,,,,,,
,,,,,,,,,,,,,FF,,,,,,,,1.0517,,,,,,,,,,,,,,,,,,,,,,60f7da3cfc0813737c408ce3,610378d108a848faa498e4a5,2021-07-30_05h59.52.865,Simcolourproject_2stim_asymm_v5,2020.2.10,Win32,60,61025ae37ef11b136ea224fe,,,,,,,,,3495,29,79,1,0,0,response1disk,,7,12,3,1,0,0,rectangle,12,3,1,0,0,12,3,1,0,0,1,5,165,59,1,,,,,,,,
,,,,,,,,,,,,,FF,,,,,,,,0.7506,,,,,,,,,,,,,,,,,,,,,,60f7da3cfc0813737c408ce3,610378d108a848faa498e4a5,2021-07-30_05h59.52.865,Simcolourproject_2stim_asymm_v5,2020.2.10,Win32,60,61025ae37ef11b136ea224fe,,,,,,,,,99,30,71,1,0,0,response1disk,,7,9,1,1,0,0,rectangle,9,1,1,0,0,9,1,1,0,0,1,6,166,110,1,,,,,,,,
,,,,,,,,,,,,,FF,,,,,,,,1.0234,,,,,,,,,,,,,,,,,,,,,,60f7da3cfc0813737c408ce3,610378d108a848faa498e4a5,2021-07-30_05h59.52.865,Simcolourproject_2stim_asymm_v5,2020.2.10,Win32,60,61025ae37ef11b136ea224fe,,,,,,,,,3138,38,92,1,0,0,response1disk,,7,5,-2,1,0,0,rectangle,96,-32,1,0,0,-1,5,1,0,0,1,7,167,42,1,,response3disk_3,TRUE,5,5,"[262,227,173,100,66,222,168,204,310,250,249,206,279,102,142,19,270,45,23,163]",2.3847,rectangle
,,,,,,,,,,,,,FF,,,,,,,,0.8013,,,,,,,,,,,,,,,,,,,,,,60f7da3cfc0813737c408ce3,610378d108a848faa498e4a5,2021-07-30_05h59.52.865,Simcolourproject_2stim_asymm_v5,2020.2.10,Win32,60,61025ae37ef11b136ea224fe,,,,,,,,,773,55,78,1,0,0,response1disk,,7,-4,-3,1,0,0,rectangle,-4,-3,1,0,0,-4,-3,1,0,0,1,8,168,117,1,,,,,,,,
,,,,,,,,,,,,,FF,,,,,,,,0.6673,,,,,,,,,,,,,,,,,,,,,,60f7da3cfc0813737c408ce3,610378d108a848faa498e4a5,2021-07-30_05h59.52.865,Simcolourproject_2stim_asymm_v5,2020.2.10,Win32,60,61025ae37ef11b136ea224fe,,,,,,,,,1695,28,100,1,0,0,response1disk,,7,-9,-12,1,0,0,rectangle,-9,-12,1,0,0,-9,-12,1,0,0,1,9,169,45,1,,,,,,,,
,,,,,,,,,,,,,FF,,,,,,,,0.9325,,,,,,,,,,,,,,,,,,,,,,60f7da3cfc0813737c408ce3,610378d108a848faa498e4a5,2021-07-30_05h59.52.865,Simcolourproject_2stim_asymm_v5,2020.2.10,Win32,60,61025ae37ef11b136ea224fe,,,,,,,,,3623,39,83,1,0,0,response1disk,,7,14,1,1,0,0,rectangle,14,1,1,0,0,14,1,1,0,0,1,10,170,37,1,,,,,,,,
,,,,,,,,,,,,,FF,,,,,,,,0.7013,,,,,,,,,,,,,,,,,,,,,,60f7da3cfc0813737c408ce3,610378d108a848faa498e4a5,2021-07-30_05h59.52.865,Simcolourproject_2stim_asymm_v5,2020.2.10,Win32,60,61025ae37ef11b136ea224fe,,,,,,,,,1832,40,94,1,0,0,response1disk,,7,9,-11,1,0,0,rectangle,9,-11,1,0,0,9,-11,1,0,0,1,11,171,21,1,,,,,,,,
,,,,,,,,,,,,,FF,,,,,,,,0.6859,,,,,,,,,,,,,,,,,,,,,,60f7da3cfc0813737c408ce3,610378d108a848faa498e4a5,2021-07-30_05h59.52.865,Simcolourproject_2stim_asymm_v5,2020.2.10,Win32,60,61025ae37ef11b136ea224fe,,,,,,,,,2201,49,111,1,0,0,response1disk,,7,17,10,1,0,0,rectangle,77,-50,1,0,0,7,7,1,0,0,1,12,172,96,1,,response3disk_3,TRUE,5,5,"[262,227,173,100,66,222,168,204,310,250,249,206,279,102,142,19,270,45,23,163]",1.7011,rectangle
,,,,,,,,,,,,,FF,,,,,,,,0.9683,,,,,,,,,,,,,,,,,,,,,,60f7da3cfc0813737c408ce3,610378d108a848faa498e4a5,2021-07-30_05h59.52.865,Simcolourproject_2stim_asymm_v5,2020.2.10,Win32,60,61025ae37ef11b136ea224fe,,,,,,,,,1399,24,76,1,0,0,response1disk,,7,3,-2,1,0,0,rectangle,3,-2,1,0,0,3,-2,1,0,0,1,13,173,44,1,,,,,,,,
,,,,,,,,,,,,,FF,,,,,,,,1.634,,,,,,,,,,,,,,,,,,,,,,60f7da3cfc0813737c408ce3,610378d108a848faa498e4a5,2021-07-30_05h59.52.865,Simcolourproject_2stim_asymm_v5,2020.2.10,Win32,60,61025ae37ef11b136ea224fe,,,,,,,,,3620,33,84,1,0,0,response1disk,,7,-1,2,1,0,0,rectangle,-1,2,1,0,0,-1,2,1,0,0,1,14,174,51,1,,,,,,,,
,,,,,,,,,,,,,FF,,,,,,,,0.8679,,,,,,,,,,,,,,,,,,,,,,60f7da3cfc0813737c408ce3,610378d108a848faa498e4a5,2021-07-30_05h59.52.865,Simcolourproject_2stim_asymm_v5,2020.2.10,Win32,60,61025ae37ef11b136ea224fe,,,,,,,,,872,37,81,1,0,0,response1disk,,7,13,-3,1,0,0,rectangle,13,-3,1,0,0,13,-3,1,0,0,1,15,175,50,1,,,,,,,,
,,,,,,,,,,,,,FF,,,,,,,,0.6341,,,,,,,,,,,,,,,,,,,,,,60f7da3cfc0813737c408ce3,610378d108a848faa498e4a5,2021-07-30_05h59.52.865,Simcolourproject_2stim_asymm_v5,2020.2.10,Win32,60,61025ae37ef11b136ea224fe,,,,,,,,,782,31,100,1,0,0,response1disk,,7,2,-4,1,0,0,rectangle,2,-4,1,0,0,2,-4,1,0,0,1,16,176,141,1,,,,,,,,
,,,,,,,,,,,,,FF,,,,,,,,0.834,,,,,,,,,,,,,,,,,,,,,,60f7da3cfc0813737c408ce3,610378d108a848faa498e4a5,2021-07-30_05h59.52.865,Simcolourproject_2stim_asymm_v5,2020.2.10,Win32,60,61025ae37ef11b136ea224fe,,,,,,,,,815,52,85,1,0,0,response1disk,,7,8,-1,1,0,0,rectangle,8,-1,1,0,0,8,-1,1,0,0,1,17,177,129,1,,,,,,,,
,,,,,,,,,,,,,FF,,,,,,,,0.9506,,,,,,,,,,,,,,,,,,,,,,60f7da3cfc0813737c408ce3,610378d108a848faa498e4a5,2021-07-30_05h59.52.865,Simcolourproject_2stim_asymm_v5,2020.2.10,Win32,60,61025ae37ef11b136ea224fe,,,,,,,,,3747,-30,84,1,0,0,response7disk,,0,6,-8,1,0,0,rectangle,6,-8,1,0,0,6,-8,1,0,0,1,18,178,29,1,,,,,,,,
,,,,,,,,,,,,,FF,,,,,,,,0.9181,,,,,,,,,,,,,,,,,,,,,,60f7da3cfc0813737c408ce3,610378d108a848faa498e4a5,2021-07-30_05h59.52.865,Simcolourproject_2stim_asymm_v5,2020.2.10,Win32,60,61025ae37ef11b136ea224fe,,,,,,,,,2314,20,82,1,0,0,response1disk,,7,-3,2,1,0,0,rectangle,-3,2,1,0,0,-3,2,1,0,0,1,19,179,126,1,,,,,,,,
,,,,,,,,,,,,,FF,,,,,,,,0.7685,,,,,,,,,,,,,,,,,,,,,,60f7da3cfc0813737c408ce3,610378d108a848faa498e4a5,2021-07-30_05h59.52.865,Simcolourproject_2stim_asymm_v5,2020.2.10,Win32,60,61025ae37ef11b136ea224fe,,,,,,,,,494,26,80,1,0,0,response1disk,,7,14,0,1,0,0,rectangle,14,0,1,0,0,14,0,1,0,0,1,20,180,73,1,,,,,,,,
,,,,,,,,,,,,,FF,,,,,,,,0.6837,,,,,,,,,,,,,,,,,,,,,,60f7da3cfc0813737c408ce3,610378d108a848faa498e4a5,2021-07-30_05h59.52.865,Simcolourproject_2stim_asymm_v5,2020.2.10,Win32,60,61025ae37ef11b136ea224fe,,,,,,,,,2111,46,97,1,0,0,response1disk,,7,12,7,1,0,0,rectangle,12,7,1,0,0,12,7,1,0,0,1,21,181,14,1,,,,,,,,
,,,,,,,,,,,,,FF,,,,,,,,0.7162,,,,,,,,,,,,,,,,,,,,,,60f7da3cfc0813737c408ce3,610378d108a848faa498e4a5,2021-07-30_05h59.52.865,Simcolourproject_2stim_asymm_v5,2020.2.10,Win32,60,61025ae37ef11b136ea224fe,,,,,,,,,3758,33,93,1,0,0,response1disk,,7,11,2,1,0,0,rectangle,11,2,1,0,0,11,2,1,0,0,1,22,182,75,1,,,,,,,,
,,,,,,,,,,,,,FF,,,,,,,,0.6513,,,,,,,,,,,,,,,,,,,,,,60f7da3cfc0813737c408ce3,610378d108a848faa498e4a5,2021-07-30_05h59.52.865,Simcolourproject_2stim_asymm_v5,2020.2.10,Win32,60,61025ae37ef11b136ea224fe,,,,,,,,,2736,24,87,1,0,0,response1disk,,7,4,5,1,0,0,rectangle,4,5,1,0,0,4,5,1,0,0,1,23,183,88,1,,,,,,,,
,,,,,,,,,,,,,FF,,,,,,,,1.4675,,,,,,,,,,,,,,,,,,,,,,60f7da3cfc0813737c408ce3,610378d108a848faa498e4a5,2021-07-30_05h59.52.865,Simcolourproject_2stim_asymm_v5,2020.2.10,Win32,60,61025ae37ef11b136ea224fe,,,,,,,,,898,-46,105,1,0,0,response7disk,,0,-8,11,1,0,0,rectangle,-8,11,1,0,0,-8,11,1,0,0,1,24,184,58,1,,,,,,,,
,,,,,,,,,,,,,FF,,,,,,,,0.7005,,,,,,,,,,,,,,,,,,,,,,60f7da3cfc0813737c408ce3,610378d108a848faa498e4a5,2021-07-30_05h59.52.865,Simcolourproject_2stim_asymm_v5,2020.2.10,Win32,60,61025ae37ef11b136ea224fe,,,,,,,,,2636,32,89,1,0,0,response1disk,,7,17,2,1,0,0,rectangle,17,2,1,0,0,17,2,1,0,0,1,25,185,30,1,,,,,,,,
,,,,,,,,,,,,,FF,,,,,,,,0.6182,,,,,,,,,,,,,,,,,,,,,,60f7da3cfc0813737c408ce3,610378d108a848faa498e4a5,2021-07-30_05h59.52.865,Simcolourproject_2stim_asymm_v5,2020.2.10,Win32,60,61025ae37ef11b136ea224fe,,,,,,,,,3365,56,100,1,0,0,response1disk,,7,14,-5,1,0,0,rectangle,14,-5,1,0,0,14,-5,1,0,0,1,26,186,82,1,,,,,,,,
,,,,,,,,,,,,,FF,,,,,,,,0.6348,,,,,,,,,,,,,,,,,,,,,,60f7da3cfc0813737c408ce3,610378d108a848faa498e4a5,2021-07-30_05h59.52.865,Simcolourproject_2stim_asymm_v5,2020.2.10,Win32,60,61025ae37ef11b136ea224fe,,,,,,,,,824,25,73,1,0,0,response1disk,,7,-8,-11,1,0,0,rectangle,-8,-11,1,0,0,-8,-11,1,0,0,1,27,187,77,1,,,,,,,,
,,,,,,,,,,,,,FF,,,,,,,,0.7174,,,,,,,,,,,,,,,,,,,,,,60f7da3cfc0813737c408ce3,610378d108a848faa498e4a5,2021-07-30_05h59.52.865,Simcolourproject_2stim_asymm_v5,2020.2.10,Win32,60,61025ae37ef11b136ea224fe,,,,,,,,,4325,26,67,1,0,0,response1disk,,7,9,11,1,0,0,rectangle,9,11,1,0,0,9,11,1,0,0,1,28,188,69,1,,,,,,,,
,,,,,,,,,,,,,FF,,,,,,,,0.967,,,,,,,,,,,,,,,,,,,,,,60f7da3cfc0813737c408ce3,610378d108a848faa498e4a5,2021-07-30_05h59.52.865,Simcolourproject_2stim_asymm_v5,2020.2.10,Win32,60,61025ae37ef11b136ea224fe,,,,,,,,,1725,58,121,1,0,0,response1disk,,7,18,3,1,0,0,rectangle,18,3,1,0,0,18,3,1,0,0,1,29,189,83,1,,,,,,,,
,,,,,,,,,,,,,FF,,,,,,,,0.6678,,,,,,,,,,,,,,,,,,,,,,60f7da3cfc0813737c408ce3,610378d108a848faa498e4a5,2021-07-30_05h59.52.865,Simcolourproject_2stim_asymm_v5,2020.2.10,Win32,60,61025ae37ef11b136ea224fe,,,,,,,,,604,27,70,1,0,0,response1disk,,7,7,-4,1,0,0,rectangle,7,-4,1,0,0,7,-4,1,0,0,1,30,190,95,1,,,,,,,,
,,,,,,,,,,,,,FF,,,,,,,,0.635,,,,,,,,,,,,,,,,,,,,,,60f7da3cfc0813737c408ce3,610378d108a848faa498e4a5,2021-07-30_05h59.52.865,Simcolourproject_2stim_asymm_v5,2020.2.10,Win32,60,61025ae37ef11b136ea224fe,,,,,,,,,2080,33,74,1,0,0,response1disk,,7,16,6,1,0,0,rectangle,16,6,1,0,0,16,6,1,0,0,1,31,191,13,1,,,,,,,,
,,,,,,,,,,,,,FF,,,,,,,,0.6004,,,,,,,,,,,,,,,,,,,,,,60f7da3cfc0813737c408ce3,610378d108a848faa498e4a5,2021-07-30_05h59.52.865,Simcolourproject_2stim_asymm_v5,2020.2.10,Win32,60,61025ae37ef11b136ea224fe,,,,,,,,,1848,29,67,1,0,0,response1disk,,7,-4,-8,1,0,0,rectangle,-4,-8,1,0,0,-4,-8,1,0,0,1,32,192,137,1,,,,,,,,
,,,,,,,,,,,,,FF,,,,,,,,1.1008,,,,,,,,,,,,,,,,,,,,,,60f7da3cfc0813737c408ce3,610378d108a848faa498e4a5,2021-07-30_05h59.52.865,Simcolourproject_2stim_asymm_v5,2020.2.10,Win32,60,61025ae37ef11b136ea224fe,,,,,,,,,861,27,84,1,0,0,response1disk,,7,9,7,1,0,0,rectangle,9,7,1,0,0,9,7,1,0,0,1,33,193,4,1,,,,,,,,
,,,,,,,,,,,,,FF,,,,,,,,0.5871,,,,,,,,,,,,,,,,,,,,,,60f7da3cfc0813737c408ce3,610378d108a848faa498e4a5,2021-07-30_05h59.52.865,Simcolourproject_2stim_asymm_v5,2020.2.10,Win32,60,61025ae37ef11b136ea224fe,,,,,,,,,4274,27,77,1,0,0,response1disk,,7,8,12,1,0,0,rectangle,8,12,1,0,0,8,12,1,0,0,1,34,194,40,1,,,,,,,,
,,,,,,,,,,,,,FF,,,,,,,,0.5673,,,,,,,,,,,,,,,,,,,,,,60f7da3cfc0813737c408ce3,610378d108a848faa498e4a5,2021-07-30_05h59.52.865,Simcolourproject_2stim_asymm_v5,2020.2.10,Win32,60,61025ae37ef11b136ea224fe,,,,,,,,,4008,36,96,1,0,0,response1disk,,7,15,5,1,0,0,rectangle,15,5,1,0,0,15,5,1,0,0,1,35,195,53,1,,,,,,,,
,,,,,,,,,,,,,FF,,,,,,,,0.6215,,,,,,,,,,,,,,,,,,,,,,60f7da3cfc0813737c408ce3,610378d108a848faa498e4a5,2021-07-30_05h59.52.865,Simcolourproject_2stim_asymm_v5,2020.2.10,Win32,60,61025ae37ef11b136ea224fe,,,,,,,,,3121,29,60,1,0,0,response1disk,,7,17,3,1,0,0,rectangle,17,3,1,0,0,17,3,1,0,0,1,36,196,8,1,,,,,,,,
,,,,,,,,,,,,,FF,,,,,,,,0.5706,,,,,,,,,,,,,,,,,,,,,,60f7da3cfc0813737c408ce3,610378d108a848faa498e4a5,2021-07-30_05h59.52.865,Simcolourproject_2stim_asymm_v5,2020.2.10,Win32,60,61025ae37ef11b136ea224fe,,,,,,,,,318,37,77,1,0,0,response1disk,,7,-5,-12,1,0,0,rectangle,-5,-12,1,0,0,-5,-12,1,0,0,1,37,197,112,1,,,,,,,,
,,,,,,,,,,,,,FF,,,,,,,,0.6324,,,,,,,,,,,,,,,,,,,,,,60f7da3cfc0813737c408ce3,610378d108a848faa498e4a5,2021-07-30_05h59.52.865,Simcolourproject_2stim_asymm_v5,2020.2.10,Win32,60,61025ae37ef11b136ea224fe,,,,,,,,,180,28,68,1,0,0,response1disk,,7,20,11,1,0,0,rectangle,20,11,1,0,0,20,11,1,0,0,1,38,198,24,1,,,,,,,,
,,,,,,,,,,,,,FF,,,,,,,,1.3482,,,,,,,,,,,,,,,,,,,,,,60f7da3cfc0813737c408ce3,610378d108a848faa498e4a5,2021-07-30_05h59.52.865,Simcolourproject_2stim_asymm_v5,2020.2.10,Win32,60,61025ae37ef11b136ea224fe,,,,,,,,,3968,-47,100,1,0,0,response7disk,,0,-17,5,1,0,0,rectangle,-17,5,1,0,0,-17,5,1,0,0,1,39,199,114,1,,,,,,,,
,,,,,,,,,,,,,FF,,,,,,,,0.8507,,,,,,,,,,,,,,,,,,,,,,60f7da3cfc0813737c408ce3,610378d108a848faa498e4a5,2021-07-30_05h59.52.865,Simcolourproject_2stim_asymm_v5,2020.2.10,Win32,60,61025ae37ef11b136ea224fe,,,,,,,,,1395,32,74,1,0,0,response1disk,,7,4,-9,1,0,0,rectangle,4,-9,1,0,0,4,-9,1,0,0,1,40,200,71,1,,,,,,,,
,,,,,,,,,,,,,FF,,,,,,,,1.0343,,,,,,,,,,,,,,,,,,,,,,60f7da3cfc0813737c408ce3,610378d108a848faa498e4a5,2021-07-30_05h59.52.865,Simcolourproject_2stim_asymm_v5,2020.2.10,Win32,60,61025ae37ef11b136ea224fe,,,,,,,,,185,-34,83,1,0,0,response7disk,,0,-3,-12,1,0,0,rectangle,-3,-12,1,0,0,-3,-12,1,0,0,1,41,201,116,1,,,,,,,,
,,,,,,,,,,,,,FF,,,,,,,,0.7053,,,,,,,,,,,,,,,,,,,,,,60f7da3cfc0813737c408ce3,610378d108a848faa498e4a5,2021-07-30_05h59.52.865,Simcolourproject_2stim_asymm_v5,2020.2.10,Win32,60,61025ae37ef11b136ea224fe,,,,,,,,,310,20,74,1,0,0,response1disk,,7,2,14,1,0,0,rectangle,2,14,1,0,0,2,14,1,0,0,1,42,202,146,1,,,,,,,,
,,,,,,,,,,,,,FF,,,,,,,,0.9842,,,,,,,,,,,,,,,,,,,,,,60f7da3cfc0813737c408ce3,610378d108a848faa498e4a5,2021-07-30_05h59.52.865,Simcolourproject_2stim_asymm_v5,2020.2.10,Win32,60,61025ae37ef11b136ea224fe,,,,,,,,,2356,-30,97,1,0,0,response7disk,,0,2,7,1,0,0,rectangle,91,66,1,0,0,11,10,1,0,0,1,43,203,80,1,,response1disk_3,TRUE,6,6,"[262,227,173,100,66,222,168,204,310,250,249,206,279,102,142,19,270,45,23,163]",3.1176,rectangle
,,,,,,,,,,,,,FF,,,,,,,,0.9841,,,,,,,,,,,,,,,,,,,,,,60f7da3cfc0813737c408ce3,610378d108a848faa498e4a5,2021-07-30_05h59.52.865,Simcolourproject_2stim_asymm_v5,2020.2.10,Win32,60,61025ae37ef11b136ea224fe,,,,,,,,,4223,-31,90,1,0,0,response7disk,,0,-13,2,1,0,0,rectangle,-13,2,1,0,0,-13,2,1,0,0,1,44,204,89,1,,,,,,,,
,,,,,,,,,,,,,FF,,,,,,,,0.8672,,,,,,,,,,,,,,,,,,,,,,60f7da3cfc0813737c408ce3,610378d108a848faa498e4a5,2021-07-30_05h59.52.865,Simcolourproject_2stim_asymm_v5,2020.2.10,Win32,60,61025ae37ef11b136ea224fe,,,,,,,,,1300,-38,78,1,0,0,response7disk,,0,-9,1,1,0,0,rectangle,49,-90,1,0,0,4,-7,1,0,0,1,45,205,12,1,,response3disk_3,TRUE,4,4,"[262,227,173,100,66,222,168,204,310,250,249,206,279,102,142,19,270,45,23,163]",1.7681,rectangle
,,,,,,,,,,,,,FF,,,,,,,,0.9341,,,,,,,,,,,,,,,,,,,,,,60f7da3cfc0813737c408ce3,610378d108a848faa498e4a5,2021-07-30_05h59.52.865,Simcolourproject_2stim_asymm_v5,2020.2.10,Win32,60,61025ae37ef11b136ea224fe,,,,,,,,,4347,34,73,1,0,0,response1disk,,7,9,-4,1,0,0,rectangle,9,-4,1,0,0,9,-4,1,0,0,1,46,206,154,1,,,,,,,,
,,,,,,,,,,,,,FF,,,,,,,,0.8171,,,,,,,,,,,,,,,,,,,,,,60f7da3cfc0813737c408ce3,610378d108a848faa498e4a5,2021-07-30_05h59.52.865,Simcolourproject_2stim_asymm_v5,2020.2.10,Win32,60,61025ae37ef11b136ea224fe,,,,,,,,,770,41,93,1,0,0,response1disk,,7,16,3,1,0,0,rectangle,16,3,1,0,0,16,3,1,0,0,1,47,207,153,1,,,,,,,,
,,,,,,,,,,,,,FF,,,,,,,,1.0152,,,,,,,,,,,,,,,,,,,,,,60f7da3cfc0813737c408ce3,610378d108a848faa498e4a5,2021-07-30_05h59.52.865,Simcolourproject_2stim_asymm_v5,2020.2.10,Win32,60,61025ae37ef11b136ea224fe,,,,,,,,,2103,-33,86,1,0,0,response7disk,,0,-4,-2,1,0,0,rectangle,-4,-2,1,0,0,-4,-2,1,0,0,1,48,208,124,1,,,,,,,,
,,,,,,,,,,,,,FF,,,,,,,,1.2681,,,,,,,,,,,,,,,,,,,,,,60f7da3cfc0813737c408ce3,610378d108a848faa498e4a5,2021-07-30_05h59.52.865,Simcolourproject_2stim_asymm_v5,2020.2.10,Win32,60,61025ae37ef11b136ea224fe,,,,,,,,,3157,-24,82,1,0,0,response7disk,,0,-12,3,1,0,0,rectangle,-12,3,1,0,0,-12,3,1,0,0,1,49,209,91,1,,,,,,,,
,,,,,,,,,,,,,FF,,,,,,,,0.7004,,,,,,,,,,,,,,,,,,,,,,60f7da3cfc0813737c408ce3,610378d108a848faa498e4a5,2021-07-30_05h59.52.865,Simcolourproject_2stim_asymm_v5,2020.2.10,Win32,60,61025ae37ef11b136ea224fe,,,,,,,,,220,25,91,1,0,0,response1disk,,7,-1,2,1,0,0,rectangle,-1,2,1,0,0,-1,2,1,0,0,1,50,210,87,1,,,,,,,,
,,,,,,,,,,,,,FF,,,,,,,,0.6678,,,,,,,,,,,,,,,,,,,,,,60f7da3cfc0813737c408ce3,610378d108a848faa498e4a5,2021-07-30_05h59.52.865,Simcolourproject_2stim_asymm_v5,2020.2.10,Win32,60,61025ae37ef11b136ea224fe,,,,,,,,,1634,19,60,1,0,0,response1disk,,7,-9,0,1,0,0,rectangle,-9,0,1,0,0,-9,0,1,0,0,1,51,211,155,1,,,,,,,,
,,,,,,,,,,,,,FF,,,,,,,,0.9182,,,,,,,,,,,,,,,,,,,,,,60f7da3cfc0813737c408ce3,610378d108a848faa498e4a5,2021-07-30_05h59.52.865,Simcolourproject_2stim_asymm_v5,2020.2.10,Win32,60,61025ae37ef11b136ea224fe,,,,,,,,,1245,32,85,1,0,0,response1disk,,7,-7,-7,1,0,0,rectangle,-7,-7,1,0,0,-7,-7,1,0,0,1,52,212,19,1,,,,,,,,
,,,,,,,,,,,,,FF,,,,,,,,0.7682,,,,,,,,,,,,,,,,,,,,,,60f7da3cfc0813737c408ce3,610378d108a848faa498e4a5,2021-07-30_05h59.52.865,Simcolourproject_2stim_asymm_v5,2020.2.10,Win32,60,61025ae37ef11b136ea224fe,,,,,,,,,2535,30,96,1,0,0,response1disk,,7,5,5,1,0,0,rectangle,5,5,1,0,0,5,5,1,0,0,1,53,213,85,1,,,,,,,,
,,,,,,,,,,,,,FF,,,,,,,,0.6174,,,,,,,,,,,,,,,,,,,,,,60f7da3cfc0813737c408ce3,610378d108a848faa498e4a5,2021-07-30_05h59.52.865,Simcolourproject_2stim_asymm_v5,2020.2.10,Win32,60,61025ae37ef11b136ea224fe,,,,,,,,,2976,19,104,1,0,0,response1disk,,7,-3,-7,1,0,0,rectangle,-3,-7,1,0,0,-3,-7,1,0,0,1,54,214,113,1,,,,,,,,
,,,,,,,,,,,,,FF,,,,,,,,1.3191,,,,,,,,,,,,,,,,,,,,,,60f7da3cfc0813737c408ce3,610378d108a848faa498e4a5,2021-07-30_05h59.52.865,Simcolourproject_2stim_asymm_v5,2020.2.10,Win32,60,61025ae37ef11b136ea224fe,,,,,,,,,4212,31,90,1,0,0,response1disk,,7,9,11,1,0,0,rectangle,9,11,1,0,0,9,11,1,0,0,1,55,215,156,1,,,,,,,,
,,,,,,,,,,,,,FF,,,,,,,,0.6338,,,,,,,,,,,,,,,,,,,,,,60f7da3cfc0813737c408ce3,610378d108a848faa498e4a5,2021-07-30_05h59.52.865,Simcolourproject_2stim_asymm_v5,2020.2.10,Win32,60,61025ae37ef11b136ea224fe,,,,,,,,,1004,47,106,1,0,0,response1disk,,7,25,13,1,0,0,rectangle,25,13,1,0,0,25,13,1,0,0,1,56,216,135,1,,,,,,,,
,,,,,,,,,,,,,FF,,,,,,,,0.6325,,,,,,,,,,,,,,,,,,,,,,60f7da3cfc0813737c408ce3,610378d108a848faa498e4a5,2021-07-30_05h59.52.865,Simcolourproject_2stim_asymm_v5,2020.2.10,Win32,60,61025ae37ef11b136ea224fe,,,,,,,,,1207,28,119,1,0,0,response1disk,,7,10,14,1,0,0,rectangle,10,14,1,0,0,10,14,1,0,0,1,57,217,22,1,,,,,,,,
,,,,,,,,,,,,,FF,,,,,,,,0.8002,,,,,,,,,,,,,,,,,,,,,,60f7da3cfc0813737c408ce3,610378d108a848faa498e4a5,2021-07-30_05h59.52.865,Simcolourproject_2stim_asymm_v5,2020.2.10,Win32,60,61025ae37ef11b136ea224fe,,,,,,,,,230,24,85,1,0,0,response1disk,,7,-1,14,1,0,0,rectangle,-1,14,1,0,0,-1,14,1,0,0,1,58,218,98,1,,,,,,,,
,,,,,,,,,,,,,FF,,,,,,,,0.617,,,,,,,,,,,,,,,,,,,,,,60f7da3cfc0813737c408ce3,610378d108a848faa498e4a5,2021-07-30_05h59.52.865,Simcolourproject_2stim_asymm_v5,2020.2.10,Win32,60,61025ae37ef11b136ea224fe,,,,,,,,,1224,66,115,1,0,0,response1disk,,7,-2,-1,1,0,0,rectangle,-2,-1,1,0,0,-2,-1,1,0,0,1,59,219,72,1,,,,,,,,
,,,,,,,,,,,,,FF,,,,,,,,0.6511,,,,,,,,,,,,,,,,,,,,,,60f7da3cfc0813737c408ce3,610378d108a848faa498e4a5,2021-07-30_05h59.52.865,Simcolourproject_2stim_asymm_v5,2020.2.10,Win32,60,61025ae37ef11b136ea224fe,,,,,,,,,2581,27,70,1,0,0,response1disk,,7,5,9,1,0,0,rectangle,5,9,1,0,0,5,9,1,0,0,1,60,220,54,1,,,,,,,,
,,,,,,,,,,,,,FF,,,,,,,,1.832,,,,,,,,,,,,,,,,,,,,,,60f7da3cfc0813737c408ce3,610378d108a848faa498e4a5,2021-07-30_05h59.52.865,Simcolourproject_2stim_asymm_v5,2020.2.10,Win32,60,61025ae37ef11b136ea224fe,,,,,,,,,1913,34,71,1,0,0,response1disk,,7,15,9,1,0,0,rectangle,-71,55,1,0,0,-19,-7,1,0,0,1,61,221,150,1,,response7disk_3,TRUE,1,1,"[262,227,173,100,66,222,168,204,310,250,249,206,279,102,142,19,270,45,23,163]",1.7006,rectangle
,,,,,,,,,,,,,FF,,,,,,,,1.1173,,,,,,,,,,,,,,,,,,,,,,60f7da3cfc0813737c408ce3,610378d108a848faa498e4a5,2021-07-30_05h59.52.865,Simcolourproject_2stim_asymm_v5,2020.2.10,Win32,60,61025ae37ef11b136ea224fe,,,,,,,,,3554,-27,88,1,0,0,response7disk,,0,-12,-8,1,0,0,rectangle,-12,-8,1,0,0,-12,-8,1,0,0,1,62,222,84,1,,,,,,,,
,,,,,,,,,,,,,FF,,,,,,,,0.8514,,,,,,,,,,,,,,,,,,,,,,60f7da3cfc0813737c408ce3,610378d108a848faa498e4a5,2021-07-30_05h59.52.865,Simcolourproject_2stim_asymm_v5,2020.2.10,Win32,60,61025ae37ef11b136ea224fe,,,,,,,,,438,-34,80,1,0,0,response7disk,,0,-14,-3,1,0,0,rectangle,-14,-3,1,0,0,-14,-3,1,0,0,1,63,223,94,1,,,,,,,,
,,,,,,,,,,,,,FF,,,,,,,,0.8699,,,,,,,,,,,,,,,,,,,,,,60f7da3cfc0813737c408ce3,610378d108a848faa498e4a5,2021-07-30_05h59.52.865,Simcolourproject_2stim_asymm_v5,2020.2.10,Win32,60,61025ae37ef11b136ea224fe,,,,,,,,,3856,16,69,1,0,0,response1disk,,7,11,1,1,0,0,rectangle,11,1,1,0,0,11,1,1,0,0,1,64,224,158,1,,,,,,,,
,,,,,,,,,,,,,FF,,,,,,,,0.651,,,,,,,,,,,,,,,,,,,,,,60f7da3cfc0813737c408ce3,610378d108a848faa498e4a5,2021-07-30_05h59.52.865,Simcolourproject_2stim_asymm_v5,2020.2.10,Win32,60,61025ae37ef11b136ea224fe,,,,,,,,,3686,44,99,1,0,0,response1disk,,7,7,-5,1,0,0,rectangle,7,-5,1,0,0,7,-5,1,0,0,1,65,225,46,1,,,,,,,,
,,,,,,,,,,,,,FF,,,,,,,,0.8178,,,,,,,,,,,,,,,,,,,,,,60f7da3cfc0813737c408ce3,610378d108a848faa498e4a5,2021-07-30_05h59.52.865,Simcolourproject_2stim_asymm_v5,2020.2.10,Win32,60,61025ae37ef11b136ea224fe,,,,,,,,,3752,18,91,1,0,0,response1disk,,7,2,1,1,0,0,rectangle,43,56,1,0,0,21,11,1,0,0,1,66,226,23,1,,response1disk_3,TRUE,7,7,"[262,227,173,100,66,222,168,204,310,250,249,206,279,102,142,19,270,45,23,163]",2.3507,rectangle
,,,,,,,,,,,,,FF,,,,,,,,0.8176,,,,,,,,,,,,,,,,,,,,,,60f7da3cfc0813737c408ce3,610378d108a848faa498e4a5,2021-07-30_05h59.52.865,Simcolourproject_2stim_asymm_v5,2020.2.10,Win32,60,61025ae37ef11b136ea224fe,,,,,,,,,1810,27,97,1,0,0,response1disk,,7,19,15,1,0,0,rectangle,19,15,1,0,0,19,15,1,0,0,1,67,227,99,1,,,,,,,,
,,,,,,,,,,,,,FF,,,,,,,,0.668,,,,,,,,,,,,,,,,,,,,,,60f7da3cfc0813737c408ce3,610378d108a848faa498e4a5,2021-07-30_05h59.52.865,Simcolourproject_2stim_asymm_v5,2020.2.10,Win32,60,61025ae37ef11b136ea224fe,,,,,,,,,3183,50,84,1,0,0,response1disk,,7,10,5,1,0,0,rectangle,10,5,1,0,0,10,5,1,0,0,1,68,228,25,1,,,,,,,,
,,,,,,,,,,,,,FF,,,,,,,,1.6879,,,,,,,,,,,,,,,,,,,,,,60f7da3cfc0813737c408ce3,610378d108a848faa498e4a5,2021-07-30_05h59.52.865,Simcolourproject_2stim_asymm_v5,2020.2.10,Win32,60,61025ae37ef11b136ea224fe,,,,,,,,,928,35,74,1,0,0,response1disk,,7,11,-8,1,0,0,rectangle,11,-8,1,0,0,11,-8,1,0,0,1,69,229,43,1,,,,,,,,
,,,,,,,,,,,,,FF,,,,,,,,0.7182,,,,,,,,,,,,,,,,,,,,,,60f7da3cfc0813737c408ce3,610378d108a848faa498e4a5,2021-07-30_05h59.52.865,Simcolourproject_2stim_asymm_v5,2020.2.10,Win32,60,61025ae37ef11b136ea224fe,,,,,,,,,160,46,81,1,0,0,response1disk,,7,23,13,1,0,0,rectangle,23,13,1,0,0,23,13,1,0,0,1,70,230,105,1,,,,,,,,
,,,,,,,,,,,,,FF,,,,,,,,0.798,,,,,,,,,,,,,,,,,,,,,,60f7da3cfc0813737c408ce3,610378d108a848faa498e4a5,2021-07-30_05h59.52.865,Simcolourproject_2stim_asymm_v5,2020.2.10,Win32,60,61025ae37ef11b136ea224fe,,,,,,,,,1956,-27,71,1,0,0,response7disk,,0,1,-8,1,0,0,rectangle,1,-8,1,0,0,1,-8,1,0,0,1,71,231,81,1,,,,,,,,
,,,,,,,,,,,,,FF,,,,,,,,0.6868,,,,,,,,,,,,,,,,,,,,,,60f7da3cfc0813737c408ce3,610378d108a848faa498e4a5,2021-07-30_05h59.52.865,Simcolourproject_2stim_asymm_v5,2020.2.10,Win32,60,61025ae37ef11b136ea224fe,,,,,,,,,373,27,79,1,0,0,response1disk,,7,8,5,1,0,0,rectangle,8,5,1,0,0,8,5,1,0,0,1,72,232,128,1,,,,,,,,
,,,,,,,,,,,,,FF,,,,,,,,0.8838,,,,,,,,,,,,,,,,,,,,,,60f7da3cfc0813737c408ce3,610378d108a848faa498e4a5,2021-07-30_05h59.52.865,Simcolourproject_2stim_asymm_v5,2020.2.10,Win32,60,61025ae37ef11b136ea224fe,,,,,,,,,2406,29,94,1,0,0,response1disk,,7,-6,12,1,0,0,rectangle,-6,12,1,0,0,-6,12,1,0,0,1,73,233,33,1,,,,,,,,
,,,,,,,,,,,,,FF,,,,,,,,0.768,,,,,,,,,,,,,,,,,,,,,,60f7da3cfc0813737c408ce3,610378d108a848faa498e4a5,2021-07-30_05h59.52.865,Simcolourproject_2stim_asymm_v5,2020.2.10,Win32,60,61025ae37ef11b136ea224fe,,,,,,,,,3026,36,100,1,0,0,response1disk,,7,10,7,1,0,0,rectangle,10,7,1,0,0,10,7,1,0,0,1,74,234,109,1,,,,,,,,
,,,,,,,,,,,,,FF,,,,,,,,0.6338,,,,,,,,,,,,,,,,,,,,,,60f7da3cfc0813737c408ce3,610378d108a848faa498e4a5,2021-07-30_05h59.52.865,Simcolourproject_2stim_asymm_v5,2020.2.10,Win32,60,61025ae37ef11b136ea224fe,,,,,,,,,841,25,79,1,0,0,response1disk,,7,-6,2,1,0,0,rectangle,-6,2,1,0,0,-6,2,1,0,0,1,75,235,32,1,,,,,,,,
,,,,,,,,,,,,,FF,,,,,,,,0.7848,,,,,,,,,,,,,,,,,,,,,,60f7da3cfc0813737c408ce3,610378d108a848faa498e4a5,2021-07-30_05h59.52.865,Simcolourproject_2stim_asymm_v5,2020.2.10,Win32,60,61025ae37ef11b136ea224fe,,,,,,,,,2699,28,78,1,0,0,response1disk,,7,12,3,1,0,0,rectangle,12,3,1,0,0,12,3,1,0,0,1,76,236,39,1,,,,,,,,
,,,,,,,,,,,,,FF,,,,,,,,0.5865,,,,,,,,,,,,,,,,,,,,,,60f7da3cfc0813737c408ce3,610378d108a848faa498e4a5,2021-07-30_05h59.52.865,Simcolourproject_2stim_asymm_v5,2020.2.10,Win32,60,61025ae37ef11b136ea224fe,,,,,,,,,1155,32,83,1,0,0,response1disk,,7,14,-1,1,0,0,rectangle,14,-1,1,0,0,14,-1,1,0,0,1,77,237,66,1,,,,,,,,
,,,,,,,,,,,,,FF,,,,,,,,0.6182,,,,,,,,,,,,,,,,,,,,,,60f7da3cfc0813737c408ce3,610378d108a848faa498e4a5,2021-07-30_05h59.52.865,Simcolourproject_2stim_asymm_v5,2020.2.10,Win32,60,61025ae37ef11b136ea224fe,,,,,,,,,4023,29,78,1,0,0,response1disk,,7,11,11,1,0,0,rectangle,11,11,1,0,0,11,11,1,0,0,1,78,238,140,1,,,,,,,,
,,,,,,,,,,,,,FF,,,,,,,,0.6679,,,,,,,,,,,,,,,,,,,,,,60f7da3cfc0813737c408ce3,610378d108a848faa498e4a5,2021-07-30_05h59.52.865,Simcolourproject_2stim_asymm_v5,2020.2.10,Win32,60,61025ae37ef11b136ea224fe,,,,,,,,,1204,21,77,1,0,0,response1disk,,7,10,11,1,0,0,rectangle,10,11,1,0,0,10,11,1,0,0,1,79,239,157,1,,,,,,,,
,,,,,,,,,,,,,FF,,,,,,,,0.5507,,,,,,,,,,,,,,,,,,,,,,60f7da3cfc0813737c408ce3,610378d108a848faa498e4a5,2021-07-30_05h59.52.865,Simcolourproject_2stim_asymm_v5,2020.2.10,Win32,60,61025ae37ef11b136ea224fe,,,,,,,,,1643,41,92,1,0,0,response1disk,,7,14,5,1,0,0,rectangle,14,5,1,0,0,14,5,1,0,0,1,80,240,145,1,,,,,,,,
,,,,,,,,,,,,,FF,,,,,,,,0.601,,,,,,,,,,,,,,,,,,,,,,60f7da3cfc0813737c408ce3,610378d108a848faa498e4a5,2021-07-30_05h59.52.865,Simcolourproject_2stim_asymm_v5,2020.2.10,Win32,60,61025ae37ef11b136ea224fe,,,,,,,,,55,32,85,1,0,0,response1disk,,7,5,4,1,0,0,rectangle,5,4,1,0,0,5,4,1,0,0,1,81,241,123,1,,,,,,,,
,,,,,,,,,,,,,FF,,,,,,,,0.6007,,,,,,,,,,,,,,,,,,,,,,60f7da3cfc0813737c408ce3,610378d108a848faa498e4a5,2021-07-30_05h59.52.865,Simcolourproject_2stim_asymm_v5,2020.2.10,Win32,60,61025ae37ef11b136ea224fe,,,,,,,,,3321,36,93,1,0,0,response1disk,,7,11,9,1,0,0,rectangle,11,9,1,0,0,11,9,1,0,0,1,82,242,152,1,,,,,,,,
,,,,,,,,,,,,,FF,,,,,,,,1.0504,,,,,,,,,,,,,,,,,,,,,,60f7da3cfc0813737c408ce3,610378d108a848faa498e4a5,2021-07-30_05h59.52.865,Simcolourproject_2stim_asymm_v5,2020.2.10,Win32,60,61025ae37ef11b136ea224fe,,,,,,,,,3099,-38,97,1,0,0,response7disk,,0,-14,12,1,0,0,rectangle,-14,12,1,0,0,-14,12,1,0,0,1,83,243,90,1,,,,,,,,
,,,,,,,,,,,,,FF,,,,,,,,0.7014,,,,,,,,,,,,,,,,,,,,,,60f7da3cfc0813737c408ce3,610378d108a848faa498e4a5,2021-07-30_05h59.52.865,Simcolourproject_2stim_asymm_v5,2020.2.10,Win32,60,61025ae37ef11b136ea224fe,,,,,,,,,1374,-47,72,1,0,0,response7disk,,0,-18,6,1,0,0,rectangle,-18,6,1,0,0,-18,6,1,0,0,1,84,244,28,1,,,,,,,,
,,,,,,,,,,,,,FF,,,,,,,,0.7842,,,,,,,,,,,,,,,,,,,,,,60f7da3cfc0813737c408ce3,610378d108a848faa498e4a5,2021-07-30_05h59.52.865,Simcolourproject_2stim_asymm_v5,2020.2.10,Win32,60,61025ae37ef11b136ea224fe,,,,,,,,,1635,27,83,1,0,0,response1disk,,7,1,-6,1,0,0,rectangle,1,-6,1,0,0,1,-6,1,0,0,1,85,245,3,1,,,,,,,,
,,,,,,,,,,,,,FF,,,,,,,,1.7355,,,,,,,,,,,,,,,,,,,,,,60f7da3cfc0813737c408ce3,610378d108a848faa498e4a5,2021-07-30_05h59.52.865,Simcolourproject_2stim_asymm_v5,2020.2.10,Win32,60,61025ae37ef11b136ea224fe,,,,,,,,,1953,34,87,1,0,0,response1disk,,7,-1,4,1,0,0,rectangle,-1,4,1,0,0,-1,4,1,0,0,1,86,246,49,1,,,,,,,,
,,,,,,,,,,,,,FF,,,,,,,,0.6848,,,,,,,,,,,,,,,,,,,,,,60f7da3cfc0813737c408ce3,610378d108a848faa498e4a5,2021-07-30_05h59.52.865,Simcolourproject_2stim_asymm_v5,2020.2.10,Win32,60,61025ae37ef11b136ea224fe,,,,,,,,,2533,33,70,1,0,0,response1disk,,7,1,5,1,0,0,rectangle,1,5,1,0,0,1,5,1,0,0,1,87,247,55,1,,,,,,,,
,,,,,,,,,,,,,FF,,,,,,,,0.7169,,,,,,,,,,,,,,,,,,,,,,60f7da3cfc0813737c408ce3,610378d108a848faa498e4a5,2021-07-30_05h59.52.865,Simcolourproject_2stim_asymm_v5,2020.2.10,Win32,60,61025ae37ef11b136ea224fe,,,,,,,,,2122,22,65,1,0,0,response1disk,,7,-2,11,1,0,0,rectangle,-83,60,1,0,0,-11,10,1,0,0,1,88,248,100,1,,response7disk_3,TRUE,1,1,"[262,227,173,100,66,222,168,204,310,250,249,206,279,102,142,19,270,45,23,163]",1.9504,rectangle
,,,,,,,,,,,,,FF,,,,,,,,0.7525,,,,,,,,,,,,,,,,,,,,,,60f7da3cfc0813737c408ce3,610378d108a848faa498e4a5,2021-07-30_05h59.52.865,Simcolourproject_2stim_asymm_v5,2020.2.10,Win32,60,61025ae37ef11b136ea224fe,,,,,,,,,2678,40,82,1,0,0,response1disk,,7,14,7,1,0,0,rectangle,-103,38,1,0,0,4,-5,1,0,0,1,89,249,159,1,,response7disk_3,TRUE,1,1,"[262,227,173,100,66,222,168,204,310,250,249,206,279,102,142,19,270,45,23,163]",2.7517,rectangle
,,,,,,,,,,,,,FF,,,,,,,,0.6153,,,,,,,,,,,,,,,,,,,,,,60f7da3cfc0813737c408ce3,610378d108a848faa498e4a5,2021-07-30_05h59.52.865,Simcolourproject_2stim_asymm_v5,2020.2.10,Win32,60,61025ae37ef11b136ea224fe,,,,,,,,,1038,22,67,1,0,0,response1disk,,7,5,-10,1,0,0,rectangle,5,-10,1,0,0,5,-10,1,0,0,1,90,250,127,1,,,,,,,,
,,,,,,,,,,,,,FF,,,,,,,,0.617,,,,,,,,,,,,,,,,,,,,,,60f7da3cfc0813737c408ce3,610378d108a848faa498e4a5,2021-07-30_05h59.52.865,Simcolourproject_2stim_asymm_v5,2020.2.10,Win32,60,61025ae37ef11b136ea224fe,,,,,,,,,1500,24,62,1,0,0,response1disk,,7,-3,11,1,0,0,rectangle,-3,11,1,0,0,-3,11,1,0,0,1,91,251,111,1,,,,,,,,
,,,,,,,,,,,,,FF,,,,,,,,0.6493,,,,,,,,,,,,,,,,,,,,,,60f7da3cfc0813737c408ce3,610378d108a848faa498e4a5,2021-07-30_05h59.52.865,Simcolourproject_2stim_asymm_v5,2020.2.10,Win32,60,61025ae37ef11b136ea224fe,,,,,,,,,2898,16,64,1,0,0,response1disk,,7,8,5,1,0,0,rectangle,8,5,1,0,0,8,5,1,0,0,1,92,252,62,1,,,,,,,,
,,,,,,,,,,,,,FF,,,,,,,,0.656,,,,,,,,,,,,,,,,,,,,,,60f7da3cfc0813737c408ce3,610378d108a848faa498e4a5,2021-07-30_05h59.52.865,Simcolourproject_2stim_asymm_v5,2020.2.10,Win32,60,61025ae37ef11b136ea224fe,,,,,,,,,3193,36,78,1,0,0,response1disk,,7,14,9,1,0,0,rectangle,14,9,1,0,0,14,9,1,0,0,1,93,253,121,1,,,,,,,,
,,,,,,,,,,,,,FF,,,,,,,,0.6346,,,,,,,,,,,,,,,,,,,,,,60f7da3cfc0813737c408ce3,610378d108a848faa498e4a5,2021-07-30_05h59.52.865,Simcolourproject_2stim_asymm_v5,2020.2.10,Win32,60,61025ae37ef11b136ea224fe,,,,,,,,,873,33,61,1,0,0,response1disk,,7,17,1,1,0,0,rectangle,17,1,1,0,0,17,1,1,0,0,1,94,254,101,1,,,,,,,,
,,,,,,,,,,,,,FF,,,,,,,,0.5992,,,,,,,,,,,,,,,,,,,,,,60f7da3cfc0813737c408ce3,610378d108a848faa498e4a5,2021-07-30_05h59.52.865,Simcolourproject_2stim_asymm_v5,2020.2.10,Win32,60,61025ae37ef11b136ea224fe,,,,,,,,,2795,33,78,1,0,0,response1disk,,7,16,0,1,0,0,rectangle,16,0,1,0,0,16,0,1,0,0,1,95,255,18,1,,,,,,,,
,,,,,,,,,,,,,FF,,,,,,,,0.6006,,,,,,,,,,,,,,,,,,,,,,60f7da3cfc0813737c408ce3,610378d108a848faa498e4a5,2021-07-30_05h59.52.865,Simcolourproject_2stim_asymm_v5,2020.2.10,Win32,60,61025ae37ef11b136ea224fe,,,,,,,,,2612,43,93,1,0,0,response1disk,,7,9,3,1,0,0,rectangle,9,3,1,0,0,9,3,1,0,0,1,96,256,10,1,,,,,,,,
,,,,,,,,,,,,,FF,,,,,,,,0.5841,,,,,,,,,,,,,,,,,,,,,,60f7da3cfc0813737c408ce3,610378d108a848faa498e4a5,2021-07-30_05h59.52.865,Simcolourproject_2stim_asymm_v5,2020.2.10,Win32,60,61025ae37ef11b136ea224fe,,,,,,,,,970,20,77,1,0,0,response1disk,,7,6,-6,1,0,0,rectangle,6,-6,1,0,0,6,-6,1,0,0,1,97,257,122,1,,,,,,,,
,,,,,,,,,,,,,FF,,,,,,,,0.8672,,,,,,,,,,,,,,,,,,,,,,60f7da3cfc0813737c408ce3,610378d108a848faa498e4a5,2021-07-30_05h59.52.865,Simcolourproject_2stim_asymm_v5,2020.2.10,Win32,60,61025ae37ef11b136ea224fe,,,,,,,,,1368,-21,78,1,0,0,response7disk,,0,1,6,1,0,0,rectangle,1,6,1,0,0,1,6,1,0,0,1,98,258,15,1,,,,,,,,
,,,,,,,,,,,,,FF,,,,,,,,0.9344,,,,,,,,,,,,,,,,,,,,,,60f7da3cfc0813737c408ce3,610378d108a848faa498e4a5,2021-07-30_05h59.52.865,Simcolourproject_2stim_asymm_v5,2020.2.10,Win32,60,61025ae37ef11b136ea224fe,,,,,,,,,897,39,107,1,0,0,response1disk,,7,19,1,1,0,0,rectangle,19,1,1,0,0,19,1,1,0,0,1,99,259,148,1,,,,,,,,
,,,,,,,,,,,,,FF,,,,,,,,0.6339,,,,,,,,,,,,,,,,,,,,,,60f7da3cfc0813737c408ce3,610378d108a848faa498e4a5,2021-07-30_05h59.52.865,Simcolourproject_2stim_asymm_v5,2020.2.10,Win32,60,61025ae37ef11b136ea224fe,,,,,,,,,912,23,83,1,0,0,response1disk,,7,14,9,1,0,0,rectangle,14,9,1,0,0,14,9,1,0,0,1,100,260,142,1,,,,,,,,
,,,,,,,,,,,,,FF,,,,,,,,1.2338,,,,,,,,,,,,,,,,,,,,,,60f7da3cfc0813737c408ce3,610378d108a848faa498e4a5,2021-07-30_05h59.52.865,Simcolourproject_2stim_asymm_v5,2020.2.10,Win32,60,61025ae37ef11b136ea224fe,,,,,,,,,4021,-53,92,1,0,0,response7disk,,0,-9,2,1,0,0,rectangle,44,-83,1,0,0,15,-1,1,0,0,1,101,261,60,1,,response3disk_3,TRUE,4,4,"[262,227,173,100,66,222,168,204,310,250,249,206,279,102,142,19,270,45,23,163]",1.5893,rectangle
,,,,,,,,,,,,,FF,,,,,,,,0.85,,,,,,,,,,,,,,,,,,,,,,60f7da3cfc0813737c408ce3,610378d108a848faa498e4a5,2021-07-30_05h59.52.865,Simcolourproject_2stim_asymm_v5,2020.2.10,Win32,60,61025ae37ef11b136ea224fe,,,,,,,,,3825,23,78,1,0,0,response1disk,,7,6,0,1,0,0,rectangle,6,0,1,0,0,6,0,1,0,0,1,102,262,65,1,,,,,,,,
,,,,,,,,,,,,,FF,,,,,,,,0.7674,,,,,,,,,,,,,,,,,,,,,,60f7da3cfc0813737c408ce3,610378d108a848faa498e4a5,2021-07-30_05h59.52.865,Simcolourproject_2stim_asymm_v5,2020.2.10,Win32,60,61025ae37ef11b136ea224fe,,,,,,,,,1350,41,98,1,0,0,response1disk,,7,11,6,1,0,0,rectangle,11,6,1,0,0,11,6,1,0,0,1,103,263,67,1,,,,,,,,
,,,,,,,,,,,,,FF,,,,,,,,0.6826,,,,,,,,,,,,,,,,,,,,,,60f7da3cfc0813737c408ce3,610378d108a848faa498e4a5,2021-07-30_05h59.52.865,Simcolourproject_2stim_asymm_v5,2020.2.10,Win32,60,61025ae37ef11b136ea224fe,,,,,,,,,2910,36,90,1,0,0,response1disk,,7,10,9,1,0,0,rectangle,10,9,1,0,0,10,9,1,0,0,1,104,264,61,1,,,,,,,,
,,,,,,,,,,,,,FF,,,,,,,,0.6676,,,,,,,,,,,,,,,,,,,,,,60f7da3cfc0813737c408ce3,610378d108a848faa498e4a5,2021-07-30_05h59.52.865,Simcolourproject_2stim_asymm_v5,2020.2.10,Win32,60,61025ae37ef11b136ea224fe,,,,,,,,,1028,27,65,1,0,0,response1disk,,7,10,13,1,0,0,rectangle,10,13,1,0,0,10,13,1,0,0,1,105,265,2,1,,,,,,,,
,,,,,,,,,,,,,FF,,,,,,,,0.6703,,,,,,,,,,,,,,,,,,,,,,60f7da3cfc0813737c408ce3,610378d108a848faa498e4a5,2021-07-30_05h59.52.865,Simcolourproject_2stim_asymm_v5,2020.2.10,Win32,60,61025ae37ef11b136ea224fe,,,,,,,,,523,15,73,1,0,0,response1disk,,7,11,-1,1,0,0,rectangle,11,-1,1,0,0,11,-1,1,0,0,1,106,266,125,1,,,,,,,,
,,,,,,,,,,,,,FF,,,,,,,,0.584,,,,,,,,,,,,,,,,,,,,,,60f7da3cfc0813737c408ce3,610378d108a848faa498e4a5,2021-07-30_05h59.52.865,Simcolourproject_2stim_asymm_v5,2020.2.10,Win32,60,61025ae37ef11b136ea224fe,,,,,,,,,1263,36,73,1,0,0,response1disk,,7,20,13,1,0,0,rectangle,20,13,1,0,0,20,13,1,0,0,1,107,267,1,1,,,,,,,,
,,,,,,,,,,,,,FF,,,,,,,,0.5671,,,,,,,,,,,,,,,,,,,,,,60f7da3cfc0813737c408ce3,610378d108a848faa498e4a5,2021-07-30_05h59.52.865,Simcolourproject_2stim_asymm_v5,2020.2.10,Win32,60,61025ae37ef11b136ea224fe,,,,,,,,,681,31,91,1,0,0,response1disk,,7,6,-13,1,0,0,rectangle,6,-13,1,0,0,6,-13,1,0,0,1,108,268,130,1,,,,,,,,
,,,,,,,,,,,,,FF,,,,,,,,0.8719,,,,,,,,,,,,,,,,,,,,,,60f7da3cfc0813737c408ce3,610378d108a848faa498e4a5,2021-07-30_05h59.52.865,Simcolourproject_2stim_asymm_v5,2020.2.10,Win32,60,61025ae37ef11b136ea224fe,,,,,,,,,3273,25,58,1,0,0,response1disk,,7,17,14,1,0,0,rectangle,-42,101,1,0,0,0,-11,1,0,0,1,109,269,132,1,,response7disk_3,TRUE,0,0,"[262,227,173,100,66,222,168,204,310,250,249,206,279,102,142,19,270,45,23,163]",2.3381,rectangle
,,,,,,,,,,,,,FF,,,,,,,,0.6176,,,,,,,,,,,,,,,,,,,,,,60f7da3cfc0813737c408ce3,610378d108a848faa498e4a5,2021-07-30_05h59.52.865,Simcolourproject_2stim_asymm_v5,2020.2.10,Win32,60,61025ae37ef11b136ea224fe,,,,,,,,,2560,29,76,1,0,0,response1disk,,7,13,4,1,0,0,rectangle,13,4,1,0,0,13,4,1,0,0,1,110,270,52,1,,,,,,,,
,,,,,,,,,,,,,FF,,,,,,,,0.636,,,,,,,,,,,,,,,,,,,,,,60f7da3cfc0813737c408ce3,610378d108a848faa498e4a5,2021-07-30_05h59.52.865,Simcolourproject_2stim_asymm_v5,2020.2.10,Win32,60,61025ae37ef11b136ea224fe,,,,,,,,,4214,43,96,1,0,0,response1disk,,7,15,5,1,0,0,rectangle,15,5,1,0,0,15,5,1,0,0,1,111,271,26,1,,,,,,,,
,,,,,,,,,,,,,FF,,,,,,,,0.6512,,,,,,,,,,,,,,,,,,,,,,60f7da3cfc0813737c408ce3,610378d108a848faa498e4a5,2021-07-30_05h59.52.865,Simcolourproject_2stim_asymm_v5,2020.2.10,Win32,60,61025ae37ef11b136ea224fe,,,,,,,,,3116,37,87,1,0,0,response1disk,,7,5,6,1,0,0,rectangle,5,6,1,0,0,5,6,1,0,0,1,112,272,35,1,,,,,,,,
,,,,,,,,,,,,,FF,,,,,,,,0.5834,,,,,,,,,,,,,,,,,,,,,,60f7da3cfc0813737c408ce3,610378d108a848faa498e4a5,2021-07-30_05h59.52.865,Simcolourproject_2stim_asymm_v5,2020.2.10,Win32,60,61025ae37ef11b136ea224fe,,,,,,,,,3733,28,78,1,0,0,response1disk,,7,2,-2,1,0,0,rectangle,2,-2,1,0,0,2,-2,1,0,0,1,113,273,119,1,,,,,,,,
,,,,,,,,,,,,,FF,,,,,,,,0.5975,,,,,,,,,,,,,,,,,,,,,,60f7da3cfc0813737c408ce3,610378d108a848faa498e4a5,2021-07-30_05h59.52.865,Simcolourproject_2stim_asymm_v5,2020.2.10,Win32,60,61025ae37ef11b136ea224fe,,,,,,,,,3579,30,85,1,0,0,response1disk,,7,11,14,1,0,0,rectangle,11,14,1,0,0,11,14,1,0,0,1,114,274,0,1,,,,,,,,
,,,,,,,,,,,,,FF,,,,,,,,0.6019,,,,,,,,,,,,,,,,,,,,,,60f7da3cfc0813737c408ce3,610378d108a848faa498e4a5,2021-07-30_05h59.52.865,Simcolourproject_2stim_asymm_v5,2020.2.10,Win32,60,61025ae37ef11b136ea224fe,,,,,,,,,3688,28,75,1,0,0,response1disk,,7,7,2,1,0,0,rectangle,7,2,1,0,0,7,2,1,0,0,1,115,275,74,1,,,,,,,,
,,,,,,,,,,,,,FF,,,,,,,,0.7165,,,,,,,,,,,,,,,,,,,,,,60f7da3cfc0813737c408ce3,610378d108a848faa498e4a5,2021-07-30_05h59.52.865,Simcolourproject_2stim_asymm_v5,2020.2.10,Win32,60,61025ae37ef11b136ea224fe,,,,,,,,,4116,23,63,1,0,0,response1disk,,7,-4,4,1,0,0,rectangle,-4,4,1,0,0,-4,4,1,0,0,1,116,276,131,1,,,,,,,,
,,,,,,,,,,,,,FF,,,,,,,,0.7838,,,,,,,,,,,,,,,,,,,,,,60f7da3cfc0813737c408ce3,610378d108a848faa498e4a5,2021-07-30_05h59.52.865,Simcolourproject_2stim_asymm_v5,2020.2.10,Win32,60,61025ae37ef11b136ea224fe,,,,,,,,,3147,-37,84,1,0,0,response7disk,,0,-7,5,1,0,0,rectangle,-7,5,1,0,0,-7,5,1,0,0,1,117,277,31,1,,,,,,,,
,,,,,,,,,,,,,FF,,,,,,,,0.9339,,,,,,,,,,,,,,,,,,,,,,60f7da3cfc0813737c408ce3,610378d108a848faa498e4a5,2021-07-30_05h59.52.865,Simcolourproject_2stim_asymm_v5,2020.2.10,Win32,60,61025ae37ef11b136ea224fe,,,,,,,,,3972,-35,92,1,0,0,response7disk,,0,-12,5,1,0,0,rectangle,21,95,1,0,0,2,0,1,0,0,1,118,278,106,1,,response1disk_3,TRUE,7,7,"[262,227,173,100,66,222,168,204,310,250,249,206,279,102,142,19,270,45,23,163]",2.5345,rectangle
,,,,,,,,,,,,,FF,,,,,,,,0.817,,,,,,,,,,,,,,,,,,,,,,60f7da3cfc0813737c408ce3,610378d108a848faa498e4a5,2021-07-30_05h59.52.865,Simcolourproject_2stim_asymm_v5,2020.2.10,Win32,60,61025ae37ef11b136ea224fe,,,,,,,,,4030,38,102,1,0,0,response1disk,,7,-1,-6,1,0,0,rectangle,-1,-6,1,0,0,-1,-6,1,0,0,1,119,279,38,1,,,,,,,,
,,,,,,,,,,,,,FF,,,,,,,,0.8677,,,,,,,,,,,,,,,,,,,,,,60f7da3cfc0813737c408ce3,610378d108a848faa498e4a5,2021-07-30_05h59.52.865,Simcolourproject_2stim_asymm_v5,2020.2.10,Win32,60,61025ae37ef11b136ea224fe,,,,,,,,,4327,-33,97,1,0,0,response7disk,,0,12,14,1,0,0,rectangle,12,14,1,0,0,12,14,1,0,0,1,120,280,93,1,,,,,,,,
,,,,,,,,,,,,,FF,,,,,,,,0.6501,,,,,,,,,,,,,,,,,,,,,,60f7da3cfc0813737c408ce3,610378d108a848faa498e4a5,2021-07-30_05h59.52.865,Simcolourproject_2stim_asymm_v5,2020.2.10,Win32,60,61025ae37ef11b136ea224fe,,,,,,,,,1699,44,89,1,0,0,response1disk,,7,3,-11,1,0,0,rectangle,3,-11,1,0,0,3,-11,1,0,0,1,121,281,118,1,,,,,,,,
,,,,,,,,,,,,,FF,,,,,,,,0.868,,,,,,,,,,,,,,,,,,,,,,60f7da3cfc0813737c408ce3,610378d108a848faa498e4a5,2021-07-30_05h59.52.865,Simcolourproject_2stim_asymm_v5,2020.2.10,Win32,60,61025ae37ef11b136ea224fe,,,,,,,,,1912,36,86,1,0,0,response1disk,,7,6,-4,1,0,0,rectangle,6,-4,1,0,0,6,-4,1,0,0,1,122,282,104,1,,,,,,,,
,,,,,,,,,,,,,FF,,,,,,,,0.9504,,,,,,,,,,,,,,,,,,,,,,60f7da3cfc0813737c408ce3,610378d108a848faa498e4a5,2021-07-30_05h59.52.865,Simcolourproject_2stim_asymm_v5,2020.2.10,Win32,60,61025ae37ef11b136ea224fe,,,,,,,,,850,21,71,1,0,0,response1disk,,7,9,11,1,0,0,rectangle,9,11,1,0,0,9,11,1,0,0,1,123,283,151,1,,,,,,,,
,,,,,,,,,,,,,FF,,,,,,,,1.2175,,,,,,,,,,,,,,,,,,,,,,60f7da3cfc0813737c408ce3,610378d108a848faa498e4a5,2021-07-30_05h59.52.865,Simcolourproject_2stim_asymm_v5,2020.2.10,Win32,60,61025ae37ef11b136ea224fe,,,,,,,,,135,33,79,1,0,0,response1disk,,7,10,7,1,0,0,rectangle,10,7,1,0,0,10,7,1,0,0,1,124,284,97,1,,,,,,,,
,,,,,,,,,,,,,FF,,,,,,,,0.7669,,,,,,,,,,,,,,,,,,,,,,60f7da3cfc0813737c408ce3,610378d108a848faa498e4a5,2021-07-30_05h59.52.865,Simcolourproject_2stim_asymm_v5,2020.2.10,Win32,60,61025ae37ef11b136ea224fe,,,,,,,,,3016,35,100,1,0,0,response1disk,,7,-11,-10,1,0,0,rectangle,-11,-10,1,0,0,-11,-10,1,0,0,1,125,285,41,1,,,,,,,,
,,,,,,,,,,,,,FF,,,,,,,,0.6845,,,,,,,,,,,,,,,,,,,,,,60f7da3cfc0813737c408ce3,610378d108a848faa498e4a5,2021-07-30_05h59.52.865,Simcolourproject_2stim_asymm_v5,2020.2.10,Win32,60,61025ae37ef11b136ea224fe,,,,,,,,,2762,49,103,1,0,0,response1disk,,7,14,5,1,0,0,rectangle,14,5,1,0,0,14,5,1,0,0,1,126,286,92,1,,,,,,,,
,,,,,,,,,,,,,FF,,,,,,,,0.6009,,,,,,,,,,,,,,,,,,,,,,60f7da3cfc0813737c408ce3,610378d108a848faa498e4a5,2021-07-30_05h59.52.865,Simcolourproject_2stim_asymm_v5,2020.2.10,Win32,60,61025ae37ef11b136ea224fe,,,,,,,,,1621,22,60,1,0,0,response1disk,,7,4,5,1,0,0,rectangle,4,5,1,0,0,4,5,1,0,0,1,127,287,27,1,,,,,,,,
,,,,,,,,,,,,,FF,,,,,,,,0.6347,,,,,,,,,,,,,,,,,,,,,,60f7da3cfc0813737c408ce3,610378d108a848faa498e4a5,2021-07-30_05h59.52.865,Simcolourproject_2stim_asymm_v5,2020.2.10,Win32,60,61025ae37ef11b136ea224fe,,,,,,,,,686,46,88,1,0,0,response1disk,,7,12,1,1,0,0,rectangle,12,1,1,0,0,12,1,1,0,0,1,128,288,115,1,,,,,,,,
,,,,,,,,,,,,,FF,,,,,,,,0.6679,,,,,,,,,,,,,,,,,,,,,,60f7da3cfc0813737c408ce3,610378d108a848faa498e4a5,2021-07-30_05h59.52.865,Simcolourproject_2stim_asymm_v5,2020.2.10,Win32,60,61025ae37ef11b136ea224fe,,,,,,,,,1732,25,63,1,0,0,response1disk,,7,1,1,1,0,0,rectangle,1,1,1,0,0,1,1,1,0,0,1,129,289,79,1,,,,,,,,
,,,,,,,,,,,,,FF,,,,,,,,0.7204,,,,,,,,,,,,,,,,,,,,,,60f7da3cfc0813737c408ce3,610378d108a848faa498e4a5,2021-07-30_05h59.52.865,Simcolourproject_2stim_asymm_v5,2020.2.10,Win32,60,61025ae37ef11b136ea224fe,,,,,,,,,1077,42,99,1,0,0,response1disk,,7,5,4,1,0,0,rectangle,5,4,1,0,0,5,4,1,0,0,1,130,290,64,1,,,,,,,,
,,,,,,,,,,,,,FF,,,,,,,,0.6513,,,,,,,,,,,,,,,,,,,,,,60f7da3cfc0813737c408ce3,610378d108a848faa498e4a5,2021-07-30_05h59.52.865,Simcolourproject_2stim_asymm_v5,2020.2.10,Win32,60,61025ae37ef11b136ea224fe,,,,,,,,,2916,48,119,1,0,0,response1disk,,7,9,4,1,0,0,rectangle,9,4,1,0,0,9,4,1,0,0,1,131,291,86,1,,,,,,,,
,,,,,,,,,,,,,FF,,,,,,,,1.4353,,,,,,,,,,,,,,,,,,,,,,60f7da3cfc0813737c408ce3,610378d108a848faa498e4a5,2021-07-30_05h59.52.865,Simcolourproject_2stim_asymm_v5,2020.2.10,Win32,60,61025ae37ef11b136ea224fe,,,,,,,,,3762,21,98,1,0,0,response1disk,,7,-7,-7,1,0,0,rectangle,-7,-7,1,0,0,-7,-7,1,0,0,1,132,292,16,1,,,,,,,,
,,,,,,,,,,,,,FF,,,,,,,,0.7345,,,,,,,,,,,,,,,,,,,,,,60f7da3cfc0813737c408ce3,610378d108a848faa498e4a5,2021-07-30_05h59.52.865,Simcolourproject_2stim_asymm_v5,2020.2.10,Win32,60,61025ae37ef11b136ea224fe,,,,,,,,,3187,37,64,1,0,0,response1disk,,7,24,4,1,0,0,rectangle,24,4,1,0,0,24,4,1,0,0,1,133,293,68,1,,,,,,,,
,,,,,,,,,,,,,FF,,,,,,,,0.5682,,,,,,,,,,,,,,,,,,,,,,60f7da3cfc0813737c408ce3,610378d108a848faa498e4a5,2021-07-30_05h59.52.865,Simcolourproject_2stim_asymm_v5,2020.2.10,Win32,60,61025ae37ef11b136ea224fe,,,,,,,,,1582,36,84,1,0,0,response1disk,,7,4,-11,1,0,0,rectangle,4,-11,1,0,0,4,-11,1,0,0,1,134,294,48,1,,,,,,,,
,,,,,,,,,,,,,FF,,,,,,,,0.7011,,,,,,,,,,,,,,,,,,,,,,60f7da3cfc0813737c408ce3,610378d108a848faa498e4a5,2021-07-30_05h59.52.865,Simcolourproject_2stim_asymm_v5,2020.2.10,Win32,60,61025ae37ef11b136ea224fe,,,,,,,,,380,26,71,1,0,0,response1disk,,7,2,6,1,0,0,rectangle,2,6,1,0,0,2,6,1,0,0,1,135,295,5,1,,,,,,,,
,,,,,,,,,,,,,FF,,,,,,,,0.5481,,,,,,,,,,,,,,,,,,,,,,60f7da3cfc0813737c408ce3,610378d108a848faa498e4a5,2021-07-30_05h59.52.865,Simcolourproject_2stim_asymm_v5,2020.2.10,Win32,60,61025ae37ef11b136ea224fe,,,,,,,,,1993,22,77,1,0,0,response1disk,,7,9,6,1,0,0,rectangle,9,6,1,0,0,9,6,1,0,0,1,136,296,139,1,,,,,,,,
,,,,,,,,,,,,,FF,,,,,,,,0.5656,,,,,,,,,,,,,,,,,,,,,,60f7da3cfc0813737c408ce3,610378d108a848faa498e4a5,2021-07-30_05h59.52.865,Simcolourproject_2stim_asymm_v5,2020.2.10,Win32,60,61025ae37ef11b136ea224fe,,,,,,,,,362,32,82,1,0,0,response1disk,,7,11,6,1,0,0,rectangle,11,6,1,0,0,11,6,1,0,0,1,137,297,56,1,,,,,,,,
,,,,,,,,,,,,,FF,,,,,,,,0.6175,,,,,,,,,,,,,,,,,,,,,,60f7da3cfc0813737c408ce3,610378d108a848faa498e4a5,2021-07-30_05h59.52.865,Simcolourproject_2stim_asymm_v5,2020.2.10,Win32,60,61025ae37ef11b136ea224fe,,,,,,,,,2121,37,87,1,0,0,response1disk,,7,9,10,1,0,0,rectangle,9,10,1,0,0,9,10,1,0,0,1,138,298,136,1,,,,,,,,
,,,,,,,,,,,,,FF,,,,,,,,0.6172,,,,,,,,,,,,,,,,,,,,,,60f7da3cfc0813737c408ce3,610378d108a848faa498e4a5,2021-07-30_05h59.52.865,Simcolourproject_2stim_asymm_v5,2020.2.10,Win32,60,61025ae37ef11b136ea224fe,,,,,,,,,3496,34,99,1,0,0,response1disk,,7,15,12,1,0,0,rectangle,15,12,1,0,0,15,12,1,0,0,1,139,299,120,1,,,,,,,,
,,,,,,,,,,,,,FF,,,,,,,,0.5843,,,,,,,,,,,,,,,,,,,,,,60f7da3cfc0813737c408ce3,610378d108a848faa498e4a5,2021-07-30_05h59.52.865,Simcolourproject_2stim_asymm_v5,2020.2.10,Win32,60,61025ae37ef11b136ea224fe,,,,,,,,,3133,34,74,1,0,0,response1disk,,7,8,8,1,0,0,rectangle,8,8,1,0,0,8,8,1,0,0,1,140,300,34,1,,,,,,,,
,,,,,,,,,,,,,FF,,,,,,,,0.6176,,,,,,,,,,,,,,,,,,,,,,60f7da3cfc0813737c408ce3,610378d108a848faa498e4a5,2021-07-30_05h59.52.865,Simcolourproject_2stim_asymm_v5,2020.2.10,Win32,60,61025ae37ef11b136ea224fe,,,,,,,,,2992,27,75,1,0,0,response1disk,,7,6,-4,1,0,0,rectangle,6,-4,1,0,0,6,-4,1,0,0,1,141,301,143,1,,,,,,,,
,,,,,,,,,,,,,FF,,,,,,,,1.5148,,,,,,,,,,,,,,,,,,,,,,60f7da3cfc0813737c408ce3,610378d108a848faa498e4a5,2021-07-30_05h59.52.865,Simcolourproject_2stim_asymm_v5,2020.2.10,Win32,60,61025ae37ef11b136ea224fe,,,,,,,,,3771,-34,84,1,0,0,response7disk,,0,3,-5,1,0,0,rectangle,3,-5,1,0,0,3,-5,1,0,0,1,142,302,11,1,,,,,,,,
,,,,,,,,,,,,,FF,,,,,,,,0.6165,,,,,,,,,,,,,,,,,,,,,,60f7da3cfc0813737c408ce3,610378d108a848faa498e4a5,2021-07-30_05h59.52.865,Simcolourproject_2stim_asymm_v5,2020.2.10,Win32,60,61025ae37ef11b136ea224fe,,,,,,,,,4334,45,80,1,0,0,response1disk,,7,22,-4,1,0,0,rectangle,22,-4,1,0,0,22,-4,1,0,0,1,143,303,103,1,,,,,,,,
