key_resp.keys,key_resp.rt,key_resp_14.keys,key_resp_14.rt,key_resp_15.keys,key_resp_15.rt,key_resp_17.keys,key_resp_17.rt,key_resp_9.keys,key_resp_9.rt,key_resp_10.keys,key_resp_10.rt,practice_comparison,Ecc,mouse_5.x,mouse_5.y,mouse_5.leftButton,mouse_5.midButton,mouse_5.rightButton,mouse_5.clicked_name,pracsimilarity,response_time,mouse_10.x,mouse_10.y,mouse_10.leftButton,mouse_10.midButton,mouse_10.rightButton,mouse_10.clicked_name,mouse_7.x,mouse_7.y,mouse_7.leftButton,mouse_7.midButton,mouse_7.rightButton,mouse_6.x,mouse_6.y,mouse_6.leftButton,mouse_6.midButton,mouse_6.rightButton,duringprac.thisRepN,duringprac.thisTrialN,duringprac.thisN,duringprac.thisIndex,duringprac.ran,participant,session,date,expName,psychopyVersion,OS,frameRate,study_id,mouse_7.clicked_name,catchpracsimilarity,catch_response_time,catchnumberprac,catchtrialorderprac,mouse_6.clicked_name,key_resp_22.keys,key_resp_22.rt,realcomparison,mouse.x,mouse.y,mouse.leftButton,mouse.midButton,mouse.rightButton,mouse.clicked_name,Colour2,similarity,mouse_2.x,mouse_2.y,mouse_2.leftButton,mouse_2.midButton,mouse_2.rightButton,mouse_2.clicked_name,mouse_3.x,mouse_3.y,mouse_3.leftButton,mouse_3.midButton,mouse_3.rightButton,mouse_11.x,mouse_11.y,mouse_11.leftButton,mouse_11.midButton,mouse_11.rightButton,trials_2.thisRepN,trials_2.thisTrialN,trials_2.thisN,trials_2.thisIndex,trials_2.ran,Colour1,mouse_3.clicked_name,catchornah,catchsimilarity,catchnumber,catchtrialorder,catchRT,mouse_11.clicked_name
space,4.758,space,20.146,space,51.686,space,8.421,space,3.648,space,5.678,108,PF,-42,103,1,0,0,response7disk_5,0,27.931,2,2,1,0,0,rectangle_8,2,2,1,0,0,2,2,1,0,0,0,0,0,1,1,60f8fb8d2c5a8b523880f6ae,610375b6638a24927edab617,2021-07-29_23h57.38.282,Simcolourproject_2stim_asymm_v5,2020.2.10,Win32,60,61025ae37ef11b136ea224fe,,,,,,,,,,,,,,,,,,,,,,,,,,,,,,,,,,,,,,,,,,,,,,
,,,,,,,,,,,,41,FF,40,102,1,0,0,response1disk_5,7,3.85,-2,-3,1,0,0,rectangle_8,-84,-38,1,0,0,9,3,1,0,0,0,1,1,0,1,60f8fb8d2c5a8b523880f6ae,610375b6638a24927edab617,2021-07-29_23h57.38.282,Simcolourproject_2stim_asymm_v5,2020.2.10,Win32,60,61025ae37ef11b136ea224fe,response5disk_7,2,3.717,2,"[2,5]",rectangle_4,,,,,,,,,,,,,,,,,,,,,,,,,,,,,,,,,,,,,,,,
,,,,,,,,,,,,39,PF,75,-36,1,0,0,response3disk_5,5,6.13,1,0,1,0,0,rectangle_8,1,0,1,0,0,1,0,1,0,0,0,2,2,2,1,60f8fb8d2c5a8b523880f6ae,610375b6638a24927edab617,2021-07-29_23h57.38.282,Simcolourproject_2stim_asymm_v5,2020.2.10,Win32,60,61025ae37ef11b136ea224fe,,,,,,,,,,,,,,,,,,,,,,,,,,,,,,,,,,,,,,,,,,,,,,
,,,,,,,,,,,,103,FF,-45,-61,1,0,0,response5disk_5,3,7.564,-3,-7,1,0,0,rectangle_8,-3,-7,1,0,0,-3,-7,1,0,0,0,3,3,3,1,60f8fb8d2c5a8b523880f6ae,610375b6638a24927edab617,2021-07-29_23h57.38.282,Simcolourproject_2stim_asymm_v5,2020.2.10,Win32,60,61025ae37ef11b136ea224fe,,,,,,,,,,,,,,,,,,,,,,,,,,,,,,,,,,,,,,,,,,,,,,
,,,,,,,,,,,,40,PF,31,-61,1,0,0,response3disk_5,4,2.43,-1,-9,1,0,0,rectangle_8,-87,-43,1,0,0,-3,7,1,0,0,0,4,4,4,1,60f8fb8d2c5a8b523880f6ae,610375b6638a24927edab617,2021-07-29_23h57.38.282,Simcolourproject_2stim_asymm_v5,2020.2.10,Win32,60,61025ae37ef11b136ea224fe,response5disk_7,2,3.704,2,"[2,5]",rectangle_4,,,,,,,,,,,,,,,,,,,,,,,,,,,,,,,,,,,,,,,,
,,,,,,,,,,,,113,PF,89,44,1,0,0,response1disk_5,6,4.6,4,0,1,0,0,rectangle_8,4,0,1,0,0,4,0,1,0,0,0,5,5,6,1,60f8fb8d2c5a8b523880f6ae,610375b6638a24927edab617,2021-07-29_23h57.38.282,Simcolourproject_2stim_asymm_v5,2020.2.10,Win32,60,61025ae37ef11b136ea224fe,,,,,,,,,,,,,,,,,,,,,,,,,,,,,,,,,,,,,,,,,,,,,,
,,,,,,,,,,,,102,FF,65,32,1,0,0,response1disk_5,6,4.767,6,-12,1,0,0,rectangle_8,6,-12,1,0,0,6,-12,1,0,0,0,6,6,5,1,60f8fb8d2c5a8b523880f6ae,610375b6638a24927edab617,2021-07-29_23h57.38.282,Simcolourproject_2stim_asymm_v5,2020.2.10,Win32,60,61025ae37ef11b136ea224fe,,,,,,,,,,,,,,,,,,,,,,,,,,,,,,,,,,,,,,,,,,,,,,
,,,,,,,,,,,,,FF,,,,,,,,2.961,,,,,,,,,,,,,,,,,,,,,,60f8fb8d2c5a8b523880f6ae,610375b6638a24927edab617,2021-07-29_23h57.38.282,Simcolourproject_2stim_asymm_v5,2020.2.10,Win32,60,61025ae37ef11b136ea224fe,,,,,,,space,3.87,4109,35,66,1,0,0,response1disk,,7,-12,-4,1,0,0,rectangle,-12,-4,1,0,0,-12,-4,1,0,0,0,0,0,62,1,,,,,,,,
,,,,,,,,,,,,,FF,,,,,,,,6.289,,,,,,,,,,,,,,,,,,,,,,60f8fb8d2c5a8b523880f6ae,610375b6638a24927edab617,2021-07-29_23h57.38.282,Simcolourproject_2stim_asymm_v5,2020.2.10,Win32,60,61025ae37ef11b136ea224fe,,,,,,,,,341,-31,-79,1,0,0,response5disk,,3,1,2,1,0,0,rectangle,30,73,1,0,0,-4,-3,1,0,0,0,1,1,25,1,,response1disk_3,TRUE,7,7,"[187,5,257,116,180,234,2,122,321,308,28,306,214,46,58,258,302,198,224,23]",2.549,rectangle
,,,,,,,,,,,,,FF,,,,,,,,3.449,,,,,,,,,,,,,,,,,,,,,,60f8fb8d2c5a8b523880f6ae,610375b6638a24927edab617,2021-07-29_23h57.38.282,Simcolourproject_2stim_asymm_v5,2020.2.10,Win32,60,61025ae37ef11b136ea224fe,,,,,,,,,1208,32,-72,1,0,0,response3disk,,4,-1,1,1,0,0,rectangle,-1,1,1,0,0,-1,1,1,0,0,0,2,2,39,1,,,,,,,,
,,,,,,,,,,,,,FF,,,,,,,,2.818,,,,,,,,,,,,,,,,,,,,,,60f8fb8d2c5a8b523880f6ae,610375b6638a24927edab617,2021-07-29_23h57.38.282,Simcolourproject_2stim_asymm_v5,2020.2.10,Win32,60,61025ae37ef11b136ea224fe,,,,,,,,,121,83,26,1,0,0,response1disk,,6,2,6,1,0,0,rectangle,2,6,1,0,0,2,6,1,0,0,0,3,3,81,1,,,,,,,,
,,,,,,,,,,,,,FF,,,,,,,,2.147,,,,,,,,,,,,,,,,,,,,,,60f8fb8d2c5a8b523880f6ae,610375b6638a24927edab617,2021-07-29_23h57.38.282,Simcolourproject_2stim_asymm_v5,2020.2.10,Win32,60,61025ae37ef11b136ea224fe,,,,,,,,,3716,-34,-75,1,0,0,response5disk,,3,-5,2,1,0,0,rectangle,55,33,1,0,0,11,-4,1,0,0,0,4,4,137,1,,response1disk_3,TRUE,6,6,"[187,5,257,116,180,234,2,122,321,308,28,306,214,46,58,258,302,198,224,23]",2.716,rectangle
,,,,,,,,,,,,,FF,,,,,,,,2.698,,,,,,,,,,,,,,,,,,,,,,60f8fb8d2c5a8b523880f6ae,610375b6638a24927edab617,2021-07-29_23h57.38.282,Simcolourproject_2stim_asymm_v5,2020.2.10,Win32,60,61025ae37ef11b136ea224fe,,,,,,,,,2117,23,-79,1,0,0,response3disk,,4,6,7,1,0,0,rectangle,6,7,1,0,0,6,7,1,0,0,0,5,5,0,1,,,,,,,,
,,,,,,,,,,,,,FF,,,,,,,,2.398,,,,,,,,,,,,,,,,,,,,,,60f8fb8d2c5a8b523880f6ae,610375b6638a24927edab617,2021-07-29_23h57.38.282,Simcolourproject_2stim_asymm_v5,2020.2.10,Win32,60,61025ae37ef11b136ea224fe,,,,,,,,,3658,-37,-67,1,0,0,response5disk,,3,-2,-5,1,0,0,rectangle,-2,-5,1,0,0,-2,-5,1,0,0,0,6,6,139,1,,,,,,,,
,,,,,,,,,,,,,FF,,,,,,,,1.748,,,,,,,,,,,,,,,,,,,,,,60f8fb8d2c5a8b523880f6ae,610375b6638a24927edab617,2021-07-29_23h57.38.282,Simcolourproject_2stim_asymm_v5,2020.2.10,Win32,60,61025ae37ef11b136ea224fe,,,,,,,,,2474,74,-25,1,0,0,response3disk,,5,9,12,1,0,0,rectangle,9,12,1,0,0,9,12,1,0,0,0,7,7,13,1,,,,,,,,
,,,,,,,,,,,,,FF,,,,,,,,1.7,,,,,,,,,,,,,,,,,,,,,,60f8fb8d2c5a8b523880f6ae,610375b6638a24927edab617,2021-07-29_23h57.38.282,Simcolourproject_2stim_asymm_v5,2020.2.10,Win32,60,61025ae37ef11b136ea224fe,,,,,,,,,1630,43,-70,1,0,0,response3disk,,4,1,-3,1,0,0,rectangle,1,-3,1,0,0,1,-3,1,0,0,0,8,8,103,1,,,,,,,,
,,,,,,,,,,,,,FF,,,,,,,,1.934,,,,,,,,,,,,,,,,,,,,,,60f8fb8d2c5a8b523880f6ae,610375b6638a24927edab617,2021-07-29_23h57.38.282,Simcolourproject_2stim_asymm_v5,2020.2.10,Win32,60,61025ae37ef11b136ea224fe,,,,,,,,,1171,75,-43,1,0,0,response3disk,,5,10,-6,1,0,0,rectangle,10,-6,1,0,0,10,-6,1,0,0,0,9,9,63,1,,,,,,,,
,,,,,,,,,,,,,FF,,,,,,,,1.765,,,,,,,,,,,,,,,,,,,,,,60f8fb8d2c5a8b523880f6ae,610375b6638a24927edab617,2021-07-29_23h57.38.282,Simcolourproject_2stim_asymm_v5,2020.2.10,Win32,60,61025ae37ef11b136ea224fe,,,,,,,,,245,72,-40,1,0,0,response3disk,,5,5,-9,1,0,0,rectangle,5,-9,1,0,0,5,-9,1,0,0,0,10,10,97,1,,,,,,,,
,,,,,,,,,,,,,FF,,,,,,,,1.44,,,,,,,,,,,,,,,,,,,,,,60f8fb8d2c5a8b523880f6ae,610375b6638a24927edab617,2021-07-29_23h57.38.282,Simcolourproject_2stim_asymm_v5,2020.2.10,Win32,60,61025ae37ef11b136ea224fe,,,,,,,,,3907,-41,-75,1,0,0,response5disk,,3,-2,2,1,0,0,rectangle,-2,2,1,0,0,-2,2,1,0,0,0,11,11,24,1,,,,,,,,
,,,,,,,,,,,,,FF,,,,,,,,2.501,,,,,,,,,,,,,,,,,,,,,,60f8fb8d2c5a8b523880f6ae,610375b6638a24927edab617,2021-07-29_23h57.38.282,Simcolourproject_2stim_asymm_v5,2020.2.10,Win32,60,61025ae37ef11b136ea224fe,,,,,,,,,2941,-38,71,1,0,0,response7disk,,0,-15,-7,1,0,0,rectangle,-15,-7,1,0,0,-15,-7,1,0,0,0,12,12,121,1,,,,,,,,
,,,,,,,,,,,,,FF,,,,,,,,1.433,,,,,,,,,,,,,,,,,,,,,,60f8fb8d2c5a8b523880f6ae,610375b6638a24927edab617,2021-07-29_23h57.38.282,Simcolourproject_2stim_asymm_v5,2020.2.10,Win32,60,61025ae37ef11b136ea224fe,,,,,,,,,3997,-26,-84,1,0,0,response5disk,,3,-9,7,1,0,0,rectangle,-9,7,1,0,0,-9,7,1,0,0,0,13,13,155,1,,,,,,,,
,,,,,,,,,,,,,FF,,,,,,,,1.218,,,,,,,,,,,,,,,,,,,,,,60f8fb8d2c5a8b523880f6ae,610375b6638a24927edab617,2021-07-29_23h57.38.282,Simcolourproject_2stim_asymm_v5,2020.2.10,Win32,60,61025ae37ef11b136ea224fe,,,,,,,,,1391,38,-67,1,0,0,response3disk,,4,-2,9,1,0,0,rectangle,-2,9,1,0,0,-2,9,1,0,0,0,14,14,152,1,,,,,,,,
,,,,,,,,,,,,,FF,,,,,,,,1.434,,,,,,,,,,,,,,,,,,,,,,60f8fb8d2c5a8b523880f6ae,610375b6638a24927edab617,2021-07-29_23h57.38.282,Simcolourproject_2stim_asymm_v5,2020.2.10,Win32,60,61025ae37ef11b136ea224fe,,,,,,,,,623,83,-24,1,0,0,response3disk,,5,5,5,1,0,0,rectangle,5,5,1,0,0,5,5,1,0,0,0,15,15,48,1,,,,,,,,
,,,,,,,,,,,,,FF,,,,,,,,1.918,,,,,,,,,,,,,,,,,,,,,,60f8fb8d2c5a8b523880f6ae,610375b6638a24927edab617,2021-07-29_23h57.38.282,Simcolourproject_2stim_asymm_v5,2020.2.10,Win32,60,61025ae37ef11b136ea224fe,,,,,,,,,2263,59,25,1,0,0,response1disk,,6,-4,-2,1,0,0,rectangle,-4,-2,1,0,0,-4,-2,1,0,0,0,16,16,14,1,,,,,,,,
,,,,,,,,,,,,,FF,,,,,,,,4.467,,,,,,,,,,,,,,,,,,,,,,60f8fb8d2c5a8b523880f6ae,610375b6638a24927edab617,2021-07-29_23h57.38.282,Simcolourproject_2stim_asymm_v5,2020.2.10,Win32,60,61025ae37ef11b136ea224fe,,,,,,,,,4005,25,-54,1,0,0,response3disk,,4,6,2,1,0,0,rectangle,6,2,1,0,0,6,2,1,0,0,0,17,17,144,1,,,,,,,,
,,,,,,,,,,,,,FF,,,,,,,,2.379,,,,,,,,,,,,,,,,,,,,,,60f8fb8d2c5a8b523880f6ae,610375b6638a24927edab617,2021-07-29_23h57.38.282,Simcolourproject_2stim_asymm_v5,2020.2.10,Win32,60,61025ae37ef11b136ea224fe,,,,,,,,,3790,30,-67,1,0,0,response3disk,,4,2,-9,1,0,0,rectangle,2,-9,1,0,0,2,-9,1,0,0,0,18,18,77,1,,,,,,,,
,,,,,,,,,,,,,FF,,,,,,,,2.363,,,,,,,,,,,,,,,,,,,,,,60f8fb8d2c5a8b523880f6ae,610375b6638a24927edab617,2021-07-29_23h57.38.282,Simcolourproject_2stim_asymm_v5,2020.2.10,Win32,60,61025ae37ef11b136ea224fe,,,,,,,,,2680,37,-82,1,0,0,response3disk,,4,14,1,1,0,0,rectangle,14,1,1,0,0,14,1,1,0,0,0,19,19,26,1,,,,,,,,
,,,,,,,,,,,,,FF,,,,,,,,1.6,,,,,,,,,,,,,,,,,,,,,,60f8fb8d2c5a8b523880f6ae,610375b6638a24927edab617,2021-07-29_23h57.38.282,Simcolourproject_2stim_asymm_v5,2020.2.10,Win32,60,61025ae37ef11b136ea224fe,,,,,,,,,3938,-80,-32,1,0,0,response5disk,,2,-8,3,1,0,0,rectangle,-8,3,1,0,0,-8,3,1,0,0,0,20,20,88,1,,,,,,,,
,,,,,,,,,,,,,FF,,,,,,,,1.85,,,,,,,,,,,,,,,,,,,,,,60f8fb8d2c5a8b523880f6ae,610375b6638a24927edab617,2021-07-29_23h57.38.282,Simcolourproject_2stim_asymm_v5,2020.2.10,Win32,60,61025ae37ef11b136ea224fe,,,,,,,,,4136,89,-40,1,0,0,response3disk,,5,17,4,1,0,0,rectangle,17,4,1,0,0,17,4,1,0,0,0,21,21,112,1,,,,,,,,
,,,,,,,,,,,,,FF,,,,,,,,1.673,,,,,,,,,,,,,,,,,,,,,,60f8fb8d2c5a8b523880f6ae,610375b6638a24927edab617,2021-07-29_23h57.38.282,Simcolourproject_2stim_asymm_v5,2020.2.10,Win32,60,61025ae37ef11b136ea224fe,,,,,,,,,3913,-74,39,1,0,0,response7disk,,1,-18,4,1,0,0,rectangle,83,-46,1,0,0,8,-3,1,0,0,0,22,22,41,1,,response3disk_3,TRUE,5,5,"[187,5,257,116,180,234,2,122,321,308,28,306,214,46,58,258,302,198,224,23]",2.748,rectangle
,,,,,,,,,,,,,FF,,,,,,,,2.133,,,,,,,,,,,,,,,,,,,,,,60f8fb8d2c5a8b523880f6ae,610375b6638a24927edab617,2021-07-29_23h57.38.282,Simcolourproject_2stim_asymm_v5,2020.2.10,Win32,60,61025ae37ef11b136ea224fe,,,,,,,,,3871,69,-36,1,0,0,response3disk,,5,9,0,1,0,0,rectangle,9,0,1,0,0,9,0,1,0,0,0,23,23,91,1,,,,,,,,
,,,,,,,,,,,,,FF,,,,,,,,1.135,,,,,,,,,,,,,,,,,,,,,,60f8fb8d2c5a8b523880f6ae,610375b6638a24927edab617,2021-07-29_23h57.38.282,Simcolourproject_2stim_asymm_v5,2020.2.10,Win32,60,61025ae37ef11b136ea224fe,,,,,,,,,2141,61,-25,1,0,0,response3disk,,5,17,-5,1,0,0,rectangle,17,-5,1,0,0,17,-5,1,0,0,0,24,24,83,1,,,,,,,,
,,,,,,,,,,,,,FF,,,,,,,,1.333,,,,,,,,,,,,,,,,,,,,,,60f8fb8d2c5a8b523880f6ae,610375b6638a24927edab617,2021-07-29_23h57.38.282,Simcolourproject_2stim_asymm_v5,2020.2.10,Win32,60,61025ae37ef11b136ea224fe,,,,,,,,,1841,52,-34,1,0,0,response3disk,,5,-12,-2,1,0,0,rectangle,-12,-2,1,0,0,-12,-2,1,0,0,0,25,25,129,1,,,,,,,,
,,,,,,,,,,,,,FF,,,,,,,,1.568,,,,,,,,,,,,,,,,,,,,,,60f8fb8d2c5a8b523880f6ae,610375b6638a24927edab617,2021-07-29_23h57.38.282,Simcolourproject_2stim_asymm_v5,2020.2.10,Win32,60,61025ae37ef11b136ea224fe,,,,,,,,,1634,65,33,1,0,0,response1disk,,6,23,5,1,0,0,rectangle,23,5,1,0,0,23,5,1,0,0,0,26,26,10,1,,,,,,,,
,,,,,,,,,,,,,FF,,,,,,,,1.317,,,,,,,,,,,,,,,,,,,,,,60f8fb8d2c5a8b523880f6ae,610375b6638a24927edab617,2021-07-29_23h57.38.282,Simcolourproject_2stim_asymm_v5,2020.2.10,Win32,60,61025ae37ef11b136ea224fe,,,,,,,,,1123,37,71,1,0,0,response1disk,,7,10,-1,1,0,0,rectangle,29,65,1,0,0,6,3,1,0,0,0,27,27,107,1,,response1disk_3,TRUE,7,7,"[187,5,257,116,180,234,2,122,321,308,28,306,214,46,58,258,302,198,224,23]",1.683,rectangle
,,,,,,,,,,,,,FF,,,,,,,,1.317,,,,,,,,,,,,,,,,,,,,,,60f8fb8d2c5a8b523880f6ae,610375b6638a24927edab617,2021-07-29_23h57.38.282,Simcolourproject_2stim_asymm_v5,2020.2.10,Win32,60,61025ae37ef11b136ea224fe,,,,,,,,,1833,-35,-62,1,0,0,response5disk,,3,-11,-3,1,0,0,rectangle,-11,-3,1,0,0,-11,-3,1,0,0,0,28,28,23,1,,,,,,,,
,,,,,,,,,,,,,FF,,,,,,,,1.208,,,,,,,,,,,,,,,,,,,,,,60f8fb8d2c5a8b523880f6ae,610375b6638a24927edab617,2021-07-29_23h57.38.282,Simcolourproject_2stim_asymm_v5,2020.2.10,Win32,60,61025ae37ef11b136ea224fe,,,,,,,,,1668,-66,-33,1,0,0,response5disk,,2,18,-3,1,0,0,rectangle,18,-3,1,0,0,18,-3,1,0,0,0,29,29,18,1,,,,,,,,
,,,,,,,,,,,,,FF,,,,,,,,1.331,,,,,,,,,,,,,,,,,,,,,,60f8fb8d2c5a8b523880f6ae,610375b6638a24927edab617,2021-07-29_23h57.38.282,Simcolourproject_2stim_asymm_v5,2020.2.10,Win32,60,61025ae37ef11b136ea224fe,,,,,,,,,1631,50,-68,1,0,0,response3disk,,4,-1,1,1,0,0,rectangle,-1,1,1,0,0,-1,1,1,0,0,0,30,30,3,1,,,,,,,,
,,,,,,,,,,,,,FF,,,,,,,,1.118,,,,,,,,,,,,,,,,,,,,,,60f8fb8d2c5a8b523880f6ae,610375b6638a24927edab617,2021-07-29_23h57.38.282,Simcolourproject_2stim_asymm_v5,2020.2.10,Win32,60,61025ae37ef11b136ea224fe,,,,,,,,,3739,61,-25,1,0,0,response3disk,,5,5,-1,1,0,0,rectangle,5,-1,1,0,0,5,-1,1,0,0,0,31,31,124,1,,,,,,,,
,,,,,,,,,,,,,FF,,,,,,,,1.315,,,,,,,,,,,,,,,,,,,,,,60f8fb8d2c5a8b523880f6ae,610375b6638a24927edab617,2021-07-29_23h57.38.282,Simcolourproject_2stim_asymm_v5,2020.2.10,Win32,60,61025ae37ef11b136ea224fe,,,,,,,,,2163,-79,-37,1,0,0,response5disk,,2,-19,-7,1,0,0,rectangle,-19,-7,1,0,0,-19,-7,1,0,0,0,32,32,50,1,,,,,,,,
,,,,,,,,,,,,,FF,,,,,,,,1.448,,,,,,,,,,,,,,,,,,,,,,60f8fb8d2c5a8b523880f6ae,610375b6638a24927edab617,2021-07-29_23h57.38.282,Simcolourproject_2stim_asymm_v5,2020.2.10,Win32,60,61025ae37ef11b136ea224fe,,,,,,,,,3719,32,-70,1,0,0,response3disk,,4,3,-9,1,0,0,rectangle,3,-9,1,0,0,3,-9,1,0,0,0,33,33,143,1,,,,,,,,
,,,,,,,,,,,,,FF,,,,,,,,1.785,,,,,,,,,,,,,,,,,,,,,,60f8fb8d2c5a8b523880f6ae,610375b6638a24927edab617,2021-07-29_23h57.38.282,Simcolourproject_2stim_asymm_v5,2020.2.10,Win32,60,61025ae37ef11b136ea224fe,,,,,,,,,2505,74,-21,1,0,0,response3disk,,5,8,-3,1,0,0,rectangle,8,-3,1,0,0,8,-3,1,0,0,0,34,34,96,1,,,,,,,,
,,,,,,,,,,,,,FF,,,,,,,,1.217,,,,,,,,,,,,,,,,,,,,,,60f8fb8d2c5a8b523880f6ae,610375b6638a24927edab617,2021-07-29_23h57.38.282,Simcolourproject_2stim_asymm_v5,2020.2.10,Win32,60,61025ae37ef11b136ea224fe,,,,,,,,,2136,59,-27,1,0,0,response3disk,,5,9,-4,1,0,0,rectangle,9,-4,1,0,0,9,-4,1,0,0,0,35,35,16,1,,,,,,,,
,,,,,,,,,,,,,FF,,,,,,,,1.866,,,,,,,,,,,,,,,,,,,,,,60f8fb8d2c5a8b523880f6ae,610375b6638a24927edab617,2021-07-29_23h57.38.282,Simcolourproject_2stim_asymm_v5,2020.2.10,Win32,60,61025ae37ef11b136ea224fe,,,,,,,,,2347,70,27,1,0,0,response1disk,,6,-28,9,1,0,0,rectangle,-28,9,1,0,0,-28,9,1,0,0,0,36,36,74,1,,,,,,,,
,,,,,,,,,,,,,FF,,,,,,,,1.249,,,,,,,,,,,,,,,,,,,,,,60f8fb8d2c5a8b523880f6ae,610375b6638a24927edab617,2021-07-29_23h57.38.282,Simcolourproject_2stim_asymm_v5,2020.2.10,Win32,60,61025ae37ef11b136ea224fe,,,,,,,,,685,53,29,1,0,0,response1disk,,6,10,5,1,0,0,rectangle,10,5,1,0,0,10,5,1,0,0,0,37,37,138,1,,,,,,,,
,,,,,,,,,,,,,FF,,,,,,,,2.082,,,,,,,,,,,,,,,,,,,,,,60f8fb8d2c5a8b523880f6ae,610375b6638a24927edab617,2021-07-29_23h57.38.282,Simcolourproject_2stim_asymm_v5,2020.2.10,Win32,60,61025ae37ef11b136ea224fe,,,,,,,,,885,-77,46,1,0,0,response7disk,,1,-7,2,1,0,0,rectangle,-7,2,1,0,0,-7,2,1,0,0,0,38,38,151,1,,,,,,,,
,,,,,,,,,,,,,FF,,,,,,,,1.709,,,,,,,,,,,,,,,,,,,,,,60f8fb8d2c5a8b523880f6ae,610375b6638a24927edab617,2021-07-29_23h57.38.282,Simcolourproject_2stim_asymm_v5,2020.2.10,Win32,60,61025ae37ef11b136ea224fe,,,,,,,,,1200,39,-68,1,0,0,response3disk,,4,-2,10,1,0,0,rectangle,-2,10,1,0,0,-2,10,1,0,0,0,39,39,46,1,,,,,,,,
,,,,,,,,,,,,,FF,,,,,,,,1.283,,,,,,,,,,,,,,,,,,,,,,60f8fb8d2c5a8b523880f6ae,610375b6638a24927edab617,2021-07-29_23h57.38.282,Simcolourproject_2stim_asymm_v5,2020.2.10,Win32,60,61025ae37ef11b136ea224fe,,,,,,,,,688,69,-22,1,0,0,response3disk,,5,10,-3,1,0,0,rectangle,10,-3,1,0,0,10,-3,1,0,0,0,40,40,20,1,,,,,,,,
,,,,,,,,,,,,,FF,,,,,,,,1.017,,,,,,,,,,,,,,,,,,,,,,60f8fb8d2c5a8b523880f6ae,610375b6638a24927edab617,2021-07-29_23h57.38.282,Simcolourproject_2stim_asymm_v5,2020.2.10,Win32,60,61025ae37ef11b136ea224fe,,,,,,,,,781,65,24,1,0,0,response1disk,,6,19,1,1,0,0,rectangle,19,1,1,0,0,19,1,1,0,0,0,41,41,73,1,,,,,,,,
,,,,,,,,,,,,,FF,,,,,,,,1.715,,,,,,,,,,,,,,,,,,,,,,60f8fb8d2c5a8b523880f6ae,610375b6638a24927edab617,2021-07-29_23h57.38.282,Simcolourproject_2stim_asymm_v5,2020.2.10,Win32,60,61025ae37ef11b136ea224fe,,,,,,,,,1233,-22,-48,1,0,0,response5disk,,3,-6,6,1,0,0,rectangle,-6,6,1,0,0,-6,6,1,0,0,0,42,42,114,1,,,,,,,,
,,,,,,,,,,,,,FF,,,,,,,,2.95,,,,,,,,,,,,,,,,,,,,,,60f8fb8d2c5a8b523880f6ae,610375b6638a24927edab617,2021-07-29_23h57.38.282,Simcolourproject_2stim_asymm_v5,2020.2.10,Win32,60,61025ae37ef11b136ea224fe,,,,,,,,,175,-36,-73,1,0,0,response5disk,,3,-11,2,1,0,0,rectangle,-11,2,1,0,0,-11,2,1,0,0,0,43,43,135,1,,,,,,,,
,,,,,,,,,,,,,FF,,,,,,,,1.9,,,,,,,,,,,,,,,,,,,,,,60f8fb8d2c5a8b523880f6ae,610375b6638a24927edab617,2021-07-29_23h57.38.282,Simcolourproject_2stim_asymm_v5,2020.2.10,Win32,60,61025ae37ef11b136ea224fe,,,,,,,,,166,-47,-69,1,0,0,response5disk,,3,-15,-8,1,0,0,rectangle,-15,-8,1,0,0,-15,-8,1,0,0,0,44,44,156,1,,,,,,,,
,,,,,,,,,,,,,FF,,,,,,,,1.184,,,,,,,,,,,,,,,,,,,,,,60f8fb8d2c5a8b523880f6ae,610375b6638a24927edab617,2021-07-29_23h57.38.282,Simcolourproject_2stim_asymm_v5,2020.2.10,Win32,60,61025ae37ef11b136ea224fe,,,,,,,,,3892,40,-67,1,0,0,response3disk,,4,-10,9,1,0,0,rectangle,-74,-39,1,0,0,-5,4,1,0,0,0,45,45,27,1,,response5disk_3,TRUE,2,2,"[187,5,257,116,180,234,2,122,321,308,28,306,214,46,58,258,302,198,224,23]",2.318,rectangle
,,,,,,,,,,,,,FF,,,,,,,,1.25,,,,,,,,,,,,,,,,,,,,,,60f8fb8d2c5a8b523880f6ae,610375b6638a24927edab617,2021-07-29_23h57.38.282,Simcolourproject_2stim_asymm_v5,2020.2.10,Win32,60,61025ae37ef11b136ea224fe,,,,,,,,,1485,25,-72,1,0,0,response3disk,,4,3,-4,1,0,0,rectangle,3,-4,1,0,0,3,-4,1,0,0,0,46,46,32,1,,,,,,,,
,,,,,,,,,,,,,FF,,,,,,,,2.033,,,,,,,,,,,,,,,,,,,,,,60f8fb8d2c5a8b523880f6ae,610375b6638a24927edab617,2021-07-29_23h57.38.282,Simcolourproject_2stim_asymm_v5,2020.2.10,Win32,60,61025ae37ef11b136ea224fe,,,,,,,,,3253,55,-55,1,0,0,response3disk,,5,6,0,1,0,0,rectangle,6,0,1,0,0,6,0,1,0,0,0,47,47,5,1,,,,,,,,
,,,,,,,,,,,,,FF,,,,,,,,1.734,,,,,,,,,,,,,,,,,,,,,,60f8fb8d2c5a8b523880f6ae,610375b6638a24927edab617,2021-07-29_23h57.38.282,Simcolourproject_2stim_asymm_v5,2020.2.10,Win32,60,61025ae37ef11b136ea224fe,,,,,,,,,1705,-22,-68,1,0,0,response5disk,,3,5,-3,1,0,0,rectangle,5,-3,1,0,0,5,-3,1,0,0,0,48,48,35,1,,,,,,,,
,,,,,,,,,,,,,FF,,,,,,,,1.866,,,,,,,,,,,,,,,,,,,,,,60f8fb8d2c5a8b523880f6ae,610375b6638a24927edab617,2021-07-29_23h57.38.282,Simcolourproject_2stim_asymm_v5,2020.2.10,Win32,60,61025ae37ef11b136ea224fe,,,,,,,,,3463,-45,-82,1,0,0,response5disk,,3,-8,0,1,0,0,rectangle,-8,0,1,0,0,-8,0,1,0,0,0,49,49,84,1,,,,,,,,
,,,,,,,,,,,,,FF,,,,,,,,1.535,,,,,,,,,,,,,,,,,,,,,,60f8fb8d2c5a8b523880f6ae,610375b6638a24927edab617,2021-07-29_23h57.38.282,Simcolourproject_2stim_asymm_v5,2020.2.10,Win32,60,61025ae37ef11b136ea224fe,,,,,,,,,2147,80,-41,1,0,0,response3disk,,5,8,-4,1,0,0,rectangle,8,-4,1,0,0,8,-4,1,0,0,0,50,50,42,1,,,,,,,,
,,,,,,,,,,,,,FF,,,,,,,,1.299,,,,,,,,,,,,,,,,,,,,,,60f8fb8d2c5a8b523880f6ae,610375b6638a24927edab617,2021-07-29_23h57.38.282,Simcolourproject_2stim_asymm_v5,2020.2.10,Win32,60,61025ae37ef11b136ea224fe,,,,,,,,,82,34,-64,1,0,0,response3disk,,4,7,-3,1,0,0,rectangle,7,-3,1,0,0,7,-3,1,0,0,0,51,51,93,1,,,,,,,,
,,,,,,,,,,,,,FF,,,,,,,,2.414,,,,,,,,,,,,,,,,,,,,,,60f8fb8d2c5a8b523880f6ae,610375b6638a24927edab617,2021-07-29_23h57.38.282,Simcolourproject_2stim_asymm_v5,2020.2.10,Win32,60,61025ae37ef11b136ea224fe,,,,,,,,,3131,69,25,1,0,0,response1disk,,6,17,-2,1,0,0,rectangle,17,-2,1,0,0,17,-2,1,0,0,0,52,52,131,1,,,,,,,,
,,,,,,,,,,,,,FF,,,,,,,,1.634,,,,,,,,,,,,,,,,,,,,,,60f8fb8d2c5a8b523880f6ae,610375b6638a24927edab617,2021-07-29_23h57.38.282,Simcolourproject_2stim_asymm_v5,2020.2.10,Win32,60,61025ae37ef11b136ea224fe,,,,,,,,,3153,-78,-55,1,0,0,response5disk,,2,-8,3,1,0,0,rectangle,-8,3,1,0,0,-8,3,1,0,0,0,53,53,140,1,,,,,,,,
,,,,,,,,,,,,,FF,,,,,,,,1.683,,,,,,,,,,,,,,,,,,,,,,60f8fb8d2c5a8b523880f6ae,610375b6638a24927edab617,2021-07-29_23h57.38.282,Simcolourproject_2stim_asymm_v5,2020.2.10,Win32,60,61025ae37ef11b136ea224fe,,,,,,,,,3740,46,-63,1,0,0,response3disk,,4,7,-3,1,0,0,rectangle,7,-3,1,0,0,7,-3,1,0,0,0,54,54,132,1,,,,,,,,
,,,,,,,,,,,,,FF,,,,,,,,1.351,,,,,,,,,,,,,,,,,,,,,,60f8fb8d2c5a8b523880f6ae,610375b6638a24927edab617,2021-07-29_23h57.38.282,Simcolourproject_2stim_asymm_v5,2020.2.10,Win32,60,61025ae37ef11b136ea224fe,,,,,,,,,3851,-50,-78,1,0,0,response5disk,,3,-2,8,1,0,0,rectangle,-2,8,1,0,0,-2,8,1,0,0,0,55,55,90,1,,,,,,,,
,,,,,,,,,,,,,FF,,,,,,,,1.417,,,,,,,,,,,,,,,,,,,,,,60f8fb8d2c5a8b523880f6ae,610375b6638a24927edab617,2021-07-29_23h57.38.282,Simcolourproject_2stim_asymm_v5,2020.2.10,Win32,60,61025ae37ef11b136ea224fe,,,,,,,,,3064,61,-45,1,0,0,response3disk,,5,-4,-5,1,0,0,rectangle,-4,-5,1,0,0,-4,-5,1,0,0,0,56,56,64,1,,,,,,,,
,,,,,,,,,,,,,FF,,,,,,,,1.774,,,,,,,,,,,,,,,,,,,,,,60f8fb8d2c5a8b523880f6ae,610375b6638a24927edab617,2021-07-29_23h57.38.282,Simcolourproject_2stim_asymm_v5,2020.2.10,Win32,60,61025ae37ef11b136ea224fe,,,,,,,,,10,55,25,1,0,0,response1disk,,6,-7,0,1,0,0,rectangle,71,33,1,0,0,2,-8,1,0,0,0,57,57,52,1,,response1disk_3,TRUE,6,6,"[187,5,257,116,180,234,2,122,321,308,28,306,214,46,58,258,302,198,224,23]",2.099,rectangle
,,,,,,,,,,,,,FF,,,,,,,,1.217,,,,,,,,,,,,,,,,,,,,,,60f8fb8d2c5a8b523880f6ae,610375b6638a24927edab617,2021-07-29_23h57.38.282,Simcolourproject_2stim_asymm_v5,2020.2.10,Win32,60,61025ae37ef11b136ea224fe,,,,,,,,,939,63,37,1,0,0,response1disk,,6,10,2,1,0,0,rectangle,10,2,1,0,0,10,2,1,0,0,0,58,58,154,1,,,,,,,,
,,,,,,,,,,,,,FF,,,,,,,,1.817,,,,,,,,,,,,,,,,,,,,,,60f8fb8d2c5a8b523880f6ae,610375b6638a24927edab617,2021-07-29_23h57.38.282,Simcolourproject_2stim_asymm_v5,2020.2.10,Win32,60,61025ae37ef11b136ea224fe,,,,,,,,,1234,-43,-80,1,0,0,response5disk,,3,-14,-4,1,0,0,rectangle,-14,-4,1,0,0,-14,-4,1,0,0,0,59,59,36,1,,,,,,,,
,,,,,,,,,,,,,FF,,,,,,,,1.149,,,,,,,,,,,,,,,,,,,,,,60f8fb8d2c5a8b523880f6ae,610375b6638a24927edab617,2021-07-29_23h57.38.282,Simcolourproject_2stim_asymm_v5,2020.2.10,Win32,60,61025ae37ef11b136ea224fe,,,,,,,,,3279,74,-34,1,0,0,response3disk,,5,-5,3,1,0,0,rectangle,-5,3,1,0,0,-5,3,1,0,0,0,60,60,157,1,,,,,,,,
,,,,,,,,,,,,,FF,,,,,,,,1.766,,,,,,,,,,,,,,,,,,,,,,60f8fb8d2c5a8b523880f6ae,610375b6638a24927edab617,2021-07-29_23h57.38.282,Simcolourproject_2stim_asymm_v5,2020.2.10,Win32,60,61025ae37ef11b136ea224fe,,,,,,,,,2634,74,-42,1,0,0,response3disk,,5,14,14,1,0,0,rectangle,14,14,1,0,0,14,14,1,0,0,0,61,61,133,1,,,,,,,,
,,,,,,,,,,,,,FF,,,,,,,,1.334,,,,,,,,,,,,,,,,,,,,,,60f8fb8d2c5a8b523880f6ae,610375b6638a24927edab617,2021-07-29_23h57.38.282,Simcolourproject_2stim_asymm_v5,2020.2.10,Win32,60,61025ae37ef11b136ea224fe,,,,,,,,,1149,101,-45,1,0,0,response3disk,,5,7,5,1,0,0,rectangle,7,5,1,0,0,7,5,1,0,0,0,62,62,15,1,,,,,,,,
,,,,,,,,,,,,,FF,,,,,,,,3.217,,,,,,,,,,,,,,,,,,,,,,60f8fb8d2c5a8b523880f6ae,610375b6638a24927edab617,2021-07-29_23h57.38.282,Simcolourproject_2stim_asymm_v5,2020.2.10,Win32,60,61025ae37ef11b136ea224fe,,,,,,,,,1127,71,-30,1,0,0,response3disk,,5,-8,5,1,0,0,rectangle,-8,5,1,0,0,-8,5,1,0,0,0,63,63,66,1,,,,,,,,
,,,,,,,,,,,,,FF,,,,,,,,1.499,,,,,,,,,,,,,,,,,,,,,,60f8fb8d2c5a8b523880f6ae,610375b6638a24927edab617,2021-07-29_23h57.38.282,Simcolourproject_2stim_asymm_v5,2020.2.10,Win32,60,61025ae37ef11b136ea224fe,,,,,,,,,2304,42,-86,1,0,0,response3disk,,4,-5,5,1,0,0,rectangle,-5,5,1,0,0,-5,5,1,0,0,0,64,64,8,1,,,,,,,,
,,,,,,,,,,,,,FF,,,,,,,,1.351,,,,,,,,,,,,,,,,,,,,,,60f8fb8d2c5a8b523880f6ae,610375b6638a24927edab617,2021-07-29_23h57.38.282,Simcolourproject_2stim_asymm_v5,2020.2.10,Win32,60,61025ae37ef11b136ea224fe,,,,,,,,,1228,-40,-65,1,0,0,response5disk,,3,-16,-9,1,0,0,rectangle,-16,-9,1,0,0,-16,-9,1,0,0,0,65,65,102,1,,,,,,,,
,,,,,,,,,,,,,FF,,,,,,,,1.251,,,,,,,,,,,,,,,,,,,,,,60f8fb8d2c5a8b523880f6ae,610375b6638a24927edab617,2021-07-29_23h57.38.282,Simcolourproject_2stim_asymm_v5,2020.2.10,Win32,60,61025ae37ef11b136ea224fe,,,,,,,,,69,90,39,1,0,0,response1disk,,6,-3,-5,1,0,0,rectangle,-3,-5,1,0,0,-3,-5,1,0,0,0,66,66,117,1,,,,,,,,
,,,,,,,,,,,,,FF,,,,,,,,0.967,,,,,,,,,,,,,,,,,,,,,,60f8fb8d2c5a8b523880f6ae,610375b6638a24927edab617,2021-07-29_23h57.38.282,Simcolourproject_2stim_asymm_v5,2020.2.10,Win32,60,61025ae37ef11b136ea224fe,,,,,,,,,524,25,63,1,0,0,response1disk,,7,-7,1,1,0,0,rectangle,-7,1,1,0,0,-7,1,1,0,0,0,67,67,75,1,,,,,,,,
,,,,,,,,,,,,,FF,,,,,,,,1.266,,,,,,,,,,,,,,,,,,,,,,60f8fb8d2c5a8b523880f6ae,610375b6638a24927edab617,2021-07-29_23h57.38.282,Simcolourproject_2stim_asymm_v5,2020.2.10,Win32,60,61025ae37ef11b136ea224fe,,,,,,,,,1172,78,36,1,0,0,response1disk,,6,-21,-4,1,0,0,rectangle,-21,-4,1,0,0,-21,-4,1,0,0,0,68,68,120,1,,,,,,,,
,,,,,,,,,,,,,FF,,,,,,,,1.5,,,,,,,,,,,,,,,,,,,,,,60f8fb8d2c5a8b523880f6ae,610375b6638a24927edab617,2021-07-29_23h57.38.282,Simcolourproject_2stim_asymm_v5,2020.2.10,Win32,60,61025ae37ef11b136ea224fe,,,,,,,,,1979,55,-68,1,0,0,response3disk,,4,0,-5,1,0,0,rectangle,0,-5,1,0,0,0,-5,1,0,0,0,69,69,69,1,,,,,,,,
,,,,,,,,,,,,,FF,,,,,,,,1.883,,,,,,,,,,,,,,,,,,,,,,60f8fb8d2c5a8b523880f6ae,610375b6638a24927edab617,2021-07-29_23h57.38.282,Simcolourproject_2stim_asymm_v5,2020.2.10,Win32,60,61025ae37ef11b136ea224fe,,,,,,,,,543,-83,27,1,0,0,response7disk,,1,-6,-1,1,0,0,rectangle,-6,-1,1,0,0,-6,-1,1,0,0,0,70,70,33,1,,,,,,,,
,,,,,,,,,,,,,FF,,,,,,,,1.767,,,,,,,,,,,,,,,,,,,,,,60f8fb8d2c5a8b523880f6ae,610375b6638a24927edab617,2021-07-29_23h57.38.282,Simcolourproject_2stim_asymm_v5,2020.2.10,Win32,60,61025ae37ef11b136ea224fe,,,,,,,,,3587,81,25,1,0,0,response1disk,,6,31,5,1,0,0,rectangle,31,5,1,0,0,31,5,1,0,0,0,71,71,76,1,,,,,,,,
,,,,,,,,,,,,,FF,,,,,,,,1.417,,,,,,,,,,,,,,,,,,,,,,60f8fb8d2c5a8b523880f6ae,610375b6638a24927edab617,2021-07-29_23h57.38.282,Simcolourproject_2stim_asymm_v5,2020.2.10,Win32,60,61025ae37ef11b136ea224fe,,,,,,,,,2332,42,38,1,0,0,response1disk,,6,7,1,1,0,0,rectangle,7,1,1,0,0,7,1,1,0,0,0,72,72,21,1,,,,,,,,
,,,,,,,,,,,,,FF,,,,,,,,1.183,,,,,,,,,,,,,,,,,,,,,,60f8fb8d2c5a8b523880f6ae,610375b6638a24927edab617,2021-07-29_23h57.38.282,Simcolourproject_2stim_asymm_v5,2020.2.10,Win32,60,61025ae37ef11b136ea224fe,,,,,,,,,4083,34,59,1,0,0,response1disk,,7,2,8,1,0,0,rectangle,2,8,1,0,0,2,8,1,0,0,0,73,73,2,1,,,,,,,,
,,,,,,,,,,,,,FF,,,,,,,,0.95,,,,,,,,,,,,,,,,,,,,,,60f8fb8d2c5a8b523880f6ae,610375b6638a24927edab617,2021-07-29_23h57.38.282,Simcolourproject_2stim_asymm_v5,2020.2.10,Win32,60,61025ae37ef11b136ea224fe,,,,,,,,,2864,32,53,1,0,0,response1disk,,7,11,8,1,0,0,rectangle,11,8,1,0,0,11,8,1,0,0,0,74,74,59,1,,,,,,,,
,,,,,,,,,,,,,FF,,,,,,,,0.867,,,,,,,,,,,,,,,,,,,,,,60f8fb8d2c5a8b523880f6ae,610375b6638a24927edab617,2021-07-29_23h57.38.282,Simcolourproject_2stim_asymm_v5,2020.2.10,Win32,60,61025ae37ef11b136ea224fe,,,,,,,,,1938,30,74,1,0,0,response1disk,,7,3,-5,1,0,0,rectangle,3,-5,1,0,0,3,-5,1,0,0,0,75,75,17,1,,,,,,,,
,,,,,,,,,,,,,FF,,,,,,,,0.984,,,,,,,,,,,,,,,,,,,,,,60f8fb8d2c5a8b523880f6ae,610375b6638a24927edab617,2021-07-29_23h57.38.282,Simcolourproject_2stim_asymm_v5,2020.2.10,Win32,60,61025ae37ef11b136ea224fe,,,,,,,,,4319,38,71,1,0,0,response1disk,,7,5,-6,1,0,0,rectangle,5,-6,1,0,0,5,-6,1,0,0,0,76,76,9,1,,,,,,,,
,,,,,,,,,,,,,FF,,,,,,,,0.95,,,,,,,,,,,,,,,,,,,,,,60f8fb8d2c5a8b523880f6ae,610375b6638a24927edab617,2021-07-29_23h57.38.282,Simcolourproject_2stim_asymm_v5,2020.2.10,Win32,60,61025ae37ef11b136ea224fe,,,,,,,,,3657,46,62,1,0,0,response1disk,,7,13,0,1,0,0,rectangle,13,0,1,0,0,13,0,1,0,0,0,77,77,1,1,,,,,,,,
,,,,,,,,,,,,,FF,,,,,,,,0.951,,,,,,,,,,,,,,,,,,,,,,60f8fb8d2c5a8b523880f6ae,610375b6638a24927edab617,2021-07-29_23h57.38.282,Simcolourproject_2stim_asymm_v5,2020.2.10,Win32,60,61025ae37ef11b136ea224fe,,,,,,,,,66,47,80,1,0,0,response1disk,,7,6,7,1,0,0,rectangle,6,7,1,0,0,6,7,1,0,0,0,78,78,86,1,,,,,,,,
,,,,,,,,,,,,,FF,,,,,,,,0.867,,,,,,,,,,,,,,,,,,,,,,60f8fb8d2c5a8b523880f6ae,610375b6638a24927edab617,2021-07-29_23h57.38.282,Simcolourproject_2stim_asymm_v5,2020.2.10,Win32,60,61025ae37ef11b136ea224fe,,,,,,,,,58,55,34,1,0,0,response1disk,,6,0,3,1,0,0,rectangle,0,3,1,0,0,0,3,1,0,0,0,79,79,79,1,,,,,,,,
,,,,,,,,,,,,,FF,,,,,,,,1.6,,,,,,,,,,,,,,,,,,,,,,60f8fb8d2c5a8b523880f6ae,610375b6638a24927edab617,2021-07-29_23h57.38.282,Simcolourproject_2stim_asymm_v5,2020.2.10,Win32,60,61025ae37ef11b136ea224fe,,,,,,,,,4135,85,43,1,0,0,response1disk,,6,5,-6,1,0,0,rectangle,5,-6,1,0,0,5,-6,1,0,0,0,80,80,148,1,,,,,,,,
,,,,,,,,,,,,,FF,,,,,,,,5.148,,,,,,,,,,,,,,,,,,,,,,60f8fb8d2c5a8b523880f6ae,610375b6638a24927edab617,2021-07-29_23h57.38.282,Simcolourproject_2stim_asymm_v5,2020.2.10,Win32,60,61025ae37ef11b136ea224fe,,,,,,,,,1615,59,33,1,0,0,response1disk,,6,23,4,1,0,0,rectangle,23,4,1,0,0,23,4,1,0,0,0,81,81,149,1,,,,,,,,
,,,,,,,,,,,,,FF,,,,,,,,1.266,,,,,,,,,,,,,,,,,,,,,,60f8fb8d2c5a8b523880f6ae,610375b6638a24927edab617,2021-07-29_23h57.38.282,Simcolourproject_2stim_asymm_v5,2020.2.10,Win32,60,61025ae37ef11b136ea224fe,,,,,,,,,3584,49,-41,1,0,0,response3disk,,5,2,-4,1,0,0,rectangle,2,-4,1,0,0,2,-4,1,0,0,0,82,82,128,1,,,,,,,,
,,,,,,,,,,,,,FF,,,,,,,,1.4,,,,,,,,,,,,,,,,,,,,,,60f8fb8d2c5a8b523880f6ae,610375b6638a24927edab617,2021-07-29_23h57.38.282,Simcolourproject_2stim_asymm_v5,2020.2.10,Win32,60,61025ae37ef11b136ea224fe,,,,,,,,,1713,71,-29,1,0,0,response3disk,,5,16,-10,1,0,0,rectangle,16,-10,1,0,0,16,-10,1,0,0,0,83,83,70,1,,,,,,,,
,,,,,,,,,,,,,FF,,,,,,,,1.249,,,,,,,,,,,,,,,,,,,,,,60f8fb8d2c5a8b523880f6ae,610375b6638a24927edab617,2021-07-29_23h57.38.282,Simcolourproject_2stim_asymm_v5,2020.2.10,Win32,60,61025ae37ef11b136ea224fe,,,,,,,,,3288,62,39,1,0,0,response1disk,,6,16,0,1,0,0,rectangle,16,0,1,0,0,16,0,1,0,0,0,84,84,44,1,,,,,,,,
,,,,,,,,,,,,,FF,,,,,,,,1.433,,,,,,,,,,,,,,,,,,,,,,60f8fb8d2c5a8b523880f6ae,610375b6638a24927edab617,2021-07-29_23h57.38.282,Simcolourproject_2stim_asymm_v5,2020.2.10,Win32,60,61025ae37ef11b136ea224fe,,,,,,,,,463,-70,-78,1,0,0,response5disk,,3,-4,0,1,0,0,rectangle,-4,0,1,0,0,-4,0,1,0,0,0,85,85,126,1,,,,,,,,
,,,,,,,,,,,,,FF,,,,,,,,1.578,,,,,,,,,,,,,,,,,,,,,,60f8fb8d2c5a8b523880f6ae,610375b6638a24927edab617,2021-07-29_23h57.38.282,Simcolourproject_2stim_asymm_v5,2020.2.10,Win32,60,61025ae37ef11b136ea224fe,,,,,,,,,3414,70,-21,1,0,0,response3disk,,5,30,1,1,0,0,rectangle,30,1,1,0,0,30,1,1,0,0,0,86,86,78,1,,,,,,,,
,,,,,,,,,,,,,FF,,,,,,,,1.85,,,,,,,,,,,,,,,,,,,,,,60f8fb8d2c5a8b523880f6ae,610375b6638a24927edab617,2021-07-29_23h57.38.282,Simcolourproject_2stim_asymm_v5,2020.2.10,Win32,60,61025ae37ef11b136ea224fe,,,,,,,,,2306,32,-66,1,0,0,response3disk,,4,0,3,1,0,0,rectangle,0,3,1,0,0,0,3,1,0,0,0,87,87,158,1,,,,,,,,
,,,,,,,,,,,,,FF,,,,,,,,1.781,,,,,,,,,,,,,,,,,,,,,,60f8fb8d2c5a8b523880f6ae,610375b6638a24927edab617,2021-07-29_23h57.38.282,Simcolourproject_2stim_asymm_v5,2020.2.10,Win32,60,61025ae37ef11b136ea224fe,,,,,,,,,3208,50,-34,1,0,0,response3disk,,5,4,-5,1,0,0,rectangle,4,-5,1,0,0,4,-5,1,0,0,0,88,88,111,1,,,,,,,,
,,,,,,,,,,,,,FF,,,,,,,,1.599,,,,,,,,,,,,,,,,,,,,,,60f8fb8d2c5a8b523880f6ae,610375b6638a24927edab617,2021-07-29_23h57.38.282,Simcolourproject_2stim_asymm_v5,2020.2.10,Win32,60,61025ae37ef11b136ea224fe,,,,,,,,,4226,50,70,1,0,0,response1disk,,7,-19,6,1,0,0,rectangle,-19,6,1,0,0,-19,6,1,0,0,0,89,89,94,1,,,,,,,,
,,,,,,,,,,,,,FF,,,,,,,,1.084,,,,,,,,,,,,,,,,,,,,,,60f8fb8d2c5a8b523880f6ae,610375b6638a24927edab617,2021-07-29_23h57.38.282,Simcolourproject_2stim_asymm_v5,2020.2.10,Win32,60,61025ae37ef11b136ea224fe,,,,,,,,,518,34,69,1,0,0,response1disk,,7,-7,6,1,0,0,rectangle,-7,6,1,0,0,-7,6,1,0,0,0,90,90,29,1,,,,,,,,
,,,,,,,,,,,,,FF,,,,,,,,1.517,,,,,,,,,,,,,,,,,,,,,,60f8fb8d2c5a8b523880f6ae,610375b6638a24927edab617,2021-07-29_23h57.38.282,Simcolourproject_2stim_asymm_v5,2020.2.10,Win32,60,61025ae37ef11b136ea224fe,,,,,,,,,996,-30,-83,1,0,0,response5disk,,3,8,-2,1,0,0,rectangle,8,-2,1,0,0,8,-2,1,0,0,0,91,91,105,1,,,,,,,,
,,,,,,,,,,,,,FF,,,,,,,,1.573,,,,,,,,,,,,,,,,,,,,,,60f8fb8d2c5a8b523880f6ae,610375b6638a24927edab617,2021-07-29_23h57.38.282,Simcolourproject_2stim_asymm_v5,2020.2.10,Win32,60,61025ae37ef11b136ea224fe,,,,,,,,,4133,67,-36,1,0,0,response3disk,,5,22,-8,1,0,0,rectangle,22,-8,1,0,0,22,-8,1,0,0,0,92,92,87,1,,,,,,,,
,,,,,,,,,,,,,FF,,,,,,,,2.384,,,,,,,,,,,,,,,,,,,,,,60f8fb8d2c5a8b523880f6ae,610375b6638a24927edab617,2021-07-29_23h57.38.282,Simcolourproject_2stim_asymm_v5,2020.2.10,Win32,60,61025ae37ef11b136ea224fe,,,,,,,,,2221,41,-29,1,0,0,response3disk,,5,7,-8,1,0,0,rectangle,7,-8,1,0,0,7,-8,1,0,0,0,93,93,47,1,,,,,,,,
,,,,,,,,,,,,,FF,,,,,,,,1.132,,,,,,,,,,,,,,,,,,,,,,60f8fb8d2c5a8b523880f6ae,610375b6638a24927edab617,2021-07-29_23h57.38.282,Simcolourproject_2stim_asymm_v5,2020.2.10,Win32,60,61025ae37ef11b136ea224fe,,,,,,,,,467,46,-25,1,0,0,response3disk,,5,-5,0,1,0,0,rectangle,-5,0,1,0,0,-5,0,1,0,0,0,94,94,37,1,,,,,,,,
,,,,,,,,,,,,,FF,,,,,,,,1.116,,,,,,,,,,,,,,,,,,,,,,60f8fb8d2c5a8b523880f6ae,610375b6638a24927edab617,2021-07-29_23h57.38.282,Simcolourproject_2stim_asymm_v5,2020.2.10,Win32,60,61025ae37ef11b136ea224fe,,,,,,,,,2887,-79,-34,1,0,0,response5disk,,2,-15,8,1,0,0,rectangle,-15,8,1,0,0,-15,8,1,0,0,0,95,95,106,1,,,,,,,,
,,,,,,,,,,,,,FF,,,,,,,,1.517,,,,,,,,,,,,,,,,,,,,,,60f8fb8d2c5a8b523880f6ae,610375b6638a24927edab617,2021-07-29_23h57.38.282,Simcolourproject_2stim_asymm_v5,2020.2.10,Win32,60,61025ae37ef11b136ea224fe,,,,,,,,,3177,70,46,1,0,0,response1disk,,6,13,-5,1,0,0,rectangle,13,-5,1,0,0,13,-5,1,0,0,0,96,96,89,1,,,,,,,,
,,,,,,,,,,,,,FF,,,,,,,,1.484,,,,,,,,,,,,,,,,,,,,,,60f8fb8d2c5a8b523880f6ae,610375b6638a24927edab617,2021-07-29_23h57.38.282,Simcolourproject_2stim_asymm_v5,2020.2.10,Win32,60,61025ae37ef11b136ea224fe,,,,,,,,,1975,67,34,1,0,0,response1disk,,6,5,-10,1,0,0,rectangle,5,-10,1,0,0,5,-10,1,0,0,0,97,97,108,1,,,,,,,,
,,,,,,,,,,,,,FF,,,,,,,,1.582,,,,,,,,,,,,,,,,,,,,,,60f8fb8d2c5a8b523880f6ae,610375b6638a24927edab617,2021-07-29_23h57.38.282,Simcolourproject_2stim_asymm_v5,2020.2.10,Win32,60,61025ae37ef11b136ea224fe,,,,,,,,,2962,-63,-91,1,0,0,response5disk,,3,-20,-8,1,0,0,rectangle,-20,-8,1,0,0,-20,-8,1,0,0,0,98,98,56,1,,,,,,,,
,,,,,,,,,,,,,FF,,,,,,,,1.1,,,,,,,,,,,,,,,,,,,,,,60f8fb8d2c5a8b523880f6ae,610375b6638a24927edab617,2021-07-29_23h57.38.282,Simcolourproject_2stim_asymm_v5,2020.2.10,Win32,60,61025ae37ef11b136ea224fe,,,,,,,,,4244,31,59,1,0,0,response1disk,,7,-15,-14,1,0,0,rectangle,-15,-14,1,0,0,-15,-14,1,0,0,0,99,99,61,1,,,,,,,,
,,,,,,,,,,,,,FF,,,,,,,,4.083,,,,,,,,,,,,,,,,,,,,,,60f8fb8d2c5a8b523880f6ae,610375b6638a24927edab617,2021-07-29_23h57.38.282,Simcolourproject_2stim_asymm_v5,2020.2.10,Win32,60,61025ae37ef11b136ea224fe,,,,,,,,,1008,84,30,1,0,0,response1disk,,6,-1,-8,1,0,0,rectangle,-1,-8,1,0,0,-1,-8,1,0,0,0,100,100,28,1,,,,,,,,
,,,,,,,,,,,,,FF,,,,,,,,1.367,,,,,,,,,,,,,,,,,,,,,,60f8fb8d2c5a8b523880f6ae,610375b6638a24927edab617,2021-07-29_23h57.38.282,Simcolourproject_2stim_asymm_v5,2020.2.10,Win32,60,61025ae37ef11b136ea224fe,,,,,,,,,3023,56,31,1,0,0,response1disk,,6,23,5,1,0,0,rectangle,23,5,1,0,0,23,5,1,0,0,0,101,101,72,1,,,,,,,,
,,,,,,,,,,,,,FF,,,,,,,,1.45,,,,,,,,,,,,,,,,,,,,,,60f8fb8d2c5a8b523880f6ae,610375b6638a24927edab617,2021-07-29_23h57.38.282,Simcolourproject_2stim_asymm_v5,2020.2.10,Win32,60,61025ae37ef11b136ea224fe,,,,,,,,,3158,-34,-80,1,0,0,response5disk,,3,3,-5,1,0,0,rectangle,3,-5,1,0,0,3,-5,1,0,0,0,102,102,101,1,,,,,,,,
,,,,,,,,,,,,,FF,,,,,,,,1.251,,,,,,,,,,,,,,,,,,,,,,60f8fb8d2c5a8b523880f6ae,610375b6638a24927edab617,2021-07-29_23h57.38.282,Simcolourproject_2stim_asymm_v5,2020.2.10,Win32,60,61025ae37ef11b136ea224fe,,,,,,,,,3295,-55,-31,1,0,0,response5disk,,2,-7,6,1,0,0,rectangle,-7,6,1,0,0,-7,6,1,0,0,0,103,103,113,1,,,,,,,,
,,,,,,,,,,,,,FF,,,,,,,,1.133,,,,,,,,,,,,,,,,,,,,,,60f8fb8d2c5a8b523880f6ae,610375b6638a24927edab617,2021-07-29_23h57.38.282,Simcolourproject_2stim_asymm_v5,2020.2.10,Win32,60,61025ae37ef11b136ea224fe,,,,,,,,,2323,69,39,1,0,0,response1disk,,6,14,-1,1,0,0,rectangle,14,-1,1,0,0,14,-1,1,0,0,0,104,104,22,1,,,,,,,,
,,,,,,,,,,,,,FF,,,,,,,,0.937,,,,,,,,,,,,,,,,,,,,,,60f8fb8d2c5a8b523880f6ae,610375b6638a24927edab617,2021-07-29_23h57.38.282,Simcolourproject_2stim_asymm_v5,2020.2.10,Win32,60,61025ae37ef11b136ea224fe,,,,,,,,,1501,67,33,1,0,0,response1disk,,6,6,0,1,0,0,rectangle,6,0,1,0,0,6,0,1,0,0,0,105,105,127,1,,,,,,,,
,,,,,,,,,,,,,FF,,,,,,,,0.967,,,,,,,,,,,,,,,,,,,,,,60f8fb8d2c5a8b523880f6ae,610375b6638a24927edab617,2021-07-29_23h57.38.282,Simcolourproject_2stim_asymm_v5,2020.2.10,Win32,60,61025ae37ef11b136ea224fe,,,,,,,,,3167,54,33,1,0,0,response1disk,,6,6,2,1,0,0,rectangle,6,2,1,0,0,6,2,1,0,0,0,106,106,7,1,,,,,,,,
,,,,,,,,,,,,,FF,,,,,,,,0.901,,,,,,,,,,,,,,,,,,,,,,60f8fb8d2c5a8b523880f6ae,610375b6638a24927edab617,2021-07-29_23h57.38.282,Simcolourproject_2stim_asymm_v5,2020.2.10,Win32,60,61025ae37ef11b136ea224fe,,,,,,,,,1115,59,21,1,0,0,response1disk,,6,16,-6,1,0,0,rectangle,16,-6,1,0,0,16,-6,1,0,0,0,107,107,19,1,,,,,,,,
,,,,,,,,,,,,,FF,,,,,,,,1.234,,,,,,,,,,,,,,,,,,,,,,60f8fb8d2c5a8b523880f6ae,610375b6638a24927edab617,2021-07-29_23h57.38.282,Simcolourproject_2stim_asymm_v5,2020.2.10,Win32,60,61025ae37ef11b136ea224fe,,,,,,,,,2230,-37,-65,1,0,0,response5disk,,3,0,9,1,0,0,rectangle,0,9,1,0,0,0,9,1,0,0,0,108,108,134,1,,,,,,,,
,,,,,,,,,,,,,FF,,,,,,,,1.283,,,,,,,,,,,,,,,,,,,,,,60f8fb8d2c5a8b523880f6ae,610375b6638a24927edab617,2021-07-29_23h57.38.282,Simcolourproject_2stim_asymm_v5,2020.2.10,Win32,60,61025ae37ef11b136ea224fe,,,,,,,,,999,39,-67,1,0,0,response3disk,,4,8,-6,1,0,0,rectangle,8,-6,1,0,0,8,-6,1,0,0,0,109,109,116,1,,,,,,,,
,,,,,,,,,,,,,FF,,,,,,,,1.2,,,,,,,,,,,,,,,,,,,,,,60f8fb8d2c5a8b523880f6ae,610375b6638a24927edab617,2021-07-29_23h57.38.282,Simcolourproject_2stim_asymm_v5,2020.2.10,Win32,60,61025ae37ef11b136ea224fe,,,,,,,,,2162,-49,-58,1,0,0,response5disk,,3,-14,6,1,0,0,rectangle,-14,6,1,0,0,-14,6,1,0,0,0,110,110,142,1,,,,,,,,
,,,,,,,,,,,,,FF,,,,,,,,1.199,,,,,,,,,,,,,,,,,,,,,,60f8fb8d2c5a8b523880f6ae,610375b6638a24927edab617,2021-07-29_23h57.38.282,Simcolourproject_2stim_asymm_v5,2020.2.10,Win32,60,61025ae37ef11b136ea224fe,,,,,,,,,270,83,-38,1,0,0,response3disk,,5,15,-4,1,0,0,rectangle,15,-4,1,0,0,15,-4,1,0,0,0,111,111,55,1,,,,,,,,
,,,,,,,,,,,,,FF,,,,,,,,2.417,,,,,,,,,,,,,,,,,,,,,,60f8fb8d2c5a8b523880f6ae,610375b6638a24927edab617,2021-07-29_23h57.38.282,Simcolourproject_2stim_asymm_v5,2020.2.10,Win32,60,61025ae37ef11b136ea224fe,,,,,,,,,302,49,-31,1,0,0,response3disk,,5,2,-4,1,0,0,rectangle,2,-4,1,0,0,2,-4,1,0,0,0,112,112,30,1,,,,,,,,
,,,,,,,,,,,,,FF,,,,,,,,1.151,,,,,,,,,,,,,,,,,,,,,,60f8fb8d2c5a8b523880f6ae,610375b6638a24927edab617,2021-07-29_23h57.38.282,Simcolourproject_2stim_asymm_v5,2020.2.10,Win32,60,61025ae37ef11b136ea224fe,,,,,,,,,3204,-58,-31,1,0,0,response5disk,,2,-20,-2,1,0,0,rectangle,-20,-2,1,0,0,-20,-2,1,0,0,0,113,113,4,1,,,,,,,,
,,,,,,,,,,,,,FF,,,,,,,,1.168,,,,,,,,,,,,,,,,,,,,,,60f8fb8d2c5a8b523880f6ae,610375b6638a24927edab617,2021-07-29_23h57.38.282,Simcolourproject_2stim_asymm_v5,2020.2.10,Win32,60,61025ae37ef11b136ea224fe,,,,,,,,,1657,60,-25,1,0,0,response3disk,,5,-6,1,1,0,0,rectangle,-6,1,1,0,0,-6,1,1,0,0,0,114,114,100,1,,,,,,,,
,,,,,,,,,,,,,FF,,,,,,,,1.832,,,,,,,,,,,,,,,,,,,,,,60f8fb8d2c5a8b523880f6ae,610375b6638a24927edab617,2021-07-29_23h57.38.282,Simcolourproject_2stim_asymm_v5,2020.2.10,Win32,60,61025ae37ef11b136ea224fe,,,,,,,,,2929,81,27,1,0,0,response1disk,,6,16,-5,1,0,0,rectangle,-60,24,1,0,0,-4,-2,1,0,0,0,115,115,51,1,,response7disk_3,TRUE,1,1,"[187,5,257,116,180,234,2,122,321,308,28,306,214,46,58,258,302,198,224,23]",2.399,rectangle
,,,,,,,,,,,,,FF,,,,,,,,1.6,,,,,,,,,,,,,,,,,,,,,,60f8fb8d2c5a8b523880f6ae,610375b6638a24927edab617,2021-07-29_23h57.38.282,Simcolourproject_2stim_asymm_v5,2020.2.10,Win32,60,61025ae37ef11b136ea224fe,,,,,,,,,1011,92,-44,1,0,0,response3disk,,5,14,0,1,0,0,rectangle,14,0,1,0,0,14,0,1,0,0,0,116,116,40,1,,,,,,,,
,,,,,,,,,,,,,FF,,,,,,,,1.25,,,,,,,,,,,,,,,,,,,,,,60f8fb8d2c5a8b523880f6ae,610375b6638a24927edab617,2021-07-29_23h57.38.282,Simcolourproject_2stim_asymm_v5,2020.2.10,Win32,60,61025ae37ef11b136ea224fe,,,,,,,,,867,63,33,1,0,0,response1disk,,6,9,-3,1,0,0,rectangle,9,-3,1,0,0,9,-3,1,0,0,0,117,117,123,1,,,,,,,,
,,,,,,,,,,,,,FF,,,,,,,,1.2,,,,,,,,,,,,,,,,,,,,,,60f8fb8d2c5a8b523880f6ae,610375b6638a24927edab617,2021-07-29_23h57.38.282,Simcolourproject_2stim_asymm_v5,2020.2.10,Win32,60,61025ae37ef11b136ea224fe,,,,,,,,,2839,-71,-38,1,0,0,response5disk,,2,-5,-1,1,0,0,rectangle,-5,-1,1,0,0,-5,-1,1,0,0,0,118,118,115,1,,,,,,,,
,,,,,,,,,,,,,FF,,,,,,,,1.333,,,,,,,,,,,,,,,,,,,,,,60f8fb8d2c5a8b523880f6ae,610375b6638a24927edab617,2021-07-29_23h57.38.282,Simcolourproject_2stim_asymm_v5,2020.2.10,Win32,60,61025ae37ef11b136ea224fe,,,,,,,,,2425,-62,26,1,0,0,response7disk,,1,-13,3,1,0,0,rectangle,-13,3,1,0,0,-13,3,1,0,0,0,119,119,92,1,,,,,,,,
,,,,,,,,,,,,,FF,,,,,,,,1.702,,,,,,,,,,,,,,,,,,,,,,60f8fb8d2c5a8b523880f6ae,610375b6638a24927edab617,2021-07-29_23h57.38.282,Simcolourproject_2stim_asymm_v5,2020.2.10,Win32,60,61025ae37ef11b136ea224fe,,,,,,,,,2990,66,-26,1,0,0,response3disk,,5,-9,10,1,0,0,rectangle,-9,10,1,0,0,-9,10,1,0,0,0,120,120,67,1,,,,,,,,
,,,,,,,,,,,,,FF,,,,,,,,1.384,,,,,,,,,,,,,,,,,,,,,,60f8fb8d2c5a8b523880f6ae,610375b6638a24927edab617,2021-07-29_23h57.38.282,Simcolourproject_2stim_asymm_v5,2020.2.10,Win32,60,61025ae37ef11b136ea224fe,,,,,,,,,1395,68,-48,1,0,0,response3disk,,5,6,-11,1,0,0,rectangle,-38,94,1,0,0,-5,5,1,0,0,0,121,121,82,1,,response7disk_3,TRUE,0,0,"[187,5,257,116,180,234,2,122,321,308,28,306,214,46,58,258,302,198,224,23]",1.882,rectangle
,,,,,,,,,,,,,FF,,,,,,,,1.198,,,,,,,,,,,,,,,,,,,,,,60f8fb8d2c5a8b523880f6ae,610375b6638a24927edab617,2021-07-29_23h57.38.282,Simcolourproject_2stim_asymm_v5,2020.2.10,Win32,60,61025ae37ef11b136ea224fe,,,,,,,,,2229,-73,-44,1,0,0,response5disk,,2,-4,3,1,0,0,rectangle,-4,3,1,0,0,-4,3,1,0,0,0,122,122,58,1,,,,,,,,
,,,,,,,,,,,,,FF,,,,,,,,1.538,,,,,,,,,,,,,,,,,,,,,,60f8fb8d2c5a8b523880f6ae,610375b6638a24927edab617,2021-07-29_23h57.38.282,Simcolourproject_2stim_asymm_v5,2020.2.10,Win32,60,61025ae37ef11b136ea224fe,,,,,,,,,2882,36,-62,1,0,0,response3disk,,4,1,-9,1,0,0,rectangle,1,-9,1,0,0,1,-9,1,0,0,0,123,123,57,1,,,,,,,,
,,,,,,,,,,,,,FF,,,,,,,,2.282,,,,,,,,,,,,,,,,,,,,,,60f8fb8d2c5a8b523880f6ae,610375b6638a24927edab617,2021-07-29_23h57.38.282,Simcolourproject_2stim_asymm_v5,2020.2.10,Win32,60,61025ae37ef11b136ea224fe,,,,,,,,,1196,72,17,1,0,0,response1disk,,6,11,1,1,0,0,rectangle,11,1,1,0,0,11,1,1,0,0,0,124,124,6,1,,,,,,,,
,,,,,,,,,,,,,FF,,,,,,,,1.283,,,,,,,,,,,,,,,,,,,,,,60f8fb8d2c5a8b523880f6ae,610375b6638a24927edab617,2021-07-29_23h57.38.282,Simcolourproject_2stim_asymm_v5,2020.2.10,Win32,60,61025ae37ef11b136ea224fe,,,,,,,,,2251,35,-60,1,0,0,response3disk,,4,-6,10,1,0,0,rectangle,-6,10,1,0,0,-6,10,1,0,0,0,125,125,38,1,,,,,,,,
,,,,,,,,,,,,,FF,,,,,,,,1.455,,,,,,,,,,,,,,,,,,,,,,60f8fb8d2c5a8b523880f6ae,610375b6638a24927edab617,2021-07-29_23h57.38.282,Simcolourproject_2stim_asymm_v5,2020.2.10,Win32,60,61025ae37ef11b136ea224fe,,,,,,,,,1483,41,-85,1,0,0,response3disk,,4,1,1,1,0,0,rectangle,1,1,1,0,0,1,1,1,0,0,0,126,126,49,1,,,,,,,,
,,,,,,,,,,,,,FF,,,,,,,,1.683,,,,,,,,,,,,,,,,,,,,,,60f8fb8d2c5a8b523880f6ae,610375b6638a24927edab617,2021-07-29_23h57.38.282,Simcolourproject_2stim_asymm_v5,2020.2.10,Win32,60,61025ae37ef11b136ea224fe,,,,,,,,,1269,50,-68,1,0,0,response3disk,,4,-16,-10,1,0,0,rectangle,-16,-10,1,0,0,-16,-10,1,0,0,0,127,127,109,1,,,,,,,,
,,,,,,,,,,,,,FF,,,,,,,,1.168,,,,,,,,,,,,,,,,,,,,,,60f8fb8d2c5a8b523880f6ae,610375b6638a24927edab617,2021-07-29_23h57.38.282,Simcolourproject_2stim_asymm_v5,2020.2.10,Win32,60,61025ae37ef11b136ea224fe,,,,,,,,,3529,67,-36,1,0,0,response3disk,,5,15,-9,1,0,0,rectangle,15,-9,1,0,0,15,-9,1,0,0,0,128,128,68,1,,,,,,,,
,,,,,,,,,,,,,FF,,,,,,,,1.234,,,,,,,,,,,,,,,,,,,,,,60f8fb8d2c5a8b523880f6ae,610375b6638a24927edab617,2021-07-29_23h57.38.282,Simcolourproject_2stim_asymm_v5,2020.2.10,Win32,60,61025ae37ef11b136ea224fe,,,,,,,,,2216,66,37,1,0,0,response1disk,,6,2,5,1,0,0,rectangle,2,5,1,0,0,2,5,1,0,0,0,129,129,141,1,,,,,,,,
,,,,,,,,,,,,,FF,,,,,,,,1.4,,,,,,,,,,,,,,,,,,,,,,60f8fb8d2c5a8b523880f6ae,610375b6638a24927edab617,2021-07-29_23h57.38.282,Simcolourproject_2stim_asymm_v5,2020.2.10,Win32,60,61025ae37ef11b136ea224fe,,,,,,,,,3838,71,40,1,0,0,response1disk,,6,21,-2,1,0,0,rectangle,21,-2,1,0,0,21,-2,1,0,0,0,130,130,85,1,,,,,,,,
,,,,,,,,,,,,,FF,,,,,,,,1.034,,,,,,,,,,,,,,,,,,,,,,60f8fb8d2c5a8b523880f6ae,610375b6638a24927edab617,2021-07-29_23h57.38.282,Simcolourproject_2stim_asymm_v5,2020.2.10,Win32,60,61025ae37ef11b136ea224fe,,,,,,,,,2050,73,43,1,0,0,response1disk,,6,-15,-1,1,0,0,rectangle,-15,-1,1,0,0,-15,-1,1,0,0,0,131,131,150,1,,,,,,,,
,,,,,,,,,,,,,FF,,,,,,,,1.449,,,,,,,,,,,,,,,,,,,,,,60f8fb8d2c5a8b523880f6ae,610375b6638a24927edab617,2021-07-29_23h57.38.282,Simcolourproject_2stim_asymm_v5,2020.2.10,Win32,60,61025ae37ef11b136ea224fe,,,,,,,,,171,-85,40,1,0,0,response7disk,,1,-14,-2,1,0,0,rectangle,-14,-2,1,0,0,-14,-2,1,0,0,0,132,132,145,1,,,,,,,,
,,,,,,,,,,,,,FF,,,,,,,,1.118,,,,,,,,,,,,,,,,,,,,,,60f8fb8d2c5a8b523880f6ae,610375b6638a24927edab617,2021-07-29_23h57.38.282,Simcolourproject_2stim_asymm_v5,2020.2.10,Win32,60,61025ae37ef11b136ea224fe,,,,,,,,,1927,75,41,1,0,0,response1disk,,6,9,4,1,0,0,rectangle,9,4,1,0,0,9,4,1,0,0,0,133,133,125,1,,,,,,,,
,,,,,,,,,,,,,FF,,,,,,,,1.228,,,,,,,,,,,,,,,,,,,,,,60f8fb8d2c5a8b523880f6ae,610375b6638a24927edab617,2021-07-29_23h57.38.282,Simcolourproject_2stim_asymm_v5,2020.2.10,Win32,60,61025ae37ef11b136ea224fe,,,,,,,,,4176,76,54,1,0,0,response1disk,,6,6,13,1,0,0,rectangle,6,13,1,0,0,6,13,1,0,0,0,134,134,31,1,,,,,,,,
,,,,,,,,,,,,,FF,,,,,,,,0.849,,,,,,,,,,,,,,,,,,,,,,60f8fb8d2c5a8b523880f6ae,610375b6638a24927edab617,2021-07-29_23h57.38.282,Simcolourproject_2stim_asymm_v5,2020.2.10,Win32,60,61025ae37ef11b136ea224fe,,,,,,,,,707,57,34,1,0,0,response1disk,,6,-2,-10,1,0,0,rectangle,-2,-10,1,0,0,-2,-10,1,0,0,0,135,135,147,1,,,,,,,,
,,,,,,,,,,,,,FF,,,,,,,,1.418,,,,,,,,,,,,,,,,,,,,,,60f8fb8d2c5a8b523880f6ae,610375b6638a24927edab617,2021-07-29_23h57.38.282,Simcolourproject_2stim_asymm_v5,2020.2.10,Win32,60,61025ae37ef11b136ea224fe,,,,,,,,,2772,27,-64,1,0,0,response3disk,,4,-3,-1,1,0,0,rectangle,-3,-1,1,0,0,-3,-1,1,0,0,0,136,136,71,1,,,,,,,,
,,,,,,,,,,,,,FF,,,,,,,,1.25,,,,,,,,,,,,,,,,,,,,,,60f8fb8d2c5a8b523880f6ae,610375b6638a24927edab617,2021-07-29_23h57.38.282,Simcolourproject_2stim_asymm_v5,2020.2.10,Win32,60,61025ae37ef11b136ea224fe,,,,,,,,,2544,-78,-37,1,0,0,response5disk,,2,3,9,1,0,0,rectangle,3,9,1,0,0,3,9,1,0,0,0,137,137,104,1,,,,,,,,
,,,,,,,,,,,,,FF,,,,,,,,1.084,,,,,,,,,,,,,,,,,,,,,,60f8fb8d2c5a8b523880f6ae,610375b6638a24927edab617,2021-07-29_23h57.38.282,Simcolourproject_2stim_asymm_v5,2020.2.10,Win32,60,61025ae37ef11b136ea224fe,,,,,,,,,2592,44,74,1,0,0,response1disk,,7,7,-2,1,0,0,rectangle,7,-2,1,0,0,7,-2,1,0,0,0,138,138,98,1,,,,,,,,
,,,,,,,,,,,,,FF,,,,,,,,1.069,,,,,,,,,,,,,,,,,,,,,,60f8fb8d2c5a8b523880f6ae,610375b6638a24927edab617,2021-07-29_23h57.38.282,Simcolourproject_2stim_asymm_v5,2020.2.10,Win32,60,61025ae37ef11b136ea224fe,,,,,,,,,482,53,76,1,0,0,response1disk,,7,12,4,1,0,0,rectangle,12,4,1,0,0,12,4,1,0,0,0,139,139,159,1,,,,,,,,
,,,,,,,,,,,,,FF,,,,,,,,0.817,,,,,,,,,,,,,,,,,,,,,,60f8fb8d2c5a8b523880f6ae,610375b6638a24927edab617,2021-07-29_23h57.38.282,Simcolourproject_2stim_asymm_v5,2020.2.10,Win32,60,61025ae37ef11b136ea224fe,,,,,,,,,1981,71,81,1,0,0,response1disk,,7,0,-8,1,0,0,rectangle,0,-8,1,0,0,0,-8,1,0,0,0,140,140,153,1,,,,,,,,
,,,,,,,,,,,,,FF,,,,,,,,1.016,,,,,,,,,,,,,,,,,,,,,,60f8fb8d2c5a8b523880f6ae,610375b6638a24927edab617,2021-07-29_23h57.38.282,Simcolourproject_2stim_asymm_v5,2020.2.10,Win32,60,61025ae37ef11b136ea224fe,,,,,,,,,1068,92,44,1,0,0,response1disk,,6,-11,-13,1,0,0,rectangle,-11,-13,1,0,0,-11,-13,1,0,0,0,141,141,34,1,,,,,,,,
,,,,,,,,,,,,,FF,,,,,,,,0.967,,,,,,,,,,,,,,,,,,,,,,60f8fb8d2c5a8b523880f6ae,610375b6638a24927edab617,2021-07-29_23h57.38.282,Simcolourproject_2stim_asymm_v5,2020.2.10,Win32,60,61025ae37ef11b136ea224fe,,,,,,,,,2133,89,-32,1,0,0,response3disk,,5,3,-3,1,0,0,rectangle,3,-3,1,0,0,3,-3,1,0,0,0,142,142,99,1,,,,,,,,
,,,,,,,,,,,,,FF,,,,,,,,1.532,,,,,,,,,,,,,,,,,,,,,,60f8fb8d2c5a8b523880f6ae,610375b6638a24927edab617,2021-07-29_23h57.38.282,Simcolourproject_2stim_asymm_v5,2020.2.10,Win32,60,61025ae37ef11b136ea224fe,,,,,,,,,2038,-76,-43,1,0,0,response5disk,,2,-4,-6,1,0,0,rectangle,-4,-6,1,0,0,-4,-6,1,0,0,0,143,143,95,1,,,,,,,,
,,,,,,,,,,,,,FF,,,,,,,,1.514,,,,,,,,,,,,,,,,,,,,,,60f8fb8d2c5a8b523880f6ae,610375b6638a24927edab617,2021-07-29_23h57.38.282,Simcolourproject_2stim_asymm_v5,2020.2.10,Win32,60,61025ae37ef11b136ea224fe,,,,,,,,,2013,71,-27,1,0,0,response3disk,,5,-9,6,1,0,0,rectangle,-9,6,1,0,0,-9,6,1,0,0,0,144,144,53,1,,,,,,,,
,,,,,,,,,,,,,FF,,,,,,,,1.765,,,,,,,,,,,,,,,,,,,,,,60f8fb8d2c5a8b523880f6ae,610375b6638a24927edab617,2021-07-29_23h57.38.282,Simcolourproject_2stim_asymm_v5,2020.2.10,Win32,60,61025ae37ef11b136ea224fe,,,,,,,,,2254,92,56,1,0,0,response1disk,,6,6,-3,1,0,0,rectangle,6,-3,1,0,0,6,-3,1,0,0,0,145,145,12,1,,,,,,,,
,,,,,,,,,,,,,FF,,,,,,,,0.959,,,,,,,,,,,,,,,,,,,,,,60f8fb8d2c5a8b523880f6ae,610375b6638a24927edab617,2021-07-29_23h57.38.282,Simcolourproject_2stim_asymm_v5,2020.2.10,Win32,60,61025ae37ef11b136ea224fe,,,,,,,,,2956,75,43,1,0,0,response1disk,,6,-3,4,1,0,0,rectangle,-3,4,1,0,0,-3,4,1,0,0,0,146,146,11,1,,,,,,,,
,,,,,,,,,,,,,FF,,,,,,,,1.45,,,,,,,,,,,,,,,,,,,,,,60f8fb8d2c5a8b523880f6ae,610375b6638a24927edab617,2021-07-29_23h57.38.282,Simcolourproject_2stim_asymm_v5,2020.2.10,Win32,60,61025ae37ef11b136ea224fe,,,,,,,,,3093,62,40,1,0,0,response1disk,,6,-24,-2,1,0,0,rectangle,-24,-2,1,0,0,-24,-2,1,0,0,0,147,147,146,1,,,,,,,,
,,,,,,,,,,,,,FF,,,,,,,,1.094,,,,,,,,,,,,,,,,,,,,,,60f8fb8d2c5a8b523880f6ae,610375b6638a24927edab617,2021-07-29_23h57.38.282,Simcolourproject_2stim_asymm_v5,2020.2.10,Win32,60,61025ae37ef11b136ea224fe,,,,,,,,,2074,69,50,1,0,0,response1disk,,6,9,5,1,0,0,rectangle,9,5,1,0,0,9,5,1,0,0,0,148,148,122,1,,,,,,,,
,,,,,,,,,,,,,FF,,,,,,,,1.426,,,,,,,,,,,,,,,,,,,,,,60f8fb8d2c5a8b523880f6ae,610375b6638a24927edab617,2021-07-29_23h57.38.282,Simcolourproject_2stim_asymm_v5,2020.2.10,Win32,60,61025ae37ef11b136ea224fe,,,,,,,,,434,-45,-53,1,0,0,response5disk,,3,7,10,1,0,0,rectangle,7,10,1,0,0,7,10,1,0,0,0,149,149,136,1,,,,,,,,
,,,,,,,,,,,,,FF,,,,,,,,1.483,,,,,,,,,,,,,,,,,,,,,,60f8fb8d2c5a8b523880f6ae,610375b6638a24927edab617,2021-07-29_23h57.38.282,Simcolourproject_2stim_asymm_v5,2020.2.10,Win32,60,61025ae37ef11b136ea224fe,,,,,,,,,3706,-83,-37,1,0,0,response5disk,,2,-2,-1,1,0,0,rectangle,-2,-1,1,0,0,-2,-1,1,0,0,0,150,150,119,1,,,,,,,,
,,,,,,,,,,,,,FF,,,,,,,,1.166,,,,,,,,,,,,,,,,,,,,,,60f8fb8d2c5a8b523880f6ae,610375b6638a24927edab617,2021-07-29_23h57.38.282,Simcolourproject_2stim_asymm_v5,2020.2.10,Win32,60,61025ae37ef11b136ea224fe,,,,,,,,,1889,-75,-34,1,0,0,response5disk,,2,-19,-3,1,0,0,rectangle,-19,-3,1,0,0,-19,-3,1,0,0,0,151,151,118,1,,,,,,,,
,,,,,,,,,,,,,FF,,,,,,,,0.95,,,,,,,,,,,,,,,,,,,,,,60f8fb8d2c5a8b523880f6ae,610375b6638a24927edab617,2021-07-29_23h57.38.282,Simcolourproject_2stim_asymm_v5,2020.2.10,Win32,60,61025ae37ef11b136ea224fe,,,,,,,,,2965,82,-46,1,0,0,response3disk,,5,4,-3,1,0,0,rectangle,4,-3,1,0,0,4,-3,1,0,0,0,152,152,110,1,,,,,,,,
,,,,,,,,,,,,,FF,,,,,,,,1.032,,,,,,,,,,,,,,,,,,,,,,60f8fb8d2c5a8b523880f6ae,610375b6638a24927edab617,2021-07-29_23h57.38.282,Simcolourproject_2stim_asymm_v5,2020.2.10,Win32,60,61025ae37ef11b136ea224fe,,,,,,,,,2848,99,-41,1,0,0,response3disk,,5,7,-9,1,0,0,rectangle,7,-9,1,0,0,7,-9,1,0,0,0,153,153,80,1,,,,,,,,
,,,,,,,,,,,,,FF,,,,,,,,0.9,,,,,,,,,,,,,,,,,,,,,,60f8fb8d2c5a8b523880f6ae,610375b6638a24927edab617,2021-07-29_23h57.38.282,Simcolourproject_2stim_asymm_v5,2020.2.10,Win32,60,61025ae37ef11b136ea224fe,,,,,,,,,397,64,46,1,0,0,response1disk,,6,-13,-4,1,0,0,rectangle,-13,-4,1,0,0,-13,-4,1,0,0,0,154,154,65,1,,,,,,,,
,,,,,,,,,,,,,FF,,,,,,,,1.3,,,,,,,,,,,,,,,,,,,,,,60f8fb8d2c5a8b523880f6ae,610375b6638a24927edab617,2021-07-29_23h57.38.282,Simcolourproject_2stim_asymm_v5,2020.2.10,Win32,60,61025ae37ef11b136ea224fe,,,,,,,,,3465,42,72,1,0,0,response1disk,,7,-5,10,1,0,0,rectangle,-5,10,1,0,0,-5,10,1,0,0,0,155,155,43,1,,,,,,,,
,,,,,,,,,,,,,FF,,,,,,,,0.883,,,,,,,,,,,,,,,,,,,,,,60f8fb8d2c5a8b523880f6ae,610375b6638a24927edab617,2021-07-29_23h57.38.282,Simcolourproject_2stim_asymm_v5,2020.2.10,Win32,60,61025ae37ef11b136ea224fe,,,,,,,,,362,64,39,1,0,0,response1disk,,6,-12,-5,1,0,0,rectangle,-12,-5,1,0,0,-12,-5,1,0,0,0,156,156,130,1,,,,,,,,
,,,,,,,,,,,,,FF,,,,,,,,1.185,,,,,,,,,,,,,,,,,,,,,,60f8fb8d2c5a8b523880f6ae,610375b6638a24927edab617,2021-07-29_23h57.38.282,Simcolourproject_2stim_asymm_v5,2020.2.10,Win32,60,61025ae37ef11b136ea224fe,,,,,,,,,77,-97,35,1,0,0,response7disk,,1,-7,8,1,0,0,rectangle,-7,8,1,0,0,-7,8,1,0,0,0,157,157,45,1,,,,,,,,
,,,,,,,,,,,,,FF,,,,,,,,1.332,,,,,,,,,,,,,,,,,,,,,,60f8fb8d2c5a8b523880f6ae,610375b6638a24927edab617,2021-07-29_23h57.38.282,Simcolourproject_2stim_asymm_v5,2020.2.10,Win32,60,61025ae37ef11b136ea224fe,,,,,,,,,1321,92,42,1,0,0,response1disk,,6,1,-10,1,0,0,rectangle,1,-10,1,0,0,1,-10,1,0,0,0,158,158,54,1,,,,,,,,
,,,,,,,,,,,,,FF,,,,,,,,0.949,,,,,,,,,,,,,,,,,,,,,,60f8fb8d2c5a8b523880f6ae,610375b6638a24927edab617,2021-07-29_23h57.38.282,Simcolourproject_2stim_asymm_v5,2020.2.10,Win32,60,61025ae37ef11b136ea224fe,,,,,,,,,652,91,48,1,0,0,response1disk,,6,20,10,1,0,0,rectangle,20,10,1,0,0,20,10,1,0,0,0,159,159,60,1,,,,,,,,
,,,,,,,,,,,,,FF,,,,,,,,1.666,,,,,,,,,,,,,,,,,,,,,,60f8fb8d2c5a8b523880f6ae,610375b6638a24927edab617,2021-07-29_23h57.38.282,Simcolourproject_2stim_asymm_v5,2020.2.10,Win32,60,61025ae37ef11b136ea224fe,,,,,,,,,4109,38,80,1,0,0,response1disk,,7,0,3,1,0,0,rectangle,0,3,1,0,0,0,3,1,0,0,1,0,160,61,1,,,,,,,,
,,,,,,,,,,,,,FF,,,,,,,,1.116,,,,,,,,,,,,,,,,,,,,,,60f8fb8d2c5a8b523880f6ae,610375b6638a24927edab617,2021-07-29_23h57.38.282,Simcolourproject_2stim_asymm_v5,2020.2.10,Win32,60,61025ae37ef11b136ea224fe,,,,,,,,,341,24,84,1,0,0,response1disk,,7,1,13,1,0,0,rectangle,1,13,1,0,0,1,13,1,0,0,1,1,161,71,1,,,,,,,,
,,,,,,,,,,,,,FF,,,,,,,,0.999,,,,,,,,,,,,,,,,,,,,,,60f8fb8d2c5a8b523880f6ae,610375b6638a24927edab617,2021-07-29_23h57.38.282,Simcolourproject_2stim_asymm_v5,2020.2.10,Win32,60,61025ae37ef11b136ea224fe,,,,,,,,,1208,52,99,1,0,0,response1disk,,7,2,4,1,0,0,rectangle,2,4,1,0,0,2,4,1,0,0,1,2,162,135,1,,,,,,,,
,,,,,,,,,,,,,FF,,,,,,,,0.915,,,,,,,,,,,,,,,,,,,,,,60f8fb8d2c5a8b523880f6ae,610375b6638a24927edab617,2021-07-29_23h57.38.282,Simcolourproject_2stim_asymm_v5,2020.2.10,Win32,60,61025ae37ef11b136ea224fe,,,,,,,,,121,86,58,1,0,0,response1disk,,6,8,-3,1,0,0,rectangle,8,-3,1,0,0,8,-3,1,0,0,1,3,163,73,1,,,,,,,,
,,,,,,,,,,,,,FF,,,,,,,,1.2,,,,,,,,,,,,,,,,,,,,,,60f8fb8d2c5a8b523880f6ae,610375b6638a24927edab617,2021-07-29_23h57.38.282,Simcolourproject_2stim_asymm_v5,2020.2.10,Win32,60,61025ae37ef11b136ea224fe,,,,,,,,,3716,-36,-75,1,0,0,response5disk,,3,8,-8,1,0,0,rectangle,8,-8,1,0,0,8,-8,1,0,0,1,4,164,114,1,,,,,,,,
,,,,,,,,,,,,,FF,,,,,,,,1.95,,,,,,,,,,,,,,,,,,,,,,60f8fb8d2c5a8b523880f6ae,610375b6638a24927edab617,2021-07-29_23h57.38.282,Simcolourproject_2stim_asymm_v5,2020.2.10,Win32,60,61025ae37ef11b136ea224fe,,,,,,,,,2117,87,54,1,0,0,response1disk,,6,2,-4,1,0,0,rectangle,2,-4,1,0,0,2,-4,1,0,0,1,5,165,4,1,,,,,,,,
,,,,,,,,,,,,,FF,,,,,,,,1.517,,,,,,,,,,,,,,,,,,,,,,60f8fb8d2c5a8b523880f6ae,610375b6638a24927edab617,2021-07-29_23h57.38.282,Simcolourproject_2stim_asymm_v5,2020.2.10,Win32,60,61025ae37ef11b136ea224fe,,,,,,,,,3658,76,46,1,0,0,response1disk,,6,0,4,1,0,0,rectangle,0,4,1,0,0,0,4,1,0,0,1,6,166,157,1,,,,,,,,
,,,,,,,,,,,,,FF,,,,,,,,0.975,,,,,,,,,,,,,,,,,,,,,,60f8fb8d2c5a8b523880f6ae,610375b6638a24927edab617,2021-07-29_23h57.38.282,Simcolourproject_2stim_asymm_v5,2020.2.10,Win32,60,61025ae37ef11b136ea224fe,,,,,,,,,2474,60,35,1,0,0,response1disk,,6,7,3,1,0,0,rectangle,7,3,1,0,0,7,3,1,0,0,1,7,167,86,1,,,,,,,,
,,,,,,,,,,,,,FF,,,,,,,,1.099,,,,,,,,,,,,,,,,,,,,,,60f8fb8d2c5a8b523880f6ae,610375b6638a24927edab617,2021-07-29_23h57.38.282,Simcolourproject_2stim_asymm_v5,2020.2.10,Win32,60,61025ae37ef11b136ea224fe,,,,,,,,,1630,82,32,1,0,0,response1disk,,6,6,1,1,0,0,rectangle,6,1,1,0,0,6,1,1,0,0,1,8,168,34,1,,,,,,,,
,,,,,,,,,,,,,FF,,,,,,,,0.967,,,,,,,,,,,,,,,,,,,,,,60f8fb8d2c5a8b523880f6ae,610375b6638a24927edab617,2021-07-29_23h57.38.282,Simcolourproject_2stim_asymm_v5,2020.2.10,Win32,60,61025ae37ef11b136ea224fe,,,,,,,,,1171,74,33,1,0,0,response1disk,,6,22,4,1,0,0,rectangle,22,4,1,0,0,22,4,1,0,0,1,9,169,49,1,,,,,,,,
,,,,,,,,,,,,,FF,,,,,,,,1.017,,,,,,,,,,,,,,,,,,,,,,60f8fb8d2c5a8b523880f6ae,610375b6638a24927edab617,2021-07-29_23h57.38.282,Simcolourproject_2stim_asymm_v5,2020.2.10,Win32,60,61025ae37ef11b136ea224fe,,,,,,,,,245,96,44,1,0,0,response1disk,,6,10,1,1,0,0,rectangle,10,1,1,0,0,10,1,1,0,0,1,10,170,98,1,,,,,,,,
,,,,,,,,,,,,,FF,,,,,,,,1.465,,,,,,,,,,,,,,,,,,,,,,60f8fb8d2c5a8b523880f6ae,610375b6638a24927edab617,2021-07-29_23h57.38.282,Simcolourproject_2stim_asymm_v5,2020.2.10,Win32,60,61025ae37ef11b136ea224fe,,,,,,,,,3907,-82,-61,1,0,0,response5disk,,2,-13,-11,1,0,0,rectangle,-13,-11,1,0,0,-13,-11,1,0,0,1,11,171,46,1,,,,,,,,
,,,,,,,,,,,,,FF,,,,,,,,1.614,,,,,,,,,,,,,,,,,,,,,,60f8fb8d2c5a8b523880f6ae,610375b6638a24927edab617,2021-07-29_23h57.38.282,Simcolourproject_2stim_asymm_v5,2020.2.10,Win32,60,61025ae37ef11b136ea224fe,,,,,,,,,2941,-79,29,1,0,0,response7disk,,1,-3,14,1,0,0,rectangle,-3,14,1,0,0,-3,14,1,0,0,1,12,172,123,1,,,,,,,,
,,,,,,,,,,,,,FF,,,,,,,,1.584,,,,,,,,,,,,,,,,,,,,,,60f8fb8d2c5a8b523880f6ae,610375b6638a24927edab617,2021-07-29_23h57.38.282,Simcolourproject_2stim_asymm_v5,2020.2.10,Win32,60,61025ae37ef11b136ea224fe,,,,,,,,,3997,36,-61,1,0,0,response3disk,,4,8,0,1,0,0,rectangle,8,0,1,0,0,8,0,1,0,0,1,13,173,12,1,,,,,,,,
,,,,,,,,,,,,,FF,,,,,,,,1.416,,,,,,,,,,,,,,,,,,,,,,60f8fb8d2c5a8b523880f6ae,610375b6638a24927edab617,2021-07-29_23h57.38.282,Simcolourproject_2stim_asymm_v5,2020.2.10,Win32,60,61025ae37ef11b136ea224fe,,,,,,,,,1391,76,-42,1,0,0,response3disk,,5,-11,4,1,0,0,rectangle,-11,4,1,0,0,-11,4,1,0,0,1,14,174,109,1,,,,,,,,
,,,,,,,,,,,,,FF,,,,,,,,1.117,,,,,,,,,,,,,,,,,,,,,,60f8fb8d2c5a8b523880f6ae,610375b6638a24927edab617,2021-07-29_23h57.38.282,Simcolourproject_2stim_asymm_v5,2020.2.10,Win32,60,61025ae37ef11b136ea224fe,,,,,,,,,623,76,-36,1,0,0,response3disk,,5,-4,2,1,0,0,rectangle,-4,2,1,0,0,-4,2,1,0,0,1,15,175,158,1,,,,,,,,
,,,,,,,,,,,,,FF,,,,,,,,1.018,,,,,,,,,,,,,,,,,,,,,,60f8fb8d2c5a8b523880f6ae,610375b6638a24927edab617,2021-07-29_23h57.38.282,Simcolourproject_2stim_asymm_v5,2020.2.10,Win32,60,61025ae37ef11b136ea224fe,,,,,,,,,2263,74,-43,1,0,0,response3disk,,5,19,9,1,0,0,rectangle,19,9,1,0,0,19,9,1,0,0,1,16,176,90,1,,,,,,,,
,,,,,,,,,,,,,FF,,,,,,,,0.868,,,,,,,,,,,,,,,,,,,,,,60f8fb8d2c5a8b523880f6ae,610375b6638a24927edab617,2021-07-29_23h57.38.282,Simcolourproject_2stim_asymm_v5,2020.2.10,Win32,60,61025ae37ef11b136ea224fe,,,,,,,,,4005,80,-38,1,0,0,response3disk,,5,-10,3,1,0,0,rectangle,-10,3,1,0,0,-10,3,1,0,0,1,17,177,62,1,,,,,,,,
,,,,,,,,,,,,,FF,,,,,,,,0.967,,,,,,,,,,,,,,,,,,,,,,60f8fb8d2c5a8b523880f6ae,610375b6638a24927edab617,2021-07-29_23h57.38.282,Simcolourproject_2stim_asymm_v5,2020.2.10,Win32,60,61025ae37ef11b136ea224fe,,,,,,,,,3790,67,-32,1,0,0,response3disk,,5,-2,12,1,0,0,rectangle,-2,12,1,0,0,-2,12,1,0,0,1,18,178,38,1,,,,,,,,
,,,,,,,,,,,,,FF,,,,,,,,0.967,,,,,,,,,,,,,,,,,,,,,,60f8fb8d2c5a8b523880f6ae,610375b6638a24927edab617,2021-07-29_23h57.38.282,Simcolourproject_2stim_asymm_v5,2020.2.10,Win32,60,61025ae37ef11b136ea224fe,,,,,,,,,2680,75,49,1,0,0,response1disk,,6,5,1,1,0,0,rectangle,-80,29,1,0,0,-6,5,1,0,0,1,19,179,21,1,,response7disk_3,TRUE,1,1,"[187,5,257,116,180,234,2,122,321,308,28,306,214,46,58,258,302,198,224,23]",2.215,rectangle
,,,,,,,,,,,,,FF,,,,,,,,1.3,,,,,,,,,,,,,,,,,,,,,,60f8fb8d2c5a8b523880f6ae,610375b6638a24927edab617,2021-07-29_23h57.38.282,Simcolourproject_2stim_asymm_v5,2020.2.10,Win32,60,61025ae37ef11b136ea224fe,,,,,,,,,3938,-76,40,1,0,0,response7disk,,1,6,-2,1,0,0,rectangle,6,-2,1,0,0,6,-2,1,0,0,1,20,180,126,1,,,,,,,,
,,,,,,,,,,,,,FF,,,,,,,,1.233,,,,,,,,,,,,,,,,,,,,,,60f8fb8d2c5a8b523880f6ae,610375b6638a24927edab617,2021-07-29_23h57.38.282,Simcolourproject_2stim_asymm_v5,2020.2.10,Win32,60,61025ae37ef11b136ea224fe,,,,,,,,,4136,74,-28,1,0,0,response3disk,,5,-15,6,1,0,0,rectangle,-15,6,1,0,0,-15,6,1,0,0,1,21,181,139,1,,,,,,,,
,,,,,,,,,,,,,FF,,,,,,,,1.767,,,,,,,,,,,,,,,,,,,,,,60f8fb8d2c5a8b523880f6ae,610375b6638a24927edab617,2021-07-29_23h57.38.282,Simcolourproject_2stim_asymm_v5,2020.2.10,Win32,60,61025ae37ef11b136ea224fe,,,,,,,,,3913,-48,69,1,0,0,response7disk,,0,1,-2,1,0,0,rectangle,1,-2,1,0,0,1,-2,1,0,0,1,22,182,13,1,,,,,,,,
,,,,,,,,,,,,,FF,,,,,,,,1.8,,,,,,,,,,,,,,,,,,,,,,60f8fb8d2c5a8b523880f6ae,610375b6638a24927edab617,2021-07-29_23h57.38.282,Simcolourproject_2stim_asymm_v5,2020.2.10,Win32,60,61025ae37ef11b136ea224fe,,,,,,,,,3871,77,-33,1,0,0,response3disk,,5,11,7,1,0,0,rectangle,11,7,1,0,0,11,7,1,0,0,1,23,183,78,1,,,,,,,,
,,,,,,,,,,,,,FF,,,,,,,,0.901,,,,,,,,,,,,,,,,,,,,,,60f8fb8d2c5a8b523880f6ae,610375b6638a24927edab617,2021-07-29_23h57.38.282,Simcolourproject_2stim_asymm_v5,2020.2.10,Win32,60,61025ae37ef11b136ea224fe,,,,,,,,,2141,81,61,1,0,0,response1disk,,6,-3,-1,1,0,0,rectangle,-3,-1,1,0,0,-3,-1,1,0,0,1,24,184,108,1,,,,,,,,
,,,,,,,,,,,,,FF,,,,,,,,1.151,,,,,,,,,,,,,,,,,,,,,,60f8fb8d2c5a8b523880f6ae,610375b6638a24927edab617,2021-07-29_23h57.38.282,Simcolourproject_2stim_asymm_v5,2020.2.10,Win32,60,61025ae37ef11b136ea224fe,,,,,,,,,1841,53,91,1,0,0,response1disk,,7,8,2,1,0,0,rectangle,8,2,1,0,0,8,2,1,0,0,1,25,185,77,1,,,,,,,,
,,,,,,,,,,,,,FF,,,,,,,,0.851,,,,,,,,,,,,,,,,,,,,,,60f8fb8d2c5a8b523880f6ae,610375b6638a24927edab617,2021-07-29_23h57.38.282,Simcolourproject_2stim_asymm_v5,2020.2.10,Win32,60,61025ae37ef11b136ea224fe,,,,,,,,,1634,67,36,1,0,0,response1disk,,6,-9,-10,1,0,0,rectangle,-37,76,1,0,0,2,6,1,0,0,1,26,186,95,1,,response7disk_3,TRUE,0,0,"[187,5,257,116,180,234,2,122,321,308,28,306,214,46,58,258,302,198,224,23]",1.699,rectangle
,,,,,,,,,,,,,FF,,,,,,,,1.088,,,,,,,,,,,,,,,,,,,,,,60f8fb8d2c5a8b523880f6ae,610375b6638a24927edab617,2021-07-29_23h57.38.282,Simcolourproject_2stim_asymm_v5,2020.2.10,Win32,60,61025ae37ef11b136ea224fe,,,,,,,,,1123,63,45,1,0,0,response1disk,,6,1,2,1,0,0,rectangle,1,2,1,0,0,1,2,1,0,0,1,27,187,84,1,,,,,,,,
,,,,,,,,,,,,,FF,,,,,,,,1.9,,,,,,,,,,,,,,,,,,,,,,60f8fb8d2c5a8b523880f6ae,610375b6638a24927edab617,2021-07-29_23h57.38.282,Simcolourproject_2stim_asymm_v5,2020.2.10,Win32,60,61025ae37ef11b136ea224fe,,,,,,,,,1833,53,-98,1,0,0,response3disk,,4,-19,0,1,0,0,rectangle,-19,0,1,0,0,-19,0,1,0,0,1,28,188,107,1,,,,,,,,
,,,,,,,,,,,,,FF,,,,,,,,1.399,,,,,,,,,,,,,,,,,,,,,,60f8fb8d2c5a8b523880f6ae,610375b6638a24927edab617,2021-07-29_23h57.38.282,Simcolourproject_2stim_asymm_v5,2020.2.10,Win32,60,61025ae37ef11b136ea224fe,,,,,,,,,1668,46,-68,1,0,0,response3disk,,4,-6,5,1,0,0,rectangle,-6,5,1,0,0,-6,5,1,0,0,1,29,189,150,1,,,,,,,,
,,,,,,,,,,,,,FF,,,,,,,,1.165,,,,,,,,,,,,,,,,,,,,,,60f8fb8d2c5a8b523880f6ae,610375b6638a24927edab617,2021-07-29_23h57.38.282,Simcolourproject_2stim_asymm_v5,2020.2.10,Win32,60,61025ae37ef11b136ea224fe,,,,,,,,,1631,52,43,1,0,0,response1disk,,6,-3,-1,1,0,0,rectangle,-3,-1,1,0,0,-3,-1,1,0,0,1,30,190,119,1,,,,,,,,
,,,,,,,,,,,,,FF,,,,,,,,1.301,,,,,,,,,,,,,,,,,,,,,,60f8fb8d2c5a8b523880f6ae,610375b6638a24927edab617,2021-07-29_23h57.38.282,Simcolourproject_2stim_asymm_v5,2020.2.10,Win32,60,61025ae37ef11b136ea224fe,,,,,,,,,3739,106,50,1,0,0,response1disk,,6,9,6,1,0,0,rectangle,9,6,1,0,0,9,6,1,0,0,1,31,191,106,1,,,,,,,,
,,,,,,,,,,,,,FF,,,,,,,,1.333,,,,,,,,,,,,,,,,,,,,,,60f8fb8d2c5a8b523880f6ae,610375b6638a24927edab617,2021-07-29_23h57.38.282,Simcolourproject_2stim_asymm_v5,2020.2.10,Win32,60,61025ae37ef11b136ea224fe,,,,,,,,,2163,-42,-89,1,0,0,response5disk,,3,-7,13,1,0,0,rectangle,-7,13,1,0,0,-7,13,1,0,0,1,32,192,18,1,,,,,,,,
,,,,,,,,,,,,,FF,,,,,,,,2.084,,,,,,,,,,,,,,,,,,,,,,60f8fb8d2c5a8b523880f6ae,610375b6638a24927edab617,2021-07-29_23h57.38.282,Simcolourproject_2stim_asymm_v5,2020.2.10,Win32,60,61025ae37ef11b136ea224fe,,,,,,,,,3719,-37,-88,1,0,0,response5disk,,3,-4,-9,1,0,0,rectangle,-4,-9,1,0,0,-4,-9,1,0,0,1,33,193,48,1,,,,,,,,
,,,,,,,,,,,,,FF,,,,,,,,1.233,,,,,,,,,,,,,,,,,,,,,,60f8fb8d2c5a8b523880f6ae,610375b6638a24927edab617,2021-07-29_23h57.38.282,Simcolourproject_2stim_asymm_v5,2020.2.10,Win32,60,61025ae37ef11b136ea224fe,,,,,,,,,2505,79,-26,1,0,0,response3disk,,5,5,0,1,0,0,rectangle,5,0,1,0,0,5,0,1,0,0,1,34,194,155,1,,,,,,,,
,,,,,,,,,,,,,FF,,,,,,,,0.917,,,,,,,,,,,,,,,,,,,,,,60f8fb8d2c5a8b523880f6ae,610375b6638a24927edab617,2021-07-29_23h57.38.282,Simcolourproject_2stim_asymm_v5,2020.2.10,Win32,60,61025ae37ef11b136ea224fe,,,,,,,,,2136,50,25,1,0,0,response1disk,,6,6,-5,1,0,0,rectangle,6,-5,1,0,0,6,-5,1,0,0,1,35,195,147,1,,,,,,,,
,,,,,,,,,,,,,FF,,,,,,,,1.433,,,,,,,,,,,,,,,,,,,,,,60f8fb8d2c5a8b523880f6ae,610375b6638a24927edab617,2021-07-29_23h57.38.282,Simcolourproject_2stim_asymm_v5,2020.2.10,Win32,60,61025ae37ef11b136ea224fe,,,,,,,,,2347,78,-46,1,0,0,response3disk,,5,-3,0,1,0,0,rectangle,-3,0,1,0,0,-3,0,1,0,0,1,36,196,92,1,,,,,,,,
,,,,,,,,,,,,,FF,,,,,,,,1.1,,,,,,,,,,,,,,,,,,,,,,60f8fb8d2c5a8b523880f6ae,610375b6638a24927edab617,2021-07-29_23h57.38.282,Simcolourproject_2stim_asymm_v5,2020.2.10,Win32,60,61025ae37ef11b136ea224fe,,,,,,,,,685,72,46,1,0,0,response1disk,,6,2,-1,1,0,0,rectangle,35,91,1,0,0,-10,4,1,0,0,1,37,197,66,1,,response1disk_3,TRUE,7,7,"[187,5,257,116,180,234,2,122,321,308,28,306,214,46,58,258,302,198,224,23]",1.865,rectangle
,,,,,,,,,,,,,FF,,,,,,,,2.3,,,,,,,,,,,,,,,,,,,,,,60f8fb8d2c5a8b523880f6ae,610375b6638a24927edab617,2021-07-29_23h57.38.282,Simcolourproject_2stim_asymm_v5,2020.2.10,Win32,60,61025ae37ef11b136ea224fe,,,,,,,,,885,-75,32,1,0,0,response7disk,,1,-11,-2,1,0,0,rectangle,-11,-2,1,0,0,-11,-2,1,0,0,1,38,198,56,1,,,,,,,,
,,,,,,,,,,,,,FF,,,,,,,,1.65,,,,,,,,,,,,,,,,,,,,,,60f8fb8d2c5a8b523880f6ae,610375b6638a24927edab617,2021-07-29_23h57.38.282,Simcolourproject_2stim_asymm_v5,2020.2.10,Win32,60,61025ae37ef11b136ea224fe,,,,,,,,,1200,33,-63,1,0,0,response3disk,,4,7,-4,1,0,0,rectangle,7,-4,1,0,0,7,-4,1,0,0,1,39,199,10,1,,,,,,,,
,,,,,,,,,,,,,FF,,,,,,,,1.25,,,,,,,,,,,,,,,,,,,,,,60f8fb8d2c5a8b523880f6ae,610375b6638a24927edab617,2021-07-29_23h57.38.282,Simcolourproject_2stim_asymm_v5,2020.2.10,Win32,60,61025ae37ef11b136ea224fe,,,,,,,,,688,39,-58,1,0,0,response3disk,,4,7,1,1,0,0,rectangle,7,1,1,0,0,7,1,1,0,0,1,40,200,29,1,,,,,,,,
,,,,,,,,,,,,,FF,,,,,,,,1.151,,,,,,,,,,,,,,,,,,,,,,60f8fb8d2c5a8b523880f6ae,610375b6638a24927edab617,2021-07-29_23h57.38.282,Simcolourproject_2stim_asymm_v5,2020.2.10,Win32,60,61025ae37ef11b136ea224fe,,,,,,,,,781,74,49,1,0,0,response1disk,,6,-9,0,1,0,0,rectangle,-9,0,1,0,0,-9,0,1,0,0,1,41,201,75,1,,,,,,,,
,,,,,,,,,,,,,FF,,,,,,,,1.6,,,,,,,,,,,,,,,,,,,,,,60f8fb8d2c5a8b523880f6ae,610375b6638a24927edab617,2021-07-29_23h57.38.282,Simcolourproject_2stim_asymm_v5,2020.2.10,Win32,60,61025ae37ef11b136ea224fe,,,,,,,,,1233,-25,-98,1,0,0,response5disk,,3,8,-5,1,0,0,rectangle,8,-5,1,0,0,8,-5,1,0,0,1,42,202,103,1,,,,,,,,
,,,,,,,,,,,,,FF,,,,,,,,1.016,,,,,,,,,,,,,,,,,,,,,,60f8fb8d2c5a8b523880f6ae,610375b6638a24927edab617,2021-07-29_23h57.38.282,Simcolourproject_2stim_asymm_v5,2020.2.10,Win32,60,61025ae37ef11b136ea224fe,,,,,,,,,175,46,-72,1,0,0,response3disk,,4,-13,8,1,0,0,rectangle,-13,8,1,0,0,-13,8,1,0,0,1,43,203,142,1,,,,,,,,
,,,,,,,,,,,,,FF,,,,,,,,1.233,,,,,,,,,,,,,,,,,,,,,,60f8fb8d2c5a8b523880f6ae,610375b6638a24927edab617,2021-07-29_23h57.38.282,Simcolourproject_2stim_asymm_v5,2020.2.10,Win32,60,61025ae37ef11b136ea224fe,,,,,,,,,166,48,-59,1,0,0,response3disk,,4,9,4,1,0,0,rectangle,9,4,1,0,0,9,4,1,0,0,1,44,204,121,1,,,,,,,,
,,,,,,,,,,,,,FF,,,,,,,,0.882,,,,,,,,,,,,,,,,,,,,,,60f8fb8d2c5a8b523880f6ae,610375b6638a24927edab617,2021-07-29_23h57.38.282,Simcolourproject_2stim_asymm_v5,2020.2.10,Win32,60,61025ae37ef11b136ea224fe,,,,,,,,,3892,75,-22,1,0,0,response3disk,,5,-10,10,1,0,0,rectangle,-10,10,1,0,0,-10,10,1,0,0,1,45,205,57,1,,,,,,,,
,,,,,,,,,,,,,FF,,,,,,,,1.15,,,,,,,,,,,,,,,,,,,,,,60f8fb8d2c5a8b523880f6ae,610375b6638a24927edab617,2021-07-29_23h57.38.282,Simcolourproject_2stim_asymm_v5,2020.2.10,Win32,60,61025ae37ef11b136ea224fe,,,,,,,,,1485,76,37,1,0,0,response1disk,,6,7,2,1,0,0,rectangle,7,2,1,0,0,7,2,1,0,0,1,46,206,0,1,,,,,,,,
,,,,,,,,,,,,,FF,,,,,,,,1.649,,,,,,,,,,,,,,,,,,,,,,60f8fb8d2c5a8b523880f6ae,610375b6638a24927edab617,2021-07-29_23h57.38.282,Simcolourproject_2stim_asymm_v5,2020.2.10,Win32,60,61025ae37ef11b136ea224fe,,,,,,,,,3253,69,45,1,0,0,response1disk,,6,-8,-5,1,0,0,rectangle,-8,-5,1,0,0,-8,-5,1,0,0,1,47,207,97,1,,,,,,,,
,,,,,,,,,,,,,FF,,,,,,,,1.216,,,,,,,,,,,,,,,,,,,,,,60f8fb8d2c5a8b523880f6ae,610375b6638a24927edab617,2021-07-29_23h57.38.282,Simcolourproject_2stim_asymm_v5,2020.2.10,Win32,60,61025ae37ef11b136ea224fe,,,,,,,,,1705,69,40,1,0,0,response1disk,,6,21,-2,1,0,0,rectangle,21,-2,1,0,0,21,-2,1,0,0,1,48,208,100,1,,,,,,,,
,,,,,,,,,,,,,FF,,,,,,,,1.534,,,,,,,,,,,,,,,,,,,,,,60f8fb8d2c5a8b523880f6ae,610375b6638a24927edab617,2021-07-29_23h57.38.282,Simcolourproject_2stim_asymm_v5,2020.2.10,Win32,60,61025ae37ef11b136ea224fe,,,,,,,,,3463,63,82,1,0,0,response1disk,,7,9,0,1,0,0,rectangle,9,0,1,0,0,9,0,1,0,0,1,49,209,85,1,,,,,,,,
,,,,,,,,,,,,,FF,,,,,,,,0.868,,,,,,,,,,,,,,,,,,,,,,60f8fb8d2c5a8b523880f6ae,610375b6638a24927edab617,2021-07-29_23h57.38.282,Simcolourproject_2stim_asymm_v5,2020.2.10,Win32,60,61025ae37ef11b136ea224fe,,,,,,,,,2147,71,34,1,0,0,response1disk,,6,11,2,1,0,0,rectangle,11,2,1,0,0,11,2,1,0,0,1,50,210,83,1,,,,,,,,
,,,,,,,,,,,,,FF,,,,,,,,0.984,,,,,,,,,,,,,,,,,,,,,,60f8fb8d2c5a8b523880f6ae,610375b6638a24927edab617,2021-07-29_23h57.38.282,Simcolourproject_2stim_asymm_v5,2020.2.10,Win32,60,61025ae37ef11b136ea224fe,,,,,,,,,82,80,42,1,0,0,response1disk,,6,5,-4,1,0,0,rectangle,5,-4,1,0,0,5,-4,1,0,0,1,51,211,112,1,,,,,,,,
,,,,,,,,,,,,,FF,,,,,,,,1.498,,,,,,,,,,,,,,,,,,,,,,60f8fb8d2c5a8b523880f6ae,610375b6638a24927edab617,2021-07-29_23h57.38.282,Simcolourproject_2stim_asymm_v5,2020.2.10,Win32,60,61025ae37ef11b136ea224fe,,,,,,,,,3131,79,76,1,0,0,response1disk,,6,4,2,1,0,0,rectangle,4,2,1,0,0,4,2,1,0,0,1,52,212,159,1,,,,,,,,
,,,,,,,,,,,,,FF,,,,,,,,1.366,,,,,,,,,,,,,,,,,,,,,,60f8fb8d2c5a8b523880f6ae,610375b6638a24927edab617,2021-07-29_23h57.38.282,Simcolourproject_2stim_asymm_v5,2020.2.10,Win32,60,61025ae37ef11b136ea224fe,,,,,,,,,3153,75,-51,1,0,0,response3disk,,5,-5,8,1,0,0,rectangle,-41,92,1,0,0,-11,0,1,0,0,1,53,213,6,1,,response7disk_3,TRUE,0,0,"[187,5,257,116,180,234,2,122,321,308,28,306,214,46,58,258,302,198,224,23]",1.783,rectangle
,,,,,,,,,,,,,FF,,,,,,,,2.933,,,,,,,,,,,,,,,,,,,,,,60f8fb8d2c5a8b523880f6ae,610375b6638a24927edab617,2021-07-29_23h57.38.282,Simcolourproject_2stim_asymm_v5,2020.2.10,Win32,60,61025ae37ef11b136ea224fe,,,,,,,,,3740,98,-25,1,0,0,response3disk,,5,0,2,1,0,0,rectangle,0,2,1,0,0,0,2,1,0,0,1,54,214,35,1,,,,,,,,
,,,,,,,,,,,,,FF,,,,,,,,1.2,,,,,,,,,,,,,,,,,,,,,,60f8fb8d2c5a8b523880f6ae,610375b6638a24927edab617,2021-07-29_23h57.38.282,Simcolourproject_2stim_asymm_v5,2020.2.10,Win32,60,61025ae37ef11b136ea224fe,,,,,,,,,3851,67,-33,1,0,0,response3disk,,5,28,-8,1,0,0,rectangle,28,-8,1,0,0,28,-8,1,0,0,1,55,215,23,1,,,,,,,,
,,,,,,,,,,,,,FF,,,,,,,,1.201,,,,,,,,,,,,,,,,,,,,,,60f8fb8d2c5a8b523880f6ae,610375b6638a24927edab617,2021-07-29_23h57.38.282,Simcolourproject_2stim_asymm_v5,2020.2.10,Win32,60,61025ae37ef11b136ea224fe,,,,,,,,,3064,73,-39,1,0,0,response3disk,,5,-2,10,1,0,0,rectangle,-2,10,1,0,0,-2,10,1,0,0,1,56,216,141,1,,,,,,,,
,,,,,,,,,,,,,FF,,,,,,,,2.516,,,,,,,,,,,,,,,,,,,,,,60f8fb8d2c5a8b523880f6ae,610375b6638a24927edab617,2021-07-29_23h57.38.282,Simcolourproject_2stim_asymm_v5,2020.2.10,Win32,60,61025ae37ef11b136ea224fe,,,,,,,,,10,35,-97,1,0,0,response3disk,,4,-8,-4,1,0,0,rectangle,-8,-4,1,0,0,-8,-4,1,0,0,1,57,217,15,1,,,,,,,,
,,,,,,,,,,,,,FF,,,,,,,,1.699,,,,,,,,,,,,,,,,,,,,,,60f8fb8d2c5a8b523880f6ae,610375b6638a24927edab617,2021-07-29_23h57.38.282,Simcolourproject_2stim_asymm_v5,2020.2.10,Win32,60,61025ae37ef11b136ea224fe,,,,,,,,,939,91,67,1,0,0,response1disk,,6,9,-1,1,0,0,rectangle,9,-1,1,0,0,9,-1,1,0,0,1,58,218,128,1,,,,,,,,
,,,,,,,,,,,,,FF,,,,,,,,1.25,,,,,,,,,,,,,,,,,,,,,,60f8fb8d2c5a8b523880f6ae,610375b6638a24927edab617,2021-07-29_23h57.38.282,Simcolourproject_2stim_asymm_v5,2020.2.10,Win32,60,61025ae37ef11b136ea224fe,,,,,,,,,1234,52,-76,1,0,0,response3disk,,4,10,0,1,0,0,rectangle,10,0,1,0,0,10,0,1,0,0,1,59,219,151,1,,,,,,,,
,,,,,,,,,,,,,FF,,,,,,,,1.032,,,,,,,,,,,,,,,,,,,,,,60f8fb8d2c5a8b523880f6ae,610375b6638a24927edab617,2021-07-29_23h57.38.282,Simcolourproject_2stim_asymm_v5,2020.2.10,Win32,60,61025ae37ef11b136ea224fe,,,,,,,,,3279,51,-73,1,0,0,response3disk,,4,13,-6,1,0,0,rectangle,13,-6,1,0,0,13,-6,1,0,0,1,60,220,17,1,,,,,,,,
,,,,,,,,,,,,,FF,,,,,,,,0.934,,,,,,,,,,,,,,,,,,,,,,60f8fb8d2c5a8b523880f6ae,610375b6638a24927edab617,2021-07-29_23h57.38.282,Simcolourproject_2stim_asymm_v5,2020.2.10,Win32,60,61025ae37ef11b136ea224fe,,,,,,,,,2634,31,-53,1,0,0,response3disk,,4,15,-9,1,0,0,rectangle,15,-9,1,0,0,15,-9,1,0,0,1,61,221,30,1,,,,,,,,
,,,,,,,,,,,,,FF,,,,,,,,0.974,,,,,,,,,,,,,,,,,,,,,,60f8fb8d2c5a8b523880f6ae,610375b6638a24927edab617,2021-07-29_23h57.38.282,Simcolourproject_2stim_asymm_v5,2020.2.10,Win32,60,61025ae37ef11b136ea224fe,,,,,,,,,1149,40,-51,1,0,0,response3disk,,4,13,4,1,0,0,rectangle,13,4,1,0,0,13,4,1,0,0,1,62,222,129,1,,,,,,,,
,,,,,,,,,,,,,FF,,,,,,,,1.068,,,,,,,,,,,,,,,,,,,,,,60f8fb8d2c5a8b523880f6ae,610375b6638a24927edab617,2021-07-29_23h57.38.282,Simcolourproject_2stim_asymm_v5,2020.2.10,Win32,60,61025ae37ef11b136ea224fe,,,,,,,,,1127,54,-36,1,0,0,response3disk,,5,20,-3,1,0,0,rectangle,36,79,1,0,0,0,-4,1,0,0,1,63,223,105,1,,response1disk_3,TRUE,7,7,"[187,5,257,116,180,234,2,122,321,308,28,306,214,46,58,258,302,198,224,23]",3.949,rectangle
,,,,,,,,,,,,,FF,,,,,,,,1.285,,,,,,,,,,,,,,,,,,,,,,60f8fb8d2c5a8b523880f6ae,610375b6638a24927edab617,2021-07-29_23h57.38.282,Simcolourproject_2stim_asymm_v5,2020.2.10,Win32,60,61025ae37ef11b136ea224fe,,,,,,,,,2304,41,-59,1,0,0,response3disk,,4,13,-3,1,0,0,rectangle,13,-3,1,0,0,13,-3,1,0,0,1,64,224,87,1,,,,,,,,
,,,,,,,,,,,,,FF,,,,,,,,4.231,,,,,,,,,,,,,,,,,,,,,,60f8fb8d2c5a8b523880f6ae,610375b6638a24927edab617,2021-07-29_23h57.38.282,Simcolourproject_2stim_asymm_v5,2020.2.10,Win32,60,61025ae37ef11b136ea224fe,,,,,,,,,1228,52,-63,1,0,0,response3disk,,4,4,4,1,0,0,rectangle,4,4,1,0,0,4,4,1,0,0,1,65,225,96,1,,,,,,,,
,,,,,,,,,,,,,FF,,,,,,,,1.132,,,,,,,,,,,,,,,,,,,,,,60f8fb8d2c5a8b523880f6ae,610375b6638a24927edab617,2021-07-29_23h57.38.282,Simcolourproject_2stim_asymm_v5,2020.2.10,Win32,60,61025ae37ef11b136ea224fe,,,,,,,,,69,87,-29,1,0,0,response3disk,,5,2,4,1,0,0,rectangle,2,4,1,0,0,2,4,1,0,0,1,66,226,149,1,,,,,,,,
,,,,,,,,,,,,,FF,,,,,,,,1.082,,,,,,,,,,,,,,,,,,,,,,60f8fb8d2c5a8b523880f6ae,610375b6638a24927edab617,2021-07-29_23h57.38.282,Simcolourproject_2stim_asymm_v5,2020.2.10,Win32,60,61025ae37ef11b136ea224fe,,,,,,,,,524,78,36,1,0,0,response1disk,,6,11,-2,1,0,0,rectangle,11,-2,1,0,0,11,-2,1,0,0,1,67,227,116,1,,,,,,,,
,,,,,,,,,,,,,FF,,,,,,,,1.713,,,,,,,,,,,,,,,,,,,,,,60f8fb8d2c5a8b523880f6ae,610375b6638a24927edab617,2021-07-29_23h57.38.282,Simcolourproject_2stim_asymm_v5,2020.2.10,Win32,60,61025ae37ef11b136ea224fe,,,,,,,,,1172,78,41,1,0,0,response1disk,,6,-4,2,1,0,0,rectangle,-4,2,1,0,0,-4,2,1,0,0,1,68,228,41,1,,,,,,,,
,,,,,,,,,,,,,FF,,,,,,,,1.883,,,,,,,,,,,,,,,,,,,,,,60f8fb8d2c5a8b523880f6ae,610375b6638a24927edab617,2021-07-29_23h57.38.282,Simcolourproject_2stim_asymm_v5,2020.2.10,Win32,60,61025ae37ef11b136ea224fe,,,,,,,,,1979,21,-63,1,0,0,response3disk,,4,6,-5,1,0,0,rectangle,6,-5,1,0,0,6,-5,1,0,0,1,69,229,69,1,,,,,,,,
,,,,,,,,,,,,,FF,,,,,,,,1.335,,,,,,,,,,,,,,,,,,,,,,60f8fb8d2c5a8b523880f6ae,610375b6638a24927edab617,2021-07-29_23h57.38.282,Simcolourproject_2stim_asymm_v5,2020.2.10,Win32,60,61025ae37ef11b136ea224fe,,,,,,,,,543,-96,27,1,0,0,response7disk,,1,-12,5,1,0,0,rectangle,-12,5,1,0,0,-12,5,1,0,0,1,70,230,136,1,,,,,,,,
,,,,,,,,,,,,,FF,,,,,,,,1.317,,,,,,,,,,,,,,,,,,,,,,60f8fb8d2c5a8b523880f6ae,610375b6638a24927edab617,2021-07-29_23h57.38.282,Simcolourproject_2stim_asymm_v5,2020.2.10,Win32,60,61025ae37ef11b136ea224fe,,,,,,,,,3587,44,-73,1,0,0,response3disk,,4,9,-3,1,0,0,rectangle,9,-3,1,0,0,9,-3,1,0,0,1,71,231,20,1,,,,,,,,
,,,,,,,,,,,,,FF,,,,,,,,1.25,,,,,,,,,,,,,,,,,,,,,,60f8fb8d2c5a8b523880f6ae,610375b6638a24927edab617,2021-07-29_23h57.38.282,Simcolourproject_2stim_asymm_v5,2020.2.10,Win32,60,61025ae37ef11b136ea224fe,,,,,,,,,2332,70,39,1,0,0,response1disk,,6,13,-2,1,0,0,rectangle,13,-2,1,0,0,13,-2,1,0,0,1,72,232,33,1,,,,,,,,
,,,,,,,,,,,,,FF,,,,,,,,1.767,,,,,,,,,,,,,,,,,,,,,,60f8fb8d2c5a8b523880f6ae,610375b6638a24927edab617,2021-07-29_23h57.38.282,Simcolourproject_2stim_asymm_v5,2020.2.10,Win32,60,61025ae37ef11b136ea224fe,,,,,,,,,4083,71,-41,1,0,0,response3disk,,5,2,-6,1,0,0,rectangle,-63,29,1,0,0,-18,10,1,0,0,1,73,233,1,1,,response7disk_3,TRUE,1,1,"[187,5,257,116,180,234,2,122,321,308,28,306,214,46,58,258,302,198,224,23]",2.148,rectangle
,,,,,,,,,,,,,FF,,,,,,,,1.367,,,,,,,,,,,,,,,,,,,,,,60f8fb8d2c5a8b523880f6ae,610375b6638a24927edab617,2021-07-29_23h57.38.282,Simcolourproject_2stim_asymm_v5,2020.2.10,Win32,60,61025ae37ef11b136ea224fe,,,,,,,,,2864,89,40,1,0,0,response1disk,,6,11,1,1,0,0,rectangle,11,1,1,0,0,11,1,1,0,0,1,74,234,67,1,,,,,,,,
,,,,,,,,,,,,,FF,,,,,,,,0.966,,,,,,,,,,,,,,,,,,,,,,60f8fb8d2c5a8b523880f6ae,610375b6638a24927edab617,2021-07-29_23h57.38.282,Simcolourproject_2stim_asymm_v5,2020.2.10,Win32,60,61025ae37ef11b136ea224fe,,,,,,,,,1938,70,44,1,0,0,response1disk,,6,-9,-1,1,0,0,rectangle,-9,-1,1,0,0,-9,-1,1,0,0,1,75,235,144,1,,,,,,,,
,,,,,,,,,,,,,FF,,,,,,,,1.169,,,,,,,,,,,,,,,,,,,,,,60f8fb8d2c5a8b523880f6ae,610375b6638a24927edab617,2021-07-29_23h57.38.282,Simcolourproject_2stim_asymm_v5,2020.2.10,Win32,60,61025ae37ef11b136ea224fe,,,,,,,,,4319,89,35,1,0,0,response1disk,,6,-23,-2,1,0,0,rectangle,-23,-2,1,0,0,-23,-2,1,0,0,1,76,236,70,1,,,,,,,,
,,,,,,,,,,,,,FF,,,,,,,,0.866,,,,,,,,,,,,,,,,,,,,,,60f8fb8d2c5a8b523880f6ae,610375b6638a24927edab617,2021-07-29_23h57.38.282,Simcolourproject_2stim_asymm_v5,2020.2.10,Win32,60,61025ae37ef11b136ea224fe,,,,,,,,,3657,68,53,1,0,0,response1disk,,6,10,4,1,0,0,rectangle,10,4,1,0,0,10,4,1,0,0,1,77,237,5,1,,,,,,,,
,,,,,,,,,,,,,FF,,,,,,,,2.15,,,,,,,,,,,,,,,,,,,,,,60f8fb8d2c5a8b523880f6ae,610375b6638a24927edab617,2021-07-29_23h57.38.282,Simcolourproject_2stim_asymm_v5,2020.2.10,Win32,60,61025ae37ef11b136ea224fe,,,,,,,,,66,95,78,1,0,0,response1disk,,6,9,1,1,0,0,rectangle,9,1,1,0,0,9,1,1,0,0,1,78,238,2,1,,,,,,,,
,,,,,,,,,,,,,FF,,,,,,,,1.2,,,,,,,,,,,,,,,,,,,,,,60f8fb8d2c5a8b523880f6ae,610375b6638a24927edab617,2021-07-29_23h57.38.282,Simcolourproject_2stim_asymm_v5,2020.2.10,Win32,60,61025ae37ef11b136ea224fe,,,,,,,,,58,33,-59,1,0,0,response3disk,,4,4,-2,1,0,0,rectangle,4,-2,1,0,0,4,-2,1,0,0,1,79,239,88,1,,,,,,,,
,,,,,,,,,,,,,FF,,,,,,,,2.534,,,,,,,,,,,,,,,,,,,,,,60f8fb8d2c5a8b523880f6ae,610375b6638a24927edab617,2021-07-29_23h57.38.282,Simcolourproject_2stim_asymm_v5,2020.2.10,Win32,60,61025ae37ef11b136ea224fe,,,,,,,,,4135,94,65,1,0,0,response1disk,,6,12,-5,1,0,0,rectangle,12,-5,1,0,0,12,-5,1,0,0,1,80,240,58,1,,,,,,,,
,,,,,,,,,,,,,FF,,,,,,,,1.433,,,,,,,,,,,,,,,,,,,,,,60f8fb8d2c5a8b523880f6ae,610375b6638a24927edab617,2021-07-29_23h57.38.282,Simcolourproject_2stim_asymm_v5,2020.2.10,Win32,60,61025ae37ef11b136ea224fe,,,,,,,,,1615,-63,-96,1,0,0,response5disk,,3,0,1,1,0,0,rectangle,0,1,1,0,0,0,1,1,0,0,1,81,241,153,1,,,,,,,,
,,,,,,,,,,,,,FF,,,,,,,,1.518,,,,,,,,,,,,,,,,,,,,,,60f8fb8d2c5a8b523880f6ae,610375b6638a24927edab617,2021-07-29_23h57.38.282,Simcolourproject_2stim_asymm_v5,2020.2.10,Win32,60,61025ae37ef11b136ea224fe,,,,,,,,,3584,68,-51,1,0,0,response3disk,,5,0,0,1,0,0,rectangle,0,0,1,0,0,0,0,1,0,0,1,82,242,137,1,,,,,,,,
,,,,,,,,,,,,,FF,,,,,,,,1.617,,,,,,,,,,,,,,,,,,,,,,60f8fb8d2c5a8b523880f6ae,610375b6638a24927edab617,2021-07-29_23h57.38.282,Simcolourproject_2stim_asymm_v5,2020.2.10,Win32,60,61025ae37ef11b136ea224fe,,,,,,,,,1713,83,37,1,0,0,response1disk,,6,9,-10,1,0,0,rectangle,9,-10,1,0,0,9,-10,1,0,0,1,83,243,82,1,,,,,,,,
,,,,,,,,,,,,,FF,,,,,,,,1.517,,,,,,,,,,,,,,,,,,,,,,60f8fb8d2c5a8b523880f6ae,610375b6638a24927edab617,2021-07-29_23h57.38.282,Simcolourproject_2stim_asymm_v5,2020.2.10,Win32,60,61025ae37ef11b136ea224fe,,,,,,,,,3288,71,40,1,0,0,response1disk,,6,-2,-7,1,0,0,rectangle,-2,-7,1,0,0,-2,-7,1,0,0,1,84,244,59,1,,,,,,,,
,,,,,,,,,,,,,FF,,,,,,,,1.213,,,,,,,,,,,,,,,,,,,,,,60f8fb8d2c5a8b523880f6ae,610375b6638a24927edab617,2021-07-29_23h57.38.282,Simcolourproject_2stim_asymm_v5,2020.2.10,Win32,60,61025ae37ef11b136ea224fe,,,,,,,,,463,-57,-66,1,0,0,response5disk,,3,-3,7,1,0,0,rectangle,-3,7,1,0,0,-3,7,1,0,0,1,85,245,81,1,,,,,,,,
,,,,,,,,,,,,,FF,,,,,,,,1.725,,,,,,,,,,,,,,,,,,,,,,60f8fb8d2c5a8b523880f6ae,610375b6638a24927edab617,2021-07-29_23h57.38.282,Simcolourproject_2stim_asymm_v5,2020.2.10,Win32,60,61025ae37ef11b136ea224fe,,,,,,,,,3414,65,40,1,0,0,response1disk,,6,1,-1,1,0,0,rectangle,1,-1,1,0,0,1,-1,1,0,0,1,86,246,11,1,,,,,,,,
,,,,,,,,,,,,,FF,,,,,,,,1.216,,,,,,,,,,,,,,,,,,,,,,60f8fb8d2c5a8b523880f6ae,610375b6638a24927edab617,2021-07-29_23h57.38.282,Simcolourproject_2stim_asymm_v5,2020.2.10,Win32,60,61025ae37ef11b136ea224fe,,,,,,,,,2306,-30,-65,1,0,0,response5disk,,3,6,7,1,0,0,rectangle,6,7,1,0,0,6,7,1,0,0,1,87,247,60,1,,,,,,,,
,,,,,,,,,,,,,FF,,,,,,,,0.998,,,,,,,,,,,,,,,,,,,,,,60f8fb8d2c5a8b523880f6ae,610375b6638a24927edab617,2021-07-29_23h57.38.282,Simcolourproject_2stim_asymm_v5,2020.2.10,Win32,60,61025ae37ef11b136ea224fe,,,,,,,,,3208,56,43,1,0,0,response1disk,,6,17,9,1,0,0,rectangle,17,9,1,0,0,17,9,1,0,0,1,88,248,80,1,,,,,,,,
,,,,,,,,,,,,,FF,,,,,,,,1.269,,,,,,,,,,,,,,,,,,,,,,60f8fb8d2c5a8b523880f6ae,610375b6638a24927edab617,2021-07-29_23h57.38.282,Simcolourproject_2stim_asymm_v5,2020.2.10,Win32,60,61025ae37ef11b136ea224fe,,,,,,,,,4226,57,77,1,0,0,response1disk,,7,8,2,1,0,0,rectangle,8,2,1,0,0,8,2,1,0,0,1,89,249,125,1,,,,,,,,
,,,,,,,,,,,,,FF,,,,,,,,1.201,,,,,,,,,,,,,,,,,,,,,,60f8fb8d2c5a8b523880f6ae,610375b6638a24927edab617,2021-07-29_23h57.38.282,Simcolourproject_2stim_asymm_v5,2020.2.10,Win32,60,61025ae37ef11b136ea224fe,,,,,,,,,518,35,69,1,0,0,response1disk,,7,-7,3,1,0,0,rectangle,-7,3,1,0,0,-7,3,1,0,0,1,90,250,28,1,,,,,,,,
,,,,,,,,,,,,,FF,,,,,,,,1.385,,,,,,,,,,,,,,,,,,,,,,60f8fb8d2c5a8b523880f6ae,610375b6638a24927edab617,2021-07-29_23h57.38.282,Simcolourproject_2stim_asymm_v5,2020.2.10,Win32,60,61025ae37ef11b136ea224fe,,,,,,,,,996,67,-45,1,0,0,response3disk,,5,5,2,1,0,0,rectangle,5,2,1,0,0,5,2,1,0,0,1,91,251,64,1,,,,,,,,
,,,,,,,,,,,,,FF,,,,,,,,1.1,,,,,,,,,,,,,,,,,,,,,,60f8fb8d2c5a8b523880f6ae,610375b6638a24927edab617,2021-07-29_23h57.38.282,Simcolourproject_2stim_asymm_v5,2020.2.10,Win32,60,61025ae37ef11b136ea224fe,,,,,,,,,4133,66,35,1,0,0,response1disk,,6,10,-1,1,0,0,rectangle,10,-1,1,0,0,10,-1,1,0,0,1,92,252,133,1,,,,,,,,
,,,,,,,,,,,,,FF,,,,,,,,1.332,,,,,,,,,,,,,,,,,,,,,,60f8fb8d2c5a8b523880f6ae,610375b6638a24927edab617,2021-07-29_23h57.38.282,Simcolourproject_2stim_asymm_v5,2020.2.10,Win32,60,61025ae37ef11b136ea224fe,,,,,,,,,2221,83,38,1,0,0,response1disk,,6,1,7,1,0,0,rectangle,1,7,1,0,0,1,7,1,0,0,1,93,253,101,1,,,,,,,,
,,,,,,,,,,,,,FF,,,,,,,,1.048,,,,,,,,,,,,,,,,,,,,,,60f8fb8d2c5a8b523880f6ae,610375b6638a24927edab617,2021-07-29_23h57.38.282,Simcolourproject_2stim_asymm_v5,2020.2.10,Win32,60,61025ae37ef11b136ea224fe,,,,,,,,,467,86,37,1,0,0,response1disk,,6,8,6,1,0,0,rectangle,8,6,1,0,0,8,6,1,0,0,1,94,254,110,1,,,,,,,,
,,,,,,,,,,,,,FF,,,,,,,,1.534,,,,,,,,,,,,,,,,,,,,,,60f8fb8d2c5a8b523880f6ae,610375b6638a24927edab617,2021-07-29_23h57.38.282,Simcolourproject_2stim_asymm_v5,2020.2.10,Win32,60,61025ae37ef11b136ea224fe,,,,,,,,,2887,-104,67,1,0,0,response7disk,,1,-4,5,1,0,0,rectangle,-4,5,1,0,0,-4,5,1,0,0,1,95,255,53,1,,,,,,,,
,,,,,,,,,,,,,FF,,,,,,,,0.918,,,,,,,,,,,,,,,,,,,,,,60f8fb8d2c5a8b523880f6ae,610375b6638a24927edab617,2021-07-29_23h57.38.282,Simcolourproject_2stim_asymm_v5,2020.2.10,Win32,60,61025ae37ef11b136ea224fe,,,,,,,,,3177,53,42,1,0,0,response1disk,,6,5,8,1,0,0,rectangle,-75,-31,1,0,0,-3,2,1,0,0,1,96,256,14,1,,response5disk_3,TRUE,2,2,"[187,5,257,116,180,234,2,122,321,308,28,306,214,46,58,258,302,198,224,23]",2.513,rectangle
,,,,,,,,,,,,,FF,,,,,,,,1.4,,,,,,,,,,,,,,,,,,,,,,60f8fb8d2c5a8b523880f6ae,610375b6638a24927edab617,2021-07-29_23h57.38.282,Simcolourproject_2stim_asymm_v5,2020.2.10,Win32,60,61025ae37ef11b136ea224fe,,,,,,,,,1975,21,-63,1,0,0,response3disk,,4,0,0,1,0,0,rectangle,-51,-86,1,0,0,-2,3,1,0,0,1,97,257,74,1,,response5disk_3,TRUE,3,3,"[187,5,257,116,180,234,2,122,321,308,28,306,214,46,58,258,302,198,224,23]",2.384,rectangle
,,,,,,,,,,,,,FF,,,,,,,,1.585,,,,,,,,,,,,,,,,,,,,,,60f8fb8d2c5a8b523880f6ae,610375b6638a24927edab617,2021-07-29_23h57.38.282,Simcolourproject_2stim_asymm_v5,2020.2.10,Win32,60,61025ae37ef11b136ea224fe,,,,,,,,,2962,37,-65,1,0,0,response3disk,,4,-11,4,1,0,0,rectangle,-11,4,1,0,0,-11,4,1,0,0,1,98,258,124,1,,,,,,,,
,,,,,,,,,,,,,FF,,,,,,,,1.399,,,,,,,,,,,,,,,,,,,,,,60f8fb8d2c5a8b523880f6ae,610375b6638a24927edab617,2021-07-29_23h57.38.282,Simcolourproject_2stim_asymm_v5,2020.2.10,Win32,60,61025ae37ef11b136ea224fe,,,,,,,,,4244,59,45,1,0,0,response1disk,,6,-5,4,1,0,0,rectangle,-5,4,1,0,0,-5,4,1,0,0,1,99,259,54,1,,,,,,,,
,,,,,,,,,,,,,FF,,,,,,,,1.583,,,,,,,,,,,,,,,,,,,,,,60f8fb8d2c5a8b523880f6ae,610375b6638a24927edab617,2021-07-29_23h57.38.282,Simcolourproject_2stim_asymm_v5,2020.2.10,Win32,60,61025ae37ef11b136ea224fe,,,,,,,,,1008,75,-39,1,0,0,response3disk,,5,-4,-1,1,0,0,rectangle,-4,-1,1,0,0,-4,-1,1,0,0,1,100,260,32,1,,,,,,,,
,,,,,,,,,,,,,FF,,,,,,,,1.167,,,,,,,,,,,,,,,,,,,,,,60f8fb8d2c5a8b523880f6ae,610375b6638a24927edab617,2021-07-29_23h57.38.282,Simcolourproject_2stim_asymm_v5,2020.2.10,Win32,60,61025ae37ef11b136ea224fe,,,,,,,,,3023,69,47,1,0,0,response1disk,,6,17,10,1,0,0,rectangle,17,10,1,0,0,17,10,1,0,0,1,101,261,27,1,,,,,,,,
,,,,,,,,,,,,,FF,,,,,,,,1.717,,,,,,,,,,,,,,,,,,,,,,60f8fb8d2c5a8b523880f6ae,610375b6638a24927edab617,2021-07-29_23h57.38.282,Simcolourproject_2stim_asymm_v5,2020.2.10,Win32,60,61025ae37ef11b136ea224fe,,,,,,,,,3158,68,34,1,0,0,response1disk,,6,9,-3,1,0,0,rectangle,9,-3,1,0,0,9,-3,1,0,0,1,102,262,36,1,,,,,,,,
,,,,,,,,,,,,,FF,,,,,,,,1.216,,,,,,,,,,,,,,,,,,,,,,60f8fb8d2c5a8b523880f6ae,610375b6638a24927edab617,2021-07-29_23h57.38.282,Simcolourproject_2stim_asymm_v5,2020.2.10,Win32,60,61025ae37ef11b136ea224fe,,,,,,,,,3295,-43,-75,1,0,0,response5disk,,3,0,-1,1,0,0,rectangle,0,-1,1,0,0,0,-1,1,0,0,1,103,263,47,1,,,,,,,,
,,,,,,,,,,,,,FF,,,,,,,,1.069,,,,,,,,,,,,,,,,,,,,,,60f8fb8d2c5a8b523880f6ae,610375b6638a24927edab617,2021-07-29_23h57.38.282,Simcolourproject_2stim_asymm_v5,2020.2.10,Win32,60,61025ae37ef11b136ea224fe,,,,,,,,,2323,74,42,1,0,0,response1disk,,6,6,1,1,0,0,rectangle,6,1,1,0,0,6,1,1,0,0,1,104,264,55,1,,,,,,,,
,,,,,,,,,,,,,FF,,,,,,,,1.065,,,,,,,,,,,,,,,,,,,,,,60f8fb8d2c5a8b523880f6ae,610375b6638a24927edab617,2021-07-29_23h57.38.282,Simcolourproject_2stim_asymm_v5,2020.2.10,Win32,60,61025ae37ef11b136ea224fe,,,,,,,,,1501,67,37,1,0,0,response1disk,,6,6,2,1,0,0,rectangle,6,2,1,0,0,6,2,1,0,0,1,105,265,154,1,,,,,,,,
,,,,,,,,,,,,,FF,,,,,,,,1.083,,,,,,,,,,,,,,,,,,,,,,60f8fb8d2c5a8b523880f6ae,610375b6638a24927edab617,2021-07-29_23h57.38.282,Simcolourproject_2stim_asymm_v5,2020.2.10,Win32,60,61025ae37ef11b136ea224fe,,,,,,,,,3167,79,58,1,0,0,response1disk,,6,4,2,1,0,0,rectangle,4,2,1,0,0,4,2,1,0,0,1,106,266,31,1,,,,,,,,
,,,,,,,,,,,,,FF,,,,,,,,1.033,,,,,,,,,,,,,,,,,,,,,,60f8fb8d2c5a8b523880f6ae,610375b6638a24927edab617,2021-07-29_23h57.38.282,Simcolourproject_2stim_asymm_v5,2020.2.10,Win32,60,61025ae37ef11b136ea224fe,,,,,,,,,1115,83,-37,1,0,0,response3disk,,5,-11,-4,1,0,0,rectangle,-11,-4,1,0,0,-11,-4,1,0,0,1,107,267,37,1,,,,,,,,
,,,,,,,,,,,,,FF,,,,,,,,1.134,,,,,,,,,,,,,,,,,,,,,,60f8fb8d2c5a8b523880f6ae,610375b6638a24927edab617,2021-07-29_23h57.38.282,Simcolourproject_2stim_asymm_v5,2020.2.10,Win32,60,61025ae37ef11b136ea224fe,,,,,,,,,2230,-66,-70,1,0,0,response5disk,,3,-8,5,1,0,0,rectangle,-8,5,1,0,0,-8,5,1,0,0,1,108,268,3,1,,,,,,,,
,,,,,,,,,,,,,FF,,,,,,,,1.25,,,,,,,,,,,,,,,,,,,,,,60f8fb8d2c5a8b523880f6ae,610375b6638a24927edab617,2021-07-29_23h57.38.282,Simcolourproject_2stim_asymm_v5,2020.2.10,Win32,60,61025ae37ef11b136ea224fe,,,,,,,,,999,90,-22,1,0,0,response3disk,,5,-19,5,1,0,0,rectangle,-19,5,1,0,0,-19,5,1,0,0,1,109,269,25,1,,,,,,,,
,,,,,,,,,,,,,FF,,,,,,,,1.548,,,,,,,,,,,,,,,,,,,,,,60f8fb8d2c5a8b523880f6ae,610375b6638a24927edab617,2021-07-29_23h57.38.282,Simcolourproject_2stim_asymm_v5,2020.2.10,Win32,60,61025ae37ef11b136ea224fe,,,,,,,,,2162,-91,-62,1,0,0,response5disk,,2,0,6,1,0,0,rectangle,0,6,1,0,0,0,6,1,0,0,1,110,270,146,1,,,,,,,,
,,,,,,,,,,,,,FF,,,,,,,,1.435,,,,,,,,,,,,,,,,,,,,,,60f8fb8d2c5a8b523880f6ae,610375b6638a24927edab617,2021-07-29_23h57.38.282,Simcolourproject_2stim_asymm_v5,2020.2.10,Win32,60,61025ae37ef11b136ea224fe,,,,,,,,,270,72,-45,1,0,0,response3disk,,5,1,2,1,0,0,rectangle,1,2,1,0,0,1,2,1,0,0,1,111,271,156,1,,,,,,,,
,,,,,,,,,,,,,FF,,,,,,,,1.056,,,,,,,,,,,,,,,,,,,,,,60f8fb8d2c5a8b523880f6ae,610375b6638a24927edab617,2021-07-29_23h57.38.282,Simcolourproject_2stim_asymm_v5,2020.2.10,Win32,60,61025ae37ef11b136ea224fe,,,,,,,,,302,67,-39,1,0,0,response3disk,,5,6,-3,1,0,0,rectangle,6,-3,1,0,0,6,-3,1,0,0,1,112,272,79,1,,,,,,,,
,,,,,,,,,,,,,FF,,,,,,,,0.983,,,,,,,,,,,,,,,,,,,,,,60f8fb8d2c5a8b523880f6ae,610375b6638a24927edab617,2021-07-29_23h57.38.282,Simcolourproject_2stim_asymm_v5,2020.2.10,Win32,60,61025ae37ef11b136ea224fe,,,,,,,,,3204,-70,-33,1,0,0,response5disk,,2,-19,8,1,0,0,rectangle,-19,8,1,0,0,-19,8,1,0,0,1,113,273,122,1,,,,,,,,
,,,,,,,,,,,,,FF,,,,,,,,1.566,,,,,,,,,,,,,,,,,,,,,,60f8fb8d2c5a8b523880f6ae,610375b6638a24927edab617,2021-07-29_23h57.38.282,Simcolourproject_2stim_asymm_v5,2020.2.10,Win32,60,61025ae37ef11b136ea224fe,,,,,,,,,1657,58,-33,1,0,0,response3disk,,5,-23,11,1,0,0,rectangle,-23,11,1,0,0,-23,11,1,0,0,1,114,274,65,1,,,,,,,,
,,,,,,,,,,,,,FF,,,,,,,,0.767,,,,,,,,,,,,,,,,,,,,,,60f8fb8d2c5a8b523880f6ae,610375b6638a24927edab617,2021-07-29_23h57.38.282,Simcolourproject_2stim_asymm_v5,2020.2.10,Win32,60,61025ae37ef11b136ea224fe,,,,,,,,,2929,50,39,1,0,0,response1disk,,6,-7,6,1,0,0,rectangle,-7,6,1,0,0,-7,6,1,0,0,1,115,275,24,1,,,,,,,,
,,,,,,,,,,,,,FF,,,,,,,,1.65,,,,,,,,,,,,,,,,,,,,,,60f8fb8d2c5a8b523880f6ae,610375b6638a24927edab617,2021-07-29_23h57.38.282,Simcolourproject_2stim_asymm_v5,2020.2.10,Win32,60,61025ae37ef11b136ea224fe,,,,,,,,,1011,77,-53,1,0,0,response3disk,,5,-19,1,1,0,0,rectangle,-19,1,1,0,0,-19,1,1,0,0,1,116,276,118,1,,,,,,,,
,,,,,,,,,,,,,FF,,,,,,,,1.501,,,,,,,,,,,,,,,,,,,,,,60f8fb8d2c5a8b523880f6ae,610375b6638a24927edab617,2021-07-29_23h57.38.282,Simcolourproject_2stim_asymm_v5,2020.2.10,Win32,60,61025ae37ef11b136ea224fe,,,,,,,,,867,87,32,1,0,0,response1disk,,6,8,-2,1,0,0,rectangle,8,-2,1,0,0,8,-2,1,0,0,1,117,277,117,1,,,,,,,,
,,,,,,,,,,,,,FF,,,,,,,,1.1,,,,,,,,,,,,,,,,,,,,,,60f8fb8d2c5a8b523880f6ae,610375b6638a24927edab617,2021-07-29_23h57.38.282,Simcolourproject_2stim_asymm_v5,2020.2.10,Win32,60,61025ae37ef11b136ea224fe,,,,,,,,,2839,-53,-71,1,0,0,response5disk,,3,-7,-4,1,0,0,rectangle,-7,-4,1,0,0,-7,-4,1,0,0,1,118,278,68,1,,,,,,,,
,,,,,,,,,,,,,FF,,,,,,,,0.967,,,,,,,,,,,,,,,,,,,,,,60f8fb8d2c5a8b523880f6ae,610375b6638a24927edab617,2021-07-29_23h57.38.282,Simcolourproject_2stim_asymm_v5,2020.2.10,Win32,60,61025ae37ef11b136ea224fe,,,,,,,,,2425,-64,-31,1,0,0,response5disk,,2,6,15,1,0,0,rectangle,6,15,1,0,0,6,15,1,0,0,1,119,279,148,1,,,,,,,,
,,,,,,,,,,,,,FF,,,,,,,,1.133,,,,,,,,,,,,,,,,,,,,,,60f8fb8d2c5a8b523880f6ae,610375b6638a24927edab617,2021-07-29_23h57.38.282,Simcolourproject_2stim_asymm_v5,2020.2.10,Win32,60,61025ae37ef11b136ea224fe,,,,,,,,,2990,62,45,1,0,0,response1disk,,6,7,3,1,0,0,rectangle,7,3,1,0,0,7,3,1,0,0,1,120,280,145,1,,,,,,,,
,,,,,,,,,,,,,FF,,,,,,,,1.168,,,,,,,,,,,,,,,,,,,,,,60f8fb8d2c5a8b523880f6ae,610375b6638a24927edab617,2021-07-29_23h57.38.282,Simcolourproject_2stim_asymm_v5,2020.2.10,Win32,60,61025ae37ef11b136ea224fe,,,,,,,,,1395,78,26,1,0,0,response1disk,,6,13,-5,1,0,0,rectangle,13,-5,1,0,0,13,-5,1,0,0,1,121,281,42,1,,,,,,,,
,,,,,,,,,,,,,FF,,,,,,,,1.433,,,,,,,,,,,,,,,,,,,,,,60f8fb8d2c5a8b523880f6ae,610375b6638a24927edab617,2021-07-29_23h57.38.282,Simcolourproject_2stim_asymm_v5,2020.2.10,Win32,60,61025ae37ef11b136ea224fe,,,,,,,,,2229,-37,-69,1,0,0,response5disk,,3,-5,-1,1,0,0,rectangle,-5,-1,1,0,0,-5,-1,1,0,0,1,122,282,7,1,,,,,,,,
,,,,,,,,,,,,,FF,,,,,,,,1.233,,,,,,,,,,,,,,,,,,,,,,60f8fb8d2c5a8b523880f6ae,610375b6638a24927edab617,2021-07-29_23h57.38.282,Simcolourproject_2stim_asymm_v5,2020.2.10,Win32,60,61025ae37ef11b136ea224fe,,,,,,,,,2882,65,-28,1,0,0,response3disk,,5,18,-5,1,0,0,rectangle,18,-5,1,0,0,18,-5,1,0,0,1,123,283,76,1,,,,,,,,
,,,,,,,,,,,,,FF,,,,,,,,0.867,,,,,,,,,,,,,,,,,,,,,,60f8fb8d2c5a8b523880f6ae,610375b6638a24927edab617,2021-07-29_23h57.38.282,Simcolourproject_2stim_asymm_v5,2020.2.10,Win32,60,61025ae37ef11b136ea224fe,,,,,,,,,1196,72,-31,1,0,0,response3disk,,5,3,6,1,0,0,rectangle,3,6,1,0,0,3,6,1,0,0,1,124,284,94,1,,,,,,,,
,,,,,,,,,,,,,FF,,,,,,,,1.667,,,,,,,,,,,,,,,,,,,,,,60f8fb8d2c5a8b523880f6ae,610375b6638a24927edab617,2021-07-29_23h57.38.282,Simcolourproject_2stim_asymm_v5,2020.2.10,Win32,60,61025ae37ef11b136ea224fe,,,,,,,,,2251,45,-64,1,0,0,response3disk,,4,1,-9,1,0,0,rectangle,1,-9,1,0,0,1,-9,1,0,0,1,125,285,104,1,,,,,,,,
,,,,,,,,,,,,,FF,,,,,,,,1.533,,,,,,,,,,,,,,,,,,,,,,60f8fb8d2c5a8b523880f6ae,610375b6638a24927edab617,2021-07-29_23h57.38.282,Simcolourproject_2stim_asymm_v5,2020.2.10,Win32,60,61025ae37ef11b136ea224fe,,,,,,,,,1483,74,-42,1,0,0,response3disk,,5,-19,-2,1,0,0,rectangle,-19,-2,1,0,0,-19,-2,1,0,0,1,126,286,93,1,,,,,,,,
,,,,,,,,,,,,,FF,,,,,,,,1.25,,,,,,,,,,,,,,,,,,,,,,60f8fb8d2c5a8b523880f6ae,610375b6638a24927edab617,2021-07-29_23h57.38.282,Simcolourproject_2stim_asymm_v5,2020.2.10,Win32,60,61025ae37ef11b136ea224fe,,,,,,,,,1269,75,-36,1,0,0,response3disk,,5,1,9,1,0,0,rectangle,1,9,1,0,0,1,9,1,0,0,1,127,287,131,1,,,,,,,,
,,,,,,,,,,,,,FF,,,,,,,,1.318,,,,,,,,,,,,,,,,,,,,,,60f8fb8d2c5a8b523880f6ae,610375b6638a24927edab617,2021-07-29_23h57.38.282,Simcolourproject_2stim_asymm_v5,2020.2.10,Win32,60,61025ae37ef11b136ea224fe,,,,,,,,,3529,63,-25,1,0,0,response3disk,,5,9,1,1,0,0,rectangle,9,1,1,0,0,9,1,1,0,0,1,128,288,99,1,,,,,,,,
,,,,,,,,,,,,,FF,,,,,,,,3.116,,,,,,,,,,,,,,,,,,,,,,60f8fb8d2c5a8b523880f6ae,610375b6638a24927edab617,2021-07-29_23h57.38.282,Simcolourproject_2stim_asymm_v5,2020.2.10,Win32,60,61025ae37ef11b136ea224fe,,,,,,,,,2216,70,32,1,0,0,response1disk,,6,11,-4,1,0,0,rectangle,11,-4,1,0,0,11,-4,1,0,0,1,129,289,63,1,,,,,,,,
,,,,,,,,,,,,,FF,,,,,,,,1.249,,,,,,,,,,,,,,,,,,,,,,60f8fb8d2c5a8b523880f6ae,610375b6638a24927edab617,2021-07-29_23h57.38.282,Simcolourproject_2stim_asymm_v5,2020.2.10,Win32,60,61025ae37ef11b136ea224fe,,,,,,,,,3838,77,-31,1,0,0,response3disk,,5,7,0,1,0,0,rectangle,7,0,1,0,0,7,0,1,0,0,1,130,290,39,1,,,,,,,,
,,,,,,,,,,,,,FF,,,,,,,,1.165,,,,,,,,,,,,,,,,,,,,,,60f8fb8d2c5a8b523880f6ae,610375b6638a24927edab617,2021-07-29_23h57.38.282,Simcolourproject_2stim_asymm_v5,2020.2.10,Win32,60,61025ae37ef11b136ea224fe,,,,,,,,,2050,71,36,1,0,0,response1disk,,6,0,-9,1,0,0,rectangle,0,-9,1,0,0,0,-9,1,0,0,1,131,291,113,1,,,,,,,,
,,,,,,,,,,,,,FF,,,,,,,,1.201,,,,,,,,,,,,,,,,,,,,,,60f8fb8d2c5a8b523880f6ae,610375b6638a24927edab617,2021-07-29_23h57.38.282,Simcolourproject_2stim_asymm_v5,2020.2.10,Win32,60,61025ae37ef11b136ea224fe,,,,,,,,,171,-84,-37,1,0,0,response5disk,,2,-15,4,1,0,0,rectangle,-15,4,1,0,0,-15,4,1,0,0,1,132,292,120,1,,,,,,,,
,,,,,,,,,,,,,FF,,,,,,,,1.85,,,,,,,,,,,,,,,,,,,,,,60f8fb8d2c5a8b523880f6ae,610375b6638a24927edab617,2021-07-29_23h57.38.282,Simcolourproject_2stim_asymm_v5,2020.2.10,Win32,60,61025ae37ef11b136ea224fe,,,,,,,,,1927,78,-48,1,0,0,response3disk,,5,1,-4,1,0,0,rectangle,1,-4,1,0,0,1,-4,1,0,0,1,133,293,91,1,,,,,,,,
,,,,,,,,,,,,,FF,,,,,,,,1.4,,,,,,,,,,,,,,,,,,,,,,60f8fb8d2c5a8b523880f6ae,610375b6638a24927edab617,2021-07-29_23h57.38.282,Simcolourproject_2stim_asymm_v5,2020.2.10,Win32,60,61025ae37ef11b136ea224fe,,,,,,,,,4176,72,37,1,0,0,response1disk,,6,0,-4,1,0,0,rectangle,0,-4,1,0,0,0,-4,1,0,0,1,134,294,40,1,,,,,,,,
,,,,,,,,,,,,,FF,,,,,,,,1.3,,,,,,,,,,,,,,,,,,,,,,60f8fb8d2c5a8b523880f6ae,610375b6638a24927edab617,2021-07-29_23h57.38.282,Simcolourproject_2stim_asymm_v5,2020.2.10,Win32,60,61025ae37ef11b136ea224fe,,,,,,,,,707,61,92,1,0,0,response1disk,,7,5,-2,1,0,0,rectangle,5,-2,1,0,0,5,-2,1,0,0,1,135,295,138,1,,,,,,,,
,,,,,,,,,,,,,FF,,,,,,,,1.702,,,,,,,,,,,,,,,,,,,,,,60f8fb8d2c5a8b523880f6ae,610375b6638a24927edab617,2021-07-29_23h57.38.282,Simcolourproject_2stim_asymm_v5,2020.2.10,Win32,60,61025ae37ef11b136ea224fe,,,,,,,,,2772,41,-81,1,0,0,response3disk,,4,3,6,1,0,0,rectangle,3,6,1,0,0,3,6,1,0,0,1,136,296,51,1,,,,,,,,
,,,,,,,,,,,,,FF,,,,,,,,3.316,,,,,,,,,,,,,,,,,,,,,,60f8fb8d2c5a8b523880f6ae,610375b6638a24927edab617,2021-07-29_23h57.38.282,Simcolourproject_2stim_asymm_v5,2020.2.10,Win32,60,61025ae37ef11b136ea224fe,,,,,,,,,2544,31,-63,1,0,0,response3disk,,4,-7,-6,1,0,0,rectangle,-7,-6,1,0,0,-7,-6,1,0,0,1,137,297,127,1,,,,,,,,
,,,,,,,,,,,,,FF,,,,,,,,1.015,,,,,,,,,,,,,,,,,,,,,,60f8fb8d2c5a8b523880f6ae,610375b6638a24927edab617,2021-07-29_23h57.38.282,Simcolourproject_2stim_asymm_v5,2020.2.10,Win32,60,61025ae37ef11b136ea224fe,,,,,,,,,2592,41,95,1,0,0,response1disk,,7,-3,3,1,0,0,rectangle,-3,3,1,0,0,-3,3,1,0,0,1,138,298,102,1,,,,,,,,
,,,,,,,,,,,,,FF,,,,,,,,1.285,,,,,,,,,,,,,,,,,,,,,,60f8fb8d2c5a8b523880f6ae,610375b6638a24927edab617,2021-07-29_23h57.38.282,Simcolourproject_2stim_asymm_v5,2020.2.10,Win32,60,61025ae37ef11b136ea224fe,,,,,,,,,482,68,-39,1,0,0,response3disk,,5,-8,2,1,0,0,rectangle,-8,2,1,0,0,-8,2,1,0,0,1,139,299,132,1,,,,,,,,
,,,,,,,,,,,,,FF,,,,,,,,1.917,,,,,,,,,,,,,,,,,,,,,,60f8fb8d2c5a8b523880f6ae,610375b6638a24927edab617,2021-07-29_23h57.38.282,Simcolourproject_2stim_asymm_v5,2020.2.10,Win32,60,61025ae37ef11b136ea224fe,,,,,,,,,1981,85,-39,1,0,0,response3disk,,5,6,14,1,0,0,rectangle,6,14,1,0,0,6,14,1,0,0,1,140,300,140,1,,,,,,,,
,,,,,,,,,,,,,FF,,,,,,,,1.467,,,,,,,,,,,,,,,,,,,,,,60f8fb8d2c5a8b523880f6ae,610375b6638a24927edab617,2021-07-29_23h57.38.282,Simcolourproject_2stim_asymm_v5,2020.2.10,Win32,60,61025ae37ef11b136ea224fe,,,,,,,,,1068,77,-35,1,0,0,response3disk,,5,0,0,1,0,0,rectangle,33,-84,1,0,0,5,-5,1,0,0,1,141,301,143,1,,response3disk_3,TRUE,4,4,"[187,5,257,116,180,234,2,122,321,308,28,306,214,46,58,258,302,198,224,23]",2.65,rectangle
,,,,,,,,,,,,,FF,,,,,,,,1.135,,,,,,,,,,,,,,,,,,,,,,60f8fb8d2c5a8b523880f6ae,610375b6638a24927edab617,2021-07-29_23h57.38.282,Simcolourproject_2stim_asymm_v5,2020.2.10,Win32,60,61025ae37ef11b136ea224fe,,,,,,,,,2133,70,31,1,0,0,response1disk,,6,12,-9,1,0,0,rectangle,12,-9,1,0,0,12,-9,1,0,0,1,142,302,43,1,,,,,,,,
,,,,,,,,,,,,,FF,,,,,,,,2.218,,,,,,,,,,,,,,,,,,,,,,60f8fb8d2c5a8b523880f6ae,610375b6638a24927edab617,2021-07-29_23h57.38.282,Simcolourproject_2stim_asymm_v5,2020.2.10,Win32,60,61025ae37ef11b136ea224fe,,,,,,,,,2038,-31,-60,1,0,0,response5disk,,3,-1,-5,1,0,0,rectangle,-1,-5,1,0,0,-1,-5,1,0,0,1,143,303,134,1,,,,,,,,
,,,,,,,,,,,,,FF,,,,,,,,1.333,,,,,,,,,,,,,,,,,,,,,,60f8fb8d2c5a8b523880f6ae,610375b6638a24927edab617,2021-07-29_23h57.38.282,Simcolourproject_2stim_asymm_v5,2020.2.10,Win32,60,61025ae37ef11b136ea224fe,,,,,,,,,2013,77,-36,1,0,0,response3disk,,5,-12,-3,1,0,0,rectangle,-12,-3,1,0,0,-12,-3,1,0,0,1,144,304,44,1,,,,,,,,
