key_resp.keys,key_resp.rt,key_resp_14.keys,key_resp_14.rt,key_resp_15.keys,key_resp_15.rt,key_resp_17.keys,key_resp_17.rt,key_resp_9.keys,key_resp_9.rt,key_resp_10.keys,key_resp_10.rt,practice_comparison,Ecc,mouse_5.x,mouse_5.y,mouse_5.leftButton,mouse_5.midButton,mouse_5.rightButton,mouse_5.clicked_name,pracsimilarity,response_time,mouse_10.x,mouse_10.y,mouse_10.leftButton,mouse_10.midButton,mouse_10.rightButton,mouse_10.clicked_name,mouse_7.x,mouse_7.y,mouse_7.leftButton,mouse_7.midButton,mouse_7.rightButton,mouse_6.x,mouse_6.y,mouse_6.leftButton,mouse_6.midButton,mouse_6.rightButton,duringprac.thisRepN,duringprac.thisTrialN,duringprac.thisN,duringprac.thisIndex,duringprac.ran,participant,session,date,expName,psychopyVersion,OS,frameRate,study_id,mouse_7.clicked_name,catchpracsimilarity,catch_response_time,catchnumberprac,catchtrialorderprac,mouse_6.clicked_name,key_resp_22.keys,key_resp_22.rt,realcomparison,mouse.x,mouse.y,mouse.leftButton,mouse.midButton,mouse.rightButton,mouse.clicked_name,Colour2,similarity,mouse_2.x,mouse_2.y,mouse_2.leftButton,mouse_2.midButton,mouse_2.rightButton,mouse_2.clicked_name,mouse_3.x,mouse_3.y,mouse_3.leftButton,mouse_3.midButton,mouse_3.rightButton,mouse_11.x,mouse_11.y,mouse_11.leftButton,mouse_11.midButton,mouse_11.rightButton,trials_2.thisRepN,trials_2.thisTrialN,trials_2.thisN,trials_2.thisIndex,trials_2.ran,Colour1,mouse_3.clicked_name,catchornah,catchsimilarity,catchnumber,catchtrialorder,catchRT,mouse_11.clicked_name
space,1.6712,space,2.443,space,10.138,space,3.1023,space,0.8972,space,3.6004,108,PF,51,78,1,0,0,response1disk_5,7,11.2836,-4,0,1,0,0,rectangle_8,-4,0,1,0,0,-4,0,1,0,0,0,0,0,4,1,60f849ba229ad7f52b11f7e6,6103754867a96bccba0c7108,2021-07-29_21h34.26.029,Simcolourproject_2stim_asymm_v5,2020.2.10,Win32,60,61025ae37ef11b136ea224fe,,,,,,,,,,,,,,,,,,,,,,,,,,,,,,,,,,,,,,,,,,,,,,
,,,,,,,,,,,,89,PF,32,73,1,0,0,response1disk_5,7,3.0989,-2,-4,1,0,0,rectangle_8,-42,-90,1,0,0,10,-6,1,0,0,0,1,1,1,1,60f849ba229ad7f52b11f7e6,6103754867a96bccba0c7108,2021-07-29_21h34.26.029,Simcolourproject_2stim_asymm_v5,2020.2.10,Win32,60,61025ae37ef11b136ea224fe,response5disk_7,3,3.66,3,"[2,5]",rectangle_4,,,,,,,,,,,,,,,,,,,,,,,,,,,,,,,,,,,,,,,,
,,,,,,,,,,,,6,FF,28,95,1,0,0,response1disk_5,7,2.3087,-11,8,1,0,0,rectangle_8,-11,8,1,0,0,-11,8,1,0,0,0,2,2,3,1,60f849ba229ad7f52b11f7e6,6103754867a96bccba0c7108,2021-07-29_21h34.26.029,Simcolourproject_2stim_asymm_v5,2020.2.10,Win32,60,61025ae37ef11b136ea224fe,,,,,,,,,,,,,,,,,,,,,,,,,,,,,,,,,,,,,,,,,,,,,,
,,,,,,,,,,,,145,PF,40,61,1,0,0,response1disk_5,7,4.9352,1,9,1,0,0,rectangle_8,1,9,1,0,0,1,9,1,0,0,0,3,3,2,1,60f849ba229ad7f52b11f7e6,6103754867a96bccba0c7108,2021-07-29_21h34.26.029,Simcolourproject_2stim_asymm_v5,2020.2.10,Win32,60,61025ae37ef11b136ea224fe,,,,,,,,,,,,,,,,,,,,,,,,,,,,,,,,,,,,,,,,,,,,,,
,,,,,,,,,,,,149,PF,34,69,1,0,0,response1disk_5,7,1.9078,-9,-8,1,0,0,rectangle_8,-21,-96,1,0,0,12,-6,1,0,0,0,4,4,6,1,60f849ba229ad7f52b11f7e6,6103754867a96bccba0c7108,2021-07-29_21h34.26.029,Simcolourproject_2stim_asymm_v5,2020.2.10,Win32,60,61025ae37ef11b136ea224fe,response5disk_7,3,2.2206,3,"[2,5]",rectangle_4,,,,,,,,,,,,,,,,,,,,,,,,,,,,,,,,,,,,,,,,
,,,,,,,,,,,,106,FF,-31,-100,1,0,0,response5disk_5,3,3.4147,-6,2,1,0,0,rectangle_8,-6,2,1,0,0,-6,2,1,0,0,0,5,5,5,1,60f849ba229ad7f52b11f7e6,6103754867a96bccba0c7108,2021-07-29_21h34.26.029,Simcolourproject_2stim_asymm_v5,2020.2.10,Win32,60,61025ae37ef11b136ea224fe,,,,,,,,,,,,,,,,,,,,,,,,,,,,,,,,,,,,,,,,,,,,,,
,,,,,,,,,,,,114,FF,33,84,1,0,0,response1disk_5,7,1.4675,2,0,1,0,0,rectangle_8,2,0,1,0,0,2,0,1,0,0,0,6,6,0,1,60f849ba229ad7f52b11f7e6,6103754867a96bccba0c7108,2021-07-29_21h34.26.029,Simcolourproject_2stim_asymm_v5,2020.2.10,Win32,60,61025ae37ef11b136ea224fe,,,,,,,,,,,,,,,,,,,,,,,,,,,,,,,,,,,,,,,,,,,,,,
,,,,,,,,,,,,,FF,,,,,,,,2.8399,,,,,,,,,,,,,,,,,,,,,,60f849ba229ad7f52b11f7e6,6103754867a96bccba0c7108,2021-07-29_21h34.26.029,Simcolourproject_2stim_asymm_v5,2020.2.10,Win32,60,61025ae37ef11b136ea224fe,,,,,,,space,2.8982,1578,36,85,1,0,0,response1disk,,7,-8,-6,1,0,0,rectangle,-8,-6,1,0,0,-8,-6,1,0,0,0,0,0,105,1,,,,,,,,
,,,,,,,,,,,,,FF,,,,,,,,1.9939,,,,,,,,,,,,,,,,,,,,,,60f849ba229ad7f52b11f7e6,6103754867a96bccba0c7108,2021-07-29_21h34.26.029,Simcolourproject_2stim_asymm_v5,2020.2.10,Win32,60,61025ae37ef11b136ea224fe,,,,,,,,,581,37,65,1,0,0,response1disk,,7,17,6,1,0,0,rectangle,17,6,1,0,0,17,6,1,0,0,0,1,1,59,1,,,,,,,,
,,,,,,,,,,,,,FF,,,,,,,,0.7461,,,,,,,,,,,,,,,,,,,,,,60f849ba229ad7f52b11f7e6,6103754867a96bccba0c7108,2021-07-29_21h34.26.029,Simcolourproject_2stim_asymm_v5,2020.2.10,Win32,60,61025ae37ef11b136ea224fe,,,,,,,,,4114,34,62,1,0,0,response1disk,,7,19,-1,1,0,0,rectangle,19,-1,1,0,0,19,-1,1,0,0,0,2,2,77,1,,,,,,,,
,,,,,,,,,,,,,FF,,,,,,,,1.0367,,,,,,,,,,,,,,,,,,,,,,60f849ba229ad7f52b11f7e6,6103754867a96bccba0c7108,2021-07-29_21h34.26.029,Simcolourproject_2stim_asymm_v5,2020.2.10,Win32,60,61025ae37ef11b136ea224fe,,,,,,,,,1706,38,84,1,0,0,response1disk,,7,2,-2,1,0,0,rectangle,2,-2,1,0,0,2,-2,1,0,0,0,3,3,90,1,,,,,,,,
,,,,,,,,,,,,,FF,,,,,,,,0.6054,,,,,,,,,,,,,,,,,,,,,,60f849ba229ad7f52b11f7e6,6103754867a96bccba0c7108,2021-07-29_21h34.26.029,Simcolourproject_2stim_asymm_v5,2020.2.10,Win32,60,61025ae37ef11b136ea224fe,,,,,,,,,4154,24,62,1,0,0,response1disk,,7,-17,-7,1,0,0,rectangle,-17,-7,1,0,0,-17,-7,1,0,0,0,4,4,62,1,,,,,,,,
,,,,,,,,,,,,,FF,,,,,,,,1.4025,,,,,,,,,,,,,,,,,,,,,,60f849ba229ad7f52b11f7e6,6103754867a96bccba0c7108,2021-07-29_21h34.26.029,Simcolourproject_2stim_asymm_v5,2020.2.10,Win32,60,61025ae37ef11b136ea224fe,,,,,,,,,4278,41,77,1,0,0,response1disk,,7,-5,7,1,0,0,rectangle,-5,7,1,0,0,-5,7,1,0,0,0,5,5,116,1,,,,,,,,
,,,,,,,,,,,,,FF,,,,,,,,0.6124,,,,,,,,,,,,,,,,,,,,,,60f849ba229ad7f52b11f7e6,6103754867a96bccba0c7108,2021-07-29_21h34.26.029,Simcolourproject_2stim_asymm_v5,2020.2.10,Win32,60,61025ae37ef11b136ea224fe,,,,,,,,,1865,41,67,1,0,0,response1disk,,7,17,1,1,0,0,rectangle,17,1,1,0,0,17,1,1,0,0,0,6,6,153,1,,,,,,,,
,,,,,,,,,,,,,FF,,,,,,,,2.24,,,,,,,,,,,,,,,,,,,,,,60f849ba229ad7f52b11f7e6,6103754867a96bccba0c7108,2021-07-29_21h34.26.029,Simcolourproject_2stim_asymm_v5,2020.2.10,Win32,60,61025ae37ef11b136ea224fe,,,,,,,,,1667,82,-38,1,0,0,response3disk,,5,18,-2,1,0,0,rectangle,18,-2,1,0,0,18,-2,1,0,0,0,7,7,152,1,,,,,,,,
,,,,,,,,,,,,,FF,,,,,,,,0.7182,,,,,,,,,,,,,,,,,,,,,,60f849ba229ad7f52b11f7e6,6103754867a96bccba0c7108,2021-07-29_21h34.26.029,Simcolourproject_2stim_asymm_v5,2020.2.10,Win32,60,61025ae37ef11b136ea224fe,,,,,,,,,1339,35,74,1,0,0,response1disk,,7,-10,-4,1,0,0,rectangle,-10,-4,1,0,0,-10,-4,1,0,0,0,8,8,1,1,,,,,,,,
,,,,,,,,,,,,,FF,,,,,,,,1.9336,,,,,,,,,,,,,,,,,,,,,,60f849ba229ad7f52b11f7e6,6103754867a96bccba0c7108,2021-07-29_21h34.26.029,Simcolourproject_2stim_asymm_v5,2020.2.10,Win32,60,61025ae37ef11b136ea224fe,,,,,,,,,2785,75,24,1,0,0,response1disk,,6,-27,-14,1,0,0,rectangle,-27,-14,1,0,0,-27,-14,1,0,0,0,9,9,111,1,,,,,,,,
,,,,,,,,,,,,,FF,,,,,,,,1.694,,,,,,,,,,,,,,,,,,,,,,60f849ba229ad7f52b11f7e6,6103754867a96bccba0c7108,2021-07-29_21h34.26.029,Simcolourproject_2stim_asymm_v5,2020.2.10,Win32,60,61025ae37ef11b136ea224fe,,,,,,,,,1689,44,-69,1,0,0,response3disk,,4,5,2,1,0,0,rectangle,5,2,1,0,0,5,2,1,0,0,0,10,10,28,1,,,,,,,,
,,,,,,,,,,,,,FF,,,,,,,,1.2245,,,,,,,,,,,,,,,,,,,,,,60f849ba229ad7f52b11f7e6,6103754867a96bccba0c7108,2021-07-29_21h34.26.029,Simcolourproject_2stim_asymm_v5,2020.2.10,Win32,60,61025ae37ef11b136ea224fe,,,,,,,,,683,43,78,1,0,0,response1disk,,7,-9,9,1,0,0,rectangle,-9,9,1,0,0,-9,9,1,0,0,0,11,11,6,1,,,,,,,,
,,,,,,,,,,,,,FF,,,,,,,,0.726,,,,,,,,,,,,,,,,,,,,,,60f849ba229ad7f52b11f7e6,6103754867a96bccba0c7108,2021-07-29_21h34.26.029,Simcolourproject_2stim_asymm_v5,2020.2.10,Win32,60,61025ae37ef11b136ea224fe,,,,,,,,,3224,34,72,1,0,0,response1disk,,7,8,-6,1,0,0,rectangle,8,-6,1,0,0,8,-6,1,0,0,0,12,12,26,1,,,,,,,,
,,,,,,,,,,,,,FF,,,,,,,,0.4979,,,,,,,,,,,,,,,,,,,,,,60f849ba229ad7f52b11f7e6,6103754867a96bccba0c7108,2021-07-29_21h34.26.029,Simcolourproject_2stim_asymm_v5,2020.2.10,Win32,60,61025ae37ef11b136ea224fe,,,,,,,,,3317,25,66,1,0,0,response1disk,,7,-10,-8,1,0,0,rectangle,-10,-8,1,0,0,-10,-8,1,0,0,0,13,13,52,1,,,,,,,,
,,,,,,,,,,,,,FF,,,,,,,,1.4613,,,,,,,,,,,,,,,,,,,,,,60f849ba229ad7f52b11f7e6,6103754867a96bccba0c7108,2021-07-29_21h34.26.029,Simcolourproject_2stim_asymm_v5,2020.2.10,Win32,60,61025ae37ef11b136ea224fe,,,,,,,,,1614,28,-71,1,0,0,response3disk,,4,10,4,1,0,0,rectangle,10,4,1,0,0,10,4,1,0,0,0,14,14,27,1,,,,,,,,
,,,,,,,,,,,,,FF,,,,,,,,0.9797,,,,,,,,,,,,,,,,,,,,,,60f849ba229ad7f52b11f7e6,6103754867a96bccba0c7108,2021-07-29_21h34.26.029,Simcolourproject_2stim_asymm_v5,2020.2.10,Win32,60,61025ae37ef11b136ea224fe,,,,,,,,,26,46,86,1,0,0,response1disk,,7,-5,-7,1,0,0,rectangle,-5,-7,1,0,0,-5,-7,1,0,0,0,15,15,12,1,,,,,,,,
,,,,,,,,,,,,,FF,,,,,,,,2.357,,,,,,,,,,,,,,,,,,,,,,60f849ba229ad7f52b11f7e6,6103754867a96bccba0c7108,2021-07-29_21h34.26.029,Simcolourproject_2stim_asymm_v5,2020.2.10,Win32,60,61025ae37ef11b136ea224fe,,,,,,,,,3284,-39,-78,1,0,0,response5disk,,3,-14,0,1,0,0,rectangle,-14,0,1,0,0,-14,0,1,0,0,0,16,16,84,1,,,,,,,,
,,,,,,,,,,,,,FF,,,,,,,,2.2113,,,,,,,,,,,,,,,,,,,,,,60f849ba229ad7f52b11f7e6,6103754867a96bccba0c7108,2021-07-29_21h34.26.029,Simcolourproject_2stim_asymm_v5,2020.2.10,Win32,60,61025ae37ef11b136ea224fe,,,,,,,,,795,48,89,1,0,0,response1disk,,7,-7,-9,1,0,0,rectangle,-7,-9,1,0,0,-7,-9,1,0,0,0,17,17,73,1,,,,,,,,
,,,,,,,,,,,,,FF,,,,,,,,0.781,,,,,,,,,,,,,,,,,,,,,,60f849ba229ad7f52b11f7e6,6103754867a96bccba0c7108,2021-07-29_21h34.26.029,Simcolourproject_2stim_asymm_v5,2020.2.10,Win32,60,61025ae37ef11b136ea224fe,,,,,,,,,1711,21,72,1,0,0,response1disk,,7,-11,4,1,0,0,rectangle,-11,4,1,0,0,-11,4,1,0,0,0,18,18,127,1,,,,,,,,
,,,,,,,,,,,,,FF,,,,,,,,1.5965,,,,,,,,,,,,,,,,,,,,,,60f849ba229ad7f52b11f7e6,6103754867a96bccba0c7108,2021-07-29_21h34.26.029,Simcolourproject_2stim_asymm_v5,2020.2.10,Win32,60,61025ae37ef11b136ea224fe,,,,,,,,,4164,-81,-48,1,0,0,response5disk,,2,0,2,1,0,0,rectangle,0,2,1,0,0,0,2,1,0,0,0,19,19,0,1,,,,,,,,
,,,,,,,,,,,,,FF,,,,,,,,1.4279,,,,,,,,,,,,,,,,,,,,,,60f849ba229ad7f52b11f7e6,6103754867a96bccba0c7108,2021-07-29_21h34.26.029,Simcolourproject_2stim_asymm_v5,2020.2.10,Win32,60,61025ae37ef11b136ea224fe,,,,,,,,,3440,42,-90,1,0,0,response3disk,,4,-1,-2,1,0,0,rectangle,-1,-2,1,0,0,-1,-2,1,0,0,0,20,20,100,1,,,,,,,,
,,,,,,,,,,,,,FF,,,,,,,,3.4937,,,,,,,,,,,,,,,,,,,,,,60f849ba229ad7f52b11f7e6,6103754867a96bccba0c7108,2021-07-29_21h34.26.029,Simcolourproject_2stim_asymm_v5,2020.2.10,Win32,60,61025ae37ef11b136ea224fe,,,,,,,,,1886,-36,100,1,0,0,response7disk,,0,-6,-6,1,0,0,rectangle,-6,-6,1,0,0,-6,-6,1,0,0,0,21,21,10,1,,,,,,,,
,,,,,,,,,,,,,FF,,,,,,,,1.6471,,,,,,,,,,,,,,,,,,,,,,60f849ba229ad7f52b11f7e6,6103754867a96bccba0c7108,2021-07-29_21h34.26.029,Simcolourproject_2stim_asymm_v5,2020.2.10,Win32,60,61025ae37ef11b136ea224fe,,,,,,,,,3772,67,-25,1,0,0,response3disk,,5,-2,-4,1,0,0,rectangle,-2,-4,1,0,0,-2,-4,1,0,0,0,22,22,124,1,,,,,,,,
,,,,,,,,,,,,,FF,,,,,,,,0.732,,,,,,,,,,,,,,,,,,,,,,60f849ba229ad7f52b11f7e6,6103754867a96bccba0c7108,2021-07-29_21h34.26.029,Simcolourproject_2stim_asymm_v5,2020.2.10,Win32,60,61025ae37ef11b136ea224fe,,,,,,,,,2145,24,69,1,0,0,response1disk,,7,0,-4,1,0,0,rectangle,0,-4,1,0,0,0,-4,1,0,0,0,23,23,138,1,,,,,,,,
,,,,,,,,,,,,,FF,,,,,,,,0.8132,,,,,,,,,,,,,,,,,,,,,,60f849ba229ad7f52b11f7e6,6103754867a96bccba0c7108,2021-07-29_21h34.26.029,Simcolourproject_2stim_asymm_v5,2020.2.10,Win32,60,61025ae37ef11b136ea224fe,,,,,,,,,104,28,64,1,0,0,response1disk,,7,7,4,1,0,0,rectangle,7,4,1,0,0,7,4,1,0,0,0,24,24,31,1,,,,,,,,
,,,,,,,,,,,,,FF,,,,,,,,0.5661,,,,,,,,,,,,,,,,,,,,,,60f849ba229ad7f52b11f7e6,6103754867a96bccba0c7108,2021-07-29_21h34.26.029,Simcolourproject_2stim_asymm_v5,2020.2.10,Win32,60,61025ae37ef11b136ea224fe,,,,,,,,,1593,26,52,1,0,0,response1disk,,7,1,2,1,0,0,rectangle,1,2,1,0,0,1,2,1,0,0,0,25,25,144,1,,,,,,,,
,,,,,,,,,,,,,FF,,,,,,,,1.2307,,,,,,,,,,,,,,,,,,,,,,60f849ba229ad7f52b11f7e6,6103754867a96bccba0c7108,2021-07-29_21h34.26.029,Simcolourproject_2stim_asymm_v5,2020.2.10,Win32,60,61025ae37ef11b136ea224fe,,,,,,,,,2942,-36,-67,1,0,0,response5disk,,3,-19,-6,1,0,0,rectangle,-19,-6,1,0,0,-19,-6,1,0,0,0,26,26,21,1,,,,,,,,
,,,,,,,,,,,,,FF,,,,,,,,1.5529,,,,,,,,,,,,,,,,,,,,,,60f849ba229ad7f52b11f7e6,6103754867a96bccba0c7108,2021-07-29_21h34.26.029,Simcolourproject_2stim_asymm_v5,2020.2.10,Win32,60,61025ae37ef11b136ea224fe,,,,,,,,,1890,30,-75,1,0,0,response3disk,,4,-3,4,1,0,0,rectangle,-3,4,1,0,0,-3,4,1,0,0,0,27,27,101,1,,,,,,,,
,,,,,,,,,,,,,FF,,,,,,,,2.4368,,,,,,,,,,,,,,,,,,,,,,60f849ba229ad7f52b11f7e6,6103754867a96bccba0c7108,2021-07-29_21h34.26.029,Simcolourproject_2stim_asymm_v5,2020.2.10,Win32,60,61025ae37ef11b136ea224fe,,,,,,,,,1407,29,54,1,0,0,response1disk,,7,7,-8,1,0,0,rectangle,7,-8,1,0,0,7,-8,1,0,0,0,28,28,117,1,,,,,,,,
,,,,,,,,,,,,,FF,,,,,,,,1.1242,,,,,,,,,,,,,,,,,,,,,,60f849ba229ad7f52b11f7e6,6103754867a96bccba0c7108,2021-07-29_21h34.26.029,Simcolourproject_2stim_asymm_v5,2020.2.10,Win32,60,61025ae37ef11b136ea224fe,,,,,,,,,1897,34,-92,1,0,0,response3disk,,4,-6,-8,1,0,0,rectangle,-6,-8,1,0,0,-6,-8,1,0,0,0,29,29,130,1,,,,,,,,
,,,,,,,,,,,,,FF,,,,,,,,1.5801,,,,,,,,,,,,,,,,,,,,,,60f849ba229ad7f52b11f7e6,6103754867a96bccba0c7108,2021-07-29_21h34.26.029,Simcolourproject_2stim_asymm_v5,2020.2.10,Win32,60,61025ae37ef11b136ea224fe,,,,,,,,,565,28,48,1,0,0,response1disk,,7,9,-9,1,0,0,rectangle,9,-9,1,0,0,9,-9,1,0,0,0,30,30,75,1,,,,,,,,
,,,,,,,,,,,,,FF,,,,,,,,0.7317,,,,,,,,,,,,,,,,,,,,,,60f849ba229ad7f52b11f7e6,6103754867a96bccba0c7108,2021-07-29_21h34.26.029,Simcolourproject_2stim_asymm_v5,2020.2.10,Win32,60,61025ae37ef11b136ea224fe,,,,,,,,,4019,25,61,1,0,0,response1disk,,7,21,-4,1,0,0,rectangle,21,-4,1,0,0,21,-4,1,0,0,0,31,31,49,1,,,,,,,,
,,,,,,,,,,,,,FF,,,,,,,,0.7199,,,,,,,,,,,,,,,,,,,,,,60f849ba229ad7f52b11f7e6,6103754867a96bccba0c7108,2021-07-29_21h34.26.029,Simcolourproject_2stim_asymm_v5,2020.2.10,Win32,60,61025ae37ef11b136ea224fe,,,,,,,,,546,27,78,1,0,0,response1disk,,7,6,8,1,0,0,rectangle,6,8,1,0,0,6,8,1,0,0,0,32,32,145,1,,,,,,,,
,,,,,,,,,,,,,FF,,,,,,,,1.6455,,,,,,,,,,,,,,,,,,,,,,60f849ba229ad7f52b11f7e6,6103754867a96bccba0c7108,2021-07-29_21h34.26.029,Simcolourproject_2stim_asymm_v5,2020.2.10,Win32,60,61025ae37ef11b136ea224fe,,,,,,,,,2298,-81,-38,1,0,0,response5disk,,2,0,0,1,0,0,rectangle,0,0,1,0,0,0,0,1,0,0,0,33,33,126,1,,,,,,,,
,,,,,,,,,,,,,FF,,,,,,,,0.558,,,,,,,,,,,,,,,,,,,,,,60f849ba229ad7f52b11f7e6,6103754867a96bccba0c7108,2021-07-29_21h34.26.029,Simcolourproject_2stim_asymm_v5,2020.2.10,Win32,60,61025ae37ef11b136ea224fe,,,,,,,,,3261,45,52,1,0,0,response1disk,,7,14,-8,1,0,0,rectangle,14,-8,1,0,0,14,-8,1,0,0,0,34,34,109,1,,,,,,,,
,,,,,,,,,,,,,FF,,,,,,,,0.6028,,,,,,,,,,,,,,,,,,,,,,60f849ba229ad7f52b11f7e6,6103754867a96bccba0c7108,2021-07-29_21h34.26.029,Simcolourproject_2stim_asymm_v5,2020.2.10,Win32,60,61025ae37ef11b136ea224fe,,,,,,,,,4204,36,67,1,0,0,response1disk,,7,7,-9,1,0,0,rectangle,7,-9,1,0,0,7,-9,1,0,0,0,35,35,51,1,,,,,,,,
,,,,,,,,,,,,,FF,,,,,,,,1.8513,,,,,,,,,,,,,,,,,,,,,,60f849ba229ad7f52b11f7e6,6103754867a96bccba0c7108,2021-07-29_21h34.26.029,Simcolourproject_2stim_asymm_v5,2020.2.10,Win32,60,61025ae37ef11b136ea224fe,,,,,,,,,1758,-46,-72,1,0,0,response5disk,,3,-10,-7,1,0,0,rectangle,-10,-7,1,0,0,-10,-7,1,0,0,0,36,36,57,1,,,,,,,,
,,,,,,,,,,,,,FF,,,,,,,,1.7301,,,,,,,,,,,,,,,,,,,,,,60f849ba229ad7f52b11f7e6,6103754867a96bccba0c7108,2021-07-29_21h34.26.029,Simcolourproject_2stim_asymm_v5,2020.2.10,Win32,60,61025ae37ef11b136ea224fe,,,,,,,,,1694,41,55,1,0,0,response1disk,,7,2,7,1,0,0,rectangle,2,7,1,0,0,2,7,1,0,0,0,37,37,30,1,,,,,,,,
,,,,,,,,,,,,,FF,,,,,,,,3.7621,,,,,,,,,,,,,,,,,,,,,,60f849ba229ad7f52b11f7e6,6103754867a96bccba0c7108,2021-07-29_21h34.26.029,Simcolourproject_2stim_asymm_v5,2020.2.10,Win32,60,61025ae37ef11b136ea224fe,,,,,,,,,4318,32,69,1,0,0,response1disk,,7,-6,-1,1,0,0,rectangle,-6,-1,1,0,0,-6,-1,1,0,0,0,38,38,114,1,,,,,,,,
,,,,,,,,,,,,,FF,,,,,,,,1.5616,,,,,,,,,,,,,,,,,,,,,,60f849ba229ad7f52b11f7e6,6103754867a96bccba0c7108,2021-07-29_21h34.26.029,Simcolourproject_2stim_asymm_v5,2020.2.10,Win32,60,61025ae37ef11b136ea224fe,,,,,,,,,368,-81,50,1,0,0,response7disk,,1,4,7,1,0,0,rectangle,4,7,1,0,0,4,7,1,0,0,0,39,39,128,1,,,,,,,,
,,,,,,,,,,,,,FF,,,,,,,,1.0461,,,,,,,,,,,,,,,,,,,,,,60f849ba229ad7f52b11f7e6,6103754867a96bccba0c7108,2021-07-29_21h34.26.029,Simcolourproject_2stim_asymm_v5,2020.2.10,Win32,60,61025ae37ef11b136ea224fe,,,,,,,,,1956,-74,38,1,0,0,response7disk,,1,-4,-4,1,0,0,rectangle,-4,-4,1,0,0,-4,-4,1,0,0,0,40,40,88,1,,,,,,,,
,,,,,,,,,,,,,FF,,,,,,,,0.8442,,,,,,,,,,,,,,,,,,,,,,60f849ba229ad7f52b11f7e6,6103754867a96bccba0c7108,2021-07-29_21h34.26.029,Simcolourproject_2stim_asymm_v5,2020.2.10,Win32,60,61025ae37ef11b136ea224fe,,,,,,,,,1388,43,84,1,0,0,response1disk,,7,1,15,1,0,0,rectangle,1,15,1,0,0,1,15,1,0,0,0,41,41,61,1,,,,,,,,
,,,,,,,,,,,,,FF,,,,,,,,3.5381,,,,,,,,,,,,,,,,,,,,,,60f849ba229ad7f52b11f7e6,6103754867a96bccba0c7108,2021-07-29_21h34.26.029,Simcolourproject_2stim_asymm_v5,2020.2.10,Win32,60,61025ae37ef11b136ea224fe,,,,,,,,,3565,53,-44,1,0,0,response3disk,,5,10,5,1,0,0,rectangle,10,5,1,0,0,10,5,1,0,0,0,42,42,118,1,,,,,,,,
,,,,,,,,,,,,,FF,,,,,,,,0.7238,,,,,,,,,,,,,,,,,,,,,,60f849ba229ad7f52b11f7e6,6103754867a96bccba0c7108,2021-07-29_21h34.26.029,Simcolourproject_2stim_asymm_v5,2020.2.10,Win32,60,61025ae37ef11b136ea224fe,,,,,,,,,419,31,56,1,0,0,response1disk,,7,-2,10,1,0,0,rectangle,-2,10,1,0,0,-2,10,1,0,0,0,43,43,131,1,,,,,,,,
,,,,,,,,,,,,,FF,,,,,,,,0.5486,,,,,,,,,,,,,,,,,,,,,,60f849ba229ad7f52b11f7e6,6103754867a96bccba0c7108,2021-07-29_21h34.26.029,Simcolourproject_2stim_asymm_v5,2020.2.10,Win32,60,61025ae37ef11b136ea224fe,,,,,,,,,469,33,56,1,0,0,response1disk,,7,11,2,1,0,0,rectangle,11,2,1,0,0,11,2,1,0,0,0,44,44,32,1,,,,,,,,
,,,,,,,,,,,,,FF,,,,,,,,1.3455,,,,,,,,,,,,,,,,,,,,,,60f849ba229ad7f52b11f7e6,6103754867a96bccba0c7108,2021-07-29_21h34.26.029,Simcolourproject_2stim_asymm_v5,2020.2.10,Win32,60,61025ae37ef11b136ea224fe,,,,,,,,,863,-40,-74,1,0,0,response5disk,,3,6,-1,1,0,0,rectangle,6,-1,1,0,0,6,-1,1,0,0,0,45,45,68,1,,,,,,,,
,,,,,,,,,,,,,FF,,,,,,,,1.8931,,,,,,,,,,,,,,,,,,,,,,60f849ba229ad7f52b11f7e6,6103754867a96bccba0c7108,2021-07-29_21h34.26.029,Simcolourproject_2stim_asymm_v5,2020.2.10,Win32,60,61025ae37ef11b136ea224fe,,,,,,,,,80,61,94,1,0,0,response1disk,,7,3,-8,1,0,0,rectangle,3,-8,1,0,0,3,-8,1,0,0,0,46,46,104,1,,,,,,,,
,,,,,,,,,,,,,FF,,,,,,,,1.2058,,,,,,,,,,,,,,,,,,,,,,60f849ba229ad7f52b11f7e6,6103754867a96bccba0c7108,2021-07-29_21h34.26.029,Simcolourproject_2stim_asymm_v5,2020.2.10,Win32,60,61025ae37ef11b136ea224fe,,,,,,,,,4101,36,67,1,0,0,response1disk,,7,-15,-10,1,0,0,rectangle,-15,-10,1,0,0,-15,-10,1,0,0,0,47,47,50,1,,,,,,,,
,,,,,,,,,,,,,FF,,,,,,,,1.6954,,,,,,,,,,,,,,,,,,,,,,60f849ba229ad7f52b11f7e6,6103754867a96bccba0c7108,2021-07-29_21h34.26.029,Simcolourproject_2stim_asymm_v5,2020.2.10,Win32,60,61025ae37ef11b136ea224fe,,,,,,,,,2099,-65,-49,1,0,0,response5disk,,2,-18,0,1,0,0,rectangle,-18,0,1,0,0,-18,0,1,0,0,0,48,48,35,1,,,,,,,,
,,,,,,,,,,,,,FF,,,,,,,,0.5748,,,,,,,,,,,,,,,,,,,,,,60f849ba229ad7f52b11f7e6,6103754867a96bccba0c7108,2021-07-29_21h34.26.029,Simcolourproject_2stim_asymm_v5,2020.2.10,Win32,60,61025ae37ef11b136ea224fe,,,,,,,,,2902,36,67,1,0,0,response1disk,,7,13,0,1,0,0,rectangle,13,0,1,0,0,13,0,1,0,0,0,49,49,99,1,,,,,,,,
,,,,,,,,,,,,,FF,,,,,,,,1.0532,,,,,,,,,,,,,,,,,,,,,,60f849ba229ad7f52b11f7e6,6103754867a96bccba0c7108,2021-07-29_21h34.26.029,Simcolourproject_2stim_asymm_v5,2020.2.10,Win32,60,61025ae37ef11b136ea224fe,,,,,,,,,1360,36,58,1,0,0,response1disk,,7,3,9,1,0,0,rectangle,-70,-40,1,0,0,-30,-1,1,0,0,0,50,50,108,1,,response5disk_3,TRUE,2,2,"[284,323,114,236,69,213,238,265,62,306,276,276,82,51,96,234,110,131,189,75]",2.5072,rectangle
,,,,,,,,,,,,,FF,,,,,,,,0.7995,,,,,,,,,,,,,,,,,,,,,,60f849ba229ad7f52b11f7e6,6103754867a96bccba0c7108,2021-07-29_21h34.26.029,Simcolourproject_2stim_asymm_v5,2020.2.10,Win32,60,61025ae37ef11b136ea224fe,,,,,,,,,3175,33,65,1,0,0,response1disk,,7,5,12,1,0,0,rectangle,5,12,1,0,0,5,12,1,0,0,0,51,51,119,1,,,,,,,,
,,,,,,,,,,,,,FF,,,,,,,,1.2442,,,,,,,,,,,,,,,,,,,,,,60f849ba229ad7f52b11f7e6,6103754867a96bccba0c7108,2021-07-29_21h34.26.029,Simcolourproject_2stim_asymm_v5,2020.2.10,Win32,60,61025ae37ef11b136ea224fe,,,,,,,,,1818,-45,-81,1,0,0,response5disk,,3,8,8,1,0,0,rectangle,8,8,1,0,0,8,8,1,0,0,0,52,52,60,1,,,,,,,,
,,,,,,,,,,,,,FF,,,,,,,,1.2318,,,,,,,,,,,,,,,,,,,,,,60f849ba229ad7f52b11f7e6,6103754867a96bccba0c7108,2021-07-29_21h34.26.029,Simcolourproject_2stim_asymm_v5,2020.2.10,Win32,60,61025ae37ef11b136ea224fe,,,,,,,,,3934,-43,-69,1,0,0,response5disk,,3,-21,-11,1,0,0,rectangle,-21,-11,1,0,0,-21,-11,1,0,0,0,53,53,54,1,,,,,,,,
,,,,,,,,,,,,,FF,,,,,,,,1.1428,,,,,,,,,,,,,,,,,,,,,,60f849ba229ad7f52b11f7e6,6103754867a96bccba0c7108,2021-07-29_21h34.26.029,Simcolourproject_2stim_asymm_v5,2020.2.10,Win32,60,61025ae37ef11b136ea224fe,,,,,,,,,1888,-83,-49,1,0,0,response5disk,,2,-4,-5,1,0,0,rectangle,-4,-5,1,0,0,-4,-5,1,0,0,0,54,54,20,1,,,,,,,,
,,,,,,,,,,,,,FF,,,,,,,,1.2985,,,,,,,,,,,,,,,,,,,,,,60f849ba229ad7f52b11f7e6,6103754867a96bccba0c7108,2021-07-29_21h34.26.029,Simcolourproject_2stim_asymm_v5,2020.2.10,Win32,60,61025ae37ef11b136ea224fe,,,,,,,,,1443,37,-87,1,0,0,response3disk,,4,1,-5,1,0,0,rectangle,1,-5,1,0,0,1,-5,1,0,0,0,55,55,103,1,,,,,,,,
,,,,,,,,,,,,,FF,,,,,,,,0.5759,,,,,,,,,,,,,,,,,,,,,,60f849ba229ad7f52b11f7e6,6103754867a96bccba0c7108,2021-07-29_21h34.26.029,Simcolourproject_2stim_asymm_v5,2020.2.10,Win32,60,61025ae37ef11b136ea224fe,,,,,,,,,3932,33,69,1,0,0,response1disk,,7,9,-2,1,0,0,rectangle,9,-2,1,0,0,9,-2,1,0,0,0,56,56,125,1,,,,,,,,
,,,,,,,,,,,,,FF,,,,,,,,0.5975,,,,,,,,,,,,,,,,,,,,,,60f849ba229ad7f52b11f7e6,6103754867a96bccba0c7108,2021-07-29_21h34.26.029,Simcolourproject_2stim_asymm_v5,2020.2.10,Win32,60,61025ae37ef11b136ea224fe,,,,,,,,,147,39,56,1,0,0,response1disk,,7,-5,0,1,0,0,rectangle,-5,0,1,0,0,-5,0,1,0,0,0,57,57,16,1,,,,,,,,
,,,,,,,,,,,,,FF,,,,,,,,0.572,,,,,,,,,,,,,,,,,,,,,,60f849ba229ad7f52b11f7e6,6103754867a96bccba0c7108,2021-07-29_21h34.26.029,Simcolourproject_2stim_asymm_v5,2020.2.10,Win32,60,61025ae37ef11b136ea224fe,,,,,,,,,1798,27,53,1,0,0,response1disk,,7,-5,7,1,0,0,rectangle,-5,7,1,0,0,-5,7,1,0,0,0,58,58,129,1,,,,,,,,
,,,,,,,,,,,,,FF,,,,,,,,0.4812,,,,,,,,,,,,,,,,,,,,,,60f849ba229ad7f52b11f7e6,6103754867a96bccba0c7108,2021-07-29_21h34.26.029,Simcolourproject_2stim_asymm_v5,2020.2.10,Win32,60,61025ae37ef11b136ea224fe,,,,,,,,,3061,26,50,1,0,0,response1disk,,7,4,2,1,0,0,rectangle,4,2,1,0,0,4,2,1,0,0,0,59,59,36,1,,,,,,,,
,,,,,,,,,,,,,FF,,,,,,,,0.5249,,,,,,,,,,,,,,,,,,,,,,60f849ba229ad7f52b11f7e6,6103754867a96bccba0c7108,2021-07-29_21h34.26.029,Simcolourproject_2stim_asymm_v5,2020.2.10,Win32,60,61025ae37ef11b136ea224fe,,,,,,,,,2815,42,57,1,0,0,response1disk,,7,8,3,1,0,0,rectangle,8,3,1,0,0,8,3,1,0,0,0,60,60,14,1,,,,,,,,
,,,,,,,,,,,,,FF,,,,,,,,0.4107,,,,,,,,,,,,,,,,,,,,,,60f849ba229ad7f52b11f7e6,6103754867a96bccba0c7108,2021-07-29_21h34.26.029,Simcolourproject_2stim_asymm_v5,2020.2.10,Win32,60,61025ae37ef11b136ea224fe,,,,,,,,,3022,48,61,1,0,0,response1disk,,7,2,0,1,0,0,rectangle,90,-50,1,0,0,-16,4,1,0,0,0,61,61,25,1,,response3disk_3,TRUE,5,5,"[284,323,114,236,69,213,238,265,62,306,276,276,82,51,96,234,110,131,189,75]",1.7449,rectangle
,,,,,,,,,,,,,FF,,,,,,,,4.142,,,,,,,,,,,,,,,,,,,,,,60f849ba229ad7f52b11f7e6,6103754867a96bccba0c7108,2021-07-29_21h34.26.029,Simcolourproject_2stim_asymm_v5,2020.2.10,Win32,60,61025ae37ef11b136ea224fe,,,,,,,,,2193,28,-70,1,0,0,response3disk,,4,-2,1,1,0,0,rectangle,-2,1,1,0,0,-2,1,1,0,0,0,62,62,69,1,,,,,,,,
,,,,,,,,,,,,,FF,,,,,,,,1.1843,,,,,,,,,,,,,,,,,,,,,,60f849ba229ad7f52b11f7e6,6103754867a96bccba0c7108,2021-07-29_21h34.26.029,Simcolourproject_2stim_asymm_v5,2020.2.10,Win32,60,61025ae37ef11b136ea224fe,,,,,,,,,1281,35,67,1,0,0,response1disk,,7,1,4,1,0,0,rectangle,1,4,1,0,0,1,4,1,0,0,0,63,63,44,1,,,,,,,,
,,,,,,,,,,,,,FF,,,,,,,,0.8208,,,,,,,,,,,,,,,,,,,,,,60f849ba229ad7f52b11f7e6,6103754867a96bccba0c7108,2021-07-29_21h34.26.029,Simcolourproject_2stim_asymm_v5,2020.2.10,Win32,60,61025ae37ef11b136ea224fe,,,,,,,,,3890,44,64,1,0,0,response1disk,,7,19,11,1,0,0,rectangle,19,11,1,0,0,19,11,1,0,0,0,64,64,156,1,,,,,,,,
,,,,,,,,,,,,,FF,,,,,,,,0.5849,,,,,,,,,,,,,,,,,,,,,,60f849ba229ad7f52b11f7e6,6103754867a96bccba0c7108,2021-07-29_21h34.26.029,Simcolourproject_2stim_asymm_v5,2020.2.10,Win32,60,61025ae37ef11b136ea224fe,,,,,,,,,3431,27,55,1,0,0,response1disk,,7,13,-11,1,0,0,rectangle,13,-11,1,0,0,13,-11,1,0,0,0,65,65,48,1,,,,,,,,
,,,,,,,,,,,,,FF,,,,,,,,1.6451,,,,,,,,,,,,,,,,,,,,,,60f849ba229ad7f52b11f7e6,6103754867a96bccba0c7108,2021-07-29_21h34.26.029,Simcolourproject_2stim_asymm_v5,2020.2.10,Win32,60,61025ae37ef11b136ea224fe,,,,,,,,,3328,23,72,1,0,0,response1disk,,7,-18,-1,1,0,0,rectangle,-18,-1,1,0,0,-18,-1,1,0,0,0,66,66,41,1,,,,,,,,
,,,,,,,,,,,,,FF,,,,,,,,0.8424,,,,,,,,,,,,,,,,,,,,,,60f849ba229ad7f52b11f7e6,6103754867a96bccba0c7108,2021-07-29_21h34.26.029,Simcolourproject_2stim_asymm_v5,2020.2.10,Win32,60,61025ae37ef11b136ea224fe,,,,,,,,,4240,24,71,1,0,0,response1disk,,7,1,1,1,0,0,rectangle,1,1,1,0,0,1,1,1,0,0,0,67,67,91,1,,,,,,,,
,,,,,,,,,,,,,FF,,,,,,,,0.5306,,,,,,,,,,,,,,,,,,,,,,60f849ba229ad7f52b11f7e6,6103754867a96bccba0c7108,2021-07-29_21h34.26.029,Simcolourproject_2stim_asymm_v5,2020.2.10,Win32,60,61025ae37ef11b136ea224fe,,,,,,,,,380,36,63,1,0,0,response1disk,,7,7,-2,1,0,0,rectangle,32,-95.5,1,0,0,9,-0.5,1,0,0,0,68,68,135,1,,response3disk_3,TRUE,4,4,"[284,323,114,236,69,213,238,265,62,306,276,276,82,51,96,234,110,131,189,75]",7.0248,rectangle
,,,,,,,,,,,,,FF,,,,,,,,0.6169,,,,,,,,,,,,,,,,,,,,,,60f849ba229ad7f52b11f7e6,6103754867a96bccba0c7108,2021-07-29_21h34.26.029,Simcolourproject_2stim_asymm_v5,2020.2.10,Win32,60,61025ae37ef11b136ea224fe,,,,,,,,,3421,24,75.5,1,0,0,response1disk,,7,16,1.5,1,0,0,rectangle,16,1.5,1,0,0,16,1.5,1,0,0,0,69,69,147,1,,,,,,,,
,,,,,,,,,,,,,FF,,,,,,,,1.9479,,,,,,,,,,,,,,,,,,,,,,60f849ba229ad7f52b11f7e6,6103754867a96bccba0c7108,2021-07-29_21h34.26.029,Simcolourproject_2stim_asymm_v5,2020.2.10,Win32,60,61025ae37ef11b136ea224fe,,,,,,,,,3820,38,64.5,1,0,0,response1disk,,7,2,5.5,1,0,0,rectangle,2,5.5,1,0,0,2,5.5,1,0,0,0,70,70,121,1,,,,,,,,
,,,,,,,,,,,,,FF,,,,,,,,0.4786,,,,,,,,,,,,,,,,,,,,,,60f849ba229ad7f52b11f7e6,6103754867a96bccba0c7108,2021-07-29_21h34.26.029,Simcolourproject_2stim_asymm_v5,2020.2.10,Win32,60,61025ae37ef11b136ea224fe,,,,,,,,,1778,50,73.5,1,0,0,response1disk,,7,-4,-4.5,1,0,0,rectangle,-4,-4.5,1,0,0,-4,-4.5,1,0,0,0,71,71,39,1,,,,,,,,
,,,,,,,,,,,,,FF,,,,,,,,0.6534,,,,,,,,,,,,,,,,,,,,,,60f849ba229ad7f52b11f7e6,6103754867a96bccba0c7108,2021-07-29_21h34.26.029,Simcolourproject_2stim_asymm_v5,2020.2.10,Win32,60,61025ae37ef11b136ea224fe,,,,,,,,,1716,44,59.5,1,0,0,response1disk,,7,-9,-4.5,1,0,0,rectangle,-9,-4.5,1,0,0,-9,-4.5,1,0,0,0,72,72,158,1,,,,,,,,
,,,,,,,,,,,,,FF,,,,,,,,0.6237,,,,,,,,,,,,,,,,,,,,,,60f849ba229ad7f52b11f7e6,6103754867a96bccba0c7108,2021-07-29_21h34.26.029,Simcolourproject_2stim_asymm_v5,2020.2.10,Win32,60,61025ae37ef11b136ea224fe,,,,,,,,,4192,50,74.5,1,0,0,response1disk,,7,0,-9.5,1,0,0,rectangle,0,-9.5,1,0,0,0,-9.5,1,0,0,0,73,73,22,1,,,,,,,,
,,,,,,,,,,,,,FF,,,,,,,,0.4151,,,,,,,,,,,,,,,,,,,,,,60f849ba229ad7f52b11f7e6,6103754867a96bccba0c7108,2021-07-29_21h34.26.029,Simcolourproject_2stim_asymm_v5,2020.2.10,Win32,60,61025ae37ef11b136ea224fe,,,,,,,,,2632,41,73.5,1,0,0,response1disk,,7,12,3.5,1,0,0,rectangle,-28,-83.5,1,0,0,-5,-1.5,1,0,0,0,74,74,83,1,,response5disk_3,TRUE,3,3,"[284,323,114,236,69,213,238,265,62,306,276,276,82,51,96,234,110,131,189,75]",2.2849,rectangle
,,,,,,,,,,,,,FF,,,,,,,,1.4977,,,,,,,,,,,,,,,,,,,,,,60f849ba229ad7f52b11f7e6,6103754867a96bccba0c7108,2021-07-29_21h34.26.029,Simcolourproject_2stim_asymm_v5,2020.2.10,Win32,60,61025ae37ef11b136ea224fe,,,,,,,,,3213,47,84.5,1,0,0,response1disk,,7,11,9.5,1,0,0,rectangle,11,9.5,1,0,0,11,9.5,1,0,0,0,75,75,11,1,,,,,,,,
,,,,,,,,,,,,,FF,,,,,,,,0.4676,,,,,,,,,,,,,,,,,,,,,,60f849ba229ad7f52b11f7e6,6103754867a96bccba0c7108,2021-07-29_21h34.26.029,Simcolourproject_2stim_asymm_v5,2020.2.10,Win32,60,61025ae37ef11b136ea224fe,,,,,,,,,2672,21,68.5,1,0,0,response1disk,,7,-7,-3.5,1,0,0,rectangle,-7,-3.5,1,0,0,-7,-3.5,1,0,0,0,76,76,3,1,,,,,,,,
,,,,,,,,,,,,,FF,,,,,,,,0.4385,,,,,,,,,,,,,,,,,,,,,,60f849ba229ad7f52b11f7e6,6103754867a96bccba0c7108,2021-07-29_21h34.26.029,Simcolourproject_2stim_asymm_v5,2020.2.10,Win32,60,61025ae37ef11b136ea224fe,,,,,,,,,2579,19,55.5,1,0,0,response1disk,,7,-16,5.5,1,0,0,rectangle,-16,5.5,1,0,0,-16,5.5,1,0,0,0,77,77,56,1,,,,,,,,
,,,,,,,,,,,,,FF,,,,,,,,1.3585,,,,,,,,,,,,,,,,,,,,,,60f849ba229ad7f52b11f7e6,6103754867a96bccba0c7108,2021-07-29_21h34.26.029,Simcolourproject_2stim_asymm_v5,2020.2.10,Win32,60,61025ae37ef11b136ea224fe,,,,,,,,,4295,37,63.5,1,0,0,response1disk,,7,8,2.5,1,0,0,rectangle,8,2.5,1,0,0,8,2.5,1,0,0,0,78,78,82,1,,,,,,,,
,,,,,,,,,,,,,FF,,,,,,,,0.5214,,,,,,,,,,,,,,,,,,,,,,60f849ba229ad7f52b11f7e6,6103754867a96bccba0c7108,2021-07-29_21h34.26.029,Simcolourproject_2stim_asymm_v5,2020.2.10,Win32,60,61025ae37ef11b136ea224fe,,,,,,,,,2149,30,47.5,1,0,0,response1disk,,7,-5,-8.5,1,0,0,rectangle,-5,-8.5,1,0,0,-5,-8.5,1,0,0,0,79,79,151,1,,,,,,,,
,,,,,,,,,,,,,FF,,,,,,,,0.5688,,,,,,,,,,,,,,,,,,,,,,60f849ba229ad7f52b11f7e6,6103754867a96bccba0c7108,2021-07-29_21h34.26.029,Simcolourproject_2stim_asymm_v5,2020.2.10,Win32,60,61025ae37ef11b136ea224fe,,,,,,,,,1631,38,53.5,1,0,0,response1disk,,7,-10,-6.5,1,0,0,rectangle,-10,-6.5,1,0,0,-10,-6.5,1,0,0,0,80,80,15,1,,,,,,,,
,,,,,,,,,,,,,FF,,,,,,,,1.3835,,,,,,,,,,,,,,,,,,,,,,60f849ba229ad7f52b11f7e6,6103754867a96bccba0c7108,2021-07-29_21h34.26.029,Simcolourproject_2stim_asymm_v5,2020.2.10,Win32,60,61025ae37ef11b136ea224fe,,,,,,,,,1047,85,-41.5,1,0,0,response3disk,,5,11,-1.5,1,0,0,rectangle,-53,-77.5,1,0,0,-7,-0.5,1,0,0,0,81,81,76,1,,response5disk_3,TRUE,3,3,"[284,323,114,236,69,213,238,265,62,306,276,276,82,51,96,234,110,131,189,75]",2.2725,rectangle
,,,,,,,,,,,,,FF,,,,,,,,1.3771,,,,,,,,,,,,,,,,,,,,,,60f849ba229ad7f52b11f7e6,6103754867a96bccba0c7108,2021-07-29_21h34.26.029,Simcolourproject_2stim_asymm_v5,2020.2.10,Win32,60,61025ae37ef11b136ea224fe,,,,,,,,,2916,29,68.5,1,0,0,response1disk,,7,5,-1.5,1,0,0,rectangle,5,-1.5,1,0,0,5,-1.5,1,0,0,0,82,82,40,1,,,,,,,,
,,,,,,,,,,,,,FF,,,,,,,,0.5507,,,,,,,,,,,,,,,,,,,,,,60f849ba229ad7f52b11f7e6,6103754867a96bccba0c7108,2021-07-29_21h34.26.029,Simcolourproject_2stim_asymm_v5,2020.2.10,Win32,60,61025ae37ef11b136ea224fe,,,,,,,,,847,31,34.5,1,0,0,response1disk,,7,7,11.5,1,0,0,rectangle,7,11.5,1,0,0,7,11.5,1,0,0,0,83,83,140,1,,,,,,,,
,,,,,,,,,,,,,FF,,,,,,,,1.2135,,,,,,,,,,,,,,,,,,,,,,60f849ba229ad7f52b11f7e6,6103754867a96bccba0c7108,2021-07-29_21h34.26.029,Simcolourproject_2stim_asymm_v5,2020.2.10,Win32,60,61025ae37ef11b136ea224fe,,,,,,,,,1636,30,59.5,1,0,0,response1disk,,7,5,-2.5,1,0,0,rectangle,5,-2.5,1,0,0,5,-2.5,1,0,0,0,84,84,74,1,,,,,,,,
,,,,,,,,,,,,,FF,,,,,,,,0.4791,,,,,,,,,,,,,,,,,,,,,,60f849ba229ad7f52b11f7e6,6103754867a96bccba0c7108,2021-07-29_21h34.26.029,Simcolourproject_2stim_asymm_v5,2020.2.10,Win32,60,61025ae37ef11b136ea224fe,,,,,,,,,3869,43,65.5,1,0,0,response1disk,,7,16,5.5,1,0,0,rectangle,16,5.5,1,0,0,16,5.5,1,0,0,0,85,85,112,1,,,,,,,,
,,,,,,,,,,,,,FF,,,,,,,,0.6333,,,,,,,,,,,,,,,,,,,,,,60f849ba229ad7f52b11f7e6,6103754867a96bccba0c7108,2021-07-29_21h34.26.029,Simcolourproject_2stim_asymm_v5,2020.2.10,Win32,60,61025ae37ef11b136ea224fe,,,,,,,,,2302,28,56.5,1,0,0,response1disk,,7,-5,3.5,1,0,0,rectangle,-5,3.5,1,0,0,-5,3.5,1,0,0,0,86,86,55,1,,,,,,,,
,,,,,,,,,,,,,FF,,,,,,,,1.4391,,,,,,,,,,,,,,,,,,,,,,60f849ba229ad7f52b11f7e6,6103754867a96bccba0c7108,2021-07-29_21h34.26.029,Simcolourproject_2stim_asymm_v5,2020.2.10,Win32,60,61025ae37ef11b136ea224fe,,,,,,,,,3742,-88,-43.5,1,0,0,response5disk,,2,-7,-9.5,1,0,0,rectangle,-7,-9.5,1,0,0,-7,-9.5,1,0,0,0,87,87,133,1,,,,,,,,
,,,,,,,,,,,,,FF,,,,,,,,0.4438,,,,,,,,,,,,,,,,,,,,,,60f849ba229ad7f52b11f7e6,6103754867a96bccba0c7108,2021-07-29_21h34.26.029,Simcolourproject_2stim_asymm_v5,2020.2.10,Win32,60,61025ae37ef11b136ea224fe,,,,,,,,,3645,24,77.5,1,0,0,response1disk,,7,-1,3.5,1,0,0,rectangle,-1,3.5,1,0,0,-1,3.5,1,0,0,0,88,88,8,1,,,,,,,,
,,,,,,,,,,,,,FF,,,,,,,,0.3813,,,,,,,,,,,,,,,,,,,,,,60f849ba229ad7f52b11f7e6,6103754867a96bccba0c7108,2021-07-29_21h34.26.029,Simcolourproject_2stim_asymm_v5,2020.2.10,Win32,60,61025ae37ef11b136ea224fe,,,,,,,,,217,33,62.5,1,0,0,response1disk,,7,0,6.5,1,0,0,rectangle,0,6.5,1,0,0,0,6.5,1,0,0,0,89,89,150,1,,,,,,,,
,,,,,,,,,,,,,FF,,,,,,,,0.5221,,,,,,,,,,,,,,,,,,,,,,60f849ba229ad7f52b11f7e6,6103754867a96bccba0c7108,2021-07-29_21h34.26.029,Simcolourproject_2stim_asymm_v5,2020.2.10,Win32,60,61025ae37ef11b136ea224fe,,,,,,,,,2308,37,67.5,1,0,0,response1disk,,7,-10,-0.5,1,0,0,rectangle,-10,-0.5,1,0,0,-10,-0.5,1,0,0,0,90,90,58,1,,,,,,,,
,,,,,,,,,,,,,FF,,,,,,,,0.4913,,,,,,,,,,,,,,,,,,,,,,60f849ba229ad7f52b11f7e6,6103754867a96bccba0c7108,2021-07-29_21h34.26.029,Simcolourproject_2stim_asymm_v5,2020.2.10,Win32,60,61025ae37ef11b136ea224fe,,,,,,,,,4219,33,52.5,1,0,0,response1disk,,7,3,1.5,1,0,0,rectangle,3,1.5,1,0,0,3,1.5,1,0,0,0,91,91,7,1,,,,,,,,
,,,,,,,,,,,,,FF,,,,,,,,1.4713,,,,,,,,,,,,,,,,,,,,,,60f849ba229ad7f52b11f7e6,6103754867a96bccba0c7108,2021-07-29_21h34.26.029,Simcolourproject_2stim_asymm_v5,2020.2.10,Win32,60,61025ae37ef11b136ea224fe,,,,,,,,,4119,81,-38.5,1,0,0,response3disk,,5,17,-3.5,1,0,0,rectangle,17,-3.5,1,0,0,17,-3.5,1,0,0,0,92,92,139,1,,,,,,,,
,,,,,,,,,,,,,FF,,,,,,,,1.8377,,,,,,,,,,,,,,,,,,,,,,60f849ba229ad7f52b11f7e6,6103754867a96bccba0c7108,2021-07-29_21h34.26.029,Simcolourproject_2stim_asymm_v5,2020.2.10,Win32,60,61025ae37ef11b136ea224fe,,,,,,,,,3815,68,25.5,1,0,0,response1disk,,6,15,4.5,1,0,0,rectangle,15,4.5,1,0,0,15,4.5,1,0,0,0,93,93,154,1,,,,,,,,
,,,,,,,,,,,,,FF,,,,,,,,0.5573,,,,,,,,,,,,,,,,,,,,,,60f849ba229ad7f52b11f7e6,6103754867a96bccba0c7108,2021-07-29_21h34.26.029,Simcolourproject_2stim_asymm_v5,2020.2.10,Win32,60,61025ae37ef11b136ea224fe,,,,,,,,,2084,35,68.5,1,0,0,response1disk,,7,-3,-2.5,1,0,0,rectangle,-3,-2.5,1,0,0,-3,-2.5,1,0,0,0,94,94,38,1,,,,,,,,
,,,,,,,,,,,,,FF,,,,,,,,2.179,,,,,,,,,,,,,,,,,,,,,,60f849ba229ad7f52b11f7e6,6103754867a96bccba0c7108,2021-07-29_21h34.26.029,Simcolourproject_2stim_asymm_v5,2020.2.10,Win32,60,61025ae37ef11b136ea224fe,,,,,,,,,1366,81,-39.5,1,0,0,response3disk,,5,10,-3.5,1,0,0,rectangle,-38,-78.5,1,0,0,-7,2.5,1,0,0,0,95,95,155,1,,response5disk_3,TRUE,3,3,"[284,323,114,236,69,213,238,265,62,306,276,276,82,51,96,234,110,131,189,75]",1.322,rectangle
,,,,,,,,,,,,,FF,,,,,,,,0.6002,,,,,,,,,,,,,,,,,,,,,,60f849ba229ad7f52b11f7e6,6103754867a96bccba0c7108,2021-07-29_21h34.26.029,Simcolourproject_2stim_asymm_v5,2020.2.10,Win32,60,61025ae37ef11b136ea224fe,,,,,,,,,1162,23,68.5,1,0,0,response1disk,,7,7,2.5,1,0,0,rectangle,7,2.5,1,0,0,7,2.5,1,0,0,0,96,96,67,1,,,,,,,,
,,,,,,,,,,,,,FF,,,,,,,,0.9413,,,,,,,,,,,,,,,,,,,,,,60f849ba229ad7f52b11f7e6,6103754867a96bccba0c7108,2021-07-29_21h34.26.029,Simcolourproject_2stim_asymm_v5,2020.2.10,Win32,60,61025ae37ef11b136ea224fe,,,,,,,,,1870,32,66.5,1,0,0,response1disk,,7,-11,-7.5,1,0,0,rectangle,-11,-7.5,1,0,0,-11,-7.5,1,0,0,0,97,97,37,1,,,,,,,,
,,,,,,,,,,,,,FF,,,,,,,,2.2107,,,,,,,,,,,,,,,,,,,,,,60f849ba229ad7f52b11f7e6,6103754867a96bccba0c7108,2021-07-29_21h34.26.029,Simcolourproject_2stim_asymm_v5,2020.2.10,Win32,60,61025ae37ef11b136ea224fe,,,,,,,,,1488,53,79.5,1,0,0,response1disk,,7,-9,5.5,1,0,0,rectangle,-9,5.5,1,0,0,-9,5.5,1,0,0,0,98,98,142,1,,,,,,,,
,,,,,,,,,,,,,FF,,,,,,,,0.4883,,,,,,,,,,,,,,,,,,,,,,60f849ba229ad7f52b11f7e6,6103754867a96bccba0c7108,2021-07-29_21h34.26.029,Simcolourproject_2stim_asymm_v5,2020.2.10,Win32,60,61025ae37ef11b136ea224fe,,,,,,,,,4287,30,43.5,1,0,0,response1disk,,7,15,9.5,1,0,0,rectangle,15,9.5,1,0,0,15,9.5,1,0,0,0,99,99,45,1,,,,,,,,
,,,,,,,,,,,,,FF,,,,,,,,1.9558,,,,,,,,,,,,,,,,,,,,,,60f849ba229ad7f52b11f7e6,6103754867a96bccba0c7108,2021-07-29_21h34.26.029,Simcolourproject_2stim_asymm_v5,2020.2.10,Win32,60,61025ae37ef11b136ea224fe,,,,,,,,,2754,35,51.5,1,0,0,response1disk,,7,-2,3.5,1,0,0,rectangle,-2,3.5,1,0,0,-2,3.5,1,0,0,0,100,100,65,1,,,,,,,,
,,,,,,,,,,,,,FF,,,,,,,,2.0154,,,,,,,,,,,,,,,,,,,,,,60f849ba229ad7f52b11f7e6,6103754867a96bccba0c7108,2021-07-29_21h34.26.029,Simcolourproject_2stim_asymm_v5,2020.2.10,Win32,60,61025ae37ef11b136ea224fe,,,,,,,,,364,31,52.5,1,0,0,response1disk,,7,3,0.5,1,0,0,rectangle,3,0.5,1,0,0,3,0.5,1,0,0,0,101,101,94,1,,,,,,,,
,,,,,,,,,,,,,FF,,,,,,,,1.0455,,,,,,,,,,,,,,,,,,,,,,60f849ba229ad7f52b11f7e6,6103754867a96bccba0c7108,2021-07-29_21h34.26.029,Simcolourproject_2stim_asymm_v5,2020.2.10,Win32,60,61025ae37ef11b136ea224fe,,,,,,,,,4230,43,66.5,1,0,0,response1disk,,7,11,2.5,1,0,0,rectangle,11,2.5,1,0,0,11,2.5,1,0,0,0,102,102,122,1,,,,,,,,
,,,,,,,,,,,,,FF,,,,,,,,0.4445,,,,,,,,,,,,,,,,,,,,,,60f849ba229ad7f52b11f7e6,6103754867a96bccba0c7108,2021-07-29_21h34.26.029,Simcolourproject_2stim_asymm_v5,2020.2.10,Win32,60,61025ae37ef11b136ea224fe,,,,,,,,,1712,39,63.5,1,0,0,response1disk,,7,9,-2.5,1,0,0,rectangle,9,-2.5,1,0,0,9,-2.5,1,0,0,0,103,103,85,1,,,,,,,,
,,,,,,,,,,,,,FF,,,,,,,,0.4095,,,,,,,,,,,,,,,,,,,,,,60f849ba229ad7f52b11f7e6,6103754867a96bccba0c7108,2021-07-29_21h34.26.029,Simcolourproject_2stim_asymm_v5,2020.2.10,Win32,60,61025ae37ef11b136ea224fe,,,,,,,,,3461,31,49.5,1,0,0,response1disk,,7,-2,-10.5,1,0,0,rectangle,-2,-10.5,1,0,0,-2,-10.5,1,0,0,0,104,104,47,1,,,,,,,,
,,,,,,,,,,,,,FF,,,,,,,,1.4341,,,,,,,,,,,,,,,,,,,,,,60f849ba229ad7f52b11f7e6,6103754867a96bccba0c7108,2021-07-29_21h34.26.029,Simcolourproject_2stim_asymm_v5,2020.2.10,Win32,60,61025ae37ef11b136ea224fe,,,,,,,,,1052,28,-73.5,1,0,0,response3disk,,4,6,-4.5,1,0,0,rectangle,6,-4.5,1,0,0,6,-4.5,1,0,0,0,105,105,149,1,,,,,,,,
,,,,,,,,,,,,,FF,,,,,,,,1.1043,,,,,,,,,,,,,,,,,,,,,,60f849ba229ad7f52b11f7e6,6103754867a96bccba0c7108,2021-07-29_21h34.26.029,Simcolourproject_2stim_asymm_v5,2020.2.10,Win32,60,61025ae37ef11b136ea224fe,,,,,,,,,2359,-38,-82.5,1,0,0,response5disk,,3,5,-8.5,1,0,0,rectangle,5,-8.5,1,0,0,5,-8.5,1,0,0,0,106,106,141,1,,,,,,,,
,,,,,,,,,,,,,FF,,,,,,,,0.7299,,,,,,,,,,,,,,,,,,,,,,60f849ba229ad7f52b11f7e6,6103754867a96bccba0c7108,2021-07-29_21h34.26.029,Simcolourproject_2stim_asymm_v5,2020.2.10,Win32,60,61025ae37ef11b136ea224fe,,,,,,,,,2586,25,60.5,1,0,0,response1disk,,7,0,-6.5,1,0,0,rectangle,0,-6.5,1,0,0,0,-6.5,1,0,0,0,107,107,148,1,,,,,,,,
,,,,,,,,,,,,,FF,,,,,,,,3.1569,,,,,,,,,,,,,,,,,,,,,,60f849ba229ad7f52b11f7e6,6103754867a96bccba0c7108,2021-07-29_21h34.26.029,Simcolourproject_2stim_asymm_v5,2020.2.10,Win32,60,61025ae37ef11b136ea224fe,,,,,,,,,3411,33,64.5,1,0,0,response1disk,,7,8,4.5,1,0,0,rectangle,8,4.5,1,0,0,8,4.5,1,0,0,0,108,108,92,1,,,,,,,,
,,,,,,,,,,,,,FF,,,,,,,,0.3756,,,,,,,,,,,,,,,,,,,,,,60f849ba229ad7f52b11f7e6,6103754867a96bccba0c7108,2021-07-29_21h34.26.029,Simcolourproject_2stim_asymm_v5,2020.2.10,Win32,60,61025ae37ef11b136ea224fe,,,,,,,,,1731,38,69.5,1,0,0,response1disk,,7,13,-1.5,1,0,0,rectangle,-37,70.5,1,0,0,-6,2.5,1,0,0,0,109,109,64,1,,response7disk_3,TRUE,0,0,"[284,323,114,236,69,213,238,265,62,306,276,276,82,51,96,234,110,131,189,75]",1.5386,rectangle
,,,,,,,,,,,,,FF,,,,,,,,0.4204,,,,,,,,,,,,,,,,,,,,,,60f849ba229ad7f52b11f7e6,6103754867a96bccba0c7108,2021-07-29_21h34.26.029,Simcolourproject_2stim_asymm_v5,2020.2.10,Win32,60,61025ae37ef11b136ea224fe,,,,,,,,,3539,26,71.5,1,0,0,response1disk,,7,-8,-7.5,1,0,0,rectangle,-8,-7.5,1,0,0,-8,-7.5,1,0,0,0,110,110,9,1,,,,,,,,
,,,,,,,,,,,,,FF,,,,,,,,0.3665,,,,,,,,,,,,,,,,,,,,,,60f849ba229ad7f52b11f7e6,6103754867a96bccba0c7108,2021-07-29_21h34.26.029,Simcolourproject_2stim_asymm_v5,2020.2.10,Win32,60,61025ae37ef11b136ea224fe,,,,,,,,,189,35,56.5,1,0,0,response1disk,,7,3,-4.5,1,0,0,rectangle,3,-4.5,1,0,0,3,-4.5,1,0,0,0,111,111,19,1,,,,,,,,
,,,,,,,,,,,,,FF,,,,,,,,0.4334,,,,,,,,,,,,,,,,,,,,,,60f849ba229ad7f52b11f7e6,6103754867a96bccba0c7108,2021-07-29_21h34.26.029,Simcolourproject_2stim_asymm_v5,2020.2.10,Win32,60,61025ae37ef11b136ea224fe,,,,,,,,,3767,31,41.5,1,0,0,response1disk,,7,1,2.5,1,0,0,rectangle,1,2.5,1,0,0,1,2.5,1,0,0,0,112,112,80,1,,,,,,,,
,,,,,,,,,,,,,FF,,,,,,,,0.4166,,,,,,,,,,,,,,,,,,,,,,60f849ba229ad7f52b11f7e6,6103754867a96bccba0c7108,2021-07-29_21h34.26.029,Simcolourproject_2stim_asymm_v5,2020.2.10,Win32,60,61025ae37ef11b136ea224fe,,,,,,,,,126,26,60.5,1,0,0,response1disk,,7,3,-4.5,1,0,0,rectangle,-27,-69.5,1,0,0,-17,-0.5,1,0,0,0,113,113,107,1,,response5disk_3,TRUE,3,3,"[284,323,114,236,69,213,238,265,62,306,276,276,82,51,96,234,110,131,189,75]",1.9679,rectangle
,,,,,,,,,,,,,FF,,,,,,,,2.1986,,,,,,,,,,,,,,,,,,,,,,60f849ba229ad7f52b11f7e6,6103754867a96bccba0c7108,2021-07-29_21h34.26.029,Simcolourproject_2stim_asymm_v5,2020.2.10,Win32,60,61025ae37ef11b136ea224fe,,,,,,,,,4131,31,72.5,1,0,0,response1disk,,7,1,5.5,1,0,0,rectangle,1,5.5,1,0,0,1,5.5,1,0,0,0,114,114,24,1,,,,,,,,
,,,,,,,,,,,,,FF,,,,,,,,0.8423,,,,,,,,,,,,,,,,,,,,,,60f849ba229ad7f52b11f7e6,6103754867a96bccba0c7108,2021-07-29_21h34.26.029,Simcolourproject_2stim_asymm_v5,2020.2.10,Win32,60,61025ae37ef11b136ea224fe,,,,,,,,,1772,33,75.5,1,0,0,response1disk,,7,16,10.5,1,0,0,rectangle,16,10.5,1,0,0,16,10.5,1,0,0,0,115,115,132,1,,,,,,,,
,,,,,,,,,,,,,FF,,,,,,,,0.4222,,,,,,,,,,,,,,,,,,,,,,60f849ba229ad7f52b11f7e6,6103754867a96bccba0c7108,2021-07-29_21h34.26.029,Simcolourproject_2stim_asymm_v5,2020.2.10,Win32,60,61025ae37ef11b136ea224fe,,,,,,,,,385,34,45.5,1,0,0,response1disk,,7,8,3.5,1,0,0,rectangle,8,3.5,1,0,0,8,3.5,1,0,0,0,116,116,33,1,,,,,,,,
,,,,,,,,,,,,,FF,,,,,,,,0.3919,,,,,,,,,,,,,,,,,,,,,,60f849ba229ad7f52b11f7e6,6103754867a96bccba0c7108,2021-07-29_21h34.26.029,Simcolourproject_2stim_asymm_v5,2020.2.10,Win32,60,61025ae37ef11b136ea224fe,,,,,,,,,1165,39,47.5,1,0,0,response1disk,,7,-5,-9.5,1,0,0,rectangle,-5,-9.5,1,0,0,-5,-9.5,1,0,0,0,117,117,79,1,,,,,,,,
,,,,,,,,,,,,,FF,,,,,,,,0.384,,,,,,,,,,,,,,,,,,,,,,60f849ba229ad7f52b11f7e6,6103754867a96bccba0c7108,2021-07-29_21h34.26.029,Simcolourproject_2stim_asymm_v5,2020.2.10,Win32,60,61025ae37ef11b136ea224fe,,,,,,,,,751,34,57.5,1,0,0,response1disk,,7,0,2.5,1,0,0,rectangle,0,2.5,1,0,0,0,2.5,1,0,0,0,118,118,42,1,,,,,,,,
,,,,,,,,,,,,,FF,,,,,,,,1.297,,,,,,,,,,,,,,,,,,,,,,60f849ba229ad7f52b11f7e6,6103754867a96bccba0c7108,2021-07-29_21h34.26.029,Simcolourproject_2stim_asymm_v5,2020.2.10,Win32,60,61025ae37ef11b136ea224fe,,,,,,,,,2423,40,-79.5,1,0,0,response3disk,,4,-7,-4.5,1,0,0,rectangle,-7,-4.5,1,0,0,-7,-4.5,1,0,0,0,119,119,5,1,,,,,,,,
,,,,,,,,,,,,,FF,,,,,,,,0.6033,,,,,,,,,,,,,,,,,,,,,,60f849ba229ad7f52b11f7e6,6103754867a96bccba0c7108,2021-07-29_21h34.26.029,Simcolourproject_2stim_asymm_v5,2020.2.10,Win32,60,61025ae37ef11b136ea224fe,,,,,,,,,4178,34,83.5,1,0,0,response1disk,,7,-11,-12.5,1,0,0,rectangle,-11,-12.5,1,0,0,-11,-12.5,1,0,0,0,120,120,46,1,,,,,,,,
,,,,,,,,,,,,,FF,,,,,,,,1.2439,,,,,,,,,,,,,,,,,,,,,,60f849ba229ad7f52b11f7e6,6103754867a96bccba0c7108,2021-07-29_21h34.26.029,Simcolourproject_2stim_asymm_v5,2020.2.10,Win32,60,61025ae37ef11b136ea224fe,,,,,,,,,4251,-64,37.5,1,0,0,response7disk,,1,6,1.5,1,0,0,rectangle,6,1.5,1,0,0,6,1.5,1,0,0,0,121,121,157,1,,,,,,,,
,,,,,,,,,,,,,FF,,,,,,,,0.3698,,,,,,,,,,,,,,,,,,,,,,60f849ba229ad7f52b11f7e6,6103754867a96bccba0c7108,2021-07-29_21h34.26.029,Simcolourproject_2stim_asymm_v5,2020.2.10,Win32,60,61025ae37ef11b136ea224fe,,,,,,,,,2187,21,47.5,1,0,0,response1disk,,7,-6,-7.5,1,0,0,rectangle,-6,-7.5,1,0,0,-6,-7.5,1,0,0,0,122,122,18,1,,,,,,,,
,,,,,,,,,,,,,FF,,,,,,,,1.5931,,,,,,,,,,,,,,,,,,,,,,60f849ba229ad7f52b11f7e6,6103754867a96bccba0c7108,2021-07-29_21h34.26.029,Simcolourproject_2stim_asymm_v5,2020.2.10,Win32,60,61025ae37ef11b136ea224fe,,,,,,,,,1222,43,-86.5,1,0,0,response3disk,,4,-19,4.5,1,0,0,rectangle,-19,4.5,1,0,0,-19,4.5,1,0,0,0,123,123,34,1,,,,,,,,
,,,,,,,,,,,,,FF,,,,,,,,0.4722,,,,,,,,,,,,,,,,,,,,,,60f849ba229ad7f52b11f7e6,6103754867a96bccba0c7108,2021-07-29_21h34.26.029,Simcolourproject_2stim_asymm_v5,2020.2.10,Win32,60,61025ae37ef11b136ea224fe,,,,,,,,,2402,46,50.5,1,0,0,response1disk,,7,7,0.5,1,0,0,rectangle,7,0.5,1,0,0,7,0.5,1,0,0,0,124,124,72,1,,,,,,,,
,,,,,,,,,,,,,FF,,,,,,,,0.4407,,,,,,,,,,,,,,,,,,,,,,60f849ba229ad7f52b11f7e6,6103754867a96bccba0c7108,2021-07-29_21h34.26.029,Simcolourproject_2stim_asymm_v5,2020.2.10,Win32,60,61025ae37ef11b136ea224fe,,,,,,,,,3894,32,56.5,1,0,0,response1disk,,7,-2,9.5,1,0,0,rectangle,-2,9.5,1,0,0,-2,9.5,1,0,0,0,125,125,102,1,,,,,,,,
,,,,,,,,,,,,,FF,,,,,,,,0.4691,,,,,,,,,,,,,,,,,,,,,,60f849ba229ad7f52b11f7e6,6103754867a96bccba0c7108,2021-07-29_21h34.26.029,Simcolourproject_2stim_asymm_v5,2020.2.10,Win32,60,61025ae37ef11b136ea224fe,,,,,,,,,3157,39,67.5,1,0,0,response1disk,,7,7,2.5,1,0,0,rectangle,7,2.5,1,0,0,7,2.5,1,0,0,0,126,126,137,1,,,,,,,,
,,,,,,,,,,,,,FF,,,,,,,,0.4016,,,,,,,,,,,,,,,,,,,,,,60f849ba229ad7f52b11f7e6,6103754867a96bccba0c7108,2021-07-29_21h34.26.029,Simcolourproject_2stim_asymm_v5,2020.2.10,Win32,60,61025ae37ef11b136ea224fe,,,,,,,,,753,30,57.5,1,0,0,response1disk,,7,-8,5.5,1,0,0,rectangle,-8,5.5,1,0,0,-8,5.5,1,0,0,0,127,127,106,1,,,,,,,,
,,,,,,,,,,,,,FF,,,,,,,,0.3648,,,,,,,,,,,,,,,,,,,,,,60f849ba229ad7f52b11f7e6,6103754867a96bccba0c7108,2021-07-29_21h34.26.029,Simcolourproject_2stim_asymm_v5,2020.2.10,Win32,60,61025ae37ef11b136ea224fe,,,,,,,,,1245,32,56.5,1,0,0,response1disk,,7,-6,-0.5,1,0,0,rectangle,-6,-0.5,1,0,0,-6,-0.5,1,0,0,0,128,128,71,1,,,,,,,,
,,,,,,,,,,,,,FF,,,,,,,,0.3518,,,,,,,,,,,,,,,,,,,,,,60f849ba229ad7f52b11f7e6,6103754867a96bccba0c7108,2021-07-29_21h34.26.029,Simcolourproject_2stim_asymm_v5,2020.2.10,Win32,60,61025ae37ef11b136ea224fe,,,,,,,,,2212,34,61.5,1,0,0,response1disk,,7,7,2.5,1,0,0,rectangle,7,2.5,1,0,0,7,2.5,1,0,0,0,129,129,110,1,,,,,,,,
,,,,,,,,,,,,,FF,,,,,,,,0.3505,,,,,,,,,,,,,,,,,,,,,,60f849ba229ad7f52b11f7e6,6103754867a96bccba0c7108,2021-07-29_21h34.26.029,Simcolourproject_2stim_asymm_v5,2020.2.10,Win32,60,61025ae37ef11b136ea224fe,,,,,,,,,1106,47,74.5,1,0,0,response1disk,,7,4,-2.5,1,0,0,rectangle,31,61.5,1,0,0,-3,-1.5,1,0,0,0,130,130,89,1,,response1disk_3,TRUE,7,7,"[284,323,114,236,69,213,238,265,62,306,276,276,82,51,96,234,110,131,189,75]",1.5549,rectangle
,,,,,,,,,,,,,FF,,,,,,,,0.4458,,,,,,,,,,,,,,,,,,,,,,60f849ba229ad7f52b11f7e6,6103754867a96bccba0c7108,2021-07-29_21h34.26.029,Simcolourproject_2stim_asymm_v5,2020.2.10,Win32,60,61025ae37ef11b136ea224fe,,,,,,,,,2965,36,63.5,1,0,0,response1disk,,7,-1,5.5,1,0,0,rectangle,-1,5.5,1,0,0,-1,5.5,1,0,0,0,131,131,43,1,,,,,,,,
,,,,,,,,,,,,,FF,,,,,,,,0.4349,,,,,,,,,,,,,,,,,,,,,,60f849ba229ad7f52b11f7e6,6103754867a96bccba0c7108,2021-07-29_21h34.26.029,Simcolourproject_2stim_asymm_v5,2020.2.10,Win32,60,61025ae37ef11b136ea224fe,,,,,,,,,1962,33,55.5,1,0,0,response1disk,,7,4,-0.5,1,0,0,rectangle,4,-0.5,1,0,0,4,-0.5,1,0,0,0,132,132,120,1,,,,,,,,
,,,,,,,,,,,,,FF,,,,,,,,0.4027,,,,,,,,,,,,,,,,,,,,,,60f849ba229ad7f52b11f7e6,6103754867a96bccba0c7108,2021-07-29_21h34.26.029,Simcolourproject_2stim_asymm_v5,2020.2.10,Win32,60,61025ae37ef11b136ea224fe,,,,,,,,,1617,23,73.5,1,0,0,response1disk,,7,7,-11.5,1,0,0,rectangle,7,-11.5,1,0,0,7,-11.5,1,0,0,0,133,133,134,1,,,,,,,,
,,,,,,,,,,,,,FF,,,,,,,,0.3563,,,,,,,,,,,,,,,,,,,,,,60f849ba229ad7f52b11f7e6,6103754867a96bccba0c7108,2021-07-29_21h34.26.029,Simcolourproject_2stim_asymm_v5,2020.2.10,Win32,60,61025ae37ef11b136ea224fe,,,,,,,,,519,36,52.5,1,0,0,response1disk,,7,7,3.5,1,0,0,rectangle,7,3.5,1,0,0,7,3.5,1,0,0,0,134,134,78,1,,,,,,,,
,,,,,,,,,,,,,FF,,,,,,,,0.4781,,,,,,,,,,,,,,,,,,,,,,60f849ba229ad7f52b11f7e6,6103754867a96bccba0c7108,2021-07-29_21h34.26.029,Simcolourproject_2stim_asymm_v5,2020.2.10,Win32,60,61025ae37ef11b136ea224fe,,,,,,,,,3698,33,50.5,1,0,0,response1disk,,7,-5,-11.5,1,0,0,rectangle,-5,-11.5,1,0,0,-5,-11.5,1,0,0,0,135,135,13,1,,,,,,,,
,,,,,,,,,,,,,FF,,,,,,,,0.3559,,,,,,,,,,,,,,,,,,,,,,60f849ba229ad7f52b11f7e6,6103754867a96bccba0c7108,2021-07-29_21h34.26.029,Simcolourproject_2stim_asymm_v5,2020.2.10,Win32,60,61025ae37ef11b136ea224fe,,,,,,,,,2313,35,66.5,1,0,0,response1disk,,7,-13,1.5,1,0,0,rectangle,-13,1.5,1,0,0,-13,1.5,1,0,0,0,136,136,115,1,,,,,,,,
,,,,,,,,,,,,,FF,,,,,,,,0.4638,,,,,,,,,,,,,,,,,,,,,,60f849ba229ad7f52b11f7e6,6103754867a96bccba0c7108,2021-07-29_21h34.26.029,Simcolourproject_2stim_asymm_v5,2020.2.10,Win32,60,61025ae37ef11b136ea224fe,,,,,,,,,232,19,50.5,1,0,0,response1disk,,7,12,2.5,1,0,0,rectangle,12,2.5,1,0,0,12,2.5,1,0,0,0,137,137,4,1,,,,,,,,
,,,,,,,,,,,,,FF,,,,,,,,0.4009,,,,,,,,,,,,,,,,,,,,,,60f849ba229ad7f52b11f7e6,6103754867a96bccba0c7108,2021-07-29_21h34.26.029,Simcolourproject_2stim_asymm_v5,2020.2.10,Win32,60,61025ae37ef11b136ea224fe,,,,,,,,,4016,41,43.5,1,0,0,response1disk,,7,3,5.5,1,0,0,rectangle,3,5.5,1,0,0,3,5.5,1,0,0,0,138,138,95,1,,,,,,,,
,,,,,,,,,,,,,FF,,,,,,,,0.4021,,,,,,,,,,,,,,,,,,,,,,60f849ba229ad7f52b11f7e6,6103754867a96bccba0c7108,2021-07-29_21h34.26.029,Simcolourproject_2stim_asymm_v5,2020.2.10,Win32,60,61025ae37ef11b136ea224fe,,,,,,,,,49,16,35.5,1,0,0,response1disk,,7,-7,-2.5,1,0,0,rectangle,-7,-2.5,1,0,0,-7,-2.5,1,0,0,0,139,139,2,1,,,,,,,,
,,,,,,,,,,,,,FF,,,,,,,,0.5517,,,,,,,,,,,,,,,,,,,,,,60f849ba229ad7f52b11f7e6,6103754867a96bccba0c7108,2021-07-29_21h34.26.029,Simcolourproject_2stim_asymm_v5,2020.2.10,Win32,60,61025ae37ef11b136ea224fe,,,,,,,,,4180,24,64.5,1,0,0,response1disk,,7,-12,-3.5,1,0,0,rectangle,-12,-3.5,1,0,0,-12,-3.5,1,0,0,0,140,140,146,1,,,,,,,,
,,,,,,,,,,,,,FF,,,,,,,,0.3727,,,,,,,,,,,,,,,,,,,,,,60f849ba229ad7f52b11f7e6,6103754867a96bccba0c7108,2021-07-29_21h34.26.029,Simcolourproject_2stim_asymm_v5,2020.2.10,Win32,60,61025ae37ef11b136ea224fe,,,,,,,,,3779,35,72.5,1,0,0,response1disk,,7,-1,-2.5,1,0,0,rectangle,-1,-2.5,1,0,0,-1,-2.5,1,0,0,0,141,141,81,1,,,,,,,,
,,,,,,,,,,,,,FF,,,,,,,,0.4186,,,,,,,,,,,,,,,,,,,,,,60f849ba229ad7f52b11f7e6,6103754867a96bccba0c7108,2021-07-29_21h34.26.029,Simcolourproject_2stim_asymm_v5,2020.2.10,Win32,60,61025ae37ef11b136ea224fe,,,,,,,,,1724,41,63.5,1,0,0,response1disk,,7,0,1.5,1,0,0,rectangle,0,1.5,1,0,0,0,1.5,1,0,0,0,142,142,17,1,,,,,,,,
,,,,,,,,,,,,,FF,,,,,,,,1.4599,,,,,,,,,,,,,,,,,,,,,,60f849ba229ad7f52b11f7e6,6103754867a96bccba0c7108,2021-07-29_21h34.26.029,Simcolourproject_2stim_asymm_v5,2020.2.10,Win32,60,61025ae37ef11b136ea224fe,,,,,,,,,1464,33,-82.5,1,0,0,response3disk,,4,-3,-0.5,1,0,0,rectangle,-3,-0.5,1,0,0,-3,-0.5,1,0,0,0,143,143,87,1,,,,,,,,
,,,,,,,,,,,,,FF,,,,,,,,0.4459,,,,,,,,,,,,,,,,,,,,,,60f849ba229ad7f52b11f7e6,6103754867a96bccba0c7108,2021-07-29_21h34.26.029,Simcolourproject_2stim_asymm_v5,2020.2.10,Win32,60,61025ae37ef11b136ea224fe,,,,,,,,,3853,27,68.5,1,0,0,response1disk,,7,-7,-12.5,1,0,0,rectangle,-7,-12.5,1,0,0,-7,-12.5,1,0,0,0,144,144,96,1,,,,,,,,
,,,,,,,,,,,,,FF,,,,,,,,0.3211,,,,,,,,,,,,,,,,,,,,,,60f849ba229ad7f52b11f7e6,6103754867a96bccba0c7108,2021-07-29_21h34.26.029,Simcolourproject_2stim_asymm_v5,2020.2.10,Win32,60,61025ae37ef11b136ea224fe,,,,,,,,,862,37,61.5,1,0,0,response1disk,,7,-22,-8.5,1,0,0,rectangle,-22,-8.5,1,0,0,-22,-8.5,1,0,0,0,145,145,86,1,,,,,,,,
,,,,,,,,,,,,,FF,,,,,,,,8.1072,,,,,,,,,,,,,,,,,,,,,,60f849ba229ad7f52b11f7e6,6103754867a96bccba0c7108,2021-07-29_21h34.26.029,Simcolourproject_2stim_asymm_v5,2020.2.10,Win32,60,61025ae37ef11b136ea224fe,,,,,,,,,3737,26,88.5,1,0,0,response1disk,,7,-2,-5.5,1,0,0,rectangle,-2,-5.5,1,0,0,-2,-5.5,1,0,0,0,146,146,143,1,,,,,,,,
,,,,,,,,,,,,,FF,,,,,,,,0.3673,,,,,,,,,,,,,,,,,,,,,,60f849ba229ad7f52b11f7e6,6103754867a96bccba0c7108,2021-07-29_21h34.26.029,Simcolourproject_2stim_asymm_v5,2020.2.10,Win32,60,61025ae37ef11b136ea224fe,,,,,,,,,3278,53,77.5,1,0,0,response1disk,,7,6,2.5,1,0,0,rectangle,6,2.5,1,0,0,6,2.5,1,0,0,0,147,147,98,1,,,,,,,,
,,,,,,,,,,,,,FF,,,,,,,,0.6625,,,,,,,,,,,,,,,,,,,,,,60f849ba229ad7f52b11f7e6,6103754867a96bccba0c7108,2021-07-29_21h34.26.029,Simcolourproject_2stim_asymm_v5,2020.2.10,Win32,60,61025ae37ef11b136ea224fe,,,,,,,,,1822,39,62.5,1,0,0,response1disk,,7,3,-5.5,1,0,0,rectangle,3,-5.5,1,0,0,3,-5.5,1,0,0,0,148,148,63,1,,,,,,,,
,,,,,,,,,,,,,FF,,,,,,,,0.3097,,,,,,,,,,,,,,,,,,,,,,60f849ba229ad7f52b11f7e6,6103754867a96bccba0c7108,2021-07-29_21h34.26.029,Simcolourproject_2stim_asymm_v5,2020.2.10,Win32,60,61025ae37ef11b136ea224fe,,,,,,,,,2200,41,98.5,1,0,0,response1disk,,7,-4,-0.5,1,0,0,rectangle,-4,-0.5,1,0,0,-4,-0.5,1,0,0,0,149,149,159,1,,,,,,,,
,,,,,,,,,,,,,FF,,,,,,,,1.1051,,,,,,,,,,,,,,,,,,,,,,60f849ba229ad7f52b11f7e6,6103754867a96bccba0c7108,2021-07-29_21h34.26.029,Simcolourproject_2stim_asymm_v5,2020.2.10,Win32,60,61025ae37ef11b136ea224fe,,,,,,,,,1142,69,-50.5,1,0,0,response3disk,,5,6,-10.5,1,0,0,rectangle,6,-10.5,1,0,0,6,-10.5,1,0,0,0,150,150,93,1,,,,,,,,
,,,,,,,,,,,,,FF,,,,,,,,0.6265,,,,,,,,,,,,,,,,,,,,,,60f849ba229ad7f52b11f7e6,6103754867a96bccba0c7108,2021-07-29_21h34.26.029,Simcolourproject_2stim_asymm_v5,2020.2.10,Win32,60,61025ae37ef11b136ea224fe,,,,,,,,,1765,40,58.5,1,0,0,response1disk,,7,-3,3.5,1,0,0,rectangle,-3,3.5,1,0,0,-3,3.5,1,0,0,0,151,151,136,1,,,,,,,,
,,,,,,,,,,,,,FF,,,,,,,,0.5294,,,,,,,,,,,,,,,,,,,,,,60f849ba229ad7f52b11f7e6,6103754867a96bccba0c7108,2021-07-29_21h34.26.029,Simcolourproject_2stim_asymm_v5,2020.2.10,Win32,60,61025ae37ef11b136ea224fe,,,,,,,,,3377,30,74.5,1,0,0,response1disk,,7,-11,7.5,1,0,0,rectangle,-11,7.5,1,0,0,-11,7.5,1,0,0,0,152,152,113,1,,,,,,,,
,,,,,,,,,,,,,FF,,,,,,,,0.3339,,,,,,,,,,,,,,,,,,,,,,60f849ba229ad7f52b11f7e6,6103754867a96bccba0c7108,2021-07-29_21h34.26.029,Simcolourproject_2stim_asymm_v5,2020.2.10,Win32,60,61025ae37ef11b136ea224fe,,,,,,,,,1096,27,77.5,1,0,0,response1disk,,7,-6,2.5,1,0,0,rectangle,-6,2.5,1,0,0,-6,2.5,1,0,0,0,153,153,123,1,,,,,,,,
,,,,,,,,,,,,,FF,,,,,,,,0.2804,,,,,,,,,,,,,,,,,,,,,,60f849ba229ad7f52b11f7e6,6103754867a96bccba0c7108,2021-07-29_21h34.26.029,Simcolourproject_2stim_asymm_v5,2020.2.10,Win32,60,61025ae37ef11b136ea224fe,,,,,,,,,4122,26,72.5,1,0,0,response1disk,,7,-7,4.5,1,0,0,rectangle,-7,4.5,1,0,0,-7,4.5,1,0,0,0,154,154,66,1,,,,,,,,
,,,,,,,,,,,,,FF,,,,,,,,0.3394,,,,,,,,,,,,,,,,,,,,,,60f849ba229ad7f52b11f7e6,6103754867a96bccba0c7108,2021-07-29_21h34.26.029,Simcolourproject_2stim_asymm_v5,2020.2.10,Win32,60,61025ae37ef11b136ea224fe,,,,,,,,,1571,32,65.5,1,0,0,response1disk,,7,9,9.5,1,0,0,rectangle,9,9.5,1,0,0,9,9.5,1,0,0,0,155,155,29,1,,,,,,,,
,,,,,,,,,,,,,FF,,,,,,,,0.3862,,,,,,,,,,,,,,,,,,,,,,60f849ba229ad7f52b11f7e6,6103754867a96bccba0c7108,2021-07-29_21h34.26.029,Simcolourproject_2stim_asymm_v5,2020.2.10,Win32,60,61025ae37ef11b136ea224fe,,,,,,,,,154,33,55.5,1,0,0,response1disk,,7,0,3.5,1,0,0,rectangle,0,3.5,1,0,0,0,3.5,1,0,0,0,156,156,53,1,,,,,,,,
,,,,,,,,,,,,,FF,,,,,,,,0.3207,,,,,,,,,,,,,,,,,,,,,,60f849ba229ad7f52b11f7e6,6103754867a96bccba0c7108,2021-07-29_21h34.26.029,Simcolourproject_2stim_asymm_v5,2020.2.10,Win32,60,61025ae37ef11b136ea224fe,,,,,,,,,3215,24,44.5,1,0,0,response1disk,,7,7,3.5,1,0,0,rectangle,7,3.5,1,0,0,7,3.5,1,0,0,0,157,157,70,1,,,,,,,,
,,,,,,,,,,,,,FF,,,,,,,,0.3406,,,,,,,,,,,,,,,,,,,,,,60f849ba229ad7f52b11f7e6,6103754867a96bccba0c7108,2021-07-29_21h34.26.029,Simcolourproject_2stim_asymm_v5,2020.2.10,Win32,60,61025ae37ef11b136ea224fe,,,,,,,,,250,22,58.5,1,0,0,response1disk,,7,2,9.5,1,0,0,rectangle,2,9.5,1,0,0,2,9.5,1,0,0,0,158,158,23,1,,,,,,,,
,,,,,,,,,,,,,FF,,,,,,,,0.3083,,,,,,,,,,,,,,,,,,,,,,60f849ba229ad7f52b11f7e6,6103754867a96bccba0c7108,2021-07-29_21h34.26.029,Simcolourproject_2stim_asymm_v5,2020.2.10,Win32,60,61025ae37ef11b136ea224fe,,,,,,,,,450,23,47.5,1,0,0,response1disk,,7,4,2.5,1,0,0,rectangle,4,2.5,1,0,0,4,2.5,1,0,0,0,159,159,97,1,,,,,,,,
,,,,,,,,,,,,,FF,,,,,,,,0.3176,,,,,,,,,,,,,,,,,,,,,,60f849ba229ad7f52b11f7e6,6103754867a96bccba0c7108,2021-07-29_21h34.26.029,Simcolourproject_2stim_asymm_v5,2020.2.10,Win32,60,61025ae37ef11b136ea224fe,,,,,,,,,1578,27,58.5,1,0,0,response1disk,,7,4,8.5,1,0,0,rectangle,4,8.5,1,0,0,4,8.5,1,0,0,1,0,160,123,1,,,,,,,,
,,,,,,,,,,,,,FF,,,,,,,,0.3018,,,,,,,,,,,,,,,,,,,,,,60f849ba229ad7f52b11f7e6,6103754867a96bccba0c7108,2021-07-29_21h34.26.029,Simcolourproject_2stim_asymm_v5,2020.2.10,Win32,60,61025ae37ef11b136ea224fe,,,,,,,,,581,31,62.5,1,0,0,response1disk,,7,2,3.5,1,0,0,rectangle,2,3.5,1,0,0,2,3.5,1,0,0,1,1,161,38,1,,,,,,,,
,,,,,,,,,,,,,FF,,,,,,,,0.3065,,,,,,,,,,,,,,,,,,,,,,60f849ba229ad7f52b11f7e6,6103754867a96bccba0c7108,2021-07-29_21h34.26.029,Simcolourproject_2stim_asymm_v5,2020.2.10,Win32,60,61025ae37ef11b136ea224fe,,,,,,,,,4114,35,66.5,1,0,0,response1disk,,7,-14,-11.5,1,0,0,rectangle,-14,-11.5,1,0,0,-14,-11.5,1,0,0,1,2,162,125,1,,,,,,,,
,,,,,,,,,,,,,FF,,,,,,,,0.3569,,,,,,,,,,,,,,,,,,,,,,60f849ba229ad7f52b11f7e6,6103754867a96bccba0c7108,2021-07-29_21h34.26.029,Simcolourproject_2stim_asymm_v5,2020.2.10,Win32,60,61025ae37ef11b136ea224fe,,,,,,,,,1706,32,64.5,1,0,0,response1disk,,7,2,-7.5,1,0,0,rectangle,2,-7.5,1,0,0,2,-7.5,1,0,0,1,3,163,135,1,,,,,,,,
,,,,,,,,,,,,,FF,,,,,,,,0.3661,,,,,,,,,,,,,,,,,,,,,,60f849ba229ad7f52b11f7e6,6103754867a96bccba0c7108,2021-07-29_21h34.26.029,Simcolourproject_2stim_asymm_v5,2020.2.10,Win32,60,61025ae37ef11b136ea224fe,,,,,,,,,4154,21,60.5,1,0,0,response1disk,,7,-3,0.5,1,0,0,rectangle,-3,0.5,1,0,0,-3,0.5,1,0,0,1,4,164,63,1,,,,,,,,
,,,,,,,,,,,,,FF,,,,,,,,1.0535,,,,,,,,,,,,,,,,,,,,,,60f849ba229ad7f52b11f7e6,6103754867a96bccba0c7108,2021-07-29_21h34.26.029,Simcolourproject_2stim_asymm_v5,2020.2.10,Win32,60,61025ae37ef11b136ea224fe,,,,,,,,,4278,34,50.5,1,0,0,response1disk,,7,8,10.5,1,0,0,rectangle,8,10.5,1,0,0,8,10.5,1,0,0,1,5,165,12,1,,,,,,,,
,,,,,,,,,,,,,FF,,,,,,,,0.3981,,,,,,,,,,,,,,,,,,,,,,60f849ba229ad7f52b11f7e6,6103754867a96bccba0c7108,2021-07-29_21h34.26.029,Simcolourproject_2stim_asymm_v5,2020.2.10,Win32,60,61025ae37ef11b136ea224fe,,,,,,,,,1865,21,57.5,1,0,0,response1disk,,7,5,10.5,1,0,0,rectangle,5,10.5,1,0,0,5,10.5,1,0,0,1,6,166,62,1,,,,,,,,
,,,,,,,,,,,,,FF,,,,,,,,1.0223,,,,,,,,,,,,,,,,,,,,,,60f849ba229ad7f52b11f7e6,6103754867a96bccba0c7108,2021-07-29_21h34.26.029,Simcolourproject_2stim_asymm_v5,2020.2.10,Win32,60,61025ae37ef11b136ea224fe,,,,,,,,,1667,24,-57.5,1,0,0,response3disk,,4,10,2.5,1,0,0,rectangle,10,2.5,1,0,0,10,2.5,1,0,0,1,7,167,80,1,,,,,,,,
,,,,,,,,,,,,,FF,,,,,,,,0.5059,,,,,,,,,,,,,,,,,,,,,,60f849ba229ad7f52b11f7e6,6103754867a96bccba0c7108,2021-07-29_21h34.26.029,Simcolourproject_2stim_asymm_v5,2020.2.10,Win32,60,61025ae37ef11b136ea224fe,,,,,,,,,1339,35,81.5,1,0,0,response1disk,,7,0,-10.5,1,0,0,rectangle,0,-10.5,1,0,0,0,-10.5,1,0,0,1,8,168,159,1,,,,,,,,
,,,,,,,,,,,,,FF,,,,,,,,0.4185,,,,,,,,,,,,,,,,,,,,,,60f849ba229ad7f52b11f7e6,6103754867a96bccba0c7108,2021-07-29_21h34.26.029,Simcolourproject_2stim_asymm_v5,2020.2.10,Win32,60,61025ae37ef11b136ea224fe,,,,,,,,,2785,21,58.5,1,0,0,response1disk,,7,-5,5.5,1,0,0,rectangle,-5,5.5,1,0,0,-5,5.5,1,0,0,1,9,169,28,1,,,,,,,,
,,,,,,,,,,,,,FF,,,,,,,,1.1357,,,,,,,,,,,,,,,,,,,,,,60f849ba229ad7f52b11f7e6,6103754867a96bccba0c7108,2021-07-29_21h34.26.029,Simcolourproject_2stim_asymm_v5,2020.2.10,Win32,60,61025ae37ef11b136ea224fe,,,,,,,,,1689,70,-44.5,1,0,0,response3disk,,5,12,-1.5,1,0,0,rectangle,12,-1.5,1,0,0,12,-1.5,1,0,0,1,10,170,138,1,,,,,,,,
,,,,,,,,,,,,,FF,,,,,,,,0.59,,,,,,,,,,,,,,,,,,,,,,60f849ba229ad7f52b11f7e6,6103754867a96bccba0c7108,2021-07-29_21h34.26.029,Simcolourproject_2stim_asymm_v5,2020.2.10,Win32,60,61025ae37ef11b136ea224fe,,,,,,,,,683,25,62.5,1,0,0,response1disk,,7,-14,0.5,1,0,0,rectangle,-14,0.5,1,0,0,-14,0.5,1,0,0,1,11,171,104,1,,,,,,,,
,,,,,,,,,,,,,FF,,,,,,,,0.8099,,,,,,,,,,,,,,,,,,,,,,60f849ba229ad7f52b11f7e6,6103754867a96bccba0c7108,2021-07-29_21h34.26.029,Simcolourproject_2stim_asymm_v5,2020.2.10,Win32,60,61025ae37ef11b136ea224fe,,,,,,,,,3224,26,97.5,1,0,0,response1disk,,7,0,6.5,1,0,0,rectangle,0,6.5,1,0,0,0,6.5,1,0,0,1,12,172,79,1,,,,,,,,
,,,,,,,,,,,,,FF,,,,,,,,0.5047,,,,,,,,,,,,,,,,,,,,,,60f849ba229ad7f52b11f7e6,6103754867a96bccba0c7108,2021-07-29_21h34.26.029,Simcolourproject_2stim_asymm_v5,2020.2.10,Win32,60,61025ae37ef11b136ea224fe,,,,,,,,,3317,34,54.5,1,0,0,response1disk,,7,-7,-8.5,1,0,0,rectangle,-7,-8.5,1,0,0,-7,-8.5,1,0,0,1,13,173,17,1,,,,,,,,
,,,,,,,,,,,,,FF,,,,,,,,0.315,,,,,,,,,,,,,,,,,,,,,,60f849ba229ad7f52b11f7e6,6103754867a96bccba0c7108,2021-07-29_21h34.26.029,Simcolourproject_2stim_asymm_v5,2020.2.10,Win32,60,61025ae37ef11b136ea224fe,,,,,,,,,1614,36,78.5,1,0,0,response1disk,,7,7,-3.5,1,0,0,rectangle,7,-3.5,1,0,0,7,-3.5,1,0,0,1,14,174,142,1,,,,,,,,
,,,,,,,,,,,,,FF,,,,,,,,0.3239,,,,,,,,,,,,,,,,,,,,,,60f849ba229ad7f52b11f7e6,6103754867a96bccba0c7108,2021-07-29_21h34.26.029,Simcolourproject_2stim_asymm_v5,2020.2.10,Win32,60,61025ae37ef11b136ea224fe,,,,,,,,,26,35,56.5,1,0,0,response1disk,,7,11,-0.5,1,0,0,rectangle,11,-0.5,1,0,0,11,-0.5,1,0,0,1,15,175,41,1,,,,,,,,
,,,,,,,,,,,,,FF,,,,,,,,0.3215,,,,,,,,,,,,,,,,,,,,,,60f849ba229ad7f52b11f7e6,6103754867a96bccba0c7108,2021-07-29_21h34.26.029,Simcolourproject_2stim_asymm_v5,2020.2.10,Win32,60,61025ae37ef11b136ea224fe,,,,,,,,,3284,28,49.5,1,0,0,response1disk,,7,6,2.5,1,0,0,rectangle,6,2.5,1,0,0,6,2.5,1,0,0,1,16,176,20,1,,,,,,,,
,,,,,,,,,,,,,FF,,,,,,,,0.2826,,,,,,,,,,,,,,,,,,,,,,60f849ba229ad7f52b11f7e6,6103754867a96bccba0c7108,2021-07-29_21h34.26.029,Simcolourproject_2stim_asymm_v5,2020.2.10,Win32,60,61025ae37ef11b136ea224fe,,,,,,,,,795,27,46.5,1,0,0,response1disk,,7,2,-4.5,1,0,0,rectangle,2,-4.5,1,0,0,2,-4.5,1,0,0,1,17,177,24,1,,,,,,,,
,,,,,,,,,,,,,FF,,,,,,,,0.4492,,,,,,,,,,,,,,,,,,,,,,60f849ba229ad7f52b11f7e6,6103754867a96bccba0c7108,2021-07-29_21h34.26.029,Simcolourproject_2stim_asymm_v5,2020.2.10,Win32,60,61025ae37ef11b136ea224fe,,,,,,,,,1711,28,51.5,1,0,0,response1disk,,7,-1,-4.5,1,0,0,rectangle,-1,-4.5,1,0,0,-1,-4.5,1,0,0,1,18,178,141,1,,,,,,,,
,,,,,,,,,,,,,FF,,,,,,,,0.8471,,,,,,,,,,,,,,,,,,,,,,60f849ba229ad7f52b11f7e6,6103754867a96bccba0c7108,2021-07-29_21h34.26.029,Simcolourproject_2stim_asymm_v5,2020.2.10,Win32,60,61025ae37ef11b136ea224fe,,,,,,,,,4164,28,65.5,1,0,0,response1disk,,7,12,1.5,1,0,0,rectangle,12,1.5,1,0,0,12,1.5,1,0,0,1,19,179,157,1,,,,,,,,
,,,,,,,,,,,,,FF,,,,,,,,1.1828,,,,,,,,,,,,,,,,,,,,,,60f849ba229ad7f52b11f7e6,6103754867a96bccba0c7108,2021-07-29_21h34.26.029,Simcolourproject_2stim_asymm_v5,2020.2.10,Win32,60,61025ae37ef11b136ea224fe,,,,,,,,,3440,43,-93.5,1,0,0,response3disk,,4,10,-4.5,1,0,0,rectangle,10,-4.5,1,0,0,10,-4.5,1,0,0,1,20,180,156,1,,,,,,,,
,,,,,,,,,,,,,FF,,,,,,,,1.5928,,,,,,,,,,,,,,,,,,,,,,60f849ba229ad7f52b11f7e6,6103754867a96bccba0c7108,2021-07-29_21h34.26.029,Simcolourproject_2stim_asymm_v5,2020.2.10,Win32,60,61025ae37ef11b136ea224fe,,,,,,,,,1886,-78,42.5,1,0,0,response7disk,,1,-13,-4.5,1,0,0,rectangle,-13,-4.5,1,0,0,-13,-4.5,1,0,0,1,21,181,85,1,,,,,,,,
,,,,,,,,,,,,,FF,,,,,,,,0.7635,,,,,,,,,,,,,,,,,,,,,,60f849ba229ad7f52b11f7e6,6103754867a96bccba0c7108,2021-07-29_21h34.26.029,Simcolourproject_2stim_asymm_v5,2020.2.10,Win32,60,61025ae37ef11b136ea224fe,,,,,,,,,3772,30,96.5,1,0,0,response1disk,,7,-2,-6.5,1,0,0,rectangle,-2,-6.5,1,0,0,-2,-6.5,1,0,0,1,22,182,89,1,,,,,,,,
,,,,,,,,,,,,,FF,,,,,,,,0.2791,,,,,,,,,,,,,,,,,,,,,,60f849ba229ad7f52b11f7e6,6103754867a96bccba0c7108,2021-07-29_21h34.26.029,Simcolourproject_2stim_asymm_v5,2020.2.10,Win32,60,61025ae37ef11b136ea224fe,,,,,,,,,2145,28,52.5,1,0,0,response1disk,,7,-3,4.5,1,0,0,rectangle,-3,4.5,1,0,0,-3,4.5,1,0,0,1,23,183,57,1,,,,,,,,
,,,,,,,,,,,,,FF,,,,,,,,0.3344,,,,,,,,,,,,,,,,,,,,,,60f849ba229ad7f52b11f7e6,6103754867a96bccba0c7108,2021-07-29_21h34.26.029,Simcolourproject_2stim_asymm_v5,2020.2.10,Win32,60,61025ae37ef11b136ea224fe,,,,,,,,,104,29,61.5,1,0,0,response1disk,,7,-11,-6.5,1,0,0,rectangle,-11,-6.5,1,0,0,-11,-6.5,1,0,0,1,24,184,21,1,,,,,,,,
,,,,,,,,,,,,,FF,,,,,,,,1.4656,,,,,,,,,,,,,,,,,,,,,,60f849ba229ad7f52b11f7e6,6103754867a96bccba0c7108,2021-07-29_21h34.26.029,Simcolourproject_2stim_asymm_v5,2020.2.10,Win32,60,61025ae37ef11b136ea224fe,,,,,,,,,1593,53,-108.5,1,0,0,response3disk,,4,10,-2.5,1,0,0,rectangle,10,-2.5,1,0,0,10,-2.5,1,0,0,1,25,185,147,1,,,,,,,,
,,,,,,,,,,,,,FF,,,,,,,,1.8349,,,,,,,,,,,,,,,,,,,,,,60f849ba229ad7f52b11f7e6,6103754867a96bccba0c7108,2021-07-29_21h34.26.029,Simcolourproject_2stim_asymm_v5,2020.2.10,Win32,60,61025ae37ef11b136ea224fe,,,,,,,,,2942,50,-87.5,1,0,0,response3disk,,4,0,-0.5,1,0,0,rectangle,0,-0.5,1,0,0,0,-0.5,1,0,0,1,26,186,4,1,,,,,,,,
,,,,,,,,,,,,,FF,,,,,,,,1.4698,,,,,,,,,,,,,,,,,,,,,,60f849ba229ad7f52b11f7e6,6103754867a96bccba0c7108,2021-07-29_21h34.26.029,Simcolourproject_2stim_asymm_v5,2020.2.10,Win32,60,61025ae37ef11b136ea224fe,,,,,,,,,1890,26,-80.5,1,0,0,response3disk,,4,4,-9.5,1,0,0,rectangle,4,-9.5,1,0,0,4,-9.5,1,0,0,1,27,187,91,1,,,,,,,,
,,,,,,,,,,,,,FF,,,,,,,,0.5216,,,,,,,,,,,,,,,,,,,,,,60f849ba229ad7f52b11f7e6,6103754867a96bccba0c7108,2021-07-29_21h34.26.029,Simcolourproject_2stim_asymm_v5,2020.2.10,Win32,60,61025ae37ef11b136ea224fe,,,,,,,,,1407,31,59.5,1,0,0,response1disk,,7,-6,-11.5,1,0,0,rectangle,-92,34.5,1,0,0,-23,2.5,1,0,0,1,28,188,152,1,,response7disk_3,TRUE,1,1,"[284,323,114,236,69,213,238,265,62,306,276,276,82,51,96,234,110,131,189,75]",1.2843,rectangle
,,,,,,,,,,,,,FF,,,,,,,,0.5644,,,,,,,,,,,,,,,,,,,,,,60f849ba229ad7f52b11f7e6,6103754867a96bccba0c7108,2021-07-29_21h34.26.029,Simcolourproject_2stim_asymm_v5,2020.2.10,Win32,60,61025ae37ef11b136ea224fe,,,,,,,,,1897,37,50.5,1,0,0,response1disk,,7,6,2.5,1,0,0,rectangle,6,2.5,1,0,0,6,2.5,1,0,0,1,29,189,77,1,,,,,,,,
,,,,,,,,,,,,,FF,,,,,,,,0.5805,,,,,,,,,,,,,,,,,,,,,,60f849ba229ad7f52b11f7e6,6103754867a96bccba0c7108,2021-07-29_21h34.26.029,Simcolourproject_2stim_asymm_v5,2020.2.10,Win32,60,61025ae37ef11b136ea224fe,,,,,,,,,565,33,49.5,1,0,0,response1disk,,7,0,-2.5,1,0,0,rectangle,0,-2.5,1,0,0,0,-2.5,1,0,0,1,30,190,1,1,,,,,,,,
,,,,,,,,,,,,,FF,,,,,,,,0.2981,,,,,,,,,,,,,,,,,,,,,,60f849ba229ad7f52b11f7e6,6103754867a96bccba0c7108,2021-07-29_21h34.26.029,Simcolourproject_2stim_asymm_v5,2020.2.10,Win32,60,61025ae37ef11b136ea224fe,,,,,,,,,4019,35,61.5,1,0,0,response1disk,,7,1,-6.5,1,0,0,rectangle,1,-6.5,1,0,0,1,-6.5,1,0,0,1,31,191,81,1,,,,,,,,
,,,,,,,,,,,,,FF,,,,,,,,1.1263,,,,,,,,,,,,,,,,,,,,,,60f849ba229ad7f52b11f7e6,6103754867a96bccba0c7108,2021-07-29_21h34.26.029,Simcolourproject_2stim_asymm_v5,2020.2.10,Win32,60,61025ae37ef11b136ea224fe,,,,,,,,,546,49,-77.5,1,0,0,response3disk,,4,-7,0.5,1,0,0,rectangle,-7,0.5,1,0,0,-7,0.5,1,0,0,1,32,192,65,1,,,,,,,,
,,,,,,,,,,,,,FF,,,,,,,,1.2036,,,,,,,,,,,,,,,,,,,,,,60f849ba229ad7f52b11f7e6,6103754867a96bccba0c7108,2021-07-29_21h34.26.029,Simcolourproject_2stim_asymm_v5,2020.2.10,Win32,60,61025ae37ef11b136ea224fe,,,,,,,,,2298,-99,-49.5,1,0,0,response5disk,,2,-18,-6.5,1,0,0,rectangle,-18,-6.5,1,0,0,-18,-6.5,1,0,0,1,33,193,67,1,,,,,,,,
,,,,,,,,,,,,,FF,,,,,,,,0.509,,,,,,,,,,,,,,,,,,,,,,60f849ba229ad7f52b11f7e6,6103754867a96bccba0c7108,2021-07-29_21h34.26.029,Simcolourproject_2stim_asymm_v5,2020.2.10,Win32,60,61025ae37ef11b136ea224fe,,,,,,,,,3261,26,69.5,1,0,0,response1disk,,7,-19,-12.5,1,0,0,rectangle,-19,-12.5,1,0,0,-19,-12.5,1,0,0,1,34,194,122,1,,,,,,,,
,,,,,,,,,,,,,FF,,,,,,,,0.5094,,,,,,,,,,,,,,,,,,,,,,60f849ba229ad7f52b11f7e6,6103754867a96bccba0c7108,2021-07-29_21h34.26.029,Simcolourproject_2stim_asymm_v5,2020.2.10,Win32,60,61025ae37ef11b136ea224fe,,,,,,,,,4204,28,58.5,1,0,0,response1disk,,7,0,0.5,1,0,0,rectangle,0,0.5,1,0,0,0,0.5,1,0,0,1,35,195,86,1,,,,,,,,
,,,,,,,,,,,,,FF,,,,,,,,1.5012,,,,,,,,,,,,,,,,,,,,,,60f849ba229ad7f52b11f7e6,6103754867a96bccba0c7108,2021-07-29_21h34.26.029,Simcolourproject_2stim_asymm_v5,2020.2.10,Win32,60,61025ae37ef11b136ea224fe,,,,,,,,,1758,41,-82.5,1,0,0,response3disk,,4,8,-3.5,1,0,0,rectangle,8,-3.5,1,0,0,8,-3.5,1,0,0,1,36,196,60,1,,,,,,,,
,,,,,,,,,,,,,FF,,,,,,,,0.5998,,,,,,,,,,,,,,,,,,,,,,60f849ba229ad7f52b11f7e6,6103754867a96bccba0c7108,2021-07-29_21h34.26.029,Simcolourproject_2stim_asymm_v5,2020.2.10,Win32,60,61025ae37ef11b136ea224fe,,,,,,,,,1694,43,93.5,1,0,0,response1disk,,7,-17,-0.5,1,0,0,rectangle,-17,-0.5,1,0,0,-17,-0.5,1,0,0,1,37,197,107,1,,,,,,,,
,,,,,,,,,,,,,FF,,,,,,,,1.4512,,,,,,,,,,,,,,,,,,,,,,60f849ba229ad7f52b11f7e6,6103754867a96bccba0c7108,2021-07-29_21h34.26.029,Simcolourproject_2stim_asymm_v5,2020.2.10,Win32,60,61025ae37ef11b136ea224fe,,,,,,,,,4318,33,-79.5,1,0,0,response3disk,,4,2,-7.5,1,0,0,rectangle,2,-7.5,1,0,0,2,-7.5,1,0,0,1,38,198,50,1,,,,,,,,
,,,,,,,,,,,,,FF,,,,,,,,0.7754,,,,,,,,,,,,,,,,,,,,,,60f849ba229ad7f52b11f7e6,6103754867a96bccba0c7108,2021-07-29_21h34.26.029,Simcolourproject_2stim_asymm_v5,2020.2.10,Win32,60,61025ae37ef11b136ea224fe,,,,,,,,,368,33,71.5,1,0,0,response1disk,,7,2,2.5,1,0,0,rectangle,2,2.5,1,0,0,2,2.5,1,0,0,1,39,199,149,1,,,,,,,,
,,,,,,,,,,,,,FF,,,,,,,,0.7671,,,,,,,,,,,,,,,,,,,,,,60f849ba229ad7f52b11f7e6,6103754867a96bccba0c7108,2021-07-29_21h34.26.029,Simcolourproject_2stim_asymm_v5,2020.2.10,Win32,60,61025ae37ef11b136ea224fe,,,,,,,,,1956,39,73.5,1,0,0,response1disk,,7,-2,-1.5,1,0,0,rectangle,-2,-1.5,1,0,0,-2,-1.5,1,0,0,1,40,200,39,1,,,,,,,,
,,,,,,,,,,,,,FF,,,,,,,,1.283,,,,,,,,,,,,,,,,,,,,,,60f849ba229ad7f52b11f7e6,6103754867a96bccba0c7108,2021-07-29_21h34.26.029,Simcolourproject_2stim_asymm_v5,2020.2.10,Win32,60,61025ae37ef11b136ea224fe,,,,,,,,,1388,33,-95.5,1,0,0,response3disk,,4,-5,1.5,1,0,0,rectangle,-5,1.5,1,0,0,-5,1.5,1,0,0,1,41,201,46,1,,,,,,,,
,,,,,,,,,,,,,FF,,,,,,,,0.8143,,,,,,,,,,,,,,,,,,,,,,60f849ba229ad7f52b11f7e6,6103754867a96bccba0c7108,2021-07-29_21h34.26.029,Simcolourproject_2stim_asymm_v5,2020.2.10,Win32,60,61025ae37ef11b136ea224fe,,,,,,,,,3565,28,68.5,1,0,0,response1disk,,7,8,-4.5,1,0,0,rectangle,8,-4.5,1,0,0,8,-4.5,1,0,0,1,42,202,6,1,,,,,,,,
,,,,,,,,,,,,,FF,,,,,,,,0.4168,,,,,,,,,,,,,,,,,,,,,,60f849ba229ad7f52b11f7e6,6103754867a96bccba0c7108,2021-07-29_21h34.26.029,Simcolourproject_2stim_asymm_v5,2020.2.10,Win32,60,61025ae37ef11b136ea224fe,,,,,,,,,419,24,47.5,1,0,0,response1disk,,7,10,4.5,1,0,0,rectangle,10,4.5,1,0,0,10,4.5,1,0,0,1,43,203,93,1,,,,,,,,
,,,,,,,,,,,,,FF,,,,,,,,0.303,,,,,,,,,,,,,,,,,,,,,,60f849ba229ad7f52b11f7e6,6103754867a96bccba0c7108,2021-07-29_21h34.26.029,Simcolourproject_2stim_asymm_v5,2020.2.10,Win32,60,61025ae37ef11b136ea224fe,,,,,,,,,469,38,71.5,1,0,0,response1disk,,7,0,6.5,1,0,0,rectangle,0,6.5,1,0,0,0,6.5,1,0,0,1,44,204,103,1,,,,,,,,
,,,,,,,,,,,,,FF,,,,,,,,2.4567,,,,,,,,,,,,,,,,,,,,,,60f849ba229ad7f52b11f7e6,6103754867a96bccba0c7108,2021-07-29_21h34.26.029,Simcolourproject_2stim_asymm_v5,2020.2.10,Win32,60,61025ae37ef11b136ea224fe,,,,,,,,,863,36,83.5,1,0,0,response1disk,,7,-19,0.5,1,0,0,rectangle,-19,0.5,1,0,0,-19,0.5,1,0,0,1,45,205,109,1,,,,,,,,
,,,,,,,,,,,,,FF,,,,,,,,0.3602,,,,,,,,,,,,,,,,,,,,,,60f849ba229ad7f52b11f7e6,6103754867a96bccba0c7108,2021-07-29_21h34.26.029,Simcolourproject_2stim_asymm_v5,2020.2.10,Win32,60,61025ae37ef11b136ea224fe,,,,,,,,,80,37,71.5,1,0,0,response1disk,,7,-10,-2.5,1,0,0,rectangle,-10,-2.5,1,0,0,-10,-2.5,1,0,0,1,46,206,146,1,,,,,,,,
,,,,,,,,,,,,,FF,,,,,,,,0.2761,,,,,,,,,,,,,,,,,,,,,,60f849ba229ad7f52b11f7e6,6103754867a96bccba0c7108,2021-07-29_21h34.26.029,Simcolourproject_2stim_asymm_v5,2020.2.10,Win32,60,61025ae37ef11b136ea224fe,,,,,,,,,4101,33,66.5,1,0,0,response1disk,,7,-13,-6.5,1,0,0,rectangle,-13,-6.5,1,0,0,-13,-6.5,1,0,0,1,47,207,18,1,,,,,,,,
,,,,,,,,,,,,,FF,,,,,,,,0.6317,,,,,,,,,,,,,,,,,,,,,,60f849ba229ad7f52b11f7e6,6103754867a96bccba0c7108,2021-07-29_21h34.26.029,Simcolourproject_2stim_asymm_v5,2020.2.10,Win32,60,61025ae37ef11b136ea224fe,,,,,,,,,2099,45,53.5,1,0,0,response1disk,,7,0,-4.5,1,0,0,rectangle,0,-4.5,1,0,0,0,-4.5,1,0,0,1,48,208,150,1,,,,,,,,
,,,,,,,,,,,,,FF,,,,,,,,0.4147,,,,,,,,,,,,,,,,,,,,,,60f849ba229ad7f52b11f7e6,6103754867a96bccba0c7108,2021-07-29_21h34.26.029,Simcolourproject_2stim_asymm_v5,2020.2.10,Win32,60,61025ae37ef11b136ea224fe,,,,,,,,,2902,21,50.5,1,0,0,response1disk,,7,-3,0.5,1,0,0,rectangle,-3,0.5,1,0,0,-3,0.5,1,0,0,1,49,209,119,1,,,,,,,,
,,,,,,,,,,,,,FF,,,,,,,,0.3048,,,,,,,,,,,,,,,,,,,,,,60f849ba229ad7f52b11f7e6,6103754867a96bccba0c7108,2021-07-29_21h34.26.029,Simcolourproject_2stim_asymm_v5,2020.2.10,Win32,60,61025ae37ef11b136ea224fe,,,,,,,,,1360,30,66.5,1,0,0,response1disk,,7,-10,1.5,1,0,0,rectangle,-10,1.5,1,0,0,-10,1.5,1,0,0,1,50,210,148,1,,,,,,,,
,,,,,,,,,,,,,FF,,,,,,,,0.4448,,,,,,,,,,,,,,,,,,,,,,60f849ba229ad7f52b11f7e6,6103754867a96bccba0c7108,2021-07-29_21h34.26.029,Simcolourproject_2stim_asymm_v5,2020.2.10,Win32,60,61025ae37ef11b136ea224fe,,,,,,,,,3175,19,46.5,1,0,0,response1disk,,7,7,10.5,1,0,0,rectangle,7,10.5,1,0,0,7,10.5,1,0,0,1,51,211,132,1,,,,,,,,
,,,,,,,,,,,,,FF,,,,,,,,0.2842,,,,,,,,,,,,,,,,,,,,,,60f849ba229ad7f52b11f7e6,6103754867a96bccba0c7108,2021-07-29_21h34.26.029,Simcolourproject_2stim_asymm_v5,2020.2.10,Win32,60,61025ae37ef11b136ea224fe,,,,,,,,,1818,36,39.5,1,0,0,response1disk,,7,5,11.5,1,0,0,rectangle,24,-76.5,1,0,0,-9,-4.5,1,0,0,1,52,212,48,1,,response3disk_3,TRUE,4,4,"[284,323,114,236,69,213,238,265,62,306,276,276,82,51,96,234,110,131,189,75]",2.0526,rectangle
,,,,,,,,,,,,,FF,,,,,,,,1.5498,,,,,,,,,,,,,,,,,,,,,,60f849ba229ad7f52b11f7e6,6103754867a96bccba0c7108,2021-07-29_21h34.26.029,Simcolourproject_2stim_asymm_v5,2020.2.10,Win32,60,61025ae37ef11b136ea224fe,,,,,,,,,3934,-36,-84.5,1,0,0,response5disk,,3,-11,7.5,1,0,0,rectangle,-11,7.5,1,0,0,-11,7.5,1,0,0,1,53,213,99,1,,,,,,,,
,,,,,,,,,,,,,FF,,,,,,,,1.2228,,,,,,,,,,,,,,,,,,,,,,60f849ba229ad7f52b11f7e6,6103754867a96bccba0c7108,2021-07-29_21h34.26.029,Simcolourproject_2stim_asymm_v5,2020.2.10,Win32,60,61025ae37ef11b136ea224fe,,,,,,,,,1888,33,-80.5,1,0,0,response3disk,,4,-9,-11.5,1,0,0,rectangle,-9,-11.5,1,0,0,-9,-11.5,1,0,0,1,54,214,2,1,,,,,,,,
,,,,,,,,,,,,,FF,,,,,,,,1.0122,,,,,,,,,,,,,,,,,,,,,,60f849ba229ad7f52b11f7e6,6103754867a96bccba0c7108,2021-07-29_21h34.26.029,Simcolourproject_2stim_asymm_v5,2020.2.10,Win32,60,61025ae37ef11b136ea224fe,,,,,,,,,1443,29,-90.5,1,0,0,response3disk,,4,-6,9.5,1,0,0,rectangle,-6,9.5,1,0,0,-6,9.5,1,0,0,1,55,215,95,1,,,,,,,,
,,,,,,,,,,,,,FF,,,,,,,,1.0079,,,,,,,,,,,,,,,,,,,,,,60f849ba229ad7f52b11f7e6,6103754867a96bccba0c7108,2021-07-29_21h34.26.029,Simcolourproject_2stim_asymm_v5,2020.2.10,Win32,60,61025ae37ef11b136ea224fe,,,,,,,,,3932,-28,-56.5,1,0,0,response5disk,,3,-8,4.5,1,0,0,rectangle,-8,4.5,1,0,0,-8,4.5,1,0,0,1,56,216,121,1,,,,,,,,
,,,,,,,,,,,,,FF,,,,,,,,1.1084,,,,,,,,,,,,,,,,,,,,,,60f849ba229ad7f52b11f7e6,6103754867a96bccba0c7108,2021-07-29_21h34.26.029,Simcolourproject_2stim_asymm_v5,2020.2.10,Win32,60,61025ae37ef11b136ea224fe,,,,,,,,,147,33,53.5,1,0,0,response1disk,,7,-6,-5.5,1,0,0,rectangle,-6,-5.5,1,0,0,-6,-5.5,1,0,0,1,57,217,137,1,,,,,,,,
,,,,,,,,,,,,,FF,,,,,,,,0.4309,,,,,,,,,,,,,,,,,,,,,,60f849ba229ad7f52b11f7e6,6103754867a96bccba0c7108,2021-07-29_21h34.26.029,Simcolourproject_2stim_asymm_v5,2020.2.10,Win32,60,61025ae37ef11b136ea224fe,,,,,,,,,1798,33,59.5,1,0,0,response1disk,,7,3,7.5,1,0,0,rectangle,3,7.5,1,0,0,3,7.5,1,0,0,1,58,218,59,1,,,,,,,,
,,,,,,,,,,,,,FF,,,,,,,,0.4081,,,,,,,,,,,,,,,,,,,,,,60f849ba229ad7f52b11f7e6,6103754867a96bccba0c7108,2021-07-29_21h34.26.029,Simcolourproject_2stim_asymm_v5,2020.2.10,Win32,60,61025ae37ef11b136ea224fe,,,,,,,,,3061,27,45.5,1,0,0,response1disk,,7,-1,5.5,1,0,0,rectangle,-1,5.5,1,0,0,-1,5.5,1,0,0,1,59,219,112,1,,,,,,,,
,,,,,,,,,,,,,FF,,,,,,,,0.3968,,,,,,,,,,,,,,,,,,,,,,60f849ba229ad7f52b11f7e6,6103754867a96bccba0c7108,2021-07-29_21h34.26.029,Simcolourproject_2stim_asymm_v5,2020.2.10,Win32,60,61025ae37ef11b136ea224fe,,,,,,,,,2815,31,55.5,1,0,0,response1disk,,7,-4,-5.5,1,0,0,rectangle,-4,-5.5,1,0,0,-4,-5.5,1,0,0,1,60,220,61,1,,,,,,,,
,,,,,,,,,,,,,FF,,,,,,,,0.3516,,,,,,,,,,,,,,,,,,,,,,60f849ba229ad7f52b11f7e6,6103754867a96bccba0c7108,2021-07-29_21h34.26.029,Simcolourproject_2stim_asymm_v5,2020.2.10,Win32,60,61025ae37ef11b136ea224fe,,,,,,,,,3022,39,66.5,1,0,0,response1disk,,7,0,5.5,1,0,0,rectangle,0,5.5,1,0,0,0,5.5,1,0,0,1,61,221,158,1,,,,,,,,
,,,,,,,,,,,,,FF,,,,,,,,0.3687,,,,,,,,,,,,,,,,,,,,,,60f849ba229ad7f52b11f7e6,6103754867a96bccba0c7108,2021-07-29_21h34.26.029,Simcolourproject_2stim_asymm_v5,2020.2.10,Win32,60,61025ae37ef11b136ea224fe,,,,,,,,,2193,25,72.5,1,0,0,response1disk,,7,-2,3.5,1,0,0,rectangle,-2,3.5,1,0,0,-2,3.5,1,0,0,1,62,222,96,1,,,,,,,,
,,,,,,,,,,,,,FF,,,,,,,,0.3198,,,,,,,,,,,,,,,,,,,,,,60f849ba229ad7f52b11f7e6,6103754867a96bccba0c7108,2021-07-29_21h34.26.029,Simcolourproject_2stim_asymm_v5,2020.2.10,Win32,60,61025ae37ef11b136ea224fe,,,,,,,,,1281,34,71.5,1,0,0,response1disk,,7,-1,5.5,1,0,0,rectangle,-1,5.5,1,0,0,-1,5.5,1,0,0,1,63,223,134,1,,,,,,,,
,,,,,,,,,,,,,FF,,,,,,,,0.3327,,,,,,,,,,,,,,,,,,,,,,60f849ba229ad7f52b11f7e6,6103754867a96bccba0c7108,2021-07-29_21h34.26.029,Simcolourproject_2stim_asymm_v5,2020.2.10,Win32,60,61025ae37ef11b136ea224fe,,,,,,,,,3890,26,56.5,1,0,0,response1disk,,7,-12,-10.5,1,0,0,rectangle,-12,-10.5,1,0,0,-12,-10.5,1,0,0,1,64,224,7,1,,,,,,,,
,,,,,,,,,,,,,FF,,,,,,,,1.1709,,,,,,,,,,,,,,,,,,,,,,60f849ba229ad7f52b11f7e6,6103754867a96bccba0c7108,2021-07-29_21h34.26.029,Simcolourproject_2stim_asymm_v5,2020.2.10,Win32,60,61025ae37ef11b136ea224fe,,,,,,,,,3431,-45,-93.5,1,0,0,response5disk,,3,9,-1.5,1,0,0,rectangle,9,-1.5,1,0,0,9,-1.5,1,0,0,1,65,225,23,1,,,,,,,,
,,,,,,,,,,,,,FF,,,,,,,,1.1511,,,,,,,,,,,,,,,,,,,,,,60f849ba229ad7f52b11f7e6,6103754867a96bccba0c7108,2021-07-29_21h34.26.029,Simcolourproject_2stim_asymm_v5,2020.2.10,Win32,60,61025ae37ef11b136ea224fe,,,,,,,,,3328,42,-76.5,1,0,0,response3disk,,4,4,-4.5,1,0,0,rectangle,4,-4.5,1,0,0,4,-4.5,1,0,0,1,66,226,110,1,,,,,,,,
,,,,,,,,,,,,,FF,,,,,,,,0.4627,,,,,,,,,,,,,,,,,,,,,,60f849ba229ad7f52b11f7e6,6103754867a96bccba0c7108,2021-07-29_21h34.26.029,Simcolourproject_2stim_asymm_v5,2020.2.10,Win32,60,61025ae37ef11b136ea224fe,,,,,,,,,4240,29,56.5,1,0,0,response1disk,,7,1,-2.5,1,0,0,rectangle,1,-2.5,1,0,0,1,-2.5,1,0,0,1,67,227,76,1,,,,,,,,
,,,,,,,,,,,,,FF,,,,,,,,1.502,,,,,,,,,,,,,,,,,,,,,,60f849ba229ad7f52b11f7e6,6103754867a96bccba0c7108,2021-07-29_21h34.26.029,Simcolourproject_2stim_asymm_v5,2020.2.10,Win32,60,61025ae37ef11b136ea224fe,,,,,,,,,380,39,-81.5,1,0,0,response3disk,,4,-1,-11.5,1,0,0,rectangle,-1,-11.5,1,0,0,-1,-11.5,1,0,0,1,68,228,8,1,,,,,,,,
,,,,,,,,,,,,,FF,,,,,,,,0.3768,,,,,,,,,,,,,,,,,,,,,,60f849ba229ad7f52b11f7e6,6103754867a96bccba0c7108,2021-07-29_21h34.26.029,Simcolourproject_2stim_asymm_v5,2020.2.10,Win32,60,61025ae37ef11b136ea224fe,,,,,,,,,3421,19,69.5,1,0,0,response1disk,,7,-2,-8.5,1,0,0,rectangle,-2,-8.5,1,0,0,-2,-8.5,1,0,0,1,69,229,55,1,,,,,,,,
,,,,,,,,,,,,,FF,,,,,,,,0.3415,,,,,,,,,,,,,,,,,,,,,,60f849ba229ad7f52b11f7e6,6103754867a96bccba0c7108,2021-07-29_21h34.26.029,Simcolourproject_2stim_asymm_v5,2020.2.10,Win32,60,61025ae37ef11b136ea224fe,,,,,,,,,3820,38,51.5,1,0,0,response1disk,,7,9,2.5,1,0,0,rectangle,9,2.5,1,0,0,9,2.5,1,0,0,1,70,230,53,1,,,,,,,,
,,,,,,,,,,,,,FF,,,,,,,,0.3842,,,,,,,,,,,,,,,,,,,,,,60f849ba229ad7f52b11f7e6,6103754867a96bccba0c7108,2021-07-29_21h34.26.029,Simcolourproject_2stim_asymm_v5,2020.2.10,Win32,60,61025ae37ef11b136ea224fe,,,,,,,,,1778,31,53.5,1,0,0,response1disk,,7,3,-3.5,1,0,0,rectangle,3,-3.5,1,0,0,3,-3.5,1,0,0,1,71,231,106,1,,,,,,,,
,,,,,,,,,,,,,FF,,,,,,,,0.3369,,,,,,,,,,,,,,,,,,,,,,60f849ba229ad7f52b11f7e6,6103754867a96bccba0c7108,2021-07-29_21h34.26.029,Simcolourproject_2stim_asymm_v5,2020.2.10,Win32,60,61025ae37ef11b136ea224fe,,,,,,,,,1716,19,41.5,1,0,0,response1disk,,7,7,4.5,1,0,0,rectangle,7,4.5,1,0,0,7,4.5,1,0,0,1,72,232,116,1,,,,,,,,
,,,,,,,,,,,,,FF,,,,,,,,1.8244,,,,,,,,,,,,,,,,,,,,,,60f849ba229ad7f52b11f7e6,6103754867a96bccba0c7108,2021-07-29_21h34.26.029,Simcolourproject_2stim_asymm_v5,2020.2.10,Win32,60,61025ae37ef11b136ea224fe,,,,,,,,,4192,22,52.5,1,0,0,response1disk,,7,3,4.5,1,0,0,rectangle,-42,-72.5,1,0,0,-3,-1.5,1,0,0,1,73,233,140,1,,response5disk_3,TRUE,3,3,"[284,323,114,236,69,213,238,265,62,306,276,276,82,51,96,234,110,131,189,75]",1.4948,rectangle
,,,,,,,,,,,,,FF,,,,,,,,0.9868,,,,,,,,,,,,,,,,,,,,,,60f849ba229ad7f52b11f7e6,6103754867a96bccba0c7108,2021-07-29_21h34.26.029,Simcolourproject_2stim_asymm_v5,2020.2.10,Win32,60,61025ae37ef11b136ea224fe,,,,,,,,,2632,26,63.5,1,0,0,response1disk,,7,6,5.5,1,0,0,rectangle,6,5.5,1,0,0,6,5.5,1,0,0,1,74,234,27,1,,,,,,,,
,,,,,,,,,,,,,FF,,,,,,,,0.4252,,,,,,,,,,,,,,,,,,,,,,60f849ba229ad7f52b11f7e6,6103754867a96bccba0c7108,2021-07-29_21h34.26.029,Simcolourproject_2stim_asymm_v5,2020.2.10,Win32,60,61025ae37ef11b136ea224fe,,,,,,,,,3213,30,49.5,1,0,0,response1disk,,7,3,6.5,1,0,0,rectangle,77,31.5,1,0,0,5,0.5,1,0,0,1,75,235,102,1,,response1disk_3,TRUE,6,6,"[284,323,114,236,69,213,238,265,62,306,276,276,82,51,96,234,110,131,189,75]",1.9058,rectangle
,,,,,,,,,,,,,FF,,,,,,,,0.4436,,,,,,,,,,,,,,,,,,,,,,60f849ba229ad7f52b11f7e6,6103754867a96bccba0c7108,2021-07-29_21h34.26.029,Simcolourproject_2stim_asymm_v5,2020.2.10,Win32,60,61025ae37ef11b136ea224fe,,,,,,,,,2672,22,58.5,1,0,0,response1disk,,7,-1,6.5,1,0,0,rectangle,-1,6.5,1,0,0,-1,6.5,1,0,0,1,76,236,131,1,,,,,,,,
,,,,,,,,,,,,,FF,,,,,,,,0.3519,,,,,,,,,,,,,,,,,,,,,,60f849ba229ad7f52b11f7e6,6103754867a96bccba0c7108,2021-07-29_21h34.26.029,Simcolourproject_2stim_asymm_v5,2020.2.10,Win32,60,61025ae37ef11b136ea224fe,,,,,,,,,2579,33,54.5,1,0,0,response1disk,,7,-2,7.5,1,0,0,rectangle,59,27.5,1,0,0,20,-3.5,1,0,0,1,77,237,35,1,,response1disk_3,TRUE,6,6,"[284,323,114,236,69,213,238,265,62,306,276,276,82,51,96,234,110,131,189,75]",1.6708,rectangle
,,,,,,,,,,,,,FF,,,,,,,,1.6961,,,,,,,,,,,,,,,,,,,,,,60f849ba229ad7f52b11f7e6,6103754867a96bccba0c7108,2021-07-29_21h34.26.029,Simcolourproject_2stim_asymm_v5,2020.2.10,Win32,60,61025ae37ef11b136ea224fe,,,,,,,,,4295,-83,-37.5,1,0,0,response5disk,,2,-17,8.5,1,0,0,rectangle,-17,8.5,1,0,0,-17,8.5,1,0,0,1,78,238,154,1,,,,,,,,
,,,,,,,,,,,,,FF,,,,,,,,0.4707,,,,,,,,,,,,,,,,,,,,,,60f849ba229ad7f52b11f7e6,6103754867a96bccba0c7108,2021-07-29_21h34.26.029,Simcolourproject_2stim_asymm_v5,2020.2.10,Win32,60,61025ae37ef11b136ea224fe,,,,,,,,,2149,20,57.5,1,0,0,response1disk,,7,-3,2.5,1,0,0,rectangle,-3,2.5,1,0,0,-3,2.5,1,0,0,1,79,239,101,1,,,,,,,,
,,,,,,,,,,,,,FF,,,,,,,,1.0631,,,,,,,,,,,,,,,,,,,,,,60f849ba229ad7f52b11f7e6,6103754867a96bccba0c7108,2021-07-29_21h34.26.029,Simcolourproject_2stim_asymm_v5,2020.2.10,Win32,60,61025ae37ef11b136ea224fe,,,,,,,,,1631,29,57.5,1,0,0,response1disk,,7,-4,-0.5,1,0,0,rectangle,-4,-0.5,1,0,0,-4,-0.5,1,0,0,1,80,240,44,1,,,,,,,,
,,,,,,,,,,,,,FF,,,,,,,,2.1431,,,,,,,,,,,,,,,,,,,,,,60f849ba229ad7f52b11f7e6,6103754867a96bccba0c7108,2021-07-29_21h34.26.029,Simcolourproject_2stim_asymm_v5,2020.2.10,Win32,60,61025ae37ef11b136ea224fe,,,,,,,,,1047,37,55.5,1,0,0,response1disk,,7,-5,-4.5,1,0,0,rectangle,-5,-4.5,1,0,0,-5,-4.5,1,0,0,1,81,241,139,1,,,,,,,,
,,,,,,,,,,,,,FF,,,,,,,,0.5337,,,,,,,,,,,,,,,,,,,,,,60f849ba229ad7f52b11f7e6,6103754867a96bccba0c7108,2021-07-29_21h34.26.029,Simcolourproject_2stim_asymm_v5,2020.2.10,Win32,60,61025ae37ef11b136ea224fe,,,,,,,,,2916,26,47.5,1,0,0,response1disk,,7,3,8.5,1,0,0,rectangle,3,8.5,1,0,0,3,8.5,1,0,0,1,82,242,58,1,,,,,,,,
,,,,,,,,,,,,,FF,,,,,,,,0.3452,,,,,,,,,,,,,,,,,,,,,,60f849ba229ad7f52b11f7e6,6103754867a96bccba0c7108,2021-07-29_21h34.26.029,Simcolourproject_2stim_asymm_v5,2020.2.10,Win32,60,61025ae37ef11b136ea224fe,,,,,,,,,847,41,52.5,1,0,0,response1disk,,7,15,5.5,1,0,0,rectangle,15,5.5,1,0,0,15,5.5,1,0,0,1,83,243,87,1,,,,,,,,
,,,,,,,,,,,,,FF,,,,,,,,0.4337,,,,,,,,,,,,,,,,,,,,,,60f849ba229ad7f52b11f7e6,6103754867a96bccba0c7108,2021-07-29_21h34.26.029,Simcolourproject_2stim_asymm_v5,2020.2.10,Win32,60,61025ae37ef11b136ea224fe,,,,,,,,,1636,49,66.5,1,0,0,response1disk,,7,-2,-5.5,1,0,0,rectangle,-2,-5.5,1,0,0,-2,-5.5,1,0,0,1,84,244,128,1,,,,,,,,
,,,,,,,,,,,,,FF,,,,,,,,0.4033,,,,,,,,,,,,,,,,,,,,,,60f849ba229ad7f52b11f7e6,6103754867a96bccba0c7108,2021-07-29_21h34.26.029,Simcolourproject_2stim_asymm_v5,2020.2.10,Win32,60,61025ae37ef11b136ea224fe,,,,,,,,,3869,25,65.5,1,0,0,response1disk,,7,2,7.5,1,0,0,rectangle,2,7.5,1,0,0,2,7.5,1,0,0,1,85,245,108,1,,,,,,,,
,,,,,,,,,,,,,FF,,,,,,,,0.6424,,,,,,,,,,,,,,,,,,,,,,60f849ba229ad7f52b11f7e6,6103754867a96bccba0c7108,2021-07-29_21h34.26.029,Simcolourproject_2stim_asymm_v5,2020.2.10,Win32,60,61025ae37ef11b136ea224fe,,,,,,,,,2302,29,57.5,1,0,0,response1disk,,7,6,7.5,1,0,0,rectangle,6,7.5,1,0,0,6,7.5,1,0,0,1,86,246,92,1,,,,,,,,
,,,,,,,,,,,,,FF,,,,,,,,1.9913,,,,,,,,,,,,,,,,,,,,,,60f849ba229ad7f52b11f7e6,6103754867a96bccba0c7108,2021-07-29_21h34.26.029,Simcolourproject_2stim_asymm_v5,2020.2.10,Win32,60,61025ae37ef11b136ea224fe,,,,,,,,,3742,-56,-86.5,1,0,0,response5disk,,3,-3,-4.5,1,0,0,rectangle,-3,-4.5,1,0,0,-3,-4.5,1,0,0,1,87,247,84,1,,,,,,,,
,,,,,,,,,,,,,FF,,,,,,,,0.7779,,,,,,,,,,,,,,,,,,,,,,60f849ba229ad7f52b11f7e6,6103754867a96bccba0c7108,2021-07-29_21h34.26.029,Simcolourproject_2stim_asymm_v5,2020.2.10,Win32,60,61025ae37ef11b136ea224fe,,,,,,,,,3645,24,71.5,1,0,0,response1disk,,7,2,8.5,1,0,0,rectangle,2,8.5,1,0,0,2,8.5,1,0,0,1,88,248,42,1,,,,,,,,
,,,,,,,,,,,,,FF,,,,,,,,0.4549,,,,,,,,,,,,,,,,,,,,,,60f849ba229ad7f52b11f7e6,6103754867a96bccba0c7108,2021-07-29_21h34.26.029,Simcolourproject_2stim_asymm_v5,2020.2.10,Win32,60,61025ae37ef11b136ea224fe,,,,,,,,,217,26,64.5,1,0,0,response1disk,,7,-10,6.5,1,0,0,rectangle,-10,6.5,1,0,0,-10,6.5,1,0,0,1,89,249,0,1,,,,,,,,
,,,,,,,,,,,,,FF,,,,,,,,0.4202,,,,,,,,,,,,,,,,,,,,,,60f849ba229ad7f52b11f7e6,6103754867a96bccba0c7108,2021-07-29_21h34.26.029,Simcolourproject_2stim_asymm_v5,2020.2.10,Win32,60,61025ae37ef11b136ea224fe,,,,,,,,,2308,40,74.5,1,0,0,response1disk,,7,-4,-6.5,1,0,0,rectangle,-4,-6.5,1,0,0,-4,-6.5,1,0,0,1,90,250,133,1,,,,,,,,
,,,,,,,,,,,,,FF,,,,,,,,0.5357,,,,,,,,,,,,,,,,,,,,,,60f849ba229ad7f52b11f7e6,6103754867a96bccba0c7108,2021-07-29_21h34.26.029,Simcolourproject_2stim_asymm_v5,2020.2.10,Win32,60,61025ae37ef11b136ea224fe,,,,,,,,,4219,35,71.5,1,0,0,response1disk,,7,3,-0.5,1,0,0,rectangle,3,-0.5,1,0,0,3,-0.5,1,0,0,1,91,251,26,1,,,,,,,,
,,,,,,,,,,,,,FF,,,,,,,,1.2533,,,,,,,,,,,,,,,,,,,,,,60f849ba229ad7f52b11f7e6,6103754867a96bccba0c7108,2021-07-29_21h34.26.029,Simcolourproject_2stim_asymm_v5,2020.2.10,Win32,60,61025ae37ef11b136ea224fe,,,,,,,,,4119,23,-83.5,1,0,0,response3disk,,4,-7,-0.5,1,0,0,rectangle,-7,-0.5,1,0,0,-7,-0.5,1,0,0,1,92,252,145,1,,,,,,,,
,,,,,,,,,,,,,FF,,,,,,,,1.7975,,,,,,,,,,,,,,,,,,,,,,60f849ba229ad7f52b11f7e6,6103754867a96bccba0c7108,2021-07-29_21h34.26.029,Simcolourproject_2stim_asymm_v5,2020.2.10,Win32,60,61025ae37ef11b136ea224fe,,,,,,,,,3815,33,67.5,1,0,0,response1disk,,7,-4,3.5,1,0,0,rectangle,-4,3.5,1,0,0,-4,3.5,1,0,0,1,93,253,73,1,,,,,,,,
,,,,,,,,,,,,,FF,,,,,,,,0.5914,,,,,,,,,,,,,,,,,,,,,,60f849ba229ad7f52b11f7e6,6103754867a96bccba0c7108,2021-07-29_21h34.26.029,Simcolourproject_2stim_asymm_v5,2020.2.10,Win32,60,61025ae37ef11b136ea224fe,,,,,,,,,2084,26,66.5,1,0,0,response1disk,,7,6,3.5,1,0,0,rectangle,6,3.5,1,0,0,6,3.5,1,0,0,1,94,254,78,1,,,,,,,,
,,,,,,,,,,,,,FF,,,,,,,,1.3502,,,,,,,,,,,,,,,,,,,,,,60f849ba229ad7f52b11f7e6,6103754867a96bccba0c7108,2021-07-29_21h34.26.029,Simcolourproject_2stim_asymm_v5,2020.2.10,Win32,60,61025ae37ef11b136ea224fe,,,,,,,,,1366,27,-77.5,1,0,0,response3disk,,4,7,-2.5,1,0,0,rectangle,7,-2.5,1,0,0,7,-2.5,1,0,0,1,95,255,70,1,,,,,,,,
,,,,,,,,,,,,,FF,,,,,,,,0.5076,,,,,,,,,,,,,,,,,,,,,,60f849ba229ad7f52b11f7e6,6103754867a96bccba0c7108,2021-07-29_21h34.26.029,Simcolourproject_2stim_asymm_v5,2020.2.10,Win32,60,61025ae37ef11b136ea224fe,,,,,,,,,1162,29,64.5,1,0,0,response1disk,,7,-2,1.5,1,0,0,rectangle,-2,1.5,1,0,0,-2,1.5,1,0,0,1,96,256,49,1,,,,,,,,
,,,,,,,,,,,,,FF,,,,,,,,0.4723,,,,,,,,,,,,,,,,,,,,,,60f849ba229ad7f52b11f7e6,6103754867a96bccba0c7108,2021-07-29_21h34.26.029,Simcolourproject_2stim_asymm_v5,2020.2.10,Win32,60,61025ae37ef11b136ea224fe,,,,,,,,,1870,23,57.5,1,0,0,response1disk,,7,-6,-0.5,1,0,0,rectangle,-6,-0.5,1,0,0,-6,-0.5,1,0,0,1,97,257,120,1,,,,,,,,
,,,,,,,,,,,,,FF,,,,,,,,0.5854,,,,,,,,,,,,,,,,,,,,,,60f849ba229ad7f52b11f7e6,6103754867a96bccba0c7108,2021-07-29_21h34.26.029,Simcolourproject_2stim_asymm_v5,2020.2.10,Win32,60,61025ae37ef11b136ea224fe,,,,,,,,,1488,29,52.5,1,0,0,response1disk,,7,0,-8.5,1,0,0,rectangle,0,-8.5,1,0,0,0,-8.5,1,0,0,1,98,258,5,1,,,,,,,,
,,,,,,,,,,,,,FF,,,,,,,,0.4141,,,,,,,,,,,,,,,,,,,,,,60f849ba229ad7f52b11f7e6,6103754867a96bccba0c7108,2021-07-29_21h34.26.029,Simcolourproject_2stim_asymm_v5,2020.2.10,Win32,60,61025ae37ef11b136ea224fe,,,,,,,,,4287,33,59.5,1,0,0,response1disk,,7,-4,3.5,1,0,0,rectangle,-4,3.5,1,0,0,-4,3.5,1,0,0,1,99,259,118,1,,,,,,,,
,,,,,,,,,,,,,FF,,,,,,,,0.6507,,,,,,,,,,,,,,,,,,,,,,60f849ba229ad7f52b11f7e6,6103754867a96bccba0c7108,2021-07-29_21h34.26.029,Simcolourproject_2stim_asymm_v5,2020.2.10,Win32,60,61025ae37ef11b136ea224fe,,,,,,,,,2754,32,84.5,1,0,0,response1disk,,7,-9,7.5,1,0,0,rectangle,-9,7.5,1,0,0,-9,7.5,1,0,0,1,100,260,143,1,,,,,,,,
,,,,,,,,,,,,,FF,,,,,,,,7.2549,,,,,,,,,,,,,,,,,,,,,,60f849ba229ad7f52b11f7e6,6103754867a96bccba0c7108,2021-07-29_21h34.26.029,Simcolourproject_2stim_asymm_v5,2020.2.10,Win32,60,61025ae37ef11b136ea224fe,,,,,,,,,364,38,81.5,1,0,0,response1disk,,7,-24,-7.5,1,0,0,rectangle,-24,-7.5,1,0,0,-24,-7.5,1,0,0,1,101,261,155,1,,,,,,,,
,,,,,,,,,,,,,FF,,,,,,,,0.5013,,,,,,,,,,,,,,,,,,,,,,60f849ba229ad7f52b11f7e6,6103754867a96bccba0c7108,2021-07-29_21h34.26.029,Simcolourproject_2stim_asymm_v5,2020.2.10,Win32,60,61025ae37ef11b136ea224fe,,,,,,,,,4230,21,88.5,1,0,0,response1disk,,7,-7,0.5,1,0,0,rectangle,-7,0.5,1,0,0,-7,0.5,1,0,0,1,102,262,75,1,,,,,,,,
,,,,,,,,,,,,,FF,,,,,,,,0.3327,,,,,,,,,,,,,,,,,,,,,,60f849ba229ad7f52b11f7e6,6103754867a96bccba0c7108,2021-07-29_21h34.26.029,Simcolourproject_2stim_asymm_v5,2020.2.10,Win32,60,61025ae37ef11b136ea224fe,,,,,,,,,1712,33,54.5,1,0,0,response1disk,,7,-8,-0.5,1,0,0,rectangle,-8,-0.5,1,0,0,-8,-0.5,1,0,0,1,103,263,127,1,,,,,,,,
,,,,,,,,,,,,,FF,,,,,,,,0.3718,,,,,,,,,,,,,,,,,,,,,,60f849ba229ad7f52b11f7e6,6103754867a96bccba0c7108,2021-07-29_21h34.26.029,Simcolourproject_2stim_asymm_v5,2020.2.10,Win32,60,61025ae37ef11b136ea224fe,,,,,,,,,3461,31,79.5,1,0,0,response1disk,,7,-1,9.5,1,0,0,rectangle,36,80.5,1,0,0,0,5.5,1,0,0,1,104,264,100,1,,response1disk_3,TRUE,7,5,"[284,323,114,236,69,213,238,265,62,306,276,276,82,51,96,234,110,131,189,75]",0.5727,rectangle
,,,,,,,,,,,,,FF,,,,,,,,1.2752,,,,,,,,,,,,,,,,,,,,,,60f849ba229ad7f52b11f7e6,6103754867a96bccba0c7108,2021-07-29_21h34.26.029,Simcolourproject_2stim_asymm_v5,2020.2.10,Win32,60,61025ae37ef11b136ea224fe,,,,,,,,,1052,22,-76.5,1,0,0,response3disk,,4,-18,11.5,1,0,0,rectangle,-18,11.5,1,0,0,-18,11.5,1,0,0,1,105,265,113,1,,,,,,,,
,,,,,,,,,,,,,FF,,,,,,,,1.5312,,,,,,,,,,,,,,,,,,,,,,60f849ba229ad7f52b11f7e6,6103754867a96bccba0c7108,2021-07-29_21h34.26.029,Simcolourproject_2stim_asymm_v5,2020.2.10,Win32,60,61025ae37ef11b136ea224fe,,,,,,,,,2359,23,-74.5,1,0,0,response3disk,,4,-14,-1.5,1,0,0,rectangle,-14,-1.5,1,0,0,-14,-1.5,1,0,0,1,106,266,98,1,,,,,,,,
,,,,,,,,,,,,,FF,,,,,,,,0.5504,,,,,,,,,,,,,,,,,,,,,,60f849ba229ad7f52b11f7e6,6103754867a96bccba0c7108,2021-07-29_21h34.26.029,Simcolourproject_2stim_asymm_v5,2020.2.10,Win32,60,61025ae37ef11b136ea224fe,,,,,,,,,2586,29,63.5,1,0,0,response1disk,,7,1,6.5,1,0,0,rectangle,1,6.5,1,0,0,1,6.5,1,0,0,1,107,267,10,1,,,,,,,,
,,,,,,,,,,,,,FF,,,,,,,,0.3533,,,,,,,,,,,,,,,,,,,,,,60f849ba229ad7f52b11f7e6,6103754867a96bccba0c7108,2021-07-29_21h34.26.029,Simcolourproject_2stim_asymm_v5,2020.2.10,Win32,60,61025ae37ef11b136ea224fe,,,,,,,,,3411,34,59.5,1,0,0,response1disk,,7,-1,2.5,1,0,0,rectangle,-1,2.5,1,0,0,-1,2.5,1,0,0,1,108,268,90,1,,,,,,,,
,,,,,,,,,,,,,FF,,,,,,,,0.3424,,,,,,,,,,,,,,,,,,,,,,60f849ba229ad7f52b11f7e6,6103754867a96bccba0c7108,2021-07-29_21h34.26.029,Simcolourproject_2stim_asymm_v5,2020.2.10,Win32,60,61025ae37ef11b136ea224fe,,,,,,,,,1731,35,54.5,1,0,0,response1disk,,7,-1,2.5,1,0,0,rectangle,-1,2.5,1,0,0,-1,2.5,1,0,0,1,109,269,124,1,,,,,,,,
,,,,,,,,,,,,,FF,,,,,,,,0.3347,,,,,,,,,,,,,,,,,,,,,,60f849ba229ad7f52b11f7e6,6103754867a96bccba0c7108,2021-07-29_21h34.26.029,Simcolourproject_2stim_asymm_v5,2020.2.10,Win32,60,61025ae37ef11b136ea224fe,,,,,,,,,3539,29,65.5,1,0,0,response1disk,,7,-6,1.5,1,0,0,rectangle,-6,1.5,1,0,0,-6,1.5,1,0,0,1,110,270,130,1,,,,,,,,
,,,,,,,,,,,,,FF,,,,,,,,0.307,,,,,,,,,,,,,,,,,,,,,,60f849ba229ad7f52b11f7e6,6103754867a96bccba0c7108,2021-07-29_21h34.26.029,Simcolourproject_2stim_asymm_v5,2020.2.10,Win32,60,61025ae37ef11b136ea224fe,,,,,,,,,189,26,55.5,1,0,0,response1disk,,7,0,8.5,1,0,0,rectangle,0,8.5,1,0,0,0,8.5,1,0,0,1,111,271,31,1,,,,,,,,
,,,,,,,,,,,,,FF,,,,,,,,0.5652,,,,,,,,,,,,,,,,,,,,,,60f849ba229ad7f52b11f7e6,6103754867a96bccba0c7108,2021-07-29_21h34.26.029,Simcolourproject_2stim_asymm_v5,2020.2.10,Win32,60,61025ae37ef11b136ea224fe,,,,,,,,,3767,32,71.5,1,0,0,response1disk,,7,-4,2.5,1,0,0,rectangle,-4,2.5,1,0,0,-4,2.5,1,0,0,1,112,272,151,1,,,,,,,,
,,,,,,,,,,,,,FF,,,,,,,,0.5164,,,,,,,,,,,,,,,,,,,,,,60f849ba229ad7f52b11f7e6,6103754867a96bccba0c7108,2021-07-29_21h34.26.029,Simcolourproject_2stim_asymm_v5,2020.2.10,Win32,60,61025ae37ef11b136ea224fe,,,,,,,,,126,28,77.5,1,0,0,response1disk,,7,-3,-1.5,1,0,0,rectangle,-3,-1.5,1,0,0,-3,-1.5,1,0,0,1,113,273,71,1,,,,,,,,
,,,,,,,,,,,,,FF,,,,,,,,0.4191,,,,,,,,,,,,,,,,,,,,,,60f849ba229ad7f52b11f7e6,6103754867a96bccba0c7108,2021-07-29_21h34.26.029,Simcolourproject_2stim_asymm_v5,2020.2.10,Win32,60,61025ae37ef11b136ea224fe,,,,,,,,,4131,33,71.5,1,0,0,response1disk,,7,-6,2.5,1,0,0,rectangle,-6,2.5,1,0,0,-6,2.5,1,0,0,1,114,274,36,1,,,,,,,,
,,,,,,,,,,,,,FF,,,,,,,,0.348,,,,,,,,,,,,,,,,,,,,,,60f849ba229ad7f52b11f7e6,6103754867a96bccba0c7108,2021-07-29_21h34.26.029,Simcolourproject_2stim_asymm_v5,2020.2.10,Win32,60,61025ae37ef11b136ea224fe,,,,,,,,,1772,22,55.5,1,0,0,response1disk,,7,-6,10.5,1,0,0,rectangle,54,-87.5,1,0,0,-1,3.5,1,0,0,1,115,275,9,1,,response3disk_3,TRUE,4,4,"[284,323,114,236,69,213,238,265,62,306,276,276,82,51,96,234,110,131,189,75]",1.4409,rectangle
,,,,,,,,,,,,,FF,,,,,,,,2.2672,,,,,,,,,,,,,,,,,,,,,,60f849ba229ad7f52b11f7e6,6103754867a96bccba0c7108,2021-07-29_21h34.26.029,Simcolourproject_2stim_asymm_v5,2020.2.10,Win32,60,61025ae37ef11b136ea224fe,,,,,,,,,385,25,48.5,1,0,0,response1disk,,7,1,3.5,1,0,0,rectangle,1,3.5,1,0,0,1,3.5,1,0,0,1,116,276,37,1,,,,,,,,
,,,,,,,,,,,,,FF,,,,,,,,0.8311,,,,,,,,,,,,,,,,,,,,,,60f849ba229ad7f52b11f7e6,6103754867a96bccba0c7108,2021-07-29_21h34.26.029,Simcolourproject_2stim_asymm_v5,2020.2.10,Win32,60,61025ae37ef11b136ea224fe,,,,,,,,,1165,42,63.5,1,0,0,response1disk,,7,13,8.5,1,0,0,rectangle,13,8.5,1,0,0,13,8.5,1,0,0,1,117,277,40,1,,,,,,,,
,,,,,,,,,,,,,FF,,,,,,,,0.3866,,,,,,,,,,,,,,,,,,,,,,60f849ba229ad7f52b11f7e6,6103754867a96bccba0c7108,2021-07-29_21h34.26.029,Simcolourproject_2stim_asymm_v5,2020.2.10,Win32,60,61025ae37ef11b136ea224fe,,,,,,,,,751,34,58.5,1,0,0,response1disk,,7,3,7.5,1,0,0,rectangle,3,7.5,1,0,0,3,7.5,1,0,0,1,118,278,115,1,,,,,,,,
,,,,,,,,,,,,,FF,,,,,,,,1.1004,,,,,,,,,,,,,,,,,,,,,,60f849ba229ad7f52b11f7e6,6103754867a96bccba0c7108,2021-07-29_21h34.26.029,Simcolourproject_2stim_asymm_v5,2020.2.10,Win32,60,61025ae37ef11b136ea224fe,,,,,,,,,2423,34,-86.5,1,0,0,response3disk,,4,8,-7.5,1,0,0,rectangle,8,-7.5,1,0,0,8,-7.5,1,0,0,1,119,279,25,1,,,,,,,,
,,,,,,,,,,,,,FF,,,,,,,,0.3974,,,,,,,,,,,,,,,,,,,,,,60f849ba229ad7f52b11f7e6,6103754867a96bccba0c7108,2021-07-29_21h34.26.029,Simcolourproject_2stim_asymm_v5,2020.2.10,Win32,60,61025ae37ef11b136ea224fe,,,,,,,,,4178,40,82.5,1,0,0,response1disk,,7,-3,-9.5,1,0,0,rectangle,-3,-9.5,1,0,0,-3,-9.5,1,0,0,1,120,280,34,1,,,,,,,,
,,,,,,,,,,,,,FF,,,,,,,,2.0501,,,,,,,,,,,,,,,,,,,,,,60f849ba229ad7f52b11f7e6,6103754867a96bccba0c7108,2021-07-29_21h34.26.029,Simcolourproject_2stim_asymm_v5,2020.2.10,Win32,60,61025ae37ef11b136ea224fe,,,,,,,,,4251,-39,82.5,1,0,0,response7disk,,0,8,-1.5,1,0,0,rectangle,8,-1.5,1,0,0,8,-1.5,1,0,0,1,121,281,45,1,,,,,,,,
,,,,,,,,,,,,,FF,,,,,,,,0.543,,,,,,,,,,,,,,,,,,,,,,60f849ba229ad7f52b11f7e6,6103754867a96bccba0c7108,2021-07-29_21h34.26.029,Simcolourproject_2stim_asymm_v5,2020.2.10,Win32,60,61025ae37ef11b136ea224fe,,,,,,,,,2187,38,47.5,1,0,0,response1disk,,7,10,-9.5,1,0,0,rectangle,10,-9.5,1,0,0,10,-9.5,1,0,0,1,122,282,126,1,,,,,,,,
,,,,,,,,,,,,,FF,,,,,,,,1.0784,,,,,,,,,,,,,,,,,,,,,,60f849ba229ad7f52b11f7e6,6103754867a96bccba0c7108,2021-07-29_21h34.26.029,Simcolourproject_2stim_asymm_v5,2020.2.10,Win32,60,61025ae37ef11b136ea224fe,,,,,,,,,1222,34,-83.5,1,0,0,response3disk,,4,9,-4.5,1,0,0,rectangle,47,73.5,1,0,0,-10,-0.5,1,0,0,1,123,283,114,1,,response1disk_3,TRUE,7,7,"[284,323,114,236,69,213,238,265,62,306,276,276,82,51,96,234,110,131,189,75]",1.8118,rectangle
,,,,,,,,,,,,,FF,,,,,,,,0.6062,,,,,,,,,,,,,,,,,,,,,,60f849ba229ad7f52b11f7e6,6103754867a96bccba0c7108,2021-07-29_21h34.26.029,Simcolourproject_2stim_asymm_v5,2020.2.10,Win32,60,61025ae37ef11b136ea224fe,,,,,,,,,2402,27,50.5,1,0,0,response1disk,,7,-2,-12.5,1,0,0,rectangle,-2,-12.5,1,0,0,-2,-12.5,1,0,0,1,124,284,72,1,,,,,,,,
,,,,,,,,,,,,,FF,,,,,,,,0.3706,,,,,,,,,,,,,,,,,,,,,,60f849ba229ad7f52b11f7e6,6103754867a96bccba0c7108,2021-07-29_21h34.26.029,Simcolourproject_2stim_asymm_v5,2020.2.10,Win32,60,61025ae37ef11b136ea224fe,,,,,,,,,3894,39,68.5,1,0,0,response1disk,,7,-9,6.5,1,0,0,rectangle,-9,6.5,1,0,0,-9,6.5,1,0,0,1,125,285,51,1,,,,,,,,
,,,,,,,,,,,,,FF,,,,,,,,0.5001,,,,,,,,,,,,,,,,,,,,,,60f849ba229ad7f52b11f7e6,6103754867a96bccba0c7108,2021-07-29_21h34.26.029,Simcolourproject_2stim_asymm_v5,2020.2.10,Win32,60,61025ae37ef11b136ea224fe,,,,,,,,,3157,25,65.5,1,0,0,response1disk,,7,-9,-1.5,1,0,0,rectangle,-9,-1.5,1,0,0,-9,-1.5,1,0,0,1,126,286,29,1,,,,,,,,
,,,,,,,,,,,,,FF,,,,,,,,0.4182,,,,,,,,,,,,,,,,,,,,,,60f849ba229ad7f52b11f7e6,6103754867a96bccba0c7108,2021-07-29_21h34.26.029,Simcolourproject_2stim_asymm_v5,2020.2.10,Win32,60,61025ae37ef11b136ea224fe,,,,,,,,,753,26,49.5,1,0,0,response1disk,,7,-1,2.5,1,0,0,rectangle,-1,2.5,1,0,0,-1,2.5,1,0,0,1,127,287,64,1,,,,,,,,
,,,,,,,,,,,,,FF,,,,,,,,0.4959,,,,,,,,,,,,,,,,,,,,,,60f849ba229ad7f52b11f7e6,6103754867a96bccba0c7108,2021-07-29_21h34.26.029,Simcolourproject_2stim_asymm_v5,2020.2.10,Win32,60,61025ae37ef11b136ea224fe,,,,,,,,,1245,29,58.5,1,0,0,response1disk,,7,-2,-4.5,1,0,0,rectangle,-2,-4.5,1,0,0,-2,-4.5,1,0,0,1,128,288,88,1,,,,,,,,
,,,,,,,,,,,,,FF,,,,,,,,0.3891,,,,,,,,,,,,,,,,,,,,,,60f849ba229ad7f52b11f7e6,6103754867a96bccba0c7108,2021-07-29_21h34.26.029,Simcolourproject_2stim_asymm_v5,2020.2.10,Win32,60,61025ae37ef11b136ea224fe,,,,,,,,,2212,32,60.5,1,0,0,response1disk,,7,7,8.5,1,0,0,rectangle,7,8.5,1,0,0,7,8.5,1,0,0,1,129,289,69,1,,,,,,,,
,,,,,,,,,,,,,FF,,,,,,,,0.3968,,,,,,,,,,,,,,,,,,,,,,60f849ba229ad7f52b11f7e6,6103754867a96bccba0c7108,2021-07-29_21h34.26.029,Simcolourproject_2stim_asymm_v5,2020.2.10,Win32,60,61025ae37ef11b136ea224fe,,,,,,,,,1106,35,51.5,1,0,0,response1disk,,7,3,4.5,1,0,0,rectangle,3,4.5,1,0,0,3,4.5,1,0,0,1,130,290,15,1,,,,,,,,
,,,,,,,,,,,,,FF,,,,,,,,0.3908,,,,,,,,,,,,,,,,,,,,,,60f849ba229ad7f52b11f7e6,6103754867a96bccba0c7108,2021-07-29_21h34.26.029,Simcolourproject_2stim_asymm_v5,2020.2.10,Win32,60,61025ae37ef11b136ea224fe,,,,,,,,,2965,35,55.5,1,0,0,response1disk,,7,-2,-2.5,1,0,0,rectangle,-2,-2.5,1,0,0,-2,-2.5,1,0,0,1,131,291,22,1,,,,,,,,
,,,,,,,,,,,,,FF,,,,,,,,1.2939,,,,,,,,,,,,,,,,,,,,,,60f849ba229ad7f52b11f7e6,6103754867a96bccba0c7108,2021-07-29_21h34.26.029,Simcolourproject_2stim_asymm_v5,2020.2.10,Win32,60,61025ae37ef11b136ea224fe,,,,,,,,,1962,20,-81.5,1,0,0,response3disk,,4,2,-9.5,1,0,0,rectangle,2,-9.5,1,0,0,2,-9.5,1,0,0,1,132,292,30,1,,,,,,,,
,,,,,,,,,,,,,FF,,,,,,,,1.6179,,,,,,,,,,,,,,,,,,,,,,60f849ba229ad7f52b11f7e6,6103754867a96bccba0c7108,2021-07-29_21h34.26.029,Simcolourproject_2stim_asymm_v5,2020.2.10,Win32,60,61025ae37ef11b136ea224fe,,,,,,,,,1617,22,-90.5,1,0,0,response3disk,,4,16,-11.5,1,0,0,rectangle,16,-11.5,1,0,0,16,-11.5,1,0,0,1,133,293,136,1,,,,,,,,
,,,,,,,,,,,,,FF,,,,,,,,0.3786,,,,,,,,,,,,,,,,,,,,,,60f849ba229ad7f52b11f7e6,6103754867a96bccba0c7108,2021-07-29_21h34.26.029,Simcolourproject_2stim_asymm_v5,2020.2.10,Win32,60,61025ae37ef11b136ea224fe,,,,,,,,,519,47,63.5,1,0,0,response1disk,,7,5,-2.5,1,0,0,rectangle,5,-2.5,1,0,0,5,-2.5,1,0,0,1,134,294,94,1,,,,,,,,
,,,,,,,,,,,,,FF,,,,,,,,0.6777,,,,,,,,,,,,,,,,,,,,,,60f849ba229ad7f52b11f7e6,6103754867a96bccba0c7108,2021-07-29_21h34.26.029,Simcolourproject_2stim_asymm_v5,2020.2.10,Win32,60,61025ae37ef11b136ea224fe,,,,,,,,,3698,34,67.5,1,0,0,response1disk,,7,-19,-5.5,1,0,0,rectangle,-19,-5.5,1,0,0,-19,-5.5,1,0,0,1,135,295,82,1,,,,,,,,
,,,,,,,,,,,,,FF,,,,,,,,0.4931,,,,,,,,,,,,,,,,,,,,,,60f849ba229ad7f52b11f7e6,6103754867a96bccba0c7108,2021-07-29_21h34.26.029,Simcolourproject_2stim_asymm_v5,2020.2.10,Win32,60,61025ae37ef11b136ea224fe,,,,,,,,,2313,29,46.5,1,0,0,response1disk,,7,-3,-1.5,1,0,0,rectangle,-3,-1.5,1,0,0,-3,-1.5,1,0,0,1,136,296,66,1,,,,,,,,
,,,,,,,,,,,,,FF,,,,,,,,0.4166,,,,,,,,,,,,,,,,,,,,,,60f849ba229ad7f52b11f7e6,6103754867a96bccba0c7108,2021-07-29_21h34.26.029,Simcolourproject_2stim_asymm_v5,2020.2.10,Win32,60,61025ae37ef11b136ea224fe,,,,,,,,,232,40,72.5,1,0,0,response1disk,,7,3,1.5,1,0,0,rectangle,3,1.5,1,0,0,3,1.5,1,0,0,1,137,297,16,1,,,,,,,,
