key_resp.keys,key_resp.rt,key_resp_14.keys,key_resp_14.rt,key_resp_15.keys,key_resp_15.rt,key_resp_17.keys,key_resp_17.rt,key_resp_9.keys,key_resp_9.rt,key_resp_10.keys,key_resp_10.rt,practice_comparison,Ecc,mouse_5.x,mouse_5.y,mouse_5.leftButton,mouse_5.midButton,mouse_5.rightButton,mouse_5.clicked_name,pracsimilarity,response_time,mouse_10.x,mouse_10.y,mouse_10.leftButton,mouse_10.midButton,mouse_10.rightButton,mouse_10.clicked_name,mouse_7.x,mouse_7.y,mouse_7.leftButton,mouse_7.midButton,mouse_7.rightButton,mouse_6.x,mouse_6.y,mouse_6.leftButton,mouse_6.midButton,mouse_6.rightButton,duringprac.thisRepN,duringprac.thisTrialN,duringprac.thisN,duringprac.thisIndex,duringprac.ran,participant,session,date,expName,psychopyVersion,OS,frameRate,study_id,mouse_7.clicked_name,catchpracsimilarity,catch_response_time,catchnumberprac,catchtrialorderprac,mouse_6.clicked_name,key_resp_22.keys,key_resp_22.rt,realcomparison,mouse.x,mouse.y,mouse.leftButton,mouse.midButton,mouse.rightButton,mouse.clicked_name,Colour2,similarity,mouse_2.x,mouse_2.y,mouse_2.leftButton,mouse_2.midButton,mouse_2.rightButton,mouse_2.clicked_name,mouse_3.x,mouse_3.y,mouse_3.leftButton,mouse_3.midButton,mouse_3.rightButton,mouse_11.x,mouse_11.y,mouse_11.leftButton,mouse_11.midButton,mouse_11.rightButton,trials_2.thisRepN,trials_2.thisTrialN,trials_2.thisN,trials_2.thisIndex,trials_2.ran,Colour1,mouse_3.clicked_name,catchornah,catchsimilarity,catchnumber,catchtrialorder,catchRT,mouse_11.clicked_name
space,2.3586,space,85.9664,space,202.6007,space,58.8016,space,7.8191,space,12.9042,74,PF,64,-52,1,0,0,response3disk_5,5,12.9788,-26,-4,1,0,0,rectangle_8,-26,-4,1,0,0,-26,-4,1,0,0,0,0,0,6,1,60f8d449cbfb4e157c2d7c09,61037705ffc2a1abcda5b116,2021-07-29_22h56.38.561,Simcolourproject_2stim_asymm_v5,2020.2.10,Win32,60,61025ae37ef11b136ea224fe,,,,,,,,,,,,,,,,,,,,,,,,,,,,,,,,,,,,,,,,,,,,,,
,,,,,,,,,,,,75,PF,100,-72,1,0,0,response3disk_5,5,7.4026,-25,-1,1,0,0,rectangle_8,-47,-107,1,0,0,14,7,1,0,0,0,1,1,2,1,60f8d449cbfb4e157c2d7c09,61037705ffc2a1abcda5b116,2021-07-29_22h56.38.561,Simcolourproject_2stim_asymm_v5,2020.2.10,Win32,60,61025ae37ef11b136ea224fe,response5disk_7,3,15.6615,0,"[2,5]",rectangle_4,,,,,,,,,,,,,,,,,,,,,,,,,,,,,,,,,,,,,,,,
,,,,,,,,,,,,146,FF,-130,-63,1,0,0,response5disk_5,2,5.3186,-12,-8,1,0,0,rectangle_8,-12,-8,1,0,0,-12,-8,1,0,0,0,2,2,3,1,60f8d449cbfb4e157c2d7c09,61037705ffc2a1abcda5b116,2021-07-29_22h56.38.561,Simcolourproject_2stim_asymm_v5,2020.2.10,Win32,60,61025ae37ef11b136ea224fe,,,,,,,,,,,,,,,,,,,,,,,,,,,,,,,,,,,,,,,,,,,,,,
,,,,,,,,,,,,110,FF,74,-29,1,0,0,response3disk_5,5,2.5145,3,-2,1,0,0,rectangle_8,3,-2,1,0,0,3,-2,1,0,0,0,3,3,5,1,60f8d449cbfb4e157c2d7c09,61037705ffc2a1abcda5b116,2021-07-29_22h56.38.561,Simcolourproject_2stim_asymm_v5,2020.2.10,Win32,60,61025ae37ef11b136ea224fe,,,,,,,,,,,,,,,,,,,,,,,,,,,,,,,,,,,,,,,,,,,,,,
,,,,,,,,,,,,131,PF,-55,-102,1,0,0,response5disk_5,3,3.4906,1,15,1,0,0,rectangle_8,-104,59,1,0,0,-20,13,1,0,0,0,4,4,1,1,60f8d449cbfb4e157c2d7c09,61037705ffc2a1abcda5b116,2021-07-29_22h56.38.561,Simcolourproject_2stim_asymm_v5,2020.2.10,Win32,60,61025ae37ef11b136ea224fe,response7disk_7,1,5.324,0,"[2,5]",rectangle_4,,,,,,,,,,,,,,,,,,,,,,,,,,,,,,,,,,,,,,,,
,,,,,,,,,,,,66,PF,26,-95,1,0,0,response3disk_5,4,4.4067,2,14,1,0,0,rectangle_8,2,14,1,0,0,2,14,1,0,0,0,5,5,4,1,60f8d449cbfb4e157c2d7c09,61037705ffc2a1abcda5b116,2021-07-29_22h56.38.561,Simcolourproject_2stim_asymm_v5,2020.2.10,Win32,60,61025ae37ef11b136ea224fe,,,,,,,,,,,,,,,,,,,,,,,,,,,,,,,,,,,,,,,,,,,,,,
,,,,,,,,,,,,87,FF,80,-69,1,0,0,response3disk_5,5,3.3349,-21,12,1,0,0,rectangle_8,-21,12,1,0,0,-21,12,1,0,0,0,6,6,0,1,60f8d449cbfb4e157c2d7c09,61037705ffc2a1abcda5b116,2021-07-29_22h56.38.561,Simcolourproject_2stim_asymm_v5,2020.2.10,Win32,60,61025ae37ef11b136ea224fe,,,,,,,,,,,,,,,,,,,,,,,,,,,,,,,,,,,,,,,,,,,,,,
,,,,,,,,,,,,,FF,,,,,,,,2.451,,,,,,,,,,,,,,,,,,,,,,60f8d449cbfb4e157c2d7c09,61037705ffc2a1abcda5b116,2021-07-29_22h56.38.561,Simcolourproject_2stim_asymm_v5,2020.2.10,Win32,60,61025ae37ef11b136ea224fe,,,,,,,space,5.0122,3302,83,-63,1,0,0,response3disk,,5,0,-8,1,0,0,rectangle,0,-8,1,0,0,0,-8,1,0,0,0,0,0,156,1,,,,,,,,
,,,,,,,,,,,,,FF,,,,,,,,4.5391,,,,,,,,,,,,,,,,,,,,,,60f8d449cbfb4e157c2d7c09,61037705ffc2a1abcda5b116,2021-07-29_22h56.38.561,Simcolourproject_2stim_asymm_v5,2020.2.10,Win32,60,61025ae37ef11b136ea224fe,,,,,,,,,2698,98,-62,1,0,0,response3disk,,5,18,-15,1,0,0,rectangle,18,-15,1,0,0,18,-15,1,0,0,0,1,1,102,1,,,,,,,,
,,,,,,,,,,,,,FF,,,,,,,,1.0128,,,,,,,,,,,,,,,,,,,,,,60f8d449cbfb4e157c2d7c09,61037705ffc2a1abcda5b116,2021-07-29_22h56.38.561,Simcolourproject_2stim_asymm_v5,2020.2.10,Win32,60,61025ae37ef11b136ea224fe,,,,,,,,,4077,100,-46,1,0,0,response3disk,,5,17,-8,1,0,0,rectangle,17,-8,1,0,0,17,-8,1,0,0,0,2,2,76,1,,,,,,,,
,,,,,,,,,,,,,FF,,,,,,,,4.8308,,,,,,,,,,,,,,,,,,,,,,60f8d449cbfb4e157c2d7c09,61037705ffc2a1abcda5b116,2021-07-29_22h56.38.561,Simcolourproject_2stim_asymm_v5,2020.2.10,Win32,60,61025ae37ef11b136ea224fe,,,,,,,,,1550,98,-50,1,0,0,response3disk,,5,8,7,1,0,0,rectangle,8,7,1,0,0,8,7,1,0,0,0,3,3,51,1,,,,,,,,
,,,,,,,,,,,,,FF,,,,,,,,3.4696,,,,,,,,,,,,,,,,,,,,,,60f8d449cbfb4e157c2d7c09,61037705ffc2a1abcda5b116,2021-07-29_22h56.38.561,Simcolourproject_2stim_asymm_v5,2020.2.10,Win32,60,61025ae37ef11b136ea224fe,,,,,,,,,4230,130,34,1,0,0,response1disk,,6,0,-14,1,0,0,rectangle,0,-14,1,0,0,0,-14,1,0,0,0,4,4,75,1,,,,,,,,
,,,,,,,,,,,,,FF,,,,,,,,4.0345,,,,,,,,,,,,,,,,,,,,,,60f8d449cbfb4e157c2d7c09,61037705ffc2a1abcda5b116,2021-07-29_22h56.38.561,Simcolourproject_2stim_asymm_v5,2020.2.10,Win32,60,61025ae37ef11b136ea224fe,,,,,,,,,2216,120,-72,1,0,0,response3disk,,5,9,-1,1,0,0,rectangle,9,-1,1,0,0,9,-1,1,0,0,0,5,5,92,1,,,,,,,,
,,,,,,,,,,,,,FF,,,,,,,,2.0185,,,,,,,,,,,,,,,,,,,,,,60f8d449cbfb4e157c2d7c09,61037705ffc2a1abcda5b116,2021-07-29_22h56.38.561,Simcolourproject_2stim_asymm_v5,2020.2.10,Win32,60,61025ae37ef11b136ea224fe,,,,,,,,,471,87,34,1,0,0,response1disk,,6,-14,-10,1,0,0,rectangle,-14,-10,1,0,0,-14,-10,1,0,0,0,6,6,130,1,,,,,,,,
,,,,,,,,,,,,,FF,,,,,,,,3.592,,,,,,,,,,,,,,,,,,,,,,60f8d449cbfb4e157c2d7c09,61037705ffc2a1abcda5b116,2021-07-29_22h56.38.561,Simcolourproject_2stim_asymm_v5,2020.2.10,Win32,60,61025ae37ef11b136ea224fe,,,,,,,,,821,68,-36,1,0,0,response3disk,,5,-4,-4,1,0,0,rectangle,-4,-4,1,0,0,-4,-4,1,0,0,0,7,7,91,1,,,,,,,,
,,,,,,,,,,,,,FF,,,,,,,,1.618,,,,,,,,,,,,,,,,,,,,,,60f8d449cbfb4e157c2d7c09,61037705ffc2a1abcda5b116,2021-07-29_22h56.38.561,Simcolourproject_2stim_asymm_v5,2020.2.10,Win32,60,61025ae37ef11b136ea224fe,,,,,,,,,1956,-58,94,1,0,0,response7disk,,0,-20,4,1,0,0,rectangle,-20,4,1,0,0,-20,4,1,0,0,0,8,8,67,1,,,,,,,,
,,,,,,,,,,,,,FF,,,,,,,,2.2015,,,,,,,,,,,,,,,,,,,,,,60f8d449cbfb4e157c2d7c09,61037705ffc2a1abcda5b116,2021-07-29_22h56.38.561,Simcolourproject_2stim_asymm_v5,2020.2.10,Win32,60,61025ae37ef11b136ea224fe,,,,,,,,,2146,98,31,1,0,0,response1disk,,6,-17,-8,1,0,0,rectangle,-17,-8,1,0,0,-17,-8,1,0,0,0,9,9,57,1,,,,,,,,
,,,,,,,,,,,,,FF,,,,,,,,3.2,,,,,,,,,,,,,,,,,,,,,,60f8d449cbfb4e157c2d7c09,61037705ffc2a1abcda5b116,2021-07-29_22h56.38.561,Simcolourproject_2stim_asymm_v5,2020.2.10,Win32,60,61025ae37ef11b136ea224fe,,,,,,,,,3440,106,-62,1,0,0,response3disk,,5,7,6,1,0,0,rectangle,7,6,1,0,0,7,6,1,0,0,0,10,10,68,1,,,,,,,,
,,,,,,,,,,,,,FF,,,,,,,,1.8339,,,,,,,,,,,,,,,,,,,,,,60f8d449cbfb4e157c2d7c09,61037705ffc2a1abcda5b116,2021-07-29_22h56.38.561,Simcolourproject_2stim_asymm_v5,2020.2.10,Win32,60,61025ae37ef11b136ea224fe,,,,,,,,,1976,119,-41,1,0,0,response3disk,,5,-10,-11,1,0,0,rectangle,-10,-11,1,0,0,-10,-11,1,0,0,0,11,11,0,1,,,,,,,,
,,,,,,,,,,,,,FF,,,,,,,,0.9009,,,,,,,,,,,,,,,,,,,,,,60f8d449cbfb4e157c2d7c09,61037705ffc2a1abcda5b116,2021-07-29_22h56.38.561,Simcolourproject_2stim_asymm_v5,2020.2.10,Win32,60,61025ae37ef11b136ea224fe,,,,,,,,,4280,-64,89,1,0,0,response7disk,,0,-4,-21,1,0,0,rectangle,51,99,1,0,0,-10,-9,1,0,0,0,12,12,123,1,,response1disk_3,TRUE,7,7,"[100,296,88,15,86,310,181,143,291,13,158,270,104,276,251,68,268,244,107,234]",4.2704,rectangle
,,,,,,,,,,,,,FF,,,,,,,,1.8505,,,,,,,,,,,,,,,,,,,,,,60f8d449cbfb4e157c2d7c09,61037705ffc2a1abcda5b116,2021-07-29_22h56.38.561,Simcolourproject_2stim_asymm_v5,2020.2.10,Win32,60,61025ae37ef11b136ea224fe,,,,,,,,,2270,89,-59,1,0,0,response3disk,,5,-19,4,1,0,0,rectangle,-19,4,1,0,0,-19,4,1,0,0,0,13,13,143,1,,,,,,,,
,,,,,,,,,,,,,FF,,,,,,,,2.5843,,,,,,,,,,,,,,,,,,,,,,60f8d449cbfb4e157c2d7c09,61037705ffc2a1abcda5b116,2021-07-29_22h56.38.561,Simcolourproject_2stim_asymm_v5,2020.2.10,Win32,60,61025ae37ef11b136ea224fe,,,,,,,,,2959,51,90,1,0,0,response1disk,,7,14,-11,1,0,0,rectangle,-114,37,1,0,0,-2,-5,1,0,0,0,14,14,157,1,,response7disk_3,TRUE,1,1,"[100,296,88,15,86,310,181,143,291,13,158,270,104,276,251,68,268,244,107,234]",3.151,rectangle
,,,,,,,,,,,,,FF,,,,,,,,1.2676,,,,,,,,,,,,,,,,,,,,,,60f8d449cbfb4e157c2d7c09,61037705ffc2a1abcda5b116,2021-07-29_22h56.38.561,Simcolourproject_2stim_asymm_v5,2020.2.10,Win32,60,61025ae37ef11b136ea224fe,,,,,,,,,539,108,41,1,0,0,response1disk,,6,-17,-9,1,0,0,rectangle,-17,-9,1,0,0,-17,-9,1,0,0,0,15,15,89,1,,,,,,,,
,,,,,,,,,,,,,FF,,,,,,,,3.6863,,,,,,,,,,,,,,,,,,,,,,60f8d449cbfb4e157c2d7c09,61037705ffc2a1abcda5b116,2021-07-29_22h56.38.561,Simcolourproject_2stim_asymm_v5,2020.2.10,Win32,60,61025ae37ef11b136ea224fe,,,,,,,,,80,-77,-118,1,0,0,response5disk,,3,16,-5,1,0,0,rectangle,16,-5,1,0,0,16,-5,1,0,0,0,16,16,14,1,,,,,,,,
,,,,,,,,,,,,,FF,,,,,,,,2.8345,,,,,,,,,,,,,,,,,,,,,,60f8d449cbfb4e157c2d7c09,61037705ffc2a1abcda5b116,2021-07-29_22h56.38.561,Simcolourproject_2stim_asymm_v5,2020.2.10,Win32,60,61025ae37ef11b136ea224fe,,,,,,,,,2922,36,66,1,0,0,response1disk,,7,-2,-18,1,0,0,rectangle,-2,-18,1,0,0,-2,-18,1,0,0,0,17,17,112,1,,,,,,,,
,,,,,,,,,,,,,FF,,,,,,,,1.0671,,,,,,,,,,,,,,,,,,,,,,60f8d449cbfb4e157c2d7c09,61037705ffc2a1abcda5b116,2021-07-29_22h56.38.561,Simcolourproject_2stim_asymm_v5,2020.2.10,Win32,60,61025ae37ef11b136ea224fe,,,,,,,,,1454,-54,89,1,0,0,response7disk,,0,-10,5,1,0,0,rectangle,-10,5,1,0,0,-10,5,1,0,0,0,18,18,26,1,,,,,,,,
,,,,,,,,,,,,,FF,,,,,,,,3.5847,,,,,,,,,,,,,,,,,,,,,,60f8d449cbfb4e157c2d7c09,61037705ffc2a1abcda5b116,2021-07-29_22h56.38.561,Simcolourproject_2stim_asymm_v5,2020.2.10,Win32,60,61025ae37ef11b136ea224fe,,,,,,,,,1471,79,35,1,0,0,response1disk,,6,-18,-19,1,0,0,rectangle,-18,-19,1,0,0,-18,-19,1,0,0,0,19,19,63,1,,,,,,,,
,,,,,,,,,,,,,FF,,,,,,,,1.2671,,,,,,,,,,,,,,,,,,,,,,60f8d449cbfb4e157c2d7c09,61037705ffc2a1abcda5b116,2021-07-29_22h56.38.561,Simcolourproject_2stim_asymm_v5,2020.2.10,Win32,60,61025ae37ef11b136ea224fe,,,,,,,,,1609,-50,77,1,0,0,response7disk,,0,10,-15,1,0,0,rectangle,10,-15,1,0,0,10,-15,1,0,0,0,20,20,87,1,,,,,,,,
,,,,,,,,,,,,,FF,,,,,,,,2.9018,,,,,,,,,,,,,,,,,,,,,,60f8d449cbfb4e157c2d7c09,61037705ffc2a1abcda5b116,2021-07-29_22h56.38.561,Simcolourproject_2stim_asymm_v5,2020.2.10,Win32,60,61025ae37ef11b136ea224fe,,,,,,,,,1198,67,86,1,0,0,response1disk,,7,26,4,1,0,0,rectangle,26,4,1,0,0,26,4,1,0,0,0,21,21,43,1,,,,,,,,
,,,,,,,,,,,,,FF,,,,,,,,1.9008,,,,,,,,,,,,,,,,,,,,,,60f8d449cbfb4e157c2d7c09,61037705ffc2a1abcda5b116,2021-07-29_22h56.38.561,Simcolourproject_2stim_asymm_v5,2020.2.10,Win32,60,61025ae37ef11b136ea224fe,,,,,,,,,1502,30,90,1,0,0,response1disk,,7,-5,-10,1,0,0,rectangle,-5,-10,1,0,0,-5,-10,1,0,0,0,22,22,99,1,,,,,,,,
,,,,,,,,,,,,,FF,,,,,,,,2.8515,,,,,,,,,,,,,,,,,,,,,,60f8d449cbfb4e157c2d7c09,61037705ffc2a1abcda5b116,2021-07-29_22h56.38.561,Simcolourproject_2stim_asymm_v5,2020.2.10,Win32,60,61025ae37ef11b136ea224fe,,,,,,,,,2032,102,35,1,0,0,response1disk,,6,-31,4,1,0,0,rectangle,-31,4,1,0,0,-31,4,1,0,0,0,23,23,61,1,,,,,,,,
,,,,,,,,,,,,,FF,,,,,,,,2.1172,,,,,,,,,,,,,,,,,,,,,,60f8d449cbfb4e157c2d7c09,61037705ffc2a1abcda5b116,2021-07-29_22h56.38.561,Simcolourproject_2stim_asymm_v5,2020.2.10,Win32,60,61025ae37ef11b136ea224fe,,,,,,,,,2299,56,32,1,0,0,response1disk,,6,4,-16,1,0,0,rectangle,4,-16,1,0,0,4,-16,1,0,0,0,24,24,126,1,,,,,,,,
,,,,,,,,,,,,,FF,,,,,,,,1.4672,,,,,,,,,,,,,,,,,,,,,,60f8d449cbfb4e157c2d7c09,61037705ffc2a1abcda5b116,2021-07-29_22h56.38.561,Simcolourproject_2stim_asymm_v5,2020.2.10,Win32,60,61025ae37ef11b136ea224fe,,,,,,,,,1567,45,91,1,0,0,response1disk,,7,13,-8,1,0,0,rectangle,13,-8,1,0,0,13,-8,1,0,0,0,25,25,128,1,,,,,,,,
,,,,,,,,,,,,,FF,,,,,,,,2.1843,,,,,,,,,,,,,,,,,,,,,,60f8d449cbfb4e157c2d7c09,61037705ffc2a1abcda5b116,2021-07-29_22h56.38.561,Simcolourproject_2stim_asymm_v5,2020.2.10,Win32,60,61025ae37ef11b136ea224fe,,,,,,,,,2192,43,72,1,0,0,response1disk,,7,19,-11,1,0,0,rectangle,19,-11,1,0,0,19,-11,1,0,0,0,26,26,11,1,,,,,,,,
,,,,,,,,,,,,,FF,,,,,,,,3.0179,,,,,,,,,,,,,,,,,,,,,,60f8d449cbfb4e157c2d7c09,61037705ffc2a1abcda5b116,2021-07-29_22h56.38.561,Simcolourproject_2stim_asymm_v5,2020.2.10,Win32,60,61025ae37ef11b136ea224fe,,,,,,,,,370,74,50,1,0,0,response1disk,,6,-18,-8,1,0,0,rectangle,-18,-8,1,0,0,-18,-8,1,0,0,0,27,27,2,1,,,,,,,,
,,,,,,,,,,,,,FF,,,,,,,,3.0193,,,,,,,,,,,,,,,,,,,,,,60f8d449cbfb4e157c2d7c09,61037705ffc2a1abcda5b116,2021-07-29_22h56.38.561,Simcolourproject_2stim_asymm_v5,2020.2.10,Win32,60,61025ae37ef11b136ea224fe,,,,,,,,,3950,-87,-123,1,0,0,response5disk,,3,15,-5,1,0,0,rectangle,15,-5,1,0,0,15,-5,1,0,0,0,28,28,103,1,,,,,,,,
,,,,,,,,,,,,,FF,,,,,,,,2.4898,,,,,,,,,,,,,,,,,,,,,,60f8d449cbfb4e157c2d7c09,61037705ffc2a1abcda5b116,2021-07-29_22h56.38.561,Simcolourproject_2stim_asymm_v5,2020.2.10,Win32,60,61025ae37ef11b136ea224fe,,,,,,,,,1580,51,75,1,0,0,response1disk,,7,10,-16,1,0,0,rectangle,10,-16,1,0,0,10,-16,1,0,0,0,29,29,94,1,,,,,,,,
,,,,,,,,,,,,,FF,,,,,,,,2.2889,,,,,,,,,,,,,,,,,,,,,,60f8d449cbfb4e157c2d7c09,61037705ffc2a1abcda5b116,2021-07-29_22h56.38.561,Simcolourproject_2stim_asymm_v5,2020.2.10,Win32,60,61025ae37ef11b136ea224fe,,,,,,,,,1799,29,57,1,0,0,response1disk,,7,23,-11,1,0,0,rectangle,23,-11,1,0,0,23,-11,1,0,0,0,30,30,46,1,,,,,,,,
,,,,,,,,,,,,,FF,,,,,,,,1.1004,,,,,,,,,,,,,,,,,,,,,,60f8d449cbfb4e157c2d7c09,61037705ffc2a1abcda5b116,2021-07-29_22h56.38.561,Simcolourproject_2stim_asymm_v5,2020.2.10,Win32,60,61025ae37ef11b136ea224fe,,,,,,,,,1558,95,36,1,0,0,response1disk,,6,-14,-19,1,0,0,rectangle,-14,-19,1,0,0,-14,-19,1,0,0,0,31,31,124,1,,,,,,,,
,,,,,,,,,,,,,FF,,,,,,,,1.5619,,,,,,,,,,,,,,,,,,,,,,60f8d449cbfb4e157c2d7c09,61037705ffc2a1abcda5b116,2021-07-29_22h56.38.561,Simcolourproject_2stim_asymm_v5,2020.2.10,Win32,60,61025ae37ef11b136ea224fe,,,,,,,,,1924,39,62,1,0,0,response1disk,,7,-13,-7,1,0,0,rectangle,-13,-7,1,0,0,-13,-7,1,0,0,0,32,32,36,1,,,,,,,,
,,,,,,,,,,,,,FF,,,,,,,,1.3523,,,,,,,,,,,,,,,,,,,,,,60f8d449cbfb4e157c2d7c09,61037705ffc2a1abcda5b116,2021-07-29_22h56.38.561,Simcolourproject_2stim_asymm_v5,2020.2.10,Win32,60,61025ae37ef11b136ea224fe,,,,,,,,,1197,35,53,1,0,0,response1disk,,7,-1,-17,1,0,0,rectangle,-1,-17,1,0,0,-1,-17,1,0,0,0,33,33,108,1,,,,,,,,
,,,,,,,,,,,,,FF,,,,,,,,0.8562,,,,,,,,,,,,,,,,,,,,,,60f8d449cbfb4e157c2d7c09,61037705ffc2a1abcda5b116,2021-07-29_22h56.38.561,Simcolourproject_2stim_asymm_v5,2020.2.10,Win32,60,61025ae37ef11b136ea224fe,,,,,,,,,4287,46,67,1,0,0,response1disk,,7,3,-7,1,0,0,rectangle,3,-7,1,0,0,3,-7,1,0,0,0,34,34,16,1,,,,,,,,
,,,,,,,,,,,,,FF,,,,,,,,1.1842,,,,,,,,,,,,,,,,,,,,,,60f8d449cbfb4e157c2d7c09,61037705ffc2a1abcda5b116,2021-07-29_22h56.38.561,Simcolourproject_2stim_asymm_v5,2020.2.10,Win32,60,61025ae37ef11b136ea224fe,,,,,,,,,2634,47,74,1,0,0,response1disk,,7,-19,-12,1,0,0,rectangle,-19,-12,1,0,0,-19,-12,1,0,0,0,35,35,29,1,,,,,,,,
,,,,,,,,,,,,,FF,,,,,,,,2.263,,,,,,,,,,,,,,,,,,,,,,60f8d449cbfb4e157c2d7c09,61037705ffc2a1abcda5b116,2021-07-29_22h56.38.561,Simcolourproject_2stim_asymm_v5,2020.2.10,Win32,60,61025ae37ef11b136ea224fe,,,,,,,,,698,57,77,1,0,0,response1disk,,7,-15,-9,1,0,0,rectangle,-15,-9,1,0,0,-15,-9,1,0,0,0,36,36,18,1,,,,,,,,
,,,,,,,,,,,,,FF,,,,,,,,1.4861,,,,,,,,,,,,,,,,,,,,,,60f8d449cbfb4e157c2d7c09,61037705ffc2a1abcda5b116,2021-07-29_22h56.38.561,Simcolourproject_2stim_asymm_v5,2020.2.10,Win32,60,61025ae37ef11b136ea224fe,,,,,,,,,2845,40,59,1,0,0,response1disk,,7,2,-8,1,0,0,rectangle,2,-8,1,0,0,2,-8,1,0,0,0,37,37,47,1,,,,,,,,
,,,,,,,,,,,,,FF,,,,,,,,0.8047,,,,,,,,,,,,,,,,,,,,,,60f8d449cbfb4e157c2d7c09,61037705ffc2a1abcda5b116,2021-07-29_22h56.38.561,Simcolourproject_2stim_asymm_v5,2020.2.10,Win32,60,61025ae37ef11b136ea224fe,,,,,,,,,4289,40,48,1,0,0,response1disk,,7,-12,-10,1,0,0,rectangle,-12,-10,1,0,0,-12,-10,1,0,0,0,38,38,114,1,,,,,,,,
,,,,,,,,,,,,,FF,,,,,,,,1.0837,,,,,,,,,,,,,,,,,,,,,,60f8d449cbfb4e157c2d7c09,61037705ffc2a1abcda5b116,2021-07-29_22h56.38.561,Simcolourproject_2stim_asymm_v5,2020.2.10,Win32,60,61025ae37ef11b136ea224fe,,,,,,,,,89,76,28,1,0,0,response1disk,,6,16,-4,1,0,0,rectangle,16,-4,1,0,0,16,-4,1,0,0,0,39,39,7,1,,,,,,,,
,,,,,,,,,,,,,FF,,,,,,,,0.6561,,,,,,,,,,,,,,,,,,,,,,60f8d449cbfb4e157c2d7c09,61037705ffc2a1abcda5b116,2021-07-29_22h56.38.561,Simcolourproject_2stim_asymm_v5,2020.2.10,Win32,60,61025ae37ef11b136ea224fe,,,,,,,,,910,35,54,1,0,0,response1disk,,7,6,-12,1,0,0,rectangle,6,-12,1,0,0,6,-12,1,0,0,0,40,40,3,1,,,,,,,,
,,,,,,,,,,,,,FF,,,,,,,,0.7174,,,,,,,,,,,,,,,,,,,,,,60f8d449cbfb4e157c2d7c09,61037705ffc2a1abcda5b116,2021-07-29_22h56.38.561,Simcolourproject_2stim_asymm_v5,2020.2.10,Win32,60,61025ae37ef11b136ea224fe,,,,,,,,,4149,53,59,1,0,0,response1disk,,7,13,-7,1,0,0,rectangle,13,-7,1,0,0,13,-7,1,0,0,0,41,41,85,1,,,,,,,,
,,,,,,,,,,,,,FF,,,,,,,,0.7078,,,,,,,,,,,,,,,,,,,,,,60f8d449cbfb4e157c2d7c09,61037705ffc2a1abcda5b116,2021-07-29_22h56.38.561,Simcolourproject_2stim_asymm_v5,2020.2.10,Win32,60,61025ae37ef11b136ea224fe,,,,,,,,,618,43,60,1,0,0,response1disk,,7,7,-2,1,0,0,rectangle,7,-2,1,0,0,7,-2,1,0,0,0,42,42,52,1,,,,,,,,
,,,,,,,,,,,,,FF,,,,,,,,1.0849,,,,,,,,,,,,,,,,,,,,,,60f8d449cbfb4e157c2d7c09,61037705ffc2a1abcda5b116,2021-07-29_22h56.38.561,Simcolourproject_2stim_asymm_v5,2020.2.10,Win32,60,61025ae37ef11b136ea224fe,,,,,,,,,3617,27,78,1,0,0,response1disk,,7,-4,-5,1,0,0,rectangle,-4,-5,1,0,0,-4,-5,1,0,0,0,43,43,145,1,,,,,,,,
,,,,,,,,,,,,,FF,,,,,,,,0.6223,,,,,,,,,,,,,,,,,,,,,,60f8d449cbfb4e157c2d7c09,61037705ffc2a1abcda5b116,2021-07-29_22h56.38.561,Simcolourproject_2stim_asymm_v5,2020.2.10,Win32,60,61025ae37ef11b136ea224fe,,,,,,,,,1627,31,56,1,0,0,response1disk,,7,19,-16,1,0,0,rectangle,19,-16,1,0,0,19,-16,1,0,0,0,44,44,6,1,,,,,,,,
,,,,,,,,,,,,,FF,,,,,,,,0.5724,,,,,,,,,,,,,,,,,,,,,,60f8d449cbfb4e157c2d7c09,61037705ffc2a1abcda5b116,2021-07-29_22h56.38.561,Simcolourproject_2stim_asymm_v5,2020.2.10,Win32,60,61025ae37ef11b136ea224fe,,,,,,,,,2384,40,51,1,0,0,response1disk,,7,27,-11,1,0,0,rectangle,27,-11,1,0,0,27,-11,1,0,0,0,45,45,49,1,,,,,,,,
,,,,,,,,,,,,,FF,,,,,,,,1.0804,,,,,,,,,,,,,,,,,,,,,,60f8d449cbfb4e157c2d7c09,61037705ffc2a1abcda5b116,2021-07-29_22h56.38.561,Simcolourproject_2stim_asymm_v5,2020.2.10,Win32,60,61025ae37ef11b136ea224fe,,,,,,,,,3610,36,47,1,0,0,response1disk,,7,7,-11,1,0,0,rectangle,7,-11,1,0,0,7,-11,1,0,0,0,46,46,83,1,,,,,,,,
,,,,,,,,,,,,,FF,,,,,,,,0.7385,,,,,,,,,,,,,,,,,,,,,,60f8d449cbfb4e157c2d7c09,61037705ffc2a1abcda5b116,2021-07-29_22h56.38.561,Simcolourproject_2stim_asymm_v5,2020.2.10,Win32,60,61025ae37ef11b136ea224fe,,,,,,,,,2154,126,44,1,0,0,response1disk,,6,36,-2,1,0,0,rectangle,36,-2,1,0,0,36,-2,1,0,0,0,47,47,140,1,,,,,,,,
,,,,,,,,,,,,,FF,,,,,,,,1.7661,,,,,,,,,,,,,,,,,,,,,,60f8d449cbfb4e157c2d7c09,61037705ffc2a1abcda5b116,2021-07-29_22h56.38.561,Simcolourproject_2stim_asymm_v5,2020.2.10,Win32,60,61025ae37ef11b136ea224fe,,,,,,,,,1744,-71,98,1,0,0,response7disk,,0,-11,-7,1,0,0,rectangle,-11,-7,1,0,0,-11,-7,1,0,0,0,48,48,90,1,,,,,,,,
,,,,,,,,,,,,,FF,,,,,,,,3.0517,,,,,,,,,,,,,,,,,,,,,,60f8d449cbfb4e157c2d7c09,61037705ffc2a1abcda5b116,2021-07-29_22h56.38.561,Simcolourproject_2stim_asymm_v5,2020.2.10,Win32,60,61025ae37ef11b136ea224fe,,,,,,,,,2931,-42,-94,1,0,0,response5disk,,3,6,11,1,0,0,rectangle,6,11,1,0,0,6,11,1,0,0,0,49,49,50,1,,,,,,,,
,,,,,,,,,,,,,FF,,,,,,,,1.0679,,,,,,,,,,,,,,,,,,,,,,60f8d449cbfb4e157c2d7c09,61037705ffc2a1abcda5b116,2021-07-29_22h56.38.561,Simcolourproject_2stim_asymm_v5,2020.2.10,Win32,60,61025ae37ef11b136ea224fe,,,,,,,,,2432,82,41,1,0,0,response1disk,,6,-25,8,1,0,0,rectangle,-25,8,1,0,0,-25,8,1,0,0,0,50,50,60,1,,,,,,,,
,,,,,,,,,,,,,FF,,,,,,,,2.5851,,,,,,,,,,,,,,,,,,,,,,60f8d449cbfb4e157c2d7c09,61037705ffc2a1abcda5b116,2021-07-29_22h56.38.561,Simcolourproject_2stim_asymm_v5,2020.2.10,Win32,60,61025ae37ef11b136ea224fe,,,,,,,,,3763,33,-125,1,0,0,response3disk,,4,-28,-15,1,0,0,rectangle,-28,-15,1,0,0,-28,-15,1,0,0,0,51,51,70,1,,,,,,,,
,,,,,,,,,,,,,FF,,,,,,,,0.7663,,,,,,,,,,,,,,,,,,,,,,60f8d449cbfb4e157c2d7c09,61037705ffc2a1abcda5b116,2021-07-29_22h56.38.561,Simcolourproject_2stim_asymm_v5,2020.2.10,Win32,60,61025ae37ef11b136ea224fe,,,,,,,,,1442,77,32,1,0,0,response1disk,,6,3,-10,1,0,0,rectangle,3,-10,1,0,0,3,-10,1,0,0,0,52,52,78,1,,,,,,,,
,,,,,,,,,,,,,FF,,,,,,,,0.7838,,,,,,,,,,,,,,,,,,,,,,60f8d449cbfb4e157c2d7c09,61037705ffc2a1abcda5b116,2021-07-29_22h56.38.561,Simcolourproject_2stim_asymm_v5,2020.2.10,Win32,60,61025ae37ef11b136ea224fe,,,,,,,,,1750,70,27,1,0,0,response1disk,,6,30,-4,1,0,0,rectangle,30,-4,1,0,0,30,-4,1,0,0,0,53,53,32,1,,,,,,,,
,,,,,,,,,,,,,FF,,,,,,,,6.2871,,,,,,,,,,,,,,,,,,,,,,60f8d449cbfb4e157c2d7c09,61037705ffc2a1abcda5b116,2021-07-29_22h56.38.561,Simcolourproject_2stim_asymm_v5,2020.2.10,Win32,60,61025ae37ef11b136ea224fe,,,,,,,,,2961,95,47,1,0,0,response1disk,,6,-2,7,1,0,0,rectangle,-2,7,1,0,0,-2,7,1,0,0,0,54,54,133,1,,,,,,,,
,,,,,,,,,,,,,FF,,,,,,,,1.7635,,,,,,,,,,,,,,,,,,,,,,60f8d449cbfb4e157c2d7c09,61037705ffc2a1abcda5b116,2021-07-29_22h56.38.561,Simcolourproject_2stim_asymm_v5,2020.2.10,Win32,60,61025ae37ef11b136ea224fe,,,,,,,,,491,86,39,1,0,0,response1disk,,6,18,-3,1,0,0,rectangle,18,-3,1,0,0,18,-3,1,0,0,0,55,55,13,1,,,,,,,,
,,,,,,,,,,,,,FF,,,,,,,,1.1841,,,,,,,,,,,,,,,,,,,,,,60f8d449cbfb4e157c2d7c09,61037705ffc2a1abcda5b116,2021-07-29_22h56.38.561,Simcolourproject_2stim_asymm_v5,2020.2.10,Win32,60,61025ae37ef11b136ea224fe,,,,,,,,,415,73,38,1,0,0,response1disk,,6,5,-16,1,0,0,rectangle,5,-16,1,0,0,5,-16,1,0,0,0,56,56,134,1,,,,,,,,
,,,,,,,,,,,,,FF,,,,,,,,0.6719,,,,,,,,,,,,,,,,,,,,,,60f8d449cbfb4e157c2d7c09,61037705ffc2a1abcda5b116,2021-07-29_22h56.38.561,Simcolourproject_2stim_asymm_v5,2020.2.10,Win32,60,61025ae37ef11b136ea224fe,,,,,,,,,130,30,92,1,0,0,response1disk,,7,7,3,1,0,0,rectangle,7,3,1,0,0,7,3,1,0,0,0,57,57,35,1,,,,,,,,
,,,,,,,,,,,,,FF,,,,,,,,0.8676,,,,,,,,,,,,,,,,,,,,,,60f8d449cbfb4e157c2d7c09,61037705ffc2a1abcda5b116,2021-07-29_22h56.38.561,Simcolourproject_2stim_asymm_v5,2020.2.10,Win32,60,61025ae37ef11b136ea224fe,,,,,,,,,3097,-41,70,1,0,0,response7disk,,0,-15,-4,1,0,0,rectangle,-15,-4,1,0,0,-15,-4,1,0,0,0,58,58,19,1,,,,,,,,
,,,,,,,,,,,,,FF,,,,,,,,2.2805,,,,,,,,,,,,,,,,,,,,,,60f8d449cbfb4e157c2d7c09,61037705ffc2a1abcda5b116,2021-07-29_22h56.38.561,Simcolourproject_2stim_asymm_v5,2020.2.10,Win32,60,61025ae37ef11b136ea224fe,,,,,,,,,1980,45,76,1,0,0,response1disk,,7,14,5,1,0,0,rectangle,14,5,1,0,0,14,5,1,0,0,0,59,59,25,1,,,,,,,,
,,,,,,,,,,,,,FF,,,,,,,,0.7674,,,,,,,,,,,,,,,,,,,,,,60f8d449cbfb4e157c2d7c09,61037705ffc2a1abcda5b116,2021-07-29_22h56.38.561,Simcolourproject_2stim_asymm_v5,2020.2.10,Win32,60,61025ae37ef11b136ea224fe,,,,,,,,,1282,38,54,1,0,0,response1disk,,7,11,-4,1,0,0,rectangle,11,-4,1,0,0,11,-4,1,0,0,0,60,60,66,1,,,,,,,,
,,,,,,,,,,,,,FF,,,,,,,,0.9345,,,,,,,,,,,,,,,,,,,,,,60f8d449cbfb4e157c2d7c09,61037705ffc2a1abcda5b116,2021-07-29_22h56.38.561,Simcolourproject_2stim_asymm_v5,2020.2.10,Win32,60,61025ae37ef11b136ea224fe,,,,,,,,,1137,36,57,1,0,0,response1disk,,7,22,-16,1,0,0,rectangle,22,-16,1,0,0,22,-16,1,0,0,0,61,61,48,1,,,,,,,,
,,,,,,,,,,,,,FF,,,,,,,,2.0975,,,,,,,,,,,,,,,,,,,,,,60f8d449cbfb4e157c2d7c09,61037705ffc2a1abcda5b116,2021-07-29_22h56.38.561,Simcolourproject_2stim_asymm_v5,2020.2.10,Win32,60,61025ae37ef11b136ea224fe,,,,,,,,,3913,-111,27,1,0,0,response7disk,,1,3,-11,1,0,0,rectangle,3,-11,1,0,0,3,-11,1,0,0,0,62,62,150,1,,,,,,,,
,,,,,,,,,,,,,FF,,,,,,,,2.5566,,,,,,,,,,,,,,,,,,,,,,60f8d449cbfb4e157c2d7c09,61037705ffc2a1abcda5b116,2021-07-29_22h56.38.561,Simcolourproject_2stim_asymm_v5,2020.2.10,Win32,60,61025ae37ef11b136ea224fe,,,,,,,,,3547,-56,-135,1,0,0,response5disk,,3,13,-5,1,0,0,rectangle,13,-5,1,0,0,13,-5,1,0,0,0,63,63,23,1,,,,,,,,
,,,,,,,,,,,,,FF,,,,,,,,0.9671,,,,,,,,,,,,,,,,,,,,,,60f8d449cbfb4e157c2d7c09,61037705ffc2a1abcda5b116,2021-07-29_22h56.38.561,Simcolourproject_2stim_asymm_v5,2020.2.10,Win32,60,61025ae37ef11b136ea224fe,,,,,,,,,3449,49,-67,1,0,0,response3disk,,4,8,3,1,0,0,rectangle,8,3,1,0,0,8,3,1,0,0,0,64,64,82,1,,,,,,,,
,,,,,,,,,,,,,FF,,,,,,,,1.7011,,,,,,,,,,,,,,,,,,,,,,60f8d449cbfb4e157c2d7c09,61037705ffc2a1abcda5b116,2021-07-29_22h56.38.561,Simcolourproject_2stim_asymm_v5,2020.2.10,Win32,60,61025ae37ef11b136ea224fe,,,,,,,,,1503,60,93,1,0,0,response1disk,,7,13,11,1,0,0,rectangle,13,11,1,0,0,13,11,1,0,0,0,65,65,15,1,,,,,,,,
,,,,,,,,,,,,,FF,,,,,,,,0.5161,,,,,,,,,,,,,,,,,,,,,,60f8d449cbfb4e157c2d7c09,61037705ffc2a1abcda5b116,2021-07-29_22h56.38.561,Simcolourproject_2stim_asymm_v5,2020.2.10,Win32,60,61025ae37ef11b136ea224fe,,,,,,,,,816,28,44,1,0,0,response1disk,,7,11,-1,1,0,0,rectangle,11,-1,1,0,0,11,-1,1,0,0,0,66,66,72,1,,,,,,,,
,,,,,,,,,,,,,FF,,,,,,,,0.6843,,,,,,,,,,,,,,,,,,,,,,60f8d449cbfb4e157c2d7c09,61037705ffc2a1abcda5b116,2021-07-29_22h56.38.561,Simcolourproject_2stim_asymm_v5,2020.2.10,Win32,60,61025ae37ef11b136ea224fe,,,,,,,,,3460,30,38,1,0,0,response1disk,,7,19,-15,1,0,0,rectangle,-101,32,1,0,0,-6,-6,1,0,0,0,67,67,104,1,,response7disk_3,TRUE,1,1,"[100,296,88,15,86,310,181,143,291,13,158,270,104,276,251,68,268,244,107,234]",1.6504,rectangle
,,,,,,,,,,,,,FF,,,,,,,,1.4073,,,,,,,,,,,,,,,,,,,,,,60f8d449cbfb4e157c2d7c09,61037705ffc2a1abcda5b116,2021-07-29_22h56.38.561,Simcolourproject_2stim_asymm_v5,2020.2.10,Win32,60,61025ae37ef11b136ea224fe,,,,,,,,,142,80,39,1,0,0,response1disk,,6,20,3,1,0,0,rectangle,20,3,1,0,0,20,3,1,0,0,0,68,68,39,1,,,,,,,,
,,,,,,,,,,,,,FF,,,,,,,,0.8562,,,,,,,,,,,,,,,,,,,,,,60f8d449cbfb4e157c2d7c09,61037705ffc2a1abcda5b116,2021-07-29_22h56.38.561,Simcolourproject_2stim_asymm_v5,2020.2.10,Win32,60,61025ae37ef11b136ea224fe,,,,,,,,,1112,74,22,1,0,0,response1disk,,6,29,-5,1,0,0,rectangle,29,-5,1,0,0,29,-5,1,0,0,0,69,69,105,1,,,,,,,,
,,,,,,,,,,,,,FF,,,,,,,,1.4014,,,,,,,,,,,,,,,,,,,,,,60f8d449cbfb4e157c2d7c09,61037705ffc2a1abcda5b116,2021-07-29_22h56.38.561,Simcolourproject_2stim_asymm_v5,2020.2.10,Win32,60,61025ae37ef11b136ea224fe,,,,,,,,,2839,-73,94,1,0,0,response7disk,,0,-18,-15,1,0,0,rectangle,-18,-15,1,0,0,-18,-15,1,0,0,0,70,70,98,1,,,,,,,,
,,,,,,,,,,,,,FF,,,,,,,,1.0339,,,,,,,,,,,,,,,,,,,,,,60f8d449cbfb4e157c2d7c09,61037705ffc2a1abcda5b116,2021-07-29_22h56.38.561,Simcolourproject_2stim_asymm_v5,2020.2.10,Win32,60,61025ae37ef11b136ea224fe,,,,,,,,,1285,-98,37,1,0,0,response7disk,,1,11,-17,1,0,0,rectangle,11,-17,1,0,0,11,-17,1,0,0,0,71,71,55,1,,,,,,,,
,,,,,,,,,,,,,FF,,,,,,,,1.8138,,,,,,,,,,,,,,,,,,,,,,60f8d449cbfb4e157c2d7c09,61037705ffc2a1abcda5b116,2021-07-29_22h56.38.561,Simcolourproject_2stim_asymm_v5,2020.2.10,Win32,60,61025ae37ef11b136ea224fe,,,,,,,,,2745,-106,-42,1,0,0,response5disk,,2,34,-6,1,0,0,rectangle,34,-6,1,0,0,34,-6,1,0,0,0,72,72,154,1,,,,,,,,
,,,,,,,,,,,,,FF,,,,,,,,16.1555,,,,,,,,,,,,,,,,,,,,,,60f8d449cbfb4e157c2d7c09,61037705ffc2a1abcda5b116,2021-07-29_22h56.38.561,Simcolourproject_2stim_asymm_v5,2020.2.10,Win32,60,61025ae37ef11b136ea224fe,,,,,,,,,1695,-41,-94,1,0,0,response5disk,,3,18,-15,1,0,0,rectangle,18,-15,1,0,0,18,-15,1,0,0,0,73,73,31,1,,,,,,,,
,,,,,,,,,,,,,FF,,,,,,,,0.9338,,,,,,,,,,,,,,,,,,,,,,60f8d449cbfb4e157c2d7c09,61037705ffc2a1abcda5b116,2021-07-29_22h56.38.561,Simcolourproject_2stim_asymm_v5,2020.2.10,Win32,60,61025ae37ef11b136ea224fe,,,,,,,,,446,52,72,1,0,0,response1disk,,7,13,-6,1,0,0,rectangle,13,-6,1,0,0,13,-6,1,0,0,0,74,74,84,1,,,,,,,,
,,,,,,,,,,,,,FF,,,,,,,,0.6336,,,,,,,,,,,,,,,,,,,,,,60f8d449cbfb4e157c2d7c09,61037705ffc2a1abcda5b116,2021-07-29_22h56.38.561,Simcolourproject_2stim_asymm_v5,2020.2.10,Win32,60,61025ae37ef11b136ea224fe,,,,,,,,,3185,71,44,1,0,0,response1disk,,6,1,-5,1,0,0,rectangle,1,-5,1,0,0,1,-5,1,0,0,0,75,75,113,1,,,,,,,,
,,,,,,,,,,,,,FF,,,,,,,,2.0508,,,,,,,,,,,,,,,,,,,,,,60f8d449cbfb4e157c2d7c09,61037705ffc2a1abcda5b116,2021-07-29_22h56.38.561,Simcolourproject_2stim_asymm_v5,2020.2.10,Win32,60,61025ae37ef11b136ea224fe,,,,,,,,,1078,-82,-60,1,0,0,response5disk,,2,10,-20,1,0,0,rectangle,10,-20,1,0,0,10,-20,1,0,0,0,76,76,81,1,,,,,,,,
,,,,,,,,,,,,,FF,,,,,,,,1.8,,,,,,,,,,,,,,,,,,,,,,60f8d449cbfb4e157c2d7c09,61037705ffc2a1abcda5b116,2021-07-29_22h56.38.561,Simcolourproject_2stim_asymm_v5,2020.2.10,Win32,60,61025ae37ef11b136ea224fe,,,,,,,,,2257,88,25,1,0,0,response1disk,,6,-3,-6,1,0,0,rectangle,-3,-6,1,0,0,-3,-6,1,0,0,0,77,77,146,1,,,,,,,,
,,,,,,,,,,,,,FF,,,,,,,,1.3505,,,,,,,,,,,,,,,,,,,,,,60f8d449cbfb4e157c2d7c09,61037705ffc2a1abcda5b116,2021-07-29_22h56.38.561,Simcolourproject_2stim_asymm_v5,2020.2.10,Win32,60,61025ae37ef11b136ea224fe,,,,,,,,,3088,135,42,1,0,0,response1disk,,6,14,6,1,0,0,rectangle,14,6,1,0,0,14,6,1,0,0,0,78,78,144,1,,,,,,,,
,,,,,,,,,,,,,FF,,,,,,,,0.5496,,,,,,,,,,,,,,,,,,,,,,60f8d449cbfb4e157c2d7c09,61037705ffc2a1abcda5b116,2021-07-29_22h56.38.561,Simcolourproject_2stim_asymm_v5,2020.2.10,Win32,60,61025ae37ef11b136ea224fe,,,,,,,,,656,39,67,1,0,0,response1disk,,7,-25,-21,1,0,0,rectangle,-25,-21,1,0,0,-25,-21,1,0,0,0,79,79,97,1,,,,,,,,
,,,,,,,,,,,,,FF,,,,,,,,0.8678,,,,,,,,,,,,,,,,,,,,,,60f8d449cbfb4e157c2d7c09,61037705ffc2a1abcda5b116,2021-07-29_22h56.38.561,Simcolourproject_2stim_asymm_v5,2020.2.10,Win32,60,61025ae37ef11b136ea224fe,,,,,,,,,4021,-59,74,1,0,0,response7disk,,0,-29,-10,1,0,0,rectangle,-29,-10,1,0,0,-29,-10,1,0,0,0,80,80,88,1,,,,,,,,
,,,,,,,,,,,,,FF,,,,,,,,0.9004,,,,,,,,,,,,,,,,,,,,,,60f8d449cbfb4e157c2d7c09,61037705ffc2a1abcda5b116,2021-07-29_22h56.38.561,Simcolourproject_2stim_asymm_v5,2020.2.10,Win32,60,61025ae37ef11b136ea224fe,,,,,,,,,794,99,35,1,0,0,response1disk,,6,26,-7,1,0,0,rectangle,26,-7,1,0,0,26,-7,1,0,0,0,81,81,139,1,,,,,,,,
,,,,,,,,,,,,,FF,,,,,,,,2.1341,,,,,,,,,,,,,,,,,,,,,,60f8d449cbfb4e157c2d7c09,61037705ffc2a1abcda5b116,2021-07-29_22h56.38.561,Simcolourproject_2stim_asymm_v5,2020.2.10,Win32,60,61025ae37ef11b136ea224fe,,,,,,,,,2003,72,109,1,0,0,response1disk,,7,18,-13,1,0,0,rectangle,18,-13,1,0,0,18,-13,1,0,0,0,82,82,62,1,,,,,,,,
,,,,,,,,,,,,,FF,,,,,,,,0.7008,,,,,,,,,,,,,,,,,,,,,,60f8d449cbfb4e157c2d7c09,61037705ffc2a1abcda5b116,2021-07-29_22h56.38.561,Simcolourproject_2stim_asymm_v5,2020.2.10,Win32,60,61025ae37ef11b136ea224fe,,,,,,,,,2898,46,71,1,0,0,response1disk,,7,19,-11,1,0,0,rectangle,19,-11,1,0,0,19,-11,1,0,0,0,83,83,159,1,,,,,,,,
,,,,,,,,,,,,,FF,,,,,,,,0.751,,,,,,,,,,,,,,,,,,,,,,60f8d449cbfb4e157c2d7c09,61037705ffc2a1abcda5b116,2021-07-29_22h56.38.561,Simcolourproject_2stim_asymm_v5,2020.2.10,Win32,60,61025ae37ef11b136ea224fe,,,,,,,,,2920,29,87,1,0,0,response1disk,,7,-4,3,1,0,0,rectangle,-4,3,1,0,0,-4,3,1,0,0,0,84,84,58,1,,,,,,,,
,,,,,,,,,,,,,FF,,,,,,,,1.9338,,,,,,,,,,,,,,,,,,,,,,60f8d449cbfb4e157c2d7c09,61037705ffc2a1abcda5b116,2021-07-29_22h56.38.561,Simcolourproject_2stim_asymm_v5,2020.2.10,Win32,60,61025ae37ef11b136ea224fe,,,,,,,,,4074,112,45,1,0,0,response1disk,,6,-17,-8,1,0,0,rectangle,152,-48,1,0,0,-17,-10,1,0,0,0,85,85,71,1,,response3disk_3,TRUE,5,5,"[100,296,88,15,86,310,181,143,291,13,158,270,104,276,251,68,268,244,107,234]",1.7673,rectangle
,,,,,,,,,,,,,FF,,,,,,,,2.7838,,,,,,,,,,,,,,,,,,,,,,60f8d449cbfb4e157c2d7c09,61037705ffc2a1abcda5b116,2021-07-29_22h56.38.561,Simcolourproject_2stim_asymm_v5,2020.2.10,Win32,60,61025ae37ef11b136ea224fe,,,,,,,,,2178,32,73,1,0,0,response1disk,,7,-10,-8,1,0,0,rectangle,-10,-8,1,0,0,-10,-8,1,0,0,0,86,86,34,1,,,,,,,,
,,,,,,,,,,,,,FF,,,,,,,,0.8337,,,,,,,,,,,,,,,,,,,,,,60f8d449cbfb4e157c2d7c09,61037705ffc2a1abcda5b116,2021-07-29_22h56.38.561,Simcolourproject_2stim_asymm_v5,2020.2.10,Win32,60,61025ae37ef11b136ea224fe,,,,,,,,,3660,31,62,1,0,0,response1disk,,7,22,-7,1,0,0,rectangle,-45,-115,1,0,0,6,-4,1,0,0,0,87,87,107,1,,response5disk_3,TRUE,3,3,"[100,296,88,15,86,310,181,143,291,13,158,270,104,276,251,68,268,244,107,234]",1.4825,rectangle
,,,,,,,,,,,,,FF,,,,,,,,1.0174,,,,,,,,,,,,,,,,,,,,,,60f8d449cbfb4e157c2d7c09,61037705ffc2a1abcda5b116,2021-07-29_22h56.38.561,Simcolourproject_2stim_asymm_v5,2020.2.10,Win32,60,61025ae37ef11b136ea224fe,,,,,,,,,3814,-63,78,1,0,0,response7disk,,0,-16,-10,1,0,0,rectangle,-16,-10,1,0,0,-16,-10,1,0,0,0,88,88,74,1,,,,,,,,
,,,,,,,,,,,,,FF,,,,,,,,2.3007,,,,,,,,,,,,,,,,,,,,,,60f8d449cbfb4e157c2d7c09,61037705ffc2a1abcda5b116,2021-07-29_22h56.38.561,Simcolourproject_2stim_asymm_v5,2020.2.10,Win32,60,61025ae37ef11b136ea224fe,,,,,,,,,97,-54,-72,1,0,0,response5disk,,3,2,-6,1,0,0,rectangle,2,-6,1,0,0,2,-6,1,0,0,0,89,89,27,1,,,,,,,,
,,,,,,,,,,,,,FF,,,,,,,,1.9173,,,,,,,,,,,,,,,,,,,,,,60f8d449cbfb4e157c2d7c09,61037705ffc2a1abcda5b116,2021-07-29_22h56.38.561,Simcolourproject_2stim_asymm_v5,2020.2.10,Win32,60,61025ae37ef11b136ea224fe,,,,,,,,,832,86,37,1,0,0,response1disk,,6,-5,-17,1,0,0,rectangle,-5,-17,1,0,0,-5,-17,1,0,0,0,90,90,12,1,,,,,,,,
,,,,,,,,,,,,,FF,,,,,,,,0.6504,,,,,,,,,,,,,,,,,,,,,,60f8d449cbfb4e157c2d7c09,61037705ffc2a1abcda5b116,2021-07-29_22h56.38.561,Simcolourproject_2stim_asymm_v5,2020.2.10,Win32,60,61025ae37ef11b136ea224fe,,,,,,,,,301,56,85,1,0,0,response1disk,,7,8,-7,1,0,0,rectangle,8,-7,1,0,0,8,-7,1,0,0,0,91,91,1,1,,,,,,,,
,,,,,,,,,,,,,FF,,,,,,,,0.8338,,,,,,,,,,,,,,,,,,,,,,60f8d449cbfb4e157c2d7c09,61037705ffc2a1abcda5b116,2021-07-29_22h56.38.561,Simcolourproject_2stim_asymm_v5,2020.2.10,Win32,60,61025ae37ef11b136ea224fe,,,,,,,,,4160,42,70,1,0,0,response1disk,,7,8,-2,1,0,0,rectangle,8,-2,1,0,0,8,-2,1,0,0,0,92,92,40,1,,,,,,,,
,,,,,,,,,,,,,FF,,,,,,,,2.3009,,,,,,,,,,,,,,,,,,,,,,60f8d449cbfb4e157c2d7c09,61037705ffc2a1abcda5b116,2021-07-29_22h56.38.561,Simcolourproject_2stim_asymm_v5,2020.2.10,Win32,60,61025ae37ef11b136ea224fe,,,,,,,,,1084,38,70,1,0,0,response1disk,,7,17,-2,1,0,0,rectangle,17,-2,1,0,0,17,-2,1,0,0,0,93,93,109,1,,,,,,,,
,,,,,,,,,,,,,FF,,,,,,,,1.4673,,,,,,,,,,,,,,,,,,,,,,60f8d449cbfb4e157c2d7c09,61037705ffc2a1abcda5b116,2021-07-29_22h56.38.561,Simcolourproject_2stim_asymm_v5,2020.2.10,Win32,60,61025ae37ef11b136ea224fe,,,,,,,,,570,99,-51,1,0,0,response3disk,,5,3,-11,1,0,0,rectangle,3,-11,1,0,0,3,-11,1,0,0,0,94,94,21,1,,,,,,,,
,,,,,,,,,,,,,FF,,,,,,,,1.0501,,,,,,,,,,,,,,,,,,,,,,60f8d449cbfb4e157c2d7c09,61037705ffc2a1abcda5b116,2021-07-29_22h56.38.561,Simcolourproject_2stim_asymm_v5,2020.2.10,Win32,60,61025ae37ef11b136ea224fe,,,,,,,,,4118,-28,60,1,0,0,response7disk,,0,-27,-8,1,0,0,rectangle,-27,-8,1,0,0,-27,-8,1,0,0,0,95,95,136,1,,,,,,,,
,,,,,,,,,,,,,FF,,,,,,,,1.4343,,,,,,,,,,,,,,,,,,,,,,60f8d449cbfb4e157c2d7c09,61037705ffc2a1abcda5b116,2021-07-29_22h56.38.561,Simcolourproject_2stim_asymm_v5,2020.2.10,Win32,60,61025ae37ef11b136ea224fe,,,,,,,,,767,68,91,1,0,0,response1disk,,7,21,-4,1,0,0,rectangle,21,-4,1,0,0,21,-4,1,0,0,0,96,96,9,1,,,,,,,,
,,,,,,,,,,,,,FF,,,,,,,,0.8513,,,,,,,,,,,,,,,,,,,,,,60f8d449cbfb4e157c2d7c09,61037705ffc2a1abcda5b116,2021-07-29_22h56.38.561,Simcolourproject_2stim_asymm_v5,2020.2.10,Win32,60,61025ae37ef11b136ea224fe,,,,,,,,,3437,47,89,1,0,0,response1disk,,7,27,6,1,0,0,rectangle,27,6,1,0,0,27,6,1,0,0,0,97,97,4,1,,,,,,,,
,,,,,,,,,,,,,FF,,,,,,,,2.1512,,,,,,,,,,,,,,,,,,,,,,60f8d449cbfb4e157c2d7c09,61037705ffc2a1abcda5b116,2021-07-29_22h56.38.561,Simcolourproject_2stim_asymm_v5,2020.2.10,Win32,60,61025ae37ef11b136ea224fe,,,,,,,,,3003,79,38,1,0,0,response1disk,,6,2,5,1,0,0,rectangle,2,5,1,0,0,2,5,1,0,0,0,98,98,42,1,,,,,,,,
,,,,,,,,,,,,,FF,,,,,,,,0.7837,,,,,,,,,,,,,,,,,,,,,,60f8d449cbfb4e157c2d7c09,61037705ffc2a1abcda5b116,2021-07-29_22h56.38.561,Simcolourproject_2stim_asymm_v5,2020.2.10,Win32,60,61025ae37ef11b136ea224fe,,,,,,,,,116,34,88,1,0,0,response1disk,,7,11,-3,1,0,0,rectangle,128,62,1,0,0,27,-8,1,0,0,0,99,99,95,1,,response1disk_3,TRUE,6,6,"[100,296,88,15,86,310,181,143,291,13,158,270,104,276,251,68,268,244,107,234]",1.8508,rectangle
,,,,,,,,,,,,,FF,,,,,,,,1.35,,,,,,,,,,,,,,,,,,,,,,60f8d449cbfb4e157c2d7c09,61037705ffc2a1abcda5b116,2021-07-29_22h56.38.561,Simcolourproject_2stim_asymm_v5,2020.2.10,Win32,60,61025ae37ef11b136ea224fe,,,,,,,,,214,48,75,1,0,0,response1disk,,7,12,-8,1,0,0,rectangle,12,-8,1,0,0,12,-8,1,0,0,0,100,100,96,1,,,,,,,,
,,,,,,,,,,,,,FF,,,,,,,,0.5169,,,,,,,,,,,,,,,,,,,,,,60f8d449cbfb4e157c2d7c09,61037705ffc2a1abcda5b116,2021-07-29_22h56.38.561,Simcolourproject_2stim_asymm_v5,2020.2.10,Win32,60,61025ae37ef11b136ea224fe,,,,,,,,,1640,37,71,1,0,0,response1disk,,7,12,-12,1,0,0,rectangle,12,-12,1,0,0,12,-12,1,0,0,0,101,101,147,1,,,,,,,,
,,,,,,,,,,,,,FF,,,,,,,,1.2171,,,,,,,,,,,,,,,,,,,,,,60f8d449cbfb4e157c2d7c09,61037705ffc2a1abcda5b116,2021-07-29_22h56.38.561,Simcolourproject_2stim_asymm_v5,2020.2.10,Win32,60,61025ae37ef11b136ea224fe,,,,,,,,,200,58,74,1,0,0,response1disk,,7,28,-4,1,0,0,rectangle,28,-4,1,0,0,28,-4,1,0,0,0,102,102,132,1,,,,,,,,
,,,,,,,,,,,,,FF,,,,,,,,1.0505,,,,,,,,,,,,,,,,,,,,,,60f8d449cbfb4e157c2d7c09,61037705ffc2a1abcda5b116,2021-07-29_22h56.38.561,Simcolourproject_2stim_asymm_v5,2020.2.10,Win32,60,61025ae37ef11b136ea224fe,,,,,,,,,1346,57,99,1,0,0,response1disk,,7,-11,-19,1,0,0,rectangle,130,54,1,0,0,-3,-10,1,0,0,0,103,103,106,1,,response1disk_3,TRUE,6,6,"[100,296,88,15,86,310,181,143,291,13,158,270,104,276,251,68,268,244,107,234]",1.5336,rectangle
,,,,,,,,,,,,,FF,,,,,,,,2.4682,,,,,,,,,,,,,,,,,,,,,,60f8d449cbfb4e157c2d7c09,61037705ffc2a1abcda5b116,2021-07-29_22h56.38.561,Simcolourproject_2stim_asymm_v5,2020.2.10,Win32,60,61025ae37ef11b136ea224fe,,,,,,,,,1304,78,55,1,0,0,response1disk,,6,11,9,1,0,0,rectangle,11,9,1,0,0,11,9,1,0,0,0,104,104,65,1,,,,,,,,
,,,,,,,,,,,,,FF,,,,,,,,1.1839,,,,,,,,,,,,,,,,,,,,,,60f8d449cbfb4e157c2d7c09,61037705ffc2a1abcda5b116,2021-07-29_22h56.38.561,Simcolourproject_2stim_asymm_v5,2020.2.10,Win32,60,61025ae37ef11b136ea224fe,,,,,,,,,2247,28,58,1,0,0,response1disk,,7,7,-7,1,0,0,rectangle,7,-7,1,0,0,7,-7,1,0,0,0,105,105,155,1,,,,,,,,
,,,,,,,,,,,,,FF,,,,,,,,2.5632,,,,,,,,,,,,,,,,,,,,,,60f8d449cbfb4e157c2d7c09,61037705ffc2a1abcda5b116,2021-07-29_22h56.38.561,Simcolourproject_2stim_asymm_v5,2020.2.10,Win32,60,61025ae37ef11b136ea224fe,,,,,,,,,3429,-106,-39,1,0,0,response5disk,,2,2,2,1,0,0,rectangle,124,38,1,0,0,22,-15,1,0,0,0,106,106,64,1,,response1disk_3,TRUE,6,6,"[100,296,88,15,86,310,181,143,291,13,158,270,104,276,251,68,268,244,107,234]",1.4674,rectangle
,,,,,,,,,,,,,FF,,,,,,,,1.3842,,,,,,,,,,,,,,,,,,,,,,60f8d449cbfb4e157c2d7c09,61037705ffc2a1abcda5b116,2021-07-29_22h56.38.561,Simcolourproject_2stim_asymm_v5,2020.2.10,Win32,60,61025ae37ef11b136ea224fe,,,,,,,,,1081,93,39,1,0,0,response1disk,,6,29,8,1,0,0,rectangle,29,8,1,0,0,29,8,1,0,0,0,107,107,158,1,,,,,,,,
,,,,,,,,,,,,,FF,,,,,,,,0.684,,,,,,,,,,,,,,,,,,,,,,60f8d449cbfb4e157c2d7c09,61037705ffc2a1abcda5b116,2021-07-29_22h56.38.561,Simcolourproject_2stim_asymm_v5,2020.2.10,Win32,60,61025ae37ef11b136ea224fe,,,,,,,,,2637,38,65,1,0,0,response1disk,,7,-10,-8,1,0,0,rectangle,-10,-8,1,0,0,-10,-8,1,0,0,0,108,108,142,1,,,,,,,,
,,,,,,,,,,,,,FF,,,,,,,,0.6169,,,,,,,,,,,,,,,,,,,,,,60f8d449cbfb4e157c2d7c09,61037705ffc2a1abcda5b116,2021-07-29_22h56.38.561,Simcolourproject_2stim_asymm_v5,2020.2.10,Win32,60,61025ae37ef11b136ea224fe,,,,,,,,,572,42,67,1,0,0,response1disk,,7,24,6,1,0,0,rectangle,24,6,1,0,0,24,6,1,0,0,0,109,109,77,1,,,,,,,,
,,,,,,,,,,,,,FF,,,,,,,,0.8841,,,,,,,,,,,,,,,,,,,,,,60f8d449cbfb4e157c2d7c09,61037705ffc2a1abcda5b116,2021-07-29_22h56.38.561,Simcolourproject_2stim_asymm_v5,2020.2.10,Win32,60,61025ae37ef11b136ea224fe,,,,,,,,,223,42,64,1,0,0,response1disk,,7,27,0,1,0,0,rectangle,27,0,1,0,0,27,0,1,0,0,0,110,110,20,1,,,,,,,,
,,,,,,,,,,,,,FF,,,,,,,,0.967,,,,,,,,,,,,,,,,,,,,,,60f8d449cbfb4e157c2d7c09,61037705ffc2a1abcda5b116,2021-07-29_22h56.38.561,Simcolourproject_2stim_asymm_v5,2020.2.10,Win32,60,61025ae37ef11b136ea224fe,,,,,,,,,3037,-43,78,1,0,0,response7disk,,0,-19,3,1,0,0,rectangle,-19,3,1,0,0,-19,3,1,0,0,0,111,111,115,1,,,,,,,,
,,,,,,,,,,,,,FF,,,,,,,,2.8345,,,,,,,,,,,,,,,,,,,,,,60f8d449cbfb4e157c2d7c09,61037705ffc2a1abcda5b116,2021-07-29_22h56.38.561,Simcolourproject_2stim_asymm_v5,2020.2.10,Win32,60,61025ae37ef11b136ea224fe,,,,,,,,,3485,46,96,1,0,0,response1disk,,7,-1,10,1,0,0,rectangle,-1,10,1,0,0,-1,10,1,0,0,0,112,112,111,1,,,,,,,,
,,,,,,,,,,,,,FF,,,,,,,,1.0338,,,,,,,,,,,,,,,,,,,,,,60f8d449cbfb4e157c2d7c09,61037705ffc2a1abcda5b116,2021-07-29_22h56.38.561,Simcolourproject_2stim_asymm_v5,2020.2.10,Win32,60,61025ae37ef11b136ea224fe,,,,,,,,,508,32,75,1,0,0,response1disk,,7,-1,-10,1,0,0,rectangle,-1,-10,1,0,0,-1,-10,1,0,0,0,113,113,129,1,,,,,,,,
,,,,,,,,,,,,,FF,,,,,,,,1.8676,,,,,,,,,,,,,,,,,,,,,,60f8d449cbfb4e157c2d7c09,61037705ffc2a1abcda5b116,2021-07-29_22h56.38.561,Simcolourproject_2stim_asymm_v5,2020.2.10,Win32,60,61025ae37ef11b136ea224fe,,,,,,,,,733,-73,-39,1,0,0,response5disk,,2,20,4,1,0,0,rectangle,20,4,1,0,0,20,4,1,0,0,0,114,114,17,1,,,,,,,,
,,,,,,,,,,,,,FF,,,,,,,,1.7176,,,,,,,,,,,,,,,,,,,,,,60f8d449cbfb4e157c2d7c09,61037705ffc2a1abcda5b116,2021-07-29_22h56.38.561,Simcolourproject_2stim_asymm_v5,2020.2.10,Win32,60,61025ae37ef11b136ea224fe,,,,,,,,,2478,97,26,1,0,0,response1disk,,6,17,-7,1,0,0,rectangle,17,-7,1,0,0,17,-7,1,0,0,0,115,115,53,1,,,,,,,,
,,,,,,,,,,,,,FF,,,,,,,,3.1178,,,,,,,,,,,,,,,,,,,,,,60f8d449cbfb4e157c2d7c09,61037705ffc2a1abcda5b116,2021-07-29_22h56.38.561,Simcolourproject_2stim_asymm_v5,2020.2.10,Win32,60,61025ae37ef11b136ea224fe,,,,,,,,,1849,54,94,1,0,0,response1disk,,7,26,-15,1,0,0,rectangle,26,-15,1,0,0,26,-15,1,0,0,0,116,116,56,1,,,,,,,,
,,,,,,,,,,,,,FF,,,,,,,,1.0004,,,,,,,,,,,,,,,,,,,,,,60f8d449cbfb4e157c2d7c09,61037705ffc2a1abcda5b116,2021-07-29_22h56.38.561,Simcolourproject_2stim_asymm_v5,2020.2.10,Win32,60,61025ae37ef11b136ea224fe,,,,,,,,,2587,65,76,1,0,0,response1disk,,7,30,6,1,0,0,rectangle,30,6,1,0,0,30,6,1,0,0,0,117,117,10,1,,,,,,,,
,,,,,,,,,,,,,FF,,,,,,,,1.7672,,,,,,,,,,,,,,,,,,,,,,60f8d449cbfb4e157c2d7c09,61037705ffc2a1abcda5b116,2021-07-29_22h56.38.561,Simcolourproject_2stim_asymm_v5,2020.2.10,Win32,60,61025ae37ef11b136ea224fe,,,,,,,,,711,108,52,1,0,0,response1disk,,6,-16,3,1,0,0,rectangle,-16,3,1,0,0,-16,3,1,0,0,0,118,118,125,1,,,,,,,,
,,,,,,,,,,,,,FF,,,,,,,,1.0166,,,,,,,,,,,,,,,,,,,,,,60f8d449cbfb4e157c2d7c09,61037705ffc2a1abcda5b116,2021-07-29_22h56.38.561,Simcolourproject_2stim_asymm_v5,2020.2.10,Win32,60,61025ae37ef11b136ea224fe,,,,,,,,,529,42,106,1,0,0,response1disk,,7,-15,6,1,0,0,rectangle,-15,6,1,0,0,-15,6,1,0,0,0,119,119,44,1,,,,,,,,
,,,,,,,,,,,,,FF,,,,,,,,0.7837,,,,,,,,,,,,,,,,,,,,,,60f8d449cbfb4e157c2d7c09,61037705ffc2a1abcda5b116,2021-07-29_22h56.38.561,Simcolourproject_2stim_asymm_v5,2020.2.10,Win32,60,61025ae37ef11b136ea224fe,,,,,,,,,1846,34,132,1,0,0,response1disk,,7,-6,-6,1,0,0,rectangle,-6,-6,1,0,0,-6,-6,1,0,0,0,120,120,151,1,,,,,,,,
,,,,,,,,,,,,,FF,,,,,,,,0.7516,,,,,,,,,,,,,,,,,,,,,,60f8d449cbfb4e157c2d7c09,61037705ffc2a1abcda5b116,2021-07-29_22h56.38.561,Simcolourproject_2stim_asymm_v5,2020.2.10,Win32,60,61025ae37ef11b136ea224fe,,,,,,,,,3616,60,90,1,0,0,response1disk,,7,26,10,1,0,0,rectangle,26,10,1,0,0,26,10,1,0,0,0,121,121,141,1,,,,,,,,
,,,,,,,,,,,,,FF,,,,,,,,0.8341,,,,,,,,,,,,,,,,,,,,,,60f8d449cbfb4e157c2d7c09,61037705ffc2a1abcda5b116,2021-07-29_22h56.38.561,Simcolourproject_2stim_asymm_v5,2020.2.10,Win32,60,61025ae37ef11b136ea224fe,,,,,,,,,298,71,104,1,0,0,response1disk,,7,23,-11,1,0,0,rectangle,23,-11,1,0,0,23,-11,1,0,0,0,122,122,73,1,,,,,,,,
,,,,,,,,,,,,,FF,,,,,,,,12.7379,,,,,,,,,,,,,,,,,,,,,,60f8d449cbfb4e157c2d7c09,61037705ffc2a1abcda5b116,2021-07-29_22h56.38.561,Simcolourproject_2stim_asymm_v5,2020.2.10,Win32,60,61025ae37ef11b136ea224fe,,,,,,,,,1769,94,-67,1,0,0,response3disk,,5,7,-3,1,0,0,rectangle,7,-3,1,0,0,7,-3,1,0,0,0,123,123,93,1,,,,,,,,
,,,,,,,,,,,,,FF,,,,,,,,0.9659,,,,,,,,,,,,,,,,,,,,,,60f8d449cbfb4e157c2d7c09,61037705ffc2a1abcda5b116,2021-07-29_22h56.38.561,Simcolourproject_2stim_asymm_v5,2020.2.10,Win32,60,61025ae37ef11b136ea224fe,,,,,,,,,2144,65,97,1,0,0,response1disk,,7,24,-9,1,0,0,rectangle,24,-9,1,0,0,24,-9,1,0,0,0,124,124,118,1,,,,,,,,
,,,,,,,,,,,,,FF,,,,,,,,1.0171,,,,,,,,,,,,,,,,,,,,,,60f8d449cbfb4e157c2d7c09,61037705ffc2a1abcda5b116,2021-07-29_22h56.38.561,Simcolourproject_2stim_asymm_v5,2020.2.10,Win32,60,61025ae37ef11b136ea224fe,,,,,,,,,138,51,115,1,0,0,response1disk,,7,2,-11,1,0,0,rectangle,2,-11,1,0,0,2,-11,1,0,0,0,125,125,54,1,,,,,,,,
,,,,,,,,,,,,,FF,,,,,,,,1.3671,,,,,,,,,,,,,,,,,,,,,,60f8d449cbfb4e157c2d7c09,61037705ffc2a1abcda5b116,2021-07-29_22h56.38.561,Simcolourproject_2stim_asymm_v5,2020.2.10,Win32,60,61025ae37ef11b136ea224fe,,,,,,,,,1855,113,44,1,0,0,response1disk,,6,15,-8,1,0,0,rectangle,15,-8,1,0,0,15,-8,1,0,0,0,126,126,148,1,,,,,,,,
,,,,,,,,,,,,,FF,,,,,,,,1.1343,,,,,,,,,,,,,,,,,,,,,,60f8d449cbfb4e157c2d7c09,61037705ffc2a1abcda5b116,2021-07-29_22h56.38.561,Simcolourproject_2stim_asymm_v5,2020.2.10,Win32,60,61025ae37ef11b136ea224fe,,,,,,,,,1378,-65,-53,1,0,0,response5disk,,2,-4,-7,1,0,0,rectangle,-4,-7,1,0,0,-4,-7,1,0,0,0,127,127,37,1,,,,,,,,
,,,,,,,,,,,,,FF,,,,,,,,0.8837,,,,,,,,,,,,,,,,,,,,,,60f8d449cbfb4e157c2d7c09,61037705ffc2a1abcda5b116,2021-07-29_22h56.38.561,Simcolourproject_2stim_asymm_v5,2020.2.10,Win32,60,61025ae37ef11b136ea224fe,,,,,,,,,1815,-41,94,1,0,0,response7disk,,0,-9,0,1,0,0,rectangle,-9,0,1,0,0,-9,0,1,0,0,0,128,128,127,1,,,,,,,,
,,,,,,,,,,,,,FF,,,,,,,,0.9336,,,,,,,,,,,,,,,,,,,,,,60f8d449cbfb4e157c2d7c09,61037705ffc2a1abcda5b116,2021-07-29_22h56.38.561,Simcolourproject_2stim_asymm_v5,2020.2.10,Win32,60,61025ae37ef11b136ea224fe,,,,,,,,,4237,-43,73,1,0,0,response7disk,,0,-13,6,1,0,0,rectangle,-13,6,1,0,0,-13,6,1,0,0,0,129,129,33,1,,,,,,,,
,,,,,,,,,,,,,FF,,,,,,,,2.3847,,,,,,,,,,,,,,,,,,,,,,60f8d449cbfb4e157c2d7c09,61037705ffc2a1abcda5b116,2021-07-29_22h56.38.561,Simcolourproject_2stim_asymm_v5,2020.2.10,Win32,60,61025ae37ef11b136ea224fe,,,,,,,,,207,81,38,1,0,0,response1disk,,6,20,-6,1,0,0,rectangle,20,-6,1,0,0,20,-6,1,0,0,0,130,130,30,1,,,,,,,,
,,,,,,,,,,,,,FF,,,,,,,,0.8666,,,,,,,,,,,,,,,,,,,,,,60f8d449cbfb4e157c2d7c09,61037705ffc2a1abcda5b116,2021-07-29_22h56.38.561,Simcolourproject_2stim_asymm_v5,2020.2.10,Win32,60,61025ae37ef11b136ea224fe,,,,,,,,,2956,40,106,1,0,0,response1disk,,7,26,4,1,0,0,rectangle,26,4,1,0,0,26,4,1,0,0,0,131,131,149,1,,,,,,,,
,,,,,,,,,,,,,FF,,,,,,,,0.6839,,,,,,,,,,,,,,,,,,,,,,60f8d449cbfb4e157c2d7c09,61037705ffc2a1abcda5b116,2021-07-29_22h56.38.561,Simcolourproject_2stim_asymm_v5,2020.2.10,Win32,60,61025ae37ef11b136ea224fe,,,,,,,,,357,35,80,1,0,0,response1disk,,7,26,7,1,0,0,rectangle,26,7,1,0,0,26,7,1,0,0,0,132,132,137,1,,,,,,,,
,,,,,,,,,,,,,FF,,,,,,,,0.8506,,,,,,,,,,,,,,,,,,,,,,60f8d449cbfb4e157c2d7c09,61037705ffc2a1abcda5b116,2021-07-29_22h56.38.561,Simcolourproject_2stim_asymm_v5,2020.2.10,Win32,60,61025ae37ef11b136ea224fe,,,,,,,,,4210,48,82,1,0,0,response1disk,,7,35,-8,1,0,0,rectangle,35,-8,1,0,0,35,-8,1,0,0,0,133,133,120,1,,,,,,,,
,,,,,,,,,,,,,FF,,,,,,,,0.5896,,,,,,,,,,,,,,,,,,,,,,60f8d449cbfb4e157c2d7c09,61037705ffc2a1abcda5b116,2021-07-29_22h56.38.561,Simcolourproject_2stim_asymm_v5,2020.2.10,Win32,60,61025ae37ef11b136ea224fe,,,,,,,,,2870,49,74,1,0,0,response1disk,,7,14,-2,1,0,0,rectangle,14,-2,1,0,0,14,-2,1,0,0,0,134,134,152,1,,,,,,,,
,,,,,,,,,,,,,FF,,,,,,,,3.3014,,,,,,,,,,,,,,,,,,,,,,60f8d449cbfb4e157c2d7c09,61037705ffc2a1abcda5b116,2021-07-29_22h56.38.561,Simcolourproject_2stim_asymm_v5,2020.2.10,Win32,60,61025ae37ef11b136ea224fe,,,,,,,,,2219,123,73,1,0,0,response1disk,,6,14,-3,1,0,0,rectangle,14,-3,1,0,0,14,-3,1,0,0,0,135,135,121,1,,,,,,,,
,,,,,,,,,,,,,FF,,,,,,,,1.6717,,,,,,,,,,,,,,,,,,,,,,60f8d449cbfb4e157c2d7c09,61037705ffc2a1abcda5b116,2021-07-29_22h56.38.561,Simcolourproject_2stim_asymm_v5,2020.2.10,Win32,60,61025ae37ef11b136ea224fe,,,,,,,,,4367,-87,-30,1,0,0,response5disk,,2,1,5,1,0,0,rectangle,1,5,1,0,0,1,5,1,0,0,0,136,136,79,1,,,,,,,,
,,,,,,,,,,,,,FF,,,,,,,,1.6009,,,,,,,,,,,,,,,,,,,,,,60f8d449cbfb4e157c2d7c09,61037705ffc2a1abcda5b116,2021-07-29_22h56.38.561,Simcolourproject_2stim_asymm_v5,2020.2.10,Win32,60,61025ae37ef11b136ea224fe,,,,,,,,,2544,29,-86,1,0,0,response3disk,,4,31,-10,1,0,0,rectangle,31,-10,1,0,0,31,-10,1,0,0,0,137,137,22,1,,,,,,,,
,,,,,,,,,,,,,FF,,,,,,,,2.4177,,,,,,,,,,,,,,,,,,,,,,60f8d449cbfb4e157c2d7c09,61037705ffc2a1abcda5b116,2021-07-29_22h56.38.561,Simcolourproject_2stim_asymm_v5,2020.2.10,Win32,60,61025ae37ef11b136ea224fe,,,,,,,,,2180,84,48,1,0,0,response1disk,,6,-6,10,1,0,0,rectangle,-6,10,1,0,0,-6,10,1,0,0,0,138,138,69,1,,,,,,,,
,,,,,,,,,,,,,FF,,,,,,,,1.0017,,,,,,,,,,,,,,,,,,,,,,60f8d449cbfb4e157c2d7c09,61037705ffc2a1abcda5b116,2021-07-29_22h56.38.561,Simcolourproject_2stim_asymm_v5,2020.2.10,Win32,60,61025ae37ef11b136ea224fe,,,,,,,,,302,93,62,1,0,0,response1disk,,6,-10,5,1,0,0,rectangle,-10,5,1,0,0,-10,5,1,0,0,0,139,139,135,1,,,,,,,,
,,,,,,,,,,,,,FF,,,,,,,,0.7895,,,,,,,,,,,,,,,,,,,,,,60f8d449cbfb4e157c2d7c09,61037705ffc2a1abcda5b116,2021-07-29_22h56.38.561,Simcolourproject_2stim_asymm_v5,2020.2.10,Win32,60,61025ae37ef11b136ea224fe,,,,,,,,,1166,-35,57,1,0,0,response7disk,,0,-6,4,1,0,0,rectangle,-6,4,1,0,0,-6,4,1,0,0,0,140,140,80,1,,,,,,,,
,,,,,,,,,,,,,FF,,,,,,,,2.7802,,,,,,,,,,,,,,,,,,,,,,60f8d449cbfb4e157c2d7c09,61037705ffc2a1abcda5b116,2021-07-29_22h56.38.561,Simcolourproject_2stim_asymm_v5,2020.2.10,Win32,60,61025ae37ef11b136ea224fe,,,,,,,,,4290,61,83,1,0,0,response1disk,,7,24,2,1,0,0,rectangle,24,2,1,0,0,24,2,1,0,0,0,141,141,8,1,,,,,,,,
,,,,,,,,,,,,,FF,,,,,,,,0.8014,,,,,,,,,,,,,,,,,,,,,,60f8d449cbfb4e157c2d7c09,61037705ffc2a1abcda5b116,2021-07-29_22h56.38.561,Simcolourproject_2stim_asymm_v5,2020.2.10,Win32,60,61025ae37ef11b136ea224fe,,,,,,,,,2226,-45,50,1,0,0,response7disk,,0,-17,11,1,0,0,rectangle,57,-116,1,0,0,11,-7,1,0,0,0,142,142,41,1,,response3disk_3,TRUE,4,4,"[100,296,88,15,86,310,181,143,291,13,158,270,104,276,251,68,268,244,107,234]",1.4691,rectangle
,,,,,,,,,,,,,FF,,,,,,,,1.0669,,,,,,,,,,,,,,,,,,,,,,60f8d449cbfb4e157c2d7c09,61037705ffc2a1abcda5b116,2021-07-29_22h56.38.561,Simcolourproject_2stim_asymm_v5,2020.2.10,Win32,60,61025ae37ef11b136ea224fe,,,,,,,,,3749,-70,24,1,0,0,response7disk,,1,5,-1,1,0,0,rectangle,5,-1,1,0,0,5,-1,1,0,0,0,143,143,131,1,,,,,,,,
,,,,,,,,,,,,,FF,,,,,,,,0.6005,,,,,,,,,,,,,,,,,,,,,,60f8d449cbfb4e157c2d7c09,61037705ffc2a1abcda5b116,2021-07-29_22h56.38.561,Simcolourproject_2stim_asymm_v5,2020.2.10,Win32,60,61025ae37ef11b136ea224fe,,,,,,,,,3854,-59,-53,1,0,0,response5disk,,2,-18,-4,1,0,0,rectangle,-18,-4,1,0,0,-18,-4,1,0,0,0,144,144,24,1,,,,,,,,
,,,,,,,,,,,,,FF,,,,,,,,1.6173,,,,,,,,,,,,,,,,,,,,,,60f8d449cbfb4e157c2d7c09,61037705ffc2a1abcda5b116,2021-07-29_22h56.38.561,Simcolourproject_2stim_asymm_v5,2020.2.10,Win32,60,61025ae37ef11b136ea224fe,,,,,,,,,1726,60,53,1,0,0,response1disk,,6,-16,1,1,0,0,rectangle,-16,1,1,0,0,-16,1,1,0,0,0,145,145,45,1,,,,,,,,
,,,,,,,,,,,,,FF,,,,,,,,1.2171,,,,,,,,,,,,,,,,,,,,,,60f8d449cbfb4e157c2d7c09,61037705ffc2a1abcda5b116,2021-07-29_22h56.38.561,Simcolourproject_2stim_asymm_v5,2020.2.10,Win32,60,61025ae37ef11b136ea224fe,,,,,,,,,1040,-101,24,1,0,0,response7disk,,1,22,5,1,0,0,rectangle,22,5,1,0,0,22,5,1,0,0,0,146,146,86,1,,,,,,,,
,,,,,,,,,,,,,FF,,,,,,,,2.001,,,,,,,,,,,,,,,,,,,,,,60f8d449cbfb4e157c2d7c09,61037705ffc2a1abcda5b116,2021-07-29_22h56.38.561,Simcolourproject_2stim_asymm_v5,2020.2.10,Win32,60,61025ae37ef11b136ea224fe,,,,,,,,,3206,77,96,1,0,0,response1disk,,7,-7,-10,1,0,0,rectangle,-7,-10,1,0,0,-7,-10,1,0,0,0,147,147,116,1,,,,,,,,
,,,,,,,,,,,,,FF,,,,,,,,1.4672,,,,,,,,,,,,,,,,,,,,,,60f8d449cbfb4e157c2d7c09,61037705ffc2a1abcda5b116,2021-07-29_22h56.38.561,Simcolourproject_2stim_asymm_v5,2020.2.10,Win32,60,61025ae37ef11b136ea224fe,,,,,,,,,328,123,51,1,0,0,response1disk,,6,-10,6,1,0,0,rectangle,-10,6,1,0,0,-10,6,1,0,0,0,148,148,59,1,,,,,,,,
,,,,,,,,,,,,,FF,,,,,,,,1.3334,,,,,,,,,,,,,,,,,,,,,,60f8d449cbfb4e157c2d7c09,61037705ffc2a1abcda5b116,2021-07-29_22h56.38.561,Simcolourproject_2stim_asymm_v5,2020.2.10,Win32,60,61025ae37ef11b136ea224fe,,,,,,,,,966,65,86,1,0,0,response1disk,,7,23,2,1,0,0,rectangle,23,2,1,0,0,23,2,1,0,0,0,149,149,110,1,,,,,,,,
,,,,,,,,,,,,,FF,,,,,,,,0.8337,,,,,,,,,,,,,,,,,,,,,,60f8d449cbfb4e157c2d7c09,61037705ffc2a1abcda5b116,2021-07-29_22h56.38.561,Simcolourproject_2stim_asymm_v5,2020.2.10,Win32,60,61025ae37ef11b136ea224fe,,,,,,,,,2632,34,63,1,0,0,response1disk,,7,7,-6,1,0,0,rectangle,7,-6,1,0,0,7,-6,1,0,0,0,150,150,153,1,,,,,,,,
,,,,,,,,,,,,,FF,,,,,,,,1.5837,,,,,,,,,,,,,,,,,,,,,,60f8d449cbfb4e157c2d7c09,61037705ffc2a1abcda5b116,2021-07-29_22h56.38.561,Simcolourproject_2stim_asymm_v5,2020.2.10,Win32,60,61025ae37ef11b136ea224fe,,,,,,,,,1782,106,45,1,0,0,response1disk,,6,-6,-13,1,0,0,rectangle,-6,-13,1,0,0,-6,-13,1,0,0,0,151,151,117,1,,,,,,,,
,,,,,,,,,,,,,FF,,,,,,,,1.467,,,,,,,,,,,,,,,,,,,,,,60f8d449cbfb4e157c2d7c09,61037705ffc2a1abcda5b116,2021-07-29_22h56.38.561,Simcolourproject_2stim_asymm_v5,2020.2.10,Win32,60,61025ae37ef11b136ea224fe,,,,,,,,,1554,99,-63,1,0,0,response3disk,,5,3,-4,1,0,0,rectangle,3,-4,1,0,0,3,-4,1,0,0,0,152,152,101,1,,,,,,,,
,,,,,,,,,,,,,FF,,,,,,,,0.6999,,,,,,,,,,,,,,,,,,,,,,60f8d449cbfb4e157c2d7c09,61037705ffc2a1abcda5b116,2021-07-29_22h56.38.561,Simcolourproject_2stim_asymm_v5,2020.2.10,Win32,60,61025ae37ef11b136ea224fe,,,,,,,,,2917,45,-95,1,0,0,response3disk,,4,-14,1,1,0,0,rectangle,-14,1,1,0,0,-14,1,1,0,0,0,153,153,100,1,,,,,,,,
,,,,,,,,,,,,,FF,,,,,,,,1.0003,,,,,,,,,,,,,,,,,,,,,,60f8d449cbfb4e157c2d7c09,61037705ffc2a1abcda5b116,2021-07-29_22h56.38.561,Simcolourproject_2stim_asymm_v5,2020.2.10,Win32,60,61025ae37ef11b136ea224fe,,,,,,,,,3431,-82,46,1,0,0,response7disk,,1,29,-4,1,0,0,rectangle,29,-4,1,0,0,29,-4,1,0,0,0,154,154,5,1,,,,,,,,
,,,,,,,,,,,,,FF,,,,,,,,3.8687,,,,,,,,,,,,,,,,,,,,,,60f8d449cbfb4e157c2d7c09,61037705ffc2a1abcda5b116,2021-07-29_22h56.38.561,Simcolourproject_2stim_asymm_v5,2020.2.10,Win32,60,61025ae37ef11b136ea224fe,,,,,,,,,551,82,57,1,0,0,response1disk,,6,11,5,1,0,0,rectangle,11,5,1,0,0,11,5,1,0,0,0,155,155,122,1,,,,,,,,
,,,,,,,,,,,,,FF,,,,,,,,1.1511,,,,,,,,,,,,,,,,,,,,,,60f8d449cbfb4e157c2d7c09,61037705ffc2a1abcda5b116,2021-07-29_22h56.38.561,Simcolourproject_2stim_asymm_v5,2020.2.10,Win32,60,61025ae37ef11b136ea224fe,,,,,,,,,211,105,33,1,0,0,response1disk,,6,7,0,1,0,0,rectangle,7,0,1,0,0,7,0,1,0,0,0,156,156,119,1,,,,,,,,
,,,,,,,,,,,,,FF,,,,,,,,1.0669,,,,,,,,,,,,,,,,,,,,,,60f8d449cbfb4e157c2d7c09,61037705ffc2a1abcda5b116,2021-07-29_22h56.38.561,Simcolourproject_2stim_asymm_v5,2020.2.10,Win32,60,61025ae37ef11b136ea224fe,,,,,,,,,1108,66,91,1,0,0,response1disk,,7,4,-1,1,0,0,rectangle,80,124,1,0,0,5,4,1,0,0,0,157,157,38,1,,response1disk_3,TRUE,7,7,"[100,296,88,15,86,310,181,143,291,13,158,270,104,276,251,68,268,244,107,234]",1.9179,rectangle
,,,,,,,,,,,,,FF,,,,,,,,2.8014,,,,,,,,,,,,,,,,,,,,,,60f8d449cbfb4e157c2d7c09,61037705ffc2a1abcda5b116,2021-07-29_22h56.38.561,Simcolourproject_2stim_asymm_v5,2020.2.10,Win32,60,61025ae37ef11b136ea224fe,,,,,,,,,1497,92,-28,1,0,0,response3disk,,5,10,-14,1,0,0,rectangle,10,-14,1,0,0,10,-14,1,0,0,0,158,158,138,1,,,,,,,,
,,,,,,,,,,,,,FF,,,,,,,,2.5185,,,,,,,,,,,,,,,,,,,,,,60f8d449cbfb4e157c2d7c09,61037705ffc2a1abcda5b116,2021-07-29_22h56.38.561,Simcolourproject_2stim_asymm_v5,2020.2.10,Win32,60,61025ae37ef11b136ea224fe,,,,,,,,,1482,-101,-43,1,0,0,response5disk,,2,-21,-1,1,0,0,rectangle,-21,-1,1,0,0,-21,-1,1,0,0,0,159,159,28,1,,,,,,,,
,,,,,,,,,,,,,FF,,,,,,,,0.8846,,,,,,,,,,,,,,,,,,,,,,60f8d449cbfb4e157c2d7c09,61037705ffc2a1abcda5b116,2021-07-29_22h56.38.561,Simcolourproject_2stim_asymm_v5,2020.2.10,Win32,60,61025ae37ef11b136ea224fe,,,,,,,,,3302,106,37,1,0,0,response1disk,,6,-4,-9,1,0,0,rectangle,-4,-9,1,0,0,-4,-9,1,0,0,1,0,160,54,1,,,,,,,,
,,,,,,,,,,,,,FF,,,,,,,,0.6174,,,,,,,,,,,,,,,,,,,,,,60f8d449cbfb4e157c2d7c09,61037705ffc2a1abcda5b116,2021-07-29_22h56.38.561,Simcolourproject_2stim_asymm_v5,2020.2.10,Win32,60,61025ae37ef11b136ea224fe,,,,,,,,,2698,124,41,1,0,0,response1disk,,6,-2,-10,1,0,0,rectangle,-2,-10,1,0,0,-2,-10,1,0,0,1,1,161,97,1,,,,,,,,
,,,,,,,,,,,,,FF,,,,,,,,0.5003,,,,,,,,,,,,,,,,,,,,,,60f8d449cbfb4e157c2d7c09,61037705ffc2a1abcda5b116,2021-07-29_22h56.38.561,Simcolourproject_2stim_asymm_v5,2020.2.10,Win32,60,61025ae37ef11b136ea224fe,,,,,,,,,4077,75,27,1,0,0,response1disk,,6,-4,1,1,0,0,rectangle,-4,1,1,0,0,-4,1,1,0,0,1,2,162,16,1,,,,,,,,
,,,,,,,,,,,,,FF,,,,,,,,0.5843,,,,,,,,,,,,,,,,,,,,,,60f8d449cbfb4e157c2d7c09,61037705ffc2a1abcda5b116,2021-07-29_22h56.38.561,Simcolourproject_2stim_asymm_v5,2020.2.10,Win32,60,61025ae37ef11b136ea224fe,,,,,,,,,1550,61,35,1,0,0,response1disk,,6,-8,-9,1,0,0,rectangle,-8,-9,1,0,0,-8,-9,1,0,0,1,3,163,45,1,,,,,,,,
,,,,,,,,,,,,,FF,,,,,,,,1.3171,,,,,,,,,,,,,,,,,,,,,,60f8d449cbfb4e157c2d7c09,61037705ffc2a1abcda5b116,2021-07-29_22h56.38.561,Simcolourproject_2stim_asymm_v5,2020.2.10,Win32,60,61025ae37ef11b136ea224fe,,,,,,,,,4230,-83,50,1,0,0,response7disk,,1,-31,-5,1,0,0,rectangle,-31,-5,1,0,0,-31,-5,1,0,0,1,4,164,119,1,,,,,,,,
,,,,,,,,,,,,,FF,,,,,,,,0.6832,,,,,,,,,,,,,,,,,,,,,,60f8d449cbfb4e157c2d7c09,61037705ffc2a1abcda5b116,2021-07-29_22h56.38.561,Simcolourproject_2stim_asymm_v5,2020.2.10,Win32,60,61025ae37ef11b136ea224fe,,,,,,,,,2216,-52,64,1,0,0,response7disk,,0,-46,10,1,0,0,rectangle,-46,10,1,0,0,-46,10,1,0,0,1,5,165,71,1,,,,,,,,
,,,,,,,,,,,,,FF,,,,,,,,0.9507,,,,,,,,,,,,,,,,,,,,,,60f8d449cbfb4e157c2d7c09,61037705ffc2a1abcda5b116,2021-07-29_22h56.38.561,Simcolourproject_2stim_asymm_v5,2020.2.10,Win32,60,61025ae37ef11b136ea224fe,,,,,,,,,471,-47,58,1,0,0,response7disk,,0,29,2,1,0,0,rectangle,29,2,1,0,0,29,2,1,0,0,1,6,166,130,1,,,,,,,,
,,,,,,,,,,,,,FF,,,,,,,,0.667,,,,,,,,,,,,,,,,,,,,,,60f8d449cbfb4e157c2d7c09,61037705ffc2a1abcda5b116,2021-07-29_22h56.38.561,Simcolourproject_2stim_asymm_v5,2020.2.10,Win32,60,61025ae37ef11b136ea224fe,,,,,,,,,821,47,24,1,0,0,response1disk,,6,-30,-10,1,0,0,rectangle,-30,-10,1,0,0,-30,-10,1,0,0,1,7,167,108,1,,,,,,,,
,,,,,,,,,,,,,FF,,,,,,,,0.7507,,,,,,,,,,,,,,,,,,,,,,60f8d449cbfb4e157c2d7c09,61037705ffc2a1abcda5b116,2021-07-29_22h56.38.561,Simcolourproject_2stim_asymm_v5,2020.2.10,Win32,60,61025ae37ef11b136ea224fe,,,,,,,,,1956,-75,79,1,0,0,response7disk,,0,-35,4,1,0,0,rectangle,-35,4,1,0,0,-35,4,1,0,0,1,8,168,124,1,,,,,,,,
,,,,,,,,,,,,,FF,,,,,,,,0.8168,,,,,,,,,,,,,,,,,,,,,,60f8d449cbfb4e157c2d7c09,61037705ffc2a1abcda5b116,2021-07-29_22h56.38.561,Simcolourproject_2stim_asymm_v5,2020.2.10,Win32,60,61025ae37ef11b136ea224fe,,,,,,,,,2146,-71,66,1,0,0,response7disk,,1,-48,21,1,0,0,rectangle,-48,21,1,0,0,-48,21,1,0,0,1,9,169,104,1,,,,,,,,
,,,,,,,,,,,,,FF,,,,,,,,0.6669,,,,,,,,,,,,,,,,,,,,,,60f8d449cbfb4e157c2d7c09,61037705ffc2a1abcda5b116,2021-07-29_22h56.38.561,Simcolourproject_2stim_asymm_v5,2020.2.10,Win32,60,61025ae37ef11b136ea224fe,,,,,,,,,3440,-51,58,1,0,0,response7disk,,0,-26,-3,1,0,0,rectangle,-26,-3,1,0,0,-26,-3,1,0,0,1,10,170,136,1,,,,,,,,
,,,,,,,,,,,,,FF,,,,,,,,0.6503,,,,,,,,,,,,,,,,,,,,,,60f8d449cbfb4e157c2d7c09,61037705ffc2a1abcda5b116,2021-07-29_22h56.38.561,Simcolourproject_2stim_asymm_v5,2020.2.10,Win32,60,61025ae37ef11b136ea224fe,,,,,,,,,1976,-78,-60,1,0,0,response5disk,,2,-8,-12,1,0,0,rectangle,-8,-12,1,0,0,-8,-12,1,0,0,1,11,171,95,1,,,,,,,,
,,,,,,,,,,,,,FF,,,,,,,,0.5669,,,,,,,,,,,,,,,,,,,,,,60f8d449cbfb4e157c2d7c09,61037705ffc2a1abcda5b116,2021-07-29_22h56.38.561,Simcolourproject_2stim_asymm_v5,2020.2.10,Win32,60,61025ae37ef11b136ea224fe,,,,,,,,,4280,-44,77,1,0,0,response7disk,,0,-40,3,1,0,0,rectangle,-40,3,1,0,0,-40,3,1,0,0,1,12,172,51,1,,,,,,,,
,,,,,,,,,,,,,FF,,,,,,,,0.7333,,,,,,,,,,,,,,,,,,,,,,60f8d449cbfb4e157c2d7c09,61037705ffc2a1abcda5b116,2021-07-29_22h56.38.561,Simcolourproject_2stim_asymm_v5,2020.2.10,Win32,60,61025ae37ef11b136ea224fe,,,,,,,,,2270,-106,36,1,0,0,response7disk,,1,14,13,1,0,0,rectangle,14,13,1,0,0,14,13,1,0,0,1,13,173,154,1,,,,,,,,
,,,,,,,,,,,,,FF,,,,,,,,1.1168,,,,,,,,,,,,,,,,,,,,,,60f8d449cbfb4e157c2d7c09,61037705ffc2a1abcda5b116,2021-07-29_22h56.38.561,Simcolourproject_2stim_asymm_v5,2020.2.10,Win32,60,61025ae37ef11b136ea224fe,,,,,,,,,2959,-95,36,1,0,0,response7disk,,1,23,-6,1,0,0,rectangle,23,-6,1,0,0,23,-6,1,0,0,1,14,174,25,1,,,,,,,,
,,,,,,,,,,,,,FF,,,,,,,,0.9838,,,,,,,,,,,,,,,,,,,,,,60f8d449cbfb4e157c2d7c09,61037705ffc2a1abcda5b116,2021-07-29_22h56.38.561,Simcolourproject_2stim_asymm_v5,2020.2.10,Win32,60,61025ae37ef11b136ea224fe,,,,,,,,,539,-86,-32,1,0,0,response5disk,,2,28,7,1,0,0,rectangle,28,7,1,0,0,28,7,1,0,0,1,15,175,61,1,,,,,,,,
,,,,,,,,,,,,,FF,,,,,,,,1.4495,,,,,,,,,,,,,,,,,,,,,,60f8d449cbfb4e157c2d7c09,61037705ffc2a1abcda5b116,2021-07-29_22h56.38.561,Simcolourproject_2stim_asymm_v5,2020.2.10,Win32,60,61025ae37ef11b136ea224fe,,,,,,,,,80,-74,50,1,0,0,response7disk,,1,-13,8,1,0,0,rectangle,-13,8,1,0,0,-13,8,1,0,0,1,16,176,24,1,,,,,,,,
,,,,,,,,,,,,,FF,,,,,,,,0.7169,,,,,,,,,,,,,,,,,,,,,,60f8d449cbfb4e157c2d7c09,61037705ffc2a1abcda5b116,2021-07-29_22h56.38.561,Simcolourproject_2stim_asymm_v5,2020.2.10,Win32,60,61025ae37ef11b136ea224fe,,,,,,,,,2922,-67,40,1,0,0,response7disk,,1,-21,-9,1,0,0,rectangle,-21,-9,1,0,0,-21,-9,1,0,0,1,17,177,6,1,,,,,,,,
,,,,,,,,,,,,,FF,,,,,,,,0.6001,,,,,,,,,,,,,,,,,,,,,,60f8d449cbfb4e157c2d7c09,61037705ffc2a1abcda5b116,2021-07-29_22h56.38.561,Simcolourproject_2stim_asymm_v5,2020.2.10,Win32,60,61025ae37ef11b136ea224fe,,,,,,,,,1454,-41,61,1,0,0,response7disk,,0,-27,-3,1,0,0,rectangle,-27,-3,1,0,0,-27,-3,1,0,0,1,18,178,77,1,,,,,,,,
,,,,,,,,,,,,,FF,,,,,,,,0.7509,,,,,,,,,,,,,,,,,,,,,,60f8d449cbfb4e157c2d7c09,61037705ffc2a1abcda5b116,2021-07-29_22h56.38.561,Simcolourproject_2stim_asymm_v5,2020.2.10,Win32,60,61025ae37ef11b136ea224fe,,,,,,,,,1471,-73,47,1,0,0,response7disk,,1,-24,9,1,0,0,rectangle,-24,9,1,0,0,-24,9,1,0,0,1,19,179,100,1,,,,,,,,
,,,,,,,,,,,,,FF,,,,,,,,0.5851,,,,,,,,,,,,,,,,,,,,,,60f8d449cbfb4e157c2d7c09,61037705ffc2a1abcda5b116,2021-07-29_22h56.38.561,Simcolourproject_2stim_asymm_v5,2020.2.10,Win32,60,61025ae37ef11b136ea224fe,,,,,,,,,1609,-52,86,1,0,0,response7disk,,0,-36,14,1,0,0,rectangle,-31,124,1,0,0,-11,19,1,0,0,1,20,180,155,1,,response7disk_3,TRUE,0,0,"[100,296,88,15,86,310,181,143,291,13,158,270,104,276,251,68,268,244,107,234]",1.6164,rectangle
,,,,,,,,,,,,,FF,,,,,,,,0.9504,,,,,,,,,,,,,,,,,,,,,,60f8d449cbfb4e157c2d7c09,61037705ffc2a1abcda5b116,2021-07-29_22h56.38.561,Simcolourproject_2stim_asymm_v5,2020.2.10,Win32,60,61025ae37ef11b136ea224fe,,,,,,,,,1198,89,51,1,0,0,response1disk,,6,9,14,1,0,0,rectangle,9,14,1,0,0,9,14,1,0,0,1,21,181,110,1,,,,,,,,
,,,,,,,,,,,,,FF,,,,,,,,0.6002,,,,,,,,,,,,,,,,,,,,,,60f8d449cbfb4e157c2d7c09,61037705ffc2a1abcda5b116,2021-07-29_22h56.38.561,Simcolourproject_2stim_asymm_v5,2020.2.10,Win32,60,61025ae37ef11b136ea224fe,,,,,,,,,1502,55,87,1,0,0,response1disk,,7,9,17,1,0,0,rectangle,9,17,1,0,0,9,17,1,0,0,1,22,182,11,1,,,,,,,,
,,,,,,,,,,,,,FF,,,,,,,,0.8999,,,,,,,,,,,,,,,,,,,,,,60f8d449cbfb4e157c2d7c09,61037705ffc2a1abcda5b116,2021-07-29_22h56.38.561,Simcolourproject_2stim_asymm_v5,2020.2.10,Win32,60,61025ae37ef11b136ea224fe,,,,,,,,,2032,-63,87,1,0,0,response7disk,,0,-35,16,1,0,0,rectangle,-35,16,1,0,0,-35,16,1,0,0,1,23,183,28,1,,,,,,,,
,,,,,,,,,,,,,FF,,,,,,,,0.9513,,,,,,,,,,,,,,,,,,,,,,60f8d449cbfb4e157c2d7c09,61037705ffc2a1abcda5b116,2021-07-29_22h56.38.561,Simcolourproject_2stim_asymm_v5,2020.2.10,Win32,60,61025ae37ef11b136ea224fe,,,,,,,,,2299,-75,39,1,0,0,response7disk,,1,-11,-5,1,0,0,rectangle,-11,-5,1,0,0,-11,-5,1,0,0,1,24,184,40,1,,,,,,,,
,,,,,,,,,,,,,FF,,,,,,,,0.6665,,,,,,,,,,,,,,,,,,,,,,60f8d449cbfb4e157c2d7c09,61037705ffc2a1abcda5b116,2021-07-29_22h56.38.561,Simcolourproject_2stim_asymm_v5,2020.2.10,Win32,60,61025ae37ef11b136ea224fe,,,,,,,,,1567,91,92,1,0,0,response1disk,,7,31,16,1,0,0,rectangle,31,16,1,0,0,31,16,1,0,0,1,25,185,151,1,,,,,,,,
,,,,,,,,,,,,,FF,,,,,,,,0.5836,,,,,,,,,,,,,,,,,,,,,,60f8d449cbfb4e157c2d7c09,61037705ffc2a1abcda5b116,2021-07-29_22h56.38.561,Simcolourproject_2stim_asymm_v5,2020.2.10,Win32,60,61025ae37ef11b136ea224fe,,,,,,,,,2192,57,82,1,0,0,response1disk,,7,24,10,1,0,0,rectangle,24,10,1,0,0,24,10,1,0,0,1,26,186,52,1,,,,,,,,
,,,,,,,,,,,,,FF,,,,,,,,1.2837,,,,,,,,,,,,,,,,,,,,,,60f8d449cbfb4e157c2d7c09,61037705ffc2a1abcda5b116,2021-07-29_22h56.38.561,Simcolourproject_2stim_asymm_v5,2020.2.10,Win32,60,61025ae37ef11b136ea224fe,,,,,,,,,370,-100,38,1,0,0,response7disk,,1,6,-10,1,0,0,rectangle,6,-10,1,0,0,6,-10,1,0,0,1,27,187,66,1,,,,,,,,
,,,,,,,,,,,,,FF,,,,,,,,1.1512,,,,,,,,,,,,,,,,,,,,,,60f8d449cbfb4e157c2d7c09,61037705ffc2a1abcda5b116,2021-07-29_22h56.38.561,Simcolourproject_2stim_asymm_v5,2020.2.10,Win32,60,61025ae37ef11b136ea224fe,,,,,,,,,3950,-62,-110,1,0,0,response5disk,,3,15,18,1,0,0,rectangle,15,18,1,0,0,15,18,1,0,0,1,28,188,57,1,,,,,,,,
,,,,,,,,,,,,,FF,,,,,,,,2.051,,,,,,,,,,,,,,,,,,,,,,60f8d449cbfb4e157c2d7c09,61037705ffc2a1abcda5b116,2021-07-29_22h56.38.561,Simcolourproject_2stim_asymm_v5,2020.2.10,Win32,60,61025ae37ef11b136ea224fe,,,,,,,,,1580,118,31,1,0,0,response1disk,,6,21,-7,1,0,0,rectangle,21,-7,1,0,0,21,-7,1,0,0,1,29,189,27,1,,,,,,,,
,,,,,,,,,,,,,FF,,,,,,,,1.7342,,,,,,,,,,,,,,,,,,,,,,60f8d449cbfb4e157c2d7c09,61037705ffc2a1abcda5b116,2021-07-29_22h56.38.561,Simcolourproject_2stim_asymm_v5,2020.2.10,Win32,60,61025ae37ef11b136ea224fe,,,,,,,,,1799,-59,-92,1,0,0,response5disk,,3,4,2,1,0,0,rectangle,4,2,1,0,0,4,2,1,0,0,1,30,190,146,1,,,,,,,,
,,,,,,,,,,,,,FF,,,,,,,,1.0004,,,,,,,,,,,,,,,,,,,,,,60f8d449cbfb4e157c2d7c09,61037705ffc2a1abcda5b116,2021-07-29_22h56.38.561,Simcolourproject_2stim_asymm_v5,2020.2.10,Win32,60,61025ae37ef11b136ea224fe,,,,,,,,,1558,-44,-78,1,0,0,response5disk,,3,2,-9,1,0,0,rectangle,2,-9,1,0,0,2,-9,1,0,0,1,31,191,55,1,,,,,,,,
,,,,,,,,,,,,,FF,,,,,,,,1.452,,,,,,,,,,,,,,,,,,,,,,60f8d449cbfb4e157c2d7c09,61037705ffc2a1abcda5b116,2021-07-29_22h56.38.561,Simcolourproject_2stim_asymm_v5,2020.2.10,Win32,60,61025ae37ef11b136ea224fe,,,,,,,,,1924,-62,-74,1,0,0,response5disk,,3,-15,4,1,0,0,rectangle,-15,4,1,0,0,-15,4,1,0,0,1,32,192,67,1,,,,,,,,
,,,,,,,,,,,,,FF,,,,,,,,2.0675,,,,,,,,,,,,,,,,,,,,,,60f8d449cbfb4e157c2d7c09,61037705ffc2a1abcda5b116,2021-07-29_22h56.38.561,Simcolourproject_2stim_asymm_v5,2020.2.10,Win32,60,61025ae37ef11b136ea224fe,,,,,,,,,1197,82,-39,1,0,0,response3disk,,5,15,21,1,0,0,rectangle,15,21,1,0,0,15,21,1,0,0,1,33,193,37,1,,,,,,,,
,,,,,,,,,,,,,FF,,,,,,,,3.0504,,,,,,,,,,,,,,,,,,,,,,60f8d449cbfb4e157c2d7c09,61037705ffc2a1abcda5b116,2021-07-29_22h56.38.561,Simcolourproject_2stim_asymm_v5,2020.2.10,Win32,60,61025ae37ef11b136ea224fe,,,,,,,,,4287,89,53,1,0,0,response1disk,,6,-2,6,1,0,0,rectangle,-2,6,1,0,0,-2,6,1,0,0,1,34,194,43,1,,,,,,,,
,,,,,,,,,,,,,FF,,,,,,,,1.3676,,,,,,,,,,,,,,,,,,,,,,60f8d449cbfb4e157c2d7c09,61037705ffc2a1abcda5b116,2021-07-29_22h56.38.561,Simcolourproject_2stim_asymm_v5,2020.2.10,Win32,60,61025ae37ef11b136ea224fe,,,,,,,,,2634,43,-87,1,0,0,response3disk,,4,-20,3,1,0,0,rectangle,-20,3,1,0,0,-20,3,1,0,0,1,35,195,86,1,,,,,,,,
,,,,,,,,,,,,,FF,,,,,,,,0.7168,,,,,,,,,,,,,,,,,,,,,,60f8d449cbfb4e157c2d7c09,61037705ffc2a1abcda5b116,2021-07-29_22h56.38.561,Simcolourproject_2stim_asymm_v5,2020.2.10,Win32,60,61025ae37ef11b136ea224fe,,,,,,,,,698,27,-87,1,0,0,response3disk,,4,-2,1,1,0,0,rectangle,-2,1,1,0,0,-2,1,1,0,0,1,36,196,112,1,,,,,,,,
,,,,,,,,,,,,,FF,,,,,,,,1.2997,,,,,,,,,,,,,,,,,,,,,,60f8d449cbfb4e157c2d7c09,61037705ffc2a1abcda5b116,2021-07-29_22h56.38.561,Simcolourproject_2stim_asymm_v5,2020.2.10,Win32,60,61025ae37ef11b136ea224fe,,,,,,,,,2845,62,-45,1,0,0,response3disk,,5,-12,-5,1,0,0,rectangle,-12,-5,1,0,0,-12,-5,1,0,0,1,37,197,149,1,,,,,,,,
,,,,,,,,,,,,,FF,,,,,,,,1.1162,,,,,,,,,,,,,,,,,,,,,,60f8d449cbfb4e157c2d7c09,61037705ffc2a1abcda5b116,2021-07-29_22h56.38.561,Simcolourproject_2stim_asymm_v5,2020.2.10,Win32,60,61025ae37ef11b136ea224fe,,,,,,,,,4289,69,43,1,0,0,response1disk,,6,-10,19,1,0,0,rectangle,-10,19,1,0,0,-10,19,1,0,0,1,38,198,42,1,,,,,,,,
,,,,,,,,,,,,,FF,,,,,,,,1.5839,,,,,,,,,,,,,,,,,,,,,,60f8d449cbfb4e157c2d7c09,61037705ffc2a1abcda5b116,2021-07-29_22h56.38.561,Simcolourproject_2stim_asymm_v5,2020.2.10,Win32,60,61025ae37ef11b136ea224fe,,,,,,,,,89,-32,-115,1,0,0,response5disk,,3,7,1,1,0,0,rectangle,7,1,1,0,0,7,1,1,0,0,1,39,199,82,1,,,,,,,,
,,,,,,,,,,,,,FF,,,,,,,,2.3342,,,,,,,,,,,,,,,,,,,,,,60f8d449cbfb4e157c2d7c09,61037705ffc2a1abcda5b116,2021-07-29_22h56.38.561,Simcolourproject_2stim_asymm_v5,2020.2.10,Win32,60,61025ae37ef11b136ea224fe,,,,,,,,,910,121,29,1,0,0,response1disk,,6,6,-10,1,0,0,rectangle,6,-10,1,0,0,6,-10,1,0,0,1,40,200,48,1,,,,,,,,
,,,,,,,,,,,,,FF,,,,,,,,1.8839,,,,,,,,,,,,,,,,,,,,,,60f8d449cbfb4e157c2d7c09,61037705ffc2a1abcda5b116,2021-07-29_22h56.38.561,Simcolourproject_2stim_asymm_v5,2020.2.10,Win32,60,61025ae37ef11b136ea224fe,,,,,,,,,4149,99,-30,1,0,0,response3disk,,5,-26,16,1,0,0,rectangle,-26,16,1,0,0,-26,16,1,0,0,1,41,201,126,1,,,,,,,,
,,,,,,,,,,,,,FF,,,,,,,,2.7179,,,,,,,,,,,,,,,,,,,,,,60f8d449cbfb4e157c2d7c09,61037705ffc2a1abcda5b116,2021-07-29_22h56.38.561,Simcolourproject_2stim_asymm_v5,2020.2.10,Win32,60,61025ae37ef11b136ea224fe,,,,,,,,,618,-71,-85,1,0,0,response5disk,,3,-26,1,1,0,0,rectangle,-26,1,1,0,0,-26,1,1,0,0,1,42,202,78,1,,,,,,,,
,,,,,,,,,,,,,FF,,,,,,,,1.3174,,,,,,,,,,,,,,,,,,,,,,60f8d449cbfb4e157c2d7c09,61037705ffc2a1abcda5b116,2021-07-29_22h56.38.561,Simcolourproject_2stim_asymm_v5,2020.2.10,Win32,60,61025ae37ef11b136ea224fe,,,,,,,,,3617,84,-78,1,0,0,response3disk,,5,-10,-6,1,0,0,rectangle,-10,-6,1,0,0,-10,-6,1,0,0,1,43,203,32,1,,,,,,,,
,,,,,,,,,,,,,FF,,,,,,,,1.2004,,,,,,,,,,,,,,,,,,,,,,60f8d449cbfb4e157c2d7c09,61037705ffc2a1abcda5b116,2021-07-29_22h56.38.561,Simcolourproject_2stim_asymm_v5,2020.2.10,Win32,60,61025ae37ef11b136ea224fe,,,,,,,,,1627,72,63,1,0,0,response1disk,,6,16,1,1,0,0,rectangle,16,1,1,0,0,16,1,1,0,0,1,44,204,139,1,,,,,,,,
,,,,,,,,,,,,,FF,,,,,,,,0.7838,,,,,,,,,,,,,,,,,,,,,,60f8d449cbfb4e157c2d7c09,61037705ffc2a1abcda5b116,2021-07-29_22h56.38.561,Simcolourproject_2stim_asymm_v5,2020.2.10,Win32,60,61025ae37ef11b136ea224fe,,,,,,,,,2384,67,-62,1,0,0,response3disk,,5,0,-7,1,0,0,rectangle,0,-7,1,0,0,0,-7,1,0,0,1,45,205,113,1,,,,,,,,
,,,,,,,,,,,,,FF,,,,,,,,0.7671,,,,,,,,,,,,,,,,,,,,,,60f8d449cbfb4e157c2d7c09,61037705ffc2a1abcda5b116,2021-07-29_22h56.38.561,Simcolourproject_2stim_asymm_v5,2020.2.10,Win32,60,61025ae37ef11b136ea224fe,,,,,,,,,3610,65,-42,1,0,0,response3disk,,5,-8,0,1,0,0,rectangle,-8,0,1,0,0,-8,0,1,0,0,1,46,206,7,1,,,,,,,,
,,,,,,,,,,,,,FF,,,,,,,,2.4011,,,,,,,,,,,,,,,,,,,,,,60f8d449cbfb4e157c2d7c09,61037705ffc2a1abcda5b116,2021-07-29_22h56.38.561,Simcolourproject_2stim_asymm_v5,2020.2.10,Win32,60,61025ae37ef11b136ea224fe,,,,,,,,,2154,39,-77,1,0,0,response3disk,,4,5,-17,1,0,0,rectangle,5,-17,1,0,0,5,-17,1,0,0,1,47,207,33,1,,,,,,,,
,,,,,,,,,,,,,FF,,,,,,,,1.0505,,,,,,,,,,,,,,,,,,,,,,60f8d449cbfb4e157c2d7c09,61037705ffc2a1abcda5b116,2021-07-29_22h56.38.561,Simcolourproject_2stim_asymm_v5,2020.2.10,Win32,60,61025ae37ef11b136ea224fe,,,,,,,,,1744,32,-63,1,0,0,response3disk,,4,-8,-4,1,0,0,rectangle,-8,-4,1,0,0,-8,-4,1,0,0,1,48,208,109,1,,,,,,,,
,,,,,,,,,,,,,FF,,,,,,,,2.2677,,,,,,,,,,,,,,,,,,,,,,60f8d449cbfb4e157c2d7c09,61037705ffc2a1abcda5b116,2021-07-29_22h56.38.561,Simcolourproject_2stim_asymm_v5,2020.2.10,Win32,60,61025ae37ef11b136ea224fe,,,,,,,,,2931,45,-87,1,0,0,response3disk,,4,14,5,1,0,0,rectangle,14,5,1,0,0,14,5,1,0,0,1,49,209,49,1,,,,,,,,
,,,,,,,,,,,,,FF,,,,,,,,0.917,,,,,,,,,,,,,,,,,,,,,,60f8d449cbfb4e157c2d7c09,61037705ffc2a1abcda5b116,2021-07-29_22h56.38.561,Simcolourproject_2stim_asymm_v5,2020.2.10,Win32,60,61025ae37ef11b136ea224fe,,,,,,,,,2432,79,28,1,0,0,response1disk,,6,25,-4,1,0,0,rectangle,25,-4,1,0,0,25,-4,1,0,0,1,50,210,133,1,,,,,,,,
,,,,,,,,,,,,,FF,,,,,,,,1.9677,,,,,,,,,,,,,,,,,,,,,,60f8d449cbfb4e157c2d7c09,61037705ffc2a1abcda5b116,2021-07-29_22h56.38.561,Simcolourproject_2stim_asymm_v5,2020.2.10,Win32,60,61025ae37ef11b136ea224fe,,,,,,,,,3763,29,-96,1,0,0,response3disk,,4,-6,15,1,0,0,rectangle,-6,15,1,0,0,-6,15,1,0,0,1,51,211,3,1,,,,,,,,
,,,,,,,,,,,,,FF,,,,,,,,3.5012,,,,,,,,,,,,,,,,,,,,,,60f8d449cbfb4e157c2d7c09,61037705ffc2a1abcda5b116,2021-07-29_22h56.38.561,Simcolourproject_2stim_asymm_v5,2020.2.10,Win32,60,61025ae37ef11b136ea224fe,,,,,,,,,1442,31,-76,1,0,0,response3disk,,4,-2,-11,1,0,0,rectangle,-2,-11,1,0,0,-2,-11,1,0,0,1,52,212,115,1,,,,,,,,
,,,,,,,,,,,,,FF,,,,,,,,1.1837,,,,,,,,,,,,,,,,,,,,,,60f8d449cbfb4e157c2d7c09,61037705ffc2a1abcda5b116,2021-07-29_22h56.38.561,Simcolourproject_2stim_asymm_v5,2020.2.10,Win32,60,61025ae37ef11b136ea224fe,,,,,,,,,1750,26,-81,1,0,0,response3disk,,4,5,-3,1,0,0,rectangle,5,-3,1,0,0,5,-3,1,0,0,1,53,213,5,1,,,,,,,,
,,,,,,,,,,,,,FF,,,,,,,,1.6337,,,,,,,,,,,,,,,,,,,,,,60f8d449cbfb4e157c2d7c09,61037705ffc2a1abcda5b116,2021-07-29_22h56.38.561,Simcolourproject_2stim_asymm_v5,2020.2.10,Win32,60,61025ae37ef11b136ea224fe,,,,,,,,,2961,34,-61,1,0,0,response3disk,,4,23,-4,1,0,0,rectangle,23,-4,1,0,0,23,-4,1,0,0,1,54,214,26,1,,,,,,,,
,,,,,,,,,,,,,FF,,,,,,,,2.2176,,,,,,,,,,,,,,,,,,,,,,60f8d449cbfb4e157c2d7c09,61037705ffc2a1abcda5b116,2021-07-29_22h56.38.561,Simcolourproject_2stim_asymm_v5,2020.2.10,Win32,60,61025ae37ef11b136ea224fe,,,,,,,,,491,-48,-114,1,0,0,response5disk,,3,0,3,1,0,0,rectangle,0,3,1,0,0,0,3,1,0,0,1,55,215,106,1,,,,,,,,
,,,,,,,,,,,,,FF,,,,,,,,1.2838,,,,,,,,,,,,,,,,,,,,,,60f8d449cbfb4e157c2d7c09,61037705ffc2a1abcda5b116,2021-07-29_22h56.38.561,Simcolourproject_2stim_asymm_v5,2020.2.10,Win32,60,61025ae37ef11b136ea224fe,,,,,,,,,415,-31,-95,1,0,0,response5disk,,3,4,3,1,0,0,rectangle,4,3,1,0,0,4,3,1,0,0,1,56,216,132,1,,,,,,,,
,,,,,,,,,,,,,FF,,,,,,,,0.551,,,,,,,,,,,,,,,,,,,,,,60f8d449cbfb4e157c2d7c09,61037705ffc2a1abcda5b116,2021-07-29_22h56.38.561,Simcolourproject_2stim_asymm_v5,2020.2.10,Win32,60,61025ae37ef11b136ea224fe,,,,,,,,,130,35,-77,1,0,0,response3disk,,4,21,-10,1,0,0,rectangle,21,-10,1,0,0,21,-10,1,0,0,1,57,217,22,1,,,,,,,,
,,,,,,,,,,,,,FF,,,,,,,,1.6847,,,,,,,,,,,,,,,,,,,,,,60f8d449cbfb4e157c2d7c09,61037705ffc2a1abcda5b116,2021-07-29_22h56.38.561,Simcolourproject_2stim_asymm_v5,2020.2.10,Win32,60,61025ae37ef11b136ea224fe,,,,,,,,,3097,-60,36,1,0,0,response7disk,,1,7,-9,1,0,0,rectangle,7,-9,1,0,0,7,-9,1,0,0,1,58,218,14,1,,,,,,,,
,,,,,,,,,,,,,FF,,,,,,,,1.7674,,,,,,,,,,,,,,,,,,,,,,60f8d449cbfb4e157c2d7c09,61037705ffc2a1abcda5b116,2021-07-29_22h56.38.561,Simcolourproject_2stim_asymm_v5,2020.2.10,Win32,60,61025ae37ef11b136ea224fe,,,,,,,,,1980,40,-102,1,0,0,response3disk,,4,5,-15,1,0,0,rectangle,5,-15,1,0,0,5,-15,1,0,0,1,59,219,127,1,,,,,,,,
,,,,,,,,,,,,,FF,,,,,,,,0.9841,,,,,,,,,,,,,,,,,,,,,,60f8d449cbfb4e157c2d7c09,61037705ffc2a1abcda5b116,2021-07-29_22h56.38.561,Simcolourproject_2stim_asymm_v5,2020.2.10,Win32,60,61025ae37ef11b136ea224fe,,,,,,,,,1282,81,-48,1,0,0,response3disk,,5,12,-9,1,0,0,rectangle,12,-9,1,0,0,12,-9,1,0,0,1,60,220,141,1,,,,,,,,
,,,,,,,,,,,,,FF,,,,,,,,0.9333,,,,,,,,,,,,,,,,,,,,,,60f8d449cbfb4e157c2d7c09,61037705ffc2a1abcda5b116,2021-07-29_22h56.38.561,Simcolourproject_2stim_asymm_v5,2020.2.10,Win32,60,61025ae37ef11b136ea224fe,,,,,,,,,1137,-52,-85,1,0,0,response5disk,,3,-17,-8,1,0,0,rectangle,-17,-8,1,0,0,-17,-8,1,0,0,1,61,221,94,1,,,,,,,,
,,,,,,,,,,,,,FF,,,,,,,,1.884,,,,,,,,,,,,,,,,,,,,,,60f8d449cbfb4e157c2d7c09,61037705ffc2a1abcda5b116,2021-07-29_22h56.38.561,Simcolourproject_2stim_asymm_v5,2020.2.10,Win32,60,61025ae37ef11b136ea224fe,,,,,,,,,3913,-84,61,1,0,0,response7disk,,1,-13,0,1,0,0,rectangle,-13,0,1,0,0,-13,0,1,0,0,1,62,222,23,1,,,,,,,,
,,,,,,,,,,,,,FF,,,,,,,,1.7176,,,,,,,,,,,,,,,,,,,,,,60f8d449cbfb4e157c2d7c09,61037705ffc2a1abcda5b116,2021-07-29_22h56.38.561,Simcolourproject_2stim_asymm_v5,2020.2.10,Win32,60,61025ae37ef11b136ea224fe,,,,,,,,,3547,-51,39,1,0,0,response7disk,,1,-13,-1,1,0,0,rectangle,-13,-1,1,0,0,-13,-1,1,0,0,1,63,223,9,1,,,,,,,,
,,,,,,,,,,,,,FF,,,,,,,,0.8001,,,,,,,,,,,,,,,,,,,,,,60f8d449cbfb4e157c2d7c09,61037705ffc2a1abcda5b116,2021-07-29_22h56.38.561,Simcolourproject_2stim_asymm_v5,2020.2.10,Win32,60,61025ae37ef11b136ea224fe,,,,,,,,,3449,-72,-46,1,0,0,response5disk,,2,-13,-17,1,0,0,rectangle,-13,-17,1,0,0,-13,-17,1,0,0,1,64,224,21,1,,,,,,,,
,,,,,,,,,,,,,FF,,,,,,,,0.5825,,,,,,,,,,,,,,,,,,,,,,60f8d449cbfb4e157c2d7c09,61037705ffc2a1abcda5b116,2021-07-29_22h56.38.561,Simcolourproject_2stim_asymm_v5,2020.2.10,Win32,60,61025ae37ef11b136ea224fe,,,,,,,,,1503,-57,-81,1,0,0,response5disk,,3,-14,-11,1,0,0,rectangle,-14,-11,1,0,0,-14,-11,1,0,0,1,65,225,131,1,,,,,,,,
,,,,,,,,,,,,,FF,,,,,,,,0.6503,,,,,,,,,,,,,,,,,,,,,,60f8d449cbfb4e157c2d7c09,61037705ffc2a1abcda5b116,2021-07-29_22h56.38.561,Simcolourproject_2stim_asymm_v5,2020.2.10,Win32,60,61025ae37ef11b136ea224fe,,,,,,,,,816,34,-59,1,0,0,response3disk,,4,5,-10,1,0,0,rectangle,5,-10,1,0,0,5,-10,1,0,0,1,66,226,1,1,,,,,,,,
,,,,,,,,,,,,,FF,,,,,,,,0.8837,,,,,,,,,,,,,,,,,,,,,,60f8d449cbfb4e157c2d7c09,61037705ffc2a1abcda5b116,2021-07-29_22h56.38.561,Simcolourproject_2stim_asymm_v5,2020.2.10,Win32,60,61025ae37ef11b136ea224fe,,,,,,,,,3460,71,-33,1,0,0,response3disk,,5,21,-3,1,0,0,rectangle,21,-3,1,0,0,21,-3,1,0,0,1,67,227,18,1,,,,,,,,
,,,,,,,,,,,,,FF,,,,,,,,0.6663,,,,,,,,,,,,,,,,,,,,,,60f8d449cbfb4e157c2d7c09,61037705ffc2a1abcda5b116,2021-07-29_22h56.38.561,Simcolourproject_2stim_asymm_v5,2020.2.10,Win32,60,61025ae37ef11b136ea224fe,,,,,,,,,142,-48,-65,1,0,0,response5disk,,3,-24,-10,1,0,0,rectangle,-24,-10,1,0,0,-24,-10,1,0,0,1,68,228,38,1,,,,,,,,
,,,,,,,,,,,,,FF,,,,,,,,1.3176,,,,,,,,,,,,,,,,,,,,,,60f8d449cbfb4e157c2d7c09,61037705ffc2a1abcda5b116,2021-07-29_22h56.38.561,Simcolourproject_2stim_asymm_v5,2020.2.10,Win32,60,61025ae37ef11b136ea224fe,,,,,,,,,1112,-61,30,1,0,0,response7disk,,1,-6,5,1,0,0,rectangle,-6,5,1,0,0,-6,5,1,0,0,1,69,229,0,1,,,,,,,,
,,,,,,,,,,,,,FF,,,,,,,,0.8011,,,,,,,,,,,,,,,,,,,,,,60f8d449cbfb4e157c2d7c09,61037705ffc2a1abcda5b116,2021-07-29_22h56.38.561,Simcolourproject_2stim_asymm_v5,2020.2.10,Win32,60,61025ae37ef11b136ea224fe,,,,,,,,,2839,-54,32,1,0,0,response7disk,,1,-17,-3,1,0,0,rectangle,-17,-3,1,0,0,-17,-3,1,0,0,1,70,230,84,1,,,,,,,,
,,,,,,,,,,,,,FF,,,,,,,,1.7678,,,,,,,,,,,,,,,,,,,,,,60f8d449cbfb4e157c2d7c09,61037705ffc2a1abcda5b116,2021-07-29_22h56.38.561,Simcolourproject_2stim_asymm_v5,2020.2.10,Win32,60,61025ae37ef11b136ea224fe,,,,,,,,,1285,-68,39,1,0,0,response7disk,,1,1,-9,1,0,0,rectangle,1,-9,1,0,0,1,-9,1,0,0,1,71,231,10,1,,,,,,,,
,,,,,,,,,,,,,FF,,,,,,,,1.0678,,,,,,,,,,,,,,,,,,,,,,60f8d449cbfb4e157c2d7c09,61037705ffc2a1abcda5b116,2021-07-29_22h56.38.561,Simcolourproject_2stim_asymm_v5,2020.2.10,Win32,60,61025ae37ef11b136ea224fe,,,,,,,,,2745,72,-50,1,0,0,response3disk,,5,-15,11,1,0,0,rectangle,-15,11,1,0,0,-15,11,1,0,0,1,72,232,56,1,,,,,,,,
,,,,,,,,,,,,,FF,,,,,,,,2.5012,,,,,,,,,,,,,,,,,,,,,,60f8d449cbfb4e157c2d7c09,61037705ffc2a1abcda5b116,2021-07-29_22h56.38.561,Simcolourproject_2stim_asymm_v5,2020.2.10,Win32,60,61025ae37ef11b136ea224fe,,,,,,,,,1695,45,-33,1,0,0,response3disk,,5,-1,-9,1,0,0,rectangle,138,54,1,0,0,-16,6,1,0,0,1,73,233,39,1,,response1disk_3,TRUE,6,6,"[100,296,88,15,86,310,181,143,291,13,158,270,104,276,251,68,268,244,107,234]",2.1415,rectangle
,,,,,,,,,,,,,FF,,,,,,,,1.5125,,,,,,,,,,,,,,,,,,,,,,60f8d449cbfb4e157c2d7c09,61037705ffc2a1abcda5b116,2021-07-29_22h56.38.561,Simcolourproject_2stim_asymm_v5,2020.2.10,Win32,60,61025ae37ef11b136ea224fe,,,,,,,,,446,-55,-98,1,0,0,response5disk,,3,-36,-6,1,0,0,rectangle,-36,-6,1,0,0,-36,-6,1,0,0,1,74,234,134,1,,,,,,,,
,,,,,,,,,,,,,FF,,,,,,,,1.1176,,,,,,,,,,,,,,,,,,,,,,60f8d449cbfb4e157c2d7c09,61037705ffc2a1abcda5b116,2021-07-29_22h56.38.561,Simcolourproject_2stim_asymm_v5,2020.2.10,Win32,60,61025ae37ef11b136ea224fe,,,,,,,,,3185,28,-74,1,0,0,response3disk,,4,-4,-5,1,0,0,rectangle,-4,-5,1,0,0,-4,-5,1,0,0,1,75,235,107,1,,,,,,,,
,,,,,,,,,,,,,FF,,,,,,,,1.9504,,,,,,,,,,,,,,,,,,,,,,60f8d449cbfb4e157c2d7c09,61037705ffc2a1abcda5b116,2021-07-29_22h56.38.561,Simcolourproject_2stim_asymm_v5,2020.2.10,Win32,60,61025ae37ef11b136ea224fe,,,,,,,,,1078,-46,-85,1,0,0,response5disk,,3,11,-4,1,0,0,rectangle,11,-4,1,0,0,11,-4,1,0,0,1,76,236,73,1,,,,,,,,
,,,,,,,,,,,,,FF,,,,,,,,1.5007,,,,,,,,,,,,,,,,,,,,,,60f8d449cbfb4e157c2d7c09,61037705ffc2a1abcda5b116,2021-07-29_22h56.38.561,Simcolourproject_2stim_asymm_v5,2020.2.10,Win32,60,61025ae37ef11b136ea224fe,,,,,,,,,2257,38,-59,1,0,0,response3disk,,4,9,5,1,0,0,rectangle,9,5,1,0,0,9,5,1,0,0,1,77,237,145,1,,,,,,,,
,,,,,,,,,,,,,FF,,,,,,,,1.7842,,,,,,,,,,,,,,,,,,,,,,60f8d449cbfb4e157c2d7c09,61037705ffc2a1abcda5b116,2021-07-29_22h56.38.561,Simcolourproject_2stim_asymm_v5,2020.2.10,Win32,60,61025ae37ef11b136ea224fe,,,,,,,,,3088,47,-68,1,0,0,response3disk,,4,12,-10,1,0,0,rectangle,12,-10,1,0,0,12,-10,1,0,0,1,78,238,44,1,,,,,,,,
,,,,,,,,,,,,,FF,,,,,,,,1.1005,,,,,,,,,,,,,,,,,,,,,,60f8d449cbfb4e157c2d7c09,61037705ffc2a1abcda5b116,2021-07-29_22h56.38.561,Simcolourproject_2stim_asymm_v5,2020.2.10,Win32,60,61025ae37ef11b136ea224fe,,,,,,,,,656,23,-80,1,0,0,response3disk,,4,-1,-18,1,0,0,rectangle,-1,-18,1,0,0,-1,-18,1,0,0,1,79,239,96,1,,,,,,,,
,,,,,,,,,,,,,FF,,,,,,,,1.1335,,,,,,,,,,,,,,,,,,,,,,60f8d449cbfb4e157c2d7c09,61037705ffc2a1abcda5b116,2021-07-29_22h56.38.561,Simcolourproject_2stim_asymm_v5,2020.2.10,Win32,60,61025ae37ef11b136ea224fe,,,,,,,,,4021,-82,-52,1,0,0,response5disk,,2,-9,-8,1,0,0,rectangle,-9,-8,1,0,0,-9,-8,1,0,0,1,80,240,17,1,,,,,,,,
,,,,,,,,,,,,,FF,,,,,,,,1,,,,,,,,,,,,,,,,,,,,,,60f8d449cbfb4e157c2d7c09,61037705ffc2a1abcda5b116,2021-07-29_22h56.38.561,Simcolourproject_2stim_asymm_v5,2020.2.10,Win32,60,61025ae37ef11b136ea224fe,,,,,,,,,794,40,-52,1,0,0,response3disk,,4,9,-2,1,0,0,rectangle,9,-2,1,0,0,9,-2,1,0,0,1,81,241,123,1,,,,,,,,
,,,,,,,,,,,,,FF,,,,,,,,0.9668,,,,,,,,,,,,,,,,,,,,,,60f8d449cbfb4e157c2d7c09,61037705ffc2a1abcda5b116,2021-07-29_22h56.38.561,Simcolourproject_2stim_asymm_v5,2020.2.10,Win32,60,61025ae37ef11b136ea224fe,,,,,,,,,2003,76,-40,1,0,0,response3disk,,5,-6,3,1,0,0,rectangle,-6,3,1,0,0,-6,3,1,0,0,1,82,242,88,1,,,,,,,,
,,,,,,,,,,,,,FF,,,,,,,,1.0501,,,,,,,,,,,,,,,,,,,,,,60f8d449cbfb4e157c2d7c09,61037705ffc2a1abcda5b116,2021-07-29_22h56.38.561,Simcolourproject_2stim_asymm_v5,2020.2.10,Win32,60,61025ae37ef11b136ea224fe,,,,,,,,,2898,-49,-56,1,0,0,response5disk,,3,-31,-15,1,0,0,rectangle,139,55,1,0,0,9,3,1,0,0,1,83,243,120,1,,response1disk_3,TRUE,6,6,"[100,296,88,15,86,310,181,143,291,13,158,270,104,276,251,68,268,244,107,234]",1.4177,rectangle
,,,,,,,,,,,,,FF,,,,,,,,0.9831,,,,,,,,,,,,,,,,,,,,,,60f8d449cbfb4e157c2d7c09,61037705ffc2a1abcda5b116,2021-07-29_22h56.38.561,Simcolourproject_2stim_asymm_v5,2020.2.10,Win32,60,61025ae37ef11b136ea224fe,,,,,,,,,2920,-66,-43,1,0,0,response5disk,,2,-23,-7,1,0,0,rectangle,-23,-7,1,0,0,-23,-7,1,0,0,1,84,244,20,1,,,,,,,,
,,,,,,,,,,,,,FF,,,,,,,,1.2991,,,,,,,,,,,,,,,,,,,,,,60f8d449cbfb4e157c2d7c09,61037705ffc2a1abcda5b116,2021-07-29_22h56.38.561,Simcolourproject_2stim_asymm_v5,2020.2.10,Win32,60,61025ae37ef11b136ea224fe,,,,,,,,,4074,-44,21,1,0,0,response7disk,,1,3,-4,1,0,0,rectangle,3,-4,1,0,0,3,-4,1,0,0,1,85,245,79,1,,,,,,,,
,,,,,,,,,,,,,FF,,,,,,,,1.5005,,,,,,,,,,,,,,,,,,,,,,60f8d449cbfb4e157c2d7c09,61037705ffc2a1abcda5b116,2021-07-29_22h56.38.561,Simcolourproject_2stim_asymm_v5,2020.2.10,Win32,60,61025ae37ef11b136ea224fe,,,,,,,,,2178,47,-38,1,0,0,response3disk,,5,-4,1,1,0,0,rectangle,-4,1,1,0,0,-4,1,1,0,0,1,86,246,103,1,,,,,,,,
,,,,,,,,,,,,,FF,,,,,,,,1.5509,,,,,,,,,,,,,,,,,,,,,,60f8d449cbfb4e157c2d7c09,61037705ffc2a1abcda5b116,2021-07-29_22h56.38.561,Simcolourproject_2stim_asymm_v5,2020.2.10,Win32,60,61025ae37ef11b136ea224fe,,,,,,,,,3660,-28,-58,1,0,0,response5disk,,3,-12,-9,1,0,0,rectangle,-12,-9,1,0,0,-12,-9,1,0,0,1,87,247,129,1,,,,,,,,
,,,,,,,,,,,,,FF,,,,,,,,1.0683,,,,,,,,,,,,,,,,,,,,,,60f8d449cbfb4e157c2d7c09,61037705ffc2a1abcda5b116,2021-07-29_22h56.38.561,Simcolourproject_2stim_asymm_v5,2020.2.10,Win32,60,61025ae37ef11b136ea224fe,,,,,,,,,3814,-59,-38,1,0,0,response5disk,,2,-11,-2,1,0,0,rectangle,-11,-2,1,0,0,-11,-2,1,0,0,1,88,248,156,1,,,,,,,,
,,,,,,,,,,,,,FF,,,,,,,,1.0843,,,,,,,,,,,,,,,,,,,,,,60f8d449cbfb4e157c2d7c09,61037705ffc2a1abcda5b116,2021-07-29_22h56.38.561,Simcolourproject_2stim_asymm_v5,2020.2.10,Win32,60,61025ae37ef11b136ea224fe,,,,,,,,,97,-45,-46,1,0,0,response5disk,,3,-30,-8,1,0,0,rectangle,-30,-8,1,0,0,-30,-8,1,0,0,1,89,249,102,1,,,,,,,,
,,,,,,,,,,,,,FF,,,,,,,,0.9671,,,,,,,,,,,,,,,,,,,,,,60f8d449cbfb4e157c2d7c09,61037705ffc2a1abcda5b116,2021-07-29_22h56.38.561,Simcolourproject_2stim_asymm_v5,2020.2.10,Win32,60,61025ae37ef11b136ea224fe,,,,,,,,,832,23,-45,1,0,0,response3disk,,4,1,-6,1,0,0,rectangle,-76,37,1,0,0,-22,-5,1,0,0,1,90,250,122,1,,response7disk_3,TRUE,1,1,"[100,296,88,15,86,310,181,143,291,13,158,270,104,276,251,68,268,244,107,234]",1.4176,rectangle
,,,,,,,,,,,,,FF,,,,,,,,0.9674,,,,,,,,,,,,,,,,,,,,,,60f8d449cbfb4e157c2d7c09,61037705ffc2a1abcda5b116,2021-07-29_22h56.38.561,Simcolourproject_2stim_asymm_v5,2020.2.10,Win32,60,61025ae37ef11b136ea224fe,,,,,,,,,301,-60,-40,1,0,0,response5disk,,2,-20,-5,1,0,0,rectangle,-20,-5,1,0,0,-20,-5,1,0,0,1,91,251,70,1,,,,,,,,
,,,,,,,,,,,,,FF,,,,,,,,1.5015,,,,,,,,,,,,,,,,,,,,,,60f8d449cbfb4e157c2d7c09,61037705ffc2a1abcda5b116,2021-07-29_22h56.38.561,Simcolourproject_2stim_asymm_v5,2020.2.10,Win32,60,61025ae37ef11b136ea224fe,,,,,,,,,4160,34,-62,1,0,0,response3disk,,4,6,-7,1,0,0,rectangle,6,-7,1,0,0,6,-7,1,0,0,1,92,252,144,1,,,,,,,,
,,,,,,,,,,,,,FF,,,,,,,,0.667,,,,,,,,,,,,,,,,,,,,,,60f8d449cbfb4e157c2d7c09,61037705ffc2a1abcda5b116,2021-07-29_22h56.38.561,Simcolourproject_2stim_asymm_v5,2020.2.10,Win32,60,61025ae37ef11b136ea224fe,,,,,,,,,1084,-53,-41,1,0,0,response5disk,,2,-13,-12,1,0,0,rectangle,-13,-12,1,0,0,-13,-12,1,0,0,1,93,253,157,1,,,,,,,,
,,,,,,,,,,,,,FF,,,,,,,,1.1003,,,,,,,,,,,,,,,,,,,,,,60f8d449cbfb4e157c2d7c09,61037705ffc2a1abcda5b116,2021-07-29_22h56.38.561,Simcolourproject_2stim_asymm_v5,2020.2.10,Win32,60,61025ae37ef11b136ea224fe,,,,,,,,,570,-62,29,1,0,0,response7disk,,1,-11,-6,1,0,0,rectangle,-11,-6,1,0,0,-11,-6,1,0,0,1,94,254,47,1,,,,,,,,
,,,,,,,,,,,,,FF,,,,,,,,0.7,,,,,,,,,,,,,,,,,,,,,,60f8d449cbfb4e157c2d7c09,61037705ffc2a1abcda5b116,2021-07-29_22h56.38.561,Simcolourproject_2stim_asymm_v5,2020.2.10,Win32,60,61025ae37ef11b136ea224fe,,,,,,,,,4118,-29,50,1,0,0,response7disk,,0,-11,6,1,0,0,rectangle,-11,6,1,0,0,-11,6,1,0,0,1,95,255,101,1,,,,,,,,
,,,,,,,,,,,,,FF,,,,,,,,0.6501,,,,,,,,,,,,,,,,,,,,,,60f8d449cbfb4e157c2d7c09,61037705ffc2a1abcda5b116,2021-07-29_22h56.38.561,Simcolourproject_2stim_asymm_v5,2020.2.10,Win32,60,61025ae37ef11b136ea224fe,,,,,,,,,767,-63,-31,1,0,0,response5disk,,2,-8,-2,1,0,0,rectangle,-8,-2,1,0,0,-8,-2,1,0,0,1,96,256,111,1,,,,,,,,
,,,,,,,,,,,,,FF,,,,,,,,0.7828,,,,,,,,,,,,,,,,,,,,,,60f8d449cbfb4e157c2d7c09,61037705ffc2a1abcda5b116,2021-07-29_22h56.38.561,Simcolourproject_2stim_asymm_v5,2020.2.10,Win32,60,61025ae37ef11b136ea224fe,,,,,,,,,3437,-28,-55,1,0,0,response5disk,,3,-14,-15,1,0,0,rectangle,-14,-15,1,0,0,-14,-15,1,0,0,1,97,257,158,1,,,,,,,,
,,,,,,,,,,,,,FF,,,,,,,,61.319,,,,,,,,,,,,,,,,,,,,,,60f8d449cbfb4e157c2d7c09,61037705ffc2a1abcda5b116,2021-07-29_22h56.38.561,Simcolourproject_2stim_asymm_v5,2020.2.10,Win32,60,61025ae37ef11b136ea224fe,,,,,,,,,3003,-47,-97,1,0,0,response5disk,,3,14,-15,1,0,0,rectangle,14,-15,1,0,0,14,-15,1,0,0,1,98,258,74,1,,,,,,,,
,,,,,,,,,,,,,FF,,,,,,,,0.8337,,,,,,,,,,,,,,,,,,,,,,60f8d449cbfb4e157c2d7c09,61037705ffc2a1abcda5b116,2021-07-29_22h56.38.561,Simcolourproject_2stim_asymm_v5,2020.2.10,Win32,60,61025ae37ef11b136ea224fe,,,,,,,,,116,-64,-34,1,0,0,response5disk,,2,-11,-6,1,0,0,rectangle,-11,-6,1,0,0,-11,-6,1,0,0,1,99,259,93,1,,,,,,,,
,,,,,,,,,,,,,FF,,,,,,,,0.7842,,,,,,,,,,,,,,,,,,,,,,60f8d449cbfb4e157c2d7c09,61037705ffc2a1abcda5b116,2021-07-29_22h56.38.561,Simcolourproject_2stim_asymm_v5,2020.2.10,Win32,60,61025ae37ef11b136ea224fe,,,,,,,,,214,-89,-44,1,0,0,response5disk,,2,-13,3,1,0,0,rectangle,-13,3,1,0,0,-13,3,1,0,0,1,100,260,53,1,,,,,,,,
,,,,,,,,,,,,,FF,,,,,,,,1.3006,,,,,,,,,,,,,,,,,,,,,,60f8d449cbfb4e157c2d7c09,61037705ffc2a1abcda5b116,2021-07-29_22h56.38.561,Simcolourproject_2stim_asymm_v5,2020.2.10,Win32,60,61025ae37ef11b136ea224fe,,,,,,,,,1640,-74,28,1,0,0,response7disk,,1,-9,-6,1,0,0,rectangle,-9,-6,1,0,0,-9,-6,1,0,0,1,101,261,105,1,,,,,,,,
,,,,,,,,,,,,,FF,,,,,,,,0.5666,,,,,,,,,,,,,,,,,,,,,,60f8d449cbfb4e157c2d7c09,61037705ffc2a1abcda5b116,2021-07-29_22h56.38.561,Simcolourproject_2stim_asymm_v5,2020.2.10,Win32,60,61025ae37ef11b136ea224fe,,,,,,,,,200,-73,-64,1,0,0,response5disk,,2,-11,-19,1,0,0,rectangle,-11,-19,1,0,0,-11,-19,1,0,0,1,102,262,125,1,,,,,,,,
,,,,,,,,,,,,,FF,,,,,,,,1.1843,,,,,,,,,,,,,,,,,,,,,,60f8d449cbfb4e157c2d7c09,61037705ffc2a1abcda5b116,2021-07-29_22h56.38.561,Simcolourproject_2stim_asymm_v5,2020.2.10,Win32,60,61025ae37ef11b136ea224fe,,,,,,,,,1346,52,-106,1,0,0,response3disk,,4,-12,-5,1,0,0,rectangle,-12,-5,1,0,0,-12,-5,1,0,0,1,103,263,89,1,,,,,,,,
,,,,,,,,,,,,,FF,,,,,,,,0.9184,,,,,,,,,,,,,,,,,,,,,,60f8d449cbfb4e157c2d7c09,61037705ffc2a1abcda5b116,2021-07-29_22h56.38.561,Simcolourproject_2stim_asymm_v5,2020.2.10,Win32,60,61025ae37ef11b136ea224fe,,,,,,,,,1304,-57,-79,1,0,0,response5disk,,3,-3,-4,1,0,0,rectangle,-3,-4,1,0,0,-3,-4,1,0,0,1,104,264,117,1,,,,,,,,
,,,,,,,,,,,,,FF,,,,,,,,0.6737,,,,,,,,,,,,,,,,,,,,,,60f8d449cbfb4e157c2d7c09,61037705ffc2a1abcda5b116,2021-07-29_22h56.38.561,Simcolourproject_2stim_asymm_v5,2020.2.10,Win32,60,61025ae37ef11b136ea224fe,,,,,,,,,2247,-85,-54,1,0,0,response5disk,,2,-17,-4,1,0,0,rectangle,-17,-4,1,0,0,-17,-4,1,0,0,1,105,265,99,1,,,,,,,,
,,,,,,,,,,,,,FF,,,,,,,,1.3505,,,,,,,,,,,,,,,,,,,,,,60f8d449cbfb4e157c2d7c09,61037705ffc2a1abcda5b116,2021-07-29_22h56.38.561,Simcolourproject_2stim_asymm_v5,2020.2.10,Win32,60,61025ae37ef11b136ea224fe,,,,,,,,,3429,-48,-95,1,0,0,response5disk,,3,-11,-13,1,0,0,rectangle,-11,-13,1,0,0,-11,-13,1,0,0,1,106,266,30,1,,,,,,,,
,,,,,,,,,,,,,FF,,,,,,,,0.9822,,,,,,,,,,,,,,,,,,,,,,60f8d449cbfb4e157c2d7c09,61037705ffc2a1abcda5b116,2021-07-29_22h56.38.561,Simcolourproject_2stim_asymm_v5,2020.2.10,Win32,60,61025ae37ef11b136ea224fe,,,,,,,,,1081,33,-82,1,0,0,response3disk,,4,-2,3,1,0,0,rectangle,-35,89,1,0,0,-9,9,1,0,0,1,107,267,35,1,,response7disk_3,TRUE,0,0,"[100,296,88,15,86,310,181,143,291,13,158,270,104,276,251,68,268,244,107,234]",1.4521,rectangle
,,,,,,,,,,,,,FF,,,,,,,,1.4673,,,,,,,,,,,,,,,,,,,,,,60f8d449cbfb4e157c2d7c09,61037705ffc2a1abcda5b116,2021-07-29_22h56.38.561,Simcolourproject_2stim_asymm_v5,2020.2.10,Win32,60,61025ae37ef11b136ea224fe,,,,,,,,,2637,54,28,1,0,0,response1disk,,6,0,-5,1,0,0,rectangle,0,-5,1,0,0,0,-5,1,0,0,1,108,268,128,1,,,,,,,,
,,,,,,,,,,,,,FF,,,,,,,,0.533,,,,,,,,,,,,,,,,,,,,,,60f8d449cbfb4e157c2d7c09,61037705ffc2a1abcda5b116,2021-07-29_22h56.38.561,Simcolourproject_2stim_asymm_v5,2020.2.10,Win32,60,61025ae37ef11b136ea224fe,,,,,,,,,572,-47,-70,1,0,0,response5disk,,3,-27,-9,1,0,0,rectangle,-118,-61,1,0,0,2,-16,1,0,0,1,109,269,64,1,,response5disk_3,TRUE,2,2,"[100,296,88,15,86,310,181,143,291,13,158,270,104,276,251,68,268,244,107,234]",1.9179,rectangle
,,,,,,,,,,,,,FF,,,,,,,,0.5336,,,,,,,,,,,,,,,,,,,,,,60f8d449cbfb4e157c2d7c09,61037705ffc2a1abcda5b116,2021-07-29_22h56.38.561,Simcolourproject_2stim_asymm_v5,2020.2.10,Win32,60,61025ae37ef11b136ea224fe,,,,,,,,,223,31,-77,1,0,0,response3disk,,4,5,-17,1,0,0,rectangle,5,-17,1,0,0,5,-17,1,0,0,1,110,270,114,1,,,,,,,,
,,,,,,,,,,,,,FF,,,,,,,,3.7675,,,,,,,,,,,,,,,,,,,,,,60f8d449cbfb4e157c2d7c09,61037705ffc2a1abcda5b116,2021-07-29_22h56.38.561,Simcolourproject_2stim_asymm_v5,2020.2.10,Win32,60,61025ae37ef11b136ea224fe,,,,,,,,,3037,-50,37,1,0,0,response7disk,,1,2,4,1,0,0,rectangle,2,4,1,0,0,2,4,1,0,0,1,111,271,59,1,,,,,,,,
,,,,,,,,,,,,,FF,,,,,,,,0.5669,,,,,,,,,,,,,,,,,,,,,,60f8d449cbfb4e157c2d7c09,61037705ffc2a1abcda5b116,2021-07-29_22h56.38.561,Simcolourproject_2stim_asymm_v5,2020.2.10,Win32,60,61025ae37ef11b136ea224fe,,,,,,,,,3485,-43,-70,1,0,0,response5disk,,3,-21,-7,1,0,0,rectangle,-21,-7,1,0,0,-21,-7,1,0,0,1,112,272,36,1,,,,,,,,
,,,,,,,,,,,,,FF,,,,,,,,0.8337,,,,,,,,,,,,,,,,,,,,,,60f8d449cbfb4e157c2d7c09,61037705ffc2a1abcda5b116,2021-07-29_22h56.38.561,Simcolourproject_2stim_asymm_v5,2020.2.10,Win32,60,61025ae37ef11b136ea224fe,,,,,,,,,508,-91,-55,1,0,0,response5disk,,2,-25,-6,1,0,0,rectangle,-25,-6,1,0,0,-25,-6,1,0,0,1,113,273,72,1,,,,,,,,
,,,,,,,,,,,,,FF,,,,,,,,0.6171,,,,,,,,,,,,,,,,,,,,,,60f8d449cbfb4e157c2d7c09,61037705ffc2a1abcda5b116,2021-07-29_22h56.38.561,Simcolourproject_2stim_asymm_v5,2020.2.10,Win32,60,61025ae37ef11b136ea224fe,,,,,,,,,733,-46,-60,1,0,0,response5disk,,3,-19,-7,1,0,0,rectangle,-19,-7,1,0,0,-19,-7,1,0,0,1,114,274,80,1,,,,,,,,
,,,,,,,,,,,,,FF,,,,,,,,0.5833,,,,,,,,,,,,,,,,,,,,,,60f8d449cbfb4e157c2d7c09,61037705ffc2a1abcda5b116,2021-07-29_22h56.38.561,Simcolourproject_2stim_asymm_v5,2020.2.10,Win32,60,61025ae37ef11b136ea224fe,,,,,,,,,2478,46,-55,1,0,0,response3disk,,4,-14,-6,1,0,0,rectangle,80,104,1,0,0,16,1,1,0,0,1,115,275,147,1,,response1disk_3,TRUE,7,7,"[100,296,88,15,86,310,181,143,291,13,158,270,104,276,251,68,268,244,107,234]",1.7671,rectangle
,,,,,,,,,,,,,FF,,,,,,,,0.5667,,,,,,,,,,,,,,,,,,,,,,60f8d449cbfb4e157c2d7c09,61037705ffc2a1abcda5b116,2021-07-29_22h56.38.561,Simcolourproject_2stim_asymm_v5,2020.2.10,Win32,60,61025ae37ef11b136ea224fe,,,,,,,,,1849,-74,-63,1,0,0,response5disk,,2,-23,-15,1,0,0,rectangle,-23,-15,1,0,0,-23,-15,1,0,0,1,116,276,148,1,,,,,,,,
,,,,,,,,,,,,,FF,,,,,,,,0.5158,,,,,,,,,,,,,,,,,,,,,,60f8d449cbfb4e157c2d7c09,61037705ffc2a1abcda5b116,2021-07-29_22h56.38.561,Simcolourproject_2stim_asymm_v5,2020.2.10,Win32,60,61025ae37ef11b136ea224fe,,,,,,,,,2587,-32,-100,1,0,0,response5disk,,3,-9,-11,1,0,0,rectangle,-9,-11,1,0,0,-9,-11,1,0,0,1,117,277,4,1,,,,,,,,
,,,,,,,,,,,,,FF,,,,,,,,0.5831,,,,,,,,,,,,,,,,,,,,,,60f8d449cbfb4e157c2d7c09,61037705ffc2a1abcda5b116,2021-07-29_22h56.38.561,Simcolourproject_2stim_asymm_v5,2020.2.10,Win32,60,61025ae37ef11b136ea224fe,,,,,,,,,711,33,-76,1,0,0,response3disk,,4,9,5,1,0,0,rectangle,9,5,1,0,0,9,5,1,0,0,1,118,278,98,1,,,,,,,,
,,,,,,,,,,,,,FF,,,,,,,,0.8498,,,,,,,,,,,,,,,,,,,,,,60f8d449cbfb4e157c2d7c09,61037705ffc2a1abcda5b116,2021-07-29_22h56.38.561,Simcolourproject_2stim_asymm_v5,2020.2.10,Win32,60,61025ae37ef11b136ea224fe,,,,,,,,,529,-73,-41,1,0,0,response5disk,,2,-19,10,1,0,0,rectangle,-19,10,1,0,0,-19,10,1,0,0,1,119,279,46,1,,,,,,,,
,,,,,,,,,,,,,FF,,,,,,,,0.8169,,,,,,,,,,,,,,,,,,,,,,60f8d449cbfb4e157c2d7c09,61037705ffc2a1abcda5b116,2021-07-29_22h56.38.561,Simcolourproject_2stim_asymm_v5,2020.2.10,Win32,60,61025ae37ef11b136ea224fe,,,,,,,,,1846,-57,-70,1,0,0,response5disk,,3,-18,-12,1,0,0,rectangle,-18,-12,1,0,0,-18,-12,1,0,0,1,120,280,12,1,,,,,,,,
,,,,,,,,,,,,,FF,,,,,,,,0.4836,,,,,,,,,,,,,,,,,,,,,,60f8d449cbfb4e157c2d7c09,61037705ffc2a1abcda5b116,2021-07-29_22h56.38.561,Simcolourproject_2stim_asymm_v5,2020.2.10,Win32,60,61025ae37ef11b136ea224fe,,,,,,,,,3616,24,-77,1,0,0,response3disk,,4,6,-14,1,0,0,rectangle,6,-14,1,0,0,6,-14,1,0,0,1,121,281,31,1,,,,,,,,
,,,,,,,,,,,,,FF,,,,,,,,2.6004,,,,,,,,,,,,,,,,,,,,,,60f8d449cbfb4e157c2d7c09,61037705ffc2a1abcda5b116,2021-07-29_22h56.38.561,Simcolourproject_2stim_asymm_v5,2020.2.10,Win32,60,61025ae37ef11b136ea224fe,,,,,,,,,298,-55,-79,1,0,0,response5disk,,3,-22,-3,1,0,0,rectangle,-22,-3,1,0,0,-22,-3,1,0,0,1,122,282,116,1,,,,,,,,
,,,,,,,,,,,,,FF,,,,,,,,0.5008,,,,,,,,,,,,,,,,,,,,,,60f8d449cbfb4e157c2d7c09,61037705ffc2a1abcda5b116,2021-07-29_22h56.38.561,Simcolourproject_2stim_asymm_v5,2020.2.10,Win32,60,61025ae37ef11b136ea224fe,,,,,,,,,1769,41,-69,1,0,0,response3disk,,4,24,-16,1,0,0,rectangle,24,-16,1,0,0,24,-16,1,0,0,1,123,283,29,1,,,,,,,,
,,,,,,,,,,,,,FF,,,,,,,,0.7499,,,,,,,,,,,,,,,,,,,,,,60f8d449cbfb4e157c2d7c09,61037705ffc2a1abcda5b116,2021-07-29_22h56.38.561,Simcolourproject_2stim_asymm_v5,2020.2.10,Win32,60,61025ae37ef11b136ea224fe,,,,,,,,,2144,-62,-41,1,0,0,response5disk,,2,-29,-12,1,0,0,rectangle,-29,-12,1,0,0,-29,-12,1,0,0,1,124,284,50,1,,,,,,,,
,,,,,,,,,,,,,FF,,,,,,,,0.817,,,,,,,,,,,,,,,,,,,,,,60f8d449cbfb4e157c2d7c09,61037705ffc2a1abcda5b116,2021-07-29_22h56.38.561,Simcolourproject_2stim_asymm_v5,2020.2.10,Win32,60,61025ae37ef11b136ea224fe,,,,,,,,,138,26,-67,1,0,0,response3disk,,4,25,-4,1,0,0,rectangle,25,-4,1,0,0,25,-4,1,0,0,1,125,285,87,1,,,,,,,,
,,,,,,,,,,,,,FF,,,,,,,,1.3171,,,,,,,,,,,,,,,,,,,,,,60f8d449cbfb4e157c2d7c09,61037705ffc2a1abcda5b116,2021-07-29_22h56.38.561,Simcolourproject_2stim_asymm_v5,2020.2.10,Win32,60,61025ae37ef11b136ea224fe,,,,,,,,,1855,33,-79,1,0,0,response3disk,,4,-15,-19,1,0,0,rectangle,-15,-19,1,0,0,-15,-19,1,0,0,1,126,286,65,1,,,,,,,,
,,,,,,,,,,,,,FF,,,,,,,,1.6003,,,,,,,,,,,,,,,,,,,,,,60f8d449cbfb4e157c2d7c09,61037705ffc2a1abcda5b116,2021-07-29_22h56.38.561,Simcolourproject_2stim_asymm_v5,2020.2.10,Win32,60,61025ae37ef11b136ea224fe,,,,,,,,,1378,-100,-65,1,0,0,response5disk,,2,-20,12,1,0,0,rectangle,-20,12,1,0,0,-20,12,1,0,0,1,127,287,41,1,,,,,,,,
,,,,,,,,,,,,,FF,,,,,,,,0.7671,,,,,,,,,,,,,,,,,,,,,,60f8d449cbfb4e157c2d7c09,61037705ffc2a1abcda5b116,2021-07-29_22h56.38.561,Simcolourproject_2stim_asymm_v5,2020.2.10,Win32,60,61025ae37ef11b136ea224fe,,,,,,,,,1815,-53,93,1,0,0,response7disk,,0,-7,12,1,0,0,rectangle,-7,12,1,0,0,-7,12,1,0,0,1,128,288,85,1,,,,,,,,
,,,,,,,,,,,,,FF,,,,,,,,0.7338,,,,,,,,,,,,,,,,,,,,,,60f8d449cbfb4e157c2d7c09,61037705ffc2a1abcda5b116,2021-07-29_22h56.38.561,Simcolourproject_2stim_asymm_v5,2020.2.10,Win32,60,61025ae37ef11b136ea224fe,,,,,,,,,4237,-95,32,1,0,0,response7disk,,1,-24,3,1,0,0,rectangle,-24,3,1,0,0,-24,3,1,0,0,1,129,289,19,1,,,,,,,,
,,,,,,,,,,,,,FF,,,,,,,,1.267,,,,,,,,,,,,,,,,,,,,,,60f8d449cbfb4e157c2d7c09,61037705ffc2a1abcda5b116,2021-07-29_22h56.38.561,Simcolourproject_2stim_asymm_v5,2020.2.10,Win32,60,61025ae37ef11b136ea224fe,,,,,,,,,207,100,-46,1,0,0,response3disk,,5,3,13,1,0,0,rectangle,110,60,1,0,0,-7,-9,1,0,0,1,130,290,159,1,,response1disk_3,TRUE,6,6,"[100,296,88,15,86,310,181,143,291,13,158,270,104,276,251,68,268,244,107,234]",1.8497,rectangle
,,,,,,,,,,,,,FF,,,,,,,,2.9343,,,,,,,,,,,,,,,,,,,,,,60f8d449cbfb4e157c2d7c09,61037705ffc2a1abcda5b116,2021-07-29_22h56.38.561,Simcolourproject_2stim_asymm_v5,2020.2.10,Win32,60,61025ae37ef11b136ea224fe,,,,,,,,,2956,73,-55,1,0,0,response3disk,,5,-21,-14,1,0,0,rectangle,-21,-14,1,0,0,-21,-14,1,0,0,1,131,291,76,1,,,,,,,,
,,,,,,,,,,,,,FF,,,,,,,,0.917,,,,,,,,,,,,,,,,,,,,,,60f8d449cbfb4e157c2d7c09,61037705ffc2a1abcda5b116,2021-07-29_22h56.38.561,Simcolourproject_2stim_asymm_v5,2020.2.10,Win32,60,61025ae37ef11b136ea224fe,,,,,,,,,357,101,28,1,0,0,response1disk,,6,-17,-7,1,0,0,rectangle,-17,-7,1,0,0,-17,-7,1,0,0,1,132,292,90,1,,,,,,,,
,,,,,,,,,,,,,FF,,,,,,,,0.7666,,,,,,,,,,,,,,,,,,,,,,60f8d449cbfb4e157c2d7c09,61037705ffc2a1abcda5b116,2021-07-29_22h56.38.561,Simcolourproject_2stim_asymm_v5,2020.2.10,Win32,60,61025ae37ef11b136ea224fe,,,,,,,,,4210,73,29,1,0,0,response1disk,,6,-4,1,1,0,0,rectangle,-4,1,1,0,0,-4,1,1,0,0,1,133,293,140,1,,,,,,,,
,,,,,,,,,,,,,FF,,,,,,,,1.3667,,,,,,,,,,,,,,,,,,,,,,60f8d449cbfb4e157c2d7c09,61037705ffc2a1abcda5b116,2021-07-29_22h56.38.561,Simcolourproject_2stim_asymm_v5,2020.2.10,Win32,60,61025ae37ef11b136ea224fe,,,,,,,,,2870,80,-32,1,0,0,response3disk,,5,31,5,1,0,0,rectangle,31,5,1,0,0,31,5,1,0,0,1,134,294,118,1,,,,,,,,
,,,,,,,,,,,,,FF,,,,,,,,2.1841,,,,,,,,,,,,,,,,,,,,,,60f8d449cbfb4e157c2d7c09,61037705ffc2a1abcda5b116,2021-07-29_22h56.38.561,Simcolourproject_2stim_asymm_v5,2020.2.10,Win32,60,61025ae37ef11b136ea224fe,,,,,,,,,2219,31,-78,1,0,0,response3disk,,4,3,-21,1,0,0,rectangle,-120,-56,1,0,0,22,-21,1,0,0,1,135,295,81,1,,response5disk_3,TRUE,2,2,"[100,296,88,15,86,310,181,143,291,13,158,270,104,276,251,68,268,244,107,234]",1.2172,rectangle
,,,,,,,,,,,,,FF,,,,,,,,2.1841,,,,,,,,,,,,,,,,,,,,,,60f8d449cbfb4e157c2d7c09,61037705ffc2a1abcda5b116,2021-07-29_22h56.38.561,Simcolourproject_2stim_asymm_v5,2020.2.10,Win32,60,61025ae37ef11b136ea224fe,,,,,,,,,4367,-83,45,1,0,0,response7disk,,1,-6,-16,1,0,0,rectangle,-6,-16,1,0,0,-6,-16,1,0,0,1,136,296,92,1,,,,,,,,
,,,,,,,,,,,,,FF,,,,,,,,0.767,,,,,,,,,,,,,,,,,,,,,,60f8d449cbfb4e157c2d7c09,61037705ffc2a1abcda5b116,2021-07-29_22h56.38.561,Simcolourproject_2stim_asymm_v5,2020.2.10,Win32,60,61025ae37ef11b136ea224fe,,,,,,,,,2544,29,-65,1,0,0,response3disk,,4,-11,0,1,0,0,rectangle,-11,0,1,0,0,-11,0,1,0,0,1,137,297,8,1,,,,,,,,
,,,,,,,,,,,,,FF,,,,,,,,0.7327,,,,,,,,,,,,,,,,,,,,,,60f8d449cbfb4e157c2d7c09,61037705ffc2a1abcda5b116,2021-07-29_22h56.38.561,Simcolourproject_2stim_asymm_v5,2020.2.10,Win32,60,61025ae37ef11b136ea224fe,,,,,,,,,2180,-43,-62,1,0,0,response5disk,,3,-23,-10,1,0,0,rectangle,-23,-10,1,0,0,-23,-10,1,0,0,1,138,298,68,1,,,,,,,,
,,,,,,,,,,,,,FF,,,,,,,,1.2004,,,,,,,,,,,,,,,,,,,,,,60f8d449cbfb4e157c2d7c09,61037705ffc2a1abcda5b116,2021-07-29_22h56.38.561,Simcolourproject_2stim_asymm_v5,2020.2.10,Win32,60,61025ae37ef11b136ea224fe,,,,,,,,,302,65,-42,1,0,0,response3disk,,5,15,0,1,0,0,rectangle,15,0,1,0,0,15,0,1,0,0,1,139,299,69,1,,,,,,,,
,,,,,,,,,,,,,FF,,,,,,,,3.0671,,,,,,,,,,,,,,,,,,,,,,60f8d449cbfb4e157c2d7c09,61037705ffc2a1abcda5b116,2021-07-29_22h56.38.561,Simcolourproject_2stim_asymm_v5,2020.2.10,Win32,60,61025ae37ef11b136ea224fe,,,,,,,,,1166,-38,-83,1,0,0,response5disk,,3,-19,-8,1,0,0,rectangle,-19,-8,1,0,0,-19,-8,1,0,0,1,140,300,91,1,,,,,,,,
