key_resp.keys,key_resp.rt,key_resp_14.keys,key_resp_14.rt,key_resp_15.keys,key_resp_15.rt,key_resp_17.keys,key_resp_17.rt,key_resp_9.keys,key_resp_9.rt,key_resp_10.keys,key_resp_10.rt,practice_comparison,Ecc,mouse_5.x,mouse_5.y,mouse_5.leftButton,mouse_5.midButton,mouse_5.rightButton,mouse_5.clicked_name,pracsimilarity,response_time,mouse_10.x,mouse_10.y,mouse_10.leftButton,mouse_10.midButton,mouse_10.rightButton,mouse_10.clicked_name,mouse_7.x,mouse_7.y,mouse_7.leftButton,mouse_7.midButton,mouse_7.rightButton,mouse_6.x,mouse_6.y,mouse_6.leftButton,mouse_6.midButton,mouse_6.rightButton,duringprac.thisRepN,duringprac.thisTrialN,duringprac.thisN,duringprac.thisIndex,duringprac.ran,participant,session,date,expName,psychopyVersion,OS,frameRate,study_id,mouse_7.clicked_name,catchpracsimilarity,catch_response_time,catchnumberprac,catchtrialorderprac,mouse_6.clicked_name,key_resp_22.keys,key_resp_22.rt,realcomparison,mouse.x,mouse.y,mouse.leftButton,mouse.midButton,mouse.rightButton,mouse.clicked_name,Colour2,similarity,mouse_2.x,mouse_2.y,mouse_2.leftButton,mouse_2.midButton,mouse_2.rightButton,mouse_2.clicked_name,mouse_3.x,mouse_3.y,mouse_3.leftButton,mouse_3.midButton,mouse_3.rightButton,mouse_11.x,mouse_11.y,mouse_11.leftButton,mouse_11.midButton,mouse_11.rightButton,trials_2.thisRepN,trials_2.thisTrialN,trials_2.thisN,trials_2.thisIndex,trials_2.ran,Colour1,mouse_3.clicked_name,catchornah,catchsimilarity,catchnumber,catchtrialorder,catchRT,mouse_11.clicked_name
space,27.8102,space,34.5325,space,25.3437,space,16.9342,space,4.2904,space,4.1503,48,FF,57,112,1,0,0,response1disk_5,7,5.0519,-9,-1,1,0,0,rectangle_8,-9,-1,1,0,0,-9,-1,1,0,0,0,0,0,5,1,60f974cd86441b6d038c484f,61036ed1db302659b0568e66,2021-07-30_00h16.36.359,Simcolourproject_2stim_asymm_v5,2020.2.10,Win32,60,61025ae37ef11b136ea224fe,,,,,,,,,,,,,,,,,,,,,,,,,,,,,,,,,,,,,,,,,,,,,,
,,,,,,,,,,,,71,PF,117,49,1,0,0,response1disk_5,6,6.7167,15,11,1,0,0,rectangle_8,49,-139,1,0,0,-11,-7,1,0,0,0,1,1,4,1,60f974cd86441b6d038c484f,61036ed1db302659b0568e66,2021-07-30_00h16.36.359,Simcolourproject_2stim_asymm_v5,2020.2.10,Win32,60,61025ae37ef11b136ea224fe,response3disk_7,4,4.134,4,"[2,5]",rectangle_4,,,,,,,,,,,,,,,,,,,,,,,,,,,,,,,,,,,,,,,,
,,,,,,,,,,,,28,PF,99,39,1,0,0,response1disk_5,6,4.3176,9,-12,1,0,0,rectangle_8,9,-12,1,0,0,9,-12,1,0,0,0,2,2,6,1,60f974cd86441b6d038c484f,61036ed1db302659b0568e66,2021-07-30_00h16.36.359,Simcolourproject_2stim_asymm_v5,2020.2.10,Win32,60,61025ae37ef11b136ea224fe,,,,,,,,,,,,,,,,,,,,,,,,,,,,,,,,,,,,,,,,,,,,,,
,,,,,,,,,,,,46,FF,-66,-107,1,0,0,response5disk_5,3,6.0497,-11,-5,1,0,0,rectangle_8,-11,-5,1,0,0,-11,-5,1,0,0,0,3,3,0,1,60f974cd86441b6d038c484f,61036ed1db302659b0568e66,2021-07-30_00h16.36.359,Simcolourproject_2stim_asymm_v5,2020.2.10,Win32,60,61025ae37ef11b136ea224fe,,,,,,,,,,,,,,,,,,,,,,,,,,,,,,,,,,,,,,,,,,,,,,
,,,,,,,,,,,,62,PF,114,-41,1,0,0,response3disk_5,5,3.6171,19,2,1,0,0,rectangle_8,58,-134,1,0,0,-4,-3,1,0,0,0,4,4,2,1,60f974cd86441b6d038c484f,61036ed1db302659b0568e66,2021-07-30_00h16.36.359,Simcolourproject_2stim_asymm_v5,2020.2.10,Win32,60,61025ae37ef11b136ea224fe,response3disk_7,4,1.783,4,"[2,5]",rectangle_4,,,,,,,,,,,,,,,,,,,,,,,,,,,,,,,,,,,,,,,,
,,,,,,,,,,,,11,PF,106,-67,1,0,0,response3disk_5,5,4.8499,8,-8,1,0,0,rectangle_8,8,-8,1,0,0,8,-8,1,0,0,0,5,5,1,1,60f974cd86441b6d038c484f,61036ed1db302659b0568e66,2021-07-30_00h16.36.359,Simcolourproject_2stim_asymm_v5,2020.2.10,Win32,60,61025ae37ef11b136ea224fe,,,,,,,,,,,,,,,,,,,,,,,,,,,,,,,,,,,,,,,,,,,,,,
,,,,,,,,,,,,91,FF,96,45,1,0,0,response1disk_5,6,3.4832,-5,-16,1,0,0,rectangle_8,-5,-16,1,0,0,-5,-16,1,0,0,0,6,6,3,1,60f974cd86441b6d038c484f,61036ed1db302659b0568e66,2021-07-30_00h16.36.359,Simcolourproject_2stim_asymm_v5,2020.2.10,Win32,60,61025ae37ef11b136ea224fe,,,,,,,,,,,,,,,,,,,,,,,,,,,,,,,,,,,,,,,,,,,,,,
,,,,,,,,,,,,,FF,,,,,,,,7.6335,,,,,,,,,,,,,,,,,,,,,,60f974cd86441b6d038c484f,61036ed1db302659b0568e66,2021-07-30_00h16.36.359,Simcolourproject_2stim_asymm_v5,2020.2.10,Win32,60,61025ae37ef11b136ea224fe,,,,,,,space,4.1597,4241,37,-144,1,0,0,response3disk,,4,-20,5,1,0,0,rectangle,-20,5,1,0,0,-20,5,1,0,0,0,0,0,64,1,,,,,,,,
,,,,,,,,,,,,,FF,,,,,,,,1.8835,,,,,,,,,,,,,,,,,,,,,,60f974cd86441b6d038c484f,61036ed1db302659b0568e66,2021-07-30_00h16.36.359,Simcolourproject_2stim_asymm_v5,2020.2.10,Win32,60,61025ae37ef11b136ea224fe,,,,,,,,,1015,116,42,1,0,0,response1disk,,6,0,-12,1,0,0,rectangle,0,-12,1,0,0,0,-12,1,0,0,0,1,1,23,1,,,,,,,,
,,,,,,,,,,,,,FF,,,,,,,,2.0848,,,,,,,,,,,,,,,,,,,,,,60f974cd86441b6d038c484f,61036ed1db302659b0568e66,2021-07-30_00h16.36.359,Simcolourproject_2stim_asymm_v5,2020.2.10,Win32,60,61025ae37ef11b136ea224fe,,,,,,,,,820,56,-109,1,0,0,response3disk,,4,6,-8,1,0,0,rectangle,6,-8,1,0,0,6,-8,1,0,0,0,2,2,69,1,,,,,,,,
,,,,,,,,,,,,,FF,,,,,,,,2.4504,,,,,,,,,,,,,,,,,,,,,,60f974cd86441b6d038c484f,61036ed1db302659b0568e66,2021-07-30_00h16.36.359,Simcolourproject_2stim_asymm_v5,2020.2.10,Win32,60,61025ae37ef11b136ea224fe,,,,,,,,,4330,50,102,1,0,0,response1disk,,7,9,-9,1,0,0,rectangle,9,-9,1,0,0,9,-9,1,0,0,0,3,3,95,1,,,,,,,,
,,,,,,,,,,,,,FF,,,,,,,,1.633,,,,,,,,,,,,,,,,,,,,,,60f974cd86441b6d038c484f,61036ed1db302659b0568e66,2021-07-30_00h16.36.359,Simcolourproject_2stim_asymm_v5,2020.2.10,Win32,60,61025ae37ef11b136ea224fe,,,,,,,,,2171,-28,-92,1,0,0,response5disk,,3,5,4,1,0,0,rectangle,5,4,1,0,0,5,4,1,0,0,0,4,4,8,1,,,,,,,,
,,,,,,,,,,,,,FF,,,,,,,,3.1498,,,,,,,,,,,,,,,,,,,,,,60f974cd86441b6d038c484f,61036ed1db302659b0568e66,2021-07-30_00h16.36.359,Simcolourproject_2stim_asymm_v5,2020.2.10,Win32,60,61025ae37ef11b136ea224fe,,,,,,,,,3469,-119,-34,1,0,0,response5disk,,2,2,-5,1,0,0,rectangle,2,-5,1,0,0,2,-5,1,0,0,0,5,5,103,1,,,,,,,,
,,,,,,,,,,,,,FF,,,,,,,,1.8332,,,,,,,,,,,,,,,,,,,,,,60f974cd86441b6d038c484f,61036ed1db302659b0568e66,2021-07-30_00h16.36.359,Simcolourproject_2stim_asymm_v5,2020.2.10,Win32,60,61025ae37ef11b136ea224fe,,,,,,,,,1703,96,-78,1,0,0,response3disk,,5,-16,4,1,0,0,rectangle,-39,-116,1,0,0,-26,-8,1,0,0,0,6,6,74,1,,response5disk_3,TRUE,3,3,"[279,175,183,161,150,129,222,281,171,253,124,304,7,283,154,47,285,235,11,92]",1.9005,rectangle
,,,,,,,,,,,,,FF,,,,,,,,2.8499,,,,,,,,,,,,,,,,,,,,,,60f974cd86441b6d038c484f,61036ed1db302659b0568e66,2021-07-30_00h16.36.359,Simcolourproject_2stim_asymm_v5,2020.2.10,Win32,60,61025ae37ef11b136ea224fe,,,,,,,,,3892,110,-88,1,0,0,response3disk,,5,-15,3,1,0,0,rectangle,-15,3,1,0,0,-15,3,1,0,0,0,7,7,150,1,,,,,,,,
,,,,,,,,,,,,,FF,,,,,,,,2.4168,,,,,,,,,,,,,,,,,,,,,,60f974cd86441b6d038c484f,61036ed1db302659b0568e66,2021-07-30_00h16.36.359,Simcolourproject_2stim_asymm_v5,2020.2.10,Win32,60,61025ae37ef11b136ea224fe,,,,,,,,,2542,-114,-61,1,0,0,response5disk,,2,-14,-1,1,0,0,rectangle,-14,-1,1,0,0,-14,-1,1,0,0,0,8,8,101,1,,,,,,,,
,,,,,,,,,,,,,FF,,,,,,,,2.1177,,,,,,,,,,,,,,,,,,,,,,60f974cd86441b6d038c484f,61036ed1db302659b0568e66,2021-07-30_00h16.36.359,Simcolourproject_2stim_asymm_v5,2020.2.10,Win32,60,61025ae37ef11b136ea224fe,,,,,,,,,1476,103,-60,1,0,0,response3disk,,5,-16,-8,1,0,0,rectangle,-16,-8,1,0,0,-16,-8,1,0,0,0,9,9,105,1,,,,,,,,
,,,,,,,,,,,,,FF,,,,,,,,3.1344,,,,,,,,,,,,,,,,,,,,,,60f974cd86441b6d038c484f,61036ed1db302659b0568e66,2021-07-30_00h16.36.359,Simcolourproject_2stim_asymm_v5,2020.2.10,Win32,60,61025ae37ef11b136ea224fe,,,,,,,,,2700,49,127,1,0,0,response1disk,,7,-3,4,1,0,0,rectangle,49,133,1,0,0,1,-13,1,0,0,0,10,10,39,1,,response1disk_3,TRUE,7,7,"[279,175,183,161,150,129,222,281,171,253,124,304,7,283,154,47,285,235,11,92]",1.9496,rectangle
,,,,,,,,,,,,,FF,,,,,,,,1.5667,,,,,,,,,,,,,,,,,,,,,,60f974cd86441b6d038c484f,61036ed1db302659b0568e66,2021-07-30_00h16.36.359,Simcolourproject_2stim_asymm_v5,2020.2.10,Win32,60,61025ae37ef11b136ea224fe,,,,,,,,,403,145,36,1,0,0,response1disk,,6,-15,-11,1,0,0,rectangle,-15,-11,1,0,0,-15,-11,1,0,0,0,11,11,0,1,,,,,,,,
,,,,,,,,,,,,,FF,,,,,,,,1.4499,,,,,,,,,,,,,,,,,,,,,,60f974cd86441b6d038c484f,61036ed1db302659b0568e66,2021-07-30_00h16.36.359,Simcolourproject_2stim_asymm_v5,2020.2.10,Win32,60,61025ae37ef11b136ea224fe,,,,,,,,,3175,113,45,1,0,0,response1disk,,6,-27,3,1,0,0,rectangle,-27,3,1,0,0,-27,3,1,0,0,0,12,12,28,1,,,,,,,,
,,,,,,,,,,,,,FF,,,,,,,,4.1001,,,,,,,,,,,,,,,,,,,,,,60f974cd86441b6d038c484f,61036ed1db302659b0568e66,2021-07-30_00h16.36.359,Simcolourproject_2stim_asymm_v5,2020.2.10,Win32,60,61025ae37ef11b136ea224fe,,,,,,,,,698,-40,-134,1,0,0,response5disk,,3,-11,-10,1,0,0,rectangle,-11,-10,1,0,0,-11,-10,1,0,0,0,13,13,134,1,,,,,,,,
,,,,,,,,,,,,,FF,,,,,,,,1.2336,,,,,,,,,,,,,,,,,,,,,,60f974cd86441b6d038c484f,61036ed1db302659b0568e66,2021-07-30_00h16.36.359,Simcolourproject_2stim_asymm_v5,2020.2.10,Win32,60,61025ae37ef11b136ea224fe,,,,,,,,,1095,104,50,1,0,0,response1disk,,6,-13,8,1,0,0,rectangle,-13,8,1,0,0,-13,8,1,0,0,0,14,14,126,1,,,,,,,,
,,,,,,,,,,,,,FF,,,,,,,,1.917,,,,,,,,,,,,,,,,,,,,,,60f974cd86441b6d038c484f,61036ed1db302659b0568e66,2021-07-30_00h16.36.359,Simcolourproject_2stim_asymm_v5,2020.2.10,Win32,60,61025ae37ef11b136ea224fe,,,,,,,,,3244,-110,-54,1,0,0,response5disk,,2,-8,19,1,0,0,rectangle,-8,19,1,0,0,-8,19,1,0,0,0,15,15,85,1,,,,,,,,
,,,,,,,,,,,,,FF,,,,,,,,1.833,,,,,,,,,,,,,,,,,,,,,,60f974cd86441b6d038c484f,61036ed1db302659b0568e66,2021-07-30_00h16.36.359,Simcolourproject_2stim_asymm_v5,2020.2.10,Win32,60,61025ae37ef11b136ea224fe,,,,,,,,,1396,137,41,1,0,0,response1disk,,6,33,-10,1,0,0,rectangle,33,-10,1,0,0,33,-10,1,0,0,0,16,16,37,1,,,,,,,,
,,,,,,,,,,,,,FF,,,,,,,,1.4836,,,,,,,,,,,,,,,,,,,,,,60f974cd86441b6d038c484f,61036ed1db302659b0568e66,2021-07-30_00h16.36.359,Simcolourproject_2stim_asymm_v5,2020.2.10,Win32,60,61025ae37ef11b136ea224fe,,,,,,,,,538,100,36,1,0,0,response1disk,,6,1,6,1,0,0,rectangle,1,6,1,0,0,1,6,1,0,0,0,17,17,143,1,,,,,,,,
,,,,,,,,,,,,,FF,,,,,,,,1.2999,,,,,,,,,,,,,,,,,,,,,,60f974cd86441b6d038c484f,61036ed1db302659b0568e66,2021-07-30_00h16.36.359,Simcolourproject_2stim_asymm_v5,2020.2.10,Win32,60,61025ae37ef11b136ea224fe,,,,,,,,,3414,118,45,1,0,0,response1disk,,6,-1,4,1,0,0,rectangle,-1,4,1,0,0,-1,4,1,0,0,0,18,18,9,1,,,,,,,,
,,,,,,,,,,,,,FF,,,,,,,,2.1671,,,,,,,,,,,,,,,,,,,,,,60f974cd86441b6d038c484f,61036ed1db302659b0568e66,2021-07-30_00h16.36.359,Simcolourproject_2stim_asymm_v5,2020.2.10,Win32,60,61025ae37ef11b136ea224fe,,,,,,,,,1316,-54,-79,1,0,0,response5disk,,3,6,6,1,0,0,rectangle,6,6,1,0,0,6,6,1,0,0,0,19,19,128,1,,,,,,,,
,,,,,,,,,,,,,FF,,,,,,,,1.7838,,,,,,,,,,,,,,,,,,,,,,60f974cd86441b6d038c484f,61036ed1db302659b0568e66,2021-07-30_00h16.36.359,Simcolourproject_2stim_asymm_v5,2020.2.10,Win32,60,61025ae37ef11b136ea224fe,,,,,,,,,1801,127,37,1,0,0,response1disk,,6,-10,4,1,0,0,rectangle,-10,4,1,0,0,-10,4,1,0,0,0,20,20,63,1,,,,,,,,
,,,,,,,,,,,,,FF,,,,,,,,1.0331,,,,,,,,,,,,,,,,,,,,,,60f974cd86441b6d038c484f,61036ed1db302659b0568e66,2021-07-30_00h16.36.359,Simcolourproject_2stim_asymm_v5,2020.2.10,Win32,60,61025ae37ef11b136ea224fe,,,,,,,,,3141,-85,-53,1,0,0,response5disk,,2,13,1,1,0,0,rectangle,13,1,1,0,0,13,1,1,0,0,0,21,21,80,1,,,,,,,,
,,,,,,,,,,,,,FF,,,,,,,,1.6002,,,,,,,,,,,,,,,,,,,,,,60f974cd86441b6d038c484f,61036ed1db302659b0568e66,2021-07-30_00h16.36.359,Simcolourproject_2stim_asymm_v5,2020.2.10,Win32,60,61025ae37ef11b136ea224fe,,,,,,,,,1894,-92,-45,1,0,0,response5disk,,2,22,1,1,0,0,rectangle,22,1,1,0,0,22,1,1,0,0,0,22,22,127,1,,,,,,,,
,,,,,,,,,,,,,FF,,,,,,,,1.8835,,,,,,,,,,,,,,,,,,,,,,60f974cd86441b6d038c484f,61036ed1db302659b0568e66,2021-07-30_00h16.36.359,Simcolourproject_2stim_asymm_v5,2020.2.10,Win32,60,61025ae37ef11b136ea224fe,,,,,,,,,119,137,26,1,0,0,response1disk,,6,3,2,1,0,0,rectangle,3,2,1,0,0,3,2,1,0,0,0,23,23,11,1,,,,,,,,
,,,,,,,,,,,,,FF,,,,,,,,1.767,,,,,,,,,,,,,,,,,,,,,,60f974cd86441b6d038c484f,61036ed1db302659b0568e66,2021-07-30_00h16.36.359,Simcolourproject_2stim_asymm_v5,2020.2.10,Win32,60,61025ae37ef11b136ea224fe,,,,,,,,,4353,-107,-42,1,0,0,response5disk,,2,13,-10,1,0,0,rectangle,13,-10,1,0,0,13,-10,1,0,0,0,24,24,65,1,,,,,,,,
,,,,,,,,,,,,,FF,,,,,,,,3.1331,,,,,,,,,,,,,,,,,,,,,,60f974cd86441b6d038c484f,61036ed1db302659b0568e66,2021-07-30_00h16.36.359,Simcolourproject_2stim_asymm_v5,2020.2.10,Win32,60,61025ae37ef11b136ea224fe,,,,,,,,,534,63,88,1,0,0,response1disk,,7,17,1,1,0,0,rectangle,17,1,1,0,0,17,1,1,0,0,0,25,25,76,1,,,,,,,,
,,,,,,,,,,,,,FF,,,,,,,,1.2664,,,,,,,,,,,,,,,,,,,,,,60f974cd86441b6d038c484f,61036ed1db302659b0568e66,2021-07-30_00h16.36.359,Simcolourproject_2stim_asymm_v5,2020.2.10,Win32,60,61025ae37ef11b136ea224fe,,,,,,,,,3140,-49,-82,1,0,0,response5disk,,3,17,-5,1,0,0,rectangle,17,-5,1,0,0,17,-5,1,0,0,0,26,26,6,1,,,,,,,,
,,,,,,,,,,,,,FF,,,,,,,,2.0997,,,,,,,,,,,,,,,,,,,,,,60f974cd86441b6d038c484f,61036ed1db302659b0568e66,2021-07-30_00h16.36.359,Simcolourproject_2stim_asymm_v5,2020.2.10,Win32,60,61025ae37ef11b136ea224fe,,,,,,,,,1144,-41,-77,1,0,0,response5disk,,3,-8,3,1,0,0,rectangle,-8,3,1,0,0,-8,3,1,0,0,0,27,27,100,1,,,,,,,,
,,,,,,,,,,,,,FF,,,,,,,,1.9511,,,,,,,,,,,,,,,,,,,,,,60f974cd86441b6d038c484f,61036ed1db302659b0568e66,2021-07-30_00h16.36.359,Simcolourproject_2stim_asymm_v5,2020.2.10,Win32,60,61025ae37ef11b136ea224fe,,,,,,,,,697,144,57,1,0,0,response1disk,,6,-6,16,1,0,0,rectangle,-6,16,1,0,0,-6,16,1,0,0,0,28,28,102,1,,,,,,,,
,,,,,,,,,,,,,FF,,,,,,,,2.0507,,,,,,,,,,,,,,,,,,,,,,60f974cd86441b6d038c484f,61036ed1db302659b0568e66,2021-07-30_00h16.36.359,Simcolourproject_2stim_asymm_v5,2020.2.10,Win32,60,61025ae37ef11b136ea224fe,,,,,,,,,3623,-56,-86,1,0,0,response5disk,,3,-31,-5,1,0,0,rectangle,-31,-5,1,0,0,-31,-5,1,0,0,0,29,29,89,1,,,,,,,,
,,,,,,,,,,,,,FF,,,,,,,,2.2498,,,,,,,,,,,,,,,,,,,,,,60f974cd86441b6d038c484f,61036ed1db302659b0568e66,2021-07-30_00h16.36.359,Simcolourproject_2stim_asymm_v5,2020.2.10,Win32,60,61025ae37ef11b136ea224fe,,,,,,,,,2129,62,97,1,0,0,response1disk,,7,-8,11,1,0,0,rectangle,-8,11,1,0,0,-8,11,1,0,0,0,30,30,142,1,,,,,,,,
,,,,,,,,,,,,,FF,,,,,,,,1.7673,,,,,,,,,,,,,,,,,,,,,,60f974cd86441b6d038c484f,61036ed1db302659b0568e66,2021-07-30_00h16.36.359,Simcolourproject_2stim_asymm_v5,2020.2.10,Win32,60,61025ae37ef11b136ea224fe,,,,,,,,,1043,42,-82,1,0,0,response3disk,,4,21,-9,1,0,0,rectangle,21,-9,1,0,0,21,-9,1,0,0,0,31,31,83,1,,,,,,,,
,,,,,,,,,,,,,FF,,,,,,,,2.8004,,,,,,,,,,,,,,,,,,,,,,60f974cd86441b6d038c484f,61036ed1db302659b0568e66,2021-07-30_00h16.36.359,Simcolourproject_2stim_asymm_v5,2020.2.10,Win32,60,61025ae37ef11b136ea224fe,,,,,,,,,4170,-53,-105,1,0,0,response5disk,,3,16,0,1,0,0,rectangle,16,0,1,0,0,16,0,1,0,0,0,32,32,133,1,,,,,,,,
,,,,,,,,,,,,,FF,,,,,,,,4.2992,,,,,,,,,,,,,,,,,,,,,,60f974cd86441b6d038c484f,61036ed1db302659b0568e66,2021-07-30_00h16.36.359,Simcolourproject_2stim_asymm_v5,2020.2.10,Win32,60,61025ae37ef11b136ea224fe,,,,,,,,,4198,90,-39,1,0,0,response3disk,,5,7,-9,1,0,0,rectangle,7,-9,1,0,0,7,-9,1,0,0,0,33,33,26,1,,,,,,,,
,,,,,,,,,,,,,FF,,,,,,,,2.9,,,,,,,,,,,,,,,,,,,,,,60f974cd86441b6d038c484f,61036ed1db302659b0568e66,2021-07-30_00h16.36.359,Simcolourproject_2stim_asymm_v5,2020.2.10,Win32,60,61025ae37ef11b136ea224fe,,,,,,,,,413,133,35,1,0,0,response1disk,,6,29,-11,1,0,0,rectangle,29,-11,1,0,0,29,-11,1,0,0,0,34,34,159,1,,,,,,,,
,,,,,,,,,,,,,FF,,,,,,,,1.2,,,,,,,,,,,,,,,,,,,,,,60f974cd86441b6d038c484f,61036ed1db302659b0568e66,2021-07-30_00h16.36.359,Simcolourproject_2stim_asymm_v5,2020.2.10,Win32,60,61025ae37ef11b136ea224fe,,,,,,,,,1079,89,39,1,0,0,response1disk,,6,-8,-7,1,0,0,rectangle,-8,-7,1,0,0,-8,-7,1,0,0,0,35,35,17,1,,,,,,,,
,,,,,,,,,,,,,FF,,,,,,,,1.3005,,,,,,,,,,,,,,,,,,,,,,60f974cd86441b6d038c484f,61036ed1db302659b0568e66,2021-07-30_00h16.36.359,Simcolourproject_2stim_asymm_v5,2020.2.10,Win32,60,61025ae37ef11b136ea224fe,,,,,,,,,2331,86,37,1,0,0,response1disk,,6,21,-2,1,0,0,rectangle,21,-2,1,0,0,21,-2,1,0,0,0,36,36,122,1,,,,,,,,
,,,,,,,,,,,,,FF,,,,,,,,2.1666,,,,,,,,,,,,,,,,,,,,,,60f974cd86441b6d038c484f,61036ed1db302659b0568e66,2021-07-30_00h16.36.359,Simcolourproject_2stim_asymm_v5,2020.2.10,Win32,60,61025ae37ef11b136ea224fe,,,,,,,,,196,56,-129,1,0,0,response3disk,,4,11,-2,1,0,0,rectangle,11,-2,1,0,0,11,-2,1,0,0,0,37,37,139,1,,,,,,,,
,,,,,,,,,,,,,FF,,,,,,,,0.8665,,,,,,,,,,,,,,,,,,,,,,60f974cd86441b6d038c484f,61036ed1db302659b0568e66,2021-07-30_00h16.36.359,Simcolourproject_2stim_asymm_v5,2020.2.10,Win32,60,61025ae37ef11b136ea224fe,,,,,,,,,2827,-36,-87,1,0,0,response5disk,,3,7,14,1,0,0,rectangle,7,14,1,0,0,7,14,1,0,0,0,38,38,59,1,,,,,,,,
,,,,,,,,,,,,,FF,,,,,,,,1.7001,,,,,,,,,,,,,,,,,,,,,,60f974cd86441b6d038c484f,61036ed1db302659b0568e66,2021-07-30_00h16.36.359,Simcolourproject_2stim_asymm_v5,2020.2.10,Win32,60,61025ae37ef11b136ea224fe,,,,,,,,,3471,-50,-81,1,0,0,response5disk,,3,-24,-6,1,0,0,rectangle,-24,-6,1,0,0,-24,-6,1,0,0,0,39,39,120,1,,,,,,,,
,,,,,,,,,,,,,FF,,,,,,,,1.6832,,,,,,,,,,,,,,,,,,,,,,60f974cd86441b6d038c484f,61036ed1db302659b0568e66,2021-07-30_00h16.36.359,Simcolourproject_2stim_asymm_v5,2020.2.10,Win32,60,61025ae37ef11b136ea224fe,,,,,,,,,1567,130,30,1,0,0,response1disk,,6,-4,-15,1,0,0,rectangle,-4,-15,1,0,0,-4,-15,1,0,0,0,40,40,51,1,,,,,,,,
,,,,,,,,,,,,,FF,,,,,,,,3.0834,,,,,,,,,,,,,,,,,,,,,,60f974cd86441b6d038c484f,61036ed1db302659b0568e66,2021-07-30_00h16.36.359,Simcolourproject_2stim_asymm_v5,2020.2.10,Win32,60,61025ae37ef11b136ea224fe,,,,,,,,,948,59,-92,1,0,0,response3disk,,4,-8,-9,1,0,0,rectangle,-8,-9,1,0,0,-8,-9,1,0,0,0,41,41,12,1,,,,,,,,
,,,,,,,,,,,,,FF,,,,,,,,2.167,,,,,,,,,,,,,,,,,,,,,,60f974cd86441b6d038c484f,61036ed1db302659b0568e66,2021-07-30_00h16.36.359,Simcolourproject_2stim_asymm_v5,2020.2.10,Win32,60,61025ae37ef11b136ea224fe,,,,,,,,,3707,-131,50,1,0,0,response7disk,,1,27,0,1,0,0,rectangle,27,0,1,0,0,27,0,1,0,0,0,42,42,13,1,,,,,,,,
,,,,,,,,,,,,,FF,,,,,,,,2.5669,,,,,,,,,,,,,,,,,,,,,,60f974cd86441b6d038c484f,61036ed1db302659b0568e66,2021-07-30_00h16.36.359,Simcolourproject_2stim_asymm_v5,2020.2.10,Win32,60,61025ae37ef11b136ea224fe,,,,,,,,,2311,114,37,1,0,0,response1disk,,6,20,1,1,0,0,rectangle,20,1,1,0,0,20,1,1,0,0,0,43,43,4,1,,,,,,,,
,,,,,,,,,,,,,FF,,,,,,,,1.7,,,,,,,,,,,,,,,,,,,,,,60f974cd86441b6d038c484f,61036ed1db302659b0568e66,2021-07-30_00h16.36.359,Simcolourproject_2stim_asymm_v5,2020.2.10,Win32,60,61025ae37ef11b136ea224fe,,,,,,,,,3207,56,126,1,0,0,response1disk,,7,-5,15,1,0,0,rectangle,-5,15,1,0,0,-5,15,1,0,0,0,44,44,92,1,,,,,,,,
,,,,,,,,,,,,,FF,,,,,,,,1.3337,,,,,,,,,,,,,,,,,,,,,,60f974cd86441b6d038c484f,61036ed1db302659b0568e66,2021-07-30_00h16.36.359,Simcolourproject_2stim_asymm_v5,2020.2.10,Win32,60,61025ae37ef11b136ea224fe,,,,,,,,,2383,64,90,1,0,0,response1disk,,7,14,-4,1,0,0,rectangle,14,-4,1,0,0,14,-4,1,0,0,0,45,45,84,1,,,,,,,,
,,,,,,,,,,,,,FF,,,,,,,,1.6003,,,,,,,,,,,,,,,,,,,,,,60f974cd86441b6d038c484f,61036ed1db302659b0568e66,2021-07-30_00h16.36.359,Simcolourproject_2stim_asymm_v5,2020.2.10,Win32,60,61025ae37ef11b136ea224fe,,,,,,,,,7,-54,-115,1,0,0,response5disk,,3,-7,-5,1,0,0,rectangle,158,-55,1,0,0,2,-9,1,0,0,0,46,46,151,1,,response3disk_3,TRUE,5,5,"[279,175,183,161,150,129,222,281,171,253,124,304,7,283,154,47,285,235,11,92]",1.5332,rectangle
,,,,,,,,,,,,,FF,,,,,,,,1.0999,,,,,,,,,,,,,,,,,,,,,,60f974cd86441b6d038c484f,61036ed1db302659b0568e66,2021-07-30_00h16.36.359,Simcolourproject_2stim_asymm_v5,2020.2.10,Win32,60,61025ae37ef11b136ea224fe,,,,,,,,,718,-44,-87,1,0,0,response5disk,,3,-9,-5,1,0,0,rectangle,-9,-5,1,0,0,-9,-5,1,0,0,0,47,47,47,1,,,,,,,,
,,,,,,,,,,,,,FF,,,,,,,,1.4662,,,,,,,,,,,,,,,,,,,,,,60f974cd86441b6d038c484f,61036ed1db302659b0568e66,2021-07-30_00h16.36.359,Simcolourproject_2stim_asymm_v5,2020.2.10,Win32,60,61025ae37ef11b136ea224fe,,,,,,,,,3323,125,73,1,0,0,response1disk,,6,18,-5,1,0,0,rectangle,18,-5,1,0,0,18,-5,1,0,0,0,48,48,25,1,,,,,,,,
,,,,,,,,,,,,,FF,,,,,,,,1.2827,,,,,,,,,,,,,,,,,,,,,,60f974cd86441b6d038c484f,61036ed1db302659b0568e66,2021-07-30_00h16.36.359,Simcolourproject_2stim_asymm_v5,2020.2.10,Win32,60,61025ae37ef11b136ea224fe,,,,,,,,,10,-48,-94,1,0,0,response5disk,,3,5,4,1,0,0,rectangle,5,4,1,0,0,5,4,1,0,0,0,49,49,68,1,,,,,,,,
,,,,,,,,,,,,,FF,,,,,,,,1.7834,,,,,,,,,,,,,,,,,,,,,,60f974cd86441b6d038c484f,61036ed1db302659b0568e66,2021-07-30_00h16.36.359,Simcolourproject_2stim_asymm_v5,2020.2.10,Win32,60,61025ae37ef11b136ea224fe,,,,,,,,,2560,100,70,1,0,0,response1disk,,6,44,4,1,0,0,rectangle,44,4,1,0,0,44,4,1,0,0,0,50,50,43,1,,,,,,,,
,,,,,,,,,,,,,FF,,,,,,,,0.9498,,,,,,,,,,,,,,,,,,,,,,60f974cd86441b6d038c484f,61036ed1db302659b0568e66,2021-07-30_00h16.36.359,Simcolourproject_2stim_asymm_v5,2020.2.10,Win32,60,61025ae37ef11b136ea224fe,,,,,,,,,951,91,41,1,0,0,response1disk,,6,32,-4,1,0,0,rectangle,32,-4,1,0,0,32,-4,1,0,0,0,51,51,71,1,,,,,,,,
,,,,,,,,,,,,,FF,,,,,,,,0.9168,,,,,,,,,,,,,,,,,,,,,,60f974cd86441b6d038c484f,61036ed1db302659b0568e66,2021-07-30_00h16.36.359,Simcolourproject_2stim_asymm_v5,2020.2.10,Win32,60,61025ae37ef11b136ea224fe,,,,,,,,,2002,107,54,1,0,0,response1disk,,6,14,1,1,0,0,rectangle,14,1,1,0,0,14,1,1,0,0,0,52,52,61,1,,,,,,,,
,,,,,,,,,,,,,FF,,,,,,,,0.8167,,,,,,,,,,,,,,,,,,,,,,60f974cd86441b6d038c484f,61036ed1db302659b0568e66,2021-07-30_00h16.36.359,Simcolourproject_2stim_asymm_v5,2020.2.10,Win32,60,61025ae37ef11b136ea224fe,,,,,,,,,1246,53,107,1,0,0,response1disk,,7,18,15,1,0,0,rectangle,18,15,1,0,0,18,15,1,0,0,0,53,53,24,1,,,,,,,,
,,,,,,,,,,,,,FF,,,,,,,,1.7499,,,,,,,,,,,,,,,,,,,,,,60f974cd86441b6d038c484f,61036ed1db302659b0568e66,2021-07-30_00h16.36.359,Simcolourproject_2stim_asymm_v5,2020.2.10,Win32,60,61025ae37ef11b136ea224fe,,,,,,,,,984,-40,-115,1,0,0,response5disk,,3,4,3,1,0,0,rectangle,4,3,1,0,0,4,3,1,0,0,0,54,54,148,1,,,,,,,,
,,,,,,,,,,,,,FF,,,,,,,,1.7669,,,,,,,,,,,,,,,,,,,,,,60f974cd86441b6d038c484f,61036ed1db302659b0568e66,2021-07-30_00h16.36.359,Simcolourproject_2stim_asymm_v5,2020.2.10,Win32,60,61025ae37ef11b136ea224fe,,,,,,,,,785,44,-103,1,0,0,response3disk,,4,-12,-4,1,0,0,rectangle,-12,-4,1,0,0,-12,-4,1,0,0,0,55,55,70,1,,,,,,,,
,,,,,,,,,,,,,FF,,,,,,,,3.7668,,,,,,,,,,,,,,,,,,,,,,60f974cd86441b6d038c484f,61036ed1db302659b0568e66,2021-07-30_00h16.36.359,Simcolourproject_2stim_asymm_v5,2020.2.10,Win32,60,61025ae37ef11b136ea224fe,,,,,,,,,2582,153,67,1,0,0,response1disk,,6,35,-1,1,0,0,rectangle,35,-1,1,0,0,35,-1,1,0,0,0,56,56,141,1,,,,,,,,
,,,,,,,,,,,,,FF,,,,,,,,1.0999,,,,,,,,,,,,,,,,,,,,,,60f974cd86441b6d038c484f,61036ed1db302659b0568e66,2021-07-30_00h16.36.359,Simcolourproject_2stim_asymm_v5,2020.2.10,Win32,60,61025ae37ef11b136ea224fe,,,,,,,,,2260,66,118,1,0,0,response1disk,,7,25,2,1,0,0,rectangle,25,2,1,0,0,25,2,1,0,0,0,57,57,40,1,,,,,,,,
,,,,,,,,,,,,,FF,,,,,,,,1.4166,,,,,,,,,,,,,,,,,,,,,,60f974cd86441b6d038c484f,61036ed1db302659b0568e66,2021-07-30_00h16.36.359,Simcolourproject_2stim_asymm_v5,2020.2.10,Win32,60,61025ae37ef11b136ea224fe,,,,,,,,,4127,65,-115,1,0,0,response3disk,,4,-6,-10,1,0,0,rectangle,-6,-10,1,0,0,-6,-10,1,0,0,0,58,58,93,1,,,,,,,,
,,,,,,,,,,,,,FF,,,,,,,,5.3169,,,,,,,,,,,,,,,,,,,,,,60f974cd86441b6d038c484f,61036ed1db302659b0568e66,2021-07-30_00h16.36.359,Simcolourproject_2stim_asymm_v5,2020.2.10,Win32,60,61025ae37ef11b136ea224fe,,,,,,,,,58,79,-24,1,0,0,response3disk,,5,14,-6,1,0,0,rectangle,14,-6,1,0,0,14,-6,1,0,0,0,59,59,97,1,,,,,,,,
,,,,,,,,,,,,,FF,,,,,,,,2.6167,,,,,,,,,,,,,,,,,,,,,,60f974cd86441b6d038c484f,61036ed1db302659b0568e66,2021-07-30_00h16.36.359,Simcolourproject_2stim_asymm_v5,2020.2.10,Win32,60,61025ae37ef11b136ea224fe,,,,,,,,,2189,46,117,1,0,0,response1disk,,7,41,6,1,0,0,rectangle,41,6,1,0,0,41,6,1,0,0,0,60,60,140,1,,,,,,,,
,,,,,,,,,,,,,FF,,,,,,,,1.0335,,,,,,,,,,,,,,,,,,,,,,60f974cd86441b6d038c484f,61036ed1db302659b0568e66,2021-07-30_00h16.36.359,Simcolourproject_2stim_asymm_v5,2020.2.10,Win32,60,61025ae37ef11b136ea224fe,,,,,,,,,4313,46,132,1,0,0,response1disk,,7,-10,-1,1,0,0,rectangle,-10,-1,1,0,0,-10,-1,1,0,0,0,61,61,2,1,,,,,,,,
,,,,,,,,,,,,,FF,,,,,,,,1.7505,,,,,,,,,,,,,,,,,,,,,,60f974cd86441b6d038c484f,61036ed1db302659b0568e66,2021-07-30_00h16.36.359,Simcolourproject_2stim_asymm_v5,2020.2.10,Win32,60,61025ae37ef11b136ea224fe,,,,,,,,,3795,46,99,1,0,0,response1disk,,7,10,-11,1,0,0,rectangle,10,-11,1,0,0,10,-11,1,0,0,0,62,62,15,1,,,,,,,,
,,,,,,,,,,,,,FF,,,,,,,,1.4664,,,,,,,,,,,,,,,,,,,,,,60f974cd86441b6d038c484f,61036ed1db302659b0568e66,2021-07-30_00h16.36.359,Simcolourproject_2stim_asymm_v5,2020.2.10,Win32,60,61025ae37ef11b136ea224fe,,,,,,,,,2749,39,77,1,0,0,response1disk,,7,27,3,1,0,0,rectangle,27,3,1,0,0,27,3,1,0,0,0,63,63,119,1,,,,,,,,
,,,,,,,,,,,,,FF,,,,,,,,1.2334,,,,,,,,,,,,,,,,,,,,,,60f974cd86441b6d038c484f,61036ed1db302659b0568e66,2021-07-30_00h16.36.359,Simcolourproject_2stim_asymm_v5,2020.2.10,Win32,60,61025ae37ef11b136ea224fe,,,,,,,,,283,-36,-103,1,0,0,response5disk,,3,9,-1,1,0,0,rectangle,9,-1,1,0,0,9,-1,1,0,0,0,64,64,104,1,,,,,,,,
,,,,,,,,,,,,,FF,,,,,,,,1.2998,,,,,,,,,,,,,,,,,,,,,,60f974cd86441b6d038c484f,61036ed1db302659b0568e66,2021-07-30_00h16.36.359,Simcolourproject_2stim_asymm_v5,2020.2.10,Win32,60,61025ae37ef11b136ea224fe,,,,,,,,,4146,-106,-73,1,0,0,response5disk,,2,-36,-10,1,0,0,rectangle,-36,-10,1,0,0,-36,-10,1,0,0,0,65,65,125,1,,,,,,,,
,,,,,,,,,,,,,FF,,,,,,,,1.2499,,,,,,,,,,,,,,,,,,,,,,60f974cd86441b6d038c484f,61036ed1db302659b0568e66,2021-07-30_00h16.36.359,Simcolourproject_2stim_asymm_v5,2020.2.10,Win32,60,61025ae37ef11b136ea224fe,,,,,,,,,368,-45,-100,1,0,0,response5disk,,3,-3,-8,1,0,0,rectangle,-3,-8,1,0,0,-3,-8,1,0,0,0,66,66,42,1,,,,,,,,
,,,,,,,,,,,,,FF,,,,,,,,0.8508,,,,,,,,,,,,,,,,,,,,,,60f974cd86441b6d038c484f,61036ed1db302659b0568e66,2021-07-30_00h16.36.359,Simcolourproject_2stim_asymm_v5,2020.2.10,Win32,60,61025ae37ef11b136ea224fe,,,,,,,,,2900,-41,-93,1,0,0,response5disk,,3,-19,-6,1,0,0,rectangle,-19,-6,1,0,0,-19,-6,1,0,0,0,67,67,16,1,,,,,,,,
,,,,,,,,,,,,,FF,,,,,,,,2.1002,,,,,,,,,,,,,,,,,,,,,,60f974cd86441b6d038c484f,61036ed1db302659b0568e66,2021-07-30_00h16.36.359,Simcolourproject_2stim_asymm_v5,2020.2.10,Win32,60,61025ae37ef11b136ea224fe,,,,,,,,,4135,110,58,1,0,0,response1disk,,6,18,-1,1,0,0,rectangle,18,-1,1,0,0,18,-1,1,0,0,0,68,68,117,1,,,,,,,,
,,,,,,,,,,,,,FF,,,,,,,,1.1332,,,,,,,,,,,,,,,,,,,,,,60f974cd86441b6d038c484f,61036ed1db302659b0568e66,2021-07-30_00h16.36.359,Simcolourproject_2stim_asymm_v5,2020.2.10,Win32,60,61025ae37ef11b136ea224fe,,,,,,,,,1563,58,126,1,0,0,response1disk,,7,11,-4,1,0,0,rectangle,11,-4,1,0,0,11,-4,1,0,0,0,69,69,49,1,,,,,,,,
,,,,,,,,,,,,,FF,,,,,,,,0.4665,,,,,,,,,,,,,,,,,,,,,,60f974cd86441b6d038c484f,61036ed1db302659b0568e66,2021-07-30_00h16.36.359,Simcolourproject_2stim_asymm_v5,2020.2.10,Win32,60,61025ae37ef11b136ea224fe,,,,,,,,,1420,27,92,1,0,0,response1disk,,7,14,-12,1,0,0,rectangle,14,-12,1,0,0,14,-12,1,0,0,0,70,70,19,1,,,,,,,,
,,,,,,,,,,,,,FF,,,,,,,,1.1331,,,,,,,,,,,,,,,,,,,,,,60f974cd86441b6d038c484f,61036ed1db302659b0568e66,2021-07-30_00h16.36.359,Simcolourproject_2stim_asymm_v5,2020.2.10,Win32,60,61025ae37ef11b136ea224fe,,,,,,,,,880,50,146,1,0,0,response1disk,,7,12,-8,1,0,0,rectangle,12,-8,1,0,0,12,-8,1,0,0,0,71,71,132,1,,,,,,,,
,,,,,,,,,,,,,FF,,,,,,,,2.1853,,,,,,,,,,,,,,,,,,,,,,60f974cd86441b6d038c484f,61036ed1db302659b0568e66,2021-07-30_00h16.36.359,Simcolourproject_2stim_asymm_v5,2020.2.10,Win32,60,61025ae37ef11b136ea224fe,,,,,,,,,4345,73,141,1,0,0,response1disk,,7,3,8,1,0,0,rectangle,3,8,1,0,0,3,8,1,0,0,0,72,72,146,1,,,,,,,,
,,,,,,,,,,,,,FF,,,,,,,,1.5498,,,,,,,,,,,,,,,,,,,,,,60f974cd86441b6d038c484f,61036ed1db302659b0568e66,2021-07-30_00h16.36.359,Simcolourproject_2stim_asymm_v5,2020.2.10,Win32,60,61025ae37ef11b136ea224fe,,,,,,,,,1214,-92,-50,1,0,0,response5disk,,2,-7,5,1,0,0,rectangle,-7,5,1,0,0,-7,5,1,0,0,0,73,73,123,1,,,,,,,,
,,,,,,,,,,,,,FF,,,,,,,,0.9665,,,,,,,,,,,,,,,,,,,,,,60f974cd86441b6d038c484f,61036ed1db302659b0568e66,2021-07-30_00h16.36.359,Simcolourproject_2stim_asymm_v5,2020.2.10,Win32,60,61025ae37ef11b136ea224fe,,,,,,,,,684,75,116,1,0,0,response1disk,,7,0,-9,1,0,0,rectangle,0,-9,1,0,0,0,-9,1,0,0,0,74,74,147,1,,,,,,,,
,,,,,,,,,,,,,FF,,,,,,,,5.8333,,,,,,,,,,,,,,,,,,,,,,60f974cd86441b6d038c484f,61036ed1db302659b0568e66,2021-07-30_00h16.36.359,Simcolourproject_2stim_asymm_v5,2020.2.10,Win32,60,61025ae37ef11b136ea224fe,,,,,,,,,4123,75,-101,1,0,0,response3disk,,4,20,-14,1,0,0,rectangle,20,-14,1,0,0,20,-14,1,0,0,0,75,75,20,1,,,,,,,,
,,,,,,,,,,,,,FF,,,,,,,,1.3673,,,,,,,,,,,,,,,,,,,,,,60f974cd86441b6d038c484f,61036ed1db302659b0568e66,2021-07-30_00h16.36.359,Simcolourproject_2stim_asymm_v5,2020.2.10,Win32,60,61025ae37ef11b136ea224fe,,,,,,,,,1529,-55,-88,1,0,0,response5disk,,3,-24,0,1,0,0,rectangle,-24,0,1,0,0,-24,0,1,0,0,0,76,76,54,1,,,,,,,,
,,,,,,,,,,,,,FF,,,,,,,,1.3498,,,,,,,,,,,,,,,,,,,,,,60f974cd86441b6d038c484f,61036ed1db302659b0568e66,2021-07-30_00h16.36.359,Simcolourproject_2stim_asymm_v5,2020.2.10,Win32,60,61025ae37ef11b136ea224fe,,,,,,,,,2938,-51,-94,1,0,0,response5disk,,3,-18,-10,1,0,0,rectangle,-18,-10,1,0,0,-18,-10,1,0,0,0,77,77,3,1,,,,,,,,
,,,,,,,,,,,,,FF,,,,,,,,1.1836,,,,,,,,,,,,,,,,,,,,,,60f974cd86441b6d038c484f,61036ed1db302659b0568e66,2021-07-30_00h16.36.359,Simcolourproject_2stim_asymm_v5,2020.2.10,Win32,60,61025ae37ef11b136ea224fe,,,,,,,,,3887,-35,-85,1,0,0,response5disk,,3,-23,6,1,0,0,rectangle,-23,6,1,0,0,-23,6,1,0,0,0,78,78,91,1,,,,,,,,
,,,,,,,,,,,,,FF,,,,,,,,0.9826,,,,,,,,,,,,,,,,,,,,,,60f974cd86441b6d038c484f,61036ed1db302659b0568e66,2021-07-30_00h16.36.359,Simcolourproject_2stim_asymm_v5,2020.2.10,Win32,60,61025ae37ef11b136ea224fe,,,,,,,,,4237,-108,-44,1,0,0,response5disk,,2,-19,-7,1,0,0,rectangle,-19,-7,1,0,0,-19,-7,1,0,0,0,79,79,121,1,,,,,,,,
,,,,,,,,,,,,,FF,,,,,,,,1.6836,,,,,,,,,,,,,,,,,,,,,,60f974cd86441b6d038c484f,61036ed1db302659b0568e66,2021-07-30_00h16.36.359,Simcolourproject_2stim_asymm_v5,2020.2.10,Win32,60,61025ae37ef11b136ea224fe,,,,,,,,,1831,-68,-96,1,0,0,response5disk,,3,-15,-2,1,0,0,rectangle,-15,-2,1,0,0,-15,-2,1,0,0,0,80,80,87,1,,,,,,,,
,,,,,,,,,,,,,FF,,,,,,,,1.0004,,,,,,,,,,,,,,,,,,,,,,60f974cd86441b6d038c484f,61036ed1db302659b0568e66,2021-07-30_00h16.36.359,Simcolourproject_2stim_asymm_v5,2020.2.10,Win32,60,61025ae37ef11b136ea224fe,,,,,,,,,518,93,-46,1,0,0,response3disk,,5,15,-7,1,0,0,rectangle,15,-7,1,0,0,15,-7,1,0,0,0,81,81,158,1,,,,,,,,
,,,,,,,,,,,,,FF,,,,,,,,2.4331,,,,,,,,,,,,,,,,,,,,,,60f974cd86441b6d038c484f,61036ed1db302659b0568e66,2021-07-30_00h16.36.359,Simcolourproject_2stim_asymm_v5,2020.2.10,Win32,60,61025ae37ef11b136ea224fe,,,,,,,,,1304,-42,-80,1,0,0,response5disk,,3,-12,-9,1,0,0,rectangle,-12,-9,1,0,0,-12,-9,1,0,0,0,82,82,110,1,,,,,,,,
,,,,,,,,,,,,,FF,,,,,,,,1.3833,,,,,,,,,,,,,,,,,,,,,,60f974cd86441b6d038c484f,61036ed1db302659b0568e66,2021-07-30_00h16.36.359,Simcolourproject_2stim_asymm_v5,2020.2.10,Win32,60,61025ae37ef11b136ea224fe,,,,,,,,,2003,50,109,1,0,0,response1disk,,7,-2,-6,1,0,0,rectangle,-2,-6,1,0,0,-2,-6,1,0,0,0,83,83,33,1,,,,,,,,
,,,,,,,,,,,,,FF,,,,,,,,0.7666,,,,,,,,,,,,,,,,,,,,,,60f974cd86441b6d038c484f,61036ed1db302659b0568e66,2021-07-30_00h16.36.359,Simcolourproject_2stim_asymm_v5,2020.2.10,Win32,60,61025ae37ef11b136ea224fe,,,,,,,,,1966,-41,-125,1,0,0,response5disk,,3,-8,-17,1,0,0,rectangle,-8,-17,1,0,0,-8,-17,1,0,0,0,84,84,144,1,,,,,,,,
,,,,,,,,,,,,,FF,,,,,,,,2.65,,,,,,,,,,,,,,,,,,,,,,60f974cd86441b6d038c484f,61036ed1db302659b0568e66,2021-07-30_00h16.36.359,Simcolourproject_2stim_asymm_v5,2020.2.10,Win32,60,61025ae37ef11b136ea224fe,,,,,,,,,158,133,38,1,0,0,response1disk,,6,11,-4,1,0,0,rectangle,11,-4,1,0,0,11,-4,1,0,0,0,85,85,114,1,,,,,,,,
,,,,,,,,,,,,,FF,,,,,,,,1.9667,,,,,,,,,,,,,,,,,,,,,,60f974cd86441b6d038c484f,61036ed1db302659b0568e66,2021-07-30_00h16.36.359,Simcolourproject_2stim_asymm_v5,2020.2.10,Win32,60,61025ae37ef11b136ea224fe,,,,,,,,,2593,77,-111,1,0,0,response3disk,,4,24,-8,1,0,0,rectangle,24,-8,1,0,0,24,-8,1,0,0,0,86,86,45,1,,,,,,,,
,,,,,,,,,,,,,FF,,,,,,,,2.2489,,,,,,,,,,,,,,,,,,,,,,60f974cd86441b6d038c484f,61036ed1db302659b0568e66,2021-07-30_00h16.36.359,Simcolourproject_2stim_asymm_v5,2020.2.10,Win32,60,61025ae37ef11b136ea224fe,,,,,,,,,458,47,-121,1,0,0,response3disk,,4,15,-13,1,0,0,rectangle,15,-13,1,0,0,15,-13,1,0,0,0,87,87,57,1,,,,,,,,
,,,,,,,,,,,,,FF,,,,,,,,2.5836,,,,,,,,,,,,,,,,,,,,,,60f974cd86441b6d038c484f,61036ed1db302659b0568e66,2021-07-30_00h16.36.359,Simcolourproject_2stim_asymm_v5,2020.2.10,Win32,60,61025ae37ef11b136ea224fe,,,,,,,,,3306,102,61,1,0,0,response1disk,,6,39,2,1,0,0,rectangle,39,2,1,0,0,39,2,1,0,0,0,88,88,44,1,,,,,,,,
,,,,,,,,,,,,,FF,,,,,,,,2.5002,,,,,,,,,,,,,,,,,,,,,,60f974cd86441b6d038c484f,61036ed1db302659b0568e66,2021-07-30_00h16.36.359,Simcolourproject_2stim_asymm_v5,2020.2.10,Win32,60,61025ae37ef11b136ea224fe,,,,,,,,,579,85,42,1,0,0,response1disk,,6,11,-5,1,0,0,rectangle,11,-5,1,0,0,11,-5,1,0,0,0,89,89,35,1,,,,,,,,
,,,,,,,,,,,,,FF,,,,,,,,1.2999,,,,,,,,,,,,,,,,,,,,,,60f974cd86441b6d038c484f,61036ed1db302659b0568e66,2021-07-30_00h16.36.359,Simcolourproject_2stim_asymm_v5,2020.2.10,Win32,60,61025ae37ef11b136ea224fe,,,,,,,,,3915,45,-91,1,0,0,response3disk,,4,7,-5,1,0,0,rectangle,7,-5,1,0,0,7,-5,1,0,0,0,90,90,77,1,,,,,,,,
,,,,,,,,,,,,,FF,,,,,,,,55.7693,,,,,,,,,,,,,,,,,,,,,,60f974cd86441b6d038c484f,61036ed1db302659b0568e66,2021-07-30_00h16.36.359,Simcolourproject_2stim_asymm_v5,2020.2.10,Win32,60,61025ae37ef11b136ea224fe,,,,,,,,,497,107,-35,1,0,0,response3disk,,5,20,-14,1,0,0,rectangle,58,134,1,0,0,15,2,1,0,0,0,91,91,22,1,,response1disk_3,TRUE,7,7,"[279,175,183,161,150,129,222,281,171,253,124,304,7,283,154,47,285,235,11,92]",1.904,rectangle
,,,,,,,,,,,,,FF,,,,,,,,1.2503,,,,,,,,,,,,,,,,,,,,,,60f974cd86441b6d038c484f,61036ed1db302659b0568e66,2021-07-30_00h16.36.359,Simcolourproject_2stim_asymm_v5,2020.2.10,Win32,60,61025ae37ef11b136ea224fe,,,,,,,,,1832,-36,-135,1,0,0,response5disk,,3,29,5,1,0,0,rectangle,29,5,1,0,0,29,5,1,0,0,0,92,92,153,1,,,,,,,,
,,,,,,,,,,,,,FF,,,,,,,,14.0686,,,,,,,,,,,,,,,,,,,,,,60f974cd86441b6d038c484f,61036ed1db302659b0568e66,2021-07-30_00h16.36.359,Simcolourproject_2stim_asymm_v5,2020.2.10,Win32,60,61025ae37ef11b136ea224fe,,,,,,,,,1619,121,-43,1,0,0,response3disk,,5,39,0,1,0,0,rectangle,39,0,1,0,0,39,0,1,0,0,0,93,93,154,1,,,,,,,,
,,,,,,,,,,,,,FF,,,,,,,,1.7333,,,,,,,,,,,,,,,,,,,,,,60f974cd86441b6d038c484f,61036ed1db302659b0568e66,2021-07-30_00h16.36.359,Simcolourproject_2stim_asymm_v5,2020.2.10,Win32,60,61025ae37ef11b136ea224fe,,,,,,,,,4062,100,70,1,0,0,response1disk,,6,-5,-18,1,0,0,rectangle,-5,-18,1,0,0,-5,-18,1,0,0,0,94,94,130,1,,,,,,,,
,,,,,,,,,,,,,FF,,,,,,,,1.7171,,,,,,,,,,,,,,,,,,,,,,60f974cd86441b6d038c484f,61036ed1db302659b0568e66,2021-07-30_00h16.36.359,Simcolourproject_2stim_asymm_v5,2020.2.10,Win32,60,61025ae37ef11b136ea224fe,,,,,,,,,4351,99,42,1,0,0,response1disk,,6,33,8,1,0,0,rectangle,33,8,1,0,0,33,8,1,0,0,0,95,95,129,1,,,,,,,,
,,,,,,,,,,,,,FF,,,,,,,,1.9666,,,,,,,,,,,,,,,,,,,,,,60f974cd86441b6d038c484f,61036ed1db302659b0568e66,2021-07-30_00h16.36.359,Simcolourproject_2stim_asymm_v5,2020.2.10,Win32,60,61025ae37ef11b136ea224fe,,,,,,,,,1937,155,52,1,0,0,response1disk,,6,47,-7,1,0,0,rectangle,47,-7,1,0,0,47,-7,1,0,0,0,96,96,66,1,,,,,,,,
,,,,,,,,,,,,,FF,,,,,,,,1.8671,,,,,,,,,,,,,,,,,,,,,,60f974cd86441b6d038c484f,61036ed1db302659b0568e66,2021-07-30_00h16.36.359,Simcolourproject_2stim_asymm_v5,2020.2.10,Win32,60,61025ae37ef11b136ea224fe,,,,,,,,,4098,-58,-140,1,0,0,response5disk,,3,5,14,1,0,0,rectangle,5,14,1,0,0,5,14,1,0,0,0,97,97,53,1,,,,,,,,
,,,,,,,,,,,,,FF,,,,,,,,2.0811,,,,,,,,,,,,,,,,,,,,,,60f974cd86441b6d038c484f,61036ed1db302659b0568e66,2021-07-30_00h16.36.359,Simcolourproject_2stim_asymm_v5,2020.2.10,Win32,60,61025ae37ef11b136ea224fe,,,,,,,,,3460,67,116,1,0,0,response1disk,,7,10,4,1,0,0,rectangle,10,4,1,0,0,10,4,1,0,0,0,98,98,31,1,,,,,,,,
,,,,,,,,,,,,,FF,,,,,,,,0.5008,,,,,,,,,,,,,,,,,,,,,,60f974cd86441b6d038c484f,61036ed1db302659b0568e66,2021-07-30_00h16.36.359,Simcolourproject_2stim_asymm_v5,2020.2.10,Win32,60,61025ae37ef11b136ea224fe,,,,,,,,,2581,53,102,1,0,0,response1disk,,7,7,1,1,0,0,rectangle,7,1,1,0,0,7,1,1,0,0,0,99,99,113,1,,,,,,,,
,,,,,,,,,,,,,FF,,,,,,,,1.1475,,,,,,,,,,,,,,,,,,,,,,60f974cd86441b6d038c484f,61036ed1db302659b0568e66,2021-07-30_00h16.36.359,Simcolourproject_2stim_asymm_v5,2020.2.10,Win32,60,61025ae37ef11b136ea224fe,,,,,,,,,352,-34,-107,1,0,0,response5disk,,3,19,-4,1,0,0,rectangle,19,-4,1,0,0,19,-4,1,0,0,0,100,100,56,1,,,,,,,,
,,,,,,,,,,,,,FF,,,,,,,,0.9175,,,,,,,,,,,,,,,,,,,,,,60f974cd86441b6d038c484f,61036ed1db302659b0568e66,2021-07-30_00h16.36.359,Simcolourproject_2stim_asymm_v5,2020.2.10,Win32,60,61025ae37ef11b136ea224fe,,,,,,,,,3559,-112,-61,1,0,0,response5disk,,2,6,4,1,0,0,rectangle,6,4,1,0,0,6,4,1,0,0,0,101,101,116,1,,,,,,,,
,,,,,,,,,,,,,FF,,,,,,,,2.2521,,,,,,,,,,,,,,,,,,,,,,60f974cd86441b6d038c484f,61036ed1db302659b0568e66,2021-07-30_00h16.36.359,Simcolourproject_2stim_asymm_v5,2020.2.10,Win32,60,61025ae37ef11b136ea224fe,,,,,,,,,611,53,-106,1,0,0,response3disk,,4,-6,1,1,0,0,rectangle,-6,1,1,0,0,-6,1,1,0,0,0,102,102,157,1,,,,,,,,
,,,,,,,,,,,,,FF,,,,,,,,1.4171,,,,,,,,,,,,,,,,,,,,,,60f974cd86441b6d038c484f,61036ed1db302659b0568e66,2021-07-30_00h16.36.359,Simcolourproject_2stim_asymm_v5,2020.2.10,Win32,60,61025ae37ef11b136ea224fe,,,,,,,,,3176,103,62,1,0,0,response1disk,,6,7,1,1,0,0,rectangle,7,1,1,0,0,7,1,1,0,0,0,103,103,36,1,,,,,,,,
,,,,,,,,,,,,,FF,,,,,,,,1.1667,,,,,,,,,,,,,,,,,,,,,,60f974cd86441b6d038c484f,61036ed1db302659b0568e66,2021-07-30_00h16.36.359,Simcolourproject_2stim_asymm_v5,2020.2.10,Win32,60,61025ae37ef11b136ea224fe,,,,,,,,,683,75,99,1,0,0,response1disk,,7,15,9,1,0,0,rectangle,15,9,1,0,0,15,9,1,0,0,0,104,104,72,1,,,,,,,,
,,,,,,,,,,,,,FF,,,,,,,,0.6008,,,,,,,,,,,,,,,,,,,,,,60f974cd86441b6d038c484f,61036ed1db302659b0568e66,2021-07-30_00h16.36.359,Simcolourproject_2stim_asymm_v5,2020.2.10,Win32,60,61025ae37ef11b136ea224fe,,,,,,,,,3732,60,112,1,0,0,response1disk,,7,20,4,1,0,0,rectangle,20,4,1,0,0,20,4,1,0,0,0,105,105,48,1,,,,,,,,
,,,,,,,,,,,,,FF,,,,,,,,0.8344,,,,,,,,,,,,,,,,,,,,,,60f974cd86441b6d038c484f,61036ed1db302659b0568e66,2021-07-30_00h16.36.359,Simcolourproject_2stim_asymm_v5,2020.2.10,Win32,60,61025ae37ef11b136ea224fe,,,,,,,,,1545,48,100,1,0,0,response1disk,,7,4,-17,1,0,0,rectangle,4,-17,1,0,0,4,-17,1,0,0,0,106,106,108,1,,,,,,,,
,,,,,,,,,,,,,FF,,,,,,,,1.069,,,,,,,,,,,,,,,,,,,,,,60f974cd86441b6d038c484f,61036ed1db302659b0568e66,2021-07-30_00h16.36.359,Simcolourproject_2stim_asymm_v5,2020.2.10,Win32,60,61025ae37ef11b136ea224fe,,,,,,,,,1535,-40,-96,1,0,0,response5disk,,3,-6,-5,1,0,0,rectangle,-6,-5,1,0,0,-6,-5,1,0,0,0,107,107,38,1,,,,,,,,
,,,,,,,,,,,,,FF,,,,,,,,0.8497,,,,,,,,,,,,,,,,,,,,,,60f974cd86441b6d038c484f,61036ed1db302659b0568e66,2021-07-30_00h16.36.359,Simcolourproject_2stim_asymm_v5,2020.2.10,Win32,60,61025ae37ef11b136ea224fe,,,,,,,,,1893,-51,-96,1,0,0,response5disk,,3,-24,-9,1,0,0,rectangle,-24,-9,1,0,0,-24,-9,1,0,0,0,108,108,41,1,,,,,,,,
,,,,,,,,,,,,,FF,,,,,,,,1.6644,,,,,,,,,,,,,,,,,,,,,,60f974cd86441b6d038c484f,61036ed1db302659b0568e66,2021-07-30_00h16.36.359,Simcolourproject_2stim_asymm_v5,2020.2.10,Win32,60,61025ae37ef11b136ea224fe,,,,,,,,,2090,38,-112,1,0,0,response3disk,,4,15,-4,1,0,0,rectangle,15,-4,1,0,0,15,-4,1,0,0,0,109,109,29,1,,,,,,,,
,,,,,,,,,,,,,FF,,,,,,,,1.4649,,,,,,,,,,,,,,,,,,,,,,60f974cd86441b6d038c484f,61036ed1db302659b0568e66,2021-07-30_00h16.36.359,Simcolourproject_2stim_asymm_v5,2020.2.10,Win32,60,61025ae37ef11b136ea224fe,,,,,,,,,2930,127,72,1,0,0,response1disk,,6,-3,-1,1,0,0,rectangle,-3,-1,1,0,0,-3,-1,1,0,0,0,110,110,7,1,,,,,,,,
,,,,,,,,,,,,,FF,,,,,,,,1.0168,,,,,,,,,,,,,,,,,,,,,,60f974cd86441b6d038c484f,61036ed1db302659b0568e66,2021-07-30_00h16.36.359,Simcolourproject_2stim_asymm_v5,2020.2.10,Win32,60,61025ae37ef11b136ea224fe,,,,,,,,,757,51,107,1,0,0,response1disk,,7,1,5,1,0,0,rectangle,1,5,1,0,0,1,5,1,0,0,0,111,111,152,1,,,,,,,,
,,,,,,,,,,,,,FF,,,,,,,,0.9331,,,,,,,,,,,,,,,,,,,,,,60f974cd86441b6d038c484f,61036ed1db302659b0568e66,2021-07-30_00h16.36.359,Simcolourproject_2stim_asymm_v5,2020.2.10,Win32,60,61025ae37ef11b136ea224fe,,,,,,,,,576,50,111,1,0,0,response1disk,,7,-8,-17,1,0,0,rectangle,-8,-17,1,0,0,-8,-17,1,0,0,0,112,112,52,1,,,,,,,,
,,,,,,,,,,,,,FF,,,,,,,,1.8502,,,,,,,,,,,,,,,,,,,,,,60f974cd86441b6d038c484f,61036ed1db302659b0568e66,2021-07-30_00h16.36.359,Simcolourproject_2stim_asymm_v5,2020.2.10,Win32,60,61025ae37ef11b136ea224fe,,,,,,,,,2830,126,-59,1,0,0,response3disk,,5,9,3,1,0,0,rectangle,9,3,1,0,0,9,3,1,0,0,0,113,113,62,1,,,,,,,,
,,,,,,,,,,,,,FF,,,,,,,,2.6153,,,,,,,,,,,,,,,,,,,,,,60f974cd86441b6d038c484f,61036ed1db302659b0568e66,2021-07-30_00h16.36.359,Simcolourproject_2stim_asymm_v5,2020.2.10,Win32,60,61025ae37ef11b136ea224fe,,,,,,,,,1195,-31,-124,1,0,0,response5disk,,3,12,-1,1,0,0,rectangle,12,-1,1,0,0,12,-1,1,0,0,0,114,114,90,1,,,,,,,,
,,,,,,,,,,,,,FF,,,,,,,,1.5335,,,,,,,,,,,,,,,,,,,,,,60f974cd86441b6d038c484f,61036ed1db302659b0568e66,2021-07-30_00h16.36.359,Simcolourproject_2stim_asymm_v5,2020.2.10,Win32,60,61025ae37ef11b136ea224fe,,,,,,,,,4247,80,-42,1,0,0,response3disk,,5,17,5,1,0,0,rectangle,17,5,1,0,0,17,5,1,0,0,0,115,115,107,1,,,,,,,,
,,,,,,,,,,,,,FF,,,,,,,,2.1501,,,,,,,,,,,,,,,,,,,,,,60f974cd86441b6d038c484f,61036ed1db302659b0568e66,2021-07-30_00h16.36.359,Simcolourproject_2stim_asymm_v5,2020.2.10,Win32,60,61025ae37ef11b136ea224fe,,,,,,,,,2152,85,56,1,0,0,response1disk,,6,11,-4,1,0,0,rectangle,11,-4,1,0,0,11,-4,1,0,0,0,116,116,55,1,,,,,,,,
,,,,,,,,,,,,,FF,,,,,,,,0.9006,,,,,,,,,,,,,,,,,,,,,,60f974cd86441b6d038c484f,61036ed1db302659b0568e66,2021-07-30_00h16.36.359,Simcolourproject_2stim_asymm_v5,2020.2.10,Win32,60,61025ae37ef11b136ea224fe,,,,,,,,,962,87,46,1,0,0,response1disk,,6,19,-6,1,0,0,rectangle,19,-6,1,0,0,19,-6,1,0,0,0,117,117,156,1,,,,,,,,
,,,,,,,,,,,,,FF,,,,,,,,1.765,,,,,,,,,,,,,,,,,,,,,,60f974cd86441b6d038c484f,61036ed1db302659b0568e66,2021-07-30_00h16.36.359,Simcolourproject_2stim_asymm_v5,2020.2.10,Win32,60,61025ae37ef11b136ea224fe,,,,,,,,,372,-34,-104,1,0,0,response5disk,,3,11,10,1,0,0,rectangle,11,10,1,0,0,11,10,1,0,0,0,118,118,98,1,,,,,,,,
,,,,,,,,,,,,,FF,,,,,,,,0.9314,,,,,,,,,,,,,,,,,,,,,,60f974cd86441b6d038c484f,61036ed1db302659b0568e66,2021-07-30_00h16.36.359,Simcolourproject_2stim_asymm_v5,2020.2.10,Win32,60,61025ae37ef11b136ea224fe,,,,,,,,,4194,29,-87,1,0,0,response3disk,,4,0,-1,1,0,0,rectangle,0,-1,1,0,0,0,-1,1,0,0,0,119,119,96,1,,,,,,,,
,,,,,,,,,,,,,FF,,,,,,,,1.4487,,,,,,,,,,,,,,,,,,,,,,60f974cd86441b6d038c484f,61036ed1db302659b0568e66,2021-07-30_00h16.36.359,Simcolourproject_2stim_asymm_v5,2020.2.10,Win32,60,61025ae37ef11b136ea224fe,,,,,,,,,3826,35,-94,1,0,0,response3disk,,4,-10,-5,1,0,0,rectangle,-10,-5,1,0,0,-10,-5,1,0,0,0,120,120,149,1,,,,,,,,
,,,,,,,,,,,,,FF,,,,,,,,1.2169,,,,,,,,,,,,,,,,,,,,,,60f974cd86441b6d038c484f,61036ed1db302659b0568e66,2021-07-30_00h16.36.359,Simcolourproject_2stim_asymm_v5,2020.2.10,Win32,60,61025ae37ef11b136ea224fe,,,,,,,,,1885,107,70,1,0,0,response1disk,,6,42,13,1,0,0,rectangle,42,13,1,0,0,42,13,1,0,0,0,121,121,75,1,,,,,,,,
,,,,,,,,,,,,,FF,,,,,,,,0.8034,,,,,,,,,,,,,,,,,,,,,,60f974cd86441b6d038c484f,61036ed1db302659b0568e66,2021-07-30_00h16.36.359,Simcolourproject_2stim_asymm_v5,2020.2.10,Win32,60,61025ae37ef11b136ea224fe,,,,,,,,,2109,-54,-90,1,0,0,response5disk,,3,-32,-3,1,0,0,rectangle,-32,-3,1,0,0,-32,-3,1,0,0,0,122,122,99,1,,,,,,,,
,,,,,,,,,,,,,FF,,,,,,,,1.017,,,,,,,,,,,,,,,,,,,,,,60f974cd86441b6d038c484f,61036ed1db302659b0568e66,2021-07-30_00h16.36.359,Simcolourproject_2stim_asymm_v5,2020.2.10,Win32,60,61025ae37ef11b136ea224fe,,,,,,,,,455,-114,38,1,0,0,response7disk,,1,-40,2,1,0,0,rectangle,-137,-58,1,0,0,-13,-2,1,0,0,0,123,123,79,1,,response5disk_3,TRUE,2,2,"[279,175,183,161,150,129,222,281,171,253,124,304,7,283,154,47,285,235,11,92]",1.884,rectangle
,,,,,,,,,,,,,FF,,,,,,,,1.7814,,,,,,,,,,,,,,,,,,,,,,60f974cd86441b6d038c484f,61036ed1db302659b0568e66,2021-07-30_00h16.36.359,Simcolourproject_2stim_asymm_v5,2020.2.10,Win32,60,61025ae37ef11b136ea224fe,,,,,,,,,1288,85,46,1,0,0,response1disk,,6,16,-1,1,0,0,rectangle,16,-1,1,0,0,16,-1,1,0,0,0,124,124,21,1,,,,,,,,
,,,,,,,,,,,,,FF,,,,,,,,1.4503,,,,,,,,,,,,,,,,,,,,,,60f974cd86441b6d038c484f,61036ed1db302659b0568e66,2021-07-30_00h16.36.359,Simcolourproject_2stim_asymm_v5,2020.2.10,Win32,60,61025ae37ef11b136ea224fe,,,,,,,,,3824,49,-87,1,0,0,response3disk,,4,30,-18,1,0,0,rectangle,30,-18,1,0,0,30,-18,1,0,0,0,125,125,50,1,,,,,,,,
,,,,,,,,,,,,,FF,,,,,,,,1.1019,,,,,,,,,,,,,,,,,,,,,,60f974cd86441b6d038c484f,61036ed1db302659b0568e66,2021-07-30_00h16.36.359,Simcolourproject_2stim_asymm_v5,2020.2.10,Win32,60,61025ae37ef11b136ea224fe,,,,,,,,,1422,111,-36,1,0,0,response3disk,,5,40,-6,1,0,0,rectangle,40,-6,1,0,0,40,-6,1,0,0,0,126,126,82,1,,,,,,,,
,,,,,,,,,,,,,FF,,,,,,,,1.2339,,,,,,,,,,,,,,,,,,,,,,60f974cd86441b6d038c484f,61036ed1db302659b0568e66,2021-07-30_00h16.36.359,Simcolourproject_2stim_asymm_v5,2020.2.10,Win32,60,61025ae37ef11b136ea224fe,,,,,,,,,595,94,-35,1,0,0,response3disk,,5,42,-3,1,0,0,rectangle,42,-3,1,0,0,42,-3,1,0,0,0,127,127,46,1,,,,,,,,
,,,,,,,,,,,,,FF,,,,,,,,0.7519,,,,,,,,,,,,,,,,,,,,,,60f974cd86441b6d038c484f,61036ed1db302659b0568e66,2021-07-30_00h16.36.359,Simcolourproject_2stim_asymm_v5,2020.2.10,Win32,60,61025ae37ef11b136ea224fe,,,,,,,,,1391,115,53,1,0,0,response1disk,,6,13,-1,1,0,0,rectangle,-49,-121,1,0,0,11,-2,1,0,0,0,128,128,86,1,,response5disk_3,TRUE,3,3,"[279,175,183,161,150,129,222,281,171,253,124,304,7,283,154,47,285,235,11,92]",1.5837,rectangle
,,,,,,,,,,,,,FF,,,,,,,,1.1671,,,,,,,,,,,,,,,,,,,,,,60f974cd86441b6d038c484f,61036ed1db302659b0568e66,2021-07-30_00h16.36.359,Simcolourproject_2stim_asymm_v5,2020.2.10,Win32,60,61025ae37ef11b136ea224fe,,,,,,,,,3566,-72,-100,1,0,0,response5disk,,3,-30,-4,1,0,0,rectangle,-30,-4,1,0,0,-30,-4,1,0,0,0,129,129,30,1,,,,,,,,
,,,,,,,,,,,,,FF,,,,,,,,1.282,,,,,,,,,,,,,,,,,,,,,,60f974cd86441b6d038c484f,61036ed1db302659b0568e66,2021-07-30_00h16.36.359,Simcolourproject_2stim_asymm_v5,2020.2.10,Win32,60,61025ae37ef11b136ea224fe,,,,,,,,,379,115,78,1,0,0,response1disk,,6,14,7,1,0,0,rectangle,14,7,1,0,0,14,7,1,0,0,0,130,130,81,1,,,,,,,,
,,,,,,,,,,,,,FF,,,,,,,,0.9672,,,,,,,,,,,,,,,,,,,,,,60f974cd86441b6d038c484f,61036ed1db302659b0568e66,2021-07-30_00h16.36.359,Simcolourproject_2stim_asymm_v5,2020.2.10,Win32,60,61025ae37ef11b136ea224fe,,,,,,,,,3558,-126,-47,1,0,0,response5disk,,2,3,-3,1,0,0,rectangle,3,-3,1,0,0,3,-3,1,0,0,0,131,131,115,1,,,,,,,,
,,,,,,,,,,,,,FF,,,,,,,,1.1481,,,,,,,,,,,,,,,,,,,,,,60f974cd86441b6d038c484f,61036ed1db302659b0568e66,2021-07-30_00h16.36.359,Simcolourproject_2stim_asymm_v5,2020.2.10,Win32,60,61025ae37ef11b136ea224fe,,,,,,,,,4126,-67,-43,1,0,0,response5disk,,2,-9,4,1,0,0,rectangle,-9,4,1,0,0,-9,4,1,0,0,0,132,132,106,1,,,,,,,,
,,,,,,,,,,,,,FF,,,,,,,,0.8173,,,,,,,,,,,,,,,,,,,,,,60f974cd86441b6d038c484f,61036ed1db302659b0568e66,2021-07-30_00h16.36.359,Simcolourproject_2stim_asymm_v5,2020.2.10,Win32,60,61025ae37ef11b136ea224fe,,,,,,,,,309,113,50,1,0,0,response1disk,,6,-7,-15,1,0,0,rectangle,-7,-15,1,0,0,-7,-15,1,0,0,0,133,133,138,1,,,,,,,,
,,,,,,,,,,,,,FF,,,,,,,,1.2316,,,,,,,,,,,,,,,,,,,,,,60f974cd86441b6d038c484f,61036ed1db302659b0568e66,2021-07-30_00h16.36.359,Simcolourproject_2stim_asymm_v5,2020.2.10,Win32,60,61025ae37ef11b136ea224fe,,,,,,,,,4260,125,68,1,0,0,response1disk,,6,27,14,1,0,0,rectangle,27,14,1,0,0,27,14,1,0,0,0,134,134,67,1,,,,,,,,
,,,,,,,,,,,,,FF,,,,,,,,1.0977,,,,,,,,,,,,,,,,,,,,,,60f974cd86441b6d038c484f,61036ed1db302659b0568e66,2021-07-30_00h16.36.359,Simcolourproject_2stim_asymm_v5,2020.2.10,Win32,60,61025ae37ef11b136ea224fe,,,,,,,,,3860,48,-119,1,0,0,response3disk,,4,4,-16,1,0,0,rectangle,4,-16,1,0,0,4,-16,1,0,0,0,135,135,60,1,,,,,,,,
,,,,,,,,,,,,,FF,,,,,,,,1.5833,,,,,,,,,,,,,,,,,,,,,,60f974cd86441b6d038c484f,61036ed1db302659b0568e66,2021-07-30_00h16.36.359,Simcolourproject_2stim_asymm_v5,2020.2.10,Win32,60,61025ae37ef11b136ea224fe,,,,,,,,,3002,61,102,1,0,0,response1disk,,7,16,8,1,0,0,rectangle,16,8,1,0,0,16,8,1,0,0,0,136,136,124,1,,,,,,,,
,,,,,,,,,,,,,FF,,,,,,,,1.2332,,,,,,,,,,,,,,,,,,,,,,60f974cd86441b6d038c484f,61036ed1db302659b0568e66,2021-07-30_00h16.36.359,Simcolourproject_2stim_asymm_v5,2020.2.10,Win32,60,61025ae37ef11b136ea224fe,,,,,,,,,1225,39,-102,1,0,0,response3disk,,4,28,2,1,0,0,rectangle,28,2,1,0,0,28,2,1,0,0,0,137,137,112,1,,,,,,,,
,,,,,,,,,,,,,FF,,,,,,,,0.9162,,,,,,,,,,,,,,,,,,,,,,60f974cd86441b6d038c484f,61036ed1db302659b0568e66,2021-07-30_00h16.36.359,Simcolourproject_2stim_asymm_v5,2020.2.10,Win32,60,61025ae37ef11b136ea224fe,,,,,,,,,2524,106,57,1,0,0,response1disk,,6,7,3,1,0,0,rectangle,7,3,1,0,0,7,3,1,0,0,0,138,138,145,1,,,,,,,,
,,,,,,,,,,,,,FF,,,,,,,,0.8147,,,,,,,,,,,,,,,,,,,,,,60f974cd86441b6d038c484f,61036ed1db302659b0568e66,2021-07-30_00h16.36.359,Simcolourproject_2stim_asymm_v5,2020.2.10,Win32,60,61025ae37ef11b136ea224fe,,,,,,,,,4140,-110,44,1,0,0,response7disk,,1,5,-16,1,0,0,rectangle,5,-16,1,0,0,5,-16,1,0,0,0,139,139,131,1,,,,,,,,
,,,,,,,,,,,,,FF,,,,,,,,2.5979,,,,,,,,,,,,,,,,,,,,,,60f974cd86441b6d038c484f,61036ed1db302659b0568e66,2021-07-30_00h16.36.359,Simcolourproject_2stim_asymm_v5,2020.2.10,Win32,60,61025ae37ef11b136ea224fe,,,,,,,,,4312,97,45,1,0,0,response1disk,,6,37,-12,1,0,0,rectangle,37,-12,1,0,0,37,-12,1,0,0,0,140,140,118,1,,,,,,,,
,,,,,,,,,,,,,FF,,,,,,,,1.3167,,,,,,,,,,,,,,,,,,,,,,60f974cd86441b6d038c484f,61036ed1db302659b0568e66,2021-07-30_00h16.36.359,Simcolourproject_2stim_asymm_v5,2020.2.10,Win32,60,61025ae37ef11b136ea224fe,,,,,,,,,1093,56,112,1,0,0,response1disk,,7,6,-1,1,0,0,rectangle,6,-1,1,0,0,6,-1,1,0,0,0,141,141,1,1,,,,,,,,
,,,,,,,,,,,,,FF,,,,,,,,0.7508,,,,,,,,,,,,,,,,,,,,,,60f974cd86441b6d038c484f,61036ed1db302659b0568e66,2021-07-30_00h16.36.359,Simcolourproject_2stim_asymm_v5,2020.2.10,Win32,60,61025ae37ef11b136ea224fe,,,,,,,,,1696,45,108,1,0,0,response1disk,,7,4,-19,1,0,0,rectangle,4,-19,1,0,0,4,-19,1,0,0,0,142,142,155,1,,,,,,,,
,,,,,,,,,,,,,FF,,,,,,,,1.067,,,,,,,,,,,,,,,,,,,,,,60f974cd86441b6d038c484f,61036ed1db302659b0568e66,2021-07-30_00h16.36.359,Simcolourproject_2stim_asymm_v5,2020.2.10,Win32,60,61025ae37ef11b136ea224fe,,,,,,,,,3487,64,110,1,0,0,response1disk,,7,19,3,1,0,0,rectangle,19,3,1,0,0,19,3,1,0,0,0,143,143,10,1,,,,,,,,
,,,,,,,,,,,,,FF,,,,,,,,1.5168,,,,,,,,,,,,,,,,,,,,,,60f974cd86441b6d038c484f,61036ed1db302659b0568e66,2021-07-30_00h16.36.359,Simcolourproject_2stim_asymm_v5,2020.2.10,Win32,60,61025ae37ef11b136ea224fe,,,,,,,,,1374,-26,-141,1,0,0,response5disk,,3,1,-8,1,0,0,rectangle,1,-8,1,0,0,1,-8,1,0,0,0,144,144,32,1,,,,,,,,
,,,,,,,,,,,,,FF,,,,,,,,2.4841,,,,,,,,,,,,,,,,,,,,,,60f974cd86441b6d038c484f,61036ed1db302659b0568e66,2021-07-30_00h16.36.359,Simcolourproject_2stim_asymm_v5,2020.2.10,Win32,60,61025ae37ef11b136ea224fe,,,,,,,,,128,121,39,1,0,0,response1disk,,6,-11,-21,1,0,0,rectangle,-11,-21,1,0,0,-11,-21,1,0,0,0,145,145,14,1,,,,,,,,
,,,,,,,,,,,,,FF,,,,,,,,1.7674,,,,,,,,,,,,,,,,,,,,,,60f974cd86441b6d038c484f,61036ed1db302659b0568e66,2021-07-30_00h16.36.359,Simcolourproject_2stim_asymm_v5,2020.2.10,Win32,60,61025ae37ef11b136ea224fe,,,,,,,,,3598,41,-134,1,0,0,response3disk,,4,7,-4,1,0,0,rectangle,7,-4,1,0,0,7,-4,1,0,0,0,146,146,88,1,,,,,,,,
,,,,,,,,,,,,,FF,,,,,,,,1.6168,,,,,,,,,,,,,,,,,,,,,,60f974cd86441b6d038c484f,61036ed1db302659b0568e66,2021-07-30_00h16.36.359,Simcolourproject_2stim_asymm_v5,2020.2.10,Win32,60,61025ae37ef11b136ea224fe,,,,,,,,,3223,50,118,1,0,0,response1disk,,7,11,4,1,0,0,rectangle,11,4,1,0,0,11,4,1,0,0,0,147,147,94,1,,,,,,,,
,,,,,,,,,,,,,FF,,,,,,,,2.7338,,,,,,,,,,,,,,,,,,,,,,60f974cd86441b6d038c484f,61036ed1db302659b0568e66,2021-07-30_00h16.36.359,Simcolourproject_2stim_asymm_v5,2020.2.10,Win32,60,61025ae37ef11b136ea224fe,,,,,,,,,1992,58,104,1,0,0,response1disk,,7,20,8,1,0,0,rectangle,20,8,1,0,0,20,8,1,0,0,0,148,148,27,1,,,,,,,,
,,,,,,,,,,,,,FF,,,,,,,,1.0336,,,,,,,,,,,,,,,,,,,,,,60f974cd86441b6d038c484f,61036ed1db302659b0568e66,2021-07-30_00h16.36.359,Simcolourproject_2stim_asymm_v5,2020.2.10,Win32,60,61025ae37ef11b136ea224fe,,,,,,,,,3399,-39,-100,1,0,0,response5disk,,3,25,5,1,0,0,rectangle,126,-46,1,0,0,17,-14,1,0,0,0,149,149,73,1,,response3disk_3,TRUE,5,5,"[279,175,183,161,150,129,222,281,171,253,124,304,7,283,154,47,285,235,11,92]",1.3677,rectangle
,,,,,,,,,,,,,FF,,,,,,,,1.3501,,,,,,,,,,,,,,,,,,,,,,60f974cd86441b6d038c484f,61036ed1db302659b0568e66,2021-07-30_00h16.36.359,Simcolourproject_2stim_asymm_v5,2020.2.10,Win32,60,61025ae37ef11b136ea224fe,,,,,,,,,2326,123,66,1,0,0,response1disk,,6,3,10,1,0,0,rectangle,3,10,1,0,0,3,10,1,0,0,0,150,150,18,1,,,,,,,,
,,,,,,,,,,,,,FF,,,,,,,,1.1331,,,,,,,,,,,,,,,,,,,,,,60f974cd86441b6d038c484f,61036ed1db302659b0568e66,2021-07-30_00h16.36.359,Simcolourproject_2stim_asymm_v5,2020.2.10,Win32,60,61025ae37ef11b136ea224fe,,,,,,,,,1114,44,-96,1,0,0,response3disk,,4,14,-18,1,0,0,rectangle,14,-18,1,0,0,14,-18,1,0,0,0,151,151,111,1,,,,,,,,
,,,,,,,,,,,,,FF,,,,,,,,0.914,,,,,,,,,,,,,,,,,,,,,,60f974cd86441b6d038c484f,61036ed1db302659b0568e66,2021-07-30_00h16.36.359,Simcolourproject_2stim_asymm_v5,2020.2.10,Win32,60,61025ae37ef11b136ea224fe,,,,,,,,,4175,114,-56,1,0,0,response3disk,,5,11,2,1,0,0,rectangle,11,2,1,0,0,11,2,1,0,0,0,152,152,135,1,,,,,,,,
,,,,,,,,,,,,,FF,,,,,,,,1.45,,,,,,,,,,,,,,,,,,,,,,60f974cd86441b6d038c484f,61036ed1db302659b0568e66,2021-07-30_00h16.36.359,Simcolourproject_2stim_asymm_v5,2020.2.10,Win32,60,61025ae37ef11b136ea224fe,,,,,,,,,2782,-100,-54,1,0,0,response5disk,,2,-17,6,1,0,0,rectangle,-122,-55,1,0,0,-14,2,1,0,0,0,153,153,137,1,,response5disk_3,TRUE,2,2,"[279,175,183,161,150,129,222,281,171,253,124,304,7,283,154,47,285,235,11,92]",1.4336,rectangle
,,,,,,,,,,,,,FF,,,,,,,,1.3338,,,,,,,,,,,,,,,,,,,,,,60f974cd86441b6d038c484f,61036ed1db302659b0568e66,2021-07-30_00h16.36.359,Simcolourproject_2stim_asymm_v5,2020.2.10,Win32,60,61025ae37ef11b136ea224fe,,,,,,,,,4367,-109,-35,1,0,0,response5disk,,2,-20,5,1,0,0,rectangle,-20,5,1,0,0,-20,5,1,0,0,0,154,154,58,1,,,,,,,,
,,,,,,,,,,,,,FF,,,,,,,,1.136,,,,,,,,,,,,,,,,,,,,,,60f974cd86441b6d038c484f,61036ed1db302659b0568e66,2021-07-30_00h16.36.359,Simcolourproject_2stim_asymm_v5,2020.2.10,Win32,60,61025ae37ef11b136ea224fe,,,,,,,,,3760,101,-54,1,0,0,response3disk,,5,17,-10,1,0,0,rectangle,17,-10,1,0,0,17,-10,1,0,0,0,155,155,34,1,,,,,,,,
,,,,,,,,,,,,,FF,,,,,,,,1.7167,,,,,,,,,,,,,,,,,,,,,,60f974cd86441b6d038c484f,61036ed1db302659b0568e66,2021-07-30_00h16.36.359,Simcolourproject_2stim_asymm_v5,2020.2.10,Win32,60,61025ae37ef11b136ea224fe,,,,,,,,,1640,124,62,1,0,0,response1disk,,6,-12,-17,1,0,0,rectangle,-12,-17,1,0,0,-12,-17,1,0,0,0,156,156,78,1,,,,,,,,
,,,,,,,,,,,,,FF,,,,,,,,1.8176,,,,,,,,,,,,,,,,,,,,,,60f974cd86441b6d038c484f,61036ed1db302659b0568e66,2021-07-30_00h16.36.359,Simcolourproject_2stim_asymm_v5,2020.2.10,Win32,60,61025ae37ef11b136ea224fe,,,,,,,,,2771,-36,-101,1,0,0,response5disk,,3,-27,-3,1,0,0,rectangle,-27,-3,1,0,0,-27,-3,1,0,0,0,157,157,5,1,,,,,,,,
,,,,,,,,,,,,,FF,,,,,,,,0.884,,,,,,,,,,,,,,,,,,,,,,60f974cd86441b6d038c484f,61036ed1db302659b0568e66,2021-07-30_00h16.36.359,Simcolourproject_2stim_asymm_v5,2020.2.10,Win32,60,61025ae37ef11b136ea224fe,,,,,,,,,1749,-44,-87,1,0,0,response5disk,,3,-26,-10,1,0,0,rectangle,-26,-10,1,0,0,-26,-10,1,0,0,0,158,158,109,1,,,,,,,,
,,,,,,,,,,,,,FF,,,,,,,,1.2335,,,,,,,,,,,,,,,,,,,,,,60f974cd86441b6d038c484f,61036ed1db302659b0568e66,2021-07-30_00h16.36.359,Simcolourproject_2stim_asymm_v5,2020.2.10,Win32,60,61025ae37ef11b136ea224fe,,,,,,,,,1166,134,40,1,0,0,response1disk,,6,44,-5,1,0,0,rectangle,44,-5,1,0,0,44,-5,1,0,0,0,159,159,136,1,,,,,,,,
,,,,,,,,,,,,,FF,,,,,,,,1.7649,,,,,,,,,,,,,,,,,,,,,,60f974cd86441b6d038c484f,61036ed1db302659b0568e66,2021-07-30_00h16.36.359,Simcolourproject_2stim_asymm_v5,2020.2.10,Win32,60,61025ae37ef11b136ea224fe,,,,,,,,,4241,104,-70,1,0,0,response3disk,,5,17,-11,1,0,0,rectangle,-124,-46,1,0,0,0,-4,1,0,0,1,0,160,55,1,,response5disk_3,TRUE,2,2,"[279,175,183,161,150,129,222,281,171,253,124,304,7,283,154,47,285,235,11,92]",2.2335,rectangle
,,,,,,,,,,,,,FF,,,,,,,,0.833,,,,,,,,,,,,,,,,,,,,,,60f974cd86441b6d038c484f,61036ed1db302659b0568e66,2021-07-30_00h16.36.359,Simcolourproject_2stim_asymm_v5,2020.2.10,Win32,60,61025ae37ef11b136ea224fe,,,,,,,,,1015,115,63,1,0,0,response1disk,,6,-27,0,1,0,0,rectangle,-27,0,1,0,0,-27,0,1,0,0,1,1,161,112,1,,,,,,,,
,,,,,,,,,,,,,FF,,,,,,,,1.4839,,,,,,,,,,,,,,,,,,,,,,60f974cd86441b6d038c484f,61036ed1db302659b0568e66,2021-07-30_00h16.36.359,Simcolourproject_2stim_asymm_v5,2020.2.10,Win32,60,61025ae37ef11b136ea224fe,,,,,,,,,820,101,-72,1,0,0,response3disk,,5,12,-16,1,0,0,rectangle,12,-16,1,0,0,12,-16,1,0,0,1,2,162,107,1,,,,,,,,
,,,,,,,,,,,,,FF,,,,,,,,1.915,,,,,,,,,,,,,,,,,,,,,,60f974cd86441b6d038c484f,61036ed1db302659b0568e66,2021-07-30_00h16.36.359,Simcolourproject_2stim_asymm_v5,2020.2.10,Win32,60,61025ae37ef11b136ea224fe,,,,,,,,,4330,91,43,1,0,0,response1disk,,6,2,-7,1,0,0,rectangle,2,-7,1,0,0,2,-7,1,0,0,1,3,163,29,1,,,,,,,,
,,,,,,,,,,,,,FF,,,,,,,,3.6527,,,,,,,,,,,,,,,,,,,,,,60f974cd86441b6d038c484f,61036ed1db302659b0568e66,2021-07-30_00h16.36.359,Simcolourproject_2stim_asymm_v5,2020.2.10,Win32,60,61025ae37ef11b136ea224fe,,,,,,,,,2171,39,-113,1,0,0,response3disk,,4,-19,6,1,0,0,rectangle,-19,6,1,0,0,-19,6,1,0,0,1,4,164,37,1,,,,,,,,
,,,,,,,,,,,,,FF,,,,,,,,1.1646,,,,,,,,,,,,,,,,,,,,,,60f974cd86441b6d038c484f,61036ed1db302659b0568e66,2021-07-30_00h16.36.359,Simcolourproject_2stim_asymm_v5,2020.2.10,Win32,60,61025ae37ef11b136ea224fe,,,,,,,,,3469,-99,-61,1,0,0,response5disk,,2,15,-15,1,0,0,rectangle,15,-15,1,0,0,15,-15,1,0,0,1,5,165,136,1,,,,,,,,
,,,,,,,,,,,,,FF,,,,,,,,1.0311,,,,,,,,,,,,,,,,,,,,,,60f974cd86441b6d038c484f,61036ed1db302659b0568e66,2021-07-30_00h16.36.359,Simcolourproject_2stim_asymm_v5,2020.2.10,Win32,60,61025ae37ef11b136ea224fe,,,,,,,,,1703,104,-40,1,0,0,response3disk,,5,11,-8,1,0,0,rectangle,11,-8,1,0,0,11,-8,1,0,0,1,6,166,153,1,,,,,,,,
,,,,,,,,,,,,,FF,,,,,,,,0.8313,,,,,,,,,,,,,,,,,,,,,,60f974cd86441b6d038c484f,61036ed1db302659b0568e66,2021-07-30_00h16.36.359,Simcolourproject_2stim_asymm_v5,2020.2.10,Win32,60,61025ae37ef11b136ea224fe,,,,,,,,,3892,115,55,1,0,0,response1disk,,6,-22,-15,1,0,0,rectangle,-22,-15,1,0,0,-22,-15,1,0,0,1,7,167,99,1,,,,,,,,
,,,,,,,,,,,,,FF,,,,,,,,1.2146,,,,,,,,,,,,,,,,,,,,,,60f974cd86441b6d038c484f,61036ed1db302659b0568e66,2021-07-30_00h16.36.359,Simcolourproject_2stim_asymm_v5,2020.2.10,Win32,60,61025ae37ef11b136ea224fe,,,,,,,,,2542,-92,-54,1,0,0,response5disk,,2,13,-9,1,0,0,rectangle,13,-9,1,0,0,13,-9,1,0,0,1,8,168,40,1,,,,,,,,
,,,,,,,,,,,,,FF,,,,,,,,2.0024,,,,,,,,,,,,,,,,,,,,,,60f974cd86441b6d038c484f,61036ed1db302659b0568e66,2021-07-30_00h16.36.359,Simcolourproject_2stim_asymm_v5,2020.2.10,Win32,60,61025ae37ef11b136ea224fe,,,,,,,,,1476,111,-72,1,0,0,response3disk,,5,17,-3,1,0,0,rectangle,17,-3,1,0,0,17,-3,1,0,0,1,9,169,61,1,,,,,,,,
,,,,,,,,,,,,,FF,,,,,,,,1.1694,,,,,,,,,,,,,,,,,,,,,,60f974cd86441b6d038c484f,61036ed1db302659b0568e66,2021-07-30_00h16.36.359,Simcolourproject_2stim_asymm_v5,2020.2.10,Win32,60,61025ae37ef11b136ea224fe,,,,,,,,,2700,49,-107,1,0,0,response3disk,,4,-10,-9,1,0,0,rectangle,87,-54,1,0,0,20,-1,1,0,0,1,10,170,69,1,,response3disk_3,TRUE,5,5,"[279,175,183,161,150,129,222,281,171,253,124,304,7,283,154,47,285,235,11,92]",1.5173,rectangle
,,,,,,,,,,,,,FF,,,,,,,,3.9668,,,,,,,,,,,,,,,,,,,,,,60f974cd86441b6d038c484f,61036ed1db302659b0568e66,2021-07-30_00h16.36.359,Simcolourproject_2stim_asymm_v5,2020.2.10,Win32,60,61025ae37ef11b136ea224fe,,,,,,,,,403,115,63,1,0,0,response1disk,,6,41,0,1,0,0,rectangle,41,0,1,0,0,41,0,1,0,0,1,11,171,148,1,,,,,,,,
,,,,,,,,,,,,,FF,,,,,,,,2.0337,,,,,,,,,,,,,,,,,,,,,,60f974cd86441b6d038c484f,61036ed1db302659b0568e66,2021-07-30_00h16.36.359,Simcolourproject_2stim_asymm_v5,2020.2.10,Win32,60,61025ae37ef11b136ea224fe,,,,,,,,,3175,52,-118,1,0,0,response3disk,,4,1,-9,1,0,0,rectangle,1,-9,1,0,0,1,-9,1,0,0,1,12,172,111,1,,,,,,,,
,,,,,,,,,,,,,FF,,,,,,,,3.6027,,,,,,,,,,,,,,,,,,,,,,60f974cd86441b6d038c484f,61036ed1db302659b0568e66,2021-07-30_00h16.36.359,Simcolourproject_2stim_asymm_v5,2020.2.10,Win32,60,61025ae37ef11b136ea224fe,,,,,,,,,698,104,-100,1,0,0,response3disk,,5,7,-18,1,0,0,rectangle,7,-18,1,0,0,7,-18,1,0,0,1,13,173,34,1,,,,,,,,
,,,,,,,,,,,,,FF,,,,,,,,1.1836,,,,,,,,,,,,,,,,,,,,,,60f974cd86441b6d038c484f,61036ed1db302659b0568e66,2021-07-30_00h16.36.359,Simcolourproject_2stim_asymm_v5,2020.2.10,Win32,60,61025ae37ef11b136ea224fe,,,,,,,,,1095,165,32,1,0,0,response1disk,,6,38,-3,1,0,0,rectangle,-76,-136,1,0,0,2,17,1,0,0,1,14,174,78,1,,response5disk_3,TRUE,3,3,"[279,175,183,161,150,129,222,281,171,253,124,304,7,283,154,47,285,235,11,92]",2.0168,rectangle
,,,,,,,,,,,,,FF,,,,,,,,0.9688,,,,,,,,,,,,,,,,,,,,,,60f974cd86441b6d038c484f,61036ed1db302659b0568e66,2021-07-30_00h16.36.359,Simcolourproject_2stim_asymm_v5,2020.2.10,Win32,60,61025ae37ef11b136ea224fe,,,,,,,,,3244,-127,-80,1,0,0,response5disk,,2,-6,1,1,0,0,rectangle,-6,1,1,0,0,-6,1,1,0,0,1,15,175,21,1,,,,,,,,
,,,,,,,,,,,,,FF,,,,,,,,3.5816,,,,,,,,,,,,,,,,,,,,,,60f974cd86441b6d038c484f,61036ed1db302659b0568e66,2021-07-30_00h16.36.359,Simcolourproject_2stim_asymm_v5,2020.2.10,Win32,60,61025ae37ef11b136ea224fe,,,,,,,,,1396,97,-42,1,0,0,response3disk,,5,-2,10,1,0,0,rectangle,-2,10,1,0,0,-2,10,1,0,0,1,16,176,157,1,,,,,,,,
,,,,,,,,,,,,,FF,,,,,,,,1.2329,,,,,,,,,,,,,,,,,,,,,,60f974cd86441b6d038c484f,61036ed1db302659b0568e66,2021-07-30_00h16.36.359,Simcolourproject_2stim_asymm_v5,2020.2.10,Win32,60,61025ae37ef11b136ea224fe,,,,,,,,,538,71,122,1,0,0,response1disk,,7,14,15,1,0,0,rectangle,14,15,1,0,0,14,15,1,0,0,1,17,177,102,1,,,,,,,,
,,,,,,,,,,,,,FF,,,,,,,,0.8005,,,,,,,,,,,,,,,,,,,,,,60f974cd86441b6d038c484f,61036ed1db302659b0568e66,2021-07-30_00h16.36.359,Simcolourproject_2stim_asymm_v5,2020.2.10,Win32,60,61025ae37ef11b136ea224fe,,,,,,,,,3414,58,150,1,0,0,response1disk,,7,-6,6,1,0,0,rectangle,-6,6,1,0,0,-6,6,1,0,0,1,18,178,83,1,,,,,,,,
,,,,,,,,,,,,,FF,,,,,,,,2.0003,,,,,,,,,,,,,,,,,,,,,,60f974cd86441b6d038c484f,61036ed1db302659b0568e66,2021-07-30_00h16.36.359,Simcolourproject_2stim_asymm_v5,2020.2.10,Win32,60,61025ae37ef11b136ea224fe,,,,,,,,,1316,123,40,1,0,0,response1disk,,6,39,8,1,0,0,rectangle,39,8,1,0,0,39,8,1,0,0,1,19,179,142,1,,,,,,,,
,,,,,,,,,,,,,FF,,,,,,,,1.4841,,,,,,,,,,,,,,,,,,,,,,60f974cd86441b6d038c484f,61036ed1db302659b0568e66,2021-07-30_00h16.36.359,Simcolourproject_2stim_asymm_v5,2020.2.10,Win32,60,61025ae37ef11b136ea224fe,,,,,,,,,1801,67,-35,1,0,0,response3disk,,5,38,2,1,0,0,rectangle,38,2,1,0,0,38,2,1,0,0,1,20,180,46,1,,,,,,,,
,,,,,,,,,,,,,FF,,,,,,,,1.4836,,,,,,,,,,,,,,,,,,,,,,60f974cd86441b6d038c484f,61036ed1db302659b0568e66,2021-07-30_00h16.36.359,Simcolourproject_2stim_asymm_v5,2020.2.10,Win32,60,61025ae37ef11b136ea224fe,,,,,,,,,3141,81,-43,1,0,0,response3disk,,5,6,-6,1,0,0,rectangle,6,-6,1,0,0,6,-6,1,0,0,1,21,181,90,1,,,,,,,,
,,,,,,,,,,,,,FF,,,,,,,,2.1814,,,,,,,,,,,,,,,,,,,,,,60f974cd86441b6d038c484f,61036ed1db302659b0568e66,2021-07-30_00h16.36.359,Simcolourproject_2stim_asymm_v5,2020.2.10,Win32,60,61025ae37ef11b136ea224fe,,,,,,,,,1894,-108,-72,1,0,0,response5disk,,2,-6,-11,1,0,0,rectangle,138,63,1,0,0,18,3,1,0,0,1,22,182,16,1,,response1disk_3,TRUE,6,6,"[279,175,183,161,150,129,222,281,171,253,124,304,7,283,154,47,285,235,11,92]",1.1664,rectangle
,,,,,,,,,,,,,FF,,,,,,,,3.6824,,,,,,,,,,,,,,,,,,,,,,60f974cd86441b6d038c484f,61036ed1db302659b0568e66,2021-07-30_00h16.36.359,Simcolourproject_2stim_asymm_v5,2020.2.10,Win32,60,61025ae37ef11b136ea224fe,,,,,,,,,119,126,79,1,0,0,response1disk,,6,32,16,1,0,0,rectangle,32,16,1,0,0,32,16,1,0,0,1,23,183,131,1,,,,,,,,
,,,,,,,,,,,,,FF,,,,,,,,1.1505,,,,,,,,,,,,,,,,,,,,,,60f974cd86441b6d038c484f,61036ed1db302659b0568e66,2021-07-30_00h16.36.359,Simcolourproject_2stim_asymm_v5,2020.2.10,Win32,60,61025ae37ef11b136ea224fe,,,,,,,,,4353,-34,-108,1,0,0,response5disk,,3,13,-6,1,0,0,rectangle,13,-6,1,0,0,13,-6,1,0,0,1,24,184,1,1,,,,,,,,
,,,,,,,,,,,,,FF,,,,,,,,1.0526,,,,,,,,,,,,,,,,,,,,,,60f974cd86441b6d038c484f,61036ed1db302659b0568e66,2021-07-30_00h16.36.359,Simcolourproject_2stim_asymm_v5,2020.2.10,Win32,60,61025ae37ef11b136ea224fe,,,,,,,,,534,135,74,1,0,0,response1disk,,6,0,2,1,0,0,rectangle,0,2,1,0,0,0,2,1,0,0,1,25,185,120,1,,,,,,,,
,,,,,,,,,,,,,FF,,,,,,,,0.8833,,,,,,,,,,,,,,,,,,,,,,60f974cd86441b6d038c484f,61036ed1db302659b0568e66,2021-07-30_00h16.36.359,Simcolourproject_2stim_asymm_v5,2020.2.10,Win32,60,61025ae37ef11b136ea224fe,,,,,,,,,3140,-56,-92,1,0,0,response5disk,,3,-21,4,1,0,0,rectangle,-21,4,1,0,0,-21,4,1,0,0,1,26,186,143,1,,,,,,,,
,,,,,,,,,,,,,FF,,,,,,,,1.2977,,,,,,,,,,,,,,,,,,,,,,60f974cd86441b6d038c484f,61036ed1db302659b0568e66,2021-07-30_00h16.36.359,Simcolourproject_2stim_asymm_v5,2020.2.10,Win32,60,61025ae37ef11b136ea224fe,,,,,,,,,1144,109,-33,1,0,0,response3disk,,5,37,-4,1,0,0,rectangle,37,-4,1,0,0,37,-4,1,0,0,1,27,187,32,1,,,,,,,,
,,,,,,,,,,,,,FF,,,,,,,,0.7501,,,,,,,,,,,,,,,,,,,,,,60f974cd86441b6d038c484f,61036ed1db302659b0568e66,2021-07-30_00h16.36.359,Simcolourproject_2stim_asymm_v5,2020.2.10,Win32,60,61025ae37ef11b136ea224fe,,,,,,,,,697,119,52,1,0,0,response1disk,,6,27,15,1,0,0,rectangle,27,15,1,0,0,27,15,1,0,0,1,28,188,11,1,,,,,,,,
,,,,,,,,,,,,,FF,,,,,,,,1.9167,,,,,,,,,,,,,,,,,,,,,,60f974cd86441b6d038c484f,61036ed1db302659b0568e66,2021-07-30_00h16.36.359,Simcolourproject_2stim_asymm_v5,2020.2.10,Win32,60,61025ae37ef11b136ea224fe,,,,,,,,,3623,61,-113,1,0,0,response3disk,,4,5,1,1,0,0,rectangle,5,1,1,0,0,5,1,1,0,0,1,29,189,4,1,,,,,,,,
,,,,,,,,,,,,,FF,,,,,,,,2.3024,,,,,,,,,,,,,,,,,,,,,,60f974cd86441b6d038c484f,61036ed1db302659b0568e66,2021-07-30_00h16.36.359,Simcolourproject_2stim_asymm_v5,2020.2.10,Win32,60,61025ae37ef11b136ea224fe,,,,,,,,,2129,76,120,1,0,0,response1disk,,7,26,18,1,0,0,rectangle,26,18,1,0,0,26,18,1,0,0,1,30,190,105,1,,,,,,,,
,,,,,,,,,,,,,FF,,,,,,,,0.517,,,,,,,,,,,,,,,,,,,,,,60f974cd86441b6d038c484f,61036ed1db302659b0568e66,2021-07-30_00h16.36.359,Simcolourproject_2stim_asymm_v5,2020.2.10,Win32,60,61025ae37ef11b136ea224fe,,,,,,,,,1043,56,126,1,0,0,response1disk,,7,18,6,1,0,0,rectangle,18,6,1,0,0,18,6,1,0,0,1,31,191,73,1,,,,,,,,
,,,,,,,,,,,,,FF,,,,,,,,1.6999,,,,,,,,,,,,,,,,,,,,,,60f974cd86441b6d038c484f,61036ed1db302659b0568e66,2021-07-30_00h16.36.359,Simcolourproject_2stim_asymm_v5,2020.2.10,Win32,60,61025ae37ef11b136ea224fe,,,,,,,,,4170,41,-112,1,0,0,response3disk,,4,-5,-20,1,0,0,rectangle,-5,-20,1,0,0,-5,-20,1,0,0,1,32,192,108,1,,,,,,,,
,,,,,,,,,,,,,FF,,,,,,,,1.4863,,,,,,,,,,,,,,,,,,,,,,60f974cd86441b6d038c484f,61036ed1db302659b0568e66,2021-07-30_00h16.36.359,Simcolourproject_2stim_asymm_v5,2020.2.10,Win32,60,61025ae37ef11b136ea224fe,,,,,,,,,4198,73,125,1,0,0,response1disk,,7,10,19,1,0,0,rectangle,10,19,1,0,0,10,19,1,0,0,1,33,193,48,1,,,,,,,,
,,,,,,,,,,,,,FF,,,,,,,,1.4975,,,,,,,,,,,,,,,,,,,,,,60f974cd86441b6d038c484f,61036ed1db302659b0568e66,2021-07-30_00h16.36.359,Simcolourproject_2stim_asymm_v5,2020.2.10,Win32,60,61025ae37ef11b136ea224fe,,,,,,,,,413,71,124,1,0,0,response1disk,,7,28,4,1,0,0,rectangle,28,4,1,0,0,28,4,1,0,0,1,34,194,72,1,,,,,,,,
,,,,,,,,,,,,,FF,,,,,,,,0.7649,,,,,,,,,,,,,,,,,,,,,,60f974cd86441b6d038c484f,61036ed1db302659b0568e66,2021-07-30_00h16.36.359,Simcolourproject_2stim_asymm_v5,2020.2.10,Win32,60,61025ae37ef11b136ea224fe,,,,,,,,,1079,42,128,1,0,0,response1disk,,7,25,5,1,0,0,rectangle,25,5,1,0,0,25,5,1,0,0,1,35,195,0,1,,,,,,,,
,,,,,,,,,,,,,FF,,,,,,,,0.667,,,,,,,,,,,,,,,,,,,,,,60f974cd86441b6d038c484f,61036ed1db302659b0568e66,2021-07-30_00h16.36.359,Simcolourproject_2stim_asymm_v5,2020.2.10,Win32,60,61025ae37ef11b136ea224fe,,,,,,,,,2331,55,125,1,0,0,response1disk,,7,22,9,1,0,0,rectangle,22,9,1,0,0,22,9,1,0,0,1,36,196,19,1,,,,,,,,
,,,,,,,,,,,,,FF,,,,,,,,2.0148,,,,,,,,,,,,,,,,,,,,,,60f974cd86441b6d038c484f,61036ed1db302659b0568e66,2021-07-30_00h16.36.359,Simcolourproject_2stim_asymm_v5,2020.2.10,Win32,60,61025ae37ef11b136ea224fe,,,,,,,,,196,57,-112,1,0,0,response3disk,,4,16,-3,1,0,0,rectangle,16,-3,1,0,0,16,-3,1,0,0,1,37,197,75,1,,,,,,,,
,,,,,,,,,,,,,FF,,,,,,,,1.1337,,,,,,,,,,,,,,,,,,,,,,60f974cd86441b6d038c484f,61036ed1db302659b0568e66,2021-07-30_00h16.36.359,Simcolourproject_2stim_asymm_v5,2020.2.10,Win32,60,61025ae37ef11b136ea224fe,,,,,,,,,2827,-44,-108,1,0,0,response5disk,,3,-9,-2,1,0,0,rectangle,-9,-2,1,0,0,-9,-2,1,0,0,1,38,198,113,1,,,,,,,,
,,,,,,,,,,,,,FF,,,,,,,,0.8476,,,,,,,,,,,,,,,,,,,,,,60f974cd86441b6d038c484f,61036ed1db302659b0568e66,2021-07-30_00h16.36.359,Simcolourproject_2stim_asymm_v5,2020.2.10,Win32,60,61025ae37ef11b136ea224fe,,,,,,,,,3471,-98,-63,1,0,0,response5disk,,2,18,8,1,0,0,rectangle,18,8,1,0,0,18,8,1,0,0,1,39,199,45,1,,,,,,,,
,,,,,,,,,,,,,FF,,,,,,,,1.5478,,,,,,,,,,,,,,,,,,,,,,60f974cd86441b6d038c484f,61036ed1db302659b0568e66,2021-07-30_00h16.36.359,Simcolourproject_2stim_asymm_v5,2020.2.10,Win32,60,61025ae37ef11b136ea224fe,,,,,,,,,1567,138,76,1,0,0,response1disk,,6,26,-8,1,0,0,rectangle,26,-8,1,0,0,26,-8,1,0,0,1,40,200,126,1,,,,,,,,
,,,,,,,,,,,,,FF,,,,,,,,0.6991,,,,,,,,,,,,,,,,,,,,,,60f974cd86441b6d038c484f,61036ed1db302659b0568e66,2021-07-30_00h16.36.359,Simcolourproject_2stim_asymm_v5,2020.2.10,Win32,60,61025ae37ef11b136ea224fe,,,,,,,,,948,57,141,1,0,0,response1disk,,7,43,6,1,0,0,rectangle,43,6,1,0,0,43,6,1,0,0,1,41,201,132,1,,,,,,,,
,,,,,,,,,,,,,FF,,,,,,,,1.1501,,,,,,,,,,,,,,,,,,,,,,60f974cd86441b6d038c484f,61036ed1db302659b0568e66,2021-07-30_00h16.36.359,Simcolourproject_2stim_asymm_v5,2020.2.10,Win32,60,61025ae37ef11b136ea224fe,,,,,,,,,3707,-115,41,1,0,0,response7disk,,1,0,-13,1,0,0,rectangle,0,-13,1,0,0,0,-13,1,0,0,1,42,202,141,1,,,,,,,,
,,,,,,,,,,,,,FF,,,,,,,,0.8334,,,,,,,,,,,,,,,,,,,,,,60f974cd86441b6d038c484f,61036ed1db302659b0568e66,2021-07-30_00h16.36.359,Simcolourproject_2stim_asymm_v5,2020.2.10,Win32,60,61025ae37ef11b136ea224fe,,,,,,,,,2311,140,46,1,0,0,response1disk,,6,28,4,1,0,0,rectangle,28,4,1,0,0,28,4,1,0,0,1,43,203,82,1,,,,,,,,
,,,,,,,,,,,,,FF,,,,,,,,2.2509,,,,,,,,,,,,,,,,,,,,,,60f974cd86441b6d038c484f,61036ed1db302659b0568e66,2021-07-30_00h16.36.359,Simcolourproject_2stim_asymm_v5,2020.2.10,Win32,60,61025ae37ef11b136ea224fe,,,,,,,,,3207,128,47,1,0,0,response1disk,,6,35,4,1,0,0,rectangle,35,4,1,0,0,35,4,1,0,0,1,44,204,87,1,,,,,,,,
,,,,,,,,,,,,,FF,,,,,,,,1.8525,,,,,,,,,,,,,,,,,,,,,,60f974cd86441b6d038c484f,61036ed1db302659b0568e66,2021-07-30_00h16.36.359,Simcolourproject_2stim_asymm_v5,2020.2.10,Win32,60,61025ae37ef11b136ea224fe,,,,,,,,,2383,160,57,1,0,0,response1disk,,6,39,-11,1,0,0,rectangle,39,-11,1,0,0,39,-11,1,0,0,1,45,205,127,1,,,,,,,,
,,,,,,,,,,,,,FF,,,,,,,,1.0503,,,,,,,,,,,,,,,,,,,,,,60f974cd86441b6d038c484f,61036ed1db302659b0568e66,2021-07-30_00h16.36.359,Simcolourproject_2stim_asymm_v5,2020.2.10,Win32,60,61025ae37ef11b136ea224fe,,,,,,,,,7,-49,-129,1,0,0,response5disk,,3,25,8,1,0,0,rectangle,25,8,1,0,0,25,8,1,0,0,1,46,206,74,1,,,,,,,,
,,,,,,,,,,,,,FF,,,,,,,,1,,,,,,,,,,,,,,,,,,,,,,60f974cd86441b6d038c484f,61036ed1db302659b0568e66,2021-07-30_00h16.36.359,Simcolourproject_2stim_asymm_v5,2020.2.10,Win32,60,61025ae37ef11b136ea224fe,,,,,,,,,718,-66,-135,1,0,0,response5disk,,3,4,-5,1,0,0,rectangle,4,-5,1,0,0,4,-5,1,0,0,1,47,207,38,1,,,,,,,,
,,,,,,,,,,,,,FF,,,,,,,,1.4522,,,,,,,,,,,,,,,,,,,,,,60f974cd86441b6d038c484f,61036ed1db302659b0568e66,2021-07-30_00h16.36.359,Simcolourproject_2stim_asymm_v5,2020.2.10,Win32,60,61025ae37ef11b136ea224fe,,,,,,,,,3323,129,68,1,0,0,response1disk,,6,30,4,1,0,0,rectangle,30,4,1,0,0,30,4,1,0,0,1,48,208,56,1,,,,,,,,
,,,,,,,,,,,,,FF,,,,,,,,5.1356,,,,,,,,,,,,,,,,,,,,,,60f974cd86441b6d038c484f,61036ed1db302659b0568e66,2021-07-30_00h16.36.359,Simcolourproject_2stim_asymm_v5,2020.2.10,Win32,60,61025ae37ef11b136ea224fe,,,,,,,,,10,-63,-101,1,0,0,response5disk,,3,-21,-9,1,0,0,rectangle,-21,-9,1,0,0,-21,-9,1,0,0,1,49,209,150,1,,,,,,,,
,,,,,,,,,,,,,FF,,,,,,,,3.9174,,,,,,,,,,,,,,,,,,,,,,60f974cd86441b6d038c484f,61036ed1db302659b0568e66,2021-07-30_00h16.36.359,Simcolourproject_2stim_asymm_v5,2020.2.10,Win32,60,61025ae37ef11b136ea224fe,,,,,,,,,2560,145,55,1,0,0,response1disk,,6,39,16,1,0,0,rectangle,39,16,1,0,0,39,16,1,0,0,1,50,210,123,1,,,,,,,,
,,,,,,,,,,,,,FF,,,,,,,,2.5999,,,,,,,,,,,,,,,,,,,,,,60f974cd86441b6d038c484f,61036ed1db302659b0568e66,2021-07-30_00h16.36.359,Simcolourproject_2stim_asymm_v5,2020.2.10,Win32,60,61025ae37ef11b136ea224fe,,,,,,,,,951,110,-88,1,0,0,response3disk,,5,26,-10,1,0,0,rectangle,26,-10,1,0,0,26,-10,1,0,0,1,51,211,96,1,,,,,,,,
,,,,,,,,,,,,,FF,,,,,,,,1.6,,,,,,,,,,,,,,,,,,,,,,60f974cd86441b6d038c484f,61036ed1db302659b0568e66,2021-07-30_00h16.36.359,Simcolourproject_2stim_asymm_v5,2020.2.10,Win32,60,61025ae37ef11b136ea224fe,,,,,,,,,2002,125,43,1,0,0,response1disk,,6,42,-1,1,0,0,rectangle,42,-1,1,0,0,42,-1,1,0,0,1,52,212,30,1,,,,,,,,
,,,,,,,,,,,,,FF,,,,,,,,2.5313,,,,,,,,,,,,,,,,,,,,,,60f974cd86441b6d038c484f,61036ed1db302659b0568e66,2021-07-30_00h16.36.359,Simcolourproject_2stim_asymm_v5,2020.2.10,Win32,60,61025ae37ef11b136ea224fe,,,,,,,,,1246,102,41,1,0,0,response1disk,,6,43,19,1,0,0,rectangle,43,19,1,0,0,43,19,1,0,0,1,53,213,23,1,,,,,,,,
,,,,,,,,,,,,,FF,,,,,,,,1.0668,,,,,,,,,,,,,,,,,,,,,,60f974cd86441b6d038c484f,61036ed1db302659b0568e66,2021-07-30_00h16.36.359,Simcolourproject_2stim_asymm_v5,2020.2.10,Win32,60,61025ae37ef11b136ea224fe,,,,,,,,,984,49,-113,1,0,0,response3disk,,4,24,-16,1,0,0,rectangle,24,-16,1,0,0,24,-16,1,0,0,1,54,214,70,1,,,,,,,,
,,,,,,,,,,,,,FF,,,,,,,,1.1649,,,,,,,,,,,,,,,,,,,,,,60f974cd86441b6d038c484f,61036ed1db302659b0568e66,2021-07-30_00h16.36.359,Simcolourproject_2stim_asymm_v5,2020.2.10,Win32,60,61025ae37ef11b136ea224fe,,,,,,,,,785,-55,-124,1,0,0,response5disk,,3,-8,-4,1,0,0,rectangle,-8,-4,1,0,0,-8,-4,1,0,0,1,55,215,15,1,,,,,,,,
,,,,,,,,,,,,,FF,,,,,,,,1.1999,,,,,,,,,,,,,,,,,,,,,,60f974cd86441b6d038c484f,61036ed1db302659b0568e66,2021-07-30_00h16.36.359,Simcolourproject_2stim_asymm_v5,2020.2.10,Win32,60,61025ae37ef11b136ea224fe,,,,,,,,,2582,66,127,1,0,0,response1disk,,7,7,3,1,0,0,rectangle,7,3,1,0,0,7,3,1,0,0,1,56,216,57,1,,,,,,,,
,,,,,,,,,,,,,FF,,,,,,,,0.9668,,,,,,,,,,,,,,,,,,,,,,60f974cd86441b6d038c484f,61036ed1db302659b0568e66,2021-07-30_00h16.36.359,Simcolourproject_2stim_asymm_v5,2020.2.10,Win32,60,61025ae37ef11b136ea224fe,,,,,,,,,2260,138,73,1,0,0,response1disk,,6,31,-5,1,0,0,rectangle,31,-5,1,0,0,31,-5,1,0,0,1,57,217,118,1,,,,,,,,
,,,,,,,,,,,,,FF,,,,,,,,1.8356,,,,,,,,,,,,,,,,,,,,,,60f974cd86441b6d038c484f,61036ed1db302659b0568e66,2021-07-30_00h16.36.359,Simcolourproject_2stim_asymm_v5,2020.2.10,Win32,60,61025ae37ef11b136ea224fe,,,,,,,,,4127,-34,-123,1,0,0,response5disk,,3,11,-11,1,0,0,rectangle,11,-11,1,0,0,11,-11,1,0,0,1,58,218,52,1,,,,,,,,
,,,,,,,,,,,,,FF,,,,,,,,9.217,,,,,,,,,,,,,,,,,,,,,,60f974cd86441b6d038c484f,61036ed1db302659b0568e66,2021-07-30_00h16.36.359,Simcolourproject_2stim_asymm_v5,2020.2.10,Win32,60,61025ae37ef11b136ea224fe,,,,,,,,,58,102,-33,1,0,0,response3disk,,5,20,6,1,0,0,rectangle,20,6,1,0,0,20,6,1,0,0,1,59,219,22,1,,,,,,,,
,,,,,,,,,,,,,FF,,,,,,,,1.0506,,,,,,,,,,,,,,,,,,,,,,60f974cd86441b6d038c484f,61036ed1db302659b0568e66,2021-07-30_00h16.36.359,Simcolourproject_2stim_asymm_v5,2020.2.10,Win32,60,61025ae37ef11b136ea224fe,,,,,,,,,2189,119,-35,1,0,0,response3disk,,5,16,-14,1,0,0,rectangle,16,-14,1,0,0,16,-14,1,0,0,1,60,220,12,1,,,,,,,,
,,,,,,,,,,,,,FF,,,,,,,,0.8342,,,,,,,,,,,,,,,,,,,,,,60f974cd86441b6d038c484f,61036ed1db302659b0568e66,2021-07-30_00h16.36.359,Simcolourproject_2stim_asymm_v5,2020.2.10,Win32,60,61025ae37ef11b136ea224fe,,,,,,,,,4313,169,78,1,0,0,response1disk,,6,33,-5,1,0,0,rectangle,142,69,1,0,0,0,-16,1,0,0,1,61,221,124,1,,response1disk_3,TRUE,6,6,"[279,175,183,161,150,129,222,281,171,253,124,304,7,283,154,47,285,235,11,92]",2.1335,rectangle
,,,,,,,,,,,,,FF,,,,,,,,1.0841,,,,,,,,,,,,,,,,,,,,,,60f974cd86441b6d038c484f,61036ed1db302659b0568e66,2021-07-30_00h16.36.359,Simcolourproject_2stim_asymm_v5,2020.2.10,Win32,60,61025ae37ef11b136ea224fe,,,,,,,,,3795,124,45,1,0,0,response1disk,,6,27,-12,1,0,0,rectangle,27,-12,1,0,0,27,-12,1,0,0,1,62,222,139,1,,,,,,,,
,,,,,,,,,,,,,FF,,,,,,,,1.134,,,,,,,,,,,,,,,,,,,,,,60f974cd86441b6d038c484f,61036ed1db302659b0568e66,2021-07-30_00h16.36.359,Simcolourproject_2stim_asymm_v5,2020.2.10,Win32,60,61025ae37ef11b136ea224fe,,,,,,,,,2749,138,73,1,0,0,response1disk,,6,26,-5,1,0,0,rectangle,26,-5,1,0,0,26,-5,1,0,0,1,63,223,50,1,,,,,,,,
,,,,,,,,,,,,,FF,,,,,,,,1.336,,,,,,,,,,,,,,,,,,,,,,60f974cd86441b6d038c484f,61036ed1db302659b0568e66,2021-07-30_00h16.36.359,Simcolourproject_2stim_asymm_v5,2020.2.10,Win32,60,61025ae37ef11b136ea224fe,,,,,,,,,283,-45,-110,1,0,0,response5disk,,3,-9,-10,1,0,0,rectangle,-9,-10,1,0,0,-9,-10,1,0,0,1,64,224,27,1,,,,,,,,
,,,,,,,,,,,,,FF,,,,,,,,1.2001,,,,,,,,,,,,,,,,,,,,,,60f974cd86441b6d038c484f,61036ed1db302659b0568e66,2021-07-30_00h16.36.359,Simcolourproject_2stim_asymm_v5,2020.2.10,Win32,60,61025ae37ef11b136ea224fe,,,,,,,,,4146,-113,41,1,0,0,response7disk,,1,-33,6,1,0,0,rectangle,-33,6,1,0,0,-33,6,1,0,0,1,65,225,106,1,,,,,,,,
,,,,,,,,,,,,,FF,,,,,,,,0.8979,,,,,,,,,,,,,,,,,,,,,,60f974cd86441b6d038c484f,61036ed1db302659b0568e66,2021-07-30_00h16.36.359,Simcolourproject_2stim_asymm_v5,2020.2.10,Win32,60,61025ae37ef11b136ea224fe,,,,,,,,,368,139,55,1,0,0,response1disk,,6,23,-18,1,0,0,rectangle,23,-18,1,0,0,23,-18,1,0,0,1,66,226,8,1,,,,,,,,
,,,,,,,,,,,,,FF,,,,,,,,1.1144,,,,,,,,,,,,,,,,,,,,,,60f974cd86441b6d038c484f,61036ed1db302659b0568e66,2021-07-30_00h16.36.359,Simcolourproject_2stim_asymm_v5,2020.2.10,Win32,60,61025ae37ef11b136ea224fe,,,,,,,,,2900,-95,-52,1,0,0,response5disk,,2,-18,-11,1,0,0,rectangle,-18,-11,1,0,0,-18,-11,1,0,0,1,67,227,93,1,,,,,,,,
,,,,,,,,,,,,,FF,,,,,,,,0.8322,,,,,,,,,,,,,,,,,,,,,,60f974cd86441b6d038c484f,61036ed1db302659b0568e66,2021-07-30_00h16.36.359,Simcolourproject_2stim_asymm_v5,2020.2.10,Win32,60,61025ae37ef11b136ea224fe,,,,,,,,,4135,125,63,1,0,0,response1disk,,6,29,-3,1,0,0,rectangle,29,-3,1,0,0,29,-3,1,0,0,1,68,228,133,1,,,,,,,,
,,,,,,,,,,,,,FF,,,,,,,,1.5999,,,,,,,,,,,,,,,,,,,,,,60f974cd86441b6d038c484f,61036ed1db302659b0568e66,2021-07-30_00h16.36.359,Simcolourproject_2stim_asymm_v5,2020.2.10,Win32,60,61025ae37ef11b136ea224fe,,,,,,,,,1563,136,82,1,0,0,response1disk,,6,30,3,1,0,0,rectangle,30,3,1,0,0,30,3,1,0,0,1,69,229,151,1,,,,,,,,
,,,,,,,,,,,,,FF,,,,,,,,1.215,,,,,,,,,,,,,,,,,,,,,,60f974cd86441b6d038c484f,61036ed1db302659b0568e66,2021-07-30_00h16.36.359,Simcolourproject_2stim_asymm_v5,2020.2.10,Win32,60,61025ae37ef11b136ea224fe,,,,,,,,,1420,79,124,1,0,0,response1disk,,7,31,6,1,0,0,rectangle,31,6,1,0,0,31,6,1,0,0,1,70,230,114,1,,,,,,,,
,,,,,,,,,,,,,FF,,,,,,,,0.7015,,,,,,,,,,,,,,,,,,,,,,60f974cd86441b6d038c484f,61036ed1db302659b0568e66,2021-07-30_00h16.36.359,Simcolourproject_2stim_asymm_v5,2020.2.10,Win32,60,61025ae37ef11b136ea224fe,,,,,,,,,880,79,121,1,0,0,response1disk,,7,17,6,1,0,0,rectangle,17,6,1,0,0,17,6,1,0,0,1,71,231,140,1,,,,,,,,
,,,,,,,,,,,,,FF,,,,,,,,1.315,,,,,,,,,,,,,,,,,,,,,,60f974cd86441b6d038c484f,61036ed1db302659b0568e66,2021-07-30_00h16.36.359,Simcolourproject_2stim_asymm_v5,2020.2.10,Win32,60,61025ae37ef11b136ea224fe,,,,,,,,,4345,-113,-50,1,0,0,response5disk,,2,12,-13,1,0,0,rectangle,12,-13,1,0,0,12,-13,1,0,0,1,72,232,81,1,,,,,,,,
,,,,,,,,,,,,,FF,,,,,,,,1.2508,,,,,,,,,,,,,,,,,,,,,,60f974cd86441b6d038c484f,61036ed1db302659b0568e66,2021-07-30_00h16.36.359,Simcolourproject_2stim_asymm_v5,2020.2.10,Win32,60,61025ae37ef11b136ea224fe,,,,,,,,,1214,59,-97,1,0,0,response3disk,,4,19,-19,1,0,0,rectangle,19,-19,1,0,0,19,-19,1,0,0,1,73,233,14,1,,,,,,,,
,,,,,,,,,,,,,FF,,,,,,,,0.6498,,,,,,,,,,,,,,,,,,,,,,60f974cd86441b6d038c484f,61036ed1db302659b0568e66,2021-07-30_00h16.36.359,Simcolourproject_2stim_asymm_v5,2020.2.10,Win32,60,61025ae37ef11b136ea224fe,,,,,,,,,684,110,-28,1,0,0,response3disk,,5,19,-17,1,0,0,rectangle,109,-57,1,0,0,14,3,1,0,0,1,74,234,44,1,,response3disk_3,TRUE,5,5,"[279,175,183,161,150,129,222,281,171,253,124,304,7,283,154,47,285,235,11,92]",1.2166,rectangle
,,,,,,,,,,,,,FF,,,,,,,,2.1668,,,,,,,,,,,,,,,,,,,,,,60f974cd86441b6d038c484f,61036ed1db302659b0568e66,2021-07-30_00h16.36.359,Simcolourproject_2stim_asymm_v5,2020.2.10,Win32,60,61025ae37ef11b136ea224fe,,,,,,,,,4123,-60,-107,1,0,0,response5disk,,3,-32,-15,1,0,0,rectangle,-32,-15,1,0,0,-32,-15,1,0,0,1,75,235,24,1,,,,,,,,
,,,,,,,,,,,,,FF,,,,,,,,0.8338,,,,,,,,,,,,,,,,,,,,,,60f974cd86441b6d038c484f,61036ed1db302659b0568e66,2021-07-30_00h16.36.359,Simcolourproject_2stim_asymm_v5,2020.2.10,Win32,60,61025ae37ef11b136ea224fe,,,,,,,,,1529,-100,-42,1,0,0,response5disk,,2,7,11,1,0,0,rectangle,7,11,1,0,0,7,11,1,0,0,1,76,236,59,1,,,,,,,,
,,,,,,,,,,,,,FF,,,,,,,,0.9503,,,,,,,,,,,,,,,,,,,,,,60f974cd86441b6d038c484f,61036ed1db302659b0568e66,2021-07-30_00h16.36.359,Simcolourproject_2stim_asymm_v5,2020.2.10,Win32,60,61025ae37ef11b136ea224fe,,,,,,,,,2938,-92,-52,1,0,0,response5disk,,2,2,-8,1,0,0,rectangle,2,-8,1,0,0,2,-8,1,0,0,1,77,237,146,1,,,,,,,,
,,,,,,,,,,,,,FF,,,,,,,,2.8669,,,,,,,,,,,,,,,,,,,,,,60f974cd86441b6d038c484f,61036ed1db302659b0568e66,2021-07-30_00h16.36.359,Simcolourproject_2stim_asymm_v5,2020.2.10,Win32,60,61025ae37ef11b136ea224fe,,,,,,,,,3887,-53,-97,1,0,0,response5disk,,3,-33,-18,1,0,0,rectangle,-33,-18,1,0,0,-33,-18,1,0,0,1,78,238,110,1,,,,,,,,
,,,,,,,,,,,,,FF,,,,,,,,2.2834,,,,,,,,,,,,,,,,,,,,,,60f974cd86441b6d038c484f,61036ed1db302659b0568e66,2021-07-30_00h16.36.359,Simcolourproject_2stim_asymm_v5,2020.2.10,Win32,60,61025ae37ef11b136ea224fe,,,,,,,,,4237,-46,115,1,0,0,response7disk,,0,-18,10,1,0,0,rectangle,-18,10,1,0,0,-18,10,1,0,0,1,79,239,64,1,,,,,,,,
,,,,,,,,,,,,,FF,,,,,,,,1.0334,,,,,,,,,,,,,,,,,,,,,,60f974cd86441b6d038c484f,61036ed1db302659b0568e66,2021-07-30_00h16.36.359,Simcolourproject_2stim_asymm_v5,2020.2.10,Win32,60,61025ae37ef11b136ea224fe,,,,,,,,,1831,-25,-98,1,0,0,response5disk,,3,-8,5,1,0,0,rectangle,-8,5,1,0,0,-8,5,1,0,0,1,80,240,119,1,,,,,,,,
,,,,,,,,,,,,,FF,,,,,,,,1.0006,,,,,,,,,,,,,,,,,,,,,,60f974cd86441b6d038c484f,61036ed1db302659b0568e66,2021-07-30_00h16.36.359,Simcolourproject_2stim_asymm_v5,2020.2.10,Win32,60,61025ae37ef11b136ea224fe,,,,,,,,,518,104,-52,1,0,0,response3disk,,5,21,0,1,0,0,rectangle,21,0,1,0,0,21,0,1,0,0,1,81,241,109,1,,,,,,,,
,,,,,,,,,,,,,FF,,,,,,,,0.8837,,,,,,,,,,,,,,,,,,,,,,60f974cd86441b6d038c484f,61036ed1db302659b0568e66,2021-07-30_00h16.36.359,Simcolourproject_2stim_asymm_v5,2020.2.10,Win32,60,61025ae37ef11b136ea224fe,,,,,,,,,1304,-41,-97,1,0,0,response5disk,,3,-20,3,1,0,0,rectangle,-20,3,1,0,0,-20,3,1,0,0,1,82,242,152,1,,,,,,,,
,,,,,,,,,,,,,FF,,,,,,,,1.7167,,,,,,,,,,,,,,,,,,,,,,60f974cd86441b6d038c484f,61036ed1db302659b0568e66,2021-07-30_00h16.36.359,Simcolourproject_2stim_asymm_v5,2020.2.10,Win32,60,61025ae37ef11b136ea224fe,,,,,,,,,2003,119,51,1,0,0,response1disk,,6,4,7,1,0,0,rectangle,4,7,1,0,0,4,7,1,0,0,1,83,243,10,1,,,,,,,,
,,,,,,,,,,,,,FF,,,,,,,,1.5999,,,,,,,,,,,,,,,,,,,,,,60f974cd86441b6d038c484f,61036ed1db302659b0568e66,2021-07-30_00h16.36.359,Simcolourproject_2stim_asymm_v5,2020.2.10,Win32,60,61025ae37ef11b136ea224fe,,,,,,,,,1966,-41,-97,1,0,0,response5disk,,3,-6,-19,1,0,0,rectangle,-6,-19,1,0,0,-6,-19,1,0,0,1,84,244,98,1,,,,,,,,
,,,,,,,,,,,,,FF,,,,,,,,0.6997,,,,,,,,,,,,,,,,,,,,,,60f974cd86441b6d038c484f,61036ed1db302659b0568e66,2021-07-30_00h16.36.359,Simcolourproject_2stim_asymm_v5,2020.2.10,Win32,60,61025ae37ef11b136ea224fe,,,,,,,,,158,134,31,1,0,0,response1disk,,6,-7,7,1,0,0,rectangle,-7,7,1,0,0,-7,7,1,0,0,1,85,245,79,1,,,,,,,,
,,,,,,,,,,,,,FF,,,,,,,,0.9167,,,,,,,,,,,,,,,,,,,,,,60f974cd86441b6d038c484f,61036ed1db302659b0568e66,2021-07-30_00h16.36.359,Simcolourproject_2stim_asymm_v5,2020.2.10,Win32,60,61025ae37ef11b136ea224fe,,,,,,,,,2593,-28,-112,1,0,0,response5disk,,3,6,0,1,0,0,rectangle,6,0,1,0,0,6,0,1,0,0,1,86,246,94,1,,,,,,,,
,,,,,,,,,,,,,FF,,,,,,,,0.6834,,,,,,,,,,,,,,,,,,,,,,60f974cd86441b6d038c484f,61036ed1db302659b0568e66,2021-07-30_00h16.36.359,Simcolourproject_2stim_asymm_v5,2020.2.10,Win32,60,61025ae37ef11b136ea224fe,,,,,,,,,458,111,-73,1,0,0,response3disk,,5,40,-6,1,0,0,rectangle,40,-6,1,0,0,40,-6,1,0,0,1,87,247,97,1,,,,,,,,
,,,,,,,,,,,,,FF,,,,,,,,0.7501,,,,,,,,,,,,,,,,,,,,,,60f974cd86441b6d038c484f,61036ed1db302659b0568e66,2021-07-30_00h16.36.359,Simcolourproject_2stim_asymm_v5,2020.2.10,Win32,60,61025ae37ef11b136ea224fe,,,,,,,,,3306,133,53,1,0,0,response1disk,,6,-30,10,1,0,0,rectangle,-30,10,1,0,0,-30,10,1,0,0,1,88,248,35,1,,,,,,,,
,,,,,,,,,,,,,FF,,,,,,,,0.9166,,,,,,,,,,,,,,,,,,,,,,60f974cd86441b6d038c484f,61036ed1db302659b0568e66,2021-07-30_00h16.36.359,Simcolourproject_2stim_asymm_v5,2020.2.10,Win32,60,61025ae37ef11b136ea224fe,,,,,,,,,579,136,55,1,0,0,response1disk,,6,-3,-10,1,0,0,rectangle,-3,-10,1,0,0,-3,-10,1,0,0,1,89,249,13,1,,,,,,,,
,,,,,,,,,,,,,FF,,,,,,,,1.9177,,,,,,,,,,,,,,,,,,,,,,60f974cd86441b6d038c484f,61036ed1db302659b0568e66,2021-07-30_00h16.36.359,Simcolourproject_2stim_asymm_v5,2020.2.10,Win32,60,61025ae37ef11b136ea224fe,,,,,,,,,3915,57,-139,1,0,0,response3disk,,4,6,-1,1,0,0,rectangle,6,-1,1,0,0,6,-1,1,0,0,1,90,250,130,1,,,,,,,,
,,,,,,,,,,,,,FF,,,,,,,,1.683,,,,,,,,,,,,,,,,,,,,,,60f974cd86441b6d038c484f,61036ed1db302659b0568e66,2021-07-30_00h16.36.359,Simcolourproject_2stim_asymm_v5,2020.2.10,Win32,60,61025ae37ef11b136ea224fe,,,,,,,,,497,106,37,1,0,0,response1disk,,6,27,-5,1,0,0,rectangle,27,-5,1,0,0,27,-5,1,0,0,1,91,251,88,1,,,,,,,,
,,,,,,,,,,,,,FF,,,,,,,,3.5509,,,,,,,,,,,,,,,,,,,,,,60f974cd86441b6d038c484f,61036ed1db302659b0568e66,2021-07-30_00h16.36.359,Simcolourproject_2stim_asymm_v5,2020.2.10,Win32,60,61025ae37ef11b136ea224fe,,,,,,,,,1832,-31,-85,1,0,0,response5disk,,3,14,-2,1,0,0,rectangle,-119,59,1,0,0,1,-7,1,0,0,1,92,252,129,1,,response7disk_3,TRUE,1,1,"[279,175,183,161,150,129,222,281,171,253,124,304,7,283,154,47,285,235,11,92]",1.3165,rectangle
,,,,,,,,,,,,,FF,,,,,,,,1.2497,,,,,,,,,,,,,,,,,,,,,,60f974cd86441b6d038c484f,61036ed1db302659b0568e66,2021-07-30_00h16.36.359,Simcolourproject_2stim_asymm_v5,2020.2.10,Win32,60,61025ae37ef11b136ea224fe,,,,,,,,,1619,-43,-75,1,0,0,response5disk,,3,-37,1,1,0,0,rectangle,-37,1,1,0,0,-37,1,1,0,0,1,93,253,36,1,,,,,,,,
,,,,,,,,,,,,,FF,,,,,,,,0.85,,,,,,,,,,,,,,,,,,,,,,60f974cd86441b6d038c484f,61036ed1db302659b0568e66,2021-07-30_00h16.36.359,Simcolourproject_2stim_asymm_v5,2020.2.10,Win32,60,61025ae37ef11b136ea224fe,,,,,,,,,4062,117,-53,1,0,0,response3disk,,5,27,-5,1,0,0,rectangle,27,-5,1,0,0,27,-5,1,0,0,1,94,254,49,1,,,,,,,,
,,,,,,,,,,,,,FF,,,,,,,,1.8499,,,,,,,,,,,,,,,,,,,,,,60f974cd86441b6d038c484f,61036ed1db302659b0568e66,2021-07-30_00h16.36.359,Simcolourproject_2stim_asymm_v5,2020.2.10,Win32,60,61025ae37ef11b136ea224fe,,,,,,,,,4351,-110,39,1,0,0,response7disk,,1,-14,-1,1,0,0,rectangle,-14,-1,1,0,0,-14,-1,1,0,0,1,95,255,67,1,,,,,,,,
,,,,,,,,,,,,,FF,,,,,,,,1.4497,,,,,,,,,,,,,,,,,,,,,,60f974cd86441b6d038c484f,61036ed1db302659b0568e66,2021-07-30_00h16.36.359,Simcolourproject_2stim_asymm_v5,2020.2.10,Win32,60,61025ae37ef11b136ea224fe,,,,,,,,,1937,155,77,1,0,0,response1disk,,6,16,5,1,0,0,rectangle,16,5,1,0,0,16,5,1,0,0,1,96,256,28,1,,,,,,,,
,,,,,,,,,,,,,FF,,,,,,,,0.8029,,,,,,,,,,,,,,,,,,,,,,60f974cd86441b6d038c484f,61036ed1db302659b0568e66,2021-07-30_00h16.36.359,Simcolourproject_2stim_asymm_v5,2020.2.10,Win32,60,61025ae37ef11b136ea224fe,,,,,,,,,4098,-54,-94,1,0,0,response5disk,,3,0,0,1,0,0,rectangle,0,0,1,0,0,0,0,1,0,0,1,97,257,85,1,,,,,,,,
,,,,,,,,,,,,,FF,,,,,,,,0.6834,,,,,,,,,,,,,,,,,,,,,,60f974cd86441b6d038c484f,61036ed1db302659b0568e66,2021-07-30_00h16.36.359,Simcolourproject_2stim_asymm_v5,2020.2.10,Win32,60,61025ae37ef11b136ea224fe,,,,,,,,,3460,94,-54,1,0,0,response3disk,,5,33,6,1,0,0,rectangle,33,6,1,0,0,33,6,1,0,0,1,98,258,65,1,,,,,,,,
,,,,,,,,,,,,,FF,,,,,,,,0.6167,,,,,,,,,,,,,,,,,,,,,,60f974cd86441b6d038c484f,61036ed1db302659b0568e66,2021-07-30_00h16.36.359,Simcolourproject_2stim_asymm_v5,2020.2.10,Win32,60,61025ae37ef11b136ea224fe,,,,,,,,,2581,154,67,1,0,0,response1disk,,6,44,14,1,0,0,rectangle,44,14,1,0,0,44,14,1,0,0,1,99,259,122,1,,,,,,,,
,,,,,,,,,,,,,FF,,,,,,,,0.9332,,,,,,,,,,,,,,,,,,,,,,60f974cd86441b6d038c484f,61036ed1db302659b0568e66,2021-07-30_00h16.36.359,Simcolourproject_2stim_asymm_v5,2020.2.10,Win32,60,61025ae37ef11b136ea224fe,,,,,,,,,352,-95,-43,1,0,0,response5disk,,2,-9,-2,1,0,0,rectangle,-9,-2,1,0,0,-9,-2,1,0,0,1,100,260,62,1,,,,,,,,
,,,,,,,,,,,,,FF,,,,,,,,1.1678,,,,,,,,,,,,,,,,,,,,,,60f974cd86441b6d038c484f,61036ed1db302659b0568e66,2021-07-30_00h16.36.359,Simcolourproject_2stim_asymm_v5,2020.2.10,Win32,60,61025ae37ef11b136ea224fe,,,,,,,,,3559,-86,-43,1,0,0,response5disk,,2,38,-4,1,0,0,rectangle,38,-4,1,0,0,38,-4,1,0,0,1,101,261,63,1,,,,,,,,
,,,,,,,,,,,,,FF,,,,,,,,1.1024,,,,,,,,,,,,,,,,,,,,,,60f974cd86441b6d038c484f,61036ed1db302659b0568e66,2021-07-30_00h16.36.359,Simcolourproject_2stim_asymm_v5,2020.2.10,Win32,60,61025ae37ef11b136ea224fe,,,,,,,,,611,83,-67,1,0,0,response3disk,,5,11,-11,1,0,0,rectangle,11,-11,1,0,0,11,-11,1,0,0,1,102,262,154,1,,,,,,,,
,,,,,,,,,,,,,FF,,,,,,,,0.783,,,,,,,,,,,,,,,,,,,,,,60f974cd86441b6d038c484f,61036ed1db302659b0568e66,2021-07-30_00h16.36.359,Simcolourproject_2stim_asymm_v5,2020.2.10,Win32,60,61025ae37ef11b136ea224fe,,,,,,,,,3176,-52,-109,1,0,0,response5disk,,3,-17,6,1,0,0,rectangle,-17,6,1,0,0,-17,6,1,0,0,1,103,263,135,1,,,,,,,,
,,,,,,,,,,,,,FF,,,,,,,,1.4157,,,,,,,,,,,,,,,,,,,,,,60f974cd86441b6d038c484f,61036ed1db302659b0568e66,2021-07-30_00h16.36.359,Simcolourproject_2stim_asymm_v5,2020.2.10,Win32,60,61025ae37ef11b136ea224fe,,,,,,,,,683,161,61,1,0,0,response1disk,,6,10,-1,1,0,0,rectangle,10,-1,1,0,0,10,-1,1,0,0,1,104,264,89,1,,,,,,,,
,,,,,,,,,,,,,FF,,,,,,,,1.8333,,,,,,,,,,,,,,,,,,,,,,60f974cd86441b6d038c484f,61036ed1db302659b0568e66,2021-07-30_00h16.36.359,Simcolourproject_2stim_asymm_v5,2020.2.10,Win32,60,61025ae37ef11b136ea224fe,,,,,,,,,3732,117,-64,1,0,0,response3disk,,5,-3,-5,1,0,0,rectangle,-3,-5,1,0,0,-3,-5,1,0,0,1,105,265,159,1,,,,,,,,
,,,,,,,,,,,,,FF,,,,,,,,1.1697,,,,,,,,,,,,,,,,,,,,,,60f974cd86441b6d038c484f,61036ed1db302659b0568e66,2021-07-30_00h16.36.359,Simcolourproject_2stim_asymm_v5,2020.2.10,Win32,60,61025ae37ef11b136ea224fe,,,,,,,,,1545,128,-67,1,0,0,response3disk,,5,4,-17,1,0,0,rectangle,4,-17,1,0,0,4,-17,1,0,0,1,106,266,128,1,,,,,,,,
,,,,,,,,,,,,,FF,,,,,,,,3.0193,,,,,,,,,,,,,,,,,,,,,,60f974cd86441b6d038c484f,61036ed1db302659b0568e66,2021-07-30_00h16.36.359,Simcolourproject_2stim_asymm_v5,2020.2.10,Win32,60,61025ae37ef11b136ea224fe,,,,,,,,,1535,-98,-74,1,0,0,response5disk,,2,-8,-4,1,0,0,rectangle,-8,-4,1,0,0,-8,-4,1,0,0,1,107,267,101,1,,,,,,,,
,,,,,,,,,,,,,FF,,,,,,,,0.6838,,,,,,,,,,,,,,,,,,,,,,60f974cd86441b6d038c484f,61036ed1db302659b0568e66,2021-07-30_00h16.36.359,Simcolourproject_2stim_asymm_v5,2020.2.10,Win32,60,61025ae37ef11b136ea224fe,,,,,,,,,1893,-126,-57,1,0,0,response5disk,,2,37,2,1,0,0,rectangle,37,2,1,0,0,37,2,1,0,0,1,108,268,39,1,,,,,,,,
,,,,,,,,,,,,,FF,,,,,,,,0.7838,,,,,,,,,,,,,,,,,,,,,,60f974cd86441b6d038c484f,61036ed1db302659b0568e66,2021-07-30_00h16.36.359,Simcolourproject_2stim_asymm_v5,2020.2.10,Win32,60,61025ae37ef11b136ea224fe,,,,,,,,,2090,-26,-107,1,0,0,response5disk,,3,16,-5,1,0,0,rectangle,16,-5,1,0,0,16,-5,1,0,0,1,109,269,9,1,,,,,,,,
,,,,,,,,,,,,,FF,,,,,,,,0.9003,,,,,,,,,,,,,,,,,,,,,,60f974cd86441b6d038c484f,61036ed1db302659b0568e66,2021-07-30_00h16.36.359,Simcolourproject_2stim_asymm_v5,2020.2.10,Win32,60,61025ae37ef11b136ea224fe,,,,,,,,,2930,50,-120,1,0,0,response3disk,,4,23,-6,1,0,0,rectangle,23,-6,1,0,0,23,-6,1,0,0,1,110,270,60,1,,,,,,,,
,,,,,,,,,,,,,FF,,,,,,,,1.9148,,,,,,,,,,,,,,,,,,,,,,60f974cd86441b6d038c484f,61036ed1db302659b0568e66,2021-07-30_00h16.36.359,Simcolourproject_2stim_asymm_v5,2020.2.10,Win32,60,61025ae37ef11b136ea224fe,,,,,,,,,757,49,-132,1,0,0,response3disk,,4,-3,-18,1,0,0,rectangle,-3,-18,1,0,0,-3,-18,1,0,0,1,111,271,125,1,,,,,,,,
,,,,,,,,,,,,,FF,,,,,,,,1.217,,,,,,,,,,,,,,,,,,,,,,60f974cd86441b6d038c484f,61036ed1db302659b0568e66,2021-07-30_00h16.36.359,Simcolourproject_2stim_asymm_v5,2020.2.10,Win32,60,61025ae37ef11b136ea224fe,,,,,,,,,576,115,-58,1,0,0,response3disk,,5,11,2,1,0,0,rectangle,11,2,1,0,0,11,2,1,0,0,1,112,272,41,1,,,,,,,,
,,,,,,,,,,,,,FF,,,,,,,,0.9669,,,,,,,,,,,,,,,,,,,,,,60f974cd86441b6d038c484f,61036ed1db302659b0568e66,2021-07-30_00h16.36.359,Simcolourproject_2stim_asymm_v5,2020.2.10,Win32,60,61025ae37ef11b136ea224fe,,,,,,,,,2830,52,-114,1,0,0,response3disk,,4,14,-19,1,0,0,rectangle,14,-19,1,0,0,14,-19,1,0,0,1,113,273,76,1,,,,,,,,
,,,,,,,,,,,,,FF,,,,,,,,2.7145,,,,,,,,,,,,,,,,,,,,,,60f974cd86441b6d038c484f,61036ed1db302659b0568e66,2021-07-30_00h16.36.359,Simcolourproject_2stim_asymm_v5,2020.2.10,Win32,60,61025ae37ef11b136ea224fe,,,,,,,,,1195,-41,-116,1,0,0,response5disk,,3,10,7,1,0,0,rectangle,10,7,1,0,0,10,7,1,0,0,1,114,274,156,1,,,,,,,,
,,,,,,,,,,,,,FF,,,,,,,,1.0001,,,,,,,,,,,,,,,,,,,,,,60f974cd86441b6d038c484f,61036ed1db302659b0568e66,2021-07-30_00h16.36.359,Simcolourproject_2stim_asymm_v5,2020.2.10,Win32,60,61025ae37ef11b136ea224fe,,,,,,,,,4247,109,-62,1,0,0,response3disk,,5,32,10,1,0,0,rectangle,32,10,1,0,0,32,10,1,0,0,1,115,275,144,1,,,,,,,,
,,,,,,,,,,,,,FF,,,,,,,,1.2175,,,,,,,,,,,,,,,,,,,,,,60f974cd86441b6d038c484f,61036ed1db302659b0568e66,2021-07-30_00h16.36.359,Simcolourproject_2stim_asymm_v5,2020.2.10,Win32,60,61025ae37ef11b136ea224fe,,,,,,,,,2152,120,49,1,0,0,response1disk,,6,6,-4,1,0,0,rectangle,6,-4,1,0,0,6,-4,1,0,0,1,116,276,18,1,,,,,,,,
,,,,,,,,,,,,,FF,,,,,,,,1.2334,,,,,,,,,,,,,,,,,,,,,,60f974cd86441b6d038c484f,61036ed1db302659b0568e66,2021-07-30_00h16.36.359,Simcolourproject_2stim_asymm_v5,2020.2.10,Win32,60,61025ae37ef11b136ea224fe,,,,,,,,,962,51,90,1,0,0,response1disk,,7,27,-1,1,0,0,rectangle,27,-1,1,0,0,27,-1,1,0,0,1,117,277,95,1,,,,,,,,
,,,,,,,,,,,,,FF,,,,,,,,0.9835,,,,,,,,,,,,,,,,,,,,,,60f974cd86441b6d038c484f,61036ed1db302659b0568e66,2021-07-30_00h16.36.359,Simcolourproject_2stim_asymm_v5,2020.2.10,Win32,60,61025ae37ef11b136ea224fe,,,,,,,,,372,137,-46,1,0,0,response3disk,,5,-1,1,1,0,0,rectangle,59,-123,1,0,0,9,18,1,0,0,1,118,278,71,1,,response3disk_3,TRUE,4,4,"[279,175,183,161,150,129,222,281,171,253,124,304,7,283,154,47,285,235,11,92]",1.6837,rectangle
,,,,,,,,,,,,,FF,,,,,,,,1.1195,,,,,,,,,,,,,,,,,,,,,,60f974cd86441b6d038c484f,61036ed1db302659b0568e66,2021-07-30_00h16.36.359,Simcolourproject_2stim_asymm_v5,2020.2.10,Win32,60,61025ae37ef11b136ea224fe,,,,,,,,,4194,142,-46,1,0,0,response3disk,,5,24,4,1,0,0,rectangle,24,4,1,0,0,24,4,1,0,0,1,119,279,134,1,,,,,,,,
,,,,,,,,,,,,,FF,,,,,,,,1.5145,,,,,,,,,,,,,,,,,,,,,,60f974cd86441b6d038c484f,61036ed1db302659b0568e66,2021-07-30_00h16.36.359,Simcolourproject_2stim_asymm_v5,2020.2.10,Win32,60,61025ae37ef11b136ea224fe,,,,,,,,,3826,51,-113,1,0,0,response3disk,,4,17,-18,1,0,0,rectangle,-135,-53,1,0,0,15,1,1,0,0,1,120,280,137,1,,response5disk_3,TRUE,2,2,"[279,175,183,161,150,129,222,281,171,253,124,304,7,283,154,47,285,235,11,92]",1.6646,rectangle
,,,,,,,,,,,,,FF,,,,,,,,1.6009,,,,,,,,,,,,,,,,,,,,,,60f974cd86441b6d038c484f,61036ed1db302659b0568e66,2021-07-30_00h16.36.359,Simcolourproject_2stim_asymm_v5,2020.2.10,Win32,60,61025ae37ef11b136ea224fe,,,,,,,,,1885,38,-117,1,0,0,response3disk,,4,30,-9,1,0,0,rectangle,30,-9,1,0,0,30,-9,1,0,0,1,121,281,5,1,,,,,,,,
,,,,,,,,,,,,,FF,,,,,,,,1.4012,,,,,,,,,,,,,,,,,,,,,,60f974cd86441b6d038c484f,61036ed1db302659b0568e66,2021-07-30_00h16.36.359,Simcolourproject_2stim_asymm_v5,2020.2.10,Win32,60,61025ae37ef11b136ea224fe,,,,,,,,,2109,-28,-121,1,0,0,response5disk,,3,42,-18,1,0,0,rectangle,-45,-117,1,0,0,18,2,1,0,0,1,122,282,31,1,,response5disk_3,TRUE,3,3,"[279,175,183,161,150,129,222,281,171,253,124,304,7,283,154,47,285,235,11,92]",1.3494,rectangle
,,,,,,,,,,,,,FF,,,,,,,,1.3668,,,,,,,,,,,,,,,,,,,,,,60f974cd86441b6d038c484f,61036ed1db302659b0568e66,2021-07-30_00h16.36.359,Simcolourproject_2stim_asymm_v5,2020.2.10,Win32,60,61025ae37ef11b136ea224fe,,,,,,,,,455,-140,54,1,0,0,response7disk,,1,13,5,1,0,0,rectangle,13,5,1,0,0,13,5,1,0,0,1,123,283,92,1,,,,,,,,
,,,,,,,,,,,,,FF,,,,,,,,0.8689,,,,,,,,,,,,,,,,,,,,,,60f974cd86441b6d038c484f,61036ed1db302659b0568e66,2021-07-30_00h16.36.359,Simcolourproject_2stim_asymm_v5,2020.2.10,Win32,60,61025ae37ef11b136ea224fe,,,,,,,,,1288,117,-33,1,0,0,response3disk,,5,16,2,1,0,0,rectangle,43,126,1,0,0,11,3,1,0,0,1,124,284,103,1,,response1disk_3,TRUE,7,7,"[279,175,183,161,150,129,222,281,171,253,124,304,7,283,154,47,285,235,11,92]",1.9979,rectangle
,,,,,,,,,,,,,FF,,,,,,,,3.4334,,,,,,,,,,,,,,,,,,,,,,60f974cd86441b6d038c484f,61036ed1db302659b0568e66,2021-07-30_00h16.36.359,Simcolourproject_2stim_asymm_v5,2020.2.10,Win32,60,61025ae37ef11b136ea224fe,,,,,,,,,3824,-28,-98,1,0,0,response5disk,,3,-11,-11,1,0,0,rectangle,-11,-11,1,0,0,-11,-11,1,0,0,1,125,285,116,1,,,,,,,,
,,,,,,,,,,,,,FF,,,,,,,,0.9665,,,,,,,,,,,,,,,,,,,,,,60f974cd86441b6d038c484f,61036ed1db302659b0568e66,2021-07-30_00h16.36.359,Simcolourproject_2stim_asymm_v5,2020.2.10,Win32,60,61025ae37ef11b136ea224fe,,,,,,,,,1422,94,-26,1,0,0,response3disk,,5,15,-2,1,0,0,rectangle,15,-2,1,0,0,15,-2,1,0,0,1,126,286,104,1,,,,,,,,
,,,,,,,,,,,,,FF,,,,,,,,1.2168,,,,,,,,,,,,,,,,,,,,,,60f974cd86441b6d038c484f,61036ed1db302659b0568e66,2021-07-30_00h16.36.359,Simcolourproject_2stim_asymm_v5,2020.2.10,Win32,60,61025ae37ef11b136ea224fe,,,,,,,,,595,109,-35,1,0,0,response3disk,,5,10,8,1,0,0,rectangle,10,8,1,0,0,10,8,1,0,0,1,127,287,2,1,,,,,,,,
,,,,,,,,,,,,,FF,,,,,,,,0.7149,,,,,,,,,,,,,,,,,,,,,,60f974cd86441b6d038c484f,61036ed1db302659b0568e66,2021-07-30_00h16.36.359,Simcolourproject_2stim_asymm_v5,2020.2.10,Win32,60,61025ae37ef11b136ea224fe,,,,,,,,,1391,44,-114,1,0,0,response3disk,,4,2,-15,1,0,0,rectangle,2,-15,1,0,0,2,-15,1,0,0,1,128,288,47,1,,,,,,,,
,,,,,,,,,,,,,FF,,,,,,,,0.7998,,,,,,,,,,,,,,,,,,,,,,60f974cd86441b6d038c484f,61036ed1db302659b0568e66,2021-07-30_00h16.36.359,Simcolourproject_2stim_asymm_v5,2020.2.10,Win32,60,61025ae37ef11b136ea224fe,,,,,,,,,3566,110,-56,1,0,0,response3disk,,5,12,-12,1,0,0,rectangle,12,-12,1,0,0,12,-12,1,0,0,1,129,289,7,1,,,,,,,,
,,,,,,,,,,,,,FF,,,,,,,,0.9173,,,,,,,,,,,,,,,,,,,,,,60f974cd86441b6d038c484f,61036ed1db302659b0568e66,2021-07-30_00h16.36.359,Simcolourproject_2stim_asymm_v5,2020.2.10,Win32,60,61025ae37ef11b136ea224fe,,,,,,,,,379,99,53,1,0,0,response1disk,,6,32,5,1,0,0,rectangle,32,5,1,0,0,32,5,1,0,0,1,130,290,20,1,,,,,,,,
,,,,,,,,,,,,,FF,,,,,,,,1.247,,,,,,,,,,,,,,,,,,,,,,60f974cd86441b6d038c484f,61036ed1db302659b0568e66,2021-07-30_00h16.36.359,Simcolourproject_2stim_asymm_v5,2020.2.10,Win32,60,61025ae37ef11b136ea224fe,,,,,,,,,3558,-97,-55,1,0,0,response5disk,,2,-25,-20,1,0,0,rectangle,-25,-20,1,0,0,-25,-20,1,0,0,1,131,291,145,1,,,,,,,,
,,,,,,,,,,,,,FF,,,,,,,,0.9011,,,,,,,,,,,,,,,,,,,,,,60f974cd86441b6d038c484f,61036ed1db302659b0568e66,2021-07-30_00h16.36.359,Simcolourproject_2stim_asymm_v5,2020.2.10,Win32,60,61025ae37ef11b136ea224fe,,,,,,,,,4126,-47,-110,1,0,0,response5disk,,3,-3,-15,1,0,0,rectangle,-3,-15,1,0,0,-3,-15,1,0,0,1,132,292,54,1,,,,,,,,
,,,,,,,,,,,,,FF,,,,,,,,0.7667,,,,,,,,,,,,,,,,,,,,,,60f974cd86441b6d038c484f,61036ed1db302659b0568e66,2021-07-30_00h16.36.359,Simcolourproject_2stim_asymm_v5,2020.2.10,Win32,60,61025ae37ef11b136ea224fe,,,,,,,,,309,115,-39,1,0,0,response3disk,,5,38,5,1,0,0,rectangle,38,5,1,0,0,38,5,1,0,0,1,133,293,26,1,,,,,,,,
,,,,,,,,,,,,,FF,,,,,,,,0.8167,,,,,,,,,,,,,,,,,,,,,,60f974cd86441b6d038c484f,61036ed1db302659b0568e66,2021-07-30_00h16.36.359,Simcolourproject_2stim_asymm_v5,2020.2.10,Win32,60,61025ae37ef11b136ea224fe,,,,,,,,,4260,108,69,1,0,0,response1disk,,6,11,-7,1,0,0,rectangle,11,-7,1,0,0,11,-7,1,0,0,1,134,294,149,1,,,,,,,,
,,,,,,,,,,,,,FF,,,,,,,,0.7522,,,,,,,,,,,,,,,,,,,,,,60f974cd86441b6d038c484f,61036ed1db302659b0568e66,2021-07-30_00h16.36.359,Simcolourproject_2stim_asymm_v5,2020.2.10,Win32,60,61025ae37ef11b136ea224fe,,,,,,,,,3860,146,81,1,0,0,response1disk,,6,36,15,1,0,0,rectangle,36,15,1,0,0,36,15,1,0,0,1,135,295,25,1,,,,,,,,
,,,,,,,,,,,,,FF,,,,,,,,1.0309,,,,,,,,,,,,,,,,,,,,,,60f974cd86441b6d038c484f,61036ed1db302659b0568e66,2021-07-30_00h16.36.359,Simcolourproject_2stim_asymm_v5,2020.2.10,Win32,60,61025ae37ef11b136ea224fe,,,,,,,,,3002,61,-140,1,0,0,response3disk,,4,1,-17,1,0,0,rectangle,1,-17,1,0,0,1,-17,1,0,0,1,136,296,58,1,,,,,,,,
,,,,,,,,,,,,,FF,,,,,,,,0.951,,,,,,,,,,,,,,,,,,,,,,60f974cd86441b6d038c484f,61036ed1db302659b0568e66,2021-07-30_00h16.36.359,Simcolourproject_2stim_asymm_v5,2020.2.10,Win32,60,61025ae37ef11b136ea224fe,,,,,,,,,1225,-48,-137,1,0,0,response5disk,,3,-11,-16,1,0,0,rectangle,-11,-16,1,0,0,-11,-16,1,0,0,1,137,297,33,1,,,,,,,,
,,,,,,,,,,,,,FF,,,,,,,,1.0009,,,,,,,,,,,,,,,,,,,,,,60f974cd86441b6d038c484f,61036ed1db302659b0568e66,2021-07-30_00h16.36.359,Simcolourproject_2stim_asymm_v5,2020.2.10,Win32,60,61025ae37ef11b136ea224fe,,,,,,,,,2524,156,88,1,0,0,response1disk,,6,20,-16,1,0,0,rectangle,20,-16,1,0,0,20,-16,1,0,0,1,138,298,3,1,,,,,,,,
,,,,,,,,,,,,,FF,,,,,,,,1.1836,,,,,,,,,,,,,,,,,,,,,,60f974cd86441b6d038c484f,61036ed1db302659b0568e66,2021-07-30_00h16.36.359,Simcolourproject_2stim_asymm_v5,2020.2.10,Win32,60,61025ae37ef11b136ea224fe,,,,,,,,,4140,-131,49,1,0,0,response7disk,,1,6,-13,1,0,0,rectangle,6,-13,1,0,0,6,-13,1,0,0,1,139,299,43,1,,,,,,,,
,,,,,,,,,,,,,FF,,,,,,,,0.6976,,,,,,,,,,,,,,,,,,,,,,60f974cd86441b6d038c484f,61036ed1db302659b0568e66,2021-07-30_00h16.36.359,Simcolourproject_2stim_asymm_v5,2020.2.10,Win32,60,61025ae37ef11b136ea224fe,,,,,,,,,4312,156,55,1,0,0,response1disk,,6,-19,-2,1,0,0,rectangle,-19,-2,1,0,0,-19,-2,1,0,0,1,140,300,155,1,,,,,,,,
