key_resp.keys,key_resp.rt,key_resp_14.keys,key_resp_14.rt,key_resp_15.keys,key_resp_15.rt,key_resp_17.keys,key_resp_17.rt,key_resp_9.keys,key_resp_9.rt,key_resp_10.keys,key_resp_10.rt,practice_comparison,Ecc,mouse_5.x,mouse_5.y,mouse_5.leftButton,mouse_5.midButton,mouse_5.rightButton,mouse_5.clicked_name,pracsimilarity,response_time,mouse_10.x,mouse_10.y,mouse_10.leftButton,mouse_10.midButton,mouse_10.rightButton,mouse_10.clicked_name,mouse_7.x,mouse_7.y,mouse_7.leftButton,mouse_7.midButton,mouse_7.rightButton,mouse_6.x,mouse_6.y,mouse_6.leftButton,mouse_6.midButton,mouse_6.rightButton,duringprac.thisRepN,duringprac.thisTrialN,duringprac.thisN,duringprac.thisIndex,duringprac.ran,participant,session,date,expName,psychopyVersion,OS,frameRate,study_id,mouse_7.clicked_name,catchpracsimilarity,catch_response_time,catchnumberprac,catchtrialorderprac,mouse_6.clicked_name,key_resp_22.keys,key_resp_22.rt,realcomparison,mouse.x,mouse.y,mouse.leftButton,mouse.midButton,mouse.rightButton,mouse.clicked_name,Colour2,similarity,mouse_2.x,mouse_2.y,mouse_2.leftButton,mouse_2.midButton,mouse_2.rightButton,mouse_2.clicked_name,mouse_3.x,mouse_3.y,mouse_3.leftButton,mouse_3.midButton,mouse_3.rightButton,mouse_11.x,mouse_11.y,mouse_11.leftButton,mouse_11.midButton,mouse_11.rightButton,trials_2.thisRepN,trials_2.thisTrialN,trials_2.thisN,trials_2.thisIndex,trials_2.ran,Colour1,mouse_3.clicked_name,catchornah,catchsimilarity,catchnumber,catchtrialorder,catchRT,mouse_11.clicked_name
space,1.1854,space,22.903,space,184.5328,space,16.8875,space,4.5979,space,8.5581,94,PF,-55,24,1,0,0,response7disk_5,1,7.9667,-20,2,1,0,0,rectangle_8,-20,2,1,0,0,-20,2,1,0,0,0,0,0,6,1,60fa1df4616a7c4ed9d42ae7,610368ab2ef4c8c2e0f4124d,2021-07-29_21h51.38.481,Simcolourproject_2stim_asymm_v5,2020.2.10,Win32,60,61025ae37ef11b136ea224fe,,,,,,,,,,,,,,,,,,,,,,,,,,,,,,,,,,,,,,,,,,,,,,
,,,,,,,,,,,,21,FF,52,-98,1,0,0,response3disk_5,4,37.7776,7,-11,1,0,0,rectangle_8,88,-36,1,0,0,7,7,1,0,0,0,1,1,3,1,60fa1df4616a7c4ed9d42ae7,610368ab2ef4c8c2e0f4124d,2021-07-29_21h51.38.481,Simcolourproject_2stim_asymm_v5,2020.2.10,Win32,60,61025ae37ef11b136ea224fe,response3disk_7,5,4.9671,5,"[2,5]",rectangle_4,,,,,,,,,,,,,,,,,,,,,,,,,,,,,,,,,,,,,,,,
,,,,,,,,,,,,121,PF,59,64,1,0,0,response1disk_5,7,2.9981,9,10,1,0,0,rectangle_8,9,10,1,0,0,9,10,1,0,0,0,2,2,2,1,60fa1df4616a7c4ed9d42ae7,610368ab2ef4c8c2e0f4124d,2021-07-29_21h51.38.481,Simcolourproject_2stim_asymm_v5,2020.2.10,Win32,60,61025ae37ef11b136ea224fe,,,,,,,,,,,,,,,,,,,,,,,,,,,,,,,,,,,,,,,,,,,,,,
,,,,,,,,,,,,104,FF,78,38,1,0,0,response1disk_5,6,3.583,6,-8,1,0,0,rectangle_8,6,-8,1,0,0,6,-8,1,0,0,0,3,3,5,1,60fa1df4616a7c4ed9d42ae7,610368ab2ef4c8c2e0f4124d,2021-07-29_21h51.38.481,Simcolourproject_2stim_asymm_v5,2020.2.10,Win32,60,61025ae37ef11b136ea224fe,,,,,,,,,,,,,,,,,,,,,,,,,,,,,,,,,,,,,,,,,,,,,,
,,,,,,,,,,,,138,PF,70,32,1,0,0,response1disk_5,6,1.4333,9,12,1,0,0,rectangle_8,73,-49,1,0,0,17,4,1,0,0,0,4,4,1,1,60fa1df4616a7c4ed9d42ae7,610368ab2ef4c8c2e0f4124d,2021-07-29_21h51.38.481,Simcolourproject_2stim_asymm_v5,2020.2.10,Win32,60,61025ae37ef11b136ea224fe,response3disk_7,5,5.6003,5,"[2,5]",rectangle_4,,,,,,,,,,,,,,,,,,,,,,,,,,,,,,,,,,,,,,,,
,,,,,,,,,,,,102,PF,39,62,1,0,0,response1disk_5,7,2.1166,3,-2,1,0,0,rectangle_8,3,-2,1,0,0,3,-2,1,0,0,0,5,5,4,1,60fa1df4616a7c4ed9d42ae7,610368ab2ef4c8c2e0f4124d,2021-07-29_21h51.38.481,Simcolourproject_2stim_asymm_v5,2020.2.10,Win32,60,61025ae37ef11b136ea224fe,,,,,,,,,,,,,,,,,,,,,,,,,,,,,,,,,,,,,,,,,,,,,,
,,,,,,,,,,,,21,FF,75,-61,1,0,0,response3disk_5,5,3.6827,18,-14,1,0,0,rectangle_8,18,-14,1,0,0,18,-14,1,0,0,0,6,6,0,1,60fa1df4616a7c4ed9d42ae7,610368ab2ef4c8c2e0f4124d,2021-07-29_21h51.38.481,Simcolourproject_2stim_asymm_v5,2020.2.10,Win32,60,61025ae37ef11b136ea224fe,,,,,,,,,,,,,,,,,,,,,,,,,,,,,,,,,,,,,,,,,,,,,,
,,,,,,,,,,,,,FF,,,,,,,,4.7942,,,,,,,,,,,,,,,,,,,,,,60fa1df4616a7c4ed9d42ae7,610368ab2ef4c8c2e0f4124d,2021-07-29_21h51.38.481,Simcolourproject_2stim_asymm_v5,2020.2.10,Win32,60,61025ae37ef11b136ea224fe,,,,,,,space,526.5376,1796,49,61,1,0,0,response1disk,,7,2,-3,1,0,0,rectangle,2,-3,1,0,0,2,-3,1,0,0,0,0,0,9,1,,,,,,,,
,,,,,,,,,,,,,FF,,,,,,,,1.2835,,,,,,,,,,,,,,,,,,,,,,60fa1df4616a7c4ed9d42ae7,610368ab2ef4c8c2e0f4124d,2021-07-29_21h51.38.481,Simcolourproject_2stim_asymm_v5,2020.2.10,Win32,60,61025ae37ef11b136ea224fe,,,,,,,,,849,42,80,1,0,0,response1disk,,7,0,4,1,0,0,rectangle,0,4,1,0,0,0,4,1,0,0,0,1,1,147,1,,,,,,,,
,,,,,,,,,,,,,FF,,,,,,,,1.2503,,,,,,,,,,,,,,,,,,,,,,60fa1df4616a7c4ed9d42ae7,610368ab2ef4c8c2e0f4124d,2021-07-29_21h51.38.481,Simcolourproject_2stim_asymm_v5,2020.2.10,Win32,60,61025ae37ef11b136ea224fe,,,,,,,,,1282,44,86,1,0,0,response1disk,,7,2,8,1,0,0,rectangle,2,8,1,0,0,2,8,1,0,0,0,2,2,4,1,,,,,,,,
,,,,,,,,,,,,,FF,,,,,,,,2.5672,,,,,,,,,,,,,,,,,,,,,,60fa1df4616a7c4ed9d42ae7,610368ab2ef4c8c2e0f4124d,2021-07-29_21h51.38.481,Simcolourproject_2stim_asymm_v5,2020.2.10,Win32,60,61025ae37ef11b136ea224fe,,,,,,,,,1500,47,-82,1,0,0,response3disk,,4,2,0,1,0,0,rectangle,2,0,1,0,0,2,0,1,0,0,0,3,3,19,1,,,,,,,,
,,,,,,,,,,,,,FF,,,,,,,,4.6442,,,,,,,,,,,,,,,,,,,,,,60fa1df4616a7c4ed9d42ae7,610368ab2ef4c8c2e0f4124d,2021-07-29_21h51.38.481,Simcolourproject_2stim_asymm_v5,2020.2.10,Win32,60,61025ae37ef11b136ea224fe,,,,,,,,,3155,-67,52,1,0,0,response7disk,,1,-20,12,1,0,0,rectangle,-20,12,1,0,0,-20,12,1,0,0,0,4,4,135,1,,,,,,,,
,,,,,,,,,,,,,FF,,,,,,,,4.2334,,,,,,,,,,,,,,,,,,,,,,60fa1df4616a7c4ed9d42ae7,610368ab2ef4c8c2e0f4124d,2021-07-29_21h51.38.481,Simcolourproject_2stim_asymm_v5,2020.2.10,Win32,60,61025ae37ef11b136ea224fe,,,,,,,,,733,95,-38,1,0,0,response3disk,,5,9,-7,1,0,0,rectangle,9,-7,1,0,0,9,-7,1,0,0,0,5,5,128,1,,,,,,,,
,,,,,,,,,,,,,FF,,,,,,,,1.8805,,,,,,,,,,,,,,,,,,,,,,60fa1df4616a7c4ed9d42ae7,610368ab2ef4c8c2e0f4124d,2021-07-29_21h51.38.481,Simcolourproject_2stim_asymm_v5,2020.2.10,Win32,60,61025ae37ef11b136ea224fe,,,,,,,,,4136,46,68,1,0,0,response1disk,,7,11,13,1,0,0,rectangle,11,13,1,0,0,11,13,1,0,0,0,6,6,89,1,,,,,,,,
,,,,,,,,,,,,,FF,,,,,,,,1.2665,,,,,,,,,,,,,,,,,,,,,,60fa1df4616a7c4ed9d42ae7,610368ab2ef4c8c2e0f4124d,2021-07-29_21h51.38.481,Simcolourproject_2stim_asymm_v5,2020.2.10,Win32,60,61025ae37ef11b136ea224fe,,,,,,,,,4262,32,68,1,0,0,response1disk,,7,-8,0,1,0,0,rectangle,-8,0,1,0,0,-8,0,1,0,0,0,7,7,23,1,,,,,,,,
,,,,,,,,,,,,,FF,,,,,,,,2.7519,,,,,,,,,,,,,,,,,,,,,,60fa1df4616a7c4ed9d42ae7,610368ab2ef4c8c2e0f4124d,2021-07-29_21h51.38.481,Simcolourproject_2stim_asymm_v5,2020.2.10,Win32,60,61025ae37ef11b136ea224fe,,,,,,,,,912,35,53,1,0,0,response1disk,,7,3,9,1,0,0,rectangle,3,9,1,0,0,3,9,1,0,0,0,8,8,106,1,,,,,,,,
,,,,,,,,,,,,,FF,,,,,,,,1.267,,,,,,,,,,,,,,,,,,,,,,60fa1df4616a7c4ed9d42ae7,610368ab2ef4c8c2e0f4124d,2021-07-29_21h51.38.481,Simcolourproject_2stim_asymm_v5,2020.2.10,Win32,60,61025ae37ef11b136ea224fe,,,,,,,,,4312,24,53,1,0,0,response1disk,,7,-1,11,1,0,0,rectangle,-1,11,1,0,0,-1,11,1,0,0,0,9,9,73,1,,,,,,,,
,,,,,,,,,,,,,FF,,,,,,,,1.2332,,,,,,,,,,,,,,,,,,,,,,60fa1df4616a7c4ed9d42ae7,610368ab2ef4c8c2e0f4124d,2021-07-29_21h51.38.481,Simcolourproject_2stim_asymm_v5,2020.2.10,Win32,60,61025ae37ef11b136ea224fe,,,,,,,,,244,49,29,1,0,0,response1disk,,6,7,4,1,0,0,rectangle,7,4,1,0,0,7,4,1,0,0,0,10,10,145,1,,,,,,,,
,,,,,,,,,,,,,FF,,,,,,,,1.3,,,,,,,,,,,,,,,,,,,,,,60fa1df4616a7c4ed9d42ae7,610368ab2ef4c8c2e0f4124d,2021-07-29_21h51.38.481,Simcolourproject_2stim_asymm_v5,2020.2.10,Win32,60,61025ae37ef11b136ea224fe,,,,,,,,,534,72,-38,1,0,0,response3disk,,5,18,-6,1,0,0,rectangle,18,-6,1,0,0,18,-6,1,0,0,0,11,11,133,1,,,,,,,,
,,,,,,,,,,,,,FF,,,,,,,,1.1666,,,,,,,,,,,,,,,,,,,,,,60fa1df4616a7c4ed9d42ae7,610368ab2ef4c8c2e0f4124d,2021-07-29_21h51.38.481,Simcolourproject_2stim_asymm_v5,2020.2.10,Win32,60,61025ae37ef11b136ea224fe,,,,,,,,,2601,-49,81,1,0,0,response7disk,,0,-15,11,1,0,0,rectangle,-15,11,1,0,0,-15,11,1,0,0,0,12,12,104,1,,,,,,,,
,,,,,,,,,,,,,FF,,,,,,,,1.1161,,,,,,,,,,,,,,,,,,,,,,60fa1df4616a7c4ed9d42ae7,610368ab2ef4c8c2e0f4124d,2021-07-29_21h51.38.481,Simcolourproject_2stim_asymm_v5,2020.2.10,Win32,60,61025ae37ef11b136ea224fe,,,,,,,,,4070,33,74,1,0,0,response1disk,,7,10,15,1,0,0,rectangle,10,15,1,0,0,10,15,1,0,0,0,13,13,114,1,,,,,,,,
,,,,,,,,,,,,,FF,,,,,,,,0.8998,,,,,,,,,,,,,,,,,,,,,,60fa1df4616a7c4ed9d42ae7,610368ab2ef4c8c2e0f4124d,2021-07-29_21h51.38.481,Simcolourproject_2stim_asymm_v5,2020.2.10,Win32,60,61025ae37ef11b136ea224fe,,,,,,,,,1559,46,94,1,0,0,response1disk,,7,-2,9,1,0,0,rectangle,-2,9,1,0,0,-2,9,1,0,0,0,14,14,66,1,,,,,,,,
,,,,,,,,,,,,,FF,,,,,,,,0.866,,,,,,,,,,,,,,,,,,,,,,60fa1df4616a7c4ed9d42ae7,610368ab2ef4c8c2e0f4124d,2021-07-29_21h51.38.481,Simcolourproject_2stim_asymm_v5,2020.2.10,Win32,60,61025ae37ef11b136ea224fe,,,,,,,,,1124,38,81,1,0,0,response1disk,,7,6,11,1,0,0,rectangle,6,11,1,0,0,6,11,1,0,0,0,15,15,119,1,,,,,,,,
,,,,,,,,,,,,,FF,,,,,,,,1.6017,,,,,,,,,,,,,,,,,,,,,,60fa1df4616a7c4ed9d42ae7,610368ab2ef4c8c2e0f4124d,2021-07-29_21h51.38.481,Simcolourproject_2stim_asymm_v5,2020.2.10,Win32,60,61025ae37ef11b136ea224fe,,,,,,,,,2368,-54,33,1,0,0,response7disk,,1,-11,6,1,0,0,rectangle,-11,6,1,0,0,-11,6,1,0,0,0,16,16,11,1,,,,,,,,
,,,,,,,,,,,,,FF,,,,,,,,1.2333,,,,,,,,,,,,,,,,,,,,,,60fa1df4616a7c4ed9d42ae7,610368ab2ef4c8c2e0f4124d,2021-07-29_21h51.38.481,Simcolourproject_2stim_asymm_v5,2020.2.10,Win32,60,61025ae37ef11b136ea224fe,,,,,,,,,1718,55,55,1,0,0,response1disk,,7,13,-4,1,0,0,rectangle,32,-71,1,0,0,-1,5,1,0,0,0,17,17,109,1,,response3disk_3,TRUE,4,4,"[306,214,116,301,257,248,30,75,121,198,84,218,18,149,99,73,292,109,42,320]",3.6051,rectangle
,,,,,,,,,,,,,FF,,,,,,,,1.5329,,,,,,,,,,,,,,,,,,,,,,60fa1df4616a7c4ed9d42ae7,610368ab2ef4c8c2e0f4124d,2021-07-29_21h51.38.481,Simcolourproject_2stim_asymm_v5,2020.2.10,Win32,60,61025ae37ef11b136ea224fe,,,,,,,,,1014,38,54,1,0,0,response1disk,,7,4,0,1,0,0,rectangle,4,0,1,0,0,4,0,1,0,0,0,18,18,156,1,,,,,,,,
,,,,,,,,,,,,,FF,,,,,,,,0.95,,,,,,,,,,,,,,,,,,,,,,60fa1df4616a7c4ed9d42ae7,610368ab2ef4c8c2e0f4124d,2021-07-29_21h51.38.481,Simcolourproject_2stim_asymm_v5,2020.2.10,Win32,60,61025ae37ef11b136ea224fe,,,,,,,,,3827,38,60,1,0,0,response1disk,,7,-20,2,1,0,0,rectangle,-20,2,1,0,0,-20,2,1,0,0,0,19,19,111,1,,,,,,,,
,,,,,,,,,,,,,FF,,,,,,,,2.1998,,,,,,,,,,,,,,,,,,,,,,60fa1df4616a7c4ed9d42ae7,610368ab2ef4c8c2e0f4124d,2021-07-29_21h51.38.481,Simcolourproject_2stim_asymm_v5,2020.2.10,Win32,60,61025ae37ef11b136ea224fe,,,,,,,,,2216,57,29,1,0,0,response1disk,,6,10,-3,1,0,0,rectangle,10,-3,1,0,0,10,-3,1,0,0,0,20,20,31,1,,,,,,,,
,,,,,,,,,,,,,FF,,,,,,,,1.5667,,,,,,,,,,,,,,,,,,,,,,60fa1df4616a7c4ed9d42ae7,610368ab2ef4c8c2e0f4124d,2021-07-29_21h51.38.481,Simcolourproject_2stim_asymm_v5,2020.2.10,Win32,60,61025ae37ef11b136ea224fe,,,,,,,,,3941,-45,-62,1,0,0,response5disk,,3,12,15,1,0,0,rectangle,12,15,1,0,0,12,15,1,0,0,0,21,21,118,1,,,,,,,,
,,,,,,,,,,,,,FF,,,,,,,,1.4005,,,,,,,,,,,,,,,,,,,,,,60fa1df4616a7c4ed9d42ae7,610368ab2ef4c8c2e0f4124d,2021-07-29_21h51.38.481,Simcolourproject_2stim_asymm_v5,2020.2.10,Win32,60,61025ae37ef11b136ea224fe,,,,,,,,,4119,48,-86,1,0,0,response3disk,,4,19,5,1,0,0,rectangle,19,5,1,0,0,19,5,1,0,0,0,22,22,107,1,,,,,,,,
,,,,,,,,,,,,,FF,,,,,,,,1.2667,,,,,,,,,,,,,,,,,,,,,,60fa1df4616a7c4ed9d42ae7,610368ab2ef4c8c2e0f4124d,2021-07-29_21h51.38.481,Simcolourproject_2stim_asymm_v5,2020.2.10,Win32,60,61025ae37ef11b136ea224fe,,,,,,,,,1207,37,77,1,0,0,response1disk,,7,5,6,1,0,0,rectangle,5,6,1,0,0,5,6,1,0,0,0,23,23,33,1,,,,,,,,
,,,,,,,,,,,,,FF,,,,,,,,1.15,,,,,,,,,,,,,,,,,,,,,,60fa1df4616a7c4ed9d42ae7,610368ab2ef4c8c2e0f4124d,2021-07-29_21h51.38.481,Simcolourproject_2stim_asymm_v5,2020.2.10,Win32,60,61025ae37ef11b136ea224fe,,,,,,,,,3927,48,82,1,0,0,response1disk,,7,-2,-6,1,0,0,rectangle,-2,-6,1,0,0,-2,-6,1,0,0,0,24,24,68,1,,,,,,,,
,,,,,,,,,,,,,FF,,,,,,,,0.8335,,,,,,,,,,,,,,,,,,,,,,60fa1df4616a7c4ed9d42ae7,610368ab2ef4c8c2e0f4124d,2021-07-29_21h51.38.481,Simcolourproject_2stim_asymm_v5,2020.2.10,Win32,60,61025ae37ef11b136ea224fe,,,,,,,,,1626,22,50,1,0,0,response1disk,,7,-8,-3,1,0,0,rectangle,-8,-3,1,0,0,-8,-3,1,0,0,0,25,25,144,1,,,,,,,,
,,,,,,,,,,,,,FF,,,,,,,,1.3843,,,,,,,,,,,,,,,,,,,,,,60fa1df4616a7c4ed9d42ae7,610368ab2ef4c8c2e0f4124d,2021-07-29_21h51.38.481,Simcolourproject_2stim_asymm_v5,2020.2.10,Win32,60,61025ae37ef11b136ea224fe,,,,,,,,,368,-57,48,1,0,0,response7disk,,1,21,0,1,0,0,rectangle,21,0,1,0,0,21,0,1,0,0,0,26,26,16,1,,,,,,,,
,,,,,,,,,,,,,FF,,,,,,,,1.5834,,,,,,,,,,,,,,,,,,,,,,60fa1df4616a7c4ed9d42ae7,610368ab2ef4c8c2e0f4124d,2021-07-29_21h51.38.481,Simcolourproject_2stim_asymm_v5,2020.2.10,Win32,60,61025ae37ef11b136ea224fe,,,,,,,,,1584,-46,-76,1,0,0,response5disk,,3,1,5,1,0,0,rectangle,1,5,1,0,0,1,5,1,0,0,0,27,27,56,1,,,,,,,,
,,,,,,,,,,,,,FF,,,,,,,,1.3169,,,,,,,,,,,,,,,,,,,,,,60fa1df4616a7c4ed9d42ae7,610368ab2ef4c8c2e0f4124d,2021-07-29_21h51.38.481,Simcolourproject_2stim_asymm_v5,2020.2.10,Win32,60,61025ae37ef11b136ea224fe,,,,,,,,,2738,72,80,1,0,0,response1disk,,7,9,-4,1,0,0,rectangle,9,-4,1,0,0,9,-4,1,0,0,0,28,28,67,1,,,,,,,,
,,,,,,,,,,,,,FF,,,,,,,,0.7845,,,,,,,,,,,,,,,,,,,,,,60fa1df4616a7c4ed9d42ae7,610368ab2ef4c8c2e0f4124d,2021-07-29_21h51.38.481,Simcolourproject_2stim_asymm_v5,2020.2.10,Win32,60,61025ae37ef11b136ea224fe,,,,,,,,,3795,16,29,1,0,0,response1disk,,7,6,-1,1,0,0,rectangle,-59,-91,1,0,0,-6,1,1,0,0,0,29,29,146,1,,response5disk_3,TRUE,3,3,"[306,214,116,301,257,248,30,75,121,198,84,218,18,149,99,73,292,109,42,320]",2.0826,rectangle
,,,,,,,,,,,,,FF,,,,,,,,0.9384,,,,,,,,,,,,,,,,,,,,,,60fa1df4616a7c4ed9d42ae7,610368ab2ef4c8c2e0f4124d,2021-07-29_21h51.38.481,Simcolourproject_2stim_asymm_v5,2020.2.10,Win32,60,61025ae37ef11b136ea224fe,,,,,,,,,3632,36,59,1,0,0,response1disk,,7,6,9,1,0,0,rectangle,6,9,1,0,0,6,9,1,0,0,0,30,30,83,1,,,,,,,,
,,,,,,,,,,,,,FF,,,,,,,,1.1311,,,,,,,,,,,,,,,,,,,,,,60fa1df4616a7c4ed9d42ae7,610368ab2ef4c8c2e0f4124d,2021-07-29_21h51.38.481,Simcolourproject_2stim_asymm_v5,2020.2.10,Win32,60,61025ae37ef11b136ea224fe,,,,,,,,,2590,46,75,1,0,0,response1disk,,7,11,10,1,0,0,rectangle,11,10,1,0,0,11,10,1,0,0,0,31,31,78,1,,,,,,,,
,,,,,,,,,,,,,FF,,,,,,,,0.9179,,,,,,,,,,,,,,,,,,,,,,60fa1df4616a7c4ed9d42ae7,610368ab2ef4c8c2e0f4124d,2021-07-29_21h51.38.481,Simcolourproject_2stim_asymm_v5,2020.2.10,Win32,60,61025ae37ef11b136ea224fe,,,,,,,,,182,38,67,1,0,0,response1disk,,7,5,7,1,0,0,rectangle,5,7,1,0,0,5,7,1,0,0,0,32,32,132,1,,,,,,,,
,,,,,,,,,,,,,FF,,,,,,,,0.6872,,,,,,,,,,,,,,,,,,,,,,60fa1df4616a7c4ed9d42ae7,610368ab2ef4c8c2e0f4124d,2021-07-29_21h51.38.481,Simcolourproject_2stim_asymm_v5,2020.2.10,Win32,60,61025ae37ef11b136ea224fe,,,,,,,,,996,45,73,1,0,0,response1disk,,7,6,9,1,0,0,rectangle,6,9,1,0,0,6,9,1,0,0,0,33,33,95,1,,,,,,,,
,,,,,,,,,,,,,FF,,,,,,,,0.966,,,,,,,,,,,,,,,,,,,,,,60fa1df4616a7c4ed9d42ae7,610368ab2ef4c8c2e0f4124d,2021-07-29_21h51.38.481,Simcolourproject_2stim_asymm_v5,2020.2.10,Win32,60,61025ae37ef11b136ea224fe,,,,,,,,,115,40,54,1,0,0,response1disk,,7,9,12,1,0,0,rectangle,9,12,1,0,0,9,12,1,0,0,0,34,34,99,1,,,,,,,,
,,,,,,,,,,,,,FF,,,,,,,,1.4706,,,,,,,,,,,,,,,,,,,,,,60fa1df4616a7c4ed9d42ae7,610368ab2ef4c8c2e0f4124d,2021-07-29_21h51.38.481,Simcolourproject_2stim_asymm_v5,2020.2.10,Win32,60,61025ae37ef11b136ea224fe,,,,,,,,,1617,62,-33,1,0,0,response3disk,,5,11,14,1,0,0,rectangle,11,14,1,0,0,11,14,1,0,0,0,35,35,22,1,,,,,,,,
,,,,,,,,,,,,,FF,,,,,,,,4.0795,,,,,,,,,,,,,,,,,,,,,,60fa1df4616a7c4ed9d42ae7,610368ab2ef4c8c2e0f4124d,2021-07-29_21h51.38.481,Simcolourproject_2stim_asymm_v5,2020.2.10,Win32,60,61025ae37ef11b136ea224fe,,,,,,,,,2044,-81,-31,1,0,0,response5disk,,2,-23,1,1,0,0,rectangle,-23,1,1,0,0,-23,1,1,0,0,0,36,36,130,1,,,,,,,,
,,,,,,,,,,,,,FF,,,,,,,,1.0503,,,,,,,,,,,,,,,,,,,,,,60fa1df4616a7c4ed9d42ae7,610368ab2ef4c8c2e0f4124d,2021-07-29_21h51.38.481,Simcolourproject_2stim_asymm_v5,2020.2.10,Win32,60,61025ae37ef11b136ea224fe,,,,,,,,,129,30,47,1,0,0,response1disk,,7,-11,-2,1,0,0,rectangle,-11,-2,1,0,0,-11,-2,1,0,0,0,37,37,140,1,,,,,,,,
,,,,,,,,,,,,,FF,,,,,,,,0.8999,,,,,,,,,,,,,,,,,,,,,,60fa1df4616a7c4ed9d42ae7,610368ab2ef4c8c2e0f4124d,2021-07-29_21h51.38.481,Simcolourproject_2stim_asymm_v5,2020.2.10,Win32,60,61025ae37ef11b136ea224fe,,,,,,,,,3964,30,57,1,0,0,response1disk,,7,-1,2,1,0,0,rectangle,-1,2,1,0,0,-1,2,1,0,0,0,38,38,150,1,,,,,,,,
,,,,,,,,,,,,,FF,,,,,,,,2.6501,,,,,,,,,,,,,,,,,,,,,,60fa1df4616a7c4ed9d42ae7,610368ab2ef4c8c2e0f4124d,2021-07-29_21h51.38.481,Simcolourproject_2stim_asymm_v5,2020.2.10,Win32,60,61025ae37ef11b136ea224fe,,,,,,,,,4332,26,-88,1,0,0,response3disk,,4,-4,6,1,0,0,rectangle,-4,6,1,0,0,-4,6,1,0,0,0,39,39,152,1,,,,,,,,
,,,,,,,,,,,,,FF,,,,,,,,0.9345,,,,,,,,,,,,,,,,,,,,,,60fa1df4616a7c4ed9d42ae7,610368ab2ef4c8c2e0f4124d,2021-07-29_21h51.38.481,Simcolourproject_2stim_asymm_v5,2020.2.10,Win32,60,61025ae37ef11b136ea224fe,,,,,,,,,1740,29,-85,1,0,0,response3disk,,4,6,2,1,0,0,rectangle,6,2,1,0,0,6,2,1,0,0,0,40,40,117,1,,,,,,,,
,,,,,,,,,,,,,FF,,,,,,,,1.7501,,,,,,,,,,,,,,,,,,,,,,60fa1df4616a7c4ed9d42ae7,610368ab2ef4c8c2e0f4124d,2021-07-29_21h51.38.481,Simcolourproject_2stim_asymm_v5,2020.2.10,Win32,60,61025ae37ef11b136ea224fe,,,,,,,,,716,-69,50,1,0,0,response7disk,,1,-16,9,1,0,0,rectangle,-88,42,1,0,0,-15,6,1,0,0,0,41,41,94,1,,response7disk_3,TRUE,1,1,"[306,214,116,301,257,248,30,75,121,198,84,218,18,149,99,73,292,109,42,320]",2.0828,rectangle
,,,,,,,,,,,,,FF,,,,,,,,1.0167,,,,,,,,,,,,,,,,,,,,,,60fa1df4616a7c4ed9d42ae7,610368ab2ef4c8c2e0f4124d,2021-07-29_21h51.38.481,Simcolourproject_2stim_asymm_v5,2020.2.10,Win32,60,61025ae37ef11b136ea224fe,,,,,,,,,3248,-57,36,1,0,0,response7disk,,1,-15,7,1,0,0,rectangle,-15,7,1,0,0,-15,7,1,0,0,0,42,42,10,1,,,,,,,,
,,,,,,,,,,,,,FF,,,,,,,,1.2836,,,,,,,,,,,,,,,,,,,,,,60fa1df4616a7c4ed9d42ae7,610368ab2ef4c8c2e0f4124d,2021-07-29_21h51.38.481,Simcolourproject_2stim_asymm_v5,2020.2.10,Win32,60,61025ae37ef11b136ea224fe,,,,,,,,,4191,70,28,1,0,0,response1disk,,6,5,8,1,0,0,rectangle,5,8,1,0,0,5,8,1,0,0,0,43,43,134,1,,,,,,,,
,,,,,,,,,,,,,FF,,,,,,,,0.9998,,,,,,,,,,,,,,,,,,,,,,60fa1df4616a7c4ed9d42ae7,610368ab2ef4c8c2e0f4124d,2021-07-29_21h51.38.481,Simcolourproject_2stim_asymm_v5,2020.2.10,Win32,60,61025ae37ef11b136ea224fe,,,,,,,,,205,70,25,1,0,0,response1disk,,6,11,7,1,0,0,rectangle,11,7,1,0,0,11,7,1,0,0,0,44,44,113,1,,,,,,,,
,,,,,,,,,,,,,FF,,,,,,,,2.4488,,,,,,,,,,,,,,,,,,,,,,60fa1df4616a7c4ed9d42ae7,610368ab2ef4c8c2e0f4124d,2021-07-29_21h51.38.481,Simcolourproject_2stim_asymm_v5,2020.2.10,Win32,60,61025ae37ef11b136ea224fe,,,,,,,,,3004,-35,-73,1,0,0,response5disk,,3,16,6,1,0,0,rectangle,16,6,1,0,0,16,6,1,0,0,0,45,45,131,1,,,,,,,,
,,,,,,,,,,,,,FF,,,,,,,,2.695,,,,,,,,,,,,,,,,,,,,,,60fa1df4616a7c4ed9d42ae7,610368ab2ef4c8c2e0f4124d,2021-07-29_21h51.38.481,Simcolourproject_2stim_asymm_v5,2020.2.10,Win32,60,61025ae37ef11b136ea224fe,,,,,,,,,1908,61,31,1,0,0,response1disk,,6,-14,1,1,0,0,rectangle,-14,1,1,0,0,-14,1,1,0,0,0,46,46,125,1,,,,,,,,
,,,,,,,,,,,,,FF,,,,,,,,0.8681,,,,,,,,,,,,,,,,,,,,,,60fa1df4616a7c4ed9d42ae7,610368ab2ef4c8c2e0f4124d,2021-07-29_21h51.38.481,Simcolourproject_2stim_asymm_v5,2020.2.10,Win32,60,61025ae37ef11b136ea224fe,,,,,,,,,474,44,51,1,0,0,response1disk,,7,10,10,1,0,0,rectangle,10,10,1,0,0,10,10,1,0,0,0,47,47,141,1,,,,,,,,
,,,,,,,,,,,,,FF,,,,,,,,0.8051,,,,,,,,,,,,,,,,,,,,,,60fa1df4616a7c4ed9d42ae7,610368ab2ef4c8c2e0f4124d,2021-07-29_21h51.38.481,Simcolourproject_2stim_asymm_v5,2020.2.10,Win32,60,61025ae37ef11b136ea224fe,,,,,,,,,2322,30,60,1,0,0,response1disk,,7,3,-3,1,0,0,rectangle,3,-3,1,0,0,3,-3,1,0,0,0,48,48,57,1,,,,,,,,
,,,,,,,,,,,,,FF,,,,,,,,0.8327,,,,,,,,,,,,,,,,,,,,,,60fa1df4616a7c4ed9d42ae7,610368ab2ef4c8c2e0f4124d,2021-07-29_21h51.38.481,Simcolourproject_2stim_asymm_v5,2020.2.10,Win32,60,61025ae37ef11b136ea224fe,,,,,,,,,2980,32,70,1,0,0,response1disk,,7,8,7,1,0,0,rectangle,8,7,1,0,0,8,7,1,0,0,0,49,49,25,1,,,,,,,,
,,,,,,,,,,,,,FF,,,,,,,,0.7725,,,,,,,,,,,,,,,,,,,,,,60fa1df4616a7c4ed9d42ae7,610368ab2ef4c8c2e0f4124d,2021-07-29_21h51.38.481,Simcolourproject_2stim_asymm_v5,2020.2.10,Win32,60,61025ae37ef11b136ea224fe,,,,,,,,,119,34,59,1,0,0,response1disk,,7,7,5,1,0,0,rectangle,7,5,1,0,0,7,5,1,0,0,0,50,50,58,1,,,,,,,,
,,,,,,,,,,,,,FF,,,,,,,,1.3555,,,,,,,,,,,,,,,,,,,,,,60fa1df4616a7c4ed9d42ae7,610368ab2ef4c8c2e0f4124d,2021-07-29_21h51.38.481,Simcolourproject_2stim_asymm_v5,2020.2.10,Win32,60,61025ae37ef11b136ea224fe,,,,,,,,,3676,-53,91,1,0,0,response7disk,,0,-25,9,1,0,0,rectangle,-25,9,1,0,0,-25,9,1,0,0,0,51,51,63,1,,,,,,,,
,,,,,,,,,,,,,FF,,,,,,,,2.1508,,,,,,,,,,,,,,,,,,,,,,60fa1df4616a7c4ed9d42ae7,610368ab2ef4c8c2e0f4124d,2021-07-29_21h51.38.481,Simcolourproject_2stim_asymm_v5,2020.2.10,Win32,60,61025ae37ef11b136ea224fe,,,,,,,,,1466,59,-39,1,0,0,response3disk,,5,20,0,1,0,0,rectangle,20,0,1,0,0,20,0,1,0,0,0,52,52,65,1,,,,,,,,
,,,,,,,,,,,,,FF,,,,,,,,2.1834,,,,,,,,,,,,,,,,,,,,,,60fa1df4616a7c4ed9d42ae7,610368ab2ef4c8c2e0f4124d,2021-07-29_21h51.38.481,Simcolourproject_2stim_asymm_v5,2020.2.10,Win32,60,61025ae37ef11b136ea224fe,,,,,,,,,2664,-46,-77,1,0,0,response5disk,,3,-12,-6,1,0,0,rectangle,-12,-6,1,0,0,-12,-6,1,0,0,0,53,53,32,1,,,,,,,,
,,,,,,,,,,,,,FF,,,,,,,,1.5385,,,,,,,,,,,,,,,,,,,,,,60fa1df4616a7c4ed9d42ae7,610368ab2ef4c8c2e0f4124d,2021-07-29_21h51.38.481,Simcolourproject_2stim_asymm_v5,2020.2.10,Win32,60,61025ae37ef11b136ea224fe,,,,,,,,,695,-60,37,1,0,0,response7disk,,1,7,7,1,0,0,rectangle,7,7,1,0,0,7,7,1,0,0,0,54,54,47,1,,,,,,,,
,,,,,,,,,,,,,FF,,,,,,,,2.1334,,,,,,,,,,,,,,,,,,,,,,60fa1df4616a7c4ed9d42ae7,610368ab2ef4c8c2e0f4124d,2021-07-29_21h51.38.481,Simcolourproject_2stim_asymm_v5,2020.2.10,Win32,60,61025ae37ef11b136ea224fe,,,,,,,,,1400,48,62,1,0,0,response1disk,,7,21,13,1,0,0,rectangle,21,13,1,0,0,21,13,1,0,0,0,55,55,75,1,,,,,,,,
,,,,,,,,,,,,,FF,,,,,,,,1.6829,,,,,,,,,,,,,,,,,,,,,,60fa1df4616a7c4ed9d42ae7,610368ab2ef4c8c2e0f4124d,2021-07-29_21h51.38.481,Simcolourproject_2stim_asymm_v5,2020.2.10,Win32,60,61025ae37ef11b136ea224fe,,,,,,,,,3768,18,40,1,0,0,response1disk,,7,1,-11,1,0,0,rectangle,1,-11,1,0,0,1,-11,1,0,0,0,56,56,127,1,,,,,,,,
,,,,,,,,,,,,,FF,,,,,,,,1.4339,,,,,,,,,,,,,,,,,,,,,,60fa1df4616a7c4ed9d42ae7,610368ab2ef4c8c2e0f4124d,2021-07-29_21h51.38.481,Simcolourproject_2stim_asymm_v5,2020.2.10,Win32,60,61025ae37ef11b136ea224fe,,,,,,,,,1512,34,31,1,0,0,response1disk,,6,2,10,1,0,0,rectangle,2,10,1,0,0,2,10,1,0,0,0,57,57,74,1,,,,,,,,
,,,,,,,,,,,,,FF,,,,,,,,1.4035,,,,,,,,,,,,,,,,,,,,,,60fa1df4616a7c4ed9d42ae7,610368ab2ef4c8c2e0f4124d,2021-07-29_21h51.38.481,Simcolourproject_2stim_asymm_v5,2020.2.10,Win32,60,61025ae37ef11b136ea224fe,,,,,,,,,295,43,30,1,0,0,response1disk,,6,5,7,1,0,0,rectangle,5,7,1,0,0,5,7,1,0,0,0,58,58,45,1,,,,,,,,
,,,,,,,,,,,,,FF,,,,,,,,1.2663,,,,,,,,,,,,,,,,,,,,,,60fa1df4616a7c4ed9d42ae7,610368ab2ef4c8c2e0f4124d,2021-07-29_21h51.38.481,Simcolourproject_2stim_asymm_v5,2020.2.10,Win32,60,61025ae37ef11b136ea224fe,,,,,,,,,3749,-46,28,1,0,0,response7disk,,1,7,-1,1,0,0,rectangle,7,-1,1,0,0,7,-1,1,0,0,0,59,59,112,1,,,,,,,,
,,,,,,,,,,,,,FF,,,,,,,,0.8886,,,,,,,,,,,,,,,,,,,,,,60fa1df4616a7c4ed9d42ae7,610368ab2ef4c8c2e0f4124d,2021-07-29_21h51.38.481,Simcolourproject_2stim_asymm_v5,2020.2.10,Win32,60,61025ae37ef11b136ea224fe,,,,,,,,,920,80,38,1,0,0,response1disk,,6,28,5,1,0,0,rectangle,28,5,1,0,0,28,5,1,0,0,0,60,60,24,1,,,,,,,,
,,,,,,,,,,,,,FF,,,,,,,,2.1671,,,,,,,,,,,,,,,,,,,,,,60fa1df4616a7c4ed9d42ae7,610368ab2ef4c8c2e0f4124d,2021-07-29_21h51.38.481,Simcolourproject_2stim_asymm_v5,2020.2.10,Win32,60,61025ae37ef11b136ea224fe,,,,,,,,,2817,33,58,1,0,0,response1disk,,7,1,0,1,0,0,rectangle,1,0,1,0,0,1,0,1,0,0,0,61,61,27,1,,,,,,,,
,,,,,,,,,,,,,FF,,,,,,,,1.9053,,,,,,,,,,,,,,,,,,,,,,60fa1df4616a7c4ed9d42ae7,610368ab2ef4c8c2e0f4124d,2021-07-29_21h51.38.481,Simcolourproject_2stim_asymm_v5,2020.2.10,Win32,60,61025ae37ef11b136ea224fe,,,,,,,,,3748,25,-40,1,0,0,response3disk,,4,3,-12,1,0,0,rectangle,3,-12,1,0,0,3,-12,1,0,0,0,62,62,138,1,,,,,,,,
,,,,,,,,,,,,,FF,,,,,,,,1.0674,,,,,,,,,,,,,,,,,,,,,,60fa1df4616a7c4ed9d42ae7,610368ab2ef4c8c2e0f4124d,2021-07-29_21h51.38.481,Simcolourproject_2stim_asymm_v5,2020.2.10,Win32,60,61025ae37ef11b136ea224fe,,,,,,,,,576,45,99,1,0,0,response1disk,,7,3,8,1,0,0,rectangle,3,8,1,0,0,3,8,1,0,0,0,63,63,157,1,,,,,,,,
,,,,,,,,,,,,,FF,,,,,,,,2.0169,,,,,,,,,,,,,,,,,,,,,,60fa1df4616a7c4ed9d42ae7,610368ab2ef4c8c2e0f4124d,2021-07-29_21h51.38.481,Simcolourproject_2stim_asymm_v5,2020.2.10,Win32,60,61025ae37ef11b136ea224fe,,,,,,,,,2761,43,68,1,0,0,response1disk,,7,5,10,1,0,0,rectangle,5,10,1,0,0,5,10,1,0,0,0,64,64,69,1,,,,,,,,
,,,,,,,,,,,,,FF,,,,,,,,1.1225,,,,,,,,,,,,,,,,,,,,,,60fa1df4616a7c4ed9d42ae7,610368ab2ef4c8c2e0f4124d,2021-07-29_21h51.38.481,Simcolourproject_2stim_asymm_v5,2020.2.10,Win32,60,61025ae37ef11b136ea224fe,,,,,,,,,2643,43,67,1,0,0,response1disk,,7,3,8,1,0,0,rectangle,3,8,1,0,0,3,8,1,0,0,0,65,65,142,1,,,,,,,,
,,,,,,,,,,,,,FF,,,,,,,,1.7334,,,,,,,,,,,,,,,,,,,,,,60fa1df4616a7c4ed9d42ae7,610368ab2ef4c8c2e0f4124d,2021-07-29_21h51.38.481,Simcolourproject_2stim_asymm_v5,2020.2.10,Win32,60,61025ae37ef11b136ea224fe,,,,,,,,,1042,50,-19,1,0,0,response3disk,,5,26,2,1,0,0,rectangle,26,2,1,0,0,26,2,1,0,0,0,66,66,44,1,,,,,,,,
,,,,,,,,,,,,,FF,,,,,,,,1.0832,,,,,,,,,,,,,,,,,,,,,,60fa1df4616a7c4ed9d42ae7,610368ab2ef4c8c2e0f4124d,2021-07-29_21h51.38.481,Simcolourproject_2stim_asymm_v5,2020.2.10,Win32,60,61025ae37ef11b136ea224fe,,,,,,,,,1426,52,25,1,0,0,response1disk,,6,-2,-12,1,0,0,rectangle,-2,-12,1,0,0,-2,-12,1,0,0,0,67,67,54,1,,,,,,,,
,,,,,,,,,,,,,FF,,,,,,,,1.0159,,,,,,,,,,,,,,,,,,,,,,60fa1df4616a7c4ed9d42ae7,610368ab2ef4c8c2e0f4124d,2021-07-29_21h51.38.481,Simcolourproject_2stim_asymm_v5,2020.2.10,Win32,60,61025ae37ef11b136ea224fe,,,,,,,,,3643,34,46,1,0,0,response1disk,,7,3,-4,1,0,0,rectangle,3,-4,1,0,0,3,-4,1,0,0,0,68,68,92,1,,,,,,,,
,,,,,,,,,,,,,FF,,,,,,,,0.8505,,,,,,,,,,,,,,,,,,,,,,60fa1df4616a7c4ed9d42ae7,610368ab2ef4c8c2e0f4124d,2021-07-29_21h51.38.481,Simcolourproject_2stim_asymm_v5,2020.2.10,Win32,60,61025ae37ef11b136ea224fe,,,,,,,,,433,39,58,1,0,0,response1disk,,7,6,1,1,0,0,rectangle,6,1,1,0,0,6,1,1,0,0,0,69,69,139,1,,,,,,,,
,,,,,,,,,,,,,FF,,,,,,,,1.4164,,,,,,,,,,,,,,,,,,,,,,60fa1df4616a7c4ed9d42ae7,610368ab2ef4c8c2e0f4124d,2021-07-29_21h51.38.481,Simcolourproject_2stim_asymm_v5,2020.2.10,Win32,60,61025ae37ef11b136ea224fe,,,,,,,,,1970,-23,-52,1,0,0,response5disk,,3,7,1,1,0,0,rectangle,7,1,1,0,0,7,1,1,0,0,0,70,70,14,1,,,,,,,,
,,,,,,,,,,,,,FF,,,,,,,,1.1173,,,,,,,,,,,,,,,,,,,,,,60fa1df4616a7c4ed9d42ae7,610368ab2ef4c8c2e0f4124d,2021-07-29_21h51.38.481,Simcolourproject_2stim_asymm_v5,2020.2.10,Win32,60,61025ae37ef11b136ea224fe,,,,,,,,,3611,43,25,1,0,0,response1disk,,6,5,-10,1,0,0,rectangle,5,-10,1,0,0,5,-10,1,0,0,0,71,71,143,1,,,,,,,,
,,,,,,,,,,,,,FF,,,,,,,,0.8827,,,,,,,,,,,,,,,,,,,,,,60fa1df4616a7c4ed9d42ae7,610368ab2ef4c8c2e0f4124d,2021-07-29_21h51.38.481,Simcolourproject_2stim_asymm_v5,2020.2.10,Win32,60,61025ae37ef11b136ea224fe,,,,,,,,,1003,23,47,1,0,0,response1disk,,7,10,1,1,0,0,rectangle,-67,33,1,0,0,-19,5,1,0,0,0,72,72,93,1,,response7disk_3,TRUE,1,1,"[306,214,116,301,257,248,30,75,121,198,84,218,18,149,99,73,292,109,42,320]",1.8322,rectangle
,,,,,,,,,,,,,FF,,,,,,,,2.5004,,,,,,,,,,,,,,,,,,,,,,60fa1df4616a7c4ed9d42ae7,610368ab2ef4c8c2e0f4124d,2021-07-29_21h51.38.481,Simcolourproject_2stim_asymm_v5,2020.2.10,Win32,60,61025ae37ef11b136ea224fe,,,,,,,,,199,24,52,1,0,0,response1disk,,7,7,-1,1,0,0,rectangle,7,-1,1,0,0,7,-1,1,0,0,0,73,73,129,1,,,,,,,,
,,,,,,,,,,,,,FF,,,,,,,,1.3002,,,,,,,,,,,,,,,,,,,,,,60fa1df4616a7c4ed9d42ae7,610368ab2ef4c8c2e0f4124d,2021-07-29_21h51.38.481,Simcolourproject_2stim_asymm_v5,2020.2.10,Win32,60,61025ae37ef11b136ea224fe,,,,,,,,,3439,30,28,1,0,0,response1disk,,6,15,-9,1,0,0,rectangle,-82,38,1,0,0,-7,12,1,0,0,0,74,74,76,1,,response7disk_3,TRUE,1,1,"[306,214,116,301,257,248,30,75,121,198,84,218,18,149,99,73,292,109,42,320]",1.9827,rectangle
,,,,,,,,,,,,,FF,,,,,,,,1.4009,,,,,,,,,,,,,,,,,,,,,,60fa1df4616a7c4ed9d42ae7,610368ab2ef4c8c2e0f4124d,2021-07-29_21h51.38.481,Simcolourproject_2stim_asymm_v5,2020.2.10,Win32,60,61025ae37ef11b136ea224fe,,,,,,,,,1638,49,65,1,0,0,response1disk,,7,6,-13,1,0,0,rectangle,6,-13,1,0,0,6,-13,1,0,0,0,75,75,91,1,,,,,,,,
,,,,,,,,,,,,,FF,,,,,,,,1.1005,,,,,,,,,,,,,,,,,,,,,,60fa1df4616a7c4ed9d42ae7,610368ab2ef4c8c2e0f4124d,2021-07-29_21h51.38.481,Simcolourproject_2stim_asymm_v5,2020.2.10,Win32,60,61025ae37ef11b136ea224fe,,,,,,,,,675,20,36,1,0,0,response1disk,,7,1,1,1,0,0,rectangle,1,1,1,0,0,1,1,1,0,0,0,76,76,20,1,,,,,,,,
,,,,,,,,,,,,,FF,,,,,,,,1.1175,,,,,,,,,,,,,,,,,,,,,,60fa1df4616a7c4ed9d42ae7,610368ab2ef4c8c2e0f4124d,2021-07-29_21h51.38.481,Simcolourproject_2stim_asymm_v5,2020.2.10,Win32,60,61025ae37ef11b136ea224fe,,,,,,,,,3482,20,36,1,0,0,response1disk,,7,3,4,1,0,0,rectangle,3,4,1,0,0,3,4,1,0,0,0,77,77,122,1,,,,,,,,
,,,,,,,,,,,,,FF,,,,,,,,1.3828,,,,,,,,,,,,,,,,,,,,,,60fa1df4616a7c4ed9d42ae7,610368ab2ef4c8c2e0f4124d,2021-07-29_21h51.38.481,Simcolourproject_2stim_asymm_v5,2020.2.10,Win32,60,61025ae37ef11b136ea224fe,,,,,,,,,739,23,39,1,0,0,response1disk,,7,7,4,1,0,0,rectangle,7,4,1,0,0,7,4,1,0,0,0,78,78,38,1,,,,,,,,
,,,,,,,,,,,,,FF,,,,,,,,1.4828,,,,,,,,,,,,,,,,,,,,,,60fa1df4616a7c4ed9d42ae7,610368ab2ef4c8c2e0f4124d,2021-07-29_21h51.38.481,Simcolourproject_2stim_asymm_v5,2020.2.10,Win32,60,61025ae37ef11b136ea224fe,,,,,,,,,3913,-50,66,1,0,0,response7disk,,0,-15,8,1,0,0,rectangle,-15,8,1,0,0,-15,8,1,0,0,0,79,79,126,1,,,,,,,,
,,,,,,,,,,,,,FF,,,,,,,,2.0662,,,,,,,,,,,,,,,,,,,,,,60fa1df4616a7c4ed9d42ae7,610368ab2ef4c8c2e0f4124d,2021-07-29_21h51.38.481,Simcolourproject_2stim_asymm_v5,2020.2.10,Win32,60,61025ae37ef11b136ea224fe,,,,,,,,,2777,-48,28,1,0,0,response7disk,,1,-20,9,1,0,0,rectangle,-20,9,1,0,0,-20,9,1,0,0,0,80,80,59,1,,,,,,,,
,,,,,,,,,,,,,FF,,,,,,,,2.283,,,,,,,,,,,,,,,,,,,,,,60fa1df4616a7c4ed9d42ae7,610368ab2ef4c8c2e0f4124d,2021-07-29_21h51.38.481,Simcolourproject_2stim_asymm_v5,2020.2.10,Win32,60,61025ae37ef11b136ea224fe,,,,,,,,,2882,-93,-47,1,0,0,response5disk,,2,-25,-4,1,0,0,rectangle,-25,-4,1,0,0,-25,-4,1,0,0,0,81,81,46,1,,,,,,,,
,,,,,,,,,,,,,FF,,,,,,,,1.1336,,,,,,,,,,,,,,,,,,,,,,60fa1df4616a7c4ed9d42ae7,610368ab2ef4c8c2e0f4124d,2021-07-29_21h51.38.481,Simcolourproject_2stim_asymm_v5,2020.2.10,Win32,60,61025ae37ef11b136ea224fe,,,,,,,,,1004,17,50,1,0,0,response1disk,,7,6,2,1,0,0,rectangle,6,2,1,0,0,6,2,1,0,0,0,82,82,12,1,,,,,,,,
,,,,,,,,,,,,,FF,,,,,,,,1.5501,,,,,,,,,,,,,,,,,,,,,,60fa1df4616a7c4ed9d42ae7,610368ab2ef4c8c2e0f4124d,2021-07-29_21h51.38.481,Simcolourproject_2stim_asymm_v5,2020.2.10,Win32,60,61025ae37ef11b136ea224fe,,,,,,,,,855,-65,33,1,0,0,response7disk,,1,-12,3,1,0,0,rectangle,-71,-33,1,0,0,0,8,1,0,0,0,83,83,50,1,,response5disk_3,TRUE,2,2,"[306,214,116,301,257,248,30,75,121,198,84,218,18,149,99,73,292,109,42,320]",1.8203,rectangle
,,,,,,,,,,,,,FF,,,,,,,,2.9999,,,,,,,,,,,,,,,,,,,,,,60fa1df4616a7c4ed9d42ae7,610368ab2ef4c8c2e0f4124d,2021-07-29_21h51.38.481,Simcolourproject_2stim_asymm_v5,2020.2.10,Win32,60,61025ae37ef11b136ea224fe,,,,,,,,,2290,30,-29,1,0,0,response3disk,,5,7,-4,1,0,0,rectangle,7,-4,1,0,0,7,-4,1,0,0,0,84,84,30,1,,,,,,,,
,,,,,,,,,,,,,FF,,,,,,,,1.1028,,,,,,,,,,,,,,,,,,,,,,60fa1df4616a7c4ed9d42ae7,610368ab2ef4c8c2e0f4124d,2021-07-29_21h51.38.481,Simcolourproject_2stim_asymm_v5,2020.2.10,Win32,60,61025ae37ef11b136ea224fe,,,,,,,,,966,25,32,1,0,0,response1disk,,7,8,10,1,0,0,rectangle,8,10,1,0,0,8,10,1,0,0,0,85,85,102,1,,,,,,,,
,,,,,,,,,,,,,FF,,,,,,,,1.088,,,,,,,,,,,,,,,,,,,,,,60fa1df4616a7c4ed9d42ae7,610368ab2ef4c8c2e0f4124d,2021-07-29_21h51.38.481,Simcolourproject_2stim_asymm_v5,2020.2.10,Win32,60,61025ae37ef11b136ea224fe,,,,,,,,,2669,-42,63,1,0,0,response7disk,,0,-11,4,1,0,0,rectangle,-11,4,1,0,0,-11,4,1,0,0,0,86,86,88,1,,,,,,,,
,,,,,,,,,,,,,FF,,,,,,,,1.1683,,,,,,,,,,,,,,,,,,,,,,60fa1df4616a7c4ed9d42ae7,610368ab2ef4c8c2e0f4124d,2021-07-29_21h51.38.481,Simcolourproject_2stim_asymm_v5,2020.2.10,Win32,60,61025ae37ef11b136ea224fe,,,,,,,,,3593,26,61,1,0,0,response1disk,,7,6,8,1,0,0,rectangle,6,8,1,0,0,6,8,1,0,0,0,87,87,151,1,,,,,,,,
,,,,,,,,,,,,,FF,,,,,,,,3.0501,,,,,,,,,,,,,,,,,,,,,,60fa1df4616a7c4ed9d42ae7,610368ab2ef4c8c2e0f4124d,2021-07-29_21h51.38.481,Simcolourproject_2stim_asymm_v5,2020.2.10,Win32,60,61025ae37ef11b136ea224fe,,,,,,,,,786,36,-21,1,0,0,response3disk,,5,13,-3,1,0,0,rectangle,13,-3,1,0,0,13,-3,1,0,0,0,88,88,120,1,,,,,,,,
,,,,,,,,,,,,,FF,,,,,,,,0.8828,,,,,,,,,,,,,,,,,,,,,,60fa1df4616a7c4ed9d42ae7,610368ab2ef4c8c2e0f4124d,2021-07-29_21h51.38.481,Simcolourproject_2stim_asymm_v5,2020.2.10,Win32,60,61025ae37ef11b136ea224fe,,,,,,,,,1726,15,54,1,0,0,response1disk,,7,7,6,1,0,0,rectangle,7,6,1,0,0,7,6,1,0,0,0,89,89,60,1,,,,,,,,
,,,,,,,,,,,,,FF,,,,,,,,1.8499,,,,,,,,,,,,,,,,,,,,,,60fa1df4616a7c4ed9d42ae7,610368ab2ef4c8c2e0f4124d,2021-07-29_21h51.38.481,Simcolourproject_2stim_asymm_v5,2020.2.10,Win32,60,61025ae37ef11b136ea224fe,,,,,,,,,163,54,-73,1,0,0,response3disk,,4,13,6,1,0,0,rectangle,13,6,1,0,0,13,6,1,0,0,0,90,90,148,1,,,,,,,,
,,,,,,,,,,,,,FF,,,,,,,,0.8367,,,,,,,,,,,,,,,,,,,,,,60fa1df4616a7c4ed9d42ae7,610368ab2ef4c8c2e0f4124d,2021-07-29_21h51.38.481,Simcolourproject_2stim_asymm_v5,2020.2.10,Win32,60,61025ae37ef11b136ea224fe,,,,,,,,,321,22,45,1,0,0,response1disk,,7,7,0,1,0,0,rectangle,7,0,1,0,0,7,0,1,0,0,0,91,91,121,1,,,,,,,,
,,,,,,,,,,,,,FF,,,,,,,,0.8337,,,,,,,,,,,,,,,,,,,,,,60fa1df4616a7c4ed9d42ae7,610368ab2ef4c8c2e0f4124d,2021-07-29_21h51.38.481,Simcolourproject_2stim_asymm_v5,2020.2.10,Win32,60,61025ae37ef11b136ea224fe,,,,,,,,,1161,20,34,1,0,0,response1disk,,7,13,-4,1,0,0,rectangle,13,-4,1,0,0,13,-4,1,0,0,0,92,92,105,1,,,,,,,,
,,,,,,,,,,,,,FF,,,,,,,,0.8841,,,,,,,,,,,,,,,,,,,,,,60fa1df4616a7c4ed9d42ae7,610368ab2ef4c8c2e0f4124d,2021-07-29_21h51.38.481,Simcolourproject_2stim_asymm_v5,2020.2.10,Win32,60,61025ae37ef11b136ea224fe,,,,,,,,,4077,25,37,1,0,0,response1disk,,7,17,7,1,0,0,rectangle,17,7,1,0,0,17,7,1,0,0,0,93,93,98,1,,,,,,,,
,,,,,,,,,,,,,FF,,,,,,,,0.9327,,,,,,,,,,,,,,,,,,,,,,60fa1df4616a7c4ed9d42ae7,610368ab2ef4c8c2e0f4124d,2021-07-29_21h51.38.481,Simcolourproject_2stim_asymm_v5,2020.2.10,Win32,60,61025ae37ef11b136ea224fe,,,,,,,,,3875,-38,54,1,0,0,response7disk,,0,-2,2,1,0,0,rectangle,-2,2,1,0,0,-2,2,1,0,0,0,94,94,158,1,,,,,,,,
,,,,,,,,,,,,,FF,,,,,,,,2.245,,,,,,,,,,,,,,,,,,,,,,60fa1df4616a7c4ed9d42ae7,610368ab2ef4c8c2e0f4124d,2021-07-29_21h51.38.481,Simcolourproject_2stim_asymm_v5,2020.2.10,Win32,60,61025ae37ef11b136ea224fe,,,,,,,,,1794,23,59,1,0,0,response1disk,,7,9,0,1,0,0,rectangle,9,0,1,0,0,9,0,1,0,0,0,95,95,97,1,,,,,,,,
,,,,,,,,,,,,,FF,,,,,,,,1.6499,,,,,,,,,,,,,,,,,,,,,,60fa1df4616a7c4ed9d42ae7,610368ab2ef4c8c2e0f4124d,2021-07-29_21h51.38.481,Simcolourproject_2stim_asymm_v5,2020.2.10,Win32,60,61025ae37ef11b136ea224fe,,,,,,,,,1828,-41,-27,1,0,0,response5disk,,2,5,-7,1,0,0,rectangle,5,-7,1,0,0,5,-7,1,0,0,0,96,96,155,1,,,,,,,,
,,,,,,,,,,,,,FF,,,,,,,,1.1333,,,,,,,,,,,,,,,,,,,,,,60fa1df4616a7c4ed9d42ae7,610368ab2ef4c8c2e0f4124d,2021-07-29_21h51.38.481,Simcolourproject_2stim_asymm_v5,2020.2.10,Win32,60,61025ae37ef11b136ea224fe,,,,,,,,,2556,40,-20,1,0,0,response3disk,,5,11,-8,1,0,0,rectangle,11,-8,1,0,0,11,-8,1,0,0,0,97,97,5,1,,,,,,,,
,,,,,,,,,,,,,FF,,,,,,,,0.9669,,,,,,,,,,,,,,,,,,,,,,60fa1df4616a7c4ed9d42ae7,610368ab2ef4c8c2e0f4124d,2021-07-29_21h51.38.481,Simcolourproject_2stim_asymm_v5,2020.2.10,Win32,60,61025ae37ef11b136ea224fe,,,,,,,,,3345,18,36,1,0,0,response1disk,,7,1,-4,1,0,0,rectangle,-68,38,1,0,0,-5,10,1,0,0,0,98,98,100,1,,response7disk_3,TRUE,1,1,"[306,214,116,301,257,248,30,75,121,198,84,218,18,149,99,73,292,109,42,320]",1.5749,rectangle
,,,,,,,,,,,,,FF,,,,,,,,1.666,,,,,,,,,,,,,,,,,,,,,,60fa1df4616a7c4ed9d42ae7,610368ab2ef4c8c2e0f4124d,2021-07-29_21h51.38.481,Simcolourproject_2stim_asymm_v5,2020.2.10,Win32,60,61025ae37ef11b136ea224fe,,,,,,,,,2320,26,52,1,0,0,response1disk,,7,4,7,1,0,0,rectangle,4,7,1,0,0,4,7,1,0,0,0,99,99,137,1,,,,,,,,
,,,,,,,,,,,,,FF,,,,,,,,1.0837,,,,,,,,,,,,,,,,,,,,,,60fa1df4616a7c4ed9d42ae7,610368ab2ef4c8c2e0f4124d,2021-07-29_21h51.38.481,Simcolourproject_2stim_asymm_v5,2020.2.10,Win32,60,61025ae37ef11b136ea224fe,,,,,,,,,1650,21,44,1,0,0,response1disk,,7,12,7,1,0,0,rectangle,12,7,1,0,0,12,7,1,0,0,0,100,100,41,1,,,,,,,,
,,,,,,,,,,,,,FF,,,,,,,,0.9537,,,,,,,,,,,,,,,,,,,,,,60fa1df4616a7c4ed9d42ae7,610368ab2ef4c8c2e0f4124d,2021-07-29_21h51.38.481,Simcolourproject_2stim_asymm_v5,2020.2.10,Win32,60,61025ae37ef11b136ea224fe,,,,,,,,,1934,30,52,1,0,0,response1disk,,7,2,-2,1,0,0,rectangle,2,-2,1,0,0,2,-2,1,0,0,0,101,101,26,1,,,,,,,,
,,,,,,,,,,,,,FF,,,,,,,,0.8998,,,,,,,,,,,,,,,,,,,,,,60fa1df4616a7c4ed9d42ae7,610368ab2ef4c8c2e0f4124d,2021-07-29_21h51.38.481,Simcolourproject_2stim_asymm_v5,2020.2.10,Win32,60,61025ae37ef11b136ea224fe,,,,,,,,,420,26,52,1,0,0,response1disk,,7,13,-7,1,0,0,rectangle,13,-7,1,0,0,13,-7,1,0,0,0,102,102,115,1,,,,,,,,
,,,,,,,,,,,,,FF,,,,,,,,1.2506,,,,,,,,,,,,,,,,,,,,,,60fa1df4616a7c4ed9d42ae7,610368ab2ef4c8c2e0f4124d,2021-07-29_21h51.38.481,Simcolourproject_2stim_asymm_v5,2020.2.10,Win32,60,61025ae37ef11b136ea224fe,,,,,,,,,1555,28,40,1,0,0,response1disk,,7,5,-2,1,0,0,rectangle,5,-2,1,0,0,5,-2,1,0,0,0,103,103,61,1,,,,,,,,
,,,,,,,,,,,,,FF,,,,,,,,1.7668,,,,,,,,,,,,,,,,,,,,,,60fa1df4616a7c4ed9d42ae7,610368ab2ef4c8c2e0f4124d,2021-07-29_21h51.38.481,Simcolourproject_2stim_asymm_v5,2020.2.10,Win32,60,61025ae37ef11b136ea224fe,,,,,,,,,1949,33,-40,1,0,0,response3disk,,4,16,-5,1,0,0,rectangle,16,-5,1,0,0,16,-5,1,0,0,0,104,104,3,1,,,,,,,,
,,,,,,,,,,,,,FF,,,,,,,,1.1662,,,,,,,,,,,,,,,,,,,,,,60fa1df4616a7c4ed9d42ae7,610368ab2ef4c8c2e0f4124d,2021-07-29_21h51.38.481,Simcolourproject_2stim_asymm_v5,2020.2.10,Win32,60,61025ae37ef11b136ea224fe,,,,,,,,,3286,-42,29,1,0,0,response7disk,,1,-12,-14,1,0,0,rectangle,-12,-14,1,0,0,-12,-14,1,0,0,0,105,105,62,1,,,,,,,,
,,,,,,,,,,,,,FF,,,,,,,,1.7728,,,,,,,,,,,,,,,,,,,,,,60fa1df4616a7c4ed9d42ae7,610368ab2ef4c8c2e0f4124d,2021-07-29_21h51.38.481,Simcolourproject_2stim_asymm_v5,2020.2.10,Win32,60,61025ae37ef11b136ea224fe,,,,,,,,,370,-51,23,1,0,0,response7disk,,1,-6,1,1,0,0,rectangle,-6,1,1,0,0,-6,1,1,0,0,0,106,106,39,1,,,,,,,,
,,,,,,,,,,,,,FF,,,,,,,,0.9657,,,,,,,,,,,,,,,,,,,,,,60fa1df4616a7c4ed9d42ae7,610368ab2ef4c8c2e0f4124d,2021-07-29_21h51.38.481,Simcolourproject_2stim_asymm_v5,2020.2.10,Win32,60,61025ae37ef11b136ea224fe,,,,,,,,,2014,25,69,1,0,0,response1disk,,7,13,7,1,0,0,rectangle,13,7,1,0,0,13,7,1,0,0,0,107,107,13,1,,,,,,,,
,,,,,,,,,,,,,FF,,,,,,,,1.4498,,,,,,,,,,,,,,,,,,,,,,60fa1df4616a7c4ed9d42ae7,610368ab2ef4c8c2e0f4124d,2021-07-29_21h51.38.481,Simcolourproject_2stim_asymm_v5,2020.2.10,Win32,60,61025ae37ef11b136ea224fe,,,,,,,,,3717,27,54,1,0,0,response1disk,,7,14,15,1,0,0,rectangle,-77,40,1,0,0,-23,8,1,0,0,0,108,108,40,1,,response7disk_3,TRUE,1,1,"[306,214,116,301,257,248,30,75,121,198,84,218,18,149,99,73,292,109,42,320]",2.0383,rectangle
,,,,,,,,,,,,,FF,,,,,,,,1.1882,,,,,,,,,,,,,,,,,,,,,,60fa1df4616a7c4ed9d42ae7,610368ab2ef4c8c2e0f4124d,2021-07-29_21h51.38.481,Simcolourproject_2stim_asymm_v5,2020.2.10,Win32,60,61025ae37ef11b136ea224fe,,,,,,,,,2918,34,71,1,0,0,response1disk,,7,-2,8,1,0,0,rectangle,-2,8,1,0,0,-2,8,1,0,0,0,109,109,18,1,,,,,,,,
,,,,,,,,,,,,,FF,,,,,,,,3.4993,,,,,,,,,,,,,,,,,,,,,,60fa1df4616a7c4ed9d42ae7,610368ab2ef4c8c2e0f4124d,2021-07-29_21h51.38.481,Simcolourproject_2stim_asymm_v5,2020.2.10,Win32,60,61025ae37ef11b136ea224fe,,,,,,,,,842,50,69,1,0,0,response1disk,,7,15,10,1,0,0,rectangle,15,10,1,0,0,15,10,1,0,0,0,110,110,90,1,,,,,,,,
,,,,,,,,,,,,,FF,,,,,,,,0.9181,,,,,,,,,,,,,,,,,,,,,,60fa1df4616a7c4ed9d42ae7,610368ab2ef4c8c2e0f4124d,2021-07-29_21h51.38.481,Simcolourproject_2stim_asymm_v5,2020.2.10,Win32,60,61025ae37ef11b136ea224fe,,,,,,,,,1495,15,46,1,0,0,response1disk,,7,14,5,1,0,0,rectangle,14,5,1,0,0,14,5,1,0,0,0,111,111,96,1,,,,,,,,
,,,,,,,,,,,,,FF,,,,,,,,0.8821,,,,,,,,,,,,,,,,,,,,,,60fa1df4616a7c4ed9d42ae7,610368ab2ef4c8c2e0f4124d,2021-07-29_21h51.38.481,Simcolourproject_2stim_asymm_v5,2020.2.10,Win32,60,61025ae37ef11b136ea224fe,,,,,,,,,755,20,44,1,0,0,response1disk,,7,10,7,1,0,0,rectangle,10,7,1,0,0,10,7,1,0,0,0,112,112,72,1,,,,,,,,
,,,,,,,,,,,,,FF,,,,,,,,1.0268,,,,,,,,,,,,,,,,,,,,,,60fa1df4616a7c4ed9d42ae7,610368ab2ef4c8c2e0f4124d,2021-07-29_21h51.38.481,Simcolourproject_2stim_asymm_v5,2020.2.10,Win32,60,61025ae37ef11b136ea224fe,,,,,,,,,4159,30,59,1,0,0,response1disk,,7,16,13,1,0,0,rectangle,16,13,1,0,0,16,13,1,0,0,0,113,113,124,1,,,,,,,,
,,,,,,,,,,,,,FF,,,,,,,,1.1619,,,,,,,,,,,,,,,,,,,,,,60fa1df4616a7c4ed9d42ae7,610368ab2ef4c8c2e0f4124d,2021-07-29_21h51.38.481,Simcolourproject_2stim_asymm_v5,2020.2.10,Win32,60,61025ae37ef11b136ea224fe,,,,,,,,,2806,27,63,1,0,0,response1disk,,7,10,5,1,0,0,rectangle,10,5,1,0,0,10,5,1,0,0,0,114,114,17,1,,,,,,,,
,,,,,,,,,,,,,FF,,,,,,,,1.1314,,,,,,,,,,,,,,,,,,,,,,60fa1df4616a7c4ed9d42ae7,610368ab2ef4c8c2e0f4124d,2021-07-29_21h51.38.481,Simcolourproject_2stim_asymm_v5,2020.2.10,Win32,60,61025ae37ef11b136ea224fe,,,,,,,,,1013,27,71,1,0,0,response1disk,,7,5,3,1,0,0,rectangle,-37,-72,1,0,0,-6,3,1,0,0,0,115,115,80,1,,response5disk_3,TRUE,3,3,"[306,214,116,301,257,248,30,75,121,198,84,218,18,149,99,73,292,109,42,320]",1.888,rectangle
,,,,,,,,,,,,,FF,,,,,,,,1.8502,,,,,,,,,,,,,,,,,,,,,,60fa1df4616a7c4ed9d42ae7,610368ab2ef4c8c2e0f4124d,2021-07-29_21h51.38.481,Simcolourproject_2stim_asymm_v5,2020.2.10,Win32,60,61025ae37ef11b136ea224fe,,,,,,,,,99,-26,-70,1,0,0,response5disk,,3,14,10,1,0,0,rectangle,14,10,1,0,0,14,10,1,0,0,0,116,116,37,1,,,,,,,,
,,,,,,,,,,,,,FF,,,,,,,,1.4667,,,,,,,,,,,,,,,,,,,,,,60fa1df4616a7c4ed9d42ae7,610368ab2ef4c8c2e0f4124d,2021-07-29_21h51.38.481,Simcolourproject_2stim_asymm_v5,2020.2.10,Win32,60,61025ae37ef11b136ea224fe,,,,,,,,,3105,-58,36,1,0,0,response7disk,,1,-26,2,1,0,0,rectangle,-26,2,1,0,0,-26,2,1,0,0,0,117,117,15,1,,,,,,,,
,,,,,,,,,,,,,FF,,,,,,,,2.3664,,,,,,,,,,,,,,,,,,,,,,60fa1df4616a7c4ed9d42ae7,610368ab2ef4c8c2e0f4124d,2021-07-29_21h51.38.481,Simcolourproject_2stim_asymm_v5,2020.2.10,Win32,60,61025ae37ef11b136ea224fe,,,,,,,,,2994,66,-34,1,0,0,response3disk,,5,10,4,1,0,0,rectangle,10,4,1,0,0,10,4,1,0,0,0,118,118,103,1,,,,,,,,
,,,,,,,,,,,,,FF,,,,,,,,1.4164,,,,,,,,,,,,,,,,,,,,,,60fa1df4616a7c4ed9d42ae7,610368ab2ef4c8c2e0f4124d,2021-07-29_21h51.38.481,Simcolourproject_2stim_asymm_v5,2020.2.10,Win32,60,61025ae37ef11b136ea224fe,,,,,,,,,4180,31,46,1,0,0,response1disk,,7,15,3,1,0,0,rectangle,15,3,1,0,0,15,3,1,0,0,0,119,119,64,1,,,,,,,,
,,,,,,,,,,,,,FF,,,,,,,,1.3168,,,,,,,,,,,,,,,,,,,,,,60fa1df4616a7c4ed9d42ae7,610368ab2ef4c8c2e0f4124d,2021-07-29_21h51.38.481,Simcolourproject_2stim_asymm_v5,2020.2.10,Win32,60,61025ae37ef11b136ea224fe,,,,,,,,,3713,-55,38,1,0,0,response7disk,,1,-21,6,1,0,0,rectangle,60,121,1,0,0,-1,0,1,0,0,0,120,120,36,1,,response1disk_3,TRUE,7,7,"[306,214,116,301,257,248,30,75,121,198,84,218,18,149,99,73,292,109,42,320]",1.8836,rectangle
,,,,,,,,,,,,,FF,,,,,,,,1.0163,,,,,,,,,,,,,,,,,,,,,,60fa1df4616a7c4ed9d42ae7,610368ab2ef4c8c2e0f4124d,2021-07-29_21h51.38.481,Simcolourproject_2stim_asymm_v5,2020.2.10,Win32,60,61025ae37ef11b136ea224fe,,,,,,,,,1481,26,63,1,0,0,response1disk,,7,12,0,1,0,0,rectangle,12,0,1,0,0,12,0,1,0,0,0,121,121,8,1,,,,,,,,
,,,,,,,,,,,,,FF,,,,,,,,2.0005,,,,,,,,,,,,,,,,,,,,,,60fa1df4616a7c4ed9d42ae7,610368ab2ef4c8c2e0f4124d,2021-07-29_21h51.38.481,Simcolourproject_2stim_asymm_v5,2020.2.10,Win32,60,61025ae37ef11b136ea224fe,,,,,,,,,1133,-32,-84,1,0,0,response5disk,,3,-5,4,1,0,0,rectangle,-5,4,1,0,0,-5,4,1,0,0,0,122,122,101,1,,,,,,,,
,,,,,,,,,,,,,FF,,,,,,,,1.4505,,,,,,,,,,,,,,,,,,,,,,60fa1df4616a7c4ed9d42ae7,610368ab2ef4c8c2e0f4124d,2021-07-29_21h51.38.481,Simcolourproject_2stim_asymm_v5,2020.2.10,Win32,60,61025ae37ef11b136ea224fe,,,,,,,,,3559,-32,-87,1,0,0,response5disk,,3,-1,8,1,0,0,rectangle,-1,8,1,0,0,-1,8,1,0,0,0,123,123,52,1,,,,,,,,
,,,,,,,,,,,,,FF,,,,,,,,0.8667,,,,,,,,,,,,,,,,,,,,,,60fa1df4616a7c4ed9d42ae7,610368ab2ef4c8c2e0f4124d,2021-07-29_21h51.38.481,Simcolourproject_2stim_asymm_v5,2020.2.10,Win32,60,61025ae37ef11b136ea224fe,,,,,,,,,1565,23,47,1,0,0,response1disk,,7,7,-10,1,0,0,rectangle,7,-10,1,0,0,7,-10,1,0,0,0,124,124,71,1,,,,,,,,
,,,,,,,,,,,,,FF,,,,,,,,2.6728,,,,,,,,,,,,,,,,,,,,,,60fa1df4616a7c4ed9d42ae7,610368ab2ef4c8c2e0f4124d,2021-07-29_21h51.38.481,Simcolourproject_2stim_asymm_v5,2020.2.10,Win32,60,61025ae37ef11b136ea224fe,,,,,,,,,982,70,37,1,0,0,response1disk,,6,18,7,1,0,0,rectangle,18,7,1,0,0,18,7,1,0,0,0,125,125,55,1,,,,,,,,
,,,,,,,,,,,,,FF,,,,,,,,1.1175,,,,,,,,,,,,,,,,,,,,,,60fa1df4616a7c4ed9d42ae7,610368ab2ef4c8c2e0f4124d,2021-07-29_21h51.38.481,Simcolourproject_2stim_asymm_v5,2020.2.10,Win32,60,61025ae37ef11b136ea224fe,,,,,,,,,3630,-46,68,1,0,0,response7disk,,0,-17,-2,1,0,0,rectangle,-17,-2,1,0,0,-17,-2,1,0,0,0,126,126,77,1,,,,,,,,
,,,,,,,,,,,,,FF,,,,,,,,0.8382,,,,,,,,,,,,,,,,,,,,,,60fa1df4616a7c4ed9d42ae7,610368ab2ef4c8c2e0f4124d,2021-07-29_21h51.38.481,Simcolourproject_2stim_asymm_v5,2020.2.10,Win32,60,61025ae37ef11b136ea224fe,,,,,,,,,734,40,60,1,0,0,response1disk,,7,21,2,1,0,0,rectangle,21,2,1,0,0,21,2,1,0,0,0,127,127,28,1,,,,,,,,
,,,,,,,,,,,,,FF,,,,,,,,0.9229,,,,,,,,,,,,,,,,,,,,,,60fa1df4616a7c4ed9d42ae7,610368ab2ef4c8c2e0f4124d,2021-07-29_21h51.38.481,Simcolourproject_2stim_asymm_v5,2020.2.10,Win32,60,61025ae37ef11b136ea224fe,,,,,,,,,885,-31,57,1,0,0,response7disk,,0,-6,6,1,0,0,rectangle,-6,6,1,0,0,-6,6,1,0,0,0,128,128,7,1,,,,,,,,
,,,,,,,,,,,,,FF,,,,,,,,1.2329,,,,,,,,,,,,,,,,,,,,,,60fa1df4616a7c4ed9d42ae7,610368ab2ef4c8c2e0f4124d,2021-07-29_21h51.38.481,Simcolourproject_2stim_asymm_v5,2020.2.10,Win32,60,61025ae37ef11b136ea224fe,,,,,,,,,1577,58,-28,1,0,0,response3disk,,5,18,-2,1,0,0,rectangle,18,-2,1,0,0,18,-2,1,0,0,0,129,129,136,1,,,,,,,,
,,,,,,,,,,,,,FF,,,,,,,,1.1963,,,,,,,,,,,,,,,,,,,,,,60fa1df4616a7c4ed9d42ae7,610368ab2ef4c8c2e0f4124d,2021-07-29_21h51.38.481,Simcolourproject_2stim_asymm_v5,2020.2.10,Win32,60,61025ae37ef11b136ea224fe,,,,,,,,,192,-31,-79,1,0,0,response5disk,,3,1,-1,1,0,0,rectangle,1,-1,1,0,0,1,-1,1,0,0,0,130,130,108,1,,,,,,,,
,,,,,,,,,,,,,FF,,,,,,,,1.0996,,,,,,,,,,,,,,,,,,,,,,60fa1df4616a7c4ed9d42ae7,610368ab2ef4c8c2e0f4124d,2021-07-29_21h51.38.481,Simcolourproject_2stim_asymm_v5,2020.2.10,Win32,60,61025ae37ef11b136ea224fe,,,,,,,,,3825,26,78,1,0,0,response1disk,,7,0,2,1,0,0,rectangle,0,2,1,0,0,0,2,1,0,0,0,131,131,6,1,,,,,,,,
,,,,,,,,,,,,,FF,,,,,,,,0.7996,,,,,,,,,,,,,,,,,,,,,,60fa1df4616a7c4ed9d42ae7,610368ab2ef4c8c2e0f4124d,2021-07-29_21h51.38.481,Simcolourproject_2stim_asymm_v5,2020.2.10,Win32,60,61025ae37ef11b136ea224fe,,,,,,,,,447,34,54,1,0,0,response1disk,,7,7,-7,1,0,0,rectangle,7,-7,1,0,0,7,-7,1,0,0,0,132,132,85,1,,,,,,,,
,,,,,,,,,,,,,FF,,,,,,,,1.617,,,,,,,,,,,,,,,,,,,,,,60fa1df4616a7c4ed9d42ae7,610368ab2ef4c8c2e0f4124d,2021-07-29_21h51.38.481,Simcolourproject_2stim_asymm_v5,2020.2.10,Win32,60,61025ae37ef11b136ea224fe,,,,,,,,,1827,36,-76,1,0,0,response3disk,,4,2,11,1,0,0,rectangle,2,11,1,0,0,2,11,1,0,0,0,133,133,43,1,,,,,,,,
,,,,,,,,,,,,,FF,,,,,,,,1.0677,,,,,,,,,,,,,,,,,,,,,,60fa1df4616a7c4ed9d42ae7,610368ab2ef4c8c2e0f4124d,2021-07-29_21h51.38.481,Simcolourproject_2stim_asymm_v5,2020.2.10,Win32,60,61025ae37ef11b136ea224fe,,,,,,,,,606,62,33,1,0,0,response1disk,,6,8,1,1,0,0,rectangle,8,1,1,0,0,8,1,1,0,0,0,134,134,51,1,,,,,,,,
,,,,,,,,,,,,,FF,,,,,,,,1.1162,,,,,,,,,,,,,,,,,,,,,,60fa1df4616a7c4ed9d42ae7,610368ab2ef4c8c2e0f4124d,2021-07-29_21h51.38.481,Simcolourproject_2stim_asymm_v5,2020.2.10,Win32,60,61025ae37ef11b136ea224fe,,,,,,,,,1303,46,63,1,0,0,response1disk,,7,2,-7,1,0,0,rectangle,2,-7,1,0,0,2,-7,1,0,0,0,135,135,53,1,,,,,,,,
,,,,,,,,,,,,,FF,,,,,,,,0.9833,,,,,,,,,,,,,,,,,,,,,,60fa1df4616a7c4ed9d42ae7,610368ab2ef4c8c2e0f4124d,2021-07-29_21h51.38.481,Simcolourproject_2stim_asymm_v5,2020.2.10,Win32,60,61025ae37ef11b136ea224fe,,,,,,,,,3410,26,39,1,0,0,response1disk,,7,7,12,1,0,0,rectangle,7,12,1,0,0,7,12,1,0,0,0,136,136,82,1,,,,,,,,
,,,,,,,,,,,,,FF,,,,,,,,1.4016,,,,,,,,,,,,,,,,,,,,,,60fa1df4616a7c4ed9d42ae7,610368ab2ef4c8c2e0f4124d,2021-07-29_21h51.38.481,Simcolourproject_2stim_asymm_v5,2020.2.10,Win32,60,61025ae37ef11b136ea224fe,,,,,,,,,3402,-30,-70,1,0,0,response5disk,,3,20,5,1,0,0,rectangle,20,5,1,0,0,20,5,1,0,0,0,137,137,0,1,,,,,,,,
,,,,,,,,,,,,,FF,,,,,,,,1.0794,,,,,,,,,,,,,,,,,,,,,,60fa1df4616a7c4ed9d42ae7,610368ab2ef4c8c2e0f4124d,2021-07-29_21h51.38.481,Simcolourproject_2stim_asymm_v5,2020.2.10,Win32,60,61025ae37ef11b136ea224fe,,,,,,,,,323,44,57,1,0,0,response1disk,,7,15,10,1,0,0,rectangle,15,10,1,0,0,15,10,1,0,0,0,138,138,48,1,,,,,,,,
,,,,,,,,,,,,,FF,,,,,,,,1.0172,,,,,,,,,,,,,,,,,,,,,,60fa1df4616a7c4ed9d42ae7,610368ab2ef4c8c2e0f4124d,2021-07-29_21h51.38.481,Simcolourproject_2stim_asymm_v5,2020.2.10,Win32,60,61025ae37ef11b136ea224fe,,,,,,,,,1152,31,41,1,0,0,response1disk,,7,9,9,1,0,0,rectangle,9,9,1,0,0,9,9,1,0,0,0,139,139,29,1,,,,,,,,
,,,,,,,,,,,,,FF,,,,,,,,0.6488,,,,,,,,,,,,,,,,,,,,,,60fa1df4616a7c4ed9d42ae7,610368ab2ef4c8c2e0f4124d,2021-07-29_21h51.38.481,Simcolourproject_2stim_asymm_v5,2020.2.10,Win32,60,61025ae37ef11b136ea224fe,,,,,,,,,2920,27,42,1,0,0,response1disk,,7,-4,-4,1,0,0,rectangle,-4,-4,1,0,0,-4,-4,1,0,0,0,140,140,86,1,,,,,,,,
,,,,,,,,,,,,,FF,,,,,,,,0.7018,,,,,,,,,,,,,,,,,,,,,,60fa1df4616a7c4ed9d42ae7,610368ab2ef4c8c2e0f4124d,2021-07-29_21h51.38.481,Simcolourproject_2stim_asymm_v5,2020.2.10,Win32,60,61025ae37ef11b136ea224fe,,,,,,,,,708,20,46,1,0,0,response1disk,,7,2,13,1,0,0,rectangle,2,13,1,0,0,2,13,1,0,0,0,141,141,2,1,,,,,,,,
,,,,,,,,,,,,,FF,,,,,,,,0.9005,,,,,,,,,,,,,,,,,,,,,,60fa1df4616a7c4ed9d42ae7,610368ab2ef4c8c2e0f4124d,2021-07-29_21h51.38.481,Simcolourproject_2stim_asymm_v5,2020.2.10,Win32,60,61025ae37ef11b136ea224fe,,,,,,,,,864,54,33,1,0,0,response1disk,,6,9,2,1,0,0,rectangle,9,2,1,0,0,9,2,1,0,0,0,142,142,87,1,,,,,,,,
,,,,,,,,,,,,,FF,,,,,,,,1.4554,,,,,,,,,,,,,,,,,,,,,,60fa1df4616a7c4ed9d42ae7,610368ab2ef4c8c2e0f4124d,2021-07-29_21h51.38.481,Simcolourproject_2stim_asymm_v5,2020.2.10,Win32,60,61025ae37ef11b136ea224fe,,,,,,,,,3592,-40,26,1,0,0,response7disk,,1,-16,11,1,0,0,rectangle,-16,11,1,0,0,-16,11,1,0,0,0,143,143,123,1,,,,,,,,
,,,,,,,,,,,,,FF,,,,,,,,0.9502,,,,,,,,,,,,,,,,,,,,,,60fa1df4616a7c4ed9d42ae7,610368ab2ef4c8c2e0f4124d,2021-07-29_21h51.38.481,Simcolourproject_2stim_asymm_v5,2020.2.10,Win32,60,61025ae37ef11b136ea224fe,,,,,,,,,476,26,65,1,0,0,response1disk,,7,-6,13,1,0,0,rectangle,-6,13,1,0,0,-6,13,1,0,0,0,144,144,70,1,,,,,,,,
,,,,,,,,,,,,,FF,,,,,,,,0.7454,,,,,,,,,,,,,,,,,,,,,,60fa1df4616a7c4ed9d42ae7,610368ab2ef4c8c2e0f4124d,2021-07-29_21h51.38.481,Simcolourproject_2stim_asymm_v5,2020.2.10,Win32,60,61025ae37ef11b136ea224fe,,,,,,,,,360,37,51,1,0,0,response1disk,,7,-9,4,1,0,0,rectangle,-9,4,1,0,0,-9,4,1,0,0,0,145,145,154,1,,,,,,,,
,,,,,,,,,,,,,FF,,,,,,,,1.3717,,,,,,,,,,,,,,,,,,,,,,60fa1df4616a7c4ed9d42ae7,610368ab2ef4c8c2e0f4124d,2021-07-29_21h51.38.481,Simcolourproject_2stim_asymm_v5,2020.2.10,Win32,60,61025ae37ef11b136ea224fe,,,,,,,,,3791,38,67,1,0,0,response1disk,,7,10,10,1,0,0,rectangle,10,10,1,0,0,10,10,1,0,0,0,146,146,159,1,,,,,,,,
,,,,,,,,,,,,,FF,,,,,,,,1.5843,,,,,,,,,,,,,,,,,,,,,,60fa1df4616a7c4ed9d42ae7,610368ab2ef4c8c2e0f4124d,2021-07-29_21h51.38.481,Simcolourproject_2stim_asymm_v5,2020.2.10,Win32,60,61025ae37ef11b136ea224fe,,,,,,,,,2489,30,54,1,0,0,response1disk,,7,4,14,1,0,0,rectangle,4,14,1,0,0,4,14,1,0,0,0,147,147,79,1,,,,,,,,
,,,,,,,,,,,,,FF,,,,,,,,0.9969,,,,,,,,,,,,,,,,,,,,,,60fa1df4616a7c4ed9d42ae7,610368ab2ef4c8c2e0f4124d,2021-07-29_21h51.38.481,Simcolourproject_2stim_asymm_v5,2020.2.10,Win32,60,61025ae37ef11b136ea224fe,,,,,,,,,2205,32,58,1,0,0,response1disk,,7,-1,6,1,0,0,rectangle,106,65,1,0,0,9,3,1,0,0,0,148,148,21,1,,response1disk_3,TRUE,6,6,"[306,214,116,301,257,248,30,75,121,198,84,218,18,149,99,73,292,109,42,320]",1.9824,rectangle
,,,,,,,,,,,,,FF,,,,,,,,1.6502,,,,,,,,,,,,,,,,,,,,,,60fa1df4616a7c4ed9d42ae7,610368ab2ef4c8c2e0f4124d,2021-07-29_21h51.38.481,Simcolourproject_2stim_asymm_v5,2020.2.10,Win32,60,61025ae37ef11b136ea224fe,,,,,,,,,2619,21,46,1,0,0,response1disk,,7,-1,6,1,0,0,rectangle,-1,6,1,0,0,-1,6,1,0,0,0,149,149,42,1,,,,,,,,
,,,,,,,,,,,,,FF,,,,,,,,1.0168,,,,,,,,,,,,,,,,,,,,,,60fa1df4616a7c4ed9d42ae7,610368ab2ef4c8c2e0f4124d,2021-07-29_21h51.38.481,Simcolourproject_2stim_asymm_v5,2020.2.10,Win32,60,61025ae37ef11b136ea224fe,,,,,,,,,1807,48,88,1,0,0,response1disk,,7,-1,2,1,0,0,rectangle,-1,2,1,0,0,-1,2,1,0,0,0,150,150,1,1,,,,,,,,
,,,,,,,,,,,,,FF,,,,,,,,0.8336,,,,,,,,,,,,,,,,,,,,,,60fa1df4616a7c4ed9d42ae7,610368ab2ef4c8c2e0f4124d,2021-07-29_21h51.38.481,Simcolourproject_2stim_asymm_v5,2020.2.10,Win32,60,61025ae37ef11b136ea224fe,,,,,,,,,768,20,43,1,0,0,response1disk,,7,-3,-12,1,0,0,rectangle,-3,-12,1,0,0,-3,-12,1,0,0,0,151,151,34,1,,,,,,,,
,,,,,,,,,,,,,FF,,,,,,,,2.5661,,,,,,,,,,,,,,,,,,,,,,60fa1df4616a7c4ed9d42ae7,610368ab2ef4c8c2e0f4124d,2021-07-29_21h51.38.481,Simcolourproject_2stim_asymm_v5,2020.2.10,Win32,60,61025ae37ef11b136ea224fe,,,,,,,,,3466,-68,-35,1,0,0,response5disk,,2,-7,4,1,0,0,rectangle,-7,4,1,0,0,-7,4,1,0,0,0,152,152,110,1,,,,,,,,
,,,,,,,,,,,,,FF,,,,,,,,1.7167,,,,,,,,,,,,,,,,,,,,,,60fa1df4616a7c4ed9d42ae7,610368ab2ef4c8c2e0f4124d,2021-07-29_21h51.38.481,Simcolourproject_2stim_asymm_v5,2020.2.10,Win32,60,61025ae37ef11b136ea224fe,,,,,,,,,345,85,-42,1,0,0,response3disk,,5,13,-4,1,0,0,rectangle,13,-4,1,0,0,13,-4,1,0,0,0,153,153,149,1,,,,,,,,
,,,,,,,,,,,,,FF,,,,,,,,1.8498,,,,,,,,,,,,,,,,,,,,,,60fa1df4616a7c4ed9d42ae7,610368ab2ef4c8c2e0f4124d,2021-07-29_21h51.38.481,Simcolourproject_2stim_asymm_v5,2020.2.10,Win32,60,61025ae37ef11b136ea224fe,,,,,,,,,1448,-42,-48,1,0,0,response5disk,,3,6,8,1,0,0,rectangle,6,8,1,0,0,6,8,1,0,0,0,154,154,49,1,,,,,,,,
,,,,,,,,,,,,,FF,,,,,,,,0.9002,,,,,,,,,,,,,,,,,,,,,,60fa1df4616a7c4ed9d42ae7,610368ab2ef4c8c2e0f4124d,2021-07-29_21h51.38.481,Simcolourproject_2stim_asymm_v5,2020.2.10,Win32,60,61025ae37ef11b136ea224fe,,,,,,,,,3607,15,44,1,0,0,response1disk,,7,0,10,1,0,0,rectangle,0,10,1,0,0,0,10,1,0,0,0,155,155,116,1,,,,,,,,
,,,,,,,,,,,,,FF,,,,,,,,2.5052,,,,,,,,,,,,,,,,,,,,,,60fa1df4616a7c4ed9d42ae7,610368ab2ef4c8c2e0f4124d,2021-07-29_21h51.38.481,Simcolourproject_2stim_asymm_v5,2020.2.10,Win32,60,61025ae37ef11b136ea224fe,,,,,,,,,2840,-39,-77,1,0,0,response5disk,,3,22,11,1,0,0,rectangle,22,11,1,0,0,22,11,1,0,0,0,156,156,35,1,,,,,,,,
,,,,,,,,,,,,,FF,,,,,,,,1.1382,,,,,,,,,,,,,,,,,,,,,,60fa1df4616a7c4ed9d42ae7,610368ab2ef4c8c2e0f4124d,2021-07-29_21h51.38.481,Simcolourproject_2stim_asymm_v5,2020.2.10,Win32,60,61025ae37ef11b136ea224fe,,,,,,,,,2892,-49,-32,1,0,0,response5disk,,2,-2,-8,1,0,0,rectangle,-2,-8,1,0,0,-2,-8,1,0,0,0,157,157,84,1,,,,,,,,
,,,,,,,,,,,,,FF,,,,,,,,1.8832,,,,,,,,,,,,,,,,,,,,,,60fa1df4616a7c4ed9d42ae7,610368ab2ef4c8c2e0f4124d,2021-07-29_21h51.38.481,Simcolourproject_2stim_asymm_v5,2020.2.10,Win32,60,61025ae37ef11b136ea224fe,,,,,,,,,1884,47,40,1,0,0,response1disk,,6,18,7,1,0,0,rectangle,18,7,1,0,0,18,7,1,0,0,0,158,158,153,1,,,,,,,,
,,,,,,,,,,,,,FF,,,,,,,,1.3637,,,,,,,,,,,,,,,,,,,,,,60fa1df4616a7c4ed9d42ae7,610368ab2ef4c8c2e0f4124d,2021-07-29_21h51.38.481,Simcolourproject_2stim_asymm_v5,2020.2.10,Win32,60,61025ae37ef11b136ea224fe,,,,,,,,,839,26,40,1,0,0,response1disk,,7,-3,-7,1,0,0,rectangle,-3,-7,1,0,0,-3,-7,1,0,0,0,159,159,81,1,,,,,,,,
,,,,,,,,,,,,,FF,,,,,,,,1.4508,,,,,,,,,,,,,,,,,,,,,,60fa1df4616a7c4ed9d42ae7,610368ab2ef4c8c2e0f4124d,2021-07-29_21h51.38.481,Simcolourproject_2stim_asymm_v5,2020.2.10,Win32,60,61025ae37ef11b136ea224fe,,,,,,,,,1796,49,55,1,0,0,response1disk,,7,2,5,1,0,0,rectangle,2,5,1,0,0,2,5,1,0,0,1,0,160,13,1,,,,,,,,
,,,,,,,,,,,,,FF,,,,,,,,0.9501,,,,,,,,,,,,,,,,,,,,,,60fa1df4616a7c4ed9d42ae7,610368ab2ef4c8c2e0f4124d,2021-07-29_21h51.38.481,Simcolourproject_2stim_asymm_v5,2020.2.10,Win32,60,61025ae37ef11b136ea224fe,,,,,,,,,849,23,48,1,0,0,response1disk,,7,6,13,1,0,0,rectangle,6,13,1,0,0,6,13,1,0,0,1,1,161,4,1,,,,,,,,
,,,,,,,,,,,,,FF,,,,,,,,0.8276,,,,,,,,,,,,,,,,,,,,,,60fa1df4616a7c4ed9d42ae7,610368ab2ef4c8c2e0f4124d,2021-07-29_21h51.38.481,Simcolourproject_2stim_asymm_v5,2020.2.10,Win32,60,61025ae37ef11b136ea224fe,,,,,,,,,1282,31,38,1,0,0,response1disk,,7,3,9,1,0,0,rectangle,3,9,1,0,0,3,9,1,0,0,1,2,162,125,1,,,,,,,,
,,,,,,,,,,,,,FF,,,,,,,,0.8677,,,,,,,,,,,,,,,,,,,,,,60fa1df4616a7c4ed9d42ae7,610368ab2ef4c8c2e0f4124d,2021-07-29_21h51.38.481,Simcolourproject_2stim_asymm_v5,2020.2.10,Win32,60,61025ae37ef11b136ea224fe,,,,,,,,,1500,21,31,1,0,0,response1disk,,7,14,12,1,0,0,rectangle,14,12,1,0,0,14,12,1,0,0,1,3,163,145,1,,,,,,,,
,,,,,,,,,,,,,FF,,,,,,,,1.1672,,,,,,,,,,,,,,,,,,,,,,60fa1df4616a7c4ed9d42ae7,610368ab2ef4c8c2e0f4124d,2021-07-29_21h51.38.481,Simcolourproject_2stim_asymm_v5,2020.2.10,Win32,60,61025ae37ef11b136ea224fe,,,,,,,,,3155,-36,51,1,0,0,response7disk,,0,-8,6,1,0,0,rectangle,-8,6,1,0,0,-8,6,1,0,0,1,4,164,82,1,,,,,,,,
,,,,,,,,,,,,,FF,,,,,,,,0.8497,,,,,,,,,,,,,,,,,,,,,,60fa1df4616a7c4ed9d42ae7,610368ab2ef4c8c2e0f4124d,2021-07-29_21h51.38.481,Simcolourproject_2stim_asymm_v5,2020.2.10,Win32,60,61025ae37ef11b136ea224fe,,,,,,,,,733,31,43,1,0,0,response1disk,,7,7,1,1,0,0,rectangle,7,1,1,0,0,7,1,1,0,0,1,5,165,60,1,,,,,,,,
,,,,,,,,,,,,,FF,,,,,,,,1.05,,,,,,,,,,,,,,,,,,,,,,60fa1df4616a7c4ed9d42ae7,610368ab2ef4c8c2e0f4124d,2021-07-29_21h51.38.481,Simcolourproject_2stim_asymm_v5,2020.2.10,Win32,60,61025ae37ef11b136ea224fe,,,,,,,,,4136,42,70,1,0,0,response1disk,,7,4,-3,1,0,0,rectangle,4,-3,1,0,0,4,-3,1,0,0,1,6,166,35,1,,,,,,,,
,,,,,,,,,,,,,FF,,,,,,,,1.6163,,,,,,,,,,,,,,,,,,,,,,60fa1df4616a7c4ed9d42ae7,610368ab2ef4c8c2e0f4124d,2021-07-29_21h51.38.481,Simcolourproject_2stim_asymm_v5,2020.2.10,Win32,60,61025ae37ef11b136ea224fe,,,,,,,,,4262,25,42,1,0,0,response1disk,,7,1,13,1,0,0,rectangle,1,13,1,0,0,1,13,1,0,0,1,7,167,27,1,,,,,,,,
,,,,,,,,,,,,,FF,,,,,,,,0.8327,,,,,,,,,,,,,,,,,,,,,,60fa1df4616a7c4ed9d42ae7,610368ab2ef4c8c2e0f4124d,2021-07-29_21h51.38.481,Simcolourproject_2stim_asymm_v5,2020.2.10,Win32,60,61025ae37ef11b136ea224fe,,,,,,,,,912,29,41,1,0,0,response1disk,,7,8,11,1,0,0,rectangle,8,11,1,0,0,8,11,1,0,0,1,8,168,47,1,,,,,,,,
,,,,,,,,,,,,,FF,,,,,,,,0.8005,,,,,,,,,,,,,,,,,,,,,,60fa1df4616a7c4ed9d42ae7,610368ab2ef4c8c2e0f4124d,2021-07-29_21h51.38.481,Simcolourproject_2stim_asymm_v5,2020.2.10,Win32,60,61025ae37ef11b136ea224fe,,,,,,,,,4312,31,42,1,0,0,response1disk,,7,9,14,1,0,0,rectangle,9,14,1,0,0,9,14,1,0,0,1,9,169,148,1,,,,,,,,
,,,,,,,,,,,,,FF,,,,,,,,0.8381,,,,,,,,,,,,,,,,,,,,,,60fa1df4616a7c4ed9d42ae7,610368ab2ef4c8c2e0f4124d,2021-07-29_21h51.38.481,Simcolourproject_2stim_asymm_v5,2020.2.10,Win32,60,61025ae37ef11b136ea224fe,,,,,,,,,244,34,57,1,0,0,response1disk,,7,-3,5,1,0,0,rectangle,-3,5,1,0,0,-3,5,1,0,0,1,10,170,48,1,,,,,,,,
,,,,,,,,,,,,,FF,,,,,,,,0.9627,,,,,,,,,,,,,,,,,,,,,,60fa1df4616a7c4ed9d42ae7,610368ab2ef4c8c2e0f4124d,2021-07-29_21h51.38.481,Simcolourproject_2stim_asymm_v5,2020.2.10,Win32,60,61025ae37ef11b136ea224fe,,,,,,,,,534,27,52,1,0,0,response1disk,,7,-13,-4,1,0,0,rectangle,-13,-4,1,0,0,-13,-4,1,0,0,1,11,171,51,1,,,,,,,,
,,,,,,,,,,,,,FF,,,,,,,,0.9617,,,,,,,,,,,,,,,,,,,,,,60fa1df4616a7c4ed9d42ae7,610368ab2ef4c8c2e0f4124d,2021-07-29_21h51.38.481,Simcolourproject_2stim_asymm_v5,2020.2.10,Win32,60,61025ae37ef11b136ea224fe,,,,,,,,,2601,-42,56,1,0,0,response7disk,,0,-21,11,1,0,0,rectangle,-21,11,1,0,0,-21,11,1,0,0,1,12,172,81,1,,,,,,,,
,,,,,,,,,,,,,FF,,,,,,,,1.7985,,,,,,,,,,,,,,,,,,,,,,60fa1df4616a7c4ed9d42ae7,610368ab2ef4c8c2e0f4124d,2021-07-29_21h51.38.481,Simcolourproject_2stim_asymm_v5,2020.2.10,Win32,60,61025ae37ef11b136ea224fe,,,,,,,,,4070,25,71,1,0,0,response1disk,,7,-10,7,1,0,0,rectangle,-10,7,1,0,0,-10,7,1,0,0,1,13,173,110,1,,,,,,,,
,,,,,,,,,,,,,FF,,,,,,,,0.8832,,,,,,,,,,,,,,,,,,,,,,60fa1df4616a7c4ed9d42ae7,610368ab2ef4c8c2e0f4124d,2021-07-29_21h51.38.481,Simcolourproject_2stim_asymm_v5,2020.2.10,Win32,60,61025ae37ef11b136ea224fe,,,,,,,,,1559,19,62,1,0,0,response1disk,,7,2,8,1,0,0,rectangle,2,8,1,0,0,2,8,1,0,0,1,14,174,15,1,,,,,,,,
,,,,,,,,,,,,,FF,,,,,,,,0.9333,,,,,,,,,,,,,,,,,,,,,,60fa1df4616a7c4ed9d42ae7,610368ab2ef4c8c2e0f4124d,2021-07-29_21h51.38.481,Simcolourproject_2stim_asymm_v5,2020.2.10,Win32,60,61025ae37ef11b136ea224fe,,,,,,,,,1124,44,77,1,0,0,response1disk,,7,14,15,1,0,0,rectangle,14,15,1,0,0,14,15,1,0,0,1,15,175,24,1,,,,,,,,
,,,,,,,,,,,,,FF,,,,,,,,1.6661,,,,,,,,,,,,,,,,,,,,,,60fa1df4616a7c4ed9d42ae7,610368ab2ef4c8c2e0f4124d,2021-07-29_21h51.38.481,Simcolourproject_2stim_asymm_v5,2020.2.10,Win32,60,61025ae37ef11b136ea224fe,,,,,,,,,2368,54,-96,1,0,0,response3disk,,4,15,1,1,0,0,rectangle,15,1,1,0,0,15,1,1,0,0,1,16,176,122,1,,,,,,,,
,,,,,,,,,,,,,FF,,,,,,,,0.8675,,,,,,,,,,,,,,,,,,,,,,60fa1df4616a7c4ed9d42ae7,610368ab2ef4c8c2e0f4124d,2021-07-29_21h51.38.481,Simcolourproject_2stim_asymm_v5,2020.2.10,Win32,60,61025ae37ef11b136ea224fe,,,,,,,,,1718,23,63,1,0,0,response1disk,,7,10,6,1,0,0,rectangle,10,6,1,0,0,10,6,1,0,0,1,17,177,46,1,,,,,,,,
,,,,,,,,,,,,,FF,,,,,,,,0.9495,,,,,,,,,,,,,,,,,,,,,,60fa1df4616a7c4ed9d42ae7,610368ab2ef4c8c2e0f4124d,2021-07-29_21h51.38.481,Simcolourproject_2stim_asymm_v5,2020.2.10,Win32,60,61025ae37ef11b136ea224fe,,,,,,,,,1014,26,55,1,0,0,response1disk,,7,5,1,1,0,0,rectangle,5,1,1,0,0,5,1,1,0,0,1,18,178,38,1,,,,,,,,
,,,,,,,,,,,,,FF,,,,,,,,1.4839,,,,,,,,,,,,,,,,,,,,,,60fa1df4616a7c4ed9d42ae7,610368ab2ef4c8c2e0f4124d,2021-07-29_21h51.38.481,Simcolourproject_2stim_asymm_v5,2020.2.10,Win32,60,61025ae37ef11b136ea224fe,,,,,,,,,3827,19,53,1,0,0,response1disk,,7,4,8,1,0,0,rectangle,4,8,1,0,0,4,8,1,0,0,1,19,179,18,1,,,,,,,,
,,,,,,,,,,,,,FF,,,,,,,,3.0678,,,,,,,,,,,,,,,,,,,,,,60fa1df4616a7c4ed9d42ae7,610368ab2ef4c8c2e0f4124d,2021-07-29_21h51.38.481,Simcolourproject_2stim_asymm_v5,2020.2.10,Win32,60,61025ae37ef11b136ea224fe,,,,,,,,,2216,18,44,1,0,0,response1disk,,7,5,-11,1,0,0,rectangle,5,-11,1,0,0,5,-11,1,0,0,1,20,180,66,1,,,,,,,,
,,,,,,,,,,,,,FF,,,,,,,,1.9465,,,,,,,,,,,,,,,,,,,,,,60fa1df4616a7c4ed9d42ae7,610368ab2ef4c8c2e0f4124d,2021-07-29_21h51.38.481,Simcolourproject_2stim_asymm_v5,2020.2.10,Win32,60,61025ae37ef11b136ea224fe,,,,,,,,,3941,35,57,1,0,0,response1disk,,7,3,5,1,0,0,rectangle,3,5,1,0,0,3,5,1,0,0,1,21,181,73,1,,,,,,,,
,,,,,,,,,,,,,FF,,,,,,,,1.0798,,,,,,,,,,,,,,,,,,,,,,60fa1df4616a7c4ed9d42ae7,610368ab2ef4c8c2e0f4124d,2021-07-29_21h51.38.481,Simcolourproject_2stim_asymm_v5,2020.2.10,Win32,60,61025ae37ef11b136ea224fe,,,,,,,,,4119,49,21,1,0,0,response1disk,,6,20,-1,1,0,0,rectangle,20,-1,1,0,0,20,-1,1,0,0,1,22,182,16,1,,,,,,,,
,,,,,,,,,,,,,FF,,,,,,,,0.5784,,,,,,,,,,,,,,,,,,,,,,60fa1df4616a7c4ed9d42ae7,610368ab2ef4c8c2e0f4124d,2021-07-29_21h51.38.481,Simcolourproject_2stim_asymm_v5,2020.2.10,Win32,60,61025ae37ef11b136ea224fe,,,,,,,,,1207,36,50,1,0,0,response1disk,,7,7,3,1,0,0,rectangle,7,3,1,0,0,7,3,1,0,0,1,23,183,40,1,,,,,,,,
,,,,,,,,,,,,,FF,,,,,,,,0.8029,,,,,,,,,,,,,,,,,,,,,,60fa1df4616a7c4ed9d42ae7,610368ab2ef4c8c2e0f4124d,2021-07-29_21h51.38.481,Simcolourproject_2stim_asymm_v5,2020.2.10,Win32,60,61025ae37ef11b136ea224fe,,,,,,,,,3927,27,47,1,0,0,response1disk,,7,11,11,1,0,0,rectangle,11,11,1,0,0,11,11,1,0,0,1,24,184,50,1,,,,,,,,
,,,,,,,,,,,,,FF,,,,,,,,0.5503,,,,,,,,,,,,,,,,,,,,,,60fa1df4616a7c4ed9d42ae7,610368ab2ef4c8c2e0f4124d,2021-07-29_21h51.38.481,Simcolourproject_2stim_asymm_v5,2020.2.10,Win32,60,61025ae37ef11b136ea224fe,,,,,,,,,1626,29,45,1,0,0,response1disk,,7,5,-9,1,0,0,rectangle,5,-9,1,0,0,5,-9,1,0,0,1,25,185,21,1,,,,,,,,
,,,,,,,,,,,,,FF,,,,,,,,1.7678,,,,,,,,,,,,,,,,,,,,,,60fa1df4616a7c4ed9d42ae7,610368ab2ef4c8c2e0f4124d,2021-07-29_21h51.38.481,Simcolourproject_2stim_asymm_v5,2020.2.10,Win32,60,61025ae37ef11b136ea224fe,,,,,,,,,368,-39,-72,1,0,0,response5disk,,3,-8,-7,1,0,0,rectangle,-8,-7,1,0,0,-8,-7,1,0,0,1,26,186,96,1,,,,,,,,
,,,,,,,,,,,,,FF,,,,,,,,2.1831,,,,,,,,,,,,,,,,,,,,,,60fa1df4616a7c4ed9d42ae7,610368ab2ef4c8c2e0f4124d,2021-07-29_21h51.38.481,Simcolourproject_2stim_asymm_v5,2020.2.10,Win32,60,61025ae37ef11b136ea224fe,,,,,,,,,1584,52,-21,1,0,0,response3disk,,5,23,-7,1,0,0,rectangle,23,-7,1,0,0,23,-7,1,0,0,1,27,187,54,1,,,,,,,,
,,,,,,,,,,,,,FF,,,,,,,,0.8832,,,,,,,,,,,,,,,,,,,,,,60fa1df4616a7c4ed9d42ae7,610368ab2ef4c8c2e0f4124d,2021-07-29_21h51.38.481,Simcolourproject_2stim_asymm_v5,2020.2.10,Win32,60,61025ae37ef11b136ea224fe,,,,,,,,,2738,41,50,1,0,0,response1disk,,7,10,-8,1,0,0,rectangle,10,-8,1,0,0,10,-8,1,0,0,1,28,188,150,1,,,,,,,,
,,,,,,,,,,,,,FF,,,,,,,,0.434,,,,,,,,,,,,,,,,,,,,,,60fa1df4616a7c4ed9d42ae7,610368ab2ef4c8c2e0f4124d,2021-07-29_21h51.38.481,Simcolourproject_2stim_asymm_v5,2020.2.10,Win32,60,61025ae37ef11b136ea224fe,,,,,,,,,3795,29,48,1,0,0,response1disk,,7,7,-1,1,0,0,rectangle,7,-1,1,0,0,7,-1,1,0,0,1,29,189,124,1,,,,,,,,
,,,,,,,,,,,,,FF,,,,,,,,0.6182,,,,,,,,,,,,,,,,,,,,,,60fa1df4616a7c4ed9d42ae7,610368ab2ef4c8c2e0f4124d,2021-07-29_21h51.38.481,Simcolourproject_2stim_asymm_v5,2020.2.10,Win32,60,61025ae37ef11b136ea224fe,,,,,,,,,3632,23,42,1,0,0,response1disk,,7,5,8,1,0,0,rectangle,5,8,1,0,0,5,8,1,0,0,1,30,190,19,1,,,,,,,,
,,,,,,,,,,,,,FF,,,,,,,,0.5106,,,,,,,,,,,,,,,,,,,,,,60fa1df4616a7c4ed9d42ae7,610368ab2ef4c8c2e0f4124d,2021-07-29_21h51.38.481,Simcolourproject_2stim_asymm_v5,2020.2.10,Win32,60,61025ae37ef11b136ea224fe,,,,,,,,,2590,20,40,1,0,0,response1disk,,7,5,-3,1,0,0,rectangle,5,-3,1,0,0,5,-3,1,0,0,1,31,191,74,1,,,,,,,,
,,,,,,,,,,,,,FF,,,,,,,,0.6727,,,,,,,,,,,,,,,,,,,,,,60fa1df4616a7c4ed9d42ae7,610368ab2ef4c8c2e0f4124d,2021-07-29_21h51.38.481,Simcolourproject_2stim_asymm_v5,2020.2.10,Win32,60,61025ae37ef11b136ea224fe,,,,,,,,,182,24,39,1,0,0,response1disk,,7,10,-4,1,0,0,rectangle,10,-4,1,0,0,10,-4,1,0,0,1,32,192,61,1,,,,,,,,
,,,,,,,,,,,,,FF,,,,,,,,0.6343,,,,,,,,,,,,,,,,,,,,,,60fa1df4616a7c4ed9d42ae7,610368ab2ef4c8c2e0f4124d,2021-07-29_21h51.38.481,Simcolourproject_2stim_asymm_v5,2020.2.10,Win32,60,61025ae37ef11b136ea224fe,,,,,,,,,996,23,40,1,0,0,response1disk,,7,10,-4,1,0,0,rectangle,10,-4,1,0,0,10,-4,1,0,0,1,33,193,90,1,,,,,,,,
,,,,,,,,,,,,,FF,,,,,,,,0.8672,,,,,,,,,,,,,,,,,,,,,,60fa1df4616a7c4ed9d42ae7,610368ab2ef4c8c2e0f4124d,2021-07-29_21h51.38.481,Simcolourproject_2stim_asymm_v5,2020.2.10,Win32,60,61025ae37ef11b136ea224fe,,,,,,,,,115,21,44,1,0,0,response1disk,,7,2,1,1,0,0,rectangle,2,1,1,0,0,2,1,1,0,0,1,34,194,115,1,,,,,,,,
,,,,,,,,,,,,,FF,,,,,,,,0.5322,,,,,,,,,,,,,,,,,,,,,,60fa1df4616a7c4ed9d42ae7,610368ab2ef4c8c2e0f4124d,2021-07-29_21h51.38.481,Simcolourproject_2stim_asymm_v5,2020.2.10,Win32,60,61025ae37ef11b136ea224fe,,,,,,,,,1617,38,55,1,0,0,response1disk,,7,-5,1,1,0,0,rectangle,-5,1,1,0,0,-5,1,1,0,0,1,35,195,6,1,,,,,,,,
,,,,,,,,,,,,,FF,,,,,,,,1.0491,,,,,,,,,,,,,,,,,,,,,,60fa1df4616a7c4ed9d42ae7,610368ab2ef4c8c2e0f4124d,2021-07-29_21h51.38.481,Simcolourproject_2stim_asymm_v5,2020.2.10,Win32,60,61025ae37ef11b136ea224fe,,,,,,,,,2044,44,20,1,0,0,response1disk,,6,-4,-5,1,0,0,rectangle,-4,-5,1,0,0,-4,-5,1,0,0,1,36,196,157,1,,,,,,,,
,,,,,,,,,,,,,FF,,,,,,,,0.9666,,,,,,,,,,,,,,,,,,,,,,60fa1df4616a7c4ed9d42ae7,610368ab2ef4c8c2e0f4124d,2021-07-29_21h51.38.481,Simcolourproject_2stim_asymm_v5,2020.2.10,Win32,60,61025ae37ef11b136ea224fe,,,,,,,,,129,30,69,1,0,0,response1disk,,7,4,3,1,0,0,rectangle,-51,-55,1,0,0,-21,-11,1,0,0,1,37,197,52,1,,response5disk_3,TRUE,3,3,"[306,214,116,301,257,248,30,75,121,198,84,218,18,149,99,73,292,109,42,320]",2.0827,rectangle
,,,,,,,,,,,,,FF,,,,,,,,0.9032,,,,,,,,,,,,,,,,,,,,,,60fa1df4616a7c4ed9d42ae7,610368ab2ef4c8c2e0f4124d,2021-07-29_21h51.38.481,Simcolourproject_2stim_asymm_v5,2020.2.10,Win32,60,61025ae37ef11b136ea224fe,,,,,,,,,3964,27,59,1,0,0,response1disk,,7,-5,-11,1,0,0,rectangle,-5,-11,1,0,0,-5,-11,1,0,0,1,38,198,146,1,,,,,,,,
,,,,,,,,,,,,,FF,,,,,,,,1.5117,,,,,,,,,,,,,,,,,,,,,,60fa1df4616a7c4ed9d42ae7,610368ab2ef4c8c2e0f4124d,2021-07-29_21h51.38.481,Simcolourproject_2stim_asymm_v5,2020.2.10,Win32,60,61025ae37ef11b136ea224fe,,,,,,,,,4332,57,-45,1,0,0,response3disk,,5,8,-14,1,0,0,rectangle,8,-14,1,0,0,8,-14,1,0,0,1,39,199,137,1,,,,,,,,
,,,,,,,,,,,,,FF,,,,,,,,1.2652,,,,,,,,,,,,,,,,,,,,,,60fa1df4616a7c4ed9d42ae7,610368ab2ef4c8c2e0f4124d,2021-07-29_21h51.38.481,Simcolourproject_2stim_asymm_v5,2020.2.10,Win32,60,61025ae37ef11b136ea224fe,,,,,,,,,1740,55,-32,1,0,0,response3disk,,5,14,-4,1,0,0,rectangle,14,-4,1,0,0,14,-4,1,0,0,1,40,200,76,1,,,,,,,,
,,,,,,,,,,,,,FF,,,,,,,,1.1363,,,,,,,,,,,,,,,,,,,,,,60fa1df4616a7c4ed9d42ae7,610368ab2ef4c8c2e0f4124d,2021-07-29_21h51.38.481,Simcolourproject_2stim_asymm_v5,2020.2.10,Win32,60,61025ae37ef11b136ea224fe,,,,,,,,,716,-44,75,1,0,0,response7disk,,0,0,-9,1,0,0,rectangle,0,-9,1,0,0,0,-9,1,0,0,1,41,201,77,1,,,,,,,,
,,,,,,,,,,,,,FF,,,,,,,,1.6683,,,,,,,,,,,,,,,,,,,,,,60fa1df4616a7c4ed9d42ae7,610368ab2ef4c8c2e0f4124d,2021-07-29_21h51.38.481,Simcolourproject_2stim_asymm_v5,2020.2.10,Win32,60,61025ae37ef11b136ea224fe,,,,,,,,,3248,-38,-92,1,0,0,response5disk,,3,-3,-7,1,0,0,rectangle,-3,-7,1,0,0,-3,-7,1,0,0,1,42,202,62,1,,,,,,,,
,,,,,,,,,,,,,FF,,,,,,,,0.8674,,,,,,,,,,,,,,,,,,,,,,60fa1df4616a7c4ed9d42ae7,610368ab2ef4c8c2e0f4124d,2021-07-29_21h51.38.481,Simcolourproject_2stim_asymm_v5,2020.2.10,Win32,60,61025ae37ef11b136ea224fe,,,,,,,,,4191,33,37,1,0,0,response1disk,,7,10,5,1,0,0,rectangle,10,5,1,0,0,10,5,1,0,0,1,43,203,153,1,,,,,,,,
,,,,,,,,,,,,,FF,,,,,,,,0.6871,,,,,,,,,,,,,,,,,,,,,,60fa1df4616a7c4ed9d42ae7,610368ab2ef4c8c2e0f4124d,2021-07-29_21h51.38.481,Simcolourproject_2stim_asymm_v5,2020.2.10,Win32,60,61025ae37ef11b136ea224fe,,,,,,,,,205,24,52,1,0,0,response1disk,,7,3,-13,1,0,0,rectangle,3,-13,1,0,0,3,-13,1,0,0,1,44,204,127,1,,,,,,,,
,,,,,,,,,,,,,FF,,,,,,,,1.4632,,,,,,,,,,,,,,,,,,,,,,60fa1df4616a7c4ed9d42ae7,610368ab2ef4c8c2e0f4124d,2021-07-29_21h51.38.481,Simcolourproject_2stim_asymm_v5,2020.2.10,Win32,60,61025ae37ef11b136ea224fe,,,,,,,,,3004,43,-82,1,0,0,response3disk,,4,14,-1,1,0,0,rectangle,14,-1,1,0,0,14,-1,1,0,0,1,45,205,89,1,,,,,,,,
,,,,,,,,,,,,,FF,,,,,,,,0.8057,,,,,,,,,,,,,,,,,,,,,,60fa1df4616a7c4ed9d42ae7,610368ab2ef4c8c2e0f4124d,2021-07-29_21h51.38.481,Simcolourproject_2stim_asymm_v5,2020.2.10,Win32,60,61025ae37ef11b136ea224fe,,,,,,,,,1908,25,57,1,0,0,response1disk,,7,-1,-10,1,0,0,rectangle,-1,-10,1,0,0,-1,-10,1,0,0,1,46,206,2,1,,,,,,,,
,,,,,,,,,,,,,FF,,,,,,,,0.5801,,,,,,,,,,,,,,,,,,,,,,60fa1df4616a7c4ed9d42ae7,610368ab2ef4c8c2e0f4124d,2021-07-29_21h51.38.481,Simcolourproject_2stim_asymm_v5,2020.2.10,Win32,60,61025ae37ef11b136ea224fe,,,,,,,,,474,22,48,1,0,0,response1disk,,7,6,1,1,0,0,rectangle,6,1,1,0,0,6,1,1,0,0,1,47,207,120,1,,,,,,,,
,,,,,,,,,,,,,FF,,,,,,,,0.7324,,,,,,,,,,,,,,,,,,,,,,60fa1df4616a7c4ed9d42ae7,610368ab2ef4c8c2e0f4124d,2021-07-29_21h51.38.481,Simcolourproject_2stim_asymm_v5,2020.2.10,Win32,60,61025ae37ef11b136ea224fe,,,,,,,,,2322,39,56,1,0,0,response1disk,,7,13,12,1,0,0,rectangle,13,12,1,0,0,13,12,1,0,0,1,48,208,142,1,,,,,,,,
,,,,,,,,,,,,,FF,,,,,,,,0.6823,,,,,,,,,,,,,,,,,,,,,,60fa1df4616a7c4ed9d42ae7,610368ab2ef4c8c2e0f4124d,2021-07-29_21h51.38.481,Simcolourproject_2stim_asymm_v5,2020.2.10,Win32,60,61025ae37ef11b136ea224fe,,,,,,,,,2980,30,40,1,0,0,response1disk,,7,8,7,1,0,0,rectangle,8,7,1,0,0,8,7,1,0,0,1,49,209,25,1,,,,,,,,
,,,,,,,,,,,,,FF,,,,,,,,0.5046,,,,,,,,,,,,,,,,,,,,,,60fa1df4616a7c4ed9d42ae7,610368ab2ef4c8c2e0f4124d,2021-07-29_21h51.38.481,Simcolourproject_2stim_asymm_v5,2020.2.10,Win32,60,61025ae37ef11b136ea224fe,,,,,,,,,119,27,47,1,0,0,response1disk,,7,11,-1,1,0,0,rectangle,11,-1,1,0,0,11,-1,1,0,0,1,50,210,10,1,,,,,,,,
,,,,,,,,,,,,,FF,,,,,,,,2.0448,,,,,,,,,,,,,,,,,,,,,,60fa1df4616a7c4ed9d42ae7,610368ab2ef4c8c2e0f4124d,2021-07-29_21h51.38.481,Simcolourproject_2stim_asymm_v5,2020.2.10,Win32,60,61025ae37ef11b136ea224fe,,,,,,,,,3676,-77,-35,1,0,0,response5disk,,2,-29,-3,1,0,0,rectangle,-29,-3,1,0,0,-29,-3,1,0,0,1,51,211,29,1,,,,,,,,
,,,,,,,,,,,,,FF,,,,,,,,1.3178,,,,,,,,,,,,,,,,,,,,,,60fa1df4616a7c4ed9d42ae7,610368ab2ef4c8c2e0f4124d,2021-07-29_21h51.38.481,Simcolourproject_2stim_asymm_v5,2020.2.10,Win32,60,61025ae37ef11b136ea224fe,,,,,,,,,1466,19,44,1,0,0,response1disk,,7,7,3,1,0,0,rectangle,7,3,1,0,0,7,3,1,0,0,1,52,212,155,1,,,,,,,,
,,,,,,,,,,,,,FF,,,,,,,,1.411,,,,,,,,,,,,,,,,,,,,,,60fa1df4616a7c4ed9d42ae7,610368ab2ef4c8c2e0f4124d,2021-07-29_21h51.38.481,Simcolourproject_2stim_asymm_v5,2020.2.10,Win32,60,61025ae37ef11b136ea224fe,,,,,,,,,2664,34,-74,1,0,0,response3disk,,4,5,1,1,0,0,rectangle,72,40,1,0,0,8,-5,1,0,0,1,53,213,93,1,,response1disk_3,TRUE,6,6,"[306,214,116,301,257,248,30,75,121,198,84,218,18,149,99,73,292,109,42,320]",1.7671,rectangle
,,,,,,,,,,,,,FF,,,,,,,,2.1336,,,,,,,,,,,,,,,,,,,,,,60fa1df4616a7c4ed9d42ae7,610368ab2ef4c8c2e0f4124d,2021-07-29_21h51.38.481,Simcolourproject_2stim_asymm_v5,2020.2.10,Win32,60,61025ae37ef11b136ea224fe,,,,,,,,,695,32,-54,1,0,0,response3disk,,4,11,-1,1,0,0,rectangle,11,-1,1,0,0,11,-1,1,0,0,1,54,214,44,1,,,,,,,,
,,,,,,,,,,,,,FF,,,,,,,,1.2032,,,,,,,,,,,,,,,,,,,,,,60fa1df4616a7c4ed9d42ae7,610368ab2ef4c8c2e0f4124d,2021-07-29_21h51.38.481,Simcolourproject_2stim_asymm_v5,2020.2.10,Win32,60,61025ae37ef11b136ea224fe,,,,,,,,,1400,29,60,1,0,0,response1disk,,7,10,11,1,0,0,rectangle,10,11,1,0,0,10,11,1,0,0,1,55,215,102,1,,,,,,,,
,,,,,,,,,,,,,FF,,,,,,,,0.8551,,,,,,,,,,,,,,,,,,,,,,60fa1df4616a7c4ed9d42ae7,610368ab2ef4c8c2e0f4124d,2021-07-29_21h51.38.481,Simcolourproject_2stim_asymm_v5,2020.2.10,Win32,60,61025ae37ef11b136ea224fe,,,,,,,,,3768,29,43,1,0,0,response1disk,,7,7,5,1,0,0,rectangle,7,5,1,0,0,7,5,1,0,0,1,56,216,41,1,,,,,,,,
,,,,,,,,,,,,,FF,,,,,,,,0.6496,,,,,,,,,,,,,,,,,,,,,,60fa1df4616a7c4ed9d42ae7,610368ab2ef4c8c2e0f4124d,2021-07-29_21h51.38.481,Simcolourproject_2stim_asymm_v5,2020.2.10,Win32,60,61025ae37ef11b136ea224fe,,,,,,,,,1512,25,45,1,0,0,response1disk,,7,8,3,1,0,0,rectangle,18,80,1,0,0,15,1,1,0,0,1,57,217,86,1,,response1disk_3,TRUE,7,7,"[306,214,116,301,257,248,30,75,121,198,84,218,18,149,99,73,292,109,42,320]",1.632,rectangle
,,,,,,,,,,,,,FF,,,,,,,,0.6673,,,,,,,,,,,,,,,,,,,,,,60fa1df4616a7c4ed9d42ae7,610368ab2ef4c8c2e0f4124d,2021-07-29_21h51.38.481,Simcolourproject_2stim_asymm_v5,2020.2.10,Win32,60,61025ae37ef11b136ea224fe,,,,,,,,,295,15,44,1,0,0,response1disk,,7,5,7,1,0,0,rectangle,5,7,1,0,0,5,7,1,0,0,1,58,218,20,1,,,,,,,,
,,,,,,,,,,,,,FF,,,,,,,,1.1317,,,,,,,,,,,,,,,,,,,,,,60fa1df4616a7c4ed9d42ae7,610368ab2ef4c8c2e0f4124d,2021-07-29_21h51.38.481,Simcolourproject_2stim_asymm_v5,2020.2.10,Win32,60,61025ae37ef11b136ea224fe,,,,,,,,,3749,28,57,1,0,0,response1disk,,7,3,5,1,0,0,rectangle,3,5,1,0,0,3,5,1,0,0,1,59,219,92,1,,,,,,,,
,,,,,,,,,,,,,FF,,,,,,,,0.7545,,,,,,,,,,,,,,,,,,,,,,60fa1df4616a7c4ed9d42ae7,610368ab2ef4c8c2e0f4124d,2021-07-29_21h51.38.481,Simcolourproject_2stim_asymm_v5,2020.2.10,Win32,60,61025ae37ef11b136ea224fe,,,,,,,,,920,28,58,1,0,0,response1disk,,7,11,-1,1,0,0,rectangle,11,-1,1,0,0,11,-1,1,0,0,1,60,220,26,1,,,,,,,,
,,,,,,,,,,,,,FF,,,,,,,,0.7892,,,,,,,,,,,,,,,,,,,,,,60fa1df4616a7c4ed9d42ae7,610368ab2ef4c8c2e0f4124d,2021-07-29_21h51.38.481,Simcolourproject_2stim_asymm_v5,2020.2.10,Win32,60,61025ae37ef11b136ea224fe,,,,,,,,,2817,37,74,1,0,0,response1disk,,7,14,-6,1,0,0,rectangle,14,-6,1,0,0,14,-6,1,0,0,1,61,221,123,1,,,,,,,,
,,,,,,,,,,,,,FF,,,,,,,,1.5331,,,,,,,,,,,,,,,,,,,,,,60fa1df4616a7c4ed9d42ae7,610368ab2ef4c8c2e0f4124d,2021-07-29_21h51.38.481,Simcolourproject_2stim_asymm_v5,2020.2.10,Win32,60,61025ae37ef11b136ea224fe,,,,,,,,,3748,-93,-52,1,0,0,response5disk,,2,9,5,1,0,0,rectangle,9,5,1,0,0,9,5,1,0,0,1,62,222,84,1,,,,,,,,
,,,,,,,,,,,,,FF,,,,,,,,1.1172,,,,,,,,,,,,,,,,,,,,,,60fa1df4616a7c4ed9d42ae7,610368ab2ef4c8c2e0f4124d,2021-07-29_21h51.38.481,Simcolourproject_2stim_asymm_v5,2020.2.10,Win32,60,61025ae37ef11b136ea224fe,,,,,,,,,576,33,69,1,0,0,response1disk,,7,6,9,1,0,0,rectangle,6,9,1,0,0,6,9,1,0,0,1,63,223,119,1,,,,,,,,
,,,,,,,,,,,,,FF,,,,,,,,1.0999,,,,,,,,,,,,,,,,,,,,,,60fa1df4616a7c4ed9d42ae7,610368ab2ef4c8c2e0f4124d,2021-07-29_21h51.38.481,Simcolourproject_2stim_asymm_v5,2020.2.10,Win32,60,61025ae37ef11b136ea224fe,,,,,,,,,2761,38,48,1,0,0,response1disk,,7,14,13,1,0,0,rectangle,14,13,1,0,0,14,13,1,0,0,1,64,224,83,1,,,,,,,,
,,,,,,,,,,,,,FF,,,,,,,,0.7221,,,,,,,,,,,,,,,,,,,,,,60fa1df4616a7c4ed9d42ae7,610368ab2ef4c8c2e0f4124d,2021-07-29_21h51.38.481,Simcolourproject_2stim_asymm_v5,2020.2.10,Win32,60,61025ae37ef11b136ea224fe,,,,,,,,,2643,43,57,1,0,0,response1disk,,7,16,7,1,0,0,rectangle,16,7,1,0,0,16,7,1,0,0,1,65,225,139,1,,,,,,,,
,,,,,,,,,,,,,FF,,,,,,,,1.5633,,,,,,,,,,,,,,,,,,,,,,60fa1df4616a7c4ed9d42ae7,610368ab2ef4c8c2e0f4124d,2021-07-29_21h51.38.481,Simcolourproject_2stim_asymm_v5,2020.2.10,Win32,60,61025ae37ef11b136ea224fe,,,,,,,,,1042,75,-32,1,0,0,response3disk,,5,14,-2,1,0,0,rectangle,14,-2,1,0,0,14,-2,1,0,0,1,66,226,152,1,,,,,,,,
,,,,,,,,,,,,,FF,,,,,,,,0.7118,,,,,,,,,,,,,,,,,,,,,,60fa1df4616a7c4ed9d42ae7,610368ab2ef4c8c2e0f4124d,2021-07-29_21h51.38.481,Simcolourproject_2stim_asymm_v5,2020.2.10,Win32,60,61025ae37ef11b136ea224fe,,,,,,,,,1426,28,51,1,0,0,response1disk,,7,10,7,1,0,0,rectangle,10,7,1,0,0,10,7,1,0,0,1,67,227,80,1,,,,,,,,
,,,,,,,,,,,,,FF,,,,,,,,0.8625,,,,,,,,,,,,,,,,,,,,,,60fa1df4616a7c4ed9d42ae7,610368ab2ef4c8c2e0f4124d,2021-07-29_21h51.38.481,Simcolourproject_2stim_asymm_v5,2020.2.10,Win32,60,61025ae37ef11b136ea224fe,,,,,,,,,3643,28,70,1,0,0,response1disk,,7,11,6,1,0,0,rectangle,11,6,1,0,0,11,6,1,0,0,1,68,228,42,1,,,,,,,,
,,,,,,,,,,,,,FF,,,,,,,,0.6338,,,,,,,,,,,,,,,,,,,,,,60fa1df4616a7c4ed9d42ae7,610368ab2ef4c8c2e0f4124d,2021-07-29_21h51.38.481,Simcolourproject_2stim_asymm_v5,2020.2.10,Win32,60,61025ae37ef11b136ea224fe,,,,,,,,,433,27,40,1,0,0,response1disk,,7,7,-1,1,0,0,rectangle,7,-1,1,0,0,7,-1,1,0,0,1,69,229,30,1,,,,,,,,
,,,,,,,,,,,,,FF,,,,,,,,2.6379,,,,,,,,,,,,,,,,,,,,,,60fa1df4616a7c4ed9d42ae7,610368ab2ef4c8c2e0f4124d,2021-07-29_21h51.38.481,Simcolourproject_2stim_asymm_v5,2020.2.10,Win32,60,61025ae37ef11b136ea224fe,,,,,,,,,1970,-45,-48,1,0,0,response5disk,,3,-16,-5,1,0,0,rectangle,-16,-5,1,0,0,-16,-5,1,0,0,1,70,230,141,1,,,,,,,,
,,,,,,,,,,,,,FF,,,,,,,,1.0844,,,,,,,,,,,,,,,,,,,,,,60fa1df4616a7c4ed9d42ae7,610368ab2ef4c8c2e0f4124d,2021-07-29_21h51.38.481,Simcolourproject_2stim_asymm_v5,2020.2.10,Win32,60,61025ae37ef11b136ea224fe,,,,,,,,,3611,18,46,1,0,0,response1disk,,7,6,-2,1,0,0,rectangle,6,-2,1,0,0,6,-2,1,0,0,1,71,231,144,1,,,,,,,,
,,,,,,,,,,,,,FF,,,,,,,,0.6289,,,,,,,,,,,,,,,,,,,,,,60fa1df4616a7c4ed9d42ae7,610368ab2ef4c8c2e0f4124d,2021-07-29_21h51.38.481,Simcolourproject_2stim_asymm_v5,2020.2.10,Win32,60,61025ae37ef11b136ea224fe,,,,,,,,,1003,22,40,1,0,0,response1disk,,7,8,-1,1,0,0,rectangle,8,-1,1,0,0,8,-1,1,0,0,1,72,232,126,1,,,,,,,,
,,,,,,,,,,,,,FF,,,,,,,,1.9905,,,,,,,,,,,,,,,,,,,,,,60fa1df4616a7c4ed9d42ae7,610368ab2ef4c8c2e0f4124d,2021-07-29_21h51.38.481,Simcolourproject_2stim_asymm_v5,2020.2.10,Win32,60,61025ae37ef11b136ea224fe,,,,,,,,,199,71,-38,1,0,0,response3disk,,5,7,0,1,0,0,rectangle,7,0,1,0,0,7,0,1,0,0,1,73,233,1,1,,,,,,,,
,,,,,,,,,,,,,FF,,,,,,,,1.6674,,,,,,,,,,,,,,,,,,,,,,60fa1df4616a7c4ed9d42ae7,610368ab2ef4c8c2e0f4124d,2021-07-29_21h51.38.481,Simcolourproject_2stim_asymm_v5,2020.2.10,Win32,60,61025ae37ef11b136ea224fe,,,,,,,,,3439,34,54,1,0,0,response1disk,,7,5,6,1,0,0,rectangle,5,6,1,0,0,5,6,1,0,0,1,74,234,156,1,,,,,,,,
,,,,,,,,,,,,,FF,,,,,,,,0.7951,,,,,,,,,,,,,,,,,,,,,,60fa1df4616a7c4ed9d42ae7,610368ab2ef4c8c2e0f4124d,2021-07-29_21h51.38.481,Simcolourproject_2stim_asymm_v5,2020.2.10,Win32,60,61025ae37ef11b136ea224fe,,,,,,,,,1638,23,48,1,0,0,response1disk,,7,14,12,1,0,0,rectangle,14,12,1,0,0,14,12,1,0,0,1,75,235,34,1,,,,,,,,
,,,,,,,,,,,,,FF,,,,,,,,1.1717,,,,,,,,,,,,,,,,,,,,,,60fa1df4616a7c4ed9d42ae7,610368ab2ef4c8c2e0f4124d,2021-07-29_21h51.38.481,Simcolourproject_2stim_asymm_v5,2020.2.10,Win32,60,61025ae37ef11b136ea224fe,,,,,,,,,675,29,61,1,0,0,response1disk,,7,1,-9,1,0,0,rectangle,1,-9,1,0,0,1,-9,1,0,0,1,76,236,23,1,,,,,,,,
,,,,,,,,,,,,,FF,,,,,,,,0.9151,,,,,,,,,,,,,,,,,,,,,,60fa1df4616a7c4ed9d42ae7,610368ab2ef4c8c2e0f4124d,2021-07-29_21h51.38.481,Simcolourproject_2stim_asymm_v5,2020.2.10,Win32,60,61025ae37ef11b136ea224fe,,,,,,,,,3482,43,48,1,0,0,response1disk,,7,13,-9,1,0,0,rectangle,13,-9,1,0,0,13,-9,1,0,0,1,77,237,39,1,,,,,,,,
,,,,,,,,,,,,,FF,,,,,,,,0.8339,,,,,,,,,,,,,,,,,,,,,,60fa1df4616a7c4ed9d42ae7,610368ab2ef4c8c2e0f4124d,2021-07-29_21h51.38.481,Simcolourproject_2stim_asymm_v5,2020.2.10,Win32,60,61025ae37ef11b136ea224fe,,,,,,,,,739,40,61,1,0,0,response1disk,,7,16,7,1,0,0,rectangle,16,7,1,0,0,16,7,1,0,0,1,78,238,158,1,,,,,,,,
,,,,,,,,,,,,,FF,,,,,,,,1.5383,,,,,,,,,,,,,,,,,,,,,,60fa1df4616a7c4ed9d42ae7,610368ab2ef4c8c2e0f4124d,2021-07-29_21h51.38.481,Simcolourproject_2stim_asymm_v5,2020.2.10,Win32,60,61025ae37ef11b136ea224fe,,,,,,,,,3913,-38,62,1,0,0,response7disk,,0,1,3,1,0,0,rectangle,1,3,1,0,0,1,3,1,0,0,1,79,239,99,1,,,,,,,,
,,,,,,,,,,,,,FF,,,,,,,,1.6165,,,,,,,,,,,,,,,,,,,,,,60fa1df4616a7c4ed9d42ae7,610368ab2ef4c8c2e0f4124d,2021-07-29_21h51.38.481,Simcolourproject_2stim_asymm_v5,2020.2.10,Win32,60,61025ae37ef11b136ea224fe,,,,,,,,,2777,-20,-101,1,0,0,response5disk,,3,30,-2,1,0,0,rectangle,30,-2,1,0,0,30,-2,1,0,0,1,80,240,108,1,,,,,,,,
,,,,,,,,,,,,,FF,,,,,,,,1.4837,,,,,,,,,,,,,,,,,,,,,,60fa1df4616a7c4ed9d42ae7,610368ab2ef4c8c2e0f4124d,2021-07-29_21h51.38.481,Simcolourproject_2stim_asymm_v5,2020.2.10,Win32,60,61025ae37ef11b136ea224fe,,,,,,,,,2882,-17,-70,1,0,0,response5disk,,3,25,-5,1,0,0,rectangle,25,-5,1,0,0,25,-5,1,0,0,1,81,241,37,1,,,,,,,,
,,,,,,,,,,,,,FF,,,,,,,,0.8138,,,,,,,,,,,,,,,,,,,,,,60fa1df4616a7c4ed9d42ae7,610368ab2ef4c8c2e0f4124d,2021-07-29_21h51.38.481,Simcolourproject_2stim_asymm_v5,2020.2.10,Win32,60,61025ae37ef11b136ea224fe,,,,,,,,,1004,36,50,1,0,0,response1disk,,7,9,3,1,0,0,rectangle,9,3,1,0,0,9,3,1,0,0,1,82,242,69,1,,,,,,,,
,,,,,,,,,,,,,FF,,,,,,,,1.122,,,,,,,,,,,,,,,,,,,,,,60fa1df4616a7c4ed9d42ae7,610368ab2ef4c8c2e0f4124d,2021-07-29_21h51.38.481,Simcolourproject_2stim_asymm_v5,2020.2.10,Win32,60,61025ae37ef11b136ea224fe,,,,,,,,,855,25,59,1,0,0,response1disk,,7,2,7,1,0,0,rectangle,2,7,1,0,0,2,7,1,0,0,1,83,243,64,1,,,,,,,,
,,,,,,,,,,,,,FF,,,,,,,,0.8784,,,,,,,,,,,,,,,,,,,,,,60fa1df4616a7c4ed9d42ae7,610368ab2ef4c8c2e0f4124d,2021-07-29_21h51.38.481,Simcolourproject_2stim_asymm_v5,2020.2.10,Win32,60,61025ae37ef11b136ea224fe,,,,,,,,,2290,47,96,1,0,0,response1disk,,7,7,11,1,0,0,rectangle,7,11,1,0,0,7,11,1,0,0,1,84,244,59,1,,,,,,,,
,,,,,,,,,,,,,FF,,,,,,,,0.8956,,,,,,,,,,,,,,,,,,,,,,60fa1df4616a7c4ed9d42ae7,610368ab2ef4c8c2e0f4124d,2021-07-29_21h51.38.481,Simcolourproject_2stim_asymm_v5,2020.2.10,Win32,60,61025ae37ef11b136ea224fe,,,,,,,,,966,31,53,1,0,0,response1disk,,7,9,4,1,0,0,rectangle,9,4,1,0,0,9,4,1,0,0,1,85,245,94,1,,,,,,,,
,,,,,,,,,,,,,FF,,,,,,,,1.7008,,,,,,,,,,,,,,,,,,,,,,60fa1df4616a7c4ed9d42ae7,610368ab2ef4c8c2e0f4124d,2021-07-29_21h51.38.481,Simcolourproject_2stim_asymm_v5,2020.2.10,Win32,60,61025ae37ef11b136ea224fe,,,,,,,,,2669,57,-33,1,0,0,response3disk,,5,23,-6,1,0,0,rectangle,23,-6,1,0,0,23,-6,1,0,0,1,86,246,43,1,,,,,,,,
,,,,,,,,,,,,,FF,,,,,,,,0.6441,,,,,,,,,,,,,,,,,,,,,,60fa1df4616a7c4ed9d42ae7,610368ab2ef4c8c2e0f4124d,2021-07-29_21h51.38.481,Simcolourproject_2stim_asymm_v5,2020.2.10,Win32,60,61025ae37ef11b136ea224fe,,,,,,,,,3593,26,63,1,0,0,response1disk,,7,18,8,1,0,0,rectangle,-54,-34,1,0,0,13,7,1,0,0,1,87,247,111,1,,response5disk_3,TRUE,2,2,"[306,214,116,301,257,248,30,75,121,198,84,218,18,149,99,73,292,109,42,320]",1.9816,rectangle
,,,,,,,,,,,,,FF,,,,,,,,1.0454,,,,,,,,,,,,,,,,,,,,,,60fa1df4616a7c4ed9d42ae7,610368ab2ef4c8c2e0f4124d,2021-07-29_21h51.38.481,Simcolourproject_2stim_asymm_v5,2020.2.10,Win32,60,61025ae37ef11b136ea224fe,,,,,,,,,786,39,68,1,0,0,response1disk,,7,11,-4,1,0,0,rectangle,11,-4,1,0,0,11,-4,1,0,0,1,88,248,136,1,,,,,,,,
,,,,,,,,,,,,,FF,,,,,,,,0.6785,,,,,,,,,,,,,,,,,,,,,,60fa1df4616a7c4ed9d42ae7,610368ab2ef4c8c2e0f4124d,2021-07-29_21h51.38.481,Simcolourproject_2stim_asymm_v5,2020.2.10,Win32,60,61025ae37ef11b136ea224fe,,,,,,,,,1726,25,68,1,0,0,response1disk,,7,9,3,1,0,0,rectangle,9,3,1,0,0,9,3,1,0,0,1,89,249,106,1,,,,,,,,
,,,,,,,,,,,,,FF,,,,,,,,1.5154,,,,,,,,,,,,,,,,,,,,,,60fa1df4616a7c4ed9d42ae7,610368ab2ef4c8c2e0f4124d,2021-07-29_21h51.38.481,Simcolourproject_2stim_asymm_v5,2020.2.10,Win32,60,61025ae37ef11b136ea224fe,,,,,,,,,163,34,-51,1,0,0,response3disk,,4,14,4,1,0,0,rectangle,14,4,1,0,0,14,4,1,0,0,1,90,250,32,1,,,,,,,,
,,,,,,,,,,,,,FF,,,,,,,,3.0001,,,,,,,,,,,,,,,,,,,,,,60fa1df4616a7c4ed9d42ae7,610368ab2ef4c8c2e0f4124d,2021-07-29_21h51.38.481,Simcolourproject_2stim_asymm_v5,2020.2.10,Win32,60,61025ae37ef11b136ea224fe,,,,,,,,,321,23,58,1,0,0,response1disk,,7,16,8,1,0,0,rectangle,16,8,1,0,0,16,8,1,0,0,1,91,251,159,1,,,,,,,,
,,,,,,,,,,,,,FF,,,,,,,,0.7173,,,,,,,,,,,,,,,,,,,,,,60fa1df4616a7c4ed9d42ae7,610368ab2ef4c8c2e0f4124d,2021-07-29_21h51.38.481,Simcolourproject_2stim_asymm_v5,2020.2.10,Win32,60,61025ae37ef11b136ea224fe,,,,,,,,,1161,34,72,1,0,0,response1disk,,7,1,-2,1,0,0,rectangle,1,-2,1,0,0,1,-2,1,0,0,1,92,252,98,1,,,,,,,,
,,,,,,,,,,,,,FF,,,,,,,,1.0114,,,,,,,,,,,,,,,,,,,,,,60fa1df4616a7c4ed9d42ae7,610368ab2ef4c8c2e0f4124d,2021-07-29_21h51.38.481,Simcolourproject_2stim_asymm_v5,2020.2.10,Win32,60,61025ae37ef11b136ea224fe,,,,,,,,,4077,56,38,1,0,0,response1disk,,6,-3,0,1,0,0,rectangle,-3,0,1,0,0,-3,0,1,0,0,1,93,253,91,1,,,,,,,,
,,,,,,,,,,,,,FF,,,,,,,,0.9503,,,,,,,,,,,,,,,,,,,,,,60fa1df4616a7c4ed9d42ae7,610368ab2ef4c8c2e0f4124d,2021-07-29_21h51.38.481,Simcolourproject_2stim_asymm_v5,2020.2.10,Win32,60,61025ae37ef11b136ea224fe,,,,,,,,,3875,-29,48,1,0,0,response7disk,,0,-11,-2,1,0,0,rectangle,-11,-2,1,0,0,-11,-2,1,0,0,1,94,254,45,1,,,,,,,,
,,,,,,,,,,,,,FF,,,,,,,,1.2327,,,,,,,,,,,,,,,,,,,,,,60fa1df4616a7c4ed9d42ae7,610368ab2ef4c8c2e0f4124d,2021-07-29_21h51.38.481,Simcolourproject_2stim_asymm_v5,2020.2.10,Win32,60,61025ae37ef11b136ea224fe,,,,,,,,,1794,28,48,1,0,0,response1disk,,7,9,9,1,0,0,rectangle,9,9,1,0,0,9,9,1,0,0,1,95,255,63,1,,,,,,,,
,,,,,,,,,,,,,FF,,,,,,,,1.533,,,,,,,,,,,,,,,,,,,,,,60fa1df4616a7c4ed9d42ae7,610368ab2ef4c8c2e0f4124d,2021-07-29_21h51.38.481,Simcolourproject_2stim_asymm_v5,2020.2.10,Win32,60,61025ae37ef11b136ea224fe,,,,,,,,,1828,-23,-51,1,0,0,response5disk,,3,-1,-1,1,0,0,rectangle,26,-89,1,0,0,13,-8,1,0,0,1,96,256,53,1,,response3disk_3,TRUE,4,4,"[306,214,116,301,257,248,30,75,121,198,84,218,18,149,99,73,292,109,42,320]",1.9489,rectangle
,,,,,,,,,,,,,FF,,,,,,,,2.7549,,,,,,,,,,,,,,,,,,,,,,60fa1df4616a7c4ed9d42ae7,610368ab2ef4c8c2e0f4124d,2021-07-29_21h51.38.481,Simcolourproject_2stim_asymm_v5,2020.2.10,Win32,60,61025ae37ef11b136ea224fe,,,,,,,,,2556,-41,-77,1,0,0,response5disk,,3,-2,10,1,0,0,rectangle,-2,10,1,0,0,-2,10,1,0,0,1,97,257,67,1,,,,,,,,
,,,,,,,,,,,,,FF,,,,,,,,4.1295,,,,,,,,,,,,,,,,,,,,,,60fa1df4616a7c4ed9d42ae7,610368ab2ef4c8c2e0f4124d,2021-07-29_21h51.38.481,Simcolourproject_2stim_asymm_v5,2020.2.10,Win32,60,61025ae37ef11b136ea224fe,,,,,,,,,3345,54,36,1,0,0,response1disk,,6,6,9,1,0,0,rectangle,6,9,1,0,0,6,9,1,0,0,1,98,258,151,1,,,,,,,,
,,,,,,,,,,,,,FF,,,,,,,,1.0172,,,,,,,,,,,,,,,,,,,,,,60fa1df4616a7c4ed9d42ae7,610368ab2ef4c8c2e0f4124d,2021-07-29_21h51.38.481,Simcolourproject_2stim_asymm_v5,2020.2.10,Win32,60,61025ae37ef11b136ea224fe,,,,,,,,,2320,26,47,1,0,0,response1disk,,7,3,5,1,0,0,rectangle,3,5,1,0,0,3,5,1,0,0,1,99,259,12,1,,,,,,,,
,,,,,,,,,,,,,FF,,,,,,,,0.9677,,,,,,,,,,,,,,,,,,,,,,60fa1df4616a7c4ed9d42ae7,610368ab2ef4c8c2e0f4124d,2021-07-29_21h51.38.481,Simcolourproject_2stim_asymm_v5,2020.2.10,Win32,60,61025ae37ef11b136ea224fe,,,,,,,,,1650,18,42,1,0,0,response1disk,,7,4,2,1,0,0,rectangle,4,2,1,0,0,4,2,1,0,0,1,100,260,117,1,,,,,,,,
,,,,,,,,,,,,,FF,,,,,,,,0.8289,,,,,,,,,,,,,,,,,,,,,,60fa1df4616a7c4ed9d42ae7,610368ab2ef4c8c2e0f4124d,2021-07-29_21h51.38.481,Simcolourproject_2stim_asymm_v5,2020.2.10,Win32,60,61025ae37ef11b136ea224fe,,,,,,,,,1934,30,50,1,0,0,response1disk,,7,4,2,1,0,0,rectangle,4,2,1,0,0,4,2,1,0,0,1,101,261,112,1,,,,,,,,
,,,,,,,,,,,,,FF,,,,,,,,1.1954,,,,,,,,,,,,,,,,,,,,,,60fa1df4616a7c4ed9d42ae7,610368ab2ef4c8c2e0f4124d,2021-07-29_21h51.38.481,Simcolourproject_2stim_asymm_v5,2020.2.10,Win32,60,61025ae37ef11b136ea224fe,,,,,,,,,420,27,38,1,0,0,response1disk,,7,13,6,1,0,0,rectangle,13,6,1,0,0,13,6,1,0,0,1,102,262,7,1,,,,,,,,
,,,,,,,,,,,,,FF,,,,,,,,0.7294,,,,,,,,,,,,,,,,,,,,,,60fa1df4616a7c4ed9d42ae7,610368ab2ef4c8c2e0f4124d,2021-07-29_21h51.38.481,Simcolourproject_2stim_asymm_v5,2020.2.10,Win32,60,61025ae37ef11b136ea224fe,,,,,,,,,1555,34,62,1,0,0,response1disk,,7,6,3,1,0,0,rectangle,6,3,1,0,0,6,3,1,0,0,1,103,263,104,1,,,,,,,,
,,,,,,,,,,,,,FF,,,,,,,,0.8006,,,,,,,,,,,,,,,,,,,,,,60fa1df4616a7c4ed9d42ae7,610368ab2ef4c8c2e0f4124d,2021-07-29_21h51.38.481,Simcolourproject_2stim_asymm_v5,2020.2.10,Win32,60,61025ae37ef11b136ea224fe,,,,,,,,,1949,26,41,1,0,0,response1disk,,7,-1,-14,1,0,0,rectangle,-1,-14,1,0,0,-1,-14,1,0,0,1,104,264,103,1,,,,,,,,
,,,,,,,,,,,,,FF,,,,,,,,2.2481,,,,,,,,,,,,,,,,,,,,,,60fa1df4616a7c4ed9d42ae7,610368ab2ef4c8c2e0f4124d,2021-07-29_21h51.38.481,Simcolourproject_2stim_asymm_v5,2020.2.10,Win32,60,61025ae37ef11b136ea224fe,,,,,,,,,3286,-26,-76,1,0,0,response5disk,,3,6,6,1,0,0,rectangle,6,6,1,0,0,6,6,1,0,0,1,105,265,147,1,,,,,,,,
,,,,,,,,,,,,,FF,,,,,,,,1.7071,,,,,,,,,,,,,,,,,,,,,,60fa1df4616a7c4ed9d42ae7,610368ab2ef4c8c2e0f4124d,2021-07-29_21h51.38.481,Simcolourproject_2stim_asymm_v5,2020.2.10,Win32,60,61025ae37ef11b136ea224fe,,,,,,,,,370,-34,-62,1,0,0,response5disk,,3,-7,-3,1,0,0,rectangle,-7,-3,1,0,0,-7,-3,1,0,0,1,106,266,36,1,,,,,,,,
,,,,,,,,,,,,,FF,,,,,,,,0.8511,,,,,,,,,,,,,,,,,,,,,,60fa1df4616a7c4ed9d42ae7,610368ab2ef4c8c2e0f4124d,2021-07-29_21h51.38.481,Simcolourproject_2stim_asymm_v5,2020.2.10,Win32,60,61025ae37ef11b136ea224fe,,,,,,,,,2014,16,43,1,0,0,response1disk,,7,6,-10,1,0,0,rectangle,6,-10,1,0,0,6,-10,1,0,0,1,107,267,143,1,,,,,,,,
,,,,,,,,,,,,,FF,,,,,,,,1.4723,,,,,,,,,,,,,,,,,,,,,,60fa1df4616a7c4ed9d42ae7,610368ab2ef4c8c2e0f4124d,2021-07-29_21h51.38.481,Simcolourproject_2stim_asymm_v5,2020.2.10,Win32,60,61025ae37ef11b136ea224fe,,,,,,,,,3717,42,-47,1,0,0,response3disk,,4,14,-2,1,0,0,rectangle,14,-2,1,0,0,14,-2,1,0,0,1,108,268,87,1,,,,,,,,
,,,,,,,,,,,,,FF,,,,,,,,1.1478,,,,,,,,,,,,,,,,,,,,,,60fa1df4616a7c4ed9d42ae7,610368ab2ef4c8c2e0f4124d,2021-07-29_21h51.38.481,Simcolourproject_2stim_asymm_v5,2020.2.10,Win32,60,61025ae37ef11b136ea224fe,,,,,,,,,2918,22,31,1,0,0,response1disk,,7,7,-3,1,0,0,rectangle,7,-3,1,0,0,7,-3,1,0,0,1,109,269,70,1,,,,,,,,
,,,,,,,,,,,,,FF,,,,,,,,0.8168,,,,,,,,,,,,,,,,,,,,,,60fa1df4616a7c4ed9d42ae7,610368ab2ef4c8c2e0f4124d,2021-07-29_21h51.38.481,Simcolourproject_2stim_asymm_v5,2020.2.10,Win32,60,61025ae37ef11b136ea224fe,,,,,,,,,842,24,31,1,0,0,response1disk,,7,11,2,1,0,0,rectangle,11,2,1,0,0,11,2,1,0,0,1,110,270,113,1,,,,,,,,
,,,,,,,,,,,,,FF,,,,,,,,0.7167,,,,,,,,,,,,,,,,,,,,,,60fa1df4616a7c4ed9d42ae7,610368ab2ef4c8c2e0f4124d,2021-07-29_21h51.38.481,Simcolourproject_2stim_asymm_v5,2020.2.10,Win32,60,61025ae37ef11b136ea224fe,,,,,,,,,1495,22,33,1,0,0,response1disk,,7,8,-5,1,0,0,rectangle,8,-5,1,0,0,8,-5,1,0,0,1,111,271,72,1,,,,,,,,
,,,,,,,,,,,,,FF,,,,,,,,0.9288,,,,,,,,,,,,,,,,,,,,,,60fa1df4616a7c4ed9d42ae7,610368ab2ef4c8c2e0f4124d,2021-07-29_21h51.38.481,Simcolourproject_2stim_asymm_v5,2020.2.10,Win32,60,61025ae37ef11b136ea224fe,,,,,,,,,755,29,52,1,0,0,response1disk,,7,17,3,1,0,0,rectangle,17,3,1,0,0,17,3,1,0,0,1,112,272,71,1,,,,,,,,
,,,,,,,,,,,,,FF,,,,,,,,0.8834,,,,,,,,,,,,,,,,,,,,,,60fa1df4616a7c4ed9d42ae7,610368ab2ef4c8c2e0f4124d,2021-07-29_21h51.38.481,Simcolourproject_2stim_asymm_v5,2020.2.10,Win32,60,61025ae37ef11b136ea224fe,,,,,,,,,4159,27,29,1,0,0,response1disk,,7,20,8,1,0,0,rectangle,20,8,1,0,0,20,8,1,0,0,1,113,273,114,1,,,,,,,,
,,,,,,,,,,,,,FF,,,,,,,,1.3988,,,,,,,,,,,,,,,,,,,,,,60fa1df4616a7c4ed9d42ae7,610368ab2ef4c8c2e0f4124d,2021-07-29_21h51.38.481,Simcolourproject_2stim_asymm_v5,2020.2.10,Win32,60,61025ae37ef11b136ea224fe,,,,,,,,,2806,25,52,1,0,0,response1disk,,7,3,-11,1,0,0,rectangle,3,-11,1,0,0,3,-11,1,0,0,1,114,274,101,1,,,,,,,,
,,,,,,,,,,,,,FF,,,,,,,,0.7002,,,,,,,,,,,,,,,,,,,,,,60fa1df4616a7c4ed9d42ae7,610368ab2ef4c8c2e0f4124d,2021-07-29_21h51.38.481,Simcolourproject_2stim_asymm_v5,2020.2.10,Win32,60,61025ae37ef11b136ea224fe,,,,,,,,,1013,19,44,1,0,0,response1disk,,7,5,-4,1,0,0,rectangle,5,-4,1,0,0,5,-4,1,0,0,1,115,275,149,1,,,,,,,,
,,,,,,,,,,,,,FF,,,,,,,,1.6166,,,,,,,,,,,,,,,,,,,,,,60fa1df4616a7c4ed9d42ae7,610368ab2ef4c8c2e0f4124d,2021-07-29_21h51.38.481,Simcolourproject_2stim_asymm_v5,2020.2.10,Win32,60,61025ae37ef11b136ea224fe,,,,,,,,,99,-25,-87,1,0,0,response5disk,,3,4,7,1,0,0,rectangle,4,7,1,0,0,4,7,1,0,0,1,116,276,79,1,,,,,,,,
,,,,,,,,,,,,,FF,,,,,,,,1.5502,,,,,,,,,,,,,,,,,,,,,,60fa1df4616a7c4ed9d42ae7,610368ab2ef4c8c2e0f4124d,2021-07-29_21h51.38.481,Simcolourproject_2stim_asymm_v5,2020.2.10,Win32,60,61025ae37ef11b136ea224fe,,,,,,,,,3105,-56,29,1,0,0,response7disk,,1,7,8,1,0,0,rectangle,7,8,1,0,0,7,8,1,0,0,1,117,277,8,1,,,,,,,,
,,,,,,,,,,,,,FF,,,,,,,,1.4834,,,,,,,,,,,,,,,,,,,,,,60fa1df4616a7c4ed9d42ae7,610368ab2ef4c8c2e0f4124d,2021-07-29_21h51.38.481,Simcolourproject_2stim_asymm_v5,2020.2.10,Win32,60,61025ae37ef11b136ea224fe,,,,,,,,,2994,32,-70,1,0,0,response3disk,,4,1,5,1,0,0,rectangle,1,5,1,0,0,1,5,1,0,0,1,118,278,58,1,,,,,,,,
,,,,,,,,,,,,,FF,,,,,,,,2.0002,,,,,,,,,,,,,,,,,,,,,,60fa1df4616a7c4ed9d42ae7,610368ab2ef4c8c2e0f4124d,2021-07-29_21h51.38.481,Simcolourproject_2stim_asymm_v5,2020.2.10,Win32,60,61025ae37ef11b136ea224fe,,,,,,,,,4180,60,38,1,0,0,response1disk,,6,5,1,1,0,0,rectangle,5,1,1,0,0,5,1,1,0,0,1,119,279,49,1,,,,,,,,
,,,,,,,,,,,,,FF,,,,,,,,2.2669,,,,,,,,,,,,,,,,,,,,,,60fa1df4616a7c4ed9d42ae7,610368ab2ef4c8c2e0f4124d,2021-07-29_21h51.38.481,Simcolourproject_2stim_asymm_v5,2020.2.10,Win32,60,61025ae37ef11b136ea224fe,,,,,,,,,3713,-28,-91,1,0,0,response5disk,,3,-2,-7,1,0,0,rectangle,-2,-7,1,0,0,-2,-7,1,0,0,1,120,280,116,1,,,,,,,,
,,,,,,,,,,,,,FF,,,,,,,,0.9047,,,,,,,,,,,,,,,,,,,,,,60fa1df4616a7c4ed9d42ae7,610368ab2ef4c8c2e0f4124d,2021-07-29_21h51.38.481,Simcolourproject_2stim_asymm_v5,2020.2.10,Win32,60,61025ae37ef11b136ea224fe,,,,,,,,,1481,30,67,1,0,0,response1disk,,7,8,-1,1,0,0,rectangle,8,-1,1,0,0,8,-1,1,0,0,1,121,281,17,1,,,,,,,,
,,,,,,,,,,,,,FF,,,,,,,,1.3003,,,,,,,,,,,,,,,,,,,,,,60fa1df4616a7c4ed9d42ae7,610368ab2ef4c8c2e0f4124d,2021-07-29_21h51.38.481,Simcolourproject_2stim_asymm_v5,2020.2.10,Win32,60,61025ae37ef11b136ea224fe,,,,,,,,,1133,39,-99,1,0,0,response3disk,,4,-9,-4,1,0,0,rectangle,-9,-4,1,0,0,-9,-4,1,0,0,1,122,282,88,1,,,,,,,,
,,,,,,,,,,,,,FF,,,,,,,,1.3037,,,,,,,,,,,,,,,,,,,,,,60fa1df4616a7c4ed9d42ae7,610368ab2ef4c8c2e0f4124d,2021-07-29_21h51.38.481,Simcolourproject_2stim_asymm_v5,2020.2.10,Win32,60,61025ae37ef11b136ea224fe,,,,,,,,,3559,22,-68,1,0,0,response3disk,,4,-4,-4,1,0,0,rectangle,-4,-4,1,0,0,-4,-4,1,0,0,1,123,283,133,1,,,,,,,,
,,,,,,,,,,,,,FF,,,,,,,,0.9503,,,,,,,,,,,,,,,,,,,,,,60fa1df4616a7c4ed9d42ae7,610368ab2ef4c8c2e0f4124d,2021-07-29_21h51.38.481,Simcolourproject_2stim_asymm_v5,2020.2.10,Win32,60,61025ae37ef11b136ea224fe,,,,,,,,,1565,29,54,1,0,0,response1disk,,7,11,4,1,0,0,rectangle,11,4,1,0,0,11,4,1,0,0,1,124,284,75,1,,,,,,,,
,,,,,,,,,,,,,FF,,,,,,,,1.2157,,,,,,,,,,,,,,,,,,,,,,60fa1df4616a7c4ed9d42ae7,610368ab2ef4c8c2e0f4124d,2021-07-29_21h51.38.481,Simcolourproject_2stim_asymm_v5,2020.2.10,Win32,60,61025ae37ef11b136ea224fe,,,,,,,,,982,50,26,1,0,0,response1disk,,6,18,-2,1,0,0,rectangle,18,-2,1,0,0,18,-2,1,0,0,1,125,285,138,1,,,,,,,,
,,,,,,,,,,,,,FF,,,,,,,,1.0689,,,,,,,,,,,,,,,,,,,,,,60fa1df4616a7c4ed9d42ae7,610368ab2ef4c8c2e0f4124d,2021-07-29_21h51.38.481,Simcolourproject_2stim_asymm_v5,2020.2.10,Win32,60,61025ae37ef11b136ea224fe,,,,,,,,,3630,-44,25,1,0,0,response7disk,,1,11,0,1,0,0,rectangle,11,0,1,0,0,11,0,1,0,0,1,126,286,109,1,,,,,,,,
,,,,,,,,,,,,,FF,,,,,,,,1.2722,,,,,,,,,,,,,,,,,,,,,,60fa1df4616a7c4ed9d42ae7,610368ab2ef4c8c2e0f4124d,2021-07-29_21h51.38.481,Simcolourproject_2stim_asymm_v5,2020.2.10,Win32,60,61025ae37ef11b136ea224fe,,,,,,,,,734,41,33,1,0,0,response1disk,,6,7,5,1,0,0,rectangle,7,5,1,0,0,7,5,1,0,0,1,127,287,9,1,,,,,,,,
,,,,,,,,,,,,,FF,,,,,,,,1.2669,,,,,,,,,,,,,,,,,,,,,,60fa1df4616a7c4ed9d42ae7,610368ab2ef4c8c2e0f4124d,2021-07-29_21h51.38.481,Simcolourproject_2stim_asymm_v5,2020.2.10,Win32,60,61025ae37ef11b136ea224fe,,,,,,,,,885,-23,59,1,0,0,response7disk,,0,0,-9,1,0,0,rectangle,0,-9,1,0,0,0,-9,1,0,0,1,128,288,28,1,,,,,,,,
,,,,,,,,,,,,,FF,,,,,,,,1.4641,,,,,,,,,,,,,,,,,,,,,,60fa1df4616a7c4ed9d42ae7,610368ab2ef4c8c2e0f4124d,2021-07-29_21h51.38.481,Simcolourproject_2stim_asymm_v5,2020.2.10,Win32,60,61025ae37ef11b136ea224fe,,,,,,,,,1577,38,34,1,0,0,response1disk,,6,3,-7,1,0,0,rectangle,3,-7,1,0,0,3,-7,1,0,0,1,129,289,68,1,,,,,,,,
,,,,,,,,,,,,,FF,,,,,,,,2.0835,,,,,,,,,,,,,,,,,,,,,,60fa1df4616a7c4ed9d42ae7,610368ab2ef4c8c2e0f4124d,2021-07-29_21h51.38.481,Simcolourproject_2stim_asymm_v5,2020.2.10,Win32,60,61025ae37ef11b136ea224fe,,,,,,,,,192,51,-87,1,0,0,response3disk,,4,12,6,1,0,0,rectangle,12,6,1,0,0,12,6,1,0,0,1,130,290,118,1,,,,,,,,
,,,,,,,,,,,,,FF,,,,,,,,0.8174,,,,,,,,,,,,,,,,,,,,,,60fa1df4616a7c4ed9d42ae7,610368ab2ef4c8c2e0f4124d,2021-07-29_21h51.38.481,Simcolourproject_2stim_asymm_v5,2020.2.10,Win32,60,61025ae37ef11b136ea224fe,,,,,,,,,3825,24,50,1,0,0,response1disk,,7,1,-1,1,0,0,rectangle,25,93,1,0,0,8,3,1,0,0,1,131,291,33,1,,response1disk_3,TRUE,7,7,"[306,214,116,301,257,248,30,75,121,198,84,218,18,149,99,73,292,109,42,320]",1.465,rectangle
,,,,,,,,,,,,,FF,,,,,,,,0.9335,,,,,,,,,,,,,,,,,,,,,,60fa1df4616a7c4ed9d42ae7,610368ab2ef4c8c2e0f4124d,2021-07-29_21h51.38.481,Simcolourproject_2stim_asymm_v5,2020.2.10,Win32,60,61025ae37ef11b136ea224fe,,,,,,,,,447,22,41,1,0,0,response1disk,,7,0,4,1,0,0,rectangle,0,4,1,0,0,0,4,1,0,0,1,132,292,11,1,,,,,,,,
,,,,,,,,,,,,,FF,,,,,,,,1.3006,,,,,,,,,,,,,,,,,,,,,,60fa1df4616a7c4ed9d42ae7,610368ab2ef4c8c2e0f4124d,2021-07-29_21h51.38.481,Simcolourproject_2stim_asymm_v5,2020.2.10,Win32,60,61025ae37ef11b136ea224fe,,,,,,,,,1827,-30,-76,1,0,0,response5disk,,3,21,-4,1,0,0,rectangle,21,-4,1,0,0,21,-4,1,0,0,1,133,293,154,1,,,,,,,,
,,,,,,,,,,,,,FF,,,,,,,,1.1831,,,,,,,,,,,,,,,,,,,,,,60fa1df4616a7c4ed9d42ae7,610368ab2ef4c8c2e0f4124d,2021-07-29_21h51.38.481,Simcolourproject_2stim_asymm_v5,2020.2.10,Win32,60,61025ae37ef11b136ea224fe,,,,,,,,,606,29,42,1,0,0,response1disk,,7,9,-5,1,0,0,rectangle,9,-5,1,0,0,9,-5,1,0,0,1,134,294,131,1,,,,,,,,
,,,,,,,,,,,,,FF,,,,,,,,1.6111,,,,,,,,,,,,,,,,,,,,,,60fa1df4616a7c4ed9d42ae7,610368ab2ef4c8c2e0f4124d,2021-07-29_21h51.38.481,Simcolourproject_2stim_asymm_v5,2020.2.10,Win32,60,61025ae37ef11b136ea224fe,,,,,,,,,1303,39,60,1,0,0,response1disk,,7,10,10,1,0,0,rectangle,10,10,1,0,0,10,10,1,0,0,1,135,295,100,1,,,,,,,,
,,,,,,,,,,,,,FF,,,,,,,,0.9164,,,,,,,,,,,,,,,,,,,,,,60fa1df4616a7c4ed9d42ae7,610368ab2ef4c8c2e0f4124d,2021-07-29_21h51.38.481,Simcolourproject_2stim_asymm_v5,2020.2.10,Win32,60,61025ae37ef11b136ea224fe,,,,,,,,,3410,27,39,1,0,0,response1disk,,7,13,5,1,0,0,rectangle,13,5,1,0,0,13,5,1,0,0,1,136,296,0,1,,,,,,,,
,,,,,,,,,,,,,FF,,,,,,,,1.2332,,,,,,,,,,,,,,,,,,,,,,60fa1df4616a7c4ed9d42ae7,610368ab2ef4c8c2e0f4124d,2021-07-29_21h51.38.481,Simcolourproject_2stim_asymm_v5,2020.2.10,Win32,60,61025ae37ef11b136ea224fe,,,,,,,,,3402,38,-23,1,0,0,response3disk,,5,8,-1,1,0,0,rectangle,8,-1,1,0,0,8,-1,1,0,0,1,137,297,57,1,,,,,,,,
,,,,,,,,,,,,,FF,,,,,,,,1.172,,,,,,,,,,,,,,,,,,,,,,60fa1df4616a7c4ed9d42ae7,610368ab2ef4c8c2e0f4124d,2021-07-29_21h51.38.481,Simcolourproject_2stim_asymm_v5,2020.2.10,Win32,60,61025ae37ef11b136ea224fe,,,,,,,,,323,31,45,1,0,0,response1disk,,7,6,1,1,0,0,rectangle,6,1,1,0,0,6,1,1,0,0,1,138,298,135,1,,,,,,,,
,,,,,,,,,,,,,FF,,,,,,,,1.817,,,,,,,,,,,,,,,,,,,,,,60fa1df4616a7c4ed9d42ae7,610368ab2ef4c8c2e0f4124d,2021-07-29_21h51.38.481,Simcolourproject_2stim_asymm_v5,2020.2.10,Win32,60,61025ae37ef11b136ea224fe,,,,,,,,,1152,71,50,1,0,0,response1disk,,6,0,7,1,0,0,rectangle,0,7,1,0,0,0,7,1,0,0,1,139,299,140,1,,,,,,,,
,,,,,,,,,,,,,FF,,,,,,,,1.3,,,,,,,,,,,,,,,,,,,,,,60fa1df4616a7c4ed9d42ae7,610368ab2ef4c8c2e0f4124d,2021-07-29_21h51.38.481,Simcolourproject_2stim_asymm_v5,2020.2.10,Win32,60,61025ae37ef11b136ea224fe,,,,,,,,,2920,38,50,1,0,0,response1disk,,7,6,9,1,0,0,rectangle,30,-67,1,0,0,6,9,1,0,0,1,140,300,107,1,,response3disk_3,TRUE,4,4,"[306,214,116,301,257,248,30,75,121,198,84,218,18,149,99,73,292,109,42,320]",1.7896,rectangle
,,,,,,,,,,,,,FF,,,,,,,,1.5377,,,,,,,,,,,,,,,,,,,,,,60fa1df4616a7c4ed9d42ae7,610368ab2ef4c8c2e0f4124d,2021-07-29_21h51.38.481,Simcolourproject_2stim_asymm_v5,2020.2.10,Win32,60,61025ae37ef11b136ea224fe,,,,,,,,,708,17,50,1,0,0,response1disk,,7,9,14,1,0,0,rectangle,9,14,1,0,0,9,14,1,0,0,1,141,301,5,1,,,,,,,,
,,,,,,,,,,,,,FF,,,,,,,,0.9454,,,,,,,,,,,,,,,,,,,,,,60fa1df4616a7c4ed9d42ae7,610368ab2ef4c8c2e0f4124d,2021-07-29_21h51.38.481,Simcolourproject_2stim_asymm_v5,2020.2.10,Win32,60,61025ae37ef11b136ea224fe,,,,,,,,,864,41,30,1,0,0,response1disk,,6,14,10,1,0,0,rectangle,14,10,1,0,0,14,10,1,0,0,1,142,302,129,1,,,,,,,,
,,,,,,,,,,,,,FF,,,,,,,,1.4691,,,,,,,,,,,,,,,,,,,,,,60fa1df4616a7c4ed9d42ae7,610368ab2ef4c8c2e0f4124d,2021-07-29_21h51.38.481,Simcolourproject_2stim_asymm_v5,2020.2.10,Win32,60,61025ae37ef11b136ea224fe,,,,,,,,,3592,-68,-35,1,0,0,response5disk,,2,5,11,1,0,0,rectangle,5,11,1,0,0,5,11,1,0,0,1,143,303,132,1,,,,,,,,
