key_resp.keys,key_resp.rt,key_resp_14.keys,key_resp_14.rt,key_resp_15.keys,key_resp_15.rt,key_resp_17.keys,key_resp_17.rt,key_resp_9.keys,key_resp_9.rt,key_resp_10.keys,key_resp_10.rt,practice_comparison,Ecc,mouse_5.x,mouse_5.y,mouse_5.leftButton,mouse_5.midButton,mouse_5.rightButton,mouse_5.clicked_name,pracsimilarity,response_time,mouse_10.x,mouse_10.y,mouse_10.leftButton,mouse_10.midButton,mouse_10.rightButton,mouse_10.clicked_name,mouse_7.x,mouse_7.y,mouse_7.leftButton,mouse_7.midButton,mouse_7.rightButton,mouse_6.x,mouse_6.y,mouse_6.leftButton,mouse_6.midButton,mouse_6.rightButton,duringprac.thisRepN,duringprac.thisTrialN,duringprac.thisN,duringprac.thisIndex,duringprac.ran,participant,session,date,expName,psychopyVersion,OS,frameRate,study_id,mouse_7.clicked_name,catchpracsimilarity,catch_response_time,catchnumberprac,catchtrialorderprac,mouse_6.clicked_name,key_resp_22.keys,key_resp_22.rt,realcomparison,mouse.x,mouse.y,mouse.leftButton,mouse.midButton,mouse.rightButton,mouse.clicked_name,Colour2,similarity,mouse_2.x,mouse_2.y,mouse_2.leftButton,mouse_2.midButton,mouse_2.rightButton,mouse_2.clicked_name,mouse_3.x,mouse_3.y,mouse_3.leftButton,mouse_3.midButton,mouse_3.rightButton,mouse_11.x,mouse_11.y,mouse_11.leftButton,mouse_11.midButton,mouse_11.rightButton,trials_2.thisRepN,trials_2.thisTrialN,trials_2.thisN,trials_2.thisIndex,trials_2.ran,Colour1,mouse_3.clicked_name,catchornah,catchsimilarity,catchnumber,catchtrialorder,catchRT,mouse_11.clicked_name
space,1.2539,space,14.3736,space,46.6134,space,15.1485,space,8.4373,space,15.8593,62,FF,93,68,1,0,0,response1disk_5,6,11.5467,17,-6,1,0,0,rectangle_8,17,-6,1,0,0,17,-6,1,0,0,0,0,0,0,1,60fb7a9fcbdab69a8f9c9cc2,61036efaf7839d9d6cf5905f,2021-07-29_22h17.12.694,Simcolourproject_2stim_asymm_v5,2020.2.10,Win32,60,61025ae37ef11b136ea224fe,,,,,,,,,,,,,,,,,,,,,,,,,,,,,,,,,,,,,,,,,,,,,,
,,,,,,,,,,,,42,FF,37,83,1,0,0,response1disk_5,7,5.9607,-12,-11,1,0,0,rectangle_8,32,-68,1,0,0,12,5,1,0,0,0,1,1,5,1,60fb7a9fcbdab69a8f9c9cc2,61036efaf7839d9d6cf5905f,2021-07-29_22h17.12.694,Simcolourproject_2stim_asymm_v5,2020.2.10,Win32,60,61025ae37ef11b136ea224fe,response3disk_7,4,7.3012,4,"[2,5]",rectangle_4,,,,,,,,,,,,,,,,,,,,,,,,,,,,,,,,,,,,,,,,
,,,,,,,,,,,,100,FF,51,86,1,0,0,response1disk_5,7,10.6003,5,9,1,0,0,rectangle_8,5,9,1,0,0,5,9,1,0,0,0,2,2,3,1,60fb7a9fcbdab69a8f9c9cc2,61036efaf7839d9d6cf5905f,2021-07-29_22h17.12.694,Simcolourproject_2stim_asymm_v5,2020.2.10,Win32,60,61025ae37ef11b136ea224fe,,,,,,,,,,,,,,,,,,,,,,,,,,,,,,,,,,,,,,,,,,,,,,
,,,,,,,,,,,,112,PF,-91,55,1,0,0,response7disk_5,1,4.946,-32,15,1,0,0,rectangle_8,-32,15,1,0,0,-32,15,1,0,0,0,3,3,2,1,60fb7a9fcbdab69a8f9c9cc2,61036efaf7839d9d6cf5905f,2021-07-29_22h17.12.694,Simcolourproject_2stim_asymm_v5,2020.2.10,Win32,60,61025ae37ef11b136ea224fe,,,,,,,,,,,,,,,,,,,,,,,,,,,,,,,,,,,,,,,,,,,,,,
,,,,,,,,,,,,93,PF,100,44,1,0,0,response1disk_5,6,22.377,-19,-4,1,0,0,rectangle_8,54,-112,1,0,0,0,-3,1,0,0,0,4,4,6,1,60fb7a9fcbdab69a8f9c9cc2,61036efaf7839d9d6cf5905f,2021-07-29_22h17.12.694,Simcolourproject_2stim_asymm_v5,2020.2.10,Win32,60,61025ae37ef11b136ea224fe,response3disk_7,4,3.0017,4,"[2,5]",rectangle_4,,,,,,,,,,,,,,,,,,,,,,,,,,,,,,,,,,,,,,,,
,,,,,,,,,,,,126,PF,103,-40,1,0,0,response3disk_5,5,5.671,9,3,1,0,0,rectangle_8,9,3,1,0,0,9,3,1,0,0,0,5,5,4,1,60fb7a9fcbdab69a8f9c9cc2,61036efaf7839d9d6cf5905f,2021-07-29_22h17.12.694,Simcolourproject_2stim_asymm_v5,2020.2.10,Win32,60,61025ae37ef11b136ea224fe,,,,,,,,,,,,,,,,,,,,,,,,,,,,,,,,,,,,,,,,,,,,,,
,,,,,,,,,,,,65,PF,35,67,1,0,0,response1disk_5,7,9.5876,-11,-4,1,0,0,rectangle_8,-11,-4,1,0,0,-11,-4,1,0,0,0,6,6,1,1,60fb7a9fcbdab69a8f9c9cc2,61036efaf7839d9d6cf5905f,2021-07-29_22h17.12.694,Simcolourproject_2stim_asymm_v5,2020.2.10,Win32,60,61025ae37ef11b136ea224fe,,,,,,,,,,,,,,,,,,,,,,,,,,,,,,,,,,,,,,,,,,,,,,
,,,,,,,,,,,,,FF,,,,,,,,6.4959,,,,,,,,,,,,,,,,,,,,,,60fb7a9fcbdab69a8f9c9cc2,61036efaf7839d9d6cf5905f,2021-07-29_22h17.12.694,Simcolourproject_2stim_asymm_v5,2020.2.10,Win32,60,61025ae37ef11b136ea224fe,,,,,,,space,3.2929,217,90,45,1,0,0,response1disk,,6,18,9,1,0,0,rectangle,18,9,1,0,0,18,9,1,0,0,0,0,0,112,1,,,,,,,,
,,,,,,,,,,,,,FF,,,,,,,,4.2293,,,,,,,,,,,,,,,,,,,,,,60fb7a9fcbdab69a8f9c9cc2,61036efaf7839d9d6cf5905f,2021-07-29_22h17.12.694,Simcolourproject_2stim_asymm_v5,2020.2.10,Win32,60,61025ae37ef11b136ea224fe,,,,,,,,,4235,-82,46,1,0,0,response7disk,,1,-23,1,1,0,0,rectangle,-23,1,1,0,0,-23,1,1,0,0,0,1,1,62,1,,,,,,,,
,,,,,,,,,,,,,FF,,,,,,,,5.9952,,,,,,,,,,,,,,,,,,,,,,60fb7a9fcbdab69a8f9c9cc2,61036efaf7839d9d6cf5905f,2021-07-29_22h17.12.694,Simcolourproject_2stim_asymm_v5,2020.2.10,Win32,60,61025ae37ef11b136ea224fe,,,,,,,,,929,35,114,1,0,0,response1disk,,7,9,11,1,0,0,rectangle,9,11,1,0,0,9,11,1,0,0,0,2,2,28,1,,,,,,,,
,,,,,,,,,,,,,FF,,,,,,,,2.4517,,,,,,,,,,,,,,,,,,,,,,60fb7a9fcbdab69a8f9c9cc2,61036efaf7839d9d6cf5905f,2021-07-29_22h17.12.694,Simcolourproject_2stim_asymm_v5,2020.2.10,Win32,60,61025ae37ef11b136ea224fe,,,,,,,,,550,-76,-45,1,0,0,response5disk,,2,-2,0,1,0,0,rectangle,-2,0,1,0,0,-2,0,1,0,0,0,3,3,39,1,,,,,,,,
,,,,,,,,,,,,,FF,,,,,,,,6.6803,,,,,,,,,,,,,,,,,,,,,,60fb7a9fcbdab69a8f9c9cc2,61036efaf7839d9d6cf5905f,2021-07-29_22h17.12.694,Simcolourproject_2stim_asymm_v5,2020.2.10,Win32,60,61025ae37ef11b136ea224fe,,,,,,,,,4352,97,48,1,0,0,response1disk,,6,0,1,1,0,0,rectangle,0,1,1,0,0,0,1,1,0,0,0,4,4,41,1,,,,,,,,
,,,,,,,,,,,,,FF,,,,,,,,8.5253,,,,,,,,,,,,,,,,,,,,,,60fb7a9fcbdab69a8f9c9cc2,61036efaf7839d9d6cf5905f,2021-07-29_22h17.12.694,Simcolourproject_2stim_asymm_v5,2020.2.10,Win32,60,61025ae37ef11b136ea224fe,,,,,,,,,878,89,34,1,0,0,response1disk,,6,-12,-2,1,0,0,rectangle,-12,-2,1,0,0,-12,-2,1,0,0,0,5,5,75,1,,,,,,,,
,,,,,,,,,,,,,FF,,,,,,,,2.2981,,,,,,,,,,,,,,,,,,,,,,60fb7a9fcbdab69a8f9c9cc2,61036efaf7839d9d6cf5905f,2021-07-29_22h17.12.694,Simcolourproject_2stim_asymm_v5,2020.2.10,Win32,60,61025ae37ef11b136ea224fe,,,,,,,,,602,96,24,1,0,0,response1disk,,6,16,-2,1,0,0,rectangle,16,-2,1,0,0,16,-2,1,0,0,0,6,6,13,1,,,,,,,,
,,,,,,,,,,,,,FF,,,,,,,,2.7303,,,,,,,,,,,,,,,,,,,,,,60fb7a9fcbdab69a8f9c9cc2,61036efaf7839d9d6cf5905f,2021-07-29_22h17.12.694,Simcolourproject_2stim_asymm_v5,2020.2.10,Win32,60,61025ae37ef11b136ea224fe,,,,,,,,,2442,78,34,1,0,0,response1disk,,6,-19,7,1,0,0,rectangle,-19,7,1,0,0,-19,7,1,0,0,0,7,7,1,1,,,,,,,,
,,,,,,,,,,,,,FF,,,,,,,,1.0744,,,,,,,,,,,,,,,,,,,,,,60fb7a9fcbdab69a8f9c9cc2,61036efaf7839d9d6cf5905f,2021-07-29_22h17.12.694,Simcolourproject_2stim_asymm_v5,2020.2.10,Win32,60,61025ae37ef11b136ea224fe,,,,,,,,,2492,50,-62,1,0,0,response3disk,,4,-1,6,1,0,0,rectangle,-1,6,1,0,0,-1,6,1,0,0,0,8,8,146,1,,,,,,,,
,,,,,,,,,,,,,FF,,,,,,,,1.9826,,,,,,,,,,,,,,,,,,,,,,60fb7a9fcbdab69a8f9c9cc2,61036efaf7839d9d6cf5905f,2021-07-29_22h17.12.694,Simcolourproject_2stim_asymm_v5,2020.2.10,Win32,60,61025ae37ef11b136ea224fe,,,,,,,,,445,-38,89,1,0,0,response7disk,,0,6,0,1,0,0,rectangle,-33,-93,1,0,0,6,8,1,0,0,0,9,9,60,1,,response5disk_3,TRUE,3,3,"[177,141,226,10,134,294,93,162,223,52,220,177,310,88,143,317,260,234,89,33]",2.628,rectangle
,,,,,,,,,,,,,FF,,,,,,,,3.398,,,,,,,,,,,,,,,,,,,,,,60fb7a9fcbdab69a8f9c9cc2,61036efaf7839d9d6cf5905f,2021-07-29_22h17.12.694,Simcolourproject_2stim_asymm_v5,2020.2.10,Win32,60,61025ae37ef11b136ea224fe,,,,,,,,,243,32,91,1,0,0,response1disk,,7,-7,-8,1,0,0,rectangle,-7,-8,1,0,0,-7,-8,1,0,0,0,10,10,6,1,,,,,,,,
,,,,,,,,,,,,,FF,,,,,,,,2.6243,,,,,,,,,,,,,,,,,,,,,,60fb7a9fcbdab69a8f9c9cc2,61036efaf7839d9d6cf5905f,2021-07-29_22h17.12.694,Simcolourproject_2stim_asymm_v5,2020.2.10,Win32,60,61025ae37ef11b136ea224fe,,,,,,,,,1173,44,99,1,0,0,response1disk,,7,5,4,1,0,0,rectangle,5,4,1,0,0,5,4,1,0,0,0,11,11,29,1,,,,,,,,
,,,,,,,,,,,,,FF,,,,,,,,2.8051,,,,,,,,,,,,,,,,,,,,,,60fb7a9fcbdab69a8f9c9cc2,61036efaf7839d9d6cf5905f,2021-07-29_22h17.12.694,Simcolourproject_2stim_asymm_v5,2020.2.10,Win32,60,61025ae37ef11b136ea224fe,,,,,,,,,1316,100,85,1,0,0,response1disk,,6,-6,-10,1,0,0,rectangle,-6,-10,1,0,0,-6,-10,1,0,0,0,12,12,76,1,,,,,,,,
,,,,,,,,,,,,,FF,,,,,,,,3.4804,,,,,,,,,,,,,,,,,,,,,,60fb7a9fcbdab69a8f9c9cc2,61036efaf7839d9d6cf5905f,2021-07-29_22h17.12.694,Simcolourproject_2stim_asymm_v5,2020.2.10,Win32,60,61025ae37ef11b136ea224fe,,,,,,,,,1577,34,88,1,0,0,response1disk,,7,14,4,1,0,0,rectangle,14,4,1,0,0,14,4,1,0,0,0,13,13,30,1,,,,,,,,
,,,,,,,,,,,,,FF,,,,,,,,1.9561,,,,,,,,,,,,,,,,,,,,,,60fb7a9fcbdab69a8f9c9cc2,61036efaf7839d9d6cf5905f,2021-07-29_22h17.12.694,Simcolourproject_2stim_asymm_v5,2020.2.10,Win32,60,61025ae37ef11b136ea224fe,,,,,,,,,581,108,42,1,0,0,response1disk,,6,10,13,1,0,0,rectangle,10,13,1,0,0,10,13,1,0,0,0,14,14,130,1,,,,,,,,
,,,,,,,,,,,,,FF,,,,,,,,1.2208,,,,,,,,,,,,,,,,,,,,,,60fb7a9fcbdab69a8f9c9cc2,61036efaf7839d9d6cf5905f,2021-07-29_22h17.12.694,Simcolourproject_2stim_asymm_v5,2020.2.10,Win32,60,61025ae37ef11b136ea224fe,,,,,,,,,4303,74,44,1,0,0,response1disk,,6,10,4,1,0,0,rectangle,10,4,1,0,0,10,4,1,0,0,0,15,15,149,1,,,,,,,,
,,,,,,,,,,,,,FF,,,,,,,,1.2003,,,,,,,,,,,,,,,,,,,,,,60fb7a9fcbdab69a8f9c9cc2,61036efaf7839d9d6cf5905f,2021-07-29_22h17.12.694,Simcolourproject_2stim_asymm_v5,2020.2.10,Win32,60,61025ae37ef11b136ea224fe,,,,,,,,,3993,-71,48,1,0,0,response7disk,,1,-6,-9,1,0,0,rectangle,-6,-9,1,0,0,-6,-9,1,0,0,0,16,16,87,1,,,,,,,,
,,,,,,,,,,,,,FF,,,,,,,,1.5988,,,,,,,,,,,,,,,,,,,,,,60fb7a9fcbdab69a8f9c9cc2,61036efaf7839d9d6cf5905f,2021-07-29_22h17.12.694,Simcolourproject_2stim_asymm_v5,2020.2.10,Win32,60,61025ae37ef11b136ea224fe,,,,,,,,,2721,-50,-86,1,0,0,response5disk,,3,1,9,1,0,0,rectangle,1,9,1,0,0,1,9,1,0,0,0,17,17,86,1,,,,,,,,
,,,,,,,,,,,,,FF,,,,,,,,1.9239,,,,,,,,,,,,,,,,,,,,,,60fb7a9fcbdab69a8f9c9cc2,61036efaf7839d9d6cf5905f,2021-07-29_22h17.12.694,Simcolourproject_2stim_asymm_v5,2020.2.10,Win32,60,61025ae37ef11b136ea224fe,,,,,,,,,2863,107,23,1,0,0,response1disk,,6,4,-7,1,0,0,rectangle,4,-7,1,0,0,4,-7,1,0,0,0,18,18,61,1,,,,,,,,
,,,,,,,,,,,,,FF,,,,,,,,2.8779,,,,,,,,,,,,,,,,,,,,,,60fb7a9fcbdab69a8f9c9cc2,61036efaf7839d9d6cf5905f,2021-07-29_22h17.12.694,Simcolourproject_2stim_asymm_v5,2020.2.10,Win32,60,61025ae37ef11b136ea224fe,,,,,,,,,1800,85,30,1,0,0,response1disk,,6,-4,8,1,0,0,rectangle,-4,8,1,0,0,-4,8,1,0,0,0,19,19,153,1,,,,,,,,
,,,,,,,,,,,,,FF,,,,,,,,1.1549,,,,,,,,,,,,,,,,,,,,,,60fb7a9fcbdab69a8f9c9cc2,61036efaf7839d9d6cf5905f,2021-07-29_22h17.12.694,Simcolourproject_2stim_asymm_v5,2020.2.10,Win32,60,61025ae37ef11b136ea224fe,,,,,,,,,2970,62,33,1,0,0,response1disk,,6,11,12,1,0,0,rectangle,11,12,1,0,0,11,12,1,0,0,0,20,20,92,1,,,,,,,,
,,,,,,,,,,,,,FF,,,,,,,,1.6994,,,,,,,,,,,,,,,,,,,,,,60fb7a9fcbdab69a8f9c9cc2,61036efaf7839d9d6cf5905f,2021-07-29_22h17.12.694,Simcolourproject_2stim_asymm_v5,2020.2.10,Win32,60,61025ae37ef11b136ea224fe,,,,,,,,,212,48,96,1,0,0,response1disk,,7,-5,-4,1,0,0,rectangle,-5,-4,1,0,0,-5,-4,1,0,0,0,21,21,108,1,,,,,,,,
,,,,,,,,,,,,,FF,,,,,,,,1.7813,,,,,,,,,,,,,,,,,,,,,,60fb7a9fcbdab69a8f9c9cc2,61036efaf7839d9d6cf5905f,2021-07-29_22h17.12.694,Simcolourproject_2stim_asymm_v5,2020.2.10,Win32,60,61025ae37ef11b136ea224fe,,,,,,,,,265,-36,-65,1,0,0,response5disk,,3,10,12,1,0,0,rectangle,10,12,1,0,0,10,12,1,0,0,0,22,22,50,1,,,,,,,,
,,,,,,,,,,,,,FF,,,,,,,,4.0802,,,,,,,,,,,,,,,,,,,,,,60fb7a9fcbdab69a8f9c9cc2,61036efaf7839d9d6cf5905f,2021-07-29_22h17.12.694,Simcolourproject_2stim_asymm_v5,2020.2.10,Win32,60,61025ae37ef11b136ea224fe,,,,,,,,,3347,95,17,1,0,0,response1disk,,6,-1,3,1,0,0,rectangle,-1,3,1,0,0,-1,3,1,0,0,0,23,23,157,1,,,,,,,,
,,,,,,,,,,,,,FF,,,,,,,,1.9287,,,,,,,,,,,,,,,,,,,,,,60fb7a9fcbdab69a8f9c9cc2,61036efaf7839d9d6cf5905f,2021-07-29_22h17.12.694,Simcolourproject_2stim_asymm_v5,2020.2.10,Win32,60,61025ae37ef11b136ea224fe,,,,,,,,,2229,20,-75,1,0,0,response3disk,,4,-1,-1,1,0,0,rectangle,-1,-1,1,0,0,-1,-1,1,0,0,0,24,24,83,1,,,,,,,,
,,,,,,,,,,,,,FF,,,,,,,,1.3545,,,,,,,,,,,,,,,,,,,,,,60fb7a9fcbdab69a8f9c9cc2,61036efaf7839d9d6cf5905f,2021-07-29_22h17.12.694,Simcolourproject_2stim_asymm_v5,2020.2.10,Win32,60,61025ae37ef11b136ea224fe,,,,,,,,,3619,89,23,1,0,0,response1disk,,6,10,5,1,0,0,rectangle,10,5,1,0,0,10,5,1,0,0,0,25,25,117,1,,,,,,,,
,,,,,,,,,,,,,FF,,,,,,,,2.4279,,,,,,,,,,,,,,,,,,,,,,60fb7a9fcbdab69a8f9c9cc2,61036efaf7839d9d6cf5905f,2021-07-29_22h17.12.694,Simcolourproject_2stim_asymm_v5,2020.2.10,Win32,60,61025ae37ef11b136ea224fe,,,,,,,,,2064,40,100,1,0,0,response1disk,,7,17,6,1,0,0,rectangle,17,6,1,0,0,17,6,1,0,0,0,26,26,81,1,,,,,,,,
,,,,,,,,,,,,,FF,,,,,,,,2.706,,,,,,,,,,,,,,,,,,,,,,60fb7a9fcbdab69a8f9c9cc2,61036efaf7839d9d6cf5905f,2021-07-29_22h17.12.694,Simcolourproject_2stim_asymm_v5,2020.2.10,Win32,60,61025ae37ef11b136ea224fe,,,,,,,,,485,67,30,1,0,0,response1disk,,6,22,3,1,0,0,rectangle,22,3,1,0,0,22,3,1,0,0,0,27,27,96,1,,,,,,,,
,,,,,,,,,,,,,FF,,,,,,,,1.3019,,,,,,,,,,,,,,,,,,,,,,60fb7a9fcbdab69a8f9c9cc2,61036efaf7839d9d6cf5905f,2021-07-29_22h17.12.694,Simcolourproject_2stim_asymm_v5,2020.2.10,Win32,60,61025ae37ef11b136ea224fe,,,,,,,,,2420,34,-81,1,0,0,response3disk,,4,-8,-4,1,0,0,rectangle,-8,-4,1,0,0,-8,-4,1,0,0,0,28,28,36,1,,,,,,,,
,,,,,,,,,,,,,FF,,,,,,,,5.5897,,,,,,,,,,,,,,,,,,,,,,60fb7a9fcbdab69a8f9c9cc2,61036efaf7839d9d6cf5905f,2021-07-29_22h17.12.694,Simcolourproject_2stim_asymm_v5,2020.2.10,Win32,60,61025ae37ef11b136ea224fe,,,,,,,,,2252,74,36,1,0,0,response1disk,,6,2,13,1,0,0,rectangle,2,13,1,0,0,2,13,1,0,0,0,29,29,45,1,,,,,,,,
,,,,,,,,,,,,,FF,,,,,,,,2.475,,,,,,,,,,,,,,,,,,,,,,60fb7a9fcbdab69a8f9c9cc2,61036efaf7839d9d6cf5905f,2021-07-29_22h17.12.694,Simcolourproject_2stim_asymm_v5,2020.2.10,Win32,60,61025ae37ef11b136ea224fe,,,,,,,,,813,103,50,1,0,0,response1disk,,6,2,6,1,0,0,rectangle,2,6,1,0,0,2,6,1,0,0,0,30,30,32,1,,,,,,,,
,,,,,,,,,,,,,FF,,,,,,,,2.6508,,,,,,,,,,,,,,,,,,,,,,60fb7a9fcbdab69a8f9c9cc2,61036efaf7839d9d6cf5905f,2021-07-29_22h17.12.694,Simcolourproject_2stim_asymm_v5,2020.2.10,Win32,60,61025ae37ef11b136ea224fe,,,,,,,,,3471,31,-69,1,0,0,response3disk,,4,-6,0,1,0,0,rectangle,-6,0,1,0,0,-6,0,1,0,0,0,31,31,21,1,,,,,,,,
,,,,,,,,,,,,,FF,,,,,,,,2.1084,,,,,,,,,,,,,,,,,,,,,,60fb7a9fcbdab69a8f9c9cc2,61036efaf7839d9d6cf5905f,2021-07-29_22h17.12.694,Simcolourproject_2stim_asymm_v5,2020.2.10,Win32,60,61025ae37ef11b136ea224fe,,,,,,,,,1847,106,40,1,0,0,response1disk,,6,12,6,1,0,0,rectangle,84,-53,1,0,0,11,5,1,0,0,0,32,32,11,1,,response3disk_3,TRUE,5,5,"[177,141,226,10,134,294,93,162,223,52,220,177,310,88,143,317,260,234,89,33]",2.1447,rectangle
,,,,,,,,,,,,,FF,,,,,,,,4.59,,,,,,,,,,,,,,,,,,,,,,60fb7a9fcbdab69a8f9c9cc2,61036efaf7839d9d6cf5905f,2021-07-29_22h17.12.694,Simcolourproject_2stim_asymm_v5,2020.2.10,Win32,60,61025ae37ef11b136ea224fe,,,,,,,,,2467,86,57,1,0,0,response1disk,,6,11,3,1,0,0,rectangle,11,3,1,0,0,11,3,1,0,0,0,33,33,152,1,,,,,,,,
,,,,,,,,,,,,,FF,,,,,,,,2.0404,,,,,,,,,,,,,,,,,,,,,,60fb7a9fcbdab69a8f9c9cc2,61036efaf7839d9d6cf5905f,2021-07-29_22h17.12.694,Simcolourproject_2stim_asymm_v5,2020.2.10,Win32,60,61025ae37ef11b136ea224fe,,,,,,,,,3424,-51,-83,1,0,0,response5disk,,3,4,10,1,0,0,rectangle,4,10,1,0,0,4,10,1,0,0,0,34,34,99,1,,,,,,,,
,,,,,,,,,,,,,FF,,,,,,,,2.1503,,,,,,,,,,,,,,,,,,,,,,60fb7a9fcbdab69a8f9c9cc2,61036efaf7839d9d6cf5905f,2021-07-29_22h17.12.694,Simcolourproject_2stim_asymm_v5,2020.2.10,Win32,60,61025ae37ef11b136ea224fe,,,,,,,,,3722,33,-57,1,0,0,response3disk,,4,8,4,1,0,0,rectangle,8,4,1,0,0,8,4,1,0,0,0,35,35,80,1,,,,,,,,
,,,,,,,,,,,,,FF,,,,,,,,3.1477,,,,,,,,,,,,,,,,,,,,,,60fb7a9fcbdab69a8f9c9cc2,61036efaf7839d9d6cf5905f,2021-07-29_22h17.12.694,Simcolourproject_2stim_asymm_v5,2020.2.10,Win32,60,61025ae37ef11b136ea224fe,,,,,,,,,3220,82,29,1,0,0,response1disk,,6,3,-4,1,0,0,rectangle,3,-4,1,0,0,3,-4,1,0,0,0,36,36,97,1,,,,,,,,
,,,,,,,,,,,,,FF,,,,,,,,4.2478,,,,,,,,,,,,,,,,,,,,,,60fb7a9fcbdab69a8f9c9cc2,61036efaf7839d9d6cf5905f,2021-07-29_22h17.12.694,Simcolourproject_2stim_asymm_v5,2020.2.10,Win32,60,61025ae37ef11b136ea224fe,,,,,,,,,2762,43,76,1,0,0,response1disk,,7,7,7,1,0,0,rectangle,7,7,1,0,0,7,7,1,0,0,0,37,37,72,1,,,,,,,,
,,,,,,,,,,,,,FF,,,,,,,,1.88,,,,,,,,,,,,,,,,,,,,,,60fb7a9fcbdab69a8f9c9cc2,61036efaf7839d9d6cf5905f,2021-07-29_22h17.12.694,Simcolourproject_2stim_asymm_v5,2020.2.10,Win32,60,61025ae37ef11b136ea224fe,,,,,,,,,1474,73,40,1,0,0,response1disk,,6,13,2,1,0,0,rectangle,13,2,1,0,0,13,2,1,0,0,0,38,38,37,1,,,,,,,,
,,,,,,,,,,,,,FF,,,,,,,,4.114,,,,,,,,,,,,,,,,,,,,,,60fb7a9fcbdab69a8f9c9cc2,61036efaf7839d9d6cf5905f,2021-07-29_22h17.12.694,Simcolourproject_2stim_asymm_v5,2020.2.10,Win32,60,61025ae37ef11b136ea224fe,,,,,,,,,2881,102,50,1,0,0,response1disk,,6,16,10,1,0,0,rectangle,16,10,1,0,0,16,10,1,0,0,0,39,39,133,1,,,,,,,,
,,,,,,,,,,,,,FF,,,,,,,,5.4189,,,,,,,,,,,,,,,,,,,,,,60fb7a9fcbdab69a8f9c9cc2,61036efaf7839d9d6cf5905f,2021-07-29_22h17.12.694,Simcolourproject_2stim_asymm_v5,2020.2.10,Win32,60,61025ae37ef11b136ea224fe,,,,,,,,,1702,107,21,1,0,0,response1disk,,6,-23,3,1,0,0,rectangle,-23,3,1,0,0,-23,3,1,0,0,0,40,40,66,1,,,,,,,,
,,,,,,,,,,,,,FF,,,,,,,,1.8478,,,,,,,,,,,,,,,,,,,,,,60fb7a9fcbdab69a8f9c9cc2,61036efaf7839d9d6cf5905f,2021-07-29_22h17.12.694,Simcolourproject_2stim_asymm_v5,2020.2.10,Win32,60,61025ae37ef11b136ea224fe,,,,,,,,,4142,80,-53,1,0,0,response3disk,,5,13,5,1,0,0,rectangle,13,5,1,0,0,13,5,1,0,0,0,41,41,77,1,,,,,,,,
,,,,,,,,,,,,,FF,,,,,,,,3.4714,,,,,,,,,,,,,,,,,,,,,,60fb7a9fcbdab69a8f9c9cc2,61036efaf7839d9d6cf5905f,2021-07-29_22h17.12.694,Simcolourproject_2stim_asymm_v5,2020.2.10,Win32,60,61025ae37ef11b136ea224fe,,,,,,,,,3286,111,-61,1,0,0,response3disk,,5,0,3,1,0,0,rectangle,0,3,1,0,0,0,3,1,0,0,0,42,42,65,1,,,,,,,,
,,,,,,,,,,,,,FF,,,,,,,,3.1229,,,,,,,,,,,,,,,,,,,,,,60fb7a9fcbdab69a8f9c9cc2,61036efaf7839d9d6cf5905f,2021-07-29_22h17.12.694,Simcolourproject_2stim_asymm_v5,2020.2.10,Win32,60,61025ae37ef11b136ea224fe,,,,,,,,,1257,71,-48,1,0,0,response3disk,,5,8,-6,1,0,0,rectangle,8,-6,1,0,0,8,-6,1,0,0,0,43,43,114,1,,,,,,,,
,,,,,,,,,,,,,FF,,,,,,,,3.3239,,,,,,,,,,,,,,,,,,,,,,60fb7a9fcbdab69a8f9c9cc2,61036efaf7839d9d6cf5905f,2021-07-29_22h17.12.694,Simcolourproject_2stim_asymm_v5,2020.2.10,Win32,60,61025ae37ef11b136ea224fe,,,,,,,,,882,87,45,1,0,0,response1disk,,6,13,9,1,0,0,rectangle,13,9,1,0,0,13,9,1,0,0,0,44,44,35,1,,,,,,,,
,,,,,,,,,,,,,FF,,,,,,,,3.0278,,,,,,,,,,,,,,,,,,,,,,60fb7a9fcbdab69a8f9c9cc2,61036efaf7839d9d6cf5905f,2021-07-29_22h17.12.694,Simcolourproject_2stim_asymm_v5,2020.2.10,Win32,60,61025ae37ef11b136ea224fe,,,,,,,,,925,37,80,1,0,0,response1disk,,7,10,11,1,0,0,rectangle,10,11,1,0,0,10,11,1,0,0,0,45,45,154,1,,,,,,,,
,,,,,,,,,,,,,FF,,,,,,,,7.7138,,,,,,,,,,,,,,,,,,,,,,60fb7a9fcbdab69a8f9c9cc2,61036efaf7839d9d6cf5905f,2021-07-29_22h17.12.694,Simcolourproject_2stim_asymm_v5,2020.2.10,Win32,60,61025ae37ef11b136ea224fe,,,,,,,,,1556,54,31,1,0,0,response1disk,,6,-4,9,1,0,0,rectangle,-4,9,1,0,0,-4,9,1,0,0,0,46,46,124,1,,,,,,,,
,,,,,,,,,,,,,FF,,,,,,,,1.5741,,,,,,,,,,,,,,,,,,,,,,60fb7a9fcbdab69a8f9c9cc2,61036efaf7839d9d6cf5905f,2021-07-29_22h17.12.694,Simcolourproject_2stim_asymm_v5,2020.2.10,Win32,60,61025ae37ef11b136ea224fe,,,,,,,,,214,40,57,1,0,0,response1disk,,7,15,8,1,0,0,rectangle,15,8,1,0,0,15,8,1,0,0,0,47,47,136,1,,,,,,,,
,,,,,,,,,,,,,FF,,,,,,,,1.7992,,,,,,,,,,,,,,,,,,,,,,60fb7a9fcbdab69a8f9c9cc2,61036efaf7839d9d6cf5905f,2021-07-29_22h17.12.694,Simcolourproject_2stim_asymm_v5,2020.2.10,Win32,60,61025ae37ef11b136ea224fe,,,,,,,,,248,79,-58,1,0,0,response3disk,,5,-9,3,1,0,0,rectangle,-9,3,1,0,0,-9,3,1,0,0,0,48,48,94,1,,,,,,,,
,,,,,,,,,,,,,FF,,,,,,,,2.4234,,,,,,,,,,,,,,,,,,,,,,60fb7a9fcbdab69a8f9c9cc2,61036efaf7839d9d6cf5905f,2021-07-29_22h17.12.694,Simcolourproject_2stim_asymm_v5,2020.2.10,Win32,60,61025ae37ef11b136ea224fe,,,,,,,,,4116,90,41,1,0,0,response1disk,,6,-5,-9,1,0,0,rectangle,-5,-9,1,0,0,-5,-9,1,0,0,0,49,49,125,1,,,,,,,,
,,,,,,,,,,,,,FF,,,,,,,,4.7185,,,,,,,,,,,,,,,,,,,,,,60fb7a9fcbdab69a8f9c9cc2,61036efaf7839d9d6cf5905f,2021-07-29_22h17.12.694,Simcolourproject_2stim_asymm_v5,2020.2.10,Win32,60,61025ae37ef11b136ea224fe,,,,,,,,,3118,74,-19,1,0,0,response3disk,,5,6,8,1,0,0,rectangle,6,8,1,0,0,6,8,1,0,0,0,50,50,24,1,,,,,,,,
,,,,,,,,,,,,,FF,,,,,,,,1.2209,,,,,,,,,,,,,,,,,,,,,,60fb7a9fcbdab69a8f9c9cc2,61036efaf7839d9d6cf5905f,2021-07-29_22h17.12.694,Simcolourproject_2stim_asymm_v5,2020.2.10,Win32,60,61025ae37ef11b136ea224fe,,,,,,,,,601,71,32,1,0,0,response1disk,,6,12,-7,1,0,0,rectangle,37,-94,1,0,0,-4,9,1,0,0,0,51,51,25,1,,response3disk_3,TRUE,4,4,"[177,141,226,10,134,294,93,162,223,52,220,177,310,88,143,317,260,234,89,33]",2.2999,rectangle
,,,,,,,,,,,,,FF,,,,,,,,3.0476,,,,,,,,,,,,,,,,,,,,,,60fb7a9fcbdab69a8f9c9cc2,61036efaf7839d9d6cf5905f,2021-07-29_22h17.12.694,Simcolourproject_2stim_asymm_v5,2020.2.10,Win32,60,61025ae37ef11b136ea224fe,,,,,,,,,2915,78,34,1,0,0,response1disk,,6,3,-3,1,0,0,rectangle,3,-3,1,0,0,3,-3,1,0,0,0,52,52,147,1,,,,,,,,
,,,,,,,,,,,,,FF,,,,,,,,2.4959,,,,,,,,,,,,,,,,,,,,,,60fb7a9fcbdab69a8f9c9cc2,61036efaf7839d9d6cf5905f,2021-07-29_22h17.12.694,Simcolourproject_2stim_asymm_v5,2020.2.10,Win32,60,61025ae37ef11b136ea224fe,,,,,,,,,2295,54,-86,1,0,0,response3disk,,4,-5,11,1,0,0,rectangle,-5,11,1,0,0,-5,11,1,0,0,0,53,53,138,1,,,,,,,,
,,,,,,,,,,,,,FF,,,,,,,,1.7918,,,,,,,,,,,,,,,,,,,,,,60fb7a9fcbdab69a8f9c9cc2,61036efaf7839d9d6cf5905f,2021-07-29_22h17.12.694,Simcolourproject_2stim_asymm_v5,2020.2.10,Win32,60,61025ae37ef11b136ea224fe,,,,,,,,,1747,53,-73,1,0,0,response3disk,,4,-3,7,1,0,0,rectangle,-3,7,1,0,0,-3,7,1,0,0,0,54,54,127,1,,,,,,,,
,,,,,,,,,,,,,FF,,,,,,,,1.5988,,,,,,,,,,,,,,,,,,,,,,60fb7a9fcbdab69a8f9c9cc2,61036efaf7839d9d6cf5905f,2021-07-29_22h17.12.694,Simcolourproject_2stim_asymm_v5,2020.2.10,Win32,60,61025ae37ef11b136ea224fe,,,,,,,,,2408,84,40,1,0,0,response1disk,,6,19,5,1,0,0,rectangle,19,5,1,0,0,19,5,1,0,0,0,55,55,142,1,,,,,,,,
,,,,,,,,,,,,,FF,,,,,,,,2.2237,,,,,,,,,,,,,,,,,,,,,,60fb7a9fcbdab69a8f9c9cc2,61036efaf7839d9d6cf5905f,2021-07-29_22h17.12.694,Simcolourproject_2stim_asymm_v5,2020.2.10,Win32,60,61025ae37ef11b136ea224fe,,,,,,,,,2909,80,-24,1,0,0,response3disk,,5,-10,2,1,0,0,rectangle,-10,2,1,0,0,-10,2,1,0,0,0,56,56,89,1,,,,,,,,
,,,,,,,,,,,,,FF,,,,,,,,2.1982,,,,,,,,,,,,,,,,,,,,,,60fb7a9fcbdab69a8f9c9cc2,61036efaf7839d9d6cf5905f,2021-07-29_22h17.12.694,Simcolourproject_2stim_asymm_v5,2020.2.10,Win32,60,61025ae37ef11b136ea224fe,,,,,,,,,1380,51,-74,1,0,0,response3disk,,4,8,-2,1,0,0,rectangle,8,-2,1,0,0,8,-2,1,0,0,0,57,57,17,1,,,,,,,,
,,,,,,,,,,,,,FF,,,,,,,,3.2014,,,,,,,,,,,,,,,,,,,,,,60fb7a9fcbdab69a8f9c9cc2,61036efaf7839d9d6cf5905f,2021-07-29_22h17.12.694,Simcolourproject_2stim_asymm_v5,2020.2.10,Win32,60,61025ae37ef11b136ea224fe,,,,,,,,,438,60,-74,1,0,0,response3disk,,4,4,1,1,0,0,rectangle,4,1,1,0,0,4,1,1,0,0,0,58,58,34,1,,,,,,,,
,,,,,,,,,,,,,FF,,,,,,,,1.3984,,,,,,,,,,,,,,,,,,,,,,60fb7a9fcbdab69a8f9c9cc2,61036efaf7839d9d6cf5905f,2021-07-29_22h17.12.694,Simcolourproject_2stim_asymm_v5,2020.2.10,Win32,60,61025ae37ef11b136ea224fe,,,,,,,,,2493,102,71,1,0,0,response1disk,,6,11,5,1,0,0,rectangle,11,5,1,0,0,11,5,1,0,0,0,59,59,156,1,,,,,,,,
,,,,,,,,,,,,,FF,,,,,,,,2.2401,,,,,,,,,,,,,,,,,,,,,,60fb7a9fcbdab69a8f9c9cc2,61036efaf7839d9d6cf5905f,2021-07-29_22h17.12.694,Simcolourproject_2stim_asymm_v5,2020.2.10,Win32,60,61025ae37ef11b136ea224fe,,,,,,,,,1865,29,77,1,0,0,response1disk,,7,-8,0,1,0,0,rectangle,-8,0,1,0,0,-8,0,1,0,0,0,60,60,70,1,,,,,,,,
,,,,,,,,,,,,,FF,,,,,,,,1.3497,,,,,,,,,,,,,,,,,,,,,,60fb7a9fcbdab69a8f9c9cc2,61036efaf7839d9d6cf5905f,2021-07-29_22h17.12.694,Simcolourproject_2stim_asymm_v5,2020.2.10,Win32,60,61025ae37ef11b136ea224fe,,,,,,,,,2677,72,-38,1,0,0,response3disk,,5,-1,-1,1,0,0,rectangle,-1,-1,1,0,0,-1,-1,1,0,0,0,61,61,46,1,,,,,,,,
,,,,,,,,,,,,,FF,,,,,,,,1.6245,,,,,,,,,,,,,,,,,,,,,,60fb7a9fcbdab69a8f9c9cc2,61036efaf7839d9d6cf5905f,2021-07-29_22h17.12.694,Simcolourproject_2stim_asymm_v5,2020.2.10,Win32,60,61025ae37ef11b136ea224fe,,,,,,,,,979,68,-40,1,0,0,response3disk,,5,-7,1,1,0,0,rectangle,-7,1,1,0,0,-7,1,1,0,0,0,62,62,5,1,,,,,,,,
,,,,,,,,,,,,,FF,,,,,,,,1.8515,,,,,,,,,,,,,,,,,,,,,,60fb7a9fcbdab69a8f9c9cc2,61036efaf7839d9d6cf5905f,2021-07-29_22h17.12.694,Simcolourproject_2stim_asymm_v5,2020.2.10,Win32,60,61025ae37ef11b136ea224fe,,,,,,,,,4338,52,-89,1,0,0,response3disk,,4,21,4,1,0,0,rectangle,21,4,1,0,0,21,4,1,0,0,0,63,63,9,1,,,,,,,,
,,,,,,,,,,,,,FF,,,,,,,,2.673,,,,,,,,,,,,,,,,,,,,,,60fb7a9fcbdab69a8f9c9cc2,61036efaf7839d9d6cf5905f,2021-07-29_22h17.12.694,Simcolourproject_2stim_asymm_v5,2020.2.10,Win32,60,61025ae37ef11b136ea224fe,,,,,,,,,1200,31,-84,1,0,0,response3disk,,4,2,-7,1,0,0,rectangle,2,-7,1,0,0,2,-7,1,0,0,0,64,64,105,1,,,,,,,,
,,,,,,,,,,,,,FF,,,,,,,,1.475,,,,,,,,,,,,,,,,,,,,,,60fb7a9fcbdab69a8f9c9cc2,61036efaf7839d9d6cf5905f,2021-07-29_22h17.12.694,Simcolourproject_2stim_asymm_v5,2020.2.10,Win32,60,61025ae37ef11b136ea224fe,,,,,,,,,2590,103,40,1,0,0,response1disk,,6,23,6,1,0,0,rectangle,23,6,1,0,0,23,6,1,0,0,0,65,65,158,1,,,,,,,,
,,,,,,,,,,,,,FF,,,,,,,,1.8491,,,,,,,,,,,,,,,,,,,,,,60fb7a9fcbdab69a8f9c9cc2,61036efaf7839d9d6cf5905f,2021-07-29_22h17.12.694,Simcolourproject_2stim_asymm_v5,2020.2.10,Win32,60,61025ae37ef11b136ea224fe,,,,,,,,,3627,30,-76,1,0,0,response3disk,,4,-6,11,1,0,0,rectangle,-6,11,1,0,0,-6,11,1,0,0,0,66,66,129,1,,,,,,,,
,,,,,,,,,,,,,FF,,,,,,,,2.3982,,,,,,,,,,,,,,,,,,,,,,60fb7a9fcbdab69a8f9c9cc2,61036efaf7839d9d6cf5905f,2021-07-29_22h17.12.694,Simcolourproject_2stim_asymm_v5,2020.2.10,Win32,60,61025ae37ef11b136ea224fe,,,,,,,,,405,97,47,1,0,0,response1disk,,6,16,3,1,0,0,rectangle,16,3,1,0,0,16,3,1,0,0,0,67,67,22,1,,,,,,,,
,,,,,,,,,,,,,FF,,,,,,,,2.2021,,,,,,,,,,,,,,,,,,,,,,60fb7a9fcbdab69a8f9c9cc2,61036efaf7839d9d6cf5905f,2021-07-29_22h17.12.694,Simcolourproject_2stim_asymm_v5,2020.2.10,Win32,60,61025ae37ef11b136ea224fe,,,,,,,,,1472,90,-57,1,0,0,response3disk,,5,17,6,1,0,0,rectangle,17,6,1,0,0,17,6,1,0,0,0,68,68,139,1,,,,,,,,
,,,,,,,,,,,,,FF,,,,,,,,2.1271,,,,,,,,,,,,,,,,,,,,,,60fb7a9fcbdab69a8f9c9cc2,61036efaf7839d9d6cf5905f,2021-07-29_22h17.12.694,Simcolourproject_2stim_asymm_v5,2020.2.10,Win32,60,61025ae37ef11b136ea224fe,,,,,,,,,4124,84,24,1,0,0,response1disk,,6,3,-6,1,0,0,rectangle,3,-6,1,0,0,3,-6,1,0,0,0,69,69,109,1,,,,,,,,
,,,,,,,,,,,,,FF,,,,,,,,1.7241,,,,,,,,,,,,,,,,,,,,,,60fb7a9fcbdab69a8f9c9cc2,61036efaf7839d9d6cf5905f,2021-07-29_22h17.12.694,Simcolourproject_2stim_asymm_v5,2020.2.10,Win32,60,61025ae37ef11b136ea224fe,,,,,,,,,1850,42,95,1,0,0,response1disk,,7,-4,3,1,0,0,rectangle,-4,3,1,0,0,-4,3,1,0,0,0,70,70,119,1,,,,,,,,
,,,,,,,,,,,,,FF,,,,,,,,4.0998,,,,,,,,,,,,,,,,,,,,,,60fb7a9fcbdab69a8f9c9cc2,61036efaf7839d9d6cf5905f,2021-07-29_22h17.12.694,Simcolourproject_2stim_asymm_v5,2020.2.10,Win32,60,61025ae37ef11b136ea224fe,,,,,,,,,2069,90,32,1,0,0,response1disk,,6,-2,0,1,0,0,rectangle,-2,0,1,0,0,-2,0,1,0,0,0,71,71,26,1,,,,,,,,
,,,,,,,,,,,,,FF,,,,,,,,2.3231,,,,,,,,,,,,,,,,,,,,,,60fb7a9fcbdab69a8f9c9cc2,61036efaf7839d9d6cf5905f,2021-07-29_22h17.12.694,Simcolourproject_2stim_asymm_v5,2020.2.10,Win32,60,61025ae37ef11b136ea224fe,,,,,,,,,3589,82,-33,1,0,0,response3disk,,5,-9,3,1,0,0,rectangle,-9,3,1,0,0,-9,3,1,0,0,0,72,72,7,1,,,,,,,,
,,,,,,,,,,,,,FF,,,,,,,,3.3965,,,,,,,,,,,,,,,,,,,,,,60fb7a9fcbdab69a8f9c9cc2,61036efaf7839d9d6cf5905f,2021-07-29_22h17.12.694,Simcolourproject_2stim_asymm_v5,2020.2.10,Win32,60,61025ae37ef11b136ea224fe,,,,,,,,,1285,52,-76,1,0,0,response3disk,,4,1,3,1,0,0,rectangle,1,3,1,0,0,1,3,1,0,0,0,73,73,44,1,,,,,,,,
,,,,,,,,,,,,,FF,,,,,,,,1.7244,,,,,,,,,,,,,,,,,,,,,,60fb7a9fcbdab69a8f9c9cc2,61036efaf7839d9d6cf5905f,2021-07-29_22h17.12.694,Simcolourproject_2stim_asymm_v5,2020.2.10,Win32,60,61025ae37ef11b136ea224fe,,,,,,,,,1522,-40,-87,1,0,0,response5disk,,3,2,5,1,0,0,rectangle,2,5,1,0,0,2,5,1,0,0,0,74,74,137,1,,,,,,,,
,,,,,,,,,,,,,FF,,,,,,,,2.8214,,,,,,,,,,,,,,,,,,,,,,60fb7a9fcbdab69a8f9c9cc2,61036efaf7839d9d6cf5905f,2021-07-29_22h17.12.694,Simcolourproject_2stim_asymm_v5,2020.2.10,Win32,60,61025ae37ef11b136ea224fe,,,,,,,,,1408,93,30,1,0,0,response1disk,,6,5,-5,1,0,0,rectangle,5,-5,1,0,0,5,-5,1,0,0,0,75,75,84,1,,,,,,,,
,,,,,,,,,,,,,FF,,,,,,,,1.399,,,,,,,,,,,,,,,,,,,,,,60fb7a9fcbdab69a8f9c9cc2,61036efaf7839d9d6cf5905f,2021-07-29_22h17.12.694,Simcolourproject_2stim_asymm_v5,2020.2.10,Win32,60,61025ae37ef11b136ea224fe,,,,,,,,,3728,34,89,1,0,0,response1disk,,7,-4,-1,1,0,0,rectangle,-4,-1,1,0,0,-4,-1,1,0,0,0,76,76,59,1,,,,,,,,
,,,,,,,,,,,,,FF,,,,,,,,1.1766,,,,,,,,,,,,,,,,,,,,,,60fb7a9fcbdab69a8f9c9cc2,61036efaf7839d9d6cf5905f,2021-07-29_22h17.12.694,Simcolourproject_2stim_asymm_v5,2020.2.10,Win32,60,61025ae37ef11b136ea224fe,,,,,,,,,495,27,51,1,0,0,response1disk,,7,10,10,1,0,0,rectangle,10,10,1,0,0,10,10,1,0,0,0,77,77,148,1,,,,,,,,
,,,,,,,,,,,,,FF,,,,,,,,1.098,,,,,,,,,,,,,,,,,,,,,,60fb7a9fcbdab69a8f9c9cc2,61036efaf7839d9d6cf5905f,2021-07-29_22h17.12.694,Simcolourproject_2stim_asymm_v5,2020.2.10,Win32,60,61025ae37ef11b136ea224fe,,,,,,,,,25,36,73,1,0,0,response1disk,,7,-2,5,1,0,0,rectangle,-2,5,1,0,0,-2,5,1,0,0,0,78,78,134,1,,,,,,,,
,,,,,,,,,,,,,FF,,,,,,,,1.4246,,,,,,,,,,,,,,,,,,,,,,60fb7a9fcbdab69a8f9c9cc2,61036efaf7839d9d6cf5905f,2021-07-29_22h17.12.694,Simcolourproject_2stim_asymm_v5,2020.2.10,Win32,60,61025ae37ef11b136ea224fe,,,,,,,,,1007,62,29,1,0,0,response1disk,,6,16,3,1,0,0,rectangle,16,3,1,0,0,16,3,1,0,0,0,79,79,68,1,,,,,,,,
,,,,,,,,,,,,,FF,,,,,,,,1.1229,,,,,,,,,,,,,,,,,,,,,,60fb7a9fcbdab69a8f9c9cc2,61036efaf7839d9d6cf5905f,2021-07-29_22h17.12.694,Simcolourproject_2stim_asymm_v5,2020.2.10,Win32,60,61025ae37ef11b136ea224fe,,,,,,,,,2024,16,64,1,0,0,response1disk,,7,-3,6,1,0,0,rectangle,-3,6,1,0,0,-3,6,1,0,0,0,80,80,113,1,,,,,,,,
,,,,,,,,,,,,,FF,,,,,,,,1.4241,,,,,,,,,,,,,,,,,,,,,,60fb7a9fcbdab69a8f9c9cc2,61036efaf7839d9d6cf5905f,2021-07-29_22h17.12.694,Simcolourproject_2stim_asymm_v5,2020.2.10,Win32,60,61025ae37ef11b136ea224fe,,,,,,,,,2384,31,77,1,0,0,response1disk,,7,-2,-2,1,0,0,rectangle,-2,-2,1,0,0,-2,-2,1,0,0,0,81,81,123,1,,,,,,,,
,,,,,,,,,,,,,FF,,,,,,,,2.1201,,,,,,,,,,,,,,,,,,,,,,60fb7a9fcbdab69a8f9c9cc2,61036efaf7839d9d6cf5905f,2021-07-29_22h17.12.694,Simcolourproject_2stim_asymm_v5,2020.2.10,Win32,60,61025ae37ef11b136ea224fe,,,,,,,,,3947,78,-47,1,0,0,response3disk,,5,9,-4,1,0,0,rectangle,9,-4,1,0,0,9,-4,1,0,0,0,82,82,78,1,,,,,,,,
,,,,,,,,,,,,,FF,,,,,,,,1.1494,,,,,,,,,,,,,,,,,,,,,,60fb7a9fcbdab69a8f9c9cc2,61036efaf7839d9d6cf5905f,2021-07-29_22h17.12.694,Simcolourproject_2stim_asymm_v5,2020.2.10,Win32,60,61025ae37ef11b136ea224fe,,,,,,,,,571,80,-37,1,0,0,response3disk,,5,-1,-2,1,0,0,rectangle,-1,-2,1,0,0,-1,-2,1,0,0,0,83,83,74,1,,,,,,,,
,,,,,,,,,,,,,FF,,,,,,,,1.0745,,,,,,,,,,,,,,,,,,,,,,60fb7a9fcbdab69a8f9c9cc2,61036efaf7839d9d6cf5905f,2021-07-29_22h17.12.694,Simcolourproject_2stim_asymm_v5,2020.2.10,Win32,60,61025ae37ef11b136ea224fe,,,,,,,,,2085,28,-74,1,0,0,response3disk,,4,-7,-4,1,0,0,rectangle,-7,-4,1,0,0,-7,-4,1,0,0,0,84,84,100,1,,,,,,,,
,,,,,,,,,,,,,FF,,,,,,,,1.0747,,,,,,,,,,,,,,,,,,,,,,60fb7a9fcbdab69a8f9c9cc2,61036efaf7839d9d6cf5905f,2021-07-29_22h17.12.694,Simcolourproject_2stim_asymm_v5,2020.2.10,Win32,60,61025ae37ef11b136ea224fe,,,,,,,,,2566,88,-58,1,0,0,response3disk,,5,-13,15,1,0,0,rectangle,-13,15,1,0,0,-13,15,1,0,0,0,85,85,88,1,,,,,,,,
,,,,,,,,,,,,,FF,,,,,,,,1.9738,,,,,,,,,,,,,,,,,,,,,,60fb7a9fcbdab69a8f9c9cc2,61036efaf7839d9d6cf5905f,2021-07-29_22h17.12.694,Simcolourproject_2stim_asymm_v5,2020.2.10,Win32,60,61025ae37ef11b136ea224fe,,,,,,,,,4002,71,-42,1,0,0,response3disk,,5,11,-7,1,0,0,rectangle,11,-7,1,0,0,11,-7,1,0,0,0,86,86,101,1,,,,,,,,
,,,,,,,,,,,,,FF,,,,,,,,1.0033,,,,,,,,,,,,,,,,,,,,,,60fb7a9fcbdab69a8f9c9cc2,61036efaf7839d9d6cf5905f,2021-07-29_22h17.12.694,Simcolourproject_2stim_asymm_v5,2020.2.10,Win32,60,61025ae37ef11b136ea224fe,,,,,,,,,336,32,-69,1,0,0,response3disk,,4,-5,-5,1,0,0,rectangle,46,-80,1,0,0,0,-4,1,0,0,0,87,87,135,1,,response3disk_3,TRUE,4,4,"[177,141,226,10,134,294,93,162,223,52,220,177,310,88,143,317,260,234,89,33]",1.6247,rectangle
,,,,,,,,,,,,,FF,,,,,,,,1.0749,,,,,,,,,,,,,,,,,,,,,,60fb7a9fcbdab69a8f9c9cc2,61036efaf7839d9d6cf5905f,2021-07-29_22h17.12.694,Simcolourproject_2stim_asymm_v5,2020.2.10,Win32,60,61025ae37ef11b136ea224fe,,,,,,,,,3926,23,-95,1,0,0,response3disk,,4,-15,8,1,0,0,rectangle,53,100,1,0,0,0,11,1,0,0,0,88,88,90,1,,response1disk_3,TRUE,7,7,"[177,141,226,10,134,294,93,162,223,52,220,177,310,88,143,317,260,234,89,33]",3.1711,rectangle
,,,,,,,,,,,,,FF,,,,,,,,3.4737,,,,,,,,,,,,,,,,,,,,,,60fb7a9fcbdab69a8f9c9cc2,61036efaf7839d9d6cf5905f,2021-07-29_22h17.12.694,Simcolourproject_2stim_asymm_v5,2020.2.10,Win32,60,61025ae37ef11b136ea224fe,,,,,,,,,1347,76,27,1,0,0,response1disk,,6,8,0,1,0,0,rectangle,8,0,1,0,0,8,0,1,0,0,0,89,89,98,1,,,,,,,,
,,,,,,,,,,,,,FF,,,,,,,,1.9735,,,,,,,,,,,,,,,,,,,,,,60fb7a9fcbdab69a8f9c9cc2,61036efaf7839d9d6cf5905f,2021-07-29_22h17.12.694,Simcolourproject_2stim_asymm_v5,2020.2.10,Win32,60,61025ae37ef11b136ea224fe,,,,,,,,,325,79,43,1,0,0,response1disk,,6,7,8,1,0,0,rectangle,7,8,1,0,0,7,8,1,0,0,0,90,90,8,1,,,,,,,,
,,,,,,,,,,,,,FF,,,,,,,,2.2474,,,,,,,,,,,,,,,,,,,,,,60fb7a9fcbdab69a8f9c9cc2,61036efaf7839d9d6cf5905f,2021-07-29_22h17.12.694,Simcolourproject_2stim_asymm_v5,2020.2.10,Win32,60,61025ae37ef11b136ea224fe,,,,,,,,,647,60,26,1,0,0,response1disk,,6,-5,-5,1,0,0,rectangle,-5,-5,1,0,0,-5,-5,1,0,0,0,91,91,79,1,,,,,,,,
,,,,,,,,,,,,,FF,,,,,,,,2.3006,,,,,,,,,,,,,,,,,,,,,,60fb7a9fcbdab69a8f9c9cc2,61036efaf7839d9d6cf5905f,2021-07-29_22h17.12.694,Simcolourproject_2stim_asymm_v5,2020.2.10,Win32,60,61025ae37ef11b136ea224fe,,,,,,,,,2591,31,85,1,0,0,response1disk,,7,16,6,1,0,0,rectangle,-40,-104,1,0,0,7,9,1,0,0,0,92,92,132,1,,response5disk_3,TRUE,3,3,"[177,141,226,10,134,294,93,162,223,52,220,177,310,88,143,317,260,234,89,33]",2.3726,rectangle
,,,,,,,,,,,,,FF,,,,,,,,2.2734,,,,,,,,,,,,,,,,,,,,,,60fb7a9fcbdab69a8f9c9cc2,61036efaf7839d9d6cf5905f,2021-07-29_22h17.12.694,Simcolourproject_2stim_asymm_v5,2020.2.10,Win32,60,61025ae37ef11b136ea224fe,,,,,,,,,2690,52,20,1,0,0,response1disk,,6,12,13,1,0,0,rectangle,12,13,1,0,0,12,13,1,0,0,0,93,93,110,1,,,,,,,,
,,,,,,,,,,,,,FF,,,,,,,,1.3758,,,,,,,,,,,,,,,,,,,,,,60fb7a9fcbdab69a8f9c9cc2,61036efaf7839d9d6cf5905f,2021-07-29_22h17.12.694,Simcolourproject_2stim_asymm_v5,2020.2.10,Win32,60,61025ae37ef11b136ea224fe,,,,,,,,,1940,76,22,1,0,0,response1disk,,6,7,-7,1,0,0,rectangle,7,-7,1,0,0,7,-7,1,0,0,0,94,94,102,1,,,,,,,,
,,,,,,,,,,,,,FF,,,,,,,,2.3733,,,,,,,,,,,,,,,,,,,,,,60fb7a9fcbdab69a8f9c9cc2,61036efaf7839d9d6cf5905f,2021-07-29_22h17.12.694,Simcolourproject_2stim_asymm_v5,2020.2.10,Win32,60,61025ae37ef11b136ea224fe,,,,,,,,,3518,-45,-79,1,0,0,response5disk,,3,3,-1,1,0,0,rectangle,3,-1,1,0,0,3,-1,1,0,0,0,95,95,106,1,,,,,,,,
,,,,,,,,,,,,,FF,,,,,,,,3.5486,,,,,,,,,,,,,,,,,,,,,,60fb7a9fcbdab69a8f9c9cc2,61036efaf7839d9d6cf5905f,2021-07-29_22h17.12.694,Simcolourproject_2stim_asymm_v5,2020.2.10,Win32,60,61025ae37ef11b136ea224fe,,,,,,,,,1378,-46,-78,1,0,0,response5disk,,3,-9,-4,1,0,0,rectangle,-9,-4,1,0,0,-9,-4,1,0,0,0,96,96,64,1,,,,,,,,
,,,,,,,,,,,,,FF,,,,,,,,2.2755,,,,,,,,,,,,,,,,,,,,,,60fb7a9fcbdab69a8f9c9cc2,61036efaf7839d9d6cf5905f,2021-07-29_22h17.12.694,Simcolourproject_2stim_asymm_v5,2020.2.10,Win32,60,61025ae37ef11b136ea224fe,,,,,,,,,2700,80,41,1,0,0,response1disk,,6,-7,3,1,0,0,rectangle,-7,3,1,0,0,-7,3,1,0,0,0,97,97,82,1,,,,,,,,
,,,,,,,,,,,,,FF,,,,,,,,1.3488,,,,,,,,,,,,,,,,,,,,,,60fb7a9fcbdab69a8f9c9cc2,61036efaf7839d9d6cf5905f,2021-07-29_22h17.12.694,Simcolourproject_2stim_asymm_v5,2020.2.10,Win32,60,61025ae37ef11b136ea224fe,,,,,,,,,2097,-34,-72,1,0,0,response5disk,,3,-6,-1,1,0,0,rectangle,-6,-1,1,0,0,-6,-1,1,0,0,0,98,98,55,1,,,,,,,,
,,,,,,,,,,,,,FF,,,,,,,,0.9504,,,,,,,,,,,,,,,,,,,,,,60fb7a9fcbdab69a8f9c9cc2,61036efaf7839d9d6cf5905f,2021-07-29_22h17.12.694,Simcolourproject_2stim_asymm_v5,2020.2.10,Win32,60,61025ae37ef11b136ea224fe,,,,,,,,,2424,-34,-58,1,0,0,response5disk,,3,-8,-7,1,0,0,rectangle,-8,-7,1,0,0,-8,-7,1,0,0,0,99,99,51,1,,,,,,,,
,,,,,,,,,,,,,FF,,,,,,,,1.2976,,,,,,,,,,,,,,,,,,,,,,60fb7a9fcbdab69a8f9c9cc2,61036efaf7839d9d6cf5905f,2021-07-29_22h17.12.694,Simcolourproject_2stim_asymm_v5,2020.2.10,Win32,60,61025ae37ef11b136ea224fe,,,,,,,,,2510,100,16,1,0,0,response1disk,,6,8,11,1,0,0,rectangle,8,11,1,0,0,8,11,1,0,0,0,100,100,53,1,,,,,,,,
,,,,,,,,,,,,,FF,,,,,,,,1.7707,,,,,,,,,,,,,,,,,,,,,,60fb7a9fcbdab69a8f9c9cc2,61036efaf7839d9d6cf5905f,2021-07-29_22h17.12.694,Simcolourproject_2stim_asymm_v5,2020.2.10,Win32,60,61025ae37ef11b136ea224fe,,,,,,,,,3805,43,107,1,0,0,response1disk,,7,12,-5,1,0,0,rectangle,12,-5,1,0,0,12,-5,1,0,0,0,101,101,116,1,,,,,,,,
,,,,,,,,,,,,,FF,,,,,,,,6.1197,,,,,,,,,,,,,,,,,,,,,,60fb7a9fcbdab69a8f9c9cc2,61036efaf7839d9d6cf5905f,2021-07-29_22h17.12.694,Simcolourproject_2stim_asymm_v5,2020.2.10,Win32,60,61025ae37ef11b136ea224fe,,,,,,,,,1510,76,27,1,0,0,response1disk,,6,4,0,1,0,0,rectangle,4,0,1,0,0,4,0,1,0,0,0,102,102,20,1,,,,,,,,
,,,,,,,,,,,,,FF,,,,,,,,3.9726,,,,,,,,,,,,,,,,,,,,,,60fb7a9fcbdab69a8f9c9cc2,61036efaf7839d9d6cf5905f,2021-07-29_22h17.12.694,Simcolourproject_2stim_asymm_v5,2020.2.10,Win32,60,61025ae37ef11b136ea224fe,,,,,,,,,1785,81,39,1,0,0,response1disk,,6,-6,1,1,0,0,rectangle,-6,1,1,0,0,-6,1,1,0,0,0,103,103,103,1,,,,,,,,
,,,,,,,,,,,,,FF,,,,,,,,1.2978,,,,,,,,,,,,,,,,,,,,,,60fb7a9fcbdab69a8f9c9cc2,61036efaf7839d9d6cf5905f,2021-07-29_22h17.12.694,Simcolourproject_2stim_asymm_v5,2020.2.10,Win32,60,61025ae37ef11b136ea224fe,,,,,,,,,4231,69,52,1,0,0,response1disk,,6,0,5,1,0,0,rectangle,0,5,1,0,0,0,5,1,0,0,0,104,104,91,1,,,,,,,,
,,,,,,,,,,,,,FF,,,,,,,,1.526,,,,,,,,,,,,,,,,,,,,,,60fb7a9fcbdab69a8f9c9cc2,61036efaf7839d9d6cf5905f,2021-07-29_22h17.12.694,Simcolourproject_2stim_asymm_v5,2020.2.10,Win32,60,61025ae37ef11b136ea224fe,,,,,,,,,3661,24,-78,1,0,0,response3disk,,4,-6,-1,1,0,0,rectangle,-6,-1,1,0,0,-6,-1,1,0,0,0,105,105,93,1,,,,,,,,
,,,,,,,,,,,,,FF,,,,,,,,1.0232,,,,,,,,,,,,,,,,,,,,,,60fb7a9fcbdab69a8f9c9cc2,61036efaf7839d9d6cf5905f,2021-07-29_22h17.12.694,Simcolourproject_2stim_asymm_v5,2020.2.10,Win32,60,61025ae37ef11b136ea224fe,,,,,,,,,2365,-38,-63,1,0,0,response5disk,,3,-8,-1,1,0,0,rectangle,-8,-1,1,0,0,-8,-1,1,0,0,0,106,106,47,1,,,,,,,,
,,,,,,,,,,,,,FF,,,,,,,,3.9486,,,,,,,,,,,,,,,,,,,,,,60fb7a9fcbdab69a8f9c9cc2,61036efaf7839d9d6cf5905f,2021-07-29_22h17.12.694,Simcolourproject_2stim_asymm_v5,2020.2.10,Win32,60,61025ae37ef11b136ea224fe,,,,,,,,,1638,84,32,1,0,0,response1disk,,6,14,1,1,0,0,rectangle,14,1,1,0,0,14,1,1,0,0,0,107,107,10,1,,,,,,,,
,,,,,,,,,,,,,FF,,,,,,,,1.8684,,,,,,,,,,,,,,,,,,,,,,60fb7a9fcbdab69a8f9c9cc2,61036efaf7839d9d6cf5905f,2021-07-29_22h17.12.694,Simcolourproject_2stim_asymm_v5,2020.2.10,Win32,60,61025ae37ef11b136ea224fe,,,,,,,,,3890,33,60,1,0,0,response1disk,,7,8,3,1,0,0,rectangle,8,3,1,0,0,8,3,1,0,0,0,108,108,43,1,,,,,,,,
,,,,,,,,,,,,,FF,,,,,,,,1.6025,,,,,,,,,,,,,,,,,,,,,,60fb7a9fcbdab69a8f9c9cc2,61036efaf7839d9d6cf5905f,2021-07-29_22h17.12.694,Simcolourproject_2stim_asymm_v5,2020.2.10,Win32,60,61025ae37ef11b136ea224fe,,,,,,,,,505,31,97,1,0,0,response1disk,,7,-1,-7,1,0,0,rectangle,-1,-7,1,0,0,-1,-7,1,0,0,0,109,109,27,1,,,,,,,,
,,,,,,,,,,,,,FF,,,,,,,,1.3288,,,,,,,,,,,,,,,,,,,,,,60fb7a9fcbdab69a8f9c9cc2,61036efaf7839d9d6cf5905f,2021-07-29_22h17.12.694,Simcolourproject_2stim_asymm_v5,2020.2.10,Win32,60,61025ae37ef11b136ea224fe,,,,,,,,,303,21,82,1,0,0,response1disk,,7,-1,9,1,0,0,rectangle,-1,9,1,0,0,-1,9,1,0,0,0,110,110,143,1,,,,,,,,
,,,,,,,,,,,,,FF,,,,,,,,2.351,,,,,,,,,,,,,,,,,,,,,,60fb7a9fcbdab69a8f9c9cc2,61036efaf7839d9d6cf5905f,2021-07-29_22h17.12.694,Simcolourproject_2stim_asymm_v5,2020.2.10,Win32,60,61025ae37ef11b136ea224fe,,,,,,,,,3161,27,61,1,0,0,response1disk,,7,-1,4,1,0,0,rectangle,-1,4,1,0,0,-1,4,1,0,0,0,111,111,118,1,,,,,,,,
,,,,,,,,,,,,,FF,,,,,,,,1.3005,,,,,,,,,,,,,,,,,,,,,,60fb7a9fcbdab69a8f9c9cc2,61036efaf7839d9d6cf5905f,2021-07-29_22h17.12.694,Simcolourproject_2stim_asymm_v5,2020.2.10,Win32,60,61025ae37ef11b136ea224fe,,,,,,,,,3243,-84,-39,1,0,0,response5disk,,2,-1,6,1,0,0,rectangle,-1,6,1,0,0,-1,6,1,0,0,0,112,112,58,1,,,,,,,,
,,,,,,,,,,,,,FF,,,,,,,,1.1994,,,,,,,,,,,,,,,,,,,,,,60fb7a9fcbdab69a8f9c9cc2,61036efaf7839d9d6cf5905f,2021-07-29_22h17.12.694,Simcolourproject_2stim_asymm_v5,2020.2.10,Win32,60,61025ae37ef11b136ea224fe,,,,,,,,,463,-71,-25,1,0,0,response5disk,,2,-26,-4,1,0,0,rectangle,-26,-4,1,0,0,-26,-4,1,0,0,0,113,113,54,1,,,,,,,,
,,,,,,,,,,,,,FF,,,,,,,,2.4229,,,,,,,,,,,,,,,,,,,,,,60fb7a9fcbdab69a8f9c9cc2,61036efaf7839d9d6cf5905f,2021-07-29_22h17.12.694,Simcolourproject_2stim_asymm_v5,2020.2.10,Win32,60,61025ae37ef11b136ea224fe,,,,,,,,,1574,88,-18,1,0,0,response3disk,,5,26,-9,1,0,0,rectangle,26,-9,1,0,0,26,-9,1,0,0,0,114,114,52,1,,,,,,,,
,,,,,,,,,,,,,FF,,,,,,,,1.801,,,,,,,,,,,,,,,,,,,,,,60fb7a9fcbdab69a8f9c9cc2,61036efaf7839d9d6cf5905f,2021-07-29_22h17.12.694,Simcolourproject_2stim_asymm_v5,2020.2.10,Win32,60,61025ae37ef11b136ea224fe,,,,,,,,,1645,60,27,1,0,0,response1disk,,6,29,10,1,0,0,rectangle,29,10,1,0,0,29,10,1,0,0,0,115,115,141,1,,,,,,,,
,,,,,,,,,,,,,FF,,,,,,,,2.4267,,,,,,,,,,,,,,,,,,,,,,60fb7a9fcbdab69a8f9c9cc2,61036efaf7839d9d6cf5905f,2021-07-29_22h17.12.694,Simcolourproject_2stim_asymm_v5,2020.2.10,Win32,60,61025ae37ef11b136ea224fe,,,,,,,,,127,70,42,1,0,0,response1disk,,6,18,1,1,0,0,rectangle,18,1,1,0,0,18,1,1,0,0,0,116,116,95,1,,,,,,,,
,,,,,,,,,,,,,FF,,,,,,,,1.7754,,,,,,,,,,,,,,,,,,,,,,60fb7a9fcbdab69a8f9c9cc2,61036efaf7839d9d6cf5905f,2021-07-29_22h17.12.694,Simcolourproject_2stim_asymm_v5,2020.2.10,Win32,60,61025ae37ef11b136ea224fe,,,,,,,,,1610,-29,-60,1,0,0,response5disk,,3,-6,12,1,0,0,rectangle,-6,12,1,0,0,-6,12,1,0,0,0,117,117,71,1,,,,,,,,
,,,,,,,,,,,,,FF,,,,,,,,1.8782,,,,,,,,,,,,,,,,,,,,,,60fb7a9fcbdab69a8f9c9cc2,61036efaf7839d9d6cf5905f,2021-07-29_22h17.12.694,Simcolourproject_2stim_asymm_v5,2020.2.10,Win32,60,61025ae37ef11b136ea224fe,,,,,,,,,167,55,-84,1,0,0,response3disk,,4,12,1,1,0,0,rectangle,12,1,1,0,0,12,1,1,0,0,0,118,118,12,1,,,,,,,,
,,,,,,,,,,,,,FF,,,,,,,,1.6516,,,,,,,,,,,,,,,,,,,,,,60fb7a9fcbdab69a8f9c9cc2,61036efaf7839d9d6cf5905f,2021-07-29_22h17.12.694,Simcolourproject_2stim_asymm_v5,2020.2.10,Win32,60,61025ae37ef11b136ea224fe,,,,,,,,,1051,-43,-69,1,0,0,response5disk,,3,-1,-1,1,0,0,rectangle,-1,-1,1,0,0,-1,-1,1,0,0,0,119,119,48,1,,,,,,,,
,,,,,,,,,,,,,FF,,,,,,,,2.7256,,,,,,,,,,,,,,,,,,,,,,60fb7a9fcbdab69a8f9c9cc2,61036efaf7839d9d6cf5905f,2021-07-29_22h17.12.694,Simcolourproject_2stim_asymm_v5,2020.2.10,Win32,60,61025ae37ef11b136ea224fe,,,,,,,,,3867,40,-73,1,0,0,response3disk,,4,-9,-2,1,0,0,rectangle,-9,-2,1,0,0,-9,-2,1,0,0,0,120,120,115,1,,,,,,,,
,,,,,,,,,,,,,FF,,,,,,,,2.8265,,,,,,,,,,,,,,,,,,,,,,60fb7a9fcbdab69a8f9c9cc2,61036efaf7839d9d6cf5905f,2021-07-29_22h17.12.694,Simcolourproject_2stim_asymm_v5,2020.2.10,Win32,60,61025ae37ef11b136ea224fe,,,,,,,,,770,74,27,1,0,0,response1disk,,6,7,-7,1,0,0,rectangle,7,-7,1,0,0,7,-7,1,0,0,0,121,121,63,1,,,,,,,,
,,,,,,,,,,,,,FF,,,,,,,,1.2521,,,,,,,,,,,,,,,,,,,,,,60fb7a9fcbdab69a8f9c9cc2,61036efaf7839d9d6cf5905f,2021-07-29_22h17.12.694,Simcolourproject_2stim_asymm_v5,2020.2.10,Win32,60,61025ae37ef11b136ea224fe,,,,,,,,,2836,49,-38,1,0,0,response3disk,,5,6,-7,1,0,0,rectangle,6,-7,1,0,0,6,-7,1,0,0,0,122,122,145,1,,,,,,,,
,,,,,,,,,,,,,FF,,,,,,,,2.5976,,,,,,,,,,,,,,,,,,,,,,60fb7a9fcbdab69a8f9c9cc2,61036efaf7839d9d6cf5905f,2021-07-29_22h17.12.694,Simcolourproject_2stim_asymm_v5,2020.2.10,Win32,60,61025ae37ef11b136ea224fe,,,,,,,,,820,62,29,1,0,0,response1disk,,6,-4,-3,1,0,0,rectangle,-4,-3,1,0,0,-4,-3,1,0,0,0,123,123,49,1,,,,,,,,
,,,,,,,,,,,,,FF,,,,,,,,4.3453,,,,,,,,,,,,,,,,,,,,,,60fb7a9fcbdab69a8f9c9cc2,61036efaf7839d9d6cf5905f,2021-07-29_22h17.12.694,Simcolourproject_2stim_asymm_v5,2020.2.10,Win32,60,61025ae37ef11b136ea224fe,,,,,,,,,1293,69,-36,1,0,0,response3disk,,5,7,1,1,0,0,rectangle,7,1,1,0,0,7,1,1,0,0,0,124,124,131,1,,,,,,,,
,,,,,,,,,,,,,FF,,,,,,,,1.4238,,,,,,,,,,,,,,,,,,,,,,60fb7a9fcbdab69a8f9c9cc2,61036efaf7839d9d6cf5905f,2021-07-29_22h17.12.694,Simcolourproject_2stim_asymm_v5,2020.2.10,Win32,60,61025ae37ef11b136ea224fe,,,,,,,,,3972,67,-39,1,0,0,response3disk,,5,-5,-7,1,0,0,rectangle,-5,-7,1,0,0,-5,-7,1,0,0,0,125,125,150,1,,,,,,,,
,,,,,,,,,,,,,FF,,,,,,,,3.7743,,,,,,,,,,,,,,,,,,,,,,60fb7a9fcbdab69a8f9c9cc2,61036efaf7839d9d6cf5905f,2021-07-29_22h17.12.694,Simcolourproject_2stim_asymm_v5,2020.2.10,Win32,60,61025ae37ef11b136ea224fe,,,,,,,,,1775,58,26,1,0,0,response1disk,,6,4,-2,1,0,0,rectangle,4,-2,1,0,0,4,-2,1,0,0,0,126,126,159,1,,,,,,,,
,,,,,,,,,,,,,FF,,,,,,,,2.028,,,,,,,,,,,,,,,,,,,,,,60fb7a9fcbdab69a8f9c9cc2,61036efaf7839d9d6cf5905f,2021-07-29_22h17.12.694,Simcolourproject_2stim_asymm_v5,2020.2.10,Win32,60,61025ae37ef11b136ea224fe,,,,,,,,,3329,55,22,1,0,0,response1disk,,6,6,6,1,0,0,rectangle,6,6,1,0,0,6,6,1,0,0,0,127,127,38,1,,,,,,,,
,,,,,,,,,,,,,FF,,,,,,,,1.2499,,,,,,,,,,,,,,,,,,,,,,60fb7a9fcbdab69a8f9c9cc2,61036efaf7839d9d6cf5905f,2021-07-29_22h17.12.694,Simcolourproject_2stim_asymm_v5,2020.2.10,Win32,60,61025ae37ef11b136ea224fe,,,,,,,,,2208,45,32,1,0,0,response1disk,,6,-7,1,1,0,0,rectangle,-7,1,1,0,0,-7,1,1,0,0,0,128,128,40,1,,,,,,,,
,,,,,,,,,,,,,FF,,,,,,,,1.4493,,,,,,,,,,,,,,,,,,,,,,60fb7a9fcbdab69a8f9c9cc2,61036efaf7839d9d6cf5905f,2021-07-29_22h17.12.694,Simcolourproject_2stim_asymm_v5,2020.2.10,Win32,60,61025ae37ef11b136ea224fe,,,,,,,,,4137,40,106,1,0,0,response1disk,,7,-12,-9,1,0,0,rectangle,-12,-9,1,0,0,-12,-9,1,0,0,0,129,129,57,1,,,,,,,,
,,,,,,,,,,,,,FF,,,,,,,,0.8747,,,,,,,,,,,,,,,,,,,,,,60fb7a9fcbdab69a8f9c9cc2,61036efaf7839d9d6cf5905f,2021-07-29_22h17.12.694,Simcolourproject_2stim_asymm_v5,2020.2.10,Win32,60,61025ae37ef11b136ea224fe,,,,,,,,,237,35,61,1,0,0,response1disk,,7,8,-8,1,0,0,rectangle,8,-8,1,0,0,8,-8,1,0,0,0,130,130,56,1,,,,,,,,
,,,,,,,,,,,,,FF,,,,,,,,0.7759,,,,,,,,,,,,,,,,,,,,,,60fb7a9fcbdab69a8f9c9cc2,61036efaf7839d9d6cf5905f,2021-07-29_22h17.12.694,Simcolourproject_2stim_asymm_v5,2020.2.10,Win32,60,61025ae37ef11b136ea224fe,,,,,,,,,1266,33,78,1,0,0,response1disk,,7,5,-3,1,0,0,rectangle,5,-3,1,0,0,5,-3,1,0,0,0,131,131,144,1,,,,,,,,
,,,,,,,,,,,,,FF,,,,,,,,2.5476,,,,,,,,,,,,,,,,,,,,,,60fb7a9fcbdab69a8f9c9cc2,61036efaf7839d9d6cf5905f,2021-07-29_22h17.12.694,Simcolourproject_2stim_asymm_v5,2020.2.10,Win32,60,61025ae37ef11b136ea224fe,,,,,,,,,3573,87,31,1,0,0,response1disk,,6,23,-4,1,0,0,rectangle,23,-4,1,0,0,23,-4,1,0,0,0,132,132,128,1,,,,,,,,
,,,,,,,,,,,,,FF,,,,,,,,1.2772,,,,,,,,,,,,,,,,,,,,,,60fb7a9fcbdab69a8f9c9cc2,61036efaf7839d9d6cf5905f,2021-07-29_22h17.12.694,Simcolourproject_2stim_asymm_v5,2020.2.10,Win32,60,61025ae37ef11b136ea224fe,,,,,,,,,917,78,-55,1,0,0,response3disk,,5,-1,-10,1,0,0,rectangle,-71,-29,1,0,0,-15,-8,1,0,0,0,133,133,107,1,,response5disk_3,TRUE,2,2,"[177,141,226,10,134,294,93,162,223,52,220,177,310,88,143,317,260,234,89,33]",2.7203,rectangle
,,,,,,,,,,,,,FF,,,,,,,,1.7748,,,,,,,,,,,,,,,,,,,,,,60fb7a9fcbdab69a8f9c9cc2,61036efaf7839d9d6cf5905f,2021-07-29_22h17.12.694,Simcolourproject_2stim_asymm_v5,2020.2.10,Win32,60,61025ae37ef11b136ea224fe,,,,,,,,,2217,63,-23,1,0,0,response3disk,,5,6,3,1,0,0,rectangle,6,3,1,0,0,6,3,1,0,0,0,134,134,42,1,,,,,,,,
,,,,,,,,,,,,,FF,,,,,,,,1.0993,,,,,,,,,,,,,,,,,,,,,,60fb7a9fcbdab69a8f9c9cc2,61036efaf7839d9d6cf5905f,2021-07-29_22h17.12.694,Simcolourproject_2stim_asymm_v5,2020.2.10,Win32,60,61025ae37ef11b136ea224fe,,,,,,,,,1589,84,-31,1,0,0,response3disk,,5,24,-3,1,0,0,rectangle,24,-3,1,0,0,24,-3,1,0,0,0,135,135,4,1,,,,,,,,
,,,,,,,,,,,,,FF,,,,,,,,2.1027,,,,,,,,,,,,,,,,,,,,,,60fb7a9fcbdab69a8f9c9cc2,61036efaf7839d9d6cf5905f,2021-07-29_22h17.12.694,Simcolourproject_2stim_asymm_v5,2020.2.10,Win32,60,61025ae37ef11b136ea224fe,,,,,,,,,2223,76,-29,1,0,0,response3disk,,5,18,-5,1,0,0,rectangle,18,-5,1,0,0,18,-5,1,0,0,0,136,136,14,1,,,,,,,,
,,,,,,,,,,,,,FF,,,,,,,,1.149,,,,,,,,,,,,,,,,,,,,,,60fb7a9fcbdab69a8f9c9cc2,61036efaf7839d9d6cf5905f,2021-07-29_22h17.12.694,Simcolourproject_2stim_asymm_v5,2020.2.10,Win32,60,61025ae37ef11b136ea224fe,,,,,,,,,1672,55,-69,1,0,0,response3disk,,4,1,-7,1,0,0,rectangle,1,-7,1,0,0,1,-7,1,0,0,0,137,137,2,1,,,,,,,,
,,,,,,,,,,,,,FF,,,,,,,,3.0942,,,,,,,,,,,,,,,,,,,,,,60fb7a9fcbdab69a8f9c9cc2,61036efaf7839d9d6cf5905f,2021-07-29_22h17.12.694,Simcolourproject_2stim_asymm_v5,2020.2.10,Win32,60,61025ae37ef11b136ea224fe,,,,,,,,,640,80,-28,1,0,0,response3disk,,5,20,-3,1,0,0,rectangle,20,-3,1,0,0,20,-3,1,0,0,0,138,138,23,1,,,,,,,,
,,,,,,,,,,,,,FF,,,,,,,,1.9484,,,,,,,,,,,,,,,,,,,,,,60fb7a9fcbdab69a8f9c9cc2,61036efaf7839d9d6cf5905f,2021-07-29_22h17.12.694,Simcolourproject_2stim_asymm_v5,2020.2.10,Win32,60,61025ae37ef11b136ea224fe,,,,,,,,,580,75,48,1,0,0,response1disk,,6,11,-2,1,0,0,rectangle,11,-2,1,0,0,11,-2,1,0,0,0,139,139,69,1,,,,,,,,
,,,,,,,,,,,,,FF,,,,,,,,1.1994,,,,,,,,,,,,,,,,,,,,,,60fb7a9fcbdab69a8f9c9cc2,61036efaf7839d9d6cf5905f,2021-07-29_22h17.12.694,Simcolourproject_2stim_asymm_v5,2020.2.10,Win32,60,61025ae37ef11b136ea224fe,,,,,,,,,2144,17,82,1,0,0,response1disk,,7,-14,4,1,0,0,rectangle,-45,74,1,0,0,-7,7,1,0,0,0,140,140,0,1,,response7disk_3,TRUE,0,0,"[177,141,226,10,134,294,93,162,223,52,220,177,310,88,143,317,260,234,89,33]",1.9996,rectangle
,,,,,,,,,,,,,FF,,,,,,,,4.8976,,,,,,,,,,,,,,,,,,,,,,60fb7a9fcbdab69a8f9c9cc2,61036efaf7839d9d6cf5905f,2021-07-29_22h17.12.694,Simcolourproject_2stim_asymm_v5,2020.2.10,Win32,60,61025ae37ef11b136ea224fe,,,,,,,,,733,86,-29,1,0,0,response3disk,,5,12,-5,1,0,0,rectangle,12,-5,1,0,0,12,-5,1,0,0,0,141,141,126,1,,,,,,,,
,,,,,,,,,,,,,FF,,,,,,,,1.3767,,,,,,,,,,,,,,,,,,,,,,60fb7a9fcbdab69a8f9c9cc2,61036efaf7839d9d6cf5905f,2021-07-29_22h17.12.694,Simcolourproject_2stim_asymm_v5,2020.2.10,Win32,60,61025ae37ef11b136ea224fe,,,,,,,,,2891,-30,-80,1,0,0,response5disk,,3,3,-3,1,0,0,rectangle,99,34,1,0,0,26,5,1,0,0,0,142,142,33,1,,response1disk_3,TRUE,6,6,"[177,141,226,10,134,294,93,162,223,52,220,177,310,88,143,317,260,234,89,33]",1.9288,rectangle
,,,,,,,,,,,,,FF,,,,,,,,5.6413,,,,,,,,,,,,,,,,,,,,,,60fb7a9fcbdab69a8f9c9cc2,61036efaf7839d9d6cf5905f,2021-07-29_22h17.12.694,Simcolourproject_2stim_asymm_v5,2020.2.10,Win32,60,61025ae37ef11b136ea224fe,,,,,,,,,431,101,-56,1,0,0,response3disk,,5,11,4,1,0,0,rectangle,11,4,1,0,0,11,4,1,0,0,0,143,143,140,1,,,,,,,,
,,,,,,,,,,,,,FF,,,,,,,,1.925,,,,,,,,,,,,,,,,,,,,,,60fb7a9fcbdab69a8f9c9cc2,61036efaf7839d9d6cf5905f,2021-07-29_22h17.12.694,Simcolourproject_2stim_asymm_v5,2020.2.10,Win32,60,61025ae37ef11b136ea224fe,,,,,,,,,1768,74,-50,1,0,0,response3disk,,5,11,0,1,0,0,rectangle,11,0,1,0,0,11,0,1,0,0,0,144,144,122,1,,,,,,,,
,,,,,,,,,,,,,FF,,,,,,,,1.1766,,,,,,,,,,,,,,,,,,,,,,60fb7a9fcbdab69a8f9c9cc2,61036efaf7839d9d6cf5905f,2021-07-29_22h17.12.694,Simcolourproject_2stim_asymm_v5,2020.2.10,Win32,60,61025ae37ef11b136ea224fe,,,,,,,,,1755,39,-76,1,0,0,response3disk,,4,3,1,1,0,0,rectangle,3,1,1,0,0,3,1,1,0,0,0,145,145,120,1,,,,,,,,
,,,,,,,,,,,,,FF,,,,,,,,2.3287,,,,,,,,,,,,,,,,,,,,,,60fb7a9fcbdab69a8f9c9cc2,61036efaf7839d9d6cf5905f,2021-07-29_22h17.12.694,Simcolourproject_2stim_asymm_v5,2020.2.10,Win32,60,61025ae37ef11b136ea224fe,,,,,,,,,3569,71,63,1,0,0,response1disk,,6,-3,5,1,0,0,rectangle,-3,5,1,0,0,-3,5,1,0,0,0,146,146,18,1,,,,,,,,
,,,,,,,,,,,,,FF,,,,,,,,1.1954,,,,,,,,,,,,,,,,,,,,,,60fb7a9fcbdab69a8f9c9cc2,61036efaf7839d9d6cf5905f,2021-07-29_22h17.12.694,Simcolourproject_2stim_asymm_v5,2020.2.10,Win32,60,61025ae37ef11b136ea224fe,,,,,,,,,3343,42,-70,1,0,0,response3disk,,4,0,3,1,0,0,rectangle,0,3,1,0,0,0,3,1,0,0,0,147,147,85,1,,,,,,,,
,,,,,,,,,,,,,FF,,,,,,,,2.4456,,,,,,,,,,,,,,,,,,,,,,60fb7a9fcbdab69a8f9c9cc2,61036efaf7839d9d6cf5905f,2021-07-29_22h17.12.694,Simcolourproject_2stim_asymm_v5,2020.2.10,Win32,60,61025ae37ef11b136ea224fe,,,,,,,,,3640,47,31,1,0,0,response1disk,,6,8,-4,1,0,0,rectangle,8,-4,1,0,0,8,-4,1,0,0,0,148,148,121,1,,,,,,,,
,,,,,,,,,,,,,FF,,,,,,,,1.2249,,,,,,,,,,,,,,,,,,,,,,60fb7a9fcbdab69a8f9c9cc2,61036efaf7839d9d6cf5905f,2021-07-29_22h17.12.694,Simcolourproject_2stim_asymm_v5,2020.2.10,Win32,60,61025ae37ef11b136ea224fe,,,,,,,,,1663,56,-26,1,0,0,response3disk,,5,13,6,1,0,0,rectangle,13,6,1,0,0,13,6,1,0,0,0,149,149,19,1,,,,,,,,
,,,,,,,,,,,,,FF,,,,,,,,1.0521,,,,,,,,,,,,,,,,,,,,,,60fb7a9fcbdab69a8f9c9cc2,61036efaf7839d9d6cf5905f,2021-07-29_22h17.12.694,Simcolourproject_2stim_asymm_v5,2020.2.10,Win32,60,61025ae37ef11b136ea224fe,,,,,,,,,3897,69,-35,1,0,0,response3disk,,5,-6,-3,1,0,0,rectangle,-6,-3,1,0,0,-6,-3,1,0,0,0,150,150,15,1,,,,,,,,
,,,,,,,,,,,,,FF,,,,,,,,1.7822,,,,,,,,,,,,,,,,,,,,,,60fb7a9fcbdab69a8f9c9cc2,61036efaf7839d9d6cf5905f,2021-07-29_22h17.12.694,Simcolourproject_2stim_asymm_v5,2020.2.10,Win32,60,61025ae37ef11b136ea224fe,,,,,,,,,4080,27,93,1,0,0,response1disk,,7,31,12,1,0,0,rectangle,31,12,1,0,0,31,12,1,0,0,0,151,151,155,1,,,,,,,,
,,,,,,,,,,,,,FF,,,,,,,,2.375,,,,,,,,,,,,,,,,,,,,,,60fb7a9fcbdab69a8f9c9cc2,61036efaf7839d9d6cf5905f,2021-07-29_22h17.12.694,Simcolourproject_2stim_asymm_v5,2020.2.10,Win32,60,61025ae37ef11b136ea224fe,,,,,,,,,2854,77,42,1,0,0,response1disk,,6,5,7,1,0,0,rectangle,5,7,1,0,0,5,7,1,0,0,0,152,152,73,1,,,,,,,,
,,,,,,,,,,,,,FF,,,,,,,,1.3011,,,,,,,,,,,,,,,,,,,,,,60fb7a9fcbdab69a8f9c9cc2,61036efaf7839d9d6cf5905f,2021-07-29_22h17.12.694,Simcolourproject_2stim_asymm_v5,2020.2.10,Win32,60,61025ae37ef11b136ea224fe,,,,,,,,,279,41,-68,1,0,0,response3disk,,4,0,8,1,0,0,rectangle,0,8,1,0,0,0,8,1,0,0,0,153,153,31,1,,,,,,,,
,,,,,,,,,,,,,FF,,,,,,,,1.2248,,,,,,,,,,,,,,,,,,,,,,60fb7a9fcbdab69a8f9c9cc2,61036efaf7839d9d6cf5905f,2021-07-29_22h17.12.694,Simcolourproject_2stim_asymm_v5,2020.2.10,Win32,60,61025ae37ef11b136ea224fe,,,,,,,,,618,-41,-74,1,0,0,response5disk,,3,-4,-6,1,0,0,rectangle,-4,-6,1,0,0,-4,-6,1,0,0,0,154,154,104,1,,,,,,,,
,,,,,,,,,,,,,FF,,,,,,,,1.1282,,,,,,,,,,,,,,,,,,,,,,60fb7a9fcbdab69a8f9c9cc2,61036efaf7839d9d6cf5905f,2021-07-29_22h17.12.694,Simcolourproject_2stim_asymm_v5,2020.2.10,Win32,60,61025ae37ef11b136ea224fe,,,,,,,,,364,64,-23,1,0,0,response3disk,,5,-15,-9,1,0,0,rectangle,-15,-9,1,0,0,-15,-9,1,0,0,0,155,155,16,1,,,,,,,,
,,,,,,,,,,,,,FF,,,,,,,,1.6744,,,,,,,,,,,,,,,,,,,,,,60fb7a9fcbdab69a8f9c9cc2,61036efaf7839d9d6cf5905f,2021-07-29_22h17.12.694,Simcolourproject_2stim_asymm_v5,2020.2.10,Win32,60,61025ae37ef11b136ea224fe,,,,,,,,,3625,42,-73,1,0,0,response3disk,,4,5,7,1,0,0,rectangle,5,7,1,0,0,5,7,1,0,0,0,156,156,67,1,,,,,,,,
,,,,,,,,,,,,,FF,,,,,,,,6.8659,,,,,,,,,,,,,,,,,,,,,,60fb7a9fcbdab69a8f9c9cc2,61036efaf7839d9d6cf5905f,2021-07-29_22h17.12.694,Simcolourproject_2stim_asymm_v5,2020.2.10,Win32,60,61025ae37ef11b136ea224fe,,,,,,,,,2265,86,-41,1,0,0,response3disk,,5,-6,3,1,0,0,rectangle,-6,3,1,0,0,-6,3,1,0,0,0,157,157,3,1,,,,,,,,
,,,,,,,,,,,,,FF,,,,,,,,1.348,,,,,,,,,,,,,,,,,,,,,,60fb7a9fcbdab69a8f9c9cc2,61036efaf7839d9d6cf5905f,2021-07-29_22h17.12.694,Simcolourproject_2stim_asymm_v5,2020.2.10,Win32,60,61025ae37ef11b136ea224fe,,,,,,,,,1739,86,58,1,0,0,response1disk,,6,-30,11,1,0,0,rectangle,-30,11,1,0,0,-30,11,1,0,0,0,158,158,111,1,,,,,,,,
,,,,,,,,,,,,,FF,,,,,,,,1.6288,,,,,,,,,,,,,,,,,,,,,,60fb7a9fcbdab69a8f9c9cc2,61036efaf7839d9d6cf5905f,2021-07-29_22h17.12.694,Simcolourproject_2stim_asymm_v5,2020.2.10,Win32,60,61025ae37ef11b136ea224fe,,,,,,,,,3363,81,47,1,0,0,response1disk,,6,10,4,1,0,0,rectangle,10,4,1,0,0,10,4,1,0,0,0,159,159,151,1,,,,,,,,
,,,,,,,,,,,,,FF,,,,,,,,1.4765,,,,,,,,,,,,,,,,,,,,,,60fb7a9fcbdab69a8f9c9cc2,61036efaf7839d9d6cf5905f,2021-07-29_22h17.12.694,Simcolourproject_2stim_asymm_v5,2020.2.10,Win32,60,61025ae37ef11b136ea224fe,,,,,,,,,217,37,63,1,0,0,response1disk,,7,3,0,1,0,0,rectangle,3,0,1,0,0,3,0,1,0,0,1,0,160,46,1,,,,,,,,
,,,,,,,,,,,,,FF,,,,,,,,1.0491,,,,,,,,,,,,,,,,,,,,,,60fb7a9fcbdab69a8f9c9cc2,61036efaf7839d9d6cf5905f,2021-07-29_22h17.12.694,Simcolourproject_2stim_asymm_v5,2020.2.10,Win32,60,61025ae37ef11b136ea224fe,,,,,,,,,4235,-80,-41,1,0,0,response5disk,,2,-17,-1,1,0,0,rectangle,-72,-51,1,0,0,-23,4,1,0,0,1,1,161,16,1,,response5disk_3,TRUE,2,2,"[177,141,226,10,134,294,93,162,223,52,220,177,310,88,143,317,260,234,89,33]",1.7749,rectangle
,,,,,,,,,,,,,FF,,,,,,,,4.0969,,,,,,,,,,,,,,,,,,,,,,60fb7a9fcbdab69a8f9c9cc2,61036efaf7839d9d6cf5905f,2021-07-29_22h17.12.694,Simcolourproject_2stim_asymm_v5,2020.2.10,Win32,60,61025ae37ef11b136ea224fe,,,,,,,,,929,80,43,1,0,0,response1disk,,6,14,10,1,0,0,rectangle,14,10,1,0,0,14,10,1,0,0,1,2,162,70,1,,,,,,,,
,,,,,,,,,,,,,FF,,,,,,,,1.497,,,,,,,,,,,,,,,,,,,,,,60fb7a9fcbdab69a8f9c9cc2,61036efaf7839d9d6cf5905f,2021-07-29_22h17.12.694,Simcolourproject_2stim_asymm_v5,2020.2.10,Win32,60,61025ae37ef11b136ea224fe,,,,,,,,,550,37,-74,1,0,0,response3disk,,4,2,5,1,0,0,rectangle,2,5,1,0,0,2,5,1,0,0,1,3,163,144,1,,,,,,,,
,,,,,,,,,,,,,FF,,,,,,,,1.744,,,,,,,,,,,,,,,,,,,,,,60fb7a9fcbdab69a8f9c9cc2,61036efaf7839d9d6cf5905f,2021-07-29_22h17.12.694,Simcolourproject_2stim_asymm_v5,2020.2.10,Win32,60,61025ae37ef11b136ea224fe,,,,,,,,,4352,-51,-75,1,0,0,response5disk,,3,-3,-5,1,0,0,rectangle,-3,-5,1,0,0,-3,-5,1,0,0,1,4,164,156,1,,,,,,,,
,,,,,,,,,,,,,FF,,,,,,,,3.4001,,,,,,,,,,,,,,,,,,,,,,60fb7a9fcbdab69a8f9c9cc2,61036efaf7839d9d6cf5905f,2021-07-29_22h17.12.694,Simcolourproject_2stim_asymm_v5,2020.2.10,Win32,60,61025ae37ef11b136ea224fe,,,,,,,,,878,77,-46,1,0,0,response3disk,,5,-2,6,1,0,0,rectangle,-2,6,1,0,0,-2,6,1,0,0,1,5,165,4,1,,,,,,,,
,,,,,,,,,,,,,FF,,,,,,,,1.6742,,,,,,,,,,,,,,,,,,,,,,60fb7a9fcbdab69a8f9c9cc2,61036efaf7839d9d6cf5905f,2021-07-29_22h17.12.694,Simcolourproject_2stim_asymm_v5,2020.2.10,Win32,60,61025ae37ef11b136ea224fe,,,,,,,,,602,57,27,1,0,0,response1disk,,6,-1,4,1,0,0,rectangle,-1,4,1,0,0,-1,4,1,0,0,1,6,166,53,1,,,,,,,,
,,,,,,,,,,,,,FF,,,,,,,,3.1238,,,,,,,,,,,,,,,,,,,,,,60fb7a9fcbdab69a8f9c9cc2,61036efaf7839d9d6cf5905f,2021-07-29_22h17.12.694,Simcolourproject_2stim_asymm_v5,2020.2.10,Win32,60,61025ae37ef11b136ea224fe,,,,,,,,,2442,48,71,1,0,0,response1disk,,7,13,10,1,0,0,rectangle,13,10,1,0,0,13,10,1,0,0,1,7,167,124,1,,,,,,,,
,,,,,,,,,,,,,FF,,,,,,,,1.0505,,,,,,,,,,,,,,,,,,,,,,60fb7a9fcbdab69a8f9c9cc2,61036efaf7839d9d6cf5905f,2021-07-29_22h17.12.694,Simcolourproject_2stim_asymm_v5,2020.2.10,Win32,60,61025ae37ef11b136ea224fe,,,,,,,,,2492,65,26,1,0,0,response1disk,,6,15,3,1,0,0,rectangle,15,3,1,0,0,15,3,1,0,0,1,8,168,45,1,,,,,,,,
,,,,,,,,,,,,,FF,,,,,,,,1.9688,,,,,,,,,,,,,,,,,,,,,,60fb7a9fcbdab69a8f9c9cc2,61036efaf7839d9d6cf5905f,2021-07-29_22h17.12.694,Simcolourproject_2stim_asymm_v5,2020.2.10,Win32,60,61025ae37ef11b136ea224fe,,,,,,,,,445,50,-62,1,0,0,response3disk,,4,12,0,1,0,0,rectangle,12,0,1,0,0,12,0,1,0,0,1,9,169,120,1,,,,,,,,
,,,,,,,,,,,,,FF,,,,,,,,1.1749,,,,,,,,,,,,,,,,,,,,,,60fb7a9fcbdab69a8f9c9cc2,61036efaf7839d9d6cf5905f,2021-07-29_22h17.12.694,Simcolourproject_2stim_asymm_v5,2020.2.10,Win32,60,61025ae37ef11b136ea224fe,,,,,,,,,243,77,25,1,0,0,response1disk,,6,14,6,1,0,0,rectangle,14,6,1,0,0,14,6,1,0,0,1,10,170,134,1,,,,,,,,
,,,,,,,,,,,,,FF,,,,,,,,1.4257,,,,,,,,,,,,,,,,,,,,,,60fb7a9fcbdab69a8f9c9cc2,61036efaf7839d9d6cf5905f,2021-07-29_22h17.12.694,Simcolourproject_2stim_asymm_v5,2020.2.10,Win32,60,61025ae37ef11b136ea224fe,,,,,,,,,1173,57,31,1,0,0,response1disk,,6,5,4,1,0,0,rectangle,5,4,1,0,0,5,4,1,0,0,1,11,171,24,1,,,,,,,,
,,,,,,,,,,,,,FF,,,,,,,,2.2203,,,,,,,,,,,,,,,,,,,,,,60fb7a9fcbdab69a8f9c9cc2,61036efaf7839d9d6cf5905f,2021-07-29_22h17.12.694,Simcolourproject_2stim_asymm_v5,2020.2.10,Win32,60,61025ae37ef11b136ea224fe,,,,,,,,,1316,81,46,1,0,0,response1disk,,6,19,-6,1,0,0,rectangle,19,-6,1,0,0,19,-6,1,0,0,1,12,172,132,1,,,,,,,,
,,,,,,,,,,,,,FF,,,,,,,,1.0754,,,,,,,,,,,,,,,,,,,,,,60fb7a9fcbdab69a8f9c9cc2,61036efaf7839d9d6cf5905f,2021-07-29_22h17.12.694,Simcolourproject_2stim_asymm_v5,2020.2.10,Win32,60,61025ae37ef11b136ea224fe,,,,,,,,,1577,59,23,1,0,0,response1disk,,6,5,7,1,0,0,rectangle,5,7,1,0,0,5,7,1,0,0,1,13,173,22,1,,,,,,,,
,,,,,,,,,,,,,FF,,,,,,,,2.4166,,,,,,,,,,,,,,,,,,,,,,60fb7a9fcbdab69a8f9c9cc2,61036efaf7839d9d6cf5905f,2021-07-29_22h17.12.694,Simcolourproject_2stim_asymm_v5,2020.2.10,Win32,60,61025ae37ef11b136ea224fe,,,,,,,,,581,77,51,1,0,0,response1disk,,6,4,-3,1,0,0,rectangle,4,-3,1,0,0,4,-3,1,0,0,1,14,174,39,1,,,,,,,,
,,,,,,,,,,,,,FF,,,,,,,,4.3695,,,,,,,,,,,,,,,,,,,,,,60fb7a9fcbdab69a8f9c9cc2,61036efaf7839d9d6cf5905f,2021-07-29_22h17.12.694,Simcolourproject_2stim_asymm_v5,2020.2.10,Win32,60,61025ae37ef11b136ea224fe,,,,,,,,,4303,30,87,1,0,0,response1disk,,7,1,6,1,0,0,rectangle,1,6,1,0,0,1,6,1,0,0,1,15,175,74,1,,,,,,,,
,,,,,,,,,,,,,FF,,,,,,,,1.8248,,,,,,,,,,,,,,,,,,,,,,60fb7a9fcbdab69a8f9c9cc2,61036efaf7839d9d6cf5905f,2021-07-29_22h17.12.694,Simcolourproject_2stim_asymm_v5,2020.2.10,Win32,60,61025ae37ef11b136ea224fe,,,,,,,,,3993,-70,-28,1,0,0,response5disk,,2,-32,1,1,0,0,rectangle,-50,-44,1,0,0,-4,7,1,0,0,1,16,176,151,1,,response5disk_3,TRUE,2,2,"[177,141,226,10,134,294,93,162,223,52,220,177,310,88,143,317,260,234,89,33]",1.6241,rectangle
,,,,,,,,,,,,,FF,,,,,,,,1.2496,,,,,,,,,,,,,,,,,,,,,,60fb7a9fcbdab69a8f9c9cc2,61036efaf7839d9d6cf5905f,2021-07-29_22h17.12.694,Simcolourproject_2stim_asymm_v5,2020.2.10,Win32,60,61025ae37ef11b136ea224fe,,,,,,,,,2721,-46,-74,1,0,0,response5disk,,3,5,3,1,0,0,rectangle,5,3,1,0,0,5,3,1,0,0,1,17,177,157,1,,,,,,,,
,,,,,,,,,,,,,FF,,,,,,,,1.6245,,,,,,,,,,,,,,,,,,,,,,60fb7a9fcbdab69a8f9c9cc2,61036efaf7839d9d6cf5905f,2021-07-29_22h17.12.694,Simcolourproject_2stim_asymm_v5,2020.2.10,Win32,60,61025ae37ef11b136ea224fe,,,,,,,,,2863,27,53,1,0,0,response1disk,,7,-2,-2,1,0,0,rectangle,-2,-2,1,0,0,-2,-2,1,0,0,1,18,178,99,1,,,,,,,,
,,,,,,,,,,,,,FF,,,,,,,,3.0292,,,,,,,,,,,,,,,,,,,,,,60fb7a9fcbdab69a8f9c9cc2,61036efaf7839d9d6cf5905f,2021-07-29_22h17.12.694,Simcolourproject_2stim_asymm_v5,2020.2.10,Win32,60,61025ae37ef11b136ea224fe,,,,,,,,,1800,64,32,1,0,0,response1disk,,6,-9,-6,1,0,0,rectangle,-9,-6,1,0,0,-9,-6,1,0,0,1,19,179,112,1,,,,,,,,
,,,,,,,,,,,,,FF,,,,,,,,2.0297,,,,,,,,,,,,,,,,,,,,,,60fb7a9fcbdab69a8f9c9cc2,61036efaf7839d9d6cf5905f,2021-07-29_22h17.12.694,Simcolourproject_2stim_asymm_v5,2020.2.10,Win32,60,61025ae37ef11b136ea224fe,,,,,,,,,2970,32,61,1,0,0,response1disk,,7,8,10,1,0,0,rectangle,8,10,1,0,0,8,10,1,0,0,1,20,180,60,1,,,,,,,,
,,,,,,,,,,,,,FF,,,,,,,,1.0226,,,,,,,,,,,,,,,,,,,,,,60fb7a9fcbdab69a8f9c9cc2,61036efaf7839d9d6cf5905f,2021-07-29_22h17.12.694,Simcolourproject_2stim_asymm_v5,2020.2.10,Win32,60,61025ae37ef11b136ea224fe,,,,,,,,,212,31,52,1,0,0,response1disk,,7,12,2,1,0,0,rectangle,12,2,1,0,0,12,2,1,0,0,1,21,181,117,1,,,,,,,,
,,,,,,,,,,,,,FF,,,,,,,,1.4498,,,,,,,,,,,,,,,,,,,,,,60fb7a9fcbdab69a8f9c9cc2,61036efaf7839d9d6cf5905f,2021-07-29_22h17.12.694,Simcolourproject_2stim_asymm_v5,2020.2.10,Win32,60,61025ae37ef11b136ea224fe,,,,,,,,,265,40,-72,1,0,0,response3disk,,4,1,3,1,0,0,rectangle,1,3,1,0,0,1,3,1,0,0,1,22,182,26,1,,,,,,,,
,,,,,,,,,,,,,FF,,,,,,,,3.1459,,,,,,,,,,,,,,,,,,,,,,60fb7a9fcbdab69a8f9c9cc2,61036efaf7839d9d6cf5905f,2021-07-29_22h17.12.694,Simcolourproject_2stim_asymm_v5,2020.2.10,Win32,60,61025ae37ef11b136ea224fe,,,,,,,,,3347,70,-41,1,0,0,response3disk,,5,15,1,1,0,0,rectangle,15,1,1,0,0,15,1,1,0,0,1,23,183,0,1,,,,,,,,
,,,,,,,,,,,,,FF,,,,,,,,0.9442,,,,,,,,,,,,,,,,,,,,,,60fb7a9fcbdab69a8f9c9cc2,61036efaf7839d9d6cf5905f,2021-07-29_22h17.12.694,Simcolourproject_2stim_asymm_v5,2020.2.10,Win32,60,61025ae37ef11b136ea224fe,,,,,,,,,2229,45,-72,1,0,0,response3disk,,4,4,3,1,0,0,rectangle,4,3,1,0,0,4,3,1,0,0,1,24,184,123,1,,,,,,,,
,,,,,,,,,,,,,FF,,,,,,,,1.1745,,,,,,,,,,,,,,,,,,,,,,60fb7a9fcbdab69a8f9c9cc2,61036efaf7839d9d6cf5905f,2021-07-29_22h17.12.694,Simcolourproject_2stim_asymm_v5,2020.2.10,Win32,60,61025ae37ef11b136ea224fe,,,,,,,,,3619,70,-32,1,0,0,response3disk,,5,1,12,1,0,0,rectangle,1,12,1,0,0,1,12,1,0,0,1,25,185,127,1,,,,,,,,
,,,,,,,,,,,,,FF,,,,,,,,3.3722,,,,,,,,,,,,,,,,,,,,,,60fb7a9fcbdab69a8f9c9cc2,61036efaf7839d9d6cf5905f,2021-07-29_22h17.12.694,Simcolourproject_2stim_asymm_v5,2020.2.10,Win32,60,61025ae37ef11b136ea224fe,,,,,,,,,2064,94,49,1,0,0,response1disk,,6,3,5,1,0,0,rectangle,3,5,1,0,0,3,5,1,0,0,1,26,186,69,1,,,,,,,,
,,,,,,,,,,,,,FF,,,,,,,,1.8266,,,,,,,,,,,,,,,,,,,,,,60fb7a9fcbdab69a8f9c9cc2,61036efaf7839d9d6cf5905f,2021-07-29_22h17.12.694,Simcolourproject_2stim_asymm_v5,2020.2.10,Win32,60,61025ae37ef11b136ea224fe,,,,,,,,,485,42,71,1,0,0,response1disk,,7,-1,3,1,0,0,rectangle,-1,3,1,0,0,-1,3,1,0,0,1,27,187,128,1,,,,,,,,
,,,,,,,,,,,,,FF,,,,,,,,1.176,,,,,,,,,,,,,,,,,,,,,,60fb7a9fcbdab69a8f9c9cc2,61036efaf7839d9d6cf5905f,2021-07-29_22h17.12.694,Simcolourproject_2stim_asymm_v5,2020.2.10,Win32,60,61025ae37ef11b136ea224fe,,,,,,,,,2420,-32,-78,1,0,0,response5disk,,3,-7,0,1,0,0,rectangle,-7,0,1,0,0,-7,0,1,0,0,1,28,188,11,1,,,,,,,,
,,,,,,,,,,,,,FF,,,,,,,,2.0009,,,,,,,,,,,,,,,,,,,,,,60fb7a9fcbdab69a8f9c9cc2,61036efaf7839d9d6cf5905f,2021-07-29_22h17.12.694,Simcolourproject_2stim_asymm_v5,2020.2.10,Win32,60,61025ae37ef11b136ea224fe,,,,,,,,,2252,74,46,1,0,0,response1disk,,6,10,3,1,0,0,rectangle,10,3,1,0,0,10,3,1,0,0,1,29,189,126,1,,,,,,,,
,,,,,,,,,,,,,FF,,,,,,,,1.3513,,,,,,,,,,,,,,,,,,,,,,60fb7a9fcbdab69a8f9c9cc2,61036efaf7839d9d6cf5905f,2021-07-29_22h17.12.694,Simcolourproject_2stim_asymm_v5,2020.2.10,Win32,60,61025ae37ef11b136ea224fe,,,,,,,,,813,77,43,1,0,0,response1disk,,6,25,15,1,0,0,rectangle,25,15,1,0,0,25,15,1,0,0,1,30,190,86,1,,,,,,,,
,,,,,,,,,,,,,FF,,,,,,,,1.8248,,,,,,,,,,,,,,,,,,,,,,60fb7a9fcbdab69a8f9c9cc2,61036efaf7839d9d6cf5905f,2021-07-29_22h17.12.694,Simcolourproject_2stim_asymm_v5,2020.2.10,Win32,60,61025ae37ef11b136ea224fe,,,,,,,,,3471,38,-89,1,0,0,response3disk,,4,-19,10,1,0,0,rectangle,-19,10,1,0,0,-19,10,1,0,0,1,31,191,57,1,,,,,,,,
,,,,,,,,,,,,,FF,,,,,,,,1.8742,,,,,,,,,,,,,,,,,,,,,,60fb7a9fcbdab69a8f9c9cc2,61036efaf7839d9d6cf5905f,2021-07-29_22h17.12.694,Simcolourproject_2stim_asymm_v5,2020.2.10,Win32,60,61025ae37ef11b136ea224fe,,,,,,,,,1847,88,43,1,0,0,response1disk,,6,2,6,1,0,0,rectangle,2,6,1,0,0,2,6,1,0,0,1,32,192,102,1,,,,,,,,
,,,,,,,,,,,,,FF,,,,,,,,1.1325,,,,,,,,,,,,,,,,,,,,,,60fb7a9fcbdab69a8f9c9cc2,61036efaf7839d9d6cf5905f,2021-07-29_22h17.12.694,Simcolourproject_2stim_asymm_v5,2020.2.10,Win32,60,61025ae37ef11b136ea224fe,,,,,,,,,2467,41,57,1,0,0,response1disk,,7,-3,-5,1,0,0,rectangle,-3,-5,1,0,0,-3,-5,1,0,0,1,33,193,25,1,,,,,,,,
,,,,,,,,,,,,,FF,,,,,,,,2.0261,,,,,,,,,,,,,,,,,,,,,,60fb7a9fcbdab69a8f9c9cc2,61036efaf7839d9d6cf5905f,2021-07-29_22h17.12.694,Simcolourproject_2stim_asymm_v5,2020.2.10,Win32,60,61025ae37ef11b136ea224fe,,,,,,,,,3424,22,-88,1,0,0,response3disk,,4,-4,6,1,0,0,rectangle,-4,6,1,0,0,-4,6,1,0,0,1,34,194,121,1,,,,,,,,
,,,,,,,,,,,,,FF,,,,,,,,1.2286,,,,,,,,,,,,,,,,,,,,,,60fb7a9fcbdab69a8f9c9cc2,61036efaf7839d9d6cf5905f,2021-07-29_22h17.12.694,Simcolourproject_2stim_asymm_v5,2020.2.10,Win32,60,61025ae37ef11b136ea224fe,,,,,,,,,3722,85,66,1,0,0,response1disk,,6,26,-3,1,0,0,rectangle,26,-3,1,0,0,26,-3,1,0,0,1,35,195,159,1,,,,,,,,
,,,,,,,,,,,,,FF,,,,,,,,3.2003,,,,,,,,,,,,,,,,,,,,,,60fb7a9fcbdab69a8f9c9cc2,61036efaf7839d9d6cf5905f,2021-07-29_22h17.12.694,Simcolourproject_2stim_asymm_v5,2020.2.10,Win32,60,61025ae37ef11b136ea224fe,,,,,,,,,3220,69,53,1,0,0,response1disk,,6,10,-3,1,0,0,rectangle,10,-3,1,0,0,10,-3,1,0,0,1,36,196,89,1,,,,,,,,
,,,,,,,,,,,,,FF,,,,,,,,1.0997,,,,,,,,,,,,,,,,,,,,,,60fb7a9fcbdab69a8f9c9cc2,61036efaf7839d9d6cf5905f,2021-07-29_22h17.12.694,Simcolourproject_2stim_asymm_v5,2020.2.10,Win32,60,61025ae37ef11b136ea224fe,,,,,,,,,2762,43,86,1,0,0,response1disk,,7,9,12,1,0,0,rectangle,9,12,1,0,0,9,12,1,0,0,1,37,197,2,1,,,,,,,,
,,,,,,,,,,,,,FF,,,,,,,,1.9478,,,,,,,,,,,,,,,,,,,,,,60fb7a9fcbdab69a8f9c9cc2,61036efaf7839d9d6cf5905f,2021-07-29_22h17.12.694,Simcolourproject_2stim_asymm_v5,2020.2.10,Win32,60,61025ae37ef11b136ea224fe,,,,,,,,,1474,87,58,1,0,0,response1disk,,6,10,3,1,0,0,rectangle,10,3,1,0,0,10,3,1,0,0,1,38,198,58,1,,,,,,,,
,,,,,,,,,,,,,FF,,,,,,,,1.4527,,,,,,,,,,,,,,,,,,,,,,60fb7a9fcbdab69a8f9c9cc2,61036efaf7839d9d6cf5905f,2021-07-29_22h17.12.694,Simcolourproject_2stim_asymm_v5,2020.2.10,Win32,60,61025ae37ef11b136ea224fe,,,,,,,,,2881,60,45,1,0,0,response1disk,,6,-1,11,1,0,0,rectangle,-1,11,1,0,0,-1,11,1,0,0,1,39,199,49,1,,,,,,,,
,,,,,,,,,,,,,FF,,,,,,,,1.9503,,,,,,,,,,,,,,,,,,,,,,60fb7a9fcbdab69a8f9c9cc2,61036efaf7839d9d6cf5905f,2021-07-29_22h17.12.694,Simcolourproject_2stim_asymm_v5,2020.2.10,Win32,60,61025ae37ef11b136ea224fe,,,,,,,,,1702,41,91,1,0,0,response1disk,,7,5,11,1,0,0,rectangle,5,11,1,0,0,5,11,1,0,0,1,40,200,145,1,,,,,,,,
,,,,,,,,,,,,,FF,,,,,,,,1.65,,,,,,,,,,,,,,,,,,,,,,60fb7a9fcbdab69a8f9c9cc2,61036efaf7839d9d6cf5905f,2021-07-29_22h17.12.694,Simcolourproject_2stim_asymm_v5,2020.2.10,Win32,60,61025ae37ef11b136ea224fe,,,,,,,,,4142,68,-40,1,0,0,response3disk,,5,5,2,1,0,0,rectangle,5,2,1,0,0,5,2,1,0,0,1,41,201,68,1,,,,,,,,
,,,,,,,,,,,,,FF,,,,,,,,1.3485,,,,,,,,,,,,,,,,,,,,,,60fb7a9fcbdab69a8f9c9cc2,61036efaf7839d9d6cf5905f,2021-07-29_22h17.12.694,Simcolourproject_2stim_asymm_v5,2020.2.10,Win32,60,61025ae37ef11b136ea224fe,,,,,,,,,3286,60,-34,1,0,0,response3disk,,5,1,6,1,0,0,rectangle,1,6,1,0,0,1,6,1,0,0,1,42,202,108,1,,,,,,,,
,,,,,,,,,,,,,FF,,,,,,,,1.0248,,,,,,,,,,,,,,,,,,,,,,60fb7a9fcbdab69a8f9c9cc2,61036efaf7839d9d6cf5905f,2021-07-29_22h17.12.694,Simcolourproject_2stim_asymm_v5,2020.2.10,Win32,60,61025ae37ef11b136ea224fe,,,,,,,,,1257,90,-48,1,0,0,response3disk,,5,-19,1,1,0,0,rectangle,-19,1,1,0,0,-19,1,1,0,0,1,43,203,139,1,,,,,,,,
,,,,,,,,,,,,,FF,,,,,,,,1.1059,,,,,,,,,,,,,,,,,,,,,,60fb7a9fcbdab69a8f9c9cc2,61036efaf7839d9d6cf5905f,2021-07-29_22h17.12.694,Simcolourproject_2stim_asymm_v5,2020.2.10,Win32,60,61025ae37ef11b136ea224fe,,,,,,,,,882,41,26,1,0,0,response1disk,,6,7,6,1,0,0,rectangle,7,6,1,0,0,7,6,1,0,0,1,44,204,8,1,,,,,,,,
,,,,,,,,,,,,,FF,,,,,,,,1.6495,,,,,,,,,,,,,,,,,,,,,,60fb7a9fcbdab69a8f9c9cc2,61036efaf7839d9d6cf5905f,2021-07-29_22h17.12.694,Simcolourproject_2stim_asymm_v5,2020.2.10,Win32,60,61025ae37ef11b136ea224fe,,,,,,,,,925,65,48,1,0,0,response1disk,,6,-2,-2,1,0,0,rectangle,-2,-2,1,0,0,-2,-2,1,0,0,1,45,205,62,1,,,,,,,,
,,,,,,,,,,,,,FF,,,,,,,,1.6513,,,,,,,,,,,,,,,,,,,,,,60fb7a9fcbdab69a8f9c9cc2,61036efaf7839d9d6cf5905f,2021-07-29_22h17.12.694,Simcolourproject_2stim_asymm_v5,2020.2.10,Win32,60,61025ae37ef11b136ea224fe,,,,,,,,,1556,77,-28,1,0,0,response3disk,,5,16,1,1,0,0,rectangle,16,1,1,0,0,16,1,1,0,0,1,46,206,56,1,,,,,,,,
,,,,,,,,,,,,,FF,,,,,,,,3.522,,,,,,,,,,,,,,,,,,,,,,60fb7a9fcbdab69a8f9c9cc2,61036efaf7839d9d6cf5905f,2021-07-29_22h17.12.694,Simcolourproject_2stim_asymm_v5,2020.2.10,Win32,60,61025ae37ef11b136ea224fe,,,,,,,,,214,48,35,1,0,0,response1disk,,6,0,0,1,0,0,rectangle,0,0,1,0,0,0,0,1,0,0,1,47,207,143,1,,,,,,,,
,,,,,,,,,,,,,FF,,,,,,,,1.1963,,,,,,,,,,,,,,,,,,,,,,60fb7a9fcbdab69a8f9c9cc2,61036efaf7839d9d6cf5905f,2021-07-29_22h17.12.694,Simcolourproject_2stim_asymm_v5,2020.2.10,Win32,60,61025ae37ef11b136ea224fe,,,,,,,,,248,49,-66,1,0,0,response3disk,,4,4,5,1,0,0,rectangle,4,5,1,0,0,4,5,1,0,0,1,48,208,13,1,,,,,,,,
,,,,,,,,,,,,,FF,,,,,,,,8.342,,,,,,,,,,,,,,,,,,,,,,60fb7a9fcbdab69a8f9c9cc2,61036efaf7839d9d6cf5905f,2021-07-29_22h17.12.694,Simcolourproject_2stim_asymm_v5,2020.2.10,Win32,60,61025ae37ef11b136ea224fe,,,,,,,,,4116,50,-90,1,0,0,response3disk,,4,-2,-5,1,0,0,rectangle,-2,-5,1,0,0,-2,-5,1,0,0,1,49,209,78,1,,,,,,,,
,,,,,,,,,,,,,FF,,,,,,,,1.6728,,,,,,,,,,,,,,,,,,,,,,60fb7a9fcbdab69a8f9c9cc2,61036efaf7839d9d6cf5905f,2021-07-29_22h17.12.694,Simcolourproject_2stim_asymm_v5,2020.2.10,Win32,60,61025ae37ef11b136ea224fe,,,,,,,,,3118,57,-22,1,0,0,response3disk,,5,1,2,1,0,0,rectangle,1,2,1,0,0,1,2,1,0,0,1,50,210,10,1,,,,,,,,
,,,,,,,,,,,,,FF,,,,,,,,1.4727,,,,,,,,,,,,,,,,,,,,,,60fb7a9fcbdab69a8f9c9cc2,61036efaf7839d9d6cf5905f,2021-07-29_22h17.12.694,Simcolourproject_2stim_asymm_v5,2020.2.10,Win32,60,61025ae37ef11b136ea224fe,,,,,,,,,601,34,84,1,0,0,response1disk,,7,11,-2,1,0,0,rectangle,11,-2,1,0,0,11,-2,1,0,0,1,51,211,158,1,,,,,,,,
,,,,,,,,,,,,,FF,,,,,,,,1.6983,,,,,,,,,,,,,,,,,,,,,,60fb7a9fcbdab69a8f9c9cc2,61036efaf7839d9d6cf5905f,2021-07-29_22h17.12.694,Simcolourproject_2stim_asymm_v5,2020.2.10,Win32,60,61025ae37ef11b136ea224fe,,,,,,,,,2915,51,36,1,0,0,response1disk,,6,14,11,1,0,0,rectangle,14,11,1,0,0,14,11,1,0,0,1,52,212,93,1,,,,,,,,
,,,,,,,,,,,,,FF,,,,,,,,1.252,,,,,,,,,,,,,,,,,,,,,,60fb7a9fcbdab69a8f9c9cc2,61036efaf7839d9d6cf5905f,2021-07-29_22h17.12.694,Simcolourproject_2stim_asymm_v5,2020.2.10,Win32,60,61025ae37ef11b136ea224fe,,,,,,,,,2295,34,-67,1,0,0,response3disk,,4,8,-7,1,0,0,rectangle,8,-7,1,0,0,8,-7,1,0,0,1,53,213,15,1,,,,,,,,
,,,,,,,,,,,,,FF,,,,,,,,0.9272,,,,,,,,,,,,,,,,,,,,,,60fb7a9fcbdab69a8f9c9cc2,61036efaf7839d9d6cf5905f,2021-07-29_22h17.12.694,Simcolourproject_2stim_asymm_v5,2020.2.10,Win32,60,61025ae37ef11b136ea224fe,,,,,,,,,1747,35,-63,1,0,0,response3disk,,4,2,-3,1,0,0,rectangle,2,-3,1,0,0,2,-3,1,0,0,1,54,214,92,1,,,,,,,,
,,,,,,,,,,,,,FF,,,,,,,,2.2761,,,,,,,,,,,,,,,,,,,,,,60fb7a9fcbdab69a8f9c9cc2,61036efaf7839d9d6cf5905f,2021-07-29_22h17.12.694,Simcolourproject_2stim_asymm_v5,2020.2.10,Win32,60,61025ae37ef11b136ea224fe,,,,,,,,,2408,84,42,1,0,0,response1disk,,6,15,-1,1,0,0,rectangle,15,-1,1,0,0,15,-1,1,0,0,1,55,215,35,1,,,,,,,,
,,,,,,,,,,,,,FF,,,,,,,,4.6419,,,,,,,,,,,,,,,,,,,,,,60fb7a9fcbdab69a8f9c9cc2,61036efaf7839d9d6cf5905f,2021-07-29_22h17.12.694,Simcolourproject_2stim_asymm_v5,2020.2.10,Win32,60,61025ae37ef11b136ea224fe,,,,,,,,,2909,100,-58,1,0,0,response3disk,,5,3,6,1,0,0,rectangle,3,6,1,0,0,3,6,1,0,0,1,56,216,119,1,,,,,,,,
,,,,,,,,,,,,,FF,,,,,,,,5.9718,,,,,,,,,,,,,,,,,,,,,,60fb7a9fcbdab69a8f9c9cc2,61036efaf7839d9d6cf5905f,2021-07-29_22h17.12.694,Simcolourproject_2stim_asymm_v5,2020.2.10,Win32,60,61025ae37ef11b136ea224fe,,,,,,,,,1380,84,-31,1,0,0,response3disk,,5,14,-2,1,0,0,rectangle,14,-2,1,0,0,14,-2,1,0,0,1,57,217,137,1,,,,,,,,
,,,,,,,,,,,,,FF,,,,,,,,1.2505,,,,,,,,,,,,,,,,,,,,,,60fb7a9fcbdab69a8f9c9cc2,61036efaf7839d9d6cf5905f,2021-07-29_22h17.12.694,Simcolourproject_2stim_asymm_v5,2020.2.10,Win32,60,61025ae37ef11b136ea224fe,,,,,,,,,438,67,37,1,0,0,response1disk,,6,8,-5,1,0,0,rectangle,8,-5,1,0,0,8,-5,1,0,0,1,58,218,116,1,,,,,,,,
,,,,,,,,,,,,,FF,,,,,,,,1.0295,,,,,,,,,,,,,,,,,,,,,,60fb7a9fcbdab69a8f9c9cc2,61036efaf7839d9d6cf5905f,2021-07-29_22h17.12.694,Simcolourproject_2stim_asymm_v5,2020.2.10,Win32,60,61025ae37ef11b136ea224fe,,,,,,,,,2493,77,-50,1,0,0,response3disk,,5,-2,0,1,0,0,rectangle,95,52,1,0,0,17,7,1,0,0,1,59,219,37,1,,response1disk_3,TRUE,6,6,"[177,141,226,10,134,294,93,162,223,52,220,177,310,88,143,317,260,234,89,33]",2.0696,rectangle
,,,,,,,,,,,,,FF,,,,,,,,2.1984,,,,,,,,,,,,,,,,,,,,,,60fb7a9fcbdab69a8f9c9cc2,61036efaf7839d9d6cf5905f,2021-07-29_22h17.12.694,Simcolourproject_2stim_asymm_v5,2020.2.10,Win32,60,61025ae37ef11b136ea224fe,,,,,,,,,1865,87,45,1,0,0,response1disk,,6,9,-3,1,0,0,rectangle,9,-3,1,0,0,9,-3,1,0,0,1,60,220,73,1,,,,,,,,
,,,,,,,,,,,,,FF,,,,,,,,1.1248,,,,,,,,,,,,,,,,,,,,,,60fb7a9fcbdab69a8f9c9cc2,61036efaf7839d9d6cf5905f,2021-07-29_22h17.12.694,Simcolourproject_2stim_asymm_v5,2020.2.10,Win32,60,61025ae37ef11b136ea224fe,,,,,,,,,2677,63,-36,1,0,0,response3disk,,5,-9,3,1,0,0,rectangle,-9,3,1,0,0,-9,3,1,0,0,1,61,221,71,1,,,,,,,,
,,,,,,,,,,,,,FF,,,,,,,,0.9996,,,,,,,,,,,,,,,,,,,,,,60fb7a9fcbdab69a8f9c9cc2,61036efaf7839d9d6cf5905f,2021-07-29_22h17.12.694,Simcolourproject_2stim_asymm_v5,2020.2.10,Win32,60,61025ae37ef11b136ea224fe,,,,,,,,,979,61,-26,1,0,0,response3disk,,5,7,5,1,0,0,rectangle,42,72,1,0,0,-3,4,1,0,0,1,62,222,51,1,,response1disk_3,TRUE,7,7,"[177,141,226,10,134,294,93,162,223,52,220,177,310,88,143,317,260,234,89,33]",1.7748,rectangle
,,,,,,,,,,,,,FF,,,,,,,,1.999,,,,,,,,,,,,,,,,,,,,,,60fb7a9fcbdab69a8f9c9cc2,61036efaf7839d9d6cf5905f,2021-07-29_22h17.12.694,Simcolourproject_2stim_asymm_v5,2020.2.10,Win32,60,61025ae37ef11b136ea224fe,,,,,,,,,4338,81,46,1,0,0,response1disk,,6,5,-3,1,0,0,rectangle,5,-3,1,0,0,5,-3,1,0,0,1,63,223,64,1,,,,,,,,
,,,,,,,,,,,,,FF,,,,,,,,2.4482,,,,,,,,,,,,,,,,,,,,,,60fb7a9fcbdab69a8f9c9cc2,61036efaf7839d9d6cf5905f,2021-07-29_22h17.12.694,Simcolourproject_2stim_asymm_v5,2020.2.10,Win32,60,61025ae37ef11b136ea224fe,,,,,,,,,1200,46,-80,1,0,0,response3disk,,4,9,-8,1,0,0,rectangle,9,-8,1,0,0,9,-8,1,0,0,1,64,224,50,1,,,,,,,,
,,,,,,,,,,,,,FF,,,,,,,,1.9484,,,,,,,,,,,,,,,,,,,,,,60fb7a9fcbdab69a8f9c9cc2,61036efaf7839d9d6cf5905f,2021-07-29_22h17.12.694,Simcolourproject_2stim_asymm_v5,2020.2.10,Win32,60,61025ae37ef11b136ea224fe,,,,,,,,,2590,72,-17,1,0,0,response3disk,,5,20,11,1,0,0,rectangle,82,30,1,0,0,31,5,1,0,0,1,65,225,154,1,,response1disk_3,TRUE,6,6,"[177,141,226,10,134,294,93,162,223,52,220,177,310,88,143,317,260,234,89,33]",1.7732,rectangle
,,,,,,,,,,,,,FF,,,,,,,,7.3931,,,,,,,,,,,,,,,,,,,,,,60fb7a9fcbdab69a8f9c9cc2,61036efaf7839d9d6cf5905f,2021-07-29_22h17.12.694,Simcolourproject_2stim_asymm_v5,2020.2.10,Win32,60,61025ae37ef11b136ea224fe,,,,,,,,,3627,52,-27,1,0,0,response3disk,,5,-18,11,1,0,0,rectangle,-18,11,1,0,0,-18,11,1,0,0,1,66,226,20,1,,,,,,,,
,,,,,,,,,,,,,FF,,,,,,,,1.5992,,,,,,,,,,,,,,,,,,,,,,60fb7a9fcbdab69a8f9c9cc2,61036efaf7839d9d6cf5905f,2021-07-29_22h17.12.694,Simcolourproject_2stim_asymm_v5,2020.2.10,Win32,60,61025ae37ef11b136ea224fe,,,,,,,,,405,85,60,1,0,0,response1disk,,6,18,8,1,0,0,rectangle,18,8,1,0,0,18,8,1,0,0,1,67,227,12,1,,,,,,,,
,,,,,,,,,,,,,FF,,,,,,,,1.025,,,,,,,,,,,,,,,,,,,,,,60fb7a9fcbdab69a8f9c9cc2,61036efaf7839d9d6cf5905f,2021-07-29_22h17.12.694,Simcolourproject_2stim_asymm_v5,2020.2.10,Win32,60,61025ae37ef11b136ea224fe,,,,,,,,,1472,76,30,1,0,0,response1disk,,6,4,-2,1,0,0,rectangle,4,-2,1,0,0,4,-2,1,0,0,1,68,228,103,1,,,,,,,,
,,,,,,,,,,,,,FF,,,,,,,,1.2995,,,,,,,,,,,,,,,,,,,,,,60fb7a9fcbdab69a8f9c9cc2,61036efaf7839d9d6cf5905f,2021-07-29_22h17.12.694,Simcolourproject_2stim_asymm_v5,2020.2.10,Win32,60,61025ae37ef11b136ea224fe,,,,,,,,,4124,50,-31,1,0,0,response3disk,,5,-5,2,1,0,0,rectangle,-5,2,1,0,0,-5,2,1,0,0,1,69,229,21,1,,,,,,,,
,,,,,,,,,,,,,FF,,,,,,,,2.1498,,,,,,,,,,,,,,,,,,,,,,60fb7a9fcbdab69a8f9c9cc2,61036efaf7839d9d6cf5905f,2021-07-29_22h17.12.694,Simcolourproject_2stim_asymm_v5,2020.2.10,Win32,60,61025ae37ef11b136ea224fe,,,,,,,,,1850,47,64,1,0,0,response1disk,,7,6,4,1,0,0,rectangle,6,4,1,0,0,6,4,1,0,0,1,70,230,105,1,,,,,,,,
,,,,,,,,,,,,,FF,,,,,,,,2.3515,,,,,,,,,,,,,,,,,,,,,,60fb7a9fcbdab69a8f9c9cc2,61036efaf7839d9d6cf5905f,2021-07-29_22h17.12.694,Simcolourproject_2stim_asymm_v5,2020.2.10,Win32,60,61025ae37ef11b136ea224fe,,,,,,,,,2069,71,31,1,0,0,response1disk,,6,20,-7,1,0,0,rectangle,20,-7,1,0,0,20,-7,1,0,0,1,71,231,75,1,,,,,,,,
,,,,,,,,,,,,,FF,,,,,,,,1.0742,,,,,,,,,,,,,,,,,,,,,,60fb7a9fcbdab69a8f9c9cc2,61036efaf7839d9d6cf5905f,2021-07-29_22h17.12.694,Simcolourproject_2stim_asymm_v5,2020.2.10,Win32,60,61025ae37ef11b136ea224fe,,,,,,,,,3589,65,39,1,0,0,response1disk,,6,4,10,1,0,0,rectangle,4,10,1,0,0,4,10,1,0,0,1,72,232,152,1,,,,,,,,
,,,,,,,,,,,,,FF,,,,,,,,3.8222,,,,,,,,,,,,,,,,,,,,,,60fb7a9fcbdab69a8f9c9cc2,61036efaf7839d9d6cf5905f,2021-07-29_22h17.12.694,Simcolourproject_2stim_asymm_v5,2020.2.10,Win32,60,61025ae37ef11b136ea224fe,,,,,,,,,1285,83,-29,1,0,0,response3disk,,5,30,-4,1,0,0,rectangle,-97,-43,1,0,0,-19,-6,1,0,0,1,73,233,19,1,,response5disk_3,TRUE,2,2,"[177,141,226,10,134,294,93,162,223,52,220,177,310,88,143,317,260,234,89,33]",1.726,rectangle
,,,,,,,,,,,,,FF,,,,,,,,2.9973,,,,,,,,,,,,,,,,,,,,,,60fb7a9fcbdab69a8f9c9cc2,61036efaf7839d9d6cf5905f,2021-07-29_22h17.12.694,Simcolourproject_2stim_asymm_v5,2020.2.10,Win32,60,61025ae37ef11b136ea224fe,,,,,,,,,1522,77,-30,1,0,0,response3disk,,5,13,1,1,0,0,rectangle,13,1,1,0,0,13,1,1,0,0,1,74,234,153,1,,,,,,,,
,,,,,,,,,,,,,FF,,,,,,,,1.827,,,,,,,,,,,,,,,,,,,,,,60fb7a9fcbdab69a8f9c9cc2,61036efaf7839d9d6cf5905f,2021-07-29_22h17.12.694,Simcolourproject_2stim_asymm_v5,2020.2.10,Win32,60,61025ae37ef11b136ea224fe,,,,,,,,,1408,53,93,1,0,0,response1disk,,7,7,-4,1,0,0,rectangle,7,-4,1,0,0,7,-4,1,0,0,1,75,235,146,1,,,,,,,,
,,,,,,,,,,,,,FF,,,,,,,,1.5984,,,,,,,,,,,,,,,,,,,,,,60fb7a9fcbdab69a8f9c9cc2,61036efaf7839d9d6cf5905f,2021-07-29_22h17.12.694,Simcolourproject_2stim_asymm_v5,2020.2.10,Win32,60,61025ae37ef11b136ea224fe,,,,,,,,,3728,29,52,1,0,0,response1disk,,7,-2,5,1,0,0,rectangle,-2,5,1,0,0,-2,5,1,0,0,1,76,236,81,1,,,,,,,,
,,,,,,,,,,,,,FF,,,,,,,,3.3754,,,,,,,,,,,,,,,,,,,,,,60fb7a9fcbdab69a8f9c9cc2,61036efaf7839d9d6cf5905f,2021-07-29_22h17.12.694,Simcolourproject_2stim_asymm_v5,2020.2.10,Win32,60,61025ae37ef11b136ea224fe,,,,,,,,,495,34,98,1,0,0,response1disk,,7,12,-2,1,0,0,rectangle,12,-2,1,0,0,12,-2,1,0,0,1,77,237,61,1,,,,,,,,
,,,,,,,,,,,,,FF,,,,,,,,3.6027,,,,,,,,,,,,,,,,,,,,,,60fb7a9fcbdab69a8f9c9cc2,61036efaf7839d9d6cf5905f,2021-07-29_22h17.12.694,Simcolourproject_2stim_asymm_v5,2020.2.10,Win32,60,61025ae37ef11b136ea224fe,,,,,,,,,25,45,66,1,0,0,response1disk,,7,20,7,1,0,0,rectangle,20,7,1,0,0,20,7,1,0,0,1,78,238,34,1,,,,,,,,
,,,,,,,,,,,,,FF,,,,,,,,3.1471,,,,,,,,,,,,,,,,,,,,,,60fb7a9fcbdab69a8f9c9cc2,61036efaf7839d9d6cf5905f,2021-07-29_22h17.12.694,Simcolourproject_2stim_asymm_v5,2020.2.10,Win32,60,61025ae37ef11b136ea224fe,,,,,,,,,1007,69,46,1,0,0,response1disk,,6,19,12,1,0,0,rectangle,19,12,1,0,0,19,12,1,0,0,1,79,239,133,1,,,,,,,,
,,,,,,,,,,,,,FF,,,,,,,,1.2989,,,,,,,,,,,,,,,,,,,,,,60fb7a9fcbdab69a8f9c9cc2,61036efaf7839d9d6cf5905f,2021-07-29_22h17.12.694,Simcolourproject_2stim_asymm_v5,2020.2.10,Win32,60,61025ae37ef11b136ea224fe,,,,,,,,,2024,39,74,1,0,0,response1disk,,7,-3,6,1,0,0,rectangle,-3,6,1,0,0,-3,6,1,0,0,1,80,240,17,1,,,,,,,,
,,,,,,,,,,,,,FF,,,,,,,,1.0494,,,,,,,,,,,,,,,,,,,,,,60fb7a9fcbdab69a8f9c9cc2,61036efaf7839d9d6cf5905f,2021-07-29_22h17.12.694,Simcolourproject_2stim_asymm_v5,2020.2.10,Win32,60,61025ae37ef11b136ea224fe,,,,,,,,,2384,38,74,1,0,0,response1disk,,7,9,4,1,0,0,rectangle,9,4,1,0,0,9,4,1,0,0,1,81,241,65,1,,,,,,,,
,,,,,,,,,,,,,FF,,,,,,,,1.4741,,,,,,,,,,,,,,,,,,,,,,60fb7a9fcbdab69a8f9c9cc2,61036efaf7839d9d6cf5905f,2021-07-29_22h17.12.694,Simcolourproject_2stim_asymm_v5,2020.2.10,Win32,60,61025ae37ef11b136ea224fe,,,,,,,,,3947,73,-38,1,0,0,response3disk,,5,7,-3,1,0,0,rectangle,7,-3,1,0,0,7,-3,1,0,0,1,82,242,106,1,,,,,,,,
,,,,,,,,,,,,,FF,,,,,,,,1.0748,,,,,,,,,,,,,,,,,,,,,,60fb7a9fcbdab69a8f9c9cc2,61036efaf7839d9d6cf5905f,2021-07-29_22h17.12.694,Simcolourproject_2stim_asymm_v5,2020.2.10,Win32,60,61025ae37ef11b136ea224fe,,,,,,,,,571,78,-39,1,0,0,response3disk,,5,5,9,1,0,0,rectangle,5,9,1,0,0,5,9,1,0,0,1,83,243,6,1,,,,,,,,
,,,,,,,,,,,,,FF,,,,,,,,1.2765,,,,,,,,,,,,,,,,,,,,,,60fb7a9fcbdab69a8f9c9cc2,61036efaf7839d9d6cf5905f,2021-07-29_22h17.12.694,Simcolourproject_2stim_asymm_v5,2020.2.10,Win32,60,61025ae37ef11b136ea224fe,,,,,,,,,2085,93,-56,1,0,0,response3disk,,5,11,-9,1,0,0,rectangle,11,-9,1,0,0,11,-9,1,0,0,1,84,244,40,1,,,,,,,,
,,,,,,,,,,,,,FF,,,,,,,,1.0498,,,,,,,,,,,,,,,,,,,,,,60fb7a9fcbdab69a8f9c9cc2,61036efaf7839d9d6cf5905f,2021-07-29_22h17.12.694,Simcolourproject_2stim_asymm_v5,2020.2.10,Win32,60,61025ae37ef11b136ea224fe,,,,,,,,,2566,66,39,1,0,0,response1disk,,6,-9,-1,1,0,0,rectangle,-9,-1,1,0,0,-9,-1,1,0,0,1,85,245,23,1,,,,,,,,
,,,,,,,,,,,,,FF,,,,,,,,1.1974,,,,,,,,,,,,,,,,,,,,,,60fb7a9fcbdab69a8f9c9cc2,61036efaf7839d9d6cf5905f,2021-07-29_22h17.12.694,Simcolourproject_2stim_asymm_v5,2020.2.10,Win32,60,61025ae37ef11b136ea224fe,,,,,,,,,4002,73,-34,1,0,0,response3disk,,5,0,10,1,0,0,rectangle,0,10,1,0,0,0,10,1,0,0,1,86,246,142,1,,,,,,,,
,,,,,,,,,,,,,FF,,,,,,,,2.1951,,,,,,,,,,,,,,,,,,,,,,60fb7a9fcbdab69a8f9c9cc2,61036efaf7839d9d6cf5905f,2021-07-29_22h17.12.694,Simcolourproject_2stim_asymm_v5,2020.2.10,Win32,60,61025ae37ef11b136ea224fe,,,,,,,,,336,72,-47,1,0,0,response3disk,,5,8,0,1,0,0,rectangle,8,0,1,0,0,8,0,1,0,0,1,87,247,48,1,,,,,,,,
,,,,,,,,,,,,,FF,,,,,,,,0.9259,,,,,,,,,,,,,,,,,,,,,,60fb7a9fcbdab69a8f9c9cc2,61036efaf7839d9d6cf5905f,2021-07-29_22h17.12.694,Simcolourproject_2stim_asymm_v5,2020.2.10,Win32,60,61025ae37ef11b136ea224fe,,,,,,,,,3926,48,-66,1,0,0,response3disk,,4,8,-1,1,0,0,rectangle,8,-1,1,0,0,8,-1,1,0,0,1,88,248,101,1,,,,,,,,
,,,,,,,,,,,,,FF,,,,,,,,1.3735,,,,,,,,,,,,,,,,,,,,,,60fb7a9fcbdab69a8f9c9cc2,61036efaf7839d9d6cf5905f,2021-07-29_22h17.12.694,Simcolourproject_2stim_asymm_v5,2020.2.10,Win32,60,61025ae37ef11b136ea224fe,,,,,,,,,1347,65,34,1,0,0,response1disk,,6,11,7,1,0,0,rectangle,11,7,1,0,0,11,7,1,0,0,1,89,249,32,1,,,,,,,,
,,,,,,,,,,,,,FF,,,,,,,,1.3752,,,,,,,,,,,,,,,,,,,,,,60fb7a9fcbdab69a8f9c9cc2,61036efaf7839d9d6cf5905f,2021-07-29_22h17.12.694,Simcolourproject_2stim_asymm_v5,2020.2.10,Win32,60,61025ae37ef11b136ea224fe,,,,,,,,,325,78,68,1,0,0,response1disk,,6,-1,3,1,0,0,rectangle,-1,3,1,0,0,-1,3,1,0,0,1,90,250,135,1,,,,,,,,
,,,,,,,,,,,,,FF,,,,,,,,3.347,,,,,,,,,,,,,,,,,,,,,,60fb7a9fcbdab69a8f9c9cc2,61036efaf7839d9d6cf5905f,2021-07-29_22h17.12.694,Simcolourproject_2stim_asymm_v5,2020.2.10,Win32,60,61025ae37ef11b136ea224fe,,,,,,,,,647,100,74,1,0,0,response1disk,,6,-13,4,1,0,0,rectangle,-13,4,1,0,0,-13,4,1,0,0,1,91,251,1,1,,,,,,,,
,,,,,,,,,,,,,FF,,,,,,,,0.9947,,,,,,,,,,,,,,,,,,,,,,60fb7a9fcbdab69a8f9c9cc2,61036efaf7839d9d6cf5905f,2021-07-29_22h17.12.694,Simcolourproject_2stim_asymm_v5,2020.2.10,Win32,60,61025ae37ef11b136ea224fe,,,,,,,,,2591,66,40,1,0,0,response1disk,,6,4,3,1,0,0,rectangle,4,3,1,0,0,4,3,1,0,0,1,92,252,90,1,,,,,,,,
,,,,,,,,,,,,,FF,,,,,,,,2.2772,,,,,,,,,,,,,,,,,,,,,,60fb7a9fcbdab69a8f9c9cc2,61036efaf7839d9d6cf5905f,2021-07-29_22h17.12.694,Simcolourproject_2stim_asymm_v5,2020.2.10,Win32,60,61025ae37ef11b136ea224fe,,,,,,,,,2690,74,33,1,0,0,response1disk,,6,14,1,1,0,0,rectangle,14,1,1,0,0,14,1,1,0,0,1,93,253,14,1,,,,,,,,
,,,,,,,,,,,,,FF,,,,,,,,1.3773,,,,,,,,,,,,,,,,,,,,,,60fb7a9fcbdab69a8f9c9cc2,61036efaf7839d9d6cf5905f,2021-07-29_22h17.12.694,Simcolourproject_2stim_asymm_v5,2020.2.10,Win32,60,61025ae37ef11b136ea224fe,,,,,,,,,1940,57,93,1,0,0,response1disk,,7,3,11,1,0,0,rectangle,3,11,1,0,0,3,11,1,0,0,1,94,254,55,1,,,,,,,,
,,,,,,,,,,,,,FF,,,,,,,,1.7948,,,,,,,,,,,,,,,,,,,,,,60fb7a9fcbdab69a8f9c9cc2,61036efaf7839d9d6cf5905f,2021-07-29_22h17.12.694,Simcolourproject_2stim_asymm_v5,2020.2.10,Win32,60,61025ae37ef11b136ea224fe,,,,,,,,,3518,26,-89,1,0,0,response3disk,,4,0,9,1,0,0,rectangle,0,9,1,0,0,0,9,1,0,0,1,95,255,107,1,,,,,,,,
,,,,,,,,,,,,,FF,,,,,,,,1.5843,,,,,,,,,,,,,,,,,,,,,,60fb7a9fcbdab69a8f9c9cc2,61036efaf7839d9d6cf5905f,2021-07-29_22h17.12.694,Simcolourproject_2stim_asymm_v5,2020.2.10,Win32,60,61025ae37ef11b136ea224fe,,,,,,,,,1378,33,-83,1,0,0,response3disk,,4,10,-3,1,0,0,rectangle,10,-3,1,0,0,10,-3,1,0,0,1,96,256,54,1,,,,,,,,
,,,,,,,,,,,,,FF,,,,,,,,1.4242,,,,,,,,,,,,,,,,,,,,,,60fb7a9fcbdab69a8f9c9cc2,61036efaf7839d9d6cf5905f,2021-07-29_22h17.12.694,Simcolourproject_2stim_asymm_v5,2020.2.10,Win32,60,61025ae37ef11b136ea224fe,,,,,,,,,2700,42,87,1,0,0,response1disk,,7,1,3,1,0,0,rectangle,1,3,1,0,0,1,3,1,0,0,1,97,257,3,1,,,,,,,,
,,,,,,,,,,,,,FF,,,,,,,,1.2542,,,,,,,,,,,,,,,,,,,,,,60fb7a9fcbdab69a8f9c9cc2,61036efaf7839d9d6cf5905f,2021-07-29_22h17.12.694,Simcolourproject_2stim_asymm_v5,2020.2.10,Win32,60,61025ae37ef11b136ea224fe,,,,,,,,,2097,25,-82,1,0,0,response3disk,,4,-1,-11,1,0,0,rectangle,-1,-11,1,0,0,-1,-11,1,0,0,1,98,258,98,1,,,,,,,,
,,,,,,,,,,,,,FF,,,,,,,,0.8484,,,,,,,,,,,,,,,,,,,,,,60fb7a9fcbdab69a8f9c9cc2,61036efaf7839d9d6cf5905f,2021-07-29_22h17.12.694,Simcolourproject_2stim_asymm_v5,2020.2.10,Win32,60,61025ae37ef11b136ea224fe,,,,,,,,,2424,44,-82,1,0,0,response3disk,,4,4,-5,1,0,0,rectangle,63,-41,1,0,0,3,14,1,0,0,1,99,259,76,1,,response3disk_3,TRUE,5,5,"[177,141,226,10,134,294,93,162,223,52,220,177,310,88,143,317,260,234,89,33]",1.6786,rectangle
,,,,,,,,,,,,,FF,,,,,,,,1.9512,,,,,,,,,,,,,,,,,,,,,,60fb7a9fcbdab69a8f9c9cc2,61036efaf7839d9d6cf5905f,2021-07-29_22h17.12.694,Simcolourproject_2stim_asymm_v5,2020.2.10,Win32,60,61025ae37ef11b136ea224fe,,,,,,,,,2510,64,27,1,0,0,response1disk,,6,6,5,1,0,0,rectangle,6,5,1,0,0,6,5,1,0,0,1,100,260,110,1,,,,,,,,
,,,,,,,,,,,,,FF,,,,,,,,2.3243,,,,,,,,,,,,,,,,,,,,,,60fb7a9fcbdab69a8f9c9cc2,61036efaf7839d9d6cf5905f,2021-07-29_22h17.12.694,Simcolourproject_2stim_asymm_v5,2020.2.10,Win32,60,61025ae37ef11b136ea224fe,,,,,,,,,3805,46,81,1,0,0,response1disk,,7,3,5,1,0,0,rectangle,3,5,1,0,0,3,5,1,0,0,1,101,261,9,1,,,,,,,,
,,,,,,,,,,,,,FF,,,,,,,,1.4473,,,,,,,,,,,,,,,,,,,,,,60fb7a9fcbdab69a8f9c9cc2,61036efaf7839d9d6cf5905f,2021-07-29_22h17.12.694,Simcolourproject_2stim_asymm_v5,2020.2.10,Win32,60,61025ae37ef11b136ea224fe,,,,,,,,,1510,71,48,1,0,0,response1disk,,6,2,9,1,0,0,rectangle,2,9,1,0,0,2,9,1,0,0,1,102,262,97,1,,,,,,,,
,,,,,,,,,,,,,FF,,,,,,,,4.4442,,,,,,,,,,,,,,,,,,,,,,60fb7a9fcbdab69a8f9c9cc2,61036efaf7839d9d6cf5905f,2021-07-29_22h17.12.694,Simcolourproject_2stim_asymm_v5,2020.2.10,Win32,60,61025ae37ef11b136ea224fe,,,,,,,,,1785,70,-38,1,0,0,response3disk,,5,32,-6,1,0,0,rectangle,32,-6,1,0,0,32,-6,1,0,0,1,103,263,84,1,,,,,,,,
,,,,,,,,,,,,,FF,,,,,,,,1.0796,,,,,,,,,,,,,,,,,,,,,,60fb7a9fcbdab69a8f9c9cc2,61036efaf7839d9d6cf5905f,2021-07-29_22h17.12.694,Simcolourproject_2stim_asymm_v5,2020.2.10,Win32,60,61025ae37ef11b136ea224fe,,,,,,,,,4231,62,-31,1,0,0,response3disk,,5,-7,2,1,0,0,rectangle,-7,2,1,0,0,-7,2,1,0,0,1,104,264,36,1,,,,,,,,
,,,,,,,,,,,,,FF,,,,,,,,3.9803,,,,,,,,,,,,,,,,,,,,,,60fb7a9fcbdab69a8f9c9cc2,61036efaf7839d9d6cf5905f,2021-07-29_22h17.12.694,Simcolourproject_2stim_asymm_v5,2020.2.10,Win32,60,61025ae37ef11b136ea224fe,,,,,,,,,3661,77,-42,1,0,0,response3disk,,5,-1,15,1,0,0,rectangle,-1,15,1,0,0,-1,15,1,0,0,1,105,265,147,1,,,,,,,,
,,,,,,,,,,,,,FF,,,,,,,,1.1002,,,,,,,,,,,,,,,,,,,,,,60fb7a9fcbdab69a8f9c9cc2,61036efaf7839d9d6cf5905f,2021-07-29_22h17.12.694,Simcolourproject_2stim_asymm_v5,2020.2.10,Win32,60,61025ae37ef11b136ea224fe,,,,,,,,,2365,36,-74,1,0,0,response3disk,,4,14,-10,1,0,0,rectangle,14,-10,1,0,0,14,-10,1,0,0,1,106,266,96,1,,,,,,,,
,,,,,,,,,,,,,FF,,,,,,,,1.6448,,,,,,,,,,,,,,,,,,,,,,60fb7a9fcbdab69a8f9c9cc2,61036efaf7839d9d6cf5905f,2021-07-29_22h17.12.694,Simcolourproject_2stim_asymm_v5,2020.2.10,Win32,60,61025ae37ef11b136ea224fe,,,,,,,,,1638,63,-25,1,0,0,response3disk,,5,15,0,1,0,0,rectangle,15,0,1,0,0,15,0,1,0,0,1,107,267,122,1,,,,,,,,
,,,,,,,,,,,,,FF,,,,,,,,1,,,,,,,,,,,,,,,,,,,,,,60fb7a9fcbdab69a8f9c9cc2,61036efaf7839d9d6cf5905f,2021-07-29_22h17.12.694,Simcolourproject_2stim_asymm_v5,2020.2.10,Win32,60,61025ae37ef11b136ea224fe,,,,,,,,,3890,25,69,1,0,0,response1disk,,7,21,3,1,0,0,rectangle,21,3,1,0,0,21,3,1,0,0,1,108,268,28,1,,,,,,,,
,,,,,,,,,,,,,FF,,,,,,,,1.0236,,,,,,,,,,,,,,,,,,,,,,60fb7a9fcbdab69a8f9c9cc2,61036efaf7839d9d6cf5905f,2021-07-29_22h17.12.694,Simcolourproject_2stim_asymm_v5,2020.2.10,Win32,60,61025ae37ef11b136ea224fe,,,,,,,,,505,22,94,1,0,0,response1disk,,7,-16,-4,1,0,0,rectangle,-16,-4,1,0,0,-16,-4,1,0,0,1,109,269,111,1,,,,,,,,
,,,,,,,,,,,,,FF,,,,,,,,1.7239,,,,,,,,,,,,,,,,,,,,,,60fb7a9fcbdab69a8f9c9cc2,61036efaf7839d9d6cf5905f,2021-07-29_22h17.12.694,Simcolourproject_2stim_asymm_v5,2020.2.10,Win32,60,61025ae37ef11b136ea224fe,,,,,,,,,303,92,34,1,0,0,response1disk,,6,5,7,1,0,0,rectangle,5,7,1,0,0,5,7,1,0,0,1,110,270,7,1,,,,,,,,
,,,,,,,,,,,,,FF,,,,,,,,1.7236,,,,,,,,,,,,,,,,,,,,,,60fb7a9fcbdab69a8f9c9cc2,61036efaf7839d9d6cf5905f,2021-07-29_22h17.12.694,Simcolourproject_2stim_asymm_v5,2020.2.10,Win32,60,61025ae37ef11b136ea224fe,,,,,,,,,3161,73,42,1,0,0,response1disk,,6,9,-2,1,0,0,rectangle,9,-2,1,0,0,9,-2,1,0,0,1,111,271,66,1,,,,,,,,
,,,,,,,,,,,,,FF,,,,,,,,1.3511,,,,,,,,,,,,,,,,,,,,,,60fb7a9fcbdab69a8f9c9cc2,61036efaf7839d9d6cf5905f,2021-07-29_22h17.12.694,Simcolourproject_2stim_asymm_v5,2020.2.10,Win32,60,61025ae37ef11b136ea224fe,,,,,,,,,3243,-88,-70,1,0,0,response5disk,,2,-4,-4,1,0,0,rectangle,-4,-4,1,0,0,-4,-4,1,0,0,1,112,272,129,1,,,,,,,,
,,,,,,,,,,,,,FF,,,,,,,,2.1965,,,,,,,,,,,,,,,,,,,,,,60fb7a9fcbdab69a8f9c9cc2,61036efaf7839d9d6cf5905f,2021-07-29_22h17.12.694,Simcolourproject_2stim_asymm_v5,2020.2.10,Win32,60,61025ae37ef11b136ea224fe,,,,,,,,,463,33,-83,1,0,0,response3disk,,4,-4,1,1,0,0,rectangle,-4,1,1,0,0,-4,1,1,0,0,1,113,273,5,1,,,,,,,,
,,,,,,,,,,,,,FF,,,,,,,,2.572,,,,,,,,,,,,,,,,,,,,,,60fb7a9fcbdab69a8f9c9cc2,61036efaf7839d9d6cf5905f,2021-07-29_22h17.12.694,Simcolourproject_2stim_asymm_v5,2020.2.10,Win32,60,61025ae37ef11b136ea224fe,,,,,,,,,1574,85,38,1,0,0,response1disk,,6,15,13,1,0,0,rectangle,15,13,1,0,0,15,13,1,0,0,1,114,274,52,1,,,,,,,,
,,,,,,,,,,,,,FF,,,,,,,,1.025,,,,,,,,,,,,,,,,,,,,,,60fb7a9fcbdab69a8f9c9cc2,61036efaf7839d9d6cf5905f,2021-07-29_22h17.12.694,Simcolourproject_2stim_asymm_v5,2020.2.10,Win32,60,61025ae37ef11b136ea224fe,,,,,,,,,1645,38,67,1,0,0,response1disk,,7,-3,0,1,0,0,rectangle,-3,0,1,0,0,-3,0,1,0,0,1,115,275,67,1,,,,,,,,
,,,,,,,,,,,,,FF,,,,,,,,1.1998,,,,,,,,,,,,,,,,,,,,,,60fb7a9fcbdab69a8f9c9cc2,61036efaf7839d9d6cf5905f,2021-07-29_22h17.12.694,Simcolourproject_2stim_asymm_v5,2020.2.10,Win32,60,61025ae37ef11b136ea224fe,,,,,,,,,127,34,55,1,0,0,response1disk,,7,0,-6,1,0,0,rectangle,0,-6,1,0,0,0,-6,1,0,0,1,116,276,109,1,,,,,,,,
,,,,,,,,,,,,,FF,,,,,,,,1.0735,,,,,,,,,,,,,,,,,,,,,,60fb7a9fcbdab69a8f9c9cc2,61036efaf7839d9d6cf5905f,2021-07-29_22h17.12.694,Simcolourproject_2stim_asymm_v5,2020.2.10,Win32,60,61025ae37ef11b136ea224fe,,,,,,,,,1610,-36,-73,1,0,0,response5disk,,3,-4,-3,1,0,0,rectangle,-4,-3,1,0,0,-4,-3,1,0,0,1,117,277,41,1,,,,,,,,
,,,,,,,,,,,,,FF,,,,,,,,1.1488,,,,,,,,,,,,,,,,,,,,,,60fb7a9fcbdab69a8f9c9cc2,61036efaf7839d9d6cf5905f,2021-07-29_22h17.12.694,Simcolourproject_2stim_asymm_v5,2020.2.10,Win32,60,61025ae37ef11b136ea224fe,,,,,,,,,167,-37,-50,1,0,0,response5disk,,3,-1,13,1,0,0,rectangle,-1,13,1,0,0,-1,13,1,0,0,1,118,278,148,1,,,,,,,,
,,,,,,,,,,,,,FF,,,,,,,,1.0272,,,,,,,,,,,,,,,,,,,,,,60fb7a9fcbdab69a8f9c9cc2,61036efaf7839d9d6cf5905f,2021-07-29_22h17.12.694,Simcolourproject_2stim_asymm_v5,2020.2.10,Win32,60,61025ae37ef11b136ea224fe,,,,,,,,,1051,-72,-33,1,0,0,response5disk,,2,-20,-2,1,0,0,rectangle,-20,-2,1,0,0,-20,-2,1,0,0,1,119,279,155,1,,,,,,,,
,,,,,,,,,,,,,FF,,,,,,,,3.6474,,,,,,,,,,,,,,,,,,,,,,60fb7a9fcbdab69a8f9c9cc2,61036efaf7839d9d6cf5905f,2021-07-29_22h17.12.694,Simcolourproject_2stim_asymm_v5,2020.2.10,Win32,60,61025ae37ef11b136ea224fe,,,,,,,,,3867,101,32,1,0,0,response1disk,,6,24,4,1,0,0,rectangle,24,4,1,0,0,24,4,1,0,0,1,120,280,94,1,,,,,,,,
,,,,,,,,,,,,,FF,,,,,,,,0.9545,,,,,,,,,,,,,,,,,,,,,,60fb7a9fcbdab69a8f9c9cc2,61036efaf7839d9d6cf5905f,2021-07-29_22h17.12.694,Simcolourproject_2stim_asymm_v5,2020.2.10,Win32,60,61025ae37ef11b136ea224fe,,,,,,,,,770,58,32,1,0,0,response1disk,,6,-1,-1,1,0,0,rectangle,-1,-1,1,0,0,-1,-1,1,0,0,1,121,281,27,1,,,,,,,,
,,,,,,,,,,,,,FF,,,,,,,,1.9262,,,,,,,,,,,,,,,,,,,,,,60fb7a9fcbdab69a8f9c9cc2,61036efaf7839d9d6cf5905f,2021-07-29_22h17.12.694,Simcolourproject_2stim_asymm_v5,2020.2.10,Win32,60,61025ae37ef11b136ea224fe,,,,,,,,,2836,60,85,1,0,0,response1disk,,7,9,1,1,0,0,rectangle,9,1,1,0,0,9,1,1,0,0,1,122,282,29,1,,,,,,,,
,,,,,,,,,,,,,FF,,,,,,,,1.0252,,,,,,,,,,,,,,,,,,,,,,60fb7a9fcbdab69a8f9c9cc2,61036efaf7839d9d6cf5905f,2021-07-29_22h17.12.694,Simcolourproject_2stim_asymm_v5,2020.2.10,Win32,60,61025ae37ef11b136ea224fe,,,,,,,,,820,65,37,1,0,0,response1disk,,6,-4,3,1,0,0,rectangle,-4,3,1,0,0,-4,3,1,0,0,1,123,283,43,1,,,,,,,,
,,,,,,,,,,,,,FF,,,,,,,,1.0996,,,,,,,,,,,,,,,,,,,,,,60fb7a9fcbdab69a8f9c9cc2,61036efaf7839d9d6cf5905f,2021-07-29_22h17.12.694,Simcolourproject_2stim_asymm_v5,2020.2.10,Win32,60,61025ae37ef11b136ea224fe,,,,,,,,,1293,-32,-62,1,0,0,response5disk,,3,-5,4,1,0,0,rectangle,-5,4,1,0,0,-5,4,1,0,0,1,124,284,88,1,,,,,,,,
,,,,,,,,,,,,,FF,,,,,,,,1.4714,,,,,,,,,,,,,,,,,,,,,,60fb7a9fcbdab69a8f9c9cc2,61036efaf7839d9d6cf5905f,2021-07-29_22h17.12.694,Simcolourproject_2stim_asymm_v5,2020.2.10,Win32,60,61025ae37ef11b136ea224fe,,,,,,,,,3972,-30,-77,1,0,0,response5disk,,3,-3,-11,1,0,0,rectangle,-3,-11,1,0,0,-3,-11,1,0,0,1,125,285,104,1,,,,,,,,
,,,,,,,,,,,,,FF,,,,,,,,1.0028,,,,,,,,,,,,,,,,,,,,,,60fb7a9fcbdab69a8f9c9cc2,61036efaf7839d9d6cf5905f,2021-07-29_22h17.12.694,Simcolourproject_2stim_asymm_v5,2020.2.10,Win32,60,61025ae37ef11b136ea224fe,,,,,,,,,1775,67,28,1,0,0,response1disk,,6,16,3,1,0,0,rectangle,16,3,1,0,0,16,3,1,0,0,1,126,286,77,1,,,,,,,,
,,,,,,,,,,,,,FF,,,,,,,,0.9184,,,,,,,,,,,,,,,,,,,,,,60fb7a9fcbdab69a8f9c9cc2,61036efaf7839d9d6cf5905f,2021-07-29_22h17.12.694,Simcolourproject_2stim_asymm_v5,2020.2.10,Win32,60,61025ae37ef11b136ea224fe,,,,,,,,,3329,47,31,1,0,0,response1disk,,6,16,13,1,0,0,rectangle,16,13,1,0,0,16,13,1,0,0,1,127,287,30,1,,,,,,,,
,,,,,,,,,,,,,FF,,,,,,,,1.8487,,,,,,,,,,,,,,,,,,,,,,60fb7a9fcbdab69a8f9c9cc2,61036efaf7839d9d6cf5905f,2021-07-29_22h17.12.694,Simcolourproject_2stim_asymm_v5,2020.2.10,Win32,60,61025ae37ef11b136ea224fe,,,,,,,,,2208,75,53,1,0,0,response1disk,,6,0,1,1,0,0,rectangle,0,1,1,0,0,0,1,1,0,0,1,128,288,72,1,,,,,,,,
,,,,,,,,,,,,,FF,,,,,,,,1.8771,,,,,,,,,,,,,,,,,,,,,,60fb7a9fcbdab69a8f9c9cc2,61036efaf7839d9d6cf5905f,2021-07-29_22h17.12.694,Simcolourproject_2stim_asymm_v5,2020.2.10,Win32,60,61025ae37ef11b136ea224fe,,,,,,,,,4137,31,83,1,0,0,response1disk,,7,4,0,1,0,0,rectangle,4,0,1,0,0,4,0,1,0,0,1,129,289,113,1,,,,,,,,
,,,,,,,,,,,,,FF,,,,,,,,1.5769,,,,,,,,,,,,,,,,,,,,,,60fb7a9fcbdab69a8f9c9cc2,61036efaf7839d9d6cf5905f,2021-07-29_22h17.12.694,Simcolourproject_2stim_asymm_v5,2020.2.10,Win32,60,61025ae37ef11b136ea224fe,,,,,,,,,237,79,51,1,0,0,response1disk,,6,15,-3,1,0,0,rectangle,15,-3,1,0,0,15,-3,1,0,0,1,130,290,118,1,,,,,,,,
,,,,,,,,,,,,,FF,,,,,,,,0.8748,,,,,,,,,,,,,,,,,,,,,,60fb7a9fcbdab69a8f9c9cc2,61036efaf7839d9d6cf5905f,2021-07-29_22h17.12.694,Simcolourproject_2stim_asymm_v5,2020.2.10,Win32,60,61025ae37ef11b136ea224fe,,,,,,,,,1266,66,35,1,0,0,response1disk,,6,3,6,1,0,0,rectangle,3,6,1,0,0,3,6,1,0,0,1,131,291,85,1,,,,,,,,
,,,,,,,,,,,,,FF,,,,,,,,0.7505,,,,,,,,,,,,,,,,,,,,,,60fb7a9fcbdab69a8f9c9cc2,61036efaf7839d9d6cf5905f,2021-07-29_22h17.12.694,Simcolourproject_2stim_asymm_v5,2020.2.10,Win32,60,61025ae37ef11b136ea224fe,,,,,,,,,3573,79,27,1,0,0,response1disk,,6,12,4,1,0,0,rectangle,12,4,1,0,0,12,4,1,0,0,1,132,292,83,1,,,,,,,,
,,,,,,,,,,,,,FF,,,,,,,,1.2493,,,,,,,,,,,,,,,,,,,,,,60fb7a9fcbdab69a8f9c9cc2,61036efaf7839d9d6cf5905f,2021-07-29_22h17.12.694,Simcolourproject_2stim_asymm_v5,2020.2.10,Win32,60,61025ae37ef11b136ea224fe,,,,,,,,,917,70,-34,1,0,0,response3disk,,5,-3,0,1,0,0,rectangle,-89,47,1,0,0,-11,1,1,0,0,1,133,293,63,1,,response7disk_3,TRUE,1,1,"[177,141,226,10,134,294,93,162,223,52,220,177,310,88,143,317,260,234,89,33]",1.9329,rectangle
,,,,,,,,,,,,,FF,,,,,,,,2.1481,,,,,,,,,,,,,,,,,,,,,,60fb7a9fcbdab69a8f9c9cc2,61036efaf7839d9d6cf5905f,2021-07-29_22h17.12.694,Simcolourproject_2stim_asymm_v5,2020.2.10,Win32,60,61025ae37ef11b136ea224fe,,,,,,,,,2217,70,34,1,0,0,response1disk,,6,-2,-4,1,0,0,rectangle,-2,-4,1,0,0,-2,-4,1,0,0,1,134,294,47,1,,,,,,,,
,,,,,,,,,,,,,FF,,,,,,,,2.044,,,,,,,,,,,,,,,,,,,,,,60fb7a9fcbdab69a8f9c9cc2,61036efaf7839d9d6cf5905f,2021-07-29_22h17.12.694,Simcolourproject_2stim_asymm_v5,2020.2.10,Win32,60,61025ae37ef11b136ea224fe,,,,,,,,,1589,-25,-75,1,0,0,response5disk,,3,-6,10,1,0,0,rectangle,-6,10,1,0,0,-6,10,1,0,0,1,135,295,131,1,,,,,,,,
,,,,,,,,,,,,,FF,,,,,,,,1.999,,,,,,,,,,,,,,,,,,,,,,60fb7a9fcbdab69a8f9c9cc2,61036efaf7839d9d6cf5905f,2021-07-29_22h17.12.694,Simcolourproject_2stim_asymm_v5,2020.2.10,Win32,60,61025ae37ef11b136ea224fe,,,,,,,,,2223,86,-45,1,0,0,response3disk,,5,24,1,1,0,0,rectangle,24,1,1,0,0,24,1,1,0,0,1,136,296,140,1,,,,,,,,
,,,,,,,,,,,,,FF,,,,,,,,1.5243,,,,,,,,,,,,,,,,,,,,,,60fb7a9fcbdab69a8f9c9cc2,61036efaf7839d9d6cf5905f,2021-07-29_22h17.12.694,Simcolourproject_2stim_asymm_v5,2020.2.10,Win32,60,61025ae37ef11b136ea224fe,,,,,,,,,1672,63,-86,1,0,0,response3disk,,4,8,0,1,0,0,rectangle,8,0,1,0,0,8,0,1,0,0,1,137,297,115,1,,,,,,,,
,,,,,,,,,,,,,FF,,,,,,,,1.4185,,,,,,,,,,,,,,,,,,,,,,60fb7a9fcbdab69a8f9c9cc2,61036efaf7839d9d6cf5905f,2021-07-29_22h17.12.694,Simcolourproject_2stim_asymm_v5,2020.2.10,Win32,60,61025ae37ef11b136ea224fe,,,,,,,,,640,74,-43,1,0,0,response3disk,,5,11,0,1,0,0,rectangle,11,0,1,0,0,11,0,1,0,0,1,138,298,79,1,,,,,,,,
,,,,,,,,,,,,,FF,,,,,,,,0.9245,,,,,,,,,,,,,,,,,,,,,,60fb7a9fcbdab69a8f9c9cc2,61036efaf7839d9d6cf5905f,2021-07-29_22h17.12.694,Simcolourproject_2stim_asymm_v5,2020.2.10,Win32,60,61025ae37ef11b136ea224fe,,,,,,,,,580,57,31,1,0,0,response1disk,,6,10,0,1,0,0,rectangle,10,0,1,0,0,10,0,1,0,0,1,139,299,138,1,,,,,,,,
,,,,,,,,,,,,,FF,,,,,,,,1.3482,,,,,,,,,,,,,,,,,,,,,,60fb7a9fcbdab69a8f9c9cc2,61036efaf7839d9d6cf5905f,2021-07-29_22h17.12.694,Simcolourproject_2stim_asymm_v5,2020.2.10,Win32,60,61025ae37ef11b136ea224fe,,,,,,,,,2144,24,95,1,0,0,response1disk,,7,1,-2,1,0,0,rectangle,1,-2,1,0,0,1,-2,1,0,0,1,140,300,59,1,,,,,,,,
,,,,,,,,,,,,,FF,,,,,,,,2.3479,,,,,,,,,,,,,,,,,,,,,,60fb7a9fcbdab69a8f9c9cc2,61036efaf7839d9d6cf5905f,2021-07-29_22h17.12.694,Simcolourproject_2stim_asymm_v5,2020.2.10,Win32,60,61025ae37ef11b136ea224fe,,,,,,,,,733,68,-32,1,0,0,response3disk,,5,24,-7,1,0,0,rectangle,24,-7,1,0,0,24,-7,1,0,0,1,141,301,18,1,,,,,,,,
,,,,,,,,,,,,,FF,,,,,,,,1.3228,,,,,,,,,,,,,,,,,,,,,,60fb7a9fcbdab69a8f9c9cc2,61036efaf7839d9d6cf5905f,2021-07-29_22h17.12.694,Simcolourproject_2stim_asymm_v5,2020.2.10,Win32,60,61025ae37ef11b136ea224fe,,,,,,,,,2891,-43,-79,1,0,0,response5disk,,3,2,0,1,0,0,rectangle,2,0,1,0,0,2,0,1,0,0,1,142,302,114,1,,,,,,,,
,,,,,,,,,,,,,FF,,,,,,,,1.1744,,,,,,,,,,,,,,,,,,,,,,60fb7a9fcbdab69a8f9c9cc2,61036efaf7839d9d6cf5905f,2021-07-29_22h17.12.694,Simcolourproject_2stim_asymm_v5,2020.2.10,Win32,60,61025ae37ef11b136ea224fe,,,,,,,,,431,85,30,1,0,0,response1disk,,6,-5,2,1,0,0,rectangle,-5,2,1,0,0,-5,2,1,0,0,1,143,303,130,1,,,,,,,,
