key_resp.keys,key_resp.rt,key_resp_14.keys,key_resp_14.rt,key_resp_15.keys,key_resp_15.rt,key_resp_17.keys,key_resp_17.rt,key_resp_9.keys,key_resp_9.rt,key_resp_10.keys,key_resp_10.rt,practice_comparison,Ecc,mouse_5.x,mouse_5.y,mouse_5.leftButton,mouse_5.midButton,mouse_5.rightButton,mouse_5.clicked_name,pracsimilarity,response_time,mouse_10.x,mouse_10.y,mouse_10.leftButton,mouse_10.midButton,mouse_10.rightButton,mouse_10.clicked_name,mouse_7.x,mouse_7.y,mouse_7.leftButton,mouse_7.midButton,mouse_7.rightButton,mouse_6.x,mouse_6.y,mouse_6.leftButton,mouse_6.midButton,mouse_6.rightButton,duringprac.thisRepN,duringprac.thisTrialN,duringprac.thisN,duringprac.thisIndex,duringprac.ran,participant,session,date,expName,psychopyVersion,OS,frameRate,study_id,mouse_7.clicked_name,catchpracsimilarity,catch_response_time,catchnumberprac,catchtrialorderprac,mouse_6.clicked_name,key_resp_22.keys,key_resp_22.rt,realcomparison,mouse.x,mouse.y,mouse.leftButton,mouse.midButton,mouse.rightButton,mouse.clicked_name,Colour2,similarity,mouse_2.x,mouse_2.y,mouse_2.leftButton,mouse_2.midButton,mouse_2.rightButton,mouse_2.clicked_name,mouse_3.x,mouse_3.y,mouse_3.leftButton,mouse_3.midButton,mouse_3.rightButton,mouse_11.x,mouse_11.y,mouse_11.leftButton,mouse_11.midButton,mouse_11.rightButton,trials_2.thisRepN,trials_2.thisTrialN,trials_2.thisN,trials_2.thisIndex,trials_2.ran,Colour1,mouse_3.clicked_name,catchornah,catchsimilarity,catchnumber,catchtrialorder,catchRT,mouse_11.clicked_name
space,3.933,space,34.0202,space,990.0396,space,35.7966,space,7.858,space,16.5754,123,FF,-44,94,1,0,0,response7disk_5,0,4.8179,2,-9,1,0,0,rectangle_8,2,-9,1,0,0,2,-9,1,0,0,0,0,0,0,1,60fb1eeb25785cbdfbcbdf02,61036e863c221507b344c664,2021-07-29_23h17.06.126,Simcolourproject_2stim_asymm_v5,2020.2.10,Win32,60,61025ae37ef11b136ea224fe,,,,,,,,,,,,,,,,,,,,,,,,,,,,,,,,,,,,,,,,,,,,,,
,,,,,,,,,,,,80,PF,54,-79,1,0,0,response3disk_5,4,74.2087,-11,-2,1,0,0,rectangle_8,90,55,1,0,0,10,1,1,0,0,0,1,1,1,1,60fb1eeb25785cbdfbcbdf02,61036e863c221507b344c664,2021-07-29_23h17.06.126,Simcolourproject_2stim_asymm_v5,2020.2.10,Win32,60,61025ae37ef11b136ea224fe,response1disk_7,6,1.2675,5,"[2,5]",rectangle_4,,,,,,,,,,,,,,,,,,,,,,,,,,,,,,,,,,,,,,,,
,,,,,,,,,,,,50,PF,-43,-85,1,0,0,response5disk_5,3,2.5831,1,4,1,0,0,rectangle_8,1,4,1,0,0,1,4,1,0,0,0,2,2,2,1,60fb1eeb25785cbdfbcbdf02,61036e863c221507b344c664,2021-07-29_23h17.06.126,Simcolourproject_2stim_asymm_v5,2020.2.10,Win32,60,61025ae37ef11b136ea224fe,,,,,,,,,,,,,,,,,,,,,,,,,,,,,,,,,,,,,,,,,,,,,,
,,,,,,,,,,,,123,FF,-70,-28,1,0,0,response5disk_5,2,3.4498,2,5,1,0,0,rectangle_8,2,5,1,0,0,2,5,1,0,0,0,3,3,3,1,60fb1eeb25785cbdfbcbdf02,61036e863c221507b344c664,2021-07-29_23h17.06.126,Simcolourproject_2stim_asymm_v5,2020.2.10,Win32,60,61025ae37ef11b136ea224fe,,,,,,,,,,,,,,,,,,,,,,,,,,,,,,,,,,,,,,,,,,,,,,
,,,,,,,,,,,,90,PF,75,-47,1,0,0,response3disk_5,5,3.583,-7,0,1,0,0,rectangle_8,55,-78,1,0,0,-12,1,1,0,0,0,4,4,6,1,60fb1eeb25785cbdfbcbdf02,61036e863c221507b344c664,2021-07-29_23h17.06.126,Simcolourproject_2stim_asymm_v5,2020.2.10,Win32,60,61025ae37ef11b136ea224fe,response3disk_7,4,0.6666,5,"[2,5]",rectangle_4,,,,,,,,,,,,,,,,,,,,,,,,,,,,,,,,,,,,,,,,
,,,,,,,,,,,,73,PF,63,64,1,0,0,response1disk_5,7,0.6997,-6,-3,1,0,0,rectangle_8,-6,-3,1,0,0,-6,-3,1,0,0,0,5,5,4,1,60fb1eeb25785cbdfbcbdf02,61036e863c221507b344c664,2021-07-29_23h17.06.126,Simcolourproject_2stim_asymm_v5,2020.2.10,Win32,60,61025ae37ef11b136ea224fe,,,,,,,,,,,,,,,,,,,,,,,,,,,,,,,,,,,,,,,,,,,,,,
,,,,,,,,,,,,41,FF,-54,-72,1,0,0,response5disk_5,3,1.1997,25,3,1,0,0,rectangle_8,25,3,1,0,0,25,3,1,0,0,0,6,6,5,1,60fb1eeb25785cbdfbcbdf02,61036e863c221507b344c664,2021-07-29_23h17.06.126,Simcolourproject_2stim_asymm_v5,2020.2.10,Win32,60,61025ae37ef11b136ea224fe,,,,,,,,,,,,,,,,,,,,,,,,,,,,,,,,,,,,,,,,,,,,,,
,,,,,,,,,,,,,FF,,,,,,,,19.1983,,,,,,,,,,,,,,,,,,,,,,60fb1eeb25785cbdfbcbdf02,61036e863c221507b344c664,2021-07-29_23h17.06.126,Simcolourproject_2stim_asymm_v5,2020.2.10,Win32,60,61025ae37ef11b136ea224fe,,,,,,,space,17.7488,2736,67,-70,1,0,0,response3disk,,4,3,-3,1,0,0,rectangle,3,-3,1,0,0,3,-3,1,0,0,0,0,0,54,1,,,,,,,,
,,,,,,,,,,,,,FF,,,,,,,,1.8857,,,,,,,,,,,,,,,,,,,,,,60fb1eeb25785cbdfbcbdf02,61036e863c221507b344c664,2021-07-29_23h17.06.126,Simcolourproject_2stim_asymm_v5,2020.2.10,Win32,60,61025ae37ef11b136ea224fe,,,,,,,,,1833,-79,-67,1,0,0,response5disk,,2,-13,8,1,0,0,rectangle,107,-38,1,0,0,-19,11,1,0,0,0,1,1,127,1,,response3disk_3,TRUE,5,7,"[50,237,100,65,202,292,271,2,90,238,222,295,70,230,243,271,104,159,239,323]",1.0668,rectangle
,,,,,,,,,,,,,FF,,,,,,,,1.1476,,,,,,,,,,,,,,,,,,,,,,60fb1eeb25785cbdfbcbdf02,61036e863c221507b344c664,2021-07-29_23h17.06.126,Simcolourproject_2stim_asymm_v5,2020.2.10,Win32,60,61025ae37ef11b136ea224fe,,,,,,,,,4184,56,38,1,0,0,response1disk,,6,1,-6,1,0,0,rectangle,1,-6,1,0,0,1,-6,1,0,0,0,2,2,83,1,,,,,,,,
,,,,,,,,,,,,,FF,,,,,,,,1.3667,,,,,,,,,,,,,,,,,,,,,,60fb1eeb25785cbdfbcbdf02,61036e863c221507b344c664,2021-07-29_23h17.06.126,Simcolourproject_2stim_asymm_v5,2020.2.10,Win32,60,61025ae37ef11b136ea224fe,,,,,,,,,202,54,78,1,0,0,response1disk,,7,23,3,1,0,0,rectangle,23,3,1,0,0,23,3,1,0,0,0,3,3,30,1,,,,,,,,
,,,,,,,,,,,,,FF,,,,,,,,0.7666,,,,,,,,,,,,,,,,,,,,,,60fb1eeb25785cbdfbcbdf02,61036e863c221507b344c664,2021-07-29_23h17.06.126,Simcolourproject_2stim_asymm_v5,2020.2.10,Win32,60,61025ae37ef11b136ea224fe,,,,,,,,,1644,-53,-62,1,0,0,response5disk,,3,-3,-5,1,0,0,rectangle,-3,-5,1,0,0,-3,-5,1,0,0,0,4,4,57,1,,,,,,,,
,,,,,,,,,,,,,FF,,,,,,,,1.3334,,,,,,,,,,,,,,,,,,,,,,60fb1eeb25785cbdfbcbdf02,61036e863c221507b344c664,2021-07-29_23h17.06.126,Simcolourproject_2stim_asymm_v5,2020.2.10,Win32,60,61025ae37ef11b136ea224fe,,,,,,,,,1335,66,-49,1,0,0,response3disk,,5,-8,2,1,0,0,rectangle,-8,2,1,0,0,-8,2,1,0,0,0,5,5,157,1,,,,,,,,
,,,,,,,,,,,,,FF,,,,,,,,0.548,,,,,,,,,,,,,,,,,,,,,,60fb1eeb25785cbdfbcbdf02,61036e863c221507b344c664,2021-07-29_23h17.06.126,Simcolourproject_2stim_asymm_v5,2020.2.10,Win32,60,61025ae37ef11b136ea224fe,,,,,,,,,2690,55,-47,1,0,0,response3disk,,5,-16,-2,1,0,0,rectangle,-16,-2,1,0,0,-16,-2,1,0,0,0,6,6,85,1,,,,,,,,
,,,,,,,,,,,,,FF,,,,,,,,1.217,,,,,,,,,,,,,,,,,,,,,,60fb1eeb25785cbdfbcbdf02,61036e863c221507b344c664,2021-07-29_23h17.06.126,Simcolourproject_2stim_asymm_v5,2020.2.10,Win32,60,61025ae37ef11b136ea224fe,,,,,,,,,1727,77,-55,1,0,0,response3disk,,5,0,-6,1,0,0,rectangle,0,-6,1,0,0,0,-6,1,0,0,0,7,7,34,1,,,,,,,,
,,,,,,,,,,,,,FF,,,,,,,,1.4665,,,,,,,,,,,,,,,,,,,,,,60fb1eeb25785cbdfbcbdf02,61036e863c221507b344c664,2021-07-29_23h17.06.126,Simcolourproject_2stim_asymm_v5,2020.2.10,Win32,60,61025ae37ef11b136ea224fe,,,,,,,,,2210,-26,83,1,0,0,response7disk,,0,13,6,1,0,0,rectangle,13,6,1,0,0,13,6,1,0,0,0,8,8,45,1,,,,,,,,
,,,,,,,,,,,,,FF,,,,,,,,0.9499,,,,,,,,,,,,,,,,,,,,,,60fb1eeb25785cbdfbcbdf02,61036e863c221507b344c664,2021-07-29_23h17.06.126,Simcolourproject_2stim_asymm_v5,2020.2.10,Win32,60,61025ae37ef11b136ea224fe,,,,,,,,,1355,58,84,1,0,0,response1disk,,7,0,7,1,0,0,rectangle,0,7,1,0,0,0,7,1,0,0,0,9,9,122,1,,,,,,,,
,,,,,,,,,,,,,FF,,,,,,,,1.081,,,,,,,,,,,,,,,,,,,,,,60fb1eeb25785cbdfbcbdf02,61036e863c221507b344c664,2021-07-29_23h17.06.126,Simcolourproject_2stim_asymm_v5,2020.2.10,Win32,60,61025ae37ef11b136ea224fe,,,,,,,,,4218,53,-49,1,0,0,response3disk,,5,0,0,1,0,0,rectangle,0,0,1,0,0,0,0,1,0,0,0,10,10,27,1,,,,,,,,
,,,,,,,,,,,,,FF,,,,,,,,0.9669,,,,,,,,,,,,,,,,,,,,,,60fb1eeb25785cbdfbcbdf02,61036e863c221507b344c664,2021-07-29_23h17.06.126,Simcolourproject_2stim_asymm_v5,2020.2.10,Win32,60,61025ae37ef11b136ea224fe,,,,,,,,,1525,58,-50,1,0,0,response3disk,,5,-6,5,1,0,0,rectangle,-6,5,1,0,0,-6,5,1,0,0,0,11,11,86,1,,,,,,,,
,,,,,,,,,,,,,FF,,,,,,,,6.2163,,,,,,,,,,,,,,,,,,,,,,60fb1eeb25785cbdfbcbdf02,61036e863c221507b344c664,2021-07-29_23h17.06.126,Simcolourproject_2stim_asymm_v5,2020.2.10,Win32,60,61025ae37ef11b136ea224fe,,,,,,,,,3842,-69,-58,1,0,0,response5disk,,2,-5,-6,1,0,0,rectangle,-5,-6,1,0,0,-5,-6,1,0,0,0,12,12,115,1,,,,,,,,
,,,,,,,,,,,,,FF,,,,,,,,1.0166,,,,,,,,,,,,,,,,,,,,,,60fb1eeb25785cbdfbcbdf02,61036e863c221507b344c664,2021-07-29_23h17.06.126,Simcolourproject_2stim_asymm_v5,2020.2.10,Win32,60,61025ae37ef11b136ea224fe,,,,,,,,,4004,-82,85,1,0,0,response7disk,,0,2,0,1,0,0,rectangle,2,0,1,0,0,2,0,1,0,0,0,13,13,106,1,,,,,,,,
,,,,,,,,,,,,,FF,,,,,,,,0.7192,,,,,,,,,,,,,,,,,,,,,,60fb1eeb25785cbdfbcbdf02,61036e863c221507b344c664,2021-07-29_23h17.06.126,Simcolourproject_2stim_asymm_v5,2020.2.10,Win32,60,61025ae37ef11b136ea224fe,,,,,,,,,3034,-36,-67,1,0,0,response5disk,,3,16,-7,1,0,0,rectangle,16,-7,1,0,0,16,-7,1,0,0,0,14,14,49,1,,,,,,,,
,,,,,,,,,,,,,FF,,,,,,,,0.666,,,,,,,,,,,,,,,,,,,,,,60fb1eeb25785cbdfbcbdf02,61036e863c221507b344c664,2021-07-29_23h17.06.126,Simcolourproject_2stim_asymm_v5,2020.2.10,Win32,60,61025ae37ef11b136ea224fe,,,,,,,,,216,58,-39,1,0,0,response3disk,,5,-12,10,1,0,0,rectangle,-12,10,1,0,0,-12,10,1,0,0,0,15,15,77,1,,,,,,,,
,,,,,,,,,,,,,FF,,,,,,,,0.6527,,,,,,,,,,,,,,,,,,,,,,60fb1eeb25785cbdfbcbdf02,61036e863c221507b344c664,2021-07-29_23h17.06.126,Simcolourproject_2stim_asymm_v5,2020.2.10,Win32,60,61025ae37ef11b136ea224fe,,,,,,,,,143,70,100,1,0,0,response1disk,,7,16,0,1,0,0,rectangle,16,0,1,0,0,16,0,1,0,0,0,16,16,155,1,,,,,,,,
,,,,,,,,,,,,,FF,,,,,,,,0.6336,,,,,,,,,,,,,,,,,,,,,,60fb1eeb25785cbdfbcbdf02,61036e863c221507b344c664,2021-07-29_23h17.06.126,Simcolourproject_2stim_asymm_v5,2020.2.10,Win32,60,61025ae37ef11b136ea224fe,,,,,,,,,3336,-82,-55,1,0,0,response5disk,,2,-5,2,1,0,0,rectangle,-5,2,1,0,0,-5,2,1,0,0,0,17,17,92,1,,,,,,,,
,,,,,,,,,,,,,FF,,,,,,,,0.6833,,,,,,,,,,,,,,,,,,,,,,60fb1eeb25785cbdfbcbdf02,61036e863c221507b344c664,2021-07-29_23h17.06.126,Simcolourproject_2stim_asymm_v5,2020.2.10,Win32,60,61025ae37ef11b136ea224fe,,,,,,,,,1948,-79,45,1,0,0,response7disk,,1,-11,9,1,0,0,rectangle,-11,9,1,0,0,-11,9,1,0,0,0,18,18,66,1,,,,,,,,
,,,,,,,,,,,,,FF,,,,,,,,0.9359,,,,,,,,,,,,,,,,,,,,,,60fb1eeb25785cbdfbcbdf02,61036e863c221507b344c664,2021-07-29_23h17.06.126,Simcolourproject_2stim_asymm_v5,2020.2.10,Win32,60,61025ae37ef11b136ea224fe,,,,,,,,,731,-59,74,1,0,0,response7disk,,0,-5,-3,1,0,0,rectangle,-5,-3,1,0,0,-5,-3,1,0,0,0,19,19,7,1,,,,,,,,
,,,,,,,,,,,,,FF,,,,,,,,0.75,,,,,,,,,,,,,,,,,,,,,,60fb1eeb25785cbdfbcbdf02,61036e863c221507b344c664,2021-07-29_23h17.06.126,Simcolourproject_2stim_asymm_v5,2020.2.10,Win32,60,61025ae37ef11b136ea224fe,,,,,,,,,4099,-74,-53,1,0,0,response5disk,,2,-24,7,1,0,0,rectangle,-24,7,1,0,0,-24,7,1,0,0,0,20,20,80,1,,,,,,,,
,,,,,,,,,,,,,FF,,,,,,,,0.5171,,,,,,,,,,,,,,,,,,,,,,60fb1eeb25785cbdfbcbdf02,61036e863c221507b344c664,2021-07-29_23h17.06.126,Simcolourproject_2stim_asymm_v5,2020.2.10,Win32,60,61025ae37ef11b136ea224fe,,,,,,,,,4289,-79,54,1,0,0,response7disk,,1,7,-1,1,0,0,rectangle,7,-1,1,0,0,7,-1,1,0,0,0,21,21,144,1,,,,,,,,
,,,,,,,,,,,,,FF,,,,,,,,3.0997,,,,,,,,,,,,,,,,,,,,,,60fb1eeb25785cbdfbcbdf02,61036e863c221507b344c664,2021-07-29_23h17.06.126,Simcolourproject_2stim_asymm_v5,2020.2.10,Win32,60,61025ae37ef11b136ea224fe,,,,,,,,,401,71,87,1,0,0,response1disk,,7,7,-7,1,0,0,rectangle,7,-7,1,0,0,7,-7,1,0,0,0,22,22,16,1,,,,,,,,
,,,,,,,,,,,,,FF,,,,,,,,0.6333,,,,,,,,,,,,,,,,,,,,,,60fb1eeb25785cbdfbcbdf02,61036e863c221507b344c664,2021-07-29_23h17.06.126,Simcolourproject_2stim_asymm_v5,2020.2.10,Win32,60,61025ae37ef11b136ea224fe,,,,,,,,,553,87,-76,1,0,0,response3disk,,5,3,-8,1,0,0,rectangle,3,-8,1,0,0,3,-8,1,0,0,0,23,23,33,1,,,,,,,,
,,,,,,,,,,,,,FF,,,,,,,,0.8001,,,,,,,,,,,,,,,,,,,,,,60fb1eeb25785cbdfbcbdf02,61036e863c221507b344c664,2021-07-29_23h17.06.126,Simcolourproject_2stim_asymm_v5,2020.2.10,Win32,60,61025ae37ef11b136ea224fe,,,,,,,,,532,-70,65,1,0,0,response7disk,,1,8,-1,1,0,0,rectangle,8,-1,1,0,0,8,-1,1,0,0,0,24,24,35,1,,,,,,,,
,,,,,,,,,,,,,FF,,,,,,,,1.6183,,,,,,,,,,,,,,,,,,,,,,60fb1eeb25785cbdfbcbdf02,61036e863c221507b344c664,2021-07-29_23h17.06.126,Simcolourproject_2stim_asymm_v5,2020.2.10,Win32,60,61025ae37ef11b136ea224fe,,,,,,,,,4120,-76,-29,1,0,0,response5disk,,2,-14,-8,1,0,0,rectangle,-14,-8,1,0,0,-14,-8,1,0,0,0,25,25,75,1,,,,,,,,
,,,,,,,,,,,,,FF,,,,,,,,1.2981,,,,,,,,,,,,,,,,,,,,,,60fb1eeb25785cbdfbcbdf02,61036e863c221507b344c664,2021-07-29_23h17.06.126,Simcolourproject_2stim_asymm_v5,2020.2.10,Win32,60,61025ae37ef11b136ea224fe,,,,,,,,,2175,59,-65,1,0,0,response3disk,,4,-3,1,1,0,0,rectangle,-3,1,1,0,0,-3,1,1,0,0,0,26,26,82,1,,,,,,,,
,,,,,,,,,,,,,FF,,,,,,,,0.6674,,,,,,,,,,,,,,,,,,,,,,60fb1eeb25785cbdfbcbdf02,61036e863c221507b344c664,2021-07-29_23h17.06.126,Simcolourproject_2stim_asymm_v5,2020.2.10,Win32,60,61025ae37ef11b136ea224fe,,,,,,,,,2437,74,78,1,0,0,response1disk,,7,-10,-2,1,0,0,rectangle,-10,-2,1,0,0,-10,-2,1,0,0,0,27,27,13,1,,,,,,,,
,,,,,,,,,,,,,FF,,,,,,,,1.3172,,,,,,,,,,,,,,,,,,,,,,60fb1eeb25785cbdfbcbdf02,61036e863c221507b344c664,2021-07-29_23h17.06.126,Simcolourproject_2stim_asymm_v5,2020.2.10,Win32,60,61025ae37ef11b136ea224fe,,,,,,,,,1446,41,-46,1,0,0,response3disk,,4,-2,-6,1,0,0,rectangle,-2,-6,1,0,0,-2,-6,1,0,0,0,28,28,32,1,,,,,,,,
,,,,,,,,,,,,,FF,,,,,,,,3.1998,,,,,,,,,,,,,,,,,,,,,,60fb1eeb25785cbdfbcbdf02,61036e863c221507b344c664,2021-07-29_23h17.06.126,Simcolourproject_2stim_asymm_v5,2020.2.10,Win32,60,61025ae37ef11b136ea224fe,,,,,,,,,1023,-89,-33,1,0,0,response5disk,,2,-23,4,1,0,0,rectangle,-23,4,1,0,0,-23,4,1,0,0,0,29,29,100,1,,,,,,,,
,,,,,,,,,,,,,FF,,,,,,,,1.4167,,,,,,,,,,,,,,,,,,,,,,60fb1eeb25785cbdfbcbdf02,61036e863c221507b344c664,2021-07-29_23h17.06.126,Simcolourproject_2stim_asymm_v5,2020.2.10,Win32,60,61025ae37ef11b136ea224fe,,,,,,,,,1167,-69,-58,1,0,0,response5disk,,2,7,12,1,0,0,rectangle,7,12,1,0,0,7,12,1,0,0,0,30,30,124,1,,,,,,,,
,,,,,,,,,,,,,FF,,,,,,,,53.3276,,,,,,,,,,,,,,,,,,,,,,60fb1eeb25785cbdfbcbdf02,61036e863c221507b344c664,2021-07-29_23h17.06.126,Simcolourproject_2stim_asymm_v5,2020.2.10,Win32,60,61025ae37ef11b136ea224fe,,,,,,,,,1936,-110,-22,1,0,0,response5disk,,2,5,-10,1,0,0,rectangle,5,-10,1,0,0,5,-10,1,0,0,0,31,31,149,1,,,,,,,,
,,,,,,,,,,,,,FF,,,,,,,,1.1839,,,,,,,,,,,,,,,,,,,,,,60fb1eeb25785cbdfbcbdf02,61036e863c221507b344c664,2021-07-29_23h17.06.126,Simcolourproject_2stim_asymm_v5,2020.2.10,Win32,60,61025ae37ef11b136ea224fe,,,,,,,,,1556,52,-86,1,0,0,response3disk,,4,-9,2,1,0,0,rectangle,-9,2,1,0,0,-9,2,1,0,0,0,32,32,78,1,,,,,,,,
,,,,,,,,,,,,,FF,,,,,,,,0.6667,,,,,,,,,,,,,,,,,,,,,,60fb1eeb25785cbdfbcbdf02,61036e863c221507b344c664,2021-07-29_23h17.06.126,Simcolourproject_2stim_asymm_v5,2020.2.10,Win32,60,61025ae37ef11b136ea224fe,,,,,,,,,3921,60,94,1,0,0,response1disk,,7,-11,0,1,0,0,rectangle,-11,0,1,0,0,-11,0,1,0,0,0,33,33,97,1,,,,,,,,
,,,,,,,,,,,,,FF,,,,,,,,1.7666,,,,,,,,,,,,,,,,,,,,,,60fb1eeb25785cbdfbcbdf02,61036e863c221507b344c664,2021-07-29_23h17.06.126,Simcolourproject_2stim_asymm_v5,2020.2.10,Win32,60,61025ae37ef11b136ea224fe,,,,,,,,,2672,-28,93,1,0,0,response7disk,,0,-12,3,1,0,0,rectangle,-12,3,1,0,0,-12,3,1,0,0,0,34,34,81,1,,,,,,,,
,,,,,,,,,,,,,FF,,,,,,,,24.2975,,,,,,,,,,,,,,,,,,,,,,60fb1eeb25785cbdfbcbdf02,61036e863c221507b344c664,2021-07-29_23h17.06.126,Simcolourproject_2stim_asymm_v5,2020.2.10,Win32,60,61025ae37ef11b136ea224fe,,,,,,,,,1906,-63,-38,1,0,0,response5disk,,2,-18,3,1,0,0,rectangle,-18,3,1,0,0,-18,3,1,0,0,0,35,35,156,1,,,,,,,,
,,,,,,,,,,,,,FF,,,,,,,,0.7336,,,,,,,,,,,,,,,,,,,,,,60fb1eeb25785cbdfbcbdf02,61036e863c221507b344c664,2021-07-29_23h17.06.126,Simcolourproject_2stim_asymm_v5,2020.2.10,Win32,60,61025ae37ef11b136ea224fe,,,,,,,,,1963,63,-114,1,0,0,response3disk,,4,-3,-11,1,0,0,rectangle,-3,-11,1,0,0,-3,-11,1,0,0,0,36,36,9,1,,,,,,,,
,,,,,,,,,,,,,FF,,,,,,,,0.6168,,,,,,,,,,,,,,,,,,,,,,60fb1eeb25785cbdfbcbdf02,61036e863c221507b344c664,2021-07-29_23h17.06.126,Simcolourproject_2stim_asymm_v5,2020.2.10,Win32,60,61025ae37ef11b136ea224fe,,,,,,,,,1185,83,92,1,0,0,response1disk,,7,-1,3,1,0,0,rectangle,-1,3,1,0,0,-1,3,1,0,0,0,37,37,137,1,,,,,,,,
,,,,,,,,,,,,,FF,,,,,,,,0.8834,,,,,,,,,,,,,,,,,,,,,,60fb1eeb25785cbdfbcbdf02,61036e863c221507b344c664,2021-07-29_23h17.06.126,Simcolourproject_2stim_asymm_v5,2020.2.10,Win32,60,61025ae37ef11b136ea224fe,,,,,,,,,3890,64,102,1,0,0,response1disk,,7,14,3,1,0,0,rectangle,14,3,1,0,0,14,3,1,0,0,0,38,38,102,1,,,,,,,,
,,,,,,,,,,,,,FF,,,,,,,,16.4318,,,,,,,,,,,,,,,,,,,,,,60fb1eeb25785cbdfbcbdf02,61036e863c221507b344c664,2021-07-29_23h17.06.126,Simcolourproject_2stim_asymm_v5,2020.2.10,Win32,60,61025ae37ef11b136ea224fe,,,,,,,,,812,-84,-54,1,0,0,response5disk,,2,10,-4,1,0,0,rectangle,10,-4,1,0,0,10,-4,1,0,0,0,39,39,145,1,,,,,,,,
,,,,,,,,,,,,,FF,,,,,,,,36.0796,,,,,,,,,,,,,,,,,,,,,,60fb1eeb25785cbdfbcbdf02,61036e863c221507b344c664,2021-07-29_23h17.06.126,Simcolourproject_2stim_asymm_v5,2020.2.10,Win32,60,61025ae37ef11b136ea224fe,,,,,,,,,118,57,-112,1,0,0,response3disk,,4,23,-2,1,0,0,rectangle,23,-2,1,0,0,23,-2,1,0,0,0,40,40,58,1,,,,,,,,
,,,,,,,,,,,,,FF,,,,,,,,2.2999,,,,,,,,,,,,,,,,,,,,,,60fb1eeb25785cbdfbcbdf02,61036e863c221507b344c664,2021-07-29_23h17.06.126,Simcolourproject_2stim_asymm_v5,2020.2.10,Win32,60,61025ae37ef11b136ea224fe,,,,,,,,,2316,-77,-45,1,0,0,response5disk,,2,3,3,1,0,0,rectangle,3,3,1,0,0,3,3,1,0,0,0,41,41,0,1,,,,,,,,
,,,,,,,,,,,,,FF,,,,,,,,0.6169,,,,,,,,,,,,,,,,,,,,,,60fb1eeb25785cbdfbcbdf02,61036e863c221507b344c664,2021-07-29_23h17.06.126,Simcolourproject_2stim_asymm_v5,2020.2.10,Win32,60,61025ae37ef11b136ea224fe,,,,,,,,,3145,-49,75,1,0,0,response7disk,,0,-10,10,1,0,0,rectangle,-10,10,1,0,0,-10,10,1,0,0,0,42,42,84,1,,,,,,,,
,,,,,,,,,,,,,FF,,,,,,,,0.4191,,,,,,,,,,,,,,,,,,,,,,60fb1eeb25785cbdfbcbdf02,61036e863c221507b344c664,2021-07-29_23h17.06.126,Simcolourproject_2stim_asymm_v5,2020.2.10,Win32,60,61025ae37ef11b136ea224fe,,,,,,,,,2023,67,81,1,0,0,response1disk,,7,17,3,1,0,0,rectangle,17,3,1,0,0,17,3,1,0,0,0,43,43,2,1,,,,,,,,
,,,,,,,,,,,,,FF,,,,,,,,0.75,,,,,,,,,,,,,,,,,,,,,,60fb1eeb25785cbdfbcbdf02,61036e863c221507b344c664,2021-07-29_23h17.06.126,Simcolourproject_2stim_asymm_v5,2020.2.10,Win32,60,61025ae37ef11b136ea224fe,,,,,,,,,2277,-81,54,1,0,0,response7disk,,1,19,-7,1,0,0,rectangle,19,-7,1,0,0,19,-7,1,0,0,0,44,44,19,1,,,,,,,,
,,,,,,,,,,,,,FF,,,,,,,,0.5832,,,,,,,,,,,,,,,,,,,,,,60fb1eeb25785cbdfbcbdf02,61036e863c221507b344c664,2021-07-29_23h17.06.126,Simcolourproject_2stim_asymm_v5,2020.2.10,Win32,60,61025ae37ef11b136ea224fe,,,,,,,,,2418,88,48,1,0,0,response1disk,,6,-3,-4,1,0,0,rectangle,-3,-4,1,0,0,-3,-4,1,0,0,0,45,45,24,1,,,,,,,,
,,,,,,,,,,,,,FF,,,,,,,,0.6334,,,,,,,,,,,,,,,,,,,,,,60fb1eeb25785cbdfbcbdf02,61036e863c221507b344c664,2021-07-29_23h17.06.126,Simcolourproject_2stim_asymm_v5,2020.2.10,Win32,60,61025ae37ef11b136ea224fe,,,,,,,,,658,88,-61,1,0,0,response3disk,,5,20,4,1,0,0,rectangle,20,4,1,0,0,20,4,1,0,0,0,46,46,138,1,,,,,,,,
,,,,,,,,,,,,,FF,,,,,,,,0.5834,,,,,,,,,,,,,,,,,,,,,,60fb1eeb25785cbdfbcbdf02,61036e863c221507b344c664,2021-07-29_23h17.06.126,Simcolourproject_2stim_asymm_v5,2020.2.10,Win32,60,61025ae37ef11b136ea224fe,,,,,,,,,582,-79,35,1,0,0,response7disk,,1,7,-10,1,0,0,rectangle,7,-10,1,0,0,7,-10,1,0,0,0,47,47,71,1,,,,,,,,
,,,,,,,,,,,,,FF,,,,,,,,0.8335,,,,,,,,,,,,,,,,,,,,,,60fb1eeb25785cbdfbcbdf02,61036e863c221507b344c664,2021-07-29_23h17.06.126,Simcolourproject_2stim_asymm_v5,2020.2.10,Win32,60,61025ae37ef11b136ea224fe,,,,,,,,,2610,-82,-62,1,0,0,response5disk,,2,4,-8,1,0,0,rectangle,4,-8,1,0,0,4,-8,1,0,0,0,48,48,95,1,,,,,,,,
,,,,,,,,,,,,,FF,,,,,,,,0.8168,,,,,,,,,,,,,,,,,,,,,,60fb1eeb25785cbdfbcbdf02,61036e863c221507b344c664,2021-07-29_23h17.06.126,Simcolourproject_2stim_asymm_v5,2020.2.10,Win32,60,61025ae37ef11b136ea224fe,,,,,,,,,408,87,-89,1,0,0,response3disk,,4,15,-4,1,0,0,rectangle,104,104,1,0,0,-3,-2,1,0,0,0,49,49,17,1,,response1disk_3,TRUE,7,6,"[50,237,100,65,202,292,271,2,90,238,222,295,70,230,243,271,104,159,239,323]",0.8023,rectangle
,,,,,,,,,,,,,FF,,,,,,,,0.5001,,,,,,,,,,,,,,,,,,,,,,60fb1eeb25785cbdfbcbdf02,61036e863c221507b344c664,2021-07-29_23h17.06.126,Simcolourproject_2stim_asymm_v5,2020.2.10,Win32,60,61025ae37ef11b136ea224fe,,,,,,,,,2216,-100,65,1,0,0,response7disk,,1,12,-6,1,0,0,rectangle,12,-6,1,0,0,12,-6,1,0,0,0,50,50,151,1,,,,,,,,
,,,,,,,,,,,,,FF,,,,,,,,1.3654,,,,,,,,,,,,,,,,,,,,,,60fb1eeb25785cbdfbcbdf02,61036e863c221507b344c664,2021-07-29_23h17.06.126,Simcolourproject_2stim_asymm_v5,2020.2.10,Win32,60,61025ae37ef11b136ea224fe,,,,,,,,,4181,-58,59,1,0,0,response7disk,,0,-13,1,1,0,0,rectangle,-13,1,1,0,0,-13,1,1,0,0,0,51,51,70,1,,,,,,,,
,,,,,,,,,,,,,FF,,,,,,,,0.9835,,,,,,,,,,,,,,,,,,,,,,60fb1eeb25785cbdfbcbdf02,61036e863c221507b344c664,2021-07-29_23h17.06.126,Simcolourproject_2stim_asymm_v5,2020.2.10,Win32,60,61025ae37ef11b136ea224fe,,,,,,,,,2776,-49,-46,1,0,0,response5disk,,2,0,-9,1,0,0,rectangle,0,-9,1,0,0,0,-9,1,0,0,0,52,52,148,1,,,,,,,,
,,,,,,,,,,,,,FF,,,,,,,,43.363,,,,,,,,,,,,,,,,,,,,,,60fb1eeb25785cbdfbcbdf02,61036e863c221507b344c664,2021-07-29_23h17.06.126,Simcolourproject_2stim_asymm_v5,2020.2.10,Win32,60,61025ae37ef11b136ea224fe,,,,,,,,,619,71,-52,1,0,0,response3disk,,5,2,10,1,0,0,rectangle,2,10,1,0,0,2,10,1,0,0,0,53,53,117,1,,,,,,,,
,,,,,,,,,,,,,FF,,,,,,,,0.786,,,,,,,,,,,,,,,,,,,,,,60fb1eeb25785cbdfbcbdf02,61036e863c221507b344c664,2021-07-29_23h17.06.126,Simcolourproject_2stim_asymm_v5,2020.2.10,Win32,60,61025ae37ef11b136ea224fe,,,,,,,,,3280,-75,63,1,0,0,response7disk,,1,2,-5,1,0,0,rectangle,2,-5,1,0,0,2,-5,1,0,0,0,54,54,53,1,,,,,,,,
,,,,,,,,,,,,,FF,,,,,,,,0.5192,,,,,,,,,,,,,,,,,,,,,,60fb1eeb25785cbdfbcbdf02,61036e863c221507b344c664,2021-07-29_23h17.06.126,Simcolourproject_2stim_asymm_v5,2020.2.10,Win32,60,61025ae37ef11b136ea224fe,,,,,,,,,1894,62,44,1,0,0,response1disk,,6,-19,5,1,0,0,rectangle,-19,5,1,0,0,-19,5,1,0,0,0,55,55,73,1,,,,,,,,
,,,,,,,,,,,,,FF,,,,,,,,0.5667,,,,,,,,,,,,,,,,,,,,,,60fb1eeb25785cbdfbcbdf02,61036e863c221507b344c664,2021-07-29_23h17.06.126,Simcolourproject_2stim_asymm_v5,2020.2.10,Win32,60,61025ae37ef11b136ea224fe,,,,,,,,,3098,58,-32,1,0,0,response3disk,,5,-30,11,1,0,0,rectangle,-30,11,1,0,0,-30,11,1,0,0,0,56,56,119,1,,,,,,,,
,,,,,,,,,,,,,FF,,,,,,,,0.5834,,,,,,,,,,,,,,,,,,,,,,60fb1eeb25785cbdfbcbdf02,61036e863c221507b344c664,2021-07-29_23h17.06.126,Simcolourproject_2stim_asymm_v5,2020.2.10,Win32,60,61025ae37ef11b136ea224fe,,,,,,,,,2981,-97,-38,1,0,0,response5disk,,2,-3,-10,1,0,0,rectangle,-3,-10,1,0,0,-3,-10,1,0,0,0,57,57,159,1,,,,,,,,
,,,,,,,,,,,,,FF,,,,,,,,0.4693,,,,,,,,,,,,,,,,,,,,,,60fb1eeb25785cbdfbcbdf02,61036e863c221507b344c664,2021-07-29_23h17.06.126,Simcolourproject_2stim_asymm_v5,2020.2.10,Win32,60,61025ae37ef11b136ea224fe,,,,,,,,,3592,87,77,1,0,0,response1disk,,6,11,-4,1,0,0,rectangle,11,-4,1,0,0,11,-4,1,0,0,0,58,58,25,1,,,,,,,,
,,,,,,,,,,,,,FF,,,,,,,,0.5666,,,,,,,,,,,,,,,,,,,,,,60fb1eeb25785cbdfbcbdf02,61036e863c221507b344c664,2021-07-29_23h17.06.126,Simcolourproject_2stim_asymm_v5,2020.2.10,Win32,60,61025ae37ef11b136ea224fe,,,,,,,,,1011,-62,74,1,0,0,response7disk,,0,-10,9,1,0,0,rectangle,-10,9,1,0,0,-10,9,1,0,0,0,59,59,20,1,,,,,,,,
,,,,,,,,,,,,,FF,,,,,,,,0.5025,,,,,,,,,,,,,,,,,,,,,,60fb1eeb25785cbdfbcbdf02,61036e863c221507b344c664,2021-07-29_23h17.06.126,Simcolourproject_2stim_asymm_v5,2020.2.10,Win32,60,61025ae37ef11b136ea224fe,,,,,,,,,2065,77,47,1,0,0,response1disk,,6,19,-9,1,0,0,rectangle,19,-9,1,0,0,19,-9,1,0,0,0,60,60,140,1,,,,,,,,
,,,,,,,,,,,,,FF,,,,,,,,0.5331,,,,,,,,,,,,,,,,,,,,,,60fb1eeb25785cbdfbcbdf02,61036e863c221507b344c664,2021-07-29_23h17.06.126,Simcolourproject_2stim_asymm_v5,2020.2.10,Win32,60,61025ae37ef11b136ea224fe,,,,,,,,,24,77,49,1,0,0,response1disk,,6,8,-2,1,0,0,rectangle,8,-2,1,0,0,8,-2,1,0,0,0,61,61,39,1,,,,,,,,
,,,,,,,,,,,,,FF,,,,,,,,0.5336,,,,,,,,,,,,,,,,,,,,,,60fb1eeb25785cbdfbcbdf02,61036e863c221507b344c664,2021-07-29_23h17.06.126,Simcolourproject_2stim_asymm_v5,2020.2.10,Win32,60,61025ae37ef11b136ea224fe,,,,,,,,,3538,83,-40,1,0,0,response3disk,,5,-13,-8,1,0,0,rectangle,-13,-8,1,0,0,-13,-8,1,0,0,0,62,62,128,1,,,,,,,,
,,,,,,,,,,,,,FF,,,,,,,,1.0644,,,,,,,,,,,,,,,,,,,,,,60fb1eeb25785cbdfbcbdf02,61036e863c221507b344c664,2021-07-29_23h17.06.126,Simcolourproject_2stim_asymm_v5,2020.2.10,Win32,60,61025ae37ef11b136ea224fe,,,,,,,,,2273,48,-40,1,0,0,response3disk,,5,3,-4,1,0,0,rectangle,3,-4,1,0,0,3,-4,1,0,0,0,63,63,123,1,,,,,,,,
,,,,,,,,,,,,,FF,,,,,,,,0.9,,,,,,,,,,,,,,,,,,,,,,60fb1eeb25785cbdfbcbdf02,61036e863c221507b344c664,2021-07-29_23h17.06.126,Simcolourproject_2stim_asymm_v5,2020.2.10,Win32,60,61025ae37ef11b136ea224fe,,,,,,,,,1085,19,77,1,0,0,response1disk,,7,-10,-1,1,0,0,rectangle,-59,-57,1,0,0,-2,-1,1,0,0,0,64,64,112,1,,response5disk_3,TRUE,2,1,"[50,237,100,65,202,292,271,2,90,238,222,295,70,230,243,271,104,159,239,323]",0.6161,rectangle
,,,,,,,,,,,,,FF,,,,,,,,0.586,,,,,,,,,,,,,,,,,,,,,,60fb1eeb25785cbdfbcbdf02,61036e863c221507b344c664,2021-07-29_23h17.06.126,Simcolourproject_2stim_asymm_v5,2020.2.10,Win32,60,61025ae37ef11b136ea224fe,,,,,,,,,126,-68,78,1,0,0,response7disk,,0,-15,0,1,0,0,rectangle,-15,0,1,0,0,-15,0,1,0,0,0,65,65,118,1,,,,,,,,
,,,,,,,,,,,,,FF,,,,,,,,0.4193,,,,,,,,,,,,,,,,,,,,,,60fb1eeb25785cbdfbcbdf02,61036e863c221507b344c664,2021-07-29_23h17.06.126,Simcolourproject_2stim_asymm_v5,2020.2.10,Win32,60,61025ae37ef11b136ea224fe,,,,,,,,,3245,83,71,1,0,0,response1disk,,6,11,1,1,0,0,rectangle,11,1,1,0,0,11,1,1,0,0,0,66,66,1,1,,,,,,,,
,,,,,,,,,,,,,FF,,,,,,,,0.6001,,,,,,,,,,,,,,,,,,,,,,60fb1eeb25785cbdfbcbdf02,61036e863c221507b344c664,2021-07-29_23h17.06.126,Simcolourproject_2stim_asymm_v5,2020.2.10,Win32,60,61025ae37ef11b136ea224fe,,,,,,,,,309,-80,61,1,0,0,response7disk,,1,-14,3,1,0,0,rectangle,-14,3,1,0,0,-14,3,1,0,0,0,67,67,121,1,,,,,,,,
,,,,,,,,,,,,,FF,,,,,,,,0.5666,,,,,,,,,,,,,,,,,,,,,,60fb1eeb25785cbdfbcbdf02,61036e863c221507b344c664,2021-07-29_23h17.06.126,Simcolourproject_2stim_asymm_v5,2020.2.10,Win32,60,61025ae37ef11b136ea224fe,,,,,,,,,464,35,-79,1,0,0,response3disk,,4,-11,-6,1,0,0,rectangle,-11,-6,1,0,0,-11,-6,1,0,0,0,68,68,139,1,,,,,,,,
,,,,,,,,,,,,,FF,,,,,,,,0.6167,,,,,,,,,,,,,,,,,,,,,,60fb1eeb25785cbdfbcbdf02,61036e863c221507b344c664,2021-07-29_23h17.06.126,Simcolourproject_2stim_asymm_v5,2020.2.10,Win32,60,61025ae37ef11b136ea224fe,,,,,,,,,1902,-84,80,1,0,0,response7disk,,1,-14,4,1,0,0,rectangle,60,79,1,0,0,14,5,1,0,0,0,69,69,111,1,,response1disk_3,TRUE,7,3,"[50,237,100,65,202,292,271,2,90,238,222,295,70,230,243,271,104,159,239,323]",1.8353,rectangle
,,,,,,,,,,,,,FF,,,,,,,,0.8859,,,,,,,,,,,,,,,,,,,,,,60fb1eeb25785cbdfbcbdf02,61036e863c221507b344c664,2021-07-29_23h17.06.126,Simcolourproject_2stim_asymm_v5,2020.2.10,Win32,60,61025ae37ef11b136ea224fe,,,,,,,,,2139,-77,-26,1,0,0,response5disk,,2,-7,3,1,0,0,rectangle,-7,3,1,0,0,-7,3,1,0,0,0,70,70,108,1,,,,,,,,
,,,,,,,,,,,,,FF,,,,,,,,0.4001,,,,,,,,,,,,,,,,,,,,,,60fb1eeb25785cbdfbcbdf02,61036e863c221507b344c664,2021-07-29_23h17.06.126,Simcolourproject_2stim_asymm_v5,2020.2.10,Win32,60,61025ae37ef11b136ea224fe,,,,,,,,,1824,64,63,1,0,0,response1disk,,6,6,6,1,0,0,rectangle,6,6,1,0,0,6,6,1,0,0,0,71,71,152,1,,,,,,,,
,,,,,,,,,,,,,FF,,,,,,,,0.4693,,,,,,,,,,,,,,,,,,,,,,60fb1eeb25785cbdfbcbdf02,61036e863c221507b344c664,2021-07-29_23h17.06.126,Simcolourproject_2stim_asymm_v5,2020.2.10,Win32,60,61025ae37ef11b136ea224fe,,,,,,,,,151,-71,64,1,0,0,response7disk,,1,2,-5,1,0,0,rectangle,2,-5,1,0,0,2,-5,1,0,0,0,72,72,46,1,,,,,,,,
,,,,,,,,,,,,,FF,,,,,,,,0.2693,,,,,,,,,,,,,,,,,,,,,,60fb1eeb25785cbdfbcbdf02,61036e863c221507b344c664,2021-07-29_23h17.06.126,Simcolourproject_2stim_asymm_v5,2020.2.10,Win32,60,61025ae37ef11b136ea224fe,,,,,,,,,1683,77,53,1,0,0,response1disk,,6,-1,-13,1,0,0,rectangle,-1,-13,1,0,0,-1,-13,1,0,0,0,73,73,134,1,,,,,,,,
,,,,,,,,,,,,,FF,,,,,,,,0.0976,,,,,,,,,,,,,,,,,,,,,,60fb1eeb25785cbdfbcbdf02,61036e863c221507b344c664,2021-07-29_23h17.06.126,Simcolourproject_2stim_asymm_v5,2020.2.10,Win32,60,61025ae37ef11b136ea224fe,,,,,,,,,3158,82,-51,1,0,0,response3disk,,5,-12,9,1,0,0,rectangle,-12,9,1,0,0,-12,9,1,0,0,0,74,74,51,1,,,,,,,,
,,,,,,,,,,,,,FF,,,,,,,,0.8838,,,,,,,,,,,,,,,,,,,,,,60fb1eeb25785cbdfbcbdf02,61036e863c221507b344c664,2021-07-29_23h17.06.126,Simcolourproject_2stim_asymm_v5,2020.2.10,Win32,60,61025ae37ef11b136ea224fe,,,,,,,,,2892,61,-49,1,0,0,response3disk,,5,-33,5,1,0,0,rectangle,-33,5,1,0,0,-33,5,1,0,0,0,75,75,125,1,,,,,,,,
,,,,,,,,,,,,,FF,,,,,,,,0.548,,,,,,,,,,,,,,,,,,,,,,60fb1eeb25785cbdfbcbdf02,61036e863c221507b344c664,2021-07-29_23h17.06.126,Simcolourproject_2stim_asymm_v5,2020.2.10,Win32,60,61025ae37ef11b136ea224fe,,,,,,,,,3044,-46,-61,1,0,0,response5disk,,3,-6,1,1,0,0,rectangle,-6,1,1,0,0,-6,1,1,0,0,0,76,76,41,1,,,,,,,,
,,,,,,,,,,,,,FF,,,,,,,,0.3668,,,,,,,,,,,,,,,,,,,,,,60fb1eeb25785cbdfbcbdf02,61036e863c221507b344c664,2021-07-29_23h17.06.126,Simcolourproject_2stim_asymm_v5,2020.2.10,Win32,60,61025ae37ef11b136ea224fe,,,,,,,,,562,49,108,1,0,0,response1disk,,7,-7,9,1,0,0,rectangle,-7,9,1,0,0,-7,9,1,0,0,0,77,77,72,1,,,,,,,,
,,,,,,,,,,,,,FF,,,,,,,,0.3333,,,,,,,,,,,,,,,,,,,,,,60fb1eeb25785cbdfbcbdf02,61036e863c221507b344c664,2021-07-29_23h17.06.126,Simcolourproject_2stim_asymm_v5,2020.2.10,Win32,60,61025ae37ef11b136ea224fe,,,,,,,,,2802,-72,82,1,0,0,response7disk,,0,23,-3,1,0,0,rectangle,23,-3,1,0,0,23,-3,1,0,0,0,78,78,136,1,,,,,,,,
,,,,,,,,,,,,,FF,,,,,,,,0.3821,,,,,,,,,,,,,,,,,,,,,,60fb1eeb25785cbdfbcbdf02,61036e863c221507b344c664,2021-07-29_23h17.06.126,Simcolourproject_2stim_asymm_v5,2020.2.10,Win32,60,61025ae37ef11b136ea224fe,,,,,,,,,2367,-65,-50,1,0,0,response5disk,,2,2,12,1,0,0,rectangle,2,12,1,0,0,2,12,1,0,0,0,79,79,76,1,,,,,,,,
,,,,,,,,,,,,,FF,,,,,,,,0.2648,,,,,,,,,,,,,,,,,,,,,,60fb1eeb25785cbdfbcbdf02,61036e863c221507b344c664,2021-07-29_23h17.06.126,Simcolourproject_2stim_asymm_v5,2020.2.10,Win32,60,61025ae37ef11b136ea224fe,,,,,,,,,2846,67,-50,1,0,0,response3disk,,5,-24,-4,1,0,0,rectangle,-24,-4,1,0,0,-24,-4,1,0,0,0,80,80,133,1,,,,,,,,
,,,,,,,,,,,,,FF,,,,,,,,0.584,,,,,,,,,,,,,,,,,,,,,,60fb1eeb25785cbdfbcbdf02,61036e863c221507b344c664,2021-07-29_23h17.06.126,Simcolourproject_2stim_asymm_v5,2020.2.10,Win32,60,61025ae37ef11b136ea224fe,,,,,,,,,3783,-36,-33,1,0,0,response5disk,,2,1,11,1,0,0,rectangle,1,11,1,0,0,1,11,1,0,0,0,81,81,15,1,,,,,,,,
,,,,,,,,,,,,,FF,,,,,,,,0.5668,,,,,,,,,,,,,,,,,,,,,,60fb1eeb25785cbdfbcbdf02,61036e863c221507b344c664,2021-07-29_23h17.06.126,Simcolourproject_2stim_asymm_v5,2020.2.10,Win32,60,61025ae37ef11b136ea224fe,,,,,,,,,963,60,-37,1,0,0,response3disk,,5,-6,-13,1,0,0,rectangle,-6,-13,1,0,0,-6,-13,1,0,0,0,82,82,116,1,,,,,,,,
,,,,,,,,,,,,,FF,,,,,,,,0.4523,,,,,,,,,,,,,,,,,,,,,,60fb1eeb25785cbdfbcbdf02,61036e863c221507b344c664,2021-07-29_23h17.06.126,Simcolourproject_2stim_asymm_v5,2020.2.10,Win32,60,61025ae37ef11b136ea224fe,,,,,,,,,2073,-51,56,1,0,0,response7disk,,0,-1,-7,1,0,0,rectangle,-1,-7,1,0,0,-1,-7,1,0,0,0,83,83,55,1,,,,,,,,
,,,,,,,,,,,,,FF,,,,,,,,0.6334,,,,,,,,,,,,,,,,,,,,,,60fb1eeb25785cbdfbcbdf02,61036e863c221507b344c664,2021-07-29_23h17.06.126,Simcolourproject_2stim_asymm_v5,2020.2.10,Win32,60,61025ae37ef11b136ea224fe,,,,,,,,,851,-74,-37,1,0,0,response5disk,,2,1,-2,1,0,0,rectangle,1,-2,1,0,0,1,-2,1,0,0,0,84,84,26,1,,,,,,,,
,,,,,,,,,,,,,FF,,,,,,,,1.4193,,,,,,,,,,,,,,,,,,,,,,60fb1eeb25785cbdfbcbdf02,61036e863c221507b344c664,2021-07-29_23h17.06.126,Simcolourproject_2stim_asymm_v5,2020.2.10,Win32,60,61025ae37ef11b136ea224fe,,,,,,,,,1723,48,76,1,0,0,response1disk,,7,8,-9,1,0,0,rectangle,8,-9,1,0,0,8,-9,1,0,0,0,85,85,10,1,,,,,,,,
,,,,,,,,,,,,,FF,,,,,,,,4.3663,,,,,,,,,,,,,,,,,,,,,,60fb1eeb25785cbdfbcbdf02,61036e863c221507b344c664,2021-07-29_23h17.06.126,Simcolourproject_2stim_asymm_v5,2020.2.10,Win32,60,61025ae37ef11b136ea224fe,,,,,,,,,363,-80,-64,1,0,0,response5disk,,2,6,-3,1,0,0,rectangle,6,-3,1,0,0,6,-3,1,0,0,0,86,86,91,1,,,,,,,,
,,,,,,,,,,,,,FF,,,,,,,,0.9834,,,,,,,,,,,,,,,,,,,,,,60fb1eeb25785cbdfbcbdf02,61036e863c221507b344c664,2021-07-29_23h17.06.126,Simcolourproject_2stim_asymm_v5,2020.2.10,Win32,60,61025ae37ef11b136ea224fe,,,,,,,,,2084,116,100,1,0,0,response1disk,,6,6,10,1,0,0,rectangle,6,10,1,0,0,6,10,1,0,0,0,87,87,94,1,,,,,,,,
,,,,,,,,,,,,,FF,,,,,,,,0.5171,,,,,,,,,,,,,,,,,,,,,,60fb1eeb25785cbdfbcbdf02,61036e863c221507b344c664,2021-07-29_23h17.06.126,Simcolourproject_2stim_asymm_v5,2020.2.10,Win32,60,61025ae37ef11b136ea224fe,,,,,,,,,4219,-95,90,1,0,0,response7disk,,1,-17,9,1,0,0,rectangle,-17,9,1,0,0,-17,9,1,0,0,0,88,88,69,1,,,,,,,,
,,,,,,,,,,,,,FF,,,,,,,,0.317,,,,,,,,,,,,,,,,,,,,,,60fb1eeb25785cbdfbcbdf02,61036e863c221507b344c664,2021-07-29_23h17.06.126,Simcolourproject_2stim_asymm_v5,2020.2.10,Win32,60,61025ae37ef11b136ea224fe,,,,,,,,,3889,108,37,1,0,0,response1disk,,6,-8,-2,1,0,0,rectangle,103,-76,1,0,0,-5,-2,1,0,0,0,89,89,131,1,,response3disk_3,TRUE,5,5,"[50,237,100,65,202,292,271,2,90,238,222,295,70,230,243,271,104,159,239,323]",1.2501,rectangle
,,,,,,,,,,,,,FF,,,,,,,,0.4691,,,,,,,,,,,,,,,,,,,,,,60fb1eeb25785cbdfbcbdf02,61036e863c221507b344c664,2021-07-29_23h17.06.126,Simcolourproject_2stim_asymm_v5,2020.2.10,Win32,60,61025ae37ef11b136ea224fe,,,,,,,,,3512,-55,82,1,0,0,response7disk,,0,18,-4,1,0,0,rectangle,18,-4,1,0,0,18,-4,1,0,0,0,90,90,93,1,,,,,,,,
,,,,,,,,,,,,,FF,,,,,,,,0.25,,,,,,,,,,,,,,,,,,,,,,60fb1eeb25785cbdfbcbdf02,61036e863c221507b344c664,2021-07-29_23h17.06.126,Simcolourproject_2stim_asymm_v5,2020.2.10,Win32,60,61025ae37ef11b136ea224fe,,,,,,,,,3644,80,20,1,0,0,response1disk,,6,12,1,1,0,0,rectangle,12,1,1,0,0,12,1,1,0,0,0,91,91,130,1,,,,,,,,
,,,,,,,,,,,,,FF,,,,,,,,0.3336,,,,,,,,,,,,,,,,,,,,,,60fb1eeb25785cbdfbcbdf02,61036e863c221507b344c664,2021-07-29_23h17.06.126,Simcolourproject_2stim_asymm_v5,2020.2.10,Win32,60,61025ae37ef11b136ea224fe,,,,,,,,,3104,-83,36,1,0,0,response7disk,,1,10,1,1,0,0,rectangle,10,1,1,0,0,10,1,1,0,0,0,92,92,23,1,,,,,,,,
,,,,,,,,,,,,,FF,,,,,,,,0.3002,,,,,,,,,,,,,,,,,,,,,,60fb1eeb25785cbdfbcbdf02,61036e863c221507b344c664,2021-07-29_23h17.06.126,Simcolourproject_2stim_asymm_v5,2020.2.10,Win32,60,61025ae37ef11b136ea224fe,,,,,,,,,3584,77,56,1,0,0,response1disk,,6,21,3,1,0,0,rectangle,21,3,1,0,0,21,3,1,0,0,0,93,93,129,1,,,,,,,,
,,,,,,,,,,,,,FF,,,,,,,,0.4167,,,,,,,,,,,,,,,,,,,,,,60fb1eeb25785cbdfbcbdf02,61036e863c221507b344c664,2021-07-29_23h17.06.126,Simcolourproject_2stim_asymm_v5,2020.2.10,Win32,60,61025ae37ef11b136ea224fe,,,,,,,,,2559,84,-37,1,0,0,response3disk,,5,-2,-4,1,0,0,rectangle,-2,-4,1,0,0,-2,-4,1,0,0,0,94,94,65,1,,,,,,,,
,,,,,,,,,,,,,FF,,,,,,,,0.233,,,,,,,,,,,,,,,,,,,,,,60fb1eeb25785cbdfbcbdf02,61036e863c221507b344c664,2021-07-29_23h17.06.126,Simcolourproject_2stim_asymm_v5,2020.2.10,Win32,60,61025ae37ef11b136ea224fe,,,,,,,,,2484,61,56,1,0,0,response1disk,,6,25,8,1,0,0,rectangle,25,8,1,0,0,25,8,1,0,0,0,95,95,74,1,,,,,,,,
,,,,,,,,,,,,,FF,,,,,,,,0.4171,,,,,,,,,,,,,,,,,,,,,,60fb1eeb25785cbdfbcbdf02,61036e863c221507b344c664,2021-07-29_23h17.06.126,Simcolourproject_2stim_asymm_v5,2020.2.10,Win32,60,61025ae37ef11b136ea224fe,,,,,,,,,3334,81,-20,1,0,0,response3disk,,5,0,3,1,0,0,rectangle,0,3,1,0,0,0,3,1,0,0,0,96,96,12,1,,,,,,,,
,,,,,,,,,,,,,FF,,,,,,,,0.4163,,,,,,,,,,,,,,,,,,,,,,60fb1eeb25785cbdfbcbdf02,61036e863c221507b344c664,2021-07-29_23h17.06.126,Simcolourproject_2stim_asymm_v5,2020.2.10,Win32,60,61025ae37ef11b136ea224fe,,,,,,,,,1228,80,59,1,0,0,response1disk,,6,-12,-2,1,0,0,rectangle,-12,-2,1,0,0,-12,-2,1,0,0,0,97,97,38,1,,,,,,,,
,,,,,,,,,,,,,FF,,,,,,,,0.4833,,,,,,,,,,,,,,,,,,,,,,60fb1eeb25785cbdfbcbdf02,61036e863c221507b344c664,2021-07-29_23h17.06.126,Simcolourproject_2stim_asymm_v5,2020.2.10,Win32,60,61025ae37ef11b136ea224fe,,,,,,,,,3948,71,-38,1,0,0,response3disk,,5,2,-14,1,0,0,rectangle,2,-14,1,0,0,2,-14,1,0,0,0,98,98,103,1,,,,,,,,
,,,,,,,,,,,,,FF,,,,,,,,0.4668,,,,,,,,,,,,,,,,,,,,,,60fb1eeb25785cbdfbcbdf02,61036e863c221507b344c664,2021-07-29_23h17.06.126,Simcolourproject_2stim_asymm_v5,2020.2.10,Win32,60,61025ae37ef11b136ea224fe,,,,,,,,,1937,67,-38,1,0,0,response3disk,,5,-7,-3,1,0,0,rectangle,52,-47,1,0,0,3,11,1,0,0,0,99,99,4,1,,response3disk_3,TRUE,5,0,"[50,237,100,65,202,292,271,2,90,238,222,295,70,230,243,271,104,159,239,323]",0.902,rectangle
,,,,,,,,,,,,,FF,,,,,,,,0.6332,,,,,,,,,,,,,,,,,,,,,,60fb1eeb25785cbdfbcbdf02,61036e863c221507b344c664,2021-07-29_23h17.06.126,Simcolourproject_2stim_asymm_v5,2020.2.10,Win32,60,61025ae37ef11b136ea224fe,,,,,,,,,2636,80,32,1,0,0,response1disk,,6,1,-14,1,0,0,rectangle,1,-14,1,0,0,1,-14,1,0,0,0,100,100,105,1,,,,,,,,
,,,,,,,,,,,,,FF,,,,,,,,0.3313,,,,,,,,,,,,,,,,,,,,,,60fb1eeb25785cbdfbcbdf02,61036e863c221507b344c664,2021-07-29_23h17.06.126,Simcolourproject_2stim_asymm_v5,2020.2.10,Win32,60,61025ae37ef11b136ea224fe,,,,,,,,,4223,65,66,1,0,0,response1disk,,7,-1,7,1,0,0,rectangle,-1,7,1,0,0,-1,7,1,0,0,0,101,101,37,1,,,,,,,,
,,,,,,,,,,,,,FF,,,,,,,,0.598,,,,,,,,,,,,,,,,,,,,,,60fb1eeb25785cbdfbcbdf02,61036e863c221507b344c664,2021-07-29_23h17.06.126,Simcolourproject_2stim_asymm_v5,2020.2.10,Win32,60,61025ae37ef11b136ea224fe,,,,,,,,,2103,83,-51,1,0,0,response3disk,,5,-11,-11,1,0,0,rectangle,-11,-11,1,0,0,-11,-11,1,0,0,0,102,102,126,1,,,,,,,,
,,,,,,,,,,,,,FF,,,,,,,,0.4191,,,,,,,,,,,,,,,,,,,,,,60fb1eeb25785cbdfbcbdf02,61036e863c221507b344c664,2021-07-29_23h17.06.126,Simcolourproject_2stim_asymm_v5,2020.2.10,Win32,60,61025ae37ef11b136ea224fe,,,,,,,,,3243,64,-50,1,0,0,response3disk,,5,0,-2,1,0,0,rectangle,-43,-62,1,0,0,-7,-3,1,0,0,0,103,103,135,1,,response5disk_3,TRUE,3,1,"[50,237,100,65,202,292,271,2,90,238,222,295,70,230,243,271,104,159,239,323]",0.7855,rectangle
,,,,,,,,,,,,,FF,,,,,,,,0.5356,,,,,,,,,,,,,,,,,,,,,,60fb1eeb25785cbdfbcbdf02,61036e863c221507b344c664,2021-07-29_23h17.06.126,Simcolourproject_2stim_asymm_v5,2020.2.10,Win32,60,61025ae37ef11b136ea224fe,,,,,,,,,1516,61,71,1,0,0,response1disk,,7,21,-6,1,0,0,rectangle,21,-6,1,0,0,21,-6,1,0,0,0,104,104,87,1,,,,,,,,
,,,,,,,,,,,,,FF,,,,,,,,0.4499,,,,,,,,,,,,,,,,,,,,,,60fb1eeb25785cbdfbcbdf02,61036e863c221507b344c664,2021-07-29_23h17.06.126,Simcolourproject_2stim_asymm_v5,2020.2.10,Win32,60,61025ae37ef11b136ea224fe,,,,,,,,,759,44,-36,1,0,0,response3disk,,5,-8,1,1,0,0,rectangle,-8,1,1,0,0,-8,1,1,0,0,0,105,105,141,1,,,,,,,,
,,,,,,,,,,,,,FF,,,,,,,,0.4191,,,,,,,,,,,,,,,,,,,,,,60fb1eeb25785cbdfbcbdf02,61036e863c221507b344c664,2021-07-29_23h17.06.126,Simcolourproject_2stim_asymm_v5,2020.2.10,Win32,60,61025ae37ef11b136ea224fe,,,,,,,,,4063,62,-59,1,0,0,response3disk,,5,-3,1,1,0,0,rectangle,-3,1,1,0,0,-3,1,1,0,0,0,106,106,31,1,,,,,,,,
,,,,,,,,,,,,,FF,,,,,,,,0.4193,,,,,,,,,,,,,,,,,,,,,,60fb1eeb25785cbdfbcbdf02,61036e863c221507b344c664,2021-07-29_23h17.06.126,Simcolourproject_2stim_asymm_v5,2020.2.10,Win32,60,61025ae37ef11b136ea224fe,,,,,,,,,1646,84,40,1,0,0,response1disk,,6,10,3,1,0,0,rectangle,10,3,1,0,0,10,3,1,0,0,0,107,107,29,1,,,,,,,,
,,,,,,,,,,,,,FF,,,,,,,,0.3025,,,,,,,,,,,,,,,,,,,,,,60fb1eeb25785cbdfbcbdf02,61036e863c221507b344c664,2021-07-29_23h17.06.126,Simcolourproject_2stim_asymm_v5,2020.2.10,Win32,60,61025ae37ef11b136ea224fe,,,,,,,,,2152,73,53,1,0,0,response1disk,,6,-4,4,1,0,0,rectangle,-4,4,1,0,0,-4,4,1,0,0,0,108,108,8,1,,,,,,,,
,,,,,,,,,,,,,FF,,,,,,,,0.5005,,,,,,,,,,,,,,,,,,,,,,60fb1eeb25785cbdfbcbdf02,61036e863c221507b344c664,2021-07-29_23h17.06.126,Simcolourproject_2stim_asymm_v5,2020.2.10,Win32,60,61025ae37ef11b136ea224fe,,,,,,,,,1849,83,77,1,0,0,response1disk,,6,-12,12,1,0,0,rectangle,-12,12,1,0,0,-12,12,1,0,0,0,109,109,43,1,,,,,,,,
,,,,,,,,,,,,,FF,,,,,,,,0.3835,,,,,,,,,,,,,,,,,,,,,,60fb1eeb25785cbdfbcbdf02,61036e863c221507b344c664,2021-07-29_23h17.06.126,Simcolourproject_2stim_asymm_v5,2020.2.10,Win32,60,61025ae37ef11b136ea224fe,,,,,,,,,1999,56,-36,1,0,0,response3disk,,5,-7,4,1,0,0,rectangle,-7,4,1,0,0,-7,4,1,0,0,0,110,110,40,1,,,,,,,,
,,,,,,,,,,,,,FF,,,,,,,,0.4836,,,,,,,,,,,,,,,,,,,,,,60fb1eeb25785cbdfbcbdf02,61036e863c221507b344c664,2021-07-29_23h17.06.126,Simcolourproject_2stim_asymm_v5,2020.2.10,Win32,60,61025ae37ef11b136ea224fe,,,,,,,,,4326,89,65,1,0,0,response1disk,,6,2,-7,1,0,0,rectangle,2,-7,1,0,0,2,-7,1,0,0,0,111,111,3,1,,,,,,,,
,,,,,,,,,,,,,FF,,,,,,,,0.4172,,,,,,,,,,,,,,,,,,,,,,60fb1eeb25785cbdfbcbdf02,61036e863c221507b344c664,2021-07-29_23h17.06.126,Simcolourproject_2stim_asymm_v5,2020.2.10,Win32,60,61025ae37ef11b136ea224fe,,,,,,,,,3527,84,-57,1,0,0,response3disk,,5,1,1,1,0,0,rectangle,1,1,1,0,0,1,1,1,0,0,0,112,112,63,1,,,,,,,,
,,,,,,,,,,,,,FF,,,,,,,,0.4026,,,,,,,,,,,,,,,,,,,,,,60fb1eeb25785cbdfbcbdf02,61036e863c221507b344c664,2021-07-29_23h17.06.126,Simcolourproject_2stim_asymm_v5,2020.2.10,Win32,60,61025ae37ef11b136ea224fe,,,,,,,,,1444,94,47,1,0,0,response1disk,,6,16,2,1,0,0,rectangle,16,2,1,0,0,16,2,1,0,0,0,113,113,107,1,,,,,,,,
,,,,,,,,,,,,,FF,,,,,,,,0.386,,,,,,,,,,,,,,,,,,,,,,60fb1eeb25785cbdfbcbdf02,61036e863c221507b344c664,2021-07-29_23h17.06.126,Simcolourproject_2stim_asymm_v5,2020.2.10,Win32,60,61025ae37ef11b136ea224fe,,,,,,,,,2298,59,59,1,0,0,response1disk,,7,5,-9,1,0,0,rectangle,5,-9,1,0,0,5,-9,1,0,0,0,114,114,146,1,,,,,,,,
,,,,,,,,,,,,,FF,,,,,,,,0.2851,,,,,,,,,,,,,,,,,,,,,,60fb1eeb25785cbdfbcbdf02,61036e863c221507b344c664,2021-07-29_23h17.06.126,Simcolourproject_2stim_asymm_v5,2020.2.10,Win32,60,61025ae37ef11b136ea224fe,,,,,,,,,1717,81,-43,1,0,0,response3disk,,5,-30,5,1,0,0,rectangle,-30,5,1,0,0,-30,5,1,0,0,0,115,115,59,1,,,,,,,,
,,,,,,,,,,,,,FF,,,,,,,,0.3669,,,,,,,,,,,,,,,,,,,,,,60fb1eeb25785cbdfbcbdf02,61036e863c221507b344c664,2021-07-29_23h17.06.126,Simcolourproject_2stim_asymm_v5,2020.2.10,Win32,60,61025ae37ef11b136ea224fe,,,,,,,,,3345,64,-64,1,0,0,response3disk,,5,12,4,1,0,0,rectangle,12,4,1,0,0,12,4,1,0,0,0,116,116,150,1,,,,,,,,
,,,,,,,,,,,,,FF,,,,,,,,0.5357,,,,,,,,,,,,,,,,,,,,,,60fb1eeb25785cbdfbcbdf02,61036e863c221507b344c664,2021-07-29_23h17.06.126,Simcolourproject_2stim_asymm_v5,2020.2.10,Win32,60,61025ae37ef11b136ea224fe,,,,,,,,,832,78,89,1,0,0,response1disk,,7,-24,3,1,0,0,rectangle,-24,3,1,0,0,-24,3,1,0,0,0,117,117,153,1,,,,,,,,
,,,,,,,,,,,,,FF,,,,,,,,0.3332,,,,,,,,,,,,,,,,,,,,,,60fb1eeb25785cbdfbcbdf02,61036e863c221507b344c664,2021-07-29_23h17.06.126,Simcolourproject_2stim_asymm_v5,2020.2.10,Win32,60,61025ae37ef11b136ea224fe,,,,,,,,,698,88,-46,1,0,0,response3disk,,5,10,-12,1,0,0,rectangle,10,-12,1,0,0,10,-12,1,0,0,0,118,118,28,1,,,,,,,,
,,,,,,,,,,,,,FF,,,,,,,,0.6193,,,,,,,,,,,,,,,,,,,,,,60fb1eeb25785cbdfbcbdf02,61036e863c221507b344c664,2021-07-29_23h17.06.126,Simcolourproject_2stim_asymm_v5,2020.2.10,Win32,60,61025ae37ef11b136ea224fe,,,,,,,,,3166,-64,70,1,0,0,response7disk,,0,7,-4,1,0,0,rectangle,7,-4,1,0,0,7,-4,1,0,0,0,119,119,89,1,,,,,,,,
,,,,,,,,,,,,,FF,,,,,,,,0.3836,,,,,,,,,,,,,,,,,,,,,,60fb1eeb25785cbdfbcbdf02,61036e863c221507b344c664,2021-07-29_23h17.06.126,Simcolourproject_2stim_asymm_v5,2020.2.10,Win32,60,61025ae37ef11b136ea224fe,,,,,,,,,1007,54,-71,1,0,0,response3disk,,4,-14,0,1,0,0,rectangle,-14,0,1,0,0,-14,0,1,0,0,0,120,120,48,1,,,,,,,,
,,,,,,,,,,,,,FF,,,,,,,,0.4501,,,,,,,,,,,,,,,,,,,,,,60fb1eeb25785cbdfbcbdf02,61036e863c221507b344c664,2021-07-29_23h17.06.126,Simcolourproject_2stim_asymm_v5,2020.2.10,Win32,60,61025ae37ef11b136ea224fe,,,,,,,,,2420,65,-15,1,0,0,response3disk,,5,-9,3,1,0,0,rectangle,-9,3,1,0,0,-9,3,1,0,0,0,121,121,132,1,,,,,,,,
,,,,,,,,,,,,,FF,,,,,,,,0.4667,,,,,,,,,,,,,,,,,,,,,,60fb1eeb25785cbdfbcbdf02,61036e863c221507b344c664,2021-07-29_23h17.06.126,Simcolourproject_2stim_asymm_v5,2020.2.10,Win32,60,61025ae37ef11b136ea224fe,,,,,,,,,3677,54,-84,1,0,0,response3disk,,4,-17,-2,1,0,0,rectangle,-17,-2,1,0,0,-17,-2,1,0,0,0,122,122,109,1,,,,,,,,
,,,,,,,,,,,,,FF,,,,,,,,0.4002,,,,,,,,,,,,,,,,,,,,,,60fb1eeb25785cbdfbcbdf02,61036e863c221507b344c664,2021-07-29_23h17.06.126,Simcolourproject_2stim_asymm_v5,2020.2.10,Win32,60,61025ae37ef11b136ea224fe,,,,,,,,,1271,87,-66,1,0,0,response3disk,,5,13,-3,1,0,0,rectangle,13,-3,1,0,0,13,-3,1,0,0,0,123,123,98,1,,,,,,,,
,,,,,,,,,,,,,FF,,,,,,,,0.5165,,,,,,,,,,,,,,,,,,,,,,60fb1eeb25785cbdfbcbdf02,61036e863c221507b344c664,2021-07-29_23h17.06.126,Simcolourproject_2stim_asymm_v5,2020.2.10,Win32,60,61025ae37ef11b136ea224fe,,,,,,,,,1910,63,-75,1,0,0,response3disk,,4,-13,2,1,0,0,rectangle,-13,2,1,0,0,-13,2,1,0,0,0,124,124,101,1,,,,,,,,
,,,,,,,,,,,,,FF,,,,,,,,0.4667,,,,,,,,,,,,,,,,,,,,,,60fb1eeb25785cbdfbcbdf02,61036e863c221507b344c664,2021-07-29_23h17.06.126,Simcolourproject_2stim_asymm_v5,2020.2.10,Win32,60,61025ae37ef11b136ea224fe,,,,,,,,,2566,42,37,1,0,0,response1disk,,6,17,4,1,0,0,rectangle,17,4,1,0,0,17,4,1,0,0,0,125,125,22,1,,,,,,,,
,,,,,,,,,,,,,FF,,,,,,,,0.819,,,,,,,,,,,,,,,,,,,,,,60fb1eeb25785cbdfbcbdf02,61036e863c221507b344c664,2021-07-29_23h17.06.126,Simcolourproject_2stim_asymm_v5,2020.2.10,Win32,60,61025ae37ef11b136ea224fe,,,,,,,,,2663,37,21,1,0,0,response1disk,,6,13,-11,1,0,0,rectangle,13,-11,1,0,0,13,-11,1,0,0,0,126,126,6,1,,,,,,,,
,,,,,,,,,,,,,FF,,,,,,,,0.7192,,,,,,,,,,,,,,,,,,,,,,60fb1eeb25785cbdfbcbdf02,61036e863c221507b344c664,2021-07-29_23h17.06.126,Simcolourproject_2stim_asymm_v5,2020.2.10,Win32,60,61025ae37ef11b136ea224fe,,,,,,,,,4246,82,-33,1,0,0,response3disk,,5,2,6,1,0,0,rectangle,2,6,1,0,0,2,6,1,0,0,0,127,127,36,1,,,,,,,,
,,,,,,,,,,,,,FF,,,,,,,,0.7691,,,,,,,,,,,,,,,,,,,,,,60fb1eeb25785cbdfbcbdf02,61036e863c221507b344c664,2021-07-29_23h17.06.126,Simcolourproject_2stim_asymm_v5,2020.2.10,Win32,60,61025ae37ef11b136ea224fe,,,,,,,,,965,-51,-80,1,0,0,response5disk,,3,-16,13,1,0,0,rectangle,-16,13,1,0,0,-16,13,1,0,0,0,128,128,64,1,,,,,,,,
,,,,,,,,,,,,,FF,,,,,,,,0.6166,,,,,,,,,,,,,,,,,,,,,,60fb1eeb25785cbdfbcbdf02,61036e863c221507b344c664,2021-07-29_23h17.06.126,Simcolourproject_2stim_asymm_v5,2020.2.10,Win32,60,61025ae37ef11b136ea224fe,,,,,,,,,2549,57,-64,1,0,0,response3disk,,4,7,-5,1,0,0,rectangle,7,-5,1,0,0,7,-5,1,0,0,0,129,129,44,1,,,,,,,,
,,,,,,,,,,,,,FF,,,,,,,,0.5023,,,,,,,,,,,,,,,,,,,,,,60fb1eeb25785cbdfbcbdf02,61036e863c221507b344c664,2021-07-29_23h17.06.126,Simcolourproject_2stim_asymm_v5,2020.2.10,Win32,60,61025ae37ef11b136ea224fe,,,,,,,,,1427,59,-96,1,0,0,response3disk,,4,12,3,1,0,0,rectangle,12,3,1,0,0,12,3,1,0,0,0,130,130,154,1,,,,,,,,
,,,,,,,,,,,,,FF,,,,,,,,0.5499,,,,,,,,,,,,,,,,,,,,,,60fb1eeb25785cbdfbcbdf02,61036e863c221507b344c664,2021-07-29_23h17.06.126,Simcolourproject_2stim_asymm_v5,2020.2.10,Win32,60,61025ae37ef11b136ea224fe,,,,,,,,,592,76,-36,1,0,0,response3disk,,5,4,-2,1,0,0,rectangle,4,-2,1,0,0,4,-2,1,0,0,0,131,131,62,1,,,,,,,,
,,,,,,,,,,,,,FF,,,,,,,,0.4339,,,,,,,,,,,,,,,,,,,,,,60fb1eeb25785cbdfbcbdf02,61036e863c221507b344c664,2021-07-29_23h17.06.126,Simcolourproject_2stim_asymm_v5,2020.2.10,Win32,60,61025ae37ef11b136ea224fe,,,,,,,,,1453,50,64,1,0,0,response1disk,,7,18,-8,1,0,0,rectangle,18,-8,1,0,0,18,-8,1,0,0,0,132,132,18,1,,,,,,,,
,,,,,,,,,,,,,FF,,,,,,,,0.7166,,,,,,,,,,,,,,,,,,,,,,60fb1eeb25785cbdfbcbdf02,61036e863c221507b344c664,2021-07-29_23h17.06.126,Simcolourproject_2stim_asymm_v5,2020.2.10,Win32,60,61025ae37ef11b136ea224fe,,,,,,,,,4090,85,-34,1,0,0,response3disk,,5,-3,-3,1,0,0,rectangle,-3,-3,1,0,0,-3,-3,1,0,0,0,133,133,68,1,,,,,,,,
,,,,,,,,,,,,,FF,,,,,,,,0.436,,,,,,,,,,,,,,,,,,,,,,60fb1eeb25785cbdfbcbdf02,61036e863c221507b344c664,2021-07-29_23h17.06.126,Simcolourproject_2stim_asymm_v5,2020.2.10,Win32,60,61025ae37ef11b136ea224fe,,,,,,,,,2882,47,75,1,0,0,response1disk,,7,-9,3,1,0,0,rectangle,-9,3,1,0,0,-9,3,1,0,0,0,134,134,143,1,,,,,,,,
,,,,,,,,,,,,,FF,,,,,,,,0.3339,,,,,,,,,,,,,,,,,,,,,,60fb1eeb25785cbdfbcbdf02,61036e863c221507b344c664,2021-07-29_23h17.06.126,Simcolourproject_2stim_asymm_v5,2020.2.10,Win32,60,61025ae37ef11b136ea224fe,,,,,,,,,900,76,-42,1,0,0,response3disk,,5,-11,5,1,0,0,rectangle,-11,5,1,0,0,-11,5,1,0,0,0,135,135,142,1,,,,,,,,
,,,,,,,,,,,,,FF,,,,,,,,0.4196,,,,,,,,,,,,,,,,,,,,,,60fb1eeb25785cbdfbcbdf02,61036e863c221507b344c664,2021-07-29_23h17.06.126,Simcolourproject_2stim_asymm_v5,2020.2.10,Win32,60,61025ae37ef11b136ea224fe,,,,,,,,,2852,64,86,1,0,0,response1disk,,7,17,3,1,0,0,rectangle,17,3,1,0,0,17,3,1,0,0,0,136,136,60,1,,,,,,,,
,,,,,,,,,,,,,FF,,,,,,,,0.4697,,,,,,,,,,,,,,,,,,,,,,60fb1eeb25785cbdfbcbdf02,61036e863c221507b344c664,2021-07-29_23h17.06.126,Simcolourproject_2stim_asymm_v5,2020.2.10,Win32,60,61025ae37ef11b136ea224fe,,,,,,,,,3939,86,99,1,0,0,response1disk,,7,12,-9,1,0,0,rectangle,12,-9,1,0,0,12,-9,1,0,0,0,137,137,99,1,,,,,,,,
,,,,,,,,,,,,,FF,,,,,,,,0.417,,,,,,,,,,,,,,,,,,,,,,60fb1eeb25785cbdfbcbdf02,61036e863c221507b344c664,2021-07-29_23h17.06.126,Simcolourproject_2stim_asymm_v5,2020.2.10,Win32,60,61025ae37ef11b136ea224fe,,,,,,,,,1552,104,-59,1,0,0,response3disk,,5,-24,-1,1,0,0,rectangle,-24,-1,1,0,0,-24,-1,1,0,0,0,138,138,158,1,,,,,,,,
,,,,,,,,,,,,,FF,,,,,,,,0.3816,,,,,,,,,,,,,,,,,,,,,,60fb1eeb25785cbdfbcbdf02,61036e863c221507b344c664,2021-07-29_23h17.06.126,Simcolourproject_2stim_asymm_v5,2020.2.10,Win32,60,61025ae37ef11b136ea224fe,,,,,,,,,3167,88,-36,1,0,0,response3disk,,5,8,5,1,0,0,rectangle,8,5,1,0,0,8,5,1,0,0,0,139,139,120,1,,,,,,,,
,,,,,,,,,,,,,FF,,,,,,,,0.3339,,,,,,,,,,,,,,,,,,,,,,60fb1eeb25785cbdfbcbdf02,61036e863c221507b344c664,2021-07-29_23h17.06.126,Simcolourproject_2stim_asymm_v5,2020.2.10,Win32,60,61025ae37ef11b136ea224fe,,,,,,,,,2380,95,61,1,0,0,response1disk,,6,13,10,1,0,0,rectangle,13,10,1,0,0,13,10,1,0,0,0,140,140,79,1,,,,,,,,
,,,,,,,,,,,,,FF,,,,,,,,0.3666,,,,,,,,,,,,,,,,,,,,,,60fb1eeb25785cbdfbcbdf02,61036e863c221507b344c664,2021-07-29_23h17.06.126,Simcolourproject_2stim_asymm_v5,2020.2.10,Win32,60,61025ae37ef11b136ea224fe,,,,,,,,,3789,67,-24,1,0,0,response3disk,,5,23,1,1,0,0,rectangle,23,1,1,0,0,23,1,1,0,0,0,141,141,50,1,,,,,,,,
,,,,,,,,,,,,,FF,,,,,,,,0.8001,,,,,,,,,,,,,,,,,,,,,,60fb1eeb25785cbdfbcbdf02,61036e863c221507b344c664,2021-07-29_23h17.06.126,Simcolourproject_2stim_asymm_v5,2020.2.10,Win32,60,61025ae37ef11b136ea224fe,,,,,,,,,300,66,-50,1,0,0,response3disk,,5,-9,5,1,0,0,rectangle,-9,5,1,0,0,-9,5,1,0,0,0,142,142,114,1,,,,,,,,
,,,,,,,,,,,,,FF,,,,,,,,0.4501,,,,,,,,,,,,,,,,,,,,,,60fb1eeb25785cbdfbcbdf02,61036e863c221507b344c664,2021-07-29_23h17.06.126,Simcolourproject_2stim_asymm_v5,2020.2.10,Win32,60,61025ae37ef11b136ea224fe,,,,,,,,,808,62,-82,1,0,0,response3disk,,4,-8,-2,1,0,0,rectangle,-8,-2,1,0,0,-8,-2,1,0,0,0,143,143,14,1,,,,,,,,
,,,,,,,,,,,,,FF,,,,,,,,0.55,,,,,,,,,,,,,,,,,,,,,,60fb1eeb25785cbdfbcbdf02,61036e863c221507b344c664,2021-07-29_23h17.06.126,Simcolourproject_2stim_asymm_v5,2020.2.10,Win32,60,61025ae37ef11b136ea224fe,,,,,,,,,94,-36,71,1,0,0,response7disk,,0,-25,-7,1,0,0,rectangle,-25,-7,1,0,0,-25,-7,1,0,0,0,144,144,67,1,,,,,,,,
,,,,,,,,,,,,,FF,,,,,,,,0.3359,,,,,,,,,,,,,,,,,,,,,,60fb1eeb25785cbdfbcbdf02,61036e863c221507b344c664,2021-07-29_23h17.06.126,Simcolourproject_2stim_asymm_v5,2020.2.10,Win32,60,61025ae37ef11b136ea224fe,,,,,,,,,3096,54,59,1,0,0,response1disk,,7,-11,-3,1,0,0,rectangle,-11,-3,1,0,0,-11,-3,1,0,0,0,145,145,42,1,,,,,,,,
,,,,,,,,,,,,,FF,,,,,,,,0.4337,,,,,,,,,,,,,,,,,,,,,,60fb1eeb25785cbdfbcbdf02,61036e863c221507b344c664,2021-07-29_23h17.06.126,Simcolourproject_2stim_asymm_v5,2020.2.10,Win32,60,61025ae37ef11b136ea224fe,,,,,,,,,3251,47,67,1,0,0,response1disk,,7,20,11,1,0,0,rectangle,20,11,1,0,0,20,11,1,0,0,0,146,146,88,1,,,,,,,,
,,,,,,,,,,,,,FF,,,,,,,,0.3333,,,,,,,,,,,,,,,,,,,,,,60fb1eeb25785cbdfbcbdf02,61036e863c221507b344c664,2021-07-29_23h17.06.126,Simcolourproject_2stim_asymm_v5,2020.2.10,Win32,60,61025ae37ef11b136ea224fe,,,,,,,,,3867,69,-48,1,0,0,response3disk,,5,-8,1,1,0,0,rectangle,-8,1,1,0,0,-8,1,1,0,0,0,147,147,147,1,,,,,,,,
,,,,,,,,,,,,,FF,,,,,,,,0.5837,,,,,,,,,,,,,,,,,,,,,,60fb1eeb25785cbdfbcbdf02,61036e863c221507b344c664,2021-07-29_23h17.06.126,Simcolourproject_2stim_asymm_v5,2020.2.10,Win32,60,61025ae37ef11b136ea224fe,,,,,,,,,571,87,-33,1,0,0,response3disk,,5,6,3,1,0,0,rectangle,6,3,1,0,0,6,3,1,0,0,0,148,148,5,1,,,,,,,,
,,,,,,,,,,,,,FF,,,,,,,,0.5837,,,,,,,,,,,,,,,,,,,,,,60fb1eeb25785cbdfbcbdf02,61036e863c221507b344c664,2021-07-29_23h17.06.126,Simcolourproject_2stim_asymm_v5,2020.2.10,Win32,60,61025ae37ef11b136ea224fe,,,,,,,,,4324,74,-28,1,0,0,response3disk,,5,5,7,1,0,0,rectangle,5,7,1,0,0,5,7,1,0,0,0,149,149,21,1,,,,,,,,
,,,,,,,,,,,,,FF,,,,,,,,0.4028,,,,,,,,,,,,,,,,,,,,,,60fb1eeb25785cbdfbcbdf02,61036e863c221507b344c664,2021-07-29_23h17.06.126,Simcolourproject_2stim_asymm_v5,2020.2.10,Win32,60,61025ae37ef11b136ea224fe,,,,,,,,,3161,60,69,1,0,0,response1disk,,7,5,11,1,0,0,rectangle,5,11,1,0,0,5,11,1,0,0,0,150,150,90,1,,,,,,,,
,,,,,,,,,,,,,FF,,,,,,,,0.3833,,,,,,,,,,,,,,,,,,,,,,60fb1eeb25785cbdfbcbdf02,61036e863c221507b344c664,2021-07-29_23h17.06.126,Simcolourproject_2stim_asymm_v5,2020.2.10,Win32,60,61025ae37ef11b136ea224fe,,,,,,,,,3111,65,-21,1,0,0,response3disk,,5,5,-4,1,0,0,rectangle,5,-4,1,0,0,5,-4,1,0,0,0,151,151,96,1,,,,,,,,
,,,,,,,,,,,,,FF,,,,,,,,0.3361,,,,,,,,,,,,,,,,,,,,,,60fb1eeb25785cbdfbcbdf02,61036e863c221507b344c664,2021-07-29_23h17.06.126,Simcolourproject_2stim_asymm_v5,2020.2.10,Win32,60,61025ae37ef11b136ea224fe,,,,,,,,,3206,64,69,1,0,0,response1disk,,7,6,0,1,0,0,rectangle,6,0,1,0,0,6,0,1,0,0,0,152,152,11,1,,,,,,,,
,,,,,,,,,,,,,FF,,,,,,,,0.3668,,,,,,,,,,,,,,,,,,,,,,60fb1eeb25785cbdfbcbdf02,61036e863c221507b344c664,2021-07-29_23h17.06.126,Simcolourproject_2stim_asymm_v5,2020.2.10,Win32,60,61025ae37ef11b136ea224fe,,,,,,,,,4319,46,-48,1,0,0,response3disk,,4,-2,6,1,0,0,rectangle,-2,6,1,0,0,-2,6,1,0,0,0,153,153,47,1,,,,,,,,
,,,,,,,,,,,,,FF,,,,,,,,0.4163,,,,,,,,,,,,,,,,,,,,,,60fb1eeb25785cbdfbcbdf02,61036e863c221507b344c664,2021-07-29_23h17.06.126,Simcolourproject_2stim_asymm_v5,2020.2.10,Win32,60,61025ae37ef11b136ea224fe,,,,,,,,,2396,76,-63,1,0,0,response3disk,,5,0,-8,1,0,0,rectangle,0,-8,1,0,0,0,-8,1,0,0,0,154,154,110,1,,,,,,,,
,,,,,,,,,,,,,FF,,,,,,,,0.4166,,,,,,,,,,,,,,,,,,,,,,60fb1eeb25785cbdfbcbdf02,61036e863c221507b344c664,2021-07-29_23h17.06.126,Simcolourproject_2stim_asymm_v5,2020.2.10,Win32,60,61025ae37ef11b136ea224fe,,,,,,,,,1830,49,-67,1,0,0,response3disk,,4,-15,-8,1,0,0,rectangle,-15,-8,1,0,0,-15,-8,1,0,0,0,155,155,61,1,,,,,,,,
,,,,,,,,,,,,,FF,,,,,,,,0.2481,,,,,,,,,,,,,,,,,,,,,,60fb1eeb25785cbdfbcbdf02,61036e863c221507b344c664,2021-07-29_23h17.06.126,Simcolourproject_2stim_asymm_v5,2020.2.10,Win32,60,61025ae37ef11b136ea224fe,,,,,,,,,346,89,35,1,0,0,response1disk,,6,7,-3,1,0,0,rectangle,7,-3,1,0,0,7,-3,1,0,0,0,156,156,56,1,,,,,,,,
,,,,,,,,,,,,,FF,,,,,,,,0.4331,,,,,,,,,,,,,,,,,,,,,,60fb1eeb25785cbdfbcbdf02,61036e863c221507b344c664,2021-07-29_23h17.06.126,Simcolourproject_2stim_asymm_v5,2020.2.10,Win32,60,61025ae37ef11b136ea224fe,,,,,,,,,2117,29,78,1,0,0,response1disk,,7,-1,-12,1,0,0,rectangle,-1,-12,1,0,0,-1,-12,1,0,0,0,157,157,52,1,,,,,,,,
,,,,,,,,,,,,,FF,,,,,,,,0.3145,,,,,,,,,,,,,,,,,,,,,,60fb1eeb25785cbdfbcbdf02,61036e863c221507b344c664,2021-07-29_23h17.06.126,Simcolourproject_2stim_asymm_v5,2020.2.10,Win32,60,61025ae37ef11b136ea224fe,,,,,,,,,2577,84,-48,1,0,0,response3disk,,5,-5,1,1,0,0,rectangle,75,73,1,0,0,27,4,1,0,0,0,158,158,104,1,,response1disk_3,TRUE,6,3,"[50,237,100,65,202,292,271,2,90,238,222,295,70,230,243,271,104,159,239,323]",0.5519,rectangle
,,,,,,,,,,,,,FF,,,,,,,,0.3692,,,,,,,,,,,,,,,,,,,,,,60fb1eeb25785cbdfbcbdf02,61036e863c221507b344c664,2021-07-29_23h17.06.126,Simcolourproject_2stim_asymm_v5,2020.2.10,Win32,60,61025ae37ef11b136ea224fe,,,,,,,,,1400,82,50,1,0,0,response1disk,,6,-13,14,1,0,0,rectangle,-13,14,1,0,0,-13,14,1,0,0,0,159,159,113,1,,,,,,,,
,,,,,,,,,,,,,FF,,,,,,,,0.5192,,,,,,,,,,,,,,,,,,,,,,60fb1eeb25785cbdfbcbdf02,61036e863c221507b344c664,2021-07-29_23h17.06.126,Simcolourproject_2stim_asymm_v5,2020.2.10,Win32,60,61025ae37ef11b136ea224fe,,,,,,,,,2736,-51,77,1,0,0,response7disk,,0,-13,-4,1,0,0,rectangle,-13,-4,1,0,0,-13,-4,1,0,0,1,0,160,72,1,,,,,,,,
,,,,,,,,,,,,,FF,,,,,,,,0.5812,,,,,,,,,,,,,,,,,,,,,,60fb1eeb25785cbdfbcbdf02,61036e863c221507b344c664,2021-07-29_23h17.06.126,Simcolourproject_2stim_asymm_v5,2020.2.10,Win32,60,61025ae37ef11b136ea224fe,,,,,,,,,1833,-35,76,1,0,0,response7disk,,0,10,13,1,0,0,rectangle,10,13,1,0,0,10,13,1,0,0,1,1,161,112,1,,,,,,,,
,,,,,,,,,,,,,FF,,,,,,,,0.5691,,,,,,,,,,,,,,,,,,,,,,60fb1eeb25785cbdfbcbdf02,61036e863c221507b344c664,2021-07-29_23h17.06.126,Simcolourproject_2stim_asymm_v5,2020.2.10,Win32,60,61025ae37ef11b136ea224fe,,,,,,,,,4184,-52,105,1,0,0,response7disk,,0,-1,2,1,0,0,rectangle,-1,2,1,0,0,-1,2,1,0,0,1,2,162,39,1,,,,,,,,
,,,,,,,,,,,,,FF,,,,,,,,0.5001,,,,,,,,,,,,,,,,,,,,,,60fb1eeb25785cbdfbcbdf02,61036e863c221507b344c664,2021-07-29_23h17.06.126,Simcolourproject_2stim_asymm_v5,2020.2.10,Win32,60,61025ae37ef11b136ea224fe,,,,,,,,,202,-54,96,1,0,0,response7disk,,0,-1,5,1,0,0,rectangle,-1,5,1,0,0,-1,5,1,0,0,1,3,163,152,1,,,,,,,,
,,,,,,,,,,,,,FF,,,,,,,,0.4359,,,,,,,,,,,,,,,,,,,,,,60fb1eeb25785cbdfbcbdf02,61036e863c221507b344c664,2021-07-29_23h17.06.126,Simcolourproject_2stim_asymm_v5,2020.2.10,Win32,60,61025ae37ef11b136ea224fe,,,,,,,,,1644,62,-43,1,0,0,response3disk,,5,-9,-1,1,0,0,rectangle,-9,-1,1,0,0,-9,-1,1,0,0,1,4,164,78,1,,,,,,,,
,,,,,,,,,,,,,FF,,,,,,,,0.4862,,,,,,,,,,,,,,,,,,,,,,60fb1eeb25785cbdfbcbdf02,61036e863c221507b344c664,2021-07-29_23h17.06.126,Simcolourproject_2stim_asymm_v5,2020.2.10,Win32,60,61025ae37ef11b136ea224fe,,,,,,,,,1335,67,48,1,0,0,response1disk,,6,7,7,1,0,0,rectangle,7,7,1,0,0,7,7,1,0,0,1,5,165,159,1,,,,,,,,
,,,,,,,,,,,,,FF,,,,,,,,0.45,,,,,,,,,,,,,,,,,,,,,,60fb1eeb25785cbdfbcbdf02,61036e863c221507b344c664,2021-07-29_23h17.06.126,Simcolourproject_2stim_asymm_v5,2020.2.10,Win32,60,61025ae37ef11b136ea224fe,,,,,,,,,2690,60,-68,1,0,0,response3disk,,4,9,-1,1,0,0,rectangle,9,-1,1,0,0,9,-1,1,0,0,1,6,166,138,1,,,,,,,,
,,,,,,,,,,,,,FF,,,,,,,,0.5501,,,,,,,,,,,,,,,,,,,,,,60fb1eeb25785cbdfbcbdf02,61036e863c221507b344c664,2021-07-29_23h17.06.126,Simcolourproject_2stim_asymm_v5,2020.2.10,Win32,60,61025ae37ef11b136ea224fe,,,,,,,,,1727,55,-41,1,0,0,response3disk,,5,-4,-9,1,0,0,rectangle,-4,-9,1,0,0,-4,-9,1,0,0,1,7,167,67,1,,,,,,,,
,,,,,,,,,,,,,FF,,,,,,,,0.3312,,,,,,,,,,,,,,,,,,,,,,60fb1eeb25785cbdfbcbdf02,61036e863c221507b344c664,2021-07-29_23h17.06.126,Simcolourproject_2stim_asymm_v5,2020.2.10,Win32,60,61025ae37ef11b136ea224fe,,,,,,,,,2210,61,49,1,0,0,response1disk,,6,-7,-3,1,0,0,rectangle,-7,-3,1,0,0,-7,-3,1,0,0,1,8,168,91,1,,,,,,,,
,,,,,,,,,,,,,FF,,,,,,,,0.3334,,,,,,,,,,,,,,,,,,,,,,60fb1eeb25785cbdfbcbdf02,61036e863c221507b344c664,2021-07-29_23h17.06.126,Simcolourproject_2stim_asymm_v5,2020.2.10,Win32,60,61025ae37ef11b136ea224fe,,,,,,,,,1355,64,-46,1,0,0,response3disk,,5,6,1,1,0,0,rectangle,6,1,1,0,0,6,1,1,0,0,1,9,169,84,1,,,,,,,,
,,,,,,,,,,,,,FF,,,,,,,,0.4335,,,,,,,,,,,,,,,,,,,,,,60fb1eeb25785cbdfbcbdf02,61036e863c221507b344c664,2021-07-29_23h17.06.126,Simcolourproject_2stim_asymm_v5,2020.2.10,Win32,60,61025ae37ef11b136ea224fe,,,,,,,,,4218,53,68,1,0,0,response1disk,,7,-5,10,1,0,0,rectangle,-5,10,1,0,0,-5,10,1,0,0,1,10,170,0,1,,,,,,,,
,,,,,,,,,,,,,FF,,,,,,,,0.4169,,,,,,,,,,,,,,,,,,,,,,60fb1eeb25785cbdfbcbdf02,61036e863c221507b344c664,2021-07-29_23h17.06.126,Simcolourproject_2stim_asymm_v5,2020.2.10,Win32,60,61025ae37ef11b136ea224fe,,,,,,,,,1525,50,71,1,0,0,response1disk,,7,-25,12,1,0,0,rectangle,-25,12,1,0,0,-25,12,1,0,0,1,11,171,102,1,,,,,,,,
,,,,,,,,,,,,,FF,,,,,,,,0.3668,,,,,,,,,,,,,,,,,,,,,,60fb1eeb25785cbdfbcbdf02,61036e863c221507b344c664,2021-07-29_23h17.06.126,Simcolourproject_2stim_asymm_v5,2020.2.10,Win32,60,61025ae37ef11b136ea224fe,,,,,,,,,3842,53,-37,1,0,0,response3disk,,5,-9,-3,1,0,0,rectangle,-9,-3,1,0,0,-9,-3,1,0,0,1,12,172,68,1,,,,,,,,
,,,,,,,,,,,,,FF,,,,,,,,0.6668,,,,,,,,,,,,,,,,,,,,,,60fb1eeb25785cbdfbcbdf02,61036e863c221507b344c664,2021-07-29_23h17.06.126,Simcolourproject_2stim_asymm_v5,2020.2.10,Win32,60,61025ae37ef11b136ea224fe,,,,,,,,,4004,77,-64,1,0,0,response3disk,,5,-1,12,1,0,0,rectangle,-1,12,1,0,0,-1,12,1,0,0,1,13,173,52,1,,,,,,,,
,,,,,,,,,,,,,FF,,,,,,,,0.4333,,,,,,,,,,,,,,,,,,,,,,60fb1eeb25785cbdfbcbdf02,61036e863c221507b344c664,2021-07-29_23h17.06.126,Simcolourproject_2stim_asymm_v5,2020.2.10,Win32,60,61025ae37ef11b136ea224fe,,,,,,,,,3034,56,-54,1,0,0,response3disk,,5,13,-4,1,0,0,rectangle,13,-4,1,0,0,13,-4,1,0,0,1,14,174,29,1,,,,,,,,
,,,,,,,,,,,,,FF,,,,,,,,0.5167,,,,,,,,,,,,,,,,,,,,,,60fb1eeb25785cbdfbcbdf02,61036e863c221507b344c664,2021-07-29_23h17.06.126,Simcolourproject_2stim_asymm_v5,2020.2.10,Win32,60,61025ae37ef11b136ea224fe,,,,,,,,,216,31,23,1,0,0,response1disk,,6,13,-15,1,0,0,rectangle,13,-15,1,0,0,13,-15,1,0,0,1,15,175,42,1,,,,,,,,
,,,,,,,,,,,,,FF,,,,,,,,0.4027,,,,,,,,,,,,,,,,,,,,,,60fb1eeb25785cbdfbcbdf02,61036e863c221507b344c664,2021-07-29_23h17.06.126,Simcolourproject_2stim_asymm_v5,2020.2.10,Win32,60,61025ae37ef11b136ea224fe,,,,,,,,,143,-49,49,1,0,0,response7disk,,1,-23,-8,1,0,0,rectangle,-23,-8,1,0,0,-23,-8,1,0,0,1,16,176,106,1,,,,,,,,
,,,,,,,,,,,,,FF,,,,,,,,0.5501,,,,,,,,,,,,,,,,,,,,,,60fb1eeb25785cbdfbcbdf02,61036e863c221507b344c664,2021-07-29_23h17.06.126,Simcolourproject_2stim_asymm_v5,2020.2.10,Win32,60,61025ae37ef11b136ea224fe,,,,,,,,,3336,-32,-58,1,0,0,response5disk,,3,26,3,1,0,0,rectangle,26,3,1,0,0,26,3,1,0,0,1,17,177,1,1,,,,,,,,
,,,,,,,,,,,,,FF,,,,,,,,0.5979,,,,,,,,,,,,,,,,,,,,,,60fb1eeb25785cbdfbcbdf02,61036e863c221507b344c664,2021-07-29_23h17.06.126,Simcolourproject_2stim_asymm_v5,2020.2.10,Win32,60,61025ae37ef11b136ea224fe,,,,,,,,,1948,-30,-57,1,0,0,response5disk,,3,18,-8,1,0,0,rectangle,18,-8,1,0,0,18,-8,1,0,0,1,18,178,16,1,,,,,,,,
,,,,,,,,,,,,,FF,,,,,,,,0.3001,,,,,,,,,,,,,,,,,,,,,,60fb1eeb25785cbdfbcbdf02,61036e863c221507b344c664,2021-07-29_23h17.06.126,Simcolourproject_2stim_asymm_v5,2020.2.10,Win32,60,61025ae37ef11b136ea224fe,,,,,,,,,731,70,-42,1,0,0,response3disk,,5,-22,-5,1,0,0,rectangle,-22,-5,1,0,0,-22,-5,1,0,0,1,19,179,150,1,,,,,,,,
,,,,,,,,,,,,,FF,,,,,,,,0.7502,,,,,,,,,,,,,,,,,,,,,,60fb1eeb25785cbdfbcbdf02,61036e863c221507b344c664,2021-07-29_23h17.06.126,Simcolourproject_2stim_asymm_v5,2020.2.10,Win32,60,61025ae37ef11b136ea224fe,,,,,,,,,4099,-84,-48,1,0,0,response5disk,,2,-15,7,1,0,0,rectangle,-15,7,1,0,0,-15,7,1,0,0,1,20,180,27,1,,,,,,,,
,,,,,,,,,,,,,FF,,,,,,,,0.217,,,,,,,,,,,,,,,,,,,,,,60fb1eeb25785cbdfbcbdf02,61036e863c221507b344c664,2021-07-29_23h17.06.126,Simcolourproject_2stim_asymm_v5,2020.2.10,Win32,60,61025ae37ef11b136ea224fe,,,,,,,,,4289,76,52,1,0,0,response1disk,,6,-23,-11,1,0,0,rectangle,-23,-11,1,0,0,-23,-11,1,0,0,1,21,181,37,1,,,,,,,,
,,,,,,,,,,,,,FF,,,,,,,,0.3482,,,,,,,,,,,,,,,,,,,,,,60fb1eeb25785cbdfbcbdf02,61036e863c221507b344c664,2021-07-29_23h17.06.126,Simcolourproject_2stim_asymm_v5,2020.2.10,Win32,60,61025ae37ef11b136ea224fe,,,,,,,,,401,73,-37,1,0,0,response3disk,,5,27,-5,1,0,0,rectangle,27,-5,1,0,0,27,-5,1,0,0,1,22,182,126,1,,,,,,,,
,,,,,,,,,,,,,FF,,,,,,,,0.2362,,,,,,,,,,,,,,,,,,,,,,60fb1eeb25785cbdfbcbdf02,61036e863c221507b344c664,2021-07-29_23h17.06.126,Simcolourproject_2stim_asymm_v5,2020.2.10,Win32,60,61025ae37ef11b136ea224fe,,,,,,,,,553,57,63,1,0,0,response1disk,,7,-1,11,1,0,0,rectangle,-1,11,1,0,0,-1,11,1,0,0,1,23,183,94,1,,,,,,,,
,,,,,,,,,,,,,FF,,,,,,,,0.5672,,,,,,,,,,,,,,,,,,,,,,60fb1eeb25785cbdfbcbdf02,61036e863c221507b344c664,2021-07-29_23h17.06.126,Simcolourproject_2stim_asymm_v5,2020.2.10,Win32,60,61025ae37ef11b136ea224fe,,,,,,,,,532,-47,-75,1,0,0,response5disk,,3,-7,-5,1,0,0,rectangle,-7,-5,1,0,0,-7,-5,1,0,0,1,24,184,6,1,,,,,,,,
,,,,,,,,,,,,,FF,,,,,,,,0.2479,,,,,,,,,,,,,,,,,,,,,,60fb1eeb25785cbdfbcbdf02,61036e863c221507b344c664,2021-07-29_23h17.06.126,Simcolourproject_2stim_asymm_v5,2020.2.10,Win32,60,61025ae37ef11b136ea224fe,,,,,,,,,4120,60,-72,1,0,0,response3disk,,4,5,-13,1,0,0,rectangle,5,-13,1,0,0,5,-13,1,0,0,1,25,185,139,1,,,,,,,,
,,,,,,,,,,,,,FF,,,,,,,,0.3691,,,,,,,,,,,,,,,,,,,,,,60fb1eeb25785cbdfbcbdf02,61036e863c221507b344c664,2021-07-29_23h17.06.126,Simcolourproject_2stim_asymm_v5,2020.2.10,Win32,60,61025ae37ef11b136ea224fe,,,,,,,,,2175,79,-31,1,0,0,response3disk,,5,28,-11,1,0,0,rectangle,28,-11,1,0,0,28,-11,1,0,0,1,26,186,79,1,,,,,,,,
,,,,,,,,,,,,,FF,,,,,,,,0.3696,,,,,,,,,,,,,,,,,,,,,,60fb1eeb25785cbdfbcbdf02,61036e863c221507b344c664,2021-07-29_23h17.06.126,Simcolourproject_2stim_asymm_v5,2020.2.10,Win32,60,61025ae37ef11b136ea224fe,,,,,,,,,2437,84,89,1,0,0,response1disk,,7,16,-7,1,0,0,rectangle,16,-7,1,0,0,16,-7,1,0,0,1,27,187,18,1,,,,,,,,
,,,,,,,,,,,,,FF,,,,,,,,0.2146,,,,,,,,,,,,,,,,,,,,,,60fb1eeb25785cbdfbcbdf02,61036e863c221507b344c664,2021-07-29_23h17.06.126,Simcolourproject_2stim_asymm_v5,2020.2.10,Win32,60,61025ae37ef11b136ea224fe,,,,,,,,,1446,66,-66,1,0,0,response3disk,,5,-14,3,1,0,0,rectangle,-14,3,1,0,0,-14,3,1,0,0,1,28,188,155,1,,,,,,,,
,,,,,,,,,,,,,FF,,,,,,,,0.2647,,,,,,,,,,,,,,,,,,,,,,60fb1eeb25785cbdfbcbdf02,61036e863c221507b344c664,2021-07-29_23h17.06.126,Simcolourproject_2stim_asymm_v5,2020.2.10,Win32,60,61025ae37ef11b136ea224fe,,,,,,,,,1023,71,27,1,0,0,response1disk,,6,-3,0,1,0,0,rectangle,-3,0,1,0,0,-3,0,1,0,0,1,29,189,34,1,,,,,,,,
,,,,,,,,,,,,,FF,,,,,,,,0.2479,,,,,,,,,,,,,,,,,,,,,,60fb1eeb25785cbdfbcbdf02,61036e863c221507b344c664,2021-07-29_23h17.06.126,Simcolourproject_2stim_asymm_v5,2020.2.10,Win32,60,61025ae37ef11b136ea224fe,,,,,,,,,1167,85,-49,1,0,0,response3disk,,5,25,-5,1,0,0,rectangle,25,-5,1,0,0,25,-5,1,0,0,1,30,190,156,1,,,,,,,,
,,,,,,,,,,,,,FF,,,,,,,,0.3525,,,,,,,,,,,,,,,,,,,,,,60fb1eeb25785cbdfbcbdf02,61036e863c221507b344c664,2021-07-29_23h17.06.126,Simcolourproject_2stim_asymm_v5,2020.2.10,Win32,60,61025ae37ef11b136ea224fe,,,,,,,,,1936,47,44,1,0,0,response1disk,,6,-7,1,1,0,0,rectangle,-7,1,1,0,0,-7,1,1,0,0,1,31,191,19,1,,,,,,,,
,,,,,,,,,,,,,FF,,,,,,,,0.283,,,,,,,,,,,,,,,,,,,,,,60fb1eeb25785cbdfbcbdf02,61036e863c221507b344c664,2021-07-29_23h17.06.126,Simcolourproject_2stim_asymm_v5,2020.2.10,Win32,60,61025ae37ef11b136ea224fe,,,,,,,,,1556,67,-81,1,0,0,response3disk,,4,-2,-5,1,0,0,rectangle,-2,-5,1,0,0,-2,-5,1,0,0,1,32,192,154,1,,,,,,,,
,,,,,,,,,,,,,FF,,,,,,,,0.3354,,,,,,,,,,,,,,,,,,,,,,60fb1eeb25785cbdfbcbdf02,61036e863c221507b344c664,2021-07-29_23h17.06.126,Simcolourproject_2stim_asymm_v5,2020.2.10,Win32,60,61025ae37ef11b136ea224fe,,,,,,,,,3921,95,98,1,0,0,response1disk,,7,-3,6,1,0,0,rectangle,-3,6,1,0,0,-3,6,1,0,0,1,33,193,97,1,,,,,,,,
,,,,,,,,,,,,,FF,,,,,,,,0.2494,,,,,,,,,,,,,,,,,,,,,,60fb1eeb25785cbdfbcbdf02,61036e863c221507b344c664,2021-07-29_23h17.06.126,Simcolourproject_2stim_asymm_v5,2020.2.10,Win32,60,61025ae37ef11b136ea224fe,,,,,,,,,2672,51,-76,1,0,0,response3disk,,4,-16,4,1,0,0,rectangle,-16,4,1,0,0,-16,4,1,0,0,1,34,194,113,1,,,,,,,,
,,,,,,,,,,,,,FF,,,,,,,,0.3028,,,,,,,,,,,,,,,,,,,,,,60fb1eeb25785cbdfbcbdf02,61036e863c221507b344c664,2021-07-29_23h17.06.126,Simcolourproject_2stim_asymm_v5,2020.2.10,Win32,60,61025ae37ef11b136ea224fe,,,,,,,,,1906,25,51,1,0,0,response1disk,,7,11,-11,1,0,0,rectangle,11,-11,1,0,0,11,-11,1,0,0,1,35,195,151,1,,,,,,,,
,,,,,,,,,,,,,FF,,,,,,,,0.4812,,,,,,,,,,,,,,,,,,,,,,60fb1eeb25785cbdfbcbdf02,61036e863c221507b344c664,2021-07-29_23h17.06.126,Simcolourproject_2stim_asymm_v5,2020.2.10,Win32,60,61025ae37ef11b136ea224fe,,,,,,,,,1963,-23,-60,1,0,0,response5disk,,3,-6,11,1,0,0,rectangle,-6,11,1,0,0,-6,11,1,0,0,1,36,196,49,1,,,,,,,,
,,,,,,,,,,,,,FF,,,,,,,,0.3312,,,,,,,,,,,,,,,,,,,,,,60fb1eeb25785cbdfbcbdf02,61036e863c221507b344c664,2021-07-29_23h17.06.126,Simcolourproject_2stim_asymm_v5,2020.2.10,Win32,60,61025ae37ef11b136ea224fe,,,,,,,,,1185,74,-42,1,0,0,response3disk,,5,3,-4,1,0,0,rectangle,3,-4,1,0,0,3,-4,1,0,0,1,37,197,93,1,,,,,,,,
,,,,,,,,,,,,,FF,,,,,,,,0.081,,,,,,,,,,,,,,,,,,,,,,60fb1eeb25785cbdfbcbdf02,61036e863c221507b344c664,2021-07-29_23h17.06.126,Simcolourproject_2stim_asymm_v5,2020.2.10,Win32,60,61025ae37ef11b136ea224fe,,,,,,,,,3890,-42,-69,1,0,0,response5disk,,3,-7,1,1,0,0,rectangle,-7,1,1,0,0,-7,1,1,0,0,1,38,198,43,1,,,,,,,,
,,,,,,,,,,,,,FF,,,,,,,,0.5334,,,,,,,,,,,,,,,,,,,,,,60fb1eeb25785cbdfbcbdf02,61036e863c221507b344c664,2021-07-29_23h17.06.126,Simcolourproject_2stim_asymm_v5,2020.2.10,Win32,60,61025ae37ef11b136ea224fe,,,,,,,,,812,67,64,1,0,0,response1disk,,6,19,5,1,0,0,rectangle,19,5,1,0,0,19,5,1,0,0,1,39,199,28,1,,,,,,,,
,,,,,,,,,,,,,FF,,,,,,,,0.4529,,,,,,,,,,,,,,,,,,,,,,60fb1eeb25785cbdfbcbdf02,61036e863c221507b344c664,2021-07-29_23h17.06.126,Simcolourproject_2stim_asymm_v5,2020.2.10,Win32,60,61025ae37ef11b136ea224fe,,,,,,,,,118,-39,-55,1,0,0,response5disk,,3,-8,13,1,0,0,rectangle,-8,13,1,0,0,-8,13,1,0,0,1,40,200,133,1,,,,,,,,
,,,,,,,,,,,,,FF,,,,,,,,0.331,,,,,,,,,,,,,,,,,,,,,,60fb1eeb25785cbdfbcbdf02,61036e863c221507b344c664,2021-07-29_23h17.06.126,Simcolourproject_2stim_asymm_v5,2020.2.10,Win32,60,61025ae37ef11b136ea224fe,,,,,,,,,2316,-57,42,1,0,0,response7disk,,1,-2,1,1,0,0,rectangle,44,-44,1,0,0,1,8,1,0,0,1,41,201,131,1,,response3disk_3,TRUE,5,1,"[50,237,100,65,202,292,271,2,90,238,222,295,70,230,243,271,104,159,239,323]",1.0664,rectangle
,,,,,,,,,,,,,FF,,,,,,,,0.3858,,,,,,,,,,,,,,,,,,,,,,60fb1eeb25785cbdfbcbdf02,61036e863c221507b344c664,2021-07-29_23h17.06.126,Simcolourproject_2stim_asymm_v5,2020.2.10,Win32,60,61025ae37ef11b136ea224fe,,,,,,,,,3145,51,43,1,0,0,response1disk,,6,6,-11,1,0,0,rectangle,6,-11,1,0,0,6,-11,1,0,0,1,42,202,144,1,,,,,,,,
,,,,,,,,,,,,,FF,,,,,,,,0.2978,,,,,,,,,,,,,,,,,,,,,,60fb1eeb25785cbdfbcbdf02,61036e863c221507b344c664,2021-07-29_23h17.06.126,Simcolourproject_2stim_asymm_v5,2020.2.10,Win32,60,61025ae37ef11b136ea224fe,,,,,,,,,2023,-60,-30,1,0,0,response5disk,,2,-2,-7,1,0,0,rectangle,-2,-7,1,0,0,-2,-7,1,0,0,1,43,203,20,1,,,,,,,,
,,,,,,,,,,,,,FF,,,,,,,,0.4164,,,,,,,,,,,,,,,,,,,,,,60fb1eeb25785cbdfbcbdf02,61036e863c221507b344c664,2021-07-29_23h17.06.126,Simcolourproject_2stim_asymm_v5,2020.2.10,Win32,60,61025ae37ef11b136ea224fe,,,,,,,,,2277,-60,49,1,0,0,response7disk,,1,-19,-2,1,0,0,rectangle,-19,-2,1,0,0,-19,-2,1,0,0,1,44,204,70,1,,,,,,,,
,,,,,,,,,,,,,FF,,,,,,,,0.6668,,,,,,,,,,,,,,,,,,,,,,60fb1eeb25785cbdfbcbdf02,61036e863c221507b344c664,2021-07-29_23h17.06.126,Simcolourproject_2stim_asymm_v5,2020.2.10,Win32,60,61025ae37ef11b136ea224fe,,,,,,,,,2418,-33,-41,1,0,0,response5disk,,3,12,4,1,0,0,rectangle,12,4,1,0,0,12,4,1,0,0,1,45,205,153,1,,,,,,,,
,,,,,,,,,,,,,FF,,,,,,,,0.4004,,,,,,,,,,,,,,,,,,,,,,60fb1eeb25785cbdfbcbdf02,61036e863c221507b344c664,2021-07-29_23h17.06.126,Simcolourproject_2stim_asymm_v5,2020.2.10,Win32,60,61025ae37ef11b136ea224fe,,,,,,,,,658,67,61,1,0,0,response1disk,,6,5,-7,1,0,0,rectangle,5,-7,1,0,0,5,-7,1,0,0,1,46,206,115,1,,,,,,,,
,,,,,,,,,,,,,FF,,,,,,,,0.4333,,,,,,,,,,,,,,,,,,,,,,60fb1eeb25785cbdfbcbdf02,61036e863c221507b344c664,2021-07-29_23h17.06.126,Simcolourproject_2stim_asymm_v5,2020.2.10,Win32,60,61025ae37ef11b136ea224fe,,,,,,,,,582,49,-36,1,0,0,response3disk,,5,-3,-2,1,0,0,rectangle,-3,-2,1,0,0,-3,-2,1,0,0,1,47,207,14,1,,,,,,,,
,,,,,,,,,,,,,FF,,,,,,,,0.3311,,,,,,,,,,,,,,,,,,,,,,60fb1eeb25785cbdfbcbdf02,61036e863c221507b344c664,2021-07-29_23h17.06.126,Simcolourproject_2stim_asymm_v5,2020.2.10,Win32,60,61025ae37ef11b136ea224fe,,,,,,,,,2610,75,-20,1,0,0,response3disk,,5,-3,-4,1,0,0,rectangle,-3,-4,1,0,0,-3,-4,1,0,0,1,48,208,120,1,,,,,,,,
,,,,,,,,,,,,,FF,,,,,,,,0.3692,,,,,,,,,,,,,,,,,,,,,,60fb1eeb25785cbdfbcbdf02,61036e863c221507b344c664,2021-07-29_23h17.06.126,Simcolourproject_2stim_asymm_v5,2020.2.10,Win32,60,61025ae37ef11b136ea224fe,,,,,,,,,408,64,68,1,0,0,response1disk,,7,22,10,1,0,0,rectangle,22,10,1,0,0,22,10,1,0,0,1,49,209,63,1,,,,,,,,
,,,,,,,,,,,,,FF,,,,,,,,0.6327,,,,,,,,,,,,,,,,,,,,,,60fb1eeb25785cbdfbcbdf02,61036e863c221507b344c664,2021-07-29_23h17.06.126,Simcolourproject_2stim_asymm_v5,2020.2.10,Win32,60,61025ae37ef11b136ea224fe,,,,,,,,,2216,79,-41,1,0,0,response3disk,,5,12,-2,1,0,0,rectangle,12,-2,1,0,0,12,-2,1,0,0,1,50,210,58,1,,,,,,,,
,,,,,,,,,,,,,FF,,,,,,,,0.3836,,,,,,,,,,,,,,,,,,,,,,60fb1eeb25785cbdfbcbdf02,61036e863c221507b344c664,2021-07-29_23h17.06.126,Simcolourproject_2stim_asymm_v5,2020.2.10,Win32,60,61025ae37ef11b136ea224fe,,,,,,,,,4181,80,-69,1,0,0,response3disk,,5,22,-7,1,0,0,rectangle,22,-7,1,0,0,22,-7,1,0,0,1,51,211,9,1,,,,,,,,
,,,,,,,,,,,,,FF,,,,,,,,0.3689,,,,,,,,,,,,,,,,,,,,,,60fb1eeb25785cbdfbcbdf02,61036e863c221507b344c664,2021-07-29_23h17.06.126,Simcolourproject_2stim_asymm_v5,2020.2.10,Win32,60,61025ae37ef11b136ea224fe,,,,,,,,,2776,68,-75,1,0,0,response3disk,,4,16,-6,1,0,0,rectangle,16,-6,1,0,0,16,-6,1,0,0,1,52,212,10,1,,,,,,,,
,,,,,,,,,,,,,FF,,,,,,,,0.6358,,,,,,,,,,,,,,,,,,,,,,60fb1eeb25785cbdfbcbdf02,61036e863c221507b344c664,2021-07-29_23h17.06.126,Simcolourproject_2stim_asymm_v5,2020.2.10,Win32,60,61025ae37ef11b136ea224fe,,,,,,,,,619,74,39,1,0,0,response1disk,,6,17,-9,1,0,0,rectangle,17,-9,1,0,0,17,-9,1,0,0,1,53,213,76,1,,,,,,,,
,,,,,,,,,,,,,FF,,,,,,,,0.35,,,,,,,,,,,,,,,,,,,,,,60fb1eeb25785cbdfbcbdf02,61036e863c221507b344c664,2021-07-29_23h17.06.126,Simcolourproject_2stim_asymm_v5,2020.2.10,Win32,60,61025ae37ef11b136ea224fe,,,,,,,,,3280,67,58,1,0,0,response1disk,,6,15,3,1,0,0,rectangle,15,3,1,0,0,15,3,1,0,0,1,54,214,135,1,,,,,,,,
,,,,,,,,,,,,,FF,,,,,,,,0.3686,,,,,,,,,,,,,,,,,,,,,,60fb1eeb25785cbdfbcbdf02,61036e863c221507b344c664,2021-07-29_23h17.06.126,Simcolourproject_2stim_asymm_v5,2020.2.10,Win32,60,61025ae37ef11b136ea224fe,,,,,,,,,1894,34,42,1,0,0,response1disk,,7,-12,1,1,0,0,rectangle,-12,1,1,0,0,-12,1,1,0,0,1,55,215,103,1,,,,,,,,
,,,,,,,,,,,,,FF,,,,,,,,0.4481,,,,,,,,,,,,,,,,,,,,,,60fb1eeb25785cbdfbcbdf02,61036e863c221507b344c664,2021-07-29_23h17.06.126,Simcolourproject_2stim_asymm_v5,2020.2.10,Win32,60,61025ae37ef11b136ea224fe,,,,,,,,,3098,-52,-50,1,0,0,response5disk,,2,-6,-3,1,0,0,rectangle,-6,-3,1,0,0,-6,-3,1,0,0,1,56,216,60,1,,,,,,,,
,,,,,,,,,,,,,FF,,,,,,,,0.5647,,,,,,,,,,,,,,,,,,,,,,60fb1eeb25785cbdfbcbdf02,61036e863c221507b344c664,2021-07-29_23h17.06.126,Simcolourproject_2stim_asymm_v5,2020.2.10,Win32,60,61025ae37ef11b136ea224fe,,,,,,,,,2981,-74,-51,1,0,0,response5disk,,2,2,1,1,0,0,rectangle,2,1,1,0,0,2,1,1,0,0,1,57,217,69,1,,,,,,,,
,,,,,,,,,,,,,FF,,,,,,,,0.6349,,,,,,,,,,,,,,,,,,,,,,60fb1eeb25785cbdfbcbdf02,61036e863c221507b344c664,2021-07-29_23h17.06.126,Simcolourproject_2stim_asymm_v5,2020.2.10,Win32,60,61025ae37ef11b136ea224fe,,,,,,,,,3592,-41,-51,1,0,0,response5disk,,3,7,-2,1,0,0,rectangle,7,-2,1,0,0,7,-2,1,0,0,1,58,218,3,1,,,,,,,,
,,,,,,,,,,,,,FF,,,,,,,,0.6502,,,,,,,,,,,,,,,,,,,,,,60fb1eeb25785cbdfbcbdf02,61036e863c221507b344c664,2021-07-29_23h17.06.126,Simcolourproject_2stim_asymm_v5,2020.2.10,Win32,60,61025ae37ef11b136ea224fe,,,,,,,,,1011,45,-47,1,0,0,response3disk,,4,-10,-1,1,0,0,rectangle,-10,-1,1,0,0,-10,-1,1,0,0,1,59,219,61,1,,,,,,,,
,,,,,,,,,,,,,FF,,,,,,,,0.4501,,,,,,,,,,,,,,,,,,,,,,60fb1eeb25785cbdfbcbdf02,61036e863c221507b344c664,2021-07-29_23h17.06.126,Simcolourproject_2stim_asymm_v5,2020.2.10,Win32,60,61025ae37ef11b136ea224fe,,,,,,,,,2065,68,75,1,0,0,response1disk,,7,10,1,1,0,0,rectangle,10,1,1,0,0,10,1,1,0,0,1,60,220,123,1,,,,,,,,
,,,,,,,,,,,,,FF,,,,,,,,0.3359,,,,,,,,,,,,,,,,,,,,,,60fb1eeb25785cbdfbcbdf02,61036e863c221507b344c664,2021-07-29_23h17.06.126,Simcolourproject_2stim_asymm_v5,2020.2.10,Win32,60,61025ae37ef11b136ea224fe,,,,,,,,,24,-54,48,1,0,0,response7disk,,1,4,-12,1,0,0,rectangle,-40,71,1,0,0,7,-6,1,0,0,1,61,221,13,1,,response7disk_3,TRUE,0,0,"[50,237,100,65,202,292,271,2,90,238,222,295,70,230,243,271,104,159,239,323]",0.6523,rectangle
,,,,,,,,,,,,,FF,,,,,,,,0.4501,,,,,,,,,,,,,,,,,,,,,,60fb1eeb25785cbdfbcbdf02,61036e863c221507b344c664,2021-07-29_23h17.06.126,Simcolourproject_2stim_asymm_v5,2020.2.10,Win32,60,61025ae37ef11b136ea224fe,,,,,,,,,3538,-53,-54,1,0,0,response5disk,,3,15,-7,1,0,0,rectangle,15,-7,1,0,0,15,-7,1,0,0,1,62,222,46,1,,,,,,,,
,,,,,,,,,,,,,FF,,,,,,,,0.467,,,,,,,,,,,,,,,,,,,,,,60fb1eeb25785cbdfbcbdf02,61036e863c221507b344c664,2021-07-29_23h17.06.126,Simcolourproject_2stim_asymm_v5,2020.2.10,Win32,60,61025ae37ef11b136ea224fe,,,,,,,,,2273,-41,-37,1,0,0,response5disk,,2,1,0,1,0,0,rectangle,1,0,1,0,0,1,0,1,0,0,1,63,223,87,1,,,,,,,,
,,,,,,,,,,,,,FF,,,,,,,,0.3669,,,,,,,,,,,,,,,,,,,,,,60fb1eeb25785cbdfbcbdf02,61036e863c221507b344c664,2021-07-29_23h17.06.126,Simcolourproject_2stim_asymm_v5,2020.2.10,Win32,60,61025ae37ef11b136ea224fe,,,,,,,,,1085,16,-61,1,0,0,response3disk,,4,0,-9,1,0,0,rectangle,0,-9,1,0,0,0,-9,1,0,0,1,64,224,157,1,,,,,,,,
,,,,,,,,,,,,,FF,,,,,,,,0.2003,,,,,,,,,,,,,,,,,,,,,,60fb1eeb25785cbdfbcbdf02,61036e863c221507b344c664,2021-07-29_23h17.06.126,Simcolourproject_2stim_asymm_v5,2020.2.10,Win32,60,61025ae37ef11b136ea224fe,,,,,,,,,126,58,85,1,0,0,response1disk,,7,10,11,1,0,0,rectangle,10,11,1,0,0,10,11,1,0,0,1,65,225,92,1,,,,,,,,
,,,,,,,,,,,,,FF,,,,,,,,0.1646,,,,,,,,,,,,,,,,,,,,,,60fb1eeb25785cbdfbcbdf02,61036e863c221507b344c664,2021-07-29_23h17.06.126,Simcolourproject_2stim_asymm_v5,2020.2.10,Win32,60,61025ae37ef11b136ea224fe,,,,,,,,,3245,-50,56,1,0,0,response7disk,,0,-18,2,1,0,0,rectangle,-18,2,1,0,0,-18,2,1,0,0,1,66,226,11,1,,,,,,,,
,,,,,,,,,,,,,FF,,,,,,,,0.2979,,,,,,,,,,,,,,,,,,,,,,60fb1eeb25785cbdfbcbdf02,61036e863c221507b344c664,2021-07-29_23h17.06.126,Simcolourproject_2stim_asymm_v5,2020.2.10,Win32,60,61025ae37ef11b136ea224fe,,,,,,,,,309,-48,-20,1,0,0,response5disk,,2,-1,13,1,0,0,rectangle,-1,13,1,0,0,-1,13,1,0,0,1,67,227,73,1,,,,,,,,
,,,,,,,,,,,,,FF,,,,,,,,0.4481,,,,,,,,,,,,,,,,,,,,,,60fb1eeb25785cbdfbcbdf02,61036e863c221507b344c664,2021-07-29_23h17.06.126,Simcolourproject_2stim_asymm_v5,2020.2.10,Win32,60,61025ae37ef11b136ea224fe,,,,,,,,,464,38,-49,1,0,0,response3disk,,4,-18,2,1,0,0,rectangle,-18,2,1,0,0,-18,2,1,0,0,1,68,228,114,1,,,,,,,,
,,,,,,,,,,,,,FF,,,,,,,,0.3692,,,,,,,,,,,,,,,,,,,,,,60fb1eeb25785cbdfbcbdf02,61036e863c221507b344c664,2021-07-29_23h17.06.126,Simcolourproject_2stim_asymm_v5,2020.2.10,Win32,60,61025ae37ef11b136ea224fe,,,,,,,,,1902,-57,29,1,0,0,response7disk,,1,3,-14,1,0,0,rectangle,30,57,1,0,0,-9,6,1,0,0,1,69,229,21,1,,response1disk_3,TRUE,7,5,"[50,237,100,65,202,292,271,2,90,238,222,295,70,230,243,271,104,159,239,323]",0.3165,rectangle
,,,,,,,,,,,,,FF,,,,,,,,1.1357,,,,,,,,,,,,,,,,,,,,,,60fb1eeb25785cbdfbcbdf02,61036e863c221507b344c664,2021-07-29_23h17.06.126,Simcolourproject_2stim_asymm_v5,2020.2.10,Win32,60,61025ae37ef11b136ea224fe,,,,,,,,,2139,-27,-59,1,0,0,response5disk,,3,29,-5,1,0,0,rectangle,29,-5,1,0,0,29,-5,1,0,0,1,70,230,51,1,,,,,,,,
,,,,,,,,,,,,,FF,,,,,,,,1.1833,,,,,,,,,,,,,,,,,,,,,,60fb1eeb25785cbdfbcbdf02,61036e863c221507b344c664,2021-07-29_23h17.06.126,Simcolourproject_2stim_asymm_v5,2020.2.10,Win32,60,61025ae37ef11b136ea224fe,,,,,,,,,1824,54,-62,1,0,0,response3disk,,4,0,-1,1,0,0,rectangle,0,-1,1,0,0,0,-1,1,0,0,1,71,231,62,1,,,,,,,,
,,,,,,,,,,,,,FF,,,,,,,,0.3173,,,,,,,,,,,,,,,,,,,,,,60fb1eeb25785cbdfbcbdf02,61036e863c221507b344c664,2021-07-29_23h17.06.126,Simcolourproject_2stim_asymm_v5,2020.2.10,Win32,60,61025ae37ef11b136ea224fe,,,,,,,,,151,64,68,1,0,0,response1disk,,7,-24,5,1,0,0,rectangle,-24,5,1,0,0,-24,5,1,0,0,1,72,232,136,1,,,,,,,,
,,,,,,,,,,,,,FF,,,,,,,,0.4196,,,,,,,,,,,,,,,,,,,,,,60fb1eeb25785cbdfbcbdf02,61036e863c221507b344c664,2021-07-29_23h17.06.126,Simcolourproject_2stim_asymm_v5,2020.2.10,Win32,60,61025ae37ef11b136ea224fe,,,,,,,,,1683,-51,-30,1,0,0,response5disk,,2,3,0,1,0,0,rectangle,3,0,1,0,0,3,0,1,0,0,1,73,233,117,1,,,,,,,,
,,,,,,,,,,,,,FF,,,,,,,,0.2999,,,,,,,,,,,,,,,,,,,,,,60fb1eeb25785cbdfbcbdf02,61036e863c221507b344c664,2021-07-29_23h17.06.126,Simcolourproject_2stim_asymm_v5,2020.2.10,Win32,60,61025ae37ef11b136ea224fe,,,,,,,,,3158,96,-48,1,0,0,response3disk,,5,-3,6,1,0,0,rectangle,-3,6,1,0,0,-3,6,1,0,0,1,74,234,107,1,,,,,,,,
,,,,,,,,,,,,,FF,,,,,,,,0.2693,,,,,,,,,,,,,,,,,,,,,,60fb1eeb25785cbdfbcbdf02,61036e863c221507b344c664,2021-07-29_23h17.06.126,Simcolourproject_2stim_asymm_v5,2020.2.10,Win32,60,61025ae37ef11b136ea224fe,,,,,,,,,2892,67,89,1,0,0,response1disk,,7,9,6,1,0,0,rectangle,9,6,1,0,0,9,6,1,0,0,1,75,235,64,1,,,,,,,,
,,,,,,,,,,,,,FF,,,,,,,,0.3145,,,,,,,,,,,,,,,,,,,,,,60fb1eeb25785cbdfbcbdf02,61036e863c221507b344c664,2021-07-29_23h17.06.126,Simcolourproject_2stim_asymm_v5,2020.2.10,Win32,60,61025ae37ef11b136ea224fe,,,,,,,,,3044,-48,-44,1,0,0,response5disk,,2,-17,-4,1,0,0,rectangle,-57,106,0,0,1,5,12,1,0,0,1,76,236,158,1,,response7disk_3,TRUE,0,0,"[50,237,100,65,202,292,271,2,90,238,222,295,70,230,243,271,104,159,239,323]",0.6216,rectangle
,,,,,,,,,,,,,FF,,,,,,,,0.2812,,,,,,,,,,,,,,,,,,,,,,60fb1eeb25785cbdfbcbdf02,61036e863c221507b344c664,2021-07-29_23h17.06.126,Simcolourproject_2stim_asymm_v5,2020.2.10,Win32,60,61025ae37ef11b136ea224fe,,,,,,,,,562,49,70,1,0,0,response1disk,,7,15,-1,1,0,0,rectangle,-71,-60,1,0,0,-19,4,1,0,0,1,77,237,53,1,,response5disk_3,TRUE,2,3,"[50,237,100,65,202,292,271,2,90,238,222,295,70,230,243,271,104,159,239,323]",0.383,rectangle
,,,,,,,,,,,,,FF,,,,,,,,0.317,,,,,,,,,,,,,,,,,,,,,,60fb1eeb25785cbdfbcbdf02,61036e863c221507b344c664,2021-07-29_23h17.06.126,Simcolourproject_2stim_asymm_v5,2020.2.10,Win32,60,61025ae37ef11b136ea224fe,,,,,,,,,2802,60,-41,1,0,0,response3disk,,5,-16,4,1,0,0,rectangle,66,78,1,0,0,5,-6,1,0,0,1,78,238,23,1,,response1disk_3,TRUE,7,2,"[50,237,100,65,202,292,271,2,90,238,222,295,70,230,243,271,104,159,239,323]",0.8164,rectangle
,,,,,,,,,,,,,FF,,,,,,,,0.248,,,,,,,,,,,,,,,,,,,,,,60fb1eeb25785cbdfbcbdf02,61036e863c221507b344c664,2021-07-29_23h17.06.126,Simcolourproject_2stim_asymm_v5,2020.2.10,Win32,60,61025ae37ef11b136ea224fe,,,,,,,,,2367,-72,-49,1,0,0,response5disk,,2,-10,6,1,0,0,rectangle,-10,6,1,0,0,-10,6,1,0,0,1,79,239,77,1,,,,,,,,
,,,,,,,,,,,,,FF,,,,,,,,0.2665,,,,,,,,,,,,,,,,,,,,,,60fb1eeb25785cbdfbcbdf02,61036e863c221507b344c664,2021-07-29_23h17.06.126,Simcolourproject_2stim_asymm_v5,2020.2.10,Win32,60,61025ae37ef11b136ea224fe,,,,,,,,,2846,59,-79,1,0,0,response3disk,,4,-5,-5,1,0,0,rectangle,-5,-5,1,0,0,-5,-5,1,0,0,1,80,240,105,1,,,,,,,,
,,,,,,,,,,,,,FF,,,,,,,,1.1857,,,,,,,,,,,,,,,,,,,,,,60fb1eeb25785cbdfbcbdf02,61036e863c221507b344c664,2021-07-29_23h17.06.126,Simcolourproject_2stim_asymm_v5,2020.2.10,Win32,60,61025ae37ef11b136ea224fe,,,,,,,,,3783,39,70,1,0,0,response1disk,,7,2,4,1,0,0,rectangle,2,4,1,0,0,2,4,1,0,0,1,81,241,80,1,,,,,,,,
,,,,,,,,,,,,,FF,,,,,,,,0.3833,,,,,,,,,,,,,,,,,,,,,,60fb1eeb25785cbdfbcbdf02,61036e863c221507b344c664,2021-07-29_23h17.06.126,Simcolourproject_2stim_asymm_v5,2020.2.10,Win32,60,61025ae37ef11b136ea224fe,,,,,,,,,963,44,-69,1,0,0,response3disk,,4,7,-3,1,0,0,rectangle,-115,-78,1,0,0,19,-3,1,0,0,1,82,242,75,1,,response5disk_3,TRUE,2,5,"[50,237,100,65,202,292,271,2,90,238,222,295,70,230,243,271,104,159,239,323]",0.483,rectangle
,,,,,,,,,,,,,FF,,,,,,,,0.2339,,,,,,,,,,,,,,,,,,,,,,60fb1eeb25785cbdfbcbdf02,61036e863c221507b344c664,2021-07-29_23h17.06.126,Simcolourproject_2stim_asymm_v5,2020.2.10,Win32,60,61025ae37ef11b136ea224fe,,,,,,,,,2073,63,-77,1,0,0,response3disk,,4,-1,2,1,0,0,rectangle,-1,2,1,0,0,-1,2,1,0,0,1,83,243,57,1,,,,,,,,
,,,,,,,,,,,,,FF,,,,,,,,0.3691,,,,,,,,,,,,,,,,,,,,,,60fb1eeb25785cbdfbcbdf02,61036e863c221507b344c664,2021-07-29_23h17.06.126,Simcolourproject_2stim_asymm_v5,2020.2.10,Win32,60,61025ae37ef11b136ea224fe,,,,,,,,,851,-34,52,1,0,0,response7disk,,0,12,4,1,0,0,rectangle,12,4,1,0,0,12,4,1,0,0,1,84,244,119,1,,,,,,,,
,,,,,,,,,,,,,FF,,,,,,,,0.1979,,,,,,,,,,,,,,,,,,,,,,60fb1eeb25785cbdfbcbdf02,61036e863c221507b344c664,2021-07-29_23h17.06.126,Simcolourproject_2stim_asymm_v5,2020.2.10,Win32,60,61025ae37ef11b136ea224fe,,,,,,,,,1723,89,66,1,0,0,response1disk,,6,13,4,1,0,0,rectangle,13,4,1,0,0,13,4,1,0,0,1,85,245,148,1,,,,,,,,
,,,,,,,,,,,,,FF,,,,,,,,0.3478,,,,,,,,,,,,,,,,,,,,,,60fb1eeb25785cbdfbcbdf02,61036e863c221507b344c664,2021-07-29_23h17.06.126,Simcolourproject_2stim_asymm_v5,2020.2.10,Win32,60,61025ae37ef11b136ea224fe,,,,,,,,,363,-56,-72,1,0,0,response5disk,,3,3,-3,1,0,0,rectangle,3,-3,1,0,0,3,-3,1,0,0,1,86,246,40,1,,,,,,,,
,,,,,,,,,,,,,FF,,,,,,,,0.2833,,,,,,,,,,,,,,,,,,,,,,60fb1eeb25785cbdfbcbdf02,61036e863c221507b344c664,2021-07-29_23h17.06.126,Simcolourproject_2stim_asymm_v5,2020.2.10,Win32,60,61025ae37ef11b136ea224fe,,,,,,,,,2084,60,-47,1,0,0,response3disk,,5,3,3,1,0,0,rectangle,3,3,1,0,0,3,3,1,0,0,1,87,247,31,1,,,,,,,,
,,,,,,,,,,,,,FF,,,,,,,,0.2829,,,,,,,,,,,,,,,,,,,,,,60fb1eeb25785cbdfbcbdf02,61036e863c221507b344c664,2021-07-29_23h17.06.126,Simcolourproject_2stim_asymm_v5,2020.2.10,Win32,60,61025ae37ef11b136ea224fe,,,,,,,,,4219,39,69,1,0,0,response1disk,,7,-13,1,1,0,0,rectangle,-13,1,1,0,0,-13,1,1,0,0,1,88,248,5,1,,,,,,,,
,,,,,,,,,,,,,FF,,,,,,,,0.3336,,,,,,,,,,,,,,,,,,,,,,60fb1eeb25785cbdfbcbdf02,61036e863c221507b344c664,2021-07-29_23h17.06.126,Simcolourproject_2stim_asymm_v5,2020.2.10,Win32,60,61025ae37ef11b136ea224fe,,,,,,,,,3889,-49,-60,1,0,0,response5disk,,3,3,3,1,0,0,rectangle,3,3,1,0,0,3,3,1,0,0,1,89,249,146,1,,,,,,,,
,,,,,,,,,,,,,FF,,,,,,,,0.3328,,,,,,,,,,,,,,,,,,,,,,60fb1eeb25785cbdfbcbdf02,61036e863c221507b344c664,2021-07-29_23h17.06.126,Simcolourproject_2stim_asymm_v5,2020.2.10,Win32,60,61025ae37ef11b136ea224fe,,,,,,,,,3512,74,-66,1,0,0,response3disk,,5,3,-9,1,0,0,rectangle,3,-9,1,0,0,3,-9,1,0,0,1,90,250,129,1,,,,,,,,
,,,,,,,,,,,,,FF,,,,,,,,0.1809,,,,,,,,,,,,,,,,,,,,,,60fb1eeb25785cbdfbcbdf02,61036e863c221507b344c664,2021-07-29_23h17.06.126,Simcolourproject_2stim_asymm_v5,2020.2.10,Win32,60,61025ae37ef11b136ea224fe,,,,,,,,,3644,77,66,1,0,0,response1disk,,6,23,14,1,0,0,rectangle,23,14,1,0,0,23,14,1,0,0,1,91,251,85,1,,,,,,,,
,,,,,,,,,,,,,FF,,,,,,,,0.098,,,,,,,,,,,,,,,,,,,,,,60fb1eeb25785cbdfbcbdf02,61036e863c221507b344c664,2021-07-29_23h17.06.126,Simcolourproject_2stim_asymm_v5,2020.2.10,Win32,60,61025ae37ef11b136ea224fe,,,,,,,,,3104,-52,-57,1,0,0,response5disk,,3,-15,0,1,0,0,rectangle,-15,0,1,0,0,-15,0,1,0,0,1,92,252,142,1,,,,,,,,
,,,,,,,,,,,,,FF,,,,,,,,0.098,,,,,,,,,,,,,,,,,,,,,,60fb1eeb25785cbdfbcbdf02,61036e863c221507b344c664,2021-07-29_23h17.06.126,Simcolourproject_2stim_asymm_v5,2020.2.10,Win32,60,61025ae37ef11b136ea224fe,,,,,,,,,3584,-65,69,1,0,0,response7disk,,0,8,-1,1,0,0,rectangle,8,-1,1,0,0,8,-1,1,0,0,1,93,253,116,1,,,,,,,,
,,,,,,,,,,,,,FF,,,,,,,,0.3145,,,,,,,,,,,,,,,,,,,,,,60fb1eeb25785cbdfbcbdf02,61036e863c221507b344c664,2021-07-29_23h17.06.126,Simcolourproject_2stim_asymm_v5,2020.2.10,Win32,60,61025ae37ef11b136ea224fe,,,,,,,,,2559,-73,-58,1,0,0,response5disk,,2,0,8,1,0,0,rectangle,0,8,1,0,0,0,8,1,0,0,1,94,254,32,1,,,,,,,,
,,,,,,,,,,,,,FF,,,,,,,,0.3311,,,,,,,,,,,,,,,,,,,,,,60fb1eeb25785cbdfbcbdf02,61036e863c221507b344c664,2021-07-29_23h17.06.126,Simcolourproject_2stim_asymm_v5,2020.2.10,Win32,60,61025ae37ef11b136ea224fe,,,,,,,,,2484,76,-79,1,0,0,response3disk,,4,15,5,1,0,0,rectangle,15,5,1,0,0,15,5,1,0,0,1,95,255,124,1,,,,,,,,
,,,,,,,,,,,,,FF,,,,,,,,0.298,,,,,,,,,,,,,,,,,,,,,,60fb1eeb25785cbdfbcbdf02,61036e863c221507b344c664,2021-07-29_23h17.06.126,Simcolourproject_2stim_asymm_v5,2020.2.10,Win32,60,61025ae37ef11b136ea224fe,,,,,,,,,3334,-83,-55,1,0,0,response5disk,,2,-3,8,1,0,0,rectangle,-3,8,1,0,0,-3,8,1,0,0,1,96,256,99,1,,,,,,,,
,,,,,,,,,,,,,FF,,,,,,,,0.4026,,,,,,,,,,,,,,,,,,,,,,60fb1eeb25785cbdfbcbdf02,61036e863c221507b344c664,2021-07-29_23h17.06.126,Simcolourproject_2stim_asymm_v5,2020.2.10,Win32,60,61025ae37ef11b136ea224fe,,,,,,,,,1228,76,57,1,0,0,response1disk,,6,1,-1,1,0,0,rectangle,1,-1,1,0,0,1,-1,1,0,0,1,97,257,47,1,,,,,,,,
,,,,,,,,,,,,,FF,,,,,,,,0.4001,,,,,,,,,,,,,,,,,,,,,,60fb1eeb25785cbdfbcbdf02,61036e863c221507b344c664,2021-07-29_23h17.06.126,Simcolourproject_2stim_asymm_v5,2020.2.10,Win32,60,61025ae37ef11b136ea224fe,,,,,,,,,3948,-66,-63,1,0,0,response5disk,,2,29,-1,1,0,0,rectangle,29,-1,1,0,0,29,-1,1,0,0,1,98,258,54,1,,,,,,,,
,,,,,,,,,,,,,FF,,,,,,,,0.2648,,,,,,,,,,,,,,,,,,,,,,60fb1eeb25785cbdfbcbdf02,61036e863c221507b344c664,2021-07-29_23h17.06.126,Simcolourproject_2stim_asymm_v5,2020.2.10,Win32,60,61025ae37ef11b136ea224fe,,,,,,,,,1937,58,-77,1,0,0,response3disk,,4,4,-9,1,0,0,rectangle,4,-9,1,0,0,4,-9,1,0,0,1,99,259,44,1,,,,,,,,
,,,,,,,,,,,,,FF,,,,,,,,0.4503,,,,,,,,,,,,,,,,,,,,,,60fb1eeb25785cbdfbcbdf02,61036e863c221507b344c664,2021-07-29_23h17.06.126,Simcolourproject_2stim_asymm_v5,2020.2.10,Win32,60,61025ae37ef11b136ea224fe,,,,,,,,,2636,112,102,1,0,0,response1disk,,6,12,12,1,0,0,rectangle,12,12,1,0,0,12,12,1,0,0,1,100,260,110,1,,,,,,,,
,,,,,,,,,,,,,FF,,,,,,,,0.3167,,,,,,,,,,,,,,,,,,,,,,60fb1eeb25785cbdfbcbdf02,61036e863c221507b344c664,2021-07-29_23h17.06.126,Simcolourproject_2stim_asymm_v5,2020.2.10,Win32,60,61025ae37ef11b136ea224fe,,,,,,,,,4223,70,45,1,0,0,response1disk,,6,-16,-9,1,0,0,rectangle,-16,-9,1,0,0,-16,-9,1,0,0,1,101,261,98,1,,,,,,,,
,,,,,,,,,,,,,FF,,,,,,,,0.2813,,,,,,,,,,,,,,,,,,,,,,60fb1eeb25785cbdfbcbdf02,61036e863c221507b344c664,2021-07-29_23h17.06.126,Simcolourproject_2stim_asymm_v5,2020.2.10,Win32,60,61025ae37ef11b136ea224fe,,,,,,,,,2103,-54,-60,1,0,0,response5disk,,3,29,-1,1,0,0,rectangle,29,-1,1,0,0,29,-1,1,0,0,1,102,262,127,1,,,,,,,,
,,,,,,,,,,,,,FF,,,,,,,,0.0981,,,,,,,,,,,,,,,,,,,,,,60fb1eeb25785cbdfbcbdf02,61036e863c221507b344c664,2021-07-29_23h17.06.126,Simcolourproject_2stim_asymm_v5,2020.2.10,Win32,60,61025ae37ef11b136ea224fe,,,,,,,,,3243,57,-87,1,0,0,response3disk,,4,-28,12,1,0,0,rectangle,-28,12,1,0,0,-28,12,1,0,0,1,103,263,137,1,,,,,,,,
,,,,,,,,,,,,,FF,,,,,,,,0.2318,,,,,,,,,,,,,,,,,,,,,,60fb1eeb25785cbdfbcbdf02,61036e863c221507b344c664,2021-07-29_23h17.06.126,Simcolourproject_2stim_asymm_v5,2020.2.10,Win32,60,61025ae37ef11b136ea224fe,,,,,,,,,1516,-45,-50,1,0,0,response5disk,,3,-18,3,1,0,0,rectangle,-18,3,1,0,0,-18,3,1,0,0,1,104,264,48,1,,,,,,,,
,,,,,,,,,,,,,FF,,,,,,,,0.7381,,,,,,,,,,,,,,,,,,,,,,60fb1eeb25785cbdfbcbdf02,61036e863c221507b344c664,2021-07-29_23h17.06.126,Simcolourproject_2stim_asymm_v5,2020.2.10,Win32,60,61025ae37ef11b136ea224fe,,,,,,,,,759,-57,47,1,0,0,response7disk,,1,3,-9,1,0,0,rectangle,3,-9,1,0,0,3,-9,1,0,0,1,105,265,122,1,,,,,,,,
,,,,,,,,,,,,,FF,,,,,,,,0.3356,,,,,,,,,,,,,,,,,,,,,,60fb1eeb25785cbdfbcbdf02,61036e863c221507b344c664,2021-07-29_23h17.06.126,Simcolourproject_2stim_asymm_v5,2020.2.10,Win32,60,61025ae37ef11b136ea224fe,,,,,,,,,4063,29,51,1,0,0,response1disk,,7,7,-8,1,0,0,rectangle,7,-8,1,0,0,7,-8,1,0,0,1,106,266,96,1,,,,,,,,
,,,,,,,,,,,,,FF,,,,,,,,0.417,,,,,,,,,,,,,,,,,,,,,,60fb1eeb25785cbdfbcbdf02,61036e863c221507b344c664,2021-07-29_23h17.06.126,Simcolourproject_2stim_asymm_v5,2020.2.10,Win32,60,61025ae37ef11b136ea224fe,,,,,,,,,1646,35,45,1,0,0,response1disk,,7,15,-9,1,0,0,rectangle,15,-9,1,0,0,15,-9,1,0,0,1,107,267,140,1,,,,,,,,
,,,,,,,,,,,,,FF,,,,,,,,0.2145,,,,,,,,,,,,,,,,,,,,,,60fb1eeb25785cbdfbcbdf02,61036e863c221507b344c664,2021-07-29_23h17.06.126,Simcolourproject_2stim_asymm_v5,2020.2.10,Win32,60,61025ae37ef11b136ea224fe,,,,,,,,,2152,-78,-70,1,0,0,response5disk,,2,-1,4,1,0,0,rectangle,-1,4,1,0,0,-1,4,1,0,0,1,108,268,143,1,,,,,,,,
,,,,,,,,,,,,,FF,,,,,,,,0.2668,,,,,,,,,,,,,,,,,,,,,,60fb1eeb25785cbdfbcbdf02,61036e863c221507b344c664,2021-07-29_23h17.06.126,Simcolourproject_2stim_asymm_v5,2020.2.10,Win32,60,61025ae37ef11b136ea224fe,,,,,,,,,1849,55,-44,1,0,0,response3disk,,5,-18,4,1,0,0,rectangle,-18,4,1,0,0,-18,4,1,0,0,1,109,269,55,1,,,,,,,,
,,,,,,,,,,,,,FF,,,,,,,,0.4669,,,,,,,,,,,,,,,,,,,,,,60fb1eeb25785cbdfbcbdf02,61036e863c221507b344c664,2021-07-29_23h17.06.126,Simcolourproject_2stim_asymm_v5,2020.2.10,Win32,60,61025ae37ef11b136ea224fe,,,,,,,,,1999,-43,-48,1,0,0,response5disk,,3,-8,1,1,0,0,rectangle,45,-74,1,0,0,-8,5,1,0,0,1,110,270,4,1,,response3disk_3,TRUE,4,4,"[50,237,100,65,202,292,271,2,90,238,222,295,70,230,243,271,104,159,239,323]",0.4689,rectangle
,,,,,,,,,,,,,FF,,,,,,,,0.0315,,,,,,,,,,,,,,,,,,,,,,60fb1eeb25785cbdfbcbdf02,61036e863c221507b344c664,2021-07-29_23h17.06.126,Simcolourproject_2stim_asymm_v5,2020.2.10,Win32,60,61025ae37ef11b136ea224fe,,,,,,,,,4326,71,57,1,0,0,response1disk,,6,16,2,1,0,0,rectangle,16,2,1,0,0,16,2,1,0,0,1,111,271,145,1,,,,,,,,
,,,,,,,,,,,,,FF,,,,,,,,0.1834,,,,,,,,,,,,,,,,,,,,,,60fb1eeb25785cbdfbcbdf02,61036e863c221507b344c664,2021-07-29_23h17.06.126,Simcolourproject_2stim_asymm_v5,2020.2.10,Win32,60,61025ae37ef11b136ea224fe,,,,,,,,,3527,52,37,1,0,0,response1disk,,6,4,-11,1,0,0,rectangle,4,-11,1,0,0,4,-11,1,0,0,1,112,272,59,1,,,,,,,,
,,,,,,,,,,,,,FF,,,,,,,,0.1522,,,,,,,,,,,,,,,,,,,,,,60fb1eeb25785cbdfbcbdf02,61036e863c221507b344c664,2021-07-29_23h17.06.126,Simcolourproject_2stim_asymm_v5,2020.2.10,Win32,60,61025ae37ef11b136ea224fe,,,,,,,,,1444,-86,73,1,0,0,response7disk,,1,-23,-8,1,0,0,rectangle,-23,-8,1,0,0,-23,-8,1,0,0,1,113,273,111,1,,,,,,,,
,,,,,,,,,,,,,FF,,,,,,,,0.0313,,,,,,,,,,,,,,,,,,,,,,60fb1eeb25785cbdfbcbdf02,61036e863c221507b344c664,2021-07-29_23h17.06.126,Simcolourproject_2stim_asymm_v5,2020.2.10,Win32,60,61025ae37ef11b136ea224fe,,,,,,,,,2298,-45,54,1,0,0,response7disk,,0,-15,-1,1,0,0,rectangle,-15,-1,1,0,0,-15,-1,1,0,0,1,114,274,109,1,,,,,,,,
,,,,,,,,,,,,,FF,,,,,,,,0.2503,,,,,,,,,,,,,,,,,,,,,,60fb1eeb25785cbdfbcbdf02,61036e863c221507b344c664,2021-07-29_23h17.06.126,Simcolourproject_2stim_asymm_v5,2020.2.10,Win32,60,61025ae37ef11b136ea224fe,,,,,,,,,1717,50,51,1,0,0,response1disk,,7,3,0,1,0,0,rectangle,3,0,1,0,0,3,0,1,0,0,1,115,275,15,1,,,,,,,,
,,,,,,,,,,,,,FF,,,,,,,,1.1189,,,,,,,,,,,,,,,,,,,,,,60fb1eeb25785cbdfbcbdf02,61036e863c221507b344c664,2021-07-29_23h17.06.126,Simcolourproject_2stim_asymm_v5,2020.2.10,Win32,60,61025ae37ef11b136ea224fe,,,,,,,,,3345,-33,51,1,0,0,response7disk,,0,11,-2,1,0,0,rectangle,11,-2,1,0,0,11,-2,1,0,0,1,116,276,104,1,,,,,,,,
,,,,,,,,,,,,,FF,,,,,,,,0.2814,,,,,,,,,,,,,,,,,,,,,,60fb1eeb25785cbdfbcbdf02,61036e863c221507b344c664,2021-07-29_23h17.06.126,Simcolourproject_2stim_asymm_v5,2020.2.10,Win32,60,61025ae37ef11b136ea224fe,,,,,,,,,832,70,-52,1,0,0,response3disk,,5,-4,2,1,0,0,rectangle,-4,2,1,0,0,-4,2,1,0,0,1,117,277,8,1,,,,,,,,
,,,,,,,,,,,,,FF,,,,,,,,0.3831,,,,,,,,,,,,,,,,,,,,,,60fb1eeb25785cbdfbcbdf02,61036e863c221507b344c664,2021-07-29_23h17.06.126,Simcolourproject_2stim_asymm_v5,2020.2.10,Win32,60,61025ae37ef11b136ea224fe,,,,,,,,,698,41,-49,1,0,0,response3disk,,4,-5,-4,1,0,0,rectangle,-5,-4,1,0,0,-5,-4,1,0,0,1,118,278,30,1,,,,,,,,
,,,,,,,,,,,,,FF,,,,,,,,0.4003,,,,,,,,,,,,,,,,,,,,,,60fb1eeb25785cbdfbcbdf02,61036e863c221507b344c664,2021-07-29_23h17.06.126,Simcolourproject_2stim_asymm_v5,2020.2.10,Win32,60,61025ae37ef11b136ea224fe,,,,,,,,,3166,-37,-59,1,0,0,response5disk,,3,21,2,1,0,0,rectangle,21,2,1,0,0,21,2,1,0,0,1,119,279,108,1,,,,,,,,
,,,,,,,,,,,,,FF,,,,,,,,0.1854,,,,,,,,,,,,,,,,,,,,,,60fb1eeb25785cbdfbcbdf02,61036e863c221507b344c664,2021-07-29_23h17.06.126,Simcolourproject_2stim_asymm_v5,2020.2.10,Win32,60,61025ae37ef11b136ea224fe,,,,,,,,,1007,46,45,1,0,0,response1disk,,6,18,10,1,0,0,rectangle,18,10,1,0,0,18,10,1,0,0,1,120,280,45,1,,,,,,,,
,,,,,,,,,,,,,FF,,,,,,,,0.4692,,,,,,,,,,,,,,,,,,,,,,60fb1eeb25785cbdfbcbdf02,61036e863c221507b344c664,2021-07-29_23h17.06.126,Simcolourproject_2stim_asymm_v5,2020.2.10,Win32,60,61025ae37ef11b136ea224fe,,,,,,,,,2420,36,53,1,0,0,response1disk,,7,-6,2,1,0,0,rectangle,-6,2,1,0,0,-6,2,1,0,0,1,121,281,17,1,,,,,,,,
,,,,,,,,,,,,,FF,,,,,,,,0.4143,,,,,,,,,,,,,,,,,,,,,,60fb1eeb25785cbdfbcbdf02,61036e863c221507b344c664,2021-07-29_23h17.06.126,Simcolourproject_2stim_asymm_v5,2020.2.10,Win32,60,61025ae37ef11b136ea224fe,,,,,,,,,3677,50,52,1,0,0,response1disk,,7,-7,-7,1,0,0,rectangle,-7,-7,1,0,0,-7,-7,1,0,0,1,122,282,7,1,,,,,,,,
,,,,,,,,,,,,,FF,,,,,,,,0.8001,,,,,,,,,,,,,,,,,,,,,,60fb1eeb25785cbdfbcbdf02,61036e863c221507b344c664,2021-07-29_23h17.06.126,Simcolourproject_2stim_asymm_v5,2020.2.10,Win32,60,61025ae37ef11b136ea224fe,,,,,,,,,1271,42,-30,1,0,0,response3disk,,5,26,-3,1,0,0,rectangle,26,-3,1,0,0,26,-3,1,0,0,1,123,283,38,1,,,,,,,,
,,,,,,,,,,,,,FF,,,,,,,,0.4692,,,,,,,,,,,,,,,,,,,,,,60fb1eeb25785cbdfbcbdf02,61036e863c221507b344c664,2021-07-29_23h17.06.126,Simcolourproject_2stim_asymm_v5,2020.2.10,Win32,60,61025ae37ef11b136ea224fe,,,,,,,,,1910,49,52,1,0,0,response1disk,,7,26,-8,1,0,0,rectangle,26,-8,1,0,0,26,-8,1,0,0,1,124,284,33,1,,,,,,,,
,,,,,,,,,,,,,FF,,,,,,,,0.3687,,,,,,,,,,,,,,,,,,,,,,60fb1eeb25785cbdfbcbdf02,61036e863c221507b344c664,2021-07-29_23h17.06.126,Simcolourproject_2stim_asymm_v5,2020.2.10,Win32,60,61025ae37ef11b136ea224fe,,,,,,,,,2566,87,25,1,0,0,response1disk,,6,-13,6,1,0,0,rectangle,-13,6,1,0,0,-13,6,1,0,0,1,125,285,149,1,,,,,,,,
,,,,,,,,,,,,,FF,,,,,,,,0.3499,,,,,,,,,,,,,,,,,,,,,,60fb1eeb25785cbdfbcbdf02,61036e863c221507b344c664,2021-07-29_23h17.06.126,Simcolourproject_2stim_asymm_v5,2020.2.10,Win32,60,61025ae37ef11b136ea224fe,,,,,,,,,2663,-60,36,1,0,0,response7disk,,1,-1,1,1,0,0,rectangle,-1,1,1,0,0,-1,1,1,0,0,1,126,286,100,1,,,,,,,,
,,,,,,,,,,,,,FF,,,,,,,,0.2329,,,,,,,,,,,,,,,,,,,,,,60fb1eeb25785cbdfbcbdf02,61036e863c221507b344c664,2021-07-29_23h17.06.126,Simcolourproject_2stim_asymm_v5,2020.2.10,Win32,60,61025ae37ef11b136ea224fe,,,,,,,,,4246,76,-28,1,0,0,response3disk,,5,-4,7,1,0,0,rectangle,-4,7,1,0,0,-4,7,1,0,0,1,127,287,66,1,,,,,,,,
,,,,,,,,,,,,,FF,,,,,,,,0.667,,,,,,,,,,,,,,,,,,,,,,60fb1eeb25785cbdfbcbdf02,61036e863c221507b344c664,2021-07-29_23h17.06.126,Simcolourproject_2stim_asymm_v5,2020.2.10,Win32,60,61025ae37ef11b136ea224fe,,,,,,,,,965,93,62,1,0,0,response1disk,,6,14,-2,1,0,0,rectangle,14,-2,1,0,0,14,-2,1,0,0,1,128,288,95,1,,,,,,,,
,,,,,,,,,,,,,FF,,,,,,,,0.5978,,,,,,,,,,,,,,,,,,,,,,60fb1eeb25785cbdfbcbdf02,61036e863c221507b344c664,2021-07-29_23h17.06.126,Simcolourproject_2stim_asymm_v5,2020.2.10,Win32,60,61025ae37ef11b136ea224fe,,,,,,,,,2549,60,-57,1,0,0,response3disk,,5,-3,9,1,0,0,rectangle,-3,9,1,0,0,-3,9,1,0,0,1,129,289,89,1,,,,,,,,
,,,,,,,,,,,,,FF,,,,,,,,0.3504,,,,,,,,,,,,,,,,,,,,,,60fb1eeb25785cbdfbcbdf02,61036e863c221507b344c664,2021-07-29_23h17.06.126,Simcolourproject_2stim_asymm_v5,2020.2.10,Win32,60,61025ae37ef11b136ea224fe,,,,,,,,,1427,57,75,1,0,0,response1disk,,7,-3,8,1,0,0,rectangle,-3,8,1,0,0,-3,8,1,0,0,1,130,290,134,1,,,,,,,,
,,,,,,,,,,,,,FF,,,,,,,,0.4998,,,,,,,,,,,,,,,,,,,,,,60fb1eeb25785cbdfbcbdf02,61036e863c221507b344c664,2021-07-29_23h17.06.126,Simcolourproject_2stim_asymm_v5,2020.2.10,Win32,60,61025ae37ef11b136ea224fe,,,,,,,,,592,88,-62,1,0,0,response3disk,,5,-13,-3,1,0,0,rectangle,64,-46,1,0,0,-12,-3,1,0,0,1,131,291,2,1,,response3disk_3,TRUE,5,6,"[50,237,100,65,202,292,271,2,90,238,222,295,70,230,243,271,104,159,239,323]",1.0163,rectangle
,,,,,,,,,,,,,FF,,,,,,,,0.4667,,,,,,,,,,,,,,,,,,,,,,60fb1eeb25785cbdfbcbdf02,61036e863c221507b344c664,2021-07-29_23h17.06.126,Simcolourproject_2stim_asymm_v5,2020.2.10,Win32,60,61025ae37ef11b136ea224fe,,,,,,,,,1453,43,-66,1,0,0,response3disk,,4,-8,4,1,0,0,rectangle,-8,4,1,0,0,-8,4,1,0,0,1,132,292,36,1,,,,,,,,
,,,,,,,,,,,,,FF,,,,,,,,0.3337,,,,,,,,,,,,,,,,,,,,,,60fb1eeb25785cbdfbcbdf02,61036e863c221507b344c664,2021-07-29_23h17.06.126,Simcolourproject_2stim_asymm_v5,2020.2.10,Win32,60,61025ae37ef11b136ea224fe,,,,,,,,,4090,62,74,1,0,0,response1disk,,7,-5,-11,1,0,0,rectangle,-5,-11,1,0,0,-5,-11,1,0,0,1,133,293,26,1,,,,,,,,
,,,,,,,,,,,,,FF,,,,,,,,0.5191,,,,,,,,,,,,,,,,,,,,,,60fb1eeb25785cbdfbcbdf02,61036e863c221507b344c664,2021-07-29_23h17.06.126,Simcolourproject_2stim_asymm_v5,2020.2.10,Win32,60,61025ae37ef11b136ea224fe,,,,,,,,,2882,-31,71,1,0,0,response7disk,,0,-6,10,1,0,0,rectangle,37,-65,1,0,0,-3,9,1,0,0,1,134,294,41,1,,response3disk_3,TRUE,4,2,"[50,237,100,65,202,292,271,2,90,238,222,295,70,230,243,271,104,159,239,323]",0.9308,rectangle
,,,,,,,,,,,,,FF,,,,,,,,0.4361,,,,,,,,,,,,,,,,,,,,,,60fb1eeb25785cbdfbcbdf02,61036e863c221507b344c664,2021-07-29_23h17.06.126,Simcolourproject_2stim_asymm_v5,2020.2.10,Win32,60,61025ae37ef11b136ea224fe,,,,,,,,,900,-106,69,1,0,0,response7disk,,1,-10,12,1,0,0,rectangle,-10,12,1,0,0,-10,12,1,0,0,1,135,295,101,1,,,,,,,,
,,,,,,,,,,,,,FF,,,,,,,,0.6855,,,,,,,,,,,,,,,,,,,,,,60fb1eeb25785cbdfbcbdf02,61036e863c221507b344c664,2021-07-29_23h17.06.126,Simcolourproject_2stim_asymm_v5,2020.2.10,Win32,60,61025ae37ef11b136ea224fe,,,,,,,,,2852,-65,97,1,0,0,response7disk,,0,12,-15,1,0,0,rectangle,12,-15,1,0,0,12,-15,1,0,0,1,136,296,82,1,,,,,,,,
,,,,,,,,,,,,,FF,,,,,,,,0.4859,,,,,,,,,,,,,,,,,,,,,,60fb1eeb25785cbdfbcbdf02,61036e863c221507b344c664,2021-07-29_23h17.06.126,Simcolourproject_2stim_asymm_v5,2020.2.10,Win32,60,61025ae37ef11b136ea224fe,,,,,,,,,3939,-51,77,1,0,0,response7disk,,0,27,1,1,0,0,rectangle,27,1,1,0,0,27,1,1,0,0,1,137,297,56,1,,,,,,,,
,,,,,,,,,,,,,FF,,,,,,,,0.298,,,,,,,,,,,,,,,,,,,,,,60fb1eeb25785cbdfbcbdf02,61036e863c221507b344c664,2021-07-29_23h17.06.126,Simcolourproject_2stim_asymm_v5,2020.2.10,Win32,60,61025ae37ef11b136ea224fe,,,,,,,,,1552,88,53,1,0,0,response1disk,,6,11,-2,1,0,0,rectangle,11,-2,1,0,0,11,-2,1,0,0,1,138,298,118,1,,,,,,,,
,,,,,,,,,,,,,FF,,,,,,,,0.4024,,,,,,,,,,,,,,,,,,,,,,60fb1eeb25785cbdfbcbdf02,61036e863c221507b344c664,2021-07-29_23h17.06.126,Simcolourproject_2stim_asymm_v5,2020.2.10,Win32,60,61025ae37ef11b136ea224fe,,,,,,,,,3167,-20,71,1,0,0,response7disk,,0,26,-4,1,0,0,rectangle,26,-4,1,0,0,26,-4,1,0,0,1,139,299,25,1,,,,,,,,
,,,,,,,,,,,,,FF,,,,,,,,0.4499,,,,,,,,,,,,,,,,,,,,,,60fb1eeb25785cbdfbcbdf02,61036e863c221507b344c664,2021-07-29_23h17.06.126,Simcolourproject_2stim_asymm_v5,2020.2.10,Win32,60,61025ae37ef11b136ea224fe,,,,,,,,,2380,103,85,1,0,0,response1disk,,6,-6,-7,1,0,0,rectangle,-6,-7,1,0,0,-6,-7,1,0,0,1,140,300,147,1,,,,,,,,
,,,,,,,,,,,,,FF,,,,,,,,0.6327,,,,,,,,,,,,,,,,,,,,,,60fb1eeb25785cbdfbcbdf02,61036e863c221507b344c664,2021-07-29_23h17.06.126,Simcolourproject_2stim_asymm_v5,2020.2.10,Win32,60,61025ae37ef11b136ea224fe,,,,,,,,,3789,-77,-52,1,0,0,response5disk,,2,25,-5,1,0,0,rectangle,25,-5,1,0,0,25,-5,1,0,0,1,141,301,24,1,,,,,,,,
,,,,,,,,,,,,,FF,,,,,,,,0.4833,,,,,,,,,,,,,,,,,,,,,,60fb1eeb25785cbdfbcbdf02,61036e863c221507b344c664,2021-07-29_23h17.06.126,Simcolourproject_2stim_asymm_v5,2020.2.10,Win32,60,61025ae37ef11b136ea224fe,,,,,,,,,300,82,30,1,0,0,response1disk,,6,-28,7,1,0,0,rectangle,-28,7,1,0,0,-28,7,1,0,0,1,142,302,88,1,,,,,,,,
