key_resp.keys,key_resp.rt,key_resp_14.keys,key_resp_14.rt,key_resp_15.keys,key_resp_15.rt,key_resp_17.keys,key_resp_17.rt,key_resp_9.keys,key_resp_9.rt,key_resp_10.keys,key_resp_10.rt,practice_comparison,Ecc,mouse_5.x,mouse_5.y,mouse_5.leftButton,mouse_5.midButton,mouse_5.rightButton,mouse_5.clicked_name,pracsimilarity,response_time,mouse_10.x,mouse_10.y,mouse_10.leftButton,mouse_10.midButton,mouse_10.rightButton,mouse_10.clicked_name,mouse_7.x,mouse_7.y,mouse_7.leftButton,mouse_7.midButton,mouse_7.rightButton,mouse_6.x,mouse_6.y,mouse_6.leftButton,mouse_6.midButton,mouse_6.rightButton,duringprac.thisRepN,duringprac.thisTrialN,duringprac.thisN,duringprac.thisIndex,duringprac.ran,participant,session,date,expName,psychopyVersion,OS,frameRate,study_id,mouse_7.clicked_name,catchpracsimilarity,catch_response_time,catchnumberprac,catchtrialorderprac,mouse_6.clicked_name,key_resp_22.keys,key_resp_22.rt,realcomparison,mouse.x,mouse.y,mouse.leftButton,mouse.midButton,mouse.rightButton,mouse.clicked_name,Colour2,similarity,mouse_2.x,mouse_2.y,mouse_2.leftButton,mouse_2.midButton,mouse_2.rightButton,mouse_2.clicked_name,mouse_3.x,mouse_3.y,mouse_3.leftButton,mouse_3.midButton,mouse_3.rightButton,mouse_11.x,mouse_11.y,mouse_11.leftButton,mouse_11.midButton,mouse_11.rightButton,trials_2.thisRepN,trials_2.thisTrialN,trials_2.thisN,trials_2.thisIndex,trials_2.ran,Colour1,mouse_3.clicked_name,catchornah,catchsimilarity,catchnumber,catchtrialorder,catchRT,mouse_11.clicked_name
space,157.9223,space,20.4095,space,24.1033,space,25.152,space,2.576,space,7.0165,126,FF,58,-83,1,0,0,response3disk_5,4,16.9667,-13,5,1,0,0,rectangle_8,-13,5,1,0,0,-13,5,1,0,0,0,0,0,3,1,60fb2cd6d4e01d29d28c7f36,610368944c5946437063b123,2021-07-30_04h49.52.292,Simcolourproject_2stim_asymm_v5,2020.2.10,Win32,60,61025ae37ef11b136ea224fe,,,,,,,,,,,,,,,,,,,,,,,,,,,,,,,,,,,,,,,,,,,,,,
,,,,,,,,,,,,60,PF,83,61,1,0,0,response1disk_5,6,9.9029,0,2,1,0,0,rectangle_8,-72,55,1,0,0,-2,4,1,0,0,0,1,1,1,1,60fb2cd6d4e01d29d28c7f36,610368944c5946437063b123,2021-07-30_04h49.52.292,Simcolourproject_2stim_asymm_v5,2020.2.10,Win32,60,61025ae37ef11b136ea224fe,response7disk_7,1,6.2011,1,"[2,5]",rectangle_4,,,,,,,,,,,,,,,,,,,,,,,,,,,,,,,,,,,,,,,,
,,,,,,,,,,,,95,PF,50,-61,1,0,0,response3disk_5,4,9.203,2,4,1,0,0,rectangle_8,2,4,1,0,0,2,4,1,0,0,0,2,2,2,1,60fb2cd6d4e01d29d28c7f36,610368944c5946437063b123,2021-07-30_04h49.52.292,Simcolourproject_2stim_asymm_v5,2020.2.10,Win32,60,61025ae37ef11b136ea224fe,,,,,,,,,,,,,,,,,,,,,,,,,,,,,,,,,,,,,,,,,,,,,,
,,,,,,,,,,,,17,PF,-40,-102,1,0,0,response5disk_5,3,7.7194,8,5,1,0,0,rectangle_8,8,5,1,0,0,8,5,1,0,0,0,3,3,4,1,60fb2cd6d4e01d29d28c7f36,610368944c5946437063b123,2021-07-30_04h49.52.292,Simcolourproject_2stim_asymm_v5,2020.2.10,Win32,60,61025ae37ef11b136ea224fe,,,,,,,,,,,,,,,,,,,,,,,,,,,,,,,,,,,,,,,,,,,,,,
,,,,,,,,,,,,38,FF,34,105,1,0,0,response1disk_5,7,5.4849,13,-7,1,0,0,rectangle_8,-87,39,1,0,0,9,5,1,0,0,0,4,4,5,1,60fb2cd6d4e01d29d28c7f36,610368944c5946437063b123,2021-07-30_04h49.52.292,Simcolourproject_2stim_asymm_v5,2020.2.10,Win32,60,61025ae37ef11b136ea224fe,response7disk_7,1,6.7961,1,"[2,5]",rectangle_4,,,,,,,,,,,,,,,,,,,,,,,,,,,,,,,,,,,,,,,,
,,,,,,,,,,,,137,PF,42,94,1,0,0,response1disk_5,7,4.0377,6,-10,1,0,0,rectangle_8,6,-10,1,0,0,6,-10,1,0,0,0,5,5,6,1,60fb2cd6d4e01d29d28c7f36,610368944c5946437063b123,2021-07-30_04h49.52.292,Simcolourproject_2stim_asymm_v5,2020.2.10,Win32,60,61025ae37ef11b136ea224fe,,,,,,,,,,,,,,,,,,,,,,,,,,,,,,,,,,,,,,,,,,,,,,
,,,,,,,,,,,,149,FF,35,87,1,0,0,response1disk_5,7,2.8674,17,6,1,0,0,rectangle_8,17,6,1,0,0,17,6,1,0,0,0,6,6,0,1,60fb2cd6d4e01d29d28c7f36,610368944c5946437063b123,2021-07-30_04h49.52.292,Simcolourproject_2stim_asymm_v5,2020.2.10,Win32,60,61025ae37ef11b136ea224fe,,,,,,,,,,,,,,,,,,,,,,,,,,,,,,,,,,,,,,,,,,,,,,
,,,,,,,,,,,,,FF,,,,,,,,4.5865,,,,,,,,,,,,,,,,,,,,,,60fb2cd6d4e01d29d28c7f36,610368944c5946437063b123,2021-07-30_04h49.52.292,Simcolourproject_2stim_asymm_v5,2020.2.10,Win32,60,61025ae37ef11b136ea224fe,,,,,,,space,5.6286,1864,77,43,1,0,0,response1disk,,6,2,2,1,0,0,rectangle,2,2,1,0,0,2,2,1,0,0,0,0,0,45,1,,,,,,,,
,,,,,,,,,,,,,FF,,,,,,,,3.9502,,,,,,,,,,,,,,,,,,,,,,60fb2cd6d4e01d29d28c7f36,610368944c5946437063b123,2021-07-30_04h49.52.292,Simcolourproject_2stim_asymm_v5,2020.2.10,Win32,60,61025ae37ef11b136ea224fe,,,,,,,,,2075,40,81,1,0,0,response1disk,,7,19,-2,1,0,0,rectangle,19,-2,1,0,0,19,-2,1,0,0,0,1,1,24,1,,,,,,,,
,,,,,,,,,,,,,FF,,,,,,,,8.1719,,,,,,,,,,,,,,,,,,,,,,60fb2cd6d4e01d29d28c7f36,610368944c5946437063b123,2021-07-30_04h49.52.292,Simcolourproject_2stim_asymm_v5,2020.2.10,Win32,60,61025ae37ef11b136ea224fe,,,,,,,,,3059,60,-22,1,0,0,response3disk,,5,-15,1,1,0,0,rectangle,-15,1,1,0,0,-15,1,1,0,0,0,2,2,110,1,,,,,,,,
,,,,,,,,,,,,,FF,,,,,,,,4.0117,,,,,,,,,,,,,,,,,,,,,,60fb2cd6d4e01d29d28c7f36,610368944c5946437063b123,2021-07-30_04h49.52.292,Simcolourproject_2stim_asymm_v5,2020.2.10,Win32,60,61025ae37ef11b136ea224fe,,,,,,,,,3058,77,34,1,0,0,response1disk,,6,-2,-2,1,0,0,rectangle,-2,-2,1,0,0,-2,-2,1,0,0,0,3,3,148,1,,,,,,,,
,,,,,,,,,,,,,FF,,,,,,,,2.117,,,,,,,,,,,,,,,,,,,,,,60fb2cd6d4e01d29d28c7f36,610368944c5946437063b123,2021-07-30_04h49.52.292,Simcolourproject_2stim_asymm_v5,2020.2.10,Win32,60,61025ae37ef11b136ea224fe,,,,,,,,,3803,42,72,1,0,0,response1disk,,7,11,-3,1,0,0,rectangle,11,-3,1,0,0,11,-3,1,0,0,0,4,4,138,1,,,,,,,,
,,,,,,,,,,,,,FF,,,,,,,,1.6852,,,,,,,,,,,,,,,,,,,,,,60fb2cd6d4e01d29d28c7f36,610368944c5946437063b123,2021-07-30_04h49.52.292,Simcolourproject_2stim_asymm_v5,2020.2.10,Win32,60,61025ae37ef11b136ea224fe,,,,,,,,,3121,45,70,1,0,0,response1disk,,7,12,3,1,0,0,rectangle,12,3,1,0,0,12,3,1,0,0,0,5,5,41,1,,,,,,,,
,,,,,,,,,,,,,FF,,,,,,,,2.9339,,,,,,,,,,,,,,,,,,,,,,60fb2cd6d4e01d29d28c7f36,610368944c5946437063b123,2021-07-30_04h49.52.292,Simcolourproject_2stim_asymm_v5,2020.2.10,Win32,60,61025ae37ef11b136ea224fe,,,,,,,,,3552,-80,-46,1,0,0,response5disk,,2,16,3,1,0,0,rectangle,16,3,1,0,0,16,3,1,0,0,0,6,6,145,1,,,,,,,,
,,,,,,,,,,,,,FF,,,,,,,,2.5365,,,,,,,,,,,,,,,,,,,,,,60fb2cd6d4e01d29d28c7f36,610368944c5946437063b123,2021-07-30_04h49.52.292,Simcolourproject_2stim_asymm_v5,2020.2.10,Win32,60,61025ae37ef11b136ea224fe,,,,,,,,,289,65,42,1,0,0,response1disk,,6,22,6,1,0,0,rectangle,22,6,1,0,0,22,6,1,0,0,0,7,7,57,1,,,,,,,,
,,,,,,,,,,,,,FF,,,,,,,,2.153,,,,,,,,,,,,,,,,,,,,,,60fb2cd6d4e01d29d28c7f36,610368944c5946437063b123,2021-07-30_04h49.52.292,Simcolourproject_2stim_asymm_v5,2020.2.10,Win32,60,61025ae37ef11b136ea224fe,,,,,,,,,3738,37,113,1,0,0,response1disk,,7,-4,4,1,0,0,rectangle,-4,4,1,0,0,-4,4,1,0,0,0,8,8,88,1,,,,,,,,
,,,,,,,,,,,,,FF,,,,,,,,2.8819,,,,,,,,,,,,,,,,,,,,,,60fb2cd6d4e01d29d28c7f36,610368944c5946437063b123,2021-07-30_04h49.52.292,Simcolourproject_2stim_asymm_v5,2020.2.10,Win32,60,61025ae37ef11b136ea224fe,,,,,,,,,2238,85,30,1,0,0,response1disk,,6,7,-1,1,0,0,rectangle,7,-1,1,0,0,7,-1,1,0,0,0,9,9,113,1,,,,,,,,
,,,,,,,,,,,,,FF,,,,,,,,4.0336,,,,,,,,,,,,,,,,,,,,,,60fb2cd6d4e01d29d28c7f36,610368944c5946437063b123,2021-07-30_04h49.52.292,Simcolourproject_2stim_asymm_v5,2020.2.10,Win32,60,61025ae37ef11b136ea224fe,,,,,,,,,462,69,-28,1,0,0,response3disk,,5,12,-3,1,0,0,rectangle,12,-3,1,0,0,12,-3,1,0,0,0,10,10,112,1,,,,,,,,
,,,,,,,,,,,,,FF,,,,,,,,7.5594,,,,,,,,,,,,,,,,,,,,,,60fb2cd6d4e01d29d28c7f36,610368944c5946437063b123,2021-07-30_04h49.52.292,Simcolourproject_2stim_asymm_v5,2020.2.10,Win32,60,61025ae37ef11b136ea224fe,,,,,,,,,769,28,-97,1,0,0,response3disk,,4,-1,-3,1,0,0,rectangle,-1,-3,1,0,0,-1,-3,1,0,0,0,11,11,151,1,,,,,,,,
,,,,,,,,,,,,,FF,,,,,,,,6.4842,,,,,,,,,,,,,,,,,,,,,,60fb2cd6d4e01d29d28c7f36,610368944c5946437063b123,2021-07-30_04h49.52.292,Simcolourproject_2stim_asymm_v5,2020.2.10,Win32,60,61025ae37ef11b136ea224fe,,,,,,,,,1392,85,33,1,0,0,response1disk,,6,10,0,1,0,0,rectangle,10,0,1,0,0,10,0,1,0,0,0,12,12,136,1,,,,,,,,
,,,,,,,,,,,,,FF,,,,,,,,1.7664,,,,,,,,,,,,,,,,,,,,,,60fb2cd6d4e01d29d28c7f36,610368944c5946437063b123,2021-07-30_04h49.52.292,Simcolourproject_2stim_asymm_v5,2020.2.10,Win32,60,61025ae37ef11b136ea224fe,,,,,,,,,4216,40,91,1,0,0,response1disk,,7,10,0,1,0,0,rectangle,10,0,1,0,0,10,0,1,0,0,0,13,13,137,1,,,,,,,,
,,,,,,,,,,,,,FF,,,,,,,,1.6519,,,,,,,,,,,,,,,,,,,,,,60fb2cd6d4e01d29d28c7f36,610368944c5946437063b123,2021-07-30_04h49.52.292,Simcolourproject_2stim_asymm_v5,2020.2.10,Win32,60,61025ae37ef11b136ea224fe,,,,,,,,,3797,37,73,1,0,0,response1disk,,7,24,8,1,0,0,rectangle,24,8,1,0,0,24,8,1,0,0,0,14,14,122,1,,,,,,,,
,,,,,,,,,,,,,FF,,,,,,,,2.7701,,,,,,,,,,,,,,,,,,,,,,60fb2cd6d4e01d29d28c7f36,610368944c5946437063b123,2021-07-30_04h49.52.292,Simcolourproject_2stim_asymm_v5,2020.2.10,Win32,60,61025ae37ef11b136ea224fe,,,,,,,,,895,76,-30,1,0,0,response3disk,,5,-4,1,1,0,0,rectangle,-4,1,1,0,0,-4,1,1,0,0,0,15,15,66,1,,,,,,,,
,,,,,,,,,,,,,FF,,,,,,,,4.3408,,,,,,,,,,,,,,,,,,,,,,60fb2cd6d4e01d29d28c7f36,610368944c5946437063b123,2021-07-30_04h49.52.292,Simcolourproject_2stim_asymm_v5,2020.2.10,Win32,60,61025ae37ef11b136ea224fe,,,,,,,,,1319,-32,-81,1,0,0,response5disk,,3,3,12,1,0,0,rectangle,3,12,1,0,0,3,12,1,0,0,0,16,16,105,1,,,,,,,,
,,,,,,,,,,,,,FF,,,,,,,,2.4848,,,,,,,,,,,,,,,,,,,,,,60fb2cd6d4e01d29d28c7f36,610368944c5946437063b123,2021-07-30_04h49.52.292,Simcolourproject_2stim_asymm_v5,2020.2.10,Win32,60,61025ae37ef11b136ea224fe,,,,,,,,,2399,80,36,1,0,0,response1disk,,6,17,-4,1,0,0,rectangle,17,-4,1,0,0,17,-4,1,0,0,0,17,17,101,1,,,,,,,,
,,,,,,,,,,,,,FF,,,,,,,,1.9852,,,,,,,,,,,,,,,,,,,,,,60fb2cd6d4e01d29d28c7f36,610368944c5946437063b123,2021-07-30_04h49.52.292,Simcolourproject_2stim_asymm_v5,2020.2.10,Win32,60,61025ae37ef11b136ea224fe,,,,,,,,,1316,77,37,1,0,0,response1disk,,6,5,9,1,0,0,rectangle,5,9,1,0,0,5,9,1,0,0,0,18,18,13,1,,,,,,,,
,,,,,,,,,,,,,FF,,,,,,,,3.4521,,,,,,,,,,,,,,,,,,,,,,60fb2cd6d4e01d29d28c7f36,610368944c5946437063b123,2021-07-30_04h49.52.292,Simcolourproject_2stim_asymm_v5,2020.2.10,Win32,60,61025ae37ef11b136ea224fe,,,,,,,,,308,80,30,1,0,0,response1disk,,6,-4,6,1,0,0,rectangle,-4,6,1,0,0,-4,6,1,0,0,0,19,19,146,1,,,,,,,,
,,,,,,,,,,,,,FF,,,,,,,,2.2687,,,,,,,,,,,,,,,,,,,,,,60fb2cd6d4e01d29d28c7f36,610368944c5946437063b123,2021-07-30_04h49.52.292,Simcolourproject_2stim_asymm_v5,2020.2.10,Win32,60,61025ae37ef11b136ea224fe,,,,,,,,,3431,31,78,1,0,0,response1disk,,7,11,4,1,0,0,rectangle,11,4,1,0,0,11,4,1,0,0,0,20,20,83,1,,,,,,,,
,,,,,,,,,,,,,FF,,,,,,,,3.6514,,,,,,,,,,,,,,,,,,,,,,60fb2cd6d4e01d29d28c7f36,610368944c5946437063b123,2021-07-30_04h49.52.292,Simcolourproject_2stim_asymm_v5,2020.2.10,Win32,60,61025ae37ef11b136ea224fe,,,,,,,,,4267,89,31,1,0,0,response1disk,,6,24,-2,1,0,0,rectangle,24,-2,1,0,0,24,-2,1,0,0,0,21,21,121,1,,,,,,,,
,,,,,,,,,,,,,FF,,,,,,,,2.8535,,,,,,,,,,,,,,,,,,,,,,60fb2cd6d4e01d29d28c7f36,610368944c5946437063b123,2021-07-30_04h49.52.292,Simcolourproject_2stim_asymm_v5,2020.2.10,Win32,60,61025ae37ef11b136ea224fe,,,,,,,,,2707,58,32,1,0,0,response1disk,,6,18,11,1,0,0,rectangle,18,11,1,0,0,18,11,1,0,0,0,22,22,65,1,,,,,,,,
,,,,,,,,,,,,,FF,,,,,,,,2.7341,,,,,,,,,,,,,,,,,,,,,,60fb2cd6d4e01d29d28c7f36,610368944c5946437063b123,2021-07-30_04h49.52.292,Simcolourproject_2stim_asymm_v5,2020.2.10,Win32,60,61025ae37ef11b136ea224fe,,,,,,,,,2514,34,83,1,0,0,response1disk,,7,12,9,1,0,0,rectangle,12,9,1,0,0,12,9,1,0,0,0,23,23,30,1,,,,,,,,
,,,,,,,,,,,,,FF,,,,,,,,2.251,,,,,,,,,,,,,,,,,,,,,,60fb2cd6d4e01d29d28c7f36,610368944c5946437063b123,2021-07-30_04h49.52.292,Simcolourproject_2stim_asymm_v5,2020.2.10,Win32,60,61025ae37ef11b136ea224fe,,,,,,,,,1909,83,-28,1,0,0,response3disk,,5,12,6,1,0,0,rectangle,12,6,1,0,0,12,6,1,0,0,0,24,24,107,1,,,,,,,,
,,,,,,,,,,,,,FF,,,,,,,,2.2681,,,,,,,,,,,,,,,,,,,,,,60fb2cd6d4e01d29d28c7f36,610368944c5946437063b123,2021-07-30_04h49.52.292,Simcolourproject_2stim_asymm_v5,2020.2.10,Win32,60,61025ae37ef11b136ea224fe,,,,,,,,,2097,81,38,1,0,0,response1disk,,6,11,6,1,0,0,rectangle,11,6,1,0,0,11,6,1,0,0,0,25,25,15,1,,,,,,,,
,,,,,,,,,,,,,FF,,,,,,,,6.1192,,,,,,,,,,,,,,,,,,,,,,60fb2cd6d4e01d29d28c7f36,610368944c5946437063b123,2021-07-30_04h49.52.292,Simcolourproject_2stim_asymm_v5,2020.2.10,Win32,60,61025ae37ef11b136ea224fe,,,,,,,,,1766,-56,-36,1,0,0,response5disk,,2,2,-5,1,0,0,rectangle,-43,-54,1,0,0,3,2,1,0,0,0,26,26,139,1,,response5disk_3,TRUE,3,5,"[145,293,191,157,52,304,35,27,205,91,249,134,234,77,73,286,223,93,88,170]",3.5623,rectangle
,,,,,,,,,,,,,FF,,,,,,,,4.3185,,,,,,,,,,,,,,,,,,,,,,60fb2cd6d4e01d29d28c7f36,610368944c5946437063b123,2021-07-30_04h49.52.292,Simcolourproject_2stim_asymm_v5,2020.2.10,Win32,60,61025ae37ef11b136ea224fe,,,,,,,,,3832,99,-38,1,0,0,response3disk,,5,19,3,1,0,0,rectangle,19,3,1,0,0,19,3,1,0,0,0,27,27,59,1,,,,,,,,
,,,,,,,,,,,,,FF,,,,,,,,2.4197,,,,,,,,,,,,,,,,,,,,,,60fb2cd6d4e01d29d28c7f36,610368944c5946437063b123,2021-07-30_04h49.52.292,Simcolourproject_2stim_asymm_v5,2020.2.10,Win32,60,61025ae37ef11b136ea224fe,,,,,,,,,1720,28,63,1,0,0,response1disk,,7,18,6,1,0,0,rectangle,18,6,1,0,0,18,6,1,0,0,0,28,28,21,1,,,,,,,,
,,,,,,,,,,,,,FF,,,,,,,,2.1673,,,,,,,,,,,,,,,,,,,,,,60fb2cd6d4e01d29d28c7f36,610368944c5946437063b123,2021-07-30_04h49.52.292,Simcolourproject_2stim_asymm_v5,2020.2.10,Win32,60,61025ae37ef11b136ea224fe,,,,,,,,,399,87,31,1,0,0,response1disk,,6,9,-3,1,0,0,rectangle,9,-3,1,0,0,9,-3,1,0,0,0,29,29,74,1,,,,,,,,
,,,,,,,,,,,,,FF,,,,,,,,2.4868,,,,,,,,,,,,,,,,,,,,,,60fb2cd6d4e01d29d28c7f36,610368944c5946437063b123,2021-07-30_04h49.52.292,Simcolourproject_2stim_asymm_v5,2020.2.10,Win32,60,61025ae37ef11b136ea224fe,,,,,,,,,4064,44,66,1,0,0,response1disk,,7,17,10,1,0,0,rectangle,17,10,1,0,0,17,10,1,0,0,0,30,30,38,1,,,,,,,,
,,,,,,,,,,,,,FF,,,,,,,,3.6005,,,,,,,,,,,,,,,,,,,,,,60fb2cd6d4e01d29d28c7f36,610368944c5946437063b123,2021-07-30_04h49.52.292,Simcolourproject_2stim_asymm_v5,2020.2.10,Win32,60,61025ae37ef11b136ea224fe,,,,,,,,,657,56,40,1,0,0,response1disk,,6,11,3,1,0,0,rectangle,11,3,1,0,0,11,3,1,0,0,0,31,31,84,1,,,,,,,,
,,,,,,,,,,,,,FF,,,,,,,,2.1191,,,,,,,,,,,,,,,,,,,,,,60fb2cd6d4e01d29d28c7f36,610368944c5946437063b123,2021-07-30_04h49.52.292,Simcolourproject_2stim_asymm_v5,2020.2.10,Win32,60,61025ae37ef11b136ea224fe,,,,,,,,,2821,30,65,1,0,0,response1disk,,7,14,-4,1,0,0,rectangle,14,-4,1,0,0,14,-4,1,0,0,0,32,32,159,1,,,,,,,,
,,,,,,,,,,,,,FF,,,,,,,,4.2679,,,,,,,,,,,,,,,,,,,,,,60fb2cd6d4e01d29d28c7f36,610368944c5946437063b123,2021-07-30_04h49.52.292,Simcolourproject_2stim_asymm_v5,2020.2.10,Win32,60,61025ae37ef11b136ea224fe,,,,,,,,,1206,57,37,1,0,0,response1disk,,6,10,11,1,0,0,rectangle,10,11,1,0,0,10,11,1,0,0,0,33,33,31,1,,,,,,,,
,,,,,,,,,,,,,FF,,,,,,,,1.9168,,,,,,,,,,,,,,,,,,,,,,60fb2cd6d4e01d29d28c7f36,610368944c5946437063b123,2021-07-30_04h49.52.292,Simcolourproject_2stim_asymm_v5,2020.2.10,Win32,60,61025ae37ef11b136ea224fe,,,,,,,,,2726,51,39,1,0,0,response1disk,,6,-8,6,1,0,0,rectangle,-33,88,1,0,0,-9,7,1,0,0,0,34,34,25,1,,response7disk_3,TRUE,0,0,"[145,293,191,157,52,304,35,27,205,91,249,134,234,77,73,286,223,93,88,170]",4.6336,rectangle
,,,,,,,,,,,,,FF,,,,,,,,3.3181,,,,,,,,,,,,,,,,,,,,,,60fb2cd6d4e01d29d28c7f36,610368944c5946437063b123,2021-07-30_04h49.52.292,Simcolourproject_2stim_asymm_v5,2020.2.10,Win32,60,61025ae37ef11b136ea224fe,,,,,,,,,3157,94,44,1,0,0,response1disk,,6,4,-3,1,0,0,rectangle,4,-3,1,0,0,4,-3,1,0,0,0,35,35,55,1,,,,,,,,
,,,,,,,,,,,,,FF,,,,,,,,1.6495,,,,,,,,,,,,,,,,,,,,,,60fb2cd6d4e01d29d28c7f36,610368944c5946437063b123,2021-07-30_04h49.52.292,Simcolourproject_2stim_asymm_v5,2020.2.10,Win32,60,61025ae37ef11b136ea224fe,,,,,,,,,1409,42,70,1,0,0,response1disk,,7,-7,12,1,0,0,rectangle,-7,12,1,0,0,-7,12,1,0,0,0,36,36,71,1,,,,,,,,
,,,,,,,,,,,,,FF,,,,,,,,2.7839,,,,,,,,,,,,,,,,,,,,,,60fb2cd6d4e01d29d28c7f36,610368944c5946437063b123,2021-07-30_04h49.52.292,Simcolourproject_2stim_asymm_v5,2020.2.10,Win32,60,61025ae37ef11b136ea224fe,,,,,,,,,2098,-59,-39,1,0,0,response5disk,,2,10,-2,1,0,0,rectangle,10,-2,1,0,0,10,-2,1,0,0,0,37,37,108,1,,,,,,,,
,,,,,,,,,,,,,FF,,,,,,,,2.3028,,,,,,,,,,,,,,,,,,,,,,60fb2cd6d4e01d29d28c7f36,610368944c5946437063b123,2021-07-30_04h49.52.292,Simcolourproject_2stim_asymm_v5,2020.2.10,Win32,60,61025ae37ef11b136ea224fe,,,,,,,,,3209,65,41,1,0,0,response1disk,,6,-9,11,1,0,0,rectangle,-9,11,1,0,0,-9,11,1,0,0,0,38,38,47,1,,,,,,,,
,,,,,,,,,,,,,FF,,,,,,,,4.2516,,,,,,,,,,,,,,,,,,,,,,60fb2cd6d4e01d29d28c7f36,610368944c5946437063b123,2021-07-30_04h49.52.292,Simcolourproject_2stim_asymm_v5,2020.2.10,Win32,60,61025ae37ef11b136ea224fe,,,,,,,,,3342,87,31,1,0,0,response1disk,,6,-1,-1,1,0,0,rectangle,-1,-1,1,0,0,-1,-1,1,0,0,0,39,39,14,1,,,,,,,,
,,,,,,,,,,,,,FF,,,,,,,,6.2674,,,,,,,,,,,,,,,,,,,,,,60fb2cd6d4e01d29d28c7f36,610368944c5946437063b123,2021-07-30_04h49.52.292,Simcolourproject_2stim_asymm_v5,2020.2.10,Win32,60,61025ae37ef11b136ea224fe,,,,,,,,,1130,23,55,1,0,0,response1disk,,7,-5,7,1,0,0,rectangle,-5,7,1,0,0,-5,7,1,0,0,0,40,40,130,1,,,,,,,,
,,,,,,,,,,,,,FF,,,,,,,,1.9862,,,,,,,,,,,,,,,,,,,,,,60fb2cd6d4e01d29d28c7f36,610368944c5946437063b123,2021-07-30_04h49.52.292,Simcolourproject_2stim_asymm_v5,2020.2.10,Win32,60,61025ae37ef11b136ea224fe,,,,,,,,,3172,69,-40,1,0,0,response3disk,,5,-5,-3,1,0,0,rectangle,-5,-3,1,0,0,-5,-3,1,0,0,0,41,41,97,1,,,,,,,,
,,,,,,,,,,,,,FF,,,,,,,,2.3506,,,,,,,,,,,,,,,,,,,,,,60fb2cd6d4e01d29d28c7f36,610368944c5946437063b123,2021-07-30_04h49.52.292,Simcolourproject_2stim_asymm_v5,2020.2.10,Win32,60,61025ae37ef11b136ea224fe,,,,,,,,,3666,67,-42,1,0,0,response3disk,,5,1,2,1,0,0,rectangle,1,2,1,0,0,1,2,1,0,0,0,42,42,106,1,,,,,,,,
,,,,,,,,,,,,,FF,,,,,,,,2.7692,,,,,,,,,,,,,,,,,,,,,,60fb2cd6d4e01d29d28c7f36,610368944c5946437063b123,2021-07-30_04h49.52.292,Simcolourproject_2stim_asymm_v5,2020.2.10,Win32,60,61025ae37ef11b136ea224fe,,,,,,,,,3138,66,-29,1,0,0,response3disk,,5,12,14,1,0,0,rectangle,12,14,1,0,0,12,14,1,0,0,0,43,43,1,1,,,,,,,,
,,,,,,,,,,,,,FF,,,,,,,,1.9833,,,,,,,,,,,,,,,,,,,,,,60fb2cd6d4e01d29d28c7f36,610368944c5946437063b123,2021-07-30_04h49.52.292,Simcolourproject_2stim_asymm_v5,2020.2.10,Win32,60,61025ae37ef11b136ea224fe,,,,,,,,,489,32,65,1,0,0,response1disk,,7,3,5,1,0,0,rectangle,3,5,1,0,0,3,5,1,0,0,0,44,44,63,1,,,,,,,,
,,,,,,,,,,,,,FF,,,,,,,,3.1188,,,,,,,,,,,,,,,,,,,,,,60fb2cd6d4e01d29d28c7f36,610368944c5946437063b123,2021-07-30_04h49.52.292,Simcolourproject_2stim_asymm_v5,2020.2.10,Win32,60,61025ae37ef11b136ea224fe,,,,,,,,,250,18,-54,1,0,0,response3disk,,4,8,6,1,0,0,rectangle,8,6,1,0,0,8,6,1,0,0,0,45,45,42,1,,,,,,,,
,,,,,,,,,,,,,FF,,,,,,,,2.9038,,,,,,,,,,,,,,,,,,,,,,60fb2cd6d4e01d29d28c7f36,610368944c5946437063b123,2021-07-30_04h49.52.292,Simcolourproject_2stim_asymm_v5,2020.2.10,Win32,60,61025ae37ef11b136ea224fe,,,,,,,,,1797,37,84,1,0,0,response1disk,,7,6,13,1,0,0,rectangle,6,13,1,0,0,6,13,1,0,0,0,46,46,18,1,,,,,,,,
,,,,,,,,,,,,,FF,,,,,,,,2.6019,,,,,,,,,,,,,,,,,,,,,,60fb2cd6d4e01d29d28c7f36,610368944c5946437063b123,2021-07-30_04h49.52.292,Simcolourproject_2stim_asymm_v5,2020.2.10,Win32,60,61025ae37ef11b136ea224fe,,,,,,,,,2395,52,-79,1,0,0,response3disk,,4,8,10,1,0,0,rectangle,8,10,1,0,0,8,10,1,0,0,0,47,47,4,1,,,,,,,,
,,,,,,,,,,,,,FF,,,,,,,,2.7201,,,,,,,,,,,,,,,,,,,,,,60fb2cd6d4e01d29d28c7f36,610368944c5946437063b123,2021-07-30_04h49.52.292,Simcolourproject_2stim_asymm_v5,2020.2.10,Win32,60,61025ae37ef11b136ea224fe,,,,,,,,,2723,34,64,1,0,0,response1disk,,7,11,9,1,0,0,rectangle,11,9,1,0,0,11,9,1,0,0,0,48,48,155,1,,,,,,,,
,,,,,,,,,,,,,FF,,,,,,,,2.3333,,,,,,,,,,,,,,,,,,,,,,60fb2cd6d4e01d29d28c7f36,610368944c5946437063b123,2021-07-30_04h49.52.292,Simcolourproject_2stim_asymm_v5,2020.2.10,Win32,60,61025ae37ef11b136ea224fe,,,,,,,,,505,27,62,1,0,0,response1disk,,7,-5,-2,1,0,0,rectangle,-5,-2,1,0,0,-5,-2,1,0,0,0,49,49,49,1,,,,,,,,
,,,,,,,,,,,,,FF,,,,,,,,3.0692,,,,,,,,,,,,,,,,,,,,,,60fb2cd6d4e01d29d28c7f36,610368944c5946437063b123,2021-07-30_04h49.52.292,Simcolourproject_2stim_asymm_v5,2020.2.10,Win32,60,61025ae37ef11b136ea224fe,,,,,,,,,192,-75,-22,1,0,0,response5disk,,2,-17,-2,1,0,0,rectangle,-17,-2,1,0,0,-17,-2,1,0,0,0,50,50,28,1,,,,,,,,
,,,,,,,,,,,,,FF,,,,,,,,1.9675,,,,,,,,,,,,,,,,,,,,,,60fb2cd6d4e01d29d28c7f36,610368944c5946437063b123,2021-07-30_04h49.52.292,Simcolourproject_2stim_asymm_v5,2020.2.10,Win32,60,61025ae37ef11b136ea224fe,,,,,,,,,2895,-73,-26,1,0,0,response5disk,,2,-17,5,1,0,0,rectangle,-49,-78,1,0,0,-13,6,1,0,0,0,51,51,131,1,,response5disk_3,TRUE,3,3,"[145,293,191,157,52,304,35,27,205,91,249,134,234,77,73,286,223,93,88,170]",8.0347,rectangle
,,,,,,,,,,,,,FF,,,,,,,,2.5351,,,,,,,,,,,,,,,,,,,,,,60fb2cd6d4e01d29d28c7f36,610368944c5946437063b123,2021-07-30_04h49.52.292,Simcolourproject_2stim_asymm_v5,2020.2.10,Win32,60,61025ae37ef11b136ea224fe,,,,,,,,,4115,-85,-24,1,0,0,response5disk,,2,-4,13,1,0,0,rectangle,-4,13,1,0,0,-4,13,1,0,0,0,52,52,11,1,,,,,,,,
,,,,,,,,,,,,,FF,,,,,,,,2.6375,,,,,,,,,,,,,,,,,,,,,,60fb2cd6d4e01d29d28c7f36,610368944c5946437063b123,2021-07-30_04h49.52.292,Simcolourproject_2stim_asymm_v5,2020.2.10,Win32,60,61025ae37ef11b136ea224fe,,,,,,,,,2274,75,-44,1,0,0,response3disk,,5,6,0,1,0,0,rectangle,6,0,1,0,0,6,0,1,0,0,0,53,53,96,1,,,,,,,,
,,,,,,,,,,,,,FF,,,,,,,,1.818,,,,,,,,,,,,,,,,,,,,,,60fb2cd6d4e01d29d28c7f36,610368944c5946437063b123,2021-07-30_04h49.52.292,Simcolourproject_2stim_asymm_v5,2020.2.10,Win32,60,61025ae37ef11b136ea224fe,,,,,,,,,2761,68,-22,1,0,0,response3disk,,5,4,8,1,0,0,rectangle,4,8,1,0,0,4,8,1,0,0,0,54,54,134,1,,,,,,,,
,,,,,,,,,,,,,FF,,,,,,,,2.802,,,,,,,,,,,,,,,,,,,,,,60fb2cd6d4e01d29d28c7f36,610368944c5946437063b123,2021-07-30_04h49.52.292,Simcolourproject_2stim_asymm_v5,2020.2.10,Win32,60,61025ae37ef11b136ea224fe,,,,,,,,,2211,59,75,1,0,0,response1disk,,7,26,-7,1,0,0,rectangle,26,-7,1,0,0,26,-7,1,0,0,0,55,55,157,1,,,,,,,,
,,,,,,,,,,,,,FF,,,,,,,,6.9987,,,,,,,,,,,,,,,,,,,,,,60fb2cd6d4e01d29d28c7f36,610368944c5946437063b123,2021-07-30_04h49.52.292,Simcolourproject_2stim_asymm_v5,2020.2.10,Win32,60,61025ae37ef11b136ea224fe,,,,,,,,,3285,51,-41,1,0,0,response3disk,,5,-7,8,1,0,0,rectangle,-7,8,1,0,0,-7,8,1,0,0,0,56,56,129,1,,,,,,,,
,,,,,,,,,,,,,FF,,,,,,,,4.8522,,,,,,,,,,,,,,,,,,,,,,60fb2cd6d4e01d29d28c7f36,610368944c5946437063b123,2021-07-30_04h49.52.292,Simcolourproject_2stim_asymm_v5,2020.2.10,Win32,60,61025ae37ef11b136ea224fe,,,,,,,,,685,28,-88,1,0,0,response3disk,,4,5,2,1,0,0,rectangle,5,2,1,0,0,5,2,1,0,0,0,57,57,144,1,,,,,,,,
,,,,,,,,,,,,,FF,,,,,,,,3.6829,,,,,,,,,,,,,,,,,,,,,,60fb2cd6d4e01d29d28c7f36,610368944c5946437063b123,2021-07-30_04h49.52.292,Simcolourproject_2stim_asymm_v5,2020.2.10,Win32,60,61025ae37ef11b136ea224fe,,,,,,,,,2103,48,93,1,0,0,response1disk,,7,7,-4,1,0,0,rectangle,7,-4,1,0,0,7,-4,1,0,0,0,58,58,6,1,,,,,,,,
,,,,,,,,,,,,,FF,,,,,,,,1.7286,,,,,,,,,,,,,,,,,,,,,,60fb2cd6d4e01d29d28c7f36,610368944c5946437063b123,2021-07-30_04h49.52.292,Simcolourproject_2stim_asymm_v5,2020.2.10,Win32,60,61025ae37ef11b136ea224fe,,,,,,,,,846,87,37,1,0,0,response1disk,,6,15,-2,1,0,0,rectangle,15,-2,1,0,0,15,-2,1,0,0,0,59,59,86,1,,,,,,,,
,,,,,,,,,,,,,FF,,,,,,,,1.4163,,,,,,,,,,,,,,,,,,,,,,60fb2cd6d4e01d29d28c7f36,610368944c5946437063b123,2021-07-30_04h49.52.292,Simcolourproject_2stim_asymm_v5,2020.2.10,Win32,60,61025ae37ef11b136ea224fe,,,,,,,,,333,27,81,1,0,0,response1disk,,7,14,-3,1,0,0,rectangle,14,-3,1,0,0,14,-3,1,0,0,0,60,60,104,1,,,,,,,,
,,,,,,,,,,,,,FF,,,,,,,,1.5669,,,,,,,,,,,,,,,,,,,,,,60fb2cd6d4e01d29d28c7f36,610368944c5946437063b123,2021-07-30_04h49.52.292,Simcolourproject_2stim_asymm_v5,2020.2.10,Win32,60,61025ae37ef11b136ea224fe,,,,,,,,,3184,41,64,1,0,0,response1disk,,7,16,12,1,0,0,rectangle,16,12,1,0,0,16,12,1,0,0,0,61,61,132,1,,,,,,,,
,,,,,,,,,,,,,FF,,,,,,,,2.3023,,,,,,,,,,,,,,,,,,,,,,60fb2cd6d4e01d29d28c7f36,610368944c5946437063b123,2021-07-30_04h49.52.292,Simcolourproject_2stim_asymm_v5,2020.2.10,Win32,60,61025ae37ef11b136ea224fe,,,,,,,,,2646,62,30,1,0,0,response1disk,,6,21,0,1,0,0,rectangle,21,0,1,0,0,21,0,1,0,0,0,62,62,158,1,,,,,,,,
,,,,,,,,,,,,,FF,,,,,,,,1.3015,,,,,,,,,,,,,,,,,,,,,,60fb2cd6d4e01d29d28c7f36,610368944c5946437063b123,2021-07-30_04h49.52.292,Simcolourproject_2stim_asymm_v5,2020.2.10,Win32,60,61025ae37ef11b136ea224fe,,,,,,,,,3016,29,85,1,0,0,response1disk,,7,12,3,1,0,0,rectangle,12,3,1,0,0,12,3,1,0,0,0,63,63,156,1,,,,,,,,
,,,,,,,,,,,,,FF,,,,,,,,19.1017,,,,,,,,,,,,,,,,,,,,,,60fb2cd6d4e01d29d28c7f36,610368944c5946437063b123,2021-07-30_04h49.52.292,Simcolourproject_2stim_asymm_v5,2020.2.10,Win32,60,61025ae37ef11b136ea224fe,,,,,,,,,3580,25,72,1,0,0,response1disk,,7,-3,2,1,0,0,rectangle,-3,2,1,0,0,-3,2,1,0,0,0,64,64,35,1,,,,,,,,
,,,,,,,,,,,,,FF,,,,,,,,3.7689,,,,,,,,,,,,,,,,,,,,,,60fb2cd6d4e01d29d28c7f36,610368944c5946437063b123,2021-07-30_04h49.52.292,Simcolourproject_2stim_asymm_v5,2020.2.10,Win32,60,61025ae37ef11b136ea224fe,,,,,,,,,955,29,50,1,0,0,response1disk,,7,0,11,1,0,0,rectangle,0,11,1,0,0,0,11,1,0,0,0,65,65,149,1,,,,,,,,
,,,,,,,,,,,,,FF,,,,,,,,1.9535,,,,,,,,,,,,,,,,,,,,,,60fb2cd6d4e01d29d28c7f36,610368944c5946437063b123,2021-07-30_04h49.52.292,Simcolourproject_2stim_asymm_v5,2020.2.10,Win32,60,61025ae37ef11b136ea224fe,,,,,,,,,2305,-41,-60,1,0,0,response5disk,,3,6,7,1,0,0,rectangle,6,7,1,0,0,6,7,1,0,0,0,66,66,56,1,,,,,,,,
,,,,,,,,,,,,,FF,,,,,,,,2.1362,,,,,,,,,,,,,,,,,,,,,,60fb2cd6d4e01d29d28c7f36,610368944c5946437063b123,2021-07-30_04h49.52.292,Simcolourproject_2stim_asymm_v5,2020.2.10,Win32,60,61025ae37ef11b136ea224fe,,,,,,,,,2182,47,-28,1,0,0,response3disk,,5,-3,11,1,0,0,rectangle,-3,11,1,0,0,-3,11,1,0,0,0,67,67,135,1,,,,,,,,
,,,,,,,,,,,,,FF,,,,,,,,2.655,,,,,,,,,,,,,,,,,,,,,,60fb2cd6d4e01d29d28c7f36,610368944c5946437063b123,2021-07-30_04h49.52.292,Simcolourproject_2stim_asymm_v5,2020.2.10,Win32,60,61025ae37ef11b136ea224fe,,,,,,,,,3421,-34,-43,1,0,0,response5disk,,3,14,8,1,0,0,rectangle,14,8,1,0,0,14,8,1,0,0,0,68,68,44,1,,,,,,,,
,,,,,,,,,,,,,FF,,,,,,,,1.569,,,,,,,,,,,,,,,,,,,,,,60fb2cd6d4e01d29d28c7f36,610368944c5946437063b123,2021-07-30_04h49.52.292,Simcolourproject_2stim_asymm_v5,2020.2.10,Win32,60,61025ae37ef11b136ea224fe,,,,,,,,,335,67,42,1,0,0,response1disk,,6,7,0,1,0,0,rectangle,7,0,1,0,0,7,0,1,0,0,0,69,69,32,1,,,,,,,,
,,,,,,,,,,,,,FF,,,,,,,,4.1661,,,,,,,,,,,,,,,,,,,,,,60fb2cd6d4e01d29d28c7f36,610368944c5946437063b123,2021-07-30_04h49.52.292,Simcolourproject_2stim_asymm_v5,2020.2.10,Win32,60,61025ae37ef11b136ea224fe,,,,,,,,,2496,64,45,1,0,0,response1disk,,6,21,-4,1,0,0,rectangle,21,-4,1,0,0,21,-4,1,0,0,0,70,70,119,1,,,,,,,,
,,,,,,,,,,,,,FF,,,,,,,,2.2843,,,,,,,,,,,,,,,,,,,,,,60fb2cd6d4e01d29d28c7f36,610368944c5946437063b123,2021-07-30_04h49.52.292,Simcolourproject_2stim_asymm_v5,2020.2.10,Win32,60,61025ae37ef11b136ea224fe,,,,,,,,,3638,47,36,1,0,0,response1disk,,6,23,9,1,0,0,rectangle,23,9,1,0,0,23,9,1,0,0,0,71,71,98,1,,,,,,,,
,,,,,,,,,,,,,FF,,,,,,,,4.0856,,,,,,,,,,,,,,,,,,,,,,60fb2cd6d4e01d29d28c7f36,610368944c5946437063b123,2021-07-30_04h49.52.292,Simcolourproject_2stim_asymm_v5,2020.2.10,Win32,60,61025ae37ef11b136ea224fe,,,,,,,,,3369,64,46,1,0,0,response1disk,,6,11,5,1,0,0,rectangle,28,-79,1,0,0,10,1,1,0,0,0,72,72,48,1,,response3disk_3,TRUE,4,4,"[145,293,191,157,52,304,35,27,205,91,249,134,234,77,73,286,223,93,88,170]",7.0795,rectangle
,,,,,,,,,,,,,FF,,,,,,,,2.0503,,,,,,,,,,,,,,,,,,,,,,60fb2cd6d4e01d29d28c7f36,610368944c5946437063b123,2021-07-30_04h49.52.292,Simcolourproject_2stim_asymm_v5,2020.2.10,Win32,60,61025ae37ef11b136ea224fe,,,,,,,,,844,32,50,1,0,0,response1disk,,7,9,-6,1,0,0,rectangle,9,-6,1,0,0,9,-6,1,0,0,0,73,73,5,1,,,,,,,,
,,,,,,,,,,,,,FF,,,,,,,,5.521,,,,,,,,,,,,,,,,,,,,,,60fb2cd6d4e01d29d28c7f36,610368944c5946437063b123,2021-07-30_04h49.52.292,Simcolourproject_2stim_asymm_v5,2020.2.10,Win32,60,61025ae37ef11b136ea224fe,,,,,,,,,3695,72,42,1,0,0,response1disk,,6,17,-6,1,0,0,rectangle,17,-6,1,0,0,17,-6,1,0,0,0,74,74,126,1,,,,,,,,
,,,,,,,,,,,,,FF,,,,,,,,1.9503,,,,,,,,,,,,,,,,,,,,,,60fb2cd6d4e01d29d28c7f36,610368944c5946437063b123,2021-07-30_04h49.52.292,Simcolourproject_2stim_asymm_v5,2020.2.10,Win32,60,61025ae37ef11b136ea224fe,,,,,,,,,1240,-43,-69,1,0,0,response5disk,,3,-8,12,1,0,0,rectangle,-8,12,1,0,0,-8,12,1,0,0,0,75,75,72,1,,,,,,,,
,,,,,,,,,,,,,FF,,,,,,,,2.9491,,,,,,,,,,,,,,,,,,,,,,60fb2cd6d4e01d29d28c7f36,610368944c5946437063b123,2021-07-30_04h49.52.292,Simcolourproject_2stim_asymm_v5,2020.2.10,Win32,60,61025ae37ef11b136ea224fe,,,,,,,,,305,61,36,1,0,0,response1disk,,6,8,-4,1,0,0,rectangle,-50,73,1,0,0,3,8,1,0,0,0,76,76,79,1,,response7disk_3,TRUE,0,0,"[145,293,191,157,52,304,35,27,205,91,249,134,234,77,73,286,223,93,88,170]",5.5334,rectangle
,,,,,,,,,,,,,FF,,,,,,,,3.4317,,,,,,,,,,,,,,,,,,,,,,60fb2cd6d4e01d29d28c7f36,610368944c5946437063b123,2021-07-30_04h49.52.292,Simcolourproject_2stim_asymm_v5,2020.2.10,Win32,60,61025ae37ef11b136ea224fe,,,,,,,,,97,79,45,1,0,0,response1disk,,6,18,4,1,0,0,rectangle,18,4,1,0,0,18,4,1,0,0,0,77,77,70,1,,,,,,,,
,,,,,,,,,,,,,FF,,,,,,,,1.6819,,,,,,,,,,,,,,,,,,,,,,60fb2cd6d4e01d29d28c7f36,610368944c5946437063b123,2021-07-30_04h49.52.292,Simcolourproject_2stim_asymm_v5,2020.2.10,Win32,60,61025ae37ef11b136ea224fe,,,,,,,,,73,48,74,1,0,0,response1disk,,7,-23,-12,1,0,0,rectangle,-23,-12,1,0,0,-23,-12,1,0,0,0,78,78,120,1,,,,,,,,
,,,,,,,,,,,,,FF,,,,,,,,2.1172,,,,,,,,,,,,,,,,,,,,,,60fb2cd6d4e01d29d28c7f36,610368944c5946437063b123,2021-07-30_04h49.52.292,Simcolourproject_2stim_asymm_v5,2020.2.10,Win32,60,61025ae37ef11b136ea224fe,,,,,,,,,3264,57,-27,1,0,0,response3disk,,5,20,-9,1,0,0,rectangle,20,-9,1,0,0,20,-9,1,0,0,0,79,79,73,1,,,,,,,,
,,,,,,,,,,,,,FF,,,,,,,,9.8848,,,,,,,,,,,,,,,,,,,,,,60fb2cd6d4e01d29d28c7f36,610368944c5946437063b123,2021-07-30_04h49.52.292,Simcolourproject_2stim_asymm_v5,2020.2.10,Win32,60,61025ae37ef11b136ea224fe,,,,,,,,,134,60,43,1,0,0,response1disk,,6,2,9,1,0,0,rectangle,2,9,1,0,0,2,9,1,0,0,0,80,80,133,1,,,,,,,,
,,,,,,,,,,,,,FF,,,,,,,,2.0359,,,,,,,,,,,,,,,,,,,,,,60fb2cd6d4e01d29d28c7f36,610368944c5946437063b123,2021-07-30_04h49.52.292,Simcolourproject_2stim_asymm_v5,2020.2.10,Win32,60,61025ae37ef11b136ea224fe,,,,,,,,,2926,81,43,1,0,0,response1disk,,6,24,6,1,0,0,rectangle,24,6,1,0,0,24,6,1,0,0,0,81,81,89,1,,,,,,,,
,,,,,,,,,,,,,FF,,,,,,,,1.7504,,,,,,,,,,,,,,,,,,,,,,60fb2cd6d4e01d29d28c7f36,610368944c5946437063b123,2021-07-30_04h49.52.292,Simcolourproject_2stim_asymm_v5,2020.2.10,Win32,60,61025ae37ef11b136ea224fe,,,,,,,,,4325,31,69,1,0,0,response1disk,,7,3,5,1,0,0,rectangle,3,5,1,0,0,3,5,1,0,0,0,82,82,0,1,,,,,,,,
,,,,,,,,,,,,,FF,,,,,,,,1.4523,,,,,,,,,,,,,,,,,,,,,,60fb2cd6d4e01d29d28c7f36,610368944c5946437063b123,2021-07-30_04h49.52.292,Simcolourproject_2stim_asymm_v5,2020.2.10,Win32,60,61025ae37ef11b136ea224fe,,,,,,,,,1323,37,63,1,0,0,response1disk,,7,20,15,1,0,0,rectangle,20,15,1,0,0,20,15,1,0,0,0,83,83,114,1,,,,,,,,
,,,,,,,,,,,,,FF,,,,,,,,1.8668,,,,,,,,,,,,,,,,,,,,,,60fb2cd6d4e01d29d28c7f36,610368944c5946437063b123,2021-07-30_04h49.52.292,Simcolourproject_2stim_asymm_v5,2020.2.10,Win32,60,61025ae37ef11b136ea224fe,,,,,,,,,1233,-32,-50,1,0,0,response5disk,,3,21,6,1,0,0,rectangle,21,6,1,0,0,21,6,1,0,0,0,84,84,67,1,,,,,,,,
,,,,,,,,,,,,,FF,,,,,,,,2.9997,,,,,,,,,,,,,,,,,,,,,,60fb2cd6d4e01d29d28c7f36,610368944c5946437063b123,2021-07-30_04h49.52.292,Simcolourproject_2stim_asymm_v5,2020.2.10,Win32,60,61025ae37ef11b136ea224fe,,,,,,,,,2249,-59,-39,1,0,0,response5disk,,2,-7,5,1,0,0,rectangle,-7,5,1,0,0,-7,5,1,0,0,0,85,85,7,1,,,,,,,,
,,,,,,,,,,,,,FF,,,,,,,,2.1202,,,,,,,,,,,,,,,,,,,,,,60fb2cd6d4e01d29d28c7f36,610368944c5946437063b123,2021-07-30_04h49.52.292,Simcolourproject_2stim_asymm_v5,2020.2.10,Win32,60,61025ae37ef11b136ea224fe,,,,,,,,,4074,66,42,1,0,0,response1disk,,6,23,-3,1,0,0,rectangle,23,-3,1,0,0,23,-3,1,0,0,0,86,86,91,1,,,,,,,,
,,,,,,,,,,,,,FF,,,,,,,,3.9995,,,,,,,,,,,,,,,,,,,,,,60fb2cd6d4e01d29d28c7f36,610368944c5946437063b123,2021-07-30_04h49.52.292,Simcolourproject_2stim_asymm_v5,2020.2.10,Win32,60,61025ae37ef11b136ea224fe,,,,,,,,,3577,49,-108,1,0,0,response3disk,,4,15,11,1,0,0,rectangle,-57,-43,1,0,0,0,-1,1,0,0,0,87,87,111,1,,response5disk_3,TRUE,2,3,"[145,293,191,157,52,304,35,27,205,91,249,134,234,77,73,286,223,93,88,170]",4.8829,rectangle
,,,,,,,,,,,,,FF,,,,,,,,1.5833,,,,,,,,,,,,,,,,,,,,,,60fb2cd6d4e01d29d28c7f36,610368944c5946437063b123,2021-07-30_04h49.52.292,Simcolourproject_2stim_asymm_v5,2020.2.10,Win32,60,61025ae37ef11b136ea224fe,,,,,,,,,3087,32,76,1,0,0,response1disk,,7,-1,5,1,0,0,rectangle,-1,5,1,0,0,-1,5,1,0,0,0,88,88,10,1,,,,,,,,
,,,,,,,,,,,,,FF,,,,,,,,3.5179,,,,,,,,,,,,,,,,,,,,,,60fb2cd6d4e01d29d28c7f36,610368944c5946437063b123,2021-07-30_04h49.52.292,Simcolourproject_2stim_asymm_v5,2020.2.10,Win32,60,61025ae37ef11b136ea224fe,,,,,,,,,3100,-70,-24,1,0,0,response5disk,,2,-20,1,1,0,0,rectangle,-20,1,1,0,0,-20,1,1,0,0,0,89,89,141,1,,,,,,,,
,,,,,,,,,,,,,FF,,,,,,,,1.9034,,,,,,,,,,,,,,,,,,,,,,60fb2cd6d4e01d29d28c7f36,610368944c5946437063b123,2021-07-30_04h49.52.292,Simcolourproject_2stim_asymm_v5,2020.2.10,Win32,60,61025ae37ef11b136ea224fe,,,,,,,,,919,35,-63,1,0,0,response3disk,,4,11,5,1,0,0,rectangle,-42,85,1,0,0,-1,7,1,0,0,0,90,90,85,1,,response7disk_3,TRUE,0,6,"[145,293,191,157,52,304,35,27,205,91,249,134,234,77,73,286,223,93,88,170]",2.9363,rectangle
,,,,,,,,,,,,,FF,,,,,,,,2.3194,,,,,,,,,,,,,,,,,,,,,,60fb2cd6d4e01d29d28c7f36,610368944c5946437063b123,2021-07-30_04h49.52.292,Simcolourproject_2stim_asymm_v5,2020.2.10,Win32,60,61025ae37ef11b136ea224fe,,,,,,,,,485,62,42,1,0,0,response1disk,,6,6,-13,1,0,0,rectangle,6,-13,1,0,0,6,-13,1,0,0,0,91,91,53,1,,,,,,,,
,,,,,,,,,,,,,FF,,,,,,,,2.5372,,,,,,,,,,,,,,,,,,,,,,60fb2cd6d4e01d29d28c7f36,610368944c5946437063b123,2021-07-30_04h49.52.292,Simcolourproject_2stim_asymm_v5,2020.2.10,Win32,60,61025ae37ef11b136ea224fe,,,,,,,,,2805,73,36,1,0,0,response1disk,,6,19,-1,1,0,0,rectangle,-21,80,1,0,0,-3,0,1,0,0,0,92,92,19,1,,response7disk_3,TRUE,0,6,"[145,293,191,157,52,304,35,27,205,91,249,134,234,77,73,286,223,93,88,170]",2.367,rectangle
,,,,,,,,,,,,,FF,,,,,,,,1.4858,,,,,,,,,,,,,,,,,,,,,,60fb2cd6d4e01d29d28c7f36,610368944c5946437063b123,2021-07-30_04h49.52.292,Simcolourproject_2stim_asymm_v5,2020.2.10,Win32,60,61025ae37ef11b136ea224fe,,,,,,,,,1465,62,38,1,0,0,response1disk,,6,-1,14,1,0,0,rectangle,-1,14,1,0,0,-1,14,1,0,0,0,93,93,2,1,,,,,,,,
,,,,,,,,,,,,,FF,,,,,,,,1.9363,,,,,,,,,,,,,,,,,,,,,,60fb2cd6d4e01d29d28c7f36,610368944c5946437063b123,2021-07-30_04h49.52.292,Simcolourproject_2stim_asymm_v5,2020.2.10,Win32,60,61025ae37ef11b136ea224fe,,,,,,,,,2351,57,72,1,0,0,response1disk,,7,13,6,1,0,0,rectangle,13,6,1,0,0,13,6,1,0,0,0,94,94,54,1,,,,,,,,
,,,,,,,,,,,,,FF,,,,,,,,1.7208,,,,,,,,,,,,,,,,,,,,,,60fb2cd6d4e01d29d28c7f36,610368944c5946437063b123,2021-07-30_04h49.52.292,Simcolourproject_2stim_asymm_v5,2020.2.10,Win32,60,61025ae37ef11b136ea224fe,,,,,,,,,838,32,-76,1,0,0,response3disk,,4,0,15,1,0,0,rectangle,0,15,1,0,0,0,15,1,0,0,0,95,95,153,1,,,,,,,,
,,,,,,,,,,,,,FF,,,,,,,,2.1351,,,,,,,,,,,,,,,,,,,,,,60fb2cd6d4e01d29d28c7f36,610368944c5946437063b123,2021-07-30_04h49.52.292,Simcolourproject_2stim_asymm_v5,2020.2.10,Win32,60,61025ae37ef11b136ea224fe,,,,,,,,,1216,62,48,1,0,0,response1disk,,6,10,6,1,0,0,rectangle,10,6,1,0,0,10,6,1,0,0,0,96,96,58,1,,,,,,,,
,,,,,,,,,,,,,FF,,,,,,,,1.3019,,,,,,,,,,,,,,,,,,,,,,60fb2cd6d4e01d29d28c7f36,610368944c5946437063b123,2021-07-30_04h49.52.292,Simcolourproject_2stim_asymm_v5,2020.2.10,Win32,60,61025ae37ef11b136ea224fe,,,,,,,,,4033,32,88,1,0,0,response1disk,,7,9,-7,1,0,0,rectangle,9,-7,1,0,0,9,-7,1,0,0,0,97,97,99,1,,,,,,,,
,,,,,,,,,,,,,FF,,,,,,,,2.1656,,,,,,,,,,,,,,,,,,,,,,60fb2cd6d4e01d29d28c7f36,610368944c5946437063b123,2021-07-30_04h49.52.292,Simcolourproject_2stim_asymm_v5,2020.2.10,Win32,60,61025ae37ef11b136ea224fe,,,,,,,,,3112,27,58,1,0,0,response1disk,,7,-4,2,1,0,0,rectangle,-4,2,1,0,0,-4,2,1,0,0,0,98,98,80,1,,,,,,,,
,,,,,,,,,,,,,FF,,,,,,,,1.9185,,,,,,,,,,,,,,,,,,,,,,60fb2cd6d4e01d29d28c7f36,610368944c5946437063b123,2021-07-30_04h49.52.292,Simcolourproject_2stim_asymm_v5,2020.2.10,Win32,60,61025ae37ef11b136ea224fe,,,,,,,,,970,-53,35,1,0,0,response7disk,,1,-27,8,1,0,0,rectangle,-27,8,1,0,0,-27,8,1,0,0,0,99,99,40,1,,,,,,,,
,,,,,,,,,,,,,FF,,,,,,,,1.2357,,,,,,,,,,,,,,,,,,,,,,60fb2cd6d4e01d29d28c7f36,610368944c5946437063b123,2021-07-30_04h49.52.292,Simcolourproject_2stim_asymm_v5,2020.2.10,Win32,60,61025ae37ef11b136ea224fe,,,,,,,,,1087,41,108,1,0,0,response1disk,,7,-1,9,1,0,0,rectangle,-1,9,1,0,0,-1,9,1,0,0,0,100,100,147,1,,,,,,,,
,,,,,,,,,,,,,FF,,,,,,,,1.7516,,,,,,,,,,,,,,,,,,,,,,60fb2cd6d4e01d29d28c7f36,610368944c5946437063b123,2021-07-30_04h49.52.292,Simcolourproject_2stim_asymm_v5,2020.2.10,Win32,60,61025ae37ef11b136ea224fe,,,,,,,,,251,89,42,1,0,0,response1disk,,6,23,6,1,0,0,rectangle,23,6,1,0,0,23,6,1,0,0,0,101,101,75,1,,,,,,,,
,,,,,,,,,,,,,FF,,,,,,,,1.9191,,,,,,,,,,,,,,,,,,,,,,60fb2cd6d4e01d29d28c7f36,610368944c5946437063b123,2021-07-30_04h49.52.292,Simcolourproject_2stim_asymm_v5,2020.2.10,Win32,60,61025ae37ef11b136ea224fe,,,,,,,,,3778,-58,-32,1,0,0,response5disk,,2,0,6,1,0,0,rectangle,0,6,1,0,0,0,6,1,0,0,0,102,102,82,1,,,,,,,,
,,,,,,,,,,,,,FF,,,,,,,,1.6872,,,,,,,,,,,,,,,,,,,,,,60fb2cd6d4e01d29d28c7f36,610368944c5946437063b123,2021-07-30_04h49.52.292,Simcolourproject_2stim_asymm_v5,2020.2.10,Win32,60,61025ae37ef11b136ea224fe,,,,,,,,,2423,-27,-41,1,0,0,response5disk,,3,8,8,1,0,0,rectangle,8,8,1,0,0,8,8,1,0,0,0,103,103,52,1,,,,,,,,
,,,,,,,,,,,,,FF,,,,,,,,1.4841,,,,,,,,,,,,,,,,,,,,,,60fb2cd6d4e01d29d28c7f36,610368944c5946437063b123,2021-07-30_04h49.52.292,Simcolourproject_2stim_asymm_v5,2020.2.10,Win32,60,61025ae37ef11b136ea224fe,,,,,,,,,1672,34,77,1,0,0,response1disk,,7,0,-7,1,0,0,rectangle,0,-7,1,0,0,0,-7,1,0,0,0,104,104,37,1,,,,,,,,
,,,,,,,,,,,,,FF,,,,,,,,1.7351,,,,,,,,,,,,,,,,,,,,,,60fb2cd6d4e01d29d28c7f36,610368944c5946437063b123,2021-07-30_04h49.52.292,Simcolourproject_2stim_asymm_v5,2020.2.10,Win32,60,61025ae37ef11b136ea224fe,,,,,,,,,2764,38,80,1,0,0,response1disk,,7,-1,-2,1,0,0,rectangle,-1,-2,1,0,0,-1,-2,1,0,0,0,105,105,109,1,,,,,,,,
,,,,,,,,,,,,,FF,,,,,,,,1.7194,,,,,,,,,,,,,,,,,,,,,,60fb2cd6d4e01d29d28c7f36,610368944c5946437063b123,2021-07-30_04h49.52.292,Simcolourproject_2stim_asymm_v5,2020.2.10,Win32,60,61025ae37ef11b136ea224fe,,,,,,,,,3168,29,59,1,0,0,response1disk,,7,-3,-5,1,0,0,rectangle,-3,-5,1,0,0,-3,-5,1,0,0,0,106,106,36,1,,,,,,,,
,,,,,,,,,,,,,FF,,,,,,,,3.9865,,,,,,,,,,,,,,,,,,,,,,60fb2cd6d4e01d29d28c7f36,610368944c5946437063b123,2021-07-30_04h49.52.292,Simcolourproject_2stim_asymm_v5,2020.2.10,Win32,60,61025ae37ef11b136ea224fe,,,,,,,,,1457,32,-45,1,0,0,response3disk,,4,3,7,1,0,0,rectangle,3,7,1,0,0,3,7,1,0,0,0,107,107,124,1,,,,,,,,
,,,,,,,,,,,,,FF,,,,,,,,1.735,,,,,,,,,,,,,,,,,,,,,,60fb2cd6d4e01d29d28c7f36,610368944c5946437063b123,2021-07-30_04h49.52.292,Simcolourproject_2stim_asymm_v5,2020.2.10,Win32,60,61025ae37ef11b136ea224fe,,,,,,,,,3643,75,46,1,0,0,response1disk,,6,13,-5,1,0,0,rectangle,13,-5,1,0,0,13,-5,1,0,0,0,108,108,115,1,,,,,,,,
,,,,,,,,,,,,,FF,,,,,,,,2.7182,,,,,,,,,,,,,,,,,,,,,,60fb2cd6d4e01d29d28c7f36,610368944c5946437063b123,2021-07-30_04h49.52.292,Simcolourproject_2stim_asymm_v5,2020.2.10,Win32,60,61025ae37ef11b136ea224fe,,,,,,,,,3651,41,81,1,0,0,response1disk,,7,5,1,1,0,0,rectangle,5,1,1,0,0,5,1,1,0,0,0,109,109,50,1,,,,,,,,
,,,,,,,,,,,,,FF,,,,,,,,1.4013,,,,,,,,,,,,,,,,,,,,,,60fb2cd6d4e01d29d28c7f36,610368944c5946437063b123,2021-07-30_04h49.52.292,Simcolourproject_2stim_asymm_v5,2020.2.10,Win32,60,61025ae37ef11b136ea224fe,,,,,,,,,1504,29,57,1,0,0,response1disk,,7,0,-9,1,0,0,rectangle,0,-9,1,0,0,0,-9,1,0,0,0,110,110,51,1,,,,,,,,
,,,,,,,,,,,,,FF,,,,,,,,2.2025,,,,,,,,,,,,,,,,,,,,,,60fb2cd6d4e01d29d28c7f36,610368944c5946437063b123,2021-07-30_04h49.52.292,Simcolourproject_2stim_asymm_v5,2020.2.10,Win32,60,61025ae37ef11b136ea224fe,,,,,,,,,1150,30,60,1,0,0,response1disk,,7,10,3,1,0,0,rectangle,10,3,1,0,0,10,3,1,0,0,0,111,111,143,1,,,,,,,,
,,,,,,,,,,,,,FF,,,,,,,,1.318,,,,,,,,,,,,,,,,,,,,,,60fb2cd6d4e01d29d28c7f36,610368944c5946437063b123,2021-07-30_04h49.52.292,Simcolourproject_2stim_asymm_v5,2020.2.10,Win32,60,61025ae37ef11b136ea224fe,,,,,,,,,2127,37,75,1,0,0,response1disk,,7,4,1,1,0,0,rectangle,4,1,1,0,0,4,1,1,0,0,0,112,112,26,1,,,,,,,,
,,,,,,,,,,,,,FF,,,,,,,,2.0539,,,,,,,,,,,,,,,,,,,,,,60fb2cd6d4e01d29d28c7f36,610368944c5946437063b123,2021-07-30_04h49.52.292,Simcolourproject_2stim_asymm_v5,2020.2.10,Win32,60,61025ae37ef11b136ea224fe,,,,,,,,,2317,27,73,1,0,0,response1disk,,7,10,4,1,0,0,rectangle,10,4,1,0,0,10,4,1,0,0,0,113,113,102,1,,,,,,,,
,,,,,,,,,,,,,FF,,,,,,,,2.1674,,,,,,,,,,,,,,,,,,,,,,60fb2cd6d4e01d29d28c7f36,610368944c5946437063b123,2021-07-30_04h49.52.292,Simcolourproject_2stim_asymm_v5,2020.2.10,Win32,60,61025ae37ef11b136ea224fe,,,,,,,,,160,61,29,1,0,0,response1disk,,6,-5,-13,1,0,0,rectangle,-5,-13,1,0,0,-5,-13,1,0,0,0,114,114,150,1,,,,,,,,
,,,,,,,,,,,,,FF,,,,,,,,1.5848,,,,,,,,,,,,,,,,,,,,,,60fb2cd6d4e01d29d28c7f36,610368944c5946437063b123,2021-07-30_04h49.52.292,Simcolourproject_2stim_asymm_v5,2020.2.10,Win32,60,61025ae37ef11b136ea224fe,,,,,,,,,1572,43,30,1,0,0,response1disk,,6,1,-5,1,0,0,rectangle,1,-5,1,0,0,1,-5,1,0,0,0,115,115,12,1,,,,,,,,
,,,,,,,,,,,,,FF,,,,,,,,2.2536,,,,,,,,,,,,,,,,,,,,,,60fb2cd6d4e01d29d28c7f36,610368944c5946437063b123,2021-07-30_04h49.52.292,Simcolourproject_2stim_asymm_v5,2020.2.10,Win32,60,61025ae37ef11b136ea224fe,,,,,,,,,1893,-77,44,1,0,0,response7disk,,1,-8,8,1,0,0,rectangle,-8,8,1,0,0,-8,8,1,0,0,0,116,116,22,1,,,,,,,,
,,,,,,,,,,,,,FF,,,,,,,,1.3688,,,,,,,,,,,,,,,,,,,,,,60fb2cd6d4e01d29d28c7f36,610368944c5946437063b123,2021-07-30_04h49.52.292,Simcolourproject_2stim_asymm_v5,2020.2.10,Win32,60,61025ae37ef11b136ea224fe,,,,,,,,,4322,62,80,1,0,0,response1disk,,7,1,-3,1,0,0,rectangle,1,-3,1,0,0,1,-3,1,0,0,0,117,117,43,1,,,,,,,,
,,,,,,,,,,,,,FF,,,,,,,,2.5182,,,,,,,,,,,,,,,,,,,,,,60fb2cd6d4e01d29d28c7f36,610368944c5946437063b123,2021-07-30_04h49.52.292,Simcolourproject_2stim_asymm_v5,2020.2.10,Win32,60,61025ae37ef11b136ea224fe,,,,,,,,,983,73,27,1,0,0,response1disk,,6,14,-12,1,0,0,rectangle,14,-12,1,0,0,14,-12,1,0,0,0,118,118,39,1,,,,,,,,
,,,,,,,,,,,,,FF,,,,,,,,1.2841,,,,,,,,,,,,,,,,,,,,,,60fb2cd6d4e01d29d28c7f36,610368944c5946437063b123,2021-07-30_04h49.52.292,Simcolourproject_2stim_asymm_v5,2020.2.10,Win32,60,61025ae37ef11b136ea224fe,,,,,,,,,3562,45,38,1,0,0,response1disk,,6,0,9,1,0,0,rectangle,0,9,1,0,0,0,9,1,0,0,0,119,119,64,1,,,,,,,,
,,,,,,,,,,,,,FF,,,,,,,,2.6532,,,,,,,,,,,,,,,,,,,,,,60fb2cd6d4e01d29d28c7f36,610368944c5946437063b123,2021-07-30_04h49.52.292,Simcolourproject_2stim_asymm_v5,2020.2.10,Win32,60,61025ae37ef11b136ea224fe,,,,,,,,,1275,46,66,1,0,0,response1disk,,7,23,8,1,0,0,rectangle,23,8,1,0,0,23,8,1,0,0,0,120,120,29,1,,,,,,,,
,,,,,,,,,,,,,FF,,,,,,,,1.5872,,,,,,,,,,,,,,,,,,,,,,60fb2cd6d4e01d29d28c7f36,610368944c5946437063b123,2021-07-30_04h49.52.292,Simcolourproject_2stim_asymm_v5,2020.2.10,Win32,60,61025ae37ef11b136ea224fe,,,,,,,,,1048,25,75,1,0,0,response1disk,,7,9,3,1,0,0,rectangle,9,3,1,0,0,9,3,1,0,0,0,121,121,62,1,,,,,,,,
,,,,,,,,,,,,,FF,,,,,,,,2.2865,,,,,,,,,,,,,,,,,,,,,,60fb2cd6d4e01d29d28c7f36,610368944c5946437063b123,2021-07-30_04h49.52.292,Simcolourproject_2stim_asymm_v5,2020.2.10,Win32,60,61025ae37ef11b136ea224fe,,,,,,,,,749,62,-18,1,0,0,response3disk,,5,16,-5,1,0,0,rectangle,16,-5,1,0,0,16,-5,1,0,0,0,122,122,142,1,,,,,,,,
,,,,,,,,,,,,,FF,,,,,,,,1.2194,,,,,,,,,,,,,,,,,,,,,,60fb2cd6d4e01d29d28c7f36,610368944c5946437063b123,2021-07-30_04h49.52.292,Simcolourproject_2stim_asymm_v5,2020.2.10,Win32,60,61025ae37ef11b136ea224fe,,,,,,,,,619,26,64,1,0,0,response1disk,,7,-12,-3,1,0,0,rectangle,-12,-3,1,0,0,-12,-3,1,0,0,0,123,123,118,1,,,,,,,,
,,,,,,,,,,,,,FF,,,,,,,,1.4344,,,,,,,,,,,,,,,,,,,,,,60fb2cd6d4e01d29d28c7f36,610368944c5946437063b123,2021-07-30_04h49.52.292,Simcolourproject_2stim_asymm_v5,2020.2.10,Win32,60,61025ae37ef11b136ea224fe,,,,,,,,,1878,27,58,1,0,0,response1disk,,7,12,-4,1,0,0,rectangle,12,-4,1,0,0,12,-4,1,0,0,0,124,124,116,1,,,,,,,,
,,,,,,,,,,,,,FF,,,,,,,,1.6671,,,,,,,,,,,,,,,,,,,,,,60fb2cd6d4e01d29d28c7f36,610368944c5946437063b123,2021-07-30_04h49.52.292,Simcolourproject_2stim_asymm_v5,2020.2.10,Win32,60,61025ae37ef11b136ea224fe,,,,,,,,,881,37,75,1,0,0,response1disk,,7,4,6,1,0,0,rectangle,4,6,1,0,0,4,6,1,0,0,0,125,125,125,1,,,,,,,,
,,,,,,,,,,,,,FF,,,,,,,,1.202,,,,,,,,,,,,,,,,,,,,,,60fb2cd6d4e01d29d28c7f36,610368944c5946437063b123,2021-07-30_04h49.52.292,Simcolourproject_2stim_asymm_v5,2020.2.10,Win32,60,61025ae37ef11b136ea224fe,,,,,,,,,2790,29,68,1,0,0,response1disk,,7,1,4,1,0,0,rectangle,1,4,1,0,0,1,4,1,0,0,0,126,126,20,1,,,,,,,,
,,,,,,,,,,,,,FF,,,,,,,,2.4195,,,,,,,,,,,,,,,,,,,,,,60fb2cd6d4e01d29d28c7f36,610368944c5946437063b123,2021-07-30_04h49.52.292,Simcolourproject_2stim_asymm_v5,2020.2.10,Win32,60,61025ae37ef11b136ea224fe,,,,,,,,,3150,44,-25,1,0,0,response3disk,,5,4,-5,1,0,0,rectangle,4,-5,1,0,0,4,-5,1,0,0,0,127,127,152,1,,,,,,,,
,,,,,,,,,,,,,FF,,,,,,,,1.4678,,,,,,,,,,,,,,,,,,,,,,60fb2cd6d4e01d29d28c7f36,610368944c5946437063b123,2021-07-30_04h49.52.292,Simcolourproject_2stim_asymm_v5,2020.2.10,Win32,60,61025ae37ef11b136ea224fe,,,,,,,,,1580,21,58,1,0,0,response1disk,,7,2,-2,1,0,0,rectangle,2,-2,1,0,0,2,-2,1,0,0,0,128,128,69,1,,,,,,,,
,,,,,,,,,,,,,FF,,,,,,,,1.2321,,,,,,,,,,,,,,,,,,,,,,60fb2cd6d4e01d29d28c7f36,610368944c5946437063b123,2021-07-30_04h49.52.292,Simcolourproject_2stim_asymm_v5,2020.2.10,Win32,60,61025ae37ef11b136ea224fe,,,,,,,,,3994,41,73,1,0,0,response1disk,,7,9,3,1,0,0,rectangle,9,3,1,0,0,9,3,1,0,0,0,129,129,76,1,,,,,,,,
,,,,,,,,,,,,,FF,,,,,,,,2.0884,,,,,,,,,,,,,,,,,,,,,,60fb2cd6d4e01d29d28c7f36,610368944c5946437063b123,2021-07-30_04h49.52.292,Simcolourproject_2stim_asymm_v5,2020.2.10,Win32,60,61025ae37ef11b136ea224fe,,,,,,,,,3819,52,36,1,0,0,response1disk,,6,14,9,1,0,0,rectangle,14,9,1,0,0,14,9,1,0,0,0,130,130,27,1,,,,,,,,
,,,,,,,,,,,,,FF,,,,,,,,2.3019,,,,,,,,,,,,,,,,,,,,,,60fb2cd6d4e01d29d28c7f36,610368944c5946437063b123,2021-07-30_04h49.52.292,Simcolourproject_2stim_asymm_v5,2020.2.10,Win32,60,61025ae37ef11b136ea224fe,,,,,,,,,3707,-44,82,1,0,0,response7disk,,0,-16,-3,1,0,0,rectangle,-16,-3,1,0,0,-16,-3,1,0,0,0,131,131,9,1,,,,,,,,
,,,,,,,,,,,,,FF,,,,,,,,2.555,,,,,,,,,,,,,,,,,,,,,,60fb2cd6d4e01d29d28c7f36,610368944c5946437063b123,2021-07-30_04h49.52.292,Simcolourproject_2stim_asymm_v5,2020.2.10,Win32,60,61025ae37ef11b136ea224fe,,,,,,,,,4287,30,58,1,0,0,response1disk,,7,1,13,1,0,0,rectangle,1,13,1,0,0,1,13,1,0,0,0,132,132,87,1,,,,,,,,
,,,,,,,,,,,,,FF,,,,,,,,1.8511,,,,,,,,,,,,,,,,,,,,,,60fb2cd6d4e01d29d28c7f36,610368944c5946437063b123,2021-07-30_04h49.52.292,Simcolourproject_2stim_asymm_v5,2020.2.10,Win32,60,61025ae37ef11b136ea224fe,,,,,,,,,2096,58,31,1,0,0,response1disk,,6,13,-3,1,0,0,rectangle,-73,34,1,0,0,-9,-4,1,0,0,0,133,133,34,1,,response7disk_3,TRUE,1,1,"[145,293,191,157,52,304,35,27,205,91,249,134,234,77,73,286,223,93,88,170]",5.0826,rectangle
,,,,,,,,,,,,,FF,,,,,,,,1.6668,,,,,,,,,,,,,,,,,,,,,,60fb2cd6d4e01d29d28c7f36,610368944c5946437063b123,2021-07-30_04h49.52.292,Simcolourproject_2stim_asymm_v5,2020.2.10,Win32,60,61025ae37ef11b136ea224fe,,,,,,,,,3104,25,-70,1,0,0,response3disk,,4,5,11,1,0,0,rectangle,5,11,1,0,0,5,11,1,0,0,0,134,134,17,1,,,,,,,,
,,,,,,,,,,,,,FF,,,,,,,,2.5349,,,,,,,,,,,,,,,,,,,,,,60fb2cd6d4e01d29d28c7f36,610368944c5946437063b123,2021-07-30_04h49.52.292,Simcolourproject_2stim_asymm_v5,2020.2.10,Win32,60,61025ae37ef11b136ea224fe,,,,,,,,,2879,46,-28,1,0,0,response3disk,,5,15,-7,1,0,0,rectangle,15,-7,1,0,0,15,-7,1,0,0,0,135,135,100,1,,,,,,,,
,,,,,,,,,,,,,FF,,,,,,,,1.9705,,,,,,,,,,,,,,,,,,,,,,60fb2cd6d4e01d29d28c7f36,610368944c5946437063b123,2021-07-30_04h49.52.292,Simcolourproject_2stim_asymm_v5,2020.2.10,Win32,60,61025ae37ef11b136ea224fe,,,,,,,,,4221,33,60,1,0,0,response1disk,,7,14,0,1,0,0,rectangle,14,0,1,0,0,14,0,1,0,0,0,136,136,140,1,,,,,,,,
,,,,,,,,,,,,,FF,,,,,,,,1.3361,,,,,,,,,,,,,,,,,,,,,,60fb2cd6d4e01d29d28c7f36,610368944c5946437063b123,2021-07-30_04h49.52.292,Simcolourproject_2stim_asymm_v5,2020.2.10,Win32,60,61025ae37ef11b136ea224fe,,,,,,,,,2121,55,35,1,0,0,response1disk,,6,18,0,1,0,0,rectangle,18,0,1,0,0,18,0,1,0,0,0,137,137,95,1,,,,,,,,
,,,,,,,,,,,,,FF,,,,,,,,2.519,,,,,,,,,,,,,,,,,,,,,,60fb2cd6d4e01d29d28c7f36,610368944c5946437063b123,2021-07-30_04h49.52.292,Simcolourproject_2stim_asymm_v5,2020.2.10,Win32,60,61025ae37ef11b136ea224fe,,,,,,,,,502,18,61,1,0,0,response1disk,,7,1,-3,1,0,0,rectangle,1,-3,1,0,0,1,-3,1,0,0,0,138,138,3,1,,,,,,,,
,,,,,,,,,,,,,FF,,,,,,,,1.4861,,,,,,,,,,,,,,,,,,,,,,60fb2cd6d4e01d29d28c7f36,610368944c5946437063b123,2021-07-30_04h49.52.292,Simcolourproject_2stim_asymm_v5,2020.2.10,Win32,60,61025ae37ef11b136ea224fe,,,,,,,,,3055,42,63,1,0,0,response1disk,,7,21,4,1,0,0,rectangle,21,4,1,0,0,21,4,1,0,0,0,139,139,90,1,,,,,,,,
,,,,,,,,,,,,,FF,,,,,,,,1.1852,,,,,,,,,,,,,,,,,,,,,,60fb2cd6d4e01d29d28c7f36,610368944c5946437063b123,2021-07-30_04h49.52.292,Simcolourproject_2stim_asymm_v5,2020.2.10,Win32,60,61025ae37ef11b136ea224fe,,,,,,,,,514,30,58,1,0,0,response1disk,,7,16,8,1,0,0,rectangle,16,8,1,0,0,16,8,1,0,0,0,140,140,93,1,,,,,,,,
,,,,,,,,,,,,,FF,,,,,,,,1.2183,,,,,,,,,,,,,,,,,,,,,,60fb2cd6d4e01d29d28c7f36,610368944c5946437063b123,2021-07-30_04h49.52.292,Simcolourproject_2stim_asymm_v5,2020.2.10,Win32,60,61025ae37ef11b136ea224fe,,,,,,,,,2015,21,57,1,0,0,response1disk,,7,8,-4,1,0,0,rectangle,8,-4,1,0,0,8,-4,1,0,0,0,141,141,128,1,,,,,,,,
,,,,,,,,,,,,,FF,,,,,,,,1.486,,,,,,,,,,,,,,,,,,,,,,60fb2cd6d4e01d29d28c7f36,610368944c5946437063b123,2021-07-30_04h49.52.292,Simcolourproject_2stim_asymm_v5,2020.2.10,Win32,60,61025ae37ef11b136ea224fe,,,,,,,,,2263,55,28,1,0,0,response1disk,,6,10,6,1,0,0,rectangle,10,6,1,0,0,10,6,1,0,0,0,142,142,123,1,,,,,,,,
,,,,,,,,,,,,,FF,,,,,,,,1.154,,,,,,,,,,,,,,,,,,,,,,60fb2cd6d4e01d29d28c7f36,610368944c5946437063b123,2021-07-30_04h49.52.292,Simcolourproject_2stim_asymm_v5,2020.2.10,Win32,60,61025ae37ef11b136ea224fe,,,,,,,,,2861,33,60,1,0,0,response1disk,,7,18,9,1,0,0,rectangle,18,9,1,0,0,18,9,1,0,0,0,143,143,81,1,,,,,,,,
,,,,,,,,,,,,,FF,,,,,,,,2.4006,,,,,,,,,,,,,,,,,,,,,,60fb2cd6d4e01d29d28c7f36,610368944c5946437063b123,2021-07-30_04h49.52.292,Simcolourproject_2stim_asymm_v5,2020.2.10,Win32,60,61025ae37ef11b136ea224fe,,,,,,,,,1134,38,29,1,0,0,response1disk,,6,-5,-5,1,0,0,rectangle,-40,67,1,0,0,-1,10,1,0,0,0,144,144,68,1,,response7disk_3,TRUE,0,5,"[145,293,191,157,52,304,35,27,205,91,249,134,234,77,73,286,223,93,88,170]",2.0649,rectangle
,,,,,,,,,,,,,FF,,,,,,,,1.5008,,,,,,,,,,,,,,,,,,,,,,60fb2cd6d4e01d29d28c7f36,610368944c5946437063b123,2021-07-30_04h49.52.292,Simcolourproject_2stim_asymm_v5,2020.2.10,Win32,60,61025ae37ef11b136ea224fe,,,,,,,,,4303,41,29,1,0,0,response1disk,,6,8,-2,1,0,0,rectangle,8,-2,1,0,0,8,-2,1,0,0,0,145,145,127,1,,,,,,,,
,,,,,,,,,,,,,FF,,,,,,,,1.1678,,,,,,,,,,,,,,,,,,,,,,60fb2cd6d4e01d29d28c7f36,610368944c5946437063b123,2021-07-30_04h49.52.292,Simcolourproject_2stim_asymm_v5,2020.2.10,Win32,60,61025ae37ef11b136ea224fe,,,,,,,,,3317,23,60,1,0,0,response1disk,,7,11,-1,1,0,0,rectangle,11,-1,1,0,0,11,-1,1,0,0,0,146,146,94,1,,,,,,,,
,,,,,,,,,,,,,FF,,,,,,,,1.1178,,,,,,,,,,,,,,,,,,,,,,60fb2cd6d4e01d29d28c7f36,610368944c5946437063b123,2021-07-30_04h49.52.292,Simcolourproject_2stim_asymm_v5,2020.2.10,Win32,60,61025ae37ef11b136ea224fe,,,,,,,,,2145,38,57,1,0,0,response1disk,,7,22,-3,1,0,0,rectangle,22,-3,1,0,0,22,-3,1,0,0,0,147,147,46,1,,,,,,,,
,,,,,,,,,,,,,FF,,,,,,,,1.0176,,,,,,,,,,,,,,,,,,,,,,60fb2cd6d4e01d29d28c7f36,610368944c5946437063b123,2021-07-30_04h49.52.292,Simcolourproject_2stim_asymm_v5,2020.2.10,Win32,60,61025ae37ef11b136ea224fe,,,,,,,,,2052,22,54,1,0,0,response1disk,,7,12,-5,1,0,0,rectangle,12,-5,1,0,0,12,-5,1,0,0,0,148,148,154,1,,,,,,,,
,,,,,,,,,,,,,FF,,,,,,,,1.5011,,,,,,,,,,,,,,,,,,,,,,60fb2cd6d4e01d29d28c7f36,610368944c5946437063b123,2021-07-30_04h49.52.292,Simcolourproject_2stim_asymm_v5,2020.2.10,Win32,60,61025ae37ef11b136ea224fe,,,,,,,,,500,36,53,1,0,0,response1disk,,7,20,13,1,0,0,rectangle,20,13,1,0,0,20,13,1,0,0,0,149,149,8,1,,,,,,,,
,,,,,,,,,,,,,FF,,,,,,,,1.8513,,,,,,,,,,,,,,,,,,,,,,60fb2cd6d4e01d29d28c7f36,610368944c5946437063b123,2021-07-30_04h49.52.292,Simcolourproject_2stim_asymm_v5,2020.2.10,Win32,60,61025ae37ef11b136ea224fe,,,,,,,,,3295,42,24,1,0,0,response1disk,,6,9,-3,1,0,0,rectangle,9,-3,1,0,0,9,-3,1,0,0,0,150,150,60,1,,,,,,,,
,,,,,,,,,,,,,FF,,,,,,,,1.1534,,,,,,,,,,,,,,,,,,,,,,60fb2cd6d4e01d29d28c7f36,610368944c5946437063b123,2021-07-30_04h49.52.292,Simcolourproject_2stim_asymm_v5,2020.2.10,Win32,60,61025ae37ef11b136ea224fe,,,,,,,,,3584,24,54,1,0,0,response1disk,,7,10,4,1,0,0,rectangle,10,4,1,0,0,10,4,1,0,0,0,151,151,117,1,,,,,,,,
,,,,,,,,,,,,,FF,,,,,,,,1.0834,,,,,,,,,,,,,,,,,,,,,,60fb2cd6d4e01d29d28c7f36,610368944c5946437063b123,2021-07-30_04h49.52.292,Simcolourproject_2stim_asymm_v5,2020.2.10,Win32,60,61025ae37ef11b136ea224fe,,,,,,,,,501,29,54,1,0,0,response1disk,,7,18,4,1,0,0,rectangle,18,4,1,0,0,18,4,1,0,0,0,152,152,78,1,,,,,,,,
,,,,,,,,,,,,,FF,,,,,,,,1.0849,,,,,,,,,,,,,,,,,,,,,,60fb2cd6d4e01d29d28c7f36,610368944c5946437063b123,2021-07-30_04h49.52.292,Simcolourproject_2stim_asymm_v5,2020.2.10,Win32,60,61025ae37ef11b136ea224fe,,,,,,,,,3004,42,63,1,0,0,response1disk,,7,-4,-7,1,0,0,rectangle,-4,-7,1,0,0,-4,-7,1,0,0,0,153,153,16,1,,,,,,,,
,,,,,,,,,,,,,FF,,,,,,,,1.5367,,,,,,,,,,,,,,,,,,,,,,60fb2cd6d4e01d29d28c7f36,610368944c5946437063b123,2021-07-30_04h49.52.292,Simcolourproject_2stim_asymm_v5,2020.2.10,Win32,60,61025ae37ef11b136ea224fe,,,,,,,,,2559,23,46,1,0,0,response1disk,,7,7,-14,1,0,0,rectangle,7,-14,1,0,0,7,-14,1,0,0,0,154,154,92,1,,,,,,,,
,,,,,,,,,,,,,FF,,,,,,,,1.3674,,,,,,,,,,,,,,,,,,,,,,60fb2cd6d4e01d29d28c7f36,610368944c5946437063b123,2021-07-30_04h49.52.292,Simcolourproject_2stim_asymm_v5,2020.2.10,Win32,60,61025ae37ef11b136ea224fe,,,,,,,,,3597,53,29,1,0,0,response1disk,,6,18,12,1,0,0,rectangle,18,12,1,0,0,18,12,1,0,0,0,155,155,77,1,,,,,,,,
,,,,,,,,,,,,,FF,,,,,,,,2.1153,,,,,,,,,,,,,,,,,,,,,,60fb2cd6d4e01d29d28c7f36,610368944c5946437063b123,2021-07-30_04h49.52.292,Simcolourproject_2stim_asymm_v5,2020.2.10,Win32,60,61025ae37ef11b136ea224fe,,,,,,,,,3118,52,-31,1,0,0,response3disk,,5,15,3,1,0,0,rectangle,-33,78,1,0,0,-9,-3,1,0,0,0,156,156,61,1,,response7disk_3,TRUE,0,0,"[145,293,191,157,52,304,35,27,205,91,249,134,234,77,73,286,223,93,88,170]",1.7992,rectangle
,,,,,,,,,,,,,FF,,,,,,,,1.785,,,,,,,,,,,,,,,,,,,,,,60fb2cd6d4e01d29d28c7f36,610368944c5946437063b123,2021-07-30_04h49.52.292,Simcolourproject_2stim_asymm_v5,2020.2.10,Win32,60,61025ae37ef11b136ea224fe,,,,,,,,,2379,46,29,1,0,0,response1disk,,6,2,9,1,0,0,rectangle,2,9,1,0,0,2,9,1,0,0,0,157,157,33,1,,,,,,,,
,,,,,,,,,,,,,FF,,,,,,,,1.866,,,,,,,,,,,,,,,,,,,,,,60fb2cd6d4e01d29d28c7f36,610368944c5946437063b123,2021-07-30_04h49.52.292,Simcolourproject_2stim_asymm_v5,2020.2.10,Win32,60,61025ae37ef11b136ea224fe,,,,,,,,,119,28,57,1,0,0,response1disk,,7,7,-7,1,0,0,rectangle,7,-7,1,0,0,7,-7,1,0,0,0,158,158,23,1,,,,,,,,
,,,,,,,,,,,,,FF,,,,,,,,3.4674,,,,,,,,,,,,,,,,,,,,,,60fb2cd6d4e01d29d28c7f36,610368944c5946437063b123,2021-07-30_04h49.52.292,Simcolourproject_2stim_asymm_v5,2020.2.10,Win32,60,61025ae37ef11b136ea224fe,,,,,,,,,3509,54,47,1,0,0,response1disk,,6,-9,1,1,0,0,rectangle,-9,1,1,0,0,-9,1,1,0,0,0,159,159,103,1,,,,,,,,
,,,,,,,,,,,,,FF,,,,,,,,1.7537,,,,,,,,,,,,,,,,,,,,,,60fb2cd6d4e01d29d28c7f36,610368944c5946437063b123,2021-07-30_04h49.52.292,Simcolourproject_2stim_asymm_v5,2020.2.10,Win32,60,61025ae37ef11b136ea224fe,,,,,,,,,1864,35,48,1,0,0,response1disk,,7,18,0,1,0,0,rectangle,18,0,1,0,0,18,0,1,0,0,1,0,160,115,1,,,,,,,,
,,,,,,,,,,,,,FF,,,,,,,,1.6692,,,,,,,,,,,,,,,,,,,,,,60fb2cd6d4e01d29d28c7f36,610368944c5946437063b123,2021-07-30_04h49.52.292,Simcolourproject_2stim_asymm_v5,2020.2.10,Win32,60,61025ae37ef11b136ea224fe,,,,,,,,,2075,24,43,1,0,0,response1disk,,7,14,15,1,0,0,rectangle,14,15,1,0,0,14,15,1,0,0,1,1,161,10,1,,,,,,,,
,,,,,,,,,,,,,FF,,,,,,,,2.5651,,,,,,,,,,,,,,,,,,,,,,60fb2cd6d4e01d29d28c7f36,610368944c5946437063b123,2021-07-30_04h49.52.292,Simcolourproject_2stim_asymm_v5,2020.2.10,Win32,60,61025ae37ef11b136ea224fe,,,,,,,,,3059,26,-51,1,0,0,response3disk,,4,14,9,1,0,0,rectangle,14,9,1,0,0,14,9,1,0,0,1,2,162,95,1,,,,,,,,
,,,,,,,,,,,,,FF,,,,,,,,1.6758,,,,,,,,,,,,,,,,,,,,,,60fb2cd6d4e01d29d28c7f36,610368944c5946437063b123,2021-07-30_04h49.52.292,Simcolourproject_2stim_asymm_v5,2020.2.10,Win32,60,61025ae37ef11b136ea224fe,,,,,,,,,3058,31,43,1,0,0,response1disk,,7,6,-4,1,0,0,rectangle,6,-4,1,0,0,6,-4,1,0,0,1,3,163,23,1,,,,,,,,
,,,,,,,,,,,,,FF,,,,,,,,1.3355,,,,,,,,,,,,,,,,,,,,,,60fb2cd6d4e01d29d28c7f36,610368944c5946437063b123,2021-07-30_04h49.52.292,Simcolourproject_2stim_asymm_v5,2020.2.10,Win32,60,61025ae37ef11b136ea224fe,,,,,,,,,3803,27,38,1,0,0,response1disk,,7,5,-2,1,0,0,rectangle,5,-2,1,0,0,5,-2,1,0,0,1,4,164,26,1,,,,,,,,
,,,,,,,,,,,,,FF,,,,,,,,1.1002,,,,,,,,,,,,,,,,,,,,,,60fb2cd6d4e01d29d28c7f36,610368944c5946437063b123,2021-07-30_04h49.52.292,Simcolourproject_2stim_asymm_v5,2020.2.10,Win32,60,61025ae37ef11b136ea224fe,,,,,,,,,3121,26,53,1,0,0,response1disk,,7,-2,-4,1,0,0,rectangle,-2,-4,1,0,0,-2,-4,1,0,0,1,5,165,51,1,,,,,,,,
,,,,,,,,,,,,,FF,,,,,,,,2.0864,,,,,,,,,,,,,,,,,,,,,,60fb2cd6d4e01d29d28c7f36,610368944c5946437063b123,2021-07-30_04h49.52.292,Simcolourproject_2stim_asymm_v5,2020.2.10,Win32,60,61025ae37ef11b136ea224fe,,,,,,,,,3552,-78,-33,1,0,0,response5disk,,2,-10,7,1,0,0,rectangle,-10,7,1,0,0,-10,7,1,0,0,1,6,166,9,1,,,,,,,,
,,,,,,,,,,,,,FF,,,,,,,,1.2023,,,,,,,,,,,,,,,,,,,,,,60fb2cd6d4e01d29d28c7f36,610368944c5946437063b123,2021-07-30_04h49.52.292,Simcolourproject_2stim_asymm_v5,2020.2.10,Win32,60,61025ae37ef11b136ea224fe,,,,,,,,,289,38,61,1,0,0,response1disk,,7,-1,5,1,0,0,rectangle,-1,5,1,0,0,-1,5,1,0,0,1,7,167,152,1,,,,,,,,
,,,,,,,,,,,,,FF,,,,,,,,1.0496,,,,,,,,,,,,,,,,,,,,,,60fb2cd6d4e01d29d28c7f36,610368944c5946437063b123,2021-07-30_04h49.52.292,Simcolourproject_2stim_asymm_v5,2020.2.10,Win32,60,61025ae37ef11b136ea224fe,,,,,,,,,3738,30,55,1,0,0,response1disk,,7,-6,2,1,0,0,rectangle,-6,2,1,0,0,-6,2,1,0,0,1,8,168,73,1,,,,,,,,
,,,,,,,,,,,,,FF,,,,,,,,2.3009,,,,,,,,,,,,,,,,,,,,,,60fb2cd6d4e01d29d28c7f36,610368944c5946437063b123,2021-07-30_04h49.52.292,Simcolourproject_2stim_asymm_v5,2020.2.10,Win32,60,61025ae37ef11b136ea224fe,,,,,,,,,2238,41,36,1,0,0,response1disk,,6,7,-1,1,0,0,rectangle,-30,67,1,0,0,-6,3,1,0,0,1,9,169,60,1,,response7disk_3,TRUE,0,7,"[145,293,191,157,52,304,35,27,205,91,249,134,234,77,73,286,223,93,88,170]",2.0322,rectangle
,,,,,,,,,,,,,FF,,,,,,,,2.4022,,,,,,,,,,,,,,,,,,,,,,60fb2cd6d4e01d29d28c7f36,610368944c5946437063b123,2021-07-30_04h49.52.292,Simcolourproject_2stim_asymm_v5,2020.2.10,Win32,60,61025ae37ef11b136ea224fe,,,,,,,,,462,-29,-39,1,0,0,response5disk,,3,5,15,1,0,0,rectangle,5,15,1,0,0,5,15,1,0,0,1,10,170,138,1,,,,,,,,
,,,,,,,,,,,,,FF,,,,,,,,2.0685,,,,,,,,,,,,,,,,,,,,,,60fb2cd6d4e01d29d28c7f36,610368944c5946437063b123,2021-07-30_04h49.52.292,Simcolourproject_2stim_asymm_v5,2020.2.10,Win32,60,61025ae37ef11b136ea224fe,,,,,,,,,769,60,-33,1,0,0,response3disk,,5,2,-4,1,0,0,rectangle,2,-4,1,0,0,2,-4,1,0,0,1,11,171,34,1,,,,,,,,
,,,,,,,,,,,,,FF,,,,,,,,2.7372,,,,,,,,,,,,,,,,,,,,,,60fb2cd6d4e01d29d28c7f36,610368944c5946437063b123,2021-07-30_04h49.52.292,Simcolourproject_2stim_asymm_v5,2020.2.10,Win32,60,61025ae37ef11b136ea224fe,,,,,,,,,1392,23,-56,1,0,0,response3disk,,4,-3,13,1,0,0,rectangle,-3,13,1,0,0,-3,13,1,0,0,1,12,172,35,1,,,,,,,,
,,,,,,,,,,,,,FF,,,,,,,,1.2327,,,,,,,,,,,,,,,,,,,,,,60fb2cd6d4e01d29d28c7f36,610368944c5946437063b123,2021-07-30_04h49.52.292,Simcolourproject_2stim_asymm_v5,2020.2.10,Win32,60,61025ae37ef11b136ea224fe,,,,,,,,,4216,29,69,1,0,0,response1disk,,7,-4,5,1,0,0,rectangle,-4,5,1,0,0,-4,5,1,0,0,1,13,173,130,1,,,,,,,,
,,,,,,,,,,,,,FF,,,,,,,,1.4693,,,,,,,,,,,,,,,,,,,,,,60fb2cd6d4e01d29d28c7f36,610368944c5946437063b123,2021-07-30_04h49.52.292,Simcolourproject_2stim_asymm_v5,2020.2.10,Win32,60,61025ae37ef11b136ea224fe,,,,,,,,,3797,24,54,1,0,0,response1disk,,7,8,0,1,0,0,rectangle,8,0,1,0,0,8,0,1,0,0,1,14,174,123,1,,,,,,,,
,,,,,,,,,,,,,FF,,,,,,,,1.7522,,,,,,,,,,,,,,,,,,,,,,60fb2cd6d4e01d29d28c7f36,610368944c5946437063b123,2021-07-30_04h49.52.292,Simcolourproject_2stim_asymm_v5,2020.2.10,Win32,60,61025ae37ef11b136ea224fe,,,,,,,,,895,65,31,1,0,0,response1disk,,6,26,2,1,0,0,rectangle,26,2,1,0,0,26,2,1,0,0,1,15,175,75,1,,,,,,,,
,,,,,,,,,,,,,FF,,,,,,,,1.5186,,,,,,,,,,,,,,,,,,,,,,60fb2cd6d4e01d29d28c7f36,610368944c5946437063b123,2021-07-30_04h49.52.292,Simcolourproject_2stim_asymm_v5,2020.2.10,Win32,60,61025ae37ef11b136ea224fe,,,,,,,,,1319,34,-51,1,0,0,response3disk,,4,14,11,1,0,0,rectangle,14,11,1,0,0,14,11,1,0,0,1,16,176,120,1,,,,,,,,
,,,,,,,,,,,,,FF,,,,,,,,2.3178,,,,,,,,,,,,,,,,,,,,,,60fb2cd6d4e01d29d28c7f36,610368944c5946437063b123,2021-07-30_04h49.52.292,Simcolourproject_2stim_asymm_v5,2020.2.10,Win32,60,61025ae37ef11b136ea224fe,,,,,,,,,2399,-36,-57,1,0,0,response5disk,,3,-8,3,1,0,0,rectangle,-8,3,1,0,0,-8,3,1,0,0,1,17,177,159,1,,,,,,,,
,,,,,,,,,,,,,FF,,,,,,,,1.217,,,,,,,,,,,,,,,,,,,,,,60fb2cd6d4e01d29d28c7f36,610368944c5946437063b123,2021-07-30_04h49.52.292,Simcolourproject_2stim_asymm_v5,2020.2.10,Win32,60,61025ae37ef11b136ea224fe,,,,,,,,,1316,27,52,1,0,0,response1disk,,7,5,-7,1,0,0,rectangle,5,-7,1,0,0,5,-7,1,0,0,1,18,178,124,1,,,,,,,,
,,,,,,,,,,,,,FF,,,,,,,,1.4379,,,,,,,,,,,,,,,,,,,,,,60fb2cd6d4e01d29d28c7f36,610368944c5946437063b123,2021-07-30_04h49.52.292,Simcolourproject_2stim_asymm_v5,2020.2.10,Win32,60,61025ae37ef11b136ea224fe,,,,,,,,,308,29,51,1,0,0,response1disk,,7,7,3,1,0,0,rectangle,7,3,1,0,0,7,3,1,0,0,1,19,179,101,1,,,,,,,,
,,,,,,,,,,,,,FF,,,,,,,,2.0884,,,,,,,,,,,,,,,,,,,,,,60fb2cd6d4e01d29d28c7f36,610368944c5946437063b123,2021-07-30_04h49.52.292,Simcolourproject_2stim_asymm_v5,2020.2.10,Win32,60,61025ae37ef11b136ea224fe,,,,,,,,,3431,16,30,1,0,0,response1disk,,7,2,8,1,0,0,rectangle,2,8,1,0,0,2,8,1,0,0,1,20,180,146,1,,,,,,,,
,,,,,,,,,,,,,FF,,,,,,,,1.1211,,,,,,,,,,,,,,,,,,,,,,60fb2cd6d4e01d29d28c7f36,610368944c5946437063b123,2021-07-30_04h49.52.292,Simcolourproject_2stim_asymm_v5,2020.2.10,Win32,60,61025ae37ef11b136ea224fe,,,,,,,,,4267,37,57,1,0,0,response1disk,,7,6,7,1,0,0,rectangle,6,7,1,0,0,6,7,1,0,0,1,21,181,2,1,,,,,,,,
,,,,,,,,,,,,,FF,,,,,,,,1.2687,,,,,,,,,,,,,,,,,,,,,,60fb2cd6d4e01d29d28c7f36,610368944c5946437063b123,2021-07-30_04h49.52.292,Simcolourproject_2stim_asymm_v5,2020.2.10,Win32,60,61025ae37ef11b136ea224fe,,,,,,,,,2707,23,51,1,0,0,response1disk,,7,18,2,1,0,0,rectangle,18,2,1,0,0,18,2,1,0,0,1,22,182,22,1,,,,,,,,
,,,,,,,,,,,,,FF,,,,,,,,1.1854,,,,,,,,,,,,,,,,,,,,,,60fb2cd6d4e01d29d28c7f36,610368944c5946437063b123,2021-07-30_04h49.52.292,Simcolourproject_2stim_asymm_v5,2020.2.10,Win32,60,61025ae37ef11b136ea224fe,,,,,,,,,2514,32,51,1,0,0,response1disk,,7,14,4,1,0,0,rectangle,14,4,1,0,0,14,4,1,0,0,1,23,183,59,1,,,,,,,,
,,,,,,,,,,,,,FF,,,,,,,,2.2666,,,,,,,,,,,,,,,,,,,,,,60fb2cd6d4e01d29d28c7f36,610368944c5946437063b123,2021-07-30_04h49.52.292,Simcolourproject_2stim_asymm_v5,2020.2.10,Win32,60,61025ae37ef11b136ea224fe,,,,,,,,,1909,39,-47,1,0,0,response3disk,,4,22,5,1,0,0,rectangle,22,5,1,0,0,22,5,1,0,0,1,24,184,102,1,,,,,,,,
,,,,,,,,,,,,,FF,,,,,,,,0.9872,,,,,,,,,,,,,,,,,,,,,,60fb2cd6d4e01d29d28c7f36,610368944c5946437063b123,2021-07-30_04h49.52.292,Simcolourproject_2stim_asymm_v5,2020.2.10,Win32,60,61025ae37ef11b136ea224fe,,,,,,,,,2097,42,57,1,0,0,response1disk,,7,-31,-5,1,0,0,rectangle,-31,-5,1,0,0,-31,-5,1,0,0,1,25,185,87,1,,,,,,,,
,,,,,,,,,,,,,FF,,,,,,,,3.5176,,,,,,,,,,,,,,,,,,,,,,60fb2cd6d4e01d29d28c7f36,610368944c5946437063b123,2021-07-30_04h49.52.292,Simcolourproject_2stim_asymm_v5,2020.2.10,Win32,60,61025ae37ef11b136ea224fe,,,,,,,,,1766,-58,-24,1,0,0,response5disk,,2,5,7,1,0,0,rectangle,5,7,1,0,0,5,7,1,0,0,1,26,186,19,1,,,,,,,,
,,,,,,,,,,,,,FF,,,,,,,,1.0371,,,,,,,,,,,,,,,,,,,,,,60fb2cd6d4e01d29d28c7f36,610368944c5946437063b123,2021-07-30_04h49.52.292,Simcolourproject_2stim_asymm_v5,2020.2.10,Win32,60,61025ae37ef11b136ea224fe,,,,,,,,,3832,30,50,1,0,0,response1disk,,7,6,0,1,0,0,rectangle,6,0,1,0,0,6,0,1,0,0,1,27,187,156,1,,,,,,,,
,,,,,,,,,,,,,FF,,,,,,,,1.0352,,,,,,,,,,,,,,,,,,,,,,60fb2cd6d4e01d29d28c7f36,610368944c5946437063b123,2021-07-30_04h49.52.292,Simcolourproject_2stim_asymm_v5,2020.2.10,Win32,60,61025ae37ef11b136ea224fe,,,,,,,,,1720,28,47,1,0,0,response1disk,,7,9,0,1,0,0,rectangle,9,0,1,0,0,9,0,1,0,0,1,28,188,108,1,,,,,,,,
,,,,,,,,,,,,,FF,,,,,,,,1.6198,,,,,,,,,,,,,,,,,,,,,,60fb2cd6d4e01d29d28c7f36,610368944c5946437063b123,2021-07-30_04h49.52.292,Simcolourproject_2stim_asymm_v5,2020.2.10,Win32,60,61025ae37ef11b136ea224fe,,,,,,,,,399,62,30,1,0,0,response1disk,,6,19,4,1,0,0,rectangle,19,4,1,0,0,19,4,1,0,0,1,29,189,48,1,,,,,,,,
,,,,,,,,,,,,,FF,,,,,,,,2.4171,,,,,,,,,,,,,,,,,,,,,,60fb2cd6d4e01d29d28c7f36,610368944c5946437063b123,2021-07-30_04h49.52.292,Simcolourproject_2stim_asymm_v5,2020.2.10,Win32,60,61025ae37ef11b136ea224fe,,,,,,,,,4064,25,-27,1,0,0,response3disk,,4,1,-2,1,0,0,rectangle,-73,43,1,0,0,-7,10,1,0,0,1,30,190,70,1,,response7disk_3,TRUE,1,1,"[145,293,191,157,52,304,35,27,205,91,249,134,234,77,73,286,223,93,88,170]",4.2056,rectangle
,,,,,,,,,,,,,FF,,,,,,,,2.2181,,,,,,,,,,,,,,,,,,,,,,60fb2cd6d4e01d29d28c7f36,610368944c5946437063b123,2021-07-30_04h49.52.292,Simcolourproject_2stim_asymm_v5,2020.2.10,Win32,60,61025ae37ef11b136ea224fe,,,,,,,,,657,27,-54,1,0,0,response3disk,,4,10,-12,1,0,0,rectangle,10,-12,1,0,0,10,-12,1,0,0,1,31,191,127,1,,,,,,,,
,,,,,,,,,,,,,FF,,,,,,,,1.8033,,,,,,,,,,,,,,,,,,,,,,60fb2cd6d4e01d29d28c7f36,610368944c5946437063b123,2021-07-30_04h49.52.292,Simcolourproject_2stim_asymm_v5,2020.2.10,Win32,60,61025ae37ef11b136ea224fe,,,,,,,,,2821,52,-33,1,0,0,response3disk,,5,-4,10,1,0,0,rectangle,-4,10,1,0,0,-4,10,1,0,0,1,32,192,113,1,,,,,,,,
,,,,,,,,,,,,,FF,,,,,,,,2.939,,,,,,,,,,,,,,,,,,,,,,60fb2cd6d4e01d29d28c7f36,610368944c5946437063b123,2021-07-30_04h49.52.292,Simcolourproject_2stim_asymm_v5,2020.2.10,Win32,60,61025ae37ef11b136ea224fe,,,,,,,,,1206,32,49,1,0,0,response1disk,,7,6,8,1,0,0,rectangle,6,8,1,0,0,6,8,1,0,0,1,33,193,14,1,,,,,,,,
,,,,,,,,,,,,,FF,,,,,,,,1.5564,,,,,,,,,,,,,,,,,,,,,,60fb2cd6d4e01d29d28c7f36,610368944c5946437063b123,2021-07-30_04h49.52.292,Simcolourproject_2stim_asymm_v5,2020.2.10,Win32,60,61025ae37ef11b136ea224fe,,,,,,,,,2726,-28,-58,1,0,0,response5disk,,3,1,-2,1,0,0,rectangle,1,-2,1,0,0,1,-2,1,0,0,1,34,194,140,1,,,,,,,,
,,,,,,,,,,,,,FF,,,,,,,,1.6828,,,,,,,,,,,,,,,,,,,,,,60fb2cd6d4e01d29d28c7f36,610368944c5946437063b123,2021-07-30_04h49.52.292,Simcolourproject_2stim_asymm_v5,2020.2.10,Win32,60,61025ae37ef11b136ea224fe,,,,,,,,,3157,26,-43,1,0,0,response3disk,,4,10,-10,1,0,0,rectangle,10,-10,1,0,0,10,-10,1,0,0,1,35,195,155,1,,,,,,,,
,,,,,,,,,,,,,FF,,,,,,,,2.3858,,,,,,,,,,,,,,,,,,,,,,60fb2cd6d4e01d29d28c7f36,610368944c5946437063b123,2021-07-30_04h49.52.292,Simcolourproject_2stim_asymm_v5,2020.2.10,Win32,60,61025ae37ef11b136ea224fe,,,,,,,,,1409,49,34,1,0,0,response1disk,,6,8,1,1,0,0,rectangle,8,1,1,0,0,8,1,1,0,0,1,36,196,28,1,,,,,,,,
,,,,,,,,,,,,,FF,,,,,,,,2.818,,,,,,,,,,,,,,,,,,,,,,60fb2cd6d4e01d29d28c7f36,610368944c5946437063b123,2021-07-30_04h49.52.292,Simcolourproject_2stim_asymm_v5,2020.2.10,Win32,60,61025ae37ef11b136ea224fe,,,,,,,,,2098,-70,23,1,0,0,response7disk,,1,-5,5,1,0,0,rectangle,-5,5,1,0,0,-5,5,1,0,0,1,37,197,33,1,,,,,,,,
,,,,,,,,,,,,,FF,,,,,,,,1.3191,,,,,,,,,,,,,,,,,,,,,,60fb2cd6d4e01d29d28c7f36,610368944c5946437063b123,2021-07-30_04h49.52.292,Simcolourproject_2stim_asymm_v5,2020.2.10,Win32,60,61025ae37ef11b136ea224fe,,,,,,,,,3209,33,64,1,0,0,response1disk,,7,-17,-9,1,0,0,rectangle,-17,-9,1,0,0,-17,-9,1,0,0,1,38,198,31,1,,,,,,,,
,,,,,,,,,,,,,FF,,,,,,,,2.0329,,,,,,,,,,,,,,,,,,,,,,60fb2cd6d4e01d29d28c7f36,610368944c5946437063b123,2021-07-30_04h49.52.292,Simcolourproject_2stim_asymm_v5,2020.2.10,Win32,60,61025ae37ef11b136ea224fe,,,,,,,,,3342,47,-27,1,0,0,response3disk,,5,7,6,1,0,0,rectangle,7,6,1,0,0,7,6,1,0,0,1,39,199,68,1,,,,,,,,
,,,,,,,,,,,,,FF,,,,,,,,2.0001,,,,,,,,,,,,,,,,,,,,,,60fb2cd6d4e01d29d28c7f36,610368944c5946437063b123,2021-07-30_04h49.52.292,Simcolourproject_2stim_asymm_v5,2020.2.10,Win32,60,61025ae37ef11b136ea224fe,,,,,,,,,1130,40,34,1,0,0,response1disk,,6,9,-4,1,0,0,rectangle,9,-4,1,0,0,9,-4,1,0,0,1,40,200,53,1,,,,,,,,
,,,,,,,,,,,,,FF,,,,,,,,1.8171,,,,,,,,,,,,,,,,,,,,,,60fb2cd6d4e01d29d28c7f36,610368944c5946437063b123,2021-07-30_04h49.52.292,Simcolourproject_2stim_asymm_v5,2020.2.10,Win32,60,61025ae37ef11b136ea224fe,,,,,,,,,3172,41,-19,1,0,0,response3disk,,5,16,1,1,0,0,rectangle,16,1,1,0,0,16,1,1,0,0,1,41,201,0,1,,,,,,,,
,,,,,,,,,,,,,FF,,,,,,,,1.502,,,,,,,,,,,,,,,,,,,,,,60fb2cd6d4e01d29d28c7f36,610368944c5946437063b123,2021-07-30_04h49.52.292,Simcolourproject_2stim_asymm_v5,2020.2.10,Win32,60,61025ae37ef11b136ea224fe,,,,,,,,,3666,26,73,1,0,0,response1disk,,7,5,6,1,0,0,rectangle,5,6,1,0,0,5,6,1,0,0,1,42,202,90,1,,,,,,,,
,,,,,,,,,,,,,FF,,,,,,,,1.3855,,,,,,,,,,,,,,,,,,,,,,60fb2cd6d4e01d29d28c7f36,610368944c5946437063b123,2021-07-30_04h49.52.292,Simcolourproject_2stim_asymm_v5,2020.2.10,Win32,60,61025ae37ef11b136ea224fe,,,,,,,,,3138,31,51,1,0,0,response1disk,,7,3,-4,1,0,0,rectangle,3,-4,1,0,0,3,-4,1,0,0,1,43,203,45,1,,,,,,,,
,,,,,,,,,,,,,FF,,,,,,,,1.0534,,,,,,,,,,,,,,,,,,,,,,60fb2cd6d4e01d29d28c7f36,610368944c5946437063b123,2021-07-30_04h49.52.292,Simcolourproject_2stim_asymm_v5,2020.2.10,Win32,60,61025ae37ef11b136ea224fe,,,,,,,,,489,31,55,1,0,0,response1disk,,7,5,-13,1,0,0,rectangle,-25,71,1,0,0,19,8,1,0,0,1,44,204,82,1,,response7disk_3,TRUE,0,0,"[145,293,191,157,52,304,35,27,205,91,249,134,234,77,73,286,223,93,88,170]",2.6516,rectangle
,,,,,,,,,,,,,FF,,,,,,,,2.4333,,,,,,,,,,,,,,,,,,,,,,60fb2cd6d4e01d29d28c7f36,610368944c5946437063b123,2021-07-30_04h49.52.292,Simcolourproject_2stim_asymm_v5,2020.2.10,Win32,60,61025ae37ef11b136ea224fe,,,,,,,,,250,-55,-23,1,0,0,response5disk,,2,-2,15,1,0,0,rectangle,-2,15,1,0,0,-2,15,1,0,0,1,45,205,118,1,,,,,,,,
,,,,,,,,,,,,,FF,,,,,,,,1.2847,,,,,,,,,,,,,,,,,,,,,,60fb2cd6d4e01d29d28c7f36,610368944c5946437063b123,2021-07-30_04h49.52.292,Simcolourproject_2stim_asymm_v5,2020.2.10,Win32,60,61025ae37ef11b136ea224fe,,,,,,,,,1797,33,56,1,0,0,response1disk,,7,1,3,1,0,0,rectangle,1,3,1,0,0,1,3,1,0,0,1,46,206,157,1,,,,,,,,
,,,,,,,,,,,,,FF,,,,,,,,3.17,,,,,,,,,,,,,,,,,,,,,,60fb2cd6d4e01d29d28c7f36,610368944c5946437063b123,2021-07-30_04h49.52.292,Simcolourproject_2stim_asymm_v5,2020.2.10,Win32,60,61025ae37ef11b136ea224fe,,,,,,,,,2395,-21,-68,1,0,0,response5disk,,3,1,-5,1,0,0,rectangle,1,-5,1,0,0,1,-5,1,0,0,1,47,207,67,1,,,,,,,,
,,,,,,,,,,,,,FF,,,,,,,,1.3683,,,,,,,,,,,,,,,,,,,,,,60fb2cd6d4e01d29d28c7f36,610368944c5946437063b123,2021-07-30_04h49.52.292,Simcolourproject_2stim_asymm_v5,2020.2.10,Win32,60,61025ae37ef11b136ea224fe,,,,,,,,,2723,24,47,1,0,0,response1disk,,7,-14,-14,1,0,0,rectangle,-14,-14,1,0,0,-14,-14,1,0,0,1,48,208,98,1,,,,,,,,
,,,,,,,,,,,,,FF,,,,,,,,1.1523,,,,,,,,,,,,,,,,,,,,,,60fb2cd6d4e01d29d28c7f36,610368944c5946437063b123,2021-07-30_04h49.52.292,Simcolourproject_2stim_asymm_v5,2020.2.10,Win32,60,61025ae37ef11b136ea224fe,,,,,,,,,505,21,49,1,0,0,response1disk,,7,0,-7,1,0,0,rectangle,0,-7,1,0,0,0,-7,1,0,0,1,49,209,103,1,,,,,,,,
,,,,,,,,,,,,,FF,,,,,,,,2.4027,,,,,,,,,,,,,,,,,,,,,,60fb2cd6d4e01d29d28c7f36,610368944c5946437063b123,2021-07-30_04h49.52.292,Simcolourproject_2stim_asymm_v5,2020.2.10,Win32,60,61025ae37ef11b136ea224fe,,,,,,,,,192,27,-37,1,0,0,response3disk,,4,4,-4,1,0,0,rectangle,4,-4,1,0,0,4,-4,1,0,0,1,50,210,21,1,,,,,,,,
,,,,,,,,,,,,,FF,,,,,,,,2.2522,,,,,,,,,,,,,,,,,,,,,,60fb2cd6d4e01d29d28c7f36,610368944c5946437063b123,2021-07-30_04h49.52.292,Simcolourproject_2stim_asymm_v5,2020.2.10,Win32,60,61025ae37ef11b136ea224fe,,,,,,,,,2895,33,-25,1,0,0,response3disk,,5,17,-4,1,0,0,rectangle,17,-4,1,0,0,17,-4,1,0,0,1,51,211,112,1,,,,,,,,
,,,,,,,,,,,,,FF,,,,,,,,2.0882,,,,,,,,,,,,,,,,,,,,,,60fb2cd6d4e01d29d28c7f36,610368944c5946437063b123,2021-07-30_04h49.52.292,Simcolourproject_2stim_asymm_v5,2020.2.10,Win32,60,61025ae37ef11b136ea224fe,,,,,,,,,4115,17,-28,1,0,0,response3disk,,4,6,7,1,0,0,rectangle,6,7,1,0,0,6,7,1,0,0,1,52,212,80,1,,,,,,,,
,,,,,,,,,,,,,FF,,,,,,,,1.153,,,,,,,,,,,,,,,,,,,,,,60fb2cd6d4e01d29d28c7f36,610368944c5946437063b123,2021-07-30_04h49.52.292,Simcolourproject_2stim_asymm_v5,2020.2.10,Win32,60,61025ae37ef11b136ea224fe,,,,,,,,,2274,24,46,1,0,0,response1disk,,7,12,3,1,0,0,rectangle,12,3,1,0,0,12,3,1,0,0,1,53,213,106,1,,,,,,,,
,,,,,,,,,,,,,FF,,,,,,,,2.6861,,,,,,,,,,,,,,,,,,,,,,60fb2cd6d4e01d29d28c7f36,610368944c5946437063b123,2021-07-30_04h49.52.292,Simcolourproject_2stim_asymm_v5,2020.2.10,Win32,60,61025ae37ef11b136ea224fe,,,,,,,,,2761,61,-22,1,0,0,response3disk,,5,26,-6,1,0,0,rectangle,26,-6,1,0,0,26,-6,1,0,0,1,54,214,1,1,,,,,,,,
,,,,,,,,,,,,,FF,,,,,,,,1.365,,,,,,,,,,,,,,,,,,,,,,60fb2cd6d4e01d29d28c7f36,610368944c5946437063b123,2021-07-30_04h49.52.292,Simcolourproject_2stim_asymm_v5,2020.2.10,Win32,60,61025ae37ef11b136ea224fe,,,,,,,,,2211,19,62,1,0,0,response1disk,,7,6,2,1,0,0,rectangle,6,2,1,0,0,6,2,1,0,0,1,55,215,110,1,,,,,,,,
,,,,,,,,,,,,,FF,,,,,,,,2.2172,,,,,,,,,,,,,,,,,,,,,,60fb2cd6d4e01d29d28c7f36,610368944c5946437063b123,2021-07-30_04h49.52.292,Simcolourproject_2stim_asymm_v5,2020.2.10,Win32,60,61025ae37ef11b136ea224fe,,,,,,,,,3285,26,44,1,0,0,response1disk,,7,5,-4,1,0,0,rectangle,5,-4,1,0,0,5,-4,1,0,0,1,56,216,57,1,,,,,,,,
,,,,,,,,,,,,,FF,,,,,,,,1.1165,,,,,,,,,,,,,,,,,,,,,,60fb2cd6d4e01d29d28c7f36,610368944c5946437063b123,2021-07-30_04h49.52.292,Simcolourproject_2stim_asymm_v5,2020.2.10,Win32,60,61025ae37ef11b136ea224fe,,,,,,,,,685,30,48,1,0,0,response1disk,,7,18,-2,1,0,0,rectangle,18,-2,1,0,0,18,-2,1,0,0,1,57,217,7,1,,,,,,,,
,,,,,,,,,,,,,FF,,,,,,,,1.086,,,,,,,,,,,,,,,,,,,,,,60fb2cd6d4e01d29d28c7f36,610368944c5946437063b123,2021-07-30_04h49.52.292,Simcolourproject_2stim_asymm_v5,2020.2.10,Win32,60,61025ae37ef11b136ea224fe,,,,,,,,,2103,30,56,1,0,0,response1disk,,7,9,6,1,0,0,rectangle,9,6,1,0,0,9,6,1,0,0,1,58,218,88,1,,,,,,,,
,,,,,,,,,,,,,FF,,,,,,,,1.9703,,,,,,,,,,,,,,,,,,,,,,60fb2cd6d4e01d29d28c7f36,610368944c5946437063b123,2021-07-30_04h49.52.292,Simcolourproject_2stim_asymm_v5,2020.2.10,Win32,60,61025ae37ef11b136ea224fe,,,,,,,,,846,-36,-48,1,0,0,response5disk,,3,-7,0,1,0,0,rectangle,-7,0,1,0,0,-7,0,1,0,0,1,59,219,39,1,,,,,,,,
,,,,,,,,,,,,,FF,,,,,,,,1.1169,,,,,,,,,,,,,,,,,,,,,,60fb2cd6d4e01d29d28c7f36,610368944c5946437063b123,2021-07-30_04h49.52.292,Simcolourproject_2stim_asymm_v5,2020.2.10,Win32,60,61025ae37ef11b136ea224fe,,,,,,,,,333,22,53,1,0,0,response1disk,,7,2,7,1,0,0,rectangle,2,7,1,0,0,2,7,1,0,0,1,60,220,20,1,,,,,,,,
,,,,,,,,,,,,,FF,,,,,,,,1.1693,,,,,,,,,,,,,,,,,,,,,,60fb2cd6d4e01d29d28c7f36,610368944c5946437063b123,2021-07-30_04h49.52.292,Simcolourproject_2stim_asymm_v5,2020.2.10,Win32,60,61025ae37ef11b136ea224fe,,,,,,,,,3184,35,56,1,0,0,response1disk,,7,21,0,1,0,0,rectangle,21,0,1,0,0,21,0,1,0,0,1,61,221,111,1,,,,,,,,
,,,,,,,,,,,,,FF,,,,,,,,1.1357,,,,,,,,,,,,,,,,,,,,,,60fb2cd6d4e01d29d28c7f36,610368944c5946437063b123,2021-07-30_04h49.52.292,Simcolourproject_2stim_asymm_v5,2020.2.10,Win32,60,61025ae37ef11b136ea224fe,,,,,,,,,2646,26,50,1,0,0,response1disk,,7,10,-7,1,0,0,rectangle,-45,-89,1,0,0,-4,-2,1,0,0,1,62,222,85,1,,response5disk_3,TRUE,3,3,"[145,293,191,157,52,304,35,27,205,91,249,134,234,77,73,286,223,93,88,170]",4.5719,rectangle
,,,,,,,,,,,,,FF,,,,,,,,1.0021,,,,,,,,,,,,,,,,,,,,,,60fb2cd6d4e01d29d28c7f36,610368944c5946437063b123,2021-07-30_04h49.52.292,Simcolourproject_2stim_asymm_v5,2020.2.10,Win32,60,61025ae37ef11b136ea224fe,,,,,,,,,3016,24,43,1,0,0,response1disk,,7,-2,-4,1,0,0,rectangle,-2,-4,1,0,0,-2,-4,1,0,0,1,63,223,36,1,,,,,,,,
,,,,,,,,,,,,,FF,,,,,,,,1.0192,,,,,,,,,,,,,,,,,,,,,,60fb2cd6d4e01d29d28c7f36,610368944c5946437063b123,2021-07-30_04h49.52.292,Simcolourproject_2stim_asymm_v5,2020.2.10,Win32,60,61025ae37ef11b136ea224fe,,,,,,,,,3580,42,65,1,0,0,response1disk,,7,3,6,1,0,0,rectangle,3,6,1,0,0,3,6,1,0,0,1,64,224,15,1,,,,,,,,
,,,,,,,,,,,,,FF,,,,,,,,1.0854,,,,,,,,,,,,,,,,,,,,,,60fb2cd6d4e01d29d28c7f36,610368944c5946437063b123,2021-07-30_04h49.52.292,Simcolourproject_2stim_asymm_v5,2020.2.10,Win32,60,61025ae37ef11b136ea224fe,,,,,,,,,955,31,48,1,0,0,response1disk,,7,14,6,1,0,0,rectangle,14,6,1,0,0,14,6,1,0,0,1,65,225,44,1,,,,,,,,
,,,,,,,,,,,,,FF,,,,,,,,1.7501,,,,,,,,,,,,,,,,,,,,,,60fb2cd6d4e01d29d28c7f36,610368944c5946437063b123,2021-07-30_04h49.52.292,Simcolourproject_2stim_asymm_v5,2020.2.10,Win32,60,61025ae37ef11b136ea224fe,,,,,,,,,2305,32,-49,1,0,0,response3disk,,4,15,0,1,0,0,rectangle,15,0,1,0,0,15,0,1,0,0,1,66,226,46,1,,,,,,,,
,,,,,,,,,,,,,FF,,,,,,,,1.3197,,,,,,,,,,,,,,,,,,,,,,60fb2cd6d4e01d29d28c7f36,610368944c5946437063b123,2021-07-30_04h49.52.292,Simcolourproject_2stim_asymm_v5,2020.2.10,Win32,60,61025ae37ef11b136ea224fe,,,,,,,,,2182,28,53,1,0,0,response1disk,,7,0,-6,1,0,0,rectangle,0,-6,1,0,0,0,-6,1,0,0,1,67,227,25,1,,,,,,,,
,,,,,,,,,,,,,FF,,,,,,,,3.2436,,,,,,,,,,,,,,,,,,,,,,60fb2cd6d4e01d29d28c7f36,610368944c5946437063b123,2021-07-30_04h49.52.292,Simcolourproject_2stim_asymm_v5,2020.2.10,Win32,60,61025ae37ef11b136ea224fe,,,,,,,,,3421,-37,-57,1,0,0,response5disk,,3,-14,3,1,0,0,rectangle,-14,3,1,0,0,-14,3,1,0,0,1,68,228,139,1,,,,,,,,
,,,,,,,,,,,,,FF,,,,,,,,1.088,,,,,,,,,,,,,,,,,,,,,,60fb2cd6d4e01d29d28c7f36,610368944c5946437063b123,2021-07-30_04h49.52.292,Simcolourproject_2stim_asymm_v5,2020.2.10,Win32,60,61025ae37ef11b136ea224fe,,,,,,,,,335,27,47,1,0,0,response1disk,,7,-17,-4,1,0,0,rectangle,-17,-4,1,0,0,-17,-4,1,0,0,1,69,229,62,1,,,,,,,,
,,,,,,,,,,,,,FF,,,,,,,,1.7687,,,,,,,,,,,,,,,,,,,,,,60fb2cd6d4e01d29d28c7f36,610368944c5946437063b123,2021-07-30_04h49.52.292,Simcolourproject_2stim_asymm_v5,2020.2.10,Win32,60,61025ae37ef11b136ea224fe,,,,,,,,,2496,35,26,1,0,0,response1disk,,6,13,2,1,0,0,rectangle,13,2,1,0,0,13,2,1,0,0,1,70,230,154,1,,,,,,,,
,,,,,,,,,,,,,FF,,,,,,,,1.1522,,,,,,,,,,,,,,,,,,,,,,60fb2cd6d4e01d29d28c7f36,610368944c5946437063b123,2021-07-30_04h49.52.292,Simcolourproject_2stim_asymm_v5,2020.2.10,Win32,60,61025ae37ef11b136ea224fe,,,,,,,,,3638,19,45,1,0,0,response1disk,,7,5,7,1,0,0,rectangle,5,7,1,0,0,5,7,1,0,0,1,71,231,129,1,,,,,,,,
,,,,,,,,,,,,,FF,,,,,,,,1.118,,,,,,,,,,,,,,,,,,,,,,60fb2cd6d4e01d29d28c7f36,610368944c5946437063b123,2021-07-30_04h49.52.292,Simcolourproject_2stim_asymm_v5,2020.2.10,Win32,60,61025ae37ef11b136ea224fe,,,,,,,,,3369,26,52,1,0,0,response1disk,,7,8,-7,1,0,0,rectangle,8,-7,1,0,0,8,-7,1,0,0,1,72,232,133,1,,,,,,,,
,,,,,,,,,,,,,FF,,,,,,,,1.1361,,,,,,,,,,,,,,,,,,,,,,60fb2cd6d4e01d29d28c7f36,610368944c5946437063b123,2021-07-30_04h49.52.292,Simcolourproject_2stim_asymm_v5,2020.2.10,Win32,60,61025ae37ef11b136ea224fe,,,,,,,,,844,36,46,1,0,0,response1disk,,7,12,11,1,0,0,rectangle,-37,71,1,0,0,-19,0,1,0,0,1,73,233,18,1,,response7disk_3,TRUE,0,1,"[145,293,191,157,52,304,35,27,205,91,249,134,234,77,73,286,223,93,88,170]",1.6677,rectangle
,,,,,,,,,,,,,FF,,,,,,,,1.4497,,,,,,,,,,,,,,,,,,,,,,60fb2cd6d4e01d29d28c7f36,610368944c5946437063b123,2021-07-30_04h49.52.292,Simcolourproject_2stim_asymm_v5,2020.2.10,Win32,60,61025ae37ef11b136ea224fe,,,,,,,,,3695,26,58,1,0,0,response1disk,,7,7,-2,1,0,0,rectangle,7,-2,1,0,0,7,-2,1,0,0,1,74,234,84,1,,,,,,,,
,,,,,,,,,,,,,FF,,,,,,,,2.3697,,,,,,,,,,,,,,,,,,,,,,60fb2cd6d4e01d29d28c7f36,610368944c5946437063b123,2021-07-30_04h49.52.292,Simcolourproject_2stim_asymm_v5,2020.2.10,Win32,60,61025ae37ef11b136ea224fe,,,,,,,,,1240,48,-33,1,0,0,response3disk,,5,-2,8,1,0,0,rectangle,-2,8,1,0,0,-2,8,1,0,0,1,75,235,58,1,,,,,,,,
,,,,,,,,,,,,,FF,,,,,,,,0.9833,,,,,,,,,,,,,,,,,,,,,,60fb2cd6d4e01d29d28c7f36,610368944c5946437063b123,2021-07-30_04h49.52.292,Simcolourproject_2stim_asymm_v5,2020.2.10,Win32,60,61025ae37ef11b136ea224fe,,,,,,,,,305,25,48,1,0,0,response1disk,,7,4,0,1,0,0,rectangle,4,0,1,0,0,4,0,1,0,0,1,76,236,141,1,,,,,,,,
,,,,,,,,,,,,,FF,,,,,,,,2.2509,,,,,,,,,,,,,,,,,,,,,,60fb2cd6d4e01d29d28c7f36,610368944c5946437063b123,2021-07-30_04h49.52.292,Simcolourproject_2stim_asymm_v5,2020.2.10,Win32,60,61025ae37ef11b136ea224fe,,,,,,,,,97,43,-37,1,0,0,response3disk,,5,-12,8,1,0,0,rectangle,-12,8,1,0,0,-12,8,1,0,0,1,77,237,4,1,,,,,,,,
,,,,,,,,,,,,,FF,,,,,,,,0.9702,,,,,,,,,,,,,,,,,,,,,,60fb2cd6d4e01d29d28c7f36,610368944c5946437063b123,2021-07-30_04h49.52.292,Simcolourproject_2stim_asymm_v5,2020.2.10,Win32,60,61025ae37ef11b136ea224fe,,,,,,,,,73,26,60,1,0,0,response1disk,,7,11,9,1,0,0,rectangle,11,9,1,0,0,11,9,1,0,0,1,78,238,142,1,,,,,,,,
,,,,,,,,,,,,,FF,,,,,,,,2.2339,,,,,,,,,,,,,,,,,,,,,,60fb2cd6d4e01d29d28c7f36,610368944c5946437063b123,2021-07-30_04h49.52.292,Simcolourproject_2stim_asymm_v5,2020.2.10,Win32,60,61025ae37ef11b136ea224fe,,,,,,,,,3264,-44,-53,1,0,0,response5disk,,3,-6,14,1,0,0,rectangle,-6,14,1,0,0,-6,14,1,0,0,1,79,239,153,1,,,,,,,,
,,,,,,,,,,,,,FF,,,,,,,,2.2028,,,,,,,,,,,,,,,,,,,,,,60fb2cd6d4e01d29d28c7f36,610368944c5946437063b123,2021-07-30_04h49.52.292,Simcolourproject_2stim_asymm_v5,2020.2.10,Win32,60,61025ae37ef11b136ea224fe,,,,,,,,,134,60,-29,1,0,0,response3disk,,5,20,1,1,0,0,rectangle,20,1,1,0,0,20,1,1,0,0,1,80,240,151,1,,,,,,,,
,,,,,,,,,,,,,FF,,,,,,,,1.8672,,,,,,,,,,,,,,,,,,,,,,60fb2cd6d4e01d29d28c7f36,610368944c5946437063b123,2021-07-30_04h49.52.292,Simcolourproject_2stim_asymm_v5,2020.2.10,Win32,60,61025ae37ef11b136ea224fe,,,,,,,,,2926,43,-41,1,0,0,response3disk,,5,14,-6,1,0,0,rectangle,14,-6,1,0,0,14,-6,1,0,0,1,81,241,76,1,,,,,,,,
,,,,,,,,,,,,,FF,,,,,,,,1.4025,,,,,,,,,,,,,,,,,,,,,,60fb2cd6d4e01d29d28c7f36,610368944c5946437063b123,2021-07-30_04h49.52.292,Simcolourproject_2stim_asymm_v5,2020.2.10,Win32,60,61025ae37ef11b136ea224fe,,,,,,,,,4325,32,55,1,0,0,response1disk,,7,11,2,1,0,0,rectangle,11,2,1,0,0,11,2,1,0,0,1,82,242,41,1,,,,,,,,
,,,,,,,,,,,,,FF,,,,,,,,1.1851,,,,,,,,,,,,,,,,,,,,,,60fb2cd6d4e01d29d28c7f36,610368944c5946437063b123,2021-07-30_04h49.52.292,Simcolourproject_2stim_asymm_v5,2020.2.10,Win32,60,61025ae37ef11b136ea224fe,,,,,,,,,1323,20,49,1,0,0,response1disk,,7,7,10,1,0,0,rectangle,7,10,1,0,0,7,10,1,0,0,1,83,243,134,1,,,,,,,,
,,,,,,,,,,,,,FF,,,,,,,,1.9317,,,,,,,,,,,,,,,,,,,,,,60fb2cd6d4e01d29d28c7f36,610368944c5946437063b123,2021-07-30_04h49.52.292,Simcolourproject_2stim_asymm_v5,2020.2.10,Win32,60,61025ae37ef11b136ea224fe,,,,,,,,,1233,-26,-59,1,0,0,response5disk,,3,7,14,1,0,0,rectangle,7,14,1,0,0,7,14,1,0,0,1,84,244,137,1,,,,,,,,
,,,,,,,,,,,,,FF,,,,,,,,1.4498,,,,,,,,,,,,,,,,,,,,,,60fb2cd6d4e01d29d28c7f36,610368944c5946437063b123,2021-07-30_04h49.52.292,Simcolourproject_2stim_asymm_v5,2020.2.10,Win32,60,61025ae37ef11b136ea224fe,,,,,,,,,2249,-48,-67,1,0,0,response5disk,,3,-13,-3,1,0,0,rectangle,-13,-3,1,0,0,-13,-3,1,0,0,1,85,245,81,1,,,,,,,,
,,,,,,,,,,,,,FF,,,,,,,,1.8358,,,,,,,,,,,,,,,,,,,,,,60fb2cd6d4e01d29d28c7f36,610368944c5946437063b123,2021-07-30_04h49.52.292,Simcolourproject_2stim_asymm_v5,2020.2.10,Win32,60,61025ae37ef11b136ea224fe,,,,,,,,,4074,91,42,1,0,0,response1disk,,6,-8,0,1,0,0,rectangle,-8,0,1,0,0,-8,0,1,0,0,1,86,246,72,1,,,,,,,,
,,,,,,,,,,,,,FF,,,,,,,,1.6164,,,,,,,,,,,,,,,,,,,,,,60fb2cd6d4e01d29d28c7f36,610368944c5946437063b123,2021-07-30_04h49.52.292,Simcolourproject_2stim_asymm_v5,2020.2.10,Win32,60,61025ae37ef11b136ea224fe,,,,,,,,,3577,19,-47,1,0,0,response3disk,,4,12,12,1,0,0,rectangle,12,12,1,0,0,12,12,1,0,0,1,87,247,131,1,,,,,,,,
,,,,,,,,,,,,,FF,,,,,,,,1.2518,,,,,,,,,,,,,,,,,,,,,,60fb2cd6d4e01d29d28c7f36,610368944c5946437063b123,2021-07-30_04h49.52.292,Simcolourproject_2stim_asymm_v5,2020.2.10,Win32,60,61025ae37ef11b136ea224fe,,,,,,,,,3087,19,56,1,0,0,response1disk,,7,10,4,1,0,0,rectangle,30,-87,1,0,0,21,-7,1,0,0,1,88,248,74,1,,response3disk_3,TRUE,4,4,"[145,293,191,157,52,304,35,27,205,91,249,134,234,77,73,286,223,93,88,170]",2.7355,rectangle
,,,,,,,,,,,,,FF,,,,,,,,1.816,,,,,,,,,,,,,,,,,,,,,,60fb2cd6d4e01d29d28c7f36,610368944c5946437063b123,2021-07-30_04h49.52.292,Simcolourproject_2stim_asymm_v5,2020.2.10,Win32,60,61025ae37ef11b136ea224fe,,,,,,,,,3100,23,-40,1,0,0,response3disk,,4,11,-4,1,0,0,rectangle,11,-4,1,0,0,11,-4,1,0,0,1,89,249,135,1,,,,,,,,
,,,,,,,,,,,,,FF,,,,,,,,1.6191,,,,,,,,,,,,,,,,,,,,,,60fb2cd6d4e01d29d28c7f36,610368944c5946437063b123,2021-07-30_04h49.52.292,Simcolourproject_2stim_asymm_v5,2020.2.10,Win32,60,61025ae37ef11b136ea224fe,,,,,,,,,919,56,-31,1,0,0,response3disk,,5,14,-3,1,0,0,rectangle,14,-3,1,0,0,14,-3,1,0,0,1,90,250,69,1,,,,,,,,
,,,,,,,,,,,,,FF,,,,,,,,1.7679,,,,,,,,,,,,,,,,,,,,,,60fb2cd6d4e01d29d28c7f36,610368944c5946437063b123,2021-07-30_04h49.52.292,Simcolourproject_2stim_asymm_v5,2020.2.10,Win32,60,61025ae37ef11b136ea224fe,,,,,,,,,485,59,42,1,0,0,response1disk,,6,19,9,1,0,0,rectangle,19,9,1,0,0,19,9,1,0,0,1,91,251,71,1,,,,,,,,
,,,,,,,,,,,,,FF,,,,,,,,3.3137,,,,,,,,,,,,,,,,,,,,,,60fb2cd6d4e01d29d28c7f36,610368944c5946437063b123,2021-07-30_04h49.52.292,Simcolourproject_2stim_asymm_v5,2020.2.10,Win32,60,61025ae37ef11b136ea224fe,,,,,,,,,2805,26,-48,1,0,0,response3disk,,4,3,-2,1,0,0,rectangle,3,-2,1,0,0,3,-2,1,0,0,1,92,252,52,1,,,,,,,,
,,,,,,,,,,,,,FF,,,,,,,,1.5683,,,,,,,,,,,,,,,,,,,,,,60fb2cd6d4e01d29d28c7f36,610368944c5946437063b123,2021-07-30_04h49.52.292,Simcolourproject_2stim_asymm_v5,2020.2.10,Win32,60,61025ae37ef11b136ea224fe,,,,,,,,,1465,32,27,1,0,0,response1disk,,6,-3,5,1,0,0,rectangle,-3,5,1,0,0,-3,5,1,0,0,1,93,253,12,1,,,,,,,,
,,,,,,,,,,,,,FF,,,,,,,,1.5027,,,,,,,,,,,,,,,,,,,,,,60fb2cd6d4e01d29d28c7f36,610368944c5946437063b123,2021-07-30_04h49.52.292,Simcolourproject_2stim_asymm_v5,2020.2.10,Win32,60,61025ae37ef11b136ea224fe,,,,,,,,,2351,17,50,1,0,0,response1disk,,7,10,3,1,0,0,rectangle,10,3,1,0,0,10,3,1,0,0,1,94,254,29,1,,,,,,,,
,,,,,,,,,,,,,FF,,,,,,,,2.0711,,,,,,,,,,,,,,,,,,,,,,60fb2cd6d4e01d29d28c7f36,610368944c5946437063b123,2021-07-30_04h49.52.292,Simcolourproject_2stim_asymm_v5,2020.2.10,Win32,60,61025ae37ef11b136ea224fe,,,,,,,,,838,-39,-41,1,0,0,response5disk,,3,-2,13,1,0,0,rectangle,-2,13,1,0,0,-2,13,1,0,0,1,95,255,40,1,,,,,,,,
,,,,,,,,,,,,,FF,,,,,,,,2.4528,,,,,,,,,,,,,,,,,,,,,,60fb2cd6d4e01d29d28c7f36,610368944c5946437063b123,2021-07-30_04h49.52.292,Simcolourproject_2stim_asymm_v5,2020.2.10,Win32,60,61025ae37ef11b136ea224fe,,,,,,,,,1216,32,-42,1,0,0,response3disk,,4,8,8,1,0,0,rectangle,8,8,1,0,0,8,8,1,0,0,1,96,256,27,1,,,,,,,,
,,,,,,,,,,,,,FF,,,,,,,,3.1841,,,,,,,,,,,,,,,,,,,,,,60fb2cd6d4e01d29d28c7f36,610368944c5946437063b123,2021-07-30_04h49.52.292,Simcolourproject_2stim_asymm_v5,2020.2.10,Win32,60,61025ae37ef11b136ea224fe,,,,,,,,,4033,26,53,1,0,0,response1disk,,7,7,2,1,0,0,rectangle,7,2,1,0,0,7,2,1,0,0,1,97,257,145,1,,,,,,,,
,,,,,,,,,,,,,FF,,,,,,,,1.1841,,,,,,,,,,,,,,,,,,,,,,60fb2cd6d4e01d29d28c7f36,610368944c5946437063b123,2021-07-30_04h49.52.292,Simcolourproject_2stim_asymm_v5,2020.2.10,Win32,60,61025ae37ef11b136ea224fe,,,,,,,,,3112,24,43,1,0,0,response1disk,,7,-7,-6,1,0,0,rectangle,-7,-6,1,0,0,-7,-6,1,0,0,1,98,258,149,1,,,,,,,,
,,,,,,,,,,,,,FF,,,,,,,,10.6173,,,,,,,,,,,,,,,,,,,,,,60fb2cd6d4e01d29d28c7f36,610368944c5946437063b123,2021-07-30_04h49.52.292,Simcolourproject_2stim_asymm_v5,2020.2.10,Win32,60,61025ae37ef11b136ea224fe,,,,,,,,,970,-29,56,1,0,0,response7disk,,0,10,-4,1,0,0,rectangle,10,-4,1,0,0,10,-4,1,0,0,1,99,259,13,1,,,,,,,,
,,,,,,,,,,,,,FF,,,,,,,,1.2351,,,,,,,,,,,,,,,,,,,,,,60fb2cd6d4e01d29d28c7f36,610368944c5946437063b123,2021-07-30_04h49.52.292,Simcolourproject_2stim_asymm_v5,2020.2.10,Win32,60,61025ae37ef11b136ea224fe,,,,,,,,,1087,34,47,1,0,0,response1disk,,7,0,4,1,0,0,rectangle,0,4,1,0,0,0,4,1,0,0,1,100,260,128,1,,,,,,,,
,,,,,,,,,,,,,FF,,,,,,,,1.8192,,,,,,,,,,,,,,,,,,,,,,60fb2cd6d4e01d29d28c7f36,610368944c5946437063b123,2021-07-30_04h49.52.292,Simcolourproject_2stim_asymm_v5,2020.2.10,Win32,60,61025ae37ef11b136ea224fe,,,,,,,,,251,23,43,1,0,0,response1disk,,7,-3,3,1,0,0,rectangle,-3,3,1,0,0,-3,3,1,0,0,1,101,261,122,1,,,,,,,,
,,,,,,,,,,,,,FF,,,,,,,,1.8702,,,,,,,,,,,,,,,,,,,,,,60fb2cd6d4e01d29d28c7f36,610368944c5946437063b123,2021-07-30_04h49.52.292,Simcolourproject_2stim_asymm_v5,2020.2.10,Win32,60,61025ae37ef11b136ea224fe,,,,,,,,,3778,-52,-24,1,0,0,response5disk,,2,-3,8,1,0,0,rectangle,-3,8,1,0,0,-3,8,1,0,0,1,102,262,97,1,,,,,,,,
,,,,,,,,,,,,,FF,,,,,,,,1.7333,,,,,,,,,,,,,,,,,,,,,,60fb2cd6d4e01d29d28c7f36,610368944c5946437063b123,2021-07-30_04h49.52.292,Simcolourproject_2stim_asymm_v5,2020.2.10,Win32,60,61025ae37ef11b136ea224fe,,,,,,,,,2423,-23,-31,1,0,0,response5disk,,3,16,12,1,0,0,rectangle,16,12,1,0,0,16,12,1,0,0,1,103,263,11,1,,,,,,,,
,,,,,,,,,,,,,FF,,,,,,,,2.3179,,,,,,,,,,,,,,,,,,,,,,60fb2cd6d4e01d29d28c7f36,610368944c5946437063b123,2021-07-30_04h49.52.292,Simcolourproject_2stim_asymm_v5,2020.2.10,Win32,60,61025ae37ef11b136ea224fe,,,,,,,,,1672,32,28,1,0,0,response1disk,,6,-6,-5,1,0,0,rectangle,-6,-5,1,0,0,-6,-5,1,0,0,1,104,264,43,1,,,,,,,,
,,,,,,,,,,,,,FF,,,,,,,,1.7012,,,,,,,,,,,,,,,,,,,,,,60fb2cd6d4e01d29d28c7f36,610368944c5946437063b123,2021-07-30_04h49.52.292,Simcolourproject_2stim_asymm_v5,2020.2.10,Win32,60,61025ae37ef11b136ea224fe,,,,,,,,,2764,40,31,1,0,0,response1disk,,6,4,9,1,0,0,rectangle,4,9,1,0,0,4,9,1,0,0,1,105,265,91,1,,,,,,,,
,,,,,,,,,,,,,FF,,,,,,,,1.3506,,,,,,,,,,,,,,,,,,,,,,60fb2cd6d4e01d29d28c7f36,610368944c5946437063b123,2021-07-30_04h49.52.292,Simcolourproject_2stim_asymm_v5,2020.2.10,Win32,60,61025ae37ef11b136ea224fe,,,,,,,,,3168,16,39,1,0,0,response1disk,,7,-2,-7,1,0,0,rectangle,-2,-7,1,0,0,-2,-7,1,0,0,1,106,266,56,1,,,,,,,,
,,,,,,,,,,,,,FF,,,,,,,,1.4691,,,,,,,,,,,,,,,,,,,,,,60fb2cd6d4e01d29d28c7f36,610368944c5946437063b123,2021-07-30_04h49.52.292,Simcolourproject_2stim_asymm_v5,2020.2.10,Win32,60,61025ae37ef11b136ea224fe,,,,,,,,,1457,43,27,1,0,0,response1disk,,6,28,11,1,0,0,rectangle,28,11,1,0,0,28,11,1,0,0,1,107,267,150,1,,,,,,,,
,,,,,,,,,,,,,FF,,,,,,,,2.203,,,,,,,,,,,,,,,,,,,,,,60fb2cd6d4e01d29d28c7f36,610368944c5946437063b123,2021-07-30_04h49.52.292,Simcolourproject_2stim_asymm_v5,2020.2.10,Win32,60,61025ae37ef11b136ea224fe,,,,,,,,,3643,48,-39,1,0,0,response3disk,,5,7,6,1,0,0,rectangle,7,6,1,0,0,7,6,1,0,0,1,108,268,3,1,,,,,,,,
,,,,,,,,,,,,,FF,,,,,,,,1.7656,,,,,,,,,,,,,,,,,,,,,,60fb2cd6d4e01d29d28c7f36,610368944c5946437063b123,2021-07-30_04h49.52.292,Simcolourproject_2stim_asymm_v5,2020.2.10,Win32,60,61025ae37ef11b136ea224fe,,,,,,,,,3651,52,-23,1,0,0,response3disk,,5,8,7,1,0,0,rectangle,8,7,1,0,0,8,7,1,0,0,1,109,269,50,1,,,,,,,,
,,,,,,,,,,,,,FF,,,,,,,,1.619,,,,,,,,,,,,,,,,,,,,,,60fb2cd6d4e01d29d28c7f36,610368944c5946437063b123,2021-07-30_04h49.52.292,Simcolourproject_2stim_asymm_v5,2020.2.10,Win32,60,61025ae37ef11b136ea224fe,,,,,,,,,1504,41,-24,1,0,0,response3disk,,5,-1,5,1,0,0,rectangle,-1,5,1,0,0,-1,5,1,0,0,1,110,270,54,1,,,,,,,,
,,,,,,,,,,,,,FF,,,,,,,,1.8673,,,,,,,,,,,,,,,,,,,,,,60fb2cd6d4e01d29d28c7f36,610368944c5946437063b123,2021-07-30_04h49.52.292,Simcolourproject_2stim_asymm_v5,2020.2.10,Win32,60,61025ae37ef11b136ea224fe,,,,,,,,,1150,-44,-35,1,0,0,response5disk,,2,-11,11,1,0,0,rectangle,-11,11,1,0,0,-11,11,1,0,0,1,111,271,65,1,,,,,,,,
,,,,,,,,,,,,,FF,,,,,,,,1.2509,,,,,,,,,,,,,,,,,,,,,,60fb2cd6d4e01d29d28c7f36,610368944c5946437063b123,2021-07-30_04h49.52.292,Simcolourproject_2stim_asymm_v5,2020.2.10,Win32,60,61025ae37ef11b136ea224fe,,,,,,,,,2127,22,40,1,0,0,response1disk,,7,5,7,1,0,0,rectangle,5,7,1,0,0,5,7,1,0,0,1,112,272,24,1,,,,,,,,
,,,,,,,,,,,,,FF,,,,,,,,2.4849,,,,,,,,,,,,,,,,,,,,,,60fb2cd6d4e01d29d28c7f36,610368944c5946437063b123,2021-07-30_04h49.52.292,Simcolourproject_2stim_asymm_v5,2020.2.10,Win32,60,61025ae37ef11b136ea224fe,,,,,,,,,2317,52,30,1,0,0,response1disk,,6,22,-11,1,0,0,rectangle,22,-11,1,0,0,22,-11,1,0,0,1,113,273,100,1,,,,,,,,
,,,,,,,,,,,,,FF,,,,,,,,1.952,,,,,,,,,,,,,,,,,,,,,,60fb2cd6d4e01d29d28c7f36,610368944c5946437063b123,2021-07-30_04h49.52.292,Simcolourproject_2stim_asymm_v5,2020.2.10,Win32,60,61025ae37ef11b136ea224fe,,,,,,,,,160,33,26,1,0,0,response1disk,,6,14,1,1,0,0,rectangle,14,1,1,0,0,14,1,1,0,0,1,114,274,136,1,,,,,,,,
,,,,,,,,,,,,,FF,,,,,,,,1.3698,,,,,,,,,,,,,,,,,,,,,,60fb2cd6d4e01d29d28c7f36,610368944c5946437063b123,2021-07-30_04h49.52.292,Simcolourproject_2stim_asymm_v5,2020.2.10,Win32,60,61025ae37ef11b136ea224fe,,,,,,,,,1572,54,34,1,0,0,response1disk,,6,20,12,1,0,0,rectangle,20,12,1,0,0,20,12,1,0,0,1,115,275,96,1,,,,,,,,
,,,,,,,,,,,,,FF,,,,,,,,1.717,,,,,,,,,,,,,,,,,,,,,,60fb2cd6d4e01d29d28c7f36,610368944c5946437063b123,2021-07-30_04h49.52.292,Simcolourproject_2stim_asymm_v5,2020.2.10,Win32,60,61025ae37ef11b136ea224fe,,,,,,,,,1893,-58,25,1,0,0,response7disk,,1,12,-10,1,0,0,rectangle,12,-10,1,0,0,12,-10,1,0,0,1,116,276,92,1,,,,,,,,
,,,,,,,,,,,,,FF,,,,,,,,1.269,,,,,,,,,,,,,,,,,,,,,,60fb2cd6d4e01d29d28c7f36,610368944c5946437063b123,2021-07-30_04h49.52.292,Simcolourproject_2stim_asymm_v5,2020.2.10,Win32,60,61025ae37ef11b136ea224fe,,,,,,,,,4322,28,49,1,0,0,response1disk,,7,-8,6,1,0,0,rectangle,-8,6,1,0,0,-8,6,1,0,0,1,117,277,107,1,,,,,,,,
,,,,,,,,,,,,,FF,,,,,,,,1.2667,,,,,,,,,,,,,,,,,,,,,,60fb2cd6d4e01d29d28c7f36,610368944c5946437063b123,2021-07-30_04h49.52.292,Simcolourproject_2stim_asymm_v5,2020.2.10,Win32,60,61025ae37ef11b136ea224fe,,,,,,,,,983,27,60,1,0,0,response1disk,,7,8,6,1,0,0,rectangle,8,6,1,0,0,8,6,1,0,0,1,118,278,78,1,,,,,,,,
,,,,,,,,,,,,,FF,,,,,,,,1.0522,,,,,,,,,,,,,,,,,,,,,,60fb2cd6d4e01d29d28c7f36,610368944c5946437063b123,2021-07-30_04h49.52.292,Simcolourproject_2stim_asymm_v5,2020.2.10,Win32,60,61025ae37ef11b136ea224fe,,,,,,,,,3562,36,55,1,0,0,response1disk,,7,14,11,1,0,0,rectangle,14,11,1,0,0,14,11,1,0,0,1,119,279,121,1,,,,,,,,
,,,,,,,,,,,,,FF,,,,,,,,2.1853,,,,,,,,,,,,,,,,,,,,,,60fb2cd6d4e01d29d28c7f36,610368944c5946437063b123,2021-07-30_04h49.52.292,Simcolourproject_2stim_asymm_v5,2020.2.10,Win32,60,61025ae37ef11b136ea224fe,,,,,,,,,1275,52,-35,1,0,0,response3disk,,5,-10,10,1,0,0,rectangle,-10,10,1,0,0,-10,10,1,0,0,1,120,280,38,1,,,,,,,,
,,,,,,,,,,,,,FF,,,,,,,,2.0515,,,,,,,,,,,,,,,,,,,,,,60fb2cd6d4e01d29d28c7f36,610368944c5946437063b123,2021-07-30_04h49.52.292,Simcolourproject_2stim_asymm_v5,2020.2.10,Win32,60,61025ae37ef11b136ea224fe,,,,,,,,,1048,56,-36,1,0,0,response3disk,,5,5,1,1,0,0,rectangle,5,1,1,0,0,5,1,1,0,0,1,121,281,99,1,,,,,,,,
,,,,,,,,,,,,,FF,,,,,,,,1.3716,,,,,,,,,,,,,,,,,,,,,,60fb2cd6d4e01d29d28c7f36,610368944c5946437063b123,2021-07-30_04h49.52.292,Simcolourproject_2stim_asymm_v5,2020.2.10,Win32,60,61025ae37ef11b136ea224fe,,,,,,,,,749,21,45,1,0,0,response1disk,,7,8,12,1,0,0,rectangle,8,12,1,0,0,8,12,1,0,0,1,122,282,148,1,,,,,,,,
,,,,,,,,,,,,,FF,,,,,,,,2.1527,,,,,,,,,,,,,,,,,,,,,,60fb2cd6d4e01d29d28c7f36,610368944c5946437063b123,2021-07-30_04h49.52.292,Simcolourproject_2stim_asymm_v5,2020.2.10,Win32,60,61025ae37ef11b136ea224fe,,,,,,,,,619,27,-36,1,0,0,response3disk,,4,6,5,1,0,0,rectangle,6,5,1,0,0,6,5,1,0,0,1,123,283,37,1,,,,,,,,
,,,,,,,,,,,,,FF,,,,,,,,1.254,,,,,,,,,,,,,,,,,,,,,,60fb2cd6d4e01d29d28c7f36,610368944c5946437063b123,2021-07-30_04h49.52.292,Simcolourproject_2stim_asymm_v5,2020.2.10,Win32,60,61025ae37ef11b136ea224fe,,,,,,,,,1878,20,47,1,0,0,response1disk,,7,6,-6,1,0,0,rectangle,6,-6,1,0,0,6,-6,1,0,0,1,124,284,116,1,,,,,,,,
,,,,,,,,,,,,,FF,,,,,,,,2.4838,,,,,,,,,,,,,,,,,,,,,,60fb2cd6d4e01d29d28c7f36,610368944c5946437063b123,2021-07-30_04h49.52.292,Simcolourproject_2stim_asymm_v5,2020.2.10,Win32,60,61025ae37ef11b136ea224fe,,,,,,,,,881,30,-42,1,0,0,response3disk,,4,20,-5,1,0,0,rectangle,26,-63,1,0,0,16,-7,1,0,0,1,125,285,49,1,,response3disk_3,TRUE,4,4,"[145,293,191,157,52,304,35,27,205,91,249,134,234,77,73,286,223,93,88,170]",2.3893,rectangle
,,,,,,,,,,,,,FF,,,,,,,,1.3376,,,,,,,,,,,,,,,,,,,,,,60fb2cd6d4e01d29d28c7f36,610368944c5946437063b123,2021-07-30_04h49.52.292,Simcolourproject_2stim_asymm_v5,2020.2.10,Win32,60,61025ae37ef11b136ea224fe,,,,,,,,,2790,23,43,1,0,0,response1disk,,7,1,-5,1,0,0,rectangle,1,-5,1,0,0,1,-5,1,0,0,1,126,286,126,1,,,,,,,,
,,,,,,,,,,,,,FF,,,,,,,,2.1206,,,,,,,,,,,,,,,,,,,,,,60fb2cd6d4e01d29d28c7f36,610368944c5946437063b123,2021-07-30_04h49.52.292,Simcolourproject_2stim_asymm_v5,2020.2.10,Win32,60,61025ae37ef11b136ea224fe,,,,,,,,,3150,50,-24,1,0,0,response3disk,,5,18,11,1,0,0,rectangle,18,11,1,0,0,18,11,1,0,0,1,127,287,114,1,,,,,,,,
,,,,,,,,,,,,,FF,,,,,,,,3.4361,,,,,,,,,,,,,,,,,,,,,,60fb2cd6d4e01d29d28c7f36,610368944c5946437063b123,2021-07-30_04h49.52.292,Simcolourproject_2stim_asymm_v5,2020.2.10,Win32,60,61025ae37ef11b136ea224fe,,,,,,,,,1580,31,29,1,0,0,response1disk,,6,9,6,1,0,0,rectangle,9,6,1,0,0,9,6,1,0,0,1,128,288,109,1,,,,,,,,
,,,,,,,,,,,,,FF,,,,,,,,1.2662,,,,,,,,,,,,,,,,,,,,,,60fb2cd6d4e01d29d28c7f36,610368944c5946437063b123,2021-07-30_04h49.52.292,Simcolourproject_2stim_asymm_v5,2020.2.10,Win32,60,61025ae37ef11b136ea224fe,,,,,,,,,3994,23,33,1,0,0,response1disk,,7,15,8,1,0,0,rectangle,15,8,1,0,0,15,8,1,0,0,1,129,289,16,1,,,,,,,,
,,,,,,,,,,,,,FF,,,,,,,,2.7496,,,,,,,,,,,,,,,,,,,,,,60fb2cd6d4e01d29d28c7f36,610368944c5946437063b123,2021-07-30_04h49.52.292,Simcolourproject_2stim_asymm_v5,2020.2.10,Win32,60,61025ae37ef11b136ea224fe,,,,,,,,,3819,-23,-54,1,0,0,response5disk,,3,3,12,1,0,0,rectangle,3,12,1,0,0,3,12,1,0,0,1,130,290,32,1,,,,,,,,
,,,,,,,,,,,,,FF,,,,,,,,1.4524,,,,,,,,,,,,,,,,,,,,,,60fb2cd6d4e01d29d28c7f36,610368944c5946437063b123,2021-07-30_04h49.52.292,Simcolourproject_2stim_asymm_v5,2020.2.10,Win32,60,61025ae37ef11b136ea224fe,,,,,,,,,3707,-24,63,1,0,0,response7disk,,0,-5,-1,1,0,0,rectangle,-5,-1,1,0,0,-5,-1,1,0,0,1,131,291,105,1,,,,,,,,
,,,,,,,,,,,,,FF,,,,,,,,1.7658,,,,,,,,,,,,,,,,,,,,,,60fb2cd6d4e01d29d28c7f36,610368944c5946437063b123,2021-07-30_04h49.52.292,Simcolourproject_2stim_asymm_v5,2020.2.10,Win32,60,61025ae37ef11b136ea224fe,,,,,,,,,4287,26,53,1,0,0,response1disk,,7,4,7,1,0,0,rectangle,-81,37,1,0,0,9,-8,1,0,0,1,132,292,104,1,,response7disk_3,TRUE,1,1,"[145,293,191,157,52,304,35,27,205,91,249,134,234,77,73,286,223,93,88,170]",2.6993,rectangle
,,,,,,,,,,,,,FF,,,,,,,,2.667,,,,,,,,,,,,,,,,,,,,,,60fb2cd6d4e01d29d28c7f36,610368944c5946437063b123,2021-07-30_04h49.52.292,Simcolourproject_2stim_asymm_v5,2020.2.10,Win32,60,61025ae37ef11b136ea224fe,,,,,,,,,2096,-25,-32,1,0,0,response5disk,,3,-8,1,1,0,0,rectangle,-8,1,1,0,0,-8,1,1,0,0,1,133,293,64,1,,,,,,,,
,,,,,,,,,,,,,FF,,,,,,,,1.8016,,,,,,,,,,,,,,,,,,,,,,60fb2cd6d4e01d29d28c7f36,610368944c5946437063b123,2021-07-30_04h49.52.292,Simcolourproject_2stim_asymm_v5,2020.2.10,Win32,60,61025ae37ef11b136ea224fe,,,,,,,,,3104,38,-60,1,0,0,response3disk,,4,6,-1,1,0,0,rectangle,6,-1,1,0,0,6,-1,1,0,0,1,134,294,119,1,,,,,,,,
,,,,,,,,,,,,,FF,,,,,,,,2.1506,,,,,,,,,,,,,,,,,,,,,,60fb2cd6d4e01d29d28c7f36,610368944c5946437063b123,2021-07-30_04h49.52.292,Simcolourproject_2stim_asymm_v5,2020.2.10,Win32,60,61025ae37ef11b136ea224fe,,,,,,,,,2879,42,24,1,0,0,response1disk,,6,18,7,1,0,0,rectangle,18,7,1,0,0,18,7,1,0,0,1,135,295,66,1,,,,,,,,
,,,,,,,,,,,,,FF,,,,,,,,1.084,,,,,,,,,,,,,,,,,,,,,,60fb2cd6d4e01d29d28c7f36,610368944c5946437063b123,2021-07-30_04h49.52.292,Simcolourproject_2stim_asymm_v5,2020.2.10,Win32,60,61025ae37ef11b136ea224fe,,,,,,,,,4221,39,27,1,0,0,response1disk,,6,17,2,1,0,0,rectangle,17,2,1,0,0,17,2,1,0,0,1,136,296,8,1,,,,,,,,
,,,,,,,,,,,,,FF,,,,,,,,1.1338,,,,,,,,,,,,,,,,,,,,,,60fb2cd6d4e01d29d28c7f36,610368944c5946437063b123,2021-07-30_04h49.52.292,Simcolourproject_2stim_asymm_v5,2020.2.10,Win32,60,61025ae37ef11b136ea224fe,,,,,,,,,2121,48,40,1,0,0,response1disk,,6,11,-2,1,0,0,rectangle,11,-2,1,0,0,11,-2,1,0,0,1,137,297,117,1,,,,,,,,
,,,,,,,,,,,,,FF,,,,,,,,1.0205,,,,,,,,,,,,,,,,,,,,,,60fb2cd6d4e01d29d28c7f36,610368944c5946437063b123,2021-07-30_04h49.52.292,Simcolourproject_2stim_asymm_v5,2020.2.10,Win32,60,61025ae37ef11b136ea224fe,,,,,,,,,502,44,25,1,0,0,response1disk,,6,6,5,1,0,0,rectangle,6,5,1,0,0,6,5,1,0,0,1,138,298,86,1,,,,,,,,
,,,,,,,,,,,,,FF,,,,,,,,1.302,,,,,,,,,,,,,,,,,,,,,,60fb2cd6d4e01d29d28c7f36,610368944c5946437063b123,2021-07-30_04h49.52.292,Simcolourproject_2stim_asymm_v5,2020.2.10,Win32,60,61025ae37ef11b136ea224fe,,,,,,,,,3055,21,40,1,0,0,response1disk,,7,11,14,1,0,0,rectangle,11,14,1,0,0,11,14,1,0,0,1,139,299,17,1,,,,,,,,
,,,,,,,,,,,,,FF,,,,,,,,1.0027,,,,,,,,,,,,,,,,,,,,,,60fb2cd6d4e01d29d28c7f36,610368944c5946437063b123,2021-07-30_04h49.52.292,Simcolourproject_2stim_asymm_v5,2020.2.10,Win32,60,61025ae37ef11b136ea224fe,,,,,,,,,514,28,49,1,0,0,response1disk,,7,7,9,1,0,0,rectangle,7,9,1,0,0,7,9,1,0,0,1,140,300,147,1,,,,,,,,
,,,,,,,,,,,,,FF,,,,,,,,1.037,,,,,,,,,,,,,,,,,,,,,,60fb2cd6d4e01d29d28c7f36,610368944c5946437063b123,2021-07-30_04h49.52.292,Simcolourproject_2stim_asymm_v5,2020.2.10,Win32,60,61025ae37ef11b136ea224fe,,,,,,,,,2015,27,50,1,0,0,response1disk,,7,4,-1,1,0,0,rectangle,4,-1,1,0,0,4,-1,1,0,0,1,141,301,6,1,,,,,,,,
,,,,,,,,,,,,,FF,,,,,,,,2.3879,,,,,,,,,,,,,,,,,,,,,,60fb2cd6d4e01d29d28c7f36,610368944c5946437063b123,2021-07-30_04h49.52.292,Simcolourproject_2stim_asymm_v5,2020.2.10,Win32,60,61025ae37ef11b136ea224fe,,,,,,,,,2263,-19,-32,1,0,0,response5disk,,3,1,8,1,0,0,rectangle,1,8,1,0,0,1,8,1,0,0,1,142,302,42,1,,,,,,,,
,,,,,,,,,,,,,FF,,,,,,,,1.6994,,,,,,,,,,,,,,,,,,,,,,60fb2cd6d4e01d29d28c7f36,610368944c5946437063b123,2021-07-30_04h49.52.292,Simcolourproject_2stim_asymm_v5,2020.2.10,Win32,60,61025ae37ef11b136ea224fe,,,,,,,,,2861,23,42,1,0,0,response1disk,,7,0,0,1,0,0,rectangle,24,62,1,0,0,8,-7,1,0,0,1,143,303,47,1,,response1disk_3,TRUE,7,7,"[145,293,191,157,52,304,35,27,205,91,249,134,234,77,73,286,223,93,88,170]",3.0336,rectangle
