key_resp.keys,key_resp.rt,key_resp_14.keys,key_resp_14.rt,key_resp_15.keys,key_resp_15.rt,key_resp_17.keys,key_resp_17.rt,key_resp_9.keys,key_resp_9.rt,key_resp_10.keys,key_resp_10.rt,practice_comparison,Ecc,mouse_5.x,mouse_5.y,mouse_5.leftButton,mouse_5.midButton,mouse_5.rightButton,mouse_5.clicked_name,pracsimilarity,response_time,mouse_10.x,mouse_10.y,mouse_10.leftButton,mouse_10.midButton,mouse_10.rightButton,mouse_10.clicked_name,mouse_7.x,mouse_7.y,mouse_7.leftButton,mouse_7.midButton,mouse_7.rightButton,mouse_6.x,mouse_6.y,mouse_6.leftButton,mouse_6.midButton,mouse_6.rightButton,duringprac.thisRepN,duringprac.thisTrialN,duringprac.thisN,duringprac.thisIndex,duringprac.ran,participant,session,date,expName,psychopyVersion,OS,frameRate,study_id,mouse_7.clicked_name,catchpracsimilarity,catch_response_time,catchnumberprac,catchtrialorderprac,mouse_6.clicked_name,key_resp_22.keys,key_resp_22.rt,realcomparison,mouse.x,mouse.y,mouse.leftButton,mouse.midButton,mouse.rightButton,mouse.clicked_name,Colour2,similarity,mouse_2.x,mouse_2.y,mouse_2.leftButton,mouse_2.midButton,mouse_2.rightButton,mouse_2.clicked_name,mouse_3.x,mouse_3.y,mouse_3.leftButton,mouse_3.midButton,mouse_3.rightButton,mouse_11.x,mouse_11.y,mouse_11.leftButton,mouse_11.midButton,mouse_11.rightButton,trials_2.thisRepN,trials_2.thisTrialN,trials_2.thisN,trials_2.thisIndex,trials_2.ran,Colour1,mouse_3.clicked_name,catchornah,catchsimilarity,catchnumber,catchtrialorder,catchRT,mouse_11.clicked_name
space,1.2055,space,12.0134,space,12.0009,space,6.8946,space,0.8828,space,3.6645,130,PF,87.01171875,-76.7578125,1,0,0,response3disk_5,5,24.8707,-0.5078125,-1.8984375,1,0,0,rectangle_8,-0.5078125,-1.8984375,1,0,0,-0.5078125,-1.8984375,1,0,0,0,0,0,2,1,60fbd8a8cfb0ae114d24ae48,61036efc0c3e88f62ed67503,2021-07-29_23h15.53.053,Simcolourproject_2stim_asymm_v5,2020.2.10,MacIntel,60,61025ae37ef11b136ea224fe,,,,,,,,,,,,,,,,,,,,,,,,,,,,,,,,,,,,,,,,,,,,,,
,,,,,,,,,,,,72,FF,100.625,40.37890625,1,0,0,response1disk_5,6,6.4674,2.44140625,-7.828125,1,0,0,rectangle_8,75.34375,23.91015625,1,0,0,-0.7421875,-4.92578125,1,0,0,0,1,1,0,1,60fbd8a8cfb0ae114d24ae48,61036efc0c3e88f62ed67503,2021-07-29_23h15.53.053,Simcolourproject_2stim_asymm_v5,2020.2.10,MacIntel,60,61025ae37ef11b136ea224fe,response1disk_7,6,3.0846,6,"[2,5]",rectangle_4,,,,,,,,,,,,,,,,,,,,,,,,,,,,,,,,,,,,,,,,
,,,,,,,,,,,,137,FF,89.98828125,39.79296875,1,0,0,response1disk_5,6,1.8326,4.234375,-0.9375,1,0,0,rectangle_8,4.234375,-0.9375,1,0,0,4.234375,-0.9375,1,0,0,0,2,2,3,1,60fbd8a8cfb0ae114d24ae48,61036efc0c3e88f62ed67503,2021-07-29_23h15.53.053,Simcolourproject_2stim_asymm_v5,2020.2.10,MacIntel,60,61025ae37ef11b136ea224fe,,,,,,,,,,,,,,,,,,,,,,,,,,,,,,,,,,,,,,,,,,,,,,
,,,,,,,,,,,,34,PF,-87.1015625,-45.421875,1,0,0,response5disk_5,2,2.1498,3.921875,-1.421875,1,0,0,rectangle_8,3.921875,-1.421875,1,0,0,3.921875,-1.421875,1,0,0,0,3,3,1,1,60fbd8a8cfb0ae114d24ae48,61036efc0c3e88f62ed67503,2021-07-29_23h15.53.053,Simcolourproject_2stim_asymm_v5,2020.2.10,MacIntel,60,61025ae37ef11b136ea224fe,,,,,,,,,,,,,,,,,,,,,,,,,,,,,,,,,,,,,,,,,,,,,,
,,,,,,,,,,,,114,PF,-39.421875,-104.4023438,1,0,0,response5disk_5,3,3.2332,-10.66015625,-3.8046875,1,0,0,rectangle_8,73.73828125,32.92578125,1,0,0,-9.296875,-9.375,1,0,0,0,4,4,6,1,60fbd8a8cfb0ae114d24ae48,61036efc0c3e88f62ed67503,2021-07-29_23h15.53.053,Simcolourproject_2stim_asymm_v5,2020.2.10,MacIntel,60,61025ae37ef11b136ea224fe,response1disk_7,6,1.9686,6,"[2,5]",rectangle_4,,,,,,,,,,,,,,,,,,,,,,,,,,,,,,,,,,,,,,,,
,,,,,,,,,,,,106,FF,51.50390625,-96.40234375,1,0,0,response3disk_5,4,3.4521,-0.12109375,-4.37890625,1,0,0,rectangle_8,-0.12109375,-4.37890625,1,0,0,-0.12109375,-4.37890625,1,0,0,0,5,5,5,1,60fbd8a8cfb0ae114d24ae48,61036efc0c3e88f62ed67503,2021-07-29_23h15.53.053,Simcolourproject_2stim_asymm_v5,2020.2.10,MacIntel,60,61025ae37ef11b136ea224fe,,,,,,,,,,,,,,,,,,,,,,,,,,,,,,,,,,,,,,,,,,,,,,
,,,,,,,,,,,,128,PF,47.2421875,90.2890625,1,0,0,response1disk_5,7,1.232,16.53515625,0.76171875,1,0,0,rectangle_8,16.53515625,0.76171875,1,0,0,16.53515625,0.76171875,1,0,0,0,6,6,4,1,60fbd8a8cfb0ae114d24ae48,61036efc0c3e88f62ed67503,2021-07-29_23h15.53.053,Simcolourproject_2stim_asymm_v5,2020.2.10,MacIntel,60,61025ae37ef11b136ea224fe,,,,,,,,,,,,,,,,,,,,,,,,,,,,,,,,,,,,,,,,,,,,,,
,,,,,,,,,,,,,FF,,,,,,,,2.5495,,,,,,,,,,,,,,,,,,,,,,60fbd8a8cfb0ae114d24ae48,61036efc0c3e88f62ed67503,2021-07-29_23h15.53.053,Simcolourproject_2stim_asymm_v5,2020.2.10,MacIntel,60,61025ae37ef11b136ea224fe,,,,,,,space,3.0495,3348,95.60546875,-41.984375,1,0,0,response3disk,,5,0.12109375,-6.30078125,1,0,0,rectangle,0.12109375,-6.30078125,1,0,0,0.12109375,-6.30078125,1,0,0,0,0,0,20,1,,,,,,,,
,,,,,,,,,,,,,FF,,,,,,,,1.6004,,,,,,,,,,,,,,,,,,,,,,60fbd8a8cfb0ae114d24ae48,61036efc0c3e88f62ed67503,2021-07-29_23h15.53.053,Simcolourproject_2stim_asymm_v5,2020.2.10,MacIntel,60,61025ae37ef11b136ea224fe,,,,,,,,,59,49.4296875,-95.671875,1,0,0,response3disk,,4,0.6640625,-5.6171875,1,0,0,rectangle,0.6640625,-5.6171875,1,0,0,0.6640625,-5.6171875,1,0,0,0,1,1,58,1,,,,,,,,
,,,,,,,,,,,,,FF,,,,,,,,2.0344,,,,,,,,,,,,,,,,,,,,,,60fbd8a8cfb0ae114d24ae48,61036efc0c3e88f62ed67503,2021-07-29_23h15.53.053,Simcolourproject_2stim_asymm_v5,2020.2.10,MacIntel,60,61025ae37ef11b136ea224fe,,,,,,,,,4364,-94.9609375,-40.8515625,1,0,0,response5disk,,2,-1.6953125,-5.015625,1,0,0,rectangle,-1.6953125,-5.015625,1,0,0,-1.6953125,-5.015625,1,0,0,0,2,2,56,1,,,,,,,,
,,,,,,,,,,,,,FF,,,,,,,,0.9992,,,,,,,,,,,,,,,,,,,,,,60fbd8a8cfb0ae114d24ae48,61036efc0c3e88f62ed67503,2021-07-29_23h15.53.053,Simcolourproject_2stim_asymm_v5,2020.2.10,MacIntel,60,61025ae37ef11b136ea224fe,,,,,,,,,325,89.37890625,53.7109375,1,0,0,response1disk,,6,-4.49609375,-2.765625,1,0,0,rectangle,-4.49609375,-2.765625,1,0,0,-4.49609375,-2.765625,1,0,0,0,3,3,82,1,,,,,,,,
,,,,,,,,,,,,,FF,,,,,,,,3.6501,,,,,,,,,,,,,,,,,,,,,,60fbd8a8cfb0ae114d24ae48,61036efc0c3e88f62ed67503,2021-07-29_23h15.53.053,Simcolourproject_2stim_asymm_v5,2020.2.10,MacIntel,60,61025ae37ef11b136ea224fe,,,,,,,,,4212,70.6640625,26.98828125,1,0,0,response1disk,,6,22.94140625,1.296875,1,0,0,rectangle,22.94140625,1.296875,1,0,0,22.94140625,1.296875,1,0,0,0,4,4,137,1,,,,,,,,
,,,,,,,,,,,,,FF,,,,,,,,1.2336,,,,,,,,,,,,,,,,,,,,,,60fbd8a8cfb0ae114d24ae48,61036efc0c3e88f62ed67503,2021-07-29_23h15.53.053,Simcolourproject_2stim_asymm_v5,2020.2.10,MacIntel,60,61025ae37ef11b136ea224fe,,,,,,,,,845,81.7578125,-38.765625,1,0,0,response3disk,,5,2.2421875,-3.21484375,1,0,0,rectangle,2.2421875,-3.21484375,1,0,0,2.2421875,-3.21484375,1,0,0,0,5,5,65,1,,,,,,,,
,,,,,,,,,,,,,FF,,,,,,,,1.3491,,,,,,,,,,,,,,,,,,,,,,60fbd8a8cfb0ae114d24ae48,61036efc0c3e88f62ed67503,2021-07-29_23h15.53.053,Simcolourproject_2stim_asymm_v5,2020.2.10,MacIntel,60,61025ae37ef11b136ea224fe,,,,,,,,,3647,92.1328125,-48.72265625,1,0,0,response3disk,,5,3.234375,-6.2265625,1,0,0,rectangle,3.234375,-6.2265625,1,0,0,3.234375,-6.2265625,1,0,0,0,6,6,104,1,,,,,,,,
,,,,,,,,,,,,,FF,,,,,,,,2.7673,,,,,,,,,,,,,,,,,,,,,,60fbd8a8cfb0ae114d24ae48,61036efc0c3e88f62ed67503,2021-07-29_23h15.53.053,Simcolourproject_2stim_asymm_v5,2020.2.10,MacIntel,60,61025ae37ef11b136ea224fe,,,,,,,,,2367,-76.65625,-47.85546875,1,0,0,response5disk,,2,-16.33203125,-1.16015625,1,0,0,rectangle,-16.33203125,-1.16015625,1,0,0,-16.33203125,-1.16015625,1,0,0,0,7,7,101,1,,,,,,,,
,,,,,,,,,,,,,FF,,,,,,,,0.9998,,,,,,,,,,,,,,,,,,,,,,60fbd8a8cfb0ae114d24ae48,61036efc0c3e88f62ed67503,2021-07-29_23h15.53.053,Simcolourproject_2stim_asymm_v5,2020.2.10,MacIntel,60,61025ae37ef11b136ea224fe,,,,,,,,,1914,49.27734375,-65.984375,1,0,0,response3disk,,4,6.82421875,-3.57421875,1,0,0,rectangle,6.82421875,-3.57421875,1,0,0,6.82421875,-3.57421875,1,0,0,0,8,8,111,1,,,,,,,,
,,,,,,,,,,,,,FF,,,,,,,,5.6342,,,,,,,,,,,,,,,,,,,,,,60fbd8a8cfb0ae114d24ae48,61036efc0c3e88f62ed67503,2021-07-29_23h15.53.053,Simcolourproject_2stim_asymm_v5,2020.2.10,MacIntel,60,61025ae37ef11b136ea224fe,,,,,,,,,2403,-32.26171875,-60.8515625,1,0,0,response5disk,,3,7.00390625,-9.30859375,1,0,0,rectangle,92.03515625,28.52734375,1,0,0,-0.27734375,-5.71875,1,0,0,0,9,9,147,1,,response1disk_3,TRUE,6,6,"[13,172,18,232,212,69,146,77,206,94,293,195,276,78,51,10,160,170,25,280]",1.418,rectangle
,,,,,,,,,,,,,FF,,,,,,,,1.2352,,,,,,,,,,,,,,,,,,,,,,60fbd8a8cfb0ae114d24ae48,61036efc0c3e88f62ed67503,2021-07-29_23h15.53.053,Simcolourproject_2stim_asymm_v5,2020.2.10,MacIntel,60,61025ae37ef11b136ea224fe,,,,,,,,,2672,-39.80859375,-64.00390625,1,0,0,response5disk,,3,-14.87890625,-9.10546875,1,0,0,rectangle,-14.87890625,-9.10546875,1,0,0,-14.87890625,-9.10546875,1,0,0,0,10,10,11,1,,,,,,,,
,,,,,,,,,,,,,FF,,,,,,,,1.5829,,,,,,,,,,,,,,,,,,,,,,60fbd8a8cfb0ae114d24ae48,61036efc0c3e88f62ed67503,2021-07-29_23h15.53.053,Simcolourproject_2stim_asymm_v5,2020.2.10,MacIntel,60,61025ae37ef11b136ea224fe,,,,,,,,,3962,94.42578125,-26.671875,1,0,0,response3disk,,5,3.73828125,-12.92578125,1,0,0,rectangle,3.73828125,-12.92578125,1,0,0,3.73828125,-12.92578125,1,0,0,0,11,11,24,1,,,,,,,,
,,,,,,,,,,,,,FF,,,,,,,,2.3489,,,,,,,,,,,,,,,,,,,,,,60fbd8a8cfb0ae114d24ae48,61036efc0c3e88f62ed67503,2021-07-29_23h15.53.053,Simcolourproject_2stim_asymm_v5,2020.2.10,MacIntel,60,61025ae37ef11b136ea224fe,,,,,,,,,3765,55.1796875,73.890625,1,0,0,response1disk,,7,18.03125,6.8984375,1,0,0,rectangle,20.421875,-87.83203125,1,0,0,-4.921875,2.3671875,1,0,0,0,12,12,68,1,,response3disk_3,TRUE,4,4,"[13,172,18,232,212,69,146,77,206,94,293,195,276,78,51,10,160,170,25,280]",2.0998,rectangle
,,,,,,,,,,,,,FF,,,,,,,,0.9502,,,,,,,,,,,,,,,,,,,,,,60fbd8a8cfb0ae114d24ae48,61036efc0c3e88f62ed67503,2021-07-29_23h15.53.053,Simcolourproject_2stim_asymm_v5,2020.2.10,MacIntel,60,61025ae37ef11b136ea224fe,,,,,,,,,1263,89.64453125,33.4140625,1,0,0,response1disk,,6,7.91015625,3.43359375,1,0,0,rectangle,7.91015625,3.43359375,1,0,0,7.91015625,3.43359375,1,0,0,0,13,13,10,1,,,,,,,,
,,,,,,,,,,,,,FF,,,,,,,,1.099,,,,,,,,,,,,,,,,,,,,,,60fbd8a8cfb0ae114d24ae48,61036efc0c3e88f62ed67503,2021-07-29_23h15.53.053,Simcolourproject_2stim_asymm_v5,2020.2.10,MacIntel,60,61025ae37ef11b136ea224fe,,,,,,,,,4061,-45.0390625,-72.7109375,1,0,0,response5disk,,3,-6.53125,-4.6953125,1,0,0,rectangle,-6.53125,-4.6953125,1,0,0,-6.53125,-4.6953125,1,0,0,0,14,14,47,1,,,,,,,,
,,,,,,,,,,,,,FF,,,,,,,,1.2333,,,,,,,,,,,,,,,,,,,,,,60fbd8a8cfb0ae114d24ae48,61036efc0c3e88f62ed67503,2021-07-29_23h15.53.053,Simcolourproject_2stim_asymm_v5,2020.2.10,MacIntel,60,61025ae37ef11b136ea224fe,,,,,,,,,1106,46.484375,74.6015625,1,0,0,response1disk,,7,14.671875,0.9609375,1,0,0,rectangle,14.671875,0.9609375,1,0,0,14.671875,0.9609375,1,0,0,0,15,15,85,1,,,,,,,,
,,,,,,,,,,,,,FF,,,,,,,,1.233,,,,,,,,,,,,,,,,,,,,,,60fbd8a8cfb0ae114d24ae48,61036efc0c3e88f62ed67503,2021-07-29_23h15.53.053,Simcolourproject_2stim_asymm_v5,2020.2.10,MacIntel,60,61025ae37ef11b136ea224fe,,,,,,,,,1248,-45.8203125,-75.6640625,1,0,0,response5disk,,3,-10.05078125,-4.5703125,1,0,0,rectangle,-10.05078125,-4.5703125,1,0,0,-10.05078125,-4.5703125,1,0,0,0,16,16,0,1,,,,,,,,
,,,,,,,,,,,,,FF,,,,,,,,0.9675,,,,,,,,,,,,,,,,,,,,,,60fbd8a8cfb0ae114d24ae48,61036efc0c3e88f62ed67503,2021-07-29_23h15.53.053,Simcolourproject_2stim_asymm_v5,2020.2.10,MacIntel,60,61025ae37ef11b136ea224fe,,,,,,,,,3380,85.71875,45.21484375,1,0,0,response1disk,,6,7.90234375,0.4921875,1,0,0,rectangle,-86.296875,33.48046875,1,0,0,3.79296875,-1.14453125,1,0,0,0,17,17,17,1,,response7disk_3,TRUE,1,1,"[13,172,18,232,212,69,146,77,206,94,293,195,276,78,51,10,160,170,25,280]",1.3838,rectangle
,,,,,,,,,,,,,FF,,,,,,,,0.7003,,,,,,,,,,,,,,,,,,,,,,60fbd8a8cfb0ae114d24ae48,61036efc0c3e88f62ed67503,2021-07-29_23h15.53.053,Simcolourproject_2stim_asymm_v5,2020.2.10,MacIntel,60,61025ae37ef11b136ea224fe,,,,,,,,,1458,-63.89453125,-30.52734375,1,0,0,response5disk,,2,-21.96484375,6.3046875,1,0,0,rectangle,-21.96484375,6.3046875,1,0,0,-21.96484375,6.3046875,1,0,0,0,18,18,110,1,,,,,,,,
,,,,,,,,,,,,,FF,,,,,,,,2.4834,,,,,,,,,,,,,,,,,,,,,,60fbd8a8cfb0ae114d24ae48,61036efc0c3e88f62ed67503,2021-07-29_23h15.53.053,Simcolourproject_2stim_asymm_v5,2020.2.10,MacIntel,60,61025ae37ef11b136ea224fe,,,,,,,,,2479,85.7109375,46.3671875,1,0,0,response1disk,,6,3.9765625,-1.1015625,1,0,0,rectangle,3.9765625,-1.1015625,1,0,0,3.9765625,-1.1015625,1,0,0,0,19,19,136,1,,,,,,,,
,,,,,,,,,,,,,FF,,,,,,,,1.2664,,,,,,,,,,,,,,,,,,,,,,60fbd8a8cfb0ae114d24ae48,61036efc0c3e88f62ed67503,2021-07-29_23h15.53.053,Simcolourproject_2stim_asymm_v5,2020.2.10,MacIntel,60,61025ae37ef11b136ea224fe,,,,,,,,,1352,-70.8984375,-35.0390625,1,0,0,response5disk,,2,-6.70703125,-1.19921875,1,0,0,rectangle,-6.70703125,-1.19921875,1,0,0,-6.70703125,-1.19921875,1,0,0,0,20,20,129,1,,,,,,,,
,,,,,,,,,,,,,FF,,,,,,,,1.0168,,,,,,,,,,,,,,,,,,,,,,60fbd8a8cfb0ae114d24ae48,61036efc0c3e88f62ed67503,2021-07-29_23h15.53.053,Simcolourproject_2stim_asymm_v5,2020.2.10,MacIntel,60,61025ae37ef11b136ea224fe,,,,,,,,,257,-40.05859375,-58.359375,1,0,0,response5disk,,3,-5.73828125,-7.46875,1,0,0,rectangle,-5.73828125,-7.46875,1,0,0,-5.73828125,-7.46875,1,0,0,0,21,21,37,1,,,,,,,,
,,,,,,,,,,,,,FF,,,,,,,,0.7991,,,,,,,,,,,,,,,,,,,,,,60fbd8a8cfb0ae114d24ae48,61036efc0c3e88f62ed67503,2021-07-29_23h15.53.053,Simcolourproject_2stim_asymm_v5,2020.2.10,MacIntel,60,61025ae37ef11b136ea224fe,,,,,,,,,1442,-31.6640625,-72.82421875,1,0,0,response5disk,,3,-5.98046875,-11.46484375,1,0,0,rectangle,-5.98046875,-11.46484375,1,0,0,-5.98046875,-11.46484375,1,0,0,0,22,22,5,1,,,,,,,,
,,,,,,,,,,,,,FF,,,,,,,,0.6334,,,,,,,,,,,,,,,,,,,,,,60fbd8a8cfb0ae114d24ae48,61036efc0c3e88f62ed67503,2021-07-29_23h15.53.053,Simcolourproject_2stim_asymm_v5,2020.2.10,MacIntel,60,61025ae37ef11b136ea224fe,,,,,,,,,2798,-37.16796875,-68.4453125,1,0,0,response5disk,,3,-12.15234375,-6.5625,1,0,0,rectangle,-12.15234375,-6.5625,1,0,0,-12.15234375,-6.5625,1,0,0,0,23,23,102,1,,,,,,,,
,,,,,,,,,,,,,FF,,,,,,,,0.8496,,,,,,,,,,,,,,,,,,,,,,60fbd8a8cfb0ae114d24ae48,61036efc0c3e88f62ed67503,2021-07-29_23h15.53.053,Simcolourproject_2stim_asymm_v5,2020.2.10,MacIntel,60,61025ae37ef11b136ea224fe,,,,,,,,,1683,-82.49609375,21.0546875,1,0,0,response7disk,,1,-17.6640625,2.77734375,1,0,0,rectangle,38.8046875,-94.453125,1,0,0,-0.30078125,-2.6171875,1,0,0,0,24,24,112,1,,response3disk_3,TRUE,4,4,"[13,172,18,232,212,69,146,77,206,94,293,195,276,78,51,10,160,170,25,280]",1.4987,rectangle
,,,,,,,,,,,,,FF,,,,,,,,1.9991,,,,,,,,,,,,,,,,,,,,,,60fbd8a8cfb0ae114d24ae48,61036efc0c3e88f62ed67503,2021-07-29_23h15.53.053,Simcolourproject_2stim_asymm_v5,2020.2.10,MacIntel,60,61025ae37ef11b136ea224fe,,,,,,,,,1973,-90.171875,-25.01953125,1,0,0,response5disk,,2,15.2890625,3.2109375,1,0,0,rectangle,15.2890625,3.2109375,1,0,0,15.2890625,3.2109375,1,0,0,0,25,25,131,1,,,,,,,,
,,,,,,,,,,,,,FF,,,,,,,,0.9163,,,,,,,,,,,,,,,,,,,,,,60fbd8a8cfb0ae114d24ae48,61036efc0c3e88f62ed67503,2021-07-29_23h15.53.053,Simcolourproject_2stim_asymm_v5,2020.2.10,MacIntel,60,61025ae37ef11b136ea224fe,,,,,,,,,2029,-92.15625,30.14453125,1,0,0,response7disk,,1,-6.01171875,4.76953125,1,0,0,rectangle,-6.01171875,4.76953125,1,0,0,-6.01171875,4.76953125,1,0,0,0,26,26,149,1,,,,,,,,
,,,,,,,,,,,,,FF,,,,,,,,1.833,,,,,,,,,,,,,,,,,,,,,,60fbd8a8cfb0ae114d24ae48,61036efc0c3e88f62ed67503,2021-07-29_23h15.53.053,Simcolourproject_2stim_asymm_v5,2020.2.10,MacIntel,60,61025ae37ef11b136ea224fe,,,,,,,,,2576,52.26171875,77.50390625,1,0,0,response1disk,,7,-3.91796875,1.66796875,1,0,0,rectangle,-3.91796875,1.66796875,1,0,0,-3.91796875,1.66796875,1,0,0,0,27,27,6,1,,,,,,,,
,,,,,,,,,,,,,FF,,,,,,,,1.9171,,,,,,,,,,,,,,,,,,,,,,60fbd8a8cfb0ae114d24ae48,61036efc0c3e88f62ed67503,2021-07-29_23h15.53.053,Simcolourproject_2stim_asymm_v5,2020.2.10,MacIntel,60,61025ae37ef11b136ea224fe,,,,,,,,,132,35.10546875,89.62109375,1,0,0,response1disk,,7,13.30078125,3.53515625,1,0,0,rectangle,13.30078125,3.53515625,1,0,0,13.30078125,3.53515625,1,0,0,0,28,28,38,1,,,,,,,,
,,,,,,,,,,,,,FF,,,,,,,,0.9334,,,,,,,,,,,,,,,,,,,,,,60fbd8a8cfb0ae114d24ae48,61036efc0c3e88f62ed67503,2021-07-29_23h15.53.053,Simcolourproject_2stim_asymm_v5,2020.2.10,MacIntel,60,61025ae37ef11b136ea224fe,,,,,,,,,4080,84.3515625,39.96484375,1,0,0,response1disk,,6,17.95703125,-0.9921875,1,0,0,rectangle,17.95703125,-0.9921875,1,0,0,17.95703125,-0.9921875,1,0,0,0,29,29,40,1,,,,,,,,
,,,,,,,,,,,,,FF,,,,,,,,2.4163,,,,,,,,,,,,,,,,,,,,,,60fbd8a8cfb0ae114d24ae48,61036efc0c3e88f62ed67503,2021-07-29_23h15.53.053,Simcolourproject_2stim_asymm_v5,2020.2.10,MacIntel,60,61025ae37ef11b136ea224fe,,,,,,,,,4059,-82.36328125,-50.80078125,1,0,0,response5disk,,2,-3.4609375,-1.59375,1,0,0,rectangle,-3.4609375,-1.59375,1,0,0,-3.4609375,-1.59375,1,0,0,0,30,30,155,1,,,,,,,,
,,,,,,,,,,,,,FF,,,,,,,,1.5327,,,,,,,,,,,,,,,,,,,,,,60fbd8a8cfb0ae114d24ae48,61036efc0c3e88f62ed67503,2021-07-29_23h15.53.053,Simcolourproject_2stim_asymm_v5,2020.2.10,MacIntel,60,61025ae37ef11b136ea224fe,,,,,,,,,2435,-43.21875,-81.66015625,1,0,0,response5disk,,3,-9.08984375,-13.609375,1,0,0,rectangle,-9.08984375,-13.609375,1,0,0,-9.08984375,-13.609375,1,0,0,0,31,31,21,1,,,,,,,,
,,,,,,,,,,,,,FF,,,,,,,,1.0153,,,,,,,,,,,,,,,,,,,,,,60fbd8a8cfb0ae114d24ae48,61036efc0c3e88f62ed67503,2021-07-29_23h15.53.053,Simcolourproject_2stim_asymm_v5,2020.2.10,MacIntel,60,61025ae37ef11b136ea224fe,,,,,,,,,2485,-77.01171875,-44.18359375,1,0,0,response5disk,,2,-13.671875,-6.09765625,1,0,0,rectangle,-13.671875,-6.09765625,1,0,0,-13.671875,-6.09765625,1,0,0,0,32,32,120,1,,,,,,,,
,,,,,,,,,,,,,FF,,,,,,,,0.8,,,,,,,,,,,,,,,,,,,,,,60fbd8a8cfb0ae114d24ae48,61036efc0c3e88f62ed67503,2021-07-29_23h15.53.053,Simcolourproject_2stim_asymm_v5,2020.2.10,MacIntel,60,61025ae37ef11b136ea224fe,,,,,,,,,2993,-82.09765625,36.74609375,1,0,0,response7disk,,1,-3.2890625,1.00390625,1,0,0,rectangle,-3.2890625,1.00390625,1,0,0,-3.2890625,1.00390625,1,0,0,0,33,33,150,1,,,,,,,,
,,,,,,,,,,,,,FF,,,,,,,,0.8004,,,,,,,,,,,,,,,,,,,,,,60fbd8a8cfb0ae114d24ae48,61036efc0c3e88f62ed67503,2021-07-29_23h15.53.053,Simcolourproject_2stim_asymm_v5,2020.2.10,MacIntel,60,61025ae37ef11b136ea224fe,,,,,,,,,2428,-60.15625,-38.81640625,1,0,0,response5disk,,2,-5.41796875,-0.3359375,1,0,0,rectangle,-5.41796875,-0.3359375,1,0,0,-5.41796875,-0.3359375,1,0,0,0,34,34,79,1,,,,,,,,
,,,,,,,,,,,,,FF,,,,,,,,1.2159,,,,,,,,,,,,,,,,,,,,,,60fbd8a8cfb0ae114d24ae48,61036efc0c3e88f62ed67503,2021-07-29_23h15.53.053,Simcolourproject_2stim_asymm_v5,2020.2.10,MacIntel,60,61025ae37ef11b136ea224fe,,,,,,,,,2574,100.2695313,32.3125,1,0,0,response1disk,,6,-0.640625,1.4453125,1,0,0,rectangle,-0.640625,1.4453125,1,0,0,-0.640625,1.4453125,1,0,0,0,35,35,59,1,,,,,,,,
,,,,,,,,,,,,,FF,,,,,,,,0.9668,,,,,,,,,,,,,,,,,,,,,,60fbd8a8cfb0ae114d24ae48,61036efc0c3e88f62ed67503,2021-07-29_23h15.53.053,Simcolourproject_2stim_asymm_v5,2020.2.10,MacIntel,60,61025ae37ef11b136ea224fe,,,,,,,,,792,48.203125,78.1875,1,0,0,response1disk,,7,2.87109375,8.04296875,1,0,0,rectangle,2.87109375,8.04296875,1,0,0,2.87109375,8.04296875,1,0,0,0,36,36,26,1,,,,,,,,
,,,,,,,,,,,,,FF,,,,,,,,1.2685,,,,,,,,,,,,,,,,,,,,,,60fbd8a8cfb0ae114d24ae48,61036efc0c3e88f62ed67503,2021-07-29_23h15.53.053,Simcolourproject_2stim_asymm_v5,2020.2.10,MacIntel,60,61025ae37ef11b136ea224fe,,,,,,,,,674,-54.1171875,-84.1015625,1,0,0,response5disk,,3,-4.3984375,0.4453125,1,0,0,rectangle,-4.3984375,0.4453125,1,0,0,-4.3984375,0.4453125,1,0,0,0,37,37,74,1,,,,,,,,
,,,,,,,,,,,,,FF,,,,,,,,0.8486,,,,,,,,,,,,,,,,,,,,,,60fbd8a8cfb0ae114d24ae48,61036efc0c3e88f62ed67503,2021-07-29_23h15.53.053,Simcolourproject_2stim_asymm_v5,2020.2.10,MacIntel,60,61025ae37ef11b136ea224fe,,,,,,,,,2570,-42.7578125,-76.54296875,1,0,0,response5disk,,3,-2.796875,-1.04296875,1,0,0,rectangle,-2.796875,-1.04296875,1,0,0,-2.796875,-1.04296875,1,0,0,0,38,38,66,1,,,,,,,,
,,,,,,,,,,,,,FF,,,,,,,,0.7825,,,,,,,,,,,,,,,,,,,,,,60fbd8a8cfb0ae114d24ae48,61036efc0c3e88f62ed67503,2021-07-29_23h15.53.053,Simcolourproject_2stim_asymm_v5,2020.2.10,MacIntel,60,61025ae37ef11b136ea224fe,,,,,,,,,4286,20.6015625,-82.53515625,1,0,0,response3disk,,4,4.80859375,-7.2890625,1,0,0,rectangle,4.80859375,-7.2890625,1,0,0,4.80859375,-7.2890625,1,0,0,0,39,39,72,1,,,,,,,,
,,,,,,,,,,,,,FF,,,,,,,,1.3331,,,,,,,,,,,,,,,,,,,,,,60fbd8a8cfb0ae114d24ae48,61036efc0c3e88f62ed67503,2021-07-29_23h15.53.053,Simcolourproject_2stim_asymm_v5,2020.2.10,MacIntel,60,61025ae37ef11b136ea224fe,,,,,,,,,2525,91.9609375,30.74609375,1,0,0,response1disk,,6,8.453125,2.1015625,1,0,0,rectangle,8.453125,2.1015625,1,0,0,8.453125,2.1015625,1,0,0,0,40,40,119,1,,,,,,,,
,,,,,,,,,,,,,FF,,,,,,,,1.2816,,,,,,,,,,,,,,,,,,,,,,60fbd8a8cfb0ae114d24ae48,61036efc0c3e88f62ed67503,2021-07-29_23h15.53.053,Simcolourproject_2stim_asymm_v5,2020.2.10,MacIntel,60,61025ae37ef11b136ea224fe,,,,,,,,,633,-81.4921875,-49.15625,1,0,0,response5disk,,2,-6.6484375,0.12109375,1,0,0,rectangle,-6.6484375,0.12109375,1,0,0,-6.6484375,0.12109375,1,0,0,0,41,41,133,1,,,,,,,,
,,,,,,,,,,,,,FF,,,,,,,,0.7169,,,,,,,,,,,,,,,,,,,,,,60fbd8a8cfb0ae114d24ae48,61036efc0c3e88f62ed67503,2021-07-29_23h15.53.053,Simcolourproject_2stim_asymm_v5,2020.2.10,MacIntel,60,61025ae37ef11b136ea224fe,,,,,,,,,3386,-74.23046875,-35.6328125,1,0,0,response5disk,,2,-1.48046875,-1.5078125,1,0,0,rectangle,-1.48046875,-1.5078125,1,0,0,-1.48046875,-1.5078125,1,0,0,0,42,42,31,1,,,,,,,,
,,,,,,,,,,,,,FF,,,,,,,,1.4669,,,,,,,,,,,,,,,,,,,,,,60fbd8a8cfb0ae114d24ae48,61036efc0c3e88f62ed67503,2021-07-29_23h15.53.053,Simcolourproject_2stim_asymm_v5,2020.2.10,MacIntel,60,61025ae37ef11b136ea224fe,,,,,,,,,501,36.32421875,-71.1796875,1,0,0,response3disk,,4,-1.48046875,-0.8984375,1,0,0,rectangle,-1.48046875,-0.8984375,1,0,0,-1.48046875,-0.8984375,1,0,0,0,43,43,23,1,,,,,,,,
,,,,,,,,,,,,,FF,,,,,,,,1.2171,,,,,,,,,,,,,,,,,,,,,,60fbd8a8cfb0ae114d24ae48,61036efc0c3e88f62ed67503,2021-07-29_23h15.53.053,Simcolourproject_2stim_asymm_v5,2020.2.10,MacIntel,60,61025ae37ef11b136ea224fe,,,,,,,,,1498,38.1875,-71.8828125,1,0,0,response3disk,,4,-7.66015625,-6.32421875,1,0,0,rectangle,-7.66015625,-6.32421875,1,0,0,-7.66015625,-6.32421875,1,0,0,0,44,44,64,1,,,,,,,,
,,,,,,,,,,,,,FF,,,,,,,,1.7846,,,,,,,,,,,,,,,,,,,,,,60fbd8a8cfb0ae114d24ae48,61036efc0c3e88f62ed67503,2021-07-29_23h15.53.053,Simcolourproject_2stim_asymm_v5,2020.2.10,MacIntel,60,61025ae37ef11b136ea224fe,,,,,,,,,3739,-51.1328125,-82.953125,1,0,0,response5disk,,3,-2.078125,-3.71484375,1,0,0,rectangle,-2.078125,-3.71484375,1,0,0,-2.078125,-3.71484375,1,0,0,0,45,45,15,1,,,,,,,,
,,,,,,,,,,,,,FF,,,,,,,,1.4007,,,,,,,,,,,,,,,,,,,,,,60fbd8a8cfb0ae114d24ae48,61036efc0c3e88f62ed67503,2021-07-29_23h15.53.053,Simcolourproject_2stim_asymm_v5,2020.2.10,MacIntel,60,61025ae37ef11b136ea224fe,,,,,,,,,1687,-47.921875,-88.046875,1,0,0,response5disk,,3,-0.94921875,-1.609375,1,0,0,rectangle,-0.94921875,-1.609375,1,0,0,-0.94921875,-1.609375,1,0,0,0,46,46,49,1,,,,,,,,
,,,,,,,,,,,,,FF,,,,,,,,0.95,,,,,,,,,,,,,,,,,,,,,,60fbd8a8cfb0ae114d24ae48,61036efc0c3e88f62ed67503,2021-07-29_23h15.53.053,Simcolourproject_2stim_asymm_v5,2020.2.10,MacIntel,60,61025ae37ef11b136ea224fe,,,,,,,,,2007,102.3085938,34.8203125,1,0,0,response1disk,,6,4.29296875,-1.4296875,1,0,0,rectangle,4.29296875,-1.4296875,1,0,0,4.29296875,-1.4296875,1,0,0,0,47,47,151,1,,,,,,,,
,,,,,,,,,,,,,FF,,,,,,,,1.2172,,,,,,,,,,,,,,,,,,,,,,60fbd8a8cfb0ae114d24ae48,61036efc0c3e88f62ed67503,2021-07-29_23h15.53.053,Simcolourproject_2stim_asymm_v5,2020.2.10,MacIntel,60,61025ae37ef11b136ea224fe,,,,,,,,,2492,87.51953125,51.54296875,1,0,0,response1disk,,6,-11.51171875,-3.86328125,1,0,0,rectangle,-11.51171875,-3.86328125,1,0,0,-11.51171875,-3.86328125,1,0,0,0,48,48,43,1,,,,,,,,
,,,,,,,,,,,,,FF,,,,,,,,0.7667,,,,,,,,,,,,,,,,,,,,,,60fbd8a8cfb0ae114d24ae48,61036efc0c3e88f62ed67503,2021-07-29_23h15.53.053,Simcolourproject_2stim_asymm_v5,2020.2.10,MacIntel,60,61025ae37ef11b136ea224fe,,,,,,,,,4242,46.79296875,69.078125,1,0,0,response1disk,,7,-3.03515625,0.27734375,1,0,0,rectangle,-3.03515625,0.27734375,1,0,0,-3.03515625,0.27734375,1,0,0,0,49,49,158,1,,,,,,,,
,,,,,,,,,,,,,FF,,,,,,,,0.8511,,,,,,,,,,,,,,,,,,,,,,60fbd8a8cfb0ae114d24ae48,61036efc0c3e88f62ed67503,2021-07-29_23h15.53.053,Simcolourproject_2stim_asymm_v5,2020.2.10,MacIntel,60,61025ae37ef11b136ea224fe,,,,,,,,,1510,91.1328125,34.8671875,1,0,0,response1disk,,6,15.68359375,5.2734375,1,0,0,rectangle,35.57421875,-78.703125,1,0,0,-4.59375,6.8125,1,0,0,0,50,50,4,1,,response3disk_3,TRUE,4,4,"[13,172,18,232,212,69,146,77,206,94,293,195,276,78,51,10,160,170,25,280]",1.4654,rectangle
,,,,,,,,,,,,,FF,,,,,,,,1.6666,,,,,,,,,,,,,,,,,,,,,,60fbd8a8cfb0ae114d24ae48,61036efc0c3e88f62ed67503,2021-07-29_23h15.53.053,Simcolourproject_2stim_asymm_v5,2020.2.10,MacIntel,60,61025ae37ef11b136ea224fe,,,,,,,,,3482,-53.203125,-76.39453125,1,0,0,response5disk,,3,-2.98828125,-8.75390625,1,0,0,rectangle,-2.98828125,-8.75390625,1,0,0,-2.98828125,-8.75390625,1,0,0,0,51,51,113,1,,,,,,,,
,,,,,,,,,,,,,FF,,,,,,,,0.5844,,,,,,,,,,,,,,,,,,,,,,60fbd8a8cfb0ae114d24ae48,61036efc0c3e88f62ed67503,2021-07-29_23h15.53.053,Simcolourproject_2stim_asymm_v5,2020.2.10,MacIntel,60,61025ae37ef11b136ea224fe,,,,,,,,,785,-69.828125,-38.42578125,1,0,0,response5disk,,2,-8.15234375,-9.05859375,1,0,0,rectangle,-8.15234375,-9.05859375,1,0,0,-8.15234375,-9.05859375,1,0,0,0,52,52,69,1,,,,,,,,
,,,,,,,,,,,,,FF,,,,,,,,0.8175,,,,,,,,,,,,,,,,,,,,,,60fbd8a8cfb0ae114d24ae48,61036efc0c3e88f62ed67503,2021-07-29_23h15.53.053,Simcolourproject_2stim_asymm_v5,2020.2.10,MacIntel,60,61025ae37ef11b136ea224fe,,,,,,,,,1928,-46.35546875,-77.1484375,1,0,0,response5disk,,3,-2.9921875,-0.4140625,1,0,0,rectangle,-2.9921875,-0.4140625,1,0,0,-2.9921875,-0.4140625,1,0,0,0,53,53,9,1,,,,,,,,
,,,,,,,,,,,,,FF,,,,,,,,2.6676,,,,,,,,,,,,,,,,,,,,,,60fbd8a8cfb0ae114d24ae48,61036efc0c3e88f62ed67503,2021-07-29_23h15.53.053,Simcolourproject_2stim_asymm_v5,2020.2.10,MacIntel,60,61025ae37ef11b136ea224fe,,,,,,,,,989,-32.50390625,-79.09765625,1,0,0,response5disk,,3,-6.4765625,-10.71484375,1,0,0,rectangle,-6.4765625,-10.71484375,1,0,0,-6.4765625,-10.71484375,1,0,0,0,54,54,100,1,,,,,,,,
,,,,,,,,,,,,,FF,,,,,,,,1.1996,,,,,,,,,,,,,,,,,,,,,,60fbd8a8cfb0ae114d24ae48,61036efc0c3e88f62ed67503,2021-07-29_23h15.53.053,Simcolourproject_2stim_asymm_v5,2020.2.10,MacIntel,60,61025ae37ef11b136ea224fe,,,,,,,,,2656,-36.7109375,-70.37890625,1,0,0,response5disk,,3,3.2890625,-10.78125,1,0,0,rectangle,3.2890625,-10.78125,1,0,0,3.2890625,-10.78125,1,0,0,0,55,55,132,1,,,,,,,,
,,,,,,,,,,,,,FF,,,,,,,,1.532,,,,,,,,,,,,,,,,,,,,,,60fbd8a8cfb0ae114d24ae48,61036efc0c3e88f62ed67503,2021-07-29_23h15.53.053,Simcolourproject_2stim_asymm_v5,2020.2.10,MacIntel,60,61025ae37ef11b136ea224fe,,,,,,,,,3825,100.734375,-33.6640625,1,0,0,response3disk,,5,1.70703125,-4.6953125,1,0,0,rectangle,1.70703125,-4.6953125,1,0,0,1.70703125,-4.6953125,1,0,0,0,56,56,117,1,,,,,,,,
,,,,,,,,,,,,,FF,,,,,,,,1.3838,,,,,,,,,,,,,,,,,,,,,,60fbd8a8cfb0ae114d24ae48,61036efc0c3e88f62ed67503,2021-07-29_23h15.53.053,Simcolourproject_2stim_asymm_v5,2020.2.10,MacIntel,60,61025ae37ef11b136ea224fe,,,,,,,,,100,-74.984375,-38.203125,1,0,0,response5disk,,2,-7.515625,-4.80859375,1,0,0,rectangle,-7.515625,-4.80859375,1,0,0,-7.515625,-4.80859375,1,0,0,0,57,57,95,1,,,,,,,,
,,,,,,,,,,,,,FF,,,,,,,,1.4658,,,,,,,,,,,,,,,,,,,,,,60fbd8a8cfb0ae114d24ae48,61036efc0c3e88f62ed67503,2021-07-29_23h15.53.053,Simcolourproject_2stim_asymm_v5,2020.2.10,MacIntel,60,61025ae37ef11b136ea224fe,,,,,,,,,4064,99.02734375,35.25,1,0,0,response1disk,,6,8.71484375,1.625,1,0,0,rectangle,8.71484375,1.625,1,0,0,8.71484375,1.625,1,0,0,0,58,58,44,1,,,,,,,,
,,,,,,,,,,,,,FF,,,,,,,,1.5666,,,,,,,,,,,,,,,,,,,,,,60fbd8a8cfb0ae114d24ae48,61036efc0c3e88f62ed67503,2021-07-29_23h15.53.053,Simcolourproject_2stim_asymm_v5,2020.2.10,MacIntel,60,61025ae37ef11b136ea224fe,,,,,,,,,1693,44.046875,73.8046875,1,0,0,response1disk,,7,17.62109375,3.28125,1,0,0,rectangle,17.62109375,3.28125,1,0,0,17.62109375,3.28125,1,0,0,0,59,59,76,1,,,,,,,,
,,,,,,,,,,,,,FF,,,,,,,,3.0013,,,,,,,,,,,,,,,,,,,,,,60fbd8a8cfb0ae114d24ae48,61036efc0c3e88f62ed67503,2021-07-29_23h15.53.053,Simcolourproject_2stim_asymm_v5,2020.2.10,MacIntel,60,61025ae37ef11b136ea224fe,,,,,,,,,3451,26.1640625,42.22265625,1,0,0,response1disk,,7,2.86328125,-8.1796875,1,0,0,rectangle,2.86328125,-8.1796875,1,0,0,2.86328125,-8.1796875,1,0,0,0,60,60,148,1,,,,,,,,
,,,,,,,,,,,,,FF,,,,,,,,3.1345,,,,,,,,,,,,,,,,,,,,,,60fbd8a8cfb0ae114d24ae48,61036efc0c3e88f62ed67503,2021-07-29_23h15.53.053,Simcolourproject_2stim_asymm_v5,2020.2.10,MacIntel,60,61025ae37ef11b136ea224fe,,,,,,,,,4017,81.08984375,-64.171875,1,0,0,response3disk,,5,3.07421875,-9.02734375,1,0,0,rectangle,3.07421875,-9.02734375,1,0,0,3.07421875,-9.02734375,1,0,0,0,61,61,81,1,,,,,,,,
,,,,,,,,,,,,,FF,,,,,,,,0.8153,,,,,,,,,,,,,,,,,,,,,,60fbd8a8cfb0ae114d24ae48,61036efc0c3e88f62ed67503,2021-07-29_23h15.53.053,Simcolourproject_2stim_asymm_v5,2020.2.10,MacIntel,60,61025ae37ef11b136ea224fe,,,,,,,,,3154,-50.90625,-31.4765625,1,0,0,response5disk,,2,-4.7265625,3.71484375,1,0,0,rectangle,-4.7265625,3.71484375,1,0,0,-4.7265625,3.71484375,1,0,0,0,62,62,28,1,,,,,,,,
,,,,,,,,,,,,,FF,,,,,,,,2.1821,,,,,,,,,,,,,,,,,,,,,,60fbd8a8cfb0ae114d24ae48,61036efc0c3e88f62ed67503,2021-07-29_23h15.53.053,Simcolourproject_2stim_asymm_v5,2020.2.10,MacIntel,60,61025ae37ef11b136ea224fe,,,,,,,,,2306,-78.390625,-45.4140625,1,0,0,response5disk,,2,-4.88671875,-6.8984375,1,0,0,rectangle,-4.88671875,-6.8984375,1,0,0,-4.88671875,-6.8984375,1,0,0,0,63,63,84,1,,,,,,,,
,,,,,,,,,,,,,FF,,,,,,,,0.7333,,,,,,,,,,,,,,,,,,,,,,60fbd8a8cfb0ae114d24ae48,61036efc0c3e88f62ed67503,2021-07-29_23h15.53.053,Simcolourproject_2stim_asymm_v5,2020.2.10,MacIntel,60,61025ae37ef11b136ea224fe,,,,,,,,,3741,-42.203125,75.53515625,1,0,0,response7disk,,0,1.03125,-1.0234375,1,0,0,rectangle,1.03125,-1.0234375,1,0,0,1.03125,-1.0234375,1,0,0,0,64,64,87,1,,,,,,,,
,,,,,,,,,,,,,FF,,,,,,,,2.1003,,,,,,,,,,,,,,,,,,,,,,60fbd8a8cfb0ae114d24ae48,61036efc0c3e88f62ed67503,2021-07-29_23h15.53.053,Simcolourproject_2stim_asymm_v5,2020.2.10,MacIntel,60,61025ae37ef11b136ea224fe,,,,,,,,,1666,-86.0234375,-32.22265625,1,0,0,response5disk,,2,0.05859375,-8.8203125,1,0,0,rectangle,0.05859375,-8.8203125,1,0,0,0.05859375,-8.8203125,1,0,0,0,65,65,32,1,,,,,,,,
,,,,,,,,,,,,,FF,,,,,,,,1.1499,,,,,,,,,,,,,,,,,,,,,,60fbd8a8cfb0ae114d24ae48,61036efc0c3e88f62ed67503,2021-07-29_23h15.53.053,Simcolourproject_2stim_asymm_v5,2020.2.10,MacIntel,60,61025ae37ef11b136ea224fe,,,,,,,,,2140,33.97265625,72.0390625,1,0,0,response1disk,,7,9.5078125,-2.5234375,1,0,0,rectangle,9.5078125,-2.5234375,1,0,0,9.5078125,-2.5234375,1,0,0,0,66,66,92,1,,,,,,,,
,,,,,,,,,,,,,FF,,,,,,,,1.3654,,,,,,,,,,,,,,,,,,,,,,60fbd8a8cfb0ae114d24ae48,61036efc0c3e88f62ed67503,2021-07-29_23h15.53.053,Simcolourproject_2stim_asymm_v5,2020.2.10,MacIntel,60,61025ae37ef11b136ea224fe,,,,,,,,,2384,91.140625,42.6484375,1,0,0,response1disk,,6,0.11328125,-4.859375,1,0,0,rectangle,0.11328125,-4.859375,1,0,0,0.11328125,-4.859375,1,0,0,0,67,67,90,1,,,,,,,,
,,,,,,,,,,,,,FF,,,,,,,,0.7659,,,,,,,,,,,,,,,,,,,,,,60fbd8a8cfb0ae114d24ae48,61036efc0c3e88f62ed67503,2021-07-29_23h15.53.053,Simcolourproject_2stim_asymm_v5,2020.2.10,MacIntel,60,61025ae37ef11b136ea224fe,,,,,,,,,934,42.4375,84.2109375,1,0,0,response1disk,,7,11.84765625,2.43359375,1,0,0,rectangle,-109.3515625,54.5,1,0,0,-8.48046875,8.75,1,0,0,0,68,68,39,1,,response7disk_3,TRUE,1,1,"[13,172,18,232,212,69,146,77,206,94,293,195,276,78,51,10,160,170,25,280]",1.2488,rectangle
,,,,,,,,,,,,,FF,,,,,,,,2.9823,,,,,,,,,,,,,,,,,,,,,,60fbd8a8cfb0ae114d24ae48,61036efc0c3e88f62ed67503,2021-07-29_23h15.53.053,Simcolourproject_2stim_asymm_v5,2020.2.10,MacIntel,60,61025ae37ef11b136ea224fe,,,,,,,,,2686,88.8046875,37.375,1,0,0,response1disk,,6,1.859375,-3.8515625,1,0,0,rectangle,1.859375,-3.8515625,1,0,0,1.859375,-3.8515625,1,0,0,0,69,69,22,1,,,,,,,,
,,,,,,,,,,,,,FF,,,,,,,,1.1665,,,,,,,,,,,,,,,,,,,,,,60fbd8a8cfb0ae114d24ae48,61036efc0c3e88f62ed67503,2021-07-29_23h15.53.053,Simcolourproject_2stim_asymm_v5,2020.2.10,MacIntel,60,61025ae37ef11b136ea224fe,,,,,,,,,3874,71.70703125,-38,1,0,0,response3disk,,5,-1.9609375,-9.64453125,1,0,0,rectangle,-1.9609375,-9.64453125,1,0,0,-1.9609375,-9.64453125,1,0,0,0,70,70,30,1,,,,,,,,
,,,,,,,,,,,,,FF,,,,,,,,1.2164,,,,,,,,,,,,,,,,,,,,,,60fbd8a8cfb0ae114d24ae48,61036efc0c3e88f62ed67503,2021-07-29_23h15.53.053,Simcolourproject_2stim_asymm_v5,2020.2.10,MacIntel,60,61025ae37ef11b136ea224fe,,,,,,,,,1671,-74.30859375,-38.21875,1,0,0,response5disk,,2,-2.35546875,-1.390625,1,0,0,rectangle,-2.35546875,-1.390625,1,0,0,-2.35546875,-1.390625,1,0,0,0,71,71,2,1,,,,,,,,
,,,,,,,,,,,,,FF,,,,,,,,1.2686,,,,,,,,,,,,,,,,,,,,,,60fbd8a8cfb0ae114d24ae48,61036efc0c3e88f62ed67503,2021-07-29_23h15.53.053,Simcolourproject_2stim_asymm_v5,2020.2.10,MacIntel,60,61025ae37ef11b136ea224fe,,,,,,,,,3127,40.171875,80.19921875,1,0,0,response1disk,,7,1.90234375,-6.4453125,1,0,0,rectangle,1.90234375,-6.4453125,1,0,0,1.90234375,-6.4453125,1,0,0,0,72,72,71,1,,,,,,,,
,,,,,,,,,,,,,FF,,,,,,,,1.1505,,,,,,,,,,,,,,,,,,,,,,60fbd8a8cfb0ae114d24ae48,61036efc0c3e88f62ed67503,2021-07-29_23h15.53.053,Simcolourproject_2stim_asymm_v5,2020.2.10,MacIntel,60,61025ae37ef11b136ea224fe,,,,,,,,,4151,-28.98046875,-75.984375,1,0,0,response5disk,,3,3.45703125,-10.1171875,1,0,0,rectangle,3.45703125,-10.1171875,1,0,0,3.45703125,-10.1171875,1,0,0,0,73,73,46,1,,,,,,,,
,,,,,,,,,,,,,FF,,,,,,,,1.1005,,,,,,,,,,,,,,,,,,,,,,60fbd8a8cfb0ae114d24ae48,61036efc0c3e88f62ed67503,2021-07-29_23h15.53.053,Simcolourproject_2stim_asymm_v5,2020.2.10,MacIntel,60,61025ae37ef11b136ea224fe,,,,,,,,,1821,-88.75,25.09375,1,0,0,response7disk,,1,12.5390625,8.640625,1,0,0,rectangle,12.5390625,8.640625,1,0,0,12.5390625,8.640625,1,0,0,0,74,74,140,1,,,,,,,,
,,,,,,,,,,,,,FF,,,,,,,,1.2339,,,,,,,,,,,,,,,,,,,,,,60fbd8a8cfb0ae114d24ae48,61036efc0c3e88f62ed67503,2021-07-29_23h15.53.053,Simcolourproject_2stim_asymm_v5,2020.2.10,MacIntel,60,61025ae37ef11b136ea224fe,,,,,,,,,1479,87.484375,-41.0390625,1,0,0,response3disk,,5,-2.875,-2.10546875,1,0,0,rectangle,-2.875,-2.10546875,1,0,0,-2.875,-2.10546875,1,0,0,0,75,75,25,1,,,,,,,,
,,,,,,,,,,,,,FF,,,,,,,,2.1486,,,,,,,,,,,,,,,,,,,,,,60fbd8a8cfb0ae114d24ae48,61036efc0c3e88f62ed67503,2021-07-29_23h15.53.053,Simcolourproject_2stim_asymm_v5,2020.2.10,MacIntel,60,61025ae37ef11b136ea224fe,,,,,,,,,3546,-74.421875,35.40234375,1,0,0,response7disk,,1,-9.87109375,9.4453125,1,0,0,rectangle,96.25,40.015625,1,0,0,11.7734375,-2.2578125,1,0,0,0,76,76,103,1,,response1disk_3,TRUE,6,6,"[13,172,18,232,212,69,146,77,206,94,293,195,276,78,51,10,160,170,25,280]",2.1177,rectangle
,,,,,,,,,,,,,FF,,,,,,,,0.7508,,,,,,,,,,,,,,,,,,,,,,60fbd8a8cfb0ae114d24ae48,61036efc0c3e88f62ed67503,2021-07-29_23h15.53.053,Simcolourproject_2stim_asymm_v5,2020.2.10,MacIntel,60,61025ae37ef11b136ea224fe,,,,,,,,,1758,-78.5234375,39.453125,1,0,0,response7disk,,1,-4.98828125,7.9296875,1,0,0,rectangle,-37.7734375,81.6640625,1,0,0,-3.75,3.8828125,1,0,0,0,77,77,91,1,,response7disk_3,TRUE,0,0,"[13,172,18,232,212,69,146,77,206,94,293,195,276,78,51,10,160,170,25,280]",1.2674,rectangle
,,,,,,,,,,,,,FF,,,,,,,,1.7003,,,,,,,,,,,,,,,,,,,,,,60fbd8a8cfb0ae114d24ae48,61036efc0c3e88f62ed67503,2021-07-29_23h15.53.053,Simcolourproject_2stim_asymm_v5,2020.2.10,MacIntel,60,61025ae37ef11b136ea224fe,,,,,,,,,2996,-83.625,34.37890625,1,0,0,response7disk,,1,-11.4765625,7.578125,1,0,0,rectangle,-11.4765625,7.578125,1,0,0,-11.4765625,7.578125,1,0,0,0,78,78,27,1,,,,,,,,
,,,,,,,,,,,,,FF,,,,,,,,1.1321,,,,,,,,,,,,,,,,,,,,,,60fbd8a8cfb0ae114d24ae48,61036efc0c3e88f62ed67503,2021-07-29_23h15.53.053,Simcolourproject_2stim_asymm_v5,2020.2.10,MacIntel,60,61025ae37ef11b136ea224fe,,,,,,,,,3715,-31.765625,-60.48046875,1,0,0,response5disk,,3,-3.33203125,-5.390625,1,0,0,rectangle,-3.33203125,-5.390625,1,0,0,-3.33203125,-5.390625,1,0,0,0,79,79,123,1,,,,,,,,
,,,,,,,,,,,,,FF,,,,,,,,1.5479,,,,,,,,,,,,,,,,,,,,,,60fbd8a8cfb0ae114d24ae48,61036efc0c3e88f62ed67503,2021-07-29_23h15.53.053,Simcolourproject_2stim_asymm_v5,2020.2.10,MacIntel,60,61025ae37ef11b136ea224fe,,,,,,,,,2681,82.5546875,-54.1015625,1,0,0,response3disk,,5,3.453125,0.69921875,1,0,0,rectangle,3.453125,0.69921875,1,0,0,3.453125,0.69921875,1,0,0,0,80,80,57,1,,,,,,,,
,,,,,,,,,,,,,FF,,,,,,,,2.3834,,,,,,,,,,,,,,,,,,,,,,60fbd8a8cfb0ae114d24ae48,61036efc0c3e88f62ed67503,2021-07-29_23h15.53.053,Simcolourproject_2stim_asymm_v5,2020.2.10,MacIntel,60,61025ae37ef11b136ea224fe,,,,,,,,,4023,91.5859375,35.35546875,1,0,0,response1disk,,6,-3.33984375,-2.20703125,1,0,0,rectangle,-3.33984375,-2.20703125,1,0,0,-3.33984375,-2.20703125,1,0,0,0,81,81,144,1,,,,,,,,
,,,,,,,,,,,,,FF,,,,,,,,1.2491,,,,,,,,,,,,,,,,,,,,,,60fbd8a8cfb0ae114d24ae48,61036efc0c3e88f62ed67503,2021-07-29_23h15.53.053,Simcolourproject_2stim_asymm_v5,2020.2.10,MacIntel,60,61025ae37ef11b136ea224fe,,,,,,,,,1030,43.078125,86.1640625,1,0,0,response1disk,,7,-0.08203125,-0.328125,1,0,0,rectangle,-0.08203125,-0.328125,1,0,0,-0.08203125,-0.328125,1,0,0,0,82,82,75,1,,,,,,,,
,,,,,,,,,,,,,FF,,,,,,,,0.8353,,,,,,,,,,,,,,,,,,,,,,60fbd8a8cfb0ae114d24ae48,61036efc0c3e88f62ed67503,2021-07-29_23h15.53.053,Simcolourproject_2stim_asymm_v5,2020.2.10,MacIntel,60,61025ae37ef11b136ea224fe,,,,,,,,,2221,54.0546875,98.74609375,1,0,0,response1disk,,7,6.01953125,-1.79296875,1,0,0,rectangle,6.01953125,-1.79296875,1,0,0,6.01953125,-1.79296875,1,0,0,0,83,83,14,1,,,,,,,,
,,,,,,,,,,,,,FF,,,,,,,,0.9,,,,,,,,,,,,,,,,,,,,,,60fbd8a8cfb0ae114d24ae48,61036efc0c3e88f62ed67503,2021-07-29_23h15.53.053,Simcolourproject_2stim_asymm_v5,2020.2.10,MacIntel,60,61025ae37ef11b136ea224fe,,,,,,,,,1775,79.1328125,38.70703125,1,0,0,response1disk,,6,6.26953125,1.16015625,1,0,0,rectangle,6.26953125,1.16015625,1,0,0,6.26953125,1.16015625,1,0,0,0,84,84,142,1,,,,,,,,
,,,,,,,,,,,,,FF,,,,,,,,1.0339,,,,,,,,,,,,,,,,,,,,,,60fbd8a8cfb0ae114d24ae48,61036efc0c3e88f62ed67503,2021-07-29_23h15.53.053,Simcolourproject_2stim_asymm_v5,2020.2.10,MacIntel,60,61025ae37ef11b136ea224fe,,,,,,,,,1370,-91.2265625,-47.48828125,1,0,0,response5disk,,2,-3,-0.17578125,1,0,0,rectangle,-3,-0.17578125,1,0,0,-3,-0.17578125,1,0,0,0,85,85,29,1,,,,,,,,
,,,,,,,,,,,,,FF,,,,,,,,1.15,,,,,,,,,,,,,,,,,,,,,,60fbd8a8cfb0ae114d24ae48,61036efc0c3e88f62ed67503,2021-07-29_23h15.53.053,Simcolourproject_2stim_asymm_v5,2020.2.10,MacIntel,60,61025ae37ef11b136ea224fe,,,,,,,,,1982,82.83203125,58.9609375,1,0,0,response1disk,,6,-3.29296875,-5.20703125,1,0,0,rectangle,-3.29296875,-5.20703125,1,0,0,-3.29296875,-5.20703125,1,0,0,0,86,86,116,1,,,,,,,,
,,,,,,,,,,,,,FF,,,,,,,,1.0336,,,,,,,,,,,,,,,,,,,,,,60fbd8a8cfb0ae114d24ae48,61036efc0c3e88f62ed67503,2021-07-29_23h15.53.053,Simcolourproject_2stim_asymm_v5,2020.2.10,MacIntel,60,61025ae37ef11b136ea224fe,,,,,,,,,2332,81.140625,46.578125,1,0,0,response1disk,,6,5.7578125,0.453125,1,0,0,rectangle,5.7578125,0.453125,1,0,0,5.7578125,0.453125,1,0,0,0,87,87,8,1,,,,,,,,
,,,,,,,,,,,,,FF,,,,,,,,1.3166,,,,,,,,,,,,,,,,,,,,,,60fbd8a8cfb0ae114d24ae48,61036efc0c3e88f62ed67503,2021-07-29_23h15.53.053,Simcolourproject_2stim_asymm_v5,2020.2.10,MacIntel,60,61025ae37ef11b136ea224fe,,,,,,,,,165,69.234375,50.2109375,1,0,0,response1disk,,6,9.359375,1.96484375,1,0,0,rectangle,9.359375,1.96484375,1,0,0,9.359375,1.96484375,1,0,0,0,88,88,135,1,,,,,,,,
,,,,,,,,,,,,,FF,,,,,,,,2.3832,,,,,,,,,,,,,,,,,,,,,,60fbd8a8cfb0ae114d24ae48,61036efc0c3e88f62ed67503,2021-07-29_23h15.53.053,Simcolourproject_2stim_asymm_v5,2020.2.10,MacIntel,60,61025ae37ef11b136ea224fe,,,,,,,,,3331,-88.1796875,-31.265625,1,0,0,response5disk,,2,-0.65234375,-5.53125,1,0,0,rectangle,-0.65234375,-5.53125,1,0,0,-0.65234375,-5.53125,1,0,0,0,89,89,50,1,,,,,,,,
,,,,,,,,,,,,,FF,,,,,,,,1.3668,,,,,,,,,,,,,,,,,,,,,,60fbd8a8cfb0ae114d24ae48,61036efc0c3e88f62ed67503,2021-07-29_23h15.53.053,Simcolourproject_2stim_asymm_v5,2020.2.10,MacIntel,60,61025ae37ef11b136ea224fe,,,,,,,,,3806,86.5,29.8359375,1,0,0,response1disk,,6,11.0234375,7.46875,1,0,0,rectangle,11.0234375,7.46875,1,0,0,11.0234375,7.46875,1,0,0,0,90,90,1,1,,,,,,,,
,,,,,,,,,,,,,FF,,,,,,,,0.7977,,,,,,,,,,,,,,,,,,,,,,60fbd8a8cfb0ae114d24ae48,61036efc0c3e88f62ed67503,2021-07-29_23h15.53.053,Simcolourproject_2stim_asymm_v5,2020.2.10,MacIntel,60,61025ae37ef11b136ea224fe,,,,,,,,,58,85.296875,31.765625,1,0,0,response1disk,,6,10.21875,-2.51171875,1,0,0,rectangle,10.21875,-2.51171875,1,0,0,10.21875,-2.51171875,1,0,0,0,91,91,122,1,,,,,,,,
,,,,,,,,,,,,,FF,,,,,,,,1.4176,,,,,,,,,,,,,,,,,,,,,,60fbd8a8cfb0ae114d24ae48,61036efc0c3e88f62ed67503,2021-07-29_23h15.53.053,Simcolourproject_2stim_asymm_v5,2020.2.10,MacIntel,60,61025ae37ef11b136ea224fe,,,,,,,,,3200,-40.08203125,-87.30859375,1,0,0,response5disk,,3,7.3203125,-3.10546875,1,0,0,rectangle,7.3203125,-3.10546875,1,0,0,7.3203125,-3.10546875,1,0,0,0,92,92,48,1,,,,,,,,
,,,,,,,,,,,,,FF,,,,,,,,0.8341,,,,,,,,,,,,,,,,,,,,,,60fbd8a8cfb0ae114d24ae48,61036efc0c3e88f62ed67503,2021-07-29_23h15.53.053,Simcolourproject_2stim_asymm_v5,2020.2.10,MacIntel,60,61025ae37ef11b136ea224fe,,,,,,,,,2192,29.77734375,64.15625,1,0,0,response1disk,,7,8.546875,4.9921875,1,0,0,rectangle,93.70703125,-42.25390625,1,0,0,1.62109375,-6.18359375,1,0,0,0,93,93,107,1,,response3disk_3,TRUE,5,5,"[13,172,18,232,212,69,146,77,206,94,293,195,276,78,51,10,160,170,25,280]",1.85,rectangle
,,,,,,,,,,,,,FF,,,,,,,,1.7174,,,,,,,,,,,,,,,,,,,,,,60fbd8a8cfb0ae114d24ae48,61036efc0c3e88f62ed67503,2021-07-29_23h15.53.053,Simcolourproject_2stim_asymm_v5,2020.2.10,MacIntel,60,61025ae37ef11b136ea224fe,,,,,,,,,137,64.14453125,31.5546875,1,0,0,response1disk,,6,16.66796875,-1.28515625,1,0,0,rectangle,16.66796875,-1.28515625,1,0,0,16.66796875,-1.28515625,1,0,0,0,94,94,88,1,,,,,,,,
,,,,,,,,,,,,,FF,,,,,,,,1.5999,,,,,,,,,,,,,,,,,,,,,,60fbd8a8cfb0ae114d24ae48,61036efc0c3e88f62ed67503,2021-07-29_23h15.53.053,Simcolourproject_2stim_asymm_v5,2020.2.10,MacIntel,60,61025ae37ef11b136ea224fe,,,,,,,,,3472,-34.2421875,-77.5703125,1,0,0,response5disk,,3,-11.7421875,-8.21484375,1,0,0,rectangle,-11.7421875,-8.21484375,1,0,0,-11.7421875,-8.21484375,1,0,0,0,95,95,99,1,,,,,,,,
,,,,,,,,,,,,,FF,,,,,,,,0.9666,,,,,,,,,,,,,,,,,,,,,,60fbd8a8cfb0ae114d24ae48,61036efc0c3e88f62ed67503,2021-07-29_23h15.53.053,Simcolourproject_2stim_asymm_v5,2020.2.10,MacIntel,60,61025ae37ef11b136ea224fe,,,,,,,,,2605,-65.9140625,-30.56640625,1,0,0,response5disk,,2,-3.7265625,-2.6015625,1,0,0,rectangle,-3.7265625,-2.6015625,1,0,0,-3.7265625,-2.6015625,1,0,0,0,96,96,62,1,,,,,,,,
,,,,,,,,,,,,,FF,,,,,,,,2.0493,,,,,,,,,,,,,,,,,,,,,,60fbd8a8cfb0ae114d24ae48,61036efc0c3e88f62ed67503,2021-07-29_23h15.53.053,Simcolourproject_2stim_asymm_v5,2020.2.10,MacIntel,60,61025ae37ef11b136ea224fe,,,,,,,,,2287,31.05078125,-68.9296875,1,0,0,response3disk,,4,3.74609375,-4.45703125,1,0,0,rectangle,3.74609375,-4.45703125,1,0,0,3.74609375,-4.45703125,1,0,0,0,97,97,97,1,,,,,,,,
,,,,,,,,,,,,,FF,,,,,,,,1.7832,,,,,,,,,,,,,,,,,,,,,,60fbd8a8cfb0ae114d24ae48,61036efc0c3e88f62ed67503,2021-07-29_23h15.53.053,Simcolourproject_2stim_asymm_v5,2020.2.10,MacIntel,60,61025ae37ef11b136ea224fe,,,,,,,,,1444,49.796875,73.33203125,1,0,0,response1disk,,7,10.640625,5.64453125,1,0,0,rectangle,10.640625,5.64453125,1,0,0,10.640625,5.64453125,1,0,0,0,98,98,124,1,,,,,,,,
,,,,,,,,,,,,,FF,,,,,,,,0.9658,,,,,,,,,,,,,,,,,,,,,,60fbd8a8cfb0ae114d24ae48,61036efc0c3e88f62ed67503,2021-07-29_23h15.53.053,Simcolourproject_2stim_asymm_v5,2020.2.10,MacIntel,60,61025ae37ef11b136ea224fe,,,,,,,,,2227,-73.953125,23.4375,1,0,0,response7disk,,1,-5.93359375,9.59375,1,0,0,rectangle,-5.93359375,9.59375,1,0,0,-5.93359375,9.59375,1,0,0,0,99,99,141,1,,,,,,,,
,,,,,,,,,,,,,FF,,,,,,,,0.8507,,,,,,,,,,,,,,,,,,,,,,60fbd8a8cfb0ae114d24ae48,61036efc0c3e88f62ed67503,2021-07-29_23h15.53.053,Simcolourproject_2stim_asymm_v5,2020.2.10,MacIntel,60,61025ae37ef11b136ea224fe,,,,,,,,,2278,61.03125,39.6640625,1,0,0,response1disk,,6,18.7578125,9.94140625,1,0,0,rectangle,18.7578125,9.94140625,1,0,0,18.7578125,9.94140625,1,0,0,0,100,100,54,1,,,,,,,,
,,,,,,,,,,,,,FF,,,,,,,,0.7501,,,,,,,,,,,,,,,,,,,,,,60fbd8a8cfb0ae114d24ae48,61036efc0c3e88f62ed67503,2021-07-29_23h15.53.053,Simcolourproject_2stim_asymm_v5,2020.2.10,MacIntel,60,61025ae37ef11b136ea224fe,,,,,,,,,2383,61.13671875,21.33203125,1,0,0,response1disk,,6,21.578125,-4.58984375,1,0,0,rectangle,21.578125,-4.58984375,1,0,0,21.578125,-4.58984375,1,0,0,0,101,101,78,1,,,,,,,,
,,,,,,,,,,,,,FF,,,,,,,,0.6182,,,,,,,,,,,,,,,,,,,,,,60fbd8a8cfb0ae114d24ae48,61036efc0c3e88f62ed67503,2021-07-29_23h15.53.053,Simcolourproject_2stim_asymm_v5,2020.2.10,MacIntel,60,61025ae37ef11b136ea224fe,,,,,,,,,2272,71.03125,49.68359375,1,0,0,response1disk,,6,19.84765625,4.08984375,1,0,0,rectangle,19.84765625,4.08984375,1,0,0,19.84765625,4.08984375,1,0,0,0,102,102,3,1,,,,,,,,
,,,,,,,,,,,,,FF,,,,,,,,0.7648,,,,,,,,,,,,,,,,,,,,,,60fbd8a8cfb0ae114d24ae48,61036efc0c3e88f62ed67503,2021-07-29_23h15.53.053,Simcolourproject_2stim_asymm_v5,2020.2.10,MacIntel,60,61025ae37ef11b136ea224fe,,,,,,,,,1462,-79.1015625,-36.69140625,1,0,0,response5disk,,2,-13.91015625,-5.9140625,1,0,0,rectangle,-13.91015625,-5.9140625,1,0,0,-13.91015625,-5.9140625,1,0,0,0,103,103,138,1,,,,,,,,
,,,,,,,,,,,,,FF,,,,,,,,1.4824,,,,,,,,,,,,,,,,,,,,,,60fbd8a8cfb0ae114d24ae48,61036efc0c3e88f62ed67503,2021-07-29_23h15.53.053,Simcolourproject_2stim_asymm_v5,2020.2.10,MacIntel,60,61025ae37ef11b136ea224fe,,,,,,,,,1770,73.8125,-45.44921875,1,0,0,response3disk,,5,8.3046875,-9.22265625,1,0,0,rectangle,8.3046875,-9.22265625,1,0,0,8.3046875,-9.22265625,1,0,0,0,104,104,83,1,,,,,,,,
,,,,,,,,,,,,,FF,,,,,,,,0.8665,,,,,,,,,,,,,,,,,,,,,,60fbd8a8cfb0ae114d24ae48,61036efc0c3e88f62ed67503,2021-07-29_23h15.53.053,Simcolourproject_2stim_asymm_v5,2020.2.10,MacIntel,60,61025ae37ef11b136ea224fe,,,,,,,,,1023,27.703125,70.2265625,1,0,0,response1disk,,7,14.8515625,1.47265625,1,0,0,rectangle,14.8515625,1.47265625,1,0,0,14.8515625,1.47265625,1,0,0,0,105,105,109,1,,,,,,,,
,,,,,,,,,,,,,FF,,,,,,,,0.7999,,,,,,,,,,,,,,,,,,,,,,60fbd8a8cfb0ae114d24ae48,61036efc0c3e88f62ed67503,2021-07-29_23h15.53.053,Simcolourproject_2stim_asymm_v5,2020.2.10,MacIntel,60,61025ae37ef11b136ea224fe,,,,,,,,,4186,84.01953125,37.625,1,0,0,response1disk,,6,35.4140625,6.5234375,1,0,0,rectangle,35.4140625,6.5234375,1,0,0,35.4140625,6.5234375,1,0,0,0,106,106,63,1,,,,,,,,
,,,,,,,,,,,,,FF,,,,,,,,1.4998,,,,,,,,,,,,,,,,,,,,,,60fbd8a8cfb0ae114d24ae48,61036efc0c3e88f62ed67503,2021-07-29_23h15.53.053,Simcolourproject_2stim_asymm_v5,2020.2.10,MacIntel,60,61025ae37ef11b136ea224fe,,,,,,,,,902,-50.86328125,-84.671875,1,0,0,response5disk,,3,-8.875,-13.8046875,1,0,0,rectangle,-8.875,-13.8046875,1,0,0,-8.875,-13.8046875,1,0,0,0,107,107,34,1,,,,,,,,
,,,,,,,,,,,,,FF,,,,,,,,0.9505,,,,,,,,,,,,,,,,,,,,,,60fbd8a8cfb0ae114d24ae48,61036efc0c3e88f62ed67503,2021-07-29_23h15.53.053,Simcolourproject_2stim_asymm_v5,2020.2.10,MacIntel,60,61025ae37ef11b136ea224fe,,,,,,,,,34,88.3984375,36.6640625,1,0,0,response1disk,,6,4.09375,1.5,1,0,0,rectangle,4.09375,1.5,1,0,0,4.09375,1.5,1,0,0,0,108,108,143,1,,,,,,,,
,,,,,,,,,,,,,FF,,,,,,,,2.1517,,,,,,,,,,,,,,,,,,,,,,60fbd8a8cfb0ae114d24ae48,61036efc0c3e88f62ed67503,2021-07-29_23h15.53.053,Simcolourproject_2stim_asymm_v5,2020.2.10,MacIntel,60,61025ae37ef11b136ea224fe,,,,,,,,,1575,34.00390625,-85.62890625,1,0,0,response3disk,,4,5.56640625,-10.86328125,1,0,0,rectangle,5.56640625,-10.86328125,1,0,0,5.56640625,-10.86328125,1,0,0,0,109,109,53,1,,,,,,,,
,,,,,,,,,,,,,FF,,,,,,,,1.118,,,,,,,,,,,,,,,,,,,,,,60fbd8a8cfb0ae114d24ae48,61036efc0c3e88f62ed67503,2021-07-29_23h15.53.053,Simcolourproject_2stim_asymm_v5,2020.2.10,MacIntel,60,61025ae37ef11b136ea224fe,,,,,,,,,3186,48.18359375,71.58203125,1,0,0,response1disk,,7,2.109375,6.7265625,1,0,0,rectangle,2.109375,6.7265625,1,0,0,2.109375,6.7265625,1,0,0,0,110,110,61,1,,,,,,,,
,,,,,,,,,,,,,FF,,,,,,,,1.1663,,,,,,,,,,,,,,,,,,,,,,60fbd8a8cfb0ae114d24ae48,61036efc0c3e88f62ed67503,2021-07-29_23h15.53.053,Simcolourproject_2stim_asymm_v5,2020.2.10,MacIntel,60,61025ae37ef11b136ea224fe,,,,,,,,,106,-32.48828125,-60.640625,1,0,0,response5disk,,3,-3.3125,-4.61328125,1,0,0,rectangle,-3.3125,-4.61328125,1,0,0,-3.3125,-4.61328125,1,0,0,0,111,111,121,1,,,,,,,,
,,,,,,,,,,,,,FF,,,,,,,,0.7839,,,,,,,,,,,,,,,,,,,,,,60fbd8a8cfb0ae114d24ae48,61036efc0c3e88f62ed67503,2021-07-29_23h15.53.053,Simcolourproject_2stim_asymm_v5,2020.2.10,MacIntel,60,61025ae37ef11b136ea224fe,,,,,,,,,1061,36.3125,-73.3984375,1,0,0,response3disk,,4,5.94921875,-9.06640625,1,0,0,rectangle,5.94921875,-9.06640625,1,0,0,5.94921875,-9.06640625,1,0,0,0,112,112,16,1,,,,,,,,
,,,,,,,,,,,,,FF,,,,,,,,1.5006,,,,,,,,,,,,,,,,,,,,,,60fbd8a8cfb0ae114d24ae48,61036efc0c3e88f62ed67503,2021-07-29_23h15.53.053,Simcolourproject_2stim_asymm_v5,2020.2.10,MacIntel,60,61025ae37ef11b136ea224fe,,,,,,,,,2648,-43.69921875,-68.9453125,1,0,0,response5disk,,3,-4.0234375,1.3984375,1,0,0,rectangle,-4.0234375,1.3984375,1,0,0,-4.0234375,1.3984375,1,0,0,0,113,113,127,1,,,,,,,,
,,,,,,,,,,,,,FF,,,,,,,,0.9989,,,,,,,,,,,,,,,,,,,,,,60fbd8a8cfb0ae114d24ae48,61036efc0c3e88f62ed67503,2021-07-29_23h15.53.053,Simcolourproject_2stim_asymm_v5,2020.2.10,MacIntel,60,61025ae37ef11b136ea224fe,,,,,,,,,2937,60.7578125,-37.29296875,1,0,0,response3disk,,5,-4.18359375,-3.91015625,1,0,0,rectangle,-4.18359375,-3.91015625,1,0,0,-4.18359375,-3.91015625,1,0,0,0,114,114,12,1,,,,,,,,
,,,,,,,,,,,,,FF,,,,,,,,0.8996,,,,,,,,,,,,,,,,,,,,,,60fbd8a8cfb0ae114d24ae48,61036efc0c3e88f62ed67503,2021-07-29_23h15.53.053,Simcolourproject_2stim_asymm_v5,2020.2.10,MacIntel,60,61025ae37ef11b136ea224fe,,,,,,,,,3746,-68.53515625,-33.09765625,1,0,0,response5disk,,2,-17.15625,-12.921875,1,0,0,rectangle,-17.15625,-12.921875,1,0,0,-17.15625,-12.921875,1,0,0,0,115,115,130,1,,,,,,,,
,,,,,,,,,,,,,FF,,,,,,,,0.8823,,,,,,,,,,,,,,,,,,,,,,60fbd8a8cfb0ae114d24ae48,61036efc0c3e88f62ed67503,2021-07-29_23h15.53.053,Simcolourproject_2stim_asymm_v5,2020.2.10,MacIntel,60,61025ae37ef11b136ea224fe,,,,,,,,,2273,74.19921875,30.3203125,1,0,0,response1disk,,6,3.29296875,-5.9921875,1,0,0,rectangle,3.29296875,-5.9921875,1,0,0,3.29296875,-5.9921875,1,0,0,0,116,116,73,1,,,,,,,,
,,,,,,,,,,,,,FF,,,,,,,,2.1167,,,,,,,,,,,,,,,,,,,,,,60fbd8a8cfb0ae114d24ae48,61036efc0c3e88f62ed67503,2021-07-29_23h15.53.053,Simcolourproject_2stim_asymm_v5,2020.2.10,MacIntel,60,61025ae37ef11b136ea224fe,,,,,,,,,1327,40.47265625,66.6015625,1,0,0,response1disk,,7,9.359375,10.51953125,1,0,0,rectangle,9.359375,10.51953125,1,0,0,9.359375,10.51953125,1,0,0,0,117,117,35,1,,,,,,,,
,,,,,,,,,,,,,FF,,,,,,,,1.1321,,,,,,,,,,,,,,,,,,,,,,60fbd8a8cfb0ae114d24ae48,61036efc0c3e88f62ed67503,2021-07-29_23h15.53.053,Simcolourproject_2stim_asymm_v5,2020.2.10,MacIntel,60,61025ae37ef11b136ea224fe,,,,,,,,,3081,31.984375,74.78125,1,0,0,response1disk,,7,10.1015625,-2.515625,1,0,0,rectangle,10.1015625,-2.515625,1,0,0,10.1015625,-2.515625,1,0,0,0,118,118,153,1,,,,,,,,
,,,,,,,,,,,,,FF,,,,,,,,0.9834,,,,,,,,,,,,,,,,,,,,,,60fbd8a8cfb0ae114d24ae48,61036efc0c3e88f62ed67503,2021-07-29_23h15.53.053,Simcolourproject_2stim_asymm_v5,2020.2.10,MacIntel,60,61025ae37ef11b136ea224fe,,,,,,,,,4032,71.95703125,43.515625,1,0,0,response1disk,,6,12.0625,5.1796875,1,0,0,rectangle,12.0625,5.1796875,1,0,0,12.0625,5.1796875,1,0,0,0,119,119,146,1,,,,,,,,
,,,,,,,,,,,,,FF,,,,,,,,1.1668,,,,,,,,,,,,,,,,,,,,,,60fbd8a8cfb0ae114d24ae48,61036efc0c3e88f62ed67503,2021-07-29_23h15.53.053,Simcolourproject_2stim_asymm_v5,2020.2.10,MacIntel,60,61025ae37ef11b136ea224fe,,,,,,,,,2416,58.61328125,-45.9765625,1,0,0,response3disk,,5,11.734375,-16.95703125,1,0,0,rectangle,11.734375,-16.95703125,1,0,0,11.734375,-16.95703125,1,0,0,0,120,120,13,1,,,,,,,,
,,,,,,,,,,,,,FF,,,,,,,,1.4658,,,,,,,,,,,,,,,,,,,,,,60fbd8a8cfb0ae114d24ae48,61036efc0c3e88f62ed67503,2021-07-29_23h15.53.053,Simcolourproject_2stim_asymm_v5,2020.2.10,MacIntel,60,61025ae37ef11b136ea224fe,,,,,,,,,458,43.3046875,-70.55859375,1,0,0,response3disk,,4,0.21875,-0.953125,1,0,0,rectangle,0.21875,-0.953125,1,0,0,0.21875,-0.953125,1,0,0,0,121,121,45,1,,,,,,,,
,,,,,,,,,,,,,FF,,,,,,,,1.0499,,,,,,,,,,,,,,,,,,,,,,60fbd8a8cfb0ae114d24ae48,61036efc0c3e88f62ed67503,2021-07-29_23h15.53.053,Simcolourproject_2stim_asymm_v5,2020.2.10,MacIntel,60,61025ae37ef11b136ea224fe,,,,,,,,,2908,83.390625,40.61328125,1,0,0,response1disk,,6,5.3671875,5.30078125,1,0,0,rectangle,5.3671875,5.30078125,1,0,0,5.3671875,5.30078125,1,0,0,0,122,122,134,1,,,,,,,,
,,,,,,,,,,,,,FF,,,,,,,,0.7339,,,,,,,,,,,,,,,,,,,,,,60fbd8a8cfb0ae114d24ae48,61036efc0c3e88f62ed67503,2021-07-29_23h15.53.053,Simcolourproject_2stim_asymm_v5,2020.2.10,MacIntel,60,61025ae37ef11b136ea224fe,,,,,,,,,2314,33.55078125,69.7421875,1,0,0,response1disk,,7,11.30859375,-3.87109375,1,0,0,rectangle,11.30859375,-3.87109375,1,0,0,11.30859375,-3.87109375,1,0,0,0,123,123,94,1,,,,,,,,
,,,,,,,,,,,,,FF,,,,,,,,1.0999,,,,,,,,,,,,,,,,,,,,,,60fbd8a8cfb0ae114d24ae48,61036efc0c3e88f62ed67503,2021-07-29_23h15.53.053,Simcolourproject_2stim_asymm_v5,2020.2.10,MacIntel,60,61025ae37ef11b136ea224fe,,,,,,,,,3439,-74.6796875,-25.74609375,1,0,0,response5disk,,2,-8.9375,-2.43359375,1,0,0,rectangle,-8.9375,-2.43359375,1,0,0,-8.9375,-2.43359375,1,0,0,0,124,124,154,1,,,,,,,,
,,,,,,,,,,,,,FF,,,,,,,,1.3008,,,,,,,,,,,,,,,,,,,,,,60fbd8a8cfb0ae114d24ae48,61036efc0c3e88f62ed67503,2021-07-29_23h15.53.053,Simcolourproject_2stim_asymm_v5,2020.2.10,MacIntel,60,61025ae37ef11b136ea224fe,,,,,,,,,2649,68.3125,59.04296875,1,0,0,response1disk,,6,3.07421875,-7.58203125,1,0,0,rectangle,3.07421875,-7.58203125,1,0,0,3.07421875,-7.58203125,1,0,0,0,125,125,33,1,,,,,,,,
,,,,,,,,,,,,,FF,,,,,,,,0.8493,,,,,,,,,,,,,,,,,,,,,,60fbd8a8cfb0ae114d24ae48,61036efc0c3e88f62ed67503,2021-07-29_23h15.53.053,Simcolourproject_2stim_asymm_v5,2020.2.10,MacIntel,60,61025ae37ef11b136ea224fe,,,,,,,,,2567,38.42578125,73.94140625,1,0,0,response1disk,,7,5.9765625,1.76953125,1,0,0,rectangle,5.9765625,1.76953125,1,0,0,5.9765625,1.76953125,1,0,0,0,126,126,152,1,,,,,,,,
,,,,,,,,,,,,,FF,,,,,,,,1.3996,,,,,,,,,,,,,,,,,,,,,,60fbd8a8cfb0ae114d24ae48,61036efc0c3e88f62ed67503,2021-07-29_23h15.53.053,Simcolourproject_2stim_asymm_v5,2020.2.10,MacIntel,60,61025ae37ef11b136ea224fe,,,,,,,,,940,31.42578125,62.22265625,1,0,0,response1disk,,7,2.32421875,-4.68359375,1,0,0,rectangle,2.32421875,-4.68359375,1,0,0,2.32421875,-4.68359375,1,0,0,0,127,127,159,1,,,,,,,,
,,,,,,,,,,,,,FF,,,,,,,,0.8657,,,,,,,,,,,,,,,,,,,,,,60fbd8a8cfb0ae114d24ae48,61036efc0c3e88f62ed67503,2021-07-29_23h15.53.053,Simcolourproject_2stim_asymm_v5,2020.2.10,MacIntel,60,61025ae37ef11b136ea224fe,,,,,,,,,629,32.125,65.203125,1,0,0,response1disk,,7,4.9921875,0.109375,1,0,0,rectangle,4.9921875,0.109375,1,0,0,4.9921875,0.109375,1,0,0,0,128,128,18,1,,,,,,,,
,,,,,,,,,,,,,FF,,,,,,,,1.1325,,,,,,,,,,,,,,,,,,,,,,60fbd8a8cfb0ae114d24ae48,61036efc0c3e88f62ed67503,2021-07-29_23h15.53.053,Simcolourproject_2stim_asymm_v5,2020.2.10,MacIntel,60,61025ae37ef11b136ea224fe,,,,,,,,,3438,-39.046875,-69.65625,1,0,0,response5disk,,3,-7.2421875,3.99609375,1,0,0,rectangle,-7.2421875,3.99609375,1,0,0,-7.2421875,3.99609375,1,0,0,0,129,129,126,1,,,,,,,,
,,,,,,,,,,,,,FF,,,,,,,,1.5674,,,,,,,,,,,,,,,,,,,,,,60fbd8a8cfb0ae114d24ae48,61036efc0c3e88f62ed67503,2021-07-29_23h15.53.053,Simcolourproject_2stim_asymm_v5,2020.2.10,MacIntel,60,61025ae37ef11b136ea224fe,,,,,,,,,1692,99.30078125,44.0078125,1,0,0,response1disk,,6,4.484375,-0.0625,1,0,0,rectangle,4.484375,-0.0625,1,0,0,4.484375,-0.0625,1,0,0,0,130,130,98,1,,,,,,,,
,,,,,,,,,,,,,FF,,,,,,,,1.7167,,,,,,,,,,,,,,,,,,,,,,60fbd8a8cfb0ae114d24ae48,61036efc0c3e88f62ed67503,2021-07-29_23h15.53.053,Simcolourproject_2stim_asymm_v5,2020.2.10,MacIntel,60,61025ae37ef11b136ea224fe,,,,,,,,,1674,-62.34375,-50.15625,1,0,0,response5disk,,2,3.86328125,-5.47265625,1,0,0,rectangle,3.86328125,-5.47265625,1,0,0,3.86328125,-5.47265625,1,0,0,0,131,131,77,1,,,,,,,,
,,,,,,,,,,,,,FF,,,,,,,,1.2497,,,,,,,,,,,,,,,,,,,,,,60fbd8a8cfb0ae114d24ae48,61036efc0c3e88f62ed67503,2021-07-29_23h15.53.053,Simcolourproject_2stim_asymm_v5,2020.2.10,MacIntel,60,61025ae37ef11b136ea224fe,,,,,,,,,1140,61.38671875,-35.109375,1,0,0,response3disk,,5,-5.2890625,-10.96484375,1,0,0,rectangle,-5.2890625,-10.96484375,1,0,0,-5.2890625,-10.96484375,1,0,0,0,132,132,60,1,,,,,,,,
,,,,,,,,,,,,,FF,,,,,,,,0.8339,,,,,,,,,,,,,,,,,,,,,,60fbd8a8cfb0ae114d24ae48,61036efc0c3e88f62ed67503,2021-07-29_23h15.53.053,Simcolourproject_2stim_asymm_v5,2020.2.10,MacIntel,60,61025ae37ef11b136ea224fe,,,,,,,,,3293,-44.375,-75.875,1,0,0,response5disk,,3,0.05859375,-5.0234375,1,0,0,rectangle,0.05859375,-5.0234375,1,0,0,0.05859375,-5.0234375,1,0,0,0,133,133,67,1,,,,,,,,
,,,,,,,,,,,,,FF,,,,,,,,0.7844,,,,,,,,,,,,,,,,,,,,,,60fbd8a8cfb0ae114d24ae48,61036efc0c3e88f62ed67503,2021-07-29_23h15.53.053,Simcolourproject_2stim_asymm_v5,2020.2.10,MacIntel,60,61025ae37ef11b136ea224fe,,,,,,,,,4315,34.88671875,63.52734375,1,0,0,response1disk,,7,-1.46484375,-1.609375,1,0,0,rectangle,-1.46484375,-1.609375,1,0,0,-1.46484375,-1.609375,1,0,0,0,134,134,118,1,,,,,,,,
,,,,,,,,,,,,,FF,,,,,,,,1.4679,,,,,,,,,,,,,,,,,,,,,,60fbd8a8cfb0ae114d24ae48,61036efc0c3e88f62ed67503,2021-07-29_23h15.53.053,Simcolourproject_2stim_asymm_v5,2020.2.10,MacIntel,60,61025ae37ef11b136ea224fe,,,,,,,,,2783,-44.03125,-72.99609375,1,0,0,response5disk,,3,-3.01171875,-3.9296875,1,0,0,rectangle,-3.01171875,-3.9296875,1,0,0,-3.01171875,-3.9296875,1,0,0,0,135,135,145,1,,,,,,,,
,,,,,,,,,,,,,FF,,,,,,,,1.8501,,,,,,,,,,,,,,,,,,,,,,60fbd8a8cfb0ae114d24ae48,61036efc0c3e88f62ed67503,2021-07-29_23h15.53.053,Simcolourproject_2stim_asymm_v5,2020.2.10,MacIntel,60,61025ae37ef11b136ea224fe,,,,,,,,,3400,47.7109375,-72.2109375,1,0,0,response3disk,,4,3.08984375,-8.62109375,1,0,0,rectangle,3.08984375,-8.62109375,1,0,0,3.08984375,-8.62109375,1,0,0,0,136,136,41,1,,,,,,,,
,,,,,,,,,,,,,FF,,,,,,,,1.2352,,,,,,,,,,,,,,,,,,,,,,60fbd8a8cfb0ae114d24ae48,61036efc0c3e88f62ed67503,2021-07-29_23h15.53.053,Simcolourproject_2stim_asymm_v5,2020.2.10,MacIntel,60,61025ae37ef11b136ea224fe,,,,,,,,,1045,29.93359375,50.37890625,1,0,0,response1disk,,7,9.81640625,3.79296875,1,0,0,rectangle,9.81640625,3.79296875,1,0,0,9.81640625,3.79296875,1,0,0,0,137,137,89,1,,,,,,,,
,,,,,,,,,,,,,FF,,,,,,,,0.8313,,,,,,,,,,,,,,,,,,,,,,60fbd8a8cfb0ae114d24ae48,61036efc0c3e88f62ed67503,2021-07-29_23h15.53.053,Simcolourproject_2stim_asymm_v5,2020.2.10,MacIntel,60,61025ae37ef11b136ea224fe,,,,,,,,,4155,24.09765625,55.734375,1,0,0,response1disk,,7,18.66015625,-0.22265625,1,0,0,rectangle,18.66015625,-0.22265625,1,0,0,18.66015625,-0.22265625,1,0,0,0,138,138,52,1,,,,,,,,
,,,,,,,,,,,,,FF,,,,,,,,0.8506,,,,,,,,,,,,,,,,,,,,,,60fbd8a8cfb0ae114d24ae48,61036efc0c3e88f62ed67503,2021-07-29_23h15.53.053,Simcolourproject_2stim_asymm_v5,2020.2.10,MacIntel,60,61025ae37ef11b136ea224fe,,,,,,,,,3913,-62.18359375,-32.046875,1,0,0,response5disk,,2,-15.52734375,-11.84375,1,0,0,rectangle,-15.52734375,-11.84375,1,0,0,-15.52734375,-11.84375,1,0,0,0,139,139,93,1,,,,,,,,
,,,,,,,,,,,,,FF,,,,,,,,1.4343,,,,,,,,,,,,,,,,,,,,,,60fbd8a8cfb0ae114d24ae48,61036efc0c3e88f62ed67503,2021-07-29_23h15.53.053,Simcolourproject_2stim_asymm_v5,2020.2.10,MacIntel,60,61025ae37ef11b136ea224fe,,,,,,,,,2200,36.28125,60.671875,1,0,0,response1disk,,7,7,0.01953125,1,0,0,rectangle,7,0.01953125,1,0,0,7,0.01953125,1,0,0,0,140,140,36,1,,,,,,,,
,,,,,,,,,,,,,FF,,,,,,,,1.7826,,,,,,,,,,,,,,,,,,,,,,60fbd8a8cfb0ae114d24ae48,61036efc0c3e88f62ed67503,2021-07-29_23h15.53.053,Simcolourproject_2stim_asymm_v5,2020.2.10,MacIntel,60,61025ae37ef11b136ea224fe,,,,,,,,,4091,39.33984375,64.5390625,1,0,0,response1disk,,7,9.80859375,3.37109375,1,0,0,rectangle,9.80859375,3.37109375,1,0,0,9.80859375,3.37109375,1,0,0,0,141,141,156,1,,,,,,,,
,,,,,,,,,,,,,FF,,,,,,,,0.8999,,,,,,,,,,,,,,,,,,,,,,60fbd8a8cfb0ae114d24ae48,61036efc0c3e88f62ed67503,2021-07-29_23h15.53.053,Simcolourproject_2stim_asymm_v5,2020.2.10,MacIntel,60,61025ae37ef11b136ea224fe,,,,,,,,,2143,39.87109375,51.85546875,1,0,0,response1disk,,7,12.40625,-2.51171875,1,0,0,rectangle,12.40625,-2.51171875,1,0,0,12.40625,-2.51171875,1,0,0,0,142,142,128,1,,,,,,,,
,,,,,,,,,,,,,FF,,,,,,,,0.665,,,,,,,,,,,,,,,,,,,,,,60fbd8a8cfb0ae114d24ae48,61036efc0c3e88f62ed67503,2021-07-29_23h15.53.053,Simcolourproject_2stim_asymm_v5,2020.2.10,MacIntel,60,61025ae37ef11b136ea224fe,,,,,,,,,3643,23.92578125,62.15625,1,0,0,response1disk,,7,11.0234375,-8.41015625,1,0,0,rectangle,11.0234375,-8.41015625,1,0,0,11.0234375,-8.41015625,1,0,0,0,143,143,42,1,,,,,,,,
,,,,,,,,,,,,,FF,,,,,,,,1.0668,,,,,,,,,,,,,,,,,,,,,,60fbd8a8cfb0ae114d24ae48,61036efc0c3e88f62ed67503,2021-07-29_23h15.53.053,Simcolourproject_2stim_asymm_v5,2020.2.10,MacIntel,60,61025ae37ef11b136ea224fe,,,,,,,,,2061,65.9375,43.625,1,0,0,response1disk,,6,13.47265625,8.30078125,1,0,0,rectangle,13.47265625,8.30078125,1,0,0,13.47265625,8.30078125,1,0,0,0,144,144,51,1,,,,,,,,
,,,,,,,,,,,,,FF,,,,,,,,2.0336,,,,,,,,,,,,,,,,,,,,,,60fbd8a8cfb0ae114d24ae48,61036efc0c3e88f62ed67503,2021-07-29_23h15.53.053,Simcolourproject_2stim_asymm_v5,2020.2.10,MacIntel,60,61025ae37ef11b136ea224fe,,,,,,,,,3177,40.8203125,73.33984375,1,0,0,response1disk,,7,14.4296875,11.30078125,1,0,0,rectangle,41.0625,-85.0703125,1,0,0,6.13671875,-5.94921875,1,0,0,0,145,145,80,1,,response3disk_3,TRUE,4,4,"[13,172,18,232,212,69,146,77,206,94,293,195,276,78,51,10,160,170,25,280]",1.917,rectangle
,,,,,,,,,,,,,FF,,,,,,,,2.4485,,,,,,,,,,,,,,,,,,,,,,60fbd8a8cfb0ae114d24ae48,61036efc0c3e88f62ed67503,2021-07-29_23h15.53.053,Simcolourproject_2stim_asymm_v5,2020.2.10,MacIntel,60,61025ae37ef11b136ea224fe,,,,,,,,,4126,46.234375,-74.625,1,0,0,response3disk,,4,-3.1875,-7.6953125,1,0,0,rectangle,-3.1875,-7.6953125,1,0,0,-3.1875,-7.6953125,1,0,0,0,146,146,70,1,,,,,,,,
,,,,,,,,,,,,,FF,,,,,,,,2.3324,,,,,,,,,,,,,,,,,,,,,,60fbd8a8cfb0ae114d24ae48,61036efc0c3e88f62ed67503,2021-07-29_23h15.53.053,Simcolourproject_2stim_asymm_v5,2020.2.10,MacIntel,60,61025ae37ef11b136ea224fe,,,,,,,,,2433,35.68359375,-75.16015625,1,0,0,response3disk,,4,4.6640625,-7.06640625,1,0,0,rectangle,4.6640625,-7.06640625,1,0,0,4.6640625,-7.06640625,1,0,0,0,147,147,125,1,,,,,,,,
,,,,,,,,,,,,,FF,,,,,,,,2.8679,,,,,,,,,,,,,,,,,,,,,,60fbd8a8cfb0ae114d24ae48,61036efc0c3e88f62ed67503,2021-07-29_23h15.53.053,Simcolourproject_2stim_asymm_v5,2020.2.10,MacIntel,60,61025ae37ef11b136ea224fe,,,,,,,,,2521,39.0859375,-52.015625,1,0,0,response3disk,,4,5.546875,2.59765625,1,0,0,rectangle,5.546875,2.59765625,1,0,0,5.546875,2.59765625,1,0,0,0,148,148,105,1,,,,,,,,
,,,,,,,,,,,,,FF,,,,,,,,2.6514,,,,,,,,,,,,,,,,,,,,,,60fbd8a8cfb0ae114d24ae48,61036efc0c3e88f62ed67503,2021-07-29_23h15.53.053,Simcolourproject_2stim_asymm_v5,2020.2.10,MacIntel,60,61025ae37ef11b136ea224fe,,,,,,,,,556,-31.5078125,-97.67578125,1,0,0,response5disk,,3,-9.70703125,-5.96484375,1,0,0,rectangle,-9.70703125,-5.96484375,1,0,0,-9.70703125,-5.96484375,1,0,0,0,149,149,106,1,,,,,,,,
,,,,,,,,,,,,,FF,,,,,,,,0.7487,,,,,,,,,,,,,,,,,,,,,,60fbd8a8cfb0ae114d24ae48,61036efc0c3e88f62ed67503,2021-07-29_23h15.53.053,Simcolourproject_2stim_asymm_v5,2020.2.10,MacIntel,60,61025ae37ef11b136ea224fe,,,,,,,,,2953,-26.60546875,-56.0546875,1,0,0,response5disk,,3,-2.76953125,9.0390625,1,0,0,rectangle,-2.76953125,9.0390625,1,0,0,-2.76953125,9.0390625,1,0,0,0,150,150,108,1,,,,,,,,
,,,,,,,,,,,,,FF,,,,,,,,1.084,,,,,,,,,,,,,,,,,,,,,,60fbd8a8cfb0ae114d24ae48,61036efc0c3e88f62ed67503,2021-07-29_23h15.53.053,Simcolourproject_2stim_asymm_v5,2020.2.10,MacIntel,60,61025ae37ef11b136ea224fe,,,,,,,,,341,56.43359375,-79.7421875,1,0,0,response3disk,,4,-7.171875,4.02734375,1,0,0,rectangle,-7.171875,4.02734375,1,0,0,-7.171875,4.02734375,1,0,0,0,151,151,139,1,,,,,,,,
,,,,,,,,,,,,,FF,,,,,,,,0.6484,,,,,,,,,,,,,,,,,,,,,,60fbd8a8cfb0ae114d24ae48,61036efc0c3e88f62ed67503,2021-07-29_23h15.53.053,Simcolourproject_2stim_asymm_v5,2020.2.10,MacIntel,60,61025ae37ef11b136ea224fe,,,,,,,,,3194,23.046875,63.4296875,1,0,0,response1disk,,7,10.35546875,-2.28515625,1,0,0,rectangle,10.35546875,-2.28515625,1,0,0,10.35546875,-2.28515625,1,0,0,0,152,152,86,1,,,,,,,,
,,,,,,,,,,,,,FF,,,,,,,,0.8315,,,,,,,,,,,,,,,,,,,,,,60fbd8a8cfb0ae114d24ae48,61036efc0c3e88f62ed67503,2021-07-29_23h15.53.053,Simcolourproject_2stim_asymm_v5,2020.2.10,MacIntel,60,61025ae37ef11b136ea224fe,,,,,,,,,216,-51.5703125,-56.109375,1,0,0,response5disk,,3,1.72265625,-1.0234375,1,0,0,rectangle,1.72265625,-1.0234375,1,0,0,1.72265625,-1.0234375,1,0,0,0,153,153,55,1,,,,,,,,
,,,,,,,,,,,,,FF,,,,,,,,0.9328,,,,,,,,,,,,,,,,,,,,,,60fbd8a8cfb0ae114d24ae48,61036efc0c3e88f62ed67503,2021-07-29_23h15.53.053,Simcolourproject_2stim_asymm_v5,2020.2.10,MacIntel,60,61025ae37ef11b136ea224fe,,,,,,,,,94,-54.484375,82.3359375,1,0,0,response7disk,,0,-5.78125,6.390625,1,0,0,rectangle,-5.78125,6.390625,1,0,0,-5.78125,6.390625,1,0,0,0,154,154,7,1,,,,,,,,
,,,,,,,,,,,,,FF,,,,,,,,0.75,,,,,,,,,,,,,,,,,,,,,,60fbd8a8cfb0ae114d24ae48,61036efc0c3e88f62ed67503,2021-07-29_23h15.53.053,Simcolourproject_2stim_asymm_v5,2020.2.10,MacIntel,60,61025ae37ef11b136ea224fe,,,,,,,,,3364,68.953125,26.234375,1,0,0,response1disk,,6,-5.11328125,14.1875,1,0,0,rectangle,-5.11328125,14.1875,1,0,0,-5.11328125,14.1875,1,0,0,0,155,155,114,1,,,,,,,,
,,,,,,,,,,,,,FF,,,,,,,,0.7834,,,,,,,,,,,,,,,,,,,,,,60fbd8a8cfb0ae114d24ae48,61036efc0c3e88f62ed67503,2021-07-29_23h15.53.053,Simcolourproject_2stim_asymm_v5,2020.2.10,MacIntel,60,61025ae37ef11b136ea224fe,,,,,,,,,2319,31.65234375,64.95703125,1,0,0,response1disk,,7,8.7890625,-1.57421875,1,0,0,rectangle,8.7890625,-1.57421875,1,0,0,8.7890625,-1.57421875,1,0,0,0,156,156,157,1,,,,,,,,
,,,,,,,,,,,,,FF,,,,,,,,1.2494,,,,,,,,,,,,,,,,,,,,,,60fbd8a8cfb0ae114d24ae48,61036efc0c3e88f62ed67503,2021-07-29_23h15.53.053,Simcolourproject_2stim_asymm_v5,2020.2.10,MacIntel,60,61025ae37ef11b136ea224fe,,,,,,,,,3907,-89.48046875,39.64453125,1,0,0,response7disk,,1,-7.10546875,10.52734375,1,0,0,rectangle,-7.10546875,10.52734375,1,0,0,-7.10546875,10.52734375,1,0,0,0,157,157,96,1,,,,,,,,
,,,,,,,,,,,,,FF,,,,,,,,1.2184,,,,,,,,,,,,,,,,,,,,,,60fbd8a8cfb0ae114d24ae48,61036efc0c3e88f62ed67503,2021-07-29_23h15.53.053,Simcolourproject_2stim_asymm_v5,2020.2.10,MacIntel,60,61025ae37ef11b136ea224fe,,,,,,,,,3260,39.55078125,79.7578125,1,0,0,response1disk,,7,-5.0703125,1.921875,1,0,0,rectangle,-5.0703125,1.921875,1,0,0,-5.0703125,1.921875,1,0,0,0,158,158,115,1,,,,,,,,
,,,,,,,,,,,,,FF,,,,,,,,0.6839,,,,,,,,,,,,,,,,,,,,,,60fbd8a8cfb0ae114d24ae48,61036efc0c3e88f62ed67503,2021-07-29_23h15.53.053,Simcolourproject_2stim_asymm_v5,2020.2.10,MacIntel,60,61025ae37ef11b136ea224fe,,,,,,,,,3666,17.94921875,60.96875,1,0,0,response1disk,,7,-2.953125,3.3203125,1,0,0,rectangle,-99.7421875,-47.83203125,1,0,0,-13.38671875,-3.84765625,1,0,0,0,159,159,19,1,,response5disk_3,TRUE,2,2,"[13,172,18,232,212,69,146,77,206,94,293,195,276,78,51,10,160,170,25,280]",1.3013,rectangle
,,,,,,,,,,,,,FF,,,,,,,,0.883,,,,,,,,,,,,,,,,,,,,,,60fbd8a8cfb0ae114d24ae48,61036efc0c3e88f62ed67503,2021-07-29_23h15.53.053,Simcolourproject_2stim_asymm_v5,2020.2.10,MacIntel,60,61025ae37ef11b136ea224fe,,,,,,,,,3348,21.5625,57.52734375,1,0,0,response1disk,,7,3.90625,16.02734375,1,0,0,rectangle,3.90625,16.02734375,1,0,0,3.90625,16.02734375,1,0,0,1,0,160,77,1,,,,,,,,
,,,,,,,,,,,,,FF,,,,,,,,0.7661,,,,,,,,,,,,,,,,,,,,,,60fbd8a8cfb0ae114d24ae48,61036efc0c3e88f62ed67503,2021-07-29_23h15.53.053,Simcolourproject_2stim_asymm_v5,2020.2.10,MacIntel,60,61025ae37ef11b136ea224fe,,,,,,,,,59,24.70703125,41.6484375,1,0,0,response1disk,,7,18.28515625,11.49609375,1,0,0,rectangle,18.28515625,11.49609375,1,0,0,18.28515625,11.49609375,1,0,0,1,1,161,84,1,,,,,,,,
,,,,,,,,,,,,,FF,,,,,,,,0.9333,,,,,,,,,,,,,,,,,,,,,,60fbd8a8cfb0ae114d24ae48,61036efc0c3e88f62ed67503,2021-07-29_23h15.53.053,Simcolourproject_2stim_asymm_v5,2020.2.10,MacIntel,60,61025ae37ef11b136ea224fe,,,,,,,,,4364,-59.25,27.6796875,1,0,0,response7disk,,1,-16.3359375,11.22265625,1,0,0,rectangle,-16.3359375,11.22265625,1,0,0,-16.3359375,11.22265625,1,0,0,1,2,162,111,1,,,,,,,,
,,,,,,,,,,,,,FF,,,,,,,,1.0019,,,,,,,,,,,,,,,,,,,,,,60fbd8a8cfb0ae114d24ae48,61036efc0c3e88f62ed67503,2021-07-29_23h15.53.053,Simcolourproject_2stim_asymm_v5,2020.2.10,MacIntel,60,61025ae37ef11b136ea224fe,,,,,,,,,325,32.40234375,56.8828125,1,0,0,response1disk,,7,8.80078125,-1.44921875,1,0,0,rectangle,8.80078125,-1.44921875,1,0,0,8.80078125,-1.44921875,1,0,0,1,3,163,70,1,,,,,,,,
,,,,,,,,,,,,,FF,,,,,,,,1.1339,,,,,,,,,,,,,,,,,,,,,,60fbd8a8cfb0ae114d24ae48,61036efc0c3e88f62ed67503,2021-07-29_23h15.53.053,Simcolourproject_2stim_asymm_v5,2020.2.10,MacIntel,60,61025ae37ef11b136ea224fe,,,,,,,,,4212,35.47265625,55.47265625,1,0,0,response1disk,,7,22.7421875,6.87890625,1,0,0,rectangle,22.7421875,6.87890625,1,0,0,22.7421875,6.87890625,1,0,0,1,4,164,21,1,,,,,,,,
,,,,,,,,,,,,,FF,,,,,,,,0.8507,,,,,,,,,,,,,,,,,,,,,,60fbd8a8cfb0ae114d24ae48,61036efc0c3e88f62ed67503,2021-07-29_23h15.53.053,Simcolourproject_2stim_asymm_v5,2020.2.10,MacIntel,60,61025ae37ef11b136ea224fe,,,,,,,,,845,36.20703125,60.06640625,1,0,0,response1disk,,7,9.60546875,2.8125,1,0,0,rectangle,9.60546875,2.8125,1,0,0,9.60546875,2.8125,1,0,0,1,5,165,16,1,,,,,,,,
,,,,,,,,,,,,,FF,,,,,,,,0.6314,,,,,,,,,,,,,,,,,,,,,,60fbd8a8cfb0ae114d24ae48,61036efc0c3e88f62ed67503,2021-07-29_23h15.53.053,Simcolourproject_2stim_asymm_v5,2020.2.10,MacIntel,60,61025ae37ef11b136ea224fe,,,,,,,,,3647,38.109375,61.49609375,1,0,0,response1disk,,7,20.79296875,5.99609375,1,0,0,rectangle,20.79296875,5.99609375,1,0,0,20.79296875,5.99609375,1,0,0,1,6,166,49,1,,,,,,,,
,,,,,,,,,,,,,FF,,,,,,,,0.9347,,,,,,,,,,,,,,,,,,,,,,60fbd8a8cfb0ae114d24ae48,61036efc0c3e88f62ed67503,2021-07-29_23h15.53.053,Simcolourproject_2stim_asymm_v5,2020.2.10,MacIntel,60,61025ae37ef11b136ea224fe,,,,,,,,,2367,-69.97265625,-35.24609375,1,0,0,response5disk,,2,-22.03515625,-12.18359375,1,0,0,rectangle,-22.03515625,-12.18359375,1,0,0,-22.03515625,-12.18359375,1,0,0,1,7,167,59,1,,,,,,,,
,,,,,,,,,,,,,FF,,,,,,,,1.1013,,,,,,,,,,,,,,,,,,,,,,60fbd8a8cfb0ae114d24ae48,61036efc0c3e88f62ed67503,2021-07-29_23h15.53.053,Simcolourproject_2stim_asymm_v5,2020.2.10,MacIntel,60,61025ae37ef11b136ea224fe,,,,,,,,,1914,-29.765625,-87.75390625,1,0,0,response5disk,,3,-10.4921875,-2.08984375,1,0,0,rectangle,-10.4921875,-2.08984375,1,0,0,-10.4921875,-2.08984375,1,0,0,1,8,168,81,1,,,,,,,,
,,,,,,,,,,,,,FF,,,,,,,,0.7685,,,,,,,,,,,,,,,,,,,,,,60fbd8a8cfb0ae114d24ae48,61036efc0c3e88f62ed67503,2021-07-29_23h15.53.053,Simcolourproject_2stim_asymm_v5,2020.2.10,MacIntel,60,61025ae37ef11b136ea224fe,,,,,,,,,2403,36.5625,-66.171875,1,0,0,response3disk,,4,9.4765625,-3.5546875,1,0,0,rectangle,-58.7421875,-91.265625,1,0,0,-6.25390625,-1.171875,1,0,0,1,9,169,12,1,,response5disk_3,TRUE,3,3,"[13,172,18,232,212,69,146,77,206,94,293,195,276,78,51,10,160,170,25,280]",1.4484,rectangle
,,,,,,,,,,,,,FF,,,,,,,,1.3511,,,,,,,,,,,,,,,,,,,,,,60fbd8a8cfb0ae114d24ae48,61036efc0c3e88f62ed67503,2021-07-29_23h15.53.053,Simcolourproject_2stim_asymm_v5,2020.2.10,MacIntel,60,61025ae37ef11b136ea224fe,,,,,,,,,2672,-37.28515625,-64.65625,1,0,0,response5disk,,3,2.2578125,-4.8203125,1,0,0,rectangle,2.2578125,-4.8203125,1,0,0,2.2578125,-4.8203125,1,0,0,1,10,170,133,1,,,,,,,,
,,,,,,,,,,,,,FF,,,,,,,,1.1822,,,,,,,,,,,,,,,,,,,,,,60fbd8a8cfb0ae114d24ae48,61036efc0c3e88f62ed67503,2021-07-29_23h15.53.053,Simcolourproject_2stim_asymm_v5,2020.2.10,MacIntel,60,61025ae37ef11b136ea224fe,,,,,,,,,3962,97.05859375,-33.671875,1,0,0,response3disk,,5,-10.1640625,-8.98828125,1,0,0,rectangle,-90.73828125,41.234375,1,0,0,-7.97265625,9.83984375,1,0,0,1,11,171,67,1,,response7disk_3,TRUE,1,1,"[13,172,18,232,212,69,146,77,206,94,293,195,276,78,51,10,160,170,25,280]",1.3658,rectangle
,,,,,,,,,,,,,FF,,,,,,,,0.8183,,,,,,,,,,,,,,,,,,,,,,60fbd8a8cfb0ae114d24ae48,61036efc0c3e88f62ed67503,2021-07-29_23h15.53.053,Simcolourproject_2stim_asymm_v5,2020.2.10,MacIntel,60,61025ae37ef11b136ea224fe,,,,,,,,,3765,82.94921875,44.86328125,1,0,0,response1disk,,6,8.13671875,-6.76953125,1,0,0,rectangle,8.13671875,-6.76953125,1,0,0,8.13671875,-6.76953125,1,0,0,1,12,172,137,1,,,,,,,,
,,,,,,,,,,,,,FF,,,,,,,,0.784,,,,,,,,,,,,,,,,,,,,,,60fbd8a8cfb0ae114d24ae48,61036efc0c3e88f62ed67503,2021-07-29_23h15.53.053,Simcolourproject_2stim_asymm_v5,2020.2.10,MacIntel,60,61025ae37ef11b136ea224fe,,,,,,,,,1263,38.85546875,75.703125,1,0,0,response1disk,,7,9.16796875,-8.4765625,1,0,0,rectangle,9.16796875,-8.4765625,1,0,0,9.16796875,-8.4765625,1,0,0,1,13,173,118,1,,,,,,,,
,,,,,,,,,,,,,FF,,,,,,,,1.0686,,,,,,,,,,,,,,,,,,,,,,60fbd8a8cfb0ae114d24ae48,61036efc0c3e88f62ed67503,2021-07-29_23h15.53.053,Simcolourproject_2stim_asymm_v5,2020.2.10,MacIntel,60,61025ae37ef11b136ea224fe,,,,,,,,,4061,34.91796875,-63.98828125,1,0,0,response3disk,,4,-5.1640625,1.9140625,1,0,0,rectangle,-5.1640625,1.9140625,1,0,0,-5.1640625,1.9140625,1,0,0,1,14,174,57,1,,,,,,,,
,,,,,,,,,,,,,FF,,,,,,,,1.6997,,,,,,,,,,,,,,,,,,,,,,60fbd8a8cfb0ae114d24ae48,61036efc0c3e88f62ed67503,2021-07-29_23h15.53.053,Simcolourproject_2stim_asymm_v5,2020.2.10,MacIntel,60,61025ae37ef11b136ea224fe,,,,,,,,,1106,96.1640625,43.765625,1,0,0,response1disk,,6,-2.13671875,-1.58984375,1,0,0,rectangle,-2.13671875,-1.58984375,1,0,0,-2.13671875,-1.58984375,1,0,0,1,15,175,50,1,,,,,,,,
,,,,,,,,,,,,,FF,,,,,,,,1.4664,,,,,,,,,,,,,,,,,,,,,,60fbd8a8cfb0ae114d24ae48,61036efc0c3e88f62ed67503,2021-07-29_23h15.53.053,Simcolourproject_2stim_asymm_v5,2020.2.10,MacIntel,60,61025ae37ef11b136ea224fe,,,,,,,,,1248,-73.50390625,-37.88671875,1,0,0,response5disk,,2,-12.55078125,5.2265625,1,0,0,rectangle,-12.55078125,5.2265625,1,0,0,-12.55078125,5.2265625,1,0,0,1,16,176,0,1,,,,,,,,
,,,,,,,,,,,,,FF,,,,,,,,0.9006,,,,,,,,,,,,,,,,,,,,,,60fbd8a8cfb0ae114d24ae48,61036efc0c3e88f62ed67503,2021-07-29_23h15.53.053,Simcolourproject_2stim_asymm_v5,2020.2.10,MacIntel,60,61025ae37ef11b136ea224fe,,,,,,,,,3380,35.51171875,70.33984375,1,0,0,response1disk,,7,2.93359375,-0.1953125,1,0,0,rectangle,2.93359375,-0.1953125,1,0,0,2.93359375,-0.1953125,1,0,0,1,17,177,116,1,,,,,,,,
,,,,,,,,,,,,,FF,,,,,,,,0.851,,,,,,,,,,,,,,,,,,,,,,60fbd8a8cfb0ae114d24ae48,61036efc0c3e88f62ed67503,2021-07-29_23h15.53.053,Simcolourproject_2stim_asymm_v5,2020.2.10,MacIntel,60,61025ae37ef11b136ea224fe,,,,,,,,,1458,-54.6953125,-27.7890625,1,0,0,response5disk,,2,6.07421875,6.26171875,1,0,0,rectangle,6.07421875,6.26171875,1,0,0,6.07421875,6.26171875,1,0,0,1,18,178,37,1,,,,,,,,
,,,,,,,,,,,,,FF,,,,,,,,0.8329,,,,,,,,,,,,,,,,,,,,,,60fbd8a8cfb0ae114d24ae48,61036efc0c3e88f62ed67503,2021-07-29_23h15.53.053,Simcolourproject_2stim_asymm_v5,2020.2.10,MacIntel,60,61025ae37ef11b136ea224fe,,,,,,,,,2479,34.1015625,53.5078125,1,0,0,response1disk,,7,7.73046875,-2.71875,1,0,0,rectangle,7.73046875,-2.71875,1,0,0,7.73046875,-2.71875,1,0,0,1,19,179,66,1,,,,,,,,
,,,,,,,,,,,,,FF,,,,,,,,0.8335,,,,,,,,,,,,,,,,,,,,,,60fbd8a8cfb0ae114d24ae48,61036efc0c3e88f62ed67503,2021-07-29_23h15.53.053,Simcolourproject_2stim_asymm_v5,2020.2.10,MacIntel,60,61025ae37ef11b136ea224fe,,,,,,,,,1352,-55.37109375,-31.78125,1,0,0,response5disk,,2,6.44921875,-2.2109375,1,0,0,rectangle,6.44921875,-2.2109375,1,0,0,6.44921875,-2.2109375,1,0,0,1,20,180,79,1,,,,,,,,
,,,,,,,,,,,,,FF,,,,,,,,0.9319,,,,,,,,,,,,,,,,,,,,,,60fbd8a8cfb0ae114d24ae48,61036efc0c3e88f62ed67503,2021-07-29_23h15.53.053,Simcolourproject_2stim_asymm_v5,2020.2.10,MacIntel,60,61025ae37ef11b136ea224fe,,,,,,,,,257,-51.03125,-71.5859375,1,0,0,response5disk,,3,-0.578125,-5.73046875,1,0,0,rectangle,-0.578125,-5.73046875,1,0,0,-0.578125,-5.73046875,1,0,0,1,21,181,31,1,,,,,,,,
,,,,,,,,,,,,,FF,,,,,,,,1.6839,,,,,,,,,,,,,,,,,,,,,,60fbd8a8cfb0ae114d24ae48,61036efc0c3e88f62ed67503,2021-07-29_23h15.53.053,Simcolourproject_2stim_asymm_v5,2020.2.10,MacIntel,60,61025ae37ef11b136ea224fe,,,,,,,,,1442,-48.53125,-81.62890625,1,0,0,response5disk,,3,-15.27734375,-8.765625,1,0,0,rectangle,-15.27734375,-8.765625,1,0,0,-15.27734375,-8.765625,1,0,0,1,22,182,83,1,,,,,,,,
,,,,,,,,,,,,,FF,,,,,,,,0.6507,,,,,,,,,,,,,,,,,,,,,,60fbd8a8cfb0ae114d24ae48,61036efc0c3e88f62ed67503,2021-07-29_23h15.53.053,Simcolourproject_2stim_asymm_v5,2020.2.10,MacIntel,60,61025ae37ef11b136ea224fe,,,,,,,,,2798,-26.2265625,-63.796875,1,0,0,response5disk,,3,-1.8046875,-7.33984375,1,0,0,rectangle,-1.8046875,-7.33984375,1,0,0,-1.8046875,-7.33984375,1,0,0,1,23,183,117,1,,,,,,,,
,,,,,,,,,,,,,FF,,,,,,,,1.0176,,,,,,,,,,,,,,,,,,,,,,60fbd8a8cfb0ae114d24ae48,61036efc0c3e88f62ed67503,2021-07-29_23h15.53.053,Simcolourproject_2stim_asymm_v5,2020.2.10,MacIntel,60,61025ae37ef11b136ea224fe,,,,,,,,,1683,-55.91796875,-28.109375,1,0,0,response5disk,,2,-0.05078125,-3.95703125,1,0,0,rectangle,-0.05078125,-3.95703125,1,0,0,-0.05078125,-3.95703125,1,0,0,1,24,184,35,1,,,,,,,,
,,,,,,,,,,,,,FF,,,,,,,,1.5162,,,,,,,,,,,,,,,,,,,,,,60fbd8a8cfb0ae114d24ae48,61036efc0c3e88f62ed67503,2021-07-29_23h15.53.053,Simcolourproject_2stim_asymm_v5,2020.2.10,MacIntel,60,61025ae37ef11b136ea224fe,,,,,,,,,1973,-78.2421875,-47.05859375,1,0,0,response5disk,,2,-11.4296875,-1.03515625,1,0,0,rectangle,-11.4296875,-1.03515625,1,0,0,-11.4296875,-1.03515625,1,0,0,1,25,185,76,1,,,,,,,,
,,,,,,,,,,,,,FF,,,,,,,,0.6178,,,,,,,,,,,,,,,,,,,,,,60fbd8a8cfb0ae114d24ae48,61036efc0c3e88f62ed67503,2021-07-29_23h15.53.053,Simcolourproject_2stim_asymm_v5,2020.2.10,MacIntel,60,61025ae37ef11b136ea224fe,,,,,,,,,2029,-43.203125,-27.3984375,1,0,0,response5disk,,2,3.55078125,2.22265625,1,0,0,rectangle,3.55078125,2.22265625,1,0,0,3.55078125,2.22265625,1,0,0,1,26,186,72,1,,,,,,,,
,,,,,,,,,,,,,FF,,,,,,,,0.8348,,,,,,,,,,,,,,,,,,,,,,60fbd8a8cfb0ae114d24ae48,61036efc0c3e88f62ed67503,2021-07-29_23h15.53.053,Simcolourproject_2stim_asymm_v5,2020.2.10,MacIntel,60,61025ae37ef11b136ea224fe,,,,,,,,,2576,25.84375,-53.30859375,1,0,0,response3disk,,4,16.77734375,-6.609375,1,0,0,rectangle,16.77734375,-6.609375,1,0,0,16.77734375,-6.609375,1,0,0,1,27,187,115,1,,,,,,,,
,,,,,,,,,,,,,FF,,,,,,,,0.9514,,,,,,,,,,,,,,,,,,,,,,60fbd8a8cfb0ae114d24ae48,61036efc0c3e88f62ed67503,2021-07-29_23h15.53.053,Simcolourproject_2stim_asymm_v5,2020.2.10,MacIntel,60,61025ae37ef11b136ea224fe,,,,,,,,,132,29.5546875,60.71484375,1,0,0,response1disk,,7,16.3671875,17.8828125,1,0,0,rectangle,16.3671875,17.8828125,1,0,0,16.3671875,17.8828125,1,0,0,1,28,188,136,1,,,,,,,,
,,,,,,,,,,,,,FF,,,,,,,,0.6662,,,,,,,,,,,,,,,,,,,,,,60fbd8a8cfb0ae114d24ae48,61036efc0c3e88f62ed67503,2021-07-29_23h15.53.053,Simcolourproject_2stim_asymm_v5,2020.2.10,MacIntel,60,61025ae37ef11b136ea224fe,,,,,,,,,4080,35.828125,53.91796875,1,0,0,response1disk,,7,14.48046875,8.6953125,1,0,0,rectangle,14.48046875,8.6953125,1,0,0,14.48046875,8.6953125,1,0,0,1,29,189,135,1,,,,,,,,
,,,,,,,,,,,,,FF,,,,,,,,0.8648,,,,,,,,,,,,,,,,,,,,,,60fbd8a8cfb0ae114d24ae48,61036efc0c3e88f62ed67503,2021-07-29_23h15.53.053,Simcolourproject_2stim_asymm_v5,2020.2.10,MacIntel,60,61025ae37ef11b136ea224fe,,,,,,,,,4059,-46.0625,-75.6875,1,0,0,response5disk,,3,-12.87109375,-7.578125,1,0,0,rectangle,-12.87109375,-7.578125,1,0,0,-12.87109375,-7.578125,1,0,0,1,30,190,38,1,,,,,,,,
,,,,,,,,,,,,,FF,,,,,,,,1.3347,,,,,,,,,,,,,,,,,,,,,,60fbd8a8cfb0ae114d24ae48,61036efc0c3e88f62ed67503,2021-07-29_23h15.53.053,Simcolourproject_2stim_asymm_v5,2020.2.10,MacIntel,60,61025ae37ef11b136ea224fe,,,,,,,,,2435,33.43359375,-70.9609375,1,0,0,response3disk,,4,3.765625,-11.01171875,1,0,0,rectangle,3.765625,-11.01171875,1,0,0,3.765625,-11.01171875,1,0,0,1,31,191,123,1,,,,,,,,
,,,,,,,,,,,,,FF,,,,,,,,0.9316,,,,,,,,,,,,,,,,,,,,,,60fbd8a8cfb0ae114d24ae48,61036efc0c3e88f62ed67503,2021-07-29_23h15.53.053,Simcolourproject_2stim_asymm_v5,2020.2.10,MacIntel,60,61025ae37ef11b136ea224fe,,,,,,,,,2485,-30.4375,-58.140625,1,0,0,response5disk,,3,-7.73828125,-1.359375,1,0,0,rectangle,-7.73828125,-1.359375,1,0,0,-7.73828125,-1.359375,1,0,0,1,32,192,51,1,,,,,,,,
,,,,,,,,,,,,,FF,,,,,,,,0.7317,,,,,,,,,,,,,,,,,,,,,,60fbd8a8cfb0ae114d24ae48,61036efc0c3e88f62ed67503,2021-07-29_23h15.53.053,Simcolourproject_2stim_asymm_v5,2020.2.10,MacIntel,60,61025ae37ef11b136ea224fe,,,,,,,,,2993,-44.73828125,72.31640625,1,0,0,response7disk,,0,-4.69140625,5.2421875,1,0,0,rectangle,-4.69140625,5.2421875,1,0,0,-4.69140625,5.2421875,1,0,0,1,33,193,89,1,,,,,,,,
,,,,,,,,,,,,,FF,,,,,,,,1.7478,,,,,,,,,,,,,,,,,,,,,,60fbd8a8cfb0ae114d24ae48,61036efc0c3e88f62ed67503,2021-07-29_23h15.53.053,Simcolourproject_2stim_asymm_v5,2020.2.10,MacIntel,60,61025ae37ef11b136ea224fe,,,,,,,,,2428,-49.890625,-62.51953125,1,0,0,response5disk,,3,-4.82421875,5.203125,1,0,0,rectangle,-34.61328125,-78.37109375,1,0,0,-2.37890625,1.6640625,1,0,0,1,34,194,65,1,,response5disk_3,TRUE,3,3,"[13,172,18,232,212,69,146,77,206,94,293,195,276,78,51,10,160,170,25,280]",1.283,rectangle
,,,,,,,,,,,,,FF,,,,,,,,0.85,,,,,,,,,,,,,,,,,,,,,,60fbd8a8cfb0ae114d24ae48,61036efc0c3e88f62ed67503,2021-07-29_23h15.53.053,Simcolourproject_2stim_asymm_v5,2020.2.10,MacIntel,60,61025ae37ef11b136ea224fe,,,,,,,,,2574,37.9453125,78.02734375,1,0,0,response1disk,,7,17.85546875,1.58203125,1,0,0,rectangle,17.85546875,1.58203125,1,0,0,17.85546875,1.58203125,1,0,0,1,35,195,153,1,,,,,,,,
,,,,,,,,,,,,,FF,,,,,,,,0.6665,,,,,,,,,,,,,,,,,,,,,,60fbd8a8cfb0ae114d24ae48,61036efc0c3e88f62ed67503,2021-07-29_23h15.53.053,Simcolourproject_2stim_asymm_v5,2020.2.10,MacIntel,60,61025ae37ef11b136ea224fe,,,,,,,,,792,33.453125,58.29296875,1,0,0,response1disk,,7,15.8828125,9.3203125,1,0,0,rectangle,15.8828125,9.3203125,1,0,0,15.8828125,9.3203125,1,0,0,1,36,196,28,1,,,,,,,,
,,,,,,,,,,,,,FF,,,,,,,,0.8501,,,,,,,,,,,,,,,,,,,,,,60fbd8a8cfb0ae114d24ae48,61036efc0c3e88f62ed67503,2021-07-29_23h15.53.053,Simcolourproject_2stim_asymm_v5,2020.2.10,MacIntel,60,61025ae37ef11b136ea224fe,,,,,,,,,674,-59.26953125,-29.265625,1,0,0,response5disk,,2,-17.16015625,-8.921875,1,0,0,rectangle,-17.16015625,-8.921875,1,0,0,-17.16015625,-8.921875,1,0,0,1,37,197,148,1,,,,,,,,
,,,,,,,,,,,,,FF,,,,,,,,1.3654,,,,,,,,,,,,,,,,,,,,,,60fbd8a8cfb0ae114d24ae48,61036efc0c3e88f62ed67503,2021-07-29_23h15.53.053,Simcolourproject_2stim_asymm_v5,2020.2.10,MacIntel,60,61025ae37ef11b136ea224fe,,,,,,,,,2570,-25.32421875,-58.9375,1,0,0,response5disk,,3,-3.01171875,-9.140625,1,0,0,rectangle,-3.01171875,-9.140625,1,0,0,-3.01171875,-9.140625,1,0,0,1,38,198,13,1,,,,,,,,
,,,,,,,,,,,,,FF,,,,,,,,1.1659,,,,,,,,,,,,,,,,,,,,,,60fbd8a8cfb0ae114d24ae48,61036efc0c3e88f62ed67503,2021-07-29_23h15.53.053,Simcolourproject_2stim_asymm_v5,2020.2.10,MacIntel,60,61025ae37ef11b136ea224fe,,,,,,,,,4286,83.75,37.41796875,1,0,0,response1disk,,6,16.65625,-0.2734375,1,0,0,rectangle,16.65625,-0.2734375,1,0,0,16.65625,-0.2734375,1,0,0,1,39,199,85,1,,,,,,,,
,,,,,,,,,,,,,FF,,,,,,,,1.4846,,,,,,,,,,,,,,,,,,,,,,60fbd8a8cfb0ae114d24ae48,61036efc0c3e88f62ed67503,2021-07-29_23h15.53.053,Simcolourproject_2stim_asymm_v5,2020.2.10,MacIntel,60,61025ae37ef11b136ea224fe,,,,,,,,,2525,41.140625,73.31640625,1,0,0,response1disk,,7,9.671875,-2.1015625,1,0,0,rectangle,9.671875,-2.1015625,1,0,0,9.671875,-2.1015625,1,0,0,1,40,200,140,1,,,,,,,,
,,,,,,,,,,,,,FF,,,,,,,,0.7688,,,,,,,,,,,,,,,,,,,,,,60fbd8a8cfb0ae114d24ae48,61036efc0c3e88f62ed67503,2021-07-29_23h15.53.053,Simcolourproject_2stim_asymm_v5,2020.2.10,MacIntel,60,61025ae37ef11b136ea224fe,,,,,,,,,633,-40.9609375,-21.42578125,1,0,0,response5disk,,2,-5.97265625,0.17578125,1,0,0,rectangle,-5.97265625,0.17578125,1,0,0,-5.97265625,0.17578125,1,0,0,1,41,201,62,1,,,,,,,,
,,,,,,,,,,,,,FF,,,,,,,,0.7478,,,,,,,,,,,,,,,,,,,,,,60fbd8a8cfb0ae114d24ae48,61036efc0c3e88f62ed67503,2021-07-29_23h15.53.053,Simcolourproject_2stim_asymm_v5,2020.2.10,MacIntel,60,61025ae37ef11b136ea224fe,,,,,,,,,3386,-58.30859375,-30.14453125,1,0,0,response5disk,,2,-9.41015625,2.578125,1,0,0,rectangle,-9.41015625,2.578125,1,0,0,-9.41015625,2.578125,1,0,0,1,42,202,42,1,,,,,,,,
,,,,,,,,,,,,,FF,,,,,,,,0.7168,,,,,,,,,,,,,,,,,,,,,,60fbd8a8cfb0ae114d24ae48,61036efc0c3e88f62ed67503,2021-07-29_23h15.53.053,Simcolourproject_2stim_asymm_v5,2020.2.10,MacIntel,60,61025ae37ef11b136ea224fe,,,,,,,,,501,18.48828125,64.43359375,1,0,0,response1disk,,7,9.04296875,12.01171875,1,0,0,rectangle,9.04296875,12.01171875,1,0,0,9.04296875,12.01171875,1,0,0,1,43,203,126,1,,,,,,,,
,,,,,,,,,,,,,FF,,,,,,,,0.6674,,,,,,,,,,,,,,,,,,,,,,60fbd8a8cfb0ae114d24ae48,61036efc0c3e88f62ed67503,2021-07-29_23h15.53.053,Simcolourproject_2stim_asymm_v5,2020.2.10,MacIntel,60,61025ae37ef11b136ea224fe,,,,,,,,,1498,31.1796875,57.30078125,1,0,0,response1disk,,7,22.39453125,6.99609375,1,0,0,rectangle,22.39453125,6.99609375,1,0,0,22.39453125,6.99609375,1,0,0,1,44,204,26,1,,,,,,,,
,,,,,,,,,,,,,FF,,,,,,,,0.7174,,,,,,,,,,,,,,,,,,,,,,60fbd8a8cfb0ae114d24ae48,61036efc0c3e88f62ed67503,2021-07-29_23h15.53.053,Simcolourproject_2stim_asymm_v5,2020.2.10,MacIntel,60,61025ae37ef11b136ea224fe,,,,,,,,,3739,28.82421875,56.25390625,1,0,0,response1disk,,7,19.73046875,8.1171875,1,0,0,rectangle,-69.75390625,-50.59375,1,0,0,-22.66796875,-2.40234375,1,0,0,1,45,205,6,1,,response5disk_3,TRUE,2,2,"[13,172,18,232,212,69,146,77,206,94,293,195,276,78,51,10,160,170,25,280]",1.1506,rectangle
,,,,,,,,,,,,,FF,,,,,,,,1.2832,,,,,,,,,,,,,,,,,,,,,,60fbd8a8cfb0ae114d24ae48,61036efc0c3e88f62ed67503,2021-07-29_23h15.53.053,Simcolourproject_2stim_asymm_v5,2020.2.10,MacIntel,60,61025ae37ef11b136ea224fe,,,,,,,,,1687,-43.34765625,-66.83984375,1,0,0,response5disk,,3,-6.5390625,-5.375,1,0,0,rectangle,-6.5390625,-5.375,1,0,0,-6.5390625,-5.375,1,0,0,1,46,206,71,1,,,,,,,,
,,,,,,,,,,,,,FF,,,,,,,,1.1005,,,,,,,,,,,,,,,,,,,,,,60fbd8a8cfb0ae114d24ae48,61036efc0c3e88f62ed67503,2021-07-29_23h15.53.053,Simcolourproject_2stim_asymm_v5,2020.2.10,MacIntel,60,61025ae37ef11b136ea224fe,,,,,,,,,2007,62.70703125,50.82421875,1,0,0,response1disk,,6,8.15234375,-9.6640625,1,0,0,rectangle,8.15234375,-9.6640625,1,0,0,8.15234375,-9.6640625,1,0,0,1,47,207,9,1,,,,,,,,
,,,,,,,,,,,,,FF,,,,,,,,1.1506,,,,,,,,,,,,,,,,,,,,,,60fbd8a8cfb0ae114d24ae48,61036efc0c3e88f62ed67503,2021-07-29_23h15.53.053,Simcolourproject_2stim_asymm_v5,2020.2.10,MacIntel,60,61025ae37ef11b136ea224fe,,,,,,,,,2492,78.4453125,-39.5,1,0,0,response3disk,,5,9.80078125,-8.765625,1,0,0,rectangle,9.80078125,-8.765625,1,0,0,9.80078125,-8.765625,1,0,0,1,48,208,103,1,,,,,,,,
,,,,,,,,,,,,,FF,,,,,,,,0.6339,,,,,,,,,,,,,,,,,,,,,,60fbd8a8cfb0ae114d24ae48,61036efc0c3e88f62ed67503,2021-07-29_23h15.53.053,Simcolourproject_2stim_asymm_v5,2020.2.10,MacIntel,60,61025ae37ef11b136ea224fe,,,,,,,,,4242,21.7734375,54.29296875,1,0,0,response1disk,,7,17.20703125,7.015625,1,0,0,rectangle,17.20703125,7.015625,1,0,0,17.20703125,7.015625,1,0,0,1,49,209,5,1,,,,,,,,
,,,,,,,,,,,,,FF,,,,,,,,0.9982,,,,,,,,,,,,,,,,,,,,,,60fbd8a8cfb0ae114d24ae48,61036efc0c3e88f62ed67503,2021-07-29_23h15.53.053,Simcolourproject_2stim_asymm_v5,2020.2.10,MacIntel,60,61025ae37ef11b136ea224fe,,,,,,,,,1510,56.98828125,36.76171875,1,0,0,response1disk,,6,29.54296875,13.0390625,1,0,0,rectangle,29.54296875,13.0390625,1,0,0,29.54296875,13.0390625,1,0,0,1,50,210,2,1,,,,,,,,
,,,,,,,,,,,,,FF,,,,,,,,0.9025,,,,,,,,,,,,,,,,,,,,,,60fbd8a8cfb0ae114d24ae48,61036efc0c3e88f62ed67503,2021-07-29_23h15.53.053,Simcolourproject_2stim_asymm_v5,2020.2.10,MacIntel,60,61025ae37ef11b136ea224fe,,,,,,,,,3482,-39.18359375,-51.5390625,1,0,0,response5disk,,3,-5.2578125,-8.44140625,1,0,0,rectangle,83.29296875,-29.1796875,1,0,0,2.2109375,-8.12890625,1,0,0,1,51,211,74,1,,response3disk_3,TRUE,5,5,"[13,172,18,232,212,69,146,77,206,94,293,195,276,78,51,10,160,170,25,280]",1.3697,rectangle
,,,,,,,,,,,,,FF,,,,,,,,2.1841,,,,,,,,,,,,,,,,,,,,,,60fbd8a8cfb0ae114d24ae48,61036efc0c3e88f62ed67503,2021-07-29_23h15.53.053,Simcolourproject_2stim_asymm_v5,2020.2.10,MacIntel,60,61025ae37ef11b136ea224fe,,,,,,,,,785,-57.8671875,-35.25,1,0,0,response5disk,,2,-4.56640625,-7.42578125,1,0,0,rectangle,-4.56640625,-7.42578125,1,0,0,-4.56640625,-7.42578125,1,0,0,1,52,212,154,1,,,,,,,,
,,,,,,,,,,,,,FF,,,,,,,,0.9155,,,,,,,,,,,,,,,,,,,,,,60fbd8a8cfb0ae114d24ae48,61036efc0c3e88f62ed67503,2021-07-29_23h15.53.053,Simcolourproject_2stim_asymm_v5,2020.2.10,MacIntel,60,61025ae37ef11b136ea224fe,,,,,,,,,1928,-46.46875,-31.8046875,1,0,0,response5disk,,2,-2.39453125,-14.890625,1,0,0,rectangle,-2.39453125,-14.890625,1,0,0,-2.39453125,-14.890625,1,0,0,1,53,213,130,1,,,,,,,,
,,,,,,,,,,,,,FF,,,,,,,,0.999,,,,,,,,,,,,,,,,,,,,,,60fbd8a8cfb0ae114d24ae48,61036efc0c3e88f62ed67503,2021-07-29_23h15.53.053,Simcolourproject_2stim_asymm_v5,2020.2.10,MacIntel,60,61025ae37ef11b136ea224fe,,,,,,,,,989,-40.75390625,-62.60546875,1,0,0,response5disk,,3,-9.546875,-6.41796875,1,0,0,rectangle,-9.546875,-6.41796875,1,0,0,-9.546875,-6.41796875,1,0,0,1,54,214,80,1,,,,,,,,
,,,,,,,,,,,,,FF,,,,,,,,1.4989,,,,,,,,,,,,,,,,,,,,,,60fbd8a8cfb0ae114d24ae48,61036efc0c3e88f62ed67503,2021-07-29_23h15.53.053,Simcolourproject_2stim_asymm_v5,2020.2.10,MacIntel,60,61025ae37ef11b136ea224fe,,,,,,,,,2656,-34.47265625,-45.4296875,1,0,0,response5disk,,3,-6.21875,3.8984375,1,0,0,rectangle,-6.21875,3.8984375,1,0,0,-6.21875,3.8984375,1,0,0,1,55,215,20,1,,,,,,,,
,,,,,,,,,,,,,FF,,,,,,,,0.8329,,,,,,,,,,,,,,,,,,,,,,60fbd8a8cfb0ae114d24ae48,61036efc0c3e88f62ed67503,2021-07-29_23h15.53.053,Simcolourproject_2stim_asymm_v5,2020.2.10,MacIntel,60,61025ae37ef11b136ea224fe,,,,,,,,,3825,34.2890625,-66.05859375,1,0,0,response3disk,,4,12.42578125,1.4375,1,0,0,rectangle,12.42578125,1.4375,1,0,0,12.42578125,1.4375,1,0,0,1,56,216,149,1,,,,,,,,
,,,,,,,,,,,,,FF,,,,,,,,0.667,,,,,,,,,,,,,,,,,,,,,,60fbd8a8cfb0ae114d24ae48,61036efc0c3e88f62ed67503,2021-07-29_23h15.53.053,Simcolourproject_2stim_asymm_v5,2020.2.10,MacIntel,60,61025ae37ef11b136ea224fe,,,,,,,,,100,-54.80859375,-24.171875,1,0,0,response5disk,,2,-2.95703125,-8.390625,1,0,0,rectangle,-2.95703125,-8.390625,1,0,0,-2.95703125,-8.390625,1,0,0,1,57,217,119,1,,,,,,,,
,,,,,,,,,,,,,FF,,,,,,,,1.3314,,,,,,,,,,,,,,,,,,,,,,60fbd8a8cfb0ae114d24ae48,61036efc0c3e88f62ed67503,2021-07-29_23h15.53.053,Simcolourproject_2stim_asymm_v5,2020.2.10,MacIntel,60,61025ae37ef11b136ea224fe,,,,,,,,,4064,66.109375,-28.953125,1,0,0,response3disk,,5,10.6640625,-15.82421875,1,0,0,rectangle,10.6640625,-15.82421875,1,0,0,10.6640625,-15.82421875,1,0,0,1,58,218,29,1,,,,,,,,
,,,,,,,,,,,,,FF,,,,,,,,1.0325,,,,,,,,,,,,,,,,,,,,,,60fbd8a8cfb0ae114d24ae48,61036efc0c3e88f62ed67503,2021-07-29_23h15.53.053,Simcolourproject_2stim_asymm_v5,2020.2.10,MacIntel,60,61025ae37ef11b136ea224fe,,,,,,,,,1693,63.5859375,40.375,1,0,0,response1disk,,6,4.22265625,4.078125,1,0,0,rectangle,4.22265625,4.078125,1,0,0,4.22265625,4.078125,1,0,0,1,59,219,145,1,,,,,,,,
,,,,,,,,,,,,,FF,,,,,,,,0.5988,,,,,,,,,,,,,,,,,,,,,,60fbd8a8cfb0ae114d24ae48,61036efc0c3e88f62ed67503,2021-07-29_23h15.53.053,Simcolourproject_2stim_asymm_v5,2020.2.10,MacIntel,60,61025ae37ef11b136ea224fe,,,,,,,,,3451,25.046875,46.0703125,1,0,0,response1disk,,7,6.01171875,0.390625,1,0,0,rectangle,6.01171875,0.390625,1,0,0,6.01171875,0.390625,1,0,0,1,60,220,110,1,,,,,,,,
,,,,,,,,,,,,,FF,,,,,,,,1.0154,,,,,,,,,,,,,,,,,,,,,,60fbd8a8cfb0ae114d24ae48,61036efc0c3e88f62ed67503,2021-07-29_23h15.53.053,Simcolourproject_2stim_asymm_v5,2020.2.10,MacIntel,60,61025ae37ef11b136ea224fe,,,,,,,,,4017,17.2421875,43.6796875,1,0,0,response1disk,,7,12.0234375,5.6640625,1,0,0,rectangle,12.0234375,5.6640625,1,0,0,12.0234375,5.6640625,1,0,0,1,61,221,53,1,,,,,,,,
,,,,,,,,,,,,,FF,,,,,,,,1.183,,,,,,,,,,,,,,,,,,,,,,60fbd8a8cfb0ae114d24ae48,61036efc0c3e88f62ed67503,2021-07-29_23h15.53.053,Simcolourproject_2stim_asymm_v5,2020.2.10,MacIntel,60,61025ae37ef11b136ea224fe,,,,,,,,,3154,38.48828125,-52.53515625,1,0,0,response3disk,,4,15.7578125,3.3046875,1,0,0,rectangle,15.7578125,3.3046875,1,0,0,15.7578125,3.3046875,1,0,0,1,62,222,105,1,,,,,,,,
,,,,,,,,,,,,,FF,,,,,,,,0.7509,,,,,,,,,,,,,,,,,,,,,,60fbd8a8cfb0ae114d24ae48,61036efc0c3e88f62ed67503,2021-07-29_23h15.53.053,Simcolourproject_2stim_asymm_v5,2020.2.10,MacIntel,60,61025ae37ef11b136ea224fe,,,,,,,,,2306,-22.50390625,-47.203125,1,0,0,response5disk,,3,1.83984375,1.78125,1,0,0,rectangle,1.83984375,1.78125,1,0,0,1.83984375,1.78125,1,0,0,1,63,223,69,1,,,,,,,,
,,,,,,,,,,,,,FF,,,,,,,,0.6163,,,,,,,,,,,,,,,,,,,,,,60fbd8a8cfb0ae114d24ae48,61036efc0c3e88f62ed67503,2021-07-29_23h15.53.053,Simcolourproject_2stim_asymm_v5,2020.2.10,MacIntel,60,61025ae37ef11b136ea224fe,,,,,,,,,3741,-24.51953125,54.63671875,1,0,0,response7disk,,0,-10.43359375,11.83203125,1,0,0,rectangle,-10.43359375,11.83203125,1,0,0,-10.43359375,11.83203125,1,0,0,1,64,224,52,1,,,,,,,,
,,,,,,,,,,,,,FF,,,,,,,,1.1663,,,,,,,,,,,,,,,,,,,,,,60fbd8a8cfb0ae114d24ae48,61036efc0c3e88f62ed67503,2021-07-29_23h15.53.053,Simcolourproject_2stim_asymm_v5,2020.2.10,MacIntel,60,61025ae37ef11b136ea224fe,,,,,,,,,1666,20.2265625,-49.3671875,1,0,0,response3disk,,4,-6.2421875,-0.9375,1,0,0,rectangle,-6.2421875,-0.9375,1,0,0,-6.2421875,-0.9375,1,0,0,1,65,225,33,1,,,,,,,,
,,,,,,,,,,,,,FF,,,,,,,,0.6655,,,,,,,,,,,,,,,,,,,,,,60fbd8a8cfb0ae114d24ae48,61036efc0c3e88f62ed67503,2021-07-29_23h15.53.053,Simcolourproject_2stim_asymm_v5,2020.2.10,MacIntel,60,61025ae37ef11b136ea224fe,,,,,,,,,2140,54.81640625,29.84375,1,0,0,response1disk,,6,10.61328125,1.2109375,1,0,0,rectangle,10.61328125,1.2109375,1,0,0,10.61328125,1.2109375,1,0,0,1,66,226,25,1,,,,,,,,
,,,,,,,,,,,,,FF,,,,,,,,0.6653,,,,,,,,,,,,,,,,,,,,,,60fbd8a8cfb0ae114d24ae48,61036efc0c3e88f62ed67503,2021-07-29_23h15.53.053,Simcolourproject_2stim_asymm_v5,2020.2.10,MacIntel,60,61025ae37ef11b136ea224fe,,,,,,,,,2384,57.4375,23.87109375,1,0,0,response1disk,,6,22.13671875,12.2890625,1,0,0,rectangle,22.13671875,12.2890625,1,0,0,22.13671875,12.2890625,1,0,0,1,67,227,34,1,,,,,,,,
,,,,,,,,,,,,,FF,,,,,,,,0.8021,,,,,,,,,,,,,,,,,,,,,,60fbd8a8cfb0ae114d24ae48,61036efc0c3e88f62ed67503,2021-07-29_23h15.53.053,Simcolourproject_2stim_asymm_v5,2020.2.10,MacIntel,60,61025ae37ef11b136ea224fe,,,,,,,,,934,62.2265625,42.98046875,1,0,0,response1disk,,6,27.41796875,9.73046875,1,0,0,rectangle,27.41796875,9.73046875,1,0,0,27.41796875,9.73046875,1,0,0,1,68,228,108,1,,,,,,,,
,,,,,,,,,,,,,FF,,,,,,,,0.7508,,,,,,,,,,,,,,,,,,,,,,60fbd8a8cfb0ae114d24ae48,61036efc0c3e88f62ed67503,2021-07-29_23h15.53.053,Simcolourproject_2stim_asymm_v5,2020.2.10,MacIntel,60,61025ae37ef11b136ea224fe,,,,,,,,,2686,34.359375,62.98828125,1,0,0,response1disk,,7,31.95703125,-0.265625,1,0,0,rectangle,31.95703125,-0.265625,1,0,0,31.95703125,-0.265625,1,0,0,1,69,229,78,1,,,,,,,,
,,,,,,,,,,,,,FF,,,,,,,,0.5173,,,,,,,,,,,,,,,,,,,,,,60fbd8a8cfb0ae114d24ae48,61036efc0c3e88f62ed67503,2021-07-29_23h15.53.053,Simcolourproject_2stim_asymm_v5,2020.2.10,MacIntel,60,61025ae37ef11b136ea224fe,,,,,,,,,3874,31.71875,38.09765625,1,0,0,response1disk,,7,31.71875,10.0546875,1,0,0,rectangle,31.71875,10.0546875,1,0,0,31.71875,10.0546875,1,0,0,1,70,230,152,1,,,,,,,,
,,,,,,,,,,,,,FF,,,,,,,,0.9843,,,,,,,,,,,,,,,,,,,,,,60fbd8a8cfb0ae114d24ae48,61036efc0c3e88f62ed67503,2021-07-29_23h15.53.053,Simcolourproject_2stim_asymm_v5,2020.2.10,MacIntel,60,61025ae37ef11b136ea224fe,,,,,,,,,1671,-34.8984375,-47.0859375,1,0,0,response5disk,,3,-7.375,3.08203125,1,0,0,rectangle,-75.10546875,47.7109375,1,0,0,-8.5234375,7.2734375,1,0,0,1,71,231,3,1,,response7disk_3,TRUE,1,1,"[13,172,18,232,212,69,146,77,206,94,293,195,276,78,51,10,160,170,25,280]",1.2334,rectangle
,,,,,,,,,,,,,FF,,,,,,,,0.8658,,,,,,,,,,,,,,,,,,,,,,60fbd8a8cfb0ae114d24ae48,61036efc0c3e88f62ed67503,2021-07-29_23h15.53.053,Simcolourproject_2stim_asymm_v5,2020.2.10,MacIntel,60,61025ae37ef11b136ea224fe,,,,,,,,,3127,20.609375,53.99609375,1,0,0,response1disk,,7,8.7109375,-4.34375,1,0,0,rectangle,8.7109375,-4.34375,1,0,0,8.7109375,-4.34375,1,0,0,1,72,232,86,1,,,,,,,,
,,,,,,,,,,,,,FF,,,,,,,,0.8508,,,,,,,,,,,,,,,,,,,,,,60fbd8a8cfb0ae114d24ae48,61036efc0c3e88f62ed67503,2021-07-29_23h15.53.053,Simcolourproject_2stim_asymm_v5,2020.2.10,MacIntel,60,61025ae37ef11b136ea224fe,,,,,,,,,4151,-54.7421875,-28.1328125,1,0,0,response5disk,,2,-9.44921875,5.59375,1,0,0,rectangle,-9.44921875,5.59375,1,0,0,-9.44921875,5.59375,1,0,0,1,73,233,45,1,,,,,,,,
,,,,,,,,,,,,,FF,,,,,,,,1.7996,,,,,,,,,,,,,,,,,,,,,,60fbd8a8cfb0ae114d24ae48,61036efc0c3e88f62ed67503,2021-07-29_23h15.53.053,Simcolourproject_2stim_asymm_v5,2020.2.10,MacIntel,60,61025ae37ef11b136ea224fe,,,,,,,,,1821,-59.72265625,-17.2890625,1,0,0,response5disk,,2,-9.28515625,-10.91015625,1,0,0,rectangle,-9.28515625,-10.91015625,1,0,0,-9.28515625,-10.91015625,1,0,0,1,74,234,142,1,,,,,,,,
,,,,,,,,,,,,,FF,,,,,,,,0.9322,,,,,,,,,,,,,,,,,,,,,,60fbd8a8cfb0ae114d24ae48,61036efc0c3e88f62ed67503,2021-07-29_23h15.53.053,Simcolourproject_2stim_asymm_v5,2020.2.10,MacIntel,60,61025ae37ef11b136ea224fe,,,,,,,,,1479,70.515625,33.41796875,1,0,0,response1disk,,6,14.1875,3.5234375,1,0,0,rectangle,14.1875,3.5234375,1,0,0,14.1875,3.5234375,1,0,0,1,75,235,121,1,,,,,,,,
,,,,,,,,,,,,,FF,,,,,,,,1.1181,,,,,,,,,,,,,,,,,,,,,,60fbd8a8cfb0ae114d24ae48,61036efc0c3e88f62ed67503,2021-07-29_23h15.53.053,Simcolourproject_2stim_asymm_v5,2020.2.10,MacIntel,60,61025ae37ef11b136ea224fe,,,,,,,,,3546,64.67578125,33.40625,1,0,0,response1disk,,6,11.703125,-4.08203125,1,0,0,rectangle,11.703125,-4.08203125,1,0,0,11.703125,-4.08203125,1,0,0,1,76,236,97,1,,,,,,,,
,,,,,,,,,,,,,FF,,,,,,,,0.7152,,,,,,,,,,,,,,,,,,,,,,60fbd8a8cfb0ae114d24ae48,61036efc0c3e88f62ed67503,2021-07-29_23h15.53.053,Simcolourproject_2stim_asymm_v5,2020.2.10,MacIntel,60,61025ae37ef11b136ea224fe,,,,,,,,,1758,-57.28515625,-31.86328125,1,0,0,response5disk,,2,-4.0234375,-13.6953125,1,0,0,rectangle,-4.0234375,-13.6953125,1,0,0,-4.0234375,-13.6953125,1,0,0,1,77,237,36,1,,,,,,,,
,,,,,,,,,,,,,FF,,,,,,,,0.6665,,,,,,,,,,,,,,,,,,,,,,60fbd8a8cfb0ae114d24ae48,61036efc0c3e88f62ed67503,2021-07-29_23h15.53.053,Simcolourproject_2stim_asymm_v5,2020.2.10,MacIntel,60,61025ae37ef11b136ea224fe,,,,,,,,,2996,-47.6796875,-32.87109375,1,0,0,response5disk,,2,-7.1875,-13.05078125,1,0,0,rectangle,-7.1875,-13.05078125,1,0,0,-7.1875,-13.05078125,1,0,0,1,78,238,46,1,,,,,,,,
,,,,,,,,,,,,,FF,,,,,,,,0.5681,,,,,,,,,,,,,,,,,,,,,,60fbd8a8cfb0ae114d24ae48,61036efc0c3e88f62ed67503,2021-07-29_23h15.53.053,Simcolourproject_2stim_asymm_v5,2020.2.10,MacIntel,60,61025ae37ef11b136ea224fe,,,,,,,,,3715,-56.37890625,-28.62890625,1,0,0,response5disk,,2,-21.01953125,-11.53125,1,0,0,rectangle,-21.01953125,-11.53125,1,0,0,-21.01953125,-11.53125,1,0,0,1,79,239,92,1,,,,,,,,
,,,,,,,,,,,,,FF,,,,,,,,1.3836,,,,,,,,,,,,,,,,,,,,,,60fbd8a8cfb0ae114d24ae48,61036efc0c3e88f62ed67503,2021-07-29_23h15.53.053,Simcolourproject_2stim_asymm_v5,2020.2.10,MacIntel,60,61025ae37ef11b136ea224fe,,,,,,,,,2681,80.1796875,30.64453125,1,0,0,response1disk,,6,15.74609375,15.58203125,1,0,0,rectangle,15.74609375,15.58203125,1,0,0,15.74609375,15.58203125,1,0,0,1,80,240,10,1,,,,,,,,
,,,,,,,,,,,,,FF,,,,,,,,0.6326,,,,,,,,,,,,,,,,,,,,,,60fbd8a8cfb0ae114d24ae48,61036efc0c3e88f62ed67503,2021-07-29_23h15.53.053,Simcolourproject_2stim_asymm_v5,2020.2.10,MacIntel,60,61025ae37ef11b136ea224fe,,,,,,,,,4023,57.421875,31.6015625,1,0,0,response1disk,,6,6.7421875,4.21875,1,0,0,rectangle,6.7421875,4.21875,1,0,0,6.7421875,4.21875,1,0,0,1,81,241,7,1,,,,,,,,
,,,,,,,,,,,,,FF,,,,,,,,0.6837,,,,,,,,,,,,,,,,,,,,,,60fbd8a8cfb0ae114d24ae48,61036efc0c3e88f62ed67503,2021-07-29_23h15.53.053,Simcolourproject_2stim_asymm_v5,2020.2.10,MacIntel,60,61025ae37ef11b136ea224fe,,,,,,,,,1030,69.390625,36.31640625,1,0,0,response1disk,,6,18.28125,10.39453125,1,0,0,rectangle,18.28125,10.39453125,1,0,0,18.28125,10.39453125,1,0,0,1,82,242,141,1,,,,,,,,
,,,,,,,,,,,,,FF,,,,,,,,0.6841,,,,,,,,,,,,,,,,,,,,,,60fbd8a8cfb0ae114d24ae48,61036efc0c3e88f62ed67503,2021-07-29_23h15.53.053,Simcolourproject_2stim_asymm_v5,2020.2.10,MacIntel,60,61025ae37ef11b136ea224fe,,,,,,,,,2221,19.65625,45.95703125,1,0,0,response1disk,,7,19.0234375,16.703125,1,0,0,rectangle,19.0234375,16.703125,1,0,0,19.0234375,16.703125,1,0,0,1,83,243,93,1,,,,,,,,
,,,,,,,,,,,,,FF,,,,,,,,0.682,,,,,,,,,,,,,,,,,,,,,,60fbd8a8cfb0ae114d24ae48,61036efc0c3e88f62ed67503,2021-07-29_23h15.53.053,Simcolourproject_2stim_asymm_v5,2020.2.10,MacIntel,60,61025ae37ef11b136ea224fe,,,,,,,,,1775,28.91015625,55.42578125,1,0,0,response1disk,,7,24.1328125,-5.2578125,1,0,0,rectangle,24.1328125,-5.2578125,1,0,0,24.1328125,-5.2578125,1,0,0,1,84,244,27,1,,,,,,,,
,,,,,,,,,,,,,FF,,,,,,,,0.6997,,,,,,,,,,,,,,,,,,,,,,60fbd8a8cfb0ae114d24ae48,61036efc0c3e88f62ed67503,2021-07-29_23h15.53.053,Simcolourproject_2stim_asymm_v5,2020.2.10,MacIntel,60,61025ae37ef11b136ea224fe,,,,,,,,,1370,-45.70703125,-26.515625,1,0,0,response5disk,,2,2.33984375,-15.8671875,1,0,0,rectangle,2.33984375,-15.8671875,1,0,0,2.33984375,-15.8671875,1,0,0,1,85,245,124,1,,,,,,,,
,,,,,,,,,,,,,FF,,,,,,,,0.7841,,,,,,,,,,,,,,,,,,,,,,60fbd8a8cfb0ae114d24ae48,61036efc0c3e88f62ed67503,2021-07-29_23h15.53.053,Simcolourproject_2stim_asymm_v5,2020.2.10,MacIntel,60,61025ae37ef11b136ea224fe,,,,,,,,,1982,39.78125,66.421875,1,0,0,response1disk,,7,-2.30859375,4.65234375,1,0,0,rectangle,-2.30859375,4.65234375,1,0,0,-2.30859375,4.65234375,1,0,0,1,86,246,159,1,,,,,,,,
,,,,,,,,,,,,,FF,,,,,,,,0.9322,,,,,,,,,,,,,,,,,,,,,,60fbd8a8cfb0ae114d24ae48,61036efc0c3e88f62ed67503,2021-07-29_23h15.53.053,Simcolourproject_2stim_asymm_v5,2020.2.10,MacIntel,60,61025ae37ef11b136ea224fe,,,,,,,,,2332,44.15234375,31.4921875,1,0,0,response1disk,,6,5.6484375,14.5859375,1,0,0,rectangle,5.6484375,14.5859375,1,0,0,5.6484375,14.5859375,1,0,0,1,87,247,147,1,,,,,,,,
