key_resp.keys,key_resp.rt,key_resp_14.keys,key_resp_14.rt,key_resp_15.keys,key_resp_15.rt,key_resp_17.keys,key_resp_17.rt,key_resp_9.keys,key_resp_9.rt,key_resp_10.keys,key_resp_10.rt,practice_comparison,Ecc,mouse_5.x,mouse_5.y,mouse_5.leftButton,mouse_5.midButton,mouse_5.rightButton,mouse_5.clicked_name,pracsimilarity,response_time,mouse_10.x,mouse_10.y,mouse_10.leftButton,mouse_10.midButton,mouse_10.rightButton,mouse_10.clicked_name,mouse_7.x,mouse_7.y,mouse_7.leftButton,mouse_7.midButton,mouse_7.rightButton,mouse_6.x,mouse_6.y,mouse_6.leftButton,mouse_6.midButton,mouse_6.rightButton,duringprac.thisRepN,duringprac.thisTrialN,duringprac.thisN,duringprac.thisIndex,duringprac.ran,participant,session,date,expName,psychopyVersion,OS,frameRate,study_id,mouse_7.clicked_name,catchpracsimilarity,catch_response_time,catchnumberprac,catchtrialorderprac,mouse_6.clicked_name,key_resp_22.keys,key_resp_22.rt,realcomparison,mouse.x,mouse.y,mouse.leftButton,mouse.midButton,mouse.rightButton,mouse.clicked_name,Colour2,similarity,mouse_2.x,mouse_2.y,mouse_2.leftButton,mouse_2.midButton,mouse_2.rightButton,mouse_2.clicked_name,mouse_3.x,mouse_3.y,mouse_3.leftButton,mouse_3.midButton,mouse_3.rightButton,mouse_11.x,mouse_11.y,mouse_11.leftButton,mouse_11.midButton,mouse_11.rightButton,trials_2.thisRepN,trials_2.thisTrialN,trials_2.thisN,trials_2.thisIndex,trials_2.ran,Colour1,mouse_3.clicked_name,catchornah,catchsimilarity,catchnumber,catchtrialorder,catchRT,mouse_11.clicked_name
space,1.8438,space,10.8552,space,24.1603,space,11.2239,space,1.9548,space,3.5729,125,FF,-42,-87,1,0,0,response5disk_5,3,6.6497,1,-2,1,0,0,rectangle_8,1,-2,1,0,0,1,-2,1,0,0,0,0,0,3,1,60fce9c29b57db229b7387bf,61036ebb75313f245eb89e4d,2021-07-29_22h15.35.178,Simcolourproject_2stim_asymm_v5,2020.2.10,Win32,60,61025ae37ef11b136ea224fe,,,,,,,,,,,,,,,,,,,,,,,,,,,,,,,,,,,,,,,,,,,,,,
,,,,,,,,,,,,142,PF,113,74,1,0,0,response1disk_5,6,1.5704,-13,-3,1,0,0,rectangle_8,-82,-99,1,0,0,-3,2,1,0,0,0,1,1,2,1,60fce9c29b57db229b7387bf,61036ebb75313f245eb89e4d,2021-07-29_22h15.35.178,Simcolourproject_2stim_asymm_v5,2020.2.10,Win32,60,61025ae37ef11b136ea224fe,response5disk_7,3,2.5676,3,"[2,5]",rectangle_4,,,,,,,,,,,,,,,,,,,,,,,,,,,,,,,,,,,,,,,,
,,,,,,,,,,,,2,PF,-73,-98,1,0,0,response5disk_5,3,1.8245,-10,4,1,0,0,rectangle_8,-10,4,1,0,0,-10,4,1,0,0,0,2,2,1,1,60fce9c29b57db229b7387bf,61036ebb75313f245eb89e4d,2021-07-29_22h15.35.178,Simcolourproject_2stim_asymm_v5,2020.2.10,Win32,60,61025ae37ef11b136ea224fe,,,,,,,,,,,,,,,,,,,,,,,,,,,,,,,,,,,,,,,,,,,,,,
,,,,,,,,,,,,32,FF,73,107,1,0,0,response1disk_5,7,2.3639,5,-5,1,0,0,rectangle_8,5,-5,1,0,0,5,-5,1,0,0,0,3,3,0,1,60fce9c29b57db229b7387bf,61036ebb75313f245eb89e4d,2021-07-29_22h15.35.178,Simcolourproject_2stim_asymm_v5,2020.2.10,Win32,60,61025ae37ef11b136ea224fe,,,,,,,,,,,,,,,,,,,,,,,,,,,,,,,,,,,,,,,,,,,,,,
,,,,,,,,,,,,2,PF,-70,-86,1,0,0,response5disk_5,3,1.8742,-3,17,1,0,0,rectangle_8,-52,-107,1,0,0,-5,3,1,0,0,0,4,4,6,1,60fce9c29b57db229b7387bf,61036ebb75313f245eb89e4d,2021-07-29_22h15.35.178,Simcolourproject_2stim_asymm_v5,2020.2.10,Win32,60,61025ae37ef11b136ea224fe,response5disk_7,3,1.8422,3,"[2,5]",rectangle_4,,,,,,,,,,,,,,,,,,,,,,,,,,,,,,,,,,,,,,,,
,,,,,,,,,,,,153,FF,65,-104,1,0,0,response3disk_5,4,2.4498,-2,0,1,0,0,rectangle_8,-2,0,1,0,0,-2,0,1,0,0,0,5,5,5,1,60fce9c29b57db229b7387bf,61036ebb75313f245eb89e4d,2021-07-29_22h15.35.178,Simcolourproject_2stim_asymm_v5,2020.2.10,Win32,60,61025ae37ef11b136ea224fe,,,,,,,,,,,,,,,,,,,,,,,,,,,,,,,,,,,,,,,,,,,,,,
,,,,,,,,,,,,98,PF,-85,-101,1,0,0,response5disk_5,3,2.3991,-10,9,1,0,0,rectangle_8,-10,9,1,0,0,-10,9,1,0,0,0,6,6,4,1,60fce9c29b57db229b7387bf,61036ebb75313f245eb89e4d,2021-07-29_22h15.35.178,Simcolourproject_2stim_asymm_v5,2020.2.10,Win32,60,61025ae37ef11b136ea224fe,,,,,,,,,,,,,,,,,,,,,,,,,,,,,,,,,,,,,,,,,,,,,,
,,,,,,,,,,,,,FF,,,,,,,,1.3171,,,,,,,,,,,,,,,,,,,,,,60fce9c29b57db229b7387bf,61036ebb75313f245eb89e4d,2021-07-29_22h15.35.178,Simcolourproject_2stim_asymm_v5,2020.2.10,Win32,60,61025ae37ef11b136ea224fe,,,,,,,space,3.1305,901,-32,-79,1,0,0,response5disk,,3,7,-3,1,0,0,rectangle,7,-3,1,0,0,7,-3,1,0,0,0,0,0,97,1,,,,,,,,
,,,,,,,,,,,,,FF,,,,,,,,5.3216,,,,,,,,,,,,,,,,,,,,,,60fce9c29b57db229b7387bf,61036ebb75313f245eb89e4d,2021-07-29_22h15.35.178,Simcolourproject_2stim_asymm_v5,2020.2.10,Win32,60,61025ae37ef11b136ea224fe,,,,,,,,,3420,99,63,1,0,0,response1disk,,6,-9,-1,1,0,0,rectangle,-9,-1,1,0,0,-9,-1,1,0,0,0,1,1,125,1,,,,,,,,
,,,,,,,,,,,,,FF,,,,,,,,0.9794,,,,,,,,,,,,,,,,,,,,,,60fce9c29b57db229b7387bf,61036ebb75313f245eb89e4d,2021-07-29_22h15.35.178,Simcolourproject_2stim_asymm_v5,2020.2.10,Win32,60,61025ae37ef11b136ea224fe,,,,,,,,,1892,-93,-59,1,0,0,response5disk,,2,18,15,1,0,0,rectangle,18,15,1,0,0,18,15,1,0,0,0,2,2,101,1,,,,,,,,
,,,,,,,,,,,,,FF,,,,,,,,1.2168,,,,,,,,,,,,,,,,,,,,,,60fce9c29b57db229b7387bf,61036ebb75313f245eb89e4d,2021-07-29_22h15.35.178,Simcolourproject_2stim_asymm_v5,2020.2.10,Win32,60,61025ae37ef11b136ea224fe,,,,,,,,,1156,92,58,1,0,0,response1disk,,6,4,6,1,0,0,rectangle,4,6,1,0,0,4,6,1,0,0,0,3,3,38,1,,,,,,,,
,,,,,,,,,,,,,FF,,,,,,,,1.1994,,,,,,,,,,,,,,,,,,,,,,60fce9c29b57db229b7387bf,61036ebb75313f245eb89e4d,2021-07-29_22h15.35.178,Simcolourproject_2stim_asymm_v5,2020.2.10,Win32,60,61025ae37ef11b136ea224fe,,,,,,,,,3037,-73,-86,1,0,0,response5disk,,3,-2,16,1,0,0,rectangle,-2,16,1,0,0,-2,16,1,0,0,0,4,4,106,1,,,,,,,,
,,,,,,,,,,,,,FF,,,,,,,,1.1308,,,,,,,,,,,,,,,,,,,,,,60fce9c29b57db229b7387bf,61036ebb75313f245eb89e4d,2021-07-29_22h15.35.178,Simcolourproject_2stim_asymm_v5,2020.2.10,Win32,60,61025ae37ef11b136ea224fe,,,,,,,,,649,118,69,1,0,0,response1disk,,6,-11,11,1,0,0,rectangle,-11,11,1,0,0,-11,11,1,0,0,0,5,5,76,1,,,,,,,,
,,,,,,,,,,,,,FF,,,,,,,,1.1831,,,,,,,,,,,,,,,,,,,,,,60fce9c29b57db229b7387bf,61036ebb75313f245eb89e4d,2021-07-29_22h15.35.178,Simcolourproject_2stim_asymm_v5,2020.2.10,Win32,60,61025ae37ef11b136ea224fe,,,,,,,,,733,79,38,1,0,0,response1disk,,6,1,3,1,0,0,rectangle,1,3,1,0,0,1,3,1,0,0,0,6,6,156,1,,,,,,,,
,,,,,,,,,,,,,FF,,,,,,,,1.2488,,,,,,,,,,,,,,,,,,,,,,60fce9c29b57db229b7387bf,61036ebb75313f245eb89e4d,2021-07-29_22h15.35.178,Simcolourproject_2stim_asymm_v5,2020.2.10,Win32,60,61025ae37ef11b136ea224fe,,,,,,,,,3237,36,-99,1,0,0,response3disk,,4,15,0,1,0,0,rectangle,-86,54,1,0,0,-15,-1,1,0,0,0,7,7,75,1,,response7disk_3,TRUE,1,1,"[46,285,112,113,39,320,136,8,170,306,65,185,92,313,204,153,110,106,180,236]",1.859,rectangle
,,,,,,,,,,,,,FF,,,,,,,,1.0978,,,,,,,,,,,,,,,,,,,,,,60fce9c29b57db229b7387bf,61036ebb75313f245eb89e4d,2021-07-29_22h15.35.178,Simcolourproject_2stim_asymm_v5,2020.2.10,Win32,60,61025ae37ef11b136ea224fe,,,,,,,,,982,52,-93,1,0,0,response3disk,,4,12,2,1,0,0,rectangle,12,2,1,0,0,12,2,1,0,0,0,8,8,62,1,,,,,,,,
,,,,,,,,,,,,,FF,,,,,,,,1.0246,,,,,,,,,,,,,,,,,,,,,,60fce9c29b57db229b7387bf,61036ebb75313f245eb89e4d,2021-07-29_22h15.35.178,Simcolourproject_2stim_asymm_v5,2020.2.10,Win32,60,61025ae37ef11b136ea224fe,,,,,,,,,1739,79,53,1,0,0,response1disk,,6,6,12,1,0,0,rectangle,6,12,1,0,0,6,12,1,0,0,0,9,9,105,1,,,,,,,,
,,,,,,,,,,,,,FF,,,,,,,,0.8467,,,,,,,,,,,,,,,,,,,,,,60fce9c29b57db229b7387bf,61036ebb75313f245eb89e4d,2021-07-29_22h15.35.178,Simcolourproject_2stim_asymm_v5,2020.2.10,Win32,60,61025ae37ef11b136ea224fe,,,,,,,,,411,85,49,1,0,0,response1disk,,6,-9,12,1,0,0,rectangle,-9,12,1,0,0,-9,12,1,0,0,0,10,10,112,1,,,,,,,,
,,,,,,,,,,,,,FF,,,,,,,,0.7604,,,,,,,,,,,,,,,,,,,,,,60fce9c29b57db229b7387bf,61036ebb75313f245eb89e4d,2021-07-29_22h15.35.178,Simcolourproject_2stim_asymm_v5,2020.2.10,Win32,60,61025ae37ef11b136ea224fe,,,,,,,,,2635,67,111,1,0,0,response1disk,,7,16,7,1,0,0,rectangle,16,7,1,0,0,16,7,1,0,0,0,11,11,110,1,,,,,,,,
,,,,,,,,,,,,,FF,,,,,,,,0.9969,,,,,,,,,,,,,,,,,,,,,,60fce9c29b57db229b7387bf,61036ebb75313f245eb89e4d,2021-07-29_22h15.35.178,Simcolourproject_2stim_asymm_v5,2020.2.10,Win32,60,61025ae37ef11b136ea224fe,,,,,,,,,3198,-78,-34,1,0,0,response5disk,,2,25,6,1,0,0,rectangle,25,6,1,0,0,25,6,1,0,0,0,12,12,10,1,,,,,,,,
,,,,,,,,,,,,,FF,,,,,,,,1.1669,,,,,,,,,,,,,,,,,,,,,,60fce9c29b57db229b7387bf,61036ebb75313f245eb89e4d,2021-07-29_22h15.35.178,Simcolourproject_2stim_asymm_v5,2020.2.10,Win32,60,61025ae37ef11b136ea224fe,,,,,,,,,4093,121,-48,1,0,0,response3disk,,5,17,0,1,0,0,rectangle,17,0,1,0,0,17,0,1,0,0,0,13,13,141,1,,,,,,,,
,,,,,,,,,,,,,FF,,,,,,,,1.2334,,,,,,,,,,,,,,,,,,,,,,60fce9c29b57db229b7387bf,61036ebb75313f245eb89e4d,2021-07-29_22h15.35.178,Simcolourproject_2stim_asymm_v5,2020.2.10,Win32,60,61025ae37ef11b136ea224fe,,,,,,,,,1926,96,-39,1,0,0,response3disk,,5,19,4,1,0,0,rectangle,19,4,1,0,0,19,4,1,0,0,0,14,14,86,1,,,,,,,,
,,,,,,,,,,,,,FF,,,,,,,,1.4024,,,,,,,,,,,,,,,,,,,,,,60fce9c29b57db229b7387bf,61036ebb75313f245eb89e4d,2021-07-29_22h15.35.178,Simcolourproject_2stim_asymm_v5,2020.2.10,Win32,60,61025ae37ef11b136ea224fe,,,,,,,,,211,88,50,1,0,0,response1disk,,6,-2,2,1,0,0,rectangle,-2,2,1,0,0,-2,2,1,0,0,0,15,15,1,1,,,,,,,,
,,,,,,,,,,,,,FF,,,,,,,,1.5886,,,,,,,,,,,,,,,,,,,,,,60fce9c29b57db229b7387bf,61036ebb75313f245eb89e4d,2021-07-29_22h15.35.178,Simcolourproject_2stim_asymm_v5,2020.2.10,Win32,60,61025ae37ef11b136ea224fe,,,,,,,,,4085,-50,-113,1,0,0,response5disk,,3,-5,0,1,0,0,rectangle,-5,0,1,0,0,-5,0,1,0,0,0,16,16,35,1,,,,,,,,
,,,,,,,,,,,,,FF,,,,,,,,1.3513,,,,,,,,,,,,,,,,,,,,,,60fce9c29b57db229b7387bf,61036ebb75313f245eb89e4d,2021-07-29_22h15.35.178,Simcolourproject_2stim_asymm_v5,2020.2.10,Win32,60,61025ae37ef11b136ea224fe,,,,,,,,,1482,74,-97,1,0,0,response3disk,,4,6,7,1,0,0,rectangle,6,7,1,0,0,6,7,1,0,0,0,17,17,52,1,,,,,,,,
,,,,,,,,,,,,,FF,,,,,,,,0.9458,,,,,,,,,,,,,,,,,,,,,,60fce9c29b57db229b7387bf,61036ebb75313f245eb89e4d,2021-07-29_22h15.35.178,Simcolourproject_2stim_asymm_v5,2020.2.10,Win32,60,61025ae37ef11b136ea224fe,,,,,,,,,1803,92,44,1,0,0,response1disk,,6,13,3,1,0,0,rectangle,13,3,1,0,0,13,3,1,0,0,0,18,18,29,1,,,,,,,,
,,,,,,,,,,,,,FF,,,,,,,,1.0642,,,,,,,,,,,,,,,,,,,,,,60fce9c29b57db229b7387bf,61036ebb75313f245eb89e4d,2021-07-29_22h15.35.178,Simcolourproject_2stim_asymm_v5,2020.2.10,Win32,60,61025ae37ef11b136ea224fe,,,,,,,,,182,77,51,1,0,0,response1disk,,6,-5,11,1,0,0,rectangle,-5,11,1,0,0,-5,11,1,0,0,0,19,19,57,1,,,,,,,,
,,,,,,,,,,,,,FF,,,,,,,,1.0814,,,,,,,,,,,,,,,,,,,,,,60fce9c29b57db229b7387bf,61036ebb75313f245eb89e4d,2021-07-29_22h15.35.178,Simcolourproject_2stim_asymm_v5,2020.2.10,Win32,60,61025ae37ef11b136ea224fe,,,,,,,,,3816,41,-90,1,0,0,response3disk,,4,-9,2,1,0,0,rectangle,-9,2,1,0,0,-9,2,1,0,0,0,20,20,64,1,,,,,,,,
,,,,,,,,,,,,,FF,,,,,,,,1.5205,,,,,,,,,,,,,,,,,,,,,,60fce9c29b57db229b7387bf,61036ebb75313f245eb89e4d,2021-07-29_22h15.35.178,Simcolourproject_2stim_asymm_v5,2020.2.10,Win32,60,61025ae37ef11b136ea224fe,,,,,,,,,2003,106,78,1,0,0,response1disk,,6,25,0,1,0,0,rectangle,25,0,1,0,0,25,0,1,0,0,0,21,21,23,1,,,,,,,,
,,,,,,,,,,,,,FF,,,,,,,,0.9129,,,,,,,,,,,,,,,,,,,,,,60fce9c29b57db229b7387bf,61036ebb75313f245eb89e4d,2021-07-29_22h15.35.178,Simcolourproject_2stim_asymm_v5,2020.2.10,Win32,60,61025ae37ef11b136ea224fe,,,,,,,,,744,98,82,1,0,0,response1disk,,6,29,2,1,0,0,rectangle,29,2,1,0,0,29,2,1,0,0,0,22,22,18,1,,,,,,,,
,,,,,,,,,,,,,FF,,,,,,,,1.1486,,,,,,,,,,,,,,,,,,,,,,60fce9c29b57db229b7387bf,61036ebb75313f245eb89e4d,2021-07-29_22h15.35.178,Simcolourproject_2stim_asymm_v5,2020.2.10,Win32,60,61025ae37ef11b136ea224fe,,,,,,,,,3529,96,57,1,0,0,response1disk,,6,2,7,1,0,0,rectangle,2,7,1,0,0,2,7,1,0,0,0,23,23,84,1,,,,,,,,
,,,,,,,,,,,,,FF,,,,,,,,1.0129,,,,,,,,,,,,,,,,,,,,,,60fce9c29b57db229b7387bf,61036ebb75313f245eb89e4d,2021-07-29_22h15.35.178,Simcolourproject_2stim_asymm_v5,2020.2.10,Win32,60,61025ae37ef11b136ea224fe,,,,,,,,,3047,-74,-85,1,0,0,response5disk,,3,-10,-3,1,0,0,rectangle,-10,-3,1,0,0,-10,-3,1,0,0,0,24,24,93,1,,,,,,,,
,,,,,,,,,,,,,FF,,,,,,,,0.8627,,,,,,,,,,,,,,,,,,,,,,60fce9c29b57db229b7387bf,61036ebb75313f245eb89e4d,2021-07-29_22h15.35.178,Simcolourproject_2stim_asymm_v5,2020.2.10,Win32,60,61025ae37ef11b136ea224fe,,,,,,,,,166,50,-96,1,0,0,response3disk,,4,23,0,1,0,0,rectangle,23,0,1,0,0,23,0,1,0,0,0,25,25,72,1,,,,,,,,
,,,,,,,,,,,,,FF,,,,,,,,0.9972,,,,,,,,,,,,,,,,,,,,,,60fce9c29b57db229b7387bf,61036ebb75313f245eb89e4d,2021-07-29_22h15.35.178,Simcolourproject_2stim_asymm_v5,2020.2.10,Win32,60,61025ae37ef11b136ea224fe,,,,,,,,,1141,112,-33,1,0,0,response3disk,,5,-21,11,1,0,0,rectangle,-21,11,1,0,0,-21,11,1,0,0,0,26,26,26,1,,,,,,,,
,,,,,,,,,,,,,FF,,,,,,,,0.9293,,,,,,,,,,,,,,,,,,,,,,60fce9c29b57db229b7387bf,61036ebb75313f245eb89e4d,2021-07-29_22h15.35.178,Simcolourproject_2stim_asymm_v5,2020.2.10,Win32,60,61025ae37ef11b136ea224fe,,,,,,,,,2907,84,44,1,0,0,response1disk,,6,4,6,1,0,0,rectangle,4,6,1,0,0,4,6,1,0,0,0,27,27,46,1,,,,,,,,
,,,,,,,,,,,,,FF,,,,,,,,0.7771,,,,,,,,,,,,,,,,,,,,,,60fce9c29b57db229b7387bf,61036ebb75313f245eb89e4d,2021-07-29_22h15.35.178,Simcolourproject_2stim_asymm_v5,2020.2.10,Win32,60,61025ae37ef11b136ea224fe,,,,,,,,,3682,-39,-75,1,0,0,response5disk,,3,10,3,1,0,0,rectangle,10,3,1,0,0,10,3,1,0,0,0,28,28,118,1,,,,,,,,
,,,,,,,,,,,,,FF,,,,,,,,0.8453,,,,,,,,,,,,,,,,,,,,,,60fce9c29b57db229b7387bf,61036ebb75313f245eb89e4d,2021-07-29_22h15.35.178,Simcolourproject_2stim_asymm_v5,2020.2.10,Win32,60,61025ae37ef11b136ea224fe,,,,,,,,,2613,-53,-86,1,0,0,response5disk,,3,-7,-4,1,0,0,rectangle,-7,-4,1,0,0,-7,-4,1,0,0,0,29,29,21,1,,,,,,,,
,,,,,,,,,,,,,FF,,,,,,,,0.6074,,,,,,,,,,,,,,,,,,,,,,60fce9c29b57db229b7387bf,61036ebb75313f245eb89e4d,2021-07-29_22h15.35.178,Simcolourproject_2stim_asymm_v5,2020.2.10,Win32,60,61025ae37ef11b136ea224fe,,,,,,,,,2517,102,42,1,0,0,response1disk,,6,17,9,1,0,0,rectangle,17,9,1,0,0,17,9,1,0,0,0,30,30,143,1,,,,,,,,
,,,,,,,,,,,,,FF,,,,,,,,0.7087,,,,,,,,,,,,,,,,,,,,,,60fce9c29b57db229b7387bf,61036ebb75313f245eb89e4d,2021-07-29_22h15.35.178,Simcolourproject_2stim_asymm_v5,2020.2.10,Win32,60,61025ae37ef11b136ea224fe,,,,,,,,,1386,74,59,1,0,0,response1disk,,6,13,0,1,0,0,rectangle,13,0,1,0,0,13,0,1,0,0,0,31,31,7,1,,,,,,,,
,,,,,,,,,,,,,FF,,,,,,,,0.8955,,,,,,,,,,,,,,,,,,,,,,60fce9c29b57db229b7387bf,61036ebb75313f245eb89e4d,2021-07-29_22h15.35.178,Simcolourproject_2stim_asymm_v5,2020.2.10,Win32,60,61025ae37ef11b136ea224fe,,,,,,,,,3335,68,112,1,0,0,response1disk,,7,-4,11,1,0,0,rectangle,-4,11,1,0,0,-4,11,1,0,0,0,32,32,147,1,,,,,,,,
,,,,,,,,,,,,,FF,,,,,,,,1.8242,,,,,,,,,,,,,,,,,,,,,,60fce9c29b57db229b7387bf,61036ebb75313f245eb89e4d,2021-07-29_22h15.35.178,Simcolourproject_2stim_asymm_v5,2020.2.10,Win32,60,61025ae37ef11b136ea224fe,,,,,,,,,2289,60,-99,1,0,0,response3disk,,4,8,0,1,0,0,rectangle,8,0,1,0,0,8,0,1,0,0,0,33,33,91,1,,,,,,,,
,,,,,,,,,,,,,FF,,,,,,,,1.0989,,,,,,,,,,,,,,,,,,,,,,60fce9c29b57db229b7387bf,61036ebb75313f245eb89e4d,2021-07-29_22h15.35.178,Simcolourproject_2stim_asymm_v5,2020.2.10,Win32,60,61025ae37ef11b136ea224fe,,,,,,,,,2716,45,-99,1,0,0,response3disk,,4,2,5,1,0,0,rectangle,2,5,1,0,0,2,5,1,0,0,0,34,34,122,1,,,,,,,,
,,,,,,,,,,,,,FF,,,,,,,,1.4866,,,,,,,,,,,,,,,,,,,,,,60fce9c29b57db229b7387bf,61036ebb75313f245eb89e4d,2021-07-29_22h15.35.178,Simcolourproject_2stim_asymm_v5,2020.2.10,Win32,60,61025ae37ef11b136ea224fe,,,,,,,,,3947,95,-41,1,0,0,response3disk,,5,18,3,1,0,0,rectangle,18,3,1,0,0,18,3,1,0,0,0,35,35,115,1,,,,,,,,
,,,,,,,,,,,,,FF,,,,,,,,2.0784,,,,,,,,,,,,,,,,,,,,,,60fce9c29b57db229b7387bf,61036ebb75313f245eb89e4d,2021-07-29_22h15.35.178,Simcolourproject_2stim_asymm_v5,2020.2.10,Win32,60,61025ae37ef11b136ea224fe,,,,,,,,,4056,95,54,1,0,0,response1disk,,6,25,11,1,0,0,rectangle,25,11,1,0,0,25,11,1,0,0,0,36,36,77,1,,,,,,,,
,,,,,,,,,,,,,FF,,,,,,,,0.7101,,,,,,,,,,,,,,,,,,,,,,60fce9c29b57db229b7387bf,61036ebb75313f245eb89e4d,2021-07-29_22h15.35.178,Simcolourproject_2stim_asymm_v5,2020.2.10,Win32,60,61025ae37ef11b136ea224fe,,,,,,,,,2654,104,-47,1,0,0,response3disk,,5,26,9,1,0,0,rectangle,26,9,1,0,0,26,9,1,0,0,0,37,37,135,1,,,,,,,,
,,,,,,,,,,,,,FF,,,,,,,,1.521,,,,,,,,,,,,,,,,,,,,,,60fce9c29b57db229b7387bf,61036ebb75313f245eb89e4d,2021-07-29_22h15.35.178,Simcolourproject_2stim_asymm_v5,2020.2.10,Win32,60,61025ae37ef11b136ea224fe,,,,,,,,,1371,42,-82,1,0,0,response3disk,,4,14,-6,1,0,0,rectangle,-108,51,1,0,0,11,11,1,0,0,0,38,38,48,1,,response7disk_3,TRUE,1,1,"[46,285,112,113,39,320,136,8,170,306,65,185,92,313,204,153,110,106,180,236]",1.6219,rectangle
,,,,,,,,,,,,,FF,,,,,,,,0.6919,,,,,,,,,,,,,,,,,,,,,,60fce9c29b57db229b7387bf,61036ebb75313f245eb89e4d,2021-07-29_22h15.35.178,Simcolourproject_2stim_asymm_v5,2020.2.10,Win32,60,61025ae37ef11b136ea224fe,,,,,,,,,958,97,35,1,0,0,response1disk,,6,18,-6,1,0,0,rectangle,18,-6,1,0,0,18,-6,1,0,0,0,39,39,128,1,,,,,,,,
,,,,,,,,,,,,,FF,,,,,,,,0.8386,,,,,,,,,,,,,,,,,,,,,,60fce9c29b57db229b7387bf,61036ebb75313f245eb89e4d,2021-07-29_22h15.35.178,Simcolourproject_2stim_asymm_v5,2020.2.10,Win32,60,61025ae37ef11b136ea224fe,,,,,,,,,1100,99,43,1,0,0,response1disk,,6,27,7,1,0,0,rectangle,27,7,1,0,0,27,7,1,0,0,0,40,40,114,1,,,,,,,,
,,,,,,,,,,,,,FF,,,,,,,,1.1992,,,,,,,,,,,,,,,,,,,,,,60fce9c29b57db229b7387bf,61036ebb75313f245eb89e4d,2021-07-29_22h15.35.178,Simcolourproject_2stim_asymm_v5,2020.2.10,Win32,60,61025ae37ef11b136ea224fe,,,,,,,,,3218,57,101,1,0,0,response1disk,,7,22,4,1,0,0,rectangle,22,4,1,0,0,22,4,1,0,0,0,41,41,9,1,,,,,,,,
,,,,,,,,,,,,,FF,,,,,,,,1.757,,,,,,,,,,,,,,,,,,,,,,60fce9c29b57db229b7387bf,61036ebb75313f245eb89e4d,2021-07-29_22h15.35.178,Simcolourproject_2stim_asymm_v5,2020.2.10,Win32,60,61025ae37ef11b136ea224fe,,,,,,,,,3865,97,-44,1,0,0,response3disk,,5,8,6,1,0,0,rectangle,8,6,1,0,0,8,6,1,0,0,0,42,42,139,1,,,,,,,,
,,,,,,,,,,,,,FF,,,,,,,,0.8271,,,,,,,,,,,,,,,,,,,,,,60fce9c29b57db229b7387bf,61036ebb75313f245eb89e4d,2021-07-29_22h15.35.178,Simcolourproject_2stim_asymm_v5,2020.2.10,Win32,60,61025ae37ef11b136ea224fe,,,,,,,,,1639,90,43,1,0,0,response1disk,,6,-4,10,1,0,0,rectangle,-4,10,1,0,0,-4,10,1,0,0,0,43,43,42,1,,,,,,,,
,,,,,,,,,,,,,FF,,,,,,,,0.979,,,,,,,,,,,,,,,,,,,,,,60fce9c29b57db229b7387bf,61036ebb75313f245eb89e4d,2021-07-29_22h15.35.178,Simcolourproject_2stim_asymm_v5,2020.2.10,Win32,60,61025ae37ef11b136ea224fe,,,,,,,,,3806,50,-87,1,0,0,response3disk,,4,-5,-4,1,0,0,rectangle,-5,-4,1,0,0,-5,-4,1,0,0,0,44,44,14,1,,,,,,,,
,,,,,,,,,,,,,FF,,,,,,,,0.8955,,,,,,,,,,,,,,,,,,,,,,60fce9c29b57db229b7387bf,61036ebb75313f245eb89e4d,2021-07-29_22h15.35.178,Simcolourproject_2stim_asymm_v5,2020.2.10,Win32,60,61025ae37ef11b136ea224fe,,,,,,,,,4049,-42,-88,1,0,0,response5disk,,3,-1,2,1,0,0,rectangle,-96,49,1,0,0,11,2,1,0,0,0,45,45,116,1,,response7disk_3,TRUE,1,1,"[46,285,112,113,39,320,136,8,170,306,65,185,92,313,204,153,110,106,180,236]",1.6537,rectangle
,,,,,,,,,,,,,FF,,,,,,,,1.4858,,,,,,,,,,,,,,,,,,,,,,60fce9c29b57db229b7387bf,61036ebb75313f245eb89e4d,2021-07-29_22h15.35.178,Simcolourproject_2stim_asymm_v5,2020.2.10,Win32,60,61025ae37ef11b136ea224fe,,,,,,,,,1794,70,45,1,0,0,response1disk,,6,25,-2,1,0,0,rectangle,25,-2,1,0,0,25,-2,1,0,0,0,46,46,87,1,,,,,,,,
,,,,,,,,,,,,,FF,,,,,,,,0.8282,,,,,,,,,,,,,,,,,,,,,,60fce9c29b57db229b7387bf,61036ebb75313f245eb89e4d,2021-07-29_22h15.35.178,Simcolourproject_2stim_asymm_v5,2020.2.10,Win32,60,61025ae37ef11b136ea224fe,,,,,,,,,3052,-64,-99,1,0,0,response5disk,,3,0,0,1,0,0,rectangle,0,0,1,0,0,0,0,1,0,0,0,47,47,65,1,,,,,,,,
,,,,,,,,,,,,,FF,,,,,,,,0.6077,,,,,,,,,,,,,,,,,,,,,,60fce9c29b57db229b7387bf,61036ebb75313f245eb89e4d,2021-07-29_22h15.35.178,Simcolourproject_2stim_asymm_v5,2020.2.10,Win32,60,61025ae37ef11b136ea224fe,,,,,,,,,1344,93,43,1,0,0,response1disk,,6,15,-2,1,0,0,rectangle,15,-2,1,0,0,15,-2,1,0,0,0,48,48,56,1,,,,,,,,
,,,,,,,,,,,,,FF,,,,,,,,0.8294,,,,,,,,,,,,,,,,,,,,,,60fce9c29b57db229b7387bf,61036ebb75313f245eb89e4d,2021-07-29_22h15.35.178,Simcolourproject_2stim_asymm_v5,2020.2.10,Win32,60,61025ae37ef11b136ea224fe,,,,,,,,,1763,118,58,1,0,0,response1disk,,6,-6,-7,1,0,0,rectangle,-6,-7,1,0,0,-6,-7,1,0,0,0,49,49,79,1,,,,,,,,
,,,,,,,,,,,,,FF,,,,,,,,0.9295,,,,,,,,,,,,,,,,,,,,,,60fce9c29b57db229b7387bf,61036ebb75313f245eb89e4d,2021-07-29_22h15.35.178,Simcolourproject_2stim_asymm_v5,2020.2.10,Win32,60,61025ae37ef11b136ea224fe,,,,,,,,,1853,78,39,1,0,0,response1disk,,6,7,0,1,0,0,rectangle,7,0,1,0,0,7,0,1,0,0,0,50,50,155,1,,,,,,,,
,,,,,,,,,,,,,FF,,,,,,,,0.9809,,,,,,,,,,,,,,,,,,,,,,60fce9c29b57db229b7387bf,61036ebb75313f245eb89e4d,2021-07-29_22h15.35.178,Simcolourproject_2stim_asymm_v5,2020.2.10,Win32,60,61025ae37ef11b136ea224fe,,,,,,,,,1291,-65,-90,1,0,0,response5disk,,3,31,0,1,0,0,rectangle,31,0,1,0,0,31,0,1,0,0,0,51,51,121,1,,,,,,,,
,,,,,,,,,,,,,FF,,,,,,,,0.6419,,,,,,,,,,,,,,,,,,,,,,60fce9c29b57db229b7387bf,61036ebb75313f245eb89e4d,2021-07-29_22h15.35.178,Simcolourproject_2stim_asymm_v5,2020.2.10,Win32,60,61025ae37ef11b136ea224fe,,,,,,,,,3427,-95,-39,1,0,0,response5disk,,2,-9,14,1,0,0,rectangle,-9,14,1,0,0,-9,14,1,0,0,0,52,52,127,1,,,,,,,,
,,,,,,,,,,,,,FF,,,,,,,,0.9636,,,,,,,,,,,,,,,,,,,,,,60fce9c29b57db229b7387bf,61036ebb75313f245eb89e4d,2021-07-29_22h15.35.178,Simcolourproject_2stim_asymm_v5,2020.2.10,Win32,60,61025ae37ef11b136ea224fe,,,,,,,,,3600,105,-42,1,0,0,response3disk,,5,11,19,1,0,0,rectangle,11,19,1,0,0,11,19,1,0,0,0,53,53,113,1,,,,,,,,
,,,,,,,,,,,,,FF,,,,,,,,0.7442,,,,,,,,,,,,,,,,,,,,,,60fce9c29b57db229b7387bf,61036ebb75313f245eb89e4d,2021-07-29_22h15.35.178,Simcolourproject_2stim_asymm_v5,2020.2.10,Win32,60,61025ae37ef11b136ea224fe,,,,,,,,,3222,84,67,1,0,0,response1disk,,6,0,10,1,0,0,rectangle,0,10,1,0,0,0,10,1,0,0,0,54,54,80,1,,,,,,,,
,,,,,,,,,,,,,FF,,,,,,,,1.1649,,,,,,,,,,,,,,,,,,,,,,60fce9c29b57db229b7387bf,61036ebb75313f245eb89e4d,2021-07-29_22h15.35.178,Simcolourproject_2stim_asymm_v5,2020.2.10,Win32,60,61025ae37ef11b136ea224fe,,,,,,,,,3595,-46,-87,1,0,0,response5disk,,3,14,-2,1,0,0,rectangle,14,-2,1,0,0,14,-2,1,0,0,0,55,55,85,1,,,,,,,,
,,,,,,,,,,,,,FF,,,,,,,,0.5746,,,,,,,,,,,,,,,,,,,,,,60fce9c29b57db229b7387bf,61036ebb75313f245eb89e4d,2021-07-29_22h15.35.178,Simcolourproject_2stim_asymm_v5,2020.2.10,Win32,60,61025ae37ef11b136ea224fe,,,,,,,,,2491,105,42,1,0,0,response1disk,,6,3,-2,1,0,0,rectangle,3,-2,1,0,0,3,-2,1,0,0,0,56,56,142,1,,,,,,,,
,,,,,,,,,,,,,FF,,,,,,,,0.8106,,,,,,,,,,,,,,,,,,,,,,60fce9c29b57db229b7387bf,61036ebb75313f245eb89e4d,2021-07-29_22h15.35.178,Simcolourproject_2stim_asymm_v5,2020.2.10,Win32,60,61025ae37ef11b136ea224fe,,,,,,,,,1683,-81,-52,1,0,0,response5disk,,2,2,8,1,0,0,rectangle,2,8,1,0,0,2,8,1,0,0,0,57,57,133,1,,,,,,,,
,,,,,,,,,,,,,FF,,,,,,,,0.9468,,,,,,,,,,,,,,,,,,,,,,60fce9c29b57db229b7387bf,61036ebb75313f245eb89e4d,2021-07-29_22h15.35.178,Simcolourproject_2stim_asymm_v5,2020.2.10,Win32,60,61025ae37ef11b136ea224fe,,,,,,,,,2786,44,-88,1,0,0,response3disk,,4,10,-8,1,0,0,rectangle,10,-8,1,0,0,10,-8,1,0,0,0,58,58,3,1,,,,,,,,
,,,,,,,,,,,,,FF,,,,,,,,0.8618,,,,,,,,,,,,,,,,,,,,,,60fce9c29b57db229b7387bf,61036ebb75313f245eb89e4d,2021-07-29_22h15.35.178,Simcolourproject_2stim_asymm_v5,2020.2.10,Win32,60,61025ae37ef11b136ea224fe,,,,,,,,,4161,-104,54,1,0,0,response7disk,,1,-14,9,1,0,0,rectangle,-14,9,1,0,0,-14,9,1,0,0,0,59,59,60,1,,,,,,,,
,,,,,,,,,,,,,FF,,,,,,,,0.6595,,,,,,,,,,,,,,,,,,,,,,60fce9c29b57db229b7387bf,61036ebb75313f245eb89e4d,2021-07-29_22h15.35.178,Simcolourproject_2stim_asymm_v5,2020.2.10,Win32,60,61025ae37ef11b136ea224fe,,,,,,,,,126,74,59,1,0,0,response1disk,,6,9,9,1,0,0,rectangle,9,9,1,0,0,9,9,1,0,0,0,60,60,53,1,,,,,,,,
,,,,,,,,,,,,,FF,,,,,,,,0.912,,,,,,,,,,,,,,,,,,,,,,60fce9c29b57db229b7387bf,61036ebb75313f245eb89e4d,2021-07-29_22h15.35.178,Simcolourproject_2stim_asymm_v5,2020.2.10,Win32,60,61025ae37ef11b136ea224fe,,,,,,,,,4163,-87,-41,1,0,0,response5disk,,2,3,2,1,0,0,rectangle,3,2,1,0,0,3,2,1,0,0,0,61,61,153,1,,,,,,,,
,,,,,,,,,,,,,FF,,,,,,,,0.8449,,,,,,,,,,,,,,,,,,,,,,60fce9c29b57db229b7387bf,61036ebb75313f245eb89e4d,2021-07-29_22h15.35.178,Simcolourproject_2stim_asymm_v5,2020.2.10,Win32,60,61025ae37ef11b136ea224fe,,,,,,,,,3412,68,110,1,0,0,response1disk,,7,23,11,1,0,0,rectangle,23,11,1,0,0,23,11,1,0,0,0,62,62,96,1,,,,,,,,
,,,,,,,,,,,,,FF,,,,,,,,0.6594,,,,,,,,,,,,,,,,,,,,,,60fce9c29b57db229b7387bf,61036ebb75313f245eb89e4d,2021-07-29_22h15.35.178,Simcolourproject_2stim_asymm_v5,2020.2.10,Win32,60,61025ae37ef11b136ea224fe,,,,,,,,,3534,57,97,1,0,0,response1disk,,7,4,-9,1,0,0,rectangle,4,-9,1,0,0,4,-9,1,0,0,0,63,63,154,1,,,,,,,,
,,,,,,,,,,,,,FF,,,,,,,,1.3689,,,,,,,,,,,,,,,,,,,,,,60fce9c29b57db229b7387bf,61036ebb75313f245eb89e4d,2021-07-29_22h15.35.178,Simcolourproject_2stim_asymm_v5,2020.2.10,Win32,60,61025ae37ef11b136ea224fe,,,,,,,,,2495,86,41,1,0,0,response1disk,,6,-9,-19,1,0,0,rectangle,-69,-73,1,0,0,-13,9,1,0,0,0,64,64,2,1,,response5disk_3,TRUE,3,3,"[46,285,112,113,39,320,136,8,170,306,65,185,92,313,204,153,110,106,180,236]",1.7915,rectangle
,,,,,,,,,,,,,FF,,,,,,,,1.7399,,,,,,,,,,,,,,,,,,,,,,60fce9c29b57db229b7387bf,61036ebb75313f245eb89e4d,2021-07-29_22h15.35.178,Simcolourproject_2stim_asymm_v5,2020.2.10,Win32,60,61025ae37ef11b136ea224fe,,,,,,,,,1074,97,-59,1,0,0,response3disk,,5,12,2,1,0,0,rectangle,12,2,1,0,0,12,2,1,0,0,0,65,65,25,1,,,,,,,,
,,,,,,,,,,,,,FF,,,,,,,,0.5917,,,,,,,,,,,,,,,,,,,,,,60fce9c29b57db229b7387bf,61036ebb75313f245eb89e4d,2021-07-29_22h15.35.178,Simcolourproject_2stim_asymm_v5,2020.2.10,Win32,60,61025ae37ef11b136ea224fe,,,,,,,,,3075,104,40,1,0,0,response1disk,,6,13,8,1,0,0,rectangle,13,8,1,0,0,13,8,1,0,0,0,66,66,119,1,,,,,,,,
,,,,,,,,,,,,,FF,,,,,,,,0.8807,,,,,,,,,,,,,,,,,,,,,,60fce9c29b57db229b7387bf,61036ebb75313f245eb89e4d,2021-07-29_22h15.35.178,Simcolourproject_2stim_asymm_v5,2020.2.10,Win32,60,61025ae37ef11b136ea224fe,,,,,,,,,2196,47,95,1,0,0,response1disk,,7,31,8,1,0,0,rectangle,31,8,1,0,0,31,8,1,0,0,0,67,67,120,1,,,,,,,,
,,,,,,,,,,,,,FF,,,,,,,,0.7937,,,,,,,,,,,,,,,,,,,,,,60fce9c29b57db229b7387bf,61036ebb75313f245eb89e4d,2021-07-29_22h15.35.178,Simcolourproject_2stim_asymm_v5,2020.2.10,Win32,60,61025ae37ef11b136ea224fe,,,,,,,,,4188,53,-75,1,0,0,response3disk,,4,37,1,1,0,0,rectangle,37,1,1,0,0,37,1,1,0,0,0,68,68,66,1,,,,,,,,
,,,,,,,,,,,,,FF,,,,,,,,1.199,,,,,,,,,,,,,,,,,,,,,,60fce9c29b57db229b7387bf,61036ebb75313f245eb89e4d,2021-07-29_22h15.35.178,Simcolourproject_2stim_asymm_v5,2020.2.10,Win32,60,61025ae37ef11b136ea224fe,,,,,,,,,1615,35,-76,1,0,0,response3disk,,4,-5,0,1,0,0,rectangle,-5,0,1,0,0,-5,0,1,0,0,0,69,69,145,1,,,,,,,,
,,,,,,,,,,,,,FF,,,,,,,,0.8442,,,,,,,,,,,,,,,,,,,,,,60fce9c29b57db229b7387bf,61036ebb75313f245eb89e4d,2021-07-29_22h15.35.178,Simcolourproject_2stim_asymm_v5,2020.2.10,Win32,60,61025ae37ef11b136ea224fe,,,,,,,,,4321,68,115,1,0,0,response1disk,,7,29,15,1,0,0,rectangle,29,15,1,0,0,29,15,1,0,0,0,70,70,124,1,,,,,,,,
,,,,,,,,,,,,,FF,,,,,,,,1.352,,,,,,,,,,,,,,,,,,,,,,60fce9c29b57db229b7387bf,61036ebb75313f245eb89e4d,2021-07-29_22h15.35.178,Simcolourproject_2stim_asymm_v5,2020.2.10,Win32,60,61025ae37ef11b136ea224fe,,,,,,,,,892,38,-100,1,0,0,response3disk,,4,-1,-7,1,0,0,rectangle,-1,-7,1,0,0,-1,-7,1,0,0,0,71,71,70,1,,,,,,,,
,,,,,,,,,,,,,FF,,,,,,,,0.9459,,,,,,,,,,,,,,,,,,,,,,60fce9c29b57db229b7387bf,61036ebb75313f245eb89e4d,2021-07-29_22h15.35.178,Simcolourproject_2stim_asymm_v5,2020.2.10,Win32,60,61025ae37ef11b136ea224fe,,,,,,,,,845,63,90,1,0,0,response1disk,,7,43,17,1,0,0,rectangle,43,17,1,0,0,43,17,1,0,0,0,72,72,148,1,,,,,,,,
,,,,,,,,,,,,,FF,,,,,,,,0.693,,,,,,,,,,,,,,,,,,,,,,60fce9c29b57db229b7387bf,61036ebb75313f245eb89e4d,2021-07-29_22h15.35.178,Simcolourproject_2stim_asymm_v5,2020.2.10,Win32,60,61025ae37ef11b136ea224fe,,,,,,,,,3309,98,62,1,0,0,response1disk,,6,29,20,1,0,0,rectangle,29,20,1,0,0,29,20,1,0,0,0,73,73,22,1,,,,,,,,
,,,,,,,,,,,,,FF,,,,,,,,0.6592,,,,,,,,,,,,,,,,,,,,,,60fce9c29b57db229b7387bf,61036ebb75313f245eb89e4d,2021-07-29_22h15.35.178,Simcolourproject_2stim_asymm_v5,2020.2.10,Win32,60,61025ae37ef11b136ea224fe,,,,,,,,,2133,61,87,1,0,0,response1disk,,7,9,-6,1,0,0,rectangle,9,-6,1,0,0,9,-6,1,0,0,0,74,74,69,1,,,,,,,,
,,,,,,,,,,,,,FF,,,,,,,,0.8793,,,,,,,,,,,,,,,,,,,,,,60fce9c29b57db229b7387bf,61036ebb75313f245eb89e4d,2021-07-29_22h15.35.178,Simcolourproject_2stim_asymm_v5,2020.2.10,Win32,60,61025ae37ef11b136ea224fe,,,,,,,,,4329,38,78,1,0,0,response1disk,,7,22,2,1,0,0,rectangle,22,2,1,0,0,22,2,1,0,0,0,75,75,157,1,,,,,,,,
,,,,,,,,,,,,,FF,,,,,,,,0.8273,,,,,,,,,,,,,,,,,,,,,,60fce9c29b57db229b7387bf,61036ebb75313f245eb89e4d,2021-07-29_22h15.35.178,Simcolourproject_2stim_asymm_v5,2020.2.10,Win32,60,61025ae37ef11b136ea224fe,,,,,,,,,1383,51,-77,1,0,0,response3disk,,4,17,-7,1,0,0,rectangle,17,-7,1,0,0,17,-7,1,0,0,0,76,76,8,1,,,,,,,,
,,,,,,,,,,,,,FF,,,,,,,,1.2496,,,,,,,,,,,,,,,,,,,,,,60fce9c29b57db229b7387bf,61036ebb75313f245eb89e4d,2021-07-29_22h15.35.178,Simcolourproject_2stim_asymm_v5,2020.2.10,Win32,60,61025ae37ef11b136ea224fe,,,,,,,,,705,88,-44,1,0,0,response3disk,,5,26,14,1,0,0,rectangle,26,14,1,0,0,26,14,1,0,0,0,77,77,31,1,,,,,,,,
,,,,,,,,,,,,,FF,,,,,,,,0.6073,,,,,,,,,,,,,,,,,,,,,,60fce9c29b57db229b7387bf,61036ebb75313f245eb89e4d,2021-07-29_22h15.35.178,Simcolourproject_2stim_asymm_v5,2020.2.10,Win32,60,61025ae37ef11b136ea224fe,,,,,,,,,493,55,121,1,0,0,response1disk,,7,19,3,1,0,0,rectangle,19,3,1,0,0,19,3,1,0,0,0,78,78,34,1,,,,,,,,
,,,,,,,,,,,,,FF,,,,,,,,0.8777,,,,,,,,,,,,,,,,,,,,,,60fce9c29b57db229b7387bf,61036ebb75313f245eb89e4d,2021-07-29_22h15.35.178,Simcolourproject_2stim_asymm_v5,2020.2.10,Win32,60,61025ae37ef11b136ea224fe,,,,,,,,,3491,52,86,1,0,0,response1disk,,7,11,-2,1,0,0,rectangle,11,-2,1,0,0,11,-2,1,0,0,0,79,79,152,1,,,,,,,,
,,,,,,,,,,,,,FF,,,,,,,,0.7261,,,,,,,,,,,,,,,,,,,,,,60fce9c29b57db229b7387bf,61036ebb75313f245eb89e4d,2021-07-29_22h15.35.178,Simcolourproject_2stim_asymm_v5,2020.2.10,Win32,60,61025ae37ef11b136ea224fe,,,,,,,,,884,37,87,1,0,0,response1disk,,7,2,1,1,0,0,rectangle,2,1,1,0,0,2,1,1,0,0,0,80,80,5,1,,,,,,,,
,,,,,,,,,,,,,FF,,,,,,,,0.6933,,,,,,,,,,,,,,,,,,,,,,60fce9c29b57db229b7387bf,61036ebb75313f245eb89e4d,2021-07-29_22h15.35.178,Simcolourproject_2stim_asymm_v5,2020.2.10,Win32,60,61025ae37ef11b136ea224fe,,,,,,,,,1113,85,42,1,0,0,response1disk,,6,24,7,1,0,0,rectangle,24,7,1,0,0,24,7,1,0,0,0,81,81,0,1,,,,,,,,
,,,,,,,,,,,,,FF,,,,,,,,1.5882,,,,,,,,,,,,,,,,,,,,,,60fce9c29b57db229b7387bf,61036ebb75313f245eb89e4d,2021-07-29_22h15.35.178,Simcolourproject_2stim_asymm_v5,2020.2.10,Win32,60,61025ae37ef11b136ea224fe,,,,,,,,,3736,83,-38,1,0,0,response3disk,,5,7,-8,1,0,0,rectangle,7,-8,1,0,0,7,-8,1,0,0,0,82,82,146,1,,,,,,,,
,,,,,,,,,,,,,FF,,,,,,,,2.1121,,,,,,,,,,,,,,,,,,,,,,60fce9c29b57db229b7387bf,61036ebb75313f245eb89e4d,2021-07-29_22h15.35.178,Simcolourproject_2stim_asymm_v5,2020.2.10,Win32,60,61025ae37ef11b136ea224fe,,,,,,,,,2117,72,49,1,0,0,response1disk,,6,14,12,1,0,0,rectangle,14,12,1,0,0,14,12,1,0,0,0,83,83,109,1,,,,,,,,
,,,,,,,,,,,,,FF,,,,,,,,0.9468,,,,,,,,,,,,,,,,,,,,,,60fce9c29b57db229b7387bf,61036ebb75313f245eb89e4d,2021-07-29_22h15.35.178,Simcolourproject_2stim_asymm_v5,2020.2.10,Win32,60,61025ae37ef11b136ea224fe,,,,,,,,,3212,27,-97,1,0,0,response3disk,,4,-14,-8,1,0,0,rectangle,-14,-8,1,0,0,-14,-8,1,0,0,0,84,84,17,1,,,,,,,,
,,,,,,,,,,,,,FF,,,,,,,,1.1157,,,,,,,,,,,,,,,,,,,,,,60fce9c29b57db229b7387bf,61036ebb75313f245eb89e4d,2021-07-29_22h15.35.178,Simcolourproject_2stim_asymm_v5,2020.2.10,Win32,60,61025ae37ef11b136ea224fe,,,,,,,,,3244,-98,-68,1,0,0,response5disk,,2,0,-2,1,0,0,rectangle,0,-2,1,0,0,0,-2,1,0,0,0,85,85,104,1,,,,,,,,
,,,,,,,,,,,,,FF,,,,,,,,0.7264,,,,,,,,,,,,,,,,,,,,,,60fce9c29b57db229b7387bf,61036ebb75313f245eb89e4d,2021-07-29_22h15.35.178,Simcolourproject_2stim_asymm_v5,2020.2.10,Win32,60,61025ae37ef11b136ea224fe,,,,,,,,,3292,-54,-80,1,0,0,response5disk,,3,0,2,1,0,0,rectangle,0,2,1,0,0,0,2,1,0,0,0,86,86,4,1,,,,,,,,
,,,,,,,,,,,,,FF,,,,,,,,0.9797,,,,,,,,,,,,,,,,,,,,,,60fce9c29b57db229b7387bf,61036ebb75313f245eb89e4d,2021-07-29_22h15.35.178,Simcolourproject_2stim_asymm_v5,2020.2.10,Win32,60,61025ae37ef11b136ea224fe,,,,,,,,,3228,69,97,1,0,0,response1disk,,7,29,5,1,0,0,rectangle,29,5,1,0,0,29,5,1,0,0,0,87,87,27,1,,,,,,,,
,,,,,,,,,,,,,FF,,,,,,,,1.1664,,,,,,,,,,,,,,,,,,,,,,60fce9c29b57db229b7387bf,61036ebb75313f245eb89e4d,2021-07-29_22h15.35.178,Simcolourproject_2stim_asymm_v5,2020.2.10,Win32,60,61025ae37ef11b136ea224fe,,,,,,,,,2882,120,-57,1,0,0,response3disk,,5,31,3,1,0,0,rectangle,31,3,1,0,0,31,3,1,0,0,0,88,88,33,1,,,,,,,,
,,,,,,,,,,,,,FF,,,,,,,,0.7767,,,,,,,,,,,,,,,,,,,,,,60fce9c29b57db229b7387bf,61036ebb75313f245eb89e4d,2021-07-29_22h15.35.178,Simcolourproject_2stim_asymm_v5,2020.2.10,Win32,60,61025ae37ef11b136ea224fe,,,,,,,,,4211,95,54,1,0,0,response1disk,,6,18,9,1,0,0,rectangle,18,9,1,0,0,18,9,1,0,0,0,89,89,19,1,,,,,,,,
,,,,,,,,,,,,,FF,,,,,,,,0.5925,,,,,,,,,,,,,,,,,,,,,,60fce9c29b57db229b7387bf,61036ebb75313f245eb89e4d,2021-07-29_22h15.35.178,Simcolourproject_2stim_asymm_v5,2020.2.10,Win32,60,61025ae37ef11b136ea224fe,,,,,,,,,328,50,93,1,0,0,response1disk,,7,6,-2,1,0,0,rectangle,6,-2,1,0,0,6,-2,1,0,0,0,90,90,117,1,,,,,,,,
,,,,,,,,,,,,,FF,,,,,,,,0.8112,,,,,,,,,,,,,,,,,,,,,,60fce9c29b57db229b7387bf,61036ebb75313f245eb89e4d,2021-07-29_22h15.35.178,Simcolourproject_2stim_asymm_v5,2020.2.10,Win32,60,61025ae37ef11b136ea224fe,,,,,,,,,2232,53,-78,1,0,0,response3disk,,4,18,-3,1,0,0,rectangle,-90,-54,1,0,0,-8,1,1,0,0,0,91,91,111,1,,response5disk_3,TRUE,2,2,"[46,285,112,113,39,320,136,8,170,306,65,185,92,313,204,153,110,106,180,236]",1.6724,rectangle
,,,,,,,,,,,,,FF,,,,,,,,2.0439,,,,,,,,,,,,,,,,,,,,,,60fce9c29b57db229b7387bf,61036ebb75313f245eb89e4d,2021-07-29_22h15.35.178,Simcolourproject_2stim_asymm_v5,2020.2.10,Win32,60,61025ae37ef11b136ea224fe,,,,,,,,,620,89,58,1,0,0,response1disk,,6,-22,-12,1,0,0,rectangle,-22,-12,1,0,0,-22,-12,1,0,0,0,92,92,12,1,,,,,,,,
,,,,,,,,,,,,,FF,,,,,,,,1.2665,,,,,,,,,,,,,,,,,,,,,,60fce9c29b57db229b7387bf,61036ebb75313f245eb89e4d,2021-07-29_22h15.35.178,Simcolourproject_2stim_asymm_v5,2020.2.10,Win32,60,61025ae37ef11b136ea224fe,,,,,,,,,3489,89,39,1,0,0,response1disk,,6,10,3,1,0,0,rectangle,10,3,1,0,0,10,3,1,0,0,0,93,93,132,1,,,,,,,,
,,,,,,,,,,,,,FF,,,,,,,,0.7425,,,,,,,,,,,,,,,,,,,,,,60fce9c29b57db229b7387bf,61036ebb75313f245eb89e4d,2021-07-29_22h15.35.178,Simcolourproject_2stim_asymm_v5,2020.2.10,Win32,60,61025ae37ef11b136ea224fe,,,,,,,,,4230,65,89,1,0,0,response1disk,,7,17,6,1,0,0,rectangle,17,6,1,0,0,17,6,1,0,0,0,94,94,15,1,,,,,,,,
,,,,,,,,,,,,,FF,,,,,,,,0.7275,,,,,,,,,,,,,,,,,,,,,,60fce9c29b57db229b7387bf,61036ebb75313f245eb89e4d,2021-07-29_22h15.35.178,Simcolourproject_2stim_asymm_v5,2020.2.10,Win32,60,61025ae37ef11b136ea224fe,,,,,,,,,485,60,90,1,0,0,response1disk,,7,19,-3,1,0,0,rectangle,19,-3,1,0,0,19,-3,1,0,0,0,95,95,71,1,,,,,,,,
,,,,,,,,,,,,,FF,,,,,,,,0.6426,,,,,,,,,,,,,,,,,,,,,,60fce9c29b57db229b7387bf,61036ebb75313f245eb89e4d,2021-07-29_22h15.35.178,Simcolourproject_2stim_asymm_v5,2020.2.10,Win32,60,61025ae37ef11b136ea224fe,,,,,,,,,3869,69,-32,1,0,0,response3disk,,5,-3,7,1,0,0,rectangle,-3,7,1,0,0,-3,7,1,0,0,0,96,96,24,1,,,,,,,,
,,,,,,,,,,,,,FF,,,,,,,,1.0302,,,,,,,,,,,,,,,,,,,,,,60fce9c29b57db229b7387bf,61036ebb75313f245eb89e4d,2021-07-29_22h15.35.178,Simcolourproject_2stim_asymm_v5,2020.2.10,Win32,60,61025ae37ef11b136ea224fe,,,,,,,,,4138,68,98,1,0,0,response1disk,,7,14,9,1,0,0,rectangle,14,9,1,0,0,14,9,1,0,0,0,97,97,144,1,,,,,,,,
,,,,,,,,,,,,,FF,,,,,,,,0.8632,,,,,,,,,,,,,,,,,,,,,,60fce9c29b57db229b7387bf,61036ebb75313f245eb89e4d,2021-07-29_22h15.35.178,Simcolourproject_2stim_asymm_v5,2020.2.10,Win32,60,61025ae37ef11b136ea224fe,,,,,,,,,3429,-58,-94,1,0,0,response5disk,,3,-3,10,1,0,0,rectangle,-3,10,1,0,0,-3,10,1,0,0,0,98,98,88,1,,,,,,,,
,,,,,,,,,,,,,FF,,,,,,,,0.9464,,,,,,,,,,,,,,,,,,,,,,60fce9c29b57db229b7387bf,61036ebb75313f245eb89e4d,2021-07-29_22h15.35.178,Simcolourproject_2stim_asymm_v5,2020.2.10,Win32,60,61025ae37ef11b136ea224fe,,,,,,,,,1517,97,53,1,0,0,response1disk,,6,26,2,1,0,0,rectangle,26,2,1,0,0,26,2,1,0,0,0,99,99,44,1,,,,,,,,
,,,,,,,,,,,,,FF,,,,,,,,1.064,,,,,,,,,,,,,,,,,,,,,,60fce9c29b57db229b7387bf,61036ebb75313f245eb89e4d,2021-07-29_22h15.35.178,Simcolourproject_2stim_asymm_v5,2020.2.10,Win32,60,61025ae37ef11b136ea224fe,,,,,,,,,132,92,51,1,0,0,response1disk,,6,28,4,1,0,0,rectangle,28,4,1,0,0,28,4,1,0,0,0,100,100,36,1,,,,,,,,
,,,,,,,,,,,,,FF,,,,,,,,0.7596,,,,,,,,,,,,,,,,,,,,,,60fce9c29b57db229b7387bf,61036ebb75313f245eb89e4d,2021-07-29_22h15.35.178,Simcolourproject_2stim_asymm_v5,2020.2.10,Win32,60,61025ae37ef11b136ea224fe,,,,,,,,,2981,90,54,1,0,0,response1disk,,6,5,7,1,0,0,rectangle,5,7,1,0,0,5,7,1,0,0,0,101,101,20,1,,,,,,,,
,,,,,,,,,,,,,FF,,,,,,,,0.6247,,,,,,,,,,,,,,,,,,,,,,60fce9c29b57db229b7387bf,61036ebb75313f245eb89e4d,2021-07-29_22h15.35.178,Simcolourproject_2stim_asymm_v5,2020.2.10,Win32,60,61025ae37ef11b136ea224fe,,,,,,,,,2197,36,77,1,0,0,response1disk,,7,-12,5,1,0,0,rectangle,-12,5,1,0,0,-12,5,1,0,0,0,102,102,98,1,,,,,,,,
,,,,,,,,,,,,,FF,,,,,,,,0.8104,,,,,,,,,,,,,,,,,,,,,,60fce9c29b57db229b7387bf,61036ebb75313f245eb89e4d,2021-07-29_22h15.35.178,Simcolourproject_2stim_asymm_v5,2020.2.10,Win32,60,61025ae37ef11b136ea224fe,,,,,,,,,2012,45,82,1,0,0,response1disk,,7,18,14,1,0,0,rectangle,18,14,1,0,0,18,14,1,0,0,0,103,103,67,1,,,,,,,,
,,,,,,,,,,,,,FF,,,,,,,,0.7098,,,,,,,,,,,,,,,,,,,,,,60fce9c29b57db229b7387bf,61036ebb75313f245eb89e4d,2021-07-29_22h15.35.178,Simcolourproject_2stim_asymm_v5,2020.2.10,Win32,60,61025ae37ef11b136ea224fe,,,,,,,,,136,90,51,1,0,0,response1disk,,6,20,2,1,0,0,rectangle,20,2,1,0,0,20,2,1,0,0,0,104,104,6,1,,,,,,,,
,,,,,,,,,,,,,FF,,,,,,,,0.9801,,,,,,,,,,,,,,,,,,,,,,60fce9c29b57db229b7387bf,61036ebb75313f245eb89e4d,2021-07-29_22h15.35.178,Simcolourproject_2stim_asymm_v5,2020.2.10,Win32,60,61025ae37ef11b136ea224fe,,,,,,,,,310,73,90,1,0,0,response1disk,,7,27,7,1,0,0,rectangle,96,-43,1,0,0,11,7,1,0,0,0,105,105,51,1,,response3disk_3,TRUE,5,5,"[46,285,112,113,39,320,136,8,170,306,65,185,92,313,204,153,110,106,180,236]",1.9423,rectangle
,,,,,,,,,,,,,FF,,,,,,,,0.6925,,,,,,,,,,,,,,,,,,,,,,60fce9c29b57db229b7387bf,61036ebb75313f245eb89e4d,2021-07-29_22h15.35.178,Simcolourproject_2stim_asymm_v5,2020.2.10,Win32,60,61025ae37ef11b136ea224fe,,,,,,,,,2159,58,119,1,0,0,response1disk,,7,-1,0,1,0,0,rectangle,-1,0,1,0,0,-1,0,1,0,0,0,106,106,81,1,,,,,,,,
,,,,,,,,,,,,,FF,,,,,,,,0.9457,,,,,,,,,,,,,,,,,,,,,,60fce9c29b57db229b7387bf,61036ebb75313f245eb89e4d,2021-07-29_22h15.35.178,Simcolourproject_2stim_asymm_v5,2020.2.10,Win32,60,61025ae37ef11b136ea224fe,,,,,,,,,732,90,-20,1,0,0,response3disk,,5,13,15,1,0,0,rectangle,13,15,1,0,0,13,15,1,0,0,0,107,107,131,1,,,,,,,,
,,,,,,,,,,,,,FF,,,,,,,,0.7772,,,,,,,,,,,,,,,,,,,,,,60fce9c29b57db229b7387bf,61036ebb75313f245eb89e4d,2021-07-29_22h15.35.178,Simcolourproject_2stim_asymm_v5,2020.2.10,Win32,60,61025ae37ef11b136ea224fe,,,,,,,,,2406,110,60,1,0,0,response1disk,,6,20,17,1,0,0,rectangle,20,17,1,0,0,20,17,1,0,0,0,108,108,149,1,,,,,,,,
,,,,,,,,,,,,,FF,,,,,,,,0.8618,,,,,,,,,,,,,,,,,,,,,,60fce9c29b57db229b7387bf,61036ebb75313f245eb89e4d,2021-07-29_22h15.35.178,Simcolourproject_2stim_asymm_v5,2020.2.10,Win32,60,61025ae37ef11b136ea224fe,,,,,,,,,4184,44,-90,1,0,0,response3disk,,4,-20,-2,1,0,0,rectangle,-105,60,1,0,0,0,4,1,0,0,0,109,109,47,1,,response7disk_3,TRUE,1,1,"[46,285,112,113,39,320,136,8,170,306,65,185,92,313,204,153,110,106,180,236]",1.5207,rectangle
,,,,,,,,,,,,,FF,,,,,,,,1.3341,,,,,,,,,,,,,,,,,,,,,,60fce9c29b57db229b7387bf,61036ebb75313f245eb89e4d,2021-07-29_22h15.35.178,Simcolourproject_2stim_asymm_v5,2020.2.10,Win32,60,61025ae37ef11b136ea224fe,,,,,,,,,1981,91,49,1,0,0,response1disk,,6,0,-6,1,0,0,rectangle,0,-6,1,0,0,0,-6,1,0,0,0,110,110,54,1,,,,,,,,
,,,,,,,,,,,,,FF,,,,,,,,0.6766,,,,,,,,,,,,,,,,,,,,,,60fce9c29b57db229b7387bf,61036ebb75313f245eb89e4d,2021-07-29_22h15.35.178,Simcolourproject_2stim_asymm_v5,2020.2.10,Win32,60,61025ae37ef11b136ea224fe,,,,,,,,,4296,32,88,1,0,0,response1disk,,7,2,7,1,0,0,rectangle,-76,52,1,0,0,-14,10,1,0,0,0,111,111,37,1,,response7disk_3,TRUE,1,1,"[46,285,112,113,39,320,136,8,170,306,65,185,92,313,204,153,110,106,180,236]",1.4702,rectangle
,,,,,,,,,,,,,FF,,,,,,,,1.5879,,,,,,,,,,,,,,,,,,,,,,60fce9c29b57db229b7387bf,61036ebb75313f245eb89e4d,2021-07-29_22h15.35.178,Simcolourproject_2stim_asymm_v5,2020.2.10,Win32,60,61025ae37ef11b136ea224fe,,,,,,,,,4043,97,68,1,0,0,response1disk,,6,25,1,1,0,0,rectangle,33,-94,1,0,0,-4,0,1,0,0,0,112,112,134,1,,response3disk_3,TRUE,4,4,"[46,285,112,113,39,320,136,8,170,306,65,185,92,313,204,153,110,106,180,236]",1.638,rectangle
,,,,,,,,,,,,,FF,,,,,,,,1.1658,,,,,,,,,,,,,,,,,,,,,,60fce9c29b57db229b7387bf,61036ebb75313f245eb89e4d,2021-07-29_22h15.35.178,Simcolourproject_2stim_asymm_v5,2020.2.10,Win32,60,61025ae37ef11b136ea224fe,,,,,,,,,3684,60,36,1,0,0,response1disk,,6,11,-2,1,0,0,rectangle,11,-2,1,0,0,11,-2,1,0,0,0,113,113,130,1,,,,,,,,
,,,,,,,,,,,,,FF,,,,,,,,1.3684,,,,,,,,,,,,,,,,,,,,,,60fce9c29b57db229b7387bf,61036ebb75313f245eb89e4d,2021-07-29_22h15.35.178,Simcolourproject_2stim_asymm_v5,2020.2.10,Win32,60,61025ae37ef11b136ea224fe,,,,,,,,,1974,107,-56,1,0,0,response3disk,,5,0,2,1,0,0,rectangle,0,2,1,0,0,0,2,1,0,0,0,114,114,158,1,,,,,,,,
,,,,,,,,,,,,,FF,,,,,,,,0.8773,,,,,,,,,,,,,,,,,,,,,,60fce9c29b57db229b7387bf,61036ebb75313f245eb89e4d,2021-07-29_22h15.35.178,Simcolourproject_2stim_asymm_v5,2020.2.10,Win32,60,61025ae37ef11b136ea224fe,,,,,,,,,87,93,54,1,0,0,response1disk,,6,8,1,1,0,0,rectangle,8,1,1,0,0,8,1,1,0,0,0,115,115,11,1,,,,,,,,
,,,,,,,,,,,,,FF,,,,,,,,0.705,,,,,,,,,,,,,,,,,,,,,,60fce9c29b57db229b7387bf,61036ebb75313f245eb89e4d,2021-07-29_22h15.35.178,Simcolourproject_2stim_asymm_v5,2020.2.10,Win32,60,61025ae37ef11b136ea224fe,,,,,,,,,1349,86,47,1,0,0,response1disk,,6,25,1,1,0,0,rectangle,25,1,1,0,0,25,1,1,0,0,0,116,116,100,1,,,,,,,,
,,,,,,,,,,,,,FF,,,,,,,,0.8945,,,,,,,,,,,,,,,,,,,,,,60fce9c29b57db229b7387bf,61036ebb75313f245eb89e4d,2021-07-29_22h15.35.178,Simcolourproject_2stim_asymm_v5,2020.2.10,Win32,60,61025ae37ef11b136ea224fe,,,,,,,,,3671,-89,-45,1,0,0,response5disk,,2,3,15,1,0,0,rectangle,3,15,1,0,0,3,15,1,0,0,0,117,117,61,1,,,,,,,,
,,,,,,,,,,,,,FF,,,,,,,,0.6935,,,,,,,,,,,,,,,,,,,,,,60fce9c29b57db229b7387bf,61036ebb75313f245eb89e4d,2021-07-29_22h15.35.178,Simcolourproject_2stim_asymm_v5,2020.2.10,Win32,60,61025ae37ef11b136ea224fe,,,,,,,,,2147,62,92,1,0,0,response1disk,,7,16,12,1,0,0,rectangle,16,12,1,0,0,16,12,1,0,0,0,118,118,13,1,,,,,,,,
,,,,,,,,,,,,,FF,,,,,,,,0.7262,,,,,,,,,,,,,,,,,,,,,,60fce9c29b57db229b7387bf,61036ebb75313f245eb89e4d,2021-07-29_22h15.35.178,Simcolourproject_2stim_asymm_v5,2020.2.10,Win32,60,61025ae37ef11b136ea224fe,,,,,,,,,2008,66,98,1,0,0,response1disk,,7,17,-1,1,0,0,rectangle,17,-1,1,0,0,17,-1,1,0,0,0,119,119,94,1,,,,,,,,
,,,,,,,,,,,,,FF,,,,,,,,0.962,,,,,,,,,,,,,,,,,,,,,,60fce9c29b57db229b7387bf,61036ebb75313f245eb89e4d,2021-07-29_22h15.35.178,Simcolourproject_2stim_asymm_v5,2020.2.10,Win32,60,61025ae37ef11b136ea224fe,,,,,,,,,3213,75,71,1,0,0,response1disk,,6,25,11,1,0,0,rectangle,25,11,1,0,0,25,11,1,0,0,0,120,120,41,1,,,,,,,,
,,,,,,,,,,,,,FF,,,,,,,,0.8443,,,,,,,,,,,,,,,,,,,,,,60fce9c29b57db229b7387bf,61036ebb75313f245eb89e4d,2021-07-29_22h15.35.178,Simcolourproject_2stim_asymm_v5,2020.2.10,Win32,60,61025ae37ef11b136ea224fe,,,,,,,,,1425,62,89,1,0,0,response1disk,,7,22,-14,1,0,0,rectangle,22,-14,1,0,0,22,-14,1,0,0,0,121,121,16,1,,,,,,,,
,,,,,,,,,,,,,FF,,,,,,,,0.7935,,,,,,,,,,,,,,,,,,,,,,60fce9c29b57db229b7387bf,61036ebb75313f245eb89e4d,2021-07-29_22h15.35.178,Simcolourproject_2stim_asymm_v5,2020.2.10,Win32,60,61025ae37ef11b136ea224fe,,,,,,,,,995,49,90,1,0,0,response1disk,,7,20,-2,1,0,0,rectangle,20,-2,1,0,0,20,-2,1,0,0,0,122,122,49,1,,,,,,,,
,,,,,,,,,,,,,FF,,,,,,,,1.015,,,,,,,,,,,,,,,,,,,,,,60fce9c29b57db229b7387bf,61036ebb75313f245eb89e4d,2021-07-29_22h15.35.178,Simcolourproject_2stim_asymm_v5,2020.2.10,Win32,60,61025ae37ef11b136ea224fe,,,,,,,,,15,66,-47,1,0,0,response3disk,,5,18,-5,1,0,0,rectangle,18,-5,1,0,0,18,-5,1,0,0,0,123,123,108,1,,,,,,,,
,,,,,,,,,,,,,FF,,,,,,,,1.1486,,,,,,,,,,,,,,,,,,,,,,60fce9c29b57db229b7387bf,61036ebb75313f245eb89e4d,2021-07-29_22h15.35.178,Simcolourproject_2stim_asymm_v5,2020.2.10,Win32,60,61025ae37ef11b136ea224fe,,,,,,,,,3255,-45,-92,1,0,0,response5disk,,3,-16,0,1,0,0,rectangle,-16,0,1,0,0,-16,0,1,0,0,0,124,124,39,1,,,,,,,,
,,,,,,,,,,,,,FF,,,,,,,,0.9116,,,,,,,,,,,,,,,,,,,,,,60fce9c29b57db229b7387bf,61036ebb75313f245eb89e4d,2021-07-29_22h15.35.178,Simcolourproject_2stim_asymm_v5,2020.2.10,Win32,60,61025ae37ef11b136ea224fe,,,,,,,,,1924,94,42,1,0,0,response1disk,,6,2,0,1,0,0,rectangle,2,0,1,0,0,2,0,1,0,0,0,125,125,63,1,,,,,,,,
,,,,,,,,,,,,,FF,,,,,,,,0.8956,,,,,,,,,,,,,,,,,,,,,,60fce9c29b57db229b7387bf,61036ebb75313f245eb89e4d,2021-07-29_22h15.35.178,Simcolourproject_2stim_asymm_v5,2020.2.10,Win32,60,61025ae37ef11b136ea224fe,,,,,,,,,2999,-83,-46,1,0,0,response5disk,,2,9,1,1,0,0,rectangle,9,1,1,0,0,9,1,1,0,0,0,126,126,30,1,,,,,,,,
,,,,,,,,,,,,,FF,,,,,,,,1.0825,,,,,,,,,,,,,,,,,,,,,,60fce9c29b57db229b7387bf,61036ebb75313f245eb89e4d,2021-07-29_22h15.35.178,Simcolourproject_2stim_asymm_v5,2020.2.10,Win32,60,61025ae37ef11b136ea224fe,,,,,,,,,434,105,-58,1,0,0,response3disk,,5,8,0,1,0,0,rectangle,8,0,1,0,0,8,0,1,0,0,0,127,127,40,1,,,,,,,,
,,,,,,,,,,,,,FF,,,,,,,,1.0632,,,,,,,,,,,,,,,,,,,,,,60fce9c29b57db229b7387bf,61036ebb75313f245eb89e4d,2021-07-29_22h15.35.178,Simcolourproject_2stim_asymm_v5,2020.2.10,Win32,60,61025ae37ef11b136ea224fe,,,,,,,,,1118,91,45,1,0,0,response1disk,,6,7,-11,1,0,0,rectangle,7,-11,1,0,0,7,-11,1,0,0,0,128,128,73,1,,,,,,,,
,,,,,,,,,,,,,FF,,,,,,,,1.0469,,,,,,,,,,,,,,,,,,,,,,60fce9c29b57db229b7387bf,61036ebb75313f245eb89e4d,2021-07-29_22h15.35.178,Simcolourproject_2stim_asymm_v5,2020.2.10,Win32,60,61025ae37ef11b136ea224fe,,,,,,,,,1136,-111,-55,1,0,0,response5disk,,2,-4,20,1,0,0,rectangle,-4,20,1,0,0,-4,20,1,0,0,0,129,129,103,1,,,,,,,,
,,,,,,,,,,,,,FF,,,,,,,,1.5722,,,,,,,,,,,,,,,,,,,,,,60fce9c29b57db229b7387bf,61036ebb75313f245eb89e4d,2021-07-29_22h15.35.178,Simcolourproject_2stim_asymm_v5,2020.2.10,Win32,60,61025ae37ef11b136ea224fe,,,,,,,,,1567,105,44,1,0,0,response1disk,,6,21,-7,1,0,0,rectangle,21,-7,1,0,0,21,-7,1,0,0,0,130,130,126,1,,,,,,,,
,,,,,,,,,,,,,FF,,,,,,,,0.7779,,,,,,,,,,,,,,,,,,,,,,60fce9c29b57db229b7387bf,61036ebb75313f245eb89e4d,2021-07-29_22h15.35.178,Simcolourproject_2stim_asymm_v5,2020.2.10,Win32,60,61025ae37ef11b136ea224fe,,,,,,,,,1008,67,38,1,0,0,response1disk,,6,4,12,1,0,0,rectangle,4,12,1,0,0,4,12,1,0,0,0,131,131,137,1,,,,,,,,
,,,,,,,,,,,,,FF,,,,,,,,0.9298,,,,,,,,,,,,,,,,,,,,,,60fce9c29b57db229b7387bf,61036ebb75313f245eb89e4d,2021-07-29_22h15.35.178,Simcolourproject_2stim_asymm_v5,2020.2.10,Win32,60,61025ae37ef11b136ea224fe,,,,,,,,,2364,-71,-90,1,0,0,response5disk,,3,-32,-5,1,0,0,rectangle,-32,-5,1,0,0,-32,-5,1,0,0,0,132,132,82,1,,,,,,,,
,,,,,,,,,,,,,FF,,,,,,,,0.7099,,,,,,,,,,,,,,,,,,,,,,60fce9c29b57db229b7387bf,61036ebb75313f245eb89e4d,2021-07-29_22h15.35.178,Simcolourproject_2stim_asymm_v5,2020.2.10,Win32,60,61025ae37ef11b136ea224fe,,,,,,,,,1535,-62,-48,1,0,0,response5disk,,2,4,12,1,0,0,rectangle,4,12,1,0,0,4,12,1,0,0,0,133,133,150,1,,,,,,,,
,,,,,,,,,,,,,FF,,,,,,,,0.7099,,,,,,,,,,,,,,,,,,,,,,60fce9c29b57db229b7387bf,61036ebb75313f245eb89e4d,2021-07-29_22h15.35.178,Simcolourproject_2stim_asymm_v5,2020.2.10,Win32,60,61025ae37ef11b136ea224fe,,,,,,,,,3248,-93,-30,1,0,0,response5disk,,2,-13,20,1,0,0,rectangle,-13,20,1,0,0,-13,20,1,0,0,0,134,134,28,1,,,,,,,,
,,,,,,,,,,,,,FF,,,,,,,,0.6924,,,,,,,,,,,,,,,,,,,,,,60fce9c29b57db229b7387bf,61036ebb75313f245eb89e4d,2021-07-29_22h15.35.178,Simcolourproject_2stim_asymm_v5,2020.2.10,Win32,60,61025ae37ef11b136ea224fe,,,,,,,,,1594,65,108,1,0,0,response1disk,,7,-8,4,1,0,0,rectangle,83,-40,1,0,0,6,-1,1,0,0,0,135,135,78,1,,response3disk_3,TRUE,5,5,"[46,285,112,113,39,320,136,8,170,306,65,185,92,313,204,153,110,106,180,236]",1.621,rectangle
,,,,,,,,,,,,,FF,,,,,,,,0.7944,,,,,,,,,,,,,,,,,,,,,,60fce9c29b57db229b7387bf,61036ebb75313f245eb89e4d,2021-07-29_22h15.35.178,Simcolourproject_2stim_asymm_v5,2020.2.10,Win32,60,61025ae37ef11b136ea224fe,,,,,,,,,111,67,84,1,0,0,response1disk,,7,20,9,1,0,0,rectangle,20,9,1,0,0,20,9,1,0,0,0,136,136,99,1,,,,,,,,
,,,,,,,,,,,,,FF,,,,,,,,1.1827,,,,,,,,,,,,,,,,,,,,,,60fce9c29b57db229b7387bf,61036ebb75313f245eb89e4d,2021-07-29_22h15.35.178,Simcolourproject_2stim_asymm_v5,2020.2.10,Win32,60,61025ae37ef11b136ea224fe,,,,,,,,,2826,38,-90,1,0,0,response3disk,,4,14,-5,1,0,0,rectangle,14,-5,1,0,0,14,-5,1,0,0,0,137,137,129,1,,,,,,,,
,,,,,,,,,,,,,FF,,,,,,,,0.7435,,,,,,,,,,,,,,,,,,,,,,60fce9c29b57db229b7387bf,61036ebb75313f245eb89e4d,2021-07-29_22h15.35.178,Simcolourproject_2stim_asymm_v5,2020.2.10,Win32,60,61025ae37ef11b136ea224fe,,,,,,,,,2010,65,101,1,0,0,response1disk,,7,6,-17,1,0,0,rectangle,6,-17,1,0,0,6,-17,1,0,0,0,138,138,58,1,,,,,,,,
,,,,,,,,,,,,,FF,,,,,,,,0.7946,,,,,,,,,,,,,,,,,,,,,,60fce9c29b57db229b7387bf,61036ebb75313f245eb89e4d,2021-07-29_22h15.35.178,Simcolourproject_2stim_asymm_v5,2020.2.10,Win32,60,61025ae37ef11b136ea224fe,,,,,,,,,3279,38,69,1,0,0,response1disk,,7,5,8,1,0,0,rectangle,5,8,1,0,0,5,8,1,0,0,0,139,139,68,1,,,,,,,,
,,,,,,,,,,,,,FF,,,,,,,,0.675,,,,,,,,,,,,,,,,,,,,,,60fce9c29b57db229b7387bf,61036ebb75313f245eb89e4d,2021-07-29_22h15.35.178,Simcolourproject_2stim_asymm_v5,2020.2.10,Win32,60,61025ae37ef11b136ea224fe,,,,,,,,,587,67,95,1,0,0,response1disk,,7,18,11,1,0,0,rectangle,18,11,1,0,0,18,11,1,0,0,0,140,140,59,1,,,,,,,,
,,,,,,,,,,,,,FF,,,,,,,,0.6425,,,,,,,,,,,,,,,,,,,,,,60fce9c29b57db229b7387bf,61036ebb75313f245eb89e4d,2021-07-29_22h15.35.178,Simcolourproject_2stim_asymm_v5,2020.2.10,Win32,60,61025ae37ef11b136ea224fe,,,,,,,,,841,48,91,1,0,0,response1disk,,7,20,16,1,0,0,rectangle,20,16,1,0,0,20,16,1,0,0,0,141,141,92,1,,,,,,,,
,,,,,,,,,,,,,FF,,,,,,,,0.8621,,,,,,,,,,,,,,,,,,,,,,60fce9c29b57db229b7387bf,61036ebb75313f245eb89e4d,2021-07-29_22h15.35.178,Simcolourproject_2stim_asymm_v5,2020.2.10,Win32,60,61025ae37ef11b136ea224fe,,,,,,,,,1445,-86,-34,1,0,0,response5disk,,2,3,11,1,0,0,rectangle,3,11,1,0,0,3,11,1,0,0,0,142,142,55,1,,,,,,,,
,,,,,,,,,,,,,FF,,,,,,,,0.9794,,,,,,,,,,,,,,,,,,,,,,60fce9c29b57db229b7387bf,61036ebb75313f245eb89e4d,2021-07-29_22h15.35.178,Simcolourproject_2stim_asymm_v5,2020.2.10,Win32,60,61025ae37ef11b136ea224fe,,,,,,,,,2848,27,-75,1,0,0,response3disk,,4,-5,-9,1,0,0,rectangle,-5,-9,1,0,0,-5,-9,1,0,0,0,143,143,89,1,,,,,,,,
,,,,,,,,,,,,,FF,,,,,,,,0.5916,,,,,,,,,,,,,,,,,,,,,,60fce9c29b57db229b7387bf,61036ebb75313f245eb89e4d,2021-07-29_22h15.35.178,Simcolourproject_2stim_asymm_v5,2020.2.10,Win32,60,61025ae37ef11b136ea224fe,,,,,,,,,1970,-51,-80,1,0,0,response5disk,,3,-10,8,1,0,0,rectangle,-10,8,1,0,0,-10,8,1,0,0,0,144,144,45,1,,,,,,,,
,,,,,,,,,,,,,FF,,,,,,,,0.6255,,,,,,,,,,,,,,,,,,,,,,60fce9c29b57db229b7387bf,61036ebb75313f245eb89e4d,2021-07-29_22h15.35.178,Simcolourproject_2stim_asymm_v5,2020.2.10,Win32,60,61025ae37ef11b136ea224fe,,,,,,,,,2540,37,111,1,0,0,response1disk,,7,-1,6,1,0,0,rectangle,-1,6,1,0,0,-1,6,1,0,0,0,145,145,43,1,,,,,,,,
,,,,,,,,,,,,,FF,,,,,,,,0.6455,,,,,,,,,,,,,,,,,,,,,,60fce9c29b57db229b7387bf,61036ebb75313f245eb89e4d,2021-07-29_22h15.35.178,Simcolourproject_2stim_asymm_v5,2020.2.10,Win32,60,61025ae37ef11b136ea224fe,,,,,,,,,3049,-37,-75,1,0,0,response5disk,,3,6,1,1,0,0,rectangle,6,1,1,0,0,6,1,1,0,0,0,146,146,90,1,,,,,,,,
,,,,,,,,,,,,,FF,,,,,,,,0.8113,,,,,,,,,,,,,,,,,,,,,,60fce9c29b57db229b7387bf,61036ebb75313f245eb89e4d,2021-07-29_22h15.35.178,Simcolourproject_2stim_asymm_v5,2020.2.10,Win32,60,61025ae37ef11b136ea224fe,,,,,,,,,578,60,95,1,0,0,response1disk,,7,13,2,1,0,0,rectangle,13,2,1,0,0,13,2,1,0,0,0,147,147,138,1,,,,,,,,
,,,,,,,,,,,,,FF,,,,,,,,1.0977,,,,,,,,,,,,,,,,,,,,,,60fce9c29b57db229b7387bf,61036ebb75313f245eb89e4d,2021-07-29_22h15.35.178,Simcolourproject_2stim_asymm_v5,2020.2.10,Win32,60,61025ae37ef11b136ea224fe,,,,,,,,,1201,74,-28,1,0,0,response3disk,,5,1,2,1,0,0,rectangle,1,2,1,0,0,1,2,1,0,0,0,148,148,136,1,,,,,,,,
,,,,,,,,,,,,,FF,,,,,,,,1.1996,,,,,,,,,,,,,,,,,,,,,,60fce9c29b57db229b7387bf,61036ebb75313f245eb89e4d,2021-07-29_22h15.35.178,Simcolourproject_2stim_asymm_v5,2020.2.10,Win32,60,61025ae37ef11b136ea224fe,,,,,,,,,3790,53,-71,1,0,0,response3disk,,4,22,-5,1,0,0,rectangle,22,-5,1,0,0,22,-5,1,0,0,0,149,149,107,1,,,,,,,,
,,,,,,,,,,,,,FF,,,,,,,,1.2833,,,,,,,,,,,,,,,,,,,,,,60fce9c29b57db229b7387bf,61036ebb75313f245eb89e4d,2021-07-29_22h15.35.178,Simcolourproject_2stim_asymm_v5,2020.2.10,Win32,60,61025ae37ef11b136ea224fe,,,,,,,,,706,88,57,1,0,0,response1disk,,6,10,2,1,0,0,rectangle,10,2,1,0,0,10,2,1,0,0,0,150,150,50,1,,,,,,,,
,,,,,,,,,,,,,FF,,,,,,,,0.5919,,,,,,,,,,,,,,,,,,,,,,60fce9c29b57db229b7387bf,61036ebb75313f245eb89e4d,2021-07-29_22h15.35.178,Simcolourproject_2stim_asymm_v5,2020.2.10,Win32,60,61025ae37ef11b136ea224fe,,,,,,,,,839,42,106,1,0,0,response1disk,,7,3,1,1,0,0,rectangle,3,1,1,0,0,3,1,1,0,0,0,151,151,102,1,,,,,,,,
,,,,,,,,,,,,,FF,,,,,,,,1.064,,,,,,,,,,,,,,,,,,,,,,60fce9c29b57db229b7387bf,61036ebb75313f245eb89e4d,2021-07-29_22h15.35.178,Simcolourproject_2stim_asymm_v5,2020.2.10,Win32,60,61025ae37ef11b136ea224fe,,,,,,,,,3329,45,-101,1,0,0,response3disk,,4,-4,-5,1,0,0,rectangle,111,54,1,0,0,11,6,1,0,0,0,152,152,123,1,,response1disk_3,TRUE,6,6,"[46,285,112,113,39,320,136,8,170,306,65,185,92,313,204,153,110,106,180,236]",1.6882,rectangle
,,,,,,,,,,,,,FF,,,,,,,,1.2503,,,,,,,,,,,,,,,,,,,,,,60fce9c29b57db229b7387bf,61036ebb75313f245eb89e4d,2021-07-29_22h15.35.178,Simcolourproject_2stim_asymm_v5,2020.2.10,Win32,60,61025ae37ef11b136ea224fe,,,,,,,,,4256,50,-99,1,0,0,response3disk,,4,5,-5,1,0,0,rectangle,5,-5,1,0,0,5,-5,1,0,0,0,153,153,140,1,,,,,,,,
,,,,,,,,,,,,,FF,,,,,,,,0.5918,,,,,,,,,,,,,,,,,,,,,,60fce9c29b57db229b7387bf,61036ebb75313f245eb89e4d,2021-07-29_22h15.35.178,Simcolourproject_2stim_asymm_v5,2020.2.10,Win32,60,61025ae37ef11b136ea224fe,,,,,,,,,1998,29,85,1,0,0,response1disk,,7,-3,-5,1,0,0,rectangle,-3,-5,1,0,0,-3,-5,1,0,0,0,154,154,74,1,,,,,,,,
,,,,,,,,,,,,,FF,,,,,,,,0.7258,,,,,,,,,,,,,,,,,,,,,,60fce9c29b57db229b7387bf,61036ebb75313f245eb89e4d,2021-07-29_22h15.35.178,Simcolourproject_2stim_asymm_v5,2020.2.10,Win32,60,61025ae37ef11b136ea224fe,,,,,,,,,851,54,86,1,0,0,response1disk,,7,6,9,1,0,0,rectangle,6,9,1,0,0,6,9,1,0,0,0,155,155,151,1,,,,,,,,
,,,,,,,,,,,,,FF,,,,,,,,0.8615,,,,,,,,,,,,,,,,,,,,,,60fce9c29b57db229b7387bf,61036ebb75313f245eb89e4d,2021-07-29_22h15.35.178,Simcolourproject_2stim_asymm_v5,2020.2.10,Win32,60,61025ae37ef11b136ea224fe,,,,,,,,,435,-53,-101,1,0,0,response5disk,,3,4,-4,1,0,0,rectangle,4,-4,1,0,0,4,-4,1,0,0,0,156,156,83,1,,,,,,,,
,,,,,,,,,,,,,FF,,,,,,,,1.0808,,,,,,,,,,,,,,,,,,,,,,60fce9c29b57db229b7387bf,61036ebb75313f245eb89e4d,2021-07-29_22h15.35.178,Simcolourproject_2stim_asymm_v5,2020.2.10,Win32,60,61025ae37ef11b136ea224fe,,,,,,,,,2409,38,87,1,0,0,response1disk,,7,1,-7,1,0,0,rectangle,1,-7,1,0,0,1,-7,1,0,0,0,157,157,32,1,,,,,,,,
,,,,,,,,,,,,,FF,,,,,,,,0.8625,,,,,,,,,,,,,,,,,,,,,,60fce9c29b57db229b7387bf,61036ebb75313f245eb89e4d,2021-07-29_22h15.35.178,Simcolourproject_2stim_asymm_v5,2020.2.10,Win32,60,61025ae37ef11b136ea224fe,,,,,,,,,2713,45,-94,1,0,0,response3disk,,4,-12,-5,1,0,0,rectangle,-12,-5,1,0,0,-12,-5,1,0,0,0,158,158,159,1,,,,,,,,
,,,,,,,,,,,,,FF,,,,,,,,0.7777,,,,,,,,,,,,,,,,,,,,,,60fce9c29b57db229b7387bf,61036ebb75313f245eb89e4d,2021-07-29_22h15.35.178,Simcolourproject_2stim_asymm_v5,2020.2.10,Win32,60,61025ae37ef11b136ea224fe,,,,,,,,,3393,-61,-91,1,0,0,response5disk,,3,-41,-4,1,0,0,rectangle,-41,-4,1,0,0,-41,-4,1,0,0,0,159,159,95,1,,,,,,,,
,,,,,,,,,,,,,FF,,,,,,,,1.0812,,,,,,,,,,,,,,,,,,,,,,60fce9c29b57db229b7387bf,61036ebb75313f245eb89e4d,2021-07-29_22h15.35.178,Simcolourproject_2stim_asymm_v5,2020.2.10,Win32,60,61025ae37ef11b136ea224fe,,,,,,,,,901,-39,-107,1,0,0,response5disk,,3,-3,7,1,0,0,rectangle,-3,7,1,0,0,-3,7,1,0,0,1,0,160,76,1,,,,,,,,
,,,,,,,,,,,,,FF,,,,,,,,0.8949,,,,,,,,,,,,,,,,,,,,,,60fce9c29b57db229b7387bf,61036ebb75313f245eb89e4d,2021-07-29_22h15.35.178,Simcolourproject_2stim_asymm_v5,2020.2.10,Win32,60,61025ae37ef11b136ea224fe,,,,,,,,,3420,-46,-80,1,0,0,response5disk,,3,-3,-6,1,0,0,rectangle,-3,-6,1,0,0,-3,-6,1,0,0,1,1,161,153,1,,,,,,,,
,,,,,,,,,,,,,FF,,,,,,,,0.8789,,,,,,,,,,,,,,,,,,,,,,60fce9c29b57db229b7387bf,61036ebb75313f245eb89e4d,2021-07-29_22h15.35.178,Simcolourproject_2stim_asymm_v5,2020.2.10,Win32,60,61025ae37ef11b136ea224fe,,,,,,,,,1892,-119,-46,1,0,0,response5disk,,2,-18,-2,1,0,0,rectangle,-18,-2,1,0,0,-18,-2,1,0,0,1,2,162,60,1,,,,,,,,
,,,,,,,,,,,,,FF,,,,,,,,0.8271,,,,,,,,,,,,,,,,,,,,,,60fce9c29b57db229b7387bf,61036ebb75313f245eb89e4d,2021-07-29_22h15.35.178,Simcolourproject_2stim_asymm_v5,2020.2.10,Win32,60,61025ae37ef11b136ea224fe,,,,,,,,,1156,74,67,1,0,0,response1disk,,6,21,2,1,0,0,rectangle,21,2,1,0,0,21,2,1,0,0,1,3,163,110,1,,,,,,,,
,,,,,,,,,,,,,FF,,,,,,,,1.0136,,,,,,,,,,,,,,,,,,,,,,60fce9c29b57db229b7387bf,61036ebb75313f245eb89e4d,2021-07-29_22h15.35.178,Simcolourproject_2stim_asymm_v5,2020.2.10,Win32,60,61025ae37ef11b136ea224fe,,,,,,,,,3037,-56,-93,1,0,0,response5disk,,3,-11,7,1,0,0,rectangle,-11,7,1,0,0,-11,7,1,0,0,1,4,164,131,1,,,,,,,,
,,,,,,,,,,,,,FF,,,,,,,,0.6872,,,,,,,,,,,,,,,,,,,,,,60fce9c29b57db229b7387bf,61036ebb75313f245eb89e4d,2021-07-29_22h15.35.178,Simcolourproject_2stim_asymm_v5,2020.2.10,Win32,60,61025ae37ef11b136ea224fe,,,,,,,,,649,68,118,1,0,0,response1disk,,7,14,-8,1,0,0,rectangle,14,-8,1,0,0,14,-8,1,0,0,1,5,165,99,1,,,,,,,,
,,,,,,,,,,,,,FF,,,,,,,,0.9744,,,,,,,,,,,,,,,,,,,,,,60fce9c29b57db229b7387bf,61036ebb75313f245eb89e4d,2021-07-29_22h15.35.178,Simcolourproject_2stim_asymm_v5,2020.2.10,Win32,60,61025ae37ef11b136ea224fe,,,,,,,,,733,103,46,1,0,0,response1disk,,6,36,-1,1,0,0,rectangle,36,-1,1,0,0,36,-1,1,0,0,1,6,166,20,1,,,,,,,,
,,,,,,,,,,,,,FF,,,,,,,,0.7433,,,,,,,,,,,,,,,,,,,,,,60fce9c29b57db229b7387bf,61036ebb75313f245eb89e4d,2021-07-29_22h15.35.178,Simcolourproject_2stim_asymm_v5,2020.2.10,Win32,60,61025ae37ef11b136ea224fe,,,,,,,,,3237,-37,-87,1,0,0,response5disk,,3,-4,3,1,0,0,rectangle,-4,3,1,0,0,-4,3,1,0,0,1,7,167,144,1,,,,,,,,
,,,,,,,,,,,,,FF,,,,,,,,0.9115,,,,,,,,,,,,,,,,,,,,,,60fce9c29b57db229b7387bf,61036ebb75313f245eb89e4d,2021-07-29_22h15.35.178,Simcolourproject_2stim_asymm_v5,2020.2.10,Win32,60,61025ae37ef11b136ea224fe,,,,,,,,,982,84,54,1,0,0,response1disk,,6,23,6,1,0,0,rectangle,23,6,1,0,0,23,6,1,0,0,1,8,168,72,1,,,,,,,,
,,,,,,,,,,,,,FF,,,,,,,,0.6589,,,,,,,,,,,,,,,,,,,,,,60fce9c29b57db229b7387bf,61036ebb75313f245eb89e4d,2021-07-29_22h15.35.178,Simcolourproject_2stim_asymm_v5,2020.2.10,Win32,60,61025ae37ef11b136ea224fe,,,,,,,,,1739,74,80,1,0,0,response1disk,,7,32,4,1,0,0,rectangle,99,-47,1,0,0,17,2,1,0,0,1,9,169,41,1,,response3disk_3,TRUE,5,5,"[46,285,112,113,39,320,136,8,170,306,65,185,92,313,204,153,110,106,180,236]",1.268,rectangle
,,,,,,,,,,,,,FF,,,,,,,,0.9631,,,,,,,,,,,,,,,,,,,,,,60fce9c29b57db229b7387bf,61036ebb75313f245eb89e4d,2021-07-29_22h15.35.178,Simcolourproject_2stim_asymm_v5,2020.2.10,Win32,60,61025ae37ef11b136ea224fe,,,,,,,,,411,70,102,1,0,0,response1disk,,7,0,11,1,0,0,rectangle,0,11,1,0,0,0,11,1,0,0,1,10,170,12,1,,,,,,,,
,,,,,,,,,,,,,FF,,,,,,,,0.6424,,,,,,,,,,,,,,,,,,,,,,60fce9c29b57db229b7387bf,61036ebb75313f245eb89e4d,2021-07-29_22h15.35.178,Simcolourproject_2stim_asymm_v5,2020.2.10,Win32,60,61025ae37ef11b136ea224fe,,,,,,,,,2635,34,74,1,0,0,response1disk,,7,-18,-8,1,0,0,rectangle,-18,-8,1,0,0,-18,-8,1,0,0,1,11,171,149,1,,,,,,,,
,,,,,,,,,,,,,FF,,,,,,,,0.9293,,,,,,,,,,,,,,,,,,,,,,60fce9c29b57db229b7387bf,61036ebb75313f245eb89e4d,2021-07-29_22h15.35.178,Simcolourproject_2stim_asymm_v5,2020.2.10,Win32,60,61025ae37ef11b136ea224fe,,,,,,,,,3198,-55,-79,1,0,0,response5disk,,3,1,-4,1,0,0,rectangle,1,-4,1,0,0,1,-4,1,0,0,1,12,172,3,1,,,,,,,,
,,,,,,,,,,,,,FF,,,,,,,,1.0132,,,,,,,,,,,,,,,,,,,,,,60fce9c29b57db229b7387bf,61036ebb75313f245eb89e4d,2021-07-29_22h15.35.178,Simcolourproject_2stim_asymm_v5,2020.2.10,Win32,60,61025ae37ef11b136ea224fe,,,,,,,,,4093,57,91,1,0,0,response1disk,,7,29,0,1,0,0,rectangle,29,0,1,0,0,29,0,1,0,0,1,13,173,11,1,,,,,,,,
,,,,,,,,,,,,,FF,,,,,,,,0.7437,,,,,,,,,,,,,,,,,,,,,,60fce9c29b57db229b7387bf,61036ebb75313f245eb89e4d,2021-07-29_22h15.35.178,Simcolourproject_2stim_asymm_v5,2020.2.10,Win32,60,61025ae37ef11b136ea224fe,,,,,,,,,1926,41,87,1,0,0,response1disk,,7,23,-5,1,0,0,rectangle,23,-5,1,0,0,23,-5,1,0,0,1,14,174,74,1,,,,,,,,
,,,,,,,,,,,,,FF,,,,,,,,0.6586,,,,,,,,,,,,,,,,,,,,,,60fce9c29b57db229b7387bf,61036ebb75313f245eb89e4d,2021-07-29_22h15.35.178,Simcolourproject_2stim_asymm_v5,2020.2.10,Win32,60,61025ae37ef11b136ea224fe,,,,,,,,,211,31,95,1,0,0,response1disk,,7,9,14,1,0,0,rectangle,9,14,1,0,0,9,14,1,0,0,1,15,175,141,1,,,,,,,,
,,,,,,,,,,,,,FF,,,,,,,,0.7255,,,,,,,,,,,,,,,,,,,,,,60fce9c29b57db229b7387bf,61036ebb75313f245eb89e4d,2021-07-29_22h15.35.178,Simcolourproject_2stim_asymm_v5,2020.2.10,Win32,60,61025ae37ef11b136ea224fe,,,,,,,,,4085,85,-35,1,0,0,response3disk,,5,21,7,1,0,0,rectangle,21,7,1,0,0,21,7,1,0,0,1,16,176,9,1,,,,,,,,
,,,,,,,,,,,,,FF,,,,,,,,0.6251,,,,,,,,,,,,,,,,,,,,,,60fce9c29b57db229b7387bf,61036ebb75313f245eb89e4d,2021-07-29_22h15.35.178,Simcolourproject_2stim_asymm_v5,2020.2.10,Win32,60,61025ae37ef11b136ea224fe,,,,,,,,,1482,35,100,1,0,0,response1disk,,7,-11,11,1,0,0,rectangle,-11,11,1,0,0,-11,11,1,0,0,1,17,177,31,1,,,,,,,,
,,,,,,,,,,,,,FF,,,,,,,,0.641,,,,,,,,,,,,,,,,,,,,,,60fce9c29b57db229b7387bf,61036ebb75313f245eb89e4d,2021-07-29_22h15.35.178,Simcolourproject_2stim_asymm_v5,2020.2.10,Win32,60,61025ae37ef11b136ea224fe,,,,,,,,,1803,40,109,1,0,0,response1disk,,7,8,6,1,0,0,rectangle,8,6,1,0,0,8,6,1,0,0,1,18,178,114,1,,,,,,,,
,,,,,,,,,,,,,FF,,,,,,,,1.0141,,,,,,,,,,,,,,,,,,,,,,60fce9c29b57db229b7387bf,61036ebb75313f245eb89e4d,2021-07-29_22h15.35.178,Simcolourproject_2stim_asymm_v5,2020.2.10,Win32,60,61025ae37ef11b136ea224fe,,,,,,,,,182,35,87,1,0,0,response1disk,,7,30,-4,1,0,0,rectangle,46,-93,1,0,0,9,5,1,0,0,1,19,179,91,1,,response3disk_3,TRUE,4,4,"[46,285,112,113,39,320,136,8,170,306,65,185,92,313,204,153,110,106,180,236]",1.4858,rectangle
,,,,,,,,,,,,,FF,,,,,,,,0.8613,,,,,,,,,,,,,,,,,,,,,,60fce9c29b57db229b7387bf,61036ebb75313f245eb89e4d,2021-07-29_22h15.35.178,Simcolourproject_2stim_asymm_v5,2020.2.10,Win32,60,61025ae37ef11b136ea224fe,,,,,,,,,3816,-46,-75,1,0,0,response5disk,,3,-17,2,1,0,0,rectangle,-17,2,1,0,0,-17,2,1,0,0,1,20,180,133,1,,,,,,,,
,,,,,,,,,,,,,FF,,,,,,,,0.608,,,,,,,,,,,,,,,,,,,,,,60fce9c29b57db229b7387bf,61036ebb75313f245eb89e4d,2021-07-29_22h15.35.178,Simcolourproject_2stim_asymm_v5,2020.2.10,Win32,60,61025ae37ef11b136ea224fe,,,,,,,,,2003,45,110,1,0,0,response1disk,,7,-5,-4,1,0,0,rectangle,-5,-4,1,0,0,-5,-4,1,0,0,1,21,181,139,1,,,,,,,,
,,,,,,,,,,,,,FF,,,,,,,,0.7938,,,,,,,,,,,,,,,,,,,,,,60fce9c29b57db229b7387bf,61036ebb75313f245eb89e4d,2021-07-29_22h15.35.178,Simcolourproject_2stim_asymm_v5,2020.2.10,Win32,60,61025ae37ef11b136ea224fe,,,,,,,,,744,39,97,1,0,0,response1disk,,7,7,4,1,0,0,rectangle,7,4,1,0,0,7,4,1,0,0,1,22,182,115,1,,,,,,,,
,,,,,,,,,,,,,FF,,,,,,,,0.7084,,,,,,,,,,,,,,,,,,,,,,60fce9c29b57db229b7387bf,61036ebb75313f245eb89e4d,2021-07-29_22h15.35.178,Simcolourproject_2stim_asymm_v5,2020.2.10,Win32,60,61025ae37ef11b136ea224fe,,,,,,,,,3529,44,87,1,0,0,response1disk,,7,-2,4,1,0,0,rectangle,-2,4,1,0,0,-2,4,1,0,0,1,23,183,32,1,,,,,,,,
,,,,,,,,,,,,,FF,,,,,,,,0.7607,,,,,,,,,,,,,,,,,,,,,,60fce9c29b57db229b7387bf,61036ebb75313f245eb89e4d,2021-07-29_22h15.35.178,Simcolourproject_2stim_asymm_v5,2020.2.10,Win32,60,61025ae37ef11b136ea224fe,,,,,,,,,3047,-124,-48,1,0,0,response5disk,,2,-23,2,1,0,0,rectangle,81,112,1,0,0,20,9,1,0,0,1,24,184,128,1,,response1disk_3,TRUE,7,7,"[46,285,112,113,39,320,136,8,170,306,65,185,92,313,204,153,110,106,180,236]",1.7393,rectangle
,,,,,,,,,,,,,FF,,,,,,,,0.9304,,,,,,,,,,,,,,,,,,,,,,60fce9c29b57db229b7387bf,61036ebb75313f245eb89e4d,2021-07-29_22h15.35.178,Simcolourproject_2stim_asymm_v5,2020.2.10,Win32,60,61025ae37ef11b136ea224fe,,,,,,,,,166,49,-80,1,0,0,response3disk,,4,9,0,1,0,0,rectangle,9,0,1,0,0,9,0,1,0,0,1,25,185,25,1,,,,,,,,
,,,,,,,,,,,,,FF,,,,,,,,1.0807,,,,,,,,,,,,,,,,,,,,,,60fce9c29b57db229b7387bf,61036ebb75313f245eb89e4d,2021-07-29_22h15.35.178,Simcolourproject_2stim_asymm_v5,2020.2.10,Win32,60,61025ae37ef11b136ea224fe,,,,,,,,,1141,60,56,1,0,0,response1disk,,6,15,13,1,0,0,rectangle,15,13,1,0,0,15,13,1,0,0,1,26,186,156,1,,,,,,,,
,,,,,,,,,,,,,FF,,,,,,,,0.8112,,,,,,,,,,,,,,,,,,,,,,60fce9c29b57db229b7387bf,61036ebb75313f245eb89e4d,2021-07-29_22h15.35.178,Simcolourproject_2stim_asymm_v5,2020.2.10,Win32,60,61025ae37ef11b136ea224fe,,,,,,,,,2907,35,125,1,0,0,response1disk,,7,17,14,1,0,0,rectangle,17,14,1,0,0,17,14,1,0,0,1,27,187,132,1,,,,,,,,
,,,,,,,,,,,,,FF,,,,,,,,1.4696,,,,,,,,,,,,,,,,,,,,,,60fce9c29b57db229b7387bf,61036ebb75313f245eb89e4d,2021-07-29_22h15.35.178,Simcolourproject_2stim_asymm_v5,2020.2.10,Win32,60,61025ae37ef11b136ea224fe,,,,,,,,,3682,72,-55,1,0,0,response3disk,,5,-22,8,1,0,0,rectangle,-22,8,1,0,0,-22,8,1,0,0,1,28,188,53,1,,,,,,,,
,,,,,,,,,,,,,FF,,,,,,,,1.1702,,,,,,,,,,,,,,,,,,,,,,60fce9c29b57db229b7387bf,61036ebb75313f245eb89e4d,2021-07-29_22h15.35.178,Simcolourproject_2stim_asymm_v5,2020.2.10,Win32,60,61025ae37ef11b136ea224fe,,,,,,,,,2613,-55,-92,1,0,0,response5disk,,3,-24,-3,1,0,0,rectangle,-24,-3,1,0,0,-24,-3,1,0,0,1,29,189,96,1,,,,,,,,
,,,,,,,,,,,,,FF,,,,,,,,0.6929,,,,,,,,,,,,,,,,,,,,,,60fce9c29b57db229b7387bf,61036ebb75313f245eb89e4d,2021-07-29_22h15.35.178,Simcolourproject_2stim_asymm_v5,2020.2.10,Win32,60,61025ae37ef11b136ea224fe,,,,,,,,,2517,50,97,1,0,0,response1disk,,7,-7,4,1,0,0,rectangle,-7,4,1,0,0,-7,4,1,0,0,1,30,190,129,1,,,,,,,,
,,,,,,,,,,,,,FF,,,,,,,,0.744,,,,,,,,,,,,,,,,,,,,,,60fce9c29b57db229b7387bf,61036ebb75313f245eb89e4d,2021-07-29_22h15.35.178,Simcolourproject_2stim_asymm_v5,2020.2.10,Win32,60,61025ae37ef11b136ea224fe,,,,,,,,,1386,29,95,1,0,0,response1disk,,7,-7,0,1,0,0,rectangle,-7,0,1,0,0,-7,0,1,0,0,1,31,191,51,1,,,,,,,,
,,,,,,,,,,,,,FF,,,,,,,,0.6422,,,,,,,,,,,,,,,,,,,,,,60fce9c29b57db229b7387bf,61036ebb75313f245eb89e4d,2021-07-29_22h15.35.178,Simcolourproject_2stim_asymm_v5,2020.2.10,Win32,60,61025ae37ef11b136ea224fe,,,,,,,,,3335,33,84,1,0,0,response1disk,,7,-8,2,1,0,0,rectangle,-8,2,1,0,0,-8,2,1,0,0,1,32,192,146,1,,,,,,,,
,,,,,,,,,,,,,FF,,,,,,,,1.0986,,,,,,,,,,,,,,,,,,,,,,60fce9c29b57db229b7387bf,61036ebb75313f245eb89e4d,2021-07-29_22h15.35.178,Simcolourproject_2stim_asymm_v5,2020.2.10,Win32,60,61025ae37ef11b136ea224fe,,,,,,,,,2289,43,-76,1,0,0,response3disk,,4,5,-1,1,0,0,rectangle,5,-1,1,0,0,5,-1,1,0,0,1,33,193,126,1,,,,,,,,
,,,,,,,,,,,,,FF,,,,,,,,0.6426,,,,,,,,,,,,,,,,,,,,,,60fce9c29b57db229b7387bf,61036ebb75313f245eb89e4d,2021-07-29_22h15.35.178,Simcolourproject_2stim_asymm_v5,2020.2.10,Win32,60,61025ae37ef11b136ea224fe,,,,,,,,,2716,43,-84,1,0,0,response3disk,,4,10,-7,1,0,0,rectangle,10,-7,1,0,0,10,-7,1,0,0,1,34,194,98,1,,,,,,,,
,,,,,,,,,,,,,FF,,,,,,,,1.4537,,,,,,,,,,,,,,,,,,,,,,60fce9c29b57db229b7387bf,61036ebb75313f245eb89e4d,2021-07-29_22h15.35.178,Simcolourproject_2stim_asymm_v5,2020.2.10,Win32,60,61025ae37ef11b136ea224fe,,,,,,,,,3947,58,-36,1,0,0,response3disk,,5,9,3,1,0,0,rectangle,9,3,1,0,0,9,3,1,0,0,1,35,195,66,1,,,,,,,,
,,,,,,,,,,,,,FF,,,,,,,,0.9969,,,,,,,,,,,,,,,,,,,,,,60fce9c29b57db229b7387bf,61036ebb75313f245eb89e4d,2021-07-29_22h15.35.178,Simcolourproject_2stim_asymm_v5,2020.2.10,Win32,60,61025ae37ef11b136ea224fe,,,,,,,,,4056,67,-30,1,0,0,response3disk,,5,10,10,1,0,0,rectangle,10,10,1,0,0,10,10,1,0,0,1,36,196,21,1,,,,,,,,
,,,,,,,,,,,,,FF,,,,,,,,1.5204,,,,,,,,,,,,,,,,,,,,,,60fce9c29b57db229b7387bf,61036ebb75313f245eb89e4d,2021-07-29_22h15.35.178,Simcolourproject_2stim_asymm_v5,2020.2.10,Win32,60,61025ae37ef11b136ea224fe,,,,,,,,,2654,70,-35,1,0,0,response3disk,,5,-3,12,1,0,0,rectangle,-3,12,1,0,0,-3,12,1,0,0,1,37,197,78,1,,,,,,,,
,,,,,,,,,,,,,FF,,,,,,,,1.4363,,,,,,,,,,,,,,,,,,,,,,60fce9c29b57db229b7387bf,61036ebb75313f245eb89e4d,2021-07-29_22h15.35.178,Simcolourproject_2stim_asymm_v5,2020.2.10,Win32,60,61025ae37ef11b136ea224fe,,,,,,,,,1371,41,-84,1,0,0,response3disk,,4,-3,-9,1,0,0,rectangle,-3,-9,1,0,0,-3,-9,1,0,0,1,38,198,84,1,,,,,,,,
,,,,,,,,,,,,,FF,,,,,,,,1.1316,,,,,,,,,,,,,,,,,,,,,,60fce9c29b57db229b7387bf,61036ebb75313f245eb89e4d,2021-07-29_22h15.35.178,Simcolourproject_2stim_asymm_v5,2020.2.10,Win32,60,61025ae37ef11b136ea224fe,,,,,,,,,958,85,-36,1,0,0,response3disk,,5,23,-4,1,0,0,rectangle,23,-4,1,0,0,23,-4,1,0,0,1,39,199,8,1,,,,,,,,
,,,,,,,,,,,,,FF,,,,,,,,0.7438,,,,,,,,,,,,,,,,,,,,,,60fce9c29b57db229b7387bf,61036ebb75313f245eb89e4d,2021-07-29_22h15.35.178,Simcolourproject_2stim_asymm_v5,2020.2.10,Win32,60,61025ae37ef11b136ea224fe,,,,,,,,,1100,44,122,1,0,0,response1disk,,7,7,-11,1,0,0,rectangle,7,-11,1,0,0,7,-11,1,0,0,1,40,200,103,1,,,,,,,,
,,,,,,,,,,,,,FF,,,,,,,,0.7944,,,,,,,,,,,,,,,,,,,,,,60fce9c29b57db229b7387bf,61036ebb75313f245eb89e4d,2021-07-29_22h15.35.178,Simcolourproject_2stim_asymm_v5,2020.2.10,Win32,60,61025ae37ef11b136ea224fe,,,,,,,,,3218,40,97,1,0,0,response1disk,,7,3,5,1,0,0,rectangle,3,5,1,0,0,3,5,1,0,0,1,41,201,52,1,,,,,,,,
,,,,,,,,,,,,,FF,,,,,,,,1.1482,,,,,,,,,,,,,,,,,,,,,,60fce9c29b57db229b7387bf,61036ebb75313f245eb89e4d,2021-07-29_22h15.35.178,Simcolourproject_2stim_asymm_v5,2020.2.10,Win32,60,61025ae37ef11b136ea224fe,,,,,,,,,3865,49,83,1,0,0,response1disk,,7,6,-2,1,0,0,rectangle,6,-2,1,0,0,6,-2,1,0,0,1,42,202,27,1,,,,,,,,
,,,,,,,,,,,,,FF,,,,,,,,1.5885,,,,,,,,,,,,,,,,,,,,,,60fce9c29b57db229b7387bf,61036ebb75313f245eb89e4d,2021-07-29_22h15.35.178,Simcolourproject_2stim_asymm_v5,2020.2.10,Win32,60,61025ae37ef11b136ea224fe,,,,,,,,,1639,90,46,1,0,0,response1disk,,6,-6,10,1,0,0,rectangle,36,-83,1,0,0,-6,1,1,0,0,1,43,203,157,1,,response3disk_3,TRUE,4,4,"[46,285,112,113,39,320,136,8,170,306,65,185,92,313,204,153,110,106,180,236]",1.3684,rectangle
,,,,,,,,,,,,,FF,,,,,,,,1.0981,,,,,,,,,,,,,,,,,,,,,,60fce9c29b57db229b7387bf,61036ebb75313f245eb89e4d,2021-07-29_22h15.35.178,Simcolourproject_2stim_asymm_v5,2020.2.10,Win32,60,61025ae37ef11b136ea224fe,,,,,,,,,3806,42,83,1,0,0,response1disk,,7,12,-1,1,0,0,rectangle,12,-1,1,0,0,12,-1,1,0,0,1,44,204,0,1,,,,,,,,
,,,,,,,,,,,,,FF,,,,,,,,1.2161,,,,,,,,,,,,,,,,,,,,,,60fce9c29b57db229b7387bf,61036ebb75313f245eb89e4d,2021-07-29_22h15.35.178,Simcolourproject_2stim_asymm_v5,2020.2.10,Win32,60,61025ae37ef11b136ea224fe,,,,,,,,,4049,44,-93,1,0,0,response3disk,,4,-25,-11,1,0,0,rectangle,-25,-11,1,0,0,-25,-11,1,0,0,1,45,205,159,1,,,,,,,,
,,,,,,,,,,,,,FF,,,,,,,,0.6423,,,,,,,,,,,,,,,,,,,,,,60fce9c29b57db229b7387bf,61036ebb75313f245eb89e4d,2021-07-29_22h15.35.178,Simcolourproject_2stim_asymm_v5,2020.2.10,Win32,60,61025ae37ef11b136ea224fe,,,,,,,,,1794,28,113,1,0,0,response1disk,,7,-5,7,1,0,0,rectangle,-5,7,1,0,0,-5,7,1,0,0,1,46,206,16,1,,,,,,,,
,,,,,,,,,,,,,FF,,,,,,,,0.6079,,,,,,,,,,,,,,,,,,,,,,60fce9c29b57db229b7387bf,61036ebb75313f245eb89e4d,2021-07-29_22h15.35.178,Simcolourproject_2stim_asymm_v5,2020.2.10,Win32,60,61025ae37ef11b136ea224fe,,,,,,,,,3052,-49,-89,1,0,0,response5disk,,3,-13,4,1,0,0,rectangle,-13,4,1,0,0,-13,4,1,0,0,1,47,207,152,1,,,,,,,,
,,,,,,,,,,,,,FF,,,,,,,,0.8836,,,,,,,,,,,,,,,,,,,,,,60fce9c29b57db229b7387bf,61036ebb75313f245eb89e4d,2021-07-29_22h15.35.178,Simcolourproject_2stim_asymm_v5,2020.2.10,Win32,60,61025ae37ef11b136ea224fe,,,,,,,,,1344,45,100,1,0,0,response1disk,,7,-13,4,1,0,0,rectangle,-13,4,1,0,0,-13,4,1,0,0,1,48,208,121,1,,,,,,,,
,,,,,,,,,,,,,FF,,,,,,,,1.352,,,,,,,,,,,,,,,,,,,,,,60fce9c29b57db229b7387bf,61036ebb75313f245eb89e4d,2021-07-29_22h15.35.178,Simcolourproject_2stim_asymm_v5,2020.2.10,Win32,60,61025ae37ef11b136ea224fe,,,,,,,,,1763,38,101,1,0,0,response1disk,,7,6,13,1,0,0,rectangle,6,13,1,0,0,6,13,1,0,0,1,49,209,62,1,,,,,,,,
,,,,,,,,,,,,,FF,,,,,,,,0.6417,,,,,,,,,,,,,,,,,,,,,,60fce9c29b57db229b7387bf,61036ebb75313f245eb89e4d,2021-07-29_22h15.35.178,Simcolourproject_2stim_asymm_v5,2020.2.10,Win32,60,61025ae37ef11b136ea224fe,,,,,,,,,1853,45,101,1,0,0,response1disk,,7,-1,9,1,0,0,rectangle,-1,9,1,0,0,-1,9,1,0,0,1,50,210,86,1,,,,,,,,
,,,,,,,,,,,,,FF,,,,,,,,0.7769,,,,,,,,,,,,,,,,,,,,,,60fce9c29b57db229b7387bf,61036ebb75313f245eb89e4d,2021-07-29_22h15.35.178,Simcolourproject_2stim_asymm_v5,2020.2.10,Win32,60,61025ae37ef11b136ea224fe,,,,,,,,,1291,-39,-82,1,0,0,response5disk,,3,-2,1,1,0,0,rectangle,-2,1,1,0,0,-2,1,1,0,0,1,51,211,140,1,,,,,,,,
,,,,,,,,,,,,,FF,,,,,,,,0.7945,,,,,,,,,,,,,,,,,,,,,,60fce9c29b57db229b7387bf,61036ebb75313f245eb89e4d,2021-07-29_22h15.35.178,Simcolourproject_2stim_asymm_v5,2020.2.10,Win32,60,61025ae37ef11b136ea224fe,,,,,,,,,3427,-91,-62,1,0,0,response5disk,,2,-17,-12,1,0,0,rectangle,-17,-12,1,0,0,-17,-12,1,0,0,1,52,212,17,1,,,,,,,,
,,,,,,,,,,,,,FF,,,,,,,,1.2664,,,,,,,,,,,,,,,,,,,,,,60fce9c29b57db229b7387bf,61036ebb75313f245eb89e4d,2021-07-29_22h15.35.178,Simcolourproject_2stim_asymm_v5,2020.2.10,Win32,60,61025ae37ef11b136ea224fe,,,,,,,,,3600,83,-55,1,0,0,response3disk,,5,-14,2,1,0,0,rectangle,-14,2,1,0,0,-14,2,1,0,0,1,53,213,124,1,,,,,,,,
,,,,,,,,,,,,,FF,,,,,,,,0.8113,,,,,,,,,,,,,,,,,,,,,,60fce9c29b57db229b7387bf,61036ebb75313f245eb89e4d,2021-07-29_22h15.35.178,Simcolourproject_2stim_asymm_v5,2020.2.10,Win32,60,61025ae37ef11b136ea224fe,,,,,,,,,3222,35,98,1,0,0,response1disk,,7,-19,7,1,0,0,rectangle,-19,7,1,0,0,-19,7,1,0,0,1,54,214,65,1,,,,,,,,
,,,,,,,,,,,,,FF,,,,,,,,1.081,,,,,,,,,,,,,,,,,,,,,,60fce9c29b57db229b7387bf,61036ebb75313f245eb89e4d,2021-07-29_22h15.35.178,Simcolourproject_2stim_asymm_v5,2020.2.10,Win32,60,61025ae37ef11b136ea224fe,,,,,,,,,3595,23,-88,1,0,0,response3disk,,4,-24,-12,1,0,0,rectangle,-24,-12,1,0,0,-24,-12,1,0,0,1,55,215,97,1,,,,,,,,
,,,,,,,,,,,,,FF,,,,,,,,1.4362,,,,,,,,,,,,,,,,,,,,,,60fce9c29b57db229b7387bf,61036ebb75313f245eb89e4d,2021-07-29_22h15.35.178,Simcolourproject_2stim_asymm_v5,2020.2.10,Win32,60,61025ae37ef11b136ea224fe,,,,,,,,,2491,88,54,1,0,0,response1disk,,6,30,8,1,0,0,rectangle,30,8,1,0,0,30,8,1,0,0,1,56,216,44,1,,,,,,,,
,,,,,,,,,,,,,FF,,,,,,,,1.0987,,,,,,,,,,,,,,,,,,,,,,60fce9c29b57db229b7387bf,61036ebb75313f245eb89e4d,2021-07-29_22h15.35.178,Simcolourproject_2stim_asymm_v5,2020.2.10,Win32,60,61025ae37ef11b136ea224fe,,,,,,,,,1683,-75,-26,1,0,0,response5disk,,2,6,-9,1,0,0,rectangle,6,-9,1,0,0,6,-9,1,0,0,1,57,217,67,1,,,,,,,,
,,,,,,,,,,,,,FF,,,,,,,,0.7613,,,,,,,,,,,,,,,,,,,,,,60fce9c29b57db229b7387bf,61036ebb75313f245eb89e4d,2021-07-29_22h15.35.178,Simcolourproject_2stim_asymm_v5,2020.2.10,Win32,60,61025ae37ef11b136ea224fe,,,,,,,,,2786,-74,-49,1,0,0,response5disk,,2,2,2,1,0,0,rectangle,2,2,1,0,0,2,2,1,0,0,1,58,218,107,1,,,,,,,,
,,,,,,,,,,,,,FF,,,,,,,,0.6081,,,,,,,,,,,,,,,,,,,,,,60fce9c29b57db229b7387bf,61036ebb75313f245eb89e4d,2021-07-29_22h15.35.178,Simcolourproject_2stim_asymm_v5,2020.2.10,Win32,60,61025ae37ef11b136ea224fe,,,,,,,,,4161,-71,51,1,0,0,response7disk,,1,8,5,1,0,0,rectangle,8,5,1,0,0,8,5,1,0,0,1,59,219,106,1,,,,,,,,
,,,,,,,,,,,,,FF,,,,,,,,0.9464,,,,,,,,,,,,,,,,,,,,,,60fce9c29b57db229b7387bf,61036ebb75313f245eb89e4d,2021-07-29_22h15.35.178,Simcolourproject_2stim_asymm_v5,2020.2.10,Win32,60,61025ae37ef11b136ea224fe,,,,,,,,,126,56,106,1,0,0,response1disk,,7,22,-4,1,0,0,rectangle,22,-4,1,0,0,22,-4,1,0,0,1,60,220,7,1,,,,,,,,
,,,,,,,,,,,,,FF,,,,,,,,0.7768,,,,,,,,,,,,,,,,,,,,,,60fce9c29b57db229b7387bf,61036ebb75313f245eb89e4d,2021-07-29_22h15.35.178,Simcolourproject_2stim_asymm_v5,2020.2.10,Win32,60,61025ae37ef11b136ea224fe,,,,,,,,,4163,-47,-106,1,0,0,response5disk,,3,9,-10,1,0,0,rectangle,9,-10,1,0,0,9,-10,1,0,0,1,61,221,137,1,,,,,,,,
,,,,,,,,,,,,,FF,,,,,,,,0.6759,,,,,,,,,,,,,,,,,,,,,,60fce9c29b57db229b7387bf,61036ebb75313f245eb89e4d,2021-07-29_22h15.35.178,Simcolourproject_2stim_asymm_v5,2020.2.10,Win32,60,61025ae37ef11b136ea224fe,,,,,,,,,3412,64,94,1,0,0,response1disk,,7,28,-10,1,0,0,rectangle,28,-10,1,0,0,28,-10,1,0,0,1,62,222,81,1,,,,,,,,
,,,,,,,,,,,,,FF,,,,,,,,0.8448,,,,,,,,,,,,,,,,,,,,,,60fce9c29b57db229b7387bf,61036ebb75313f245eb89e4d,2021-07-29_22h15.35.178,Simcolourproject_2stim_asymm_v5,2020.2.10,Win32,60,61025ae37ef11b136ea224fe,,,,,,,,,3534,70,119,1,0,0,response1disk,,7,3,6,1,0,0,rectangle,3,6,1,0,0,3,6,1,0,0,1,63,223,158,1,,,,,,,,
,,,,,,,,,,,,,FF,,,,,,,,0.9118,,,,,,,,,,,,,,,,,,,,,,60fce9c29b57db229b7387bf,61036ebb75313f245eb89e4d,2021-07-29_22h15.35.178,Simcolourproject_2stim_asymm_v5,2020.2.10,Win32,60,61025ae37ef11b136ea224fe,,,,,,,,,2495,104,-39,1,0,0,response3disk,,5,20,-13,1,0,0,rectangle,20,-13,1,0,0,20,-13,1,0,0,1,64,224,113,1,,,,,,,,
,,,,,,,,,,,,,FF,,,,,,,,0.6939,,,,,,,,,,,,,,,,,,,,,,60fce9c29b57db229b7387bf,61036ebb75313f245eb89e4d,2021-07-29_22h15.35.178,Simcolourproject_2stim_asymm_v5,2020.2.10,Win32,60,61025ae37ef11b136ea224fe,,,,,,,,,1074,71,104,1,0,0,response1disk,,7,13,6,1,0,0,rectangle,13,6,1,0,0,13,6,1,0,0,1,65,225,49,1,,,,,,,,
,,,,,,,,,,,,,FF,,,,,,,,1.5044,,,,,,,,,,,,,,,,,,,,,,60fce9c29b57db229b7387bf,61036ebb75313f245eb89e4d,2021-07-29_22h15.35.178,Simcolourproject_2stim_asymm_v5,2020.2.10,Win32,60,61025ae37ef11b136ea224fe,,,,,,,,,3075,59,80,1,0,0,response1disk,,7,-2,-4,1,0,0,rectangle,-2,-4,1,0,0,-2,-4,1,0,0,1,66,226,112,1,,,,,,,,
,,,,,,,,,,,,,FF,,,,,,,,0.8613,,,,,,,,,,,,,,,,,,,,,,60fce9c29b57db229b7387bf,61036ebb75313f245eb89e4d,2021-07-29_22h15.35.178,Simcolourproject_2stim_asymm_v5,2020.2.10,Win32,60,61025ae37ef11b136ea224fe,,,,,,,,,2196,40,110,1,0,0,response1disk,,7,0,7,1,0,0,rectangle,0,7,1,0,0,0,7,1,0,0,1,67,227,4,1,,,,,,,,
,,,,,,,,,,,,,FF,,,,,,,,0.7423,,,,,,,,,,,,,,,,,,,,,,60fce9c29b57db229b7387bf,61036ebb75313f245eb89e4d,2021-07-29_22h15.35.178,Simcolourproject_2stim_asymm_v5,2020.2.10,Win32,60,61025ae37ef11b136ea224fe,,,,,,,,,4188,87,-40,1,0,0,response3disk,,5,21,-6,1,0,0,rectangle,21,-6,1,0,0,21,-6,1,0,0,1,68,228,29,1,,,,,,,,
,,,,,,,,,,,,,FF,,,,,,,,0.8455,,,,,,,,,,,,,,,,,,,,,,60fce9c29b57db229b7387bf,61036ebb75313f245eb89e4d,2021-07-29_22h15.35.178,Simcolourproject_2stim_asymm_v5,2020.2.10,Win32,60,61025ae37ef11b136ea224fe,,,,,,,,,1615,34,-91,1,0,0,response3disk,,4,-9,7,1,0,0,rectangle,-9,7,1,0,0,-9,7,1,0,0,1,69,229,30,1,,,,,,,,
,,,,,,,,,,,,,FF,,,,,,,,0.6925,,,,,,,,,,,,,,,,,,,,,,60fce9c29b57db229b7387bf,61036ebb75313f245eb89e4d,2021-07-29_22h15.35.178,Simcolourproject_2stim_asymm_v5,2020.2.10,Win32,60,61025ae37ef11b136ea224fe,,,,,,,,,4321,30,108,1,0,0,response1disk,,7,-12,13,1,0,0,rectangle,-12,13,1,0,0,-12,13,1,0,0,1,70,230,117,1,,,,,,,,
,,,,,,,,,,,,,FF,,,,,,,,1.3015,,,,,,,,,,,,,,,,,,,,,,60fce9c29b57db229b7387bf,61036ebb75313f245eb89e4d,2021-07-29_22h15.35.178,Simcolourproject_2stim_asymm_v5,2020.2.10,Win32,60,61025ae37ef11b136ea224fe,,,,,,,,,892,29,-96,1,0,0,response3disk,,4,-17,5,1,0,0,rectangle,-17,5,1,0,0,-17,5,1,0,0,1,71,231,36,1,,,,,,,,
,,,,,,,,,,,,,FF,,,,,,,,0.5919,,,,,,,,,,,,,,,,,,,,,,60fce9c29b57db229b7387bf,61036ebb75313f245eb89e4d,2021-07-29_22h15.35.178,Simcolourproject_2stim_asymm_v5,2020.2.10,Win32,60,61025ae37ef11b136ea224fe,,,,,,,,,845,40,100,1,0,0,response1disk,,7,-2,-16,1,0,0,rectangle,-2,-16,1,0,0,-2,-16,1,0,0,1,72,232,54,1,,,,,,,,
,,,,,,,,,,,,,FF,,,,,,,,0.7439,,,,,,,,,,,,,,,,,,,,,,60fce9c29b57db229b7387bf,61036ebb75313f245eb89e4d,2021-07-29_22h15.35.178,Simcolourproject_2stim_asymm_v5,2020.2.10,Win32,60,61025ae37ef11b136ea224fe,,,,,,,,,3309,55,108,1,0,0,response1disk,,7,-1,7,1,0,0,rectangle,-1,7,1,0,0,-1,7,1,0,0,1,73,233,125,1,,,,,,,,
,,,,,,,,,,,,,FF,,,,,,,,0.5921,,,,,,,,,,,,,,,,,,,,,,60fce9c29b57db229b7387bf,61036ebb75313f245eb89e4d,2021-07-29_22h15.35.178,Simcolourproject_2stim_asymm_v5,2020.2.10,Win32,60,61025ae37ef11b136ea224fe,,,,,,,,,2133,55,103,1,0,0,response1disk,,7,4,4,1,0,0,rectangle,4,4,1,0,0,4,4,1,0,0,1,74,234,83,1,,,,,,,,
,,,,,,,,,,,,,FF,,,,,,,,1.1652,,,,,,,,,,,,,,,,,,,,,,60fce9c29b57db229b7387bf,61036ebb75313f245eb89e4d,2021-07-29_22h15.35.178,Simcolourproject_2stim_asymm_v5,2020.2.10,Win32,60,61025ae37ef11b136ea224fe,,,,,,,,,4329,97,65,1,0,0,response1disk,,6,11,8,1,0,0,rectangle,40,-108,1,0,0,6,-3,1,0,0,1,75,235,19,1,,response3disk_3,TRUE,4,4,"[46,285,112,113,39,320,136,8,170,306,65,185,92,313,204,153,110,106,180,236]",1.5027,rectangle
,,,,,,,,,,,,,FF,,,,,,,,1.1154,,,,,,,,,,,,,,,,,,,,,,60fce9c29b57db229b7387bf,61036ebb75313f245eb89e4d,2021-07-29_22h15.35.178,Simcolourproject_2stim_asymm_v5,2020.2.10,Win32,60,61025ae37ef11b136ea224fe,,,,,,,,,1383,40,-89,1,0,0,response3disk,,4,-15,5,1,0,0,rectangle,-15,5,1,0,0,-15,5,1,0,0,1,76,236,39,1,,,,,,,,
,,,,,,,,,,,,,FF,,,,,,,,1.0813,,,,,,,,,,,,,,,,,,,,,,60fce9c29b57db229b7387bf,61036ebb75313f245eb89e4d,2021-07-29_22h15.35.178,Simcolourproject_2stim_asymm_v5,2020.2.10,Win32,60,61025ae37ef11b136ea224fe,,,,,,,,,705,39,-78,1,0,0,response3disk,,4,4,-4,1,0,0,rectangle,4,-4,1,0,0,4,-4,1,0,0,1,77,237,48,1,,,,,,,,
,,,,,,,,,,,,,FF,,,,,,,,0.6249,,,,,,,,,,,,,,,,,,,,,,60fce9c29b57db229b7387bf,61036ebb75313f245eb89e4d,2021-07-29_22h15.35.178,Simcolourproject_2stim_asymm_v5,2020.2.10,Win32,60,61025ae37ef11b136ea224fe,,,,,,,,,493,48,97,1,0,0,response1disk,,7,4,-1,1,0,0,rectangle,4,-1,1,0,0,4,-1,1,0,0,1,78,238,14,1,,,,,,,,
,,,,,,,,,,,,,FF,,,,,,,,0.8118,,,,,,,,,,,,,,,,,,,,,,60fce9c29b57db229b7387bf,61036ebb75313f245eb89e4d,2021-07-29_22h15.35.178,Simcolourproject_2stim_asymm_v5,2020.2.10,Win32,60,61025ae37ef11b136ea224fe,,,,,,,,,3491,57,82,1,0,0,response1disk,,7,3,-6,1,0,0,rectangle,3,-6,1,0,0,3,-6,1,0,0,1,79,239,59,1,,,,,,,,
,,,,,,,,,,,,,FF,,,,,,,,0.6596,,,,,,,,,,,,,,,,,,,,,,60fce9c29b57db229b7387bf,61036ebb75313f245eb89e4d,2021-07-29_22h15.35.178,Simcolourproject_2stim_asymm_v5,2020.2.10,Win32,60,61025ae37ef11b136ea224fe,,,,,,,,,884,40,103,1,0,0,response1disk,,7,-10,0,1,0,0,rectangle,-10,0,1,0,0,-10,0,1,0,0,1,80,240,109,1,,,,,,,,
,,,,,,,,,,,,,FF,,,,,,,,1.082,,,,,,,,,,,,,,,,,,,,,,60fce9c29b57db229b7387bf,61036ebb75313f245eb89e4d,2021-07-29_22h15.35.178,Simcolourproject_2stim_asymm_v5,2020.2.10,Win32,60,61025ae37ef11b136ea224fe,,,,,,,,,1113,93,43,1,0,0,response1disk,,6,15,-1,1,0,0,rectangle,15,-1,1,0,0,15,-1,1,0,0,1,81,241,147,1,,,,,,,,
,,,,,,,,,,,,,FF,,,,,,,,1.0811,,,,,,,,,,,,,,,,,,,,,,60fce9c29b57db229b7387bf,61036ebb75313f245eb89e4d,2021-07-29_22h15.35.178,Simcolourproject_2stim_asymm_v5,2020.2.10,Win32,60,61025ae37ef11b136ea224fe,,,,,,,,,3736,78,-32,1,0,0,response3disk,,5,21,1,1,0,0,rectangle,21,1,1,0,0,21,1,1,0,0,1,82,242,6,1,,,,,,,,
,,,,,,,,,,,,,FF,,,,,,,,0.878,,,,,,,,,,,,,,,,,,,,,,60fce9c29b57db229b7387bf,61036ebb75313f245eb89e4d,2021-07-29_22h15.35.178,Simcolourproject_2stim_asymm_v5,2020.2.10,Win32,60,61025ae37ef11b136ea224fe,,,,,,,,,2117,38,86,1,0,0,response1disk,,7,-8,20,1,0,0,rectangle,-8,20,1,0,0,-8,20,1,0,0,1,83,243,136,1,,,,,,,,
,,,,,,,,,,,,,FF,,,,,,,,1.0306,,,,,,,,,,,,,,,,,,,,,,60fce9c29b57db229b7387bf,61036ebb75313f245eb89e4d,2021-07-29_22h15.35.178,Simcolourproject_2stim_asymm_v5,2020.2.10,Win32,60,61025ae37ef11b136ea224fe,,,,,,,,,3212,95,52,1,0,0,response1disk,,6,30,7,1,0,0,rectangle,30,7,1,0,0,30,7,1,0,0,1,84,244,130,1,,,,,,,,
,,,,,,,,,,,,,FF,,,,,,,,1.0133,,,,,,,,,,,,,,,,,,,,,,60fce9c29b57db229b7387bf,61036ebb75313f245eb89e4d,2021-07-29_22h15.35.178,Simcolourproject_2stim_asymm_v5,2020.2.10,Win32,60,61025ae37ef11b136ea224fe,,,,,,,,,3244,-29,-112,1,0,0,response5disk,,3,-2,2,1,0,0,rectangle,-2,2,1,0,0,-2,2,1,0,0,1,85,245,123,1,,,,,,,,
,,,,,,,,,,,,,FF,,,,,,,,0.6746,,,,,,,,,,,,,,,,,,,,,,60fce9c29b57db229b7387bf,61036ebb75313f245eb89e4d,2021-07-29_22h15.35.178,Simcolourproject_2stim_asymm_v5,2020.2.10,Win32,60,61025ae37ef11b136ea224fe,,,,,,,,,3292,48,-84,1,0,0,response3disk,,4,19,0,1,0,0,rectangle,19,0,1,0,0,19,0,1,0,0,1,86,246,70,1,,,,,,,,
,,,,,,,,,,,,,FF,,,,,,,,0.5738,,,,,,,,,,,,,,,,,,,,,,60fce9c29b57db229b7387bf,61036ebb75313f245eb89e4d,2021-07-29_22h15.35.178,Simcolourproject_2stim_asymm_v5,2020.2.10,Win32,60,61025ae37ef11b136ea224fe,,,,,,,,,3228,57,87,1,0,0,response1disk,,7,9,18,1,0,0,rectangle,9,18,1,0,0,9,18,1,0,0,1,87,247,68,1,,,,,,,,
,,,,,,,,,,,,,FF,,,,,,,,1.3176,,,,,,,,,,,,,,,,,,,,,,60fce9c29b57db229b7387bf,61036ebb75313f245eb89e4d,2021-07-29_22h15.35.178,Simcolourproject_2stim_asymm_v5,2020.2.10,Win32,60,61025ae37ef11b136ea224fe,,,,,,,,,2882,116,-46,1,0,0,response3disk,,5,23,-5,1,0,0,rectangle,23,-5,1,0,0,23,-5,1,0,0,1,88,248,38,1,,,,,,,,
,,,,,,,,,,,,,FF,,,,,,,,0.625,,,,,,,,,,,,,,,,,,,,,,60fce9c29b57db229b7387bf,61036ebb75313f245eb89e4d,2021-07-29_22h15.35.178,Simcolourproject_2stim_asymm_v5,2020.2.10,Win32,60,61025ae37ef11b136ea224fe,,,,,,,,,4211,52,100,1,0,0,response1disk,,7,-1,12,1,0,0,rectangle,-1,12,1,0,0,-1,12,1,0,0,1,89,249,50,1,,,,,,,,
,,,,,,,,,,,,,FF,,,,,,,,0.625,,,,,,,,,,,,,,,,,,,,,,60fce9c29b57db229b7387bf,61036ebb75313f245eb89e4d,2021-07-29_22h15.35.178,Simcolourproject_2stim_asymm_v5,2020.2.10,Win32,60,61025ae37ef11b136ea224fe,,,,,,,,,328,48,85,1,0,0,response1disk,,7,-4,5,1,0,0,rectangle,-4,5,1,0,0,-4,5,1,0,0,1,90,250,63,1,,,,,,,,
,,,,,,,,,,,,,FF,,,,,,,,1.2164,,,,,,,,,,,,,,,,,,,,,,60fce9c29b57db229b7387bf,61036ebb75313f245eb89e4d,2021-07-29_22h15.35.178,Simcolourproject_2stim_asymm_v5,2020.2.10,Win32,60,61025ae37ef11b136ea224fe,,,,,,,,,2232,28,-98,1,0,0,response3disk,,4,-17,0,1,0,0,rectangle,-17,0,1,0,0,-17,0,1,0,0,1,91,251,88,1,,,,,,,,
,,,,,,,,,,,,,FF,,,,,,,,1.5879,,,,,,,,,,,,,,,,,,,,,,60fce9c29b57db229b7387bf,61036ebb75313f245eb89e4d,2021-07-29_22h15.35.178,Simcolourproject_2stim_asymm_v5,2020.2.10,Win32,60,61025ae37ef11b136ea224fe,,,,,,,,,620,-68,-82,1,0,0,response5disk,,3,-24,6,1,0,0,rectangle,-24,6,1,0,0,-24,6,1,0,0,1,92,252,95,1,,,,,,,,
,,,,,,,,,,,,,FF,,,,,,,,0.5935,,,,,,,,,,,,,,,,,,,,,,60fce9c29b57db229b7387bf,61036ebb75313f245eb89e4d,2021-07-29_22h15.35.178,Simcolourproject_2stim_asymm_v5,2020.2.10,Win32,60,61025ae37ef11b136ea224fe,,,,,,,,,3489,41,86,1,0,0,response1disk,,7,0,4,1,0,0,rectangle,0,4,1,0,0,0,4,1,0,0,1,93,253,37,1,,,,,,,,
,,,,,,,,,,,,,FF,,,,,,,,0.7444,,,,,,,,,,,,,,,,,,,,,,60fce9c29b57db229b7387bf,61036ebb75313f245eb89e4d,2021-07-29_22h15.35.178,Simcolourproject_2stim_asymm_v5,2020.2.10,Win32,60,61025ae37ef11b136ea224fe,,,,,,,,,4230,40,88,1,0,0,response1disk,,7,-7,5,1,0,0,rectangle,-7,5,1,0,0,-7,5,1,0,0,1,94,254,87,1,,,,,,,,
,,,,,,,,,,,,,FF,,,,,,,,0.7603,,,,,,,,,,,,,,,,,,,,,,60fce9c29b57db229b7387bf,61036ebb75313f245eb89e4d,2021-07-29_22h15.35.178,Simcolourproject_2stim_asymm_v5,2020.2.10,Win32,60,61025ae37ef11b136ea224fe,,,,,,,,,485,63,100,1,0,0,response1disk,,7,12,5,1,0,0,rectangle,12,5,1,0,0,12,5,1,0,0,1,95,255,143,1,,,,,,,,
,,,,,,,,,,,,,FF,,,,,,,,1.1142,,,,,,,,,,,,,,,,,,,,,,60fce9c29b57db229b7387bf,61036ebb75313f245eb89e4d,2021-07-29_22h15.35.178,Simcolourproject_2stim_asymm_v5,2020.2.10,Win32,60,61025ae37ef11b136ea224fe,,,,,,,,,3869,-34,-94,1,0,0,response5disk,,3,24,5,1,0,0,rectangle,24,5,1,0,0,24,5,1,0,0,1,96,256,93,1,,,,,,,,
,,,,,,,,,,,,,FF,,,,,,,,0.6582,,,,,,,,,,,,,,,,,,,,,,60fce9c29b57db229b7387bf,61036ebb75313f245eb89e4d,2021-07-29_22h15.35.178,Simcolourproject_2stim_asymm_v5,2020.2.10,Win32,60,61025ae37ef11b136ea224fe,,,,,,,,,4138,60,104,1,0,0,response1disk,,7,10,5,1,0,0,rectangle,10,5,1,0,0,10,5,1,0,0,1,97,257,85,1,,,,,,,,
,,,,,,,,,,,,,FF,,,,,,,,0.8462,,,,,,,,,,,,,,,,,,,,,,60fce9c29b57db229b7387bf,61036ebb75313f245eb89e4d,2021-07-29_22h15.35.178,Simcolourproject_2stim_asymm_v5,2020.2.10,Win32,60,61025ae37ef11b136ea224fe,,,,,,,,,3429,-87,-56,1,0,0,response5disk,,2,-19,9,1,0,0,rectangle,-19,9,1,0,0,-19,9,1,0,0,1,98,258,28,1,,,,,,,,
,,,,,,,,,,,,,FF,,,,,,,,1.6225,,,,,,,,,,,,,,,,,,,,,,60fce9c29b57db229b7387bf,61036ebb75313f245eb89e4d,2021-07-29_22h15.35.178,Simcolourproject_2stim_asymm_v5,2020.2.10,Win32,60,61025ae37ef11b136ea224fe,,,,,,,,,1517,61,97,1,0,0,response1disk,,7,-8,-4,1,0,0,rectangle,-8,-4,1,0,0,-8,-4,1,0,0,1,99,259,77,1,,,,,,,,
,,,,,,,,,,,,,FF,,,,,,,,0.5748,,,,,,,,,,,,,,,,,,,,,,60fce9c29b57db229b7387bf,61036ebb75313f245eb89e4d,2021-07-29_22h15.35.178,Simcolourproject_2stim_asymm_v5,2020.2.10,Win32,60,61025ae37ef11b136ea224fe,,,,,,,,,132,37,105,1,0,0,response1disk,,7,-12,13,1,0,0,rectangle,-12,13,1,0,0,-12,13,1,0,0,1,100,260,18,1,,,,,,,,
,,,,,,,,,,,,,FF,,,,,,,,0.8116,,,,,,,,,,,,,,,,,,,,,,60fce9c29b57db229b7387bf,61036ebb75313f245eb89e4d,2021-07-29_22h15.35.178,Simcolourproject_2stim_asymm_v5,2020.2.10,Win32,60,61025ae37ef11b136ea224fe,,,,,,,,,2981,45,90,1,0,0,response1disk,,7,-6,-5,1,0,0,rectangle,-6,-5,1,0,0,-6,-5,1,0,0,1,101,261,13,1,,,,,,,,
,,,,,,,,,,,,,FF,,,,,,,,0.7768,,,,,,,,,,,,,,,,,,,,,,60fce9c29b57db229b7387bf,61036ebb75313f245eb89e4d,2021-07-29_22h15.35.178,Simcolourproject_2stim_asymm_v5,2020.2.10,Win32,60,61025ae37ef11b136ea224fe,,,,,,,,,2197,44,92,1,0,0,response1disk,,7,-6,5,1,0,0,rectangle,-6,5,1,0,0,-6,5,1,0,0,1,102,262,116,1,,,,,,,,
,,,,,,,,,,,,,FF,,,,,,,,0.6595,,,,,,,,,,,,,,,,,,,,,,60fce9c29b57db229b7387bf,61036ebb75313f245eb89e4d,2021-07-29_22h15.35.178,Simcolourproject_2stim_asymm_v5,2020.2.10,Win32,60,61025ae37ef11b136ea224fe,,,,,,,,,2012,46,90,1,0,0,response1disk,,7,-2,-8,1,0,0,rectangle,-2,-8,1,0,0,-2,-8,1,0,0,1,103,263,104,1,,,,,,,,
,,,,,,,,,,,,,FF,,,,,,,,0.7596,,,,,,,,,,,,,,,,,,,,,,60fce9c29b57db229b7387bf,61036ebb75313f245eb89e4d,2021-07-29_22h15.35.178,Simcolourproject_2stim_asymm_v5,2020.2.10,Win32,60,61025ae37ef11b136ea224fe,,,,,,,,,136,51,80,1,0,0,response1disk,,7,14,-4,1,0,0,rectangle,14,-4,1,0,0,14,-4,1,0,0,1,104,264,46,1,,,,,,,,
,,,,,,,,,,,,,FF,,,,,,,,0.5596,,,,,,,,,,,,,,,,,,,,,,60fce9c29b57db229b7387bf,61036ebb75313f245eb89e4d,2021-07-29_22h15.35.178,Simcolourproject_2stim_asymm_v5,2020.2.10,Win32,60,61025ae37ef11b136ea224fe,,,,,,,,,310,50,89,1,0,0,response1disk,,7,8,0,1,0,0,rectangle,8,0,1,0,0,8,0,1,0,0,1,105,265,5,1,,,,,,,,
,,,,,,,,,,,,,FF,,,,,,,,0.5912,,,,,,,,,,,,,,,,,,,,,,60fce9c29b57db229b7387bf,61036ebb75313f245eb89e4d,2021-07-29_22h15.35.178,Simcolourproject_2stim_asymm_v5,2020.2.10,Win32,60,61025ae37ef11b136ea224fe,,,,,,,,,2159,45,103,1,0,0,response1disk,,7,7,6,1,0,0,rectangle,7,6,1,0,0,7,6,1,0,0,1,106,266,2,1,,,,,,,,
,,,,,,,,,,,,,FF,,,,,,,,0.997,,,,,,,,,,,,,,,,,,,,,,60fce9c29b57db229b7387bf,61036ebb75313f245eb89e4d,2021-07-29_22h15.35.178,Simcolourproject_2stim_asymm_v5,2020.2.10,Win32,60,61025ae37ef11b136ea224fe,,,,,,,,,732,82,47,1,0,0,response1disk,,6,8,-3,1,0,0,rectangle,8,-3,1,0,0,8,-3,1,0,0,1,107,267,127,1,,,,,,,,
,,,,,,,,,,,,,FF,,,,,,,,0.609,,,,,,,,,,,,,,,,,,,,,,60fce9c29b57db229b7387bf,61036ebb75313f245eb89e4d,2021-07-29_22h15.35.178,Simcolourproject_2stim_asymm_v5,2020.2.10,Win32,60,61025ae37ef11b136ea224fe,,,,,,,,,2406,49,99,1,0,0,response1disk,,7,-5,3,1,0,0,rectangle,-5,3,1,0,0,-5,3,1,0,0,1,108,268,15,1,,,,,,,,
,,,,,,,,,,,,,FF,,,,,,,,1.0645,,,,,,,,,,,,,,,,,,,,,,60fce9c29b57db229b7387bf,61036ebb75313f245eb89e4d,2021-07-29_22h15.35.178,Simcolourproject_2stim_asymm_v5,2020.2.10,Win32,60,61025ae37ef11b136ea224fe,,,,,,,,,4184,106,-37,1,0,0,response3disk,,5,11,8,1,0,0,rectangle,11,8,1,0,0,11,8,1,0,0,1,109,269,42,1,,,,,,,,
,,,,,,,,,,,,,FF,,,,,,,,1.1308,,,,,,,,,,,,,,,,,,,,,,60fce9c29b57db229b7387bf,61036ebb75313f245eb89e4d,2021-07-29_22h15.35.178,Simcolourproject_2stim_asymm_v5,2020.2.10,Win32,60,61025ae37ef11b136ea224fe,,,,,,,,,1981,98,42,1,0,0,response1disk,,6,8,2,1,0,0,rectangle,8,2,1,0,0,8,2,1,0,0,1,110,270,23,1,,,,,,,,
,,,,,,,,,,,,,FF,,,,,,,,0.6417,,,,,,,,,,,,,,,,,,,,,,60fce9c29b57db229b7387bf,61036ebb75313f245eb89e4d,2021-07-29_22h15.35.178,Simcolourproject_2stim_asymm_v5,2020.2.10,Win32,60,61025ae37ef11b136ea224fe,,,,,,,,,4296,44,101,1,0,0,response1disk,,7,-12,0,1,0,0,rectangle,-12,0,1,0,0,-12,0,1,0,0,1,111,271,82,1,,,,,,,,
,,,,,,,,,,,,,FF,,,,,,,,1.284,,,,,,,,,,,,,,,,,,,,,,60fce9c29b57db229b7387bf,61036ebb75313f245eb89e4d,2021-07-29_22h15.35.178,Simcolourproject_2stim_asymm_v5,2020.2.10,Win32,60,61025ae37ef11b136ea224fe,,,,,,,,,4043,83,47,1,0,0,response1disk,,6,15,4,1,0,0,rectangle,15,4,1,0,0,15,4,1,0,0,1,112,272,57,1,,,,,,,,
,,,,,,,,,,,,,FF,,,,,,,,1.6239,,,,,,,,,,,,,,,,,,,,,,60fce9c29b57db229b7387bf,61036ebb75313f245eb89e4d,2021-07-29_22h15.35.178,Simcolourproject_2stim_asymm_v5,2020.2.10,Win32,60,61025ae37ef11b136ea224fe,,,,,,,,,3684,63,89,1,0,0,response1disk,,7,0,-1,1,0,0,rectangle,0,-1,1,0,0,0,-1,1,0,0,1,113,273,47,1,,,,,,,,
,,,,,,,,,,,,,FF,,,,,,,,0.8623,,,,,,,,,,,,,,,,,,,,,,60fce9c29b57db229b7387bf,61036ebb75313f245eb89e4d,2021-07-29_22h15.35.178,Simcolourproject_2stim_asymm_v5,2020.2.10,Win32,60,61025ae37ef11b136ea224fe,,,,,,,,,1974,87,45,1,0,0,response1disk,,6,1,4,1,0,0,rectangle,1,4,1,0,0,1,4,1,0,0,1,114,274,108,1,,,,,,,,
,,,,,,,,,,,,,FF,,,,,,,,0.8445,,,,,,,,,,,,,,,,,,,,,,60fce9c29b57db229b7387bf,61036ebb75313f245eb89e4d,2021-07-29_22h15.35.178,Simcolourproject_2stim_asymm_v5,2020.2.10,Win32,60,61025ae37ef11b136ea224fe,,,,,,,,,87,61,93,1,0,0,response1disk,,7,3,2,1,0,0,rectangle,3,2,1,0,0,3,2,1,0,0,1,115,275,148,1,,,,,,,,
,,,,,,,,,,,,,FF,,,,,,,,0.71,,,,,,,,,,,,,,,,,,,,,,60fce9c29b57db229b7387bf,61036ebb75313f245eb89e4d,2021-07-29_22h15.35.178,Simcolourproject_2stim_asymm_v5,2020.2.10,Win32,60,61025ae37ef11b136ea224fe,,,,,,,,,1349,53,117,1,0,0,response1disk,,7,-3,2,1,0,0,rectangle,-3,2,1,0,0,-3,2,1,0,0,1,116,276,120,1,,,,,,,,
,,,,,,,,,,,,,FF,,,,,,,,0.929,,,,,,,,,,,,,,,,,,,,,,60fce9c29b57db229b7387bf,61036ebb75313f245eb89e4d,2021-07-29_22h15.35.178,Simcolourproject_2stim_asymm_v5,2020.2.10,Win32,60,61025ae37ef11b136ea224fe,,,,,,,,,3671,-116,-66,1,0,0,response5disk,,2,-27,9,1,0,0,rectangle,-27,9,1,0,0,-27,9,1,0,0,1,117,277,101,1,,,,,,,,
,,,,,,,,,,,,,FF,,,,,,,,0.7434,,,,,,,,,,,,,,,,,,,,,,60fce9c29b57db229b7387bf,61036ebb75313f245eb89e4d,2021-07-29_22h15.35.178,Simcolourproject_2stim_asymm_v5,2020.2.10,Win32,60,61025ae37ef11b136ea224fe,,,,,,,,,2147,47,118,1,0,0,response1disk,,7,-1,-3,1,0,0,rectangle,-1,-3,1,0,0,-1,-3,1,0,0,1,118,278,111,1,,,,,,,,
,,,,,,,,,,,,,FF,,,,,,,,0.7431,,,,,,,,,,,,,,,,,,,,,,60fce9c29b57db229b7387bf,61036ebb75313f245eb89e4d,2021-07-29_22h15.35.178,Simcolourproject_2stim_asymm_v5,2020.2.10,Win32,60,61025ae37ef11b136ea224fe,,,,,,,,,2008,55,97,1,0,0,response1disk,,7,23,-7,1,0,0,rectangle,23,-7,1,0,0,23,-7,1,0,0,1,119,279,142,1,,,,,,,,
,,,,,,,,,,,,,FF,,,,,,,,1.4863,,,,,,,,,,,,,,,,,,,,,,60fce9c29b57db229b7387bf,61036ebb75313f245eb89e4d,2021-07-29_22h15.35.178,Simcolourproject_2stim_asymm_v5,2020.2.10,Win32,60,61025ae37ef11b136ea224fe,,,,,,,,,3213,106,45,1,0,0,response1disk,,6,9,-2,1,0,0,rectangle,9,-2,1,0,0,9,-2,1,0,0,1,120,280,135,1,,,,,,,,
,,,,,,,,,,,,,FF,,,,,,,,0.7099,,,,,,,,,,,,,,,,,,,,,,60fce9c29b57db229b7387bf,61036ebb75313f245eb89e4d,2021-07-29_22h15.35.178,Simcolourproject_2stim_asymm_v5,2020.2.10,Win32,60,61025ae37ef11b136ea224fe,,,,,,,,,1425,54,105,1,0,0,response1disk,,7,6,7,1,0,0,rectangle,6,7,1,0,0,6,7,1,0,0,1,121,281,55,1,,,,,,,,
,,,,,,,,,,,,,FF,,,,,,,,0.828,,,,,,,,,,,,,,,,,,,,,,60fce9c29b57db229b7387bf,61036ebb75313f245eb89e4d,2021-07-29_22h15.35.178,Simcolourproject_2stim_asymm_v5,2020.2.10,Win32,60,61025ae37ef11b136ea224fe,,,,,,,,,995,84,46,1,0,0,response1disk,,6,3,11,1,0,0,rectangle,3,11,1,0,0,3,11,1,0,0,1,122,282,73,1,,,,,,,,
,,,,,,,,,,,,,FF,,,,,,,,1.2841,,,,,,,,,,,,,,,,,,,,,,60fce9c29b57db229b7387bf,61036ebb75313f245eb89e4d,2021-07-29_22h15.35.178,Simcolourproject_2stim_asymm_v5,2020.2.10,Win32,60,61025ae37ef11b136ea224fe,,,,,,,,,15,58,-29,1,0,0,response3disk,,5,4,-3,1,0,0,rectangle,4,-3,1,0,0,4,-3,1,0,0,1,123,283,80,1,,,,,,,,
,,,,,,,,,,,,,FF,,,,,,,,1.4019,,,,,,,,,,,,,,,,,,,,,,60fce9c29b57db229b7387bf,61036ebb75313f245eb89e4d,2021-07-29_22h15.35.178,Simcolourproject_2stim_asymm_v5,2020.2.10,Win32,60,61025ae37ef11b136ea224fe,,,,,,,,,3255,36,-73,1,0,0,response3disk,,4,-4,4,1,0,0,rectangle,-54,-77,1,0,0,-5,-1,1,0,0,1,124,284,64,1,,response5disk_3,TRUE,3,3,"[46,285,112,113,39,320,136,8,170,306,65,185,92,313,204,153,110,106,180,236]",1.3518,rectangle
,,,,,,,,,,,,,FF,,,,,,,,0.9788,,,,,,,,,,,,,,,,,,,,,,60fce9c29b57db229b7387bf,61036ebb75313f245eb89e4d,2021-07-29_22h15.35.178,Simcolourproject_2stim_asymm_v5,2020.2.10,Win32,60,61025ae37ef11b136ea224fe,,,,,,,,,1924,70,108,1,0,0,response1disk,,7,7,2,1,0,0,rectangle,7,2,1,0,0,7,2,1,0,0,1,125,285,92,1,,,,,,,,
,,,,,,,,,,,,,FF,,,,,,,,0.8606,,,,,,,,,,,,,,,,,,,,,,60fce9c29b57db229b7387bf,61036ebb75313f245eb89e4d,2021-07-29_22h15.35.178,Simcolourproject_2stim_asymm_v5,2020.2.10,Win32,60,61025ae37ef11b136ea224fe,,,,,,,,,2999,-42,-85,1,0,0,response5disk,,3,-19,0,1,0,0,rectangle,-19,0,1,0,0,-19,0,1,0,0,1,126,286,154,1,,,,,,,,
,,,,,,,,,,,,,FF,,,,,,,,0.8113,,,,,,,,,,,,,,,,,,,,,,60fce9c29b57db229b7387bf,61036ebb75313f245eb89e4d,2021-07-29_22h15.35.178,Simcolourproject_2stim_asymm_v5,2020.2.10,Win32,60,61025ae37ef11b136ea224fe,,,,,,,,,434,-46,-104,1,0,0,response5disk,,3,8,15,1,0,0,rectangle,8,15,1,0,0,8,15,1,0,0,1,127,287,33,1,,,,,,,,
,,,,,,,,,,,,,FF,,,,,,,,0.9975,,,,,,,,,,,,,,,,,,,,,,60fce9c29b57db229b7387bf,61036ebb75313f245eb89e4d,2021-07-29_22h15.35.178,Simcolourproject_2stim_asymm_v5,2020.2.10,Win32,60,61025ae37ef11b136ea224fe,,,,,,,,,1118,88,-34,1,0,0,response3disk,,5,-2,5,1,0,0,rectangle,-2,5,1,0,0,-2,5,1,0,0,1,128,288,56,1,,,,,,,,
,,,,,,,,,,,,,FF,,,,,,,,0.7609,,,,,,,,,,,,,,,,,,,,,,60fce9c29b57db229b7387bf,61036ebb75313f245eb89e4d,2021-07-29_22h15.35.178,Simcolourproject_2stim_asymm_v5,2020.2.10,Win32,60,61025ae37ef11b136ea224fe,,,,,,,,,1136,-67,-52,1,0,0,response5disk,,2,13,15,1,0,0,rectangle,13,15,1,0,0,13,15,1,0,0,1,129,289,151,1,,,,,,,,
,,,,,,,,,,,,,FF,,,,,,,,0.6931,,,,,,,,,,,,,,,,,,,,,,60fce9c29b57db229b7387bf,61036ebb75313f245eb89e4d,2021-07-29_22h15.35.178,Simcolourproject_2stim_asymm_v5,2020.2.10,Win32,60,61025ae37ef11b136ea224fe,,,,,,,,,1567,54,99,1,0,0,response1disk,,7,-4,5,1,0,0,rectangle,-4,5,1,0,0,-4,5,1,0,0,1,130,290,134,1,,,,,,,,
,,,,,,,,,,,,,FF,,,,,,,,0.76,,,,,,,,,,,,,,,,,,,,,,60fce9c29b57db229b7387bf,61036ebb75313f245eb89e4d,2021-07-29_22h15.35.178,Simcolourproject_2stim_asymm_v5,2020.2.10,Win32,60,61025ae37ef11b136ea224fe,,,,,,,,,1008,49,101,1,0,0,response1disk,,7,3,11,1,0,0,rectangle,3,11,1,0,0,3,11,1,0,0,1,131,291,1,1,,,,,,,,
,,,,,,,,,,,,,FF,,,,,,,,1.96,,,,,,,,,,,,,,,,,,,,,,60fce9c29b57db229b7387bf,61036ebb75313f245eb89e4d,2021-07-29_22h15.35.178,Simcolourproject_2stim_asymm_v5,2020.2.10,Win32,60,61025ae37ef11b136ea224fe,,,,,,,,,2364,27,-100,1,0,0,response3disk,,4,-17,4,1,0,0,rectangle,-17,4,1,0,0,-17,4,1,0,0,1,132,292,102,1,,,,,,,,
,,,,,,,,,,,,,FF,,,,,,,,1.4528,,,,,,,,,,,,,,,,,,,,,,60fce9c29b57db229b7387bf,61036ebb75313f245eb89e4d,2021-07-29_22h15.35.178,Simcolourproject_2stim_asymm_v5,2020.2.10,Win32,60,61025ae37ef11b136ea224fe,,,,,,,,,1535,-97,-69,1,0,0,response5disk,,2,-20,11,1,0,0,rectangle,-20,11,1,0,0,-20,11,1,0,0,1,133,293,90,1,,,,,,,,
,,,,,,,,,,,,,FF,,,,,,,,0.6769,,,,,,,,,,,,,,,,,,,,,,60fce9c29b57db229b7387bf,61036ebb75313f245eb89e4d,2021-07-29_22h15.35.178,Simcolourproject_2stim_asymm_v5,2020.2.10,Win32,60,61025ae37ef11b136ea224fe,,,,,,,,,3248,-96,-43,1,0,0,response5disk,,2,-19,7,1,0,0,rectangle,-19,7,1,0,0,-19,7,1,0,0,1,134,294,45,1,,,,,,,,
,,,,,,,,,,,,,FF,,,,,,,,1.3508,,,,,,,,,,,,,,,,,,,,,,60fce9c29b57db229b7387bf,61036ebb75313f245eb89e4d,2021-07-29_22h15.35.178,Simcolourproject_2stim_asymm_v5,2020.2.10,Win32,60,61025ae37ef11b136ea224fe,,,,,,,,,1594,94,-39,1,0,0,response3disk,,5,18,-13,1,0,0,rectangle,18,-13,1,0,0,18,-13,1,0,0,1,135,295,118,1,,,,,,,,
,,,,,,,,,,,,,FF,,,,,,,,1.0655,,,,,,,,,,,,,,,,,,,,,,60fce9c29b57db229b7387bf,61036ebb75313f245eb89e4d,2021-07-29_22h15.35.178,Simcolourproject_2stim_asymm_v5,2020.2.10,Win32,60,61025ae37ef11b136ea224fe,,,,,,,,,111,89,38,1,0,0,response1disk,,6,14,-4,1,0,0,rectangle,14,-4,1,0,0,14,-4,1,0,0,1,136,296,34,1,,,,,,,,
,,,,,,,,,,,,,FF,,,,,,,,0.9969,,,,,,,,,,,,,,,,,,,,,,60fce9c29b57db229b7387bf,61036ebb75313f245eb89e4d,2021-07-29_22h15.35.178,Simcolourproject_2stim_asymm_v5,2020.2.10,Win32,60,61025ae37ef11b136ea224fe,,,,,,,,,2826,91,48,1,0,0,response1disk,,6,18,-9,1,0,0,rectangle,18,-9,1,0,0,18,-9,1,0,0,1,137,297,138,1,,,,,,,,
,,,,,,,,,,,,,FF,,,,,,,,0.6029,,,,,,,,,,,,,,,,,,,,,,60fce9c29b57db229b7387bf,61036ebb75313f245eb89e4d,2021-07-29_22h15.35.178,Simcolourproject_2stim_asymm_v5,2020.2.10,Win32,60,61025ae37ef11b136ea224fe,,,,,,,,,2010,36,99,1,0,0,response1disk,,7,-12,0,1,0,0,rectangle,-12,0,1,0,0,-12,0,1,0,0,1,138,298,43,1,,,,,,,,
,,,,,,,,,,,,,FF,,,,,,,,0.727,,,,,,,,,,,,,,,,,,,,,,60fce9c29b57db229b7387bf,61036ebb75313f245eb89e4d,2021-07-29_22h15.35.178,Simcolourproject_2stim_asymm_v5,2020.2.10,Win32,60,61025ae37ef11b136ea224fe,,,,,,,,,3279,51,88,1,0,0,response1disk,,7,30,15,1,0,0,rectangle,30,15,1,0,0,30,15,1,0,0,1,139,299,40,1,,,,,,,,
,,,,,,,,,,,,,FF,,,,,,,,0.6417,,,,,,,,,,,,,,,,,,,,,,60fce9c29b57db229b7387bf,61036ebb75313f245eb89e4d,2021-07-29_22h15.35.178,Simcolourproject_2stim_asymm_v5,2020.2.10,Win32,60,61025ae37ef11b136ea224fe,,,,,,,,,587,51,90,1,0,0,response1disk,,7,6,-5,1,0,0,rectangle,6,-5,1,0,0,6,-5,1,0,0,1,140,300,10,1,,,,,,,,
,,,,,,,,,,,,,FF,,,,,,,,0.8452,,,,,,,,,,,,,,,,,,,,,,60fce9c29b57db229b7387bf,61036ebb75313f245eb89e4d,2021-07-29_22h15.35.178,Simcolourproject_2stim_asymm_v5,2020.2.10,Win32,60,61025ae37ef11b136ea224fe,,,,,,,,,841,47,97,1,0,0,response1disk,,7,8,5,1,0,0,rectangle,8,5,1,0,0,8,5,1,0,0,1,141,301,35,1,,,,,,,,
,,,,,,,,,,,,,FF,,,,,,,,1.0983,,,,,,,,,,,,,,,,,,,,,,60fce9c29b57db229b7387bf,61036ebb75313f245eb89e4d,2021-07-29_22h15.35.178,Simcolourproject_2stim_asymm_v5,2020.2.10,Win32,60,61025ae37ef11b136ea224fe,,,,,,,,,1445,-88,46,1,0,0,response7disk,,1,2,6,1,0,0,rectangle,2,6,1,0,0,2,6,1,0,0,1,142,302,26,1,,,,,,,,
,,,,,,,,,,,,,FF,,,,,,,,0.9469,,,,,,,,,,,,,,,,,,,,,,60fce9c29b57db229b7387bf,61036ebb75313f245eb89e4d,2021-07-29_22h15.35.178,Simcolourproject_2stim_asymm_v5,2020.2.10,Win32,60,61025ae37ef11b136ea224fe,,,,,,,,,2848,-52,-116,1,0,0,response5disk,,3,19,1,1,0,0,rectangle,19,1,1,0,0,19,1,1,0,0,1,143,303,61,1,,,,,,,,
