key_resp.keys,key_resp.rt,key_resp_14.keys,key_resp_14.rt,key_resp_15.keys,key_resp_15.rt,key_resp_17.keys,key_resp_17.rt,key_resp_9.keys,key_resp_9.rt,key_resp_10.keys,key_resp_10.rt,practice_comparison,Ecc,mouse_5.x,mouse_5.y,mouse_5.leftButton,mouse_5.midButton,mouse_5.rightButton,mouse_5.clicked_name,pracsimilarity,response_time,mouse_10.x,mouse_10.y,mouse_10.leftButton,mouse_10.midButton,mouse_10.rightButton,mouse_10.clicked_name,mouse_7.x,mouse_7.y,mouse_7.leftButton,mouse_7.midButton,mouse_7.rightButton,mouse_6.x,mouse_6.y,mouse_6.leftButton,mouse_6.midButton,mouse_6.rightButton,duringprac.thisRepN,duringprac.thisTrialN,duringprac.thisN,duringprac.thisIndex,duringprac.ran,participant,session,date,expName,psychopyVersion,OS,frameRate,study_id,mouse_7.clicked_name,catchpracsimilarity,catch_response_time,catchnumberprac,catchtrialorderprac,mouse_6.clicked_name,key_resp_22.keys,key_resp_22.rt,realcomparison,mouse.x,mouse.y,mouse.leftButton,mouse.midButton,mouse.rightButton,mouse.clicked_name,Colour2,similarity,mouse_2.x,mouse_2.y,mouse_2.leftButton,mouse_2.midButton,mouse_2.rightButton,mouse_2.clicked_name,mouse_3.x,mouse_3.y,mouse_3.leftButton,mouse_3.midButton,mouse_3.rightButton,mouse_11.x,mouse_11.y,mouse_11.leftButton,mouse_11.midButton,mouse_11.rightButton,trials_2.thisRepN,trials_2.thisTrialN,trials_2.thisN,trials_2.thisIndex,trials_2.ran,Colour1,mouse_3.clicked_name,catchornah,catchsimilarity,catchnumber,catchtrialorder,catchRT,mouse_11.clicked_name
space,1.9272,space,29.5536,space,34.4294,space,12.7813,space,5.7783,space,64.1952,60,PF,44.0000121,-80.80000764,1,0,0,response3disk_5,4,13.3035,18.40001172,0.799993575,1,0,0,rectangle_8,18.40001172,0.799993575,1,0,0,18.40001172,0.799993575,1,0,0,0,0,0,2,1,60fcc9c1ead2e823344601ee,61036fd26cdb339bf6185753,2021-07-29_23h21.43.519,Simcolourproject_2stim_asymm_v5,2020.2.10,Win32,60,61025ae37ef11b136ea224fe,,,,,,,,,,,,,,,,,,,,,,,,,,,,,,,,,,,,,,,,,,,,,,
,,,,,,,,,,,,135,PF,125.6000133,44.79999423,1,0,0,response1disk_5,6,4.0916,20.00001174,0.799993575,1,0,0,rectangle_8,-33.59998906,61.59999448,1,0,0,-7.999988675,-5.600006521,1,0,0,0,1,1,6,1,60fcc9c1ead2e823344601ee,61036fd26cdb339bf6185753,2021-07-29_23h21.43.519,Simcolourproject_2stim_asymm_v5,2020.2.10,Win32,60,61025ae37ef11b136ea224fe,response7disk_7,0,2.0405,5,"[2,5]",rectangle_4,,,,,,,,,,,,,,,,,,,,,,,,,,,,,,,,,,,,,,,,
,,,,,,,,,,,,64,PF,46.40001214,75.9999947,1,0,0,response1disk_5,7,1.8388,10.4000116,-6.4373E-06,1,0,0,rectangle_8,10.4000116,-6.4373E-06,1,0,0,10.4000116,-6.4373E-06,1,0,0,0,2,2,4,1,60fcc9c1ead2e823344601ee,61036fd26cdb339bf6185753,2021-07-29_23h21.43.519,Simcolourproject_2stim_asymm_v5,2020.2.10,Win32,60,61025ae37ef11b136ea224fe,,,,,,,,,,,,,,,,,,,,,,,,,,,,,,,,,,,,,,,,,,,,,,
,,,,,,,,,,,,136,PF,52.00001222,-94.40000784,1,0,0,response3disk_5,4,3.6275,10.4000116,8.799993694,1,0,0,rectangle_8,10.4000116,8.799993694,1,0,0,10.4000116,8.799993694,1,0,0,0,3,3,1,1,60fcc9c1ead2e823344601ee,61036fd26cdb339bf6185753,2021-07-29_23h21.43.519,Simcolourproject_2stim_asymm_v5,2020.2.10,Win32,60,61025ae37ef11b136ea224fe,,,,,,,,,,,,,,,,,,,,,,,,,,,,,,,,,,,,,,,,,,,,,,
,,,,,,,,,,,,43,FF,-48.79998928,-88.00000775,1,0,0,response5disk_5,3,2.3018,-9.599988699,-3.200006485,1,0,0,rectangle_8,76.00001258,-35.20000696,1,0,0,1.14441E-05,-13.60000664,1,0,0,0,4,4,0,1,60fcc9c1ead2e823344601ee,61036fd26cdb339bf6185753,2021-07-29_23h21.43.519,Simcolourproject_2stim_asymm_v5,2020.2.10,Win32,60,61025ae37ef11b136ea224fe,response3disk_7,5,4.1112,5,"[2,5]",rectangle_4,,,,,,,,,,,,,,,,,,,,,,,,,,,,,,,,,,,,,,,,
,,,,,,,,,,,,7,FF,-35.19998908,75.9999947,1,0,0,response7disk_5,0,0.862,-5.599988639,-4.000006497,1,0,0,rectangle_8,-5.599988639,-4.000006497,1,0,0,-5.599988639,-4.000006497,1,0,0,0,5,5,3,1,60fcc9c1ead2e823344601ee,61036fd26cdb339bf6185753,2021-07-29_23h21.43.519,Simcolourproject_2stim_asymm_v5,2020.2.10,Win32,60,61025ae37ef11b136ea224fe,,,,,,,,,,,,,,,,,,,,,,,,,,,,,,,,,,,,,,,,,,,,,,
,,,,,,,,,,,,14,FF,-29.599989,-94.40000784,1,0,0,response5disk_5,3,1.2099,5.600060356,13.59999377,1,0,0,rectangle_8,5.600060356,13.59999377,1,0,0,5.600060356,13.59999377,1,0,0,0,6,6,5,1,60fcc9c1ead2e823344601ee,61036fd26cdb339bf6185753,2021-07-29_23h21.43.519,Simcolourproject_2stim_asymm_v5,2020.2.10,Win32,60,61025ae37ef11b136ea224fe,,,,,,,,,,,,,,,,,,,,,,,,,,,,,,,,,,,,,,,,,,,,,,
,,,,,,,,,,,,,FF,,,,,,,,4.8663,,,,,,,,,,,,,,,,,,,,,,60fcc9c1ead2e823344601ee,61036fd26cdb339bf6185753,2021-07-29_23h21.43.519,Simcolourproject_2stim_asymm_v5,2020.2.10,Win32,60,61025ae37ef11b136ea224fe,,,,,,,space,3.9447,4256,-31.99998903,-105.6000568,1,0,0,response5disk,,3,5.600060356,-1.600006461,1,0,0,rectangle,5.600060356,-1.600006461,1,0,0,5.600060356,-1.600006461,1,0,0,0,0,0,103,1,,,,,,,,
,,,,,,,,,,,,,FF,,,,,,,,1.1764,,,,,,,,,,,,,,,,,,,,,,60fcc9c1ead2e823344601ee,61036fd26cdb339bf6185753,2021-07-29_23h21.43.519,Simcolourproject_2stim_asymm_v5,2020.2.10,Win32,60,61025ae37ef11b136ea224fe,,,,,,,,,2802,75.20001256,-49.60000718,1,0,0,response3disk,,5,7.200011551,-1.600006461,1,0,0,rectangle,7.200011551,-1.600006461,1,0,0,7.200011551,-1.600006461,1,0,0,0,1,1,154,1,,,,,,,,
,,,,,,,,,,,,,FF,,,,,,,,0.8117,,,,,,,,,,,,,,,,,,,,,,60fcc9c1ead2e823344601ee,61036fd26cdb339bf6185753,2021-07-29_23h21.43.519,Simcolourproject_2stim_asymm_v5,2020.2.10,Win32,60,61025ae37ef11b136ea224fe,,,,,,,,,2544,-43.99998921,-95.20000786,1,0,0,response5disk,,3,12.00001162,-5.600006521,1,0,0,rectangle,12.00001162,-5.600006521,1,0,0,12.00001162,-5.600006521,1,0,0,0,2,2,44,1,,,,,,,,
,,,,,,,,,,,,,FF,,,,,,,,1.6896,,,,,,,,,,,,,,,,,,,,,,60fcc9c1ead2e823344601ee,61036fd26cdb339bf6185753,2021-07-29_23h21.43.519,Simcolourproject_2stim_asymm_v5,2020.2.10,Win32,60,61025ae37ef11b136ea224fe,,,,,,,,,282,-67.99998957,-88.80000776,1,0,0,response5disk,,3,-11.19998872,-11.2000066,1,0,0,rectangle,-11.19998872,-11.2000066,1,0,0,-11.19998872,-11.2000066,1,0,0,0,3,3,102,1,,,,,,,,
,,,,,,,,,,,,,FF,,,,,,,,0.8443,,,,,,,,,,,,,,,,,,,,,,60fcc9c1ead2e823344601ee,61036fd26cdb339bf6185753,2021-07-29_23h21.43.519,Simcolourproject_2stim_asymm_v5,2020.2.10,Win32,60,61025ae37ef11b136ea224fe,,,,,,,,,571,59.20001233,-87.20000774,1,0,0,response3disk,,4,25.60006065,2.399993598,1,0,0,rectangle,25.60006065,2.399993598,1,0,0,25.60006065,2.399993598,1,0,0,0,4,4,79,1,,,,,,,,
,,,,,,,,,,,,,FF,,,,,,,,3.0803,,,,,,,,,,,,,,,,,,,,,,60fcc9c1ead2e823344601ee,61036fd26cdb339bf6185753,2021-07-29_23h21.43.519,Simcolourproject_2stim_asymm_v5,2020.2.10,Win32,60,61025ae37ef11b136ea224fe,,,,,,,,,3877,67.20001245,-92.80000782,1,0,0,response3disk,,4,25.60006065,-16.80000669,1,0,0,rectangle,25.60006065,-16.80000669,1,0,0,25.60006065,-16.80000669,1,0,0,0,5,5,94,1,,,,,,,,
,,,,,,,,,,,,,FF,,,,,,,,1.4239,,,,,,,,,,,,,,,,,,,,,,60fcc9c1ead2e823344601ee,61036fd26cdb339bf6185753,2021-07-29_23h21.43.519,Simcolourproject_2stim_asymm_v5,2020.2.10,Win32,60,61025ae37ef11b136ea224fe,,,,,,,,,3089,-45.59998924,-84.00000769,1,0,0,response5disk,,3,-29.599989,-14.40000665,1,0,0,rectangle,-29.599989,-14.40000665,1,0,0,-29.599989,-14.40000665,1,0,0,0,6,6,120,1,,,,,,,,
,,,,,,,,,,,,,FF,,,,,,,,0.6795,,,,,,,,,,,,,,,,,,,,,,60fcc9c1ead2e823344601ee,61036fd26cdb339bf6185753,2021-07-29_23h21.43.519,Simcolourproject_2stim_asymm_v5,2020.2.10,Win32,60,61025ae37ef11b136ea224fe,,,,,,,,,1370,-76.7999897,-54.40000725,1,0,0,response5disk,,2,-8.799988687,4.799993634,1,0,0,rectangle,-8.799988687,4.799993634,1,0,0,-8.799988687,4.799993634,1,0,0,0,7,7,80,1,,,,,,,,
,,,,,,,,,,,,,FF,,,,,,,,1.6732,,,,,,,,,,,,,,,,,,,,,,60fcc9c1ead2e823344601ee,61036fd26cdb339bf6185753,2021-07-29_23h21.43.519,Simcolourproject_2stim_asymm_v5,2020.2.10,Win32,60,61025ae37ef11b136ea224fe,,,,,,,,,1171,100.8000129,-74.40000755,1,0,0,response3disk,,5,23.20001179,-3.200006485,1,0,0,rectangle,23.20001179,-3.200006485,1,0,0,23.20001179,-3.200006485,1,0,0,0,8,8,112,1,,,,,,,,
,,,,,,,,,,,,,FF,,,,,,,,0.9281,,,,,,,,,,,,,,,,,,,,,,60fcc9c1ead2e823344601ee,61036fd26cdb339bf6185753,2021-07-29_23h21.43.519,Simcolourproject_2stim_asymm_v5,2020.2.10,Win32,60,61025ae37ef11b136ea224fe,,,,,,,,,3715,33.60006077,-88.80000776,1,0,0,response3disk,,4,19.20001173,-0.800006449,1,0,0,rectangle,19.20001173,-0.800006449,1,0,0,19.20001173,-0.800006449,1,0,0,0,9,9,109,1,,,,,,,,
,,,,,,,,,,,,,FF,,,,,,,,0.9611,,,,,,,,,,,,,,,,,,,,,,60fcc9c1ead2e823344601ee,61036fd26cdb339bf6185753,2021-07-29_23h21.43.519,Simcolourproject_2stim_asymm_v5,2020.2.10,Win32,60,61025ae37ef11b136ea224fe,,,,,,,,,2239,-43.99998921,-73.60000753,1,0,0,response5disk,,3,-11.19998872,-7.200006545,1,0,0,rectangle,-11.19998872,-7.200006545,1,0,0,-11.19998872,-7.200006545,1,0,0,0,10,10,130,1,,,,,,,,
,,,,,,,,,,,,,FF,,,,,,,,0.8783,,,,,,,,,,,,,,,,,,,,,,60fcc9c1ead2e823344601ee,61036fd26cdb339bf6185753,2021-07-29_23h21.43.519,Simcolourproject_2stim_asymm_v5,2020.2.10,Win32,60,61025ae37ef11b136ea224fe,,,,,,,,,2814,84.0000127,-31.2000069,1,0,0,response3disk,,5,15.20001167,1.599993587,1,0,0,rectangle,15.20001167,1.599993587,1,0,0,15.20001167,1.599993587,1,0,0,0,11,11,55,1,,,,,,,,
,,,,,,,,,,,,,FF,,,,,,,,2.6172,,,,,,,,,,,,,,,,,,,,,,60fcc9c1ead2e823344601ee,61036fd26cdb339bf6185753,2021-07-29_23h21.43.519,Simcolourproject_2stim_asymm_v5,2020.2.10,Win32,60,61025ae37ef11b136ea224fe,,,,,,,,,600,74.40001255,-91.2000078,1,0,0,response3disk,,4,23.20001179,-12.80000663,1,0,0,rectangle,23.20001179,-12.80000663,1,0,0,23.20001179,-12.80000663,1,0,0,0,12,12,30,1,,,,,,,,
,,,,,,,,,,,,,FF,,,,,,,,1.1061,,,,,,,,,,,,,,,,,,,,,,60fcc9c1ead2e823344601ee,61036fd26cdb339bf6185753,2021-07-29_23h21.43.519,Simcolourproject_2stim_asymm_v5,2020.2.10,Win32,60,61025ae37ef11b136ea224fe,,,,,,,,,1271,91.2000128,-68.80000746,1,0,0,response3disk,,5,22.40001178,-6.4373E-06,1,0,0,rectangle,22.40001178,-6.4373E-06,1,0,0,22.40001178,-6.4373E-06,1,0,0,0,13,13,74,1,,,,,,,,
,,,,,,,,,,,,,FF,,,,,,,,0.775,,,,,,,,,,,,,,,,,,,,,,60fcc9c1ead2e823344601ee,61036fd26cdb339bf6185753,2021-07-29_23h21.43.519,Simcolourproject_2stim_asymm_v5,2020.2.10,Win32,60,61025ae37ef11b136ea224fe,,,,,,,,,786,-43.1999892,-84.8000077,1,0,0,response5disk,,3,-10.39993988,-0.800006449,1,0,0,rectangle,-10.39993988,-0.800006449,1,0,0,-10.39993988,-0.800006449,1,0,0,0,14,14,106,1,,,,,,,,
,,,,,,,,,,,,,FF,,,,,,,,1.9049,,,,,,,,,,,,,,,,,,,,,,60fcc9c1ead2e823344601ee,61036fd26cdb339bf6185753,2021-07-29_23h21.43.519,Simcolourproject_2stim_asymm_v5,2020.2.10,Win32,60,61025ae37ef11b136ea224fe,,,,,,,,,901,-34.39994024,-89.6000566,1,0,0,response5disk,,3,7.200011551,-8.000006557,1,0,0,rectangle,7.200011551,-8.000006557,1,0,0,7.200011551,-8.000006557,1,0,0,0,15,15,73,1,,,,,,,,
,,,,,,,,,,,,,FF,,,,,,,,1.9381,,,,,,,,,,,,,,,,,,,,,,60fcc9c1ead2e823344601ee,61036fd26cdb339bf6185753,2021-07-29_23h21.43.519,Simcolourproject_2stim_asymm_v5,2020.2.10,Win32,60,61025ae37ef11b136ea224fe,,,,,,,,,3681,-49.5999893,-82.40000767,1,0,0,response5disk,,3,-0.799988568,2.399993598,1,0,0,rectangle,-0.799988568,2.399993598,1,0,0,-0.799988568,2.399993598,1,0,0,0,16,16,99,1,,,,,,,,
,,,,,,,,,,,,,FF,,,,,,,,0.8124,,,,,,,,,,,,,,,,,,,,,,60fcc9c1ead2e823344601ee,61036fd26cdb339bf6185753,2021-07-29_23h21.43.519,Simcolourproject_2stim_asymm_v5,2020.2.10,Win32,60,61025ae37ef11b136ea224fe,,,,,,,,,785,-28.79998899,-88.80000776,1,0,0,response5disk,,3,4.000011504,4.799993634,1,0,0,rectangle,4.000011504,4.799993634,1,0,0,4.000011504,4.799993634,1,0,0,0,17,17,3,1,,,,,,,,
,,,,,,,,,,,,,FF,,,,,,,,1.5739,,,,,,,,,,,,,,,,,,,,,,60fcc9c1ead2e823344601ee,61036fd26cdb339bf6185753,2021-07-29_23h21.43.519,Simcolourproject_2stim_asymm_v5,2020.2.10,Win32,60,61025ae37ef11b136ea224fe,,,,,,,,,2385,98.40001291,-58.40000731,1,0,0,response3disk,,5,23.20001179,-1.600006461,1,0,0,rectangle,23.20001179,-1.600006461,1,0,0,23.20001179,-1.600006461,1,0,0,0,18,18,50,1,,,,,,,,
,,,,,,,,,,,,,FF,,,,,,,,0.6847,,,,,,,,,,,,,,,,,,,,,,60fcc9c1ead2e823344601ee,61036fd26cdb339bf6185753,2021-07-29_23h21.43.519,Simcolourproject_2stim_asymm_v5,2020.2.10,Win32,60,61025ae37ef11b136ea224fe,,,,,,,,,135,44.0000121,-84.00000769,1,0,0,response3disk,,4,5.600060356,-8.000006557,1,0,0,rectangle,5.600060356,-8.000006557,1,0,0,5.600060356,-8.000006557,1,0,0,0,19,19,47,1,,,,,,,,
,,,,,,,,,,,,,FF,,,,,,,,0.8944,,,,,,,,,,,,,,,,,,,,,,60fcc9c1ead2e823344601ee,61036fd26cdb339bf6185753,2021-07-29_23h21.43.519,Simcolourproject_2stim_asymm_v5,2020.2.10,Win32,60,61025ae37ef11b136ea224fe,,,,,,,,,2176,-48.79998928,-83.20000768,1,0,0,response5disk,,3,-26.39994012,-4.000006497,1,0,0,rectangle,-26.39994012,-4.000006497,1,0,0,-26.39994012,-4.000006497,1,0,0,0,20,20,76,1,,,,,,,,
,,,,,,,,,,,,,FF,,,,,,,,0.6012,,,,,,,,,,,,,,,,,,,,,,60fcc9c1ead2e823344601ee,61036fd26cdb339bf6185753,2021-07-29_23h21.43.519,Simcolourproject_2stim_asymm_v5,2020.2.10,Win32,60,61025ae37ef11b136ea224fe,,,,,,,,,3509,-26.39994012,-100.0000079,1,0,0,response5disk,,3,27.20001185,-4.000006497,1,0,0,rectangle,27.20001185,-4.000006497,1,0,0,27.20001185,-4.000006497,1,0,0,0,21,21,156,1,,,,,,,,
,,,,,,,,,,,,,FF,,,,,,,,1.2113,,,,,,,,,,,,,,,,,,,,,,60fcc9c1ead2e823344601ee,61036fd26cdb339bf6185753,2021-07-29_23h21.43.519,Simcolourproject_2stim_asymm_v5,2020.2.10,Win32,60,61025ae37ef11b136ea224fe,,,,,,,,,521,125.6000133,31.99999404,1,0,0,response1disk,,6,36.80001199,1.599993587,1,0,0,rectangle,36.80001199,1.599993587,1,0,0,36.80001199,1.599993587,1,0,0,0,22,22,57,1,,,,,,,,
,,,,,,,,,,,,,FF,,,,,,,,0.8455,,,,,,,,,,,,,,,,,,,,,,60fcc9c1ead2e823344601ee,61036fd26cdb339bf6185753,2021-07-29_23h21.43.519,Simcolourproject_2stim_asymm_v5,2020.2.10,Win32,60,61025ae37ef11b136ea224fe,,,,,,,,,9,-48.79998928,-89.6000566,1,0,0,response5disk,,3,-8.799988687,2.399993598,1,0,0,rectangle,-8.799988687,2.399993598,1,0,0,-8.799988687,2.399993598,1,0,0,0,23,23,4,1,,,,,,,,
,,,,,,,,,,,,,FF,,,,,,,,0.6845,,,,,,,,,,,,,,,,,,,,,,60fcc9c1ead2e823344601ee,61036fd26cdb339bf6185753,2021-07-29_23h21.43.519,Simcolourproject_2stim_asymm_v5,2020.2.10,Win32,60,61025ae37ef11b136ea224fe,,,,,,,,,1679,-18.39994,-81.60005648,1,0,0,response5disk,,3,16.00001168,-10.40000659,1,0,0,rectangle,16.00001168,-10.40000659,1,0,0,16.00001168,-10.40000659,1,0,0,0,24,24,153,1,,,,,,,,
,,,,,,,,,,,,,FF,,,,,,,,0.928,,,,,,,,,,,,,,,,,,,,,,60fcc9c1ead2e823344601ee,61036fd26cdb339bf6185753,2021-07-29_23h21.43.519,Simcolourproject_2stim_asymm_v5,2020.2.10,Win32,60,61025ae37ef11b136ea224fe,,,,,,,,,74,108.8000131,-51.2000072,1,0,0,response3disk,,5,-3.199988604,7.999993682,1,0,0,rectangle,-3.199988604,7.999993682,1,0,0,-3.199988604,7.999993682,1,0,0,0,25,25,51,1,,,,,,,,
,,,,,,,,,,,,,FF,,,,,,,,0.7789,,,,,,,,,,,,,,,,,,,,,,60fcc9c1ead2e823344601ee,61036fd26cdb339bf6185753,2021-07-29_23h21.43.519,Simcolourproject_2stim_asymm_v5,2020.2.10,Win32,60,61025ae37ef11b136ea224fe,,,,,,,,,3936,-46.39994042,93.59999496,1,0,0,response7disk,,0,-11.99998873,-2.400006473,1,0,0,rectangle,-11.99998873,-2.400006473,1,0,0,-11.99998873,-2.400006473,1,0,0,0,26,26,148,1,,,,,,,,
,,,,,,,,,,,,,FF,,,,,,,,1.7901,,,,,,,,,,,,,,,,,,,,,,60fcc9c1ead2e823344601ee,61036fd26cdb339bf6185753,2021-07-29_23h21.43.519,Simcolourproject_2stim_asymm_v5,2020.2.10,Win32,60,61025ae37ef11b136ea224fe,,,,,,,,,3554,40.00001204,-66.40000743,1,0,0,response3disk,,4,13.60006047,7.19999367,1,0,0,rectangle,13.60006047,7.19999367,1,0,0,13.60006047,7.19999367,1,0,0,0,27,27,83,1,,,,,,,,
,,,,,,,,,,,,,FF,,,,,,,,0.5846,,,,,,,,,,,,,,,,,,,,,,60fcc9c1ead2e823344601ee,61036fd26cdb339bf6185753,2021-07-29_23h21.43.519,Simcolourproject_2stim_asymm_v5,2020.2.10,Win32,60,61025ae37ef11b136ea224fe,,,,,,,,,386,-56.7999894,-91.2000078,1,0,0,response5disk,,3,-23.1999889,-6.400006533,1,0,0,rectangle,-23.1999889,-6.400006533,1,0,0,-23.1999889,-6.400006533,1,0,0,0,28,28,105,1,,,,,,,,
,,,,,,,,,,,,,FF,,,,,,,,0.6499,,,,,,,,,,,,,,,,,,,,,,60fcc9c1ead2e823344601ee,61036fd26cdb339bf6185753,2021-07-29_23h21.43.519,Simcolourproject_2stim_asymm_v5,2020.2.10,Win32,60,61025ae37ef11b136ea224fe,,,,,,,,,1086,47.20001215,-88.00000775,1,0,0,response3disk,,4,32.00001192,0.799993575,1,0,0,rectangle,32.00001192,0.799993575,1,0,0,32.00001192,0.799993575,1,0,0,0,29,29,31,1,,,,,,,,
,,,,,,,,,,,,,FF,,,,,,,,0.6125,,,,,,,,,,,,,,,,,,,,,,60fcc9c1ead2e823344601ee,61036fd26cdb339bf6185753,2021-07-29_23h21.43.519,Simcolourproject_2stim_asymm_v5,2020.2.10,Win32,60,61025ae37ef11b136ea224fe,,,,,,,,,2819,31.20001191,-67.20000744,1,0,0,response3disk,,4,21.60006059,-10.40000659,1,0,0,rectangle,72.80001253,-55.20000726,1,0,0,17.60006053,6.399993658,1,0,0,0,30,30,146,1,,response3disk_3,TRUE,5,5,"[216,220,242,201,278,251,302,152,295,314,185,289,288,89,209,252,51,34,283,31]",1.6275,rectangle
,,,,,,,,,,,,,FF,,,,,,,,0.9105,,,,,,,,,,,,,,,,,,,,,,60fcc9c1ead2e823344601ee,61036fd26cdb339bf6185753,2021-07-29_23h21.43.519,Simcolourproject_2stim_asymm_v5,2020.2.10,Win32,60,61025ae37ef11b136ea224fe,,,,,,,,,1908,48.80001217,-72.00000751,1,0,0,response3disk,,4,8.000011563,-6.4373E-06,1,0,0,rectangle,8.000011563,-6.4373E-06,1,0,0,8.000011563,-6.4373E-06,1,0,0,0,31,31,137,1,,,,,,,,
,,,,,,,,,,,,,FF,,,,,,,,0.7125,,,,,,,,,,,,,,,,,,,,,,60fcc9c1ead2e823344601ee,61036fd26cdb339bf6185753,2021-07-29_23h21.43.519,Simcolourproject_2stim_asymm_v5,2020.2.10,Win32,60,61025ae37ef11b136ea224fe,,,,,,,,,2971,107.200013,-46.40000713,1,0,0,response3disk,,5,20.80001175,5.599993646,1,0,0,rectangle,20.80001175,5.599993646,1,0,0,20.80001175,5.599993646,1,0,0,0,32,32,27,1,,,,,,,,
,,,,,,,,,,,,,FF,,,,,,,,0.9789,,,,,,,,,,,,,,,,,,,,,,60fcc9c1ead2e823344601ee,61036fd26cdb339bf6185753,2021-07-29_23h21.43.519,Simcolourproject_2stim_asymm_v5,2020.2.10,Win32,60,61025ae37ef11b136ea224fe,,,,,,,,,3924,-44.79998922,-106.400008,1,0,0,response5disk,,3,-3.999988616,-6.4373E-06,1,0,0,rectangle,-113.5999902,42.39999419,1,0,0,-19.19998884,2.399993598,1,0,0,0,33,33,93,1,,response7disk_3,TRUE,1,1,"[216,220,242,201,278,251,302,152,295,314,185,289,288,89,209,252,51,34,283,31]",2.0533,rectangle
,,,,,,,,,,,,,FF,,,,,,,,0.6461,,,,,,,,,,,,,,,,,,,,,,60fcc9c1ead2e823344601ee,61036fd26cdb339bf6185753,2021-07-29_23h21.43.519,Simcolourproject_2stim_asymm_v5,2020.2.10,Win32,60,61025ae37ef11b136ea224fe,,,,,,,,,2311,22.40001178,-94.40000784,1,0,0,response3disk,,4,18.40001172,-0.800006449,1,0,0,rectangle,18.40001172,-0.800006449,1,0,0,18.40001172,-0.800006449,1,0,0,0,34,34,25,1,,,,,,,,
,,,,,,,,,,,,,FF,,,,,,,,0.5469,,,,,,,,,,,,,,,,,,,,,,60fcc9c1ead2e823344601ee,61036fd26cdb339bf6185753,2021-07-29_23h21.43.519,Simcolourproject_2stim_asymm_v5,2020.2.10,Win32,60,61025ae37ef11b136ea224fe,,,,,,,,,737,30.4000119,-71.2000075,1,0,0,response3disk,,4,30.4000119,-8.000006557,1,0,0,rectangle,30.4000119,-8.000006557,1,0,0,30.4000119,-8.000006557,1,0,0,0,35,35,61,1,,,,,,,,
,,,,,,,,,,,,,FF,,,,,,,,0.631,,,,,,,,,,,,,,,,,,,,,,60fcc9c1ead2e823344601ee,61036fd26cdb339bf6185753,2021-07-29_23h21.43.519,Simcolourproject_2stim_asymm_v5,2020.2.10,Win32,60,61025ae37ef11b136ea224fe,,,,,,,,,980,-47.99998927,-81.60005648,1,0,0,response5disk,,3,-19.99998885,-1.600006461,1,0,0,rectangle,-19.99998885,-1.600006461,1,0,0,-19.99998885,-1.600006461,1,0,0,0,36,36,29,1,,,,,,,,
,,,,,,,,,,,,,FF,,,,,,,,1.0104,,,,,,,,,,,,,,,,,,,,,,60fcc9c1ead2e823344601ee,61036fd26cdb339bf6185753,2021-07-29_23h21.43.519,Simcolourproject_2stim_asymm_v5,2020.2.10,Win32,60,61025ae37ef11b136ea224fe,,,,,,,,,701,-47.99998927,-95.20000786,1,0,0,response5disk,,3,-20.79998887,-10.40000659,1,0,0,rectangle,-20.79998887,-10.40000659,1,0,0,-20.79998887,-10.40000659,1,0,0,0,37,37,113,1,,,,,,,,
,,,,,,,,,,,,,FF,,,,,,,,1.127,,,,,,,,,,,,,,,,,,,,,,60fcc9c1ead2e823344601ee,61036fd26cdb339bf6185753,2021-07-29_23h21.43.519,Simcolourproject_2stim_asymm_v5,2020.2.10,Win32,60,61025ae37ef11b136ea224fe,,,,,,,,,2758,42.40001208,-86.40000772,1,0,0,response3disk,,4,14.40001166,-4.000006497,1,0,0,rectangle,14.40001166,-4.000006497,1,0,0,14.40001166,-4.000006497,1,0,0,0,38,38,122,1,,,,,,,,
,,,,,,,,,,,,,FF,,,,,,,,1.0114,,,,,,,,,,,,,,,,,,,,,,60fcc9c1ead2e823344601ee,61036fd26cdb339bf6185753,2021-07-29_23h21.43.519,Simcolourproject_2stim_asymm_v5,2020.2.10,Win32,60,61025ae37ef11b136ea224fe,,,,,,,,,3664,-51.99998933,-82.40000767,1,0,0,response5disk,,3,-35.99998909,-1.600006461,1,0,0,rectangle,-35.99998909,-1.600006461,1,0,0,-35.99998909,-1.600006461,1,0,0,0,39,39,45,1,,,,,,,,
,,,,,,,,,,,,,FF,,,,,,,,0.5973,,,,,,,,,,,,,,,,,,,,,,60fcc9c1ead2e823344601ee,61036fd26cdb339bf6185753,2021-07-29_23h21.43.519,Simcolourproject_2stim_asymm_v5,2020.2.10,Win32,60,61025ae37ef11b136ea224fe,,,,,,,,,1238,-39.99998915,-95.20000786,1,0,0,response5disk,,3,0.800011456,15.9999938,1,0,0,rectangle,0.800011456,15.9999938,1,0,0,0.800011456,15.9999938,1,0,0,0,40,40,88,1,,,,,,,,
,,,,,,,,,,,,,FF,,,,,,,,0.7784,,,,,,,,,,,,,,,,,,,,,,60fcc9c1ead2e823344601ee,61036fd26cdb339bf6185753,2021-07-29_23h21.43.519,Simcolourproject_2stim_asymm_v5,2020.2.10,Win32,60,61025ae37ef11b136ea224fe,,,,,,,,,1380,-125.5999904,-34.40000695,1,0,0,response5disk,,2,-27.99998897,3.19999361,1,0,0,rectangle,-27.99998897,3.19999361,1,0,0,-27.99998897,3.19999361,1,0,0,0,41,41,150,1,,,,,,,,
,,,,,,,,,,,,,FF,,,,,,,,0.9114,,,,,,,,,,,,,,,,,,,,,,60fcc9c1ead2e823344601ee,61036fd26cdb339bf6185753,2021-07-29_23h21.43.519,Simcolourproject_2stim_asymm_v5,2020.2.10,Win32,60,61025ae37ef11b136ea224fe,,,,,,,,,951,86.40001273,-58.40000731,1,0,0,response3disk,,5,21.60006059,-14.40000665,1,0,0,rectangle,21.60006059,-14.40000665,1,0,0,21.60006059,-14.40000665,1,0,0,0,42,42,1,1,,,,,,,,
,,,,,,,,,,,,,FF,,,,,,,,0.613,,,,,,,,,,,,,,,,,,,,,,60fcc9c1ead2e823344601ee,61036fd26cdb339bf6185753,2021-07-29_23h21.43.519,Simcolourproject_2stim_asymm_v5,2020.2.10,Win32,60,61025ae37ef11b136ea224fe,,,,,,,,,2373,-44.79998922,-66.40000743,1,0,0,response5disk,,3,-21.59998888,-6.400006533,1,0,0,rectangle,-21.59998888,-6.400006533,1,0,0,-21.59998888,-6.400006533,1,0,0,0,43,43,69,1,,,,,,,,
,,,,,,,,,,,,,FF,,,,,,,,0.6129,,,,,,,,,,,,,,,,,,,,,,60fcc9c1ead2e823344601ee,61036fd26cdb339bf6185753,2021-07-29_23h21.43.519,Simcolourproject_2stim_asymm_v5,2020.2.10,Win32,60,61025ae37ef11b136ea224fe,,,,,,,,,3054,-24.79998893,-79.20000762,1,0,0,response5disk,,3,6.400011539,-8.800006568,1,0,0,rectangle,6.400011539,-8.800006568,1,0,0,6.400011539,-8.800006568,1,0,0,0,44,44,42,1,,,,,,,,
,,,,,,,,,,,,,FF,,,,,,,,0.8118,,,,,,,,,,,,,,,,,,,,,,60fcc9c1ead2e823344601ee,61036fd26cdb339bf6185753,2021-07-29_23h21.43.519,Simcolourproject_2stim_asymm_v5,2020.2.10,Win32,60,61025ae37ef11b136ea224fe,,,,,,,,,711,20.00001174,-71.2000075,1,0,0,response3disk,,4,11.20001161,-16.80000669,1,0,0,rectangle,11.20001161,-16.80000669,1,0,0,11.20001161,-16.80000669,1,0,0,0,45,45,17,1,,,,,,,,
,,,,,,,,,,,,,FF,,,,,,,,0.9943,,,,,,,,,,,,,,,,,,,,,,60fcc9c1ead2e823344601ee,61036fd26cdb339bf6185753,2021-07-29_23h21.43.519,Simcolourproject_2stim_asymm_v5,2020.2.10,Win32,60,61025ae37ef11b136ea224fe,,,,,,,,,2363,-102.3999413,31.99999404,1,0,0,response7disk,,1,5.600060356,-4.800006509,1,0,0,rectangle,5.600060356,-4.800006509,1,0,0,5.600060356,-4.800006509,1,0,0,0,46,46,67,1,,,,,,,,
,,,,,,,,,,,,,FF,,,,,,,,1.0103,,,,,,,,,,,,,,,,,,,,,,60fcc9c1ead2e823344601ee,61036fd26cdb339bf6185753,2021-07-29_23h21.43.519,Simcolourproject_2stim_asymm_v5,2020.2.10,Win32,60,61025ae37ef11b136ea224fe,,,,,,,,,2365,-74.39994084,-39.20000702,1,0,0,response5disk,,2,9.600060415,-0.800006449,1,0,0,rectangle,9.600060415,-0.800006449,1,0,0,9.600060415,-0.800006449,1,0,0,0,47,47,116,1,,,,,,,,
,,,,,,,,,,,,,FF,,,,,,,,1.2581,,,,,,,,,,,,,,,,,,,,,,60fcc9c1ead2e823344601ee,61036fd26cdb339bf6185753,2021-07-29_23h21.43.519,Simcolourproject_2stim_asymm_v5,2020.2.10,Win32,60,61025ae37ef11b136ea224fe,,,,,,,,,3520,-88.79998988,-23.20000678,1,0,0,response5disk,,2,-26.39994012,-3.200006485,1,0,0,rectangle,-26.39994012,-3.200006485,1,0,0,-26.39994012,-3.200006485,1,0,0,0,48,48,145,1,,,,,,,,
,,,,,,,,,,,,,FF,,,,,,,,0.7618,,,,,,,,,,,,,,,,,,,,,,60fcc9c1ead2e823344601ee,61036fd26cdb339bf6185753,2021-07-29_23h21.43.519,Simcolourproject_2stim_asymm_v5,2020.2.10,Win32,60,61025ae37ef11b136ea224fe,,,,,,,,,3680,-101.5999901,-50.40000719,1,0,0,response5disk,,2,-16.79998881,-9.60000658,1,0,0,rectangle,-16.79998881,-9.60000658,1,0,0,-16.79998881,-9.60000658,1,0,0,0,49,49,18,1,,,,,,,,
,,,,,,,,,,,,,FF,,,,,,,,1.9875,,,,,,,,,,,,,,,,,,,,,,60fcc9c1ead2e823344601ee,61036fd26cdb339bf6185753,2021-07-29_23h21.43.519,Simcolourproject_2stim_asymm_v5,2020.2.10,Win32,60,61025ae37ef11b136ea224fe,,,,,,,,,2209,48.80001217,-101.6000568,1,0,0,response3disk,,4,-1.59998858,-15.20000666,1,0,0,rectangle,-107.9999902,47.19996985,1,0,0,-27.99998897,1.599993587,1,0,0,0,50,50,85,1,,response7disk_3,TRUE,1,1,"[216,220,242,201,278,251,302,152,295,314,185,289,288,89,209,252,51,34,283,31]",1.1756,rectangle
,,,,,,,,,,,,,FF,,,,,,,,0.8945,,,,,,,,,,,,,,,,,,,,,,60fcc9c1ead2e823344601ee,61036fd26cdb339bf6185753,2021-07-29_23h21.43.519,Simcolourproject_2stim_asymm_v5,2020.2.10,Win32,60,61025ae37ef11b136ea224fe,,,,,,,,,944,128.8000134,-46.40000713,1,0,0,response3disk,,5,6.400011539,-2.400006473,1,0,0,rectangle,6.400011539,-2.400006473,1,0,0,6.400011539,-2.400006473,1,0,0,0,51,51,121,1,,,,,,,,
,,,,,,,,,,,,,FF,,,,,,,,0.7622,,,,,,,,,,,,,,,,,,,,,,60fcc9c1ead2e823344601ee,61036fd26cdb339bf6185753,2021-07-29_23h21.43.519,Simcolourproject_2stim_asymm_v5,2020.2.10,Win32,60,61025ae37ef11b136ea224fe,,,,,,,,,1917,60.80001235,-96.80000788,1,0,0,response3disk,,4,5.600060356,-9.60000658,1,0,0,rectangle,5.600060356,-9.60000658,1,0,0,5.600060356,-9.60000658,1,0,0,0,52,52,77,1,,,,,,,,
,,,,,,,,,,,,,FF,,,,,,,,0.7119,,,,,,,,,,,,,,,,,,,,,,60fcc9c1ead2e823344601ee,61036fd26cdb339bf6185753,2021-07-29_23h21.43.519,Simcolourproject_2stim_asymm_v5,2020.2.10,Win32,60,61025ae37ef11b136ea224fe,,,,,,,,,463,-37.59998912,-91.2000078,1,0,0,response5disk,,3,12.00001162,1.599993587,1,0,0,rectangle,12.00001162,1.599993587,1,0,0,12.00001162,1.599993587,1,0,0,0,53,53,117,1,,,,,,,,
,,,,,,,,,,,,,FF,,,,,,,,0.8949,,,,,,,,,,,,,,,,,,,,,,60fcc9c1ead2e823344601ee,61036fd26cdb339bf6185753,2021-07-29_23h21.43.519,Simcolourproject_2stim_asymm_v5,2020.2.10,Win32,60,61025ae37ef11b136ea224fe,,,,,,,,,2262,111.2000131,31.99999404,1,0,0,response1disk,,6,21.60006059,-6.4373E-06,1,0,0,rectangle,21.60006059,-6.4373E-06,1,0,0,21.60006059,-6.4373E-06,1,0,0,0,54,54,134,1,,,,,,,,
,,,,,,,,,,,,,FF,,,,,,,,2.1699,,,,,,,,,,,,,,,,,,,,,,60fcc9c1ead2e823344601ee,61036fd26cdb339bf6185753,2021-07-29_23h21.43.519,Simcolourproject_2stim_asymm_v5,2020.2.10,Win32,60,61025ae37ef11b136ea224fe,,,,,,,,,470,-34.39994024,-68.00000745,1,0,0,response5disk,,3,3.200011492,-1.600006461,1,0,0,rectangle,3.200011492,-1.600006461,1,0,0,3.200011492,-1.600006461,1,0,0,0,55,55,139,1,,,,,,,,
,,,,,,,,,,,,,FF,,,,,,,,0.7128,,,,,,,,,,,,,,,,,,,,,,60fcc9c1ead2e823344601ee,61036fd26cdb339bf6185753,2021-07-29_23h21.43.519,Simcolourproject_2stim_asymm_v5,2020.2.10,Win32,60,61025ae37ef11b136ea224fe,,,,,,,,,1645,79.20001262,28.79999399,1,0,0,response1disk,,6,16.80001169,-6.400006533,1,0,0,rectangle,16.80001169,-6.400006533,1,0,0,16.80001169,-6.400006533,1,0,0,0,56,56,157,1,,,,,,,,
,,,,,,,,,,,,,FF,,,,,,,,0.982,,,,,,,,,,,,,,,,,,,,,,60fcc9c1ead2e823344601ee,61036fd26cdb339bf6185753,2021-07-29_23h21.43.519,Simcolourproject_2stim_asymm_v5,2020.2.10,Win32,60,61025ae37ef11b136ea224fe,,,,,,,,,4051,-55.99998939,-79.20000762,1,0,0,response5disk,,3,-36.7999891,3.999993622,1,0,0,rectangle,-36.7999891,3.999993622,1,0,0,-36.7999891,3.999993622,1,0,0,0,57,57,78,1,,,,,,,,
,,,,,,,,,,,,,FF,,,,,,,,1.5412,,,,,,,,,,,,,,,,,,,,,,60fcc9c1ead2e823344601ee,61036fd26cdb339bf6185753,2021-07-29_23h21.43.519,Simcolourproject_2stim_asymm_v5,2020.2.10,Win32,60,61025ae37ef11b136ea224fe,,,,,,,,,2849,109.6000131,-47.20000714,1,0,0,response3disk,,5,36.00001198,-2.400006473,1,0,0,rectangle,36.00001198,-2.400006473,1,0,0,36.00001198,-2.400006473,1,0,0,0,58,58,19,1,,,,,,,,
,,,,,,,,,,,,,FF,,,,,,,,0.8617,,,,,,,,,,,,,,,,,,,,,,60fcc9c1ead2e823344601ee,61036fd26cdb339bf6185753,2021-07-29_23h21.43.519,Simcolourproject_2stim_asymm_v5,2020.2.10,Win32,60,61025ae37ef11b136ea224fe,,,,,,,,,3093,-111.1999902,-66.40000743,1,0,0,response5disk,,2,-17.59998882,8.799993694,1,0,0,rectangle,-17.59998882,8.799993694,1,0,0,-17.59998882,8.799993694,1,0,0,0,59,59,64,1,,,,,,,,
,,,,,,,,,,,,,FF,,,,,,,,0.9935,,,,,,,,,,,,,,,,,,,,,,60fcc9c1ead2e823344601ee,61036fd26cdb339bf6185753,2021-07-29_23h21.43.519,Simcolourproject_2stim_asymm_v5,2020.2.10,Win32,60,61025ae37ef11b136ea224fe,,,,,,,,,3547,109.6000131,-33.60000694,1,0,0,response3disk,,5,11.20001161,12.79999375,1,0,0,rectangle,11.20001161,12.79999375,1,0,0,11.20001161,12.79999375,1,0,0,0,60,60,92,1,,,,,,,,
,,,,,,,,,,,,,FF,,,,,,,,53.5123,,,,,,,,,,,,,,,,,,,,,,60fcc9c1ead2e823344601ee,61036fd26cdb339bf6185753,2021-07-29_23h21.43.519,Simcolourproject_2stim_asymm_v5,2020.2.10,Win32,60,61025ae37ef11b136ea224fe,,,,,,,,,2024,61.60001236,-92.80000782,1,0,0,response3disk,,4,21.60006059,-2.400006473,1,0,0,rectangle,21.60006059,-2.400006473,1,0,0,21.60006059,-2.400006473,1,0,0,0,61,61,126,1,,,,,,,,
,,,,,,,,,,,,,FF,,,,,,,,1.176,,,,,,,,,,,,,,,,,,,,,,60fcc9c1ead2e823344601ee,61036fd26cdb339bf6185753,2021-07-29_23h21.43.519,Simcolourproject_2stim_asymm_v5,2020.2.10,Win32,60,61025ae37ef11b136ea224fe,,,,,,,,,1688,-22.39994006,-104.000008,1,0,0,response5disk,,3,13.60006047,-12.00000662,1,0,0,rectangle,13.60006047,-12.00000662,1,0,0,13.60006047,-12.00000662,1,0,0,0,62,62,66,1,,,,,,,,
,,,,,,,,,,,,,FF,,,,,,,,0.613,,,,,,,,,,,,,,,,,,,,,,60fcc9c1ead2e823344601ee,61036fd26cdb339bf6185753,2021-07-29_23h21.43.519,Simcolourproject_2stim_asymm_v5,2020.2.10,Win32,60,61025ae37ef11b136ea224fe,,,,,,,,,3386,52.80001223,-82.40000767,1,0,0,response3disk,,4,13.60006047,-1.600006461,1,0,0,rectangle,13.60006047,-1.600006461,1,0,0,13.60006047,-1.600006461,1,0,0,0,63,63,62,1,,,,,,,,
,,,,,,,,,,,,,FF,,,,,,,,0.7785,,,,,,,,,,,,,,,,,,,,,,60fcc9c1ead2e823344601ee,61036fd26cdb339bf6185753,2021-07-29_23h21.43.519,Simcolourproject_2stim_asymm_v5,2020.2.10,Win32,60,61025ae37ef11b136ea224fe,,,,,,,,,2460,84.80001271,71.99999464,1,0,0,response1disk,,6,34.40001196,10.39999372,1,0,0,rectangle,34.40001196,10.39999372,1,0,0,34.40001196,10.39999372,1,0,0,0,64,64,22,1,,,,,,,,
,,,,,,,,,,,,,FF,,,,,,,,0.9111,,,,,,,,,,,,,,,,,,,,,,60fcc9c1ead2e823344601ee,61036fd26cdb339bf6185753,2021-07-29_23h21.43.519,Simcolourproject_2stim_asymm_v5,2020.2.10,Win32,60,61025ae37ef11b136ea224fe,,,,,,,,,933,102.400013,-46.40000713,1,0,0,response3disk,,5,33.60006077,1.599993587,1,0,0,rectangle,33.60006077,1.599993587,1,0,0,33.60006077,1.599993587,1,0,0,0,65,65,91,1,,,,,,,,
,,,,,,,,,,,,,FF,,,,,,,,1.3918,,,,,,,,,,,,,,,,,,,,,,60fcc9c1ead2e823344601ee,61036fd26cdb339bf6185753,2021-07-29_23h21.43.519,Simcolourproject_2stim_asymm_v5,2020.2.10,Win32,60,61025ae37ef11b136ea224fe,,,,,,,,,2164,-117.5999903,-44.8000071,1,0,0,response5disk,,2,-13.59998876,-4.800006509,1,0,0,rectangle,-13.59998876,-4.800006509,1,0,0,-13.59998876,-4.800006509,1,0,0,0,66,66,86,1,,,,,,,,
,,,,,,,,,,,,,FF,,,,,,,,0.6462,,,,,,,,,,,,,,,,,,,,,,60fcc9c1ead2e823344601ee,61036fd26cdb339bf6185753,2021-07-29_23h21.43.519,Simcolourproject_2stim_asymm_v5,2020.2.10,Win32,60,61025ae37ef11b136ea224fe,,,,,,,,,1724,60.00001234,-68.80000746,1,0,0,response3disk,,4,20.00001174,-15.20000666,1,0,0,rectangle,20.00001174,-15.20000666,1,0,0,20.00001174,-15.20000666,1,0,0,0,67,67,142,1,,,,,,,,
,,,,,,,,,,,,,FF,,,,,,,,0.7456,,,,,,,,,,,,,,,,,,,,,,60fcc9c1ead2e823344601ee,61036fd26cdb339bf6185753,2021-07-29_23h21.43.519,Simcolourproject_2stim_asymm_v5,2020.2.10,Win32,60,61025ae37ef11b136ea224fe,,,,,,,,,2776,-58.3999406,-48.00000715,1,0,0,response5disk,,2,-3.199988604,-7.200006545,1,0,0,rectangle,-3.199988604,-7.200006545,1,0,0,-3.199988604,-7.200006545,1,0,0,0,68,68,0,1,,,,,,,,
,,,,,,,,,,,,,FF,,,,,,,,1.1916,,,,,,,,,,,,,,,,,,,,,,60fcc9c1ead2e823344601ee,61036fd26cdb339bf6185753,2021-07-29_23h21.43.519,Simcolourproject_2stim_asymm_v5,2020.2.10,Win32,60,61025ae37ef11b136ea224fe,,,,,,,,,3095,-44.79998922,39.19996973,1,0,0,response7disk,,1,-21.59998888,-4.800006509,1,0,0,rectangle,-21.59998888,-4.800006509,1,0,0,-21.59998888,-4.800006509,1,0,0,0,69,69,143,1,,,,,,,,
,,,,,,,,,,,,,FF,,,,,,,,0.4629,,,,,,,,,,,,,,,,,,,,,,60fcc9c1ead2e823344601ee,61036fd26cdb339bf6185753,2021-07-29_23h21.43.519,Simcolourproject_2stim_asymm_v5,2020.2.10,Win32,60,61025ae37ef11b136ea224fe,,,,,,,,,1029,-32.79998904,-96.00000787,1,0,0,response5disk,,3,0.800011456,3.999993622,1,0,0,rectangle,0.800011456,3.999993622,1,0,0,0.800011456,3.999993622,1,0,0,0,70,70,28,1,,,,,,,,
,,,,,,,,,,,,,FF,,,,,,,,0.6792,,,,,,,,,,,,,,,,,,,,,,60fcc9c1ead2e823344601ee,61036fd26cdb339bf6185753,2021-07-29_23h21.43.519,Simcolourproject_2stim_asymm_v5,2020.2.10,Win32,60,61025ae37ef11b136ea224fe,,,,,,,,,1460,-37.59998912,98.39999503,1,0,0,response7disk,,0,-25.59998894,11.19999373,1,0,0,rectangle,-25.59998894,11.19999373,1,0,0,-25.59998894,11.19999373,1,0,0,0,71,71,132,1,,,,,,,,
,,,,,,,,,,,,,FF,,,,,,,,1.4253,,,,,,,,,,,,,,,,,,,,,,60fcc9c1ead2e823344601ee,61036fd26cdb339bf6185753,2021-07-29_23h21.43.519,Simcolourproject_2stim_asymm_v5,2020.2.10,Win32,60,61025ae37ef11b136ea224fe,,,,,,,,,870,-58.3999406,-93.60005666,1,0,0,response5disk,,3,-19.19998884,-4.000006497,1,0,0,rectangle,-19.19998884,-4.000006497,1,0,0,-19.19998884,-4.000006497,1,0,0,0,72,72,95,1,,,,,,,,
,,,,,,,,,,,,,FF,,,,,,,,0.7956,,,,,,,,,,,,,,,,,,,,,,60fcc9c1ead2e823344601ee,61036fd26cdb339bf6185753,2021-07-29_23h21.43.519,Simcolourproject_2stim_asymm_v5,2020.2.10,Win32,60,61025ae37ef11b136ea224fe,,,,,,,,,484,-37.59998912,-105.6000568,1,0,0,response5disk,,3,-6.399939823,-16.80000669,1,0,0,rectangle,-6.399939823,-16.80000669,1,0,0,-6.399939823,-16.80000669,1,0,0,0,73,73,159,1,,,,,,,,
,,,,,,,,,,,,,FF,,,,,,,,0.6454,,,,,,,,,,,,,,,,,,,,,,60fcc9c1ead2e823344601ee,61036fd26cdb339bf6185753,2021-07-29_23h21.43.519,Simcolourproject_2stim_asymm_v5,2020.2.10,Win32,60,61025ae37ef11b136ea224fe,,,,,,,,,2660,-31.19998902,63.99999452,1,0,0,response7disk,,0,1.14441E-05,2.399993598,1,0,0,rectangle,1.14441E-05,2.399993598,1,0,0,1.14441E-05,2.399993598,1,0,0,0,74,74,98,1,,,,,,,,
,,,,,,,,,,,,,FF,,,,,,,,0.812,,,,,,,,,,,,,,,,,,,,,,60fcc9c1ead2e823344601ee,61036fd26cdb339bf6185753,2021-07-29_23h21.43.519,Simcolourproject_2stim_asymm_v5,2020.2.10,Win32,60,61025ae37ef11b136ea224fe,,,,,,,,,2324,-21.59998888,-68.00000745,1,0,0,response5disk,,3,15.20001167,11.99999374,1,0,0,rectangle,15.20001167,11.99999374,1,0,0,15.20001167,11.99999374,1,0,0,0,75,75,24,1,,,,,,,,
,,,,,,,,,,,,,FF,,,,,,,,0.6474,,,,,,,,,,,,,,,,,,,,,,60fcc9c1ead2e823344601ee,61036fd26cdb339bf6185753,2021-07-29_23h21.43.519,Simcolourproject_2stim_asymm_v5,2020.2.10,Win32,60,61025ae37ef11b136ea224fe,,,,,,,,,4033,32.00001192,-72.00000751,1,0,0,response3disk,,4,14.40001166,-11.2000066,1,0,0,rectangle,14.40001166,-11.2000066,1,0,0,14.40001166,-11.2000066,1,0,0,0,76,76,118,1,,,,,,,,
,,,,,,,,,,,,,FF,,,,,,,,0.8784,,,,,,,,,,,,,,,,,,,,,,60fcc9c1ead2e823344601ee,61036fd26cdb339bf6185753,2021-07-29_23h21.43.519,Simcolourproject_2stim_asymm_v5,2020.2.10,Win32,60,61025ae37ef11b136ea224fe,,,,,,,,,43,68.00001246,-37.600007,1,0,0,response3disk,,5,6.400011539,0.799993575,1,0,0,rectangle,6.400011539,0.799993575,1,0,0,6.400011539,0.799993575,1,0,0,0,77,77,111,1,,,,,,,,
,,,,,,,,,,,,,FF,,,,,,,,0.5632,,,,,,,,,,,,,,,,,,,,,,60fcc9c1ead2e823344601ee,61036fd26cdb339bf6185753,2021-07-29_23h21.43.519,Simcolourproject_2stim_asymm_v5,2020.2.10,Win32,60,61025ae37ef11b136ea224fe,,,,,,,,,1315,-25.59998894,-78.40000761,1,0,0,response5disk,,3,20.80001175,-1.600006461,1,0,0,rectangle,20.80001175,-1.600006461,1,0,0,20.80001175,-1.600006461,1,0,0,0,78,78,56,1,,,,,,,,
,,,,,,,,,,,,,FF,,,,,,,,0.5798,,,,,,,,,,,,,,,,,,,,,,60fcc9c1ead2e823344601ee,61036fd26cdb339bf6185753,2021-07-29_23h21.43.519,Simcolourproject_2stim_asymm_v5,2020.2.10,Win32,60,61025ae37ef11b136ea224fe,,,,,,,,,3693,32.80001193,-82.40000767,1,0,0,response3disk,,4,18.40001172,-10.40000659,1,0,0,rectangle,18.40001172,-10.40000659,1,0,0,18.40001172,-10.40000659,1,0,0,0,79,79,21,1,,,,,,,,
,,,,,,,,,,,,,FF,,,,,,,,0.7621,,,,,,,,,,,,,,,,,,,,,,60fcc9c1ead2e823344601ee,61036fd26cdb339bf6185753,2021-07-29_23h21.43.519,Simcolourproject_2stim_asymm_v5,2020.2.10,Win32,60,61025ae37ef11b136ea224fe,,,,,,,,,2829,56.00001228,-96.00000787,1,0,0,response3disk,,4,16.00001168,-1.600006461,1,0,0,rectangle,16.00001168,-1.600006461,1,0,0,16.00001168,-1.600006461,1,0,0,0,80,80,115,1,,,,,,,,
,,,,,,,,,,,,,FF,,,,,,,,0.8946,,,,,,,,,,,,,,,,,,,,,,60fcc9c1ead2e823344601ee,61036fd26cdb339bf6185753,2021-07-29_23h21.43.519,Simcolourproject_2stim_asymm_v5,2020.2.10,Win32,60,61025ae37ef11b136ea224fe,,,,,,,,,1610,-94.39994113,35.19996967,1,0,0,response7disk,,1,-28.79998899,3.19999361,1,0,0,rectangle,-28.79998899,3.19999361,1,0,0,-28.79998899,3.19999361,1,0,0,0,81,81,38,1,,,,,,,,
,,,,,,,,,,,,,FF,,,,,,,,1.5074,,,,,,,,,,,,,,,,,,,,,,60fcc9c1ead2e823344601ee,61036fd26cdb339bf6185753,2021-07-29_23h21.43.519,Simcolourproject_2stim_asymm_v5,2020.2.10,Win32,60,61025ae37ef11b136ea224fe,,,,,,,,,270,82.40001267,-48.00000715,1,0,0,response3disk,,5,2.40001148,-2.400006473,1,0,0,rectangle,2.40001148,-2.400006473,1,0,0,2.40001148,-2.400006473,1,0,0,0,82,82,135,1,,,,,,,,
,,,,,,,,,,,,,FF,,,,,,,,0.7454,,,,,,,,,,,,,,,,,,,,,,60fcc9c1ead2e823344601ee,61036fd26cdb339bf6185753,2021-07-29_23h21.43.519,Simcolourproject_2stim_asymm_v5,2020.2.10,Win32,60,61025ae37ef11b136ea224fe,,,,,,,,,134,35.20001197,-80.80000764,1,0,0,response3disk,,4,-7.999988675,-4.000006497,1,0,0,rectangle,-7.999988675,-4.000006497,1,0,0,-7.999988675,-4.000006497,1,0,0,0,83,83,54,1,,,,,,,,
,,,,,,,,,,,,,FF,,,,,,,,0.6795,,,,,,,,,,,,,,,,,,,,,,60fcc9c1ead2e823344601ee,61036fd26cdb339bf6185753,2021-07-29_23h21.43.519,Simcolourproject_2stim_asymm_v5,2020.2.10,Win32,60,61025ae37ef11b136ea224fe,,,,,,,,,1394,-23.99998891,-78.40000761,1,0,0,response5disk,,3,-23.99998891,11.19999373,1,0,0,rectangle,-23.99998891,11.19999373,1,0,0,-23.99998891,11.19999373,1,0,0,0,84,84,59,1,,,,,,,,
,,,,,,,,,,,,,FF,,,,,,,,1.143,,,,,,,,,,,,,,,,,,,,,,60fcc9c1ead2e823344601ee,61036fd26cdb339bf6185753,2021-07-29_23h21.43.519,Simcolourproject_2stim_asymm_v5,2020.2.10,Win32,60,61025ae37ef11b136ea224fe,,,,,,,,,22,56.00001228,-25.60000682,1,0,0,response3disk,,5,-19.99998885,11.99999374,1,0,0,rectangle,-19.99998885,11.99999374,1,0,0,-19.99998885,11.99999374,1,0,0,0,85,85,2,1,,,,,,,,
,,,,,,,,,,,,,FF,,,,,,,,0.5963,,,,,,,,,,,,,,,,,,,,,,60fcc9c1ead2e823344601ee,61036fd26cdb339bf6185753,2021-07-29_23h21.43.519,Simcolourproject_2stim_asymm_v5,2020.2.10,Win32,60,61025ae37ef11b136ea224fe,,,,,,,,,437,22.40001178,-58.40000731,1,0,0,response3disk,,4,10.4000116,3.19999361,1,0,0,rectangle,10.4000116,3.19999361,1,0,0,10.4000116,3.19999361,1,0,0,0,86,86,108,1,,,,,,,,
,,,,,,,,,,,,,FF,,,,,,,,0.9776,,,,,,,,,,,,,,,,,,,,,,60fcc9c1ead2e823344601ee,61036fd26cdb339bf6185753,2021-07-29_23h21.43.519,Simcolourproject_2stim_asymm_v5,2020.2.10,Win32,60,61025ae37ef11b136ea224fe,,,,,,,,,1829,-98.39994119,-34.40000695,1,0,0,response5disk,,2,-23.1999889,11.99999374,1,0,0,rectangle,-23.1999889,11.99999374,1,0,0,-23.1999889,11.99999374,1,0,0,0,87,87,16,1,,,,,,,,
,,,,,,,,,,,,,FF,,,,,,,,1.3418,,,,,,,,,,,,,,,,,,,,,,60fcc9c1ead2e823344601ee,61036fd26cdb339bf6185753,2021-07-29_23h21.43.519,Simcolourproject_2stim_asymm_v5,2020.2.10,Win32,60,61025ae37ef11b136ea224fe,,,,,,,,,3897,92.80001283,55.19996997,1,0,0,response1disk,,6,32.00001192,-1.600006461,1,0,0,rectangle,-54.39994054,86.39999485,1,0,0,-2.399939764,-1.600006461,1,0,0,0,88,88,128,1,,response7disk_3,TRUE,0,0,"[216,220,242,201,278,251,302,152,295,314,185,289,288,89,209,252,51,34,283,31]",1.4426,rectangle
,,,,,,,,,,,,,FF,,,,,,,,0.6295,,,,,,,,,,,,,,,,,,,,,,60fcc9c1ead2e823344601ee,61036fd26cdb339bf6185753,2021-07-29_23h21.43.519,Simcolourproject_2stim_asymm_v5,2020.2.10,Win32,60,61025ae37ef11b136ea224fe,,,,,,,,,1505,-23.99998891,-59.20000732,1,0,0,response5disk,,3,-3.199988604,-7.200006545,1,0,0,rectangle,-3.199988604,-7.200006545,1,0,0,-3.199988604,-7.200006545,1,0,0,0,89,89,131,1,,,,,,,,
,,,,,,,,,,,,,FF,,,,,,,,0.6129,,,,,,,,,,,,,,,,,,,,,,60fcc9c1ead2e823344601ee,61036fd26cdb339bf6185753,2021-07-29_23h21.43.519,Simcolourproject_2stim_asymm_v5,2020.2.10,Win32,60,61025ae37ef11b136ea224fe,,,,,,,,,1552,48.00001216,-74.40000755,1,0,0,response3disk,,4,32.80001193,-9.60000658,1,0,0,rectangle,32.80001193,-9.60000658,1,0,0,32.80001193,-9.60000658,1,0,0,0,90,90,70,1,,,,,,,,
,,,,,,,,,,,,,FF,,,,,,,,0.4128,,,,,,,,,,,,,,,,,,,,,,60fcc9c1ead2e823344601ee,61036fd26cdb339bf6185753,2021-07-29_23h21.43.519,Simcolourproject_2stim_asymm_v5,2020.2.10,Win32,60,61025ae37ef11b136ea224fe,,,,,,,,,1005,104.000013,-82.40000767,1,0,0,response3disk,,5,23.20001179,-10.40000659,1,0,0,rectangle,23.20001179,-10.40000659,1,0,0,23.20001179,-10.40000659,1,0,0,0,91,91,40,1,,,,,,,,
,,,,,,,,,,,,,FF,,,,,,,,0.4806,,,,,,,,,,,,,,,,,,,,,,60fcc9c1ead2e823344601ee,61036fd26cdb339bf6185753,2021-07-29_23h21.43.519,Simcolourproject_2stim_asymm_v5,2020.2.10,Win32,60,61025ae37ef11b136ea224fe,,,,,,,,,419,71.20001251,-45.60000712,1,0,0,response3disk,,5,20.00001174,3.999993622,1,0,0,rectangle,20.00001174,3.999993622,1,0,0,20.00001174,3.999993622,1,0,0,0,92,92,12,1,,,,,,,,
,,,,,,,,,,,,,FF,,,,,,,,0.4965,,,,,,,,,,,,,,,,,,,,,,60fcc9c1ead2e823344601ee,61036fd26cdb339bf6185753,2021-07-29_23h21.43.519,Simcolourproject_2stim_asymm_v5,2020.2.10,Win32,60,61025ae37ef11b136ea224fe,,,,,,,,,1585,75.20001256,-44.00000709,1,0,0,response3disk,,5,28.80001187,-2.400006473,1,0,0,rectangle,28.80001187,-2.400006473,1,0,0,28.80001187,-2.400006473,1,0,0,0,93,93,35,1,,,,,,,,
,,,,,,,,,,,,,FF,,,,,,,,0.6962,,,,,,,,,,,,,,,,,,,,,,60fcc9c1ead2e823344601ee,61036fd26cdb339bf6185753,2021-07-29_23h21.43.519,Simcolourproject_2stim_asymm_v5,2020.2.10,Win32,60,61025ae37ef11b136ea224fe,,,,,,,,,239,46.40001214,-74.40000755,1,0,0,response3disk,,4,-0.799988568,-11.2000066,1,0,0,rectangle,-0.799988568,-11.2000066,1,0,0,-0.799988568,-11.2000066,1,0,0,0,94,94,119,1,,,,,,,,
,,,,,,,,,,,,,FF,,,,,,,,0.7452,,,,,,,,,,,,,,,,,,,,,,60fcc9c1ead2e823344601ee,61036fd26cdb339bf6185753,2021-07-29_23h21.43.519,Simcolourproject_2stim_asymm_v5,2020.2.10,Win32,60,61025ae37ef11b136ea224fe,,,,,,,,,2036,-51.99998933,-72.80000752,1,0,0,response5disk,,3,-16.79998881,11.19999373,1,0,0,rectangle,-16.79998881,11.19999373,1,0,0,-16.79998881,11.19999373,1,0,0,0,95,95,32,1,,,,,,,,
,,,,,,,,,,,,,FF,,,,,,,,0.9608,,,,,,,,,,,,,,,,,,,,,,60fcc9c1ead2e823344601ee,61036fd26cdb339bf6185753,2021-07-29_23h21.43.519,Simcolourproject_2stim_asymm_v5,2020.2.10,Win32,60,61025ae37ef11b136ea224fe,,,,,,,,,1551,-31.19998902,-92.80000782,1,0,0,response5disk,,3,-19.19998884,-13.60000664,1,0,0,rectangle,-19.19998884,-13.60000664,1,0,0,-19.19998884,-13.60000664,1,0,0,0,96,96,26,1,,,,,,,,
,,,,,,,,,,,,,FF,,,,,,,,1.1267,,,,,,,,,,,,,,,,,,,,,,60fcc9c1ead2e823344601ee,61036fd26cdb339bf6185753,2021-07-29_23h21.43.519,Simcolourproject_2stim_asymm_v5,2020.2.10,Win32,60,61025ae37ef11b136ea224fe,,,,,,,,,691,86.40001273,-44.8000071,1,0,0,response3disk,,5,19.20001173,4.799993634,1,0,0,rectangle,19.20001173,4.799993634,1,0,0,19.20001173,4.799993634,1,0,0,0,97,97,82,1,,,,,,,,
,,,,,,,,,,,,,FF,,,,,,,,0.5455,,,,,,,,,,,,,,,,,,,,,,60fcc9c1ead2e823344601ee,61036fd26cdb339bf6185753,2021-07-29_23h21.43.519,Simcolourproject_2stim_asymm_v5,2020.2.10,Win32,60,61025ae37ef11b136ea224fe,,,,,,,,,2938,54.40001225,-88.80000776,1,0,0,response3disk,,4,-7.199988663,-16.80000669,1,0,0,rectangle,-7.199988663,-16.80000669,1,0,0,-7.199988663,-16.80000669,1,0,0,0,98,98,75,1,,,,,,,,
,,,,,,,,,,,,,FF,,,,,,,,3.412,,,,,,,,,,,,,,,,,,,,,,60fcc9c1ead2e823344601ee,61036fd26cdb339bf6185753,2021-07-29_23h21.43.519,Simcolourproject_2stim_asymm_v5,2020.2.10,Win32,60,61025ae37ef11b136ea224fe,,,,,,,,,341,85.60001272,-39.20000702,1,0,0,response3disk,,5,21.60006059,-1.600006461,1,0,0,rectangle,21.60006059,-1.600006461,1,0,0,21.60006059,-1.600006461,1,0,0,0,99,99,36,1,,,,,,,,
,,,,,,,,,,,,,FF,,,,,,,,0.5964,,,,,,,,,,,,,,,,,,,,,,60fcc9c1ead2e823344601ee,61036fd26cdb339bf6185753,2021-07-29_23h21.43.519,Simcolourproject_2stim_asymm_v5,2020.2.10,Win32,60,61025ae37ef11b136ea224fe,,,,,,,,,2355,-24.79998893,66.39999455,1,0,0,response7disk,,0,0.800011456,-6.400006533,1,0,0,rectangle,0.800011456,-6.400006533,1,0,0,0.800011456,-6.400006533,1,0,0,0,100,100,149,1,,,,,,,,
,,,,,,,,,,,,,FF,,,,,,,,0.7961,,,,,,,,,,,,,,,,,,,,,,60fcc9c1ead2e823344601ee,61036fd26cdb339bf6185753,2021-07-29_23h21.43.519,Simcolourproject_2stim_asymm_v5,2020.2.10,Win32,60,61025ae37ef11b136ea224fe,,,,,,,,,60,68.00001246,-82.40000767,1,0,0,response3disk,,4,-9.599988699,-2.400006473,1,0,0,rectangle,-9.599988699,-2.400006473,1,0,0,-9.599988699,-2.400006473,1,0,0,0,101,101,97,1,,,,,,,,
,,,,,,,,,,,,,FF,,,,,,,,0.7956,,,,,,,,,,,,,,,,,,,,,,60fcc9c1ead2e823344601ee,61036fd26cdb339bf6185753,2021-07-29_23h21.43.519,Simcolourproject_2stim_asymm_v5,2020.2.10,Win32,60,61025ae37ef11b136ea224fe,,,,,,,,,3724,98.40001291,-36.80000699,1,0,0,response3disk,,5,12.80001163,3.999993622,1,0,0,rectangle,12.80001163,3.999993622,1,0,0,12.80001163,3.999993622,1,0,0,0,102,102,81,1,,,,,,,,
,,,,,,,,,,,,,FF,,,,,,,,1.0448,,,,,,,,,,,,,,,,,,,,,,60fcc9c1ead2e823344601ee,61036fd26cdb339bf6185753,2021-07-29_23h21.43.519,Simcolourproject_2stim_asymm_v5,2020.2.10,Win32,60,61025ae37ef11b136ea224fe,,,,,,,,,756,34.40001196,-80.00000763,1,0,0,response3disk,,4,-0.799988568,-7.200006545,1,0,0,rectangle,-0.799988568,-7.200006545,1,0,0,-0.799988568,-7.200006545,1,0,0,0,103,103,8,1,,,,,,,,
,,,,,,,,,,,,,FF,,,,,,,,0.8618,,,,,,,,,,,,,,,,,,,,,,60fcc9c1ead2e823344601ee,61036fd26cdb339bf6185753,2021-07-29_23h21.43.519,Simcolourproject_2stim_asymm_v5,2020.2.10,Win32,60,61025ae37ef11b136ea224fe,,,,,,,,,182,89.60001278,-42.40000707,1,0,0,response3disk,,5,22.40001178,-4.800006509,1,0,0,rectangle,22.40001178,-4.800006509,1,0,0,22.40001178,-4.800006509,1,0,0,0,104,104,141,1,,,,,,,,
,,,,,,,,,,,,,FF,,,,,,,,0.8781,,,,,,,,,,,,,,,,,,,,,,60fcc9c1ead2e823344601ee,61036fd26cdb339bf6185753,2021-07-29_23h21.43.519,Simcolourproject_2stim_asymm_v5,2020.2.10,Win32,60,61025ae37ef11b136ea224fe,,,,,,,,,565,-20.79998887,-86.40000772,1,0,0,response5disk,,3,-0.799988568,-8.000006557,1,0,0,rectangle,-0.799988568,-8.000006557,1,0,0,-0.799988568,-8.000006557,1,0,0,0,105,105,63,1,,,,,,,,
,,,,,,,,,,,,,FF,,,,,,,,0.9767,,,,,,,,,,,,,,,,,,,,,,60fcc9c1ead2e823344601ee,61036fd26cdb339bf6185753,2021-07-29_23h21.43.519,Simcolourproject_2stim_asymm_v5,2020.2.10,Win32,60,61025ae37ef11b136ea224fe,,,,,,,,,1828,-84.79998982,35.19996967,1,0,0,response7disk,,1,-10.39993988,9.599993706,1,0,0,rectangle,-10.39993988,9.599993706,1,0,0,-10.39993988,9.599993706,1,0,0,0,106,106,72,1,,,,,,,,
,,,,,,,,,,,,,FF,,,,,,,,0.6959,,,,,,,,,,,,,,,,,,,,,,60fcc9c1ead2e823344601ee,61036fd26cdb339bf6185753,2021-07-29_23h21.43.519,Simcolourproject_2stim_asymm_v5,2020.2.10,Win32,60,61025ae37ef11b136ea224fe,,,,,,,,,2322,95.20001286,-32.80000693,1,0,0,response3disk,,5,-14.39993994,16.79999381,1,0,0,rectangle,-14.39993994,16.79999381,1,0,0,-14.39993994,16.79999381,1,0,0,0,107,107,14,1,,,,,,,,
,,,,,,,,,,,,,FF,,,,,,,,0.7787,,,,,,,,,,,,,,,,,,,,,,60fcc9c1ead2e823344601ee,61036fd26cdb339bf6185753,2021-07-29_23h21.43.519,Simcolourproject_2stim_asymm_v5,2020.2.10,Win32,60,61025ae37ef11b136ea224fe,,,,,,,,,1833,-90.39994107,-49.60000718,1,0,0,response5disk,,2,-26.39994012,-10.40000659,1,0,0,rectangle,-26.39994012,-10.40000659,1,0,0,-26.39994012,-10.40000659,1,0,0,0,108,108,123,1,,,,,,,,
,,,,,,,,,,,,,FF,,,,,,,,0.7125,,,,,,,,,,,,,,,,,,,,,,60fcc9c1ead2e823344601ee,61036fd26cdb339bf6185753,2021-07-29_23h21.43.519,Simcolourproject_2stim_asymm_v5,2020.2.10,Win32,60,61025ae37ef11b136ea224fe,,,,,,,,,2393,102.400013,-40.00000703,1,0,0,response3disk,,5,15.20001167,-8.800006568,1,0,0,rectangle,15.20001167,-8.800006568,1,0,0,15.20001167,-8.800006568,1,0,0,0,109,109,41,1,,,,,,,,
,,,,,,,,,,,,,FF,,,,,,,,0.63,,,,,,,,,,,,,,,,,,,,,,60fcc9c1ead2e823344601ee,61036fd26cdb339bf6185753,2021-07-29_23h21.43.519,Simcolourproject_2stim_asymm_v5,2020.2.10,Win32,60,61025ae37ef11b136ea224fe,,,,,,,,,1454,-25.59998894,66.39999455,1,0,0,response7disk,,0,28.00001186,-12.00000662,1,0,0,rectangle,28.00001186,-12.00000662,1,0,0,28.00001186,-12.00000662,1,0,0,0,110,110,48,1,,,,,,,,
,,,,,,,,,,,,,FF,,,,,,,,1.9381,,,,,,,,,,,,,,,,,,,,,,60fcc9c1ead2e823344601ee,61036fd26cdb339bf6185753,2021-07-29_23h21.43.519,Simcolourproject_2stim_asymm_v5,2020.2.10,Win32,60,61025ae37ef11b136ea224fe,,,,,,,,,4241,92.80001283,-44.8000071,1,0,0,response3disk,,5,31.20001191,-15.20000666,1,0,0,rectangle,31.20001191,-15.20000666,1,0,0,31.20001191,-15.20000666,1,0,0,0,111,111,136,1,,,,,,,,
,,,,,,,,,,,,,FF,,,,,,,,0.8286,,,,,,,,,,,,,,,,,,,,,,60fcc9c1ead2e823344601ee,61036fd26cdb339bf6185753,2021-07-29_23h21.43.519,Simcolourproject_2stim_asymm_v5,2020.2.10,Win32,60,61025ae37ef11b136ea224fe,,,,,,,,,3384,-109.5999902,43.19996979,1,0,0,response7disk,,1,-3.199988604,-6.4373E-06,1,0,0,rectangle,-3.199988604,-6.4373E-06,1,0,0,-3.199988604,-6.4373E-06,1,0,0,0,112,112,23,1,,,,,,,,
,,,,,,,,,,,,,FF,,,,,,,,1.3087,,,,,,,,,,,,,,,,,,,,,,60fcc9c1ead2e823344601ee,61036fd26cdb339bf6185753,2021-07-29_23h21.43.519,Simcolourproject_2stim_asymm_v5,2020.2.10,Win32,60,61025ae37ef11b136ea224fe,,,,,,,,,1083,-19.99998885,-51.2000072,1,0,0,response5disk,,3,15.20001167,-16.80000669,1,0,0,rectangle,15.20001167,-16.80000669,1,0,0,15.20001167,-16.80000669,1,0,0,0,113,113,15,1,,,,,,,,
,,,,,,,,,,,,,FF,,,,,,,,0.7955,,,,,,,,,,,,,,,,,,,,,,60fcc9c1ead2e823344601ee,61036fd26cdb339bf6185753,2021-07-29_23h21.43.519,Simcolourproject_2stim_asymm_v5,2020.2.10,Win32,60,61025ae37ef11b136ea224fe,,,,,,,,,3939,52.80001223,-90.40000778,1,0,0,response3disk,,4,18.40001172,-11.2000066,1,0,0,rectangle,18.40001172,-11.2000066,1,0,0,18.40001172,-11.2000066,1,0,0,0,114,114,52,1,,,,,,,,
,,,,,,,,,,,,,FF,,,,,,,,0.5124,,,,,,,,,,,,,,,,,,,,,,60fcc9c1ead2e823344601ee,61036fd26cdb339bf6185753,2021-07-29_23h21.43.519,Simcolourproject_2stim_asymm_v5,2020.2.10,Win32,60,61025ae37ef11b136ea224fe,,,,,,,,,2238,-31.99998903,-60.00000733,1,0,0,response5disk,,3,-4.799988627,-5.600006521,1,0,0,rectangle,-4.799988627,-5.600006521,1,0,0,-4.799988627,-5.600006521,1,0,0,0,115,115,71,1,,,,,,,,
,,,,,,,,,,,,,FF,,,,,,,,0.5301,,,,,,,,,,,,,,,,,,,,,,60fcc9c1ead2e823344601ee,61036fd26cdb339bf6185753,2021-07-29_23h21.43.519,Simcolourproject_2stim_asymm_v5,2020.2.10,Win32,60,61025ae37ef11b136ea224fe,,,,,,,,,2523,56.80001229,31.99999404,1,0,0,response1disk,,6,17.60006053,-8.000006557,1,0,0,rectangle,17.60006053,-8.000006557,1,0,0,17.60006053,-8.000006557,1,0,0,0,116,116,101,1,,,,,,,,
,,,,,,,,,,,,,FF,,,,,,,,1.3737,,,,,,,,,,,,,,,,,,,,,,60fcc9c1ead2e823344601ee,61036fd26cdb339bf6185753,2021-07-29_23h21.43.519,Simcolourproject_2stim_asymm_v5,2020.2.10,Win32,60,61025ae37ef11b136ea224fe,,,,,,,,,151,76.80001259,30.39999402,1,0,0,response1disk,,6,36.00001198,-1.600006461,1,0,0,rectangle,36.00001198,-1.600006461,1,0,0,36.00001198,-1.600006461,1,0,0,0,117,117,127,1,,,,,,,,
,,,,,,,,,,,,,FF,,,,,,,,1.2931,,,,,,,,,,,,,,,,,,,,,,60fcc9c1ead2e823344601ee,61036fd26cdb339bf6185753,2021-07-29_23h21.43.519,Simcolourproject_2stim_asymm_v5,2020.2.10,Win32,60,61025ae37ef11b136ea224fe,,,,,,,,,3956,108.0000131,23.99999392,1,0,0,response1disk,,6,36.00001198,-12.00000662,1,0,0,rectangle,36.00001198,-12.00000662,1,0,0,36.00001198,-12.00000662,1,0,0,0,118,118,13,1,,,,,,,,
,,,,,,,,,,,,,FF,,,,,,,,0.7624,,,,,,,,,,,,,,,,,,,,,,60fcc9c1ead2e823344601ee,61036fd26cdb339bf6185753,2021-07-29_23h21.43.519,Simcolourproject_2stim_asymm_v5,2020.2.10,Win32,60,61025ae37ef11b136ea224fe,,,,,,,,,3382,-60.79998946,25.59999394,1,0,0,response7disk,,1,10.4000116,-11.2000066,1,0,0,rectangle,10.4000116,-11.2000066,1,0,0,10.4000116,-11.2000066,1,0,0,0,119,119,100,1,,,,,,,,
,,,,,,,,,,,,,FF,,,,,,,,0.5634,,,,,,,,,,,,,,,,,,,,,,60fcc9c1ead2e823344601ee,61036fd26cdb339bf6185753,2021-07-29_23h21.43.519,Simcolourproject_2stim_asymm_v5,2020.2.10,Win32,60,61025ae37ef11b136ea224fe,,,,,,,,,2035,-22.39994006,-71.2000075,1,0,0,response5disk,,3,15.20001167,-16.80000669,1,0,0,rectangle,15.20001167,-16.80000669,1,0,0,15.20001167,-16.80000669,1,0,0,0,120,120,20,1,,,,,,,,
,,,,,,,,,,,,,FF,,,,,,,,0.6952,,,,,,,,,,,,,,,,,,,,,,60fcc9c1ead2e823344601ee,61036fd26cdb339bf6185753,2021-07-29_23h21.43.519,Simcolourproject_2stim_asymm_v5,2020.2.10,Win32,60,61025ae37ef11b136ea224fe,,,,,,,,,3008,108.0000131,-52.00000721,1,0,0,response3disk,,5,13.60006047,-12.80000663,1,0,0,rectangle,13.60006047,-12.80000663,1,0,0,13.60006047,-12.80000663,1,0,0,0,121,121,9,1,,,,,,,,
,,,,,,,,,,,,,FF,,,,,,,,0.6294,,,,,,,,,,,,,,,,,,,,,,60fcc9c1ead2e823344601ee,61036fd26cdb339bf6185753,2021-07-29_23h21.43.519,Simcolourproject_2stim_asymm_v5,2020.2.10,Win32,60,61025ae37ef11b136ea224fe,,,,,,,,,1867,49.60006101,-81.60005648,1,0,0,response3disk,,4,28.00001186,-14.40000665,1,0,0,rectangle,28.00001186,-14.40000665,1,0,0,28.00001186,-14.40000665,1,0,0,0,122,122,49,1,,,,,,,,
,,,,,,,,,,,,,FF,,,,,,,,1.3744,,,,,,,,,,,,,,,,,,,,,,60fcc9c1ead2e823344601ee,61036fd26cdb339bf6185753,2021-07-29_23h21.43.519,Simcolourproject_2stim_asymm_v5,2020.2.10,Win32,60,61025ae37ef11b136ea224fe,,,,,,,,,846,40.80001205,-82.40000767,1,0,0,response3disk,,4,20.00001174,-8.800006568,1,0,0,rectangle,20.00001174,-8.800006568,1,0,0,20.00001174,-8.800006568,1,0,0,0,123,123,110,1,,,,,,,,
,,,,,,,,,,,,,FF,,,,,,,,0.4809,,,,,,,,,,,,,,,,,,,,,,60fcc9c1ead2e823344601ee,61036fd26cdb339bf6185753,2021-07-29_23h21.43.519,Simcolourproject_2stim_asymm_v5,2020.2.10,Win32,60,61025ae37ef11b136ea224fe,,,,,,,,,3651,55.20001227,-37.600007,1,0,0,response3disk,,5,18.40001172,-6.400006533,1,0,0,rectangle,18.40001172,-6.400006533,1,0,0,18.40001172,-6.400006533,1,0,0,0,124,124,43,1,,,,,,,,
,,,,,,,,,,,,,FF,,,,,,,,0.5467,,,,,,,,,,,,,,,,,,,,,,60fcc9c1ead2e823344601ee,61036fd26cdb339bf6185753,2021-07-29_23h21.43.519,Simcolourproject_2stim_asymm_v5,2020.2.10,Win32,60,61025ae37ef11b136ea224fe,,,,,,,,,2960,-37.59998912,-68.80000746,1,0,0,response5disk,,3,9.600060415,-6.400006533,1,0,0,rectangle,9.600060415,-6.400006533,1,0,0,9.600060415,-6.400006533,1,0,0,0,125,125,11,1,,,,,,,,
,,,,,,,,,,,,,FF,,,,,,,,0.6958,,,,,,,,,,,,,,,,,,,,,,60fcc9c1ead2e823344601ee,61036fd26cdb339bf6185753,2021-07-29_23h21.43.519,Simcolourproject_2stim_asymm_v5,2020.2.10,Win32,60,61025ae37ef11b136ea224fe,,,,,,,,,1884,40.80001205,-85.60005654,1,0,0,response3disk,,4,28.80001187,-4.800006509,1,0,0,rectangle,28.80001187,-4.800006509,1,0,0,28.80001187,-4.800006509,1,0,0,0,126,126,84,1,,,,,,,,
,,,,,,,,,,,,,FF,,,,,,,,0.4965,,,,,,,,,,,,,,,,,,,,,,60fcc9c1ead2e823344601ee,61036fd26cdb339bf6185753,2021-07-29_23h21.43.519,Simcolourproject_2stim_asymm_v5,2020.2.10,Win32,60,61025ae37ef11b136ea224fe,,,,,,,,,1912,77.6000126,-60.00000733,1,0,0,response3disk,,5,30.4000119,-8.800006568,1,0,0,rectangle,30.4000119,-8.800006568,1,0,0,30.4000119,-8.800006568,1,0,0,0,127,127,34,1,,,,,,,,
,,,,,,,,,,,,,FF,,,,,,,,0.5466,,,,,,,,,,,,,,,,,,,,,,60fcc9c1ead2e823344601ee,61036fd26cdb339bf6185753,2021-07-29_23h21.43.519,Simcolourproject_2stim_asymm_v5,2020.2.10,Win32,60,61025ae37ef11b136ea224fe,,,,,,,,,167,58.40001231,-99.20000792,1,0,0,response3disk,,4,-1.59998858,-13.60000664,1,0,0,rectangle,-1.59998858,-13.60000664,1,0,0,-1.59998858,-13.60000664,1,0,0,0,128,128,87,1,,,,,,,,
,,,,,,,,,,,,,FF,,,,,,,,0.4803,,,,,,,,,,,,,,,,,,,,,,60fcc9c1ead2e823344601ee,61036fd26cdb339bf6185753,2021-07-29_23h21.43.519,Simcolourproject_2stim_asymm_v5,2020.2.10,Win32,60,61025ae37ef11b136ea224fe,,,,,,,,,1345,-29.599989,-85.60005654,1,0,0,response5disk,,3,12.80001163,12.79999375,1,0,0,rectangle,12.80001163,12.79999375,1,0,0,12.80001163,12.79999375,1,0,0,0,129,129,6,1,,,,,,,,
,,,,,,,,,,,,,FF,,,,,,,,1.5068,,,,,,,,,,,,,,,,,,,,,,60fcc9c1ead2e823344601ee,61036fd26cdb339bf6185753,2021-07-29_23h21.43.519,Simcolourproject_2stim_asymm_v5,2020.2.10,Win32,60,61025ae37ef11b136ea224fe,,,,,,,,,2070,-34.39994024,-78.40000761,1,0,0,response5disk,,3,33.60006077,-4.800006509,1,0,0,rectangle,33.60006077,-4.800006509,1,0,0,33.60006077,-4.800006509,1,0,0,0,130,130,147,1,,,,,,,,
,,,,,,,,,,,,,FF,,,,,,,,1.5902,,,,,,,,,,,,,,,,,,,,,,60fcc9c1ead2e823344601ee,61036fd26cdb339bf6185753,2021-07-29_23h21.43.519,Simcolourproject_2stim_asymm_v5,2020.2.10,Win32,60,61025ae37ef11b136ea224fe,,,,,,,,,858,97.6000129,37.59999412,1,0,0,response1disk,,6,28.00001186,1.599993587,1,0,0,rectangle,28.00001186,1.599993587,1,0,0,28.00001186,1.599993587,1,0,0,0,131,131,104,1,,,,,,,,
,,,,,,,,,,,,,FF,,,,,,,,0.762,,,,,,,,,,,,,,,,,,,,,,60fcc9c1ead2e823344601ee,61036fd26cdb339bf6185753,2021-07-29_23h21.43.519,Simcolourproject_2stim_asymm_v5,2020.2.10,Win32,60,61025ae37ef11b136ea224fe,,,,,,,,,774,79.20001262,32.79999405,1,0,0,response1disk,,6,-19.19998884,-11.2000066,1,0,0,rectangle,-19.19998884,-11.2000066,1,0,0,-19.19998884,-11.2000066,1,0,0,0,132,132,58,1,,,,,,,,
,,,,,,,,,,,,,FF,,,,,,,,0.5965,,,,,,,,,,,,,,,,,,,,,,60fcc9c1ead2e823344601ee,61036fd26cdb339bf6185753,2021-07-29_23h21.43.519,Simcolourproject_2stim_asymm_v5,2020.2.10,Win32,60,61025ae37ef11b136ea224fe,,,,,,,,,1904,-35.19998908,-91.2000078,1,0,0,response5disk,,3,22.40001178,-15.20000666,1,0,0,rectangle,22.40001178,-15.20000666,1,0,0,22.40001178,-15.20000666,1,0,0,0,133,133,124,1,,,,,,,,
,,,,,,,,,,,,,FF,,,,,,,,0.4467,,,,,,,,,,,,,,,,,,,,,,60fcc9c1ead2e823344601ee,61036fd26cdb339bf6185753,2021-07-29_23h21.43.519,Simcolourproject_2stim_asymm_v5,2020.2.10,Win32,60,61025ae37ef11b136ea224fe,,,,,,,,,3780,40.80001205,-70.40000749,1,0,0,response3disk,,4,11.20001161,-6.400006533,1,0,0,rectangle,11.20001161,-6.400006533,1,0,0,11.20001161,-6.400006533,1,0,0,0,134,134,5,1,,,,,,,,
,,,,,,,,,,,,,FF,,,,,,,,0.7788,,,,,,,,,,,,,,,,,,,,,,60fcc9c1ead2e823344601ee,61036fd26cdb339bf6185753,2021-07-29_23h21.43.519,Simcolourproject_2stim_asymm_v5,2020.2.10,Win32,60,61025ae37ef11b136ea224fe,,,,,,,,,2384,100.0000129,-51.2000072,1,0,0,response3disk,,5,-15.19998878,1.599993587,1,0,0,rectangle,-15.19998878,1.599993587,1,0,0,-15.19998878,1.599993587,1,0,0,0,135,135,129,1,,,,,,,,
,,,,,,,,,,,,,FF,,,,,,,,0.778,,,,,,,,,,,,,,,,,,,,,,60fcc9c1ead2e823344601ee,61036fd26cdb339bf6185753,2021-07-29_23h21.43.519,Simcolourproject_2stim_asymm_v5,2020.2.10,Win32,60,61025ae37ef11b136ea224fe,,,,,,,,,1814,42.40001208,-72.00000751,1,0,0,response3disk,,4,12.80001163,-16.00000668,1,0,0,rectangle,12.80001163,-16.00000668,1,0,0,12.80001163,-16.00000668,1,0,0,0,136,136,158,1,,,,,,,,
,,,,,,,,,,,,,FF,,,,,,,,0.9102,,,,,,,,,,,,,,,,,,,,,,60fcc9c1ead2e823344601ee,61036fd26cdb339bf6185753,2021-07-29_23h21.43.519,Simcolourproject_2stim_asymm_v5,2020.2.10,Win32,60,61025ae37ef11b136ea224fe,,,,,,,,,3295,51.20001221,-48.80000716,1,0,0,response3disk,,5,5.600060356,-8.000006557,1,0,0,rectangle,5.600060356,-8.000006557,1,0,0,5.600060356,-8.000006557,1,0,0,0,137,137,7,1,,,,,,,,
,,,,,,,,,,,,,FF,,,,,,,,0.5794,,,,,,,,,,,,,,,,,,,,,,60fcc9c1ead2e823344601ee,61036fd26cdb339bf6185753,2021-07-29_23h21.43.519,Simcolourproject_2stim_asymm_v5,2020.2.10,Win32,60,61025ae37ef11b136ea224fe,,,,,,,,,3503,53.60001224,-70.40000749,1,0,0,response3disk,,4,26.40001184,-15.20000666,1,0,0,rectangle,26.40001184,-15.20000666,1,0,0,26.40001184,-15.20000666,1,0,0,0,138,138,133,1,,,,,,,,
,,,,,,,,,,,,,FF,,,,,,,,1.3594,,,,,,,,,,,,,,,,,,,,,,60fcc9c1ead2e823344601ee,61036fd26cdb339bf6185753,2021-07-29_23h21.43.519,Simcolourproject_2stim_asymm_v5,2020.2.10,Win32,60,61025ae37ef11b136ea224fe,,,,,,,,,3922,-20.79998887,-57.6000073,1,0,0,response5disk,,3,27.20001185,-8.000006557,1,0,0,rectangle,27.20001185,-8.000006557,1,0,0,27.20001185,-8.000006557,1,0,0,0,139,139,37,1,,,,,,,,
,,,,,,,,,,,,,FF,,,,,,,,0.9277,,,,,,,,,,,,,,,,,,,,,,60fcc9c1ead2e823344601ee,61036fd26cdb339bf6185753,2021-07-29_23h21.43.519,Simcolourproject_2stim_asymm_v5,2020.2.10,Win32,60,61025ae37ef11b136ea224fe,,,,,,,,,779,-25.59998894,-80.80000764,1,0,0,response5disk,,3,7.200011551,-13.60000664,1,0,0,rectangle,7.200011551,-13.60000664,1,0,0,7.200011551,-13.60000664,1,0,0,0,140,140,140,1,,,,,,,,
,,,,,,,,,,,,,FF,,,,,,,,0.5783,,,,,,,,,,,,,,,,,,,,,,60fcc9c1ead2e823344601ee,61036fd26cdb339bf6185753,2021-07-29_23h21.43.519,Simcolourproject_2stim_asymm_v5,2020.2.10,Win32,60,61025ae37ef11b136ea224fe,,,,,,,,,108,45.60006095,-79.20000762,1,0,0,response3disk,,4,16.00001168,-15.20000666,1,0,0,rectangle,16.00001168,-15.20000666,1,0,0,16.00001168,-15.20000666,1,0,0,0,141,141,144,1,,,,,,,,
,,,,,,,,,,,,,FF,,,,,,,,0.4135,,,,,,,,,,,,,,,,,,,,,,60fcc9c1ead2e823344601ee,61036fd26cdb339bf6185753,2021-07-29_23h21.43.519,Simcolourproject_2stim_asymm_v5,2020.2.10,Win32,60,61025ae37ef11b136ea224fe,,,,,,,,,3583,32.80001193,-77.60000759,1,0,0,response3disk,,4,12.00001162,-13.60000664,1,0,0,rectangle,12.00001162,-13.60000664,1,0,0,12.00001162,-13.60000664,1,0,0,0,142,142,53,1,,,,,,,,
,,,,,,,,,,,,,FF,,,,,,,,0.3627,,,,,,,,,,,,,,,,,,,,,,60fcc9c1ead2e823344601ee,61036fd26cdb339bf6185753,2021-07-29_23h21.43.519,Simcolourproject_2stim_asymm_v5,2020.2.10,Win32,60,61025ae37ef11b136ea224fe,,,,,,,,,3455,-23.1999889,-78.40000761,1,0,0,response5disk,,3,16.00001168,-3.200006485,1,0,0,rectangle,16.00001168,-3.200006485,1,0,0,16.00001168,-3.200006485,1,0,0,0,143,143,96,1,,,,,,,,
,,,,,,,,,,,,,FF,,,,,,,,0.9931,,,,,,,,,,,,,,,,,,,,,,60fcc9c1ead2e823344601ee,61036fd26cdb339bf6185753,2021-07-29_23h21.43.519,Simcolourproject_2stim_asymm_v5,2020.2.10,Win32,60,61025ae37ef11b136ea224fe,,,,,,,,,72,-51.99998933,89.5999949,1,0,0,response7disk,,0,24.80001181,-4.800006509,1,0,0,rectangle,24.80001181,-4.800006509,1,0,0,24.80001181,-4.800006509,1,0,0,0,144,144,10,1,,,,,,,,
,,,,,,,,,,,,,FF,,,,,,,,17.3403,,,,,,,,,,,,,,,,,,,,,,60fcc9c1ead2e823344601ee,61036fd26cdb339bf6185753,2021-07-29_23h21.43.519,Simcolourproject_2stim_asymm_v5,2020.2.10,Win32,60,61025ae37ef11b136ea224fe,,,,,,,,,2132,100.8000129,-37.600007,1,0,0,response3disk,,5,24.0000118,3.999993622,1,0,0,rectangle,24.0000118,3.999993622,1,0,0,24.0000118,3.999993622,1,0,0,0,145,145,114,1,,,,,,,,
,,,,,,,,,,,,,FF,,,,,,,,0.6626,,,,,,,,,,,,,,,,,,,,,,60fcc9c1ead2e823344601ee,61036fd26cdb339bf6185753,2021-07-29_23h21.43.519,Simcolourproject_2stim_asymm_v5,2020.2.10,Win32,60,61025ae37ef11b136ea224fe,,,,,,,,,3426,-57.59998941,-105.6000568,1,0,0,response5disk,,3,16.80001169,-5.600006521,1,0,0,rectangle,16.80001169,-5.600006521,1,0,0,16.80001169,-5.600006521,1,0,0,0,146,146,155,1,,,,,,,,
,,,,,,,,,,,,,FF,,,,,,,,0.5958,,,,,,,,,,,,,,,,,,,,,,60fcc9c1ead2e823344601ee,61036fd26cdb339bf6185753,2021-07-29_23h21.43.519,Simcolourproject_2stim_asymm_v5,2020.2.10,Win32,60,61025ae37ef11b136ea224fe,,,,,,,,,1288,-46.39994042,-116.8000082,1,0,0,response5disk,,3,23.20001179,9.599993706,1,0,0,rectangle,23.20001179,9.599993706,1,0,0,23.20001179,9.599993706,1,0,0,0,147,147,90,1,,,,,,,,
,,,,,,,,,,,,,FF,,,,,,,,0.5472,,,,,,,,,,,,,,,,,,,,,,60fcc9c1ead2e823344601ee,61036fd26cdb339bf6185753,2021-07-29_23h21.43.519,Simcolourproject_2stim_asymm_v5,2020.2.10,Win32,60,61025ae37ef11b136ea224fe,,,,,,,,,1004,51.20001221,-77.60000759,1,0,0,response3disk,,4,-4.799988627,-6.400006533,1,0,0,rectangle,-4.799988627,-6.400006533,1,0,0,-4.799988627,-6.400006533,1,0,0,0,148,148,60,1,,,,,,,,
,,,,,,,,,,,,,FF,,,,,,,,0.6294,,,,,,,,,,,,,,,,,,,,,,60fcc9c1ead2e823344601ee,61036fd26cdb339bf6185753,2021-07-29_23h21.43.519,Simcolourproject_2stim_asymm_v5,2020.2.10,Win32,60,61025ae37ef11b136ea224fe,,,,,,,,,1601,-79.99998975,-47.20000714,1,0,0,response5disk,,2,1.14441E-05,13.59999377,1,0,0,rectangle,1.14441E-05,13.59999377,1,0,0,1.14441E-05,13.59999377,1,0,0,0,149,149,89,1,,,,,,,,
,,,,,,,,,,,,,FF,,,,,,,,0.775,,,,,,,,,,,,,,,,,,,,,,60fcc9c1ead2e823344601ee,61036fd26cdb339bf6185753,2021-07-29_23h21.43.519,Simcolourproject_2stim_asymm_v5,2020.2.10,Win32,60,61025ae37ef11b136ea224fe,,,,,,,,,2308,51.20001221,-87.20000774,1,0,0,response3disk,,4,14.40001166,-8.000006557,1,0,0,rectangle,14.40001166,-8.000006557,1,0,0,14.40001166,-8.000006557,1,0,0,0,150,150,125,1,,,,,,,,
,,,,,,,,,,,,,FF,,,,,,,,0.4973,,,,,,,,,,,,,,,,,,,,,,60fcc9c1ead2e823344601ee,61036fd26cdb339bf6185753,2021-07-29_23h21.43.519,Simcolourproject_2stim_asymm_v5,2020.2.10,Win32,60,61025ae37ef11b136ea224fe,,,,,,,,,404,35.20001197,-80.80000764,1,0,0,response3disk,,4,-0.799988568,-0.800006449,1,0,0,rectangle,-25.59998894,75.9999947,1,0,0,31.20001191,-1.600006461,1,0,0,0,151,151,138,1,,response7disk_3,TRUE,0,0,"[216,220,242,201,278,251,302,152,295,314,185,289,288,89,209,252,51,34,283,31]",1.2537,rectangle
,,,,,,,,,,,,,FF,,,,,,,,0.5848,,,,,,,,,,,,,,,,,,,,,,60fcc9c1ead2e823344601ee,61036fd26cdb339bf6185753,2021-07-29_23h21.43.519,Simcolourproject_2stim_asymm_v5,2020.2.10,Win32,60,61025ae37ef11b136ea224fe,,,,,,,,,2545,-29.599989,-59.20000732,1,0,0,response5disk,,3,3.200011492,7.999993682,1,0,0,rectangle,3.200011492,7.999993682,1,0,0,3.200011492,7.999993682,1,0,0,0,152,152,151,1,,,,,,,,
,,,,,,,,,,,,,FF,,,,,,,,0.761,,,,,,,,,,,,,,,,,,,,,,60fcc9c1ead2e823344601ee,61036fd26cdb339bf6185753,2021-07-29_23h21.43.519,Simcolourproject_2stim_asymm_v5,2020.2.10,Win32,60,61025ae37ef11b136ea224fe,,,,,,,,,3937,-85.59998983,-44.00000709,1,0,0,response5disk,,2,-5.599988639,-6.400006533,1,0,0,rectangle,-5.599988639,-6.400006533,1,0,0,-5.599988639,-6.400006533,1,0,0,0,153,153,33,1,,,,,,,,
,,,,,,,,,,,,,FF,,,,,,,,1.0276,,,,,,,,,,,,,,,,,,,,,,60fcc9c1ead2e823344601ee,61036fd26cdb339bf6185753,2021-07-29_23h21.43.519,Simcolourproject_2stim_asymm_v5,2020.2.10,Win32,60,61025ae37ef11b136ea224fe,,,,,,,,,2149,66.40001243,-49.60000718,1,0,0,response3disk,,5,20.00001174,-16.00000668,1,0,0,rectangle,20.00001174,-16.00000668,1,0,0,20.00001174,-16.00000668,1,0,0,0,154,154,152,1,,,,,,,,
,,,,,,,,,,,,,FF,,,,,,,,1.627,,,,,,,,,,,,,,,,,,,,,,60fcc9c1ead2e823344601ee,61036fd26cdb339bf6185753,2021-07-29_23h21.43.519,Simcolourproject_2stim_asymm_v5,2020.2.10,Win32,60,61025ae37ef11b136ea224fe,,,,,,,,,625,76.00001258,44.79999423,1,0,0,response1disk,,6,8.800011575,9.599993706,1,0,0,rectangle,8.800011575,9.599993706,1,0,0,8.800011575,9.599993706,1,0,0,0,155,155,46,1,,,,,,,,
,,,,,,,,,,,,,FF,,,,,,,,0.7955,,,,,,,,,,,,,,,,,,,,,,60fcc9c1ead2e823344601ee,61036fd26cdb339bf6185753,2021-07-29_23h21.43.519,Simcolourproject_2stim_asymm_v5,2020.2.10,Win32,60,61025ae37ef11b136ea224fe,,,,,,,,,2029,-47.19998926,-87.20000774,1,0,0,response5disk,,3,-24.79998893,-9.60000658,1,0,0,rectangle,-24.79998893,-9.60000658,1,0,0,-24.79998893,-9.60000658,1,0,0,0,156,156,68,1,,,,,,,,
,,,,,,,,,,,,,FF,,,,,,,,0.464,,,,,,,,,,,,,,,,,,,,,,60fcc9c1ead2e823344601ee,61036fd26cdb339bf6185753,2021-07-29_23h21.43.519,Simcolourproject_2stim_asymm_v5,2020.2.10,Win32,60,61025ae37ef11b136ea224fe,,,,,,,,,4059,-39.19998914,-57.6000073,1,0,0,response5disk,,3,-11.19998872,-4.800006509,1,0,0,rectangle,-11.19998872,-4.800006509,1,0,0,-11.19998872,-4.800006509,1,0,0,0,157,157,65,1,,,,,,,,
,,,,,,,,,,,,,FF,,,,,,,,1.1599,,,,,,,,,,,,,,,,,,,,,,60fcc9c1ead2e823344601ee,61036fd26cdb339bf6185753,2021-07-29_23h21.43.519,Simcolourproject_2stim_asymm_v5,2020.2.10,Win32,60,61025ae37ef11b136ea224fe,,,,,,,,,939,103.200013,-27.20000684,1,0,0,response3disk,,5,33.60006077,-4.800006509,1,0,0,rectangle,33.60006077,-4.800006509,1,0,0,33.60006077,-4.800006509,1,0,0,0,158,158,39,1,,,,,,,,
,,,,,,,,,,,,,FF,,,,,,,,0.8451,,,,,,,,,,,,,,,,,,,,,,60fcc9c1ead2e823344601ee,61036fd26cdb339bf6185753,2021-07-29_23h21.43.519,Simcolourproject_2stim_asymm_v5,2020.2.10,Win32,60,61025ae37ef11b136ea224fe,,,,,,,,,2448,-68.79998958,-71.2000075,1,0,0,response5disk,,3,16.00001168,-8.800006568,1,0,0,rectangle,16.00001168,-8.800006568,1,0,0,16.00001168,-8.800006568,1,0,0,0,159,159,107,1,,,,,,,,
,,,,,,,,,,,,,FF,,,,,,,,2.882,,,,,,,,,,,,,,,,,,,,,,60fcc9c1ead2e823344601ee,61036fd26cdb339bf6185753,2021-07-29_23h21.43.519,Simcolourproject_2stim_asymm_v5,2020.2.10,Win32,60,61025ae37ef11b136ea224fe,,,,,,,,,4256,-44.79998922,79.99999475,1,0,0,response7disk,,0,8.800011575,0.799993575,1,0,0,rectangle,8.800011575,0.799993575,1,0,0,8.800011575,0.799993575,1,0,0,1,0,160,85,1,,,,,,,,
,,,,,,,,,,,,,FF,,,,,,,,0.4649,,,,,,,,,,,,,,,,,,,,,,60fcc9c1ead2e823344601ee,61036fd26cdb339bf6185753,2021-07-29_23h21.43.519,Simcolourproject_2stim_asymm_v5,2020.2.10,Win32,60,61025ae37ef11b136ea224fe,,,,,,,,,2802,32.80001193,-47.20000714,1,0,0,response3disk,,4,4.800011516,-8.800006568,1,0,0,rectangle,4.800011516,-8.800006568,1,0,0,4.800011516,-8.800006568,1,0,0,1,1,161,32,1,,,,,,,,
,,,,,,,,,,,,,FF,,,,,,,,0.7282,,,,,,,,,,,,,,,,,,,,,,60fcc9c1ead2e823344601ee,61036fd26cdb339bf6185753,2021-07-29_23h21.43.519,Simcolourproject_2stim_asymm_v5,2020.2.10,Win32,60,61025ae37ef11b136ea224fe,,,,,,,,,2544,-45.59998924,-53.60000724,1,0,0,response5disk,,3,4.800011516,8.799993694,1,0,0,rectangle,4.800011516,8.799993694,1,0,0,4.800011516,8.799993694,1,0,0,1,2,162,96,1,,,,,,,,
,,,,,,,,,,,,,FF,,,,,,,,0.4471,,,,,,,,,,,,,,,,,,,,,,60fcc9c1ead2e823344601ee,61036fd26cdb339bf6185753,2021-07-29_23h21.43.519,Simcolourproject_2stim_asymm_v5,2020.2.10,Win32,60,61025ae37ef11b136ea224fe,,,,,,,,,282,-31.99998903,-104.000008,1,0,0,response5disk,,3,7.200011551,-8.800006568,1,0,0,rectangle,7.200011551,-8.800006568,1,0,0,7.200011551,-8.800006568,1,0,0,1,3,163,135,1,,,,,,,,
,,,,,,,,,,,,,FF,,,,,,,,0.3651,,,,,,,,,,,,,,,,,,,,,,60fcc9c1ead2e823344601ee,61036fd26cdb339bf6185753,2021-07-29_23h21.43.519,Simcolourproject_2stim_asymm_v5,2020.2.10,Win32,60,61025ae37ef11b136ea224fe,,,,,,,,,571,-64.79998952,-95.20000786,1,0,0,response5disk,,3,-4.799988627,-2.400006473,1,0,0,rectangle,-4.799988627,-2.400006473,1,0,0,-4.799988627,-2.400006473,1,0,0,1,4,164,53,1,,,,,,,,
,,,,,,,,,,,,,FF,,,,,,,,0.5305,,,,,,,,,,,,,,,,,,,,,,60fcc9c1ead2e823344601ee,61036fd26cdb339bf6185753,2021-07-29_23h21.43.519,Simcolourproject_2stim_asymm_v5,2020.2.10,Win32,60,61025ae37ef11b136ea224fe,,,,,,,,,3877,50.4000122,-79.20000762,1,0,0,response3disk,,4,37.60006083,2.399993598,1,0,0,rectangle,37.60006083,2.399993598,1,0,0,37.60006083,2.399993598,1,0,0,1,5,165,42,1,,,,,,,,
,,,,,,,,,,,,,FF,,,,,,,,0.3801,,,,,,,,,,,,,,,,,,,,,,60fcc9c1ead2e823344601ee,61036fd26cdb339bf6185753,2021-07-29_23h21.43.519,Simcolourproject_2stim_asymm_v5,2020.2.10,Win32,60,61025ae37ef11b136ea224fe,,,,,,,,,3089,-43.1999892,-80.00000763,1,0,0,response5disk,,3,0.800011456,-6.400006533,1,0,0,rectangle,0.800011456,-6.400006533,1,0,0,0.800011456,-6.400006533,1,0,0,1,6,166,89,1,,,,,,,,
,,,,,,,,,,,,,FF,,,,,,,,0.7459,,,,,,,,,,,,,,,,,,,,,,60fcc9c1ead2e823344601ee,61036fd26cdb339bf6185753,2021-07-29_23h21.43.519,Simcolourproject_2stim_asymm_v5,2020.2.10,Win32,60,61025ae37ef11b136ea224fe,,,,,,,,,1370,-90.39994107,43.99999422,1,0,0,response7disk,,1,0.800011456,8.799993694,1,0,0,rectangle,0.800011456,8.799993694,1,0,0,0.800011456,8.799993694,1,0,0,1,7,167,28,1,,,,,,,,
,,,,,,,,,,,,,FF,,,,,,,,0.6965,,,,,,,,,,,,,,,,,,,,,,60fcc9c1ead2e823344601ee,61036fd26cdb339bf6185753,2021-07-29_23h21.43.519,Simcolourproject_2stim_asymm_v5,2020.2.10,Win32,60,61025ae37ef11b136ea224fe,,,,,,,,,1171,64.0000124,-44.00000709,1,0,0,response3disk,,5,-1.59998858,-9.60000658,1,0,0,rectangle,-1.59998858,-9.60000658,1,0,0,-1.59998858,-9.60000658,1,0,0,1,8,168,13,1,,,,,,,,
,,,,,,,,,,,,,FF,,,,,,,,0.4312,,,,,,,,,,,,,,,,,,,,,,60fcc9c1ead2e823344601ee,61036fd26cdb339bf6185753,2021-07-29_23h21.43.519,Simcolourproject_2stim_asymm_v5,2020.2.10,Win32,60,61025ae37ef11b136ea224fe,,,,,,,,,3715,38.40001202,-65.60000741,1,0,0,response3disk,,4,20.80001175,-4.800006509,1,0,0,rectangle,20.80001175,-4.800006509,1,0,0,20.80001175,-4.800006509,1,0,0,1,9,169,105,1,,,,,,,,
,,,,,,,,,,,,,FF,,,,,,,,0.4301,,,,,,,,,,,,,,,,,,,,,,60fcc9c1ead2e823344601ee,61036fd26cdb339bf6185753,2021-07-29_23h21.43.519,Simcolourproject_2stim_asymm_v5,2020.2.10,Win32,60,61025ae37ef11b136ea224fe,,,,,,,,,2239,-31.99998903,-58.40000731,1,0,0,response5disk,,3,16.80001169,-6.4373E-06,1,0,0,rectangle,16.80001169,-6.4373E-06,1,0,0,16.80001169,-6.4373E-06,1,0,0,1,10,170,78,1,,,,,,,,
,,,,,,,,,,,,,FF,,,,,,,,0.2811,,,,,,,,,,,,,,,,,,,,,,60fcc9c1ead2e823344601ee,61036fd26cdb339bf6185753,2021-07-29_23h21.43.519,Simcolourproject_2stim_asymm_v5,2020.2.10,Win32,60,61025ae37ef11b136ea224fe,,,,,,,,,2814,-55.99998939,-83.20000768,1,0,0,response5disk,,3,-5.599988639,-15.20000666,1,0,0,rectangle,-5.599988639,-15.20000666,1,0,0,-5.599988639,-15.20000666,1,0,0,1,11,171,33,1,,,,,,,,
,,,,,,,,,,,,,FF,,,,,,,,0.4641,,,,,,,,,,,,,,,,,,,,,,60fcc9c1ead2e823344601ee,61036fd26cdb339bf6185753,2021-07-29_23h21.43.519,Simcolourproject_2stim_asymm_v5,2020.2.10,Win32,60,61025ae37ef11b136ea224fe,,,,,,,,,600,-39.19998914,-60.80000734,1,0,0,response5disk,,3,16.00001168,-3.200006485,1,0,0,rectangle,16.00001168,-3.200006485,1,0,0,16.00001168,-3.200006485,1,0,0,1,12,172,106,1,,,,,,,,
,,,,,,,,,,,,,FF,,,,,,,,0.6129,,,,,,,,,,,,,,,,,,,,,,60fcc9c1ead2e823344601ee,61036fd26cdb339bf6185753,2021-07-29_23h21.43.519,Simcolourproject_2stim_asymm_v5,2020.2.10,Win32,60,61025ae37ef11b136ea224fe,,,,,,,,,1271,38.40001202,-64.00000739,1,0,0,response3disk,,4,0.800011456,-3.200006485,1,0,0,rectangle,0.800011456,-3.200006485,1,0,0,0.800011456,-3.200006485,1,0,0,1,13,173,63,1,,,,,,,,
,,,,,,,,,,,,,FF,,,,,,,,0.4467,,,,,,,,,,,,,,,,,,,,,,60fcc9c1ead2e823344601ee,61036fd26cdb339bf6185753,2021-07-29_23h21.43.519,Simcolourproject_2stim_asymm_v5,2020.2.10,Win32,60,61025ae37ef11b136ea224fe,,,,,,,,,786,-26.39994012,-80.80000764,1,0,0,response5disk,,3,25.60006065,0.799993575,1,0,0,rectangle,25.60006065,0.799993575,1,0,0,25.60006065,0.799993575,1,0,0,1,14,174,82,1,,,,,,,,
,,,,,,,,,,,,,FF,,,,,,,,0.5635,,,,,,,,,,,,,,,,,,,,,,60fcc9c1ead2e823344601ee,61036fd26cdb339bf6185753,2021-07-29_23h21.43.519,Simcolourproject_2stim_asymm_v5,2020.2.10,Win32,60,61025ae37ef11b136ea224fe,,,,,,,,,901,-35.99998909,-69.60000747,1,0,0,response5disk,,3,12.80001163,-4.800006509,1,0,0,rectangle,12.80001163,-4.800006509,1,0,0,12.80001163,-4.800006509,1,0,0,1,15,175,159,1,,,,,,,,
,,,,,,,,,,,,,FF,,,,,,,,0.547,,,,,,,,,,,,,,,,,,,,,,60fcc9c1ead2e823344601ee,61036fd26cdb339bf6185753,2021-07-29_23h21.43.519,Simcolourproject_2stim_asymm_v5,2020.2.10,Win32,60,61025ae37ef11b136ea224fe,,,,,,,,,3681,31.20001191,-62.40000737,1,0,0,response3disk,,4,8.800011575,-0.800006449,1,0,0,rectangle,8.800011575,-0.800006449,1,0,0,8.800011575,-0.800006449,1,0,0,1,16,176,5,1,,,,,,,,
,,,,,,,,,,,,,FF,,,,,,,,0.5132,,,,,,,,,,,,,,,,,,,,,,60fcc9c1ead2e823344601ee,61036fd26cdb339bf6185753,2021-07-29_23h21.43.519,Simcolourproject_2stim_asymm_v5,2020.2.10,Win32,60,61025ae37ef11b136ea224fe,,,,,,,,,785,-58.3999406,-64.00000739,1,0,0,response5disk,,3,-17.59998882,10.39999372,1,0,0,rectangle,-17.59998882,10.39999372,1,0,0,-17.59998882,10.39999372,1,0,0,1,17,177,110,1,,,,,,,,
,,,,,,,,,,,,,FF,,,,,,,,0.6792,,,,,,,,,,,,,,,,,,,,,,60fcc9c1ead2e823344601ee,61036fd26cdb339bf6185753,2021-07-29_23h21.43.519,Simcolourproject_2stim_asymm_v5,2020.2.10,Win32,60,61025ae37ef11b136ea224fe,,,,,,,,,2385,22.40001178,-56.00000727,1,0,0,response3disk,,4,-9.599988699,-16.80000669,1,0,0,rectangle,-9.599988699,-16.80000669,1,0,0,-9.599988699,-16.80000669,1,0,0,1,18,178,52,1,,,,,,,,
,,,,,,,,,,,,,FF,,,,,,,,0.5967,,,,,,,,,,,,,,,,,,,,,,60fcc9c1ead2e823344601ee,61036fd26cdb339bf6185753,2021-07-29_23h21.43.519,Simcolourproject_2stim_asymm_v5,2020.2.10,Win32,60,61025ae37ef11b136ea224fe,,,,,,,,,135,64.0000124,-31.2000069,1,0,0,response3disk,,5,1.14441E-05,-14.40000665,1,0,0,rectangle,1.14441E-05,-14.40000665,1,0,0,1.14441E-05,-14.40000665,1,0,0,1,19,179,36,1,,,,,,,,
,,,,,,,,,,,,,FF,,,,,,,,0.7675,,,,,,,,,,,,,,,,,,,,,,60fcc9c1ead2e823344601ee,61036fd26cdb339bf6185753,2021-07-29_23h21.43.519,Simcolourproject_2stim_asymm_v5,2020.2.10,Win32,60,61025ae37ef11b136ea224fe,,,,,,,,,2176,-47.99998927,-65.60000741,1,0,0,response5disk,,3,-18.39994,-15.20000666,1,0,0,rectangle,-18.39994,-15.20000666,1,0,0,-18.39994,-15.20000666,1,0,0,1,20,180,62,1,,,,,,,,
,,,,,,,,,,,,,FF,,,,,,,,2.2528,,,,,,,,,,,,,,,,,,,,,,60fcc9c1ead2e823344601ee,61036fd26cdb339bf6185753,2021-07-29_23h21.43.519,Simcolourproject_2stim_asymm_v5,2020.2.10,Win32,60,61025ae37ef11b136ea224fe,,,,,,,,,3509,-47.99998927,-28.80000687,1,0,0,response5disk,,2,12.80001163,-3.200006485,1,0,0,rectangle,12.80001163,-3.200006485,1,0,0,12.80001163,-3.200006485,1,0,0,1,21,181,149,1,,,,,,,,
,,,,,,,,,,,,,FF,,,,,,,,0.729,,,,,,,,,,,,,,,,,,,,,,60fcc9c1ead2e823344601ee,61036fd26cdb339bf6185753,2021-07-29_23h21.43.519,Simcolourproject_2stim_asymm_v5,2020.2.10,Win32,60,61025ae37ef11b136ea224fe,,,,,,,,,521,-29.599989,-75.20000756,1,0,0,response5disk,,3,-13.59998876,-2.400006473,1,0,0,rectangle,-13.59998876,-2.400006473,1,0,0,-13.59998876,-2.400006473,1,0,0,1,22,182,131,1,,,,,,,,
,,,,,,,,,,,,,FF,,,,,,,,0.7637,,,,,,,,,,,,,,,,,,,,,,60fcc9c1ead2e823344601ee,61036fd26cdb339bf6185753,2021-07-29_23h21.43.519,Simcolourproject_2stim_asymm_v5,2020.2.10,Win32,60,61025ae37ef11b136ea224fe,,,,,,,,,9,-25.59998894,-72.00000751,1,0,0,response5disk,,3,12.00001162,7.999993682,1,0,0,rectangle,12.00001162,7.999993682,1,0,0,12.00001162,7.999993682,1,0,0,1,23,183,59,1,,,,,,,,
,,,,,,,,,,,,,FF,,,,,,,,0.4474,,,,,,,,,,,,,,,,,,,,,,60fcc9c1ead2e823344601ee,61036fd26cdb339bf6185753,2021-07-29_23h21.43.519,Simcolourproject_2stim_asymm_v5,2020.2.10,Win32,60,61025ae37ef11b136ea224fe,,,,,,,,,1679,-27.99998897,-79.20000762,1,0,0,response5disk,,3,16.80001169,4.799993634,1,0,0,rectangle,-59.99998945,-90.40000778,1,0,0,-9.599988699,0.799993575,1,0,0,1,24,184,95,1,,response5disk_3,TRUE,3,3,"[216,220,242,201,278,251,302,152,295,314,185,289,288,89,209,252,51,34,283,31]",1.8372,rectangle
,,,,,,,,,,,,,FF,,,,,,,,0.6463,,,,,,,,,,,,,,,,,,,,,,60fcc9c1ead2e823344601ee,61036fd26cdb339bf6185753,2021-07-29_23h21.43.519,Simcolourproject_2stim_asymm_v5,2020.2.10,Win32,60,61025ae37ef11b136ea224fe,,,,,,,,,74,-32.79998904,-66.40000743,1,0,0,response5disk,,3,8.000011563,-5.600006521,1,0,0,rectangle,8.000011563,-5.600006521,1,0,0,8.000011563,-5.600006521,1,0,0,1,25,185,66,1,,,,,,,,
,,,,,,,,,,,,,FF,,,,,,,,0.7448,,,,,,,,,,,,,,,,,,,,,,60fcc9c1ead2e823344601ee,61036fd26cdb339bf6185753,2021-07-29_23h21.43.519,Simcolourproject_2stim_asymm_v5,2020.2.10,Win32,60,61025ae37ef11b136ea224fe,,,,,,,,,3936,-41.59998918,60.79999447,1,0,0,response7disk,,0,-7.199988663,4.799993634,1,0,0,rectangle,-7.199988663,4.799993634,1,0,0,-7.199988663,4.799993634,1,0,0,1,26,186,31,1,,,,,,,,
,,,,,,,,,,,,,FF,,,,,,,,0.4301,,,,,,,,,,,,,,,,,,,,,,60fcc9c1ead2e823344601ee,61036fd26cdb339bf6185753,2021-07-29_23h21.43.519,Simcolourproject_2stim_asymm_v5,2020.2.10,Win32,60,61025ae37ef11b136ea224fe,,,,,,,,,3554,16.80001169,-53.60000724,1,0,0,response3disk,,4,4.800011516,-16.80000669,1,0,0,rectangle,4.800011516,-16.80000669,1,0,0,4.800011516,-16.80000669,1,0,0,1,27,187,16,1,,,,,,,,
,,,,,,,,,,,,,FF,,,,,,,,0.3815,,,,,,,,,,,,,,,,,,,,,,60fcc9c1ead2e823344601ee,61036fd26cdb339bf6185753,2021-07-29_23h21.43.519,Simcolourproject_2stim_asymm_v5,2020.2.10,Win32,60,61025ae37ef11b136ea224fe,,,,,,,,,386,-23.1999889,-69.60000747,1,0,0,response5disk,,3,-16.79998881,1.599993587,1,0,0,rectangle,-16.79998881,1.599993587,1,0,0,-16.79998881,1.599993587,1,0,0,1,28,188,86,1,,,,,,,,
,,,,,,,,,,,,,FF,,,,,,,,0.6131,,,,,,,,,,,,,,,,,,,,,,60fcc9c1ead2e823344601ee,61036fd26cdb339bf6185753,2021-07-29_23h21.43.519,Simcolourproject_2stim_asymm_v5,2020.2.10,Win32,60,61025ae37ef11b136ea224fe,,,,,,,,,1086,22.40001178,-62.40000737,1,0,0,response3disk,,4,3.200011492,-14.40000665,1,0,0,rectangle,3.200011492,-14.40000665,1,0,0,3.200011492,-14.40000665,1,0,0,1,29,189,6,1,,,,,,,,
,,,,,,,,,,,,,FF,,,,,,,,0.5633,,,,,,,,,,,,,,,,,,,,,,60fcc9c1ead2e823344601ee,61036fd26cdb339bf6185753,2021-07-29_23h21.43.519,Simcolourproject_2stim_asymm_v5,2020.2.10,Win32,60,61025ae37ef11b136ea224fe,,,,,,,,,2819,24.80001181,-80.80000764,1,0,0,response3disk,,4,15.20001167,-4.000006497,1,0,0,rectangle,15.20001167,-4.000006497,1,0,0,15.20001167,-4.000006497,1,0,0,1,30,190,112,1,,,,,,,,
,,,,,,,,,,,,,FF,,,,,,,,0.5285,,,,,,,,,,,,,,,,,,,,,,60fcc9c1ead2e823344601ee,61036fd26cdb339bf6185753,2021-07-29_23h21.43.519,Simcolourproject_2stim_asymm_v5,2020.2.10,Win32,60,61025ae37ef11b136ea224fe,,,,,,,,,1908,21.60006059,-77.60000759,1,0,0,response3disk,,4,2.40001148,-10.40000659,1,0,0,rectangle,2.40001148,-10.40000659,1,0,0,2.40001148,-10.40000659,1,0,0,1,31,191,19,1,,,,,,,,
,,,,,,,,,,,,,FF,,,,,,,,0.5794,,,,,,,,,,,,,,,,,,,,,,60fcc9c1ead2e823344601ee,61036fd26cdb339bf6185753,2021-07-29_23h21.43.519,Simcolourproject_2stim_asymm_v5,2020.2.10,Win32,60,61025ae37ef11b136ea224fe,,,,,,,,,2971,38.40001202,-68.00000745,1,0,0,response3disk,,4,20.00001174,12.79999375,1,0,0,rectangle,20.00001174,12.79999375,1,0,0,20.00001174,12.79999375,1,0,0,1,32,192,141,1,,,,,,,,
,,,,,,,,,,,,,FF,,,,,,,,0.5952,,,,,,,,,,,,,,,,,,,,,,60fcc9c1ead2e823344601ee,61036fd26cdb339bf6185753,2021-07-29_23h21.43.519,Simcolourproject_2stim_asymm_v5,2020.2.10,Win32,60,61025ae37ef11b136ea224fe,,,,,,,,,3924,-32.79998904,-110.4000081,1,0,0,response5disk,,3,20.80001175,-12.00000662,1,0,0,rectangle,20.80001175,-12.00000662,1,0,0,20.80001175,-12.00000662,1,0,0,1,33,193,116,1,,,,,,,,
,,,,,,,,,,,,,FF,,,,,,,,0.6288,,,,,,,,,,,,,,,,,,,,,,60fcc9c1ead2e823344601ee,61036fd26cdb339bf6185753,2021-07-29_23h21.43.519,Simcolourproject_2stim_asymm_v5,2020.2.10,Win32,60,61025ae37ef11b136ea224fe,,,,,,,,,2311,-23.99998891,-66.40000743,1,0,0,response5disk,,3,9.600060415,-12.80000663,1,0,0,rectangle,9.600060415,-12.80000663,1,0,0,9.600060415,-12.80000663,1,0,0,1,34,194,37,1,,,,,,,,
,,,,,,,,,,,,,FF,,,,,,,,0.5633,,,,,,,,,,,,,,,,,,,,,,60fcc9c1ead2e823344601ee,61036fd26cdb339bf6185753,2021-07-29_23h21.43.519,Simcolourproject_2stim_asymm_v5,2020.2.10,Win32,60,61025ae37ef11b136ea224fe,,,,,,,,,737,38.40001202,-58.40000731,1,0,0,response3disk,,4,26.40001184,-8.800006568,1,0,0,rectangle,26.40001184,-8.800006568,1,0,0,26.40001184,-8.800006568,1,0,0,1,35,195,8,1,,,,,,,,
,,,,,,,,,,,,,FF,,,,,,,,0.8613,,,,,,,,,,,,,,,,,,,,,,60fcc9c1ead2e823344601ee,61036fd26cdb339bf6185753,2021-07-29_23h21.43.519,Simcolourproject_2stim_asymm_v5,2020.2.10,Win32,60,61025ae37ef11b136ea224fe,,,,,,,,,980,-17.59998882,-108.000008,1,0,0,response5disk,,3,9.600060415,-10.40000659,1,0,0,rectangle,9.600060415,-10.40000659,1,0,0,9.600060415,-10.40000659,1,0,0,1,36,196,153,1,,,,,,,,
,,,,,,,,,,,,,FF,,,,,,,,0.4298,,,,,,,,,,,,,,,,,,,,,,60fcc9c1ead2e823344601ee,61036fd26cdb339bf6185753,2021-07-29_23h21.43.519,Simcolourproject_2stim_asymm_v5,2020.2.10,Win32,60,61025ae37ef11b136ea224fe,,,,,,,,,701,-33.59998906,-65.60000741,1,0,0,response5disk,,3,-10.39993988,-2.400006473,1,0,0,rectangle,-10.39993988,-2.400006473,1,0,0,-10.39993988,-2.400006473,1,0,0,1,37,197,81,1,,,,,,,,
,,,,,,,,,,,,,FF,,,,,,,,0.6624,,,,,,,,,,,,,,,,,,,,,,60fcc9c1ead2e823344601ee,61036fd26cdb339bf6185753,2021-07-29_23h21.43.519,Simcolourproject_2stim_asymm_v5,2020.2.10,Win32,60,61025ae37ef11b136ea224fe,,,,,,,,,2758,99.20001292,-52.80000722,1,0,0,response3disk,,5,28.80001187,-5.600006521,1,0,0,rectangle,28.80001187,-5.600006521,1,0,0,28.80001187,-5.600006521,1,0,0,1,38,198,147,1,,,,,,,,
,,,,,,,,,,,,,FF,,,,,,,,0.4808,,,,,,,,,,,,,,,,,,,,,,60fcc9c1ead2e823344601ee,61036fd26cdb339bf6185753,2021-07-29_23h21.43.519,Simcolourproject_2stim_asymm_v5,2020.2.10,Win32,60,61025ae37ef11b136ea224fe,,,,,,,,,3664,68.80001247,-54.40000725,1,0,0,response3disk,,5,26.40001184,-11.2000066,1,0,0,rectangle,26.40001184,-11.2000066,1,0,0,26.40001184,-11.2000066,1,0,0,1,39,199,115,1,,,,,,,,
,,,,,,,,,,,,,FF,,,,,,,,0.3649,,,,,,,,,,,,,,,,,,,,,,60fcc9c1ead2e823344601ee,61036fd26cdb339bf6185753,2021-07-29_23h21.43.519,Simcolourproject_2stim_asymm_v5,2020.2.10,Win32,60,61025ae37ef11b136ea224fe,,,,,,,,,1238,-17.59998882,-80.00000763,1,0,0,response5disk,,3,-7.199988663,-14.40000665,1,0,0,rectangle,-35.99998909,-84.8000077,1,0,0,-14.39993994,7.19999367,1,0,0,1,40,200,138,1,,response5disk_3,TRUE,3,3,"[216,220,242,201,278,251,302,152,295,314,185,289,288,89,209,252,51,34,283,31]",1.6892,rectangle
,,,,,,,,,,,,,FF,,,,,,,,0.5139,,,,,,,,,,,,,,,,,,,,,,60fcc9c1ead2e823344601ee,61036fd26cdb339bf6185753,2021-07-29_23h21.43.519,Simcolourproject_2stim_asymm_v5,2020.2.10,Win32,60,61025ae37ef11b136ea224fe,,,,,,,,,1380,-31.19998902,-57.6000073,1,0,0,response5disk,,3,9.600060415,6.399993658,1,0,0,rectangle,9.600060415,6.399993658,1,0,0,9.600060415,6.399993658,1,0,0,1,41,201,101,1,,,,,,,,
,,,,,,,,,,,,,FF,,,,,,,,0.4145,,,,,,,,,,,,,,,,,,,,,,60fcc9c1ead2e823344601ee,61036fd26cdb339bf6185753,2021-07-29_23h21.43.519,Simcolourproject_2stim_asymm_v5,2020.2.10,Win32,60,61025ae37ef11b136ea224fe,,,,,,,,,951,31.20001191,-63.20000738,1,0,0,response3disk,,4,18.40001172,0.799993575,1,0,0,rectangle,18.40001172,0.799993575,1,0,0,18.40001172,0.799993575,1,0,0,1,42,202,120,1,,,,,,,,
,,,,,,,,,,,,,FF,,,,,,,,0.3817,,,,,,,,,,,,,,,,,,,,,,60fcc9c1ead2e823344601ee,61036fd26cdb339bf6185753,2021-07-29_23h21.43.519,Simcolourproject_2stim_asymm_v5,2020.2.10,Win32,60,61025ae37ef11b136ea224fe,,,,,,,,,2373,-35.19998908,-45.60000712,1,0,0,response5disk,,3,-0.799988568,15.9999938,1,0,0,rectangle,-0.799988568,15.9999938,1,0,0,-0.799988568,15.9999938,1,0,0,1,43,203,88,1,,,,,,,,
,,,,,,,,,,,,,FF,,,,,,,,0.6624,,,,,,,,,,,,,,,,,,,,,,60fcc9c1ead2e823344601ee,61036fd26cdb339bf6185753,2021-07-29_23h21.43.519,Simcolourproject_2stim_asymm_v5,2020.2.10,Win32,60,61025ae37ef11b136ea224fe,,,,,,,,,3054,-43.99998921,-76.00000757,1,0,0,response5disk,,3,5.600060356,12.79999375,1,0,0,rectangle,5.600060356,12.79999375,1,0,0,5.600060356,12.79999375,1,0,0,1,44,204,122,1,,,,,,,,
,,,,,,,,,,,,,FF,,,,,,,,0.6629,,,,,,,,,,,,,,,,,,,,,,60fcc9c1ead2e823344601ee,61036fd26cdb339bf6185753,2021-07-29_23h21.43.519,Simcolourproject_2stim_asymm_v5,2020.2.10,Win32,60,61025ae37ef11b136ea224fe,,,,,,,,,711,30.4000119,-56.80000728,1,0,0,response3disk,,4,3.200011492,2.399993598,1,0,0,rectangle,3.200011492,2.399993598,1,0,0,3.200011492,2.399993598,1,0,0,1,45,205,51,1,,,,,,,,
,,,,,,,,,,,,,FF,,,,,,,,0.5633,,,,,,,,,,,,,,,,,,,,,,60fcc9c1ead2e823344601ee,61036fd26cdb339bf6185753,2021-07-29_23h21.43.519,Simcolourproject_2stim_asymm_v5,2020.2.10,Win32,60,61025ae37ef11b136ea224fe,,,,,,,,,2363,-78.3999409,-42.40000707,1,0,0,response5disk,,2,-11.19998872,12.79999375,1,0,0,rectangle,-11.19998872,12.79999375,1,0,0,-11.19998872,12.79999375,1,0,0,1,46,206,94,1,,,,,,,,
,,,,,,,,,,,,,FF,,,,,,,,0.315,,,,,,,,,,,,,,,,,,,,,,60fcc9c1ead2e823344601ee,61036fd26cdb339bf6185753,2021-07-29_23h21.43.519,Simcolourproject_2stim_asymm_v5,2020.2.10,Win32,60,61025ae37ef11b136ea224fe,,,,,,,,,2365,-35.19998908,-68.80000746,1,0,0,response5disk,,3,-13.59998876,9.599993706,1,0,0,rectangle,-13.59998876,9.599993706,1,0,0,-13.59998876,9.599993706,1,0,0,1,47,207,40,1,,,,,,,,
,,,,,,,,,,,,,FF,,,,,,,,0.7946,,,,,,,,,,,,,,,,,,,,,,60fcc9c1ead2e823344601ee,61036fd26cdb339bf6185753,2021-07-29_23h21.43.519,Simcolourproject_2stim_asymm_v5,2020.2.10,Win32,60,61025ae37ef11b136ea224fe,,,,,,,,,3520,-29.599989,-90.40000778,1,0,0,response5disk,,3,25.60006065,11.19999373,1,0,0,rectangle,76.00001258,-19.20000672,1,0,0,20.00001174,-6.400006533,1,0,0,1,48,208,79,1,,response3disk_3,TRUE,5,5,"[216,220,242,201,278,251,302,152,295,314,185,289,288,89,209,252,51,34,283,31]",1.5391,rectangle
,,,,,,,,,,,,,FF,,,,,,,,0.4309,,,,,,,,,,,,,,,,,,,,,,60fcc9c1ead2e823344601ee,61036fd26cdb339bf6185753,2021-07-29_23h21.43.519,Simcolourproject_2stim_asymm_v5,2020.2.10,Win32,60,61025ae37ef11b136ea224fe,,,,,,,,,3680,-27.19998896,-48.80000716,1,0,0,response5disk,,3,10.4000116,-2.400006473,1,0,0,rectangle,10.4000116,-2.400006473,1,0,0,10.4000116,-2.400006473,1,0,0,1,49,209,41,1,,,,,,,,
,,,,,,,,,,,,,FF,,,,,,,,0.363,,,,,,,,,,,,,,,,,,,,,,60fcc9c1ead2e823344601ee,61036fd26cdb339bf6185753,2021-07-29_23h21.43.519,Simcolourproject_2stim_asymm_v5,2020.2.10,Win32,60,61025ae37ef11b136ea224fe,,,,,,,,,2209,23.20001179,-52.80000722,1,0,0,response3disk,,4,13.60006047,-7.200006545,1,0,0,rectangle,13.60006047,-7.200006545,1,0,0,13.60006047,-7.200006545,1,0,0,1,50,210,46,1,,,,,,,,
,,,,,,,,,,,,,FF,,,,,,,,0.3646,,,,,,,,,,,,,,,,,,,,,,60fcc9c1ead2e823344601ee,61036fd26cdb339bf6185753,2021-07-29_23h21.43.519,Simcolourproject_2stim_asymm_v5,2020.2.10,Win32,60,61025ae37ef11b136ea224fe,,,,,,,,,944,32.00001192,-57.6000073,1,0,0,response3disk,,4,1.600060296,-12.80000663,1,0,0,rectangle,1.600060296,-12.80000663,1,0,0,1.600060296,-12.80000663,1,0,0,1,51,211,100,1,,,,,,,,
,,,,,,,,,,,,,FF,,,,,,,,0.4136,,,,,,,,,,,,,,,,,,,,,,60fcc9c1ead2e823344601ee,61036fd26cdb339bf6185753,2021-07-29_23h21.43.519,Simcolourproject_2stim_asymm_v5,2020.2.10,Win32,60,61025ae37ef11b136ea224fe,,,,,,,,,1917,-22.39994006,-60.80000734,1,0,0,response5disk,,3,15.20001167,1.599993587,1,0,0,rectangle,15.20001167,1.599993587,1,0,0,15.20001167,1.599993587,1,0,0,1,52,212,72,1,,,,,,,,
,,,,,,,,,,,,,FF,,,,,,,,1.0718,,,,,,,,,,,,,,,,,,,,,,60fcc9c1ead2e823344601ee,61036fd26cdb339bf6185753,2021-07-29_23h21.43.519,Simcolourproject_2stim_asymm_v5,2020.2.10,Win32,60,61025ae37ef11b136ea224fe,,,,,,,,,463,-47.99998927,-77.60000759,1,0,0,response5disk,,3,12.00001162,13.59999377,1,0,0,rectangle,12.00001162,13.59999377,1,0,0,12.00001162,13.59999377,1,0,0,1,53,213,54,1,,,,,,,,
,,,,,,,,,,,,,FF,,,,,,,,0.5598,,,,,,,,,,,,,,,,,,,,,,60fcc9c1ead2e823344601ee,61036fd26cdb339bf6185753,2021-07-29_23h21.43.519,Simcolourproject_2stim_asymm_v5,2020.2.10,Win32,60,61025ae37ef11b136ea224fe,,,,,,,,,2262,27.20001185,-65.60000741,1,0,0,response3disk,,4,16.00001168,-12.80000663,1,0,0,rectangle,16.00001168,-12.80000663,1,0,0,16.00001168,-12.80000663,1,0,0,1,54,214,98,1,,,,,,,,
,,,,,,,,,,,,,FF,,,,,,,,0.5636,,,,,,,,,,,,,,,,,,,,,,60fcc9c1ead2e823344601ee,61036fd26cdb339bf6185753,2021-07-29_23h21.43.519,Simcolourproject_2stim_asymm_v5,2020.2.10,Win32,60,61025ae37ef11b136ea224fe,,,,,,,,,470,-55.99998939,-85.60005654,1,0,0,response5disk,,3,8.800011575,-3.200006485,1,0,0,rectangle,-23.99998891,-89.6000566,1,0,0,7.200011551,-6.400006533,1,0,0,1,55,215,132,1,,response5disk_3,TRUE,3,3,"[216,220,242,201,278,251,302,152,295,314,185,289,288,89,209,252,51,34,283,31]",1.5441,rectangle
,,,,,,,,,,,,,FF,,,,,,,,0.6463,,,,,,,,,,,,,,,,,,,,,,60fcc9c1ead2e823344601ee,61036fd26cdb339bf6185753,2021-07-29_23h21.43.519,Simcolourproject_2stim_asymm_v5,2020.2.10,Win32,60,61025ae37ef11b136ea224fe,,,,,,,,,1645,-18.39994,-91.2000078,1,0,0,response5disk,,3,0.800011456,-8.800006568,1,0,0,rectangle,0.800011456,-8.800006568,1,0,0,0.800011456,-8.800006568,1,0,0,1,56,216,15,1,,,,,,,,
,,,,,,,,,,,,,FF,,,,,,,,0.5021,,,,,,,,,,,,,,,,,,,,,,60fcc9c1ead2e823344601ee,61036fd26cdb339bf6185753,2021-07-29_23h21.43.519,Simcolourproject_2stim_asymm_v5,2020.2.10,Win32,60,61025ae37ef11b136ea224fe,,,,,,,,,4051,-31.99998903,-72.00000751,1,0,0,response5disk,,3,1.14441E-05,12.79999375,1,0,0,rectangle,1.14441E-05,12.79999375,1,0,0,1.14441E-05,12.79999375,1,0,0,1,57,217,97,1,,,,,,,,
,,,,,,,,,,,,,FF,,,,,,,,0.5142,,,,,,,,,,,,,,,,,,,,,,60fcc9c1ead2e823344601ee,61036fd26cdb339bf6185753,2021-07-29_23h21.43.519,Simcolourproject_2stim_asymm_v5,2020.2.10,Win32,60,61025ae37ef11b136ea224fe,,,,,,,,,2849,36.00001198,-55.20000726,1,0,0,response3disk,,4,10.4000116,-12.00000662,1,0,0,rectangle,10.4000116,-12.00000662,1,0,0,10.4000116,-12.00000662,1,0,0,1,58,218,114,1,,,,,,,,
,,,,,,,,,,,,,FF,,,,,,,,0.8326,,,,,,,,,,,,,,,,,,,,,,60fcc9c1ead2e823344601ee,61036fd26cdb339bf6185753,2021-07-29_23h21.43.519,Simcolourproject_2stim_asymm_v5,2020.2.10,Win32,60,61025ae37ef11b136ea224fe,,,,,,,,,3093,-37.59998912,-96.00000787,1,0,0,response5disk,,3,6.400011539,4.799993634,1,0,0,rectangle,-17.59998882,62.39999449,1,0,0,-18.39994,-10.40000659,1,0,0,1,59,219,23,1,,response7disk_3,TRUE,0,0,"[216,220,242,201,278,251,302,152,295,314,185,289,288,89,209,252,51,34,283,31]",1.1763,rectangle
,,,,,,,,,,,,,FF,,,,,,,,0.6847,,,,,,,,,,,,,,,,,,,,,,60fcc9c1ead2e823344601ee,61036fd26cdb339bf6185753,2021-07-29_23h21.43.519,Simcolourproject_2stim_asymm_v5,2020.2.10,Win32,60,61025ae37ef11b136ea224fe,,,,,,,,,3547,-23.99998891,-70.40000749,1,0,0,response5disk,,3,-7.199988663,-10.40000659,1,0,0,rectangle,-7.199988663,-10.40000659,1,0,0,-7.199988663,-10.40000659,1,0,0,1,60,220,2,1,,,,,,,,
,,,,,,,,,,,,,FF,,,,,,,,0.4354,,,,,,,,,,,,,,,,,,,,,,60fcc9c1ead2e823344601ee,61036fd26cdb339bf6185753,2021-07-29_23h21.43.519,Simcolourproject_2stim_asymm_v5,2020.2.10,Win32,60,61025ae37ef11b136ea224fe,,,,,,,,,2024,-31.99998903,-77.60000759,1,0,0,response5disk,,3,21.60006059,7.999993682,1,0,0,rectangle,21.60006059,7.999993682,1,0,0,21.60006059,7.999993682,1,0,0,1,61,221,146,1,,,,,,,,
,,,,,,,,,,,,,FF,,,,,,,,0.9896,,,,,,,,,,,,,,,,,,,,,,60fcc9c1ead2e823344601ee,61036fd26cdb339bf6185753,2021-07-29_23h21.43.519,Simcolourproject_2stim_asymm_v5,2020.2.10,Win32,60,61025ae37ef11b136ea224fe,,,,,,,,,1688,-77.59998971,-63.20000738,1,0,0,response5disk,,2,-23.99998891,-8.000006557,1,0,0,rectangle,-23.99998891,-8.000006557,1,0,0,-23.99998891,-8.000006557,1,0,0,1,62,222,92,1,,,,,,,,
,,,,,,,,,,,,,FF,,,,,,,,0.9771,,,,,,,,,,,,,,,,,,,,,,60fcc9c1ead2e823344601ee,61036fd26cdb339bf6185753,2021-07-29_23h21.43.519,Simcolourproject_2stim_asymm_v5,2020.2.10,Win32,60,61025ae37ef11b136ea224fe,,,,,,,,,3386,-108.7999902,-46.40000713,1,0,0,response5disk,,2,-32.79998904,-4.000006497,1,0,0,rectangle,-32.79998904,-4.000006497,1,0,0,-32.79998904,-4.000006497,1,0,0,1,63,223,87,1,,,,,,,,
,,,,,,,,,,,,,FF,,,,,,,,0.762,,,,,,,,,,,,,,,,,,,,,,60fcc9c1ead2e823344601ee,61036fd26cdb339bf6185753,2021-07-29_23h21.43.519,Simcolourproject_2stim_asymm_v5,2020.2.10,Win32,60,61025ae37ef11b136ea224fe,,,,,,,,,2460,124.8000133,43.19996979,1,0,0,response1disk,,6,24.80001181,-6.400006533,1,0,0,rectangle,24.80001181,-6.400006533,1,0,0,24.80001181,-6.400006533,1,0,0,1,64,224,154,1,,,,,,,,
,,,,,,,,,,,,,FF,,,,,,,,0.961,,,,,,,,,,,,,,,,,,,,,,60fcc9c1ead2e823344601ee,61036fd26cdb339bf6185753,2021-07-29_23h21.43.519,Simcolourproject_2stim_asymm_v5,2020.2.10,Win32,60,61025ae37ef11b136ea224fe,,,,,,,,,933,21.60006059,-96.80000788,1,0,0,response3disk,,4,20.00001174,15.9999938,1,0,0,rectangle,20.00001174,15.9999938,1,0,0,20.00001174,15.9999938,1,0,0,1,65,225,140,1,,,,,,,,
,,,,,,,,,,,,,FF,,,,,,,,0.5297,,,,,,,,,,,,,,,,,,,,,,60fcc9c1ead2e823344601ee,61036fd26cdb339bf6185753,2021-07-29_23h21.43.519,Simcolourproject_2stim_asymm_v5,2020.2.10,Win32,60,61025ae37ef11b136ea224fe,,,,,,,,,2164,-65.59998953,-93.60005666,1,0,0,response5disk,,3,-35.99998909,-16.00000668,1,0,0,rectangle,-35.99998909,-16.00000668,1,0,0,-35.99998909,-16.00000668,1,0,0,1,66,226,157,1,,,,,,,,
,,,,,,,,,,,,,FF,,,,,,,,0.8115,,,,,,,,,,,,,,,,,,,,,,60fcc9c1ead2e823344601ee,61036fd26cdb339bf6185753,2021-07-29_23h21.43.519,Simcolourproject_2stim_asymm_v5,2020.2.10,Win32,60,61025ae37ef11b136ea224fe,,,,,,,,,1724,43.20001209,-73.60000753,1,0,0,response3disk,,4,4.800011516,-15.20000666,1,0,0,rectangle,4.800011516,-15.20000666,1,0,0,4.800011516,-15.20000666,1,0,0,1,67,227,136,1,,,,,,,,
,,,,,,,,,,,,,FF,,,,,,,,1.2589,,,,,,,,,,,,,,,,,,,,,,60fcc9c1ead2e823344601ee,61036fd26cdb339bf6185753,2021-07-29_23h21.43.519,Simcolourproject_2stim_asymm_v5,2020.2.10,Win32,60,61025ae37ef11b136ea224fe,,,,,,,,,2776,-104.7999901,-31.2000069,1,0,0,response5disk,,2,-24.79998893,3.19999361,1,0,0,rectangle,-24.79998893,3.19999361,1,0,0,-24.79998893,3.19999361,1,0,0,1,68,228,7,1,,,,,,,,
,,,,,,,,,,,,,FF,,,,,,,,0.6616,,,,,,,,,,,,,,,,,,,,,,60fcc9c1ead2e823344601ee,61036fd26cdb339bf6185753,2021-07-29_23h21.43.519,Simcolourproject_2stim_asymm_v5,2020.2.10,Win32,60,61025ae37ef11b136ea224fe,,,,,,,,,3095,80.80001265,-77.60000759,1,0,0,response3disk,,5,22.40001178,-12.80000663,1,0,0,rectangle,22.40001178,-12.80000663,1,0,0,22.40001178,-12.80000663,1,0,0,1,69,229,102,1,,,,,,,,
,,,,,,,,,,,,,FF,,,,,,,,0.6955,,,,,,,,,,,,,,,,,,,,,,60fcc9c1ead2e823344601ee,61036fd26cdb339bf6185753,2021-07-29_23h21.43.519,Simcolourproject_2stim_asymm_v5,2020.2.10,Win32,60,61025ae37ef11b136ea224fe,,,,,,,,,1029,-53.59998935,-105.6000568,1,0,0,response5disk,,3,16.00001168,-12.00000662,1,0,0,rectangle,16.00001168,-12.00000662,1,0,0,16.00001168,-12.00000662,1,0,0,1,70,230,27,1,,,,,,,,
,,,,,,,,,,,,,FF,,,,,,,,0.6454,,,,,,,,,,,,,,,,,,,,,,60fcc9c1ead2e823344601ee,61036fd26cdb339bf6185753,2021-07-29_23h21.43.519,Simcolourproject_2stim_asymm_v5,2020.2.10,Win32,60,61025ae37ef11b136ea224fe,,,,,,,,,1460,-39.19998914,47.99999428,1,0,0,response7disk,,0,-3.999988616,-8.000006557,1,0,0,rectangle,-3.999988616,-8.000006557,1,0,0,-3.999988616,-8.000006557,1,0,0,1,71,231,38,1,,,,,,,,
,,,,,,,,,,,,,FF,,,,,,,,0.4629,,,,,,,,,,,,,,,,,,,,,,60fcc9c1ead2e823344601ee,61036fd26cdb339bf6185753,2021-07-29_23h21.43.519,Simcolourproject_2stim_asymm_v5,2020.2.10,Win32,60,61025ae37ef11b136ea224fe,,,,,,,,,870,-30.39994018,-81.60005648,1,0,0,response5disk,,3,6.400011539,-8.800006568,1,0,0,rectangle,6.400011539,-8.800006568,1,0,0,6.400011539,-8.800006568,1,0,0,1,72,232,61,1,,,,,,,,
,,,,,,,,,,,,,FF,,,,,,,,0.7952,,,,,,,,,,,,,,,,,,,,,,60fcc9c1ead2e823344601ee,61036fd26cdb339bf6185753,2021-07-29_23h21.43.519,Simcolourproject_2stim_asymm_v5,2020.2.10,Win32,60,61025ae37ef11b136ea224fe,,,,,,,,,484,-40.79998916,-80.80000764,1,0,0,response5disk,,3,4.800011516,-12.00000662,1,0,0,rectangle,4.800011516,-12.00000662,1,0,0,4.800011516,-12.00000662,1,0,0,1,73,233,155,1,,,,,,,,
,,,,,,,,,,,,,FF,,,,,,,,0.6296,,,,,,,,,,,,,,,,,,,,,,60fcc9c1ead2e823344601ee,61036fd26cdb339bf6185753,2021-07-29_23h21.43.519,Simcolourproject_2stim_asymm_v5,2020.2.10,Win32,60,61025ae37ef11b136ea224fe,,,,,,,,,2660,-23.1999889,96.79999501,1,0,0,response7disk,,0,6.400011539,4.799993634,1,0,0,rectangle,6.400011539,4.799993634,1,0,0,6.400011539,4.799993634,1,0,0,1,74,234,109,1,,,,,,,,
,,,,,,,,,,,,,FF,,,,,,,,0.6458,,,,,,,,,,,,,,,,,,,,,,60fcc9c1ead2e823344601ee,61036fd26cdb339bf6185753,2021-07-29_23h21.43.519,Simcolourproject_2stim_asymm_v5,2020.2.10,Win32,60,61025ae37ef11b136ea224fe,,,,,,,,,2324,-23.1999889,-73.60000753,1,0,0,response5disk,,3,15.20001167,7.19999367,1,0,0,rectangle,15.20001167,7.19999367,1,0,0,15.20001167,7.19999367,1,0,0,1,75,235,48,1,,,,,,,,
,,,,,,,,,,,,,FF,,,,,,,,0.4124,,,,,,,,,,,,,,,,,,,,,,60fcc9c1ead2e823344601ee,61036fd26cdb339bf6185753,2021-07-29_23h21.43.519,Simcolourproject_2stim_asymm_v5,2020.2.10,Win32,60,61025ae37ef11b136ea224fe,,,,,,,,,4033,42.40001208,-71.2000075,1,0,0,response3disk,,4,19.20001173,-6.400006533,1,0,0,rectangle,19.20001173,-6.400006533,1,0,0,19.20001173,-6.400006533,1,0,0,1,76,236,76,1,,,,,,,,
,,,,,,,,,,,,,FF,,,,,,,,0.3473,,,,,,,,,,,,,,,,,,,,,,60fcc9c1ead2e823344601ee,61036fd26cdb339bf6185753,2021-07-29_23h21.43.519,Simcolourproject_2stim_asymm_v5,2020.2.10,Win32,60,61025ae37ef11b136ea224fe,,,,,,,,,43,50.4000122,-64.00000739,1,0,0,response3disk,,4,21.60006059,-11.2000066,1,0,0,rectangle,21.60006059,-11.2000066,1,0,0,21.60006059,-11.2000066,1,0,0,1,77,237,73,1,,,,,,,,
,,,,,,,,,,,,,FF,,,,,,,,0.7091,,,,,,,,,,,,,,,,,,,,,,60fcc9c1ead2e823344601ee,61036fd26cdb339bf6185753,2021-07-29_23h21.43.519,Simcolourproject_2stim_asymm_v5,2020.2.10,Win32,60,61025ae37ef11b136ea224fe,,,,,,,,,1315,50.4000122,-60.80000734,1,0,0,response3disk,,4,19.20001173,-2.400006473,1,0,0,rectangle,19.20001173,-2.400006473,1,0,0,19.20001173,-2.400006473,1,0,0,1,78,238,99,1,,,,,,,,
,,,,,,,,,,,,,FF,,,,,,,,0.364,,,,,,,,,,,,,,,,,,,,,,60fcc9c1ead2e823344601ee,61036fd26cdb339bf6185753,2021-07-29_23h21.43.519,Simcolourproject_2stim_asymm_v5,2020.2.10,Win32,60,61025ae37ef11b136ea224fe,,,,,,,,,3693,-46.39994042,-80.00000763,1,0,0,response5disk,,3,-3.199988604,-9.60000658,1,0,0,rectangle,-3.199988604,-9.60000658,1,0,0,-3.199988604,-9.60000658,1,0,0,1,79,239,108,1,,,,,,,,
,,,,,,,,,,,,,FF,,,,,,,,0.6949,,,,,,,,,,,,,,,,,,,,,,60fcc9c1ead2e823344601ee,61036fd26cdb339bf6185753,2021-07-29_23h21.43.519,Simcolourproject_2stim_asymm_v5,2020.2.10,Win32,60,61025ae37ef11b136ea224fe,,,,,,,,,2829,-41.59998918,-81.60005648,1,0,0,response5disk,,3,12.80001163,-8.000006557,1,0,0,rectangle,12.80001163,-8.000006557,1,0,0,12.80001163,-8.000006557,1,0,0,1,80,240,152,1,,,,,,,,
,,,,,,,,,,,,,FF,,,,,,,,0.132,,,,,,,,,,,,,,,,,,,,,,60fcc9c1ead2e823344601ee,61036fd26cdb339bf6185753,2021-07-29_23h21.43.519,Simcolourproject_2stim_asymm_v5,2020.2.10,Win32,60,61025ae37ef11b136ea224fe,,,,,,,,,1610,-39.19998914,-78.40000761,1,0,0,response5disk,,3,-1.59998858,-6.400006533,1,0,0,rectangle,27.20001185,79.19997033,1,0,0,20.80001175,6.399993658,1,0,0,1,81,241,71,1,,response1disk_3,TRUE,7,7,"[216,220,242,201,278,251,302,152,295,314,185,289,288,89,209,252,51,34,283,31]",1.4573,rectangle
,,,,,,,,,,,,,FF,,,,,,,,0.7629,,,,,,,,,,,,,,,,,,,,,,60fcc9c1ead2e823344601ee,61036fd26cdb339bf6185753,2021-07-29_23h21.43.519,Simcolourproject_2stim_asymm_v5,2020.2.10,Win32,60,61025ae37ef11b136ea224fe,,,,,,,,,270,69.60001248,-54.40000725,1,0,0,response3disk,,5,12.00001162,-12.00000662,1,0,0,rectangle,12.00001162,-12.00000662,1,0,0,12.00001162,-12.00000662,1,0,0,1,82,242,90,1,,,,,,,,
,,,,,,,,,,,,,FF,,,,,,,,0.5297,,,,,,,,,,,,,,,,,,,,,,60fcc9c1ead2e823344601ee,61036fd26cdb339bf6185753,2021-07-29_23h21.43.519,Simcolourproject_2stim_asymm_v5,2020.2.10,Win32,60,61025ae37ef11b136ea224fe,,,,,,,,,134,56.80001229,-81.60005648,1,0,0,response3disk,,4,28.00001186,-11.2000066,1,0,0,rectangle,28.00001186,-11.2000066,1,0,0,28.00001186,-11.2000066,1,0,0,1,83,243,21,1,,,,,,,,
