key_resp.keys,key_resp.rt,key_resp_14.keys,key_resp_14.rt,key_resp_15.keys,key_resp_15.rt,key_resp_17.keys,key_resp_17.rt,key_resp_9.keys,key_resp_9.rt,key_resp_10.keys,key_resp_10.rt,practice_comparison,Ecc,mouse_5.x,mouse_5.y,mouse_5.leftButton,mouse_5.midButton,mouse_5.rightButton,mouse_5.clicked_name,pracsimilarity,response_time,mouse_10.x,mouse_10.y,mouse_10.leftButton,mouse_10.midButton,mouse_10.rightButton,mouse_10.clicked_name,mouse_7.x,mouse_7.y,mouse_7.leftButton,mouse_7.midButton,mouse_7.rightButton,mouse_6.x,mouse_6.y,mouse_6.leftButton,mouse_6.midButton,mouse_6.rightButton,duringprac.thisRepN,duringprac.thisTrialN,duringprac.thisN,duringprac.thisIndex,duringprac.ran,participant,session,date,expName,psychopyVersion,OS,frameRate,study_id,mouse_7.clicked_name,catchpracsimilarity,catch_response_time,catchnumberprac,catchtrialorderprac,mouse_6.clicked_name,key_resp_22.keys,key_resp_22.rt,realcomparison,mouse.x,mouse.y,mouse.leftButton,mouse.midButton,mouse.rightButton,mouse.clicked_name,Colour2,similarity,mouse_2.x,mouse_2.y,mouse_2.leftButton,mouse_2.midButton,mouse_2.rightButton,mouse_2.clicked_name,mouse_3.x,mouse_3.y,mouse_3.leftButton,mouse_3.midButton,mouse_3.rightButton,mouse_11.x,mouse_11.y,mouse_11.leftButton,mouse_11.midButton,mouse_11.rightButton,trials_2.thisRepN,trials_2.thisTrialN,trials_2.thisN,trials_2.thisIndex,trials_2.ran,Colour1,mouse_3.clicked_name,catchornah,catchsimilarity,catchnumber,catchtrialorder,catchRT,mouse_11.clicked_name
space,1.4901,space,7.9985,space,9.0692,space,8.7387,space,0.4163,space,7.3308,104,FF,-97.8125,42.19921875,1,0,0,response7disk_5,1,5.6702,4.80859375,-0.125,1,0,0,rectangle_8,4.80859375,-0.125,1,0,0,4.80859375,-0.125,1,0,0,0,0,0,0,1,60fccfabb21344f8a04ecd91,61036ef72abca54ea525ecf6,2021-07-29_23h16.54.965,Simcolourproject_2stim_asymm_v5,2020.2.10,MacIntel,60,61025ae37ef11b136ea224fe,,,,,,,,,,,,,,,,,,,,,,,,,,,,,,,,,,,,,,,,,,,,,,
,,,,,,,,,,,,149,FF,-49.0078125,-70.39453125,1,0,0,response5disk_5,3,2.6021,-5.27734375,-6.18359375,1,0,0,rectangle_8,-79.3515625,32.44140625,1,0,0,-8.84765625,-5.3046875,1,0,0,0,1,1,5,1,60fccfabb21344f8a04ecd91,61036ef72abca54ea525ecf6,2021-07-29_23h16.54.965,Simcolourproject_2stim_asymm_v5,2020.2.10,MacIntel,60,61025ae37ef11b136ea224fe,response7disk_7,1,2.8018,1,"[2,5]",rectangle_4,,,,,,,,,,,,,,,,,,,,,,,,,,,,,,,,,,,,,,,,
,,,,,,,,,,,,49,FF,82.328125,-38.69921875,1,0,0,response3disk_5,5,2.3503,11.6953125,-0.04296875,1,0,0,rectangle_8,11.6953125,-0.04296875,1,0,0,11.6953125,-0.04296875,1,0,0,0,2,2,3,1,60fccfabb21344f8a04ecd91,61036ef72abca54ea525ecf6,2021-07-29_23h16.54.965,Simcolourproject_2stim_asymm_v5,2020.2.10,MacIntel,60,61025ae37ef11b136ea224fe,,,,,,,,,,,,,,,,,,,,,,,,,,,,,,,,,,,,,,,,,,,,,,
,,,,,,,,,,,,140,PF,58.46484375,-75.28125,1,0,0,response3disk_5,4,4.0504,-8.10546875,4.671875,1,0,0,rectangle_8,-8.10546875,4.671875,1,0,0,-8.10546875,4.671875,1,0,0,0,3,3,2,1,60fccfabb21344f8a04ecd91,61036ef72abca54ea525ecf6,2021-07-29_23h16.54.965,Simcolourproject_2stim_asymm_v5,2020.2.10,MacIntel,60,61025ae37ef11b136ea224fe,,,,,,,,,,,,,,,,,,,,,,,,,,,,,,,,,,,,,,,,,,,,,,
,,,,,,,,,,,,36,PF,-75.50390625,38.4375,1,0,0,response7disk_5,1,2.4846,7.3359375,3.2421875,1,0,0,rectangle_8,-88.58203125,29.65625,1,0,0,-0.5078125,-4.03515625,1,0,0,0,4,4,6,1,60fccfabb21344f8a04ecd91,61036ef72abca54ea525ecf6,2021-07-29_23h16.54.965,Simcolourproject_2stim_asymm_v5,2020.2.10,MacIntel,60,61025ae37ef11b136ea224fe,response7disk_7,1,1.8006,1,"[2,5]",rectangle_4,,,,,,,,,,,,,,,,,,,,,,,,,,,,,,,,,,,,,,,,
,,,,,,,,,,,,82,PF,42.0078125,87.86328125,1,0,0,response1disk_5,7,2.0492,4.5859375,0.6875,1,0,0,rectangle_8,4.5859375,0.6875,1,0,0,4.5859375,0.6875,1,0,0,0,5,5,1,1,60fccfabb21344f8a04ecd91,61036ef72abca54ea525ecf6,2021-07-29_23h16.54.965,Simcolourproject_2stim_asymm_v5,2020.2.10,MacIntel,60,61025ae37ef11b136ea224fe,,,,,,,,,,,,,,,,,,,,,,,,,,,,,,,,,,,,,,,,,,,,,,
,,,,,,,,,,,,52,PF,76.140625,-48.86328125,1,0,0,response3disk_5,5,1.582,-5.0234375,4.265625,1,0,0,rectangle_8,-5.0234375,4.265625,1,0,0,-5.0234375,4.265625,1,0,0,0,6,6,4,1,60fccfabb21344f8a04ecd91,61036ef72abca54ea525ecf6,2021-07-29_23h16.54.965,Simcolourproject_2stim_asymm_v5,2020.2.10,MacIntel,60,61025ae37ef11b136ea224fe,,,,,,,,,,,,,,,,,,,,,,,,,,,,,,,,,,,,,,,,,,,,,,
,,,,,,,,,,,,,FF,,,,,,,,1.8844,,,,,,,,,,,,,,,,,,,,,,60fccfabb21344f8a04ecd91,61036ef72abca54ea525ecf6,2021-07-29_23h16.54.965,Simcolourproject_2stim_asymm_v5,2020.2.10,MacIntel,60,61025ae37ef11b136ea224fe,,,,,,,space,1.5943,4186,42.5859375,-83.71484375,1,0,0,response3disk,,4,-10.34765625,12.68359375,1,0,0,rectangle,-10.34765625,12.68359375,1,0,0,-10.34765625,12.68359375,1,0,0,0,0,0,113,1,,,,,,,,
,,,,,,,,,,,,,FF,,,,,,,,1.2332,,,,,,,,,,,,,,,,,,,,,,60fccfabb21344f8a04ecd91,61036ef72abca54ea525ecf6,2021-07-29_23h16.54.965,Simcolourproject_2stim_asymm_v5,2020.2.10,MacIntel,60,61025ae37ef11b136ea224fe,,,,,,,,,868,-38.6640625,-82.3671875,1,0,0,response5disk,,3,-10.8671875,-11.80859375,1,0,0,rectangle,-10.8671875,-11.80859375,1,0,0,-10.8671875,-11.80859375,1,0,0,0,1,1,155,1,,,,,,,,
,,,,,,,,,,,,,FF,,,,,,,,1.2004,,,,,,,,,,,,,,,,,,,,,,60fccfabb21344f8a04ecd91,61036ef72abca54ea525ecf6,2021-07-29_23h16.54.965,Simcolourproject_2stim_asymm_v5,2020.2.10,MacIntel,60,61025ae37ef11b136ea224fe,,,,,,,,,634,78.2890625,40.171875,1,0,0,response1disk,,6,3.5234375,2.55859375,1,0,0,rectangle,3.5234375,2.55859375,1,0,0,3.5234375,2.55859375,1,0,0,0,2,2,51,1,,,,,,,,
,,,,,,,,,,,,,FF,,,,,,,,1.8503,,,,,,,,,,,,,,,,,,,,,,60fccfabb21344f8a04ecd91,61036ef72abca54ea525ecf6,2021-07-29_23h16.54.965,Simcolourproject_2stim_asymm_v5,2020.2.10,MacIntel,60,61025ae37ef11b136ea224fe,,,,,,,,,3926,-88.69140625,-50.59765625,1,0,0,response5disk,,2,-2.3046875,-0.81640625,1,0,0,rectangle,-2.3046875,-0.81640625,1,0,0,-2.3046875,-0.81640625,1,0,0,0,3,3,19,1,,,,,,,,
,,,,,,,,,,,,,FF,,,,,,,,1.2669,,,,,,,,,,,,,,,,,,,,,,60fccfabb21344f8a04ecd91,61036ef72abca54ea525ecf6,2021-07-29_23h16.54.965,Simcolourproject_2stim_asymm_v5,2020.2.10,MacIntel,60,61025ae37ef11b136ea224fe,,,,,,,,,750,-33.03515625,-84.84375,1,0,0,response5disk,,3,6.13671875,-2.77734375,1,0,0,rectangle,6.13671875,-2.77734375,1,0,0,6.13671875,-2.77734375,1,0,0,0,4,4,55,1,,,,,,,,
,,,,,,,,,,,,,FF,,,,,,,,1.2002,,,,,,,,,,,,,,,,,,,,,,60fccfabb21344f8a04ecd91,61036ef72abca54ea525ecf6,2021-07-29_23h16.54.965,Simcolourproject_2stim_asymm_v5,2020.2.10,MacIntel,60,61025ae37ef11b136ea224fe,,,,,,,,,277,96.2109375,31.48046875,1,0,0,response1disk,,6,13.8046875,-1.33984375,1,0,0,rectangle,13.8046875,-1.33984375,1,0,0,13.8046875,-1.33984375,1,0,0,0,5,5,0,1,,,,,,,,
,,,,,,,,,,,,,FF,,,,,,,,1.1342,,,,,,,,,,,,,,,,,,,,,,60fccfabb21344f8a04ecd91,61036ef72abca54ea525ecf6,2021-07-29_23h16.54.965,Simcolourproject_2stim_asymm_v5,2020.2.10,MacIntel,60,61025ae37ef11b136ea224fe,,,,,,,,,202,-68.47265625,-38.578125,1,0,0,response5disk,,2,-8.55859375,-4.99609375,1,0,0,rectangle,-8.55859375,-4.99609375,1,0,0,-8.55859375,-4.99609375,1,0,0,0,6,6,58,1,,,,,,,,
,,,,,,,,,,,,,FF,,,,,,,,2.1189,,,,,,,,,,,,,,,,,,,,,,60fccfabb21344f8a04ecd91,61036ef72abca54ea525ecf6,2021-07-29_23h16.54.965,Simcolourproject_2stim_asymm_v5,2020.2.10,MacIntel,60,61025ae37ef11b136ea224fe,,,,,,,,,1839,33.66015625,-93.35546875,1,0,0,response3disk,,4,2.79296875,5.28125,1,0,0,rectangle,2.79296875,5.28125,1,0,0,2.79296875,5.28125,1,0,0,0,7,7,136,1,,,,,,,,
,,,,,,,,,,,,,FF,,,,,,,,1.0343,,,,,,,,,,,,,,,,,,,,,,60fccfabb21344f8a04ecd91,61036ef72abca54ea525ecf6,2021-07-29_23h16.54.965,Simcolourproject_2stim_asymm_v5,2020.2.10,MacIntel,60,61025ae37ef11b136ea224fe,,,,,,,,,2979,-84.80859375,-39.046875,1,0,0,response5disk,,2,6.75390625,7.203125,1,0,0,rectangle,6.75390625,7.203125,1,0,0,6.75390625,7.203125,1,0,0,0,8,8,150,1,,,,,,,,
,,,,,,,,,,,,,FF,,,,,,,,1.0007,,,,,,,,,,,,,,,,,,,,,,60fccfabb21344f8a04ecd91,61036ef72abca54ea525ecf6,2021-07-29_23h16.54.965,Simcolourproject_2stim_asymm_v5,2020.2.10,MacIntel,60,61025ae37ef11b136ea224fe,,,,,,,,,215,-42.83984375,-99.16015625,1,0,0,response5disk,,3,10.703125,-1.94921875,1,0,0,rectangle,10.703125,-1.94921875,1,0,0,10.703125,-1.94921875,1,0,0,0,9,9,30,1,,,,,,,,
,,,,,,,,,,,,,FF,,,,,,,,1.3664,,,,,,,,,,,,,,,,,,,,,,60fccfabb21344f8a04ecd91,61036ef72abca54ea525ecf6,2021-07-29_23h16.54.965,Simcolourproject_2stim_asymm_v5,2020.2.10,MacIntel,60,61025ae37ef11b136ea224fe,,,,,,,,,567,45.953125,-81.10546875,1,0,0,response3disk,,4,1.46484375,-6.11328125,1,0,0,rectangle,1.46484375,-6.11328125,1,0,0,1.46484375,-6.11328125,1,0,0,0,10,10,60,1,,,,,,,,
,,,,,,,,,,,,,FF,,,,,,,,2.0345,,,,,,,,,,,,,,,,,,,,,,60fccfabb21344f8a04ecd91,61036ef72abca54ea525ecf6,2021-07-29_23h16.54.965,Simcolourproject_2stim_asymm_v5,2020.2.10,MacIntel,60,61025ae37ef11b136ea224fe,,,,,,,,,1916,105.4648438,-70.1171875,1,0,0,response3disk,,5,-5.8671875,5.58203125,1,0,0,rectangle,-5.8671875,5.58203125,1,0,0,-5.8671875,5.58203125,1,0,0,0,11,11,71,1,,,,,,,,
,,,,,,,,,,,,,FF,,,,,,,,2.1666,,,,,,,,,,,,,,,,,,,,,,60fccfabb21344f8a04ecd91,61036ef72abca54ea525ecf6,2021-07-29_23h16.54.965,Simcolourproject_2stim_asymm_v5,2020.2.10,MacIntel,60,61025ae37ef11b136ea224fe,,,,,,,,,2514,-101.234375,52.94921875,1,0,0,response7disk,,1,-5.796875,-13.4296875,1,0,0,rectangle,-5.796875,-13.4296875,1,0,0,-5.796875,-13.4296875,1,0,0,0,12,12,24,1,,,,,,,,
,,,,,,,,,,,,,FF,,,,,,,,1.2827,,,,,,,,,,,,,,,,,,,,,,60fccfabb21344f8a04ecd91,61036ef72abca54ea525ecf6,2021-07-29_23h16.54.965,Simcolourproject_2stim_asymm_v5,2020.2.10,MacIntel,60,61025ae37ef11b136ea224fe,,,,,,,,,2201,-58.9140625,-83.99609375,1,0,0,response5disk,,3,-11.0546875,-10.55078125,1,0,0,rectangle,-11.0546875,-10.55078125,1,0,0,-11.0546875,-10.55078125,1,0,0,0,13,13,98,1,,,,,,,,
,,,,,,,,,,,,,FF,,,,,,,,1.4178,,,,,,,,,,,,,,,,,,,,,,60fccfabb21344f8a04ecd91,61036ef72abca54ea525ecf6,2021-07-29_23h16.54.965,Simcolourproject_2stim_asymm_v5,2020.2.10,MacIntel,60,61025ae37ef11b136ea224fe,,,,,,,,,424,47.2265625,-82.828125,1,0,0,response3disk,,4,-21.1484375,-0.46484375,1,0,0,rectangle,-21.1484375,-0.46484375,1,0,0,-21.1484375,-0.46484375,1,0,0,0,14,14,15,1,,,,,,,,
,,,,,,,,,,,,,FF,,,,,,,,1.3822,,,,,,,,,,,,,,,,,,,,,,60fccfabb21344f8a04ecd91,61036ef72abca54ea525ecf6,2021-07-29_23h16.54.965,Simcolourproject_2stim_asymm_v5,2020.2.10,MacIntel,60,61025ae37ef11b136ea224fe,,,,,,,,,2153,54.99609375,-75.703125,1,0,0,response3disk,,4,6.94921875,-1.74609375,1,0,0,rectangle,6.94921875,-1.74609375,1,0,0,6.94921875,-1.74609375,1,0,0,0,15,15,104,1,,,,,,,,
,,,,,,,,,,,,,FF,,,,,,,,1.4495,,,,,,,,,,,,,,,,,,,,,,60fccfabb21344f8a04ecd91,61036ef72abca54ea525ecf6,2021-07-29_23h16.54.965,Simcolourproject_2stim_asymm_v5,2020.2.10,MacIntel,60,61025ae37ef11b136ea224fe,,,,,,,,,578,93.21875,-52.9140625,1,0,0,response3disk,,5,11.14453125,4.53125,1,0,0,rectangle,11.14453125,4.53125,1,0,0,11.14453125,4.53125,1,0,0,0,16,16,76,1,,,,,,,,
,,,,,,,,,,,,,FF,,,,,,,,1.3833,,,,,,,,,,,,,,,,,,,,,,60fccfabb21344f8a04ecd91,61036ef72abca54ea525ecf6,2021-07-29_23h16.54.965,Simcolourproject_2stim_asymm_v5,2020.2.10,MacIntel,60,61025ae37ef11b136ea224fe,,,,,,,,,4124,77.03515625,-97.75390625,1,0,0,response3disk,,4,4.12890625,-5.55859375,1,0,0,rectangle,4.12890625,-5.55859375,1,0,0,4.12890625,-5.55859375,1,0,0,0,17,17,23,1,,,,,,,,
,,,,,,,,,,,,,FF,,,,,,,,1.2002,,,,,,,,,,,,,,,,,,,,,,60fccfabb21344f8a04ecd91,61036ef72abca54ea525ecf6,2021-07-29_23h16.54.965,Simcolourproject_2stim_asymm_v5,2020.2.10,MacIntel,60,61025ae37ef11b136ea224fe,,,,,,,,,2595,46.328125,-80.01171875,1,0,0,response3disk,,4,0.73046875,1.91796875,1,0,0,rectangle,0.73046875,1.91796875,1,0,0,0.73046875,1.91796875,1,0,0,0,18,18,2,1,,,,,,,,
,,,,,,,,,,,,,FF,,,,,,,,1.9166,,,,,,,,,,,,,,,,,,,,,,60fccfabb21344f8a04ecd91,61036ef72abca54ea525ecf6,2021-07-29_23h16.54.965,Simcolourproject_2stim_asymm_v5,2020.2.10,MacIntel,60,61025ae37ef11b136ea224fe,,,,,,,,,1997,-30,-89.89453125,1,0,0,response5disk,,3,-5.96875,-9.078125,1,0,0,rectangle,-5.96875,-9.078125,1,0,0,-5.96875,-9.078125,1,0,0,0,19,19,101,1,,,,,,,,
,,,,,,,,,,,,,FF,,,,,,,,1.0324,,,,,,,,,,,,,,,,,,,,,,60fccfabb21344f8a04ecd91,61036ef72abca54ea525ecf6,2021-07-29_23h16.54.965,Simcolourproject_2stim_asymm_v5,2020.2.10,MacIntel,60,61025ae37ef11b136ea224fe,,,,,,,,,1932,-42.2578125,-96.38671875,1,0,0,response5disk,,3,8.546875,0.73046875,1,0,0,rectangle,8.546875,0.73046875,1,0,0,8.546875,0.73046875,1,0,0,0,20,20,49,1,,,,,,,,
,,,,,,,,,,,,,FF,,,,,,,,0.8003,,,,,,,,,,,,,,,,,,,,,,60fccfabb21344f8a04ecd91,61036ef72abca54ea525ecf6,2021-07-29_23h16.54.965,Simcolourproject_2stim_asymm_v5,2020.2.10,MacIntel,60,61025ae37ef11b136ea224fe,,,,,,,,,2105,79.98828125,43.59375,1,0,0,response1disk,,6,3.859375,9.96875,1,0,0,rectangle,3.859375,9.96875,1,0,0,3.859375,9.96875,1,0,0,0,21,21,33,1,,,,,,,,
,,,,,,,,,,,,,FF,,,,,,,,0.7489,,,,,,,,,,,,,,,,,,,,,,60fccfabb21344f8a04ecd91,61036ef72abca54ea525ecf6,2021-07-29_23h16.54.965,Simcolourproject_2stim_asymm_v5,2020.2.10,MacIntel,60,61025ae37ef11b136ea224fe,,,,,,,,,1899,90,40.69921875,1,0,0,response1disk,,6,2.67578125,8.0234375,1,0,0,rectangle,2.67578125,8.0234375,1,0,0,2.67578125,8.0234375,1,0,0,0,22,22,12,1,,,,,,,,
,,,,,,,,,,,,,FF,,,,,,,,1.1998,,,,,,,,,,,,,,,,,,,,,,60fccfabb21344f8a04ecd91,61036ef72abca54ea525ecf6,2021-07-29_23h16.54.965,Simcolourproject_2stim_asymm_v5,2020.2.10,MacIntel,60,61025ae37ef11b136ea224fe,,,,,,,,,3764,70.82421875,-43.94140625,1,0,0,response3disk,,5,0.8203125,-2.984375,1,0,0,rectangle,0.8203125,-2.984375,1,0,0,0.8203125,-2.984375,1,0,0,0,23,23,59,1,,,,,,,,
,,,,,,,,,,,,,FF,,,,,,,,1.85,,,,,,,,,,,,,,,,,,,,,,60fccfabb21344f8a04ecd91,61036ef72abca54ea525ecf6,2021-07-29_23h16.54.965,Simcolourproject_2stim_asymm_v5,2020.2.10,MacIntel,60,61025ae37ef11b136ea224fe,,,,,,,,,2707,-41.46875,-69.328125,1,0,0,response5disk,,3,-15.03515625,-10.26171875,1,0,0,rectangle,-15.03515625,-10.26171875,1,0,0,-15.03515625,-10.26171875,1,0,0,0,24,24,6,1,,,,,,,,
,,,,,,,,,,,,,FF,,,,,,,,0.7501,,,,,,,,,,,,,,,,,,,,,,60fccfabb21344f8a04ecd91,61036ef72abca54ea525ecf6,2021-07-29_23h16.54.965,Simcolourproject_2stim_asymm_v5,2020.2.10,MacIntel,60,61025ae37ef11b136ea224fe,,,,,,,,,396,41.74609375,-90.96484375,1,0,0,response3disk,,4,-0.02734375,0.984375,1,0,0,rectangle,-0.02734375,0.984375,1,0,0,-0.02734375,0.984375,1,0,0,0,25,25,133,1,,,,,,,,
,,,,,,,,,,,,,FF,,,,,,,,4.2338,,,,,,,,,,,,,,,,,,,,,,60fccfabb21344f8a04ecd91,61036ef72abca54ea525ecf6,2021-07-29_23h16.54.965,Simcolourproject_2stim_asymm_v5,2020.2.10,MacIntel,60,61025ae37ef11b136ea224fe,,,,,,,,,1160,-34.28515625,-104.1015625,1,0,0,response5disk,,3,9.50390625,5.2734375,1,0,0,rectangle,9.50390625,5.2734375,1,0,0,9.50390625,5.2734375,1,0,0,0,26,26,154,1,,,,,,,,
,,,,,,,,,,,,,FF,,,,,,,,1.2664,,,,,,,,,,,,,,,,,,,,,,60fccfabb21344f8a04ecd91,61036ef72abca54ea525ecf6,2021-07-29_23h16.54.965,Simcolourproject_2stim_asymm_v5,2020.2.10,MacIntel,60,61025ae37ef11b136ea224fe,,,,,,,,,503,39.89453125,-96.82421875,1,0,0,response3disk,,4,9.83203125,6.15625,1,0,0,rectangle,9.83203125,6.15625,1,0,0,9.83203125,6.15625,1,0,0,0,27,27,118,1,,,,,,,,
,,,,,,,,,,,,,FF,,,,,,,,0.8014,,,,,,,,,,,,,,,,,,,,,,60fccfabb21344f8a04ecd91,61036ef72abca54ea525ecf6,2021-07-29_23h16.54.965,Simcolourproject_2stim_asymm_v5,2020.2.10,MacIntel,60,61025ae37ef11b136ea224fe,,,,,,,,,2238,74.5625,-56.04296875,1,0,0,response3disk,,5,-8.08984375,-1.92578125,1,0,0,rectangle,-8.08984375,-1.92578125,1,0,0,-8.08984375,-1.92578125,1,0,0,0,28,28,57,1,,,,,,,,
,,,,,,,,,,,,,FF,,,,,,,,1.9834,,,,,,,,,,,,,,,,,,,,,,60fccfabb21344f8a04ecd91,61036ef72abca54ea525ecf6,2021-07-29_23h16.54.965,Simcolourproject_2stim_asymm_v5,2020.2.10,MacIntel,60,61025ae37ef11b136ea224fe,,,,,,,,,3497,-96.0546875,-41.12890625,1,0,0,response5disk,,2,-1.40234375,12.94140625,1,0,0,rectangle,-1.40234375,12.94140625,1,0,0,-1.40234375,12.94140625,1,0,0,0,29,29,1,1,,,,,,,,
,,,,,,,,,,,,,FF,,,,,,,,2.3658,,,,,,,,,,,,,,,,,,,,,,60fccfabb21344f8a04ecd91,61036ef72abca54ea525ecf6,2021-07-29_23h16.54.965,Simcolourproject_2stim_asymm_v5,2020.2.10,MacIntel,60,61025ae37ef11b136ea224fe,,,,,,,,,1741,-46.1171875,-110.0976563,1,0,0,response5disk,,3,-6.3828125,1.1328125,1,0,0,rectangle,-6.3828125,1.1328125,1,0,0,-6.3828125,1.1328125,1,0,0,0,30,30,63,1,,,,,,,,
,,,,,,,,,,,,,FF,,,,,,,,1.7496,,,,,,,,,,,,,,,,,,,,,,60fccfabb21344f8a04ecd91,61036ef72abca54ea525ecf6,2021-07-29_23h16.54.965,Simcolourproject_2stim_asymm_v5,2020.2.10,MacIntel,60,61025ae37ef11b136ea224fe,,,,,,,,,657,54.42578125,-85.94921875,1,0,0,response3disk,,4,0.1328125,-5.83984375,1,0,0,rectangle,0.1328125,-5.83984375,1,0,0,0.1328125,-5.83984375,1,0,0,0,31,31,138,1,,,,,,,,
,,,,,,,,,,,,,FF,,,,,,,,2.1509,,,,,,,,,,,,,,,,,,,,,,60fccfabb21344f8a04ecd91,61036ef72abca54ea525ecf6,2021-07-29_23h16.54.965,Simcolourproject_2stim_asymm_v5,2020.2.10,MacIntel,60,61025ae37ef11b136ea224fe,,,,,,,,,673,-54.45703125,-104.8554688,1,0,0,response5disk,,3,3.234375,-6.6640625,1,0,0,rectangle,3.234375,-6.6640625,1,0,0,3.234375,-6.6640625,1,0,0,0,32,32,88,1,,,,,,,,
,,,,,,,,,,,,,FF,,,,,,,,1.9322,,,,,,,,,,,,,,,,,,,,,,60fccfabb21344f8a04ecd91,61036ef72abca54ea525ecf6,2021-07-29_23h16.54.965,Simcolourproject_2stim_asymm_v5,2020.2.10,MacIntel,60,61025ae37ef11b136ea224fe,,,,,,,,,1975,32.1796875,-71.0625,1,0,0,response3disk,,4,-12.90625,11.8828125,1,0,0,rectangle,-12.90625,11.8828125,1,0,0,-12.90625,11.8828125,1,0,0,0,33,33,41,1,,,,,,,,
,,,,,,,,,,,,,FF,,,,,,,,1.1508,,,,,,,,,,,,,,,,,,,,,,60fccfabb21344f8a04ecd91,61036ef72abca54ea525ecf6,2021-07-29_23h16.54.965,Simcolourproject_2stim_asymm_v5,2020.2.10,MacIntel,60,61025ae37ef11b136ea224fe,,,,,,,,,2458,-84.25390625,43.66015625,1,0,0,response7disk,,1,-9.86328125,7.8671875,1,0,0,rectangle,-9.86328125,7.8671875,1,0,0,-9.86328125,7.8671875,1,0,0,0,34,34,126,1,,,,,,,,
,,,,,,,,,,,,,FF,,,,,,,,0.9324,,,,,,,,,,,,,,,,,,,,,,60fccfabb21344f8a04ecd91,61036ef72abca54ea525ecf6,2021-07-29_23h16.54.965,Simcolourproject_2stim_asymm_v5,2020.2.10,MacIntel,60,61025ae37ef11b136ea224fe,,,,,,,,,888,97.46875,60.25,1,0,0,response1disk,,6,4.328125,5.99609375,1,0,0,rectangle,4.328125,5.99609375,1,0,0,4.328125,5.99609375,1,0,0,0,35,35,81,1,,,,,,,,
,,,,,,,,,,,,,FF,,,,,,,,0.8168,,,,,,,,,,,,,,,,,,,,,,60fccfabb21344f8a04ecd91,61036ef72abca54ea525ecf6,2021-07-29_23h16.54.965,Simcolourproject_2stim_asymm_v5,2020.2.10,MacIntel,60,61025ae37ef11b136ea224fe,,,,,,,,,1866,-92.94921875,35.3359375,1,0,0,response7disk,,1,-2.109375,-4.76953125,1,0,0,rectangle,-2.109375,-4.76953125,1,0,0,-2.109375,-4.76953125,1,0,0,0,36,36,52,1,,,,,,,,
,,,,,,,,,,,,,FF,,,,,,,,1.5321,,,,,,,,,,,,,,,,,,,,,,60fccfabb21344f8a04ecd91,61036ef72abca54ea525ecf6,2021-07-29_23h16.54.965,Simcolourproject_2stim_asymm_v5,2020.2.10,MacIntel,60,61025ae37ef11b136ea224fe,,,,,,,,,3687,-42.640625,-58.859375,1,0,0,response5disk,,3,-10.21875,4.7734375,1,0,0,rectangle,-10.21875,4.7734375,1,0,0,-10.21875,4.7734375,1,0,0,0,37,37,106,1,,,,,,,,
,,,,,,,,,,,,,FF,,,,,,,,1.8159,,,,,,,,,,,,,,,,,,,,,,60fccfabb21344f8a04ecd91,61036ef72abca54ea525ecf6,2021-07-29_23h16.54.965,Simcolourproject_2stim_asymm_v5,2020.2.10,MacIntel,60,61025ae37ef11b136ea224fe,,,,,,,,,1933,70.25390625,-103.6757813,1,0,0,response3disk,,4,-5.34375,6.27734375,1,0,0,rectangle,-5.34375,6.27734375,1,0,0,-5.34375,6.27734375,1,0,0,0,38,38,158,1,,,,,,,,
,,,,,,,,,,,,,FF,,,,,,,,0.9508,,,,,,,,,,,,,,,,,,,,,,60fccfabb21344f8a04ecd91,61036ef72abca54ea525ecf6,2021-07-29_23h16.54.965,Simcolourproject_2stim_asymm_v5,2020.2.10,MacIntel,60,61025ae37ef11b136ea224fe,,,,,,,,,568,89.48046875,-52.85546875,1,0,0,response3disk,,5,-2.0625,-7.828125,1,0,0,rectangle,-2.0625,-7.828125,1,0,0,-2.0625,-7.828125,1,0,0,0,39,39,119,1,,,,,,,,
,,,,,,,,,,,,,FF,,,,,,,,2.0839,,,,,,,,,,,,,,,,,,,,,,60fccfabb21344f8a04ecd91,61036ef72abca54ea525ecf6,2021-07-29_23h16.54.965,Simcolourproject_2stim_asymm_v5,2020.2.10,MacIntel,60,61025ae37ef11b136ea224fe,,,,,,,,,3405,63.84765625,-88.13671875,1,0,0,response3disk,,4,12.43359375,3.07421875,1,0,0,rectangle,-44.390625,-80.921875,1,0,0,-9.01953125,-9.828125,1,0,0,0,40,40,129,1,,response5disk_3,TRUE,3,3,"[196,99,41,115,269,162,318,217,294,206,87,191,261,209,94,259,147,95,256,174]",1.5995,rectangle
,,,,,,,,,,,,,FF,,,,,,,,2.0163,,,,,,,,,,,,,,,,,,,,,,60fccfabb21344f8a04ecd91,61036ef72abca54ea525ecf6,2021-07-29_23h16.54.965,Simcolourproject_2stim_asymm_v5,2020.2.10,MacIntel,60,61025ae37ef11b136ea224fe,,,,,,,,,2874,44.1640625,-85.73828125,1,0,0,response3disk,,4,20.27734375,1.5625,1,0,0,rectangle,20.27734375,1.5625,1,0,0,20.27734375,1.5625,1,0,0,0,41,41,9,1,,,,,,,,
,,,,,,,,,,,,,FF,,,,,,,,0.8007,,,,,,,,,,,,,,,,,,,,,,60fccfabb21344f8a04ecd91,61036ef72abca54ea525ecf6,2021-07-29_23h16.54.965,Simcolourproject_2stim_asymm_v5,2020.2.10,MacIntel,60,61025ae37ef11b136ea224fe,,,,,,,,,2716,93.78125,-43.4921875,1,0,0,response3disk,,5,-1.6875,8.45703125,1,0,0,rectangle,-1.6875,8.45703125,1,0,0,-1.6875,8.45703125,1,0,0,0,42,42,10,1,,,,,,,,
,,,,,,,,,,,,,FF,,,,,,,,2.2001,,,,,,,,,,,,,,,,,,,,,,60fccfabb21344f8a04ecd91,61036ef72abca54ea525ecf6,2021-07-29_23h16.54.965,Simcolourproject_2stim_asymm_v5,2020.2.10,MacIntel,60,61025ae37ef11b136ea224fe,,,,,,,,,853,37.01953125,-112.4414063,1,0,0,response3disk,,4,3.46484375,-4.4296875,1,0,0,rectangle,3.46484375,-4.4296875,1,0,0,3.46484375,-4.4296875,1,0,0,0,43,43,157,1,,,,,,,,
,,,,,,,,,,,,,FF,,,,,,,,2.3337,,,,,,,,,,,,,,,,,,,,,,60fccfabb21344f8a04ecd91,61036ef72abca54ea525ecf6,2021-07-29_23h16.54.965,Simcolourproject_2stim_asymm_v5,2020.2.10,MacIntel,60,61025ae37ef11b136ea224fe,,,,,,,,,4077,99.859375,-36.59765625,1,0,0,response3disk,,5,-3.37109375,5.41796875,1,0,0,rectangle,-3.37109375,5.41796875,1,0,0,-3.37109375,5.41796875,1,0,0,0,44,44,91,1,,,,,,,,
,,,,,,,,,,,,,FF,,,,,,,,1.3665,,,,,,,,,,,,,,,,,,,,,,60fccfabb21344f8a04ecd91,61036ef72abca54ea525ecf6,2021-07-29_23h16.54.965,Simcolourproject_2stim_asymm_v5,2020.2.10,MacIntel,60,61025ae37ef11b136ea224fe,,,,,,,,,4250,77.984375,-47.4375,1,0,0,response3disk,,5,-23.4609375,7.12109375,1,0,0,rectangle,-23.4609375,7.12109375,1,0,0,-23.4609375,7.12109375,1,0,0,0,45,45,127,1,,,,,,,,
,,,,,,,,,,,,,FF,,,,,,,,0.8167,,,,,,,,,,,,,,,,,,,,,,60fccfabb21344f8a04ecd91,61036ef72abca54ea525ecf6,2021-07-29_23h16.54.965,Simcolourproject_2stim_asymm_v5,2020.2.10,MacIntel,60,61025ae37ef11b136ea224fe,,,,,,,,,1456,85.859375,47.08984375,1,0,0,response1disk,,6,19.48046875,-1.89453125,1,0,0,rectangle,19.48046875,-1.89453125,1,0,0,19.48046875,-1.89453125,1,0,0,0,46,46,72,1,,,,,,,,
,,,,,,,,,,,,,FF,,,,,,,,1.9505,,,,,,,,,,,,,,,,,,,,,,60fccfabb21344f8a04ecd91,61036ef72abca54ea525ecf6,2021-07-29_23h16.54.965,Simcolourproject_2stim_asymm_v5,2020.2.10,MacIntel,60,61025ae37ef11b136ea224fe,,,,,,,,,3797,-90.58203125,-35.46875,1,0,0,response5disk,,2,-10.11328125,-6.859375,1,0,0,rectangle,-10.11328125,-6.859375,1,0,0,-10.11328125,-6.859375,1,0,0,0,47,47,78,1,,,,,,,,
,,,,,,,,,,,,,FF,,,,,,,,0.9341,,,,,,,,,,,,,,,,,,,,,,60fccfabb21344f8a04ecd91,61036ef72abca54ea525ecf6,2021-07-29_23h16.54.965,Simcolourproject_2stim_asymm_v5,2020.2.10,MacIntel,60,61025ae37ef11b136ea224fe,,,,,,,,,526,95.50390625,-52.6796875,1,0,0,response3disk,,5,9.85546875,-2.28125,1,0,0,rectangle,9.85546875,-2.28125,1,0,0,9.85546875,-2.28125,1,0,0,0,48,48,77,1,,,,,,,,
,,,,,,,,,,,,,FF,,,,,,,,1.668,,,,,,,,,,,,,,,,,,,,,,60fccfabb21344f8a04ecd91,61036ef72abca54ea525ecf6,2021-07-29_23h16.54.965,Simcolourproject_2stim_asymm_v5,2020.2.10,MacIntel,60,61025ae37ef11b136ea224fe,,,,,,,,,740,102.2382813,-47.77734375,1,0,0,response3disk,,5,-7.1796875,5.046875,1,0,0,rectangle,-7.1796875,5.046875,1,0,0,-7.1796875,5.046875,1,0,0,0,49,49,62,1,,,,,,,,
,,,,,,,,,,,,,FF,,,,,,,,1.4181,,,,,,,,,,,,,,,,,,,,,,60fccfabb21344f8a04ecd91,61036ef72abca54ea525ecf6,2021-07-29_23h16.54.965,Simcolourproject_2stim_asymm_v5,2020.2.10,MacIntel,60,61025ae37ef11b136ea224fe,,,,,,,,,2455,-55.453125,-78.5625,1,0,0,response5disk,,3,-13.83984375,8.76953125,1,0,0,rectangle,-13.83984375,8.76953125,1,0,0,-13.83984375,8.76953125,1,0,0,0,50,50,37,1,,,,,,,,
,,,,,,,,,,,,,FF,,,,,,,,1.5327,,,,,,,,,,,,,,,,,,,,,,60fccfabb21344f8a04ecd91,61036ef72abca54ea525ecf6,2021-07-29_23h16.54.965,Simcolourproject_2stim_asymm_v5,2020.2.10,MacIntel,60,61025ae37ef11b136ea224fe,,,,,,,,,1322,-64.5625,-85.33203125,1,0,0,response5disk,,3,-23.5625,-13.359375,1,0,0,rectangle,-23.5625,-13.359375,1,0,0,-23.5625,-13.359375,1,0,0,0,51,51,130,1,,,,,,,,
,,,,,,,,,,,,,FF,,,,,,,,0.8669,,,,,,,,,,,,,,,,,,,,,,60fccfabb21344f8a04ecd91,61036ef72abca54ea525ecf6,2021-07-29_23h16.54.965,Simcolourproject_2stim_asymm_v5,2020.2.10,MacIntel,60,61025ae37ef11b136ea224fe,,,,,,,,,1124,-33.72265625,-87.5703125,1,0,0,response5disk,,3,-1.12890625,-6.16015625,1,0,0,rectangle,-1.12890625,-6.16015625,1,0,0,-1.12890625,-6.16015625,1,0,0,0,52,52,67,1,,,,,,,,
,,,,,,,,,,,,,FF,,,,,,,,1.1677,,,,,,,,,,,,,,,,,,,,,,60fccfabb21344f8a04ecd91,61036ef72abca54ea525ecf6,2021-07-29_23h16.54.965,Simcolourproject_2stim_asymm_v5,2020.2.10,MacIntel,60,61025ae37ef11b136ea224fe,,,,,,,,,2754,31.45703125,-102.9492188,1,0,0,response3disk,,4,-5.609375,-3.6953125,1,0,0,rectangle,-5.609375,-3.6953125,1,0,0,-5.609375,-3.6953125,1,0,0,0,53,53,27,1,,,,,,,,
,,,,,,,,,,,,,FF,,,,,,,,0.9993,,,,,,,,,,,,,,,,,,,,,,60fccfabb21344f8a04ecd91,61036ef72abca54ea525ecf6,2021-07-29_23h16.54.965,Simcolourproject_2stim_asymm_v5,2020.2.10,MacIntel,60,61025ae37ef11b136ea224fe,,,,,,,,,3790,-82.640625,37.15234375,1,0,0,response7disk,,1,-13.6328125,-1.71875,1,0,0,rectangle,-13.6328125,-1.71875,1,0,0,-13.6328125,-1.71875,1,0,0,0,54,54,73,1,,,,,,,,
,,,,,,,,,,,,,FF,,,,,,,,1.0167,,,,,,,,,,,,,,,,,,,,,,60fccfabb21344f8a04ecd91,61036ef72abca54ea525ecf6,2021-07-29_23h16.54.965,Simcolourproject_2stim_asymm_v5,2020.2.10,MacIntel,60,61025ae37ef11b136ea224fe,,,,,,,,,2161,81.5390625,24.6328125,1,0,0,response1disk,,6,20.92578125,3.35546875,1,0,0,rectangle,20.92578125,3.35546875,1,0,0,20.92578125,3.35546875,1,0,0,0,55,55,84,1,,,,,,,,
,,,,,,,,,,,,,FF,,,,,,,,1.3349,,,,,,,,,,,,,,,,,,,,,,60fccfabb21344f8a04ecd91,61036ef72abca54ea525ecf6,2021-07-29_23h16.54.965,Simcolourproject_2stim_asymm_v5,2020.2.10,MacIntel,60,61025ae37ef11b136ea224fe,,,,,,,,,650,47.453125,-93.21484375,1,0,0,response3disk,,4,11.90625,-6.31640625,1,0,0,rectangle,11.90625,-6.31640625,1,0,0,11.90625,-6.31640625,1,0,0,0,56,56,22,1,,,,,,,,
,,,,,,,,,,,,,FF,,,,,,,,1.0513,,,,,,,,,,,,,,,,,,,,,,60fccfabb21344f8a04ecd91,61036ef72abca54ea525ecf6,2021-07-29_23h16.54.965,Simcolourproject_2stim_asymm_v5,2020.2.10,MacIntel,60,61025ae37ef11b136ea224fe,,,,,,,,,4159,85.71484375,-58.890625,1,0,0,response3disk,,5,12.203125,-2.12109375,1,0,0,rectangle,12.203125,-2.12109375,1,0,0,12.203125,-2.12109375,1,0,0,0,57,57,75,1,,,,,,,,
,,,,,,,,,,,,,FF,,,,,,,,1.299,,,,,,,,,,,,,,,,,,,,,,60fccfabb21344f8a04ecd91,61036ef72abca54ea525ecf6,2021-07-29_23h16.54.965,Simcolourproject_2stim_asymm_v5,2020.2.10,MacIntel,60,61025ae37ef11b136ea224fe,,,,,,,,,3306,29.73828125,-85.22265625,1,0,0,response3disk,,4,-14.9609375,10.5859375,1,0,0,rectangle,-14.9609375,10.5859375,1,0,0,-14.9609375,10.5859375,1,0,0,0,58,58,142,1,,,,,,,,
,,,,,,,,,,,,,FF,,,,,,,,2.2349,,,,,,,,,,,,,,,,,,,,,,60fccfabb21344f8a04ecd91,61036ef72abca54ea525ecf6,2021-07-29_23h16.54.965,Simcolourproject_2stim_asymm_v5,2020.2.10,MacIntel,60,61025ae37ef11b136ea224fe,,,,,,,,,3535,-46.53515625,-85.75390625,1,0,0,response5disk,,3,-6.25,3.28125,1,0,0,rectangle,-6.25,3.28125,1,0,0,-6.25,3.28125,1,0,0,0,59,59,109,1,,,,,,,,
,,,,,,,,,,,,,FF,,,,,,,,1.5513,,,,,,,,,,,,,,,,,,,,,,60fccfabb21344f8a04ecd91,61036ef72abca54ea525ecf6,2021-07-29_23h16.54.965,Simcolourproject_2stim_asymm_v5,2020.2.10,MacIntel,60,61025ae37ef11b136ea224fe,,,,,,,,,1995,-45.83984375,-95.375,1,0,0,response5disk,,3,16.37109375,13.86328125,1,0,0,rectangle,16.37109375,13.86328125,1,0,0,16.37109375,13.86328125,1,0,0,0,60,60,17,1,,,,,,,,
,,,,,,,,,,,,,FF,,,,,,,,1.4337,,,,,,,,,,,,,,,,,,,,,,60fccfabb21344f8a04ecd91,61036ef72abca54ea525ecf6,2021-07-29_23h16.54.965,Simcolourproject_2stim_asymm_v5,2020.2.10,MacIntel,60,61025ae37ef11b136ea224fe,,,,,,,,,788,-95.08203125,-36.32421875,1,0,0,response5disk,,2,5.73828125,-4.609375,1,0,0,rectangle,5.73828125,-4.609375,1,0,0,5.73828125,-4.609375,1,0,0,0,61,61,153,1,,,,,,,,
,,,,,,,,,,,,,FF,,,,,,,,1.4325,,,,,,,,,,,,,,,,,,,,,,60fccfabb21344f8a04ecd91,61036ef72abca54ea525ecf6,2021-07-29_23h16.54.965,Simcolourproject_2stim_asymm_v5,2020.2.10,MacIntel,60,61025ae37ef11b136ea224fe,,,,,,,,,338,-57.2578125,-107.9101563,1,0,0,response5disk,,3,3.5234375,-6.26953125,1,0,0,rectangle,3.5234375,-6.26953125,1,0,0,3.5234375,-6.26953125,1,0,0,0,62,62,64,1,,,,,,,,
,,,,,,,,,,,,,FF,,,,,,,,0.8674,,,,,,,,,,,,,,,,,,,,,,60fccfabb21344f8a04ecd91,61036ef72abca54ea525ecf6,2021-07-29_23h16.54.965,Simcolourproject_2stim_asymm_v5,2020.2.10,MacIntel,60,61025ae37ef11b136ea224fe,,,,,,,,,971,106.8867188,41.4296875,1,0,0,response1disk,,6,14.49609375,-5.60546875,1,0,0,rectangle,14.49609375,-5.60546875,1,0,0,14.49609375,-5.60546875,1,0,0,0,63,63,144,1,,,,,,,,
,,,,,,,,,,,,,FF,,,,,,,,0.9821,,,,,,,,,,,,,,,,,,,,,,60fccfabb21344f8a04ecd91,61036ef72abca54ea525ecf6,2021-07-29_23h16.54.965,Simcolourproject_2stim_asymm_v5,2020.2.10,MacIntel,60,61025ae37ef11b136ea224fe,,,,,,,,,175,110.359375,52.34765625,1,0,0,response1disk,,6,-1.68359375,-3.796875,1,0,0,rectangle,-1.68359375,-3.796875,1,0,0,-1.68359375,-3.796875,1,0,0,0,64,64,135,1,,,,,,,,
,,,,,,,,,,,,,FF,,,,,,,,0.966,,,,,,,,,,,,,,,,,,,,,,60fccfabb21344f8a04ecd91,61036ef72abca54ea525ecf6,2021-07-29_23h16.54.965,Simcolourproject_2stim_asymm_v5,2020.2.10,MacIntel,60,61025ae37ef11b136ea224fe,,,,,,,,,1522,106.984375,46.86328125,1,0,0,response1disk,,6,9.84765625,-2.8046875,1,0,0,rectangle,9.84765625,-2.8046875,1,0,0,9.84765625,-2.8046875,1,0,0,0,65,65,35,1,,,,,,,,
,,,,,,,,,,,,,FF,,,,,,,,1.267,,,,,,,,,,,,,,,,,,,,,,60fccfabb21344f8a04ecd91,61036ef72abca54ea525ecf6,2021-07-29_23h16.54.965,Simcolourproject_2stim_asymm_v5,2020.2.10,MacIntel,60,61025ae37ef11b136ea224fe,,,,,,,,,993,89.05859375,-47.609375,1,0,0,response3disk,,5,17.22265625,-7.0390625,1,0,0,rectangle,17.22265625,-7.0390625,1,0,0,17.22265625,-7.0390625,1,0,0,0,66,66,65,1,,,,,,,,
,,,,,,,,,,,,,FF,,,,,,,,0.9847,,,,,,,,,,,,,,,,,,,,,,60fccfabb21344f8a04ecd91,61036ef72abca54ea525ecf6,2021-07-29_23h16.54.965,Simcolourproject_2stim_asymm_v5,2020.2.10,MacIntel,60,61025ae37ef11b136ea224fe,,,,,,,,,4017,40.7890625,-67.609375,1,0,0,response3disk,,4,-0.13671875,-2.05078125,1,0,0,rectangle,-0.13671875,-2.05078125,1,0,0,-0.13671875,-2.05078125,1,0,0,0,67,67,50,1,,,,,,,,
,,,,,,,,,,,,,FF,,,,,,,,1.5008,,,,,,,,,,,,,,,,,,,,,,60fccfabb21344f8a04ecd91,61036ef72abca54ea525ecf6,2021-07-29_23h16.54.965,Simcolourproject_2stim_asymm_v5,2020.2.10,MacIntel,60,61025ae37ef11b136ea224fe,,,,,,,,,2206,-76.1171875,28.0390625,1,0,0,response7disk,,1,-25.9453125,1.94140625,1,0,0,rectangle,-25.9453125,1.94140625,1,0,0,-25.9453125,1.94140625,1,0,0,0,68,68,69,1,,,,,,,,
,,,,,,,,,,,,,FF,,,,,,,,1.1488,,,,,,,,,,,,,,,,,,,,,,60fccfabb21344f8a04ecd91,61036ef72abca54ea525ecf6,2021-07-29_23h16.54.965,Simcolourproject_2stim_asymm_v5,2020.2.10,MacIntel,60,61025ae37ef11b136ea224fe,,,,,,,,,2325,-35.45703125,-76.375,1,0,0,response5disk,,3,-6.734375,-8.53125,1,0,0,rectangle,-6.734375,-8.53125,1,0,0,-6.734375,-8.53125,1,0,0,0,69,69,141,1,,,,,,,,
,,,,,,,,,,,,,FF,,,,,,,,0.982,,,,,,,,,,,,,,,,,,,,,,60fccfabb21344f8a04ecd91,61036ef72abca54ea525ecf6,2021-07-29_23h16.54.965,Simcolourproject_2stim_asymm_v5,2020.2.10,MacIntel,60,61025ae37ef11b136ea224fe,,,,,,,,,4237,79.73828125,61.3671875,1,0,0,response1disk,,6,10.51171875,10.1640625,1,0,0,rectangle,10.51171875,10.1640625,1,0,0,10.51171875,10.1640625,1,0,0,0,70,70,97,1,,,,,,,,
,,,,,,,,,,,,,FF,,,,,,,,1.0991,,,,,,,,,,,,,,,,,,,,,,60fccfabb21344f8a04ecd91,61036ef72abca54ea525ecf6,2021-07-29_23h16.54.965,Simcolourproject_2stim_asymm_v5,2020.2.10,MacIntel,60,61025ae37ef11b136ea224fe,,,,,,,,,1491,32.11328125,-88.05859375,1,0,0,response3disk,,4,-9.21484375,-1.53125,1,0,0,rectangle,-9.21484375,-1.53125,1,0,0,-9.21484375,-1.53125,1,0,0,0,71,71,21,1,,,,,,,,
,,,,,,,,,,,,,FF,,,,,,,,0.8325,,,,,,,,,,,,,,,,,,,,,,60fccfabb21344f8a04ecd91,61036ef72abca54ea525ecf6,2021-07-29_23h16.54.965,Simcolourproject_2stim_asymm_v5,2020.2.10,MacIntel,60,61025ae37ef11b136ea224fe,,,,,,,,,1293,105.8203125,63.30078125,1,0,0,response1disk,,6,-6.08203125,10.2109375,1,0,0,rectangle,-6.08203125,10.2109375,1,0,0,-6.08203125,10.2109375,1,0,0,0,72,72,122,1,,,,,,,,
,,,,,,,,,,,,,FF,,,,,,,,1.2494,,,,,,,,,,,,,,,,,,,,,,60fccfabb21344f8a04ecd91,61036ef72abca54ea525ecf6,2021-07-29_23h16.54.965,Simcolourproject_2stim_asymm_v5,2020.2.10,MacIntel,60,61025ae37ef11b136ea224fe,,,,,,,,,3165,-42.66796875,-90.41796875,1,0,0,response5disk,,3,0.10546875,-1.89453125,1,0,0,rectangle,0.10546875,-1.89453125,1,0,0,0.10546875,-1.89453125,1,0,0,0,73,73,145,1,,,,,,,,
,,,,,,,,,,,,,FF,,,,,,,,1.349,,,,,,,,,,,,,,,,,,,,,,60fccfabb21344f8a04ecd91,61036ef72abca54ea525ecf6,2021-07-29_23h16.54.965,Simcolourproject_2stim_asymm_v5,2020.2.10,MacIntel,60,61025ae37ef11b136ea224fe,,,,,,,,,3145,-74.18359375,-36.74609375,1,0,0,response5disk,,2,-8.078125,-10.95703125,1,0,0,rectangle,-8.078125,-10.95703125,1,0,0,-8.078125,-10.95703125,1,0,0,0,74,74,40,1,,,,,,,,
,,,,,,,,,,,,,FF,,,,,,,,1.0164,,,,,,,,,,,,,,,,,,,,,,60fccfabb21344f8a04ecd91,61036ef72abca54ea525ecf6,2021-07-29_23h16.54.965,Simcolourproject_2stim_asymm_v5,2020.2.10,MacIntel,60,61025ae37ef11b136ea224fe,,,,,,,,,707,-97.78515625,47.61328125,1,0,0,response7disk,,1,-11.6796875,-1.3203125,1,0,0,rectangle,-11.6796875,-1.3203125,1,0,0,-11.6796875,-1.3203125,1,0,0,0,75,75,102,1,,,,,,,,
,,,,,,,,,,,,,FF,,,,,,,,1.2682,,,,,,,,,,,,,,,,,,,,,,60fccfabb21344f8a04ecd91,61036ef72abca54ea525ecf6,2021-07-29_23h16.54.965,Simcolourproject_2stim_asymm_v5,2020.2.10,MacIntel,60,61025ae37ef11b136ea224fe,,,,,,,,,3277,-101.59375,29.09765625,1,0,0,response7disk,,1,7.859375,-5.51953125,1,0,0,rectangle,7.859375,-5.51953125,1,0,0,7.859375,-5.51953125,1,0,0,0,76,76,44,1,,,,,,,,
,,,,,,,,,,,,,FF,,,,,,,,1.3328,,,,,,,,,,,,,,,,,,,,,,60fccfabb21344f8a04ecd91,61036ef72abca54ea525ecf6,2021-07-29_23h16.54.965,Simcolourproject_2stim_asymm_v5,2020.2.10,MacIntel,60,61025ae37ef11b136ea224fe,,,,,,,,,758,-56.5234375,-38.3359375,1,0,0,response5disk,,2,-5.69140625,-11.75390625,1,0,0,rectangle,-5.69140625,-11.75390625,1,0,0,-5.69140625,-11.75390625,1,0,0,0,77,77,46,1,,,,,,,,
,,,,,,,,,,,,,FF,,,,,,,,1.0156,,,,,,,,,,,,,,,,,,,,,,60fccfabb21344f8a04ecd91,61036ef72abca54ea525ecf6,2021-07-29_23h16.54.965,Simcolourproject_2stim_asymm_v5,2020.2.10,MacIntel,60,61025ae37ef11b136ea224fe,,,,,,,,,1952,102.1796875,-58.27734375,1,0,0,response3disk,,5,-24.54296875,6.09765625,1,0,0,rectangle,-24.54296875,6.09765625,1,0,0,-24.54296875,6.09765625,1,0,0,0,78,78,156,1,,,,,,,,
,,,,,,,,,,,,,FF,,,,,,,,2.1004,,,,,,,,,,,,,,,,,,,,,,60fccfabb21344f8a04ecd91,61036ef72abca54ea525ecf6,2021-07-29_23h16.54.965,Simcolourproject_2stim_asymm_v5,2020.2.10,MacIntel,60,61025ae37ef11b136ea224fe,,,,,,,,,2276,-31.04296875,-98.71875,1,0,0,response5disk,,3,-4.35546875,7.578125,1,0,0,rectangle,-4.35546875,7.578125,1,0,0,-4.35546875,7.578125,1,0,0,0,79,79,29,1,,,,,,,,
,,,,,,,,,,,,,FF,,,,,,,,0.9831,,,,,,,,,,,,,,,,,,,,,,60fccfabb21344f8a04ecd91,61036ef72abca54ea525ecf6,2021-07-29_23h16.54.965,Simcolourproject_2stim_asymm_v5,2020.2.10,MacIntel,60,61025ae37ef11b136ea224fe,,,,,,,,,1366,52.6875,-86.90234375,1,0,0,response3disk,,4,0.265625,-8.90625,1,0,0,rectangle,0.265625,-8.90625,1,0,0,0.265625,-8.90625,1,0,0,0,80,80,48,1,,,,,,,,
,,,,,,,,,,,,,FF,,,,,,,,1.399,,,,,,,,,,,,,,,,,,,,,,60fccfabb21344f8a04ecd91,61036ef72abca54ea525ecf6,2021-07-29_23h16.54.965,Simcolourproject_2stim_asymm_v5,2020.2.10,MacIntel,60,61025ae37ef11b136ea224fe,,,,,,,,,1257,-24.94140625,-88.21484375,1,0,0,response5disk,,3,-8.09765625,17.78515625,1,0,0,rectangle,-8.09765625,17.78515625,1,0,0,-8.09765625,17.78515625,1,0,0,0,81,81,110,1,,,,,,,,
,,,,,,,,,,,,,FF,,,,,,,,0.8654,,,,,,,,,,,,,,,,,,,,,,60fccfabb21344f8a04ecd91,61036ef72abca54ea525ecf6,2021-07-29_23h16.54.965,Simcolourproject_2stim_asymm_v5,2020.2.10,MacIntel,60,61025ae37ef11b136ea224fe,,,,,,,,,3742,108.265625,66.5546875,1,0,0,response1disk,,6,15.0390625,-0.33203125,1,0,0,rectangle,15.0390625,-0.33203125,1,0,0,15.0390625,-0.33203125,1,0,0,0,82,82,117,1,,,,,,,,
,,,,,,,,,,,,,FF,,,,,,,,4.4515,,,,,,,,,,,,,,,,,,,,,,60fccfabb21344f8a04ecd91,61036ef72abca54ea525ecf6,2021-07-29_23h16.54.965,Simcolourproject_2stim_asymm_v5,2020.2.10,MacIntel,60,61025ae37ef11b136ea224fe,,,,,,,,,1607,35.2421875,-82.6875,1,0,0,response3disk,,4,3.13671875,-6.7890625,1,0,0,rectangle,3.13671875,-6.7890625,1,0,0,3.13671875,-6.7890625,1,0,0,0,83,83,56,1,,,,,,,,
,,,,,,,,,,,,,FF,,,,,,,,0.9993,,,,,,,,,,,,,,,,,,,,,,60fccfabb21344f8a04ecd91,61036ef72abca54ea525ecf6,2021-07-29_23h16.54.965,Simcolourproject_2stim_asymm_v5,2020.2.10,MacIntel,60,61025ae37ef11b136ea224fe,,,,,,,,,2673,94.83984375,-43.80859375,1,0,0,response3disk,,5,6.8125,-3.63671875,1,0,0,rectangle,6.8125,-3.63671875,1,0,0,6.8125,-3.63671875,1,0,0,0,84,84,146,1,,,,,,,,
,,,,,,,,,,,,,FF,,,,,,,,0.9009,,,,,,,,,,,,,,,,,,,,,,60fccfabb21344f8a04ecd91,61036ef72abca54ea525ecf6,2021-07-29_23h16.54.965,Simcolourproject_2stim_asymm_v5,2020.2.10,MacIntel,60,61025ae37ef11b136ea224fe,,,,,,,,,2593,88.8671875,-56.22265625,1,0,0,response3disk,,5,-2.73828125,13.625,1,0,0,rectangle,-2.73828125,13.625,1,0,0,-2.73828125,13.625,1,0,0,0,85,85,96,1,,,,,,,,
,,,,,,,,,,,,,FF,,,,,,,,0.9013,,,,,,,,,,,,,,,,,,,,,,60fccfabb21344f8a04ecd91,61036ef72abca54ea525ecf6,2021-07-29_23h16.54.965,Simcolourproject_2stim_asymm_v5,2020.2.10,MacIntel,60,61025ae37ef11b136ea224fe,,,,,,,,,2408,-61.11328125,-79.5234375,1,0,0,response5disk,,3,-1.78125,14.0625,1,0,0,rectangle,36.50390625,88.7265625,1,0,0,-4.23828125,-11.2890625,1,0,0,0,86,86,140,1,,response1disk_3,TRUE,7,7,"[196,99,41,115,269,162,318,217,294,206,87,191,261,209,94,259,147,95,256,174]",3.5841,rectangle
,,,,,,,,,,,,,FF,,,,,,,,2.417,,,,,,,,,,,,,,,,,,,,,,60fccfabb21344f8a04ecd91,61036ef72abca54ea525ecf6,2021-07-29_23h16.54.965,Simcolourproject_2stim_asymm_v5,2020.2.10,MacIntel,60,61025ae37ef11b136ea224fe,,,,,,,,,2763,46.2421875,-105.2226563,1,0,0,response3disk,,4,-5.56640625,17.2578125,1,0,0,rectangle,-5.56640625,17.2578125,1,0,0,-5.56640625,17.2578125,1,0,0,0,87,87,124,1,,,,,,,,
,,,,,,,,,,,,,FF,,,,,,,,1.2503,,,,,,,,,,,,,,,,,,,,,,60fccfabb21344f8a04ecd91,61036ef72abca54ea525ecf6,2021-07-29_23h16.54.965,Simcolourproject_2stim_asymm_v5,2020.2.10,MacIntel,60,61025ae37ef11b136ea224fe,,,,,,,,,99,88.91015625,-31.5,1,0,0,response3disk,,5,5.10546875,-11.19140625,1,0,0,rectangle,5.10546875,-11.19140625,1,0,0,5.10546875,-11.19140625,1,0,0,0,88,88,47,1,,,,,,,,
,,,,,,,,,,,,,FF,,,,,,,,1.7679,,,,,,,,,,,,,,,,,,,,,,60fccfabb21344f8a04ecd91,61036ef72abca54ea525ecf6,2021-07-29_23h16.54.965,Simcolourproject_2stim_asymm_v5,2020.2.10,MacIntel,60,61025ae37ef11b136ea224fe,,,,,,,,,1908,93.359375,-42.3046875,1,0,0,response3disk,,5,-19.43359375,1.3828125,1,0,0,rectangle,-19.43359375,1.3828125,1,0,0,-19.43359375,1.3828125,1,0,0,0,89,89,31,1,,,,,,,,
,,,,,,,,,,,,,FF,,,,,,,,1.5823,,,,,,,,,,,,,,,,,,,,,,60fccfabb21344f8a04ecd91,61036ef72abca54ea525ecf6,2021-07-29_23h16.54.965,Simcolourproject_2stim_asymm_v5,2020.2.10,MacIntel,60,61025ae37ef11b136ea224fe,,,,,,,,,3409,90.46484375,-52.29296875,1,0,0,response3disk,,5,8.86328125,0.25390625,1,0,0,rectangle,8.86328125,0.25390625,1,0,0,8.86328125,0.25390625,1,0,0,0,90,90,4,1,,,,,,,,
,,,,,,,,,,,,,FF,,,,,,,,3.416,,,,,,,,,,,,,,,,,,,,,,60fccfabb21344f8a04ecd91,61036ef72abca54ea525ecf6,2021-07-29_23h16.54.965,Simcolourproject_2stim_asymm_v5,2020.2.10,MacIntel,60,61025ae37ef11b136ea224fe,,,,,,,,,3137,31.2265625,-79.5078125,1,0,0,response3disk,,4,-4.77734375,-3.4140625,1,0,0,rectangle,-4.77734375,-3.4140625,1,0,0,-4.77734375,-3.4140625,1,0,0,0,91,91,149,1,,,,,,,,
,,,,,,,,,,,,,FF,,,,,,,,1.6664,,,,,,,,,,,,,,,,,,,,,,60fccfabb21344f8a04ecd91,61036ef72abca54ea525ecf6,2021-07-29_23h16.54.965,Simcolourproject_2stim_asymm_v5,2020.2.10,MacIntel,60,61025ae37ef11b136ea224fe,,,,,,,,,2136,-79.59765625,-49.59765625,1,0,0,response5disk,,2,35.75,3.734375,1,0,0,rectangle,35.75,3.734375,1,0,0,35.75,3.734375,1,0,0,0,92,92,80,1,,,,,,,,
,,,,,,,,,,,,,FF,,,,,,,,0.7336,,,,,,,,,,,,,,,,,,,,,,60fccfabb21344f8a04ecd91,61036ef72abca54ea525ecf6,2021-07-29_23h16.54.965,Simcolourproject_2stim_asymm_v5,2020.2.10,MacIntel,60,61025ae37ef11b136ea224fe,,,,,,,,,1428,104.359375,-60.0078125,1,0,0,response3disk,,5,-1.984375,-6.00390625,1,0,0,rectangle,94.20703125,-38.22265625,1,0,0,1.2734375,2.71875,1,0,0,0,93,93,128,1,,response3disk_3,TRUE,5,5,"[196,99,41,115,269,162,318,217,294,206,87,191,261,209,94,259,147,95,256,174]",1.7169,rectangle
,,,,,,,,,,,,,FF,,,,,,,,1.0164,,,,,,,,,,,,,,,,,,,,,,60fccfabb21344f8a04ecd91,61036ef72abca54ea525ecf6,2021-07-29_23h16.54.965,Simcolourproject_2stim_asymm_v5,2020.2.10,MacIntel,60,61025ae37ef11b136ea224fe,,,,,,,,,3671,103.0703125,37.25,1,0,0,response1disk,,6,1.9921875,-4.9453125,1,0,0,rectangle,59.70703125,-98.69140625,1,0,0,8.30078125,6.8984375,1,0,0,0,94,94,152,1,,response3disk_3,TRUE,4,4,"[196,99,41,115,269,162,318,217,294,206,87,191,261,209,94,259,147,95,256,174]",1.6984,rectangle
,,,,,,,,,,,,,FF,,,,,,,,1.9513,,,,,,,,,,,,,,,,,,,,,,60fccfabb21344f8a04ecd91,61036ef72abca54ea525ecf6,2021-07-29_23h16.54.965,Simcolourproject_2stim_asymm_v5,2020.2.10,MacIntel,60,61025ae37ef11b136ea224fe,,,,,,,,,3723,-52.62109375,-85.68359375,1,0,0,response5disk,,3,-5.40234375,5.07421875,1,0,0,rectangle,-5.40234375,5.07421875,1,0,0,-5.40234375,5.07421875,1,0,0,0,95,95,93,1,,,,,,,,
,,,,,,,,,,,,,FF,,,,,,,,1.2506,,,,,,,,,,,,,,,,,,,,,,60fccfabb21344f8a04ecd91,61036ef72abca54ea525ecf6,2021-07-29_23h16.54.965,Simcolourproject_2stim_asymm_v5,2020.2.10,MacIntel,60,61025ae37ef11b136ea224fe,,,,,,,,,7,84.46484375,-64.22265625,1,0,0,response3disk,,5,-3.37890625,-10.78515625,1,0,0,rectangle,-3.37890625,-10.78515625,1,0,0,-3.37890625,-10.78515625,1,0,0,0,96,96,92,1,,,,,,,,
,,,,,,,,,,,,,FF,,,,,,,,1.8007,,,,,,,,,,,,,,,,,,,,,,60fccfabb21344f8a04ecd91,61036ef72abca54ea525ecf6,2021-07-29_23h16.54.965,Simcolourproject_2stim_asymm_v5,2020.2.10,MacIntel,60,61025ae37ef11b136ea224fe,,,,,,,,,3244,47.21875,89.984375,1,0,0,response1disk,,7,-9.16015625,-2.75390625,1,0,0,rectangle,-9.16015625,-2.75390625,1,0,0,-9.16015625,-2.75390625,1,0,0,0,97,97,94,1,,,,,,,,
,,,,,,,,,,,,,FF,,,,,,,,0.7668,,,,,,,,,,,,,,,,,,,,,,60fccfabb21344f8a04ecd91,61036ef72abca54ea525ecf6,2021-07-29_23h16.54.965,Simcolourproject_2stim_asymm_v5,2020.2.10,MacIntel,60,61025ae37ef11b136ea224fe,,,,,,,,,3252,74.91015625,19.33984375,1,0,0,response1disk,,6,-8.0859375,-11.48046875,1,0,0,rectangle,-74.6640625,33.1328125,1,0,0,-12.63671875,-9.0703125,1,0,0,0,98,98,68,1,,response7disk_3,TRUE,1,1,"[196,99,41,115,269,162,318,217,294,206,87,191,261,209,94,259,147,95,256,174]",1.3998,rectangle
,,,,,,,,,,,,,FF,,,,,,,,2.0156,,,,,,,,,,,,,,,,,,,,,,60fccfabb21344f8a04ecd91,61036ef72abca54ea525ecf6,2021-07-29_23h16.54.965,Simcolourproject_2stim_asymm_v5,2020.2.10,MacIntel,60,61025ae37ef11b136ea224fe,,,,,,,,,1804,-49.40234375,-97.1875,1,0,0,response5disk,,3,3.8359375,-10.85546875,1,0,0,rectangle,3.8359375,-10.85546875,1,0,0,3.8359375,-10.85546875,1,0,0,0,99,99,111,1,,,,,,,,
,,,,,,,,,,,,,FF,,,,,,,,1.9344,,,,,,,,,,,,,,,,,,,,,,60fccfabb21344f8a04ecd91,61036ef72abca54ea525ecf6,2021-07-29_23h16.54.965,Simcolourproject_2stim_asymm_v5,2020.2.10,MacIntel,60,61025ae37ef11b136ea224fe,,,,,,,,,3832,44.359375,-86.66015625,1,0,0,response3disk,,4,0.6171875,-3.54296875,1,0,0,rectangle,0.6171875,-3.54296875,1,0,0,0.6171875,-3.54296875,1,0,0,0,100,100,131,1,,,,,,,,
,,,,,,,,,,,,,FF,,,,,,,,0.7172,,,,,,,,,,,,,,,,,,,,,,60fccfabb21344f8a04ecd91,61036ef72abca54ea525ecf6,2021-07-29_23h16.54.965,Simcolourproject_2stim_asymm_v5,2020.2.10,MacIntel,60,61025ae37ef11b136ea224fe,,,,,,,,,476,71.41796875,-41.9609375,1,0,0,response3disk,,5,18.16796875,-2.828125,1,0,0,rectangle,18.16796875,-2.828125,1,0,0,18.16796875,-2.828125,1,0,0,0,101,101,89,1,,,,,,,,
,,,,,,,,,,,,,FF,,,,,,,,1.6017,,,,,,,,,,,,,,,,,,,,,,60fccfabb21344f8a04ecd91,61036ef72abca54ea525ecf6,2021-07-29_23h16.54.965,Simcolourproject_2stim_asymm_v5,2020.2.10,MacIntel,60,61025ae37ef11b136ea224fe,,,,,,,,,115,94.421875,-45.0625,1,0,0,response3disk,,5,29.5546875,-10.74609375,1,0,0,rectangle,29.5546875,-10.74609375,1,0,0,29.5546875,-10.74609375,1,0,0,0,102,102,7,1,,,,,,,,
,,,,,,,,,,,,,FF,,,,,,,,0.8986,,,,,,,,,,,,,,,,,,,,,,60fccfabb21344f8a04ecd91,61036ef72abca54ea525ecf6,2021-07-29_23h16.54.965,Simcolourproject_2stim_asymm_v5,2020.2.10,MacIntel,60,61025ae37ef11b136ea224fe,,,,,,,,,360,96.0546875,-41.05078125,1,0,0,response3disk,,5,9.63671875,-1.12890625,1,0,0,rectangle,9.63671875,-1.12890625,1,0,0,9.63671875,-1.12890625,1,0,0,0,103,103,26,1,,,,,,,,
,,,,,,,,,,,,,FF,,,,,,,,0.716,,,,,,,,,,,,,,,,,,,,,,60fccfabb21344f8a04ecd91,61036ef72abca54ea525ecf6,2021-07-29_23h16.54.965,Simcolourproject_2stim_asymm_v5,2020.2.10,MacIntel,60,61025ae37ef11b136ea224fe,,,,,,,,,62,51.6484375,-75.4765625,1,0,0,response3disk,,4,9.390625,9.17578125,1,0,0,rectangle,9.390625,9.17578125,1,0,0,9.390625,9.17578125,1,0,0,0,104,104,83,1,,,,,,,,
,,,,,,,,,,,,,FF,,,,,,,,0.9493,,,,,,,,,,,,,,,,,,,,,,60fccfabb21344f8a04ecd91,61036ef72abca54ea525ecf6,2021-07-29_23h16.54.965,Simcolourproject_2stim_asymm_v5,2020.2.10,MacIntel,60,61025ae37ef11b136ea224fe,,,,,,,,,58,79.08984375,-52.70703125,1,0,0,response3disk,,5,5.328125,9.0390625,1,0,0,rectangle,5.328125,9.0390625,1,0,0,5.328125,9.0390625,1,0,0,0,105,105,121,1,,,,,,,,
,,,,,,,,,,,,,FF,,,,,,,,1.5334,,,,,,,,,,,,,,,,,,,,,,60fccfabb21344f8a04ecd91,61036ef72abca54ea525ecf6,2021-07-29_23h16.54.965,Simcolourproject_2stim_asymm_v5,2020.2.10,MacIntel,60,61025ae37ef11b136ea224fe,,,,,,,,,2710,55.06640625,-77.046875,1,0,0,response3disk,,4,11.10546875,-8.15234375,1,0,0,rectangle,11.10546875,-8.15234375,1,0,0,11.10546875,-8.15234375,1,0,0,0,106,106,114,1,,,,,,,,
,,,,,,,,,,,,,FF,,,,,,,,1.4996,,,,,,,,,,,,,,,,,,,,,,60fccfabb21344f8a04ecd91,61036ef72abca54ea525ecf6,2021-07-29_23h16.54.965,Simcolourproject_2stim_asymm_v5,2020.2.10,MacIntel,60,61025ae37ef11b136ea224fe,,,,,,,,,1103,-88.47265625,-31.671875,1,0,0,response5disk,,2,-14.08984375,-6.30078125,1,0,0,rectangle,-14.08984375,-6.30078125,1,0,0,-14.08984375,-6.30078125,1,0,0,0,107,107,20,1,,,,,,,,
,,,,,,,,,,,,,FF,,,,,,,,1.0182,,,,,,,,,,,,,,,,,,,,,,60fccfabb21344f8a04ecd91,61036ef72abca54ea525ecf6,2021-07-29_23h16.54.965,Simcolourproject_2stim_asymm_v5,2020.2.10,MacIntel,60,61025ae37ef11b136ea224fe,,,,,,,,,2271,-62.90234375,-44.7109375,1,0,0,response5disk,,2,3.51171875,-6.328125,1,0,0,rectangle,3.51171875,-6.328125,1,0,0,3.51171875,-6.328125,1,0,0,0,108,108,18,1,,,,,,,,
,,,,,,,,,,,,,FF,,,,,,,,0.9821,,,,,,,,,,,,,,,,,,,,,,60fccfabb21344f8a04ecd91,61036ef72abca54ea525ecf6,2021-07-29_23h16.54.965,Simcolourproject_2stim_asymm_v5,2020.2.10,MacIntel,60,61025ae37ef11b136ea224fe,,,,,,,,,3120,24.15625,-87.3515625,1,0,0,response3disk,,4,12.5390625,-1.734375,1,0,0,rectangle,12.5390625,-1.734375,1,0,0,12.5390625,-1.734375,1,0,0,0,109,109,34,1,,,,,,,,
,,,,,,,,,,,,,FF,,,,,,,,0.7678,,,,,,,,,,,,,,,,,,,,,,60fccfabb21344f8a04ecd91,61036ef72abca54ea525ecf6,2021-07-29_23h16.54.965,Simcolourproject_2stim_asymm_v5,2020.2.10,MacIntel,60,61025ae37ef11b136ea224fe,,,,,,,,,1750,98.83984375,35.76171875,1,0,0,response1disk,,6,-3.30078125,-15.71484375,1,0,0,rectangle,-3.30078125,-15.71484375,1,0,0,-3.30078125,-15.71484375,1,0,0,0,110,110,28,1,,,,,,,,
,,,,,,,,,,,,,FF,,,,,,,,0.7491,,,,,,,,,,,,,,,,,,,,,,60fccfabb21344f8a04ecd91,61036ef72abca54ea525ecf6,2021-07-29_23h16.54.965,Simcolourproject_2stim_asymm_v5,2020.2.10,MacIntel,60,61025ae37ef11b136ea224fe,,,,,,,,,328,35.04296875,-88.89453125,1,0,0,response3disk,,4,4.72265625,-0.3515625,1,0,0,rectangle,4.72265625,-0.3515625,1,0,0,4.72265625,-0.3515625,1,0,0,0,111,111,42,1,,,,,,,,
,,,,,,,,,,,,,FF,,,,,,,,1.8327,,,,,,,,,,,,,,,,,,,,,,60fccfabb21344f8a04ecd91,61036ef72abca54ea525ecf6,2021-07-29_23h16.54.965,Simcolourproject_2stim_asymm_v5,2020.2.10,MacIntel,60,61025ae37ef11b136ea224fe,,,,,,,,,2306,43.41796875,-72.96875,1,0,0,response3disk,,4,7.10546875,8.921875,1,0,0,rectangle,7.10546875,8.921875,1,0,0,7.10546875,8.921875,1,0,0,0,112,112,86,1,,,,,,,,
,,,,,,,,,,,,,FF,,,,,,,,0.9344,,,,,,,,,,,,,,,,,,,,,,60fccfabb21344f8a04ecd91,61036ef72abca54ea525ecf6,2021-07-29_23h16.54.965,Simcolourproject_2stim_asymm_v5,2020.2.10,MacIntel,60,61025ae37ef11b136ea224fe,,,,,,,,,2762,-65.34765625,-84.66015625,1,0,0,response5disk,,3,-1.796875,-4.72265625,1,0,0,rectangle,-1.796875,-4.72265625,1,0,0,-1.796875,-4.72265625,1,0,0,0,113,113,116,1,,,,,,,,
,,,,,,,,,,,,,FF,,,,,,,,2.2338,,,,,,,,,,,,,,,,,,,,,,60fccfabb21344f8a04ecd91,61036ef72abca54ea525ecf6,2021-07-29_23h16.54.965,Simcolourproject_2stim_asymm_v5,2020.2.10,MacIntel,60,61025ae37ef11b136ea224fe,,,,,,,,,627,-94.13671875,-25.80859375,1,0,0,response5disk,,2,-17.33984375,-10.3125,1,0,0,rectangle,-98.45703125,-45.31640625,1,0,0,0.015625,1.59765625,1,0,0,0,114,114,112,1,,response5disk_3,TRUE,2,2,"[196,99,41,115,269,162,318,217,294,206,87,191,261,209,94,259,147,95,256,174]",1.9981,rectangle
,,,,,,,,,,,,,FF,,,,,,,,1.1521,,,,,,,,,,,,,,,,,,,,,,60fccfabb21344f8a04ecd91,61036ef72abca54ea525ecf6,2021-07-29_23h16.54.965,Simcolourproject_2stim_asymm_v5,2020.2.10,MacIntel,60,61025ae37ef11b136ea224fe,,,,,,,,,278,89.34765625,33.0546875,1,0,0,response1disk,,6,23.1953125,1.1328125,1,0,0,rectangle,23.1953125,1.1328125,1,0,0,23.1953125,1.1328125,1,0,0,0,115,115,125,1,,,,,,,,
,,,,,,,,,,,,,FF,,,,,,,,0.699,,,,,,,,,,,,,,,,,,,,,,60fccfabb21344f8a04ecd91,61036ef72abca54ea525ecf6,2021-07-29_23h16.54.965,Simcolourproject_2stim_asymm_v5,2020.2.10,MacIntel,60,61025ae37ef11b136ea224fe,,,,,,,,,1692,56.73046875,-83.4921875,1,0,0,response3disk,,4,1.67578125,-7.00390625,1,0,0,rectangle,1.67578125,-7.00390625,1,0,0,1.67578125,-7.00390625,1,0,0,0,116,116,8,1,,,,,,,,
,,,,,,,,,,,,,FF,,,,,,,,0.8991,,,,,,,,,,,,,,,,,,,,,,60fccfabb21344f8a04ecd91,61036ef72abca54ea525ecf6,2021-07-29_23h16.54.965,Simcolourproject_2stim_asymm_v5,2020.2.10,MacIntel,60,61025ae37ef11b136ea224fe,,,,,,,,,499,-31.62109375,-74.65234375,1,0,0,response5disk,,3,-6.4140625,-12.109375,1,0,0,rectangle,-6.4140625,-12.109375,1,0,0,-6.4140625,-12.109375,1,0,0,0,117,117,85,1,,,,,,,,
,,,,,,,,,,,,,FF,,,,,,,,0.5825,,,,,,,,,,,,,,,,,,,,,,60fccfabb21344f8a04ecd91,61036ef72abca54ea525ecf6,2021-07-29_23h16.54.965,Simcolourproject_2stim_asymm_v5,2020.2.10,MacIntel,60,61025ae37ef11b136ea224fe,,,,,,,,,3231,-75.0234375,-41.12890625,1,0,0,response5disk,,2,8.5390625,7.94921875,1,0,0,rectangle,8.5390625,7.94921875,1,0,0,8.5390625,7.94921875,1,0,0,0,118,118,115,1,,,,,,,,
,,,,,,,,,,,,,FF,,,,,,,,0.699,,,,,,,,,,,,,,,,,,,,,,60fccfabb21344f8a04ecd91,61036ef72abca54ea525ecf6,2021-07-29_23h16.54.965,Simcolourproject_2stim_asymm_v5,2020.2.10,MacIntel,60,61025ae37ef11b136ea224fe,,,,,,,,,3558,122.0195313,56.046875,1,0,0,response1disk,,6,23.0390625,8.41796875,1,0,0,rectangle,23.0390625,8.41796875,1,0,0,23.0390625,8.41796875,1,0,0,0,119,119,5,1,,,,,,,,
,,,,,,,,,,,,,FF,,,,,,,,0.7329,,,,,,,,,,,,,,,,,,,,,,60fccfabb21344f8a04ecd91,61036ef72abca54ea525ecf6,2021-07-29_23h16.54.965,Simcolourproject_2stim_asymm_v5,2020.2.10,MacIntel,60,61025ae37ef11b136ea224fe,,,,,,,,,786,48.5546875,-82.65234375,1,0,0,response3disk,,4,10.40234375,-6.60546875,1,0,0,rectangle,10.40234375,-6.60546875,1,0,0,10.40234375,-6.60546875,1,0,0,0,120,120,132,1,,,,,,,,
,,,,,,,,,,,,,FF,,,,,,,,0.599,,,,,,,,,,,,,,,,,,,,,,60fccfabb21344f8a04ecd91,61036ef72abca54ea525ecf6,2021-07-29_23h16.54.965,Simcolourproject_2stim_asymm_v5,2020.2.10,MacIntel,60,61025ae37ef11b136ea224fe,,,,,,,,,4045,-36.21484375,-63.078125,1,0,0,response5disk,,3,-2.16796875,9.5546875,1,0,0,rectangle,-2.16796875,9.5546875,1,0,0,-2.16796875,9.5546875,1,0,0,0,121,121,61,1,,,,,,,,
,,,,,,,,,,,,,FF,,,,,,,,0.7654,,,,,,,,,,,,,,,,,,,,,,60fccfabb21344f8a04ecd91,61036ef72abca54ea525ecf6,2021-07-29_23h16.54.965,Simcolourproject_2stim_asymm_v5,2020.2.10,MacIntel,60,61025ae37ef11b136ea224fe,,,,,,,,,2023,-68.32421875,-21.8984375,1,0,0,response5disk,,2,-17.6953125,-9.52734375,1,0,0,rectangle,-17.6953125,-9.52734375,1,0,0,-17.6953125,-9.52734375,1,0,0,0,122,122,105,1,,,,,,,,
,,,,,,,,,,,,,FF,,,,,,,,0.6829,,,,,,,,,,,,,,,,,,,,,,60fccfabb21344f8a04ecd91,61036ef72abca54ea525ecf6,2021-07-29_23h16.54.965,Simcolourproject_2stim_asymm_v5,2020.2.10,MacIntel,60,61025ae37ef11b136ea224fe,,,,,,,,,609,72.2265625,-45.4453125,1,0,0,response3disk,,5,-3.17578125,17.796875,1,0,0,rectangle,-3.17578125,17.796875,1,0,0,-3.17578125,17.796875,1,0,0,0,123,123,79,1,,,,,,,,
,,,,,,,,,,,,,FF,,,,,,,,1.1348,,,,,,,,,,,,,,,,,,,,,,60fccfabb21344f8a04ecd91,61036ef72abca54ea525ecf6,2021-07-29_23h16.54.965,Simcolourproject_2stim_asymm_v5,2020.2.10,MacIntel,60,61025ae37ef11b136ea224fe,,,,,,,,,694,-93.65234375,-69.1875,1,0,0,response5disk,,2,-18.23828125,-7.3359375,1,0,0,rectangle,-18.23828125,-7.3359375,1,0,0,-18.23828125,-7.3359375,1,0,0,0,124,124,70,1,,,,,,,,
,,,,,,,,,,,,,FF,,,,,,,,1.1007,,,,,,,,,,,,,,,,,,,,,,60fccfabb21344f8a04ecd91,61036ef72abca54ea525ecf6,2021-07-29_23h16.54.965,Simcolourproject_2stim_asymm_v5,2020.2.10,MacIntel,60,61025ae37ef11b136ea224fe,,,,,,,,,1164,43.90234375,-102.7734375,1,0,0,response3disk,,4,-3.23828125,3.44921875,1,0,0,rectangle,-3.23828125,3.44921875,1,0,0,-3.23828125,3.44921875,1,0,0,0,125,125,3,1,,,,,,,,
,,,,,,,,,,,,,FF,,,,,,,,0.6336,,,,,,,,,,,,,,,,,,,,,,60fccfabb21344f8a04ecd91,61036ef72abca54ea525ecf6,2021-07-29_23h16.54.965,Simcolourproject_2stim_asymm_v5,2020.2.10,MacIntel,60,61025ae37ef11b136ea224fe,,,,,,,,,1028,-49.62109375,-72.21875,1,0,0,response5disk,,3,4.6171875,1.01171875,1,0,0,rectangle,4.6171875,1.01171875,1,0,0,4.6171875,1.01171875,1,0,0,0,126,126,99,1,,,,,,,,
,,,,,,,,,,,,,FF,,,,,,,,0.999,,,,,,,,,,,,,,,,,,,,,,60fccfabb21344f8a04ecd91,61036ef72abca54ea525ecf6,2021-07-29_23h16.54.965,Simcolourproject_2stim_asymm_v5,2020.2.10,MacIntel,60,61025ae37ef11b136ea224fe,,,,,,,,,2467,-88.640625,33.23828125,1,0,0,response7disk,,1,-2.015625,1.8203125,1,0,0,rectangle,-2.015625,1.8203125,1,0,0,-2.015625,1.8203125,1,0,0,0,127,127,123,1,,,,,,,,
,,,,,,,,,,,,,FF,,,,,,,,1.2342,,,,,,,,,,,,,,,,,,,,,,60fccfabb21344f8a04ecd91,61036ef72abca54ea525ecf6,2021-07-29_23h16.54.965,Simcolourproject_2stim_asymm_v5,2020.2.10,MacIntel,60,61025ae37ef11b136ea224fe,,,,,,,,,2441,84.71875,-30.609375,1,0,0,response3disk,,5,17.4765625,-1.046875,1,0,0,rectangle,17.4765625,-1.046875,1,0,0,17.4765625,-1.046875,1,0,0,0,128,128,143,1,,,,,,,,
,,,,,,,,,,,,,FF,,,,,,,,0.9991,,,,,,,,,,,,,,,,,,,,,,60fccfabb21344f8a04ecd91,61036ef72abca54ea525ecf6,2021-07-29_23h16.54.965,Simcolourproject_2stim_asymm_v5,2020.2.10,MacIntel,60,61025ae37ef11b136ea224fe,,,,,,,,,3840,94.6953125,33.74609375,1,0,0,response1disk,,6,14.8671875,2.57421875,1,0,0,rectangle,14.8671875,2.57421875,1,0,0,14.8671875,2.57421875,1,0,0,0,129,129,16,1,,,,,,,,
,,,,,,,,,,,,,FF,,,,,,,,0.7334,,,,,,,,,,,,,,,,,,,,,,60fccfabb21344f8a04ecd91,61036ef72abca54ea525ecf6,2021-07-29_23h16.54.965,Simcolourproject_2stim_asymm_v5,2020.2.10,MacIntel,60,61025ae37ef11b136ea224fe,,,,,,,,,581,28.4296875,-107.6914063,1,0,0,response3disk,,4,-8.58984375,2.59375,1,0,0,rectangle,-8.58984375,2.59375,1,0,0,-8.58984375,2.59375,1,0,0,0,130,130,74,1,,,,,,,,
,,,,,,,,,,,,,FF,,,,,,,,1.6835,,,,,,,,,,,,,,,,,,,,,,60fccfabb21344f8a04ecd91,61036ef72abca54ea525ecf6,2021-07-29_23h16.54.965,Simcolourproject_2stim_asymm_v5,2020.2.10,MacIntel,60,61025ae37ef11b136ea224fe,,,,,,,,,3703,97.58984375,-50.56640625,1,0,0,response3disk,,5,26.02734375,-4.16796875,1,0,0,rectangle,26.02734375,-4.16796875,1,0,0,26.02734375,-4.16796875,1,0,0,0,131,131,90,1,,,,,,,,
,,,,,,,,,,,,,FF,,,,,,,,0.6168,,,,,,,,,,,,,,,,,,,,,,60fccfabb21344f8a04ecd91,61036ef72abca54ea525ecf6,2021-07-29_23h16.54.965,Simcolourproject_2stim_asymm_v5,2020.2.10,MacIntel,60,61025ae37ef11b136ea224fe,,,,,,,,,256,85.6484375,30.0234375,1,0,0,response1disk,,6,17.5390625,5.62890625,1,0,0,rectangle,17.5390625,5.62890625,1,0,0,17.5390625,5.62890625,1,0,0,0,132,132,139,1,,,,,,,,
,,,,,,,,,,,,,FF,,,,,,,,0.616,,,,,,,,,,,,,,,,,,,,,,60fccfabb21344f8a04ecd91,61036ef72abca54ea525ecf6,2021-07-29_23h16.54.965,Simcolourproject_2stim_asymm_v5,2020.2.10,MacIntel,60,61025ae37ef11b136ea224fe,,,,,,,,,187,107.3945313,47.8203125,1,0,0,response1disk,,6,26.453125,6.390625,1,0,0,rectangle,26.453125,6.390625,1,0,0,26.453125,6.390625,1,0,0,0,133,133,25,1,,,,,,,,
,,,,,,,,,,,,,FF,,,,,,,,0.9158,,,,,,,,,,,,,,,,,,,,,,60fccfabb21344f8a04ecd91,61036ef72abca54ea525ecf6,2021-07-29_23h16.54.965,Simcolourproject_2stim_asymm_v5,2020.2.10,MacIntel,60,61025ae37ef11b136ea224fe,,,,,,,,,2261,63.26171875,-50.359375,1,0,0,response3disk,,5,5.5859375,-6.40625,1,0,0,rectangle,5.5859375,-6.40625,1,0,0,5.5859375,-6.40625,1,0,0,0,134,134,147,1,,,,,,,,
,,,,,,,,,,,,,FF,,,,,,,,1.0997,,,,,,,,,,,,,,,,,,,,,,60fccfabb21344f8a04ecd91,61036ef72abca54ea525ecf6,2021-07-29_23h16.54.965,Simcolourproject_2stim_asymm_v5,2020.2.10,MacIntel,60,61025ae37ef11b136ea224fe,,,,,,,,,658,93.109375,-55.23046875,1,0,0,response3disk,,5,-2.03515625,-2.171875,1,0,0,rectangle,-2.03515625,-2.171875,1,0,0,-2.03515625,-2.171875,1,0,0,0,135,135,137,1,,,,,,,,
,,,,,,,,,,,,,FF,,,,,,,,0.6986,,,,,,,,,,,,,,,,,,,,,,60fccfabb21344f8a04ecd91,61036ef72abca54ea525ecf6,2021-07-29_23h16.54.965,Simcolourproject_2stim_asymm_v5,2020.2.10,MacIntel,60,61025ae37ef11b136ea224fe,,,,,,,,,1854,-56.7578125,-63.57421875,1,0,0,response5disk,,3,6.015625,0.33984375,1,0,0,rectangle,6.015625,0.33984375,1,0,0,6.015625,0.33984375,1,0,0,0,136,136,13,1,,,,,,,,
,,,,,,,,,,,,,FF,,,,,,,,1.0015,,,,,,,,,,,,,,,,,,,,,,60fccfabb21344f8a04ecd91,61036ef72abca54ea525ecf6,2021-07-29_23h16.54.965,Simcolourproject_2stim_asymm_v5,2020.2.10,MacIntel,60,61025ae37ef11b136ea224fe,,,,,,,,,799,-70.64453125,-77.390625,1,0,0,response5disk,,3,-34.35546875,-10.75390625,1,0,0,rectangle,-34.35546875,-10.75390625,1,0,0,-34.35546875,-10.75390625,1,0,0,0,137,137,95,1,,,,,,,,
,,,,,,,,,,,,,FF,,,,,,,,1.3503,,,,,,,,,,,,,,,,,,,,,,60fccfabb21344f8a04ecd91,61036ef72abca54ea525ecf6,2021-07-29_23h16.54.965,Simcolourproject_2stim_asymm_v5,2020.2.10,MacIntel,60,61025ae37ef11b136ea224fe,,,,,,,,,3186,-97.328125,31.8828125,1,0,0,response7disk,,1,4.49609375,1.921875,1,0,0,rectangle,4.49609375,1.921875,1,0,0,4.49609375,1.921875,1,0,0,0,138,138,148,1,,,,,,,,
,,,,,,,,,,,,,FF,,,,,,,,0.7502,,,,,,,,,,,,,,,,,,,,,,60fccfabb21344f8a04ecd91,61036ef72abca54ea525ecf6,2021-07-29_23h16.54.965,Simcolourproject_2stim_asymm_v5,2020.2.10,MacIntel,60,61025ae37ef11b136ea224fe,,,,,,,,,2251,84.00390625,-45.07421875,1,0,0,response3disk,,5,-24.04296875,13.54296875,1,0,0,rectangle,-24.04296875,13.54296875,1,0,0,-24.04296875,13.54296875,1,0,0,0,139,139,100,1,,,,,,,,
,,,,,,,,,,,,,FF,,,,,,,,0.7159,,,,,,,,,,,,,,,,,,,,,,60fccfabb21344f8a04ecd91,61036ef72abca54ea525ecf6,2021-07-29_23h16.54.965,Simcolourproject_2stim_asymm_v5,2020.2.10,MacIntel,60,61025ae37ef11b136ea224fe,,,,,,,,,1603,97.3359375,35.92578125,1,0,0,response1disk,,6,17.1640625,-6.10546875,1,0,0,rectangle,17.1640625,-6.10546875,1,0,0,17.1640625,-6.10546875,1,0,0,0,140,140,151,1,,,,,,,,
,,,,,,,,,,,,,FF,,,,,,,,0.6663,,,,,,,,,,,,,,,,,,,,,,60fccfabb21344f8a04ecd91,61036ef72abca54ea525ecf6,2021-07-29_23h16.54.965,Simcolourproject_2stim_asymm_v5,2020.2.10,MacIntel,60,61025ae37ef11b136ea224fe,,,,,,,,,530,75.74609375,38.9140625,1,0,0,response1disk,,6,34.26953125,8.86328125,1,0,0,rectangle,34.26953125,8.86328125,1,0,0,34.26953125,8.86328125,1,0,0,0,141,141,87,1,,,,,,,,
,,,,,,,,,,,,,FF,,,,,,,,0.8517,,,,,,,,,,,,,,,,,,,,,,60fccfabb21344f8a04ecd91,61036ef72abca54ea525ecf6,2021-07-29_23h16.54.965,Simcolourproject_2stim_asymm_v5,2020.2.10,MacIntel,60,61025ae37ef11b136ea224fe,,,,,,,,,942,39.3671875,-80.31640625,1,0,0,response3disk,,4,0.68359375,-5.19921875,1,0,0,rectangle,0.68359375,-5.19921875,1,0,0,0.68359375,-5.19921875,1,0,0,0,142,142,38,1,,,,,,,,
,,,,,,,,,,,,,FF,,,,,,,,0.7487,,,,,,,,,,,,,,,,,,,,,,60fccfabb21344f8a04ecd91,61036ef72abca54ea525ecf6,2021-07-29_23h16.54.965,Simcolourproject_2stim_asymm_v5,2020.2.10,MacIntel,60,61025ae37ef11b136ea224fe,,,,,,,,,4101,-33.9609375,-55.09765625,1,0,0,response5disk,,3,-23.375,1.3359375,1,0,0,rectangle,-23.375,1.3359375,1,0,0,-23.375,1.3359375,1,0,0,0,143,143,107,1,,,,,,,,
,,,,,,,,,,,,,FF,,,,,,,,0.982,,,,,,,,,,,,,,,,,,,,,,60fccfabb21344f8a04ecd91,61036ef72abca54ea525ecf6,2021-07-29_23h16.54.965,Simcolourproject_2stim_asymm_v5,2020.2.10,MacIntel,60,61025ae37ef11b136ea224fe,,,,,,,,,2675,84.15625,24.984375,1,0,0,response1disk,,6,-5.05078125,-5.84375,1,0,0,rectangle,-5.05078125,-5.84375,1,0,0,-5.05078125,-5.84375,1,0,0,0,144,144,134,1,,,,,,,,
,,,,,,,,,,,,,FF,,,,,,,,0.6985,,,,,,,,,,,,,,,,,,,,,,60fccfabb21344f8a04ecd91,61036ef72abca54ea525ecf6,2021-07-29_23h16.54.965,Simcolourproject_2stim_asymm_v5,2020.2.10,MacIntel,60,61025ae37ef11b136ea224fe,,,,,,,,,167,91.765625,31.6640625,1,0,0,response1disk,,6,20.30078125,7.80859375,1,0,0,rectangle,20.30078125,7.80859375,1,0,0,20.30078125,7.80859375,1,0,0,0,145,145,39,1,,,,,,,,
,,,,,,,,,,,,,FF,,,,,,,,0.6153,,,,,,,,,,,,,,,,,,,,,,60fccfabb21344f8a04ecd91,61036ef72abca54ea525ecf6,2021-07-29_23h16.54.965,Simcolourproject_2stim_asymm_v5,2020.2.10,MacIntel,60,61025ae37ef11b136ea224fe,,,,,,,,,2379,89.32421875,27.28515625,1,0,0,response1disk,,6,4.7578125,-6.51953125,1,0,0,rectangle,41.640625,84.77734375,1,0,0,2.34765625,-2.18359375,1,0,0,0,146,146,159,1,,response1disk_3,TRUE,7,7,"[196,99,41,115,269,162,318,217,294,206,87,191,261,209,94,259,147,95,256,174]",1.7173,rectangle
,,,,,,,,,,,,,FF,,,,,,,,1.084,,,,,,,,,,,,,,,,,,,,,,60fccfabb21344f8a04ecd91,61036ef72abca54ea525ecf6,2021-07-29_23h16.54.965,Simcolourproject_2stim_asymm_v5,2020.2.10,MacIntel,60,61025ae37ef11b136ea224fe,,,,,,,,,1395,37.234375,-102.546875,1,0,0,response3disk,,4,11.22265625,-0.68359375,1,0,0,rectangle,11.22265625,-0.68359375,1,0,0,11.22265625,-0.68359375,1,0,0,0,147,147,36,1,,,,,,,,
,,,,,,,,,,,,,FF,,,,,,,,0.6994,,,,,,,,,,,,,,,,,,,,,,60fccfabb21344f8a04ecd91,61036ef72abca54ea525ecf6,2021-07-29_23h16.54.965,Simcolourproject_2stim_asymm_v5,2020.2.10,MacIntel,60,61025ae37ef11b136ea224fe,,,,,,,,,3867,-43.8046875,-72.70703125,1,0,0,response5disk,,3,-17.6640625,-3.30859375,1,0,0,rectangle,-17.6640625,-3.30859375,1,0,0,-17.6640625,-3.30859375,1,0,0,0,148,148,14,1,,,,,,,,
,,,,,,,,,,,,,FF,,,,,,,,0.8171,,,,,,,,,,,,,,,,,,,,,,60fccfabb21344f8a04ecd91,61036ef72abca54ea525ecf6,2021-07-29_23h16.54.965,Simcolourproject_2stim_asymm_v5,2020.2.10,MacIntel,60,61025ae37ef11b136ea224fe,,,,,,,,,745,47.08984375,-97.36328125,1,0,0,response3disk,,4,17.0859375,7.30859375,1,0,0,rectangle,17.0859375,7.30859375,1,0,0,17.0859375,7.30859375,1,0,0,0,149,149,66,1,,,,,,,,
,,,,,,,,,,,,,FF,,,,,,,,0.868,,,,,,,,,,,,,,,,,,,,,,60fccfabb21344f8a04ecd91,61036ef72abca54ea525ecf6,2021-07-29_23h16.54.965,Simcolourproject_2stim_asymm_v5,2020.2.10,MacIntel,60,61025ae37ef11b136ea224fe,,,,,,,,,3990,40.05859375,-63.08203125,1,0,0,response3disk,,4,-1.015625,1.3203125,1,0,0,rectangle,-1.015625,1.3203125,1,0,0,-1.015625,1.3203125,1,0,0,0,150,150,45,1,,,,,,,,
,,,,,,,,,,,,,FF,,,,,,,,0.6679,,,,,,,,,,,,,,,,,,,,,,60fccfabb21344f8a04ecd91,61036ef72abca54ea525ecf6,2021-07-29_23h16.54.965,Simcolourproject_2stim_asymm_v5,2020.2.10,MacIntel,60,61025ae37ef11b136ea224fe,,,,,,,,,3230,-40.5546875,-70.26953125,1,0,0,response5disk,,3,-17.265625,-13.0546875,1,0,0,rectangle,-17.265625,-13.0546875,1,0,0,-17.265625,-13.0546875,1,0,0,0,151,151,82,1,,,,,,,,
,,,,,,,,,,,,,FF,,,,,,,,0.6343,,,,,,,,,,,,,,,,,,,,,,60fccfabb21344f8a04ecd91,61036ef72abca54ea525ecf6,2021-07-29_23h16.54.965,Simcolourproject_2stim_asymm_v5,2020.2.10,MacIntel,60,61025ae37ef11b136ea224fe,,,,,,,,,616,122.7734375,21.953125,1,0,0,response1disk,,6,16.1875,-4.3515625,1,0,0,rectangle,16.1875,-4.3515625,1,0,0,16.1875,-4.3515625,1,0,0,0,152,152,103,1,,,,,,,,
,,,,,,,,,,,,,FF,,,,,,,,0.6323,,,,,,,,,,,,,,,,,,,,,,60fccfabb21344f8a04ecd91,61036ef72abca54ea525ecf6,2021-07-29_23h16.54.965,Simcolourproject_2stim_asymm_v5,2020.2.10,MacIntel,60,61025ae37ef11b136ea224fe,,,,,,,,,2268,80.01171875,-36.015625,1,0,0,response3disk,,5,0.3828125,8.42578125,1,0,0,rectangle,0.3828125,8.42578125,1,0,0,0.3828125,8.42578125,1,0,0,0,153,153,120,1,,,,,,,,
,,,,,,,,,,,,,FF,,,,,,,,0.9851,,,,,,,,,,,,,,,,,,,,,,60fccfabb21344f8a04ecd91,61036ef72abca54ea525ecf6,2021-07-29_23h16.54.965,Simcolourproject_2stim_asymm_v5,2020.2.10,MacIntel,60,61025ae37ef11b136ea224fe,,,,,,,,,1181,29.3828125,-81.0703125,1,0,0,response3disk,,4,22.03515625,-7.05859375,1,0,0,rectangle,22.03515625,-7.05859375,1,0,0,22.03515625,-7.05859375,1,0,0,0,154,154,43,1,,,,,,,,
,,,,,,,,,,,,,FF,,,,,,,,0.7997,,,,,,,,,,,,,,,,,,,,,,60fccfabb21344f8a04ecd91,61036ef72abca54ea525ecf6,2021-07-29_23h16.54.965,Simcolourproject_2stim_asymm_v5,2020.2.10,MacIntel,60,61025ae37ef11b136ea224fe,,,,,,,,,1167,-28.23046875,-79.4375,1,0,0,response5disk,,3,0.84765625,-0.3125,1,0,0,rectangle,0.84765625,-0.3125,1,0,0,0.84765625,-0.3125,1,0,0,0,155,155,53,1,,,,,,,,
,,,,,,,,,,,,,FF,,,,,,,,1.1487,,,,,,,,,,,,,,,,,,,,,,60fccfabb21344f8a04ecd91,61036ef72abca54ea525ecf6,2021-07-29_23h16.54.965,Simcolourproject_2stim_asymm_v5,2020.2.10,MacIntel,60,61025ae37ef11b136ea224fe,,,,,,,,,2335,-76.671875,51.890625,1,0,0,response7disk,,1,13.01953125,14.12109375,1,0,0,rectangle,13.01953125,14.12109375,1,0,0,13.01953125,14.12109375,1,0,0,0,156,156,11,1,,,,,,,,
,,,,,,,,,,,,,FF,,,,,,,,0.7171,,,,,,,,,,,,,,,,,,,,,,60fccfabb21344f8a04ecd91,61036ef72abca54ea525ecf6,2021-07-29_23h16.54.965,Simcolourproject_2stim_asymm_v5,2020.2.10,MacIntel,60,61025ae37ef11b136ea224fe,,,,,,,,,388,88.390625,46,1,0,0,response1disk,,6,8.98828125,0.4609375,1,0,0,rectangle,8.98828125,0.4609375,1,0,0,8.98828125,0.4609375,1,0,0,0,157,157,108,1,,,,,,,,
,,,,,,,,,,,,,FF,,,,,,,,0.5334,,,,,,,,,,,,,,,,,,,,,,60fccfabb21344f8a04ecd91,61036ef72abca54ea525ecf6,2021-07-29_23h16.54.965,Simcolourproject_2stim_asymm_v5,2020.2.10,MacIntel,60,61025ae37ef11b136ea224fe,,,,,,,,,3469,105.0351563,45.07421875,1,0,0,response1disk,,6,5.109375,-8.40234375,1,0,0,rectangle,5.109375,-8.40234375,1,0,0,5.109375,-8.40234375,1,0,0,0,158,158,54,1,,,,,,,,
,,,,,,,,,,,,,FF,,,,,,,,1.7017,,,,,,,,,,,,,,,,,,,,,,60fccfabb21344f8a04ecd91,61036ef72abca54ea525ecf6,2021-07-29_23h16.54.965,Simcolourproject_2stim_asymm_v5,2020.2.10,MacIntel,60,61025ae37ef11b136ea224fe,,,,,,,,,1414,42.4609375,-88.203125,1,0,0,response3disk,,4,4.265625,-7.34765625,1,0,0,rectangle,4.265625,-7.34765625,1,0,0,4.265625,-7.34765625,1,0,0,0,159,159,32,1,,,,,,,,
,,,,,,,,,,,,,FF,,,,,,,,0.7843,,,,,,,,,,,,,,,,,,,,,,60fccfabb21344f8a04ecd91,61036ef72abca54ea525ecf6,2021-07-29_23h16.54.965,Simcolourproject_2stim_asymm_v5,2020.2.10,MacIntel,60,61025ae37ef11b136ea224fe,,,,,,,,,4186,-45.375,-74.2421875,1,0,0,response5disk,,3,-14.1796875,2.95703125,1,0,0,rectangle,-14.1796875,2.95703125,1,0,0,-14.1796875,2.95703125,1,0,0,1,0,160,131,1,,,,,,,,
,,,,,,,,,,,,,FF,,,,,,,,1.582,,,,,,,,,,,,,,,,,,,,,,60fccfabb21344f8a04ecd91,61036ef72abca54ea525ecf6,2021-07-29_23h16.54.965,Simcolourproject_2stim_asymm_v5,2020.2.10,MacIntel,60,61025ae37ef11b136ea224fe,,,,,,,,,868,93.109375,-34.8046875,1,0,0,response3disk,,5,15.1953125,-15.15625,1,0,0,rectangle,-78.3203125,35.58203125,1,0,0,-23.0234375,-6.78515625,1,0,0,1,1,161,60,1,,response7disk_3,TRUE,1,1,"[196,99,41,115,269,162,318,217,294,206,87,191,261,209,94,259,147,95,256,174]",1.4673,rectangle
,,,,,,,,,,,,,FF,,,,,,,,0.9509,,,,,,,,,,,,,,,,,,,,,,60fccfabb21344f8a04ecd91,61036ef72abca54ea525ecf6,2021-07-29_23h16.54.965,Simcolourproject_2stim_asymm_v5,2020.2.10,MacIntel,60,61025ae37ef11b136ea224fe,,,,,,,,,634,117.9296875,59.21484375,1,0,0,response1disk,,6,-13.625,-4.09375,1,0,0,rectangle,-13.625,-4.09375,1,0,0,-13.625,-4.09375,1,0,0,1,2,162,144,1,,,,,,,,
,,,,,,,,,,,,,FF,,,,,,,,0.8666,,,,,,,,,,,,,,,,,,,,,,60fccfabb21344f8a04ecd91,61036ef72abca54ea525ecf6,2021-07-29_23h16.54.965,Simcolourproject_2stim_asymm_v5,2020.2.10,MacIntel,60,61025ae37ef11b136ea224fe,,,,,,,,,3926,45.56640625,-108.765625,1,0,0,response3disk,,4,-0.375,4.7109375,1,0,0,rectangle,-0.375,4.7109375,1,0,0,-0.375,4.7109375,1,0,0,1,3,163,56,1,,,,,,,,
,,,,,,,,,,,,,FF,,,,,,,,1.5325,,,,,,,,,,,,,,,,,,,,,,60fccfabb21344f8a04ecd91,61036ef72abca54ea525ecf6,2021-07-29_23h16.54.965,Simcolourproject_2stim_asymm_v5,2020.2.10,MacIntel,60,61025ae37ef11b136ea224fe,,,,,,,,,750,82.29296875,-48.01171875,1,0,0,response3disk,,5,22.98828125,2.578125,1,0,0,rectangle,22.98828125,2.578125,1,0,0,22.98828125,2.578125,1,0,0,1,4,164,89,1,,,,,,,,
,,,,,,,,,,,,,FF,,,,,,,,1.0322,,,,,,,,,,,,,,,,,,,,,,60fccfabb21344f8a04ecd91,61036ef72abca54ea525ecf6,2021-07-29_23h16.54.965,Simcolourproject_2stim_asymm_v5,2020.2.10,MacIntel,60,61025ae37ef11b136ea224fe,,,,,,,,,277,83.58984375,32.53515625,1,0,0,response1disk,,6,21.10546875,9.0546875,1,0,0,rectangle,21.10546875,9.0546875,1,0,0,21.10546875,9.0546875,1,0,0,1,5,165,129,1,,,,,,,,
,,,,,,,,,,,,,FF,,,,,,,,2.6176,,,,,,,,,,,,,,,,,,,,,,60fccfabb21344f8a04ecd91,61036ef72abca54ea525ecf6,2021-07-29_23h16.54.965,Simcolourproject_2stim_asymm_v5,2020.2.10,MacIntel,60,61025ae37ef11b136ea224fe,,,,,,,,,202,28.359375,-78.78515625,1,0,0,response3disk,,4,2.125,-5.12890625,1,0,0,rectangle,2.125,-5.12890625,1,0,0,2.125,-5.12890625,1,0,0,1,6,166,59,1,,,,,,,,
,,,,,,,,,,,,,FF,,,,,,,,0.7822,,,,,,,,,,,,,,,,,,,,,,60fccfabb21344f8a04ecd91,61036ef72abca54ea525ecf6,2021-07-29_23h16.54.965,Simcolourproject_2stim_asymm_v5,2020.2.10,MacIntel,60,61025ae37ef11b136ea224fe,,,,,,,,,1839,70.98046875,-31.94140625,1,0,0,response3disk,,5,-10.625,-9.66796875,1,0,0,rectangle,-10.625,-9.66796875,1,0,0,-10.625,-9.66796875,1,0,0,1,7,167,71,1,,,,,,,,
,,,,,,,,,,,,,FF,,,,,,,,1.3015,,,,,,,,,,,,,,,,,,,,,,60fccfabb21344f8a04ecd91,61036ef72abca54ea525ecf6,2021-07-29_23h16.54.965,Simcolourproject_2stim_asymm_v5,2020.2.10,MacIntel,60,61025ae37ef11b136ea224fe,,,,,,,,,2979,28.53125,-78.3828125,1,0,0,response3disk,,4,5.8984375,-14.53515625,1,0,0,rectangle,5.8984375,-14.53515625,1,0,0,5.8984375,-14.53515625,1,0,0,1,8,168,58,1,,,,,,,,
,,,,,,,,,,,,,FF,,,,,,,,0.8169,,,,,,,,,,,,,,,,,,,,,,60fccfabb21344f8a04ecd91,61036ef72abca54ea525ecf6,2021-07-29_23h16.54.965,Simcolourproject_2stim_asymm_v5,2020.2.10,MacIntel,60,61025ae37ef11b136ea224fe,,,,,,,,,215,98.36328125,-46.09375,1,0,0,response3disk,,5,12.21484375,-8.16015625,1,0,0,rectangle,12.21484375,-8.16015625,1,0,0,12.21484375,-8.16015625,1,0,0,1,9,169,73,1,,,,,,,,
,,,,,,,,,,,,,FF,,,,,,,,0.7176,,,,,,,,,,,,,,,,,,,,,,60fccfabb21344f8a04ecd91,61036ef72abca54ea525ecf6,2021-07-29_23h16.54.965,Simcolourproject_2stim_asymm_v5,2020.2.10,MacIntel,60,61025ae37ef11b136ea224fe,,,,,,,,,567,39.6484375,-90.98046875,1,0,0,response3disk,,4,-2.64453125,10.8046875,1,0,0,rectangle,-2.64453125,10.8046875,1,0,0,-2.64453125,10.8046875,1,0,0,1,10,170,84,1,,,,,,,,
,,,,,,,,,,,,,FF,,,,,,,,0.7673,,,,,,,,,,,,,,,,,,,,,,60fccfabb21344f8a04ecd91,61036ef72abca54ea525ecf6,2021-07-29_23h16.54.965,Simcolourproject_2stim_asymm_v5,2020.2.10,MacIntel,60,61025ae37ef11b136ea224fe,,,,,,,,,1916,91.36328125,29.96484375,1,0,0,response1disk,,6,-5.30859375,-5.0625,1,0,0,rectangle,-5.30859375,-5.0625,1,0,0,-5.30859375,-5.0625,1,0,0,1,11,171,117,1,,,,,,,,
,,,,,,,,,,,,,FF,,,,,,,,2.1001,,,,,,,,,,,,,,,,,,,,,,60fccfabb21344f8a04ecd91,61036ef72abca54ea525ecf6,2021-07-29_23h16.54.965,Simcolourproject_2stim_asymm_v5,2020.2.10,MacIntel,60,61025ae37ef11b136ea224fe,,,,,,,,,2514,-99.859375,48.66015625,1,0,0,response7disk,,1,-7.10546875,-2.39453125,1,0,0,rectangle,-7.10546875,-2.39453125,1,0,0,-7.10546875,-2.39453125,1,0,0,1,12,172,132,1,,,,,,,,
,,,,,,,,,,,,,FF,,,,,,,,0.5499,,,,,,,,,,,,,,,,,,,,,,60fccfabb21344f8a04ecd91,61036ef72abca54ea525ecf6,2021-07-29_23h16.54.965,Simcolourproject_2stim_asymm_v5,2020.2.10,MacIntel,60,61025ae37ef11b136ea224fe,,,,,,,,,2201,-70.7265625,28.53515625,1,0,0,response7disk,,1,-1.24609375,-3.55078125,1,0,0,rectangle,-39.1640625,81.1328125,1,0,0,-15.8515625,1.50390625,1,0,0,1,13,173,17,1,,response7disk_3,TRUE,0,0,"[196,99,41,115,269,162,318,217,294,206,87,191,261,209,94,259,147,95,256,174]",1.9153,rectangle
,,,,,,,,,,,,,FF,,,,,,,,3.9493,,,,,,,,,,,,,,,,,,,,,,60fccfabb21344f8a04ecd91,61036ef72abca54ea525ecf6,2021-07-29_23h16.54.965,Simcolourproject_2stim_asymm_v5,2020.2.10,MacIntel,60,61025ae37ef11b136ea224fe,,,,,,,,,424,119.8632813,-43.87109375,1,0,0,response3disk,,5,-15.5625,7.12890625,1,0,0,rectangle,-15.5625,7.12890625,1,0,0,-15.5625,7.12890625,1,0,0,1,14,174,148,1,,,,,,,,
,,,,,,,,,,,,,FF,,,,,,,,1.5337,,,,,,,,,,,,,,,,,,,,,,60fccfabb21344f8a04ecd91,61036ef72abca54ea525ecf6,2021-07-29_23h16.54.965,Simcolourproject_2stim_asymm_v5,2020.2.10,MacIntel,60,61025ae37ef11b136ea224fe,,,,,,,,,2153,80.53515625,-60.30078125,1,0,0,response3disk,,5,0.26171875,2.984375,1,0,0,rectangle,0.26171875,2.984375,1,0,0,0.26171875,2.984375,1,0,0,1,15,175,42,1,,,,,,,,
,,,,,,,,,,,,,FF,,,,,,,,0.599,,,,,,,,,,,,,,,,,,,,,,60fccfabb21344f8a04ecd91,61036ef72abca54ea525ecf6,2021-07-29_23h16.54.965,Simcolourproject_2stim_asymm_v5,2020.2.10,MacIntel,60,61025ae37ef11b136ea224fe,,,,,,,,,578,102.7539063,44.62890625,1,0,0,response1disk,,6,2.0625,2.41015625,1,0,0,rectangle,2.0625,2.41015625,1,0,0,2.0625,2.41015625,1,0,0,1,16,176,124,1,,,,,,,,
,,,,,,,,,,,,,FF,,,,,,,,0.9669,,,,,,,,,,,,,,,,,,,,,,60fccfabb21344f8a04ecd91,61036ef72abca54ea525ecf6,2021-07-29_23h16.54.965,Simcolourproject_2stim_asymm_v5,2020.2.10,MacIntel,60,61025ae37ef11b136ea224fe,,,,,,,,,4124,85.23828125,-53.9609375,1,0,0,response3disk,,5,-2.171875,-3.7109375,1,0,0,rectangle,-2.171875,-3.7109375,1,0,0,-2.171875,-3.7109375,1,0,0,1,17,177,147,1,,,,,,,,
,,,,,,,,,,,,,FF,,,,,,,,0.8168,,,,,,,,,,,,,,,,,,,,,,60fccfabb21344f8a04ecd91,61036ef72abca54ea525ecf6,2021-07-29_23h16.54.965,Simcolourproject_2stim_asymm_v5,2020.2.10,MacIntel,60,61025ae37ef11b136ea224fe,,,,,,,,,2595,75.14453125,-104.8242188,1,0,0,response3disk,,4,19.703125,5.10546875,1,0,0,rectangle,19.703125,5.10546875,1,0,0,19.703125,5.10546875,1,0,0,1,18,178,90,1,,,,,,,,
,,,,,,,,,,,,,FF,,,,,,,,0.7835,,,,,,,,,,,,,,,,,,,,,,60fccfabb21344f8a04ecd91,61036ef72abca54ea525ecf6,2021-07-29_23h16.54.965,Simcolourproject_2stim_asymm_v5,2020.2.10,MacIntel,60,61025ae37ef11b136ea224fe,,,,,,,,,1997,-42.87890625,-87.16015625,1,0,0,response5disk,,3,9.3046875,12.140625,1,0,0,rectangle,9.3046875,12.140625,1,0,0,9.3046875,12.140625,1,0,0,1,19,179,26,1,,,,,,,,
,,,,,,,,,,,,,FF,,,,,,,,0.6827,,,,,,,,,,,,,,,,,,,,,,60fccfabb21344f8a04ecd91,61036ef72abca54ea525ecf6,2021-07-29_23h16.54.965,Simcolourproject_2stim_asymm_v5,2020.2.10,MacIntel,60,61025ae37ef11b136ea224fe,,,,,,,,,1932,28.55859375,-61.08984375,1,0,0,response3disk,,4,9.59765625,-0.7109375,1,0,0,rectangle,9.59765625,-0.7109375,1,0,0,9.59765625,-0.7109375,1,0,0,1,20,180,55,1,,,,,,,,
,,,,,,,,,,,,,FF,,,,,,,,0.734,,,,,,,,,,,,,,,,,,,,,,60fccfabb21344f8a04ecd91,61036ef72abca54ea525ecf6,2021-07-29_23h16.54.965,Simcolourproject_2stim_asymm_v5,2020.2.10,MacIntel,60,61025ae37ef11b136ea224fe,,,,,,,,,2105,93.12890625,44.23828125,1,0,0,response1disk,,6,17.65625,-8.19921875,1,0,0,rectangle,17.65625,-8.19921875,1,0,0,17.65625,-8.19921875,1,0,0,1,21,181,149,1,,,,,,,,
,,,,,,,,,,,,,FF,,,,,,,,0.8006,,,,,,,,,,,,,,,,,,,,,,60fccfabb21344f8a04ecd91,61036ef72abca54ea525ecf6,2021-07-29_23h16.54.965,Simcolourproject_2stim_asymm_v5,2020.2.10,MacIntel,60,61025ae37ef11b136ea224fe,,,,,,,,,1899,85.51171875,26.01953125,1,0,0,response1disk,,6,26.4375,7.34765625,1,0,0,rectangle,26.4375,7.34765625,1,0,0,26.4375,7.34765625,1,0,0,1,22,182,142,1,,,,,,,,
,,,,,,,,,,,,,FF,,,,,,,,1.0319,,,,,,,,,,,,,,,,,,,,,,60fccfabb21344f8a04ecd91,61036ef72abca54ea525ecf6,2021-07-29_23h16.54.965,Simcolourproject_2stim_asymm_v5,2020.2.10,MacIntel,60,61025ae37ef11b136ea224fe,,,,,,,,,3764,-66.6171875,-79.97265625,1,0,0,response5disk,,3,-15.171875,-6.015625,1,0,0,rectangle,-15.171875,-6.015625,1,0,0,-15.171875,-6.015625,1,0,0,1,23,183,95,1,,,,,,,,
,,,,,,,,,,,,,FF,,,,,,,,1.1343,,,,,,,,,,,,,,,,,,,,,,60fccfabb21344f8a04ecd91,61036ef72abca54ea525ecf6,2021-07-29_23h16.54.965,Simcolourproject_2stim_asymm_v5,2020.2.10,MacIntel,60,61025ae37ef11b136ea224fe,,,,,,,,,2707,-84.15234375,-31.6328125,1,0,0,response5disk,,2,3.05859375,-8.265625,1,0,0,rectangle,3.05859375,-8.265625,1,0,0,3.05859375,-8.265625,1,0,0,1,24,184,116,1,,,,,,,,
,,,,,,,,,,,,,FF,,,,,,,,1.652,,,,,,,,,,,,,,,,,,,,,,60fccfabb21344f8a04ecd91,61036ef72abca54ea525ecf6,2021-07-29_23h16.54.965,Simcolourproject_2stim_asymm_v5,2020.2.10,MacIntel,60,61025ae37ef11b136ea224fe,,,,,,,,,396,85.2109375,-42.1015625,1,0,0,response3disk,,5,1.59375,-7.25,1,0,0,rectangle,1.59375,-7.25,1,0,0,1.59375,-7.25,1,0,0,1,25,185,143,1,,,,,,,,
,,,,,,,,,,,,,FF,,,,,,,,1.6668,,,,,,,,,,,,,,,,,,,,,,60fccfabb21344f8a04ecd91,61036ef72abca54ea525ecf6,2021-07-29_23h16.54.965,Simcolourproject_2stim_asymm_v5,2020.2.10,MacIntel,60,61025ae37ef11b136ea224fe,,,,,,,,,1160,-52.3828125,-79.45703125,1,0,0,response5disk,,3,-9.3515625,-2.52734375,1,0,0,rectangle,-9.3515625,-2.52734375,1,0,0,-9.3515625,-2.52734375,1,0,0,1,26,186,101,1,,,,,,,,
,,,,,,,,,,,,,FF,,,,,,,,0.8855,,,,,,,,,,,,,,,,,,,,,,60fccfabb21344f8a04ecd91,61036ef72abca54ea525ecf6,2021-07-29_23h16.54.965,Simcolourproject_2stim_asymm_v5,2020.2.10,MacIntel,60,61025ae37ef11b136ea224fe,,,,,,,,,503,68.33984375,-94.41796875,1,0,0,response3disk,,4,18.0390625,-13.52734375,1,0,0,rectangle,18.0390625,-13.52734375,1,0,0,18.0390625,-13.52734375,1,0,0,1,27,187,57,1,,,,,,,,
,,,,,,,,,,,,,FF,,,,,,,,0.749,,,,,,,,,,,,,,,,,,,,,,60fccfabb21344f8a04ecd91,61036ef72abca54ea525ecf6,2021-07-29_23h16.54.965,Simcolourproject_2stim_asymm_v5,2020.2.10,MacIntel,60,61025ae37ef11b136ea224fe,,,,,,,,,2238,86.47265625,-30.42578125,1,0,0,response3disk,,5,0.18359375,4.87890625,1,0,0,rectangle,0.18359375,4.87890625,1,0,0,0.18359375,4.87890625,1,0,0,1,28,188,8,1,,,,,,,,
,,,,,,,,,,,,,FF,,,,,,,,0.9177,,,,,,,,,,,,,,,,,,,,,,60fccfabb21344f8a04ecd91,61036ef72abca54ea525ecf6,2021-07-29_23h16.54.965,Simcolourproject_2stim_asymm_v5,2020.2.10,MacIntel,60,61025ae37ef11b136ea224fe,,,,,,,,,3497,-78.4921875,-31.46484375,1,0,0,response5disk,,2,-1.70703125,2.2734375,1,0,0,rectangle,-1.70703125,2.2734375,1,0,0,-1.70703125,2.2734375,1,0,0,1,29,189,88,1,,,,,,,,
,,,,,,,,,,,,,FF,,,,,,,,1.5343,,,,,,,,,,,,,,,,,,,,,,60fccfabb21344f8a04ecd91,61036ef72abca54ea525ecf6,2021-07-29_23h16.54.965,Simcolourproject_2stim_asymm_v5,2020.2.10,MacIntel,60,61025ae37ef11b136ea224fe,,,,,,,,,1741,-38.2578125,-74.2578125,1,0,0,response5disk,,3,-13.640625,-4.42578125,1,0,0,rectangle,37.5703125,93.47265625,1,0,0,-3.30078125,-4.2578125,1,0,0,1,30,190,46,1,,response1disk_3,TRUE,7,7,"[196,99,41,115,269,162,318,217,294,206,87,191,261,209,94,259,147,95,256,174]",1.5321,rectangle
,,,,,,,,,,,,,FF,,,,,,,,1.4156,,,,,,,,,,,,,,,,,,,,,,60fccfabb21344f8a04ecd91,61036ef72abca54ea525ecf6,2021-07-29_23h16.54.965,Simcolourproject_2stim_asymm_v5,2020.2.10,MacIntel,60,61025ae37ef11b136ea224fe,,,,,,,,,657,52.36328125,-63.92578125,1,0,0,response3disk,,4,13.734375,-1.7265625,1,0,0,rectangle,13.734375,-1.7265625,1,0,0,13.734375,-1.7265625,1,0,0,1,31,191,38,1,,,,,,,,
,,,,,,,,,,,,,FF,,,,,,,,0.9991,,,,,,,,,,,,,,,,,,,,,,60fccfabb21344f8a04ecd91,61036ef72abca54ea525ecf6,2021-07-29_23h16.54.965,Simcolourproject_2stim_asymm_v5,2020.2.10,MacIntel,60,61025ae37ef11b136ea224fe,,,,,,,,,673,97.3125,-51.2890625,1,0,0,response3disk,,5,6.359375,-2.1640625,1,0,0,rectangle,6.359375,-2.1640625,1,0,0,6.359375,-2.1640625,1,0,0,1,32,192,10,1,,,,,,,,
,,,,,,,,,,,,,FF,,,,,,,,1.6847,,,,,,,,,,,,,,,,,,,,,,60fccfabb21344f8a04ecd91,61036ef72abca54ea525ecf6,2021-07-29_23h16.54.965,Simcolourproject_2stim_asymm_v5,2020.2.10,MacIntel,60,61025ae37ef11b136ea224fe,,,,,,,,,1975,45.37109375,-87.7578125,1,0,0,response3disk,,4,4.6015625,-5.53515625,1,0,0,rectangle,4.6015625,-5.53515625,1,0,0,4.6015625,-5.53515625,1,0,0,1,33,193,115,1,,,,,,,,
,,,,,,,,,,,,,FF,,,,,,,,5.3159,,,,,,,,,,,,,,,,,,,,,,60fccfabb21344f8a04ecd91,61036ef72abca54ea525ecf6,2021-07-29_23h16.54.965,Simcolourproject_2stim_asymm_v5,2020.2.10,MacIntel,60,61025ae37ef11b136ea224fe,,,,,,,,,2458,42.70703125,-67.6328125,1,0,0,response3disk,,4,14.6875,-7.40234375,1,0,0,rectangle,14.6875,-7.40234375,1,0,0,14.6875,-7.40234375,1,0,0,1,34,194,146,1,,,,,,,,
,,,,,,,,,,,,,FF,,,,,,,,3.5844,,,,,,,,,,,,,,,,,,,,,,60fccfabb21344f8a04ecd91,61036ef72abca54ea525ecf6,2021-07-29_23h16.54.965,Simcolourproject_2stim_asymm_v5,2020.2.10,MacIntel,60,61025ae37ef11b136ea224fe,,,,,,,,,888,-90.328125,44.9375,1,0,0,response7disk,,1,-12.421875,-5.15625,1,0,0,rectangle,-39.78515625,-77.8671875,1,0,0,2.80078125,12.88671875,1,0,0,1,35,195,156,1,,response5disk_3,TRUE,3,3,"[196,99,41,115,269,162,318,217,294,206,87,191,261,209,94,259,147,95,256,174]",1.9992,rectangle
,,,,,,,,,,,,,FF,,,,,,,,1.3989,,,,,,,,,,,,,,,,,,,,,,60fccfabb21344f8a04ecd91,61036ef72abca54ea525ecf6,2021-07-29_23h16.54.965,Simcolourproject_2stim_asymm_v5,2020.2.10,MacIntel,60,61025ae37ef11b136ea224fe,,,,,,,,,1866,85.828125,34.23046875,1,0,0,response1disk,,6,-2.58203125,2.98828125,1,0,0,rectangle,-2.58203125,2.98828125,1,0,0,-2.58203125,2.98828125,1,0,0,1,36,196,51,1,,,,,,,,
,,,,,,,,,,,,,FF,,,,,,,,1.4334,,,,,,,,,,,,,,,,,,,,,,60fccfabb21344f8a04ecd91,61036ef72abca54ea525ecf6,2021-07-29_23h16.54.965,Simcolourproject_2stim_asymm_v5,2020.2.10,MacIntel,60,61025ae37ef11b136ea224fe,,,,,,,,,3687,127.7421875,-52.69921875,1,0,0,response3disk,,5,5.5546875,-2.08984375,1,0,0,rectangle,5.5546875,-2.08984375,1,0,0,5.5546875,-2.08984375,1,0,0,1,37,197,13,1,,,,,,,,
,,,,,,,,,,,,,FF,,,,,,,,0.8666,,,,,,,,,,,,,,,,,,,,,,60fccfabb21344f8a04ecd91,61036ef72abca54ea525ecf6,2021-07-29_23h16.54.965,Simcolourproject_2stim_asymm_v5,2020.2.10,MacIntel,60,61025ae37ef11b136ea224fe,,,,,,,,,1933,52.03515625,-93.94140625,1,0,0,response3disk,,4,7.8203125,-6.46484375,1,0,0,rectangle,7.8203125,-6.46484375,1,0,0,7.8203125,-6.46484375,1,0,0,1,38,198,133,1,,,,,,,,
,,,,,,,,,,,,,FF,,,,,,,,0.7823,,,,,,,,,,,,,,,,,,,,,,60fccfabb21344f8a04ecd91,61036ef72abca54ea525ecf6,2021-07-29_23h16.54.965,Simcolourproject_2stim_asymm_v5,2020.2.10,MacIntel,60,61025ae37ef11b136ea224fe,,,,,,,,,568,92.24609375,-29.17578125,1,0,0,response3disk,,5,-21.26953125,0.890625,1,0,0,rectangle,-21.26953125,0.890625,1,0,0,-21.26953125,0.890625,1,0,0,1,39,199,118,1,,,,,,,,
,,,,,,,,,,,,,FF,,,,,,,,2.1347,,,,,,,,,,,,,,,,,,,,,,60fccfabb21344f8a04ecd91,61036ef72abca54ea525ecf6,2021-07-29_23h16.54.965,Simcolourproject_2stim_asymm_v5,2020.2.10,MacIntel,60,61025ae37ef11b136ea224fe,,,,,,,,,3405,92.11328125,50.91015625,1,0,0,response1disk,,6,18.30078125,3.859375,1,0,0,rectangle,18.30078125,3.859375,1,0,0,18.30078125,3.859375,1,0,0,1,40,200,41,1,,,,,,,,
,,,,,,,,,,,,,FF,,,,,,,,1.2997,,,,,,,,,,,,,,,,,,,,,,60fccfabb21344f8a04ecd91,61036ef72abca54ea525ecf6,2021-07-29_23h16.54.965,Simcolourproject_2stim_asymm_v5,2020.2.10,MacIntel,60,61025ae37ef11b136ea224fe,,,,,,,,,2874,-75.8125,-56.171875,1,0,0,response5disk,,2,-9.38671875,-3.0234375,1,0,0,rectangle,-9.38671875,-3.0234375,1,0,0,-9.38671875,-3.0234375,1,0,0,1,41,201,39,1,,,,,,,,
,,,,,,,,,,,,,FF,,,,,,,,1.0174,,,,,,,,,,,,,,,,,,,,,,60fccfabb21344f8a04ecd91,61036ef72abca54ea525ecf6,2021-07-29_23h16.54.965,Simcolourproject_2stim_asymm_v5,2020.2.10,MacIntel,60,61025ae37ef11b136ea224fe,,,,,,,,,2716,-45.73828125,-92.92578125,1,0,0,response5disk,,3,-17.7109375,-5.4765625,1,0,0,rectangle,-17.7109375,-5.4765625,1,0,0,-17.7109375,-5.4765625,1,0,0,1,42,202,139,1,,,,,,,,
,,,,,,,,,,,,,FF,,,,,,,,0.7493,,,,,,,,,,,,,,,,,,,,,,60fccfabb21344f8a04ecd91,61036ef72abca54ea525ecf6,2021-07-29_23h16.54.965,Simcolourproject_2stim_asymm_v5,2020.2.10,MacIntel,60,61025ae37ef11b136ea224fe,,,,,,,,,853,97.58984375,-65.26953125,1,0,0,response3disk,,5,18.14453125,-1.7265625,1,0,0,rectangle,18.14453125,-1.7265625,1,0,0,18.14453125,-1.7265625,1,0,0,1,43,203,158,1,,,,,,,,
,,,,,,,,,,,,,FF,,,,,,,,0.8501,,,,,,,,,,,,,,,,,,,,,,60fccfabb21344f8a04ecd91,61036ef72abca54ea525ecf6,2021-07-29_23h16.54.965,Simcolourproject_2stim_asymm_v5,2020.2.10,MacIntel,60,61025ae37ef11b136ea224fe,,,,,,,,,4077,38.71484375,-74.15625,1,0,0,response3disk,,4,12.796875,-8.125,1,0,0,rectangle,12.796875,-8.125,1,0,0,12.796875,-8.125,1,0,0,1,44,204,96,1,,,,,,,,
,,,,,,,,,,,,,FF,,,,,,,,0.7997,,,,,,,,,,,,,,,,,,,,,,60fccfabb21344f8a04ecd91,61036ef72abca54ea525ecf6,2021-07-29_23h16.54.965,Simcolourproject_2stim_asymm_v5,2020.2.10,MacIntel,60,61025ae37ef11b136ea224fe,,,,,,,,,4250,-45.9296875,-77.046875,1,0,0,response5disk,,3,-20.875,-15.04296875,0,0,1,rectangle,-39.3828125,94.26953125,1,0,1,8.921875,-3.00390625,1,0,1,1,45,205,136,1,,response7disk_3,TRUE,0,0,"[196,99,41,115,269,162,318,217,294,206,87,191,261,209,94,259,147,95,256,174]",2.983,rectangle
,,,,,,,,,,,,,FF,,,,,,,,1.4003,,,,,,,,,,,,,,,,,,,,,,60fccfabb21344f8a04ecd91,61036ef72abca54ea525ecf6,2021-07-29_23h16.54.965,Simcolourproject_2stim_asymm_v5,2020.2.10,MacIntel,60,61025ae37ef11b136ea224fe,,,,,,,,,1456,-84.96875,51.41015625,1,0,1,response7disk,,1,-19,0.54296875,1,0,1,rectangle,-19,0.54296875,1,0,1,-19,0.54296875,1,0,1,1,46,206,68,1,,,,,,,,
,,,,,,,,,,,,,FF,,,,,,,,0.8321,,,,,,,,,,,,,,,,,,,,,,60fccfabb21344f8a04ecd91,61036ef72abca54ea525ecf6,2021-07-29_23h16.54.965,Simcolourproject_2stim_asymm_v5,2020.2.10,MacIntel,60,61025ae37ef11b136ea224fe,,,,,,,,,3797,63.4765625,-41.13671875,1,0,1,response3disk,,5,12.390625,2.96484375,1,0,1,rectangle,12.390625,2.96484375,1,0,1,12.390625,2.96484375,1,0,1,1,47,207,20,1,,,,,,,,
,,,,,,,,,,,,,FF,,,,,,,,0.7344,,,,,,,,,,,,,,,,,,,,,,60fccfabb21344f8a04ecd91,61036ef72abca54ea525ecf6,2021-07-29_23h16.54.965,Simcolourproject_2stim_asymm_v5,2020.2.10,MacIntel,60,61025ae37ef11b136ea224fe,,,,,,,,,526,-55.34375,-23.80078125,1,0,1,response5disk,,2,-18.9375,0.94140625,1,0,1,rectangle,-33.4296875,92.734375,1,0,1,15.53125,-4.13671875,1,0,1,1,48,208,77,1,,response7disk_3,TRUE,0,0,"[196,99,41,115,269,162,318,217,294,206,87,191,261,209,94,259,147,95,256,174]",1.4159,rectangle
,,,,,,,,,,,,,FF,,,,,,,,1.4824,,,,,,,,,,,,,,,,,,,,,,60fccfabb21344f8a04ecd91,61036ef72abca54ea525ecf6,2021-07-29_23h16.54.965,Simcolourproject_2stim_asymm_v5,2020.2.10,MacIntel,60,61025ae37ef11b136ea224fe,,,,,,,,,740,-49.63671875,-80.20703125,1,0,1,response5disk,,3,-13.09375,-11.8203125,1,0,1,rectangle,-13.09375,-11.8203125,1,0,1,-13.09375,-11.8203125,1,0,1,1,49,209,15,1,,,,,,,,
,,,,,,,,,,,,,FF,,,,,,,,0.7003,,,,,,,,,,,,,,,,,,,,,,60fccfabb21344f8a04ecd91,61036ef72abca54ea525ecf6,2021-07-29_23h16.54.965,Simcolourproject_2stim_asymm_v5,2020.2.10,MacIntel,60,61025ae37ef11b136ea224fe,,,,,,,,,2455,31.01953125,-89.27734375,1,0,1,response3disk,,4,11.234375,4.0703125,1,0,1,rectangle,11.234375,4.0703125,1,0,1,11.234375,4.0703125,1,0,1,1,50,210,36,1,,,,,,,,
,,,,,,,,,,,,,FF,,,,,,,,1.2509,,,,,,,,,,,,,,,,,,,,,,60fccfabb21344f8a04ecd91,61036ef72abca54ea525ecf6,2021-07-29_23h16.54.965,Simcolourproject_2stim_asymm_v5,2020.2.10,MacIntel,60,61025ae37ef11b136ea224fe,,,,,,,,,1322,20.828125,-94.11328125,1,0,1,response3disk,,4,-4.125,12,1,0,1,rectangle,-4.125,12,1,0,1,-4.125,12,1,0,1,1,51,211,66,1,,,,,,,,
,,,,,,,,,,,,,FF,,,,,,,,0.6674,,,,,,,,,,,,,,,,,,,,,,60fccfabb21344f8a04ecd91,61036ef72abca54ea525ecf6,2021-07-29_23h16.54.965,Simcolourproject_2stim_asymm_v5,2020.2.10,MacIntel,60,61025ae37ef11b136ea224fe,,,,,,,,,1124,82.3203125,-57.85546875,1,0,1,response3disk,,5,35.73828125,-6.265625,1,0,1,rectangle,35.73828125,-6.265625,1,0,1,35.73828125,-6.265625,1,0,1,1,52,212,155,1,,,,,,,,
,,,,,,,,,,,,,FF,,,,,,,,0.582,,,,,,,,,,,,,,,,,,,,,,60fccfabb21344f8a04ecd91,61036ef72abca54ea525ecf6,2021-07-29_23h16.54.965,Simcolourproject_2stim_asymm_v5,2020.2.10,MacIntel,60,61025ae37ef11b136ea224fe,,,,,,,,,2754,27.28515625,-76.34375,1,0,1,response3disk,,4,11.890625,-7.80078125,1,0,1,rectangle,11.890625,-7.80078125,1,0,1,11.890625,-7.80078125,1,0,1,1,53,213,83,1,,,,,,,,
,,,,,,,,,,,,,FF,,,,,,,,1.6484,,,,,,,,,,,,,,,,,,,,,,60fccfabb21344f8a04ecd91,61036ef72abca54ea525ecf6,2021-07-29_23h16.54.965,Simcolourproject_2stim_asymm_v5,2020.2.10,MacIntel,60,61025ae37ef11b136ea224fe,,,,,,,,,3790,99.11328125,47.2890625,1,0,1,response1disk,,6,24.21484375,3.90234375,1,0,1,rectangle,24.21484375,3.90234375,1,0,1,24.21484375,3.90234375,1,0,1,1,54,214,69,1,,,,,,,,
,,,,,,,,,,,,,FF,,,,,,,,1.1504,,,,,,,,,,,,,,,,,,,,,,60fccfabb21344f8a04ecd91,61036ef72abca54ea525ecf6,2021-07-29_23h16.54.965,Simcolourproject_2stim_asymm_v5,2020.2.10,MacIntel,60,61025ae37ef11b136ea224fe,,,,,,,,,2161,-83.203125,-41.4140625,1,0,1,response5disk,,2,-12.4921875,-5.5625,1,0,1,rectangle,-12.4921875,-5.5625,1,0,1,-12.4921875,-5.5625,1,0,1,1,55,215,126,1,,,,,,,,
,,,,,,,,,,,,,FF,,,,,,,,1.2498,,,,,,,,,,,,,,,,,,,,,,60fccfabb21344f8a04ecd91,61036ef72abca54ea525ecf6,2021-07-29_23h16.54.965,Simcolourproject_2stim_asymm_v5,2020.2.10,MacIntel,60,61025ae37ef11b136ea224fe,,,,,,,,,650,-31.9375,-125.9570313,1,0,1,response5disk,,3,-16.7421875,10.671875,1,0,1,rectangle,-77.6640625,46.10546875,1,0,1,-8.33203125,10.4296875,1,0,1,1,56,216,12,1,,response7disk_3,TRUE,1,1,"[196,99,41,115,269,162,318,217,294,206,87,191,261,209,94,259,147,95,256,174]",1.8832,rectangle
,,,,,,,,,,,,,FF,,,,,,,,2.7492,,,,,,,,,,,,,,,,,,,,,,60fccfabb21344f8a04ecd91,61036ef72abca54ea525ecf6,2021-07-29_23h16.54.965,Simcolourproject_2stim_asymm_v5,2020.2.10,MacIntel,60,61025ae37ef11b136ea224fe,,,,,,,,,4159,-23.6328125,-89.26953125,1,0,1,response5disk,,3,-10.0546875,4.046875,1,0,1,rectangle,-10.0546875,4.046875,1,0,1,-10.0546875,4.046875,1,0,1,1,57,217,91,1,,,,,,,,
,,,,,,,,,,,,,FF,,,,,,,,0.9162,,,,,,,,,,,,,,,,,,,,,,60fccfabb21344f8a04ecd91,61036ef72abca54ea525ecf6,2021-07-29_23h16.54.965,Simcolourproject_2stim_asymm_v5,2020.2.10,MacIntel,60,61025ae37ef11b136ea224fe,,,,,,,,,3306,49.0078125,-88.8359375,1,0,1,response3disk,,4,15.8828125,-9.92578125,1,0,1,rectangle,15.8828125,-9.92578125,1,0,1,15.8828125,-9.92578125,1,0,1,1,58,218,5,1,,,,,,,,
,,,,,,,,,,,,,FF,,,,,,,,1.1995,,,,,,,,,,,,,,,,,,,,,,60fccfabb21344f8a04ecd91,61036ef72abca54ea525ecf6,2021-07-29_23h16.54.965,Simcolourproject_2stim_asymm_v5,2020.2.10,MacIntel,60,61025ae37ef11b136ea224fe,,,,,,,,,3535,-46.9609375,-89.24609375,1,0,1,response5disk,,3,-4.73828125,12.515625,1,0,1,rectangle,-4.73828125,12.515625,1,0,1,-4.73828125,12.515625,1,0,1,1,59,219,28,1,,,,,,,,
,,,,,,,,,,,,,FF,,,,,,,,0.6163,,,,,,,,,,,,,,,,,,,,,,60fccfabb21344f8a04ecd91,61036ef72abca54ea525ecf6,2021-07-29_23h16.54.965,Simcolourproject_2stim_asymm_v5,2020.2.10,MacIntel,60,61025ae37ef11b136ea224fe,,,,,,,,,1995,69.0625,-46.39453125,1,0,1,response3disk,,5,24.04296875,-10.12109375,1,0,1,rectangle,24.04296875,-10.12109375,1,0,1,24.04296875,-10.12109375,1,0,1,1,60,220,25,1,,,,,,,,
,,,,,,,,,,,,,FF,,,,,,,,0.5989,,,,,,,,,,,,,,,,,,,,,,60fccfabb21344f8a04ecd91,61036ef72abca54ea525ecf6,2021-07-29_23h16.54.965,Simcolourproject_2stim_asymm_v5,2020.2.10,MacIntel,60,61025ae37ef11b136ea224fe,,,,,,,,,788,33.05078125,-109.96875,1,0,1,response3disk,,4,9.8203125,-4.83984375,1,0,1,rectangle,9.8203125,-4.83984375,1,0,1,9.8203125,-4.83984375,1,0,1,1,61,221,67,1,,,,,,,,
,,,,,,,,,,,,,FF,,,,,,,,0.9319,,,,,,,,,,,,,,,,,,,,,,60fccfabb21344f8a04ecd91,61036ef72abca54ea525ecf6,2021-07-29_23h16.54.965,Simcolourproject_2stim_asymm_v5,2020.2.10,MacIntel,60,61025ae37ef11b136ea224fe,,,,,,,,,338,30.53515625,-82.1953125,1,0,1,response3disk,,4,-2.9375,-5.58203125,1,0,1,rectangle,-2.9375,-5.58203125,1,0,1,-2.9375,-5.58203125,1,0,1,1,62,222,52,1,,,,,,,,
,,,,,,,,,,,,,FF,,,,,,,,0.7997,,,,,,,,,,,,,,,,,,,,,,60fccfabb21344f8a04ecd91,61036ef72abca54ea525ecf6,2021-07-29_23h16.54.965,Simcolourproject_2stim_asymm_v5,2020.2.10,MacIntel,60,61025ae37ef11b136ea224fe,,,,,,,,,971,-109.3203125,-34,1,0,1,response5disk,,2,7.8203125,11.12109375,1,0,1,rectangle,7.8203125,11.12109375,1,0,1,7.8203125,11.12109375,1,0,1,1,63,223,53,1,,,,,,,,
,,,,,,,,,,,,,FF,,,,,,,,0.901,,,,,,,,,,,,,,,,,,,,,,60fccfabb21344f8a04ecd91,61036ef72abca54ea525ecf6,2021-07-29_23h16.54.965,Simcolourproject_2stim_asymm_v5,2020.2.10,MacIntel,60,61025ae37ef11b136ea224fe,,,,,,,,,175,-83.3359375,41.00390625,1,0,1,response7disk,,1,-18.41796875,-0.2109375,1,0,1,rectangle,-18.41796875,-0.2109375,1,0,1,-18.41796875,-0.2109375,1,0,1,1,64,224,112,1,,,,,,,,
,,,,,,,,,,,,,FF,,,,,,,,0.6988,,,,,,,,,,,,,,,,,,,,,,60fccfabb21344f8a04ecd91,61036ef72abca54ea525ecf6,2021-07-29_23h16.54.965,Simcolourproject_2stim_asymm_v5,2020.2.10,MacIntel,60,61025ae37ef11b136ea224fe,,,,,,,,,1522,-76.68359375,33.14453125,1,0,1,response7disk,,1,-16.26171875,3.9453125,1,0,1,rectangle,-16.26171875,3.9453125,1,0,1,-16.26171875,3.9453125,1,0,1,1,65,225,108,1,,,,,,,,
,,,,,,,,,,,,,FF,,,,,,,,0.7015,,,,,,,,,,,,,,,,,,,,,,60fccfabb21344f8a04ecd91,61036ef72abca54ea525ecf6,2021-07-29_23h16.54.965,Simcolourproject_2stim_asymm_v5,2020.2.10,MacIntel,60,61025ae37ef11b136ea224fe,,,,,,,,,993,-34.63671875,-77.58203125,1,0,1,response5disk,,3,-3.59375,3.828125,1,0,1,rectangle,-3.59375,3.828125,1,0,1,-3.59375,3.828125,1,0,1,1,66,226,123,1,,,,,,,,
,,,,,,,,,,,,,FF,,,,,,,,0.6,,,,,,,,,,,,,,,,,,,,,,60fccfabb21344f8a04ecd91,61036ef72abca54ea525ecf6,2021-07-29_23h16.54.965,Simcolourproject_2stim_asymm_v5,2020.2.10,MacIntel,60,61025ae37ef11b136ea224fe,,,,,,,,,4017,55.1953125,-71.25,1,0,1,response3disk,,4,19.73046875,-3.87890625,1,0,1,rectangle,19.73046875,-3.87890625,1,0,1,19.73046875,-3.87890625,1,0,1,1,67,227,135,1,,,,,,,,
,,,,,,,,,,,,,FF,,,,,,,,1.2158,,,,,,,,,,,,,,,,,,,,,,60fccfabb21344f8a04ecd91,61036ef72abca54ea525ecf6,2021-07-29_23h16.54.965,Simcolourproject_2stim_asymm_v5,2020.2.10,MacIntel,60,61025ae37ef11b136ea224fe,,,,,,,,,2206,73.5,-54.76171875,1,0,1,response3disk,,5,-0.9609375,-2.19921875,1,0,1,rectangle,-0.9609375,-2.19921875,1,0,1,-0.9609375,-2.19921875,1,0,1,1,68,228,97,1,,,,,,,,
,,,,,,,,,,,,,FF,,,,,,,,0.6835,,,,,,,,,,,,,,,,,,,,,,60fccfabb21344f8a04ecd91,61036ef72abca54ea525ecf6,2021-07-29_23h16.54.965,Simcolourproject_2stim_asymm_v5,2020.2.10,MacIntel,60,61025ae37ef11b136ea224fe,,,,,,,,,2325,30.54296875,-66.07421875,1,0,1,response3disk,,4,4.8984375,-5.62890625,1,0,1,rectangle,4.8984375,-5.62890625,1,0,1,4.8984375,-5.62890625,1,0,1,1,69,229,153,1,,,,,,,,
,,,,,,,,,,,,,FF,,,,,,,,1.1021,,,,,,,,,,,,,,,,,,,,,,60fccfabb21344f8a04ecd91,61036ef72abca54ea525ecf6,2021-07-29_23h16.54.965,Simcolourproject_2stim_asymm_v5,2020.2.10,MacIntel,60,61025ae37ef11b136ea224fe,,,,,,,,,4237,-97.01953125,47.671875,1,0,1,response7disk,,1,-24.546875,-0.2109375,1,0,1,rectangle,-24.546875,-0.2109375,1,0,1,-24.546875,-0.2109375,1,0,1,1,70,230,34,1,,,,,,,,
,,,,,,,,,,,,,FF,,,,,,,,0.65,,,,,,,,,,,,,,,,,,,,,,60fccfabb21344f8a04ecd91,61036ef72abca54ea525ecf6,2021-07-29_23h16.54.965,Simcolourproject_2stim_asymm_v5,2020.2.10,MacIntel,60,61025ae37ef11b136ea224fe,,,,,,,,,1491,80.41015625,-43.109375,1,0,1,response3disk,,5,8.96875,6.09765625,1,0,1,rectangle,8.96875,6.09765625,1,0,1,8.96875,6.09765625,1,0,1,1,71,231,44,1,,,,,,,,
,,,,,,,,,,,,,FF,,,,,,,,1.1321,,,,,,,,,,,,,,,,,,,,,,60fccfabb21344f8a04ecd91,61036ef72abca54ea525ecf6,2021-07-29_23h16.54.965,Simcolourproject_2stim_asymm_v5,2020.2.10,MacIntel,60,61025ae37ef11b136ea224fe,,,,,,,,,1293,-53.921875,35.03515625,1,0,1,response7disk,,1,-7.03515625,14.95703125,1,0,1,rectangle,-7.03515625,14.95703125,1,0,1,-7.03515625,14.95703125,1,0,1,1,72,232,99,1,,,,,,,,
,,,,,,,,,,,,,FF,,,,,,,,0.7996,,,,,,,,,,,,,,,,,,,,,,60fccfabb21344f8a04ecd91,61036ef72abca54ea525ecf6,2021-07-29_23h16.54.965,Simcolourproject_2stim_asymm_v5,2020.2.10,MacIntel,60,61025ae37ef11b136ea224fe,,,,,,,,,3165,27.625,-71.5,1,0,1,response3disk,,4,-6.66796875,-7.25,1,0,1,rectangle,-6.66796875,-7.25,1,0,1,-6.66796875,-7.25,1,0,1,1,73,233,24,1,,,,,,,,
,,,,,,,,,,,,,FF,,,,,,,,1.0168,,,,,,,,,,,,,,,,,,,,,,60fccfabb21344f8a04ecd91,61036ef72abca54ea525ecf6,2021-07-29_23h16.54.965,Simcolourproject_2stim_asymm_v5,2020.2.10,MacIntel,60,61025ae37ef11b136ea224fe,,,,,,,,,3145,52.97265625,-71.69140625,1,0,1,response3disk,,4,3.04296875,-0.09765625,1,0,1,rectangle,3.04296875,-0.09765625,1,0,1,3.04296875,-0.09765625,1,0,1,1,74,234,134,1,,,,,,,,
,,,,,,,,,,,,,FF,,,,,,,,0.9347,,,,,,,,,,,,,,,,,,,,,,60fccfabb21344f8a04ecd91,61036ef72abca54ea525ecf6,2021-07-29_23h16.54.965,Simcolourproject_2stim_asymm_v5,2020.2.10,MacIntel,60,61025ae37ef11b136ea224fe,,,,,,,,,707,97.6875,30.80078125,1,0,1,response1disk,,6,11.1328125,-0.375,1,0,1,rectangle,11.1328125,-0.375,1,0,1,11.1328125,-0.375,1,0,1,1,75,235,63,1,,,,,,,,
,,,,,,,,,,,,,FF,,,,,,,,1.1335,,,,,,,,,,,,,,,,,,,,,,60fccfabb21344f8a04ecd91,61036ef72abca54ea525ecf6,2021-07-29_23h16.54.965,Simcolourproject_2stim_asymm_v5,2020.2.10,MacIntel,60,61025ae37ef11b136ea224fe,,,,,,,,,3277,90.8515625,-57.35546875,1,0,1,response3disk,,5,24.453125,-14.2421875,1,0,1,rectangle,24.453125,-14.2421875,1,0,1,24.453125,-14.2421875,1,0,1,1,76,236,65,1,,,,,,,,
,,,,,,,,,,,,,FF,,,,,,,,0.6486,,,,,,,,,,,,,,,,,,,,,,60fccfabb21344f8a04ecd91,61036ef72abca54ea525ecf6,2021-07-29_23h16.54.965,Simcolourproject_2stim_asymm_v5,2020.2.10,MacIntel,60,61025ae37ef11b136ea224fe,,,,,,,,,758,33.125,-67.14453125,1,0,1,response3disk,,4,9.25,0.9375,1,0,1,rectangle,9.25,0.9375,1,0,1,9.25,0.9375,1,0,1,1,77,237,16,1,,,,,,,,
,,,,,,,,,,,,,FF,,,,,,,,0.8164,,,,,,,,,,,,,,,,,,,,,,60fccfabb21344f8a04ecd91,61036ef72abca54ea525ecf6,2021-07-29_23h16.54.965,Simcolourproject_2stim_asymm_v5,2020.2.10,MacIntel,60,61025ae37ef11b136ea224fe,,,,,,,,,1952,-59.46875,-114.9921875,1,0,1,response5disk,,3,1.83203125,5.56640625,1,0,1,rectangle,1.83203125,5.56640625,1,0,1,1.83203125,5.56640625,1,0,1,1,78,238,114,1,,,,,,,,
,,,,,,,,,,,,,FF,,,,,,,,0.7495,,,,,,,,,,,,,,,,,,,,,,60fccfabb21344f8a04ecd91,61036ef72abca54ea525ecf6,2021-07-29_23h16.54.965,Simcolourproject_2stim_asymm_v5,2020.2.10,MacIntel,60,61025ae37ef11b136ea224fe,,,,,,,,,2276,36.265625,-78.41015625,1,0,1,response3disk,,4,6.66015625,-0.72265625,1,0,1,rectangle,6.66015625,-0.72265625,1,0,1,6.66015625,-0.72265625,1,0,1,1,79,239,154,1,,,,,,,,
,,,,,,,,,,,,,FF,,,,,,,,1.2,,,,,,,,,,,,,,,,,,,,,,60fccfabb21344f8a04ecd91,61036ef72abca54ea525ecf6,2021-07-29_23h16.54.965,Simcolourproject_2stim_asymm_v5,2020.2.10,MacIntel,60,61025ae37ef11b136ea224fe,,,,,,,,,1366,57.5859375,-90.6328125,1,0,1,response3disk,,4,-17.36328125,16.22265625,1,0,1,rectangle,-17.36328125,16.22265625,1,0,1,-17.36328125,16.22265625,1,0,1,1,80,240,33,1,,,,,,,,
,,,,,,,,,,,,,FF,,,,,,,,0.6826,,,,,,,,,,,,,,,,,,,,,,60fccfabb21344f8a04ecd91,61036ef72abca54ea525ecf6,2021-07-29_23h16.54.965,Simcolourproject_2stim_asymm_v5,2020.2.10,MacIntel,60,61025ae37ef11b136ea224fe,,,,,,,,,1257,36.83984375,-75.5234375,1,0,1,response3disk,,4,17.75,-1.36328125,1,0,1,rectangle,17.75,-1.36328125,1,0,1,17.75,-1.36328125,1,0,1,1,81,241,7,1,,,,,,,,
,,,,,,,,,,,,,FF,,,,,,,,0.8995,,,,,,,,,,,,,,,,,,,,,,60fccfabb21344f8a04ecd91,61036ef72abca54ea525ecf6,2021-07-29_23h16.54.965,Simcolourproject_2stim_asymm_v5,2020.2.10,MacIntel,60,61025ae37ef11b136ea224fe,,,,,,,,,3742,-66.3671875,45.65234375,1,0,1,response7disk,,1,-13.51171875,15.5859375,1,0,1,rectangle,-13.51171875,15.5859375,1,0,1,-13.51171875,15.5859375,1,0,1,1,82,242,14,1,,,,,,,,
,,,,,,,,,,,,,FF,,,,,,,,1.2837,,,,,,,,,,,,,,,,,,,,,,60fccfabb21344f8a04ecd91,61036ef72abca54ea525ecf6,2021-07-29_23h16.54.965,Simcolourproject_2stim_asymm_v5,2020.2.10,MacIntel,60,61025ae37ef11b136ea224fe,,,,,,,,,1607,-81.80859375,-47.96875,1,0,1,response5disk,,2,-12.1328125,0.2734375,1,0,1,rectangle,-12.1328125,0.2734375,1,0,1,-12.1328125,0.2734375,1,0,1,1,83,243,86,1,,,,,,,,
,,,,,,,,,,,,,FF,,,,,,,,1.05,,,,,,,,,,,,,,,,,,,,,,60fccfabb21344f8a04ecd91,61036ef72abca54ea525ecf6,2021-07-29_23h16.54.965,Simcolourproject_2stim_asymm_v5,2020.2.10,MacIntel,60,61025ae37ef11b136ea224fe,,,,,,,,,2673,-48.4296875,-81.32421875,1,0,1,response5disk,,3,-22.8125,-12.265625,1,0,1,rectangle,-22.8125,-12.265625,1,0,1,-22.8125,-12.265625,1,0,1,1,84,244,35,1,,,,,,,,
,,,,,,,,,,,,,FF,,,,,,,,1.6009,,,,,,,,,,,,,,,,,,,,,,60fccfabb21344f8a04ecd91,61036ef72abca54ea525ecf6,2021-07-29_23h16.54.965,Simcolourproject_2stim_asymm_v5,2020.2.10,MacIntel,60,61025ae37ef11b136ea224fe,,,,,,,,,2593,-88.8828125,-39.84765625,1,0,1,response5disk,,2,-28.0703125,-10.41796875,1,0,1,rectangle,-28.0703125,-10.41796875,1,0,1,-28.0703125,-10.41796875,1,0,1,1,85,245,30,1,,,,,,,,
,,,,,,,,,,,,,FF,,,,,,,,0.8821,,,,,,,,,,,,,,,,,,,,,,60fccfabb21344f8a04ecd91,61036ef72abca54ea525ecf6,2021-07-29_23h16.54.965,Simcolourproject_2stim_asymm_v5,2020.2.10,MacIntel,60,61025ae37ef11b136ea224fe,,,,,,,,,2408,62.9609375,-83.2421875,1,0,1,response3disk,,4,16.3359375,-1.2578125,1,0,1,rectangle,16.3359375,-1.2578125,1,0,1,16.3359375,-1.2578125,1,0,1,1,86,246,40,1,,,,,,,,
,,,,,,,,,,,,,FF,,,,,,,,1.0989,,,,,,,,,,,,,,,,,,,,,,60fccfabb21344f8a04ecd91,61036ef72abca54ea525ecf6,2021-07-29_23h16.54.965,Simcolourproject_2stim_asymm_v5,2020.2.10,MacIntel,60,61025ae37ef11b136ea224fe,,,,,,,,,2763,34.35546875,-65.9921875,1,0,1,response3disk,,4,-3.46484375,8.9921875,1,0,1,rectangle,-3.46484375,8.9921875,1,0,1,-3.46484375,8.9921875,1,0,1,1,87,247,76,1,,,,,,,,
,,,,,,,,,,,,,FF,,,,,,,,0.9165,,,,,,,,,,,,,,,,,,,,,,60fccfabb21344f8a04ecd91,61036ef72abca54ea525ecf6,2021-07-29_23h16.54.965,Simcolourproject_2stim_asymm_v5,2020.2.10,MacIntel,60,61025ae37ef11b136ea224fe,,,,,,,,,99,-74.76171875,-25.76171875,1,0,1,response5disk,,2,-3.9375,3.96875,1,0,1,rectangle,-3.9375,3.96875,1,0,1,-3.9375,3.96875,1,0,1,1,88,248,87,1,,,,,,,,
