key_resp.keys,key_resp.rt,key_resp_14.keys,key_resp_14.rt,key_resp_15.keys,key_resp_15.rt,key_resp_17.keys,key_resp_17.rt,key_resp_9.keys,key_resp_9.rt,key_resp_10.keys,key_resp_10.rt,practice_comparison,Ecc,mouse_5.x,mouse_5.y,mouse_5.leftButton,mouse_5.midButton,mouse_5.rightButton,mouse_5.clicked_name,pracsimilarity,response_time,mouse_10.x,mouse_10.y,mouse_10.leftButton,mouse_10.midButton,mouse_10.rightButton,mouse_10.clicked_name,mouse_7.x,mouse_7.y,mouse_7.leftButton,mouse_7.midButton,mouse_7.rightButton,mouse_6.x,mouse_6.y,mouse_6.leftButton,mouse_6.midButton,mouse_6.rightButton,duringprac.thisRepN,duringprac.thisTrialN,duringprac.thisN,duringprac.thisIndex,duringprac.ran,participant,session,date,expName,psychopyVersion,OS,frameRate,study_id,mouse_7.clicked_name,catchpracsimilarity,catch_response_time,catchnumberprac,catchtrialorderprac,mouse_6.clicked_name,key_resp_22.keys,key_resp_22.rt,realcomparison,mouse.x,mouse.y,mouse.leftButton,mouse.midButton,mouse.rightButton,mouse.clicked_name,Colour2,similarity,mouse_2.x,mouse_2.y,mouse_2.leftButton,mouse_2.midButton,mouse_2.rightButton,mouse_2.clicked_name,mouse_3.x,mouse_3.y,mouse_3.leftButton,mouse_3.midButton,mouse_3.rightButton,mouse_11.x,mouse_11.y,mouse_11.leftButton,mouse_11.midButton,mouse_11.rightButton,trials_2.thisRepN,trials_2.thisTrialN,trials_2.thisN,trials_2.thisIndex,trials_2.ran,Colour1,mouse_3.clicked_name,catchornah,catchsimilarity,catchnumber,catchtrialorder,catchRT,mouse_11.clicked_name
space,1.9175,space,4.0514,space,20.0842,space,19.2167,space,2.8852,space,3.0815,59,PF,88.12585449,-34.42724609,1,0,0,response3disk_5,5,4.3008,0.153381348,3.14730835,1,0,0,rectangle_8,0.153381348,3.14730835,1,0,0,0.153381348,3.14730835,1,0,0,0,0,0,4,1,60fce1683eddb828380796e3,61036caadaaef64fc38d4613,2021-07-29_23h06.35.196,Simcolourproject_2stim_asymm_v5,2020.2.10,MacIntel,60,61025ae37ef11b136ea224fe,,,,,,,,,,,,,,,,,,,,,,,,,,,,,,,,,,,,,,,,,,,,,,
,,,,,,,,,,,,86,FF,85.66638184,-32.08328247,1,0,0,response3disk_5,5,3.7497,2.278015137,3.354370117,1,0,0,rectangle_8,37.87536621,106.3087463,1,0,0,-0.387145996,0.678985596,1,0,0,0,1,1,5,1,60fce1683eddb828380796e3,61036caadaaef64fc38d4613,2021-07-29_23h06.35.196,Simcolourproject_2stim_asymm_v5,2020.2.10,MacIntel,60,61025ae37ef11b136ea224fe,response1disk_7,7,3.085,7,"[2,5]",rectangle_4,,,,,,,,,,,,,,,,,,,,,,,,,,,,,,,,,,,,,,,,
,,,,,,,,,,,,126,PF,39.18322754,-100.8415527,1,0,0,response3disk_5,4,2.7001,2.419189453,-3.822662354,1,0,0,rectangle_8,2.419189453,-3.822662354,1,0,0,2.419189453,-3.822662354,1,0,0,0,2,2,6,1,60fce1683eddb828380796e3,61036caadaaef64fc38d4613,2021-07-29_23h06.35.196,Simcolourproject_2stim_asymm_v5,2020.2.10,MacIntel,60,61025ae37ef11b136ea224fe,,,,,,,,,,,,,,,,,,,,,,,,,,,,,,,,,,,,,,,,,,,,,,
,,,,,,,,,,,,134,FF,82.74176025,-39.95333862,1,0,0,response3disk_5,5,2.0498,3.581420898,0.35848999,1,0,0,rectangle_8,3.581420898,0.35848999,1,0,0,3.581420898,0.35848999,1,0,0,0,3,3,0,1,60fce1683eddb828380796e3,61036caadaaef64fc38d4613,2021-07-29_23h06.35.196,Simcolourproject_2stim_asymm_v5,2020.2.10,MacIntel,60,61025ae37ef11b136ea224fe,,,,,,,,,,,,,,,,,,,,,,,,,,,,,,,,,,,,,,,,,,,,,,
,,,,,,,,,,,,139,PF,98.04858398,36.67404175,1,0,0,response1disk_5,6,1.9164,1.47088623,0.605987549,1,0,0,rectangle_8,37.51452637,116.1934204,1,0,0,1.397216797,2.755828857,1,0,0,0,4,4,2,1,60fce1683eddb828380796e3,61036caadaaef64fc38d4613,2021-07-29_23h06.35.196,Simcolourproject_2stim_asymm_v5,2020.2.10,MacIntel,60,61025ae37ef11b136ea224fe,response1disk_7,7,2.0321,7,"[2,5]",rectangle_4,,,,,,,,,,,,,,,,,,,,,,,,,,,,,,,,,,,,,,,,
,,,,,,,,,,,,113,PF,-88.57519531,-41.55749512,1,0,0,response5disk_5,2,4.7338,-1.764587402,1.139129639,1,0,0,rectangle_8,-1.764587402,1.139129639,1,0,0,-1.764587402,1.139129639,1,0,0,0,5,5,1,1,60fce1683eddb828380796e3,61036caadaaef64fc38d4613,2021-07-29_23h06.35.196,Simcolourproject_2stim_asymm_v5,2020.2.10,MacIntel,60,61025ae37ef11b136ea224fe,,,,,,,,,,,,,,,,,,,,,,,,,,,,,,,,,,,,,,,,,,,,,,
,,,,,,,,,,,,109,FF,42.96954346,105.0372925,1,0,0,response1disk_5,7,2.0791,5.328613281,2.210845947,1,0,0,rectangle_8,5.328613281,2.210845947,1,0,0,5.328613281,2.210845947,1,0,0,0,6,6,3,1,60fce1683eddb828380796e3,61036caadaaef64fc38d4613,2021-07-29_23h06.35.196,Simcolourproject_2stim_asymm_v5,2020.2.10,MacIntel,60,61025ae37ef11b136ea224fe,,,,,,,,,,,,,,,,,,,,,,,,,,,,,,,,,,,,,,,,,,,,,,
,,,,,,,,,,,,,FF,,,,,,,,1.9653,,,,,,,,,,,,,,,,,,,,,,60fce1683eddb828380796e3,61036caadaaef64fc38d4613,2021-07-29_23h06.35.196,Simcolourproject_2stim_asymm_v5,2020.2.10,MacIntel,60,61025ae37ef11b136ea224fe,,,,,,,space,49.6927,185,43.37878418,105.8850403,1,0,0,response1disk,,7,0.507873535,2.774993896,1,0,0,rectangle,0.507873535,2.774993896,1,0,0,0.507873535,2.774993896,1,0,0,0,0,0,153,1,,,,,,,,
,,,,,,,,,,,,,FF,,,,,,,,1.9493,,,,,,,,,,,,,,,,,,,,,,60fce1683eddb828380796e3,61036caadaaef64fc38d4613,2021-07-29_23h06.35.196,Simcolourproject_2stim_asymm_v5,2020.2.10,MacIntel,60,61025ae37ef11b136ea224fe,,,,,,,,,353,108.713562,33.01437378,1,0,0,response1disk,,6,-0.491394043,3.21697998,1,0,0,rectangle,-0.491394043,3.21697998,1,0,0,-0.491394043,3.21697998,1,0,0,0,1,1,158,1,,,,,,,,
,,,,,,,,,,,,,FF,,,,,,,,2.0334,,,,,,,,,,,,,,,,,,,,,,60fce1683eddb828380796e3,61036caadaaef64fc38d4613,2021-07-29_23h06.35.196,Simcolourproject_2stim_asymm_v5,2020.2.10,MacIntel,60,61025ae37ef11b136ea224fe,,,,,,,,,4328,88.79541016,-33.15420532,1,0,0,response3disk,,5,-2.701599121,4.603179932,1,0,0,rectangle,-2.701599121,4.603179932,1,0,0,-2.701599121,4.603179932,1,0,0,0,2,2,143,1,,,,,,,,
,,,,,,,,,,,,,FF,,,,,,,,2.4325,,,,,,,,,,,,,,,,,,,,,,60fce1683eddb828380796e3,61036caadaaef64fc38d4613,2021-07-29_23h06.35.196,Simcolourproject_2stim_asymm_v5,2020.2.10,MacIntel,60,61025ae37ef11b136ea224fe,,,,,,,,,2387,-92.01251221,-34.04013062,1,0,0,response5disk,,2,-2.134399414,-0.965667725,1,0,0,rectangle,-2.134399414,-0.965667725,1,0,0,-2.134399414,-0.965667725,1,0,0,0,3,3,21,1,,,,,,,,
,,,,,,,,,,,,,FF,,,,,,,,15.7345,,,,,,,,,,,,,,,,,,,,,,60fce1683eddb828380796e3,61036caadaaef64fc38d4613,2021-07-29_23h06.35.196,Simcolourproject_2stim_asymm_v5,2020.2.10,MacIntel,60,61025ae37ef11b136ea224fe,,,,,,,,,3322,99.30883789,40.1791687,1,0,0,response1disk,,6,1.447570801,1.713806152,1,0,0,rectangle,1.447570801,1.713806152,1,0,0,1.447570801,1.713806152,1,0,0,0,4,4,115,1,,,,,,,,
,,,,,,,,,,,,,FF,,,,,,,,2.6171,,,,,,,,,,,,,,,,,,,,,,60fce1683eddb828380796e3,61036caadaaef64fc38d4613,2021-07-29_23h06.35.196,Simcolourproject_2stim_asymm_v5,2020.2.10,MacIntel,60,61025ae37ef11b136ea224fe,,,,,,,,,968,-40.67108154,103.0626526,1,0,0,response7disk,,0,3.73449707,2.424743652,1,0,0,rectangle,3.73449707,2.424743652,1,0,0,3.73449707,2.424743652,1,0,0,0,5,5,18,1,,,,,,,,
,,,,,,,,,,,,,FF,,,,,,,,5.1005,,,,,,,,,,,,,,,,,,,,,,60fce1683eddb828380796e3,61036caadaaef64fc38d4613,2021-07-29_23h06.35.196,Simcolourproject_2stim_asymm_v5,2020.2.10,MacIntel,60,61025ae37ef11b136ea224fe,,,,,,,,,2383,86.5690918,-39.11135864,1,0,0,response3disk,,5,4.954223633,4.030883789,1,0,0,rectangle,4.954223633,4.030883789,1,0,0,4.954223633,4.030883789,1,0,0,0,6,6,36,1,,,,,,,,
,,,,,,,,,,,,,FF,,,,,,,,2.301,,,,,,,,,,,,,,,,,,,,,,60fce1683eddb828380796e3,61036caadaaef64fc38d4613,2021-07-29_23h06.35.196,Simcolourproject_2stim_asymm_v5,2020.2.10,MacIntel,60,61025ae37ef11b136ea224fe,,,,,,,,,4126,43.07977295,-102.9335938,1,0,0,response3disk,,4,6.515258789,5.812591553,1,0,0,rectangle,6.515258789,5.812591553,1,0,0,6.515258789,5.812591553,1,0,0,0,7,7,25,1,,,,,,,,
,,,,,,,,,,,,,FF,,,,,,,,1.5176,,,,,,,,,,,,,,,,,,,,,,60fce1683eddb828380796e3,61036caadaaef64fc38d4613,2021-07-29_23h06.35.196,Simcolourproject_2stim_asymm_v5,2020.2.10,MacIntel,60,61025ae37ef11b136ea224fe,,,,,,,,,3784,45.15008545,-99.24237061,1,0,0,response3disk,,4,-4.184692383,4.786071777,1,0,0,rectangle,-4.184692383,4.786071777,1,0,0,-4.184692383,4.786071777,1,0,0,0,8,8,77,1,,,,,,,,
,,,,,,,,,,,,,FF,,,,,,,,1.3845,,,,,,,,,,,,,,,,,,,,,,60fce1683eddb828380796e3,61036caadaaef64fc38d4613,2021-07-29_23h06.35.196,Simcolourproject_2stim_asymm_v5,2020.2.10,MacIntel,60,61025ae37ef11b136ea224fe,,,,,,,,,3082,105.3137207,40.82583618,1,0,0,response1disk,,6,4.996459961,4.492492676,1,0,0,rectangle,4.996459961,4.492492676,1,0,0,4.996459961,4.492492676,1,0,0,0,9,9,30,1,,,,,,,,
,,,,,,,,,,,,,FF,,,,,,,,2.6492,,,,,,,,,,,,,,,,,,,,,,60fce1683eddb828380796e3,61036caadaaef64fc38d4613,2021-07-29_23h06.35.196,Simcolourproject_2stim_asymm_v5,2020.2.10,MacIntel,60,61025ae37ef11b136ea224fe,,,,,,,,,1231,-44.14788818,-104.4804688,1,0,0,response5disk,,3,1.119812012,1.107299805,1,0,0,rectangle,1.119812012,1.107299805,1,0,0,1.119812012,1.107299805,1,0,0,0,10,10,157,1,,,,,,,,
,,,,,,,,,,,,,FF,,,,,,,,2.7661,,,,,,,,,,,,,,,,,,,,,,60fce1683eddb828380796e3,61036caadaaef64fc38d4613,2021-07-29_23h06.35.196,Simcolourproject_2stim_asymm_v5,2020.2.10,MacIntel,60,61025ae37ef11b136ea224fe,,,,,,,,,3679,-39.98718262,-105.0679321,1,0,0,response5disk,,3,3.357299805,1.908081055,1,0,0,rectangle,-35.73260498,105.7071533,1,0,0,0.480651855,-0.134521484,1,0,0,0,11,11,111,1,,response7disk_3,TRUE,0,0,"[196,290,130,132,12,43,85,276,51,291,15,70,232,292,284,305,14,47,150,99]",8.4009,rectangle
,,,,,,,,,,,,,FF,,,,,,,,33.3668,,,,,,,,,,,,,,,,,,,,,,60fce1683eddb828380796e3,61036caadaaef64fc38d4613,2021-07-29_23h06.35.196,Simcolourproject_2stim_asymm_v5,2020.2.10,MacIntel,60,61025ae37ef11b136ea224fe,,,,,,,,,469,43.45239258,-103.8130493,1,0,0,response3disk,,4,0.10534668,3.849273682,1,0,0,rectangle,0.10534668,3.849273682,1,0,0,0.10534668,3.849273682,1,0,0,0,12,12,79,1,,,,,,,,
,,,,,,,,,,,,,FF,,,,,,,,2.8835,,,,,,,,,,,,,,,,,,,,,,60fce1683eddb828380796e3,61036caadaaef64fc38d4613,2021-07-29_23h06.35.196,Simcolourproject_2stim_asymm_v5,2020.2.10,MacIntel,60,61025ae37ef11b136ea224fe,,,,,,,,,511,104.2741089,42.67645264,1,0,0,response1disk,,6,6.063049316,2.05166626,1,0,0,rectangle,100.348877,32.53866577,1,0,0,4.040588379,-1.891723633,1,0,0,0,13,13,118,1,,response1disk_3,TRUE,6,6,"[196,290,130,132,12,43,85,276,51,291,15,70,232,292,284,305,14,47,150,99]",2.0166,rectangle
,,,,,,,,,,,,,FF,,,,,,,,3.4344,,,,,,,,,,,,,,,,,,,,,,60fce1683eddb828380796e3,61036caadaaef64fc38d4613,2021-07-29_23h06.35.196,Simcolourproject_2stim_asymm_v5,2020.2.10,MacIntel,60,61025ae37ef11b136ea224fe,,,,,,,,,1122,90.26342773,-37.46987915,1,0,0,response3disk,,5,0.15411377,-3.692962646,1,0,0,rectangle,42.74816895,102.7028198,1,0,0,3.758666992,-0.067779541,1,0,0,0,14,14,17,1,,response1disk_3,TRUE,7,7,"[196,290,130,132,12,43,85,276,51,291,15,70,232,292,284,305,14,47,150,99]",1.4168,rectangle
,,,,,,,,,,,,,FF,,,,,,,,2.9344,,,,,,,,,,,,,,,,,,,,,,60fce1683eddb828380796e3,61036caadaaef64fc38d4613,2021-07-29_23h06.35.196,Simcolourproject_2stim_asymm_v5,2020.2.10,MacIntel,60,61025ae37ef11b136ea224fe,,,,,,,,,3382,-93.10009766,38.69888306,1,0,0,response7disk,,1,-2.33380127,6.679870605,1,0,0,rectangle,-2.33380127,6.679870605,1,0,0,-2.33380127,6.679870605,1,0,0,0,15,15,85,1,,,,,,,,
,,,,,,,,,,,,,FF,,,,,,,,1.1828,,,,,,,,,,,,,,,,,,,,,,60fce1683eddb828380796e3,61036caadaaef64fc38d4613,2021-07-29_23h06.35.196,Simcolourproject_2stim_asymm_v5,2020.2.10,MacIntel,60,61025ae37ef11b136ea224fe,,,,,,,,,1658,88.41186523,-34.12286377,1,0,0,response3disk,,5,8.681884766,-2.964813232,1,0,0,rectangle,8.681884766,-2.964813232,1,0,0,8.681884766,-2.964813232,1,0,0,0,16,16,116,1,,,,,,,,
,,,,,,,,,,,,,FF,,,,,,,,1.2007,,,,,,,,,,,,,,,,,,,,,,60fce1683eddb828380796e3,61036caadaaef64fc38d4613,2021-07-29_23h06.35.196,Simcolourproject_2stim_asymm_v5,2020.2.10,MacIntel,60,61025ae37ef11b136ea224fe,,,,,,,,,4076,-44.98297119,-101.6119385,1,0,0,response5disk,,3,-6.383911133,-0.780548096,1,0,0,rectangle,-6.383911133,-0.780548096,1,0,0,-6.383911133,-0.780548096,1,0,0,0,17,17,63,1,,,,,,,,
,,,,,,,,,,,,,FF,,,,,,,,2.4682,,,,,,,,,,,,,,,,,,,,,,60fce1683eddb828380796e3,61036caadaaef64fc38d4613,2021-07-29_23h06.35.196,Simcolourproject_2stim_asymm_v5,2020.2.10,MacIntel,60,61025ae37ef11b136ea224fe,,,,,,,,,2931,88.9453125,-32.50488281,1,0,0,response3disk,,5,5.559020996,-1.807220459,1,0,0,rectangle,5.559020996,-1.807220459,1,0,0,5.559020996,-1.807220459,1,0,0,0,18,18,114,1,,,,,,,,
,,,,,,,,,,,,,FF,,,,,,,,3.0344,,,,,,,,,,,,,,,,,,,,,,60fce1683eddb828380796e3,61036caadaaef64fc38d4613,2021-07-29_23h06.35.196,Simcolourproject_2stim_asymm_v5,2020.2.10,MacIntel,60,61025ae37ef11b136ea224fe,,,,,,,,,1558,-43.36602783,-101.350769,1,0,0,response5disk,,3,0.083312988,-1.413696289,1,0,0,rectangle,0.083312988,-1.413696289,1,0,0,0.083312988,-1.413696289,1,0,0,0,19,19,59,1,,,,,,,,
,,,,,,,,,,,,,FF,,,,,,,,1.8155,,,,,,,,,,,,,,,,,,,,,,60fce1683eddb828380796e3,61036caadaaef64fc38d4613,2021-07-29_23h06.35.196,Simcolourproject_2stim_asymm_v5,2020.2.10,MacIntel,60,61025ae37ef11b136ea224fe,,,,,,,,,229,97.92156982,37.16131592,1,0,0,response1disk,,6,-0.792053223,-0.286437988,1,0,0,rectangle,-0.792053223,-0.286437988,1,0,0,-0.792053223,-0.286437988,1,0,0,0,20,20,108,1,,,,,,,,
,,,,,,,,,,,,,FF,,,,,,,,1.5344,,,,,,,,,,,,,,,,,,,,,,60fce1683eddb828380796e3,61036caadaaef64fc38d4613,2021-07-29_23h06.35.196,Simcolourproject_2stim_asymm_v5,2020.2.10,MacIntel,60,61025ae37ef11b136ea224fe,,,,,,,,,4158,93.31921387,31.47644043,1,0,0,response1disk,,6,2.641296387,2.4637146,1,0,0,rectangle,2.641296387,2.4637146,1,0,0,2.641296387,2.4637146,1,0,0,0,21,21,103,1,,,,,,,,
,,,,,,,,,,,,,FF,,,,,,,,1.2171,,,,,,,,,,,,,,,,,,,,,,60fce1683eddb828380796e3,61036caadaaef64fc38d4613,2021-07-29_23h06.35.196,Simcolourproject_2stim_asymm_v5,2020.2.10,MacIntel,60,61025ae37ef11b136ea224fe,,,,,,,,,4111,103.7080688,38.22375488,1,0,0,response1disk,,6,5.829711914,2.395629883,1,0,0,rectangle,5.829711914,2.395629883,1,0,0,5.829711914,2.395629883,1,0,0,0,22,22,75,1,,,,,,,,
,,,,,,,,,,,,,FF,,,,,,,,1.6666,,,,,,,,,,,,,,,,,,,,,,60fce1683eddb828380796e3,61036caadaaef64fc38d4613,2021-07-29_23h06.35.196,Simcolourproject_2stim_asymm_v5,2020.2.10,MacIntel,60,61025ae37ef11b136ea224fe,,,,,,,,,2180,87.7401123,-36.86282349,1,0,0,response3disk,,5,5.274230957,0.705780029,1,0,0,rectangle,5.274230957,0.705780029,1,0,0,5.274230957,0.705780029,1,0,0,0,23,23,126,1,,,,,,,,
,,,,,,,,,,,,,FF,,,,,,,,1.2173,,,,,,,,,,,,,,,,,,,,,,60fce1683eddb828380796e3,61036caadaaef64fc38d4613,2021-07-29_23h06.35.196,Simcolourproject_2stim_asymm_v5,2020.2.10,MacIntel,60,61025ae37ef11b136ea224fe,,,,,,,,,3690,98.17407227,35.19644165,1,0,0,response1disk,,6,6.668334961,-0.192474365,1,0,0,rectangle,6.668334961,-0.192474365,1,0,0,6.668334961,-0.192474365,1,0,0,0,24,24,2,1,,,,,,,,
,,,,,,,,,,,,,FF,,,,,,,,1.1999,,,,,,,,,,,,,,,,,,,,,,60fce1683eddb828380796e3,61036caadaaef64fc38d4613,2021-07-29_23h06.35.196,Simcolourproject_2stim_asymm_v5,2020.2.10,MacIntel,60,61025ae37ef11b136ea224fe,,,,,,,,,1351,41.05639648,108.1771851,1,0,0,response1disk,,7,10.88146973,5.902923584,1,0,0,rectangle,10.88146973,5.902923584,1,0,0,10.88146973,5.902923584,1,0,0,0,25,25,33,1,,,,,,,,
,,,,,,,,,,,,,FF,,,,,,,,3.2665,,,,,,,,,,,,,,,,,,,,,,60fce1683eddb828380796e3,61036caadaaef64fc38d4613,2021-07-29_23h06.35.196,Simcolourproject_2stim_asymm_v5,2020.2.10,MacIntel,60,61025ae37ef11b136ea224fe,,,,,,,,,1261,83.98883057,-32.08197021,1,0,0,response3disk,,5,-0.513793945,7.970611572,1,0,0,rectangle,-0.513793945,7.970611572,1,0,0,-0.513793945,7.970611572,1,0,0,0,26,26,146,1,,,,,,,,
,,,,,,,,,,,,,FF,,,,,,,,5.583,,,,,,,,,,,,,,,,,,,,,,60fce1683eddb828380796e3,61036caadaaef64fc38d4613,2021-07-29_23h06.35.196,Simcolourproject_2stim_asymm_v5,2020.2.10,MacIntel,60,61025ae37ef11b136ea224fe,,,,,,,,,996,85.77770996,-32.82397461,1,0,0,response3disk,,5,1.920898438,-0.428314209,1,0,0,rectangle,1.920898438,-0.428314209,1,0,0,1.920898438,-0.428314209,1,0,0,0,27,27,130,1,,,,,,,,
,,,,,,,,,,,,,FF,,,,,,,,2.0825,,,,,,,,,,,,,,,,,,,,,,60fce1683eddb828380796e3,61036caadaaef64fc38d4613,2021-07-29_23h06.35.196,Simcolourproject_2stim_asymm_v5,2020.2.10,MacIntel,60,61025ae37ef11b136ea224fe,,,,,,,,,2981,105.8480225,42.85159302,1,0,0,response1disk,,6,-3.3125,-5.336578369,1,0,0,rectangle,-3.3125,-5.336578369,1,0,0,-3.3125,-5.336578369,1,0,0,0,28,28,147,1,,,,,,,,
,,,,,,,,,,,,,FF,,,,,,,,1.9496,,,,,,,,,,,,,,,,,,,,,,60fce1683eddb828380796e3,61036caadaaef64fc38d4613,2021-07-29_23h06.35.196,Simcolourproject_2stim_asymm_v5,2020.2.10,MacIntel,60,61025ae37ef11b136ea224fe,,,,,,,,,1254,100.8127441,39.60842896,1,0,0,response1disk,,6,2.133911133,2.405914307,1,0,0,rectangle,2.133911133,2.405914307,1,0,0,2.133911133,2.405914307,1,0,0,0,29,29,26,1,,,,,,,,
,,,,,,,,,,,,,FF,,,,,,,,2.5331,,,,,,,,,,,,,,,,,,,,,,60fce1683eddb828380796e3,61036caadaaef64fc38d4613,2021-07-29_23h06.35.196,Simcolourproject_2stim_asymm_v5,2020.2.10,MacIntel,60,61025ae37ef11b136ea224fe,,,,,,,,,4073,-43.15704346,-100.8861694,1,0,0,response5disk,,3,-1.678161621,1.191467285,1,0,0,rectangle,-1.678161621,1.191467285,1,0,0,-1.678161621,1.191467285,1,0,0,0,30,30,155,1,,,,,,,,
,,,,,,,,,,,,,FF,,,,,,,,5.0332,,,,,,,,,,,,,,,,,,,,,,60fce1683eddb828380796e3,61036caadaaef64fc38d4613,2021-07-29_23h06.35.196,Simcolourproject_2stim_asymm_v5,2020.2.10,MacIntel,60,61025ae37ef11b136ea224fe,,,,,,,,,3983,40.30181885,-99.85430908,1,0,0,response3disk,,4,-0.757080078,0.380004883,1,0,0,rectangle,-0.757080078,0.380004883,1,0,0,-0.757080078,0.380004883,1,0,0,0,31,31,38,1,,,,,,,,
,,,,,,,,,,,,,FF,,,,,,,,1.7334,,,,,,,,,,,,,,,,,,,,,,60fce1683eddb828380796e3,61036caadaaef64fc38d4613,2021-07-29_23h06.35.196,Simcolourproject_2stim_asymm_v5,2020.2.10,MacIntel,60,61025ae37ef11b136ea224fe,,,,,,,,,2958,104.668335,41.14279175,1,0,0,response1disk,,6,6.646484375,0.86505127,1,0,0,rectangle,6.646484375,0.86505127,1,0,0,6.646484375,0.86505127,1,0,0,0,32,32,35,1,,,,,,,,
,,,,,,,,,,,,,FF,,,,,,,,1.5492,,,,,,,,,,,,,,,,,,,,,,60fce1683eddb828380796e3,61036caadaaef64fc38d4613,2021-07-29_23h06.35.196,Simcolourproject_2stim_asymm_v5,2020.2.10,MacIntel,60,61025ae37ef11b136ea224fe,,,,,,,,,1753,-39.18731689,-97.63818359,1,0,0,response5disk,,3,1.441101074,4.162536621,1,0,0,rectangle,1.441101074,4.162536621,1,0,0,1.441101074,4.162536621,1,0,0,0,33,33,52,1,,,,,,,,
,,,,,,,,,,,,,FF,,,,,,,,1.4343,,,,,,,,,,,,,,,,,,,,,,60fce1683eddb828380796e3,61036caadaaef64fc38d4613,2021-07-29_23h06.35.196,Simcolourproject_2stim_asymm_v5,2020.2.10,MacIntel,60,61025ae37ef11b136ea224fe,,,,,,,,,3852,44.03674316,-98.10699463,1,0,0,response3disk,,4,4.794372559,1.904083252,1,0,0,rectangle,4.794372559,1.904083252,1,0,0,4.794372559,1.904083252,1,0,0,0,34,34,32,1,,,,,,,,
,,,,,,,,,,,,,FF,,,,,,,,1.1834,,,,,,,,,,,,,,,,,,,,,,60fce1683eddb828380796e3,61036caadaaef64fc38d4613,2021-07-29_23h06.35.196,Simcolourproject_2stim_asymm_v5,2020.2.10,MacIntel,60,61025ae37ef11b136ea224fe,,,,,,,,,2987,-43.18139648,-103.7627563,1,0,0,response5disk,,3,-0.125366211,8.288665771,1,0,0,rectangle,-0.125366211,8.288665771,1,0,0,-0.125366211,8.288665771,1,0,0,0,35,35,112,1,,,,,,,,
,,,,,,,,,,,,,FF,,,,,,,,1.1167,,,,,,,,,,,,,,,,,,,,,,60fce1683eddb828380796e3,61036caadaaef64fc38d4613,2021-07-29_23h06.35.196,Simcolourproject_2stim_asymm_v5,2020.2.10,MacIntel,60,61025ae37ef11b136ea224fe,,,,,,,,,4220,-39.80914307,-103.7296143,1,0,0,response5disk,,3,-4.780334473,12.76480103,1,0,0,rectangle,-4.780334473,12.76480103,1,0,0,-4.780334473,12.76480103,1,0,0,0,36,36,159,1,,,,,,,,
,,,,,,,,,,,,,FF,,,,,,,,1.0169,,,,,,,,,,,,,,,,,,,,,,60fce1683eddb828380796e3,61036caadaaef64fc38d4613,2021-07-29_23h06.35.196,Simcolourproject_2stim_asymm_v5,2020.2.10,MacIntel,60,61025ae37ef11b136ea224fe,,,,,,,,,178,91.38366699,51.97509766,1,0,0,response1disk,,6,-1.289916992,-3.115386963,1,0,0,rectangle,-1.289916992,-3.115386963,1,0,0,-1.289916992,-3.115386963,1,0,0,0,37,37,27,1,,,,,,,,
,,,,,,,,,,,,,FF,,,,,,,,1.0168,,,,,,,,,,,,,,,,,,,,,,60fce1683eddb828380796e3,61036caadaaef64fc38d4613,2021-07-29_23h06.35.196,Simcolourproject_2stim_asymm_v5,2020.2.10,MacIntel,60,61025ae37ef11b136ea224fe,,,,,,,,,2033,-38.92199707,-94.66204834,1,0,0,response5disk,,3,-4.277709961,10.48962402,1,0,0,rectangle,-4.277709961,10.48962402,1,0,0,-4.277709961,10.48962402,1,0,0,0,38,38,67,1,,,,,,,,
,,,,,,,,,,,,,FF,,,,,,,,1.2666,,,,,,,,,,,,,,,,,,,,,,60fce1683eddb828380796e3,61036caadaaef64fc38d4613,2021-07-29_23h06.35.196,Simcolourproject_2stim_asymm_v5,2020.2.10,MacIntel,60,61025ae37ef11b136ea224fe,,,,,,,,,740,-33.35900879,-107.5185547,1,0,0,response5disk,,3,9.856628418,7.212860107,1,0,0,rectangle,9.856628418,7.212860107,1,0,0,9.856628418,7.212860107,1,0,0,0,39,39,41,1,,,,,,,,
,,,,,,,,,,,,,FF,,,,,,,,1.3166,,,,,,,,,,,,,,,,,,,,,,60fce1683eddb828380796e3,61036caadaaef64fc38d4613,2021-07-29_23h06.35.196,Simcolourproject_2stim_asymm_v5,2020.2.10,MacIntel,60,61025ae37ef11b136ea224fe,,,,,,,,,1716,101.0476074,35.76507568,1,0,0,response1disk,,6,0.984558105,-5.461914063,1,0,0,rectangle,0.984558105,-5.461914063,1,0,0,0.984558105,-5.461914063,1,0,0,0,40,40,28,1,,,,,,,,
,,,,,,,,,,,,,FF,,,,,,,,1.1507,,,,,,,,,,,,,,,,,,,,,,60fce1683eddb828380796e3,61036caadaaef64fc38d4613,2021-07-29_23h06.35.196,Simcolourproject_2stim_asymm_v5,2020.2.10,MacIntel,60,61025ae37ef11b136ea224fe,,,,,,,,,3426,-83.63171387,-40.7355957,1,0,0,response5disk,,2,-7.479492188,6.90512085,1,0,0,rectangle,-7.479492188,6.90512085,1,0,0,-7.479492188,6.90512085,1,0,0,0,41,41,124,1,,,,,,,,
,,,,,,,,,,,,,FF,,,,,,,,1.3326,,,,,,,,,,,,,,,,,,,,,,60fce1683eddb828380796e3,61036caadaaef64fc38d4613,2021-07-29_23h06.35.196,Simcolourproject_2stim_asymm_v5,2020.2.10,MacIntel,60,61025ae37ef11b136ea224fe,,,,,,,,,2092,49.16967773,119.2749939,1,0,0,response1disk,,7,9.847351074,0.21661377,1,0,0,rectangle,-89.2567749,-38.86172485,1,0,0,3.473205566,5.21774292,1,0,0,0,42,42,136,1,,response5disk_3,TRUE,2,2,"[196,290,130,132,12,43,85,276,51,291,15,70,232,292,284,305,14,47,150,99]",1.7165,rectangle
,,,,,,,,,,,,,FF,,,,,,,,11.5663,,,,,,,,,,,,,,,,,,,,,,60fce1683eddb828380796e3,61036caadaaef64fc38d4613,2021-07-29_23h06.35.196,Simcolourproject_2stim_asymm_v5,2020.2.10,MacIntel,60,61025ae37ef11b136ea224fe,,,,,,,,,2229,86.76776123,-39.86566162,1,0,0,response3disk,,5,2.700012207,-0.169891357,1,0,0,rectangle,2.700012207,-0.169891357,1,0,0,2.700012207,-0.169891357,1,0,0,0,43,43,39,1,,,,,,,,
,,,,,,,,,,,,,FF,,,,,,,,1.55,,,,,,,,,,,,,,,,,,,,,,60fce1683eddb828380796e3,61036caadaaef64fc38d4613,2021-07-29_23h06.35.196,Simcolourproject_2stim_asymm_v5,2020.2.10,MacIntel,60,61025ae37ef11b136ea224fe,,,,,,,,,2202,87.97302246,-35.14260864,1,0,0,response3disk,,5,5.929382324,-6.109313965,1,0,0,rectangle,5.929382324,-6.109313965,1,0,0,5.929382324,-6.109313965,1,0,0,0,44,44,99,1,,,,,,,,
,,,,,,,,,,,,,FF,,,,,,,,1.299,,,,,,,,,,,,,,,,,,,,,,60fce1683eddb828380796e3,61036caadaaef64fc38d4613,2021-07-29_23h06.35.196,Simcolourproject_2stim_asymm_v5,2020.2.10,MacIntel,60,61025ae37ef11b136ea224fe,,,,,,,,,2230,44.21911621,-98.08526611,1,0,0,response3disk,,4,9.980224609,1.45324707,1,0,0,rectangle,9.980224609,1.45324707,1,0,0,9.980224609,1.45324707,1,0,0,0,45,45,5,1,,,,,,,,
,,,,,,,,,,,,,FF,,,,,,,,1.3832,,,,,,,,,,,,,,,,,,,,,,60fce1683eddb828380796e3,61036caadaaef64fc38d4613,2021-07-29_23h06.35.196,Simcolourproject_2stim_asymm_v5,2020.2.10,MacIntel,60,61025ae37ef11b136ea224fe,,,,,,,,,2725,-47.13964844,-84.9899292,1,0,0,response5disk,,3,-8.758666992,-4.386169434,1,0,0,rectangle,89.1463623,-22.90283203,1,0,0,9.977294922,2.576751709,1,0,0,0,46,46,110,1,,response3disk_3,TRUE,5,5,"[196,290,130,132,12,43,85,276,51,291,15,70,232,292,284,305,14,47,150,99]",2.2327,rectangle
,,,,,,,,,,,,,FF,,,,,,,,2.1832,,,,,,,,,,,,,,,,,,,,,,60fce1683eddb828380796e3,61036caadaaef64fc38d4613,2021-07-29_23h06.35.196,Simcolourproject_2stim_asymm_v5,2020.2.10,MacIntel,60,61025ae37ef11b136ea224fe,,,,,,,,,3494,92.91699219,-33.86819458,1,0,0,response3disk,,5,0.827270508,-3.20803833,1,0,0,rectangle,0.827270508,-3.20803833,1,0,0,0.827270508,-3.20803833,1,0,0,0,47,47,73,1,,,,,,,,
,,,,,,,,,,,,,FF,,,,,,,,1.2503,,,,,,,,,,,,,,,,,,,,,,60fce1683eddb828380796e3,61036caadaaef64fc38d4613,2021-07-29_23h06.35.196,Simcolourproject_2stim_asymm_v5,2020.2.10,MacIntel,60,61025ae37ef11b136ea224fe,,,,,,,,,314,39.93920898,102.9961853,1,0,0,response1disk,,7,7.245666504,-3.409423828,1,0,0,rectangle,7.245666504,-3.409423828,1,0,0,7.245666504,-3.409423828,1,0,0,0,48,48,94,1,,,,,,,,
,,,,,,,,,,,,,FF,,,,,,,,0.8331,,,,,,,,,,,,,,,,,,,,,,60fce1683eddb828380796e3,61036caadaaef64fc38d4613,2021-07-29_23h06.35.196,Simcolourproject_2stim_asymm_v5,2020.2.10,MacIntel,60,61025ae37ef11b136ea224fe,,,,,,,,,593,50.64202881,74.94177246,1,0,0,response1disk,,7,10.44781494,-8.266204834,1,0,0,rectangle,10.44781494,-8.266204834,1,0,0,10.44781494,-8.266204834,1,0,0,0,49,49,70,1,,,,,,,,
,,,,,,,,,,,,,FF,,,,,,,,0.7843,,,,,,,,,,,,,,,,,,,,,,60fce1683eddb828380796e3,61036caadaaef64fc38d4613,2021-07-29_23h06.35.196,Simcolourproject_2stim_asymm_v5,2020.2.10,MacIntel,60,61025ae37ef11b136ea224fe,,,,,,,,,1015,45.13232422,83.51895142,1,0,0,response1disk,,7,5.223510742,-2.878875732,1,0,0,rectangle,-95.11157227,-34.70233154,1,0,0,-6.027709961,-1.420318604,1,0,0,0,50,50,23,1,,response5disk_3,TRUE,2,2,"[196,290,130,132,12,43,85,276,51,291,15,70,232,292,284,305,14,47,150,99]",1.6496,rectangle
,,,,,,,,,,,,,FF,,,,,,,,1.1661,,,,,,,,,,,,,,,,,,,,,,60fce1683eddb828380796e3,61036caadaaef64fc38d4613,2021-07-29_23h06.35.196,Simcolourproject_2stim_asymm_v5,2020.2.10,MacIntel,60,61025ae37ef11b136ea224fe,,,,,,,,,3336,-53.92431641,82.46817017,1,0,0,response7disk,,0,-3.72668457,5.736083984,1,0,0,rectangle,-3.72668457,5.736083984,1,0,0,-3.72668457,5.736083984,1,0,0,0,51,51,1,1,,,,,,,,
,,,,,,,,,,,,,FF,,,,,,,,1.3328,,,,,,,,,,,,,,,,,,,,,,60fce1683eddb828380796e3,61036caadaaef64fc38d4613,2021-07-29_23h06.35.196,Simcolourproject_2stim_asymm_v5,2020.2.10,MacIntel,60,61025ae37ef11b136ea224fe,,,,,,,,,2912,77.7769165,38.72061157,1,0,0,response1disk,,6,-1.78112793,2.920196533,1,0,0,rectangle,-1.78112793,2.920196533,1,0,0,-1.78112793,2.920196533,1,0,0,0,52,52,71,1,,,,,,,,
,,,,,,,,,,,,,FF,,,,,,,,1.1829,,,,,,,,,,,,,,,,,,,,,,60fce1683eddb828380796e3,61036caadaaef64fc38d4613,2021-07-29_23h06.35.196,Simcolourproject_2stim_asymm_v5,2020.2.10,MacIntel,60,61025ae37ef11b136ea224fe,,,,,,,,,598,71.87670898,46.18325806,1,0,0,response1disk,,6,0.180419922,-0.925933838,1,0,0,rectangle,0.180419922,-0.925933838,1,0,0,0.180419922,-0.925933838,1,0,0,0,53,53,3,1,,,,,,,,
,,,,,,,,,,,,,FF,,,,,,,,2.3505,,,,,,,,,,,,,,,,,,,,,,60fce1683eddb828380796e3,61036caadaaef64fc38d4613,2021-07-29_23h06.35.196,Simcolourproject_2stim_asymm_v5,2020.2.10,MacIntel,60,61025ae37ef11b136ea224fe,,,,,,,,,551,91.83447266,37.03030396,1,0,0,response1disk,,6,-5.46105957,3.556549072,1,0,0,rectangle,-5.46105957,3.556549072,1,0,0,-5.46105957,3.556549072,1,0,0,0,54,54,122,1,,,,,,,,
,,,,,,,,,,,,,FF,,,,,,,,0.7494,,,,,,,,,,,,,,,,,,,,,,60fce1683eddb828380796e3,61036caadaaef64fc38d4613,2021-07-29_23h06.35.196,Simcolourproject_2stim_asymm_v5,2020.2.10,MacIntel,60,61025ae37ef11b136ea224fe,,,,,,,,,2516,28.54199219,85.17697144,1,0,0,response1disk,,7,8.270996094,-0.137298584,1,0,0,rectangle,8.270996094,-0.137298584,1,0,0,8.270996094,-0.137298584,1,0,0,0,55,55,152,1,,,,,,,,
,,,,,,,,,,,,,FF,,,,,,,,2.3504,,,,,,,,,,,,,,,,,,,,,,60fce1683eddb828380796e3,61036caadaaef64fc38d4613,2021-07-29_23h06.35.196,Simcolourproject_2stim_asymm_v5,2020.2.10,MacIntel,60,61025ae37ef11b136ea224fe,,,,,,,,,4356,-75.48327637,42.0909729,1,0,0,response7disk,,1,-2.248291016,-0.752197266,1,0,0,rectangle,-2.248291016,-0.752197266,1,0,0,-2.248291016,-0.752197266,1,0,0,0,56,56,95,1,,,,,,,,
,,,,,,,,,,,,,FF,,,,,,,,4.3829,,,,,,,,,,,,,,,,,,,,,,60fce1683eddb828380796e3,61036caadaaef64fc38d4613,2021-07-29_23h06.35.196,Simcolourproject_2stim_asymm_v5,2020.2.10,MacIntel,60,61025ae37ef11b136ea224fe,,,,,,,,,615,100.9026489,45.68426514,1,0,0,response1disk,,6,-2.731506348,-3.822021484,1,0,0,rectangle,-2.731506348,-3.822021484,1,0,0,-2.731506348,-3.822021484,1,0,0,0,57,57,80,1,,,,,,,,
,,,,,,,,,,,,,FF,,,,,,,,1.6161,,,,,,,,,,,,,,,,,,,,,,60fce1683eddb828380796e3,61036caadaaef64fc38d4613,2021-07-29_23h06.35.196,Simcolourproject_2stim_asymm_v5,2020.2.10,MacIntel,60,61025ae37ef11b136ea224fe,,,,,,,,,3661,-86.00909424,30.86056519,1,0,0,response7disk,,1,1.698974609,-1.191680908,1,0,0,rectangle,1.698974609,-1.191680908,1,0,0,1.698974609,-1.191680908,1,0,0,0,58,58,15,1,,,,,,,,
,,,,,,,,,,,,,FF,,,,,,,,2.5336,,,,,,,,,,,,,,,,,,,,,,60fce1683eddb828380796e3,61036caadaaef64fc38d4613,2021-07-29_23h06.35.196,Simcolourproject_2stim_asymm_v5,2020.2.10,MacIntel,60,61025ae37ef11b136ea224fe,,,,,,,,,2451,58.60986328,34.40737915,1,0,0,response1disk,,6,9.647033691,7.089385986,1,0,0,rectangle,9.647033691,7.089385986,1,0,0,9.647033691,7.089385986,1,0,0,0,59,59,74,1,,,,,,,,
,,,,,,,,,,,,,FF,,,,,,,,0.8663,,,,,,,,,,,,,,,,,,,,,,60fce1683eddb828380796e3,61036caadaaef64fc38d4613,2021-07-29_23h06.35.196,Simcolourproject_2stim_asymm_v5,2020.2.10,MacIntel,60,61025ae37ef11b136ea224fe,,,,,,,,,846,55.04956055,44.70379639,1,0,0,response1disk,,6,4.774230957,12.17755127,1,0,0,rectangle,4.774230957,12.17755127,1,0,0,4.774230957,12.17755127,1,0,0,0,60,60,53,1,,,,,,,,
,,,,,,,,,,,,,FF,,,,,,,,1.8333,,,,,,,,,,,,,,,,,,,,,,60fce1683eddb828380796e3,61036caadaaef64fc38d4613,2021-07-29_23h06.35.196,Simcolourproject_2stim_asymm_v5,2020.2.10,MacIntel,60,61025ae37ef11b136ea224fe,,,,,,,,,3941,61.76879883,-49.78271484,1,0,0,response3disk,,5,6.967956543,3.264373779,1,0,0,rectangle,6.967956543,3.264373779,1,0,0,6.967956543,3.264373779,1,0,0,0,61,61,40,1,,,,,,,,
,,,,,,,,,,,,,FF,,,,,,,,0.8834,,,,,,,,,,,,,,,,,,,,,,60fce1683eddb828380796e3,61036caadaaef64fc38d4613,2021-07-29_23h06.35.196,Simcolourproject_2stim_asymm_v5,2020.2.10,MacIntel,60,61025ae37ef11b136ea224fe,,,,,,,,,3830,44.84185791,60.91192627,1,0,0,response1disk,,7,3.543701172,6.214904785,1,0,0,rectangle,3.543701172,6.214904785,1,0,0,3.543701172,6.214904785,1,0,0,0,62,62,107,1,,,,,,,,
,,,,,,,,,,,,,FF,,,,,,,,1.117,,,,,,,,,,,,,,,,,,,,,,60fce1683eddb828380796e3,61036caadaaef64fc38d4613,2021-07-29_23h06.35.196,Simcolourproject_2stim_asymm_v5,2020.2.10,MacIntel,60,61025ae37ef11b136ea224fe,,,,,,,,,3999,58.9621582,-45.05105591,1,0,0,response3disk,,5,-1.920227051,0.846832275,1,0,0,rectangle,-1.920227051,0.846832275,1,0,0,-1.920227051,0.846832275,1,0,0,0,63,63,51,1,,,,,,,,
,,,,,,,,,,,,,FF,,,,,,,,1.3653,,,,,,,,,,,,,,,,,,,,,,60fce1683eddb828380796e3,61036caadaaef64fc38d4613,2021-07-29_23h06.35.196,Simcolourproject_2stim_asymm_v5,2020.2.10,MacIntel,60,61025ae37ef11b136ea224fe,,,,,,,,,945,61.27453613,82.00512695,1,0,0,response1disk,,7,5.219482422,-0.953216553,1,0,0,rectangle,5.219482422,-0.953216553,1,0,0,5.219482422,-0.953216553,1,0,0,0,64,64,76,1,,,,,,,,
,,,,,,,,,,,,,FF,,,,,,,,0.9837,,,,,,,,,,,,,,,,,,,,,,60fce1683eddb828380796e3,61036caadaaef64fc38d4613,2021-07-29_23h06.35.196,Simcolourproject_2stim_asymm_v5,2020.2.10,MacIntel,60,61025ae37ef11b136ea224fe,,,,,,,,,2078,53.53924561,83.24938965,1,0,0,response1disk,,7,-3.846557617,-6.14352417,1,0,0,rectangle,-3.846557617,-6.14352417,1,0,0,-3.846557617,-6.14352417,1,0,0,0,65,65,139,1,,,,,,,,
,,,,,,,,,,,,,FF,,,,,,,,1.0508,,,,,,,,,,,,,,,,,,,,,,60fce1683eddb828380796e3,61036caadaaef64fc38d4613,2021-07-29_23h06.35.196,Simcolourproject_2stim_asymm_v5,2020.2.10,MacIntel,60,61025ae37ef11b136ea224fe,,,,,,,,,308,44.68688965,90.0123291,1,0,0,response1disk,,7,0.383850098,-2.81854248,1,0,0,rectangle,0.383850098,-2.81854248,1,0,0,0.383850098,-2.81854248,1,0,0,0,66,66,128,1,,,,,,,,
,,,,,,,,,,,,,FF,,,,,,,,0.766,,,,,,,,,,,,,,,,,,,,,,60fce1683eddb828380796e3,61036caadaaef64fc38d4613,2021-07-29_23h06.35.196,Simcolourproject_2stim_asymm_v5,2020.2.10,MacIntel,60,61025ae37ef11b136ea224fe,,,,,,,,,951,38.22113037,81.53115845,1,0,0,response1disk,,7,0.061645508,-5.849761963,1,0,0,rectangle,0.061645508,-5.849761963,1,0,0,0.061645508,-5.849761963,1,0,0,0,67,67,58,1,,,,,,,,
,,,,,,,,,,,,,FF,,,,,,,,0.766,,,,,,,,,,,,,,,,,,,,,,60fce1683eddb828380796e3,61036caadaaef64fc38d4613,2021-07-29_23h06.35.196,Simcolourproject_2stim_asymm_v5,2020.2.10,MacIntel,60,61025ae37ef11b136ea224fe,,,,,,,,,3755,47.97595215,90.95819092,1,0,0,response1disk,,7,4.272338867,4.535552979,1,0,0,rectangle,4.272338867,4.535552979,1,0,0,4.272338867,4.535552979,1,0,0,0,68,68,19,1,,,,,,,,
,,,,,,,,,,,,,FF,,,,,,,,1.0498,,,,,,,,,,,,,,,,,,,,,,60fce1683eddb828380796e3,61036caadaaef64fc38d4613,2021-07-29_23h06.35.196,Simcolourproject_2stim_asymm_v5,2020.2.10,MacIntel,60,61025ae37ef11b136ea224fe,,,,,,,,,194,32.98071289,78.43499756,1,0,0,response1disk,,7,-1.04473877,-1.065979004,1,0,0,rectangle,-90.6987915,42.88256836,1,0,0,2.505371094,-0.584381104,1,0,0,0,69,69,37,1,,response7disk_3,TRUE,1,1,"[196,290,130,132,12,43,85,276,51,291,15,70,232,292,284,305,14,47,150,99]",1.3166,rectangle
,,,,,,,,,,,,,FF,,,,,,,,1.3833,,,,,,,,,,,,,,,,,,,,,,60fce1683eddb828380796e3,61036caadaaef64fc38d4613,2021-07-29_23h06.35.196,Simcolourproject_2stim_asymm_v5,2020.2.10,MacIntel,60,61025ae37ef11b136ea224fe,,,,,,,,,2081,46.83728027,98.03057861,1,0,0,response1disk,,7,1.366943359,1.380249023,1,0,0,rectangle,1.366943359,1.380249023,1,0,0,1.366943359,1.380249023,1,0,0,0,70,70,84,1,,,,,,,,
,,,,,,,,,,,,,FF,,,,,,,,1.15,,,,,,,,,,,,,,,,,,,,,,60fce1683eddb828380796e3,61036caadaaef64fc38d4613,2021-07-29_23h06.35.196,Simcolourproject_2stim_asymm_v5,2020.2.10,MacIntel,60,61025ae37ef11b136ea224fe,,,,,,,,,3936,-95.98822021,51.8006897,1,0,0,response7disk,,1,0.084289551,5.147277832,1,0,0,rectangle,0.084289551,5.147277832,1,0,0,0.084289551,5.147277832,1,0,0,0,71,71,7,1,,,,,,,,
,,,,,,,,,,,,,FF,,,,,,,,2.817,,,,,,,,,,,,,,,,,,,,,,60fce1683eddb828380796e3,61036caadaaef64fc38d4613,2021-07-29_23h06.35.196,Simcolourproject_2stim_asymm_v5,2020.2.10,MacIntel,60,61025ae37ef11b136ea224fe,,,,,,,,,21,106.3790894,35.93032837,1,0,0,response1disk,,6,-4.51776123,-5.074890137,1,0,0,rectangle,-4.51776123,-5.074890137,1,0,0,-4.51776123,-5.074890137,1,0,0,0,72,72,117,1,,,,,,,,
,,,,,,,,,,,,,FF,,,,,,,,1.3835,,,,,,,,,,,,,,,,,,,,,,60fce1683eddb828380796e3,61036caadaaef64fc38d4613,2021-07-29_23h06.35.196,Simcolourproject_2stim_asymm_v5,2020.2.10,MacIntel,60,61025ae37ef11b136ea224fe,,,,,,,,,1620,86.89611816,40.640625,1,0,0,response1disk,,6,-2.271728516,8.279846191,1,0,0,rectangle,-2.271728516,8.279846191,1,0,0,-2.271728516,8.279846191,1,0,0,0,73,73,65,1,,,,,,,,
,,,,,,,,,,,,,FF,,,,,,,,2.9842,,,,,,,,,,,,,,,,,,,,,,60fce1683eddb828380796e3,61036caadaaef64fc38d4613,2021-07-29_23h06.35.196,Simcolourproject_2stim_asymm_v5,2020.2.10,MacIntel,60,61025ae37ef11b136ea224fe,,,,,,,,,4162,-49.4909668,-94.10089111,1,0,0,response5disk,,3,-4.1796875,-4.297943115,1,0,0,rectangle,-4.1796875,-4.297943115,1,0,0,-4.1796875,-4.297943115,1,0,0,0,74,74,14,1,,,,,,,,
,,,,,,,,,,,,,FF,,,,,,,,1.9832,,,,,,,,,,,,,,,,,,,,,,60fce1683eddb828380796e3,61036caadaaef64fc38d4613,2021-07-29_23h06.35.196,Simcolourproject_2stim_asymm_v5,2020.2.10,MacIntel,60,61025ae37ef11b136ea224fe,,,,,,,,,3501,84.39312744,-49.89031982,1,0,0,response3disk,,5,2.604248047,12.67520142,1,0,0,rectangle,2.604248047,12.67520142,1,0,0,2.604248047,12.67520142,1,0,0,0,75,75,120,1,,,,,,,,
,,,,,,,,,,,,,FF,,,,,,,,1.4002,,,,,,,,,,,,,,,,,,,,,,60fce1683eddb828380796e3,61036caadaaef64fc38d4613,2021-07-29_23h06.35.196,Simcolourproject_2stim_asymm_v5,2020.2.10,MacIntel,60,61025ae37ef11b136ea224fe,,,,,,,,,645,101.0808105,33.21896362,1,0,0,response1disk,,6,0.919433594,-1.356658936,1,0,0,rectangle,0.919433594,-1.356658936,1,0,0,0.919433594,-1.356658936,1,0,0,0,76,76,62,1,,,,,,,,
,,,,,,,,,,,,,FF,,,,,,,,1.7003,,,,,,,,,,,,,,,,,,,,,,60fce1683eddb828380796e3,61036caadaaef64fc38d4613,2021-07-29_23h06.35.196,Simcolourproject_2stim_asymm_v5,2020.2.10,MacIntel,60,61025ae37ef11b136ea224fe,,,,,,,,,4062,41.81445313,85.81317139,1,0,0,response1disk,,7,-2.604919434,-11.15634155,1,0,0,rectangle,-2.604919434,-11.15634155,1,0,0,-2.604919434,-11.15634155,1,0,0,0,77,77,106,1,,,,,,,,
,,,,,,,,,,,,,FF,,,,,,,,0.9828,,,,,,,,,,,,,,,,,,,,,,60fce1683eddb828380796e3,61036caadaaef64fc38d4613,2021-07-29_23h06.35.196,Simcolourproject_2stim_asymm_v5,2020.2.10,MacIntel,60,61025ae37ef11b136ea224fe,,,,,,,,,4337,-42.03289795,-77.81994629,1,0,0,response5disk,,3,-2.754943848,8.130859375,1,0,0,rectangle,-2.754943848,8.130859375,1,0,0,-2.754943848,8.130859375,1,0,0,0,78,78,89,1,,,,,,,,
,,,,,,,,,,,,,FF,,,,,,,,1.467,,,,,,,,,,,,,,,,,,,,,,60fce1683eddb828380796e3,61036caadaaef64fc38d4613,2021-07-29_23h06.35.196,Simcolourproject_2stim_asymm_v5,2020.2.10,MacIntel,60,61025ae37ef11b136ea224fe,,,,,,,,,773,83.38909912,53.81561279,1,0,0,response1disk,,6,-2.093566895,0.994293213,1,0,0,rectangle,-2.093566895,0.994293213,1,0,0,-2.093566895,0.994293213,1,0,0,0,79,79,46,1,,,,,,,,
,,,,,,,,,,,,,FF,,,,,,,,0.734,,,,,,,,,,,,,,,,,,,,,,60fce1683eddb828380796e3,61036caadaaef64fc38d4613,2021-07-29_23h06.35.196,Simcolourproject_2stim_asymm_v5,2020.2.10,MacIntel,60,61025ae37ef11b136ea224fe,,,,,,,,,2747,40.03295898,72.41973877,1,0,0,response1disk,,7,5.13494873,4.120178223,1,0,0,rectangle,5.13494873,4.120178223,1,0,0,5.13494873,4.120178223,1,0,0,0,80,80,151,1,,,,,,,,
,,,,,,,,,,,,,FF,,,,,,,,0.6661,,,,,,,,,,,,,,,,,,,,,,60fce1683eddb828380796e3,61036caadaaef64fc38d4613,2021-07-29_23h06.35.196,Simcolourproject_2stim_asymm_v5,2020.2.10,MacIntel,60,61025ae37ef11b136ea224fe,,,,,,,,,1994,37.55584717,74.76275635,1,0,0,response1disk,,7,2.821960449,4.338165283,1,0,0,rectangle,2.821960449,4.338165283,1,0,0,2.821960449,4.338165283,1,0,0,0,81,81,83,1,,,,,,,,
,,,,,,,,,,,,,FF,,,,,,,,1.4999,,,,,,,,,,,,,,,,,,,,,,60fce1683eddb828380796e3,61036caadaaef64fc38d4613,2021-07-29_23h06.35.196,Simcolourproject_2stim_asymm_v5,2020.2.10,MacIntel,60,61025ae37ef11b136ea224fe,,,,,,,,,1750,44.32592773,-82.60699463,1,0,0,response3disk,,4,3.647766113,12.43280029,1,0,0,rectangle,3.647766113,12.43280029,1,0,0,3.647766113,12.43280029,1,0,0,0,82,82,4,1,,,,,,,,
,,,,,,,,,,,,,FF,,,,,,,,1.2675,,,,,,,,,,,,,,,,,,,,,,60fce1683eddb828380796e3,61036caadaaef64fc38d4613,2021-07-29_23h06.35.196,Simcolourproject_2stim_asymm_v5,2020.2.10,MacIntel,60,61025ae37ef11b136ea224fe,,,,,,,,,2911,18.99432373,72.83151245,1,0,0,response1disk,,7,1.68951416,-7.296020508,1,0,0,rectangle,1.68951416,-7.296020508,1,0,0,1.68951416,-7.296020508,1,0,0,0,83,83,47,1,,,,,,,,
,,,,,,,,,,,,,FF,,,,,,,,0.7167,,,,,,,,,,,,,,,,,,,,,,60fce1683eddb828380796e3,61036caadaaef64fc38d4613,2021-07-29_23h06.35.196,Simcolourproject_2stim_asymm_v5,2020.2.10,MacIntel,60,61025ae37ef11b136ea224fe,,,,,,,,,1488,37.51525879,97.40637207,1,0,0,response1disk,,7,-9.993286133,-5.639251709,1,0,0,rectangle,-84.0078125,53.98168945,1,0,0,-5.345336914,4.27911377,1,0,0,0,84,84,45,1,,response7disk_3,TRUE,1,1,"[196,290,130,132,12,43,85,276,51,291,15,70,232,292,284,305,14,47,150,99]",1.4507,rectangle
,,,,,,,,,,,,,FF,,,,,,,,2.1676,,,,,,,,,,,,,,,,,,,,,,60fce1683eddb828380796e3,61036caadaaef64fc38d4613,2021-07-29_23h06.35.196,Simcolourproject_2stim_asymm_v5,2020.2.10,MacIntel,60,61025ae37ef11b136ea224fe,,,,,,,,,3442,24.08233643,-69.5435791,1,0,0,response3disk,,4,1.98059082,4.237457275,1,0,0,rectangle,1.98059082,4.237457275,1,0,0,1.98059082,4.237457275,1,0,0,0,85,85,119,1,,,,,,,,
,,,,,,,,,,,,,FF,,,,,,,,1.6496,,,,,,,,,,,,,,,,,,,,,,60fce1683eddb828380796e3,61036caadaaef64fc38d4613,2021-07-29_23h06.35.196,Simcolourproject_2stim_asymm_v5,2020.2.10,MacIntel,60,61025ae37ef11b136ea224fe,,,,,,,,,1265,-44.07971191,-72.2199707,1,0,0,response5disk,,3,6.608642578,8.10546875,1,0,0,rectangle,6.608642578,8.10546875,1,0,0,6.608642578,8.10546875,1,0,0,0,86,86,105,1,,,,,,,,
,,,,,,,,,,,,,FF,,,,,,,,0.95,,,,,,,,,,,,,,,,,,,,,,60fce1683eddb828380796e3,61036caadaaef64fc38d4613,2021-07-29_23h06.35.196,Simcolourproject_2stim_asymm_v5,2020.2.10,MacIntel,60,61025ae37ef11b136ea224fe,,,,,,,,,1895,-49.45629883,-91.90582275,1,0,0,response5disk,,3,-9.391967773,2.126190186,1,0,0,rectangle,-9.391967773,2.126190186,1,0,0,-9.391967773,2.126190186,1,0,0,0,87,87,121,1,,,,,,,,
,,,,,,,,,,,,,FF,,,,,,,,0.7167,,,,,,,,,,,,,,,,,,,,,,60fce1683eddb828380796e3,61036caadaaef64fc38d4613,2021-07-29_23h06.35.196,Simcolourproject_2stim_asymm_v5,2020.2.10,MacIntel,60,61025ae37ef11b136ea224fe,,,,,,,,,797,21.32128906,60.74227905,1,0,0,response1disk,,7,-5.255126953,4.6902771,1,0,0,rectangle,-5.255126953,4.6902771,1,0,0,-5.255126953,4.6902771,1,0,0,0,88,88,11,1,,,,,,,,
,,,,,,,,,,,,,FF,,,,,,,,1.5015,,,,,,,,,,,,,,,,,,,,,,60fce1683eddb828380796e3,61036caadaaef64fc38d4613,2021-07-29_23h06.35.196,Simcolourproject_2stim_asymm_v5,2020.2.10,MacIntel,60,61025ae37ef11b136ea224fe,,,,,,,,,3608,85.24407959,-46.90151978,1,0,0,response3disk,,5,-1.81842041,2.619110107,1,0,0,rectangle,-1.81842041,2.619110107,1,0,0,-1.81842041,2.619110107,1,0,0,0,89,89,93,1,,,,,,,,
,,,,,,,,,,,,,FF,,,,,,,,0.8505,,,,,,,,,,,,,,,,,,,,,,60fce1683eddb828380796e3,61036caadaaef64fc38d4613,2021-07-29_23h06.35.196,Simcolourproject_2stim_asymm_v5,2020.2.10,MacIntel,60,61025ae37ef11b136ea224fe,,,,,,,,,1112,19.54870605,65.60317993,1,0,0,response1disk,,7,-4.558227539,6.576202393,1,0,0,rectangle,-4.558227539,6.576202393,1,0,0,-4.558227539,6.576202393,1,0,0,0,90,90,78,1,,,,,,,,
,,,,,,,,,,,,,FF,,,,,,,,2.3503,,,,,,,,,,,,,,,,,,,,,,60fce1683eddb828380796e3,61036caadaaef64fc38d4613,2021-07-29_23h06.35.196,Simcolourproject_2stim_asymm_v5,2020.2.10,MacIntel,60,61025ae37ef11b136ea224fe,,,,,,,,,2116,48.41912842,97.30456543,1,0,0,response1disk,,7,5.452087402,2.024902344,1,0,0,rectangle,5.452087402,2.024902344,1,0,0,5.452087402,2.024902344,1,0,0,0,91,91,42,1,,,,,,,,
,,,,,,,,,,,,,FF,,,,,,,,1.3843,,,,,,,,,,,,,,,,,,,,,,60fce1683eddb828380796e3,61036caadaaef64fc38d4613,2021-07-29_23h06.35.196,Simcolourproject_2stim_asymm_v5,2020.2.10,MacIntel,60,61025ae37ef11b136ea224fe,,,,,,,,,1923,81.52947998,46.95611572,1,0,0,response1disk,,6,7.122375488,4.505157471,1,0,0,rectangle,7.122375488,4.505157471,1,0,0,7.122375488,4.505157471,1,0,0,0,92,92,88,1,,,,,,,,
,,,,,,,,,,,,,FF,,,,,,,,0.9661,,,,,,,,,,,,,,,,,,,,,,60fce1683eddb828380796e3,61036caadaaef64fc38d4613,2021-07-29_23h06.35.196,Simcolourproject_2stim_asymm_v5,2020.2.10,MacIntel,60,61025ae37ef11b136ea224fe,,,,,,,,,57,54.08898926,76.0821228,1,0,0,response1disk,,7,10.1895752,-5.154388428,1,0,0,rectangle,10.1895752,-5.154388428,1,0,0,10.1895752,-5.154388428,1,0,0,0,93,93,60,1,,,,,,,,
,,,,,,,,,,,,,FF,,,,,,,,0.7491,,,,,,,,,,,,,,,,,,,,,,60fce1683eddb828380796e3,61036caadaaef64fc38d4613,2021-07-29_23h06.35.196,Simcolourproject_2stim_asymm_v5,2020.2.10,MacIntel,60,61025ae37ef11b136ea224fe,,,,,,,,,1095,38.75073242,62.89413452,1,0,0,response1disk,,7,6.385986328,-2.723144531,1,0,0,rectangle,6.385986328,-2.723144531,1,0,0,6.385986328,-2.723144531,1,0,0,0,94,94,145,1,,,,,,,,
,,,,,,,,,,,,,FF,,,,,,,,0.9658,,,,,,,,,,,,,,,,,,,,,,60fce1683eddb828380796e3,61036caadaaef64fc38d4613,2021-07-29_23h06.35.196,Simcolourproject_2stim_asymm_v5,2020.2.10,MacIntel,60,61025ae37ef11b136ea224fe,,,,,,,,,4029,84.92034912,35.12936401,1,0,0,response1disk,,6,6.467956543,4.260498047,1,0,0,rectangle,6.467956543,4.260498047,1,0,0,6.467956543,4.260498047,1,0,0,0,95,95,64,1,,,,,,,,
,,,,,,,,,,,,,FF,,,,,,,,0.8325,,,,,,,,,,,,,,,,,,,,,,60fce1683eddb828380796e3,61036caadaaef64fc38d4613,2021-07-29_23h06.35.196,Simcolourproject_2stim_asymm_v5,2020.2.10,MacIntel,60,61025ae37ef11b136ea224fe,,,,,,,,,3893,26.54608154,68.15829468,1,0,0,response1disk,,7,-0.532287598,5.492797852,1,0,0,rectangle,-0.532287598,5.492797852,1,0,0,-0.532287598,5.492797852,1,0,0,0,96,96,132,1,,,,,,,,
,,,,,,,,,,,,,FF,,,,,,,,0.7328,,,,,,,,,,,,,,,,,,,,,,60fce1683eddb828380796e3,61036caadaaef64fc38d4613,2021-07-29_23h06.35.196,Simcolourproject_2stim_asymm_v5,2020.2.10,MacIntel,60,61025ae37ef11b136ea224fe,,,,,,,,,3185,31.92315674,73.32046509,1,0,0,response1disk,,7,-3.188964844,-1.807189941,1,0,0,rectangle,-3.188964844,-1.807189941,1,0,0,-3.188964844,-1.807189941,1,0,0,0,97,97,131,1,,,,,,,,
,,,,,,,,,,,,,FF,,,,,,,,1.5511,,,,,,,,,,,,,,,,,,,,,,60fce1683eddb828380796e3,61036caadaaef64fc38d4613,2021-07-29_23h06.35.196,Simcolourproject_2stim_asymm_v5,2020.2.10,MacIntel,60,61025ae37ef11b136ea224fe,,,,,,,,,2616,48.16094971,68.72412109,1,0,0,response1disk,,7,2.220214844,0.81817627,1,0,0,rectangle,-94.33294678,39.83969116,1,0,0,-1.649841309,4.146392822,1,0,0,0,98,98,156,1,,response7disk_3,TRUE,1,1,"[196,290,130,132,12,43,85,276,51,291,15,70,232,292,284,305,14,47,150,99]",1.5831,rectangle
,,,,,,,,,,,,,FF,,,,,,,,2.4189,,,,,,,,,,,,,,,,,,,,,,60fce1683eddb828380796e3,61036caadaaef64fc38d4613,2021-07-29_23h06.35.196,Simcolourproject_2stim_asymm_v5,2020.2.10,MacIntel,60,61025ae37ef11b136ea224fe,,,,,,,,,1289,47.06256104,-84.15179443,1,0,0,response3disk,,4,1.635864258,8.431335449,1,0,0,rectangle,1.635864258,8.431335449,1,0,0,1.635864258,8.431335449,1,0,0,0,99,99,123,1,,,,,,,,
,,,,,,,,,,,,,FF,,,,,,,,0.8663,,,,,,,,,,,,,,,,,,,,,,60fce1683eddb828380796e3,61036caadaaef64fc38d4613,2021-07-29_23h06.35.196,Simcolourproject_2stim_asymm_v5,2020.2.10,MacIntel,60,61025ae37ef11b136ea224fe,,,,,,,,,3092,-51.86474609,-89.94598389,1,0,0,response5disk,,3,0.886413574,3.175842285,1,0,0,rectangle,0.886413574,3.175842285,1,0,0,0.886413574,3.175842285,1,0,0,0,100,100,142,1,,,,,,,,
,,,,,,,,,,,,,FF,,,,,,,,2.9006,,,,,,,,,,,,,,,,,,,,,,60fce1683eddb828380796e3,61036caadaaef64fc38d4613,2021-07-29_23h06.35.196,Simcolourproject_2stim_asymm_v5,2020.2.10,MacIntel,60,61025ae37ef11b136ea224fe,,,,,,,,,2074,41.88421631,63.82611084,1,0,0,response1disk,,7,-1.753723145,0.23614502,1,0,0,rectangle,-1.753723145,0.23614502,1,0,0,-1.753723145,0.23614502,1,0,0,0,101,101,150,1,,,,,,,,
,,,,,,,,,,,,,FF,,,,,,,,1.0664,,,,,,,,,,,,,,,,,,,,,,60fce1683eddb828380796e3,61036caadaaef64fc38d4613,2021-07-29_23h06.35.196,Simcolourproject_2stim_asymm_v5,2020.2.10,MacIntel,60,61025ae37ef11b136ea224fe,,,,,,,,,3812,-46.84777832,-67.88037109,1,0,0,response5disk,,3,-2.082885742,-4.558166504,1,0,0,rectangle,-2.082885742,-4.558166504,1,0,0,-2.082885742,-4.558166504,1,0,0,0,102,102,81,1,,,,,,,,
,,,,,,,,,,,,,FF,,,,,,,,0.7502,,,,,,,,,,,,,,,,,,,,,,60fce1683eddb828380796e3,61036caadaaef64fc38d4613,2021-07-29_23h06.35.196,Simcolourproject_2stim_asymm_v5,2020.2.10,MacIntel,60,61025ae37ef11b136ea224fe,,,,,,,,,4236,-77.88775635,-46.91546631,1,0,0,response5disk,,2,-5.02166748,-0.160522461,1,0,0,rectangle,-5.02166748,-0.160522461,1,0,0,-5.02166748,-0.160522461,1,0,0,0,103,103,29,1,,,,,,,,
,,,,,,,,,,,,,FF,,,,,,,,1.15,,,,,,,,,,,,,,,,,,,,,,60fce1683eddb828380796e3,61036caadaaef64fc38d4613,2021-07-29_23h06.35.196,Simcolourproject_2stim_asymm_v5,2020.2.10,MacIntel,60,61025ae37ef11b136ea224fe,,,,,,,,,3519,-59.08868408,-76.33227539,1,0,0,response5disk,,3,-5.121887207,-3.28894043,1,0,0,rectangle,-5.121887207,-3.28894043,1,0,0,-5.121887207,-3.28894043,1,0,0,0,104,104,87,1,,,,,,,,
,,,,,,,,,,,,,FF,,,,,,,,1.1661,,,,,,,,,,,,,,,,,,,,,,60fce1683eddb828380796e3,61036caadaaef64fc38d4613,2021-07-29_23h06.35.196,Simcolourproject_2stim_asymm_v5,2020.2.10,MacIntel,60,61025ae37ef11b136ea224fe,,,,,,,,,4142,42.86828613,-80.97247314,1,0,0,response3disk,,4,-2.591186523,-0.109832764,1,0,0,rectangle,-2.591186523,-0.109832764,1,0,0,-2.591186523,-0.109832764,1,0,0,0,105,105,141,1,,,,,,,,
,,,,,,,,,,,,,FF,,,,,,,,1.7837,,,,,,,,,,,,,,,,,,,,,,60fce1683eddb828380796e3,61036caadaaef64fc38d4613,2021-07-29_23h06.35.196,Simcolourproject_2stim_asymm_v5,2020.2.10,MacIntel,60,61025ae37ef11b136ea224fe,,,,,,,,,3338,65.48101807,-38.12188721,1,0,0,response3disk,,5,-4.088195801,-11.33078003,1,0,0,rectangle,-4.088195801,-11.33078003,1,0,0,-4.088195801,-11.33078003,1,0,0,0,106,106,22,1,,,,,,,,
,,,,,,,,,,,,,FF,,,,,,,,1.4665,,,,,,,,,,,,,,,,,,,,,,60fce1683eddb828380796e3,61036caadaaef64fc38d4613,2021-07-29_23h06.35.196,Simcolourproject_2stim_asymm_v5,2020.2.10,MacIntel,60,61025ae37ef11b136ea224fe,,,,,,,,,2249,74.78051758,-26.63088989,1,0,0,response3disk,,5,8.465942383,-4.6456604,1,0,0,rectangle,8.465942383,-4.6456604,1,0,0,8.465942383,-4.6456604,1,0,0,0,107,107,97,1,,,,,,,,
,,,,,,,,,,,,,FF,,,,,,,,0.9502,,,,,,,,,,,,,,,,,,,,,,60fce1683eddb828380796e3,61036caadaaef64fc38d4613,2021-07-29_23h06.35.196,Simcolourproject_2stim_asymm_v5,2020.2.10,MacIntel,60,61025ae37ef11b136ea224fe,,,,,,,,,506,56.21832275,87.47653198,1,0,0,response1disk,,7,4.21685791,-0.639770508,1,0,0,rectangle,4.21685791,-0.639770508,1,0,0,4.21685791,-0.639770508,1,0,0,0,108,108,98,1,,,,,,,,
,,,,,,,,,,,,,FF,,,,,,,,1.0171,,,,,,,,,,,,,,,,,,,,,,60fce1683eddb828380796e3,61036caadaaef64fc38d4613,2021-07-29_23h06.35.196,Simcolourproject_2stim_asymm_v5,2020.2.10,MacIntel,60,61025ae37ef11b136ea224fe,,,,,,,,,4315,-43.78955078,74.40084839,1,0,0,response7disk,,0,3.181518555,1.392150879,1,0,0,rectangle,3.181518555,1.392150879,1,0,0,3.181518555,1.392150879,1,0,0,0,109,109,134,1,,,,,,,,
,,,,,,,,,,,,,FF,,,,,,,,2.2498,,,,,,,,,,,,,,,,,,,,,,60fce1683eddb828380796e3,61036caadaaef64fc38d4613,2021-07-29_23h06.35.196,Simcolourproject_2stim_asymm_v5,2020.2.10,MacIntel,60,61025ae37ef11b136ea224fe,,,,,,,,,1064,36.60888672,-76.59100342,1,0,0,response3disk,,4,3.908081055,9.479736328,1,0,0,rectangle,3.908081055,9.479736328,1,0,0,3.908081055,9.479736328,1,0,0,0,110,110,109,1,,,,,,,,
,,,,,,,,,,,,,FF,,,,,,,,5.2667,,,,,,,,,,,,,,,,,,,,,,60fce1683eddb828380796e3,61036caadaaef64fc38d4613,2021-07-29_23h06.35.196,Simcolourproject_2stim_asymm_v5,2020.2.10,MacIntel,60,61025ae37ef11b136ea224fe,,,,,,,,,1907,65.23730469,-46.07531738,1,0,0,response3disk,,5,10.11633301,-4.735473633,1,0,0,rectangle,10.11633301,-4.735473633,1,0,0,10.11633301,-4.735473633,1,0,0,0,111,111,34,1,,,,,,,,
,,,,,,,,,,,,,FF,,,,,,,,2.366,,,,,,,,,,,,,,,,,,,,,,60fce1683eddb828380796e3,61036caadaaef64fc38d4613,2021-07-29_23h06.35.196,Simcolourproject_2stim_asymm_v5,2020.2.10,MacIntel,60,61025ae37ef11b136ea224fe,,,,,,,,,2636,39.05810547,96.23834229,1,0,0,response1disk,,7,-3.503479004,-2.644226074,1,0,0,rectangle,-3.503479004,-2.644226074,1,0,0,-3.503479004,-2.644226074,1,0,0,0,112,112,125,1,,,,,,,,
,,,,,,,,,,,,,FF,,,,,,,,1.0665,,,,,,,,,,,,,,,,,,,,,,60fce1683eddb828380796e3,61036caadaaef64fc38d4613,2021-07-29_23h06.35.196,Simcolourproject_2stim_asymm_v5,2020.2.10,MacIntel,60,61025ae37ef11b136ea224fe,,,,,,,,,1532,29.52819824,-63.315979,1,0,0,response3disk,,4,-8.100830078,-1.879943848,1,0,0,rectangle,-8.100830078,-1.879943848,1,0,0,-8.100830078,-1.879943848,1,0,0,0,113,113,101,1,,,,,,,,
,,,,,,,,,,,,,FF,,,,,,,,0.8492,,,,,,,,,,,,,,,,,,,,,,60fce1683eddb828380796e3,61036caadaaef64fc38d4613,2021-07-29_23h06.35.196,Simcolourproject_2stim_asymm_v5,2020.2.10,MacIntel,60,61025ae37ef11b136ea224fe,,,,,,,,,4229,43.26397705,72.87542725,1,0,0,response1disk,,7,2.663513184,0.98928833,1,0,0,rectangle,2.663513184,0.98928833,1,0,0,2.663513184,0.98928833,1,0,0,0,114,114,43,1,,,,,,,,
,,,,,,,,,,,,,FF,,,,,,,,1.0329,,,,,,,,,,,,,,,,,,,,,,60fce1683eddb828380796e3,61036caadaaef64fc38d4613,2021-07-29_23h06.35.196,Simcolourproject_2stim_asymm_v5,2020.2.10,MacIntel,60,61025ae37ef11b136ea224fe,,,,,,,,,1142,28.38244629,-75.71905518,1,0,0,response3disk,,4,-9.015808105,8.882049561,1,0,0,rectangle,-9.015808105,8.882049561,1,0,0,-9.015808105,8.882049561,1,0,0,0,115,115,91,1,,,,,,,,
,,,,,,,,,,,,,FF,,,,,,,,0.7673,,,,,,,,,,,,,,,,,,,,,,60fce1683eddb828380796e3,61036caadaaef64fc38d4613,2021-07-29_23h06.35.196,Simcolourproject_2stim_asymm_v5,2020.2.10,MacIntel,60,61025ae37ef11b136ea224fe,,,,,,,,,2278,27.56933594,64.43228149,1,0,0,response1disk,,7,3.644714355,-7.992614746,1,0,0,rectangle,3.644714355,-7.992614746,1,0,0,3.644714355,-7.992614746,1,0,0,0,116,116,100,1,,,,,,,,
,,,,,,,,,,,,,FF,,,,,,,,0.9005,,,,,,,,,,,,,,,,,,,,,,60fce1683eddb828380796e3,61036caadaaef64fc38d4613,2021-07-29_23h06.35.196,Simcolourproject_2stim_asymm_v5,2020.2.10,MacIntel,60,61025ae37ef11b136ea224fe,,,,,,,,,4134,33.44525146,64.62557983,1,0,0,response1disk,,7,12.24902344,-3.056976318,1,0,0,rectangle,12.24902344,-3.056976318,1,0,0,12.24902344,-3.056976318,1,0,0,0,117,117,102,1,,,,,,,,
,,,,,,,,,,,,,FF,,,,,,,,1.0326,,,,,,,,,,,,,,,,,,,,,,60fce1683eddb828380796e3,61036caadaaef64fc38d4613,2021-07-29_23h06.35.196,Simcolourproject_2stim_asymm_v5,2020.2.10,MacIntel,60,61025ae37ef11b136ea224fe,,,,,,,,,3802,53.52270508,26.37481689,1,0,0,response1disk,,6,11.57116699,5.186889648,1,0,0,rectangle,11.57116699,5.186889648,1,0,0,11.57116699,5.186889648,1,0,0,0,118,118,129,1,,,,,,,,
,,,,,,,,,,,,,FF,,,,,,,,0.6664,,,,,,,,,,,,,,,,,,,,,,60fce1683eddb828380796e3,61036caadaaef64fc38d4613,2021-07-29_23h06.35.196,Simcolourproject_2stim_asymm_v5,2020.2.10,MacIntel,60,61025ae37ef11b136ea224fe,,,,,,,,,3609,38.79406738,76.15066528,1,0,0,response1disk,,7,13.37750244,1.324493408,1,0,0,rectangle,13.37750244,1.324493408,1,0,0,13.37750244,1.324493408,1,0,0,0,119,119,66,1,,,,,,,,
,,,,,,,,,,,,,FF,,,,,,,,1.883,,,,,,,,,,,,,,,,,,,,,,60fce1683eddb828380796e3,61036caadaaef64fc38d4613,2021-07-29_23h06.35.196,Simcolourproject_2stim_asymm_v5,2020.2.10,MacIntel,60,61025ae37ef11b136ea224fe,,,,,,,,,1433,36.64990234,101.0794067,1,0,0,response1disk,,7,19.64996338,12.6680603,1,0,0,rectangle,19.64996338,12.6680603,1,0,0,19.64996338,12.6680603,1,0,0,0,120,120,56,1,,,,,,,,
,,,,,,,,,,,,,FF,,,,,,,,1.7829,,,,,,,,,,,,,,,,,,,,,,60fce1683eddb828380796e3,61036caadaaef64fc38d4613,2021-07-29_23h06.35.196,Simcolourproject_2stim_asymm_v5,2020.2.10,MacIntel,60,61025ae37ef11b136ea224fe,,,,,,,,,3149,-20.30023193,-83.06695557,1,0,0,response5disk,,3,3.10168457,6.1300354,1,0,0,rectangle,3.10168457,6.1300354,1,0,0,3.10168457,6.1300354,1,0,0,0,121,121,57,1,,,,,,,,
,,,,,,,,,,,,,FF,,,,,,,,0.7499,,,,,,,,,,,,,,,,,,,,,,60fce1683eddb828380796e3,61036caadaaef64fc38d4613,2021-07-29_23h06.35.196,Simcolourproject_2stim_asymm_v5,2020.2.10,MacIntel,60,61025ae37ef11b136ea224fe,,,,,,,,,2802,48.63989258,83.06719971,1,0,0,response1disk,,7,5.569580078,-8.049468994,1,0,0,rectangle,5.569580078,-8.049468994,1,0,0,5.569580078,-8.049468994,1,0,0,0,122,122,96,1,,,,,,,,
,,,,,,,,,,,,,FF,,,,,,,,0.8009,,,,,,,,,,,,,,,,,,,,,,60fce1683eddb828380796e3,61036caadaaef64fc38d4613,2021-07-29_23h06.35.196,Simcolourproject_2stim_asymm_v5,2020.2.10,MacIntel,60,61025ae37ef11b136ea224fe,,,,,,,,,3351,38.82922363,88.93188477,1,0,0,response1disk,,7,12.67614746,10.08493042,1,0,0,rectangle,12.67614746,10.08493042,1,0,0,12.67614746,10.08493042,1,0,0,0,123,123,144,1,,,,,,,,
,,,,,,,,,,,,,FF,,,,,,,,1.2843,,,,,,,,,,,,,,,,,,,,,,60fce1683eddb828380796e3,61036caadaaef64fc38d4613,2021-07-29_23h06.35.196,Simcolourproject_2stim_asymm_v5,2020.2.10,MacIntel,60,61025ae37ef11b136ea224fe,,,,,,,,,2057,24.97442627,85.72253418,1,0,0,response1disk,,7,-0.479248047,5.167266846,1,0,0,rectangle,-0.479248047,5.167266846,1,0,0,-0.479248047,5.167266846,1,0,0,0,124,124,137,1,,,,,,,,
,,,,,,,,,,,,,FF,,,,,,,,0.9323,,,,,,,,,,,,,,,,,,,,,,60fce1683eddb828380796e3,61036caadaaef64fc38d4613,2021-07-29_23h06.35.196,Simcolourproject_2stim_asymm_v5,2020.2.10,MacIntel,60,61025ae37ef11b136ea224fe,,,,,,,,,1629,74.11474609,123.1199951,1,0,0,response1disk,,7,5.121337891,-2.125610352,1,0,0,rectangle,5.121337891,-2.125610352,1,0,0,5.121337891,-2.125610352,1,0,0,0,125,125,135,1,,,,,,,,
,,,,,,,,,,,,,FF,,,,,,,,0.8664,,,,,,,,,,,,,,,,,,,,,,60fce1683eddb828380796e3,61036caadaaef64fc38d4613,2021-07-29_23h06.35.196,Simcolourproject_2stim_asymm_v5,2020.2.10,MacIntel,60,61025ae37ef11b136ea224fe,,,,,,,,,2653,82.36889648,32.2359314,1,0,0,response1disk,,6,17.07751465,1.132263184,1,0,0,rectangle,17.07751465,1.132263184,1,0,0,17.07751465,1.132263184,1,0,0,0,126,126,13,1,,,,,,,,
,,,,,,,,,,,,,FF,,,,,,,,0.8173,,,,,,,,,,,,,,,,,,,,,,60fce1683eddb828380796e3,61036caadaaef64fc38d4613,2021-07-29_23h06.35.196,Simcolourproject_2stim_asymm_v5,2020.2.10,MacIntel,60,61025ae37ef11b136ea224fe,,,,,,,,,933,24.6229248,62.91903687,1,0,0,response1disk,,7,-5.687866211,2.406524658,1,0,0,rectangle,-5.687866211,2.406524658,1,0,0,-5.687866211,2.406524658,1,0,0,0,127,127,72,1,,,,,,,,
,,,,,,,,,,,,,FF,,,,,,,,0.7826,,,,,,,,,,,,,,,,,,,,,,60fce1683eddb828380796e3,61036caadaaef64fc38d4613,2021-07-29_23h06.35.196,Simcolourproject_2stim_asymm_v5,2020.2.10,MacIntel,60,61025ae37ef11b136ea224fe,,,,,,,,,3916,37.68859863,82.57339478,1,0,0,response1disk,,7,3.02734375,11.24972534,1,0,0,rectangle,3.02734375,11.24972534,1,0,0,3.02734375,11.24972534,1,0,0,0,128,128,149,1,,,,,,,,
,,,,,,,,,,,,,FF,,,,,,,,1.133,,,,,,,,,,,,,,,,,,,,,,60fce1683eddb828380796e3,61036caadaaef64fc38d4613,2021-07-29_23h06.35.196,Simcolourproject_2stim_asymm_v5,2020.2.10,MacIntel,60,61025ae37ef11b136ea224fe,,,,,,,,,555,93.51599121,42.15197754,1,0,0,response1disk,,6,-10.76623535,5.318115234,1,0,0,rectangle,89.55108643,45.99908447,1,0,0,-2.616455078,1.809173584,1,0,0,0,129,129,9,1,,response1disk_3,TRUE,6,6,"[196,290,130,132,12,43,85,276,51,291,15,70,232,292,284,305,14,47,150,99]",1.6996,rectangle
,,,,,,,,,,,,,FF,,,,,,,,1.7643,,,,,,,,,,,,,,,,,,,,,,60fce1683eddb828380796e3,61036caadaaef64fc38d4613,2021-07-29_23h06.35.196,Simcolourproject_2stim_asymm_v5,2020.2.10,MacIntel,60,61025ae37ef11b136ea224fe,,,,,,,,,1899,31.43023682,-94.24713135,1,0,0,response3disk,,4,6.613525391,0.385040283,1,0,0,rectangle,6.613525391,0.385040283,1,0,0,6.613525391,0.385040283,1,0,0,0,130,130,6,1,,,,,,,,
,,,,,,,,,,,,,FF,,,,,,,,1.8014,,,,,,,,,,,,,,,,,,,,,,60fce1683eddb828380796e3,61036caadaaef64fc38d4613,2021-07-29_23h06.35.196,Simcolourproject_2stim_asymm_v5,2020.2.10,MacIntel,60,61025ae37ef11b136ea224fe,,,,,,,,,3471,-28.65686035,-89.81402588,1,0,0,response5disk,,3,-5.032836914,-2.710296631,1,0,0,rectangle,-92.84680176,35.17828369,1,0,0,0.047485352,2.992706299,1,0,0,0,131,131,31,1,,response7disk_3,TRUE,1,1,"[196,290,130,132,12,43,85,276,51,291,15,70,232,292,284,305,14,47,150,99]",1.4316,rectangle
,,,,,,,,,,,,,FF,,,,,,,,1.2819,,,,,,,,,,,,,,,,,,,,,,60fce1683eddb828380796e3,61036caadaaef64fc38d4613,2021-07-29_23h06.35.196,Simcolourproject_2stim_asymm_v5,2020.2.10,MacIntel,60,61025ae37ef11b136ea224fe,,,,,,,,,1821,-36.87597656,-88.53601074,1,0,0,response5disk,,3,-0.690979004,-2.789276123,1,0,0,rectangle,-0.690979004,-2.789276123,1,0,0,-0.690979004,-2.789276123,1,0,0,0,132,132,50,1,,,,,,,,
,,,,,,,,,,,,,FF,,,,,,,,1.6831,,,,,,,,,,,,,,,,,,,,,,60fce1683eddb828380796e3,61036caadaaef64fc38d4613,2021-07-29_23h06.35.196,Simcolourproject_2stim_asymm_v5,2020.2.10,MacIntel,60,61025ae37ef11b136ea224fe,,,,,,,,,1777,76.18145752,44.11895752,1,0,0,response1disk,,6,15.5067749,9.609375,1,0,0,rectangle,15.5067749,9.609375,1,0,0,15.5067749,9.609375,1,0,0,0,133,133,24,1,,,,,,,,
,,,,,,,,,,,,,FF,,,,,,,,0.9851,,,,,,,,,,,,,,,,,,,,,,60fce1683eddb828380796e3,61036caadaaef64fc38d4613,2021-07-29_23h06.35.196,Simcolourproject_2stim_asymm_v5,2020.2.10,MacIntel,60,61025ae37ef11b136ea224fe,,,,,,,,,270,89.12097168,42.55062866,1,0,0,response1disk,,6,5.722595215,7.211914063,1,0,0,rectangle,5.722595215,7.211914063,1,0,0,5.722595215,7.211914063,1,0,0,0,134,134,104,1,,,,,,,,
,,,,,,,,,,,,,FF,,,,,,,,0.7164,,,,,,,,,,,,,,,,,,,,,,60fce1683eddb828380796e3,61036caadaaef64fc38d4613,2021-07-29_23h06.35.196,Simcolourproject_2stim_asymm_v5,2020.2.10,MacIntel,60,61025ae37ef11b136ea224fe,,,,,,,,,133,32.65917969,72.23980713,1,0,0,response1disk,,7,-0.032226563,0.589569092,1,0,0,rectangle,-0.032226563,0.589569092,1,0,0,-0.032226563,0.589569092,1,0,0,0,135,135,133,1,,,,,,,,
,,,,,,,,,,,,,FF,,,,,,,,2.0007,,,,,,,,,,,,,,,,,,,,,,60fce1683eddb828380796e3,61036caadaaef64fc38d4613,2021-07-29_23h06.35.196,Simcolourproject_2stim_asymm_v5,2020.2.10,MacIntel,60,61025ae37ef11b136ea224fe,,,,,,,,,2252,49.83422852,74.21865845,1,0,0,response1disk,,7,-2.90826416,-1.597412109,1,0,0,rectangle,-2.90826416,-1.597412109,1,0,0,-2.90826416,-1.597412109,1,0,0,0,136,136,69,1,,,,,,,,
,,,,,,,,,,,,,FF,,,,,,,,0.9671,,,,,,,,,,,,,,,,,,,,,,60fce1683eddb828380796e3,61036caadaaef64fc38d4613,2021-07-29_23h06.35.196,Simcolourproject_2stim_asymm_v5,2020.2.10,MacIntel,60,61025ae37ef11b136ea224fe,,,,,,,,,2070,43.49780273,70.14263916,1,0,0,response1disk,,7,1.348999023,4.351623535,1,0,0,rectangle,1.348999023,4.351623535,1,0,0,1.348999023,4.351623535,1,0,0,0,137,137,148,1,,,,,,,,
,,,,,,,,,,,,,FF,,,,,,,,0.769,,,,,,,,,,,,,,,,,,,,,,60fce1683eddb828380796e3,61036caadaaef64fc38d4613,2021-07-29_23h06.35.196,Simcolourproject_2stim_asymm_v5,2020.2.10,MacIntel,60,61025ae37ef11b136ea224fe,,,,,,,,,3885,44.52270508,85.53494263,1,0,0,response1disk,,7,7.241210938,-3.187561035,1,0,0,rectangle,7.241210938,-3.187561035,1,0,0,7.241210938,-3.187561035,1,0,0,0,138,138,10,1,,,,,,,,
,,,,,,,,,,,,,FF,,,,,,,,2.0496,,,,,,,,,,,,,,,,,,,,,,60fce1683eddb828380796e3,61036caadaaef64fc38d4613,2021-07-29_23h06.35.196,Simcolourproject_2stim_asymm_v5,2020.2.10,MacIntel,60,61025ae37ef11b136ea224fe,,,,,,,,,2658,111.8294678,52.14569092,1,0,0,response1disk,,6,-2.16015625,5.769226074,1,0,0,rectangle,-2.16015625,5.769226074,1,0,0,-2.16015625,5.769226074,1,0,0,0,139,139,44,1,,,,,,,,
,,,,,,,,,,,,,FF,,,,,,,,0.8337,,,,,,,,,,,,,,,,,,,,,,60fce1683eddb828380796e3,61036caadaaef64fc38d4613,2021-07-29_23h06.35.196,Simcolourproject_2stim_asymm_v5,2020.2.10,MacIntel,60,61025ae37ef11b136ea224fe,,,,,,,,,1437,53.44146729,88.37606812,1,0,0,response1disk,,7,-2.624694824,-3.65133667,1,0,0,rectangle,-2.624694824,-3.65133667,1,0,0,-2.624694824,-3.65133667,1,0,0,0,140,140,140,1,,,,,,,,
,,,,,,,,,,,,,FF,,,,,,,,1.0335,,,,,,,,,,,,,,,,,,,,,,60fce1683eddb828380796e3,61036caadaaef64fc38d4613,2021-07-29_23h06.35.196,Simcolourproject_2stim_asymm_v5,2020.2.10,MacIntel,60,61025ae37ef11b136ea224fe,,,,,,,,,859,70.86291504,27.93002319,1,0,0,response1disk,,6,11.9072876,8.587127686,1,0,0,rectangle,11.9072876,8.587127686,1,0,0,11.9072876,8.587127686,1,0,0,0,141,141,154,1,,,,,,,,
,,,,,,,,,,,,,FF,,,,,,,,2.3652,,,,,,,,,,,,,,,,,,,,,,60fce1683eddb828380796e3,61036caadaaef64fc38d4613,2021-07-29_23h06.35.196,Simcolourproject_2stim_asymm_v5,2020.2.10,MacIntel,60,61025ae37ef11b136ea224fe,,,,,,,,,3476,44.29699707,-77.02301025,1,0,0,response3disk,,4,-1.204589844,5.314056396,1,0,0,rectangle,-1.204589844,5.314056396,1,0,0,-1.204589844,5.314056396,1,0,0,0,142,142,12,1,,,,,,,,
,,,,,,,,,,,,,FF,,,,,,,,1.0322,,,,,,,,,,,,,,,,,,,,,,60fce1683eddb828380796e3,61036caadaaef64fc38d4613,2021-07-29_23h06.35.196,Simcolourproject_2stim_asymm_v5,2020.2.10,MacIntel,60,61025ae37ef11b136ea224fe,,,,,,,,,2983,50.8850708,104.4111328,1,0,0,response1disk,,7,7.240783691,-2.974243164,1,0,0,rectangle,7.240783691,-2.974243164,1,0,0,7.240783691,-2.974243164,1,0,0,0,143,143,90,1,,,,,,,,
,,,,,,,,,,,,,FF,,,,,,,,1.384,,,,,,,,,,,,,,,,,,,,,,60fce1683eddb828380796e3,61036caadaaef64fc38d4613,2021-07-29_23h06.35.196,Simcolourproject_2stim_asymm_v5,2020.2.10,MacIntel,60,61025ae37ef11b136ea224fe,,,,,,,,,2985,-91.53515625,-36.9263916,1,0,0,response5disk,,2,8.493408203,-2.378845215,1,0,0,rectangle,8.493408203,-2.378845215,1,0,0,8.493408203,-2.378845215,1,0,0,0,144,144,68,1,,,,,,,,
,,,,,,,,,,,,,FF,,,,,,,,0.682,,,,,,,,,,,,,,,,,,,,,,60fce1683eddb828380796e3,61036caadaaef64fc38d4613,2021-07-29_23h06.35.196,Simcolourproject_2stim_asymm_v5,2020.2.10,MacIntel,60,61025ae37ef11b136ea224fe,,,,,,,,,144,18.60443115,71.93237305,1,0,0,response1disk,,7,-6.452148438,-1.069793701,1,0,0,rectangle,-6.452148438,-1.069793701,1,0,0,-6.452148438,-1.069793701,1,0,0,0,145,145,127,1,,,,,,,,
,,,,,,,,,,,,,FF,,,,,,,,1.0018,,,,,,,,,,,,,,,,,,,,,,60fce1683eddb828380796e3,61036caadaaef64fc38d4613,2021-07-29_23h06.35.196,Simcolourproject_2stim_asymm_v5,2020.2.10,MacIntel,60,61025ae37ef11b136ea224fe,,,,,,,,,675,70.07092285,29.30273438,1,0,0,response1disk,,6,-2.628967285,6.61706543,1,0,0,rectangle,-2.628967285,6.61706543,1,0,0,-2.628967285,6.61706543,1,0,0,0,146,146,55,1,,,,,,,,
,,,,,,,,,,,,,FF,,,,,,,,1.1512,,,,,,,,,,,,,,,,,,,,,,60fce1683eddb828380796e3,61036caadaaef64fc38d4613,2021-07-29_23h06.35.196,Simcolourproject_2stim_asymm_v5,2020.2.10,MacIntel,60,61025ae37ef11b136ea224fe,,,,,,,,,2874,51.56268311,96.50808716,1,0,0,response1disk,,7,7.817687988,5.757263184,1,0,0,rectangle,7.817687988,5.757263184,1,0,0,7.817687988,5.757263184,1,0,0,0,147,147,113,1,,,,,,,,
,,,,,,,,,,,,,FF,,,,,,,,1.8179,,,,,,,,,,,,,,,,,,,,,,60fce1683eddb828380796e3,61036caadaaef64fc38d4613,2021-07-29_23h06.35.196,Simcolourproject_2stim_asymm_v5,2020.2.10,MacIntel,60,61025ae37ef11b136ea224fe,,,,,,,,,82,46.72546387,-94.28027344,1,0,0,response3disk,,4,0.371582031,6.275421143,1,0,0,rectangle,0.371582031,6.275421143,1,0,0,0.371582031,6.275421143,1,0,0,0,148,148,48,1,,,,,,,,
,,,,,,,,,,,,,FF,,,,,,,,1.1323,,,,,,,,,,,,,,,,,,,,,,60fce1683eddb828380796e3,61036caadaaef64fc38d4613,2021-07-29_23h06.35.196,Simcolourproject_2stim_asymm_v5,2020.2.10,MacIntel,60,61025ae37ef11b136ea224fe,,,,,,,,,4251,-80.79248047,-54.68856812,1,0,0,response5disk,,2,-7.446166992,-6.900054932,1,0,0,rectangle,-96.52593994,-41.97229004,1,0,0,2.968933105,5.355438232,1,0,0,0,149,149,61,1,,response5disk_3,TRUE,2,2,"[196,290,130,132,12,43,85,276,51,291,15,70,232,292,284,305,14,47,150,99]",1.2995,rectangle
,,,,,,,,,,,,,FF,,,,,,,,1.5004,,,,,,,,,,,,,,,,,,,,,,60fce1683eddb828380796e3,61036caadaaef64fc38d4613,2021-07-29_23h06.35.196,Simcolourproject_2stim_asymm_v5,2020.2.10,MacIntel,60,61025ae37ef11b136ea224fe,,,,,,,,,3066,30.95666504,-90.69696045,1,0,0,response3disk,,4,-0.523742676,8.361114502,1,0,0,rectangle,-0.523742676,8.361114502,1,0,0,-0.523742676,8.361114502,1,0,0,0,150,150,54,1,,,,,,,,
,,,,,,,,,,,,,FF,,,,,,,,1.5498,,,,,,,,,,,,,,,,,,,,,,60fce1683eddb828380796e3,61036caadaaef64fc38d4613,2021-07-29_23h06.35.196,Simcolourproject_2stim_asymm_v5,2020.2.10,MacIntel,60,61025ae37ef11b136ea224fe,,,,,,,,,4191,88.84509277,27.37200928,1,0,0,response1disk,,6,4.721801758,4.655670166,1,0,0,rectangle,4.721801758,4.655670166,1,0,0,4.721801758,4.655670166,1,0,0,0,151,151,49,1,,,,,,,,
,,,,,,,,,,,,,FF,,,,,,,,0.867,,,,,,,,,,,,,,,,,,,,,,60fce1683eddb828380796e3,61036caadaaef64fc38d4613,2021-07-29_23h06.35.196,Simcolourproject_2stim_asymm_v5,2020.2.10,MacIntel,60,61025ae37ef11b136ea224fe,,,,,,,,,2978,36.58251953,58.57608032,1,0,0,response1disk,,7,13.31176758,2.913482666,1,0,0,rectangle,13.31176758,2.913482666,1,0,0,13.31176758,2.913482666,1,0,0,0,152,152,8,1,,,,,,,,
,,,,,,,,,,,,,FF,,,,,,,,0.6834,,,,,,,,,,,,,,,,,,,,,,60fce1683eddb828380796e3,61036caadaaef64fc38d4613,2021-07-29_23h06.35.196,Simcolourproject_2stim_asymm_v5,2020.2.10,MacIntel,60,61025ae37ef11b136ea224fe,,,,,,,,,3263,37.84631348,84.71707153,1,0,0,response1disk,,7,6.145507813,3.458526611,1,0,0,rectangle,6.145507813,3.458526611,1,0,0,6.145507813,3.458526611,1,0,0,0,153,153,138,1,,,,,,,,
,,,,,,,,,,,,,FF,,,,,,,,0.7672,,,,,,,,,,,,,,,,,,,,,,60fce1683eddb828380796e3,61036caadaaef64fc38d4613,2021-07-29_23h06.35.196,Simcolourproject_2stim_asymm_v5,2020.2.10,MacIntel,60,61025ae37ef11b136ea224fe,,,,,,,,,210,36.59570313,78.63827515,1,0,0,response1disk,,7,2.338500977,-1.129608154,1,0,0,rectangle,2.338500977,-1.129608154,1,0,0,2.338500977,-1.129608154,1,0,0,0,154,154,0,1,,,,,,,,
,,,,,,,,,,,,,FF,,,,,,,,0.6679,,,,,,,,,,,,,,,,,,,,,,60fce1683eddb828380796e3,61036caadaaef64fc38d4613,2021-07-29_23h06.35.196,Simcolourproject_2stim_asymm_v5,2020.2.10,MacIntel,60,61025ae37ef11b136ea224fe,,,,,,,,,3023,55.71185303,104.4542847,1,0,0,response1disk,,7,8.262207031,-1.189575195,1,0,0,rectangle,8.262207031,-1.189575195,1,0,0,8.262207031,-1.189575195,1,0,0,0,155,155,92,1,,,,,,,,
,,,,,,,,,,,,,FF,,,,,,,,3.2503,,,,,,,,,,,,,,,,,,,,,,60fce1683eddb828380796e3,61036caadaaef64fc38d4613,2021-07-29_23h06.35.196,Simcolourproject_2stim_asymm_v5,2020.2.10,MacIntel,60,61025ae37ef11b136ea224fe,,,,,,,,,571,48.94421387,-79.02636719,1,0,0,response3disk,,4,2.323730469,-7.01260376,1,0,0,rectangle,2.323730469,-7.01260376,1,0,0,2.323730469,-7.01260376,1,0,0,0,156,156,82,1,,,,,,,,
,,,,,,,,,,,,,FF,,,,,,,,1.0338,,,,,,,,,,,,,,,,,,,,,,60fce1683eddb828380796e3,61036caadaaef64fc38d4613,2021-07-29_23h06.35.196,Simcolourproject_2stim_asymm_v5,2020.2.10,MacIntel,60,61025ae37ef11b136ea224fe,,,,,,,,,1220,-42.68518066,-76.25750732,1,0,0,response5disk,,3,-8.136047363,-2.325775146,1,0,0,rectangle,-8.136047363,-2.325775146,1,0,0,-8.136047363,-2.325775146,1,0,0,0,157,157,16,1,,,,,,,,
,,,,,,,,,,,,,FF,,,,,,,,0.8331,,,,,,,,,,,,,,,,,,,,,,60fce1683eddb828380796e3,61036caadaaef64fc38d4613,2021-07-29_23h06.35.196,Simcolourproject_2stim_asymm_v5,2020.2.10,MacIntel,60,61025ae37ef11b136ea224fe,,,,,,,,,1748,57.26489258,-87.30963135,1,0,0,response3disk,,4,12.03356934,1.79864502,1,0,0,rectangle,12.03356934,1.79864502,1,0,0,12.03356934,1.79864502,1,0,0,0,158,158,86,1,,,,,,,,
,,,,,,,,,,,,,FF,,,,,,,,1.3159,,,,,,,,,,,,,,,,,,,,,,60fce1683eddb828380796e3,61036caadaaef64fc38d4613,2021-07-29_23h06.35.196,Simcolourproject_2stim_asymm_v5,2020.2.10,MacIntel,60,61025ae37ef11b136ea224fe,,,,,,,,,2478,84.9284668,-42.36618042,1,0,0,response3disk,,5,-3.369995117,14.52224731,1,0,0,rectangle,-3.369995117,14.52224731,1,0,0,-3.369995117,14.52224731,1,0,0,0,159,159,20,1,,,,,,,,
,,,,,,,,,,,,,FF,,,,,,,,1.0865,,,,,,,,,,,,,,,,,,,,,,60fce1683eddb828380796e3,61036caadaaef64fc38d4613,2021-07-29_23h06.35.196,Simcolourproject_2stim_asymm_v5,2020.2.10,MacIntel,60,61025ae37ef11b136ea224fe,,,,,,,,,185,-78.08459473,-34.89645386,1,0,0,response5disk,,2,-7.183410645,-3.14541626,1,0,0,rectangle,-7.183410645,-3.14541626,1,0,0,-7.183410645,-3.14541626,1,0,0,1,0,160,0,1,,,,,,,,
,,,,,,,,,,,,,FF,,,,,,,,1.0838,,,,,,,,,,,,,,,,,,,,,,60fce1683eddb828380796e3,61036caadaaef64fc38d4613,2021-07-29_23h06.35.196,Simcolourproject_2stim_asymm_v5,2020.2.10,MacIntel,60,61025ae37ef11b136ea224fe,,,,,,,,,353,-116.8492432,-41.42163086,1,0,0,response5disk,,2,-10.57446289,-4.639831543,1,0,0,rectangle,-10.57446289,-4.639831543,1,0,0,-10.57446289,-4.639831543,1,0,0,1,1,161,112,1,,,,,,,,
,,,,,,,,,,,,,FF,,,,,,,,1.3026,,,,,,,,,,,,,,,,,,,,,,60fce1683eddb828380796e3,61036caadaaef64fc38d4613,2021-07-29_23h06.35.196,Simcolourproject_2stim_asymm_v5,2020.2.10,MacIntel,60,61025ae37ef11b136ea224fe,,,,,,,,,4328,-56.1060791,-103.9384155,1,0,0,response5disk,,3,-11.71954346,3.338104248,1,0,0,rectangle,-11.71954346,3.338104248,1,0,0,-11.71954346,3.338104248,1,0,0,1,2,162,106,1,,,,,,,,
,,,,,,,,,,,,,FF,,,,,,,,0.8668,,,,,,,,,,,,,,,,,,,,,,60fce1683eddb828380796e3,61036caadaaef64fc38d4613,2021-07-29_23h06.35.196,Simcolourproject_2stim_asymm_v5,2020.2.10,MacIntel,60,61025ae37ef11b136ea224fe,,,,,,,,,2387,51.43664551,92.04196167,1,0,0,response1disk,,7,3.536376953,4.07522583,1,0,0,rectangle,3.536376953,4.07522583,1,0,0,3.536376953,4.07522583,1,0,0,1,3,163,43,1,,,,,,,,
,,,,,,,,,,,,,FF,,,,,,,,0.8325,,,,,,,,,,,,,,,,,,,,,,60fce1683eddb828380796e3,61036caadaaef64fc38d4613,2021-07-29_23h06.35.196,Simcolourproject_2stim_asymm_v5,2020.2.10,MacIntel,60,61025ae37ef11b136ea224fe,,,,,,,,,3322,32,72.79388428,1,0,0,response1disk,,7,1.528076172,-6.446136475,1,0,0,rectangle,1.528076172,-6.446136475,1,0,0,1.528076172,-6.446136475,1,0,0,1,4,164,102,1,,,,,,,,
,,,,,,,,,,,,,FF,,,,,,,,0.7993,,,,,,,,,,,,,,,,,,,,,,60fce1683eddb828380796e3,61036caadaaef64fc38d4613,2021-07-29_23h06.35.196,Simcolourproject_2stim_asymm_v5,2020.2.10,MacIntel,60,61025ae37ef11b136ea224fe,,,,,,,,,968,-54.36975098,84.00146484,1,0,0,response7disk,,0,-6.710144043,10.08798218,1,0,0,rectangle,-6.710144043,10.08798218,1,0,0,-6.710144043,10.08798218,1,0,0,1,5,165,129,1,,,,,,,,
,,,,,,,,,,,,,FF,,,,,,,,2.166,,,,,,,,,,,,,,,,,,,,,,60fce1683eddb828380796e3,61036caadaaef64fc38d4613,2021-07-29_23h06.35.196,Simcolourproject_2stim_asymm_v5,2020.2.10,MacIntel,60,61025ae37ef11b136ea224fe,,,,,,,,,2383,84.05889893,-45.11572266,1,0,0,response3disk,,5,-7.312561035,2.086456299,1,0,0,rectangle,-7.312561035,2.086456299,1,0,0,-7.312561035,2.086456299,1,0,0,1,6,166,30,1,,,,,,,,
,,,,,,,,,,,,,FF,,,,,,,,1.698,,,,,,,,,,,,,,,,,,,,,,60fce1683eddb828380796e3,61036caadaaef64fc38d4613,2021-07-29_23h06.35.196,Simcolourproject_2stim_asymm_v5,2020.2.10,MacIntel,60,61025ae37ef11b136ea224fe,,,,,,,,,4126,57.13641357,-94.01434326,1,0,0,response3disk,,4,7.305053711,2.374176025,1,0,0,rectangle,7.305053711,2.374176025,1,0,0,7.305053711,2.374176025,1,0,0,1,7,167,143,1,,,,,,,,
,,,,,,,,,,,,,FF,,,,,,,,1.6674,,,,,,,,,,,,,,,,,,,,,,60fce1683eddb828380796e3,61036caadaaef64fc38d4613,2021-07-29_23h06.35.196,Simcolourproject_2stim_asymm_v5,2020.2.10,MacIntel,60,61025ae37ef11b136ea224fe,,,,,,,,,3784,83.29766846,-45.14047241,1,0,0,response3disk,,5,4.607299805,4.783477783,1,0,0,rectangle,4.607299805,4.783477783,1,0,0,4.607299805,4.783477783,1,0,0,1,8,168,59,1,,,,,,,,
,,,,,,,,,,,,,FF,,,,,,,,0.8655,,,,,,,,,,,,,,,,,,,,,,60fce1683eddb828380796e3,61036caadaaef64fc38d4613,2021-07-29_23h06.35.196,Simcolourproject_2stim_asymm_v5,2020.2.10,MacIntel,60,61025ae37ef11b136ea224fe,,,,,,,,,3082,50.72070313,77.93603516,1,0,0,response1disk,,7,-1.987426758,-5.493560791,1,0,0,rectangle,-1.987426758,-5.493560791,1,0,0,-1.987426758,-5.493560791,1,0,0,1,9,169,92,1,,,,,,,,
,,,,,,,,,,,,,FF,,,,,,,,4.6834,,,,,,,,,,,,,,,,,,,,,,60fce1683eddb828380796e3,61036caadaaef64fc38d4613,2021-07-29_23h06.35.196,Simcolourproject_2stim_asymm_v5,2020.2.10,MacIntel,60,61025ae37ef11b136ea224fe,,,,,,,,,1231,61.08026123,-25.17572021,1,0,0,response3disk,,5,-7.359375,3.607666016,1,0,0,rectangle,-7.359375,3.607666016,1,0,0,-7.359375,3.607666016,1,0,0,1,10,170,19,1,,,,,,,,
,,,,,,,,,,,,,FF,,,,,,,,1.1182,,,,,,,,,,,,,,,,,,,,,,60fce1683eddb828380796e3,61036caadaaef64fc38d4613,2021-07-29_23h06.35.196,Simcolourproject_2stim_asymm_v5,2020.2.10,MacIntel,60,61025ae37ef11b136ea224fe,,,,,,,,,3679,77.52001953,-43.82702637,1,0,0,response3disk,,5,-19.95373535,3.017089844,1,0,0,rectangle,-19.95373535,3.017089844,1,0,0,-19.95373535,3.017089844,1,0,0,1,11,171,22,1,,,,,,,,
,,,,,,,,,,,,,FF,,,,,,,,1.5489,,,,,,,,,,,,,,,,,,,,,,60fce1683eddb828380796e3,61036caadaaef64fc38d4613,2021-07-29_23h06.35.196,Simcolourproject_2stim_asymm_v5,2020.2.10,MacIntel,60,61025ae37ef11b136ea224fe,,,,,,,,,469,62.85467529,50.3230896,1,0,0,response1disk,,6,7.718994141,11.23077393,1,0,0,rectangle,7.718994141,11.23077393,1,0,0,7.718994141,11.23077393,1,0,0,1,12,172,86,1,,,,,,,,
,,,,,,,,,,,,,FF,,,,,,,,0.6352,,,,,,,,,,,,,,,,,,,,,,60fce1683eddb828380796e3,61036caadaaef64fc38d4613,2021-07-29_23h06.35.196,Simcolourproject_2stim_asymm_v5,2020.2.10,MacIntel,60,61025ae37ef11b136ea224fe,,,,,,,,,511,72.52319336,30.85177612,1,0,0,response1disk,,6,27.5793457,15.93630981,1,0,0,rectangle,27.5793457,15.93630981,1,0,0,27.5793457,15.93630981,1,0,0,1,13,173,101,1,,,,,,,,
,,,,,,,,,,,,,FF,,,,,,,,1.4668,,,,,,,,,,,,,,,,,,,,,,60fce1683eddb828380796e3,61036caadaaef64fc38d4613,2021-07-29_23h06.35.196,Simcolourproject_2stim_asymm_v5,2020.2.10,MacIntel,60,61025ae37ef11b136ea224fe,,,,,,,,,1122,73.05023193,-37.23031616,1,0,0,response3disk,,5,16.55566406,-4.178985596,1,0,0,rectangle,16.55566406,-4.178985596,1,0,0,16.55566406,-4.178985596,1,0,0,1,14,174,115,1,,,,,,,,
,,,,,,,,,,,,,FF,,,,,,,,1.2164,,,,,,,,,,,,,,,,,,,,,,60fce1683eddb828380796e3,61036caadaaef64fc38d4613,2021-07-29_23h06.35.196,Simcolourproject_2stim_asymm_v5,2020.2.10,MacIntel,60,61025ae37ef11b136ea224fe,,,,,,,,,3382,-52.14434814,-67.71179199,1,0,0,response5disk,,3,-22.06280518,5.53338623,1,0,0,rectangle,-22.06280518,5.53338623,1,0,0,-22.06280518,5.53338623,1,0,0,1,15,175,105,1,,,,,,,,
,,,,,,,,,,,,,FF,,,,,,,,1.0835,,,,,,,,,,,,,,,,,,,,,,60fce1683eddb828380796e3,61036caadaaef64fc38d4613,2021-07-29_23h06.35.196,Simcolourproject_2stim_asymm_v5,2020.2.10,MacIntel,60,61025ae37ef11b136ea224fe,,,,,,,,,1658,68.48718262,37.76196289,1,0,0,response1disk,,6,10.86889648,-3.296875,1,0,0,rectangle,10.86889648,-3.296875,1,0,0,10.86889648,-3.296875,1,0,0,1,16,176,99,1,,,,,,,,
,,,,,,,,,,,,,FF,,,,,,,,2.1496,,,,,,,,,,,,,,,,,,,,,,60fce1683eddb828380796e3,61036caadaaef64fc38d4613,2021-07-29_23h06.35.196,Simcolourproject_2stim_asymm_v5,2020.2.10,MacIntel,60,61025ae37ef11b136ea224fe,,,,,,,,,4076,-48.34222412,-76.7041626,1,0,0,response5disk,,3,12.23937988,1.255828857,1,0,0,rectangle,12.23937988,1.255828857,1,0,0,12.23937988,1.255828857,1,0,0,1,17,177,124,1,,,,,,,,
,,,,,,,,,,,,,FF,,,,,,,,2.2671,,,,,,,,,,,,,,,,,,,,,,60fce1683eddb828380796e3,61036caadaaef64fc38d4613,2021-07-29_23h06.35.196,Simcolourproject_2stim_asymm_v5,2020.2.10,MacIntel,60,61025ae37ef11b136ea224fe,,,,,,,,,2931,-50.8416748,-77.59436035,1,0,0,response5disk,,3,-18.27770996,-1.998657227,1,0,0,rectangle,-18.27770996,-1.998657227,1,0,0,-18.27770996,-1.998657227,1,0,0,1,18,178,34,1,,,,,,,,
,,,,,,,,,,,,,FF,,,,,,,,2.2334,,,,,,,,,,,,,,,,,,,,,,60fce1683eddb828380796e3,61036caadaaef64fc38d4613,2021-07-29_23h06.35.196,Simcolourproject_2stim_asymm_v5,2020.2.10,MacIntel,60,61025ae37ef11b136ea224fe,,,,,,,,,1558,68.71142578,33.04830933,1,0,0,response1disk,,6,-0.516113281,2.161560059,1,0,0,rectangle,-0.516113281,2.161560059,1,0,0,-0.516113281,2.161560059,1,0,0,1,19,179,131,1,,,,,,,,
,,,,,,,,,,,,,FF,,,,,,,,1.2665,,,,,,,,,,,,,,,,,,,,,,60fce1683eddb828380796e3,61036caadaaef64fc38d4613,2021-07-29_23h06.35.196,Simcolourproject_2stim_asymm_v5,2020.2.10,MacIntel,60,61025ae37ef11b136ea224fe,,,,,,,,,229,78.61193848,41.96109009,1,0,0,response1disk,,6,3.859558105,8.392089844,1,0,0,rectangle,3.859558105,8.392089844,1,0,0,3.859558105,8.392089844,1,0,0,1,20,180,54,1,,,,,,,,
,,,,,,,,,,,,,FF,,,,,,,,4.8332,,,,,,,,,,,,,,,,,,,,,,60fce1683eddb828380796e3,61036caadaaef64fc38d4613,2021-07-29_23h06.35.196,Simcolourproject_2stim_asymm_v5,2020.2.10,MacIntel,60,61025ae37ef11b136ea224fe,,,,,,,,,4158,88.31219482,-54.34631348,1,0,0,response3disk,,5,16.059021,1.409210205,1,0,0,rectangle,16.059021,1.409210205,1,0,0,16.059021,1.409210205,1,0,0,1,21,181,15,1,,,,,,,,
,,,,,,,,,,,,,FF,,,,,,,,1.0334,,,,,,,,,,,,,,,,,,,,,,60fce1683eddb828380796e3,61036caadaaef64fc38d4613,2021-07-29_23h06.35.196,Simcolourproject_2stim_asymm_v5,2020.2.10,MacIntel,60,61025ae37ef11b136ea224fe,,,,,,,,,4111,99.39770508,56.40475464,1,0,0,response1disk,,6,-9.064025879,-3.38885498,1,0,0,rectangle,-9.064025879,-3.38885498,1,0,0,-9.064025879,-3.38885498,1,0,0,1,22,182,77,1,,,,,,,,
,,,,,,,,,,,,,FF,,,,,,,,0.9671,,,,,,,,,,,,,,,,,,,,,,60fce1683eddb828380796e3,61036caadaaef64fc38d4613,2021-07-29_23h06.35.196,Simcolourproject_2stim_asymm_v5,2020.2.10,MacIntel,60,61025ae37ef11b136ea224fe,,,,,,,,,2180,88.0927124,-38.14028931,1,0,0,response3disk,,5,2.852905273,11.2562561,1,0,0,rectangle,2.852905273,11.2562561,1,0,0,2.852905273,11.2562561,1,0,0,1,23,183,48,1,,,,,,,,
,,,,,,,,,,,,,FF,,,,,,,,1.5846,,,,,,,,,,,,,,,,,,,,,,60fce1683eddb828380796e3,61036caadaaef64fc38d4613,2021-07-29_23h06.35.196,Simcolourproject_2stim_asymm_v5,2020.2.10,MacIntel,60,61025ae37ef11b136ea224fe,,,,,,,,,3690,84.51757813,62.59979248,1,0,0,response1disk,,6,-14.62579346,3.392669678,1,0,0,rectangle,-14.62579346,3.392669678,1,0,0,-14.62579346,3.392669678,1,0,0,1,24,184,83,1,,,,,,,,
,,,,,,,,,,,,,FF,,,,,,,,0.8171,,,,,,,,,,,,,,,,,,,,,,60fce1683eddb828380796e3,61036caadaaef64fc38d4613,2021-07-29_23h06.35.196,Simcolourproject_2stim_asymm_v5,2020.2.10,MacIntel,60,61025ae37ef11b136ea224fe,,,,,,,,,1351,30.68023682,80.96487427,1,0,0,response1disk,,7,13.54669189,2.950744629,1,0,0,rectangle,13.54669189,2.950744629,1,0,0,13.54669189,2.950744629,1,0,0,1,25,185,149,1,,,,,,,,
,,,,,,,,,,,,,FF,,,,,,,,1.2659,,,,,,,,,,,,,,,,,,,,,,60fce1683eddb828380796e3,61036caadaaef64fc38d4613,2021-07-29_23h06.35.196,Simcolourproject_2stim_asymm_v5,2020.2.10,MacIntel,60,61025ae37ef11b136ea224fe,,,,,,,,,1261,71.52453613,45.61465454,1,0,0,response1disk,,6,3.455078125,3.56362915,1,0,0,rectangle,3.455078125,3.56362915,1,0,0,3.455078125,3.56362915,1,0,0,1,26,186,41,1,,,,,,,,
,,,,,,,,,,,,,FF,,,,,,,,2.9662,,,,,,,,,,,,,,,,,,,,,,60fce1683eddb828380796e3,61036caadaaef64fc38d4613,2021-07-29_23h06.35.196,Simcolourproject_2stim_asymm_v5,2020.2.10,MacIntel,60,61025ae37ef11b136ea224fe,,,,,,,,,996,113.7773438,34.80169678,1,0,0,response1disk,,6,0.836975098,-6.923919678,1,0,0,rectangle,0.836975098,-6.923919678,1,0,0,0.836975098,-6.923919678,1,0,0,1,27,187,40,1,,,,,,,,
,,,,,,,,,,,,,FF,,,,,,,,1.4346,,,,,,,,,,,,,,,,,,,,,,60fce1683eddb828380796e3,61036caadaaef64fc38d4613,2021-07-29_23h06.35.196,Simcolourproject_2stim_asymm_v5,2020.2.10,MacIntel,60,61025ae37ef11b136ea224fe,,,,,,,,,2981,94.72406006,41.99157715,1,0,0,response1disk,,6,8.599609375,11.18746948,1,0,0,rectangle,8.599609375,11.18746948,1,0,0,8.599609375,11.18746948,1,0,0,1,28,188,157,1,,,,,,,,
,,,,,,,,,,,,,FF,,,,,,,,0.9832,,,,,,,,,,,,,,,,,,,,,,60fce1683eddb828380796e3,61036caadaaef64fc38d4613,2021-07-29_23h06.35.196,Simcolourproject_2stim_asymm_v5,2020.2.10,MacIntel,60,61025ae37ef11b136ea224fe,,,,,,,,,1254,54.06982422,98.75204468,1,0,0,response1disk,,7,3.689941406,-4.086242676,1,0,0,rectangle,3.689941406,-4.086242676,1,0,0,3.689941406,-4.086242676,1,0,0,1,29,189,28,1,,,,,,,,
,,,,,,,,,,,,,FF,,,,,,,,1.1153,,,,,,,,,,,,,,,,,,,,,,60fce1683eddb828380796e3,61036caadaaef64fc38d4613,2021-07-29_23h06.35.196,Simcolourproject_2stim_asymm_v5,2020.2.10,MacIntel,60,61025ae37ef11b136ea224fe,,,,,,,,,4073,69.28070068,-27.28662109,1,0,0,response3disk,,5,11.890625,4.286102295,1,0,0,rectangle,11.890625,4.286102295,1,0,0,11.890625,4.286102295,1,0,0,1,30,190,39,1,,,,,,,,
,,,,,,,,,,,,,FF,,,,,,,,0.8336,,,,,,,,,,,,,,,,,,,,,,60fce1683eddb828380796e3,61036caadaaef64fc38d4613,2021-07-29_23h06.35.196,Simcolourproject_2stim_asymm_v5,2020.2.10,MacIntel,60,61025ae37ef11b136ea224fe,,,,,,,,,3983,97.30407715,-58.09335327,1,0,0,response3disk,,5,-9.097290039,6.977050781,1,0,0,rectangle,-9.097290039,6.977050781,1,0,0,-9.097290039,6.977050781,1,0,0,1,31,191,8,1,,,,,,,,
,,,,,,,,,,,,,FF,,,,,,,,1.85,,,,,,,,,,,,,,,,,,,,,,60fce1683eddb828380796e3,61036caadaaef64fc38d4613,2021-07-29_23h06.35.196,Simcolourproject_2stim_asymm_v5,2020.2.10,MacIntel,60,61025ae37ef11b136ea224fe,,,,,,,,,2958,89.04199219,50.27059937,1,0,0,response1disk,,6,2.938110352,5.005218506,1,0,0,rectangle,2.938110352,5.005218506,1,0,0,2.938110352,5.005218506,1,0,0,1,32,192,89,1,,,,,,,,
,,,,,,,,,,,,,FF,,,,,,,,1.1829,,,,,,,,,,,,,,,,,,,,,,60fce1683eddb828380796e3,61036caadaaef64fc38d4613,2021-07-29_23h06.35.196,Simcolourproject_2stim_asymm_v5,2020.2.10,MacIntel,60,61025ae37ef11b136ea224fe,,,,,,,,,1753,36.77020264,-86.53765869,1,0,0,response3disk,,4,-6.26965332,-7.118591309,1,0,0,rectangle,-6.26965332,-7.118591309,1,0,0,-6.26965332,-7.118591309,1,0,0,1,33,193,79,1,,,,,,,,
,,,,,,,,,,,,,FF,,,,,,,,0.9837,,,,,,,,,,,,,,,,,,,,,,60fce1683eddb828380796e3,61036caadaaef64fc38d4613,2021-07-29_23h06.35.196,Simcolourproject_2stim_asymm_v5,2020.2.10,MacIntel,60,61025ae37ef11b136ea224fe,,,,,,,,,3852,41.4876709,-77.81762695,1,0,0,response3disk,,4,-0.223510742,-0.089324951,1,0,0,rectangle,-0.223510742,-0.089324951,1,0,0,-0.223510742,-0.089324951,1,0,0,1,34,194,11,1,,,,,,,,
,,,,,,,,,,,,,FF,,,,,,,,0.9173,,,,,,,,,,,,,,,,,,,,,,60fce1683eddb828380796e3,61036caadaaef64fc38d4613,2021-07-29_23h06.35.196,Simcolourproject_2stim_asymm_v5,2020.2.10,MacIntel,60,61025ae37ef11b136ea224fe,,,,,,,,,2987,-46.80212402,-92.25592041,1,0,0,response5disk,,3,-18.37005615,1.19909668,1,0,0,rectangle,-93.10913086,41.1914978,1,0,0,-13.4909668,-0.972320557,1,0,0,1,35,195,107,1,,response7disk_3,TRUE,1,1,"[196,290,130,132,12,43,85,276,51,291,15,70,232,292,284,305,14,47,150,99]",1.3674,rectangle
,,,,,,,,,,,,,FF,,,,,,,,1.0668,,,,,,,,,,,,,,,,,,,,,,60fce1683eddb828380796e3,61036caadaaef64fc38d4613,2021-07-29_23h06.35.196,Simcolourproject_2stim_asymm_v5,2020.2.10,MacIntel,60,61025ae37ef11b136ea224fe,,,,,,,,,4220,95.96618652,-36.7784729,1,0,0,response3disk,,5,13.29693604,-0.524810791,1,0,0,rectangle,13.29693604,-0.524810791,1,0,0,13.29693604,-0.524810791,1,0,0,1,36,196,63,1,,,,,,,,
,,,,,,,,,,,,,FF,,,,,,,,1.2331,,,,,,,,,,,,,,,,,,,,,,60fce1683eddb828380796e3,61036caadaaef64fc38d4613,2021-07-29_23h06.35.196,Simcolourproject_2stim_asymm_v5,2020.2.10,MacIntel,60,61025ae37ef11b136ea224fe,,,,,,,,,178,57.91534424,118.7149658,1,0,0,response1disk,,7,14.32086182,4.823272705,1,0,0,rectangle,14.32086182,4.823272705,1,0,0,14.32086182,4.823272705,1,0,0,1,37,197,70,1,,,,,,,,
,,,,,,,,,,,,,FF,,,,,,,,0.9167,,,,,,,,,,,,,,,,,,,,,,60fce1683eddb828380796e3,61036caadaaef64fc38d4613,2021-07-29_23h06.35.196,Simcolourproject_2stim_asymm_v5,2020.2.10,MacIntel,60,61025ae37ef11b136ea224fe,,,,,,,,,2033,-84.19708252,-44.75112915,1,0,0,response5disk,,2,-7.843017578,2.890045166,1,0,0,rectangle,-7.843017578,2.890045166,1,0,0,-7.843017578,2.890045166,1,0,0,1,38,198,128,1,,,,,,,,
,,,,,,,,,,,,,FF,,,,,,,,1.2164,,,,,,,,,,,,,,,,,,,,,,60fce1683eddb828380796e3,61036caadaaef64fc38d4613,2021-07-29_23h06.35.196,Simcolourproject_2stim_asymm_v5,2020.2.10,MacIntel,60,61025ae37ef11b136ea224fe,,,,,,,,,740,-65.40411377,-25.86947632,1,0,0,response5disk,,2,1.326477051,-5.047698975,1,0,0,rectangle,1.326477051,-5.047698975,1,0,0,1.326477051,-5.047698975,1,0,0,1,39,199,123,1,,,,,,,,
,,,,,,,,,,,,,FF,,,,,,,,0.7992,,,,,,,,,,,,,,,,,,,,,,60fce1683eddb828380796e3,61036caadaaef64fc38d4613,2021-07-29_23h06.35.196,Simcolourproject_2stim_asymm_v5,2020.2.10,MacIntel,60,61025ae37ef11b136ea224fe,,,,,,,,,1716,41.99822998,89.5199585,1,0,0,response1disk,,7,4.95703125,1.338348389,1,0,0,rectangle,4.95703125,1.338348389,1,0,0,4.95703125,1.338348389,1,0,0,1,40,200,93,1,,,,,,,,
,,,,,,,,,,,,,FF,,,,,,,,0.9172,,,,,,,,,,,,,,,,,,,,,,60fce1683eddb828380796e3,61036caadaaef64fc38d4613,2021-07-29_23h06.35.196,Simcolourproject_2stim_asymm_v5,2020.2.10,MacIntel,60,61025ae37ef11b136ea224fe,,,,,,,,,3426,-74.56762695,-44.83282471,1,0,0,response5disk,,2,-13.3347168,-11.29125977,1,0,0,rectangle,-13.3347168,-11.29125977,1,0,0,-13.3347168,-11.29125977,1,0,0,1,41,201,24,1,,,,,,,,
,,,,,,,,,,,,,FF,,,,,,,,1.5658,,,,,,,,,,,,,,,,,,,,,,60fce1683eddb828380796e3,61036caadaaef64fc38d4613,2021-07-29_23h06.35.196,Simcolourproject_2stim_asymm_v5,2020.2.10,MacIntel,60,61025ae37ef11b136ea224fe,,,,,,,,,2092,85.12243652,48.206604,1,0,0,response1disk,,6,-27.96014404,-1.430450439,1,0,0,rectangle,-27.96014404,-1.430450439,1,0,0,-27.96014404,-1.430450439,1,0,0,1,42,202,145,1,,,,,,,,
,,,,,,,,,,,,,FF,,,,,,,,3.6337,,,,,,,,,,,,,,,,,,,,,,60fce1683eddb828380796e3,61036caadaaef64fc38d4613,2021-07-29_23h06.35.196,Simcolourproject_2stim_asymm_v5,2020.2.10,MacIntel,60,61025ae37ef11b136ea224fe,,,,,,,,,2229,42.92663574,-61.35095215,1,0,0,response3disk,,4,7.316467285,-1.586791992,1,0,0,rectangle,7.316467285,-1.586791992,1,0,0,7.316467285,-1.586791992,1,0,0,1,43,203,57,1,,,,,,,,
,,,,,,,,,,,,,FF,,,,,,,,0.8008,,,,,,,,,,,,,,,,,,,,,,60fce1683eddb828380796e3,61036caadaaef64fc38d4613,2021-07-29_23h06.35.196,Simcolourproject_2stim_asymm_v5,2020.2.10,MacIntel,60,61025ae37ef11b136ea224fe,,,,,,,,,2202,44.26605225,86.10940552,1,0,0,response1disk,,7,19.1439209,7.706542969,1,0,0,rectangle,19.1439209,7.706542969,1,0,0,19.1439209,7.706542969,1,0,0,1,44,204,85,1,,,,,,,,
,,,,,,,,,,,,,FF,,,,,,,,1.6673,,,,,,,,,,,,,,,,,,,,,,60fce1683eddb828380796e3,61036caadaaef64fc38d4613,2021-07-29_23h06.35.196,Simcolourproject_2stim_asymm_v5,2020.2.10,MacIntel,60,61025ae37ef11b136ea224fe,,,,,,,,,2230,-32.08520508,-67.01416016,1,0,0,response5disk,,3,14.20288086,6.942321777,1,0,0,rectangle,14.20288086,6.942321777,1,0,0,14.20288086,6.942321777,1,0,0,1,45,205,10,1,,,,,,,,
,,,,,,,,,,,,,FF,,,,,,,,0.9166,,,,,,,,,,,,,,,,,,,,,,60fce1683eddb828380796e3,61036caadaaef64fc38d4613,2021-07-29_23h06.35.196,Simcolourproject_2stim_asymm_v5,2020.2.10,MacIntel,60,61025ae37ef11b136ea224fe,,,,,,,,,2725,-66.31939697,-39.09487915,1,0,0,response5disk,,2,3.827575684,-6.587768555,1,0,0,rectangle,3.827575684,-6.587768555,1,0,0,3.827575684,-6.587768555,1,0,0,1,46,206,133,1,,,,,,,,
,,,,,,,,,,,,,FF,,,,,,,,1.4497,,,,,,,,,,,,,,,,,,,,,,60fce1683eddb828380796e3,61036caadaaef64fc38d4613,2021-07-29_23h06.35.196,Simcolourproject_2stim_asymm_v5,2020.2.10,MacIntel,60,61025ae37ef11b136ea224fe,,,,,,,,,3494,51.1763916,99.77761841,1,0,0,response1disk,,7,-9.17791748,-3.194946289,1,0,0,rectangle,-9.17791748,-3.194946289,1,0,0,-9.17791748,-3.194946289,1,0,0,1,47,207,56,1,,,,,,,,
,,,,,,,,,,,,,FF,,,,,,,,3.4687,,,,,,,,,,,,,,,,,,,,,,60fce1683eddb828380796e3,61036caadaaef64fc38d4613,2021-07-29_23h06.35.196,Simcolourproject_2stim_asymm_v5,2020.2.10,MacIntel,60,61025ae37ef11b136ea224fe,,,,,,,,,314,44.95617676,-63.21417236,1,0,0,response3disk,,4,-10.07873535,5.07510376,1,0,0,rectangle,-10.07873535,5.07510376,1,0,0,-10.07873535,5.07510376,1,0,0,1,48,208,14,1,,,,,,,,
,,,,,,,,,,,,,FF,,,,,,,,1.1503,,,,,,,,,,,,,,,,,,,,,,60fce1683eddb828380796e3,61036caadaaef64fc38d4613,2021-07-29_23h06.35.196,Simcolourproject_2stim_asymm_v5,2020.2.10,MacIntel,60,61025ae37ef11b136ea224fe,,,,,,,,,593,39.65362549,72.06558228,1,0,0,response1disk,,7,13.88116455,2.715911865,1,0,0,rectangle,13.88116455,2.715911865,1,0,0,13.88116455,2.715911865,1,0,0,1,49,209,73,1,,,,,,,,
,,,,,,,,,,,,,FF,,,,,,,,0.8165,,,,,,,,,,,,,,,,,,,,,,60fce1683eddb828380796e3,61036caadaaef64fc38d4613,2021-07-29_23h06.35.196,Simcolourproject_2stim_asymm_v5,2020.2.10,MacIntel,60,61025ae37ef11b136ea224fe,,,,,,,,,1015,31.73937988,77.39056396,1,0,0,response1disk,,7,6.924560547,-0.706298828,1,0,0,rectangle,6.924560547,-0.706298828,1,0,0,6.924560547,-0.706298828,1,0,0,1,50,210,49,1,,,,,,,,
,,,,,,,,,,,,,FF,,,,,,,,1.05,,,,,,,,,,,,,,,,,,,,,,60fce1683eddb828380796e3,61036caadaaef64fc38d4613,2021-07-29_23h06.35.196,Simcolourproject_2stim_asymm_v5,2020.2.10,MacIntel,60,61025ae37ef11b136ea224fe,,,,,,,,,3336,-49.26794434,106.6134033,1,0,0,response7disk,,0,-9.485473633,-2.385406494,1,0,0,rectangle,-9.485473633,-2.385406494,1,0,0,-9.485473633,-2.385406494,1,0,0,1,51,211,142,1,,,,,,,,
,,,,,,,,,,,,,FF,,,,,,,,0.8824,,,,,,,,,,,,,,,,,,,,,,60fce1683eddb828380796e3,61036caadaaef64fc38d4613,2021-07-29_23h06.35.196,Simcolourproject_2stim_asymm_v5,2020.2.10,MacIntel,60,61025ae37ef11b136ea224fe,,,,,,,,,2912,43.21575928,86.94424438,1,0,0,response1disk,,7,18.00170898,5.316833496,1,0,0,rectangle,18.00170898,5.316833496,1,0,0,18.00170898,5.316833496,1,0,0,1,52,212,84,1,,,,,,,,
,,,,,,,,,,,,,FF,,,,,,,,1.2993,,,,,,,,,,,,,,,,,,,,,,60fce1683eddb828380796e3,61036caadaaef64fc38d4613,2021-07-29_23h06.35.196,Simcolourproject_2stim_asymm_v5,2020.2.10,MacIntel,60,61025ae37ef11b136ea224fe,,,,,,,,,598,30.35717773,77.50842285,1,0,0,response1disk,,7,-12.18945313,2.188537598,1,0,0,rectangle,-12.18945313,2.188537598,1,0,0,-12.18945313,2.188537598,1,0,0,1,53,213,118,1,,,,,,,,
,,,,,,,,,,,,,FF,,,,,,,,1.4164,,,,,,,,,,,,,,,,,,,,,,60fce1683eddb828380796e3,61036caadaaef64fc38d4613,2021-07-29_23h06.35.196,Simcolourproject_2stim_asymm_v5,2020.2.10,MacIntel,60,61025ae37ef11b136ea224fe,,,,,,,,,551,80.6036377,-57.99395752,1,0,0,response3disk,,5,3.59967041,1.26385498,1,0,0,rectangle,3.59967041,1.26385498,1,0,0,3.59967041,1.26385498,1,0,0,1,54,214,5,1,,,,,,,,
,,,,,,,,,,,,,FF,,,,,,,,0.9816,,,,,,,,,,,,,,,,,,,,,,60fce1683eddb828380796e3,61036caadaaef64fc38d4613,2021-07-29_23h06.35.196,Simcolourproject_2stim_asymm_v5,2020.2.10,MacIntel,60,61025ae37ef11b136ea224fe,,,,,,,,,2516,51.89111328,87.94717407,1,0,0,response1disk,,7,-4.206176758,5.510009766,1,0,0,rectangle,-4.206176758,5.510009766,1,0,0,-4.206176758,5.510009766,1,0,0,1,55,215,94,1,,,,,,,,
,,,,,,,,,,,,,FF,,,,,,,,1.0001,,,,,,,,,,,,,,,,,,,,,,60fce1683eddb828380796e3,61036caadaaef64fc38d4613,2021-07-29_23h06.35.196,Simcolourproject_2stim_asymm_v5,2020.2.10,MacIntel,60,61025ae37ef11b136ea224fe,,,,,,,,,4356,-42.94616699,97.11080933,1,0,0,response7disk,,0,1.980285645,-6.089935303,1,0,0,rectangle,1.980285645,-6.089935303,1,0,0,1.980285645,-6.089935303,1,0,0,1,56,216,31,1,,,,,,,,
,,,,,,,,,,,,,FF,,,,,,,,1.3335,,,,,,,,,,,,,,,,,,,,,,60fce1683eddb828380796e3,61036caadaaef64fc38d4613,2021-07-29_23h06.35.196,Simcolourproject_2stim_asymm_v5,2020.2.10,MacIntel,60,61025ae37ef11b136ea224fe,,,,,,,,,615,54.83251953,-77.72851563,1,0,0,response3disk,,4,5.202880859,-2.422241211,1,0,0,rectangle,5.202880859,-2.422241211,1,0,0,5.202880859,-2.422241211,1,0,0,1,57,217,150,1,,,,,,,,
,,,,,,,,,,,,,FF,,,,,,,,0.9024,,,,,,,,,,,,,,,,,,,,,,60fce1683eddb828380796e3,61036caadaaef64fc38d4613,2021-07-29_23h06.35.196,Simcolourproject_2stim_asymm_v5,2020.2.10,MacIntel,60,61025ae37ef11b136ea224fe,,,,,,,,,3661,-33.92437744,-59.91653442,1,0,0,response5disk,,3,7.376220703,-0.097869873,1,0,0,rectangle,7.376220703,-0.097869873,1,0,0,7.376220703,-0.097869873,1,0,0,1,58,218,3,1,,,,,,,,
,,,,,,,,,,,,,FF,,,,,,,,0.8009,,,,,,,,,,,,,,,,,,,,,,60fce1683eddb828380796e3,61036caadaaef64fc38d4613,2021-07-29_23h06.35.196,Simcolourproject_2stim_asymm_v5,2020.2.10,MacIntel,60,61025ae37ef11b136ea224fe,,,,,,,,,2451,46.01879883,84.20697021,1,0,0,response1disk,,7,15.94207764,9.192810059,1,0,0,rectangle,15.94207764,9.192810059,1,0,0,15.94207764,9.192810059,1,0,0,1,59,219,46,1,,,,,,,,
,,,,,,,,,,,,,FF,,,,,,,,2.2214,,,,,,,,,,,,,,,,,,,,,,60fce1683eddb828380796e3,61036caadaaef64fc38d4613,2021-07-29_23h06.35.196,Simcolourproject_2stim_asymm_v5,2020.2.10,MacIntel,60,61025ae37ef11b136ea224fe,,,,,,,,,846,48.765625,103.7453308,1,0,0,response1disk,,7,18.56518555,9.993743896,1,0,0,rectangle,18.56518555,9.993743896,1,0,0,18.56518555,9.993743896,1,0,0,1,60,220,35,1,,,,,,,,
,,,,,,,,,,,,,FF,,,,,,,,1.7506,,,,,,,,,,,,,,,,,,,,,,60fce1683eddb828380796e3,61036caadaaef64fc38d4613,2021-07-29_23h06.35.196,Simcolourproject_2stim_asymm_v5,2020.2.10,MacIntel,60,61025ae37ef11b136ea224fe,,,,,,,,,3941,48.27893066,90.77349854,1,0,0,response1disk,,7,17.88616943,2.035552979,1,0,0,rectangle,17.88616943,2.035552979,1,0,0,17.88616943,2.035552979,1,0,0,1,61,221,72,1,,,,,,,,
,,,,,,,,,,,,,FF,,,,,,,,1.2157,,,,,,,,,,,,,,,,,,,,,,60fce1683eddb828380796e3,61036caadaaef64fc38d4613,2021-07-29_23h06.35.196,Simcolourproject_2stim_asymm_v5,2020.2.10,MacIntel,60,61025ae37ef11b136ea224fe,,,,,,,,,3830,59.87634277,70.79119873,1,0,0,response1disk,,7,23.94885254,11.81143188,1,0,0,rectangle,23.94885254,11.81143188,1,0,0,23.94885254,11.81143188,1,0,0,1,62,222,53,1,,,,,,,,
,,,,,,,,,,,,,FF,,,,,,,,1.9997,,,,,,,,,,,,,,,,,,,,,,60fce1683eddb828380796e3,61036caadaaef64fc38d4613,2021-07-29_23h06.35.196,Simcolourproject_2stim_asymm_v5,2020.2.10,MacIntel,60,61025ae37ef11b136ea224fe,,,,,,,,,3999,52.16241455,-72.22894287,1,0,0,response3disk,,4,7.385742188,2.67980957,1,0,0,rectangle,7.385742188,2.67980957,1,0,0,7.385742188,2.67980957,1,0,0,1,63,223,60,1,,,,,,,,
,,,,,,,,,,,,,FF,,,,,,,,0.684,,,,,,,,,,,,,,,,,,,,,,60fce1683eddb828380796e3,61036caadaaef64fc38d4613,2021-07-29_23h06.35.196,Simcolourproject_2stim_asymm_v5,2020.2.10,MacIntel,60,61025ae37ef11b136ea224fe,,,,,,,,,945,55.20825195,112.0979004,1,0,0,response1disk,,7,16.18157959,-3.393218994,1,0,0,rectangle,16.18157959,-3.393218994,1,0,0,16.18157959,-3.393218994,1,0,0,1,64,224,95,1,,,,,,,,
,,,,,,,,,,,,,FF,,,,,,,,1.2509,,,,,,,,,,,,,,,,,,,,,,60fce1683eddb828380796e3,61036caadaaef64fc38d4613,2021-07-29_23h06.35.196,Simcolourproject_2stim_asymm_v5,2020.2.10,MacIntel,60,61025ae37ef11b136ea224fe,,,,,,,,,2078,42.1907959,88.95074463,1,0,0,response1disk,,7,-12.06884766,2.84942627,1,0,0,rectangle,-12.06884766,2.84942627,1,0,0,-12.06884766,2.84942627,1,0,0,1,65,225,45,1,,,,,,,,
,,,,,,,,,,,,,FF,,,,,,,,0.7331,,,,,,,,,,,,,,,,,,,,,,60fce1683eddb828380796e3,61036caadaaef64fc38d4613,2021-07-29_23h06.35.196,Simcolourproject_2stim_asymm_v5,2020.2.10,MacIntel,60,61025ae37ef11b136ea224fe,,,,,,,,,308,52.95281982,104.9406433,1,0,0,response1disk,,7,20.22973633,-5.841278076,1,0,0,rectangle,20.22973633,-5.841278076,1,0,0,20.22973633,-5.841278076,1,0,0,1,66,226,134,1,,,,,,,,
,,,,,,,,,,,,,FF,,,,,,,,1.1495,,,,,,,,,,,,,,,,,,,,,,60fce1683eddb828380796e3,61036caadaaef64fc38d4613,2021-07-29_23h06.35.196,Simcolourproject_2stim_asymm_v5,2020.2.10,MacIntel,60,61025ae37ef11b136ea224fe,,,,,,,,,951,86.90826416,-42.31195068,1,0,0,response3disk,,5,6.752319336,3.838684082,1,0,0,rectangle,6.752319336,3.838684082,1,0,0,6.752319336,3.838684082,1,0,0,1,67,227,21,1,,,,,,,,
,,,,,,,,,,,,,FF,,,,,,,,1.7836,,,,,,,,,,,,,,,,,,,,,,60fce1683eddb828380796e3,61036caadaaef64fc38d4613,2021-07-29_23h06.35.196,Simcolourproject_2stim_asymm_v5,2020.2.10,MacIntel,60,61025ae37ef11b136ea224fe,,,,,,,,,3755,82.44909668,33.69522095,1,0,0,response1disk,,6,16.84997559,0.667327881,1,0,0,rectangle,16.84997559,0.667327881,1,0,0,16.84997559,0.667327881,1,0,0,1,68,228,154,1,,,,,,,,
,,,,,,,,,,,,,FF,,,,,,,,0.9675,,,,,,,,,,,,,,,,,,,,,,60fce1683eddb828380796e3,61036caadaaef64fc38d4613,2021-07-29_23h06.35.196,Simcolourproject_2stim_asymm_v5,2020.2.10,MacIntel,60,61025ae37ef11b136ea224fe,,,,,,,,,194,79.90075684,38.66305542,1,0,0,response1disk,,6,17.11883545,11.52172852,1,0,0,rectangle,17.11883545,11.52172852,1,0,0,17.11883545,11.52172852,1,0,0,1,69,229,18,1,,,,,,,,
,,,,,,,,,,,,,FF,,,,,,,,1.3839,,,,,,,,,,,,,,,,,,,,,,60fce1683eddb828380796e3,61036caadaaef64fc38d4613,2021-07-29_23h06.35.196,Simcolourproject_2stim_asymm_v5,2020.2.10,MacIntel,60,61025ae37ef11b136ea224fe,,,,,,,,,2081,99.53320313,52.28079224,1,0,0,response1disk,,6,8.763305664,1.580871582,1,0,0,rectangle,8.763305664,1.580871582,1,0,0,8.763305664,1.580871582,1,0,0,1,70,230,132,1,,,,,,,,
,,,,,,,,,,,,,FF,,,,,,,,1.0506,,,,,,,,,,,,,,,,,,,,,,60fce1683eddb828380796e3,61036caadaaef64fc38d4613,2021-07-29_23h06.35.196,Simcolourproject_2stim_asymm_v5,2020.2.10,MacIntel,60,61025ae37ef11b136ea224fe,,,,,,,,,3936,-44.25097656,91.31829834,1,0,0,response7disk,,0,-6.19934082,7.468231201,1,0,0,rectangle,-81.17041016,43.00866699,1,0,0,-2.673278809,1.145507813,1,0,0,1,71,231,100,1,,response7disk_3,TRUE,1,1,"[196,290,130,132,12,43,85,276,51,291,15,70,232,292,284,305,14,47,150,99]",1.2334,rectangle
,,,,,,,,,,,,,FF,,,,,,,,1.217,,,,,,,,,,,,,,,,,,,,,,60fce1683eddb828380796e3,61036caadaaef64fc38d4613,2021-07-29_23h06.35.196,Simcolourproject_2stim_asymm_v5,2020.2.10,MacIntel,60,61025ae37ef11b136ea224fe,,,,,,,,,21,59.75024414,-89.59191895,1,0,0,response3disk,,4,18.14080811,-0.213195801,1,0,0,rectangle,18.14080811,-0.213195801,1,0,0,18.14080811,-0.213195801,1,0,0,1,72,232,62,1,,,,,,,,
,,,,,,,,,,,,,FF,,,,,,,,1.3008,,,,,,,,,,,,,,,,,,,,,,60fce1683eddb828380796e3,61036caadaaef64fc38d4613,2021-07-29_23h06.35.196,Simcolourproject_2stim_asymm_v5,2020.2.10,MacIntel,60,61025ae37ef11b136ea224fe,,,,,,,,,1620,85.32458496,-40.67156982,1,0,0,response3disk,,5,15.80426025,-3.01171875,1,0,0,rectangle,15.80426025,-3.01171875,1,0,0,15.80426025,-3.01171875,1,0,0,1,73,233,71,1,,,,,,,,
,,,,,,,,,,,,,FF,,,,,,,,0.9006,,,,,,,,,,,,,,,,,,,,,,60fce1683eddb828380796e3,61036caadaaef64fc38d4613,2021-07-29_23h06.35.196,Simcolourproject_2stim_asymm_v5,2020.2.10,MacIntel,60,61025ae37ef11b136ea224fe,,,,,,,,,4162,55.03222656,-84.48114014,1,0,0,response3disk,,4,19.54650879,7.299743652,1,0,0,rectangle,19.54650879,7.299743652,1,0,0,19.54650879,7.299743652,1,0,0,1,74,234,64,1,,,,,,,,
,,,,,,,,,,,,,FF,,,,,,,,1.5661,,,,,,,,,,,,,,,,,,,,,,60fce1683eddb828380796e3,61036caadaaef64fc38d4613,2021-07-29_23h06.35.196,Simcolourproject_2stim_asymm_v5,2020.2.10,MacIntel,60,61025ae37ef11b136ea224fe,,,,,,,,,3501,84.26647949,-20.79605103,1,0,0,response3disk,,5,4.260498047,4.954528809,1,0,0,rectangle,4.260498047,4.954528809,1,0,0,4.260498047,4.954528809,1,0,0,1,75,235,66,1,,,,,,,,
,,,,,,,,,,,,,FF,,,,,,,,2.3677,,,,,,,,,,,,,,,,,,,,,,60fce1683eddb828380796e3,61036caadaaef64fc38d4613,2021-07-29_23h06.35.196,Simcolourproject_2stim_asymm_v5,2020.2.10,MacIntel,60,61025ae37ef11b136ea224fe,,,,,,,,,645,81.77960205,-45.52288818,1,0,0,response3disk,,5,15.77166748,-1.707275391,1,0,0,rectangle,15.77166748,-1.707275391,1,0,0,15.77166748,-1.707275391,1,0,0,1,76,236,117,1,,,,,,,,
,,,,,,,,,,,,,FF,,,,,,,,0.8674,,,,,,,,,,,,,,,,,,,,,,60fce1683eddb828380796e3,61036caadaaef64fc38d4613,2021-07-29_23h06.35.196,Simcolourproject_2stim_asymm_v5,2020.2.10,MacIntel,60,61025ae37ef11b136ea224fe,,,,,,,,,4062,43.61584473,73.38180542,1,0,0,response1disk,,7,13.97106934,12.23916626,1,0,0,rectangle,13.97106934,12.23916626,1,0,0,13.97106934,12.23916626,1,0,0,1,77,237,152,1,,,,,,,,
,,,,,,,,,,,,,FF,,,,,,,,1.0165,,,,,,,,,,,,,,,,,,,,,,60fce1683eddb828380796e3,61036caadaaef64fc38d4613,2021-07-29_23h06.35.196,Simcolourproject_2stim_asymm_v5,2020.2.10,MacIntel,60,61025ae37ef11b136ea224fe,,,,,,,,,4337,-70.84521484,-33.54550171,1,0,0,response5disk,,2,-0.969909668,-7.300811768,1,0,0,rectangle,-0.969909668,-7.300811768,1,0,0,-0.969909668,-7.300811768,1,0,0,1,78,238,139,1,,,,,,,,
,,,,,,,,,,,,,FF,,,,,,,,0.7159,,,,,,,,,,,,,,,,,,,,,,60fce1683eddb828380796e3,61036caadaaef64fc38d4613,2021-07-29_23h06.35.196,Simcolourproject_2stim_asymm_v5,2020.2.10,MacIntel,60,61025ae37ef11b136ea224fe,,,,,,,,,773,50.09106445,97.94033813,1,0,0,response1disk,,7,-3.086669922,1.388641357,1,0,0,rectangle,-3.086669922,1.388641357,1,0,0,-3.086669922,1.388641357,1,0,0,1,79,239,52,1,,,,,,,,
,,,,,,,,,,,,,FF,,,,,,,,0.6668,,,,,,,,,,,,,,,,,,,,,,60fce1683eddb828380796e3,61036caadaaef64fc38d4613,2021-07-29_23h06.35.196,Simcolourproject_2stim_asymm_v5,2020.2.10,MacIntel,60,61025ae37ef11b136ea224fe,,,,,,,,,2747,46.29211426,94.18734741,1,0,0,response1disk,,7,15.33911133,5.692718506,1,0,0,rectangle,15.33911133,5.692718506,1,0,0,15.33911133,5.692718506,1,0,0,1,80,240,146,1,,,,,,,,
,,,,,,,,,,,,,FF,,,,,,,,0.8008,,,,,,,,,,,,,,,,,,,,,,60fce1683eddb828380796e3,61036caadaaef64fc38d4613,2021-07-29_23h06.35.196,Simcolourproject_2stim_asymm_v5,2020.2.10,MacIntel,60,61025ae37ef11b136ea224fe,,,,,,,,,1994,54.55187988,98.25415039,1,0,0,response1disk,,7,9.11907959,4.095825195,1,0,0,rectangle,9.11907959,4.095825195,1,0,0,9.11907959,4.095825195,1,0,0,1,81,241,1,1,,,,,,,,
,,,,,,,,,,,,,FF,,,,,,,,1.5657,,,,,,,,,,,,,,,,,,,,,,60fce1683eddb828380796e3,61036caadaaef64fc38d4613,2021-07-29_23h06.35.196,Simcolourproject_2stim_asymm_v5,2020.2.10,MacIntel,60,61025ae37ef11b136ea224fe,,,,,,,,,1750,-77.88397217,-41.33590698,1,0,0,response5disk,,2,-5.224975586,-5.000396729,1,0,0,rectangle,-5.224975586,-5.000396729,1,0,0,-5.224975586,-5.000396729,1,0,0,1,82,242,76,1,,,,,,,,
