key_resp.keys,key_resp.rt,key_resp_14.keys,key_resp_14.rt,key_resp_15.keys,key_resp_15.rt,key_resp_17.keys,key_resp_17.rt,key_resp_9.keys,key_resp_9.rt,key_resp_10.keys,key_resp_10.rt,practice_comparison,Ecc,mouse_5.x,mouse_5.y,mouse_5.leftButton,mouse_5.midButton,mouse_5.rightButton,mouse_5.clicked_name,pracsimilarity,response_time,mouse_10.x,mouse_10.y,mouse_10.leftButton,mouse_10.midButton,mouse_10.rightButton,mouse_10.clicked_name,mouse_7.x,mouse_7.y,mouse_7.leftButton,mouse_7.midButton,mouse_7.rightButton,mouse_6.x,mouse_6.y,mouse_6.leftButton,mouse_6.midButton,mouse_6.rightButton,duringprac.thisRepN,duringprac.thisTrialN,duringprac.thisN,duringprac.thisIndex,duringprac.ran,participant,session,date,expName,psychopyVersion,OS,frameRate,study_id,mouse_7.clicked_name,catchpracsimilarity,catch_response_time,catchnumberprac,catchtrialorderprac,mouse_6.clicked_name,key_resp_22.keys,key_resp_22.rt,realcomparison,mouse.x,mouse.y,mouse.leftButton,mouse.midButton,mouse.rightButton,mouse.clicked_name,Colour2,similarity,mouse_2.x,mouse_2.y,mouse_2.leftButton,mouse_2.midButton,mouse_2.rightButton,mouse_2.clicked_name,mouse_3.x,mouse_3.y,mouse_3.leftButton,mouse_3.midButton,mouse_3.rightButton,mouse_11.x,mouse_11.y,mouse_11.leftButton,mouse_11.midButton,mouse_11.rightButton,trials_2.thisRepN,trials_2.thisTrialN,trials_2.thisN,trials_2.thisIndex,trials_2.ran,Colour1,mouse_3.clicked_name,catchornah,catchsimilarity,catchnumber,catchtrialorder,catchRT,mouse_11.clicked_name
space,104.417,space,526.786,space,356.944,space,379.24,space,1.501,space,111.381,125,FF,70,78,1,0,0,response1disk_5,7,12.499,3,1,1,0,0,rectangle_8,3,1,1,0,0,3,1,1,0,0,0,0,0,3,1,60fcf838690196411349151e,61036d0a1cbe328e09cf25f5,2021-07-29_23h15.49.894,Simcolourproject_2stim_asymm_v5,2020.2.10,MacIntel,60,61025ae37ef11b136ea224fe,,,,,,,,,,,,,,,,,,,,,,,,,,,,,,,,,,,,,,,,,,,,,,
,,,,,,,,,,,,32,PF,-55,-88,1,0,0,response5disk_5,3,6.92,7,2,1,0,0,rectangle_8,-33,80,1,0,0,-11,7,1,0,0,0,1,1,1,1,60fcf838690196411349151e,61036d0a1cbe328e09cf25f5,2021-07-29_23h15.49.894,Simcolourproject_2stim_asymm_v5,2020.2.10,MacIntel,60,61025ae37ef11b136ea224fe,response7disk_7,0,3.962,0,"[2,5]",rectangle_4,,,,,,,,,,,,,,,,,,,,,,,,,,,,,,,,,,,,,,,,
,,,,,,,,,,,,15,PF,48,-88,1,0,0,response3disk_5,4,6.659,-4,-3,1,0,0,rectangle_8,-4,-3,1,0,0,-4,-3,1,0,0,0,2,2,4,1,60fcf838690196411349151e,61036d0a1cbe328e09cf25f5,2021-07-29_23h15.49.894,Simcolourproject_2stim_asymm_v5,2020.2.10,MacIntel,60,61025ae37ef11b136ea224fe,,,,,,,,,,,,,,,,,,,,,,,,,,,,,,,,,,,,,,,,,,,,,,
,,,,,,,,,,,,118,FF,34,-64,1,0,0,response3disk_5,4,1.16,7,-8,1,0,0,rectangle_8,7,-8,1,0,0,7,-8,1,0,0,0,3,3,0,1,60fcf838690196411349151e,61036d0a1cbe328e09cf25f5,2021-07-29_23h15.49.894,Simcolourproject_2stim_asymm_v5,2020.2.10,MacIntel,60,61025ae37ef11b136ea224fe,,,,,,,,,,,,,,,,,,,,,,,,,,,,,,,,,,,,,,,,,,,,,,
,,,,,,,,,,,,116,FF,97,30,1,0,0,response1disk_5,6,2.32,-7,-3,1,0,0,rectangle_8,-23,83,1,0,0,3,6,1,0,0,0,4,4,5,1,60fcf838690196411349151e,61036d0a1cbe328e09cf25f5,2021-07-29_23h15.49.894,Simcolourproject_2stim_asymm_v5,2020.2.10,MacIntel,60,61025ae37ef11b136ea224fe,response7disk_7,0,2.027,0,"[2,5]",rectangle_4,,,,,,,,,,,,,,,,,,,,,,,,,,,,,,,,,,,,,,,,
,,,,,,,,,,,,102,PF,-40,102,1,0,0,response7disk_5,0,2.796,3,10,1,0,0,rectangle_8,3,10,1,0,0,3,10,1,0,0,0,5,5,6,1,60fcf838690196411349151e,61036d0a1cbe328e09cf25f5,2021-07-29_23h15.49.894,Simcolourproject_2stim_asymm_v5,2020.2.10,MacIntel,60,61025ae37ef11b136ea224fe,,,,,,,,,,,,,,,,,,,,,,,,,,,,,,,,,,,,,,,,,,,,,,
,,,,,,,,,,,,105,PF,83,-41,1,0,0,response3disk_5,5,3.825,13,-5,1,0,0,rectangle_8,13,-5,1,0,0,13,-5,1,0,0,0,6,6,2,1,60fcf838690196411349151e,61036d0a1cbe328e09cf25f5,2021-07-29_23h15.49.894,Simcolourproject_2stim_asymm_v5,2020.2.10,MacIntel,60,61025ae37ef11b136ea224fe,,,,,,,,,,,,,,,,,,,,,,,,,,,,,,,,,,,,,,,,,,,,,,
,,,,,,,,,,,,,FF,,,,,,,,4.974,,,,,,,,,,,,,,,,,,,,,,60fcf838690196411349151e,61036d0a1cbe328e09cf25f5,2021-07-29_23h15.49.894,Simcolourproject_2stim_asymm_v5,2020.2.10,MacIntel,60,61025ae37ef11b136ea224fe,,,,,,,space,2.099,3710,32,-93,1,0,0,response3disk,,4,-4,-3,1,0,0,rectangle,-4,-3,1,0,0,-4,-3,1,0,0,0,0,0,71,1,,,,,,,,
,,,,,,,,,,,,,FF,,,,,,,,3.935,,,,,,,,,,,,,,,,,,,,,,60fcf838690196411349151e,61036d0a1cbe328e09cf25f5,2021-07-29_23h15.49.894,Simcolourproject_2stim_asymm_v5,2020.2.10,MacIntel,60,61025ae37ef11b136ea224fe,,,,,,,,,2751,55,97,1,0,0,response1disk,,7,6,2,1,0,0,rectangle,6,2,1,0,0,6,2,1,0,0,0,1,1,150,1,,,,,,,,
,,,,,,,,,,,,,FF,,,,,,,,1.546,,,,,,,,,,,,,,,,,,,,,,60fcf838690196411349151e,61036d0a1cbe328e09cf25f5,2021-07-29_23h15.49.894,Simcolourproject_2stim_asymm_v5,2020.2.10,MacIntel,60,61025ae37ef11b136ea224fe,,,,,,,,,1296,-91,48,1,0,0,response7disk,,1,0,-3,1,0,0,rectangle,0,-3,1,0,0,0,-3,1,0,0,0,2,2,104,1,,,,,,,,
,,,,,,,,,,,,,FF,,,,,,,,1.271,,,,,,,,,,,,,,,,,,,,,,60fcf838690196411349151e,61036d0a1cbe328e09cf25f5,2021-07-29_23h15.49.894,Simcolourproject_2stim_asymm_v5,2020.2.10,MacIntel,60,61025ae37ef11b136ea224fe,,,,,,,,,1911,93,37,1,0,0,response1disk,,6,14,3,1,0,0,rectangle,14,3,1,0,0,14,3,1,0,0,0,3,3,83,1,,,,,,,,
,,,,,,,,,,,,,FF,,,,,,,,0.885,,,,,,,,,,,,,,,,,,,,,,60fcf838690196411349151e,61036d0a1cbe328e09cf25f5,2021-07-29_23h15.49.894,Simcolourproject_2stim_asymm_v5,2020.2.10,MacIntel,60,61025ae37ef11b136ea224fe,,,,,,,,,1998,41,65,1,0,0,response1disk,,7,16,0,1,0,0,rectangle,16,0,1,0,0,16,0,1,0,0,0,4,4,32,1,,,,,,,,
,,,,,,,,,,,,,FF,,,,,,,,1.035,,,,,,,,,,,,,,,,,,,,,,60fcf838690196411349151e,61036d0a1cbe328e09cf25f5,2021-07-29_23h15.49.894,Simcolourproject_2stim_asymm_v5,2020.2.10,MacIntel,60,61025ae37ef11b136ea224fe,,,,,,,,,1165,-50,-73,1,0,0,response5disk,,3,-6,5,1,0,0,rectangle,-6,5,1,0,0,-6,5,1,0,0,0,5,5,53,1,,,,,,,,
,,,,,,,,,,,,,FF,,,,,,,,1.55,,,,,,,,,,,,,,,,,,,,,,60fcf838690196411349151e,61036d0a1cbe328e09cf25f5,2021-07-29_23h15.49.894,Simcolourproject_2stim_asymm_v5,2020.2.10,MacIntel,60,61025ae37ef11b136ea224fe,,,,,,,,,2627,77,-45,1,0,0,response3disk,,5,25,3,1,0,0,rectangle,25,3,1,0,0,25,3,1,0,0,0,6,6,6,1,,,,,,,,
,,,,,,,,,,,,,FF,,,,,,,,1.219,,,,,,,,,,,,,,,,,,,,,,60fcf838690196411349151e,61036d0a1cbe328e09cf25f5,2021-07-29_23h15.49.894,Simcolourproject_2stim_asymm_v5,2020.2.10,MacIntel,60,61025ae37ef11b136ea224fe,,,,,,,,,2705,92,54,1,0,0,response1disk,,6,7,9,1,0,0,rectangle,7,9,1,0,0,7,9,1,0,0,0,7,7,72,1,,,,,,,,
,,,,,,,,,,,,,FF,,,,,,,,1.066,,,,,,,,,,,,,,,,,,,,,,60fcf838690196411349151e,61036d0a1cbe328e09cf25f5,2021-07-29_23h15.49.894,Simcolourproject_2stim_asymm_v5,2020.2.10,MacIntel,60,61025ae37ef11b136ea224fe,,,,,,,,,3000,-52,83,1,0,0,response7disk,,0,-4,0,1,0,0,rectangle,-4,0,1,0,0,-4,0,1,0,0,0,8,8,136,1,,,,,,,,
,,,,,,,,,,,,,FF,,,,,,,,1.787,,,,,,,,,,,,,,,,,,,,,,60fcf838690196411349151e,61036d0a1cbe328e09cf25f5,2021-07-29_23h15.49.894,Simcolourproject_2stim_asymm_v5,2020.2.10,MacIntel,60,61025ae37ef11b136ea224fe,,,,,,,,,1456,-47,-74,1,0,0,response5disk,,3,-22,-1,1,0,0,rectangle,-22,-1,1,0,0,-22,-1,1,0,0,0,9,9,4,1,,,,,,,,
,,,,,,,,,,,,,FF,,,,,,,,0.937,,,,,,,,,,,,,,,,,,,,,,60fcf838690196411349151e,61036d0a1cbe328e09cf25f5,2021-07-29_23h15.49.894,Simcolourproject_2stim_asymm_v5,2020.2.10,MacIntel,60,61025ae37ef11b136ea224fe,,,,,,,,,3763,112,26,1,0,0,response1disk,,6,8,13,1,0,0,rectangle,8,13,1,0,0,8,13,1,0,0,0,10,10,122,1,,,,,,,,
,,,,,,,,,,,,,FF,,,,,,,,1.932,,,,,,,,,,,,,,,,,,,,,,60fcf838690196411349151e,61036d0a1cbe328e09cf25f5,2021-07-29_23h15.49.894,Simcolourproject_2stim_asymm_v5,2020.2.10,MacIntel,60,61025ae37ef11b136ea224fe,,,,,,,,,2136,75,55,1,0,0,response1disk,,6,10,10,1,0,0,rectangle,10,10,1,0,0,10,10,1,0,0,0,11,11,123,1,,,,,,,,
,,,,,,,,,,,,,FF,,,,,,,,1.169,,,,,,,,,,,,,,,,,,,,,,60fcf838690196411349151e,61036d0a1cbe328e09cf25f5,2021-07-29_23h15.49.894,Simcolourproject_2stim_asymm_v5,2020.2.10,MacIntel,60,61025ae37ef11b136ea224fe,,,,,,,,,2507,35,73,1,0,0,response1disk,,7,17,-2,1,0,0,rectangle,91,-45,1,0,0,-1,9,1,0,0,0,12,12,105,1,,response3disk_3,TRUE,5,5,"[289,295,13,268,66,92,230,39,294,142,177,211,28,95,205,310,100,97,261,107]",2.702,rectangle
,,,,,,,,,,,,,FF,,,,,,,,1.293,,,,,,,,,,,,,,,,,,,,,,60fcf838690196411349151e,61036d0a1cbe328e09cf25f5,2021-07-29_23h15.49.894,Simcolourproject_2stim_asymm_v5,2020.2.10,MacIntel,60,61025ae37ef11b136ea224fe,,,,,,,,,747,44,-93,1,0,0,response3disk,,4,6,-5,1,0,0,rectangle,6,-5,1,0,0,6,-5,1,0,0,0,13,13,112,1,,,,,,,,
,,,,,,,,,,,,,FF,,,,,,,,0.72,,,,,,,,,,,,,,,,,,,,,,60fcf838690196411349151e,61036d0a1cbe328e09cf25f5,2021-07-29_23h15.49.894,Simcolourproject_2stim_asymm_v5,2020.2.10,MacIntel,60,61025ae37ef11b136ea224fe,,,,,,,,,1063,48,-102,1,0,0,response3disk,,4,8,-15,1,0,0,rectangle,8,-15,1,0,0,8,-15,1,0,0,0,14,14,82,1,,,,,,,,
,,,,,,,,,,,,,FF,,,,,,,,2.116,,,,,,,,,,,,,,,,,,,,,,60fcf838690196411349151e,61036d0a1cbe328e09cf25f5,2021-07-29_23h15.49.894,Simcolourproject_2stim_asymm_v5,2020.2.10,MacIntel,60,61025ae37ef11b136ea224fe,,,,,,,,,1550,98,-65,1,0,0,response3disk,,5,4,-3,1,0,0,rectangle,4,-3,1,0,0,4,-3,1,0,0,0,15,15,141,1,,,,,,,,
,,,,,,,,,,,,,FF,,,,,,,,2.888,,,,,,,,,,,,,,,,,,,,,,60fcf838690196411349151e,61036d0a1cbe328e09cf25f5,2021-07-29_23h15.49.894,Simcolourproject_2stim_asymm_v5,2020.2.10,MacIntel,60,61025ae37ef11b136ea224fe,,,,,,,,,4113,90,-42,1,0,0,response3disk,,5,8,1,1,0,0,rectangle,8,1,1,0,0,8,1,1,0,0,0,16,16,37,1,,,,,,,,
,,,,,,,,,,,,,FF,,,,,,,,1.345,,,,,,,,,,,,,,,,,,,,,,60fcf838690196411349151e,61036d0a1cbe328e09cf25f5,2021-07-29_23h15.49.894,Simcolourproject_2stim_asymm_v5,2020.2.10,MacIntel,60,61025ae37ef11b136ea224fe,,,,,,,,,2726,43,-101,1,0,0,response3disk,,4,3,-8,1,0,0,rectangle,3,-8,1,0,0,3,-8,1,0,0,0,17,17,36,1,,,,,,,,
,,,,,,,,,,,,,FF,,,,,,,,2.629,,,,,,,,,,,,,,,,,,,,,,60fcf838690196411349151e,61036d0a1cbe328e09cf25f5,2021-07-29_23h15.49.894,Simcolourproject_2stim_asymm_v5,2020.2.10,MacIntel,60,61025ae37ef11b136ea224fe,,,,,,,,,3641,103,41,1,0,0,response1disk,,6,-2,-2,1,0,0,rectangle,-2,-2,1,0,0,-2,-2,1,0,0,0,18,18,149,1,,,,,,,,
,,,,,,,,,,,,,FF,,,,,,,,2.056,,,,,,,,,,,,,,,,,,,,,,60fcf838690196411349151e,61036d0a1cbe328e09cf25f5,2021-07-29_23h15.49.894,Simcolourproject_2stim_asymm_v5,2020.2.10,MacIntel,60,61025ae37ef11b136ea224fe,,,,,,,,,3929,89,-42,1,0,0,response3disk,,5,7,-2,1,0,0,rectangle,7,-2,1,0,0,7,-2,1,0,0,0,19,19,39,1,,,,,,,,
,,,,,,,,,,,,,FF,,,,,,,,1.725,,,,,,,,,,,,,,,,,,,,,,60fcf838690196411349151e,61036d0a1cbe328e09cf25f5,2021-07-29_23h15.49.894,Simcolourproject_2stim_asymm_v5,2020.2.10,MacIntel,60,61025ae37ef11b136ea224fe,,,,,,,,,1975,49,-97,1,0,0,response3disk,,4,3,-12,1,0,0,rectangle,3,-12,1,0,0,3,-12,1,0,0,0,20,20,131,1,,,,,,,,
,,,,,,,,,,,,,FF,,,,,,,,1.891,,,,,,,,,,,,,,,,,,,,,,60fcf838690196411349151e,61036d0a1cbe328e09cf25f5,2021-07-29_23h15.49.894,Simcolourproject_2stim_asymm_v5,2020.2.10,MacIntel,60,61025ae37ef11b136ea224fe,,,,,,,,,1995,87,-42,1,0,0,response3disk,,5,16,6,1,0,0,rectangle,16,6,1,0,0,16,6,1,0,0,0,21,21,156,1,,,,,,,,
,,,,,,,,,,,,,FF,,,,,,,,1.342,,,,,,,,,,,,,,,,,,,,,,60fcf838690196411349151e,61036d0a1cbe328e09cf25f5,2021-07-29_23h15.49.894,Simcolourproject_2stim_asymm_v5,2020.2.10,MacIntel,60,61025ae37ef11b136ea224fe,,,,,,,,,86,98,50,1,0,0,response1disk,,6,9,10,1,0,0,rectangle,9,10,1,0,0,9,10,1,0,0,0,22,22,69,1,,,,,,,,
,,,,,,,,,,,,,FF,,,,,,,,3.24,,,,,,,,,,,,,,,,,,,,,,60fcf838690196411349151e,61036d0a1cbe328e09cf25f5,2021-07-29_23h15.49.894,Simcolourproject_2stim_asymm_v5,2020.2.10,MacIntel,60,61025ae37ef11b136ea224fe,,,,,,,,,1661,96,43,1,0,0,response1disk,,6,2,-5,1,0,0,rectangle,2,-5,1,0,0,2,-5,1,0,0,0,23,23,57,1,,,,,,,,
,,,,,,,,,,,,,FF,,,,,,,,1.536,,,,,,,,,,,,,,,,,,,,,,60fcf838690196411349151e,61036d0a1cbe328e09cf25f5,2021-07-29_23h15.49.894,Simcolourproject_2stim_asymm_v5,2020.2.10,MacIntel,60,61025ae37ef11b136ea224fe,,,,,,,,,3305,-70,-42,1,0,0,response5disk,,2,-5,-4,1,0,0,rectangle,-5,-4,1,0,0,-5,-4,1,0,0,0,24,24,101,1,,,,,,,,
,,,,,,,,,,,,,FF,,,,,,,,1.468,,,,,,,,,,,,,,,,,,,,,,60fcf838690196411349151e,61036d0a1cbe328e09cf25f5,2021-07-29_23h15.49.894,Simcolourproject_2stim_asymm_v5,2020.2.10,MacIntel,60,61025ae37ef11b136ea224fe,,,,,,,,,2092,102,50,1,0,0,response1disk,,6,14,0,1,0,0,rectangle,14,0,1,0,0,14,0,1,0,0,0,25,25,158,1,,,,,,,,
,,,,,,,,,,,,,FF,,,,,,,,3.711,,,,,,,,,,,,,,,,,,,,,,60fcf838690196411349151e,61036d0a1cbe328e09cf25f5,2021-07-29_23h15.49.894,Simcolourproject_2stim_asymm_v5,2020.2.10,MacIntel,60,61025ae37ef11b136ea224fe,,,,,,,,,3905,52,-86,1,0,0,response3disk,,4,-27,-2,1,0,0,rectangle,-27,-2,1,0,0,-27,-2,1,0,0,0,26,26,48,1,,,,,,,,
,,,,,,,,,,,,,FF,,,,,,,,1.809,,,,,,,,,,,,,,,,,,,,,,60fcf838690196411349151e,61036d0a1cbe328e09cf25f5,2021-07-29_23h15.49.894,Simcolourproject_2stim_asymm_v5,2020.2.10,MacIntel,60,61025ae37ef11b136ea224fe,,,,,,,,,3601,-44,-88,1,0,0,response5disk,,3,-12,11,1,0,0,rectangle,-39,-80,1,0,0,7,-3,1,0,0,0,27,27,85,1,,response5disk_3,TRUE,3,3,"[289,295,13,268,66,92,230,39,294,142,177,211,28,95,205,310,100,97,261,107]",1.921,rectangle
,,,,,,,,,,,,,FF,,,,,,,,51.82,,,,,,,,,,,,,,,,,,,,,,60fcf838690196411349151e,61036d0a1cbe328e09cf25f5,2021-07-29_23h15.49.894,Simcolourproject_2stim_asymm_v5,2020.2.10,MacIntel,60,61025ae37ef11b136ea224fe,,,,,,,,,3465,89,36,1,0,0,response1disk,,6,4,5,1,0,0,rectangle,4,5,1,0,0,4,5,1,0,0,0,28,28,40,1,,,,,,,,
,,,,,,,,,,,,,FF,,,,,,,,3.535,,,,,,,,,,,,,,,,,,,,,,60fcf838690196411349151e,61036d0a1cbe328e09cf25f5,2021-07-29_23h15.49.894,Simcolourproject_2stim_asymm_v5,2020.2.10,MacIntel,60,61025ae37ef11b136ea224fe,,,,,,,,,784,105,-53,1,0,0,response3disk,,5,11,1,1,0,0,rectangle,11,1,1,0,0,11,1,1,0,0,0,29,29,138,1,,,,,,,,
,,,,,,,,,,,,,FF,,,,,,,,1.785,,,,,,,,,,,,,,,,,,,,,,60fcf838690196411349151e,61036d0a1cbe328e09cf25f5,2021-07-29_23h15.49.894,Simcolourproject_2stim_asymm_v5,2020.2.10,MacIntel,60,61025ae37ef11b136ea224fe,,,,,,,,,1639,92,-31,1,0,0,response3disk,,5,6,-5,1,0,0,rectangle,6,-5,1,0,0,6,-5,1,0,0,0,30,30,121,1,,,,,,,,
,,,,,,,,,,,,,FF,,,,,,,,3.372,,,,,,,,,,,,,,,,,,,,,,60fcf838690196411349151e,61036d0a1cbe328e09cf25f5,2021-07-29_23h15.49.894,Simcolourproject_2stim_asymm_v5,2020.2.10,MacIntel,60,61025ae37ef11b136ea224fe,,,,,,,,,2120,74,-62,1,0,0,response3disk,,5,6,-6,1,0,0,rectangle,6,-6,1,0,0,6,-6,1,0,0,0,31,31,111,1,,,,,,,,
,,,,,,,,,,,,,FF,,,,,,,,1.792,,,,,,,,,,,,,,,,,,,,,,60fcf838690196411349151e,61036d0a1cbe328e09cf25f5,2021-07-29_23h15.49.894,Simcolourproject_2stim_asymm_v5,2020.2.10,MacIntel,60,61025ae37ef11b136ea224fe,,,,,,,,,3658,38,-81,1,0,0,response3disk,,4,2,2,1,0,0,rectangle,2,2,1,0,0,2,2,1,0,0,0,32,32,10,1,,,,,,,,
,,,,,,,,,,,,,FF,,,,,,,,1.392,,,,,,,,,,,,,,,,,,,,,,60fcf838690196411349151e,61036d0a1cbe328e09cf25f5,2021-07-29_23h15.49.894,Simcolourproject_2stim_asymm_v5,2020.2.10,MacIntel,60,61025ae37ef11b136ea224fe,,,,,,,,,361,87,-55,1,0,0,response3disk,,5,14,-9,1,0,0,rectangle,14,-9,1,0,0,14,-9,1,0,0,0,33,33,14,1,,,,,,,,
,,,,,,,,,,,,,FF,,,,,,,,0.69,,,,,,,,,,,,,,,,,,,,,,60fcf838690196411349151e,61036d0a1cbe328e09cf25f5,2021-07-29_23h15.49.894,Simcolourproject_2stim_asymm_v5,2020.2.10,MacIntel,60,61025ae37ef11b136ea224fe,,,,,,,,,363,101,-51,1,0,0,response3disk,,5,2,-8,1,0,0,rectangle,2,-8,1,0,0,2,-8,1,0,0,0,34,34,11,1,,,,,,,,
,,,,,,,,,,,,,FF,,,,,,,,3.695,,,,,,,,,,,,,,,,,,,,,,60fcf838690196411349151e,61036d0a1cbe328e09cf25f5,2021-07-29_23h15.49.894,Simcolourproject_2stim_asymm_v5,2020.2.10,MacIntel,60,61025ae37ef11b136ea224fe,,,,,,,,,3787,-84,-57,1,0,0,response5disk,,2,12,-4,1,0,0,rectangle,12,-4,1,0,0,12,-4,1,0,0,0,35,35,87,1,,,,,,,,
,,,,,,,,,,,,,FF,,,,,,,,2.087,,,,,,,,,,,,,,,,,,,,,,60fcf838690196411349151e,61036d0a1cbe328e09cf25f5,2021-07-29_23h15.49.894,Simcolourproject_2stim_asymm_v5,2020.2.10,MacIntel,60,61025ae37ef11b136ea224fe,,,,,,,,,1712,44,-77,1,0,0,response3disk,,4,2,-3,1,0,0,rectangle,2,-3,1,0,0,2,-3,1,0,0,0,36,36,133,1,,,,,,,,
,,,,,,,,,,,,,FF,,,,,,,,1.347,,,,,,,,,,,,,,,,,,,,,,60fcf838690196411349151e,61036d0a1cbe328e09cf25f5,2021-07-29_23h15.49.894,Simcolourproject_2stim_asymm_v5,2020.2.10,MacIntel,60,61025ae37ef11b136ea224fe,,,,,,,,,842,100,-28,1,0,0,response3disk,,5,14,0,1,0,0,rectangle,14,0,1,0,0,14,0,1,0,0,0,37,37,80,1,,,,,,,,
,,,,,,,,,,,,,FF,,,,,,,,1.294,,,,,,,,,,,,,,,,,,,,,,60fcf838690196411349151e,61036d0a1cbe328e09cf25f5,2021-07-29_23h15.49.894,Simcolourproject_2stim_asymm_v5,2020.2.10,MacIntel,60,61025ae37ef11b136ea224fe,,,,,,,,,1146,78,61,1,0,0,response1disk,,6,7,6,1,0,0,rectangle,-50,-77,1,0,0,-4,-1,1,0,0,0,38,38,54,1,,response5disk_3,TRUE,3,7,"[289,295,13,268,66,92,230,39,294,142,177,211,28,95,205,310,100,97,261,107]",2.256,rectangle
,,,,,,,,,,,,,FF,,,,,,,,2.519,,,,,,,,,,,,,,,,,,,,,,60fcf838690196411349151e,61036d0a1cbe328e09cf25f5,2021-07-29_23h15.49.894,Simcolourproject_2stim_asymm_v5,2020.2.10,MacIntel,60,61025ae37ef11b136ea224fe,,,,,,,,,2706,102,-38,1,0,0,response3disk,,5,13,-5,1,0,0,rectangle,13,-5,1,0,0,13,-5,1,0,0,0,39,39,67,1,,,,,,,,
,,,,,,,,,,,,,FF,,,,,,,,2.038,,,,,,,,,,,,,,,,,,,,,,60fcf838690196411349151e,61036d0a1cbe328e09cf25f5,2021-07-29_23h15.49.894,Simcolourproject_2stim_asymm_v5,2020.2.10,MacIntel,60,61025ae37ef11b136ea224fe,,,,,,,,,2992,99,46,1,0,0,response1disk,,6,16,1,1,0,0,rectangle,16,1,1,0,0,16,1,1,0,0,0,40,40,140,1,,,,,,,,
,,,,,,,,,,,,,FF,,,,,,,,1.281,,,,,,,,,,,,,,,,,,,,,,60fcf838690196411349151e,61036d0a1cbe328e09cf25f5,2021-07-29_23h15.49.894,Simcolourproject_2stim_asymm_v5,2020.2.10,MacIntel,60,61025ae37ef11b136ea224fe,,,,,,,,,353,-87,-49,1,0,0,response5disk,,2,6,6,1,0,0,rectangle,6,6,1,0,0,6,6,1,0,0,0,41,41,113,1,,,,,,,,
,,,,,,,,,,,,,FF,,,,,,,,1.673,,,,,,,,,,,,,,,,,,,,,,60fcf838690196411349151e,61036d0a1cbe328e09cf25f5,2021-07-29_23h15.49.894,Simcolourproject_2stim_asymm_v5,2020.2.10,MacIntel,60,61025ae37ef11b136ea224fe,,,,,,,,,3910,-81,-45,1,0,0,response5disk,,2,-16,-6,1,0,0,rectangle,-16,-6,1,0,0,-16,-6,1,0,0,0,42,42,120,1,,,,,,,,
,,,,,,,,,,,,,FF,,,,,,,,10.103,,,,,,,,,,,,,,,,,,,,,,60fcf838690196411349151e,61036d0a1cbe328e09cf25f5,2021-07-29_23h15.49.894,Simcolourproject_2stim_asymm_v5,2020.2.10,MacIntel,60,61025ae37ef11b136ea224fe,,,,,,,,,3413,91,-46,1,0,0,response3disk,,5,3,2,1,0,0,rectangle,3,2,1,0,0,3,2,1,0,0,0,43,43,100,1,,,,,,,,
,,,,,,,,,,,,,FF,,,,,,,,1.053,,,,,,,,,,,,,,,,,,,,,,60fcf838690196411349151e,61036d0a1cbe328e09cf25f5,2021-07-29_23h15.49.894,Simcolourproject_2stim_asymm_v5,2020.2.10,MacIntel,60,61025ae37ef11b136ea224fe,,,,,,,,,4070,93,42,1,0,0,response1disk,,6,-9,-5,1,0,0,rectangle,-9,-5,1,0,0,-9,-5,1,0,0,0,44,44,86,1,,,,,,,,
,,,,,,,,,,,,,FF,,,,,,,,1.112,,,,,,,,,,,,,,,,,,,,,,60fcf838690196411349151e,61036d0a1cbe328e09cf25f5,2021-07-29_23h15.49.894,Simcolourproject_2stim_asymm_v5,2020.2.10,MacIntel,60,61025ae37ef11b136ea224fe,,,,,,,,,1533,-44,-113,1,0,0,response5disk,,3,10,-8,1,0,0,rectangle,10,-8,1,0,0,10,-8,1,0,0,0,45,45,93,1,,,,,,,,
,,,,,,,,,,,,,FF,,,,,,,,0.931,,,,,,,,,,,,,,,,,,,,,,60fcf838690196411349151e,61036d0a1cbe328e09cf25f5,2021-07-29_23h15.49.894,Simcolourproject_2stim_asymm_v5,2020.2.10,MacIntel,60,61025ae37ef11b136ea224fe,,,,,,,,,3690,87,19,1,0,0,response1disk,,6,20,-12,1,0,0,rectangle,20,-12,1,0,0,20,-12,1,0,0,0,46,46,132,1,,,,,,,,
,,,,,,,,,,,,,FF,,,,,,,,1.304,,,,,,,,,,,,,,,,,,,,,,60fcf838690196411349151e,61036d0a1cbe328e09cf25f5,2021-07-29_23h15.49.894,Simcolourproject_2stim_asymm_v5,2020.2.10,MacIntel,60,61025ae37ef11b136ea224fe,,,,,,,,,3492,42,85,1,0,0,response1disk,,7,7,4,1,0,0,rectangle,7,4,1,0,0,7,4,1,0,0,0,47,47,159,1,,,,,,,,
,,,,,,,,,,,,,FF,,,,,,,,0.815,,,,,,,,,,,,,,,,,,,,,,60fcf838690196411349151e,61036d0a1cbe328e09cf25f5,2021-07-29_23h15.49.894,Simcolourproject_2stim_asymm_v5,2020.2.10,MacIntel,60,61025ae37ef11b136ea224fe,,,,,,,,,2029,43,-93,1,0,0,response3disk,,4,7,-5,1,0,0,rectangle,7,-5,1,0,0,7,-5,1,0,0,0,48,48,117,1,,,,,,,,
,,,,,,,,,,,,,FF,,,,,,,,2.257,,,,,,,,,,,,,,,,,,,,,,60fcf838690196411349151e,61036d0a1cbe328e09cf25f5,2021-07-29_23h15.49.894,Simcolourproject_2stim_asymm_v5,2020.2.10,MacIntel,60,61025ae37ef11b136ea224fe,,,,,,,,,13,60,-98,1,0,0,response3disk,,4,11,-4,1,0,0,rectangle,11,-4,1,0,0,11,-4,1,0,0,0,49,49,157,1,,,,,,,,
,,,,,,,,,,,,,FF,,,,,,,,1.132,,,,,,,,,,,,,,,,,,,,,,60fcf838690196411349151e,61036d0a1cbe328e09cf25f5,2021-07-29_23h15.49.894,Simcolourproject_2stim_asymm_v5,2020.2.10,MacIntel,60,61025ae37ef11b136ea224fe,,,,,,,,,4003,81,-61,1,0,0,response3disk,,5,-4,2,1,0,0,rectangle,-4,2,1,0,0,-4,2,1,0,0,0,50,50,152,1,,,,,,,,
,,,,,,,,,,,,,FF,,,,,,,,1.081,,,,,,,,,,,,,,,,,,,,,,60fcf838690196411349151e,61036d0a1cbe328e09cf25f5,2021-07-29_23h15.49.894,Simcolourproject_2stim_asymm_v5,2020.2.10,MacIntel,60,61025ae37ef11b136ea224fe,,,,,,,,,2088,72,-42,1,0,0,response3disk,,5,11,13,1,0,0,rectangle,11,13,1,0,0,11,13,1,0,0,0,51,51,129,1,,,,,,,,
,,,,,,,,,,,,,FF,,,,,,,,1.683,,,,,,,,,,,,,,,,,,,,,,60fcf838690196411349151e,61036d0a1cbe328e09cf25f5,2021-07-29_23h15.49.894,Simcolourproject_2stim_asymm_v5,2020.2.10,MacIntel,60,61025ae37ef11b136ea224fe,,,,,,,,,3127,44,100,1,0,0,response1disk,,7,-5,10,1,0,0,rectangle,-5,10,1,0,0,-5,10,1,0,0,0,52,52,44,1,,,,,,,,
,,,,,,,,,,,,,FF,,,,,,,,1.689,,,,,,,,,,,,,,,,,,,,,,60fcf838690196411349151e,61036d0a1cbe328e09cf25f5,2021-07-29_23h15.49.894,Simcolourproject_2stim_asymm_v5,2020.2.10,MacIntel,60,61025ae37ef11b136ea224fe,,,,,,,,,1864,42,71,1,0,0,response1disk,,7,2,-17,1,0,0,rectangle,2,-17,1,0,0,2,-17,1,0,0,0,53,53,1,1,,,,,,,,
,,,,,,,,,,,,,FF,,,,,,,,1.122,,,,,,,,,,,,,,,,,,,,,,60fcf838690196411349151e,61036d0a1cbe328e09cf25f5,2021-07-29_23h15.49.894,Simcolourproject_2stim_asymm_v5,2020.2.10,MacIntel,60,61025ae37ef11b136ea224fe,,,,,,,,,1241,42,-74,1,0,0,response3disk,,4,7,-4,1,0,0,rectangle,7,-4,1,0,0,7,-4,1,0,0,0,54,54,94,1,,,,,,,,
,,,,,,,,,,,,,FF,,,,,,,,1.205,,,,,,,,,,,,,,,,,,,,,,60fcf838690196411349151e,61036d0a1cbe328e09cf25f5,2021-07-29_23h15.49.894,Simcolourproject_2stim_asymm_v5,2020.2.10,MacIntel,60,61025ae37ef11b136ea224fe,,,,,,,,,2768,42,-79,1,0,0,response3disk,,4,4,-16,1,0,0,rectangle,4,-16,1,0,0,4,-16,1,0,0,0,55,55,107,1,,,,,,,,
,,,,,,,,,,,,,FF,,,,,,,,1.377,,,,,,,,,,,,,,,,,,,,,,60fcf838690196411349151e,61036d0a1cbe328e09cf25f5,2021-07-29_23h15.49.894,Simcolourproject_2stim_asymm_v5,2020.2.10,MacIntel,60,61025ae37ef11b136ea224fe,,,,,,,,,167,-53,-88,1,0,0,response5disk,,3,-2,6,1,0,0,rectangle,-2,6,1,0,0,-2,6,1,0,0,0,56,56,52,1,,,,,,,,
,,,,,,,,,,,,,FF,,,,,,,,1.346,,,,,,,,,,,,,,,,,,,,,,60fcf838690196411349151e,61036d0a1cbe328e09cf25f5,2021-07-29_23h15.49.894,Simcolourproject_2stim_asymm_v5,2020.2.10,MacIntel,60,61025ae37ef11b136ea224fe,,,,,,,,,3279,86,-42,1,0,0,response3disk,,5,4,1,1,0,0,rectangle,4,1,1,0,0,4,1,1,0,0,0,57,57,31,1,,,,,,,,
,,,,,,,,,,,,,FF,,,,,,,,1.115,,,,,,,,,,,,,,,,,,,,,,60fcf838690196411349151e,61036d0a1cbe328e09cf25f5,2021-07-29_23h15.49.894,Simcolourproject_2stim_asymm_v5,2020.2.10,MacIntel,60,61025ae37ef11b136ea224fe,,,,,,,,,3250,-85,-89,1,0,0,response5disk,,3,3,-3,1,0,0,rectangle,3,-3,1,0,0,3,-3,1,0,0,0,58,58,154,1,,,,,,,,
,,,,,,,,,,,,,FF,,,,,,,,0.972,,,,,,,,,,,,,,,,,,,,,,60fcf838690196411349151e,61036d0a1cbe328e09cf25f5,2021-07-29_23h15.49.894,Simcolourproject_2stim_asymm_v5,2020.2.10,MacIntel,60,61025ae37ef11b136ea224fe,,,,,,,,,3939,27,-72,1,0,0,response3disk,,4,9,-2,1,0,0,rectangle,9,-2,1,0,0,9,-2,1,0,0,0,59,59,2,1,,,,,,,,
,,,,,,,,,,,,,FF,,,,,,,,1.792,,,,,,,,,,,,,,,,,,,,,,60fcf838690196411349151e,61036d0a1cbe328e09cf25f5,2021-07-29_23h15.49.894,Simcolourproject_2stim_asymm_v5,2020.2.10,MacIntel,60,61025ae37ef11b136ea224fe,,,,,,,,,262,95,-38,1,0,0,response3disk,,5,18,-1,1,0,0,rectangle,18,-1,1,0,0,18,-1,1,0,0,0,60,60,98,1,,,,,,,,
,,,,,,,,,,,,,FF,,,,,,,,4.154,,,,,,,,,,,,,,,,,,,,,,60fcf838690196411349151e,61036d0a1cbe328e09cf25f5,2021-07-29_23h15.49.894,Simcolourproject_2stim_asymm_v5,2020.2.10,MacIntel,60,61025ae37ef11b136ea224fe,,,,,,,,,3703,79,31,1,0,0,response1disk,,6,-1,4,1,0,0,rectangle,-1,4,1,0,0,-1,4,1,0,0,0,61,61,77,1,,,,,,,,
,,,,,,,,,,,,,FF,,,,,,,,1.987,,,,,,,,,,,,,,,,,,,,,,60fcf838690196411349151e,61036d0a1cbe328e09cf25f5,2021-07-29_23h15.49.894,Simcolourproject_2stim_asymm_v5,2020.2.10,MacIntel,60,61025ae37ef11b136ea224fe,,,,,,,,,1996,111,52,1,0,0,response1disk,,6,12,-4,1,0,0,rectangle,12,-4,1,0,0,12,-4,1,0,0,0,62,62,55,1,,,,,,,,
,,,,,,,,,,,,,FF,,,,,,,,6.701,,,,,,,,,,,,,,,,,,,,,,60fcf838690196411349151e,61036d0a1cbe328e09cf25f5,2021-07-29_23h15.49.894,Simcolourproject_2stim_asymm_v5,2020.2.10,MacIntel,60,61025ae37ef11b136ea224fe,,,,,,,,,2510,-42,-98,1,0,0,response5disk,,3,11,-10,1,0,0,rectangle,11,-10,1,0,0,11,-10,1,0,0,0,63,63,65,1,,,,,,,,
,,,,,,,,,,,,,FF,,,,,,,,1.263,,,,,,,,,,,,,,,,,,,,,,60fcf838690196411349151e,61036d0a1cbe328e09cf25f5,2021-07-29_23h15.49.894,Simcolourproject_2stim_asymm_v5,2020.2.10,MacIntel,60,61025ae37ef11b136ea224fe,,,,,,,,,1713,81,-49,1,0,0,response3disk,,5,21,-8,1,0,0,rectangle,21,-8,1,0,0,21,-8,1,0,0,0,64,64,81,1,,,,,,,,
,,,,,,,,,,,,,FF,,,,,,,,0.904,,,,,,,,,,,,,,,,,,,,,,60fcf838690196411349151e,61036d0a1cbe328e09cf25f5,2021-07-29_23h15.49.894,Simcolourproject_2stim_asymm_v5,2020.2.10,MacIntel,60,61025ae37ef11b136ea224fe,,,,,,,,,2129,91,31,1,0,0,response1disk,,6,23,-1,1,0,0,rectangle,38,82,1,0,0,11,-2,1,0,0,0,65,65,142,1,,response1disk_3,TRUE,7,7,"[289,295,13,268,66,92,230,39,294,142,177,211,28,95,205,310,100,97,261,107]",2.254,rectangle
,,,,,,,,,,,,,FF,,,,,,,,1.078,,,,,,,,,,,,,,,,,,,,,,60fcf838690196411349151e,61036d0a1cbe328e09cf25f5,2021-07-29_23h15.49.894,Simcolourproject_2stim_asymm_v5,2020.2.10,MacIntel,60,61025ae37ef11b136ea224fe,,,,,,,,,38,66,-32,1,0,0,response3disk,,5,27,-9,1,0,0,rectangle,27,-9,1,0,0,27,-9,1,0,0,0,66,66,78,1,,,,,,,,
,,,,,,,,,,,,,FF,,,,,,,,1.092,,,,,,,,,,,,,,,,,,,,,,60fcf838690196411349151e,61036d0a1cbe328e09cf25f5,2021-07-29_23h15.49.894,Simcolourproject_2stim_asymm_v5,2020.2.10,MacIntel,60,61025ae37ef11b136ea224fe,,,,,,,,,4265,83,44,1,0,0,response1disk,,6,-5,11,1,0,0,rectangle,-5,11,1,0,0,-5,11,1,0,0,0,67,67,43,1,,,,,,,,
,,,,,,,,,,,,,FF,,,,,,,,2.547,,,,,,,,,,,,,,,,,,,,,,60fcf838690196411349151e,61036d0a1cbe328e09cf25f5,2021-07-29_23h15.49.894,Simcolourproject_2stim_asymm_v5,2020.2.10,MacIntel,60,61025ae37ef11b136ea224fe,,,,,,,,,1844,73,30,1,0,0,response1disk,,6,20,-3,1,0,0,rectangle,20,-3,1,0,0,20,-3,1,0,0,0,68,68,126,1,,,,,,,,
,,,,,,,,,,,,,FF,,,,,,,,1.057,,,,,,,,,,,,,,,,,,,,,,60fcf838690196411349151e,61036d0a1cbe328e09cf25f5,2021-07-29_23h15.49.894,Simcolourproject_2stim_asymm_v5,2020.2.10,MacIntel,60,61025ae37ef11b136ea224fe,,,,,,,,,3440,85,33,1,0,0,response1disk,,6,21,-5,1,0,0,rectangle,21,-5,1,0,0,21,-5,1,0,0,0,69,69,109,1,,,,,,,,
,,,,,,,,,,,,,FF,,,,,,,,1.23,,,,,,,,,,,,,,,,,,,,,,60fcf838690196411349151e,61036d0a1cbe328e09cf25f5,2021-07-29_23h15.49.894,Simcolourproject_2stim_asymm_v5,2020.2.10,MacIntel,60,61025ae37ef11b136ea224fe,,,,,,,,,3660,23,-88,1,0,0,response3disk,,4,9,-1,1,0,0,rectangle,9,-1,1,0,0,9,-1,1,0,0,0,70,70,148,1,,,,,,,,
,,,,,,,,,,,,,FF,,,,,,,,3.992,,,,,,,,,,,,,,,,,,,,,,60fcf838690196411349151e,61036d0a1cbe328e09cf25f5,2021-07-29_23h15.49.894,Simcolourproject_2stim_asymm_v5,2020.2.10,MacIntel,60,61025ae37ef11b136ea224fe,,,,,,,,,4273,40,-68,1,0,0,response3disk,,4,6,0,1,0,0,rectangle,6,0,1,0,0,6,0,1,0,0,0,71,71,24,1,,,,,,,,
,,,,,,,,,,,,,FF,,,,,,,,1.768,,,,,,,,,,,,,,,,,,,,,,60fcf838690196411349151e,61036d0a1cbe328e09cf25f5,2021-07-29_23h15.49.894,Simcolourproject_2stim_asymm_v5,2020.2.10,MacIntel,60,61025ae37ef11b136ea224fe,,,,,,,,,2148,90,31,1,0,0,response1disk,,6,17,1,1,0,0,rectangle,17,1,1,0,0,17,1,1,0,0,0,72,72,12,1,,,,,,,,
,,,,,,,,,,,,,FF,,,,,,,,1.985,,,,,,,,,,,,,,,,,,,,,,60fcf838690196411349151e,61036d0a1cbe328e09cf25f5,2021-07-29_23h15.49.894,Simcolourproject_2stim_asymm_v5,2020.2.10,MacIntel,60,61025ae37ef11b136ea224fe,,,,,,,,,3894,90,27,1,0,0,response1disk,,6,7,-2,1,0,0,rectangle,7,-2,1,0,0,7,-2,1,0,0,0,73,73,84,1,,,,,,,,
,,,,,,,,,,,,,FF,,,,,,,,1.909,,,,,,,,,,,,,,,,,,,,,,60fcf838690196411349151e,61036d0a1cbe328e09cf25f5,2021-07-29_23h15.49.894,Simcolourproject_2stim_asymm_v5,2020.2.10,MacIntel,60,61025ae37ef11b136ea224fe,,,,,,,,,1719,83,-58,1,0,0,response3disk,,5,-1,-5,1,0,0,rectangle,-1,-5,1,0,0,-1,-5,1,0,0,0,74,74,47,1,,,,,,,,
,,,,,,,,,,,,,FF,,,,,,,,2.378,,,,,,,,,,,,,,,,,,,,,,60fcf838690196411349151e,61036d0a1cbe328e09cf25f5,2021-07-29_23h15.49.894,Simcolourproject_2stim_asymm_v5,2020.2.10,MacIntel,60,61025ae37ef11b136ea224fe,,,,,,,,,3266,115,44,1,0,0,response1disk,,6,11,2,1,0,0,rectangle,11,2,1,0,0,11,2,1,0,0,0,75,75,60,1,,,,,,,,
,,,,,,,,,,,,,FF,,,,,,,,1.181,,,,,,,,,,,,,,,,,,,,,,60fcf838690196411349151e,61036d0a1cbe328e09cf25f5,2021-07-29_23h15.49.894,Simcolourproject_2stim_asymm_v5,2020.2.10,MacIntel,60,61025ae37ef11b136ea224fe,,,,,,,,,1885,90,-60,1,0,0,response3disk,,5,17,-16,1,0,0,rectangle,17,-16,1,0,0,17,-16,1,0,0,0,76,76,34,1,,,,,,,,
,,,,,,,,,,,,,FF,,,,,,,,2.688,,,,,,,,,,,,,,,,,,,,,,60fcf838690196411349151e,61036d0a1cbe328e09cf25f5,2021-07-29_23h15.49.894,Simcolourproject_2stim_asymm_v5,2020.2.10,MacIntel,60,61025ae37ef11b136ea224fe,,,,,,,,,4302,94,43,1,0,0,response1disk,,6,26,16,1,0,0,rectangle,26,16,1,0,0,26,16,1,0,0,0,77,77,51,1,,,,,,,,
,,,,,,,,,,,,,FF,,,,,,,,1.22,,,,,,,,,,,,,,,,,,,,,,60fcf838690196411349151e,61036d0a1cbe328e09cf25f5,2021-07-29_23h15.49.894,Simcolourproject_2stim_asymm_v5,2020.2.10,MacIntel,60,61025ae37ef11b136ea224fe,,,,,,,,,3889,-33,-81,1,0,0,response5disk,,3,2,7,1,0,0,rectangle,2,7,1,0,0,2,7,1,0,0,0,78,78,3,1,,,,,,,,
,,,,,,,,,,,,,FF,,,,,,,,1.251,,,,,,,,,,,,,,,,,,,,,,60fcf838690196411349151e,61036d0a1cbe328e09cf25f5,2021-07-29_23h15.49.894,Simcolourproject_2stim_asymm_v5,2020.2.10,MacIntel,60,61025ae37ef11b136ea224fe,,,,,,,,,2305,40,-81,1,0,0,response3disk,,4,10,-4,1,0,0,rectangle,10,-4,1,0,0,10,-4,1,0,0,0,79,79,155,1,,,,,,,,
,,,,,,,,,,,,,FF,,,,,,,,1.032,,,,,,,,,,,,,,,,,,,,,,60fcf838690196411349151e,61036d0a1cbe328e09cf25f5,2021-07-29_23h15.49.894,Simcolourproject_2stim_asymm_v5,2020.2.10,MacIntel,60,61025ae37ef11b136ea224fe,,,,,,,,,1323,82,39,1,0,0,response1disk,,6,5,12,1,0,0,rectangle,5,12,1,0,0,5,12,1,0,0,0,80,80,45,1,,,,,,,,
,,,,,,,,,,,,,FF,,,,,,,,2.878,,,,,,,,,,,,,,,,,,,,,,60fcf838690196411349151e,61036d0a1cbe328e09cf25f5,2021-07-29_23h15.49.894,Simcolourproject_2stim_asymm_v5,2020.2.10,MacIntel,60,61025ae37ef11b136ea224fe,,,,,,,,,338,81,40,1,0,0,response1disk,,6,-2,-3,1,0,0,rectangle,-2,-3,1,0,0,-2,-3,1,0,0,0,81,81,9,1,,,,,,,,
,,,,,,,,,,,,,FF,,,,,,,,1.138,,,,,,,,,,,,,,,,,,,,,,60fcf838690196411349151e,61036d0a1cbe328e09cf25f5,2021-07-29_23h15.49.894,Simcolourproject_2stim_asymm_v5,2020.2.10,MacIntel,60,61025ae37ef11b136ea224fe,,,,,,,,,1227,41,-92,1,0,0,response3disk,,4,7,-2,1,0,0,rectangle,7,-2,1,0,0,7,-2,1,0,0,0,82,82,110,1,,,,,,,,
,,,,,,,,,,,,,FF,,,,,,,,0.821,,,,,,,,,,,,,,,,,,,,,,60fcf838690196411349151e,61036d0a1cbe328e09cf25f5,2021-07-29_23h15.49.894,Simcolourproject_2stim_asymm_v5,2020.2.10,MacIntel,60,61025ae37ef11b136ea224fe,,,,,,,,,1186,43,92,1,0,0,response1disk,,7,2,4,1,0,0,rectangle,2,4,1,0,0,2,4,1,0,0,0,83,83,118,1,,,,,,,,
,,,,,,,,,,,,,FF,,,,,,,,3.419,,,,,,,,,,,,,,,,,,,,,,60fcf838690196411349151e,61036d0a1cbe328e09cf25f5,2021-07-29_23h15.49.894,Simcolourproject_2stim_asymm_v5,2020.2.10,MacIntel,60,61025ae37ef11b136ea224fe,,,,,,,,,1046,86,40,1,0,0,response1disk,,6,13,6,1,0,0,rectangle,13,6,1,0,0,13,6,1,0,0,0,84,84,134,1,,,,,,,,
,,,,,,,,,,,,,FF,,,,,,,,1.12,,,,,,,,,,,,,,,,,,,,,,60fcf838690196411349151e,61036d0a1cbe328e09cf25f5,2021-07-29_23h15.49.894,Simcolourproject_2stim_asymm_v5,2020.2.10,MacIntel,60,61025ae37ef11b136ea224fe,,,,,,,,,2483,-58,-98,1,0,0,response5disk,,3,0,1,1,0,0,rectangle,0,1,1,0,0,0,1,1,0,0,0,85,85,88,1,,,,,,,,
,,,,,,,,,,,,,FF,,,,,,,,0.889,,,,,,,,,,,,,,,,,,,,,,60fcf838690196411349151e,61036d0a1cbe328e09cf25f5,2021-07-29_23h15.49.894,Simcolourproject_2stim_asymm_v5,2020.2.10,MacIntel,60,61025ae37ef11b136ea224fe,,,,,,,,,3803,87,46,1,0,0,response1disk,,6,15,13,1,0,0,rectangle,15,13,1,0,0,15,13,1,0,0,0,86,86,97,1,,,,,,,,
,,,,,,,,,,,,,FF,,,,,,,,1.056,,,,,,,,,,,,,,,,,,,,,,60fcf838690196411349151e,61036d0a1cbe328e09cf25f5,2021-07-29_23h15.49.894,Simcolourproject_2stim_asymm_v5,2020.2.10,MacIntel,60,61025ae37ef11b136ea224fe,,,,,,,,,937,37,68,1,0,0,response1disk,,7,10,-10,1,0,0,rectangle,10,-10,1,0,0,10,-10,1,0,0,0,87,87,29,1,,,,,,,,
,,,,,,,,,,,,,FF,,,,,,,,0.96,,,,,,,,,,,,,,,,,,,,,,60fcf838690196411349151e,61036d0a1cbe328e09cf25f5,2021-07-29_23h15.49.894,Simcolourproject_2stim_asymm_v5,2020.2.10,MacIntel,60,61025ae37ef11b136ea224fe,,,,,,,,,767,32,69,1,0,0,response1disk,,7,20,-5,1,0,0,rectangle,20,-5,1,0,0,20,-5,1,0,0,0,88,88,38,1,,,,,,,,
,,,,,,,,,,,,,FF,,,,,,,,1.965,,,,,,,,,,,,,,,,,,,,,,60fcf838690196411349151e,61036d0a1cbe328e09cf25f5,2021-07-29_23h15.49.894,Simcolourproject_2stim_asymm_v5,2020.2.10,MacIntel,60,61025ae37ef11b136ea224fe,,,,,,,,,119,39,74,1,0,0,response1disk,,7,11,-4,1,0,0,rectangle,11,-4,1,0,0,11,-4,1,0,0,0,89,89,145,1,,,,,,,,
,,,,,,,,,,,,,FF,,,,,,,,1.432,,,,,,,,,,,,,,,,,,,,,,60fcf838690196411349151e,61036d0a1cbe328e09cf25f5,2021-07-29_23h15.49.894,Simcolourproject_2stim_asymm_v5,2020.2.10,MacIntel,60,61025ae37ef11b136ea224fe,,,,,,,,,2569,60,-71,1,0,0,response3disk,,4,5,-3,1,0,0,rectangle,5,-3,1,0,0,5,-3,1,0,0,0,90,90,103,1,,,,,,,,
,,,,,,,,,,,,,FF,,,,,,,,1.392,,,,,,,,,,,,,,,,,,,,,,60fcf838690196411349151e,61036d0a1cbe328e09cf25f5,2021-07-29_23h15.49.894,Simcolourproject_2stim_asymm_v5,2020.2.10,MacIntel,60,61025ae37ef11b136ea224fe,,,,,,,,,4178,76,33,1,0,0,response1disk,,6,17,-2,1,0,0,rectangle,-31,62,1,0,0,-8,4,1,0,0,0,91,91,73,1,,response7disk_3,TRUE,0,0,"[289,295,13,268,66,92,230,39,294,142,177,211,28,95,205,310,100,97,261,107]",1.657,rectangle
,,,,,,,,,,,,,FF,,,,,,,,1.118,,,,,,,,,,,,,,,,,,,,,,60fcf838690196411349151e,61036d0a1cbe328e09cf25f5,2021-07-29_23h15.49.894,Simcolourproject_2stim_asymm_v5,2020.2.10,MacIntel,60,61025ae37ef11b136ea224fe,,,,,,,,,2299,-28,-86,1,0,0,response5disk,,3,-11,-16,1,0,0,rectangle,-11,-16,1,0,0,-11,-16,1,0,0,0,92,92,96,1,,,,,,,,
,,,,,,,,,,,,,FF,,,,,,,,1.498,,,,,,,,,,,,,,,,,,,,,,60fcf838690196411349151e,61036d0a1cbe328e09cf25f5,2021-07-29_23h15.49.894,Simcolourproject_2stim_asymm_v5,2020.2.10,MacIntel,60,61025ae37ef11b136ea224fe,,,,,,,,,3092,80,-44,1,0,0,response3disk,,5,13,1,1,0,0,rectangle,13,1,1,0,0,13,1,1,0,0,0,93,93,23,1,,,,,,,,
,,,,,,,,,,,,,FF,,,,,,,,1.47,,,,,,,,,,,,,,,,,,,,,,60fcf838690196411349151e,61036d0a1cbe328e09cf25f5,2021-07-29_23h15.49.894,Simcolourproject_2stim_asymm_v5,2020.2.10,MacIntel,60,61025ae37ef11b136ea224fe,,,,,,,,,3139,48,-96,1,0,0,response3disk,,4,6,-16,1,0,0,rectangle,-43,-97,1,0,0,-10,-5,1,0,0,0,94,94,62,1,,response5disk_3,TRUE,3,3,"[289,295,13,268,66,92,230,39,294,142,177,211,28,95,205,310,100,97,261,107]",1.703,rectangle
,,,,,,,,,,,,,FF,,,,,,,,3.61,,,,,,,,,,,,,,,,,,,,,,60fcf838690196411349151e,61036d0a1cbe328e09cf25f5,2021-07-29_23h15.49.894,Simcolourproject_2stim_asymm_v5,2020.2.10,MacIntel,60,61025ae37ef11b136ea224fe,,,,,,,,,2720,86,-37,1,0,0,response3disk,,5,23,-6,1,0,0,rectangle,23,-6,1,0,0,23,-6,1,0,0,0,95,95,20,1,,,,,,,,
,,,,,,,,,,,,,FF,,,,,,,,1.305,,,,,,,,,,,,,,,,,,,,,,60fcf838690196411349151e,61036d0a1cbe328e09cf25f5,2021-07-29_23h15.49.894,Simcolourproject_2stim_asymm_v5,2020.2.10,MacIntel,60,61025ae37ef11b136ea224fe,,,,,,,,,407,53,90,1,0,0,response1disk,,7,12,-3,1,0,0,rectangle,-56,-100,1,0,0,5,-7,1,0,0,0,96,96,95,1,,response5disk_3,TRUE,3,3,"[289,295,13,268,66,92,230,39,294,142,177,211,28,95,205,310,100,97,261,107]",1.957,rectangle
,,,,,,,,,,,,,FF,,,,,,,,2.418,,,,,,,,,,,,,,,,,,,,,,60fcf838690196411349151e,61036d0a1cbe328e09cf25f5,2021-07-29_23h15.49.894,Simcolourproject_2stim_asymm_v5,2020.2.10,MacIntel,60,61025ae37ef11b136ea224fe,,,,,,,,,3074,40,66,1,0,0,response1disk,,7,14,10,1,0,0,rectangle,14,10,1,0,0,14,10,1,0,0,0,97,97,108,1,,,,,,,,
,,,,,,,,,,,,,FF,,,,,,,,0.948,,,,,,,,,,,,,,,,,,,,,,60fcf838690196411349151e,61036d0a1cbe328e09cf25f5,2021-07-29_23h15.49.894,Simcolourproject_2stim_asymm_v5,2020.2.10,MacIntel,60,61025ae37ef11b136ea224fe,,,,,,,,,1453,-36,-70,1,0,0,response5disk,,3,9,7,1,0,0,rectangle,9,7,1,0,0,9,7,1,0,0,0,98,98,68,1,,,,,,,,
,,,,,,,,,,,,,FF,,,,,,,,0.84,,,,,,,,,,,,,,,,,,,,,,60fcf838690196411349151e,61036d0a1cbe328e09cf25f5,2021-07-29_23h15.49.894,Simcolourproject_2stim_asymm_v5,2020.2.10,MacIntel,60,61025ae37ef11b136ea224fe,,,,,,,,,2066,44,77,1,0,0,response1disk,,7,7,-10,1,0,0,rectangle,83,-53,1,0,0,12,-8,1,0,0,0,99,99,27,1,,response3disk_3,TRUE,5,5,"[289,295,13,268,66,92,230,39,294,142,177,211,28,95,205,310,100,97,261,107]",1.606,rectangle
,,,,,,,,,,,,,FF,,,,,,,,1.375,,,,,,,,,,,,,,,,,,,,,,60fcf838690196411349151e,61036d0a1cbe328e09cf25f5,2021-07-29_23h15.49.894,Simcolourproject_2stim_asymm_v5,2020.2.10,MacIntel,60,61025ae37ef11b136ea224fe,,,,,,,,,3844,-84,-55,1,0,0,response5disk,,2,-12,-2,1,0,0,rectangle,-12,-2,1,0,0,-12,-2,1,0,0,0,100,100,28,1,,,,,,,,
,,,,,,,,,,,,,FF,,,,,,,,3.548,,,,,,,,,,,,,,,,,,,,,,60fcf838690196411349151e,61036d0a1cbe328e09cf25f5,2021-07-29_23h15.49.894,Simcolourproject_2stim_asymm_v5,2020.2.10,MacIntel,60,61025ae37ef11b136ea224fe,,,,,,,,,1884,75,-51,1,0,0,response3disk,,5,6,-14,1,0,0,rectangle,6,-14,1,0,0,6,-14,1,0,0,0,101,101,130,1,,,,,,,,
,,,,,,,,,,,,,FF,,,,,,,,1.133,,,,,,,,,,,,,,,,,,,,,,60fcf838690196411349151e,61036d0a1cbe328e09cf25f5,2021-07-29_23h15.49.894,Simcolourproject_2stim_asymm_v5,2020.2.10,MacIntel,60,61025ae37ef11b136ea224fe,,,,,,,,,4362,-94,27,1,0,0,response7disk,,1,-6,-2,1,0,0,rectangle,-6,-2,1,0,0,-6,-2,1,0,0,0,102,102,18,1,,,,,,,,
,,,,,,,,,,,,,FF,,,,,,,,0.987,,,,,,,,,,,,,,,,,,,,,,60fcf838690196411349151e,61036d0a1cbe328e09cf25f5,2021-07-29_23h15.49.894,Simcolourproject_2stim_asymm_v5,2020.2.10,MacIntel,60,61025ae37ef11b136ea224fe,,,,,,,,,3217,101,28,1,0,0,response1disk,,6,2,-1,1,0,0,rectangle,2,-1,1,0,0,2,-1,1,0,0,0,103,103,137,1,,,,,,,,
,,,,,,,,,,,,,FF,,,,,,,,0.876,,,,,,,,,,,,,,,,,,,,,,60fcf838690196411349151e,61036d0a1cbe328e09cf25f5,2021-07-29_23h15.49.894,Simcolourproject_2stim_asymm_v5,2020.2.10,MacIntel,60,61025ae37ef11b136ea224fe,,,,,,,,,1603,-77,30,1,0,0,response7disk,,1,-8,6,1,0,0,rectangle,-8,6,1,0,0,-8,6,1,0,0,0,104,104,147,1,,,,,,,,
,,,,,,,,,,,,,FF,,,,,,,,1.408,,,,,,,,,,,,,,,,,,,,,,60fcf838690196411349151e,61036d0a1cbe328e09cf25f5,2021-07-29_23h15.49.894,Simcolourproject_2stim_asymm_v5,2020.2.10,MacIntel,60,61025ae37ef11b136ea224fe,,,,,,,,,3103,32,-89,1,0,0,response3disk,,4,8,6,1,0,0,rectangle,8,6,1,0,0,8,6,1,0,0,0,105,105,76,1,,,,,,,,
,,,,,,,,,,,,,FF,,,,,,,,0.729,,,,,,,,,,,,,,,,,,,,,,60fcf838690196411349151e,61036d0a1cbe328e09cf25f5,2021-07-29_23h15.49.894,Simcolourproject_2stim_asymm_v5,2020.2.10,MacIntel,60,61025ae37ef11b136ea224fe,,,,,,,,,1614,31,-77,1,0,0,response3disk,,4,13,-6,1,0,0,rectangle,92,-50,1,0,0,9,-2,1,0,0,0,106,106,151,1,,response3disk_3,TRUE,5,5,"[289,295,13,268,66,92,230,39,294,142,177,211,28,95,205,310,100,97,261,107]",2.051,rectangle
,,,,,,,,,,,,,FF,,,,,,,,1.476,,,,,,,,,,,,,,,,,,,,,,60fcf838690196411349151e,61036d0a1cbe328e09cf25f5,2021-07-29_23h15.49.894,Simcolourproject_2stim_asymm_v5,2020.2.10,MacIntel,60,61025ae37ef11b136ea224fe,,,,,,,,,3457,31,76,1,0,0,response1disk,,7,8,16,1,0,0,rectangle,8,16,1,0,0,8,16,1,0,0,0,107,107,119,1,,,,,,,,
,,,,,,,,,,,,,FF,,,,,,,,0.743,,,,,,,,,,,,,,,,,,,,,,60fcf838690196411349151e,61036d0a1cbe328e09cf25f5,2021-07-29_23h15.49.894,Simcolourproject_2stim_asymm_v5,2020.2.10,MacIntel,60,61025ae37ef11b136ea224fe,,,,,,,,,2233,-36,-83,1,0,0,response5disk,,3,17,-4,1,0,0,rectangle,17,-4,1,0,0,17,-4,1,0,0,0,108,108,0,1,,,,,,,,
,,,,,,,,,,,,,FF,,,,,,,,1.518,,,,,,,,,,,,,,,,,,,,,,60fcf838690196411349151e,61036d0a1cbe328e09cf25f5,2021-07-29_23h15.49.894,Simcolourproject_2stim_asymm_v5,2020.2.10,MacIntel,60,61025ae37ef11b136ea224fe,,,,,,,,,1493,49,93,1,0,0,response1disk,,7,15,2,1,0,0,rectangle,15,2,1,0,0,15,2,1,0,0,0,109,109,63,1,,,,,,,,
,,,,,,,,,,,,,FF,,,,,,,,1.438,,,,,,,,,,,,,,,,,,,,,,60fcf838690196411349151e,61036d0a1cbe328e09cf25f5,2021-07-29_23h15.49.894,Simcolourproject_2stim_asymm_v5,2020.2.10,MacIntel,60,61025ae37ef11b136ea224fe,,,,,,,,,1722,94,41,1,0,0,response1disk,,6,26,4,1,0,0,rectangle,26,4,1,0,0,26,4,1,0,0,0,110,110,58,1,,,,,,,,
,,,,,,,,,,,,,FF,,,,,,,,1.158,,,,,,,,,,,,,,,,,,,,,,60fcf838690196411349151e,61036d0a1cbe328e09cf25f5,2021-07-29_23h15.49.894,Simcolourproject_2stim_asymm_v5,2020.2.10,MacIntel,60,61025ae37ef11b136ea224fe,,,,,,,,,4072,81,50,1,0,0,response1disk,,6,34,8,1,0,0,rectangle,34,8,1,0,0,34,8,1,0,0,0,111,111,22,1,,,,,,,,
,,,,,,,,,,,,,FF,,,,,,,,1.151,,,,,,,,,,,,,,,,,,,,,,60fcf838690196411349151e,61036d0a1cbe328e09cf25f5,2021-07-29_23h15.49.894,Simcolourproject_2stim_asymm_v5,2020.2.10,MacIntel,60,61025ae37ef11b136ea224fe,,,,,,,,,1123,94,53,1,0,0,response1disk,,6,11,5,1,0,0,rectangle,11,5,1,0,0,11,5,1,0,0,0,112,112,139,1,,,,,,,,
,,,,,,,,,,,,,FF,,,,,,,,0.817,,,,,,,,,,,,,,,,,,,,,,60fcf838690196411349151e,61036d0a1cbe328e09cf25f5,2021-07-29_23h15.49.894,Simcolourproject_2stim_asymm_v5,2020.2.10,MacIntel,60,61025ae37ef11b136ea224fe,,,,,,,,,3927,46,83,1,0,0,response1disk,,7,-9,-15,1,0,0,rectangle,-9,-15,1,0,0,-9,-15,1,0,0,0,113,113,7,1,,,,,,,,
,,,,,,,,,,,,,FF,,,,,,,,1.347,,,,,,,,,,,,,,,,,,,,,,60fcf838690196411349151e,61036d0a1cbe328e09cf25f5,2021-07-29_23h15.49.894,Simcolourproject_2stim_asymm_v5,2020.2.10,MacIntel,60,61025ae37ef11b136ea224fe,,,,,,,,,1121,48,-90,1,0,0,response3disk,,4,6,-3,1,0,0,rectangle,6,-3,1,0,0,6,-3,1,0,0,0,114,114,41,1,,,,,,,,
,,,,,,,,,,,,,FF,,,,,,,,1.926,,,,,,,,,,,,,,,,,,,,,,60fcf838690196411349151e,61036d0a1cbe328e09cf25f5,2021-07-29_23h15.49.894,Simcolourproject_2stim_asymm_v5,2020.2.10,MacIntel,60,61025ae37ef11b136ea224fe,,,,,,,,,2384,81,48,1,0,0,response1disk,,6,24,13,1,0,0,rectangle,24,13,1,0,0,24,13,1,0,0,0,115,115,19,1,,,,,,,,
,,,,,,,,,,,,,FF,,,,,,,,0.891,,,,,,,,,,,,,,,,,,,,,,60fcf838690196411349151e,61036d0a1cbe328e09cf25f5,2021-07-29_23h15.49.894,Simcolourproject_2stim_asymm_v5,2020.2.10,MacIntel,60,61025ae37ef11b136ea224fe,,,,,,,,,3002,-51,-102,1,0,0,response5disk,,3,-15,-18,1,0,0,rectangle,-15,-18,1,0,0,-15,-18,1,0,0,0,116,116,17,1,,,,,,,,
,,,,,,,,,,,,,FF,,,,,,,,0.965,,,,,,,,,,,,,,,,,,,,,,60fcf838690196411349151e,61036d0a1cbe328e09cf25f5,2021-07-29_23h15.49.894,Simcolourproject_2stim_asymm_v5,2020.2.10,MacIntel,60,61025ae37ef11b136ea224fe,,,,,,,,,3045,-83,22,1,0,0,response7disk,,1,5,-5,1,0,0,rectangle,5,-5,1,0,0,5,-5,1,0,0,0,117,117,16,1,,,,,,,,
,,,,,,,,,,,,,FF,,,,,,,,1.672,,,,,,,,,,,,,,,,,,,,,,60fcf838690196411349151e,61036d0a1cbe328e09cf25f5,2021-07-29_23h15.49.894,Simcolourproject_2stim_asymm_v5,2020.2.10,MacIntel,60,61025ae37ef11b136ea224fe,,,,,,,,,762,85,27,1,0,0,response1disk,,6,12,-2,1,0,0,rectangle,12,-2,1,0,0,12,-2,1,0,0,0,118,118,74,1,,,,,,,,
,,,,,,,,,,,,,FF,,,,,,,,1.283,,,,,,,,,,,,,,,,,,,,,,60fcf838690196411349151e,61036d0a1cbe328e09cf25f5,2021-07-29_23h15.49.894,Simcolourproject_2stim_asymm_v5,2020.2.10,MacIntel,60,61025ae37ef11b136ea224fe,,,,,,,,,3164,-71,-52,1,0,0,response5disk,,2,2,-10,1,0,0,rectangle,2,-10,1,0,0,2,-10,1,0,0,0,119,119,92,1,,,,,,,,
,,,,,,,,,,,,,FF,,,,,,,,0.837,,,,,,,,,,,,,,,,,,,,,,60fcf838690196411349151e,61036d0a1cbe328e09cf25f5,2021-07-29_23h15.49.894,Simcolourproject_2stim_asymm_v5,2020.2.10,MacIntel,60,61025ae37ef11b136ea224fe,,,,,,,,,2616,76,53,1,0,0,response1disk,,6,5,14,1,0,0,rectangle,5,14,1,0,0,5,14,1,0,0,0,120,120,116,1,,,,,,,,
,,,,,,,,,,,,,FF,,,,,,,,1.894,,,,,,,,,,,,,,,,,,,,,,60fcf838690196411349151e,61036d0a1cbe328e09cf25f5,2021-07-29_23h15.49.894,Simcolourproject_2stim_asymm_v5,2020.2.10,MacIntel,60,61025ae37ef11b136ea224fe,,,,,,,,,1798,44,75,1,0,0,response1disk,,7,9,3,1,0,0,rectangle,9,3,1,0,0,9,3,1,0,0,0,121,121,50,1,,,,,,,,
,,,,,,,,,,,,,FF,,,,,,,,1.075,,,,,,,,,,,,,,,,,,,,,,60fcf838690196411349151e,61036d0a1cbe328e09cf25f5,2021-07-29_23h15.49.894,Simcolourproject_2stim_asymm_v5,2020.2.10,MacIntel,60,61025ae37ef11b136ea224fe,,,,,,,,,2495,37,-96,1,0,0,response3disk,,4,6,-2,1,0,0,rectangle,6,-2,1,0,0,6,-2,1,0,0,0,122,122,15,1,,,,,,,,
,,,,,,,,,,,,,FF,,,,,,,,1.205,,,,,,,,,,,,,,,,,,,,,,60fcf838690196411349151e,61036d0a1cbe328e09cf25f5,2021-07-29_23h15.49.894,Simcolourproject_2stim_asymm_v5,2020.2.10,MacIntel,60,61025ae37ef11b136ea224fe,,,,,,,,,765,23,70,1,0,0,response1disk,,7,12,11,1,0,0,rectangle,12,11,1,0,0,12,11,1,0,0,0,123,123,5,1,,,,,,,,
,,,,,,,,,,,,,FF,,,,,,,,2.812,,,,,,,,,,,,,,,,,,,,,,60fcf838690196411349151e,61036d0a1cbe328e09cf25f5,2021-07-29_23h15.49.894,Simcolourproject_2stim_asymm_v5,2020.2.10,MacIntel,60,61025ae37ef11b136ea224fe,,,,,,,,,3085,48,94,1,0,0,response1disk,,7,20,-14,1,0,0,rectangle,20,-14,1,0,0,20,-14,1,0,0,0,124,124,66,1,,,,,,,,
,,,,,,,,,,,,,FF,,,,,,,,0.985,,,,,,,,,,,,,,,,,,,,,,60fcf838690196411349151e,61036d0a1cbe328e09cf25f5,2021-07-29_23h15.49.894,Simcolourproject_2stim_asymm_v5,2020.2.10,MacIntel,60,61025ae37ef11b136ea224fe,,,,,,,,,1404,59,37,1,0,0,response1disk,,6,18,-3,1,0,0,rectangle,18,-3,1,0,0,18,-3,1,0,0,0,125,125,75,1,,,,,,,,
,,,,,,,,,,,,,FF,,,,,,,,1.833,,,,,,,,,,,,,,,,,,,,,,60fcf838690196411349151e,61036d0a1cbe328e09cf25f5,2021-07-29_23h15.49.894,Simcolourproject_2stim_asymm_v5,2020.2.10,MacIntel,60,61025ae37ef11b136ea224fe,,,,,,,,,2804,86,-37,1,0,0,response3disk,,5,28,3,1,0,0,rectangle,28,3,1,0,0,28,3,1,0,0,0,126,126,125,1,,,,,,,,
,,,,,,,,,,,,,FF,,,,,,,,1.505,,,,,,,,,,,,,,,,,,,,,,60fcf838690196411349151e,61036d0a1cbe328e09cf25f5,2021-07-29_23h15.49.894,Simcolourproject_2stim_asymm_v5,2020.2.10,MacIntel,60,61025ae37ef11b136ea224fe,,,,,,,,,3577,100,-55,1,0,0,response3disk,,5,19,2,1,0,0,rectangle,19,2,1,0,0,19,2,1,0,0,0,127,127,106,1,,,,,,,,
,,,,,,,,,,,,,FF,,,,,,,,2.747,,,,,,,,,,,,,,,,,,,,,,60fcf838690196411349151e,61036d0a1cbe328e09cf25f5,2021-07-29_23h15.49.894,Simcolourproject_2stim_asymm_v5,2020.2.10,MacIntel,60,61025ae37ef11b136ea224fe,,,,,,,,,377,79,63,1,0,0,response1disk,,6,18,-4,1,0,0,rectangle,18,-4,1,0,0,18,-4,1,0,0,0,128,128,144,1,,,,,,,,
,,,,,,,,,,,,,FF,,,,,,,,1.304,,,,,,,,,,,,,,,,,,,,,,60fcf838690196411349151e,61036d0a1cbe328e09cf25f5,2021-07-29_23h15.49.894,Simcolourproject_2stim_asymm_v5,2020.2.10,MacIntel,60,61025ae37ef11b136ea224fe,,,,,,,,,3589,37,72,1,0,0,response1disk,,7,10,-12,1,0,0,rectangle,10,-12,1,0,0,10,-12,1,0,0,0,129,129,70,1,,,,,,,,
,,,,,,,,,,,,,FF,,,,,,,,0.874,,,,,,,,,,,,,,,,,,,,,,60fcf838690196411349151e,61036d0a1cbe328e09cf25f5,2021-07-29_23h15.49.894,Simcolourproject_2stim_asymm_v5,2020.2.10,MacIntel,60,61025ae37ef11b136ea224fe,,,,,,,,,950,35,79,1,0,0,response1disk,,7,8,7,1,0,0,rectangle,8,7,1,0,0,8,7,1,0,0,0,130,130,25,1,,,,,,,,
,,,,,,,,,,,,,FF,,,,,,,,0.869,,,,,,,,,,,,,,,,,,,,,,60fcf838690196411349151e,61036d0a1cbe328e09cf25f5,2021-07-29_23h15.49.894,Simcolourproject_2stim_asymm_v5,2020.2.10,MacIntel,60,61025ae37ef11b136ea224fe,,,,,,,,,1452,-92,-43,1,0,0,response5disk,,2,-20,-4,1,0,0,rectangle,-20,-4,1,0,0,-20,-4,1,0,0,0,131,131,35,1,,,,,,,,
,,,,,,,,,,,,,FF,,,,,,,,1.28,,,,,,,,,,,,,,,,,,,,,,60fcf838690196411349151e,61036d0a1cbe328e09cf25f5,2021-07-29_23h15.49.894,Simcolourproject_2stim_asymm_v5,2020.2.10,MacIntel,60,61025ae37ef11b136ea224fe,,,,,,,,,1049,94,49,1,0,0,response1disk,,6,20,0,1,0,0,rectangle,20,0,1,0,0,20,0,1,0,0,0,132,132,49,1,,,,,,,,
,,,,,,,,,,,,,FF,,,,,,,,0.953,,,,,,,,,,,,,,,,,,,,,,60fcf838690196411349151e,61036d0a1cbe328e09cf25f5,2021-07-29_23h15.49.894,Simcolourproject_2stim_asymm_v5,2020.2.10,MacIntel,60,61025ae37ef11b136ea224fe,,,,,,,,,2775,-85,28,1,0,0,response7disk,,1,6,-2,1,0,0,rectangle,6,-2,1,0,0,6,-2,1,0,0,0,133,133,99,1,,,,,,,,
,,,,,,,,,,,,,FF,,,,,,,,1.574,,,,,,,,,,,,,,,,,,,,,,60fcf838690196411349151e,61036d0a1cbe328e09cf25f5,2021-07-29_23h15.49.894,Simcolourproject_2stim_asymm_v5,2020.2.10,MacIntel,60,61025ae37ef11b136ea224fe,,,,,,,,,3199,-33,-93,1,0,0,response5disk,,3,4,-7,1,0,0,rectangle,4,-7,1,0,0,4,-7,1,0,0,0,134,134,89,1,,,,,,,,
,,,,,,,,,,,,,FF,,,,,,,,1.051,,,,,,,,,,,,,,,,,,,,,,60fcf838690196411349151e,61036d0a1cbe328e09cf25f5,2021-07-29_23h15.49.894,Simcolourproject_2stim_asymm_v5,2020.2.10,MacIntel,60,61025ae37ef11b136ea224fe,,,,,,,,,366,-96,48,1,0,0,response7disk,,1,1,2,1,0,0,rectangle,1,2,1,0,0,1,2,1,0,0,0,135,135,21,1,,,,,,,,
,,,,,,,,,,,,,FF,,,,,,,,1.033,,,,,,,,,,,,,,,,,,,,,,60fcf838690196411349151e,61036d0a1cbe328e09cf25f5,2021-07-29_23h15.49.894,Simcolourproject_2stim_asymm_v5,2020.2.10,MacIntel,60,61025ae37ef11b136ea224fe,,,,,,,,,3670,-79,-27,1,0,0,response5disk,,2,5,5,1,0,0,rectangle,5,5,1,0,0,5,5,1,0,0,0,136,136,114,1,,,,,,,,
,,,,,,,,,,,,,FF,,,,,,,,0.736,,,,,,,,,,,,,,,,,,,,,,60fcf838690196411349151e,61036d0a1cbe328e09cf25f5,2021-07-29_23h15.49.894,Simcolourproject_2stim_asymm_v5,2020.2.10,MacIntel,60,61025ae37ef11b136ea224fe,,,,,,,,,3080,86,30,1,0,0,response1disk,,6,14,-10,1,0,0,rectangle,14,-10,1,0,0,14,-10,1,0,0,0,137,137,26,1,,,,,,,,
,,,,,,,,,,,,,FF,,,,,,,,0.786,,,,,,,,,,,,,,,,,,,,,,60fcf838690196411349151e,61036d0a1cbe328e09cf25f5,2021-07-29_23h15.49.894,Simcolourproject_2stim_asymm_v5,2020.2.10,MacIntel,60,61025ae37ef11b136ea224fe,,,,,,,,,1014,27,68,1,0,0,response1disk,,7,-2,3,1,0,0,rectangle,-2,3,1,0,0,-2,3,1,0,0,0,138,138,59,1,,,,,,,,
,,,,,,,,,,,,,FF,,,,,,,,1.009,,,,,,,,,,,,,,,,,,,,,,60fcf838690196411349151e,61036d0a1cbe328e09cf25f5,2021-07-29_23h15.49.894,Simcolourproject_2stim_asymm_v5,2020.2.10,MacIntel,60,61025ae37ef11b136ea224fe,,,,,,,,,3777,-64,-92,1,0,0,response5disk,,3,-17,-16,1,0,0,rectangle,-17,-16,1,0,0,-17,-16,1,0,0,0,139,139,146,1,,,,,,,,
,,,,,,,,,,,,,FF,,,,,,,,0.654,,,,,,,,,,,,,,,,,,,,,,60fcf838690196411349151e,61036d0a1cbe328e09cf25f5,2021-07-29_23h15.49.894,Simcolourproject_2stim_asymm_v5,2020.2.10,MacIntel,60,61025ae37ef11b136ea224fe,,,,,,,,,3784,-34,-89,1,0,0,response5disk,,3,-2,-1,1,0,0,rectangle,-2,-1,1,0,0,-2,-1,1,0,0,0,140,140,153,1,,,,,,,,
,,,,,,,,,,,,,FF,,,,,,,,0.794,,,,,,,,,,,,,,,,,,,,,,60fcf838690196411349151e,61036d0a1cbe328e09cf25f5,2021-07-29_23h15.49.894,Simcolourproject_2stim_asymm_v5,2020.2.10,MacIntel,60,61025ae37ef11b136ea224fe,,,,,,,,,3241,79,-36,1,0,0,response3disk,,5,25,0,1,0,0,rectangle,39,85,1,0,0,18,5,1,0,0,0,141,141,61,1,,response1disk_3,TRUE,7,7,"[289,295,13,268,66,92,230,39,294,142,177,211,28,95,205,310,100,97,261,107]",1.567,rectangle
,,,,,,,,,,,,,FF,,,,,,,,1.956,,,,,,,,,,,,,,,,,,,,,,60fcf838690196411349151e,61036d0a1cbe328e09cf25f5,2021-07-29_23h15.49.894,Simcolourproject_2stim_asymm_v5,2020.2.10,MacIntel,60,61025ae37ef11b136ea224fe,,,,,,,,,1794,65,33,1,0,0,response1disk,,6,8,-10,1,0,0,rectangle,8,-10,1,0,0,8,-10,1,0,0,0,142,142,64,1,,,,,,,,
,,,,,,,,,,,,,FF,,,,,,,,2.168,,,,,,,,,,,,,,,,,,,,,,60fcf838690196411349151e,61036d0a1cbe328e09cf25f5,2021-07-29_23h15.49.894,Simcolourproject_2stim_asymm_v5,2020.2.10,MacIntel,60,61025ae37ef11b136ea224fe,,,,,,,,,1086,71,-50,1,0,0,response3disk,,5,19,1,1,0,0,rectangle,19,1,1,0,0,19,1,1,0,0,0,143,143,115,1,,,,,,,,
,,,,,,,,,,,,,FF,,,,,,,,1.843,,,,,,,,,,,,,,,,,,,,,,60fcf838690196411349151e,61036d0a1cbe328e09cf25f5,2021-07-29_23h15.49.894,Simcolourproject_2stim_asymm_v5,2020.2.10,MacIntel,60,61025ae37ef11b136ea224fe,,,,,,,,,2787,92,17,1,0,0,response1disk,,6,17,-1,1,0,0,rectangle,17,-1,1,0,0,17,-1,1,0,0,0,144,144,46,1,,,,,,,,
,,,,,,,,,,,,,FF,,,,,,,,1.058,,,,,,,,,,,,,,,,,,,,,,60fcf838690196411349151e,61036d0a1cbe328e09cf25f5,2021-07-29_23h15.49.894,Simcolourproject_2stim_asymm_v5,2020.2.10,MacIntel,60,61025ae37ef11b136ea224fe,,,,,,,,,333,29,78,1,0,0,response1disk,,7,3,-9,1,0,0,rectangle,3,-9,1,0,0,3,-9,1,0,0,0,145,145,91,1,,,,,,,,
,,,,,,,,,,,,,FF,,,,,,,,0.95,,,,,,,,,,,,,,,,,,,,,,60fcf838690196411349151e,61036d0a1cbe328e09cf25f5,2021-07-29_23h15.49.894,Simcolourproject_2stim_asymm_v5,2020.2.10,MacIntel,60,61025ae37ef11b136ea224fe,,,,,,,,,3398,21,-84,1,0,0,response3disk,,4,8,-7,1,0,0,rectangle,8,-7,1,0,0,8,-7,1,0,0,0,146,146,33,1,,,,,,,,
,,,,,,,,,,,,,FF,,,,,,,,2.839,,,,,,,,,,,,,,,,,,,,,,60fcf838690196411349151e,61036d0a1cbe328e09cf25f5,2021-07-29_23h15.49.894,Simcolourproject_2stim_asymm_v5,2020.2.10,MacIntel,60,61025ae37ef11b136ea224fe,,,,,,,,,645,51,-64,1,0,0,response3disk,,4,23,-3,1,0,0,rectangle,23,-3,1,0,0,23,-3,1,0,0,0,147,147,56,1,,,,,,,,
,,,,,,,,,,,,,FF,,,,,,,,1.763,,,,,,,,,,,,,,,,,,,,,,60fcf838690196411349151e,61036d0a1cbe328e09cf25f5,2021-07-29_23h15.49.894,Simcolourproject_2stim_asymm_v5,2020.2.10,MacIntel,60,61025ae37ef11b136ea224fe,,,,,,,,,3292,-78,-61,1,0,0,response5disk,,2,0,-3,1,0,0,rectangle,0,-3,1,0,0,0,-3,1,0,0,0,148,148,135,1,,,,,,,,
,,,,,,,,,,,,,FF,,,,,,,,1.118,,,,,,,,,,,,,,,,,,,,,,60fcf838690196411349151e,61036d0a1cbe328e09cf25f5,2021-07-29_23h15.49.894,Simcolourproject_2stim_asymm_v5,2020.2.10,MacIntel,60,61025ae37ef11b136ea224fe,,,,,,,,,3153,-89,-44,1,0,0,response5disk,,2,9,-1,1,0,0,rectangle,9,-1,1,0,0,9,-1,1,0,0,0,149,149,13,1,,,,,,,,
,,,,,,,,,,,,,FF,,,,,,,,0.954,,,,,,,,,,,,,,,,,,,,,,60fcf838690196411349151e,61036d0a1cbe328e09cf25f5,2021-07-29_23h15.49.894,Simcolourproject_2stim_asymm_v5,2020.2.10,MacIntel,60,61025ae37ef11b136ea224fe,,,,,,,,,1586,86,37,1,0,0,response1disk,,6,27,-9,1,0,0,rectangle,27,-9,1,0,0,27,-9,1,0,0,0,150,150,42,1,,,,,,,,
,,,,,,,,,,,,,FF,,,,,,,,1.02,,,,,,,,,,,,,,,,,,,,,,60fcf838690196411349151e,61036d0a1cbe328e09cf25f5,2021-07-29_23h15.49.894,Simcolourproject_2stim_asymm_v5,2020.2.10,MacIntel,60,61025ae37ef11b136ea224fe,,,,,,,,,781,32,80,1,0,0,response1disk,,7,11,5,1,0,0,rectangle,11,5,1,0,0,11,5,1,0,0,0,151,151,128,1,,,,,,,,
,,,,,,,,,,,,,FF,,,,,,,,1.102,,,,,,,,,,,,,,,,,,,,,,60fcf838690196411349151e,61036d0a1cbe328e09cf25f5,2021-07-29_23h15.49.894,Simcolourproject_2stim_asymm_v5,2020.2.10,MacIntel,60,61025ae37ef11b136ea224fe,,,,,,,,,3914,-88,-67,1,0,0,response5disk,,2,-8,-6,1,0,0,rectangle,-8,-6,1,0,0,-8,-6,1,0,0,0,152,152,8,1,,,,,,,,
,,,,,,,,,,,,,FF,,,,,,,,3.759,,,,,,,,,,,,,,,,,,,,,,60fcf838690196411349151e,61036d0a1cbe328e09cf25f5,2021-07-29_23h15.49.894,Simcolourproject_2stim_asymm_v5,2020.2.10,MacIntel,60,61025ae37ef11b136ea224fe,,,,,,,,,2020,104,-42,1,0,0,response3disk,,5,14,-2,1,0,0,rectangle,14,-2,1,0,0,14,-2,1,0,0,0,153,153,30,1,,,,,,,,
,,,,,,,,,,,,,FF,,,,,,,,1.05,,,,,,,,,,,,,,,,,,,,,,60fcf838690196411349151e,61036d0a1cbe328e09cf25f5,2021-07-29_23h15.49.894,Simcolourproject_2stim_asymm_v5,2020.2.10,MacIntel,60,61025ae37ef11b136ea224fe,,,,,,,,,261,-48,-96,1,0,0,response5disk,,3,1,-5,1,0,0,rectangle,1,-5,1,0,0,1,-5,1,0,0,0,154,154,79,1,,,,,,,,
,,,,,,,,,,,,,FF,,,,,,,,3.075,,,,,,,,,,,,,,,,,,,,,,60fcf838690196411349151e,61036d0a1cbe328e09cf25f5,2021-07-29_23h15.49.894,Simcolourproject_2stim_asymm_v5,2020.2.10,MacIntel,60,61025ae37ef11b136ea224fe,,,,,,,,,3086,-49,-74,1,0,0,response5disk,,3,-3,-9,1,0,0,rectangle,-3,-9,1,0,0,-3,-9,1,0,0,0,155,155,90,1,,,,,,,,
,,,,,,,,,,,,,FF,,,,,,,,1.769,,,,,,,,,,,,,,,,,,,,,,60fcf838690196411349151e,61036d0a1cbe328e09cf25f5,2021-07-29_23h15.49.894,Simcolourproject_2stim_asymm_v5,2020.2.10,MacIntel,60,61025ae37ef11b136ea224fe,,,,,,,,,1319,41,-83,1,0,0,response3disk,,4,15,-4,1,0,0,rectangle,15,-4,1,0,0,15,-4,1,0,0,0,156,156,124,1,,,,,,,,
,,,,,,,,,,,,,FF,,,,,,,,1.88,,,,,,,,,,,,,,,,,,,,,,60fcf838690196411349151e,61036d0a1cbe328e09cf25f5,2021-07-29_23h15.49.894,Simcolourproject_2stim_asymm_v5,2020.2.10,MacIntel,60,61025ae37ef11b136ea224fe,,,,,,,,,135,85,43,1,0,0,response1disk,,6,1,6,1,0,0,rectangle,1,6,1,0,0,1,6,1,0,0,0,157,157,102,1,,,,,,,,
,,,,,,,,,,,,,FF,,,,,,,,2.062,,,,,,,,,,,,,,,,,,,,,,60fcf838690196411349151e,61036d0a1cbe328e09cf25f5,2021-07-29_23h15.49.894,Simcolourproject_2stim_asymm_v5,2020.2.10,MacIntel,60,61025ae37ef11b136ea224fe,,,,,,,,,387,47,-79,1,0,0,response3disk,,4,-8,-3,1,0,0,rectangle,-8,-3,1,0,0,-8,-3,1,0,0,0,158,158,143,1,,,,,,,,
,,,,,,,,,,,,,FF,,,,,,,,63.891,,,,,,,,,,,,,,,,,,,,,,60fcf838690196411349151e,61036d0a1cbe328e09cf25f5,2021-07-29_23h15.49.894,Simcolourproject_2stim_asymm_v5,2020.2.10,MacIntel,60,61025ae37ef11b136ea224fe,,,,,,,,,1862,59,-85,1,0,0,response3disk,,4,16,9,1,0,0,rectangle,16,9,1,0,0,16,9,1,0,0,0,159,159,127,1,,,,,,,,
,,,,,,,,,,,,,FF,,,,,,,,0.978,,,,,,,,,,,,,,,,,,,,,,60fcf838690196411349151e,61036d0a1cbe328e09cf25f5,2021-07-29_23h15.49.894,Simcolourproject_2stim_asymm_v5,2020.2.10,MacIntel,60,61025ae37ef11b136ea224fe,,,,,,,,,3710,-29,-79,1,0,0,response5disk,,3,-1,-1,1,0,0,rectangle,-1,-1,1,0,0,-1,-1,1,0,0,1,0,160,32,1,,,,,,,,
,,,,,,,,,,,,,FF,,,,,,,,0.95,,,,,,,,,,,,,,,,,,,,,,60fcf838690196411349151e,61036d0a1cbe328e09cf25f5,2021-07-29_23h15.49.894,Simcolourproject_2stim_asymm_v5,2020.2.10,MacIntel,60,61025ae37ef11b136ea224fe,,,,,,,,,2751,103,34,1,0,0,response1disk,,6,18,-1,1,0,0,rectangle,18,-1,1,0,0,18,-1,1,0,0,1,1,161,30,1,,,,,,,,
,,,,,,,,,,,,,FF,,,,,,,,0.826,,,,,,,,,,,,,,,,,,,,,,60fcf838690196411349151e,61036d0a1cbe328e09cf25f5,2021-07-29_23h15.49.894,Simcolourproject_2stim_asymm_v5,2020.2.10,MacIntel,60,61025ae37ef11b136ea224fe,,,,,,,,,1296,-78,-60,1,0,0,response5disk,,2,-1,-16,1,0,0,rectangle,-1,-16,1,0,0,-1,-16,1,0,0,1,2,162,52,1,,,,,,,,
,,,,,,,,,,,,,FF,,,,,,,,1.13,,,,,,,,,,,,,,,,,,,,,,60fcf838690196411349151e,61036d0a1cbe328e09cf25f5,2021-07-29_23h15.49.894,Simcolourproject_2stim_asymm_v5,2020.2.10,MacIntel,60,61025ae37ef11b136ea224fe,,,,,,,,,1911,72,-48,1,0,0,response3disk,,5,29,-7,1,0,0,rectangle,29,-7,1,0,0,29,-7,1,0,0,1,3,163,115,1,,,,,,,,
,,,,,,,,,,,,,FF,,,,,,,,2.41,,,,,,,,,,,,,,,,,,,,,,60fcf838690196411349151e,61036d0a1cbe328e09cf25f5,2021-07-29_23h15.49.894,Simcolourproject_2stim_asymm_v5,2020.2.10,MacIntel,60,61025ae37ef11b136ea224fe,,,,,,,,,1998,78,39,1,0,0,response1disk,,6,10,-3,1,0,0,rectangle,10,-3,1,0,0,10,-3,1,0,0,1,4,164,135,1,,,,,,,,
,,,,,,,,,,,,,FF,,,,,,,,0.921,,,,,,,,,,,,,,,,,,,,,,60fcf838690196411349151e,61036d0a1cbe328e09cf25f5,2021-07-29_23h15.49.894,Simcolourproject_2stim_asymm_v5,2020.2.10,MacIntel,60,61025ae37ef11b136ea224fe,,,,,,,,,1165,55,91,1,0,0,response1disk,,7,2,-14,1,0,0,rectangle,2,-14,1,0,0,2,-14,1,0,0,1,5,165,86,1,,,,,,,,
,,,,,,,,,,,,,FF,,,,,,,,0.884,,,,,,,,,,,,,,,,,,,,,,60fcf838690196411349151e,61036d0a1cbe328e09cf25f5,2021-07-29_23h15.49.894,Simcolourproject_2stim_asymm_v5,2020.2.10,MacIntel,60,61025ae37ef11b136ea224fe,,,,,,,,,2627,-28,-66,1,0,0,response5disk,,3,-1,-2,1,0,0,rectangle,-1,-2,1,0,0,-1,-2,1,0,0,1,6,166,35,1,,,,,,,,
,,,,,,,,,,,,,FF,,,,,,,,0.939,,,,,,,,,,,,,,,,,,,,,,60fcf838690196411349151e,61036d0a1cbe328e09cf25f5,2021-07-29_23h15.49.894,Simcolourproject_2stim_asymm_v5,2020.2.10,MacIntel,60,61025ae37ef11b136ea224fe,,,,,,,,,2705,85,-50,1,0,0,response3disk,,5,19,-5,1,0,0,rectangle,19,-5,1,0,0,19,-5,1,0,0,1,7,167,131,1,,,,,,,,
,,,,,,,,,,,,,FF,,,,,,,,0.917,,,,,,,,,,,,,,,,,,,,,,60fcf838690196411349151e,61036d0a1cbe328e09cf25f5,2021-07-29_23h15.49.894,Simcolourproject_2stim_asymm_v5,2020.2.10,MacIntel,60,61025ae37ef11b136ea224fe,,,,,,,,,3000,-78,22,1,0,0,response7disk,,1,-1,5,1,0,0,rectangle,-1,5,1,0,0,-1,5,1,0,0,1,8,168,82,1,,,,,,,,
,,,,,,,,,,,,,FF,,,,,,,,1.168,,,,,,,,,,,,,,,,,,,,,,60fcf838690196411349151e,61036d0a1cbe328e09cf25f5,2021-07-29_23h15.49.894,Simcolourproject_2stim_asymm_v5,2020.2.10,MacIntel,60,61025ae37ef11b136ea224fe,,,,,,,,,1456,-78,-48,1,0,0,response5disk,,2,-5,2,1,0,0,rectangle,-5,2,1,0,0,-5,2,1,0,0,1,9,169,132,1,,,,,,,,
,,,,,,,,,,,,,FF,,,,,,,,0.917,,,,,,,,,,,,,,,,,,,,,,60fcf838690196411349151e,61036d0a1cbe328e09cf25f5,2021-07-29_23h15.49.894,Simcolourproject_2stim_asymm_v5,2020.2.10,MacIntel,60,61025ae37ef11b136ea224fe,,,,,,,,,3763,32,53,1,0,0,response1disk,,7,11,11,1,0,0,rectangle,11,11,1,0,0,11,11,1,0,0,1,10,170,73,1,,,,,,,,
,,,,,,,,,,,,,FF,,,,,,,,112.934,,,,,,,,,,,,,,,,,,,,,,60fcf838690196411349151e,61036d0a1cbe328e09cf25f5,2021-07-29_23h15.49.894,Simcolourproject_2stim_asymm_v5,2020.2.10,MacIntel,60,61025ae37ef11b136ea224fe,,,,,,,,,2136,55,-93,1,0,0,response3disk,,4,5,14,1,0,0,rectangle,5,14,1,0,0,5,14,1,0,0,1,11,171,63,1,,,,,,,,
,,,,,,,,,,,,,FF,,,,,,,,1.162,,,,,,,,,,,,,,,,,,,,,,60fcf838690196411349151e,61036d0a1cbe328e09cf25f5,2021-07-29_23h15.49.894,Simcolourproject_2stim_asymm_v5,2020.2.10,MacIntel,60,61025ae37ef11b136ea224fe,,,,,,,,,2507,62,95,1,0,0,response1disk,,7,8,9,1,0,0,rectangle,8,9,1,0,0,8,9,1,0,0,1,12,172,125,1,,,,,,,,
,,,,,,,,,,,,,FF,,,,,,,,1.154,,,,,,,,,,,,,,,,,,,,,,60fcf838690196411349151e,61036d0a1cbe328e09cf25f5,2021-07-29_23h15.49.894,Simcolourproject_2stim_asymm_v5,2020.2.10,MacIntel,60,61025ae37ef11b136ea224fe,,,,,,,,,747,35,-77,1,0,0,response3disk,,4,21,0,1,0,0,rectangle,21,0,1,0,0,21,0,1,0,0,1,13,173,105,1,,,,,,,,
,,,,,,,,,,,,,FF,,,,,,,,0.949,,,,,,,,,,,,,,,,,,,,,,60fcf838690196411349151e,61036d0a1cbe328e09cf25f5,2021-07-29_23h15.49.894,Simcolourproject_2stim_asymm_v5,2020.2.10,MacIntel,60,61025ae37ef11b136ea224fe,,,,,,,,,1063,-40,-72,1,0,0,response5disk,,3,-12,-11,1,0,0,rectangle,-12,-11,1,0,0,-12,-11,1,0,0,1,14,174,103,1,,,,,,,,
,,,,,,,,,,,,,FF,,,,,,,,0.768,,,,,,,,,,,,,,,,,,,,,,60fcf838690196411349151e,61036d0a1cbe328e09cf25f5,2021-07-29_23h15.49.894,Simcolourproject_2stim_asymm_v5,2020.2.10,MacIntel,60,61025ae37ef11b136ea224fe,,,,,,,,,1550,94,33,1,0,0,response1disk,,6,10,5,1,0,0,rectangle,10,5,1,0,0,10,5,1,0,0,1,15,175,117,1,,,,,,,,
,,,,,,,,,,,,,FF,,,,,,,,1.383,,,,,,,,,,,,,,,,,,,,,,60fcf838690196411349151e,61036d0a1cbe328e09cf25f5,2021-07-29_23h15.49.894,Simcolourproject_2stim_asymm_v5,2020.2.10,MacIntel,60,61025ae37ef11b136ea224fe,,,,,,,,,4113,76,28,1,0,0,response1disk,,6,6,-11,1,0,0,rectangle,50,-96,1,0,0,23,0,1,0,0,1,16,176,19,1,,response3disk_3,TRUE,4,4,"[289,295,13,268,66,92,230,39,294,142,177,211,28,95,205,310,100,97,261,107]",1.364,rectangle
,,,,,,,,,,,,,FF,,,,,,,,0.783,,,,,,,,,,,,,,,,,,,,,,60fcf838690196411349151e,61036d0a1cbe328e09cf25f5,2021-07-29_23h15.49.894,Simcolourproject_2stim_asymm_v5,2020.2.10,MacIntel,60,61025ae37ef11b136ea224fe,,,,,,,,,2726,-30,-85,1,0,0,response5disk,,3,5,-3,1,0,0,rectangle,5,-3,1,0,0,5,-3,1,0,0,1,17,177,45,1,,,,,,,,
,,,,,,,,,,,,,FF,,,,,,,,1.161,,,,,,,,,,,,,,,,,,,,,,60fcf838690196411349151e,61036d0a1cbe328e09cf25f5,2021-07-29_23h15.49.894,Simcolourproject_2stim_asymm_v5,2020.2.10,MacIntel,60,61025ae37ef11b136ea224fe,,,,,,,,,3641,79,28,1,0,0,response1disk,,6,20,-10,1,0,0,rectangle,20,-10,1,0,0,20,-10,1,0,0,1,18,178,120,1,,,,,,,,
,,,,,,,,,,,,,FF,,,,,,,,0.838,,,,,,,,,,,,,,,,,,,,,,60fcf838690196411349151e,61036d0a1cbe328e09cf25f5,2021-07-29_23h15.49.894,Simcolourproject_2stim_asymm_v5,2020.2.10,MacIntel,60,61025ae37ef11b136ea224fe,,,,,,,,,3929,24,-62,1,0,0,response3disk,,4,18,11,1,0,0,rectangle,18,11,1,0,0,18,11,1,0,0,1,19,179,88,1,,,,,,,,
,,,,,,,,,,,,,FF,,,,,,,,0.688,,,,,,,,,,,,,,,,,,,,,,60fcf838690196411349151e,61036d0a1cbe328e09cf25f5,2021-07-29_23h15.49.894,Simcolourproject_2stim_asymm_v5,2020.2.10,MacIntel,60,61025ae37ef11b136ea224fe,,,,,,,,,1975,39,52,1,0,0,response1disk,,7,14,-8,1,0,0,rectangle,14,-8,1,0,0,14,-8,1,0,0,1,20,180,29,1,,,,,,,,
,,,,,,,,,,,,,FF,,,,,,,,1.3,,,,,,,,,,,,,,,,,,,,,,60fcf838690196411349151e,61036d0a1cbe328e09cf25f5,2021-07-29_23h15.49.894,Simcolourproject_2stim_asymm_v5,2020.2.10,MacIntel,60,61025ae37ef11b136ea224fe,,,,,,,,,1995,39,-82,1,0,0,response3disk,,4,22,10,1,0,0,rectangle,22,10,1,0,0,22,10,1,0,0,1,21,181,114,1,,,,,,,,
,,,,,,,,,,,,,FF,,,,,,,,0.731,,,,,,,,,,,,,,,,,,,,,,60fcf838690196411349151e,61036d0a1cbe328e09cf25f5,2021-07-29_23h15.49.894,Simcolourproject_2stim_asymm_v5,2020.2.10,MacIntel,60,61025ae37ef11b136ea224fe,,,,,,,,,86,108,32,1,0,0,response1disk,,6,20,-4,1,0,0,rectangle,20,-4,1,0,0,20,-4,1,0,0,1,22,182,49,1,,,,,,,,
,,,,,,,,,,,,,FF,,,,,,,,1.048,,,,,,,,,,,,,,,,,,,,,,60fcf838690196411349151e,61036d0a1cbe328e09cf25f5,2021-07-29_23h15.49.894,Simcolourproject_2stim_asymm_v5,2020.2.10,MacIntel,60,61025ae37ef11b136ea224fe,,,,,,,,,1661,44,65,1,0,0,response1disk,,7,24,11,1,0,0,rectangle,24,11,1,0,0,24,11,1,0,0,1,23,183,47,1,,,,,,,,
,,,,,,,,,,,,,FF,,,,,,,,0.972,,,,,,,,,,,,,,,,,,,,,,60fcf838690196411349151e,61036d0a1cbe328e09cf25f5,2021-07-29_23h15.49.894,Simcolourproject_2stim_asymm_v5,2020.2.10,MacIntel,60,61025ae37ef11b136ea224fe,,,,,,,,,3305,-38,-72,1,0,0,response5disk,,3,-12,0,1,0,0,rectangle,-12,0,1,0,0,-12,0,1,0,0,1,24,184,134,1,,,,,,,,
,,,,,,,,,,,,,FF,,,,,,,,1.295,,,,,,,,,,,,,,,,,,,,,,60fcf838690196411349151e,61036d0a1cbe328e09cf25f5,2021-07-29_23h15.49.894,Simcolourproject_2stim_asymm_v5,2020.2.10,MacIntel,60,61025ae37ef11b136ea224fe,,,,,,,,,2092,82,-56,1,0,0,response3disk,,5,12,9,1,0,0,rectangle,12,9,1,0,0,12,9,1,0,0,1,25,185,116,1,,,,,,,,
,,,,,,,,,,,,,FF,,,,,,,,0.785,,,,,,,,,,,,,,,,,,,,,,60fcf838690196411349151e,61036d0a1cbe328e09cf25f5,2021-07-29_23h15.49.894,Simcolourproject_2stim_asymm_v5,2020.2.10,MacIntel,60,61025ae37ef11b136ea224fe,,,,,,,,,3905,72,-30,1,0,0,response3disk,,5,27,-3,1,0,0,rectangle,27,-3,1,0,0,27,-3,1,0,0,1,26,186,77,1,,,,,,,,
,,,,,,,,,,,,,FF,,,,,,,,0.988,,,,,,,,,,,,,,,,,,,,,,60fcf838690196411349151e,61036d0a1cbe328e09cf25f5,2021-07-29_23h15.49.894,Simcolourproject_2stim_asymm_v5,2020.2.10,MacIntel,60,61025ae37ef11b136ea224fe,,,,,,,,,3601,32,-99,1,0,0,response3disk,,4,16,3,1,0,0,rectangle,16,3,1,0,0,16,3,1,0,0,1,27,187,145,1,,,,,,,,
,,,,,,,,,,,,,FF,,,,,,,,1.02,,,,,,,,,,,,,,,,,,,,,,60fcf838690196411349151e,61036d0a1cbe328e09cf25f5,2021-07-29_23h15.49.894,Simcolourproject_2stim_asymm_v5,2020.2.10,MacIntel,60,61025ae37ef11b136ea224fe,,,,,,,,,3465,95,37,1,0,0,response1disk,,6,14,-5,1,0,0,rectangle,14,-5,1,0,0,14,-5,1,0,0,1,28,188,128,1,,,,,,,,
,,,,,,,,,,,,,FF,,,,,,,,0.815,,,,,,,,,,,,,,,,,,,,,,60fcf838690196411349151e,61036d0a1cbe328e09cf25f5,2021-07-29_23h15.49.894,Simcolourproject_2stim_asymm_v5,2020.2.10,MacIntel,60,61025ae37ef11b136ea224fe,,,,,,,,,784,34,68,1,0,0,response1disk,,7,11,11,1,0,0,rectangle,11,11,1,0,0,11,11,1,0,0,1,29,189,36,1,,,,,,,,
,,,,,,,,,,,,,FF,,,,,,,,0.923,,,,,,,,,,,,,,,,,,,,,,60fcf838690196411349151e,61036d0a1cbe328e09cf25f5,2021-07-29_23h15.49.894,Simcolourproject_2stim_asymm_v5,2020.2.10,MacIntel,60,61025ae37ef11b136ea224fe,,,,,,,,,1639,80,-49,1,0,0,response3disk,,5,7,-5,1,0,0,rectangle,7,-5,1,0,0,7,-5,1,0,0,1,30,190,101,1,,,,,,,,
,,,,,,,,,,,,,FF,,,,,,,,0.625,,,,,,,,,,,,,,,,,,,,,,60fcf838690196411349151e,61036d0a1cbe328e09cf25f5,2021-07-29_23h15.49.894,Simcolourproject_2stim_asymm_v5,2020.2.10,MacIntel,60,61025ae37ef11b136ea224fe,,,,,,,,,2120,52,-31,1,0,0,response3disk,,5,3,11,1,0,0,rectangle,3,11,1,0,0,3,11,1,0,0,1,31,191,141,1,,,,,,,,
,,,,,,,,,,,,,FF,,,,,,,,2.421,,,,,,,,,,,,,,,,,,,,,,60fcf838690196411349151e,61036d0a1cbe328e09cf25f5,2021-07-29_23h15.49.894,Simcolourproject_2stim_asymm_v5,2020.2.10,MacIntel,60,61025ae37ef11b136ea224fe,,,,,,,,,3658,52,-36,1,0,0,response3disk,,5,10,-17,1,0,0,rectangle,10,-17,1,0,0,10,-17,1,0,0,1,32,192,48,1,,,,,,,,
,,,,,,,,,,,,,FF,,,,,,,,0.845,,,,,,,,,,,,,,,,,,,,,,60fcf838690196411349151e,61036d0a1cbe328e09cf25f5,2021-07-29_23h15.49.894,Simcolourproject_2stim_asymm_v5,2020.2.10,MacIntel,60,61025ae37ef11b136ea224fe,,,,,,,,,361,75,35,1,0,0,response1disk,,6,30,2,1,0,0,rectangle,30,2,1,0,0,30,2,1,0,0,1,33,193,158,1,,,,,,,,
,,,,,,,,,,,,,FF,,,,,,,,0.536,,,,,,,,,,,,,,,,,,,,,,60fcf838690196411349151e,61036d0a1cbe328e09cf25f5,2021-07-29_23h15.49.894,Simcolourproject_2stim_asymm_v5,2020.2.10,MacIntel,60,61025ae37ef11b136ea224fe,,,,,,,,,363,65,30,1,0,0,response1disk,,6,25,14,1,0,0,rectangle,25,14,1,0,0,25,14,1,0,0,1,34,194,14,1,,,,,,,,
,,,,,,,,,,,,,FF,,,,,,,,1.792,,,,,,,,,,,,,,,,,,,,,,60fcf838690196411349151e,61036d0a1cbe328e09cf25f5,2021-07-29_23h15.49.894,Simcolourproject_2stim_asymm_v5,2020.2.10,MacIntel,60,61025ae37ef11b136ea224fe,,,,,,,,,3787,34,49,1,0,0,response1disk,,7,21,1,1,0,0,rectangle,21,1,1,0,0,21,1,1,0,0,1,35,195,18,1,,,,,,,,
,,,,,,,,,,,,,FF,,,,,,,,1.232,,,,,,,,,,,,,,,,,,,,,,60fcf838690196411349151e,61036d0a1cbe328e09cf25f5,2021-07-29_23h15.49.894,Simcolourproject_2stim_asymm_v5,2020.2.10,MacIntel,60,61025ae37ef11b136ea224fe,,,,,,,,,1712,80,-45,1,0,0,response3disk,,5,27,-11,1,0,0,rectangle,27,-11,1,0,0,27,-11,1,0,0,1,36,196,118,1,,,,,,,,
,,,,,,,,,,,,,FF,,,,,,,,5.237,,,,,,,,,,,,,,,,,,,,,,60fcf838690196411349151e,61036d0a1cbe328e09cf25f5,2021-07-29_23h15.49.894,Simcolourproject_2stim_asymm_v5,2020.2.10,MacIntel,60,61025ae37ef11b136ea224fe,,,,,,,,,842,39,-22,1,0,0,response3disk,,5,3,0,1,0,0,rectangle,3,0,1,0,0,3,0,1,0,0,1,37,197,27,1,,,,,,,,
,,,,,,,,,,,,,FF,,,,,,,,0.885,,,,,,,,,,,,,,,,,,,,,,60fcf838690196411349151e,61036d0a1cbe328e09cf25f5,2021-07-29_23h15.49.894,Simcolourproject_2stim_asymm_v5,2020.2.10,MacIntel,60,61025ae37ef11b136ea224fe,,,,,,,,,1146,21,-97,1,0,0,response3disk,,4,15,-2,1,0,0,rectangle,15,-2,1,0,0,15,-2,1,0,0,1,38,198,55,1,,,,,,,,
,,,,,,,,,,,,,FF,,,,,,,,0.688,,,,,,,,,,,,,,,,,,,,,,60fcf838690196411349151e,61036d0a1cbe328e09cf25f5,2021-07-29_23h15.49.894,Simcolourproject_2stim_asymm_v5,2020.2.10,MacIntel,60,61025ae37ef11b136ea224fe,,,,,,,,,2706,38,-57,1,0,0,response3disk,,4,13,5,1,0,0,rectangle,13,5,1,0,0,13,5,1,0,0,1,39,199,12,1,,,,,,,,
,,,,,,,,,,,,,FF,,,,,,,,1.024,,,,,,,,,,,,,,,,,,,,,,60fcf838690196411349151e,61036d0a1cbe328e09cf25f5,2021-07-29_23h15.49.894,Simcolourproject_2stim_asymm_v5,2020.2.10,MacIntel,60,61025ae37ef11b136ea224fe,,,,,,,,,2992,110,-22,1,0,0,response3disk,,5,33,2,1,0,0,rectangle,33,2,1,0,0,33,2,1,0,0,1,40,200,113,1,,,,,,,,
,,,,,,,,,,,,,FF,,,,,,,,1.096,,,,,,,,,,,,,,,,,,,,,,60fcf838690196411349151e,61036d0a1cbe328e09cf25f5,2021-07-29_23h15.49.894,Simcolourproject_2stim_asymm_v5,2020.2.10,MacIntel,60,61025ae37ef11b136ea224fe,,,,,,,,,353,-37,-83,1,0,0,response5disk,,3,-7,-4,1,0,0,rectangle,-7,-4,1,0,0,-7,-4,1,0,0,1,41,201,10,1,,,,,,,,
,,,,,,,,,,,,,FF,,,,,,,,1.189,,,,,,,,,,,,,,,,,,,,,,60fcf838690196411349151e,61036d0a1cbe328e09cf25f5,2021-07-29_23h15.49.894,Simcolourproject_2stim_asymm_v5,2020.2.10,MacIntel,60,61025ae37ef11b136ea224fe,,,,,,,,,3910,-72,-51,1,0,0,response5disk,,2,0,-13,1,0,0,rectangle,0,-13,1,0,0,0,-13,1,0,0,1,42,202,140,1,,,,,,,,
,,,,,,,,,,,,,FF,,,,,,,,0.916,,,,,,,,,,,,,,,,,,,,,,60fcf838690196411349151e,61036d0a1cbe328e09cf25f5,2021-07-29_23h15.49.894,Simcolourproject_2stim_asymm_v5,2020.2.10,MacIntel,60,61025ae37ef11b136ea224fe,,,,,,,,,3413,116,40,1,0,0,response1disk,,6,1,3,1,0,0,rectangle,1,3,1,0,0,1,3,1,0,0,1,43,203,31,1,,,,,,,,
,,,,,,,,,,,,,FF,,,,,,,,2.021,,,,,,,,,,,,,,,,,,,,,,60fcf838690196411349151e,61036d0a1cbe328e09cf25f5,2021-07-29_23h15.49.894,Simcolourproject_2stim_asymm_v5,2020.2.10,MacIntel,60,61025ae37ef11b136ea224fe,,,,,,,,,4070,55,-62,1,0,0,response3disk,,4,0,-8,1,0,0,rectangle,92,-38,1,0,0,14,-2,1,0,0,1,44,204,4,1,,response3disk_3,TRUE,5,2,"[289,295,13,268,66,92,230,39,294,142,177,211,28,95,205,310,100,97,261,107]",2.235,rectangle
,,,,,,,,,,,,,FF,,,,,,,,0.867,,,,,,,,,,,,,,,,,,,,,,60fcf838690196411349151e,61036d0a1cbe328e09cf25f5,2021-07-29_23h15.49.894,Simcolourproject_2stim_asymm_v5,2020.2.10,MacIntel,60,61025ae37ef11b136ea224fe,,,,,,,,,1533,-17,-87,1,0,0,response5disk,,3,14,2,1,0,0,rectangle,14,2,1,0,0,14,2,1,0,0,1,45,205,100,1,,,,,,,,
,,,,,,,,,,,,,FF,,,,,,,,1.859,,,,,,,,,,,,,,,,,,,,,,60fcf838690196411349151e,61036d0a1cbe328e09cf25f5,2021-07-29_23h15.49.894,Simcolourproject_2stim_asymm_v5,2020.2.10,MacIntel,60,61025ae37ef11b136ea224fe,,,,,,,,,3690,35,-93,1,0,0,response3disk,,4,4,17,1,0,0,rectangle,4,17,1,0,0,4,17,1,0,0,1,46,206,143,1,,,,,,,,
,,,,,,,,,,,,,FF,,,,,,,,0.609,,,,,,,,,,,,,,,,,,,,,,60fcf838690196411349151e,61036d0a1cbe328e09cf25f5,2021-07-29_23h15.49.894,Simcolourproject_2stim_asymm_v5,2020.2.10,MacIntel,60,61025ae37ef11b136ea224fe,,,,,,,,,3492,32,-115,1,0,0,response3disk,,4,9,0,1,0,0,rectangle,9,0,1,0,0,9,0,1,0,0,1,47,207,69,1,,,,,,,,
,,,,,,,,,,,,,FF,,,,,,,,0.964,,,,,,,,,,,,,,,,,,,,,,60fcf838690196411349151e,61036d0a1cbe328e09cf25f5,2021-07-29_23h15.49.894,Simcolourproject_2stim_asymm_v5,2020.2.10,MacIntel,60,61025ae37ef11b136ea224fe,,,,,,,,,2029,-104,-45,1,0,0,response5disk,,2,14,-1,1,0,0,rectangle,14,-1,1,0,0,14,-1,1,0,0,1,48,208,33,1,,,,,,,,
,,,,,,,,,,,,,FF,,,,,,,,3.114,,,,,,,,,,,,,,,,,,,,,,60fcf838690196411349151e,61036d0a1cbe328e09cf25f5,2021-07-29_23h15.49.894,Simcolourproject_2stim_asymm_v5,2020.2.10,MacIntel,60,61025ae37ef11b136ea224fe,,,,,,,,,13,-40,-102,1,0,0,response5disk,,3,-8,-18,1,0,0,rectangle,-8,-18,1,0,0,-8,-18,1,0,0,1,49,209,150,1,,,,,,,,
,,,,,,,,,,,,,FF,,,,,,,,1.205,,,,,,,,,,,,,,,,,,,,,,60fcf838690196411349151e,61036d0a1cbe328e09cf25f5,2021-07-29_23h15.49.894,Simcolourproject_2stim_asymm_v5,2020.2.10,MacIntel,60,61025ae37ef11b136ea224fe,,,,,,,,,4003,59,-60,1,0,0,response3disk,,4,17,1,1,0,0,rectangle,99,34,1,0,0,33,8,1,0,0,1,50,210,13,1,,response1disk_3,TRUE,6,6,"[289,295,13,268,66,92,230,39,294,142,177,211,28,95,205,310,100,97,261,107]",1.341,rectangle
,,,,,,,,,,,,,FF,,,,,,,,2.639,,,,,,,,,,,,,,,,,,,,,,60fcf838690196411349151e,61036d0a1cbe328e09cf25f5,2021-07-29_23h15.49.894,Simcolourproject_2stim_asymm_v5,2020.2.10,MacIntel,60,61025ae37ef11b136ea224fe,,,,,,,,,2088,104,23,1,0,0,response1disk,,6,20,13,1,0,0,rectangle,20,13,1,0,0,20,13,1,0,0,1,51,211,6,1,,,,,,,,
,,,,,,,,,,,,,FF,,,,,,,,0.897,,,,,,,,,,,,,,,,,,,,,,60fcf838690196411349151e,61036d0a1cbe328e09cf25f5,2021-07-29_23h15.49.894,Simcolourproject_2stim_asymm_v5,2020.2.10,MacIntel,60,61025ae37ef11b136ea224fe,,,,,,,,,3127,36,62,1,0,0,response1disk,,7,7,-11,1,0,0,rectangle,7,-11,1,0,0,7,-11,1,0,0,1,52,212,71,1,,,,,,,,
,,,,,,,,,,,,,FF,,,,,,,,1.4,,,,,,,,,,,,,,,,,,,,,,60fcf838690196411349151e,61036d0a1cbe328e09cf25f5,2021-07-29_23h15.49.894,Simcolourproject_2stim_asymm_v5,2020.2.10,MacIntel,60,61025ae37ef11b136ea224fe,,,,,,,,,1864,92,-37,1,0,0,response3disk,,5,18,9,1,0,0,rectangle,18,9,1,0,0,18,9,1,0,0,1,53,213,90,1,,,,,,,,
,,,,,,,,,,,,,FF,,,,,,,,2.31,,,,,,,,,,,,,,,,,,,,,,60fcf838690196411349151e,61036d0a1cbe328e09cf25f5,2021-07-29_23h15.49.894,Simcolourproject_2stim_asymm_v5,2020.2.10,MacIntel,60,61025ae37ef11b136ea224fe,,,,,,,,,1241,50,-96,1,0,0,response3disk,,4,11,-11,1,0,0,rectangle,11,-11,1,0,0,11,-11,1,0,0,1,54,214,153,1,,,,,,,,
,,,,,,,,,,,,,FF,,,,,,,,1.042,,,,,,,,,,,,,,,,,,,,,,60fcf838690196411349151e,61036d0a1cbe328e09cf25f5,2021-07-29_23h15.49.894,Simcolourproject_2stim_asymm_v5,2020.2.10,MacIntel,60,61025ae37ef11b136ea224fe,,,,,,,,,2768,-44,-84,1,0,0,response5disk,,3,-10,2,1,0,0,rectangle,-10,2,1,0,0,-10,2,1,0,0,1,55,215,54,1,,,,,,,,
,,,,,,,,,,,,,FF,,,,,,,,1.166,,,,,,,,,,,,,,,,,,,,,,60fcf838690196411349151e,61036d0a1cbe328e09cf25f5,2021-07-29_23h15.49.894,Simcolourproject_2stim_asymm_v5,2020.2.10,MacIntel,60,61025ae37ef11b136ea224fe,,,,,,,,,167,-43,-84,1,0,0,response5disk,,3,2,-9,1,0,0,rectangle,2,-9,1,0,0,2,-9,1,0,0,1,56,216,107,1,,,,,,,,
,,,,,,,,,,,,,FF,,,,,,,,1.546,,,,,,,,,,,,,,,,,,,,,,60fcf838690196411349151e,61036d0a1cbe328e09cf25f5,2021-07-29_23h15.49.894,Simcolourproject_2stim_asymm_v5,2020.2.10,MacIntel,60,61025ae37ef11b136ea224fe,,,,,,,,,3279,108,51,1,0,0,response1disk,,6,34,10,1,0,0,rectangle,34,10,1,0,0,34,10,1,0,0,1,57,217,39,1,,,,,,,,
,,,,,,,,,,,,,FF,,,,,,,,1.346,,,,,,,,,,,,,,,,,,,,,,60fcf838690196411349151e,61036d0a1cbe328e09cf25f5,2021-07-29_23h15.49.894,Simcolourproject_2stim_asymm_v5,2020.2.10,MacIntel,60,61025ae37ef11b136ea224fe,,,,,,,,,3250,-45,-66,1,0,0,response5disk,,3,-4,9,1,0,0,rectangle,-4,9,1,0,0,-4,9,1,0,0,1,58,218,16,1,,,,,,,,
,,,,,,,,,,,,,FF,,,,,,,,0.993,,,,,,,,,,,,,,,,,,,,,,60fcf838690196411349151e,61036d0a1cbe328e09cf25f5,2021-07-29_23h15.49.894,Simcolourproject_2stim_asymm_v5,2020.2.10,MacIntel,60,61025ae37ef11b136ea224fe,,,,,,,,,3939,-67,-43,1,0,0,response5disk,,2,17,-5,1,0,0,rectangle,17,-5,1,0,0,17,-5,1,0,0,1,59,219,124,1,,,,,,,,
,,,,,,,,,,,,,FF,,,,,,,,0.939,,,,,,,,,,,,,,,,,,,,,,60fcf838690196411349151e,61036d0a1cbe328e09cf25f5,2021-07-29_23h15.49.894,Simcolourproject_2stim_asymm_v5,2020.2.10,MacIntel,60,61025ae37ef11b136ea224fe,,,,,,,,,262,-78,-26,1,0,0,response5disk,,2,-2,7,1,0,0,rectangle,-2,7,1,0,0,-2,7,1,0,0,1,60,220,34,1,,,,,,,,
,,,,,,,,,,,,,FF,,,,,,,,0.779,,,,,,,,,,,,,,,,,,,,,,60fcf838690196411349151e,61036d0a1cbe328e09cf25f5,2021-07-29_23h15.49.894,Simcolourproject_2stim_asymm_v5,2020.2.10,MacIntel,60,61025ae37ef11b136ea224fe,,,,,,,,,3703,57,-110,1,0,0,response3disk,,4,11,6,1,0,0,rectangle,11,6,1,0,0,11,6,1,0,0,1,61,221,155,1,,,,,,,,
,,,,,,,,,,,,,FF,,,,,,,,9.857,,,,,,,,,,,,,,,,,,,,,,60fcf838690196411349151e,61036d0a1cbe328e09cf25f5,2021-07-29_23h15.49.894,Simcolourproject_2stim_asymm_v5,2020.2.10,MacIntel,60,61025ae37ef11b136ea224fe,,,,,,,,,1996,28,-70,1,0,0,response3disk,,4,17,-1,1,0,0,rectangle,17,-1,1,0,0,17,-1,1,0,0,1,62,222,84,1,,,,,,,,
,,,,,,,,,,,,,FF,,,,,,,,1.591,,,,,,,,,,,,,,,,,,,,,,60fcf838690196411349151e,61036d0a1cbe328e09cf25f5,2021-07-29_23h15.49.894,Simcolourproject_2stim_asymm_v5,2020.2.10,MacIntel,60,61025ae37ef11b136ea224fe,,,,,,,,,2510,85,-40,1,0,0,response3disk,,5,20,-9,1,0,0,rectangle,20,-9,1,0,0,20,-9,1,0,0,1,63,223,24,1,,,,,,,,
,,,,,,,,,,,,,FF,,,,,,,,2.464,,,,,,,,,,,,,,,,,,,,,,60fcf838690196411349151e,61036d0a1cbe328e09cf25f5,2021-07-29_23h15.49.894,Simcolourproject_2stim_asymm_v5,2020.2.10,MacIntel,60,61025ae37ef11b136ea224fe,,,,,,,,,1713,79,26,1,0,0,response1disk,,6,29,-9,1,0,0,rectangle,29,-9,1,0,0,29,-9,1,0,0,1,64,224,129,1,,,,,,,,
,,,,,,,,,,,,,FF,,,,,,,,1.01,,,,,,,,,,,,,,,,,,,,,,60fcf838690196411349151e,61036d0a1cbe328e09cf25f5,2021-07-29_23h15.49.894,Simcolourproject_2stim_asymm_v5,2020.2.10,MacIntel,60,61025ae37ef11b136ea224fe,,,,,,,,,2129,74,40,1,0,0,response1disk,,6,15,3,1,0,0,rectangle,15,3,1,0,0,15,3,1,0,0,1,65,225,7,1,,,,,,,,
,,,,,,,,,,,,,FF,,,,,,,,55.832,,,,,,,,,,,,,,,,,,,,,,60fcf838690196411349151e,61036d0a1cbe328e09cf25f5,2021-07-29_23h15.49.894,Simcolourproject_2stim_asymm_v5,2020.2.10,MacIntel,60,61025ae37ef11b136ea224fe,,,,,,,,,38,49,-86,1,0,0,response3disk,,4,27,2,1,0,0,rectangle,27,2,1,0,0,27,2,1,0,0,1,66,226,148,1,,,,,,,,
,,,,,,,,,,,,,FF,,,,,,,,0.644,,,,,,,,,,,,,,,,,,,,,,60fcf838690196411349151e,61036d0a1cbe328e09cf25f5,2021-07-29_23h15.49.894,Simcolourproject_2stim_asymm_v5,2020.2.10,MacIntel,60,61025ae37ef11b136ea224fe,,,,,,,,,4265,87,-51,1,0,0,response3disk,,5,-3,7,1,0,0,rectangle,-3,7,1,0,0,-3,7,1,0,0,1,67,227,110,1,,,,,,,,
,,,,,,,,,,,,,FF,,,,,,,,2.262,,,,,,,,,,,,,,,,,,,,,,60fcf838690196411349151e,61036d0a1cbe328e09cf25f5,2021-07-29_23h15.49.894,Simcolourproject_2stim_asymm_v5,2020.2.10,MacIntel,60,61025ae37ef11b136ea224fe,,,,,,,,,1844,101,45,1,0,0,response1disk,,6,12,-4,1,0,0,rectangle,12,-4,1,0,0,12,-4,1,0,0,1,68,228,151,1,,,,,,,,
,,,,,,,,,,,,,FF,,,,,,,,1.422,,,,,,,,,,,,,,,,,,,,,,60fcf838690196411349151e,61036d0a1cbe328e09cf25f5,2021-07-29_23h15.49.894,Simcolourproject_2stim_asymm_v5,2020.2.10,MacIntel,60,61025ae37ef11b136ea224fe,,,,,,,,,3440,91,35,1,0,0,response1disk,,6,35,2,1,0,0,rectangle,-72,-52,1,0,0,0,-5,1,0,0,1,69,229,119,1,,response5disk_3,TRUE,2,2,"[289,295,13,268,66,92,230,39,294,142,177,211,28,95,205,310,100,97,261,107]",1.706,rectangle
,,,,,,,,,,,,,FF,,,,,,,,0.864,,,,,,,,,,,,,,,,,,,,,,60fcf838690196411349151e,61036d0a1cbe328e09cf25f5,2021-07-29_23h15.49.894,Simcolourproject_2stim_asymm_v5,2020.2.10,MacIntel,60,61025ae37ef11b136ea224fe,,,,,,,,,3660,-84,-51,1,0,0,response5disk,,2,-12,-8,1,0,0,rectangle,-12,-8,1,0,0,-12,-8,1,0,0,1,70,230,37,1,,,,,,,,
,,,,,,,,,,,,,FF,,,,,,,,2.52,,,,,,,,,,,,,,,,,,,,,,60fcf838690196411349151e,61036d0a1cbe328e09cf25f5,2021-07-29_23h15.49.894,Simcolourproject_2stim_asymm_v5,2020.2.10,MacIntel,60,61025ae37ef11b136ea224fe,,,,,,,,,4273,99,39,1,0,0,response1disk,,6,-7,8,1,0,0,rectangle,-7,8,1,0,0,-7,8,1,0,0,1,71,231,130,1,,,,,,,,
,,,,,,,,,,,,,FF,,,,,,,,0.932,,,,,,,,,,,,,,,,,,,,,,60fcf838690196411349151e,61036d0a1cbe328e09cf25f5,2021-07-29_23h15.49.894,Simcolourproject_2stim_asymm_v5,2020.2.10,MacIntel,60,61025ae37ef11b136ea224fe,,,,,,,,,2148,98,17,1,0,0,response1disk,,6,25,-2,1,0,0,rectangle,25,-2,1,0,0,25,-2,1,0,0,1,72,232,8,1,,,,,,,,
,,,,,,,,,,,,,FF,,,,,,,,0.623,,,,,,,,,,,,,,,,,,,,,,60fcf838690196411349151e,61036d0a1cbe328e09cf25f5,2021-07-29_23h15.49.894,Simcolourproject_2stim_asymm_v5,2020.2.10,MacIntel,60,61025ae37ef11b136ea224fe,,,,,,,,,3894,63,30,1,0,0,response1disk,,6,19,10,1,0,0,rectangle,19,10,1,0,0,19,10,1,0,0,1,73,233,102,1,,,,,,,,
,,,,,,,,,,,,,FF,,,,,,,,0.992,,,,,,,,,,,,,,,,,,,,,,60fcf838690196411349151e,61036d0a1cbe328e09cf25f5,2021-07-29_23h15.49.894,Simcolourproject_2stim_asymm_v5,2020.2.10,MacIntel,60,61025ae37ef11b136ea224fe,,,,,,,,,1719,48,-55,1,0,0,response3disk,,4,10,-2,1,0,0,rectangle,10,-2,1,0,0,10,-2,1,0,0,1,74,234,147,1,,,,,,,,
,,,,,,,,,,,,,FF,,,,,,,,1.024,,,,,,,,,,,,,,,,,,,,,,60fcf838690196411349151e,61036d0a1cbe328e09cf25f5,2021-07-29_23h15.49.894,Simcolourproject_2stim_asymm_v5,2020.2.10,MacIntel,60,61025ae37ef11b136ea224fe,,,,,,,,,3266,90,-41,1,0,0,response3disk,,5,4,2,1,0,0,rectangle,4,2,1,0,0,4,2,1,0,0,1,75,235,74,1,,,,,,,,
,,,,,,,,,,,,,FF,,,,,,,,0.882,,,,,,,,,,,,,,,,,,,,,,60fcf838690196411349151e,61036d0a1cbe328e09cf25f5,2021-07-29_23h15.49.894,Simcolourproject_2stim_asymm_v5,2020.2.10,MacIntel,60,61025ae37ef11b136ea224fe,,,,,,,,,1885,75,-40,1,0,0,response3disk,,5,11,-10,1,0,0,rectangle,11,-10,1,0,0,11,-10,1,0,0,1,76,236,44,1,,,,,,,,
,,,,,,,,,,,,,FF,,,,,,,,2.057,,,,,,,,,,,,,,,,,,,,,,60fcf838690196411349151e,61036d0a1cbe328e09cf25f5,2021-07-29_23h15.49.894,Simcolourproject_2stim_asymm_v5,2020.2.10,MacIntel,60,61025ae37ef11b136ea224fe,,,,,,,,,4302,91,35,1,0,0,response1disk,,6,26,4,1,0,0,rectangle,26,4,1,0,0,26,4,1,0,0,1,77,237,38,1,,,,,,,,
,,,,,,,,,,,,,FF,,,,,,,,0.848,,,,,,,,,,,,,,,,,,,,,,60fcf838690196411349151e,61036d0a1cbe328e09cf25f5,2021-07-29_23h15.49.894,Simcolourproject_2stim_asymm_v5,2020.2.10,MacIntel,60,61025ae37ef11b136ea224fe,,,,,,,,,3889,86,40,1,0,0,response1disk,,6,14,0,1,0,0,rectangle,14,0,1,0,0,14,0,1,0,0,1,78,238,142,1,,,,,,,,
,,,,,,,,,,,,,FF,,,,,,,,1.104,,,,,,,,,,,,,,,,,,,,,,60fcf838690196411349151e,61036d0a1cbe328e09cf25f5,2021-07-29_23h15.49.894,Simcolourproject_2stim_asymm_v5,2020.2.10,MacIntel,60,61025ae37ef11b136ea224fe,,,,,,,,,2305,51,-116,1,0,0,response3disk,,4,12,-8,1,0,0,rectangle,12,-8,1,0,0,12,-8,1,0,0,1,79,239,75,1,,,,,,,,
,,,,,,,,,,,,,FF,,,,,,,,1.257,,,,,,,,,,,,,,,,,,,,,,60fcf838690196411349151e,61036d0a1cbe328e09cf25f5,2021-07-29_23h15.49.894,Simcolourproject_2stim_asymm_v5,2020.2.10,MacIntel,60,61025ae37ef11b136ea224fe,,,,,,,,,1323,100,65,1,0,0,response1disk,,6,1,0,1,0,0,rectangle,1,0,1,0,0,1,0,1,0,0,1,80,240,139,1,,,,,,,,
,,,,,,,,,,,,,FF,,,,,,,,0.983,,,,,,,,,,,,,,,,,,,,,,60fcf838690196411349151e,61036d0a1cbe328e09cf25f5,2021-07-29_23h15.49.894,Simcolourproject_2stim_asymm_v5,2020.2.10,MacIntel,60,61025ae37ef11b136ea224fe,,,,,,,,,338,37,-65,1,0,0,response3disk,,4,2,-11,1,0,0,rectangle,2,-11,1,0,0,2,-11,1,0,0,1,81,241,11,1,,,,,,,,
,,,,,,,,,,,,,FF,,,,,,,,1.157,,,,,,,,,,,,,,,,,,,,,,60fcf838690196411349151e,61036d0a1cbe328e09cf25f5,2021-07-29_23h15.49.894,Simcolourproject_2stim_asymm_v5,2020.2.10,MacIntel,60,61025ae37ef11b136ea224fe,,,,,,,,,1227,20,-89,1,0,0,response3disk,,4,0,-8,1,0,0,rectangle,0,-8,1,0,0,0,-8,1,0,0,1,82,242,25,1,,,,,,,,
,,,,,,,,,,,,,FF,,,,,,,,1.239,,,,,,,,,,,,,,,,,,,,,,60fcf838690196411349151e,61036d0a1cbe328e09cf25f5,2021-07-29_23h15.49.894,Simcolourproject_2stim_asymm_v5,2020.2.10,MacIntel,60,61025ae37ef11b136ea224fe,,,,,,,,,1186,33,-88,1,0,0,response3disk,,4,20,-17,1,0,0,rectangle,20,-17,1,0,0,20,-17,1,0,0,1,83,243,72,1,,,,,,,,
,,,,,,,,,,,,,FF,,,,,,,,0.552,,,,,,,,,,,,,,,,,,,,,,60fcf838690196411349151e,61036d0a1cbe328e09cf25f5,2021-07-29_23h15.49.894,Simcolourproject_2stim_asymm_v5,2020.2.10,MacIntel,60,61025ae37ef11b136ea224fe,,,,,,,,,1046,21,-52,1,0,0,response3disk,,4,9,-2,1,0,0,rectangle,9,-2,1,0,0,9,-2,1,0,0,1,84,244,43,1,,,,,,,,
,,,,,,,,,,,,,FF,,,,,,,,0.606,,,,,,,,,,,,,,,,,,,,,,60fcf838690196411349151e,61036d0a1cbe328e09cf25f5,2021-07-29_23h15.49.894,Simcolourproject_2stim_asymm_v5,2020.2.10,MacIntel,60,61025ae37ef11b136ea224fe,,,,,,,,,2483,85,52,1,0,0,response1disk,,6,21,5,1,0,0,rectangle,21,5,1,0,0,21,5,1,0,0,1,85,245,59,1,,,,,,,,
,,,,,,,,,,,,,FF,,,,,,,,0.979,,,,,,,,,,,,,,,,,,,,,,60fcf838690196411349151e,61036d0a1cbe328e09cf25f5,2021-07-29_23h15.49.894,Simcolourproject_2stim_asymm_v5,2020.2.10,MacIntel,60,61025ae37ef11b136ea224fe,,,,,,,,,3803,41,92,1,0,0,response1disk,,7,14,13,1,0,0,rectangle,14,13,1,0,0,14,13,1,0,0,1,86,246,80,1,,,,,,,,
,,,,,,,,,,,,,FF,,,,,,,,1.155,,,,,,,,,,,,,,,,,,,,,,60fcf838690196411349151e,61036d0a1cbe328e09cf25f5,2021-07-29_23h15.49.894,Simcolourproject_2stim_asymm_v5,2020.2.10,MacIntel,60,61025ae37ef11b136ea224fe,,,,,,,,,937,97,26,1,0,0,response1disk,,6,12,-9,1,0,0,rectangle,12,-9,1,0,0,12,-9,1,0,0,1,87,247,17,1,,,,,,,,
,,,,,,,,,,,,,FF,,,,,,,,0.641,,,,,,,,,,,,,,,,,,,,,,60fcf838690196411349151e,61036d0a1cbe328e09cf25f5,2021-07-29_23h15.49.894,Simcolourproject_2stim_asymm_v5,2020.2.10,MacIntel,60,61025ae37ef11b136ea224fe,,,,,,,,,767,68,20,1,0,0,response1disk,,6,3,-3,1,0,0,rectangle,3,-3,1,0,0,3,-3,1,0,0,1,88,248,126,1,,,,,,,,
,,,,,,,,,,,,,FF,,,,,,,,11.017,,,,,,,,,,,,,,,,,,,,,,60fcf838690196411349151e,61036d0a1cbe328e09cf25f5,2021-07-29_23h15.49.894,Simcolourproject_2stim_asymm_v5,2020.2.10,MacIntel,60,61025ae37ef11b136ea224fe,,,,,,,,,119,53,-84,1,0,0,response3disk,,4,20,-2,1,0,0,rectangle,20,-2,1,0,0,20,-2,1,0,0,1,89,249,87,1,,,,,,,,
,,,,,,,,,,,,,FF,,,,,,,,0.87,,,,,,,,,,,,,,,,,,,,,,60fcf838690196411349151e,61036d0a1cbe328e09cf25f5,2021-07-29_23h15.49.894,Simcolourproject_2stim_asymm_v5,2020.2.10,MacIntel,60,61025ae37ef11b136ea224fe,,,,,,,,,2569,-35,-69,1,0,0,response5disk,,3,-7,-15,1,0,0,rectangle,-7,-15,1,0,0,-7,-15,1,0,0,1,90,250,127,1,,,,,,,,
,,,,,,,,,,,,,FF,,,,,,,,0.668,,,,,,,,,,,,,,,,,,,,,,60fcf838690196411349151e,61036d0a1cbe328e09cf25f5,2021-07-29_23h15.49.894,Simcolourproject_2stim_asymm_v5,2020.2.10,MacIntel,60,61025ae37ef11b136ea224fe,,,,,,,,,4178,92,50,1,0,0,response1disk,,6,25,0,1,0,0,rectangle,25,0,1,0,0,25,0,1,0,0,1,91,251,50,1,,,,,,,,
,,,,,,,,,,,,,FF,,,,,,,,0.871,,,,,,,,,,,,,,,,,,,,,,60fcf838690196411349151e,61036d0a1cbe328e09cf25f5,2021-07-29_23h15.49.894,Simcolourproject_2stim_asymm_v5,2020.2.10,MacIntel,60,61025ae37ef11b136ea224fe,,,,,,,,,2299,-58,-43,1,0,0,response5disk,,2,-1,-4,1,0,0,rectangle,-1,-4,1,0,0,-1,-4,1,0,0,1,92,252,46,1,,,,,,,,
,,,,,,,,,,,,,FF,,,,,,,,1.359,,,,,,,,,,,,,,,,,,,,,,60fcf838690196411349151e,61036d0a1cbe328e09cf25f5,2021-07-29_23h15.49.894,Simcolourproject_2stim_asymm_v5,2020.2.10,MacIntel,60,61025ae37ef11b136ea224fe,,,,,,,,,3092,-51,-70,1,0,0,response5disk,,3,-10,-3,1,0,0,rectangle,-10,-3,1,0,0,-10,-3,1,0,0,1,93,253,94,1,,,,,,,,
,,,,,,,,,,,,,FF,,,,,,,,0.782,,,,,,,,,,,,,,,,,,,,,,60fcf838690196411349151e,61036d0a1cbe328e09cf25f5,2021-07-29_23h15.49.894,Simcolourproject_2stim_asymm_v5,2020.2.10,MacIntel,60,61025ae37ef11b136ea224fe,,,,,,,,,3139,-29,-48,1,0,0,response5disk,,3,10,-9,1,0,0,rectangle,10,-9,1,0,0,10,-9,1,0,0,1,94,254,152,1,,,,,,,,
,,,,,,,,,,,,,FF,,,,,,,,0.723,,,,,,,,,,,,,,,,,,,,,,60fcf838690196411349151e,61036d0a1cbe328e09cf25f5,2021-07-29_23h15.49.894,Simcolourproject_2stim_asymm_v5,2020.2.10,MacIntel,60,61025ae37ef11b136ea224fe,,,,,,,,,2720,-23,-52,1,0,0,response5disk,,3,24,8,1,0,0,rectangle,24,8,1,0,0,24,8,1,0,0,1,95,255,57,1,,,,,,,,
,,,,,,,,,,,,,FF,,,,,,,,0.618,,,,,,,,,,,,,,,,,,,,,,60fcf838690196411349151e,61036d0a1cbe328e09cf25f5,2021-07-29_23h15.49.894,Simcolourproject_2stim_asymm_v5,2020.2.10,MacIntel,60,61025ae37ef11b136ea224fe,,,,,,,,,407,38,-84,1,0,0,response3disk,,4,11,5,1,0,0,rectangle,11,5,1,0,0,11,5,1,0,0,1,96,256,79,1,,,,,,,,
,,,,,,,,,,,,,FF,,,,,,,,0.618,,,,,,,,,,,,,,,,,,,,,,60fcf838690196411349151e,61036d0a1cbe328e09cf25f5,2021-07-29_23h15.49.894,Simcolourproject_2stim_asymm_v5,2020.2.10,MacIntel,60,61025ae37ef11b136ea224fe,,,,,,,,,3074,70,53,1,0,0,response1disk,,6,-4,-1,1,0,0,rectangle,-4,-1,1,0,0,-4,-1,1,0,0,1,97,257,9,1,,,,,,,,
,,,,,,,,,,,,,FF,,,,,,,,0.783,,,,,,,,,,,,,,,,,,,,,,60fcf838690196411349151e,61036d0a1cbe328e09cf25f5,2021-07-29_23h15.49.894,Simcolourproject_2stim_asymm_v5,2020.2.10,MacIntel,60,61025ae37ef11b136ea224fe,,,,,,,,,1453,-78,44,1,0,0,response7disk,,1,-12,1,1,0,0,rectangle,-12,1,1,0,0,-12,1,1,0,0,1,98,258,159,1,,,,,,,,
,,,,,,,,,,,,,FF,,,,,,,,1.858,,,,,,,,,,,,,,,,,,,,,,60fcf838690196411349151e,61036d0a1cbe328e09cf25f5,2021-07-29_23h15.49.894,Simcolourproject_2stim_asymm_v5,2020.2.10,MacIntel,60,61025ae37ef11b136ea224fe,,,,,,,,,2066,89,41,1,0,0,response1disk,,6,16,5,1,0,0,rectangle,16,5,1,0,0,16,5,1,0,0,1,99,259,146,1,,,,,,,,
,,,,,,,,,,,,,FF,,,,,,,,1.815,,,,,,,,,,,,,,,,,,,,,,60fcf838690196411349151e,61036d0a1cbe328e09cf25f5,2021-07-29_23h15.49.894,Simcolourproject_2stim_asymm_v5,2020.2.10,MacIntel,60,61025ae37ef11b136ea224fe,,,,,,,,,3844,52,22,1,0,0,response1disk,,6,12,2,1,0,0,rectangle,-83,-53,1,0,0,-1,-17,1,0,0,1,100,260,136,1,,response5disk_3,TRUE,2,2,"[289,295,13,268,66,92,230,39,294,142,177,211,28,95,205,310,100,97,261,107]",2.199,rectangle
,,,,,,,,,,,,,FF,,,,,,,,1.099,,,,,,,,,,,,,,,,,,,,,,60fcf838690196411349151e,61036d0a1cbe328e09cf25f5,2021-07-29_23h15.49.894,Simcolourproject_2stim_asymm_v5,2020.2.10,MacIntel,60,61025ae37ef11b136ea224fe,,,,,,,,,1884,59,-30,1,0,0,response3disk,,5,9,6,1,0,0,rectangle,9,6,1,0,0,9,6,1,0,0,1,101,261,66,1,,,,,,,,
,,,,,,,,,,,,,FF,,,,,,,,1.782,,,,,,,,,,,,,,,,,,,,,,60fcf838690196411349151e,61036d0a1cbe328e09cf25f5,2021-07-29_23h15.49.894,Simcolourproject_2stim_asymm_v5,2020.2.10,MacIntel,60,61025ae37ef11b136ea224fe,,,,,,,,,4362,-75,32,1,0,0,response7disk,,1,-11,-9,1,0,0,rectangle,-11,-9,1,0,0,-11,-9,1,0,0,1,102,262,78,1,,,,,,,,
,,,,,,,,,,,,,FF,,,,,,,,1.659,,,,,,,,,,,,,,,,,,,,,,60fcf838690196411349151e,61036d0a1cbe328e09cf25f5,2021-07-29_23h15.49.894,Simcolourproject_2stim_asymm_v5,2020.2.10,MacIntel,60,61025ae37ef11b136ea224fe,,,,,,,,,3217,66,35,1,0,0,response1disk,,6,20,8,1,0,0,rectangle,20,8,1,0,0,20,8,1,0,0,1,103,263,156,1,,,,,,,,
,,,,,,,,,,,,,FF,,,,,,,,0.836,,,,,,,,,,,,,,,,,,,,,,60fcf838690196411349151e,61036d0a1cbe328e09cf25f5,2021-07-29_23h15.49.894,Simcolourproject_2stim_asymm_v5,2020.2.10,MacIntel,60,61025ae37ef11b136ea224fe,,,,,,,,,1603,-90,43,1,0,0,response7disk,,1,-20,-7,1,0,0,rectangle,-20,-7,1,0,0,-20,-7,1,0,0,1,104,264,121,1,,,,,,,,
,,,,,,,,,,,,,FF,,,,,,,,1.069,,,,,,,,,,,,,,,,,,,,,,60fcf838690196411349151e,61036d0a1cbe328e09cf25f5,2021-07-29_23h15.49.894,Simcolourproject_2stim_asymm_v5,2020.2.10,MacIntel,60,61025ae37ef11b136ea224fe,,,,,,,,,3103,-28,-79,1,0,0,response5disk,,3,-2,-14,1,0,0,rectangle,-2,-14,1,0,0,-2,-14,1,0,0,1,105,265,123,1,,,,,,,,
,,,,,,,,,,,,,FF,,,,,,,,0.948,,,,,,,,,,,,,,,,,,,,,,60fcf838690196411349151e,61036d0a1cbe328e09cf25f5,2021-07-29_23h15.49.894,Simcolourproject_2stim_asymm_v5,2020.2.10,MacIntel,60,61025ae37ef11b136ea224fe,,,,,,,,,1614,-45,-69,1,0,0,response5disk,,3,3,6,1,0,0,rectangle,3,6,1,0,0,3,6,1,0,0,1,106,266,41,1,,,,,,,,
,,,,,,,,,,,,,FF,,,,,,,,0.843,,,,,,,,,,,,,,,,,,,,,,60fcf838690196411349151e,61036d0a1cbe328e09cf25f5,2021-07-29_23h15.49.894,Simcolourproject_2stim_asymm_v5,2020.2.10,MacIntel,60,61025ae37ef11b136ea224fe,,,,,,,,,3457,51,-89,1,0,0,response3disk,,4,11,-1,1,0,0,rectangle,40,83,1,0,0,0,4,1,0,0,1,107,267,112,1,,response1disk_3,TRUE,7,7,"[289,295,13,268,66,92,230,39,294,142,177,211,28,95,205,310,100,97,261,107]",1.44,rectangle
,,,,,,,,,,,,,FF,,,,,,,,2.318,,,,,,,,,,,,,,,,,,,,,,60fcf838690196411349151e,61036d0a1cbe328e09cf25f5,2021-07-29_23h15.49.894,Simcolourproject_2stim_asymm_v5,2020.2.10,MacIntel,60,61025ae37ef11b136ea224fe,,,,,,,,,2233,-23,-58,1,0,0,response5disk,,3,-4,-11,1,0,0,rectangle,-4,-11,1,0,0,-4,-11,1,0,0,1,108,268,144,1,,,,,,,,
,,,,,,,,,,,,,FF,,,,,,,,0.729,,,,,,,,,,,,,,,,,,,,,,60fcf838690196411349151e,61036d0a1cbe328e09cf25f5,2021-07-29_23h15.49.894,Simcolourproject_2stim_asymm_v5,2020.2.10,MacIntel,60,61025ae37ef11b136ea224fe,,,,,,,,,1493,70,-35,1,0,0,response3disk,,5,9,6,1,0,0,rectangle,9,6,1,0,0,9,6,1,0,0,1,109,269,20,1,,,,,,,,
,,,,,,,,,,,,,FF,,,,,,,,0.699,,,,,,,,,,,,,,,,,,,,,,60fcf838690196411349151e,61036d0a1cbe328e09cf25f5,2021-07-29_23h15.49.894,Simcolourproject_2stim_asymm_v5,2020.2.10,MacIntel,60,61025ae37ef11b136ea224fe,,,,,,,,,1722,72,-57,1,0,0,response3disk,,5,22,-6,1,0,0,rectangle,22,-6,1,0,0,22,-6,1,0,0,1,110,270,15,1,,,,,,,,
,,,,,,,,,,,,,FF,,,,,,,,1.133,,,,,,,,,,,,,,,,,,,,,,60fcf838690196411349151e,61036d0a1cbe328e09cf25f5,2021-07-29_23h15.49.894,Simcolourproject_2stim_asymm_v5,2020.2.10,MacIntel,60,61025ae37ef11b136ea224fe,,,,,,,,,4072,79,34,1,0,0,response1disk,,6,27,8,1,0,0,rectangle,27,8,1,0,0,27,8,1,0,0,1,111,271,65,1,,,,,,,,
,,,,,,,,,,,,,FF,,,,,,,,41.736,,,,,,,,,,,,,,,,,,,,,,60fcf838690196411349151e,61036d0a1cbe328e09cf25f5,2021-07-29_23h15.49.894,Simcolourproject_2stim_asymm_v5,2020.2.10,MacIntel,60,61025ae37ef11b136ea224fe,,,,,,,,,1123,28,-83,1,0,0,response3disk,,4,0,-5,1,0,0,rectangle,0,-5,1,0,0,0,-5,1,0,0,1,112,272,56,1,,,,,,,,
,,,,,,,,,,,,,FF,,,,,,,,0.874,,,,,,,,,,,,,,,,,,,,,,60fcf838690196411349151e,61036d0a1cbe328e09cf25f5,2021-07-29_23h15.49.894,Simcolourproject_2stim_asymm_v5,2020.2.10,MacIntel,60,61025ae37ef11b136ea224fe,,,,,,,,,3927,49,84,1,0,0,response1disk,,7,16,16,1,0,0,rectangle,16,16,1,0,0,16,16,1,0,0,1,113,273,64,1,,,,,,,,
,,,,,,,,,,,,,FF,,,,,,,,1.388,,,,,,,,,,,,,,,,,,,,,,60fcf838690196411349151e,61036d0a1cbe328e09cf25f5,2021-07-29_23h15.49.894,Simcolourproject_2stim_asymm_v5,2020.2.10,MacIntel,60,61025ae37ef11b136ea224fe,,,,,,,,,1121,-45,-91,1,0,0,response5disk,,3,2,-9,1,0,0,rectangle,2,-9,1,0,0,2,-9,1,0,0,1,114,274,23,1,,,,,,,,
,,,,,,,,,,,,,FF,,,,,,,,0.761,,,,,,,,,,,,,,,,,,,,,,60fcf838690196411349151e,61036d0a1cbe328e09cf25f5,2021-07-29_23h15.49.894,Simcolourproject_2stim_asymm_v5,2020.2.10,MacIntel,60,61025ae37ef11b136ea224fe,,,,,,,,,2384,81,48,1,0,0,response1disk,,6,0,-8,1,0,0,rectangle,0,-8,1,0,0,0,-8,1,0,0,1,115,275,157,1,,,,,,,,
,,,,,,,,,,,,,FF,,,,,,,,1.034,,,,,,,,,,,,,,,,,,,,,,60fcf838690196411349151e,61036d0a1cbe328e09cf25f5,2021-07-29_23h15.49.894,Simcolourproject_2stim_asymm_v5,2020.2.10,MacIntel,60,61025ae37ef11b136ea224fe,,,,,,,,,3002,-17,-70,1,0,0,response5disk,,3,16,-5,1,0,0,rectangle,16,-5,1,0,0,16,-5,1,0,0,1,116,276,0,1,,,,,,,,
,,,,,,,,,,,,,FF,,,,,,,,0.957,,,,,,,,,,,,,,,,,,,,,,60fcf838690196411349151e,61036d0a1cbe328e09cf25f5,2021-07-29_23h15.49.894,Simcolourproject_2stim_asymm_v5,2020.2.10,MacIntel,60,61025ae37ef11b136ea224fe,,,,,,,,,3045,-70,29,1,0,0,response7disk,,1,1,7,1,0,0,rectangle,1,7,1,0,0,1,7,1,0,0,1,117,277,149,1,,,,,,,,
,,,,,,,,,,,,,FF,,,,,,,,1.298,,,,,,,,,,,,,,,,,,,,,,60fcf838690196411349151e,61036d0a1cbe328e09cf25f5,2021-07-29_23h15.49.894,Simcolourproject_2stim_asymm_v5,2020.2.10,MacIntel,60,61025ae37ef11b136ea224fe,,,,,,,,,762,71,-45,1,0,0,response3disk,,5,-4,-6,1,0,0,rectangle,-4,-6,1,0,0,-4,-6,1,0,0,1,118,278,1,1,,,,,,,,
,,,,,,,,,,,,,FF,,,,,,,,0.687,,,,,,,,,,,,,,,,,,,,,,60fcf838690196411349151e,61036d0a1cbe328e09cf25f5,2021-07-29_23h15.49.894,Simcolourproject_2stim_asymm_v5,2020.2.10,MacIntel,60,61025ae37ef11b136ea224fe,,,,,,,,,3164,-33,-65,1,0,0,response5disk,,3,-3,2,1,0,0,rectangle,-3,2,1,0,0,-3,2,1,0,0,1,119,279,5,1,,,,,,,,
,,,,,,,,,,,,,FF,,,,,,,,0.819,,,,,,,,,,,,,,,,,,,,,,60fcf838690196411349151e,61036d0a1cbe328e09cf25f5,2021-07-29_23h15.49.894,Simcolourproject_2stim_asymm_v5,2020.2.10,MacIntel,60,61025ae37ef11b136ea224fe,,,,,,,,,2616,94,34,1,0,0,response1disk,,6,5,13,1,0,0,rectangle,5,13,1,0,0,5,13,1,0,0,1,120,280,106,1,,,,,,,,
,,,,,,,,,,,,,FF,,,,,,,,1.476,,,,,,,,,,,,,,,,,,,,,,60fcf838690196411349151e,61036d0a1cbe328e09cf25f5,2021-07-29_23h15.49.894,Simcolourproject_2stim_asymm_v5,2020.2.10,MacIntel,60,61025ae37ef11b136ea224fe,,,,,,,,,1798,96,44,1,0,0,response1disk,,6,17,9,1,0,0,rectangle,17,9,1,0,0,17,9,1,0,0,1,121,281,40,1,,,,,,,,
,,,,,,,,,,,,,FF,,,,,,,,0.62,,,,,,,,,,,,,,,,,,,,,,60fcf838690196411349151e,61036d0a1cbe328e09cf25f5,2021-07-29_23h15.49.894,Simcolourproject_2stim_asymm_v5,2020.2.10,MacIntel,60,61025ae37ef11b136ea224fe,,,,,,,,,2495,69,31,1,0,0,response1disk,,6,3,14,1,0,0,rectangle,3,14,1,0,0,3,14,1,0,0,1,122,282,98,1,,,,,,,,
,,,,,,,,,,,,,FF,,,,,,,,0.856,,,,,,,,,,,,,,,,,,,,,,60fcf838690196411349151e,61036d0a1cbe328e09cf25f5,2021-07-29_23h15.49.894,Simcolourproject_2stim_asymm_v5,2020.2.10,MacIntel,60,61025ae37ef11b136ea224fe,,,,,,,,,765,31,62,1,0,0,response1disk,,7,0,-11,1,0,0,rectangle,0,-11,1,0,0,0,-11,1,0,0,1,123,283,21,1,,,,,,,,
,,,,,,,,,,,,,FF,,,,,,,,0.877,,,,,,,,,,,,,,,,,,,,,,60fcf838690196411349151e,61036d0a1cbe328e09cf25f5,2021-07-29_23h15.49.894,Simcolourproject_2stim_asymm_v5,2020.2.10,MacIntel,60,61025ae37ef11b136ea224fe,,,,,,,,,3085,88,52,1,0,0,response1disk,,6,24,14,1,0,0,rectangle,24,14,1,0,0,24,14,1,0,0,1,124,284,99,1,,,,,,,,
,,,,,,,,,,,,,FF,,,,,,,,2.022,,,,,,,,,,,,,,,,,,,,,,60fcf838690196411349151e,61036d0a1cbe328e09cf25f5,2021-07-29_23h15.49.894,Simcolourproject_2stim_asymm_v5,2020.2.10,MacIntel,60,61025ae37ef11b136ea224fe,,,,,,,,,1404,67,-46,1,0,0,response3disk,,5,0,5,1,0,0,rectangle,0,5,1,0,0,0,5,1,0,0,1,125,285,96,1,,,,,,,,
,,,,,,,,,,,,,FF,,,,,,,,1.123,,,,,,,,,,,,,,,,,,,,,,60fcf838690196411349151e,61036d0a1cbe328e09cf25f5,2021-07-29_23h15.49.894,Simcolourproject_2stim_asymm_v5,2020.2.10,MacIntel,60,61025ae37ef11b136ea224fe,,,,,,,,,2804,34,76,1,0,0,response1disk,,7,14,5,1,0,0,rectangle,14,5,1,0,0,14,5,1,0,0,1,126,286,133,1,,,,,,,,
,,,,,,,,,,,,,FF,,,,,,,,1.417,,,,,,,,,,,,,,,,,,,,,,60fcf838690196411349151e,61036d0a1cbe328e09cf25f5,2021-07-29_23h15.49.894,Simcolourproject_2stim_asymm_v5,2020.2.10,MacIntel,60,61025ae37ef11b136ea224fe,,,,,,,,,3577,-34,-61,1,0,0,response5disk,,3,-2,-12,1,0,0,rectangle,-2,-12,1,0,0,-2,-12,1,0,0,1,127,287,95,1,,,,,,,,
,,,,,,,,,,,,,FF,,,,,,,,1.192,,,,,,,,,,,,,,,,,,,,,,60fcf838690196411349151e,61036d0a1cbe328e09cf25f5,2021-07-29_23h15.49.894,Simcolourproject_2stim_asymm_v5,2020.2.10,MacIntel,60,61025ae37ef11b136ea224fe,,,,,,,,,377,68,-30,1,0,0,response3disk,,5,22,14,1,0,0,rectangle,-78,-44,1,0,0,-8,-4,1,0,0,1,128,288,154,1,,response5disk_3,TRUE,2,2,"[289,295,13,268,66,92,230,39,294,142,177,211,28,95,205,310,100,97,261,107]",1.671,rectangle
,,,,,,,,,,,,,FF,,,,,,,,0.855,,,,,,,,,,,,,,,,,,,,,,60fcf838690196411349151e,61036d0a1cbe328e09cf25f5,2021-07-29_23h15.49.894,Simcolourproject_2stim_asymm_v5,2020.2.10,MacIntel,60,61025ae37ef11b136ea224fe,,,,,,,,,3589,92,29,1,0,0,response1disk,,6,14,-4,1,0,0,rectangle,14,-4,1,0,0,14,-4,1,0,0,1,129,289,2,1,,,,,,,,
,,,,,,,,,,,,,FF,,,,,,,,0.857,,,,,,,,,,,,,,,,,,,,,,60fcf838690196411349151e,61036d0a1cbe328e09cf25f5,2021-07-29_23h15.49.894,Simcolourproject_2stim_asymm_v5,2020.2.10,MacIntel,60,61025ae37ef11b136ea224fe,,,,,,,,,950,77,38,1,0,0,response1disk,,6,18,2,1,0,0,rectangle,18,2,1,0,0,18,2,1,0,0,1,130,290,138,1,,,,,,,,
,,,,,,,,,,,,,FF,,,,,,,,0.735,,,,,,,,,,,,,,,,,,,,,,60fcf838690196411349151e,61036d0a1cbe328e09cf25f5,2021-07-29_23h15.49.894,Simcolourproject_2stim_asymm_v5,2020.2.10,MacIntel,60,61025ae37ef11b136ea224fe,,,,,,,,,1452,-56,59,1,0,0,response7disk,,0,0,-10,1,0,0,rectangle,0,-10,1,0,0,0,-10,1,0,0,1,131,291,97,1,,,,,,,,
,,,,,,,,,,,,,FF,,,,,,,,0.9,,,,,,,,,,,,,,,,,,,,,,60fcf838690196411349151e,61036d0a1cbe328e09cf25f5,2021-07-29_23h15.49.894,Simcolourproject_2stim_asymm_v5,2020.2.10,MacIntel,60,61025ae37ef11b136ea224fe,,,,,,,,,1049,55,-33,1,0,0,response3disk,,5,3,-3,1,0,0,rectangle,3,-3,1,0,0,3,-3,1,0,0,1,132,292,122,1,,,,,,,,
,,,,,,,,,,,,,FF,,,,,,,,0.852,,,,,,,,,,,,,,,,,,,,,,60fcf838690196411349151e,61036d0a1cbe328e09cf25f5,2021-07-29_23h15.49.894,Simcolourproject_2stim_asymm_v5,2020.2.10,MacIntel,60,61025ae37ef11b136ea224fe,,,,,,,,,2775,-58,89,1,0,0,response7disk,,0,-16,-9,1,0,0,rectangle,50,-82,1,0,0,10,2,1,0,0,1,133,293,81,1,,response3disk_3,TRUE,4,4,"[289,295,13,268,66,92,230,39,294,142,177,211,28,95,205,310,100,97,261,107]",1.269,rectangle
,,,,,,,,,,,,,FF,,,,,,,,0.854,,,,,,,,,,,,,,,,,,,,,,60fcf838690196411349151e,61036d0a1cbe328e09cf25f5,2021-07-29_23h15.49.894,Simcolourproject_2stim_asymm_v5,2020.2.10,MacIntel,60,61025ae37ef11b136ea224fe,,,,,,,,,3199,-80,-39,1,0,0,response5disk,,2,-6,-9,1,0,0,rectangle,78,-41,1,0,0,-6,3,1,0,0,1,134,294,76,1,,response3disk_3,TRUE,5,5,"[289,295,13,268,66,92,230,39,294,142,177,211,28,95,205,310,100,97,261,107]",1.53,rectangle
,,,,,,,,,,,,,FF,,,,,,,,0.736,,,,,,,,,,,,,,,,,,,,,,60fcf838690196411349151e,61036d0a1cbe328e09cf25f5,2021-07-29_23h15.49.894,Simcolourproject_2stim_asymm_v5,2020.2.10,MacIntel,60,61025ae37ef11b136ea224fe,,,,,,,,,366,-58,57,1,0,0,response7disk,,1,-16,9,1,0,0,rectangle,-16,9,1,0,0,-16,9,1,0,0,1,135,295,93,1,,,,,,,,
,,,,,,,,,,,,,FF,,,,,,,,0.832,,,,,,,,,,,,,,,,,,,,,,60fcf838690196411349151e,61036d0a1cbe328e09cf25f5,2021-07-29_23h15.49.894,Simcolourproject_2stim_asymm_v5,2020.2.10,MacIntel,60,61025ae37ef11b136ea224fe,,,,,,,,,3670,-72,-40,1,0,0,response5disk,,2,-18,-9,1,0,0,rectangle,-18,-9,1,0,0,-18,-9,1,0,0,1,136,296,111,1,,,,,,,,
,,,,,,,,,,,,,FF,,,,,,,,0.717,,,,,,,,,,,,,,,,,,,,,,60fcf838690196411349151e,61036d0a1cbe328e09cf25f5,2021-07-29_23h15.49.894,Simcolourproject_2stim_asymm_v5,2020.2.10,MacIntel,60,61025ae37ef11b136ea224fe,,,,,,,,,3080,77,-33,1,0,0,response3disk,,5,-1,3,1,0,0,rectangle,-1,3,1,0,0,-1,3,1,0,0,1,137,297,62,1,,,,,,,,
,,,,,,,,,,,,,FF,,,,,,,,0.68,,,,,,,,,,,,,,,,,,,,,,60fcf838690196411349151e,61036d0a1cbe328e09cf25f5,2021-07-29_23h15.49.894,Simcolourproject_2stim_asymm_v5,2020.2.10,MacIntel,60,61025ae37ef11b136ea224fe,,,,,,,,,1014,30,93,1,0,0,response1disk,,7,9,-1,1,0,0,rectangle,9,-1,1,0,0,9,-1,1,0,0,1,138,298,137,1,,,,,,,,
,,,,,,,,,,,,,FF,,,,,,,,0.762,,,,,,,,,,,,,,,,,,,,,,60fcf838690196411349151e,61036d0a1cbe328e09cf25f5,2021-07-29_23h15.49.894,Simcolourproject_2stim_asymm_v5,2020.2.10,MacIntel,60,61025ae37ef11b136ea224fe,,,,,,,,,3777,-35,-60,1,0,0,response5disk,,3,-2,-12,1,0,0,rectangle,-2,-12,1,0,0,-2,-12,1,0,0,1,139,299,108,1,,,,,,,,
