key_resp.keys,key_resp.rt,key_resp_14.keys,key_resp_14.rt,key_resp_15.keys,key_resp_15.rt,key_resp_17.keys,key_resp_17.rt,key_resp_9.keys,key_resp_9.rt,key_resp_10.keys,key_resp_10.rt,practice_comparison,Ecc,mouse_5.x,mouse_5.y,mouse_5.leftButton,mouse_5.midButton,mouse_5.rightButton,mouse_5.clicked_name,pracsimilarity,response_time,mouse_10.x,mouse_10.y,mouse_10.leftButton,mouse_10.midButton,mouse_10.rightButton,mouse_10.clicked_name,mouse_7.x,mouse_7.y,mouse_7.leftButton,mouse_7.midButton,mouse_7.rightButton,mouse_6.x,mouse_6.y,mouse_6.leftButton,mouse_6.midButton,mouse_6.rightButton,duringprac.thisRepN,duringprac.thisTrialN,duringprac.thisN,duringprac.thisIndex,duringprac.ran,participant,session,date,expName,psychopyVersion,OS,frameRate,study_id,mouse_7.clicked_name,catchpracsimilarity,catch_response_time,catchnumberprac,catchtrialorderprac,mouse_6.clicked_name,key_resp_22.keys,key_resp_22.rt,realcomparison,mouse.x,mouse.y,mouse.leftButton,mouse.midButton,mouse.rightButton,mouse.clicked_name,Colour2,similarity,mouse_2.x,mouse_2.y,mouse_2.leftButton,mouse_2.midButton,mouse_2.rightButton,mouse_2.clicked_name,mouse_3.x,mouse_3.y,mouse_3.leftButton,mouse_3.midButton,mouse_3.rightButton,mouse_11.x,mouse_11.y,mouse_11.leftButton,mouse_11.midButton,mouse_11.rightButton,trials_2.thisRepN,trials_2.thisTrialN,trials_2.thisN,trials_2.thisIndex,trials_2.ran,Colour1,mouse_3.clicked_name,catchornah,catchsimilarity,catchnumber,catchtrialorder,catchRT,mouse_11.clicked_name
space,1.588,space,13.977,space,38.637,space,17.915,space,2.683,space,3.356,134,FF,36,-77,1,0,0,response3disk_5,4,39.487,-3,1,1,0,0,rectangle_8,-3,1,1,0,0,-3,1,1,0,0,0,0,0,0,1,60fcca6898f0e36db0e37f05,61036e75e5b336bf7d3152ed,2021-07-29_23h14.40.272,Simcolourproject_2stim_asymm_v5,2020.2.10,MacIntel,60,61025ae37ef11b136ea224fe,,,,,,,,,,,,,,,,,,,,,,,,,,,,,,,,,,,,,,,,,,,,,,
,,,,,,,,,,,,83,FF,-88,-51,1,0,0,response5disk_5,2,4.113,3,5,1,0,0,rectangle_8,89,44,1,0,0,-3,0,1,0,0,0,1,1,5,1,60fcca6898f0e36db0e37f05,61036e75e5b336bf7d3152ed,2021-07-29_23h14.40.272,Simcolourproject_2stim_asymm_v5,2020.2.10,MacIntel,60,61025ae37ef11b136ea224fe,response1disk_7,6,2.318,6,"[2,5]",rectangle_4,,,,,,,,,,,,,,,,,,,,,,,,,,,,,,,,,,,,,,,,
,,,,,,,,,,,,0,FF,19,-96,1,0,0,response3disk_5,4,3.596,-2,1,1,0,0,rectangle_8,-2,1,1,0,0,-2,1,1,0,0,0,2,2,3,1,60fcca6898f0e36db0e37f05,61036e75e5b336bf7d3152ed,2021-07-29_23h14.40.272,Simcolourproject_2stim_asymm_v5,2020.2.10,MacIntel,60,61025ae37ef11b136ea224fe,,,,,,,,,,,,,,,,,,,,,,,,,,,,,,,,,,,,,,,,,,,,,,
,,,,,,,,,,,,142,PF,99,-38,1,0,0,response3disk_5,5,8.586,-1,11,1,0,0,rectangle_8,-1,11,1,0,0,-1,11,1,0,0,0,3,3,4,1,60fcca6898f0e36db0e37f05,61036e75e5b336bf7d3152ed,2021-07-29_23h14.40.272,Simcolourproject_2stim_asymm_v5,2020.2.10,MacIntel,60,61025ae37ef11b136ea224fe,,,,,,,,,,,,,,,,,,,,,,,,,,,,,,,,,,,,,,,,,,,,,,
,,,,,,,,,,,,128,PF,35,76,1,0,0,response1disk_5,7,1.67,0,1,1,0,0,rectangle_8,105,43,1,0,0,-10,4,1,0,0,0,4,4,2,1,60fcca6898f0e36db0e37f05,61036e75e5b336bf7d3152ed,2021-07-29_23h14.40.272,Simcolourproject_2stim_asymm_v5,2020.2.10,MacIntel,60,61025ae37ef11b136ea224fe,response1disk_7,6,1.868,6,"[2,5]",rectangle_4,,,,,,,,,,,,,,,,,,,,,,,,,,,,,,,,,,,,,,,,
,,,,,,,,,,,,117,PF,23,99,1,0,0,response1disk_5,7,1.201,2,-11,1,0,0,rectangle_8,2,-11,1,0,0,2,-11,1,0,0,0,5,5,1,1,60fcca6898f0e36db0e37f05,61036e75e5b336bf7d3152ed,2021-07-29_23h14.40.272,Simcolourproject_2stim_asymm_v5,2020.2.10,MacIntel,60,61025ae37ef11b136ea224fe,,,,,,,,,,,,,,,,,,,,,,,,,,,,,,,,,,,,,,,,,,,,,,
,,,,,,,,,,,,2,PF,107,-28,1,0,0,response3disk_5,5,3.377,1,14,1,0,0,rectangle_8,1,14,1,0,0,1,14,1,0,0,0,6,6,6,1,60fcca6898f0e36db0e37f05,61036e75e5b336bf7d3152ed,2021-07-29_23h14.40.272,Simcolourproject_2stim_asymm_v5,2020.2.10,MacIntel,60,61025ae37ef11b136ea224fe,,,,,,,,,,,,,,,,,,,,,,,,,,,,,,,,,,,,,,,,,,,,,,
,,,,,,,,,,,,,FF,,,,,,,,1.492,,,,,,,,,,,,,,,,,,,,,,60fcca6898f0e36db0e37f05,61036e75e5b336bf7d3152ed,2021-07-29_23h14.40.272,Simcolourproject_2stim_asymm_v5,2020.2.10,MacIntel,60,61025ae37ef11b136ea224fe,,,,,,,space,8.913,561,-32,-86,1,0,0,response5disk,,3,-2,0,1,0,0,rectangle,-2,0,1,0,0,-2,0,1,0,0,0,0,0,11,1,,,,,,,,
,,,,,,,,,,,,,FF,,,,,,,,1.864,,,,,,,,,,,,,,,,,,,,,,60fcca6898f0e36db0e37f05,61036e75e5b336bf7d3152ed,2021-07-29_23h14.40.272,Simcolourproject_2stim_asymm_v5,2020.2.10,MacIntel,60,61025ae37ef11b136ea224fe,,,,,,,,,482,-29,-69,1,0,0,response5disk,,3,-11,-11,1,0,0,rectangle,-11,-11,1,0,0,-11,-11,1,0,0,0,1,1,47,1,,,,,,,,
,,,,,,,,,,,,,FF,,,,,,,,1.456,,,,,,,,,,,,,,,,,,,,,,60fcca6898f0e36db0e37f05,61036e75e5b336bf7d3152ed,2021-07-29_23h14.40.272,Simcolourproject_2stim_asymm_v5,2020.2.10,MacIntel,60,61025ae37ef11b136ea224fe,,,,,,,,,4355,85,-42,1,0,0,response3disk,,5,9,7,1,0,0,rectangle,9,7,1,0,0,9,7,1,0,0,0,2,2,35,1,,,,,,,,
,,,,,,,,,,,,,FF,,,,,,,,1.22,,,,,,,,,,,,,,,,,,,,,,60fcca6898f0e36db0e37f05,61036e75e5b336bf7d3152ed,2021-07-29_23h14.40.272,Simcolourproject_2stim_asymm_v5,2020.2.10,MacIntel,60,61025ae37ef11b136ea224fe,,,,,,,,,344,76,-25,1,0,0,response3disk,,5,7,1,1,0,0,rectangle,7,1,1,0,0,7,1,1,0,0,0,3,3,158,1,,,,,,,,
,,,,,,,,,,,,,FF,,,,,,,,1.102,,,,,,,,,,,,,,,,,,,,,,60fcca6898f0e36db0e37f05,61036e75e5b336bf7d3152ed,2021-07-29_23h14.40.272,Simcolourproject_2stim_asymm_v5,2020.2.10,MacIntel,60,61025ae37ef11b136ea224fe,,,,,,,,,68,103,57,1,0,0,response1disk,,6,10,13,1,0,0,rectangle,10,13,1,0,0,10,13,1,0,0,0,4,4,85,1,,,,,,,,
,,,,,,,,,,,,,FF,,,,,,,,1.9,,,,,,,,,,,,,,,,,,,,,,60fcca6898f0e36db0e37f05,61036e75e5b336bf7d3152ed,2021-07-29_23h14.40.272,Simcolourproject_2stim_asymm_v5,2020.2.10,MacIntel,60,61025ae37ef11b136ea224fe,,,,,,,,,4237,-89,47,1,0,0,response7disk,,1,5,8,1,0,0,rectangle,5,8,1,0,0,5,8,1,0,0,0,5,5,28,1,,,,,,,,
,,,,,,,,,,,,,FF,,,,,,,,0.97,,,,,,,,,,,,,,,,,,,,,,60fcca6898f0e36db0e37f05,61036e75e5b336bf7d3152ed,2021-07-29_23h14.40.272,Simcolourproject_2stim_asymm_v5,2020.2.10,MacIntel,60,61025ae37ef11b136ea224fe,,,,,,,,,810,-68,34,1,0,0,response7disk,,1,0,-1,1,0,0,rectangle,0,-1,1,0,0,0,-1,1,0,0,0,6,6,80,1,,,,,,,,
,,,,,,,,,,,,,FF,,,,,,,,1.079,,,,,,,,,,,,,,,,,,,,,,60fcca6898f0e36db0e37f05,61036e75e5b336bf7d3152ed,2021-07-29_23h14.40.272,Simcolourproject_2stim_asymm_v5,2020.2.10,MacIntel,60,61025ae37ef11b136ea224fe,,,,,,,,,1629,81,32,1,0,0,response1disk,,6,-3,-6,1,0,0,rectangle,-3,-6,1,0,0,-3,-6,1,0,0,0,7,7,57,1,,,,,,,,
,,,,,,,,,,,,,FF,,,,,,,,1.657,,,,,,,,,,,,,,,,,,,,,,60fcca6898f0e36db0e37f05,61036e75e5b336bf7d3152ed,2021-07-29_23h14.40.272,Simcolourproject_2stim_asymm_v5,2020.2.10,MacIntel,60,61025ae37ef11b136ea224fe,,,,,,,,,660,77,-40,1,0,0,response3disk,,5,0,0,1,0,0,rectangle,0,0,1,0,0,0,0,1,0,0,0,8,8,138,1,,,,,,,,
,,,,,,,,,,,,,FF,,,,,,,,1.224,,,,,,,,,,,,,,,,,,,,,,60fcca6898f0e36db0e37f05,61036e75e5b336bf7d3152ed,2021-07-29_23h14.40.272,Simcolourproject_2stim_asymm_v5,2020.2.10,MacIntel,60,61025ae37ef11b136ea224fe,,,,,,,,,547,-69,-36,1,0,0,response5disk,,2,1,-7,1,0,0,rectangle,1,-7,1,0,0,1,-7,1,0,0,0,9,9,1,1,,,,,,,,
,,,,,,,,,,,,,FF,,,,,,,,0.93,,,,,,,,,,,,,,,,,,,,,,60fcca6898f0e36db0e37f05,61036e75e5b336bf7d3152ed,2021-07-29_23h14.40.272,Simcolourproject_2stim_asymm_v5,2020.2.10,MacIntel,60,61025ae37ef11b136ea224fe,,,,,,,,,3582,83,35,1,0,0,response1disk,,6,11,4,1,0,0,rectangle,11,4,1,0,0,11,4,1,0,0,0,10,10,67,1,,,,,,,,
,,,,,,,,,,,,,FF,,,,,,,,0.935,,,,,,,,,,,,,,,,,,,,,,60fcca6898f0e36db0e37f05,61036e75e5b336bf7d3152ed,2021-07-29_23h14.40.272,Simcolourproject_2stim_asymm_v5,2020.2.10,MacIntel,60,61025ae37ef11b136ea224fe,,,,,,,,,1526,-71,-50,1,0,0,response5disk,,2,-15,-4,1,0,0,rectangle,-15,-4,1,0,0,-15,-4,1,0,0,0,11,11,115,1,,,,,,,,
,,,,,,,,,,,,,FF,,,,,,,,1.409,,,,,,,,,,,,,,,,,,,,,,60fcca6898f0e36db0e37f05,61036e75e5b336bf7d3152ed,2021-07-29_23h14.40.272,Simcolourproject_2stim_asymm_v5,2020.2.10,MacIntel,60,61025ae37ef11b136ea224fe,,,,,,,,,616,-37,-76,1,0,0,response5disk,,3,-4,-9,1,0,0,rectangle,-4,-9,1,0,0,-4,-9,1,0,0,0,12,12,73,1,,,,,,,,
,,,,,,,,,,,,,FF,,,,,,,,1.578,,,,,,,,,,,,,,,,,,,,,,60fcca6898f0e36db0e37f05,61036e75e5b336bf7d3152ed,2021-07-29_23h14.40.272,Simcolourproject_2stim_asymm_v5,2020.2.10,MacIntel,60,61025ae37ef11b136ea224fe,,,,,,,,,1961,-99,-33,1,0,0,response5disk,,2,17,-3,1,0,0,rectangle,17,-3,1,0,0,17,-3,1,0,0,0,13,13,66,1,,,,,,,,
,,,,,,,,,,,,,FF,,,,,,,,0.746,,,,,,,,,,,,,,,,,,,,,,60fcca6898f0e36db0e37f05,61036e75e5b336bf7d3152ed,2021-07-29_23h14.40.272,Simcolourproject_2stim_asymm_v5,2020.2.10,MacIntel,60,61025ae37ef11b136ea224fe,,,,,,,,,2636,39,63,1,0,0,response1disk,,7,12,6,1,0,0,rectangle,12,6,1,0,0,12,6,1,0,0,0,14,14,70,1,,,,,,,,
,,,,,,,,,,,,,FF,,,,,,,,2.105,,,,,,,,,,,,,,,,,,,,,,60fcca6898f0e36db0e37f05,61036e75e5b336bf7d3152ed,2021-07-29_23h14.40.272,Simcolourproject_2stim_asymm_v5,2020.2.10,MacIntel,60,61025ae37ef11b136ea224fe,,,,,,,,,1810,28,-76,1,0,0,response3disk,,4,0,-13,1,0,0,rectangle,0,-13,1,0,0,0,-13,1,0,0,0,15,15,37,1,,,,,,,,
,,,,,,,,,,,,,FF,,,,,,,,1.521,,,,,,,,,,,,,,,,,,,,,,60fcca6898f0e36db0e37f05,61036e75e5b336bf7d3152ed,2021-07-29_23h14.40.272,Simcolourproject_2stim_asymm_v5,2020.2.10,MacIntel,60,61025ae37ef11b136ea224fe,,,,,,,,,541,107,30,1,0,0,response1disk,,6,-8,5,1,0,0,rectangle,-8,5,1,0,0,-8,5,1,0,0,0,16,16,23,1,,,,,,,,
,,,,,,,,,,,,,FF,,,,,,,,0.947,,,,,,,,,,,,,,,,,,,,,,60fcca6898f0e36db0e37f05,61036e75e5b336bf7d3152ed,2021-07-29_23h14.40.272,Simcolourproject_2stim_asymm_v5,2020.2.10,MacIntel,60,61025ae37ef11b136ea224fe,,,,,,,,,882,80,-21,1,0,0,response3disk,,5,9,-4,1,0,0,rectangle,9,-4,1,0,0,9,-4,1,0,0,0,17,17,6,1,,,,,,,,
,,,,,,,,,,,,,FF,,,,,,,,1.143,,,,,,,,,,,,,,,,,,,,,,60fcca6898f0e36db0e37f05,61036e75e5b336bf7d3152ed,2021-07-29_23h14.40.272,Simcolourproject_2stim_asymm_v5,2020.2.10,MacIntel,60,61025ae37ef11b136ea224fe,,,,,,,,,2241,33,-73,1,0,0,response3disk,,4,-5,-3,1,0,0,rectangle,-5,-3,1,0,0,-5,-3,1,0,0,0,18,18,96,1,,,,,,,,
,,,,,,,,,,,,,FF,,,,,,,,0.939,,,,,,,,,,,,,,,,,,,,,,60fcca6898f0e36db0e37f05,61036e75e5b336bf7d3152ed,2021-07-29_23h14.40.272,Simcolourproject_2stim_asymm_v5,2020.2.10,MacIntel,60,61025ae37ef11b136ea224fe,,,,,,,,,3806,40,-81,1,0,0,response3disk,,4,6,2,1,0,0,rectangle,6,2,1,0,0,6,2,1,0,0,0,19,19,45,1,,,,,,,,
,,,,,,,,,,,,,FF,,,,,,,,0.809,,,,,,,,,,,,,,,,,,,,,,60fcca6898f0e36db0e37f05,61036e75e5b336bf7d3152ed,2021-07-29_23h14.40.272,Simcolourproject_2stim_asymm_v5,2020.2.10,MacIntel,60,61025ae37ef11b136ea224fe,,,,,,,,,2129,76,45,1,0,0,response1disk,,6,5,13,1,0,0,rectangle,5,13,1,0,0,5,13,1,0,0,0,20,20,141,1,,,,,,,,
,,,,,,,,,,,,,FF,,,,,,,,0.893,,,,,,,,,,,,,,,,,,,,,,60fcca6898f0e36db0e37f05,61036e75e5b336bf7d3152ed,2021-07-29_23h14.40.272,Simcolourproject_2stim_asymm_v5,2020.2.10,MacIntel,60,61025ae37ef11b136ea224fe,,,,,,,,,4278,-46,-86,1,0,0,response5disk,,3,-5,15,1,0,0,rectangle,-5,15,1,0,0,-5,15,1,0,0,0,21,21,102,1,,,,,,,,
,,,,,,,,,,,,,FF,,,,,,,,0.654,,,,,,,,,,,,,,,,,,,,,,60fcca6898f0e36db0e37f05,61036e75e5b336bf7d3152ed,2021-07-29_23h14.40.272,Simcolourproject_2stim_asymm_v5,2020.2.10,MacIntel,60,61025ae37ef11b136ea224fe,,,,,,,,,3703,-38,-76,1,0,0,response5disk,,3,3,-1,1,0,0,rectangle,3,-1,1,0,0,3,-1,1,0,0,0,22,22,146,1,,,,,,,,
,,,,,,,,,,,,,FF,,,,,,,,0.681,,,,,,,,,,,,,,,,,,,,,,60fcca6898f0e36db0e37f05,61036e75e5b336bf7d3152ed,2021-07-29_23h14.40.272,Simcolourproject_2stim_asymm_v5,2020.2.10,MacIntel,60,61025ae37ef11b136ea224fe,,,,,,,,,778,48,-86,1,0,0,response3disk,,4,3,3,1,0,0,rectangle,3,3,1,0,0,3,3,1,0,0,0,23,23,113,1,,,,,,,,
,,,,,,,,,,,,,FF,,,,,,,,3.078,,,,,,,,,,,,,,,,,,,,,,60fcca6898f0e36db0e37f05,61036e75e5b336bf7d3152ed,2021-07-29_23h14.40.272,Simcolourproject_2stim_asymm_v5,2020.2.10,MacIntel,60,61025ae37ef11b136ea224fe,,,,,,,,,1460,-69,41,1,0,0,response7disk,,1,-4,-4,1,0,0,rectangle,-4,-4,1,0,0,-4,-4,1,0,0,0,24,24,112,1,,,,,,,,
,,,,,,,,,,,,,FF,,,,,,,,0.828,,,,,,,,,,,,,,,,,,,,,,60fcca6898f0e36db0e37f05,61036e75e5b336bf7d3152ed,2021-07-29_23h14.40.272,Simcolourproject_2stim_asymm_v5,2020.2.10,MacIntel,60,61025ae37ef11b136ea224fe,,,,,,,,,4019,39,61,1,0,0,response1disk,,7,-1,6,1,0,0,rectangle,-1,6,1,0,0,-1,6,1,0,0,0,25,25,89,1,,,,,,,,
,,,,,,,,,,,,,FF,,,,,,,,1.5,,,,,,,,,,,,,,,,,,,,,,60fcca6898f0e36db0e37f05,61036e75e5b336bf7d3152ed,2021-07-29_23h14.40.272,Simcolourproject_2stim_asymm_v5,2020.2.10,MacIntel,60,61025ae37ef11b136ea224fe,,,,,,,,,1510,88,53,1,0,0,response1disk,,6,-10,1,1,0,0,rectangle,-10,1,1,0,0,-10,1,1,0,0,0,26,26,8,1,,,,,,,,
,,,,,,,,,,,,,FF,,,,,,,,0.764,,,,,,,,,,,,,,,,,,,,,,60fcca6898f0e36db0e37f05,61036e75e5b336bf7d3152ed,2021-07-29_23h14.40.272,Simcolourproject_2stim_asymm_v5,2020.2.10,MacIntel,60,61025ae37ef11b136ea224fe,,,,,,,,,2691,83,-19,1,0,0,response3disk,,5,-1,-2,1,0,0,rectangle,-1,-2,1,0,0,-1,-2,1,0,0,0,27,27,44,1,,,,,,,,
,,,,,,,,,,,,,FF,,,,,,,,1.149,,,,,,,,,,,,,,,,,,,,,,60fcca6898f0e36db0e37f05,61036e75e5b336bf7d3152ed,2021-07-29_23h14.40.272,Simcolourproject_2stim_asymm_v5,2020.2.10,MacIntel,60,61025ae37ef11b136ea224fe,,,,,,,,,3771,-24,-73,1,0,0,response5disk,,3,7,-15,1,0,0,rectangle,-94,-44,1,0,0,8,2,1,0,0,0,28,28,134,1,,response5disk_3,TRUE,2,2,"[191,60,57,29,228,212,256,307,143,102,275,94,156,188,183,217,89,74,74,222]",2.037,rectangle
,,,,,,,,,,,,,FF,,,,,,,,0.827,,,,,,,,,,,,,,,,,,,,,,60fcca6898f0e36db0e37f05,61036e75e5b336bf7d3152ed,2021-07-29_23h14.40.272,Simcolourproject_2stim_asymm_v5,2020.2.10,MacIntel,60,61025ae37ef11b136ea224fe,,,,,,,,,3605,44,-78,1,0,0,response3disk,,4,6,4,1,0,0,rectangle,6,4,1,0,0,6,4,1,0,0,0,29,29,144,1,,,,,,,,
,,,,,,,,,,,,,FF,,,,,,,,0.853,,,,,,,,,,,,,,,,,,,,,,60fcca6898f0e36db0e37f05,61036e75e5b336bf7d3152ed,2021-07-29_23h14.40.272,Simcolourproject_2stim_asymm_v5,2020.2.10,MacIntel,60,61025ae37ef11b136ea224fe,,,,,,,,,2099,-72,23,1,0,0,response7disk,,1,-13,-1,1,0,0,rectangle,-13,-1,1,0,0,-13,-1,1,0,0,0,30,30,58,1,,,,,,,,
,,,,,,,,,,,,,FF,,,,,,,,0.876,,,,,,,,,,,,,,,,,,,,,,60fcca6898f0e36db0e37f05,61036e75e5b336bf7d3152ed,2021-07-29_23h14.40.272,Simcolourproject_2stim_asymm_v5,2020.2.10,MacIntel,60,61025ae37ef11b136ea224fe,,,,,,,,,2017,-22,-74,1,0,0,response5disk,,3,3,2,1,0,0,rectangle,3,2,1,0,0,3,2,1,0,0,0,31,31,132,1,,,,,,,,
,,,,,,,,,,,,,FF,,,,,,,,1.118,,,,,,,,,,,,,,,,,,,,,,60fcca6898f0e36db0e37f05,61036e75e5b336bf7d3152ed,2021-07-29_23h14.40.272,Simcolourproject_2stim_asymm_v5,2020.2.10,MacIntel,60,61025ae37ef11b136ea224fe,,,,,,,,,558,24,-79,1,0,0,response3disk,,4,-3,-3,1,0,0,rectangle,-3,-3,1,0,0,-3,-3,1,0,0,0,32,32,143,1,,,,,,,,
,,,,,,,,,,,,,FF,,,,,,,,0.834,,,,,,,,,,,,,,,,,,,,,,60fcca6898f0e36db0e37f05,61036e75e5b336bf7d3152ed,2021-07-29_23h14.40.272,Simcolourproject_2stim_asymm_v5,2020.2.10,MacIntel,60,61025ae37ef11b136ea224fe,,,,,,,,,983,55,-90,1,0,0,response3disk,,4,5,10,1,0,0,rectangle,5,10,1,0,0,5,10,1,0,0,0,33,33,64,1,,,,,,,,
,,,,,,,,,,,,,FF,,,,,,,,0.843,,,,,,,,,,,,,,,,,,,,,,60fcca6898f0e36db0e37f05,61036e75e5b336bf7d3152ed,2021-07-29_23h14.40.272,Simcolourproject_2stim_asymm_v5,2020.2.10,MacIntel,60,61025ae37ef11b136ea224fe,,,,,,,,,1865,98,24,1,0,0,response1disk,,6,17,-7,1,0,0,rectangle,17,-7,1,0,0,17,-7,1,0,0,0,34,34,116,1,,,,,,,,
,,,,,,,,,,,,,FF,,,,,,,,0.734,,,,,,,,,,,,,,,,,,,,,,60fcca6898f0e36db0e37f05,61036e75e5b336bf7d3152ed,2021-07-29_23h14.40.272,Simcolourproject_2stim_asymm_v5,2020.2.10,MacIntel,60,61025ae37ef11b136ea224fe,,,,,,,,,581,19,66,1,0,0,response1disk,,7,8,-2,1,0,0,rectangle,8,-2,1,0,0,8,-2,1,0,0,0,35,35,125,1,,,,,,,,
,,,,,,,,,,,,,FF,,,,,,,,1.078,,,,,,,,,,,,,,,,,,,,,,60fcca6898f0e36db0e37f05,61036e75e5b336bf7d3152ed,2021-07-29_23h14.40.272,Simcolourproject_2stim_asymm_v5,2020.2.10,MacIntel,60,61025ae37ef11b136ea224fe,,,,,,,,,3552,-68,47,1,0,0,response7disk,,1,-4,0,1,0,0,rectangle,-4,0,1,0,0,-4,0,1,0,0,0,36,36,86,1,,,,,,,,
,,,,,,,,,,,,,FF,,,,,,,,0.724,,,,,,,,,,,,,,,,,,,,,,60fcca6898f0e36db0e37f05,61036e75e5b336bf7d3152ed,2021-07-29_23h14.40.272,Simcolourproject_2stim_asymm_v5,2020.2.10,MacIntel,60,61025ae37ef11b136ea224fe,,,,,,,,,1274,-41,-78,1,0,0,response5disk,,3,-2,-7,1,0,0,rectangle,-2,-7,1,0,0,-2,-7,1,0,0,0,37,37,16,1,,,,,,,,
,,,,,,,,,,,,,FF,,,,,,,,1.198,,,,,,,,,,,,,,,,,,,,,,60fcca6898f0e36db0e37f05,61036e75e5b336bf7d3152ed,2021-07-29_23h14.40.272,Simcolourproject_2stim_asymm_v5,2020.2.10,MacIntel,60,61025ae37ef11b136ea224fe,,,,,,,,,1869,83,37,1,0,0,response1disk,,6,-14,-7,1,0,0,rectangle,-14,-7,1,0,0,-14,-7,1,0,0,0,38,38,129,1,,,,,,,,
,,,,,,,,,,,,,FF,,,,,,,,1.203,,,,,,,,,,,,,,,,,,,,,,60fcca6898f0e36db0e37f05,61036e75e5b336bf7d3152ed,2021-07-29_23h14.40.272,Simcolourproject_2stim_asymm_v5,2020.2.10,MacIntel,60,61025ae37ef11b136ea224fe,,,,,,,,,3200,-90,-38,1,0,0,response5disk,,2,-1,11,1,0,0,rectangle,-1,11,1,0,0,-1,11,1,0,0,0,39,39,9,1,,,,,,,,
,,,,,,,,,,,,,FF,,,,,,,,0.705,,,,,,,,,,,,,,,,,,,,,,60fcca6898f0e36db0e37f05,61036e75e5b336bf7d3152ed,2021-07-29_23h14.40.272,Simcolourproject_2stim_asymm_v5,2020.2.10,MacIntel,60,61025ae37ef11b136ea224fe,,,,,,,,,1095,43,65,1,0,0,response1disk,,7,14,4,1,0,0,rectangle,14,4,1,0,0,14,4,1,0,0,0,40,40,32,1,,,,,,,,
,,,,,,,,,,,,,FF,,,,,,,,1.36,,,,,,,,,,,,,,,,,,,,,,60fcca6898f0e36db0e37f05,61036e75e5b336bf7d3152ed,2021-07-29_23h14.40.272,Simcolourproject_2stim_asymm_v5,2020.2.10,MacIntel,60,61025ae37ef11b136ea224fe,,,,,,,,,1801,23,-72,1,0,0,response3disk,,4,-1,-2,1,0,0,rectangle,-1,-2,1,0,0,-1,-2,1,0,0,0,41,41,21,1,,,,,,,,
,,,,,,,,,,,,,FF,,,,,,,,1.893,,,,,,,,,,,,,,,,,,,,,,60fcca6898f0e36db0e37f05,61036e75e5b336bf7d3152ed,2021-07-29_23h14.40.272,Simcolourproject_2stim_asymm_v5,2020.2.10,MacIntel,60,61025ae37ef11b136ea224fe,,,,,,,,,359,63,47,1,0,0,response1disk,,6,-14,2,1,0,0,rectangle,-14,2,1,0,0,-14,2,1,0,0,0,42,42,12,1,,,,,,,,
,,,,,,,,,,,,,FF,,,,,,,,0.998,,,,,,,,,,,,,,,,,,,,,,60fcca6898f0e36db0e37f05,61036e75e5b336bf7d3152ed,2021-07-29_23h14.40.272,Simcolourproject_2stim_asymm_v5,2020.2.10,MacIntel,60,61025ae37ef11b136ea224fe,,,,,,,,,2054,-72,-42,1,0,0,response5disk,,2,7,0,1,0,0,rectangle,7,0,1,0,0,7,0,1,0,0,0,43,43,33,1,,,,,,,,
,,,,,,,,,,,,,FF,,,,,,,,1.118,,,,,,,,,,,,,,,,,,,,,,60fcca6898f0e36db0e37f05,61036e75e5b336bf7d3152ed,2021-07-29_23h14.40.272,Simcolourproject_2stim_asymm_v5,2020.2.10,MacIntel,60,61025ae37ef11b136ea224fe,,,,,,,,,2020,29,-74,1,0,0,response3disk,,4,11,-1,1,0,0,rectangle,11,-1,1,0,0,11,-1,1,0,0,0,44,44,154,1,,,,,,,,
,,,,,,,,,,,,,FF,,,,,,,,0.955,,,,,,,,,,,,,,,,,,,,,,60fcca6898f0e36db0e37f05,61036e75e5b336bf7d3152ed,2021-07-29_23h14.40.272,Simcolourproject_2stim_asymm_v5,2020.2.10,MacIntel,60,61025ae37ef11b136ea224fe,,,,,,,,,566,78,-49,1,0,0,response3disk,,5,-1,0,1,0,0,rectangle,-1,0,1,0,0,-1,0,1,0,0,0,45,45,46,1,,,,,,,,
,,,,,,,,,,,,,FF,,,,,,,,0.864,,,,,,,,,,,,,,,,,,,,,,60fcca6898f0e36db0e37f05,61036e75e5b336bf7d3152ed,2021-07-29_23h14.40.272,Simcolourproject_2stim_asymm_v5,2020.2.10,MacIntel,60,61025ae37ef11b136ea224fe,,,,,,,,,3928,88,30,1,0,0,response1disk,,6,8,11,1,0,0,rectangle,8,11,1,0,0,8,11,1,0,0,0,46,46,110,1,,,,,,,,
,,,,,,,,,,,,,FF,,,,,,,,0.909,,,,,,,,,,,,,,,,,,,,,,60fcca6898f0e36db0e37f05,61036e75e5b336bf7d3152ed,2021-07-29_23h14.40.272,Simcolourproject_2stim_asymm_v5,2020.2.10,MacIntel,60,61025ae37ef11b136ea224fe,,,,,,,,,3921,-24,-79,1,0,0,response5disk,,3,-5,-6,1,0,0,rectangle,-5,-6,1,0,0,-5,-6,1,0,0,0,47,47,79,1,,,,,,,,
,,,,,,,,,,,,,FF,,,,,,,,0.793,,,,,,,,,,,,,,,,,,,,,,60fcca6898f0e36db0e37f05,61036e75e5b336bf7d3152ed,2021-07-29_23h14.40.272,Simcolourproject_2stim_asymm_v5,2020.2.10,MacIntel,60,61025ae37ef11b136ea224fe,,,,,,,,,3228,78,-40,1,0,0,response3disk,,5,3,-8,1,0,0,rectangle,3,-8,1,0,0,3,-8,1,0,0,0,48,48,135,1,,,,,,,,
,,,,,,,,,,,,,FF,,,,,,,,0.864,,,,,,,,,,,,,,,,,,,,,,60fcca6898f0e36db0e37f05,61036e75e5b336bf7d3152ed,2021-07-29_23h14.40.272,Simcolourproject_2stim_asymm_v5,2020.2.10,MacIntel,60,61025ae37ef11b136ea224fe,,,,,,,,,4239,-81,-34,1,0,0,response5disk,,2,-1,-2,1,0,0,rectangle,-1,-2,1,0,0,-1,-2,1,0,0,0,49,49,140,1,,,,,,,,
,,,,,,,,,,,,,FF,,,,,,,,1.17,,,,,,,,,,,,,,,,,,,,,,60fcca6898f0e36db0e37f05,61036e75e5b336bf7d3152ed,2021-07-29_23h14.40.272,Simcolourproject_2stim_asymm_v5,2020.2.10,MacIntel,60,61025ae37ef11b136ea224fe,,,,,,,,,4200,-38,83,1,0,0,response7disk,,0,-12,9,1,0,0,rectangle,-12,9,1,0,0,-12,9,1,0,0,0,50,50,3,1,,,,,,,,
,,,,,,,,,,,,,FF,,,,,,,,0.95,,,,,,,,,,,,,,,,,,,,,,60fcca6898f0e36db0e37f05,61036e75e5b336bf7d3152ed,2021-07-29_23h14.40.272,Simcolourproject_2stim_asymm_v5,2020.2.10,MacIntel,60,61025ae37ef11b136ea224fe,,,,,,,,,1032,-24,-68,1,0,0,response5disk,,3,-1,0,1,0,0,rectangle,-1,0,1,0,0,-1,0,1,0,0,0,51,51,94,1,,,,,,,,
,,,,,,,,,,,,,FF,,,,,,,,0.717,,,,,,,,,,,,,,,,,,,,,,60fcca6898f0e36db0e37f05,61036e75e5b336bf7d3152ed,2021-07-29_23h14.40.272,Simcolourproject_2stim_asymm_v5,2020.2.10,MacIntel,60,61025ae37ef11b136ea224fe,,,,,,,,,4152,43,70,1,0,0,response1disk,,7,5,1,1,0,0,rectangle,5,1,1,0,0,5,1,1,0,0,0,52,52,97,1,,,,,,,,
,,,,,,,,,,,,,FF,,,,,,,,0.87,,,,,,,,,,,,,,,,,,,,,,60fcca6898f0e36db0e37f05,61036e75e5b336bf7d3152ed,2021-07-29_23h14.40.272,Simcolourproject_2stim_asymm_v5,2020.2.10,MacIntel,60,61025ae37ef11b136ea224fe,,,,,,,,,3612,-32,-57,1,0,0,response5disk,,3,2,-9,1,0,0,rectangle,2,-9,1,0,0,2,-9,1,0,0,0,53,53,127,1,,,,,,,,
,,,,,,,,,,,,,FF,,,,,,,,0.861,,,,,,,,,,,,,,,,,,,,,,60fcca6898f0e36db0e37f05,61036e75e5b336bf7d3152ed,2021-07-29_23h14.40.272,Simcolourproject_2stim_asymm_v5,2020.2.10,MacIntel,60,61025ae37ef11b136ea224fe,,,,,,,,,2491,-39,-66,1,0,0,response5disk,,3,-10,-1,1,0,0,rectangle,-10,-1,1,0,0,-10,-1,1,0,0,0,54,54,7,1,,,,,,,,
,,,,,,,,,,,,,FF,,,,,,,,0.88,,,,,,,,,,,,,,,,,,,,,,60fcca6898f0e36db0e37f05,61036e75e5b336bf7d3152ed,2021-07-29_23h14.40.272,Simcolourproject_2stim_asymm_v5,2020.2.10,MacIntel,60,61025ae37ef11b136ea224fe,,,,,,,,,1401,71,-46,1,0,0,response3disk,,5,-9,-3,1,0,0,rectangle,-9,-3,1,0,0,-9,-3,1,0,0,0,55,55,25,1,,,,,,,,
,,,,,,,,,,,,,FF,,,,,,,,0.812,,,,,,,,,,,,,,,,,,,,,,60fcca6898f0e36db0e37f05,61036e75e5b336bf7d3152ed,2021-07-29_23h14.40.272,Simcolourproject_2stim_asymm_v5,2020.2.10,MacIntel,60,61025ae37ef11b136ea224fe,,,,,,,,,2073,66,-20,1,0,0,response3disk,,5,-6,12,1,0,0,rectangle,-78,38,1,0,0,-7,-2,1,0,0,0,56,56,121,1,,response7disk_3,TRUE,1,1,"[191,60,57,29,228,212,256,307,143,102,275,94,156,188,183,217,89,74,74,222]",1.666,rectangle
,,,,,,,,,,,,,FF,,,,,,,,0.866,,,,,,,,,,,,,,,,,,,,,,60fcca6898f0e36db0e37f05,61036e75e5b336bf7d3152ed,2021-07-29_23h14.40.272,Simcolourproject_2stim_asymm_v5,2020.2.10,MacIntel,60,61025ae37ef11b136ea224fe,,,,,,,,,3250,-76,-26,1,0,0,response5disk,,2,-6,-4,1,0,0,rectangle,-6,-4,1,0,0,-6,-4,1,0,0,0,57,57,153,1,,,,,,,,
,,,,,,,,,,,,,FF,,,,,,,,0.789,,,,,,,,,,,,,,,,,,,,,,60fcca6898f0e36db0e37f05,61036e75e5b336bf7d3152ed,2021-07-29_23h14.40.272,Simcolourproject_2stim_asymm_v5,2020.2.10,MacIntel,60,61025ae37ef11b136ea224fe,,,,,,,,,1564,87,-42,1,0,0,response3disk,,5,3,0,1,0,0,rectangle,3,0,1,0,0,3,0,1,0,0,0,58,58,150,1,,,,,,,,
,,,,,,,,,,,,,FF,,,,,,,,0.756,,,,,,,,,,,,,,,,,,,,,,60fcca6898f0e36db0e37f05,61036e75e5b336bf7d3152ed,2021-07-29_23h14.40.272,Simcolourproject_2stim_asymm_v5,2020.2.10,MacIntel,60,61025ae37ef11b136ea224fe,,,,,,,,,1731,38,65,1,0,0,response1disk,,7,6,2,1,0,0,rectangle,76,-39,1,0,0,17,-3,1,0,0,0,59,59,24,1,,response3disk_3,TRUE,5,5,"[191,60,57,29,228,212,256,307,143,102,275,94,156,188,183,217,89,74,74,222]",1.547,rectangle
,,,,,,,,,,,,,FF,,,,,,,,2.019,,,,,,,,,,,,,,,,,,,,,,60fcca6898f0e36db0e37f05,61036e75e5b336bf7d3152ed,2021-07-29_23h14.40.272,Simcolourproject_2stim_asymm_v5,2020.2.10,MacIntel,60,61025ae37ef11b136ea224fe,,,,,,,,,2411,-31,-88,1,0,0,response5disk,,3,2,10,1,0,0,rectangle,2,10,1,0,0,2,10,1,0,0,0,60,60,68,1,,,,,,,,
,,,,,,,,,,,,,FF,,,,,,,,1.121,,,,,,,,,,,,,,,,,,,,,,60fcca6898f0e36db0e37f05,61036e75e5b336bf7d3152ed,2021-07-29_23h14.40.272,Simcolourproject_2stim_asymm_v5,2020.2.10,MacIntel,60,61025ae37ef11b136ea224fe,,,,,,,,,2563,27,-58,1,0,0,response3disk,,4,-7,-5,1,0,0,rectangle,-7,-5,1,0,0,-7,-5,1,0,0,0,61,61,30,1,,,,,,,,
,,,,,,,,,,,,,FF,,,,,,,,0.864,,,,,,,,,,,,,,,,,,,,,,60fcca6898f0e36db0e37f05,61036e75e5b336bf7d3152ed,2021-07-29_23h14.40.272,Simcolourproject_2stim_asymm_v5,2020.2.10,MacIntel,60,61025ae37ef11b136ea224fe,,,,,,,,,102,-21,-80,1,0,0,response5disk,,3,2,1,1,0,0,rectangle,2,1,1,0,0,2,1,1,0,0,0,62,62,49,1,,,,,,,,
,,,,,,,,,,,,,FF,,,,,,,,0.734,,,,,,,,,,,,,,,,,,,,,,60fcca6898f0e36db0e37f05,61036e75e5b336bf7d3152ed,2021-07-29_23h14.40.272,Simcolourproject_2stim_asymm_v5,2020.2.10,MacIntel,60,61025ae37ef11b136ea224fe,,,,,,,,,3141,-70,-39,1,0,0,response5disk,,2,4,-8,1,0,0,rectangle,4,-8,1,0,0,4,-8,1,0,0,0,63,63,122,1,,,,,,,,
,,,,,,,,,,,,,FF,,,,,,,,0.641,,,,,,,,,,,,,,,,,,,,,,60fcca6898f0e36db0e37f05,61036e75e5b336bf7d3152ed,2021-07-29_23h14.40.272,Simcolourproject_2stim_asymm_v5,2020.2.10,MacIntel,60,61025ae37ef11b136ea224fe,,,,,,,,,1597,-74,39,1,0,0,response7disk,,1,-5,-3,1,0,0,rectangle,-5,-3,1,0,0,-5,-3,1,0,0,0,64,64,101,1,,,,,,,,
,,,,,,,,,,,,,FF,,,,,,,,0.748,,,,,,,,,,,,,,,,,,,,,,60fcca6898f0e36db0e37f05,61036e75e5b336bf7d3152ed,2021-07-29_23h14.40.272,Simcolourproject_2stim_asymm_v5,2020.2.10,MacIntel,60,61025ae37ef11b136ea224fe,,,,,,,,,406,77,-42,1,0,0,response3disk,,5,6,3,1,0,0,rectangle,6,3,1,0,0,6,3,1,0,0,0,65,65,100,1,,,,,,,,
,,,,,,,,,,,,,FF,,,,,,,,0.722,,,,,,,,,,,,,,,,,,,,,,60fcca6898f0e36db0e37f05,61036e75e5b336bf7d3152ed,2021-07-29_23h14.40.272,Simcolourproject_2stim_asymm_v5,2020.2.10,MacIntel,60,61025ae37ef11b136ea224fe,,,,,,,,,301,71,36,1,0,0,response1disk,,6,-5,8,1,0,0,rectangle,-5,8,1,0,0,-5,8,1,0,0,0,66,66,109,1,,,,,,,,
,,,,,,,,,,,,,FF,,,,,,,,8.317,,,,,,,,,,,,,,,,,,,,,,60fcca6898f0e36db0e37f05,61036e75e5b336bf7d3152ed,2021-07-29_23h14.40.272,Simcolourproject_2stim_asymm_v5,2020.2.10,MacIntel,60,61025ae37ef11b136ea224fe,,,,,,,,,3026,23,-83,1,0,0,response3disk,,4,-4,2,1,0,0,rectangle,-4,2,1,0,0,-4,2,1,0,0,0,67,67,48,1,,,,,,,,
,,,,,,,,,,,,,FF,,,,,,,,0.809,,,,,,,,,,,,,,,,,,,,,,60fcca6898f0e36db0e37f05,61036e75e5b336bf7d3152ed,2021-07-29_23h14.40.272,Simcolourproject_2stim_asymm_v5,2020.2.10,MacIntel,60,61025ae37ef11b136ea224fe,,,,,,,,,3962,-36,-77,1,0,0,response5disk,,3,2,-7,1,0,0,rectangle,2,-7,1,0,0,2,-7,1,0,0,0,68,68,19,1,,,,,,,,
,,,,,,,,,,,,,FF,,,,,,,,0.691,,,,,,,,,,,,,,,,,,,,,,60fcca6898f0e36db0e37f05,61036e75e5b336bf7d3152ed,2021-07-29_23h14.40.272,Simcolourproject_2stim_asymm_v5,2020.2.10,MacIntel,60,61025ae37ef11b136ea224fe,,,,,,,,,3937,-70,-46,1,0,0,response5disk,,2,10,-4,1,0,0,rectangle,10,-4,1,0,0,10,-4,1,0,0,0,69,69,111,1,,,,,,,,
,,,,,,,,,,,,,FF,,,,,,,,0.736,,,,,,,,,,,,,,,,,,,,,,60fcca6898f0e36db0e37f05,61036e75e5b336bf7d3152ed,2021-07-29_23h14.40.272,Simcolourproject_2stim_asymm_v5,2020.2.10,MacIntel,60,61025ae37ef11b136ea224fe,,,,,,,,,2005,93,26,1,0,0,response1disk,,6,7,13,1,0,0,rectangle,7,13,1,0,0,7,13,1,0,0,0,70,70,29,1,,,,,,,,
,,,,,,,,,,,,,FF,,,,,,,,0.908,,,,,,,,,,,,,,,,,,,,,,60fcca6898f0e36db0e37f05,61036e75e5b336bf7d3152ed,2021-07-29_23h14.40.272,Simcolourproject_2stim_asymm_v5,2020.2.10,MacIntel,60,61025ae37ef11b136ea224fe,,,,,,,,,1037,79,-25,1,0,0,response3disk,,5,12,10,1,0,0,rectangle,12,10,1,0,0,12,10,1,0,0,0,71,71,13,1,,,,,,,,
,,,,,,,,,,,,,FF,,,,,,,,1.17,,,,,,,,,,,,,,,,,,,,,,60fcca6898f0e36db0e37f05,61036e75e5b336bf7d3152ed,2021-07-29_23h14.40.272,Simcolourproject_2stim_asymm_v5,2020.2.10,MacIntel,60,61025ae37ef11b136ea224fe,,,,,,,,,1395,71,29,1,0,0,response1disk,,6,-15,4,1,0,0,rectangle,-15,4,1,0,0,-15,4,1,0,0,0,72,72,78,1,,,,,,,,
,,,,,,,,,,,,,FF,,,,,,,,0.919,,,,,,,,,,,,,,,,,,,,,,60fcca6898f0e36db0e37f05,61036e75e5b336bf7d3152ed,2021-07-29_23h14.40.272,Simcolourproject_2stim_asymm_v5,2020.2.10,MacIntel,60,61025ae37ef11b136ea224fe,,,,,,,,,1569,21,78,1,0,0,response1disk,,7,-1,-1,1,0,0,rectangle,96,24,1,0,0,1,0,1,0,0,0,73,73,91,1,,response1disk_3,TRUE,6,6,"[191,60,57,29,228,212,256,307,143,102,275,94,156,188,183,217,89,74,74,222]",2.15,rectangle
,,,,,,,,,,,,,FF,,,,,,,,0.878,,,,,,,,,,,,,,,,,,,,,,60fcca6898f0e36db0e37f05,61036e75e5b336bf7d3152ed,2021-07-29_23h14.40.272,Simcolourproject_2stim_asymm_v5,2020.2.10,MacIntel,60,61025ae37ef11b136ea224fe,,,,,,,,,1233,-90,-40,1,0,0,response5disk,,2,-20,-4,1,0,0,rectangle,-20,-4,1,0,0,-20,-4,1,0,0,0,74,74,123,1,,,,,,,,
,,,,,,,,,,,,,FF,,,,,,,,0.928,,,,,,,,,,,,,,,,,,,,,,60fcca6898f0e36db0e37f05,61036e75e5b336bf7d3152ed,2021-07-29_23h14.40.272,Simcolourproject_2stim_asymm_v5,2020.2.10,MacIntel,60,61025ae37ef11b136ea224fe,,,,,,,,,1841,76,-37,1,0,0,response3disk,,5,-9,5,1,0,0,rectangle,-9,5,1,0,0,-9,5,1,0,0,0,75,75,106,1,,,,,,,,
,,,,,,,,,,,,,FF,,,,,,,,0.822,,,,,,,,,,,,,,,,,,,,,,60fcca6898f0e36db0e37f05,61036e75e5b336bf7d3152ed,2021-07-29_23h14.40.272,Simcolourproject_2stim_asymm_v5,2020.2.10,MacIntel,60,61025ae37ef11b136ea224fe,,,,,,,,,2503,83,42,1,0,0,response1disk,,6,-1,4,1,0,0,rectangle,-1,4,1,0,0,-1,4,1,0,0,0,76,76,27,1,,,,,,,,
,,,,,,,,,,,,,FF,,,,,,,,0.625,,,,,,,,,,,,,,,,,,,,,,60fcca6898f0e36db0e37f05,61036e75e5b336bf7d3152ed,2021-07-29_23h14.40.272,Simcolourproject_2stim_asymm_v5,2020.2.10,MacIntel,60,61025ae37ef11b136ea224fe,,,,,,,,,2870,21,64,1,0,0,response1disk,,7,11,11,1,0,0,rectangle,11,11,1,0,0,11,11,1,0,0,0,77,77,82,1,,,,,,,,
,,,,,,,,,,,,,FF,,,,,,,,0.633,,,,,,,,,,,,,,,,,,,,,,60fcca6898f0e36db0e37f05,61036e75e5b336bf7d3152ed,2021-07-29_23h14.40.272,Simcolourproject_2stim_asymm_v5,2020.2.10,MacIntel,60,61025ae37ef11b136ea224fe,,,,,,,,,2645,35,62,1,0,0,response1disk,,7,15,7,1,0,0,rectangle,15,7,1,0,0,15,7,1,0,0,0,78,78,99,1,,,,,,,,
,,,,,,,,,,,,,FF,,,,,,,,1.218,,,,,,,,,,,,,,,,,,,,,,60fcca6898f0e36db0e37f05,61036e75e5b336bf7d3152ed,2021-07-29_23h14.40.272,Simcolourproject_2stim_asymm_v5,2020.2.10,MacIntel,60,61025ae37ef11b136ea224fe,,,,,,,,,1444,36,75,1,0,0,response1disk,,7,14,-3,1,0,0,rectangle,14,-3,1,0,0,14,-3,1,0,0,0,79,79,2,1,,,,,,,,
,,,,,,,,,,,,,FF,,,,,,,,1.01,,,,,,,,,,,,,,,,,,,,,,60fcca6898f0e36db0e37f05,61036e75e5b336bf7d3152ed,2021-07-29_23h14.40.272,Simcolourproject_2stim_asymm_v5,2020.2.10,MacIntel,60,61025ae37ef11b136ea224fe,,,,,,,,,520,78,-42,1,0,0,response3disk,,5,3,-4,1,0,0,rectangle,3,-4,1,0,0,3,-4,1,0,0,0,80,80,81,1,,,,,,,,
,,,,,,,,,,,,,FF,,,,,,,,0.781,,,,,,,,,,,,,,,,,,,,,,60fcca6898f0e36db0e37f05,61036e75e5b336bf7d3152ed,2021-07-29_23h14.40.272,Simcolourproject_2stim_asymm_v5,2020.2.10,MacIntel,60,61025ae37ef11b136ea224fe,,,,,,,,,963,33,71,1,0,0,response1disk,,7,1,4,1,0,0,rectangle,1,4,1,0,0,1,4,1,0,0,0,81,81,84,1,,,,,,,,
,,,,,,,,,,,,,FF,,,,,,,,0.625,,,,,,,,,,,,,,,,,,,,,,60fcca6898f0e36db0e37f05,61036e75e5b336bf7d3152ed,2021-07-29_23h14.40.272,Simcolourproject_2stim_asymm_v5,2020.2.10,MacIntel,60,61025ae37ef11b136ea224fe,,,,,,,,,1637,25,70,1,0,0,response1disk,,7,11,-2,1,0,0,rectangle,11,-2,1,0,0,11,-2,1,0,0,0,82,82,50,1,,,,,,,,
,,,,,,,,,,,,,FF,,,,,,,,1.192,,,,,,,,,,,,,,,,,,,,,,60fcca6898f0e36db0e37f05,61036e75e5b336bf7d3152ed,2021-07-29_23h14.40.272,Simcolourproject_2stim_asymm_v5,2020.2.10,MacIntel,60,61025ae37ef11b136ea224fe,,,,,,,,,2171,-30,-68,1,0,0,response5disk,,3,3,-7,1,0,0,rectangle,3,-7,1,0,0,3,-7,1,0,0,0,83,83,10,1,,,,,,,,
,,,,,,,,,,,,,FF,,,,,,,,0.799,,,,,,,,,,,,,,,,,,,,,,60fcca6898f0e36db0e37f05,61036e75e5b336bf7d3152ed,2021-07-29_23h14.40.272,Simcolourproject_2stim_asymm_v5,2020.2.10,MacIntel,60,61025ae37ef11b136ea224fe,,,,,,,,,2728,-24,-59,1,0,0,response5disk,,3,4,3,1,0,0,rectangle,4,3,1,0,0,4,3,1,0,0,0,84,84,40,1,,,,,,,,
,,,,,,,,,,,,,FF,,,,,,,,1.249,,,,,,,,,,,,,,,,,,,,,,60fcca6898f0e36db0e37f05,61036e75e5b336bf7d3152ed,2021-07-29_23h14.40.272,Simcolourproject_2stim_asymm_v5,2020.2.10,MacIntel,60,61025ae37ef11b136ea224fe,,,,,,,,,3061,22,-74,1,0,0,response3disk,,4,3,-4,1,0,0,rectangle,3,-4,1,0,0,3,-4,1,0,0,0,85,85,147,1,,,,,,,,
,,,,,,,,,,,,,FF,,,,,,,,0.839,,,,,,,,,,,,,,,,,,,,,,60fcca6898f0e36db0e37f05,61036e75e5b336bf7d3152ed,2021-07-29_23h14.40.272,Simcolourproject_2stim_asymm_v5,2020.2.10,MacIntel,60,61025ae37ef11b136ea224fe,,,,,,,,,2831,-36,79,1,0,0,response7disk,,0,-15,9,1,0,0,rectangle,-15,9,1,0,0,-15,9,1,0,0,0,86,86,18,1,,,,,,,,
,,,,,,,,,,,,,FF,,,,,,,,0.771,,,,,,,,,,,,,,,,,,,,,,60fcca6898f0e36db0e37f05,61036e75e5b336bf7d3152ed,2021-07-29_23h14.40.272,Simcolourproject_2stim_asymm_v5,2020.2.10,MacIntel,60,61025ae37ef11b136ea224fe,,,,,,,,,1677,-75,36,1,0,0,response7disk,,1,4,-13,1,0,0,rectangle,4,-13,1,0,0,4,-13,1,0,0,0,87,87,14,1,,,,,,,,
,,,,,,,,,,,,,FF,,,,,,,,0.725,,,,,,,,,,,,,,,,,,,,,,60fcca6898f0e36db0e37f05,61036e75e5b336bf7d3152ed,2021-07-29_23h14.40.272,Simcolourproject_2stim_asymm_v5,2020.2.10,MacIntel,60,61025ae37ef11b136ea224fe,,,,,,,,,4139,45,69,1,0,0,response1disk,,7,10,0,1,0,0,rectangle,-69,-37,1,0,0,-17,4,1,0,0,0,88,88,137,1,,response5disk_3,TRUE,2,2,"[191,60,57,29,228,212,256,307,143,102,275,94,156,188,183,217,89,74,74,222]",1.507,rectangle
,,,,,,,,,,,,,FF,,,,,,,,1.896,,,,,,,,,,,,,,,,,,,,,,60fcca6898f0e36db0e37f05,61036e75e5b336bf7d3152ed,2021-07-29_23h14.40.272,Simcolourproject_2stim_asymm_v5,2020.2.10,MacIntel,60,61025ae37ef11b136ea224fe,,,,,,,,,557,-40,-102,1,0,0,response5disk,,3,5,3,1,0,0,rectangle,5,3,1,0,0,5,3,1,0,0,0,89,89,131,1,,,,,,,,
,,,,,,,,,,,,,FF,,,,,,,,0.784,,,,,,,,,,,,,,,,,,,,,,60fcca6898f0e36db0e37f05,61036e75e5b336bf7d3152ed,2021-07-29_23h14.40.272,Simcolourproject_2stim_asymm_v5,2020.2.10,MacIntel,60,61025ae37ef11b136ea224fe,,,,,,,,,3769,-28,-67,1,0,0,response5disk,,3,-9,-14,1,0,0,rectangle,-9,-14,1,0,0,-9,-14,1,0,0,0,90,90,77,1,,,,,,,,
,,,,,,,,,,,,,FF,,,,,,,,0.917,,,,,,,,,,,,,,,,,,,,,,60fcca6898f0e36db0e37f05,61036e75e5b336bf7d3152ed,2021-07-29_23h14.40.272,Simcolourproject_2stim_asymm_v5,2020.2.10,MacIntel,60,61025ae37ef11b136ea224fe,,,,,,,,,311,91,-45,1,0,0,response3disk,,5,15,-3,1,0,0,rectangle,15,-3,1,0,0,15,-3,1,0,0,0,91,91,124,1,,,,,,,,
,,,,,,,,,,,,,FF,,,,,,,,1.672,,,,,,,,,,,,,,,,,,,,,,60fcca6898f0e36db0e37f05,61036e75e5b336bf7d3152ed,2021-07-29_23h14.40.272,Simcolourproject_2stim_asymm_v5,2020.2.10,MacIntel,60,61025ae37ef11b136ea224fe,,,,,,,,,3022,102,46,1,0,0,response1disk,,6,-6,-1,1,0,0,rectangle,-6,-1,1,0,0,-6,-1,1,0,0,0,92,92,53,1,,,,,,,,
,,,,,,,,,,,,,FF,,,,,,,,0.919,,,,,,,,,,,,,,,,,,,,,,60fcca6898f0e36db0e37f05,61036e75e5b336bf7d3152ed,2021-07-29_23h14.40.272,Simcolourproject_2stim_asymm_v5,2020.2.10,MacIntel,60,61025ae37ef11b136ea224fe,,,,,,,,,349,-66,-31,1,0,0,response5disk,,2,-9,3,1,0,0,rectangle,-34,90,1,0,0,-1,-10,1,0,0,0,93,93,62,1,,response7disk_3,TRUE,0,0,"[191,60,57,29,228,212,256,307,143,102,275,94,156,188,183,217,89,74,74,222]",2.064,rectangle
,,,,,,,,,,,,,FF,,,,,,,,1.007,,,,,,,,,,,,,,,,,,,,,,60fcca6898f0e36db0e37f05,61036e75e5b336bf7d3152ed,2021-07-29_23h14.40.272,Simcolourproject_2stim_asymm_v5,2020.2.10,MacIntel,60,61025ae37ef11b136ea224fe,,,,,,,,,809,-83,-37,1,0,0,response5disk,,2,-16,-8,1,0,0,rectangle,-16,-8,1,0,0,-16,-8,1,0,0,0,94,94,34,1,,,,,,,,
,,,,,,,,,,,,,FF,,,,,,,,1.991,,,,,,,,,,,,,,,,,,,,,,60fcca6898f0e36db0e37f05,61036e75e5b336bf7d3152ed,2021-07-29_23h14.40.272,Simcolourproject_2stim_asymm_v5,2020.2.10,MacIntel,60,61025ae37ef11b136ea224fe,,,,,,,,,837,67,41,1,0,0,response1disk,,6,-7,10,1,0,0,rectangle,-7,10,1,0,0,-7,10,1,0,0,0,95,95,43,1,,,,,,,,
,,,,,,,,,,,,,FF,,,,,,,,9.205,,,,,,,,,,,,,,,,,,,,,,60fcca6898f0e36db0e37f05,61036e75e5b336bf7d3152ed,2021-07-29_23h14.40.272,Simcolourproject_2stim_asymm_v5,2020.2.10,MacIntel,60,61025ae37ef11b136ea224fe,,,,,,,,,25,-29,-86,1,0,0,response5disk,,3,1,-9,1,0,0,rectangle,1,-9,1,0,0,1,-9,1,0,0,0,96,96,159,1,,,,,,,,
,,,,,,,,,,,,,FF,,,,,,,,1.073,,,,,,,,,,,,,,,,,,,,,,60fcca6898f0e36db0e37f05,61036e75e5b336bf7d3152ed,2021-07-29_23h14.40.272,Simcolourproject_2stim_asymm_v5,2020.2.10,MacIntel,60,61025ae37ef11b136ea224fe,,,,,,,,,3969,-39,-79,1,0,0,response5disk,,3,6,-4,1,0,0,rectangle,6,-4,1,0,0,6,-4,1,0,0,0,97,97,98,1,,,,,,,,
,,,,,,,,,,,,,FF,,,,,,,,0.91,,,,,,,,,,,,,,,,,,,,,,60fcca6898f0e36db0e37f05,61036e75e5b336bf7d3152ed,2021-07-29_23h14.40.272,Simcolourproject_2stim_asymm_v5,2020.2.10,MacIntel,60,61025ae37ef11b136ea224fe,,,,,,,,,1061,-34,-69,1,0,0,response5disk,,3,-2,-6,1,0,0,rectangle,-2,-6,1,0,0,-2,-6,1,0,0,0,98,98,130,1,,,,,,,,
,,,,,,,,,,,,,FF,,,,,,,,0.921,,,,,,,,,,,,,,,,,,,,,,60fcca6898f0e36db0e37f05,61036e75e5b336bf7d3152ed,2021-07-29_23h14.40.272,Simcolourproject_2stim_asymm_v5,2020.2.10,MacIntel,60,61025ae37ef11b136ea224fe,,,,,,,,,2972,96,25,1,0,0,response1disk,,6,-1,2,1,0,0,rectangle,-1,2,1,0,0,-1,2,1,0,0,0,99,99,38,1,,,,,,,,
,,,,,,,,,,,,,FF,,,,,,,,0.765,,,,,,,,,,,,,,,,,,,,,,60fcca6898f0e36db0e37f05,61036e75e5b336bf7d3152ed,2021-07-29_23h14.40.272,Simcolourproject_2stim_asymm_v5,2020.2.10,MacIntel,60,61025ae37ef11b136ea224fe,,,,,,,,,2034,-54,-34,1,0,0,response5disk,,2,2,-4,1,0,0,rectangle,2,-4,1,0,0,2,-4,1,0,0,0,100,100,26,1,,,,,,,,
,,,,,,,,,,,,,FF,,,,,,,,0.688,,,,,,,,,,,,,,,,,,,,,,60fcca6898f0e36db0e37f05,61036e75e5b336bf7d3152ed,2021-07-29_23h14.40.272,Simcolourproject_2stim_asymm_v5,2020.2.10,MacIntel,60,61025ae37ef11b136ea224fe,,,,,,,,,3277,34,79,1,0,0,response1disk,,7,-11,3,1,0,0,rectangle,29,-84,1,0,0,-12,8,1,0,0,0,101,101,20,1,,response3disk_3,TRUE,4,4,"[191,60,57,29,228,212,256,307,143,102,275,94,156,188,183,217,89,74,74,222]",1.941,rectangle
,,,,,,,,,,,,,FF,,,,,,,,0.867,,,,,,,,,,,,,,,,,,,,,,60fcca6898f0e36db0e37f05,61036e75e5b336bf7d3152ed,2021-07-29_23h14.40.272,Simcolourproject_2stim_asymm_v5,2020.2.10,MacIntel,60,61025ae37ef11b136ea224fe,,,,,,,,,4005,-37,-95,1,0,0,response5disk,,3,9,-9,1,0,0,rectangle,9,-9,1,0,0,9,-9,1,0,0,0,102,102,87,1,,,,,,,,
,,,,,,,,,,,,,FF,,,,,,,,0.744,,,,,,,,,,,,,,,,,,,,,,60fcca6898f0e36db0e37f05,61036e75e5b336bf7d3152ed,2021-07-29_23h14.40.272,Simcolourproject_2stim_asymm_v5,2020.2.10,MacIntel,60,61025ae37ef11b136ea224fe,,,,,,,,,3689,26,-62,1,0,0,response3disk,,4,1,-10,1,0,0,rectangle,1,-10,1,0,0,1,-10,1,0,0,0,103,103,76,1,,,,,,,,
,,,,,,,,,,,,,FF,,,,,,,,1.065,,,,,,,,,,,,,,,,,,,,,,60fcca6898f0e36db0e37f05,61036e75e5b336bf7d3152ed,2021-07-29_23h14.40.272,Simcolourproject_2stim_asymm_v5,2020.2.10,MacIntel,60,61025ae37ef11b136ea224fe,,,,,,,,,310,79,23,1,0,0,response1disk,,6,-6,8,1,0,0,rectangle,-6,8,1,0,0,-6,8,1,0,0,0,104,104,117,1,,,,,,,,
,,,,,,,,,,,,,FF,,,,,,,,0.746,,,,,,,,,,,,,,,,,,,,,,60fcca6898f0e36db0e37f05,61036e75e5b336bf7d3152ed,2021-07-29_23h14.40.272,Simcolourproject_2stim_asymm_v5,2020.2.10,MacIntel,60,61025ae37ef11b136ea224fe,,,,,,,,,1012,87,35,1,0,0,response1disk,,6,-5,-9,1,0,0,rectangle,-5,-9,1,0,0,-5,-9,1,0,0,0,105,105,15,1,,,,,,,,
,,,,,,,,,,,,,FF,,,,,,,,1.354,,,,,,,,,,,,,,,,,,,,,,60fcca6898f0e36db0e37f05,61036e75e5b336bf7d3152ed,2021-07-29_23h14.40.272,Simcolourproject_2stim_asymm_v5,2020.2.10,MacIntel,60,61025ae37ef11b136ea224fe,,,,,,,,,3704,-73,-36,1,0,0,response5disk,,2,-1,-6,1,0,0,rectangle,-1,-6,1,0,0,-1,-6,1,0,0,0,106,106,133,1,,,,,,,,
,,,,,,,,,,,,,FF,,,,,,,,1.213,,,,,,,,,,,,,,,,,,,,,,60fcca6898f0e36db0e37f05,61036e75e5b336bf7d3152ed,2021-07-29_23h14.40.272,Simcolourproject_2stim_asymm_v5,2020.2.10,MacIntel,60,61025ae37ef11b136ea224fe,,,,,,,,,872,32,-75,1,0,0,response3disk,,4,2,6,1,0,0,rectangle,2,6,1,0,0,2,6,1,0,0,0,107,107,157,1,,,,,,,,
,,,,,,,,,,,,,FF,,,,,,,,0.732,,,,,,,,,,,,,,,,,,,,,,60fcca6898f0e36db0e37f05,61036e75e5b336bf7d3152ed,2021-07-29_23h14.40.272,Simcolourproject_2stim_asymm_v5,2020.2.10,MacIntel,60,61025ae37ef11b136ea224fe,,,,,,,,,1107,32,70,1,0,0,response1disk,,7,-2,6,1,0,0,rectangle,-2,6,1,0,0,-2,6,1,0,0,0,108,108,74,1,,,,,,,,
,,,,,,,,,,,,,FF,,,,,,,,0.727,,,,,,,,,,,,,,,,,,,,,,60fcca6898f0e36db0e37f05,61036e75e5b336bf7d3152ed,2021-07-29_23h14.40.272,Simcolourproject_2stim_asymm_v5,2020.2.10,MacIntel,60,61025ae37ef11b136ea224fe,,,,,,,,,1317,-28,-71,1,0,0,response5disk,,3,0,-2,1,0,0,rectangle,0,-2,1,0,0,0,-2,1,0,0,0,109,109,90,1,,,,,,,,
,,,,,,,,,,,,,FF,,,,,,,,4.355,,,,,,,,,,,,,,,,,,,,,,60fcca6898f0e36db0e37f05,61036e75e5b336bf7d3152ed,2021-07-29_23h14.40.272,Simcolourproject_2stim_asymm_v5,2020.2.10,MacIntel,60,61025ae37ef11b136ea224fe,,,,,,,,,3005,-32,-79,1,0,0,response5disk,,3,-4,-4,1,0,0,rectangle,-4,-4,1,0,0,-4,-4,1,0,0,0,110,110,142,1,,,,,,,,
,,,,,,,,,,,,,FF,,,,,,,,1.02,,,,,,,,,,,,,,,,,,,,,,60fcca6898f0e36db0e37f05,61036e75e5b336bf7d3152ed,2021-07-29_23h14.40.272,Simcolourproject_2stim_asymm_v5,2020.2.10,MacIntel,60,61025ae37ef11b136ea224fe,,,,,,,,,2842,73,-40,1,0,0,response3disk,,5,16,0,1,0,0,rectangle,16,0,1,0,0,16,0,1,0,0,0,111,111,108,1,,,,,,,,
,,,,,,,,,,,,,FF,,,,,,,,3.343,,,,,,,,,,,,,,,,,,,,,,60fcca6898f0e36db0e37f05,61036e75e5b336bf7d3152ed,2021-07-29_23h14.40.272,Simcolourproject_2stim_asymm_v5,2020.2.10,MacIntel,60,61025ae37ef11b136ea224fe,,,,,,,,,586,71,-30,1,0,0,response3disk,,5,6,-12,1,0,0,rectangle,6,-12,1,0,0,6,-12,1,0,0,0,112,112,72,1,,,,,,,,
,,,,,,,,,,,,,FF,,,,,,,,0.773,,,,,,,,,,,,,,,,,,,,,,60fcca6898f0e36db0e37f05,61036e75e5b336bf7d3152ed,2021-07-29_23h14.40.272,Simcolourproject_2stim_asymm_v5,2020.2.10,MacIntel,60,61025ae37ef11b136ea224fe,,,,,,,,,305,55,-30,1,0,0,response3disk,,5,-1,1,1,0,0,rectangle,-1,1,1,0,0,-1,1,1,0,0,0,113,113,22,1,,,,,,,,
,,,,,,,,,,,,,FF,,,,,,,,0.838,,,,,,,,,,,,,,,,,,,,,,60fcca6898f0e36db0e37f05,61036e75e5b336bf7d3152ed,2021-07-29_23h14.40.272,Simcolourproject_2stim_asymm_v5,2020.2.10,MacIntel,60,61025ae37ef11b136ea224fe,,,,,,,,,1048,29,-73,1,0,0,response3disk,,4,0,-8,1,0,0,rectangle,0,-8,1,0,0,0,-8,1,0,0,0,114,114,95,1,,,,,,,,
,,,,,,,,,,,,,FF,,,,,,,,0.868,,,,,,,,,,,,,,,,,,,,,,60fcca6898f0e36db0e37f05,61036e75e5b336bf7d3152ed,2021-07-29_23h14.40.272,Simcolourproject_2stim_asymm_v5,2020.2.10,MacIntel,60,61025ae37ef11b136ea224fe,,,,,,,,,1906,35,-76,1,0,0,response3disk,,4,5,-1,1,0,0,rectangle,5,-1,1,0,0,5,-1,1,0,0,0,115,115,119,1,,,,,,,,
,,,,,,,,,,,,,FF,,,,,,,,0.671,,,,,,,,,,,,,,,,,,,,,,60fcca6898f0e36db0e37f05,61036e75e5b336bf7d3152ed,2021-07-29_23h14.40.272,Simcolourproject_2stim_asymm_v5,2020.2.10,MacIntel,60,61025ae37ef11b136ea224fe,,,,,,,,,4326,-33,86,1,0,0,response7disk,,0,-10,11,1,0,0,rectangle,-10,11,1,0,0,-10,11,1,0,0,0,116,116,155,1,,,,,,,,
,,,,,,,,,,,,,FF,,,,,,,,0.822,,,,,,,,,,,,,,,,,,,,,,60fcca6898f0e36db0e37f05,61036e75e5b336bf7d3152ed,2021-07-29_23h14.40.272,Simcolourproject_2stim_asymm_v5,2020.2.10,MacIntel,60,61025ae37ef11b136ea224fe,,,,,,,,,3984,32,82,1,0,0,response1disk,,7,9,4,1,0,0,rectangle,9,4,1,0,0,9,4,1,0,0,0,117,117,149,1,,,,,,,,
,,,,,,,,,,,,,FF,,,,,,,,0.894,,,,,,,,,,,,,,,,,,,,,,60fcca6898f0e36db0e37f05,61036e75e5b336bf7d3152ed,2021-07-29_23h14.40.272,Simcolourproject_2stim_asymm_v5,2020.2.10,MacIntel,60,61025ae37ef11b136ea224fe,,,,,,,,,1811,-21,-73,1,0,0,response5disk,,3,-2,-17,1,0,0,rectangle,-2,-17,1,0,0,-2,-17,1,0,0,0,118,118,59,1,,,,,,,,
,,,,,,,,,,,,,FF,,,,,,,,0.872,,,,,,,,,,,,,,,,,,,,,,60fcca6898f0e36db0e37f05,61036e75e5b336bf7d3152ed,2021-07-29_23h14.40.272,Simcolourproject_2stim_asymm_v5,2020.2.10,MacIntel,60,61025ae37ef11b136ea224fe,,,,,,,,,2344,79,46,1,0,0,response1disk,,6,-23,-6,1,0,0,rectangle,-23,-6,1,0,0,-23,-6,1,0,0,0,119,119,104,1,,,,,,,,
,,,,,,,,,,,,,FF,,,,,,,,0.842,,,,,,,,,,,,,,,,,,,,,,60fcca6898f0e36db0e37f05,61036e75e5b336bf7d3152ed,2021-07-29_23h14.40.272,Simcolourproject_2stim_asymm_v5,2020.2.10,MacIntel,60,61025ae37ef11b136ea224fe,,,,,,,,,1335,33,-76,1,0,0,response3disk,,4,15,-15,1,0,0,rectangle,15,-15,1,0,0,15,-15,1,0,0,0,120,120,42,1,,,,,,,,
,,,,,,,,,,,,,FF,,,,,,,,0.867,,,,,,,,,,,,,,,,,,,,,,60fcca6898f0e36db0e37f05,61036e75e5b336bf7d3152ed,2021-07-29_23h14.40.272,Simcolourproject_2stim_asymm_v5,2020.2.10,MacIntel,60,61025ae37ef11b136ea224fe,,,,,,,,,1551,30,-54,1,0,0,response3disk,,4,2,-11,1,0,0,rectangle,2,-11,1,0,0,2,-11,1,0,0,0,121,121,31,1,,,,,,,,
,,,,,,,,,,,,,FF,,,,,,,,0.939,,,,,,,,,,,,,,,,,,,,,,60fcca6898f0e36db0e37f05,61036e75e5b336bf7d3152ed,2021-07-29_23h14.40.272,Simcolourproject_2stim_asymm_v5,2020.2.10,MacIntel,60,61025ae37ef11b136ea224fe,,,,,,,,,2362,-79,45,1,0,0,response7disk,,1,-15,-8,1,0,0,rectangle,-15,-8,1,0,0,-15,-8,1,0,0,0,122,122,0,1,,,,,,,,
,,,,,,,,,,,,,FF,,,,,,,,0.811,,,,,,,,,,,,,,,,,,,,,,60fcca6898f0e36db0e37f05,61036e75e5b336bf7d3152ed,2021-07-29_23h14.40.272,Simcolourproject_2stim_asymm_v5,2020.2.10,MacIntel,60,61025ae37ef11b136ea224fe,,,,,,,,,4317,31,59,1,0,0,response1disk,,7,6,9,1,0,0,rectangle,6,9,1,0,0,6,9,1,0,0,0,123,123,92,1,,,,,,,,
,,,,,,,,,,,,,FF,,,,,,,,1.252,,,,,,,,,,,,,,,,,,,,,,60fcca6898f0e36db0e37f05,61036e75e5b336bf7d3152ed,2021-07-29_23h14.40.272,Simcolourproject_2stim_asymm_v5,2020.2.10,MacIntel,60,61025ae37ef11b136ea224fe,,,,,,,,,2212,32,61,1,0,0,response1disk,,7,0,10,1,0,0,rectangle,0,10,1,0,0,0,10,1,0,0,0,124,124,52,1,,,,,,,,
,,,,,,,,,,,,,FF,,,,,,,,0.949,,,,,,,,,,,,,,,,,,,,,,60fcca6898f0e36db0e37f05,61036e75e5b336bf7d3152ed,2021-07-29_23h14.40.272,Simcolourproject_2stim_asymm_v5,2020.2.10,MacIntel,60,61025ae37ef11b136ea224fe,,,,,,,,,1324,74,-44,1,0,0,response3disk,,5,8,4,1,0,0,rectangle,8,4,1,0,0,8,4,1,0,0,0,125,125,151,1,,,,,,,,
,,,,,,,,,,,,,FF,,,,,,,,1.028,,,,,,,,,,,,,,,,,,,,,,60fcca6898f0e36db0e37f05,61036e75e5b336bf7d3152ed,2021-07-29_23h14.40.272,Simcolourproject_2stim_asymm_v5,2020.2.10,MacIntel,60,61025ae37ef11b136ea224fe,,,,,,,,,3208,-38,-66,1,0,0,response5disk,,3,0,-8,1,0,0,rectangle,0,-8,1,0,0,0,-8,1,0,0,0,126,126,71,1,,,,,,,,
,,,,,,,,,,,,,FF,,,,,,,,0.68,,,,,,,,,,,,,,,,,,,,,,60fcca6898f0e36db0e37f05,61036e75e5b336bf7d3152ed,2021-07-29_23h14.40.272,Simcolourproject_2stim_asymm_v5,2020.2.10,MacIntel,60,61025ae37ef11b136ea224fe,,,,,,,,,1365,54,-27,1,0,0,response3disk,,5,22,-10,1,0,0,rectangle,22,-10,1,0,0,22,-10,1,0,0,0,127,127,83,1,,,,,,,,
,,,,,,,,,,,,,FF,,,,,,,,0.937,,,,,,,,,,,,,,,,,,,,,,60fcca6898f0e36db0e37f05,61036e75e5b336bf7d3152ed,2021-07-29_23h14.40.272,Simcolourproject_2stim_asymm_v5,2020.2.10,MacIntel,60,61025ae37ef11b136ea224fe,,,,,,,,,2343,68,35,1,0,0,response1disk,,6,-4,0,1,0,0,rectangle,-4,0,1,0,0,-4,0,1,0,0,0,128,128,39,1,,,,,,,,
,,,,,,,,,,,,,FF,,,,,,,,0.86,,,,,,,,,,,,,,,,,,,,,,60fcca6898f0e36db0e37f05,61036e75e5b336bf7d3152ed,2021-07-29_23h14.40.272,Simcolourproject_2stim_asymm_v5,2020.2.10,MacIntel,60,61025ae37ef11b136ea224fe,,,,,,,,,964,38,74,1,0,0,response1disk,,7,1,7,1,0,0,rectangle,1,7,1,0,0,1,7,1,0,0,0,129,129,93,1,,,,,,,,
,,,,,,,,,,,,,FF,,,,,,,,5.775,,,,,,,,,,,,,,,,,,,,,,60fcca6898f0e36db0e37f05,61036e75e5b336bf7d3152ed,2021-07-29_23h14.40.272,Simcolourproject_2stim_asymm_v5,2020.2.10,MacIntel,60,61025ae37ef11b136ea224fe,,,,,,,,,4031,66,29,1,0,0,response1disk,,6,-2,-3,1,0,0,rectangle,-2,-3,1,0,0,-2,-3,1,0,0,0,130,130,107,1,,,,,,,,
,,,,,,,,,,,,,FF,,,,,,,,0.674,,,,,,,,,,,,,,,,,,,,,,60fcca6898f0e36db0e37f05,61036e75e5b336bf7d3152ed,2021-07-29_23h14.40.272,Simcolourproject_2stim_asymm_v5,2020.2.10,MacIntel,60,61025ae37ef11b136ea224fe,,,,,,,,,2617,83,24,1,0,0,response1disk,,6,14,-6,1,0,0,rectangle,14,-6,1,0,0,14,-6,1,0,0,0,131,131,114,1,,,,,,,,
,,,,,,,,,,,,,FF,,,,,,,,1.426,,,,,,,,,,,,,,,,,,,,,,60fcca6898f0e36db0e37f05,61036e75e5b336bf7d3152ed,2021-07-29_23h14.40.272,Simcolourproject_2stim_asymm_v5,2020.2.10,MacIntel,60,61025ae37ef11b136ea224fe,,,,,,,,,2895,-68,33,1,0,0,response7disk,,1,1,-17,1,0,0,rectangle,1,-17,1,0,0,1,-17,1,0,0,0,132,132,136,1,,,,,,,,
,,,,,,,,,,,,,FF,,,,,,,,1.286,,,,,,,,,,,,,,,,,,,,,,60fcca6898f0e36db0e37f05,61036e75e5b336bf7d3152ed,2021-07-29_23h14.40.272,Simcolourproject_2stim_asymm_v5,2020.2.10,MacIntel,60,61025ae37ef11b136ea224fe,,,,,,,,,3539,78,36,1,0,0,response1disk,,6,11,8,1,0,0,rectangle,11,8,1,0,0,11,8,1,0,0,0,133,133,61,1,,,,,,,,
,,,,,,,,,,,,,FF,,,,,,,,1.286,,,,,,,,,,,,,,,,,,,,,,60fcca6898f0e36db0e37f05,61036e75e5b336bf7d3152ed,2021-07-29_23h14.40.272,Simcolourproject_2stim_asymm_v5,2020.2.10,MacIntel,60,61025ae37ef11b136ea224fe,,,,,,,,,1952,-31,-63,1,0,0,response5disk,,3,-2,-3,1,0,0,rectangle,-2,-3,1,0,0,-2,-3,1,0,0,0,134,134,55,1,,,,,,,,
,,,,,,,,,,,,,FF,,,,,,,,1.253,,,,,,,,,,,,,,,,,,,,,,60fcca6898f0e36db0e37f05,61036e75e5b336bf7d3152ed,2021-07-29_23h14.40.272,Simcolourproject_2stim_asymm_v5,2020.2.10,MacIntel,60,61025ae37ef11b136ea224fe,,,,,,,,,2585,88,49,1,0,0,response1disk,,6,-9,-4,1,0,0,rectangle,-9,-4,1,0,0,-9,-4,1,0,0,0,135,135,5,1,,,,,,,,
,,,,,,,,,,,,,FF,,,,,,,,1.134,,,,,,,,,,,,,,,,,,,,,,60fcca6898f0e36db0e37f05,61036e75e5b336bf7d3152ed,2021-07-29_23h14.40.272,Simcolourproject_2stim_asymm_v5,2020.2.10,MacIntel,60,61025ae37ef11b136ea224fe,,,,,,,,,1302,-29,-84,1,0,0,response5disk,,3,-7,9,1,0,0,rectangle,-7,9,1,0,0,-7,9,1,0,0,0,136,136,103,1,,,,,,,,
,,,,,,,,,,,,,FF,,,,,,,,1.064,,,,,,,,,,,,,,,,,,,,,,60fcca6898f0e36db0e37f05,61036e75e5b336bf7d3152ed,2021-07-29_23h14.40.272,Simcolourproject_2stim_asymm_v5,2020.2.10,MacIntel,60,61025ae37ef11b136ea224fe,,,,,,,,,112,81,42,1,0,0,response1disk,,6,14,15,1,0,0,rectangle,14,15,1,0,0,14,15,1,0,0,0,137,137,156,1,,,,,,,,
,,,,,,,,,,,,,FF,,,,,,,,0.822,,,,,,,,,,,,,,,,,,,,,,60fcca6898f0e36db0e37f05,61036e75e5b336bf7d3152ed,2021-07-29_23h14.40.272,Simcolourproject_2stim_asymm_v5,2020.2.10,MacIntel,60,61025ae37ef11b136ea224fe,,,,,,,,,2572,26,70,1,0,0,response1disk,,7,1,9,1,0,0,rectangle,1,9,1,0,0,1,9,1,0,0,0,138,138,69,1,,,,,,,,
,,,,,,,,,,,,,FF,,,,,,,,2.24,,,,,,,,,,,,,,,,,,,,,,60fcca6898f0e36db0e37f05,61036e75e5b336bf7d3152ed,2021-07-29_23h14.40.272,Simcolourproject_2stim_asymm_v5,2020.2.10,MacIntel,60,61025ae37ef11b136ea224fe,,,,,,,,,1004,78,-29,1,0,0,response3disk,,5,-3,4,1,0,0,rectangle,-3,4,1,0,0,-3,4,1,0,0,0,139,139,126,1,,,,,,,,
,,,,,,,,,,,,,FF,,,,,,,,0.735,,,,,,,,,,,,,,,,,,,,,,60fcca6898f0e36db0e37f05,61036e75e5b336bf7d3152ed,2021-07-29_23h14.40.272,Simcolourproject_2stim_asymm_v5,2020.2.10,MacIntel,60,61025ae37ef11b136ea224fe,,,,,,,,,2488,-95,-30,1,0,0,response5disk,,2,-17,-1,1,0,0,rectangle,-17,-1,1,0,0,-17,-1,1,0,0,0,140,140,56,1,,,,,,,,
,,,,,,,,,,,,,FF,,,,,,,,0.93,,,,,,,,,,,,,,,,,,,,,,60fcca6898f0e36db0e37f05,61036e75e5b336bf7d3152ed,2021-07-29_23h14.40.272,Simcolourproject_2stim_asymm_v5,2020.2.10,MacIntel,60,61025ae37ef11b136ea224fe,,,,,,,,,241,79,-40,1,0,0,response3disk,,5,25,-1,1,0,0,rectangle,25,-1,1,0,0,25,-1,1,0,0,0,141,141,54,1,,,,,,,,
,,,,,,,,,,,,,FF,,,,,,,,0.977,,,,,,,,,,,,,,,,,,,,,,60fcca6898f0e36db0e37f05,61036e75e5b336bf7d3152ed,2021-07-29_23h14.40.272,Simcolourproject_2stim_asymm_v5,2020.2.10,MacIntel,60,61025ae37ef11b136ea224fe,,,,,,,,,424,86,-32,1,0,0,response3disk,,5,17,-3,1,0,0,rectangle,-23,-83,1,0,0,5,-5,1,0,0,0,142,142,118,1,,response5disk_3,TRUE,3,3,"[191,60,57,29,228,212,256,307,143,102,275,94,156,188,183,217,89,74,74,222]",1.639,rectangle
,,,,,,,,,,,,,FF,,,,,,,,1.182,,,,,,,,,,,,,,,,,,,,,,60fcca6898f0e36db0e37f05,61036e75e5b336bf7d3152ed,2021-07-29_23h14.40.272,Simcolourproject_2stim_asymm_v5,2020.2.10,MacIntel,60,61025ae37ef11b136ea224fe,,,,,,,,,3308,80,-45,1,0,0,response3disk,,5,1,-9,1,0,0,rectangle,1,-9,1,0,0,1,-9,1,0,0,0,143,143,105,1,,,,,,,,
,,,,,,,,,,,,,FF,,,,,,,,0.846,,,,,,,,,,,,,,,,,,,,,,60fcca6898f0e36db0e37f05,61036e75e5b336bf7d3152ed,2021-07-29_23h14.40.272,Simcolourproject_2stim_asymm_v5,2020.2.10,MacIntel,60,61025ae37ef11b136ea224fe,,,,,,,,,3911,26,-62,1,0,0,response3disk,,4,-6,-3,1,0,0,rectangle,-6,-3,1,0,0,-6,-3,1,0,0,0,144,144,139,1,,,,,,,,
,,,,,,,,,,,,,FF,,,,,,,,1.567,,,,,,,,,,,,,,,,,,,,,,60fcca6898f0e36db0e37f05,61036e75e5b336bf7d3152ed,2021-07-29_23h14.40.272,Simcolourproject_2stim_asymm_v5,2020.2.10,MacIntel,60,61025ae37ef11b136ea224fe,,,,,,,,,1887,-96,51,1,0,0,response7disk,,1,17,-10,1,0,0,rectangle,17,-10,1,0,0,17,-10,1,0,0,0,145,145,41,1,,,,,,,,
,,,,,,,,,,,,,FF,,,,,,,,1.069,,,,,,,,,,,,,,,,,,,,,,60fcca6898f0e36db0e37f05,61036e75e5b336bf7d3152ed,2021-07-29_23h14.40.272,Simcolourproject_2stim_asymm_v5,2020.2.10,MacIntel,60,61025ae37ef11b136ea224fe,,,,,,,,,332,71,30,1,0,0,response1disk,,6,-15,5,1,0,0,rectangle,-15,5,1,0,0,-15,5,1,0,0,0,146,146,63,1,,,,,,,,
,,,,,,,,,,,,,FF,,,,,,,,1.253,,,,,,,,,,,,,,,,,,,,,,60fcca6898f0e36db0e37f05,61036e75e5b336bf7d3152ed,2021-07-29_23h14.40.272,Simcolourproject_2stim_asymm_v5,2020.2.10,MacIntel,60,61025ae37ef11b136ea224fe,,,,,,,,,1111,42,75,1,0,0,response1disk,,7,-7,-4,1,0,0,rectangle,-7,-4,1,0,0,-7,-4,1,0,0,0,147,147,65,1,,,,,,,,
,,,,,,,,,,,,,FF,,,,,,,,0.993,,,,,,,,,,,,,,,,,,,,,,60fcca6898f0e36db0e37f05,61036e75e5b336bf7d3152ed,2021-07-29_23h14.40.272,Simcolourproject_2stim_asymm_v5,2020.2.10,MacIntel,60,61025ae37ef11b136ea224fe,,,,,,,,,180,31,56,1,0,0,response1disk,,7,-11,4,1,0,0,rectangle,-11,4,1,0,0,-11,4,1,0,0,0,148,148,145,1,,,,,,,,
,,,,,,,,,,,,,FF,,,,,,,,0.804,,,,,,,,,,,,,,,,,,,,,,60fcca6898f0e36db0e37f05,61036e75e5b336bf7d3152ed,2021-07-29_23h14.40.272,Simcolourproject_2stim_asymm_v5,2020.2.10,MacIntel,60,61025ae37ef11b136ea224fe,,,,,,,,,2930,18,66,1,0,0,response1disk,,7,-5,-13,1,0,0,rectangle,-5,-13,1,0,0,-5,-13,1,0,0,0,149,149,88,1,,,,,,,,
,,,,,,,,,,,,,FF,,,,,,,,0.661,,,,,,,,,,,,,,,,,,,,,,60fcca6898f0e36db0e37f05,61036e75e5b336bf7d3152ed,2021-07-29_23h14.40.272,Simcolourproject_2stim_asymm_v5,2020.2.10,MacIntel,60,61025ae37ef11b136ea224fe,,,,,,,,,2480,-42,68,1,0,0,response7disk,,0,-17,6,1,0,0,rectangle,-17,6,1,0,0,-17,6,1,0,0,0,150,150,148,1,,,,,,,,
,,,,,,,,,,,,,FF,,,,,,,,1.093,,,,,,,,,,,,,,,,,,,,,,60fcca6898f0e36db0e37f05,61036e75e5b336bf7d3152ed,2021-07-29_23h14.40.272,Simcolourproject_2stim_asymm_v5,2020.2.10,MacIntel,60,61025ae37ef11b136ea224fe,,,,,,,,,1225,-70,31,1,0,0,response7disk,,1,-7,-7,1,0,0,rectangle,-7,-7,1,0,0,-7,-7,1,0,0,0,151,151,152,1,,,,,,,,
,,,,,,,,,,,,,FF,,,,,,,,1.309,,,,,,,,,,,,,,,,,,,,,,60fcca6898f0e36db0e37f05,61036e75e5b336bf7d3152ed,2021-07-29_23h14.40.272,Simcolourproject_2stim_asymm_v5,2020.2.10,MacIntel,60,61025ae37ef11b136ea224fe,,,,,,,,,1872,-72,-38,1,0,0,response5disk,,2,-14,-6,1,0,0,rectangle,-14,-6,1,0,0,-14,-6,1,0,0,0,152,152,128,1,,,,,,,,
,,,,,,,,,,,,,FF,,,,,,,,0.957,,,,,,,,,,,,,,,,,,,,,,60fcca6898f0e36db0e37f05,61036e75e5b336bf7d3152ed,2021-07-29_23h14.40.272,Simcolourproject_2stim_asymm_v5,2020.2.10,MacIntel,60,61025ae37ef11b136ea224fe,,,,,,,,,2522,100,24,1,0,0,response1disk,,6,8,-7,1,0,0,rectangle,8,-7,1,0,0,8,-7,1,0,0,0,153,153,17,1,,,,,,,,
,,,,,,,,,,,,,FF,,,,,,,,0.79,,,,,,,,,,,,,,,,,,,,,,60fcca6898f0e36db0e37f05,61036e75e5b336bf7d3152ed,2021-07-29_23h14.40.272,Simcolourproject_2stim_asymm_v5,2020.2.10,MacIntel,60,61025ae37ef11b136ea224fe,,,,,,,,,2994,-40,-88,1,0,0,response5disk,,3,-10,-16,1,0,0,rectangle,-10,-16,1,0,0,-10,-16,1,0,0,0,154,154,75,1,,,,,,,,
,,,,,,,,,,,,,FF,,,,,,,,0.832,,,,,,,,,,,,,,,,,,,,,,60fcca6898f0e36db0e37f05,61036e75e5b336bf7d3152ed,2021-07-29_23h14.40.272,Simcolourproject_2stim_asymm_v5,2020.2.10,MacIntel,60,61025ae37ef11b136ea224fe,,,,,,,,,1056,-70,45,1,0,0,response7disk,,1,-2,15,1,0,0,rectangle,79,-21,1,0,0,-4,2,1,0,0,0,155,155,36,1,,response3disk_3,TRUE,5,5,"[191,60,57,29,228,212,256,307,143,102,275,94,156,188,183,217,89,74,74,222]",1.669,rectangle
,,,,,,,,,,,,,FF,,,,,,,,0.786,,,,,,,,,,,,,,,,,,,,,,60fcca6898f0e36db0e37f05,61036e75e5b336bf7d3152ed,2021-07-29_23h14.40.272,Simcolourproject_2stim_asymm_v5,2020.2.10,MacIntel,60,61025ae37ef11b136ea224fe,,,,,,,,,2027,-67,-40,1,0,0,response5disk,,2,2,-9,1,0,0,rectangle,2,-9,1,0,0,2,-9,1,0,0,0,156,156,51,1,,,,,,,,
,,,,,,,,,,,,,FF,,,,,,,,0.796,,,,,,,,,,,,,,,,,,,,,,60fcca6898f0e36db0e37f05,61036e75e5b336bf7d3152ed,2021-07-29_23h14.40.272,Simcolourproject_2stim_asymm_v5,2020.2.10,MacIntel,60,61025ae37ef11b136ea224fe,,,,,,,,,1612,-28,-77,1,0,0,response5disk,,3,-6,-8,1,0,0,rectangle,-6,-8,1,0,0,-6,-8,1,0,0,0,157,157,120,1,,,,,,,,
,,,,,,,,,,,,,FF,,,,,,,,0.797,,,,,,,,,,,,,,,,,,,,,,60fcca6898f0e36db0e37f05,61036e75e5b336bf7d3152ed,2021-07-29_23h14.40.272,Simcolourproject_2stim_asymm_v5,2020.2.10,MacIntel,60,61025ae37ef11b136ea224fe,,,,,,,,,2821,90,27,1,0,0,response1disk,,6,16,4,1,0,0,rectangle,16,4,1,0,0,16,4,1,0,0,0,158,158,4,1,,,,,,,,
,,,,,,,,,,,,,FF,,,,,,,,1.475,,,,,,,,,,,,,,,,,,,,,,60fcca6898f0e36db0e37f05,61036e75e5b336bf7d3152ed,2021-07-29_23h14.40.272,Simcolourproject_2stim_asymm_v5,2020.2.10,MacIntel,60,61025ae37ef11b136ea224fe,,,,,,,,,3074,34,79,1,0,0,response1disk,,7,-3,7,1,0,0,rectangle,-3,7,1,0,0,-3,7,1,0,0,0,159,159,60,1,,,,,,,,
,,,,,,,,,,,,,FF,,,,,,,,0.821,,,,,,,,,,,,,,,,,,,,,,60fcca6898f0e36db0e37f05,61036e75e5b336bf7d3152ed,2021-07-29_23h14.40.272,Simcolourproject_2stim_asymm_v5,2020.2.10,MacIntel,60,61025ae37ef11b136ea224fe,,,,,,,,,561,78,-36,1,0,0,response3disk,,5,7,-8,1,0,0,rectangle,7,-8,1,0,0,7,-8,1,0,0,1,0,160,117,1,,,,,,,,
,,,,,,,,,,,,,FF,,,,,,,,0.72,,,,,,,,,,,,,,,,,,,,,,60fcca6898f0e36db0e37f05,61036e75e5b336bf7d3152ed,2021-07-29_23h14.40.272,Simcolourproject_2stim_asymm_v5,2020.2.10,MacIntel,60,61025ae37ef11b136ea224fe,,,,,,,,,482,40,76,1,0,0,response1disk,,7,9,9,1,0,0,rectangle,9,9,1,0,0,9,9,1,0,0,1,1,161,94,1,,,,,,,,
,,,,,,,,,,,,,FF,,,,,,,,1.125,,,,,,,,,,,,,,,,,,,,,,60fcca6898f0e36db0e37f05,61036e75e5b336bf7d3152ed,2021-07-29_23h14.40.272,Simcolourproject_2stim_asymm_v5,2020.2.10,MacIntel,60,61025ae37ef11b136ea224fe,,,,,,,,,4355,79,50,1,0,0,response1disk,,6,8,0,1,0,0,rectangle,8,0,1,0,0,8,0,1,0,0,1,2,162,98,1,,,,,,,,
,,,,,,,,,,,,,FF,,,,,,,,2.653,,,,,,,,,,,,,,,,,,,,,,60fcca6898f0e36db0e37f05,61036e75e5b336bf7d3152ed,2021-07-29_23h14.40.272,Simcolourproject_2stim_asymm_v5,2020.2.10,MacIntel,60,61025ae37ef11b136ea224fe,,,,,,,,,344,43,-62,1,0,0,response3disk,,4,5,-4,1,0,0,rectangle,5,-4,1,0,0,5,-4,1,0,0,1,3,163,103,1,,,,,,,,
,,,,,,,,,,,,,FF,,,,,,,,1.002,,,,,,,,,,,,,,,,,,,,,,60fcca6898f0e36db0e37f05,61036e75e5b336bf7d3152ed,2021-07-29_23h14.40.272,Simcolourproject_2stim_asymm_v5,2020.2.10,MacIntel,60,61025ae37ef11b136ea224fe,,,,,,,,,68,-33,-81,1,0,0,response5disk,,3,-4,3,1,0,0,rectangle,-4,3,1,0,0,-4,3,1,0,0,1,4,164,70,1,,,,,,,,
,,,,,,,,,,,,,FF,,,,,,,,2.606,,,,,,,,,,,,,,,,,,,,,,60fcca6898f0e36db0e37f05,61036e75e5b336bf7d3152ed,2021-07-29_23h14.40.272,Simcolourproject_2stim_asymm_v5,2020.2.10,MacIntel,60,61025ae37ef11b136ea224fe,,,,,,,,,4237,-78,47,1,0,0,response7disk,,1,-11,4,1,0,0,rectangle,-11,4,1,0,0,-11,4,1,0,0,1,5,165,139,1,,,,,,,,
,,,,,,,,,,,,,FF,,,,,,,,0.708,,,,,,,,,,,,,,,,,,,,,,60fcca6898f0e36db0e37f05,61036e75e5b336bf7d3152ed,2021-07-29_23h14.40.272,Simcolourproject_2stim_asymm_v5,2020.2.10,MacIntel,60,61025ae37ef11b136ea224fe,,,,,,,,,810,-49,34,1,0,0,response7disk,,1,-3,5,1,0,0,rectangle,-3,5,1,0,0,-3,5,1,0,0,1,6,166,127,1,,,,,,,,
,,,,,,,,,,,,,FF,,,,,,,,0.749,,,,,,,,,,,,,,,,,,,,,,60fcca6898f0e36db0e37f05,61036e75e5b336bf7d3152ed,2021-07-29_23h14.40.272,Simcolourproject_2stim_asymm_v5,2020.2.10,MacIntel,60,61025ae37ef11b136ea224fe,,,,,,,,,1629,101,29,1,0,0,response1disk,,6,8,0,1,0,0,rectangle,8,0,1,0,0,8,0,1,0,0,1,7,167,74,1,,,,,,,,
,,,,,,,,,,,,,FF,,,,,,,,0.886,,,,,,,,,,,,,,,,,,,,,,60fcca6898f0e36db0e37f05,61036e75e5b336bf7d3152ed,2021-07-29_23h14.40.272,Simcolourproject_2stim_asymm_v5,2020.2.10,MacIntel,60,61025ae37ef11b136ea224fe,,,,,,,,,660,-82,-38,1,0,0,response5disk,,2,-17,4,1,0,0,rectangle,-17,4,1,0,0,-17,4,1,0,0,1,8,168,10,1,,,,,,,,
,,,,,,,,,,,,,FF,,,,,,,,0.806,,,,,,,,,,,,,,,,,,,,,,60fcca6898f0e36db0e37f05,61036e75e5b336bf7d3152ed,2021-07-29_23h14.40.272,Simcolourproject_2stim_asymm_v5,2020.2.10,MacIntel,60,61025ae37ef11b136ea224fe,,,,,,,,,547,-70,-40,1,0,0,response5disk,,2,0,2,1,0,0,rectangle,0,2,1,0,0,0,2,1,0,0,1,9,169,42,1,,,,,,,,
,,,,,,,,,,,,,FF,,,,,,,,0.749,,,,,,,,,,,,,,,,,,,,,,60fcca6898f0e36db0e37f05,61036e75e5b336bf7d3152ed,2021-07-29_23h14.40.272,Simcolourproject_2stim_asymm_v5,2020.2.10,MacIntel,60,61025ae37ef11b136ea224fe,,,,,,,,,3582,45,67,1,0,0,response1disk,,7,-10,-3,1,0,0,rectangle,-10,-3,1,0,0,-10,-3,1,0,0,1,10,170,152,1,,,,,,,,
,,,,,,,,,,,,,FF,,,,,,,,0.88,,,,,,,,,,,,,,,,,,,,,,60fcca6898f0e36db0e37f05,61036e75e5b336bf7d3152ed,2021-07-29_23h14.40.272,Simcolourproject_2stim_asymm_v5,2020.2.10,MacIntel,60,61025ae37ef11b136ea224fe,,,,,,,,,1526,-44,-81,1,0,0,response5disk,,3,0,14,1,0,0,rectangle,0,14,1,0,0,0,14,1,0,0,1,11,171,136,1,,,,,,,,
,,,,,,,,,,,,,FF,,,,,,,,1.16,,,,,,,,,,,,,,,,,,,,,,60fcca6898f0e36db0e37f05,61036e75e5b336bf7d3152ed,2021-07-29_23h14.40.272,Simcolourproject_2stim_asymm_v5,2020.2.10,MacIntel,60,61025ae37ef11b136ea224fe,,,,,,,,,616,42,-85,1,0,0,response3disk,,4,13,-1,1,0,0,rectangle,13,-1,1,0,0,13,-1,1,0,0,1,12,172,35,1,,,,,,,,
,,,,,,,,,,,,,FF,,,,,,,,0.74,,,,,,,,,,,,,,,,,,,,,,60fcca6898f0e36db0e37f05,61036e75e5b336bf7d3152ed,2021-07-29_23h14.40.272,Simcolourproject_2stim_asymm_v5,2020.2.10,MacIntel,60,61025ae37ef11b136ea224fe,,,,,,,,,1961,-83,-22,1,0,0,response5disk,,2,-6,2,1,0,0,rectangle,-6,2,1,0,0,-6,2,1,0,0,1,13,173,4,1,,,,,,,,
,,,,,,,,,,,,,FF,,,,,,,,0.657,,,,,,,,,,,,,,,,,,,,,,60fcca6898f0e36db0e37f05,61036e75e5b336bf7d3152ed,2021-07-29_23h14.40.272,Simcolourproject_2stim_asymm_v5,2020.2.10,MacIntel,60,61025ae37ef11b136ea224fe,,,,,,,,,2636,68,-30,1,0,0,response3disk,,5,17,8,1,0,0,rectangle,17,8,1,0,0,17,8,1,0,0,1,14,174,138,1,,,,,,,,
,,,,,,,,,,,,,FF,,,,,,,,0.743,,,,,,,,,,,,,,,,,,,,,,60fcca6898f0e36db0e37f05,61036e75e5b336bf7d3152ed,2021-07-29_23h14.40.272,Simcolourproject_2stim_asymm_v5,2020.2.10,MacIntel,60,61025ae37ef11b136ea224fe,,,,,,,,,1810,-29,-56,1,0,0,response5disk,,3,-2,-8,1,0,0,rectangle,-2,-8,1,0,0,-2,-8,1,0,0,1,15,175,72,1,,,,,,,,
,,,,,,,,,,,,,FF,,,,,,,,0.643,,,,,,,,,,,,,,,,,,,,,,60fcca6898f0e36db0e37f05,61036e75e5b336bf7d3152ed,2021-07-29_23h14.40.272,Simcolourproject_2stim_asymm_v5,2020.2.10,MacIntel,60,61025ae37ef11b136ea224fe,,,,,,,,,541,32,70,1,0,0,response1disk,,7,-14,-2,1,0,0,rectangle,-14,-2,1,0,0,-14,-2,1,0,0,1,16,176,121,1,,,,,,,,
,,,,,,,,,,,,,FF,,,,,,,,1.224,,,,,,,,,,,,,,,,,,,,,,60fcca6898f0e36db0e37f05,61036e75e5b336bf7d3152ed,2021-07-29_23h14.40.272,Simcolourproject_2stim_asymm_v5,2020.2.10,MacIntel,60,61025ae37ef11b136ea224fe,,,,,,,,,882,86,30,1,0,0,response1disk,,6,4,-6,1,0,0,rectangle,4,-6,1,0,0,4,-6,1,0,0,1,17,177,146,1,,,,,,,,
,,,,,,,,,,,,,FF,,,,,,,,1.719,,,,,,,,,,,,,,,,,,,,,,60fcca6898f0e36db0e37f05,61036e75e5b336bf7d3152ed,2021-07-29_23h14.40.272,Simcolourproject_2stim_asymm_v5,2020.2.10,MacIntel,60,61025ae37ef11b136ea224fe,,,,,,,,,2241,24,-77,1,0,0,response3disk,,4,-6,6,1,0,0,rectangle,-6,6,1,0,0,-6,6,1,0,0,1,18,178,154,1,,,,,,,,
,,,,,,,,,,,,,FF,,,,,,,,0.676,,,,,,,,,,,,,,,,,,,,,,60fcca6898f0e36db0e37f05,61036e75e5b336bf7d3152ed,2021-07-29_23h14.40.272,Simcolourproject_2stim_asymm_v5,2020.2.10,MacIntel,60,61025ae37ef11b136ea224fe,,,,,,,,,3806,-39,-59,1,0,0,response5disk,,3,-10,4,1,0,0,rectangle,-10,4,1,0,0,-10,4,1,0,0,1,19,179,62,1,,,,,,,,
,,,,,,,,,,,,,FF,,,,,,,,0.733,,,,,,,,,,,,,,,,,,,,,,60fcca6898f0e36db0e37f05,61036e75e5b336bf7d3152ed,2021-07-29_23h14.40.272,Simcolourproject_2stim_asymm_v5,2020.2.10,MacIntel,60,61025ae37ef11b136ea224fe,,,,,,,,,2129,95,39,1,0,0,response1disk,,6,4,7,1,0,0,rectangle,4,7,1,0,0,4,7,1,0,0,1,20,180,150,1,,,,,,,,
,,,,,,,,,,,,,FF,,,,,,,,0.876,,,,,,,,,,,,,,,,,,,,,,60fcca6898f0e36db0e37f05,61036e75e5b336bf7d3152ed,2021-07-29_23h14.40.272,Simcolourproject_2stim_asymm_v5,2020.2.10,MacIntel,60,61025ae37ef11b136ea224fe,,,,,,,,,4278,-24,-74,1,0,0,response5disk,,3,-6,-10,1,0,0,rectangle,-6,-10,1,0,0,-6,-10,1,0,0,1,21,181,18,1,,,,,,,,
,,,,,,,,,,,,,FF,,,,,,,,1.231,,,,,,,,,,,,,,,,,,,,,,60fcca6898f0e36db0e37f05,61036e75e5b336bf7d3152ed,2021-07-29_23h14.40.272,Simcolourproject_2stim_asymm_v5,2020.2.10,MacIntel,60,61025ae37ef11b136ea224fe,,,,,,,,,3703,-71,36,1,0,0,response7disk,,1,-10,-6,1,0,0,rectangle,-79,-22,1,0,0,9,-2,1,0,0,1,22,182,57,1,,response5disk_3,TRUE,2,2,"[191,60,57,29,228,212,256,307,143,102,275,94,156,188,183,217,89,74,74,222]",1.207,rectangle
,,,,,,,,,,,,,FF,,,,,,,,1.131,,,,,,,,,,,,,,,,,,,,,,60fcca6898f0e36db0e37f05,61036e75e5b336bf7d3152ed,2021-07-29_23h14.40.272,Simcolourproject_2stim_asymm_v5,2020.2.10,MacIntel,60,61025ae37ef11b136ea224fe,,,,,,,,,778,-26,-67,1,0,0,response5disk,,3,-7,-5,1,0,0,rectangle,-7,-5,1,0,0,-7,-5,1,0,0,1,23,183,26,1,,,,,,,,
,,,,,,,,,,,,,FF,,,,,,,,2.934,,,,,,,,,,,,,,,,,,,,,,60fcca6898f0e36db0e37f05,61036e75e5b336bf7d3152ed,2021-07-29_23h14.40.272,Simcolourproject_2stim_asymm_v5,2020.2.10,MacIntel,60,61025ae37ef11b136ea224fe,,,,,,,,,1460,70,-41,1,0,0,response3disk,,5,-2,0,1,0,0,rectangle,-2,0,1,0,0,-2,0,1,0,0,1,24,184,124,1,,,,,,,,
,,,,,,,,,,,,,FF,,,,,,,,1.44,,,,,,,,,,,,,,,,,,,,,,60fcca6898f0e36db0e37f05,61036e75e5b336bf7d3152ed,2021-07-29_23h14.40.272,Simcolourproject_2stim_asymm_v5,2020.2.10,MacIntel,60,61025ae37ef11b136ea224fe,,,,,,,,,4019,74,-17,1,0,0,response3disk,,5,9,10,1,0,0,rectangle,9,10,1,0,0,9,10,1,0,0,1,25,185,120,1,,,,,,,,
,,,,,,,,,,,,,FF,,,,,,,,0.786,,,,,,,,,,,,,,,,,,,,,,60fcca6898f0e36db0e37f05,61036e75e5b336bf7d3152ed,2021-07-29_23h14.40.272,Simcolourproject_2stim_asymm_v5,2020.2.10,MacIntel,60,61025ae37ef11b136ea224fe,,,,,,,,,1510,78,-33,1,0,0,response3disk,,5,24,-8,1,0,0,rectangle,24,-8,1,0,0,24,-8,1,0,0,1,26,186,97,1,,,,,,,,
,,,,,,,,,,,,,FF,,,,,,,,1.248,,,,,,,,,,,,,,,,,,,,,,60fcca6898f0e36db0e37f05,61036e75e5b336bf7d3152ed,2021-07-29_23h14.40.272,Simcolourproject_2stim_asymm_v5,2020.2.10,MacIntel,60,61025ae37ef11b136ea224fe,,,,,,,,,2691,95,23,1,0,0,response1disk,,6,6,-12,1,0,0,rectangle,59,-38,1,0,0,8,-12,1,0,0,1,27,187,2,1,,response3disk_3,TRUE,5,5,"[191,60,57,29,228,212,256,307,143,102,275,94,156,188,183,217,89,74,74,222]",1.732,rectangle
,,,,,,,,,,,,,FF,,,,,,,,1.07,,,,,,,,,,,,,,,,,,,,,,60fcca6898f0e36db0e37f05,61036e75e5b336bf7d3152ed,2021-07-29_23h14.40.272,Simcolourproject_2stim_asymm_v5,2020.2.10,MacIntel,60,61025ae37ef11b136ea224fe,,,,,,,,,3771,-41,-65,1,0,0,response5disk,,3,-17,-8,1,0,0,rectangle,-17,-8,1,0,0,-17,-8,1,0,0,1,28,188,83,1,,,,,,,,
,,,,,,,,,,,,,FF,,,,,,,,0.87,,,,,,,,,,,,,,,,,,,,,,60fcca6898f0e36db0e37f05,61036e75e5b336bf7d3152ed,2021-07-29_23h14.40.272,Simcolourproject_2stim_asymm_v5,2020.2.10,MacIntel,60,61025ae37ef11b136ea224fe,,,,,,,,,3605,100,-66,1,0,0,response3disk,,5,20,-16,1,0,0,rectangle,20,-16,1,0,0,20,-16,1,0,0,1,29,189,40,1,,,,,,,,
,,,,,,,,,,,,,FF,,,,,,,,0.725,,,,,,,,,,,,,,,,,,,,,,60fcca6898f0e36db0e37f05,61036e75e5b336bf7d3152ed,2021-07-29_23h14.40.272,Simcolourproject_2stim_asymm_v5,2020.2.10,MacIntel,60,61025ae37ef11b136ea224fe,,,,,,,,,2099,-80,26,1,0,0,response7disk,,1,-3,-10,1,0,0,rectangle,81,-58,1,0,0,15,0,1,0,0,1,30,190,17,1,,response3disk_3,TRUE,5,5,"[191,60,57,29,228,212,256,307,143,102,275,94,156,188,183,217,89,74,74,222]",1.316,rectangle
,,,,,,,,,,,,,FF,,,,,,,,1.037,,,,,,,,,,,,,,,,,,,,,,60fcca6898f0e36db0e37f05,61036e75e5b336bf7d3152ed,2021-07-29_23h14.40.272,Simcolourproject_2stim_asymm_v5,2020.2.10,MacIntel,60,61025ae37ef11b136ea224fe,,,,,,,,,2017,25,-74,1,0,0,response3disk,,4,6,-10,1,0,0,rectangle,6,-10,1,0,0,6,-10,1,0,0,1,31,191,89,1,,,,,,,,
,,,,,,,,,,,,,FF,,,,,,,,0.841,,,,,,,,,,,,,,,,,,,,,,60fcca6898f0e36db0e37f05,61036e75e5b336bf7d3152ed,2021-07-29_23h14.40.272,Simcolourproject_2stim_asymm_v5,2020.2.10,MacIntel,60,61025ae37ef11b136ea224fe,,,,,,,,,558,-41,-66,1,0,0,response5disk,,3,-17,8,1,0,0,rectangle,-17,8,1,0,0,-17,8,1,0,0,1,32,192,123,1,,,,,,,,
,,,,,,,,,,,,,FF,,,,,,,,1.644,,,,,,,,,,,,,,,,,,,,,,60fcca6898f0e36db0e37f05,61036e75e5b336bf7d3152ed,2021-07-29_23h14.40.272,Simcolourproject_2stim_asymm_v5,2020.2.10,MacIntel,60,61025ae37ef11b136ea224fe,,,,,,,,,983,32,-50,1,0,0,response3disk,,4,7,2,1,0,0,rectangle,7,2,1,0,0,7,2,1,0,0,1,33,193,58,1,,,,,,,,
,,,,,,,,,,,,,FF,,,,,,,,0.959,,,,,,,,,,,,,,,,,,,,,,60fcca6898f0e36db0e37f05,61036e75e5b336bf7d3152ed,2021-07-29_23h14.40.272,Simcolourproject_2stim_asymm_v5,2020.2.10,MacIntel,60,61025ae37ef11b136ea224fe,,,,,,,,,1865,73,20,1,0,0,response1disk,,6,-1,10,1,0,0,rectangle,-1,10,1,0,0,-1,10,1,0,0,1,34,194,126,1,,,,,,,,
,,,,,,,,,,,,,FF,,,,,,,,2.099,,,,,,,,,,,,,,,,,,,,,,60fcca6898f0e36db0e37f05,61036e75e5b336bf7d3152ed,2021-07-29_23h14.40.272,Simcolourproject_2stim_asymm_v5,2020.2.10,MacIntel,60,61025ae37ef11b136ea224fe,,,,,,,,,581,30,-82,1,0,0,response3disk,,4,3,-7,1,0,0,rectangle,3,-7,1,0,0,3,-7,1,0,0,1,35,195,44,1,,,,,,,,
,,,,,,,,,,,,,FF,,,,,,,,1.11,,,,,,,,,,,,,,,,,,,,,,60fcca6898f0e36db0e37f05,61036e75e5b336bf7d3152ed,2021-07-29_23h14.40.272,Simcolourproject_2stim_asymm_v5,2020.2.10,MacIntel,60,61025ae37ef11b136ea224fe,,,,,,,,,3552,-75,31,1,0,0,response7disk,,1,-3,-2,1,0,0,rectangle,-3,-2,1,0,0,-3,-2,1,0,0,1,36,196,73,1,,,,,,,,
,,,,,,,,,,,,,FF,,,,,,,,0.897,,,,,,,,,,,,,,,,,,,,,,60fcca6898f0e36db0e37f05,61036e75e5b336bf7d3152ed,2021-07-29_23h14.40.272,Simcolourproject_2stim_asymm_v5,2020.2.10,MacIntel,60,61025ae37ef11b136ea224fe,,,,,,,,,1274,-30,-93,1,0,0,response5disk,,3,-10,-4,1,0,0,rectangle,-10,-4,1,0,0,-10,-4,1,0,0,1,37,197,61,1,,,,,,,,
,,,,,,,,,,,,,FF,,,,,,,,1.615,,,,,,,,,,,,,,,,,,,,,,60fcca6898f0e36db0e37f05,61036e75e5b336bf7d3152ed,2021-07-29_23h14.40.272,Simcolourproject_2stim_asymm_v5,2020.2.10,MacIntel,60,61025ae37ef11b136ea224fe,,,,,,,,,1869,78,-43,1,0,0,response3disk,,5,8,-13,1,0,0,rectangle,8,-13,1,0,0,8,-13,1,0,0,1,38,198,9,1,,,,,,,,
,,,,,,,,,,,,,FF,,,,,,,,1.322,,,,,,,,,,,,,,,,,,,,,,60fcca6898f0e36db0e37f05,61036e75e5b336bf7d3152ed,2021-07-29_23h14.40.272,Simcolourproject_2stim_asymm_v5,2020.2.10,MacIntel,60,61025ae37ef11b136ea224fe,,,,,,,,,3200,-90,-43,1,0,0,response5disk,,2,-19,0,1,0,0,rectangle,-19,0,1,0,0,-19,0,1,0,0,1,39,199,141,1,,,,,,,,
,,,,,,,,,,,,,FF,,,,,,,,0.745,,,,,,,,,,,,,,,,,,,,,,60fcca6898f0e36db0e37f05,61036e75e5b336bf7d3152ed,2021-07-29_23h14.40.272,Simcolourproject_2stim_asymm_v5,2020.2.10,MacIntel,60,61025ae37ef11b136ea224fe,,,,,,,,,1095,32,80,1,0,0,response1disk,,7,-6,-12,1,0,0,rectangle,-6,-12,1,0,0,-6,-12,1,0,0,1,40,200,155,1,,,,,,,,
,,,,,,,,,,,,,FF,,,,,,,,0.844,,,,,,,,,,,,,,,,,,,,,,60fcca6898f0e36db0e37f05,61036e75e5b336bf7d3152ed,2021-07-29_23h14.40.272,Simcolourproject_2stim_asymm_v5,2020.2.10,MacIntel,60,61025ae37ef11b136ea224fe,,,,,,,,,1801,-30,-74,1,0,0,response5disk,,3,-9,-11,1,0,0,rectangle,-9,-11,1,0,0,-9,-11,1,0,0,1,41,201,28,1,,,,,,,,
,,,,,,,,,,,,,FF,,,,,,,,0.82,,,,,,,,,,,,,,,,,,,,,,60fcca6898f0e36db0e37f05,61036e75e5b336bf7d3152ed,2021-07-29_23h14.40.272,Simcolourproject_2stim_asymm_v5,2020.2.10,MacIntel,60,61025ae37ef11b136ea224fe,,,,,,,,,359,75,-49,1,0,0,response3disk,,5,1,-17,1,0,0,rectangle,1,-17,1,0,0,1,-17,1,0,0,1,42,202,51,1,,,,,,,,
,,,,,,,,,,,,,FF,,,,,,,,0.838,,,,,,,,,,,,,,,,,,,,,,60fcca6898f0e36db0e37f05,61036e75e5b336bf7d3152ed,2021-07-29_23h14.40.272,Simcolourproject_2stim_asymm_v5,2020.2.10,MacIntel,60,61025ae37ef11b136ea224fe,,,,,,,,,2054,-28,-68,1,0,0,response5disk,,3,-12,-5,1,0,0,rectangle,-12,-5,1,0,0,-12,-5,1,0,0,1,43,203,22,1,,,,,,,,
,,,,,,,,,,,,,FF,,,,,,,,0.946,,,,,,,,,,,,,,,,,,,,,,60fcca6898f0e36db0e37f05,61036e75e5b336bf7d3152ed,2021-07-29_23h14.40.272,Simcolourproject_2stim_asymm_v5,2020.2.10,MacIntel,60,61025ae37ef11b136ea224fe,,,,,,,,,2020,67,-36,1,0,0,response3disk,,5,7,-16,1,0,0,rectangle,7,-16,1,0,0,7,-16,1,0,0,1,44,204,52,1,,,,,,,,
,,,,,,,,,,,,,FF,,,,,,,,0.832,,,,,,,,,,,,,,,,,,,,,,60fcca6898f0e36db0e37f05,61036e75e5b336bf7d3152ed,2021-07-29_23h14.40.272,Simcolourproject_2stim_asymm_v5,2020.2.10,MacIntel,60,61025ae37ef11b136ea224fe,,,,,,,,,566,38,64,1,0,0,response1disk,,7,3,-1,1,0,0,rectangle,3,-1,1,0,0,3,-1,1,0,0,1,45,205,112,1,,,,,,,,
,,,,,,,,,,,,,FF,,,,,,,,0.78,,,,,,,,,,,,,,,,,,,,,,60fcca6898f0e36db0e37f05,61036e75e5b336bf7d3152ed,2021-07-29_23h14.40.272,Simcolourproject_2stim_asymm_v5,2020.2.10,MacIntel,60,61025ae37ef11b136ea224fe,,,,,,,,,3928,28,63,1,0,0,response1disk,,7,1,5,1,0,0,rectangle,1,5,1,0,0,1,5,1,0,0,1,46,206,101,1,,,,,,,,
,,,,,,,,,,,,,FF,,,,,,,,0.934,,,,,,,,,,,,,,,,,,,,,,60fcca6898f0e36db0e37f05,61036e75e5b336bf7d3152ed,2021-07-29_23h14.40.272,Simcolourproject_2stim_asymm_v5,2020.2.10,MacIntel,60,61025ae37ef11b136ea224fe,,,,,,,,,3921,36,-56,1,0,0,response3disk,,4,-5,7,1,0,0,rectangle,-5,7,1,0,0,-5,7,1,0,0,1,47,207,100,1,,,,,,,,
,,,,,,,,,,,,,FF,,,,,,,,0.972,,,,,,,,,,,,,,,,,,,,,,60fcca6898f0e36db0e37f05,61036e75e5b336bf7d3152ed,2021-07-29_23h14.40.272,Simcolourproject_2stim_asymm_v5,2020.2.10,MacIntel,60,61025ae37ef11b136ea224fe,,,,,,,,,3228,70,26,1,0,0,response1disk,,6,1,4,1,0,0,rectangle,1,4,1,0,0,1,4,1,0,0,1,48,208,114,1,,,,,,,,
,,,,,,,,,,,,,FF,,,,,,,,0.854,,,,,,,,,,,,,,,,,,,,,,60fcca6898f0e36db0e37f05,61036e75e5b336bf7d3152ed,2021-07-29_23h14.40.272,Simcolourproject_2stim_asymm_v5,2020.2.10,MacIntel,60,61025ae37ef11b136ea224fe,,,,,,,,,4239,-25,-62,1,0,0,response5disk,,3,4,-4,1,0,0,rectangle,4,-4,1,0,0,4,-4,1,0,0,1,49,209,157,1,,,,,,,,
,,,,,,,,,,,,,FF,,,,,,,,0.795,,,,,,,,,,,,,,,,,,,,,,60fcca6898f0e36db0e37f05,61036e75e5b336bf7d3152ed,2021-07-29_23h14.40.272,Simcolourproject_2stim_asymm_v5,2020.2.10,MacIntel,60,61025ae37ef11b136ea224fe,,,,,,,,,4200,-67,19,1,0,0,response7disk,,1,-12,-3,1,0,0,rectangle,-12,-3,1,0,0,-12,-3,1,0,0,1,50,210,144,1,,,,,,,,
,,,,,,,,,,,,,FF,,,,,,,,1.248,,,,,,,,,,,,,,,,,,,,,,60fcca6898f0e36db0e37f05,61036e75e5b336bf7d3152ed,2021-07-29_23h14.40.272,Simcolourproject_2stim_asymm_v5,2020.2.10,MacIntel,60,61025ae37ef11b136ea224fe,,,,,,,,,1032,-44,-65,1,0,0,response5disk,,3,-13,-13,1,0,0,rectangle,-34,76,1,0,0,-6,5,1,0,0,1,51,211,14,1,,response7disk_3,TRUE,0,0,"[191,60,57,29,228,212,256,307,143,102,275,94,156,188,183,217,89,74,74,222]",1.885,rectangle
,,,,,,,,,,,,,FF,,,,,,,,1.078,,,,,,,,,,,,,,,,,,,,,,60fcca6898f0e36db0e37f05,61036e75e5b336bf7d3152ed,2021-07-29_23h14.40.272,Simcolourproject_2stim_asymm_v5,2020.2.10,MacIntel,60,61025ae37ef11b136ea224fe,,,,,,,,,4152,37,74,1,0,0,response1disk,,7,3,-7,1,0,0,rectangle,3,-7,1,0,0,3,-7,1,0,0,1,52,212,68,1,,,,,,,,
,,,,,,,,,,,,,FF,,,,,,,,1.391,,,,,,,,,,,,,,,,,,,,,,60fcca6898f0e36db0e37f05,61036e75e5b336bf7d3152ed,2021-07-29_23h14.40.272,Simcolourproject_2stim_asymm_v5,2020.2.10,MacIntel,60,61025ae37ef11b136ea224fe,,,,,,,,,3612,26,84,1,0,0,response1disk,,7,-8,2,1,0,0,rectangle,-8,2,1,0,0,-8,2,1,0,0,1,53,213,107,1,,,,,,,,
,,,,,,,,,,,,,FF,,,,,,,,0.889,,,,,,,,,,,,,,,,,,,,,,60fcca6898f0e36db0e37f05,61036e75e5b336bf7d3152ed,2021-07-29_23h14.40.272,Simcolourproject_2stim_asymm_v5,2020.2.10,MacIntel,60,61025ae37ef11b136ea224fe,,,,,,,,,2491,82,-20,1,0,0,response3disk,,5,19,6,1,0,0,rectangle,19,6,1,0,0,19,6,1,0,0,1,54,214,96,1,,,,,,,,
,,,,,,,,,,,,,FF,,,,,,,,2.92,,,,,,,,,,,,,,,,,,,,,,60fcca6898f0e36db0e37f05,61036e75e5b336bf7d3152ed,2021-07-29_23h14.40.272,Simcolourproject_2stim_asymm_v5,2020.2.10,MacIntel,60,61025ae37ef11b136ea224fe,,,,,,,,,1401,72,-35,1,0,0,response3disk,,5,3,8,1,0,0,rectangle,3,8,1,0,0,3,8,1,0,0,1,55,215,108,1,,,,,,,,
,,,,,,,,,,,,,FF,,,,,,,,0.897,,,,,,,,,,,,,,,,,,,,,,60fcca6898f0e36db0e37f05,61036e75e5b336bf7d3152ed,2021-07-29_23h14.40.272,Simcolourproject_2stim_asymm_v5,2020.2.10,MacIntel,60,61025ae37ef11b136ea224fe,,,,,,,,,2073,83,17,1,0,0,response1disk,,6,15,8,1,0,0,rectangle,-45,-82,1,0,0,-4,4,1,0,0,1,56,216,148,1,,response5disk_3,TRUE,3,3,"[191,60,57,29,228,212,256,307,143,102,275,94,156,188,183,217,89,74,74,222]",1.417,rectangle
,,,,,,,,,,,,,FF,,,,,,,,1.171,,,,,,,,,,,,,,,,,,,,,,60fcca6898f0e36db0e37f05,61036e75e5b336bf7d3152ed,2021-07-29_23h14.40.272,Simcolourproject_2stim_asymm_v5,2020.2.10,MacIntel,60,61025ae37ef11b136ea224fe,,,,,,,,,3250,-58,-23,1,0,0,response5disk,,2,-11,-10,1,0,0,rectangle,-11,-10,1,0,0,-11,-10,1,0,0,1,57,217,30,1,,,,,,,,
,,,,,,,,,,,,,FF,,,,,,,,0.901,,,,,,,,,,,,,,,,,,,,,,60fcca6898f0e36db0e37f05,61036e75e5b336bf7d3152ed,2021-07-29_23h14.40.272,Simcolourproject_2stim_asymm_v5,2020.2.10,MacIntel,60,61025ae37ef11b136ea224fe,,,,,,,,,1564,66,-35,1,0,0,response3disk,,5,-6,0,1,0,0,rectangle,-6,0,1,0,0,-6,0,1,0,0,1,58,218,145,1,,,,,,,,
,,,,,,,,,,,,,FF,,,,,,,,1.124,,,,,,,,,,,,,,,,,,,,,,60fcca6898f0e36db0e37f05,61036e75e5b336bf7d3152ed,2021-07-29_23h14.40.272,Simcolourproject_2stim_asymm_v5,2020.2.10,MacIntel,60,61025ae37ef11b136ea224fe,,,,,,,,,1731,44,63,1,0,0,response1disk,,7,-19,-7,1,0,0,rectangle,-19,-7,1,0,0,-19,-7,1,0,0,1,59,219,64,1,,,,,,,,
,,,,,,,,,,,,,FF,,,,,,,,1.133,,,,,,,,,,,,,,,,,,,,,,60fcca6898f0e36db0e37f05,61036e75e5b336bf7d3152ed,2021-07-29_23h14.40.272,Simcolourproject_2stim_asymm_v5,2020.2.10,MacIntel,60,61025ae37ef11b136ea224fe,,,,,,,,,2411,88,26,1,0,0,response1disk,,6,2,-11,1,0,0,rectangle,2,-11,1,0,0,2,-11,1,0,0,1,60,220,90,1,,,,,,,,
,,,,,,,,,,,,,FF,,,,,,,,0.842,,,,,,,,,,,,,,,,,,,,,,60fcca6898f0e36db0e37f05,61036e75e5b336bf7d3152ed,2021-07-29_23h14.40.272,Simcolourproject_2stim_asymm_v5,2020.2.10,MacIntel,60,61025ae37ef11b136ea224fe,,,,,,,,,2563,77,18,1,0,0,response1disk,,6,16,-12,1,0,0,rectangle,79,-35,1,0,0,17,2,1,0,0,1,61,221,105,1,,response3disk_3,TRUE,5,5,"[191,60,57,29,228,212,256,307,143,102,275,94,156,188,183,217,89,74,74,222]",1.447,rectangle
,,,,,,,,,,,,,FF,,,,,,,,1.304,,,,,,,,,,,,,,,,,,,,,,60fcca6898f0e36db0e37f05,61036e75e5b336bf7d3152ed,2021-07-29_23h14.40.272,Simcolourproject_2stim_asymm_v5,2020.2.10,MacIntel,60,61025ae37ef11b136ea224fe,,,,,,,,,102,38,-76,1,0,0,response3disk,,4,2,15,1,0,0,rectangle,2,15,1,0,0,2,15,1,0,0,1,62,222,110,1,,,,,,,,
,,,,,,,,,,,,,FF,,,,,,,,0.776,,,,,,,,,,,,,,,,,,,,,,60fcca6898f0e36db0e37f05,61036e75e5b336bf7d3152ed,2021-07-29_23h14.40.272,Simcolourproject_2stim_asymm_v5,2020.2.10,MacIntel,60,61025ae37ef11b136ea224fe,,,,,,,,,3141,20,-65,1,0,0,response3disk,,4,-5,17,1,0,0,rectangle,-5,17,1,0,0,-5,17,1,0,0,1,63,223,71,1,,,,,,,,
,,,,,,,,,,,,,FF,,,,,,,,0.875,,,,,,,,,,,,,,,,,,,,,,60fcca6898f0e36db0e37f05,61036e75e5b336bf7d3152ed,2021-07-29_23h14.40.272,Simcolourproject_2stim_asymm_v5,2020.2.10,MacIntel,60,61025ae37ef11b136ea224fe,,,,,,,,,1597,-66,17,1,0,0,response7disk,,1,-21,3,1,0,0,rectangle,-21,3,1,0,0,-21,3,1,0,0,1,64,224,159,1,,,,,,,,
,,,,,,,,,,,,,FF,,,,,,,,1.666,,,,,,,,,,,,,,,,,,,,,,60fcca6898f0e36db0e37f05,61036e75e5b336bf7d3152ed,2021-07-29_23h14.40.272,Simcolourproject_2stim_asymm_v5,2020.2.10,MacIntel,60,61025ae37ef11b136ea224fe,,,,,,,,,406,34,-69,1,0,0,response3disk,,4,6,-9,1,0,0,rectangle,6,-9,1,0,0,6,-9,1,0,0,1,65,225,47,1,,,,,,,,
,,,,,,,,,,,,,FF,,,,,,,,2.116,,,,,,,,,,,,,,,,,,,,,,60fcca6898f0e36db0e37f05,61036e75e5b336bf7d3152ed,2021-07-29_23h14.40.272,Simcolourproject_2stim_asymm_v5,2020.2.10,MacIntel,60,61025ae37ef11b136ea224fe,,,,,,,,,301,78,25,1,0,0,response1disk,,6,12,13,1,0,0,rectangle,12,13,1,0,0,12,13,1,0,0,1,66,226,111,1,,,,,,,,
,,,,,,,,,,,,,FF,,,,,,,,0.896,,,,,,,,,,,,,,,,,,,,,,60fcca6898f0e36db0e37f05,61036e75e5b336bf7d3152ed,2021-07-29_23h14.40.272,Simcolourproject_2stim_asymm_v5,2020.2.10,MacIntel,60,61025ae37ef11b136ea224fe,,,,,,,,,3026,39,56,1,0,0,response1disk,,7,-8,0,1,0,0,rectangle,34,87,1,0,0,6,14,1,0,0,1,67,227,95,1,,response1disk_3,TRUE,7,7,"[191,60,57,29,228,212,256,307,143,102,275,94,156,188,183,217,89,74,74,222]",1.687,rectangle
,,,,,,,,,,,,,FF,,,,,,,,0.886,,,,,,,,,,,,,,,,,,,,,,60fcca6898f0e36db0e37f05,61036e75e5b336bf7d3152ed,2021-07-29_23h14.40.272,Simcolourproject_2stim_asymm_v5,2020.2.10,MacIntel,60,61025ae37ef11b136ea224fe,,,,,,,,,3962,43,-72,1,0,0,response3disk,,4,2,-8,1,0,0,rectangle,2,-8,1,0,0,2,-8,1,0,0,1,68,228,113,1,,,,,,,,
,,,,,,,,,,,,,FF,,,,,,,,0.814,,,,,,,,,,,,,,,,,,,,,,60fcca6898f0e36db0e37f05,61036e75e5b336bf7d3152ed,2021-07-29_23h14.40.272,Simcolourproject_2stim_asymm_v5,2020.2.10,MacIntel,60,61025ae37ef11b136ea224fe,,,,,,,,,3937,-73,-29,1,0,0,response5disk,,2,-22,4,1,0,0,rectangle,-22,4,1,0,0,-22,4,1,0,0,1,69,229,38,1,,,,,,,,
,,,,,,,,,,,,,FF,,,,,,,,0.654,,,,,,,,,,,,,,,,,,,,,,60fcca6898f0e36db0e37f05,61036e75e5b336bf7d3152ed,2021-07-29_23h14.40.272,Simcolourproject_2stim_asymm_v5,2020.2.10,MacIntel,60,61025ae37ef11b136ea224fe,,,,,,,,,2005,23,49,1,0,0,response1disk,,7,13,5,1,0,0,rectangle,13,5,1,0,0,13,5,1,0,0,1,70,230,15,1,,,,,,,,
,,,,,,,,,,,,,FF,,,,,,,,1.015,,,,,,,,,,,,,,,,,,,,,,60fcca6898f0e36db0e37f05,61036e75e5b336bf7d3152ed,2021-07-29_23h14.40.272,Simcolourproject_2stim_asymm_v5,2020.2.10,MacIntel,60,61025ae37ef11b136ea224fe,,,,,,,,,1037,77,29,1,0,0,response1disk,,6,10,-1,1,0,0,rectangle,10,-1,1,0,0,10,-1,1,0,0,1,71,231,133,1,,,,,,,,
,,,,,,,,,,,,,FF,,,,,,,,1.716,,,,,,,,,,,,,,,,,,,,,,60fcca6898f0e36db0e37f05,61036e75e5b336bf7d3152ed,2021-07-29_23h14.40.272,Simcolourproject_2stim_asymm_v5,2020.2.10,MacIntel,60,61025ae37ef11b136ea224fe,,,,,,,,,1395,78,40,1,0,0,response1disk,,6,3,1,1,0,0,rectangle,3,1,1,0,0,3,1,1,0,0,1,72,232,86,1,,,,,,,,
,,,,,,,,,,,,,FF,,,,,,,,0.784,,,,,,,,,,,,,,,,,,,,,,60fcca6898f0e36db0e37f05,61036e75e5b336bf7d3152ed,2021-07-29_23h14.40.272,Simcolourproject_2stim_asymm_v5,2020.2.10,MacIntel,60,61025ae37ef11b136ea224fe,,,,,,,,,1569,25,60,1,0,0,response1disk,,7,12,15,1,0,0,rectangle,12,15,1,0,0,12,15,1,0,0,1,73,233,69,1,,,,,,,,
,,,,,,,,,,,,,FF,,,,,,,,1.284,,,,,,,,,,,,,,,,,,,,,,60fcca6898f0e36db0e37f05,61036e75e5b336bf7d3152ed,2021-07-29_23h14.40.272,Simcolourproject_2stim_asymm_v5,2020.2.10,MacIntel,60,61025ae37ef11b136ea224fe,,,,,,,,,1233,-25,-56,1,0,0,response5disk,,3,-12,-9,1,0,0,rectangle,-12,-9,1,0,0,-12,-9,1,0,0,1,74,234,149,1,,,,,,,,
,,,,,,,,,,,,,FF,,,,,,,,1.035,,,,,,,,,,,,,,,,,,,,,,60fcca6898f0e36db0e37f05,61036e75e5b336bf7d3152ed,2021-07-29_23h14.40.272,Simcolourproject_2stim_asymm_v5,2020.2.10,MacIntel,60,61025ae37ef11b136ea224fe,,,,,,,,,1841,68,19,1,0,0,response1disk,,6,11,4,1,0,0,rectangle,11,4,1,0,0,11,4,1,0,0,1,75,235,43,1,,,,,,,,
,,,,,,,,,,,,,FF,,,,,,,,0.841,,,,,,,,,,,,,,,,,,,,,,60fcca6898f0e36db0e37f05,61036e75e5b336bf7d3152ed,2021-07-29_23h14.40.272,Simcolourproject_2stim_asymm_v5,2020.2.10,MacIntel,60,61025ae37ef11b136ea224fe,,,,,,,,,2503,56,30,1,0,0,response1disk,,6,14,4,1,0,0,rectangle,14,4,1,0,0,14,4,1,0,0,1,76,236,92,1,,,,,,,,
,,,,,,,,,,,,,FF,,,,,,,,0.836,,,,,,,,,,,,,,,,,,,,,,60fcca6898f0e36db0e37f05,61036e75e5b336bf7d3152ed,2021-07-29_23h14.40.272,Simcolourproject_2stim_asymm_v5,2020.2.10,MacIntel,60,61025ae37ef11b136ea224fe,,,,,,,,,2870,55,27,1,0,0,response1disk,,6,11,4,1,0,0,rectangle,11,4,1,0,0,11,4,1,0,0,1,77,237,53,1,,,,,,,,
,,,,,,,,,,,,,FF,,,,,,,,0.656,,,,,,,,,,,,,,,,,,,,,,60fcca6898f0e36db0e37f05,61036e75e5b336bf7d3152ed,2021-07-29_23h14.40.272,Simcolourproject_2stim_asymm_v5,2020.2.10,MacIntel,60,61025ae37ef11b136ea224fe,,,,,,,,,2645,33,65,1,0,0,response1disk,,7,8,12,1,0,0,rectangle,8,12,1,0,0,8,12,1,0,0,1,78,238,156,1,,,,,,,,
,,,,,,,,,,,,,FF,,,,,,,,0.906,,,,,,,,,,,,,,,,,,,,,,60fcca6898f0e36db0e37f05,61036e75e5b336bf7d3152ed,2021-07-29_23h14.40.272,Simcolourproject_2stim_asymm_v5,2020.2.10,MacIntel,60,61025ae37ef11b136ea224fe,,,,,,,,,1444,27,-50,1,0,0,response3disk,,4,9,-16,1,0,0,rectangle,9,-16,1,0,0,9,-16,1,0,0,1,79,239,19,1,,,,,,,,
,,,,,,,,,,,,,FF,,,,,,,,0.794,,,,,,,,,,,,,,,,,,,,,,60fcca6898f0e36db0e37f05,61036e75e5b336bf7d3152ed,2021-07-29_23h14.40.272,Simcolourproject_2stim_asymm_v5,2020.2.10,MacIntel,60,61025ae37ef11b136ea224fe,,,,,,,,,520,75,17,1,0,0,response1disk,,6,14,0,1,0,0,rectangle,14,0,1,0,0,14,0,1,0,0,1,80,240,109,1,,,,,,,,
,,,,,,,,,,,,,FF,,,,,,,,0.765,,,,,,,,,,,,,,,,,,,,,,60fcca6898f0e36db0e37f05,61036e75e5b336bf7d3152ed,2021-07-29_23h14.40.272,Simcolourproject_2stim_asymm_v5,2020.2.10,MacIntel,60,61025ae37ef11b136ea224fe,,,,,,,,,963,63,30,1,0,0,response1disk,,6,16,3,1,0,0,rectangle,16,3,1,0,0,16,3,1,0,0,1,81,241,129,1,,,,,,,,
,,,,,,,,,,,,,FF,,,,,,,,0.895,,,,,,,,,,,,,,,,,,,,,,60fcca6898f0e36db0e37f05,61036e75e5b336bf7d3152ed,2021-07-29_23h14.40.272,Simcolourproject_2stim_asymm_v5,2020.2.10,MacIntel,60,61025ae37ef11b136ea224fe,,,,,,,,,1637,33,56,1,0,0,response1disk,,7,0,5,1,0,0,rectangle,0,5,1,0,0,0,5,1,0,0,1,82,242,77,1,,,,,,,,
,,,,,,,,,,,,,FF,,,,,,,,0.816,,,,,,,,,,,,,,,,,,,,,,60fcca6898f0e36db0e37f05,61036e75e5b336bf7d3152ed,2021-07-29_23h14.40.272,Simcolourproject_2stim_asymm_v5,2020.2.10,MacIntel,60,61025ae37ef11b136ea224fe,,,,,,,,,2171,-40,-64,1,0,0,response5disk,,3,-5,0,1,0,0,rectangle,-5,0,1,0,0,-5,0,1,0,0,1,83,243,50,1,,,,,,,,
,,,,,,,,,,,,,FF,,,,,,,,1.307,,,,,,,,,,,,,,,,,,,,,,60fcca6898f0e36db0e37f05,61036e75e5b336bf7d3152ed,2021-07-29_23h14.40.272,Simcolourproject_2stim_asymm_v5,2020.2.10,MacIntel,60,61025ae37ef11b136ea224fe,,,,,,,,,2728,-22,-49,1,0,0,response5disk,,3,-4,0,1,0,0,rectangle,-4,0,1,0,0,-4,0,1,0,0,1,84,244,131,1,,,,,,,,
,,,,,,,,,,,,,FF,,,,,,,,0.873,,,,,,,,,,,,,,,,,,,,,,60fcca6898f0e36db0e37f05,61036e75e5b336bf7d3152ed,2021-07-29_23h14.40.272,Simcolourproject_2stim_asymm_v5,2020.2.10,MacIntel,60,61025ae37ef11b136ea224fe,,,,,,,,,3061,-25,-48,1,0,0,response5disk,,3,-1,-8,1,0,0,rectangle,-1,-8,1,0,0,-1,-8,1,0,0,1,85,245,59,1,,,,,,,,
,,,,,,,,,,,,,FF,,,,,,,,0.858,,,,,,,,,,,,,,,,,,,,,,60fcca6898f0e36db0e37f05,61036e75e5b336bf7d3152ed,2021-07-29_23h14.40.272,Simcolourproject_2stim_asymm_v5,2020.2.10,MacIntel,60,61025ae37ef11b136ea224fe,,,,,,,,,2831,-34,63,1,0,0,response7disk,,0,-4,-3,1,0,0,rectangle,-4,-3,1,0,0,-4,-3,1,0,0,1,86,246,134,1,,,,,,,,
,,,,,,,,,,,,,FF,,,,,,,,0.745,,,,,,,,,,,,,,,,,,,,,,60fcca6898f0e36db0e37f05,61036e75e5b336bf7d3152ed,2021-07-29_23h14.40.272,Simcolourproject_2stim_asymm_v5,2020.2.10,MacIntel,60,61025ae37ef11b136ea224fe,,,,,,,,,1677,-56,26,1,0,0,response7disk,,1,-6,-6,1,0,0,rectangle,-6,-6,1,0,0,-6,-6,1,0,0,1,87,247,49,1,,,,,,,,
,,,,,,,,,,,,,FF,,,,,,,,2.114,,,,,,,,,,,,,,,,,,,,,,60fcca6898f0e36db0e37f05,61036e75e5b336bf7d3152ed,2021-07-29_23h14.40.272,Simcolourproject_2stim_asymm_v5,2020.2.10,MacIntel,60,61025ae37ef11b136ea224fe,,,,,,,,,4139,-33,-48,1,0,0,response5disk,,3,-16,-4,1,0,0,rectangle,-16,-4,1,0,0,-16,-4,1,0,0,1,88,248,122,1,,,,,,,,
,,,,,,,,,,,,,FF,,,,,,,,0.705,,,,,,,,,,,,,,,,,,,,,,60fcca6898f0e36db0e37f05,61036e75e5b336bf7d3152ed,2021-07-29_23h14.40.272,Simcolourproject_2stim_asymm_v5,2020.2.10,MacIntel,60,61025ae37ef11b136ea224fe,,,,,,,,,557,-72,-37,1,0,0,response5disk,,2,-17,-16,1,0,0,rectangle,-17,-16,1,0,0,-17,-16,1,0,0,1,89,249,130,1,,,,,,,,
,,,,,,,,,,,,,FF,,,,,,,,0.812,,,,,,,,,,,,,,,,,,,,,,60fcca6898f0e36db0e37f05,61036e75e5b336bf7d3152ed,2021-07-29_23h14.40.272,Simcolourproject_2stim_asymm_v5,2020.2.10,MacIntel,60,61025ae37ef11b136ea224fe,,,,,,,,,3769,-72,-52,1,0,0,response5disk,,2,-14,-17,1,0,0,rectangle,-14,-17,1,0,0,-14,-17,1,0,0,1,90,250,31,1,,,,,,,,
,,,,,,,,,,,,,FF,,,,,,,,0.872,,,,,,,,,,,,,,,,,,,,,,60fcca6898f0e36db0e37f05,61036e75e5b336bf7d3152ed,2021-07-29_23h14.40.272,Simcolourproject_2stim_asymm_v5,2020.2.10,MacIntel,60,61025ae37ef11b136ea224fe,,,,,,,,,311,55,-40,1,0,0,response3disk,,5,15,0,1,0,0,rectangle,15,0,1,0,0,15,0,1,0,0,1,91,251,147,1,,,,,,,,
,,,,,,,,,,,,,FF,,,,,,,,0.603,,,,,,,,,,,,,,,,,,,,,,60fcca6898f0e36db0e37f05,61036e75e5b336bf7d3152ed,2021-07-29_23h14.40.272,Simcolourproject_2stim_asymm_v5,2020.2.10,MacIntel,60,61025ae37ef11b136ea224fe,,,,,,,,,3022,27,51,1,0,0,response1disk,,7,-4,-9,1,0,0,rectangle,-4,-9,1,0,0,-4,-9,1,0,0,1,92,252,115,1,,,,,,,,
,,,,,,,,,,,,,FF,,,,,,,,0.9,,,,,,,,,,,,,,,,,,,,,,60fcca6898f0e36db0e37f05,61036e75e5b336bf7d3152ed,2021-07-29_23h14.40.272,Simcolourproject_2stim_asymm_v5,2020.2.10,MacIntel,60,61025ae37ef11b136ea224fe,,,,,,,,,349,95,37,1,0,0,response1disk,,6,14,5,1,0,0,rectangle,14,5,1,0,0,14,5,1,0,0,1,93,253,0,1,,,,,,,,
,,,,,,,,,,,,,FF,,,,,,,,1.401,,,,,,,,,,,,,,,,,,,,,,60fcca6898f0e36db0e37f05,61036e75e5b336bf7d3152ed,2021-07-29_23h14.40.272,Simcolourproject_2stim_asymm_v5,2020.2.10,MacIntel,60,61025ae37ef11b136ea224fe,,,,,,,,,809,-33,-48,1,0,0,response5disk,,3,-19,-14,1,0,0,rectangle,-19,-14,1,0,0,-19,-14,1,0,0,1,94,254,151,1,,,,,,,,
,,,,,,,,,,,,,FF,,,,,,,,0.768,,,,,,,,,,,,,,,,,,,,,,60fcca6898f0e36db0e37f05,61036e75e5b336bf7d3152ed,2021-07-29_23h14.40.272,Simcolourproject_2stim_asymm_v5,2020.2.10,MacIntel,60,61025ae37ef11b136ea224fe,,,,,,,,,837,38,41,1,0,0,response1disk,,7,-1,-1,1,0,0,rectangle,-22,90,1,0,0,-1,8,1,0,0,1,95,255,27,1,,response7disk_3,TRUE,0,0,"[191,60,57,29,228,212,256,307,143,102,275,94,156,188,183,217,89,74,74,222]",1.743,rectangle
,,,,,,,,,,,,,FF,,,,,,,,0.96,,,,,,,,,,,,,,,,,,,,,,60fcca6898f0e36db0e37f05,61036e75e5b336bf7d3152ed,2021-07-29_23h14.40.272,Simcolourproject_2stim_asymm_v5,2020.2.10,MacIntel,60,61025ae37ef11b136ea224fe,,,,,,,,,25,-31,-83,1,0,0,response5disk,,3,0,9,1,0,0,rectangle,0,9,1,0,0,0,9,1,0,0,1,96,256,60,1,,,,,,,,
,,,,,,,,,,,,,FF,,,,,,,,1.17,,,,,,,,,,,,,,,,,,,,,,60fcca6898f0e36db0e37f05,61036e75e5b336bf7d3152ed,2021-07-29_23h14.40.272,Simcolourproject_2stim_asymm_v5,2020.2.10,MacIntel,60,61025ae37ef11b136ea224fe,,,,,,,,,3969,-103,-30,1,0,0,response5disk,,2,0,1,1,0,0,rectangle,0,1,1,0,0,0,1,1,0,0,1,97,257,84,1,,,,,,,,
,,,,,,,,,,,,,FF,,,,,,,,0.711,,,,,,,,,,,,,,,,,,,,,,60fcca6898f0e36db0e37f05,61036e75e5b336bf7d3152ed,2021-07-29_23h14.40.272,Simcolourproject_2stim_asymm_v5,2020.2.10,MacIntel,60,61025ae37ef11b136ea224fe,,,,,,,,,1061,-39,-71,1,0,0,response5disk,,3,-4,4,1,0,0,rectangle,-4,4,1,0,0,-4,4,1,0,0,1,98,258,21,1,,,,,,,,
,,,,,,,,,,,,,FF,,,,,,,,1.035,,,,,,,,,,,,,,,,,,,,,,60fcca6898f0e36db0e37f05,61036e75e5b336bf7d3152ed,2021-07-29_23h14.40.272,Simcolourproject_2stim_asymm_v5,2020.2.10,MacIntel,60,61025ae37ef11b136ea224fe,,,,,,,,,2972,73,39,1,0,0,response1disk,,6,9,0,1,0,0,rectangle,9,0,1,0,0,9,0,1,0,0,1,99,259,66,1,,,,,,,,
,,,,,,,,,,,,,FF,,,,,,,,1.059,,,,,,,,,,,,,,,,,,,,,,60fcca6898f0e36db0e37f05,61036e75e5b336bf7d3152ed,2021-07-29_23h14.40.272,Simcolourproject_2stim_asymm_v5,2020.2.10,MacIntel,60,61025ae37ef11b136ea224fe,,,,,,,,,2034,-68,-30,1,0,0,response5disk,,2,0,0,1,0,0,rectangle,0,0,1,0,0,0,0,1,0,0,1,100,260,20,1,,,,,,,,
,,,,,,,,,,,,,FF,,,,,,,,0.666,,,,,,,,,,,,,,,,,,,,,,60fcca6898f0e36db0e37f05,61036e75e5b336bf7d3152ed,2021-07-29_23h14.40.272,Simcolourproject_2stim_asymm_v5,2020.2.10,MacIntel,60,61025ae37ef11b136ea224fe,,,,,,,,,3277,25,48,1,0,0,response1disk,,7,8,11,1,0,0,rectangle,8,11,1,0,0,8,11,1,0,0,1,101,261,106,1,,,,,,,,
,,,,,,,,,,,,,FF,,,,,,,,0.996,,,,,,,,,,,,,,,,,,,,,,60fcca6898f0e36db0e37f05,61036e75e5b336bf7d3152ed,2021-07-29_23h14.40.272,Simcolourproject_2stim_asymm_v5,2020.2.10,MacIntel,60,61025ae37ef11b136ea224fe,,,,,,,,,4005,-38,-48,1,0,0,response5disk,,3,-13,-3,1,0,0,rectangle,-13,-3,1,0,0,-13,-3,1,0,0,1,102,262,11,1,,,,,,,,
,,,,,,,,,,,,,FF,,,,,,,,1.012,,,,,,,,,,,,,,,,,,,,,,60fcca6898f0e36db0e37f05,61036e75e5b336bf7d3152ed,2021-07-29_23h14.40.272,Simcolourproject_2stim_asymm_v5,2020.2.10,MacIntel,60,61025ae37ef11b136ea224fe,,,,,,,,,3689,-24,-52,1,0,0,response5disk,,3,-5,-4,1,0,0,rectangle,-5,-4,1,0,0,-5,-4,1,0,0,1,103,263,63,1,,,,,,,,
,,,,,,,,,,,,,FF,,,,,,,,0.638,,,,,,,,,,,,,,,,,,,,,,60fcca6898f0e36db0e37f05,61036e75e5b336bf7d3152ed,2021-07-29_23h14.40.272,Simcolourproject_2stim_asymm_v5,2020.2.10,MacIntel,60,61025ae37ef11b136ea224fe,,,,,,,,,310,67,34,1,0,0,response1disk,,6,0,-2,1,0,0,rectangle,0,-2,1,0,0,0,-2,1,0,0,1,104,264,75,1,,,,,,,,
,,,,,,,,,,,,,FF,,,,,,,,0.972,,,,,,,,,,,,,,,,,,,,,,60fcca6898f0e36db0e37f05,61036e75e5b336bf7d3152ed,2021-07-29_23h14.40.272,Simcolourproject_2stim_asymm_v5,2020.2.10,MacIntel,60,61025ae37ef11b136ea224fe,,,,,,,,,1012,74,-59,1,0,0,response3disk,,5,-12,-11,1,0,0,rectangle,-12,-11,1,0,0,-12,-11,1,0,0,1,105,265,91,1,,,,,,,,
,,,,,,,,,,,,,FF,,,,,,,,0.865,,,,,,,,,,,,,,,,,,,,,,60fcca6898f0e36db0e37f05,61036e75e5b336bf7d3152ed,2021-07-29_23h14.40.272,Simcolourproject_2stim_asymm_v5,2020.2.10,MacIntel,60,61025ae37ef11b136ea224fe,,,,,,,,,3704,-70,-28,1,0,0,response5disk,,2,-20,-12,1,0,0,rectangle,-20,-12,1,0,0,-20,-12,1,0,0,1,106,266,39,1,,,,,,,,
,,,,,,,,,,,,,FF,,,,,,,,0.567,,,,,,,,,,,,,,,,,,,,,,60fcca6898f0e36db0e37f05,61036e75e5b336bf7d3152ed,2021-07-29_23h14.40.272,Simcolourproject_2stim_asymm_v5,2020.2.10,MacIntel,60,61025ae37ef11b136ea224fe,,,,,,,,,872,35,56,1,0,0,response1disk,,7,9,17,1,0,0,rectangle,9,17,1,0,0,9,17,1,0,0,1,107,267,79,1,,,,,,,,
,,,,,,,,,,,,,FF,,,,,,,,0.859,,,,,,,,,,,,,,,,,,,,,,60fcca6898f0e36db0e37f05,61036e75e5b336bf7d3152ed,2021-07-29_23h14.40.272,Simcolourproject_2stim_asymm_v5,2020.2.10,MacIntel,60,61025ae37ef11b136ea224fe,,,,,,,,,1107,63,-23,1,0,0,response3disk,,5,-4,-12,1,0,0,rectangle,-4,-12,1,0,0,-4,-12,1,0,0,1,108,268,41,1,,,,,,,,
,,,,,,,,,,,,,FF,,,,,,,,0.729,,,,,,,,,,,,,,,,,,,,,,60fcca6898f0e36db0e37f05,61036e75e5b336bf7d3152ed,2021-07-29_23h14.40.272,Simcolourproject_2stim_asymm_v5,2020.2.10,MacIntel,60,61025ae37ef11b136ea224fe,,,,,,,,,1317,57,-27,1,0,0,response3disk,,5,12,-14,1,0,0,rectangle,12,-14,1,0,0,12,-14,1,0,0,1,109,269,137,1,,,,,,,,
,,,,,,,,,,,,,FF,,,,,,,,0.818,,,,,,,,,,,,,,,,,,,,,,60fcca6898f0e36db0e37f05,61036e75e5b336bf7d3152ed,2021-07-29_23h14.40.272,Simcolourproject_2stim_asymm_v5,2020.2.10,MacIntel,60,61025ae37ef11b136ea224fe,,,,,,,,,3005,-59,-18,1,0,0,response5disk,,2,-10,-9,1,0,0,rectangle,-10,-9,1,0,0,-10,-9,1,0,0,1,110,270,118,1,,,,,,,,
,,,,,,,,,,,,,FF,,,,,,,,0.803,,,,,,,,,,,,,,,,,,,,,,60fcca6898f0e36db0e37f05,61036e75e5b336bf7d3152ed,2021-07-29_23h14.40.272,Simcolourproject_2stim_asymm_v5,2020.2.10,MacIntel,60,61025ae37ef11b136ea224fe,,,,,,,,,2842,18,-68,1,0,0,response3disk,,4,12,-15,1,0,0,rectangle,12,-15,1,0,0,12,-15,1,0,0,1,111,271,24,1,,,,,,,,
,,,,,,,,,,,,,FF,,,,,,,,1.044,,,,,,,,,,,,,,,,,,,,,,60fcca6898f0e36db0e37f05,61036e75e5b336bf7d3152ed,2021-07-29_23h14.40.272,Simcolourproject_2stim_asymm_v5,2020.2.10,MacIntel,60,61025ae37ef11b136ea224fe,,,,,,,,,586,65,30,1,0,0,response1disk,,6,17,8,1,0,0,rectangle,17,8,1,0,0,17,8,1,0,0,1,112,272,5,1,,,,,,,,
,,,,,,,,,,,,,FF,,,,,,,,0.807,,,,,,,,,,,,,,,,,,,,,,60fcca6898f0e36db0e37f05,61036e75e5b336bf7d3152ed,2021-07-29_23h14.40.272,Simcolourproject_2stim_asymm_v5,2020.2.10,MacIntel,60,61025ae37ef11b136ea224fe,,,,,,,,,305,55,24,1,0,0,response1disk,,6,3,6,1,0,0,rectangle,3,6,1,0,0,3,6,1,0,0,1,113,273,54,1,,,,,,,,
,,,,,,,,,,,,,FF,,,,,,,,1.134,,,,,,,,,,,,,,,,,,,,,,60fcca6898f0e36db0e37f05,61036e75e5b336bf7d3152ed,2021-07-29_23h14.40.272,Simcolourproject_2stim_asymm_v5,2020.2.10,MacIntel,60,61025ae37ef11b136ea224fe,,,,,,,,,1048,27,-75,1,0,0,response3disk,,4,-4,-11,1,0,0,rectangle,-40,-65,1,0,0,-9,2,1,0,0,1,114,274,34,1,,response5disk_3,TRUE,3,3,"[191,60,57,29,228,212,256,307,143,102,275,94,156,188,183,217,89,74,74,222]",1.484,rectangle
,,,,,,,,,,,,,FF,,,,,,,,0.726,,,,,,,,,,,,,,,,,,,,,,60fcca6898f0e36db0e37f05,61036e75e5b336bf7d3152ed,2021-07-29_23h14.40.272,Simcolourproject_2stim_asymm_v5,2020.2.10,MacIntel,60,61025ae37ef11b136ea224fe,,,,,,,,,1906,-30,-57,1,0,0,response5disk,,3,-7,-6,1,0,0,rectangle,-7,-6,1,0,0,-7,-6,1,0,0,1,115,275,142,1,,,,,,,,
,,,,,,,,,,,,,FF,,,,,,,,0.672,,,,,,,,,,,,,,,,,,,,,,60fcca6898f0e36db0e37f05,61036e75e5b336bf7d3152ed,2021-07-29_23h14.40.272,Simcolourproject_2stim_asymm_v5,2020.2.10,MacIntel,60,61025ae37ef11b136ea224fe,,,,,,,,,4326,-34,71,1,0,0,response7disk,,0,-2,-6,1,0,0,rectangle,-2,-6,1,0,0,-2,-6,1,0,0,1,116,276,65,1,,,,,,,,
,,,,,,,,,,,,,FF,,,,,,,,1.139,,,,,,,,,,,,,,,,,,,,,,60fcca6898f0e36db0e37f05,61036e75e5b336bf7d3152ed,2021-07-29_23h14.40.272,Simcolourproject_2stim_asymm_v5,2020.2.10,MacIntel,60,61025ae37ef11b136ea224fe,,,,,,,,,3984,35,-65,1,0,0,response3disk,,4,17,-4,1,0,0,rectangle,17,-4,1,0,0,17,-4,1,0,0,1,117,277,128,1,,,,,,,,
,,,,,,,,,,,,,FF,,,,,,,,1.033,,,,,,,,,,,,,,,,,,,,,,60fcca6898f0e36db0e37f05,61036e75e5b336bf7d3152ed,2021-07-29_23h14.40.272,Simcolourproject_2stim_asymm_v5,2020.2.10,MacIntel,60,61025ae37ef11b136ea224fe,,,,,,,,,1811,-63,-27,1,0,0,response5disk,,2,-14,-8,1,0,0,rectangle,-14,-8,1,0,0,-14,-8,1,0,0,1,118,278,23,1,,,,,,,,
,,,,,,,,,,,,,FF,,,,,,,,1.019,,,,,,,,,,,,,,,,,,,,,,60fcca6898f0e36db0e37f05,61036e75e5b336bf7d3152ed,2021-07-29_23h14.40.272,Simcolourproject_2stim_asymm_v5,2020.2.10,MacIntel,60,61025ae37ef11b136ea224fe,,,,,,,,,2344,85,-29,1,0,0,response3disk,,5,-6,-6,1,0,0,rectangle,-6,-6,1,0,0,-6,-6,1,0,0,1,119,279,67,1,,,,,,,,
,,,,,,,,,,,,,FF,,,,,,,,1.422,,,,,,,,,,,,,,,,,,,,,,60fcca6898f0e36db0e37f05,61036e75e5b336bf7d3152ed,2021-07-29_23h14.40.272,Simcolourproject_2stim_asymm_v5,2020.2.10,MacIntel,60,61025ae37ef11b136ea224fe,,,,,,,,,1335,94,46,1,0,0,response1disk,,6,11,7,1,0,0,rectangle,11,7,1,0,0,11,7,1,0,0,1,120,280,13,1,,,,,,,,
,,,,,,,,,,,,,FF,,,,,,,,0.733,,,,,,,,,,,,,,,,,,,,,,60fcca6898f0e36db0e37f05,61036e75e5b336bf7d3152ed,2021-07-29_23h14.40.272,Simcolourproject_2stim_asymm_v5,2020.2.10,MacIntel,60,61025ae37ef11b136ea224fe,,,,,,,,,1551,-29,-54,1,0,0,response5disk,,3,-8,-10,1,0,0,rectangle,-8,-10,1,0,0,-8,-10,1,0,0,1,121,281,125,1,,,,,,,,
,,,,,,,,,,,,,FF,,,,,,,,0.862,,,,,,,,,,,,,,,,,,,,,,60fcca6898f0e36db0e37f05,61036e75e5b336bf7d3152ed,2021-07-29_23h14.40.272,Simcolourproject_2stim_asymm_v5,2020.2.10,MacIntel,60,61025ae37ef11b136ea224fe,,,,,,,,,2362,-63,30,1,0,0,response7disk,,1,-20,0,1,0,0,rectangle,-20,0,1,0,0,-20,0,1,0,0,1,122,282,140,1,,,,,,,,
,,,,,,,,,,,,,FF,,,,,,,,2.744,,,,,,,,,,,,,,,,,,,,,,60fcca6898f0e36db0e37f05,61036e75e5b336bf7d3152ed,2021-07-29_23h14.40.272,Simcolourproject_2stim_asymm_v5,2020.2.10,MacIntel,60,61025ae37ef11b136ea224fe,,,,,,,,,4317,-88,-28,1,0,0,response5disk,,2,-6,-10,1,0,0,rectangle,-6,-10,1,0,0,-6,-10,1,0,0,1,123,283,158,1,,,,,,,,
,,,,,,,,,,,,,FF,,,,,,,,0.786,,,,,,,,,,,,,,,,,,,,,,60fcca6898f0e36db0e37f05,61036e75e5b336bf7d3152ed,2021-07-29_23h14.40.272,Simcolourproject_2stim_asymm_v5,2020.2.10,MacIntel,60,61025ae37ef11b136ea224fe,,,,,,,,,2212,78,19,1,0,0,response1disk,,6,19,-4,1,0,0,rectangle,19,-4,1,0,0,19,-4,1,0,0,1,124,284,153,1,,,,,,,,
,,,,,,,,,,,,,FF,,,,,,,,1.23,,,,,,,,,,,,,,,,,,,,,,60fcca6898f0e36db0e37f05,61036e75e5b336bf7d3152ed,2021-07-29_23h14.40.272,Simcolourproject_2stim_asymm_v5,2020.2.10,MacIntel,60,61025ae37ef11b136ea224fe,,,,,,,,,1324,61,35,1,0,0,response1disk,,6,-6,0,1,0,0,rectangle,-6,0,1,0,0,-6,0,1,0,0,1,125,285,143,1,,,,,,,,
,,,,,,,,,,,,,FF,,,,,,,,0.841,,,,,,,,,,,,,,,,,,,,,,60fcca6898f0e36db0e37f05,61036e75e5b336bf7d3152ed,2021-07-29_23h14.40.272,Simcolourproject_2stim_asymm_v5,2020.2.10,MacIntel,60,61025ae37ef11b136ea224fe,,,,,,,,,3208,33,-69,1,0,0,response3disk,,4,-15,13,1,0,0,rectangle,-15,13,1,0,0,-15,13,1,0,0,1,126,286,99,1,,,,,,,,
,,,,,,,,,,,,,FF,,,,,,,,1.426,,,,,,,,,,,,,,,,,,,,,,60fcca6898f0e36db0e37f05,61036e75e5b336bf7d3152ed,2021-07-29_23h14.40.272,Simcolourproject_2stim_asymm_v5,2020.2.10,MacIntel,60,61025ae37ef11b136ea224fe,,,,,,,,,1365,88,-35,1,0,0,response3disk,,5,5,17,1,0,0,rectangle,5,17,1,0,0,5,17,1,0,0,1,127,287,76,1,,,,,,,,
,,,,,,,,,,,,,FF,,,,,,,,1.05,,,,,,,,,,,,,,,,,,,,,,60fcca6898f0e36db0e37f05,61036e75e5b336bf7d3152ed,2021-07-29_23h14.40.272,Simcolourproject_2stim_asymm_v5,2020.2.10,MacIntel,60,61025ae37ef11b136ea224fe,,,,,,,,,2343,82,38,1,0,0,response1disk,,6,0,-4,1,0,0,rectangle,0,-4,1,0,0,0,-4,1,0,0,1,128,288,16,1,,,,,,,,
,,,,,,,,,,,,,FF,,,,,,,,0.809,,,,,,,,,,,,,,,,,,,,,,60fcca6898f0e36db0e37f05,61036e75e5b336bf7d3152ed,2021-07-29_23h14.40.272,Simcolourproject_2stim_asymm_v5,2020.2.10,MacIntel,60,61025ae37ef11b136ea224fe,,,,,,,,,964,31,57,1,0,0,response1disk,,7,4,8,1,0,0,rectangle,4,8,1,0,0,4,8,1,0,0,1,129,289,56,1,,,,,,,,
,,,,,,,,,,,,,FF,,,,,,,,0.984,,,,,,,,,,,,,,,,,,,,,,60fcca6898f0e36db0e37f05,61036e75e5b336bf7d3152ed,2021-07-29_23h14.40.272,Simcolourproject_2stim_asymm_v5,2020.2.10,MacIntel,60,61025ae37ef11b136ea224fe,,,,,,,,,4031,31,-56,1,0,0,response3disk,,4,5,-3,1,0,0,rectangle,5,-3,1,0,0,5,-3,1,0,0,1,130,290,85,1,,,,,,,,
,,,,,,,,,,,,,FF,,,,,,,,1.332,,,,,,,,,,,,,,,,,,,,,,60fcca6898f0e36db0e37f05,61036e75e5b336bf7d3152ed,2021-07-29_23h14.40.272,Simcolourproject_2stim_asymm_v5,2020.2.10,MacIntel,60,61025ae37ef11b136ea224fe,,,,,,,,,2617,69,-29,1,0,0,response3disk,,5,2,7,1,0,0,rectangle,2,7,1,0,0,2,7,1,0,0,1,131,291,104,1,,,,,,,,
,,,,,,,,,,,,,FF,,,,,,,,0.952,,,,,,,,,,,,,,,,,,,,,,60fcca6898f0e36db0e37f05,61036e75e5b336bf7d3152ed,2021-07-29_23h14.40.272,Simcolourproject_2stim_asymm_v5,2020.2.10,MacIntel,60,61025ae37ef11b136ea224fe,,,,,,,,,2895,-58,27,1,0,0,response7disk,,1,-20,-1,1,0,0,rectangle,-20,-1,1,0,0,-20,-1,1,0,0,1,132,292,102,1,,,,,,,,
,,,,,,,,,,,,,FF,,,,,,,,0.816,,,,,,,,,,,,,,,,,,,,,,60fcca6898f0e36db0e37f05,61036e75e5b336bf7d3152ed,2021-07-29_23h14.40.272,Simcolourproject_2stim_asymm_v5,2020.2.10,MacIntel,60,61025ae37ef11b136ea224fe,,,,,,,,,3539,69,-55,1,0,0,response3disk,,5,2,-2,1,0,0,rectangle,2,-2,1,0,0,2,-2,1,0,0,1,133,293,33,1,,,,,,,,
,,,,,,,,,,,,,FF,,,,,,,,0.89,,,,,,,,,,,,,,,,,,,,,,60fcca6898f0e36db0e37f05,61036e75e5b336bf7d3152ed,2021-07-29_23h14.40.272,Simcolourproject_2stim_asymm_v5,2020.2.10,MacIntel,60,61025ae37ef11b136ea224fe,,,,,,,,,1952,-24,-52,1,0,0,response5disk,,3,-15,-13,1,0,0,rectangle,-15,-13,1,0,0,-15,-13,1,0,0,1,134,294,32,1,,,,,,,,
,,,,,,,,,,,,,FF,,,,,,,,0.789,,,,,,,,,,,,,,,,,,,,,,60fcca6898f0e36db0e37f05,61036e75e5b336bf7d3152ed,2021-07-29_23h14.40.272,Simcolourproject_2stim_asymm_v5,2020.2.10,MacIntel,60,61025ae37ef11b136ea224fe,,,,,,,,,2585,37,57,1,0,0,response1disk,,7,-1,9,1,0,0,rectangle,-1,9,1,0,0,-1,9,1,0,0,1,135,295,48,1,,,,,,,,
,,,,,,,,,,,,,FF,,,,,,,,1.075,,,,,,,,,,,,,,,,,,,,,,60fcca6898f0e36db0e37f05,61036e75e5b336bf7d3152ed,2021-07-29_23h14.40.272,Simcolourproject_2stim_asymm_v5,2020.2.10,MacIntel,60,61025ae37ef11b136ea224fe,,,,,,,,,1302,-21,-52,1,0,0,response5disk,,3,-11,-17,1,0,0,rectangle,-11,-17,1,0,0,-11,-17,1,0,0,1,136,296,3,1,,,,,,,,
,,,,,,,,,,,,,FF,,,,,,,,0.745,,,,,,,,,,,,,,,,,,,,,,60fcca6898f0e36db0e37f05,61036e75e5b336bf7d3152ed,2021-07-29_23h14.40.272,Simcolourproject_2stim_asymm_v5,2020.2.10,MacIntel,60,61025ae37ef11b136ea224fe,,,,,,,,,112,69,-27,1,0,0,response3disk,,5,10,3,1,0,0,rectangle,10,3,1,0,0,10,3,1,0,0,1,137,297,119,1,,,,,,,,
,,,,,,,,,,,,,FF,,,,,,,,1.186,,,,,,,,,,,,,,,,,,,,,,60fcca6898f0e36db0e37f05,61036e75e5b336bf7d3152ed,2021-07-29_23h14.40.272,Simcolourproject_2stim_asymm_v5,2020.2.10,MacIntel,60,61025ae37ef11b136ea224fe,,,,,,,,,2572,30,63,1,0,0,response1disk,,7,-20,-16,1,0,0,rectangle,-20,-16,1,0,0,-20,-16,1,0,0,1,138,298,25,1,,,,,,,,
,,,,,,,,,,,,,FF,,,,,,,,1.331,,,,,,,,,,,,,,,,,,,,,,60fcca6898f0e36db0e37f05,61036e75e5b336bf7d3152ed,2021-07-29_23h14.40.272,Simcolourproject_2stim_asymm_v5,2020.2.10,MacIntel,60,61025ae37ef11b136ea224fe,,,,,,,,,1004,42,-52,1,0,0,response3disk,,4,12,-3,1,0,0,rectangle,12,-3,1,0,0,12,-3,1,0,0,1,139,299,78,1,,,,,,,,
,,,,,,,,,,,,,FF,,,,,,,,0.714,,,,,,,,,,,,,,,,,,,,,,60fcca6898f0e36db0e37f05,61036e75e5b336bf7d3152ed,2021-07-29_23h14.40.272,Simcolourproject_2stim_asymm_v5,2020.2.10,MacIntel,60,61025ae37ef11b136ea224fe,,,,,,,,,2488,-54,-28,1,0,0,response5disk,,2,-26,-12,1,0,0,rectangle,-26,-12,1,0,0,-26,-12,1,0,0,1,140,300,7,1,,,,,,,,
