key_resp.keys,key_resp.rt,key_resp_14.keys,key_resp_14.rt,key_resp_15.keys,key_resp_15.rt,key_resp_17.keys,key_resp_17.rt,key_resp_9.keys,key_resp_9.rt,key_resp_10.keys,key_resp_10.rt,practice_comparison,Ecc,mouse_5.x,mouse_5.y,mouse_5.leftButton,mouse_5.midButton,mouse_5.rightButton,mouse_5.clicked_name,pracsimilarity,response_time,mouse_10.x,mouse_10.y,mouse_10.leftButton,mouse_10.midButton,mouse_10.rightButton,mouse_10.clicked_name,mouse_7.x,mouse_7.y,mouse_7.leftButton,mouse_7.midButton,mouse_7.rightButton,mouse_6.x,mouse_6.y,mouse_6.leftButton,mouse_6.midButton,mouse_6.rightButton,duringprac.thisRepN,duringprac.thisTrialN,duringprac.thisN,duringprac.thisIndex,duringprac.ran,participant,session,date,expName,psychopyVersion,OS,frameRate,study_id,mouse_7.clicked_name,catchpracsimilarity,catch_response_time,catchnumberprac,catchtrialorderprac,mouse_6.clicked_name,key_resp_22.keys,key_resp_22.rt,realcomparison,mouse.x,mouse.y,mouse.leftButton,mouse.midButton,mouse.rightButton,mouse.clicked_name,Colour2,similarity,mouse_2.x,mouse_2.y,mouse_2.leftButton,mouse_2.midButton,mouse_2.rightButton,mouse_2.clicked_name,mouse_3.x,mouse_3.y,mouse_3.leftButton,mouse_3.midButton,mouse_3.rightButton,mouse_11.x,mouse_11.y,mouse_11.leftButton,mouse_11.midButton,mouse_11.rightButton,trials_2.thisRepN,trials_2.thisTrialN,trials_2.thisN,trials_2.thisIndex,trials_2.ran,Colour1,mouse_3.clicked_name,catchornah,catchsimilarity,catchnumber,catchtrialorder,catchRT,mouse_11.clicked_name
space,1.6197,space,22.155,space,37.9017,space,8.7694,space,6.0684,space,4.8859,146,FF,-24.12994385,-64.06341553,1,0,0,response5disk_5,3,8.7406,0.994934082,-2.431762695,1,0,0,rectangle_8,0.994934082,-2.431762695,1,0,0,0.994934082,-2.431762695,1,0,0,0,0,0,3,1,60fcb26677a917ac1dd40513,610378be074830d07694c423,2021-07-29_20h58.49.250,Simcolourproject_2stim_asymm_v5,2020.2.10,MacIntel,60,61025ae37ef11b136ea224fe,,,,,,,,,,,,,,,,,,,,,,,,,,,,,,,,,,,,,,,,,,,,,,
,,,,,,,,,,,,9,PF,66.8157959,-29.79309082,1,0,0,response3disk_5,5,1.8665,3.069580078,-5.702880859,1,0,0,rectangle_8,66.78253174,-39.54553223,1,0,0,0.948974609,-0.737579346,1,0,0,0,1,1,2,1,60fcb26677a917ac1dd40513,610378be074830d07694c423,2021-07-29_20h58.49.250,Simcolourproject_2stim_asymm_v5,2020.2.10,MacIntel,60,61025ae37ef11b136ea224fe,response3disk_7,5,2.855,5,"[2,5]",rectangle_4,,,,,,,,,,,,,,,,,,,,,,,,,,,,,,,,,,,,,,,,
,,,,,,,,,,,,61,FF,63.55395508,37.45806885,1,0,0,response1disk_5,6,5.3187,11.66149902,-2.188171387,1,0,0,rectangle_8,11.66149902,-2.188171387,1,0,0,11.66149902,-2.188171387,1,0,0,0,2,2,0,1,60fcb26677a917ac1dd40513,610378be074830d07694c423,2021-07-29_20h58.49.250,Simcolourproject_2stim_asymm_v5,2020.2.10,MacIntel,60,61025ae37ef11b136ea224fe,,,,,,,,,,,,,,,,,,,,,,,,,,,,,,,,,,,,,,,,,,,,,,
,,,,,,,,,,,,3,PF,53.61413574,30.2678833,1,0,0,response1disk_5,6,5.3683,3.257873535,-4.338684082,1,0,0,rectangle_8,3.257873535,-4.338684082,1,0,0,3.257873535,-4.338684082,1,0,0,0,3,3,6,1,60fcb26677a917ac1dd40513,610378be074830d07694c423,2021-07-29_20h58.49.250,Simcolourproject_2stim_asymm_v5,2020.2.10,MacIntel,60,61025ae37ef11b136ea224fe,,,,,,,,,,,,,,,,,,,,,,,,,,,,,,,,,,,,,,,,,,,,,,
,,,,,,,,,,,,110,PF,50.45196533,29.42572021,1,0,0,response1disk_5,6,3.2681,12.73852539,-3.009277344,1,0,0,rectangle_8,79.887146,-30.88952637,1,0,0,10.1072998,-9.451660156,1,0,0,0,4,4,1,1,60fcb26677a917ac1dd40513,610378be074830d07694c423,2021-07-29_20h58.49.250,Simcolourproject_2stim_asymm_v5,2020.2.10,MacIntel,60,61025ae37ef11b136ea224fe,response3disk_7,5,1.4811,5,"[2,5]",rectangle_4,,,,,,,,,,,,,,,,,,,,,,,,,,,,,,,,,,,,,,,,
,,,,,,,,,,,,16,FF,-62.4453125,-45.9911499,1,0,0,response5disk_5,2,1.6847,0.259277344,-5.870361328,1,0,0,rectangle_8,0.259277344,-5.870361328,1,0,0,0.259277344,-5.870361328,1,0,0,0,5,5,5,1,60fcb26677a917ac1dd40513,610378be074830d07694c423,2021-07-29_20h58.49.250,Simcolourproject_2stim_asymm_v5,2020.2.10,MacIntel,60,61025ae37ef11b136ea224fe,,,,,,,,,,,,,,,,,,,,,,,,,,,,,,,,,,,,,,,,,,,,,,
,,,,,,,,,,,,143,PF,41.85778809,-60.40100098,1,0,0,response3disk_5,4,1.336,6.768554688,-5.848205566,1,0,0,rectangle_8,6.768554688,-5.848205566,1,0,0,6.768554688,-5.848205566,1,0,0,0,6,6,4,1,60fcb26677a917ac1dd40513,610378be074830d07694c423,2021-07-29_20h58.49.250,Simcolourproject_2stim_asymm_v5,2020.2.10,MacIntel,60,61025ae37ef11b136ea224fe,,,,,,,,,,,,,,,,,,,,,,,,,,,,,,,,,,,,,,,,,,,,,,
,,,,,,,,,,,,,FF,,,,,,,,4.2044,,,,,,,,,,,,,,,,,,,,,,60fcb26677a917ac1dd40513,610378be074830d07694c423,2021-07-29_20h58.49.250,Simcolourproject_2stim_asymm_v5,2020.2.10,MacIntel,60,61025ae37ef11b136ea224fe,,,,,,,space,16.6945,3147,-73.43304443,38.50408936,1,0,0,response7disk,,1,9.327880859,0.304534912,1,0,0,rectangle,9.327880859,0.304534912,1,0,0,9.327880859,0.304534912,1,0,0,0,0,0,87,1,,,,,,,,
,,,,,,,,,,,,,FF,,,,,,,,3.3509,,,,,,,,,,,,,,,,,,,,,,60fcb26677a917ac1dd40513,610378be074830d07694c423,2021-07-29_20h58.49.250,Simcolourproject_2stim_asymm_v5,2020.2.10,MacIntel,60,61025ae37ef11b136ea224fe,,,,,,,,,3463,-67.40374756,-43.427948,1,0,0,response5disk,,2,3.380187988,-1.465515137,1,0,0,rectangle,3.380187988,-1.465515137,1,0,0,3.380187988,-1.465515137,1,0,0,0,1,1,109,1,,,,,,,,
,,,,,,,,,,,,,FF,,,,,,,,3.2186,,,,,,,,,,,,,,,,,,,,,,60fcb26677a917ac1dd40513,610378be074830d07694c423,2021-07-29_20h58.49.250,Simcolourproject_2stim_asymm_v5,2020.2.10,MacIntel,60,61025ae37ef11b136ea224fe,,,,,,,,,2220,-19.80664063,-56.38726807,1,0,0,response5disk,,3,-9.76965332,11.68066406,1,0,0,rectangle,-9.76965332,11.68066406,1,0,0,-9.76965332,11.68066406,1,0,0,0,2,2,10,1,,,,,,,,
,,,,,,,,,,,,,FF,,,,,,,,1.0349,,,,,,,,,,,,,,,,,,,,,,60fcb26677a917ac1dd40513,610378be074830d07694c423,2021-07-29_20h58.49.250,Simcolourproject_2stim_asymm_v5,2020.2.10,MacIntel,60,61025ae37ef11b136ea224fe,,,,,,,,,3767,69.71118164,29.23944092,1,0,0,response1disk,,6,8.768554688,4.833221436,1,0,0,rectangle,8.768554688,4.833221436,1,0,0,8.768554688,4.833221436,1,0,0,0,3,3,136,1,,,,,,,,
,,,,,,,,,,,,,FF,,,,,,,,1.951,,,,,,,,,,,,,,,,,,,,,,60fcb26677a917ac1dd40513,610378be074830d07694c423,2021-07-29_20h58.49.250,Simcolourproject_2stim_asymm_v5,2020.2.10,MacIntel,60,61025ae37ef11b136ea224fe,,,,,,,,,2950,48.87268066,-32.70123291,1,0,0,response3disk,,5,13.31506348,-4.191619873,1,0,0,rectangle,13.31506348,-4.191619873,1,0,0,13.31506348,-4.191619873,1,0,0,0,4,4,36,1,,,,,,,,
,,,,,,,,,,,,,FF,,,,,,,,2.8354,,,,,,,,,,,,,,,,,,,,,,60fcb26677a917ac1dd40513,610378be074830d07694c423,2021-07-29_20h58.49.250,Simcolourproject_2stim_asymm_v5,2020.2.10,MacIntel,60,61025ae37ef11b136ea224fe,,,,,,,,,2939,75.43273926,37.88031006,1,0,0,response1disk,,6,9.260620117,0.92855835,1,0,0,rectangle,9.260620117,0.92855835,1,0,0,9.260620117,0.92855835,1,0,0,0,5,5,154,1,,,,,,,,
,,,,,,,,,,,,,FF,,,,,,,,1.302,,,,,,,,,,,,,,,,,,,,,,60fcb26677a917ac1dd40513,610378be074830d07694c423,2021-07-29_20h58.49.250,Simcolourproject_2stim_asymm_v5,2020.2.10,MacIntel,60,61025ae37ef11b136ea224fe,,,,,,,,,1436,35.30688477,-57.57189941,1,0,0,response3disk,,4,20.51922607,-13.13323975,1,0,0,rectangle,20.51922607,-13.13323975,1,0,0,20.51922607,-13.13323975,1,0,0,0,6,6,151,1,,,,,,,,
,,,,,,,,,,,,,FF,,,,,,,,1.2531,,,,,,,,,,,,,,,,,,,,,,60fcb26677a917ac1dd40513,610378be074830d07694c423,2021-07-29_20h58.49.250,Simcolourproject_2stim_asymm_v5,2020.2.10,MacIntel,60,61025ae37ef11b136ea224fe,,,,,,,,,886,-73.91381836,-17.38867188,1,0,0,response5disk,,2,7.658081055,-1.819274902,1,0,0,rectangle,7.658081055,-1.819274902,1,0,0,7.658081055,-1.819274902,1,0,0,0,7,7,2,1,,,,,,,,
,,,,,,,,,,,,,FF,,,,,,,,4.0683,,,,,,,,,,,,,,,,,,,,,,60fcb26677a917ac1dd40513,610378be074830d07694c423,2021-07-29_20h58.49.250,Simcolourproject_2stim_asymm_v5,2020.2.10,MacIntel,60,61025ae37ef11b136ea224fe,,,,,,,,,292,65.21374512,33.1973877,1,0,0,response1disk,,6,-1.37109375,-1.19921875,1,0,0,rectangle,-82.8638916,38.484375,1,0,0,-4.373779297,1.286621094,1,0,0,0,8,8,71,1,,response7disk_3,TRUE,1,1,"[170,134,202,132,246,104,125,176,255,9,72,59,26,233,49,194,135,154,13,102]",1.9182,rectangle
,,,,,,,,,,,,,FF,,,,,,,,2.2902,,,,,,,,,,,,,,,,,,,,,,60fcb26677a917ac1dd40513,610378be074830d07694c423,2021-07-29_20h58.49.250,Simcolourproject_2stim_asymm_v5,2020.2.10,MacIntel,60,61025ae37ef11b136ea224fe,,,,,,,,,2154,36.1484375,-90.66287231,1,0,0,response3disk,,4,0.985595703,2.544647217,1,0,0,rectangle,0.985595703,2.544647217,1,0,0,0.985595703,2.544647217,1,0,0,0,9,9,29,1,,,,,,,,
,,,,,,,,,,,,,FF,,,,,,,,1.9835,,,,,,,,,,,,,,,,,,,,,,60fcb26677a917ac1dd40513,610378be074830d07694c423,2021-07-29_20h58.49.250,Simcolourproject_2stim_asymm_v5,2020.2.10,MacIntel,60,61025ae37ef11b136ea224fe,,,,,,,,,1074,76.68426514,33.07305908,1,0,0,response1disk,,6,-0.741455078,3.114318848,1,0,0,rectangle,-0.741455078,3.114318848,1,0,0,-0.741455078,3.114318848,1,0,0,0,10,10,19,1,,,,,,,,
,,,,,,,,,,,,,FF,,,,,,,,1.3532,,,,,,,,,,,,,,,,,,,,,,60fcb26677a917ac1dd40513,610378be074830d07694c423,2021-07-29_20h58.49.250,Simcolourproject_2stim_asymm_v5,2020.2.10,MacIntel,60,61025ae37ef11b136ea224fe,,,,,,,,,3820,-38.81390381,-80.79089355,1,0,0,response5disk,,3,2.497131348,1.021881104,1,0,0,rectangle,2.497131348,1.021881104,1,0,0,2.497131348,1.021881104,1,0,0,0,11,11,126,1,,,,,,,,
,,,,,,,,,,,,,FF,,,,,,,,1.7845,,,,,,,,,,,,,,,,,,,,,,60fcb26677a917ac1dd40513,610378be074830d07694c423,2021-07-29_20h58.49.250,Simcolourproject_2stim_asymm_v5,2020.2.10,MacIntel,60,61025ae37ef11b136ea224fe,,,,,,,,,3523,-33.0579834,-58.65936279,1,0,0,response5disk,,3,12.18493652,-5.792480469,1,0,0,rectangle,72.18560791,-42.39105225,1,0,0,-1.215576172,-4.651794434,1,0,0,0,12,12,3,1,,response3disk_3,TRUE,5,5,"[170,134,202,132,246,104,125,176,255,9,72,59,26,233,49,194,135,154,13,102]",1.3668,rectangle
,,,,,,,,,,,,,FF,,,,,,,,1.916,,,,,,,,,,,,,,,,,,,,,,60fcb26677a917ac1dd40513,610378be074830d07694c423,2021-07-29_20h58.49.250,Simcolourproject_2stim_asymm_v5,2020.2.10,MacIntel,60,61025ae37ef11b136ea224fe,,,,,,,,,383,71.87030029,-32.8465271,1,0,0,response3disk,,5,10.27270508,-4.288269043,1,0,0,rectangle,10.27270508,-4.288269043,1,0,0,10.27270508,-4.288269043,1,0,0,0,13,13,54,1,,,,,,,,
,,,,,,,,,,,,,FF,,,,,,,,1.0838,,,,,,,,,,,,,,,,,,,,,,60fcb26677a917ac1dd40513,610378be074830d07694c423,2021-07-29_20h58.49.250,Simcolourproject_2stim_asymm_v5,2020.2.10,MacIntel,60,61025ae37ef11b136ea224fe,,,,,,,,,2327,58.76867676,-40.39962769,1,0,0,response3disk,,5,6.523986816,-7.117004395,1,0,0,rectangle,6.523986816,-7.117004395,1,0,0,6.523986816,-7.117004395,1,0,0,0,14,14,82,1,,,,,,,,
,,,,,,,,,,,,,FF,,,,,,,,2.3509,,,,,,,,,,,,,,,,,,,,,,60fcb26677a917ac1dd40513,610378be074830d07694c423,2021-07-29_20h58.49.250,Simcolourproject_2stim_asymm_v5,2020.2.10,MacIntel,60,61025ae37ef11b136ea224fe,,,,,,,,,1077,75.52697754,-38.22924805,1,0,0,response3disk,,5,8.706298828,-6.443969727,1,0,0,rectangle,8.706298828,-6.443969727,1,0,0,8.706298828,-6.443969727,1,0,0,0,15,15,23,1,,,,,,,,
,,,,,,,,,,,,,FF,,,,,,,,1.3011,,,,,,,,,,,,,,,,,,,,,,60fcb26677a917ac1dd40513,610378be074830d07694c423,2021-07-29_20h58.49.250,Simcolourproject_2stim_asymm_v5,2020.2.10,MacIntel,60,61025ae37ef11b136ea224fe,,,,,,,,,3908,-79.15179443,-39.77331543,1,0,0,response5disk,,2,-3.27923584,-4.780883789,1,0,0,rectangle,-3.27923584,-4.780883789,1,0,0,-3.27923584,-4.780883789,1,0,0,0,16,16,145,1,,,,,,,,
,,,,,,,,,,,,,FF,,,,,,,,1.1341,,,,,,,,,,,,,,,,,,,,,,60fcb26677a917ac1dd40513,610378be074830d07694c423,2021-07-29_20h58.49.250,Simcolourproject_2stim_asymm_v5,2020.2.10,MacIntel,60,61025ae37ef11b136ea224fe,,,,,,,,,371,-60.13201904,-38.14971924,1,0,0,response5disk,,2,12.5612793,-2.122497559,1,0,0,rectangle,12.5612793,-2.122497559,1,0,0,12.5612793,-2.122497559,1,0,0,0,17,17,38,1,,,,,,,,
,,,,,,,,,,,,,FF,,,,,,,,1.0673,,,,,,,,,,,,,,,,,,,,,,60fcb26677a917ac1dd40513,610378be074830d07694c423,2021-07-29_20h58.49.250,Simcolourproject_2stim_asymm_v5,2020.2.10,MacIntel,60,61025ae37ef11b136ea224fe,,,,,,,,,2081,59.74279785,25.2253418,1,0,0,response1disk,,6,6.401367188,5.184936523,1,0,0,rectangle,6.401367188,5.184936523,1,0,0,6.401367188,5.184936523,1,0,0,0,18,18,142,1,,,,,,,,
,,,,,,,,,,,,,FF,,,,,,,,1.9187,,,,,,,,,,,,,,,,,,,,,,60fcb26677a917ac1dd40513,610378be074830d07694c423,2021-07-29_20h58.49.250,Simcolourproject_2stim_asymm_v5,2020.2.10,MacIntel,60,61025ae37ef11b136ea224fe,,,,,,,,,2598,32.79638672,-51.39025879,1,0,0,response3disk,,4,12.73925781,-10.13165283,1,0,0,rectangle,12.73925781,-10.13165283,1,0,0,12.73925781,-10.13165283,1,0,0,0,19,19,75,1,,,,,,,,
,,,,,,,,,,,,,FF,,,,,,,,2.2719,,,,,,,,,,,,,,,,,,,,,,60fcb26677a917ac1dd40513,610378be074830d07694c423,2021-07-29_20h58.49.250,Simcolourproject_2stim_asymm_v5,2020.2.10,MacIntel,60,61025ae37ef11b136ea224fe,,,,,,,,,3535,67.95819092,27.0322876,1,0,0,response1disk,,6,2.453979492,0.578735352,1,0,0,rectangle,2.453979492,0.578735352,1,0,0,2.453979492,0.578735352,1,0,0,0,20,20,88,1,,,,,,,,
,,,,,,,,,,,,,FF,,,,,,,,1.367,,,,,,,,,,,,,,,,,,,,,,60fcb26677a917ac1dd40513,610378be074830d07694c423,2021-07-29_20h58.49.250,Simcolourproject_2stim_asymm_v5,2020.2.10,MacIntel,60,61025ae37ef11b136ea224fe,,,,,,,,,820,65.2298584,36.24517822,1,0,0,response1disk,,6,7.532592773,8.238372803,1,0,0,rectangle,7.532592773,8.238372803,1,0,0,7.532592773,8.238372803,1,0,0,0,21,21,146,1,,,,,,,,
,,,,,,,,,,,,,FF,,,,,,,,3.735,,,,,,,,,,,,,,,,,,,,,,60fcb26677a917ac1dd40513,610378be074830d07694c423,2021-07-29_20h58.49.250,Simcolourproject_2stim_asymm_v5,2020.2.10,MacIntel,60,61025ae37ef11b136ea224fe,,,,,,,,,1679,33.75268555,-83.05810547,1,0,0,response3disk,,4,-0.809143066,-3.241119385,1,0,0,rectangle,-0.809143066,-3.241119385,1,0,0,-0.809143066,-3.241119385,1,0,0,0,22,22,125,1,,,,,,,,
,,,,,,,,,,,,,FF,,,,,,,,1.5167,,,,,,,,,,,,,,,,,,,,,,60fcb26677a917ac1dd40513,610378be074830d07694c423,2021-07-29_20h58.49.250,Simcolourproject_2stim_asymm_v5,2020.2.10,MacIntel,60,61025ae37ef11b136ea224fe,,,,,,,,,2772,-92.17877197,-34.74578857,1,0,0,response5disk,,2,-12.08569336,-3.292663574,1,0,0,rectangle,-12.08569336,-3.292663574,1,0,0,-12.08569336,-3.292663574,1,0,0,0,23,23,53,1,,,,,,,,
,,,,,,,,,,,,,FF,,,,,,,,2.1505,,,,,,,,,,,,,,,,,,,,,,60fcb26677a917ac1dd40513,610378be074830d07694c423,2021-07-29_20h58.49.250,Simcolourproject_2stim_asymm_v5,2020.2.10,MacIntel,60,61025ae37ef11b136ea224fe,,,,,,,,,2527,-39.88775635,-69.75195313,1,0,0,response5disk,,3,0.320129395,0.383605957,1,0,0,rectangle,0.320129395,0.383605957,1,0,0,0.320129395,0.383605957,1,0,0,0,24,24,127,1,,,,,,,,
,,,,,,,,,,,,,FF,,,,,,,,1.7175,,,,,,,,,,,,,,,,,,,,,,60fcb26677a917ac1dd40513,610378be074830d07694c423,2021-07-29_20h58.49.250,Simcolourproject_2stim_asymm_v5,2020.2.10,MacIntel,60,61025ae37ef11b136ea224fe,,,,,,,,,4010,-27.54614258,-66.25720215,1,0,0,response5disk,,3,4.491210938,-3.456787109,1,0,0,rectangle,97.68859863,46.79589844,1,0,0,1.563415527,-6.3722229,1,0,0,0,25,25,27,1,,response1disk_3,TRUE,6,6,"[170,134,202,132,246,104,125,176,255,9,72,59,26,233,49,194,135,154,13,102]",1.6694,rectangle
,,,,,,,,,,,,,FF,,,,,,,,1.852,,,,,,,,,,,,,,,,,,,,,,60fcb26677a917ac1dd40513,610378be074830d07694c423,2021-07-29_20h58.49.250,Simcolourproject_2stim_asymm_v5,2020.2.10,MacIntel,60,61025ae37ef11b136ea224fe,,,,,,,,,1670,-32.54766846,81.64898682,1,0,0,response7disk,,0,-2.061584473,7.776519775,1,0,0,rectangle,-2.061584473,7.776519775,1,0,0,-2.061584473,7.776519775,1,0,0,0,26,26,21,1,,,,,,,,
,,,,,,,,,,,,,FF,,,,,,,,3.3169,,,,,,,,,,,,,,,,,,,,,,60fcb26677a917ac1dd40513,610378be074830d07694c423,2021-07-29_20h58.49.250,Simcolourproject_2stim_asymm_v5,2020.2.10,MacIntel,60,61025ae37ef11b136ea224fe,,,,,,,,,2074,80.76983643,-60.58215332,1,0,0,response3disk,,5,11.98266602,-7.34979248,1,0,0,rectangle,11.98266602,-7.34979248,1,0,0,11.98266602,-7.34979248,1,0,0,0,27,27,73,1,,,,,,,,
,,,,,,,,,,,,,FF,,,,,,,,2.3369,,,,,,,,,,,,,,,,,,,,,,60fcb26677a917ac1dd40513,610378be074830d07694c423,2021-07-29_20h58.49.250,Simcolourproject_2stim_asymm_v5,2020.2.10,MacIntel,60,61025ae37ef11b136ea224fe,,,,,,,,,4250,-40.23370361,-58.10119629,1,0,0,response5disk,,3,-5.927856445,-3.29208374,1,0,0,rectangle,-5.927856445,-3.29208374,1,0,0,-5.927856445,-3.29208374,1,0,0,0,28,28,89,1,,,,,,,,
,,,,,,,,,,,,,FF,,,,,,,,2.5676,,,,,,,,,,,,,,,,,,,,,,60fcb26677a917ac1dd40513,610378be074830d07694c423,2021-07-29_20h58.49.250,Simcolourproject_2stim_asymm_v5,2020.2.10,MacIntel,60,61025ae37ef11b136ea224fe,,,,,,,,,4336,-77.0045166,34.83026123,1,0,0,response7disk,,1,-8.911621094,-12.30636597,1,0,0,rectangle,-8.911621094,-12.30636597,1,0,0,-8.911621094,-12.30636597,1,0,0,0,29,29,132,1,,,,,,,,
,,,,,,,,,,,,,FF,,,,,,,,0.9171,,,,,,,,,,,,,,,,,,,,,,60fcb26677a917ac1dd40513,610378be074830d07694c423,2021-07-29_20h58.49.250,Simcolourproject_2stim_asymm_v5,2020.2.10,MacIntel,60,61025ae37ef11b136ea224fe,,,,,,,,,2229,-67.16082764,-36.52017212,1,0,0,response5disk,,2,0.568481445,5.802429199,1,0,0,rectangle,0.568481445,5.802429199,1,0,0,0.568481445,5.802429199,1,0,0,0,30,30,43,1,,,,,,,,
,,,,,,,,,,,,,FF,,,,,,,,1.0661,,,,,,,,,,,,,,,,,,,,,,60fcb26677a917ac1dd40513,610378be074830d07694c423,2021-07-29_20h58.49.250,Simcolourproject_2stim_asymm_v5,2020.2.10,MacIntel,60,61025ae37ef11b136ea224fe,,,,,,,,,3022,50.4710083,-37.67855835,1,0,0,response3disk,,5,4.656555176,-3.2449646,1,0,0,rectangle,4.656555176,-3.2449646,1,0,0,4.656555176,-3.2449646,1,0,0,0,31,31,106,1,,,,,,,,
,,,,,,,,,,,,,FF,,,,,,,,1.2181,,,,,,,,,,,,,,,,,,,,,,60fcb26677a917ac1dd40513,610378be074830d07694c423,2021-07-29_20h58.49.250,Simcolourproject_2stim_asymm_v5,2020.2.10,MacIntel,60,61025ae37ef11b136ea224fe,,,,,,,,,1589,19.88647461,-57.45257568,1,0,0,response3disk,,4,-1.723388672,14.35018921,1,0,0,rectangle,-1.723388672,14.35018921,1,0,0,-1.723388672,14.35018921,1,0,0,0,32,32,92,1,,,,,,,,
,,,,,,,,,,,,,FF,,,,,,,,1.5351,,,,,,,,,,,,,,,,,,,,,,60fcb26677a917ac1dd40513,610378be074830d07694c423,2021-07-29_20h58.49.250,Simcolourproject_2stim_asymm_v5,2020.2.10,MacIntel,60,61025ae37ef11b136ea224fe,,,,,,,,,171,-54.98925781,17.42501831,1,0,0,response7disk,,1,-12.45703125,-8.938110352,1,0,0,rectangle,-12.45703125,-8.938110352,1,0,0,-12.45703125,-8.938110352,1,0,0,0,33,33,55,1,,,,,,,,
,,,,,,,,,,,,,FF,,,,,,,,1.3821,,,,,,,,,,,,,,,,,,,,,,60fcb26677a917ac1dd40513,610378be074830d07694c423,2021-07-29_20h58.49.250,Simcolourproject_2stim_asymm_v5,2020.2.10,MacIntel,60,61025ae37ef11b136ea224fe,,,,,,,,,2296,-29.76098633,-42.90942383,1,0,0,response5disk,,3,8.245361328,-3.096862793,1,0,0,rectangle,8.245361328,-3.096862793,1,0,0,8.245361328,-3.096862793,1,0,0,0,34,34,98,1,,,,,,,,
,,,,,,,,,,,,,FF,,,,,,,,1.6005,,,,,,,,,,,,,,,,,,,,,,60fcb26677a917ac1dd40513,610378be074830d07694c423,2021-07-29_20h58.49.250,Simcolourproject_2stim_asymm_v5,2020.2.10,MacIntel,60,61025ae37ef11b136ea224fe,,,,,,,,,4242,41.23052979,-51.16918945,1,0,0,response3disk,,4,7.894042969,1.0418396,1,0,0,rectangle,7.894042969,1.0418396,1,0,0,7.894042969,1.0418396,1,0,0,0,35,35,95,1,,,,,,,,
,,,,,,,,,,,,,FF,,,,,,,,1.4673,,,,,,,,,,,,,,,,,,,,,,60fcb26677a917ac1dd40513,610378be074830d07694c423,2021-07-29_20h58.49.250,Simcolourproject_2stim_asymm_v5,2020.2.10,MacIntel,60,61025ae37ef11b136ea224fe,,,,,,,,,1728,73.52661133,-37.29629517,1,0,0,response3disk,,5,5.376586914,-8.845916748,1,0,0,rectangle,5.376586914,-8.845916748,1,0,0,5.376586914,-8.845916748,1,0,0,0,36,36,14,1,,,,,,,,
,,,,,,,,,,,,,FF,,,,,,,,1.2177,,,,,,,,,,,,,,,,,,,,,,60fcb26677a917ac1dd40513,610378be074830d07694c423,2021-07-29_20h58.49.250,Simcolourproject_2stim_asymm_v5,2020.2.10,MacIntel,60,61025ae37ef11b136ea224fe,,,,,,,,,4006,-24.47961426,-49.99334717,1,0,0,response5disk,,3,-7.301269531,-7.007446289,1,0,0,rectangle,-7.301269531,-7.007446289,1,0,0,-7.301269531,-7.007446289,1,0,0,0,37,37,62,1,,,,,,,,
,,,,,,,,,,,,,FF,,,,,,,,0.9838,,,,,,,,,,,,,,,,,,,,,,60fcb26677a917ac1dd40513,610378be074830d07694c423,2021-07-29_20h58.49.250,Simcolourproject_2stim_asymm_v5,2020.2.10,MacIntel,60,61025ae37ef11b136ea224fe,,,,,,,,,3359,82.24853516,35.11947632,1,0,0,response1disk,,6,-2.728088379,6.204803467,1,0,0,rectangle,-2.728088379,6.204803467,1,0,0,-2.728088379,6.204803467,1,0,0,0,38,38,57,1,,,,,,,,
,,,,,,,,,,,,,FF,,,,,,,,3.3172,,,,,,,,,,,,,,,,,,,,,,60fcb26677a917ac1dd40513,610378be074830d07694c423,2021-07-29_20h58.49.250,Simcolourproject_2stim_asymm_v5,2020.2.10,MacIntel,60,61025ae37ef11b136ea224fe,,,,,,,,,4245,74.44348145,-59.67800903,1,0,0,response3disk,,5,-1.532775879,-7.185424805,1,0,0,rectangle,-1.532775879,-7.185424805,1,0,0,-1.532775879,-7.185424805,1,0,0,0,39,39,147,1,,,,,,,,
,,,,,,,,,,,,,FF,,,,,,,,1.9168,,,,,,,,,,,,,,,,,,,,,,60fcb26677a917ac1dd40513,610378be074830d07694c423,2021-07-29_20h58.49.250,Simcolourproject_2stim_asymm_v5,2020.2.10,MacIntel,60,61025ae37ef11b136ea224fe,,,,,,,,,2055,46.87609863,-80.20248413,1,0,0,response3disk,,4,7.745300293,-5.187316895,1,0,0,rectangle,7.745300293,-5.187316895,1,0,0,7.745300293,-5.187316895,1,0,0,0,40,40,117,1,,,,,,,,
,,,,,,,,,,,,,FF,,,,,,,,4.1678,,,,,,,,,,,,,,,,,,,,,,60fcb26677a917ac1dd40513,610378be074830d07694c423,2021-07-29_20h58.49.250,Simcolourproject_2stim_asymm_v5,2020.2.10,MacIntel,60,61025ae37ef11b136ea224fe,,,,,,,,,2519,51.1484375,69.54510498,1,0,0,response1disk,,7,-11.16772461,-5.032836914,1,0,0,rectangle,-11.16772461,-5.032836914,1,0,0,-11.16772461,-5.032836914,1,0,0,0,41,41,83,1,,,,,,,,
,,,,,,,,,,,,,FF,,,,,,,,2.5008,,,,,,,,,,,,,,,,,,,,,,60fcb26677a917ac1dd40513,610378be074830d07694c423,2021-07-29_20h58.49.250,Simcolourproject_2stim_asymm_v5,2020.2.10,MacIntel,60,61025ae37ef11b136ea224fe,,,,,,,,,1781,83.64080811,31.0065918,1,0,0,response1disk,,6,-5.751281738,4.986602783,1,0,0,rectangle,-5.751281738,4.986602783,1,0,0,-5.751281738,4.986602783,1,0,0,0,42,42,5,1,,,,,,,,
,,,,,,,,,,,,,FF,,,,,,,,1.3999,,,,,,,,,,,,,,,,,,,,,,60fcb26677a917ac1dd40513,610378be074830d07694c423,2021-07-29_20h58.49.250,Simcolourproject_2stim_asymm_v5,2020.2.10,MacIntel,60,61025ae37ef11b136ea224fe,,,,,,,,,1783,87.44616699,24.41229248,1,0,0,response1disk,,6,0.768798828,-0.320739746,1,0,0,rectangle,0.768798828,-0.320739746,1,0,0,0.768798828,-0.320739746,1,0,0,0,43,43,155,1,,,,,,,,
,,,,,,,,,,,,,FF,,,,,,,,1.6689,,,,,,,,,,,,,,,,,,,,,,60fcb26677a917ac1dd40513,610378be074830d07694c423,2021-07-29_20h58.49.250,Simcolourproject_2stim_asymm_v5,2020.2.10,MacIntel,60,61025ae37ef11b136ea224fe,,,,,,,,,2488,27.0894165,-68.88513184,1,0,0,response3disk,,4,12.7901001,-12.67251587,1,0,0,rectangle,12.7901001,-12.67251587,1,0,0,12.7901001,-12.67251587,1,0,0,0,44,44,34,1,,,,,,,,
,,,,,,,,,,,,,FF,,,,,,,,1.6508,,,,,,,,,,,,,,,,,,,,,,60fcb26677a917ac1dd40513,610378be074830d07694c423,2021-07-29_20h58.49.250,Simcolourproject_2stim_asymm_v5,2020.2.10,MacIntel,60,61025ae37ef11b136ea224fe,,,,,,,,,3557,-28.38562012,-67.80963135,1,0,0,response5disk,,3,-5.782043457,-3.509307861,1,0,0,rectangle,-5.782043457,-3.509307861,1,0,0,-5.782043457,-3.509307861,1,0,0,0,45,45,85,1,,,,,,,,
,,,,,,,,,,,,,FF,,,,,,,,1.1352,,,,,,,,,,,,,,,,,,,,,,60fcb26677a917ac1dd40513,610378be074830d07694c423,2021-07-29_20h58.49.250,Simcolourproject_2stim_asymm_v5,2020.2.10,MacIntel,60,61025ae37ef11b136ea224fe,,,,,,,,,102,-21.75518799,-69.28857422,1,0,0,response5disk,,3,1.94732666,-6.41394043,1,0,0,rectangle,1.94732666,-6.41394043,1,0,0,1.94732666,-6.41394043,1,0,0,0,46,46,124,1,,,,,,,,
,,,,,,,,,,,,,FF,,,,,,,,1.1835,,,,,,,,,,,,,,,,,,,,,,60fcb26677a917ac1dd40513,610378be074830d07694c423,2021-07-29_20h58.49.250,Simcolourproject_2stim_asymm_v5,2020.2.10,MacIntel,60,61025ae37ef11b136ea224fe,,,,,,,,,3006,-32.13659668,-56.61169434,1,0,0,response5disk,,3,-4.802978516,-12.53619385,1,0,0,rectangle,-4.802978516,-12.53619385,1,0,0,-4.802978516,-12.53619385,1,0,0,0,47,47,40,1,,,,,,,,
,,,,,,,,,,,,,FF,,,,,,,,1.5528,,,,,,,,,,,,,,,,,,,,,,60fcb26677a917ac1dd40513,610378be074830d07694c423,2021-07-29_20h58.49.250,Simcolourproject_2stim_asymm_v5,2020.2.10,MacIntel,60,61025ae37ef11b136ea224fe,,,,,,,,,4220,-32.75134277,-70.01455688,1,0,0,response5disk,,3,-3.707092285,7.925689697,1,0,0,rectangle,71.32519531,-46.34619141,1,0,0,7.234863281,2.104003906,1,0,0,0,48,48,63,1,,response3disk_3,TRUE,5,5,"[170,134,202,132,246,104,125,176,255,9,72,59,26,233,49,194,135,154,13,102]",1.4177,rectangle
,,,,,,,,,,,,,FF,,,,,,,,4.7849,,,,,,,,,,,,,,,,,,,,,,60fcb26677a917ac1dd40513,610378be074830d07694c423,2021-07-29_20h58.49.250,Simcolourproject_2stim_asymm_v5,2020.2.10,MacIntel,60,61025ae37ef11b136ea224fe,,,,,,,,,1991,46.23535156,-25.76977539,1,0,0,response3disk,,5,16.1229248,-5.421020508,1,0,0,rectangle,16.1229248,-5.421020508,1,0,0,16.1229248,-5.421020508,1,0,0,0,49,49,149,1,,,,,,,,
,,,,,,,,,,,,,FF,,,,,,,,1.5345,,,,,,,,,,,,,,,,,,,,,,60fcb26677a917ac1dd40513,610378be074830d07694c423,2021-07-29_20h58.49.250,Simcolourproject_2stim_asymm_v5,2020.2.10,MacIntel,60,61025ae37ef11b136ea224fe,,,,,,,,,3854,-23.27160645,-77.57092285,1,0,0,response5disk,,3,-3.794372559,-5.619506836,1,0,0,rectangle,-3.794372559,-5.619506836,1,0,0,-3.794372559,-5.619506836,1,0,0,0,50,50,120,1,,,,,,,,
,,,,,,,,,,,,,FF,,,,,,,,1.4345,,,,,,,,,,,,,,,,,,,,,,60fcb26677a917ac1dd40513,610378be074830d07694c423,2021-07-29_20h58.49.250,Simcolourproject_2stim_asymm_v5,2020.2.10,MacIntel,60,61025ae37ef11b136ea224fe,,,,,,,,,4265,29.45928955,-66.19763184,1,0,0,response3disk,,4,11.20184326,0.948944092,1,0,0,rectangle,11.20184326,0.948944092,1,0,0,11.20184326,0.948944092,1,0,0,0,51,51,119,1,,,,,,,,
,,,,,,,,,,,,,FF,,,,,,,,2.184,,,,,,,,,,,,,,,,,,,,,,60fcb26677a917ac1dd40513,610378be074830d07694c423,2021-07-29_20h58.49.250,Simcolourproject_2stim_asymm_v5,2020.2.10,MacIntel,60,61025ae37ef11b136ea224fe,,,,,,,,,3647,62.85510254,-22.76449585,1,0,0,response3disk,,5,0.376220703,-4.794006348,1,0,0,rectangle,0.376220703,-4.794006348,1,0,0,0.376220703,-4.794006348,1,0,0,0,52,52,84,1,,,,,,,,
,,,,,,,,,,,,,FF,,,,,,,,1.0327,,,,,,,,,,,,,,,,,,,,,,60fcb26677a917ac1dd40513,610378be074830d07694c423,2021-07-29_20h58.49.250,Simcolourproject_2stim_asymm_v5,2020.2.10,MacIntel,60,61025ae37ef11b136ea224fe,,,,,,,,,3073,56.8112793,-24.26443481,1,0,0,response3disk,,5,3.137817383,8.018310547,1,0,0,rectangle,3.137817383,8.018310547,1,0,0,3.137817383,8.018310547,1,0,0,0,53,53,35,1,,,,,,,,
,,,,,,,,,,,,,FF,,,,,,,,1.1343,,,,,,,,,,,,,,,,,,,,,,60fcb26677a917ac1dd40513,610378be074830d07694c423,2021-07-29_20h58.49.250,Simcolourproject_2stim_asymm_v5,2020.2.10,MacIntel,60,61025ae37ef11b136ea224fe,,,,,,,,,2140,46.27038574,80.22747803,1,0,0,response1disk,,7,-1.389282227,1.976196289,1,0,0,rectangle,-1.389282227,1.976196289,1,0,0,-1.389282227,1.976196289,1,0,0,0,54,54,144,1,,,,,,,,
,,,,,,,,,,,,,FF,,,,,,,,1.8669,,,,,,,,,,,,,,,,,,,,,,60fcb26677a917ac1dd40513,610378be074830d07694c423,2021-07-29_20h58.49.250,Simcolourproject_2stim_asymm_v5,2020.2.10,MacIntel,60,61025ae37ef11b136ea224fe,,,,,,,,,146,72.05493164,34.48986816,1,0,0,response1disk,,6,4.067687988,5.768035889,1,0,0,rectangle,4.067687988,5.768035889,1,0,0,4.067687988,5.768035889,1,0,0,0,55,55,65,1,,,,,,,,
,,,,,,,,,,,,,FF,,,,,,,,1.0169,,,,,,,,,,,,,,,,,,,,,,60fcb26677a917ac1dd40513,610378be074830d07694c423,2021-07-29_20h58.49.250,Simcolourproject_2stim_asymm_v5,2020.2.10,MacIntel,60,61025ae37ef11b136ea224fe,,,,,,,,,3592,-40.24316406,-58.68859863,1,0,0,response5disk,,3,-20.66308594,-8.981628418,1,0,0,rectangle,-20.66308594,-8.981628418,1,0,0,-20.66308594,-8.981628418,1,0,0,0,56,56,93,1,,,,,,,,
,,,,,,,,,,,,,FF,,,,,,,,1.6836,,,,,,,,,,,,,,,,,,,,,,60fcb26677a917ac1dd40513,610378be074830d07694c423,2021-07-29_20h58.49.250,Simcolourproject_2stim_asymm_v5,2020.2.10,MacIntel,60,61025ae37ef11b136ea224fe,,,,,,,,,2321,87.69763184,27.38867188,1,0,0,response1disk,,6,8.135620117,4.588928223,1,0,0,rectangle,8.135620117,4.588928223,1,0,0,8.135620117,4.588928223,1,0,0,0,57,57,48,1,,,,,,,,
,,,,,,,,,,,,,FF,,,,,,,,2.5514,,,,,,,,,,,,,,,,,,,,,,60fcb26677a917ac1dd40513,610378be074830d07694c423,2021-07-29_20h58.49.250,Simcolourproject_2stim_asymm_v5,2020.2.10,MacIntel,60,61025ae37ef11b136ea224fe,,,,,,,,,791,-33.80755615,-78.12506104,1,0,0,response5disk,,3,1.424621582,-3.784606934,1,0,0,rectangle,87.94067383,42.1340332,1,0,0,-1.892333984,-6.045898438,1,0,0,0,58,58,12,1,,response1disk_3,TRUE,6,6,"[170,134,202,132,246,104,125,176,255,9,72,59,26,233,49,194,135,154,13,102]",1.8674,rectangle
,,,,,,,,,,,,,FF,,,,,,,,1.2695,,,,,,,,,,,,,,,,,,,,,,60fcb26677a917ac1dd40513,610378be074830d07694c423,2021-07-29_20h58.49.250,Simcolourproject_2stim_asymm_v5,2020.2.10,MacIntel,60,61025ae37ef11b136ea224fe,,,,,,,,,443,-63.49169922,-37.97259521,1,0,0,response5disk,,2,-1.490661621,-3.42755127,1,0,0,rectangle,-1.490661621,-3.42755127,1,0,0,-1.490661621,-3.42755127,1,0,0,0,59,59,110,1,,,,,,,,
,,,,,,,,,,,,,FF,,,,,,,,1.6842,,,,,,,,,,,,,,,,,,,,,,60fcb26677a917ac1dd40513,610378be074830d07694c423,2021-07-29_20h58.49.250,Simcolourproject_2stim_asymm_v5,2020.2.10,MacIntel,60,61025ae37ef11b136ea224fe,,,,,,,,,1270,28.33679199,-63.14645386,1,0,0,response3disk,,4,14.30053711,-8.508239746,1,0,0,rectangle,14.30053711,-8.508239746,1,0,0,14.30053711,-8.508239746,1,0,0,0,60,60,103,1,,,,,,,,
,,,,,,,,,,,,,FF,,,,,,,,1.568,,,,,,,,,,,,,,,,,,,,,,60fcb26677a917ac1dd40513,610378be074830d07694c423,2021-07-29_20h58.49.250,Simcolourproject_2stim_asymm_v5,2020.2.10,MacIntel,60,61025ae37ef11b136ea224fe,,,,,,,,,2377,-26.22241211,-61.73345947,1,0,0,response5disk,,3,-0.948852539,-4.489257813,1,0,0,rectangle,-0.948852539,-4.489257813,1,0,0,-0.948852539,-4.489257813,1,0,0,0,61,61,66,1,,,,,,,,
,,,,,,,,,,,,,FF,,,,,,,,2.021,,,,,,,,,,,,,,,,,,,,,,60fcb26677a917ac1dd40513,610378be074830d07694c423,2021-07-29_20h58.49.250,Simcolourproject_2stim_asymm_v5,2020.2.10,MacIntel,60,61025ae37ef11b136ea224fe,,,,,,,,,1866,60.39788818,69.6602478,1,0,0,response1disk,,7,0.863769531,-4.479980469,1,0,0,rectangle,0.863769531,-4.479980469,1,0,0,0.863769531,-4.479980469,1,0,0,0,62,62,0,1,,,,,,,,
,,,,,,,,,,,,,FF,,,,,,,,2.3003,,,,,,,,,,,,,,,,,,,,,,60fcb26677a917ac1dd40513,610378be074830d07694c423,2021-07-29_20h58.49.250,Simcolourproject_2stim_asymm_v5,2020.2.10,MacIntel,60,61025ae37ef11b136ea224fe,,,,,,,,,1031,-22.62493896,-64.56503296,1,0,0,response5disk,,3,-0.924560547,0.609161377,1,0,0,rectangle,-0.924560547,0.609161377,1,0,0,-0.924560547,0.609161377,1,0,0,0,63,63,114,1,,,,,,,,
,,,,,,,,,,,,,FF,,,,,,,,0.867,,,,,,,,,,,,,,,,,,,,,,60fcb26677a917ac1dd40513,610378be074830d07694c423,2021-07-29_20h58.49.250,Simcolourproject_2stim_asymm_v5,2020.2.10,MacIntel,60,61025ae37ef11b136ea224fe,,,,,,,,,3518,-29.23291016,-53.81716919,1,0,0,response5disk,,3,-6.134765625,-9.80456543,1,0,0,rectangle,-6.134765625,-9.80456543,1,0,0,-6.134765625,-9.80456543,1,0,0,0,64,64,102,1,,,,,,,,
,,,,,,,,,,,,,FF,,,,,,,,0.8339,,,,,,,,,,,,,,,,,,,,,,60fcb26677a917ac1dd40513,610378be074830d07694c423,2021-07-29_20h58.49.250,Simcolourproject_2stim_asymm_v5,2020.2.10,MacIntel,60,61025ae37ef11b136ea224fe,,,,,,,,,3411,43.38220215,-57.46325684,1,0,0,response3disk,,4,19.62817383,-10.89724731,1,0,0,rectangle,19.62817383,-10.89724731,1,0,0,19.62817383,-10.89724731,1,0,0,0,65,65,28,1,,,,,,,,
,,,,,,,,,,,,,FF,,,,,,,,1.6,,,,,,,,,,,,,,,,,,,,,,60fcb26677a917ac1dd40513,610378be074830d07694c423,2021-07-29_20h58.49.250,Simcolourproject_2stim_asymm_v5,2020.2.10,MacIntel,60,61025ae37ef11b136ea224fe,,,,,,,,,2947,-54.61657715,-25.13500977,1,0,0,response5disk,,2,3.928955078,-0.393768311,1,0,0,rectangle,3.928955078,-0.393768311,1,0,0,3.928955078,-0.393768311,1,0,0,0,66,66,105,1,,,,,,,,
,,,,,,,,,,,,,FF,,,,,,,,1.9371,,,,,,,,,,,,,,,,,,,,,,60fcb26677a917ac1dd40513,610378be074830d07694c423,2021-07-29_20h58.49.250,Simcolourproject_2stim_asymm_v5,2020.2.10,MacIntel,60,61025ae37ef11b136ea224fe,,,,,,,,,1227,-43.5479126,-65.38034058,1,0,0,response5disk,,3,-12.61993408,3.893249512,1,0,0,rectangle,-12.61993408,3.893249512,1,0,0,-12.61993408,3.893249512,1,0,0,0,67,67,52,1,,,,,,,,
,,,,,,,,,,,,,FF,,,,,,,,1.9668,,,,,,,,,,,,,,,,,,,,,,60fcb26677a917ac1dd40513,610378be074830d07694c423,2021-07-29_20h58.49.250,Simcolourproject_2stim_asymm_v5,2020.2.10,MacIntel,60,61025ae37ef11b136ea224fe,,,,,,,,,3737,53.04315186,-31.62142944,1,0,0,response3disk,,5,4.317626953,-14.83813477,1,0,0,rectangle,4.317626953,-14.83813477,1,0,0,4.317626953,-14.83813477,1,0,0,0,68,68,80,1,,,,,,,,
,,,,,,,,,,,,,FF,,,,,,,,1.1332,,,,,,,,,,,,,,,,,,,,,,60fcb26677a917ac1dd40513,610378be074830d07694c423,2021-07-29_20h58.49.250,Simcolourproject_2stim_asymm_v5,2020.2.10,MacIntel,60,61025ae37ef11b136ea224fe,,,,,,,,,1714,79.47949219,44.00842285,1,0,0,response1disk,,6,8.477905273,4.994628906,1,0,0,rectangle,8.477905273,4.994628906,1,0,0,8.477905273,4.994628906,1,0,0,0,69,69,45,1,,,,,,,,
,,,,,,,,,,,,,FF,,,,,,,,4.0357,,,,,,,,,,,,,,,,,,,,,,60fcb26677a917ac1dd40513,610378be074830d07694c423,2021-07-29_20h58.49.250,Simcolourproject_2stim_asymm_v5,2020.2.10,MacIntel,60,61025ae37ef11b136ea224fe,,,,,,,,,140,67.82336426,-36.47113037,1,0,0,response3disk,,5,23.66467285,-7.860534668,1,0,0,rectangle,23.66467285,-7.860534668,1,0,0,23.66467285,-7.860534668,1,0,0,0,70,70,111,1,,,,,,,,
,,,,,,,,,,,,,FF,,,,,,,,2.0023,,,,,,,,,,,,,,,,,,,,,,60fcb26677a917ac1dd40513,610378be074830d07694c423,2021-07-29_20h58.49.250,Simcolourproject_2stim_asymm_v5,2020.2.10,MacIntel,60,61025ae37ef11b136ea224fe,,,,,,,,,3255,-20.79833984,-66.59069824,1,0,0,response5disk,,3,4.492492676,2.127563477,1,0,0,rectangle,81.82421875,50.88708496,1,0,0,-0.189208984,-10.02331543,1,0,0,0,71,71,152,1,,response1disk_3,TRUE,6,6,"[170,134,202,132,246,104,125,176,255,9,72,59,26,233,49,194,135,154,13,102]",1.2999,rectangle
,,,,,,,,,,,,,FF,,,,,,,,1.2171,,,,,,,,,,,,,,,,,,,,,,60fcb26677a917ac1dd40513,610378be074830d07694c423,2021-07-29_20h58.49.250,Simcolourproject_2stim_asymm_v5,2020.2.10,MacIntel,60,61025ae37ef11b136ea224fe,,,,,,,,,2987,-72.99346924,-36.28646851,1,0,0,response5disk,,2,-6.125976563,-11.89489746,1,0,0,rectangle,-6.125976563,-11.89489746,1,0,0,-6.125976563,-11.89489746,1,0,0,0,72,72,135,1,,,,,,,,
,,,,,,,,,,,,,FF,,,,,,,,2.0355,,,,,,,,,,,,,,,,,,,,,,60fcb26677a917ac1dd40513,610378be074830d07694c423,2021-07-29_20h58.49.250,Simcolourproject_2stim_asymm_v5,2020.2.10,MacIntel,60,61025ae37ef11b136ea224fe,,,,,,,,,1745,-66.21154785,22.76739502,1,0,0,response7disk,,1,-9.840759277,4.093811035,1,0,0,rectangle,-9.840759277,4.093811035,1,0,0,-9.840759277,4.093811035,1,0,0,0,73,73,140,1,,,,,,,,
,,,,,,,,,,,,,FF,,,,,,,,1.2343,,,,,,,,,,,,,,,,,,,,,,60fcb26677a917ac1dd40513,610378be074830d07694c423,2021-07-29_20h58.49.250,Simcolourproject_2stim_asymm_v5,2020.2.10,MacIntel,60,61025ae37ef11b136ea224fe,,,,,,,,,2082,83.17236328,43.31634521,1,0,0,response1disk,,6,5.80871582,7.642883301,1,0,0,rectangle,5.80871582,7.642883301,1,0,0,5.80871582,7.642883301,1,0,0,0,74,74,17,1,,,,,,,,
,,,,,,,,,,,,,FF,,,,,,,,2.8016,,,,,,,,,,,,,,,,,,,,,,60fcb26677a917ac1dd40513,610378be074830d07694c423,2021-07-29_20h58.49.250,Simcolourproject_2stim_asymm_v5,2020.2.10,MacIntel,60,61025ae37ef11b136ea224fe,,,,,,,,,3949,38.88543701,-57.7555542,1,0,0,response3disk,,4,4.759033203,-4.607727051,1,0,0,rectangle,4.759033203,-4.607727051,1,0,0,4.759033203,-4.607727051,1,0,0,0,75,75,44,1,,,,,,,,
,,,,,,,,,,,,,FF,,,,,,,,0.8325,,,,,,,,,,,,,,,,,,,,,,60fcb26677a917ac1dd40513,610378be074830d07694c423,2021-07-29_20h58.49.250,Simcolourproject_2stim_asymm_v5,2020.2.10,MacIntel,60,61025ae37ef11b136ea224fe,,,,,,,,,3584,-33.32250977,-61.09390259,1,0,0,response5disk,,3,-18.31982422,-6.209838867,1,0,0,rectangle,-18.31982422,-6.209838867,1,0,0,-18.31982422,-6.209838867,1,0,0,0,76,76,46,1,,,,,,,,
,,,,,,,,,,,,,FF,,,,,,,,1.4013,,,,,,,,,,,,,,,,,,,,,,60fcb26677a917ac1dd40513,610378be074830d07694c423,2021-07-29_20h58.49.250,Simcolourproject_2stim_asymm_v5,2020.2.10,MacIntel,60,61025ae37ef11b136ea224fe,,,,,,,,,4276,24.6373291,-61.39776611,1,0,0,response3disk,,4,9.368347168,3.349182129,1,0,0,rectangle,9.368347168,3.349182129,1,0,0,9.368347168,3.349182129,1,0,0,0,77,77,81,1,,,,,,,,
,,,,,,,,,,,,,FF,,,,,,,,1.283,,,,,,,,,,,,,,,,,,,,,,60fcb26677a917ac1dd40513,610378be074830d07694c423,2021-07-29_20h58.49.250,Simcolourproject_2stim_asymm_v5,2020.2.10,MacIntel,60,61025ae37ef11b136ea224fe,,,,,,,,,3705,-31.77587891,85.11090088,1,0,0,response7disk,,0,5.499328613,-1.762451172,1,0,0,rectangle,5.499328613,-1.762451172,1,0,0,5.499328613,-1.762451172,1,0,0,0,78,78,99,1,,,,,,,,
,,,,,,,,,,,,,FF,,,,,,,,2.8013,,,,,,,,,,,,,,,,,,,,,,60fcb26677a917ac1dd40513,610378be074830d07694c423,2021-07-29_20h58.49.250,Simcolourproject_2stim_asymm_v5,2020.2.10,MacIntel,60,61025ae37ef11b136ea224fe,,,,,,,,,1107,-30.64343262,-67.23046875,1,0,0,response5disk,,3,1.226013184,-1.928344727,1,0,0,rectangle,1.226013184,-1.928344727,1,0,0,1.226013184,-1.928344727,1,0,0,0,79,79,33,1,,,,,,,,
,,,,,,,,,,,,,FF,,,,,,,,1.6349,,,,,,,,,,,,,,,,,,,,,,60fcb26677a917ac1dd40513,610378be074830d07694c423,2021-07-29_20h58.49.250,Simcolourproject_2stim_asymm_v5,2020.2.10,MacIntel,60,61025ae37ef11b136ea224fe,,,,,,,,,2289,-22.30474854,-63.07067871,1,0,0,response5disk,,3,-2.615722656,-1.638366699,1,0,0,rectangle,-2.615722656,-1.638366699,1,0,0,-2.615722656,-1.638366699,1,0,0,0,80,80,26,1,,,,,,,,
,,,,,,,,,,,,,FF,,,,,,,,1.0009,,,,,,,,,,,,,,,,,,,,,,60fcb26677a917ac1dd40513,610378be074830d07694c423,2021-07-29_20h58.49.250,Simcolourproject_2stim_asymm_v5,2020.2.10,MacIntel,60,61025ae37ef11b136ea224fe,,,,,,,,,4171,-26.10437012,-46.31613159,1,0,0,response5disk,,3,-6.080627441,4.687927246,1,0,0,rectangle,-6.080627441,4.687927246,1,0,0,-6.080627441,4.687927246,1,0,0,0,81,81,64,1,,,,,,,,
,,,,,,,,,,,,,FF,,,,,,,,0.9675,,,,,,,,,,,,,,,,,,,,,,60fcb26677a917ac1dd40513,610378be074830d07694c423,2021-07-29_20h58.49.250,Simcolourproject_2stim_asymm_v5,2020.2.10,MacIntel,60,61025ae37ef11b136ea224fe,,,,,,,,,539,57.86889648,-37.59338379,1,0,0,response3disk,,5,7.303344727,-9.359283447,1,0,0,rectangle,7.303344727,-9.359283447,1,0,0,7.303344727,-9.359283447,1,0,0,0,82,82,50,1,,,,,,,,
,,,,,,,,,,,,,FF,,,,,,,,0.9164,,,,,,,,,,,,,,,,,,,,,,60fcb26677a917ac1dd40513,610378be074830d07694c423,2021-07-29_20h58.49.250,Simcolourproject_2stim_asymm_v5,2020.2.10,MacIntel,60,61025ae37ef11b136ea224fe,,,,,,,,,3447,57.91290283,-25.27996826,1,0,0,response3disk,,5,8,2.879394531,1,0,0,rectangle,8,2.879394531,1,0,0,8,2.879394531,1,0,0,0,83,83,31,1,,,,,,,,
,,,,,,,,,,,,,FF,,,,,,,,0.968,,,,,,,,,,,,,,,,,,,,,,60fcb26677a917ac1dd40513,610378be074830d07694c423,2021-07-29_20h58.49.250,Simcolourproject_2stim_asymm_v5,2020.2.10,MacIntel,60,61025ae37ef11b136ea224fe,,,,,,,,,1140,50.5489502,-34.66912842,1,0,0,response3disk,,5,2.975830078,-4.921386719,1,0,0,rectangle,2.975830078,-4.921386719,1,0,0,2.975830078,-4.921386719,1,0,0,0,84,84,148,1,,,,,,,,
,,,,,,,,,,,,,FF,,,,,,,,1.2001,,,,,,,,,,,,,,,,,,,,,,60fcb26677a917ac1dd40513,610378be074830d07694c423,2021-07-29_20h58.49.250,Simcolourproject_2stim_asymm_v5,2020.2.10,MacIntel,60,61025ae37ef11b136ea224fe,,,,,,,,,3081,75.26019287,29.53735352,1,0,0,response1disk,,6,13.777771,8.789001465,1,0,0,rectangle,13.777771,8.789001465,1,0,0,13.777771,8.789001465,1,0,0,0,85,85,91,1,,,,,,,,
,,,,,,,,,,,,,FF,,,,,,,,1.3856,,,,,,,,,,,,,,,,,,,,,,60fcb26677a917ac1dd40513,610378be074830d07694c423,2021-07-29_20h58.49.250,Simcolourproject_2stim_asymm_v5,2020.2.10,MacIntel,60,61025ae37ef11b136ea224fe,,,,,,,,,1582,-24.32562256,-72.99707031,1,0,0,response5disk,,3,2.41595459,-11.06304932,1,0,0,rectangle,2.41595459,-11.06304932,1,0,0,2.41595459,-11.06304932,1,0,0,0,86,86,139,1,,,,,,,,
,,,,,,,,,,,,,FF,,,,,,,,2.5684,,,,,,,,,,,,,,,,,,,,,,60fcb26677a917ac1dd40513,610378be074830d07694c423,2021-07-29_20h58.49.250,Simcolourproject_2stim_asymm_v5,2020.2.10,MacIntel,60,61025ae37ef11b136ea224fe,,,,,,,,,3480,25.45849609,-80.9307251,1,0,0,response3disk,,4,-2.346069336,-5.694213867,1,0,0,rectangle,-2.346069336,-5.694213867,1,0,0,-2.346069336,-5.694213867,1,0,0,0,87,87,97,1,,,,,,,,
,,,,,,,,,,,,,FF,,,,,,,,1.6012,,,,,,,,,,,,,,,,,,,,,,60fcb26677a917ac1dd40513,610378be074830d07694c423,2021-07-29_20h58.49.250,Simcolourproject_2stim_asymm_v5,2020.2.10,MacIntel,60,61025ae37ef11b136ea224fe,,,,,,,,,2531,68.32159424,24.14056396,1,0,0,response1disk,,6,-4.943237305,-1.547302246,1,0,0,rectangle,-4.943237305,-1.547302246,1,0,0,-4.943237305,-1.547302246,1,0,0,0,88,88,74,1,,,,,,,,
,,,,,,,,,,,,,FF,,,,,,,,1.7835,,,,,,,,,,,,,,,,,,,,,,60fcb26677a917ac1dd40513,610378be074830d07694c423,2021-07-29_20h58.49.250,Simcolourproject_2stim_asymm_v5,2020.2.10,MacIntel,60,61025ae37ef11b136ea224fe,,,,,,,,,2085,55.75048828,-37.77203369,1,0,0,response3disk,,5,4.418945313,-2.223815918,1,0,0,rectangle,4.418945313,-2.223815918,1,0,0,4.418945313,-2.223815918,1,0,0,0,89,89,131,1,,,,,,,,
,,,,,,,,,,,,,FF,,,,,,,,1.0984,,,,,,,,,,,,,,,,,,,,,,60fcb26677a917ac1dd40513,610378be074830d07694c423,2021-07-29_20h58.49.250,Simcolourproject_2stim_asymm_v5,2020.2.10,MacIntel,60,61025ae37ef11b136ea224fe,,,,,,,,,2386,54.3548584,-33.12524414,1,0,0,response3disk,,5,12.50274658,-13.71078491,1,0,0,rectangle,12.50274658,-13.71078491,1,0,0,12.50274658,-13.71078491,1,0,0,0,90,90,8,1,,,,,,,,
,,,,,,,,,,,,,FF,,,,,,,,0.8504,,,,,,,,,,,,,,,,,,,,,,60fcb26677a917ac1dd40513,610378be074830d07694c423,2021-07-29_20h58.49.250,Simcolourproject_2stim_asymm_v5,2020.2.10,MacIntel,60,61025ae37ef11b136ea224fe,,,,,,,,,2803,40.5838623,-24.97302246,1,0,0,response3disk,,5,3.420349121,-0.724273682,1,0,0,rectangle,3.420349121,-0.724273682,1,0,0,3.420349121,-0.724273682,1,0,0,0,91,91,158,1,,,,,,,,
,,,,,,,,,,,,,FF,,,,,,,,1.7564,,,,,,,,,,,,,,,,,,,,,,60fcb26677a917ac1dd40513,610378be074830d07694c423,2021-07-29_20h58.49.250,Simcolourproject_2stim_asymm_v5,2020.2.10,MacIntel,60,61025ae37ef11b136ea224fe,,,,,,,,,1400,37.81524658,-51.8394165,1,0,0,response3disk,,4,5.266479492,-6.269256592,1,0,0,rectangle,5.266479492,-6.269256592,1,0,0,5.266479492,-6.269256592,1,0,0,0,92,92,129,1,,,,,,,,
,,,,,,,,,,,,,FF,,,,,,,,1.2028,,,,,,,,,,,,,,,,,,,,,,60fcb26677a917ac1dd40513,610378be074830d07694c423,2021-07-29_20h58.49.250,Simcolourproject_2stim_asymm_v5,2020.2.10,MacIntel,60,61025ae37ef11b136ea224fe,,,,,,,,,2845,23.7277832,-75.74615479,1,0,0,response3disk,,4,1.806762695,-6.787963867,1,0,0,rectangle,1.806762695,-6.787963867,1,0,0,1.806762695,-6.787963867,1,0,0,0,93,93,61,1,,,,,,,,
,,,,,,,,,,,,,FF,,,,,,,,0.9002,,,,,,,,,,,,,,,,,,,,,,60fcb26677a917ac1dd40513,610378be074830d07694c423,2021-07-29_20h58.49.250,Simcolourproject_2stim_asymm_v5,2020.2.10,MacIntel,60,61025ae37ef11b136ea224fe,,,,,,,,,159,17.23406982,-66.80352783,1,0,0,response3disk,,4,-0.639404297,-0.947814941,1,0,0,rectangle,-0.639404297,-0.947814941,1,0,0,-0.639404297,-0.947814941,1,0,0,0,94,94,150,1,,,,,,,,
,,,,,,,,,,,,,FF,,,,,,,,4.1518,,,,,,,,,,,,,,,,,,,,,,60fcb26677a917ac1dd40513,610378be074830d07694c423,2021-07-29_20h58.49.250,Simcolourproject_2stim_asymm_v5,2020.2.10,MacIntel,60,61025ae37ef11b136ea224fe,,,,,,,,,2533,-39.40081787,-73.52536011,1,0,0,response5disk,,3,-17.25231934,-11.60848999,1,0,0,rectangle,-17.25231934,-11.60848999,1,0,0,-17.25231934,-11.60848999,1,0,0,0,95,95,56,1,,,,,,,,
,,,,,,,,,,,,,FF,,,,,,,,0.7505,,,,,,,,,,,,,,,,,,,,,,60fcb26677a917ac1dd40513,610378be074830d07694c423,2021-07-29_20h58.49.250,Simcolourproject_2stim_asymm_v5,2020.2.10,MacIntel,60,61025ae37ef11b136ea224fe,,,,,,,,,2310,31.43676758,-72.12564087,1,0,0,response3disk,,4,9.834838867,5.917785645,1,0,0,rectangle,9.834838867,5.917785645,1,0,0,9.834838867,5.917785645,1,0,0,0,96,96,72,1,,,,,,,,
,,,,,,,,,,,,,FF,,,,,,,,3.3852,,,,,,,,,,,,,,,,,,,,,,60fcb26677a917ac1dd40513,610378be074830d07694c423,2021-07-29_20h58.49.250,Simcolourproject_2stim_asymm_v5,2020.2.10,MacIntel,60,61025ae37ef11b136ea224fe,,,,,,,,,2227,-81.59375,21.70147705,1,0,0,response7disk,,1,5.489562988,2.695678711,1,0,0,rectangle,5.489562988,2.695678711,1,0,0,5.489562988,2.695678711,1,0,0,0,97,97,16,1,,,,,,,,
,,,,,,,,,,,,,FF,,,,,,,,1.4513,,,,,,,,,,,,,,,,,,,,,,60fcb26677a917ac1dd40513,610378be074830d07694c423,2021-07-29_20h58.49.250,Simcolourproject_2stim_asymm_v5,2020.2.10,MacIntel,60,61025ae37ef11b136ea224fe,,,,,,,,,506,79.93121338,22.95910645,1,0,0,response1disk,,6,-3.319213867,7.582275391,1,0,0,rectangle,-3.319213867,7.582275391,1,0,0,-3.319213867,7.582275391,1,0,0,0,98,98,59,1,,,,,,,,
,,,,,,,,,,,,,FF,,,,,,,,1.3833,,,,,,,,,,,,,,,,,,,,,,60fcb26677a917ac1dd40513,610378be074830d07694c423,2021-07-29_20h58.49.250,Simcolourproject_2stim_asymm_v5,2020.2.10,MacIntel,60,61025ae37ef11b136ea224fe,,,,,,,,,2314,33.66802979,-49.56671143,1,0,0,response3disk,,4,10.63146973,-4.790283203,1,0,0,rectangle,10.63146973,-4.790283203,1,0,0,10.63146973,-4.790283203,1,0,0,0,99,99,112,1,,,,,,,,
,,,,,,,,,,,,,FF,,,,,,,,0.8832,,,,,,,,,,,,,,,,,,,,,,60fcb26677a917ac1dd40513,610378be074830d07694c423,2021-07-29_20h58.49.250,Simcolourproject_2stim_asymm_v5,2020.2.10,MacIntel,60,61025ae37ef11b136ea224fe,,,,,,,,,1747,-50.44317627,-20.80511475,1,0,0,response5disk,,2,-13.80279541,-5.104919434,1,0,0,rectangle,-13.80279541,-5.104919434,1,0,0,-13.80279541,-5.104919434,1,0,0,0,100,100,32,1,,,,,,,,
,,,,,,,,,,,,,FF,,,,,,,,1.0849,,,,,,,,,,,,,,,,,,,,,,60fcb26677a917ac1dd40513,610378be074830d07694c423,2021-07-29_20h58.49.250,Simcolourproject_2stim_asymm_v5,2020.2.10,MacIntel,60,61025ae37ef11b136ea224fe,,,,,,,,,1374,31.38153076,-66.72198486,1,0,0,response3disk,,4,6.16015625,-13.19119263,1,0,0,rectangle,-35.168396,85.64801025,1,0,0,1.537475586,-1.298797607,1,0,0,0,101,101,22,1,,response7disk_3,TRUE,0,0,"[170,134,202,132,246,104,125,176,255,9,72,59,26,233,49,194,135,154,13,102]",1.434,rectangle
,,,,,,,,,,,,,FF,,,,,,,,1.1336,,,,,,,,,,,,,,,,,,,,,,60fcb26677a917ac1dd40513,610378be074830d07694c423,2021-07-29_20h58.49.250,Simcolourproject_2stim_asymm_v5,2020.2.10,MacIntel,60,61025ae37ef11b136ea224fe,,,,,,,,,1258,69.94885254,29.53063965,1,0,0,response1disk,,6,-3.69708252,4.937042236,1,0,0,rectangle,-3.69708252,4.937042236,1,0,0,-3.69708252,4.937042236,1,0,0,0,102,102,138,1,,,,,,,,
,,,,,,,,,,,,,FF,,,,,,,,0.7666,,,,,,,,,,,,,,,,,,,,,,60fcb26677a917ac1dd40513,610378be074830d07694c423,2021-07-29_20h58.49.250,Simcolourproject_2stim_asymm_v5,2020.2.10,MacIntel,60,61025ae37ef11b136ea224fe,,,,,,,,,3533,65.12298584,26.62149048,1,0,0,response1disk,,6,0.589416504,-1.390594482,1,0,0,rectangle,46.07055664,71.48138428,1,0,0,15.20355225,-10.19317627,1,0,0,0,103,103,130,1,,response1disk_3,TRUE,7,7,"[170,134,202,132,246,104,125,176,255,9,72,59,26,233,49,194,135,154,13,102]",1.3022,rectangle
,,,,,,,,,,,,,FF,,,,,,,,3.3011,,,,,,,,,,,,,,,,,,,,,,60fcb26677a917ac1dd40513,610378be074830d07694c423,2021-07-29_20h58.49.250,Simcolourproject_2stim_asymm_v5,2020.2.10,MacIntel,60,61025ae37ef11b136ea224fe,,,,,,,,,1323,74.89331055,-28.08166504,1,0,0,response3disk,,5,4.071899414,-4.551513672,1,0,0,rectangle,4.071899414,-4.551513672,1,0,0,4.071899414,-4.551513672,1,0,0,0,104,104,141,1,,,,,,,,
,,,,,,,,,,,,,FF,,,,,,,,1.2997,,,,,,,,,,,,,,,,,,,,,,60fcb26677a917ac1dd40513,610378be074830d07694c423,2021-07-29_20h58.49.250,Simcolourproject_2stim_asymm_v5,2020.2.10,MacIntel,60,61025ae37ef11b136ea224fe,,,,,,,,,2418,-23.22167969,43.11645508,1,0,0,response7disk,,0,-3.615539551,-3.932952881,1,0,0,rectangle,-3.615539551,-3.932952881,1,0,0,-3.615539551,-3.932952881,1,0,0,0,105,105,156,1,,,,,,,,
,,,,,,,,,,,,,FF,,,,,,,,2.1838,,,,,,,,,,,,,,,,,,,,,,60fcb26677a917ac1dd40513,610378be074830d07694c423,2021-07-29_20h58.49.250,Simcolourproject_2stim_asymm_v5,2020.2.10,MacIntel,60,61025ae37ef11b136ea224fe,,,,,,,,,2686,60.73712158,-53.25149536,1,0,0,response3disk,,5,0.628479004,2.424468994,1,0,0,rectangle,0.628479004,2.424468994,1,0,0,0.628479004,2.424468994,1,0,0,0,106,106,9,1,,,,,,,,
,,,,,,,,,,,,,FF,,,,,,,,1.1874,,,,,,,,,,,,,,,,,,,,,,60fcb26677a917ac1dd40513,610378be074830d07694c423,2021-07-29_20h58.49.250,Simcolourproject_2stim_asymm_v5,2020.2.10,MacIntel,60,61025ae37ef11b136ea224fe,,,,,,,,,1070,-55.18170166,-34.24755859,1,0,0,response5disk,,2,-6.529602051,-15.29321289,1,0,0,rectangle,-6.529602051,-15.29321289,1,0,0,-6.529602051,-15.29321289,1,0,0,0,107,107,13,1,,,,,,,,
,,,,,,,,,,,,,FF,,,,,,,,0.8369,,,,,,,,,,,,,,,,,,,,,,60fcb26677a917ac1dd40513,610378be074830d07694c423,2021-07-29_20h58.49.250,Simcolourproject_2stim_asymm_v5,2020.2.10,MacIntel,60,61025ae37ef11b136ea224fe,,,,,,,,,466,-36.04296875,-62.47259521,1,0,0,response5disk,,3,-7.010131836,-2.670074463,1,0,0,rectangle,-7.010131836,-2.670074463,1,0,0,-7.010131836,-2.670074463,1,0,0,0,108,108,39,1,,,,,,,,
,,,,,,,,,,,,,FF,,,,,,,,1.2517,,,,,,,,,,,,,,,,,,,,,,60fcb26677a917ac1dd40513,610378be074830d07694c423,2021-07-29_20h58.49.250,Simcolourproject_2stim_asymm_v5,2020.2.10,MacIntel,60,61025ae37ef11b136ea224fe,,,,,,,,,1953,25.6072998,-69.85137939,1,0,0,response3disk,,4,-2.163513184,-4.279174805,1,0,0,rectangle,-2.163513184,-4.279174805,1,0,0,-2.163513184,-4.279174805,1,0,0,0,109,109,96,1,,,,,,,,
,,,,,,,,,,,,,FF,,,,,,,,0.9843,,,,,,,,,,,,,,,,,,,,,,60fcb26677a917ac1dd40513,610378be074830d07694c423,2021-07-29_20h58.49.250,Simcolourproject_2stim_asymm_v5,2020.2.10,MacIntel,60,61025ae37ef11b136ea224fe,,,,,,,,,2075,76.54083252,44.765625,1,0,0,response1disk,,6,8.596374512,3.242431641,1,0,0,rectangle,8.596374512,3.242431641,1,0,0,8.596374512,3.242431641,1,0,0,0,110,110,100,1,,,,,,,,
,,,,,,,,,,,,,FF,,,,,,,,0.8845,,,,,,,,,,,,,,,,,,,,,,60fcb26677a917ac1dd40513,610378be074830d07694c423,2021-07-29_20h58.49.250,Simcolourproject_2stim_asymm_v5,2020.2.10,MacIntel,60,61025ae37ef11b136ea224fe,,,,,,,,,1471,53.59063721,-23.37683105,1,0,0,response3disk,,5,17.58337402,-9.12097168,1,0,0,rectangle,17.58337402,-9.12097168,1,0,0,17.58337402,-9.12097168,1,0,0,0,111,111,49,1,,,,,,,,
,,,,,,,,,,,,,FF,,,,,,,,1.4166,,,,,,,,,,,,,,,,,,,,,,60fcb26677a917ac1dd40513,610378be074830d07694c423,2021-07-29_20h58.49.250,Simcolourproject_2stim_asymm_v5,2020.2.10,MacIntel,60,61025ae37ef11b136ea224fe,,,,,,,,,3640,66.19641113,18.15026855,1,0,0,response1disk,,6,-0.701782227,-0.527069092,1,0,0,rectangle,-0.701782227,-0.527069092,1,0,0,-0.701782227,-0.527069092,1,0,0,0,112,112,157,1,,,,,,,,
,,,,,,,,,,,,,FF,,,,,,,,1.4024,,,,,,,,,,,,,,,,,,,,,,60fcb26677a917ac1dd40513,610378be074830d07694c423,2021-07-29_20h58.49.250,Simcolourproject_2stim_asymm_v5,2020.2.10,MacIntel,60,61025ae37ef11b136ea224fe,,,,,,,,,2338,76.8807373,32.50823975,1,0,0,response1disk,,6,5.63067627,1.148864746,1,0,0,rectangle,5.63067627,1.148864746,1,0,0,5.63067627,1.148864746,1,0,0,0,113,113,104,1,,,,,,,,
,,,,,,,,,,,,,FF,,,,,,,,1.0832,,,,,,,,,,,,,,,,,,,,,,60fcb26677a917ac1dd40513,610378be074830d07694c423,2021-07-29_20h58.49.250,Simcolourproject_2stim_asymm_v5,2020.2.10,MacIntel,60,61025ae37ef11b136ea224fe,,,,,,,,,3583,-34.69415283,-55.06045532,1,0,0,response5disk,,3,0.117004395,-5.405639648,1,0,0,rectangle,0.117004395,-5.405639648,1,0,0,0.117004395,-5.405639648,1,0,0,0,114,114,79,1,,,,,,,,
,,,,,,,,,,,,,FF,,,,,,,,2.5518,,,,,,,,,,,,,,,,,,,,,,60fcb26677a917ac1dd40513,610378be074830d07694c423,2021-07-29_20h58.49.250,Simcolourproject_2stim_asymm_v5,2020.2.10,MacIntel,60,61025ae37ef11b136ea224fe,,,,,,,,,2028,-69.67431641,-51.85394287,1,0,0,response5disk,,2,3.378417969,-4.148223877,1,0,0,rectangle,3.378417969,-4.148223877,1,0,0,3.378417969,-4.148223877,1,0,0,0,115,115,60,1,,,,,,,,
,,,,,,,,,,,,,FF,,,,,,,,3.501,,,,,,,,,,,,,,,,,,,,,,60fcb26677a917ac1dd40513,610378be074830d07694c423,2021-07-29_20h58.49.250,Simcolourproject_2stim_asymm_v5,2020.2.10,MacIntel,60,61025ae37ef11b136ea224fe,,,,,,,,,4315,43.42352295,-35.20773315,1,0,0,response3disk,,5,15.78967285,-3.930145264,1,0,0,rectangle,15.78967285,-3.930145264,1,0,0,15.78967285,-3.930145264,1,0,0,0,116,116,123,1,,,,,,,,
,,,,,,,,,,,,,FF,,,,,,,,0.9027,,,,,,,,,,,,,,,,,,,,,,60fcb26677a917ac1dd40513,610378be074830d07694c423,2021-07-29_20h58.49.250,Simcolourproject_2stim_asymm_v5,2020.2.10,MacIntel,60,61025ae37ef11b136ea224fe,,,,,,,,,1867,26.04858398,-56.0788269,1,0,0,response3disk,,4,4.045654297,-2.154602051,1,0,0,rectangle,4.045654297,-2.154602051,1,0,0,4.045654297,-2.154602051,1,0,0,0,117,117,30,1,,,,,,,,
,,,,,,,,,,,,,FF,,,,,,,,0.8512,,,,,,,,,,,,,,,,,,,,,,60fcb26677a917ac1dd40513,610378be074830d07694c423,2021-07-29_20h58.49.250,Simcolourproject_2stim_asymm_v5,2020.2.10,MacIntel,60,61025ae37ef11b136ea224fe,,,,,,,,,127,59.52978516,-27.27825928,1,0,0,response3disk,,5,6.009521484,-5.025024414,1,0,0,rectangle,6.009521484,-5.025024414,1,0,0,6.009521484,-5.025024414,1,0,0,0,118,118,94,1,,,,,,,,
,,,,,,,,,,,,,FF,,,,,,,,0.7014,,,,,,,,,,,,,,,,,,,,,,60fcb26677a917ac1dd40513,610378be074830d07694c423,2021-07-29_20h58.49.250,Simcolourproject_2stim_asymm_v5,2020.2.10,MacIntel,60,61025ae37ef11b136ea224fe,,,,,,,,,392,58.86206055,-40.64654541,1,0,0,response3disk,,5,5.260314941,-1.919494629,1,0,0,rectangle,5.260314941,-1.919494629,1,0,0,5.260314941,-1.919494629,1,0,0,0,119,119,77,1,,,,,,,,
,,,,,,,,,,,,,FF,,,,,,,,1.6504,,,,,,,,,,,,,,,,,,,,,,60fcb26677a917ac1dd40513,610378be074830d07694c423,2021-07-29_20h58.49.250,Simcolourproject_2stim_asymm_v5,2020.2.10,MacIntel,60,61025ae37ef11b136ea224fe,,,,,,,,,1683,-83.28735352,-34.14135742,1,0,0,response5disk,,2,1.485351563,-2.220581055,1,0,0,rectangle,1.485351563,-2.220581055,1,0,0,1.485351563,-2.220581055,1,0,0,0,120,120,15,1,,,,,,,,
,,,,,,,,,,,,,FF,,,,,,,,2.217,,,,,,,,,,,,,,,,,,,,,,60fcb26677a917ac1dd40513,610378be074830d07694c423,2021-07-29_20h58.49.250,Simcolourproject_2stim_asymm_v5,2020.2.10,MacIntel,60,61025ae37ef11b136ea224fe,,,,,,,,,2990,-60.33258057,-34.88912964,1,0,0,response5disk,,2,-9.9453125,-13.23666382,1,0,0,rectangle,-9.9453125,-13.23666382,1,0,0,-9.9453125,-13.23666382,1,0,0,0,121,121,118,1,,,,,,,,
,,,,,,,,,,,,,FF,,,,,,,,0.9166,,,,,,,,,,,,,,,,,,,,,,60fcb26677a917ac1dd40513,610378be074830d07694c423,2021-07-29_20h58.49.250,Simcolourproject_2stim_asymm_v5,2020.2.10,MacIntel,60,61025ae37ef11b136ea224fe,,,,,,,,,3888,28.84967041,-69.17715454,1,0,0,response3disk,,4,3.786193848,-2.727325439,1,0,0,rectangle,3.786193848,-2.727325439,1,0,0,3.786193848,-2.727325439,1,0,0,0,122,122,121,1,,,,,,,,
,,,,,,,,,,,,,FF,,,,,,,,1.0666,,,,,,,,,,,,,,,,,,,,,,60fcb26677a917ac1dd40513,610378be074830d07694c423,2021-07-29_20h58.49.250,Simcolourproject_2stim_asymm_v5,2020.2.10,MacIntel,60,61025ae37ef11b136ea224fe,,,,,,,,,1571,83.94281006,26.79956055,1,0,0,response1disk,,6,15.72509766,-12.21636963,1,0,0,rectangle,15.72509766,-12.21636963,1,0,0,15.72509766,-12.21636963,1,0,0,0,123,123,116,1,,,,,,,,
,,,,,,,,,,,,,FF,,,,,,,,1.401,,,,,,,,,,,,,,,,,,,,,,60fcb26677a917ac1dd40513,610378be074830d07694c423,2021-07-29_20h58.49.250,Simcolourproject_2stim_asymm_v5,2020.2.10,MacIntel,60,61025ae37ef11b136ea224fe,,,,,,,,,4156,73.11688232,54.24264526,1,0,0,response1disk,,6,-2.522277832,-5.823974609,1,0,0,rectangle,-25.28594971,-71.72271729,1,0,0,7.045593262,-2.795410156,1,0,0,0,124,124,68,1,,response5disk_3,TRUE,3,3,"[170,134,202,132,246,104,125,176,255,9,72,59,26,233,49,194,135,154,13,102]",2.1183,rectangle
,,,,,,,,,,,,,FF,,,,,,,,1.5538,,,,,,,,,,,,,,,,,,,,,,60fcb26677a917ac1dd40513,610378be074830d07694c423,2021-07-29_20h58.49.250,Simcolourproject_2stim_asymm_v5,2020.2.10,MacIntel,60,61025ae37ef11b136ea224fe,,,,,,,,,2231,-24.42138672,-55.10931396,1,0,0,response5disk,,3,-6.453491211,-12.01980591,1,0,0,rectangle,-6.453491211,-12.01980591,1,0,0,-6.453491211,-12.01980591,1,0,0,0,125,125,24,1,,,,,,,,
,,,,,,,,,,,,,FF,,,,,,,,1.283,,,,,,,,,,,,,,,,,,,,,,60fcb26677a917ac1dd40513,610378be074830d07694c423,2021-07-29_20h58.49.250,Simcolourproject_2stim_asymm_v5,2020.2.10,MacIntel,60,61025ae37ef11b136ea224fe,,,,,,,,,3538,44.75012207,74.4914856,1,0,0,response1disk,,7,5.589477539,1.285705566,1,0,0,rectangle,5.589477539,1.285705566,1,0,0,5.589477539,1.285705566,1,0,0,0,126,126,107,1,,,,,,,,
,,,,,,,,,,,,,FF,,,,,,,,1.4679,,,,,,,,,,,,,,,,,,,,,,60fcb26677a917ac1dd40513,610378be074830d07694c423,2021-07-29_20h58.49.250,Simcolourproject_2stim_asymm_v5,2020.2.10,MacIntel,60,61025ae37ef11b136ea224fe,,,,,,,,,3257,68.25866699,19.37176514,1,0,0,response1disk,,6,1.495361328,-9.238952637,1,0,0,rectangle,1.495361328,-9.238952637,1,0,0,1.495361328,-9.238952637,1,0,0,0,127,127,47,1,,,,,,,,
,,,,,,,,,,,,,FF,,,,,,,,2.1002,,,,,,,,,,,,,,,,,,,,,,60fcb26677a917ac1dd40513,610378be074830d07694c423,2021-07-29_20h58.49.250,Simcolourproject_2stim_asymm_v5,2020.2.10,MacIntel,60,61025ae37ef11b136ea224fe,,,,,,,,,1485,99.34881592,46.35876465,1,0,0,response1disk,,6,1.978881836,8.036987305,1,0,0,rectangle,1.978881836,8.036987305,1,0,0,1.978881836,8.036987305,1,0,0,0,128,128,134,1,,,,,,,,
,,,,,,,,,,,,,FF,,,,,,,,1.133,,,,,,,,,,,,,,,,,,,,,,60fcb26677a917ac1dd40513,610378be074830d07694c423,2021-07-29_20h58.49.250,Simcolourproject_2stim_asymm_v5,2020.2.10,MacIntel,60,61025ae37ef11b136ea224fe,,,,,,,,,1199,-22.74108887,-57.33972168,1,0,0,response5disk,,3,-6.672302246,5.895629883,1,0,0,rectangle,-6.672302246,5.895629883,1,0,0,-6.672302246,5.895629883,1,0,0,0,129,129,143,1,,,,,,,,
,,,,,,,,,,,,,FF,,,,,,,,0.9339,,,,,,,,,,,,,,,,,,,,,,60fcb26677a917ac1dd40513,610378be074830d07694c423,2021-07-29_20h58.49.250,Simcolourproject_2stim_asymm_v5,2020.2.10,MacIntel,60,61025ae37ef11b136ea224fe,,,,,,,,,2188,-27.12011719,-53.21173096,1,0,0,response5disk,,3,-8.238830566,-4.102539063,1,0,0,rectangle,-8.238830566,-4.102539063,1,0,0,-8.238830566,-4.102539063,1,0,0,0,130,130,101,1,,,,,,,,
,,,,,,,,,,,,,FF,,,,,,,,1.067,,,,,,,,,,,,,,,,,,,,,,60fcb26677a917ac1dd40513,610378be074830d07694c423,2021-07-29_20h58.49.250,Simcolourproject_2stim_asymm_v5,2020.2.10,MacIntel,60,61025ae37ef11b136ea224fe,,,,,,,,,3694,73.38989258,-36.42529297,1,0,0,response3disk,,5,10.36169434,-3.158691406,1,0,0,rectangle,25.49176025,-78.92526245,1,0,0,-2.92956543,5.484985352,1,0,0,0,131,131,113,1,,response3disk_3,TRUE,4,4,"[170,134,202,132,246,104,125,176,255,9,72,59,26,233,49,194,135,154,13,102]",1.7997,rectangle
,,,,,,,,,,,,,FF,,,,,,,,4.1176,,,,,,,,,,,,,,,,,,,,,,60fcb26677a917ac1dd40513,610378be074830d07694c423,2021-07-29_20h58.49.250,Simcolourproject_2stim_asymm_v5,2020.2.10,MacIntel,60,61025ae37ef11b136ea224fe,,,,,,,,,730,-41.64538574,-67.32891846,1,0,0,response5disk,,3,-9.931030273,0.191101074,1,0,0,rectangle,-9.931030273,0.191101074,1,0,0,-9.931030273,0.191101074,1,0,0,0,132,132,25,1,,,,,,,,
,,,,,,,,,,,,,FF,,,,,,,,1.8148,,,,,,,,,,,,,,,,,,,,,,60fcb26677a917ac1dd40513,610378be074830d07694c423,2021-07-29_20h58.49.250,Simcolourproject_2stim_asymm_v5,2020.2.10,MacIntel,60,61025ae37ef11b136ea224fe,,,,,,,,,320,80.24334717,-52.65057373,1,0,0,response3disk,,5,2.79284668,1.57421875,1,0,0,rectangle,57.97265625,-34.16455078,1,0,0,-10.23907471,-3.038757324,1,0,0,0,133,133,90,1,,response3disk_3,TRUE,5,5,"[170,134,202,132,246,104,125,176,255,9,72,59,26,233,49,194,135,154,13,102]",1.3512,rectangle
,,,,,,,,,,,,,FF,,,,,,,,0.9832,,,,,,,,,,,,,,,,,,,,,,60fcb26677a917ac1dd40513,610378be074830d07694c423,2021-07-29_20h58.49.250,Simcolourproject_2stim_asymm_v5,2020.2.10,MacIntel,60,61025ae37ef11b136ea224fe,,,,,,,,,719,-64.6217041,26.45849609,1,0,0,response7disk,,1,-2.475219727,11.5447998,1,0,0,rectangle,78.74407959,-49.14379883,1,0,0,7.692382813,-3.806884766,1,0,0,0,134,134,18,1,,response3disk_3,TRUE,5,5,"[170,134,202,132,246,104,125,176,255,9,72,59,26,233,49,194,135,154,13,102]",1.333,rectangle
,,,,,,,,,,,,,FF,,,,,,,,1.0178,,,,,,,,,,,,,,,,,,,,,,60fcb26677a917ac1dd40513,610378be074830d07694c423,2021-07-29_20h58.49.250,Simcolourproject_2stim_asymm_v5,2020.2.10,MacIntel,60,61025ae37ef11b136ea224fe,,,,,,,,,1075,31.58099365,-71.05151367,1,0,0,response3disk,,4,5.337768555,-10.29290771,1,0,0,rectangle,5.337768555,-10.29290771,1,0,0,5.337768555,-10.29290771,1,0,0,0,135,135,86,1,,,,,,,,
,,,,,,,,,,,,,FF,,,,,,,,0.617,,,,,,,,,,,,,,,,,,,,,,60fcb26677a917ac1dd40513,610378be074830d07694c423,2021-07-29_20h58.49.250,Simcolourproject_2stim_asymm_v5,2020.2.10,MacIntel,60,61025ae37ef11b136ea224fe,,,,,,,,,1861,46.58691406,-35.44042969,1,0,0,response3disk,,5,7.994262695,-0.153411865,1,0,0,rectangle,7.994262695,-0.153411865,1,0,0,7.994262695,-0.153411865,1,0,0,0,136,136,1,1,,,,,,,,
,,,,,,,,,,,,,FF,,,,,,,,0.8837,,,,,,,,,,,,,,,,,,,,,,60fcb26677a917ac1dd40513,610378be074830d07694c423,2021-07-29_20h58.49.250,Simcolourproject_2stim_asymm_v5,2020.2.10,MacIntel,60,61025ae37ef11b136ea224fe,,,,,,,,,3520,-23.00048828,-52.18115234,1,0,0,response5disk,,3,-6.102416992,-2.551971436,1,0,0,rectangle,-6.102416992,-2.551971436,1,0,0,-6.102416992,-2.551971436,1,0,0,0,137,137,115,1,,,,,,,,
,,,,,,,,,,,,,FF,,,,,,,,0.8178,,,,,,,,,,,,,,,,,,,,,,60fcb26677a917ac1dd40513,610378be074830d07694c423,2021-07-29_20h58.49.250,Simcolourproject_2stim_asymm_v5,2020.2.10,MacIntel,60,61025ae37ef11b136ea224fe,,,,,,,,,342,-26.04351807,-54.1340332,1,0,0,response5disk,,3,-4.311462402,7.253112793,1,0,0,rectangle,-4.311462402,7.253112793,1,0,0,-4.311462402,7.253112793,1,0,0,0,138,138,42,1,,,,,,,,
,,,,,,,,,,,,,FF,,,,,,,,0.95,,,,,,,,,,,,,,,,,,,,,,60fcb26677a917ac1dd40513,610378be074830d07694c423,2021-07-29_20h58.49.250,Simcolourproject_2stim_asymm_v5,2020.2.10,MacIntel,60,61025ae37ef11b136ea224fe,,,,,,,,,4345,-52.06341553,23.48181152,1,0,0,response7disk,,1,6.374633789,1.650024414,1,0,0,rectangle,6.374633789,1.650024414,1,0,0,6.374633789,1.650024414,1,0,0,0,139,139,122,1,,,,,,,,
,,,,,,,,,,,,,FF,,,,,,,,1.8834,,,,,,,,,,,,,,,,,,,,,,60fcb26677a917ac1dd40513,610378be074830d07694c423,2021-07-29_20h58.49.250,Simcolourproject_2stim_asymm_v5,2020.2.10,MacIntel,60,61025ae37ef11b136ea224fe,,,,,,,,,77,-54.75500488,32.72399902,1,0,0,response7disk,,1,0.5390625,-5.044494629,1,0,0,rectangle,0.5390625,-5.044494629,1,0,0,0.5390625,-5.044494629,1,0,0,0,140,140,153,1,,,,,,,,
,,,,,,,,,,,,,FF,,,,,,,,1.1176,,,,,,,,,,,,,,,,,,,,,,60fcb26677a917ac1dd40513,610378be074830d07694c423,2021-07-29_20h58.49.250,Simcolourproject_2stim_asymm_v5,2020.2.10,MacIntel,60,61025ae37ef11b136ea224fe,,,,,,,,,2587,66.7644043,29.04919434,1,0,0,response1disk,,6,2.555969238,10.46173096,1,0,0,rectangle,2.555969238,10.46173096,1,0,0,2.555969238,10.46173096,1,0,0,0,141,141,69,1,,,,,,,,
,,,,,,,,,,,,,FF,,,,,,,,1.2173,,,,,,,,,,,,,,,,,,,,,,60fcb26677a917ac1dd40513,610378be074830d07694c423,2021-07-29_20h58.49.250,Simcolourproject_2stim_asymm_v5,2020.2.10,MacIntel,60,61025ae37ef11b136ea224fe,,,,,,,,,390,64.37683105,29.61962891,1,0,0,response1disk,,6,12.56140137,12.50045776,1,0,0,rectangle,12.56140137,12.50045776,1,0,0,12.56140137,12.50045776,1,0,0,0,142,142,7,1,,,,,,,,
,,,,,,,,,,,,,FF,,,,,,,,0.8003,,,,,,,,,,,,,,,,,,,,,,60fcb26677a917ac1dd40513,610378be074830d07694c423,2021-07-29_20h58.49.250,Simcolourproject_2stim_asymm_v5,2020.2.10,MacIntel,60,61025ae37ef11b136ea224fe,,,,,,,,,1566,69.12426758,38.19232178,1,0,0,response1disk,,6,7.801879883,8.40637207,1,0,0,rectangle,7.801879883,8.40637207,1,0,0,7.801879883,8.40637207,1,0,0,0,143,143,70,1,,,,,,,,
,,,,,,,,,,,,,FF,,,,,,,,1.4834,,,,,,,,,,,,,,,,,,,,,,60fcb26677a917ac1dd40513,610378be074830d07694c423,2021-07-29_20h58.49.250,Simcolourproject_2stim_asymm_v5,2020.2.10,MacIntel,60,61025ae37ef11b136ea224fe,,,,,,,,,4331,80.41082764,41.01867676,1,0,0,response1disk,,6,9.279296875,8.827880859,1,0,0,rectangle,9.279296875,8.827880859,1,0,0,9.279296875,8.827880859,1,0,0,0,144,144,20,1,,,,,,,,
,,,,,,,,,,,,,FF,,,,,,,,1.5504,,,,,,,,,,,,,,,,,,,,,,60fcb26677a917ac1dd40513,610378be074830d07694c423,2021-07-29_20h58.49.250,Simcolourproject_2stim_asymm_v5,2020.2.10,MacIntel,60,61025ae37ef11b136ea224fe,,,,,,,,,1128,51.73138428,-22.10784912,1,0,0,response3disk,,5,7.172424316,-7.421508789,1,0,0,rectangle,7.172424316,-7.421508789,1,0,0,7.172424316,-7.421508789,1,0,0,0,145,145,159,1,,,,,,,,
,,,,,,,,,,,,,FF,,,,,,,,1.0997,,,,,,,,,,,,,,,,,,,,,,60fcb26677a917ac1dd40513,610378be074830d07694c423,2021-07-29_20h58.49.250,Simcolourproject_2stim_asymm_v5,2020.2.10,MacIntel,60,61025ae37ef11b136ea224fe,,,,,,,,,90,68.7421875,24.99298096,1,0,0,response1disk,,6,-2.020751953,0.306030273,1,0,0,rectangle,-2.020751953,0.306030273,1,0,0,-2.020751953,0.306030273,1,0,0,0,146,146,108,1,,,,,,,,
,,,,,,,,,,,,,FF,,,,,,,,1.5839,,,,,,,,,,,,,,,,,,,,,,60fcb26677a917ac1dd40513,610378be074830d07694c423,2021-07-29_20h58.49.250,Simcolourproject_2stim_asymm_v5,2020.2.10,MacIntel,60,61025ae37ef11b136ea224fe,,,,,,,,,3867,42.86547852,-54.60580444,1,0,0,response3disk,,4,8.770446777,-14.3770752,1,0,0,rectangle,8.770446777,-14.3770752,1,0,0,8.770446777,-14.3770752,1,0,0,0,147,147,133,1,,,,,,,,
,,,,,,,,,,,,,FF,,,,,,,,0.9503,,,,,,,,,,,,,,,,,,,,,,60fcb26677a917ac1dd40513,610378be074830d07694c423,2021-07-29_20h58.49.250,Simcolourproject_2stim_asymm_v5,2020.2.10,MacIntel,60,61025ae37ef11b136ea224fe,,,,,,,,,2817,67.74249268,23.45947266,1,0,0,response1disk,,6,-4.495178223,9.730743408,1,0,0,rectangle,-4.495178223,9.730743408,1,0,0,-4.495178223,9.730743408,1,0,0,0,148,148,137,1,,,,,,,,
,,,,,,,,,,,,,FF,,,,,,,,0.6688,,,,,,,,,,,,,,,,,,,,,,60fcb26677a917ac1dd40513,610378be074830d07694c423,2021-07-29_20h58.49.250,Simcolourproject_2stim_asymm_v5,2020.2.10,MacIntel,60,61025ae37ef11b136ea224fe,,,,,,,,,2738,59.26397705,24.41363525,1,0,0,response1disk,,6,10.18737793,3.4425354,1,0,0,rectangle,10.18737793,3.4425354,1,0,0,10.18737793,3.4425354,1,0,0,0,149,149,58,1,,,,,,,,
,,,,,,,,,,,,,FF,,,,,,,,1.9178,,,,,,,,,,,,,,,,,,,,,,60fcb26677a917ac1dd40513,610378be074830d07694c423,2021-07-29_20h58.49.250,Simcolourproject_2stim_asymm_v5,2020.2.10,MacIntel,60,61025ae37ef11b136ea224fe,,,,,,,,,957,62.6427002,-41.34765625,1,0,0,response3disk,,5,9.458312988,-13.19677734,1,0,0,rectangle,9.458312988,-13.19677734,1,0,0,9.458312988,-13.19677734,1,0,0,0,150,150,78,1,,,,,,,,
,,,,,,,,,,,,,FF,,,,,,,,0.9003,,,,,,,,,,,,,,,,,,,,,,60fcb26677a917ac1dd40513,610378be074830d07694c423,2021-07-29_20h58.49.250,Simcolourproject_2stim_asymm_v5,2020.2.10,MacIntel,60,61025ae37ef11b136ea224fe,,,,,,,,,2046,25.15936279,-56.84362793,1,0,0,response3disk,,4,3.894775391,14.7149353,1,0,0,rectangle,3.894775391,14.7149353,1,0,0,3.894775391,14.7149353,1,0,0,0,151,151,6,1,,,,,,,,
,,,,,,,,,,,,,FF,,,,,,,,0.8178,,,,,,,,,,,,,,,,,,,,,,60fcb26677a917ac1dd40513,610378be074830d07694c423,2021-07-29_20h58.49.250,Simcolourproject_2stim_asymm_v5,2020.2.10,MacIntel,60,61025ae37ef11b136ea224fe,,,,,,,,,2139,85.71508789,53.2328186,1,0,0,response1disk,,6,6.539367676,5.500793457,1,0,0,rectangle,6.539367676,5.500793457,1,0,0,6.539367676,5.500793457,1,0,0,0,152,152,4,1,,,,,,,,
,,,,,,,,,,,,,FF,,,,,,,,0.7497,,,,,,,,,,,,,,,,,,,,,,60fcb26677a917ac1dd40513,610378be074830d07694c423,2021-07-29_20h58.49.250,Simcolourproject_2stim_asymm_v5,2020.2.10,MacIntel,60,61025ae37ef11b136ea224fe,,,,,,,,,1481,83.41668701,26.41345215,1,0,0,response1disk,,6,8.692382813,3.179748535,1,0,0,rectangle,27.0760498,-76.9005127,1,0,0,4.088623047,-2.035705566,1,0,0,0,153,153,41,1,,response3disk_3,TRUE,4,4,"[170,134,202,132,246,104,125,176,255,9,72,59,26,233,49,194,135,154,13,102]",1.7336,rectangle
,,,,,,,,,,,,,FF,,,,,,,,1.5358,,,,,,,,,,,,,,,,,,,,,,60fcb26677a917ac1dd40513,610378be074830d07694c423,2021-07-29_20h58.49.250,Simcolourproject_2stim_asymm_v5,2020.2.10,MacIntel,60,61025ae37ef11b136ea224fe,,,,,,,,,2487,-34.31243896,-58.2557373,1,0,0,response5disk,,3,-4.450439453,-9.810913086,1,0,0,rectangle,-4.450439453,-9.810913086,1,0,0,-4.450439453,-9.810913086,1,0,0,0,154,154,67,1,,,,,,,,
,,,,,,,,,,,,,FF,,,,,,,,1.0522,,,,,,,,,,,,,,,,,,,,,,60fcb26677a917ac1dd40513,610378be074830d07694c423,2021-07-29_20h58.49.250,Simcolourproject_2stim_asymm_v5,2020.2.10,MacIntel,60,61025ae37ef11b136ea224fe,,,,,,,,,1479,75.98968506,-39.38119507,1,0,0,response3disk,,5,-2.018554688,-10.28369141,1,0,0,rectangle,-2.018554688,-10.28369141,1,0,0,-2.018554688,-10.28369141,1,0,0,0,155,155,11,1,,,,,,,,
,,,,,,,,,,,,,FF,,,,,,,,0.8003,,,,,,,,,,,,,,,,,,,,,,60fcb26677a917ac1dd40513,610378be074830d07694c423,2021-07-29_20h58.49.250,Simcolourproject_2stim_asymm_v5,2020.2.10,MacIntel,60,61025ae37ef11b136ea224fe,,,,,,,,,2141,40.86730957,-67.86331177,1,0,0,response3disk,,4,11.60375977,-5.594451904,1,0,0,rectangle,11.60375977,-5.594451904,1,0,0,11.60375977,-5.594451904,1,0,0,0,156,156,51,1,,,,,,,,
,,,,,,,,,,,,,FF,,,,,,,,1.1163,,,,,,,,,,,,,,,,,,,,,,60fcb26677a917ac1dd40513,610378be074830d07694c423,2021-07-29_20h58.49.250,Simcolourproject_2stim_asymm_v5,2020.2.10,MacIntel,60,61025ae37ef11b136ea224fe,,,,,,,,,1876,76.22119141,23.91598511,1,0,0,response1disk,,6,5.142089844,5.404785156,1,0,0,rectangle,5.142089844,5.404785156,1,0,0,5.142089844,5.404785156,1,0,0,0,157,157,128,1,,,,,,,,
,,,,,,,,,,,,,FF,,,,,,,,0.6662,,,,,,,,,,,,,,,,,,,,,,60fcb26677a917ac1dd40513,610378be074830d07694c423,2021-07-29_20h58.49.250,Simcolourproject_2stim_asymm_v5,2020.2.10,MacIntel,60,61025ae37ef11b136ea224fe,,,,,,,,,3449,52.41656494,-32.01672363,1,0,0,response3disk,,5,3.953125,-12.79678345,1,0,0,rectangle,3.953125,-12.79678345,1,0,0,3.953125,-12.79678345,1,0,0,0,158,158,76,1,,,,,,,,
,,,,,,,,,,,,,FF,,,,,,,,0.9172,,,,,,,,,,,,,,,,,,,,,,60fcb26677a917ac1dd40513,610378be074830d07694c423,2021-07-29_20h58.49.250,Simcolourproject_2stim_asymm_v5,2020.2.10,MacIntel,60,61025ae37ef11b136ea224fe,,,,,,,,,1541,-17.61853027,-62.95831299,1,0,0,response5disk,,3,-2.420959473,-5.232788086,1,0,0,rectangle,-2.420959473,-5.232788086,1,0,0,-2.420959473,-5.232788086,1,0,0,0,159,159,37,1,,,,,,,,
,,,,,,,,,,,,,FF,,,,,,,,0.816,,,,,,,,,,,,,,,,,,,,,,60fcb26677a917ac1dd40513,610378be074830d07694c423,2021-07-29_20h58.49.250,Simcolourproject_2stim_asymm_v5,2020.2.10,MacIntel,60,61025ae37ef11b136ea224fe,,,,,,,,,3147,-67.64459229,-36.63885498,1,0,0,response5disk,,2,6.691040039,-3.536071777,1,0,0,rectangle,6.691040039,-3.536071777,1,0,0,6.691040039,-3.536071777,1,0,0,1,0,160,156,1,,,,,,,,
,,,,,,,,,,,,,FF,,,,,,,,1.0496,,,,,,,,,,,,,,,,,,,,,,60fcb26677a917ac1dd40513,610378be074830d07694c423,2021-07-29_20h58.49.250,Simcolourproject_2stim_asymm_v5,2020.2.10,MacIntel,60,61025ae37ef11b136ea224fe,,,,,,,,,3463,-63.2399292,-43.99151611,1,0,0,response5disk,,2,3.172851563,0.709625244,1,0,0,rectangle,3.172851563,0.709625244,1,0,0,3.172851563,0.709625244,1,0,0,1,1,161,144,1,,,,,,,,
,,,,,,,,,,,,,FF,,,,,,,,0.9675,,,,,,,,,,,,,,,,,,,,,,60fcb26677a917ac1dd40513,610378be074830d07694c423,2021-07-29_20h58.49.250,Simcolourproject_2stim_asymm_v5,2020.2.10,MacIntel,60,61025ae37ef11b136ea224fe,,,,,,,,,2220,-18.50622559,-59.06121826,1,0,0,response5disk,,3,6.619995117,10.61047363,1,0,0,rectangle,6.619995117,10.61047363,1,0,0,6.619995117,10.61047363,1,0,0,1,2,162,39,1,,,,,,,,
,,,,,,,,,,,,,FF,,,,,,,,1.0021,,,,,,,,,,,,,,,,,,,,,,60fcb26677a917ac1dd40513,610378be074830d07694c423,2021-07-29_20h58.49.250,Simcolourproject_2stim_asymm_v5,2020.2.10,MacIntel,60,61025ae37ef11b136ea224fe,,,,,,,,,3767,78.11431885,25.71411133,1,0,0,response1disk,,6,-1.919799805,1.832458496,1,0,0,rectangle,-1.919799805,1.832458496,1,0,0,-1.919799805,1.832458496,1,0,0,1,3,163,44,1,,,,,,,,
,,,,,,,,,,,,,FF,,,,,,,,1.2001,,,,,,,,,,,,,,,,,,,,,,60fcb26677a917ac1dd40513,610378be074830d07694c423,2021-07-29_20h58.49.250,Simcolourproject_2stim_asymm_v5,2020.2.10,MacIntel,60,61025ae37ef11b136ea224fe,,,,,,,,,2950,-30.1315918,-51.5128479,1,0,0,response5disk,,3,-7.660766602,-1.0597229,1,0,0,rectangle,-7.660766602,-1.0597229,1,0,0,-7.660766602,-1.0597229,1,0,0,1,4,164,56,1,,,,,,,,
,,,,,,,,,,,,,FF,,,,,,,,0.8832,,,,,,,,,,,,,,,,,,,,,,60fcb26677a917ac1dd40513,610378be074830d07694c423,2021-07-29_20h58.49.250,Simcolourproject_2stim_asymm_v5,2020.2.10,MacIntel,60,61025ae37ef11b136ea224fe,,,,,,,,,2939,61.70074463,-30.66082764,1,0,0,response3disk,,5,-6.908752441,5.940307617,1,0,0,rectangle,-6.908752441,5.940307617,1,0,0,-6.908752441,5.940307617,1,0,0,1,5,165,24,1,,,,,,,,
,,,,,,,,,,,,,FF,,,,,,,,1.5181,,,,,,,,,,,,,,,,,,,,,,60fcb26677a917ac1dd40513,610378be074830d07694c423,2021-07-29_20h58.49.250,Simcolourproject_2stim_asymm_v5,2020.2.10,MacIntel,60,61025ae37ef11b136ea224fe,,,,,,,,,1436,35.25292969,-60.27102661,1,0,0,response3disk,,4,8.234558105,-11.48590088,1,0,0,rectangle,8.234558105,-11.48590088,1,0,0,8.234558105,-11.48590088,1,0,0,1,6,166,123,1,,,,,,,,
,,,,,,,,,,,,,FF,,,,,,,,1.3496,,,,,,,,,,,,,,,,,,,,,,60fcb26677a917ac1dd40513,610378be074830d07694c423,2021-07-29_20h58.49.250,Simcolourproject_2stim_asymm_v5,2020.2.10,MacIntel,60,61025ae37ef11b136ea224fe,,,,,,,,,886,-67.23162842,-41.69476318,1,0,0,response5disk,,2,1.535095215,-7.934387207,1,0,0,rectangle,1.535095215,-7.934387207,1,0,0,1.535095215,-7.934387207,1,0,0,1,7,167,148,1,,,,,,,,
,,,,,,,,,,,,,FF,,,,,,,,1.2347,,,,,,,,,,,,,,,,,,,,,,60fcb26677a917ac1dd40513,610378be074830d07694c423,2021-07-29_20h58.49.250,Simcolourproject_2stim_asymm_v5,2020.2.10,MacIntel,60,61025ae37ef11b136ea224fe,,,,,,,,,292,84.14239502,38.92767334,1,0,0,response1disk,,6,4.475097656,-1.467163086,1,0,0,rectangle,4.475097656,-1.467163086,1,0,0,4.475097656,-1.467163086,1,0,0,1,8,168,58,1,,,,,,,,
,,,,,,,,,,,,,FF,,,,,,,,1.0008,,,,,,,,,,,,,,,,,,,,,,60fcb26677a917ac1dd40513,610378be074830d07694c423,2021-07-29_20h58.49.250,Simcolourproject_2stim_asymm_v5,2020.2.10,MacIntel,60,61025ae37ef11b136ea224fe,,,,,,,,,2154,58.73071289,-27.16342163,1,0,0,response3disk,,5,11.13598633,-1.843963623,1,0,0,rectangle,-47.09155273,-73.88012695,1,0,0,5.647155762,-2.245269775,1,0,0,1,9,169,35,1,,response5disk_3,TRUE,3,3,"[170,134,202,132,246,104,125,176,255,9,72,59,26,233,49,194,135,154,13,102]",1.684,rectangle
,,,,,,,,,,,,,FF,,,,,,,,2.8171,,,,,,,,,,,,,,,,,,,,,,60fcb26677a917ac1dd40513,610378be074830d07694c423,2021-07-29_20h58.49.250,Simcolourproject_2stim_asymm_v5,2020.2.10,MacIntel,60,61025ae37ef11b136ea224fe,,,,,,,,,1074,80.85742188,29.12646484,1,0,0,response1disk,,6,11.21923828,3.054626465,1,0,0,rectangle,11.21923828,3.054626465,1,0,0,11.21923828,3.054626465,1,0,0,1,10,170,94,1,,,,,,,,
,,,,,,,,,,,,,FF,,,,,,,,1.0173,,,,,,,,,,,,,,,,,,,,,,60fcb26677a917ac1dd40513,610378be074830d07694c423,2021-07-29_20h58.49.250,Simcolourproject_2stim_asymm_v5,2020.2.10,MacIntel,60,61025ae37ef11b136ea224fe,,,,,,,,,3820,-26.64147949,-64.99499512,1,0,0,response5disk,,3,-10.65930176,-12.82601929,1,0,0,rectangle,-10.65930176,-12.82601929,1,0,0,-10.65930176,-12.82601929,1,0,0,1,11,171,101,1,,,,,,,,
,,,,,,,,,,,,,FF,,,,,,,,0.6358,,,,,,,,,,,,,,,,,,,,,,60fcb26677a917ac1dd40513,610378be074830d07694c423,2021-07-29_20h58.49.250,Simcolourproject_2stim_asymm_v5,2020.2.10,MacIntel,60,61025ae37ef11b136ea224fe,,,,,,,,,3523,23.04541016,-51.25656128,1,0,0,response3disk,,4,-2.545532227,-11.02600098,1,0,0,rectangle,-2.545532227,-11.02600098,1,0,0,-2.545532227,-11.02600098,1,0,0,1,12,172,81,1,,,,,,,,
,,,,,,,,,,,,,FF,,,,,,,,0.8831,,,,,,,,,,,,,,,,,,,,,,60fcb26677a917ac1dd40513,610378be074830d07694c423,2021-07-29_20h58.49.250,Simcolourproject_2stim_asymm_v5,2020.2.10,MacIntel,60,61025ae37ef11b136ea224fe,,,,,,,,,383,48.54223633,14.64401245,1,0,0,response1disk,,6,12.05053711,3.542022705,1,0,0,rectangle,12.05053711,3.542022705,1,0,0,12.05053711,3.542022705,1,0,0,1,13,173,132,1,,,,,,,,
,,,,,,,,,,,,,FF,,,,,,,,0.6671,,,,,,,,,,,,,,,,,,,,,,60fcb26677a917ac1dd40513,610378be074830d07694c423,2021-07-29_20h58.49.250,Simcolourproject_2stim_asymm_v5,2020.2.10,MacIntel,60,61025ae37ef11b136ea224fe,,,,,,,,,2327,47.13195801,26.95623779,1,0,0,response1disk,,6,-2.873535156,5.940551758,1,0,0,rectangle,-2.873535156,5.940551758,1,0,0,-2.873535156,5.940551758,1,0,0,1,14,174,76,1,,,,,,,,
,,,,,,,,,,,,,FF,,,,,,,,0.6165,,,,,,,,,,,,,,,,,,,,,,60fcb26677a917ac1dd40513,610378be074830d07694c423,2021-07-29_20h58.49.250,Simcolourproject_2stim_asymm_v5,2020.2.10,MacIntel,60,61025ae37ef11b136ea224fe,,,,,,,,,1077,46.54675293,-32.5904541,1,0,0,response3disk,,5,4.072753906,-12.0246582,1,0,0,rectangle,-83.17303467,43.42767334,1,0,0,-5.870300293,-10.3850708,1,0,0,1,15,175,97,1,,response7disk_3,TRUE,1,1,"[170,134,202,132,246,104,125,176,255,9,72,59,26,233,49,194,135,154,13,102]",1.4273,rectangle
,,,,,,,,,,,,,FF,,,,,,,,2.5847,,,,,,,,,,,,,,,,,,,,,,60fcb26677a917ac1dd40513,610378be074830d07694c423,2021-07-29_20h58.49.250,Simcolourproject_2stim_asymm_v5,2020.2.10,MacIntel,60,61025ae37ef11b136ea224fe,,,,,,,,,3908,-70.81469727,-37.10894775,1,0,0,response5disk,,2,-11.51275635,-10.02868652,1,0,0,rectangle,-11.51275635,-10.02868652,1,0,0,-11.51275635,-10.02868652,1,0,0,1,16,176,21,1,,,,,,,,
,,,,,,,,,,,,,FF,,,,,,,,0.9839,,,,,,,,,,,,,,,,,,,,,,60fcb26677a917ac1dd40513,610378be074830d07694c423,2021-07-29_20h58.49.250,Simcolourproject_2stim_asymm_v5,2020.2.10,MacIntel,60,61025ae37ef11b136ea224fe,,,,,,,,,371,-52.33850098,-35.85839844,1,0,0,response5disk,,2,7.058898926,2.033172607,1,0,0,rectangle,7.058898926,2.033172607,1,0,0,7.058898926,2.033172607,1,0,0,1,17,177,43,1,,,,,,,,
,,,,,,,,,,,,,FF,,,,,,,,1.0844,,,,,,,,,,,,,,,,,,,,,,60fcb26677a917ac1dd40513,610378be074830d07694c423,2021-07-29_20h58.49.250,Simcolourproject_2stim_asymm_v5,2020.2.10,MacIntel,60,61025ae37ef11b136ea224fe,,,,,,,,,2081,70.33917236,-46.8338623,1,0,0,response3disk,,5,7.649414063,-1.7890625,1,0,0,rectangle,7.649414063,-1.7890625,1,0,0,7.649414063,-1.7890625,1,0,0,1,18,178,107,1,,,,,,,,
,,,,,,,,,,,,,FF,,,,,,,,0.9182,,,,,,,,,,,,,,,,,,,,,,60fcb26677a917ac1dd40513,610378be074830d07694c423,2021-07-29_20h58.49.250,Simcolourproject_2stim_asymm_v5,2020.2.10,MacIntel,60,61025ae37ef11b136ea224fe,,,,,,,,,2598,29.37927246,-45.08242798,1,0,0,response3disk,,4,3.531005859,10.81640625,1,0,0,rectangle,3.531005859,10.81640625,1,0,0,3.531005859,10.81640625,1,0,0,1,19,179,28,1,,,,,,,,
,,,,,,,,,,,,,FF,,,,,,,,0.9844,,,,,,,,,,,,,,,,,,,,,,60fcb26677a917ac1dd40513,610378be074830d07694c423,2021-07-29_20h58.49.250,Simcolourproject_2stim_asymm_v5,2020.2.10,MacIntel,60,61025ae37ef11b136ea224fe,,,,,,,,,3535,82.60327148,35.68588257,1,0,0,response1disk,,6,6.774658203,-2.363037109,1,0,0,rectangle,6.774658203,-2.363037109,1,0,0,6.774658203,-2.363037109,1,0,0,1,20,180,54,1,,,,,,,,
,,,,,,,,,,,,,FF,,,,,,,,0.8841,,,,,,,,,,,,,,,,,,,,,,60fcb26677a917ac1dd40513,610378be074830d07694c423,2021-07-29_20h58.49.250,Simcolourproject_2stim_asymm_v5,2020.2.10,MacIntel,60,61025ae37ef11b136ea224fe,,,,,,,,,820,63.89416504,42.66790771,1,0,0,response1disk,,6,14.85327148,6.295959473,1,0,0,rectangle,14.85327148,6.295959473,1,0,0,14.85327148,6.295959473,1,0,0,1,21,181,120,1,,,,,,,,
,,,,,,,,,,,,,FF,,,,,,,,1.0508,,,,,,,,,,,,,,,,,,,,,,60fcb26677a917ac1dd40513,610378be074830d07694c423,2021-07-29_20h58.49.250,Simcolourproject_2stim_asymm_v5,2020.2.10,MacIntel,60,61025ae37ef11b136ea224fe,,,,,,,,,1679,57.79876709,-28.40136719,1,0,0,response3disk,,5,20.17199707,-3.545837402,1,0,0,rectangle,20.17199707,-3.545837402,1,0,0,20.17199707,-3.545837402,1,0,0,1,22,182,10,1,,,,,,,,
,,,,,,,,,,,,,FF,,,,,,,,1.3174,,,,,,,,,,,,,,,,,,,,,,60fcb26677a917ac1dd40513,610378be074830d07694c423,2021-07-29_20h58.49.250,Simcolourproject_2stim_asymm_v5,2020.2.10,MacIntel,60,61025ae37ef11b136ea224fe,,,,,,,,,2772,33.65625,-45.61447144,1,0,0,response3disk,,4,4.93536377,-6.697662354,1,0,0,rectangle,4.93536377,-6.697662354,1,0,0,4.93536377,-6.697662354,1,0,0,1,23,183,150,1,,,,,,,,
,,,,,,,,,,,,,FF,,,,,,,,0.9508,,,,,,,,,,,,,,,,,,,,,,60fcb26677a917ac1dd40513,610378be074830d07694c423,2021-07-29_20h58.49.250,Simcolourproject_2stim_asymm_v5,2020.2.10,MacIntel,60,61025ae37ef11b136ea224fe,,,,,,,,,2527,47.64245605,-46.49603271,1,0,0,response3disk,,5,7.800231934,-6.505981445,1,0,0,rectangle,7.800231934,-6.505981445,1,0,0,7.800231934,-6.505981445,1,0,0,1,24,184,157,1,,,,,,,,
,,,,,,,,,,,,,FF,,,,,,,,1.5675,,,,,,,,,,,,,,,,,,,,,,60fcb26677a917ac1dd40513,610378be074830d07694c423,2021-07-29_20h58.49.250,Simcolourproject_2stim_asymm_v5,2020.2.10,MacIntel,60,61025ae37ef11b136ea224fe,,,,,,,,,4010,-24.2578125,-68.89135742,1,0,0,response5disk,,3,-1.19720459,-13.64654541,1,0,0,rectangle,-1.19720459,-13.64654541,1,0,0,-1.19720459,-13.64654541,1,0,0,1,25,185,46,1,,,,,,,,
,,,,,,,,,,,,,FF,,,,,,,,2.8842,,,,,,,,,,,,,,,,,,,,,,60fcb26677a917ac1dd40513,610378be074830d07694c423,2021-07-29_20h58.49.250,Simcolourproject_2stim_asymm_v5,2020.2.10,MacIntel,60,61025ae37ef11b136ea224fe,,,,,,,,,1670,-56.57891846,32.00231934,1,0,0,response7disk,,1,13.26672363,2.010864258,1,0,0,rectangle,13.26672363,2.010864258,1,0,0,13.26672363,2.010864258,1,0,0,1,26,186,142,1,,,,,,,,
,,,,,,,,,,,,,FF,,,,,,,,4.7182,,,,,,,,,,,,,,,,,,,,,,60fcb26677a917ac1dd40513,610378be074830d07694c423,2021-07-29_20h58.49.250,Simcolourproject_2stim_asymm_v5,2020.2.10,MacIntel,60,61025ae37ef11b136ea224fe,,,,,,,,,2074,27.42150879,-40.3213501,1,0,0,response3disk,,4,4.069091797,-1.678771973,1,0,0,rectangle,4.069091797,-1.678771973,1,0,0,4.069091797,-1.678771973,1,0,0,1,27,187,12,1,,,,,,,,
,,,,,,,,,,,,,FF,,,,,,,,1.1008,,,,,,,,,,,,,,,,,,,,,,60fcb26677a917ac1dd40513,610378be074830d07694c423,2021-07-29_20h58.49.250,Simcolourproject_2stim_asymm_v5,2020.2.10,MacIntel,60,61025ae37ef11b136ea224fe,,,,,,,,,4250,32.68249512,-44.04162598,1,0,0,response3disk,,4,7.574829102,-3.673950195,1,0,0,rectangle,7.574829102,-3.673950195,1,0,0,7.574829102,-3.673950195,1,0,0,1,28,188,22,1,,,,,,,,
,,,,,,,,,,,,,FF,,,,,,,,1.086,,,,,,,,,,,,,,,,,,,,,,60fcb26677a917ac1dd40513,610378be074830d07694c423,2021-07-29_20h58.49.250,Simcolourproject_2stim_asymm_v5,2020.2.10,MacIntel,60,61025ae37ef11b136ea224fe,,,,,,,,,4336,-77.66882324,16.94445801,1,0,0,response7disk,,1,-19.52563477,5.040679932,1,0,0,rectangle,-19.52563477,5.040679932,1,0,0,-19.52563477,5.040679932,1,0,0,1,29,189,61,1,,,,,,,,
,,,,,,,,,,,,,FF,,,,,,,,0.923,,,,,,,,,,,,,,,,,,,,,,60fcb26677a917ac1dd40513,610378be074830d07694c423,2021-07-29_20h58.49.250,Simcolourproject_2stim_asymm_v5,2020.2.10,MacIntel,60,61025ae37ef11b136ea224fe,,,,,,,,,2229,-57.76757813,-38.7588501,1,0,0,response5disk,,2,10.87860107,-13.00604248,1,0,0,rectangle,10.87860107,-13.00604248,1,0,0,10.87860107,-13.00604248,1,0,0,1,30,190,31,1,,,,,,,,
,,,,,,,,,,,,,FF,,,,,,,,1.0336,,,,,,,,,,,,,,,,,,,,,,60fcb26677a917ac1dd40513,610378be074830d07694c423,2021-07-29_20h58.49.250,Simcolourproject_2stim_asymm_v5,2020.2.10,MacIntel,60,61025ae37ef11b136ea224fe,,,,,,,,,3022,85.73431396,26.22055054,1,0,0,response1disk,,6,10.05059814,12.95739746,1,0,0,rectangle,10.05059814,12.95739746,1,0,0,10.05059814,12.95739746,1,0,0,1,31,191,3,1,,,,,,,,
,,,,,,,,,,,,,FF,,,,,,,,1.034,,,,,,,,,,,,,,,,,,,,,,60fcb26677a917ac1dd40513,610378be074830d07694c423,2021-07-29_20h58.49.250,Simcolourproject_2stim_asymm_v5,2020.2.10,MacIntel,60,61025ae37ef11b136ea224fe,,,,,,,,,1589,-19.73278809,-55.81411743,1,0,0,response5disk,,3,-8.512878418,-12.17907715,1,0,0,rectangle,-8.512878418,-12.17907715,1,0,0,-8.512878418,-12.17907715,1,0,0,1,32,192,64,1,,,,,,,,
,,,,,,,,,,,,,FF,,,,,,,,1.6014,,,,,,,,,,,,,,,,,,,,,,60fcb26677a917ac1dd40513,610378be074830d07694c423,2021-07-29_20h58.49.250,Simcolourproject_2stim_asymm_v5,2020.2.10,MacIntel,60,61025ae37ef11b136ea224fe,,,,,,,,,171,-61.96374512,26.45843506,1,0,0,response7disk,,1,2.605102539,10.4480896,1,0,0,rectangle,39.81152344,-76.09838867,1,0,0,3.435668945,-9.818725586,1,0,0,1,33,193,147,1,,response3disk_3,TRUE,4,4,"[170,134,202,132,246,104,125,176,255,9,72,59,26,233,49,194,135,154,13,102]",1.6203,rectangle
,,,,,,,,,,,,,FF,,,,,,,,1.0176,,,,,,,,,,,,,,,,,,,,,,60fcb26677a917ac1dd40513,610378be074830d07694c423,2021-07-29_20h58.49.250,Simcolourproject_2stim_asymm_v5,2020.2.10,MacIntel,60,61025ae37ef11b136ea224fe,,,,,,,,,2296,-21.20489502,-54.87188721,1,0,0,response5disk,,3,2.026489258,-2.234375,1,0,0,rectangle,2.026489258,-2.234375,1,0,0,2.026489258,-2.234375,1,0,0,1,34,194,106,1,,,,,,,,
,,,,,,,,,,,,,FF,,,,,,,,2.4666,,,,,,,,,,,,,,,,,,,,,,60fcb26677a917ac1dd40513,610378be074830d07694c423,2021-07-29_20h58.49.250,Simcolourproject_2stim_asymm_v5,2020.2.10,MacIntel,60,61025ae37ef11b136ea224fe,,,,,,,,,4242,74.48962402,35.0222168,1,0,0,response1disk,,6,16.08984375,12.54785156,1,0,0,rectangle,16.08984375,12.54785156,1,0,0,16.08984375,12.54785156,1,0,0,1,35,195,52,1,,,,,,,,
,,,,,,,,,,,,,FF,,,,,,,,1.2001,,,,,,,,,,,,,,,,,,,,,,60fcb26677a917ac1dd40513,610378be074830d07694c423,2021-07-29_20h58.49.250,Simcolourproject_2stim_asymm_v5,2020.2.10,MacIntel,60,61025ae37ef11b136ea224fe,,,,,,,,,1728,73.24853516,24.97393799,1,0,0,response1disk,,6,-24.11639404,6.065185547,1,0,0,rectangle,-24.11639404,6.065185547,1,0,0,-24.11639404,6.065185547,1,0,0,1,36,196,80,1,,,,,,,,
,,,,,,,,,,,,,FF,,,,,,,,0.9685,,,,,,,,,,,,,,,,,,,,,,60fcb26677a917ac1dd40513,610378be074830d07694c423,2021-07-29_20h58.49.250,Simcolourproject_2stim_asymm_v5,2020.2.10,MacIntel,60,61025ae37ef11b136ea224fe,,,,,,,,,4006,-18.82305908,-61.75064087,1,0,0,response5disk,,3,-1.959472656,-9.090087891,1,0,0,rectangle,-1.959472656,-9.090087891,1,0,0,-1.959472656,-9.090087891,1,0,0,1,37,197,137,1,,,,,,,,
,,,,,,,,,,,,,FF,,,,,,,,1.2161,,,,,,,,,,,,,,,,,,,,,,60fcb26677a917ac1dd40513,610378be074830d07694c423,2021-07-29_20h58.49.250,Simcolourproject_2stim_asymm_v5,2020.2.10,MacIntel,60,61025ae37ef11b136ea224fe,,,,,,,,,3359,75.47094727,25.38195801,1,0,0,response1disk,,6,12.33465576,1.565246582,1,0,0,rectangle,12.33465576,1.565246582,1,0,0,12.33465576,1.565246582,1,0,0,1,38,198,121,1,,,,,,,,
,,,,,,,,,,,,,FF,,,,,,,,2.6508,,,,,,,,,,,,,,,,,,,,,,60fcb26677a917ac1dd40513,610378be074830d07694c423,2021-07-29_20h58.49.250,Simcolourproject_2stim_asymm_v5,2020.2.10,MacIntel,60,61025ae37ef11b136ea224fe,,,,,,,,,4245,35.87145996,-55.33477783,1,0,0,response3disk,,4,16.57720947,-7.249572754,1,0,0,rectangle,16.57720947,-7.249572754,1,0,0,16.57720947,-7.249572754,1,0,0,1,39,199,88,1,,,,,,,,
,,,,,,,,,,,,,FF,,,,,,,,0.8505,,,,,,,,,,,,,,,,,,,,,,60fcb26677a917ac1dd40513,610378be074830d07694c423,2021-07-29_20h58.49.250,Simcolourproject_2stim_asymm_v5,2020.2.10,MacIntel,60,61025ae37ef11b136ea224fe,,,,,,,,,2055,-39.92224121,-72.31015015,1,0,0,response5disk,,3,-11.27197266,-12.58737183,1,0,0,rectangle,-11.27197266,-12.58737183,1,0,0,-11.27197266,-12.58737183,1,0,0,1,40,200,153,1,,,,,,,,
,,,,,,,,,,,,,FF,,,,,,,,1.2346,,,,,,,,,,,,,,,,,,,,,,60fcb26677a917ac1dd40513,610378be074830d07694c423,2021-07-29_20h58.49.250,Simcolourproject_2stim_asymm_v5,2020.2.10,MacIntel,60,61025ae37ef11b136ea224fe,,,,,,,,,2519,78.25231934,46.43640137,1,0,0,response1disk,,6,18.80163574,6.63873291,1,0,0,rectangle,-60.15612793,36.96279907,1,0,0,4.319641113,-6.34185791,1,0,0,1,41,201,74,1,,response7disk_3,TRUE,1,1,"[170,134,202,132,246,104,125,176,255,9,72,59,26,233,49,194,135,154,13,102]",1.668,rectangle
,,,,,,,,,,,,,FF,,,,,,,,1.5178,,,,,,,,,,,,,,,,,,,,,,60fcb26677a917ac1dd40513,610378be074830d07694c423,2021-07-29_20h58.49.250,Simcolourproject_2stim_asymm_v5,2020.2.10,MacIntel,60,61025ae37ef11b136ea224fe,,,,,,,,,1781,73.59191895,-41.33618164,1,0,0,response3disk,,5,4.225341797,-5.398712158,1,0,0,rectangle,4.225341797,-5.398712158,1,0,0,4.225341797,-5.398712158,1,0,0,1,42,202,20,1,,,,,,,,
,,,,,,,,,,,,,FF,,,,,,,,0.9046,,,,,,,,,,,,,,,,,,,,,,60fcb26677a917ac1dd40513,610378be074830d07694c423,2021-07-29_20h58.49.250,Simcolourproject_2stim_asymm_v5,2020.2.10,MacIntel,60,61025ae37ef11b136ea224fe,,,,,,,,,1783,35.95452881,-58.42163086,1,0,0,response3disk,,4,19.27783203,-10.4034729,1,0,0,rectangle,19.27783203,-10.4034729,1,0,0,19.27783203,-10.4034729,1,0,0,1,43,203,100,1,,,,,,,,
,,,,,,,,,,,,,FF,,,,,,,,0.7443,,,,,,,,,,,,,,,,,,,,,,60fcb26677a917ac1dd40513,610378be074830d07694c423,2021-07-29_20h58.49.250,Simcolourproject_2stim_asymm_v5,2020.2.10,MacIntel,60,61025ae37ef11b136ea224fe,,,,,,,,,2488,-48.95391846,-53.92495728,1,0,0,response5disk,,3,-11.85296631,-8.397705078,1,0,0,rectangle,-11.85296631,-8.397705078,1,0,0,-11.85296631,-8.397705078,1,0,0,1,44,204,63,1,,,,,,,,
,,,,,,,,,,,,,FF,,,,,,,,0.8165,,,,,,,,,,,,,,,,,,,,,,60fcb26677a917ac1dd40513,610378be074830d07694c423,2021-07-29_20h58.49.250,Simcolourproject_2stim_asymm_v5,2020.2.10,MacIntel,60,61025ae37ef11b136ea224fe,,,,,,,,,3557,-30.35955811,-65.5736084,1,0,0,response5disk,,3,-5.675292969,-7.061767578,1,0,0,rectangle,-5.675292969,-7.061767578,1,0,0,-5.675292969,-7.061767578,1,0,0,1,45,205,57,1,,,,,,,,
,,,,,,,,,,,,,FF,,,,,,,,1.6002,,,,,,,,,,,,,,,,,,,,,,60fcb26677a917ac1dd40513,610378be074830d07694c423,2021-07-29_20h58.49.250,Simcolourproject_2stim_asymm_v5,2020.2.10,MacIntel,60,61025ae37ef11b136ea224fe,,,,,,,,,102,-37.55859375,-73.59585571,1,0,0,response5disk,,3,0.297729492,-7.323242188,1,0,0,rectangle,0.297729492,-7.323242188,1,0,0,0.297729492,-7.323242188,1,0,0,1,46,206,8,1,,,,,,,,
,,,,,,,,,,,,,FF,,,,,,,,1.2008,,,,,,,,,,,,,,,,,,,,,,60fcb26677a917ac1dd40513,610378be074830d07694c423,2021-07-29_20h58.49.250,Simcolourproject_2stim_asymm_v5,2020.2.10,MacIntel,60,61025ae37ef11b136ea224fe,,,,,,,,,3006,-67.89221191,-47.06427002,1,0,0,response5disk,,2,7.207763672,-2.125244141,1,0,0,rectangle,7.207763672,-2.125244141,1,0,0,7.207763672,-2.125244141,1,0,0,1,47,207,96,1,,,,,,,,
,,,,,,,,,,,,,FF,,,,,,,,0.5663,,,,,,,,,,,,,,,,,,,,,,60fcb26677a917ac1dd40513,610378be074830d07694c423,2021-07-29_20h58.49.250,Simcolourproject_2stim_asymm_v5,2020.2.10,MacIntel,60,61025ae37ef11b136ea224fe,,,,,,,,,4220,-61.02062988,-38.00939941,1,0,0,response5disk,,2,2.853210449,-14.45056152,1,0,0,rectangle,2.853210449,-14.45056152,1,0,0,2.853210449,-14.45056152,1,0,0,1,48,208,139,1,,,,,,,,
,,,,,,,,,,,,,FF,,,,,,,,0.8005,,,,,,,,,,,,,,,,,,,,,,60fcb26677a917ac1dd40513,610378be074830d07694c423,2021-07-29_20h58.49.250,Simcolourproject_2stim_asymm_v5,2020.2.10,MacIntel,60,61025ae37ef11b136ea224fe,,,,,,,,,1991,81.25646973,43.97723389,1,0,0,response1disk,,6,5.373657227,2.680358887,1,0,0,rectangle,5.373657227,2.680358887,1,0,0,5.373657227,2.680358887,1,0,0,1,49,209,152,1,,,,,,,,
,,,,,,,,,,,,,FF,,,,,,,,0.8002,,,,,,,,,,,,,,,,,,,,,,60fcb26677a917ac1dd40513,610378be074830d07694c423,2021-07-29_20h58.49.250,Simcolourproject_2stim_asymm_v5,2020.2.10,MacIntel,60,61025ae37ef11b136ea224fe,,,,,,,,,3854,32.02600098,-48.95117188,1,0,0,response3disk,,4,-0.206359863,-15.12979126,1,0,0,rectangle,-0.206359863,-15.12979126,1,0,0,-0.206359863,-15.12979126,1,0,0,1,50,210,95,1,,,,,,,,
,,,,,,,,,,,,,FF,,,,,,,,0.7023,,,,,,,,,,,,,,,,,,,,,,60fcb26677a917ac1dd40513,610378be074830d07694c423,2021-07-29_20h58.49.250,Simcolourproject_2stim_asymm_v5,2020.2.10,MacIntel,60,61025ae37ef11b136ea224fe,,,,,,,,,4265,70.2388916,-29.2956543,1,0,0,response3disk,,5,25.03210449,-4.923156738,1,0,0,rectangle,25.03210449,-4.923156738,1,0,0,25.03210449,-4.923156738,1,0,0,1,51,211,59,1,,,,,,,,
,,,,,,,,,,,,,FF,,,,,,,,0.967,,,,,,,,,,,,,,,,,,,,,,60fcb26677a917ac1dd40513,610378be074830d07694c423,2021-07-29_20h58.49.250,Simcolourproject_2stim_asymm_v5,2020.2.10,MacIntel,60,61025ae37ef11b136ea224fe,,,,,,,,,3647,68.56158447,-34.19506836,1,0,0,response3disk,,5,7.656433105,-7.210876465,1,0,0,rectangle,7.656433105,-7.210876465,1,0,0,7.656433105,-7.210876465,1,0,0,1,52,212,62,1,,,,,,,,
,,,,,,,,,,,,,FF,,,,,,,,1.3669,,,,,,,,,,,,,,,,,,,,,,60fcb26677a917ac1dd40513,610378be074830d07694c423,2021-07-29_20h58.49.250,Simcolourproject_2stim_asymm_v5,2020.2.10,MacIntel,60,61025ae37ef11b136ea224fe,,,,,,,,,3073,73.43157959,34.23632813,1,0,0,response1disk,,6,18.71850586,8.729492188,1,0,0,rectangle,18.71850586,8.729492188,1,0,0,18.71850586,8.729492188,1,0,0,1,53,213,90,1,,,,,,,,
,,,,,,,,,,,,,FF,,,,,,,,0.9676,,,,,,,,,,,,,,,,,,,,,,60fcb26677a917ac1dd40513,610378be074830d07694c423,2021-07-29_20h58.49.250,Simcolourproject_2stim_asymm_v5,2020.2.10,MacIntel,60,61025ae37ef11b136ea224fe,,,,,,,,,2140,45.01312256,44.85650635,1,0,0,response1disk,,6,13.65161133,-0.816345215,1,0,0,rectangle,13.65161133,-0.816345215,1,0,0,13.65161133,-0.816345215,1,0,0,1,54,214,102,1,,,,,,,,
,,,,,,,,,,,,,FF,,,,,,,,1.1028,,,,,,,,,,,,,,,,,,,,,,60fcb26677a917ac1dd40513,610378be074830d07694c423,2021-07-29_20h58.49.250,Simcolourproject_2stim_asymm_v5,2020.2.10,MacIntel,60,61025ae37ef11b136ea224fe,,,,,,,,,146,57.2911377,-32.83398438,1,0,0,response3disk,,5,-0.669921875,-1.247375488,1,0,0,rectangle,-0.669921875,-1.247375488,1,0,0,-0.669921875,-1.247375488,1,0,0,1,55,215,2,1,,,,,,,,
,,,,,,,,,,,,,FF,,,,,,,,1,,,,,,,,,,,,,,,,,,,,,,60fcb26677a917ac1dd40513,610378be074830d07694c423,2021-07-29_20h58.49.250,Simcolourproject_2stim_asymm_v5,2020.2.10,MacIntel,60,61025ae37ef11b136ea224fe,,,,,,,,,3592,-55.68261719,-33.59338379,1,0,0,response5disk,,2,-20.25109863,-9.961517334,1,0,0,rectangle,-20.25109863,-9.961517334,1,0,0,-20.25109863,-9.961517334,1,0,0,1,56,216,37,1,,,,,,,,
,,,,,,,,,,,,,FF,,,,,,,,1.1837,,,,,,,,,,,,,,,,,,,,,,60fcb26677a917ac1dd40513,610378be074830d07694c423,2021-07-29_20h58.49.250,Simcolourproject_2stim_asymm_v5,2020.2.10,MacIntel,60,61025ae37ef11b136ea224fe,,,,,,,,,2321,82.49365234,57.94036865,1,0,0,response1disk,,6,15.06225586,9.79498291,1,0,0,rectangle,15.06225586,9.79498291,1,0,0,15.06225586,9.79498291,1,0,0,1,57,217,18,1,,,,,,,,
,,,,,,,,,,,,,FF,,,,,,,,0.8186,,,,,,,,,,,,,,,,,,,,,,60fcb26677a917ac1dd40513,610378be074830d07694c423,2021-07-29_20h58.49.250,Simcolourproject_2stim_asymm_v5,2020.2.10,MacIntel,60,61025ae37ef11b136ea224fe,,,,,,,,,791,46.32373047,-29.91552734,1,0,0,response3disk,,5,-9.165283203,-11.62237549,1,0,0,rectangle,-9.165283203,-11.62237549,1,0,0,-9.165283203,-11.62237549,1,0,0,1,58,218,23,1,,,,,,,,
,,,,,,,,,,,,,FF,,,,,,,,1.7002,,,,,,,,,,,,,,,,,,,,,,60fcb26677a917ac1dd40513,610378be074830d07694c423,2021-07-29_20h58.49.250,Simcolourproject_2stim_asymm_v5,2020.2.10,MacIntel,60,61025ae37ef11b136ea224fe,,,,,,,,,443,-63.18640137,-35.54724121,1,0,0,response5disk,,2,1.192016602,2.048339844,1,0,0,rectangle,1.192016602,2.048339844,1,0,0,1.192016602,2.048339844,1,0,0,1,59,219,41,1,,,,,,,,
,,,,,,,,,,,,,FF,,,,,,,,1.0664,,,,,,,,,,,,,,,,,,,,,,60fcb26677a917ac1dd40513,610378be074830d07694c423,2021-07-29_20h58.49.250,Simcolourproject_2stim_asymm_v5,2020.2.10,MacIntel,60,61025ae37ef11b136ea224fe,,,,,,,,,1270,39.17498779,-53.88110352,1,0,0,response3disk,,4,17.121521,-2.164306641,1,0,0,rectangle,17.121521,-2.164306641,1,0,0,17.121521,-2.164306641,1,0,0,1,60,220,17,1,,,,,,,,
,,,,,,,,,,,,,FF,,,,,,,,0.9339,,,,,,,,,,,,,,,,,,,,,,60fcb26677a917ac1dd40513,610378be074830d07694c423,2021-07-29_20h58.49.250,Simcolourproject_2stim_asymm_v5,2020.2.10,MacIntel,60,61025ae37ef11b136ea224fe,,,,,,,,,2377,22.70898438,-58.46417236,1,0,0,response3disk,,4,2.443359375,-6.914001465,1,0,0,rectangle,2.443359375,-6.914001465,1,0,0,2.443359375,-6.914001465,1,0,0,1,61,221,117,1,,,,,,,,
,,,,,,,,,,,,,FF,,,,,,,,0.9494,,,,,,,,,,,,,,,,,,,,,,60fcb26677a917ac1dd40513,610378be074830d07694c423,2021-07-29_20h58.49.250,Simcolourproject_2stim_asymm_v5,2020.2.10,MacIntel,60,61025ae37ef11b136ea224fe,,,,,,,,,1866,46.80126953,56.98678589,1,0,0,response1disk,,7,11.6416626,1.494049072,1,0,0,rectangle,11.6416626,1.494049072,1,0,0,11.6416626,1.494049072,1,0,0,1,62,222,75,1,,,,,,,,
,,,,,,,,,,,,,FF,,,,,,,,1.7685,,,,,,,,,,,,,,,,,,,,,,60fcb26677a917ac1dd40513,610378be074830d07694c423,2021-07-29_20h58.49.250,Simcolourproject_2stim_asymm_v5,2020.2.10,MacIntel,60,61025ae37ef11b136ea224fe,,,,,,,,,1031,77.0279541,35.99243164,1,0,0,response1disk,,6,11.2467041,1.049560547,1,0,0,rectangle,11.2467041,1.049560547,1,0,0,11.2467041,1.049560547,1,0,0,1,63,223,134,1,,,,,,,,
,,,,,,,,,,,,,FF,,,,,,,,1.985,,,,,,,,,,,,,,,,,,,,,,60fcb26677a917ac1dd40513,610378be074830d07694c423,2021-07-29_20h58.49.250,Simcolourproject_2stim_asymm_v5,2020.2.10,MacIntel,60,61025ae37ef11b136ea224fe,,,,,,,,,3518,46.32385254,-57.11251831,1,0,0,response3disk,,4,0.341674805,-0.56149292,1,0,0,rectangle,0.341674805,-0.56149292,1,0,0,0.341674805,-0.56149292,1,0,0,1,64,224,154,1,,,,,,,,
,,,,,,,,,,,,,FF,,,,,,,,1.0672,,,,,,,,,,,,,,,,,,,,,,60fcb26677a917ac1dd40513,610378be074830d07694c423,2021-07-29_20h58.49.250,Simcolourproject_2stim_asymm_v5,2020.2.10,MacIntel,60,61025ae37ef11b136ea224fe,,,,,,,,,3411,34.46008301,-23.95080566,1,0,0,response3disk,,5,-3.82800293,-6.037353516,1,0,0,rectangle,-3.82800293,-6.037353516,1,0,0,-3.82800293,-6.037353516,1,0,0,1,65,225,146,1,,,,,,,,
,,,,,,,,,,,,,FF,,,,,,,,1.6503,,,,,,,,,,,,,,,,,,,,,,60fcb26677a917ac1dd40513,610378be074830d07694c423,2021-07-29_20h58.49.250,Simcolourproject_2stim_asymm_v5,2020.2.10,MacIntel,60,61025ae37ef11b136ea224fe,,,,,,,,,2947,-67.7567749,-35.22177124,1,0,0,response5disk,,2,-4.750732422,-5.095062256,1,0,0,rectangle,-4.750732422,-5.095062256,1,0,0,-4.750732422,-5.095062256,1,0,0,1,66,226,36,1,,,,,,,,
,,,,,,,,,,,,,FF,,,,,,,,0.9834,,,,,,,,,,,,,,,,,,,,,,60fcb26677a917ac1dd40513,610378be074830d07694c423,2021-07-29_20h58.49.250,Simcolourproject_2stim_asymm_v5,2020.2.10,MacIntel,60,61025ae37ef11b136ea224fe,,,,,,,,,1227,-18.70788574,-66.03607178,1,0,0,response5disk,,3,13.24194336,-10.28509521,1,0,0,rectangle,13.24194336,-10.28509521,1,0,0,13.24194336,-10.28509521,1,0,0,1,67,227,145,1,,,,,,,,
,,,,,,,,,,,,,FF,,,,,,,,0.7054,,,,,,,,,,,,,,,,,,,,,,60fcb26677a917ac1dd40513,610378be074830d07694c423,2021-07-29_20h58.49.250,Simcolourproject_2stim_asymm_v5,2020.2.10,MacIntel,60,61025ae37ef11b136ea224fe,,,,,,,,,3737,51.80029297,-29.77386475,1,0,0,response3disk,,5,9.1953125,-3.868041992,1,0,0,rectangle,9.1953125,-3.868041992,1,0,0,9.1953125,-3.868041992,1,0,0,1,68,228,4,1,,,,,,,,
,,,,,,,,,,,,,FF,,,,,,,,0.6509,,,,,,,,,,,,,,,,,,,,,,60fcb26677a917ac1dd40513,610378be074830d07694c423,2021-07-29_20h58.49.250,Simcolourproject_2stim_asymm_v5,2020.2.10,MacIntel,60,61025ae37ef11b136ea224fe,,,,,,,,,1714,57.25921631,24.61804199,1,0,0,response1disk,,6,-8.391540527,-2.709777832,1,0,0,rectangle,-8.391540527,-2.709777832,1,0,0,-8.391540527,-2.709777832,1,0,0,1,69,229,104,1,,,,,,,,
,,,,,,,,,,,,,FF,,,,,,,,1.3513,,,,,,,,,,,,,,,,,,,,,,60fcb26677a917ac1dd40513,610378be074830d07694c423,2021-07-29_20h58.49.250,Simcolourproject_2stim_asymm_v5,2020.2.10,MacIntel,60,61025ae37ef11b136ea224fe,,,,,,,,,140,52.10552979,-22.31616211,1,0,0,response3disk,,5,20.40942383,5.825195313,1,0,0,rectangle,20.40942383,5.825195313,1,0,0,20.40942383,5.825195313,1,0,0,1,70,230,85,1,,,,,,,,
,,,,,,,,,,,,,FF,,,,,,,,1.1515,,,,,,,,,,,,,,,,,,,,,,60fcb26677a917ac1dd40513,610378be074830d07694c423,2021-07-29_20h58.49.250,Simcolourproject_2stim_asymm_v5,2020.2.10,MacIntel,60,61025ae37ef11b136ea224fe,,,,,,,,,3255,33.56237793,-41.96844482,1,0,0,response3disk,,4,10.97076416,-8.280151367,1,0,0,rectangle,10.97076416,-8.280151367,1,0,0,10.97076416,-8.280151367,1,0,0,1,71,231,1,1,,,,,,,,
,,,,,,,,,,,,,FF,,,,,,,,0.7451,,,,,,,,,,,,,,,,,,,,,,60fcb26677a917ac1dd40513,610378be074830d07694c423,2021-07-29_20h58.49.250,Simcolourproject_2stim_asymm_v5,2020.2.10,MacIntel,60,61025ae37ef11b136ea224fe,,,,,,,,,2987,-36.53039551,-43.93548584,1,0,0,response5disk,,3,-15.70892334,-10.9458313,1,0,0,rectangle,84.8894043,36.8493042,1,0,0,7.709838867,-1.608520508,1,0,0,1,72,232,84,1,,response1disk_3,TRUE,6,6,"[170,134,202,132,246,104,125,176,255,9,72,59,26,233,49,194,135,154,13,102]",1.5331,rectangle
,,,,,,,,,,,,,FF,,,,,,,,1.3835,,,,,,,,,,,,,,,,,,,,,,60fcb26677a917ac1dd40513,610378be074830d07694c423,2021-07-29_20h58.49.250,Simcolourproject_2stim_asymm_v5,2020.2.10,MacIntel,60,61025ae37ef11b136ea224fe,,,,,,,,,1745,-71.66113281,-36.98321533,1,0,0,response5disk,,2,1.649902344,-5.500305176,1,0,0,rectangle,1.649902344,-5.500305176,1,0,0,1.649902344,-5.500305176,1,0,0,1,73,233,138,1,,,,,,,,
,,,,,,,,,,,,,FF,,,,,,,,1.0175,,,,,,,,,,,,,,,,,,,,,,60fcb26677a917ac1dd40513,610378be074830d07694c423,2021-07-29_20h58.49.250,Simcolourproject_2stim_asymm_v5,2020.2.10,MacIntel,60,61025ae37ef11b136ea224fe,,,,,,,,,2082,67.43273926,27.50732422,1,0,0,response1disk,,6,2.882568359,-2.313964844,1,0,0,rectangle,2.882568359,-2.313964844,1,0,0,2.882568359,-2.313964844,1,0,0,1,74,234,78,1,,,,,,,,
,,,,,,,,,,,,,FF,,,,,,,,0.6508,,,,,,,,,,,,,,,,,,,,,,60fcb26677a917ac1dd40513,610378be074830d07694c423,2021-07-29_20h58.49.250,Simcolourproject_2stim_asymm_v5,2020.2.10,MacIntel,60,61025ae37ef11b136ea224fe,,,,,,,,,3949,58.37817383,-39.39422607,1,0,0,response3disk,,5,10.76580811,-9.08984375,1,0,0,rectangle,10.76580811,-9.08984375,1,0,0,10.76580811,-9.08984375,1,0,0,1,75,235,19,1,,,,,,,,
,,,,,,,,,,,,,FF,,,,,,,,0.8514,,,,,,,,,,,,,,,,,,,,,,60fcb26677a917ac1dd40513,610378be074830d07694c423,2021-07-29_20h58.49.250,Simcolourproject_2stim_asymm_v5,2020.2.10,MacIntel,60,61025ae37ef11b136ea224fe,,,,,,,,,3584,-29.12310791,-45.15841675,1,0,0,response5disk,,3,-1.994140625,10.04425049,1,0,0,rectangle,-1.994140625,10.04425049,1,0,0,-1.994140625,10.04425049,1,0,0,1,76,236,158,1,,,,,,,,
,,,,,,,,,,,,,FF,,,,,,,,0.8808,,,,,,,,,,,,,,,,,,,,,,60fcb26677a917ac1dd40513,610378be074830d07694c423,2021-07-29_20h58.49.250,Simcolourproject_2stim_asymm_v5,2020.2.10,MacIntel,60,61025ae37ef11b136ea224fe,,,,,,,,,4276,21.67736816,-42.20925903,1,0,0,response3disk,,4,8.368713379,-5.297424316,1,0,0,rectangle,8.368713379,-5.297424316,1,0,0,8.368713379,-5.297424316,1,0,0,1,77,237,83,1,,,,,,,,
,,,,,,,,,,,,,FF,,,,,,,,0.9675,,,,,,,,,,,,,,,,,,,,,,60fcb26677a917ac1dd40513,610378be074830d07694c423,2021-07-29_20h58.49.250,Simcolourproject_2stim_asymm_v5,2020.2.10,MacIntel,60,61025ae37ef11b136ea224fe,,,,,,,,,3705,-27.87475586,71.77911377,1,0,0,response7disk,,0,-1.354980469,10.66955566,1,0,0,rectangle,-1.354980469,10.66955566,1,0,0,-1.354980469,10.66955566,1,0,0,1,78,238,48,1,,,,,,,,
,,,,,,,,,,,,,FF,,,,,,,,1.1175,,,,,,,,,,,,,,,,,,,,,,60fcb26677a917ac1dd40513,610378be074830d07694c423,2021-07-29_20h58.49.250,Simcolourproject_2stim_asymm_v5,2020.2.10,MacIntel,60,61025ae37ef11b136ea224fe,,,,,,,,,1107,55.5569458,-25.32342529,1,0,0,response3disk,,5,9.220825195,-4.404724121,1,0,0,rectangle,9.220825195,-4.404724121,1,0,0,9.220825195,-4.404724121,1,0,0,1,79,239,9,1,,,,,,,,
