key_resp.keys,key_resp.rt,key_resp_14.keys,key_resp_14.rt,key_resp_15.keys,key_resp_15.rt,key_resp_17.keys,key_resp_17.rt,key_resp_9.keys,key_resp_9.rt,key_resp_10.keys,key_resp_10.rt,practice_comparison,Ecc,mouse_5.x,mouse_5.y,mouse_5.leftButton,mouse_5.midButton,mouse_5.rightButton,mouse_5.clicked_name,pracsimilarity,response_time,mouse_10.x,mouse_10.y,mouse_10.leftButton,mouse_10.midButton,mouse_10.rightButton,mouse_10.clicked_name,mouse_7.x,mouse_7.y,mouse_7.leftButton,mouse_7.midButton,mouse_7.rightButton,mouse_6.x,mouse_6.y,mouse_6.leftButton,mouse_6.midButton,mouse_6.rightButton,duringprac.thisRepN,duringprac.thisTrialN,duringprac.thisN,duringprac.thisIndex,duringprac.ran,participant,session,date,expName,psychopyVersion,OS,frameRate,study_id,mouse_7.clicked_name,catchpracsimilarity,catch_response_time,catchnumberprac,catchtrialorderprac,mouse_6.clicked_name,key_resp_22.keys,key_resp_22.rt,realcomparison,mouse.x,mouse.y,mouse.leftButton,mouse.midButton,mouse.rightButton,mouse.clicked_name,Colour2,similarity,mouse_2.x,mouse_2.y,mouse_2.leftButton,mouse_2.midButton,mouse_2.rightButton,mouse_2.clicked_name,mouse_3.x,mouse_3.y,mouse_3.leftButton,mouse_3.midButton,mouse_3.rightButton,mouse_11.x,mouse_11.y,mouse_11.leftButton,mouse_11.midButton,mouse_11.rightButton,trials_2.thisRepN,trials_2.thisTrialN,trials_2.thisN,trials_2.thisIndex,trials_2.ran,Colour1,mouse_3.clicked_name,catchornah,catchsimilarity,catchnumber,catchtrialorder,catchRT,mouse_11.clicked_name
space,2.2018,space,9.0376,space,28.0109,space,1.8098,space,42.4205,space,4.1003,70,PF,-62.39994066,-73.60000753,1,0,0,response5disk_5,3,12.2979,-19.19998884,7.999993682,1,0,0,rectangle_8,-19.19998884,7.999993682,1,0,0,-19.19998884,7.999993682,1,0,0,0,0,0,1,1,60fce0e8a964011b8f172445,61036dd6377eb09d6274ba3e,2021-07-29_22h13.40.817,Simcolourproject_2stim_asymm_v5,2020.2.10,Win32,60,61025ae37ef11b136ea224fe,,,,,,,,,,,,,,,,,,,,,,,,,,,,,,,,,,,,,,,,,,,,,,
,,,,,,,,,,,,37,PF,-49.5999893,-76.00000757,1,0,0,response5disk_5,3,4.1662,-9.599988699,0.799993575,1,0,0,rectangle_8,-103.1999901,-43.20000708,1,0,0,-0.799988568,-4.800006509,1,0,0,0,1,1,6,1,60fce0e8a964011b8f172445,61036dd6377eb09d6274ba3e,2021-07-29_22h13.40.817,Simcolourproject_2stim_asymm_v5,2020.2.10,Win32,60,61025ae37ef11b136ea224fe,response5disk_7,2,2.7676,2,"[2,5]",rectangle_4,,,,,,,,,,,,,,,,,,,,,,,,,,,,,,,,,,,,,,,,
,,,,,,,,,,,,68,FF,98.40001291,-54.40000725,1,0,0,response3disk_5,5,5.4664,1.600060296,11.19999373,1,0,0,rectangle_8,1.600060296,11.19999373,1,0,0,1.600060296,11.19999373,1,0,0,0,2,2,0,1,60fce0e8a964011b8f172445,61036dd6377eb09d6274ba3e,2021-07-29_22h13.40.817,Simcolourproject_2stim_asymm_v5,2020.2.10,Win32,60,61025ae37ef11b136ea224fe,,,,,,,,,,,,,,,,,,,,,,,,,,,,,,,,,,,,,,,,,,,,,,
,,,,,,,,,,,,124,FF,-68.79998958,119.9999954,1,0,0,response7disk_5,0,2.4663,-8.799988687,-3.200006485,1,0,0,rectangle_8,-8.799988687,-3.200006485,1,0,0,-8.799988687,-3.200006485,1,0,0,0,3,3,5,1,60fce0e8a964011b8f172445,61036dd6377eb09d6274ba3e,2021-07-29_22h13.40.817,Simcolourproject_2stim_asymm_v5,2020.2.10,Win32,60,61025ae37ef11b136ea224fe,,,,,,,,,,,,,,,,,,,,,,,,,,,,,,,,,,,,,,,,,,,,,,
,,,,,,,,,,,,34,PF,87.20001274,70.39999461,1,0,0,response1disk_5,6,3.4667,-4.799988627,-13.60000664,1,0,0,rectangle_8,-97.59999001,-27.20000684,1,0,0,-1.59998858,-5.600006521,1,0,0,0,4,4,4,1,60fce0e8a964011b8f172445,61036dd6377eb09d6274ba3e,2021-07-29_22h13.40.817,Simcolourproject_2stim_asymm_v5,2020.2.10,Win32,60,61025ae37ef11b136ea224fe,response5disk_7,2,2.2665,2,"[2,5]",rectangle_4,,,,,,,,,,,,,,,,,,,,,,,,,,,,,,,,,,,,,,,,
,,,,,,,,,,,,53,FF,42.40001208,77.59999472,1,0,0,response1disk_5,7,1.3667,-3.999988616,-4.000006497,1,0,0,rectangle_8,-3.999988616,-4.000006497,1,0,0,-3.999988616,-4.000006497,1,0,0,0,5,5,3,1,60fce0e8a964011b8f172445,61036dd6377eb09d6274ba3e,2021-07-29_22h13.40.817,Simcolourproject_2stim_asymm_v5,2020.2.10,Win32,60,61025ae37ef11b136ea224fe,,,,,,,,,,,,,,,,,,,,,,,,,,,,,,,,,,,,,,,,,,,,,,
,,,,,,,,,,,,98,PF,45.60006095,79.19997033,1,0,0,response1disk_5,7,1.0005,6.400011539,0.799993575,1,0,0,rectangle_8,6.400011539,0.799993575,1,0,0,6.400011539,0.799993575,1,0,0,0,6,6,2,1,60fce0e8a964011b8f172445,61036dd6377eb09d6274ba3e,2021-07-29_22h13.40.817,Simcolourproject_2stim_asymm_v5,2020.2.10,Win32,60,61025ae37ef11b136ea224fe,,,,,,,,,,,,,,,,,,,,,,,,,,,,,,,,,,,,,,,,,,,,,,
,,,,,,,,,,,,,FF,,,,,,,,1.4673,,,,,,,,,,,,,,,,,,,,,,60fce0e8a964011b8f172445,61036dd6377eb09d6274ba3e,2021-07-29_22h13.40.817,Simcolourproject_2stim_asymm_v5,2020.2.10,Win32,60,61025ae37ef11b136ea224fe,,,,,,,space,2.6662,4359,50.4000122,95.99999499,1,0,0,response1disk,,7,12.00001162,3.999993622,1,0,0,rectangle,12.00001162,3.999993622,1,0,0,12.00001162,3.999993622,1,0,0,0,0,0,122,1,,,,,,,,
,,,,,,,,,,,,,FF,,,,,,,,0.9001,,,,,,,,,,,,,,,,,,,,,,60fce0e8a964011b8f172445,61036dd6377eb09d6274ba3e,2021-07-29_22h13.40.817,Simcolourproject_2stim_asymm_v5,2020.2.10,Win32,60,61025ae37ef11b136ea224fe,,,,,,,,,275,43.20001209,81.59999478,1,0,0,response1disk,,7,2.40001148,4.799993634,1,0,0,rectangle,2.40001148,4.799993634,1,0,0,2.40001148,4.799993634,1,0,0,0,1,1,142,1,,,,,,,,
,,,,,,,,,,,,,FF,,,,,,,,0.8999,,,,,,,,,,,,,,,,,,,,,,60fce0e8a964011b8f172445,61036dd6377eb09d6274ba3e,2021-07-29_22h13.40.817,Simcolourproject_2stim_asymm_v5,2020.2.10,Win32,60,61025ae37ef11b136ea224fe,,,,,,,,,1279,51.20001221,111.1999708,1,0,0,response1disk,,7,-5.599988639,6.399993658,1,0,0,rectangle,-5.599988639,6.399993658,1,0,0,-5.599988639,6.399993658,1,0,0,0,2,2,36,1,,,,,,,,
,,,,,,,,,,,,,FF,,,,,,,,0.8169,,,,,,,,,,,,,,,,,,,,,,60fce0e8a964011b8f172445,61036dd6377eb09d6274ba3e,2021-07-29_22h13.40.817,Simcolourproject_2stim_asymm_v5,2020.2.10,Win32,60,61025ae37ef11b136ea224fe,,,,,,,,,2864,44.80001211,83.99999481,1,0,0,response1disk,,7,4.000011504,0.799993575,1,0,0,rectangle,4.000011504,0.799993575,1,0,0,4.000011504,0.799993575,1,0,0,0,3,3,76,1,,,,,,,,
,,,,,,,,,,,,,FF,,,,,,,,0.8505,,,,,,,,,,,,,,,,,,,,,,60fce0e8a964011b8f172445,61036dd6377eb09d6274ba3e,2021-07-29_22h13.40.817,Simcolourproject_2stim_asymm_v5,2020.2.10,Win32,60,61025ae37ef11b136ea224fe,,,,,,,,,2660,-40.79998916,83.19997039,1,0,0,response7disk,,0,2.40001148,0.799993575,1,0,0,rectangle,2.40001148,0.799993575,1,0,0,2.40001148,0.799993575,1,0,0,0,4,4,157,1,,,,,,,,
,,,,,,,,,,,,,FF,,,,,,,,2.5995,,,,,,,,,,,,,,,,,,,,,,60fce0e8a964011b8f172445,61036dd6377eb09d6274ba3e,2021-07-29_22h13.40.817,Simcolourproject_2stim_asymm_v5,2020.2.10,Win32,60,61025ae37ef11b136ea224fe,,,,,,,,,2168,101.600013,-44.00000709,1,0,0,response3disk,,5,1.600060296,3.19999361,1,0,0,rectangle,-75.19998968,-104.800008,1,0,0,-3.199988604,2.399993598,1,0,0,0,5,5,72,1,,response5disk_3,TRUE,3,3,"[190,89,313,282,140,249,262,6,155,152,262,229,265,65,213,247,73,95,318,295]",2.5003,rectangle
,,,,,,,,,,,,,FF,,,,,,,,1.0165,,,,,,,,,,,,,,,,,,,,,,60fce0e8a964011b8f172445,61036dd6377eb09d6274ba3e,2021-07-29_22h13.40.817,Simcolourproject_2stim_asymm_v5,2020.2.10,Win32,60,61025ae37ef11b136ea224fe,,,,,,,,,584,46.40001214,79.99999475,1,0,0,response1disk,,7,7.200011551,-6.400006533,1,0,0,rectangle,7.200011551,-6.400006533,1,0,0,7.200011551,-6.400006533,1,0,0,0,6,6,150,1,,,,,,,,
,,,,,,,,,,,,,FF,,,,,,,,2.5666,,,,,,,,,,,,,,,,,,,,,,60fce0e8a964011b8f172445,61036dd6377eb09d6274ba3e,2021-07-29_22h13.40.817,Simcolourproject_2stim_asymm_v5,2020.2.10,Win32,60,61025ae37ef11b136ea224fe,,,,,,,,,1524,-56.7999894,-96.80000788,1,0,0,response5disk,,3,16.00001168,6.399993658,1,0,0,rectangle,16.00001168,6.399993658,1,0,0,16.00001168,6.399993658,1,0,0,0,7,7,69,1,,,,,,,,
,,,,,,,,,,,,,FF,,,,,,,,0.9501,,,,,,,,,,,,,,,,,,,,,,60fce0e8a964011b8f172445,61036dd6377eb09d6274ba3e,2021-07-29_22h13.40.817,Simcolourproject_2stim_asymm_v5,2020.2.10,Win32,60,61025ae37ef11b136ea224fe,,,,,,,,,1163,38.40001202,74.39999467,1,0,0,response1disk,,7,-11.99998873,3.19999361,1,0,0,rectangle,-11.99998873,3.19999361,1,0,0,-11.99998873,3.19999361,1,0,0,0,8,8,147,1,,,,,,,,
,,,,,,,,,,,,,FF,,,,,,,,0.7335,,,,,,,,,,,,,,,,,,,,,,60fce0e8a964011b8f172445,61036dd6377eb09d6274ba3e,2021-07-29_22h13.40.817,Simcolourproject_2stim_asymm_v5,2020.2.10,Win32,60,61025ae37ef11b136ea224fe,,,,,,,,,778,29.60006071,76.79999471,1,0,0,response1disk,,7,5.600060356,8.799993694,1,0,0,rectangle,5.600060356,8.799993694,1,0,0,5.600060356,8.799993694,1,0,0,0,9,9,110,1,,,,,,,,
,,,,,,,,,,,,,FF,,,,,,,,2.2999,,,,,,,,,,,,,,,,,,,,,,60fce0e8a964011b8f172445,61036dd6377eb09d6274ba3e,2021-07-29_22h13.40.817,Simcolourproject_2stim_asymm_v5,2020.2.10,Win32,60,61025ae37ef11b136ea224fe,,,,,,,,,702,54.40001225,-96.00000787,1,0,0,response3disk,,4,10.4000116,-5.600006521,1,0,0,rectangle,10.4000116,-5.600006521,1,0,0,10.4000116,-5.600006521,1,0,0,0,10,10,25,1,,,,,,,,
,,,,,,,,,,,,,FF,,,,,,,,0.8166,,,,,,,,,,,,,,,,,,,,,,60fce0e8a964011b8f172445,61036dd6377eb09d6274ba3e,2021-07-29_22h13.40.817,Simcolourproject_2stim_asymm_v5,2020.2.10,Win32,60,61025ae37ef11b136ea224fe,,,,,,,,,843,52.00001222,82.39999479,1,0,0,response1disk,,7,8.800011575,-1.600006461,1,0,0,rectangle,8.800011575,-1.600006461,1,0,0,8.800011575,-1.600006461,1,0,0,0,11,11,92,1,,,,,,,,
,,,,,,,,,,,,,FF,,,,,,,,0.6832,,,,,,,,,,,,,,,,,,,,,,60fce0e8a964011b8f172445,61036dd6377eb09d6274ba3e,2021-07-29_22h13.40.817,Simcolourproject_2stim_asymm_v5,2020.2.10,Win32,60,61025ae37ef11b136ea224fe,,,,,,,,,3127,36.80001199,104.7999951,1,0,0,response1disk,,7,4.000011504,11.19999373,1,0,0,rectangle,4.000011504,11.19999373,1,0,0,4.000011504,11.19999373,1,0,0,0,12,12,116,1,,,,,,,,
,,,,,,,,,,,,,FF,,,,,,,,0.6,,,,,,,,,,,,,,,,,,,,,,60fce0e8a964011b8f172445,61036dd6377eb09d6274ba3e,2021-07-29_22h13.40.817,Simcolourproject_2stim_asymm_v5,2020.2.10,Win32,60,61025ae37ef11b136ea224fe,,,,,,,,,2904,36.00001198,89.5999949,1,0,0,response1disk,,7,-3.199988604,4.799993634,1,0,0,rectangle,-3.199988604,4.799993634,1,0,0,-3.199988604,4.799993634,1,0,0,0,13,13,119,1,,,,,,,,
,,,,,,,,,,,,,FF,,,,,,,,0.617,,,,,,,,,,,,,,,,,,,,,,60fce0e8a964011b8f172445,61036dd6377eb09d6274ba3e,2021-07-29_22h13.40.817,Simcolourproject_2stim_asymm_v5,2020.2.10,Win32,60,61025ae37ef11b136ea224fe,,,,,,,,,3355,31.20001191,86.39999485,1,0,0,response1disk,,7,12.00001162,12.79999375,1,0,0,rectangle,12.00001162,12.79999375,1,0,0,12.00001162,12.79999375,1,0,0,0,14,14,152,1,,,,,,,,
,,,,,,,,,,,,,FF,,,,,,,,1.2164,,,,,,,,,,,,,,,,,,,,,,60fce0e8a964011b8f172445,61036dd6377eb09d6274ba3e,2021-07-29_22h13.40.817,Simcolourproject_2stim_asymm_v5,2020.2.10,Win32,60,61025ae37ef11b136ea224fe,,,,,,,,,2029,-42.39994036,-104.800008,1,0,0,response5disk,,3,10.4000116,-4.000006497,1,0,0,rectangle,10.4000116,-4.000006497,1,0,0,10.4000116,-4.000006497,1,0,0,0,15,15,120,1,,,,,,,,
,,,,,,,,,,,,,FF,,,,,,,,0.9003,,,,,,,,,,,,,,,,,,,,,,60fce0e8a964011b8f172445,61036dd6377eb09d6274ba3e,2021-07-29_22h13.40.817,Simcolourproject_2stim_asymm_v5,2020.2.10,Win32,60,61025ae37ef11b136ea224fe,,,,,,,,,625,42.40001208,73.59999466,1,0,0,response1disk,,7,3.200011492,1.599993587,1,0,0,rectangle,3.200011492,1.599993587,1,0,0,3.200011492,1.599993587,1,0,0,0,16,16,113,1,,,,,,,,
,,,,,,,,,,,,,FF,,,,,,,,0.6833,,,,,,,,,,,,,,,,,,,,,,60fce0e8a964011b8f172445,61036dd6377eb09d6274ba3e,2021-07-29_22h13.40.817,Simcolourproject_2stim_asymm_v5,2020.2.10,Win32,60,61025ae37ef11b136ea224fe,,,,,,,,,2067,51.20001221,107.1999707,1,0,0,response1disk,,7,-2.399939764,0.799993575,1,0,0,rectangle,-2.399939764,0.799993575,1,0,0,-2.399939764,0.799993575,1,0,0,0,17,17,20,1,,,,,,,,
,,,,,,,,,,,,,FF,,,,,,,,0.8169,,,,,,,,,,,,,,,,,,,,,,60fce0e8a964011b8f172445,61036dd6377eb09d6274ba3e,2021-07-29_22h13.40.817,Simcolourproject_2stim_asymm_v5,2020.2.10,Win32,60,61025ae37ef11b136ea224fe,,,,,,,,,602,43.20001209,90.39999491,1,0,0,response1disk,,7,4.800011516,3.19999361,1,0,0,rectangle,4.800011516,3.19999361,1,0,0,4.800011516,3.19999361,1,0,0,0,18,18,26,1,,,,,,,,
,,,,,,,,,,,,,FF,,,,,,,,0.883,,,,,,,,,,,,,,,,,,,,,,60fce0e8a964011b8f172445,61036dd6377eb09d6274ba3e,2021-07-29_22h13.40.817,Simcolourproject_2stim_asymm_v5,2020.2.10,Win32,60,61025ae37ef11b136ea224fe,,,,,,,,,449,40.80001205,107.1999707,1,0,0,response1disk,,7,-3.199988604,-6.400006533,1,0,0,rectangle,-3.199988604,-6.400006533,1,0,0,-3.199988604,-6.400006533,1,0,0,0,19,19,111,1,,,,,,,,
,,,,,,,,,,,,,FF,,,,,,,,0.75,,,,,,,,,,,,,,,,,,,,,,60fce0e8a964011b8f172445,61036dd6377eb09d6274ba3e,2021-07-29_22h13.40.817,Simcolourproject_2stim_asymm_v5,2020.2.10,Win32,60,61025ae37ef11b136ea224fe,,,,,,,,,1095,20.80001175,57.59999442,1,0,0,response1disk,,7,1.600060296,3.19999361,1,0,0,rectangle,1.600060296,3.19999361,1,0,0,1.600060296,3.19999361,1,0,0,0,20,20,12,1,,,,,,,,
,,,,,,,,,,,,,FF,,,,,,,,0.6661,,,,,,,,,,,,,,,,,,,,,,60fce0e8a964011b8f172445,61036dd6377eb09d6274ba3e,2021-07-29_22h13.40.817,Simcolourproject_2stim_asymm_v5,2020.2.10,Win32,60,61025ae37ef11b136ea224fe,,,,,,,,,2567,44.80001211,80.79999477,1,0,0,response1disk,,7,18.40001172,-2.400006473,1,0,0,rectangle,18.40001172,-2.400006473,1,0,0,18.40001172,-2.400006473,1,0,0,0,21,21,155,1,,,,,,,,
,,,,,,,,,,,,,FF,,,,,,,,0.717,,,,,,,,,,,,,,,,,,,,,,60fce0e8a964011b8f172445,61036dd6377eb09d6274ba3e,2021-07-29_22h13.40.817,Simcolourproject_2stim_asymm_v5,2020.2.10,Win32,60,61025ae37ef11b136ea224fe,,,,,,,,,676,37.60006083,87.99999487,1,0,0,response1disk,,7,0.800011456,-0.800006449,1,0,0,rectangle,0.800011456,-0.800006449,1,0,0,0.800011456,-0.800006449,1,0,0,0,22,22,146,1,,,,,,,,
,,,,,,,,,,,,,FF,,,,,,,,0.633,,,,,,,,,,,,,,,,,,,,,,60fce0e8a964011b8f172445,61036dd6377eb09d6274ba3e,2021-07-29_22h13.40.817,Simcolourproject_2stim_asymm_v5,2020.2.10,Win32,60,61025ae37ef11b136ea224fe,,,,,,,,,1407,38.40001202,75.9999947,1,0,0,response1disk,,7,26.40001184,0.799993575,1,0,0,rectangle,26.40001184,0.799993575,1,0,0,26.40001184,0.799993575,1,0,0,0,23,23,51,1,,,,,,,,
,,,,,,,,,,,,,FF,,,,,,,,2.3504,,,,,,,,,,,,,,,,,,,,,,60fce0e8a964011b8f172445,61036dd6377eb09d6274ba3e,2021-07-29_22h13.40.817,Simcolourproject_2stim_asymm_v5,2020.2.10,Win32,60,61025ae37ef11b136ea224fe,,,,,,,,,2283,76.80001259,-48.00000715,1,0,0,response3disk,,5,4.000011504,-6.400006533,1,0,0,rectangle,4.000011504,-6.400006533,1,0,0,4.000011504,-6.400006533,1,0,0,0,24,24,32,1,,,,,,,,
,,,,,,,,,,,,,FF,,,,,,,,2.2166,,,,,,,,,,,,,,,,,,,,,,60fce0e8a964011b8f172445,61036dd6377eb09d6274ba3e,2021-07-29_22h13.40.817,Simcolourproject_2stim_asymm_v5,2020.2.10,Win32,60,61025ae37ef11b136ea224fe,,,,,,,,,373,-84.79998982,-57.6000073,1,0,0,response5disk,,2,-19.19998884,3.19999361,1,0,0,rectangle,-19.19998884,3.19999361,1,0,0,-19.19998884,3.19999361,1,0,0,0,25,25,97,1,,,,,,,,
,,,,,,,,,,,,,FF,,,,,,,,2.4159,,,,,,,,,,,,,,,,,,,,,,60fce0e8a964011b8f172445,61036dd6377eb09d6274ba3e,2021-07-29_22h13.40.817,Simcolourproject_2stim_asymm_v5,2020.2.10,Win32,60,61025ae37ef11b136ea224fe,,,,,,,,,3848,-94.39994113,59.19997003,1,0,0,response7disk,,1,2.40001148,-5.600006521,1,0,0,rectangle,2.40001148,-5.600006521,1,0,0,2.40001148,-5.600006521,1,0,0,0,26,26,24,1,,,,,,,,
,,,,,,,,,,,,,FF,,,,,,,,1.2667,,,,,,,,,,,,,,,,,,,,,,60fce0e8a964011b8f172445,61036dd6377eb09d6274ba3e,2021-07-29_22h13.40.817,Simcolourproject_2stim_asymm_v5,2020.2.10,Win32,60,61025ae37ef11b136ea224fe,,,,,,,,,3083,42.40001208,76.79999471,1,0,0,response1disk,,7,8.000011563,2.399993598,1,0,0,rectangle,8.000011563,2.399993598,1,0,0,8.000011563,2.399993598,1,0,0,0,27,27,133,1,,,,,,,,
,,,,,,,,,,,,,FF,,,,,,,,0.7832,,,,,,,,,,,,,,,,,,,,,,60fce0e8a964011b8f172445,61036dd6377eb09d6274ba3e,2021-07-29_22h13.40.817,Simcolourproject_2stim_asymm_v5,2020.2.10,Win32,60,61025ae37ef11b136ea224fe,,,,,,,,,2082,43.20001209,82.39999479,1,0,0,response1disk,,7,5.600060356,7.999993682,1,0,0,rectangle,5.600060356,7.999993682,1,0,0,5.600060356,7.999993682,1,0,0,0,28,28,123,1,,,,,,,,
,,,,,,,,,,,,,FF,,,,,,,,0.6837,,,,,,,,,,,,,,,,,,,,,,60fce0e8a964011b8f172445,61036dd6377eb09d6274ba3e,2021-07-29_22h13.40.817,Simcolourproject_2stim_asymm_v5,2020.2.10,Win32,60,61025ae37ef11b136ea224fe,,,,,,,,,4279,40.00001204,87.99999487,1,0,0,response1disk,,7,2.40001148,0.799993575,1,0,0,rectangle,2.40001148,0.799993575,1,0,0,2.40001148,0.799993575,1,0,0,0,29,29,138,1,,,,,,,,
,,,,,,,,,,,,,FF,,,,,,,,3.4998,,,,,,,,,,,,,,,,,,,,,,60fce0e8a964011b8f172445,61036dd6377eb09d6274ba3e,2021-07-29_22h13.40.817,Simcolourproject_2stim_asymm_v5,2020.2.10,Win32,60,61025ae37ef11b136ea224fe,,,,,,,,,4070,33.60006077,82.39999479,1,0,0,response1disk,,7,-7.199988663,11.19999373,1,0,0,rectangle,-7.199988663,11.19999373,1,0,0,-7.199988663,11.19999373,1,0,0,0,30,30,80,1,,,,,,,,
,,,,,,,,,,,,,FF,,,,,,,,0.697,,,,,,,,,,,,,,,,,,,,,,60fce0e8a964011b8f172445,61036dd6377eb09d6274ba3e,2021-07-29_22h13.40.817,Simcolourproject_2stim_asymm_v5,2020.2.10,Win32,60,61025ae37ef11b136ea224fe,,,,,,,,,3886,36.00001198,91.19997051,1,0,0,response1disk,,7,2.40001148,-7.200006545,1,0,0,rectangle,2.40001148,-7.200006545,1,0,0,2.40001148,-7.200006545,1,0,0,0,31,31,17,1,,,,,,,,
,,,,,,,,,,,,,FF,,,,,,,,0.6333,,,,,,,,,,,,,,,,,,,,,,60fce0e8a964011b8f172445,61036dd6377eb09d6274ba3e,2021-07-29_22h13.40.817,Simcolourproject_2stim_asymm_v5,2020.2.10,Win32,60,61025ae37ef11b136ea224fe,,,,,,,,,2616,55.20001227,100.7999951,1,0,0,response1disk,,7,-11.99998873,-10.40000659,1,0,0,rectangle,-11.99998873,-10.40000659,1,0,0,-11.99998873,-10.40000659,1,0,0,0,32,32,144,1,,,,,,,,
,,,,,,,,,,,,,FF,,,,,,,,1.3498,,,,,,,,,,,,,,,,,,,,,,60fce0e8a964011b8f172445,61036dd6377eb09d6274ba3e,2021-07-29_22h13.40.817,Simcolourproject_2stim_asymm_v5,2020.2.10,Win32,60,61025ae37ef11b136ea224fe,,,,,,,,,2610,35.20001197,-108.8000081,1,0,0,response3disk,,4,16.80001169,-0.800006449,1,0,0,rectangle,16.80001169,-0.800006449,1,0,0,16.80001169,-0.800006449,1,0,0,0,33,33,75,1,,,,,,,,
,,,,,,,,,,,,,FF,,,,,,,,0.6833,,,,,,,,,,,,,,,,,,,,,,60fce0e8a964011b8f172445,61036dd6377eb09d6274ba3e,2021-07-29_22h13.40.817,Simcolourproject_2stim_asymm_v5,2020.2.10,Win32,60,61025ae37ef11b136ea224fe,,,,,,,,,3765,48.80001217,72.79999465,1,0,0,response1disk,,7,6.400011539,3.999993622,1,0,0,rectangle,6.400011539,3.999993622,1,0,0,6.400011539,3.999993622,1,0,0,0,34,34,83,1,,,,,,,,
,,,,,,,,,,,,,FF,,,,,,,,0.6832,,,,,,,,,,,,,,,,,,,,,,60fce0e8a964011b8f172445,61036dd6377eb09d6274ba3e,2021-07-29_22h13.40.817,Simcolourproject_2stim_asymm_v5,2020.2.10,Win32,60,61025ae37ef11b136ea224fe,,,,,,,,,2971,39.20001203,79.99999475,1,0,0,response1disk,,7,2.40001148,-1.600006461,1,0,0,rectangle,2.40001148,-1.600006461,1,0,0,2.40001148,-1.600006461,1,0,0,0,35,35,82,1,,,,,,,,
,,,,,,,,,,,,,FF,,,,,,,,1.4834,,,,,,,,,,,,,,,,,,,,,,60fce0e8a964011b8f172445,61036dd6377eb09d6274ba3e,2021-07-29_22h13.40.817,Simcolourproject_2stim_asymm_v5,2020.2.10,Win32,60,61025ae37ef11b136ea224fe,,,,,,,,,749,43.20001209,90.39999491,1,0,0,response1disk,,7,4.800011516,-0.800006449,1,0,0,rectangle,4.800011516,-0.800006449,1,0,0,4.800011516,-0.800006449,1,0,0,0,36,36,74,1,,,,,,,,
,,,,,,,,,,,,,FF,,,,,,,,1.2331,,,,,,,,,,,,,,,,,,,,,,60fce0e8a964011b8f172445,61036dd6377eb09d6274ba3e,2021-07-29_22h13.40.817,Simcolourproject_2stim_asymm_v5,2020.2.10,Win32,60,61025ae37ef11b136ea224fe,,,,,,,,,1818,-109.5999902,-70.40000749,1,0,0,response5disk,,2,-19.19998884,-3.200006485,1,0,0,rectangle,-19.19998884,-3.200006485,1,0,0,-19.19998884,-3.200006485,1,0,0,0,37,37,7,1,,,,,,,,
,,,,,,,,,,,,,FF,,,,,,,,1.3504,,,,,,,,,,,,,,,,,,,,,,60fce0e8a964011b8f172445,61036dd6377eb09d6274ba3e,2021-07-29_22h13.40.817,Simcolourproject_2stim_asymm_v5,2020.2.10,Win32,60,61025ae37ef11b136ea224fe,,,,,,,,,4205,-94.39994113,60.79999447,1,0,0,response7disk,,1,-27.19998896,6.399993658,1,0,0,rectangle,-27.19998896,6.399993658,1,0,0,-27.19998896,6.399993658,1,0,0,0,38,38,117,1,,,,,,,,
,,,,,,,,,,,,,FF,,,,,,,,1.0501,,,,,,,,,,,,,,,,,,,,,,60fce0e8a964011b8f172445,61036dd6377eb09d6274ba3e,2021-07-29_22h13.40.817,Simcolourproject_2stim_asymm_v5,2020.2.10,Win32,60,61025ae37ef11b136ea224fe,,,,,,,,,2336,59.20001233,114.3999953,1,0,0,response1disk,,7,-18.39994,0.799993575,1,0,0,rectangle,-18.39994,0.799993575,1,0,0,-18.39994,0.799993575,1,0,0,0,39,39,159,1,,,,,,,,
,,,,,,,,,,,,,FF,,,,,,,,1.2164,,,,,,,,,,,,,,,,,,,,,,60fce0e8a964011b8f172445,61036dd6377eb09d6274ba3e,2021-07-29_22h13.40.817,Simcolourproject_2stim_asymm_v5,2020.2.10,Win32,60,61025ae37ef11b136ea224fe,,,,,,,,,1446,-82.39994096,43.19996979,1,0,0,response7disk,,1,1.600060296,-6.400006533,1,0,0,rectangle,1.600060296,-6.400006533,1,0,0,1.600060296,-6.400006533,1,0,0,0,40,40,34,1,,,,,,,,
,,,,,,,,,,,,,FF,,,,,,,,0.6673,,,,,,,,,,,,,,,,,,,,,,60fce0e8a964011b8f172445,61036dd6377eb09d6274ba3e,2021-07-29_22h13.40.817,Simcolourproject_2stim_asymm_v5,2020.2.10,Win32,60,61025ae37ef11b136ea224fe,,,,,,,,,925,30.4000119,68.79999459,1,0,0,response1disk,,7,-5.599988639,6.399993658,1,0,0,rectangle,-5.599988639,6.399993658,1,0,0,-5.599988639,6.399993658,1,0,0,0,41,41,137,1,,,,,,,,
,,,,,,,,,,,,,FF,,,,,,,,1.4497,,,,,,,,,,,,,,,,,,,,,,60fce0e8a964011b8f172445,61036dd6377eb09d6274ba3e,2021-07-29_22h13.40.817,Simcolourproject_2stim_asymm_v5,2020.2.10,Win32,60,61025ae37ef11b136ea224fe,,,,,,,,,1278,60.80001235,42.39999419,1,0,0,response1disk,,6,10.4000116,7.19999367,1,0,0,rectangle,10.4000116,7.19999367,1,0,0,10.4000116,7.19999367,1,0,0,0,42,42,2,1,,,,,,,,
,,,,,,,,,,,,,FF,,,,,,,,0.8834,,,,,,,,,,,,,,,,,,,,,,60fce0e8a964011b8f172445,61036dd6377eb09d6274ba3e,2021-07-29_22h13.40.817,Simcolourproject_2stim_asymm_v5,2020.2.10,Win32,60,61025ae37ef11b136ea224fe,,,,,,,,,4135,51.20001221,99.99999505,1,0,0,response1disk,,7,9.600060415,9.599993706,1,0,0,rectangle,9.600060415,9.599993706,1,0,0,9.600060415,9.599993706,1,0,0,0,43,43,58,1,,,,,,,,
,,,,,,,,,,,,,FF,,,,,,,,0.8166,,,,,,,,,,,,,,,,,,,,,,60fce0e8a964011b8f172445,61036dd6377eb09d6274ba3e,2021-07-29_22h13.40.817,Simcolourproject_2stim_asymm_v5,2020.2.10,Win32,60,61025ae37ef11b136ea224fe,,,,,,,,,2536,27.20001185,61.59999448,1,0,0,response1disk,,7,-3.199988604,7.19999367,1,0,0,rectangle,-3.199988604,7.19999367,1,0,0,-3.199988604,7.19999367,1,0,0,0,44,44,3,1,,,,,,,,
,,,,,,,,,,,,,FF,,,,,,,,0.7169,,,,,,,,,,,,,,,,,,,,,,60fce0e8a964011b8f172445,61036dd6377eb09d6274ba3e,2021-07-29_22h13.40.817,Simcolourproject_2stim_asymm_v5,2020.2.10,Win32,60,61025ae37ef11b136ea224fe,,,,,,,,,2875,29.60006071,70.39999461,1,0,0,response1disk,,7,-4.799988627,-4.800006509,1,0,0,rectangle,-4.799988627,-4.800006509,1,0,0,-4.799988627,-4.800006509,1,0,0,0,45,45,87,1,,,,,,,,
,,,,,,,,,,,,,FF,,,,,,,,0.6343,,,,,,,,,,,,,,,,,,,,,,60fce0e8a964011b8f172445,61036dd6377eb09d6274ba3e,2021-07-29_22h13.40.817,Simcolourproject_2stim_asymm_v5,2020.2.10,Win32,60,61025ae37ef11b136ea224fe,,,,,,,,,451,34.40001196,77.59999472,1,0,0,response1disk,,7,3.200011492,3.999993622,1,0,0,rectangle,3.200011492,3.999993622,1,0,0,3.200011492,3.999993622,1,0,0,0,46,46,64,1,,,,,,,,
,,,,,,,,,,,,,FF,,,,,,,,0.5332,,,,,,,,,,,,,,,,,,,,,,60fce0e8a964011b8f172445,61036dd6377eb09d6274ba3e,2021-07-29_22h13.40.817,Simcolourproject_2stim_asymm_v5,2020.2.10,Win32,60,61025ae37ef11b136ea224fe,,,,,,,,,3175,47.20001215,79.19997033,1,0,0,response1disk,,7,-0.799988568,-6.4373E-06,1,0,0,rectangle,-0.799988568,-6.4373E-06,1,0,0,-0.799988568,-6.4373E-06,1,0,0,0,47,47,104,1,,,,,,,,
,,,,,,,,,,,,,FF,,,,,,,,0.5835,,,,,,,,,,,,,,,,,,,,,,60fce0e8a964011b8f172445,61036dd6377eb09d6274ba3e,2021-07-29_22h13.40.817,Simcolourproject_2stim_asymm_v5,2020.2.10,Win32,60,61025ae37ef11b136ea224fe,,,,,,,,,3335,41.60006089,68.79999459,1,0,0,response1disk,,7,0.800011456,2.399993598,1,0,0,rectangle,0.800011456,2.399993598,1,0,0,0.800011456,2.399993598,1,0,0,0,48,48,86,1,,,,,,,,
,,,,,,,,,,,,,FF,,,,,,,,0.5668,,,,,,,,,,,,,,,,,,,,,,60fce0e8a964011b8f172445,61036dd6377eb09d6274ba3e,2021-07-29_22h13.40.817,Simcolourproject_2stim_asymm_v5,2020.2.10,Win32,60,61025ae37ef11b136ea224fe,,,,,,,,,4193,35.20001197,80.79999477,1,0,0,response1disk,,7,-16.79998881,-3.200006485,1,0,0,rectangle,-16.79998881,-3.200006485,1,0,0,-16.79998881,-3.200006485,1,0,0,0,49,49,28,1,,,,,,,,
,,,,,,,,,,,,,FF,,,,,,,,0.7004,,,,,,,,,,,,,,,,,,,,,,60fce0e8a964011b8f172445,61036dd6377eb09d6274ba3e,2021-07-29_22h13.40.817,Simcolourproject_2stim_asymm_v5,2020.2.10,Win32,60,61025ae37ef11b136ea224fe,,,,,,,,,3368,34.40001196,50.39999431,1,0,0,response1disk,,7,7.200011551,-14.40000665,1,0,0,rectangle,7.200011551,-14.40000665,1,0,0,7.200011551,-14.40000665,1,0,0,0,50,50,40,1,,,,,,,,
,,,,,,,,,,,,,FF,,,,,,,,1.1839,,,,,,,,,,,,,,,,,,,,,,60fce0e8a964011b8f172445,61036dd6377eb09d6274ba3e,2021-07-29_22h13.40.817,Simcolourproject_2stim_asymm_v5,2020.2.10,Win32,60,61025ae37ef11b136ea224fe,,,,,,,,,1744,-96.79999,-49.60000718,1,0,0,response5disk,,2,5.600060356,4.799993634,1,0,0,rectangle,5.600060356,4.799993634,1,0,0,5.600060356,4.799993634,1,0,0,0,51,51,52,1,,,,,,,,
,,,,,,,,,,,,,FF,,,,,,,,1.6499,,,,,,,,,,,,,,,,,,,,,,60fce0e8a964011b8f172445,61036dd6377eb09d6274ba3e,2021-07-29_22h13.40.817,Simcolourproject_2stim_asymm_v5,2020.2.10,Win32,60,61025ae37ef11b136ea224fe,,,,,,,,,1422,48.00001216,-71.2000075,1,0,0,response3disk,,4,0.800011456,7.999993682,1,0,0,rectangle,0.800011456,7.999993682,1,0,0,0.800011456,7.999993682,1,0,0,0,52,52,130,1,,,,,,,,
,,,,,,,,,,,,,FF,,,,,,,,1.0139,,,,,,,,,,,,,,,,,,,,,,60fce0e8a964011b8f172445,61036dd6377eb09d6274ba3e,2021-07-29_22h13.40.817,Simcolourproject_2stim_asymm_v5,2020.2.10,Win32,60,61025ae37ef11b136ea224fe,,,,,,,,,3695,40.00001204,63.19997009,1,0,0,response1disk,,7,6.400011539,7.999993682,1,0,0,rectangle,6.400011539,7.999993682,1,0,0,6.400011539,7.999993682,1,0,0,0,53,53,151,1,,,,,,,,
,,,,,,,,,,,,,FF,,,,,,,,1.0666,,,,,,,,,,,,,,,,,,,,,,60fce0e8a964011b8f172445,61036dd6377eb09d6274ba3e,2021-07-29_22h13.40.817,Simcolourproject_2stim_asymm_v5,2020.2.10,Win32,60,61025ae37ef11b136ea224fe,,,,,,,,,1525,-86.39994102,-64.8000074,1,0,0,response5disk,,2,3.200011492,0.799993575,1,0,0,rectangle,3.200011492,0.799993575,1,0,0,3.200011492,0.799993575,1,0,0,0,54,54,23,1,,,,,,,,
,,,,,,,,,,,,,FF,,,,,,,,0.9006,,,,,,,,,,,,,,,,,,,,,,60fce0e8a964011b8f172445,61036dd6377eb09d6274ba3e,2021-07-29_22h13.40.817,Simcolourproject_2stim_asymm_v5,2020.2.10,Win32,60,61025ae37ef11b136ea224fe,,,,,,,,,2332,29.60006071,79.19997033,1,0,0,response1disk,,7,1.14441E-05,1.599993587,1,0,0,rectangle,1.14441E-05,1.599993587,1,0,0,1.14441E-05,1.599993587,1,0,0,0,55,55,42,1,,,,,,,,
,,,,,,,,,,,,,FF,,,,,,,,1.3495,,,,,,,,,,,,,,,,,,,,,,60fce0e8a964011b8f172445,61036dd6377eb09d6274ba3e,2021-07-29_22h13.40.817,Simcolourproject_2stim_asymm_v5,2020.2.10,Win32,60,61025ae37ef11b136ea224fe,,,,,,,,,3680,-61.59998947,-66.40000743,1,0,0,response5disk,,3,-19.19998884,-9.60000658,1,0,0,rectangle,-19.19998884,-9.60000658,1,0,0,-19.19998884,-9.60000658,1,0,0,0,56,56,124,1,,,,,,,,
,,,,,,,,,,,,,FF,,,,,,,,0.7501,,,,,,,,,,,,,,,,,,,,,,60fce0e8a964011b8f172445,61036dd6377eb09d6274ba3e,2021-07-29_22h13.40.817,Simcolourproject_2stim_asymm_v5,2020.2.10,Win32,60,61025ae37ef11b136ea224fe,,,,,,,,,671,24.80001181,71.99999464,1,0,0,response1disk,,7,2.40001148,1.599993587,1,0,0,rectangle,2.40001148,1.599993587,1,0,0,2.40001148,1.599993587,1,0,0,0,57,57,90,1,,,,,,,,
,,,,,,,,,,,,,FF,,,,,,,,1.2502,,,,,,,,,,,,,,,,,,,,,,60fce0e8a964011b8f172445,61036dd6377eb09d6274ba3e,2021-07-29_22h13.40.817,Simcolourproject_2stim_asymm_v5,2020.2.10,Win32,60,61025ae37ef11b136ea224fe,,,,,,,,,3491,35.20001197,-92.00000781,1,0,0,response3disk,,4,4.000011504,7.19999367,1,0,0,rectangle,4.000011504,7.19999367,1,0,0,4.000011504,7.19999367,1,0,0,0,58,58,65,1,,,,,,,,
,,,,,,,,,,,,,FF,,,,,,,,1.3669,,,,,,,,,,,,,,,,,,,,,,60fce0e8a964011b8f172445,61036dd6377eb09d6274ba3e,2021-07-29_22h13.40.817,Simcolourproject_2stim_asymm_v5,2020.2.10,Win32,60,61025ae37ef11b136ea224fe,,,,,,,,,436,35.20001197,-56.00000727,1,0,0,response3disk,,4,23.20001179,4.799993634,1,0,0,rectangle,23.20001179,4.799993634,1,0,0,23.20001179,4.799993634,1,0,0,0,59,59,31,1,,,,,,,,
,,,,,,,,,,,,,FF,,,,,,,,0.9832,,,,,,,,,,,,,,,,,,,,,,60fce0e8a964011b8f172445,61036dd6377eb09d6274ba3e,2021-07-29_22h13.40.817,Simcolourproject_2stim_asymm_v5,2020.2.10,Win32,60,61025ae37ef11b136ea224fe,,,,,,,,,2685,25.60006065,76.79999471,1,0,0,response1disk,,7,-3.199988604,7.999993682,1,0,0,rectangle,-3.199988604,7.999993682,1,0,0,-3.199988604,7.999993682,1,0,0,0,60,60,35,1,,,,,,,,
,,,,,,,,,,,,,FF,,,,,,,,0.6499,,,,,,,,,,,,,,,,,,,,,,60fce0e8a964011b8f172445,61036dd6377eb09d6274ba3e,2021-07-29_22h13.40.817,Simcolourproject_2stim_asymm_v5,2020.2.10,Win32,60,61025ae37ef11b136ea224fe,,,,,,,,,2452,44.0000121,81.59999478,1,0,0,response1disk,,7,11.20001161,7.19999367,1,0,0,rectangle,11.20001161,7.19999367,1,0,0,11.20001161,7.19999367,1,0,0,0,61,61,19,1,,,,,,,,
,,,,,,,,,,,,,FF,,,,,,,,3.033,,,,,,,,,,,,,,,,,,,,,,60fce0e8a964011b8f172445,61036dd6377eb09d6274ba3e,2021-07-29_22h13.40.817,Simcolourproject_2stim_asymm_v5,2020.2.10,Win32,60,61025ae37ef11b136ea224fe,,,,,,,,,3161,-77.59998971,-101.6000568,1,0,0,response5disk,,3,10.4000116,10.39999372,1,0,0,rectangle,10.4000116,10.39999372,1,0,0,10.4000116,10.39999372,1,0,0,0,62,62,93,1,,,,,,,,
,,,,,,,,,,,,,FF,,,,,,,,2.5509,,,,,,,,,,,,,,,,,,,,,,60fce0e8a964011b8f172445,61036dd6377eb09d6274ba3e,2021-07-29_22h13.40.817,Simcolourproject_2stim_asymm_v5,2020.2.10,Win32,60,61025ae37ef11b136ea224fe,,,,,,,,,3259,84.0000127,-65.60000741,1,0,0,response3disk,,5,26.40001184,0.799993575,1,0,0,rectangle,26.40001184,0.799993575,1,0,0,26.40001184,0.799993575,1,0,0,0,63,63,91,1,,,,,,,,
,,,,,,,,,,,,,FF,,,,,,,,1.9166,,,,,,,,,,,,,,,,,,,,,,60fce0e8a964011b8f172445,61036dd6377eb09d6274ba3e,2021-07-29_22h13.40.817,Simcolourproject_2stim_asymm_v5,2020.2.10,Win32,60,61025ae37ef11b136ea224fe,,,,,,,,,3502,24.0000118,-86.40000772,1,0,0,response3disk,,4,8.000011563,-7.200006545,1,0,0,rectangle,41.60006089,-79.20000762,1,0,0,5.600060356,-2.400006473,1,0,0,0,64,64,156,1,,response3disk_3,TRUE,4,4,"[190,89,313,282,140,249,262,6,155,152,262,229,265,65,213,247,73,95,318,295]",2.0996,rectangle
,,,,,,,,,,,,,FF,,,,,,,,1.3669,,,,,,,,,,,,,,,,,,,,,,60fce0e8a964011b8f172445,61036dd6377eb09d6274ba3e,2021-07-29_22h13.40.817,Simcolourproject_2stim_asymm_v5,2020.2.10,Win32,60,61025ae37ef11b136ea224fe,,,,,,,,,810,-51.19998932,-95.20000786,1,0,0,response5disk,,3,7.200011551,9.599993706,1,0,0,rectangle,7.200011551,9.599993706,1,0,0,7.200011551,9.599993706,1,0,0,0,65,65,108,1,,,,,,,,
,,,,,,,,,,,,,FF,,,,,,,,1.4001,,,,,,,,,,,,,,,,,,,,,,60fce0e8a964011b8f172445,61036dd6377eb09d6274ba3e,2021-07-29_22h13.40.817,Simcolourproject_2stim_asymm_v5,2020.2.10,Win32,60,61025ae37ef11b136ea224fe,,,,,,,,,2041,-28.79998899,-71.2000075,1,0,0,response5disk,,3,6.400011539,-12.00000662,1,0,0,rectangle,6.400011539,-12.00000662,1,0,0,6.400011539,-12.00000662,1,0,0,0,66,66,95,1,,,,,,,,
,,,,,,,,,,,,,FF,,,,,,,,1.4506,,,,,,,,,,,,,,,,,,,,,,60fce0e8a964011b8f172445,61036dd6377eb09d6274ba3e,2021-07-29_22h13.40.817,Simcolourproject_2stim_asymm_v5,2020.2.10,Win32,60,61025ae37ef11b136ea224fe,,,,,,,,,710,52.80001223,66.39999455,1,0,0,response1disk,,7,-3.199988604,3.999993622,1,0,0,rectangle,-3.199988604,3.999993622,1,0,0,-3.199988604,3.999993622,1,0,0,0,67,67,56,1,,,,,,,,
,,,,,,,,,,,,,FF,,,,,,,,1.7003,,,,,,,,,,,,,,,,,,,,,,60fce0e8a964011b8f172445,61036dd6377eb09d6274ba3e,2021-07-29_22h13.40.817,Simcolourproject_2stim_asymm_v5,2020.2.10,Win32,60,61025ae37ef11b136ea224fe,,,,,,,,,3334,44.80001211,-102.400008,1,0,0,response3disk,,4,13.60006047,-1.600006461,1,0,0,rectangle,13.60006047,-1.600006461,1,0,0,13.60006047,-1.600006461,1,0,0,0,68,68,37,1,,,,,,,,
,,,,,,,,,,,,,FF,,,,,,,,0.8833,,,,,,,,,,,,,,,,,,,,,,60fce0e8a964011b8f172445,61036dd6377eb09d6274ba3e,2021-07-29_22h13.40.817,Simcolourproject_2stim_asymm_v5,2020.2.10,Win32,60,61025ae37ef11b136ea224fe,,,,,,,,,10,43.20001209,72.79999465,1,0,0,response1disk,,7,20.00001174,2.399993598,1,0,0,rectangle,20.00001174,2.399993598,1,0,0,20.00001174,2.399993598,1,0,0,0,69,69,50,1,,,,,,,,
,,,,,,,,,,,,,FF,,,,,,,,1.1832,,,,,,,,,,,,,,,,,,,,,,60fce0e8a964011b8f172445,61036dd6377eb09d6274ba3e,2021-07-29_22h13.40.817,Simcolourproject_2stim_asymm_v5,2020.2.10,Win32,60,61025ae37ef11b136ea224fe,,,,,,,,,3815,-121.5999904,73.59999466,1,0,0,response7disk,,1,-17.59998882,-0.800006449,1,0,0,rectangle,-17.59998882,-0.800006449,1,0,0,-17.59998882,-0.800006449,1,0,0,0,70,70,38,1,,,,,,,,
,,,,,,,,,,,,,FF,,,,,,,,0.9331,,,,,,,,,,,,,,,,,,,,,,60fce0e8a964011b8f172445,61036dd6377eb09d6274ba3e,2021-07-29_22h13.40.817,Simcolourproject_2stim_asymm_v5,2020.2.10,Win32,60,61025ae37ef11b136ea224fe,,,,,,,,,3943,-95.19998997,31.99999404,1,0,0,response7disk,,1,26.40001184,-7.200006545,1,0,0,rectangle,26.40001184,-7.200006545,1,0,0,26.40001184,-7.200006545,1,0,0,0,71,71,70,1,,,,,,,,
,,,,,,,,,,,,,FF,,,,,,,,1.4647,,,,,,,,,,,,,,,,,,,,,,60fce0e8a964011b8f172445,61036dd6377eb09d6274ba3e,2021-07-29_22h13.40.817,Simcolourproject_2stim_asymm_v5,2020.2.10,Win32,60,61025ae37ef11b136ea224fe,,,,,,,,,3386,-97.59999001,-25.60000682,1,0,0,response5disk,,2,-16.79998881,-0.800006449,1,0,0,rectangle,38.40001202,106.3999951,1,0,0,4.000011504,-1.600006461,1,0,0,0,72,72,112,1,,response1disk_3,TRUE,7,7,"[190,89,313,282,140,249,262,6,155,152,262,229,265,65,213,247,73,95,318,295]",2.4328,rectangle
,,,,,,,,,,,,,FF,,,,,,,,2.8829,,,,,,,,,,,,,,,,,,,,,,60fce0e8a964011b8f172445,61036dd6377eb09d6274ba3e,2021-07-29_22h13.40.817,Simcolourproject_2stim_asymm_v5,2020.2.10,Win32,60,61025ae37ef11b136ea224fe,,,,,,,,,2899,90.40001279,-46.40000713,1,0,0,response3disk,,5,-5.599988639,1.599993587,1,0,0,rectangle,-5.599988639,1.599993587,1,0,0,-5.599988639,1.599993587,1,0,0,0,73,73,103,1,,,,,,,,
,,,,,,,,,,,,,FF,,,,,,,,1.4331,,,,,,,,,,,,,,,,,,,,,,60fce0e8a964011b8f172445,61036dd6377eb09d6274ba3e,2021-07-29_22h13.40.817,Simcolourproject_2stim_asymm_v5,2020.2.10,Win32,60,61025ae37ef11b136ea224fe,,,,,,,,,3994,-71.99998963,-48.80000716,1,0,0,response5disk,,2,-1.59998858,7.19999367,1,0,0,rectangle,-1.59998858,7.19999367,1,0,0,-1.59998858,7.19999367,1,0,0,0,74,74,148,1,,,,,,,,
,,,,,,,,,,,,,FF,,,,,,,,1.0502,,,,,,,,,,,,,,,,,,,,,,60fce0e8a964011b8f172445,61036dd6377eb09d6274ba3e,2021-07-29_22h13.40.817,Simcolourproject_2stim_asymm_v5,2020.2.10,Win32,60,61025ae37ef11b136ea224fe,,,,,,,,,4085,-75.19998968,45.59999424,1,0,0,response7disk,,1,10.4000116,2.399993598,1,0,0,rectangle,10.4000116,2.399993598,1,0,0,10.4000116,2.399993598,1,0,0,0,75,75,106,1,,,,,,,,
,,,,,,,,,,,,,FF,,,,,,,,0.9497,,,,,,,,,,,,,,,,,,,,,,60fce0e8a964011b8f172445,61036dd6377eb09d6274ba3e,2021-07-29_22h13.40.817,Simcolourproject_2stim_asymm_v5,2020.2.10,Win32,60,61025ae37ef11b136ea224fe,,,,,,,,,840,40.80001205,86.39999485,1,0,0,response1disk,,7,4.000011504,-3.200006485,1,0,0,rectangle,4.000011504,-3.200006485,1,0,0,4.000011504,-3.200006485,1,0,0,0,76,76,114,1,,,,,,,,
,,,,,,,,,,,,,FF,,,,,,,,15.1828,,,,,,,,,,,,,,,,,,,,,,60fce0e8a964011b8f172445,61036dd6377eb09d6274ba3e,2021-07-29_22h13.40.817,Simcolourproject_2stim_asymm_v5,2020.2.10,Win32,60,61025ae37ef11b136ea224fe,,,,,,,,,162,102.400013,-60.00000733,1,0,0,response3disk,,5,4.800011516,3.999993622,1,0,0,rectangle,4.800011516,3.999993622,1,0,0,4.800011516,3.999993622,1,0,0,0,77,77,140,1,,,,,,,,
,,,,,,,,,,,,,FF,,,,,,,,1.4165,,,,,,,,,,,,,,,,,,,,,,60fce0e8a964011b8f172445,61036dd6377eb09d6274ba3e,2021-07-29_22h13.40.817,Simcolourproject_2stim_asymm_v5,2020.2.10,Win32,60,61025ae37ef11b136ea224fe,,,,,,,,,2997,-85.59998983,-44.8000071,1,0,0,response5disk,,2,-7.999988675,5.599993646,1,0,0,rectangle,-7.999988675,5.599993646,1,0,0,-7.999988675,5.599993646,1,0,0,0,78,78,41,1,,,,,,,,
,,,,,,,,,,,,,FF,,,,,,,,1.6665,,,,,,,,,,,,,,,,,,,,,,60fce0e8a964011b8f172445,61036dd6377eb09d6274ba3e,2021-07-29_22h13.40.817,Simcolourproject_2stim_asymm_v5,2020.2.10,Win32,60,61025ae37ef11b136ea224fe,,,,,,,,,3285,-47.99998927,-94.40000784,1,0,0,response5disk,,3,-3.199988604,-5.600006521,1,0,0,rectangle,-3.199988604,-5.600006521,1,0,0,-3.199988604,-5.600006521,1,0,0,0,79,79,73,1,,,,,,,,
,,,,,,,,,,,,,FF,,,,,,,,5.0663,,,,,,,,,,,,,,,,,,,,,,60fce0e8a964011b8f172445,61036dd6377eb09d6274ba3e,2021-07-29_22h13.40.817,Simcolourproject_2stim_asymm_v5,2020.2.10,Win32,60,61025ae37ef11b136ea224fe,,,,,,,,,1808,85.60001272,58.39999443,1,0,0,response1disk,,6,-5.599988639,-4.800006509,1,0,0,rectangle,-5.599988639,-4.800006509,1,0,0,-5.599988639,-4.800006509,1,0,0,0,80,80,21,1,,,,,,,,
,,,,,,,,,,,,,FF,,,,,,,,0.9668,,,,,,,,,,,,,,,,,,,,,,60fce0e8a964011b8f172445,61036dd6377eb09d6274ba3e,2021-07-29_22h13.40.817,Simcolourproject_2stim_asymm_v5,2020.2.10,Win32,60,61025ae37ef11b136ea224fe,,,,,,,,,3987,45.60006095,77.59999472,1,0,0,response1disk,,7,11.20001161,-8.000006557,1,0,0,rectangle,11.20001161,-8.000006557,1,0,0,11.20001161,-8.000006557,1,0,0,0,81,81,99,1,,,,,,,,
,,,,,,,,,,,,,FF,,,,,,,,1.6161,,,,,,,,,,,,,,,,,,,,,,60fce0e8a964011b8f172445,61036dd6377eb09d6274ba3e,2021-07-29_22h13.40.817,Simcolourproject_2stim_asymm_v5,2020.2.10,Win32,60,61025ae37ef11b136ea224fe,,,,,,,,,2045,36.80001199,-115.2000082,1,0,0,response3disk,,4,26.40001184,-9.60000658,1,0,0,rectangle,26.40001184,-9.60000658,1,0,0,26.40001184,-9.60000658,1,0,0,0,82,82,158,1,,,,,,,,
,,,,,,,,,,,,,FF,,,,,,,,2.8333,,,,,,,,,,,,,,,,,,,,,,60fce0e8a964011b8f172445,61036dd6377eb09d6274ba3e,2021-07-29_22h13.40.817,Simcolourproject_2stim_asymm_v5,2020.2.10,Win32,60,61025ae37ef11b136ea224fe,,,,,,,,,1176,36.80001199,71.19997021,1,0,0,response1disk,,7,-3.999988616,-3.200006485,1,0,0,rectangle,-3.999988616,-3.200006485,1,0,0,-3.999988616,-3.200006485,1,0,0,0,83,83,61,1,,,,,,,,
,,,,,,,,,,,,,FF,,,,,,,,1.0024,,,,,,,,,,,,,,,,,,,,,,60fce0e8a964011b8f172445,61036dd6377eb09d6274ba3e,2021-07-29_22h13.40.817,Simcolourproject_2stim_asymm_v5,2020.2.10,Win32,60,61025ae37ef11b136ea224fe,,,,,,,,,1304,-92.79998994,24.79999393,1,0,0,response7disk,,1,3.200011492,-11.2000066,1,0,0,rectangle,3.200011492,-11.2000066,1,0,0,3.200011492,-11.2000066,1,0,0,0,84,84,121,1,,,,,,,,
,,,,,,,,,,,,,FF,,,,,,,,0.75,,,,,,,,,,,,,,,,,,,,,,60fce0e8a964011b8f172445,61036dd6377eb09d6274ba3e,2021-07-29_22h13.40.817,Simcolourproject_2stim_asymm_v5,2020.2.10,Win32,60,61025ae37ef11b136ea224fe,,,,,,,,,1483,55.20001227,91.99999493,1,0,0,response1disk,,7,-3.199988604,-5.600006521,1,0,0,rectangle,-3.199988604,-5.600006521,1,0,0,-3.199988604,-5.600006521,1,0,0,0,85,85,128,1,,,,,,,,
,,,,,,,,,,,,,FF,,,,,,,,0.7661,,,,,,,,,,,,,,,,,,,,,,60fce0e8a964011b8f172445,61036dd6377eb09d6274ba3e,2021-07-29_22h13.40.817,Simcolourproject_2stim_asymm_v5,2020.2.10,Win32,60,61025ae37ef11b136ea224fe,,,,,,,,,154,68.80001247,102.3999951,1,0,0,response1disk,,7,15.20001167,15.9999938,1,0,0,rectangle,15.20001167,15.9999938,1,0,0,15.20001167,15.9999938,1,0,0,0,86,86,125,1,,,,,,,,
,,,,,,,,,,,,,FF,,,,,,,,0.7504,,,,,,,,,,,,,,,,,,,,,,60fce0e8a964011b8f172445,61036dd6377eb09d6274ba3e,2021-07-29_22h13.40.817,Simcolourproject_2stim_asymm_v5,2020.2.10,Win32,60,61025ae37ef11b136ea224fe,,,,,,,,,2631,46.40001214,75.9999947,1,0,0,response1disk,,7,3.200011492,-8.800006568,1,0,0,rectangle,3.200011492,-8.800006568,1,0,0,3.200011492,-8.800006568,1,0,0,0,87,87,22,1,,,,,,,,
,,,,,,,,,,,,,FF,,,,,,,,1.1668,,,,,,,,,,,,,,,,,,,,,,60fce0e8a964011b8f172445,61036dd6377eb09d6274ba3e,2021-07-29_22h13.40.817,Simcolourproject_2stim_asymm_v5,2020.2.10,Win32,60,61025ae37ef11b136ea224fe,,,,,,,,,4103,-91.19998991,49.5999943,1,0,0,response7disk,,1,-29.599989,5.599993646,1,0,0,rectangle,108.0000131,63.99999452,1,0,0,17.60006053,-7.200006545,1,0,0,0,88,88,10,1,,response1disk_3,TRUE,6,6,"[190,89,313,282,140,249,262,6,155,152,262,229,265,65,213,247,73,95,318,295]",1.6999,rectangle
,,,,,,,,,,,,,FF,,,,,,,,0.8836,,,,,,,,,,,,,,,,,,,,,,60fce0e8a964011b8f172445,61036dd6377eb09d6274ba3e,2021-07-29_22h13.40.817,Simcolourproject_2stim_asymm_v5,2020.2.10,Win32,60,61025ae37ef11b136ea224fe,,,,,,,,,3771,36.80001199,89.5999949,1,0,0,response1disk,,7,0.800011456,11.99999374,1,0,0,rectangle,0.800011456,11.99999374,1,0,0,0.800011456,11.99999374,1,0,0,0,89,89,100,1,,,,,,,,
,,,,,,,,,,,,,FF,,,,,,,,0.8671,,,,,,,,,,,,,,,,,,,,,,60fce0e8a964011b8f172445,61036dd6377eb09d6274ba3e,2021-07-29_22h13.40.817,Simcolourproject_2stim_asymm_v5,2020.2.10,Win32,60,61025ae37ef11b136ea224fe,,,,,,,,,1868,48.00001216,92.79999495,1,0,0,response1disk,,7,7.200011551,-5.600006521,1,0,0,rectangle,7.200011551,-5.600006521,1,0,0,7.200011551,-5.600006521,1,0,0,0,90,90,102,1,,,,,,,,
,,,,,,,,,,,,,FF,,,,,,,,0.7503,,,,,,,,,,,,,,,,,,,,,,60fce0e8a964011b8f172445,61036dd6377eb09d6274ba3e,2021-07-29_22h13.40.817,Simcolourproject_2stim_asymm_v5,2020.2.10,Win32,60,61025ae37ef11b136ea224fe,,,,,,,,,738,54.40001225,82.39999479,1,0,0,response1disk,,7,15.20001167,-1.600006461,1,0,0,rectangle,15.20001167,-1.600006461,1,0,0,15.20001167,-1.600006461,1,0,0,0,91,91,84,1,,,,,,,,
,,,,,,,,,,,,,FF,,,,,,,,1.1995,,,,,,,,,,,,,,,,,,,,,,60fce0e8a964011b8f172445,61036dd6377eb09d6274ba3e,2021-07-29_22h13.40.817,Simcolourproject_2stim_asymm_v5,2020.2.10,Win32,60,61025ae37ef11b136ea224fe,,,,,,,,,3569,80.80001265,44.79999423,1,0,0,response1disk,,6,20.00001174,-5.600006521,1,0,0,rectangle,20.00001174,-5.600006521,1,0,0,20.00001174,-5.600006521,1,0,0,0,92,92,59,1,,,,,,,,
,,,,,,,,,,,,,FF,,,,,,,,1.117,,,,,,,,,,,,,,,,,,,,,,60fce0e8a964011b8f172445,61036dd6377eb09d6274ba3e,2021-07-29_22h13.40.817,Simcolourproject_2stim_asymm_v5,2020.2.10,Win32,60,61025ae37ef11b136ea224fe,,,,,,,,,252,78.40001261,59.99999446,1,0,0,response1disk,,6,3.200011492,-0.800006449,1,0,0,rectangle,3.200011492,-0.800006449,1,0,0,3.200011492,-0.800006449,1,0,0,0,93,93,71,1,,,,,,,,
,,,,,,,,,,,,,FF,,,,,,,,1.0336,,,,,,,,,,,,,,,,,,,,,,60fce0e8a964011b8f172445,61036dd6377eb09d6274ba3e,2021-07-29_22h13.40.817,Simcolourproject_2stim_asymm_v5,2020.2.10,Win32,60,61025ae37ef11b136ea224fe,,,,,,,,,3196,-95.19998997,35.19996967,1,0,0,response7disk,,1,-23.99998891,-4.800006509,1,0,0,rectangle,48.80001217,87.19997045,1,0,0,-10.39993988,-8.000006557,1,0,0,0,94,94,62,1,,response1disk_3,TRUE,7,7,"[190,89,313,282,140,249,262,6,155,152,262,229,265,65,213,247,73,95,318,295]",1.5836,rectangle
,,,,,,,,,,,,,FF,,,,,,,,0.8672,,,,,,,,,,,,,,,,,,,,,,60fce0e8a964011b8f172445,61036dd6377eb09d6274ba3e,2021-07-29_22h13.40.817,Simcolourproject_2stim_asymm_v5,2020.2.10,Win32,60,61025ae37ef11b136ea224fe,,,,,,,,,3747,-79.19998974,39.19996973,1,0,0,response7disk,,1,4.000011504,11.99999374,1,0,0,rectangle,4.000011504,11.99999374,1,0,0,4.000011504,11.99999374,1,0,0,0,95,95,81,1,,,,,,,,
,,,,,,,,,,,,,FF,,,,,,,,1.1502,,,,,,,,,,,,,,,,,,,,,,60fce0e8a964011b8f172445,61036dd6377eb09d6274ba3e,2021-07-29_22h13.40.817,Simcolourproject_2stim_asymm_v5,2020.2.10,Win32,60,61025ae37ef11b136ea224fe,,,,,,,,,3839,-85.59998983,-46.40000713,1,0,0,response5disk,,2,7.200011551,-10.40000659,1,0,0,rectangle,7.200011551,-10.40000659,1,0,0,7.200011551,-10.40000659,1,0,0,0,96,96,11,1,,,,,,,,
,,,,,,,,,,,,,FF,,,,,,,,3.333,,,,,,,,,,,,,,,,,,,,,,60fce0e8a964011b8f172445,61036dd6377eb09d6274ba3e,2021-07-29_22h13.40.817,Simcolourproject_2stim_asymm_v5,2020.2.10,Win32,60,61025ae37ef11b136ea224fe,,,,,,,,,390,68.00001246,83.19997039,1,0,0,response1disk,,7,4.800011516,-3.200006485,1,0,0,rectangle,4.800011516,-3.200006485,1,0,0,4.800011516,-3.200006485,1,0,0,0,97,97,101,1,,,,,,,,
,,,,,,,,,,,,,FF,,,,,,,,2.0002,,,,,,,,,,,,,,,,,,,,,,60fce0e8a964011b8f172445,61036dd6377eb09d6274ba3e,2021-07-29_22h13.40.817,Simcolourproject_2stim_asymm_v5,2020.2.10,Win32,60,61025ae37ef11b136ea224fe,,,,,,,,,4177,-65.59998953,85.59999484,1,0,0,response7disk,,0,6.400011539,6.399993658,1,0,0,rectangle,6.400011539,6.399993658,1,0,0,6.400011539,6.399993658,1,0,0,0,98,98,8,1,,,,,,,,
,,,,,,,,,,,,,FF,,,,,,,,1.0666,,,,,,,,,,,,,,,,,,,,,,60fce0e8a964011b8f172445,61036dd6377eb09d6274ba3e,2021-07-29_22h13.40.817,Simcolourproject_2stim_asymm_v5,2020.2.10,Win32,60,61025ae37ef11b136ea224fe,,,,,,,,,1810,-81.59998977,38.39999413,1,0,0,response7disk,,1,9.600060415,-1.600006461,1,0,0,rectangle,9.600060415,-1.600006461,1,0,0,9.600060415,-1.600006461,1,0,0,0,99,99,13,1,,,,,,,,
,,,,,,,,,,,,,FF,,,,,,,,2.0669,,,,,,,,,,,,,,,,,,,,,,60fce0e8a964011b8f172445,61036dd6377eb09d6274ba3e,2021-07-29_22h13.40.817,Simcolourproject_2stim_asymm_v5,2020.2.10,Win32,60,61025ae37ef11b136ea224fe,,,,,,,,,1441,51.20001221,-124.8000083,1,0,0,response3disk,,4,-4.799988627,-4.800006509,1,0,0,rectangle,-4.799988627,-4.800006509,1,0,0,-4.799988627,-4.800006509,1,0,0,0,100,100,134,1,,,,,,,,
,,,,,,,,,,,,,FF,,,,,,,,0.8,,,,,,,,,,,,,,,,,,,,,,60fce0e8a964011b8f172445,61036dd6377eb09d6274ba3e,2021-07-29_22h13.40.817,Simcolourproject_2stim_asymm_v5,2020.2.10,Win32,60,61025ae37ef11b136ea224fe,,,,,,,,,3956,50.4000122,74.39999467,1,0,0,response1disk,,7,8.800011575,3.999993622,1,0,0,rectangle,8.800011575,3.999993622,1,0,0,8.800011575,3.999993622,1,0,0,0,101,101,47,1,,,,,,,,
,,,,,,,,,,,,,FF,,,,,,,,0.7339,,,,,,,,,,,,,,,,,,,,,,60fce0e8a964011b8f172445,61036dd6377eb09d6274ba3e,2021-07-29_22h13.40.817,Simcolourproject_2stim_asymm_v5,2020.2.10,Win32,60,61025ae37ef11b136ea224fe,,,,,,,,,1706,52.80001223,87.99999487,1,0,0,response1disk,,7,10.4000116,12.79999375,1,0,0,rectangle,10.4000116,12.79999375,1,0,0,10.4000116,12.79999375,1,0,0,0,102,102,18,1,,,,,,,,
,,,,,,,,,,,,,FF,,,,,,,,0.7336,,,,,,,,,,,,,,,,,,,,,,60fce0e8a964011b8f172445,61036dd6377eb09d6274ba3e,2021-07-29_22h13.40.817,Simcolourproject_2stim_asymm_v5,2020.2.10,Win32,60,61025ae37ef11b136ea224fe,,,,,,,,,3804,43.20001209,67.19997015,1,0,0,response1disk,,7,0.800011456,-6.400006533,1,0,0,rectangle,0.800011456,-6.400006533,1,0,0,0.800011456,-6.400006533,1,0,0,0,103,103,131,1,,,,,,,,
,,,,,,,,,,,,,FF,,,,,,,,1.1997,,,,,,,,,,,,,,,,,,,,,,60fce0e8a964011b8f172445,61036dd6377eb09d6274ba3e,2021-07-29_22h13.40.817,Simcolourproject_2stim_asymm_v5,2020.2.10,Win32,60,61025ae37ef11b136ea224fe,,,,,,,,,378,89.60001278,-24.00000679,1,0,0,response3disk,,5,-1.59998858,5.599993646,1,0,0,rectangle,-1.59998858,5.599993646,1,0,0,-1.59998858,5.599993646,1,0,0,0,104,104,1,1,,,,,,,,
,,,,,,,,,,,,,FF,,,,,,,,1.384,,,,,,,,,,,,,,,,,,,,,,60fce0e8a964011b8f172445,61036dd6377eb09d6274ba3e,2021-07-29_22h13.40.817,Simcolourproject_2stim_asymm_v5,2020.2.10,Win32,60,61025ae37ef11b136ea224fe,,,,,,,,,2339,62.40001237,94.39999497,1,0,0,response1disk,,7,12.80001163,-4.800006509,1,0,0,rectangle,12.80001163,-4.800006509,1,0,0,12.80001163,-4.800006509,1,0,0,0,105,105,78,1,,,,,,,,
,,,,,,,,,,,,,FF,,,,,,,,0.7001,,,,,,,,,,,,,,,,,,,,,,60fce0e8a964011b8f172445,61036dd6377eb09d6274ba3e,2021-07-29_22h13.40.817,Simcolourproject_2stim_asymm_v5,2020.2.10,Win32,60,61025ae37ef11b136ea224fe,,,,,,,,,986,35.20001197,75.19997027,1,0,0,response1disk,,7,2.40001148,7.999993682,1,0,0,rectangle,2.40001148,7.999993682,1,0,0,2.40001148,7.999993682,1,0,0,0,106,106,153,1,,,,,,,,
,,,,,,,,,,,,,FF,,,,,,,,0.5341,,,,,,,,,,,,,,,,,,,,,,60fce0e8a964011b8f172445,61036dd6377eb09d6274ba3e,2021-07-29_22h13.40.817,Simcolourproject_2stim_asymm_v5,2020.2.10,Win32,60,61025ae37ef11b136ea224fe,,,,,,,,,327,56.80001229,100.7999951,1,0,0,response1disk,,7,-4.799988627,-3.200006485,1,0,0,rectangle,-4.799988627,-3.200006485,1,0,0,-4.799988627,-3.200006485,1,0,0,0,107,107,44,1,,,,,,,,
,,,,,,,,,,,,,FF,,,,,,,,1.8333,,,,,,,,,,,,,,,,,,,,,,60fce0e8a964011b8f172445,61036dd6377eb09d6274ba3e,2021-07-29_22h13.40.817,Simcolourproject_2stim_asymm_v5,2020.2.10,Win32,60,61025ae37ef11b136ea224fe,,,,,,,,,444,-89.59998989,-59.20000732,1,0,0,response5disk,,2,-17.59998882,5.599993646,1,0,0,rectangle,-17.59998882,5.599993646,1,0,0,-17.59998882,5.599993646,1,0,0,0,108,108,48,1,,,,,,,,
,,,,,,,,,,,,,FF,,,,,,,,0.6994,,,,,,,,,,,,,,,,,,,,,,60fce0e8a964011b8f172445,61036dd6377eb09d6274ba3e,2021-07-29_22h13.40.817,Simcolourproject_2stim_asymm_v5,2020.2.10,Win32,60,61025ae37ef11b136ea224fe,,,,,,,,,3723,54.40001225,95.19997057,1,0,0,response1disk,,7,-2.399939764,-3.200006485,1,0,0,rectangle,-2.399939764,-3.200006485,1,0,0,-2.399939764,-3.200006485,1,0,0,0,109,109,143,1,,,,,,,,
,,,,,,,,,,,,,FF,,,,,,,,0.5829,,,,,,,,,,,,,,,,,,,,,,60fce0e8a964011b8f172445,61036dd6377eb09d6274ba3e,2021-07-29_22h13.40.817,Simcolourproject_2stim_asymm_v5,2020.2.10,Win32,60,61025ae37ef11b136ea224fe,,,,,,,,,3975,38.40001202,71.99999464,1,0,0,response1disk,,7,-2.399939764,-7.200006545,1,0,0,rectangle,-2.399939764,-7.200006545,1,0,0,-2.399939764,-7.200006545,1,0,0,0,110,110,139,1,,,,,,,,
,,,,,,,,,,,,,FF,,,,,,,,1.7335,,,,,,,,,,,,,,,,,,,,,,60fce0e8a964011b8f172445,61036dd6377eb09d6274ba3e,2021-07-29_22h13.40.817,Simcolourproject_2stim_asymm_v5,2020.2.10,Win32,60,61025ae37ef11b136ea224fe,,,,,,,,,104,88.80001277,-61.60000736,1,0,0,response3disk,,5,3.200011492,-9.60000658,1,0,0,rectangle,3.200011492,-9.60000658,1,0,0,3.200011492,-9.60000658,1,0,0,0,111,111,149,1,,,,,,,,
,,,,,,,,,,,,,FF,,,,,,,,0.7169,,,,,,,,,,,,,,,,,,,,,,60fce0e8a964011b8f172445,61036dd6377eb09d6274ba3e,2021-07-29_22h13.40.817,Simcolourproject_2stim_asymm_v5,2020.2.10,Win32,60,61025ae37ef11b136ea224fe,,,,,,,,,1127,28.80001187,87.99999487,1,0,0,response1disk,,7,2.40001148,6.399993658,1,0,0,rectangle,2.40001148,6.399993658,1,0,0,2.40001148,6.399993658,1,0,0,0,112,112,94,1,,,,,,,,
,,,,,,,,,,,,,FF,,,,,,,,0.6834,,,,,,,,,,,,,,,,,,,,,,60fce0e8a964011b8f172445,61036dd6377eb09d6274ba3e,2021-07-29_22h13.40.817,Simcolourproject_2stim_asymm_v5,2020.2.10,Win32,60,61025ae37ef11b136ea224fe,,,,,,,,,560,45.60006095,84.79999483,1,0,0,response1disk,,7,4.000011504,-2.400006473,1,0,0,rectangle,4.000011504,-2.400006473,1,0,0,4.000011504,-2.400006473,1,0,0,0,113,113,49,1,,,,,,,,
,,,,,,,,,,,,,FF,,,,,,,,1.4188,,,,,,,,,,,,,,,,,,,,,,60fce0e8a964011b8f172445,61036dd6377eb09d6274ba3e,2021-07-29_22h13.40.817,Simcolourproject_2stim_asymm_v5,2020.2.10,Win32,60,61025ae37ef11b136ea224fe,,,,,,,,,1200,62.40001237,-106.400008,1,0,0,response3disk,,4,5.600060356,-11.2000066,1,0,0,rectangle,5.600060356,-11.2000066,1,0,0,5.600060356,-11.2000066,1,0,0,0,114,114,66,1,,,,,,,,
,,,,,,,,,,,,,FF,,,,,,,,0.7838,,,,,,,,,,,,,,,,,,,,,,60fce0e8a964011b8f172445,61036dd6377eb09d6274ba3e,2021-07-29_22h13.40.817,Simcolourproject_2stim_asymm_v5,2020.2.10,Win32,60,61025ae37ef11b136ea224fe,,,,,,,,,2747,40.00001204,81.59999478,1,0,0,response1disk,,7,-7.199988663,-12.00000662,1,0,0,rectangle,-7.199988663,-12.00000662,1,0,0,-7.199988663,-12.00000662,1,0,0,0,115,115,46,1,,,,,,,,
,,,,,,,,,,,,,FF,,,,,,,,0.5968,,,,,,,,,,,,,,,,,,,,,,60fce0e8a964011b8f172445,61036dd6377eb09d6274ba3e,2021-07-29_22h13.40.817,Simcolourproject_2stim_asymm_v5,2020.2.10,Win32,60,61025ae37ef11b136ea224fe,,,,,,,,,2340,37.60006083,79.99999475,1,0,0,response1disk,,7,-0.799988568,4.799993634,1,0,0,rectangle,-0.799988568,4.799993634,1,0,0,-0.799988568,4.799993634,1,0,0,0,116,116,127,1,,,,,,,,
,,,,,,,,,,,,,FF,,,,,,,,0.5329,,,,,,,,,,,,,,,,,,,,,,60fce0e8a964011b8f172445,61036dd6377eb09d6274ba3e,2021-07-29_22h13.40.817,Simcolourproject_2stim_asymm_v5,2020.2.10,Win32,60,61025ae37ef11b136ea224fe,,,,,,,,,3220,33.60006077,59.99999446,1,0,0,response1disk,,7,1.600060296,-6.4373E-06,1,0,0,rectangle,1.600060296,-6.4373E-06,1,0,0,1.600060296,-6.4373E-06,1,0,0,0,117,117,0,1,,,,,,,,
,,,,,,,,,,,,,FF,,,,,,,,1.3,,,,,,,,,,,,,,,,,,,,,,60fce0e8a964011b8f172445,61036dd6377eb09d6274ba3e,2021-07-29_22h13.40.817,Simcolourproject_2stim_asymm_v5,2020.2.10,Win32,60,61025ae37ef11b136ea224fe,,,,,,,,,3513,-34.39994024,-52.00000721,1,0,0,response5disk,,3,-2.399939764,15.19999379,1,0,0,rectangle,-2.399939764,15.19999379,1,0,0,-2.399939764,15.19999379,1,0,0,0,118,118,79,1,,,,,,,,
,,,,,,,,,,,,,FF,,,,,,,,0.8501,,,,,,,,,,,,,,,,,,,,,,60fce0e8a964011b8f172445,61036dd6377eb09d6274ba3e,2021-07-29_22h13.40.817,Simcolourproject_2stim_asymm_v5,2020.2.10,Win32,60,61025ae37ef11b136ea224fe,,,,,,,,,1719,40.80001205,75.19997027,1,0,0,response1disk,,7,-10.39993988,-8.800006568,1,0,0,rectangle,-10.39993988,-8.800006568,1,0,0,-10.39993988,-8.800006568,1,0,0,0,119,119,77,1,,,,,,,,
,,,,,,,,,,,,,FF,,,,,,,,0.9832,,,,,,,,,,,,,,,,,,,,,,60fce0e8a964011b8f172445,61036dd6377eb09d6274ba3e,2021-07-29_22h13.40.817,Simcolourproject_2stim_asymm_v5,2020.2.10,Win32,60,61025ae37ef11b136ea224fe,,,,,,,,,3392,-75.99998969,35.9999941,1,0,0,response7disk,,1,-15.99998879,-11.2000066,1,0,0,rectangle,-15.99998879,-11.2000066,1,0,0,-15.99998879,-11.2000066,1,0,0,0,120,120,5,1,,,,,,,,
,,,,,,,,,,,,,FF,,,,,,,,0.6998,,,,,,,,,,,,,,,,,,,,,,60fce0e8a964011b8f172445,61036dd6377eb09d6274ba3e,2021-07-29_22h13.40.817,Simcolourproject_2stim_asymm_v5,2020.2.10,Win32,60,61025ae37ef11b136ea224fe,,,,,,,,,3963,60.00001234,92.79999495,1,0,0,response1disk,,7,5.600060356,15.19999379,1,0,0,rectangle,5.600060356,15.19999379,1,0,0,5.600060356,15.19999379,1,0,0,0,121,121,89,1,,,,,,,,
,,,,,,,,,,,,,FF,,,,,,,,0.8333,,,,,,,,,,,,,,,,,,,,,,60fce0e8a964011b8f172445,61036dd6377eb09d6274ba3e,2021-07-29_22h13.40.817,Simcolourproject_2stim_asymm_v5,2020.2.10,Win32,60,61025ae37ef11b136ea224fe,,,,,,,,,2852,53.60001224,79.99999475,1,0,0,response1disk,,7,1.600060296,3.19999361,1,0,0,rectangle,1.600060296,3.19999361,1,0,0,1.600060296,3.19999361,1,0,0,0,122,122,107,1,,,,,,,,
,,,,,,,,,,,,,FF,,,,,,,,1.0505,,,,,,,,,,,,,,,,,,,,,,60fce0e8a964011b8f172445,61036dd6377eb09d6274ba3e,2021-07-29_22h13.40.817,Simcolourproject_2stim_asymm_v5,2020.2.10,Win32,60,61025ae37ef11b136ea224fe,,,,,,,,,2548,-83.1999898,39.19996973,1,0,0,response7disk,,1,-5.599988639,-4.000006497,1,0,0,rectangle,-5.599988639,-4.000006497,1,0,0,-5.599988639,-4.000006497,1,0,0,0,123,123,135,1,,,,,,,,
,,,,,,,,,,,,,FF,,,,,,,,0.9495,,,,,,,,,,,,,,,,,,,,,,60fce0e8a964011b8f172445,61036dd6377eb09d6274ba3e,2021-07-29_22h13.40.817,Simcolourproject_2stim_asymm_v5,2020.2.10,Win32,60,61025ae37ef11b136ea224fe,,,,,,,,,1596,-45.59998924,77.59999472,1,0,0,response7disk,,0,-7.199988663,14.39999378,1,0,0,rectangle,-7.199988663,14.39999378,1,0,0,-7.199988663,14.39999378,1,0,0,0,124,124,33,1,,,,,,,,
,,,,,,,,,,,,,FF,,,,,,,,0.8331,,,,,,,,,,,,,,,,,,,,,,60fce0e8a964011b8f172445,61036dd6377eb09d6274ba3e,2021-07-29_22h13.40.817,Simcolourproject_2stim_asymm_v5,2020.2.10,Win32,60,61025ae37ef11b136ea224fe,,,,,,,,,2782,-83.99998981,51.99999434,1,0,0,response7disk,,1,1.14441E-05,7.999993682,1,0,0,rectangle,1.14441E-05,7.999993682,1,0,0,1.14441E-05,7.999993682,1,0,0,0,125,125,30,1,,,,,,,,
,,,,,,,,,,,,,FF,,,,,,,,0.6839,,,,,,,,,,,,,,,,,,,,,,60fce0e8a964011b8f172445,61036dd6377eb09d6274ba3e,2021-07-29_22h13.40.817,Simcolourproject_2stim_asymm_v5,2020.2.10,Win32,60,61025ae37ef11b136ea224fe,,,,,,,,,112,39.20001203,70.39999461,1,0,0,response1disk,,7,-11.19998872,-11.2000066,1,0,0,rectangle,-11.19998872,-11.2000066,1,0,0,-11.19998872,-11.2000066,1,0,0,0,126,126,27,1,,,,,,,,
,,,,,,,,,,,,,FF,,,,,,,,1.6169,,,,,,,,,,,,,,,,,,,,,,60fce0e8a964011b8f172445,61036dd6377eb09d6274ba3e,2021-07-29_22h13.40.817,Simcolourproject_2stim_asymm_v5,2020.2.10,Win32,60,61025ae37ef11b136ea224fe,,,,,,,,,2220,51.20001221,-88.00000775,1,0,0,response3disk,,4,14.40001166,-9.60000658,1,0,0,rectangle,14.40001166,-9.60000658,1,0,0,14.40001166,-9.60000658,1,0,0,0,127,127,109,1,,,,,,,,
,,,,,,,,,,,,,FF,,,,,,,,1.0835,,,,,,,,,,,,,,,,,,,,,,60fce0e8a964011b8f172445,61036dd6377eb09d6274ba3e,2021-07-29_22h13.40.817,Simcolourproject_2stim_asymm_v5,2020.2.10,Win32,60,61025ae37ef11b136ea224fe,,,,,,,,,1264,51.20001221,79.19997033,1,0,0,response1disk,,7,9.600060415,12.79999375,1,0,0,rectangle,9.600060415,12.79999375,1,0,0,9.600060415,12.79999375,1,0,0,0,128,128,154,1,,,,,,,,
,,,,,,,,,,,,,FF,,,,,,,,1.1667,,,,,,,,,,,,,,,,,,,,,,60fce0e8a964011b8f172445,61036dd6377eb09d6274ba3e,2021-07-29_22h13.40.817,Simcolourproject_2stim_asymm_v5,2020.2.10,Win32,60,61025ae37ef11b136ea224fe,,,,,,,,,643,90.40001279,45.59999424,1,0,0,response1disk,,6,0.800011456,-6.4373E-06,1,0,0,rectangle,0.800011456,-6.4373E-06,1,0,0,0.800011456,-6.4373E-06,1,0,0,0,129,129,136,1,,,,,,,,
,,,,,,,,,,,,,FF,,,,,,,,1.1835,,,,,,,,,,,,,,,,,,,,,,60fce0e8a964011b8f172445,61036dd6377eb09d6274ba3e,2021-07-29_22h13.40.817,Simcolourproject_2stim_asymm_v5,2020.2.10,Win32,60,61025ae37ef11b136ea224fe,,,,,,,,,2495,42.40001208,59.19997003,1,0,0,response1disk,,7,-6.399939823,-9.60000658,1,0,0,rectangle,-6.399939823,-9.60000658,1,0,0,-6.399939823,-9.60000658,1,0,0,0,130,130,16,1,,,,,,,,
,,,,,,,,,,,,,FF,,,,,,,,0.6668,,,,,,,,,,,,,,,,,,,,,,60fce0e8a964011b8f172445,61036dd6377eb09d6274ba3e,2021-07-29_22h13.40.817,Simcolourproject_2stim_asymm_v5,2020.2.10,Win32,60,61025ae37ef11b136ea224fe,,,,,,,,,696,31.20001191,63.19997009,1,0,0,response1disk,,7,1.14441E-05,5.599993646,1,0,0,rectangle,1.14441E-05,5.599993646,1,0,0,1.14441E-05,5.599993646,1,0,0,0,131,131,98,1,,,,,,,,
,,,,,,,,,,,,,FF,,,,,,,,0.5662,,,,,,,,,,,,,,,,,,,,,,60fce0e8a964011b8f172445,61036dd6377eb09d6274ba3e,2021-07-29_22h13.40.817,Simcolourproject_2stim_asymm_v5,2020.2.10,Win32,60,61025ae37ef11b136ea224fe,,,,,,,,,1651,36.80001199,75.9999947,1,0,0,response1disk,,7,5.600060356,14.39999378,1,0,0,rectangle,5.600060356,14.39999378,1,0,0,5.600060356,14.39999378,1,0,0,0,132,132,60,1,,,,,,,,
,,,,,,,,,,,,,FF,,,,,,,,0.5504,,,,,,,,,,,,,,,,,,,,,,60fce0e8a964011b8f172445,61036dd6377eb09d6274ba3e,2021-07-29_22h13.40.817,Simcolourproject_2stim_asymm_v5,2020.2.10,Win32,60,61025ae37ef11b136ea224fe,,,,,,,,,2206,38.40001202,67.19997015,1,0,0,response1disk,,7,1.600060296,4.799993634,1,0,0,rectangle,1.600060296,4.799993634,1,0,0,1.600060296,4.799993634,1,0,0,0,133,133,115,1,,,,,,,,
,,,,,,,,,,,,,FF,,,,,,,,0.5665,,,,,,,,,,,,,,,,,,,,,,60fce0e8a964011b8f172445,61036dd6377eb09d6274ba3e,2021-07-29_22h13.40.817,Simcolourproject_2stim_asymm_v5,2020.2.10,Win32,60,61025ae37ef11b136ea224fe,,,,,,,,,491,31.20001191,68.79999459,1,0,0,response1disk,,7,0.800011456,6.399993658,1,0,0,rectangle,0.800011456,6.399993658,1,0,0,0.800011456,6.399993658,1,0,0,0,134,134,96,1,,,,,,,,
,,,,,,,,,,,,,FF,,,,,,,,1.1332,,,,,,,,,,,,,,,,,,,,,,60fce0e8a964011b8f172445,61036dd6377eb09d6274ba3e,2021-07-29_22h13.40.817,Simcolourproject_2stim_asymm_v5,2020.2.10,Win32,60,61025ae37ef11b136ea224fe,,,,,,,,,3563,50.4000122,39.19996973,1,0,0,response1disk,,6,7.200011551,-4.000006497,1,0,0,rectangle,7.200011551,-4.000006497,1,0,0,7.200011551,-4.000006497,1,0,0,0,135,135,4,1,,,,,,,,
,,,,,,,,,,,,,FF,,,,,,,,0.9669,,,,,,,,,,,,,,,,,,,,,,60fce0e8a964011b8f172445,61036dd6377eb09d6274ba3e,2021-07-29_22h13.40.817,Simcolourproject_2stim_asymm_v5,2020.2.10,Win32,60,61025ae37ef11b136ea224fe,,,,,,,,,428,63.20001239,36.79999411,1,0,0,response1disk,,6,2.40001148,-0.800006449,1,0,0,rectangle,2.40001148,-0.800006449,1,0,0,2.40001148,-0.800006449,1,0,0,0,136,136,132,1,,,,,,,,
,,,,,,,,,,,,,FF,,,,,,,,0.7833,,,,,,,,,,,,,,,,,,,,,,60fce0e8a964011b8f172445,61036dd6377eb09d6274ba3e,2021-07-29_22h13.40.817,Simcolourproject_2stim_asymm_v5,2020.2.10,Win32,60,61025ae37ef11b136ea224fe,,,,,,,,,1624,20.00001174,37.59999412,1,0,0,response1disk,,7,4.000011504,6.399993658,1,0,0,rectangle,4.000011504,6.399993658,1,0,0,4.000011504,6.399993658,1,0,0,0,137,137,145,1,,,,,,,,
,,,,,,,,,,,,,FF,,,,,,,,0.5332,,,,,,,,,,,,,,,,,,,,,,60fce0e8a964011b8f172445,61036dd6377eb09d6274ba3e,2021-07-29_22h13.40.817,Simcolourproject_2stim_asymm_v5,2020.2.10,Win32,60,61025ae37ef11b136ea224fe,,,,,,,,,1189,28.80001187,53.59999436,1,0,0,response1disk,,7,4.000011504,1.599993587,1,0,0,rectangle,4.000011504,1.599993587,1,0,0,4.000011504,1.599993587,1,0,0,0,138,138,15,1,,,,,,,,
,,,,,,,,,,,,,FF,,,,,,,,0.5833,,,,,,,,,,,,,,,,,,,,,,60fce0e8a964011b8f172445,61036dd6377eb09d6274ba3e,2021-07-29_22h13.40.817,Simcolourproject_2stim_asymm_v5,2020.2.10,Win32,60,61025ae37ef11b136ea224fe,,,,,,,,,1713,33.60006077,52.79999435,1,0,0,response1disk,,7,8.000011563,11.19999373,1,0,0,rectangle,33.60006077,-65.60000741,1,0,0,2.40001148,-6.400006533,1,0,0,0,139,139,88,1,,response3disk_3,TRUE,4,4,"[190,89,313,282,140,249,262,6,155,152,262,229,265,65,213,247,73,95,318,295]",1.7167,rectangle
,,,,,,,,,,,,,FF,,,,,,,,0.7667,,,,,,,,,,,,,,,,,,,,,,60fce0e8a964011b8f172445,61036dd6377eb09d6274ba3e,2021-07-29_22h13.40.817,Simcolourproject_2stim_asymm_v5,2020.2.10,Win32,60,61025ae37ef11b136ea224fe,,,,,,,,,2803,23.20001179,51.19996991,1,0,0,response1disk,,7,-6.399939823,-11.2000066,1,0,0,rectangle,-6.399939823,-11.2000066,1,0,0,-6.399939823,-11.2000066,1,0,0,0,140,140,68,1,,,,,,,,
,,,,,,,,,,,,,FF,,,,,,,,0.5996,,,,,,,,,,,,,,,,,,,,,,60fce0e8a964011b8f172445,61036dd6377eb09d6274ba3e,2021-07-29_22h13.40.817,Simcolourproject_2stim_asymm_v5,2020.2.10,Win32,60,61025ae37ef11b136ea224fe,,,,,,,,,1284,30.4000119,66.39999455,1,0,0,response1disk,,7,3.200011492,14.39999378,1,0,0,rectangle,3.200011492,14.39999378,1,0,0,3.200011492,14.39999378,1,0,0,0,141,141,85,1,,,,,,,,
,,,,,,,,,,,,,FF,,,,,,,,0.7166,,,,,,,,,,,,,,,,,,,,,,60fce0e8a964011b8f172445,61036dd6377eb09d6274ba3e,2021-07-29_22h13.40.817,Simcolourproject_2stim_asymm_v5,2020.2.10,Win32,60,61025ae37ef11b136ea224fe,,,,,,,,,772,36.00001198,69.5999946,1,0,0,response1disk,,7,7.200011551,7.19999367,1,0,0,rectangle,7.200011551,7.19999367,1,0,0,7.200011551,7.19999367,1,0,0,0,142,142,129,1,,,,,,,,
,,,,,,,,,,,,,FF,,,,,,,,0.9668,,,,,,,,,,,,,,,,,,,,,,60fce0e8a964011b8f172445,61036dd6377eb09d6274ba3e,2021-07-29_22h13.40.817,Simcolourproject_2stim_asymm_v5,2020.2.10,Win32,60,61025ae37ef11b136ea224fe,,,,,,,,,2585,38.40001202,62.39999449,1,0,0,response1disk,,7,-0.799988568,-6.4373E-06,1,0,0,rectangle,-0.799988568,-6.4373E-06,1,0,0,-0.799988568,-6.4373E-06,1,0,0,0,143,143,14,1,,,,,,,,
,,,,,,,,,,,,,FF,,,,,,,,1.2166,,,,,,,,,,,,,,,,,,,,,,60fce0e8a964011b8f172445,61036dd6377eb09d6274ba3e,2021-07-29_22h13.40.817,Simcolourproject_2stim_asymm_v5,2020.2.10,Win32,60,61025ae37ef11b136ea224fe,,,,,,,,,527,75.20001256,-42.40000707,1,0,0,response3disk,,5,12.80001163,-16.00000668,1,0,0,rectangle,12.80001163,-16.00000668,1,0,0,12.80001163,-16.00000668,1,0,0,0,144,144,126,1,,,,,,,,
,,,,,,,,,,,,,FF,,,,,,,,1.1833,,,,,,,,,,,,,,,,,,,,,,60fce0e8a964011b8f172445,61036dd6377eb09d6274ba3e,2021-07-29_22h13.40.817,Simcolourproject_2stim_asymm_v5,2020.2.10,Win32,60,61025ae37ef11b136ea224fe,,,,,,,,,78,-91.19998991,63.99999452,1,0,0,response7disk,,1,1.600060296,-4.000006497,1,0,0,rectangle,1.600060296,-4.000006497,1,0,0,1.600060296,-4.000006497,1,0,0,0,145,145,54,1,,,,,,,,
,,,,,,,,,,,,,FF,,,,,,,,0.7168,,,,,,,,,,,,,,,,,,,,,,60fce0e8a964011b8f172445,61036dd6377eb09d6274ba3e,2021-07-29_22h13.40.817,Simcolourproject_2stim_asymm_v5,2020.2.10,Win32,60,61025ae37ef11b136ea224fe,,,,,,,,,3224,30.4000119,54.39999437,1,0,0,response1disk,,7,-5.599988639,-4.800006509,1,0,0,rectangle,-5.599988639,-4.800006509,1,0,0,-5.599988639,-4.800006509,1,0,0,0,146,146,55,1,,,,,,,,
,,,,,,,,,,,,,FF,,,,,,,,0.9669,,,,,,,,,,,,,,,,,,,,,,60fce0e8a964011b8f172445,61036dd6377eb09d6274ba3e,2021-07-29_22h13.40.817,Simcolourproject_2stim_asymm_v5,2020.2.10,Win32,60,61025ae37ef11b136ea224fe,,,,,,,,,2413,-81.59998977,34.39999408,1,0,0,response7disk,,1,-13.59998876,-4.800006509,1,0,0,rectangle,-13.59998876,-4.800006509,1,0,0,-13.59998876,-4.800006509,1,0,0,0,147,147,29,1,,,,,,,,
,,,,,,,,,,,,,FF,,,,,,,,0.6504,,,,,,,,,,,,,,,,,,,,,,60fce0e8a964011b8f172445,61036dd6377eb09d6274ba3e,2021-07-29_22h13.40.817,Simcolourproject_2stim_asymm_v5,2020.2.10,Win32,60,61025ae37ef11b136ea224fe,,,,,,,,,4263,23.20001179,55.9999944,1,0,0,response1disk,,7,4.800011516,8.799993694,1,0,0,rectangle,4.800011516,8.799993694,1,0,0,4.800011516,8.799993694,1,0,0,0,148,148,105,1,,,,,,,,
,,,,,,,,,,,,,FF,,,,,,,,0.6662,,,,,,,,,,,,,,,,,,,,,,60fce0e8a964011b8f172445,61036dd6377eb09d6274ba3e,2021-07-29_22h13.40.817,Simcolourproject_2stim_asymm_v5,2020.2.10,Win32,60,61025ae37ef11b136ea224fe,,,,,,,,,2851,28.80001187,46.39999425,1,0,0,response1disk,,7,9.600060415,3.999993622,1,0,0,rectangle,9.600060415,3.999993622,1,0,0,9.600060415,3.999993622,1,0,0,0,149,149,57,1,,,,,,,,
,,,,,,,,,,,,,FF,,,,,,,,0.9668,,,,,,,,,,,,,,,,,,,,,,60fce0e8a964011b8f172445,61036dd6377eb09d6274ba3e,2021-07-29_22h13.40.817,Simcolourproject_2stim_asymm_v5,2020.2.10,Win32,60,61025ae37ef11b136ea224fe,,,,,,,,,1768,72.00001252,31.19996961,1,0,0,response1disk,,6,14.40001166,3.19999361,1,0,0,rectangle,14.40001166,3.19999361,1,0,0,14.40001166,3.19999361,1,0,0,0,150,150,45,1,,,,,,,,
,,,,,,,,,,,,,FF,,,,,,,,0.6835,,,,,,,,,,,,,,,,,,,,,,60fce0e8a964011b8f172445,61036dd6377eb09d6274ba3e,2021-07-29_22h13.40.817,Simcolourproject_2stim_asymm_v5,2020.2.10,Win32,60,61025ae37ef11b136ea224fe,,,,,,,,,2057,33.60006077,59.19997003,1,0,0,response1disk,,7,8.800011575,12.79999375,1,0,0,rectangle,46.40001214,62.39999449,1,0,0,16.80001169,11.19999373,1,0,0,0,151,151,53,1,,response1disk_3,TRUE,7,7,"[190,89,313,282,140,249,262,6,155,152,262,229,265,65,213,247,73,95,318,295]",1.2839,rectangle
,,,,,,,,,,,,,FF,,,,,,,,0.8172,,,,,,,,,,,,,,,,,,,,,,60fce0e8a964011b8f172445,61036dd6377eb09d6274ba3e,2021-07-29_22h13.40.817,Simcolourproject_2stim_asymm_v5,2020.2.10,Win32,60,61025ae37ef11b136ea224fe,,,,,,,,,3698,22.40001178,65.59999454,1,0,0,response1disk,,7,-3.999988616,-15.20000666,1,0,0,rectangle,-3.999988616,-15.20000666,1,0,0,-3.999988616,-15.20000666,1,0,0,0,152,152,63,1,,,,,,,,
,,,,,,,,,,,,,FF,,,,,,,,0.7664,,,,,,,,,,,,,,,,,,,,,,60fce0e8a964011b8f172445,61036dd6377eb09d6274ba3e,2021-07-29_22h13.40.817,Simcolourproject_2stim_asymm_v5,2020.2.10,Win32,60,61025ae37ef11b136ea224fe,,,,,,,,,4056,20.00001174,47.19996985,1,0,0,response1disk,,7,2.40001148,4.799993634,1,0,0,rectangle,2.40001148,4.799993634,1,0,0,2.40001148,4.799993634,1,0,0,0,153,153,67,1,,,,,,,,
,,,,,,,,,,,,,FF,,,,,,,,0.6668,,,,,,,,,,,,,,,,,,,,,,60fce0e8a964011b8f172445,61036dd6377eb09d6274ba3e,2021-07-29_22h13.40.817,Simcolourproject_2stim_asymm_v5,2020.2.10,Win32,60,61025ae37ef11b136ea224fe,,,,,,,,,1878,24.80001181,51.99999434,1,0,0,response1disk,,7,5.600060356,13.59999377,1,0,0,rectangle,51.20001221,-88.00000775,1,0,0,9.600060415,7.19999367,1,0,0,0,154,154,141,1,,response3disk_3,TRUE,4,4,"[190,89,313,282,140,249,262,6,155,152,262,229,265,65,213,247,73,95,318,295]",1.7332,rectangle
,,,,,,,,,,,,,FF,,,,,,,,1.4831,,,,,,,,,,,,,,,,,,,,,,60fce0e8a964011b8f172445,61036dd6377eb09d6274ba3e,2021-07-29_22h13.40.817,Simcolourproject_2stim_asymm_v5,2020.2.10,Win32,60,61025ae37ef11b136ea224fe,,,,,,,,,97,-94.39994113,-26.40000683,1,0,0,response5disk,,2,-11.19998872,-5.600006521,1,0,0,rectangle,-11.19998872,-5.600006521,1,0,0,-11.19998872,-5.600006521,1,0,0,0,155,155,39,1,,,,,,,,
,,,,,,,,,,,,,FF,,,,,,,,0.7497,,,,,,,,,,,,,,,,,,,,,,60fce0e8a964011b8f172445,61036dd6377eb09d6274ba3e,2021-07-29_22h13.40.817,Simcolourproject_2stim_asymm_v5,2020.2.10,Win32,60,61025ae37ef11b136ea224fe,,,,,,,,,4156,29.60006071,58.39999443,1,0,0,response1disk,,7,-3.999988616,-4.800006509,1,0,0,rectangle,-3.999988616,-4.800006509,1,0,0,-3.999988616,-4.800006509,1,0,0,0,156,156,43,1,,,,,,,,
,,,,,,,,,,,,,FF,,,,,,,,0.6493,,,,,,,,,,,,,,,,,,,,,,60fce0e8a964011b8f172445,61036dd6377eb09d6274ba3e,2021-07-29_22h13.40.817,Simcolourproject_2stim_asymm_v5,2020.2.10,Win32,60,61025ae37ef11b136ea224fe,,,,,,,,,1162,37.60006083,65.59999454,1,0,0,response1disk,,7,6.400011539,7.999993682,1,0,0,rectangle,6.400011539,7.999993682,1,0,0,6.400011539,7.999993682,1,0,0,0,157,157,9,1,,,,,,,,
,,,,,,,,,,,,,FF,,,,,,,,0.7503,,,,,,,,,,,,,,,,,,,,,,60fce0e8a964011b8f172445,61036dd6377eb09d6274ba3e,2021-07-29_22h13.40.817,Simcolourproject_2stim_asymm_v5,2020.2.10,Win32,60,61025ae37ef11b136ea224fe,,,,,,,,,2578,52.80001223,87.99999487,1,0,0,response1disk,,7,4.000011504,-0.800006449,1,0,0,rectangle,4.000011504,-0.800006449,1,0,0,4.000011504,-0.800006449,1,0,0,0,158,158,6,1,,,,,,,,
,,,,,,,,,,,,,FF,,,,,,,,1.3829,,,,,,,,,,,,,,,,,,,,,,60fce0e8a964011b8f172445,61036dd6377eb09d6274ba3e,2021-07-29_22h13.40.817,Simcolourproject_2stim_asymm_v5,2020.2.10,Win32,60,61025ae37ef11b136ea224fe,,,,,,,,,3188,-81.59998977,-44.00000709,1,0,0,response5disk,,2,-31.19998902,-8.000006557,1,0,0,rectangle,-31.19998902,-8.000006557,1,0,0,-31.19998902,-8.000006557,1,0,0,0,159,159,118,1,,,,,,,,
,,,,,,,,,,,,,FF,,,,,,,,1.8833,,,,,,,,,,,,,,,,,,,,,,60fce0e8a964011b8f172445,61036dd6377eb09d6274ba3e,2021-07-29_22h13.40.817,Simcolourproject_2stim_asymm_v5,2020.2.10,Win32,60,61025ae37ef11b136ea224fe,,,,,,,,,4359,-44.79998922,-114.4000081,1,0,0,response5disk,,3,-8.799988687,-7.200006545,1,0,0,rectangle,-8.799988687,-7.200006545,1,0,0,-8.799988687,-7.200006545,1,0,0,1,0,160,112,1,,,,,,,,
,,,,,,,,,,,,,FF,,,,,,,,0.8832,,,,,,,,,,,,,,,,,,,,,,60fce0e8a964011b8f172445,61036dd6377eb09d6274ba3e,2021-07-29_22h13.40.817,Simcolourproject_2stim_asymm_v5,2020.2.10,Win32,60,61025ae37ef11b136ea224fe,,,,,,,,,275,24.0000118,41.59999418,1,0,0,response1disk,,7,-0.799988568,-8.800006568,1,0,0,rectangle,-0.799988568,-8.800006568,1,0,0,-0.799988568,-8.800006568,1,0,0,1,1,161,101,1,,,,,,,,
,,,,,,,,,,,,,FF,,,,,,,,0.6331,,,,,,,,,,,,,,,,,,,,,,60fce0e8a964011b8f172445,61036dd6377eb09d6274ba3e,2021-07-29_22h13.40.817,Simcolourproject_2stim_asymm_v5,2020.2.10,Win32,60,61025ae37ef11b136ea224fe,,,,,,,,,1279,41.60006089,73.59999466,1,0,0,response1disk,,7,6.400011539,11.99999374,1,0,0,rectangle,6.400011539,11.99999374,1,0,0,6.400011539,11.99999374,1,0,0,1,2,162,85,1,,,,,,,,
,,,,,,,,,,,,,FF,,,,,,,,0.6497,,,,,,,,,,,,,,,,,,,,,,60fce0e8a964011b8f172445,61036dd6377eb09d6274ba3e,2021-07-29_22h13.40.817,Simcolourproject_2stim_asymm_v5,2020.2.10,Win32,60,61025ae37ef11b136ea224fe,,,,,,,,,2864,42.40001208,71.19997021,1,0,0,response1disk,,7,-0.799988568,4.799993634,1,0,0,rectangle,-0.799988568,4.799993634,1,0,0,-0.799988568,4.799993634,1,0,0,1,3,163,119,1,,,,,,,,
,,,,,,,,,,,,,FF,,,,,,,,1.0833,,,,,,,,,,,,,,,,,,,,,,60fce0e8a964011b8f172445,61036dd6377eb09d6274ba3e,2021-07-29_22h13.40.817,Simcolourproject_2stim_asymm_v5,2020.2.10,Win32,60,61025ae37ef11b136ea224fe,,,,,,,,,2660,-63.99998951,87.19997045,1,0,0,response7disk,,0,-15.99998879,15.9999938,1,0,0,rectangle,-15.99998879,15.9999938,1,0,0,-15.99998879,15.9999938,1,0,0,1,4,164,117,1,,,,,,,,
,,,,,,,,,,,,,FF,,,,,,,,1.7171,,,,,,,,,,,,,,,,,,,,,,60fce0e8a964011b8f172445,61036dd6377eb09d6274ba3e,2021-07-29_22h13.40.817,Simcolourproject_2stim_asymm_v5,2020.2.10,Win32,60,61025ae37ef11b136ea224fe,,,,,,,,,2168,-42.39994036,-107.200008,1,0,0,response5disk,,3,5.600060356,-3.200006485,1,0,0,rectangle,5.600060356,-3.200006485,1,0,0,5.600060356,-3.200006485,1,0,0,1,5,165,154,1,,,,,,,,
,,,,,,,,,,,,,FF,,,,,,,,2.9339,,,,,,,,,,,,,,,,,,,,,,60fce0e8a964011b8f172445,61036dd6377eb09d6274ba3e,2021-07-29_22h13.40.817,Simcolourproject_2stim_asymm_v5,2020.2.10,Win32,60,61025ae37ef11b136ea224fe,,,,,,,,,584,52.80001223,67.19997015,1,0,0,response1disk,,7,1.600060296,3.999993622,1,0,0,rectangle,1.600060296,3.999993622,1,0,0,1.600060296,3.999993622,1,0,0,1,6,166,78,1,,,,,,,,
,,,,,,,,,,,,,FF,,,,,,,,1.4499,,,,,,,,,,,,,,,,,,,,,,60fce0e8a964011b8f172445,61036dd6377eb09d6274ba3e,2021-07-29_22h13.40.817,Simcolourproject_2stim_asymm_v5,2020.2.10,Win32,60,61025ae37ef11b136ea224fe,,,,,,,,,1524,58.40001231,-57.6000073,1,0,0,response3disk,,5,12.80001163,7.999993682,1,0,0,rectangle,12.80001163,7.999993682,1,0,0,12.80001163,7.999993682,1,0,0,1,7,167,41,1,,,,,,,,
,,,,,,,,,,,,,FF,,,,,,,,1.7333,,,,,,,,,,,,,,,,,,,,,,60fce0e8a964011b8f172445,61036dd6377eb09d6274ba3e,2021-07-29_22h13.40.817,Simcolourproject_2stim_asymm_v5,2020.2.10,Win32,60,61025ae37ef11b136ea224fe,,,,,,,,,1163,63.20001239,108.7999952,1,0,0,response1disk,,7,-5.599988639,-2.400006473,1,0,0,rectangle,-5.599988639,-2.400006473,1,0,0,-5.599988639,-2.400006473,1,0,0,1,8,168,159,1,,,,,,,,
,,,,,,,,,,,,,FF,,,,,,,,0.65,,,,,,,,,,,,,,,,,,,,,,60fce0e8a964011b8f172445,61036dd6377eb09d6274ba3e,2021-07-29_22h13.40.817,Simcolourproject_2stim_asymm_v5,2020.2.10,Win32,60,61025ae37ef11b136ea224fe,,,,,,,,,778,28.00001186,52.79999435,1,0,0,response1disk,,7,-8.799988687,-13.60000664,1,0,0,rectangle,-8.799988687,-13.60000664,1,0,0,-8.799988687,-13.60000664,1,0,0,1,9,169,149,1,,,,,,,,
,,,,,,,,,,,,,FF,,,,,,,,1.367,,,,,,,,,,,,,,,,,,,,,,60fce0e8a964011b8f172445,61036dd6377eb09d6274ba3e,2021-07-29_22h13.40.817,Simcolourproject_2stim_asymm_v5,2020.2.10,Win32,60,61025ae37ef11b136ea224fe,,,,,,,,,702,-56.7999894,-95.20000786,1,0,0,response5disk,,3,-10.39993988,-4.000006497,1,0,0,rectangle,-10.39993988,-4.000006497,1,0,0,-10.39993988,-4.000006497,1,0,0,1,10,170,97,1,,,,,,,,
,,,,,,,,,,,,,FF,,,,,,,,6.0337,,,,,,,,,,,,,,,,,,,,,,60fce0e8a964011b8f172445,61036dd6377eb09d6274ba3e,2021-07-29_22h13.40.817,Simcolourproject_2stim_asymm_v5,2020.2.10,Win32,60,61025ae37ef11b136ea224fe,,,,,,,,,843,108.0000131,33.59999406,1,0,0,response1disk,,6,-0.799988568,-8.800006568,1,0,0,rectangle,-0.799988568,-8.800006568,1,0,0,-0.799988568,-8.800006568,1,0,0,1,11,171,9,1,,,,,,,,
,,,,,,,,,,,,,FF,,,,,,,,0.6333,,,,,,,,,,,,,,,,,,,,,,60fce0e8a964011b8f172445,61036dd6377eb09d6274ba3e,2021-07-29_22h13.40.817,Simcolourproject_2stim_asymm_v5,2020.2.10,Win32,60,61025ae37ef11b136ea224fe,,,,,,,,,3127,31.20001191,62.39999449,1,0,0,response1disk,,7,0.800011456,3.19999361,1,0,0,rectangle,0.800011456,3.19999361,1,0,0,0.800011456,3.19999361,1,0,0,1,12,172,40,1,,,,,,,,
,,,,,,,,,,,,,FF,,,,,,,,0.55,,,,,,,,,,,,,,,,,,,,,,60fce0e8a964011b8f172445,61036dd6377eb09d6274ba3e,2021-07-29_22h13.40.817,Simcolourproject_2stim_asymm_v5,2020.2.10,Win32,60,61025ae37ef11b136ea224fe,,,,,,,,,2904,31.20001191,58.39999443,1,0,0,response1disk,,7,3.200011492,13.59999377,1,0,0,rectangle,3.200011492,13.59999377,1,0,0,3.200011492,13.59999377,1,0,0,1,13,173,133,1,,,,,,,,
,,,,,,,,,,,,,FF,,,,,,,,0.5339,,,,,,,,,,,,,,,,,,,,,,60fce0e8a964011b8f172445,61036dd6377eb09d6274ba3e,2021-07-29_22h13.40.817,Simcolourproject_2stim_asymm_v5,2020.2.10,Win32,60,61025ae37ef11b136ea224fe,,,,,,,,,3355,32.00001192,80.79999477,1,0,0,response1disk,,7,8.000011563,11.99999374,1,0,0,rectangle,8.000011563,11.99999374,1,0,0,8.000011563,11.99999374,1,0,0,1,14,174,128,1,,,,,,,,
,,,,,,,,,,,,,FF,,,,,,,,1.2994,,,,,,,,,,,,,,,,,,,,,,60fce0e8a964011b8f172445,61036dd6377eb09d6274ba3e,2021-07-29_22h13.40.817,Simcolourproject_2stim_asymm_v5,2020.2.10,Win32,60,61025ae37ef11b136ea224fe,,,,,,,,,2029,25.60006065,-95.20000786,1,0,0,response3disk,,4,2.40001148,-6.4373E-06,1,0,0,rectangle,2.40001148,-6.4373E-06,1,0,0,2.40001148,-6.4373E-06,1,0,0,1,15,175,18,1,,,,,,,,
,,,,,,,,,,,,,FF,,,,,,,,0.9497,,,,,,,,,,,,,,,,,,,,,,60fce0e8a964011b8f172445,61036dd6377eb09d6274ba3e,2021-07-29_22h13.40.817,Simcolourproject_2stim_asymm_v5,2020.2.10,Win32,60,61025ae37ef11b136ea224fe,,,,,,,,,625,32.80001193,76.79999471,1,0,0,response1disk,,7,11.20001161,8.799993694,1,0,0,rectangle,11.20001161,8.799993694,1,0,0,11.20001161,8.799993694,1,0,0,1,16,176,144,1,,,,,,,,
,,,,,,,,,,,,,FF,,,,,,,,0.6006,,,,,,,,,,,,,,,,,,,,,,60fce0e8a964011b8f172445,61036dd6377eb09d6274ba3e,2021-07-29_22h13.40.817,Simcolourproject_2stim_asymm_v5,2020.2.10,Win32,60,61025ae37ef11b136ea224fe,,,,,,,,,2067,37.60006083,66.39999455,1,0,0,response1disk,,7,4.000011504,2.399993598,1,0,0,rectangle,4.000011504,2.399993598,1,0,0,4.000011504,2.399993598,1,0,0,1,17,177,29,1,,,,,,,,
,,,,,,,,,,,,,FF,,,,,,,,0.9995,,,,,,,,,,,,,,,,,,,,,,60fce0e8a964011b8f172445,61036dd6377eb09d6274ba3e,2021-07-29_22h13.40.817,Simcolourproject_2stim_asymm_v5,2020.2.10,Win32,60,61025ae37ef11b136ea224fe,,,,,,,,,602,72.80001253,37.59999412,1,0,0,response1disk,,6,2.40001148,-9.60000658,1,0,0,rectangle,2.40001148,-9.60000658,1,0,0,2.40001148,-9.60000658,1,0,0,1,18,178,140,1,,,,,,,,
,,,,,,,,,,,,,FF,,,,,,,,0.6671,,,,,,,,,,,,,,,,,,,,,,60fce0e8a964011b8f172445,61036dd6377eb09d6274ba3e,2021-07-29_22h13.40.817,Simcolourproject_2stim_asymm_v5,2020.2.10,Win32,60,61025ae37ef11b136ea224fe,,,,,,,,,449,35.20001197,47.99999428,1,0,0,response1disk,,7,10.4000116,7.999993682,1,0,0,rectangle,10.4000116,7.999993682,1,0,0,10.4000116,7.999993682,1,0,0,1,19,179,19,1,,,,,,,,
,,,,,,,,,,,,,FF,,,,,,,,0.5499,,,,,,,,,,,,,,,,,,,,,,60fce0e8a964011b8f172445,61036dd6377eb09d6274ba3e,2021-07-29_22h13.40.817,Simcolourproject_2stim_asymm_v5,2020.2.10,Win32,60,61025ae37ef11b136ea224fe,,,,,,,,,1095,38.40001202,63.99999452,1,0,0,response1disk,,7,-3.199988604,1.599993587,1,0,0,rectangle,-3.199988604,1.599993587,1,0,0,-3.199988604,1.599993587,1,0,0,1,20,180,1,1,,,,,,,,
,,,,,,,,,,,,,FF,,,,,,,,0.5004,,,,,,,,,,,,,,,,,,,,,,60fce0e8a964011b8f172445,61036dd6377eb09d6274ba3e,2021-07-29_22h13.40.817,Simcolourproject_2stim_asymm_v5,2020.2.10,Win32,60,61025ae37ef11b136ea224fe,,,,,,,,,2567,28.00001186,48.79999429,1,0,0,response1disk,,7,-1.59998858,-8.800006568,1,0,0,rectangle,-1.59998858,-8.800006568,1,0,0,-1.59998858,-8.800006568,1,0,0,1,21,181,124,1,,,,,,,,
,,,,,,,,,,,,,FF,,,,,,,,0.5669,,,,,,,,,,,,,,,,,,,,,,60fce0e8a964011b8f172445,61036dd6377eb09d6274ba3e,2021-07-29_22h13.40.817,Simcolourproject_2stim_asymm_v5,2020.2.10,Win32,60,61025ae37ef11b136ea224fe,,,,,,,,,676,38.40001202,52.79999435,1,0,0,response1disk,,7,4.800011516,-3.200006485,1,0,0,rectangle,4.800011516,-3.200006485,1,0,0,4.800011516,-3.200006485,1,0,0,1,22,182,88,1,,,,,,,,
,,,,,,,,,,,,,FF,,,,,,,,0.5001,,,,,,,,,,,,,,,,,,,,,,60fce0e8a964011b8f172445,61036dd6377eb09d6274ba3e,2021-07-29_22h13.40.817,Simcolourproject_2stim_asymm_v5,2020.2.10,Win32,60,61025ae37ef11b136ea224fe,,,,,,,,,1407,33.60006077,52.79999435,1,0,0,response1disk,,7,-2.399939764,1.599993587,1,0,0,rectangle,-2.399939764,1.599993587,1,0,0,-2.399939764,1.599993587,1,0,0,1,23,183,17,1,,,,,,,,
,,,,,,,,,,,,,FF,,,,,,,,0.617,,,,,,,,,,,,,,,,,,,,,,60fce0e8a964011b8f172445,61036dd6377eb09d6274ba3e,2021-07-29_22h13.40.817,Simcolourproject_2stim_asymm_v5,2020.2.10,Win32,60,61025ae37ef11b136ea224fe,,,,,,,,,2283,20.80001175,55.9999944,1,0,0,response1disk,,7,6.400011539,5.599993646,1,0,0,rectangle,6.400011539,5.599993646,1,0,0,6.400011539,5.599993646,1,0,0,1,24,184,69,1,,,,,,,,
,,,,,,,,,,,,,FF,,,,,,,,1.3999,,,,,,,,,,,,,,,,,,,,,,60fce0e8a964011b8f172445,61036dd6377eb09d6274ba3e,2021-07-29_22h13.40.817,Simcolourproject_2stim_asymm_v5,2020.2.10,Win32,60,61025ae37ef11b136ea224fe,,,,,,,,,373,80.00001264,-36.80000699,1,0,0,response3disk,,5,11.20001161,-6.4373E-06,1,0,0,rectangle,11.20001161,-6.4373E-06,1,0,0,11.20001161,-6.4373E-06,1,0,0,1,25,185,36,1,,,,,,,,
,,,,,,,,,,,,,FF,,,,,,,,1.9997,,,,,,,,,,,,,,,,,,,,,,60fce0e8a964011b8f172445,61036dd6377eb09d6274ba3e,2021-07-29_22h13.40.817,Simcolourproject_2stim_asymm_v5,2020.2.10,Win32,60,61025ae37ef11b136ea224fe,,,,,,,,,3848,-99.19999003,23.19996949,1,0,0,response7disk,,1,6.400011539,-10.40000659,1,0,0,rectangle,6.400011539,-10.40000659,1,0,0,6.400011539,-10.40000659,1,0,0,1,26,186,87,1,,,,,,,,
,,,,,,,,,,,,,FF,,,,,,,,0.7671,,,,,,,,,,,,,,,,,,,,,,60fce0e8a964011b8f172445,61036dd6377eb09d6274ba3e,2021-07-29_22h13.40.817,Simcolourproject_2stim_asymm_v5,2020.2.10,Win32,60,61025ae37ef11b136ea224fe,,,,,,,,,3083,45.60006095,61.59999448,1,0,0,response1disk,,7,-7.999988675,6.399993658,1,0,0,rectangle,-7.999988675,6.399993658,1,0,0,-7.999988675,6.399993658,1,0,0,1,27,187,123,1,,,,,,,,
,,,,,,,,,,,,,FF,,,,,,,,0.6,,,,,,,,,,,,,,,,,,,,,,60fce0e8a964011b8f172445,61036dd6377eb09d6274ba3e,2021-07-29_22h13.40.817,Simcolourproject_2stim_asymm_v5,2020.2.10,Win32,60,61025ae37ef11b136ea224fe,,,,,,,,,2082,32.00001192,69.5999946,1,0,0,response1disk,,7,-5.599988639,-2.400006473,1,0,0,rectangle,-5.599988639,-2.400006473,1,0,0,-5.599988639,-2.400006473,1,0,0,1,28,188,30,1,,,,,,,,
,,,,,,,,,,,,,FF,,,,,,,,1.0834,,,,,,,,,,,,,,,,,,,,,,60fce0e8a964011b8f172445,61036dd6377eb09d6274ba3e,2021-07-29_22h13.40.817,Simcolourproject_2stim_asymm_v5,2020.2.10,Win32,60,61025ae37ef11b136ea224fe,,,,,,,,,4279,75.20001256,34.39999408,1,0,0,response1disk,,6,4.000011504,-9.60000658,1,0,0,rectangle,50.4000122,-100.0000079,1,0,0,5.600060356,3.19999361,1,0,0,1,29,189,114,1,,response3disk_3,TRUE,4,4,"[190,89,313,282,140,249,262,6,155,152,262,229,265,65,213,247,73,95,318,295]",2.1163,rectangle
,,,,,,,,,,,,,FF,,,,,,,,1.3672,,,,,,,,,,,,,,,,,,,,,,60fce0e8a964011b8f172445,61036dd6377eb09d6274ba3e,2021-07-29_22h13.40.817,Simcolourproject_2stim_asymm_v5,2020.2.10,Win32,60,61025ae37ef11b136ea224fe,,,,,,,,,4070,48.00001216,70.39999461,1,0,0,response1disk,,7,0.800011456,10.39999372,1,0,0,rectangle,0.800011456,10.39999372,1,0,0,0.800011456,10.39999372,1,0,0,1,30,190,81,1,,,,,,,,
,,,,,,,,,,,,,FF,,,,,,,,0.6005,,,,,,,,,,,,,,,,,,,,,,60fce0e8a964011b8f172445,61036dd6377eb09d6274ba3e,2021-07-29_22h13.40.817,Simcolourproject_2stim_asymm_v5,2020.2.10,Win32,60,61025ae37ef11b136ea224fe,,,,,,,,,3886,40.80001205,83.19997039,1,0,0,response1disk,,7,4.000011504,7.19999367,1,0,0,rectangle,4.000011504,7.19999367,1,0,0,4.000011504,7.19999367,1,0,0,1,31,191,12,1,,,,,,,,
,,,,,,,,,,,,,FF,,,,,,,,0.5666,,,,,,,,,,,,,,,,,,,,,,60fce0e8a964011b8f172445,61036dd6377eb09d6274ba3e,2021-07-29_22h13.40.817,Simcolourproject_2stim_asymm_v5,2020.2.10,Win32,60,61025ae37ef11b136ea224fe,,,,,,,,,2616,42.40001208,81.59999478,1,0,0,response1disk,,7,1.14441E-05,8.799993694,1,0,0,rectangle,1.14441E-05,8.799993694,1,0,0,1.14441E-05,8.799993694,1,0,0,1,32,192,15,1,,,,,,,,
,,,,,,,,,,,,,FF,,,,,,,,0.9668,,,,,,,,,,,,,,,,,,,,,,60fce0e8a964011b8f172445,61036dd6377eb09d6274ba3e,2021-07-29_22h13.40.817,Simcolourproject_2stim_asymm_v5,2020.2.10,Win32,60,61025ae37ef11b136ea224fe,,,,,,,,,2610,70.40001249,29.599994,1,0,0,response1disk,,6,1.600060296,-3.200006485,1,0,0,rectangle,1.600060296,-3.200006485,1,0,0,1.600060296,-3.200006485,1,0,0,1,33,193,121,1,,,,,,,,
,,,,,,,,,,,,,FF,,,,,,,,0.9326,,,,,,,,,,,,,,,,,,,,,,60fce0e8a964011b8f172445,61036dd6377eb09d6274ba3e,2021-07-29_22h13.40.817,Simcolourproject_2stim_asymm_v5,2020.2.10,Win32,60,61025ae37ef11b136ea224fe,,,,,,,,,3765,39.20001203,59.99999446,1,0,0,response1disk,,7,3.200011492,-2.400006473,1,0,0,rectangle,3.200011492,-2.400006473,1,0,0,3.200011492,-2.400006473,1,0,0,1,34,194,44,1,,,,,,,,
,,,,,,,,,,,,,FF,,,,,,,,0.5663,,,,,,,,,,,,,,,,,,,,,,60fce0e8a964011b8f172445,61036dd6377eb09d6274ba3e,2021-07-29_22h13.40.817,Simcolourproject_2stim_asymm_v5,2020.2.10,Win32,60,61025ae37ef11b136ea224fe,,,,,,,,,2971,28.80001187,55.19996997,1,0,0,response1disk,,7,10.4000116,0.799993575,1,0,0,rectangle,10.4000116,0.799993575,1,0,0,10.4000116,0.799993575,1,0,0,1,35,195,145,1,,,,,,,,
,,,,,,,,,,,,,FF,,,,,,,,0.583,,,,,,,,,,,,,,,,,,,,,,60fce0e8a964011b8f172445,61036dd6377eb09d6274ba3e,2021-07-29_22h13.40.817,Simcolourproject_2stim_asymm_v5,2020.2.10,Win32,60,61025ae37ef11b136ea224fe,,,,,,,,,749,41.60006089,72.79999465,1,0,0,response1disk,,7,9.600060415,5.599993646,1,0,0,rectangle,9.600060415,5.599993646,1,0,0,9.600060415,5.599993646,1,0,0,1,36,196,37,1,,,,,,,,
,,,,,,,,,,,,,FF,,,,,,,,1.2002,,,,,,,,,,,,,,,,,,,,,,60fce0e8a964011b8f172445,61036dd6377eb09d6274ba3e,2021-07-29_22h13.40.817,Simcolourproject_2stim_asymm_v5,2020.2.10,Win32,60,61025ae37ef11b136ea224fe,,,,,,,,,1818,-87.19998986,24.79999393,1,0,0,response7disk,,1,27.20001185,-8.800006568,1,0,0,rectangle,27.20001185,-8.800006568,1,0,0,27.20001185,-8.800006568,1,0,0,1,37,197,75,1,,,,,,,,
,,,,,,,,,,,,,FF,,,,,,,,0.9999,,,,,,,,,,,,,,,,,,,,,,60fce0e8a964011b8f172445,61036dd6377eb09d6274ba3e,2021-07-29_22h13.40.817,Simcolourproject_2stim_asymm_v5,2020.2.10,Win32,60,61025ae37ef11b136ea224fe,,,,,,,,,4205,-75.99998969,35.19996967,1,0,0,response7disk,,1,4.000011504,-6.400006533,1,0,0,rectangle,4.000011504,-6.400006533,1,0,0,4.000011504,-6.400006533,1,0,0,1,38,198,95,1,,,,,,,,
,,,,,,,,,,,,,FF,,,,,,,,0.8168,,,,,,,,,,,,,,,,,,,,,,60fce0e8a964011b8f172445,61036dd6377eb09d6274ba3e,2021-07-29_22h13.40.817,Simcolourproject_2stim_asymm_v5,2020.2.10,Win32,60,61025ae37ef11b136ea224fe,,,,,,,,,2336,28.80001187,53.59999436,1,0,0,response1disk,,7,1.600060296,6.399993658,1,0,0,rectangle,1.600060296,6.399993658,1,0,0,1.600060296,6.399993658,1,0,0,1,39,199,130,1,,,,,,,,
,,,,,,,,,,,,,FF,,,,,,,,1.281,,,,,,,,,,,,,,,,,,,,,,60fce0e8a964011b8f172445,61036dd6377eb09d6274ba3e,2021-07-29_22h13.40.817,Simcolourproject_2stim_asymm_v5,2020.2.10,Win32,60,61025ae37ef11b136ea224fe,,,,,,,,,1446,-87.99998987,-32.00000691,1,0,0,response5disk,,2,-30.39994018,-8.800006568,1,0,0,rectangle,-30.39994018,-8.800006568,1,0,0,-30.39994018,-8.800006568,1,0,0,1,40,200,34,1,,,,,,,,
,,,,,,,,,,,,,FF,,,,,,,,0.6499,,,,,,,,,,,,,,,,,,,,,,60fce0e8a964011b8f172445,61036dd6377eb09d6274ba3e,2021-07-29_22h13.40.817,Simcolourproject_2stim_asymm_v5,2020.2.10,Win32,60,61025ae37ef11b136ea224fe,,,,,,,,,925,29.60006071,67.19997015,1,0,0,response1disk,,7,-8.799988687,-12.00000662,1,0,0,rectangle,-8.799988687,-12.00000662,1,0,0,-8.799988687,-12.00000662,1,0,0,1,41,201,93,1,,,,,,,,
,,,,,,,,,,,,,FF,,,,,,,,0.7832,,,,,,,,,,,,,,,,,,,,,,60fce0e8a964011b8f172445,61036dd6377eb09d6274ba3e,2021-07-29_22h13.40.817,Simcolourproject_2stim_asymm_v5,2020.2.10,Win32,60,61025ae37ef11b136ea224fe,,,,,,,,,1278,37.60006083,60.79999447,1,0,0,response1disk,,7,7.200011551,8.799993694,1,0,0,rectangle,7.200011551,8.799993694,1,0,0,7.200011551,8.799993694,1,0,0,1,42,202,134,1,,,,,,,,
,,,,,,,,,,,,,FF,,,,,,,,0.7836,,,,,,,,,,,,,,,,,,,,,,60fce0e8a964011b8f172445,61036dd6377eb09d6274ba3e,2021-07-29_22h13.40.817,Simcolourproject_2stim_asymm_v5,2020.2.10,Win32,60,61025ae37ef11b136ea224fe,,,,,,,,,4135,24.80001181,49.5999943,1,0,0,response1disk,,7,-7.199988663,-9.60000658,1,0,0,rectangle,-7.199988663,-9.60000658,1,0,0,-7.199988663,-9.60000658,1,0,0,1,43,203,135,1,,,,,,,,
,,,,,,,,,,,,,FF,,,,,,,,0.7669,,,,,,,,,,,,,,,,,,,,,,60fce0e8a964011b8f172445,61036dd6377eb09d6274ba3e,2021-07-29_22h13.40.817,Simcolourproject_2stim_asymm_v5,2020.2.10,Win32,60,61025ae37ef11b136ea224fe,,,,,,,,,2536,20.00001174,33.59999406,1,0,0,response1disk,,7,3.200011492,0.799993575,1,0,0,rectangle,3.200011492,0.799993575,1,0,0,3.200011492,0.799993575,1,0,0,1,44,204,86,1,,,,,,,,
,,,,,,,,,,,,,FF,,,,,,,,0.7164,,,,,,,,,,,,,,,,,,,,,,60fce0e8a964011b8f172445,61036dd6377eb09d6274ba3e,2021-07-29_22h13.40.817,Simcolourproject_2stim_asymm_v5,2020.2.10,Win32,60,61025ae37ef11b136ea224fe,,,,,,,,,2875,24.80001181,39.99999416,1,0,0,response1disk,,7,9.600060415,7.999993682,1,0,0,rectangle,9.600060415,7.999993682,1,0,0,9.600060415,7.999993682,1,0,0,1,45,205,43,1,,,,,,,,
,,,,,,,,,,,,,FF,,,,,,,,0.6669,,,,,,,,,,,,,,,,,,,,,,60fce0e8a964011b8f172445,61036dd6377eb09d6274ba3e,2021-07-29_22h13.40.817,Simcolourproject_2stim_asymm_v5,2020.2.10,Win32,60,61025ae37ef11b136ea224fe,,,,,,,,,451,32.00001192,44.79999423,1,0,0,response1disk,,7,11.20001161,7.19999367,1,0,0,rectangle,11.20001161,7.19999367,1,0,0,11.20001161,7.19999367,1,0,0,1,46,206,153,1,,,,,,,,
,,,,,,,,,,,,,FF,,,,,,,,0.6834,,,,,,,,,,,,,,,,,,,,,,60fce0e8a964011b8f172445,61036dd6377eb09d6274ba3e,2021-07-29_22h13.40.817,Simcolourproject_2stim_asymm_v5,2020.2.10,Win32,60,61025ae37ef11b136ea224fe,,,,,,,,,3175,28.00001186,45.59999424,1,0,0,response1disk,,7,0.800011456,2.399993598,1,0,0,rectangle,0.800011456,2.399993598,1,0,0,0.800011456,2.399993598,1,0,0,1,47,207,5,1,,,,,,,,
,,,,,,,,,,,,,FF,,,,,,,,0.5998,,,,,,,,,,,,,,,,,,,,,,60fce0e8a964011b8f172445,61036dd6377eb09d6274ba3e,2021-07-29_22h13.40.817,Simcolourproject_2stim_asymm_v5,2020.2.10,Win32,60,61025ae37ef11b136ea224fe,,,,,,,,,3335,27.20001185,61.59999448,1,0,0,response1disk,,7,-0.799988568,-1.600006461,1,0,0,rectangle,-0.799988568,-1.600006461,1,0,0,-0.799988568,-1.600006461,1,0,0,1,48,208,118,1,,,,,,,,
,,,,,,,,,,,,,FF,,,,,,,,0.6484,,,,,,,,,,,,,,,,,,,,,,60fce0e8a964011b8f172445,61036dd6377eb09d6274ba3e,2021-07-29_22h13.40.817,Simcolourproject_2stim_asymm_v5,2020.2.10,Win32,60,61025ae37ef11b136ea224fe,,,,,,,,,4193,34.40001196,63.19997009,1,0,0,response1disk,,7,-1.59998858,-5.600006521,1,0,0,rectangle,-1.59998858,-5.600006521,1,0,0,-1.59998858,-5.600006521,1,0,0,1,49,209,108,1,,,,,,,,
,,,,,,,,,,,,,FF,,,,,,,,1.517,,,,,,,,,,,,,,,,,,,,,,60fce0e8a964011b8f172445,61036dd6377eb09d6274ba3e,2021-07-29_22h13.40.817,Simcolourproject_2stim_asymm_v5,2020.2.10,Win32,60,61025ae37ef11b136ea224fe,,,,,,,,,3368,40.00001204,81.59999478,1,0,0,response1disk,,7,-1.59998858,-1.600006461,1,0,0,rectangle,-1.59998858,-1.600006461,1,0,0,-1.59998858,-1.600006461,1,0,0,1,50,210,122,1,,,,,,,,
,,,,,,,,,,,,,FF,,,,,,,,1.0831,,,,,,,,,,,,,,,,,,,,,,60fce0e8a964011b8f172445,61036dd6377eb09d6274ba3e,2021-07-29_22h13.40.817,Simcolourproject_2stim_asymm_v5,2020.2.10,Win32,60,61025ae37ef11b136ea224fe,,,,,,,,,1744,-103.9999901,-41.60000706,1,0,0,response5disk,,2,-9.599988699,-6.4373E-06,1,0,0,rectangle,-9.599988699,-6.4373E-06,1,0,0,-9.599988699,-6.4373E-06,1,0,0,1,51,211,35,1,,,,,,,,
,,,,,,,,,,,,,FF,,,,,,,,0.8168,,,,,,,,,,,,,,,,,,,,,,60fce0e8a964011b8f172445,61036dd6377eb09d6274ba3e,2021-07-29_22h13.40.817,Simcolourproject_2stim_asymm_v5,2020.2.10,Win32,60,61025ae37ef11b136ea224fe,,,,,,,,,1422,24.80001181,76.79999471,1,0,0,response1disk,,7,4.000011504,3.999993622,1,0,0,rectangle,116.0000132,-45.60000712,1,0,0,2.40001148,-1.600006461,1,0,0,1,52,212,110,1,,response3disk_3,TRUE,5,5,"[190,89,313,282,140,249,262,6,155,152,262,229,265,65,213,247,73,95,318,295]",1.683,rectangle
,,,,,,,,,,,,,FF,,,,,,,,0.8504,,,,,,,,,,,,,,,,,,,,,,60fce0e8a964011b8f172445,61036dd6377eb09d6274ba3e,2021-07-29_22h13.40.817,Simcolourproject_2stim_asymm_v5,2020.2.10,Win32,60,61025ae37ef11b136ea224fe,,,,,,,,,3695,32.80001193,64.79999453,1,0,0,response1disk,,7,9.600060415,6.399993658,1,0,0,rectangle,9.600060415,6.399993658,1,0,0,9.600060415,6.399993658,1,0,0,1,53,213,91,1,,,,,,,,
,,,,,,,,,,,,,FF,,,,,,,,1.2502,,,,,,,,,,,,,,,,,,,,,,60fce0e8a964011b8f172445,61036dd6377eb09d6274ba3e,2021-07-29_22h13.40.817,Simcolourproject_2stim_asymm_v5,2020.2.10,Win32,60,61025ae37ef11b136ea224fe,,,,,,,,,1525,-43.1999892,-88.80000776,1,0,0,response5disk,,3,-4.799988627,-8.000006557,1,0,0,rectangle,-4.799988627,-8.000006557,1,0,0,-4.799988627,-8.000006557,1,0,0,1,54,214,115,1,,,,,,,,
,,,,,,,,,,,,,FF,,,,,,,,0.6333,,,,,,,,,,,,,,,,,,,,,,60fce0e8a964011b8f172445,61036dd6377eb09d6274ba3e,2021-07-29_22h13.40.817,Simcolourproject_2stim_asymm_v5,2020.2.10,Win32,60,61025ae37ef11b136ea224fe,,,,,,,,,2332,35.20001197,67.99999458,1,0,0,response1disk,,7,8.800011575,-5.600006521,1,0,0,rectangle,8.800011575,-5.600006521,1,0,0,8.800011575,-5.600006521,1,0,0,1,55,215,127,1,,,,,,,,
,,,,,,,,,,,,,FF,,,,,,,,1.4675,,,,,,,,,,,,,,,,,,,,,,60fce0e8a964011b8f172445,61036dd6377eb09d6274ba3e,2021-07-29_22h13.40.817,Simcolourproject_2stim_asymm_v5,2020.2.10,Win32,60,61025ae37ef11b136ea224fe,,,,,,,,,3680,-38.3999403,-92.80000782,1,0,0,response5disk,,3,2.40001148,-8.000006557,1,0,0,rectangle,2.40001148,-8.000006557,1,0,0,2.40001148,-8.000006557,1,0,0,1,56,216,21,1,,,,,,,,
,,,,,,,,,,,,,FF,,,,,,,,0.6505,,,,,,,,,,,,,,,,,,,,,,60fce0e8a964011b8f172445,61036dd6377eb09d6274ba3e,2021-07-29_22h13.40.817,Simcolourproject_2stim_asymm_v5,2020.2.10,Win32,60,61025ae37ef11b136ea224fe,,,,,,,,,671,44.0000121,77.59999472,1,0,0,response1disk,,7,-7.999988675,-8.000006557,1,0,0,rectangle,-7.999988675,-8.000006557,1,0,0,-7.999988675,-8.000006557,1,0,0,1,57,217,83,1,,,,,,,,
,,,,,,,,,,,,,FF,,,,,,,,0.5994,,,,,,,,,,,,,,,,,,,,,,60fce0e8a964011b8f172445,61036dd6377eb09d6274ba3e,2021-07-29_22h13.40.817,Simcolourproject_2stim_asymm_v5,2020.2.10,Win32,60,61025ae37ef11b136ea224fe,,,,,,,,,3491,30.4000119,53.59999436,1,0,0,response1disk,,7,3.200011492,3.999993622,1,0,0,rectangle,3.200011492,3.999993622,1,0,0,3.200011492,3.999993622,1,0,0,1,58,218,73,1,,,,,,,,
,,,,,,,,,,,,,FF,,,,,,,,1.1833,,,,,,,,,,,,,,,,,,,,,,60fce0e8a964011b8f172445,61036dd6377eb09d6274ba3e,2021-07-29_22h13.40.817,Simcolourproject_2stim_asymm_v5,2020.2.10,Win32,60,61025ae37ef11b136ea224fe,,,,,,,,,436,-46.39994042,-63.20000738,1,0,0,response5disk,,3,-2.399939764,1.599993587,1,0,0,rectangle,-2.399939764,1.599993587,1,0,0,-2.399939764,1.599993587,1,0,0,1,59,219,4,1,,,,,,,,
,,,,,,,,,,,,,FF,,,,,,,,0.6493,,,,,,,,,,,,,,,,,,,,,,60fce0e8a964011b8f172445,61036dd6377eb09d6274ba3e,2021-07-29_22h13.40.817,Simcolourproject_2stim_asymm_v5,2020.2.10,Win32,60,61025ae37ef11b136ea224fe,,,,,,,,,2685,34.40001196,63.99999452,1,0,0,response1disk,,7,2.40001148,0.799993575,1,0,0,rectangle,2.40001148,0.799993575,1,0,0,2.40001148,0.799993575,1,0,0,1,60,220,94,1,,,,,,,,
,,,,,,,,,,,,,FF,,,,,,,,0.7163,,,,,,,,,,,,,,,,,,,,,,60fce0e8a964011b8f172445,61036dd6377eb09d6274ba3e,2021-07-29_22h13.40.817,Simcolourproject_2stim_asymm_v5,2020.2.10,Win32,60,61025ae37ef11b136ea224fe,,,,,,,,,2452,43.20001209,66.39999455,1,0,0,response1disk,,7,12.00001162,0.799993575,1,0,0,rectangle,12.00001162,0.799993575,1,0,0,12.00001162,0.799993575,1,0,0,1,61,221,59,1,,,,,,,,
,,,,,,,,,,,,,FF,,,,,,,,0.8502,,,,,,,,,,,,,,,,,,,,,,60fce0e8a964011b8f172445,61036dd6377eb09d6274ba3e,2021-07-29_22h13.40.817,Simcolourproject_2stim_asymm_v5,2020.2.10,Win32,60,61025ae37ef11b136ea224fe,,,,,,,,,3161,29.60006071,52.79999435,1,0,0,response1disk,,7,2.40001148,-9.60000658,1,0,0,rectangle,2.40001148,-9.60000658,1,0,0,2.40001148,-9.60000658,1,0,0,1,62,222,72,1,,,,,,,,
,,,,,,,,,,,,,FF,,,,,,,,2.3331,,,,,,,,,,,,,,,,,,,,,,60fce0e8a964011b8f172445,61036dd6377eb09d6274ba3e,2021-07-29_22h13.40.817,Simcolourproject_2stim_asymm_v5,2020.2.10,Win32,60,61025ae37ef11b136ea224fe,,,,,,,,,3259,27.20001185,-71.2000075,1,0,0,response3disk,,4,-7.199988663,14.39999378,1,0,0,rectangle,-7.199988663,14.39999378,1,0,0,-7.199988663,14.39999378,1,0,0,1,63,223,58,1,,,,,,,,
,,,,,,,,,,,,,FF,,,,,,,,2.233,,,,,,,,,,,,,,,,,,,,,,60fce0e8a964011b8f172445,61036dd6377eb09d6274ba3e,2021-07-29_22h13.40.817,Simcolourproject_2stim_asymm_v5,2020.2.10,Win32,60,61025ae37ef11b136ea224fe,,,,,,,,,3502,74.40001255,-36.00000697,1,0,0,response3disk,,5,-3.999988616,-7.200006545,1,0,0,rectangle,-3.999988616,-7.200006545,1,0,0,-3.999988616,-7.200006545,1,0,0,1,64,224,120,1,,,,,,,,
,,,,,,,,,,,,,FF,,,,,,,,1.2165,,,,,,,,,,,,,,,,,,,,,,60fce0e8a964011b8f172445,61036dd6377eb09d6274ba3e,2021-07-29_22h13.40.817,Simcolourproject_2stim_asymm_v5,2020.2.10,Win32,60,61025ae37ef11b136ea224fe,,,,,,,,,810,-67.99998957,-68.80000746,1,0,0,response5disk,,3,-3.999988616,4.799993634,1,0,0,rectangle,-3.999988616,4.799993634,1,0,0,-3.999988616,4.799993634,1,0,0,1,65,225,74,1,,,,,,,,
,,,,,,,,,,,,,FF,,,,,,,,0.9836,,,,,,,,,,,,,,,,,,,,,,60fce0e8a964011b8f172445,61036dd6377eb09d6274ba3e,2021-07-29_22h13.40.817,Simcolourproject_2stim_asymm_v5,2020.2.10,Win32,60,61025ae37ef11b136ea224fe,,,,,,,,,2041,-20.79998887,-65.60000741,1,0,0,response5disk,,3,12.00001162,-10.40000659,1,0,0,rectangle,12.00001162,-10.40000659,1,0,0,12.00001162,-10.40000659,1,0,0,1,66,226,0,1,,,,,,,,
,,,,,,,,,,,,,FF,,,,,,,,0.6339,,,,,,,,,,,,,,,,,,,,,,60fce0e8a964011b8f172445,61036dd6377eb09d6274ba3e,2021-07-29_22h13.40.817,Simcolourproject_2stim_asymm_v5,2020.2.10,Win32,60,61025ae37ef11b136ea224fe,,,,,,,,,710,34.40001196,74.39999467,1,0,0,response1disk,,7,-5.599988639,-3.200006485,1,0,0,rectangle,-5.599988639,-3.200006485,1,0,0,-5.599988639,-3.200006485,1,0,0,1,67,227,96,1,,,,,,,,
,,,,,,,,,,,,,FF,,,,,,,,0.5996,,,,,,,,,,,,,,,,,,,,,,60fce0e8a964011b8f172445,61036dd6377eb09d6274ba3e,2021-07-29_22h13.40.817,Simcolourproject_2stim_asymm_v5,2020.2.10,Win32,60,61025ae37ef11b136ea224fe,,,,,,,,,3334,32.00001192,62.39999449,1,0,0,response1disk,,7,8.000011563,6.399993658,1,0,0,rectangle,-109.5999902,-52.00000721,1,0,0,-15.19998878,-8.000006557,1,0,0,1,68,228,125,1,,response5disk_3,TRUE,2,2,"[190,89,313,282,140,249,262,6,155,152,262,229,265,65,213,247,73,95,318,295]",1.8161,rectangle
,,,,,,,,,,,,,FF,,,,,,,,1.3336,,,,,,,,,,,,,,,,,,,,,,60fce0e8a964011b8f172445,61036dd6377eb09d6274ba3e,2021-07-29_22h13.40.817,Simcolourproject_2stim_asymm_v5,2020.2.10,Win32,60,61025ae37ef11b136ea224fe,,,,,,,,,10,35.20001197,73.59999466,1,0,0,response1disk,,7,-11.99998873,-16.80000669,1,0,0,rectangle,-11.99998873,-16.80000669,1,0,0,-11.99998873,-16.80000669,1,0,0,1,69,229,47,1,,,,,,,,
,,,,,,,,,,,,,FF,,,,,,,,1.1999,,,,,,,,,,,,,,,,,,,,,,60fce0e8a964011b8f172445,61036dd6377eb09d6274ba3e,2021-07-29_22h13.40.817,Simcolourproject_2stim_asymm_v5,2020.2.10,Win32,60,61025ae37ef11b136ea224fe,,,,,,,,,3815,-69.59998959,-38.40000701,1,0,0,response5disk,,2,-20.79998887,-10.40000659,1,0,0,rectangle,-20.79998887,-10.40000659,1,0,0,-20.79998887,-10.40000659,1,0,0,1,70,230,20,1,,,,,,,,
,,,,,,,,,,,,,FF,,,,,,,,0.9661,,,,,,,,,,,,,,,,,,,,,,60fce0e8a964011b8f172445,61036dd6377eb09d6274ba3e,2021-07-29_22h13.40.817,Simcolourproject_2stim_asymm_v5,2020.2.10,Win32,60,61025ae37ef11b136ea224fe,,,,,,,,,3943,-58.3999406,38.39999413,1,0,0,response7disk,,1,-3.999988616,11.19999373,1,0,0,rectangle,-3.999988616,11.19999373,1,0,0,-3.999988616,11.19999373,1,0,0,1,71,231,42,1,,,,,,,,
,,,,,,,,,,,,,FF,,,,,,,,1.5831,,,,,,,,,,,,,,,,,,,,,,60fce0e8a964011b8f172445,61036dd6377eb09d6274ba3e,2021-07-29_22h13.40.817,Simcolourproject_2stim_asymm_v5,2020.2.10,Win32,60,61025ae37ef11b136ea224fe,,,,,,,,,3386,-47.99998927,-82.40000767,1,0,0,response5disk,,3,-6.399939823,-3.200006485,1,0,0,rectangle,-6.399939823,-3.200006485,1,0,0,-6.399939823,-3.200006485,1,0,0,1,72,232,99,1,,,,,,,,
,,,,,,,,,,,,,FF,,,,,,,,1.0504,,,,,,,,,,,,,,,,,,,,,,60fce0e8a964011b8f172445,61036dd6377eb09d6274ba3e,2021-07-29_22h13.40.817,Simcolourproject_2stim_asymm_v5,2020.2.10,Win32,60,61025ae37ef11b136ea224fe,,,,,,,,,2899,-33.59998906,-39.20000702,1,0,0,response5disk,,3,-1.59998858,16.79999381,1,0,0,rectangle,-1.59998858,16.79999381,1,0,0,-1.59998858,16.79999381,1,0,0,1,73,233,56,1,,,,,,,,
,,,,,,,,,,,,,FF,,,,,,,,0.9167,,,,,,,,,,,,,,,,,,,,,,60fce0e8a964011b8f172445,61036dd6377eb09d6274ba3e,2021-07-29_22h13.40.817,Simcolourproject_2stim_asymm_v5,2020.2.10,Win32,60,61025ae37ef11b136ea224fe,,,,,,,,,3994,-66.39994072,-29.60000688,1,0,0,response5disk,,2,6.400011539,-5.600006521,1,0,0,rectangle,6.400011539,-5.600006521,1,0,0,6.400011539,-5.600006521,1,0,0,1,74,234,111,1,,,,,,,,
,,,,,,,,,,,,,FF,,,,,,,,0.8502,,,,,,,,,,,,,,,,,,,,,,60fce0e8a964011b8f172445,61036dd6377eb09d6274ba3e,2021-07-29_22h13.40.817,Simcolourproject_2stim_asymm_v5,2020.2.10,Win32,60,61025ae37ef11b136ea224fe,,,,,,,,,4085,-84.79998982,-40.00000703,1,0,0,response5disk,,2,-15.19998878,-7.200006545,1,0,0,rectangle,-15.19998878,-7.200006545,1,0,0,-15.19998878,-7.200006545,1,0,0,1,75,235,76,1,,,,,,,,
,,,,,,,,,,,,,FF,,,,,,,,0.6839,,,,,,,,,,,,,,,,,,,,,,60fce0e8a964011b8f172445,61036dd6377eb09d6274ba3e,2021-07-29_22h13.40.817,Simcolourproject_2stim_asymm_v5,2020.2.10,Win32,60,61025ae37ef11b136ea224fe,,,,,,,,,840,35.20001197,64.79999453,1,0,0,response1disk,,7,0.800011456,4.799993634,1,0,0,rectangle,0.800011456,4.799993634,1,0,0,0.800011456,4.799993634,1,0,0,1,76,236,50,1,,,,,,,,
,,,,,,,,,,,,,FF,,,,,,,,0.8333,,,,,,,,,,,,,,,,,,,,,,60fce0e8a964011b8f172445,61036dd6377eb09d6274ba3e,2021-07-29_22h13.40.817,Simcolourproject_2stim_asymm_v5,2020.2.10,Win32,60,61025ae37ef11b136ea224fe,,,,,,,,,162,41.60006089,60.79999447,1,0,0,response1disk,,7,0.800011456,-8.800006568,1,0,0,rectangle,0.800011456,-8.800006568,1,0,0,0.800011456,-8.800006568,1,0,0,1,77,237,129,1,,,,,,,,
,,,,,,,,,,,,,FF,,,,,,,,0.9001,,,,,,,,,,,,,,,,,,,,,,60fce0e8a964011b8f172445,61036dd6377eb09d6274ba3e,2021-07-29_22h13.40.817,Simcolourproject_2stim_asymm_v5,2020.2.10,Win32,60,61025ae37ef11b136ea224fe,,,,,,,,,2997,37.60006083,42.39999419,1,0,0,response1disk,,7,3.200011492,-9.60000658,1,0,0,rectangle,3.200011492,-9.60000658,1,0,0,3.200011492,-9.60000658,1,0,0,1,78,238,152,1,,,,,,,,
,,,,,,,,,,,,,FF,,,,,,,,1.0663,,,,,,,,,,,,,,,,,,,,,,60fce0e8a964011b8f172445,61036dd6377eb09d6274ba3e,2021-07-29_22h13.40.817,Simcolourproject_2stim_asymm_v5,2020.2.10,Win32,60,61025ae37ef11b136ea224fe,,,,,,,,,3285,32.00001192,86.39999485,1,0,0,response1disk,,7,3.200011492,-7.200006545,1,0,0,rectangle,3.200011492,-7.200006545,1,0,0,3.200011492,-7.200006545,1,0,0,1,79,239,155,1,,,,,,,,
,,,,,,,,,,,,,FF,,,,,,,,0.65,,,,,,,,,,,,,,,,,,,,,,60fce0e8a964011b8f172445,61036dd6377eb09d6274ba3e,2021-07-29_22h13.40.817,Simcolourproject_2stim_asymm_v5,2020.2.10,Win32,60,61025ae37ef11b136ea224fe,,,,,,,,,1808,32.00001192,43.99999422,1,0,0,response1disk,,7,8.800011575,-1.600006461,1,0,0,rectangle,8.800011575,-1.600006461,1,0,0,8.800011575,-1.600006461,1,0,0,1,80,240,151,1,,,,,,,,
,,,,,,,,,,,,,FF,,,,,,,,0.5998,,,,,,,,,,,,,,,,,,,,,,60fce0e8a964011b8f172445,61036dd6377eb09d6274ba3e,2021-07-29_22h13.40.817,Simcolourproject_2stim_asymm_v5,2020.2.10,Win32,60,61025ae37ef11b136ea224fe,,,,,,,,,3987,36.00001198,53.59999436,1,0,0,response1disk,,7,16.00001168,14.39999378,1,0,0,rectangle,16.00001168,14.39999378,1,0,0,16.00001168,14.39999378,1,0,0,1,81,241,2,1,,,,,,,,
,,,,,,,,,,,,,FF,,,,,,,,0.6666,,,,,,,,,,,,,,,,,,,,,,60fce0e8a964011b8f172445,61036dd6377eb09d6274ba3e,2021-07-29_22h13.40.817,Simcolourproject_2stim_asymm_v5,2020.2.10,Win32,60,61025ae37ef11b136ea224fe,,,,,,,,,2045,40.80001205,66.39999455,1,0,0,response1disk,,7,5.600060356,9.599993706,1,0,0,rectangle,5.600060356,9.599993706,1,0,0,5.600060356,9.599993706,1,0,0,1,82,242,71,1,,,,,,,,
,,,,,,,,,,,,,FF,,,,,,,,0.5664,,,,,,,,,,,,,,,,,,,,,,60fce0e8a964011b8f172445,61036dd6377eb09d6274ba3e,2021-07-29_22h13.40.817,Simcolourproject_2stim_asymm_v5,2020.2.10,Win32,60,61025ae37ef11b136ea224fe,,,,,,,,,1176,28.00001186,64.79999453,1,0,0,response1disk,,7,4.000011504,11.19999373,1,0,0,rectangle,4.000011504,11.19999373,1,0,0,4.000011504,11.19999373,1,0,0,1,83,243,49,1,,,,,,,,
,,,,,,,,,,,,,FF,,,,,,,,1.4505,,,,,,,,,,,,,,,,,,,,,,60fce0e8a964011b8f172445,61036dd6377eb09d6274ba3e,2021-07-29_22h13.40.817,Simcolourproject_2stim_asymm_v5,2020.2.10,Win32,60,61025ae37ef11b136ea224fe,,,,,,,,,1304,-83.1999898,-36.80000699,1,0,0,response5disk,,2,-14.39993994,-4.000006497,1,0,0,rectangle,-14.39993994,-4.000006497,1,0,0,-14.39993994,-4.000006497,1,0,0,1,84,244,45,1,,,,,,,,
