key_resp.keys,key_resp.rt,key_resp_14.keys,key_resp_14.rt,key_resp_15.keys,key_resp_15.rt,key_resp_17.keys,key_resp_17.rt,key_resp_9.keys,key_resp_9.rt,key_resp_10.keys,key_resp_10.rt,practice_comparison,Ecc,mouse_5.x,mouse_5.y,mouse_5.leftButton,mouse_5.midButton,mouse_5.rightButton,mouse_5.clicked_name,pracsimilarity,response_time,mouse_10.x,mouse_10.y,mouse_10.leftButton,mouse_10.midButton,mouse_10.rightButton,mouse_10.clicked_name,mouse_7.x,mouse_7.y,mouse_7.leftButton,mouse_7.midButton,mouse_7.rightButton,mouse_6.x,mouse_6.y,mouse_6.leftButton,mouse_6.midButton,mouse_6.rightButton,duringprac.thisRepN,duringprac.thisTrialN,duringprac.thisN,duringprac.thisIndex,duringprac.ran,participant,session,date,expName,psychopyVersion,OS,frameRate,study_id,mouse_7.clicked_name,catchpracsimilarity,catch_response_time,catchnumberprac,catchtrialorderprac,mouse_6.clicked_name,key_resp_22.keys,key_resp_22.rt,realcomparison,mouse.x,mouse.y,mouse.leftButton,mouse.midButton,mouse.rightButton,mouse.clicked_name,Colour2,similarity,mouse_2.x,mouse_2.y,mouse_2.leftButton,mouse_2.midButton,mouse_2.rightButton,mouse_2.clicked_name,mouse_3.x,mouse_3.y,mouse_3.leftButton,mouse_3.midButton,mouse_3.rightButton,mouse_11.x,mouse_11.y,mouse_11.leftButton,mouse_11.midButton,mouse_11.rightButton,trials_2.thisRepN,trials_2.thisTrialN,trials_2.thisN,trials_2.thisIndex,trials_2.ran,Colour1,mouse_3.clicked_name,catchornah,catchsimilarity,catchnumber,catchtrialorder,catchRT,mouse_11.clicked_name
space,1.0394,space,11.6085,space,18.1206,space,5.6661,space,1.1455,space,4.4849,116,FF,-28.29748535,79.58197021,1,0,0,response7disk_5,0,4.9667,18.07196045,-10.62689209,1,0,0,rectangle_8,18.07196045,-10.62689209,1,0,0,18.07196045,-10.62689209,1,0,0,0,0,0,3,1,60fcfdb47438518d822266bb,610378d3d669369cac315fb4,2021-07-29_20h58.42.202,Simcolourproject_2stim_asymm_v5,2020.2.10,MacIntel,60,61025ae37ef11b136ea224fe,,,,,,,,,,,,,,,,,,,,,,,,,,,,,,,,,,,,,,,,,,,,,,
,,,,,,,,,,,,152,PF,-28.22827148,48.53326416,1,0,0,response7disk_5,0,0.8832,3.493530273,-7.836791992,1,0,0,rectangle_8,30.30926514,-80.66699219,1,0,0,0.875915527,-3.140869141,1,0,0,0,1,1,6,1,60fcfdb47438518d822266bb,610378d3d669369cac315fb4,2021-07-29_20h58.42.202,Simcolourproject_2stim_asymm_v5,2020.2.10,MacIntel,60,61025ae37ef11b136ea224fe,response3disk_7,4,3.1507,4,"[2,5]",rectangle_4,,,,,,,,,,,,,,,,,,,,,,,,,,,,,,,,,,,,,,,,
,,,,,,,,,,,,75,FF,33.73431396,83.02215576,1,0,0,response1disk_5,7,2.9834,4.748596191,8.852905273,1,0,0,rectangle_8,4.748596191,8.852905273,1,0,0,4.748596191,8.852905273,1,0,0,0,2,2,0,1,60fcfdb47438518d822266bb,610378d3d669369cac315fb4,2021-07-29_20h58.42.202,Simcolourproject_2stim_asymm_v5,2020.2.10,MacIntel,60,61025ae37ef11b136ea224fe,,,,,,,,,,,,,,,,,,,,,,,,,,,,,,,,,,,,,,,,,,,,,,
,,,,,,,,,,,,48,PF,43.26953125,-61.80047607,1,0,0,response3disk_5,4,3.183,13.70239258,-2.65322876,1,0,0,rectangle_8,13.70239258,-2.65322876,1,0,0,13.70239258,-2.65322876,1,0,0,0,3,3,2,1,60fcfdb47438518d822266bb,610378d3d669369cac315fb4,2021-07-29_20h58.42.202,Simcolourproject_2stim_asymm_v5,2020.2.10,MacIntel,60,61025ae37ef11b136ea224fe,,,,,,,,,,,,,,,,,,,,,,,,,,,,,,,,,,,,,,,,,,,,,,
,,,,,,,,,,,,69,PF,42.44689941,93.97363281,1,0,0,response1disk_5,7,1.8331,-0.938720703,-5.729492188,1,0,0,rectangle_8,36.10198975,-66.92047119,1,0,0,-14.03436279,8.219909668,1,0,0,0,4,4,4,1,60fcfdb47438518d822266bb,610378d3d669369cac315fb4,2021-07-29_20h58.42.202,Simcolourproject_2stim_asymm_v5,2020.2.10,MacIntel,60,61025ae37ef11b136ea224fe,response3disk_7,4,2.8008,4,"[2,5]",rectangle_4,,,,,,,,,,,,,,,,,,,,,,,,,,,,,,,,,,,,,,,,
,,,,,,,,,,,,93,PF,34.95556641,-83.85693359,1,0,0,response3disk_5,4,2.8157,-4.485351563,5.31463623,1,0,0,rectangle_8,-4.485351563,5.31463623,1,0,0,-4.485351563,5.31463623,1,0,0,0,5,5,1,1,60fcfdb47438518d822266bb,610378d3d669369cac315fb4,2021-07-29_20h58.42.202,Simcolourproject_2stim_asymm_v5,2020.2.10,MacIntel,60,61025ae37ef11b136ea224fe,,,,,,,,,,,,,,,,,,,,,,,,,,,,,,,,,,,,,,,,,,,,,,
,,,,,,,,,,,,81,FF,88.99023438,-20.6885376,1,0,0,response3disk_5,5,1.4492,-4.931274414,5.059997559,1,0,0,rectangle_8,-4.931274414,5.059997559,1,0,0,-4.931274414,5.059997559,1,0,0,0,6,6,5,1,60fcfdb47438518d822266bb,610378d3d669369cac315fb4,2021-07-29_20h58.42.202,Simcolourproject_2stim_asymm_v5,2020.2.10,MacIntel,60,61025ae37ef11b136ea224fe,,,,,,,,,,,,,,,,,,,,,,,,,,,,,,,,,,,,,,,,,,,,,,
,,,,,,,,,,,,,FF,,,,,,,,1.2499,,,,,,,,,,,,,,,,,,,,,,60fcfdb47438518d822266bb,610378d3d669369cac315fb4,2021-07-29_20h58.42.202,Simcolourproject_2stim_asymm_v5,2020.2.10,MacIntel,60,61025ae37ef11b136ea224fe,,,,,,,space,2.7364,2433,25.04003906,-40.23562622,1,0,0,response3disk,,4,8.826416016,-16.85241699,1,0,0,rectangle,8.826416016,-16.85241699,1,0,0,8.826416016,-16.85241699,1,0,0,0,0,0,35,1,,,,,,,,
,,,,,,,,,,,,,FF,,,,,,,,6.5175,,,,,,,,,,,,,,,,,,,,,,60fcfdb47438518d822266bb,610378d3d669369cac315fb4,2021-07-29_20h58.42.202,Simcolourproject_2stim_asymm_v5,2020.2.10,MacIntel,60,61025ae37ef11b136ea224fe,,,,,,,,,88,64.52380371,25.26446533,1,0,0,response1disk,,6,11.18469238,7.983947754,1,0,0,rectangle,11.18469238,7.983947754,1,0,0,11.18469238,7.983947754,1,0,0,0,1,1,69,1,,,,,,,,
,,,,,,,,,,,,,FF,,,,,,,,1.201,,,,,,,,,,,,,,,,,,,,,,60fcfdb47438518d822266bb,610378d3d669369cac315fb4,2021-07-29_20h58.42.202,Simcolourproject_2stim_asymm_v5,2020.2.10,MacIntel,60,61025ae37ef11b136ea224fe,,,,,,,,,3417,52.77929688,14.53210449,1,0,0,response1disk,,6,3.769226074,-8.807006836,1,0,0,rectangle,3.769226074,-8.807006836,1,0,0,3.769226074,-8.807006836,1,0,0,0,2,2,94,1,,,,,,,,
,,,,,,,,,,,,,FF,,,,,,,,1.2333,,,,,,,,,,,,,,,,,,,,,,60fcfdb47438518d822266bb,610378d3d669369cac315fb4,2021-07-29_20h58.42.202,Simcolourproject_2stim_asymm_v5,2020.2.10,MacIntel,60,61025ae37ef11b136ea224fe,,,,,,,,,4160,46.89282227,86.86282349,1,0,0,response1disk,,7,-5.736938477,14.82263184,1,0,0,rectangle,-5.736938477,14.82263184,1,0,0,-5.736938477,14.82263184,1,0,0,0,3,3,77,1,,,,,,,,
,,,,,,,,,,,,,FF,,,,,,,,4.7167,,,,,,,,,,,,,,,,,,,,,,60fcfdb47438518d822266bb,610378d3d669369cac315fb4,2021-07-29_20h58.42.202,Simcolourproject_2stim_asymm_v5,2020.2.10,MacIntel,60,61025ae37ef11b136ea224fe,,,,,,,,,636,-78.90582275,-52.69030762,1,0,0,response5disk,,2,12.15106201,4.853759766,1,0,0,rectangle,12.15106201,4.853759766,1,0,0,12.15106201,4.853759766,1,0,0,0,4,4,54,1,,,,,,,,
,,,,,,,,,,,,,FF,,,,,,,,1.5825,,,,,,,,,,,,,,,,,,,,,,60fcfdb47438518d822266bb,610378d3d669369cac315fb4,2021-07-29_20h58.42.202,Simcolourproject_2stim_asymm_v5,2020.2.10,MacIntel,60,61025ae37ef11b136ea224fe,,,,,,,,,3912,-72.61846924,-46.73242188,1,0,0,response5disk,,2,8.320800781,-4.916809082,1,0,0,rectangle,8.320800781,-4.916809082,1,0,0,8.320800781,-4.916809082,1,0,0,0,5,5,43,1,,,,,,,,
,,,,,,,,,,,,,FF,,,,,,,,1.0002,,,,,,,,,,,,,,,,,,,,,,60fcfdb47438518d822266bb,610378d3d669369cac315fb4,2021-07-29_20h58.42.202,Simcolourproject_2stim_asymm_v5,2020.2.10,MacIntel,60,61025ae37ef11b136ea224fe,,,,,,,,,1676,-62.43310547,28.38696289,1,0,0,response7disk,,1,-1.434265137,3.482666016,1,0,0,rectangle,-1.434265137,3.482666016,1,0,0,-1.434265137,3.482666016,1,0,0,0,6,6,46,1,,,,,,,,
,,,,,,,,,,,,,FF,,,,,,,,1.4149,,,,,,,,,,,,,,,,,,,,,,60fcfdb47438518d822266bb,610378d3d669369cac315fb4,2021-07-29_20h58.42.202,Simcolourproject_2stim_asymm_v5,2020.2.10,MacIntel,60,61025ae37ef11b136ea224fe,,,,,,,,,305,-23.10180664,-89.32202148,1,0,0,response5disk,,3,27.57861328,16.80963135,1,0,0,rectangle,27.57861328,16.80963135,1,0,0,27.57861328,16.80963135,1,0,0,0,7,7,146,1,,,,,,,,
,,,,,,,,,,,,,FF,,,,,,,,1.4497,,,,,,,,,,,,,,,,,,,,,,60fcfdb47438518d822266bb,610378d3d669369cac315fb4,2021-07-29_20h58.42.202,Simcolourproject_2stim_asymm_v5,2020.2.10,MacIntel,60,61025ae37ef11b136ea224fe,,,,,,,,,4322,78.03546143,-42.73602295,1,0,0,response3disk,,5,11.87200928,11.15524292,1,0,0,rectangle,11.87200928,11.15524292,1,0,0,11.87200928,11.15524292,1,0,0,0,8,8,150,1,,,,,,,,
,,,,,,,,,,,,,FF,,,,,,,,1.1499,,,,,,,,,,,,,,,,,,,,,,60fcfdb47438518d822266bb,610378d3d669369cac315fb4,2021-07-29_20h58.42.202,Simcolourproject_2stim_asymm_v5,2020.2.10,MacIntel,60,61025ae37ef11b136ea224fe,,,,,,,,,4035,30.16882324,-75.13354492,1,0,0,response3disk,,4,8.801391602,-4.937774658,1,0,0,rectangle,8.801391602,-4.937774658,1,0,0,8.801391602,-4.937774658,1,0,0,0,9,9,65,1,,,,,,,,
,,,,,,,,,,,,,FF,,,,,,,,0.8841,,,,,,,,,,,,,,,,,,,,,,60fcfdb47438518d822266bb,610378d3d669369cac315fb4,2021-07-29_20h58.42.202,Simcolourproject_2stim_asymm_v5,2020.2.10,MacIntel,60,61025ae37ef11b136ea224fe,,,,,,,,,1759,-44.49725342,-70.67016602,1,0,0,response5disk,,3,-17.08288574,10.0793457,1,0,0,rectangle,-17.08288574,10.0793457,1,0,0,-17.08288574,10.0793457,1,0,0,0,10,10,156,1,,,,,,,,
,,,,,,,,,,,,,FF,,,,,,,,4.9001,,,,,,,,,,,,,,,,,,,,,,60fcfdb47438518d822266bb,610378d3d669369cac315fb4,2021-07-29_20h58.42.202,Simcolourproject_2stim_asymm_v5,2020.2.10,MacIntel,60,61025ae37ef11b136ea224fe,,,,,,,,,1779,31.76434326,76.83343506,1,0,0,response1disk,,7,32.31304932,10.29626465,1,0,0,rectangle,32.31304932,10.29626465,1,0,0,32.31304932,10.29626465,1,0,0,0,11,11,120,1,,,,,,,,
,,,,,,,,,,,,,FF,,,,,,,,0.8667,,,,,,,,,,,,,,,,,,,,,,60fcfdb47438518d822266bb,610378d3d669369cac315fb4,2021-07-29_20h58.42.202,Simcolourproject_2stim_asymm_v5,2020.2.10,MacIntel,60,61025ae37ef11b136ea224fe,,,,,,,,,2560,28.32196045,-79.52667236,1,0,0,response3disk,,4,9.983520508,2.08782959,1,0,0,rectangle,9.983520508,2.08782959,1,0,0,9.983520508,2.08782959,1,0,0,0,12,12,95,1,,,,,,,,
,,,,,,,,,,,,,FF,,,,,,,,3.8163,,,,,,,,,,,,,,,,,,,,,,60fcfdb47438518d822266bb,610378d3d669369cac315fb4,2021-07-29_20h58.42.202,Simcolourproject_2stim_asymm_v5,2020.2.10,MacIntel,60,61025ae37ef11b136ea224fe,,,,,,,,,2667,-25.84729004,-88.60760498,1,0,0,response5disk,,3,11.85345459,0.275634766,1,0,0,rectangle,11.85345459,0.275634766,1,0,0,11.85345459,0.275634766,1,0,0,0,13,13,68,1,,,,,,,,
,,,,,,,,,,,,,FF,,,,,,,,1.2326,,,,,,,,,,,,,,,,,,,,,,60fcfdb47438518d822266bb,610378d3d669369cac315fb4,2021-07-29_20h58.42.202,Simcolourproject_2stim_asymm_v5,2020.2.10,MacIntel,60,61025ae37ef11b136ea224fe,,,,,,,,,1636,31.2409668,79.47036743,1,0,0,response1disk,,7,3.283996582,13.96411133,1,0,0,rectangle,3.283996582,13.96411133,1,0,0,3.283996582,13.96411133,1,0,0,0,14,14,138,1,,,,,,,,
,,,,,,,,,,,,,FF,,,,,,,,1.5658,,,,,,,,,,,,,,,,,,,,,,60fcfdb47438518d822266bb,610378d3d669369cac315fb4,2021-07-29_20h58.42.202,Simcolourproject_2stim_asymm_v5,2020.2.10,MacIntel,60,61025ae37ef11b136ea224fe,,,,,,,,,3857,38.24133301,-76.24731445,1,0,0,response3disk,,4,23.49291992,-0.910217285,1,0,0,rectangle,23.49291992,-0.910217285,1,0,0,23.49291992,-0.910217285,1,0,0,0,15,15,116,1,,,,,,,,
,,,,,,,,,,,,,FF,,,,,,,,1.0502,,,,,,,,,,,,,,,,,,,,,,60fcfdb47438518d822266bb,610378d3d669369cac315fb4,2021-07-29_20h58.42.202,Simcolourproject_2stim_asymm_v5,2020.2.10,MacIntel,60,61025ae37ef11b136ea224fe,,,,,,,,,1431,30.55267334,-81.24926758,1,0,0,response3disk,,4,15.53186035,1.899078369,1,0,0,rectangle,15.53186035,1.899078369,1,0,0,15.53186035,1.899078369,1,0,0,0,16,16,153,1,,,,,,,,
,,,,,,,,,,,,,FF,,,,,,,,1.1668,,,,,,,,,,,,,,,,,,,,,,60fcfdb47438518d822266bb,610378d3d669369cac315fb4,2021-07-29_20h58.42.202,Simcolourproject_2stim_asymm_v5,2020.2.10,MacIntel,60,61025ae37ef11b136ea224fe,,,,,,,,,4283,-66.33843994,29.48822021,1,0,0,response7disk,,1,-15.63598633,1.811523438,1,0,0,rectangle,-15.63598633,1.811523438,1,0,0,-15.63598633,1.811523438,1,0,0,0,17,17,85,1,,,,,,,,
,,,,,,,,,,,,,FF,,,,,,,,0.7008,,,,,,,,,,,,,,,,,,,,,,60fcfdb47438518d822266bb,610378d3d669369cac315fb4,2021-07-29_20h58.42.202,Simcolourproject_2stim_asymm_v5,2020.2.10,MacIntel,60,61025ae37ef11b136ea224fe,,,,,,,,,3382,-67.9564209,38.06777954,1,0,0,response7disk,,1,-10.90197754,13.48126221,1,0,0,rectangle,-10.90197754,13.48126221,1,0,0,-10.90197754,13.48126221,1,0,0,0,18,18,84,1,,,,,,,,
,,,,,,,,,,,,,FF,,,,,,,,0.7998,,,,,,,,,,,,,,,,,,,,,,60fcfdb47438518d822266bb,610378d3d669369cac315fb4,2021-07-29_20h58.42.202,Simcolourproject_2stim_asymm_v5,2020.2.10,MacIntel,60,61025ae37ef11b136ea224fe,,,,,,,,,3979,-45.84973145,-85.94824219,1,0,0,response5disk,,3,14.171875,3.166351318,1,0,0,rectangle,14.171875,3.166351318,1,0,0,14.171875,3.166351318,1,0,0,0,19,19,25,1,,,,,,,,
,,,,,,,,,,,,,FF,,,,,,,,0.7668,,,,,,,,,,,,,,,,,,,,,,60fcfdb47438518d822266bb,610378d3d669369cac315fb4,2021-07-29_20h58.42.202,Simcolourproject_2stim_asymm_v5,2020.2.10,MacIntel,60,61025ae37ef11b136ea224fe,,,,,,,,,1900,-41.98327637,71.49554443,1,0,0,response7disk,,0,-5.270507813,7.437194824,1,0,0,rectangle,-5.270507813,7.437194824,1,0,0,-5.270507813,7.437194824,1,0,0,0,20,20,56,1,,,,,,,,
,,,,,,,,,,,,,FF,,,,,,,,0.7505,,,,,,,,,,,,,,,,,,,,,,60fcfdb47438518d822266bb,610378d3d669369cac315fb4,2021-07-29_20h58.42.202,Simcolourproject_2stim_asymm_v5,2020.2.10,MacIntel,60,61025ae37ef11b136ea224fe,,,,,,,,,2823,-83.5256958,20.06713867,1,0,0,response7disk,,1,-10.21307373,-3.084564209,1,0,0,rectangle,-10.21307373,-3.084564209,1,0,0,-10.21307373,-3.084564209,1,0,0,0,21,21,74,1,,,,,,,,
,,,,,,,,,,,,,FF,,,,,,,,1.3002,,,,,,,,,,,,,,,,,,,,,,60fcfdb47438518d822266bb,610378d3d669369cac315fb4,2021-07-29_20h58.42.202,Simcolourproject_2stim_asymm_v5,2020.2.10,MacIntel,60,61025ae37ef11b136ea224fe,,,,,,,,,3604,-84.00561523,-54.78085327,1,0,0,response5disk,,2,4.952819824,9.22833252,1,0,0,rectangle,4.952819824,9.22833252,1,0,0,4.952819824,9.22833252,1,0,0,0,22,22,102,1,,,,,,,,
,,,,,,,,,,,,,FF,,,,,,,,0.815,,,,,,,,,,,,,,,,,,,,,,60fcfdb47438518d822266bb,610378d3d669369cac315fb4,2021-07-29_20h58.42.202,Simcolourproject_2stim_asymm_v5,2020.2.10,MacIntel,60,61025ae37ef11b136ea224fe,,,,,,,,,924,30.60119629,61.52075195,1,0,0,response1disk,,7,18.92089844,17.88986206,1,0,0,rectangle,18.92089844,17.88986206,1,0,0,18.92089844,17.88986206,1,0,0,0,23,23,158,1,,,,,,,,
,,,,,,,,,,,,,FF,,,,,,,,1.2161,,,,,,,,,,,,,,,,,,,,,,60fcfdb47438518d822266bb,610378d3d669369cac315fb4,2021-07-29_20h58.42.202,Simcolourproject_2stim_asymm_v5,2020.2.10,MacIntel,60,61025ae37ef11b136ea224fe,,,,,,,,,1475,89.8772583,-53.09539795,1,0,0,response3disk,,5,-6.065856934,-2.328918457,1,0,0,rectangle,-6.065856934,-2.328918457,1,0,0,-6.065856934,-2.328918457,1,0,0,0,24,24,75,1,,,,,,,,
,,,,,,,,,,,,,FF,,,,,,,,0.6836,,,,,,,,,,,,,,,,,,,,,,60fcfdb47438518d822266bb,610378d3d669369cac315fb4,2021-07-29_20h58.42.202,Simcolourproject_2stim_asymm_v5,2020.2.10,MacIntel,60,61025ae37ef11b136ea224fe,,,,,,,,,1630,34.12988281,-71.58044434,1,0,0,response3disk,,4,7.186523438,-11.64862061,1,0,0,rectangle,83.32080078,35.24584961,1,0,0,-14.10058594,-10.4758606,1,0,0,0,25,25,113,1,,response1disk_3,TRUE,6,6,"[39,51,141,167,283,37,253,50,183,26,114,129,51,117,287,264,38,202,72,69]",1.6844,rectangle
,,,,,,,,,,,,,FF,,,,,,,,1.6346,,,,,,,,,,,,,,,,,,,,,,60fcfdb47438518d822266bb,610378d3d669369cac315fb4,2021-07-29_20h58.42.202,Simcolourproject_2stim_asymm_v5,2020.2.10,MacIntel,60,61025ae37ef11b136ea224fe,,,,,,,,,2356,-64.22949219,-48.51345825,1,0,0,response5disk,,2,-3.710449219,-9.538330078,1,0,0,rectangle,-3.710449219,-9.538330078,1,0,0,-3.710449219,-9.538330078,1,0,0,0,26,26,8,1,,,,,,,,
,,,,,,,,,,,,,FF,,,,,,,,0.8005,,,,,,,,,,,,,,,,,,,,,,60fcfdb47438518d822266bb,610378d3d669369cac315fb4,2021-07-29_20h58.42.202,Simcolourproject_2stim_asymm_v5,2020.2.10,MacIntel,60,61025ae37ef11b136ea224fe,,,,,,,,,72,-60.67901611,47.0171814,1,0,0,response7disk,,1,-0.867675781,9.816467285,1,0,0,rectangle,-0.867675781,9.816467285,1,0,0,-0.867675781,9.816467285,1,0,0,0,27,27,100,1,,,,,,,,
,,,,,,,,,,,,,FF,,,,,,,,0.6815,,,,,,,,,,,,,,,,,,,,,,60fcfdb47438518d822266bb,610378d3d669369cac315fb4,2021-07-29_20h58.42.202,Simcolourproject_2stim_asymm_v5,2020.2.10,MacIntel,60,61025ae37ef11b136ea224fe,,,,,,,,,3280,36.79547119,61.06262207,1,0,0,response1disk,,7,3.086547852,9.231323242,1,0,0,rectangle,3.086547852,9.231323242,1,0,0,3.086547852,9.231323242,1,0,0,0,28,28,144,1,,,,,,,,
,,,,,,,,,,,,,FF,,,,,,,,0.8841,,,,,,,,,,,,,,,,,,,,,,60fcfdb47438518d822266bb,610378d3d669369cac315fb4,2021-07-29_20h58.42.202,Simcolourproject_2stim_asymm_v5,2020.2.10,MacIntel,60,61025ae37ef11b136ea224fe,,,,,,,,,4262,29.46173096,51.80700684,1,0,0,response1disk,,7,6.432495117,-10.36196899,1,0,0,rectangle,6.432495117,-10.36196899,1,0,0,6.432495117,-10.36196899,1,0,0,0,29,29,99,1,,,,,,,,
,,,,,,,,,,,,,FF,,,,,,,,0.5993,,,,,,,,,,,,,,,,,,,,,,60fcfdb47438518d822266bb,610378d3d669369cac315fb4,2021-07-29_20h58.42.202,Simcolourproject_2stim_asymm_v5,2020.2.10,MacIntel,60,61025ae37ef11b136ea224fe,,,,,,,,,3233,34.14050293,67.80596924,1,0,0,response1disk,,7,6.901977539,8.029907227,1,0,0,rectangle,6.901977539,8.029907227,1,0,0,6.901977539,8.029907227,1,0,0,0,30,30,7,1,,,,,,,,
,,,,,,,,,,,,,FF,,,,,,,,1.0839,,,,,,,,,,,,,,,,,,,,,,60fcfdb47438518d822266bb,610378d3d669369cac315fb4,2021-07-29_20h58.42.202,Simcolourproject_2stim_asymm_v5,2020.2.10,MacIntel,60,61025ae37ef11b136ea224fe,,,,,,,,,2838,49.63092041,-70.69970703,1,0,0,response3disk,,4,13.2487793,-10.98706055,1,0,0,rectangle,13.2487793,-10.98706055,1,0,0,13.2487793,-10.98706055,1,0,0,0,31,31,87,1,,,,,,,,
,,,,,,,,,,,,,FF,,,,,,,,0.9122,,,,,,,,,,,,,,,,,,,,,,60fcfdb47438518d822266bb,610378d3d669369cac315fb4,2021-07-29_20h58.42.202,Simcolourproject_2stim_asymm_v5,2020.2.10,MacIntel,60,61025ae37ef11b136ea224fe,,,,,,,,,4343,-34.16760254,88.27764893,1,0,0,response7disk,,0,-22.92633057,4.271789551,1,0,0,rectangle,-22.92633057,4.271789551,1,0,0,-22.92633057,4.271789551,1,0,0,0,32,32,78,1,,,,,,,,
,,,,,,,,,,,,,FF,,,,,,,,0.8321,,,,,,,,,,,,,,,,,,,,,,60fcfdb47438518d822266bb,610378d3d669369cac315fb4,2021-07-29_20h58.42.202,Simcolourproject_2stim_asymm_v5,2020.2.10,MacIntel,60,61025ae37ef11b136ea224fe,,,,,,,,,4274,46.17944336,76.1729126,1,0,0,response1disk,,7,14.21722412,14.72329712,1,0,0,rectangle,14.21722412,14.72329712,1,0,0,14.21722412,14.72329712,1,0,0,0,33,33,149,1,,,,,,,,
,,,,,,,,,,,,,FF,,,,,,,,1.1163,,,,,,,,,,,,,,,,,,,,,,60fcfdb47438518d822266bb,610378d3d669369cac315fb4,2021-07-29_20h58.42.202,Simcolourproject_2stim_asymm_v5,2020.2.10,MacIntel,60,61025ae37ef11b136ea224fe,,,,,,,,,519,43.43432617,72.10214233,1,0,0,response1disk,,7,14.27355957,0.386779785,1,0,0,rectangle,14.27355957,0.386779785,1,0,0,14.27355957,0.386779785,1,0,0,0,34,34,104,1,,,,,,,,
,,,,,,,,,,,,,FF,,,,,,,,0.5661,,,,,,,,,,,,,,,,,,,,,,60fcfdb47438518d822266bb,610378d3d669369cac315fb4,2021-07-29_20h58.42.202,Simcolourproject_2stim_asymm_v5,2020.2.10,MacIntel,60,61025ae37ef11b136ea224fe,,,,,,,,,1263,33.46606445,61.25491333,1,0,0,response1disk,,7,3.096496582,-9.208374023,1,0,0,rectangle,3.096496582,-9.208374023,1,0,0,3.096496582,-9.208374023,1,0,0,0,35,35,143,1,,,,,,,,
,,,,,,,,,,,,,FF,,,,,,,,1.7844,,,,,,,,,,,,,,,,,,,,,,60fcfdb47438518d822266bb,610378d3d669369cac315fb4,2021-07-29_20h58.42.202,Simcolourproject_2stim_asymm_v5,2020.2.10,MacIntel,60,61025ae37ef11b136ea224fe,,,,,,,,,951,31.23266602,64.40136719,1,0,0,response1disk,,7,9.44140625,15.02990723,1,0,0,rectangle,-73.16918945,-43.55239868,1,0,0,15.86468506,-5.952667236,1,0,0,0,36,36,147,1,,response5disk_3,TRUE,2,2,"[39,51,141,167,283,37,253,50,183,26,114,129,51,117,287,264,38,202,72,69]",2.1317,rectangle
,,,,,,,,,,,,,FF,,,,,,,,0.7992,,,,,,,,,,,,,,,,,,,,,,60fcfdb47438518d822266bb,610378d3d669369cac315fb4,2021-07-29_20h58.42.202,Simcolourproject_2stim_asymm_v5,2020.2.10,MacIntel,60,61025ae37ef11b136ea224fe,,,,,,,,,3051,-59.0526123,36.71890259,1,0,0,response7disk,,1,-8.006103516,2.729736328,1,0,0,rectangle,-28.27636719,58.84729004,1,0,0,-17.76611328,12.73010254,1,0,0,0,37,37,128,1,,response7disk_3,TRUE,0,0,"[39,51,141,167,283,37,253,50,183,26,114,129,51,117,287,264,38,202,72,69]",1.365,rectangle
,,,,,,,,,,,,,FF,,,,,,,,0.6665,,,,,,,,,,,,,,,,,,,,,,60fcfdb47438518d822266bb,610378d3d669369cac315fb4,2021-07-29_20h58.42.202,Simcolourproject_2stim_asymm_v5,2020.2.10,MacIntel,60,61025ae37ef11b136ea224fe,,,,,,,,,1050,-40.00476074,68.62115479,1,0,0,response7disk,,0,-13.17077637,5.650634766,1,0,0,rectangle,30.06494141,87.79473877,1,0,0,6.001708984,10.25610352,1,0,0,0,38,38,60,1,,response1disk_3,TRUE,7,7,"[39,51,141,167,283,37,253,50,183,26,114,129,51,117,287,264,38,202,72,69]",2.1328,rectangle
,,,,,,,,,,,,,FF,,,,,,,,1.4827,,,,,,,,,,,,,,,,,,,,,,60fcfdb47438518d822266bb,610378d3d669369cac315fb4,2021-07-29_20h58.42.202,Simcolourproject_2stim_asymm_v5,2020.2.10,MacIntel,60,61025ae37ef11b136ea224fe,,,,,,,,,2965,56.92028809,89.86608887,1,0,0,response1disk,,7,15.4498291,1.569396973,1,0,0,rectangle,15.4498291,1.569396973,1,0,0,15.4498291,1.569396973,1,0,0,0,39,39,126,1,,,,,,,,
,,,,,,,,,,,,,FF,,,,,,,,0.6156,,,,,,,,,,,,,,,,,,,,,,60fcfdb47438518d822266bb,610378d3d669369cac315fb4,2021-07-29_20h58.42.202,Simcolourproject_2stim_asymm_v5,2020.2.10,MacIntel,60,61025ae37ef11b136ea224fe,,,,,,,,,3364,33.12548828,59.50228882,1,0,0,response1disk,,7,8.58190918,8.829650879,1,0,0,rectangle,8.58190918,8.829650879,1,0,0,8.58190918,8.829650879,1,0,0,0,40,40,31,1,,,,,,,,
,,,,,,,,,,,,,FF,,,,,,,,0.7502,,,,,,,,,,,,,,,,,,,,,,60fcfdb47438518d822266bb,610378d3d669369cac315fb4,2021-07-29_20h58.42.202,Simcolourproject_2stim_asymm_v5,2020.2.10,MacIntel,60,61025ae37ef11b136ea224fe,,,,,,,,,1391,30.30780029,74.59539795,1,0,0,response1disk,,7,6.403503418,-13.33813477,1,0,0,rectangle,6.403503418,-13.33813477,1,0,0,6.403503418,-13.33813477,1,0,0,0,41,41,125,1,,,,,,,,
,,,,,,,,,,,,,FF,,,,,,,,0.7333,,,,,,,,,,,,,,,,,,,,,,60fcfdb47438518d822266bb,610378d3d669369cac315fb4,2021-07-29_20h58.42.202,Simcolourproject_2stim_asymm_v5,2020.2.10,MacIntel,60,61025ae37ef11b136ea224fe,,,,,,,,,2659,30.2755127,70.42489624,1,0,0,response1disk,,7,6.482910156,11.60388184,1,0,0,rectangle,6.482910156,11.60388184,1,0,0,6.482910156,11.60388184,1,0,0,0,42,42,19,1,,,,,,,,
,,,,,,,,,,,,,FF,,,,,,,,0.5838,,,,,,,,,,,,,,,,,,,,,,60fcfdb47438518d822266bb,610378d3d669369cac315fb4,2021-07-29_20h58.42.202,Simcolourproject_2stim_asymm_v5,2020.2.10,MacIntel,60,61025ae37ef11b136ea224fe,,,,,,,,,176,42.1373291,81.90866089,1,0,0,response1disk,,7,6.989379883,1.860168457,1,0,0,rectangle,6.989379883,1.860168457,1,0,0,6.989379883,1.860168457,1,0,0,0,43,43,134,1,,,,,,,,
,,,,,,,,,,,,,FF,,,,,,,,0.665,,,,,,,,,,,,,,,,,,,,,,60fcfdb47438518d822266bb,610378d3d669369cac315fb4,2021-07-29_20h58.42.202,Simcolourproject_2stim_asymm_v5,2020.2.10,MacIntel,60,61025ae37ef11b136ea224fe,,,,,,,,,4333,35.21325684,65.37640381,1,0,0,response1disk,,7,-7.210083008,-12.39202881,1,0,0,rectangle,-7.210083008,-12.39202881,1,0,0,-7.210083008,-12.39202881,1,0,0,0,44,44,105,1,,,,,,,,
,,,,,,,,,,,,,FF,,,,,,,,0.8168,,,,,,,,,,,,,,,,,,,,,,60fcfdb47438518d822266bb,610378d3d669369cac315fb4,2021-07-29_20h58.42.202,Simcolourproject_2stim_asymm_v5,2020.2.10,MacIntel,60,61025ae37ef11b136ea224fe,,,,,,,,,866,43.99645996,47.87072754,1,0,0,response1disk,,7,10.09716797,-3.467407227,1,0,0,rectangle,10.09716797,-3.467407227,1,0,0,10.09716797,-3.467407227,1,0,0,0,45,45,98,1,,,,,,,,
,,,,,,,,,,,,,FF,,,,,,,,1.2831,,,,,,,,,,,,,,,,,,,,,,60fcfdb47438518d822266bb,610378d3d669369cac315fb4,2021-07-29_20h58.42.202,Simcolourproject_2stim_asymm_v5,2020.2.10,MacIntel,60,61025ae37ef11b136ea224fe,,,,,,,,,2951,-18.13861084,-77.37786865,1,0,0,response5disk,,3,0.704956055,14.03973389,1,0,0,rectangle,0.704956055,14.03973389,1,0,0,0.704956055,14.03973389,1,0,0,0,46,46,106,1,,,,,,,,
,,,,,,,,,,,,,FF,,,,,,,,0.6675,,,,,,,,,,,,,,,,,,,,,,60fcfdb47438518d822266bb,610378d3d669369cac315fb4,2021-07-29_20h58.42.202,Simcolourproject_2stim_asymm_v5,2020.2.10,MacIntel,60,61025ae37ef11b136ea224fe,,,,,,,,,500,28.94226074,62.25372314,1,0,0,response1disk,,7,0.806335449,7.493408203,1,0,0,rectangle,0.806335449,7.493408203,1,0,0,0.806335449,7.493408203,1,0,0,0,47,47,36,1,,,,,,,,
,,,,,,,,,,,,,FF,,,,,,,,1.3006,,,,,,,,,,,,,,,,,,,,,,60fcfdb47438518d822266bb,610378d3d669369cac315fb4,2021-07-29_20h58.42.202,Simcolourproject_2stim_asymm_v5,2020.2.10,MacIntel,60,61025ae37ef11b136ea224fe,,,,,,,,,1301,-32.04577637,-79.84051514,1,0,0,response5disk,,3,-8.938171387,-9.641418457,1,0,0,rectangle,-8.938171387,-9.641418457,1,0,0,-8.938171387,-9.641418457,1,0,0,0,48,48,157,1,,,,,,,,
,,,,,,,,,,,,,FF,,,,,,,,1.8988,,,,,,,,,,,,,,,,,,,,,,60fcfdb47438518d822266bb,610378d3d669369cac315fb4,2021-07-29_20h58.42.202,Simcolourproject_2stim_asymm_v5,2020.2.10,MacIntel,60,61025ae37ef11b136ea224fe,,,,,,,,,3693,36.93682861,59.98577881,1,0,0,response1disk,,7,-11.89001465,-15.36914063,1,0,0,rectangle,-40.065979,-93.37664795,1,0,0,21.2197876,7.436859131,1,0,0,0,49,49,129,1,,response5disk_3,TRUE,3,3,"[39,51,141,167,283,37,253,50,183,26,114,129,51,117,287,264,38,202,72,69]",1.4999,rectangle
,,,,,,,,,,,,,FF,,,,,,,,1.282,,,,,,,,,,,,,,,,,,,,,,60fcfdb47438518d822266bb,610378d3d669369cac315fb4,2021-07-29_20h58.42.202,Simcolourproject_2stim_asymm_v5,2020.2.10,MacIntel,60,61025ae37ef11b136ea224fe,,,,,,,,,3049,-59.55218506,-45.46118164,1,0,0,response5disk,,2,-2.436035156,6.206115723,1,0,0,rectangle,75.88745117,-32.68579102,1,0,0,8.596496582,5.366821289,1,0,0,0,50,50,14,1,,response3disk_3,TRUE,5,5,"[39,51,141,167,283,37,253,50,183,26,114,129,51,117,287,264,38,202,72,69]",1.1996,rectangle
,,,,,,,,,,,,,FF,,,,,,,,2.0997,,,,,,,,,,,,,,,,,,,,,,60fcfdb47438518d822266bb,610378d3d669369cac315fb4,2021-07-29_20h58.42.202,Simcolourproject_2stim_asymm_v5,2020.2.10,MacIntel,60,61025ae37ef11b136ea224fe,,,,,,,,,2651,77.34558105,25.88861084,1,0,0,response1disk,,6,16.93139648,16.67114258,1,0,0,rectangle,16.93139648,16.67114258,1,0,0,16.93139648,16.67114258,1,0,0,0,51,51,24,1,,,,,,,,
,,,,,,,,,,,,,FF,,,,,,,,0.7845,,,,,,,,,,,,,,,,,,,,,,60fcfdb47438518d822266bb,610378d3d669369cac315fb4,2021-07-29_20h58.42.202,Simcolourproject_2stim_asymm_v5,2020.2.10,MacIntel,60,61025ae37ef11b136ea224fe,,,,,,,,,4348,23.45385742,65.84857178,1,0,0,response1disk,,7,5.052612305,7.012207031,1,0,0,rectangle,5.052612305,7.012207031,1,0,0,5.052612305,7.012207031,1,0,0,0,52,52,9,1,,,,,,,,
,,,,,,,,,,,,,FF,,,,,,,,1.1078,,,,,,,,,,,,,,,,,,,,,,60fcfdb47438518d822266bb,610378d3d669369cac315fb4,2021-07-29_20h58.42.202,Simcolourproject_2stim_asymm_v5,2020.2.10,MacIntel,60,61025ae37ef11b136ea224fe,,,,,,,,,4228,18.784729,86.60095215,1,0,0,response1disk,,7,3.006347656,8.257995605,1,0,0,rectangle,3.006347656,8.257995605,1,0,0,3.006347656,8.257995605,1,0,0,0,53,53,5,1,,,,,,,,
,,,,,,,,,,,,,FF,,,,,,,,1.9834,,,,,,,,,,,,,,,,,,,,,,60fcfdb47438518d822266bb,610378d3d669369cac315fb4,2021-07-29_20h58.42.202,Simcolourproject_2stim_asymm_v5,2020.2.10,MacIntel,60,61025ae37ef11b136ea224fe,,,,,,,,,3748,30.78424072,-72.37939453,1,0,0,response3disk,,4,-11.12408447,16.60205078,1,0,0,rectangle,-11.12408447,16.60205078,1,0,0,-11.12408447,16.60205078,1,0,0,0,54,54,0,1,,,,,,,,
,,,,,,,,,,,,,FF,,,,,,,,0.8336,,,,,,,,,,,,,,,,,,,,,,60fcfdb47438518d822266bb,610378d3d669369cac315fb4,2021-07-29_20h58.42.202,Simcolourproject_2stim_asymm_v5,2020.2.10,MacIntel,60,61025ae37ef11b136ea224fe,,,,,,,,,898,34.70129395,-97.67498779,1,0,0,response3disk,,4,12.28192139,11.15246582,1,0,0,rectangle,12.28192139,11.15246582,1,0,0,12.28192139,11.15246582,1,0,0,0,55,55,59,1,,,,,,,,
,,,,,,,,,,,,,FF,,,,,,,,0.8001,,,,,,,,,,,,,,,,,,,,,,60fcfdb47438518d822266bb,610378d3d669369cac315fb4,2021-07-29_20h58.42.202,Simcolourproject_2stim_asymm_v5,2020.2.10,MacIntel,60,61025ae37ef11b136ea224fe,,,,,,,,,2846,50.79577637,-72.08374023,1,0,0,response3disk,,4,6.090515137,-5.815795898,1,0,0,rectangle,6.090515137,-5.815795898,1,0,0,6.090515137,-5.815795898,1,0,0,0,56,56,61,1,,,,,,,,
,,,,,,,,,,,,,FF,,,,,,,,1.4078,,,,,,,,,,,,,,,,,,,,,,60fcfdb47438518d822266bb,610378d3d669369cac315fb4,2021-07-29_20h58.42.202,Simcolourproject_2stim_asymm_v5,2020.2.10,MacIntel,60,61025ae37ef11b136ea224fe,,,,,,,,,4038,36.91278076,81.45123291,1,0,0,response1disk,,7,18.30297852,16.85491943,1,0,0,rectangle,18.30297852,16.85491943,1,0,0,18.30297852,16.85491943,1,0,0,0,57,57,51,1,,,,,,,,
,,,,,,,,,,,,,FF,,,,,,,,0.7538,,,,,,,,,,,,,,,,,,,,,,60fcfdb47438518d822266bb,610378d3d669369cac315fb4,2021-07-29_20h58.42.202,Simcolourproject_2stim_asymm_v5,2020.2.10,MacIntel,60,61025ae37ef11b136ea224fe,,,,,,,,,2405,36.34747314,60.91137695,1,0,0,response1disk,,7,20.60205078,13.62939453,1,0,0,rectangle,20.60205078,13.62939453,1,0,0,20.60205078,13.62939453,1,0,0,0,58,58,10,1,,,,,,,,
,,,,,,,,,,,,,FF,,,,,,,,0.7836,,,,,,,,,,,,,,,,,,,,,,60fcfdb47438518d822266bb,610378d3d669369cac315fb4,2021-07-29_20h58.42.202,Simcolourproject_2stim_asymm_v5,2020.2.10,MacIntel,60,61025ae37ef11b136ea224fe,,,,,,,,,1357,51.12347412,66.82418823,1,0,0,response1disk,,7,15.87780762,-1.661132813,1,0,0,rectangle,15.87780762,-1.661132813,1,0,0,15.87780762,-1.661132813,1,0,0,0,59,59,124,1,,,,,,,,
,,,,,,,,,,,,,FF,,,,,,,,0.8487,,,,,,,,,,,,,,,,,,,,,,60fcfdb47438518d822266bb,610378d3d669369cac315fb4,2021-07-29_20h58.42.202,Simcolourproject_2stim_asymm_v5,2020.2.10,MacIntel,60,61025ae37ef11b136ea224fe,,,,,,,,,1639,84.70965576,-45.84332275,1,0,0,response3disk,,5,16.61108398,-6.128173828,1,0,0,rectangle,16.61108398,-6.128173828,1,0,0,16.61108398,-6.128173828,1,0,0,0,60,60,49,1,,,,,,,,
,,,,,,,,,,,,,FF,,,,,,,,0.9341,,,,,,,,,,,,,,,,,,,,,,60fcfdb47438518d822266bb,610378d3d669369cac315fb4,2021-07-29_20h58.42.202,Simcolourproject_2stim_asymm_v5,2020.2.10,MacIntel,60,61025ae37ef11b136ea224fe,,,,,,,,,1626,55.74261475,-33.01904297,1,0,0,response3disk,,5,9.677612305,11.80773926,1,0,0,rectangle,9.677612305,11.80773926,1,0,0,9.677612305,11.80773926,1,0,0,0,61,61,132,1,,,,,,,,
,,,,,,,,,,,,,FF,,,,,,,,0.6836,,,,,,,,,,,,,,,,,,,,,,60fcfdb47438518d822266bb,610378d3d669369cac315fb4,2021-07-29_20h58.42.202,Simcolourproject_2stim_asymm_v5,2020.2.10,MacIntel,60,61025ae37ef11b136ea224fe,,,,,,,,,4117,28.190979,59.85180664,1,0,0,response1disk,,7,5.675170898,6.548980713,1,0,0,rectangle,5.675170898,6.548980713,1,0,0,5.675170898,6.548980713,1,0,0,0,62,62,15,1,,,,,,,,
,,,,,,,,,,,,,FF,,,,,,,,0.9666,,,,,,,,,,,,,,,,,,,,,,60fcfdb47438518d822266bb,610378d3d669369cac315fb4,2021-07-29_20h58.42.202,Simcolourproject_2stim_asymm_v5,2020.2.10,MacIntel,60,61025ae37ef11b136ea224fe,,,,,,,,,4024,-37.5536499,-78.31103516,1,0,0,response5disk,,3,-12.01855469,13.03668213,1,0,0,rectangle,-12.01855469,13.03668213,1,0,0,-12.01855469,13.03668213,1,0,0,0,63,63,86,1,,,,,,,,
,,,,,,,,,,,,,FF,,,,,,,,1.7506,,,,,,,,,,,,,,,,,,,,,,60fcfdb47438518d822266bb,610378d3d669369cac315fb4,2021-07-29_20h58.42.202,Simcolourproject_2stim_asymm_v5,2020.2.10,MacIntel,60,61025ae37ef11b136ea224fe,,,,,,,,,1574,24.90209961,65.2442627,1,0,0,response1disk,,7,15.60998535,9.527526855,1,0,0,rectangle,15.60998535,9.527526855,1,0,0,15.60998535,9.527526855,1,0,0,0,64,64,107,1,,,,,,,,
,,,,,,,,,,,,,FF,,,,,,,,1.6833,,,,,,,,,,,,,,,,,,,,,,60fcfdb47438518d822266bb,610378d3d669369cac315fb4,2021-07-29_20h58.42.202,Simcolourproject_2stim_asymm_v5,2020.2.10,MacIntel,60,61025ae37ef11b136ea224fe,,,,,,,,,3546,95.33654785,29.74066162,1,0,0,response1disk,,6,17.94036865,-7.705688477,1,0,0,rectangle,17.94036865,-7.705688477,1,0,0,17.94036865,-7.705688477,1,0,0,0,65,65,63,1,,,,,,,,
,,,,,,,,,,,,,FF,,,,,,,,0.7999,,,,,,,,,,,,,,,,,,,,,,60fcfdb47438518d822266bb,610378d3d669369cac315fb4,2021-07-29_20h58.42.202,Simcolourproject_2stim_asymm_v5,2020.2.10,MacIntel,60,61025ae37ef11b136ea224fe,,,,,,,,,3420,85.78820801,31.50946045,1,0,0,response1disk,,6,10.83569336,2.813903809,1,0,0,rectangle,10.83569336,2.813903809,1,0,0,10.83569336,2.813903809,1,0,0,0,66,66,123,1,,,,,,,,
,,,,,,,,,,,,,FF,,,,,,,,1.1802,,,,,,,,,,,,,,,,,,,,,,60fcfdb47438518d822266bb,610378d3d669369cac315fb4,2021-07-29_20h58.42.202,Simcolourproject_2stim_asymm_v5,2020.2.10,MacIntel,60,61025ae37ef11b136ea224fe,,,,,,,,,1613,41.01757813,-77.91894531,1,0,0,response3disk,,4,12.57562256,-4.635620117,1,0,0,rectangle,12.57562256,-4.635620117,1,0,0,12.57562256,-4.635620117,1,0,0,0,67,67,130,1,,,,,,,,
,,,,,,,,,,,,,FF,,,,,,,,0.7834,,,,,,,,,,,,,,,,,,,,,,60fcfdb47438518d822266bb,610378d3d669369cac315fb4,2021-07-29_20h58.42.202,Simcolourproject_2stim_asymm_v5,2020.2.10,MacIntel,60,61025ae37ef11b136ea224fe,,,,,,,,,2816,42.71765137,65.82446289,1,0,0,response1disk,,7,20.77807617,12.26025391,1,0,0,rectangle,37.62890625,-103.5792847,1,0,0,13.58630371,-5.018249512,1,0,0,0,68,68,112,1,,response3disk_3,TRUE,4,4,"[39,51,141,167,283,37,253,50,183,26,114,129,51,117,287,264,38,202,72,69]",2.1983,rectangle
,,,,,,,,,,,,,FF,,,,,,,,1.5006,,,,,,,,,,,,,,,,,,,,,,60fcfdb47438518d822266bb,610378d3d669369cac315fb4,2021-07-29_20h58.42.202,Simcolourproject_2stim_asymm_v5,2020.2.10,MacIntel,60,61025ae37ef11b136ea224fe,,,,,,,,,1094,46.38702393,100.5236206,1,0,0,response1disk,,7,-3.050964355,-13.22949219,1,0,0,rectangle,-3.050964355,-13.22949219,1,0,0,-3.050964355,-13.22949219,1,0,0,0,69,69,154,1,,,,,,,,
,,,,,,,,,,,,,FF,,,,,,,,1.8337,,,,,,,,,,,,,,,,,,,,,,60fcfdb47438518d822266bb,610378d3d669369cac315fb4,2021-07-29_20h58.42.202,Simcolourproject_2stim_asymm_v5,2020.2.10,MacIntel,60,61025ae37ef11b136ea224fe,,,,,,,,,3665,-79.61914063,-54.46704102,1,0,0,response5disk,,2,19.7878418,1.099822998,1,0,0,rectangle,19.7878418,1.099822998,1,0,0,19.7878418,1.099822998,1,0,0,0,70,70,82,1,,,,,,,,
,,,,,,,,,,,,,FF,,,,,,,,0.9164,,,,,,,,,,,,,,,,,,,,,,60fcfdb47438518d822266bb,610378d3d669369cac315fb4,2021-07-29_20h58.42.202,Simcolourproject_2stim_asymm_v5,2020.2.10,MacIntel,60,61025ae37ef11b136ea224fe,,,,,,,,,3043,33.81622314,70.48184204,1,0,0,response1disk,,7,10.78857422,-0.223266602,1,0,0,rectangle,75.37304688,16.26605225,1,0,0,10.33013916,-5.012542725,1,0,0,0,71,71,27,1,,response1disk_3,TRUE,6,6,"[39,51,141,167,283,37,253,50,183,26,114,129,51,117,287,264,38,202,72,69]",1.4158,rectangle
,,,,,,,,,,,,,FF,,,,,,,,0.5829,,,,,,,,,,,,,,,,,,,,,,60fcfdb47438518d822266bb,610378d3d669369cac315fb4,2021-07-29_20h58.42.202,Simcolourproject_2stim_asymm_v5,2020.2.10,MacIntel,60,61025ae37ef11b136ea224fe,,,,,,,,,2390,51.28863525,75.54107666,1,0,0,response1disk,,7,12.47802734,11.21981812,1,0,0,rectangle,12.47802734,11.21981812,1,0,0,12.47802734,11.21981812,1,0,0,0,72,72,81,1,,,,,,,,
,,,,,,,,,,,,,FF,,,,,,,,1.2835,,,,,,,,,,,,,,,,,,,,,,60fcfdb47438518d822266bb,610378d3d669369cac315fb4,2021-07-29_20h58.42.202,Simcolourproject_2stim_asymm_v5,2020.2.10,MacIntel,60,61025ae37ef11b136ea224fe,,,,,,,,,545,-63.84338379,-48.54760742,1,0,0,response5disk,,2,3.077880859,-1.988800049,1,0,0,rectangle,3.077880859,-1.988800049,1,0,0,3.077880859,-1.988800049,1,0,0,0,73,73,159,1,,,,,,,,
,,,,,,,,,,,,,FF,,,,,,,,0.6987,,,,,,,,,,,,,,,,,,,,,,60fcfdb47438518d822266bb,610378d3d669369cac315fb4,2021-07-29_20h58.42.202,Simcolourproject_2stim_asymm_v5,2020.2.10,MacIntel,60,61025ae37ef11b136ea224fe,,,,,,,,,1401,44.55895996,54.4831543,1,0,0,response1disk,,7,18.28466797,-12.10089111,1,0,0,rectangle,18.28466797,-12.10089111,1,0,0,18.28466797,-12.10089111,1,0,0,0,74,74,89,1,,,,,,,,
,,,,,,,,,,,,,FF,,,,,,,,1.0491,,,,,,,,,,,,,,,,,,,,,,60fcfdb47438518d822266bb,610378d3d669369cac315fb4,2021-07-29_20h58.42.202,Simcolourproject_2stim_asymm_v5,2020.2.10,MacIntel,60,61025ae37ef11b136ea224fe,,,,,,,,,650,-41.00695801,-89.51000977,1,0,0,response5disk,,3,10.15539551,-10.2387085,1,0,0,rectangle,10.15539551,-10.2387085,1,0,0,10.15539551,-10.2387085,1,0,0,0,75,75,66,1,,,,,,,,
,,,,,,,,,,,,,FF,,,,,,,,0.9835,,,,,,,,,,,,,,,,,,,,,,60fcfdb47438518d822266bb,610378d3d669369cac315fb4,2021-07-29_20h58.42.202,Simcolourproject_2stim_asymm_v5,2020.2.10,MacIntel,60,61025ae37ef11b136ea224fe,,,,,,,,,3895,87.0501709,-43.00531006,1,0,0,response3disk,,5,28.53619385,-5.270202637,1,0,0,rectangle,28.53619385,-5.270202637,1,0,0,28.53619385,-5.270202637,1,0,0,0,76,76,73,1,,,,,,,,
,,,,,,,,,,,,,FF,,,,,,,,1.0669,,,,,,,,,,,,,,,,,,,,,,60fcfdb47438518d822266bb,610378d3d669369cac315fb4,2021-07-29_20h58.42.202,Simcolourproject_2stim_asymm_v5,2020.2.10,MacIntel,60,61025ae37ef11b136ea224fe,,,,,,,,,296,56.48590088,-37.18817139,1,0,0,response3disk,,5,14.17022705,11.64724731,1,0,0,rectangle,14.17022705,11.64724731,1,0,0,14.17022705,11.64724731,1,0,0,0,77,77,41,1,,,,,,,,
,,,,,,,,,,,,,FF,,,,,,,,0.8331,,,,,,,,,,,,,,,,,,,,,,60fcfdb47438518d822266bb,610378d3d669369cac315fb4,2021-07-29_20h58.42.202,Simcolourproject_2stim_asymm_v5,2020.2.10,MacIntel,60,61025ae37ef11b136ea224fe,,,,,,,,,3848,46.1217041,-68.43676758,1,0,0,response3disk,,4,12.12805176,-16.87536621,1,0,0,rectangle,12.12805176,-16.87536621,1,0,0,12.12805176,-16.87536621,1,0,0,0,78,78,47,1,,,,,,,,
,,,,,,,,,,,,,FF,,,,,,,,0.9141,,,,,,,,,,,,,,,,,,,,,,60fcfdb47438518d822266bb,610378d3d669369cac315fb4,2021-07-29_20h58.42.202,Simcolourproject_2stim_asymm_v5,2020.2.10,MacIntel,60,61025ae37ef11b136ea224fe,,,,,,,,,1718,51.81616211,99.6902771,1,0,0,response1disk,,7,-5.896484375,3.217102051,1,0,0,rectangle,-5.896484375,3.217102051,1,0,0,-5.896484375,3.217102051,1,0,0,0,79,79,88,1,,,,,,,,
,,,,,,,,,,,,,FF,,,,,,,,0.8502,,,,,,,,,,,,,,,,,,,,,,60fcfdb47438518d822266bb,610378d3d669369cac315fb4,2021-07-29_20h58.42.202,Simcolourproject_2stim_asymm_v5,2020.2.10,MacIntel,60,61025ae37ef11b136ea224fe,,,,,,,,,3057,-40.11730957,-77.58642578,1,0,0,response5disk,,3,-5.968444824,12.45648193,1,0,0,rectangle,-5.968444824,12.45648193,1,0,0,-5.968444824,12.45648193,1,0,0,0,80,80,139,1,,,,,,,,
,,,,,,,,,,,,,FF,,,,,,,,0.6671,,,,,,,,,,,,,,,,,,,,,,60fcfdb47438518d822266bb,610378d3d669369cac315fb4,2021-07-29_20h58.42.202,Simcolourproject_2stim_asymm_v5,2020.2.10,MacIntel,60,61025ae37ef11b136ea224fe,,,,,,,,,4340,-23.51586914,-74.47406006,1,0,0,response5disk,,3,24.44372559,8.03692627,1,0,0,rectangle,24.44372559,8.03692627,1,0,0,24.44372559,8.03692627,1,0,0,0,81,81,131,1,,,,,,,,
,,,,,,,,,,,,,FF,,,,,,,,0.5331,,,,,,,,,,,,,,,,,,,,,,60fcfdb47438518d822266bb,610378d3d669369cac315fb4,2021-07-29_20h58.42.202,Simcolourproject_2stim_asymm_v5,2020.2.10,MacIntel,60,61025ae37ef11b136ea224fe,,,,,,,,,1169,39.3223877,83.65441895,1,0,0,response1disk,,7,3.479003906,-14.86154175,1,0,0,rectangle,3.479003906,-14.86154175,1,0,0,3.479003906,-14.86154175,1,0,0,0,82,82,127,1,,,,,,,,
,,,,,,,,,,,,,FF,,,,,,,,0.5342,,,,,,,,,,,,,,,,,,,,,,60fcfdb47438518d822266bb,610378d3d669369cac315fb4,2021-07-29_20h58.42.202,Simcolourproject_2stim_asymm_v5,2020.2.10,MacIntel,60,61025ae37ef11b136ea224fe,,,,,,,,,4298,39.95959473,51.40197754,1,0,0,response1disk,,7,8.518249512,12.14953613,1,0,0,rectangle,8.518249512,12.14953613,1,0,0,8.518249512,12.14953613,1,0,0,0,83,83,55,1,,,,,,,,
,,,,,,,,,,,,,FF,,,,,,,,0.9335,,,,,,,,,,,,,,,,,,,,,,60fcfdb47438518d822266bb,610378d3d669369cac315fb4,2021-07-29_20h58.42.202,Simcolourproject_2stim_asymm_v5,2020.2.10,MacIntel,60,61025ae37ef11b136ea224fe,,,,,,,,,3469,-42.51147461,84.35742188,1,0,0,response7disk,,0,-6.82220459,3.587524414,1,0,0,rectangle,-6.82220459,3.587524414,1,0,0,-6.82220459,3.587524414,1,0,0,0,84,84,40,1,,,,,,,,
,,,,,,,,,,,,,FF,,,,,,,,0.7498,,,,,,,,,,,,,,,,,,,,,,60fcfdb47438518d822266bb,610378d3d669369cac315fb4,2021-07-29_20h58.42.202,Simcolourproject_2stim_asymm_v5,2020.2.10,MacIntel,60,61025ae37ef11b136ea224fe,,,,,,,,,2160,-27.82055664,67.01193237,1,0,0,response7disk,,0,-24.19329834,-4.713562012,1,0,0,rectangle,-24.19329834,-4.713562012,1,0,0,-24.19329834,-4.713562012,1,0,0,0,85,85,3,1,,,,,,,,
,,,,,,,,,,,,,FF,,,,,,,,0.6829,,,,,,,,,,,,,,,,,,,,,,60fcfdb47438518d822266bb,610378d3d669369cac315fb4,2021-07-29_20h58.42.202,Simcolourproject_2stim_asymm_v5,2020.2.10,MacIntel,60,61025ae37ef11b136ea224fe,,,,,,,,,3483,43.11853027,76.25256348,1,0,0,response1disk,,7,14.98608398,4.112426758,1,0,0,rectangle,14.98608398,4.112426758,1,0,0,14.98608398,4.112426758,1,0,0,0,86,86,80,1,,,,,,,,
,,,,,,,,,,,,,FF,,,,,,,,0.5674,,,,,,,,,,,,,,,,,,,,,,60fcfdb47438518d822266bb,610378d3d669369cac315fb4,2021-07-29_20h58.42.202,Simcolourproject_2stim_asymm_v5,2020.2.10,MacIntel,60,61025ae37ef11b136ea224fe,,,,,,,,,2597,44.45788574,94.02386475,1,0,0,response1disk,,7,26.54943848,4.452270508,1,0,0,rectangle,26.54943848,4.452270508,1,0,0,26.54943848,4.452270508,1,0,0,0,87,87,38,1,,,,,,,,
,,,,,,,,,,,,,FF,,,,,,,,1.0996,,,,,,,,,,,,,,,,,,,,,,60fcfdb47438518d822266bb,610378d3d669369cac315fb4,2021-07-29_20h58.42.202,Simcolourproject_2stim_asymm_v5,2020.2.10,MacIntel,60,61025ae37ef11b136ea224fe,,,,,,,,,4294,-67.54284668,-34.98925781,1,0,0,response5disk,,2,-12.32543945,0.353820801,1,0,0,rectangle,-12.32543945,0.353820801,1,0,0,-12.32543945,0.353820801,1,0,0,0,88,88,30,1,,,,,,,,
,,,,,,,,,,,,,FF,,,,,,,,0.6537,,,,,,,,,,,,,,,,,,,,,,60fcfdb47438518d822266bb,610378d3d669369cac315fb4,2021-07-29_20h58.42.202,Simcolourproject_2stim_asymm_v5,2020.2.10,MacIntel,60,61025ae37ef11b136ea224fe,,,,,,,,,2608,-61.87457275,43.48657227,1,0,0,response7disk,,1,-9.243896484,5.215759277,1,0,0,rectangle,-9.243896484,5.215759277,1,0,0,-9.243896484,5.215759277,1,0,0,0,89,89,148,1,,,,,,,,
,,,,,,,,,,,,,FF,,,,,,,,0.9675,,,,,,,,,,,,,,,,,,,,,,60fcfdb47438518d822266bb,610378d3d669369cac315fb4,2021-07-29_20h58.42.202,Simcolourproject_2stim_asymm_v5,2020.2.10,MacIntel,60,61025ae37ef11b136ea224fe,,,,,,,,,3412,56.14361572,82.25732422,1,0,0,response1disk,,7,-1.586425781,7.087432861,1,0,0,rectangle,-1.586425781,7.087432861,1,0,0,-1.586425781,7.087432861,1,0,0,0,90,90,53,1,,,,,,,,
,,,,,,,,,,,,,FF,,,,,,,,0.5826,,,,,,,,,,,,,,,,,,,,,,60fcfdb47438518d822266bb,610378d3d669369cac315fb4,2021-07-29_20h58.42.202,Simcolourproject_2stim_asymm_v5,2020.2.10,MacIntel,60,61025ae37ef11b136ea224fe,,,,,,,,,2773,19.10314941,78.12536621,1,0,0,response1disk,,7,-7.020141602,-0.628356934,1,0,0,rectangle,-7.020141602,-0.628356934,1,0,0,-7.020141602,-0.628356934,1,0,0,0,91,91,142,1,,,,,,,,
,,,,,,,,,,,,,FF,,,,,,,,0.4836,,,,,,,,,,,,,,,,,,,,,,60fcfdb47438518d822266bb,610378d3d669369cac315fb4,2021-07-29_20h58.42.202,Simcolourproject_2stim_asymm_v5,2020.2.10,MacIntel,60,61025ae37ef11b136ea224fe,,,,,,,,,1410,43.37335205,72.31359863,1,0,0,response1disk,,7,19.02496338,-2.295959473,1,0,0,rectangle,19.02496338,-2.295959473,1,0,0,19.02496338,-2.295959473,1,0,0,0,92,92,28,1,,,,,,,,
,,,,,,,,,,,,,FF,,,,,,,,1.5004,,,,,,,,,,,,,,,,,,,,,,60fcfdb47438518d822266bb,610378d3d669369cac315fb4,2021-07-29_20h58.42.202,Simcolourproject_2stim_asymm_v5,2020.2.10,MacIntel,60,61025ae37ef11b136ea224fe,,,,,,,,,2017,83.70056152,-31.99578857,1,0,0,response3disk,,5,24.13305664,2.299804688,1,0,0,rectangle,24.13305664,2.299804688,1,0,0,24.13305664,2.299804688,1,0,0,0,93,93,79,1,,,,,,,,
,,,,,,,,,,,,,FF,,,,,,,,0.7159,,,,,,,,,,,,,,,,,,,,,,60fcfdb47438518d822266bb,610378d3d669369cac315fb4,2021-07-29_20h58.42.202,Simcolourproject_2stim_asymm_v5,2020.2.10,MacIntel,60,61025ae37ef11b136ea224fe,,,,,,,,,471,57.5491333,-25.93374634,1,0,0,response3disk,,5,14.48083496,-8.544799805,1,0,0,rectangle,14.48083496,-8.544799805,1,0,0,14.48083496,-8.544799805,1,0,0,0,94,94,145,1,,,,,,,,
,,,,,,,,,,,,,FF,,,,,,,,0.8338,,,,,,,,,,,,,,,,,,,,,,60fcfdb47438518d822266bb,610378d3d669369cac315fb4,2021-07-29_20h58.42.202,Simcolourproject_2stim_asymm_v5,2020.2.10,MacIntel,60,61025ae37ef11b136ea224fe,,,,,,,,,2757,40.1640625,76.98309326,1,0,0,response1disk,,7,11.15753174,4.636932373,1,0,0,rectangle,11.15753174,4.636932373,1,0,0,11.15753174,4.636932373,1,0,0,0,95,95,33,1,,,,,,,,
,,,,,,,,,,,,,FF,,,,,,,,0.5341,,,,,,,,,,,,,,,,,,,,,,60fcfdb47438518d822266bb,610378d3d669369cac315fb4,2021-07-29_20h58.42.202,Simcolourproject_2stim_asymm_v5,2020.2.10,MacIntel,60,61025ae37ef11b136ea224fe,,,,,,,,,2430,57.87261963,22.17132568,1,0,0,response1disk,,6,-8.066894531,7.417663574,1,0,0,rectangle,-8.066894531,7.417663574,1,0,0,-8.066894531,7.417663574,1,0,0,0,96,96,152,1,,,,,,,,
,,,,,,,,,,,,,FF,,,,,,,,0.6156,,,,,,,,,,,,,,,,,,,,,,60fcfdb47438518d822266bb,610378d3d669369cac315fb4,2021-07-29_20h58.42.202,Simcolourproject_2stim_asymm_v5,2020.2.10,MacIntel,60,61025ae37ef11b136ea224fe,,,,,,,,,1926,36.94573975,60.91134644,1,0,0,response1disk,,7,15.78918457,-0.807922363,1,0,0,rectangle,15.78918457,-0.807922363,1,0,0,15.78918457,-0.807922363,1,0,0,0,97,97,12,1,,,,,,,,
,,,,,,,,,,,,,FF,,,,,,,,0.5662,,,,,,,,,,,,,,,,,,,,,,60fcfdb47438518d822266bb,610378d3d669369cac315fb4,2021-07-29_20h58.42.202,Simcolourproject_2stim_asymm_v5,2020.2.10,MacIntel,60,61025ae37ef11b136ea224fe,,,,,,,,,2514,58.89178467,72.25759888,1,0,0,response1disk,,7,9.581420898,1.246520996,1,0,0,rectangle,9.581420898,1.246520996,1,0,0,9.581420898,1.246520996,1,0,0,0,98,98,111,1,,,,,,,,
,,,,,,,,,,,,,FF,,,,,,,,0.499,,,,,,,,,,,,,,,,,,,,,,60fcfdb47438518d822266bb,610378d3d669369cac315fb4,2021-07-29_20h58.42.202,Simcolourproject_2stim_asymm_v5,2020.2.10,MacIntel,60,61025ae37ef11b136ea224fe,,,,,,,,,1669,33.7487793,79.37640381,1,0,0,response1disk,,7,16.36138916,9.061706543,1,0,0,rectangle,16.36138916,9.061706543,1,0,0,16.36138916,9.061706543,1,0,0,0,99,99,92,1,,,,,,,,
,,,,,,,,,,,,,FF,,,,,,,,0.5679,,,,,,,,,,,,,,,,,,,,,,60fcfdb47438518d822266bb,610378d3d669369cac315fb4,2021-07-29_20h58.42.202,Simcolourproject_2stim_asymm_v5,2020.2.10,MacIntel,60,61025ae37ef11b136ea224fe,,,,,,,,,4241,41.8638916,57.61749268,1,0,0,response1disk,,7,-1.875549316,-7.860656738,1,0,0,rectangle,-1.875549316,-7.860656738,1,0,0,-1.875549316,-7.860656738,1,0,0,0,100,100,37,1,,,,,,,,
,,,,,,,,,,,,,FF,,,,,,,,0.6832,,,,,,,,,,,,,,,,,,,,,,60fcfdb47438518d822266bb,610378d3d669369cac315fb4,2021-07-29_20h58.42.202,Simcolourproject_2stim_asymm_v5,2020.2.10,MacIntel,60,61025ae37ef11b136ea224fe,,,,,,,,,3164,47.37988281,89.41415405,1,0,0,response1disk,,7,6.920837402,-11.47814941,1,0,0,rectangle,6.920837402,-11.47814941,1,0,0,6.920837402,-11.47814941,1,0,0,0,101,101,136,1,,,,,,,,
,,,,,,,,,,,,,FF,,,,,,,,0.6669,,,,,,,,,,,,,,,,,,,,,,60fcfdb47438518d822266bb,610378d3d669369cac315fb4,2021-07-29_20h58.42.202,Simcolourproject_2stim_asymm_v5,2020.2.10,MacIntel,60,61025ae37ef11b136ea224fe,,,,,,,,,3170,28.17736816,84.30978394,1,0,0,response1disk,,7,-1.237365723,-0.703369141,1,0,0,rectangle,-1.237365723,-0.703369141,1,0,0,-1.237365723,-0.703369141,1,0,0,0,102,102,57,1,,,,,,,,
,,,,,,,,,,,,,FF,,,,,,,,1.1501,,,,,,,,,,,,,,,,,,,,,,60fcfdb47438518d822266bb,610378d3d669369cac315fb4,2021-07-29_20h58.42.202,Simcolourproject_2stim_asymm_v5,2020.2.10,MacIntel,60,61025ae37ef11b136ea224fe,,,,,,,,,1199,42.93469238,-68.72674561,1,0,0,response3disk,,4,10.02844238,2.531555176,1,0,0,rectangle,10.02844238,2.531555176,1,0,0,10.02844238,2.531555176,1,0,0,0,103,103,155,1,,,,,,,,
,,,,,,,,,,,,,FF,,,,,,,,2.901,,,,,,,,,,,,,,,,,,,,,,60fcfdb47438518d822266bb,610378d3d669369cac315fb4,2021-07-29_20h58.42.202,Simcolourproject_2stim_asymm_v5,2020.2.10,MacIntel,60,61025ae37ef11b136ea224fe,,,,,,,,,1624,-37.70703125,-96.59667969,1,0,0,response5disk,,3,8.754150391,17.85345459,1,0,0,rectangle,8.754150391,17.85345459,1,0,0,8.754150391,17.85345459,1,0,0,0,104,104,32,1,,,,,,,,
,,,,,,,,,,,,,FF,,,,,,,,0.5169,,,,,,,,,,,,,,,,,,,,,,60fcfdb47438518d822266bb,610378d3d669369cac315fb4,2021-07-29_20h58.42.202,Simcolourproject_2stim_asymm_v5,2020.2.10,MacIntel,60,61025ae37ef11b136ea224fe,,,,,,,,,537,37.13903809,64.8927002,1,0,0,response1disk,,7,23.23425293,-0.725524902,1,0,0,rectangle,23.23425293,-0.725524902,1,0,0,23.23425293,-0.725524902,1,0,0,0,105,105,108,1,,,,,,,,
,,,,,,,,,,,,,FF,,,,,,,,0.5998,,,,,,,,,,,,,,,,,,,,,,60fcfdb47438518d822266bb,610378d3d669369cac315fb4,2021-07-29_20h58.42.202,Simcolourproject_2stim_asymm_v5,2020.2.10,MacIntel,60,61025ae37ef11b136ea224fe,,,,,,,,,2931,33.61914063,58.72943115,1,0,0,response1disk,,7,18.86077881,5.627319336,1,0,0,rectangle,18.86077881,5.627319336,1,0,0,18.86077881,5.627319336,1,0,0,0,106,106,26,1,,,,,,,,
,,,,,,,,,,,,,FF,,,,,,,,0.9326,,,,,,,,,,,,,,,,,,,,,,60fcfdb47438518d822266bb,610378d3d669369cac315fb4,2021-07-29_20h58.42.202,Simcolourproject_2stim_asymm_v5,2020.2.10,MacIntel,60,61025ae37ef11b136ea224fe,,,,,,,,,613,-49.45617676,-64.13378906,1,0,0,response5disk,,3,20.58050537,-0.598999023,1,0,0,rectangle,20.58050537,-0.598999023,1,0,0,20.58050537,-0.598999023,1,0,0,0,107,107,2,1,,,,,,,,
,,,,,,,,,,,,,FF,,,,,,,,0.9999,,,,,,,,,,,,,,,,,,,,,,60fcfdb47438518d822266bb,610378d3d669369cac315fb4,2021-07-29_20h58.42.202,Simcolourproject_2stim_asymm_v5,2020.2.10,MacIntel,60,61025ae37ef11b136ea224fe,,,,,,,,,3788,-74.92114258,-39.8505249,1,0,0,response5disk,,2,-7.693603516,15.46722412,1,0,0,rectangle,-7.693603516,15.46722412,1,0,0,-7.693603516,15.46722412,1,0,0,0,108,108,109,1,,,,,,,,
,,,,,,,,,,,,,FF,,,,,,,,0.9998,,,,,,,,,,,,,,,,,,,,,,60fcfdb47438518d822266bb,610378d3d669369cac315fb4,2021-07-29_20h58.42.202,Simcolourproject_2stim_asymm_v5,2020.2.10,MacIntel,60,61025ae37ef11b136ea224fe,,,,,,,,,2527,71.94030762,42.81585693,1,0,0,response1disk,,6,20.10125732,-5.680175781,1,0,0,rectangle,20.10125732,-5.680175781,1,0,0,20.10125732,-5.680175781,1,0,0,0,109,109,22,1,,,,,,,,
,,,,,,,,,,,,,FF,,,,,,,,0.5673,,,,,,,,,,,,,,,,,,,,,,60fcfdb47438518d822266bb,610378d3d669369cac315fb4,2021-07-29_20h58.42.202,Simcolourproject_2stim_asymm_v5,2020.2.10,MacIntel,60,61025ae37ef11b136ea224fe,,,,,,,,,1106,43.46655273,71.11676025,1,0,0,response1disk,,7,14.93127441,8.688903809,1,0,0,rectangle,14.93127441,8.688903809,1,0,0,14.93127441,8.688903809,1,0,0,0,110,110,67,1,,,,,,,,
,,,,,,,,,,,,,FF,,,,,,,,1.3664,,,,,,,,,,,,,,,,,,,,,,60fcfdb47438518d822266bb,610378d3d669369cac315fb4,2021-07-29_20h58.42.202,Simcolourproject_2stim_asymm_v5,2020.2.10,MacIntel,60,61025ae37ef11b136ea224fe,,,,,,,,,2060,76.45440674,-49.58172607,1,0,0,response3disk,,5,11.69244385,-7.81451416,1,0,0,rectangle,11.69244385,-7.81451416,1,0,0,11.69244385,-7.81451416,1,0,0,0,111,111,62,1,,,,,,,,
,,,,,,,,,,,,,FF,,,,,,,,0.3987,,,,,,,,,,,,,,,,,,,,,,60fcfdb47438518d822266bb,610378d3d669369cac315fb4,2021-07-29_20h58.42.202,Simcolourproject_2stim_asymm_v5,2020.2.10,MacIntel,60,61025ae37ef11b136ea224fe,,,,,,,,,1783,55.0234375,23.45211792,1,0,0,response1disk,,6,7.296447754,-12.33685303,1,0,0,rectangle,7.296447754,-12.33685303,1,0,0,7.296447754,-12.33685303,1,0,0,0,112,112,52,1,,,,,,,,
,,,,,,,,,,,,,FF,,,,,,,,1.3002,,,,,,,,,,,,,,,,,,,,,,60fcfdb47438518d822266bb,610378d3d669369cac315fb4,2021-07-29_20h58.42.202,Simcolourproject_2stim_asymm_v5,2020.2.10,MacIntel,60,61025ae37ef11b136ea224fe,,,,,,,,,2316,75.98358154,29.08056641,1,0,0,response1disk,,6,9.958984375,4.767272949,1,0,0,rectangle,-73.18713379,-45.43365479,1,0,0,9.571228027,1.922790527,1,0,0,0,113,113,121,1,,response5disk_3,TRUE,2,2,"[39,51,141,167,283,37,253,50,183,26,114,129,51,117,287,264,38,202,72,69]",1.599,rectangle
,,,,,,,,,,,,,FF,,,,,,,,0.6497,,,,,,,,,,,,,,,,,,,,,,60fcfdb47438518d822266bb,610378d3d669369cac315fb4,2021-07-29_20h58.42.202,Simcolourproject_2stim_asymm_v5,2020.2.10,MacIntel,60,61025ae37ef11b136ea224fe,,,,,,,,,926,48.95947266,83.85568237,1,0,0,response1disk,,7,-17.55181885,-10.84768677,1,0,0,rectangle,-17.55181885,-10.84768677,1,0,0,-17.55181885,-10.84768677,1,0,0,0,114,114,4,1,,,,,,,,
,,,,,,,,,,,,,FF,,,,,,,,0.951,,,,,,,,,,,,,,,,,,,,,,60fcfdb47438518d822266bb,610378d3d669369cac315fb4,2021-07-29_20h58.42.202,Simcolourproject_2stim_asymm_v5,2020.2.10,MacIntel,60,61025ae37ef11b136ea224fe,,,,,,,,,2245,87.8536377,35.17303467,1,0,0,response1disk,,6,28.38317871,1.664428711,1,0,0,rectangle,28.38317871,1.664428711,1,0,0,28.38317871,1.664428711,1,0,0,0,115,115,96,1,,,,,,,,
,,,,,,,,,,,,,FF,,,,,,,,0.8994,,,,,,,,,,,,,,,,,,,,,,60fcfdb47438518d822266bb,610378d3d669369cac315fb4,2021-07-29_20h58.42.202,Simcolourproject_2stim_asymm_v5,2020.2.10,MacIntel,60,61025ae37ef11b136ea224fe,,,,,,,,,678,86.93249512,35.26538086,1,0,0,response1disk,,6,2.806030273,-11.86120605,1,0,0,rectangle,38.14312744,74.13299561,1,0,0,-2.015869141,3.222229004,1,0,0,0,116,116,20,1,,response1disk_3,TRUE,7,7,"[39,51,141,167,283,37,253,50,183,26,114,129,51,117,287,264,38,202,72,69]",1.6836,rectangle
,,,,,,,,,,,,,FF,,,,,,,,0.5341,,,,,,,,,,,,,,,,,,,,,,60fcfdb47438518d822266bb,610378d3d669369cac315fb4,2021-07-29_20h58.42.202,Simcolourproject_2stim_asymm_v5,2020.2.10,MacIntel,60,61025ae37ef11b136ea224fe,,,,,,,,,2592,27.52886963,79.97610474,1,0,0,response1disk,,7,4.899780273,16.90975952,1,0,0,rectangle,4.899780273,16.90975952,1,0,0,4.899780273,16.90975952,1,0,0,0,117,117,118,1,,,,,,,,
,,,,,,,,,,,,,FF,,,,,,,,0.6166,,,,,,,,,,,,,,,,,,,,,,60fcfdb47438518d822266bb,610378d3d669369cac315fb4,2021-07-29_20h58.42.202,Simcolourproject_2stim_asymm_v5,2020.2.10,MacIntel,60,61025ae37ef11b136ea224fe,,,,,,,,,3168,39.42700195,63.0199585,1,0,0,response1disk,,7,8.30859375,-5.184997559,1,0,0,rectangle,8.30859375,-5.184997559,1,0,0,8.30859375,-5.184997559,1,0,0,0,118,118,83,1,,,,,,,,
,,,,,,,,,,,,,FF,,,,,,,,1.3489,,,,,,,,,,,,,,,,,,,,,,60fcfdb47438518d822266bb,610378d3d669369cac315fb4,2021-07-29_20h58.42.202,Simcolourproject_2stim_asymm_v5,2020.2.10,MacIntel,60,61025ae37ef11b136ea224fe,,,,,,,,,1352,51.59844971,-60.86456299,1,0,0,response3disk,,4,5.955810547,-0.528991699,1,0,0,rectangle,5.955810547,-0.528991699,1,0,0,5.955810547,-0.528991699,1,0,0,0,119,119,90,1,,,,,,,,
,,,,,,,,,,,,,FF,,,,,,,,0.8344,,,,,,,,,,,,,,,,,,,,,,60fcfdb47438518d822266bb,610378d3d669369cac315fb4,2021-07-29_20h58.42.202,Simcolourproject_2stim_asymm_v5,2020.2.10,MacIntel,60,61025ae37ef11b136ea224fe,,,,,,,,,3600,39.6116333,58.99121094,1,0,0,response1disk,,7,8.024902344,5.526519775,1,0,0,rectangle,8.024902344,5.526519775,1,0,0,8.024902344,5.526519775,1,0,0,0,120,120,45,1,,,,,,,,
,,,,,,,,,,,,,FF,,,,,,,,0.5345,,,,,,,,,,,,,,,,,,,,,,60fcfdb47438518d822266bb,610378d3d669369cac315fb4,2021-07-29_20h58.42.202,Simcolourproject_2stim_asymm_v5,2020.2.10,MacIntel,60,61025ae37ef11b136ea224fe,,,,,,,,,3281,52.92144775,84.83947754,1,0,0,response1disk,,7,3.844482422,-7.640655518,1,0,0,rectangle,3.844482422,-7.640655518,1,0,0,3.844482422,-7.640655518,1,0,0,0,121,121,137,1,,,,,,,,
,,,,,,,,,,,,,FF,,,,,,,,0.7664,,,,,,,,,,,,,,,,,,,,,,60fcfdb47438518d822266bb,610378d3d669369cac315fb4,2021-07-29_20h58.42.202,Simcolourproject_2stim_asymm_v5,2020.2.10,MacIntel,60,61025ae37ef11b136ea224fe,,,,,,,,,2793,-62.41345215,-44.94570923,1,0,0,response5disk,,2,1.072570801,7.833343506,1,0,0,rectangle,1.072570801,7.833343506,1,0,0,1.072570801,7.833343506,1,0,0,0,122,122,48,1,,,,,,,,
,,,,,,,,,,,,,FF,,,,,,,,0.6494,,,,,,,,,,,,,,,,,,,,,,60fcfdb47438518d822266bb,610378d3d669369cac315fb4,2021-07-29_20h58.42.202,Simcolourproject_2stim_asymm_v5,2020.2.10,MacIntel,60,61025ae37ef11b136ea224fe,,,,,,,,,2900,-34.04486084,-55.84906006,1,0,0,response5disk,,3,3.311889648,8.164703369,1,0,0,rectangle,3.311889648,8.164703369,1,0,0,3.311889648,8.164703369,1,0,0,0,123,123,133,1,,,,,,,,
,,,,,,,,,,,,,FF,,,,,,,,0.6175,,,,,,,,,,,,,,,,,,,,,,60fcfdb47438518d822266bb,610378d3d669369cac315fb4,2021-07-29_20h58.42.202,Simcolourproject_2stim_asymm_v5,2020.2.10,MacIntel,60,61025ae37ef11b136ea224fe,,,,,,,,,3544,-56.86627197,-27.55413818,1,0,0,response5disk,,2,2.41619873,3.901123047,1,0,0,rectangle,2.41619873,3.901123047,1,0,0,2.41619873,3.901123047,1,0,0,0,124,124,16,1,,,,,,,,
,,,,,,,,,,,,,FF,,,,,,,,0.4676,,,,,,,,,,,,,,,,,,,,,,60fcfdb47438518d822266bb,610378d3d669369cac315fb4,2021-07-29_20h58.42.202,Simcolourproject_2stim_asymm_v5,2020.2.10,MacIntel,60,61025ae37ef11b136ea224fe,,,,,,,,,2370,-61.65222168,-41.80053711,1,0,0,response5disk,,2,-10.53710938,-12.39053345,1,0,0,rectangle,-10.53710938,-12.39053345,1,0,0,-10.53710938,-12.39053345,1,0,0,0,125,125,64,1,,,,,,,,
,,,,,,,,,,,,,FF,,,,,,,,0.5989,,,,,,,,,,,,,,,,,,,,,,60fcfdb47438518d822266bb,610378d3d669369cac315fb4,2021-07-29_20h58.42.202,Simcolourproject_2stim_asymm_v5,2020.2.10,MacIntel,60,61025ae37ef11b136ea224fe,,,,,,,,,3270,63.80700684,84.61987305,1,0,0,response1disk,,7,10.67138672,0.199768066,1,0,0,rectangle,10.67138672,0.199768066,1,0,0,10.67138672,0.199768066,1,0,0,0,126,126,71,1,,,,,,,,
,,,,,,,,,,,,,FF,,,,,,,,0.6503,,,,,,,,,,,,,,,,,,,,,,60fcfdb47438518d822266bb,610378d3d669369cac315fb4,2021-07-29_20h58.42.202,Simcolourproject_2stim_asymm_v5,2020.2.10,MacIntel,60,61025ae37ef11b136ea224fe,,,,,,,,,3738,36.90136719,74.77319336,1,0,0,response1disk,,7,11.95062256,2.651000977,1,0,0,rectangle,11.95062256,2.651000977,1,0,0,11.95062256,2.651000977,1,0,0,0,127,127,42,1,,,,,,,,
,,,,,,,,,,,,,FF,,,,,,,,0.8663,,,,,,,,,,,,,,,,,,,,,,60fcfdb47438518d822266bb,610378d3d669369cac315fb4,2021-07-29_20h58.42.202,Simcolourproject_2stim_asymm_v5,2020.2.10,MacIntel,60,61025ae37ef11b136ea224fe,,,,,,,,,1454,-24.60565186,57.74493408,1,0,0,response7disk,,0,-1.746826172,11.45623779,1,0,0,rectangle,44.63916016,-91.60839844,1,0,0,19.04870605,-5.111755371,1,0,0,0,128,128,21,1,,response3disk_3,TRUE,4,4,"[39,51,141,167,283,37,253,50,183,26,114,129,51,117,287,264,38,202,72,69]",2.2998,rectangle
,,,,,,,,,,,,,FF,,,,,,,,1.5001,,,,,,,,,,,,,,,,,,,,,,60fcfdb47438518d822266bb,610378d3d669369cac315fb4,2021-07-29_20h58.42.202,Simcolourproject_2stim_asymm_v5,2020.2.10,MacIntel,60,61025ae37ef11b136ea224fe,,,,,,,,,2835,-32.4810791,-98.64587402,1,0,0,response5disk,,3,-1.597351074,-6.865478516,1,0,0,rectangle,-1.597351074,-6.865478516,1,0,0,-1.597351074,-6.865478516,1,0,0,0,129,129,18,1,,,,,,,,
,,,,,,,,,,,,,FF,,,,,,,,0.9337,,,,,,,,,,,,,,,,,,,,,,60fcfdb47438518d822266bb,610378d3d669369cac315fb4,2021-07-29_20h58.42.202,Simcolourproject_2stim_asymm_v5,2020.2.10,MacIntel,60,61025ae37ef11b136ea224fe,,,,,,,,,1680,-55.1262207,-80.19763184,1,0,0,response5disk,,3,15.7354126,2.574829102,1,0,0,rectangle,15.7354126,2.574829102,1,0,0,15.7354126,2.574829102,1,0,0,0,130,130,103,1,,,,,,,,
,,,,,,,,,,,,,FF,,,,,,,,0.5826,,,,,,,,,,,,,,,,,,,,,,60fcfdb47438518d822266bb,610378d3d669369cac315fb4,2021-07-29_20h58.42.202,Simcolourproject_2stim_asymm_v5,2020.2.10,MacIntel,60,61025ae37ef11b136ea224fe,,,,,,,,,697,60.84210205,-25.6114502,1,0,0,response3disk,,5,15.27044678,-8.449615479,1,0,0,rectangle,15.27044678,-8.449615479,1,0,0,15.27044678,-8.449615479,1,0,0,0,131,131,91,1,,,,,,,,
,,,,,,,,,,,,,FF,,,,,,,,0.5821,,,,,,,,,,,,,,,,,,,,,,60fcfdb47438518d822266bb,610378d3d669369cac315fb4,2021-07-29_20h58.42.202,Simcolourproject_2stim_asymm_v5,2020.2.10,MacIntel,60,61025ae37ef11b136ea224fe,,,,,,,,,2620,-35.26361084,-96.32574463,1,0,0,response5disk,,3,-0.358642578,6.455871582,1,0,0,rectangle,-0.358642578,6.455871582,1,0,0,-0.358642578,6.455871582,1,0,0,0,132,132,140,1,,,,,,,,
,,,,,,,,,,,,,FF,,,,,,,,0.5484,,,,,,,,,,,,,,,,,,,,,,60fcfdb47438518d822266bb,610378d3d669369cac315fb4,2021-07-29_20h58.42.202,Simcolourproject_2stim_asymm_v5,2020.2.10,MacIntel,60,61025ae37ef11b136ea224fe,,,,,,,,,2014,39.89031982,55.54101563,1,0,0,response1disk,,7,13.58404541,-0.429351807,1,0,0,rectangle,13.58404541,-0.429351807,1,0,0,13.58404541,-0.429351807,1,0,0,0,133,133,29,1,,,,,,,,
,,,,,,,,,,,,,FF,,,,,,,,0.7664,,,,,,,,,,,,,,,,,,,,,,60fcfdb47438518d822266bb,610378d3d669369cac315fb4,2021-07-29_20h58.42.202,Simcolourproject_2stim_asymm_v5,2020.2.10,MacIntel,60,61025ae37ef11b136ea224fe,,,,,,,,,4021,-35.52172852,64.82080078,1,0,0,response7disk,,0,-7.725463867,8.642456055,1,0,0,rectangle,-7.725463867,8.642456055,1,0,0,-7.725463867,8.642456055,1,0,0,0,134,134,13,1,,,,,,,,
,,,,,,,,,,,,,FF,,,,,,,,0.7836,,,,,,,,,,,,,,,,,,,,,,60fcfdb47438518d822266bb,610378d3d669369cac315fb4,2021-07-29_20h58.42.202,Simcolourproject_2stim_asymm_v5,2020.2.10,MacIntel,60,61025ae37ef11b136ea224fe,,,,,,,,,1929,29.87084961,44.57189941,1,0,0,response1disk,,7,10.04608154,-6.782073975,1,0,0,rectangle,10.04608154,-6.782073975,1,0,0,10.04608154,-6.782073975,1,0,0,0,135,135,6,1,,,,,,,,
,,,,,,,,,,,,,FF,,,,,,,,1.0166,,,,,,,,,,,,,,,,,,,,,,60fcfdb47438518d822266bb,610378d3d669369cac315fb4,2021-07-29_20h58.42.202,Simcolourproject_2stim_asymm_v5,2020.2.10,MacIntel,60,61025ae37ef11b136ea224fe,,,,,,,,,1832,-31.43066406,-81.89459229,1,0,0,response5disk,,3,-1.013549805,9.586242676,1,0,0,rectangle,-1.013549805,9.586242676,1,0,0,-1.013549805,9.586242676,1,0,0,0,136,136,117,1,,,,,,,,
,,,,,,,,,,,,,FF,,,,,,,,0.6334,,,,,,,,,,,,,,,,,,,,,,60fcfdb47438518d822266bb,610378d3d669369cac315fb4,2021-07-29_20h58.42.202,Simcolourproject_2stim_asymm_v5,2020.2.10,MacIntel,60,61025ae37ef11b136ea224fe,,,,,,,,,27,52.12658691,70.63763428,1,0,0,response1disk,,7,11.40026855,3.527770996,1,0,0,rectangle,11.40026855,3.527770996,1,0,0,11.40026855,3.527770996,1,0,0,0,137,137,114,1,,,,,,,,
,,,,,,,,,,,,,FF,,,,,,,,0.5505,,,,,,,,,,,,,,,,,,,,,,60fcfdb47438518d822266bb,610378d3d669369cac315fb4,2021-07-29_20h58.42.202,Simcolourproject_2stim_asymm_v5,2020.2.10,MacIntel,60,61025ae37ef11b136ea224fe,,,,,,,,,417,41.50372314,77.1675415,1,0,0,response1disk,,7,2.917358398,-17.31704712,1,0,0,rectangle,2.917358398,-17.31704712,1,0,0,2.917358398,-17.31704712,1,0,0,0,138,138,101,1,,,,,,,,
,,,,,,,,,,,,,FF,,,,,,,,1.5166,,,,,,,,,,,,,,,,,,,,,,60fcfdb47438518d822266bb,610378d3d669369cac315fb4,2021-07-29_20h58.42.202,Simcolourproject_2stim_asymm_v5,2020.2.10,MacIntel,60,61025ae37ef11b136ea224fe,,,,,,,,,476,72.91821289,39.83551025,1,0,0,response1disk,,6,18.74859619,7.850372314,1,0,0,rectangle,18.74859619,7.850372314,1,0,0,18.74859619,7.850372314,1,0,0,0,139,139,17,1,,,,,,,,
,,,,,,,,,,,,,FF,,,,,,,,0.7502,,,,,,,,,,,,,,,,,,,,,,60fcfdb47438518d822266bb,610378d3d669369cac315fb4,2021-07-29_20h58.42.202,Simcolourproject_2stim_asymm_v5,2020.2.10,MacIntel,60,61025ae37ef11b136ea224fe,,,,,,,,,1726,93.64874268,34.40466309,1,0,0,response1disk,,6,16.39141846,10.93798828,1,0,0,rectangle,-27.49719238,-78.44116211,1,0,0,6.857788086,-9.658905029,1,0,0,0,140,140,70,1,,response5disk_3,TRUE,3,3,"[39,51,141,167,283,37,253,50,183,26,114,129,51,117,287,264,38,202,72,69]",1.7005,rectangle
,,,,,,,,,,,,,FF,,,,,,,,0.9335,,,,,,,,,,,,,,,,,,,,,,60fcfdb47438518d822266bb,610378d3d669369cac315fb4,2021-07-29_20h58.42.202,Simcolourproject_2stim_asymm_v5,2020.2.10,MacIntel,60,61025ae37ef11b136ea224fe,,,,,,,,,3448,38.57055664,95.9498291,1,0,0,response1disk,,7,-11.90307617,-8.522094727,1,0,0,rectangle,-11.90307617,-8.522094727,1,0,0,-11.90307617,-8.522094727,1,0,0,0,141,141,76,1,,,,,,,,
,,,,,,,,,,,,,FF,,,,,,,,1.8999,,,,,,,,,,,,,,,,,,,,,,60fcfdb47438518d822266bb,610378d3d669369cac315fb4,2021-07-29_20h58.42.202,Simcolourproject_2stim_asymm_v5,2020.2.10,MacIntel,60,61025ae37ef11b136ea224fe,,,,,,,,,943,34.6774292,69.54492188,1,0,0,response1disk,,7,19.1348877,5.592895508,1,0,0,rectangle,19.1348877,5.592895508,1,0,0,19.1348877,5.592895508,1,0,0,0,142,142,44,1,,,,,,,,
,,,,,,,,,,,,,FF,,,,,,,,1.1664,,,,,,,,,,,,,,,,,,,,,,60fcfdb47438518d822266bb,610378d3d669369cac315fb4,2021-07-29_20h58.42.202,Simcolourproject_2stim_asymm_v5,2020.2.10,MacIntel,60,61025ae37ef11b136ea224fe,,,,,,,,,3906,-22.05883789,74.44488525,1,0,0,response7disk,,0,-0.827880859,16.08370972,1,0,0,rectangle,-0.827880859,16.08370972,1,0,0,-0.827880859,16.08370972,1,0,0,0,143,143,119,1,,,,,,,,
,,,,,,,,,,,,,FF,,,,,,,,1.4001,,,,,,,,,,,,,,,,,,,,,,60fcfdb47438518d822266bb,610378d3d669369cac315fb4,2021-07-29_20h58.42.202,Simcolourproject_2stim_asymm_v5,2020.2.10,MacIntel,60,61025ae37ef11b136ea224fe,,,,,,,,,2448,72.42407227,-46.68457031,1,0,0,response3disk,,5,-2.278076172,-0.83001709,1,0,0,rectangle,-2.278076172,-0.83001709,1,0,0,-2.278076172,-0.83001709,1,0,0,0,144,144,50,1,,,,,,,,
,,,,,,,,,,,,,FF,,,,,,,,0.617,,,,,,,,,,,,,,,,,,,,,,60fcfdb47438518d822266bb,610378d3d669369cac315fb4,2021-07-29_20h58.42.202,Simcolourproject_2stim_asymm_v5,2020.2.10,MacIntel,60,61025ae37ef11b136ea224fe,,,,,,,,,1933,38.61682129,61.16723633,1,0,0,response1disk,,7,19.78619385,16.47338867,1,0,0,rectangle,19.78619385,16.47338867,1,0,0,19.78619385,16.47338867,1,0,0,0,145,145,110,1,,,,,,,,
,,,,,,,,,,,,,FF,,,,,,,,0.5501,,,,,,,,,,,,,,,,,,,,,,60fcfdb47438518d822266bb,610378d3d669369cac315fb4,2021-07-29_20h58.42.202,Simcolourproject_2stim_asymm_v5,2020.2.10,MacIntel,60,61025ae37ef11b136ea224fe,,,,,,,,,659,32.01318359,43.65731812,1,0,0,response1disk,,7,9.473510742,-15.62161255,1,0,0,rectangle,9.473510742,-15.62161255,1,0,0,9.473510742,-15.62161255,1,0,0,0,146,146,11,1,,,,,,,,
,,,,,,,,,,,,,FF,,,,,,,,0.5324,,,,,,,,,,,,,,,,,,,,,,60fcfdb47438518d822266bb,610378d3d669369cac315fb4,2021-07-29_20h58.42.202,Simcolourproject_2stim_asymm_v5,2020.2.10,MacIntel,60,61025ae37ef11b136ea224fe,,,,,,,,,3440,46.43151855,47.07260132,1,0,0,response1disk,,7,4.775085449,-3.027557373,1,0,0,rectangle,4.775085449,-3.027557373,1,0,0,4.775085449,-3.027557373,1,0,0,0,147,147,151,1,,,,,,,,
,,,,,,,,,,,,,FF,,,,,,,,0.5503,,,,,,,,,,,,,,,,,,,,,,60fcfdb47438518d822266bb,610378d3d669369cac315fb4,2021-07-29_20h58.42.202,Simcolourproject_2stim_asymm_v5,2020.2.10,MacIntel,60,61025ae37ef11b136ea224fe,,,,,,,,,2751,55.37322998,65.49493408,1,0,0,response1disk,,7,5.415527344,-1.782073975,1,0,0,rectangle,5.415527344,-1.782073975,1,0,0,5.415527344,-1.782073975,1,0,0,0,148,148,1,1,,,,,,,,
,,,,,,,,,,,,,FF,,,,,,,,0.5999,,,,,,,,,,,,,,,,,,,,,,60fcfdb47438518d822266bb,610378d3d669369cac315fb4,2021-07-29_20h58.42.202,Simcolourproject_2stim_asymm_v5,2020.2.10,MacIntel,60,61025ae37ef11b136ea224fe,,,,,,,,,3574,42.81494141,87.55041504,1,0,0,response1disk,,7,11.45300293,10.8614502,1,0,0,rectangle,11.45300293,10.8614502,1,0,0,11.45300293,10.8614502,1,0,0,0,149,149,122,1,,,,,,,,
,,,,,,,,,,,,,FF,,,,,,,,0.8824,,,,,,,,,,,,,,,,,,,,,,60fcfdb47438518d822266bb,610378d3d669369cac315fb4,2021-07-29_20h58.42.202,Simcolourproject_2stim_asymm_v5,2020.2.10,MacIntel,60,61025ae37ef11b136ea224fe,,,,,,,,,3917,79.83825684,29.50009155,1,0,0,response1disk,,6,18.32128906,-1.562988281,1,0,0,rectangle,18.32128906,-1.562988281,1,0,0,18.32128906,-1.562988281,1,0,0,0,150,150,34,1,,,,,,,,
,,,,,,,,,,,,,FF,,,,,,,,0.8341,,,,,,,,,,,,,,,,,,,,,,60fcfdb47438518d822266bb,610378d3d669369cac315fb4,2021-07-29_20h58.42.202,Simcolourproject_2stim_asymm_v5,2020.2.10,MacIntel,60,61025ae37ef11b136ea224fe,,,,,,,,,1897,75.75360107,59.11102295,1,0,0,response1disk,,6,3.82598877,7.992034912,1,0,0,rectangle,3.82598877,7.992034912,1,0,0,3.82598877,7.992034912,1,0,0,0,151,151,115,1,,,,,,,,
,,,,,,,,,,,,,FF,,,,,,,,0.6499,,,,,,,,,,,,,,,,,,,,,,60fcfdb47438518d822266bb,610378d3d669369cac315fb4,2021-07-29_20h58.42.202,Simcolourproject_2stim_asymm_v5,2020.2.10,MacIntel,60,61025ae37ef11b136ea224fe,,,,,,,,,322,49.06854248,74.57919312,1,0,0,response1disk,,7,3.611694336,1.797821045,1,0,0,rectangle,3.611694336,1.797821045,1,0,0,3.611694336,1.797821045,1,0,0,0,152,152,72,1,,,,,,,,
,,,,,,,,,,,,,FF,,,,,,,,0.4995,,,,,,,,,,,,,,,,,,,,,,60fcfdb47438518d822266bb,610378d3d669369cac315fb4,2021-07-29_20h58.42.202,Simcolourproject_2stim_asymm_v5,2020.2.10,MacIntel,60,61025ae37ef11b136ea224fe,,,,,,,,,2763,30.27838135,81.37271118,1,0,0,response1disk,,7,1.356933594,4.880859375,1,0,0,rectangle,1.356933594,4.880859375,1,0,0,1.356933594,4.880859375,1,0,0,0,153,153,39,1,,,,,,,,
,,,,,,,,,,,,,FF,,,,,,,,0.6172,,,,,,,,,,,,,,,,,,,,,,60fcfdb47438518d822266bb,610378d3d669369cac315fb4,2021-07-29_20h58.42.202,Simcolourproject_2stim_asymm_v5,2020.2.10,MacIntel,60,61025ae37ef11b136ea224fe,,,,,,,,,132,32.79919434,72.42150879,1,0,0,response1disk,,7,4.019836426,11.22454834,1,0,0,rectangle,4.019836426,11.22454834,1,0,0,4.019836426,11.22454834,1,0,0,0,154,154,93,1,,,,,,,,
,,,,,,,,,,,,,FF,,,,,,,,1.3334,,,,,,,,,,,,,,,,,,,,,,60fcfdb47438518d822266bb,610378d3d669369cac315fb4,2021-07-29_20h58.42.202,Simcolourproject_2stim_asymm_v5,2020.2.10,MacIntel,60,61025ae37ef11b136ea224fe,,,,,,,,,2155,32.84338379,51.81137085,1,0,0,response1disk,,7,6.026794434,-10.12841797,1,0,0,rectangle,6.026794434,-10.12841797,1,0,0,6.026794434,-10.12841797,1,0,0,0,155,155,58,1,,,,,,,,
,,,,,,,,,,,,,FF,,,,,,,,0.6662,,,,,,,,,,,,,,,,,,,,,,60fcfdb47438518d822266bb,610378d3d669369cac315fb4,2021-07-29_20h58.42.202,Simcolourproject_2stim_asymm_v5,2020.2.10,MacIntel,60,61025ae37ef11b136ea224fe,,,,,,,,,327,29.61779785,71.98022461,1,0,0,response1disk,,7,-7.086425781,-3.998687744,1,0,0,rectangle,-7.086425781,-3.998687744,1,0,0,-7.086425781,-3.998687744,1,0,0,0,156,156,97,1,,,,,,,,
,,,,,,,,,,,,,FF,,,,,,,,0.4494,,,,,,,,,,,,,,,,,,,,,,60fcfdb47438518d822266bb,610378d3d669369cac315fb4,2021-07-29_20h58.42.202,Simcolourproject_2stim_asymm_v5,2020.2.10,MacIntel,60,61025ae37ef11b136ea224fe,,,,,,,,,1280,30.2434082,56.49517822,1,0,0,response1disk,,7,-1.209655762,-7.909118652,1,0,0,rectangle,-1.209655762,-7.909118652,1,0,0,-1.209655762,-7.909118652,1,0,0,0,157,157,135,1,,,,,,,,
,,,,,,,,,,,,,FF,,,,,,,,0.6007,,,,,,,,,,,,,,,,,,,,,,60fcfdb47438518d822266bb,610378d3d669369cac315fb4,2021-07-29_20h58.42.202,Simcolourproject_2stim_asymm_v5,2020.2.10,MacIntel,60,61025ae37ef11b136ea224fe,,,,,,,,,200,78.39910889,45.04620361,1,0,0,response1disk,,6,15.7755127,17.69604492,1,0,0,rectangle,15.7755127,17.69604492,1,0,0,15.7755127,17.69604492,1,0,0,0,158,158,141,1,,,,,,,,
,,,,,,,,,,,,,FF,,,,,,,,0.4172,,,,,,,,,,,,,,,,,,,,,,60fcfdb47438518d822266bb,610378d3d669369cac315fb4,2021-07-29_20h58.42.202,Simcolourproject_2stim_asymm_v5,2020.2.10,MacIntel,60,61025ae37ef11b136ea224fe,,,,,,,,,1343,30.02154541,88.8215332,1,0,0,response1disk,,7,-13.29107666,8.112213135,1,0,0,rectangle,-13.29107666,8.112213135,1,0,0,-13.29107666,8.112213135,1,0,0,0,159,159,23,1,,,,,,,,
,,,,,,,,,,,,,FF,,,,,,,,0.5502,,,,,,,,,,,,,,,,,,,,,,60fcfdb47438518d822266bb,610378d3d669369cac315fb4,2021-07-29_20h58.42.202,Simcolourproject_2stim_asymm_v5,2020.2.10,MacIntel,60,61025ae37ef11b136ea224fe,,,,,,,,,2433,87.47973633,32.20193481,1,0,0,response1disk,,6,18.8583374,1.818695068,1,0,0,rectangle,18.8583374,1.818695068,1,0,0,18.8583374,1.818695068,1,0,0,1,0,160,75,1,,,,,,,,
,,,,,,,,,,,,,FF,,,,,,,,1.2159,,,,,,,,,,,,,,,,,,,,,,60fcfdb47438518d822266bb,610378d3d669369cac315fb4,2021-07-29_20h58.42.202,Simcolourproject_2stim_asymm_v5,2020.2.10,MacIntel,60,61025ae37ef11b136ea224fe,,,,,,,,,88,32.77099609,64.58752441,1,0,0,response1disk,,7,-8.994140625,-6.205200195,1,0,0,rectangle,-8.994140625,-6.205200195,1,0,0,-8.994140625,-6.205200195,1,0,0,1,1,161,17,1,,,,,,,,
,,,,,,,,,,,,,FF,,,,,,,,0.9666,,,,,,,,,,,,,,,,,,,,,,60fcfdb47438518d822266bb,610378d3d669369cac315fb4,2021-07-29_20h58.42.202,Simcolourproject_2stim_asymm_v5,2020.2.10,MacIntel,60,61025ae37ef11b136ea224fe,,,,,,,,,3417,37.98699951,-89.27374268,1,0,0,response3disk,,4,2.887207031,8.15045166,1,0,0,rectangle,2.887207031,8.15045166,1,0,0,2.887207031,8.15045166,1,0,0,1,2,162,41,1,,,,,,,,
,,,,,,,,,,,,,FF,,,,,,,,0.6494,,,,,,,,,,,,,,,,,,,,,,60fcfdb47438518d822266bb,610378d3d669369cac315fb4,2021-07-29_20h58.42.202,Simcolourproject_2stim_asymm_v5,2020.2.10,MacIntel,60,61025ae37ef11b136ea224fe,,,,,,,,,4160,15.48266602,64.16046143,1,0,0,response1disk,,7,-15.55804443,1.241149902,1,0,0,rectangle,-15.55804443,1.241149902,1,0,0,-15.55804443,1.241149902,1,0,0,1,3,163,136,1,,,,,,,,
,,,,,,,,,,,,,FF,,,,,,,,2.3165,,,,,,,,,,,,,,,,,,,,,,60fcfdb47438518d822266bb,610378d3d669369cac315fb4,2021-07-29_20h58.42.202,Simcolourproject_2stim_asymm_v5,2020.2.10,MacIntel,60,61025ae37ef11b136ea224fe,,,,,,,,,636,64.77972412,-58.96166992,1,0,0,response3disk,,5,10.54797363,-0.693481445,1,0,0,rectangle,10.54797363,-0.693481445,1,0,0,10.54797363,-0.693481445,1,0,0,1,4,164,84,1,,,,,,,,
,,,,,,,,,,,,,FF,,,,,,,,0.7998,,,,,,,,,,,,,,,,,,,,,,60fcfdb47438518d822266bb,610378d3d669369cac315fb4,2021-07-29_20h58.42.202,Simcolourproject_2stim_asymm_v5,2020.2.10,MacIntel,60,61025ae37ef11b136ea224fe,,,,,,,,,3912,85.74316406,-66.82012939,1,0,0,response3disk,,5,24.68457031,-16.69888306,1,0,0,rectangle,24.68457031,-16.69888306,1,0,0,24.68457031,-16.69888306,1,0,0,1,5,165,114,1,,,,,,,,
,,,,,,,,,,,,,FF,,,,,,,,0.834,,,,,,,,,,,,,,,,,,,,,,60fcfdb47438518d822266bb,610378d3d669369cac315fb4,2021-07-29_20h58.42.202,Simcolourproject_2stim_asymm_v5,2020.2.10,MacIntel,60,61025ae37ef11b136ea224fe,,,,,,,,,1676,-40.00830078,-68.08374023,1,0,0,response5disk,,3,-20.47113037,-6.886474609,1,0,0,rectangle,47.74377441,-87.80065918,1,0,0,12.28625488,1.228088379,1,0,0,1,6,166,9,1,,response3disk_3,TRUE,4,4,"[39,51,141,167,283,37,253,50,183,26,114,129,51,117,287,264,38,202,72,69]",1.2665,rectangle
,,,,,,,,,,,,,FF,,,,,,,,0.7673,,,,,,,,,,,,,,,,,,,,,,60fcfdb47438518d822266bb,610378d3d669369cac315fb4,2021-07-29_20h58.42.202,Simcolourproject_2stim_asymm_v5,2020.2.10,MacIntel,60,61025ae37ef11b136ea224fe,,,,,,,,,305,24.5814209,-63.97363281,1,0,0,response3disk,,4,-7.185668945,3.502441406,1,0,0,rectangle,-7.185668945,3.502441406,1,0,0,-7.185668945,3.502441406,1,0,0,1,7,167,36,1,,,,,,,,
,,,,,,,,,,,,,FF,,,,,,,,0.6182,,,,,,,,,,,,,,,,,,,,,,60fcfdb47438518d822266bb,610378d3d669369cac315fb4,2021-07-29_20h58.42.202,Simcolourproject_2stim_asymm_v5,2020.2.10,MacIntel,60,61025ae37ef11b136ea224fe,,,,,,,,,4322,33.38525391,48.37069702,1,0,0,response1disk,,7,-7.64642334,-10.5383606,1,0,0,rectangle,-7.64642334,-10.5383606,1,0,0,-7.64642334,-10.5383606,1,0,0,1,8,168,158,1,,,,,,,,
,,,,,,,,,,,,,FF,,,,,,,,0.4836,,,,,,,,,,,,,,,,,,,,,,60fcfdb47438518d822266bb,610378d3d669369cac315fb4,2021-07-29_20h58.42.202,Simcolourproject_2stim_asymm_v5,2020.2.10,MacIntel,60,61025ae37ef11b136ea224fe,,,,,,,,,4035,28.3069458,73.31774902,1,0,0,response1disk,,7,-3.409118652,5.321533203,1,0,0,rectangle,-3.409118652,5.321533203,1,0,0,-3.409118652,5.321533203,1,0,0,1,9,169,27,1,,,,,,,,
,,,,,,,,,,,,,FF,,,,,,,,1.5837,,,,,,,,,,,,,,,,,,,,,,60fcfdb47438518d822266bb,610378d3d669369cac315fb4,2021-07-29_20h58.42.202,Simcolourproject_2stim_asymm_v5,2020.2.10,MacIntel,60,61025ae37ef11b136ea224fe,,,,,,,,,1759,82.96148682,-35.38626099,1,0,0,response3disk,,5,12.76763916,-3.745239258,1,0,0,rectangle,12.76763916,-3.745239258,1,0,0,12.76763916,-3.745239258,1,0,0,1,10,170,97,1,,,,,,,,
,,,,,,,,,,,,,FF,,,,,,,,0.5666,,,,,,,,,,,,,,,,,,,,,,60fcfdb47438518d822266bb,610378d3d669369cac315fb4,2021-07-29_20h58.42.202,Simcolourproject_2stim_asymm_v5,2020.2.10,MacIntel,60,61025ae37ef11b136ea224fe,,,,,,,,,1779,49.34002686,96.31134033,1,0,0,response1disk,,7,-0.895019531,-9.076782227,1,0,0,rectangle,-0.895019531,-9.076782227,1,0,0,-0.895019531,-9.076782227,1,0,0,1,11,171,47,1,,,,,,,,
,,,,,,,,,,,,,FF,,,,,,,,0.9814,,,,,,,,,,,,,,,,,,,,,,60fcfdb47438518d822266bb,610378d3d669369cac315fb4,2021-07-29_20h58.42.202,Simcolourproject_2stim_asymm_v5,2020.2.10,MacIntel,60,61025ae37ef11b136ea224fe,,,,,,,,,2560,78.87182617,40.22705078,1,0,0,response1disk,,6,7.703674316,-3.001220703,1,0,0,rectangle,7.703674316,-3.001220703,1,0,0,7.703674316,-3.001220703,1,0,0,1,12,172,127,1,,,,,,,,
,,,,,,,,,,,,,FF,,,,,,,,0.8329,,,,,,,,,,,,,,,,,,,,,,60fcfdb47438518d822266bb,610378d3d669369cac315fb4,2021-07-29_20h58.42.202,Simcolourproject_2stim_asymm_v5,2020.2.10,MacIntel,60,61025ae37ef11b136ea224fe,,,,,,,,,2667,-53.91638184,46.05056763,1,0,0,response7disk,,1,-13.85345459,11.7255249,1,0,0,rectangle,-13.85345459,11.7255249,1,0,0,-13.85345459,11.7255249,1,0,0,1,13,173,23,1,,,,,,,,
,,,,,,,,,,,,,FF,,,,,,,,0.9327,,,,,,,,,,,,,,,,,,,,,,60fcfdb47438518d822266bb,610378d3d669369cac315fb4,2021-07-29_20h58.42.202,Simcolourproject_2stim_asymm_v5,2020.2.10,MacIntel,60,61025ae37ef11b136ea224fe,,,,,,,,,1636,40.09576416,82.1293335,1,0,0,response1disk,,7,6.130187988,-5.462524414,1,0,0,rectangle,6.130187988,-5.462524414,1,0,0,6.130187988,-5.462524414,1,0,0,1,14,174,93,1,,,,,,,,
,,,,,,,,,,,,,FF,,,,,,,,0.5327,,,,,,,,,,,,,,,,,,,,,,60fcfdb47438518d822266bb,610378d3d669369cac315fb4,2021-07-29_20h58.42.202,Simcolourproject_2stim_asymm_v5,2020.2.10,MacIntel,60,61025ae37ef11b136ea224fe,,,,,,,,,3857,28.67681885,68.08114624,1,0,0,response1disk,,7,19.08618164,15.2701416,1,0,0,rectangle,19.08618164,15.2701416,1,0,0,19.08618164,15.2701416,1,0,0,1,15,175,82,1,,,,,,,,
,,,,,,,,,,,,,FF,,,,,,,,1.1334,,,,,,,,,,,,,,,,,,,,,,60fcfdb47438518d822266bb,610378d3d669369cac315fb4,2021-07-29_20h58.42.202,Simcolourproject_2stim_asymm_v5,2020.2.10,MacIntel,60,61025ae37ef11b136ea224fe,,,,,,,,,1431,61.80310059,-43.36407471,1,0,0,response3disk,,5,-9.287475586,-3.457885742,1,0,0,rectangle,-9.287475586,-3.457885742,1,0,0,-9.287475586,-3.457885742,1,0,0,1,16,176,16,1,,,,,,,,
,,,,,,,,,,,,,FF,,,,,,,,0.8501,,,,,,,,,,,,,,,,,,,,,,60fcfdb47438518d822266bb,610378d3d669369cac315fb4,2021-07-29_20h58.42.202,Simcolourproject_2stim_asymm_v5,2020.2.10,MacIntel,60,61025ae37ef11b136ea224fe,,,,,,,,,4283,56.75628662,-69.16833496,1,0,0,response3disk,,4,19.83325195,0.827545166,1,0,0,rectangle,19.83325195,0.827545166,1,0,0,19.83325195,0.827545166,1,0,0,1,17,177,68,1,,,,,,,,
,,,,,,,,,,,,,FF,,,,,,,,0.5828,,,,,,,,,,,,,,,,,,,,,,60fcfdb47438518d822266bb,610378d3d669369cac315fb4,2021-07-29_20h58.42.202,Simcolourproject_2stim_asymm_v5,2020.2.10,MacIntel,60,61025ae37ef11b136ea224fe,,,,,,,,,3382,-33.28234863,77.14575195,1,0,0,response7disk,,0,0.971313477,5.829406738,1,0,0,rectangle,0.971313477,5.829406738,1,0,0,0.971313477,5.829406738,1,0,0,1,18,178,108,1,,,,,,,,
,,,,,,,,,,,,,FF,,,,,,,,0.7509,,,,,,,,,,,,,,,,,,,,,,60fcfdb47438518d822266bb,610378d3d669369cac315fb4,2021-07-29_20h58.42.202,Simcolourproject_2stim_asymm_v5,2020.2.10,MacIntel,60,61025ae37ef11b136ea224fe,,,,,,,,,3979,-27.87731934,-76.44543457,1,0,0,response5disk,,3,16.3885498,3.009796143,1,0,0,rectangle,16.3885498,3.009796143,1,0,0,16.3885498,3.009796143,1,0,0,1,19,179,109,1,,,,,,,,
,,,,,,,,,,,,,FF,,,,,,,,0.8491,,,,,,,,,,,,,,,,,,,,,,60fcfdb47438518d822266bb,610378d3d669369cac315fb4,2021-07-29_20h58.42.202,Simcolourproject_2stim_asymm_v5,2020.2.10,MacIntel,60,61025ae37ef11b136ea224fe,,,,,,,,,1900,-20.94049072,-65.76538086,1,0,0,response5disk,,3,-8.729614258,-15.64428711,1,0,0,rectangle,-8.729614258,-15.64428711,1,0,0,-8.729614258,-15.64428711,1,0,0,1,20,180,159,1,,,,,,,,
,,,,,,,,,,,,,FF,,,,,,,,1.0335,,,,,,,,,,,,,,,,,,,,,,60fcfdb47438518d822266bb,610378d3d669369cac315fb4,2021-07-29_20h58.42.202,Simcolourproject_2stim_asymm_v5,2020.2.10,MacIntel,60,61025ae37ef11b136ea224fe,,,,,,,,,2823,-47.83862305,-59.1675415,1,0,0,response5disk,,3,-6.468383789,-2.482177734,1,0,0,rectangle,-6.468383789,-2.482177734,1,0,0,-6.468383789,-2.482177734,1,0,0,1,21,181,72,1,,,,,,,,
,,,,,,,,,,,,,FF,,,,,,,,1.2153,,,,,,,,,,,,,,,,,,,,,,60fcfdb47438518d822266bb,610378d3d669369cac315fb4,2021-07-29_20h58.42.202,Simcolourproject_2stim_asymm_v5,2020.2.10,MacIntel,60,61025ae37ef11b136ea224fe,,,,,,,,,3604,39.59637451,51.63708496,1,0,0,response1disk,,7,21.31848145,12.68243408,1,0,0,rectangle,84.28759766,-46.21511841,1,0,0,20.87145996,-8.198547363,1,0,0,1,22,182,92,1,,response3disk_3,TRUE,5,5,"[39,51,141,167,283,37,253,50,183,26,114,129,51,117,287,264,38,202,72,69]",1.2147,rectangle
,,,,,,,,,,,,,FF,,,,,,,,0.5835,,,,,,,,,,,,,,,,,,,,,,60fcfdb47438518d822266bb,610378d3d669369cac315fb4,2021-07-29_20h58.42.202,Simcolourproject_2stim_asymm_v5,2020.2.10,MacIntel,60,61025ae37ef11b136ea224fe,,,,,,,,,924,33.93218994,77.43591309,1,0,0,response1disk,,7,10.05627441,0.418426514,1,0,0,rectangle,10.05627441,0.418426514,1,0,0,10.05627441,0.418426514,1,0,0,1,23,183,57,1,,,,,,,,
,,,,,,,,,,,,,FF,,,,,,,,0.3662,,,,,,,,,,,,,,,,,,,,,,60fcfdb47438518d822266bb,610378d3d669369cac315fb4,2021-07-29_20h58.42.202,Simcolourproject_2stim_asymm_v5,2020.2.10,MacIntel,60,61025ae37ef11b136ea224fe,,,,,,,,,1475,41.16235352,42.59942627,1,0,0,response1disk,,7,17.63024902,2.180541992,1,0,0,rectangle,17.63024902,2.180541992,1,0,0,17.63024902,2.180541992,1,0,0,1,24,184,123,1,,,,,,,,
,,,,,,,,,,,,,FF,,,,,,,,0.3339,,,,,,,,,,,,,,,,,,,,,,60fcfdb47438518d822266bb,610378d3d669369cac315fb4,2021-07-29_20h58.42.202,Simcolourproject_2stim_asymm_v5,2020.2.10,MacIntel,60,61025ae37ef11b136ea224fe,,,,,,,,,1630,44.36907959,68.16845703,1,0,0,response1disk,,7,11.88415527,-6.500762939,1,0,0,rectangle,11.88415527,-6.500762939,1,0,0,11.88415527,-6.500762939,1,0,0,1,25,185,132,1,,,,,,,,
,,,,,,,,,,,,,FF,,,,,,,,0.9509,,,,,,,,,,,,,,,,,,,,,,60fcfdb47438518d822266bb,610378d3d669369cac315fb4,2021-07-29_20h58.42.202,Simcolourproject_2stim_asymm_v5,2020.2.10,MacIntel,60,61025ae37ef11b136ea224fe,,,,,,,,,2356,77.21331787,27.15060425,1,0,0,response1disk,,6,19.59332275,-9.36428833,1,0,0,rectangle,19.59332275,-9.36428833,1,0,0,19.59332275,-9.36428833,1,0,0,1,26,186,67,1,,,,,,,,
,,,,,,,,,,,,,FF,,,,,,,,0.517,,,,,,,,,,,,,,,,,,,,,,60fcfdb47438518d822266bb,610378d3d669369cac315fb4,2021-07-29_20h58.42.202,Simcolourproject_2stim_asymm_v5,2020.2.10,MacIntel,60,61025ae37ef11b136ea224fe,,,,,,,,,72,56.40698242,-35.57553101,1,0,0,response3disk,,5,12.20111084,-7.474914551,1,0,0,rectangle,12.20111084,-7.474914551,1,0,0,12.20111084,-7.474914551,1,0,0,1,27,187,11,1,,,,,,,,
,,,,,,,,,,,,,FF,,,,,,,,0.4831,,,,,,,,,,,,,,,,,,,,,,60fcfdb47438518d822266bb,610378d3d669369cac315fb4,2021-07-29_20h58.42.202,Simcolourproject_2stim_asymm_v5,2020.2.10,MacIntel,60,61025ae37ef11b136ea224fe,,,,,,,,,3280,31.62872314,75.11608887,1,0,0,response1disk,,7,7.236328125,-6.082183838,1,0,0,rectangle,7.236328125,-6.082183838,1,0,0,7.236328125,-6.082183838,1,0,0,1,28,188,99,1,,,,,,,,
,,,,,,,,,,,,,FF,,,,,,,,0.8516,,,,,,,,,,,,,,,,,,,,,,60fcfdb47438518d822266bb,610378d3d669369cac315fb4,2021-07-29_20h58.42.202,Simcolourproject_2stim_asymm_v5,2020.2.10,MacIntel,60,61025ae37ef11b136ea224fe,,,,,,,,,4262,22.46990967,92.684021,1,0,0,response1disk,,7,12.05664063,10.91149902,1,0,0,rectangle,12.05664063,10.91149902,1,0,0,12.05664063,10.91149902,1,0,0,1,29,189,24,1,,,,,,,,
,,,,,,,,,,,,,FF,,,,,,,,0.3841,,,,,,,,,,,,,,,,,,,,,,60fcfdb47438518d822266bb,610378d3d669369cac315fb4,2021-07-29_20h58.42.202,Simcolourproject_2stim_asymm_v5,2020.2.10,MacIntel,60,61025ae37ef11b136ea224fe,,,,,,,,,3233,45.58001709,60.6361084,1,0,0,response1disk,,7,15.73864746,11.0144043,1,0,0,rectangle,15.73864746,11.0144043,1,0,0,15.73864746,11.0144043,1,0,0,1,30,190,86,1,,,,,,,,
,,,,,,,,,,,,,FF,,,,,,,,0.7001,,,,,,,,,,,,,,,,,,,,,,60fcfdb47438518d822266bb,610378d3d669369cac315fb4,2021-07-29_20h58.42.202,Simcolourproject_2stim_asymm_v5,2020.2.10,MacIntel,60,61025ae37ef11b136ea224fe,,,,,,,,,2838,55.28045654,-49.76446533,1,0,0,response3disk,,5,-2.061279297,-11.29547119,1,0,0,rectangle,-2.061279297,-11.29547119,1,0,0,-2.061279297,-11.29547119,1,0,0,1,31,191,44,1,,,,,,,,
,,,,,,,,,,,,,FF,,,,,,,,0.6998,,,,,,,,,,,,,,,,,,,,,,60fcfdb47438518d822266bb,610378d3d669369cac315fb4,2021-07-29_20h58.42.202,Simcolourproject_2stim_asymm_v5,2020.2.10,MacIntel,60,61025ae37ef11b136ea224fe,,,,,,,,,4343,-40.00292969,62.66952515,1,0,0,response7disk,,0,-8.62890625,7.331329346,1,0,0,rectangle,-8.62890625,7.331329346,1,0,0,-8.62890625,7.331329346,1,0,0,1,32,192,60,1,,,,,,,,
,,,,,,,,,,,,,FF,,,,,,,,0.6156,,,,,,,,,,,,,,,,,,,,,,60fcfdb47438518d822266bb,610378d3d669369cac315fb4,2021-07-29_20h58.42.202,Simcolourproject_2stim_asymm_v5,2020.2.10,MacIntel,60,61025ae37ef11b136ea224fe,,,,,,,,,4274,42.11993408,85.8019104,1,0,0,response1disk,,7,0.960998535,-6.080383301,1,0,0,rectangle,0.960998535,-6.080383301,1,0,0,0.960998535,-6.080383301,1,0,0,1,33,193,70,1,,,,,,,,
,,,,,,,,,,,,,FF,,,,,,,,0.5167,,,,,,,,,,,,,,,,,,,,,,60fcfdb47438518d822266bb,610378d3d669369cac315fb4,2021-07-29_20h58.42.202,Simcolourproject_2stim_asymm_v5,2020.2.10,MacIntel,60,61025ae37ef11b136ea224fe,,,,,,,,,519,32.97528076,57.56622314,1,0,0,response1disk,,7,7.094604492,-13.42562866,1,0,0,rectangle,7.094604492,-13.42562866,1,0,0,7.094604492,-13.42562866,1,0,0,1,34,194,122,1,,,,,,,,
,,,,,,,,,,,,,FF,,,,,,,,0.4493,,,,,,,,,,,,,,,,,,,,,,60fcfdb47438518d822266bb,610378d3d669369cac315fb4,2021-07-29_20h58.42.202,Simcolourproject_2stim_asymm_v5,2020.2.10,MacIntel,60,61025ae37ef11b136ea224fe,,,,,,,,,1263,44.30419922,69.41375732,1,0,0,response1disk,,7,14.49633789,8.350341797,1,0,0,rectangle,14.49633789,8.350341797,1,0,0,14.49633789,8.350341797,1,0,0,1,35,195,118,1,,,,,,,,
,,,,,,,,,,,,,FF,,,,,,,,0.5163,,,,,,,,,,,,,,,,,,,,,,60fcfdb47438518d822266bb,610378d3d669369cac315fb4,2021-07-29_20h58.42.202,Simcolourproject_2stim_asymm_v5,2020.2.10,MacIntel,60,61025ae37ef11b136ea224fe,,,,,,,,,951,31.85375977,67.19909668,1,0,0,response1disk,,7,13.95214844,-8.848419189,1,0,0,rectangle,13.95214844,-8.848419189,1,0,0,13.95214844,-8.848419189,1,0,0,1,36,196,45,1,,,,,,,,
,,,,,,,,,,,,,FF,,,,,,,,0.9343,,,,,,,,,,,,,,,,,,,,,,60fcfdb47438518d822266bb,610378d3d669369cac315fb4,2021-07-29_20h58.42.202,Simcolourproject_2stim_asymm_v5,2020.2.10,MacIntel,60,61025ae37ef11b136ea224fe,,,,,,,,,3051,47.23144531,-68.27490234,1,0,0,response3disk,,4,11.61785889,4.565032959,1,0,0,rectangle,11.61785889,4.565032959,1,0,0,11.61785889,4.565032959,1,0,0,1,37,197,144,1,,,,,,,,
,,,,,,,,,,,,,FF,,,,,,,,0.6015,,,,,,,,,,,,,,,,,,,,,,60fcfdb47438518d822266bb,610378d3d669369cac315fb4,2021-07-29_20h58.42.202,Simcolourproject_2stim_asymm_v5,2020.2.10,MacIntel,60,61025ae37ef11b136ea224fe,,,,,,,,,1050,-48.66741943,76.83496094,1,0,0,response7disk,,0,-7.003662109,-5.852905273,1,0,0,rectangle,-7.003662109,-5.852905273,1,0,0,-7.003662109,-5.852905273,1,0,0,1,38,198,81,1,,,,,,,,
,,,,,,,,,,,,,FF,,,,,,,,0.5656,,,,,,,,,,,,,,,,,,,,,,60fcfdb47438518d822266bb,610378d3d669369cac315fb4,2021-07-29_20h58.42.202,Simcolourproject_2stim_asymm_v5,2020.2.10,MacIntel,60,61025ae37ef11b136ea224fe,,,,,,,,,2965,27.15826416,66.61660767,1,0,0,response1disk,,7,4.248779297,-17.07894897,1,0,0,rectangle,4.248779297,-17.07894897,1,0,0,4.248779297,-17.07894897,1,0,0,1,39,199,2,1,,,,,,,,
,,,,,,,,,,,,,FF,,,,,,,,0.5168,,,,,,,,,,,,,,,,,,,,,,60fcfdb47438518d822266bb,610378d3d669369cac315fb4,2021-07-29_20h58.42.202,Simcolourproject_2stim_asymm_v5,2020.2.10,MacIntel,60,61025ae37ef11b136ea224fe,,,,,,,,,3364,35.13208008,93.65246582,1,0,0,response1disk,,7,11.90209961,-4.527709961,1,0,0,rectangle,11.90209961,-4.527709961,1,0,0,11.90209961,-4.527709961,1,0,0,1,40,200,78,1,,,,,,,,
,,,,,,,,,,,,,FF,,,,,,,,0.4843,,,,,,,,,,,,,,,,,,,,,,60fcfdb47438518d822266bb,610378d3d669369cac315fb4,2021-07-29_20h58.42.202,Simcolourproject_2stim_asymm_v5,2020.2.10,MacIntel,60,61025ae37ef11b136ea224fe,,,,,,,,,1391,35.69372559,85.48883057,1,0,0,response1disk,,7,18.3381958,-6.676269531,1,0,0,rectangle,-49.62597656,73.70233154,1,0,0,-2.217773438,9.543029785,1,0,0,1,41,201,32,1,,response7disk_3,TRUE,0,0,"[39,51,141,167,283,37,253,50,183,26,114,129,51,117,287,264,38,202,72,69]",1.2671,rectangle
,,,,,,,,,,,,,FF,,,,,,,,0.7507,,,,,,,,,,,,,,,,,,,,,,60fcfdb47438518d822266bb,610378d3d669369cac315fb4,2021-07-29_20h58.42.202,Simcolourproject_2stim_asymm_v5,2020.2.10,MacIntel,60,61025ae37ef11b136ea224fe,,,,,,,,,2659,34.81237793,101.8805847,1,0,0,response1disk,,7,11.66882324,-11.11529541,1,0,0,rectangle,11.66882324,-11.11529541,1,0,0,11.66882324,-11.11529541,1,0,0,1,42,202,94,1,,,,,,,,
,,,,,,,,,,,,,FF,,,,,,,,0.4993,,,,,,,,,,,,,,,,,,,,,,60fcfdb47438518d822266bb,610378d3d669369cac315fb4,2021-07-29_20h58.42.202,Simcolourproject_2stim_asymm_v5,2020.2.10,MacIntel,60,61025ae37ef11b136ea224fe,,,,,,,,,176,41.88220215,62.8770752,1,0,0,response1disk,,7,26.28735352,2.219909668,1,0,0,rectangle,26.28735352,2.219909668,1,0,0,26.28735352,2.219909668,1,0,0,1,43,203,154,1,,,,,,,,
,,,,,,,,,,,,,FF,,,,,,,,0.4341,,,,,,,,,,,,,,,,,,,,,,60fcfdb47438518d822266bb,610378d3d669369cac315fb4,2021-07-29_20h58.42.202,Simcolourproject_2stim_asymm_v5,2020.2.10,MacIntel,60,61025ae37ef11b136ea224fe,,,,,,,,,4333,45.22491455,48.41699219,1,0,0,response1disk,,7,15.50921631,-8.332702637,1,0,0,rectangle,15.50921631,-8.332702637,1,0,0,15.50921631,-8.332702637,1,0,0,1,44,204,121,1,,,,,,,,
,,,,,,,,,,,,,FF,,,,,,,,0.2987,,,,,,,,,,,,,,,,,,,,,,60fcfdb47438518d822266bb,610378d3d669369cac315fb4,2021-07-29_20h58.42.202,Simcolourproject_2stim_asymm_v5,2020.2.10,MacIntel,60,61025ae37ef11b136ea224fe,,,,,,,,,866,16.70739746,48.49713135,1,0,0,response1disk,,7,6.80670166,9.84185791,1,0,0,rectangle,6.80670166,9.84185791,1,0,0,6.80670166,9.84185791,1,0,0,1,45,205,8,1,,,,,,,,
,,,,,,,,,,,,,FF,,,,,,,,0.833,,,,,,,,,,,,,,,,,,,,,,60fcfdb47438518d822266bb,610378d3d669369cac315fb4,2021-07-29_20h58.42.202,Simcolourproject_2stim_asymm_v5,2020.2.10,MacIntel,60,61025ae37ef11b136ea224fe,,,,,,,,,2951,75.05383301,-54.56698608,1,0,0,response3disk,,5,17.06011963,-12.05133057,1,0,0,rectangle,17.06011963,-12.05133057,1,0,0,17.06011963,-12.05133057,1,0,0,1,46,206,28,1,,,,,,,,
,,,,,,,,,,,,,FF,,,,,,,,0.4009,,,,,,,,,,,,,,,,,,,,,,60fcfdb47438518d822266bb,610378d3d669369cac315fb4,2021-07-29_20h58.42.202,Simcolourproject_2stim_asymm_v5,2020.2.10,MacIntel,60,61025ae37ef11b136ea224fe,,,,,,,,,500,19.97937012,74.18103027,1,0,0,response1disk,,7,10.22821045,12.97021484,1,0,0,rectangle,10.22821045,12.97021484,1,0,0,10.22821045,12.97021484,1,0,0,1,47,207,61,1,,,,,,,,
,,,,,,,,,,,,,FF,,,,,,,,0.7007,,,,,,,,,,,,,,,,,,,,,,60fcfdb47438518d822266bb,610378d3d669369cac315fb4,2021-07-29_20h58.42.202,Simcolourproject_2stim_asymm_v5,2020.2.10,MacIntel,60,61025ae37ef11b136ea224fe,,,,,,,,,1301,74.79736328,28.29016113,1,0,0,response1disk,,6,32.84387207,10.57250977,1,0,0,rectangle,32.84387207,10.57250977,1,0,0,32.84387207,10.57250977,1,0,0,1,48,208,103,1,,,,,,,,
,,,,,,,,,,,,,FF,,,,,,,,0.3333,,,,,,,,,,,,,,,,,,,,,,60fcfdb47438518d822266bb,610378d3d669369cac315fb4,2021-07-29_20h58.42.202,Simcolourproject_2stim_asymm_v5,2020.2.10,MacIntel,60,61025ae37ef11b136ea224fe,,,,,,,,,3693,37.18884277,54.17623901,1,0,0,response1disk,,7,15.72021484,-3.978942871,1,0,0,rectangle,15.72021484,-3.978942871,1,0,0,15.72021484,-3.978942871,1,0,0,1,49,209,100,1,,,,,,,,
,,,,,,,,,,,,,FF,,,,,,,,0.9501,,,,,,,,,,,,,,,,,,,,,,60fcfdb47438518d822266bb,610378d3d669369cac315fb4,2021-07-29_20h58.42.202,Simcolourproject_2stim_asymm_v5,2020.2.10,MacIntel,60,61025ae37ef11b136ea224fe,,,,,,,,,3049,51.08044434,-90.6328125,1,0,0,response3disk,,4,24.25976563,-5.310791016,1,0,0,rectangle,24.25976563,-5.310791016,1,0,0,24.25976563,-5.310791016,1,0,0,1,50,210,104,1,,,,,,,,
,,,,,,,,,,,,,FF,,,,,,,,0.433,,,,,,,,,,,,,,,,,,,,,,60fcfdb47438518d822266bb,610378d3d669369cac315fb4,2021-07-29_20h58.42.202,Simcolourproject_2stim_asymm_v5,2020.2.10,MacIntel,60,61025ae37ef11b136ea224fe,,,,,,,,,2651,39.79943848,97.12817383,1,0,0,response1disk,,7,8.453369141,-17.87304688,1,0,0,rectangle,8.453369141,-17.87304688,1,0,0,8.453369141,-17.87304688,1,0,0,1,51,211,87,1,,,,,,,,
,,,,,,,,,,,,,FF,,,,,,,,0.4838,,,,,,,,,,,,,,,,,,,,,,60fcfdb47438518d822266bb,610378d3d669369cac315fb4,2021-07-29_20h58.42.202,Simcolourproject_2stim_asymm_v5,2020.2.10,MacIntel,60,61025ae37ef11b136ea224fe,,,,,,,,,4348,29.8258667,42.54901123,1,0,0,response1disk,,7,17.43530273,-6.819610596,1,0,0,rectangle,17.43530273,-6.819610596,1,0,0,17.43530273,-6.819610596,1,0,0,1,52,212,33,1,,,,,,,,
,,,,,,,,,,,,,FF,,,,,,,,0.4663,,,,,,,,,,,,,,,,,,,,,,60fcfdb47438518d822266bb,610378d3d669369cac315fb4,2021-07-29_20h58.42.202,Simcolourproject_2stim_asymm_v5,2020.2.10,MacIntel,60,61025ae37ef11b136ea224fe,,,,,,,,,4228,35.51757813,83.70965576,1,0,0,response1disk,,7,7.460510254,-15.99423218,1,0,0,rectangle,7.460510254,-15.99423218,1,0,0,7.460510254,-15.99423218,1,0,0,1,53,213,95,1,,,,,,,,
,,,,,,,,,,,,,FF,,,,,,,,1.0342,,,,,,,,,,,,,,,,,,,,,,60fcfdb47438518d822266bb,610378d3d669369cac315fb4,2021-07-29_20h58.42.202,Simcolourproject_2stim_asymm_v5,2020.2.10,MacIntel,60,61025ae37ef11b136ea224fe,,,,,,,,,3748,-20.22332764,-74.22949219,1,0,0,response5disk,,3,-1.113098145,-5.475799561,1,0,0,rectangle,-1.113098145,-5.475799561,1,0,0,-1.113098145,-5.475799561,1,0,0,1,54,214,117,1,,,,,,,,
,,,,,,,,,,,,,FF,,,,,,,,0.7335,,,,,,,,,,,,,,,,,,,,,,60fcfdb47438518d822266bb,610378d3d669369cac315fb4,2021-07-29_20h58.42.202,Simcolourproject_2stim_asymm_v5,2020.2.10,MacIntel,60,61025ae37ef11b136ea224fe,,,,,,,,,898,-48.68096924,-44.69342041,1,0,0,response5disk,,2,13.56451416,12.47875977,1,0,0,rectangle,13.56451416,12.47875977,1,0,0,13.56451416,12.47875977,1,0,0,1,55,215,126,1,,,,,,,,
,,,,,,,,,,,,,FF,,,,,,,,0.6013,,,,,,,,,,,,,,,,,,,,,,60fcfdb47438518d822266bb,610378d3d669369cac315fb4,2021-07-29_20h58.42.202,Simcolourproject_2stim_asymm_v5,2020.2.10,MacIntel,60,61025ae37ef11b136ea224fe,,,,,,,,,2846,-39.47454834,-94.10961914,1,0,0,response5disk,,3,15.61779785,-6.674041748,1,0,0,rectangle,15.61779785,-6.674041748,1,0,0,15.61779785,-6.674041748,1,0,0,1,56,216,52,1,,,,,,,,
,,,,,,,,,,,,,FF,,,,,,,,1.1659,,,,,,,,,,,,,,,,,,,,,,60fcfdb47438518d822266bb,610378d3d669369cac315fb4,2021-07-29_20h58.42.202,Simcolourproject_2stim_asymm_v5,2020.2.10,MacIntel,60,61025ae37ef11b136ea224fe,,,,,,,,,4038,37.15100098,75.46572876,1,0,0,response1disk,,7,0.300598145,1.263580322,1,0,0,rectangle,0.300598145,1.263580322,1,0,0,0.300598145,1.263580322,1,0,0,1,57,217,112,1,,,,,,,,
,,,,,,,,,,,,,FF,,,,,,,,0.5336,,,,,,,,,,,,,,,,,,,,,,60fcfdb47438518d822266bb,610378d3d669369cac315fb4,2021-07-29_20h58.42.202,Simcolourproject_2stim_asymm_v5,2020.2.10,MacIntel,60,61025ae37ef11b136ea224fe,,,,,,,,,2405,40.04846191,78.23684692,1,0,0,response1disk,,7,7.927246094,6.355224609,1,0,0,rectangle,7.927246094,6.355224609,1,0,0,7.927246094,6.355224609,1,0,0,1,58,218,43,1,,,,,,,,
,,,,,,,,,,,,,FF,,,,,,,,0.483,,,,,,,,,,,,,,,,,,,,,,60fcfdb47438518d822266bb,610378d3d669369cac315fb4,2021-07-29_20h58.42.202,Simcolourproject_2stim_asymm_v5,2020.2.10,MacIntel,60,61025ae37ef11b136ea224fe,,,,,,,,,1357,43.83496094,67.87701416,1,0,0,response1disk,,7,27.90057373,9.9375,1,0,0,rectangle,27.90057373,9.9375,1,0,0,27.90057373,9.9375,1,0,0,1,59,219,15,1,,,,,,,,
,,,,,,,,,,,,,FF,,,,,,,,0.4994,,,,,,,,,,,,,,,,,,,,,,60fcfdb47438518d822266bb,610378d3d669369cac315fb4,2021-07-29_20h58.42.202,Simcolourproject_2stim_asymm_v5,2020.2.10,MacIntel,60,61025ae37ef11b136ea224fe,,,,,,,,,1639,40.75341797,68.31222534,1,0,0,response1disk,,7,18.90332031,4.324584961,1,0,0,rectangle,18.90332031,4.324584961,1,0,0,18.90332031,4.324584961,1,0,0,1,60,220,148,1,,,,,,,,
,,,,,,,,,,,,,FF,,,,,,,,0.3155,,,,,,,,,,,,,,,,,,,,,,60fcfdb47438518d822266bb,610378d3d669369cac315fb4,2021-07-29_20h58.42.202,Simcolourproject_2stim_asymm_v5,2020.2.10,MacIntel,60,61025ae37ef11b136ea224fe,,,,,,,,,1626,53.81121826,54.72833252,1,0,0,response1disk,,7,25.25512695,1.832519531,1,0,0,rectangle,25.25512695,1.832519531,1,0,0,25.25512695,1.832519531,1,0,0,1,61,221,147,1,,,,,,,,
,,,,,,,,,,,,,FF,,,,,,,,0.3665,,,,,,,,,,,,,,,,,,,,,,60fcfdb47438518d822266bb,610378d3d669369cac315fb4,2021-07-29_20h58.42.202,Simcolourproject_2stim_asymm_v5,2020.2.10,MacIntel,60,61025ae37ef11b136ea224fe,,,,,,,,,4117,50.31719971,62.36453247,1,0,0,response1disk,,7,-4.55859375,-6.247344971,1,0,0,rectangle,-4.55859375,-6.247344971,1,0,0,-4.55859375,-6.247344971,1,0,0,1,62,222,12,1,,,,,,,,
,,,,,,,,,,,,,FF,,,,,,,,1.1668,,,,,,,,,,,,,,,,,,,,,,60fcfdb47438518d822266bb,610378d3d669369cac315fb4,2021-07-29_20h58.42.202,Simcolourproject_2stim_asymm_v5,2020.2.10,MacIntel,60,61025ae37ef11b136ea224fe,,,,,,,,,4024,28.37335205,-73.46600342,1,0,0,response3disk,,4,12.12615967,-1.991516113,1,0,0,rectangle,12.12615967,-1.991516113,1,0,0,12.12615967,-1.991516113,1,0,0,1,63,223,31,1,,,,,,,,
,,,,,,,,,,,,,FF,,,,,,,,0.7672,,,,,,,,,,,,,,,,,,,,,,60fcfdb47438518d822266bb,610378d3d669369cac315fb4,2021-07-29_20h58.42.202,Simcolourproject_2stim_asymm_v5,2020.2.10,MacIntel,60,61025ae37ef11b136ea224fe,,,,,,,,,1574,53.37463379,82.10375977,1,0,0,response1disk,,7,6.067626953,3.069213867,1,0,0,rectangle,6.067626953,3.069213867,1,0,0,6.067626953,3.069213867,1,0,0,1,64,224,38,1,,,,,,,,
,,,,,,,,,,,,,FF,,,,,,,,0.5997,,,,,,,,,,,,,,,,,,,,,,60fcfdb47438518d822266bb,610378d3d669369cac315fb4,2021-07-29_20h58.42.202,Simcolourproject_2stim_asymm_v5,2020.2.10,MacIntel,60,61025ae37ef11b136ea224fe,,,,,,,,,3546,49.19628906,-85.99072266,1,0,0,response3disk,,4,3.282836914,-9.685577393,1,0,0,rectangle,3.282836914,-9.685577393,1,0,0,3.282836914,-9.685577393,1,0,0,1,65,225,63,1,,,,,,,,
,,,,,,,,,,,,,FF,,,,,,,,0.5335,,,,,,,,,,,,,,,,,,,,,,60fcfdb47438518d822266bb,610378d3d669369cac315fb4,2021-07-29_20h58.42.202,Simcolourproject_2stim_asymm_v5,2020.2.10,MacIntel,60,61025ae37ef11b136ea224fe,,,,,,,,,3420,27.79473877,74.63092041,1,0,0,response1disk,,7,-0.450317383,-11.9185791,1,0,0,rectangle,-0.450317383,-11.9185791,1,0,0,-0.450317383,-11.9185791,1,0,0,1,66,226,149,1,,,,,,,,
,,,,,,,,,,,,,FF,,,,,,,,0.4663,,,,,,,,,,,,,,,,,,,,,,60fcfdb47438518d822266bb,610378d3d669369cac315fb4,2021-07-29_20h58.42.202,Simcolourproject_2stim_asymm_v5,2020.2.10,MacIntel,60,61025ae37ef11b136ea224fe,,,,,,,,,1613,33.06567383,64.70684814,1,0,0,response1disk,,7,21.52081299,-3.719055176,1,0,0,rectangle,21.52081299,-3.719055176,1,0,0,21.52081299,-3.719055176,1,0,0,1,67,227,125,1,,,,,,,,
,,,,,,,,,,,,,FF,,,,,,,,0.4167,,,,,,,,,,,,,,,,,,,,,,60fcfdb47438518d822266bb,610378d3d669369cac315fb4,2021-07-29_20h58.42.202,Simcolourproject_2stim_asymm_v5,2020.2.10,MacIntel,60,61025ae37ef11b136ea224fe,,,,,,,,,2816,33.58880615,65.08703613,1,0,0,response1disk,,7,14.5411377,17.831604,1,0,0,rectangle,14.5411377,17.831604,1,0,0,14.5411377,17.831604,1,0,0,1,68,228,55,1,,,,,,,,
,,,,,,,,,,,,,FF,,,,,,,,0.5335,,,,,,,,,,,,,,,,,,,,,,60fcfdb47438518d822266bb,610378d3d669369cac315fb4,2021-07-29_20h58.42.202,Simcolourproject_2stim_asymm_v5,2020.2.10,MacIntel,60,61025ae37ef11b136ea224fe,,,,,,,,,1094,30.97436523,66.0847168,1,0,0,response1disk,,7,13.12438965,4.217193604,1,0,0,rectangle,13.12438965,4.217193604,1,0,0,13.12438965,4.217193604,1,0,0,1,69,229,138,1,,,,,,,,
,,,,,,,,,,,,,FF,,,,,,,,0.7999,,,,,,,,,,,,,,,,,,,,,,60fcfdb47438518d822266bb,610378d3d669369cac315fb4,2021-07-29_20h58.42.202,Simcolourproject_2stim_asymm_v5,2020.2.10,MacIntel,60,61025ae37ef11b136ea224fe,,,,,,,,,3665,68.42871094,52.0402832,1,0,0,response1disk,,6,7.143432617,-7.777893066,1,0,0,rectangle,7.143432617,-7.777893066,1,0,0,7.143432617,-7.777893066,1,0,0,1,70,230,116,1,,,,,,,,
,,,,,,,,,,,,,FF,,,,,,,,0.3666,,,,,,,,,,,,,,,,,,,,,,60fcfdb47438518d822266bb,610378d3d669369cac315fb4,2021-07-29_20h58.42.202,Simcolourproject_2stim_asymm_v5,2020.2.10,MacIntel,60,61025ae37ef11b136ea224fe,,,,,,,,,3043,82.13916016,24.94085693,1,0,0,response1disk,,6,8.268432617,1.306610107,1,0,0,rectangle,8.268432617,1.306610107,1,0,0,8.268432617,1.306610107,1,0,0,1,71,231,35,1,,,,,,,,
,,,,,,,,,,,,,FF,,,,,,,,0.5335,,,,,,,,,,,,,,,,,,,,,,60fcfdb47438518d822266bb,610378d3d669369cac315fb4,2021-07-29_20h58.42.202,Simcolourproject_2stim_asymm_v5,2020.2.10,MacIntel,60,61025ae37ef11b136ea224fe,,,,,,,,,2390,40.49029541,64.87332153,1,0,0,response1disk,,7,10.70123291,13.60742188,1,0,0,rectangle,10.70123291,13.60742188,1,0,0,10.70123291,13.60742188,1,0,0,1,72,232,130,1,,,,,,,,
,,,,,,,,,,,,,FF,,,,,,,,1.1995,,,,,,,,,,,,,,,,,,,,,,60fcfdb47438518d822266bb,610378d3d669369cac315fb4,2021-07-29_20h58.42.202,Simcolourproject_2stim_asymm_v5,2020.2.10,MacIntel,60,61025ae37ef11b136ea224fe,,,,,,,,,545,64.36016846,-31.36242676,1,0,0,response3disk,,5,11.83831787,-4.406768799,1,0,0,rectangle,11.83831787,-4.406768799,1,0,0,11.83831787,-4.406768799,1,0,0,1,73,233,6,1,,,,,,,,
,,,,,,,,,,,,,FF,,,,,,,,1.8005,,,,,,,,,,,,,,,,,,,,,,60fcfdb47438518d822266bb,610378d3d669369cac315fb4,2021-07-29_20h58.42.202,Simcolourproject_2stim_asymm_v5,2020.2.10,MacIntel,60,61025ae37ef11b136ea224fe,,,,,,,,,1401,32.60803223,99.31219482,1,0,0,response1disk,,7,12.65124512,8.787231445,1,0,0,rectangle,12.65124512,8.787231445,1,0,0,12.65124512,8.787231445,1,0,0,1,74,234,152,1,,,,,,,,
,,,,,,,,,,,,,FF,,,,,,,,0.7337,,,,,,,,,,,,,,,,,,,,,,60fcfdb47438518d822266bb,610378d3d669369cac315fb4,2021-07-29_20h58.42.202,Simcolourproject_2stim_asymm_v5,2020.2.10,MacIntel,60,61025ae37ef11b136ea224fe,,,,,,,,,650,56.78521729,-57.57086182,1,0,0,response3disk,,4,3.778869629,4.690795898,1,0,0,rectangle,3.778869629,4.690795898,1,0,0,3.778869629,4.690795898,1,0,0,1,75,235,91,1,,,,,,,,
,,,,,,,,,,,,,FF,,,,,,,,0.6167,,,,,,,,,,,,,,,,,,,,,,60fcfdb47438518d822266bb,610378d3d669369cac315fb4,2021-07-29_20h58.42.202,Simcolourproject_2stim_asymm_v5,2020.2.10,MacIntel,60,61025ae37ef11b136ea224fe,,,,,,,,,3895,28.70690918,59.9614563,1,0,0,response1disk,,7,17.01989746,-3.91607666,1,0,0,rectangle,17.01989746,-3.91607666,1,0,0,17.01989746,-3.91607666,1,0,0,1,76,236,65,1,,,,,,,,
,,,,,,,,,,,,,FF,,,,,,,,0.4166,,,,,,,,,,,,,,,,,,,,,,60fcfdb47438518d822266bb,610378d3d669369cac315fb4,2021-07-29_20h58.42.202,Simcolourproject_2stim_asymm_v5,2020.2.10,MacIntel,60,61025ae37ef11b136ea224fe,,,,,,,,,296,39.42773438,90.08868408,1,0,0,response1disk,,7,16.57580566,-0.850280762,1,0,0,rectangle,16.57580566,-0.850280762,1,0,0,16.57580566,-0.850280762,1,0,0,1,77,237,74,1,,,,,,,,
,,,,,,,,,,,,,FF,,,,,,,,0.7009,,,,,,,,,,,,,,,,,,,,,,60fcfdb47438518d822266bb,610378d3d669369cac315fb4,2021-07-29_20h58.42.202,Simcolourproject_2stim_asymm_v5,2020.2.10,MacIntel,60,61025ae37ef11b136ea224fe,,,,,,,,,3848,42.80688477,-67.38018799,1,0,0,response3disk,,4,4.204101563,-3.553833008,1,0,0,rectangle,4.204101563,-3.553833008,1,0,0,4.204101563,-3.553833008,1,0,0,1,78,238,56,1,,,,,,,,
,,,,,,,,,,,,,FF,,,,,,,,0.4829,,,,,,,,,,,,,,,,,,,,,,60fcfdb47438518d822266bb,610378d3d669369cac315fb4,2021-07-29_20h58.42.202,Simcolourproject_2stim_asymm_v5,2020.2.10,MacIntel,60,61025ae37ef11b136ea224fe,,,,,,,,,1718,37.09527588,69.14038086,1,0,0,response1disk,,7,9.429016113,-0.958557129,1,0,0,rectangle,9.429016113,-0.958557129,1,0,0,9.429016113,-0.958557129,1,0,0,1,79,239,50,1,,,,,,,,
,,,,,,,,,,,,,FF,,,,,,,,1.0491,,,,,,,,,,,,,,,,,,,,,,60fcfdb47438518d822266bb,610378d3d669369cac315fb4,2021-07-29_20h58.42.202,Simcolourproject_2stim_asymm_v5,2020.2.10,MacIntel,60,61025ae37ef11b136ea224fe,,,,,,,,,3057,-30.38250732,-77.74743652,1,0,0,response5disk,,3,15.87609863,1.00579834,1,0,0,rectangle,15.87609863,1.00579834,1,0,0,15.87609863,1.00579834,1,0,0,1,80,240,64,1,,,,,,,,
,,,,,,,,,,,,,FF,,,,,,,,1.3823,,,,,,,,,,,,,,,,,,,,,,60fcfdb47438518d822266bb,610378d3d669369cac315fb4,2021-07-29_20h58.42.202,Simcolourproject_2stim_asymm_v5,2020.2.10,MacIntel,60,61025ae37ef11b136ea224fe,,,,,,,,,4340,46.4107666,-91.64373779,1,0,0,response3disk,,4,12.5949707,17.28112793,1,0,0,rectangle,12.5949707,17.28112793,1,0,0,12.5949707,17.28112793,1,0,0,1,81,241,3,1,,,,,,,,
