key_resp.keys,key_resp.rt,key_resp_14.keys,key_resp_14.rt,key_resp_15.keys,key_resp_15.rt,key_resp_17.keys,key_resp_17.rt,key_resp_9.keys,key_resp_9.rt,key_resp_10.keys,key_resp_10.rt,practice_comparison,Ecc,mouse_5.x,mouse_5.y,mouse_5.leftButton,mouse_5.midButton,mouse_5.rightButton,mouse_5.clicked_name,pracsimilarity,response_time,mouse_10.x,mouse_10.y,mouse_10.leftButton,mouse_10.midButton,mouse_10.rightButton,mouse_10.clicked_name,mouse_7.x,mouse_7.y,mouse_7.leftButton,mouse_7.midButton,mouse_7.rightButton,mouse_6.x,mouse_6.y,mouse_6.leftButton,mouse_6.midButton,mouse_6.rightButton,duringprac.thisRepN,duringprac.thisTrialN,duringprac.thisN,duringprac.thisIndex,duringprac.ran,participant,session,date,expName,psychopyVersion,OS,frameRate,study_id,mouse_7.clicked_name,catchpracsimilarity,catch_response_time,catchnumberprac,catchtrialorderprac,mouse_6.clicked_name,key_resp_22.keys,key_resp_22.rt,realcomparison,mouse.x,mouse.y,mouse.leftButton,mouse.midButton,mouse.rightButton,mouse.clicked_name,Colour2,similarity,mouse_2.x,mouse_2.y,mouse_2.leftButton,mouse_2.midButton,mouse_2.rightButton,mouse_2.clicked_name,mouse_3.x,mouse_3.y,mouse_3.leftButton,mouse_3.midButton,mouse_3.rightButton,mouse_11.x,mouse_11.y,mouse_11.leftButton,mouse_11.midButton,mouse_11.rightButton,trials_2.thisRepN,trials_2.thisTrialN,trials_2.thisN,trials_2.thisIndex,trials_2.ran,Colour1,mouse_3.clicked_name,catchornah,catchsimilarity,catchnumber,catchtrialorder,catchRT,mouse_11.clicked_name
space,1.246,space,11.857,space,30.919,space,35.301,space,1.59,space,5.147,40,PF,-37,85,1,0,0,response7disk_5,0,6.437,1,-2,1,0,0,rectangle_8,1,-2,1,0,0,1,-2,1,0,0,0,0,0,4,1,60fcd99413d2d738147c7d55,61036f5e3870dce2f2b6666d,2021-07-29_23h19.21.678,Simcolourproject_2stim_asymm_v5,2020.2.10,MacIntel,60,61025ae37ef11b136ea224fe,,,,,,,,,,,,,,,,,,,,,,,,,,,,,,,,,,,,,,,,,,,,,,
,,,,,,,,,,,,156,FF,40,81,1,0,0,response1disk_5,7,4.851,5,4,1,0,0,rectangle_8,-31,77,1,0,0,9,2,1,0,0,0,1,1,0,1,60fcd99413d2d738147c7d55,61036f5e3870dce2f2b6666d,2021-07-29_23h19.21.678,Simcolourproject_2stim_asymm_v5,2020.2.10,MacIntel,60,61025ae37ef11b136ea224fe,response7disk_7,0,3.1,0,"[2,5]",rectangle_4,,,,,,,,,,,,,,,,,,,,,,,,,,,,,,,,,,,,,,,,
,,,,,,,,,,,,119,FF,60,31,1,0,0,response1disk_5,6,3.284,-13,0,1,0,0,rectangle_8,-13,0,1,0,0,-13,0,1,0,0,0,2,2,3,1,60fcd99413d2d738147c7d55,61036f5e3870dce2f2b6666d,2021-07-29_23h19.21.678,Simcolourproject_2stim_asymm_v5,2020.2.10,MacIntel,60,61025ae37ef11b136ea224fe,,,,,,,,,,,,,,,,,,,,,,,,,,,,,,,,,,,,,,,,,,,,,,
,,,,,,,,,,,,104,PF,64,43,1,0,0,response1disk_5,6,2.385,3,-5,1,0,0,rectangle_8,3,-5,1,0,0,3,-5,1,0,0,0,3,3,6,1,60fcd99413d2d738147c7d55,61036f5e3870dce2f2b6666d,2021-07-29_23h19.21.678,Simcolourproject_2stim_asymm_v5,2020.2.10,MacIntel,60,61025ae37ef11b136ea224fe,,,,,,,,,,,,,,,,,,,,,,,,,,,,,,,,,,,,,,,,,,,,,,
,,,,,,,,,,,,121,PF,65,40,1,0,0,response1disk_5,6,1.417,14,-1,1,0,0,rectangle_8,-35,88,1,0,0,0,4,1,0,0,0,4,4,1,1,60fcd99413d2d738147c7d55,61036f5e3870dce2f2b6666d,2021-07-29_23h19.21.678,Simcolourproject_2stim_asymm_v5,2020.2.10,MacIntel,60,61025ae37ef11b136ea224fe,response7disk_7,0,2.216,0,"[2,5]",rectangle_4,,,,,,,,,,,,,,,,,,,,,,,,,,,,,,,,,,,,,,,,
,,,,,,,,,,,,148,PF,58,25,1,0,0,response1disk_5,6,1.667,-1,-7,1,0,0,rectangle_8,-1,-7,1,0,0,-1,-7,1,0,0,0,5,5,2,1,60fcd99413d2d738147c7d55,61036f5e3870dce2f2b6666d,2021-07-29_23h19.21.678,Simcolourproject_2stim_asymm_v5,2020.2.10,MacIntel,60,61025ae37ef11b136ea224fe,,,,,,,,,,,,,,,,,,,,,,,,,,,,,,,,,,,,,,,,,,,,,,
,,,,,,,,,,,,125,FF,27,67,1,0,0,response1disk_5,7,1.652,5,-4,1,0,0,rectangle_8,5,-4,1,0,0,5,-4,1,0,0,0,6,6,5,1,60fcd99413d2d738147c7d55,61036f5e3870dce2f2b6666d,2021-07-29_23h19.21.678,Simcolourproject_2stim_asymm_v5,2020.2.10,MacIntel,60,61025ae37ef11b136ea224fe,,,,,,,,,,,,,,,,,,,,,,,,,,,,,,,,,,,,,,,,,,,,,,
,,,,,,,,,,,,,FF,,,,,,,,1.218,,,,,,,,,,,,,,,,,,,,,,60fcd99413d2d738147c7d55,61036f5e3870dce2f2b6666d,2021-07-29_23h19.21.678,Simcolourproject_2stim_asymm_v5,2020.2.10,MacIntel,60,61025ae37ef11b136ea224fe,,,,,,,space,13.172,1131,-28,87,1,0,0,response7disk,,0,7,0,1,0,0,rectangle,7,0,1,0,0,7,0,1,0,0,0,0,0,4,1,,,,,,,,
,,,,,,,,,,,,,FF,,,,,,,,2.468,,,,,,,,,,,,,,,,,,,,,,60fcd99413d2d738147c7d55,61036f5e3870dce2f2b6666d,2021-07-29_23h19.21.678,Simcolourproject_2stim_asymm_v5,2020.2.10,MacIntel,60,61025ae37ef11b136ea224fe,,,,,,,,,3048,-67,-44,1,0,0,response5disk,,2,3,-2,1,0,0,rectangle,-18,80,1,0,0,4,8,1,0,0,0,1,1,151,1,,response7disk_3,TRUE,0,0,"[9,70,185,185,13,234,222,138,294,137,249,303,2,274,241,121,61,293,309,217]",1.517,rectangle
,,,,,,,,,,,,,FF,,,,,,,,1.767,,,,,,,,,,,,,,,,,,,,,,60fcd99413d2d738147c7d55,61036f5e3870dce2f2b6666d,2021-07-29_23h19.21.678,Simcolourproject_2stim_asymm_v5,2020.2.10,MacIntel,60,61025ae37ef11b136ea224fe,,,,,,,,,954,78,-33,1,0,0,response3disk,,5,1,-2,1,0,0,rectangle,1,-2,1,0,0,1,-2,1,0,0,0,2,2,129,1,,,,,,,,
,,,,,,,,,,,,,FF,,,,,,,,3.818,,,,,,,,,,,,,,,,,,,,,,60fcd99413d2d738147c7d55,61036f5e3870dce2f2b6666d,2021-07-29_23h19.21.678,Simcolourproject_2stim_asymm_v5,2020.2.10,MacIntel,60,61025ae37ef11b136ea224fe,,,,,,,,,3519,-35,-74,1,0,0,response5disk,,3,-7,10,1,0,0,rectangle,-7,10,1,0,0,-7,10,1,0,0,0,3,3,0,1,,,,,,,,
,,,,,,,,,,,,,FF,,,,,,,,1.333,,,,,,,,,,,,,,,,,,,,,,60fcd99413d2d738147c7d55,61036f5e3870dce2f2b6666d,2021-07-29_23h19.21.678,Simcolourproject_2stim_asymm_v5,2020.2.10,MacIntel,60,61025ae37ef11b136ea224fe,,,,,,,,,1363,43,59,1,0,0,response1disk,,7,10,2,1,0,0,rectangle,10,2,1,0,0,10,2,1,0,0,0,4,4,59,1,,,,,,,,
,,,,,,,,,,,,,FF,,,,,,,,1.485,,,,,,,,,,,,,,,,,,,,,,60fcd99413d2d738147c7d55,61036f5e3870dce2f2b6666d,2021-07-29_23h19.21.678,Simcolourproject_2stim_asymm_v5,2020.2.10,MacIntel,60,61025ae37ef11b136ea224fe,,,,,,,,,28,73,37,1,0,0,response1disk,,6,12,-2,1,0,0,rectangle,12,-2,1,0,0,12,-2,1,0,0,0,5,5,115,1,,,,,,,,
,,,,,,,,,,,,,FF,,,,,,,,0.735,,,,,,,,,,,,,,,,,,,,,,60fcd99413d2d738147c7d55,61036f5e3870dce2f2b6666d,2021-07-29_23h19.21.678,Simcolourproject_2stim_asymm_v5,2020.2.10,MacIntel,60,61025ae37ef11b136ea224fe,,,,,,,,,1867,64,38,1,0,0,response1disk,,6,-19,-4,1,0,0,rectangle,-19,-4,1,0,0,-19,-4,1,0,0,0,6,6,137,1,,,,,,,,
,,,,,,,,,,,,,FF,,,,,,,,1.016,,,,,,,,,,,,,,,,,,,,,,60fcd99413d2d738147c7d55,61036f5e3870dce2f2b6666d,2021-07-29_23h19.21.678,Simcolourproject_2stim_asymm_v5,2020.2.10,MacIntel,60,61025ae37ef11b136ea224fe,,,,,,,,,2315,56,33,1,0,0,response1disk,,6,-8,8,1,0,0,rectangle,-8,8,1,0,0,-8,8,1,0,0,0,7,7,30,1,,,,,,,,
,,,,,,,,,,,,,FF,,,,,,,,1.917,,,,,,,,,,,,,,,,,,,,,,60fcd99413d2d738147c7d55,61036f5e3870dce2f2b6666d,2021-07-29_23h19.21.678,Simcolourproject_2stim_asymm_v5,2020.2.10,MacIntel,60,61025ae37ef11b136ea224fe,,,,,,,,,4078,-66,-33,1,0,0,response5disk,,2,-6,6,1,0,0,rectangle,35,-56,1,0,0,-8,-2,1,0,0,0,8,8,74,1,,response3disk_3,TRUE,4,4,"[9,70,185,185,13,234,222,138,294,137,249,303,2,274,241,121,61,293,309,217]",2.334,rectangle
,,,,,,,,,,,,,FF,,,,,,,,1.433,,,,,,,,,,,,,,,,,,,,,,60fcd99413d2d738147c7d55,61036f5e3870dce2f2b6666d,2021-07-29_23h19.21.678,Simcolourproject_2stim_asymm_v5,2020.2.10,MacIntel,60,61025ae37ef11b136ea224fe,,,,,,,,,3606,90,44,1,0,0,response1disk,,6,3,-1,1,0,0,rectangle,3,-1,1,0,0,3,-1,1,0,0,0,9,9,33,1,,,,,,,,
,,,,,,,,,,,,,FF,,,,,,,,1.916,,,,,,,,,,,,,,,,,,,,,,60fcd99413d2d738147c7d55,61036f5e3870dce2f2b6666d,2021-07-29_23h19.21.678,Simcolourproject_2stim_asymm_v5,2020.2.10,MacIntel,60,61025ae37ef11b136ea224fe,,,,,,,,,2129,72,-40,1,0,0,response3disk,,5,2,7,1,0,0,rectangle,2,7,1,0,0,2,7,1,0,0,0,10,10,108,1,,,,,,,,
,,,,,,,,,,,,,FF,,,,,,,,1.851,,,,,,,,,,,,,,,,,,,,,,60fcd99413d2d738147c7d55,61036f5e3870dce2f2b6666d,2021-07-29_23h19.21.678,Simcolourproject_2stim_asymm_v5,2020.2.10,MacIntel,60,61025ae37ef11b136ea224fe,,,,,,,,,2391,67,44,1,0,0,response1disk,,6,4,6,1,0,0,rectangle,4,6,1,0,0,4,6,1,0,0,0,11,11,54,1,,,,,,,,
,,,,,,,,,,,,,FF,,,,,,,,1.133,,,,,,,,,,,,,,,,,,,,,,60fcd99413d2d738147c7d55,61036f5e3870dce2f2b6666d,2021-07-29_23h19.21.678,Simcolourproject_2stim_asymm_v5,2020.2.10,MacIntel,60,61025ae37ef11b136ea224fe,,,,,,,,,3385,-75,-36,1,0,0,response5disk,,2,-4,-6,1,0,0,rectangle,-17,-68,1,0,0,-2,2,1,0,0,0,12,12,155,1,,response5disk_3,TRUE,3,3,"[9,70,185,185,13,234,222,138,294,137,249,303,2,274,241,121,61,293,309,217]",2.366,rectangle
,,,,,,,,,,,,,FF,,,,,,,,2.834,,,,,,,,,,,,,,,,,,,,,,60fcd99413d2d738147c7d55,61036f5e3870dce2f2b6666d,2021-07-29_23h19.21.678,Simcolourproject_2stim_asymm_v5,2020.2.10,MacIntel,60,61025ae37ef11b136ea224fe,,,,,,,,,3505,24,-69,1,0,0,response3disk,,4,4,-2,1,0,0,rectangle,4,-2,1,0,0,4,-2,1,0,0,0,13,13,136,1,,,,,,,,
,,,,,,,,,,,,,FF,,,,,,,,2.568,,,,,,,,,,,,,,,,,,,,,,60fcd99413d2d738147c7d55,61036f5e3870dce2f2b6666d,2021-07-29_23h19.21.678,Simcolourproject_2stim_asymm_v5,2020.2.10,MacIntel,60,61025ae37ef11b136ea224fe,,,,,,,,,557,-40,-76,1,0,0,response5disk,,3,9,5,1,0,0,rectangle,9,5,1,0,0,9,5,1,0,0,0,14,14,119,1,,,,,,,,
,,,,,,,,,,,,,FF,,,,,,,,0.867,,,,,,,,,,,,,,,,,,,,,,60fcd99413d2d738147c7d55,61036f5e3870dce2f2b6666d,2021-07-29_23h19.21.678,Simcolourproject_2stim_asymm_v5,2020.2.10,MacIntel,60,61025ae37ef11b136ea224fe,,,,,,,,,328,41,59,1,0,0,response1disk,,7,12,9,1,0,0,rectangle,12,9,1,0,0,12,9,1,0,0,0,15,15,16,1,,,,,,,,
,,,,,,,,,,,,,FF,,,,,,,,1.017,,,,,,,,,,,,,,,,,,,,,,60fcd99413d2d738147c7d55,61036f5e3870dce2f2b6666d,2021-07-29_23h19.21.678,Simcolourproject_2stim_asymm_v5,2020.2.10,MacIntel,60,61025ae37ef11b136ea224fe,,,,,,,,,164,-65,-32,1,0,0,response5disk,,2,-6,-4,1,0,0,rectangle,-6,-4,1,0,0,-6,-4,1,0,0,0,16,16,79,1,,,,,,,,
,,,,,,,,,,,,,FF,,,,,,,,1.084,,,,,,,,,,,,,,,,,,,,,,60fcd99413d2d738147c7d55,61036f5e3870dce2f2b6666d,2021-07-29_23h19.21.678,Simcolourproject_2stim_asymm_v5,2020.2.10,MacIntel,60,61025ae37ef11b136ea224fe,,,,,,,,,955,43,65,1,0,0,response1disk,,7,17,-3,1,0,0,rectangle,17,-3,1,0,0,17,-3,1,0,0,0,17,17,70,1,,,,,,,,
,,,,,,,,,,,,,FF,,,,,,,,0.799,,,,,,,,,,,,,,,,,,,,,,60fcd99413d2d738147c7d55,61036f5e3870dce2f2b6666d,2021-07-29_23h19.21.678,Simcolourproject_2stim_asymm_v5,2020.2.10,MacIntel,60,61025ae37ef11b136ea224fe,,,,,,,,,4153,29,57,1,0,0,response1disk,,7,6,-16,1,0,0,rectangle,6,-16,1,0,0,6,-16,1,0,0,0,18,18,140,1,,,,,,,,
,,,,,,,,,,,,,FF,,,,,,,,0.883,,,,,,,,,,,,,,,,,,,,,,60fcd99413d2d738147c7d55,61036f5e3870dce2f2b6666d,2021-07-29_23h19.21.678,Simcolourproject_2stim_asymm_v5,2020.2.10,MacIntel,60,61025ae37ef11b136ea224fe,,,,,,,,,3955,34,72,1,0,0,response1disk,,7,6,5,1,0,0,rectangle,6,5,1,0,0,6,5,1,0,0,0,19,19,84,1,,,,,,,,
,,,,,,,,,,,,,FF,,,,,,,,1.217,,,,,,,,,,,,,,,,,,,,,,60fcd99413d2d738147c7d55,61036f5e3870dce2f2b6666d,2021-07-29_23h19.21.678,Simcolourproject_2stim_asymm_v5,2020.2.10,MacIntel,60,61025ae37ef11b136ea224fe,,,,,,,,,2090,-16,-67,1,0,0,response5disk,,3,9,-1,1,0,0,rectangle,9,-1,1,0,0,9,-1,1,0,0,0,20,20,72,1,,,,,,,,
,,,,,,,,,,,,,FF,,,,,,,,2.084,,,,,,,,,,,,,,,,,,,,,,60fcd99413d2d738147c7d55,61036f5e3870dce2f2b6666d,2021-07-29_23h19.21.678,Simcolourproject_2stim_asymm_v5,2020.2.10,MacIntel,60,61025ae37ef11b136ea224fe,,,,,,,,,1725,45,77,1,0,0,response1disk,,7,15,4,1,0,0,rectangle,15,4,1,0,0,15,4,1,0,0,0,21,21,152,1,,,,,,,,
,,,,,,,,,,,,,FF,,,,,,,,1.117,,,,,,,,,,,,,,,,,,,,,,60fcd99413d2d738147c7d55,61036f5e3870dce2f2b6666d,2021-07-29_23h19.21.678,Simcolourproject_2stim_asymm_v5,2020.2.10,MacIntel,60,61025ae37ef11b136ea224fe,,,,,,,,,1652,44,77,1,0,0,response1disk,,7,14,3,1,0,0,rectangle,14,3,1,0,0,14,3,1,0,0,0,22,22,19,1,,,,,,,,
,,,,,,,,,,,,,FF,,,,,,,,1.282,,,,,,,,,,,,,,,,,,,,,,60fcd99413d2d738147c7d55,61036f5e3870dce2f2b6666d,2021-07-29_23h19.21.678,Simcolourproject_2stim_asymm_v5,2020.2.10,MacIntel,60,61025ae37ef11b136ea224fe,,,,,,,,,3986,66,-29,1,0,0,response3disk,,5,-2,-2,1,0,0,rectangle,-2,-2,1,0,0,-2,-2,1,0,0,0,23,23,52,1,,,,,,,,
,,,,,,,,,,,,,FF,,,,,,,,2.233,,,,,,,,,,,,,,,,,,,,,,60fcd99413d2d738147c7d55,61036f5e3870dce2f2b6666d,2021-07-29_23h19.21.678,Simcolourproject_2stim_asymm_v5,2020.2.10,MacIntel,60,61025ae37ef11b136ea224fe,,,,,,,,,2547,-40,-70,1,0,0,response5disk,,3,4,7,1,0,0,rectangle,4,7,1,0,0,4,7,1,0,0,0,24,24,18,1,,,,,,,,
,,,,,,,,,,,,,FF,,,,,,,,0.8,,,,,,,,,,,,,,,,,,,,,,60fcd99413d2d738147c7d55,61036f5e3870dce2f2b6666d,2021-07-29_23h19.21.678,Simcolourproject_2stim_asymm_v5,2020.2.10,MacIntel,60,61025ae37ef11b136ea224fe,,,,,,,,,946,54,75,1,0,0,response1disk,,7,16,5,1,0,0,rectangle,16,5,1,0,0,16,5,1,0,0,0,25,25,111,1,,,,,,,,
,,,,,,,,,,,,,FF,,,,,,,,1.184,,,,,,,,,,,,,,,,,,,,,,60fcd99413d2d738147c7d55,61036f5e3870dce2f2b6666d,2021-07-29_23h19.21.678,Simcolourproject_2stim_asymm_v5,2020.2.10,MacIntel,60,61025ae37ef11b136ea224fe,,,,,,,,,1564,74,44,1,0,0,response1disk,,6,10,0,0,0,1,rectangle,10,0,0,0,1,10,0,0,0,1,0,26,26,50,1,,,,,,,,
,,,,,,,,,,,,,FF,,,,,,,,4.284,,,,,,,,,,,,,,,,,,,,,,60fcd99413d2d738147c7d55,61036f5e3870dce2f2b6666d,2021-07-29_23h19.21.678,Simcolourproject_2stim_asymm_v5,2020.2.10,MacIntel,60,61025ae37ef11b136ea224fe,,,,,,,,,2269,38,87,1,0,1,response1disk,,7,-14,-1,1,0,1,rectangle,-14,-1,1,0,1,-14,-1,1,0,1,0,27,27,146,1,,,,,,,,
,,,,,,,,,,,,,FF,,,,,,,,0.9,,,,,,,,,,,,,,,,,,,,,,60fcd99413d2d738147c7d55,61036f5e3870dce2f2b6666d,2021-07-29_23h19.21.678,Simcolourproject_2stim_asymm_v5,2020.2.10,MacIntel,60,61025ae37ef11b136ea224fe,,,,,,,,,142,50,76,1,0,1,response1disk,,7,16,6,1,0,1,rectangle,16,6,1,0,1,16,6,1,0,1,0,28,28,144,1,,,,,,,,
,,,,,,,,,,,,,FF,,,,,,,,1.133,,,,,,,,,,,,,,,,,,,,,,60fcd99413d2d738147c7d55,61036f5e3870dce2f2b6666d,2021-07-29_23h19.21.678,Simcolourproject_2stim_asymm_v5,2020.2.10,MacIntel,60,61025ae37ef11b136ea224fe,,,,,,,,,2931,30,67,1,0,1,response1disk,,7,13,1,1,0,1,rectangle,13,1,1,0,1,13,1,1,0,1,0,29,29,107,1,,,,,,,,
,,,,,,,,,,,,,FF,,,,,,,,0.833,,,,,,,,,,,,,,,,,,,,,,60fcd99413d2d738147c7d55,61036f5e3870dce2f2b6666d,2021-07-29_23h19.21.678,Simcolourproject_2stim_asymm_v5,2020.2.10,MacIntel,60,61025ae37ef11b136ea224fe,,,,,,,,,1271,52,-25,1,0,1,response3disk,,5,18,1,1,0,1,rectangle,18,1,1,0,1,18,1,1,0,1,0,30,30,120,1,,,,,,,,
,,,,,,,,,,,,,FF,,,,,,,,0.867,,,,,,,,,,,,,,,,,,,,,,60fcd99413d2d738147c7d55,61036f5e3870dce2f2b6666d,2021-07-29_23h19.21.678,Simcolourproject_2stim_asymm_v5,2020.2.10,MacIntel,60,61025ae37ef11b136ea224fe,,,,,,,,,3188,-43,-79,1,0,1,response5disk,,3,-11,-4,1,0,1,rectangle,-11,-4,1,0,1,-11,-4,1,0,1,0,31,31,109,1,,,,,,,,
,,,,,,,,,,,,,FF,,,,,,,,1,,,,,,,,,,,,,,,,,,,,,,60fcd99413d2d738147c7d55,61036f5e3870dce2f2b6666d,2021-07-29_23h19.21.678,Simcolourproject_2stim_asymm_v5,2020.2.10,MacIntel,60,61025ae37ef11b136ea224fe,,,,,,,,,1938,74,-22,1,0,1,response3disk,,5,21,3,1,0,1,rectangle,21,3,1,0,1,21,3,1,0,1,0,32,32,83,1,,,,,,,,
,,,,,,,,,,,,,FF,,,,,,,,1.6,,,,,,,,,,,,,,,,,,,,,,60fcd99413d2d738147c7d55,61036f5e3870dce2f2b6666d,2021-07-29_23h19.21.678,Simcolourproject_2stim_asymm_v5,2020.2.10,MacIntel,60,61025ae37ef11b136ea224fe,,,,,,,,,3858,29,-63,1,0,1,response3disk,,4,6,0,1,0,1,rectangle,6,0,1,0,1,6,0,1,0,1,0,33,33,100,1,,,,,,,,
,,,,,,,,,,,,,FF,,,,,,,,1.199,,,,,,,,,,,,,,,,,,,,,,60fcd99413d2d738147c7d55,61036f5e3870dce2f2b6666d,2021-07-29_23h19.21.678,Simcolourproject_2stim_asymm_v5,2020.2.10,MacIntel,60,61025ae37ef11b136ea224fe,,,,,,,,,2113,36,-66,1,0,1,response3disk,,4,17,0,1,0,1,rectangle,17,0,1,0,1,17,0,1,0,1,0,34,34,153,1,,,,,,,,
,,,,,,,,,,,,,FF,,,,,,,,1.016,,,,,,,,,,,,,,,,,,,,,,60fcd99413d2d738147c7d55,61036f5e3870dce2f2b6666d,2021-07-29_23h19.21.678,Simcolourproject_2stim_asymm_v5,2020.2.10,MacIntel,60,61025ae37ef11b136ea224fe,,,,,,,,,3001,25,-84,1,0,1,response3disk,,4,2,-4,1,0,1,rectangle,2,-4,1,0,1,2,-4,1,0,1,0,35,35,113,1,,,,,,,,
,,,,,,,,,,,,,FF,,,,,,,,1.351,,,,,,,,,,,,,,,,,,,,,,60fcd99413d2d738147c7d55,61036f5e3870dce2f2b6666d,2021-07-29_23h19.21.678,Simcolourproject_2stim_asymm_v5,2020.2.10,MacIntel,60,61025ae37ef11b136ea224fe,,,,,,,,,2276,71,37,1,0,1,response1disk,,6,-8,-2,1,0,1,rectangle,-8,-2,1,0,1,-8,-2,1,0,1,0,36,36,147,1,,,,,,,,
,,,,,,,,,,,,,FF,,,,,,,,0.732,,,,,,,,,,,,,,,,,,,,,,60fcd99413d2d738147c7d55,61036f5e3870dce2f2b6666d,2021-07-29_23h19.21.678,Simcolourproject_2stim_asymm_v5,2020.2.10,MacIntel,60,61025ae37ef11b136ea224fe,,,,,,,,,4012,30,57,1,0,1,response1disk,,7,13,-1,1,0,1,rectangle,13,-1,1,0,1,13,-1,1,0,1,0,37,37,128,1,,,,,,,,
,,,,,,,,,,,,,FF,,,,,,,,0.784,,,,,,,,,,,,,,,,,,,,,,60fcd99413d2d738147c7d55,61036f5e3870dce2f2b6666d,2021-07-29_23h19.21.678,Simcolourproject_2stim_asymm_v5,2020.2.10,MacIntel,60,61025ae37ef11b136ea224fe,,,,,,,,,2246,27,71,1,0,1,response1disk,,7,14,4,1,0,1,rectangle,14,4,1,0,1,14,4,1,0,1,0,38,38,10,1,,,,,,,,
,,,,,,,,,,,,,FF,,,,,,,,0.833,,,,,,,,,,,,,,,,,,,,,,60fcd99413d2d738147c7d55,61036f5e3870dce2f2b6666d,2021-07-29_23h19.21.678,Simcolourproject_2stim_asymm_v5,2020.2.10,MacIntel,60,61025ae37ef11b136ea224fe,,,,,,,,,211,66,22,1,0,1,response1disk,,6,24,-5,1,0,1,rectangle,24,-5,1,0,1,24,-5,1,0,1,0,39,39,96,1,,,,,,,,
,,,,,,,,,,,,,FF,,,,,,,,1.533,,,,,,,,,,,,,,,,,,,,,,60fcd99413d2d738147c7d55,61036f5e3870dce2f2b6666d,2021-07-29_23h19.21.678,Simcolourproject_2stim_asymm_v5,2020.2.10,MacIntel,60,61025ae37ef11b136ea224fe,,,,,,,,,2353,58,-41,1,0,1,response3disk,,5,-8,8,1,0,1,rectangle,-8,8,1,0,1,-8,8,1,0,1,0,40,40,117,1,,,,,,,,
,,,,,,,,,,,,,FF,,,,,,,,1.034,,,,,,,,,,,,,,,,,,,,,,60fcd99413d2d738147c7d55,61036f5e3870dce2f2b6666d,2021-07-29_23h19.21.678,Simcolourproject_2stim_asymm_v5,2020.2.10,MacIntel,60,61025ae37ef11b136ea224fe,,,,,,,,,1085,39,82,1,0,1,response1disk,,7,16,-6,1,0,1,rectangle,16,-6,1,0,1,16,-6,1,0,1,0,41,41,31,1,,,,,,,,
,,,,,,,,,,,,,FF,,,,,,,,0.966,,,,,,,,,,,,,,,,,,,,,,60fcd99413d2d738147c7d55,61036f5e3870dce2f2b6666d,2021-07-29_23h19.21.678,Simcolourproject_2stim_asymm_v5,2020.2.10,MacIntel,60,61025ae37ef11b136ea224fe,,,,,,,,,52,74,35,1,0,1,response1disk,,6,4,1,1,0,1,rectangle,4,1,1,0,1,4,1,1,0,1,0,42,42,92,1,,,,,,,,
,,,,,,,,,,,,,FF,,,,,,,,0.967,,,,,,,,,,,,,,,,,,,,,,60fcd99413d2d738147c7d55,61036f5e3870dce2f2b6666d,2021-07-29_23h19.21.678,Simcolourproject_2stim_asymm_v5,2020.2.10,MacIntel,60,61025ae37ef11b136ea224fe,,,,,,,,,2228,-72,20,1,0,1,response7disk,,1,-1,-3,1,0,1,rectangle,-1,-3,1,0,1,-1,-3,1,0,1,0,43,43,60,1,,,,,,,,
,,,,,,,,,,,,,FF,,,,,,,,1,,,,,,,,,,,,,,,,,,,,,,60fcd99413d2d738147c7d55,61036f5e3870dce2f2b6666d,2021-07-29_23h19.21.678,Simcolourproject_2stim_asymm_v5,2020.2.10,MacIntel,60,61025ae37ef11b136ea224fe,,,,,,,,,2014,20,52,1,0,1,response1disk,,7,9,-2,1,0,1,rectangle,9,-2,1,0,1,9,-2,1,0,1,0,44,44,114,1,,,,,,,,
,,,,,,,,,,,,,FF,,,,,,,,0.833,,,,,,,,,,,,,,,,,,,,,,60fcd99413d2d738147c7d55,61036f5e3870dce2f2b6666d,2021-07-29_23h19.21.678,Simcolourproject_2stim_asymm_v5,2020.2.10,MacIntel,60,61025ae37ef11b136ea224fe,,,,,,,,,494,35,64,1,0,1,response1disk,,7,12,-8,1,0,1,rectangle,12,-8,1,0,1,12,-8,1,0,1,0,45,45,37,1,,,,,,,,
,,,,,,,,,,,,,FF,,,,,,,,1.867,,,,,,,,,,,,,,,,,,,,,,60fcd99413d2d738147c7d55,61036f5e3870dce2f2b6666d,2021-07-29_23h19.21.678,Simcolourproject_2stim_asymm_v5,2020.2.10,MacIntel,60,61025ae37ef11b136ea224fe,,,,,,,,,4150,20,-78,1,0,1,response3disk,,4,16,6,1,0,1,rectangle,16,6,1,0,1,16,6,1,0,1,0,46,46,103,1,,,,,,,,
,,,,,,,,,,,,,FF,,,,,,,,1.017,,,,,,,,,,,,,,,,,,,,,,60fcd99413d2d738147c7d55,61036f5e3870dce2f2b6666d,2021-07-29_23h19.21.678,Simcolourproject_2stim_asymm_v5,2020.2.10,MacIntel,60,61025ae37ef11b136ea224fe,,,,,,,,,4265,35,-67,1,0,1,response3disk,,4,4,-10,1,0,1,rectangle,4,-10,1,0,1,4,-10,1,0,1,0,47,47,34,1,,,,,,,,
,,,,,,,,,,,,,FF,,,,,,,,0.733,,,,,,,,,,,,,,,,,,,,,,60fcd99413d2d738147c7d55,61036f5e3870dce2f2b6666d,2021-07-29_23h19.21.678,Simcolourproject_2stim_asymm_v5,2020.2.10,MacIntel,60,61025ae37ef11b136ea224fe,,,,,,,,,4235,-40,78,1,0,1,response7disk,,0,6,-2,1,0,1,rectangle,6,-2,1,0,1,6,-2,1,0,1,0,48,48,141,1,,,,,,,,
,,,,,,,,,,,,,FF,,,,,,,,1.267,,,,,,,,,,,,,,,,,,,,,,60fcd99413d2d738147c7d55,61036f5e3870dce2f2b6666d,2021-07-29_23h19.21.678,Simcolourproject_2stim_asymm_v5,2020.2.10,MacIntel,60,61025ae37ef11b136ea224fe,,,,,,,,,1140,74,34,1,0,1,response1disk,,6,15,4,1,0,1,rectangle,15,4,1,0,1,15,4,1,0,1,0,49,49,125,1,,,,,,,,
,,,,,,,,,,,,,FF,,,,,,,,0.967,,,,,,,,,,,,,,,,,,,,,,60fcd99413d2d738147c7d55,61036f5e3870dce2f2b6666d,2021-07-29_23h19.21.678,Simcolourproject_2stim_asymm_v5,2020.2.10,MacIntel,60,61025ae37ef11b136ea224fe,,,,,,,,,3797,43,65,1,0,1,response1disk,,7,6,-4,1,0,1,rectangle,6,-4,1,0,1,6,-4,1,0,1,0,50,50,9,1,,,,,,,,
,,,,,,,,,,,,,FF,,,,,,,,0.767,,,,,,,,,,,,,,,,,,,,,,60fcd99413d2d738147c7d55,61036f5e3870dce2f2b6666d,2021-07-29_23h19.21.678,Simcolourproject_2stim_asymm_v5,2020.2.10,MacIntel,60,61025ae37ef11b136ea224fe,,,,,,,,,4003,36,51,1,0,1,response1disk,,7,22,-3,1,0,1,rectangle,22,-3,1,0,1,22,-3,1,0,1,0,51,51,22,1,,,,,,,,
,,,,,,,,,,,,,FF,,,,,,,,0.9,,,,,,,,,,,,,,,,,,,,,,60fcd99413d2d738147c7d55,61036f5e3870dce2f2b6666d,2021-07-29_23h19.21.678,Simcolourproject_2stim_asymm_v5,2020.2.10,MacIntel,60,61025ae37ef11b136ea224fe,,,,,,,,,1015,40,68,1,0,1,response1disk,,7,19,2,1,0,1,rectangle,19,2,1,0,1,19,2,1,0,1,0,52,52,90,1,,,,,,,,
,,,,,,,,,,,,,FF,,,,,,,,1.1,,,,,,,,,,,,,,,,,,,,,,60fcd99413d2d738147c7d55,61036f5e3870dce2f2b6666d,2021-07-29_23h19.21.678,Simcolourproject_2stim_asymm_v5,2020.2.10,MacIntel,60,61025ae37ef11b136ea224fe,,,,,,,,,643,31,72,1,0,1,response1disk,,7,19,-5,1,0,1,rectangle,19,-5,1,0,1,19,-5,1,0,1,0,53,53,71,1,,,,,,,,
,,,,,,,,,,,,,FF,,,,,,,,0.784,,,,,,,,,,,,,,,,,,,,,,60fcd99413d2d738147c7d55,61036f5e3870dce2f2b6666d,2021-07-29_23h19.21.678,Simcolourproject_2stim_asymm_v5,2020.2.10,MacIntel,60,61025ae37ef11b136ea224fe,,,,,,,,,595,81,44,1,0,1,response1disk,,6,9,6,1,0,1,rectangle,9,6,1,0,1,9,6,1,0,1,0,54,54,38,1,,,,,,,,
,,,,,,,,,,,,,FF,,,,,,,,0.9,,,,,,,,,,,,,,,,,,,,,,60fcd99413d2d738147c7d55,61036f5e3870dce2f2b6666d,2021-07-29_23h19.21.678,Simcolourproject_2stim_asymm_v5,2020.2.10,MacIntel,60,61025ae37ef11b136ea224fe,,,,,,,,,2067,38,-32,1,0,1,response3disk,,5,-5,-12,1,0,1,rectangle,-5,-12,1,0,1,-5,-12,1,0,1,0,55,55,44,1,,,,,,,,
,,,,,,,,,,,,,FF,,,,,,,,1.283,,,,,,,,,,,,,,,,,,,,,,60fcd99413d2d738147c7d55,61036f5e3870dce2f2b6666d,2021-07-29_23h19.21.678,Simcolourproject_2stim_asymm_v5,2020.2.10,MacIntel,60,61025ae37ef11b136ea224fe,,,,,,,,,2604,45,-22,1,0,1,response3disk,,5,16,11,1,0,1,rectangle,16,11,1,0,1,16,11,1,0,1,0,56,56,87,1,,,,,,,,
,,,,,,,,,,,,,FF,,,,,,,,0.949,,,,,,,,,,,,,,,,,,,,,,60fcd99413d2d738147c7d55,61036f5e3870dce2f2b6666d,2021-07-29_23h19.21.678,Simcolourproject_2stim_asymm_v5,2020.2.10,MacIntel,60,61025ae37ef11b136ea224fe,,,,,,,,,2112,54,74,1,0,1,response1disk,,7,11,15,1,0,1,rectangle,11,15,1,0,1,11,15,1,0,1,0,57,57,88,1,,,,,,,,
,,,,,,,,,,,,,FF,,,,,,,,0.984,,,,,,,,,,,,,,,,,,,,,,60fcd99413d2d738147c7d55,61036f5e3870dce2f2b6666d,2021-07-29_23h19.21.678,Simcolourproject_2stim_asymm_v5,2020.2.10,MacIntel,60,61025ae37ef11b136ea224fe,,,,,,,,,3615,74,41,1,0,1,response1disk,,6,13,4,1,0,1,rectangle,13,4,1,0,1,13,4,1,0,1,0,58,58,135,1,,,,,,,,
,,,,,,,,,,,,,FF,,,,,,,,1.117,,,,,,,,,,,,,,,,,,,,,,60fcd99413d2d738147c7d55,61036f5e3870dce2f2b6666d,2021-07-29_23h19.21.678,Simcolourproject_2stim_asymm_v5,2020.2.10,MacIntel,60,61025ae37ef11b136ea224fe,,,,,,,,,3377,70,-40,1,0,1,response3disk,,5,12,3,1,0,1,rectangle,12,3,1,0,1,12,3,1,0,1,0,59,59,68,1,,,,,,,,
,,,,,,,,,,,,,FF,,,,,,,,0.866,,,,,,,,,,,,,,,,,,,,,,60fcd99413d2d738147c7d55,61036f5e3870dce2f2b6666d,2021-07-29_23h19.21.678,Simcolourproject_2stim_asymm_v5,2020.2.10,MacIntel,60,61025ae37ef11b136ea224fe,,,,,,,,,177,73,52,1,0,1,response1disk,,6,2,16,1,0,1,rectangle,42,91,1,0,1,17,-6,1,0,1,0,60,60,12,1,,response1disk_3,TRUE,7,7,"[9,70,185,185,13,234,222,138,294,137,249,303,2,274,241,121,61,293,309,217]",1.949,rectangle
,,,,,,,,,,,,,FF,,,,,,,,1.068,,,,,,,,,,,,,,,,,,,,,,60fcd99413d2d738147c7d55,61036f5e3870dce2f2b6666d,2021-07-29_23h19.21.678,Simcolourproject_2stim_asymm_v5,2020.2.10,MacIntel,60,61025ae37ef11b136ea224fe,,,,,,,,,2515,48,65,1,0,1,response1disk,,7,22,7,1,0,1,rectangle,22,7,1,0,1,22,7,1,0,1,0,61,61,15,1,,,,,,,,
,,,,,,,,,,,,,FF,,,,,,,,0.499,,,,,,,,,,,,,,,,,,,,,,60fcd99413d2d738147c7d55,61036f5e3870dce2f2b6666d,2021-07-29_23h19.21.678,Simcolourproject_2stim_asymm_v5,2020.2.10,MacIntel,60,61025ae37ef11b136ea224fe,,,,,,,,,2764,29,52,1,0,1,response1disk,,7,10,1,1,0,1,rectangle,10,1,1,0,1,10,1,1,0,1,0,62,62,138,1,,,,,,,,
,,,,,,,,,,,,,FF,,,,,,,,0.9,,,,,,,,,,,,,,,,,,,,,,60fcd99413d2d738147c7d55,61036f5e3870dce2f2b6666d,2021-07-29_23h19.21.678,Simcolourproject_2stim_asymm_v5,2020.2.10,MacIntel,60,61025ae37ef11b136ea224fe,,,,,,,,,2091,46,-49,1,0,1,response3disk,,4,16,-3,1,0,1,rectangle,16,-3,1,0,1,16,-3,1,0,1,0,63,63,86,1,,,,,,,,
,,,,,,,,,,,,,FF,,,,,,,,1.784,,,,,,,,,,,,,,,,,,,,,,60fcd99413d2d738147c7d55,61036f5e3870dce2f2b6666d,2021-07-29_23h19.21.678,Simcolourproject_2stim_asymm_v5,2020.2.10,MacIntel,60,61025ae37ef11b136ea224fe,,,,,,,,,1598,40,-53,1,0,1,response3disk,,4,10,-4,1,0,1,rectangle,10,-4,1,0,1,10,-4,1,0,1,0,64,64,104,1,,,,,,,,
,,,,,,,,,,,,,FF,,,,,,,,0.801,,,,,,,,,,,,,,,,,,,,,,60fcd99413d2d738147c7d55,61036f5e3870dce2f2b6666d,2021-07-29_23h19.21.678,Simcolourproject_2stim_asymm_v5,2020.2.10,MacIntel,60,61025ae37ef11b136ea224fe,,,,,,,,,1945,64,35,1,0,1,response1disk,,6,9,5,1,0,1,rectangle,9,5,1,0,1,9,5,1,0,1,0,65,65,91,1,,,,,,,,
,,,,,,,,,,,,,FF,,,,,,,,0.717,,,,,,,,,,,,,,,,,,,,,,60fcd99413d2d738147c7d55,61036f5e3870dce2f2b6666d,2021-07-29_23h19.21.678,Simcolourproject_2stim_asymm_v5,2020.2.10,MacIntel,60,61025ae37ef11b136ea224fe,,,,,,,,,1216,63,26,1,0,1,response1disk,,6,11,-9,1,0,1,rectangle,11,-9,1,0,1,11,-9,1,0,1,0,66,66,55,1,,,,,,,,
,,,,,,,,,,,,,FF,,,,,,,,0.666,,,,,,,,,,,,,,,,,,,,,,60fcd99413d2d738147c7d55,61036f5e3870dce2f2b6666d,2021-07-29_23h19.21.678,Simcolourproject_2stim_asymm_v5,2020.2.10,MacIntel,60,61025ae37ef11b136ea224fe,,,,,,,,,3266,18,58,1,0,1,response1disk,,7,-5,2,1,0,1,rectangle,-5,2,1,0,1,-5,2,1,0,1,0,67,67,28,1,,,,,,,,
,,,,,,,,,,,,,FF,,,,,,,,3.899,,,,,,,,,,,,,,,,,,,,,,60fcd99413d2d738147c7d55,61036f5e3870dce2f2b6666d,2021-07-29_23h19.21.678,Simcolourproject_2stim_asymm_v5,2020.2.10,MacIntel,60,61025ae37ef11b136ea224fe,,,,,,,,,2082,37,-88,1,0,1,response3disk,,4,22,-7,1,0,1,rectangle,22,-7,1,0,1,22,-7,1,0,1,0,68,68,143,1,,,,,,,,
,,,,,,,,,,,,,FF,,,,,,,,1.333,,,,,,,,,,,,,,,,,,,,,,60fcd99413d2d738147c7d55,61036f5e3870dce2f2b6666d,2021-07-29_23h19.21.678,Simcolourproject_2stim_asymm_v5,2020.2.10,MacIntel,60,61025ae37ef11b136ea224fe,,,,,,,,,2261,23,-53,1,0,1,response3disk,,4,10,-3,1,0,1,rectangle,-20,-73,1,0,1,14,-1,1,0,1,0,69,69,106,1,,response5disk_3,TRUE,3,3,"[9,70,185,185,13,234,222,138,294,137,249,303,2,274,241,121,61,293,309,217]",3.069,rectangle
,,,,,,,,,,,,,FF,,,,,,,,0.816,,,,,,,,,,,,,,,,,,,,,,60fcd99413d2d738147c7d55,61036f5e3870dce2f2b6666d,2021-07-29_23h19.21.678,Simcolourproject_2stim_asymm_v5,2020.2.10,MacIntel,60,61025ae37ef11b136ea224fe,,,,,,,,,2787,-41,-60,1,0,1,response5disk,,3,-12,-1,1,0,1,rectangle,-12,-1,1,0,1,-12,-1,1,0,1,0,70,70,150,1,,,,,,,,
,,,,,,,,,,,,,FF,,,,,,,,1.217,,,,,,,,,,,,,,,,,,,,,,60fcd99413d2d738147c7d55,61036f5e3870dce2f2b6666d,2021-07-29_23h19.21.678,Simcolourproject_2stim_asymm_v5,2020.2.10,MacIntel,60,61025ae37ef11b136ea224fe,,,,,,,,,2539,67,-26,1,0,1,response3disk,,5,13,-7,1,0,1,rectangle,13,-7,1,0,1,13,-7,1,0,1,0,71,71,80,1,,,,,,,,
,,,,,,,,,,,,,FF,,,,,,,,0.884,,,,,,,,,,,,,,,,,,,,,,60fcd99413d2d738147c7d55,61036f5e3870dce2f2b6666d,2021-07-29_23h19.21.678,Simcolourproject_2stim_asymm_v5,2020.2.10,MacIntel,60,61025ae37ef11b136ea224fe,,,,,,,,,3660,-53,-26,1,0,1,response5disk,,2,11,5,1,0,1,rectangle,11,5,1,0,1,11,5,1,0,1,0,72,72,76,1,,,,,,,,
,,,,,,,,,,,,,FF,,,,,,,,0.833,,,,,,,,,,,,,,,,,,,,,,60fcd99413d2d738147c7d55,61036f5e3870dce2f2b6666d,2021-07-29_23h19.21.678,Simcolourproject_2stim_asymm_v5,2020.2.10,MacIntel,60,61025ae37ef11b136ea224fe,,,,,,,,,3490,38,65,1,0,1,response1disk,,7,20,2,1,0,1,rectangle,20,2,1,0,1,20,2,1,0,1,0,73,73,101,1,,,,,,,,
,,,,,,,,,,,,,FF,,,,,,,,0.917,,,,,,,,,,,,,,,,,,,,,,60fcd99413d2d738147c7d55,61036f5e3870dce2f2b6666d,2021-07-29_23h19.21.678,Simcolourproject_2stim_asymm_v5,2020.2.10,MacIntel,60,61025ae37ef11b136ea224fe,,,,,,,,,1757,-53,-28,1,0,1,response5disk,,2,-2,6,1,0,1,rectangle,-2,6,1,0,1,-2,6,1,0,1,0,74,74,122,1,,,,,,,,
,,,,,,,,,,,,,FF,,,,,,,,1.466,,,,,,,,,,,,,,,,,,,,,,60fcd99413d2d738147c7d55,61036f5e3870dce2f2b6666d,2021-07-29_23h19.21.678,Simcolourproject_2stim_asymm_v5,2020.2.10,MacIntel,60,61025ae37ef11b136ea224fe,,,,,,,,,3864,57,33,1,0,1,response1disk,,6,13,-9,1,0,1,rectangle,13,-9,1,0,1,13,-9,1,0,1,0,75,75,1,1,,,,,,,,
,,,,,,,,,,,,,FF,,,,,,,,0.616,,,,,,,,,,,,,,,,,,,,,,60fcd99413d2d738147c7d55,61036f5e3870dce2f2b6666d,2021-07-29_23h19.21.678,Simcolourproject_2stim_asymm_v5,2020.2.10,MacIntel,60,61025ae37ef11b136ea224fe,,,,,,,,,2465,38,62,1,0,1,response1disk,,7,-9,-11,1,0,1,rectangle,-9,-11,1,0,1,-9,-11,1,0,1,0,76,76,75,1,,,,,,,,
,,,,,,,,,,,,,FF,,,,,,,,2.185,,,,,,,,,,,,,,,,,,,,,,60fcd99413d2d738147c7d55,61036f5e3870dce2f2b6666d,2021-07-29_23h19.21.678,Simcolourproject_2stim_asymm_v5,2020.2.10,MacIntel,60,61025ae37ef11b136ea224fe,,,,,,,,,3301,47,-45,1,0,1,response3disk,,5,22,-2,1,0,1,rectangle,22,-2,1,0,1,22,-2,1,0,1,0,77,77,42,1,,,,,,,,
,,,,,,,,,,,,,FF,,,,,,,,1.584,,,,,,,,,,,,,,,,,,,,,,60fcd99413d2d738147c7d55,61036f5e3870dce2f2b6666d,2021-07-29_23h19.21.678,Simcolourproject_2stim_asymm_v5,2020.2.10,MacIntel,60,61025ae37ef11b136ea224fe,,,,,,,,,3857,55,-39,1,0,1,response3disk,,5,14,-8,1,0,1,rectangle,14,-8,1,0,1,14,-8,1,0,1,0,78,78,43,1,,,,,,,,
,,,,,,,,,,,,,FF,,,,,,,,0.784,,,,,,,,,,,,,,,,,,,,,,60fcd99413d2d738147c7d55,61036f5e3870dce2f2b6666d,2021-07-29_23h19.21.678,Simcolourproject_2stim_asymm_v5,2020.2.10,MacIntel,60,61025ae37ef11b136ea224fe,,,,,,,,,3269,47,80,1,0,1,response1disk,,7,8,4,1,0,1,rectangle,8,4,1,0,1,8,4,1,0,1,0,79,79,99,1,,,,,,,,
,,,,,,,,,,,,,FF,,,,,,,,1.068,,,,,,,,,,,,,,,,,,,,,,60fcd99413d2d738147c7d55,61036f5e3870dce2f2b6666d,2021-07-29_23h19.21.678,Simcolourproject_2stim_asymm_v5,2020.2.10,MacIntel,60,61025ae37ef11b136ea224fe,,,,,,,,,2387,77,36,1,0,1,response1disk,,6,2,0,1,0,1,rectangle,2,0,1,0,1,2,0,1,0,1,0,80,80,7,1,,,,,,,,
,,,,,,,,,,,,,FF,,,,,,,,3.134,,,,,,,,,,,,,,,,,,,,,,60fcd99413d2d738147c7d55,61036f5e3870dce2f2b6666d,2021-07-29_23h19.21.678,Simcolourproject_2stim_asymm_v5,2020.2.10,MacIntel,60,61025ae37ef11b136ea224fe,,,,,,,,,2482,-61,-40,1,0,1,response5disk,,2,0,2,1,0,1,rectangle,0,2,1,0,1,0,2,1,0,1,0,81,81,121,1,,,,,,,,
,,,,,,,,,,,,,FF,,,,,,,,0.751,,,,,,,,,,,,,,,,,,,,,,60fcd99413d2d738147c7d55,61036f5e3870dce2f2b6666d,2021-07-29_23h19.21.678,Simcolourproject_2stim_asymm_v5,2020.2.10,MacIntel,60,61025ae37ef11b136ea224fe,,,,,,,,,1893,-58,-32,1,0,1,response5disk,,2,-5,-3,1,0,1,rectangle,-5,-3,1,0,1,-5,-3,1,0,1,0,82,82,116,1,,,,,,,,
,,,,,,,,,,,,,FF,,,,,,,,0.767,,,,,,,,,,,,,,,,,,,,,,60fcd99413d2d738147c7d55,61036f5e3870dce2f2b6666d,2021-07-29_23h19.21.678,Simcolourproject_2stim_asymm_v5,2020.2.10,MacIntel,60,61025ae37ef11b136ea224fe,,,,,,,,,2236,-35,-59,1,0,1,response5disk,,3,4,-1,1,0,1,rectangle,4,-1,1,0,1,4,-1,1,0,1,0,83,83,40,1,,,,,,,,
,,,,,,,,,,,,,FF,,,,,,,,1.067,,,,,,,,,,,,,,,,,,,,,,60fcd99413d2d738147c7d55,61036f5e3870dce2f2b6666d,2021-07-29_23h19.21.678,Simcolourproject_2stim_asymm_v5,2020.2.10,MacIntel,60,61025ae37ef11b136ea224fe,,,,,,,,,1419,65,-22,1,0,1,response3disk,,5,6,0,1,0,1,rectangle,6,0,1,0,1,6,0,1,0,1,0,84,84,126,1,,,,,,,,
,,,,,,,,,,,,,FF,,,,,,,,0.768,,,,,,,,,,,,,,,,,,,,,,60fcd99413d2d738147c7d55,61036f5e3870dce2f2b6666d,2021-07-29_23h19.21.678,Simcolourproject_2stim_asymm_v5,2020.2.10,MacIntel,60,61025ae37ef11b136ea224fe,,,,,,,,,3242,74,35,1,0,1,response1disk,,6,-4,-18,1,0,1,rectangle,-4,-18,1,0,1,-4,-18,1,0,1,0,85,85,67,1,,,,,,,,
,,,,,,,,,,,,,FF,,,,,,,,0.733,,,,,,,,,,,,,,,,,,,,,,60fcd99413d2d738147c7d55,61036f5e3870dce2f2b6666d,2021-07-29_23h19.21.678,Simcolourproject_2stim_asymm_v5,2020.2.10,MacIntel,60,61025ae37ef11b136ea224fe,,,,,,,,,1316,76,34,1,0,1,response1disk,,6,18,-6,1,0,1,rectangle,18,-6,1,0,1,18,-6,1,0,1,0,86,86,65,1,,,,,,,,
,,,,,,,,,,,,,FF,,,,,,,,1.684,,,,,,,,,,,,,,,,,,,,,,60fcd99413d2d738147c7d55,61036f5e3870dce2f2b6666d,2021-07-29_23h19.21.678,Simcolourproject_2stim_asymm_v5,2020.2.10,MacIntel,60,61025ae37ef11b136ea224fe,,,,,,,,,1577,64,-32,1,0,1,response3disk,,5,-9,0,1,0,1,rectangle,-9,0,1,0,1,-9,0,1,0,1,0,87,87,82,1,,,,,,,,
,,,,,,,,,,,,,FF,,,,,,,,1.15,,,,,,,,,,,,,,,,,,,,,,60fcd99413d2d738147c7d55,61036f5e3870dce2f2b6666d,2021-07-29_23h19.21.678,Simcolourproject_2stim_asymm_v5,2020.2.10,MacIntel,60,61025ae37ef11b136ea224fe,,,,,,,,,933,60,43,1,0,1,response1disk,,6,9,5,1,0,1,rectangle,9,5,1,0,1,9,5,1,0,1,0,88,88,110,1,,,,,,,,
,,,,,,,,,,,,,FF,,,,,,,,0.885,,,,,,,,,,,,,,,,,,,,,,60fcd99413d2d738147c7d55,61036f5e3870dce2f2b6666d,2021-07-29_23h19.21.678,Simcolourproject_2stim_asymm_v5,2020.2.10,MacIntel,60,61025ae37ef11b136ea224fe,,,,,,,,,2606,-50,-19,1,0,1,response5disk,,2,9,-5,1,0,1,rectangle,9,-5,1,0,1,9,-5,1,0,1,0,89,89,20,1,,,,,,,,
,,,,,,,,,,,,,FF,,,,,,,,2.234,,,,,,,,,,,,,,,,,,,,,,60fcd99413d2d738147c7d55,61036f5e3870dce2f2b6666d,2021-07-29_23h19.21.678,Simcolourproject_2stim_asymm_v5,2020.2.10,MacIntel,60,61025ae37ef11b136ea224fe,,,,,,,,,3354,57,-21,1,0,1,response3disk,,5,-4,1,1,0,1,rectangle,-4,1,1,0,1,-4,1,1,0,1,0,90,90,85,1,,,,,,,,
,,,,,,,,,,,,,FF,,,,,,,,0.917,,,,,,,,,,,,,,,,,,,,,,60fcd99413d2d738147c7d55,61036f5e3870dce2f2b6666d,2021-07-29_23h19.21.678,Simcolourproject_2stim_asymm_v5,2020.2.10,MacIntel,60,61025ae37ef11b136ea224fe,,,,,,,,,4272,42,73,1,0,1,response1disk,,7,8,9,1,0,1,rectangle,8,9,1,0,1,8,9,1,0,1,0,91,91,142,1,,,,,,,,
,,,,,,,,,,,,,FF,,,,,,,,1.1,,,,,,,,,,,,,,,,,,,,,,60fcd99413d2d738147c7d55,61036f5e3870dce2f2b6666d,2021-07-29_23h19.21.678,Simcolourproject_2stim_asymm_v5,2020.2.10,MacIntel,60,61025ae37ef11b136ea224fe,,,,,,,,,2982,63,31,1,0,1,response1disk,,6,18,2,1,0,1,rectangle,18,2,1,0,1,18,2,1,0,1,0,92,92,5,1,,,,,,,,
,,,,,,,,,,,,,FF,,,,,,,,1.117,,,,,,,,,,,,,,,,,,,,,,60fcd99413d2d738147c7d55,61036f5e3870dce2f2b6666d,2021-07-29_23h19.21.678,Simcolourproject_2stim_asymm_v5,2020.2.10,MacIntel,60,61025ae37ef11b136ea224fe,,,,,,,,,2073,37,71,1,0,1,response1disk,,7,8,14,1,0,1,rectangle,8,14,1,0,1,8,14,1,0,1,0,93,93,35,1,,,,,,,,
,,,,,,,,,,,,,FF,,,,,,,,1.7,,,,,,,,,,,,,,,,,,,,,,60fcd99413d2d738147c7d55,61036f5e3870dce2f2b6666d,2021-07-29_23h19.21.678,Simcolourproject_2stim_asymm_v5,2020.2.10,MacIntel,60,61025ae37ef11b136ea224fe,,,,,,,,,1112,81,-25,1,0,1,response3disk,,5,-8,3,1,0,1,rectangle,-8,3,1,0,1,-8,3,1,0,1,0,94,94,69,1,,,,,,,,
,,,,,,,,,,,,,FF,,,,,,,,1.05,,,,,,,,,,,,,,,,,,,,,,60fcd99413d2d738147c7d55,61036f5e3870dce2f2b6666d,2021-07-29_23h19.21.678,Simcolourproject_2stim_asymm_v5,2020.2.10,MacIntel,60,61025ae37ef11b136ea224fe,,,,,,,,,2254,51,-55,1,0,1,response3disk,,4,24,0,1,0,1,rectangle,24,0,1,0,1,24,0,1,0,1,0,95,95,127,1,,,,,,,,
,,,,,,,,,,,,,FF,,,,,,,,0.899,,,,,,,,,,,,,,,,,,,,,,60fcd99413d2d738147c7d55,61036f5e3870dce2f2b6666d,2021-07-29_23h19.21.678,Simcolourproject_2stim_asymm_v5,2020.2.10,MacIntel,60,61025ae37ef11b136ea224fe,,,,,,,,,1125,64,41,1,0,1,response1disk,,6,14,2,1,0,1,rectangle,14,2,1,0,1,14,2,1,0,1,0,96,96,133,1,,,,,,,,
,,,,,,,,,,,,,FF,,,,,,,,0.901,,,,,,,,,,,,,,,,,,,,,,60fcd99413d2d738147c7d55,61036f5e3870dce2f2b6666d,2021-07-29_23h19.21.678,Simcolourproject_2stim_asymm_v5,2020.2.10,MacIntel,60,61025ae37ef11b136ea224fe,,,,,,,,,2669,-67,-35,1,0,1,response5disk,,2,1,1,1,0,1,rectangle,1,1,1,0,1,1,1,1,0,1,0,97,97,51,1,,,,,,,,
,,,,,,,,,,,,,FF,,,,,,,,0.8,,,,,,,,,,,,,,,,,,,,,,60fcd99413d2d738147c7d55,61036f5e3870dce2f2b6666d,2021-07-29_23h19.21.678,Simcolourproject_2stim_asymm_v5,2020.2.10,MacIntel,60,61025ae37ef11b136ea224fe,,,,,,,,,3104,-61,20,1,0,1,response7disk,,1,-2,-6,1,0,1,rectangle,-2,-6,1,0,1,-2,-6,1,0,1,0,98,98,63,1,,,,,,,,
,,,,,,,,,,,,,FF,,,,,,,,0.749,,,,,,,,,,,,,,,,,,,,,,60fcd99413d2d738147c7d55,61036f5e3870dce2f2b6666d,2021-07-29_23h19.21.678,Simcolourproject_2stim_asymm_v5,2020.2.10,MacIntel,60,61025ae37ef11b136ea224fe,,,,,,,,,279,-65,-39,1,0,1,response5disk,,2,10,-3,1,0,1,rectangle,10,-3,1,0,1,10,-3,1,0,1,0,99,99,139,1,,,,,,,,
,,,,,,,,,,,,,FF,,,,,,,,0.766,,,,,,,,,,,,,,,,,,,,,,60fcd99413d2d738147c7d55,61036f5e3870dce2f2b6666d,2021-07-29_23h19.21.678,Simcolourproject_2stim_asymm_v5,2020.2.10,MacIntel,60,61025ae37ef11b136ea224fe,,,,,,,,,4050,-26,-57,1,0,1,response5disk,,3,6,-7,1,0,1,rectangle,6,-7,1,0,1,6,-7,1,0,1,0,100,100,47,1,,,,,,,,
,,,,,,,,,,,,,FF,,,,,,,,0.734,,,,,,,,,,,,,,,,,,,,,,60fcd99413d2d738147c7d55,61036f5e3870dce2f2b6666d,2021-07-29_23h19.21.678,Simcolourproject_2stim_asymm_v5,2020.2.10,MacIntel,60,61025ae37ef11b136ea224fe,,,,,,,,,3439,-67,-23,1,0,1,response5disk,,2,-14,8,1,0,1,rectangle,-14,8,1,0,1,-14,8,1,0,1,0,101,101,148,1,,,,,,,,
,,,,,,,,,,,,,FF,,,,,,,,0.851,,,,,,,,,,,,,,,,,,,,,,60fcd99413d2d738147c7d55,61036f5e3870dce2f2b6666d,2021-07-29_23h19.21.678,Simcolourproject_2stim_asymm_v5,2020.2.10,MacIntel,60,61025ae37ef11b136ea224fe,,,,,,,,,2591,73,36,1,0,1,response1disk,,6,15,-6,1,0,1,rectangle,15,-6,1,0,1,15,-6,1,0,1,0,102,102,3,1,,,,,,,,
,,,,,,,,,,,,,FF,,,,,,,,1.184,,,,,,,,,,,,,,,,,,,,,,60fcd99413d2d738147c7d55,61036f5e3870dce2f2b6666d,2021-07-29_23h19.21.678,Simcolourproject_2stim_asymm_v5,2020.2.10,MacIntel,60,61025ae37ef11b136ea224fe,,,,,,,,,3235,58,-36,1,0,1,response3disk,,5,23,-13,1,0,1,rectangle,23,-13,1,0,1,23,-13,1,0,1,0,103,103,53,1,,,,,,,,
,,,,,,,,,,,,,FF,,,,,,,,0.884,,,,,,,,,,,,,,,,,,,,,,60fcd99413d2d738147c7d55,61036f5e3870dce2f2b6666d,2021-07-29_23h19.21.678,Simcolourproject_2stim_asymm_v5,2020.2.10,MacIntel,60,61025ae37ef11b136ea224fe,,,,,,,,,3021,26,-36,1,0,1,response3disk,,4,5,-5,1,0,1,rectangle,5,-5,1,0,1,5,-5,1,0,1,0,104,104,36,1,,,,,,,,
,,,,,,,,,,,,,FF,,,,,,,,0.768,,,,,,,,,,,,,,,,,,,,,,60fcd99413d2d738147c7d55,61036f5e3870dce2f2b6666d,2021-07-29_23h19.21.678,Simcolourproject_2stim_asymm_v5,2020.2.10,MacIntel,60,61025ae37ef11b136ea224fe,,,,,,,,,3374,-52,-29,1,0,1,response5disk,,2,10,6,1,0,1,rectangle,10,6,1,0,1,10,6,1,0,1,0,105,105,11,1,,,,,,,,
,,,,,,,,,,,,,FF,,,,,,,,1.033,,,,,,,,,,,,,,,,,,,,,,60fcd99413d2d738147c7d55,61036f5e3870dce2f2b6666d,2021-07-29_23h19.21.678,Simcolourproject_2stim_asymm_v5,2020.2.10,MacIntel,60,61025ae37ef11b136ea224fe,,,,,,,,,2817,65,31,1,0,1,response1disk,,6,8,9,1,0,1,rectangle,8,9,1,0,1,8,9,1,0,1,0,106,106,25,1,,,,,,,,
,,,,,,,,,,,,,FF,,,,,,,,0.7,,,,,,,,,,,,,,,,,,,,,,60fcd99413d2d738147c7d55,61036f5e3870dce2f2b6666d,2021-07-29_23h19.21.678,Simcolourproject_2stim_asymm_v5,2020.2.10,MacIntel,60,61025ae37ef11b136ea224fe,,,,,,,,,397,57,29,1,0,1,response1disk,,6,7,16,1,0,1,rectangle,7,16,1,0,1,7,16,1,0,1,0,107,107,81,1,,,,,,,,
,,,,,,,,,,,,,FF,,,,,,,,1.016,,,,,,,,,,,,,,,,,,,,,,60fcd99413d2d738147c7d55,61036f5e3870dce2f2b6666d,2021-07-29_23h19.21.678,Simcolourproject_2stim_asymm_v5,2020.2.10,MacIntel,60,61025ae37ef11b136ea224fe,,,,,,,,,1355,64,41,1,0,1,response1disk,,6,2,-7,1,0,1,rectangle,2,-7,1,0,1,2,-7,1,0,1,0,108,108,57,1,,,,,,,,
,,,,,,,,,,,,,FF,,,,,,,,1.266,,,,,,,,,,,,,,,,,,,,,,60fcd99413d2d738147c7d55,61036f5e3870dce2f2b6666d,2021-07-29_23h19.21.678,Simcolourproject_2stim_asymm_v5,2020.2.10,MacIntel,60,61025ae37ef11b136ea224fe,,,,,,,,,1793,74,35,1,0,1,response1disk,,6,0,3,1,0,1,rectangle,0,3,1,0,1,0,3,1,0,1,0,109,109,93,1,,,,,,,,
,,,,,,,,,,,,,FF,,,,,,,,1.785,,,,,,,,,,,,,,,,,,,,,,60fcd99413d2d738147c7d55,61036f5e3870dce2f2b6666d,2021-07-29_23h19.21.678,Simcolourproject_2stim_asymm_v5,2020.2.10,MacIntel,60,61025ae37ef11b136ea224fe,,,,,,,,,2154,68,-38,1,0,1,response3disk,,5,5,0,1,0,1,rectangle,5,0,1,0,1,5,0,1,0,1,0,110,110,134,1,,,,,,,,
,,,,,,,,,,,,,FF,,,,,,,,1.667,,,,,,,,,,,,,,,,,,,,,,60fcd99413d2d738147c7d55,61036f5e3870dce2f2b6666d,2021-07-29_23h19.21.678,Simcolourproject_2stim_asymm_v5,2020.2.10,MacIntel,60,61025ae37ef11b136ea224fe,,,,,,,,,3549,-37,-72,1,0,1,response5disk,,3,-1,9,1,0,1,rectangle,-1,9,1,0,1,-1,9,1,0,1,0,111,111,78,1,,,,,,,,
,,,,,,,,,,,,,FF,,,,,,,,0.8,,,,,,,,,,,,,,,,,,,,,,60fcd99413d2d738147c7d55,61036f5e3870dce2f2b6666d,2021-07-29_23h19.21.678,Simcolourproject_2stim_asymm_v5,2020.2.10,MacIntel,60,61025ae37ef11b136ea224fe,,,,,,,,,893,-66,-29,1,0,1,response5disk,,2,-10,-9,1,0,1,rectangle,-10,-9,1,0,1,-10,-9,1,0,1,0,112,112,95,1,,,,,,,,
,,,,,,,,,,,,,FF,,,,,,,,0.667,,,,,,,,,,,,,,,,,,,,,,60fcd99413d2d738147c7d55,61036f5e3870dce2f2b6666d,2021-07-29_23h19.21.678,Simcolourproject_2stim_asymm_v5,2020.2.10,MacIntel,60,61025ae37ef11b136ea224fe,,,,,,,,,4335,-26,64,1,0,1,response7disk,,0,5,5,1,0,1,rectangle,5,5,1,0,1,5,5,1,0,1,0,113,113,149,1,,,,,,,,
,,,,,,,,,,,,,FF,,,,,,,,1.583,,,,,,,,,,,,,,,,,,,,,,60fcd99413d2d738147c7d55,61036f5e3870dce2f2b6666d,2021-07-29_23h19.21.678,Simcolourproject_2stim_asymm_v5,2020.2.10,MacIntel,60,61025ae37ef11b136ea224fe,,,,,,,,,3764,69,-29,1,0,1,response3disk,,5,11,-1,1,0,1,rectangle,11,-1,1,0,1,11,-1,1,0,1,0,114,114,45,1,,,,,,,,
,,,,,,,,,,,,,FF,,,,,,,,0.75,,,,,,,,,,,,,,,,,,,,,,60fcd99413d2d738147c7d55,61036f5e3870dce2f2b6666d,2021-07-29_23h19.21.678,Simcolourproject_2stim_asymm_v5,2020.2.10,MacIntel,60,61025ae37ef11b136ea224fe,,,,,,,,,927,31,71,1,0,1,response1disk,,7,6,-4,1,0,1,rectangle,6,-4,1,0,1,6,-4,1,0,1,0,115,115,24,1,,,,,,,,
,,,,,,,,,,,,,FF,,,,,,,,1.735,,,,,,,,,,,,,,,,,,,,,,60fcd99413d2d738147c7d55,61036f5e3870dce2f2b6666d,2021-07-29_23h19.21.678,Simcolourproject_2stim_asymm_v5,2020.2.10,MacIntel,60,61025ae37ef11b136ea224fe,,,,,,,,,289,42,-76,1,0,1,response3disk,,4,-5,-1,1,0,1,rectangle,-5,-1,1,0,1,-5,-1,1,0,1,0,116,116,94,1,,,,,,,,
,,,,,,,,,,,,,FF,,,,,,,,0.817,,,,,,,,,,,,,,,,,,,,,,60fcd99413d2d738147c7d55,61036f5e3870dce2f2b6666d,2021-07-29_23h19.21.678,Simcolourproject_2stim_asymm_v5,2020.2.10,MacIntel,60,61025ae37ef11b136ea224fe,,,,,,,,,3174,38,-57,1,0,1,response3disk,,4,9,-2,1,0,1,rectangle,9,-2,1,0,1,9,-2,1,0,1,0,117,117,41,1,,,,,,,,
,,,,,,,,,,,,,FF,,,,,,,,0.851,,,,,,,,,,,,,,,,,,,,,,60fcd99413d2d738147c7d55,61036f5e3870dce2f2b6666d,2021-07-29_23h19.21.678,Simcolourproject_2stim_asymm_v5,2020.2.10,MacIntel,60,61025ae37ef11b136ea224fe,,,,,,,,,2242,-55,-39,1,0,1,response5disk,,2,10,0,1,0,1,rectangle,10,0,1,0,1,10,0,1,0,1,0,118,118,123,1,,,,,,,,
,,,,,,,,,,,,,FF,,,,,,,,0.935,,,,,,,,,,,,,,,,,,,,,,60fcd99413d2d738147c7d55,61036f5e3870dce2f2b6666d,2021-07-29_23h19.21.678,Simcolourproject_2stim_asymm_v5,2020.2.10,MacIntel,60,61025ae37ef11b136ea224fe,,,,,,,,,2179,48,-62,1,0,1,response3disk,,4,15,-4,1,0,1,rectangle,15,-4,1,0,1,15,-4,1,0,1,0,119,119,156,1,,,,,,,,
,,,,,,,,,,,,,FF,,,,,,,,0.884,,,,,,,,,,,,,,,,,,,,,,60fcd99413d2d738147c7d55,61036f5e3870dce2f2b6666d,2021-07-29_23h19.21.678,Simcolourproject_2stim_asymm_v5,2020.2.10,MacIntel,60,61025ae37ef11b136ea224fe,,,,,,,,,2667,-61,38,1,0,1,response7disk,,1,3,4,1,0,1,rectangle,75,42,1,0,1,11,10,1,0,1,0,120,120,29,1,,response1disk_3,TRUE,6,6,"[9,70,185,185,13,234,222,138,294,137,249,303,2,274,241,121,61,293,309,217]",1.463,rectangle
,,,,,,,,,,,,,FF,,,,,,,,1.717,,,,,,,,,,,,,,,,,,,,,,60fcd99413d2d738147c7d55,61036f5e3870dce2f2b6666d,2021-07-29_23h19.21.678,Simcolourproject_2stim_asymm_v5,2020.2.10,MacIntel,60,61025ae37ef11b136ea224fe,,,,,,,,,999,-20,-52,1,0,1,response5disk,,3,16,-12,1,0,1,rectangle,16,-12,1,0,1,16,-12,1,0,1,0,121,121,64,1,,,,,,,,
,,,,,,,,,,,,,FF,,,,,,,,1.133,,,,,,,,,,,,,,,,,,,,,,60fcd99413d2d738147c7d55,61036f5e3870dce2f2b6666d,2021-07-29_23h19.21.678,Simcolourproject_2stim_asymm_v5,2020.2.10,MacIntel,60,61025ae37ef11b136ea224fe,,,,,,,,,3682,-33,-70,1,0,1,response5disk,,3,2,5,1,0,1,rectangle,2,5,1,0,1,2,5,1,0,1,0,122,122,105,1,,,,,,,,
,,,,,,,,,,,,,FF,,,,,,,,0.834,,,,,,,,,,,,,,,,,,,,,,60fcd99413d2d738147c7d55,61036f5e3870dce2f2b6666d,2021-07-29_23h19.21.678,Simcolourproject_2stim_asymm_v5,2020.2.10,MacIntel,60,61025ae37ef11b136ea224fe,,,,,,,,,519,27,-63,1,0,1,response3disk,,4,5,-5,1,0,1,rectangle,5,-5,1,0,1,5,-5,1,0,1,0,123,123,89,1,,,,,,,,
,,,,,,,,,,,,,FF,,,,,,,,0.85,,,,,,,,,,,,,,,,,,,,,,60fcd99413d2d738147c7d55,61036f5e3870dce2f2b6666d,2021-07-29_23h19.21.678,Simcolourproject_2stim_asymm_v5,2020.2.10,MacIntel,60,61025ae37ef11b136ea224fe,,,,,,,,,47,57,66,1,0,1,response1disk,,7,2,0,1,0,1,rectangle,2,0,1,0,1,2,0,1,0,1,0,124,124,131,1,,,,,,,,
,,,,,,,,,,,,,FF,,,,,,,,1.366,,,,,,,,,,,,,,,,,,,,,,60fcd99413d2d738147c7d55,61036f5e3870dce2f2b6666d,2021-07-29_23h19.21.678,Simcolourproject_2stim_asymm_v5,2020.2.10,MacIntel,60,61025ae37ef11b136ea224fe,,,,,,,,,521,57,23,1,0,1,response1disk,,6,10,2,1,0,1,rectangle,10,2,1,0,1,10,2,1,0,1,0,125,125,158,1,,,,,,,,
,,,,,,,,,,,,,FF,,,,,,,,0.8,,,,,,,,,,,,,,,,,,,,,,60fcd99413d2d738147c7d55,61036f5e3870dce2f2b6666d,2021-07-29_23h19.21.678,Simcolourproject_2stim_asymm_v5,2020.2.10,MacIntel,60,61025ae37ef11b136ea224fe,,,,,,,,,75,51,-68,1,0,1,response3disk,,4,18,1,1,0,1,rectangle,18,1,1,0,1,18,1,1,0,1,0,126,126,145,1,,,,,,,,
,,,,,,,,,,,,,FF,,,,,,,,0.75,,,,,,,,,,,,,,,,,,,,,,60fcd99413d2d738147c7d55,61036f5e3870dce2f2b6666d,2021-07-29_23h19.21.678,Simcolourproject_2stim_asymm_v5,2020.2.10,MacIntel,60,61025ae37ef11b136ea224fe,,,,,,,,,503,36,54,1,0,1,response1disk,,7,3,-13,1,0,1,rectangle,3,-13,1,0,1,3,-13,1,0,1,0,127,127,23,1,,,,,,,,
,,,,,,,,,,,,,FF,,,,,,,,1.185,,,,,,,,,,,,,,,,,,,,,,60fcd99413d2d738147c7d55,61036f5e3870dce2f2b6666d,2021-07-29_23h19.21.678,Simcolourproject_2stim_asymm_v5,2020.2.10,MacIntel,60,61025ae37ef11b136ea224fe,,,,,,,,,3076,42,61,1,0,1,response1disk,,7,19,5,1,0,1,rectangle,19,5,1,0,1,19,5,1,0,1,0,128,128,2,1,,,,,,,,
,,,,,,,,,,,,,FF,,,,,,,,0.601,,,,,,,,,,,,,,,,,,,,,,60fcd99413d2d738147c7d55,61036f5e3870dce2f2b6666d,2021-07-29_23h19.21.678,Simcolourproject_2stim_asymm_v5,2020.2.10,MacIntel,60,61025ae37ef11b136ea224fe,,,,,,,,,1715,26,69,1,0,1,response1disk,,7,7,2,1,0,1,rectangle,7,2,1,0,1,7,2,1,0,1,0,129,129,17,1,,,,,,,,
,,,,,,,,,,,,,FF,,,,,,,,0.568,,,,,,,,,,,,,,,,,,,,,,60fcd99413d2d738147c7d55,61036f5e3870dce2f2b6666d,2021-07-29_23h19.21.678,Simcolourproject_2stim_asymm_v5,2020.2.10,MacIntel,60,61025ae37ef11b136ea224fe,,,,,,,,,3401,80,36,1,0,1,response1disk,,6,11,-8,1,0,1,rectangle,11,-8,1,0,1,11,-8,1,0,1,0,130,130,49,1,,,,,,,,
,,,,,,,,,,,,,FF,,,,,,,,0.599,,,,,,,,,,,,,,,,,,,,,,60fcd99413d2d738147c7d55,61036f5e3870dce2f2b6666d,2021-07-29_23h19.21.678,Simcolourproject_2stim_asymm_v5,2020.2.10,MacIntel,60,61025ae37ef11b136ea224fe,,,,,,,,,4133,75,34,1,0,1,response1disk,,6,18,13,1,0,1,rectangle,18,13,1,0,1,18,13,1,0,1,0,131,131,130,1,,,,,,,,
,,,,,,,,,,,,,FF,,,,,,,,0.817,,,,,,,,,,,,,,,,,,,,,,60fcd99413d2d738147c7d55,61036f5e3870dce2f2b6666d,2021-07-29_23h19.21.678,Simcolourproject_2stim_asymm_v5,2020.2.10,MacIntel,60,61025ae37ef11b136ea224fe,,,,,,,,,4295,-55,-30,1,0,1,response5disk,,2,21,1,1,0,1,rectangle,21,1,1,0,1,21,1,1,0,1,0,132,132,26,1,,,,,,,,
,,,,,,,,,,,,,FF,,,,,,,,2.867,,,,,,,,,,,,,,,,,,,,,,60fcd99413d2d738147c7d55,61036f5e3870dce2f2b6666d,2021-07-29_23h19.21.678,Simcolourproject_2stim_asymm_v5,2020.2.10,MacIntel,60,61025ae37ef11b136ea224fe,,,,,,,,,3681,68,-26,1,0,1,response3disk,,5,17,-4,1,0,1,rectangle,17,-4,1,0,1,17,-4,1,0,1,0,133,133,21,1,,,,,,,,
,,,,,,,,,,,,,FF,,,,,,,,0.832,,,,,,,,,,,,,,,,,,,,,,60fcd99413d2d738147c7d55,61036f5e3870dce2f2b6666d,2021-07-29_23h19.21.678,Simcolourproject_2stim_asymm_v5,2020.2.10,MacIntel,60,61025ae37ef11b136ea224fe,,,,,,,,,2293,-33,-58,1,0,1,response5disk,,3,13,-1,1,0,1,rectangle,13,-1,1,0,1,13,-1,1,0,1,0,134,134,62,1,,,,,,,,
,,,,,,,,,,,,,FF,,,,,,,,0.967,,,,,,,,,,,,,,,,,,,,,,60fcd99413d2d738147c7d55,61036f5e3870dce2f2b6666d,2021-07-29_23h19.21.678,Simcolourproject_2stim_asymm_v5,2020.2.10,MacIntel,60,61025ae37ef11b136ea224fe,,,,,,,,,472,85,47,1,0,1,response1disk,,6,4,4,1,0,1,rectangle,4,4,1,0,1,4,4,1,0,1,0,135,135,32,1,,,,,,,,
,,,,,,,,,,,,,FF,,,,,,,,0.851,,,,,,,,,,,,,,,,,,,,,,60fcd99413d2d738147c7d55,61036f5e3870dce2f2b6666d,2021-07-29_23h19.21.678,Simcolourproject_2stim_asymm_v5,2020.2.10,MacIntel,60,61025ae37ef11b136ea224fe,,,,,,,,,1274,42,-71,1,0,1,response3disk,,4,11,-16,1,0,1,rectangle,-66,-21,1,0,1,8,2,1,0,1,0,136,136,39,1,,response5disk_3,TRUE,2,2,"[9,70,185,185,13,234,222,138,294,137,249,303,2,274,241,121,61,293,309,217]",2.551,rectangle
,,,,,,,,,,,,,FF,,,,,,,,0.833,,,,,,,,,,,,,,,,,,,,,,60fcd99413d2d738147c7d55,61036f5e3870dce2f2b6666d,2021-07-29_23h19.21.678,Simcolourproject_2stim_asymm_v5,2020.2.10,MacIntel,60,61025ae37ef11b136ea224fe,,,,,,,,,743,29,-44,1,0,1,response3disk,,4,-1,0,1,0,1,rectangle,33,78,1,0,1,6,-1,1,0,1,0,137,137,8,1,,response1disk_3,TRUE,7,7,"[9,70,185,185,13,234,222,138,294,137,249,303,2,274,241,121,61,293,309,217]",1.502,rectangle
,,,,,,,,,,,,,FF,,,,,,,,2.866,,,,,,,,,,,,,,,,,,,,,,60fcd99413d2d738147c7d55,61036f5e3870dce2f2b6666d,2021-07-29_23h19.21.678,Simcolourproject_2stim_asymm_v5,2020.2.10,MacIntel,60,61025ae37ef11b136ea224fe,,,,,,,,,374,-68,-20,1,0,1,response5disk,,2,-17,5,1,0,1,rectangle,-17,5,1,0,1,-17,5,1,0,1,0,138,138,118,1,,,,,,,,
,,,,,,,,,,,,,FF,,,,,,,,1.165,,,,,,,,,,,,,,,,,,,,,,60fcd99413d2d738147c7d55,61036f5e3870dce2f2b6666d,2021-07-29_23h19.21.678,Simcolourproject_2stim_asymm_v5,2020.2.10,MacIntel,60,61025ae37ef11b136ea224fe,,,,,,,,,2589,60,-33,1,0,1,response3disk,,5,4,-10,1,0,1,rectangle,4,-10,1,0,1,4,-10,1,0,1,0,139,139,56,1,,,,,,,,
,,,,,,,,,,,,,FF,,,,,,,,0.667,,,,,,,,,,,,,,,,,,,,,,60fcd99413d2d738147c7d55,61036f5e3870dce2f2b6666d,2021-07-29_23h19.21.678,Simcolourproject_2stim_asymm_v5,2020.2.10,MacIntel,60,61025ae37ef11b136ea224fe,,,,,,,,,4210,58,32,1,0,1,response1disk,,6,5,2,1,0,1,rectangle,5,2,1,0,1,5,2,1,0,1,0,140,140,154,1,,,,,,,,
,,,,,,,,,,,,,FF,,,,,,,,0.716,,,,,,,,,,,,,,,,,,,,,,60fcd99413d2d738147c7d55,61036f5e3870dce2f2b6666d,2021-07-29_23h19.21.678,Simcolourproject_2stim_asymm_v5,2020.2.10,MacIntel,60,61025ae37ef11b136ea224fe,,,,,,,,,3283,-62,-25,1,0,1,response5disk,,2,5,3,1,0,1,rectangle,5,3,1,0,1,5,3,1,0,1,0,141,141,58,1,,,,,,,,
,,,,,,,,,,,,,FF,,,,,,,,0.867,,,,,,,,,,,,,,,,,,,,,,60fcd99413d2d738147c7d55,61036f5e3870dce2f2b6666d,2021-07-29_23h19.21.678,Simcolourproject_2stim_asymm_v5,2020.2.10,MacIntel,60,61025ae37ef11b136ea224fe,,,,,,,,,305,80,27,1,0,1,response1disk,,6,11,4,1,0,1,rectangle,11,4,1,0,1,11,4,1,0,1,0,142,142,102,1,,,,,,,,
,,,,,,,,,,,,,FF,,,,,,,,1.15,,,,,,,,,,,,,,,,,,,,,,60fcd99413d2d738147c7d55,61036f5e3870dce2f2b6666d,2021-07-29_23h19.21.678,Simcolourproject_2stim_asymm_v5,2020.2.10,MacIntel,60,61025ae37ef11b136ea224fe,,,,,,,,,882,66,-25,1,0,1,response3disk,,5,6,-6,1,0,1,rectangle,6,-6,1,0,1,6,-6,1,0,1,0,143,143,132,1,,,,,,,,
,,,,,,,,,,,,,FF,,,,,,,,0.9,,,,,,,,,,,,,,,,,,,,,,60fcd99413d2d738147c7d55,61036f5e3870dce2f2b6666d,2021-07-29_23h19.21.678,Simcolourproject_2stim_asymm_v5,2020.2.10,MacIntel,60,61025ae37ef11b136ea224fe,,,,,,,,,4063,44,78,1,0,1,response1disk,,7,3,3,1,0,1,rectangle,3,3,1,0,1,3,3,1,0,1,0,144,144,48,1,,,,,,,,
,,,,,,,,,,,,,FF,,,,,,,,0.95,,,,,,,,,,,,,,,,,,,,,,60fcd99413d2d738147c7d55,61036f5e3870dce2f2b6666d,2021-07-29_23h19.21.678,Simcolourproject_2stim_asymm_v5,2020.2.10,MacIntel,60,61025ae37ef11b136ea224fe,,,,,,,,,883,76,-32,1,0,1,response3disk,,5,-2,4,1,0,1,rectangle,-2,4,1,0,1,-2,4,1,0,1,0,145,145,124,1,,,,,,,,
,,,,,,,,,,,,,FF,,,,,,,,0.866,,,,,,,,,,,,,,,,,,,,,,60fcd99413d2d738147c7d55,61036f5e3870dce2f2b6666d,2021-07-29_23h19.21.678,Simcolourproject_2stim_asymm_v5,2020.2.10,MacIntel,60,61025ae37ef11b136ea224fe,,,,,,,,,1775,57,-16,1,0,1,response3disk,,5,12,5,1,0,1,rectangle,12,5,1,0,1,12,5,1,0,1,0,146,146,13,1,,,,,,,,
,,,,,,,,,,,,,FF,,,,,,,,0.682,,,,,,,,,,,,,,,,,,,,,,60fcd99413d2d738147c7d55,61036f5e3870dce2f2b6666d,2021-07-29_23h19.21.678,Simcolourproject_2stim_asymm_v5,2020.2.10,MacIntel,60,61025ae37ef11b136ea224fe,,,,,,,,,2282,41,60,1,0,1,response1disk,,7,2,-5,1,0,1,rectangle,2,-5,1,0,1,2,-5,1,0,1,0,147,147,27,1,,,,,,,,
,,,,,,,,,,,,,FF,,,,,,,,1.184,,,,,,,,,,,,,,,,,,,,,,60fcd99413d2d738147c7d55,61036f5e3870dce2f2b6666d,2021-07-29_23h19.21.678,Simcolourproject_2stim_asymm_v5,2020.2.10,MacIntel,60,61025ae37ef11b136ea224fe,,,,,,,,,2602,66,-39,1,0,1,response3disk,,5,-8,1,1,0,1,rectangle,-8,1,1,0,1,-8,1,1,0,1,0,148,148,61,1,,,,,,,,
,,,,,,,,,,,,,FF,,,,,,,,1.167,,,,,,,,,,,,,,,,,,,,,,60fcd99413d2d738147c7d55,61036f5e3870dce2f2b6666d,2021-07-29_23h19.21.678,Simcolourproject_2stim_asymm_v5,2020.2.10,MacIntel,60,61025ae37ef11b136ea224fe,,,,,,,,,3484,64,32,1,0,1,response1disk,,6,-13,6,1,0,1,rectangle,-13,6,1,0,1,-13,6,1,0,1,0,149,149,77,1,,,,,,,,
,,,,,,,,,,,,,FF,,,,,,,,0.617,,,,,,,,,,,,,,,,,,,,,,60fcd99413d2d738147c7d55,61036f5e3870dce2f2b6666d,2021-07-29_23h19.21.678,Simcolourproject_2stim_asymm_v5,2020.2.10,MacIntel,60,61025ae37ef11b136ea224fe,,,,,,,,,2862,80,41,1,0,1,response1disk,,6,5,1,1,0,1,rectangle,5,1,1,0,1,5,1,1,0,1,0,150,150,14,1,,,,,,,,
,,,,,,,,,,,,,FF,,,,,,,,0.649,,,,,,,,,,,,,,,,,,,,,,60fcd99413d2d738147c7d55,61036f5e3870dce2f2b6666d,2021-07-29_23h19.21.678,Simcolourproject_2stim_asymm_v5,2020.2.10,MacIntel,60,61025ae37ef11b136ea224fe,,,,,,,,,341,82,40,1,0,1,response1disk,,6,-2,-3,1,0,1,rectangle,-2,-3,1,0,1,-2,-3,1,0,1,0,151,151,6,1,,,,,,,,
,,,,,,,,,,,,,FF,,,,,,,,0.801,,,,,,,,,,,,,,,,,,,,,,60fcd99413d2d738147c7d55,61036f5e3870dce2f2b6666d,2021-07-29_23h19.21.678,Simcolourproject_2stim_asymm_v5,2020.2.10,MacIntel,60,61025ae37ef11b136ea224fe,,,,,,,,,1935,57,-30,1,0,1,response3disk,,5,9,5,1,0,1,rectangle,9,5,1,0,1,9,5,1,0,1,0,152,152,46,1,,,,,,,,
,,,,,,,,,,,,,FF,,,,,,,,1.15,,,,,,,,,,,,,,,,,,,,,,60fcd99413d2d738147c7d55,61036f5e3870dce2f2b6666d,2021-07-29_23h19.21.678,Simcolourproject_2stim_asymm_v5,2020.2.10,MacIntel,60,61025ae37ef11b136ea224fe,,,,,,,,,810,-76,-35,1,0,1,response5disk,,2,-13,3,1,0,1,rectangle,-13,3,1,0,1,-13,3,1,0,1,0,153,153,159,1,,,,,,,,
,,,,,,,,,,,,,FF,,,,,,,,1.449,,,,,,,,,,,,,,,,,,,,,,60fcd99413d2d738147c7d55,61036f5e3870dce2f2b6666d,2021-07-29_23h19.21.678,Simcolourproject_2stim_asymm_v5,2020.2.10,MacIntel,60,61025ae37ef11b136ea224fe,,,,,,,,,3218,67,-26,1,0,1,response3disk,,5,3,0,1,0,1,rectangle,3,0,1,0,1,3,0,1,0,1,0,154,154,157,1,,,,,,,,
,,,,,,,,,,,,,FF,,,,,,,,0.616,,,,,,,,,,,,,,,,,,,,,,60fcd99413d2d738147c7d55,61036f5e3870dce2f2b6666d,2021-07-29_23h19.21.678,Simcolourproject_2stim_asymm_v5,2020.2.10,MacIntel,60,61025ae37ef11b136ea224fe,,,,,,,,,4369,-29,67,1,0,1,response7disk,,0,16,-11,1,0,1,rectangle,16,-11,1,0,1,16,-11,1,0,1,0,155,155,73,1,,,,,,,,
,,,,,,,,,,,,,FF,,,,,,,,1.584,,,,,,,,,,,,,,,,,,,,,,60fcd99413d2d738147c7d55,61036f5e3870dce2f2b6666d,2021-07-29_23h19.21.678,Simcolourproject_2stim_asymm_v5,2020.2.10,MacIntel,60,61025ae37ef11b136ea224fe,,,,,,,,,224,39,87,1,0,1,response1disk,,7,5,6,1,0,1,rectangle,5,6,1,0,1,5,6,1,0,1,0,156,156,112,1,,,,,,,,
,,,,,,,,,,,,,FF,,,,,,,,0.783,,,,,,,,,,,,,,,,,,,,,,60fcd99413d2d738147c7d55,61036f5e3870dce2f2b6666d,2021-07-29_23h19.21.678,Simcolourproject_2stim_asymm_v5,2020.2.10,MacIntel,60,61025ae37ef11b136ea224fe,,,,,,,,,3601,46,21,1,0,1,response1disk,,6,-3,2,1,0,1,rectangle,-3,2,1,0,1,-3,2,1,0,1,0,157,157,97,1,,,,,,,,
,,,,,,,,,,,,,FF,,,,,,,,0.85,,,,,,,,,,,,,,,,,,,,,,60fcd99413d2d738147c7d55,61036f5e3870dce2f2b6666d,2021-07-29_23h19.21.678,Simcolourproject_2stim_asymm_v5,2020.2.10,MacIntel,60,61025ae37ef11b136ea224fe,,,,,,,,,419,28,82,1,0,1,response1disk,,7,9,-15,1,0,1,rectangle,9,-15,1,0,1,9,-15,1,0,1,0,158,158,98,1,,,,,,,,
,,,,,,,,,,,,,FF,,,,,,,,1.167,,,,,,,,,,,,,,,,,,,,,,60fcd99413d2d738147c7d55,61036f5e3870dce2f2b6666d,2021-07-29_23h19.21.678,Simcolourproject_2stim_asymm_v5,2020.2.10,MacIntel,60,61025ae37ef11b136ea224fe,,,,,,,,,1392,81,-36,1,0,1,response3disk,,5,18,-16,1,0,1,rectangle,18,-16,1,0,1,18,-16,1,0,1,0,159,159,66,1,,,,,,,,
,,,,,,,,,,,,,FF,,,,,,,,0.65,,,,,,,,,,,,,,,,,,,,,,60fcd99413d2d738147c7d55,61036f5e3870dce2f2b6666d,2021-07-29_23h19.21.678,Simcolourproject_2stim_asymm_v5,2020.2.10,MacIntel,60,61025ae37ef11b136ea224fe,,,,,,,,,1131,-48,79,1,0,1,response7disk,,0,3,2,1,0,1,rectangle,3,2,1,0,1,3,2,1,0,1,1,0,160,73,1,,,,,,,,
,,,,,,,,,,,,,FF,,,,,,,,2.917,,,,,,,,,,,,,,,,,,,,,,60fcd99413d2d738147c7d55,61036f5e3870dce2f2b6666d,2021-07-29_23h19.21.678,Simcolourproject_2stim_asymm_v5,2020.2.10,MacIntel,60,61025ae37ef11b136ea224fe,,,,,,,,,3048,-66,-32,1,0,1,response5disk,,2,-10,12,1,0,1,rectangle,-10,12,1,0,1,-10,12,1,0,1,1,1,161,81,1,,,,,,,,
,,,,,,,,,,,,,FF,,,,,,,,0.834,,,,,,,,,,,,,,,,,,,,,,60fcd99413d2d738147c7d55,61036f5e3870dce2f2b6666d,2021-07-29_23h19.21.678,Simcolourproject_2stim_asymm_v5,2020.2.10,MacIntel,60,61025ae37ef11b136ea224fe,,,,,,,,,954,63,-36,1,0,1,response3disk,,5,-3,-3,1,0,1,rectangle,-3,-3,1,0,1,-3,-3,1,0,1,1,2,162,62,1,,,,,,,,
,,,,,,,,,,,,,FF,,,,,,,,0.735,,,,,,,,,,,,,,,,,,,,,,60fcd99413d2d738147c7d55,61036f5e3870dce2f2b6666d,2021-07-29_23h19.21.678,Simcolourproject_2stim_asymm_v5,2020.2.10,MacIntel,60,61025ae37ef11b136ea224fe,,,,,,,,,3519,-60,-35,1,0,1,response5disk,,2,14,-8,1,0,1,rectangle,14,-8,1,0,1,14,-8,1,0,1,1,3,163,142,1,,,,,,,,
,,,,,,,,,,,,,FF,,,,,,,,1.268,,,,,,,,,,,,,,,,,,,,,,60fcd99413d2d738147c7d55,61036f5e3870dce2f2b6666d,2021-07-29_23h19.21.678,Simcolourproject_2stim_asymm_v5,2020.2.10,MacIntel,60,61025ae37ef11b136ea224fe,,,,,,,,,1363,58,-41,1,0,1,response3disk,,5,18,-8,1,0,1,rectangle,18,-8,1,0,1,18,-8,1,0,1,1,4,164,133,1,,,,,,,,
,,,,,,,,,,,,,FF,,,,,,,,0.8,,,,,,,,,,,,,,,,,,,,,,60fcd99413d2d738147c7d55,61036f5e3870dce2f2b6666d,2021-07-29_23h19.21.678,Simcolourproject_2stim_asymm_v5,2020.2.10,MacIntel,60,61025ae37ef11b136ea224fe,,,,,,,,,28,71,27,1,0,1,response1disk,,6,-7,-2,1,0,1,rectangle,-7,-2,1,0,1,-7,-2,1,0,1,1,5,165,155,1,,,,,,,,
,,,,,,,,,,,,,FF,,,,,,,,0.684,,,,,,,,,,,,,,,,,,,,,,60fcd99413d2d738147c7d55,61036f5e3870dce2f2b6666d,2021-07-29_23h19.21.678,Simcolourproject_2stim_asymm_v5,2020.2.10,MacIntel,60,61025ae37ef11b136ea224fe,,,,,,,,,1867,53,37,1,0,1,response1disk,,6,0,1,1,0,1,rectangle,0,1,1,0,1,0,1,1,0,1,1,6,166,97,1,,,,,,,,
,,,,,,,,,,,,,FF,,,,,,,,0.732,,,,,,,,,,,,,,,,,,,,,,60fcd99413d2d738147c7d55,61036f5e3870dce2f2b6666d,2021-07-29_23h19.21.678,Simcolourproject_2stim_asymm_v5,2020.2.10,MacIntel,60,61025ae37ef11b136ea224fe,,,,,,,,,2315,71,30,1,0,1,response1disk,,6,15,9,1,0,1,rectangle,15,9,1,0,1,15,9,1,0,1,1,7,167,102,1,,,,,,,,
,,,,,,,,,,,,,FF,,,,,,,,0.85,,,,,,,,,,,,,,,,,,,,,,60fcd99413d2d738147c7d55,61036f5e3870dce2f2b6666d,2021-07-29_23h19.21.678,Simcolourproject_2stim_asymm_v5,2020.2.10,MacIntel,60,61025ae37ef11b136ea224fe,,,,,,,,,4078,-60,-35,1,0,1,response5disk,,2,-11,1,1,0,1,rectangle,-11,1,1,0,1,-11,1,1,0,1,1,8,168,125,1,,,,,,,,
,,,,,,,,,,,,,FF,,,,,,,,0.933,,,,,,,,,,,,,,,,,,,,,,60fcd99413d2d738147c7d55,61036f5e3870dce2f2b6666d,2021-07-29_23h19.21.678,Simcolourproject_2stim_asymm_v5,2020.2.10,MacIntel,60,61025ae37ef11b136ea224fe,,,,,,,,,3606,21,-52,1,0,1,response3disk,,4,5,-7,1,0,1,rectangle,5,-7,1,0,1,5,-7,1,0,1,1,9,169,76,1,,,,,,,,
,,,,,,,,,,,,,FF,,,,,,,,0.666,,,,,,,,,,,,,,,,,,,,,,60fcd99413d2d738147c7d55,61036f5e3870dce2f2b6666d,2021-07-29_23h19.21.678,Simcolourproject_2stim_asymm_v5,2020.2.10,MacIntel,60,61025ae37ef11b136ea224fe,,,,,,,,,2129,43,75,1,0,1,response1disk,,7,13,12,1,0,1,rectangle,13,12,1,0,1,13,12,1,0,1,1,10,170,5,1,,,,,,,,
,,,,,,,,,,,,,FF,,,,,,,,0.799,,,,,,,,,,,,,,,,,,,,,,60fcd99413d2d738147c7d55,61036f5e3870dce2f2b6666d,2021-07-29_23h19.21.678,Simcolourproject_2stim_asymm_v5,2020.2.10,MacIntel,60,61025ae37ef11b136ea224fe,,,,,,,,,2391,85,36,1,0,1,response1disk,,6,8,-5,1,0,1,rectangle,8,-5,1,0,1,8,-5,1,0,1,1,11,171,51,1,,,,,,,,
,,,,,,,,,,,,,FF,,,,,,,,1.4,,,,,,,,,,,,,,,,,,,,,,60fcd99413d2d738147c7d55,61036f5e3870dce2f2b6666d,2021-07-29_23h19.21.678,Simcolourproject_2stim_asymm_v5,2020.2.10,MacIntel,60,61025ae37ef11b136ea224fe,,,,,,,,,3385,-31,-61,1,0,1,response5disk,,3,-11,7,1,0,1,rectangle,-11,7,1,0,1,-11,7,1,0,1,1,12,172,57,1,,,,,,,,
,,,,,,,,,,,,,FF,,,,,,,,0.784,,,,,,,,,,,,,,,,,,,,,,60fcd99413d2d738147c7d55,61036f5e3870dce2f2b6666d,2021-07-29_23h19.21.678,Simcolourproject_2stim_asymm_v5,2020.2.10,MacIntel,60,61025ae37ef11b136ea224fe,,,,,,,,,3505,-31,-68,1,0,1,response5disk,,3,-9,4,1,0,1,rectangle,-9,4,1,0,1,-9,4,1,0,1,1,13,173,130,1,,,,,,,,
,,,,,,,,,,,,,FF,,,,,,,,1.3,,,,,,,,,,,,,,,,,,,,,,60fcd99413d2d738147c7d55,61036f5e3870dce2f2b6666d,2021-07-29_23h19.21.678,Simcolourproject_2stim_asymm_v5,2020.2.10,MacIntel,60,61025ae37ef11b136ea224fe,,,,,,,,,557,-65,-23,1,0,1,response5disk,,2,0,1,1,0,1,rectangle,0,1,1,0,1,0,1,1,0,1,1,14,174,80,1,,,,,,,,
,,,,,,,,,,,,,FF,,,,,,,,0.933,,,,,,,,,,,,,,,,,,,,,,60fcd99413d2d738147c7d55,61036f5e3870dce2f2b6666d,2021-07-29_23h19.21.678,Simcolourproject_2stim_asymm_v5,2020.2.10,MacIntel,60,61025ae37ef11b136ea224fe,,,,,,,,,328,85,35,1,0,1,response1disk,,6,-12,-10,1,0,1,rectangle,-12,-10,1,0,1,-12,-10,1,0,1,1,15,175,22,1,,,,,,,,
,,,,,,,,,,,,,FF,,,,,,,,1.249,,,,,,,,,,,,,,,,,,,,,,60fcd99413d2d738147c7d55,61036f5e3870dce2f2b6666d,2021-07-29_23h19.21.678,Simcolourproject_2stim_asymm_v5,2020.2.10,MacIntel,60,61025ae37ef11b136ea224fe,,,,,,,,,164,-63,-38,1,0,1,response5disk,,2,2,3,1,0,1,rectangle,2,3,1,0,1,2,3,1,0,1,1,16,176,124,1,,,,,,,,
,,,,,,,,,,,,,FF,,,,,,,,0.633,,,,,,,,,,,,,,,,,,,,,,60fcd99413d2d738147c7d55,61036f5e3870dce2f2b6666d,2021-07-29_23h19.21.678,Simcolourproject_2stim_asymm_v5,2020.2.10,MacIntel,60,61025ae37ef11b136ea224fe,,,,,,,,,955,46,79,1,0,1,response1disk,,7,8,-7,1,0,1,rectangle,8,-7,1,0,1,8,-7,1,0,1,1,17,177,101,1,,,,,,,,
,,,,,,,,,,,,,FF,,,,,,,,0.85,,,,,,,,,,,,,,,,,,,,,,60fcd99413d2d738147c7d55,61036f5e3870dce2f2b6666d,2021-07-29_23h19.21.678,Simcolourproject_2stim_asymm_v5,2020.2.10,MacIntel,60,61025ae37ef11b136ea224fe,,,,,,,,,4153,30,55,1,0,1,response1disk,,7,12,4,1,0,1,rectangle,12,4,1,0,1,12,4,1,0,1,1,18,178,56,1,,,,,,,,
,,,,,,,,,,,,,FF,,,,,,,,0.584,,,,,,,,,,,,,,,,,,,,,,60fcd99413d2d738147c7d55,61036f5e3870dce2f2b6666d,2021-07-29_23h19.21.678,Simcolourproject_2stim_asymm_v5,2020.2.10,MacIntel,60,61025ae37ef11b136ea224fe,,,,,,,,,3955,29,62,1,0,1,response1disk,,7,16,10,1,0,1,rectangle,16,10,1,0,1,16,10,1,0,1,1,19,179,11,1,,,,,,,,
,,,,,,,,,,,,,FF,,,,,,,,0.9,,,,,,,,,,,,,,,,,,,,,,60fcd99413d2d738147c7d55,61036f5e3870dce2f2b6666d,2021-07-29_23h19.21.678,Simcolourproject_2stim_asymm_v5,2020.2.10,MacIntel,60,61025ae37ef11b136ea224fe,,,,,,,,,2090,24,-59,1,0,1,response3disk,,4,-3,-17,1,0,1,rectangle,-3,-17,1,0,1,-3,-17,1,0,1,1,20,180,107,1,,,,,,,,
,,,,,,,,,,,,,FF,,,,,,,,0.616,,,,,,,,,,,,,,,,,,,,,,60fcd99413d2d738147c7d55,61036f5e3870dce2f2b6666d,2021-07-29_23h19.21.678,Simcolourproject_2stim_asymm_v5,2020.2.10,MacIntel,60,61025ae37ef11b136ea224fe,,,,,,,,,1725,47,51,1,0,1,response1disk,,7,-19,1,1,0,1,rectangle,-19,1,1,0,1,-19,1,1,0,1,1,21,181,120,1,,,,,,,,
,,,,,,,,,,,,,FF,,,,,,,,0.6,,,,,,,,,,,,,,,,,,,,,,60fcd99413d2d738147c7d55,61036f5e3870dce2f2b6666d,2021-07-29_23h19.21.678,Simcolourproject_2stim_asymm_v5,2020.2.10,MacIntel,60,61025ae37ef11b136ea224fe,,,,,,,,,1652,29,56,1,0,1,response1disk,,7,11,9,1,0,1,rectangle,11,9,1,0,1,11,9,1,0,1,1,22,182,71,1,,,,,,,,
,,,,,,,,,,,,,FF,,,,,,,,0.817,,,,,,,,,,,,,,,,,,,,,,60fcd99413d2d738147c7d55,61036f5e3870dce2f2b6666d,2021-07-29_23h19.21.678,Simcolourproject_2stim_asymm_v5,2020.2.10,MacIntel,60,61025ae37ef11b136ea224fe,,,,,,,,,3986,53,34,1,0,1,response1disk,,6,0,2,1,0,1,rectangle,0,2,1,0,1,0,2,1,0,1,1,23,183,136,1,,,,,,,,
,,,,,,,,,,,,,FF,,,,,,,,1.3,,,,,,,,,,,,,,,,,,,,,,60fcd99413d2d738147c7d55,61036f5e3870dce2f2b6666d,2021-07-29_23h19.21.678,Simcolourproject_2stim_asymm_v5,2020.2.10,MacIntel,60,61025ae37ef11b136ea224fe,,,,,,,,,2547,32,-60,1,0,1,response3disk,,4,10,7,1,0,1,rectangle,-66,37,1,0,1,-9,5,1,0,1,1,24,184,58,1,,response7disk_3,TRUE,1,1,"[9,70,185,185,13,234,222,138,294,137,249,303,2,274,241,121,61,293,309,217]",1.766,rectangle
,,,,,,,,,,,,,FF,,,,,,,,0.767,,,,,,,,,,,,,,,,,,,,,,60fcd99413d2d738147c7d55,61036f5e3870dce2f2b6666d,2021-07-29_23h19.21.678,Simcolourproject_2stim_asymm_v5,2020.2.10,MacIntel,60,61025ae37ef11b136ea224fe,,,,,,,,,946,32,65,1,0,1,response1disk,,7,16,9,1,0,1,rectangle,16,9,1,0,1,16,9,1,0,1,1,25,185,45,1,,,,,,,,
,,,,,,,,,,,,,FF,,,,,,,,0.616,,,,,,,,,,,,,,,,,,,,,,60fcd99413d2d738147c7d55,61036f5e3870dce2f2b6666d,2021-07-29_23h19.21.678,Simcolourproject_2stim_asymm_v5,2020.2.10,MacIntel,60,61025ae37ef11b136ea224fe,,,,,,,,,1564,65,40,1,0,1,response1disk,,6,5,-13,1,0,1,rectangle,5,-13,1,0,1,5,-13,1,0,1,1,26,186,67,1,,,,,,,,
,,,,,,,,,,,,,FF,,,,,,,,0.701,,,,,,,,,,,,,,,,,,,,,,60fcd99413d2d738147c7d55,61036f5e3870dce2f2b6666d,2021-07-29_23h19.21.678,Simcolourproject_2stim_asymm_v5,2020.2.10,MacIntel,60,61025ae37ef11b136ea224fe,,,,,,,,,2269,78,39,1,0,1,response1disk,,6,1,6,1,0,1,rectangle,1,6,1,0,1,1,6,1,0,1,1,27,187,24,1,,,,,,,,
,,,,,,,,,,,,,FF,,,,,,,,0.566,,,,,,,,,,,,,,,,,,,,,,60fcd99413d2d738147c7d55,61036f5e3870dce2f2b6666d,2021-07-29_23h19.21.678,Simcolourproject_2stim_asymm_v5,2020.2.10,MacIntel,60,61025ae37ef11b136ea224fe,,,,,,,,,142,59,45,1,0,1,response1disk,,6,7,-4,1,0,1,rectangle,7,-4,1,0,1,7,-4,1,0,1,1,28,188,41,1,,,,,,,,
,,,,,,,,,,,,,FF,,,,,,,,0.582,,,,,,,,,,,,,,,,,,,,,,60fcd99413d2d738147c7d55,61036f5e3870dce2f2b6666d,2021-07-29_23h19.21.678,Simcolourproject_2stim_asymm_v5,2020.2.10,MacIntel,60,61025ae37ef11b136ea224fe,,,,,,,,,2931,35,67,1,0,1,response1disk,,7,13,4,1,0,1,rectangle,13,4,1,0,1,13,4,1,0,1,1,29,189,131,1,,,,,,,,
,,,,,,,,,,,,,FF,,,,,,,,0.867,,,,,,,,,,,,,,,,,,,,,,60fcd99413d2d738147c7d55,61036f5e3870dce2f2b6666d,2021-07-29_23h19.21.678,Simcolourproject_2stim_asymm_v5,2020.2.10,MacIntel,60,61025ae37ef11b136ea224fe,,,,,,,,,1271,66,-29,1,0,1,response3disk,,5,21,-9,1,0,1,rectangle,21,-9,1,0,1,21,-9,1,0,1,1,30,190,83,1,,,,,,,,
,,,,,,,,,,,,,FF,,,,,,,,0.951,,,,,,,,,,,,,,,,,,,,,,60fcd99413d2d738147c7d55,61036f5e3870dce2f2b6666d,2021-07-29_23h19.21.678,Simcolourproject_2stim_asymm_v5,2020.2.10,MacIntel,60,61025ae37ef11b136ea224fe,,,,,,,,,3188,-54,-79,1,0,1,response5disk,,3,-13,6,1,0,1,rectangle,-13,6,1,0,1,-13,6,1,0,1,1,31,191,7,1,,,,,,,,
,,,,,,,,,,,,,FF,,,,,,,,1.35,,,,,,,,,,,,,,,,,,,,,,60fcd99413d2d738147c7d55,61036f5e3870dce2f2b6666d,2021-07-29_23h19.21.678,Simcolourproject_2stim_asymm_v5,2020.2.10,MacIntel,60,61025ae37ef11b136ea224fe,,,,,,,,,1938,45,70,1,0,1,response1disk,,7,0,8,1,0,1,rectangle,0,8,1,0,1,0,8,1,0,1,1,32,192,32,1,,,,,,,,
,,,,,,,,,,,,,FF,,,,,,,,0.701,,,,,,,,,,,,,,,,,,,,,,60fcd99413d2d738147c7d55,61036f5e3870dce2f2b6666d,2021-07-29_23h19.21.678,Simcolourproject_2stim_asymm_v5,2020.2.10,MacIntel,60,61025ae37ef11b136ea224fe,,,,,,,,,3858,96,46,1,0,1,response1disk,,6,7,-17,1,0,1,rectangle,7,-17,1,0,1,7,-17,1,0,1,1,33,193,75,1,,,,,,,,
,,,,,,,,,,,,,FF,,,,,,,,0.734,,,,,,,,,,,,,,,,,,,,,,60fcd99413d2d738147c7d55,61036f5e3870dce2f2b6666d,2021-07-29_23h19.21.678,Simcolourproject_2stim_asymm_v5,2020.2.10,MacIntel,60,61025ae37ef11b136ea224fe,,,,,,,,,2113,78,42,1,0,1,response1disk,,6,-1,-6,1,0,1,rectangle,-1,-6,1,0,1,-1,-6,1,0,1,1,34,194,47,1,,,,,,,,
,,,,,,,,,,,,,FF,,,,,,,,0.817,,,,,,,,,,,,,,,,,,,,,,60fcd99413d2d738147c7d55,61036f5e3870dce2f2b6666d,2021-07-29_23h19.21.678,Simcolourproject_2stim_asymm_v5,2020.2.10,MacIntel,60,61025ae37ef11b136ea224fe,,,,,,,,,3001,56,52,1,0,1,response1disk,,6,-10,-2,1,0,1,rectangle,-10,-2,1,0,1,-10,-2,1,0,1,1,35,195,31,1,,,,,,,,
,,,,,,,,,,,,,FF,,,,,,,,0.9,,,,,,,,,,,,,,,,,,,,,,60fcd99413d2d738147c7d55,61036f5e3870dce2f2b6666d,2021-07-29_23h19.21.678,Simcolourproject_2stim_asymm_v5,2020.2.10,MacIntel,60,61025ae37ef11b136ea224fe,,,,,,,,,2276,88,24,1,0,1,response1disk,,6,10,-5,1,0,1,rectangle,10,-5,1,0,1,10,-5,1,0,1,1,36,196,2,1,,,,,,,,
,,,,,,,,,,,,,FF,,,,,,,,0.616,,,,,,,,,,,,,,,,,,,,,,60fcd99413d2d738147c7d55,61036f5e3870dce2f2b6666d,2021-07-29_23h19.21.678,Simcolourproject_2stim_asymm_v5,2020.2.10,MacIntel,60,61025ae37ef11b136ea224fe,,,,,,,,,4012,46,74,1,0,1,response1disk,,7,8,1,1,0,1,rectangle,8,1,1,0,1,8,1,1,0,1,1,37,197,145,1,,,,,,,,
,,,,,,,,,,,,,FF,,,,,,,,1.716,,,,,,,,,,,,,,,,,,,,,,60fcd99413d2d738147c7d55,61036f5e3870dce2f2b6666d,2021-07-29_23h19.21.678,Simcolourproject_2stim_asymm_v5,2020.2.10,MacIntel,60,61025ae37ef11b136ea224fe,,,,,,,,,2246,47,64,1,0,1,response1disk,,7,7,2,1,0,1,rectangle,7,2,1,0,1,7,2,1,0,1,1,38,198,82,1,,,,,,,,
,,,,,,,,,,,,,FF,,,,,,,,1.184,,,,,,,,,,,,,,,,,,,,,,60fcd99413d2d738147c7d55,61036f5e3870dce2f2b6666d,2021-07-29_23h19.21.678,Simcolourproject_2stim_asymm_v5,2020.2.10,MacIntel,60,61025ae37ef11b136ea224fe,,,,,,,,,211,66,32,1,0,1,response1disk,,6,9,1,1,0,1,rectangle,9,1,1,0,1,9,1,1,0,1,1,39,199,153,1,,,,,,,,
,,,,,,,,,,,,,FF,,,,,,,,0.916,,,,,,,,,,,,,,,,,,,,,,60fcd99413d2d738147c7d55,61036f5e3870dce2f2b6666d,2021-07-29_23h19.21.678,Simcolourproject_2stim_asymm_v5,2020.2.10,MacIntel,60,61025ae37ef11b136ea224fe,,,,,,,,,2353,-29,-62,1,0,1,response5disk,,3,-6,-11,1,0,1,rectangle,-6,-11,1,0,1,-6,-11,1,0,1,1,40,200,72,1,,,,,,,,
,,,,,,,,,,,,,FF,,,,,,,,0.799,,,,,,,,,,,,,,,,,,,,,,60fcd99413d2d738147c7d55,61036f5e3870dce2f2b6666d,2021-07-29_23h19.21.678,Simcolourproject_2stim_asymm_v5,2020.2.10,MacIntel,60,61025ae37ef11b136ea224fe,,,,,,,,,1085,85,30,1,0,1,response1disk,,6,11,-8,1,0,1,rectangle,11,-8,1,0,1,11,-8,1,0,1,1,41,201,114,1,,,,,,,,
,,,,,,,,,,,,,FF,,,,,,,,1.433,,,,,,,,,,,,,,,,,,,,,,60fcd99413d2d738147c7d55,61036f5e3870dce2f2b6666d,2021-07-29_23h19.21.678,Simcolourproject_2stim_asymm_v5,2020.2.10,MacIntel,60,61025ae37ef11b136ea224fe,,,,,,,,,52,69,49,1,0,1,response1disk,,6,0,4,1,0,1,rectangle,0,4,1,0,1,0,4,1,0,1,1,42,202,85,1,,,,,,,,
,,,,,,,,,,,,,FF,,,,,,,,0.815,,,,,,,,,,,,,,,,,,,,,,60fcd99413d2d738147c7d55,61036f5e3870dce2f2b6666d,2021-07-29_23h19.21.678,Simcolourproject_2stim_asymm_v5,2020.2.10,MacIntel,60,61025ae37ef11b136ea224fe,,,,,,,,,2228,-60,-24,1,0,1,response5disk,,2,8,0,1,0,1,rectangle,8,0,1,0,1,8,0,1,0,1,1,43,203,156,1,,,,,,,,
,,,,,,,,,,,,,FF,,,,,,,,1.333,,,,,,,,,,,,,,,,,,,,,,60fcd99413d2d738147c7d55,61036f5e3870dce2f2b6666d,2021-07-29_23h19.21.678,Simcolourproject_2stim_asymm_v5,2020.2.10,MacIntel,60,61025ae37ef11b136ea224fe,,,,,,,,,2014,83,27,1,0,1,response1disk,,6,14,-2,1,0,1,rectangle,14,-2,1,0,1,14,-2,1,0,1,1,44,204,140,1,,,,,,,,
,,,,,,,,,,,,,FF,,,,,,,,0.65,,,,,,,,,,,,,,,,,,,,,,60fcd99413d2d738147c7d55,61036f5e3870dce2f2b6666d,2021-07-29_23h19.21.678,Simcolourproject_2stim_asymm_v5,2020.2.10,MacIntel,60,61025ae37ef11b136ea224fe,,,,,,,,,494,51,36,1,0,1,response1disk,,6,20,7,1,0,1,rectangle,20,7,1,0,1,20,7,1,0,1,1,45,205,30,1,,,,,,,,
,,,,,,,,,,,,,FF,,,,,,,,0.999,,,,,,,,,,,,,,,,,,,,,,60fcd99413d2d738147c7d55,61036f5e3870dce2f2b6666d,2021-07-29_23h19.21.678,Simcolourproject_2stim_asymm_v5,2020.2.10,MacIntel,60,61025ae37ef11b136ea224fe,,,,,,,,,4150,-64,27,1,0,1,response7disk,,1,10,-17,1,0,1,rectangle,10,-17,1,0,1,10,-17,1,0,1,1,46,206,61,1,,,,,,,,
,,,,,,,,,,,,,FF,,,,,,,,1.167,,,,,,,,,,,,,,,,,,,,,,60fcd99413d2d738147c7d55,61036f5e3870dce2f2b6666d,2021-07-29_23h19.21.678,Simcolourproject_2stim_asymm_v5,2020.2.10,MacIntel,60,61025ae37ef11b136ea224fe,,,,,,,,,4265,62,-38,1,0,1,response3disk,,5,24,-2,1,0,1,rectangle,24,-2,1,0,1,24,-2,1,0,1,1,47,207,147,1,,,,,,,,
,,,,,,,,,,,,,FF,,,,,,,,0.633,,,,,,,,,,,,,,,,,,,,,,60fcd99413d2d738147c7d55,61036f5e3870dce2f2b6666d,2021-07-29_23h19.21.678,Simcolourproject_2stim_asymm_v5,2020.2.10,MacIntel,60,61025ae37ef11b136ea224fe,,,,,,,,,4235,-36,62,1,0,1,response7disk,,0,8,-11,1,0,1,rectangle,8,-11,1,0,1,8,-11,1,0,1,1,48,208,117,1,,,,,,,,
,,,,,,,,,,,,,FF,,,,,,,,1.633,,,,,,,,,,,,,,,,,,,,,,60fcd99413d2d738147c7d55,61036f5e3870dce2f2b6666d,2021-07-29_23h19.21.678,Simcolourproject_2stim_asymm_v5,2020.2.10,MacIntel,60,61025ae37ef11b136ea224fe,,,,,,,,,1140,46,-80,1,0,1,response3disk,,4,-13,5,1,0,1,rectangle,-13,5,1,0,1,-13,5,1,0,1,1,49,209,157,1,,,,,,,,
,,,,,,,,,,,,,FF,,,,,,,,3.068,,,,,,,,,,,,,,,,,,,,,,60fcd99413d2d738147c7d55,61036f5e3870dce2f2b6666d,2021-07-29_23h19.21.678,Simcolourproject_2stim_asymm_v5,2020.2.10,MacIntel,60,61025ae37ef11b136ea224fe,,,,,,,,,3797,69,38,1,0,1,response1disk,,6,7,9,1,0,1,rectangle,7,9,1,0,1,7,9,1,0,1,1,50,210,126,1,,,,,,,,
,,,,,,,,,,,,,FF,,,,,,,,1.051,,,,,,,,,,,,,,,,,,,,,,60fcd99413d2d738147c7d55,61036f5e3870dce2f2b6666d,2021-07-29_23h19.21.678,Simcolourproject_2stim_asymm_v5,2020.2.10,MacIntel,60,61025ae37ef11b136ea224fe,,,,,,,,,4003,73,26,1,0,1,response1disk,,6,5,-7,1,0,1,rectangle,5,-7,1,0,1,5,-7,1,0,1,1,51,211,135,1,,,,,,,,
,,,,,,,,,,,,,FF,,,,,,,,0.934,,,,,,,,,,,,,,,,,,,,,,60fcd99413d2d738147c7d55,61036f5e3870dce2f2b6666d,2021-07-29_23h19.21.678,Simcolourproject_2stim_asymm_v5,2020.2.10,MacIntel,60,61025ae37ef11b136ea224fe,,,,,,,,,1015,58,20,1,0,1,response1disk,,6,10,3,1,0,1,rectangle,10,3,1,0,1,10,3,1,0,1,1,52,212,21,1,,,,,,,,
,,,,,,,,,,,,,FF,,,,,,,,0.699,,,,,,,,,,,,,,,,,,,,,,60fcd99413d2d738147c7d55,61036f5e3870dce2f2b6666d,2021-07-29_23h19.21.678,Simcolourproject_2stim_asymm_v5,2020.2.10,MacIntel,60,61025ae37ef11b136ea224fe,,,,,,,,,643,68,34,1,0,1,response1disk,,6,9,7,1,0,1,rectangle,9,7,1,0,1,9,7,1,0,1,1,53,213,123,1,,,,,,,,
,,,,,,,,,,,,,FF,,,,,,,,0.532,,,,,,,,,,,,,,,,,,,,,,60fcd99413d2d738147c7d55,61036f5e3870dce2f2b6666d,2021-07-29_23h19.21.678,Simcolourproject_2stim_asymm_v5,2020.2.10,MacIntel,60,61025ae37ef11b136ea224fe,,,,,,,,,595,33,54,1,0,1,response1disk,,7,4,-3,1,0,1,rectangle,4,-3,1,0,1,4,-3,1,0,1,1,54,214,43,1,,,,,,,,
,,,,,,,,,,,,,FF,,,,,,,,0.883,,,,,,,,,,,,,,,,,,,,,,60fcd99413d2d738147c7d55,61036f5e3870dce2f2b6666d,2021-07-29_23h19.21.678,Simcolourproject_2stim_asymm_v5,2020.2.10,MacIntel,60,61025ae37ef11b136ea224fe,,,,,,,,,2067,44,-23,1,0,1,response3disk,,5,13,0,1,0,1,rectangle,13,0,1,0,1,13,0,1,0,1,1,55,215,84,1,,,,,,,,
,,,,,,,,,,,,,FF,,,,,,,,1.333,,,,,,,,,,,,,,,,,,,,,,60fcd99413d2d738147c7d55,61036f5e3870dce2f2b6666d,2021-07-29_23h19.21.678,Simcolourproject_2stim_asymm_v5,2020.2.10,MacIntel,60,61025ae37ef11b136ea224fe,,,,,,,,,2604,19,-83,1,0,1,response3disk,,4,3,8,1,0,1,rectangle,74,-23,1,0,1,25,-9,1,0,1,1,56,216,121,1,,response3disk_3,TRUE,5,5,"[9,70,185,185,13,234,222,138,294,137,249,303,2,274,241,121,61,293,309,217]",1.583,rectangle
,,,,,,,,,,,,,FF,,,,,,,,0.966,,,,,,,,,,,,,,,,,,,,,,60fcd99413d2d738147c7d55,61036f5e3870dce2f2b6666d,2021-07-29_23h19.21.678,Simcolourproject_2stim_asymm_v5,2020.2.10,MacIntel,60,61025ae37ef11b136ea224fe,,,,,,,,,2112,70,-27,1,0,1,response3disk,,5,0,-4,1,0,1,rectangle,0,-4,1,0,1,0,-4,1,0,1,1,57,217,110,1,,,,,,,,
,,,,,,,,,,,,,FF,,,,,,,,1.334,,,,,,,,,,,,,,,,,,,,,,60fcd99413d2d738147c7d55,61036f5e3870dce2f2b6666d,2021-07-29_23h19.21.678,Simcolourproject_2stim_asymm_v5,2020.2.10,MacIntel,60,61025ae37ef11b136ea224fe,,,,,,,,,3615,67,-20,1,0,1,response3disk,,5,3,12,1,0,1,rectangle,3,12,1,0,1,3,12,1,0,1,1,58,218,93,1,,,,,,,,
,,,,,,,,,,,,,FF,,,,,,,,1.018,,,,,,,,,,,,,,,,,,,,,,60fcd99413d2d738147c7d55,61036f5e3870dce2f2b6666d,2021-07-29_23h19.21.678,Simcolourproject_2stim_asymm_v5,2020.2.10,MacIntel,60,61025ae37ef11b136ea224fe,,,,,,,,,3377,15,-61,1,0,1,response3disk,,4,1,-10,1,0,1,rectangle,1,-10,1,0,1,1,-10,1,0,1,1,59,219,105,1,,,,,,,,
,,,,,,,,,,,,,FF,,,,,,,,1.149,,,,,,,,,,,,,,,,,,,,,,60fcd99413d2d738147c7d55,61036f5e3870dce2f2b6666d,2021-07-29_23h19.21.678,Simcolourproject_2stim_asymm_v5,2020.2.10,MacIntel,60,61025ae37ef11b136ea224fe,,,,,,,,,177,87,34,1,0,1,response1disk,,6,-4,-12,1,0,1,rectangle,-4,-12,1,0,1,-4,-12,1,0,1,1,60,220,112,1,,,,,,,,
,,,,,,,,,,,,,FF,,,,,,,,0.582,,,,,,,,,,,,,,,,,,,,,,60fcd99413d2d738147c7d55,61036f5e3870dce2f2b6666d,2021-07-29_23h19.21.678,Simcolourproject_2stim_asymm_v5,2020.2.10,MacIntel,60,61025ae37ef11b136ea224fe,,,,,,,,,2515,81,26,1,0,1,response1disk,,6,12,-7,1,0,1,rectangle,83,48,1,0,1,10,2,1,0,1,1,61,221,96,1,,response1disk_3,TRUE,6,6,"[9,70,185,185,13,234,222,138,294,137,249,303,2,274,241,121,61,293,309,217]",1.451,rectangle
,,,,,,,,,,,,,FF,,,,,,,,0.701,,,,,,,,,,,,,,,,,,,,,,60fcd99413d2d738147c7d55,61036f5e3870dce2f2b6666d,2021-07-29_23h19.21.678,Simcolourproject_2stim_asymm_v5,2020.2.10,MacIntel,60,61025ae37ef11b136ea224fe,,,,,,,,,2764,68,24,1,0,1,response1disk,,6,6,9,1,0,1,rectangle,6,9,1,0,1,6,9,1,0,1,1,62,222,143,1,,,,,,,,
,,,,,,,,,,,,,FF,,,,,,,,2.183,,,,,,,,,,,,,,,,,,,,,,60fcd99413d2d738147c7d55,61036f5e3870dce2f2b6666d,2021-07-29_23h19.21.678,Simcolourproject_2stim_asymm_v5,2020.2.10,MacIntel,60,61025ae37ef11b136ea224fe,,,,,,,,,2091,-77,-25,1,0,1,response5disk,,2,-13,-1,1,0,1,rectangle,-13,-1,1,0,1,-13,-1,1,0,1,1,63,223,108,1,,,,,,,,
,,,,,,,,,,,,,FF,,,,,,,,0.9,,,,,,,,,,,,,,,,,,,,,,60fcd99413d2d738147c7d55,61036f5e3870dce2f2b6666d,2021-07-29_23h19.21.678,Simcolourproject_2stim_asymm_v5,2020.2.10,MacIntel,60,61025ae37ef11b136ea224fe,,,,,,,,,1598,34,-65,1,0,1,response3disk,,4,9,-3,1,0,1,rectangle,9,-3,1,0,1,9,-3,1,0,1,1,64,224,29,1,,,,,,,,
,,,,,,,,,,,,,FF,,,,,,,,0.783,,,,,,,,,,,,,,,,,,,,,,60fcd99413d2d738147c7d55,61036f5e3870dce2f2b6666d,2021-07-29_23h19.21.678,Simcolourproject_2stim_asymm_v5,2020.2.10,MacIntel,60,61025ae37ef11b136ea224fe,,,,,,,,,1945,60,41,1,0,1,response1disk,,6,-16,1,1,0,1,rectangle,-16,1,1,0,1,-16,1,1,0,1,1,65,225,20,1,,,,,,,,
,,,,,,,,,,,,,FF,,,,,,,,0.733,,,,,,,,,,,,,,,,,,,,,,60fcd99413d2d738147c7d55,61036f5e3870dce2f2b6666d,2021-07-29_23h19.21.678,Simcolourproject_2stim_asymm_v5,2020.2.10,MacIntel,60,61025ae37ef11b136ea224fe,,,,,,,,,1216,32,-57,1,0,1,response3disk,,4,13,0,1,0,1,rectangle,13,0,1,0,1,13,0,1,0,1,1,66,226,77,1,,,,,,,,
,,,,,,,,,,,,,FF,,,,,,,,0.801,,,,,,,,,,,,,,,,,,,,,,60fcd99413d2d738147c7d55,61036f5e3870dce2f2b6666d,2021-07-29_23h19.21.678,Simcolourproject_2stim_asymm_v5,2020.2.10,MacIntel,60,61025ae37ef11b136ea224fe,,,,,,,,,3266,73,42,1,0,1,response1disk,,6,14,-2,1,0,1,rectangle,14,-2,1,0,1,14,-2,1,0,1,1,67,227,34,1,,,,,,,,
,,,,,,,,,,,,,FF,,,,,,,,0.749,,,,,,,,,,,,,,,,,,,,,,60fcd99413d2d738147c7d55,61036f5e3870dce2f2b6666d,2021-07-29_23h19.21.678,Simcolourproject_2stim_asymm_v5,2020.2.10,MacIntel,60,61025ae37ef11b136ea224fe,,,,,,,,,2082,51,32,1,0,1,response1disk,,6,1,0,1,0,1,rectangle,1,0,1,0,1,1,0,1,0,1,1,68,228,63,1,,,,,,,,
,,,,,,,,,,,,,FF,,,,,,,,0.834,,,,,,,,,,,,,,,,,,,,,,60fcd99413d2d738147c7d55,61036f5e3870dce2f2b6666d,2021-07-29_23h19.21.678,Simcolourproject_2stim_asymm_v5,2020.2.10,MacIntel,60,61025ae37ef11b136ea224fe,,,,,,,,,2261,60,-36,1,0,1,response3disk,,5,7,1,1,0,1,rectangle,7,1,1,0,1,7,1,1,0,1,1,69,229,139,1,,,,,,,,
,,,,,,,,,,,,,FF,,,,,,,,0.933,,,,,,,,,,,,,,,,,,,,,,60fcd99413d2d738147c7d55,61036f5e3870dce2f2b6666d,2021-07-29_23h19.21.678,Simcolourproject_2stim_asymm_v5,2020.2.10,MacIntel,60,61025ae37ef11b136ea224fe,,,,,,,,,2787,43,-81,1,0,1,response3disk,,4,11,-8,1,0,1,rectangle,11,-8,1,0,1,11,-8,1,0,1,1,70,230,65,1,,,,,,,,
,,,,,,,,,,,,,FF,,,,,,,,0.933,,,,,,,,,,,,,,,,,,,,,,60fcd99413d2d738147c7d55,61036f5e3870dce2f2b6666d,2021-07-29_23h19.21.678,Simcolourproject_2stim_asymm_v5,2020.2.10,MacIntel,60,61025ae37ef11b136ea224fe,,,,,,,,,2539,46,69,1,0,1,response1disk,,7,13,4,1,0,1,rectangle,13,4,1,0,1,13,4,1,0,1,1,71,231,89,1,,,,,,,,
,,,,,,,,,,,,,FF,,,,,,,,0.883,,,,,,,,,,,,,,,,,,,,,,60fcd99413d2d738147c7d55,61036f5e3870dce2f2b6666d,2021-07-29_23h19.21.678,Simcolourproject_2stim_asymm_v5,2020.2.10,MacIntel,60,61025ae37ef11b136ea224fe,,,,,,,,,3660,-51,-23,1,0,1,response5disk,,2,-7,-2,1,0,1,rectangle,-7,-2,1,0,1,-7,-2,1,0,1,1,72,232,68,1,,,,,,,,
,,,,,,,,,,,,,FF,,,,,,,,0.817,,,,,,,,,,,,,,,,,,,,,,60fcd99413d2d738147c7d55,61036f5e3870dce2f2b6666d,2021-07-29_23h19.21.678,Simcolourproject_2stim_asymm_v5,2020.2.10,MacIntel,60,61025ae37ef11b136ea224fe,,,,,,,,,3490,52,-25,1,0,1,response3disk,,5,9,10,1,0,1,rectangle,27,51,1,0,1,14,0,1,0,1,1,73,233,154,1,,response1disk_3,TRUE,7,7,"[9,70,185,185,13,234,222,138,294,137,249,303,2,274,241,121,61,293,309,217]",1.249,rectangle
,,,,,,,,,,,,,FF,,,,,,,,0.884,,,,,,,,,,,,,,,,,,,,,,60fcd99413d2d738147c7d55,61036f5e3870dce2f2b6666d,2021-07-29_23h19.21.678,Simcolourproject_2stim_asymm_v5,2020.2.10,MacIntel,60,61025ae37ef11b136ea224fe,,,,,,,,,1757,-67,-28,1,0,1,response5disk,,2,-10,-1,1,0,1,rectangle,-10,-1,1,0,1,-10,-1,1,0,1,1,74,234,33,1,,,,,,,,
,,,,,,,,,,,,,FF,,,,,,,,0.734,,,,,,,,,,,,,,,,,,,,,,60fcd99413d2d738147c7d55,61036f5e3870dce2f2b6666d,2021-07-29_23h19.21.678,Simcolourproject_2stim_asymm_v5,2020.2.10,MacIntel,60,61025ae37ef11b136ea224fe,,,,,,,,,3864,49,-33,1,0,1,response3disk,,5,7,-4,1,0,1,rectangle,7,-4,1,0,1,7,-4,1,0,1,1,75,235,159,1,,,,,,,,
,,,,,,,,,,,,,FF,,,,,,,,0.9,,,,,,,,,,,,,,,,,,,,,,60fcd99413d2d738147c7d55,61036f5e3870dce2f2b6666d,2021-07-29_23h19.21.678,Simcolourproject_2stim_asymm_v5,2020.2.10,MacIntel,60,61025ae37ef11b136ea224fe,,,,,,,,,2465,46,73,1,0,1,response1disk,,7,9,8,1,0,1,rectangle,9,8,1,0,1,9,8,1,0,1,1,76,236,104,1,,,,,,,,
,,,,,,,,,,,,,FF,,,,,,,,1.284,,,,,,,,,,,,,,,,,,,,,,60fcd99413d2d738147c7d55,61036f5e3870dce2f2b6666d,2021-07-29_23h19.21.678,Simcolourproject_2stim_asymm_v5,2020.2.10,MacIntel,60,61025ae37ef11b136ea224fe,,,,,,,,,3301,-37,-70,1,0,1,response5disk,,3,-2,-14,1,0,1,rectangle,-2,-14,1,0,1,-2,-14,1,0,1,1,77,237,95,1,,,,,,,,
,,,,,,,,,,,,,FF,,,,,,,,1.033,,,,,,,,,,,,,,,,,,,,,,60fcd99413d2d738147c7d55,61036f5e3870dce2f2b6666d,2021-07-29_23h19.21.678,Simcolourproject_2stim_asymm_v5,2020.2.10,MacIntel,60,61025ae37ef11b136ea224fe,,,,,,,,,3857,72,-15,1,0,1,response3disk,,5,27,-9,1,0,1,rectangle,27,-9,1,0,1,27,-9,1,0,1,1,78,238,122,1,,,,,,,,
,,,,,,,,,,,,,FF,,,,,,,,1.117,,,,,,,,,,,,,,,,,,,,,,60fcd99413d2d738147c7d55,61036f5e3870dce2f2b6666d,2021-07-29_23h19.21.678,Simcolourproject_2stim_asymm_v5,2020.2.10,MacIntel,60,61025ae37ef11b136ea224fe,,,,,,,,,3269,36,73,1,0,1,response1disk,,7,19,-1,1,0,1,rectangle,19,-1,1,0,1,19,-1,1,0,1,1,79,239,23,1,,,,,,,,
,,,,,,,,,,,,,FF,,,,,,,,0.701,,,,,,,,,,,,,,,,,,,,,,60fcd99413d2d738147c7d55,61036f5e3870dce2f2b6666d,2021-07-29_23h19.21.678,Simcolourproject_2stim_asymm_v5,2020.2.10,MacIntel,60,61025ae37ef11b136ea224fe,,,,,,,,,2387,66,33,1,0,1,response1disk,,6,13,-14,1,0,1,rectangle,-25,-67,1,0,1,12,-1,1,0,1,1,80,240,78,1,,response5disk_3,TRUE,3,3,"[9,70,185,185,13,234,222,138,294,137,249,303,2,274,241,121,61,293,309,217]",1.883,rectangle
,,,,,,,,,,,,,FF,,,,,,,,1.117,,,,,,,,,,,,,,,,,,,,,,60fcd99413d2d738147c7d55,61036f5e3870dce2f2b6666d,2021-07-29_23h19.21.678,Simcolourproject_2stim_asymm_v5,2020.2.10,MacIntel,60,61025ae37ef11b136ea224fe,,,,,,,,,2482,-56,-32,1,0,1,response5disk,,2,13,1,1,0,1,rectangle,13,1,1,0,1,13,1,1,0,1,1,81,241,40,1,,,,,,,,
,,,,,,,,,,,,,FF,,,,,,,,0.801,,,,,,,,,,,,,,,,,,,,,,60fcd99413d2d738147c7d55,61036f5e3870dce2f2b6666d,2021-07-29_23h19.21.678,Simcolourproject_2stim_asymm_v5,2020.2.10,MacIntel,60,61025ae37ef11b136ea224fe,,,,,,,,,1893,-58,38,1,0,1,response7disk,,1,-6,6,1,0,1,rectangle,-6,6,1,0,1,-6,6,1,0,1,1,82,242,137,1,,,,,,,,
,,,,,,,,,,,,,FF,,,,,,,,0.65,,,,,,,,,,,,,,,,,,,,,,60fcd99413d2d738147c7d55,61036f5e3870dce2f2b6666d,2021-07-29_23h19.21.678,Simcolourproject_2stim_asymm_v5,2020.2.10,MacIntel,60,61025ae37ef11b136ea224fe,,,,,,,,,2236,-53,-31,1,0,1,response5disk,,2,16,4,1,0,1,rectangle,16,4,1,0,1,16,4,1,0,1,1,83,243,3,1,,,,,,,,
,,,,,,,,,,,,,FF,,,,,,,,0.717,,,,,,,,,,,,,,,,,,,,,,60fcd99413d2d738147c7d55,61036f5e3870dce2f2b6666d,2021-07-29_23h19.21.678,Simcolourproject_2stim_asymm_v5,2020.2.10,MacIntel,60,61025ae37ef11b136ea224fe,,,,,,,,,1419,42,-32,1,0,1,response3disk,,5,6,-9,1,0,1,rectangle,6,-9,1,0,1,6,-9,1,0,1,1,84,244,44,1,,,,,,,,
,,,,,,,,,,,,,FF,,,,,,,,1.333,,,,,,,,,,,,,,,,,,,,,,60fcd99413d2d738147c7d55,61036f5e3870dce2f2b6666d,2021-07-29_23h19.21.678,Simcolourproject_2stim_asymm_v5,2020.2.10,MacIntel,60,61025ae37ef11b136ea224fe,,,,,,,,,3242,74,33,1,0,1,response1disk,,6,8,12,1,0,1,rectangle,8,12,1,0,1,8,12,1,0,1,1,85,245,99,1,,,,,,,,
,,,,,,,,,,,,,FF,,,,,,,,0.984,,,,,,,,,,,,,,,,,,,,,,60fcd99413d2d738147c7d55,61036f5e3870dce2f2b6666d,2021-07-29_23h19.21.678,Simcolourproject_2stim_asymm_v5,2020.2.10,MacIntel,60,61025ae37ef11b136ea224fe,,,,,,,,,1316,63,-34,1,0,1,response3disk,,5,2,7,1,0,1,rectangle,2,7,1,0,1,2,7,1,0,1,1,86,246,14,1,,,,,,,,
,,,,,,,,,,,,,FF,,,,,,,,0.7,,,,,,,,,,,,,,,,,,,,,,60fcd99413d2d738147c7d55,61036f5e3870dce2f2b6666d,2021-07-29_23h19.21.678,Simcolourproject_2stim_asymm_v5,2020.2.10,MacIntel,60,61025ae37ef11b136ea224fe,,,,,,,,,1577,51,14,1,0,1,response1disk,,6,3,-8,1,0,1,rectangle,3,-8,1,0,1,3,-8,1,0,1,1,87,247,59,1,,,,,,,,
,,,,,,,,,,,,,FF,,,,,,,,0.65,,,,,,,,,,,,,,,,,,,,,,60fcd99413d2d738147c7d55,61036f5e3870dce2f2b6666d,2021-07-29_23h19.21.678,Simcolourproject_2stim_asymm_v5,2020.2.10,MacIntel,60,61025ae37ef11b136ea224fe,,,,,,,,,933,24,89,1,0,1,response1disk,,7,13,-10,1,0,1,rectangle,34,56,1,0,1,1,-2,1,0,1,1,88,248,106,1,,response1disk_3,TRUE,7,7,"[9,70,185,185,13,234,222,138,294,137,249,303,2,274,241,121,61,293,309,217]",1.016,rectangle
,,,,,,,,,,,,,FF,,,,,,,,0.966,,,,,,,,,,,,,,,,,,,,,,60fcd99413d2d738147c7d55,61036f5e3870dce2f2b6666d,2021-07-29_23h19.21.678,Simcolourproject_2stim_asymm_v5,2020.2.10,MacIntel,60,61025ae37ef11b136ea224fe,,,,,,,,,2606,-75,-33,1,0,1,response5disk,,2,-6,0,1,0,1,rectangle,-6,0,1,0,1,-6,0,1,0,1,1,89,249,4,1,,,,,,,,
,,,,,,,,,,,,,FF,,,,,,,,0.749,,,,,,,,,,,,,,,,,,,,,,60fcd99413d2d738147c7d55,61036f5e3870dce2f2b6666d,2021-07-29_23h19.21.678,Simcolourproject_2stim_asymm_v5,2020.2.10,MacIntel,60,61025ae37ef11b136ea224fe,,,,,,,,,3354,40,61,1,0,1,response1disk,,7,8,-12,1,0,1,rectangle,8,-12,1,0,1,8,-12,1,0,1,1,90,250,118,1,,,,,,,,
,,,,,,,,,,,,,FF,,,,,,,,0.616,,,,,,,,,,,,,,,,,,,,,,60fcd99413d2d738147c7d55,61036f5e3870dce2f2b6666d,2021-07-29_23h19.21.678,Simcolourproject_2stim_asymm_v5,2020.2.10,MacIntel,60,61025ae37ef11b136ea224fe,,,,,,,,,4272,86,42,1,0,1,response1disk,,6,3,-11,1,0,1,rectangle,3,-11,1,0,1,3,-11,1,0,1,1,91,251,94,1,,,,,,,,
,,,,,,,,,,,,,FF,,,,,,,,0.65,,,,,,,,,,,,,,,,,,,,,,60fcd99413d2d738147c7d55,61036f5e3870dce2f2b6666d,2021-07-29_23h19.21.678,Simcolourproject_2stim_asymm_v5,2020.2.10,MacIntel,60,61025ae37ef11b136ea224fe,,,,,,,,,2982,85,30,1,0,1,response1disk,,6,-3,1,1,0,1,rectangle,-3,1,1,0,1,-3,1,1,0,1,1,92,252,16,1,,,,,,,,
,,,,,,,,,,,,,FF,,,,,,,,0.766,,,,,,,,,,,,,,,,,,,,,,60fcd99413d2d738147c7d55,61036f5e3870dce2f2b6666d,2021-07-29_23h19.21.678,Simcolourproject_2stim_asymm_v5,2020.2.10,MacIntel,60,61025ae37ef11b136ea224fe,,,,,,,,,2073,87,-37,1,0,1,response3disk,,5,10,6,1,0,1,rectangle,10,6,1,0,1,10,6,1,0,1,1,93,253,69,1,,,,,,,,
,,,,,,,,,,,,,FF,,,,,,,,0.615,,,,,,,,,,,,,,,,,,,,,,60fcd99413d2d738147c7d55,61036f5e3870dce2f2b6666d,2021-07-29_23h19.21.678,Simcolourproject_2stim_asymm_v5,2020.2.10,MacIntel,60,61025ae37ef11b136ea224fe,,,,,,,,,1112,56,27,1,0,1,response1disk,,6,-3,-2,1,0,1,rectangle,-3,-2,1,0,1,-3,-2,1,0,1,1,94,254,103,1,,,,,,,,
,,,,,,,,,,,,,FF,,,,,,,,0.951,,,,,,,,,,,,,,,,,,,,,,60fcd99413d2d738147c7d55,61036f5e3870dce2f2b6666d,2021-07-29_23h19.21.678,Simcolourproject_2stim_asymm_v5,2020.2.10,MacIntel,60,61025ae37ef11b136ea224fe,,,,,,,,,2254,34,-60,1,0,1,response3disk,,4,-8,9,1,0,1,rectangle,-8,9,1,0,1,-8,9,1,0,1,1,95,255,35,1,,,,,,,,
,,,,,,,,,,,,,FF,,,,,,,,0.802,,,,,,,,,,,,,,,,,,,,,,60fcd99413d2d738147c7d55,61036f5e3870dce2f2b6666d,2021-07-29_23h19.21.678,Simcolourproject_2stim_asymm_v5,2020.2.10,MacIntel,60,61025ae37ef11b136ea224fe,,,,,,,,,1125,59,-30,1,0,1,response3disk,,5,10,-9,1,0,1,rectangle,10,-9,1,0,1,10,-9,1,0,1,1,96,256,52,1,,,,,,,,
,,,,,,,,,,,,,FF,,,,,,,,0.7,,,,,,,,,,,,,,,,,,,,,,60fcd99413d2d738147c7d55,61036f5e3870dce2f2b6666d,2021-07-29_23h19.21.678,Simcolourproject_2stim_asymm_v5,2020.2.10,MacIntel,60,61025ae37ef11b136ea224fe,,,,,,,,,2669,-82,-18,1,0,1,response5disk,,2,-25,5,1,0,1,rectangle,-25,5,1,0,1,-25,5,1,0,1,1,97,257,1,1,,,,,,,,
,,,,,,,,,,,,,FF,,,,,,,,4.868,,,,,,,,,,,,,,,,,,,,,,60fcd99413d2d738147c7d55,61036f5e3870dce2f2b6666d,2021-07-29_23h19.21.678,Simcolourproject_2stim_asymm_v5,2020.2.10,MacIntel,60,61025ae37ef11b136ea224fe,,,,,,,,,3104,-71,46,1,0,1,response7disk,,1,6,-7,1,0,1,rectangle,6,-7,1,0,1,6,-7,1,0,1,1,98,258,70,1,,,,,,,,
,,,,,,,,,,,,,FF,,,,,,,,0.718,,,,,,,,,,,,,,,,,,,,,,60fcd99413d2d738147c7d55,61036f5e3870dce2f2b6666d,2021-07-29_23h19.21.678,Simcolourproject_2stim_asymm_v5,2020.2.10,MacIntel,60,61025ae37ef11b136ea224fe,,,,,,,,,279,-65,37,1,0,1,response7disk,,1,-29,8,1,0,1,rectangle,-29,8,1,0,1,-29,8,1,0,1,1,99,259,55,1,,,,,,,,
,,,,,,,,,,,,,FF,,,,,,,,0.916,,,,,,,,,,,,,,,,,,,,,,60fcd99413d2d738147c7d55,61036f5e3870dce2f2b6666d,2021-07-29_23h19.21.678,Simcolourproject_2stim_asymm_v5,2020.2.10,MacIntel,60,61025ae37ef11b136ea224fe,,,,,,,,,4050,-61,-40,1,0,1,response5disk,,2,8,-5,1,0,1,rectangle,8,-5,1,0,1,8,-5,1,0,1,1,100,260,6,1,,,,,,,,
,,,,,,,,,,,,,FF,,,,,,,,0.75,,,,,,,,,,,,,,,,,,,,,,60fcd99413d2d738147c7d55,61036f5e3870dce2f2b6666d,2021-07-29_23h19.21.678,Simcolourproject_2stim_asymm_v5,2020.2.10,MacIntel,60,61025ae37ef11b136ea224fe,,,,,,,,,3439,-43,23,1,0,1,response7disk,,1,0,1,1,0,1,rectangle,0,1,1,0,1,0,1,1,0,1,1,101,261,50,1,,,,,,,,
,,,,,,,,,,,,,FF,,,,,,,,0.849,,,,,,,,,,,,,,,,,,,,,,60fcd99413d2d738147c7d55,61036f5e3870dce2f2b6666d,2021-07-29_23h19.21.678,Simcolourproject_2stim_asymm_v5,2020.2.10,MacIntel,60,61025ae37ef11b136ea224fe,,,,,,,,,2591,23,-69,1,0,1,response3disk,,4,6,-7,1,0,1,rectangle,6,-7,1,0,1,6,-7,1,0,1,1,102,262,119,1,,,,,,,,
,,,,,,,,,,,,,FF,,,,,,,,0.884,,,,,,,,,,,,,,,,,,,,,,60fcd99413d2d738147c7d55,61036f5e3870dce2f2b6666d,2021-07-29_23h19.21.678,Simcolourproject_2stim_asymm_v5,2020.2.10,MacIntel,60,61025ae37ef11b136ea224fe,,,,,,,,,3235,47,-21,1,0,1,response3disk,,5,6,7,1,0,1,rectangle,6,7,1,0,1,6,7,1,0,1,1,103,263,128,1,,,,,,,,
,,,,,,,,,,,,,FF,,,,,,,,0.949,,,,,,,,,,,,,,,,,,,,,,60fcd99413d2d738147c7d55,61036f5e3870dce2f2b6666d,2021-07-29_23h19.21.678,Simcolourproject_2stim_asymm_v5,2020.2.10,MacIntel,60,61025ae37ef11b136ea224fe,,,,,,,,,3021,68,36,1,0,1,response1disk,,6,-8,-8,1,0,1,rectangle,-8,-8,1,0,1,-8,-8,1,0,1,1,104,264,9,1,,,,,,,,
,,,,,,,,,,,,,FF,,,,,,,,0.9,,,,,,,,,,,,,,,,,,,,,,60fcd99413d2d738147c7d55,61036f5e3870dce2f2b6666d,2021-07-29_23h19.21.678,Simcolourproject_2stim_asymm_v5,2020.2.10,MacIntel,60,61025ae37ef11b136ea224fe,,,,,,,,,3374,-73,-14,1,0,1,response5disk,,2,-5,-1,1,0,1,rectangle,-5,-1,1,0,1,-5,-1,1,0,1,1,105,265,36,1,,,,,,,,
,,,,,,,,,,,,,FF,,,,,,,,1.167,,,,,,,,,,,,,,,,,,,,,,60fcd99413d2d738147c7d55,61036f5e3870dce2f2b6666d,2021-07-29_23h19.21.678,Simcolourproject_2stim_asymm_v5,2020.2.10,MacIntel,60,61025ae37ef11b136ea224fe,,,,,,,,,2817,45,-73,1,0,1,response3disk,,4,13,-3,1,0,1,rectangle,13,-3,1,0,1,13,-3,1,0,1,1,106,266,113,1,,,,,,,,
,,,,,,,,,,,,,FF,,,,,,,,1.35,,,,,,,,,,,,,,,,,,,,,,60fcd99413d2d738147c7d55,61036f5e3870dce2f2b6666d,2021-07-29_23h19.21.678,Simcolourproject_2stim_asymm_v5,2020.2.10,MacIntel,60,61025ae37ef11b136ea224fe,,,,,,,,,397,50,-24,1,0,1,response3disk,,5,5,4,1,0,1,rectangle,5,4,1,0,1,5,4,1,0,1,1,107,267,19,1,,,,,,,,
,,,,,,,,,,,,,FF,,,,,,,,0.915,,,,,,,,,,,,,,,,,,,,,,60fcd99413d2d738147c7d55,61036f5e3870dce2f2b6666d,2021-07-29_23h19.21.678,Simcolourproject_2stim_asymm_v5,2020.2.10,MacIntel,60,61025ae37ef11b136ea224fe,,,,,,,,,1355,55,-19,1,0,1,response3disk,,5,4,-1,1,0,1,rectangle,4,-1,1,0,1,4,-1,1,0,1,1,108,268,79,1,,,,,,,,
,,,,,,,,,,,,,FF,,,,,,,,0.884,,,,,,,,,,,,,,,,,,,,,,60fcd99413d2d738147c7d55,61036f5e3870dce2f2b6666d,2021-07-29_23h19.21.678,Simcolourproject_2stim_asymm_v5,2020.2.10,MacIntel,60,61025ae37ef11b136ea224fe,,,,,,,,,1793,66,35,1,0,1,response1disk,,6,-1,6,1,0,1,rectangle,-1,6,1,0,1,-1,6,1,0,1,1,109,269,17,1,,,,,,,,
,,,,,,,,,,,,,FF,,,,,,,,1.033,,,,,,,,,,,,,,,,,,,,,,60fcd99413d2d738147c7d55,61036f5e3870dce2f2b6666d,2021-07-29_23h19.21.678,Simcolourproject_2stim_asymm_v5,2020.2.10,MacIntel,60,61025ae37ef11b136ea224fe,,,,,,,,,2154,60,-32,1,0,1,response3disk,,5,17,-8,1,0,1,rectangle,17,-8,1,0,1,17,-8,1,0,1,1,110,270,46,1,,,,,,,,
,,,,,,,,,,,,,FF,,,,,,,,0.867,,,,,,,,,,,,,,,,,,,,,,60fcd99413d2d738147c7d55,61036f5e3870dce2f2b6666d,2021-07-29_23h19.21.678,Simcolourproject_2stim_asymm_v5,2020.2.10,MacIntel,60,61025ae37ef11b136ea224fe,,,,,,,,,3549,31,-57,1,0,1,response3disk,,4,7,7,1,0,1,rectangle,7,7,1,0,1,7,7,1,0,1,1,111,271,152,1,,,,,,,,
,,,,,,,,,,,,,FF,,,,,,,,1.9,,,,,,,,,,,,,,,,,,,,,,60fcd99413d2d738147c7d55,61036f5e3870dce2f2b6666d,2021-07-29_23h19.21.678,Simcolourproject_2stim_asymm_v5,2020.2.10,MacIntel,60,61025ae37ef11b136ea224fe,,,,,,,,,893,-65,17,1,0,1,response7disk,,1,26,7,1,0,1,rectangle,26,7,1,0,1,26,7,1,0,1,1,112,272,53,1,,,,,,,,
,,,,,,,,,,,,,FF,,,,,,,,1.6,,,,,,,,,,,,,,,,,,,,,,60fcd99413d2d738147c7d55,61036f5e3870dce2f2b6666d,2021-07-29_23h19.21.678,Simcolourproject_2stim_asymm_v5,2020.2.10,MacIntel,60,61025ae37ef11b136ea224fe,,,,,,,,,4335,-30,86,1,0,1,response7disk,,0,12,-8,1,0,1,rectangle,-72,-21,1,0,1,2,-6,1,0,1,1,113,273,138,1,,response5disk_3,TRUE,2,2,"[9,70,185,185,13,234,222,138,294,137,249,303,2,274,241,121,61,293,309,217]",1.35,rectangle
,,,,,,,,,,,,,FF,,,,,,,,0.817,,,,,,,,,,,,,,,,,,,,,,60fcd99413d2d738147c7d55,61036f5e3870dce2f2b6666d,2021-07-29_23h19.21.678,Simcolourproject_2stim_asymm_v5,2020.2.10,MacIntel,60,61025ae37ef11b136ea224fe,,,,,,,,,3764,-36,-73,1,0,1,response5disk,,3,-21,-5,1,0,1,rectangle,-21,-5,1,0,1,-21,-5,1,0,1,1,114,274,146,1,,,,,,,,
,,,,,,,,,,,,,FF,,,,,,,,0.649,,,,,,,,,,,,,,,,,,,,,,60fcd99413d2d738147c7d55,61036f5e3870dce2f2b6666d,2021-07-29_23h19.21.678,Simcolourproject_2stim_asymm_v5,2020.2.10,MacIntel,60,61025ae37ef11b136ea224fe,,,,,,,,,927,46,61,1,0,1,response1disk,,7,20,-2,1,0,1,rectangle,20,-2,1,0,1,20,-2,1,0,1,1,115,275,100,1,,,,,,,,
,,,,,,,,,,,,,FF,,,,,,,,0.784,,,,,,,,,,,,,,,,,,,,,,60fcd99413d2d738147c7d55,61036f5e3870dce2f2b6666d,2021-07-29_23h19.21.678,Simcolourproject_2stim_asymm_v5,2020.2.10,MacIntel,60,61025ae37ef11b136ea224fe,,,,,,,,,289,65,-51,1,0,1,response3disk,,5,-6,-2,1,0,1,rectangle,-6,-2,1,0,1,-6,-2,1,0,1,1,116,276,37,1,,,,,,,,
,,,,,,,,,,,,,FF,,,,,,,,0.95,,,,,,,,,,,,,,,,,,,,,,60fcd99413d2d738147c7d55,61036f5e3870dce2f2b6666d,2021-07-29_23h19.21.678,Simcolourproject_2stim_asymm_v5,2020.2.10,MacIntel,60,61025ae37ef11b136ea224fe,,,,,,,,,3174,44,-24,1,0,1,response3disk,,5,-4,-4,1,0,1,rectangle,-4,-4,1,0,1,-4,-4,1,0,1,1,117,277,91,1,,,,,,,,
,,,,,,,,,,,,,FF,,,,,,,,0.8,,,,,,,,,,,,,,,,,,,,,,60fcd99413d2d738147c7d55,61036f5e3870dce2f2b6666d,2021-07-29_23h19.21.678,Simcolourproject_2stim_asymm_v5,2020.2.10,MacIntel,60,61025ae37ef11b136ea224fe,,,,,,,,,2242,-33,-59,1,0,1,response5disk,,3,-26,-16,1,0,1,rectangle,-26,-16,1,0,1,-26,-16,1,0,1,1,118,278,10,1,,,,,,,,
,,,,,,,,,,,,,FF,,,,,,,,2.084,,,,,,,,,,,,,,,,,,,,,,60fcd99413d2d738147c7d55,61036f5e3870dce2f2b6666d,2021-07-29_23h19.21.678,Simcolourproject_2stim_asymm_v5,2020.2.10,MacIntel,60,61025ae37ef11b136ea224fe,,,,,,,,,2179,67,-24,1,0,1,response3disk,,5,12,-7,1,0,1,rectangle,12,-7,1,0,1,12,-7,1,0,1,1,119,279,151,1,,,,,,,,
,,,,,,,,,,,,,FF,,,,,,,,0.768,,,,,,,,,,,,,,,,,,,,,,60fcd99413d2d738147c7d55,61036f5e3870dce2f2b6666d,2021-07-29_23h19.21.678,Simcolourproject_2stim_asymm_v5,2020.2.10,MacIntel,60,61025ae37ef11b136ea224fe,,,,,,,,,2667,-65,22,1,0,1,response7disk,,1,5,-9,1,0,1,rectangle,5,-9,1,0,1,5,-9,1,0,1,1,120,280,39,1,,,,,,,,
,,,,,,,,,,,,,FF,,,,,,,,1.5,,,,,,,,,,,,,,,,,,,,,,60fcd99413d2d738147c7d55,61036f5e3870dce2f2b6666d,2021-07-29_23h19.21.678,Simcolourproject_2stim_asymm_v5,2020.2.10,MacIntel,60,61025ae37ef11b136ea224fe,,,,,,,,,999,57,-40,1,0,1,response3disk,,5,10,-9,1,0,1,rectangle,10,-9,1,0,1,10,-9,1,0,1,1,121,281,115,1,,,,,,,,
,,,,,,,,,,,,,FF,,,,,,,,0.799,,,,,,,,,,,,,,,,,,,,,,60fcd99413d2d738147c7d55,61036f5e3870dce2f2b6666d,2021-07-29_23h19.21.678,Simcolourproject_2stim_asymm_v5,2020.2.10,MacIntel,60,61025ae37ef11b136ea224fe,,,,,,,,,3682,19,-30,1,0,1,response3disk,,4,6,3,1,0,1,rectangle,6,3,1,0,1,6,3,1,0,1,1,122,282,86,1,,,,,,,,
,,,,,,,,,,,,,FF,,,,,,,,0.8,,,,,,,,,,,,,,,,,,,,,,60fcd99413d2d738147c7d55,61036f5e3870dce2f2b6666d,2021-07-29_23h19.21.678,Simcolourproject_2stim_asymm_v5,2020.2.10,MacIntel,60,61025ae37ef11b136ea224fe,,,,,,,,,519,23,-43,1,0,1,response3disk,,4,13,-7,1,0,1,rectangle,13,-7,1,0,1,13,-7,1,0,1,1,123,283,144,1,,,,,,,,
,,,,,,,,,,,,,FF,,,,,,,,0.734,,,,,,,,,,,,,,,,,,,,,,60fcd99413d2d738147c7d55,61036f5e3870dce2f2b6666d,2021-07-29_23h19.21.678,Simcolourproject_2stim_asymm_v5,2020.2.10,MacIntel,60,61025ae37ef11b136ea224fe,,,,,,,,,47,34,61,1,0,1,response1disk,,7,18,8,1,0,1,rectangle,18,8,1,0,1,18,8,1,0,1,1,124,284,141,1,,,,,,,,
,,,,,,,,,,,,,FF,,,,,,,,0.501,,,,,,,,,,,,,,,,,,,,,,60fcd99413d2d738147c7d55,61036f5e3870dce2f2b6666d,2021-07-29_23h19.21.678,Simcolourproject_2stim_asymm_v5,2020.2.10,MacIntel,60,61025ae37ef11b136ea224fe,,,,,,,,,521,48,27,1,0,1,response1disk,,6,7,-7,1,0,1,rectangle,7,-7,1,0,1,7,-7,1,0,1,1,125,285,18,1,,,,,,,,
,,,,,,,,,,,,,FF,,,,,,,,1.1,,,,,,,,,,,,,,,,,,,,,,60fcd99413d2d738147c7d55,61036f5e3870dce2f2b6666d,2021-07-29_23h19.21.678,Simcolourproject_2stim_asymm_v5,2020.2.10,MacIntel,60,61025ae37ef11b136ea224fe,,,,,,,,,75,52,-27,1,0,1,response3disk,,5,-3,-6,1,0,1,rectangle,-3,-6,1,0,1,-3,-6,1,0,1,1,126,286,54,1,,,,,,,,
,,,,,,,,,,,,,FF,,,,,,,,0.784,,,,,,,,,,,,,,,,,,,,,,60fcd99413d2d738147c7d55,61036f5e3870dce2f2b6666d,2021-07-29_23h19.21.678,Simcolourproject_2stim_asymm_v5,2020.2.10,MacIntel,60,61025ae37ef11b136ea224fe,,,,,,,,,503,57,25,1,0,1,response1disk,,6,6,-1,1,0,1,rectangle,6,-1,1,0,1,6,-1,1,0,1,1,127,287,26,1,,,,,,,,
,,,,,,,,,,,,,FF,,,,,,,,0.516,,,,,,,,,,,,,,,,,,,,,,60fcd99413d2d738147c7d55,61036f5e3870dce2f2b6666d,2021-07-29_23h19.21.678,Simcolourproject_2stim_asymm_v5,2020.2.10,MacIntel,60,61025ae37ef11b136ea224fe,,,,,,,,,3076,24,48,1,0,1,response1disk,,7,11,6,1,0,1,rectangle,11,6,1,0,1,11,6,1,0,1,1,128,288,158,1,,,,,,,,
,,,,,,,,,,,,,FF,,,,,,,,0.484,,,,,,,,,,,,,,,,,,,,,,60fcd99413d2d738147c7d55,61036f5e3870dce2f2b6666d,2021-07-29_23h19.21.678,Simcolourproject_2stim_asymm_v5,2020.2.10,MacIntel,60,61025ae37ef11b136ea224fe,,,,,,,,,1715,26,44,1,0,1,response1disk,,7,14,-1,1,0,1,rectangle,14,-1,1,0,1,14,-1,1,0,1,1,129,289,27,1,,,,,,,,
,,,,,,,,,,,,,FF,,,,,,,,1.785,,,,,,,,,,,,,,,,,,,,,,60fcd99413d2d738147c7d55,61036f5e3870dce2f2b6666d,2021-07-29_23h19.21.678,Simcolourproject_2stim_asymm_v5,2020.2.10,MacIntel,60,61025ae37ef11b136ea224fe,,,,,,,,,3401,34,56,1,0,1,response1disk,,7,18,12,1,0,1,rectangle,18,12,1,0,1,18,12,1,0,1,1,130,290,25,1,,,,,,,,
,,,,,,,,,,,,,FF,,,,,,,,0.549,,,,,,,,,,,,,,,,,,,,,,60fcd99413d2d738147c7d55,61036f5e3870dce2f2b6666d,2021-07-29_23h19.21.678,Simcolourproject_2stim_asymm_v5,2020.2.10,MacIntel,60,61025ae37ef11b136ea224fe,,,,,,,,,4133,61,35,1,0,1,response1disk,,6,8,-11,1,0,1,rectangle,8,-11,1,0,1,8,-11,1,0,1,1,131,291,148,1,,,,,,,,
,,,,,,,,,,,,,FF,,,,,,,,0.932,,,,,,,,,,,,,,,,,,,,,,60fcd99413d2d738147c7d55,61036f5e3870dce2f2b6666d,2021-07-29_23h19.21.678,Simcolourproject_2stim_asymm_v5,2020.2.10,MacIntel,60,61025ae37ef11b136ea224fe,,,,,,,,,4295,-52,-24,1,0,1,response5disk,,2,-1,8,1,0,1,rectangle,26,-86,1,0,1,-2,-1,1,0,1,1,132,292,8,1,,response3disk_3,TRUE,4,4,"[9,70,185,185,13,234,222,138,294,137,249,303,2,274,241,121,61,293,309,217]",1.566,rectangle
,,,,,,,,,,,,,FF,,,,,,,,1.151,,,,,,,,,,,,,,,,,,,,,,60fcd99413d2d738147c7d55,61036f5e3870dce2f2b6666d,2021-07-29_23h19.21.678,Simcolourproject_2stim_asymm_v5,2020.2.10,MacIntel,60,61025ae37ef11b136ea224fe,,,,,,,,,3681,38,-56,1,0,1,response3disk,,4,15,-9,1,0,1,rectangle,31,-58,1,0,1,15,2,1,0,1,1,133,293,127,1,,response3disk_3,TRUE,4,4,"[9,70,185,185,13,234,222,138,294,137,249,303,2,274,241,121,61,293,309,217]",1.516,rectangle
,,,,,,,,,,,,,FF,,,,,,,,0.749,,,,,,,,,,,,,,,,,,,,,,60fcd99413d2d738147c7d55,61036f5e3870dce2f2b6666d,2021-07-29_23h19.21.678,Simcolourproject_2stim_asymm_v5,2020.2.10,MacIntel,60,61025ae37ef11b136ea224fe,,,,,,,,,2293,-51,-79,1,0,1,response5disk,,3,-3,-2,1,0,1,rectangle,-3,-2,1,0,1,-3,-2,1,0,1,1,134,294,98,1,,,,,,,,
,,,,,,,,,,,,,FF,,,,,,,,0.9,,,,,,,,,,,,,,,,,,,,,,60fcd99413d2d738147c7d55,61036f5e3870dce2f2b6666d,2021-07-29_23h19.21.678,Simcolourproject_2stim_asymm_v5,2020.2.10,MacIntel,60,61025ae37ef11b136ea224fe,,,,,,,,,472,29,-60,1,0,1,response3disk,,4,9,-7,1,0,1,rectangle,9,-7,1,0,1,9,-7,1,0,1,1,135,295,0,1,,,,,,,,
,,,,,,,,,,,,,FF,,,,,,,,0.75,,,,,,,,,,,,,,,,,,,,,,60fcd99413d2d738147c7d55,61036f5e3870dce2f2b6666d,2021-07-29_23h19.21.678,Simcolourproject_2stim_asymm_v5,2020.2.10,MacIntel,60,61025ae37ef11b136ea224fe,,,,,,,,,1274,34,-37,1,0,1,response3disk,,4,9,11,1,0,1,rectangle,9,11,1,0,1,9,11,1,0,1,1,136,296,66,1,,,,,,,,
,,,,,,,,,,,,,FF,,,,,,,,0.8,,,,,,,,,,,,,,,,,,,,,,60fcd99413d2d738147c7d55,61036f5e3870dce2f2b6666d,2021-07-29_23h19.21.678,Simcolourproject_2stim_asymm_v5,2020.2.10,MacIntel,60,61025ae37ef11b136ea224fe,,,,,,,,,743,76,42,1,0,1,response1disk,,6,-2,7,1,0,1,rectangle,-2,7,1,0,1,-2,7,1,0,1,1,137,297,134,1,,,,,,,,
,,,,,,,,,,,,,FF,,,,,,,,1.034,,,,,,,,,,,,,,,,,,,,,,60fcd99413d2d738147c7d55,61036f5e3870dce2f2b6666d,2021-07-29_23h19.21.678,Simcolourproject_2stim_asymm_v5,2020.2.10,MacIntel,60,61025ae37ef11b136ea224fe,,,,,,,,,374,-41,-54,1,0,1,response5disk,,3,-6,11,1,0,1,rectangle,-6,11,1,0,1,-6,11,1,0,1,1,138,298,116,1,,,,,,,,
,,,,,,,,,,,,,FF,,,,,,,,0.784,,,,,,,,,,,,,,,,,,,,,,60fcd99413d2d738147c7d55,61036f5e3870dce2f2b6666d,2021-07-29_23h19.21.678,Simcolourproject_2stim_asymm_v5,2020.2.10,MacIntel,60,61025ae37ef11b136ea224fe,,,,,,,,,2589,31,-58,1,0,1,response3disk,,4,15,5,1,0,1,rectangle,15,5,1,0,1,15,5,1,0,1,1,139,299,74,1,,,,,,,,
,,,,,,,,,,,,,FF,,,,,,,,0.733,,,,,,,,,,,,,,,,,,,,,,60fcd99413d2d738147c7d55,61036f5e3870dce2f2b6666d,2021-07-29_23h19.21.678,Simcolourproject_2stim_asymm_v5,2020.2.10,MacIntel,60,61025ae37ef11b136ea224fe,,,,,,,,,4210,52,20,1,0,1,response1disk,,6,16,-3,1,0,1,rectangle,16,-3,1,0,1,16,-3,1,0,1,1,140,300,42,1,,,,,,,,
,,,,,,,,,,,,,FF,,,,,,,,1.082,,,,,,,,,,,,,,,,,,,,,,60fcd99413d2d738147c7d55,61036f5e3870dce2f2b6666d,2021-07-29_23h19.21.678,Simcolourproject_2stim_asymm_v5,2020.2.10,MacIntel,60,61025ae37ef11b136ea224fe,,,,,,,,,3283,-69,-33,1,0,1,response5disk,,2,-7,-2,1,0,1,rectangle,-7,-2,1,0,1,-7,-2,1,0,1,1,141,301,132,1,,,,,,,,
