key_resp.keys,key_resp.rt,key_resp_14.keys,key_resp_14.rt,key_resp_15.keys,key_resp_15.rt,key_resp_17.keys,key_resp_17.rt,key_resp_9.keys,key_resp_9.rt,key_resp_10.keys,key_resp_10.rt,practice_comparison,Ecc,mouse_5.x,mouse_5.y,mouse_5.leftButton,mouse_5.midButton,mouse_5.rightButton,mouse_5.clicked_name,pracsimilarity,response_time,mouse_10.x,mouse_10.y,mouse_10.leftButton,mouse_10.midButton,mouse_10.rightButton,mouse_10.clicked_name,mouse_7.x,mouse_7.y,mouse_7.leftButton,mouse_7.midButton,mouse_7.rightButton,mouse_6.x,mouse_6.y,mouse_6.leftButton,mouse_6.midButton,mouse_6.rightButton,duringprac.thisRepN,duringprac.thisTrialN,duringprac.thisN,duringprac.thisIndex,duringprac.ran,participant,session,date,expName,psychopyVersion,OS,frameRate,study_id,mouse_7.clicked_name,catchpracsimilarity,catch_response_time,catchnumberprac,catchtrialorderprac,mouse_6.clicked_name,key_resp_22.keys,key_resp_22.rt,realcomparison,mouse.x,mouse.y,mouse.leftButton,mouse.midButton,mouse.rightButton,mouse.clicked_name,Colour2,similarity,mouse_2.x,mouse_2.y,mouse_2.leftButton,mouse_2.midButton,mouse_2.rightButton,mouse_2.clicked_name,mouse_3.x,mouse_3.y,mouse_3.leftButton,mouse_3.midButton,mouse_3.rightButton,mouse_11.x,mouse_11.y,mouse_11.leftButton,mouse_11.midButton,mouse_11.rightButton,trials_2.thisRepN,trials_2.thisTrialN,trials_2.thisN,trials_2.thisIndex,trials_2.ran,Colour1,mouse_3.clicked_name,catchornah,catchsimilarity,catchnumber,catchtrialorder,catchRT,mouse_11.clicked_name
space,1.0217,space,45.8283,space,45.806,space,8.2889,space,0.9492,space,6.676,23,PF,-67.99998957,-98.4000079,1,0,0,response5disk_5,3,7.1669,1.600060296,7.999993682,1,0,0,rectangle_8,1.600060296,7.999993682,1,0,0,1.600060296,7.999993682,1,0,0,0,0,0,4,1,60fcdebbef41e08776de751f,61037107e7d532e90980a526,2021-07-29_23h56.33.015,Simcolourproject_2stim_asymm_v5,2020.2.10,Win32,60,61025ae37ef11b136ea224fe,,,,,,,,,,,,,,,,,,,,,,,,,,,,,,,,,,,,,,,,,,,,,,
,,,,,,,,,,,,8,FF,-95.19998997,47.99999428,1,0,0,response7disk_5,1,8.1486,9.600060415,8.799993694,1,0,0,rectangle_8,-95.19998997,-57.6000073,1,0,0,11.20001161,3.999993622,1,0,0,0,1,1,3,1,60fcdebbef41e08776de751f,61037107e7d532e90980a526,2021-07-29_23h56.33.015,Simcolourproject_2stim_asymm_v5,2020.2.10,Win32,60,61025ae37ef11b136ea224fe,response5disk_7,2,3.6667,2,"[2,5]",rectangle_4,,,,,,,,,,,,,,,,,,,,,,,,,,,,,,,,,,,,,,,,
,,,,,,,,,,,,52,FF,-31.19998902,75.19997027,1,0,0,response7disk_5,0,2.7167,-5.599988639,-0.800006449,1,0,0,rectangle_8,-5.599988639,-0.800006449,1,0,0,-5.599988639,-0.800006449,1,0,0,0,2,2,5,1,60fcdebbef41e08776de751f,61037107e7d532e90980a526,2021-07-29_23h56.33.015,Simcolourproject_2stim_asymm_v5,2020.2.10,Win32,60,61025ae37ef11b136ea224fe,,,,,,,,,,,,,,,,,,,,,,,,,,,,,,,,,,,,,,,,,,,,,,
,,,,,,,,,,,,48,PF,117.6000132,-50.40000719,1,0,0,response3disk_5,5,3.6166,-7.999988675,10.39999372,1,0,0,rectangle_8,-7.999988675,10.39999372,1,0,0,-7.999988675,10.39999372,1,0,0,0,3,3,6,1,60fcdebbef41e08776de751f,61037107e7d532e90980a526,2021-07-29_23h56.33.015,Simcolourproject_2stim_asymm_v5,2020.2.10,Win32,60,61025ae37ef11b136ea224fe,,,,,,,,,,,,,,,,,,,,,,,,,,,,,,,,,,,,,,,,,,,,,,
,,,,,,,,,,,,9,FF,43.20001209,90.39999491,1,0,0,response1disk_5,7,5.2324,7.200011551,-6.4373E-06,1,0,0,rectangle_8,-61.59998947,-49.60000718,1,0,0,8.000011563,-5.600006521,1,0,0,0,4,4,0,1,60fcdebbef41e08776de751f,61037107e7d532e90980a526,2021-07-29_23h56.33.015,Simcolourproject_2stim_asymm_v5,2020.2.10,Win32,60,61025ae37ef11b136ea224fe,response5disk_7,2,2.4048,2,"[2,5]",rectangle_4,,,,,,,,,,,,,,,,,,,,,,,,,,,,,,,,,,,,,,,,
,,,,,,,,,,,,118,PF,116.8000132,-48.80000716,1,0,0,response3disk_5,5,5.1201,1.14441E-05,-12.80000663,1,0,0,rectangle_8,1.14441E-05,-12.80000663,1,0,0,1.14441E-05,-12.80000663,1,0,0,0,5,5,1,1,60fcdebbef41e08776de751f,61037107e7d532e90980a526,2021-07-29_23h56.33.015,Simcolourproject_2stim_asymm_v5,2020.2.10,Win32,60,61025ae37ef11b136ea224fe,,,,,,,,,,,,,,,,,,,,,,,,,,,,,,,,,,,,,,,,,,,,,,
,,,,,,,,,,,,130,PF,-40.79998916,-84.8000077,1,0,0,response5disk_5,3,2.1196,13.60006047,-5.600006521,1,0,0,rectangle_8,13.60006047,-5.600006521,1,0,0,13.60006047,-5.600006521,1,0,0,0,6,6,2,1,60fcdebbef41e08776de751f,61037107e7d532e90980a526,2021-07-29_23h56.33.015,Simcolourproject_2stim_asymm_v5,2020.2.10,Win32,60,61025ae37ef11b136ea224fe,,,,,,,,,,,,,,,,,,,,,,,,,,,,,,,,,,,,,,,,,,,,,,
,,,,,,,,,,,,,FF,,,,,,,,5.9328,,,,,,,,,,,,,,,,,,,,,,60fcdebbef41e08776de751f,61037107e7d532e90980a526,2021-07-29_23h56.33.015,Simcolourproject_2stim_asymm_v5,2020.2.10,Win32,60,61025ae37ef11b136ea224fe,,,,,,,space,3.7927,3651,102.400013,47.99999428,1,0,0,response1disk,,6,16.80001169,-3.200006485,1,0,0,rectangle,16.80001169,-3.200006485,1,0,0,16.80001169,-3.200006485,1,0,0,0,0,0,23,1,,,,,,,,
,,,,,,,,,,,,,FF,,,,,,,,3.2495,,,,,,,,,,,,,,,,,,,,,,60fcdebbef41e08776de751f,61037107e7d532e90980a526,2021-07-29_23h56.33.015,Simcolourproject_2stim_asymm_v5,2020.2.10,Win32,60,61025ae37ef11b136ea224fe,,,,,,,,,1640,28.00001186,99.19997063,1,0,0,response1disk,,7,-10.39993988,3.19999361,1,0,0,rectangle,-10.39993988,3.19999361,1,0,0,-10.39993988,3.19999361,1,0,0,0,1,1,60,1,,,,,,,,
,,,,,,,,,,,,,FF,,,,,,,,2.9995,,,,,,,,,,,,,,,,,,,,,,60fcdebbef41e08776de751f,61037107e7d532e90980a526,2021-07-29_23h56.33.015,Simcolourproject_2stim_asymm_v5,2020.2.10,Win32,60,61025ae37ef11b136ea224fe,,,,,,,,,601,116.8000132,45.59999424,1,0,0,response1disk,,6,23.20001179,-1.600006461,1,0,0,rectangle,23.20001179,-1.600006461,1,0,0,23.20001179,-1.600006461,1,0,0,0,2,2,21,1,,,,,,,,
,,,,,,,,,,,,,FF,,,,,,,,1.4498,,,,,,,,,,,,,,,,,,,,,,60fcdebbef41e08776de751f,61037107e7d532e90980a526,2021-07-29_23h56.33.015,Simcolourproject_2stim_asymm_v5,2020.2.10,Win32,60,61025ae37ef11b136ea224fe,,,,,,,,,3757,33.60006077,-88.80000776,1,0,0,response3disk,,4,22.40001178,5.599993646,1,0,0,rectangle,22.40001178,5.599993646,1,0,0,22.40001178,5.599993646,1,0,0,0,3,3,64,1,,,,,,,,
,,,,,,,,,,,,,FF,,,,,,,,1.183,,,,,,,,,,,,,,,,,,,,,,60fcdebbef41e08776de751f,61037107e7d532e90980a526,2021-07-29_23h56.33.015,Simcolourproject_2stim_asymm_v5,2020.2.10,Win32,60,61025ae37ef11b136ea224fe,,,,,,,,,1775,48.00001216,-99.20000792,1,0,0,response3disk,,4,7.200011551,10.39999372,1,0,0,rectangle,7.200011551,10.39999372,1,0,0,7.200011551,10.39999372,1,0,0,0,4,4,25,1,,,,,,,,
,,,,,,,,,,,,,FF,,,,,,,,4.3324,,,,,,,,,,,,,,,,,,,,,,60fcdebbef41e08776de751f,61037107e7d532e90980a526,2021-07-29_23h56.33.015,Simcolourproject_2stim_asymm_v5,2020.2.10,Win32,60,61025ae37ef11b136ea224fe,,,,,,,,,2548,116.8000132,-52.00000721,1,0,0,response3disk,,5,16.00001168,-4.800006509,1,0,0,rectangle,16.00001168,-4.800006509,1,0,0,16.00001168,-4.800006509,1,0,0,0,5,5,71,1,,,,,,,,
,,,,,,,,,,,,,FF,,,,,,,,5.999,,,,,,,,,,,,,,,,,,,,,,60fcdebbef41e08776de751f,61037107e7d532e90980a526,2021-07-29_23h56.33.015,Simcolourproject_2stim_asymm_v5,2020.2.10,Win32,60,61025ae37ef11b136ea224fe,,,,,,,,,3258,-51.19998932,-126.4000083,1,0,0,response5disk,,3,5.600060356,-1.600006461,1,0,0,rectangle,-118.3999415,-38.40000701,1,0,0,7.200011551,-3.200006485,1,0,0,0,6,6,159,1,,response5disk_3,TRUE,2,2,"[11,29,134,232,207,106,68,163,7,317,47,212,43,119,251,210,142,143,208,55]",2.1666,rectangle
,,,,,,,,,,,,,FF,,,,,,,,3.4491,,,,,,,,,,,,,,,,,,,,,,60fcdebbef41e08776de751f,61037107e7d532e90980a526,2021-07-29_23h56.33.015,Simcolourproject_2stim_asymm_v5,2020.2.10,Win32,60,61025ae37ef11b136ea224fe,,,,,,,,,2411,-42.39994036,-113.600057,1,0,0,response5disk,,3,7.200011551,-4.800006509,1,0,0,rectangle,7.200011551,-4.800006509,1,0,0,7.200011551,-4.800006509,1,0,0,0,7,7,9,1,,,,,,,,
,,,,,,,,,,,,,FF,,,,,,,,5.7822,,,,,,,,,,,,,,,,,,,,,,60fcdebbef41e08776de751f,61037107e7d532e90980a526,2021-07-29_23h56.33.015,Simcolourproject_2stim_asymm_v5,2020.2.10,Win32,60,61025ae37ef11b136ea224fe,,,,,,,,,2262,109.6000131,54.39999437,1,0,0,response1disk,,6,0.800011456,-6.4373E-06,1,0,0,rectangle,0.800011456,-6.4373E-06,1,0,0,0.800011456,-6.4373E-06,1,0,0,0,8,8,26,1,,,,,,,,
,,,,,,,,,,,,,FF,,,,,,,,5.9329,,,,,,,,,,,,,,,,,,,,,,60fcdebbef41e08776de751f,61037107e7d532e90980a526,2021-07-29_23h56.33.015,Simcolourproject_2stim_asymm_v5,2020.2.10,Win32,60,61025ae37ef11b136ea224fe,,,,,,,,,1109,55.20001227,87.19997045,1,0,0,response1disk,,7,6.400011539,-0.800006449,1,0,0,rectangle,6.400011539,-0.800006449,1,0,0,6.400011539,-0.800006449,1,0,0,0,9,9,89,1,,,,,,,,
,,,,,,,,,,,,,FF,,,,,,,,4.0325,,,,,,,,,,,,,,,,,,,,,,60fcdebbef41e08776de751f,61037107e7d532e90980a526,2021-07-29_23h56.33.015,Simcolourproject_2stim_asymm_v5,2020.2.10,Win32,60,61025ae37ef11b136ea224fe,,,,,,,,,563,40.80001205,91.99999493,1,0,0,response1disk,,7,1.14441E-05,-3.200006485,1,0,0,rectangle,-102.3999413,-37.600007,1,0,0,1.14441E-05,-6.4373E-06,1,0,0,0,10,10,70,1,,response5disk_3,TRUE,2,2,"[11,29,134,232,207,106,68,163,7,317,47,212,43,119,251,210,142,143,208,55]",2.1003,rectangle
,,,,,,,,,,,,,FF,,,,,,,,3.1662,,,,,,,,,,,,,,,,,,,,,,60fcdebbef41e08776de751f,61037107e7d532e90980a526,2021-07-29_23h56.33.015,Simcolourproject_2stim_asymm_v5,2020.2.10,Win32,60,61025ae37ef11b136ea224fe,,,,,,,,,1543,112.0000131,-46.40000713,1,0,0,response3disk,,5,10.4000116,-4.800006509,1,0,0,rectangle,10.4000116,-4.800006509,1,0,0,10.4000116,-4.800006509,1,0,0,0,11,11,143,1,,,,,,,,
,,,,,,,,,,,,,FF,,,,,,,,2.8496,,,,,,,,,,,,,,,,,,,,,,60fcdebbef41e08776de751f,61037107e7d532e90980a526,2021-07-29_23h56.33.015,Simcolourproject_2stim_asymm_v5,2020.2.10,Win32,60,61025ae37ef11b136ea224fe,,,,,,,,,3370,50.4000122,66.39999455,1,0,0,response1disk,,7,8.800011575,6.399993658,1,0,0,rectangle,8.800011575,6.399993658,1,0,0,8.800011575,6.399993658,1,0,0,0,12,12,45,1,,,,,,,,
,,,,,,,,,,,,,FF,,,,,,,,6.2154,,,,,,,,,,,,,,,,,,,,,,60fcdebbef41e08776de751f,61037107e7d532e90980a526,2021-07-29_23h56.33.015,Simcolourproject_2stim_asymm_v5,2020.2.10,Win32,60,61025ae37ef11b136ea224fe,,,,,,,,,3063,-28.79998899,-86.40000772,1,0,0,response5disk,,3,14.40001166,6.399993658,1,0,0,rectangle,14.40001166,6.399993658,1,0,0,14.40001166,6.399993658,1,0,0,0,13,13,65,1,,,,,,,,
,,,,,,,,,,,,,FF,,,,,,,,5.1824,,,,,,,,,,,,,,,,,,,,,,60fcdebbef41e08776de751f,61037107e7d532e90980a526,2021-07-29_23h56.33.015,Simcolourproject_2stim_asymm_v5,2020.2.10,Win32,60,61025ae37ef11b136ea224fe,,,,,,,,,3710,98.40001291,-60.00000733,1,0,0,response3disk,,5,2.40001148,11.19999373,1,0,0,rectangle,2.40001148,11.19999373,1,0,0,2.40001148,11.19999373,1,0,0,0,14,14,148,1,,,,,,,,
,,,,,,,,,,,,,FF,,,,,,,,8.399,,,,,,,,,,,,,,,,,,,,,,60fcdebbef41e08776de751f,61037107e7d532e90980a526,2021-07-29_23h56.33.015,Simcolourproject_2stim_asymm_v5,2020.2.10,Win32,60,61025ae37ef11b136ea224fe,,,,,,,,,2054,56.00001228,-96.00000787,1,0,0,response3disk,,4,10.4000116,-11.2000066,1,0,0,rectangle,10.4000116,-11.2000066,1,0,0,10.4000116,-11.2000066,1,0,0,0,15,15,85,1,,,,,,,,
,,,,,,,,,,,,,FF,,,,,,,,8.3317,,,,,,,,,,,,,,,,,,,,,,60fcdebbef41e08776de751f,61037107e7d532e90980a526,2021-07-29_23h56.33.015,Simcolourproject_2stim_asymm_v5,2020.2.10,Win32,60,61025ae37ef11b136ea224fe,,,,,,,,,526,-99.99999005,51.19996991,1,0,0,response7disk,,1,2.40001148,-3.200006485,1,0,0,rectangle,2.40001148,-3.200006485,1,0,0,2.40001148,-3.200006485,1,0,0,0,16,16,76,1,,,,,,,,
,,,,,,,,,,,,,FF,,,,,,,,9.1819,,,,,,,,,,,,,,,,,,,,,,60fcdebbef41e08776de751f,61037107e7d532e90980a526,2021-07-29_23h56.33.015,Simcolourproject_2stim_asymm_v5,2020.2.10,Win32,60,61025ae37ef11b136ea224fe,,,,,,,,,2561,116.0000132,44.79999423,1,0,0,response1disk,,6,-9.599988699,-4.000006497,1,0,0,rectangle,-9.599988699,-4.000006497,1,0,0,-9.599988699,-4.000006497,1,0,0,0,17,17,122,1,,,,,,,,
,,,,,,,,,,,,,FF,,,,,,,,15.047,,,,,,,,,,,,,,,,,,,,,,60fcdebbef41e08776de751f,61037107e7d532e90980a526,2021-07-29_23h56.33.015,Simcolourproject_2stim_asymm_v5,2020.2.10,Win32,60,61025ae37ef11b136ea224fe,,,,,,,,,2603,29.60006071,-56.00000727,1,0,0,response3disk,,4,8.000011563,0.799993575,1,0,0,rectangle,8.000011563,0.799993575,1,0,0,8.000011563,0.799993575,1,0,0,0,18,18,131,1,,,,,,,,
,,,,,,,,,,,,,FF,,,,,,,,5.5656,,,,,,,,,,,,,,,,,,,,,,60fcdebbef41e08776de751f,61037107e7d532e90980a526,2021-07-29_23h56.33.015,Simcolourproject_2stim_asymm_v5,2020.2.10,Win32,60,61025ae37ef11b136ea224fe,,,,,,,,,3008,82.40001267,-39.20000702,1,0,0,response3disk,,5,11.20001161,-2.400006473,1,0,0,rectangle,11.20001161,-2.400006473,1,0,0,11.20001161,-2.400006473,1,0,0,0,19,19,105,1,,,,,,,,
,,,,,,,,,,,,,FF,,,,,,,,1.7498,,,,,,,,,,,,,,,,,,,,,,60fcdebbef41e08776de751f,61037107e7d532e90980a526,2021-07-29_23h56.33.015,Simcolourproject_2stim_asymm_v5,2020.2.10,Win32,60,61025ae37ef11b136ea224fe,,,,,,,,,2143,65.60001242,90.39999491,1,0,0,response1disk,,7,9.600060415,-2.400006473,1,0,0,rectangle,9.600060415,-2.400006473,1,0,0,9.600060415,-2.400006473,1,0,0,0,20,20,44,1,,,,,,,,
,,,,,,,,,,,,,FF,,,,,,,,4.7328,,,,,,,,,,,,,,,,,,,,,,60fcdebbef41e08776de751f,61037107e7d532e90980a526,2021-07-29_23h56.33.015,Simcolourproject_2stim_asymm_v5,2020.2.10,Win32,60,61025ae37ef11b136ea224fe,,,,,,,,,3784,96.00001287,-52.00000721,1,0,0,response3disk,,5,-11.19998872,-4.000006497,1,0,0,rectangle,-11.19998872,-4.000006497,1,0,0,-11.19998872,-4.000006497,1,0,0,0,21,21,16,1,,,,,,,,
,,,,,,,,,,,,,FF,,,,,,,,2.2326,,,,,,,,,,,,,,,,,,,,,,60fcdebbef41e08776de751f,61037107e7d532e90980a526,2021-07-29_23h56.33.015,Simcolourproject_2stim_asymm_v5,2020.2.10,Win32,60,61025ae37ef11b136ea224fe,,,,,,,,,604,34.40001196,-85.60005654,1,0,0,response3disk,,4,-12.79998875,3.19999361,1,0,0,rectangle,-12.79998875,3.19999361,1,0,0,-12.79998875,3.19999361,1,0,0,0,22,22,138,1,,,,,,,,
,,,,,,,,,,,,,FF,,,,,,,,2.1498,,,,,,,,,,,,,,,,,,,,,,60fcdebbef41e08776de751f,61037107e7d532e90980a526,2021-07-29_23h56.33.015,Simcolourproject_2stim_asymm_v5,2020.2.10,Win32,60,61025ae37ef11b136ea224fe,,,,,,,,,2369,-49.5999893,-112.8000081,1,0,0,response5disk,,3,-8.799988687,-4.800006509,1,0,0,rectangle,-8.799988687,-4.800006509,1,0,0,-8.799988687,-4.800006509,1,0,0,0,23,23,90,1,,,,,,,,
,,,,,,,,,,,,,FF,,,,,,,,1.3997,,,,,,,,,,,,,,,,,,,,,,60fcdebbef41e08776de751f,61037107e7d532e90980a526,2021-07-29_23h56.33.015,Simcolourproject_2stim_asymm_v5,2020.2.10,Win32,60,61025ae37ef11b136ea224fe,,,,,,,,,3721,33.60006077,72.79999465,1,0,0,response1disk,,7,-1.59998858,4.799993634,1,0,0,rectangle,-1.59998858,4.799993634,1,0,0,-1.59998858,4.799993634,1,0,0,0,24,24,77,1,,,,,,,,
,,,,,,,,,,,,,FF,,,,,,,,2.0497,,,,,,,,,,,,,,,,,,,,,,60fcdebbef41e08776de751f,61037107e7d532e90980a526,2021-07-29_23h56.33.015,Simcolourproject_2stim_asymm_v5,2020.2.10,Win32,60,61025ae37ef11b136ea224fe,,,,,,,,,346,36.80001199,-76.80000758,1,0,0,response3disk,,4,16.80001169,-7.200006545,1,0,0,rectangle,16.80001169,-7.200006545,1,0,0,16.80001169,-7.200006545,1,0,0,0,25,25,109,1,,,,,,,,
,,,,,,,,,,,,,FF,,,,,,,,1.2499,,,,,,,,,,,,,,,,,,,,,,60fcdebbef41e08776de751f,61037107e7d532e90980a526,2021-07-29_23h56.33.015,Simcolourproject_2stim_asymm_v5,2020.2.10,Win32,60,61025ae37ef11b136ea224fe,,,,,,,,,1797,61.60001236,97.59999502,1,0,0,response1disk,,7,4.000011504,6.399993658,1,0,0,rectangle,4.000011504,6.399993658,1,0,0,4.000011504,6.399993658,1,0,0,0,26,26,151,1,,,,,,,,
,,,,,,,,,,,,,FF,,,,,,,,0.983,,,,,,,,,,,,,,,,,,,,,,60fcdebbef41e08776de751f,61037107e7d532e90980a526,2021-07-29_23h56.33.015,Simcolourproject_2stim_asymm_v5,2020.2.10,Win32,60,61025ae37ef11b136ea224fe,,,,,,,,,4038,36.00001198,79.99999475,1,0,0,response1disk,,7,-7.199988663,-6.400006533,1,0,0,rectangle,-7.199988663,-6.400006533,1,0,0,-7.199988663,-6.400006533,1,0,0,0,27,27,24,1,,,,,,,,
,,,,,,,,,,,,,FF,,,,,,,,1.7157,,,,,,,,,,,,,,,,,,,,,,60fcdebbef41e08776de751f,61037107e7d532e90980a526,2021-07-29_23h56.33.015,Simcolourproject_2stim_asymm_v5,2020.2.10,Win32,60,61025ae37ef11b136ea224fe,,,,,,,,,2795,118.4000132,-57.6000073,1,0,0,response3disk,,5,36.00001198,-4.000006497,1,0,0,rectangle,104.000013,-43.20000708,1,0,0,-3.999988616,3.999993622,1,0,0,0,28,28,136,1,,response3disk_3,TRUE,5,5,"[11,29,134,232,207,106,68,163,7,317,47,212,43,119,251,210,142,143,208,55]",2.099,rectangle
,,,,,,,,,,,,,FF,,,,,,,,2.5667,,,,,,,,,,,,,,,,,,,,,,60fcdebbef41e08776de751f,61037107e7d532e90980a526,2021-07-29_23h56.33.015,Simcolourproject_2stim_asymm_v5,2020.2.10,Win32,60,61025ae37ef11b136ea224fe,,,,,,,,,1511,84.0000127,95.99999499,1,0,0,response1disk,,7,-3.199988604,-4.000006497,1,0,0,rectangle,-3.199988604,-4.000006497,1,0,0,-3.199988604,-4.000006497,1,0,0,0,29,29,31,1,,,,,,,,
,,,,,,,,,,,,,FF,,,,,,,,1.4993,,,,,,,,,,,,,,,,,,,,,,60fcdebbef41e08776de751f,61037107e7d532e90980a526,2021-07-29_23h56.33.015,Simcolourproject_2stim_asymm_v5,2020.2.10,Win32,60,61025ae37ef11b136ea224fe,,,,,,,,,3266,45.60006095,104.7999951,1,0,0,response1disk,,7,-3.199988604,-8.000006557,1,0,0,rectangle,-3.199988604,-8.000006557,1,0,0,-3.199988604,-8.000006557,1,0,0,0,30,30,15,1,,,,,,,,
,,,,,,,,,,,,,FF,,,,,,,,1,,,,,,,,,,,,,,,,,,,,,,60fcdebbef41e08776de751f,61037107e7d532e90980a526,2021-07-29_23h56.33.015,Simcolourproject_2stim_asymm_v5,2020.2.10,Win32,60,61025ae37ef11b136ea224fe,,,,,,,,,1637,64.0000124,39.19996973,1,0,0,response1disk,,6,23.20001179,12.79999375,1,0,0,rectangle,23.20001179,12.79999375,1,0,0,23.20001179,12.79999375,1,0,0,0,31,31,52,1,,,,,,,,
,,,,,,,,,,,,,FF,,,,,,,,0.7995,,,,,,,,,,,,,,,,,,,,,,60fcdebbef41e08776de751f,61037107e7d532e90980a526,2021-07-29_23h56.33.015,Simcolourproject_2stim_asymm_v5,2020.2.10,Win32,60,61025ae37ef11b136ea224fe,,,,,,,,,1657,76.00001258,115.9999953,1,0,0,response1disk,,7,8.000011563,-8.800006568,1,0,0,rectangle,8.000011563,-8.800006568,1,0,0,8.000011563,-8.800006568,1,0,0,0,32,32,128,1,,,,,,,,
,,,,,,,,,,,,,FF,,,,,,,,1.1669,,,,,,,,,,,,,,,,,,,,,,60fcdebbef41e08776de751f,61037107e7d532e90980a526,2021-07-29_23h56.33.015,Simcolourproject_2stim_asymm_v5,2020.2.10,Win32,60,61025ae37ef11b136ea224fe,,,,,,,,,2598,74.40001255,110.3999952,1,0,0,response1disk,,7,14.40001166,-7.200006545,1,0,0,rectangle,14.40001166,-7.200006545,1,0,0,14.40001166,-7.200006545,1,0,0,0,33,33,86,1,,,,,,,,
,,,,,,,,,,,,,FF,,,,,,,,1.65,,,,,,,,,,,,,,,,,,,,,,60fcdebbef41e08776de751f,61037107e7d532e90980a526,2021-07-29_23h56.33.015,Simcolourproject_2stim_asymm_v5,2020.2.10,Win32,60,61025ae37ef11b136ea224fe,,,,,,,,,1408,38.40001202,-97.60005672,1,0,0,response3disk,,4,-10.39993988,-6.4373E-06,1,0,0,rectangle,-10.39993988,-6.4373E-06,1,0,0,-10.39993988,-6.4373E-06,1,0,0,0,34,34,50,1,,,,,,,,
,,,,,,,,,,,,,FF,,,,,,,,1.3333,,,,,,,,,,,,,,,,,,,,,,60fcdebbef41e08776de751f,61037107e7d532e90980a526,2021-07-29_23h56.33.015,Simcolourproject_2stim_asymm_v5,2020.2.10,Win32,60,61025ae37ef11b136ea224fe,,,,,,,,,3749,-44.79998922,-100.0000079,1,0,0,response5disk,,3,-7.199988663,4.799993634,1,0,0,rectangle,-7.199988663,4.799993634,1,0,0,-7.199988663,4.799993634,1,0,0,0,35,35,57,1,,,,,,,,
,,,,,,,,,,,,,FF,,,,,,,,1.7995,,,,,,,,,,,,,,,,,,,,,,60fcdebbef41e08776de751f,61037107e7d532e90980a526,2021-07-29_23h56.33.015,Simcolourproject_2stim_asymm_v5,2020.2.10,Win32,60,61025ae37ef11b136ea224fe,,,,,,,,,4318,71.20001251,35.19996967,1,0,0,response1disk,,6,20.80001175,-1.600006461,1,0,0,rectangle,20.80001175,-1.600006461,1,0,0,20.80001175,-1.600006461,1,0,0,0,36,36,145,1,,,,,,,,
,,,,,,,,,,,,,FF,,,,,,,,1.2165,,,,,,,,,,,,,,,,,,,,,,60fcdebbef41e08776de751f,61037107e7d532e90980a526,2021-07-29_23h56.33.015,Simcolourproject_2stim_asymm_v5,2020.2.10,Win32,60,61025ae37ef11b136ea224fe,,,,,,,,,1141,57.6000123,103.1999707,1,0,0,response1disk,,7,4.000011504,3.19999361,1,0,0,rectangle,4.000011504,3.19999361,1,0,0,4.000011504,3.19999361,1,0,0,0,37,37,112,1,,,,,,,,
,,,,,,,,,,,,,FF,,,,,,,,1.1675,,,,,,,,,,,,,,,,,,,,,,60fcdebbef41e08776de751f,61037107e7d532e90980a526,2021-07-29_23h56.33.015,Simcolourproject_2stim_asymm_v5,2020.2.10,Win32,60,61025ae37ef11b136ea224fe,,,,,,,,,2828,-83.1999898,-48.80000716,1,0,0,response5disk,,2,-5.599988639,-3.200006485,1,0,0,rectangle,-5.599988639,-3.200006485,1,0,0,-5.599988639,-3.200006485,1,0,0,0,38,38,22,1,,,,,,,,
,,,,,,,,,,,,,FF,,,,,,,,2.0167,,,,,,,,,,,,,,,,,,,,,,60fcdebbef41e08776de751f,61037107e7d532e90980a526,2021-07-29_23h56.33.015,Simcolourproject_2stim_asymm_v5,2020.2.10,Win32,60,61025ae37ef11b136ea224fe,,,,,,,,,2481,-56.7999894,99.99999505,1,0,0,response7disk,,0,0.800011456,4.799993634,1,0,0,rectangle,0.800011456,4.799993634,1,0,0,0.800011456,4.799993634,1,0,0,0,39,39,103,1,,,,,,,,
,,,,,,,,,,,,,FF,,,,,,,,2.2833,,,,,,,,,,,,,,,,,,,,,,60fcdebbef41e08776de751f,61037107e7d532e90980a526,2021-07-29_23h56.33.015,Simcolourproject_2stim_asymm_v5,2020.2.10,Win32,60,61025ae37ef11b136ea224fe,,,,,,,,,2036,-78.3999409,55.19996997,1,0,0,response7disk,,1,-4.799988627,7.999993682,1,0,0,rectangle,-4.799988627,7.999993682,1,0,0,-4.799988627,7.999993682,1,0,0,0,40,40,40,1,,,,,,,,
,,,,,,,,,,,,,FF,,,,,,,,0.8992,,,,,,,,,,,,,,,,,,,,,,60fcdebbef41e08776de751f,61037107e7d532e90980a526,2021-07-29_23h56.33.015,Simcolourproject_2stim_asymm_v5,2020.2.10,Win32,60,61025ae37ef11b136ea224fe,,,,,,,,,736,-50.39994048,-114.4000081,1,0,0,response5disk,,3,9.600060415,-8.000006557,1,0,0,rectangle,9.600060415,-8.000006557,1,0,0,9.600060415,-8.000006557,1,0,0,0,41,41,19,1,,,,,,,,
,,,,,,,,,,,,,FF,,,,,,,,1.8997,,,,,,,,,,,,,,,,,,,,,,60fcdebbef41e08776de751f,61037107e7d532e90980a526,2021-07-29_23h56.33.015,Simcolourproject_2stim_asymm_v5,2020.2.10,Win32,60,61025ae37ef11b136ea224fe,,,,,,,,,1207,69.60001248,58.39999443,1,0,0,response1disk,,6,15.20001167,6.399993658,1,0,0,rectangle,94.40001285,54.39999437,1,0,0,1.600060296,-5.600006521,1,0,0,0,42,42,113,1,,response1disk_3,TRUE,6,6,"[11,29,134,232,207,106,68,163,7,317,47,212,43,119,251,210,142,143,208,55]",2.2447,rectangle
,,,,,,,,,,,,,FF,,,,,,,,1.7492,,,,,,,,,,,,,,,,,,,,,,60fcdebbef41e08776de751f,61037107e7d532e90980a526,2021-07-29_23h56.33.015,Simcolourproject_2stim_asymm_v5,2020.2.10,Win32,60,61025ae37ef11b136ea224fe,,,,,,,,,3768,42.40001208,77.59999472,1,0,0,response1disk,,7,-14.39993994,-7.200006545,1,0,0,rectangle,-14.39993994,-7.200006545,1,0,0,-14.39993994,-7.200006545,1,0,0,0,43,43,17,1,,,,,,,,
,,,,,,,,,,,,,FF,,,,,,,,1.7217,,,,,,,,,,,,,,,,,,,,,,60fcdebbef41e08776de751f,61037107e7d532e90980a526,2021-07-29_23h56.33.015,Simcolourproject_2stim_asymm_v5,2020.2.10,Win32,60,61025ae37ef11b136ea224fe,,,,,,,,,370,70.40001249,-85.60005654,1,0,0,response3disk,,4,16.80001169,-13.60000664,1,0,0,rectangle,16.80001169,-13.60000664,1,0,0,16.80001169,-13.60000664,1,0,0,0,44,44,92,1,,,,,,,,
,,,,,,,,,,,,,FF,,,,,,,,1.2005,,,,,,,,,,,,,,,,,,,,,,60fcdebbef41e08776de751f,61037107e7d532e90980a526,2021-07-29_23h56.33.015,Simcolourproject_2stim_asymm_v5,2020.2.10,Win32,60,61025ae37ef11b136ea224fe,,,,,,,,,2056,37.60006083,-57.6000073,1,0,0,response3disk,,4,8.000011563,8.799993694,1,0,0,rectangle,8.000011563,8.799993694,1,0,0,8.000011563,8.799993694,1,0,0,0,45,45,154,1,,,,,,,,
,,,,,,,,,,,,,FF,,,,,,,,1.2499,,,,,,,,,,,,,,,,,,,,,,60fcdebbef41e08776de751f,61037107e7d532e90980a526,2021-07-29_23h56.33.015,Simcolourproject_2stim_asymm_v5,2020.2.10,Win32,60,61025ae37ef11b136ea224fe,,,,,,,,,1173,114.4000131,51.99999434,1,0,0,response1disk,,6,-19.99998885,-5.600006521,1,0,0,rectangle,64.0000124,-108.000008,1,0,0,6.400011539,-12.80000663,1,0,0,0,46,46,121,1,,response3disk_3,TRUE,4,4,"[11,29,134,232,207,106,68,163,7,317,47,212,43,119,251,210,142,143,208,55]",2.8942,rectangle
,,,,,,,,,,,,,FF,,,,,,,,1.2166,,,,,,,,,,,,,,,,,,,,,,60fcdebbef41e08776de751f,61037107e7d532e90980a526,2021-07-29_23h56.33.015,Simcolourproject_2stim_asymm_v5,2020.2.10,Win32,60,61025ae37ef11b136ea224fe,,,,,,,,,485,64.80001241,-42.40000707,1,0,0,response3disk,,5,-4.799988627,5.599993646,1,0,0,rectangle,-4.799988627,5.599993646,1,0,0,-4.799988627,5.599993646,1,0,0,0,47,47,67,1,,,,,,,,
,,,,,,,,,,,,,FF,,,,,,,,1.4663,,,,,,,,,,,,,,,,,,,,,,60fcdebbef41e08776de751f,61037107e7d532e90980a526,2021-07-29_23h56.33.015,Simcolourproject_2stim_asymm_v5,2020.2.10,Win32,60,61025ae37ef11b136ea224fe,,,,,,,,,857,-42.39994036,-95.20000786,1,0,0,response5disk,,3,-15.99998879,-16.00000668,1,0,0,rectangle,-15.99998879,-16.00000668,1,0,0,-15.99998879,-16.00000668,1,0,0,0,48,48,133,1,,,,,,,,
,,,,,,,,,,,,,FF,,,,,,,,1.6509,,,,,,,,,,,,,,,,,,,,,,60fcdebbef41e08776de751f,61037107e7d532e90980a526,2021-07-29_23h56.33.015,Simcolourproject_2stim_asymm_v5,2020.2.10,Win32,60,61025ae37ef11b136ea224fe,,,,,,,,,3961,122.4000133,47.99999428,1,0,0,response1disk,,6,27.20001185,9.599993706,1,0,0,rectangle,27.20001185,9.599993706,1,0,0,27.20001185,9.599993706,1,0,0,0,49,49,146,1,,,,,,,,
,,,,,,,,,,,,,FF,,,,,,,,3.1333,,,,,,,,,,,,,,,,,,,,,,60fcdebbef41e08776de751f,61037107e7d532e90980a526,2021-07-29_23h56.33.015,Simcolourproject_2stim_asymm_v5,2020.2.10,Win32,60,61025ae37ef11b136ea224fe,,,,,,,,,3614,101.600013,36.79999411,1,0,0,response1disk,,6,4.800011516,-4.000006497,1,0,0,rectangle,4.800011516,-4.000006497,1,0,0,4.800011516,-4.000006497,1,0,0,0,50,50,41,1,,,,,,,,
,,,,,,,,,,,,,FF,,,,,,,,2.3996,,,,,,,,,,,,,,,,,,,,,,60fcdebbef41e08776de751f,61037107e7d532e90980a526,2021-07-29_23h56.33.015,Simcolourproject_2stim_asymm_v5,2020.2.10,Win32,60,61025ae37ef11b136ea224fe,,,,,,,,,1088,64.0000124,29.599994,1,0,0,response1disk,,6,-6.399939823,0.799993575,1,0,0,rectangle,-6.399939823,0.799993575,1,0,0,-6.399939823,0.799993575,1,0,0,0,51,51,132,1,,,,,,,,
,,,,,,,,,,,,,FF,,,,,,,,1.0832,,,,,,,,,,,,,,,,,,,,,,60fcdebbef41e08776de751f,61037107e7d532e90980a526,2021-07-29_23h56.33.015,Simcolourproject_2stim_asymm_v5,2020.2.10,Win32,60,61025ae37ef11b136ea224fe,,,,,,,,,59,48.80001217,-75.20000756,1,0,0,response3disk,,4,12.00001162,-6.4373E-06,1,0,0,rectangle,12.00001162,-6.4373E-06,1,0,0,12.00001162,-6.4373E-06,1,0,0,0,52,52,8,1,,,,,,,,
,,,,,,,,,,,,,FF,,,,,,,,1.0052,,,,,,,,,,,,,,,,,,,,,,60fcdebbef41e08776de751f,61037107e7d532e90980a526,2021-07-29_23h56.33.015,Simcolourproject_2stim_asymm_v5,2020.2.10,Win32,60,61025ae37ef11b136ea224fe,,,,,,,,,4017,44.80001211,83.19997039,1,0,0,response1disk,,7,-3.199988604,-3.200006485,1,0,0,rectangle,-3.199988604,-3.200006485,1,0,0,-3.199988604,-3.200006485,1,0,0,0,53,53,11,1,,,,,,,,
,,,,,,,,,,,,,FF,,,,,,,,1.1382,,,,,,,,,,,,,,,,,,,,,,60fcdebbef41e08776de751f,61037107e7d532e90980a526,2021-07-29_23h56.33.015,Simcolourproject_2stim_asymm_v5,2020.2.10,Win32,60,61025ae37ef11b136ea224fe,,,,,,,,,2725,-39.19998914,-85.60005654,1,0,0,response5disk,,3,-3.199988604,-6.4373E-06,1,0,0,rectangle,-50.39994048,113.5999953,1,0,0,-11.99998873,11.99999374,1,0,0,0,54,54,87,1,,response7disk_3,TRUE,0,0,"[11,29,134,232,207,106,68,163,7,317,47,212,43,119,251,210,142,143,208,55]",2.3221,rectangle
,,,,,,,,,,,,,FF,,,,,,,,0.9614,,,,,,,,,,,,,,,,,,,,,,60fcdebbef41e08776de751f,61037107e7d532e90980a526,2021-07-29_23h56.33.015,Simcolourproject_2stim_asymm_v5,2020.2.10,Win32,60,61025ae37ef11b136ea224fe,,,,,,,,,2705,40.80001205,63.19997009,1,0,0,response1disk,,7,-11.99998873,-15.20000666,1,0,0,rectangle,-11.99998873,-15.20000666,1,0,0,-11.99998873,-15.20000666,1,0,0,0,55,55,74,1,,,,,,,,
,,,,,,,,,,,,,FF,,,,,,,,1.2664,,,,,,,,,,,,,,,,,,,,,,60fcdebbef41e08776de751f,61037107e7d532e90980a526,2021-07-29_23h56.33.015,Simcolourproject_2stim_asymm_v5,2020.2.10,Win32,60,61025ae37ef11b136ea224fe,,,,,,,,,3824,33.60006077,-75.20000756,1,0,0,response3disk,,4,-0.799988568,-14.40000665,1,0,0,rectangle,-0.799988568,-14.40000665,1,0,0,-0.799988568,-14.40000665,1,0,0,0,56,56,152,1,,,,,,,,
,,,,,,,,,,,,,FF,,,,,,,,2.0383,,,,,,,,,,,,,,,,,,,,,,60fcdebbef41e08776de751f,61037107e7d532e90980a526,2021-07-29_23h56.33.015,Simcolourproject_2stim_asymm_v5,2020.2.10,Win32,60,61025ae37ef11b136ea224fe,,,,,,,,,1420,120.0000132,36.79999411,1,0,0,response1disk,,6,-15.19998878,6.399993658,1,0,0,rectangle,-15.19998878,6.399993658,1,0,0,-15.19998878,6.399993658,1,0,0,0,57,57,43,1,,,,,,,,
,,,,,,,,,,,,,FF,,,,,,,,0.9503,,,,,,,,,,,,,,,,,,,,,,60fcdebbef41e08776de751f,61037107e7d532e90980a526,2021-07-29_23h56.33.015,Simcolourproject_2stim_asymm_v5,2020.2.10,Win32,60,61025ae37ef11b136ea224fe,,,,,,,,,884,34.40001196,65.59999454,1,0,0,response1disk,,7,-15.19998878,5.599993646,1,0,0,rectangle,-15.19998878,5.599993646,1,0,0,-15.19998878,5.599993646,1,0,0,0,58,58,93,1,,,,,,,,
,,,,,,,,,,,,,FF,,,,,,,,0.6997,,,,,,,,,,,,,,,,,,,,,,60fcdebbef41e08776de751f,61037107e7d532e90980a526,2021-07-29_23h56.33.015,Simcolourproject_2stim_asymm_v5,2020.2.10,Win32,60,61025ae37ef11b136ea224fe,,,,,,,,,2972,27.20001185,55.19996997,1,0,0,response1disk,,7,-9.599988699,-8.000006557,1,0,0,rectangle,-9.599988699,-8.000006557,1,0,0,-9.599988699,-8.000006557,1,0,0,0,59,59,82,1,,,,,,,,
,,,,,,,,,,,,,FF,,,,,,,,2.5379,,,,,,,,,,,,,,,,,,,,,,60fcdebbef41e08776de751f,61037107e7d532e90980a526,2021-07-29_23h56.33.015,Simcolourproject_2stim_asymm_v5,2020.2.10,Win32,60,61025ae37ef11b136ea224fe,,,,,,,,,3059,88.80001277,49.5999943,1,0,0,response1disk,,6,-2.399939764,-0.800006449,1,0,0,rectangle,-2.399939764,-0.800006449,1,0,0,-2.399939764,-0.800006449,1,0,0,0,60,60,14,1,,,,,,,,
,,,,,,,,,,,,,FF,,,,,,,,1.0725,,,,,,,,,,,,,,,,,,,,,,60fcdebbef41e08776de751f,61037107e7d532e90980a526,2021-07-29_23h56.33.015,Simcolourproject_2stim_asymm_v5,2020.2.10,Win32,60,61025ae37ef11b136ea224fe,,,,,,,,,827,103.200013,39.99999416,1,0,0,response1disk,,6,28.80001187,-2.400006473,1,0,0,rectangle,28.80001187,-2.400006473,1,0,0,28.80001187,-2.400006473,1,0,0,0,61,61,1,1,,,,,,,,
,,,,,,,,,,,,,FF,,,,,,,,0.9,,,,,,,,,,,,,,,,,,,,,,60fcdebbef41e08776de751f,61037107e7d532e90980a526,2021-07-29_23h56.33.015,Simcolourproject_2stim_asymm_v5,2020.2.10,Win32,60,61025ae37ef11b136ea224fe,,,,,,,,,2282,46.40001214,78.39999473,1,0,0,response1disk,,7,-0.799988568,2.399993598,1,0,0,rectangle,-0.799988568,2.399993598,1,0,0,-0.799988568,2.399993598,1,0,0,0,62,62,73,1,,,,,,,,
,,,,,,,,,,,,,FF,,,,,,,,1.2165,,,,,,,,,,,,,,,,,,,,,,60fcdebbef41e08776de751f,61037107e7d532e90980a526,2021-07-29_23h56.33.015,Simcolourproject_2stim_asymm_v5,2020.2.10,Win32,60,61025ae37ef11b136ea224fe,,,,,,,,,3891,98.40001291,126.3999954,1,0,0,response1disk,,7,1.14441E-05,2.399993598,1,0,0,rectangle,1.14441E-05,2.399993598,1,0,0,1.14441E-05,2.399993598,1,0,0,0,63,63,91,1,,,,,,,,
,,,,,,,,,,,,,FF,,,,,,,,0.7842,,,,,,,,,,,,,,,,,,,,,,60fcdebbef41e08776de751f,61037107e7d532e90980a526,2021-07-29_23h56.33.015,Simcolourproject_2stim_asymm_v5,2020.2.10,Win32,60,61025ae37ef11b136ea224fe,,,,,,,,,328,37.60006083,63.19997009,1,0,0,response1disk,,7,0.800011456,7.999993682,1,0,0,rectangle,0.800011456,7.999993682,1,0,0,0.800011456,7.999993682,1,0,0,0,64,64,126,1,,,,,,,,
,,,,,,,,,,,,,FF,,,,,,,,0.7167,,,,,,,,,,,,,,,,,,,,,,60fcdebbef41e08776de751f,61037107e7d532e90980a526,2021-07-29_23h56.33.015,Simcolourproject_2stim_asymm_v5,2020.2.10,Win32,60,61025ae37ef11b136ea224fe,,,,,,,,,2180,36.80001199,66.39999455,1,0,0,response1disk,,7,-5.599988639,3.999993622,1,0,0,rectangle,-5.599988639,3.999993622,1,0,0,-5.599988639,3.999993622,1,0,0,0,65,65,107,1,,,,,,,,
,,,,,,,,,,,,,FF,,,,,,,,1.3499,,,,,,,,,,,,,,,,,,,,,,60fcdebbef41e08776de751f,61037107e7d532e90980a526,2021-07-29_23h56.33.015,Simcolourproject_2stim_asymm_v5,2020.2.10,Win32,60,61025ae37ef11b136ea224fe,,,,,,,,,1241,29.60006071,-69.60000747,1,0,0,response3disk,,4,-10.39993988,10.39999372,1,0,0,rectangle,-10.39993988,10.39999372,1,0,0,-10.39993988,10.39999372,1,0,0,0,66,66,104,1,,,,,,,,
,,,,,,,,,,,,,FF,,,,,,,,1.1844,,,,,,,,,,,,,,,,,,,,,,60fcdebbef41e08776de751f,61037107e7d532e90980a526,2021-07-29_23h56.33.015,Simcolourproject_2stim_asymm_v5,2020.2.10,Win32,60,61025ae37ef11b136ea224fe,,,,,,,,,694,78.40001261,85.59999484,1,0,0,response1disk,,7,4.000011504,-2.400006473,1,0,0,rectangle,27.20001185,-98.4000079,1,0,0,3.200011492,8.799993694,1,0,0,0,67,67,130,1,,response3disk_3,TRUE,4,4,"[11,29,134,232,207,106,68,163,7,317,47,212,43,119,251,210,142,143,208,55]",2.1613,rectangle
,,,,,,,,,,,,,FF,,,,,,,,1.0161,,,,,,,,,,,,,,,,,,,,,,60fcdebbef41e08776de751f,61037107e7d532e90980a526,2021-07-29_23h56.33.015,Simcolourproject_2stim_asymm_v5,2020.2.10,Win32,60,61025ae37ef11b136ea224fe,,,,,,,,,1031,88.80001277,38.39999413,1,0,0,response1disk,,6,7.200011551,-11.2000066,1,0,0,rectangle,7.200011551,-11.2000066,1,0,0,7.200011551,-11.2000066,1,0,0,0,68,68,101,1,,,,,,,,
,,,,,,,,,,,,,FF,,,,,,,,1.0328,,,,,,,,,,,,,,,,,,,,,,60fcdebbef41e08776de751f,61037107e7d532e90980a526,2021-07-29_23h56.33.015,Simcolourproject_2stim_asymm_v5,2020.2.10,Win32,60,61025ae37ef11b136ea224fe,,,,,,,,,1509,40.80001205,70.39999461,1,0,0,response1disk,,7,-11.19998872,-1.600006461,1,0,0,rectangle,-11.19998872,-1.600006461,1,0,0,-11.19998872,-1.600006461,1,0,0,0,69,69,18,1,,,,,,,,
,,,,,,,,,,,,,FF,,,,,,,,0.8666,,,,,,,,,,,,,,,,,,,,,,60fcdebbef41e08776de751f,61037107e7d532e90980a526,2021-07-29_23h56.33.015,Simcolourproject_2stim_asymm_v5,2020.2.10,Win32,60,61025ae37ef11b136ea224fe,,,,,,,,,2186,60.80001235,110.3999952,1,0,0,response1disk,,7,3.200011492,4.799993634,1,0,0,rectangle,3.200011492,4.799993634,1,0,0,3.200011492,4.799993634,1,0,0,0,70,70,34,1,,,,,,,,
,,,,,,,,,,,,,FF,,,,,,,,0.9005,,,,,,,,,,,,,,,,,,,,,,60fcdebbef41e08776de751f,61037107e7d532e90980a526,2021-07-29_23h56.33.015,Simcolourproject_2stim_asymm_v5,2020.2.10,Win32,60,61025ae37ef11b136ea224fe,,,,,,,,,3327,28.80001187,48.79999429,1,0,0,response1disk,,7,-9.599988699,-4.800006509,1,0,0,rectangle,-9.599988699,-4.800006509,1,0,0,-9.599988699,-4.800006509,1,0,0,0,71,71,150,1,,,,,,,,
,,,,,,,,,,,,,FF,,,,,,,,1.0499,,,,,,,,,,,,,,,,,,,,,,60fcdebbef41e08776de751f,61037107e7d532e90980a526,2021-07-29_23h56.33.015,Simcolourproject_2stim_asymm_v5,2020.2.10,Win32,60,61025ae37ef11b136ea224fe,,,,,,,,,1181,69.60001248,103.9999951,1,0,0,response1disk,,7,-5.599988639,-9.60000658,1,0,0,rectangle,-5.599988639,-9.60000658,1,0,0,-5.599988639,-9.60000658,1,0,0,0,72,72,83,1,,,,,,,,
,,,,,,,,,,,,,FF,,,,,,,,1.0499,,,,,,,,,,,,,,,,,,,,,,60fcdebbef41e08776de751f,61037107e7d532e90980a526,2021-07-29_23h56.33.015,Simcolourproject_2stim_asymm_v5,2020.2.10,Win32,60,61025ae37ef11b136ea224fe,,,,,,,,,1517,53.60001224,94.39999497,1,0,0,response1disk,,7,10.4000116,12.79999375,1,0,0,rectangle,10.4000116,12.79999375,1,0,0,10.4000116,12.79999375,1,0,0,0,73,73,88,1,,,,,,,,
,,,,,,,,,,,,,FF,,,,,,,,2.6661,,,,,,,,,,,,,,,,,,,,,,60fcdebbef41e08776de751f,61037107e7d532e90980a526,2021-07-29_23h56.33.015,Simcolourproject_2stim_asymm_v5,2020.2.10,Win32,60,61025ae37ef11b136ea224fe,,,,,,,,,4109,80.80001265,101.5999951,1,0,0,response1disk,,7,-7.999988675,-5.600006521,1,0,0,rectangle,-7.999988675,-5.600006521,1,0,0,-7.999988675,-5.600006521,1,0,0,0,74,74,108,1,,,,,,,,
,,,,,,,,,,,,,FF,,,,,,,,0.8666,,,,,,,,,,,,,,,,,,,,,,60fcdebbef41e08776de751f,61037107e7d532e90980a526,2021-07-29_23h56.33.015,Simcolourproject_2stim_asymm_v5,2020.2.10,Win32,60,61025ae37ef11b136ea224fe,,,,,,,,,2458,37.60006083,75.9999947,1,0,0,response1disk,,7,6.400011539,-4.800006509,1,0,0,rectangle,6.400011539,-4.800006509,1,0,0,6.400011539,-4.800006509,1,0,0,0,75,75,129,1,,,,,,,,
,,,,,,,,,,,,,FF,,,,,,,,0.895,,,,,,,,,,,,,,,,,,,,,,60fcdebbef41e08776de751f,61037107e7d532e90980a526,2021-07-29_23h56.33.015,Simcolourproject_2stim_asymm_v5,2020.2.10,Win32,60,61025ae37ef11b136ea224fe,,,,,,,,,413,69.60001248,129.5999955,1,0,0,response1disk,,7,2.40001148,3.999993622,1,0,0,rectangle,2.40001148,3.999993622,1,0,0,2.40001148,3.999993622,1,0,0,0,76,76,51,1,,,,,,,,
,,,,,,,,,,,,,FF,,,,,,,,1.2002,,,,,,,,,,,,,,,,,,,,,,60fcdebbef41e08776de751f,61037107e7d532e90980a526,2021-07-29_23h56.33.015,Simcolourproject_2stim_asymm_v5,2020.2.10,Win32,60,61025ae37ef11b136ea224fe,,,,,,,,,3487,62.40001237,37.59999412,1,0,0,response1disk,,6,-13.59998876,-11.2000066,1,0,0,rectangle,-13.59998876,-11.2000066,1,0,0,-13.59998876,-11.2000066,1,0,0,0,77,77,137,1,,,,,,,,
,,,,,,,,,,,,,FF,,,,,,,,0.8966,,,,,,,,,,,,,,,,,,,,,,60fcdebbef41e08776de751f,61037107e7d532e90980a526,2021-07-29_23h56.33.015,Simcolourproject_2stim_asymm_v5,2020.2.10,Win32,60,61025ae37ef11b136ea224fe,,,,,,,,,3874,38.40001202,53.59999436,1,0,0,response1disk,,7,-13.59998876,-8.000006557,1,0,0,rectangle,-13.59998876,-8.000006557,1,0,0,-13.59998876,-8.000006557,1,0,0,0,78,78,58,1,,,,,,,,
,,,,,,,,,,,,,FF,,,,,,,,1.6221,,,,,,,,,,,,,,,,,,,,,,60fcdebbef41e08776de751f,61037107e7d532e90980a526,2021-07-29_23h56.33.015,Simcolourproject_2stim_asymm_v5,2020.2.10,Win32,60,61025ae37ef11b136ea224fe,,,,,,,,,4176,44.80001211,74.39999467,1,0,0,response1disk,,7,-2.399939764,-6.400006533,1,0,0,rectangle,-2.399939764,-6.400006533,1,0,0,-2.399939764,-6.400006533,1,0,0,0,79,79,114,1,,,,,,,,
,,,,,,,,,,,,,FF,,,,,,,,0.9834,,,,,,,,,,,,,,,,,,,,,,60fcdebbef41e08776de751f,61037107e7d532e90980a526,2021-07-29_23h56.33.015,Simcolourproject_2stim_asymm_v5,2020.2.10,Win32,60,61025ae37ef11b136ea224fe,,,,,,,,,4055,48.80001217,80.79999477,1,0,0,response1disk,,7,1.14441E-05,-2.400006473,1,0,0,rectangle,1.14441E-05,-2.400006473,1,0,0,1.14441E-05,-2.400006473,1,0,0,0,80,80,46,1,,,,,,,,
,,,,,,,,,,,,,FF,,,,,,,,2.2163,,,,,,,,,,,,,,,,,,,,,,60fcdebbef41e08776de751f,61037107e7d532e90980a526,2021-07-29_23h56.33.015,Simcolourproject_2stim_asymm_v5,2020.2.10,Win32,60,61025ae37ef11b136ea224fe,,,,,,,,,1613,60.00001234,109.5999952,1,0,0,response1disk,,7,-2.399939764,-4.800006509,1,0,0,rectangle,-2.399939764,-4.800006509,1,0,0,-2.399939764,-4.800006509,1,0,0,0,81,81,135,1,,,,,,,,
,,,,,,,,,,,,,FF,,,,,,,,0.8167,,,,,,,,,,,,,,,,,,,,,,60fcdebbef41e08776de751f,61037107e7d532e90980a526,2021-07-29_23h56.33.015,Simcolourproject_2stim_asymm_v5,2020.2.10,Win32,60,61025ae37ef11b136ea224fe,,,,,,,,,2203,62.40001237,127.199971,1,0,0,response1disk,,7,-9.599988699,3.19999361,1,0,0,rectangle,-9.599988699,3.19999361,1,0,0,-9.599988699,3.19999361,1,0,0,0,82,82,124,1,,,,,,,,
,,,,,,,,,,,,,FF,,,,,,,,0.8376,,,,,,,,,,,,,,,,,,,,,,60fcdebbef41e08776de751f,61037107e7d532e90980a526,2021-07-29_23h56.33.015,Simcolourproject_2stim_asymm_v5,2020.2.10,Win32,60,61025ae37ef11b136ea224fe,,,,,,,,,3531,34.40001196,51.19996991,1,0,0,response1disk,,7,2.40001148,-1.600006461,1,0,0,rectangle,2.40001148,-1.600006461,1,0,0,2.40001148,-1.600006461,1,0,0,0,83,83,30,1,,,,,,,,
,,,,,,,,,,,,,FF,,,,,,,,1.7668,,,,,,,,,,,,,,,,,,,,,,60fcdebbef41e08776de751f,61037107e7d532e90980a526,2021-07-29_23h56.33.015,Simcolourproject_2stim_asymm_v5,2020.2.10,Win32,60,61025ae37ef11b136ea224fe,,,,,,,,,2664,123.2000133,-44.8000071,1,0,0,response3disk,,5,4.000011504,4.799993634,1,0,0,rectangle,4.000011504,4.799993634,1,0,0,4.000011504,4.799993634,1,0,0,0,84,84,28,1,,,,,,,,
,,,,,,,,,,,,,FF,,,,,,,,1.666,,,,,,,,,,,,,,,,,,,,,,60fcdebbef41e08776de751f,61037107e7d532e90980a526,2021-07-29_23h56.33.015,Simcolourproject_2stim_asymm_v5,2020.2.10,Win32,60,61025ae37ef11b136ea224fe,,,,,,,,,2299,36.80001199,-96.00000787,1,0,0,response3disk,,4,11.20001161,-9.60000658,1,0,0,rectangle,11.20001161,-9.60000658,1,0,0,11.20001161,-9.60000658,1,0,0,0,85,85,4,1,,,,,,,,
,,,,,,,,,,,,,FF,,,,,,,,1.567,,,,,,,,,,,,,,,,,,,,,,60fcdebbef41e08776de751f,61037107e7d532e90980a526,2021-07-29_23h56.33.015,Simcolourproject_2stim_asymm_v5,2020.2.10,Win32,60,61025ae37ef11b136ea224fe,,,,,,,,,3545,78.40001261,30.39999402,1,0,0,response1disk,,6,11.20001161,-8.000006557,1,0,0,rectangle,11.20001161,-8.000006557,1,0,0,11.20001161,-8.000006557,1,0,0,0,86,86,120,1,,,,,,,,
,,,,,,,,,,,,,FF,,,,,,,,1.5332,,,,,,,,,,,,,,,,,,,,,,60fcdebbef41e08776de751f,61037107e7d532e90980a526,2021-07-29_23h56.33.015,Simcolourproject_2stim_asymm_v5,2020.2.10,Win32,60,61025ae37ef11b136ea224fe,,,,,,,,,1398,78.40001261,-64.8000074,1,0,0,response3disk,,5,7.200011551,-5.600006521,1,0,0,rectangle,7.200011551,-5.600006521,1,0,0,7.200011551,-5.600006521,1,0,0,0,87,87,119,1,,,,,,,,
,,,,,,,,,,,,,FF,,,,,,,,1.6831,,,,,,,,,,,,,,,,,,,,,,60fcdebbef41e08776de751f,61037107e7d532e90980a526,2021-07-29_23h56.33.015,Simcolourproject_2stim_asymm_v5,2020.2.10,Win32,60,61025ae37ef11b136ea224fe,,,,,,,,,2998,103.200013,55.9999944,1,0,0,response1disk,,6,20.00001174,15.9999938,1,0,0,rectangle,20.00001174,15.9999938,1,0,0,20.00001174,15.9999938,1,0,0,0,88,88,62,1,,,,,,,,
,,,,,,,,,,,,,FF,,,,,,,,4.1786,,,,,,,,,,,,,,,,,,,,,,60fcdebbef41e08776de751f,61037107e7d532e90980a526,2021-07-29_23h56.33.015,Simcolourproject_2stim_asymm_v5,2020.2.10,Win32,60,61025ae37ef11b136ea224fe,,,,,,,,,4010,118.4000132,48.79999429,1,0,0,response1disk,,6,12.80001163,-6.400006533,1,0,0,rectangle,12.80001163,-6.400006533,1,0,0,12.80001163,-6.400006533,1,0,0,0,89,89,7,1,,,,,,,,
,,,,,,,,,,,,,FF,,,,,,,,0.9671,,,,,,,,,,,,,,,,,,,,,,60fcdebbef41e08776de751f,61037107e7d532e90980a526,2021-07-29_23h56.33.015,Simcolourproject_2stim_asymm_v5,2020.2.10,Win32,60,61025ae37ef11b136ea224fe,,,,,,,,,1857,53.60001224,65.59999454,1,0,0,response1disk,,7,-3.999988616,-4.800006509,1,0,0,rectangle,-3.999988616,-4.800006509,1,0,0,-3.999988616,-4.800006509,1,0,0,0,90,90,134,1,,,,,,,,
,,,,,,,,,,,,,FF,,,,,,,,0.8998,,,,,,,,,,,,,,,,,,,,,,60fcdebbef41e08776de751f,61037107e7d532e90980a526,2021-07-29_23h56.33.015,Simcolourproject_2stim_asymm_v5,2020.2.10,Win32,60,61025ae37ef11b136ea224fe,,,,,,,,,1094,50.4000122,79.19997033,1,0,0,response1disk,,7,4.000011504,9.599993706,1,0,0,rectangle,4.000011504,9.599993706,1,0,0,4.000011504,9.599993706,1,0,0,0,91,91,47,1,,,,,,,,
,,,,,,,,,,,,,FF,,,,,,,,1.0715,,,,,,,,,,,,,,,,,,,,,,60fcdebbef41e08776de751f,61037107e7d532e90980a526,2021-07-29_23h56.33.015,Simcolourproject_2stim_asymm_v5,2020.2.10,Win32,60,61025ae37ef11b136ea224fe,,,,,,,,,3951,67.20001245,20.79999387,1,0,0,response1disk,,6,7.200011551,-12.00000662,1,0,0,rectangle,7.200011551,-12.00000662,1,0,0,7.200011551,-12.00000662,1,0,0,0,92,92,78,1,,,,,,,,
,,,,,,,,,,,,,FF,,,,,,,,0.9668,,,,,,,,,,,,,,,,,,,,,,60fcdebbef41e08776de751f,61037107e7d532e90980a526,2021-07-29_23h56.33.015,Simcolourproject_2stim_asymm_v5,2020.2.10,Win32,60,61025ae37ef11b136ea224fe,,,,,,,,,3613,63.20001239,102.3999951,1,0,0,response1disk,,7,5.600060356,0.799993575,1,0,0,rectangle,5.600060356,0.799993575,1,0,0,5.600060356,0.799993575,1,0,0,0,93,93,27,1,,,,,,,,
,,,,,,,,,,,,,FF,,,,,,,,1.6164,,,,,,,,,,,,,,,,,,,,,,60fcdebbef41e08776de751f,61037107e7d532e90980a526,2021-07-29_23h56.33.015,Simcolourproject_2stim_asymm_v5,2020.2.10,Win32,60,61025ae37ef11b136ea224fe,,,,,,,,,3329,-63.99998951,-99.20000792,1,0,0,response5disk,,3,-13.59998876,4.799993634,1,0,0,rectangle,-13.59998876,4.799993634,1,0,0,-13.59998876,4.799993634,1,0,0,0,94,94,13,1,,,,,,,,
,,,,,,,,,,,,,FF,,,,,,,,1.25,,,,,,,,,,,,,,,,,,,,,,60fcdebbef41e08776de751f,61037107e7d532e90980a526,2021-07-29_23h56.33.015,Simcolourproject_2stim_asymm_v5,2020.2.10,Win32,60,61025ae37ef11b136ea224fe,,,,,,,,,153,105.600013,54.39999437,1,0,0,response1disk,,6,6.400011539,0.799993575,1,0,0,rectangle,6.400011539,0.799993575,1,0,0,6.400011539,0.799993575,1,0,0,0,95,95,63,1,,,,,,,,
,,,,,,,,,,,,,FF,,,,,,,,4.382,,,,,,,,,,,,,,,,,,,,,,60fcdebbef41e08776de751f,61037107e7d532e90980a526,2021-07-29_23h56.33.015,Simcolourproject_2stim_asymm_v5,2020.2.10,Win32,60,61025ae37ef11b136ea224fe,,,,,,,,,1136,-100.7999901,-34.40000695,1,0,0,response5disk,,2,-35.19998908,9.599993706,1,0,0,rectangle,-35.19998908,9.599993706,1,0,0,-35.19998908,9.599993706,1,0,0,0,96,96,125,1,,,,,,,,
,,,,,,,,,,,,,FF,,,,,,,,1.0996,,,,,,,,,,,,,,,,,,,,,,60fcdebbef41e08776de751f,61037107e7d532e90980a526,2021-07-29_23h56.33.015,Simcolourproject_2stim_asymm_v5,2020.2.10,Win32,60,61025ae37ef11b136ea224fe,,,,,,,,,2144,74.40001255,23.99999392,1,0,0,response1disk,,6,9.600060415,-4.800006509,1,0,0,rectangle,9.600060415,-4.800006509,1,0,0,9.600060415,-4.800006509,1,0,0,0,97,97,79,1,,,,,,,,
,,,,,,,,,,,,,FF,,,,,,,,1.3999,,,,,,,,,,,,,,,,,,,,,,60fcdebbef41e08776de751f,61037107e7d532e90980a526,2021-07-29_23h56.33.015,Simcolourproject_2stim_asymm_v5,2020.2.10,Win32,60,61025ae37ef11b136ea224fe,,,,,,,,,4170,-97.59999001,-48.80000716,1,0,0,response5disk,,2,-19.99998885,-3.200006485,1,0,0,rectangle,-19.99998885,-3.200006485,1,0,0,-19.99998885,-3.200006485,1,0,0,0,98,98,56,1,,,,,,,,
,,,,,,,,,,,,,FF,,,,,,,,0.8948,,,,,,,,,,,,,,,,,,,,,,60fcdebbef41e08776de751f,61037107e7d532e90980a526,2021-07-29_23h56.33.015,Simcolourproject_2stim_asymm_v5,2020.2.10,Win32,60,61025ae37ef11b136ea224fe,,,,,,,,,1085,47.20001215,79.99999475,1,0,0,response1disk,,7,-5.599988639,-12.00000662,1,0,0,rectangle,-5.599988639,-12.00000662,1,0,0,-5.599988639,-12.00000662,1,0,0,0,99,99,110,1,,,,,,,,
,,,,,,,,,,,,,FF,,,,,,,,1.0168,,,,,,,,,,,,,,,,,,,,,,60fcdebbef41e08776de751f,61037107e7d532e90980a526,2021-07-29_23h56.33.015,Simcolourproject_2stim_asymm_v5,2020.2.10,Win32,60,61025ae37ef11b136ea224fe,,,,,,,,,1924,-33.59998906,-77.60000759,1,0,0,response5disk,,3,12.00001162,9.599993706,1,0,0,rectangle,12.00001162,9.599993706,1,0,0,12.00001162,9.599993706,1,0,0,0,100,100,99,1,,,,,,,,
,,,,,,,,,,,,,FF,,,,,,,,0.9456,,,,,,,,,,,,,,,,,,,,,,60fcdebbef41e08776de751f,61037107e7d532e90980a526,2021-07-29_23h56.33.015,Simcolourproject_2stim_asymm_v5,2020.2.10,Win32,60,61025ae37ef11b136ea224fe,,,,,,,,,3300,36.00001198,67.99999458,1,0,0,response1disk,,7,-3.199988604,13.59999377,1,0,0,rectangle,-3.199988604,13.59999377,1,0,0,-3.199988604,13.59999377,1,0,0,0,101,101,115,1,,,,,,,,
,,,,,,,,,,,,,FF,,,,,,,,0.8625,,,,,,,,,,,,,,,,,,,,,,60fcdebbef41e08776de751f,61037107e7d532e90980a526,2021-07-29_23h56.33.015,Simcolourproject_2stim_asymm_v5,2020.2.10,Win32,60,61025ae37ef11b136ea224fe,,,,,,,,,1409,60.80001235,111.1999708,1,0,0,response1disk,,7,2.40001148,-6.400006533,1,0,0,rectangle,2.40001148,-6.400006533,1,0,0,2.40001148,-6.400006533,1,0,0,0,102,102,102,1,,,,,,,,
,,,,,,,,,,,,,FF,,,,,,,,2.7668,,,,,,,,,,,,,,,,,,,,,,60fcdebbef41e08776de751f,61037107e7d532e90980a526,2021-07-29_23h56.33.015,Simcolourproject_2stim_asymm_v5,2020.2.10,Win32,60,61025ae37ef11b136ea224fe,,,,,,,,,3783,107.200013,39.19996973,1,0,0,response1disk,,6,-11.19998872,-2.400006473,1,0,0,rectangle,-11.19998872,-2.400006473,1,0,0,-11.19998872,-2.400006473,1,0,0,0,103,103,38,1,,,,,,,,
,,,,,,,,,,,,,FF,,,,,,,,1.7493,,,,,,,,,,,,,,,,,,,,,,60fcdebbef41e08776de751f,61037107e7d532e90980a526,2021-07-29_23h56.33.015,Simcolourproject_2stim_asymm_v5,2020.2.10,Win32,60,61025ae37ef11b136ea224fe,,,,,,,,,3581,64.80001241,121.5999954,1,0,0,response1disk,,7,-7.199988663,7.999993682,1,0,0,rectangle,-7.199988663,7.999993682,1,0,0,-7.199988663,7.999993682,1,0,0,0,104,104,144,1,,,,,,,,
,,,,,,,,,,,,,FF,,,,,,,,1.0503,,,,,,,,,,,,,,,,,,,,,,60fcdebbef41e08776de751f,61037107e7d532e90980a526,2021-07-29_23h56.33.015,Simcolourproject_2stim_asymm_v5,2020.2.10,Win32,60,61025ae37ef11b136ea224fe,,,,,,,,,3890,38.40001202,73.59999466,1,0,0,response1disk,,7,4.800011516,-1.600006461,1,0,0,rectangle,80.00001264,23.19996949,1,0,0,-3.199988604,-4.800006509,1,0,0,0,105,105,75,1,,response1disk_3,TRUE,6,6,"[11,29,134,232,207,106,68,163,7,317,47,212,43,119,251,210,142,143,208,55]",1.9117,rectangle
,,,,,,,,,,,,,FF,,,,,,,,1.4678,,,,,,,,,,,,,,,,,,,,,,60fcdebbef41e08776de751f,61037107e7d532e90980a526,2021-07-29_23h56.33.015,Simcolourproject_2stim_asymm_v5,2020.2.10,Win32,60,61025ae37ef11b136ea224fe,,,,,,,,,2332,79.20001262,17.59999382,1,0,0,response1disk,,6,11.20001161,7.19999367,1,0,0,rectangle,11.20001161,7.19999367,1,0,0,11.20001161,7.19999367,1,0,0,0,106,106,66,1,,,,,,,,
,,,,,,,,,,,,,FF,,,,,,,,1.6496,,,,,,,,,,,,,,,,,,,,,,60fcdebbef41e08776de751f,61037107e7d532e90980a526,2021-07-29_23h56.33.015,Simcolourproject_2stim_asymm_v5,2020.2.10,Win32,60,61025ae37ef11b136ea224fe,,,,,,,,,3797,40.00001204,99.19997063,1,0,0,response1disk,,7,2.40001148,-4.000006497,1,0,0,rectangle,2.40001148,-4.000006497,1,0,0,2.40001148,-4.000006497,1,0,0,0,107,107,127,1,,,,,,,,
,,,,,,,,,,,,,FF,,,,,,,,1.7009,,,,,,,,,,,,,,,,,,,,,,60fcdebbef41e08776de751f,61037107e7d532e90980a526,2021-07-29_23h56.33.015,Simcolourproject_2stim_asymm_v5,2020.2.10,Win32,60,61025ae37ef11b136ea224fe,,,,,,,,,91,23.20001179,-76.00000757,1,0,0,response3disk,,4,-6.399939823,-4.800006509,1,0,0,rectangle,-6.399939823,-4.800006509,1,0,0,-6.399939823,-4.800006509,1,0,0,0,108,108,37,1,,,,,,,,
,,,,,,,,,,,,,FF,,,,,,,,1.6337,,,,,,,,,,,,,,,,,,,,,,60fcdebbef41e08776de751f,61037107e7d532e90980a526,2021-07-29_23h56.33.015,Simcolourproject_2stim_asymm_v5,2020.2.10,Win32,60,61025ae37ef11b136ea224fe,,,,,,,,,1831,-26.39994012,83.99999481,1,0,0,response7disk,,0,9.600060415,6.399993658,1,0,0,rectangle,9.600060415,6.399993658,1,0,0,9.600060415,6.399993658,1,0,0,0,109,109,149,1,,,,,,,,
,,,,,,,,,,,,,FF,,,,,,,,2.2492,,,,,,,,,,,,,,,,,,,,,,60fcdebbef41e08776de751f,61037107e7d532e90980a526,2021-07-29_23h56.33.015,Simcolourproject_2stim_asymm_v5,2020.2.10,Win32,60,61025ae37ef11b136ea224fe,,,,,,,,,2996,38.40001202,-63.20000738,1,0,0,response3disk,,4,20.00001174,-14.40000665,1,0,0,rectangle,20.00001174,-14.40000665,1,0,0,20.00001174,-14.40000665,1,0,0,0,110,110,155,1,,,,,,,,
,,,,,,,,,,,,,FF,,,,,,,,1.0332,,,,,,,,,,,,,,,,,,,,,,60fcdebbef41e08776de751f,61037107e7d532e90980a526,2021-07-29_23h56.33.015,Simcolourproject_2stim_asymm_v5,2020.2.10,Win32,60,61025ae37ef11b136ea224fe,,,,,,,,,3111,88.00001276,-53.60000724,1,0,0,response3disk,,5,-1.59998858,6.399993658,1,0,0,rectangle,-1.59998858,6.399993658,1,0,0,-1.59998858,6.399993658,1,0,0,0,111,111,100,1,,,,,,,,
,,,,,,,,,,,,,FF,,,,,,,,1.1005,,,,,,,,,,,,,,,,,,,,,,60fcdebbef41e08776de751f,61037107e7d532e90980a526,2021-07-29_23h56.33.015,Simcolourproject_2stim_asymm_v5,2020.2.10,Win32,60,61025ae37ef11b136ea224fe,,,,,,,,,1531,70.40001249,31.19996961,1,0,0,response1disk,,6,-7.999988675,-8.000006557,1,0,0,rectangle,-7.999988675,-8.000006557,1,0,0,-7.999988675,-8.000006557,1,0,0,0,112,112,95,1,,,,,,,,
,,,,,,,,,,,,,FF,,,,,,,,0.8829,,,,,,,,,,,,,,,,,,,,,,60fcdebbef41e08776de751f,61037107e7d532e90980a526,2021-07-29_23h56.33.015,Simcolourproject_2stim_asymm_v5,2020.2.10,Win32,60,61025ae37ef11b136ea224fe,,,,,,,,,2638,53.60001224,72.79999465,1,0,0,response1disk,,7,12.00001162,6.399993658,1,0,0,rectangle,12.00001162,6.399993658,1,0,0,12.00001162,6.399993658,1,0,0,0,113,113,33,1,,,,,,,,
,,,,,,,,,,,,,FF,,,,,,,,1.3502,,,,,,,,,,,,,,,,,,,,,,60fcdebbef41e08776de751f,61037107e7d532e90980a526,2021-07-29_23h56.33.015,Simcolourproject_2stim_asymm_v5,2020.2.10,Win32,60,61025ae37ef11b136ea224fe,,,,,,,,,3983,40.80001205,105.5999951,1,0,0,response1disk,,7,2.40001148,2.399993598,1,0,0,rectangle,2.40001148,2.399993598,1,0,0,2.40001148,2.399993598,1,0,0,0,114,114,48,1,,,,,,,,
,,,,,,,,,,,,,FF,,,,,,,,1.067,,,,,,,,,,,,,,,,,,,,,,60fcdebbef41e08776de751f,61037107e7d532e90980a526,2021-07-29_23h56.33.015,Simcolourproject_2stim_asymm_v5,2020.2.10,Win32,60,61025ae37ef11b136ea224fe,,,,,,,,,3406,98.40001291,49.5999943,1,0,0,response1disk,,6,23.20001179,-0.800006449,1,0,0,rectangle,23.20001179,-0.800006449,1,0,0,23.20001179,-0.800006449,1,0,0,0,115,115,153,1,,,,,,,,
,,,,,,,,,,,,,FF,,,,,,,,0.9994,,,,,,,,,,,,,,,,,,,,,,60fcdebbef41e08776de751f,61037107e7d532e90980a526,2021-07-29_23h56.33.015,Simcolourproject_2stim_asymm_v5,2020.2.10,Win32,60,61025ae37ef11b136ea224fe,,,,,,,,,1344,48.80001217,82.39999479,1,0,0,response1disk,,7,3.200011492,7.19999367,1,0,0,rectangle,3.200011492,7.19999367,1,0,0,3.200011492,7.19999367,1,0,0,0,116,116,53,1,,,,,,,,
,,,,,,,,,,,,,FF,,,,,,,,1.2666,,,,,,,,,,,,,,,,,,,,,,60fcdebbef41e08776de751f,61037107e7d532e90980a526,2021-07-29_23h56.33.015,Simcolourproject_2stim_asymm_v5,2020.2.10,Win32,60,61025ae37ef11b136ea224fe,,,,,,,,,900,104.800013,51.19996991,1,0,0,response1disk,,6,5.600060356,6.399993658,1,0,0,rectangle,5.600060356,6.399993658,1,0,0,5.600060356,6.399993658,1,0,0,0,117,117,54,1,,,,,,,,
,,,,,,,,,,,,,FF,,,,,,,,1.6832,,,,,,,,,,,,,,,,,,,,,,60fcdebbef41e08776de751f,61037107e7d532e90980a526,2021-07-29_23h56.33.015,Simcolourproject_2stim_asymm_v5,2020.2.10,Win32,60,61025ae37ef11b136ea224fe,,,,,,,,,843,72.80001253,87.19997045,1,0,0,response1disk,,7,1.14441E-05,3.999993622,1,0,0,rectangle,-55.99998939,-94.40000784,1,0,0,-7.999988675,-4.800006509,1,0,0,0,118,118,106,1,,response5disk_3,TRUE,3,3,"[11,29,134,232,207,106,68,163,7,317,47,212,43,119,251,210,142,143,208,55]",2.5155,rectangle
,,,,,,,,,,,,,FF,,,,,,,,1.016,,,,,,,,,,,,,,,,,,,,,,60fcdebbef41e08776de751f,61037107e7d532e90980a526,2021-07-29_23h56.33.015,Simcolourproject_2stim_asymm_v5,2020.2.10,Win32,60,61025ae37ef11b136ea224fe,,,,,,,,,2807,32.00001192,59.99999446,1,0,0,response1disk,,7,1.14441E-05,-5.600006521,1,0,0,rectangle,1.14441E-05,-5.600006521,1,0,0,1.14441E-05,-5.600006521,1,0,0,0,119,119,84,1,,,,,,,,
,,,,,,,,,,,,,FF,,,,,,,,0.9165,,,,,,,,,,,,,,,,,,,,,,60fcdebbef41e08776de751f,61037107e7d532e90980a526,2021-07-29_23h56.33.015,Simcolourproject_2stim_asymm_v5,2020.2.10,Win32,60,61025ae37ef11b136ea224fe,,,,,,,,,3030,63.20001239,83.99999481,1,0,0,response1disk,,7,9.600060415,-6.4373E-06,1,0,0,rectangle,9.600060415,-6.4373E-06,1,0,0,9.600060415,-6.4373E-06,1,0,0,0,120,120,80,1,,,,,,,,
,,,,,,,,,,,,,FF,,,,,,,,0.9335,,,,,,,,,,,,,,,,,,,,,,60fcdebbef41e08776de751f,61037107e7d532e90980a526,2021-07-29_23h56.33.015,Simcolourproject_2stim_asymm_v5,2020.2.10,Win32,60,61025ae37ef11b136ea224fe,,,,,,,,,466,92.80001283,61.59999448,1,0,0,response1disk,,6,-3.199988604,-5.600006521,1,0,0,rectangle,-3.199988604,-5.600006521,1,0,0,-3.199988604,-5.600006521,1,0,0,0,121,121,98,1,,,,,,,,
,,,,,,,,,,,,,FF,,,,,,,,0.9004,,,,,,,,,,,,,,,,,,,,,,60fcdebbef41e08776de751f,61037107e7d532e90980a526,2021-07-29_23h56.33.015,Simcolourproject_2stim_asymm_v5,2020.2.10,Win32,60,61025ae37ef11b136ea224fe,,,,,,,,,1689,110.4000131,67.99999458,1,0,0,response1disk,,6,-1.59998858,3.19999361,1,0,0,rectangle,-1.59998858,3.19999361,1,0,0,-1.59998858,3.19999361,1,0,0,0,122,122,147,1,,,,,,,,
,,,,,,,,,,,,,FF,,,,,,,,1.0011,,,,,,,,,,,,,,,,,,,,,,60fcdebbef41e08776de751f,61037107e7d532e90980a526,2021-07-29_23h56.33.015,Simcolourproject_2stim_asymm_v5,2020.2.10,Win32,60,61025ae37ef11b136ea224fe,,,,,,,,,1656,88.80001277,108.7999952,1,0,0,response1disk,,7,6.400011539,-10.40000659,1,0,0,rectangle,6.400011539,-10.40000659,1,0,0,6.400011539,-10.40000659,1,0,0,0,123,123,61,1,,,,,,,,
,,,,,,,,,,,,,FF,,,,,,,,1.2665,,,,,,,,,,,,,,,,,,,,,,60fcdebbef41e08776de751f,61037107e7d532e90980a526,2021-07-29_23h56.33.015,Simcolourproject_2stim_asymm_v5,2020.2.10,Win32,60,61025ae37ef11b136ea224fe,,,,,,,,,82,93.60001284,-46.40000713,1,0,0,response3disk,,5,-1.59998858,6.399993658,1,0,0,rectangle,-1.59998858,6.399993658,1,0,0,-1.59998858,6.399993658,1,0,0,0,124,124,55,1,,,,,,,,
,,,,,,,,,,,,,FF,,,,,,,,2.4334,,,,,,,,,,,,,,,,,,,,,,60fcdebbef41e08776de751f,61037107e7d532e90980a526,2021-07-29_23h56.33.015,Simcolourproject_2stim_asymm_v5,2020.2.10,Win32,60,61025ae37ef11b136ea224fe,,,,,,,,,4046,-37.59998912,96.79999501,1,0,0,response7disk,,0,9.600060415,5.599993646,1,0,0,rectangle,9.600060415,5.599993646,1,0,0,9.600060415,5.599993646,1,0,0,0,125,125,20,1,,,,,,,,
,,,,,,,,,,,,,FF,,,,,,,,0.9995,,,,,,,,,,,,,,,,,,,,,,60fcdebbef41e08776de751f,61037107e7d532e90980a526,2021-07-29_23h56.33.015,Simcolourproject_2stim_asymm_v5,2020.2.10,Win32,60,61025ae37ef11b136ea224fe,,,,,,,,,132,54.40001225,86.39999485,1,0,0,response1disk,,7,6.400011539,-3.200006485,1,0,0,rectangle,6.400011539,-3.200006485,1,0,0,6.400011539,-3.200006485,1,0,0,0,126,126,29,1,,,,,,,,
,,,,,,,,,,,,,FF,,,,,,,,1.2507,,,,,,,,,,,,,,,,,,,,,,60fcdebbef41e08776de751f,61037107e7d532e90980a526,2021-07-29_23h56.33.015,Simcolourproject_2stim_asymm_v5,2020.2.10,Win32,60,61025ae37ef11b136ea224fe,,,,,,,,,1052,29.60006071,-89.6000566,1,0,0,response3disk,,4,-5.599988639,-7.200006545,1,0,0,rectangle,-5.599988639,-7.200006545,1,0,0,-5.599988639,-7.200006545,1,0,0,0,127,127,3,1,,,,,,,,
,,,,,,,,,,,,,FF,,,,,,,,1.1497,,,,,,,,,,,,,,,,,,,,,,60fcdebbef41e08776de751f,61037107e7d532e90980a526,2021-07-29_23h56.33.015,Simcolourproject_2stim_asymm_v5,2020.2.10,Win32,60,61025ae37ef11b136ea224fe,,,,,,,,,273,95.20001286,-64.00000739,1,0,0,response3disk,,5,27.20001185,-11.2000066,1,0,0,rectangle,27.20001185,-11.2000066,1,0,0,27.20001185,-11.2000066,1,0,0,0,128,128,6,1,,,,,,,,
,,,,,,,,,,,,,FF,,,,,,,,1.4997,,,,,,,,,,,,,,,,,,,,,,60fcdebbef41e08776de751f,61037107e7d532e90980a526,2021-07-29_23h56.33.015,Simcolourproject_2stim_asymm_v5,2020.2.10,Win32,60,61025ae37ef11b136ea224fe,,,,,,,,,4168,-63.1999895,39.99999416,1,0,0,response7disk,,1,1.600060296,15.9999938,1,0,0,rectangle,1.600060296,15.9999938,1,0,0,1.600060296,15.9999938,1,0,0,0,129,129,156,1,,,,,,,,
,,,,,,,,,,,,,FF,,,,,,,,1.1666,,,,,,,,,,,,,,,,,,,,,,60fcdebbef41e08776de751f,61037107e7d532e90980a526,2021-07-29_23h56.33.015,Simcolourproject_2stim_asymm_v5,2020.2.10,Win32,60,61025ae37ef11b136ea224fe,,,,,,,,,862,40.00001204,-84.8000077,1,0,0,response3disk,,4,4.800011516,1.599993587,1,0,0,rectangle,4.800011516,1.599993587,1,0,0,4.800011516,1.599993587,1,0,0,0,130,130,118,1,,,,,,,,
,,,,,,,,,,,,,FF,,,,,,,,0.8832,,,,,,,,,,,,,,,,,,,,,,60fcdebbef41e08776de751f,61037107e7d532e90980a526,2021-07-29_23h56.33.015,Simcolourproject_2stim_asymm_v5,2020.2.10,Win32,60,61025ae37ef11b136ea224fe,,,,,,,,,1108,66.40001243,105.5999951,1,0,0,response1disk,,7,6.400011539,-3.200006485,1,0,0,rectangle,6.400011539,-3.200006485,1,0,0,6.400011539,-3.200006485,1,0,0,0,131,131,141,1,,,,,,,,
,,,,,,,,,,,,,FF,,,,,,,,2.333,,,,,,,,,,,,,,,,,,,,,,60fcdebbef41e08776de751f,61037107e7d532e90980a526,2021-07-29_23h56.33.015,Simcolourproject_2stim_asymm_v5,2020.2.10,Win32,60,61025ae37ef11b136ea224fe,,,,,,,,,4338,-106.3999413,-63.20000738,1,0,0,response5disk,,2,-21.59998888,-4.000006497,1,0,0,rectangle,-21.59998888,-4.000006497,1,0,0,-21.59998888,-4.000006497,1,0,0,0,132,132,36,1,,,,,,,,
,,,,,,,,,,,,,FF,,,,,,,,1.6163,,,,,,,,,,,,,,,,,,,,,,60fcdebbef41e08776de751f,61037107e7d532e90980a526,2021-07-29_23h56.33.015,Simcolourproject_2stim_asymm_v5,2020.2.10,Win32,60,61025ae37ef11b136ea224fe,,,,,,,,,146,47.20001215,79.99999475,1,0,0,response1disk,,7,1.14441E-05,-8.800006568,1,0,0,rectangle,36.80001199,-84.8000077,1,0,0,7.200011551,-12.00000662,1,0,0,0,133,133,142,1,,response3disk_3,TRUE,4,4,"[11,29,134,232,207,106,68,163,7,317,47,212,43,119,251,210,142,143,208,55]",1.8989,rectangle
,,,,,,,,,,,,,FF,,,,,,,,0.9317,,,,,,,,,,,,,,,,,,,,,,60fcdebbef41e08776de751f,61037107e7d532e90980a526,2021-07-29_23h56.33.015,Simcolourproject_2stim_asymm_v5,2020.2.10,Win32,60,61025ae37ef11b136ea224fe,,,,,,,,,3029,34.40001196,47.19996985,1,0,0,response1disk,,7,10.4000116,-8.000006557,1,0,0,rectangle,10.4000116,-8.000006557,1,0,0,10.4000116,-8.000006557,1,0,0,0,134,134,72,1,,,,,,,,
,,,,,,,,,,,,,FF,,,,,,,,1.8001,,,,,,,,,,,,,,,,,,,,,,60fcdebbef41e08776de751f,61037107e7d532e90980a526,2021-07-29_23h56.33.015,Simcolourproject_2stim_asymm_v5,2020.2.10,Win32,60,61025ae37ef11b136ea224fe,,,,,,,,,2057,32.00001192,58.39999443,1,0,0,response1disk,,7,-3.199988604,-9.60000658,1,0,0,rectangle,-3.199988604,-9.60000658,1,0,0,-3.199988604,-9.60000658,1,0,0,0,135,135,68,1,,,,,,,,
,,,,,,,,,,,,,FF,,,,,,,,0.8499,,,,,,,,,,,,,,,,,,,,,,60fcdebbef41e08776de751f,61037107e7d532e90980a526,2021-07-29_23h56.33.015,Simcolourproject_2stim_asymm_v5,2020.2.10,Win32,60,61025ae37ef11b136ea224fe,,,,,,,,,602,41.60006089,95.99999499,1,0,0,response1disk,,7,8.800011575,2.399993598,1,0,0,rectangle,8.800011575,2.399993598,1,0,0,8.800011575,2.399993598,1,0,0,0,136,136,123,1,,,,,,,,
,,,,,,,,,,,,,FF,,,,,,,,1.1004,,,,,,,,,,,,,,,,,,,,,,60fcdebbef41e08776de751f,61037107e7d532e90980a526,2021-07-29_23h56.33.015,Simcolourproject_2stim_asymm_v5,2020.2.10,Win32,60,61025ae37ef11b136ea224fe,,,,,,,,,1357,77.6000126,51.99999434,1,0,0,response1disk,,6,0.800011456,-14.40000665,1,0,0,rectangle,0.800011456,-14.40000665,1,0,0,0.800011456,-14.40000665,1,0,0,0,137,137,0,1,,,,,,,,
,,,,,,,,,,,,,FF,,,,,,,,1.3337,,,,,,,,,,,,,,,,,,,,,,60fcdebbef41e08776de751f,61037107e7d532e90980a526,2021-07-29_23h56.33.015,Simcolourproject_2stim_asymm_v5,2020.2.10,Win32,60,61025ae37ef11b136ea224fe,,,,,,,,,3194,31.20001191,-68.80000746,1,0,0,response3disk,,4,7.200011551,11.99999374,1,0,0,rectangle,7.200011551,11.99999374,1,0,0,7.200011551,11.99999374,1,0,0,0,138,138,116,1,,,,,,,,
,,,,,,,,,,,,,FF,,,,,,,,1.3155,,,,,,,,,,,,,,,,,,,,,,60fcdebbef41e08776de751f,61037107e7d532e90980a526,2021-07-29_23h56.33.015,Simcolourproject_2stim_asymm_v5,2020.2.10,Win32,60,61025ae37ef11b136ea224fe,,,,,,,,,2901,-87.99998987,44.79999423,1,0,0,response7disk,,1,-9.599988699,-12.80000663,1,0,0,rectangle,-9.599988699,-12.80000663,1,0,0,-9.599988699,-12.80000663,1,0,0,0,139,139,96,1,,,,,,,,
,,,,,,,,,,,,,FF,,,,,,,,0.9001,,,,,,,,,,,,,,,,,,,,,,60fcdebbef41e08776de751f,61037107e7d532e90980a526,2021-07-29_23h56.33.015,Simcolourproject_2stim_asymm_v5,2020.2.10,Win32,60,61025ae37ef11b136ea224fe,,,,,,,,,1837,-47.19998926,-92.80000782,1,0,0,response5disk,,3,2.40001148,-12.00000662,1,0,0,rectangle,2.40001148,-12.00000662,1,0,0,2.40001148,-12.00000662,1,0,0,0,140,140,39,1,,,,,,,,
,,,,,,,,,,,,,FF,,,,,,,,1.05,,,,,,,,,,,,,,,,,,,,,,60fcdebbef41e08776de751f,61037107e7d532e90980a526,2021-07-29_23h56.33.015,Simcolourproject_2stim_asymm_v5,2020.2.10,Win32,60,61025ae37ef11b136ea224fe,,,,,,,,,3856,-84.79998982,-56.80000728,1,0,0,response5disk,,2,14.40001166,-6.4373E-06,1,0,0,rectangle,49.60006101,-114.4000081,1,0,0,-12.79998875,-2.400006473,1,0,0,0,141,141,117,1,,response3disk_3,TRUE,4,4,"[11,29,134,232,207,106,68,163,7,317,47,212,43,119,251,210,142,143,208,55]",1.8164,rectangle
,,,,,,,,,,,,,FF,,,,,,,,1.185,,,,,,,,,,,,,,,,,,,,,,60fcdebbef41e08776de751f,61037107e7d532e90980a526,2021-07-29_23h56.33.015,Simcolourproject_2stim_asymm_v5,2020.2.10,Win32,60,61025ae37ef11b136ea224fe,,,,,,,,,961,45.60006095,-82.40000767,1,0,0,response3disk,,4,5.600060356,-12.80000663,1,0,0,rectangle,80.00001264,28.79999399,1,0,0,0.800011456,-16.80000669,1,0,0,0,142,142,81,1,,response1disk_3,TRUE,6,6,"[11,29,134,232,207,106,68,163,7,317,47,212,43,119,251,210,142,143,208,55]",2.6488,rectangle
,,,,,,,,,,,,,FF,,,,,,,,1.7665,,,,,,,,,,,,,,,,,,,,,,60fcdebbef41e08776de751f,61037107e7d532e90980a526,2021-07-29_23h56.33.015,Simcolourproject_2stim_asymm_v5,2020.2.10,Win32,60,61025ae37ef11b136ea224fe,,,,,,,,,2983,82.40001267,-67.20000744,1,0,0,response3disk,,5,10.4000116,2.399993598,1,0,0,rectangle,10.4000116,2.399993598,1,0,0,10.4000116,2.399993598,1,0,0,0,143,143,111,1,,,,,,,,
,,,,,,,,,,,,,FF,,,,,,,,1.6997,,,,,,,,,,,,,,,,,,,,,,60fcdebbef41e08776de751f,61037107e7d532e90980a526,2021-07-29_23h56.33.015,Simcolourproject_2stim_asymm_v5,2020.2.10,Win32,60,61025ae37ef11b136ea224fe,,,,,,,,,1895,-32.79998904,-80.80000764,1,0,0,response5disk,,3,4.000011504,15.9999938,1,0,0,rectangle,4.000011504,15.9999938,1,0,0,4.000011504,15.9999938,1,0,0,0,144,144,97,1,,,,,,,,
,,,,,,,,,,,,,FF,,,,,,,,0.9338,,,,,,,,,,,,,,,,,,,,,,60fcdebbef41e08776de751f,61037107e7d532e90980a526,2021-07-29_23h56.33.015,Simcolourproject_2stim_asymm_v5,2020.2.10,Win32,60,61025ae37ef11b136ea224fe,,,,,,,,,4237,-99.19999003,40.79999417,1,0,0,response7disk,,1,-2.399939764,4.799993634,1,0,0,rectangle,-2.399939764,4.799993634,1,0,0,-2.399939764,4.799993634,1,0,0,0,145,145,12,1,,,,,,,,
,,,,,,,,,,,,,FF,,,,,,,,0.8175,,,,,,,,,,,,,,,,,,,,,,60fcdebbef41e08776de751f,61037107e7d532e90980a526,2021-07-29_23h56.33.015,Simcolourproject_2stim_asymm_v5,2020.2.10,Win32,60,61025ae37ef11b136ea224fe,,,,,,,,,2748,47.20001215,71.19997021,1,0,0,response1disk,,7,6.400011539,-8.800006568,1,0,0,rectangle,6.400011539,-8.800006568,1,0,0,6.400011539,-8.800006568,1,0,0,0,146,146,49,1,,,,,,,,
,,,,,,,,,,,,,FF,,,,,,,,0.9006,,,,,,,,,,,,,,,,,,,,,,60fcdebbef41e08776de751f,61037107e7d532e90980a526,2021-07-29_23h56.33.015,Simcolourproject_2stim_asymm_v5,2020.2.10,Win32,60,61025ae37ef11b136ea224fe,,,,,,,,,3137,33.60006077,52.79999435,1,0,0,response1disk,,7,4.000011504,-7.200006545,1,0,0,rectangle,4.000011504,-7.200006545,1,0,0,4.000011504,-7.200006545,1,0,0,0,147,147,140,1,,,,,,,,
,,,,,,,,,,,,,FF,,,,,,,,1.3213,,,,,,,,,,,,,,,,,,,,,,60fcdebbef41e08776de751f,61037107e7d532e90980a526,2021-07-29_23h56.33.015,Simcolourproject_2stim_asymm_v5,2020.2.10,Win32,60,61025ae37ef11b136ea224fe,,,,,,,,,2763,51.20001221,-80.00000763,1,0,0,response3disk,,4,1.14441E-05,6.399993658,1,0,0,rectangle,1.14441E-05,6.399993658,1,0,0,1.14441E-05,6.399993658,1,0,0,0,148,148,10,1,,,,,,,,
,,,,,,,,,,,,,FF,,,,,,,,0.8662,,,,,,,,,,,,,,,,,,,,,,60fcdebbef41e08776de751f,61037107e7d532e90980a526,2021-07-29_23h56.33.015,Simcolourproject_2stim_asymm_v5,2020.2.10,Win32,60,61025ae37ef11b136ea224fe,,,,,,,,,2780,-91.19998991,33.59999406,1,0,0,response7disk,,1,-12.79998875,-2.400006473,1,0,0,rectangle,-12.79998875,-2.400006473,1,0,0,-12.79998875,-2.400006473,1,0,0,0,149,149,32,1,,,,,,,,
,,,,,,,,,,,,,FF,,,,,,,,0.789,,,,,,,,,,,,,,,,,,,,,,60fcdebbef41e08776de751f,61037107e7d532e90980a526,2021-07-29_23h56.33.015,Simcolourproject_2stim_asymm_v5,2020.2.10,Win32,60,61025ae37ef11b136ea224fe,,,,,,,,,4296,43.20001209,51.19996991,1,0,0,response1disk,,7,8.000011563,-8.000006557,1,0,0,rectangle,8.000011563,-8.000006557,1,0,0,8.000011563,-8.000006557,1,0,0,0,150,150,158,1,,,,,,,,
,,,,,,,,,,,,,FF,,,,,,,,1.6497,,,,,,,,,,,,,,,,,,,,,,60fcdebbef41e08776de751f,61037107e7d532e90980a526,2021-07-29_23h56.33.015,Simcolourproject_2stim_asymm_v5,2020.2.10,Win32,60,61025ae37ef11b136ea224fe,,,,,,,,,3469,-91.99998993,48.79999429,1,0,0,response7disk,,1,-1.59998858,2.399993598,1,0,0,rectangle,-1.59998858,2.399993598,1,0,0,-1.59998858,2.399993598,1,0,0,0,151,151,139,1,,,,,,,,
,,,,,,,,,,,,,FF,,,,,,,,1.3395,,,,,,,,,,,,,,,,,,,,,,60fcdebbef41e08776de751f,61037107e7d532e90980a526,2021-07-29_23h56.33.015,Simcolourproject_2stim_asymm_v5,2020.2.10,Win32,60,61025ae37ef11b136ea224fe,,,,,,,,,1678,38.40001202,87.19997045,1,0,0,response1disk,,7,-1.59998858,-2.400006473,1,0,0,rectangle,-1.59998858,-2.400006473,1,0,0,-1.59998858,-2.400006473,1,0,0,0,152,152,94,1,,,,,,,,
,,,,,,,,,,,,,FF,,,,,,,,0.8162,,,,,,,,,,,,,,,,,,,,,,60fcdebbef41e08776de751f,61037107e7d532e90980a526,2021-07-29_23h56.33.015,Simcolourproject_2stim_asymm_v5,2020.2.10,Win32,60,61025ae37ef11b136ea224fe,,,,,,,,,1915,39.20001203,84.79999483,1,0,0,response1disk,,7,7.200011551,8.799993694,1,0,0,rectangle,7.200011551,8.799993694,1,0,0,7.200011551,8.799993694,1,0,0,0,153,153,42,1,,,,,,,,
,,,,,,,,,,,,,FF,,,,,,,,0.7334,,,,,,,,,,,,,,,,,,,,,,60fcdebbef41e08776de751f,61037107e7d532e90980a526,2021-07-29_23h56.33.015,Simcolourproject_2stim_asymm_v5,2020.2.10,Win32,60,61025ae37ef11b136ea224fe,,,,,,,,,698,34.40001196,41.59999418,1,0,0,response1disk,,7,9.600060415,-4.800006509,1,0,0,rectangle,9.600060415,-4.800006509,1,0,0,9.600060415,-4.800006509,1,0,0,0,154,154,35,1,,,,,,,,
,,,,,,,,,,,,,FF,,,,,,,,1.6284,,,,,,,,,,,,,,,,,,,,,,60fcdebbef41e08776de751f,61037107e7d532e90980a526,2021-07-29_23h56.33.015,Simcolourproject_2stim_asymm_v5,2020.2.10,Win32,60,61025ae37ef11b136ea224fe,,,,,,,,,227,79.20001262,-42.40000707,1,0,0,response3disk,,5,24.80001181,0.799993575,1,0,0,rectangle,24.80001181,0.799993575,1,0,0,24.80001181,0.799993575,1,0,0,0,155,155,2,1,,,,,,,,
,,,,,,,,,,,,,FF,,,,,,,,1.167,,,,,,,,,,,,,,,,,,,,,,60fcdebbef41e08776de751f,61037107e7d532e90980a526,2021-07-29_23h56.33.015,Simcolourproject_2stim_asymm_v5,2020.2.10,Win32,60,61025ae37ef11b136ea224fe,,,,,,,,,2480,-36.7999891,97.59999502,1,0,0,response7disk,,0,1.14441E-05,8.799993694,1,0,0,rectangle,1.14441E-05,8.799993694,1,0,0,1.14441E-05,8.799993694,1,0,0,0,156,156,59,1,,,,,,,,
,,,,,,,,,,,,,FF,,,,,,,,0.7899,,,,,,,,,,,,,,,,,,,,,,60fcdebbef41e08776de751f,61037107e7d532e90980a526,2021-07-29_23h56.33.015,Simcolourproject_2stim_asymm_v5,2020.2.10,Win32,60,61025ae37ef11b136ea224fe,,,,,,,,,1804,32.80001193,67.19997015,1,0,0,response1disk,,7,0.800011456,-3.200006485,1,0,0,rectangle,0.800011456,-3.200006485,1,0,0,0.800011456,-3.200006485,1,0,0,0,157,157,69,1,,,,,,,,
,,,,,,,,,,,,,FF,,,,,,,,1.2832,,,,,,,,,,,,,,,,,,,,,,60fcdebbef41e08776de751f,61037107e7d532e90980a526,2021-07-29_23h56.33.015,Simcolourproject_2stim_asymm_v5,2020.2.10,Win32,60,61025ae37ef11b136ea224fe,,,,,,,,,785,41.60006089,-104.000008,1,0,0,response3disk,,4,7.200011551,-4.800006509,1,0,0,rectangle,7.200011551,-4.800006509,1,0,0,7.200011551,-4.800006509,1,0,0,0,158,158,157,1,,,,,,,,
,,,,,,,,,,,,,FF,,,,,,,,0.7167,,,,,,,,,,,,,,,,,,,,,,60fcdebbef41e08776de751f,61037107e7d532e90980a526,2021-07-29_23h56.33.015,Simcolourproject_2stim_asymm_v5,2020.2.10,Win32,60,61025ae37ef11b136ea224fe,,,,,,,,,3522,37.60006083,56.79999441,1,0,0,response1disk,,7,4.000011504,-0.800006449,1,0,0,rectangle,4.000011504,-0.800006449,1,0,0,4.000011504,-0.800006449,1,0,0,0,159,159,5,1,,,,,,,,
,,,,,,,,,,,,,FF,,,,,,,,0.6835,,,,,,,,,,,,,,,,,,,,,,60fcdebbef41e08776de751f,61037107e7d532e90980a526,2021-07-29_23h56.33.015,Simcolourproject_2stim_asymm_v5,2020.2.10,Win32,60,61025ae37ef11b136ea224fe,,,,,,,,,3651,43.20001209,81.59999478,1,0,0,response1disk,,7,8.800011575,12.79999375,1,0,0,rectangle,8.800011575,12.79999375,1,0,0,8.800011575,12.79999375,1,0,0,1,0,160,59,1,,,,,,,,
,,,,,,,,,,,,,FF,,,,,,,,0.5334,,,,,,,,,,,,,,,,,,,,,,60fcdebbef41e08776de751f,61037107e7d532e90980a526,2021-07-29_23h56.33.015,Simcolourproject_2stim_asymm_v5,2020.2.10,Win32,60,61025ae37ef11b136ea224fe,,,,,,,,,1640,35.20001197,65.59999454,1,0,0,response1disk,,7,-1.59998858,-15.20000666,1,0,0,rectangle,-1.59998858,-15.20000666,1,0,0,-1.59998858,-15.20000666,1,0,0,1,1,161,60,1,,,,,,,,
,,,,,,,,,,,,,FF,,,,,,,,0.8,,,,,,,,,,,,,,,,,,,,,,60fcdebbef41e08776de751f,61037107e7d532e90980a526,2021-07-29_23h56.33.015,Simcolourproject_2stim_asymm_v5,2020.2.10,Win32,60,61025ae37ef11b136ea224fe,,,,,,,,,601,20.80001175,45.59999424,1,0,0,response1disk,,7,-7.999988675,-10.40000659,1,0,0,rectangle,-103.9999901,34.39999408,1,0,0,5.600060356,11.19999373,1,0,0,1,2,162,122,1,,response7disk_3,TRUE,1,1,"[11,29,134,232,207,106,68,163,7,317,47,212,43,119,251,210,142,143,208,55]",1.8159,rectangle
,,,,,,,,,,,,,FF,,,,,,,,1.8164,,,,,,,,,,,,,,,,,,,,,,60fcdebbef41e08776de751f,61037107e7d532e90980a526,2021-07-29_23h56.33.015,Simcolourproject_2stim_asymm_v5,2020.2.10,Win32,60,61025ae37ef11b136ea224fe,,,,,,,,,3757,46.40001214,-75.20000756,1,0,0,response3disk,,4,16.00001168,-12.80000663,1,0,0,rectangle,16.00001168,-12.80000663,1,0,0,16.00001168,-12.80000663,1,0,0,1,3,163,98,1,,,,,,,,
,,,,,,,,,,,,,FF,,,,,,,,0.9335,,,,,,,,,,,,,,,,,,,,,,60fcdebbef41e08776de751f,61037107e7d532e90980a526,2021-07-29_23h56.33.015,Simcolourproject_2stim_asymm_v5,2020.2.10,Win32,60,61025ae37ef11b136ea224fe,,,,,,,,,1775,56.80001229,42.39999419,1,0,0,response1disk,,6,-0.799988568,3.19999361,1,0,0,rectangle,-0.799988568,3.19999361,1,0,0,-0.799988568,3.19999361,1,0,0,1,4,164,75,1,,,,,,,,
,,,,,,,,,,,,,FF,,,,,,,,1.3003,,,,,,,,,,,,,,,,,,,,,,60fcdebbef41e08776de751f,61037107e7d532e90980a526,2021-07-29_23h56.33.015,Simcolourproject_2stim_asymm_v5,2020.2.10,Win32,60,61025ae37ef11b136ea224fe,,,,,,,,,2548,-59.99998945,-68.00000745,1,0,0,response5disk,,3,-26.39994012,-0.800006449,1,0,0,rectangle,-26.39994012,-0.800006449,1,0,0,-26.39994012,-0.800006449,1,0,0,1,5,165,54,1,,,,,,,,
,,,,,,,,,,,,,FF,,,,,,,,1.1336,,,,,,,,,,,,,,,,,,,,,,60fcdebbef41e08776de751f,61037107e7d532e90980a526,2021-07-29_23h56.33.015,Simcolourproject_2stim_asymm_v5,2020.2.10,Win32,60,61025ae37ef11b136ea224fe,,,,,,,,,3258,81.60001266,-41.60000706,1,0,0,response3disk,,5,-14.39993994,10.39999372,1,0,0,rectangle,-14.39993994,10.39999372,1,0,0,-14.39993994,10.39999372,1,0,0,1,6,166,42,1,,,,,,,,
,,,,,,,,,,,,,FF,,,,,,,,0.8162,,,,,,,,,,,,,,,,,,,,,,60fcdebbef41e08776de751f,61037107e7d532e90980a526,2021-07-29_23h56.33.015,Simcolourproject_2stim_asymm_v5,2020.2.10,Win32,60,61025ae37ef11b136ea224fe,,,,,,,,,2411,100.0000129,-34.40000695,1,0,0,response3disk,,5,-0.799988568,-1.600006461,1,0,0,rectangle,-0.799988568,-1.600006461,1,0,0,-0.799988568,-1.600006461,1,0,0,1,7,167,125,1,,,,,,,,
,,,,,,,,,,,,,FF,,,,,,,,1.2332,,,,,,,,,,,,,,,,,,,,,,60fcdebbef41e08776de751f,61037107e7d532e90980a526,2021-07-29_23h56.33.015,Simcolourproject_2stim_asymm_v5,2020.2.10,Win32,60,61025ae37ef11b136ea224fe,,,,,,,,,2262,48.80001217,80.79999477,1,0,0,response1disk,,7,5.600060356,2.399993598,1,0,0,rectangle,5.600060356,2.399993598,1,0,0,5.600060356,2.399993598,1,0,0,1,8,168,116,1,,,,,,,,
,,,,,,,,,,,,,FF,,,,,,,,0.7167,,,,,,,,,,,,,,,,,,,,,,60fcdebbef41e08776de751f,61037107e7d532e90980a526,2021-07-29_23h56.33.015,Simcolourproject_2stim_asymm_v5,2020.2.10,Win32,60,61025ae37ef11b136ea224fe,,,,,,,,,1109,41.60006089,60.79999447,1,0,0,response1disk,,7,6.400011539,2.399993598,1,0,0,rectangle,6.400011539,2.399993598,1,0,0,6.400011539,2.399993598,1,0,0,1,9,169,135,1,,,,,,,,
,,,,,,,,,,,,,FF,,,,,,,,0.6497,,,,,,,,,,,,,,,,,,,,,,60fcdebbef41e08776de751f,61037107e7d532e90980a526,2021-07-29_23h56.33.015,Simcolourproject_2stim_asymm_v5,2020.2.10,Win32,60,61025ae37ef11b136ea224fe,,,,,,,,,563,34.40001196,66.39999455,1,0,0,response1disk,,7,1.14441E-05,-3.200006485,1,0,0,rectangle,1.14441E-05,-3.200006485,1,0,0,1.14441E-05,-3.200006485,1,0,0,1,10,170,91,1,,,,,,,,
,,,,,,,,,,,,,FF,,,,,,,,0.55,,,,,,,,,,,,,,,,,,,,,,60fcdebbef41e08776de751f,61037107e7d532e90980a526,2021-07-29_23h56.33.015,Simcolourproject_2stim_asymm_v5,2020.2.10,Win32,60,61025ae37ef11b136ea224fe,,,,,,,,,1543,36.00001198,59.99999446,1,0,0,response1disk,,7,12.80001163,-3.200006485,1,0,0,rectangle,12.80001163,-3.200006485,1,0,0,12.80001163,-3.200006485,1,0,0,1,11,171,46,1,,,,,,,,
,,,,,,,,,,,,,FF,,,,,,,,0.7672,,,,,,,,,,,,,,,,,,,,,,60fcdebbef41e08776de751f,61037107e7d532e90980a526,2021-07-29_23h56.33.015,Simcolourproject_2stim_asymm_v5,2020.2.10,Win32,60,61025ae37ef11b136ea224fe,,,,,,,,,3370,45.60006095,83.19997039,1,0,0,response1disk,,7,2.40001148,0.799993575,1,0,0,rectangle,2.40001148,0.799993575,1,0,0,2.40001148,0.799993575,1,0,0,1,12,172,39,1,,,,,,,,
,,,,,,,,,,,,,FF,,,,,,,,1.4663,,,,,,,,,,,,,,,,,,,,,,60fcdebbef41e08776de751f,61037107e7d532e90980a526,2021-07-29_23h56.33.015,Simcolourproject_2stim_asymm_v5,2020.2.10,Win32,60,61025ae37ef11b136ea224fe,,,,,,,,,3063,112.0000131,-49.60000718,1,0,0,response3disk,,5,25.60006065,2.399993598,1,0,0,rectangle,25.60006065,2.399993598,1,0,0,25.60006065,2.399993598,1,0,0,1,13,173,8,1,,,,,,,,
,,,,,,,,,,,,,FF,,,,,,,,1.0993,,,,,,,,,,,,,,,,,,,,,,60fcdebbef41e08776de751f,61037107e7d532e90980a526,2021-07-29_23h56.33.015,Simcolourproject_2stim_asymm_v5,2020.2.10,Win32,60,61025ae37ef11b136ea224fe,,,,,,,,,3710,60.80001235,39.99999416,1,0,0,response1disk,,6,12.80001163,7.999993682,1,0,0,rectangle,12.80001163,7.999993682,1,0,0,12.80001163,7.999993682,1,0,0,1,14,174,20,1,,,,,,,,
,,,,,,,,,,,,,FF,,,,,,,,0.7171,,,,,,,,,,,,,,,,,,,,,,60fcdebbef41e08776de751f,61037107e7d532e90980a526,2021-07-29_23h56.33.015,Simcolourproject_2stim_asymm_v5,2020.2.10,Win32,60,61025ae37ef11b136ea224fe,,,,,,,,,2054,40.00001204,74.39999467,1,0,0,response1disk,,7,9.600060415,6.399993658,1,0,0,rectangle,9.600060415,6.399993658,1,0,0,9.600060415,6.399993658,1,0,0,1,15,175,102,1,,,,,,,,
,,,,,,,,,,,,,FF,,,,,,,,1.1998,,,,,,,,,,,,,,,,,,,,,,60fcdebbef41e08776de751f,61037107e7d532e90980a526,2021-07-29_23h56.33.015,Simcolourproject_2stim_asymm_v5,2020.2.10,Win32,60,61025ae37ef11b136ea224fe,,,,,,,,,526,-68.79998958,37.59999412,1,0,0,response7disk,,1,0.800011456,7.999993682,1,0,0,rectangle,0.800011456,7.999993682,1,0,0,0.800011456,7.999993682,1,0,0,1,16,176,32,1,,,,,,,,
,,,,,,,,,,,,,FF,,,,,,,,1.3163,,,,,,,,,,,,,,,,,,,,,,60fcdebbef41e08776de751f,61037107e7d532e90980a526,2021-07-29_23h56.33.015,Simcolourproject_2stim_asymm_v5,2020.2.10,Win32,60,61025ae37ef11b136ea224fe,,,,,,,,,2561,79.20001262,51.19996991,1,0,0,response1disk,,6,28.00001186,5.599993646,1,0,0,rectangle,28.00001186,5.599993646,1,0,0,28.00001186,5.599993646,1,0,0,1,17,177,100,1,,,,,,,,
,,,,,,,,,,,,,FF,,,,,,,,1.3503,,,,,,,,,,,,,,,,,,,,,,60fcdebbef41e08776de751f,61037107e7d532e90980a526,2021-07-29_23h56.33.015,Simcolourproject_2stim_asymm_v5,2020.2.10,Win32,60,61025ae37ef11b136ea224fe,,,,,,,,,2603,82.40001267,36.79999411,1,0,0,response1disk,,6,19.20001173,-8.000006557,1,0,0,rectangle,19.20001173,-8.000006557,1,0,0,19.20001173,-8.000006557,1,0,0,1,18,178,74,1,,,,,,,,
,,,,,,,,,,,,,FF,,,,,,,,0.7328,,,,,,,,,,,,,,,,,,,,,,60fcdebbef41e08776de751f,61037107e7d532e90980a526,2021-07-29_23h56.33.015,Simcolourproject_2stim_asymm_v5,2020.2.10,Win32,60,61025ae37ef11b136ea224fe,,,,,,,,,3008,43.20001209,79.99999475,1,0,0,response1disk,,7,13.60006047,11.19999373,1,0,0,rectangle,13.60006047,11.19999373,1,0,0,13.60006047,11.19999373,1,0,0,1,19,179,146,1,,,,,,,,
,,,,,,,,,,,,,FF,,,,,,,,1.2686,,,,,,,,,,,,,,,,,,,,,,60fcdebbef41e08776de751f,61037107e7d532e90980a526,2021-07-29_23h56.33.015,Simcolourproject_2stim_asymm_v5,2020.2.10,Win32,60,61025ae37ef11b136ea224fe,,,,,,,,,2143,54.40001225,82.39999479,1,0,0,response1disk,,7,8.000011563,-3.200006485,1,0,0,rectangle,8.000011563,-3.200006485,1,0,0,8.000011563,-3.200006485,1,0,0,1,20,180,141,1,,,,,,,,
,,,,,,,,,,,,,FF,,,,,,,,0.9166,,,,,,,,,,,,,,,,,,,,,,60fcdebbef41e08776de751f,61037107e7d532e90980a526,2021-07-29_23h56.33.015,Simcolourproject_2stim_asymm_v5,2020.2.10,Win32,60,61025ae37ef11b136ea224fe,,,,,,,,,3784,78.40001261,31.19996961,1,0,0,response1disk,,6,-3.999988616,-12.00000662,1,0,0,rectangle,-3.999988616,-12.00000662,1,0,0,-3.999988616,-12.00000662,1,0,0,1,21,181,45,1,,,,,,,,
,,,,,,,,,,,,,FF,,,,,,,,0.7834,,,,,,,,,,,,,,,,,,,,,,60fcdebbef41e08776de751f,61037107e7d532e90980a526,2021-07-29_23h56.33.015,Simcolourproject_2stim_asymm_v5,2020.2.10,Win32,60,61025ae37ef11b136ea224fe,,,,,,,,,604,28.00001186,47.99999428,1,0,0,response1disk,,7,-2.399939764,3.19999361,1,0,0,rectangle,-2.399939764,3.19999361,1,0,0,-2.399939764,3.19999361,1,0,0,1,22,182,2,1,,,,,,,,
,,,,,,,,,,,,,FF,,,,,,,,0.9833,,,,,,,,,,,,,,,,,,,,,,60fcdebbef41e08776de751f,61037107e7d532e90980a526,2021-07-29_23h56.33.015,Simcolourproject_2stim_asymm_v5,2020.2.10,Win32,60,61025ae37ef11b136ea224fe,,,,,,,,,2369,95.20001286,-52.80000722,1,0,0,response3disk,,5,20.80001175,4.799993634,1,0,0,rectangle,20.80001175,4.799993634,1,0,0,20.80001175,4.799993634,1,0,0,1,23,183,130,1,,,,,,,,
,,,,,,,,,,,,,FF,,,,,,,,0.7171,,,,,,,,,,,,,,,,,,,,,,60fcdebbef41e08776de751f,61037107e7d532e90980a526,2021-07-29_23h56.33.015,Simcolourproject_2stim_asymm_v5,2020.2.10,Win32,60,61025ae37ef11b136ea224fe,,,,,,,,,3721,59.20001233,123.199971,1,0,0,response1disk,,7,4.000011504,-6.400006533,1,0,0,rectangle,4.000011504,-6.400006533,1,0,0,4.000011504,-6.400006533,1,0,0,1,24,184,94,1,,,,,,,,
,,,,,,,,,,,,,FF,,,,,,,,1.1666,,,,,,,,,,,,,,,,,,,,,,60fcdebbef41e08776de751f,61037107e7d532e90980a526,2021-07-29_23h56.33.015,Simcolourproject_2stim_asymm_v5,2020.2.10,Win32,60,61025ae37ef11b136ea224fe,,,,,,,,,346,-95.19998997,25.59999394,1,0,0,response7disk,,1,-7.199988663,2.399993598,1,0,0,rectangle,-7.199988663,2.399993598,1,0,0,-7.199988663,2.399993598,1,0,0,1,25,185,137,1,,,,,,,,
,,,,,,,,,,,,,FF,,,,,,,,0.8666,,,,,,,,,,,,,,,,,,,,,,60fcdebbef41e08776de751f,61037107e7d532e90980a526,2021-07-29_23h56.33.015,Simcolourproject_2stim_asymm_v5,2020.2.10,Win32,60,61025ae37ef11b136ea224fe,,,,,,,,,1797,36.00001198,73.59999466,1,0,0,response1disk,,7,6.400011539,-3.200006485,1,0,0,rectangle,6.400011539,-3.200006485,1,0,0,6.400011539,-3.200006485,1,0,0,1,26,186,119,1,,,,,,,,
,,,,,,,,,,,,,FF,,,,,,,,0.8498,,,,,,,,,,,,,,,,,,,,,,60fcdebbef41e08776de751f,61037107e7d532e90980a526,2021-07-29_23h56.33.015,Simcolourproject_2stim_asymm_v5,2020.2.10,Win32,60,61025ae37ef11b136ea224fe,,,,,,,,,4038,40.00001204,72.79999465,1,0,0,response1disk,,7,-3.199988604,3.19999361,1,0,0,rectangle,-3.199988604,3.19999361,1,0,0,-3.199988604,3.19999361,1,0,0,1,27,187,49,1,,,,,,,,
,,,,,,,,,,,,,FF,,,,,,,,0.7162,,,,,,,,,,,,,,,,,,,,,,60fcdebbef41e08776de751f,61037107e7d532e90980a526,2021-07-29_23h56.33.015,Simcolourproject_2stim_asymm_v5,2020.2.10,Win32,60,61025ae37ef11b136ea224fe,,,,,,,,,2795,34.40001196,67.19997015,1,0,0,response1disk,,7,5.600060356,6.399993658,1,0,0,rectangle,5.600060356,6.399993658,1,0,0,5.600060356,6.399993658,1,0,0,1,28,188,147,1,,,,,,,,
,,,,,,,,,,,,,FF,,,,,,,,0.7166,,,,,,,,,,,,,,,,,,,,,,60fcdebbef41e08776de751f,61037107e7d532e90980a526,2021-07-29_23h56.33.015,Simcolourproject_2stim_asymm_v5,2020.2.10,Win32,60,61025ae37ef11b136ea224fe,,,,,,,,,1511,24.80001181,55.9999944,1,0,0,response1disk,,7,-10.39993988,-15.20000666,1,0,0,rectangle,-10.39993988,-15.20000666,1,0,0,-10.39993988,-15.20000666,1,0,0,1,29,189,88,1,,,,,,,,
,,,,,,,,,,,,,FF,,,,,,,,0.9497,,,,,,,,,,,,,,,,,,,,,,60fcdebbef41e08776de751f,61037107e7d532e90980a526,2021-07-29_23h56.33.015,Simcolourproject_2stim_asymm_v5,2020.2.10,Win32,60,61025ae37ef11b136ea224fe,,,,,,,,,3266,73.60001254,42.39999419,1,0,0,response1disk,,6,16.00001168,-6.4373E-06,1,0,0,rectangle,16.00001168,-6.4373E-06,1,0,0,16.00001168,-6.4373E-06,1,0,0,1,30,190,117,1,,,,,,,,
,,,,,,,,,,,,,FF,,,,,,,,0.7331,,,,,,,,,,,,,,,,,,,,,,60fcdebbef41e08776de751f,61037107e7d532e90980a526,2021-07-29_23h56.33.015,Simcolourproject_2stim_asymm_v5,2020.2.10,Win32,60,61025ae37ef11b136ea224fe,,,,,,,,,1637,30.4000119,35.19996967,1,0,0,response1disk,,7,8.800011575,-5.600006521,1,0,0,rectangle,8.800011575,-5.600006521,1,0,0,8.800011575,-5.600006521,1,0,0,1,31,191,52,1,,,,,,,,
,,,,,,,,,,,,,FF,,,,,,,,0.7328,,,,,,,,,,,,,,,,,,,,,,60fcdebbef41e08776de751f,61037107e7d532e90980a526,2021-07-29_23h56.33.015,Simcolourproject_2stim_asymm_v5,2020.2.10,Win32,60,61025ae37ef11b136ea224fe,,,,,,,,,1657,41.60006089,101.5999951,1,0,0,response1disk,,7,-3.199988604,-13.60000664,1,0,0,rectangle,-3.199988604,-13.60000664,1,0,0,-3.199988604,-13.60000664,1,0,0,1,32,192,34,1,,,,,,,,
,,,,,,,,,,,,,FF,,,,,,,,0.7,,,,,,,,,,,,,,,,,,,,,,60fcdebbef41e08776de751f,61037107e7d532e90980a526,2021-07-29_23h56.33.015,Simcolourproject_2stim_asymm_v5,2020.2.10,Win32,60,61025ae37ef11b136ea224fe,,,,,,,,,2598,40.80001205,56.79999441,1,0,0,response1disk,,7,1.600060296,2.399993598,1,0,0,rectangle,1.600060296,2.399993598,1,0,0,1.600060296,2.399993598,1,0,0,1,33,193,101,1,,,,,,,,
,,,,,,,,,,,,,FF,,,,,,,,1.166,,,,,,,,,,,,,,,,,,,,,,60fcdebbef41e08776de751f,61037107e7d532e90980a526,2021-07-29_23h56.33.015,Simcolourproject_2stim_asymm_v5,2020.2.10,Win32,60,61025ae37ef11b136ea224fe,,,,,,,,,1408,90.40001279,-27.20000684,1,0,0,response3disk,,5,9.600060415,3.19999361,1,0,0,rectangle,9.600060415,3.19999361,1,0,0,9.600060415,3.19999361,1,0,0,1,34,194,14,1,,,,,,,,
,,,,,,,,,,,,,FF,,,,,,,,2.4492,,,,,,,,,,,,,,,,,,,,,,60fcdebbef41e08776de751f,61037107e7d532e90980a526,2021-07-29_23h56.33.015,Simcolourproject_2stim_asymm_v5,2020.2.10,Win32,60,61025ae37ef11b136ea224fe,,,,,,,,,3749,76.80001259,47.99999428,1,0,0,response1disk,,6,12.80001163,-7.200006545,1,0,0,rectangle,12.80001163,-7.200006545,1,0,0,12.80001163,-7.200006545,1,0,0,1,35,195,110,1,,,,,,,,
,,,,,,,,,,,,,FF,,,,,,,,0.7168,,,,,,,,,,,,,,,,,,,,,,60fcdebbef41e08776de751f,61037107e7d532e90980a526,2021-07-29_23h56.33.015,Simcolourproject_2stim_asymm_v5,2020.2.10,Win32,60,61025ae37ef11b136ea224fe,,,,,,,,,4318,41.60006089,69.5999946,1,0,0,response1disk,,7,-2.399939764,-11.2000066,1,0,0,rectangle,-2.399939764,-11.2000066,1,0,0,-2.399939764,-11.2000066,1,0,0,1,36,196,158,1,,,,,,,,
,,,,,,,,,,,,,FF,,,,,,,,0.5327,,,,,,,,,,,,,,,,,,,,,,60fcdebbef41e08776de751f,61037107e7d532e90980a526,2021-07-29_23h56.33.015,Simcolourproject_2stim_asymm_v5,2020.2.10,Win32,60,61025ae37ef11b136ea224fe,,,,,,,,,1141,40.80001205,67.19997015,1,0,0,response1disk,,7,2.40001148,5.599993646,1,0,0,rectangle,2.40001148,5.599993646,1,0,0,2.40001148,5.599993646,1,0,0,1,37,197,139,1,,,,,,,,
,,,,,,,,,,,,,FF,,,,,,,,0.9166,,,,,,,,,,,,,,,,,,,,,,60fcdebbef41e08776de751f,61037107e7d532e90980a526,2021-07-29_23h56.33.015,Simcolourproject_2stim_asymm_v5,2020.2.10,Win32,60,61025ae37ef11b136ea224fe,,,,,,,,,2828,-48.79998928,-84.00000769,1,0,0,response5disk,,3,1.14441E-05,-3.200006485,1,0,0,rectangle,1.14441E-05,-3.200006485,1,0,0,1.14441E-05,-3.200006485,1,0,0,1,38,198,96,1,,,,,,,,
,,,,,,,,,,,,,FF,,,,,,,,0.9329,,,,,,,,,,,,,,,,,,,,,,60fcdebbef41e08776de751f,61037107e7d532e90980a526,2021-07-29_23h56.33.015,Simcolourproject_2stim_asymm_v5,2020.2.10,Win32,60,61025ae37ef11b136ea224fe,,,,,,,,,2481,-92.79998994,44.79999423,1,0,0,response7disk,,1,36.80001199,-1.600006461,1,0,0,rectangle,36.80001199,-1.600006461,1,0,0,36.80001199,-1.600006461,1,0,0,1,39,199,36,1,,,,,,,,
,,,,,,,,,,,,,FF,,,,,,,,1.3664,,,,,,,,,,,,,,,,,,,,,,60fcdebbef41e08776de751f,61037107e7d532e90980a526,2021-07-29_23h56.33.015,Simcolourproject_2stim_asymm_v5,2020.2.10,Win32,60,61025ae37ef11b136ea224fe,,,,,,,,,2036,-49.5999893,-92.00000781,1,0,0,response5disk,,3,-11.19998872,-12.00000662,1,0,0,rectangle,-11.19998872,-12.00000662,1,0,0,-11.19998872,-12.00000662,1,0,0,1,40,200,152,1,,,,,,,,
,,,,,,,,,,,,,FF,,,,,,,,1.2172,,,,,,,,,,,,,,,,,,,,,,60fcdebbef41e08776de751f,61037107e7d532e90980a526,2021-07-29_23h56.33.015,Simcolourproject_2stim_asymm_v5,2020.2.10,Win32,60,61025ae37ef11b136ea224fe,,,,,,,,,736,125.6000133,53.59999436,1,0,0,response1disk,,6,33.60006077,4.799993634,1,0,0,rectangle,33.60006077,4.799993634,1,0,0,33.60006077,4.799993634,1,0,0,1,41,201,1,1,,,,,,,,
,,,,,,,,,,,,,FF,,,,,,,,0.7495,,,,,,,,,,,,,,,,,,,,,,60fcdebbef41e08776de751f,61037107e7d532e90980a526,2021-07-29_23h56.33.015,Simcolourproject_2stim_asymm_v5,2020.2.10,Win32,60,61025ae37ef11b136ea224fe,,,,,,,,,1207,33.60006077,68.79999459,1,0,0,response1disk,,7,1.600060296,6.399993658,1,0,0,rectangle,1.600060296,6.399993658,1,0,0,1.600060296,6.399993658,1,0,0,1,42,202,149,1,,,,,,,,
,,,,,,,,,,,,,FF,,,,,,,,0.7168,,,,,,,,,,,,,,,,,,,,,,60fcdebbef41e08776de751f,61037107e7d532e90980a526,2021-07-29_23h56.33.015,Simcolourproject_2stim_asymm_v5,2020.2.10,Win32,60,61025ae37ef11b136ea224fe,,,,,,,,,3768,72.00001252,87.99999487,1,0,0,response1disk,,7,5.600060356,2.399993598,1,0,0,rectangle,5.600060356,2.399993598,1,0,0,5.600060356,2.399993598,1,0,0,1,43,203,126,1,,,,,,,,
,,,,,,,,,,,,,FF,,,,,,,,0.6666,,,,,,,,,,,,,,,,,,,,,,60fcdebbef41e08776de751f,61037107e7d532e90980a526,2021-07-29_23h56.33.015,Simcolourproject_2stim_asymm_v5,2020.2.10,Win32,60,61025ae37ef11b136ea224fe,,,,,,,,,370,56.80001229,89.5999949,1,0,0,response1disk,,7,18.40001172,-5.600006521,1,0,0,rectangle,18.40001172,-5.600006521,1,0,0,18.40001172,-5.600006521,1,0,0,1,44,204,71,1,,,,,,,,
,,,,,,,,,,,,,FF,,,,,,,,1.4663,,,,,,,,,,,,,,,,,,,,,,60fcdebbef41e08776de751f,61037107e7d532e90980a526,2021-07-29_23h56.33.015,Simcolourproject_2stim_asymm_v5,2020.2.10,Win32,60,61025ae37ef11b136ea224fe,,,,,,,,,2056,-66.39994072,-108.8000081,1,0,0,response5disk,,3,6.400011539,3.999993622,1,0,0,rectangle,6.400011539,3.999993622,1,0,0,6.400011539,3.999993622,1,0,0,1,45,205,150,1,,,,,,,,
,,,,,,,,,,,,,FF,,,,,,,,2.2825,,,,,,,,,,,,,,,,,,,,,,60fcdebbef41e08776de751f,61037107e7d532e90980a526,2021-07-29_23h56.33.015,Simcolourproject_2stim_asymm_v5,2020.2.10,Win32,60,61025ae37ef11b136ea224fe,,,,,,,,,1173,73.60001254,18.39999384,1,0,0,response1disk,,6,21.60006059,15.9999938,1,0,0,rectangle,-39.99998915,87.19997045,1,0,0,10.4000116,-10.40000659,1,0,0,1,46,206,82,1,,response7disk_3,TRUE,0,0,"[11,29,134,232,207,106,68,163,7,317,47,212,43,119,251,210,142,143,208,55]",1.6818,rectangle
,,,,,,,,,,,,,FF,,,,,,,,1.2831,,,,,,,,,,,,,,,,,,,,,,60fcdebbef41e08776de751f,61037107e7d532e90980a526,2021-07-29_23h56.33.015,Simcolourproject_2stim_asymm_v5,2020.2.10,Win32,60,61025ae37ef11b136ea224fe,,,,,,,,,485,59.20001233,72.79999465,1,0,0,response1disk,,7,18.40001172,-12.00000662,1,0,0,rectangle,-27.19998896,-108.000008,1,0,0,-21.59998888,-4.800006509,1,0,0,1,47,207,63,1,,response5disk_3,TRUE,3,3,"[11,29,134,232,207,106,68,163,7,317,47,212,43,119,251,210,142,143,208,55]",6.8151,rectangle
,,,,,,,,,,,,,FF,,,,,,,,2.6006,,,,,,,,,,,,,,,,,,,,,,60fcdebbef41e08776de751f,61037107e7d532e90980a526,2021-07-29_23h56.33.015,Simcolourproject_2stim_asymm_v5,2020.2.10,Win32,60,61025ae37ef11b136ea224fe,,,,,,,,,857,50.4000122,-65.60000741,1,0,0,response3disk,,4,4.800011516,-12.80000663,1,0,0,rectangle,4.800011516,-12.80000663,1,0,0,4.800011516,-12.80000663,1,0,0,1,48,208,109,1,,,,,,,,
,,,,,,,,,,,,,FF,,,,,,,,0.8994,,,,,,,,,,,,,,,,,,,,,,60fcdebbef41e08776de751f,61037107e7d532e90980a526,2021-07-29_23h56.33.015,Simcolourproject_2stim_asymm_v5,2020.2.10,Win32,60,61025ae37ef11b136ea224fe,,,,,,,,,3961,67.20001245,39.19996973,1,0,0,response1disk,,6,3.200011492,-2.400006473,1,0,0,rectangle,59.20001233,39.19996973,1,0,0,-10.39993988,-4.800006509,1,0,0,1,49,209,113,1,,response1disk_3,TRUE,6,6,"[11,29,134,232,207,106,68,163,7,317,47,212,43,119,251,210,142,143,208,55]",7.1821,rectangle
,,,,,,,,,,,,,FF,,,,,,,,1.0661,,,,,,,,,,,,,,,,,,,,,,60fcdebbef41e08776de751f,61037107e7d532e90980a526,2021-07-29_23h56.33.015,Simcolourproject_2stim_asymm_v5,2020.2.10,Win32,60,61025ae37ef11b136ea224fe,,,,,,,,,3614,59.20001233,85.59999484,1,0,0,response1disk,,7,0.800011456,7.19999367,1,0,0,rectangle,0.800011456,7.19999367,1,0,0,0.800011456,7.19999367,1,0,0,1,50,210,85,1,,,,,,,,
,,,,,,,,,,,,,FF,,,,,,,,0.9165,,,,,,,,,,,,,,,,,,,,,,60fcdebbef41e08776de751f,61037107e7d532e90980a526,2021-07-29_23h56.33.015,Simcolourproject_2stim_asymm_v5,2020.2.10,Win32,60,61025ae37ef11b136ea224fe,,,,,,,,,1088,23.20001179,63.19997009,1,0,0,response1disk,,7,-11.99998873,-8.800006568,1,0,0,rectangle,107.200013,52.79999435,1,0,0,-19.19998884,-5.600006521,1,0,0,1,51,211,40,1,,response1disk_3,TRUE,6,6,"[11,29,134,232,207,106,68,163,7,317,47,212,43,119,251,210,142,143,208,55]",2.1662,rectangle
,,,,,,,,,,,,,FF,,,,,,,,2.8162,,,,,,,,,,,,,,,,,,,,,,60fcdebbef41e08776de751f,61037107e7d532e90980a526,2021-07-29_23h56.33.015,Simcolourproject_2stim_asymm_v5,2020.2.10,Win32,60,61025ae37ef11b136ea224fe,,,,,,,,,59,-30.39994018,-72.80000752,1,0,0,response5disk,,3,-11.99998873,-3.200006485,1,0,0,rectangle,-11.99998873,-3.200006485,1,0,0,-11.99998873,-3.200006485,1,0,0,1,52,212,132,1,,,,,,,,
,,,,,,,,,,,,,FF,,,,,,,,1.6663,,,,,,,,,,,,,,,,,,,,,,60fcdebbef41e08776de751f,61037107e7d532e90980a526,2021-07-29_23h56.33.015,Simcolourproject_2stim_asymm_v5,2020.2.10,Win32,60,61025ae37ef11b136ea224fe,,,,,,,,,4017,74.40001255,-35.20000696,1,0,0,response3disk,,5,11.20001161,-9.60000658,1,0,0,rectangle,11.20001161,-9.60000658,1,0,0,11.20001161,-9.60000658,1,0,0,1,53,213,92,1,,,,,,,,
,,,,,,,,,,,,,FF,,,,,,,,1.1498,,,,,,,,,,,,,,,,,,,,,,60fcdebbef41e08776de751f,61037107e7d532e90980a526,2021-07-29_23h56.33.015,Simcolourproject_2stim_asymm_v5,2020.2.10,Win32,60,61025ae37ef11b136ea224fe,,,,,,,,,2725,-77.59998971,23.99999392,1,0,0,response7disk,,1,-16.79998881,-6.4373E-06,1,0,0,rectangle,-16.79998881,-6.4373E-06,1,0,0,-16.79998881,-6.4373E-06,1,0,0,1,54,214,81,1,,,,,,,,
,,,,,,,,,,,,,FF,,,,,,,,0.9166,,,,,,,,,,,,,,,,,,,,,,60fcdebbef41e08776de751f,61037107e7d532e90980a526,2021-07-29_23h56.33.015,Simcolourproject_2stim_asymm_v5,2020.2.10,Win32,60,61025ae37ef11b136ea224fe,,,,,,,,,2705,16.80001169,52.79999435,1,0,0,response1disk,,7,-3.999988616,1.599993587,1,0,0,rectangle,-3.999988616,1.599993587,1,0,0,-3.999988616,1.599993587,1,0,0,1,55,215,84,1,,,,,,,,
,,,,,,,,,,,,,FF,,,,,,,,1.2833,,,,,,,,,,,,,,,,,,,,,,60fcdebbef41e08776de751f,61037107e7d532e90980a526,2021-07-29_23h56.33.015,Simcolourproject_2stim_asymm_v5,2020.2.10,Win32,60,61025ae37ef11b136ea224fe,,,,,,,,,3824,46.40001214,-79.20000762,1,0,0,response3disk,,4,8.000011563,-13.60000664,1,0,0,rectangle,8.000011563,-13.60000664,1,0,0,8.000011563,-13.60000664,1,0,0,1,56,216,145,1,,,,,,,,
,,,,,,,,,,,,,FF,,,,,,,,1.0996,,,,,,,,,,,,,,,,,,,,,,60fcdebbef41e08776de751f,61037107e7d532e90980a526,2021-07-29_23h56.33.015,Simcolourproject_2stim_asymm_v5,2020.2.10,Win32,60,61025ae37ef11b136ea224fe,,,,,,,,,1420,98.40001291,48.79999429,1,0,0,response1disk,,6,15.20001167,-14.40000665,1,0,0,rectangle,15.20001167,-14.40000665,1,0,0,15.20001167,-14.40000665,1,0,0,1,57,217,9,1,,,,,,,,
,,,,,,,,,,,,,FF,,,,,,,,0.9,,,,,,,,,,,,,,,,,,,,,,60fcdebbef41e08776de751f,61037107e7d532e90980a526,2021-07-29_23h56.33.015,Simcolourproject_2stim_asymm_v5,2020.2.10,Win32,60,61025ae37ef11b136ea224fe,,,,,,,,,884,56.00001228,113.5999953,1,0,0,response1disk,,7,6.400011539,2.399993598,1,0,0,rectangle,6.400011539,2.399993598,1,0,0,6.400011539,2.399993598,1,0,0,1,58,218,70,1,,,,,,,,
,,,,,,,,,,,,,FF,,,,,,,,5.4994,,,,,,,,,,,,,,,,,,,,,,60fcdebbef41e08776de751f,61037107e7d532e90980a526,2021-07-29_23h56.33.015,Simcolourproject_2stim_asymm_v5,2020.2.10,Win32,60,61025ae37ef11b136ea224fe,,,,,,,,,2972,76.80001259,44.79999423,1,0,0,response1disk,,6,-1.59998858,-5.600006521,1,0,0,rectangle,-1.59998858,-5.600006521,1,0,0,-1.59998858,-5.600006521,1,0,0,1,59,219,19,1,,,,,,,,
,,,,,,,,,,,,,FF,,,,,,,,4.5324,,,,,,,,,,,,,,,,,,,,,,60fcdebbef41e08776de751f,61037107e7d532e90980a526,2021-07-29_23h56.33.015,Simcolourproject_2stim_asymm_v5,2020.2.10,Win32,60,61025ae37ef11b136ea224fe,,,,,,,,,3059,-44.79998922,-87.20000774,1,0,0,response5disk,,3,-7.999988675,-12.80000663,1,0,0,rectangle,-7.999988675,-12.80000663,1,0,0,-7.999988675,-12.80000663,1,0,0,1,60,220,3,1,,,,,,,,
,,,,,,,,,,,,,FF,,,,,,,,1.5671,,,,,,,,,,,,,,,,,,,,,,60fcdebbef41e08776de751f,61037107e7d532e90980a526,2021-07-29_23h56.33.015,Simcolourproject_2stim_asymm_v5,2020.2.10,Win32,60,61025ae37ef11b136ea224fe,,,,,,,,,827,-101.5999901,-55.20000726,1,0,0,response5disk,,2,-13.59998876,1.599993587,1,0,0,rectangle,-13.59998876,1.599993587,1,0,0,-13.59998876,1.599993587,1,0,0,1,61,221,159,1,,,,,,,,
,,,,,,,,,,,,,FF,,,,,,,,0.8163,,,,,,,,,,,,,,,,,,,,,,60fcdebbef41e08776de751f,61037107e7d532e90980a526,2021-07-29_23h56.33.015,Simcolourproject_2stim_asymm_v5,2020.2.10,Win32,60,61025ae37ef11b136ea224fe,,,,,,,,,2282,36.00001198,103.9999951,1,0,0,response1disk,,7,-7.999988675,2.399993598,1,0,0,rectangle,-7.999988675,2.399993598,1,0,0,-7.999988675,2.399993598,1,0,0,1,62,222,153,1,,,,,,,,
,,,,,,,,,,,,,FF,,,,,,,,0.8032,,,,,,,,,,,,,,,,,,,,,,60fcdebbef41e08776de751f,61037107e7d532e90980a526,2021-07-29_23h56.33.015,Simcolourproject_2stim_asymm_v5,2020.2.10,Win32,60,61025ae37ef11b136ea224fe,,,,,,,,,3891,75.20001256,49.5999943,1,0,0,response1disk,,6,12.00001162,4.799993634,1,0,0,rectangle,12.00001162,4.799993634,1,0,0,12.00001162,4.799993634,1,0,0,1,63,223,35,1,,,,,,,,
,,,,,,,,,,,,,FF,,,,,,,,1.2498,,,,,,,,,,,,,,,,,,,,,,60fcdebbef41e08776de751f,61037107e7d532e90980a526,2021-07-29_23h56.33.015,Simcolourproject_2stim_asymm_v5,2020.2.10,Win32,60,61025ae37ef11b136ea224fe,,,,,,,,,328,44.0000121,78.39999473,1,0,0,response1disk,,7,-1.59998858,-2.400006473,1,0,0,rectangle,-1.59998858,-2.400006473,1,0,0,-1.59998858,-2.400006473,1,0,0,1,64,224,33,1,,,,,,,,
,,,,,,,,,,,,,FF,,,,,,,,0.7828,,,,,,,,,,,,,,,,,,,,,,60fcdebbef41e08776de751f,61037107e7d532e90980a526,2021-07-29_23h56.33.015,Simcolourproject_2stim_asymm_v5,2020.2.10,Win32,60,61025ae37ef11b136ea224fe,,,,,,,,,2180,57.6000123,94.39999497,1,0,0,response1disk,,7,11.20001161,3.999993622,1,0,0,rectangle,11.20001161,3.999993622,1,0,0,11.20001161,3.999993622,1,0,0,1,65,225,6,1,,,,,,,,
,,,,,,,,,,,,,FF,,,,,,,,1.4994,,,,,,,,,,,,,,,,,,,,,,60fcdebbef41e08776de751f,61037107e7d532e90980a526,2021-07-29_23h56.33.015,Simcolourproject_2stim_asymm_v5,2020.2.10,Win32,60,61025ae37ef11b136ea224fe,,,,,,,,,1241,-100.7999901,-47.20000714,1,0,0,response5disk,,2,3.200011492,9.599993706,1,0,0,rectangle,3.200011492,9.599993706,1,0,0,3.200011492,9.599993706,1,0,0,1,66,226,50,1,,,,,,,,
,,,,,,,,,,,,,FF,,,,,,,,1.0163,,,,,,,,,,,,,,,,,,,,,,60fcdebbef41e08776de751f,61037107e7d532e90980a526,2021-07-29_23h56.33.015,Simcolourproject_2stim_asymm_v5,2020.2.10,Win32,60,61025ae37ef11b136ea224fe,,,,,,,,,694,48.80001217,71.99999464,1,0,0,response1disk,,7,8.000011563,2.399993598,1,0,0,rectangle,8.000011563,2.399993598,1,0,0,8.000011563,2.399993598,1,0,0,1,67,227,24,1,,,,,,,,
,,,,,,,,,,,,,FF,,,,,,,,5.4161,,,,,,,,,,,,,,,,,,,,,,60fcdebbef41e08776de751f,61037107e7d532e90980a526,2021-07-29_23h56.33.015,Simcolourproject_2stim_asymm_v5,2020.2.10,Win32,60,61025ae37ef11b136ea224fe,,,,,,,,,1031,70.40001249,43.19996979,1,0,0,response1disk,,6,2.40001148,-5.600006521,1,0,0,rectangle,2.40001148,-5.600006521,1,0,0,2.40001148,-5.600006521,1,0,0,1,68,228,121,1,,,,,,,,
,,,,,,,,,,,,,FF,,,,,,,,1.067,,,,,,,,,,,,,,,,,,,,,,60fcdebbef41e08776de751f,61037107e7d532e90980a526,2021-07-29_23h56.33.015,Simcolourproject_2stim_asymm_v5,2020.2.10,Win32,60,61025ae37ef11b136ea224fe,,,,,,,,,1509,55.20001227,64.79999453,1,0,0,response1disk,,7,15.20001167,12.79999375,1,0,0,rectangle,15.20001167,12.79999375,1,0,0,15.20001167,12.79999375,1,0,0,1,69,229,127,1,,,,,,,,
,,,,,,,,,,,,,FF,,,,,,,,0.6828,,,,,,,,,,,,,,,,,,,,,,60fcdebbef41e08776de751f,61037107e7d532e90980a526,2021-07-29_23h56.33.015,Simcolourproject_2stim_asymm_v5,2020.2.10,Win32,60,61025ae37ef11b136ea224fe,,,,,,,,,2186,30.4000119,78.39999473,1,0,0,response1disk,,7,-1.59998858,3.999993622,1,0,0,rectangle,-1.59998858,3.999993622,1,0,0,-1.59998858,3.999993622,1,0,0,1,70,230,131,1,,,,,,,,
,,,,,,,,,,,,,FF,,,,,,,,0.7664,,,,,,,,,,,,,,,,,,,,,,60fcdebbef41e08776de751f,61037107e7d532e90980a526,2021-07-29_23h56.33.015,Simcolourproject_2stim_asymm_v5,2020.2.10,Win32,60,61025ae37ef11b136ea224fe,,,,,,,,,3327,47.20001215,88.79999489,1,0,0,response1disk,,7,4.000011504,-6.4373E-06,1,0,0,rectangle,33.60006077,-81.60005648,1,0,0,6.400011539,-8.000006557,1,0,0,1,71,231,18,1,,response3disk_3,TRUE,4,4,"[11,29,134,232,207,106,68,163,7,317,47,212,43,119,251,210,142,143,208,55]",2.4491,rectangle
,,,,,,,,,,,,,FF,,,,,,,,0.7666,,,,,,,,,,,,,,,,,,,,,,60fcdebbef41e08776de751f,61037107e7d532e90980a526,2021-07-29_23h56.33.015,Simcolourproject_2stim_asymm_v5,2020.2.10,Win32,60,61025ae37ef11b136ea224fe,,,,,,,,,1181,69.60001248,111.9999952,1,0,0,response1disk,,7,11.20001161,7.19999367,1,0,0,rectangle,11.20001161,7.19999367,1,0,0,11.20001161,7.19999367,1,0,0,1,72,232,38,1,,,,,,,,
,,,,,,,,,,,,,FF,,,,,,,,1.2272,,,,,,,,,,,,,,,,,,,,,,60fcdebbef41e08776de751f,61037107e7d532e90980a526,2021-07-29_23h56.33.015,Simcolourproject_2stim_asymm_v5,2020.2.10,Win32,60,61025ae37ef11b136ea224fe,,,,,,,,,1517,115.2000132,66.39999455,1,0,0,response1disk,,6,-4.799988627,-8.800006568,1,0,0,rectangle,-4.799988627,-8.800006568,1,0,0,-4.799988627,-8.800006568,1,0,0,1,73,233,73,1,,,,,,,,
,,,,,,,,,,,,,FF,,,,,,,,0.6832,,,,,,,,,,,,,,,,,,,,,,60fcdebbef41e08776de751f,61037107e7d532e90980a526,2021-07-29_23h56.33.015,Simcolourproject_2stim_asymm_v5,2020.2.10,Win32,60,61025ae37ef11b136ea224fe,,,,,,,,,4109,40.80001205,72.79999465,1,0,0,response1disk,,7,9.600060415,-8.000006557,1,0,0,rectangle,9.600060415,-8.000006557,1,0,0,9.600060415,-8.000006557,1,0,0,1,74,234,99,1,,,,,,,,
,,,,,,,,,,,,,FF,,,,,,,,0.6381,,,,,,,,,,,,,,,,,,,,,,60fcdebbef41e08776de751f,61037107e7d532e90980a526,2021-07-29_23h56.33.015,Simcolourproject_2stim_asymm_v5,2020.2.10,Win32,60,61025ae37ef11b136ea224fe,,,,,,,,,2458,45.60006095,53.59999436,1,0,0,response1disk,,7,8.000011563,-9.60000658,1,0,0,rectangle,8.000011563,-9.60000658,1,0,0,8.000011563,-9.60000658,1,0,0,1,75,235,48,1,,,,,,,,
,,,,,,,,,,,,,FF,,,,,,,,0.6673,,,,,,,,,,,,,,,,,,,,,,60fcdebbef41e08776de751f,61037107e7d532e90980a526,2021-07-29_23h56.33.015,Simcolourproject_2stim_asymm_v5,2020.2.10,Win32,60,61025ae37ef11b136ea224fe,,,,,,,,,413,37.60006083,68.79999459,1,0,0,response1disk,,7,12.80001163,7.19999367,1,0,0,rectangle,12.80001163,7.19999367,1,0,0,12.80001163,7.19999367,1,0,0,1,76,236,69,1,,,,,,,,
,,,,,,,,,,,,,FF,,,,,,,,0.5837,,,,,,,,,,,,,,,,,,,,,,60fcdebbef41e08776de751f,61037107e7d532e90980a526,2021-07-29_23h56.33.015,Simcolourproject_2stim_asymm_v5,2020.2.10,Win32,60,61025ae37ef11b136ea224fe,,,,,,,,,3487,51.20001221,114.3999953,1,0,0,response1disk,,7,6.400011539,-14.40000665,1,0,0,rectangle,6.400011539,-14.40000665,1,0,0,6.400011539,-14.40000665,1,0,0,1,77,237,25,1,,,,,,,,
,,,,,,,,,,,,,FF,,,,,,,,0.9718,,,,,,,,,,,,,,,,,,,,,,60fcdebbef41e08776de751f,61037107e7d532e90980a526,2021-07-29_23h56.33.015,Simcolourproject_2stim_asymm_v5,2020.2.10,Win32,60,61025ae37ef11b136ea224fe,,,,,,,,,3874,96.00001287,33.59999406,1,0,0,response1disk,,6,20.00001174,-12.80000663,1,0,0,rectangle,20.00001174,-12.80000663,1,0,0,20.00001174,-12.80000663,1,0,0,1,78,238,118,1,,,,,,,,
,,,,,,,,,,,,,FF,,,,,,,,1.1505,,,,,,,,,,,,,,,,,,,,,,60fcdebbef41e08776de751f,61037107e7d532e90980a526,2021-07-29_23h56.33.015,Simcolourproject_2stim_asymm_v5,2020.2.10,Win32,60,61025ae37ef11b136ea224fe,,,,,,,,,4176,52.00001222,81.59999478,1,0,0,response1disk,,7,14.40001166,5.599993646,1,0,0,rectangle,14.40001166,5.599993646,1,0,0,14.40001166,5.599993646,1,0,0,1,79,239,65,1,,,,,,,,
,,,,,,,,,,,,,FF,,,,,,,,0.7835,,,,,,,,,,,,,,,,,,,,,,60fcdebbef41e08776de751f,61037107e7d532e90980a526,2021-07-29_23h56.33.015,Simcolourproject_2stim_asymm_v5,2020.2.10,Win32,60,61025ae37ef11b136ea224fe,,,,,,,,,4055,32.80001193,51.99999434,1,0,0,response1disk,,7,4.000011504,-0.800006449,1,0,0,rectangle,4.000011504,-0.800006449,1,0,0,4.000011504,-0.800006449,1,0,0,1,80,240,22,1,,,,,,,,
,,,,,,,,,,,,,FF,,,,,,,,1.4116,,,,,,,,,,,,,,,,,,,,,,60fcdebbef41e08776de751f,61037107e7d532e90980a526,2021-07-29_23h56.33.015,Simcolourproject_2stim_asymm_v5,2020.2.10,Win32,60,61025ae37ef11b136ea224fe,,,,,,,,,1613,62.40001237,-70.40000749,1,0,0,response3disk,,4,10.4000116,-4.000006497,1,0,0,rectangle,10.4000116,-4.000006497,1,0,0,10.4000116,-4.000006497,1,0,0,1,81,241,79,1,,,,,,,,
,,,,,,,,,,,,,FF,,,,,,,,0.784,,,,,,,,,,,,,,,,,,,,,,60fcdebbef41e08776de751f,61037107e7d532e90980a526,2021-07-29_23h56.33.015,Simcolourproject_2stim_asymm_v5,2020.2.10,Win32,60,61025ae37ef11b136ea224fe,,,,,,,,,2203,38.40001202,84.79999483,1,0,0,response1disk,,7,5.600060356,6.399993658,1,0,0,rectangle,5.600060356,6.399993658,1,0,0,5.600060356,6.399993658,1,0,0,1,82,242,115,1,,,,,,,,
