key_resp.keys,key_resp.rt,key_resp_14.keys,key_resp_14.rt,key_resp_15.keys,key_resp_15.rt,key_resp_17.keys,key_resp_17.rt,key_resp_9.keys,key_resp_9.rt,key_resp_10.keys,key_resp_10.rt,practice_comparison,Ecc,mouse_5.x,mouse_5.y,mouse_5.leftButton,mouse_5.midButton,mouse_5.rightButton,mouse_5.clicked_name,pracsimilarity,response_time,mouse_10.x,mouse_10.y,mouse_10.leftButton,mouse_10.midButton,mouse_10.rightButton,mouse_10.clicked_name,mouse_7.x,mouse_7.y,mouse_7.leftButton,mouse_7.midButton,mouse_7.rightButton,mouse_6.x,mouse_6.y,mouse_6.leftButton,mouse_6.midButton,mouse_6.rightButton,duringprac.thisRepN,duringprac.thisTrialN,duringprac.thisN,duringprac.thisIndex,duringprac.ran,participant,session,date,expName,psychopyVersion,OS,frameRate,study_id,mouse_7.clicked_name,catchpracsimilarity,catch_response_time,catchnumberprac,catchtrialorderprac,mouse_6.clicked_name,key_resp_22.keys,key_resp_22.rt,realcomparison,mouse.x,mouse.y,mouse.leftButton,mouse.midButton,mouse.rightButton,mouse.clicked_name,Colour2,similarity,mouse_2.x,mouse_2.y,mouse_2.leftButton,mouse_2.midButton,mouse_2.rightButton,mouse_2.clicked_name,mouse_3.x,mouse_3.y,mouse_3.leftButton,mouse_3.midButton,mouse_3.rightButton,mouse_11.x,mouse_11.y,mouse_11.leftButton,mouse_11.midButton,mouse_11.rightButton,trials_2.thisRepN,trials_2.thisTrialN,trials_2.thisN,trials_2.thisIndex,trials_2.ran,Colour1,mouse_3.clicked_name,catchornah,catchsimilarity,catchnumber,catchtrialorder,catchRT,mouse_11.clicked_name
space,14.8977,space,2.1647,space,37.6895,space,4.2692,space,9.1562,space,2.8048,48,PF,93.70605469,32.14508057,1,0,0,response1disk_5,6,6.3879,2.236206055,-2.002197266,1,0,0,rectangle_8,2.236206055,-2.002197266,1,0,0,2.236206055,-2.002197266,1,0,0,0,0,0,2,1,60fcf4962b970932cbdd186b,610370858d4ce36d1951f6ad,2021-07-29_23h26.45.747,Simcolourproject_2stim_asymm_v5,2020.2.10,MacIntel,60,61025ae37ef11b136ea224fe,,,,,,,,,,,,,,,,,,,,,,,,,,,,,,,,,,,,,,,,,,,,,,
,,,,,,,,,,,,67,FF,-33.53845215,-76.90539551,1,0,0,response5disk_5,3,3.6176,2.061401367,-3.315246582,1,0,0,rectangle_8,24.16308594,-76.59838867,1,0,0,-7.205810547,-5.893310547,1,0,0,0,1,1,3,1,60fcf4962b970932cbdd186b,610370858d4ce36d1951f6ad,2021-07-29_23h26.45.747,Simcolourproject_2stim_asymm_v5,2020.2.10,MacIntel,60,61025ae37ef11b136ea224fe,response3disk_7,4,2.1517,4,"[2,5]",rectangle_4,,,,,,,,,,,,,,,,,,,,,,,,,,,,,,,,,,,,,,,,
,,,,,,,,,,,,25,FF,92.69311523,-41.60540771,1,0,0,response3disk_5,5,5.3206,2.00982666,-5.40512085,1,0,0,rectangle_8,2.00982666,-5.40512085,1,0,0,2.00982666,-5.40512085,1,0,0,0,2,2,0,1,60fcf4962b970932cbdd186b,610370858d4ce36d1951f6ad,2021-07-29_23h26.45.747,Simcolourproject_2stim_asymm_v5,2020.2.10,MacIntel,60,61025ae37ef11b136ea224fe,,,,,,,,,,,,,,,,,,,,,,,,,,,,,,,,,,,,,,,,,,,,,,
,,,,,,,,,,,,3,FF,73.64599609,38.4473877,1,0,0,response1disk_5,6,5.9808,11.08270264,-5.552856445,1,0,0,rectangle_8,11.08270264,-5.552856445,1,0,0,11.08270264,-5.552856445,1,0,0,0,3,3,5,1,60fcf4962b970932cbdd186b,610370858d4ce36d1951f6ad,2021-07-29_23h26.45.747,Simcolourproject_2stim_asymm_v5,2020.2.10,MacIntel,60,61025ae37ef11b136ea224fe,,,,,,,,,,,,,,,,,,,,,,,,,,,,,,,,,,,,,,,,,,,,,,
,,,,,,,,,,,,129,PF,67.24694824,-49.97293091,1,0,0,response3disk_5,5,7.3344,5.415039063,-1.269744873,1,0,0,rectangle_8,28.70092773,-67.29638672,1,0,0,-0.203125,-7.539398193,1,0,0,0,4,4,6,1,60fcf4962b970932cbdd186b,610370858d4ce36d1951f6ad,2021-07-29_23h26.45.747,Simcolourproject_2stim_asymm_v5,2020.2.10,MacIntel,60,61025ae37ef11b136ea224fe,response3disk_7,4,1.4836,4,"[2,5]",rectangle_4,,,,,,,,,,,,,,,,,,,,,,,,,,,,,,,,,,,,,,,,
,,,,,,,,,,,,83,PF,57.09918213,-31.93737793,1,0,0,response3disk_5,5,3.2826,-2.911132813,3.43927002,1,0,0,rectangle_8,-2.911132813,3.43927002,1,0,0,-2.911132813,3.43927002,1,0,0,0,5,5,4,1,60fcf4962b970932cbdd186b,610370858d4ce36d1951f6ad,2021-07-29_23h26.45.747,Simcolourproject_2stim_asymm_v5,2020.2.10,MacIntel,60,61025ae37ef11b136ea224fe,,,,,,,,,,,,,,,,,,,,,,,,,,,,,,,,,,,,,,,,,,,,,,
,,,,,,,,,,,,140,PF,-69.79943848,33.86560059,1,0,0,response7disk_5,1,3.1004,-2.966308594,-0.491394043,1,0,0,rectangle_8,-2.966308594,-0.491394043,1,0,0,-2.966308594,-0.491394043,1,0,0,0,6,6,1,1,60fcf4962b970932cbdd186b,610370858d4ce36d1951f6ad,2021-07-29_23h26.45.747,Simcolourproject_2stim_asymm_v5,2020.2.10,MacIntel,60,61025ae37ef11b136ea224fe,,,,,,,,,,,,,,,,,,,,,,,,,,,,,,,,,,,,,,,,,,,,,,
,,,,,,,,,,,,,FF,,,,,,,,5.9532,,,,,,,,,,,,,,,,,,,,,,60fcf4962b970932cbdd186b,610370858d4ce36d1951f6ad,2021-07-29_23h26.45.747,Simcolourproject_2stim_asymm_v5,2020.2.10,MacIntel,60,61025ae37ef11b136ea224fe,,,,,,,space,2.1017,1606,86.3704834,-42.509552,1,0,0,response3disk,,5,17.56628418,2.740356445,1,0,0,rectangle,17.56628418,2.740356445,1,0,0,17.56628418,2.740356445,1,0,0,0,0,0,137,1,,,,,,,,
,,,,,,,,,,,,,FF,,,,,,,,2.4322,,,,,,,,,,,,,,,,,,,,,,60fcf4962b970932cbdd186b,610370858d4ce36d1951f6ad,2021-07-29_23h26.45.747,Simcolourproject_2stim_asymm_v5,2020.2.10,MacIntel,60,61025ae37ef11b136ea224fe,,,,,,,,,2363,-24.56781006,-59.84588623,1,0,0,response5disk,,3,-0.827026367,-4.737518311,1,0,0,rectangle,-0.827026367,-4.737518311,1,0,0,-0.827026367,-4.737518311,1,0,0,0,1,1,128,1,,,,,,,,
,,,,,,,,,,,,,FF,,,,,,,,4.6039,,,,,,,,,,,,,,,,,,,,,,60fcf4962b970932cbdd186b,610370858d4ce36d1951f6ad,2021-07-29_23h26.45.747,Simcolourproject_2stim_asymm_v5,2020.2.10,MacIntel,60,61025ae37ef11b136ea224fe,,,,,,,,,1981,71.25732422,28.66516113,1,0,0,response1disk,,6,11.88110352,-4.95300293,1,0,0,rectangle,11.88110352,-4.95300293,1,0,0,11.88110352,-4.95300293,1,0,0,0,2,2,151,1,,,,,,,,
,,,,,,,,,,,,,FF,,,,,,,,3.6812,,,,,,,,,,,,,,,,,,,,,,60fcf4962b970932cbdd186b,610370858d4ce36d1951f6ad,2021-07-29_23h26.45.747,Simcolourproject_2stim_asymm_v5,2020.2.10,MacIntel,60,61025ae37ef11b136ea224fe,,,,,,,,,2414,56.54968262,-97.73101807,1,0,0,response3disk,,4,-9.849731445,1.113433838,1,0,0,rectangle,-9.849731445,1.113433838,1,0,0,-9.849731445,1.113433838,1,0,0,0,3,3,2,1,,,,,,,,
,,,,,,,,,,,,,FF,,,,,,,,2.034,,,,,,,,,,,,,,,,,,,,,,60fcf4962b970932cbdd186b,610370858d4ce36d1951f6ad,2021-07-29_23h26.45.747,Simcolourproject_2stim_asymm_v5,2020.2.10,MacIntel,60,61025ae37ef11b136ea224fe,,,,,,,,,3808,72.42828369,28.33462524,1,0,0,response1disk,,6,11.85919189,-12.23468018,1,0,0,rectangle,11.85919189,-12.23468018,1,0,0,11.85919189,-12.23468018,1,0,0,0,4,4,127,1,,,,,,,,
,,,,,,,,,,,,,FF,,,,,,,,1.9337,,,,,,,,,,,,,,,,,,,,,,60fcf4962b970932cbdd186b,610370858d4ce36d1951f6ad,2021-07-29_23h26.45.747,Simcolourproject_2stim_asymm_v5,2020.2.10,MacIntel,60,61025ae37ef11b136ea224fe,,,,,,,,,3252,-70.23687744,-37.42901611,1,0,0,response5disk,,2,-11.4708252,-12.62435913,1,0,0,rectangle,-11.4708252,-12.62435913,1,0,0,-11.4708252,-12.62435913,1,0,0,0,5,5,103,1,,,,,,,,
,,,,,,,,,,,,,FF,,,,,,,,2.7338,,,,,,,,,,,,,,,,,,,,,,60fcf4962b970932cbdd186b,610370858d4ce36d1951f6ad,2021-07-29_23h26.45.747,Simcolourproject_2stim_asymm_v5,2020.2.10,MacIntel,60,61025ae37ef11b136ea224fe,,,,,,,,,1199,27.95428467,-95.49255371,1,0,0,response3disk,,4,-6.366149902,-4.96987915,1,0,0,rectangle,-6.366149902,-4.96987915,1,0,0,-6.366149902,-4.96987915,1,0,0,0,6,6,155,1,,,,,,,,
,,,,,,,,,,,,,FF,,,,,,,,2.6677,,,,,,,,,,,,,,,,,,,,,,60fcf4962b970932cbdd186b,610370858d4ce36d1951f6ad,2021-07-29_23h26.45.747,Simcolourproject_2stim_asymm_v5,2020.2.10,MacIntel,60,61025ae37ef11b136ea224fe,,,,,,,,,2562,88.45977783,-47.02127075,1,0,0,response3disk,,5,-17.05505371,-1.195831299,1,0,0,rectangle,-17.05505371,-1.195831299,1,0,0,-17.05505371,-1.195831299,1,0,0,0,7,7,76,1,,,,,,,,
,,,,,,,,,,,,,FF,,,,,,,,1.6181,,,,,,,,,,,,,,,,,,,,,,60fcf4962b970932cbdd186b,610370858d4ce36d1951f6ad,2021-07-29_23h26.45.747,Simcolourproject_2stim_asymm_v5,2020.2.10,MacIntel,60,61025ae37ef11b136ea224fe,,,,,,,,,2692,89.6439209,-54.27041626,1,0,0,response3disk,,5,-12.68933105,-1.535705566,1,0,0,rectangle,-12.68933105,-1.535705566,1,0,0,-12.68933105,-1.535705566,1,0,0,0,8,8,107,1,,,,,,,,
,,,,,,,,,,,,,FF,,,,,,,,1.1506,,,,,,,,,,,,,,,,,,,,,,60fcf4962b970932cbdd186b,610370858d4ce36d1951f6ad,2021-07-29_23h26.45.747,Simcolourproject_2stim_asymm_v5,2020.2.10,MacIntel,60,61025ae37ef11b136ea224fe,,,,,,,,,1532,53.46539307,-74.53839111,1,0,0,response3disk,,4,-8.979003906,-8.169647217,1,0,0,rectangle,-8.979003906,-8.169647217,1,0,0,-8.979003906,-8.169647217,1,0,0,0,9,9,19,1,,,,,,,,
,,,,,,,,,,,,,FF,,,,,,,,1.5982,,,,,,,,,,,,,,,,,,,,,,60fcf4962b970932cbdd186b,610370858d4ce36d1951f6ad,2021-07-29_23h26.45.747,Simcolourproject_2stim_asymm_v5,2020.2.10,MacIntel,60,61025ae37ef11b136ea224fe,,,,,,,,,2067,26.69134521,-80.00634766,1,0,0,response3disk,,4,-2.801025391,-12.97314453,1,0,0,rectangle,-2.801025391,-12.97314453,1,0,0,-2.801025391,-12.97314453,1,0,0,0,10,10,5,1,,,,,,,,
,,,,,,,,,,,,,FF,,,,,,,,1.6859,,,,,,,,,,,,,,,,,,,,,,60fcf4962b970932cbdd186b,610370858d4ce36d1951f6ad,2021-07-29_23h26.45.747,Simcolourproject_2stim_asymm_v5,2020.2.10,MacIntel,60,61025ae37ef11b136ea224fe,,,,,,,,,4111,75.53210449,58.41741943,1,0,0,response1disk,,6,-12.99206543,-8.214019775,1,0,0,rectangle,-12.99206543,-8.214019775,1,0,0,-12.99206543,-8.214019775,1,0,0,0,11,11,25,1,,,,,,,,
,,,,,,,,,,,,,FF,,,,,,,,2.5513,,,,,,,,,,,,,,,,,,,,,,60fcf4962b970932cbdd186b,610370858d4ce36d1951f6ad,2021-07-29_23h26.45.747,Simcolourproject_2stim_asymm_v5,2020.2.10,MacIntel,60,61025ae37ef11b136ea224fe,,,,,,,,,3489,39.21832275,-90.30755615,1,0,0,response3disk,,4,17.85351563,-6.004821777,1,0,0,rectangle,17.85351563,-6.004821777,1,0,0,17.85351563,-6.004821777,1,0,0,0,12,12,33,1,,,,,,,,
,,,,,,,,,,,,,FF,,,,,,,,1.1993,,,,,,,,,,,,,,,,,,,,,,60fcf4962b970932cbdd186b,610370858d4ce36d1951f6ad,2021-07-29_23h26.45.747,Simcolourproject_2stim_asymm_v5,2020.2.10,MacIntel,60,61025ae37ef11b136ea224fe,,,,,,,,,507,74.47521973,37.76086426,1,0,0,response1disk,,6,7.924377441,-7.223022461,1,0,0,rectangle,7.924377441,-7.223022461,1,0,0,7.924377441,-7.223022461,1,0,0,0,13,13,121,1,,,,,,,,
,,,,,,,,,,,,,FF,,,,,,,,2.7475,,,,,,,,,,,,,,,,,,,,,,60fcf4962b970932cbdd186b,610370858d4ce36d1951f6ad,2021-07-29_23h26.45.747,Simcolourproject_2stim_asymm_v5,2020.2.10,MacIntel,60,61025ae37ef11b136ea224fe,,,,,,,,,2584,87.91217041,-56.93783569,1,0,0,response3disk,,5,4.409240723,-6.649383545,1,0,0,rectangle,4.409240723,-6.649383545,1,0,0,4.409240723,-6.649383545,1,0,0,0,14,14,53,1,,,,,,,,
,,,,,,,,,,,,,FF,,,,,,,,1.1005,,,,,,,,,,,,,,,,,,,,,,60fcf4962b970932cbdd186b,610370858d4ce36d1951f6ad,2021-07-29_23h26.45.747,Simcolourproject_2stim_asymm_v5,2020.2.10,MacIntel,60,61025ae37ef11b136ea224fe,,,,,,,,,2063,73.39868164,-42.84713745,1,0,0,response3disk,,5,10.36181641,-5.766937256,1,0,0,rectangle,-26.61810303,-81.2276001,1,0,0,-1.660705566,-8.178100586,1,0,0,0,15,15,62,1,,response5disk_3,TRUE,3,3,"[147,123,87,225,244,29,197,236,223,174,304,300,37,56,22,181,108,205,16,267]",1.4196,rectangle
,,,,,,,,,,,,,FF,,,,,,,,3.8675,,,,,,,,,,,,,,,,,,,,,,60fcf4962b970932cbdd186b,610370858d4ce36d1951f6ad,2021-07-29_23h26.45.747,Simcolourproject_2stim_asymm_v5,2020.2.10,MacIntel,60,61025ae37ef11b136ea224fe,,,,,,,,,2022,100.6771851,-43.43139648,1,0,0,response3disk,,5,11.24493408,-0.59375,1,0,0,rectangle,11.24493408,-0.59375,1,0,0,11.24493408,-0.59375,1,0,0,0,16,16,8,1,,,,,,,,
,,,,,,,,,,,,,FF,,,,,,,,2.0516,,,,,,,,,,,,,,,,,,,,,,60fcf4962b970932cbdd186b,610370858d4ce36d1951f6ad,2021-07-29_23h26.45.747,Simcolourproject_2stim_asymm_v5,2020.2.10,MacIntel,60,61025ae37ef11b136ea224fe,,,,,,,,,1274,36.30718994,-82.65014648,1,0,0,response3disk,,4,2.590759277,-4.817077637,1,0,0,rectangle,2.590759277,-4.817077637,1,0,0,2.590759277,-4.817077637,1,0,0,0,17,17,80,1,,,,,,,,
,,,,,,,,,,,,,FF,,,,,,,,2.8513,,,,,,,,,,,,,,,,,,,,,,60fcf4962b970932cbdd186b,610370858d4ce36d1951f6ad,2021-07-29_23h26.45.747,Simcolourproject_2stim_asymm_v5,2020.2.10,MacIntel,60,61025ae37ef11b136ea224fe,,,,,,,,,3140,32.83642578,-62.38531494,1,0,0,response3disk,,4,17.08337402,-12.00015259,1,0,0,rectangle,17.08337402,-12.00015259,1,0,0,17.08337402,-12.00015259,1,0,0,0,18,18,141,1,,,,,,,,
,,,,,,,,,,,,,FF,,,,,,,,2.5023,,,,,,,,,,,,,,,,,,,,,,60fcf4962b970932cbdd186b,610370858d4ce36d1951f6ad,2021-07-29_23h26.45.747,Simcolourproject_2stim_asymm_v5,2020.2.10,MacIntel,60,61025ae37ef11b136ea224fe,,,,,,,,,3928,90.37457275,30.41671753,1,0,0,response1disk,,6,11.60662842,-7.912353516,1,0,0,rectangle,11.60662842,-7.912353516,1,0,0,11.60662842,-7.912353516,1,0,0,0,19,19,90,1,,,,,,,,
,,,,,,,,,,,,,FF,,,,,,,,1.3835,,,,,,,,,,,,,,,,,,,,,,60fcf4962b970932cbdd186b,610370858d4ce36d1951f6ad,2021-07-29_23h26.45.747,Simcolourproject_2stim_asymm_v5,2020.2.10,MacIntel,60,61025ae37ef11b136ea224fe,,,,,,,,,3615,71.7835083,-38.83883667,1,0,0,response3disk,,5,12.08209229,-0.07635498,1,0,0,rectangle,12.08209229,-0.07635498,1,0,0,12.08209229,-0.07635498,1,0,0,0,20,20,123,1,,,,,,,,
,,,,,,,,,,,,,FF,,,,,,,,1.8168,,,,,,,,,,,,,,,,,,,,,,60fcf4962b970932cbdd186b,610370858d4ce36d1951f6ad,2021-07-29_23h26.45.747,Simcolourproject_2stim_asymm_v5,2020.2.10,MacIntel,60,61025ae37ef11b136ea224fe,,,,,,,,,1277,46.89953613,-89.72186279,1,0,0,response3disk,,4,-10.62762451,-12.57611084,1,0,0,rectangle,-40.36431885,76.04818726,1,0,0,-2.600341797,-10.89050293,1,0,0,0,21,21,100,1,,response7disk_3,TRUE,0,0,"[147,123,87,225,244,29,197,236,223,174,304,300,37,56,22,181,108,205,16,267]",2.1658,rectangle
,,,,,,,,,,,,,FF,,,,,,,,2.5681,,,,,,,,,,,,,,,,,,,,,,60fcf4962b970932cbdd186b,610370858d4ce36d1951f6ad,2021-07-29_23h26.45.747,Simcolourproject_2stim_asymm_v5,2020.2.10,MacIntel,60,61025ae37ef11b136ea224fe,,,,,,,,,1286,50.48937988,-76.09643555,1,0,0,response3disk,,4,-13.94036865,4.361968994,1,0,0,rectangle,-13.94036865,4.361968994,1,0,0,-13.94036865,4.361968994,1,0,0,0,22,22,35,1,,,,,,,,
,,,,,,,,,,,,,FF,,,,,,,,5.2341,,,,,,,,,,,,,,,,,,,,,,60fcf4962b970932cbdd186b,610370858d4ce36d1951f6ad,2021-07-29_23h26.45.747,Simcolourproject_2stim_asymm_v5,2020.2.10,MacIntel,60,61025ae37ef11b136ea224fe,,,,,,,,,2979,84.18994141,-56.70513916,1,0,0,response3disk,,5,25.60992432,-5.296569824,1,0,0,rectangle,25.60992432,-5.296569824,1,0,0,25.60992432,-5.296569824,1,0,0,0,23,23,46,1,,,,,,,,
,,,,,,,,,,,,,FF,,,,,,,,1.1521,,,,,,,,,,,,,,,,,,,,,,60fcf4962b970932cbdd186b,610370858d4ce36d1951f6ad,2021-07-29_23h26.45.747,Simcolourproject_2stim_asymm_v5,2020.2.10,MacIntel,60,61025ae37ef11b136ea224fe,,,,,,,,,1481,65.35687256,17.39941406,1,0,0,response1disk,,6,27.97888184,-2.221405029,1,0,0,rectangle,27.97888184,-2.221405029,1,0,0,27.97888184,-2.221405029,1,0,0,0,24,24,49,1,,,,,,,,
,,,,,,,,,,,,,FF,,,,,,,,1.0999,,,,,,,,,,,,,,,,,,,,,,60fcf4962b970932cbdd186b,610370858d4ce36d1951f6ad,2021-07-29_23h26.45.747,Simcolourproject_2stim_asymm_v5,2020.2.10,MacIntel,60,61025ae37ef11b136ea224fe,,,,,,,,,2746,77.76629639,-51.22689819,1,0,0,response3disk,,5,11.75964355,-10.01031494,1,0,0,rectangle,11.75964355,-10.01031494,1,0,0,11.75964355,-10.01031494,1,0,0,0,25,25,9,1,,,,,,,,
,,,,,,,,,,,,,FF,,,,,,,,1.3018,,,,,,,,,,,,,,,,,,,,,,60fcf4962b970932cbdd186b,610370858d4ce36d1951f6ad,2021-07-29_23h26.45.747,Simcolourproject_2stim_asymm_v5,2020.2.10,MacIntel,60,61025ae37ef11b136ea224fe,,,,,,,,,1266,86.61676025,-61.78988647,1,0,0,response3disk,,5,5.89666748,-15.65612793,1,0,0,rectangle,5.89666748,-15.65612793,1,0,0,5.89666748,-15.65612793,1,0,0,0,26,26,50,1,,,,,,,,
,,,,,,,,,,,,,FF,,,,,,,,1.2333,,,,,,,,,,,,,,,,,,,,,,60fcf4962b970932cbdd186b,610370858d4ce36d1951f6ad,2021-07-29_23h26.45.747,Simcolourproject_2stim_asymm_v5,2020.2.10,MacIntel,60,61025ae37ef11b136ea224fe,,,,,,,,,619,-38.80773926,-81.90570068,1,0,0,response5disk,,3,-20.26464844,-0.761779785,1,0,0,rectangle,-20.26464844,-0.761779785,1,0,0,-20.26464844,-0.761779785,1,0,0,0,27,27,159,1,,,,,,,,
,,,,,,,,,,,,,FF,,,,,,,,1.1853,,,,,,,,,,,,,,,,,,,,,,60fcf4962b970932cbdd186b,610370858d4ce36d1951f6ad,2021-07-29_23h26.45.747,Simcolourproject_2stim_asymm_v5,2020.2.10,MacIntel,60,61025ae37ef11b136ea224fe,,,,,,,,,3322,104.5493774,-46.0072937,1,0,0,response3disk,,5,9.179260254,-11.76846313,1,0,0,rectangle,32.95617676,87.70993042,1,0,0,6.152832031,-2.313446045,1,0,0,0,28,28,136,1,,response1disk_3,TRUE,7,7,"[147,123,87,225,244,29,197,236,223,174,304,300,37,56,22,181,108,205,16,267]",1.6152,rectangle
,,,,,,,,,,,,,FF,,,,,,,,1.4627,,,,,,,,,,,,,,,,,,,,,,60fcf4962b970932cbdd186b,610370858d4ce36d1951f6ad,2021-07-29_23h26.45.747,Simcolourproject_2stim_asymm_v5,2020.2.10,MacIntel,60,61025ae37ef11b136ea224fe,,,,,,,,,29,97.76641846,-58.81283569,1,0,0,response3disk,,5,13.30529785,-4.934051514,1,0,0,rectangle,13.30529785,-4.934051514,1,0,0,13.30529785,-4.934051514,1,0,0,0,29,29,96,1,,,,,,,,
,,,,,,,,,,,,,FF,,,,,,,,0.9836,,,,,,,,,,,,,,,,,,,,,,60fcf4962b970932cbdd186b,610370858d4ce36d1951f6ad,2021-07-29_23h26.45.747,Simcolourproject_2stim_asymm_v5,2020.2.10,MacIntel,60,61025ae37ef11b136ea224fe,,,,,,,,,756,47.68115234,-76.32189941,1,0,0,response3disk,,4,6.6015625,5.837677002,1,0,0,rectangle,6.6015625,5.837677002,1,0,0,6.6015625,5.837677002,1,0,0,0,30,30,104,1,,,,,,,,
,,,,,,,,,,,,,FF,,,,,,,,1.9339,,,,,,,,,,,,,,,,,,,,,,60fcf4962b970932cbdd186b,610370858d4ce36d1951f6ad,2021-07-29_23h26.45.747,Simcolourproject_2stim_asymm_v5,2020.2.10,MacIntel,60,61025ae37ef11b136ea224fe,,,,,,,,,4072,78.77124023,-42.57400513,1,0,0,response3disk,,5,10.26757813,-4.550262451,1,0,0,rectangle,10.26757813,-4.550262451,1,0,0,10.26757813,-4.550262451,1,0,0,0,31,31,131,1,,,,,,,,
,,,,,,,,,,,,,FF,,,,,,,,2.5513,,,,,,,,,,,,,,,,,,,,,,60fcf4962b970932cbdd186b,610370858d4ce36d1951f6ad,2021-07-29_23h26.45.747,Simcolourproject_2stim_asymm_v5,2020.2.10,MacIntel,60,61025ae37ef11b136ea224fe,,,,,,,,,913,93.96533203,-50.49258423,1,0,0,response3disk,,5,9.674621582,-2.075653076,1,0,0,rectangle,9.674621582,-2.075653076,1,0,0,9.674621582,-2.075653076,1,0,0,0,32,32,11,1,,,,,,,,
,,,,,,,,,,,,,FF,,,,,,,,1.716,,,,,,,,,,,,,,,,,,,,,,60fcf4962b970932cbdd186b,610370858d4ce36d1951f6ad,2021-07-29_23h26.45.747,Simcolourproject_2stim_asymm_v5,2020.2.10,MacIntel,60,61025ae37ef11b136ea224fe,,,,,,,,,615,53.10803223,-91.56939697,1,0,0,response3disk,,4,-2.163452148,6.506530762,1,0,0,rectangle,-2.163452148,6.506530762,1,0,0,-2.163452148,6.506530762,1,0,0,0,33,33,60,1,,,,,,,,
,,,,,,,,,,,,,FF,,,,,,,,1.283,,,,,,,,,,,,,,,,,,,,,,60fcf4962b970932cbdd186b,610370858d4ce36d1951f6ad,2021-07-29_23h26.45.747,Simcolourproject_2stim_asymm_v5,2020.2.10,MacIntel,60,61025ae37ef11b136ea224fe,,,,,,,,,1541,77.71374512,44.87771606,1,0,0,response1disk,,6,5.096618652,-1.863555908,1,0,0,rectangle,5.096618652,-1.863555908,1,0,0,5.096618652,-1.863555908,1,0,0,0,34,34,71,1,,,,,,,,
,,,,,,,,,,,,,FF,,,,,,,,1.0495,,,,,,,,,,,,,,,,,,,,,,60fcf4962b970932cbdd186b,610370858d4ce36d1951f6ad,2021-07-29_23h26.45.747,Simcolourproject_2stim_asymm_v5,2020.2.10,MacIntel,60,61025ae37ef11b136ea224fe,,,,,,,,,400,92.14794922,-54.96139526,1,0,0,response3disk,,5,14.89916992,-8.046386719,1,0,0,rectangle,14.89916992,-8.046386719,1,0,0,14.89916992,-8.046386719,1,0,0,0,35,35,92,1,,,,,,,,
,,,,,,,,,,,,,FF,,,,,,,,0.8668,,,,,,,,,,,,,,,,,,,,,,60fcf4962b970932cbdd186b,610370858d4ce36d1951f6ad,2021-07-29_23h26.45.747,Simcolourproject_2stim_asymm_v5,2020.2.10,MacIntel,60,61025ae37ef11b136ea224fe,,,,,,,,,4036,50.24707031,-68.88928223,1,0,0,response3disk,,4,19.1685791,-1.781311035,1,0,0,rectangle,-39.23144531,77.97598267,1,0,0,-5.973510742,-4.830108643,1,0,0,0,36,36,86,1,,response7disk_3,TRUE,0,0,"[147,123,87,225,244,29,197,236,223,174,304,300,37,56,22,181,108,205,16,267]",1.4847,rectangle
,,,,,,,,,,,,,FF,,,,,,,,2.5354,,,,,,,,,,,,,,,,,,,,,,60fcf4962b970932cbdd186b,610370858d4ce36d1951f6ad,2021-07-29_23h26.45.747,Simcolourproject_2stim_asymm_v5,2020.2.10,MacIntel,60,61025ae37ef11b136ea224fe,,,,,,,,,3991,93.34259033,-39.31314087,1,0,0,response3disk,,5,9.413696289,-3.165893555,1,0,0,rectangle,9.413696289,-3.165893555,1,0,0,9.413696289,-3.165893555,1,0,0,0,37,37,158,1,,,,,,,,
,,,,,,,,,,,,,FF,,,,,,,,0.8991,,,,,,,,,,,,,,,,,,,,,,60fcf4962b970932cbdd186b,610370858d4ce36d1951f6ad,2021-07-29_23h26.45.747,Simcolourproject_2stim_asymm_v5,2020.2.10,MacIntel,60,61025ae37ef11b136ea224fe,,,,,,,,,2968,92.33380127,-44.76803589,1,0,0,response3disk,,5,11.58227539,-10.32244873,1,0,0,rectangle,11.58227539,-10.32244873,1,0,0,11.58227539,-10.32244873,1,0,0,0,38,38,20,1,,,,,,,,
,,,,,,,,,,,,,FF,,,,,,,,1.215,,,,,,,,,,,,,,,,,,,,,,60fcf4962b970932cbdd186b,610370858d4ce36d1951f6ad,2021-07-29_23h26.45.747,Simcolourproject_2stim_asymm_v5,2020.2.10,MacIntel,60,61025ae37ef11b136ea224fe,,,,,,,,,200,40.8203125,-70.77575684,1,0,0,response3disk,,4,-2.524597168,-13.71487427,1,0,0,rectangle,-2.524597168,-13.71487427,1,0,0,-2.524597168,-13.71487427,1,0,0,0,39,39,125,1,,,,,,,,
,,,,,,,,,,,,,FF,,,,,,,,1.2174,,,,,,,,,,,,,,,,,,,,,,60fcf4962b970932cbdd186b,610370858d4ce36d1951f6ad,2021-07-29_23h26.45.747,Simcolourproject_2stim_asymm_v5,2020.2.10,MacIntel,60,61025ae37ef11b136ea224fe,,,,,,,,,72,-40.30059814,-72.56201172,1,0,0,response5disk,,3,-25.7064209,-13.99908447,1,0,0,rectangle,-25.7064209,-13.99908447,1,0,0,-25.7064209,-13.99908447,1,0,0,0,40,40,93,1,,,,,,,,
,,,,,,,,,,,,,FF,,,,,,,,2.0494,,,,,,,,,,,,,,,,,,,,,,60fcf4962b970932cbdd186b,610370858d4ce36d1951f6ad,2021-07-29_23h26.45.747,Simcolourproject_2stim_asymm_v5,2020.2.10,MacIntel,60,61025ae37ef11b136ea224fe,,,,,,,,,3374,-16.38171387,-87.33947754,1,0,0,response5disk,,3,1.129577637,3.136993408,1,0,0,rectangle,1.129577637,3.136993408,1,0,0,1.129577637,3.136993408,1,0,0,0,41,41,47,1,,,,,,,,
,,,,,,,,,,,,,FF,,,,,,,,0.9995,,,,,,,,,,,,,,,,,,,,,,60fcf4962b970932cbdd186b,610370858d4ce36d1951f6ad,2021-07-29_23h26.45.747,Simcolourproject_2stim_asymm_v5,2020.2.10,MacIntel,60,61025ae37ef11b136ea224fe,,,,,,,,,235,75.40667725,-50.43222046,1,0,0,response3disk,,5,19.21008301,-8.049041748,1,0,0,rectangle,19.21008301,-8.049041748,1,0,0,19.21008301,-8.049041748,1,0,0,0,42,42,29,1,,,,,,,,
,,,,,,,,,,,,,FF,,,,,,,,1.0498,,,,,,,,,,,,,,,,,,,,,,60fcf4962b970932cbdd186b,610370858d4ce36d1951f6ad,2021-07-29_23h26.45.747,Simcolourproject_2stim_asymm_v5,2020.2.10,MacIntel,60,61025ae37ef11b136ea224fe,,,,,,,,,3668,-35.96008301,50.98547363,1,0,0,response7disk,,0,-12.24615479,8.335540771,1,0,0,rectangle,-12.24615479,8.335540771,1,0,0,-12.24615479,8.335540771,1,0,0,0,43,43,63,1,,,,,,,,
,,,,,,,,,,,,,FF,,,,,,,,1.5165,,,,,,,,,,,,,,,,,,,,,,60fcf4962b970932cbdd186b,610370858d4ce36d1951f6ad,2021-07-29_23h26.45.747,Simcolourproject_2stim_asymm_v5,2020.2.10,MacIntel,60,61025ae37ef11b136ea224fe,,,,,,,,,1346,68.46057129,30.71923828,1,0,0,response1disk,,6,26.36938477,-2.165313721,1,0,0,rectangle,26.36938477,-2.165313721,1,0,0,26.36938477,-2.165313721,1,0,0,0,44,44,122,1,,,,,,,,
,,,,,,,,,,,,,FF,,,,,,,,1.5172,,,,,,,,,,,,,,,,,,,,,,60fcf4962b970932cbdd186b,610370858d4ce36d1951f6ad,2021-07-29_23h26.45.747,Simcolourproject_2stim_asymm_v5,2020.2.10,MacIntel,60,61025ae37ef11b136ea224fe,,,,,,,,,2514,63.72338867,-39.91586304,1,0,0,response3disk,,5,12.95568848,2.983001709,1,0,0,rectangle,12.95568848,2.983001709,1,0,0,12.95568848,2.983001709,1,0,0,0,45,45,87,1,,,,,,,,
,,,,,,,,,,,,,FF,,,,,,,,1.5506,,,,,,,,,,,,,,,,,,,,,,60fcf4962b970932cbdd186b,610370858d4ce36d1951f6ad,2021-07-29_23h26.45.747,Simcolourproject_2stim_asymm_v5,2020.2.10,MacIntel,60,61025ae37ef11b136ea224fe,,,,,,,,,4124,32.74212646,-80.16998291,1,0,0,response3disk,,4,-2.878967285,-8.438262939,1,0,0,rectangle,-2.878967285,-8.438262939,1,0,0,-2.878967285,-8.438262939,1,0,0,0,46,46,7,1,,,,,,,,
,,,,,,,,,,,,,FF,,,,,,,,1.7853,,,,,,,,,,,,,,,,,,,,,,60fcf4962b970932cbdd186b,610370858d4ce36d1951f6ad,2021-07-29_23h26.45.747,Simcolourproject_2stim_asymm_v5,2020.2.10,MacIntel,60,61025ae37ef11b136ea224fe,,,,,,,,,4110,90.1729126,48.48898315,1,0,0,response1disk,,6,17.20617676,2.186340332,1,0,0,rectangle,17.20617676,2.186340332,1,0,0,17.20617676,2.186340332,1,0,0,0,47,47,39,1,,,,,,,,
,,,,,,,,,,,,,FF,,,,,,,,1.3143,,,,,,,,,,,,,,,,,,,,,,60fcf4962b970932cbdd186b,610370858d4ce36d1951f6ad,2021-07-29_23h26.45.747,Simcolourproject_2stim_asymm_v5,2020.2.10,MacIntel,60,61025ae37ef11b136ea224fe,,,,,,,,,996,77.77752686,-51.49658203,1,0,0,response3disk,,5,14.27709961,-3.521820068,1,0,0,rectangle,14.27709961,-3.521820068,1,0,0,14.27709961,-3.521820068,1,0,0,0,48,48,28,1,,,,,,,,
,,,,,,,,,,,,,FF,,,,,,,,1.0857,,,,,,,,,,,,,,,,,,,,,,60fcf4962b970932cbdd186b,610370858d4ce36d1951f6ad,2021-07-29_23h26.45.747,Simcolourproject_2stim_asymm_v5,2020.2.10,MacIntel,60,61025ae37ef11b136ea224fe,,,,,,,,,1178,79.60760498,-40.49139404,1,0,0,response3disk,,5,29.68359375,-16.23614502,1,0,0,rectangle,29.68359375,-16.23614502,1,0,0,29.68359375,-16.23614502,1,0,0,0,49,49,77,1,,,,,,,,
,,,,,,,,,,,,,FF,,,,,,,,1.8406,,,,,,,,,,,,,,,,,,,,,,60fcf4962b970932cbdd186b,610370858d4ce36d1951f6ad,2021-07-29_23h26.45.747,Simcolourproject_2stim_asymm_v5,2020.2.10,MacIntel,60,61025ae37ef11b136ea224fe,,,,,,,,,3201,37.89691162,-83.27307129,1,0,0,response3disk,,4,12.94439697,-10.95828247,1,0,0,rectangle,12.94439697,-10.95828247,1,0,0,12.94439697,-10.95828247,1,0,0,0,50,50,111,1,,,,,,,,
,,,,,,,,,,,,,FF,,,,,,,,2.5843,,,,,,,,,,,,,,,,,,,,,,60fcf4962b970932cbdd186b,610370858d4ce36d1951f6ad,2021-07-29_23h26.45.747,Simcolourproject_2stim_asymm_v5,2020.2.10,MacIntel,60,61025ae37ef11b136ea224fe,,,,,,,,,733,88.06604004,-52.59075928,1,0,0,response3disk,,5,23.94714355,-16.31369019,1,0,0,rectangle,23.94714355,-16.31369019,1,0,0,23.94714355,-16.31369019,1,0,0,0,51,51,10,1,,,,,,,,
,,,,,,,,,,,,,FF,,,,,,,,1.2336,,,,,,,,,,,,,,,,,,,,,,60fcf4962b970932cbdd186b,610370858d4ce36d1951f6ad,2021-07-29_23h26.45.747,Simcolourproject_2stim_asymm_v5,2020.2.10,MacIntel,60,61025ae37ef11b136ea224fe,,,,,,,,,758,76.35412598,-46.02410889,1,0,0,response3disk,,5,-0.80090332,2.752288818,1,0,0,rectangle,-0.80090332,2.752288818,1,0,0,-0.80090332,2.752288818,1,0,0,0,52,52,65,1,,,,,,,,
,,,,,,,,,,,,,FF,,,,,,,,1.1174,,,,,,,,,,,,,,,,,,,,,,60fcf4962b970932cbdd186b,610370858d4ce36d1951f6ad,2021-07-29_23h26.45.747,Simcolourproject_2stim_asymm_v5,2020.2.10,MacIntel,60,61025ae37ef11b136ea224fe,,,,,,,,,2499,82.43225098,-52.16064453,1,0,0,response3disk,,5,4.338439941,-1.493988037,1,0,0,rectangle,4.338439941,-1.493988037,1,0,0,4.338439941,-1.493988037,1,0,0,0,53,53,66,1,,,,,,,,
,,,,,,,,,,,,,FF,,,,,,,,1.6166,,,,,,,,,,,,,,,,,,,,,,60fcf4962b970932cbdd186b,610370858d4ce36d1951f6ad,2021-07-29_23h26.45.747,Simcolourproject_2stim_asymm_v5,2020.2.10,MacIntel,60,61025ae37ef11b136ea224fe,,,,,,,,,2757,91.3470459,-45.347229,1,0,0,response3disk,,5,11.85998535,6.290222168,1,0,0,rectangle,11.85998535,6.290222168,1,0,0,11.85998535,6.290222168,1,0,0,0,54,54,3,1,,,,,,,,
,,,,,,,,,,,,,FF,,,,,,,,1.0989,,,,,,,,,,,,,,,,,,,,,,60fcf4962b970932cbdd186b,610370858d4ce36d1951f6ad,2021-07-29_23h26.45.747,Simcolourproject_2stim_asymm_v5,2020.2.10,MacIntel,60,61025ae37ef11b136ea224fe,,,,,,,,,2444,72.04534912,44.3961792,1,0,0,response1disk,,6,16.51220703,1.881469727,1,0,0,rectangle,72.25836182,-42.23519897,1,0,0,16.48217773,-3.879058838,1,0,0,0,55,55,14,1,,response3disk_3,TRUE,5,5,"[147,123,87,225,244,29,197,236,223,174,304,300,37,56,22,181,108,205,16,267]",1.2983,rectangle
,,,,,,,,,,,,,FF,,,,,,,,1.866,,,,,,,,,,,,,,,,,,,,,,60fcf4962b970932cbdd186b,610370858d4ce36d1951f6ad,2021-07-29_23h26.45.747,Simcolourproject_2stim_asymm_v5,2020.2.10,MacIntel,60,61025ae37ef11b136ea224fe,,,,,,,,,3510,-66.82086182,33.52383423,1,0,0,response7disk,,1,-16.22143555,-1.845947266,1,0,0,rectangle,-16.22143555,-1.845947266,1,0,0,-16.22143555,-1.845947266,1,0,0,0,56,56,1,1,,,,,,,,
,,,,,,,,,,,,,FF,,,,,,,,1.2655,,,,,,,,,,,,,,,,,,,,,,60fcf4962b970932cbdd186b,610370858d4ce36d1951f6ad,2021-07-29_23h26.45.747,Simcolourproject_2stim_asymm_v5,2020.2.10,MacIntel,60,61025ae37ef11b136ea224fe,,,,,,,,,1155,89.65985107,21.07321167,1,0,0,response1disk,,6,0.797607422,-1.966918945,1,0,0,rectangle,0.797607422,-1.966918945,1,0,0,0.797607422,-1.966918945,1,0,0,0,57,57,98,1,,,,,,,,
,,,,,,,,,,,,,FF,,,,,,,,0.8136,,,,,,,,,,,,,,,,,,,,,,60fcf4962b970932cbdd186b,610370858d4ce36d1951f6ad,2021-07-29_23h26.45.747,Simcolourproject_2stim_asymm_v5,2020.2.10,MacIntel,60,61025ae37ef11b136ea224fe,,,,,,,,,3265,80.56652832,-47.25964355,1,0,0,response3disk,,5,11.77246094,-12.92861938,1,0,0,rectangle,11.77246094,-12.92861938,1,0,0,11.77246094,-12.92861938,1,0,0,0,58,58,153,1,,,,,,,,
,,,,,,,,,,,,,FF,,,,,,,,0.8383,,,,,,,,,,,,,,,,,,,,,,60fcf4962b970932cbdd186b,610370858d4ce36d1951f6ad,2021-07-29_23h26.45.747,Simcolourproject_2stim_asymm_v5,2020.2.10,MacIntel,60,61025ae37ef11b136ea224fe,,,,,,,,,1119,82.29736328,-36.07040405,1,0,0,response3disk,,5,7.391235352,-0.2840271,1,0,0,rectangle,7.391235352,-0.2840271,1,0,0,7.391235352,-0.2840271,1,0,0,0,59,59,84,1,,,,,,,,
,,,,,,,,,,,,,FF,,,,,,,,1.1334,,,,,,,,,,,,,,,,,,,,,,60fcf4962b970932cbdd186b,610370858d4ce36d1951f6ad,2021-07-29_23h26.45.747,Simcolourproject_2stim_asymm_v5,2020.2.10,MacIntel,60,61025ae37ef11b136ea224fe,,,,,,,,,12,78.78643799,-38.8571167,1,0,0,response3disk,,5,16.92633057,-12.76464844,1,0,0,rectangle,16.92633057,-12.76464844,1,0,0,16.92633057,-12.76464844,1,0,0,0,60,60,105,1,,,,,,,,
,,,,,,,,,,,,,FF,,,,,,,,2.1177,,,,,,,,,,,,,,,,,,,,,,60fcf4962b970932cbdd186b,610370858d4ce36d1951f6ad,2021-07-29_23h26.45.747,Simcolourproject_2stim_asymm_v5,2020.2.10,MacIntel,60,61025ae37ef11b136ea224fe,,,,,,,,,3409,31.02044678,-83.5425415,1,0,0,response3disk,,4,-18.12701416,5.703155518,1,0,0,rectangle,-18.12701416,5.703155518,1,0,0,-18.12701416,5.703155518,1,0,0,0,61,61,26,1,,,,,,,,
,,,,,,,,,,,,,FF,,,,,,,,1.6361,,,,,,,,,,,,,,,,,,,,,,60fcf4962b970932cbdd186b,610370858d4ce36d1951f6ad,2021-07-29_23h26.45.747,Simcolourproject_2stim_asymm_v5,2020.2.10,MacIntel,60,61025ae37ef11b136ea224fe,,,,,,,,,3562,50.42791748,-86.01092529,1,0,0,response3disk,,4,-12.50067139,-4.412902832,1,0,0,rectangle,-12.50067139,-4.412902832,1,0,0,-12.50067139,-4.412902832,1,0,0,0,62,62,133,1,,,,,,,,
,,,,,,,,,,,,,FF,,,,,,,,0.7669,,,,,,,,,,,,,,,,,,,,,,60fcf4962b970932cbdd186b,610370858d4ce36d1951f6ad,2021-07-29_23h26.45.747,Simcolourproject_2stim_asymm_v5,2020.2.10,MacIntel,60,61025ae37ef11b136ea224fe,,,,,,,,,1545,58.56164551,-42.12734985,1,0,0,response3disk,,5,6.19732666,-16.32107544,1,0,0,rectangle,6.19732666,-16.32107544,1,0,0,6.19732666,-16.32107544,1,0,0,0,63,63,36,1,,,,,,,,
,,,,,,,,,,,,,FF,,,,,,,,1.2332,,,,,,,,,,,,,,,,,,,,,,60fcf4962b970932cbdd186b,610370858d4ce36d1951f6ad,2021-07-29_23h26.45.747,Simcolourproject_2stim_asymm_v5,2020.2.10,MacIntel,60,61025ae37ef11b136ea224fe,,,,,,,,,293,98.19500732,-40.92047119,1,0,0,response3disk,,5,13.55651855,-5.008728027,1,0,0,rectangle,13.55651855,-5.008728027,1,0,0,13.55651855,-5.008728027,1,0,0,0,64,64,135,1,,,,,,,,
,,,,,,,,,,,,,FF,,,,,,,,0.9341,,,,,,,,,,,,,,,,,,,,,,60fcf4962b970932cbdd186b,610370858d4ce36d1951f6ad,2021-07-29_23h26.45.747,Simcolourproject_2stim_asymm_v5,2020.2.10,MacIntel,60,61025ae37ef11b136ea224fe,,,,,,,,,542,59.02044678,31.51757813,1,0,0,response1disk,,6,-32.27978516,-3.702667236,1,0,0,rectangle,-32.27978516,-3.702667236,1,0,0,-32.27978516,-3.702667236,1,0,0,0,65,65,40,1,,,,,,,,
,,,,,,,,,,,,,FF,,,,,,,,1.5986,,,,,,,,,,,,,,,,,,,,,,60fcf4962b970932cbdd186b,610370858d4ce36d1951f6ad,2021-07-29_23h26.45.747,Simcolourproject_2stim_asymm_v5,2020.2.10,MacIntel,60,61025ae37ef11b136ea224fe,,,,,,,,,3977,36.72802734,-87.85644531,1,0,0,response3disk,,4,-2.360229492,-2.977355957,1,0,0,rectangle,-2.360229492,-2.977355957,1,0,0,-2.360229492,-2.977355957,1,0,0,0,66,66,44,1,,,,,,,,
,,,,,,,,,,,,,FF,,,,,,,,2.6179,,,,,,,,,,,,,,,,,,,,,,60fcf4962b970932cbdd186b,610370858d4ce36d1951f6ad,2021-07-29_23h26.45.747,Simcolourproject_2stim_asymm_v5,2020.2.10,MacIntel,60,61025ae37ef11b136ea224fe,,,,,,,,,975,-86.64111328,-52.41625977,1,0,0,response5disk,,2,-16.67431641,-10.19985962,1,0,0,rectangle,-16.67431641,-10.19985962,1,0,0,-16.67431641,-10.19985962,1,0,0,0,67,67,52,1,,,,,,,,
,,,,,,,,,,,,,FF,,,,,,,,0.9842,,,,,,,,,,,,,,,,,,,,,,60fcf4962b970932cbdd186b,610370858d4ce36d1951f6ad,2021-07-29_23h26.45.747,Simcolourproject_2stim_asymm_v5,2020.2.10,MacIntel,60,61025ae37ef11b136ea224fe,,,,,,,,,835,68.27716064,-43.68139648,1,0,0,response3disk,,5,11.88934326,0.845184326,1,0,0,rectangle,11.88934326,0.845184326,1,0,0,11.88934326,0.845184326,1,0,0,0,68,68,106,1,,,,,,,,
,,,,,,,,,,,,,FF,,,,,,,,2.6831,,,,,,,,,,,,,,,,,,,,,,60fcf4962b970932cbdd186b,610370858d4ce36d1951f6ad,2021-07-29_23h26.45.747,Simcolourproject_2stim_asymm_v5,2020.2.10,MacIntel,60,61025ae37ef11b136ea224fe,,,,,,,,,1166,21.89337158,-88.06329346,1,0,0,response3disk,,4,-15.82568359,3.752929688,1,0,0,rectangle,-15.82568359,3.752929688,1,0,0,-15.82568359,3.752929688,1,0,0,0,69,69,144,1,,,,,,,,
,,,,,,,,,,,,,FF,,,,,,,,1.2168,,,,,,,,,,,,,,,,,,,,,,60fcf4962b970932cbdd186b,610370858d4ce36d1951f6ad,2021-07-29_23h26.45.747,Simcolourproject_2stim_asymm_v5,2020.2.10,MacIntel,60,61025ae37ef11b136ea224fe,,,,,,,,,3383,-37.36791992,-84.87072754,1,0,0,response5disk,,3,-14.46618652,4.693359375,1,0,0,rectangle,-14.46618652,4.693359375,1,0,0,-14.46618652,4.693359375,1,0,0,0,70,70,120,1,,,,,,,,
,,,,,,,,,,,,,FF,,,,,,,,1.8851,,,,,,,,,,,,,,,,,,,,,,60fcf4962b970932cbdd186b,610370858d4ce36d1951f6ad,2021-07-29_23h26.45.747,Simcolourproject_2stim_asymm_v5,2020.2.10,MacIntel,60,61025ae37ef11b136ea224fe,,,,,,,,,3827,52.77539063,-92.4621582,1,0,0,response3disk,,4,2.705993652,10.09255981,1,0,0,rectangle,2.705993652,10.09255981,1,0,0,2.705993652,10.09255981,1,0,0,0,71,71,118,1,,,,,,,,
,,,,,,,,,,,,,FF,,,,,,,,3.1005,,,,,,,,,,,,,,,,,,,,,,60fcf4962b970932cbdd186b,610370858d4ce36d1951f6ad,2021-07-29_23h26.45.747,Simcolourproject_2stim_asymm_v5,2020.2.10,MacIntel,60,61025ae37ef11b136ea224fe,,,,,,,,,2307,43.74438477,-86.04937744,1,0,0,response3disk,,4,13.83221436,-8.513885498,1,0,0,rectangle,13.83221436,-8.513885498,1,0,0,13.83221436,-8.513885498,1,0,0,0,72,72,81,1,,,,,,,,
,,,,,,,,,,,,,FF,,,,,,,,1.9355,,,,,,,,,,,,,,,,,,,,,,60fcf4962b970932cbdd186b,610370858d4ce36d1951f6ad,2021-07-29_23h26.45.747,Simcolourproject_2stim_asymm_v5,2020.2.10,MacIntel,60,61025ae37ef11b136ea224fe,,,,,,,,,3671,-81.70050049,-44.88595581,1,0,0,response5disk,,2,-18.30603027,-9.632781982,1,0,0,rectangle,-18.30603027,-9.632781982,1,0,0,-18.30603027,-9.632781982,1,0,0,0,73,73,0,1,,,,,,,,
,,,,,,,,,,,,,FF,,,,,,,,1.5667,,,,,,,,,,,,,,,,,,,,,,60fcf4962b970932cbdd186b,610370858d4ce36d1951f6ad,2021-07-29_23h26.45.747,Simcolourproject_2stim_asymm_v5,2020.2.10,MacIntel,60,61025ae37ef11b136ea224fe,,,,,,,,,1905,23.00396729,-70.33081055,1,0,0,response3disk,,4,2.218994141,-6.534545898,1,0,0,rectangle,2.218994141,-6.534545898,1,0,0,2.218994141,-6.534545898,1,0,0,0,74,74,132,1,,,,,,,,
,,,,,,,,,,,,,FF,,,,,,,,3.7169,,,,,,,,,,,,,,,,,,,,,,60fcf4962b970932cbdd186b,610370858d4ce36d1951f6ad,2021-07-29_23h26.45.747,Simcolourproject_2stim_asymm_v5,2020.2.10,MacIntel,60,61025ae37ef11b136ea224fe,,,,,,,,,2881,89.63183594,-41.94213867,1,0,0,response3disk,,5,26.56445313,-10.62744141,1,0,0,rectangle,26.56445313,-10.62744141,1,0,0,26.56445313,-10.62744141,1,0,0,0,75,75,73,1,,,,,,,,
,,,,,,,,,,,,,FF,,,,,,,,1.3998,,,,,,,,,,,,,,,,,,,,,,60fcf4962b970932cbdd186b,610370858d4ce36d1951f6ad,2021-07-29_23h26.45.747,Simcolourproject_2stim_asymm_v5,2020.2.10,MacIntel,60,61025ae37ef11b136ea224fe,,,,,,,,,2071,59.08483887,33.17071533,1,0,0,response1disk,,6,8.208618164,8.324249268,1,0,0,rectangle,8.208618164,8.324249268,1,0,0,8.208618164,8.324249268,1,0,0,0,76,76,22,1,,,,,,,,
,,,,,,,,,,,,,FF,,,,,,,,1.367,,,,,,,,,,,,,,,,,,,,,,60fcf4962b970932cbdd186b,610370858d4ce36d1951f6ad,2021-07-29_23h26.45.747,Simcolourproject_2stim_asymm_v5,2020.2.10,MacIntel,60,61025ae37ef11b136ea224fe,,,,,,,,,4269,104.7675171,-44.29919434,1,0,0,response3disk,,5,18.86047363,-6.588623047,1,0,0,rectangle,18.86047363,-6.588623047,1,0,0,18.86047363,-6.588623047,1,0,0,0,77,77,129,1,,,,,,,,
,,,,,,,,,,,,,FF,,,,,,,,0.7981,,,,,,,,,,,,,,,,,,,,,,60fcf4962b970932cbdd186b,610370858d4ce36d1951f6ad,2021-07-29_23h26.45.747,Simcolourproject_2stim_asymm_v5,2020.2.10,MacIntel,60,61025ae37ef11b136ea224fe,,,,,,,,,1071,56.59973145,30.74642944,1,0,0,response1disk,,6,14.1519165,8.321868896,1,0,0,rectangle,14.1519165,8.321868896,1,0,0,14.1519165,8.321868896,1,0,0,0,78,78,70,1,,,,,,,,
,,,,,,,,,,,,,FF,,,,,,,,3.97,,,,,,,,,,,,,,,,,,,,,,60fcf4962b970932cbdd186b,610370858d4ce36d1951f6ad,2021-07-29_23h26.45.747,Simcolourproject_2stim_asymm_v5,2020.2.10,MacIntel,60,61025ae37ef11b136ea224fe,,,,,,,,,4357,-42.59979248,-93.11230469,1,0,0,response5disk,,3,-24.64971924,-4.882904053,1,0,0,rectangle,-24.64971924,-4.882904053,1,0,0,-24.64971924,-4.882904053,1,0,0,0,79,79,97,1,,,,,,,,
,,,,,,,,,,,,,FF,,,,,,,,1.4505,,,,,,,,,,,,,,,,,,,,,,60fcf4962b970932cbdd186b,610370858d4ce36d1951f6ad,2021-07-29_23h26.45.747,Simcolourproject_2stim_asymm_v5,2020.2.10,MacIntel,60,61025ae37ef11b136ea224fe,,,,,,,,,2256,95.46533203,-36.09951782,1,0,0,response3disk,,5,17.43591309,-16.25634766,1,0,0,rectangle,17.43591309,-16.25634766,1,0,0,17.43591309,-16.25634766,1,0,0,0,80,80,140,1,,,,,,,,
,,,,,,,,,,,,,FF,,,,,,,,3.4333,,,,,,,,,,,,,,,,,,,,,,60fcf4962b970932cbdd186b,610370858d4ce36d1951f6ad,2021-07-29_23h26.45.747,Simcolourproject_2stim_asymm_v5,2020.2.10,MacIntel,60,61025ae37ef11b136ea224fe,,,,,,,,,1029,48.73199463,-78.61425781,1,0,0,response3disk,,4,4.352905273,-7.24206543,1,0,0,rectangle,4.352905273,-7.24206543,1,0,0,4.352905273,-7.24206543,1,0,0,0,81,81,78,1,,,,,,,,
,,,,,,,,,,,,,FF,,,,,,,,1.0336,,,,,,,,,,,,,,,,,,,,,,60fcf4962b970932cbdd186b,610370858d4ce36d1951f6ad,2021-07-29_23h26.45.747,Simcolourproject_2stim_asymm_v5,2020.2.10,MacIntel,60,61025ae37ef11b136ea224fe,,,,,,,,,506,72.82946777,33.55166626,1,0,0,response1disk,,6,13.46203613,-1.536651611,1,0,0,rectangle,13.46203613,-1.536651611,1,0,0,13.46203613,-1.536651611,1,0,0,0,82,82,15,1,,,,,,,,
,,,,,,,,,,,,,FF,,,,,,,,0.8665,,,,,,,,,,,,,,,,,,,,,,60fcf4962b970932cbdd186b,610370858d4ce36d1951f6ad,2021-07-29_23h26.45.747,Simcolourproject_2stim_asymm_v5,2020.2.10,MacIntel,60,61025ae37ef11b136ea224fe,,,,,,,,,649,70.4331665,-34.20828247,1,0,0,response3disk,,5,5.085754395,2.476928711,1,0,0,rectangle,5.085754395,2.476928711,1,0,0,5.085754395,2.476928711,1,0,0,0,83,83,108,1,,,,,,,,
,,,,,,,,,,,,,FF,,,,,,,,0.9366,,,,,,,,,,,,,,,,,,,,,,60fcf4962b970932cbdd186b,610370858d4ce36d1951f6ad,2021-07-29_23h26.45.747,Simcolourproject_2stim_asymm_v5,2020.2.10,MacIntel,60,61025ae37ef11b136ea224fe,,,,,,,,,3017,70.35180664,34.13912964,1,0,0,response1disk,,6,0.754943848,8.373199463,1,0,0,rectangle,0.754943848,8.373199463,1,0,0,0.754943848,8.373199463,1,0,0,0,84,84,99,1,,,,,,,,
,,,,,,,,,,,,,FF,,,,,,,,1.0338,,,,,,,,,,,,,,,,,,,,,,60fcf4962b970932cbdd186b,610370858d4ce36d1951f6ad,2021-07-29_23h26.45.747,Simcolourproject_2stim_asymm_v5,2020.2.10,MacIntel,60,61025ae37ef11b136ea224fe,,,,,,,,,2702,-31.93963623,-77.50921631,1,0,0,response5disk,,3,-7.75769043,0.335571289,1,0,0,rectangle,-7.75769043,0.335571289,1,0,0,-7.75769043,0.335571289,1,0,0,0,85,85,30,1,,,,,,,,
,,,,,,,,,,,,,FF,,,,,,,,2.0518,,,,,,,,,,,,,,,,,,,,,,60fcf4962b970932cbdd186b,610370858d4ce36d1951f6ad,2021-07-29_23h26.45.747,Simcolourproject_2stim_asymm_v5,2020.2.10,MacIntel,60,61025ae37ef11b136ea224fe,,,,,,,,,557,-36.08679199,-70.98278809,1,0,0,response5disk,,3,1.766235352,13.45788574,1,0,0,rectangle,-94.08886719,34.73980713,1,0,0,-14.92236328,-2.450592041,1,0,0,0,86,86,116,1,,response7disk_3,TRUE,1,1,"[147,123,87,225,244,29,197,236,223,174,304,300,37,56,22,181,108,205,16,267]",1.3988,rectangle
,,,,,,,,,,,,,FF,,,,,,,,10.8346,,,,,,,,,,,,,,,,,,,,,,60fcf4962b970932cbdd186b,610370858d4ce36d1951f6ad,2021-07-29_23h26.45.747,Simcolourproject_2stim_asymm_v5,2020.2.10,MacIntel,60,61025ae37ef11b136ea224fe,,,,,,,,,547,81.78442383,47.51904297,1,0,0,response1disk,,6,14.7678833,-8.632537842,1,0,0,rectangle,14.7678833,-8.632537842,1,0,0,14.7678833,-8.632537842,1,0,0,0,87,87,45,1,,,,,,,,
,,,,,,,,,,,,,FF,,,,,,,,5.3339,,,,,,,,,,,,,,,,,,,,,,60fcf4962b970932cbdd186b,610370858d4ce36d1951f6ad,2021-07-29_23h26.45.747,Simcolourproject_2stim_asymm_v5,2020.2.10,MacIntel,60,61025ae37ef11b136ea224fe,,,,,,,,,3861,76.91003418,-35.69262695,1,0,0,response3disk,,5,2.274658203,2.393859863,1,0,0,rectangle,2.274658203,2.393859863,1,0,0,2.274658203,2.393859863,1,0,0,0,88,88,124,1,,,,,,,,
,,,,,,,,,,,,,FF,,,,,,,,2.7515,,,,,,,,,,,,,,,,,,,,,,60fcf4962b970932cbdd186b,610370858d4ce36d1951f6ad,2021-07-29_23h26.45.747,Simcolourproject_2stim_asymm_v5,2020.2.10,MacIntel,60,61025ae37ef11b136ea224fe,,,,,,,,,76,31.51092529,-84.68249512,1,0,0,response3disk,,4,9.41619873,-7.695556641,1,0,0,rectangle,9.41619873,-7.695556641,1,0,0,9.41619873,-7.695556641,1,0,0,0,89,89,145,1,,,,,,,,
,,,,,,,,,,,,,FF,,,,,,,,1.6838,,,,,,,,,,,,,,,,,,,,,,60fcf4962b970932cbdd186b,610370858d4ce36d1951f6ad,2021-07-29_23h26.45.747,Simcolourproject_2stim_asymm_v5,2020.2.10,MacIntel,60,61025ae37ef11b136ea224fe,,,,,,,,,1441,-38.78759766,-84.96490479,1,0,0,response5disk,,3,10.43450928,0.374420166,1,0,0,rectangle,10.43450928,0.374420166,1,0,0,10.43450928,0.374420166,1,0,0,0,90,90,41,1,,,,,,,,
,,,,,,,,,,,,,FF,,,,,,,,1.6004,,,,,,,,,,,,,,,,,,,,,,60fcf4962b970932cbdd186b,610370858d4ce36d1951f6ad,2021-07-29_23h26.45.747,Simcolourproject_2stim_asymm_v5,2020.2.10,MacIntel,60,61025ae37ef11b136ea224fe,,,,,,,,,754,37.35882568,-85.72399902,1,0,0,response3disk,,4,7.594543457,-7.891601563,1,0,0,rectangle,7.594543457,-7.891601563,1,0,0,7.594543457,-7.891601563,1,0,0,0,91,91,17,1,,,,,,,,
,,,,,,,,,,,,,FF,,,,,,,,1.3343,,,,,,,,,,,,,,,,,,,,,,60fcf4962b970932cbdd186b,610370858d4ce36d1951f6ad,2021-07-29_23h26.45.747,Simcolourproject_2stim_asymm_v5,2020.2.10,MacIntel,60,61025ae37ef11b136ea224fe,,,,,,,,,912,88.20275879,-43.33706665,1,0,0,response3disk,,5,13.96002197,-4.025604248,1,0,0,rectangle,13.96002197,-4.025604248,1,0,0,13.96002197,-4.025604248,1,0,0,0,92,92,138,1,,,,,,,,
,,,,,,,,,,,,,FF,,,,,,,,1.4513,,,,,,,,,,,,,,,,,,,,,,60fcf4962b970932cbdd186b,610370858d4ce36d1951f6ad,2021-07-29_23h26.45.747,Simcolourproject_2stim_asymm_v5,2020.2.10,MacIntel,60,61025ae37ef11b136ea224fe,,,,,,,,,4251,-83.55297852,37.61279297,1,0,0,response7disk,,1,-26.11303711,7.804351807,1,0,0,rectangle,-26.11303711,7.804351807,1,0,0,-26.11303711,7.804351807,1,0,0,0,93,93,134,1,,,,,,,,
,,,,,,,,,,,,,FF,,,,,,,,0.8833,,,,,,,,,,,,,,,,,,,,,,60fcf4962b970932cbdd186b,610370858d4ce36d1951f6ad,2021-07-29_23h26.45.747,Simcolourproject_2stim_asymm_v5,2020.2.10,MacIntel,60,61025ae37ef11b136ea224fe,,,,,,,,,1547,87.89086914,-46.82192993,1,0,0,response3disk,,5,12.05615234,1.565826416,1,0,0,rectangle,12.05615234,1.565826416,1,0,0,12.05615234,1.565826416,1,0,0,0,94,94,51,1,,,,,,,,
,,,,,,,,,,,,,FF,,,,,,,,0.9538,,,,,,,,,,,,,,,,,,,,,,60fcf4962b970932cbdd186b,610370858d4ce36d1951f6ad,2021-07-29_23h26.45.747,Simcolourproject_2stim_asymm_v5,2020.2.10,MacIntel,60,61025ae37ef11b136ea224fe,,,,,,,,,1154,77.25579834,-33.12393188,1,0,0,response3disk,,5,17.81933594,5.874206543,1,0,0,rectangle,17.81933594,5.874206543,1,0,0,17.81933594,5.874206543,1,0,0,0,95,95,83,1,,,,,,,,
,,,,,,,,,,,,,FF,,,,,,,,0.7506,,,,,,,,,,,,,,,,,,,,,,60fcf4962b970932cbdd186b,610370858d4ce36d1951f6ad,2021-07-29_23h26.45.747,Simcolourproject_2stim_asymm_v5,2020.2.10,MacIntel,60,61025ae37ef11b136ea224fe,,,,,,,,,2691,90.69049072,-35.72653198,1,0,0,response3disk,,5,0.639221191,-0.152984619,1,0,0,rectangle,0.639221191,-0.152984619,1,0,0,0.639221191,-0.152984619,1,0,0,0,96,96,143,1,,,,,,,,
,,,,,,,,,,,,,FF,,,,,,,,0.8502,,,,,,,,,,,,,,,,,,,,,,60fcf4962b970932cbdd186b,610370858d4ce36d1951f6ad,2021-07-29_23h26.45.747,Simcolourproject_2stim_asymm_v5,2020.2.10,MacIntel,60,61025ae37ef11b136ea224fe,,,,,,,,,1350,90.52587891,-49.26556396,1,0,0,response3disk,,5,22.92578125,-9.792907715,1,0,0,rectangle,22.92578125,-9.792907715,1,0,0,22.92578125,-9.792907715,1,0,0,0,97,97,112,1,,,,,,,,
,,,,,,,,,,,,,FF,,,,,,,,2.9357,,,,,,,,,,,,,,,,,,,,,,60fcf4962b970932cbdd186b,610370858d4ce36d1951f6ad,2021-07-29_23h26.45.747,Simcolourproject_2stim_asymm_v5,2020.2.10,MacIntel,60,61025ae37ef11b136ea224fe,,,,,,,,,382,16.60748291,-87.95129395,1,0,0,response3disk,,4,-0.492797852,9.816345215,1,0,0,rectangle,-0.492797852,9.816345215,1,0,0,-0.492797852,9.816345215,1,0,0,0,98,98,64,1,,,,,,,,
,,,,,,,,,,,,,FF,,,,,,,,0.9492,,,,,,,,,,,,,,,,,,,,,,60fcf4962b970932cbdd186b,610370858d4ce36d1951f6ad,2021-07-29_23h26.45.747,Simcolourproject_2stim_asymm_v5,2020.2.10,MacIntel,60,61025ae37ef11b136ea224fe,,,,,,,,,3232,81.3939209,-40.16430664,1,0,0,response3disk,,5,8.410949707,1.95425415,1,0,0,rectangle,8.410949707,1.95425415,1,0,0,8.410949707,1.95425415,1,0,0,0,99,99,43,1,,,,,,,,
,,,,,,,,,,,,,FF,,,,,,,,0.6649,,,,,,,,,,,,,,,,,,,,,,60fcf4962b970932cbdd186b,610370858d4ce36d1951f6ad,2021-07-29_23h26.45.747,Simcolourproject_2stim_asymm_v5,2020.2.10,MacIntel,60,61025ae37ef11b136ea224fe,,,,,,,,,903,103.3233643,-39.54818726,1,0,0,response3disk,,5,2.49798584,-1.236602783,1,0,0,rectangle,2.49798584,-1.236602783,1,0,0,2.49798584,-1.236602783,1,0,0,0,100,100,110,1,,,,,,,,
,,,,,,,,,,,,,FF,,,,,,,,0.5663,,,,,,,,,,,,,,,,,,,,,,60fcf4962b970932cbdd186b,610370858d4ce36d1951f6ad,2021-07-29_23h26.45.747,Simcolourproject_2stim_asymm_v5,2020.2.10,MacIntel,60,61025ae37ef11b136ea224fe,,,,,,,,,1002,85.63476563,-39.61886597,1,0,0,response3disk,,5,7.325317383,-4.542602539,1,0,0,rectangle,7.325317383,-4.542602539,1,0,0,7.325317383,-4.542602539,1,0,0,0,101,101,13,1,,,,,,,,
,,,,,,,,,,,,,FF,,,,,,,,1.0338,,,,,,,,,,,,,,,,,,,,,,60fcf4962b970932cbdd186b,610370858d4ce36d1951f6ad,2021-07-29_23h26.45.747,Simcolourproject_2stim_asymm_v5,2020.2.10,MacIntel,60,61025ae37ef11b136ea224fe,,,,,,,,,3422,-36.95684814,-72.62286377,1,0,0,response5disk,,3,-6.744262695,-0.634429932,1,0,0,rectangle,-6.744262695,-0.634429932,1,0,0,-6.744262695,-0.634429932,1,0,0,0,102,102,148,1,,,,,,,,
,,,,,,,,,,,,,FF,,,,,,,,0.9341,,,,,,,,,,,,,,,,,,,,,,60fcf4962b970932cbdd186b,610370858d4ce36d1951f6ad,2021-07-29_23h26.45.747,Simcolourproject_2stim_asymm_v5,2020.2.10,MacIntel,60,61025ae37ef11b136ea224fe,,,,,,,,,875,98.31768799,-47.64263916,1,0,0,response3disk,,5,2.715209961,4.017669678,1,0,0,rectangle,2.715209961,4.017669678,1,0,0,2.715209961,4.017669678,1,0,0,0,103,103,21,1,,,,,,,,
,,,,,,,,,,,,,FF,,,,,,,,1.5669,,,,,,,,,,,,,,,,,,,,,,60fcf4962b970932cbdd186b,610370858d4ce36d1951f6ad,2021-07-29_23h26.45.747,Simcolourproject_2stim_asymm_v5,2020.2.10,MacIntel,60,61025ae37ef11b136ea224fe,,,,,,,,,2946,-78.48266602,-45.01739502,1,0,0,response5disk,,2,-24.39483643,-16.15139771,1,0,0,rectangle,-24.39483643,-16.15139771,1,0,0,-24.39483643,-16.15139771,1,0,0,0,104,104,24,1,,,,,,,,
,,,,,,,,,,,,,FF,,,,,,,,1.2483,,,,,,,,,,,,,,,,,,,,,,60fcf4962b970932cbdd186b,610370858d4ce36d1951f6ad,2021-07-29_23h26.45.747,Simcolourproject_2stim_asymm_v5,2020.2.10,MacIntel,60,61025ae37ef11b136ea224fe,,,,,,,,,4014,78.97192383,-36.63787842,1,0,0,response3disk,,5,10.43884277,-0.929992676,1,0,0,rectangle,10.43884277,-0.929992676,1,0,0,10.43884277,-0.929992676,1,0,0,0,105,105,119,1,,,,,,,,
,,,,,,,,,,,,,FF,,,,,,,,1.3007,,,,,,,,,,,,,,,,,,,,,,60fcf4962b970932cbdd186b,610370858d4ce36d1951f6ad,2021-07-29_23h26.45.747,Simcolourproject_2stim_asymm_v5,2020.2.10,MacIntel,60,61025ae37ef11b136ea224fe,,,,,,,,,2249,28.00256348,-86.26202393,1,0,0,response3disk,,4,5.803894043,-3.313201904,1,0,0,rectangle,5.803894043,-3.313201904,1,0,0,5.803894043,-3.313201904,1,0,0,0,106,106,130,1,,,,,,,,
,,,,,,,,,,,,,FF,,,,,,,,1.5167,,,,,,,,,,,,,,,,,,,,,,60fcf4962b970932cbdd186b,610370858d4ce36d1951f6ad,2021-07-29_23h26.45.747,Simcolourproject_2stim_asymm_v5,2020.2.10,MacIntel,60,61025ae37ef11b136ea224fe,,,,,,,,,4080,102.3278198,-49.95397949,1,0,0,response3disk,,5,9.465637207,-7.153106689,1,0,0,rectangle,-24.9788208,71.29818726,1,0,0,0.098266602,2.904907227,1,0,0,0,107,107,27,1,,response7disk_3,TRUE,0,0,"[147,123,87,225,244,29,197,236,223,174,304,300,37,56,22,181,108,205,16,267]",1.3459,rectangle
,,,,,,,,,,,,,FF,,,,,,,,2.5669,,,,,,,,,,,,,,,,,,,,,,60fcf4962b970932cbdd186b,610370858d4ce36d1951f6ad,2021-07-29_23h26.45.747,Simcolourproject_2stim_asymm_v5,2020.2.10,MacIntel,60,61025ae37ef11b136ea224fe,,,,,,,,,914,84.47143555,-49.76434326,1,0,0,response3disk,,5,29.89892578,-10.61218262,1,0,0,rectangle,29.89892578,-10.61218262,1,0,0,29.89892578,-10.61218262,1,0,0,0,108,108,115,1,,,,,,,,
,,,,,,,,,,,,,FF,,,,,,,,1.4186,,,,,,,,,,,,,,,,,,,,,,60fcf4962b970932cbdd186b,610370858d4ce36d1951f6ad,2021-07-29_23h26.45.747,Simcolourproject_2stim_asymm_v5,2020.2.10,MacIntel,60,61025ae37ef11b136ea224fe,,,,,,,,,1714,77.83081055,35.36352539,1,0,0,response1disk,,6,13.93273926,5.407928467,1,0,0,rectangle,13.93273926,5.407928467,1,0,0,13.93273926,5.407928467,1,0,0,0,109,109,91,1,,,,,,,,
,,,,,,,,,,,,,FF,,,,,,,,0.9684,,,,,,,,,,,,,,,,,,,,,,60fcf4962b970932cbdd186b,610370858d4ce36d1951f6ad,2021-07-29_23h26.45.747,Simcolourproject_2stim_asymm_v5,2020.2.10,MacIntel,60,61025ae37ef11b136ea224fe,,,,,,,,,3793,86.15985107,38.88528442,1,0,0,response1disk,,6,15.02471924,9.267974854,1,0,0,rectangle,15.02471924,9.267974854,1,0,0,15.02471924,9.267974854,1,0,0,0,110,110,72,1,,,,,,,,
,,,,,,,,,,,,,FF,,,,,,,,1.1342,,,,,,,,,,,,,,,,,,,,,,60fcf4962b970932cbdd186b,610370858d4ce36d1951f6ad,2021-07-29_23h26.45.747,Simcolourproject_2stim_asymm_v5,2020.2.10,MacIntel,60,61025ae37ef11b136ea224fe,,,,,,,,,2904,47.50427246,77.29205322,1,0,0,response1disk,,7,0.933959961,5.605926514,1,0,0,rectangle,0.933959961,5.605926514,1,0,0,0.933959961,5.605926514,1,0,0,0,111,111,114,1,,,,,,,,
,,,,,,,,,,,,,FF,,,,,,,,1.8836,,,,,,,,,,,,,,,,,,,,,,60fcf4962b970932cbdd186b,610370858d4ce36d1951f6ad,2021-07-29_23h26.45.747,Simcolourproject_2stim_asymm_v5,2020.2.10,MacIntel,60,61025ae37ef11b136ea224fe,,,,,,,,,1921,92.93701172,-28.79989624,1,0,0,response3disk,,5,4.526123047,4.425506592,1,0,0,rectangle,4.526123047,4.425506592,1,0,0,4.526123047,4.425506592,1,0,0,0,112,112,61,1,,,,,,,,
,,,,,,,,,,,,,FF,,,,,,,,2.183,,,,,,,,,,,,,,,,,,,,,,60fcf4962b970932cbdd186b,610370858d4ce36d1951f6ad,2021-07-29_23h26.45.747,Simcolourproject_2stim_asymm_v5,2020.2.10,MacIntel,60,61025ae37ef11b136ea224fe,,,,,,,,,3245,37.15545654,-75.28485107,1,0,0,response3disk,,4,7.349243164,-6.08303833,1,0,0,rectangle,7.349243164,-6.08303833,1,0,0,7.349243164,-6.08303833,1,0,0,0,113,113,57,1,,,,,,,,
,,,,,,,,,,,,,FF,,,,,,,,1.7187,,,,,,,,,,,,,,,,,,,,,,60fcf4962b970932cbdd186b,610370858d4ce36d1951f6ad,2021-07-29_23h26.45.747,Simcolourproject_2stim_asymm_v5,2020.2.10,MacIntel,60,61025ae37ef11b136ea224fe,,,,,,,,,743,98.22015381,-23.04919434,1,0,0,response3disk,,5,19.53857422,4.867767334,1,0,0,rectangle,19.53857422,4.867767334,1,0,0,19.53857422,4.867767334,1,0,0,0,114,114,156,1,,,,,,,,
,,,,,,,,,,,,,FF,,,,,,,,0.8816,,,,,,,,,,,,,,,,,,,,,,60fcf4962b970932cbdd186b,610370858d4ce36d1951f6ad,2021-07-29_23h26.45.747,Simcolourproject_2stim_asymm_v5,2020.2.10,MacIntel,60,61025ae37ef11b136ea224fe,,,,,,,,,3680,76.3817749,-40.40493774,1,0,0,response3disk,,5,-11.06005859,14.97875977,1,0,0,rectangle,-11.06005859,14.97875977,1,0,0,-11.06005859,14.97875977,1,0,0,0,115,115,101,1,,,,,,,,
,,,,,,,,,,,,,FF,,,,,,,,1.4183,,,,,,,,,,,,,,,,,,,,,,60fcf4962b970932cbdd186b,610370858d4ce36d1951f6ad,2021-07-29_23h26.45.747,Simcolourproject_2stim_asymm_v5,2020.2.10,MacIntel,60,61025ae37ef11b136ea224fe,,,,,,,,,1445,-63.62341309,32.00747681,1,0,0,response7disk,,1,-25.52227783,3.386810303,1,0,0,rectangle,-25.52227783,3.386810303,1,0,0,-25.52227783,3.386810303,1,0,0,0,116,116,23,1,,,,,,,,
,,,,,,,,,,,,,FF,,,,,,,,1.0149,,,,,,,,,,,,,,,,,,,,,,60fcf4962b970932cbdd186b,610370858d4ce36d1951f6ad,2021-07-29_23h26.45.747,Simcolourproject_2stim_asymm_v5,2020.2.10,MacIntel,60,61025ae37ef11b136ea224fe,,,,,,,,,3999,-70.15997314,-36.28921509,1,0,0,response5disk,,2,-3.051513672,-6.78326416,1,0,0,rectangle,-3.051513672,-6.78326416,1,0,0,-3.051513672,-6.78326416,1,0,0,0,117,117,54,1,,,,,,,,
,,,,,,,,,,,,,FF,,,,,,,,0.9814,,,,,,,,,,,,,,,,,,,,,,60fcf4962b970932cbdd186b,610370858d4ce36d1951f6ad,2021-07-29_23h26.45.747,Simcolourproject_2stim_asymm_v5,2020.2.10,MacIntel,60,61025ae37ef11b136ea224fe,,,,,,,,,1479,88.00006104,41.31167603,1,0,0,response1disk,,6,8.310791016,6.462738037,1,0,0,rectangle,8.310791016,6.462738037,1,0,0,8.310791016,6.462738037,1,0,0,0,118,118,113,1,,,,,,,,
,,,,,,,,,,,,,FF,,,,,,,,2.6836,,,,,,,,,,,,,,,,,,,,,,60fcf4962b970932cbdd186b,610370858d4ce36d1951f6ad,2021-07-29_23h26.45.747,Simcolourproject_2stim_asymm_v5,2020.2.10,MacIntel,60,61025ae37ef11b136ea224fe,,,,,,,,,1883,104.7944946,-37.36529541,1,0,0,response3disk,,5,11.11462402,-3.927093506,1,0,0,rectangle,11.11462402,-3.927093506,1,0,0,11.11462402,-3.927093506,1,0,0,0,119,119,69,1,,,,,,,,
,,,,,,,,,,,,,FF,,,,,,,,1.6691,,,,,,,,,,,,,,,,,,,,,,60fcf4962b970932cbdd186b,610370858d4ce36d1951f6ad,2021-07-29_23h26.45.747,Simcolourproject_2stim_asymm_v5,2020.2.10,MacIntel,60,61025ae37ef11b136ea224fe,,,,,,,,,1051,-69.45043945,23.0289917,1,0,0,response7disk,,1,-28.91168213,8.617797852,1,0,0,rectangle,-28.91168213,8.617797852,1,0,0,-28.91168213,8.617797852,1,0,0,0,120,120,94,1,,,,,,,,
,,,,,,,,,,,,,FF,,,,,,,,3.8016,,,,,,,,,,,,,,,,,,,,,,60fcf4962b970932cbdd186b,610370858d4ce36d1951f6ad,2021-07-29_23h26.45.747,Simcolourproject_2stim_asymm_v5,2020.2.10,MacIntel,60,61025ae37ef11b136ea224fe,,,,,,,,,1704,24.50762939,-90.40612793,1,0,0,response3disk,,4,-4.606567383,-0.471099854,1,0,0,rectangle,-4.606567383,-0.471099854,1,0,0,-4.606567383,-0.471099854,1,0,0,0,121,121,42,1,,,,,,,,
,,,,,,,,,,,,,FF,,,,,,,,1.2842,,,,,,,,,,,,,,,,,,,,,,60fcf4962b970932cbdd186b,610370858d4ce36d1951f6ad,2021-07-29_23h26.45.747,Simcolourproject_2stim_asymm_v5,2020.2.10,MacIntel,60,61025ae37ef11b136ea224fe,,,,,,,,,4207,-59.62194824,29.47198486,1,0,0,response7disk,,1,-6.63659668,-3.891387939,1,0,0,rectangle,-63.56207275,29.40100098,1,0,0,-6.985900879,0.935668945,1,0,0,0,122,122,48,1,,response7disk_3,TRUE,1,1,"[147,123,87,225,244,29,197,236,223,174,304,300,37,56,22,181,108,205,16,267]",1.2175,rectangle
,,,,,,,,,,,,,FF,,,,,,,,2.8992,,,,,,,,,,,,,,,,,,,,,,60fcf4962b970932cbdd186b,610370858d4ce36d1951f6ad,2021-07-29_23h26.45.747,Simcolourproject_2stim_asymm_v5,2020.2.10,MacIntel,60,61025ae37ef11b136ea224fe,,,,,,,,,2128,98.27856445,-37.3911438,1,0,0,response3disk,,5,18.36505127,3.18182373,1,0,0,rectangle,18.36505127,3.18182373,1,0,0,18.36505127,3.18182373,1,0,0,0,123,123,117,1,,,,,,,,
,,,,,,,,,,,,,FF,,,,,,,,2.2846,,,,,,,,,,,,,,,,,,,,,,60fcf4962b970932cbdd186b,610370858d4ce36d1951f6ad,2021-07-29_23h26.45.747,Simcolourproject_2stim_asymm_v5,2020.2.10,MacIntel,60,61025ae37ef11b136ea224fe,,,,,,,,,1590,-47.95751953,-73.02380371,1,0,0,response5disk,,3,-17.01574707,-14.52584839,1,0,0,rectangle,-17.01574707,-14.52584839,1,0,0,-17.01574707,-14.52584839,1,0,0,0,124,124,126,1,,,,,,,,
,,,,,,,,,,,,,FF,,,,,,,,1.5989,,,,,,,,,,,,,,,,,,,,,,60fcf4962b970932cbdd186b,610370858d4ce36d1951f6ad,2021-07-29_23h26.45.747,Simcolourproject_2stim_asymm_v5,2020.2.10,MacIntel,60,61025ae37ef11b136ea224fe,,,,,,,,,3903,37.73803711,-93.30950928,1,0,0,response3disk,,4,12.39074707,5.174438477,1,0,0,rectangle,12.39074707,5.174438477,1,0,0,12.39074707,5.174438477,1,0,0,0,125,125,58,1,,,,,,,,
,,,,,,,,,,,,,FF,,,,,,,,1.5003,,,,,,,,,,,,,,,,,,,,,,60fcf4962b970932cbdd186b,610370858d4ce36d1951f6ad,2021-07-29_23h26.45.747,Simcolourproject_2stim_asymm_v5,2020.2.10,MacIntel,60,61025ae37ef11b136ea224fe,,,,,,,,,373,-36.53442383,-79.68640137,1,0,0,response5disk,,3,7.355651855,-1.088104248,1,0,0,rectangle,7.355651855,-1.088104248,1,0,0,7.355651855,-1.088104248,1,0,0,0,126,126,82,1,,,,,,,,
,,,,,,,,,,,,,FF,,,,,,,,2.033,,,,,,,,,,,,,,,,,,,,,,60fcf4962b970932cbdd186b,610370858d4ce36d1951f6ad,2021-07-29_23h26.45.747,Simcolourproject_2stim_asymm_v5,2020.2.10,MacIntel,60,61025ae37ef11b136ea224fe,,,,,,,,,721,22.13464355,-61.72314453,1,0,0,response3disk,,4,4.823242188,-7.862731934,1,0,0,rectangle,4.823242188,-7.862731934,1,0,0,4.823242188,-7.862731934,1,0,0,0,127,127,37,1,,,,,,,,
,,,,,,,,,,,,,FF,,,,,,,,0.735,,,,,,,,,,,,,,,,,,,,,,60fcf4962b970932cbdd186b,610370858d4ce36d1951f6ad,2021-07-29_23h26.45.747,Simcolourproject_2stim_asymm_v5,2020.2.10,MacIntel,60,61025ae37ef11b136ea224fe,,,,,,,,,212,85.67657471,-42.06066895,1,0,0,response3disk,,5,8.038513184,-7.36807251,1,0,0,rectangle,8.038513184,-7.36807251,1,0,0,8.038513184,-7.36807251,1,0,0,0,128,128,56,1,,,,,,,,
,,,,,,,,,,,,,FF,,,,,,,,0.6857,,,,,,,,,,,,,,,,,,,,,,60fcf4962b970932cbdd186b,610370858d4ce36d1951f6ad,2021-07-29_23h26.45.747,Simcolourproject_2stim_asymm_v5,2020.2.10,MacIntel,60,61025ae37ef11b136ea224fe,,,,,,,,,2917,91.17169189,-42.67230225,1,0,0,response3disk,,5,13.67114258,-8.38684082,1,0,0,rectangle,13.67114258,-8.38684082,1,0,0,13.67114258,-8.38684082,1,0,0,0,129,129,146,1,,,,,,,,
,,,,,,,,,,,,,FF,,,,,,,,0.8334,,,,,,,,,,,,,,,,,,,,,,60fcf4962b970932cbdd186b,610370858d4ce36d1951f6ad,2021-07-29_23h26.45.747,Simcolourproject_2stim_asymm_v5,2020.2.10,MacIntel,60,61025ae37ef11b136ea224fe,,,,,,,,,3129,88.894104,-34.74612427,1,0,0,response3disk,,5,14.2869873,-3.356018066,1,0,0,rectangle,14.2869873,-3.356018066,1,0,0,14.2869873,-3.356018066,1,0,0,0,130,130,59,1,,,,,,,,
,,,,,,,,,,,,,FF,,,,,,,,1.1173,,,,,,,,,,,,,,,,,,,,,,60fcf4962b970932cbdd186b,610370858d4ce36d1951f6ad,2021-07-29_23h26.45.747,Simcolourproject_2stim_asymm_v5,2020.2.10,MacIntel,60,61025ae37ef11b136ea224fe,,,,,,,,,2190,90.77215576,43.03051758,1,0,0,response1disk,,6,1.867431641,2.176025391,1,0,0,rectangle,1.867431641,2.176025391,1,0,0,1.867431641,2.176025391,1,0,0,0,131,131,157,1,,,,,,,,
,,,,,,,,,,,,,FF,,,,,,,,0.8503,,,,,,,,,,,,,,,,,,,,,,60fcf4962b970932cbdd186b,610370858d4ce36d1951f6ad,2021-07-29_23h26.45.747,Simcolourproject_2stim_asymm_v5,2020.2.10,MacIntel,60,61025ae37ef11b136ea224fe,,,,,,,,,4323,40.12670898,77.62976074,1,0,0,response1disk,,7,12.14013672,0.099273682,1,0,0,rectangle,12.14013672,0.099273682,1,0,0,12.14013672,0.099273682,1,0,0,0,132,132,79,1,,,,,,,,
,,,,,,,,,,,,,FF,,,,,,,,1.6824,,,,,,,,,,,,,,,,,,,,,,60fcf4962b970932cbdd186b,610370858d4ce36d1951f6ad,2021-07-29_23h26.45.747,Simcolourproject_2stim_asymm_v5,2020.2.10,MacIntel,60,61025ae37ef11b136ea224fe,,,,,,,,,1134,-32.3026123,-71.54595947,1,0,0,response5disk,,3,-9.218994141,-12.67346191,1,0,0,rectangle,-9.218994141,-12.67346191,1,0,0,-9.218994141,-12.67346191,1,0,0,0,133,133,18,1,,,,,,,,
,,,,,,,,,,,,,FF,,,,,,,,1.4338,,,,,,,,,,,,,,,,,,,,,,60fcf4962b970932cbdd186b,610370858d4ce36d1951f6ad,2021-07-29_23h26.45.747,Simcolourproject_2stim_asymm_v5,2020.2.10,MacIntel,60,61025ae37ef11b136ea224fe,,,,,,,,,2420,-71.85437012,-46.52868652,1,0,0,response5disk,,2,-16.40313721,-11.25238037,1,0,0,rectangle,-16.40313721,-11.25238037,1,0,0,-16.40313721,-11.25238037,1,0,0,0,134,134,109,1,,,,,,,,
,,,,,,,,,,,,,FF,,,,,,,,1.2529,,,,,,,,,,,,,,,,,,,,,,60fcf4962b970932cbdd186b,610370858d4ce36d1951f6ad,2021-07-29_23h26.45.747,Simcolourproject_2stim_asymm_v5,2020.2.10,MacIntel,60,61025ae37ef11b136ea224fe,,,,,,,,,3187,52.93969727,-78.8682251,1,0,0,response3disk,,4,1.94152832,-8.866943359,1,0,0,rectangle,1.94152832,-8.866943359,1,0,0,1.94152832,-8.866943359,1,0,0,0,135,135,6,1,,,,,,,,
,,,,,,,,,,,,,FF,,,,,,,,2.6172,,,,,,,,,,,,,,,,,,,,,,60fcf4962b970932cbdd186b,610370858d4ce36d1951f6ad,2021-07-29_23h26.45.747,Simcolourproject_2stim_asymm_v5,2020.2.10,MacIntel,60,61025ae37ef11b136ea224fe,,,,,,,,,711,-15.84973145,-80.36187744,1,0,0,response5disk,,3,0.352661133,-1.559051514,1,0,0,rectangle,0.352661133,-1.559051514,1,0,0,0.352661133,-1.559051514,1,0,0,0,136,136,85,1,,,,,,,,
,,,,,,,,,,,,,FF,,,,,,,,1.2345,,,,,,,,,,,,,,,,,,,,,,60fcf4962b970932cbdd186b,610370858d4ce36d1951f6ad,2021-07-29_23h26.45.747,Simcolourproject_2stim_asymm_v5,2020.2.10,MacIntel,60,61025ae37ef11b136ea224fe,,,,,,,,,967,42.35717773,-76.3182373,1,0,0,response3disk,,4,1.783813477,-8.307189941,1,0,0,rectangle,1.783813477,-8.307189941,1,0,0,1.783813477,-8.307189941,1,0,0,0,137,137,55,1,,,,,,,,
,,,,,,,,,,,,,FF,,,,,,,,2.0829,,,,,,,,,,,,,,,,,,,,,,60fcf4962b970932cbdd186b,610370858d4ce36d1951f6ad,2021-07-29_23h26.45.747,Simcolourproject_2stim_asymm_v5,2020.2.10,MacIntel,60,61025ae37ef11b136ea224fe,,,,,,,,,2270,46.39282227,-75.57940674,1,0,0,response3disk,,4,2.776367188,-4.64642334,1,0,0,rectangle,2.776367188,-4.64642334,1,0,0,2.776367188,-4.64642334,1,0,0,0,138,138,147,1,,,,,,,,
,,,,,,,,,,,,,FF,,,,,,,,2.2842,,,,,,,,,,,,,,,,,,,,,,60fcf4962b970932cbdd186b,610370858d4ce36d1951f6ad,2021-07-29_23h26.45.747,Simcolourproject_2stim_asymm_v5,2020.2.10,MacIntel,60,61025ae37ef11b136ea224fe,,,,,,,,,1240,39.76062012,-86.71148682,1,0,0,response3disk,,4,0.316650391,0.761627197,1,0,0,rectangle,0.316650391,0.761627197,1,0,0,0.316650391,0.761627197,1,0,0,0,139,139,89,1,,,,,,,,
,,,,,,,,,,,,,FF,,,,,,,,1.9177,,,,,,,,,,,,,,,,,,,,,,60fcf4962b970932cbdd186b,610370858d4ce36d1951f6ad,2021-07-29_23h26.45.747,Simcolourproject_2stim_asymm_v5,2020.2.10,MacIntel,60,61025ae37ef11b136ea224fe,,,,,,,,,2418,-73.97406006,36.4937439,1,0,0,response7disk,,1,-14.43676758,11.80981445,1,0,0,rectangle,-14.43676758,11.80981445,1,0,0,-14.43676758,11.80981445,1,0,0,0,140,140,32,1,,,,,,,,
,,,,,,,,,,,,,FF,,,,,,,,1.6836,,,,,,,,,,,,,,,,,,,,,,60fcf4962b970932cbdd186b,610370858d4ce36d1951f6ad,2021-07-29_23h26.45.747,Simcolourproject_2stim_asymm_v5,2020.2.10,MacIntel,60,61025ae37ef11b136ea224fe,,,,,,,,,694,-21.4286499,-82.34771729,1,0,0,response5disk,,3,2.350219727,-3.200134277,1,0,0,rectangle,2.350219727,-3.200134277,1,0,0,2.350219727,-3.200134277,1,0,0,0,141,141,152,1,,,,,,,,
,,,,,,,,,,,,,FF,,,,,,,,1.1698,,,,,,,,,,,,,,,,,,,,,,60fcf4962b970932cbdd186b,610370858d4ce36d1951f6ad,2021-07-29_23h26.45.747,Simcolourproject_2stim_asymm_v5,2020.2.10,MacIntel,60,61025ae37ef11b136ea224fe,,,,,,,,,3032,89.14837646,-58.29428101,1,0,0,response3disk,,5,6.831787109,-4.790008545,1,0,0,rectangle,6.831787109,-4.790008545,1,0,0,6.831787109,-4.790008545,1,0,0,0,142,142,4,1,,,,,,,,
,,,,,,,,,,,,,FF,,,,,,,,1.1185,,,,,,,,,,,,,,,,,,,,,,60fcf4962b970932cbdd186b,610370858d4ce36d1951f6ad,2021-07-29_23h26.45.747,Simcolourproject_2stim_asymm_v5,2020.2.10,MacIntel,60,61025ae37ef11b136ea224fe,,,,,,,,,704,-40.48669434,-68.96734619,1,0,0,response5disk,,3,-3.318481445,-12.76898193,1,0,0,rectangle,-3.318481445,-12.76898193,1,0,0,-3.318481445,-12.76898193,1,0,0,0,143,143,139,1,,,,,,,,
,,,,,,,,,,,,,FF,,,,,,,,0.7514,,,,,,,,,,,,,,,,,,,,,,60fcf4962b970932cbdd186b,610370858d4ce36d1951f6ad,2021-07-29_23h26.45.747,Simcolourproject_2stim_asymm_v5,2020.2.10,MacIntel,60,61025ae37ef11b136ea224fe,,,,,,,,,4010,102.0886841,-39.26303101,1,0,0,response3disk,,5,7.617675781,-2.218719482,1,0,0,rectangle,7.617675781,-2.218719482,1,0,0,7.617675781,-2.218719482,1,0,0,0,144,144,67,1,,,,,,,,
,,,,,,,,,,,,,FF,,,,,,,,1.7664,,,,,,,,,,,,,,,,,,,,,,60fcf4962b970932cbdd186b,610370858d4ce36d1951f6ad,2021-07-29_23h26.45.747,Simcolourproject_2stim_asymm_v5,2020.2.10,MacIntel,60,61025ae37ef11b136ea224fe,,,,,,,,,2216,51.41522217,-82.1282959,1,0,0,response3disk,,4,-6.511779785,2.330932617,1,0,0,rectangle,-6.511779785,2.330932617,1,0,0,-6.511779785,2.330932617,1,0,0,0,145,145,149,1,,,,,,,,
,,,,,,,,,,,,,FF,,,,,,,,0.8323,,,,,,,,,,,,,,,,,,,,,,60fcf4962b970932cbdd186b,610370858d4ce36d1951f6ad,2021-07-29_23h26.45.747,Simcolourproject_2stim_asymm_v5,2020.2.10,MacIntel,60,61025ae37ef11b136ea224fe,,,,,,,,,4352,-30.93273926,-81.54754639,1,0,0,response5disk,,3,-10.17358398,-14.64151001,1,0,0,rectangle,-37.90545654,93.57119751,1,0,0,4.725891113,-2.339019775,1,0,0,0,146,146,31,1,,response7disk_3,TRUE,0,0,"[147,123,87,225,244,29,197,236,223,174,304,300,37,56,22,181,108,205,16,267]",1.2492,rectangle
,,,,,,,,,,,,,FF,,,,,,,,1.7205,,,,,,,,,,,,,,,,,,,,,,60fcf4962b970932cbdd186b,610370858d4ce36d1951f6ad,2021-07-29_23h26.45.747,Simcolourproject_2stim_asymm_v5,2020.2.10,MacIntel,60,61025ae37ef11b136ea224fe,,,,,,,,,3829,52.14074707,-90.69561768,1,0,0,response3disk,,4,13.12988281,8.107055664,1,0,0,rectangle,13.12988281,8.107055664,1,0,0,13.12988281,8.107055664,1,0,0,0,147,147,34,1,,,,,,,,
,,,,,,,,,,,,,FF,,,,,,,,1.1856,,,,,,,,,,,,,,,,,,,,,,60fcf4962b970932cbdd186b,610370858d4ce36d1951f6ad,2021-07-29_23h26.45.747,Simcolourproject_2stim_asymm_v5,2020.2.10,MacIntel,60,61025ae37ef11b136ea224fe,,,,,,,,,4226,35.14324951,-83.52020264,1,0,0,response3disk,,4,16.55175781,-11.73522949,1,0,0,rectangle,16.55175781,-11.73522949,1,0,0,16.55175781,-11.73522949,1,0,0,0,148,148,142,1,,,,,,,,
,,,,,,,,,,,,,FF,,,,,,,,0.7501,,,,,,,,,,,,,,,,,,,,,,60fcf4962b970932cbdd186b,610370858d4ce36d1951f6ad,2021-07-29_23h26.45.747,Simcolourproject_2stim_asymm_v5,2020.2.10,MacIntel,60,61025ae37ef11b136ea224fe,,,,,,,,,467,75.01385498,-47.25976563,1,0,0,response3disk,,5,15.72357178,-11.50592041,1,0,0,rectangle,15.72357178,-11.50592041,1,0,0,15.72357178,-11.50592041,1,0,0,0,149,149,154,1,,,,,,,,
,,,,,,,,,,,,,FF,,,,,,,,1.017,,,,,,,,,,,,,,,,,,,,,,60fcf4962b970932cbdd186b,610370858d4ce36d1951f6ad,2021-07-29_23h26.45.747,Simcolourproject_2stim_asymm_v5,2020.2.10,MacIntel,60,61025ae37ef11b136ea224fe,,,,,,,,,580,62.65338135,-29.95578003,1,0,0,response3disk,,5,8.265014648,-2.514068604,1,0,0,rectangle,8.265014648,-2.514068604,1,0,0,8.265014648,-2.514068604,1,0,0,0,150,150,95,1,,,,,,,,
,,,,,,,,,,,,,FF,,,,,,,,1.2018,,,,,,,,,,,,,,,,,,,,,,60fcf4962b970932cbdd186b,610370858d4ce36d1951f6ad,2021-07-29_23h26.45.747,Simcolourproject_2stim_asymm_v5,2020.2.10,MacIntel,60,61025ae37ef11b136ea224fe,,,,,,,,,74,27.00756836,-84.58959961,1,0,0,response3disk,,4,-7.700683594,2.573944092,1,0,0,rectangle,-7.700683594,2.573944092,1,0,0,-7.700683594,2.573944092,1,0,0,0,151,151,74,1,,,,,,,,
,,,,,,,,,,,,,FF,,,,,,,,1.1672,,,,,,,,,,,,,,,,,,,,,,60fcf4962b970932cbdd186b,610370858d4ce36d1951f6ad,2021-07-29_23h26.45.747,Simcolourproject_2stim_asymm_v5,2020.2.10,MacIntel,60,61025ae37ef11b136ea224fe,,,,,,,,,3328,45.3192749,-90.40734863,1,0,0,response3disk,,4,3.165771484,-6.451446533,1,0,0,rectangle,3.165771484,-6.451446533,1,0,0,3.165771484,-6.451446533,1,0,0,0,152,152,12,1,,,,,,,,
,,,,,,,,,,,,,FF,,,,,,,,0.9999,,,,,,,,,,,,,,,,,,,,,,60fcf4962b970932cbdd186b,610370858d4ce36d1951f6ad,2021-07-29_23h26.45.747,Simcolourproject_2stim_asymm_v5,2020.2.10,MacIntel,60,61025ae37ef11b136ea224fe,,,,,,,,,1830,-25.04345703,-68.70617676,1,0,0,response5disk,,3,2.710571289,-12.12466431,1,0,0,rectangle,2.710571289,-12.12466431,1,0,0,2.710571289,-12.12466431,1,0,0,0,153,153,102,1,,,,,,,,
,,,,,,,,,,,,,FF,,,,,,,,0.8675,,,,,,,,,,,,,,,,,,,,,,60fcf4962b970932cbdd186b,610370858d4ce36d1951f6ad,2021-07-29_23h26.45.747,Simcolourproject_2stim_asymm_v5,2020.2.10,MacIntel,60,61025ae37ef11b136ea224fe,,,,,,,,,871,33.35327148,-80.48443604,1,0,0,response3disk,,4,17.61950684,-1.452697754,1,0,0,rectangle,17.61950684,-1.452697754,1,0,0,17.61950684,-1.452697754,1,0,0,0,154,154,75,1,,,,,,,,
,,,,,,,,,,,,,FF,,,,,,,,0.8333,,,,,,,,,,,,,,,,,,,,,,60fcf4962b970932cbdd186b,610370858d4ce36d1951f6ad,2021-07-29_23h26.45.747,Simcolourproject_2stim_asymm_v5,2020.2.10,MacIntel,60,61025ae37ef11b136ea224fe,,,,,,,,,1434,39.55090332,-76.5534668,1,0,0,response3disk,,4,18.34997559,-10.9972229,1,0,0,rectangle,18.34997559,-10.9972229,1,0,0,18.34997559,-10.9972229,1,0,0,0,155,155,68,1,,,,,,,,
,,,,,,,,,,,,,FF,,,,,,,,1.0008,,,,,,,,,,,,,,,,,,,,,,60fcf4962b970932cbdd186b,610370858d4ce36d1951f6ad,2021-07-29_23h26.45.747,Simcolourproject_2stim_asymm_v5,2020.2.10,MacIntel,60,61025ae37ef11b136ea224fe,,,,,,,,,2325,62.40032959,29.90509033,1,0,0,response1disk,,6,20.21954346,11.85809326,1,0,0,rectangle,20.21954346,11.85809326,1,0,0,20.21954346,11.85809326,1,0,0,0,156,156,38,1,,,,,,,,
,,,,,,,,,,,,,FF,,,,,,,,2.2673,,,,,,,,,,,,,,,,,,,,,,60fcf4962b970932cbdd186b,610370858d4ce36d1951f6ad,2021-07-29_23h26.45.747,Simcolourproject_2stim_asymm_v5,2020.2.10,MacIntel,60,61025ae37ef11b136ea224fe,,,,,,,,,3402,-29.96398926,-79.02716064,1,0,0,response5disk,,3,-1.552124023,2.143280029,1,0,0,rectangle,-1.552124023,2.143280029,1,0,0,-1.552124023,2.143280029,1,0,0,0,157,157,16,1,,,,,,,,
,,,,,,,,,,,,,FF,,,,,,,,0.9003,,,,,,,,,,,,,,,,,,,,,,60fcf4962b970932cbdd186b,610370858d4ce36d1951f6ad,2021-07-29_23h26.45.747,Simcolourproject_2stim_asymm_v5,2020.2.10,MacIntel,60,61025ae37ef11b136ea224fe,,,,,,,,,2173,88.13806152,-40.89126587,1,0,0,response3disk,,5,10.73999023,-5.317169189,1,0,0,rectangle,10.73999023,-5.317169189,1,0,0,10.73999023,-5.317169189,1,0,0,0,158,158,150,1,,,,,,,,
,,,,,,,,,,,,,FF,,,,,,,,1.0172,,,,,,,,,,,,,,,,,,,,,,60fcf4962b970932cbdd186b,610370858d4ce36d1951f6ad,2021-07-29_23h26.45.747,Simcolourproject_2stim_asymm_v5,2020.2.10,MacIntel,60,61025ae37ef11b136ea224fe,,,,,,,,,170,-67.96813965,-39.28433228,1,0,0,response5disk,,2,-6.555664063,-15.22546387,1,0,0,rectangle,-6.555664063,-15.22546387,1,0,0,-6.555664063,-15.22546387,1,0,0,0,159,159,88,1,,,,,,,,
,,,,,,,,,,,,,FF,,,,,,,,2.8168,,,,,,,,,,,,,,,,,,,,,,60fcf4962b970932cbdd186b,610370858d4ce36d1951f6ad,2021-07-29_23h26.45.747,Simcolourproject_2stim_asymm_v5,2020.2.10,MacIntel,60,61025ae37ef11b136ea224fe,,,,,,,,,1606,32.9453125,-81.43359375,1,0,0,response3disk,,4,2.578186035,-1.289794922,1,0,0,rectangle,2.578186035,-1.289794922,1,0,0,2.578186035,-1.289794922,1,0,0,1,0,160,124,1,,,,,,,,
,,,,,,,,,,,,,FF,,,,,,,,4.8337,,,,,,,,,,,,,,,,,,,,,,60fcf4962b970932cbdd186b,610370858d4ce36d1951f6ad,2021-07-29_23h26.45.747,Simcolourproject_2stim_asymm_v5,2020.2.10,MacIntel,60,61025ae37ef11b136ea224fe,,,,,,,,,2363,-32.99035645,-62.53497314,1,0,0,response5disk,,3,-1.368286133,-11.50610352,1,0,0,rectangle,-1.368286133,-11.50610352,1,0,0,-1.368286133,-11.50610352,1,0,0,1,1,161,36,1,,,,,,,,
,,,,,,,,,,,,,FF,,,,,,,,0.9839,,,,,,,,,,,,,,,,,,,,,,60fcf4962b970932cbdd186b,610370858d4ce36d1951f6ad,2021-07-29_23h26.45.747,Simcolourproject_2stim_asymm_v5,2020.2.10,MacIntel,60,61025ae37ef11b136ea224fe,,,,,,,,,1981,102.5496826,-45.37173462,1,0,0,response3disk,,5,10.08831787,6.459869385,1,0,0,rectangle,10.08831787,6.459869385,1,0,0,10.08831787,6.459869385,1,0,0,1,2,162,114,1,,,,,,,,
,,,,,,,,,,,,,FF,,,,,,,,1.8332,,,,,,,,,,,,,,,,,,,,,,60fcf4962b970932cbdd186b,610370858d4ce36d1951f6ad,2021-07-29_23h26.45.747,Simcolourproject_2stim_asymm_v5,2020.2.10,MacIntel,60,61025ae37ef11b136ea224fe,,,,,,,,,2414,82.20275879,-40.31158447,1,0,0,response3disk,,5,11.72320557,-10.11868286,1,0,0,rectangle,11.72320557,-10.11868286,1,0,0,11.72320557,-10.11868286,1,0,0,1,3,163,78,1,,,,,,,,
,,,,,,,,,,,,,FF,,,,,,,,1.7482,,,,,,,,,,,,,,,,,,,,,,60fcf4962b970932cbdd186b,610370858d4ce36d1951f6ad,2021-07-29_23h26.45.747,Simcolourproject_2stim_asymm_v5,2020.2.10,MacIntel,60,61025ae37ef11b136ea224fe,,,,,,,,,3808,46.03198242,-74.85015869,1,0,0,response3disk,,4,9.099365234,-4.503967285,1,0,0,rectangle,9.099365234,-4.503967285,1,0,0,9.099365234,-4.503967285,1,0,0,1,4,164,97,1,,,,,,,,
,,,,,,,,,,,,,FF,,,,,,,,3.3016,,,,,,,,,,,,,,,,,,,,,,60fcf4962b970932cbdd186b,610370858d4ce36d1951f6ad,2021-07-29_23h26.45.747,Simcolourproject_2stim_asymm_v5,2020.2.10,MacIntel,60,61025ae37ef11b136ea224fe,,,,,,,,,3252,-19.99505615,-65.85681152,1,0,0,response5disk,,3,-3.251159668,-5.689453125,1,0,0,rectangle,-3.251159668,-5.689453125,1,0,0,-3.251159668,-5.689453125,1,0,0,1,5,165,104,1,,,,,,,,
,,,,,,,,,,,,,FF,,,,,,,,0.9,,,,,,,,,,,,,,,,,,,,,,60fcf4962b970932cbdd186b,610370858d4ce36d1951f6ad,2021-07-29_23h26.45.747,Simcolourproject_2stim_asymm_v5,2020.2.10,MacIntel,60,61025ae37ef11b136ea224fe,,,,,,,,,1199,87.60516357,-57.69570923,1,0,0,response3disk,,5,18.95074463,-9.052093506,1,0,0,rectangle,18.95074463,-9.052093506,1,0,0,18.95074463,-9.052093506,1,0,0,1,6,166,121,1,,,,,,,,
,,,,,,,,,,,,,FF,,,,,,,,0.9004,,,,,,,,,,,,,,,,,,,,,,60fcf4962b970932cbdd186b,610370858d4ce36d1951f6ad,2021-07-29_23h26.45.747,Simcolourproject_2stim_asymm_v5,2020.2.10,MacIntel,60,61025ae37ef11b136ea224fe,,,,,,,,,2562,76.16650391,-46.76086426,1,0,0,response3disk,,5,3.581481934,3.163513184,1,0,0,rectangle,3.581481934,3.163513184,1,0,0,3.581481934,3.163513184,1,0,0,1,7,167,55,1,,,,,,,,
,,,,,,,,,,,,,FF,,,,,,,,1.2144,,,,,,,,,,,,,,,,,,,,,,60fcf4962b970932cbdd186b,610370858d4ce36d1951f6ad,2021-07-29_23h26.45.747,Simcolourproject_2stim_asymm_v5,2020.2.10,MacIntel,60,61025ae37ef11b136ea224fe,,,,,,,,,2692,89.11645508,27.05758667,1,0,0,response1disk,,6,5.600097656,13.98001099,1,0,0,rectangle,5.600097656,13.98001099,1,0,0,5.600097656,13.98001099,1,0,0,1,8,168,21,1,,,,,,,,
,,,,,,,,,,,,,FF,,,,,,,,0.7319,,,,,,,,,,,,,,,,,,,,,,60fcf4962b970932cbdd186b,610370858d4ce36d1951f6ad,2021-07-29_23h26.45.747,Simcolourproject_2stim_asymm_v5,2020.2.10,MacIntel,60,61025ae37ef11b136ea224fe,,,,,,,,,1532,70.94677734,-34.48150635,1,0,0,response3disk,,5,12.18829346,-1.919677734,1,0,0,rectangle,12.18829346,-1.919677734,1,0,0,12.18829346,-1.919677734,1,0,0,1,9,169,76,1,,,,,,,,
,,,,,,,,,,,,,FF,,,,,,,,0.7998,,,,,,,,,,,,,,,,,,,,,,60fcf4962b970932cbdd186b,610370858d4ce36d1951f6ad,2021-07-29_23h26.45.747,Simcolourproject_2stim_asymm_v5,2020.2.10,MacIntel,60,61025ae37ef11b136ea224fe,,,,,,,,,2067,95.39434814,40.45651245,1,0,0,response1disk,,6,12.3963623,1.989715576,1,0,0,rectangle,12.3963623,1.989715576,1,0,0,12.3963623,1.989715576,1,0,0,1,10,170,123,1,,,,,,,,
,,,,,,,,,,,,,FF,,,,,,,,0.7851,,,,,,,,,,,,,,,,,,,,,,60fcf4962b970932cbdd186b,610370858d4ce36d1951f6ad,2021-07-29_23h26.45.747,Simcolourproject_2stim_asymm_v5,2020.2.10,MacIntel,60,61025ae37ef11b136ea224fe,,,,,,,,,4111,90.69451904,-38.55224609,1,0,0,response3disk,,5,-1.94329834,7.852935791,1,0,0,rectangle,-1.94329834,7.852935791,1,0,0,-1.94329834,7.852935791,1,0,0,1,11,171,109,1,,,,,,,,
,,,,,,,,,,,,,FF,,,,,,,,0.7166,,,,,,,,,,,,,,,,,,,,,,60fcf4962b970932cbdd186b,610370858d4ce36d1951f6ad,2021-07-29_23h26.45.747,Simcolourproject_2stim_asymm_v5,2020.2.10,MacIntel,60,61025ae37ef11b136ea224fe,,,,,,,,,3489,71.40228271,47.0317688,1,0,0,response1disk,,6,21.51928711,10.57781982,1,0,0,rectangle,21.51928711,10.57781982,1,0,0,21.51928711,10.57781982,1,0,0,1,12,172,130,1,,,,,,,,
,,,,,,,,,,,,,FF,,,,,,,,0.9004,,,,,,,,,,,,,,,,,,,,,,60fcf4962b970932cbdd186b,610370858d4ce36d1951f6ad,2021-07-29_23h26.45.747,Simcolourproject_2stim_asymm_v5,2020.2.10,MacIntel,60,61025ae37ef11b136ea224fe,,,,,,,,,507,34.02105713,72.99740601,1,0,0,response1disk,,7,13.95690918,-0.696563721,1,0,0,rectangle,-39.35150146,71.72506714,1,0,0,8.09161377,-3.517486572,1,0,0,1,13,173,10,1,,response7disk_3,TRUE,0,0,"[147,123,87,225,244,29,197,236,223,174,304,300,37,56,22,181,108,205,16,267]",1.3502,rectangle
,,,,,,,,,,,,,FF,,,,,,,,1.1844,,,,,,,,,,,,,,,,,,,,,,60fcf4962b970932cbdd186b,610370858d4ce36d1951f6ad,2021-07-29_23h26.45.747,Simcolourproject_2stim_asymm_v5,2020.2.10,MacIntel,60,61025ae37ef11b136ea224fe,,,,,,,,,2584,56.54534912,-90.65423584,1,0,0,response3disk,,4,10.91296387,-8.690582275,1,0,0,rectangle,10.91296387,-8.690582275,1,0,0,10.91296387,-8.690582275,1,0,0,1,14,174,40,1,,,,,,,,
,,,,,,,,,,,,,FF,,,,,,,,1.5001,,,,,,,,,,,,,,,,,,,,,,60fcf4962b970932cbdd186b,610370858d4ce36d1951f6ad,2021-07-29_23h26.45.747,Simcolourproject_2stim_asymm_v5,2020.2.10,MacIntel,60,61025ae37ef11b136ea224fe,,,,,,,,,2063,88.33477783,-45.96057129,1,0,0,response3disk,,5,11.76623535,5.282501221,1,0,0,rectangle,11.76623535,5.282501221,1,0,0,11.76623535,5.282501221,1,0,0,1,15,175,147,1,,,,,,,,
,,,,,,,,,,,,,FF,,,,,,,,0.8525,,,,,,,,,,,,,,,,,,,,,,60fcf4962b970932cbdd186b,610370858d4ce36d1951f6ad,2021-07-29_23h26.45.747,Simcolourproject_2stim_asymm_v5,2020.2.10,MacIntel,60,61025ae37ef11b136ea224fe,,,,,,,,,2022,71.8918457,33.13812256,1,0,0,response1disk,,6,20.16809082,-2.907012939,1,0,0,rectangle,20.16809082,-2.907012939,1,0,0,20.16809082,-2.907012939,1,0,0,1,16,176,28,1,,,,,,,,
,,,,,,,,,,,,,FF,,,,,,,,0.8507,,,,,,,,,,,,,,,,,,,,,,60fcf4962b970932cbdd186b,610370858d4ce36d1951f6ad,2021-07-29_23h26.45.747,Simcolourproject_2stim_asymm_v5,2020.2.10,MacIntel,60,61025ae37ef11b136ea224fe,,,,,,,,,1274,96.05438232,-41.49798584,1,0,0,response3disk,,5,17.50604248,-12.6711731,1,0,0,rectangle,17.50604248,-12.6711731,1,0,0,17.50604248,-12.6711731,1,0,0,1,17,177,15,1,,,,,,,,
,,,,,,,,,,,,,FF,,,,,,,,1.4668,,,,,,,,,,,,,,,,,,,,,,60fcf4962b970932cbdd186b,610370858d4ce36d1951f6ad,2021-07-29_23h26.45.747,Simcolourproject_2stim_asymm_v5,2020.2.10,MacIntel,60,61025ae37ef11b136ea224fe,,,,,,,,,3140,-40.45062256,-78.79846191,1,0,0,response5disk,,3,-12.56542969,-0.033996582,1,0,0,rectangle,-12.56542969,-0.033996582,1,0,0,-12.56542969,-0.033996582,1,0,0,1,18,178,53,1,,,,,,,,
,,,,,,,,,,,,,FF,,,,,,,,0.9523,,,,,,,,,,,,,,,,,,,,,,60fcf4962b970932cbdd186b,610370858d4ce36d1951f6ad,2021-07-29_23h26.45.747,Simcolourproject_2stim_asymm_v5,2020.2.10,MacIntel,60,61025ae37ef11b136ea224fe,,,,,,,,,3928,34.1328125,79.78112793,1,0,0,response1disk,,7,4.682373047,8.914428711,1,0,0,rectangle,4.682373047,8.914428711,1,0,0,4.682373047,8.914428711,1,0,0,1,19,179,135,1,,,,,,,,
,,,,,,,,,,,,,FF,,,,,,,,1.9834,,,,,,,,,,,,,,,,,,,,,,60fcf4962b970932cbdd186b,610370858d4ce36d1951f6ad,2021-07-29_23h26.45.747,Simcolourproject_2stim_asymm_v5,2020.2.10,MacIntel,60,61025ae37ef11b136ea224fe,,,,,,,,,3615,88.99041748,-46.40411377,1,0,0,response3disk,,5,-0.313720703,-5.02166748,1,0,0,rectangle,88.84881592,-34.92349243,1,0,0,-5.322387695,-6.328826904,1,0,0,1,20,180,125,1,,response3disk_3,TRUE,5,5,"[147,123,87,225,244,29,197,236,223,174,304,300,37,56,22,181,108,205,16,267]",1.233,rectangle
,,,,,,,,,,,,,FF,,,,,,,,2.9678,,,,,,,,,,,,,,,,,,,,,,60fcf4962b970932cbdd186b,610370858d4ce36d1951f6ad,2021-07-29_23h26.45.747,Simcolourproject_2stim_asymm_v5,2020.2.10,MacIntel,60,61025ae37ef11b136ea224fe,,,,,,,,,1277,87.87158203,34.48352051,1,0,0,response1disk,,6,13.36987305,17.79370117,1,0,0,rectangle,13.36987305,17.79370117,1,0,0,13.36987305,17.79370117,1,0,0,1,21,181,62,1,,,,,,,,
,,,,,,,,,,,,,FF,,,,,,,,1.0661,,,,,,,,,,,,,,,,,,,,,,60fcf4962b970932cbdd186b,610370858d4ce36d1951f6ad,2021-07-29_23h26.45.747,Simcolourproject_2stim_asymm_v5,2020.2.10,MacIntel,60,61025ae37ef11b136ea224fe,,,,,,,,,1286,33.84838867,-68.24328613,1,0,0,response3disk,,4,-14.58758545,6.766326904,1,0,0,rectangle,-14.58758545,6.766326904,1,0,0,-14.58758545,6.766326904,1,0,0,1,22,182,103,1,,,,,,,,
,,,,,,,,,,,,,FF,,,,,,,,0.851,,,,,,,,,,,,,,,,,,,,,,60fcf4962b970932cbdd186b,610370858d4ce36d1951f6ad,2021-07-29_23h26.45.747,Simcolourproject_2stim_asymm_v5,2020.2.10,MacIntel,60,61025ae37ef11b136ea224fe,,,,,,,,,2979,61.30938721,16.47680664,1,0,0,response1disk,,6,11.69610596,6.523223877,1,0,0,rectangle,11.69610596,6.523223877,1,0,0,11.69610596,6.523223877,1,0,0,1,23,183,150,1,,,,,,,,
,,,,,,,,,,,,,FF,,,,,,,,0.8669,,,,,,,,,,,,,,,,,,,,,,60fcf4962b970932cbdd186b,610370858d4ce36d1951f6ad,2021-07-29_23h26.45.747,Simcolourproject_2stim_asymm_v5,2020.2.10,MacIntel,60,61025ae37ef11b136ea224fe,,,,,,,,,1481,115.5737305,-50.84481812,1,0,0,response3disk,,5,13.84674072,-5.587158203,1,0,0,rectangle,13.84674072,-5.587158203,1,0,0,13.84674072,-5.587158203,1,0,0,1,24,184,113,1,,,,,,,,
,,,,,,,,,,,,,FF,,,,,,,,1.586,,,,,,,,,,,,,,,,,,,,,,60fcf4962b970932cbdd186b,610370858d4ce36d1951f6ad,2021-07-29_23h26.45.747,Simcolourproject_2stim_asymm_v5,2020.2.10,MacIntel,60,61025ae37ef11b136ea224fe,,,,,,,,,2746,104.3745117,-54.28564453,1,0,0,response3disk,,5,-6.026550293,2.84677124,1,0,0,rectangle,-6.026550293,2.84677124,1,0,0,-6.026550293,2.84677124,1,0,0,1,25,185,131,1,,,,,,,,
,,,,,,,,,,,,,FF,,,,,,,,0.7479,,,,,,,,,,,,,,,,,,,,,,60fcf4962b970932cbdd186b,610370858d4ce36d1951f6ad,2021-07-29_23h26.45.747,Simcolourproject_2stim_asymm_v5,2020.2.10,MacIntel,60,61025ae37ef11b136ea224fe,,,,,,,,,1266,55.9934082,24.48138428,1,0,0,response1disk,,6,-3.479980469,1.051757813,1,0,0,rectangle,-3.479980469,1.051757813,1,0,0,-3.479980469,1.051757813,1,0,0,1,26,186,70,1,,,,,,,,
,,,,,,,,,,,,,FF,,,,,,,,1.4343,,,,,,,,,,,,,,,,,,,,,,60fcf4962b970932cbdd186b,610370858d4ce36d1951f6ad,2021-07-29_23h26.45.747,Simcolourproject_2stim_asymm_v5,2020.2.10,MacIntel,60,61025ae37ef11b136ea224fe,,,,,,,,,619,-32.42456055,-90.64526367,1,0,0,response5disk,,3,-17.40454102,-14.54153442,1,0,0,rectangle,-17.40454102,-14.54153442,1,0,0,-17.40454102,-14.54153442,1,0,0,1,27,187,95,1,,,,,,,,
,,,,,,,,,,,,,FF,,,,,,,,0.835,,,,,,,,,,,,,,,,,,,,,,60fcf4962b970932cbdd186b,610370858d4ce36d1951f6ad,2021-07-29_23h26.45.747,Simcolourproject_2stim_asymm_v5,2020.2.10,MacIntel,60,61025ae37ef11b136ea224fe,,,,,,,,,3322,78.97015381,45.94534302,1,0,0,response1disk,,6,20.30975342,7.632171631,1,0,0,rectangle,20.30975342,7.632171631,1,0,0,20.30975342,7.632171631,1,0,0,1,28,188,87,1,,,,,,,,
,,,,,,,,,,,,,FF,,,,,,,,1.25,,,,,,,,,,,,,,,,,,,,,,60fcf4962b970932cbdd186b,610370858d4ce36d1951f6ad,2021-07-29_23h26.45.747,Simcolourproject_2stim_asymm_v5,2020.2.10,MacIntel,60,61025ae37ef11b136ea224fe,,,,,,,,,29,57.91723633,32.13232422,1,0,0,response1disk,,6,11.67626953,9.167572021,1,0,0,rectangle,11.67626953,9.167572021,1,0,0,11.67626953,9.167572021,1,0,0,1,29,189,101,1,,,,,,,,
,,,,,,,,,,,,,FF,,,,,,,,0.652,,,,,,,,,,,,,,,,,,,,,,60fcf4962b970932cbdd186b,610370858d4ce36d1951f6ad,2021-07-29_23h26.45.747,Simcolourproject_2stim_asymm_v5,2020.2.10,MacIntel,60,61025ae37ef11b136ea224fe,,,,,,,,,756,82.34631348,-29.64196777,1,0,0,response3disk,,5,19.24780273,0.245697021,1,0,0,rectangle,19.24780273,0.245697021,1,0,0,19.24780273,0.245697021,1,0,0,1,30,190,69,1,,,,,,,,
,,,,,,,,,,,,,FF,,,,,,,,1.6665,,,,,,,,,,,,,,,,,,,,,,60fcf4962b970932cbdd186b,610370858d4ce36d1951f6ad,2021-07-29_23h26.45.747,Simcolourproject_2stim_asymm_v5,2020.2.10,MacIntel,60,61025ae37ef11b136ea224fe,,,,,,,,,4072,44.68701172,-88.7588501,1,0,0,response3disk,,4,9.075622559,-9.188140869,1,0,0,rectangle,9.075622559,-9.188140869,1,0,0,9.075622559,-9.188140869,1,0,0,1,31,191,48,1,,,,,,,,
,,,,,,,,,,,,,FF,,,,,,,,0.8518,,,,,,,,,,,,,,,,,,,,,,60fcf4962b970932cbdd186b,610370858d4ce36d1951f6ad,2021-07-29_23h26.45.747,Simcolourproject_2stim_asymm_v5,2020.2.10,MacIntel,60,61025ae37ef11b136ea224fe,,,,,,,,,913,92.06542969,-44.69003296,1,0,0,response3disk,,5,11.16491699,0.871002197,1,0,0,rectangle,11.16491699,0.871002197,1,0,0,11.16491699,0.871002197,1,0,0,1,32,192,32,1,,,,,,,,
,,,,,,,,,,,,,FF,,,,,,,,1.067,,,,,,,,,,,,,,,,,,,,,,60fcf4962b970932cbdd186b,610370858d4ce36d1951f6ad,2021-07-29_23h26.45.747,Simcolourproject_2stim_asymm_v5,2020.2.10,MacIntel,60,61025ae37ef11b136ea224fe,,,,,,,,,615,21.68029785,-72.16217041,1,0,0,response3disk,,4,1.807739258,-8.76348877,1,0,0,rectangle,1.807739258,-8.76348877,1,0,0,1.807739258,-8.76348877,1,0,0,1,33,193,110,1,,,,,,,,
,,,,,,,,,,,,,FF,,,,,,,,0.8174,,,,,,,,,,,,,,,,,,,,,,60fcf4962b970932cbdd186b,610370858d4ce36d1951f6ad,2021-07-29_23h26.45.747,Simcolourproject_2stim_asymm_v5,2020.2.10,MacIntel,60,61025ae37ef11b136ea224fe,,,,,,,,,1541,84.43188477,25.1211853,1,0,0,response1disk,,6,6.781433105,-0.790496826,1,0,0,rectangle,6.781433105,-0.790496826,1,0,0,6.781433105,-0.790496826,1,0,0,1,34,194,98,1,,,,,,,,
,,,,,,,,,,,,,FF,,,,,,,,0.78,,,,,,,,,,,,,,,,,,,,,,60fcf4962b970932cbdd186b,610370858d4ce36d1951f6ad,2021-07-29_23h26.45.747,Simcolourproject_2stim_asymm_v5,2020.2.10,MacIntel,60,61025ae37ef11b136ea224fe,,,,,,,,,400,68.99536133,22.0776062,1,0,0,response1disk,,6,22.5425415,-2.343048096,1,0,0,rectangle,22.5425415,-2.343048096,1,0,0,22.5425415,-2.343048096,1,0,0,1,35,195,106,1,,,,,,,,
,,,,,,,,,,,,,FF,,,,,,,,1.3001,,,,,,,,,,,,,,,,,,,,,,60fcf4962b970932cbdd186b,610370858d4ce36d1951f6ad,2021-07-29_23h26.45.747,Simcolourproject_2stim_asymm_v5,2020.2.10,MacIntel,60,61025ae37ef11b136ea224fe,,,,,,,,,4036,103.4353027,43.25009155,1,0,0,response1disk,,6,14.2244873,9.179321289,1,0,0,rectangle,-78.4864502,-41.84738159,1,0,0,13.14050293,-0.41418457,1,0,0,1,36,196,83,1,,response5disk_3,TRUE,2,2,"[147,123,87,225,244,29,197,236,223,174,304,300,37,56,22,181,108,205,16,267]",1.8993,rectangle
,,,,,,,,,,,,,FF,,,,,,,,1.1334,,,,,,,,,,,,,,,,,,,,,,60fcf4962b970932cbdd186b,610370858d4ce36d1951f6ad,2021-07-29_23h26.45.747,Simcolourproject_2stim_asymm_v5,2020.2.10,MacIntel,60,61025ae37ef11b136ea224fe,,,,,,,,,3991,76.24853516,39.93756104,1,0,0,response1disk,,6,6.790649414,-4.485321045,1,0,0,rectangle,6.790649414,-4.485321045,1,0,0,6.790649414,-4.485321045,1,0,0,1,37,197,102,1,,,,,,,,
,,,,,,,,,,,,,FF,,,,,,,,1.2701,,,,,,,,,,,,,,,,,,,,,,60fcf4962b970932cbdd186b,610370858d4ce36d1951f6ad,2021-07-29_23h26.45.747,Simcolourproject_2stim_asymm_v5,2020.2.10,MacIntel,60,61025ae37ef11b136ea224fe,,,,,,,,,2968,93.3046875,-37.26028442,1,0,0,response3disk,,5,-11.62329102,-1.197052002,1,0,0,rectangle,-11.62329102,-1.197052002,1,0,0,-11.62329102,-1.197052002,1,0,0,1,38,198,56,1,,,,,,,,
,,,,,,,,,,,,,FF,,,,,,,,3.4532,,,,,,,,,,,,,,,,,,,,,,60fcf4962b970932cbdd186b,610370858d4ce36d1951f6ad,2021-07-29_23h26.45.747,Simcolourproject_2stim_asymm_v5,2020.2.10,MacIntel,60,61025ae37ef11b136ea224fe,,,,,,,,,200,109.6720581,-49.56414795,1,0,0,response3disk,,5,-0.466491699,3.997192383,1,0,0,rectangle,-0.466491699,3.997192383,1,0,0,-0.466491699,3.997192383,1,0,0,1,39,199,5,1,,,,,,,,
,,,,,,,,,,,,,FF,,,,,,,,3.3174,,,,,,,,,,,,,,,,,,,,,,60fcf4962b970932cbdd186b,610370858d4ce36d1951f6ad,2021-07-29_23h26.45.747,Simcolourproject_2stim_asymm_v5,2020.2.10,MacIntel,60,61025ae37ef11b136ea224fe,,,,,,,,,72,-35.91259766,-77.45812988,1,0,0,response5disk,,3,-6.957092285,1.48348999,1,0,0,rectangle,-6.957092285,1.48348999,1,0,0,-6.957092285,1.48348999,1,0,0,1,40,200,1,1,,,,,,,,
,,,,,,,,,,,,,FF,,,,,,,,2.7502,,,,,,,,,,,,,,,,,,,,,,60fcf4962b970932cbdd186b,610370858d4ce36d1951f6ad,2021-07-29_23h26.45.747,Simcolourproject_2stim_asymm_v5,2020.2.10,MacIntel,60,61025ae37ef11b136ea224fe,,,,,,,,,3374,33.07885742,-47.00619507,1,0,0,response3disk,,4,6.903381348,-5.464782715,1,0,0,rectangle,6.903381348,-5.464782715,1,0,0,6.903381348,-5.464782715,1,0,0,1,41,201,65,1,,,,,,,,
,,,,,,,,,,,,,FF,,,,,,,,0.8834,,,,,,,,,,,,,,,,,,,,,,60fcf4962b970932cbdd186b,610370858d4ce36d1951f6ad,2021-07-29_23h26.45.747,Simcolourproject_2stim_asymm_v5,2020.2.10,MacIntel,60,61025ae37ef11b136ea224fe,,,,,,,,,235,75.09020996,-30.62176514,1,0,0,response3disk,,5,16.47851563,-5.937072754,1,0,0,rectangle,16.47851563,-5.937072754,1,0,0,16.47851563,-5.937072754,1,0,0,1,42,202,81,1,,,,,,,,
,,,,,,,,,,,,,FF,,,,,,,,1.0196,,,,,,,,,,,,,,,,,,,,,,60fcf4962b970932cbdd186b,610370858d4ce36d1951f6ad,2021-07-29_23h26.45.747,Simcolourproject_2stim_asymm_v5,2020.2.10,MacIntel,60,61025ae37ef11b136ea224fe,,,,,,,,,3668,-62.66821289,27.9777832,1,0,0,response7disk,,1,-2.701782227,-5.301330566,1,0,0,rectangle,-2.701782227,-5.301330566,1,0,0,-2.701782227,-5.301330566,1,0,0,1,43,203,126,1,,,,,,,,
,,,,,,,,,,,,,FF,,,,,,,,1.2024,,,,,,,,,,,,,,,,,,,,,,60fcf4962b970932cbdd186b,610370858d4ce36d1951f6ad,2021-07-29_23h26.45.747,Simcolourproject_2stim_asymm_v5,2020.2.10,MacIntel,60,61025ae37ef11b136ea224fe,,,,,,,,,1346,104.3482666,-42.23764038,1,0,0,response3disk,,5,14.68530273,1.428649902,1,0,0,rectangle,28.74737549,62.52374268,1,0,0,-3.514160156,1.682525635,1,0,0,1,44,204,30,1,,response1disk_3,TRUE,7,7,"[147,123,87,225,244,29,197,236,223,174,304,300,37,56,22,181,108,205,16,267]",1.7133,rectangle
,,,,,,,,,,,,,FF,,,,,,,,3.416,,,,,,,,,,,,,,,,,,,,,,60fcf4962b970932cbdd186b,610370858d4ce36d1951f6ad,2021-07-29_23h26.45.747,Simcolourproject_2stim_asymm_v5,2020.2.10,MacIntel,60,61025ae37ef11b136ea224fe,,,,,,,,,2514,39.24291992,-89.49700928,1,0,0,response3disk,,4,1.585449219,-11.64901733,1,0,0,rectangle,1.585449219,-11.64901733,1,0,0,1.585449219,-11.64901733,1,0,0,1,45,205,13,1,,,,,,,,
,,,,,,,,,,,,,FF,,,,,,,,1.0151,,,,,,,,,,,,,,,,,,,,,,60fcf4962b970932cbdd186b,610370858d4ce36d1951f6ad,2021-07-29_23h26.45.747,Simcolourproject_2stim_asymm_v5,2020.2.10,MacIntel,60,61025ae37ef11b136ea224fe,,,,,,,,,4124,-32.04742432,-78.91027832,1,0,0,response5disk,,3,0.137207031,15.09500122,1,0,0,rectangle,0.137207031,15.09500122,1,0,0,0.137207031,15.09500122,1,0,0,1,46,206,92,1,,,,,,,,
,,,,,,,,,,,,,FF,,,,,,,,2.4321,,,,,,,,,,,,,,,,,,,,,,60fcf4962b970932cbdd186b,610370858d4ce36d1951f6ad,2021-07-29_23h26.45.747,Simcolourproject_2stim_asymm_v5,2020.2.10,MacIntel,60,61025ae37ef11b136ea224fe,,,,,,,,,4110,68.70269775,-42.89233398,1,0,0,response3disk,,5,8.561767578,-12.26135254,1,0,0,rectangle,8.561767578,-12.26135254,1,0,0,8.561767578,-12.26135254,1,0,0,1,47,207,64,1,,,,,,,,
,,,,,,,,,,,,,FF,,,,,,,,4.7181,,,,,,,,,,,,,,,,,,,,,,60fcf4962b970932cbdd186b,610370858d4ce36d1951f6ad,2021-07-29_23h26.45.747,Simcolourproject_2stim_asymm_v5,2020.2.10,MacIntel,60,61025ae37ef11b136ea224fe,,,,,,,,,996,100.8936157,-42.55703735,1,0,0,response3disk,,5,19.11987305,-8.625396729,1,0,0,rectangle,19.11987305,-8.625396729,1,0,0,19.11987305,-8.625396729,1,0,0,1,48,208,134,1,,,,,,,,
,,,,,,,,,,,,,FF,,,,,,,,0.8166,,,,,,,,,,,,,,,,,,,,,,60fcf4962b970932cbdd186b,610370858d4ce36d1951f6ad,2021-07-29_23h26.45.747,Simcolourproject_2stim_asymm_v5,2020.2.10,MacIntel,60,61025ae37ef11b136ea224fe,,,,,,,,,1178,60.38885498,-26.44921875,1,0,0,response3disk,,5,2.898803711,-10.9239502,1,0,0,rectangle,2.898803711,-10.9239502,1,0,0,2.898803711,-10.9239502,1,0,0,1,49,209,0,1,,,,,,,,
,,,,,,,,,,,,,FF,,,,,,,,3,,,,,,,,,,,,,,,,,,,,,,60fcf4962b970932cbdd186b,610370858d4ce36d1951f6ad,2021-07-29_23h26.45.747,Simcolourproject_2stim_asymm_v5,2020.2.10,MacIntel,60,61025ae37ef11b136ea224fe,,,,,,,,,3201,30.96282959,-85.00585938,1,0,0,response3disk,,4,0.727355957,-6.203094482,1,0,0,rectangle,0.727355957,-6.203094482,1,0,0,0.727355957,-6.203094482,1,0,0,1,50,210,155,1,,,,,,,,
,,,,,,,,,,,,,FF,,,,,,,,1.8166,,,,,,,,,,,,,,,,,,,,,,60fcf4962b970932cbdd186b,610370858d4ce36d1951f6ad,2021-07-29_23h26.45.747,Simcolourproject_2stim_asymm_v5,2020.2.10,MacIntel,60,61025ae37ef11b136ea224fe,,,,,,,,,733,86.5637207,-37.21405029,1,0,0,response3disk,,5,20.53833008,-12.66812134,1,0,0,rectangle,20.53833008,-12.66812134,1,0,0,20.53833008,-12.66812134,1,0,0,1,51,211,66,1,,,,,,,,
,,,,,,,,,,,,,FF,,,,,,,,1.0017,,,,,,,,,,,,,,,,,,,,,,60fcf4962b970932cbdd186b,610370858d4ce36d1951f6ad,2021-07-29_23h26.45.747,Simcolourproject_2stim_asymm_v5,2020.2.10,MacIntel,60,61025ae37ef11b136ea224fe,,,,,,,,,758,89.00463867,-28.53887939,1,0,0,response3disk,,5,8.983032227,8.786102295,1,0,0,rectangle,8.983032227,8.786102295,1,0,0,8.983032227,8.786102295,1,0,0,1,52,212,72,1,,,,,,,,
,,,,,,,,,,,,,FF,,,,,,,,0.7999,,,,,,,,,,,,,,,,,,,,,,60fcf4962b970932cbdd186b,610370858d4ce36d1951f6ad,2021-07-29_23h26.45.747,Simcolourproject_2stim_asymm_v5,2020.2.10,MacIntel,60,61025ae37ef11b136ea224fe,,,,,,,,,2499,81.96429443,-21.7442627,1,0,0,response3disk,,5,13.20593262,-7.609222412,1,0,0,rectangle,13.20593262,-7.609222412,1,0,0,13.20593262,-7.609222412,1,0,0,1,53,213,51,1,,,,,,,,
,,,,,,,,,,,,,FF,,,,,,,,0.8335,,,,,,,,,,,,,,,,,,,,,,60fcf4962b970932cbdd186b,610370858d4ce36d1951f6ad,2021-07-29_23h26.45.747,Simcolourproject_2stim_asymm_v5,2020.2.10,MacIntel,60,61025ae37ef11b136ea224fe,,,,,,,,,2757,65.45562744,40.47607422,1,0,0,response1disk,,6,9.413818359,13.03613281,1,0,0,rectangle,9.413818359,13.03613281,1,0,0,9.413818359,13.03613281,1,0,0,1,54,214,119,1,,,,,,,,
,,,,,,,,,,,,,FF,,,,,,,,0.8669,,,,,,,,,,,,,,,,,,,,,,60fcf4962b970932cbdd186b,610370858d4ce36d1951f6ad,2021-07-29_23h26.45.747,Simcolourproject_2stim_asymm_v5,2020.2.10,MacIntel,60,61025ae37ef11b136ea224fe,,,,,,,,,2444,84.16259766,38.23049927,1,0,0,response1disk,,6,25.03302002,8.502746582,1,0,0,rectangle,25.03302002,8.502746582,1,0,0,25.03302002,8.502746582,1,0,0,1,55,215,2,1,,,,,,,,
,,,,,,,,,,,,,FF,,,,,,,,1.4014,,,,,,,,,,,,,,,,,,,,,,60fcf4962b970932cbdd186b,610370858d4ce36d1951f6ad,2021-07-29_23h26.45.747,Simcolourproject_2stim_asymm_v5,2020.2.10,MacIntel,60,61025ae37ef11b136ea224fe,,,,,,,,,3510,-75.63696289,-46.00701904,1,0,0,response5disk,,2,-12.75842285,-9.765380859,1,0,0,rectangle,-12.75842285,-9.765380859,1,0,0,-12.75842285,-9.765380859,1,0,0,1,56,216,107,1,,,,,,,,
,,,,,,,,,,,,,FF,,,,,,,,1.1502,,,,,,,,,,,,,,,,,,,,,,60fcf4962b970932cbdd186b,610370858d4ce36d1951f6ad,2021-07-29_23h26.45.747,Simcolourproject_2stim_asymm_v5,2020.2.10,MacIntel,60,61025ae37ef11b136ea224fe,,,,,,,,,1155,48.05657959,-78.14660645,1,0,0,response3disk,,4,15.25946045,-15.11947632,1,0,0,rectangle,15.25946045,-15.11947632,1,0,0,15.25946045,-15.11947632,1,0,0,1,57,217,111,1,,,,,,,,
,,,,,,,,,,,,,FF,,,,,,,,0.7192,,,,,,,,,,,,,,,,,,,,,,60fcf4962b970932cbdd186b,610370858d4ce36d1951f6ad,2021-07-29_23h26.45.747,Simcolourproject_2stim_asymm_v5,2020.2.10,MacIntel,60,61025ae37ef11b136ea224fe,,,,,,,,,3265,83.13543701,-29.80984497,1,0,0,response3disk,,5,5.20098877,0.375579834,1,0,0,rectangle,5.20098877,0.375579834,1,0,0,5.20098877,0.375579834,1,0,0,1,58,218,143,1,,,,,,,,
,,,,,,,,,,,,,FF,,,,,,,,0.6662,,,,,,,,,,,,,,,,,,,,,,60fcf4962b970932cbdd186b,610370858d4ce36d1951f6ad,2021-07-29_23h26.45.747,Simcolourproject_2stim_asymm_v5,2020.2.10,MacIntel,60,61025ae37ef11b136ea224fe,,,,,,,,,1119,62.72949219,-40.79785156,1,0,0,response3disk,,5,11.2076416,-0.922210693,1,0,0,rectangle,11.2076416,-0.922210693,1,0,0,11.2076416,-0.922210693,1,0,0,1,59,219,100,1,,,,,,,,
,,,,,,,,,,,,,FF,,,,,,,,0.7496,,,,,,,,,,,,,,,,,,,,,,60fcf4962b970932cbdd186b,610370858d4ce36d1951f6ad,2021-07-29_23h26.45.747,Simcolourproject_2stim_asymm_v5,2020.2.10,MacIntel,60,61025ae37ef11b136ea224fe,,,,,,,,,12,94.43029785,-47.98535156,1,0,0,response3disk,,5,15.27758789,-9.669769287,1,0,0,rectangle,15.27758789,-9.669769287,1,0,0,15.27758789,-9.669769287,1,0,0,1,60,220,12,1,,,,,,,,
,,,,,,,,,,,,,FF,,,,,,,,0.7834,,,,,,,,,,,,,,,,,,,,,,60fcf4962b970932cbdd186b,610370858d4ce36d1951f6ad,2021-07-29_23h26.45.747,Simcolourproject_2stim_asymm_v5,2020.2.10,MacIntel,60,61025ae37ef11b136ea224fe,,,,,,,,,3409,91.72131348,-30.32595825,1,0,0,response3disk,,5,12.64605713,0.937805176,1,0,0,rectangle,12.64605713,0.937805176,1,0,0,12.64605713,0.937805176,1,0,0,1,61,221,140,1,,,,,,,,
,,,,,,,,,,,,,FF,,,,,,,,0.8018,,,,,,,,,,,,,,,,,,,,,,60fcf4962b970932cbdd186b,610370858d4ce36d1951f6ad,2021-07-29_23h26.45.747,Simcolourproject_2stim_asymm_v5,2020.2.10,MacIntel,60,61025ae37ef11b136ea224fe,,,,,,,,,3562,69.96984863,-21.96063232,1,0,0,response3disk,,5,-2.668640137,-3.980743408,1,0,0,rectangle,-36.03973389,-85.56164551,1,0,0,4.529052734,-0.651855469,1,0,0,1,62,222,33,1,,response5disk_3,TRUE,3,3,"[147,123,87,225,244,29,197,236,223,174,304,300,37,56,22,181,108,205,16,267]",3.1515,rectangle
,,,,,,,,,,,,,FF,,,,,,,,0.9668,,,,,,,,,,,,,,,,,,,,,,60fcf4962b970932cbdd186b,610370858d4ce36d1951f6ad,2021-07-29_23h26.45.747,Simcolourproject_2stim_asymm_v5,2020.2.10,MacIntel,60,61025ae37ef11b136ea224fe,,,,,,,,,1545,76.61938477,14.64538574,1,0,0,response1disk,,6,15.90710449,-4.960418701,1,0,0,rectangle,15.90710449,-4.960418701,1,0,0,15.90710449,-4.960418701,1,0,0,1,63,223,9,1,,,,,,,,
,,,,,,,,,,,,,FF,,,,,,,,0.6504,,,,,,,,,,,,,,,,,,,,,,60fcf4962b970932cbdd186b,610370858d4ce36d1951f6ad,2021-07-29_23h26.45.747,Simcolourproject_2stim_asymm_v5,2020.2.10,MacIntel,60,61025ae37ef11b136ea224fe,,,,,,,,,293,53.32965088,34.81634521,1,0,0,response1disk,,6,11.28088379,-2.063720703,1,0,0,rectangle,-32.69561768,70.28945923,1,0,0,-14.7354126,9.794189453,1,0,0,1,64,224,118,1,,response7disk_3,TRUE,0,0,"[147,123,87,225,244,29,197,236,223,174,304,300,37,56,22,181,108,205,16,267]",1.6028,rectangle
,,,,,,,,,,,,,FF,,,,,,,,2.718,,,,,,,,,,,,,,,,,,,,,,60fcf4962b970932cbdd186b,610370858d4ce36d1951f6ad,2021-07-29_23h26.45.747,Simcolourproject_2stim_asymm_v5,2020.2.10,MacIntel,60,61025ae37ef11b136ea224fe,,,,,,,,,542,-45.28515625,-63.2197876,1,0,0,response5disk,,3,-10.56359863,-3.23260498,1,0,0,rectangle,-10.56359863,-3.23260498,1,0,0,-10.56359863,-3.23260498,1,0,0,1,65,225,4,1,,,,,,,,
,,,,,,,,,,,,,FF,,,,,,,,0.7334,,,,,,,,,,,,,,,,,,,,,,60fcf4962b970932cbdd186b,610370858d4ce36d1951f6ad,2021-07-29_23h26.45.747,Simcolourproject_2stim_asymm_v5,2020.2.10,MacIntel,60,61025ae37ef11b136ea224fe,,,,,,,,,3977,-31.66210938,-69.43078613,1,0,0,response5disk,,3,-5.138916016,0.465942383,1,0,0,rectangle,-5.138916016,0.465942383,1,0,0,-5.138916016,0.465942383,1,0,0,1,66,226,71,1,,,,,,,,
,,,,,,,,,,,,,FF,,,,,,,,0.9001,,,,,,,,,,,,,,,,,,,,,,60fcf4962b970932cbdd186b,610370858d4ce36d1951f6ad,2021-07-29_23h26.45.747,Simcolourproject_2stim_asymm_v5,2020.2.10,MacIntel,60,61025ae37ef11b136ea224fe,,,,,,,,,975,-43.19543457,-75.27886963,1,0,0,response5disk,,3,-11.90856934,-6.151611328,1,0,0,rectangle,-11.90856934,-6.151611328,1,0,0,-11.90856934,-6.151611328,1,0,0,1,67,227,7,1,,,,,,,,
,,,,,,,,,,,,,FF,,,,,,,,1.4836,,,,,,,,,,,,,,,,,,,,,,60fcf4962b970932cbdd186b,610370858d4ce36d1951f6ad,2021-07-29_23h26.45.747,Simcolourproject_2stim_asymm_v5,2020.2.10,MacIntel,60,61025ae37ef11b136ea224fe,,,,,,,,,835,80.31884766,-50.40826416,1,0,0,response3disk,,5,13.50390625,5.519500732,1,0,0,rectangle,13.50390625,5.519500732,1,0,0,13.50390625,5.519500732,1,0,0,1,68,228,137,1,,,,,,,,
,,,,,,,,,,,,,FF,,,,,,,,0.9819,,,,,,,,,,,,,,,,,,,,,,60fcf4962b970932cbdd186b,610370858d4ce36d1951f6ad,2021-07-29_23h26.45.747,Simcolourproject_2stim_asymm_v5,2020.2.10,MacIntel,60,61025ae37ef11b136ea224fe,,,,,,,,,1166,29.87194824,-70.47717285,1,0,0,response3disk,,4,9.51184082,-4.87600708,1,0,0,rectangle,9.51184082,-4.87600708,1,0,0,9.51184082,-4.87600708,1,0,0,1,69,229,82,1,,,,,,,,
,,,,,,,,,,,,,FF,,,,,,,,0.8164,,,,,,,,,,,,,,,,,,,,,,60fcf4962b970932cbdd186b,610370858d4ce36d1951f6ad,2021-07-29_23h26.45.747,Simcolourproject_2stim_asymm_v5,2020.2.10,MacIntel,60,61025ae37ef11b136ea224fe,,,,,,,,,3383,-33.18383789,-73.33612061,1,0,0,response5disk,,3,-8.031982422,-1.060089111,1,0,0,rectangle,-8.031982422,-1.060089111,1,0,0,-8.031982422,-1.060089111,1,0,0,1,70,230,59,1,,,,,,,,
,,,,,,,,,,,,,FF,,,,,,,,1.499,,,,,,,,,,,,,,,,,,,,,,60fcf4962b970932cbdd186b,610370858d4ce36d1951f6ad,2021-07-29_23h26.45.747,Simcolourproject_2stim_asymm_v5,2020.2.10,MacIntel,60,61025ae37ef11b136ea224fe,,,,,,,,,3827,32.63452148,-55.86611938,1,0,0,response3disk,,4,9.429931641,7.306274414,1,0,0,rectangle,9.429931641,7.306274414,1,0,0,9.429931641,7.306274414,1,0,0,1,71,231,74,1,,,,,,,,
,,,,,,,,,,,,,FF,,,,,,,,1.1331,,,,,,,,,,,,,,,,,,,,,,60fcf4962b970932cbdd186b,610370858d4ce36d1951f6ad,2021-07-29_23h26.45.747,Simcolourproject_2stim_asymm_v5,2020.2.10,MacIntel,60,61025ae37ef11b136ea224fe,,,,,,,,,2307,72.6015625,-35.59924316,1,0,0,response3disk,,5,10.67382813,-3.817230225,1,0,0,rectangle,10.67382813,-3.817230225,1,0,0,10.67382813,-3.817230225,1,0,0,1,72,232,8,1,,,,,,,,
,,,,,,,,,,,,,FF,,,,,,,,0.9683,,,,,,,,,,,,,,,,,,,,,,60fcf4962b970932cbdd186b,610370858d4ce36d1951f6ad,2021-07-29_23h26.45.747,Simcolourproject_2stim_asymm_v5,2020.2.10,MacIntel,60,61025ae37ef11b136ea224fe,,,,,,,,,3671,-76.53051758,-47.41140747,1,0,0,response5disk,,2,-12.59436035,-8.396881104,1,0,0,rectangle,-12.59436035,-8.396881104,1,0,0,-12.59436035,-8.396881104,1,0,0,1,73,233,68,1,,,,,,,,
,,,,,,,,,,,,,FF,,,,,,,,1.3843,,,,,,,,,,,,,,,,,,,,,,60fcf4962b970932cbdd186b,610370858d4ce36d1951f6ad,2021-07-29_23h26.45.747,Simcolourproject_2stim_asymm_v5,2020.2.10,MacIntel,60,61025ae37ef11b136ea224fe,,,,,,,,,1905,23.40441895,-71.06243896,1,0,0,response3disk,,4,5.106201172,-4.831756592,1,0,0,rectangle,5.106201172,-4.831756592,1,0,0,5.106201172,-4.831756592,1,0,0,1,74,234,60,1,,,,,,,,
,,,,,,,,,,,,,FF,,,,,,,,3.4693,,,,,,,,,,,,,,,,,,,,,,60fcf4962b970932cbdd186b,610370858d4ce36d1951f6ad,2021-07-29_23h26.45.747,Simcolourproject_2stim_asymm_v5,2020.2.10,MacIntel,60,61025ae37ef11b136ea224fe,,,,,,,,,2881,49.25091553,-102.7213135,1,0,0,response3disk,,4,6.482055664,-8.080871582,1,0,0,rectangle,-24.66015625,74.29559326,1,0,0,-8.598205566,7.368591309,1,0,0,1,75,235,44,1,,response7disk_3,TRUE,0,0,"[147,123,87,225,244,29,197,236,223,174,304,300,37,56,22,181,108,205,16,267]",1.3666,rectangle
,,,,,,,,,,,,,FF,,,,,,,,0.9353,,,,,,,,,,,,,,,,,,,,,,60fcf4962b970932cbdd186b,610370858d4ce36d1951f6ad,2021-07-29_23h26.45.747,Simcolourproject_2stim_asymm_v5,2020.2.10,MacIntel,60,61025ae37ef11b136ea224fe,,,,,,,,,2071,42.68341064,-81.75231934,1,0,0,response3disk,,4,6.883911133,-13.17532349,1,0,0,rectangle,6.883911133,-13.17532349,1,0,0,6.883911133,-13.17532349,1,0,0,1,76,236,19,1,,,,,,,,
,,,,,,,,,,,,,FF,,,,,,,,0.9002,,,,,,,,,,,,,,,,,,,,,,60fcf4962b970932cbdd186b,610370858d4ce36d1951f6ad,2021-07-29_23h26.45.747,Simcolourproject_2stim_asymm_v5,2020.2.10,MacIntel,60,61025ae37ef11b136ea224fe,,,,,,,,,4269,-25.30541992,-64.61016846,1,0,0,response5disk,,3,4.263427734,14.85882568,1,0,0,rectangle,4.263427734,14.85882568,1,0,0,4.263427734,14.85882568,1,0,0,1,77,237,35,1,,,,,,,,
,,,,,,,,,,,,,FF,,,,,,,,1.0331,,,,,,,,,,,,,,,,,,,,,,60fcf4962b970932cbdd186b,610370858d4ce36d1951f6ad,2021-07-29_23h26.45.747,Simcolourproject_2stim_asymm_v5,2020.2.10,MacIntel,60,61025ae37ef11b136ea224fe,,,,,,,,,1071,35.72412109,-66.09838867,1,0,0,response3disk,,4,7.408447266,-5.102996826,1,0,0,rectangle,7.408447266,-5.102996826,1,0,0,7.408447266,-5.102996826,1,0,0,1,78,238,24,1,,,,,,,,
,,,,,,,,,,,,,FF,,,,,,,,2.4649,,,,,,,,,,,,,,,,,,,,,,60fcf4962b970932cbdd186b,610370858d4ce36d1951f6ad,2021-07-29_23h26.45.747,Simcolourproject_2stim_asymm_v5,2020.2.10,MacIntel,60,61025ae37ef11b136ea224fe,,,,,,,,,4357,-26.43029785,-72.04907227,1,0,0,response5disk,,3,-10.29174805,13.56658936,1,0,0,rectangle,-10.29174805,13.56658936,1,0,0,-10.29174805,13.56658936,1,0,0,1,79,239,91,1,,,,,,,,
,,,,,,,,,,,,,FF,,,,,,,,1.1499,,,,,,,,,,,,,,,,,,,,,,60fcf4962b970932cbdd186b,610370858d4ce36d1951f6ad,2021-07-29_23h26.45.747,Simcolourproject_2stim_asymm_v5,2020.2.10,MacIntel,60,61025ae37ef11b136ea224fe,,,,,,,,,2256,47.73754883,-61.64868164,1,0,0,response3disk,,4,10.55627441,-7.521118164,1,0,0,rectangle,10.55627441,-7.521118164,1,0,0,10.55627441,-7.521118164,1,0,0,1,80,240,90,1,,,,,,,,
