key_resp.keys,key_resp.rt,key_resp_14.keys,key_resp_14.rt,key_resp_15.keys,key_resp_15.rt,key_resp_17.keys,key_resp_17.rt,key_resp_9.keys,key_resp_9.rt,key_resp_10.keys,key_resp_10.rt,practice_comparison,Ecc,mouse_5.x,mouse_5.y,mouse_5.leftButton,mouse_5.midButton,mouse_5.rightButton,mouse_5.clicked_name,pracsimilarity,response_time,mouse_10.x,mouse_10.y,mouse_10.leftButton,mouse_10.midButton,mouse_10.rightButton,mouse_10.clicked_name,mouse_7.x,mouse_7.y,mouse_7.leftButton,mouse_7.midButton,mouse_7.rightButton,mouse_6.x,mouse_6.y,mouse_6.leftButton,mouse_6.midButton,mouse_6.rightButton,duringprac.thisRepN,duringprac.thisTrialN,duringprac.thisN,duringprac.thisIndex,duringprac.ran,participant,session,date,expName,psychopyVersion,OS,frameRate,study_id,mouse_7.clicked_name,catchpracsimilarity,catch_response_time,catchnumberprac,catchtrialorderprac,mouse_6.clicked_name,key_resp_22.keys,key_resp_22.rt,realcomparison,mouse.x,mouse.y,mouse.leftButton,mouse.midButton,mouse.rightButton,mouse.clicked_name,Colour2,similarity,mouse_2.x,mouse_2.y,mouse_2.leftButton,mouse_2.midButton,mouse_2.rightButton,mouse_2.clicked_name,mouse_3.x,mouse_3.y,mouse_3.leftButton,mouse_3.midButton,mouse_3.rightButton,mouse_3.clicked_name,catchornah,catchsimilarity,catchnumber,catchtrialorder,catchRT,mouse_11.x,mouse_11.y,mouse_11.leftButton,mouse_11.midButton,mouse_11.rightButton,mouse_11.clicked_name,trials_2.thisRepN,trials_2.thisTrialN,trials_2.thisN,trials_2.thisIndex,trials_2.ran,Colour1
space,1.3458,space,1.6299,space,15.3828,space,3.0832,space,0.263,space,2.2294,91,FF,-22.75,-113.4375,1,0,0,response5disk_5,3,5.4679,-1.8984375,-1.10546875,1,0,0,rectangle_8,-1.8984375,-1.10546875,1,0,0,-1.8984375,-1.10546875,1,0,0,0,0,0,5,1,60fcdf62ae64294443dd010d,610368b8b1bd52c528ebd7b6,2021-07-29_19h50.32.535,Simcolourproject_2stim_asymm_v5,2020.2.10,MacIntel,60,61025ae37ef11b136ea224fe,,,,,,,,,,,,,,,,,,,,,,,,,,,,,,,,,,,,,,,,,,,,,,
,,,,,,,,,,,,11,PF,92.3203125,56.53515625,1,0,0,response1disk_5,6,2.0834,-3.68359375,8.8515625,1,0,0,rectangle_8,41.6171875,82.96484375,1,0,0,1.734375,-4.26953125,1,0,0,0,1,1,1,1,60fcdf62ae64294443dd010d,610368b8b1bd52c528ebd7b6,2021-07-29_19h50.32.535,Simcolourproject_2stim_asymm_v5,2020.2.10,MacIntel,60,61025ae37ef11b136ea224fe,response1disk_7,7,1.6672,7,"[2,5]",rectangle_4,,,,,,,,,,,,,,,,,,,,,,,,,,,,,,,,,,,,,,,,
,,,,,,,,,,,,3,PF,78.42578125,-37.74609375,1,0,0,response3disk_5,5,2.5831,8.95703125,-1.48828125,1,0,0,rectangle_8,8.95703125,-1.48828125,1,0,0,8.95703125,-1.48828125,1,0,0,0,2,2,4,1,60fcdf62ae64294443dd010d,610368b8b1bd52c528ebd7b6,2021-07-29_19h50.32.535,Simcolourproject_2stim_asymm_v5,2020.2.10,MacIntel,60,61025ae37ef11b136ea224fe,,,,,,,,,,,,,,,,,,,,,,,,,,,,,,,,,,,,,,,,,,,,,,
,,,,,,,,,,,,85,PF,53.58984375,-117.84375,1,0,0,response3disk_5,4,1.2327,1.81640625,-5.1796875,1,0,0,rectangle_8,1.81640625,-5.1796875,1,0,0,1.81640625,-5.1796875,1,0,0,0,3,3,6,1,60fcdf62ae64294443dd010d,610368b8b1bd52c528ebd7b6,2021-07-29_19h50.32.535,Simcolourproject_2stim_asymm_v5,2020.2.10,MacIntel,60,61025ae37ef11b136ea224fe,,,,,,,,,,,,,,,,,,,,,,,,,,,,,,,,,,,,,,,,,,,,,,
,,,,,,,,,,,,110,FF,39.8671875,-101.4960938,1,0,0,response3disk_5,4,2.9332,7.90234375,8.1015625,1,0,0,rectangle_8,16.5703125,106.5742188,1,0,0,9.43359375,2.62109375,1,0,0,0,4,4,3,1,60fcdf62ae64294443dd010d,610368b8b1bd52c528ebd7b6,2021-07-29_19h50.32.535,Simcolourproject_2stim_asymm_v5,2020.2.10,MacIntel,60,61025ae37ef11b136ea224fe,response1disk_7,7,1.2839,7,"[2,5]",rectangle_4,,,,,,,,,,,,,,,,,,,,,,,,,,,,,,,,,,,,,,,,
,,,,,,,,,,,,156,FF,86.96484375,43.71484375,1,0,0,response1disk_5,6,1.5819,13.31640625,2.3984375,1,0,0,rectangle_8,13.31640625,2.3984375,1,0,0,13.31640625,2.3984375,1,0,0,0,5,5,0,1,60fcdf62ae64294443dd010d,610368b8b1bd52c528ebd7b6,2021-07-29_19h50.32.535,Simcolourproject_2stim_asymm_v5,2020.2.10,MacIntel,60,61025ae37ef11b136ea224fe,,,,,,,,,,,,,,,,,,,,,,,,,,,,,,,,,,,,,,,,,,,,,,
,,,,,,,,,,,,100,PF,-78.89453125,34.80078125,1,0,0,response7disk_5,1,1.5179,2.8046875,9.1875,1,0,0,rectangle_8,2.8046875,9.1875,1,0,0,2.8046875,9.1875,1,0,0,0,6,6,2,1,60fcdf62ae64294443dd010d,610368b8b1bd52c528ebd7b6,2021-07-29_19h50.32.535,Simcolourproject_2stim_asymm_v5,2020.2.10,MacIntel,60,61025ae37ef11b136ea224fe,,,,,,,,,,,,,,,,,,,,,,,,,,,,,,,,,,,,,,,,,,,,,,
,,,,,,,,,,,,,FF,,,,,,,,1.8841,,,,,,,,,,,,,,,,,,,,,,60fcdf62ae64294443dd010d,610368b8b1bd52c528ebd7b6,2021-07-29_19h50.32.535,Simcolourproject_2stim_asymm_v5,2020.2.10,MacIntel,60,61025ae37ef11b136ea224fe,,,,,,,space,1.4077,882,67.69921875,-103.9140625,1,0,0,response3disk,,4,-10.609375,3.11328125,1,0,0,rectangle,53.046875,76.765625,1,0,0,response1disk_3,TRUE,7,7,"[40,217,22,283,276,187,55,64,182,114,173,76,290,241,1,314,302,211,71,293]",1.0512,4.8515625,-1.61328125,1,0,0,rectangle,0,0,0,45,1,
,,,,,,,,,,,,,FF,,,,,,,,1.7166,,,,,,,,,,,,,,,,,,,,,,60fcdf62ae64294443dd010d,610368b8b1bd52c528ebd7b6,2021-07-29_19h50.32.535,Simcolourproject_2stim_asymm_v5,2020.2.10,MacIntel,60,61025ae37ef11b136ea224fe,,,,,,,,,527,-61.5546875,-95.8671875,1,0,0,response5disk,,3,-5.5859375,-2.703125,1,0,0,rectangle,-5.5859375,-2.703125,1,0,0,,,,,,,-5.5859375,-2.703125,1,0,0,,0,1,1,133,1,
,,,,,,,,,,,,,FF,,,,,,,,1.1326,,,,,,,,,,,,,,,,,,,,,,60fcdf62ae64294443dd010d,610368b8b1bd52c528ebd7b6,2021-07-29_19h50.32.535,Simcolourproject_2stim_asymm_v5,2020.2.10,MacIntel,60,61025ae37ef11b136ea224fe,,,,,,,,,1390,-38.71875,-84.8828125,1,0,0,response5disk,,3,1.9765625,-2.46484375,1,0,0,rectangle,1.9765625,-2.46484375,1,0,0,,,,,,,1.9765625,-2.46484375,1,0,0,,0,2,2,118,1,
,,,,,,,,,,,,,FF,,,,,,,,1.1168,,,,,,,,,,,,,,,,,,,,,,60fcdf62ae64294443dd010d,610368b8b1bd52c528ebd7b6,2021-07-29_19h50.32.535,Simcolourproject_2stim_asymm_v5,2020.2.10,MacIntel,60,61025ae37ef11b136ea224fe,,,,,,,,,672,114.6679688,-50.6875,1,0,0,response3disk,,5,17.91796875,-3.2421875,1,0,0,rectangle,17.91796875,-3.2421875,1,0,0,,,,,,,17.91796875,-3.2421875,1,0,0,,0,3,3,101,1,
,,,,,,,,,,,,,FF,,,,,,,,2.8838,,,,,,,,,,,,,,,,,,,,,,60fcdf62ae64294443dd010d,610368b8b1bd52c528ebd7b6,2021-07-29_19h50.32.535,Simcolourproject_2stim_asymm_v5,2020.2.10,MacIntel,60,61025ae37ef11b136ea224fe,,,,,,,,,1376,22.80859375,-100.0625,1,0,0,response3disk,,4,5.453125,-5.36328125,1,0,0,rectangle,5.453125,-5.36328125,1,0,0,,,,,,,5.453125,-5.36328125,1,0,0,,0,4,4,7,1,
,,,,,,,,,,,,,FF,,,,,,,,1.5496,,,,,,,,,,,,,,,,,,,,,,60fcdf62ae64294443dd010d,610368b8b1bd52c528ebd7b6,2021-07-29_19h50.32.535,Simcolourproject_2stim_asymm_v5,2020.2.10,MacIntel,60,61025ae37ef11b136ea224fe,,,,,,,,,4357,-93.359375,-51.7109375,1,0,0,response5disk,,2,-6.31640625,-4.91015625,1,0,0,rectangle,-6.31640625,-4.91015625,1,0,0,,,,,,,-6.31640625,-4.91015625,1,0,0,,0,5,5,6,1,
,,,,,,,,,,,,,FF,,,,,,,,1.0341,,,,,,,,,,,,,,,,,,,,,,60fcdf62ae64294443dd010d,610368b8b1bd52c528ebd7b6,2021-07-29_19h50.32.535,Simcolourproject_2stim_asymm_v5,2020.2.10,MacIntel,60,61025ae37ef11b136ea224fe,,,,,,,,,808,-99.140625,-46.08203125,1,0,0,response5disk,,2,-10.08984375,-6.3359375,1,0,0,rectangle,-10.08984375,-6.3359375,1,0,0,,,,,,,-10.08984375,-6.3359375,1,0,0,,0,6,6,155,1,
,,,,,,,,,,,,,FF,,,,,,,,1.8664,,,,,,,,,,,,,,,,,,,,,,60fcdf62ae64294443dd010d,610368b8b1bd52c528ebd7b6,2021-07-29_19h50.32.535,Simcolourproject_2stim_asymm_v5,2020.2.10,MacIntel,60,61025ae37ef11b136ea224fe,,,,,,,,,3859,-31.34375,-85.03125,1,0,0,response5disk,,3,18.60546875,-2.3203125,1,0,0,rectangle,18.60546875,-2.3203125,1,0,0,,,,,,,18.60546875,-2.3203125,1,0,0,,0,7,7,128,1,
,,,,,,,,,,,,,FF,,,,,,,,1.0176,,,,,,,,,,,,,,,,,,,,,,60fcdf62ae64294443dd010d,610368b8b1bd52c528ebd7b6,2021-07-29_19h50.32.535,Simcolourproject_2stim_asymm_v5,2020.2.10,MacIntel,60,61025ae37ef11b136ea224fe,,,,,,,,,1833,63.75390625,-79.17578125,1,0,0,response3disk,,4,15.859375,2.42578125,1,0,0,rectangle,15.859375,2.42578125,1,0,0,,,,,,,15.859375,2.42578125,1,0,0,,0,8,8,65,1,
,,,,,,,,,,,,,FF,,,,,,,,1.4506,,,,,,,,,,,,,,,,,,,,,,60fcdf62ae64294443dd010d,610368b8b1bd52c528ebd7b6,2021-07-29_19h50.32.535,Simcolourproject_2stim_asymm_v5,2020.2.10,MacIntel,60,61025ae37ef11b136ea224fe,,,,,,,,,3817,-50.69140625,-62.4921875,1,0,0,response5disk,,3,-15.1640625,-8.2421875,1,0,0,rectangle,-15.1640625,-8.2421875,1,0,0,,,,,,,-15.1640625,-8.2421875,1,0,0,,0,9,9,14,1,
,,,,,,,,,,,,,FF,,,,,,,,1.0834,,,,,,,,,,,,,,,,,,,,,,60fcdf62ae64294443dd010d,610368b8b1bd52c528ebd7b6,2021-07-29_19h50.32.535,Simcolourproject_2stim_asymm_v5,2020.2.10,MacIntel,60,61025ae37ef11b136ea224fe,,,,,,,,,2213,112.4921875,-32.20703125,1,0,0,response3disk,,5,16.53125,3.00390625,1,0,0,rectangle,16.53125,3.00390625,1,0,0,,,,,,,16.53125,3.00390625,1,0,0,,0,10,10,20,1,
,,,,,,,,,,,,,FF,,,,,,,,1.217,,,,,,,,,,,,,,,,,,,,,,60fcdf62ae64294443dd010d,610368b8b1bd52c528ebd7b6,2021-07-29_19h50.32.535,Simcolourproject_2stim_asymm_v5,2020.2.10,MacIntel,60,61025ae37ef11b136ea224fe,,,,,,,,,2375,86.1171875,-27.3203125,1,0,0,response3disk,,5,4.734375,-5.1328125,1,0,0,rectangle,4.734375,-5.1328125,1,0,0,,,,,,,4.734375,-5.1328125,1,0,0,,0,11,11,74,1,
,,,,,,,,,,,,,FF,,,,,,,,1.0835,,,,,,,,,,,,,,,,,,,,,,60fcdf62ae64294443dd010d,610368b8b1bd52c528ebd7b6,2021-07-29_19h50.32.535,Simcolourproject_2stim_asymm_v5,2020.2.10,MacIntel,60,61025ae37ef11b136ea224fe,,,,,,,,,1900,43.8203125,-93.0390625,1,0,0,response3disk,,4,20.1015625,10.703125,1,0,0,rectangle,20.1015625,10.703125,1,0,0,,,,,,,20.1015625,10.703125,1,0,0,,0,12,12,82,1,
,,,,,,,,,,,,,FF,,,,,,,,1.4833,,,,,,,,,,,,,,,,,,,,,,60fcdf62ae64294443dd010d,610368b8b1bd52c528ebd7b6,2021-07-29_19h50.32.535,Simcolourproject_2stim_asymm_v5,2020.2.10,MacIntel,60,61025ae37ef11b136ea224fe,,,,,,,,,2085,89.67578125,-88.1875,1,0,0,response3disk,,5,-0.640625,-1.5078125,1,0,0,rectangle,-0.640625,-1.5078125,1,0,0,,,,,,,-0.640625,-1.5078125,1,0,0,,0,13,13,153,1,
,,,,,,,,,,,,,FF,,,,,,,,0.8349,,,,,,,,,,,,,,,,,,,,,,60fcdf62ae64294443dd010d,610368b8b1bd52c528ebd7b6,2021-07-29_19h50.32.535,Simcolourproject_2stim_asymm_v5,2020.2.10,MacIntel,60,61025ae37ef11b136ea224fe,,,,,,,,,1985,52.3125,-94.73046875,1,0,0,response3disk,,4,7.73046875,-0.453125,1,0,0,rectangle,7.73046875,-0.453125,1,0,0,,,,,,,7.73046875,-0.453125,1,0,0,,0,14,14,147,1,
,,,,,,,,,,,,,FF,,,,,,,,1.5339,,,,,,,,,,,,,,,,,,,,,,60fcdf62ae64294443dd010d,610368b8b1bd52c528ebd7b6,2021-07-29_19h50.32.535,Simcolourproject_2stim_asymm_v5,2020.2.10,MacIntel,60,61025ae37ef11b136ea224fe,,,,,,,,,1288,-48.0390625,-71.546875,1,0,0,response5disk,,3,-3.57421875,-1.33984375,1,0,0,rectangle,-3.57421875,-1.33984375,1,0,0,,,,,,,-3.57421875,-1.33984375,1,0,0,,0,15,15,131,1,
,,,,,,,,,,,,,FF,,,,,,,,1.5507,,,,,,,,,,,,,,,,,,,,,,60fcdf62ae64294443dd010d,610368b8b1bd52c528ebd7b6,2021-07-29_19h50.32.535,Simcolourproject_2stim_asymm_v5,2020.2.10,MacIntel,60,61025ae37ef11b136ea224fe,,,,,,,,,4056,44.765625,-81.4375,1,0,0,response3disk,,4,21.20703125,-4.01953125,1,0,0,rectangle,21.20703125,-4.01953125,1,0,0,,,,,,,21.20703125,-4.01953125,1,0,0,,0,16,16,23,1,
,,,,,,,,,,,,,FF,,,,,,,,1.2339,,,,,,,,,,,,,,,,,,,,,,60fcdf62ae64294443dd010d,610368b8b1bd52c528ebd7b6,2021-07-29_19h50.32.535,Simcolourproject_2stim_asymm_v5,2020.2.10,MacIntel,60,61025ae37ef11b136ea224fe,,,,,,,,,1212,-57.875,-75.7421875,1,0,0,response5disk,,3,6.4453125,-4.3515625,1,0,0,rectangle,6.4453125,-4.3515625,1,0,0,,,,,,,6.4453125,-4.3515625,1,0,0,,0,17,17,30,1,
,,,,,,,,,,,,,FF,,,,,,,,0.8829,,,,,,,,,,,,,,,,,,,,,,60fcdf62ae64294443dd010d,610368b8b1bd52c528ebd7b6,2021-07-29_19h50.32.535,Simcolourproject_2stim_asymm_v5,2020.2.10,MacIntel,60,61025ae37ef11b136ea224fe,,,,,,,,,2680,96.22265625,-53.375,1,0,0,response3disk,,5,5.99609375,5.3984375,1,0,0,rectangle,5.99609375,5.3984375,1,0,0,,,,,,,5.99609375,5.3984375,1,0,0,,0,18,18,95,1,
,,,,,,,,,,,,,FF,,,,,,,,1.3163,,,,,,,,,,,,,,,,,,,,,,60fcdf62ae64294443dd010d,610368b8b1bd52c528ebd7b6,2021-07-29_19h50.32.535,Simcolourproject_2stim_asymm_v5,2020.2.10,MacIntel,60,61025ae37ef11b136ea224fe,,,,,,,,,1810,48.17578125,-64.41015625,1,0,0,response3disk,,4,-5.328125,-7.4453125,1,0,0,rectangle,-5.328125,-7.4453125,1,0,0,,,,,,,-5.328125,-7.4453125,1,0,0,,0,19,19,91,1,
,,,,,,,,,,,,,FF,,,,,,,,0.7172,,,,,,,,,,,,,,,,,,,,,,60fcdf62ae64294443dd010d,610368b8b1bd52c528ebd7b6,2021-07-29_19h50.32.535,Simcolourproject_2stim_asymm_v5,2020.2.10,MacIntel,60,61025ae37ef11b136ea224fe,,,,,,,,,3377,39.18359375,-69.3125,1,0,0,response3disk,,4,-10.07421875,8.44921875,1,0,0,rectangle,-10.07421875,8.44921875,1,0,0,,,,,,,-10.07421875,8.44921875,1,0,0,,0,20,20,136,1,
,,,,,,,,,,,,,FF,,,,,,,,1.7333,,,,,,,,,,,,,,,,,,,,,,60fcdf62ae64294443dd010d,610368b8b1bd52c528ebd7b6,2021-07-29_19h50.32.535,Simcolourproject_2stim_asymm_v5,2020.2.10,MacIntel,60,61025ae37ef11b136ea224fe,,,,,,,,,3437,-18.3203125,-83.90234375,1,0,0,response5disk,,3,2.17578125,-14.61328125,1,0,0,rectangle,46.09765625,81.90625,1,0,0,response1disk_3,TRUE,7,4,"[40,217,22,283,276,187,55,64,182,114,173,76,290,241,1,314,302,211,71,293]",0.9339,13.9765625,-8.74609375,1,0,0,rectangle,0,21,21,159,1,
,,,,,,,,,,,,,FF,,,,,,,,12.4343,,,,,,,,,,,,,,,,,,,,,,60fcdf62ae64294443dd010d,610368b8b1bd52c528ebd7b6,2021-07-29_19h50.32.535,Simcolourproject_2stim_asymm_v5,2020.2.10,MacIntel,60,61025ae37ef11b136ea224fe,,,,,,,,,3659,72.390625,-33.8125,1,0,0,response3disk,,5,12.78515625,-1.9375,1,0,0,rectangle,12.78515625,-1.9375,1,0,0,,,,,,,12.78515625,-1.9375,1,0,0,,0,22,22,0,1,
,,,,,,,,,,,,,FF,,,,,,,,1.0833,,,,,,,,,,,,,,,,,,,,,,60fcdf62ae64294443dd010d,610368b8b1bd52c528ebd7b6,2021-07-29_19h50.32.535,Simcolourproject_2stim_asymm_v5,2020.2.10,MacIntel,60,61025ae37ef11b136ea224fe,,,,,,,,,2316,57.1875,-106.1015625,1,0,0,response3disk,,4,10.4375,-12.46484375,1,0,0,rectangle,10.4375,-12.46484375,1,0,0,,,,,,,10.4375,-12.46484375,1,0,0,,0,23,23,54,1,
,,,,,,,,,,,,,FF,,,,,,,,1.3,,,,,,,,,,,,,,,,,,,,,,60fcdf62ae64294443dd010d,610368b8b1bd52c528ebd7b6,2021-07-29_19h50.32.535,Simcolourproject_2stim_asymm_v5,2020.2.10,MacIntel,60,61025ae37ef11b136ea224fe,,,,,,,,,3732,64.98828125,96.74609375,1,0,0,response1disk,,7,-10.4140625,2.10546875,1,0,0,rectangle,-10.4140625,2.10546875,1,0,0,,,,,,,-10.4140625,2.10546875,1,0,0,,0,24,24,103,1,
,,,,,,,,,,,,,FF,,,,,,,,3.0999,,,,,,,,,,,,,,,,,,,,,,60fcdf62ae64294443dd010d,610368b8b1bd52c528ebd7b6,2021-07-29_19h50.32.535,Simcolourproject_2stim_asymm_v5,2020.2.10,MacIntel,60,61025ae37ef11b136ea224fe,,,,,,,,,2309,-30.38671875,-57.30078125,1,0,0,response5disk,,3,-0.33203125,-6.390625,1,0,0,rectangle,-0.33203125,-6.390625,1,0,0,,,,,,,-0.33203125,-6.390625,1,0,0,,0,25,25,84,1,
,,,,,,,,,,,,,FF,,,,,,,,0.8669,,,,,,,,,,,,,,,,,,,,,,60fcdf62ae64294443dd010d,610368b8b1bd52c528ebd7b6,2021-07-29_19h50.32.535,Simcolourproject_2stim_asymm_v5,2020.2.10,MacIntel,60,61025ae37ef11b136ea224fe,,,,,,,,,2120,99.6875,-66.828125,1,0,0,response3disk,,5,5.86328125,-7.8203125,1,0,0,rectangle,5.86328125,-7.8203125,1,0,0,,,,,,,5.86328125,-7.8203125,1,0,0,,0,26,26,53,1,
,,,,,,,,,,,,,FF,,,,,,,,1.2173,,,,,,,,,,,,,,,,,,,,,,60fcdf62ae64294443dd010d,610368b8b1bd52c528ebd7b6,2021-07-29_19h50.32.535,Simcolourproject_2stim_asymm_v5,2020.2.10,MacIntel,60,61025ae37ef11b136ea224fe,,,,,,,,,1647,77.83203125,-57.1953125,1,0,0,response3disk,,5,9.8515625,-1.4921875,1,0,0,rectangle,9.8515625,-1.4921875,1,0,0,,,,,,,9.8515625,-1.4921875,1,0,0,,0,27,27,78,1,
,,,,,,,,,,,,,FF,,,,,,,,1.334,,,,,,,,,,,,,,,,,,,,,,60fcdf62ae64294443dd010d,610368b8b1bd52c528ebd7b6,2021-07-29_19h50.32.535,Simcolourproject_2stim_asymm_v5,2020.2.10,MacIntel,60,61025ae37ef11b136ea224fe,,,,,,,,,2077,44.921875,-59.96875,1,0,0,response3disk,,4,17.25,-0.31640625,1,0,0,rectangle,17.25,-0.31640625,1,0,0,,,,,,,17.25,-0.31640625,1,0,0,,0,28,28,134,1,
,,,,,,,,,,,,,FF,,,,,,,,1.3508,,,,,,,,,,,,,,,,,,,,,,60fcdf62ae64294443dd010d,610368b8b1bd52c528ebd7b6,2021-07-29_19h50.32.535,Simcolourproject_2stim_asymm_v5,2020.2.10,MacIntel,60,61025ae37ef11b136ea224fe,,,,,,,,,2651,-64.25,-108.953125,1,0,0,response5disk,,3,-6.91015625,-3.12890625,1,0,0,rectangle,-6.91015625,-3.12890625,1,0,0,,,,,,,-6.91015625,-3.12890625,1,0,0,,0,29,29,39,1,
,,,,,,,,,,,,,FF,,,,,,,,0.7837,,,,,,,,,,,,,,,,,,,,,,60fcdf62ae64294443dd010d,610368b8b1bd52c528ebd7b6,2021-07-29_19h50.32.535,Simcolourproject_2stim_asymm_v5,2020.2.10,MacIntel,60,61025ae37ef11b136ea224fe,,,,,,,,,2620,89.85546875,-50.7578125,1,0,0,response3disk,,5,17.171875,-12.51171875,1,0,0,rectangle,17.171875,-12.51171875,1,0,0,,,,,,,17.171875,-12.51171875,1,0,0,,0,30,30,124,1,
,,,,,,,,,,,,,FF,,,,,,,,0.6999,,,,,,,,,,,,,,,,,,,,,,60fcdf62ae64294443dd010d,610368b8b1bd52c528ebd7b6,2021-07-29_19h50.32.535,Simcolourproject_2stim_asymm_v5,2020.2.10,MacIntel,60,61025ae37ef11b136ea224fe,,,,,,,,,2231,-67.95703125,-49.4453125,1,0,0,response5disk,,2,-11.1171875,3.359375,1,0,0,rectangle,-11.1171875,3.359375,1,0,0,,,,,,,-11.1171875,3.359375,1,0,0,,0,31,31,9,1,
,,,,,,,,,,,,,FF,,,,,,,,1.0334,,,,,,,,,,,,,,,,,,,,,,60fcdf62ae64294443dd010d,610368b8b1bd52c528ebd7b6,2021-07-29_19h50.32.535,Simcolourproject_2stim_asymm_v5,2020.2.10,MacIntel,60,61025ae37ef11b136ea224fe,,,,,,,,,3080,97.4609375,-36.13671875,1,0,0,response3disk,,5,15.08984375,-10.84765625,1,0,0,rectangle,15.08984375,-10.84765625,1,0,0,,,,,,,15.08984375,-10.84765625,1,0,0,,0,32,32,47,1,
,,,,,,,,,,,,,FF,,,,,,,,0.7165,,,,,,,,,,,,,,,,,,,,,,60fcdf62ae64294443dd010d,610368b8b1bd52c528ebd7b6,2021-07-29_19h50.32.535,Simcolourproject_2stim_asymm_v5,2020.2.10,MacIntel,60,61025ae37ef11b136ea224fe,,,,,,,,,2193,25.640625,-80.44921875,1,0,0,response3disk,,4,2.2109375,-4.51171875,1,0,0,rectangle,2.2109375,-4.51171875,1,0,0,,,,,,,2.2109375,-4.51171875,1,0,0,,0,33,33,44,1,
,,,,,,,,,,,,,FF,,,,,,,,0.8333,,,,,,,,,,,,,,,,,,,,,,60fcdf62ae64294443dd010d,610368b8b1bd52c528ebd7b6,2021-07-29_19h50.32.535,Simcolourproject_2stim_asymm_v5,2020.2.10,MacIntel,60,61025ae37ef11b136ea224fe,,,,,,,,,2024,70.99609375,42.05078125,1,0,0,response1disk,,6,-6.39453125,9.31640625,1,0,0,rectangle,-6.39453125,9.31640625,1,0,0,,,,,,,-6.39453125,9.31640625,1,0,0,,0,34,34,116,1,
,,,,,,,,,,,,,FF,,,,,,,,1.0826,,,,,,,,,,,,,,,,,,,,,,60fcdf62ae64294443dd010d,610368b8b1bd52c528ebd7b6,2021-07-29_19h50.32.535,Simcolourproject_2stim_asymm_v5,2020.2.10,MacIntel,60,61025ae37ef11b136ea224fe,,,,,,,,,3156,-83.30078125,-34.23828125,1,0,0,response5disk,,2,4.625,7.28515625,1,0,0,rectangle,4.625,7.28515625,1,0,0,,,,,,,4.625,7.28515625,1,0,0,,0,35,35,36,1,
,,,,,,,,,,,,,FF,,,,,,,,0.8516,,,,,,,,,,,,,,,,,,,,,,60fcdf62ae64294443dd010d,610368b8b1bd52c528ebd7b6,2021-07-29_19h50.32.535,Simcolourproject_2stim_asymm_v5,2020.2.10,MacIntel,60,61025ae37ef11b136ea224fe,,,,,,,,,1904,48.5703125,-84.046875,1,0,0,response3disk,,4,-7.23046875,9.875,1,0,0,rectangle,-7.23046875,9.875,1,0,0,,,,,,,-7.23046875,9.875,1,0,0,,0,36,36,59,1,
,,,,,,,,,,,,,FF,,,,,,,,1.2013,,,,,,,,,,,,,,,,,,,,,,60fcdf62ae64294443dd010d,610368b8b1bd52c528ebd7b6,2021-07-29_19h50.32.535,Simcolourproject_2stim_asymm_v5,2020.2.10,MacIntel,60,61025ae37ef11b136ea224fe,,,,,,,,,4025,-40.36328125,-81.7890625,1,0,0,response5disk,,3,21.30078125,3.12109375,1,0,0,rectangle,21.30078125,3.12109375,1,0,0,,,,,,,21.30078125,3.12109375,1,0,0,,0,37,37,150,1,
,,,,,,,,,,,,,FF,,,,,,,,0.6833,,,,,,,,,,,,,,,,,,,,,,60fcdf62ae64294443dd010d,610368b8b1bd52c528ebd7b6,2021-07-29_19h50.32.535,Simcolourproject_2stim_asymm_v5,2020.2.10,MacIntel,60,61025ae37ef11b136ea224fe,,,,,,,,,2749,98.82421875,-42.3046875,1,0,0,response3disk,,5,12.875,-8.7421875,1,0,0,rectangle,12.875,-8.7421875,1,0,0,,,,,,,12.875,-8.7421875,1,0,0,,0,38,38,43,1,
,,,,,,,,,,,,,FF,,,,,,,,0.8829,,,,,,,,,,,,,,,,,,,,,,60fcdf62ae64294443dd010d,610368b8b1bd52c528ebd7b6,2021-07-29_19h50.32.535,Simcolourproject_2stim_asymm_v5,2020.2.10,MacIntel,60,61025ae37ef11b136ea224fe,,,,,,,,,509,98.5,64.58984375,1,0,0,response1disk,,6,-5.37890625,-6.0546875,1,0,0,rectangle,92.296875,-47.10546875,1,0,0,response3disk_3,TRUE,5,3,"[40,217,22,283,276,187,55,64,182,114,173,76,290,241,1,314,302,211,71,293]",1.6001,3.87890625,-11.4765625,1,0,0,rectangle,0,39,39,19,1,
,,,,,,,,,,,,,FF,,,,,,,,1.9342,,,,,,,,,,,,,,,,,,,,,,60fcdf62ae64294443dd010d,610368b8b1bd52c528ebd7b6,2021-07-29_19h50.32.535,Simcolourproject_2stim_asymm_v5,2020.2.10,MacIntel,60,61025ae37ef11b136ea224fe,,,,,,,,,299,37.8515625,-73.84375,1,0,0,response3disk,,4,21.76953125,-5.12890625,1,0,0,rectangle,21.76953125,-5.12890625,1,0,0,,,,,,,21.76953125,-5.12890625,1,0,0,,0,40,40,125,1,
,,,,,,,,,,,,,FF,,,,,,,,1.1834,,,,,,,,,,,,,,,,,,,,,,60fcdf62ae64294443dd010d,610368b8b1bd52c528ebd7b6,2021-07-29_19h50.32.535,Simcolourproject_2stim_asymm_v5,2020.2.10,MacIntel,60,61025ae37ef11b136ea224fe,,,,,,,,,3176,74.47265625,-41.36328125,1,0,0,response3disk,,5,4.0234375,17.78515625,1,0,0,rectangle,4.0234375,17.78515625,1,0,0,,,,,,,4.0234375,17.78515625,1,0,0,,0,41,41,56,1,
,,,,,,,,,,,,,FF,,,,,,,,0.8831,,,,,,,,,,,,,,,,,,,,,,60fcdf62ae64294443dd010d,610368b8b1bd52c528ebd7b6,2021-07-29_19h50.32.535,Simcolourproject_2stim_asymm_v5,2020.2.10,MacIntel,60,61025ae37ef11b136ea224fe,,,,,,,,,4044,28.23046875,-66.37890625,1,0,0,response3disk,,4,10.94921875,-8.73046875,1,0,0,rectangle,10.94921875,-8.73046875,1,0,0,,,,,,,10.94921875,-8.73046875,1,0,0,,0,42,42,92,1,
,,,,,,,,,,,,,FF,,,,,,,,1.2835,,,,,,,,,,,,,,,,,,,,,,60fcdf62ae64294443dd010d,610368b8b1bd52c528ebd7b6,2021-07-29_19h50.32.535,Simcolourproject_2stim_asymm_v5,2020.2.10,MacIntel,60,61025ae37ef11b136ea224fe,,,,,,,,,897,-54.2421875,-71.66796875,1,0,0,response5disk,,3,-3.08984375,3.73828125,1,0,0,rectangle,-3.08984375,3.73828125,1,0,0,,,,,,,-3.08984375,3.73828125,1,0,0,,0,43,43,55,1,
,,,,,,,,,,,,,FF,,,,,,,,0.9839,,,,,,,,,,,,,,,,,,,,,,60fcdf62ae64294443dd010d,610368b8b1bd52c528ebd7b6,2021-07-29_19h50.32.535,Simcolourproject_2stim_asymm_v5,2020.2.10,MacIntel,60,61025ae37ef11b136ea224fe,,,,,,,,,2288,-31.5625,-56.70703125,1,0,0,response5disk,,3,8.65234375,10.3671875,1,0,0,rectangle,8.65234375,10.3671875,1,0,0,,,,,,,8.65234375,10.3671875,1,0,0,,0,44,44,138,1,
,,,,,,,,,,,,,FF,,,,,,,,0.9836,,,,,,,,,,,,,,,,,,,,,,60fcdf62ae64294443dd010d,610368b8b1bd52c528ebd7b6,2021-07-29_19h50.32.535,Simcolourproject_2stim_asymm_v5,2020.2.10,MacIntel,60,61025ae37ef11b136ea224fe,,,,,,,,,1156,101.6796875,-43.91796875,1,0,0,response3disk,,5,1.85546875,-13.11328125,1,0,0,rectangle,1.85546875,-13.11328125,1,0,0,,,,,,,1.85546875,-13.11328125,1,0,0,,0,45,45,98,1,
,,,,,,,,,,,,,FF,,,,,,,,2.7501,,,,,,,,,,,,,,,,,,,,,,60fcdf62ae64294443dd010d,610368b8b1bd52c528ebd7b6,2021-07-29_19h50.32.535,Simcolourproject_2stim_asymm_v5,2020.2.10,MacIntel,60,61025ae37ef11b136ea224fe,,,,,,,,,426,85.58203125,-45.2109375,1,0,0,response3disk,,5,-9.375,-3.4921875,1,0,0,rectangle,-9.375,-3.4921875,1,0,0,,,,,,,-9.375,-3.4921875,1,0,0,,0,46,46,100,1,
,,,,,,,,,,,,,FF,,,,,,,,0.9165,,,,,,,,,,,,,,,,,,,,,,60fcdf62ae64294443dd010d,610368b8b1bd52c528ebd7b6,2021-07-29_19h50.32.535,Simcolourproject_2stim_asymm_v5,2020.2.10,MacIntel,60,61025ae37ef11b136ea224fe,,,,,,,,,3045,-33.078125,53.2265625,1,0,0,response7disk,,0,4.19140625,-0.875,1,0,0,rectangle,4.19140625,-0.875,1,0,0,,,,,,,4.19140625,-0.875,1,0,0,,0,47,47,41,1,
,,,,,,,,,,,,,FF,,,,,,,,0.9329,,,,,,,,,,,,,,,,,,,,,,60fcdf62ae64294443dd010d,610368b8b1bd52c528ebd7b6,2021-07-29_19h50.32.535,Simcolourproject_2stim_asymm_v5,2020.2.10,MacIntel,60,61025ae37ef11b136ea224fe,,,,,,,,,2200,-80.6328125,-31.55078125,1,0,0,response5disk,,2,14.96875,-1.74609375,1,0,0,rectangle,14.96875,-1.74609375,1,0,0,,,,,,,14.96875,-1.74609375,1,0,0,,0,48,48,111,1,
,,,,,,,,,,,,,FF,,,,,,,,2.0844,,,,,,,,,,,,,,,,,,,,,,60fcdf62ae64294443dd010d,610368b8b1bd52c528ebd7b6,2021-07-29_19h50.32.535,Simcolourproject_2stim_asymm_v5,2020.2.10,MacIntel,60,61025ae37ef11b136ea224fe,,,,,,,,,4156,48.93359375,-79.6875,1,0,0,response3disk,,4,23.5078125,-9.6796875,1,0,0,rectangle,23.5078125,-9.6796875,1,0,0,,,,,,,23.5078125,-9.6796875,1,0,0,,0,49,49,129,1,
,,,,,,,,,,,,,FF,,,,,,,,1.5664,,,,,,,,,,,,,,,,,,,,,,60fcdf62ae64294443dd010d,610368b8b1bd52c528ebd7b6,2021-07-29_19h50.32.535,Simcolourproject_2stim_asymm_v5,2020.2.10,MacIntel,60,61025ae37ef11b136ea224fe,,,,,,,,,1079,-27.28515625,-96.6328125,1,0,0,response5disk,,3,4.4765625,2.4296875,1,0,0,rectangle,4.4765625,2.4296875,1,0,0,,,,,,,4.4765625,2.4296875,1,0,0,,0,50,50,29,1,
,,,,,,,,,,,,,FF,,,,,,,,1.3833,,,,,,,,,,,,,,,,,,,,,,60fcdf62ae64294443dd010d,610368b8b1bd52c528ebd7b6,2021-07-29_19h50.32.535,Simcolourproject_2stim_asymm_v5,2020.2.10,MacIntel,60,61025ae37ef11b136ea224fe,,,,,,,,,4322,71.20703125,-39.16015625,1,0,0,response3disk,,5,2.2421875,5.20703125,1,0,0,rectangle,2.2421875,5.20703125,1,0,0,,,,,,,2.2421875,5.20703125,1,0,0,,0,51,51,139,1,
,,,,,,,,,,,,,FF,,,,,,,,0.9171,,,,,,,,,,,,,,,,,,,,,,60fcdf62ae64294443dd010d,610368b8b1bd52c528ebd7b6,2021-07-29_19h50.32.535,Simcolourproject_2stim_asymm_v5,2020.2.10,MacIntel,60,61025ae37ef11b136ea224fe,,,,,,,,,1782,33.46875,-83.265625,1,0,0,response3disk,,4,5.17578125,-2.734375,1,0,0,rectangle,5.17578125,-2.734375,1,0,0,,,,,,,5.17578125,-2.734375,1,0,0,,0,52,52,104,1,
,,,,,,,,,,,,,FF,,,,,,,,0.85,,,,,,,,,,,,,,,,,,,,,,60fcdf62ae64294443dd010d,610368b8b1bd52c528ebd7b6,2021-07-29_19h50.32.535,Simcolourproject_2stim_asymm_v5,2020.2.10,MacIntel,60,61025ae37ef11b136ea224fe,,,,,,,,,4217,97.9453125,-43.8359375,1,0,0,response3disk,,5,-6.65625,-9.625,1,0,0,rectangle,-6.65625,-9.625,1,0,0,,,,,,,-6.65625,-9.625,1,0,0,,0,53,53,46,1,
,,,,,,,,,,,,,FF,,,,,,,,1.6838,,,,,,,,,,,,,,,,,,,,,,60fcdf62ae64294443dd010d,610368b8b1bd52c528ebd7b6,2021-07-29_19h50.32.535,Simcolourproject_2stim_asymm_v5,2020.2.10,MacIntel,60,61025ae37ef11b136ea224fe,,,,,,,,,4188,-61.203125,-78.94921875,1,0,0,response5disk,,3,-8.99609375,-2.9375,1,0,0,rectangle,88.8359375,46.7734375,1,0,0,response1disk_3,TRUE,6,6,"[40,217,22,283,276,187,55,64,182,114,173,76,290,241,1,314,302,211,71,293]",1.4336,3.6171875,3.1484375,1,0,0,rectangle,0,54,54,17,1,
,,,,,,,,,,,,,FF,,,,,,,,0.8347,,,,,,,,,,,,,,,,,,,,,,60fcdf62ae64294443dd010d,610368b8b1bd52c528ebd7b6,2021-07-29_19h50.32.535,Simcolourproject_2stim_asymm_v5,2020.2.10,MacIntel,60,61025ae37ef11b136ea224fe,,,,,,,,,3662,-90.82421875,-22.359375,1,0,0,response5disk,,2,-4.4921875,8.69921875,1,0,0,rectangle,-4.4921875,8.69921875,1,0,0,,,,,,,-4.4921875,8.69921875,1,0,0,,0,55,55,79,1,
,,,,,,,,,,,,,FF,,,,,,,,0.65,,,,,,,,,,,,,,,,,,,,,,60fcdf62ae64294443dd010d,610368b8b1bd52c528ebd7b6,2021-07-29_19h50.32.535,Simcolourproject_2stim_asymm_v5,2020.2.10,MacIntel,60,61025ae37ef11b136ea224fe,,,,,,,,,1273,81.69921875,-37.5,1,0,0,response3disk,,5,14.6484375,-7.98828125,1,0,0,rectangle,14.6484375,-7.98828125,1,0,0,,,,,,,14.6484375,-7.98828125,1,0,0,,0,56,56,2,1,
,,,,,,,,,,,,,FF,,,,,,,,0.7495,,,,,,,,,,,,,,,,,,,,,,60fcdf62ae64294443dd010d,610368b8b1bd52c528ebd7b6,2021-07-29_19h50.32.535,Simcolourproject_2stim_asymm_v5,2020.2.10,MacIntel,60,61025ae37ef11b136ea224fe,,,,,,,,,2023,-35.80859375,-80.08984375,1,0,0,response5disk,,3,23.79296875,7.7578125,1,0,0,rectangle,23.79296875,7.7578125,1,0,0,,,,,,,23.79296875,7.7578125,1,0,0,,0,57,57,27,1,
,,,,,,,,,,,,,FF,,,,,,,,1.2837,,,,,,,,,,,,,,,,,,,,,,60fcdf62ae64294443dd010d,610368b8b1bd52c528ebd7b6,2021-07-29_19h50.32.535,Simcolourproject_2stim_asymm_v5,2020.2.10,MacIntel,60,61025ae37ef11b136ea224fe,,,,,,,,,2852,85.97265625,-47.984375,1,0,0,response3disk,,5,3.0390625,9.80859375,1,0,0,rectangle,3.0390625,9.80859375,1,0,0,,,,,,,3.0390625,9.80859375,1,0,0,,0,58,58,76,1,
,,,,,,,,,,,,,FF,,,,,,,,1.0153,,,,,,,,,,,,,,,,,,,,,,60fcdf62ae64294443dd010d,610368b8b1bd52c528ebd7b6,2021-07-29_19h50.32.535,Simcolourproject_2stim_asymm_v5,2020.2.10,MacIntel,60,61025ae37ef11b136ea224fe,,,,,,,,,2671,-26.73046875,-105.9726563,1,0,0,response5disk,,3,-1.18359375,-3.58203125,1,0,0,rectangle,-1.18359375,-3.58203125,1,0,0,,,,,,,-1.18359375,-3.58203125,1,0,0,,0,59,59,99,1,
,,,,,,,,,,,,,FF,,,,,,,,0.8832,,,,,,,,,,,,,,,,,,,,,,60fcdf62ae64294443dd010d,610368b8b1bd52c528ebd7b6,2021-07-29_19h50.32.535,Simcolourproject_2stim_asymm_v5,2020.2.10,MacIntel,60,61025ae37ef11b136ea224fe,,,,,,,,,877,46.76953125,-72.515625,1,0,0,response3disk,,4,-1.3671875,2.50390625,1,0,0,rectangle,-1.3671875,2.50390625,1,0,0,,,,,,,-1.3671875,2.50390625,1,0,0,,0,60,60,63,1,
,,,,,,,,,,,,,FF,,,,,,,,1.8001,,,,,,,,,,,,,,,,,,,,,,60fcdf62ae64294443dd010d,610368b8b1bd52c528ebd7b6,2021-07-29_19h50.32.535,Simcolourproject_2stim_asymm_v5,2020.2.10,MacIntel,60,61025ae37ef11b136ea224fe,,,,,,,,,3830,87.0390625,-54.3203125,1,0,0,response3disk,,5,11.59375,-2.0859375,1,0,0,rectangle,11.59375,-2.0859375,1,0,0,,,,,,,11.59375,-2.0859375,1,0,0,,0,61,61,75,1,
,,,,,,,,,,,,,FF,,,,,,,,1.1833,,,,,,,,,,,,,,,,,,,,,,60fcdf62ae64294443dd010d,610368b8b1bd52c528ebd7b6,2021-07-29_19h50.32.535,Simcolourproject_2stim_asymm_v5,2020.2.10,MacIntel,60,61025ae37ef11b136ea224fe,,,,,,,,,212,84.2890625,27.29296875,1,0,0,response1disk,,6,-29.9296875,-14.94140625,1,0,0,rectangle,-29.9296875,-14.94140625,1,0,0,,,,,,,-29.9296875,-14.94140625,1,0,0,,0,62,62,16,1,
,,,,,,,,,,,,,FF,,,,,,,,0.6835,,,,,,,,,,,,,,,,,,,,,,60fcdf62ae64294443dd010d,610368b8b1bd52c528ebd7b6,2021-07-29_19h50.32.535,Simcolourproject_2stim_asymm_v5,2020.2.10,MacIntel,60,61025ae37ef11b136ea224fe,,,,,,,,,2804,66.2734375,34.03125,1,0,0,response1disk,,6,3.53125,-5.63671875,1,0,0,rectangle,17.3515625,83.91015625,1,0,0,response1disk_3,TRUE,7,7,"[40,217,22,283,276,187,55,64,182,114,173,76,290,241,1,314,302,211,71,293]",1.2001,4.8203125,-6.57421875,1,0,0,rectangle,0,63,63,81,1,
,,,,,,,,,,,,,FF,,,,,,,,0.8506,,,,,,,,,,,,,,,,,,,,,,60fcdf62ae64294443dd010d,610368b8b1bd52c528ebd7b6,2021-07-29_19h50.32.535,Simcolourproject_2stim_asymm_v5,2020.2.10,MacIntel,60,61025ae37ef11b136ea224fe,,,,,,,,,2580,87.9453125,42.53515625,1,0,0,response1disk,,6,7.80078125,3.703125,1,0,0,rectangle,7.80078125,3.703125,1,0,0,,,,,,,7.80078125,3.703125,1,0,0,,0,64,64,154,1,
,,,,,,,,,,,,,FF,,,,,,,,0.5333,,,,,,,,,,,,,,,,,,,,,,60fcdf62ae64294443dd010d,610368b8b1bd52c528ebd7b6,2021-07-29_19h50.32.535,Simcolourproject_2stim_asymm_v5,2020.2.10,MacIntel,60,61025ae37ef11b136ea224fe,,,,,,,,,2207,66.5078125,31.21484375,1,0,0,response1disk,,6,6.51953125,-5.88671875,1,0,0,rectangle,6.51953125,-5.88671875,1,0,0,,,,,,,6.51953125,-5.88671875,1,0,0,,0,65,65,121,1,
,,,,,,,,,,,,,FF,,,,,,,,0.9178,,,,,,,,,,,,,,,,,,,,,,60fcdf62ae64294443dd010d,610368b8b1bd52c528ebd7b6,2021-07-29_19h50.32.535,Simcolourproject_2stim_asymm_v5,2020.2.10,MacIntel,60,61025ae37ef11b136ea224fe,,,,,,,,,3486,61.8359375,-44.3359375,1,0,0,response3disk,,5,0.4921875,-15.7109375,1,0,0,rectangle,0.4921875,-15.7109375,1,0,0,,,,,,,0.4921875,-15.7109375,1,0,0,,0,66,66,18,1,
,,,,,,,,,,,,,FF,,,,,,,,0.8845,,,,,,,,,,,,,,,,,,,,,,60fcdf62ae64294443dd010d,610368b8b1bd52c528ebd7b6,2021-07-29_19h50.32.535,Simcolourproject_2stim_asymm_v5,2020.2.10,MacIntel,60,61025ae37ef11b136ea224fe,,,,,,,,,2997,-32.83203125,-77.42578125,1,0,0,response5disk,,3,4.8828125,-9.578125,1,0,0,rectangle,4.8828125,-9.578125,1,0,0,,,,,,,4.8828125,-9.578125,1,0,0,,0,67,67,135,1,
,,,,,,,,,,,,,FF,,,,,,,,0.85,,,,,,,,,,,,,,,,,,,,,,60fcdf62ae64294443dd010d,610368b8b1bd52c528ebd7b6,2021-07-29_19h50.32.535,Simcolourproject_2stim_asymm_v5,2020.2.10,MacIntel,60,61025ae37ef11b136ea224fe,,,,,,,,,4160,85.44140625,-43.09375,1,0,0,response3disk,,5,1.8828125,-15.859375,1,0,0,rectangle,1.8828125,-15.859375,1,0,0,,,,,,,1.8828125,-15.859375,1,0,0,,0,68,68,145,1,
,,,,,,,,,,,,,FF,,,,,,,,1.0496,,,,,,,,,,,,,,,,,,,,,,60fcdf62ae64294443dd010d,610368b8b1bd52c528ebd7b6,2021-07-29_19h50.32.535,Simcolourproject_2stim_asymm_v5,2020.2.10,MacIntel,60,61025ae37ef11b136ea224fe,,,,,,,,,905,67.8828125,-71.23046875,1,0,0,response3disk,,4,18.88671875,0.53125,1,0,0,rectangle,18.88671875,0.53125,1,0,0,,,,,,,18.88671875,0.53125,1,0,0,,0,69,69,114,1,
,,,,,,,,,,,,,FF,,,,,,,,1.0666,,,,,,,,,,,,,,,,,,,,,,60fcdf62ae64294443dd010d,610368b8b1bd52c528ebd7b6,2021-07-29_19h50.32.535,Simcolourproject_2stim_asymm_v5,2020.2.10,MacIntel,60,61025ae37ef11b136ea224fe,,,,,,,,,3193,-50.62890625,-97.6015625,1,0,0,response5disk,,3,-2.2890625,-5.85546875,1,0,0,rectangle,86.28515625,59.24609375,1,0,0,response1disk_3,TRUE,6,6,"[40,217,22,283,276,187,55,64,182,114,173,76,290,241,1,314,302,211,71,293]",1.1664,-0.859375,-9.265625,1,0,0,rectangle,0,70,70,119,1,
,,,,,,,,,,,,,FF,,,,,,,,1.2832,,,,,,,,,,,,,,,,,,,,,,60fcdf62ae64294443dd010d,610368b8b1bd52c528ebd7b6,2021-07-29_19h50.32.535,Simcolourproject_2stim_asymm_v5,2020.2.10,MacIntel,60,61025ae37ef11b136ea224fe,,,,,,,,,2221,90.48046875,54.83203125,1,0,0,response1disk,,6,-5.82421875,-6,1,0,0,rectangle,-5.82421875,-6,1,0,0,,,,,,,-5.82421875,-6,1,0,0,,0,71,71,4,1,
,,,,,,,,,,,,,FF,,,,,,,,0.8506,,,,,,,,,,,,,,,,,,,,,,60fcdf62ae64294443dd010d,610368b8b1bd52c528ebd7b6,2021-07-29_19h50.32.535,Simcolourproject_2stim_asymm_v5,2020.2.10,MacIntel,60,61025ae37ef11b136ea224fe,,,,,,,,,896,75.2421875,40.3203125,1,0,0,response1disk,,6,8.51953125,-7.609375,1,0,0,rectangle,8.51953125,-7.609375,1,0,0,,,,,,,8.51953125,-7.609375,1,0,0,,0,72,72,107,1,
,,,,,,,,,,,,,FF,,,,,,,,0.6336,,,,,,,,,,,,,,,,,,,,,,60fcdf62ae64294443dd010d,610368b8b1bd52c528ebd7b6,2021-07-29_19h50.32.535,Simcolourproject_2stim_asymm_v5,2020.2.10,MacIntel,60,61025ae37ef11b136ea224fe,,,,,,,,,559,70.390625,-27.9375,1,0,0,response3disk,,5,1.4375,-4.64453125,1,0,0,rectangle,1.4375,-4.64453125,1,0,0,,,,,,,1.4375,-4.64453125,1,0,0,,0,73,73,86,1,
,,,,,,,,,,,,,FF,,,,,,,,1.3836,,,,,,,,,,,,,,,,,,,,,,60fcdf62ae64294443dd010d,610368b8b1bd52c528ebd7b6,2021-07-29_19h50.32.535,Simcolourproject_2stim_asymm_v5,2020.2.10,MacIntel,60,61025ae37ef11b136ea224fe,,,,,,,,,2215,90.15625,48.33984375,1,0,0,response1disk,,6,-2.15625,-3.44140625,1,0,0,rectangle,-2.15625,-3.44140625,1,0,0,,,,,,,-2.15625,-3.44140625,1,0,0,,0,74,74,25,1,
,,,,,,,,,,,,,FF,,,,,,,,0.9839,,,,,,,,,,,,,,,,,,,,,,60fcdf62ae64294443dd010d,610368b8b1bd52c528ebd7b6,2021-07-29_19h50.32.535,Simcolourproject_2stim_asymm_v5,2020.2.10,MacIntel,60,61025ae37ef11b136ea224fe,,,,,,,,,1019,71.13671875,-59.74609375,1,0,0,response3disk,,5,6.30078125,-4.8671875,1,0,0,rectangle,-42.0703125,-76.78515625,1,0,0,response5disk_3,TRUE,3,3,"[40,217,22,283,276,187,55,64,182,114,173,76,290,241,1,314,302,211,71,293]",1.6827,-1.35546875,-0.16015625,1,0,0,rectangle,0,75,75,28,1,
,,,,,,,,,,,,,FF,,,,,,,,1.1006,,,,,,,,,,,,,,,,,,,,,,60fcdf62ae64294443dd010d,610368b8b1bd52c528ebd7b6,2021-07-29_19h50.32.535,Simcolourproject_2stim_asymm_v5,2020.2.10,MacIntel,60,61025ae37ef11b136ea224fe,,,,,,,,,2488,-46.109375,-62.0546875,1,0,0,response5disk,,3,-14.84765625,-7.765625,1,0,0,rectangle,-14.84765625,-7.765625,1,0,0,,,,,,,-14.84765625,-7.765625,1,0,0,,0,76,76,143,1,
,,,,,,,,,,,,,FF,,,,,,,,1.0675,,,,,,,,,,,,,,,,,,,,,,60fcdf62ae64294443dd010d,610368b8b1bd52c528ebd7b6,2021-07-29_19h50.32.535,Simcolourproject_2stim_asymm_v5,2020.2.10,MacIntel,60,61025ae37ef11b136ea224fe,,,,,,,,,4233,99.85546875,41.64453125,1,0,0,response1disk,,6,15.10546875,-3.5546875,1,0,0,rectangle,15.10546875,-3.5546875,1,0,0,,,,,,,15.10546875,-3.5546875,1,0,0,,0,77,77,97,1,
,,,,,,,,,,,,,FF,,,,,,,,2.0483,,,,,,,,,,,,,,,,,,,,,,60fcdf62ae64294443dd010d,610368b8b1bd52c528ebd7b6,2021-07-29_19h50.32.535,Simcolourproject_2stim_asymm_v5,2020.2.10,MacIntel,60,61025ae37ef11b136ea224fe,,,,,,,,,3007,34.6171875,-82.0703125,1,0,0,response3disk,,4,12.12109375,-4.05078125,1,0,0,rectangle,12.12109375,-4.05078125,1,0,0,,,,,,,12.12109375,-4.05078125,1,0,0,,0,78,78,146,1,
,,,,,,,,,,,,,FF,,,,,,,,0.8179,,,,,,,,,,,,,,,,,,,,,,60fcdf62ae64294443dd010d,610368b8b1bd52c528ebd7b6,2021-07-29_19h50.32.535,Simcolourproject_2stim_asymm_v5,2020.2.10,MacIntel,60,61025ae37ef11b136ea224fe,,,,,,,,,1774,94.4609375,42.265625,1,0,0,response1disk,,6,-3.703125,1.64453125,1,0,0,rectangle,-3.703125,1.64453125,1,0,0,,,,,,,-3.703125,1.64453125,1,0,0,,0,79,79,48,1,
,,,,,,,,,,,,,FF,,,,,,,,0.7163,,,,,,,,,,,,,,,,,,,,,,60fcdf62ae64294443dd010d,610368b8b1bd52c528ebd7b6,2021-07-29_19h50.32.535,Simcolourproject_2stim_asymm_v5,2020.2.10,MacIntel,60,61025ae37ef11b136ea224fe,,,,,,,,,123,61.91015625,-19.56640625,1,0,0,response3disk,,5,10.18359375,2.82421875,1,0,0,rectangle,10.18359375,2.82421875,1,0,0,,,,,,,10.18359375,2.82421875,1,0,0,,0,80,80,156,1,
,,,,,,,,,,,,,FF,,,,,,,,1.7504,,,,,,,,,,,,,,,,,,,,,,60fcdf62ae64294443dd010d,610368b8b1bd52c528ebd7b6,2021-07-29_19h50.32.535,Simcolourproject_2stim_asymm_v5,2020.2.10,MacIntel,60,61025ae37ef11b136ea224fe,,,,,,,,,195,42.12890625,-88,1,0,0,response3disk,,4,4.84765625,12.1015625,1,0,0,rectangle,4.84765625,12.1015625,1,0,0,,,,,,,4.84765625,12.1015625,1,0,0,,0,81,81,33,1,
,,,,,,,,,,,,,FF,,,,,,,,1.0835,,,,,,,,,,,,,,,,,,,,,,60fcdf62ae64294443dd010d,610368b8b1bd52c528ebd7b6,2021-07-29_19h50.32.535,Simcolourproject_2stim_asymm_v5,2020.2.10,MacIntel,60,61025ae37ef11b136ea224fe,,,,,,,,,1063,-43.16015625,-100.2695313,1,0,0,response5disk,,3,-1.2265625,3.3359375,1,0,0,rectangle,-1.2265625,3.3359375,1,0,0,,,,,,,-1.2265625,3.3359375,1,0,0,,0,82,82,108,1,
,,,,,,,,,,,,,FF,,,,,,,,0.967,,,,,,,,,,,,,,,,,,,,,,60fcdf62ae64294443dd010d,610368b8b1bd52c528ebd7b6,2021-07-29_19h50.32.535,Simcolourproject_2stim_asymm_v5,2020.2.10,MacIntel,60,61025ae37ef11b136ea224fe,,,,,,,,,1340,86.78125,-36.734375,1,0,0,response3disk,,5,10.6640625,8.90625,1,0,0,rectangle,10.6640625,8.90625,1,0,0,,,,,,,10.6640625,8.90625,1,0,0,,0,83,83,144,1,
,,,,,,,,,,,,,FF,,,,,,,,0.8843,,,,,,,,,,,,,,,,,,,,,,60fcdf62ae64294443dd010d,610368b8b1bd52c528ebd7b6,2021-07-29_19h50.32.535,Simcolourproject_2stim_asymm_v5,2020.2.10,MacIntel,60,61025ae37ef11b136ea224fe,,,,,,,,,3155,-70.60546875,-38.34765625,1,0,0,response5disk,,2,-2.42578125,3.55859375,1,0,0,rectangle,-2.42578125,3.55859375,1,0,0,,,,,,,-2.42578125,3.55859375,1,0,0,,0,84,84,13,1,
,,,,,,,,,,,,,FF,,,,,,,,0.7168,,,,,,,,,,,,,,,,,,,,,,60fcdf62ae64294443dd010d,610368b8b1bd52c528ebd7b6,2021-07-29_19h50.32.535,Simcolourproject_2stim_asymm_v5,2020.2.10,MacIntel,60,61025ae37ef11b136ea224fe,,,,,,,,,1692,52.265625,79.1953125,1,0,0,response1disk,,7,-5.97265625,4.8671875,1,0,0,rectangle,-5.97265625,4.8671875,1,0,0,,,,,,,-5.97265625,4.8671875,1,0,0,,0,85,85,51,1,
,,,,,,,,,,,,,FF,,,,,,,,0.9507,,,,,,,,,,,,,,,,,,,,,,60fcdf62ae64294443dd010d,610368b8b1bd52c528ebd7b6,2021-07-29_19h50.32.535,Simcolourproject_2stim_asymm_v5,2020.2.10,MacIntel,60,61025ae37ef11b136ea224fe,,,,,,,,,2277,100.7929688,30.63671875,1,0,0,response1disk,,6,-9.67578125,-4.37890625,1,0,0,rectangle,-9.67578125,-4.37890625,1,0,0,,,,,,,-9.67578125,-4.37890625,1,0,0,,0,86,86,77,1,
,,,,,,,,,,,,,FF,,,,,,,,0.8505,,,,,,,,,,,,,,,,,,,,,,60fcdf62ae64294443dd010d,610368b8b1bd52c528ebd7b6,2021-07-29_19h50.32.535,Simcolourproject_2stim_asymm_v5,2020.2.10,MacIntel,60,61025ae37ef11b136ea224fe,,,,,,,,,1069,70.90625,-21.50390625,1,0,0,response3disk,,5,-6.546875,6.0234375,1,0,0,rectangle,-6.546875,6.0234375,1,0,0,,,,,,,-6.546875,6.0234375,1,0,0,,0,87,87,67,1,
,,,,,,,,,,,,,FF,,,,,,,,1.1002,,,,,,,,,,,,,,,,,,,,,,60fcdf62ae64294443dd010d,610368b8b1bd52c528ebd7b6,2021-07-29_19h50.32.535,Simcolourproject_2stim_asymm_v5,2020.2.10,MacIntel,60,61025ae37ef11b136ea224fe,,,,,,,,,1964,-76.84765625,-33.12109375,1,0,0,response5disk,,2,-4.5078125,-1.69140625,1,0,0,rectangle,-4.5078125,-1.69140625,1,0,0,,,,,,,-4.5078125,-1.69140625,1,0,0,,0,88,88,70,1,
,,,,,,,,,,,,,FF,,,,,,,,0.8837,,,,,,,,,,,,,,,,,,,,,,60fcdf62ae64294443dd010d,610368b8b1bd52c528ebd7b6,2021-07-29_19h50.32.535,Simcolourproject_2stim_asymm_v5,2020.2.10,MacIntel,60,61025ae37ef11b136ea224fe,,,,,,,,,2931,90.3515625,33.55859375,1,0,0,response1disk,,6,-8.0234375,-6.2578125,1,0,0,rectangle,-8.0234375,-6.2578125,1,0,0,,,,,,,-8.0234375,-6.2578125,1,0,0,,0,89,89,141,1,
,,,,,,,,,,,,,FF,,,,,,,,1.2655,,,,,,,,,,,,,,,,,,,,,,60fcdf62ae64294443dd010d,610368b8b1bd52c528ebd7b6,2021-07-29_19h50.32.535,Simcolourproject_2stim_asymm_v5,2020.2.10,MacIntel,60,61025ae37ef11b136ea224fe,,,,,,,,,2099,-37.5,70.5859375,1,0,0,response7disk,,0,-5.1796875,4.51953125,1,0,0,rectangle,-5.1796875,4.51953125,1,0,0,,,,,,,-5.1796875,4.51953125,1,0,0,,0,90,90,149,1,
,,,,,,,,,,,,,FF,,,,,,,,0.8829,,,,,,,,,,,,,,,,,,,,,,60fcdf62ae64294443dd010d,610368b8b1bd52c528ebd7b6,2021-07-29_19h50.32.535,Simcolourproject_2stim_asymm_v5,2020.2.10,MacIntel,60,61025ae37ef11b136ea224fe,,,,,,,,,945,-33.140625,-70.42578125,1,0,0,response5disk,,3,-3.98828125,-16.6015625,1,0,0,rectangle,-3.98828125,-16.6015625,1,0,0,,,,,,,-3.98828125,-16.6015625,1,0,0,,0,91,91,12,1,
,,,,,,,,,,,,,FF,,,,,,,,0.5997,,,,,,,,,,,,,,,,,,,,,,60fcdf62ae64294443dd010d,610368b8b1bd52c528ebd7b6,2021-07-29_19h50.32.535,Simcolourproject_2stim_asymm_v5,2020.2.10,MacIntel,60,61025ae37ef11b136ea224fe,,,,,,,,,712,53.03125,-91.578125,1,0,0,response3disk,,4,5.6484375,2.3359375,1,0,0,rectangle,5.6484375,2.3359375,1,0,0,,,,,,,5.6484375,2.3359375,1,0,0,,0,92,92,126,1,
,,,,,,,,,,,,,FF,,,,,,,,1.5664,,,,,,,,,,,,,,,,,,,,,,60fcdf62ae64294443dd010d,610368b8b1bd52c528ebd7b6,2021-07-29_19h50.32.535,Simcolourproject_2stim_asymm_v5,2020.2.10,MacIntel,60,61025ae37ef11b136ea224fe,,,,,,,,,2192,49.9921875,88.1484375,1,0,0,response1disk,,7,-0.72265625,3.74609375,1,0,0,rectangle,-0.72265625,3.74609375,1,0,0,,,,,,,-0.72265625,3.74609375,1,0,0,,0,93,93,90,1,
,,,,,,,,,,,,,FF,,,,,,,,0.7834,,,,,,,,,,,,,,,,,,,,,,60fcdf62ae64294443dd010d,610368b8b1bd52c528ebd7b6,2021-07-29_19h50.32.535,Simcolourproject_2stim_asymm_v5,2020.2.10,MacIntel,60,61025ae37ef11b136ea224fe,,,,,,,,,1718,83.61328125,60.2265625,1,0,0,response1disk,,6,5.9921875,1.98046875,1,0,0,rectangle,5.9921875,1.98046875,1,0,0,,,,,,,5.9921875,1.98046875,1,0,0,,0,94,94,32,1,
,,,,,,,,,,,,,FF,,,,,,,,5.2175,,,,,,,,,,,,,,,,,,,,,,60fcdf62ae64294443dd010d,610368b8b1bd52c528ebd7b6,2021-07-29_19h50.32.535,Simcolourproject_2stim_asymm_v5,2020.2.10,MacIntel,60,61025ae37ef11b136ea224fe,,,,,,,,,575,39.21484375,-63.03515625,1,0,0,response3disk,,4,6.1953125,-10.76171875,1,0,0,rectangle,6.1953125,-10.76171875,1,0,0,,,,,,,6.1953125,-10.76171875,1,0,0,,0,95,95,21,1,
,,,,,,,,,,,,,FF,,,,,,,,1.1167,,,,,,,,,,,,,,,,,,,,,,60fcdf62ae64294443dd010d,610368b8b1bd52c528ebd7b6,2021-07-29_19h50.32.535,Simcolourproject_2stim_asymm_v5,2020.2.10,MacIntel,60,61025ae37ef11b136ea224fe,,,,,,,,,3878,-27.78125,-85.2578125,1,0,0,response5disk,,3,-12.67578125,-9.1328125,1,0,0,rectangle,-12.67578125,-9.1328125,1,0,0,,,,,,,-12.67578125,-9.1328125,1,0,0,,0,96,96,8,1,
,,,,,,,,,,,,,FF,,,,,,,,0.5168,,,,,,,,,,,,,,,,,,,,,,60fcdf62ae64294443dd010d,610368b8b1bd52c528ebd7b6,2021-07-29_19h50.32.535,Simcolourproject_2stim_asymm_v5,2020.2.10,MacIntel,60,61025ae37ef11b136ea224fe,,,,,,,,,1783,85.89453125,-38.9765625,1,0,0,response3disk,,5,11.1015625,-0.5078125,1,0,0,rectangle,11.1015625,-0.5078125,1,0,0,,,,,,,11.1015625,-0.5078125,1,0,0,,0,97,97,115,1,
,,,,,,,,,,,,,FF,,,,,,,,2.1837,,,,,,,,,,,,,,,,,,,,,,60fcdf62ae64294443dd010d,610368b8b1bd52c528ebd7b6,2021-07-29_19h50.32.535,Simcolourproject_2stim_asymm_v5,2020.2.10,MacIntel,60,61025ae37ef11b136ea224fe,,,,,,,,,375,96.90234375,66.55078125,1,0,0,response1disk,,6,-0.3125,3.8203125,1,0,0,rectangle,-0.3125,3.8203125,1,0,0,,,,,,,-0.3125,3.8203125,1,0,0,,0,98,98,89,1,
,,,,,,,,,,,,,FF,,,,,,,,0.9338,,,,,,,,,,,,,,,,,,,,,,60fcdf62ae64294443dd010d,610368b8b1bd52c528ebd7b6,2021-07-29_19h50.32.535,Simcolourproject_2stim_asymm_v5,2020.2.10,MacIntel,60,61025ae37ef11b136ea224fe,,,,,,,,,156,-30.7265625,-86.26953125,1,0,0,response5disk,,3,-6.01953125,5.8671875,1,0,0,rectangle,-6.01953125,5.8671875,1,0,0,,,,,,,-6.01953125,5.8671875,1,0,0,,0,99,99,61,1,
,,,,,,,,,,,,,FF,,,,,,,,0.9165,,,,,,,,,,,,,,,,,,,,,,60fcdf62ae64294443dd010d,610368b8b1bd52c528ebd7b6,2021-07-29_19h50.32.535,Simcolourproject_2stim_asymm_v5,2020.2.10,MacIntel,60,61025ae37ef11b136ea224fe,,,,,,,,,1460,-43.625,64.58984375,1,0,0,response7disk,,0,-1.66015625,-7.09765625,1,0,0,rectangle,-1.66015625,-7.09765625,1,0,0,,,,,,,-1.66015625,-7.09765625,1,0,0,,0,100,100,11,1,
,,,,,,,,,,,,,FF,,,,,,,,0.8175,,,,,,,,,,,,,,,,,,,,,,60fcdf62ae64294443dd010d,610368b8b1bd52c528ebd7b6,2021-07-29_19h50.32.535,Simcolourproject_2stim_asymm_v5,2020.2.10,MacIntel,60,61025ae37ef11b136ea224fe,,,,,,,,,2144,-31.375,-84.60546875,1,0,0,response5disk,,3,-19.8046875,-11.56640625,1,0,0,rectangle,-19.8046875,-11.56640625,1,0,0,,,,,,,-19.8046875,-11.56640625,1,0,0,,0,101,101,35,1,
,,,,,,,,,,,,,FF,,,,,,,,0.8005,,,,,,,,,,,,,,,,,,,,,,60fcdf62ae64294443dd010d,610368b8b1bd52c528ebd7b6,2021-07-29_19h50.32.535,Simcolourproject_2stim_asymm_v5,2020.2.10,MacIntel,60,61025ae37ef11b136ea224fe,,,,,,,,,3073,55.94921875,-93.75,1,0,0,response3disk,,4,22.55078125,-17.2109375,1,0,0,rectangle,22.55078125,-17.2109375,1,0,0,,,,,,,22.55078125,-17.2109375,1,0,0,,0,102,102,68,1,
,,,,,,,,,,,,,FF,,,,,,,,1.6655,,,,,,,,,,,,,,,,,,,,,,60fcdf62ae64294443dd010d,610368b8b1bd52c528ebd7b6,2021-07-29_19h50.32.535,Simcolourproject_2stim_asymm_v5,2020.2.10,MacIntel,60,61025ae37ef11b136ea224fe,,,,,,,,,992,77.82421875,-65.26171875,1,0,0,response3disk,,5,4.078125,0.31640625,1,0,0,rectangle,4.078125,0.31640625,1,0,0,,,,,,,4.078125,0.31640625,1,0,0,,0,103,103,66,1,
,,,,,,,,,,,,,FF,,,,,,,,5.9168,,,,,,,,,,,,,,,,,,,,,,60fcdf62ae64294443dd010d,610368b8b1bd52c528ebd7b6,2021-07-29_19h50.32.535,Simcolourproject_2stim_asymm_v5,2020.2.10,MacIntel,60,61025ae37ef11b136ea224fe,,,,,,,,,3613,33.71484375,-83.65234375,1,0,0,response3disk,,4,13.65625,-12.41015625,1,0,0,rectangle,13.65625,-12.41015625,1,0,0,,,,,,,13.65625,-12.41015625,1,0,0,,0,104,104,73,1,
,,,,,,,,,,,,,FF,,,,,,,,1.2821,,,,,,,,,,,,,,,,,,,,,,60fcdf62ae64294443dd010d,610368b8b1bd52c528ebd7b6,2021-07-29_19h50.32.535,Simcolourproject_2stim_asymm_v5,2020.2.10,MacIntel,60,61025ae37ef11b136ea224fe,,,,,,,,,3310,21.8046875,100.2148438,1,0,0,response1disk,,7,8.953125,5.93359375,1,0,0,rectangle,8.953125,5.93359375,1,0,0,,,,,,,8.953125,5.93359375,1,0,0,,0,105,105,3,1,
,,,,,,,,,,,,,FF,,,,,,,,2.0999,,,,,,,,,,,,,,,,,,,,,,60fcdf62ae64294443dd010d,610368b8b1bd52c528ebd7b6,2021-07-29_19h50.32.535,Simcolourproject_2stim_asymm_v5,2020.2.10,MacIntel,60,61025ae37ef11b136ea224fe,,,,,,,,,618,50.88671875,-49.53125,1,0,0,response3disk,,5,-5.296875,12.4375,1,0,0,rectangle,-5.296875,12.4375,1,0,0,,,,,,,-5.296875,12.4375,1,0,0,,0,106,106,122,1,
,,,,,,,,,,,,,FF,,,,,,,,1.0511,,,,,,,,,,,,,,,,,,,,,,60fcdf62ae64294443dd010d,610368b8b1bd52c528ebd7b6,2021-07-29_19h50.32.535,Simcolourproject_2stim_asymm_v5,2020.2.10,MacIntel,60,61025ae37ef11b136ea224fe,,,,,,,,,1316,90.72265625,-77.36328125,1,0,0,response3disk,,5,4.9453125,-4.953125,1,0,0,rectangle,4.9453125,-4.953125,1,0,0,,,,,,,4.9453125,-4.953125,1,0,0,,0,107,107,140,1,
,,,,,,,,,,,,,FF,,,,,,,,1.0672,,,,,,,,,,,,,,,,,,,,,,60fcdf62ae64294443dd010d,610368b8b1bd52c528ebd7b6,2021-07-29_19h50.32.535,Simcolourproject_2stim_asymm_v5,2020.2.10,MacIntel,60,61025ae37ef11b136ea224fe,,,,,,,,,2285,96.14453125,-61.3359375,1,0,0,response3disk,,5,17.11328125,-8.06640625,1,0,0,rectangle,17.11328125,-8.06640625,1,0,0,,,,,,,17.11328125,-8.06640625,1,0,0,,0,108,108,71,1,
,,,,,,,,,,,,,FF,,,,,,,,0.9678,,,,,,,,,,,,,,,,,,,,,,60fcdf62ae64294443dd010d,610368b8b1bd52c528ebd7b6,2021-07-29_19h50.32.535,Simcolourproject_2stim_asymm_v5,2020.2.10,MacIntel,60,61025ae37ef11b136ea224fe,,,,,,,,,3099,-99.92578125,-27.49609375,1,0,0,response5disk,,2,-26.734375,5.57421875,1,0,0,rectangle,-26.734375,5.57421875,1,0,0,,,,,,,-26.734375,5.57421875,1,0,0,,0,109,109,72,1,
,,,,,,,,,,,,,FF,,,,,,,,1.0337,,,,,,,,,,,,,,,,,,,,,,60fcdf62ae64294443dd010d,610368b8b1bd52c528ebd7b6,2021-07-29_19h50.32.535,Simcolourproject_2stim_asymm_v5,2020.2.10,MacIntel,60,61025ae37ef11b136ea224fe,,,,,,,,,377,43.1484375,-77.27734375,1,0,0,response3disk,,4,13.3203125,-0.73046875,1,0,0,rectangle,13.3203125,-0.73046875,1,0,0,,,,,,,13.3203125,-0.73046875,1,0,0,,0,110,110,87,1,
,,,,,,,,,,,,,FF,,,,,,,,1.4005,,,,,,,,,,,,,,,,,,,,,,60fcdf62ae64294443dd010d,610368b8b1bd52c528ebd7b6,2021-07-29_19h50.32.535,Simcolourproject_2stim_asymm_v5,2020.2.10,MacIntel,60,61025ae37ef11b136ea224fe,,,,,,,,,3556,-74.76171875,-51.16015625,1,0,0,response5disk,,2,-11.74609375,-2.87890625,1,0,0,rectangle,-11.74609375,-2.87890625,1,0,0,,,,,,,-11.74609375,-2.87890625,1,0,0,,0,111,111,127,1,
,,,,,,,,,,,,,FF,,,,,,,,0.8828,,,,,,,,,,,,,,,,,,,,,,60fcdf62ae64294443dd010d,610368b8b1bd52c528ebd7b6,2021-07-29_19h50.32.535,Simcolourproject_2stim_asymm_v5,2020.2.10,MacIntel,60,61025ae37ef11b136ea224fe,,,,,,,,,209,-23.7578125,-71.91796875,1,0,0,response5disk,,3,-1.57421875,-4.12890625,1,0,0,rectangle,-1.57421875,-4.12890625,1,0,0,,,,,,,-1.57421875,-4.12890625,1,0,0,,0,112,112,64,1,
,,,,,,,,,,,,,FF,,,,,,,,0.8819,,,,,,,,,,,,,,,,,,,,,,60fcdf62ae64294443dd010d,610368b8b1bd52c528ebd7b6,2021-07-29_19h50.32.535,Simcolourproject_2stim_asymm_v5,2020.2.10,MacIntel,60,61025ae37ef11b136ea224fe,,,,,,,,,2107,-39.30859375,-76.390625,1,0,0,response5disk,,3,-18.953125,-13.8203125,1,0,0,rectangle,62.0078125,126.9179688,1,0,0,response1disk_3,TRUE,7,7,"[40,217,22,283,276,187,55,64,182,114,173,76,290,241,1,314,302,211,71,293]",1.0995,-12.3203125,5.765625,1,0,0,rectangle,0,113,113,26,1,
,,,,,,,,,,,,,FF,,,,,,,,0.967,,,,,,,,,,,,,,,,,,,,,,60fcdf62ae64294443dd010d,610368b8b1bd52c528ebd7b6,2021-07-29_19h50.32.535,Simcolourproject_2stim_asymm_v5,2020.2.10,MacIntel,60,61025ae37ef11b136ea224fe,,,,,,,,,4024,-76.25390625,48.88671875,1,0,0,response7disk,,1,-6.00390625,-4.03515625,1,0,0,rectangle,-6.00390625,-4.03515625,1,0,0,,,,,,,-6.00390625,-4.03515625,1,0,0,,0,114,114,130,1,
,,,,,,,,,,,,,FF,,,,,,,,0.8834,,,,,,,,,,,,,,,,,,,,,,60fcdf62ae64294443dd010d,610368b8b1bd52c528ebd7b6,2021-07-29_19h50.32.535,Simcolourproject_2stim_asymm_v5,2020.2.10,MacIntel,60,61025ae37ef11b136ea224fe,,,,,,,,,3901,-74.51953125,-31.41015625,1,0,0,response5disk,,2,12.9765625,4.96875,1,0,0,rectangle,12.9765625,4.96875,1,0,0,,,,,,,12.9765625,4.96875,1,0,0,,0,115,115,57,1,
,,,,,,,,,,,,,FF,,,,,,,,12.8338,,,,,,,,,,,,,,,,,,,,,,60fcdf62ae64294443dd010d,610368b8b1bd52c528ebd7b6,2021-07-29_19h50.32.535,Simcolourproject_2stim_asymm_v5,2020.2.10,MacIntel,60,61025ae37ef11b136ea224fe,,,,,,,,,2599,113.2734375,52.1875,1,0,0,response1disk,,6,6.97265625,1.1640625,1,0,0,rectangle,6.97265625,1.1640625,1,0,0,,,,,,,6.97265625,1.1640625,1,0,0,,0,116,116,24,1,
,,,,,,,,,,,,,FF,,,,,,,,2.2502,,,,,,,,,,,,,,,,,,,,,,60fcdf62ae64294443dd010d,610368b8b1bd52c528ebd7b6,2021-07-29_19h50.32.535,Simcolourproject_2stim_asymm_v5,2020.2.10,MacIntel,60,61025ae37ef11b136ea224fe,,,,,,,,,3722,83.55078125,-49.1484375,1,0,0,response3disk,,5,15.1171875,14.96484375,1,0,0,rectangle,15.1171875,14.96484375,1,0,0,,,,,,,15.1171875,14.96484375,1,0,0,,0,117,117,105,1,
,,,,,,,,,,,,,FF,,,,,,,,0.8678,,,,,,,,,,,,,,,,,,,,,,60fcdf62ae64294443dd010d,610368b8b1bd52c528ebd7b6,2021-07-29_19h50.32.535,Simcolourproject_2stim_asymm_v5,2020.2.10,MacIntel,60,61025ae37ef11b136ea224fe,,,,,,,,,1937,49.9296875,-75.515625,1,0,0,response3disk,,4,7.33203125,0.89453125,1,0,0,rectangle,7.33203125,0.89453125,1,0,0,,,,,,,7.33203125,0.89453125,1,0,0,,0,118,118,94,1,
,,,,,,,,,,,,,FF,,,,,,,,1.1997,,,,,,,,,,,,,,,,,,,,,,60fcdf62ae64294443dd010d,610368b8b1bd52c528ebd7b6,2021-07-29_19h50.32.535,Simcolourproject_2stim_asymm_v5,2020.2.10,MacIntel,60,61025ae37ef11b136ea224fe,,,,,,,,,2491,51.31640625,-88.8046875,1,0,0,response3disk,,4,7.97265625,5.16796875,1,0,0,rectangle,7.97265625,5.16796875,1,0,0,,,,,,,7.97265625,5.16796875,1,0,0,,0,119,119,88,1,
,,,,,,,,,,,,,FF,,,,,,,,1.0166,,,,,,,,,,,,,,,,,,,,,,60fcdf62ae64294443dd010d,610368b8b1bd52c528ebd7b6,2021-07-29_19h50.32.535,Simcolourproject_2stim_asymm_v5,2020.2.10,MacIntel,60,61025ae37ef11b136ea224fe,,,,,,,,,1715,63.97265625,92.0703125,1,0,0,response1disk,,7,-2.91796875,-2.7265625,1,0,0,rectangle,-2.91796875,-2.7265625,1,0,0,,,,,,,-2.91796875,-2.7265625,1,0,0,,0,120,120,34,1,
,,,,,,,,,,,,,FF,,,,,,,,0.8502,,,,,,,,,,,,,,,,,,,,,,60fcdf62ae64294443dd010d,610368b8b1bd52c528ebd7b6,2021-07-29_19h50.32.535,Simcolourproject_2stim_asymm_v5,2020.2.10,MacIntel,60,61025ae37ef11b136ea224fe,,,,,,,,,2916,104.7695313,64.72265625,1,0,0,response1disk,,6,4.18359375,-5.6015625,1,0,0,rectangle,4.18359375,-5.6015625,1,0,0,,,,,,,4.18359375,-5.6015625,1,0,0,,0,121,121,80,1,
,,,,,,,,,,,,,FF,,,,,,,,1.4834,,,,,,,,,,,,,,,,,,,,,,60fcdf62ae64294443dd010d,610368b8b1bd52c528ebd7b6,2021-07-29_19h50.32.535,Simcolourproject_2stim_asymm_v5,2020.2.10,MacIntel,60,61025ae37ef11b136ea224fe,,,,,,,,,3455,85.12109375,-49.4140625,1,0,0,response3disk,,5,0.5,-6.15234375,1,0,0,rectangle,0.5,-6.15234375,1,0,0,,,,,,,0.5,-6.15234375,1,0,0,,0,122,122,152,1,
,,,,,,,,,,,,,FF,,,,,,,,1.9845,,,,,,,,,,,,,,,,,,,,,,60fcdf62ae64294443dd010d,610368b8b1bd52c528ebd7b6,2021-07-29_19h50.32.535,Simcolourproject_2stim_asymm_v5,2020.2.10,MacIntel,60,61025ae37ef11b136ea224fe,,,,,,,,,3390,-36.6875,94.8125,1,0,0,response7disk,,0,-1.49609375,-8.796875,1,0,0,rectangle,-1.49609375,-8.796875,1,0,0,,,,,,,-1.49609375,-8.796875,1,0,0,,0,123,123,10,1,
,,,,,,,,,,,,,FF,,,,,,,,0.7677,,,,,,,,,,,,,,,,,,,,,,60fcdf62ae64294443dd010d,610368b8b1bd52c528ebd7b6,2021-07-29_19h50.32.535,Simcolourproject_2stim_asymm_v5,2020.2.10,MacIntel,60,61025ae37ef11b136ea224fe,,,,,,,,,2752,40.5625,-79.0859375,1,0,0,response3disk,,4,-4.65234375,-3.01171875,1,0,0,rectangle,-4.65234375,-3.01171875,1,0,0,,,,,,,-4.65234375,-3.01171875,1,0,0,,0,124,124,151,1,
,,,,,,,,,,,,,FF,,,,,,,,1.35,,,,,,,,,,,,,,,,,,,,,,60fcdf62ae64294443dd010d,610368b8b1bd52c528ebd7b6,2021-07-29_19h50.32.535,Simcolourproject_2stim_asymm_v5,2020.2.10,MacIntel,60,61025ae37ef11b136ea224fe,,,,,,,,,3064,55.19921875,-31.74609375,1,0,0,response3disk,,5,-2.87109375,16.18359375,1,0,0,rectangle,-2.87109375,16.18359375,1,0,0,,,,,,,-2.87109375,16.18359375,1,0,0,,0,125,125,157,1,
,,,,,,,,,,,,,FF,,,,,,,,1.6501,,,,,,,,,,,,,,,,,,,,,,60fcdf62ae64294443dd010d,610368b8b1bd52c528ebd7b6,2021-07-29_19h50.32.535,Simcolourproject_2stim_asymm_v5,2020.2.10,MacIntel,60,61025ae37ef11b136ea224fe,,,,,,,,,2055,47.7890625,-72.5,1,0,0,response3disk,,4,-2.90234375,8.91015625,1,0,0,rectangle,-2.90234375,8.91015625,1,0,0,,,,,,,-2.90234375,8.91015625,1,0,0,,0,126,126,37,1,
,,,,,,,,,,,,,FF,,,,,,,,1.0015,,,,,,,,,,,,,,,,,,,,,,60fcdf62ae64294443dd010d,610368b8b1bd52c528ebd7b6,2021-07-29_19h50.32.535,Simcolourproject_2stim_asymm_v5,2020.2.10,MacIntel,60,61025ae37ef11b136ea224fe,,,,,,,,,3853,-84.95703125,-49.0703125,1,0,0,response5disk,,2,-0.1015625,-3.33203125,1,0,0,rectangle,-0.1015625,-3.33203125,1,0,0,,,,,,,-0.1015625,-3.33203125,1,0,0,,0,127,127,142,1,
,,,,,,,,,,,,,FF,,,,,,,,0.9165,,,,,,,,,,,,,,,,,,,,,,60fcdf62ae64294443dd010d,610368b8b1bd52c528ebd7b6,2021-07-29_19h50.32.535,Simcolourproject_2stim_asymm_v5,2020.2.10,MacIntel,60,61025ae37ef11b136ea224fe,,,,,,,,,1362,41.9453125,-67.359375,1,0,0,response3disk,,4,26.41015625,9.6015625,1,0,0,rectangle,26.41015625,9.6015625,1,0,0,,,,,,,26.41015625,9.6015625,1,0,0,,0,128,128,137,1,
,,,,,,,,,,,,,FF,,,,,,,,1.6679,,,,,,,,,,,,,,,,,,,,,,60fcdf62ae64294443dd010d,610368b8b1bd52c528ebd7b6,2021-07-29_19h50.32.535,Simcolourproject_2stim_asymm_v5,2020.2.10,MacIntel,60,61025ae37ef11b136ea224fe,,,,,,,,,3738,-50.421875,-85.875,1,0,0,response5disk,,3,7.19921875,-8.140625,1,0,0,rectangle,7.19921875,-8.140625,1,0,0,,,,,,,7.19921875,-8.140625,1,0,0,,0,129,129,49,1,
,,,,,,,,,,,,,FF,,,,,,,,0.8836,,,,,,,,,,,,,,,,,,,,,,60fcdf62ae64294443dd010d,610368b8b1bd52c528ebd7b6,2021-07-29_19h50.32.535,Simcolourproject_2stim_asymm_v5,2020.2.10,MacIntel,60,61025ae37ef11b136ea224fe,,,,,,,,,533,-79.96484375,43.86328125,1,0,0,response7disk,,1,27.01171875,-8.1796875,1,0,0,rectangle,27.01171875,-8.1796875,1,0,0,,,,,,,27.01171875,-8.1796875,1,0,0,,0,130,130,112,1,
,,,,,,,,,,,,,FF,,,,,,,,1.0839,,,,,,,,,,,,,,,,,,,,,,60fcdf62ae64294443dd010d,610368b8b1bd52c528ebd7b6,2021-07-29_19h50.32.535,Simcolourproject_2stim_asymm_v5,2020.2.10,MacIntel,60,61025ae37ef11b136ea224fe,,,,,,,,,1697,58.16015625,89.64453125,1,0,0,response1disk,,7,3.1015625,2.16015625,1,0,0,rectangle,3.1015625,2.16015625,1,0,0,,,,,,,3.1015625,2.16015625,1,0,0,,0,131,131,106,1,
,,,,,,,,,,,,,FF,,,,,,,,0.6509,,,,,,,,,,,,,,,,,,,,,,60fcdf62ae64294443dd010d,610368b8b1bd52c528ebd7b6,2021-07-29_19h50.32.535,Simcolourproject_2stim_asymm_v5,2020.2.10,MacIntel,60,61025ae37ef11b136ea224fe,,,,,,,,,1244,70.66796875,38.0859375,1,0,0,response1disk,,6,-0.04296875,-6.5078125,1,0,0,rectangle,-0.04296875,-6.5078125,1,0,0,,,,,,,-0.04296875,-6.5078125,1,0,0,,0,132,132,83,1,
,,,,,,,,,,,,,FF,,,,,,,,0.6329,,,,,,,,,,,,,,,,,,,,,,60fcdf62ae64294443dd010d,610368b8b1bd52c528ebd7b6,2021-07-29_19h50.32.535,Simcolourproject_2stim_asymm_v5,2020.2.10,MacIntel,60,61025ae37ef11b136ea224fe,,,,,,,,,152,54.390625,83.97265625,1,0,0,response1disk,,7,9.6484375,9.78515625,1,0,0,rectangle,9.6484375,9.78515625,1,0,0,,,,,,,9.6484375,9.78515625,1,0,0,,0,133,133,1,1,
,,,,,,,,,,,,,FF,,,,,,,,0.7006,,,,,,,,,,,,,,,,,,,,,,60fcdf62ae64294443dd010d,610368b8b1bd52c528ebd7b6,2021-07-29_19h50.32.535,Simcolourproject_2stim_asymm_v5,2020.2.10,MacIntel,60,61025ae37ef11b136ea224fe,,,,,,,,,2455,55.36328125,111.1484375,1,0,0,response1disk,,7,11.4296875,12.60546875,1,0,0,rectangle,11.4296875,12.60546875,1,0,0,,,,,,,11.4296875,12.60546875,1,0,0,,0,134,134,123,1,
,,,,,,,,,,,,,FF,,,,,,,,0.8342,,,,,,,,,,,,,,,,,,,,,,60fcdf62ae64294443dd010d,610368b8b1bd52c528ebd7b6,2021-07-29_19h50.32.535,Simcolourproject_2stim_asymm_v5,2020.2.10,MacIntel,60,61025ae37ef11b136ea224fe,,,,,,,,,2286,100.9765625,-53.84375,1,0,0,response3disk,,5,-2.62890625,-10.32421875,1,0,0,rectangle,-2.62890625,-10.32421875,1,0,0,,,,,,,-2.62890625,-10.32421875,1,0,0,,0,135,135,158,1,
,,,,,,,,,,,,,FF,,,,,,,,1.6005,,,,,,,,,,,,,,,,,,,,,,60fcdf62ae64294443dd010d,610368b8b1bd52c528ebd7b6,2021-07-29_19h50.32.535,Simcolourproject_2stim_asymm_v5,2020.2.10,MacIntel,60,61025ae37ef11b136ea224fe,,,,,,,,,3263,51.1796875,71.5234375,1,0,0,response1disk,,7,18.50390625,1.6953125,1,0,0,rectangle,18.50390625,1.6953125,1,0,0,,,,,,,18.50390625,1.6953125,1,0,0,,0,136,136,93,1,
,,,,,,,,,,,,,FF,,,,,,,,0.7499,,,,,,,,,,,,,,,,,,,,,,60fcdf62ae64294443dd010d,610368b8b1bd52c528ebd7b6,2021-07-29_19h50.32.535,Simcolourproject_2stim_asymm_v5,2020.2.10,MacIntel,60,61025ae37ef11b136ea224fe,,,,,,,,,1487,41.734375,103.1445313,1,0,0,response1disk,,7,2.03515625,8.0390625,1,0,0,rectangle,2.03515625,8.0390625,1,0,0,,,,,,,2.03515625,8.0390625,1,0,0,,0,137,137,148,1,
,,,,,,,,,,,,,FF,,,,,,,,0.9166,,,,,,,,,,,,,,,,,,,,,,60fcdf62ae64294443dd010d,610368b8b1bd52c528ebd7b6,2021-07-29_19h50.32.535,Simcolourproject_2stim_asymm_v5,2020.2.10,MacIntel,60,61025ae37ef11b136ea224fe,,,,,,,,,2234,-42.68359375,78.58203125,1,0,0,response7disk,,0,-7.6796875,-2.65625,1,0,0,rectangle,-7.6796875,-2.65625,1,0,0,,,,,,,-7.6796875,-2.65625,1,0,0,,0,138,138,120,1,
,,,,,,,,,,,,,FF,,,,,,,,1.2009,,,,,,,,,,,,,,,,,,,,,,60fcdf62ae64294443dd010d,610368b8b1bd52c528ebd7b6,2021-07-29_19h50.32.535,Simcolourproject_2stim_asymm_v5,2020.2.10,MacIntel,60,61025ae37ef11b136ea224fe,,,,,,,,,396,87.14453125,-36.23046875,1,0,0,response3disk,,5,5.73046875,-13.91796875,1,0,0,rectangle,5.73046875,-13.91796875,1,0,0,,,,,,,5.73046875,-13.91796875,1,0,0,,0,139,139,38,1,
,,,,,,,,,,,,,FF,,,,,,,,0.967,,,,,,,,,,,,,,,,,,,,,,60fcdf62ae64294443dd010d,610368b8b1bd52c528ebd7b6,2021-07-29_19h50.32.535,Simcolourproject_2stim_asymm_v5,2020.2.10,MacIntel,60,61025ae37ef11b136ea224fe,,,,,,,,,283,-41.08984375,-77.20703125,1,0,0,response5disk,,3,28.91015625,-4.5625,1,0,0,rectangle,28.91015625,-4.5625,1,0,0,,,,,,,28.91015625,-4.5625,1,0,0,,0,140,140,102,1,
,,,,,,,,,,,,,FF,,,,,,,,1.584,,,,,,,,,,,,,,,,,,,,,,60fcdf62ae64294443dd010d,610368b8b1bd52c528ebd7b6,2021-07-29_19h50.32.535,Simcolourproject_2stim_asymm_v5,2020.2.10,MacIntel,60,61025ae37ef11b136ea224fe,,,,,,,,,2476,28.5390625,-103.0703125,1,0,0,response3disk,,4,-3.40234375,-8.1953125,1,0,0,rectangle,-3.40234375,-8.1953125,1,0,0,,,,,,,-3.40234375,-8.1953125,1,0,0,,0,141,141,5,1,
,,,,,,,,,,,,,FF,,,,,,,,1.7835,,,,,,,,,,,,,,,,,,,,,,60fcdf62ae64294443dd010d,610368b8b1bd52c528ebd7b6,2021-07-29_19h50.32.535,Simcolourproject_2stim_asymm_v5,2020.2.10,MacIntel,60,61025ae37ef11b136ea224fe,,,,,,,,,1094,43.671875,83.46875,1,0,0,response1disk,,7,23.57421875,14.4453125,1,0,0,rectangle,23.57421875,14.4453125,1,0,0,,,,,,,23.57421875,14.4453125,1,0,0,,0,142,142,117,1,
,,,,,,,,,,,,,FF,,,,,,,,0.6831,,,,,,,,,,,,,,,,,,,,,,60fcdf62ae64294443dd010d,610368b8b1bd52c528ebd7b6,2021-07-29_19h50.32.535,Simcolourproject_2stim_asymm_v5,2020.2.10,MacIntel,60,61025ae37ef11b136ea224fe,,,,,,,,,4289,71.5234375,-28.37109375,1,0,0,response3disk,,5,-6.99609375,-8.8515625,1,0,0,rectangle,-6.99609375,-8.8515625,1,0,0,,,,,,,-6.99609375,-8.8515625,1,0,0,,0,143,143,96,1,
,,,,,,,,,,,,,FF,,,,,,,,0.6332,,,,,,,,,,,,,,,,,,,,,,60fcdf62ae64294443dd010d,610368b8b1bd52c528ebd7b6,2021-07-29_19h50.32.535,Simcolourproject_2stim_asymm_v5,2020.2.10,MacIntel,60,61025ae37ef11b136ea224fe,,,,,,,,,2870,108.34375,72.21875,1,0,0,response1disk,,6,6.390625,2.87890625,1,0,0,rectangle,6.390625,2.87890625,1,0,0,,,,,,,6.390625,2.87890625,1,0,0,,0,144,144,69,1,
,,,,,,,,,,,,,FF,,,,,,,,1.4829,,,,,,,,,,,,,,,,,,,,,,60fcdf62ae64294443dd010d,610368b8b1bd52c528ebd7b6,2021-07-29_19h50.32.535,Simcolourproject_2stim_asymm_v5,2020.2.10,MacIntel,60,61025ae37ef11b136ea224fe,,,,,,,,,365,61.61328125,26.609375,1,0,0,response1disk,,6,-3.78125,-8.3515625,1,0,0,rectangle,-3.78125,-8.3515625,1,0,0,,,,,,,-3.78125,-8.3515625,1,0,0,,0,145,145,110,1,
,,,,,,,,,,,,,FF,,,,,,,,0.5841,,,,,,,,,,,,,,,,,,,,,,60fcdf62ae64294443dd010d,610368b8b1bd52c528ebd7b6,2021-07-29_19h50.32.535,Simcolourproject_2stim_asymm_v5,2020.2.10,MacIntel,60,61025ae37ef11b136ea224fe,,,,,,,,,4288,112.46875,-63.64453125,1,0,0,response3disk,,5,-7.734375,-13.39453125,1,0,0,rectangle,-7.734375,-13.39453125,1,0,0,,,,,,,-7.734375,-13.39453125,1,0,0,,0,146,146,31,1,
,,,,,,,,,,,,,FF,,,,,,,,0.6833,,,,,,,,,,,,,,,,,,,,,,60fcdf62ae64294443dd010d,610368b8b1bd52c528ebd7b6,2021-07-29_19h50.32.535,Simcolourproject_2stim_asymm_v5,2020.2.10,MacIntel,60,61025ae37ef11b136ea224fe,,,,,,,,,2860,38.1015625,-99.78125,1,0,0,response3disk,,4,-6.94921875,-2.5703125,1,0,0,rectangle,-6.94921875,-2.5703125,1,0,0,,,,,,,-6.94921875,-2.5703125,1,0,0,,0,147,147,40,1,
,,,,,,,,,,,,,FF,,,,,,,,1.0338,,,,,,,,,,,,,,,,,,,,,,60fcdf62ae64294443dd010d,610368b8b1bd52c528ebd7b6,2021-07-29_19h50.32.535,Simcolourproject_2stim_asymm_v5,2020.2.10,MacIntel,60,61025ae37ef11b136ea224fe,,,,,,,,,3199,-51.953125,-78.2421875,1,0,0,response5disk,,3,15.3359375,13.953125,1,0,0,rectangle,15.3359375,13.953125,1,0,0,,,,,,,15.3359375,13.953125,1,0,0,,0,148,148,113,1,
,,,,,,,,,,,,,FF,,,,,,,,3,,,,,,,,,,,,,,,,,,,,,,60fcdf62ae64294443dd010d,610368b8b1bd52c528ebd7b6,2021-07-29_19h50.32.535,Simcolourproject_2stim_asymm_v5,2020.2.10,MacIntel,60,61025ae37ef11b136ea224fe,,,,,,,,,861,86.0546875,64.28125,1,0,0,response1disk,,6,9.58203125,9.5859375,1,0,0,rectangle,9.58203125,9.5859375,1,0,0,,,,,,,9.58203125,9.5859375,1,0,0,,0,149,149,85,1,
,,,,,,,,,,,,,FF,,,,,,,,0.8341,,,,,,,,,,,,,,,,,,,,,,60fcdf62ae64294443dd010d,610368b8b1bd52c528ebd7b6,2021-07-29_19h50.32.535,Simcolourproject_2stim_asymm_v5,2020.2.10,MacIntel,60,61025ae37ef11b136ea224fe,,,,,,,,,251,81.1796875,-51.17578125,1,0,0,response3disk,,5,-8.92578125,3.02734375,1,0,0,rectangle,-8.92578125,3.02734375,1,0,0,,,,,,,-8.92578125,3.02734375,1,0,0,,0,150,150,60,1,
,,,,,,,,,,,,,FF,,,,,,,,1.6007,,,,,,,,,,,,,,,,,,,,,,60fcdf62ae64294443dd010d,610368b8b1bd52c528ebd7b6,2021-07-29_19h50.32.535,Simcolourproject_2stim_asymm_v5,2020.2.10,MacIntel,60,61025ae37ef11b136ea224fe,,,,,,,,,1132,-94.08984375,-52.4140625,1,0,0,response5disk,,2,-1.90625,6.1015625,1,0,0,rectangle,-1.90625,6.1015625,1,0,0,,,,,,,-1.90625,6.1015625,1,0,0,,0,151,151,62,1,
,,,,,,,,,,,,,FF,,,,,,,,4.8664,,,,,,,,,,,,,,,,,,,,,,60fcdf62ae64294443dd010d,610368b8b1bd52c528ebd7b6,2021-07-29_19h50.32.535,Simcolourproject_2stim_asymm_v5,2020.2.10,MacIntel,60,61025ae37ef11b136ea224fe,,,,,,,,,3140,78.28515625,45.6484375,1,0,0,response1disk,,6,5.015625,2.9765625,1,0,0,rectangle,5.015625,2.9765625,1,0,0,,,,,,,5.015625,2.9765625,1,0,0,,0,152,152,15,1,
,,,,,,,,,,,,,FF,,,,,,,,0.9172,,,,,,,,,,,,,,,,,,,,,,60fcdf62ae64294443dd010d,610368b8b1bd52c528ebd7b6,2021-07-29_19h50.32.535,Simcolourproject_2stim_asymm_v5,2020.2.10,MacIntel,60,61025ae37ef11b136ea224fe,,,,,,,,,3517,-64.69140625,40.40234375,1,0,0,response7disk,,1,19.89453125,-8.546875,1,0,0,rectangle,19.89453125,-8.546875,1,0,0,,,,,,,19.89453125,-8.546875,1,0,0,,0,153,153,52,1,
,,,,,,,,,,,,,FF,,,,,,,,3.5512,,,,,,,,,,,,,,,,,,,,,,60fcdf62ae64294443dd010d,610368b8b1bd52c528ebd7b6,2021-07-29_19h50.32.535,Simcolourproject_2stim_asymm_v5,2020.2.10,MacIntel,60,61025ae37ef11b136ea224fe,,,,,,,,,2473,-25.8203125,-63.1328125,1,0,0,response5disk,,3,-0.0078125,-2.93359375,1,0,0,rectangle,-0.0078125,-2.93359375,1,0,0,,,,,,,-0.0078125,-2.93359375,1,0,0,,0,154,154,42,1,
,,,,,,,,,,,,,FF,,,,,,,,0.9498,,,,,,,,,,,,,,,,,,,,,,60fcdf62ae64294443dd010d,610368b8b1bd52c528ebd7b6,2021-07-29_19h50.32.535,Simcolourproject_2stim_asymm_v5,2020.2.10,MacIntel,60,61025ae37ef11b136ea224fe,,,,,,,,,4058,-69.40234375,-43.6484375,1,0,0,response5disk,,2,4.51171875,12.02734375,1,0,0,rectangle,4.51171875,12.02734375,1,0,0,,,,,,,4.51171875,12.02734375,1,0,0,,0,155,155,109,1,
,,,,,,,,,,,,,FF,,,,,,,,0.7337,,,,,,,,,,,,,,,,,,,,,,60fcdf62ae64294443dd010d,610368b8b1bd52c528ebd7b6,2021-07-29_19h50.32.535,Simcolourproject_2stim_asymm_v5,2020.2.10,MacIntel,60,61025ae37ef11b136ea224fe,,,,,,,,,2266,56.68359375,-78.43359375,1,0,0,response3disk,,4,5.81640625,16.28125,1,0,0,rectangle,5.81640625,16.28125,1,0,0,,,,,,,5.81640625,16.28125,1,0,0,,0,156,156,58,1,
,,,,,,,,,,,,,FF,,,,,,,,0.9333,,,,,,,,,,,,,,,,,,,,,,60fcdf62ae64294443dd010d,610368b8b1bd52c528ebd7b6,2021-07-29_19h50.32.535,Simcolourproject_2stim_asymm_v5,2020.2.10,MacIntel,60,61025ae37ef11b136ea224fe,,,,,,,,,1174,61.84765625,119.7890625,1,0,0,response1disk,,7,1.50390625,-5.13671875,1,0,0,rectangle,1.50390625,-5.13671875,1,0,0,,,,,,,1.50390625,-5.13671875,1,0,0,,0,157,157,22,1,
,,,,,,,,,,,,,FF,,,,,,,,0.6166,,,,,,,,,,,,,,,,,,,,,,60fcdf62ae64294443dd010d,610368b8b1bd52c528ebd7b6,2021-07-29_19h50.32.535,Simcolourproject_2stim_asymm_v5,2020.2.10,MacIntel,60,61025ae37ef11b136ea224fe,,,,,,,,,4066,108.3515625,-59.64453125,1,0,0,response3disk,,5,9.20703125,5.0625,1,0,0,rectangle,9.20703125,5.0625,1,0,0,,,,,,,9.20703125,5.0625,1,0,0,,0,158,158,50,1,
,,,,,,,,,,,,,FF,,,,,,,,0.9008,,,,,,,,,,,,,,,,,,,,,,60fcdf62ae64294443dd010d,610368b8b1bd52c528ebd7b6,2021-07-29_19h50.32.535,Simcolourproject_2stim_asymm_v5,2020.2.10,MacIntel,60,61025ae37ef11b136ea224fe,,,,,,,,,1214,-54.17578125,-78.40625,1,0,0,response5disk,,3,0.15625,-1.4765625,1,0,0,rectangle,0.15625,-1.4765625,1,0,0,,,,,,,0.15625,-1.4765625,1,0,0,,0,159,159,132,1,
,,,,,,,,,,,,,FF,,,,,,,,0.7672,,,,,,,,,,,,,,,,,,,,,,60fcdf62ae64294443dd010d,610368b8b1bd52c528ebd7b6,2021-07-29_19h50.32.535,Simcolourproject_2stim_asymm_v5,2020.2.10,MacIntel,60,61025ae37ef11b136ea224fe,,,,,,,,,882,22.22265625,-60.08984375,1,0,0,response3disk,,4,20.546875,17.94921875,1,0,0,rectangle,20.546875,17.94921875,1,0,0,,,,,,,20.546875,17.94921875,1,0,0,,1,0,160,45,1,
,,,,,,,,,,,,,FF,,,,,,,,0.8991,,,,,,,,,,,,,,,,,,,,,,60fcdf62ae64294443dd010d,610368b8b1bd52c528ebd7b6,2021-07-29_19h50.32.535,Simcolourproject_2stim_asymm_v5,2020.2.10,MacIntel,60,61025ae37ef11b136ea224fe,,,,,,,,,527,-77.71484375,-73.76171875,1,0,0,response5disk,,2,7.6015625,-10.69921875,1,0,0,rectangle,7.6015625,-10.69921875,1,0,0,,,,,,,7.6015625,-10.69921875,1,0,0,,1,1,161,20,1,
,,,,,,,,,,,,,FF,,,,,,,,0.5012,,,,,,,,,,,,,,,,,,,,,,60fcdf62ae64294443dd010d,610368b8b1bd52c528ebd7b6,2021-07-29_19h50.32.535,Simcolourproject_2stim_asymm_v5,2020.2.10,MacIntel,60,61025ae37ef11b136ea224fe,,,,,,,,,1390,94.296875,-59.19921875,1,0,0,response3disk,,5,-4.03125,11.2421875,1,0,0,rectangle,-4.03125,11.2421875,1,0,0,,,,,,,-4.03125,11.2421875,1,0,0,,1,2,162,85,1,
,,,,,,,,,,,,,FF,,,,,,,,0.5828,,,,,,,,,,,,,,,,,,,,,,60fcdf62ae64294443dd010d,610368b8b1bd52c528ebd7b6,2021-07-29_19h50.32.535,Simcolourproject_2stim_asymm_v5,2020.2.10,MacIntel,60,61025ae37ef11b136ea224fe,,,,,,,,,672,62.30859375,-49.91015625,1,0,0,response3disk,,5,9.74609375,-5.828125,1,0,0,rectangle,9.74609375,-5.828125,1,0,0,,,,,,,9.74609375,-5.828125,1,0,0,,1,3,163,124,1,
,,,,,,,,,,,,,FF,,,,,,,,0.9993,,,,,,,,,,,,,,,,,,,,,,60fcdf62ae64294443dd010d,610368b8b1bd52c528ebd7b6,2021-07-29_19h50.32.535,Simcolourproject_2stim_asymm_v5,2020.2.10,MacIntel,60,61025ae37ef11b136ea224fe,,,,,,,,,1376,-68.04296875,-94.1875,1,0,0,response5disk,,3,-2.51953125,-1.01171875,1,0,0,rectangle,-2.51953125,-1.01171875,1,0,0,,,,,,,-2.51953125,-1.01171875,1,0,0,,1,4,164,105,1,
,,,,,,,,,,,,,FF,,,,,,,,0.8012,,,,,,,,,,,,,,,,,,,,,,60fcdf62ae64294443dd010d,610368b8b1bd52c528ebd7b6,2021-07-29_19h50.32.535,Simcolourproject_2stim_asymm_v5,2020.2.10,MacIntel,60,61025ae37ef11b136ea224fe,,,,,,,,,4357,-74.43359375,39.3203125,1,0,0,response7disk,,1,-18.3203125,-1.1171875,1,0,0,rectangle,-18.3203125,-1.1171875,1,0,0,,,,,,,-18.3203125,-1.1171875,1,0,0,,1,5,165,151,1,
,,,,,,,,,,,,,FF,,,,,,,,0.8005,,,,,,,,,,,,,,,,,,,,,,60fcdf62ae64294443dd010d,610368b8b1bd52c528ebd7b6,2021-07-29_19h50.32.535,Simcolourproject_2stim_asymm_v5,2020.2.10,MacIntel,60,61025ae37ef11b136ea224fe,,,,,,,,,808,-66.6640625,-33.94140625,1,0,0,response5disk,,2,14.69140625,-16.01953125,1,0,0,rectangle,14.69140625,-16.01953125,1,0,0,,,,,,,14.69140625,-16.01953125,1,0,0,,1,6,166,83,1,
,,,,,,,,,,,,,FF,,,,,,,,0.7835,,,,,,,,,,,,,,,,,,,,,,60fcdf62ae64294443dd010d,610368b8b1bd52c528ebd7b6,2021-07-29_19h50.32.535,Simcolourproject_2stim_asymm_v5,2020.2.10,MacIntel,60,61025ae37ef11b136ea224fe,,,,,,,,,3859,25.58984375,-61.97265625,1,0,0,response3disk,,4,-0.91015625,-10.09765625,1,0,0,rectangle,-0.91015625,-10.09765625,1,0,0,,,,,,,-0.91015625,-10.09765625,1,0,0,,1,7,167,142,1,
,,,,,,,,,,,,,FF,,,,,,,,0.7015,,,,,,,,,,,,,,,,,,,,,,60fcdf62ae64294443dd010d,610368b8b1bd52c528ebd7b6,2021-07-29_19h50.32.535,Simcolourproject_2stim_asymm_v5,2020.2.10,MacIntel,60,61025ae37ef11b136ea224fe,,,,,,,,,1833,-39.21875,-97.3984375,1,0,0,response5disk,,3,3.9921875,-8.375,1,0,0,rectangle,3.9921875,-8.375,1,0,0,,,,,,,3.9921875,-8.375,1,0,0,,1,8,168,75,1,
,,,,,,,,,,,,,FF,,,,,,,,0.6839,,,,,,,,,,,,,,,,,,,,,,60fcdf62ae64294443dd010d,610368b8b1bd52c528ebd7b6,2021-07-29_19h50.32.535,Simcolourproject_2stim_asymm_v5,2020.2.10,MacIntel,60,61025ae37ef11b136ea224fe,,,,,,,,,3817,-78.55859375,-37.36328125,1,0,0,response5disk,,2,-2.45703125,-1.1875,1,0,0,rectangle,-2.45703125,-1.1875,1,0,0,,,,,,,-2.45703125,-1.1875,1,0,0,,1,9,169,13,1,
,,,,,,,,,,,,,FF,,,,,,,,0.7501,,,,,,,,,,,,,,,,,,,,,,60fcdf62ae64294443dd010d,610368b8b1bd52c528ebd7b6,2021-07-29_19h50.32.535,Simcolourproject_2stim_asymm_v5,2020.2.10,MacIntel,60,61025ae37ef11b136ea224fe,,,,,,,,,2213,51.43359375,67.4609375,1,0,0,response1disk,,7,-12.1171875,-2.25390625,1,0,0,rectangle,-12.1171875,-2.25390625,1,0,0,,,,,,,-12.1171875,-2.25390625,1,0,0,,1,10,170,127,1,
,,,,,,,,,,,,,FF,,,,,,,,0.4505,,,,,,,,,,,,,,,,,,,,,,60fcdf62ae64294443dd010d,610368b8b1bd52c528ebd7b6,2021-07-29_19h50.32.535,Simcolourproject_2stim_asymm_v5,2020.2.10,MacIntel,60,61025ae37ef11b136ea224fe,,,,,,,,,2375,77.36328125,50.82421875,1,0,0,response1disk,,6,3.125,-13.25,1,0,0,rectangle,3.125,-13.25,1,0,0,,,,,,,3.125,-13.25,1,0,0,,1,11,171,119,1,
,,,,,,,,,,,,,FF,,,,,,,,0.7344,,,,,,,,,,,,,,,,,,,,,,60fcdf62ae64294443dd010d,610368b8b1bd52c528ebd7b6,2021-07-29_19h50.32.535,Simcolourproject_2stim_asymm_v5,2020.2.10,MacIntel,60,61025ae37ef11b136ea224fe,,,,,,,,,1900,79.6796875,-58.0546875,1,0,0,response3disk,,5,-4.32421875,-5.95703125,1,0,0,rectangle,-28.25390625,87.140625,1,0,0,response7disk_3,TRUE,0,0,"[40,217,22,283,276,187,55,64,182,114,173,76,290,241,1,314,302,211,71,293]",1.5502,5.3125,-14.8984375,1,0,0,rectangle,1,12,172,44,1,
,,,,,,,,,,,,,FF,,,,,,,,0.8345,,,,,,,,,,,,,,,,,,,,,,60fcdf62ae64294443dd010d,610368b8b1bd52c528ebd7b6,2021-07-29_19h50.32.535,Simcolourproject_2stim_asymm_v5,2020.2.10,MacIntel,60,61025ae37ef11b136ea224fe,,,,,,,,,2085,99.70703125,-37.890625,1,0,0,response3disk,,5,32.21484375,-9.1875,1,0,0,rectangle,32.21484375,-9.1875,1,0,0,,,,,,,32.21484375,-9.1875,1,0,0,,1,13,173,113,1,
,,,,,,,,,,,,,FF,,,,,,,,0.5664,,,,,,,,,,,,,,,,,,,,,,60fcdf62ae64294443dd010d,610368b8b1bd52c528ebd7b6,2021-07-29_19h50.32.535,Simcolourproject_2stim_asymm_v5,2020.2.10,MacIntel,60,61025ae37ef11b136ea224fe,,,,,,,,,1985,92.90625,47.7109375,1,0,0,response1disk,,6,12.8671875,2.75390625,1,0,0,rectangle,12.8671875,2.75390625,1,0,0,,,,,,,12.8671875,2.75390625,1,0,0,,1,14,174,7,1,
,,,,,,,,,,,,,FF,,,,,,,,1.1329,,,,,,,,,,,,,,,,,,,,,,60fcdf62ae64294443dd010d,610368b8b1bd52c528ebd7b6,2021-07-29_19h50.32.535,Simcolourproject_2stim_asymm_v5,2020.2.10,MacIntel,60,61025ae37ef11b136ea224fe,,,,,,,,,1288,39.26953125,-103.9101563,1,0,0,response3disk,,4,1.41796875,2.0859375,1,0,0,rectangle,1.41796875,2.0859375,1,0,0,,,,,,,1.41796875,2.0859375,1,0,0,,1,15,175,26,1,
,,,,,,,,,,,,,FF,,,,,,,,1.0679,,,,,,,,,,,,,,,,,,,,,,60fcdf62ae64294443dd010d,610368b8b1bd52c528ebd7b6,2021-07-29_19h50.32.535,Simcolourproject_2stim_asymm_v5,2020.2.10,MacIntel,60,61025ae37ef11b136ea224fe,,,,,,,,,4056,30.234375,-111.3007813,1,0,0,response3disk,,4,3.36328125,1.53125,1,0,0,rectangle,3.36328125,1.53125,1,0,0,,,,,,,3.36328125,1.53125,1,0,0,,1,16,176,61,1,
,,,,,,,,,,,,,FF,,,,,,,,0.9672,,,,,,,,,,,,,,,,,,,,,,60fcdf62ae64294443dd010d,610368b8b1bd52c528ebd7b6,2021-07-29_19h50.32.535,Simcolourproject_2stim_asymm_v5,2020.2.10,MacIntel,60,61025ae37ef11b136ea224fe,,,,,,,,,1212,-29.0703125,-74.2890625,1,0,0,response5disk,,3,5.6484375,11.86328125,1,0,0,rectangle,5.6484375,11.86328125,1,0,0,,,,,,,5.6484375,11.86328125,1,0,0,,1,17,177,73,1,
,,,,,,,,,,,,,FF,,,,,,,,1.0185,,,,,,,,,,,,,,,,,,,,,,60fcdf62ae64294443dd010d,610368b8b1bd52c528ebd7b6,2021-07-29_19h50.32.535,Simcolourproject_2stim_asymm_v5,2020.2.10,MacIntel,60,61025ae37ef11b136ea224fe,,,,,,,,,2680,82.5703125,46.94140625,1,0,0,response1disk,,6,-12.5,9.42578125,1,0,0,rectangle,-12.5,9.42578125,1,0,0,,,,,,,-12.5,9.42578125,1,0,0,,1,18,178,116,1,
,,,,,,,,,,,,,FF,,,,,,,,1.2843,,,,,,,,,,,,,,,,,,,,,,60fcdf62ae64294443dd010d,610368b8b1bd52c528ebd7b6,2021-07-29_19h50.32.535,Simcolourproject_2stim_asymm_v5,2020.2.10,MacIntel,60,61025ae37ef11b136ea224fe,,,,,,,,,1810,72.6484375,-37.5859375,1,0,0,response3disk,,5,-1.30078125,2.56640625,1,0,0,rectangle,-1.30078125,2.56640625,1,0,0,,,,,,,-1.30078125,2.56640625,1,0,0,,1,19,179,134,1,
,,,,,,,,,,,,,FF,,,,,,,,1.9169,,,,,,,,,,,,,,,,,,,,,,60fcdf62ae64294443dd010d,610368b8b1bd52c528ebd7b6,2021-07-29_19h50.32.535,Simcolourproject_2stim_asymm_v5,2020.2.10,MacIntel,60,61025ae37ef11b136ea224fe,,,,,,,,,3377,89.36328125,-44.34375,1,0,0,response3disk,,5,-9.2109375,-4.453125,1,0,0,rectangle,-9.2109375,-4.453125,1,0,0,,,,,,,-9.2109375,-4.453125,1,0,0,,1,20,180,59,1,
,,,,,,,,,,,,,FF,,,,,,,,0.6337,,,,,,,,,,,,,,,,,,,,,,60fcdf62ae64294443dd010d,610368b8b1bd52c528ebd7b6,2021-07-29_19h50.32.535,Simcolourproject_2stim_asymm_v5,2020.2.10,MacIntel,60,61025ae37ef11b136ea224fe,,,,,,,,,3437,44.60546875,-75.0546875,1,0,0,response3disk,,4,11.83203125,-6.75390625,1,0,0,rectangle,-36.02734375,85.50390625,1,0,0,response7disk_3,TRUE,0,0,"[40,217,22,283,276,187,55,64,182,114,173,76,290,241,1,314,302,211,71,293]",1.3166,6.515625,6.5390625,1,0,0,rectangle,1,21,181,109,1,
,,,,,,,,,,,,,FF,,,,,,,,0.7678,,,,,,,,,,,,,,,,,,,,,,60fcdf62ae64294443dd010d,610368b8b1bd52c528ebd7b6,2021-07-29_19h50.32.535,Simcolourproject_2stim_asymm_v5,2020.2.10,MacIntel,60,61025ae37ef11b136ea224fe,,,,,,,,,3659,91.8515625,-46.609375,1,0,0,response3disk,,5,1.640625,2.51171875,1,0,0,rectangle,1.640625,2.51171875,1,0,0,,,,,,,1.640625,2.51171875,1,0,0,,1,22,182,23,1,
,,,,,,,,,,,,,FF,,,,,,,,1.1655,,,,,,,,,,,,,,,,,,,,,,60fcdf62ae64294443dd010d,610368b8b1bd52c528ebd7b6,2021-07-29_19h50.32.535,Simcolourproject_2stim_asymm_v5,2020.2.10,MacIntel,60,61025ae37ef11b136ea224fe,,,,,,,,,2316,72.72265625,31.70703125,1,0,0,response1disk,,6,-10.94921875,-2.93359375,1,0,0,rectangle,-10.94921875,-2.93359375,1,0,0,,,,,,,-10.94921875,-2.93359375,1,0,0,,1,23,183,145,1,
,,,,,,,,,,,,,FF,,,,,,,,0.7503,,,,,,,,,,,,,,,,,,,,,,60fcdf62ae64294443dd010d,610368b8b1bd52c528ebd7b6,2021-07-29_19h50.32.535,Simcolourproject_2stim_asymm_v5,2020.2.10,MacIntel,60,61025ae37ef11b136ea224fe,,,,,,,,,3732,42.2578125,76.08984375,1,0,0,response1disk,,7,-0.15234375,-3.625,1,0,0,rectangle,-0.15234375,-3.625,1,0,0,,,,,,,-0.15234375,-3.625,1,0,0,,1,24,184,14,1,
,,,,,,,,,,,,,FF,,,,,,,,1.033,,,,,,,,,,,,,,,,,,,,,,60fcdf62ae64294443dd010d,610368b8b1bd52c528ebd7b6,2021-07-29_19h50.32.535,Simcolourproject_2stim_asymm_v5,2020.2.10,MacIntel,60,61025ae37ef11b136ea224fe,,,,,,,,,2309,84.9453125,-30.34375,1,0,0,response3disk,,5,-7.3125,1.390625,1,0,0,rectangle,-7.3125,1.390625,1,0,0,,,,,,,-7.3125,1.390625,1,0,0,,1,25,185,114,1,
,,,,,,,,,,,,,FF,,,,,,,,0.6329,,,,,,,,,,,,,,,,,,,,,,60fcdf62ae64294443dd010d,610368b8b1bd52c528ebd7b6,2021-07-29_19h50.32.535,Simcolourproject_2stim_asymm_v5,2020.2.10,MacIntel,60,61025ae37ef11b136ea224fe,,,,,,,,,2120,69.35546875,-85.046875,1,0,0,response3disk,,4,11.4609375,12.36328125,1,0,0,rectangle,91.50390625,57.38671875,1,0,0,response1disk_3,TRUE,6,6,"[40,217,22,283,276,187,55,64,182,114,173,76,290,241,1,314,302,211,71,293]",1.3174,2.984375,6.35546875,1,0,0,rectangle,1,26,186,144,1,
,,,,,,,,,,,,,FF,,,,,,,,0.7167,,,,,,,,,,,,,,,,,,,,,,60fcdf62ae64294443dd010d,610368b8b1bd52c528ebd7b6,2021-07-29_19h50.32.535,Simcolourproject_2stim_asymm_v5,2020.2.10,MacIntel,60,61025ae37ef11b136ea224fe,,,,,,,,,1647,104.5195313,-49.29296875,1,0,0,response3disk,,5,19.03515625,-11.91015625,1,0,0,rectangle,19.03515625,-11.91015625,1,0,0,,,,,,,19.03515625,-11.91015625,1,0,0,,1,27,187,103,1,
,,,,,,,,,,,,,FF,,,,,,,,0.5164,,,,,,,,,,,,,,,,,,,,,,60fcdf62ae64294443dd010d,610368b8b1bd52c528ebd7b6,2021-07-29_19h50.32.535,Simcolourproject_2stim_asymm_v5,2020.2.10,MacIntel,60,61025ae37ef11b136ea224fe,,,,,,,,,2077,35.11328125,-84.35546875,1,0,0,response3disk,,4,-14.8203125,2.2578125,1,0,0,rectangle,-14.8203125,2.2578125,1,0,0,,,,,,,-14.8203125,2.2578125,1,0,0,,1,28,188,54,1,
,,,,,,,,,,,,,FF,,,,,,,,0.8174,,,,,,,,,,,,,,,,,,,,,,60fcdf62ae64294443dd010d,610368b8b1bd52c528ebd7b6,2021-07-29_19h50.32.535,Simcolourproject_2stim_asymm_v5,2020.2.10,MacIntel,60,61025ae37ef11b136ea224fe,,,,,,,,,2651,119.2617188,26.40234375,1,0,0,response1disk,,6,-2.171875,2.1640625,1,0,0,rectangle,-2.171875,2.1640625,1,0,0,,,,,,,-2.171875,2.1640625,1,0,0,,1,29,189,84,1,
,,,,,,,,,,,,,FF,,,,,,,,0.8328,,,,,,,,,,,,,,,,,,,,,,60fcdf62ae64294443dd010d,610368b8b1bd52c528ebd7b6,2021-07-29_19h50.32.535,Simcolourproject_2stim_asymm_v5,2020.2.10,MacIntel,60,61025ae37ef11b136ea224fe,,,,,,,,,2620,36.6875,111.4140625,1,0,0,response1disk,,7,-2.25,13.4453125,1,0,0,rectangle,-2.25,13.4453125,1,0,0,,,,,,,-2.25,13.4453125,1,0,0,,1,30,190,153,1,
,,,,,,,,,,,,,FF,,,,,,,,0.717,,,,,,,,,,,,,,,,,,,,,,60fcdf62ae64294443dd010d,610368b8b1bd52c528ebd7b6,2021-07-29_19h50.32.535,Simcolourproject_2stim_asymm_v5,2020.2.10,MacIntel,60,61025ae37ef11b136ea224fe,,,,,,,,,2231,-50.99609375,-80.93359375,1,0,0,response5disk,,3,-10.9296875,-2.97265625,1,0,0,rectangle,-10.9296875,-2.97265625,1,0,0,,,,,,,-10.9296875,-2.97265625,1,0,0,,1,31,191,135,1,
,,,,,,,,,,,,,FF,,,,,,,,0.5661,,,,,,,,,,,,,,,,,,,,,,60fcdf62ae64294443dd010d,610368b8b1bd52c528ebd7b6,2021-07-29_19h50.32.535,Simcolourproject_2stim_asymm_v5,2020.2.10,MacIntel,60,61025ae37ef11b136ea224fe,,,,,,,,,3080,23.0078125,-94.66796875,1,0,0,response3disk,,4,28.796875,5.984375,1,0,0,rectangle,28.796875,5.984375,1,0,0,,,,,,,28.796875,5.984375,1,0,0,,1,32,192,89,1,
,,,,,,,,,,,,,FF,,,,,,,,0.7009,,,,,,,,,,,,,,,,,,,,,,60fcdf62ae64294443dd010d,610368b8b1bd52c528ebd7b6,2021-07-29_19h50.32.535,Simcolourproject_2stim_asymm_v5,2020.2.10,MacIntel,60,61025ae37ef11b136ea224fe,,,,,,,,,2193,35.59765625,82.03515625,1,0,0,response1disk,,7,10.62890625,-10.33984375,1,0,0,rectangle,10.62890625,-10.33984375,1,0,0,,,,,,,10.62890625,-10.33984375,1,0,0,,1,33,193,87,1,
,,,,,,,,,,,,,FF,,,,,,,,0.5834,,,,,,,,,,,,,,,,,,,,,,60fcdf62ae64294443dd010d,610368b8b1bd52c528ebd7b6,2021-07-29_19h50.32.535,Simcolourproject_2stim_asymm_v5,2020.2.10,MacIntel,60,61025ae37ef11b136ea224fe,,,,,,,,,2024,73.3359375,-28.484375,1,0,0,response3disk,,5,7.00390625,-1.47265625,1,0,0,rectangle,7.00390625,-1.47265625,1,0,0,,,,,,,7.00390625,-1.47265625,1,0,0,,1,34,194,35,1,
,,,,,,,,,,,,,FF,,,,,,,,1.0672,,,,,,,,,,,,,,,,,,,,,,60fcdf62ae64294443dd010d,610368b8b1bd52c528ebd7b6,2021-07-29_19h50.32.535,Simcolourproject_2stim_asymm_v5,2020.2.10,MacIntel,60,61025ae37ef11b136ea224fe,,,,,,,,,3156,74.7421875,-43.125,1,0,0,response3disk,,5,-23.66796875,10.83984375,1,0,0,rectangle,-23.66796875,10.83984375,1,0,0,,,,,,,-23.66796875,10.83984375,1,0,0,,1,35,195,74,1,
,,,,,,,,,,,,,FF,,,,,,,,0.8332,,,,,,,,,,,,,,,,,,,,,,60fcdf62ae64294443dd010d,610368b8b1bd52c528ebd7b6,2021-07-29_19h50.32.535,Simcolourproject_2stim_asymm_v5,2020.2.10,MacIntel,60,61025ae37ef11b136ea224fe,,,,,,,,,1904,88.4296875,47.23828125,1,0,0,response1disk,,6,11.8828125,8.828125,1,0,0,rectangle,11.8828125,8.828125,1,0,0,,,,,,,11.8828125,8.828125,1,0,0,,1,36,196,69,1,
,,,,,,,,,,,,,FF,,,,,,,,0.6674,,,,,,,,,,,,,,,,,,,,,,60fcdf62ae64294443dd010d,610368b8b1bd52c528ebd7b6,2021-07-29_19h50.32.535,Simcolourproject_2stim_asymm_v5,2020.2.10,MacIntel,60,61025ae37ef11b136ea224fe,,,,,,,,,4025,-38.109375,-84.9453125,1,0,0,response5disk,,3,5.26953125,2.78515625,1,0,0,rectangle,5.26953125,2.78515625,1,0,0,,,,,,,5.26953125,2.78515625,1,0,0,,1,37,197,82,1,
,,,,,,,,,,,,,FF,,,,,,,,0.7334,,,,,,,,,,,,,,,,,,,,,,60fcdf62ae64294443dd010d,610368b8b1bd52c528ebd7b6,2021-07-29_19h50.32.535,Simcolourproject_2stim_asymm_v5,2020.2.10,MacIntel,60,61025ae37ef11b136ea224fe,,,,,,,,,2749,96.11328125,-50.7734375,1,0,0,response3disk,,5,10.39453125,-1.9453125,1,0,0,rectangle,10.39453125,-1.9453125,1,0,0,,,,,,,10.39453125,-1.9453125,1,0,0,,1,38,198,1,1,
,,,,,,,,,,,,,FF,,,,,,,,0.9344,,,,,,,,,,,,,,,,,,,,,,60fcdf62ae64294443dd010d,610368b8b1bd52c528ebd7b6,2021-07-29_19h50.32.535,Simcolourproject_2stim_asymm_v5,2020.2.10,MacIntel,60,61025ae37ef11b136ea224fe,,,,,,,,,509,45.171875,80.40625,1,0,0,response1disk,,7,0.0859375,-15.77734375,1,0,0,rectangle,0.0859375,-15.77734375,1,0,0,,,,,,,0.0859375,-15.77734375,1,0,0,,1,39,199,2,1,
,,,,,,,,,,,,,FF,,,,,,,,1.2499,,,,,,,,,,,,,,,,,,,,,,60fcdf62ae64294443dd010d,610368b8b1bd52c528ebd7b6,2021-07-29_19h50.32.535,Simcolourproject_2stim_asymm_v5,2020.2.10,MacIntel,60,61025ae37ef11b136ea224fe,,,,,,,,,299,72.11328125,42.44140625,1,0,0,response1disk,,6,16.9765625,7.8828125,1,0,0,rectangle,16.9765625,7.8828125,1,0,0,,,,,,,16.9765625,7.8828125,1,0,0,,1,40,200,25,1,
,,,,,,,,,,,,,FF,,,,,,,,1.1172,,,,,,,,,,,,,,,,,,,,,,60fcdf62ae64294443dd010d,610368b8b1bd52c528ebd7b6,2021-07-29_19h50.32.535,Simcolourproject_2stim_asymm_v5,2020.2.10,MacIntel,60,61025ae37ef11b136ea224fe,,,,,,,,,3176,83.44921875,45.97265625,1,0,0,response1disk,,6,-16.71875,-1.80078125,1,0,0,rectangle,-16.71875,-1.80078125,1,0,0,,,,,,,-16.71875,-1.80078125,1,0,0,,1,41,201,99,1,
,,,,,,,,,,,,,FF,,,,,,,,0.516,,,,,,,,,,,,,,,,,,,,,,60fcdf62ae64294443dd010d,610368b8b1bd52c528ebd7b6,2021-07-29_19h50.32.535,Simcolourproject_2stim_asymm_v5,2020.2.10,MacIntel,60,61025ae37ef11b136ea224fe,,,,,,,,,4044,107.625,76.71875,1,0,0,response1disk,,6,6.640625,16.8359375,1,0,0,rectangle,6.640625,16.8359375,1,0,0,,,,,,,6.640625,16.8359375,1,0,0,,1,42,202,43,1,
,,,,,,,,,,,,,FF,,,,,,,,0.8999,,,,,,,,,,,,,,,,,,,,,,60fcdf62ae64294443dd010d,610368b8b1bd52c528ebd7b6,2021-07-29_19h50.32.535,Simcolourproject_2stim_asymm_v5,2020.2.10,MacIntel,60,61025ae37ef11b136ea224fe,,,,,,,,,897,54.48046875,-100.3085938,1,0,0,response3disk,,4,8.734375,-2.984375,1,0,0,rectangle,8.734375,-2.984375,1,0,0,,,,,,,8.734375,-2.984375,1,0,0,,1,43,203,106,1,
,,,,,,,,,,,,,FF,,,,,,,,0.7669,,,,,,,,,,,,,,,,,,,,,,60fcdf62ae64294443dd010d,610368b8b1bd52c528ebd7b6,2021-07-29_19h50.32.535,Simcolourproject_2stim_asymm_v5,2020.2.10,MacIntel,60,61025ae37ef11b136ea224fe,,,,,,,,,2288,102.6328125,-28.125,1,0,0,response3disk,,5,-28.78515625,-3.1484375,1,0,0,rectangle,-28.78515625,-3.1484375,1,0,0,,,,,,,-28.78515625,-3.1484375,1,0,0,,1,44,204,30,1,
,,,,,,,,,,,,,FF,,,,,,,,1.1173,,,,,,,,,,,,,,,,,,,,,,60fcdf62ae64294443dd010d,610368b8b1bd52c528ebd7b6,2021-07-29_19h50.32.535,Simcolourproject_2stim_asymm_v5,2020.2.10,MacIntel,60,61025ae37ef11b136ea224fe,,,,,,,,,1156,57.875,-45.765625,1,0,0,response3disk,,5,3.234375,-16.89453125,1,0,0,rectangle,3.234375,-16.89453125,1,0,0,,,,,,,3.234375,-16.89453125,1,0,0,,1,45,205,155,1,
,,,,,,,,,,,,,FF,,,,,,,,0.799,,,,,,,,,,,,,,,,,,,,,,60fcdf62ae64294443dd010d,610368b8b1bd52c528ebd7b6,2021-07-29_19h50.32.535,Simcolourproject_2stim_asymm_v5,2020.2.10,MacIntel,60,61025ae37ef11b136ea224fe,,,,,,,,,426,24.890625,-88.4375,1,0,0,response3disk,,4,-7.7109375,-0.09375,1,0,0,rectangle,-7.7109375,-0.09375,1,0,0,,,,,,,-7.7109375,-0.09375,1,0,0,,1,46,206,118,1,
,,,,,,,,,,,,,FF,,,,,,,,0.6673,,,,,,,,,,,,,,,,,,,,,,60fcdf62ae64294443dd010d,610368b8b1bd52c528ebd7b6,2021-07-29_19h50.32.535,Simcolourproject_2stim_asymm_v5,2020.2.10,MacIntel,60,61025ae37ef11b136ea224fe,,,,,,,,,3045,-28.8984375,94.62109375,1,0,0,response7disk,,0,-15.703125,10.62109375,1,0,0,rectangle,-15.703125,10.62109375,1,0,0,,,,,,,-15.703125,10.62109375,1,0,0,,1,47,207,62,1,
,,,,,,,,,,,,,FF,,,,,,,,0.801,,,,,,,,,,,,,,,,,,,,,,60fcdf62ae64294443dd010d,610368b8b1bd52c528ebd7b6,2021-07-29_19h50.32.535,Simcolourproject_2stim_asymm_v5,2020.2.10,MacIntel,60,61025ae37ef11b136ea224fe,,,,,,,,,2200,76.18359375,-29.0625,1,0,0,response3disk,,5,-11.3125,-0.77734375,1,0,0,rectangle,-11.3125,-0.77734375,1,0,0,,,,,,,-11.3125,-0.77734375,1,0,0,,1,48,208,88,1,
,,,,,,,,,,,,,FF,,,,,,,,0.8667,,,,,,,,,,,,,,,,,,,,,,60fcdf62ae64294443dd010d,610368b8b1bd52c528ebd7b6,2021-07-29_19h50.32.535,Simcolourproject_2stim_asymm_v5,2020.2.10,MacIntel,60,61025ae37ef11b136ea224fe,,,,,,,,,4156,66.4453125,-27.59375,1,0,0,response3disk,,5,-17.08984375,-9.734375,1,0,0,rectangle,-17.08984375,-9.734375,1,0,0,,,,,,,-17.08984375,-9.734375,1,0,0,,1,49,209,52,1,
,,,,,,,,,,,,,FF,,,,,,,,0.9005,,,,,,,,,,,,,,,,,,,,,,60fcdf62ae64294443dd010d,610368b8b1bd52c528ebd7b6,2021-07-29_19h50.32.535,Simcolourproject_2stim_asymm_v5,2020.2.10,MacIntel,60,61025ae37ef11b136ea224fe,,,,,,,,,1079,40.0390625,-68.046875,1,0,0,response3disk,,4,10.40234375,8.203125,1,0,0,rectangle,89.66796875,54.01953125,1,0,0,response1disk_3,TRUE,6,6,"[40,217,22,283,276,187,55,64,182,114,173,76,290,241,1,314,302,211,71,293]",1.2168,-0.4296875,-9.265625,1,0,0,rectangle,1,50,210,22,1,
,,,,,,,,,,,,,FF,,,,,,,,1.9335,,,,,,,,,,,,,,,,,,,,,,60fcdf62ae64294443dd010d,610368b8b1bd52c528ebd7b6,2021-07-29_19h50.32.535,Simcolourproject_2stim_asymm_v5,2020.2.10,MacIntel,60,61025ae37ef11b136ea224fe,,,,,,,,,4322,92.1953125,41.1796875,1,0,0,response1disk,,6,3.28125,-2.0546875,1,0,0,rectangle,3.28125,-2.0546875,1,0,0,,,,,,,3.28125,-2.0546875,1,0,0,,1,51,211,148,1,
,,,,,,,,,,,,,FF,,,,,,,,0.6344,,,,,,,,,,,,,,,,,,,,,,60fcdf62ae64294443dd010d,610368b8b1bd52c528ebd7b6,2021-07-29_19h50.32.535,Simcolourproject_2stim_asymm_v5,2020.2.10,MacIntel,60,61025ae37ef11b136ea224fe,,,,,,,,,1782,65.1171875,-32.90625,1,0,0,response3disk,,5,3.8125,3.01953125,1,0,0,rectangle,3.8125,3.01953125,1,0,0,,,,,,,3.8125,3.01953125,1,0,0,,1,52,212,98,1,
,,,,,,,,,,,,,FF,,,,,,,,0.7664,,,,,,,,,,,,,,,,,,,,,,60fcdf62ae64294443dd010d,610368b8b1bd52c528ebd7b6,2021-07-29_19h50.32.535,Simcolourproject_2stim_asymm_v5,2020.2.10,MacIntel,60,61025ae37ef11b136ea224fe,,,,,,,,,4217,78.77734375,35.56640625,1,0,0,response1disk,,6,-30.52734375,-12.73046875,1,0,0,rectangle,-30.52734375,-12.73046875,1,0,0,,,,,,,-30.52734375,-12.73046875,1,0,0,,1,53,213,51,1,
,,,,,,,,,,,,,FF,,,,,,,,0.484,,,,,,,,,,,,,,,,,,,,,,60fcdf62ae64294443dd010d,610368b8b1bd52c528ebd7b6,2021-07-29_19h50.32.535,Simcolourproject_2stim_asymm_v5,2020.2.10,MacIntel,60,61025ae37ef11b136ea224fe,,,,,,,,,4188,33.9921875,-94.78515625,1,0,0,response3disk,,4,-3.8203125,-9.7734375,1,0,0,rectangle,-3.8203125,-9.7734375,1,0,0,,,,,,,-3.8203125,-9.7734375,1,0,0,,1,54,214,16,1,
,,,,,,,,,,,,,FF,,,,,,,,0.7007,,,,,,,,,,,,,,,,,,,,,,60fcdf62ae64294443dd010d,610368b8b1bd52c528ebd7b6,2021-07-29_19h50.32.535,Simcolourproject_2stim_asymm_v5,2020.2.10,MacIntel,60,61025ae37ef11b136ea224fe,,,,,,,,,3662,-48.65625,-56.00390625,1,0,0,response5disk,,3,-1.484375,7.0078125,1,0,0,rectangle,-1.484375,7.0078125,1,0,0,,,,,,,-1.484375,7.0078125,1,0,0,,1,55,215,110,1,
,,,,,,,,,,,,,FF,,,,,,,,0.5492,,,,,,,,,,,,,,,,,,,,,,60fcdf62ae64294443dd010d,610368b8b1bd52c528ebd7b6,2021-07-29_19h50.32.535,Simcolourproject_2stim_asymm_v5,2020.2.10,MacIntel,60,61025ae37ef11b136ea224fe,,,,,,,,,1273,111.3242188,-47.97265625,1,0,0,response3disk,,5,27.6640625,2.30859375,1,0,0,rectangle,43.3828125,75.6328125,1,0,0,response1disk_3,TRUE,7,7,"[40,217,22,283,276,187,55,64,182,114,173,76,290,241,1,314,302,211,71,293]",1.0508,4.84765625,7.1328125,1,0,0,rectangle,1,56,216,33,1,
,,,,,,,,,,,,,FF,,,,,,,,0.6502,,,,,,,,,,,,,,,,,,,,,,60fcdf62ae64294443dd010d,610368b8b1bd52c528ebd7b6,2021-07-29_19h50.32.535,Simcolourproject_2stim_asymm_v5,2020.2.10,MacIntel,60,61025ae37ef11b136ea224fe,,,,,,,,,2023,77.87109375,54.91015625,1,0,0,response1disk,,6,13.39453125,-8.64453125,1,0,0,rectangle,13.39453125,-8.64453125,1,0,0,,,,,,,13.39453125,-8.64453125,1,0,0,,1,57,217,147,1,
,,,,,,,,,,,,,FF,,,,,,,,0.7004,,,,,,,,,,,,,,,,,,,,,,60fcdf62ae64294443dd010d,610368b8b1bd52c528ebd7b6,2021-07-29_19h50.32.535,Simcolourproject_2stim_asymm_v5,2020.2.10,MacIntel,60,61025ae37ef11b136ea224fe,,,,,,,,,2852,59.2265625,90.6328125,1,0,0,response1disk,,7,8.0234375,8.62890625,1,0,0,rectangle,8.0234375,8.62890625,1,0,0,,,,,,,8.0234375,8.62890625,1,0,0,,1,58,218,66,1,
,,,,,,,,,,,,,FF,,,,,,,,9.2841,,,,,,,,,,,,,,,,,,,,,,60fcdf62ae64294443dd010d,610368b8b1bd52c528ebd7b6,2021-07-29_19h50.32.535,Simcolourproject_2stim_asymm_v5,2020.2.10,MacIntel,60,61025ae37ef11b136ea224fe,,,,,,,,,2671,28.8203125,-73.03515625,1,0,0,response3disk,,4,1.9375,-4.28125,1,0,0,rectangle,1.9375,-4.28125,1,0,0,,,,,,,1.9375,-4.28125,1,0,0,,1,59,219,159,1,
,,,,,,,,,,,,,FF,,,,,,,,0.6674,,,,,,,,,,,,,,,,,,,,,,60fcdf62ae64294443dd010d,610368b8b1bd52c528ebd7b6,2021-07-29_19h50.32.535,Simcolourproject_2stim_asymm_v5,2020.2.10,MacIntel,60,61025ae37ef11b136ea224fe,,,,,,,,,877,63.671875,-41.78515625,1,0,0,response3disk,,5,2.25390625,14.546875,1,0,0,rectangle,2.25390625,14.546875,1,0,0,,,,,,,2.25390625,14.546875,1,0,0,,1,60,220,152,1,
,,,,,,,,,,,,,FF,,,,,,,,0.5675,,,,,,,,,,,,,,,,,,,,,,60fcdf62ae64294443dd010d,610368b8b1bd52c528ebd7b6,2021-07-29_19h50.32.535,Simcolourproject_2stim_asymm_v5,2020.2.10,MacIntel,60,61025ae37ef11b136ea224fe,,,,,,,,,3830,46.62109375,74.24609375,1,0,0,response1disk,,7,7.31640625,-0.6015625,1,0,0,rectangle,7.31640625,-0.6015625,1,0,0,,,,,,,7.31640625,-0.6015625,1,0,0,,1,61,221,60,1,
,,,,,,,,,,,,,FF,,,,,,,,1.0509,,,,,,,,,,,,,,,,,,,,,,60fcdf62ae64294443dd010d,610368b8b1bd52c528ebd7b6,2021-07-29_19h50.32.535,Simcolourproject_2stim_asymm_v5,2020.2.10,MacIntel,60,61025ae37ef11b136ea224fe,,,,,,,,,212,82.74609375,36.75390625,1,0,0,response1disk,,6,12.71484375,-7.26171875,1,0,0,rectangle,12.71484375,-7.26171875,1,0,0,,,,,,,12.71484375,-7.26171875,1,0,0,,1,62,222,48,1,
,,,,,,,,,,,,,FF,,,,,,,,0.5668,,,,,,,,,,,,,,,,,,,,,,60fcdf62ae64294443dd010d,610368b8b1bd52c528ebd7b6,2021-07-29_19h50.32.535,Simcolourproject_2stim_asymm_v5,2020.2.10,MacIntel,60,61025ae37ef11b136ea224fe,,,,,,,,,2804,76.70703125,-56.00390625,1,0,0,response3disk,,5,-0.09765625,-4.75390625,1,0,0,rectangle,-0.09765625,-4.75390625,1,0,0,,,,,,,-0.09765625,-4.75390625,1,0,0,,1,63,223,10,1,
,,,,,,,,,,,,,FF,,,,,,,,0.4674,,,,,,,,,,,,,,,,,,,,,,60fcdf62ae64294443dd010d,610368b8b1bd52c528ebd7b6,2021-07-29_19h50.32.535,Simcolourproject_2stim_asymm_v5,2020.2.10,MacIntel,60,61025ae37ef11b136ea224fe,,,,,,,,,2580,46.6796875,-50.8046875,1,0,0,response3disk,,4,5.89453125,0.828125,1,0,0,rectangle,5.89453125,0.828125,1,0,0,,,,,,,5.89453125,0.828125,1,0,0,,1,64,224,137,1,
,,,,,,,,,,,,,FF,,,,,,,,0.3839,,,,,,,,,,,,,,,,,,,,,,60fcdf62ae64294443dd010d,610368b8b1bd52c528ebd7b6,2021-07-29_19h50.32.535,Simcolourproject_2stim_asymm_v5,2020.2.10,MacIntel,60,61025ae37ef11b136ea224fe,,,,,,,,,2207,65.26953125,22.68359375,1,0,0,response1disk,,6,-17.3984375,12.4921875,1,0,0,rectangle,-17.3984375,12.4921875,1,0,0,,,,,,,-17.3984375,12.4921875,1,0,0,,1,65,225,104,1,
,,,,,,,,,,,,,FF,,,,,,,,0.5824,,,,,,,,,,,,,,,,,,,,,,60fcdf62ae64294443dd010d,610368b8b1bd52c528ebd7b6,2021-07-29_19h50.32.535,Simcolourproject_2stim_asymm_v5,2020.2.10,MacIntel,60,61025ae37ef11b136ea224fe,,,,,,,,,3486,58.90625,28.90234375,1,0,0,response1disk,,6,7.44140625,-6.26953125,1,0,0,rectangle,7.44140625,-6.26953125,1,0,0,,,,,,,7.44140625,-6.26953125,1,0,0,,1,66,226,17,1,
,,,,,,,,,,,,,FF,,,,,,,,0.9168,,,,,,,,,,,,,,,,,,,,,,60fcdf62ae64294443dd010d,610368b8b1bd52c528ebd7b6,2021-07-29_19h50.32.535,Simcolourproject_2stim_asymm_v5,2020.2.10,MacIntel,60,61025ae37ef11b136ea224fe,,,,,,,,,2997,-49.06640625,-94.30859375,1,0,0,response5disk,,3,1.94140625,4.7890625,1,0,0,rectangle,1.94140625,4.7890625,1,0,0,,,,,,,1.94140625,4.7890625,1,0,0,,1,67,227,76,1,
,,,,,,,,,,,,,FF,,,,,,,,1.1331,,,,,,,,,,,,,,,,,,,,,,60fcdf62ae64294443dd010d,610368b8b1bd52c528ebd7b6,2021-07-29_19h50.32.535,Simcolourproject_2stim_asymm_v5,2020.2.10,MacIntel,60,61025ae37ef11b136ea224fe,,,,,,,,,4160,83.37890625,56.32421875,1,0,0,response1disk,,6,3.7109375,3.671875,1,0,0,rectangle,3.7109375,3.671875,1,0,0,,,,,,,3.7109375,3.671875,1,0,0,,1,68,228,67,1,
,,,,,,,,,,,,,FF,,,,,,,,0.7168,,,,,,,,,,,,,,,,,,,,,,60fcdf62ae64294443dd010d,610368b8b1bd52c528ebd7b6,2021-07-29_19h50.32.535,Simcolourproject_2stim_asymm_v5,2020.2.10,MacIntel,60,61025ae37ef11b136ea224fe,,,,,,,,,905,53.54296875,-38.30078125,1,0,0,response3disk,,5,-7.3125,-7.78125,1,0,0,rectangle,-7.3125,-7.78125,1,0,0,,,,,,,-7.3125,-7.78125,1,0,0,,1,69,229,131,1,
,,,,,,,,,,,,,FF,,,,,,,,1.1988,,,,,,,,,,,,,,,,,,,,,,60fcdf62ae64294443dd010d,610368b8b1bd52c528ebd7b6,2021-07-29_19h50.32.535,Simcolourproject_2stim_asymm_v5,2020.2.10,MacIntel,60,61025ae37ef11b136ea224fe,,,,,,,,,3193,61.23828125,-101.421875,1,0,0,response3disk,,4,7.39453125,7.453125,1,0,0,rectangle,7.39453125,7.453125,1,0,0,,,,,,,7.39453125,7.453125,1,0,0,,1,70,230,49,1,
,,,,,,,,,,,,,FF,,,,,,,,2.4166,,,,,,,,,,,,,,,,,,,,,,60fcdf62ae64294443dd010d,610368b8b1bd52c528ebd7b6,2021-07-29_19h50.32.535,Simcolourproject_2stim_asymm_v5,2020.2.10,MacIntel,60,61025ae37ef11b136ea224fe,,,,,,,,,2221,105.1601563,-54.9921875,1,0,0,response3disk,,5,-27.75,-0.26171875,1,0,0,rectangle,-27.75,-0.26171875,1,0,0,,,,,,,-27.75,-0.26171875,1,0,0,,1,71,231,115,1,
,,,,,,,,,,,,,FF,,,,,,,,0.9665,,,,,,,,,,,,,,,,,,,,,,60fcdf62ae64294443dd010d,610368b8b1bd52c528ebd7b6,2021-07-29_19h50.32.535,Simcolourproject_2stim_asymm_v5,2020.2.10,MacIntel,60,61025ae37ef11b136ea224fe,,,,,,,,,896,47.53125,-95.2578125,1,0,0,response3disk,,4,1.375,-9.4765625,1,0,0,rectangle,1.375,-9.4765625,1,0,0,,,,,,,1.375,-9.4765625,1,0,0,,1,72,232,121,1,
,,,,,,,,,,,,,FF,,,,,,,,0.8338,,,,,,,,,,,,,,,,,,,,,,60fcdf62ae64294443dd010d,610368b8b1bd52c528ebd7b6,2021-07-29_19h50.32.535,Simcolourproject_2stim_asymm_v5,2020.2.10,MacIntel,60,61025ae37ef11b136ea224fe,,,,,,,,,559,83.08984375,-32.33984375,1,0,0,response3disk,,5,35.7421875,-2.69921875,1,0,0,rectangle,35.7421875,-2.69921875,1,0,0,,,,,,,35.7421875,-2.69921875,1,0,0,,1,73,233,149,1,
,,,,,,,,,,,,,FF,,,,,,,,0.5334,,,,,,,,,,,,,,,,,,,,,,60fcdf62ae64294443dd010d,610368b8b1bd52c528ebd7b6,2021-07-29_19h50.32.535,Simcolourproject_2stim_asymm_v5,2020.2.10,MacIntel,60,61025ae37ef11b136ea224fe,,,,,,,,,2215,85.796875,83.87890625,1,0,0,response1disk,,6,-1.73046875,-7.65234375,1,0,0,rectangle,-1.73046875,-7.65234375,1,0,0,,,,,,,-1.73046875,-7.65234375,1,0,0,,1,74,234,133,1,
,,,,,,,,,,,,,FF,,,,,,,,0.4497,,,,,,,,,,,,,,,,,,,,,,60fcdf62ae64294443dd010d,610368b8b1bd52c528ebd7b6,2021-07-29_19h50.32.535,Simcolourproject_2stim_asymm_v5,2020.2.10,MacIntel,60,61025ae37ef11b136ea224fe,,,,,,,,,1019,102.1445313,28.9921875,1,0,0,response1disk,,6,-5.03515625,12.06640625,1,0,0,rectangle,-5.03515625,12.06640625,1,0,0,,,,,,,-5.03515625,12.06640625,1,0,0,,1,75,235,92,1,
,,,,,,,,,,,,,FF,,,,,,,,0.9501,,,,,,,,,,,,,,,,,,,,,,60fcdf62ae64294443dd010d,610368b8b1bd52c528ebd7b6,2021-07-29_19h50.32.535,Simcolourproject_2stim_asymm_v5,2020.2.10,MacIntel,60,61025ae37ef11b136ea224fe,,,,,,,,,2488,-21.5,-83.92578125,1,0,0,response5disk,,3,17.7578125,1.75,1,0,0,rectangle,17.7578125,1.75,1,0,0,,,,,,,17.7578125,1.75,1,0,0,,1,76,236,102,1,
,,,,,,,,,,,,,FF,,,,,,,,0.4498,,,,,,,,,,,,,,,,,,,,,,60fcdf62ae64294443dd010d,610368b8b1bd52c528ebd7b6,2021-07-29_19h50.32.535,Simcolourproject_2stim_asymm_v5,2020.2.10,MacIntel,60,61025ae37ef11b136ea224fe,,,,,,,,,4233,30.6171875,-118.046875,1,0,0,response3disk,,4,12.5390625,-4.21484375,1,0,0,rectangle,12.5390625,-4.21484375,1,0,0,,,,,,,12.5390625,-4.21484375,1,0,0,,1,77,237,41,1,
,,,,,,,,,,,,,FF,,,,,,,,0.6667,,,,,,,,,,,,,,,,,,,,,,60fcdf62ae64294443dd010d,610368b8b1bd52c528ebd7b6,2021-07-29_19h50.32.535,Simcolourproject_2stim_asymm_v5,2020.2.10,MacIntel,60,61025ae37ef11b136ea224fe,,,,,,,,,3007,-47.54296875,-111.1601563,1,0,0,response5disk,,3,22.99609375,10.078125,1,0,0,rectangle,22.99609375,10.078125,1,0,0,,,,,,,22.99609375,10.078125,1,0,0,,1,78,238,132,1,
,,,,,,,,,,,,,FF,,,,,,,,0.6511,,,,,,,,,,,,,,,,,,,,,,60fcdf62ae64294443dd010d,610368b8b1bd52c528ebd7b6,2021-07-29_19h50.32.535,Simcolourproject_2stim_asymm_v5,2020.2.10,MacIntel,60,61025ae37ef11b136ea224fe,,,,,,,,,1774,88.90625,-39.44921875,1,0,0,response3disk,,5,23.14453125,17.68359375,1,0,0,rectangle,23.14453125,17.68359375,1,0,0,,,,,,,23.14453125,17.68359375,1,0,0,,1,79,239,46,1,
,,,,,,,,,,,,,FF,,,,,,,,1.1838,,,,,,,,,,,,,,,,,,,,,,60fcdf62ae64294443dd010d,610368b8b1bd52c528ebd7b6,2021-07-29_19h50.32.535,Simcolourproject_2stim_asymm_v5,2020.2.10,MacIntel,60,61025ae37ef11b136ea224fe,,,,,,,,,123,74.26171875,37.48046875,1,0,0,response1disk,,6,7.59375,-7.79296875,1,0,0,rectangle,54.2109375,-39.17578125,1,0,0,response3disk_3,TRUE,5,5,"[40,217,22,283,276,187,55,64,182,114,173,76,290,241,1,314,302,211,71,293]",1.4832,-12.24609375,3.44921875,1,0,0,rectangle,1,80,240,122,1,
,,,,,,,,,,,,,FF,,,,,,,,0.901,,,,,,,,,,,,,,,,,,,,,,60fcdf62ae64294443dd010d,610368b8b1bd52c528ebd7b6,2021-07-29_19h50.32.535,Simcolourproject_2stim_asymm_v5,2020.2.10,MacIntel,60,61025ae37ef11b136ea224fe,,,,,,,,,195,27.51953125,-82.16015625,1,0,0,response3disk,,4,2.8828125,4.48828125,1,0,0,rectangle,2.8828125,4.48828125,1,0,0,,,,,,,2.8828125,4.48828125,1,0,0,,1,81,241,96,1,
,,,,,,,,,,,,,FF,,,,,,,,0.7335,,,,,,,,,,,,,,,,,,,,,,60fcdf62ae64294443dd010d,610368b8b1bd52c528ebd7b6,2021-07-29_19h50.32.535,Simcolourproject_2stim_asymm_v5,2020.2.10,MacIntel,60,61025ae37ef11b136ea224fe,,,,,,,,,1063,-28.046875,-63.0703125,1,0,0,response5disk,,3,-9.640625,7.83203125,1,0,0,rectangle,-9.640625,7.83203125,1,0,0,,,,,,,-9.640625,7.83203125,1,0,0,,1,82,242,42,1,
,,,,,,,,,,,,,FF,,,,,,,,0.5001,,,,,,,,,,,,,,,,,,,,,,60fcdf62ae64294443dd010d,610368b8b1bd52c528ebd7b6,2021-07-29_19h50.32.535,Simcolourproject_2stim_asymm_v5,2020.2.10,MacIntel,60,61025ae37ef11b136ea224fe,,,,,,,,,1340,87.484375,-58.4609375,1,0,0,response3disk,,5,33.03515625,-16.90234375,1,0,0,rectangle,33.03515625,-16.90234375,1,0,0,,,,,,,33.03515625,-16.90234375,1,0,0,,1,83,243,139,1,
,,,,,,,,,,,,,FF,,,,,,,,0.7002,,,,,,,,,,,,,,,,,,,,,,60fcdf62ae64294443dd010d,610368b8b1bd52c528ebd7b6,2021-07-29_19h50.32.535,Simcolourproject_2stim_asymm_v5,2020.2.10,MacIntel,60,61025ae37ef11b136ea224fe,,,,,,,,,3155,-27.7421875,-70.078125,1,0,0,response5disk,,3,-2.78515625,14.9609375,1,0,0,rectangle,-2.78515625,14.9609375,1,0,0,,,,,,,-2.78515625,14.9609375,1,0,0,,1,84,244,8,1,
,,,,,,,,,,,,,FF,,,,,,,,1.1015,,,,,,,,,,,,,,,,,,,,,,60fcdf62ae64294443dd010d,610368b8b1bd52c528ebd7b6,2021-07-29_19h50.32.535,Simcolourproject_2stim_asymm_v5,2020.2.10,MacIntel,60,61025ae37ef11b136ea224fe,,,,,,,,,1692,37.5859375,86.83203125,1,0,0,response1disk,,7,-1.48828125,2.65234375,1,0,0,rectangle,-1.48828125,2.65234375,1,0,0,,,,,,,-1.48828125,2.65234375,1,0,0,,1,85,245,11,1,
,,,,,,,,,,,,,FF,,,,,,,,0.5496,,,,,,,,,,,,,,,,,,,,,,60fcdf62ae64294443dd010d,610368b8b1bd52c528ebd7b6,2021-07-29_19h50.32.535,Simcolourproject_2stim_asymm_v5,2020.2.10,MacIntel,60,61025ae37ef11b136ea224fe,,,,,,,,,2277,91.359375,36.48046875,1,0,0,response1disk,,6,2.33984375,-9.95703125,1,0,0,rectangle,2.33984375,-9.95703125,1,0,0,,,,,,,2.33984375,-9.95703125,1,0,0,,1,86,246,56,1,
,,,,,,,,,,,,,FF,,,,,,,,1.2675,,,,,,,,,,,,,,,,,,,,,,60fcdf62ae64294443dd010d,610368b8b1bd52c528ebd7b6,2021-07-29_19h50.32.535,Simcolourproject_2stim_asymm_v5,2020.2.10,MacIntel,60,61025ae37ef11b136ea224fe,,,,,,,,,1069,94.3046875,-39.20703125,1,0,0,response3disk,,5,-11.73828125,8.109375,1,0,0,rectangle,-11.73828125,8.109375,1,0,0,,,,,,,-11.73828125,8.109375,1,0,0,,1,87,247,156,1,
,,,,,,,,,,,,,FF,,,,,,,,1.184,,,,,,,,,,,,,,,,,,,,,,60fcdf62ae64294443dd010d,610368b8b1bd52c528ebd7b6,2021-07-29_19h50.32.535,Simcolourproject_2stim_asymm_v5,2020.2.10,MacIntel,60,61025ae37ef11b136ea224fe,,,,,,,,,1964,-77.28125,-49.91015625,1,0,0,response5disk,,2,-11.69140625,7.8203125,1,0,0,rectangle,-11.69140625,7.8203125,1,0,0,,,,,,,-11.69140625,7.8203125,1,0,0,,1,88,248,72,1,
