key_resp.keys,key_resp.rt,key_resp_14.keys,key_resp_14.rt,key_resp_15.keys,key_resp_15.rt,key_resp_17.keys,key_resp_17.rt,key_resp_9.keys,key_resp_9.rt,key_resp_10.keys,key_resp_10.rt,practice_comparison,Ecc,mouse_5.x,mouse_5.y,mouse_5.leftButton,mouse_5.midButton,mouse_5.rightButton,mouse_5.clicked_name,pracsimilarity,response_time,mouse_10.x,mouse_10.y,mouse_10.leftButton,mouse_10.midButton,mouse_10.rightButton,mouse_10.clicked_name,mouse_7.x,mouse_7.y,mouse_7.leftButton,mouse_7.midButton,mouse_7.rightButton,mouse_6.x,mouse_6.y,mouse_6.leftButton,mouse_6.midButton,mouse_6.rightButton,duringprac.thisRepN,duringprac.thisTrialN,duringprac.thisN,duringprac.thisIndex,duringprac.ran,participant,session,date,expName,psychopyVersion,OS,frameRate,study_id,mouse_7.clicked_name,catchpracsimilarity,catch_response_time,catchnumberprac,catchtrialorderprac,mouse_6.clicked_name,key_resp_22.keys,key_resp_22.rt,realcomparison,mouse.x,mouse.y,mouse.leftButton,mouse.midButton,mouse.rightButton,mouse.clicked_name,Colour2,similarity,mouse_2.x,mouse_2.y,mouse_2.leftButton,mouse_2.midButton,mouse_2.rightButton,mouse_2.clicked_name,mouse_3.x,mouse_3.y,mouse_3.leftButton,mouse_3.midButton,mouse_3.rightButton,mouse_11.x,mouse_11.y,mouse_11.leftButton,mouse_11.midButton,mouse_11.rightButton,trials_2.thisRepN,trials_2.thisTrialN,trials_2.thisN,trials_2.thisIndex,trials_2.ran,Colour1,mouse_3.clicked_name,catchornah,catchsimilarity,catchnumber,catchtrialorder,catchRT,mouse_11.clicked_name
space,5.596,space,6.165,space,31.038,space,16.685,space,1.216,space,7.269,124,FF,116,28,1,0,0,response1disk_5,6,9.217,5,-3,1,0,0,rectangle_8,5,-3,1,0,0,5,-3,1,0,0,0,0,0,3,1,60fc7e0e424b1ce5aa8dd706,610377e4181346162b9b49b9,2021-07-29_23h03.30.623,Simcolourproject_2stim_asymm_v5,2020.2.10,MacIntel,60,61025ae37ef11b136ea224fe,,,,,,,,,,,,,,,,,,,,,,,,,,,,,,,,,,,,,,,,,,,,,,
,,,,,,,,,,,,157,PF,-71,-42,1,0,0,response5disk_5,2,2.701,4,-2,1,0,0,rectangle_8,-80,45,1,0,0,-2,5,1,0,0,0,1,1,6,1,60fc7e0e424b1ce5aa8dd706,610377e4181346162b9b49b9,2021-07-29_23h03.30.623,Simcolourproject_2stim_asymm_v5,2020.2.10,MacIntel,60,61025ae37ef11b136ea224fe,response7disk_7,1,3.533,1,"[2,5]",rectangle_4,,,,,,,,,,,,,,,,,,,,,,,,,,,,,,,,,,,,,,,,
,,,,,,,,,,,,137,PF,46,-86,1,0,0,response3disk_5,4,1.984,3,-5,1,0,0,rectangle_8,3,-5,1,0,0,3,-5,1,0,0,0,2,2,4,1,60fc7e0e424b1ce5aa8dd706,610377e4181346162b9b49b9,2021-07-29_23h03.30.623,Simcolourproject_2stim_asymm_v5,2020.2.10,MacIntel,60,61025ae37ef11b136ea224fe,,,,,,,,,,,,,,,,,,,,,,,,,,,,,,,,,,,,,,,,,,,,,,
,,,,,,,,,,,,8,PF,34,-84,1,0,0,response3disk_5,4,1.183,3,4,1,0,0,rectangle_8,3,4,1,0,0,3,4,1,0,0,0,3,3,1,1,60fc7e0e424b1ce5aa8dd706,610377e4181346162b9b49b9,2021-07-29_23h03.30.623,Simcolourproject_2stim_asymm_v5,2020.2.10,MacIntel,60,61025ae37ef11b136ea224fe,,,,,,,,,,,,,,,,,,,,,,,,,,,,,,,,,,,,,,,,,,,,,,
,,,,,,,,,,,,136,FF,47,-73,1,0,0,response3disk_5,4,2.249,-3,-6,1,0,0,rectangle_8,-86,32,1,0,0,-2,0,1,0,0,0,4,4,5,1,60fc7e0e424b1ce5aa8dd706,610377e4181346162b9b49b9,2021-07-29_23h03.30.623,Simcolourproject_2stim_asymm_v5,2020.2.10,MacIntel,60,61025ae37ef11b136ea224fe,response7disk_7,1,1.834,1,"[2,5]",rectangle_4,,,,,,,,,,,,,,,,,,,,,,,,,,,,,,,,,,,,,,,,
,,,,,,,,,,,,136,PF,92,-47,1,0,0,response3disk_5,5,1.901,7,-2,1,0,0,rectangle_8,7,-2,1,0,0,7,-2,1,0,0,0,5,5,2,1,60fc7e0e424b1ce5aa8dd706,610377e4181346162b9b49b9,2021-07-29_23h03.30.623,Simcolourproject_2stim_asymm_v5,2020.2.10,MacIntel,60,61025ae37ef11b136ea224fe,,,,,,,,,,,,,,,,,,,,,,,,,,,,,,,,,,,,,,,,,,,,,,
,,,,,,,,,,,,124,FF,82,-41,1,0,0,response3disk_5,5,1.816,-11,-2,1,0,0,rectangle_8,-11,-2,1,0,0,-11,-2,1,0,0,0,6,6,0,1,60fc7e0e424b1ce5aa8dd706,610377e4181346162b9b49b9,2021-07-29_23h03.30.623,Simcolourproject_2stim_asymm_v5,2020.2.10,MacIntel,60,61025ae37ef11b136ea224fe,,,,,,,,,,,,,,,,,,,,,,,,,,,,,,,,,,,,,,,,,,,,,,
,,,,,,,,,,,,,FF,,,,,,,,1.301,,,,,,,,,,,,,,,,,,,,,,60fc7e0e424b1ce5aa8dd706,610377e4181346162b9b49b9,2021-07-29_23h03.30.623,Simcolourproject_2stim_asymm_v5,2020.2.10,MacIntel,60,61025ae37ef11b136ea224fe,,,,,,,space,3.406,1674,43,-73,1,0,0,response3disk,,4,10,4,1,0,0,rectangle,10,4,1,0,0,10,4,1,0,0,0,0,0,121,1,,,,,,,,
,,,,,,,,,,,,,FF,,,,,,,,1.866,,,,,,,,,,,,,,,,,,,,,,60fc7e0e424b1ce5aa8dd706,610377e4181346162b9b49b9,2021-07-29_23h03.30.623,Simcolourproject_2stim_asymm_v5,2020.2.10,MacIntel,60,61025ae37ef11b136ea224fe,,,,,,,,,3679,52,-89,1,0,0,response3disk,,4,6,0,1,0,0,rectangle,6,0,1,0,0,6,0,1,0,0,0,1,1,153,1,,,,,,,,
,,,,,,,,,,,,,FF,,,,,,,,1.1,,,,,,,,,,,,,,,,,,,,,,60fc7e0e424b1ce5aa8dd706,610377e4181346162b9b49b9,2021-07-29_23h03.30.623,Simcolourproject_2stim_asymm_v5,2020.2.10,MacIntel,60,61025ae37ef11b136ea224fe,,,,,,,,,2443,84,32,1,0,0,response1disk,,6,13,-1,1,0,0,rectangle,13,-1,1,0,0,13,-1,1,0,0,0,2,2,120,1,,,,,,,,
,,,,,,,,,,,,,FF,,,,,,,,1.249,,,,,,,,,,,,,,,,,,,,,,60fc7e0e424b1ce5aa8dd706,610377e4181346162b9b49b9,2021-07-29_23h03.30.623,Simcolourproject_2stim_asymm_v5,2020.2.10,MacIntel,60,61025ae37ef11b136ea224fe,,,,,,,,,1950,86,-51,1,0,0,response3disk,,5,3,3,1,0,0,rectangle,3,3,1,0,0,3,3,1,0,0,0,3,3,96,1,,,,,,,,
,,,,,,,,,,,,,FF,,,,,,,,1.383,,,,,,,,,,,,,,,,,,,,,,60fc7e0e424b1ce5aa8dd706,610377e4181346162b9b49b9,2021-07-29_23h03.30.623,Simcolourproject_2stim_asymm_v5,2020.2.10,MacIntel,60,61025ae37ef11b136ea224fe,,,,,,,,,2615,-42,-84,1,0,0,response5disk,,3,-6,6,1,0,0,rectangle,-6,6,1,0,0,-6,6,1,0,0,0,4,4,5,1,,,,,,,,
,,,,,,,,,,,,,FF,,,,,,,,0.834,,,,,,,,,,,,,,,,,,,,,,60fc7e0e424b1ce5aa8dd706,610377e4181346162b9b49b9,2021-07-29_23h03.30.623,Simcolourproject_2stim_asymm_v5,2020.2.10,MacIntel,60,61025ae37ef11b136ea224fe,,,,,,,,,2995,-46,-72,1,0,0,response5disk,,3,6,3,1,0,0,rectangle,6,3,1,0,0,6,3,1,0,0,0,5,5,136,1,,,,,,,,
,,,,,,,,,,,,,FF,,,,,,,,1.115,,,,,,,,,,,,,,,,,,,,,,60fc7e0e424b1ce5aa8dd706,610377e4181346162b9b49b9,2021-07-29_23h03.30.623,Simcolourproject_2stim_asymm_v5,2020.2.10,MacIntel,60,61025ae37ef11b136ea224fe,,,,,,,,,923,88,-35,1,0,0,response3disk,,5,0,0,1,0,0,rectangle,0,0,1,0,0,0,0,1,0,0,0,6,6,65,1,,,,,,,,
,,,,,,,,,,,,,FF,,,,,,,,1.316,,,,,,,,,,,,,,,,,,,,,,60fc7e0e424b1ce5aa8dd706,610377e4181346162b9b49b9,2021-07-29_23h03.30.623,Simcolourproject_2stim_asymm_v5,2020.2.10,MacIntel,60,61025ae37ef11b136ea224fe,,,,,,,,,1808,73,49,1,0,0,response1disk,,6,1,11,1,0,0,rectangle,1,11,1,0,0,1,11,1,0,0,0,7,7,150,1,,,,,,,,
,,,,,,,,,,,,,FF,,,,,,,,2.732,,,,,,,,,,,,,,,,,,,,,,60fc7e0e424b1ce5aa8dd706,610377e4181346162b9b49b9,2021-07-29_23h03.30.623,Simcolourproject_2stim_asymm_v5,2020.2.10,MacIntel,60,61025ae37ef11b136ea224fe,,,,,,,,,1904,95,-56,1,0,0,response3disk,,5,-1,3,1,0,0,rectangle,-1,3,1,0,0,-1,3,1,0,0,0,8,8,95,1,,,,,,,,
,,,,,,,,,,,,,FF,,,,,,,,2.385,,,,,,,,,,,,,,,,,,,,,,60fc7e0e424b1ce5aa8dd706,610377e4181346162b9b49b9,2021-07-29_23h03.30.623,Simcolourproject_2stim_asymm_v5,2020.2.10,MacIntel,60,61025ae37ef11b136ea224fe,,,,,,,,,186,-88,37,1,0,0,response7disk,,1,-5,-3,1,0,0,rectangle,-43,-98,1,0,0,-3,2,1,0,0,0,9,9,152,1,,response5disk_3,TRUE,3,3,"[69,115,0,283,242,10,148,105,247,144,63,117,76,85,171,105,153,231,91,23]",2.468,rectangle
,,,,,,,,,,,,,FF,,,,,,,,0.934,,,,,,,,,,,,,,,,,,,,,,60fc7e0e424b1ce5aa8dd706,610377e4181346162b9b49b9,2021-07-29_23h03.30.623,Simcolourproject_2stim_asymm_v5,2020.2.10,MacIntel,60,61025ae37ef11b136ea224fe,,,,,,,,,501,-29,-90,1,0,0,response5disk,,3,4,-8,1,0,0,rectangle,4,-8,1,0,0,4,-8,1,0,0,0,10,10,98,1,,,,,,,,
,,,,,,,,,,,,,FF,,,,,,,,1.017,,,,,,,,,,,,,,,,,,,,,,60fc7e0e424b1ce5aa8dd706,610377e4181346162b9b49b9,2021-07-29_23h03.30.623,Simcolourproject_2stim_asymm_v5,2020.2.10,MacIntel,60,61025ae37ef11b136ea224fe,,,,,,,,,211,77,-43,1,0,0,response3disk,,5,9,-3,1,0,0,rectangle,9,-3,1,0,0,9,-3,1,0,0,0,11,11,84,1,,,,,,,,
,,,,,,,,,,,,,FF,,,,,,,,0.8,,,,,,,,,,,,,,,,,,,,,,60fc7e0e424b1ce5aa8dd706,610377e4181346162b9b49b9,2021-07-29_23h03.30.623,Simcolourproject_2stim_asymm_v5,2020.2.10,MacIntel,60,61025ae37ef11b136ea224fe,,,,,,,,,1549,53,-106,1,0,0,response3disk,,4,16,-5,1,0,0,rectangle,16,-5,1,0,0,16,-5,1,0,0,0,12,12,70,1,,,,,,,,
,,,,,,,,,,,,,FF,,,,,,,,1.749,,,,,,,,,,,,,,,,,,,,,,60fc7e0e424b1ce5aa8dd706,610377e4181346162b9b49b9,2021-07-29_23h03.30.623,Simcolourproject_2stim_asymm_v5,2020.2.10,MacIntel,60,61025ae37ef11b136ea224fe,,,,,,,,,2711,96,-52,1,0,0,response3disk,,5,3,-7,1,0,0,rectangle,3,-7,1,0,0,3,-7,1,0,0,0,13,13,90,1,,,,,,,,
,,,,,,,,,,,,,FF,,,,,,,,1.05,,,,,,,,,,,,,,,,,,,,,,60fc7e0e424b1ce5aa8dd706,610377e4181346162b9b49b9,2021-07-29_23h03.30.623,Simcolourproject_2stim_asymm_v5,2020.2.10,MacIntel,60,61025ae37ef11b136ea224fe,,,,,,,,,1084,74,-50,1,0,0,response3disk,,5,-16,-6,1,0,0,rectangle,-16,-6,1,0,0,-16,-6,1,0,0,0,14,14,69,1,,,,,,,,
,,,,,,,,,,,,,FF,,,,,,,,1.451,,,,,,,,,,,,,,,,,,,,,,60fc7e0e424b1ce5aa8dd706,610377e4181346162b9b49b9,2021-07-29_23h03.30.623,Simcolourproject_2stim_asymm_v5,2020.2.10,MacIntel,60,61025ae37ef11b136ea224fe,,,,,,,,,3840,-52,-97,1,0,0,response5disk,,3,-7,12,1,0,0,rectangle,-7,12,1,0,0,-7,12,1,0,0,0,15,15,27,1,,,,,,,,
,,,,,,,,,,,,,FF,,,,,,,,2.567,,,,,,,,,,,,,,,,,,,,,,60fc7e0e424b1ce5aa8dd706,610377e4181346162b9b49b9,2021-07-29_23h03.30.623,Simcolourproject_2stim_asymm_v5,2020.2.10,MacIntel,60,61025ae37ef11b136ea224fe,,,,,,,,,2167,-61,77,1,0,0,response7disk,,0,9,7,1,0,0,rectangle,9,7,1,0,0,9,7,1,0,0,0,16,16,55,1,,,,,,,,
,,,,,,,,,,,,,FF,,,,,,,,1.232,,,,,,,,,,,,,,,,,,,,,,60fc7e0e424b1ce5aa8dd706,610377e4181346162b9b49b9,2021-07-29_23h03.30.623,Simcolourproject_2stim_asymm_v5,2020.2.10,MacIntel,60,61025ae37ef11b136ea224fe,,,,,,,,,1465,-80,-42,1,0,0,response5disk,,2,0,5,1,0,0,rectangle,0,5,1,0,0,0,5,1,0,0,0,17,17,113,1,,,,,,,,
,,,,,,,,,,,,,FF,,,,,,,,0.901,,,,,,,,,,,,,,,,,,,,,,60fc7e0e424b1ce5aa8dd706,610377e4181346162b9b49b9,2021-07-29_23h03.30.623,Simcolourproject_2stim_asymm_v5,2020.2.10,MacIntel,60,61025ae37ef11b136ea224fe,,,,,,,,,4351,-94,42,1,0,0,response7disk,,1,6,9,1,0,0,rectangle,6,9,1,0,0,6,9,1,0,0,0,18,18,54,1,,,,,,,,
,,,,,,,,,,,,,FF,,,,,,,,1.117,,,,,,,,,,,,,,,,,,,,,,60fc7e0e424b1ce5aa8dd706,610377e4181346162b9b49b9,2021-07-29_23h03.30.623,Simcolourproject_2stim_asymm_v5,2020.2.10,MacIntel,60,61025ae37ef11b136ea224fe,,,,,,,,,3571,48,-83,1,0,0,response3disk,,4,-1,8,1,0,0,rectangle,-1,8,1,0,0,-1,8,1,0,0,0,19,19,2,1,,,,,,,,
,,,,,,,,,,,,,FF,,,,,,,,0.9,,,,,,,,,,,,,,,,,,,,,,60fc7e0e424b1ce5aa8dd706,610377e4181346162b9b49b9,2021-07-29_23h03.30.623,Simcolourproject_2stim_asymm_v5,2020.2.10,MacIntel,60,61025ae37ef11b136ea224fe,,,,,,,,,1415,92,-40,1,0,0,response3disk,,5,-9,2,1,0,0,rectangle,-9,2,1,0,0,-9,2,1,0,0,0,20,20,126,1,,,,,,,,
,,,,,,,,,,,,,FF,,,,,,,,0.916,,,,,,,,,,,,,,,,,,,,,,60fc7e0e424b1ce5aa8dd706,610377e4181346162b9b49b9,2021-07-29_23h03.30.623,Simcolourproject_2stim_asymm_v5,2020.2.10,MacIntel,60,61025ae37ef11b136ea224fe,,,,,,,,,878,94,-63,1,0,0,response3disk,,5,-1,-4,1,0,0,rectangle,-1,-4,1,0,0,-1,-4,1,0,0,0,21,21,143,1,,,,,,,,
,,,,,,,,,,,,,FF,,,,,,,,0.933,,,,,,,,,,,,,,,,,,,,,,60fc7e0e424b1ce5aa8dd706,610377e4181346162b9b49b9,2021-07-29_23h03.30.623,Simcolourproject_2stim_asymm_v5,2020.2.10,MacIntel,60,61025ae37ef11b136ea224fe,,,,,,,,,1725,92,48,1,0,0,response1disk,,6,-5,4,1,0,0,rectangle,-43,84,1,0,0,12,7,1,0,0,0,22,22,145,1,,response7disk_3,TRUE,0,0,"[69,115,0,283,242,10,148,105,247,144,63,117,76,85,171,105,153,231,91,23]",2.515,rectangle
,,,,,,,,,,,,,FF,,,,,,,,1.084,,,,,,,,,,,,,,,,,,,,,,60fc7e0e424b1ce5aa8dd706,610377e4181346162b9b49b9,2021-07-29_23h03.30.623,Simcolourproject_2stim_asymm_v5,2020.2.10,MacIntel,60,61025ae37ef11b136ea224fe,,,,,,,,,1682,-90,-33,1,0,0,response5disk,,2,-1,4,1,0,0,rectangle,-1,4,1,0,0,-1,4,1,0,0,0,23,23,106,1,,,,,,,,
,,,,,,,,,,,,,FF,,,,,,,,1.833,,,,,,,,,,,,,,,,,,,,,,60fc7e0e424b1ce5aa8dd706,610377e4181346162b9b49b9,2021-07-29_23h03.30.623,Simcolourproject_2stim_asymm_v5,2020.2.10,MacIntel,60,61025ae37ef11b136ea224fe,,,,,,,,,2245,-59,-90,1,0,0,response5disk,,3,-13,-3,1,0,0,rectangle,-13,-3,1,0,0,-13,-3,1,0,0,0,24,24,142,1,,,,,,,,
,,,,,,,,,,,,,FF,,,,,,,,0.866,,,,,,,,,,,,,,,,,,,,,,60fc7e0e424b1ce5aa8dd706,610377e4181346162b9b49b9,2021-07-29_23h03.30.623,Simcolourproject_2stim_asymm_v5,2020.2.10,MacIntel,60,61025ae37ef11b136ea224fe,,,,,,,,,842,-34,-103,1,0,0,response5disk,,3,8,6,1,0,0,rectangle,8,6,1,0,0,8,6,1,0,0,0,25,25,80,1,,,,,,,,
,,,,,,,,,,,,,FF,,,,,,,,0.933,,,,,,,,,,,,,,,,,,,,,,60fc7e0e424b1ce5aa8dd706,610377e4181346162b9b49b9,2021-07-29_23h03.30.623,Simcolourproject_2stim_asymm_v5,2020.2.10,MacIntel,60,61025ae37ef11b136ea224fe,,,,,,,,,2314,53,-81,1,0,0,response3disk,,4,9,-5,1,0,0,rectangle,9,-5,1,0,0,9,-5,1,0,0,0,26,26,13,1,,,,,,,,
,,,,,,,,,,,,,FF,,,,,,,,1.333,,,,,,,,,,,,,,,,,,,,,,60fc7e0e424b1ce5aa8dd706,610377e4181346162b9b49b9,2021-07-29_23h03.30.623,Simcolourproject_2stim_asymm_v5,2020.2.10,MacIntel,60,61025ae37ef11b136ea224fe,,,,,,,,,4084,-47,-110,1,0,0,response5disk,,3,0,-6,1,0,0,rectangle,0,-6,1,0,0,0,-6,1,0,0,0,27,27,16,1,,,,,,,,
,,,,,,,,,,,,,FF,,,,,,,,1.016,,,,,,,,,,,,,,,,,,,,,,60fc7e0e424b1ce5aa8dd706,610377e4181346162b9b49b9,2021-07-29_23h03.30.623,Simcolourproject_2stim_asymm_v5,2020.2.10,MacIntel,60,61025ae37ef11b136ea224fe,,,,,,,,,2763,101,-42,1,0,0,response3disk,,5,-4,-4,1,0,0,rectangle,-4,-4,1,0,0,-4,-4,1,0,0,0,28,28,8,1,,,,,,,,
,,,,,,,,,,,,,FF,,,,,,,,0.818,,,,,,,,,,,,,,,,,,,,,,60fc7e0e424b1ce5aa8dd706,610377e4181346162b9b49b9,2021-07-29_23h03.30.623,Simcolourproject_2stim_asymm_v5,2020.2.10,MacIntel,60,61025ae37ef11b136ea224fe,,,,,,,,,3875,-56,93,1,0,0,response7disk,,0,-2,2,1,0,0,rectangle,-2,2,1,0,0,-2,2,1,0,0,0,29,29,73,1,,,,,,,,
,,,,,,,,,,,,,FF,,,,,,,,1.366,,,,,,,,,,,,,,,,,,,,,,60fc7e0e424b1ce5aa8dd706,610377e4181346162b9b49b9,2021-07-29_23h03.30.623,Simcolourproject_2stim_asymm_v5,2020.2.10,MacIntel,60,61025ae37ef11b136ea224fe,,,,,,,,,1235,-96,-41,1,0,0,response5disk,,2,-17,-13,1,0,0,rectangle,-17,-13,1,0,0,-17,-13,1,0,0,0,30,30,109,1,,,,,,,,
,,,,,,,,,,,,,FF,,,,,,,,0.9,,,,,,,,,,,,,,,,,,,,,,60fc7e0e424b1ce5aa8dd706,610377e4181346162b9b49b9,2021-07-29_23h03.30.623,Simcolourproject_2stim_asymm_v5,2020.2.10,MacIntel,60,61025ae37ef11b136ea224fe,,,,,,,,,2080,79,46,1,0,0,response1disk,,6,4,1,1,0,0,rectangle,4,1,1,0,0,4,1,1,0,0,0,31,31,58,1,,,,,,,,
,,,,,,,,,,,,,FF,,,,,,,,0.766,,,,,,,,,,,,,,,,,,,,,,60fc7e0e424b1ce5aa8dd706,610377e4181346162b9b49b9,2021-07-29_23h03.30.623,Simcolourproject_2stim_asymm_v5,2020.2.10,MacIntel,60,61025ae37ef11b136ea224fe,,,,,,,,,2054,43,-71,1,0,0,response3disk,,4,-2,1,1,0,0,rectangle,-2,1,1,0,0,-2,1,1,0,0,0,32,32,118,1,,,,,,,,
,,,,,,,,,,,,,FF,,,,,,,,1.133,,,,,,,,,,,,,,,,,,,,,,60fc7e0e424b1ce5aa8dd706,610377e4181346162b9b49b9,2021-07-29_23h03.30.623,Simcolourproject_2stim_asymm_v5,2020.2.10,MacIntel,60,61025ae37ef11b136ea224fe,,,,,,,,,4163,-93,29,1,0,0,response7disk,,1,-17,5,1,0,0,rectangle,-17,5,1,0,0,-17,5,1,0,0,0,33,33,149,1,,,,,,,,
,,,,,,,,,,,,,FF,,,,,,,,0.883,,,,,,,,,,,,,,,,,,,,,,60fc7e0e424b1ce5aa8dd706,610377e4181346162b9b49b9,2021-07-29_23h03.30.623,Simcolourproject_2stim_asymm_v5,2020.2.10,MacIntel,60,61025ae37ef11b136ea224fe,,,,,,,,,2293,-75,33,1,0,0,response7disk,,1,-5,8,1,0,0,rectangle,-5,8,1,0,0,-5,8,1,0,0,0,34,34,41,1,,,,,,,,
,,,,,,,,,,,,,FF,,,,,,,,0.999,,,,,,,,,,,,,,,,,,,,,,60fc7e0e424b1ce5aa8dd706,610377e4181346162b9b49b9,2021-07-29_23h03.30.623,Simcolourproject_2stim_asymm_v5,2020.2.10,MacIntel,60,61025ae37ef11b136ea224fe,,,,,,,,,1011,84,27,1,0,0,response1disk,,6,-6,5,1,0,0,rectangle,-6,5,1,0,0,-6,5,1,0,0,0,35,35,12,1,,,,,,,,
,,,,,,,,,,,,,FF,,,,,,,,1,,,,,,,,,,,,,,,,,,,,,,60fc7e0e424b1ce5aa8dd706,610377e4181346162b9b49b9,2021-07-29_23h03.30.623,Simcolourproject_2stim_asymm_v5,2020.2.10,MacIntel,60,61025ae37ef11b136ea224fe,,,,,,,,,1447,-90,39,1,0,0,response7disk,,1,5,-7,1,0,0,rectangle,5,-7,1,0,0,5,-7,1,0,0,0,36,36,151,1,,,,,,,,
,,,,,,,,,,,,,FF,,,,,,,,0.766,,,,,,,,,,,,,,,,,,,,,,60fc7e0e424b1ce5aa8dd706,610377e4181346162b9b49b9,2021-07-29_23h03.30.623,Simcolourproject_2stim_asymm_v5,2020.2.10,MacIntel,60,61025ae37ef11b136ea224fe,,,,,,,,,3308,76,44,1,0,0,response1disk,,6,-18,4,1,0,0,rectangle,-18,4,1,0,0,-18,4,1,0,0,0,37,37,9,1,,,,,,,,
,,,,,,,,,,,,,FF,,,,,,,,0.984,,,,,,,,,,,,,,,,,,,,,,60fc7e0e424b1ce5aa8dd706,610377e4181346162b9b49b9,2021-07-29_23h03.30.623,Simcolourproject_2stim_asymm_v5,2020.2.10,MacIntel,60,61025ae37ef11b136ea224fe,,,,,,,,,3922,-53,-59,1,0,0,response5disk,,3,-16,-6,1,0,0,rectangle,-16,-6,1,0,0,-16,-6,1,0,0,0,38,38,34,1,,,,,,,,
,,,,,,,,,,,,,FF,,,,,,,,0.866,,,,,,,,,,,,,,,,,,,,,,60fc7e0e424b1ce5aa8dd706,610377e4181346162b9b49b9,2021-07-29_23h03.30.623,Simcolourproject_2stim_asymm_v5,2020.2.10,MacIntel,60,61025ae37ef11b136ea224fe,,,,,,,,,682,96,-52,1,0,0,response3disk,,5,-7,-7,1,0,0,rectangle,-7,-7,1,0,0,-7,-7,1,0,0,0,39,39,110,1,,,,,,,,
,,,,,,,,,,,,,FF,,,,,,,,0.75,,,,,,,,,,,,,,,,,,,,,,60fc7e0e424b1ce5aa8dd706,610377e4181346162b9b49b9,2021-07-29_23h03.30.623,Simcolourproject_2stim_asymm_v5,2020.2.10,MacIntel,60,61025ae37ef11b136ea224fe,,,,,,,,,2394,40,83,1,0,0,response1disk,,7,26,1,1,0,0,rectangle,26,1,1,0,0,26,1,1,0,0,0,40,40,132,1,,,,,,,,
,,,,,,,,,,,,,FF,,,,,,,,0.6,,,,,,,,,,,,,,,,,,,,,,60fc7e0e424b1ce5aa8dd706,610377e4181346162b9b49b9,2021-07-29_23h03.30.623,Simcolourproject_2stim_asymm_v5,2020.2.10,MacIntel,60,61025ae37ef11b136ea224fe,,,,,,,,,3705,-55,95,1,0,0,response7disk,,0,2,9,1,0,0,rectangle,2,9,1,0,0,2,9,1,0,0,0,41,41,26,1,,,,,,,,
,,,,,,,,,,,,,FF,,,,,,,,1.234,,,,,,,,,,,,,,,,,,,,,,60fc7e0e424b1ce5aa8dd706,610377e4181346162b9b49b9,2021-07-29_23h03.30.623,Simcolourproject_2stim_asymm_v5,2020.2.10,MacIntel,60,61025ae37ef11b136ea224fe,,,,,,,,,2578,-44,-86,1,0,0,response5disk,,3,0,-9,1,0,0,rectangle,0,-9,1,0,0,0,-9,1,0,0,0,42,42,6,1,,,,,,,,
,,,,,,,,,,,,,FF,,,,,,,,2.017,,,,,,,,,,,,,,,,,,,,,,60fc7e0e424b1ce5aa8dd706,610377e4181346162b9b49b9,2021-07-29_23h03.30.623,Simcolourproject_2stim_asymm_v5,2020.2.10,MacIntel,60,61025ae37ef11b136ea224fe,,,,,,,,,1321,62,-83,1,0,0,response3disk,,4,13,-2,1,0,0,rectangle,13,-2,1,0,0,13,-2,1,0,0,0,43,43,25,1,,,,,,,,
,,,,,,,,,,,,,FF,,,,,,,,1.616,,,,,,,,,,,,,,,,,,,,,,60fc7e0e424b1ce5aa8dd706,610377e4181346162b9b49b9,2021-07-29_23h03.30.623,Simcolourproject_2stim_asymm_v5,2020.2.10,MacIntel,60,61025ae37ef11b136ea224fe,,,,,,,,,3716,-55,-84,1,0,0,response5disk,,3,9,1,1,0,0,rectangle,9,1,1,0,0,9,1,1,0,0,0,44,44,4,1,,,,,,,,
,,,,,,,,,,,,,FF,,,,,,,,2.1,,,,,,,,,,,,,,,,,,,,,,60fc7e0e424b1ce5aa8dd706,610377e4181346162b9b49b9,2021-07-29_23h03.30.623,Simcolourproject_2stim_asymm_v5,2020.2.10,MacIntel,60,61025ae37ef11b136ea224fe,,,,,,,,,1572,37,-92,1,0,0,response3disk,,4,-13,4,1,0,0,rectangle,-13,4,1,0,0,-13,4,1,0,0,0,45,45,3,1,,,,,,,,
,,,,,,,,,,,,,FF,,,,,,,,1.084,,,,,,,,,,,,,,,,,,,,,,60fc7e0e424b1ce5aa8dd706,610377e4181346162b9b49b9,2021-07-29_23h03.30.623,Simcolourproject_2stim_asymm_v5,2020.2.10,MacIntel,60,61025ae37ef11b136ea224fe,,,,,,,,,2149,49,84,1,0,0,response1disk,,7,-2,-10,1,0,0,rectangle,-2,-10,1,0,0,-2,-10,1,0,0,0,46,46,43,1,,,,,,,,
,,,,,,,,,,,,,FF,,,,,,,,1.201,,,,,,,,,,,,,,,,,,,,,,60fc7e0e424b1ce5aa8dd706,610377e4181346162b9b49b9,2021-07-29_23h03.30.623,Simcolourproject_2stim_asymm_v5,2020.2.10,MacIntel,60,61025ae37ef11b136ea224fe,,,,,,,,,3868,42,-108,1,0,0,response3disk,,4,-3,5,1,0,0,rectangle,-3,5,1,0,0,-3,5,1,0,0,0,47,47,125,1,,,,,,,,
,,,,,,,,,,,,,FF,,,,,,,,1.45,,,,,,,,,,,,,,,,,,,,,,60fc7e0e424b1ce5aa8dd706,610377e4181346162b9b49b9,2021-07-29_23h03.30.623,Simcolourproject_2stim_asymm_v5,2020.2.10,MacIntel,60,61025ae37ef11b136ea224fe,,,,,,,,,2675,-64,-88,1,0,0,response5disk,,3,-3,3,1,0,0,rectangle,-3,3,1,0,0,-3,3,1,0,0,0,48,48,103,1,,,,,,,,
,,,,,,,,,,,,,FF,,,,,,,,0.749,,,,,,,,,,,,,,,,,,,,,,60fc7e0e424b1ce5aa8dd706,610377e4181346162b9b49b9,2021-07-29_23h03.30.623,Simcolourproject_2stim_asymm_v5,2020.2.10,MacIntel,60,61025ae37ef11b136ea224fe,,,,,,,,,2301,-93,-41,1,0,0,response5disk,,2,-17,-9,1,0,0,rectangle,-17,-9,1,0,0,-17,-9,1,0,0,0,49,49,112,1,,,,,,,,
,,,,,,,,,,,,,FF,,,,,,,,1.083,,,,,,,,,,,,,,,,,,,,,,60fc7e0e424b1ce5aa8dd706,610377e4181346162b9b49b9,2021-07-29_23h03.30.623,Simcolourproject_2stim_asymm_v5,2020.2.10,MacIntel,60,61025ae37ef11b136ea224fe,,,,,,,,,2253,78,-48,1,0,0,response3disk,,5,16,1,1,0,0,rectangle,16,1,1,0,0,16,1,1,0,0,0,50,50,24,1,,,,,,,,
,,,,,,,,,,,,,FF,,,,,,,,1.467,,,,,,,,,,,,,,,,,,,,,,60fc7e0e424b1ce5aa8dd706,610377e4181346162b9b49b9,2021-07-29_23h03.30.623,Simcolourproject_2stim_asymm_v5,2020.2.10,MacIntel,60,61025ae37ef11b136ea224fe,,,,,,,,,3342,-81,-46,1,0,0,response5disk,,2,-9,-5,1,0,0,rectangle,-9,-5,1,0,0,-9,-5,1,0,0,0,51,51,130,1,,,,,,,,
,,,,,,,,,,,,,FF,,,,,,,,1.618,,,,,,,,,,,,,,,,,,,,,,60fc7e0e424b1ce5aa8dd706,610377e4181346162b9b49b9,2021-07-29_23h03.30.623,Simcolourproject_2stim_asymm_v5,2020.2.10,MacIntel,60,61025ae37ef11b136ea224fe,,,,,,,,,516,45,85,1,0,0,response1disk,,7,10,2,1,0,0,rectangle,10,2,1,0,0,10,2,1,0,0,0,52,52,97,1,,,,,,,,
,,,,,,,,,,,,,FF,,,,,,,,1,,,,,,,,,,,,,,,,,,,,,,60fc7e0e424b1ce5aa8dd706,610377e4181346162b9b49b9,2021-07-29_23h03.30.623,Simcolourproject_2stim_asymm_v5,2020.2.10,MacIntel,60,61025ae37ef11b136ea224fe,,,,,,,,,2240,-46,-83,1,0,0,response5disk,,3,12,9,1,0,0,rectangle,12,9,1,0,0,12,9,1,0,0,0,53,53,99,1,,,,,,,,
,,,,,,,,,,,,,FF,,,,,,,,2.049,,,,,,,,,,,,,,,,,,,,,,60fc7e0e424b1ce5aa8dd706,610377e4181346162b9b49b9,2021-07-29_23h03.30.623,Simcolourproject_2stim_asymm_v5,2020.2.10,MacIntel,60,61025ae37ef11b136ea224fe,,,,,,,,,2626,90,38,1,0,0,response1disk,,6,12,6,1,0,0,rectangle,12,6,1,0,0,12,6,1,0,0,0,54,54,124,1,,,,,,,,
,,,,,,,,,,,,,FF,,,,,,,,0.801,,,,,,,,,,,,,,,,,,,,,,60fc7e0e424b1ce5aa8dd706,610377e4181346162b9b49b9,2021-07-29_23h03.30.623,Simcolourproject_2stim_asymm_v5,2020.2.10,MacIntel,60,61025ae37ef11b136ea224fe,,,,,,,,,1002,78,49,1,0,0,response1disk,,6,12,-7,1,0,0,rectangle,12,-7,1,0,0,12,-7,1,0,0,0,55,55,45,1,,,,,,,,
,,,,,,,,,,,,,FF,,,,,,,,0.834,,,,,,,,,,,,,,,,,,,,,,60fc7e0e424b1ce5aa8dd706,610377e4181346162b9b49b9,2021-07-29_23h03.30.623,Simcolourproject_2stim_asymm_v5,2020.2.10,MacIntel,60,61025ae37ef11b136ea224fe,,,,,,,,,825,37,-96,1,0,0,response3disk,,4,3,3,1,0,0,rectangle,3,3,1,0,0,3,3,1,0,0,0,56,56,116,1,,,,,,,,
,,,,,,,,,,,,,FF,,,,,,,,1.1,,,,,,,,,,,,,,,,,,,,,,60fc7e0e424b1ce5aa8dd706,610377e4181346162b9b49b9,2021-07-29_23h03.30.623,Simcolourproject_2stim_asymm_v5,2020.2.10,MacIntel,60,61025ae37ef11b136ea224fe,,,,,,,,,2752,96,50,1,0,0,response1disk,,6,10,3,1,0,0,rectangle,10,3,1,0,0,10,3,1,0,0,0,57,57,154,1,,,,,,,,
,,,,,,,,,,,,,FF,,,,,,,,1.016,,,,,,,,,,,,,,,,,,,,,,60fc7e0e424b1ce5aa8dd706,610377e4181346162b9b49b9,2021-07-29_23h03.30.623,Simcolourproject_2stim_asymm_v5,2020.2.10,MacIntel,60,61025ae37ef11b136ea224fe,,,,,,,,,2607,-85,49,1,0,0,response7disk,,1,-14,9,1,0,0,rectangle,-14,9,1,0,0,-14,9,1,0,0,0,58,58,51,1,,,,,,,,
,,,,,,,,,,,,,FF,,,,,,,,0.966,,,,,,,,,,,,,,,,,,,,,,60fc7e0e424b1ce5aa8dd706,610377e4181346162b9b49b9,2021-07-29_23h03.30.623,Simcolourproject_2stim_asymm_v5,2020.2.10,MacIntel,60,61025ae37ef11b136ea224fe,,,,,,,,,2423,-91,-52,1,0,0,response5disk,,2,6,-3,1,0,0,rectangle,6,-3,1,0,0,6,-3,1,0,0,0,59,59,40,1,,,,,,,,
,,,,,,,,,,,,,FF,,,,,,,,0.7,,,,,,,,,,,,,,,,,,,,,,60fc7e0e424b1ce5aa8dd706,610377e4181346162b9b49b9,2021-07-29_23h03.30.623,Simcolourproject_2stim_asymm_v5,2020.2.10,MacIntel,60,61025ae37ef11b136ea224fe,,,,,,,,,1973,-94,-47,1,0,0,response5disk,,2,3,-8,1,0,0,rectangle,3,-8,1,0,0,3,-8,1,0,0,0,60,60,157,1,,,,,,,,
,,,,,,,,,,,,,FF,,,,,,,,0.933,,,,,,,,,,,,,,,,,,,,,,60fc7e0e424b1ce5aa8dd706,610377e4181346162b9b49b9,2021-07-29_23h03.30.623,Simcolourproject_2stim_asymm_v5,2020.2.10,MacIntel,60,61025ae37ef11b136ea224fe,,,,,,,,,2005,58,-64,1,0,0,response3disk,,4,5,17,1,0,0,rectangle,5,17,1,0,0,5,17,1,0,0,0,61,61,30,1,,,,,,,,
,,,,,,,,,,,,,FF,,,,,,,,1.082,,,,,,,,,,,,,,,,,,,,,,60fc7e0e424b1ce5aa8dd706,610377e4181346162b9b49b9,2021-07-29_23h03.30.623,Simcolourproject_2stim_asymm_v5,2020.2.10,MacIntel,60,61025ae37ef11b136ea224fe,,,,,,,,,1210,65,96,1,0,0,response1disk,,7,-3,8,1,0,0,rectangle,-41,111,1,0,0,-8,-14,1,0,0,0,62,62,7,1,,response7disk_3,TRUE,0,0,"[69,115,0,283,242,10,148,105,247,144,63,117,76,85,171,105,153,231,91,23]",2.018,rectangle
,,,,,,,,,,,,,FF,,,,,,,,2.033,,,,,,,,,,,,,,,,,,,,,,60fc7e0e424b1ce5aa8dd706,610377e4181346162b9b49b9,2021-07-29_23h03.30.623,Simcolourproject_2stim_asymm_v5,2020.2.10,MacIntel,60,61025ae37ef11b136ea224fe,,,,,,,,,2931,73,-55,1,0,0,response3disk,,5,7,-9,1,0,0,rectangle,7,-9,1,0,0,7,-9,1,0,0,0,63,63,82,1,,,,,,,,
,,,,,,,,,,,,,FF,,,,,,,,1.117,,,,,,,,,,,,,,,,,,,,,,60fc7e0e424b1ce5aa8dd706,610377e4181346162b9b49b9,2021-07-29_23h03.30.623,Simcolourproject_2stim_asymm_v5,2020.2.10,MacIntel,60,61025ae37ef11b136ea224fe,,,,,,,,,3644,-36,-97,1,0,0,response5disk,,3,-4,5,1,0,0,rectangle,-4,5,1,0,0,-4,5,1,0,0,0,64,64,129,1,,,,,,,,
,,,,,,,,,,,,,FF,,,,,,,,0.817,,,,,,,,,,,,,,,,,,,,,,60fc7e0e424b1ce5aa8dd706,610377e4181346162b9b49b9,2021-07-29_23h03.30.623,Simcolourproject_2stim_asymm_v5,2020.2.10,MacIntel,60,61025ae37ef11b136ea224fe,,,,,,,,,1481,47,-65,1,0,0,response3disk,,4,20,-11,1,0,0,rectangle,20,-11,1,0,0,20,-11,1,0,0,0,65,65,127,1,,,,,,,,
,,,,,,,,,,,,,FF,,,,,,,,0.816,,,,,,,,,,,,,,,,,,,,,,60fc7e0e424b1ce5aa8dd706,610377e4181346162b9b49b9,2021-07-29_23h03.30.623,Simcolourproject_2stim_asymm_v5,2020.2.10,MacIntel,60,61025ae37ef11b136ea224fe,,,,,,,,,1937,-92,-62,1,0,0,response5disk,,2,-19,-4,1,0,0,rectangle,-19,-4,1,0,0,-19,-4,1,0,0,0,66,66,19,1,,,,,,,,
,,,,,,,,,,,,,FF,,,,,,,,0.683,,,,,,,,,,,,,,,,,,,,,,60fc7e0e424b1ce5aa8dd706,610377e4181346162b9b49b9,2021-07-29_23h03.30.623,Simcolourproject_2stim_asymm_v5,2020.2.10,MacIntel,60,61025ae37ef11b136ea224fe,,,,,,,,,1716,82,-49,1,0,0,response3disk,,5,9,-7,1,0,0,rectangle,9,-7,1,0,0,9,-7,1,0,0,0,67,67,135,1,,,,,,,,
,,,,,,,,,,,,,FF,,,,,,,,0.915,,,,,,,,,,,,,,,,,,,,,,60fc7e0e424b1ce5aa8dd706,610377e4181346162b9b49b9,2021-07-29_23h03.30.623,Simcolourproject_2stim_asymm_v5,2020.2.10,MacIntel,60,61025ae37ef11b136ea224fe,,,,,,,,,3801,73,33,1,0,0,response1disk,,6,-3,3,1,0,0,rectangle,36,119,1,0,0,1,-6,1,0,0,0,68,68,61,1,,response1disk_3,TRUE,7,7,"[69,115,0,283,242,10,148,105,247,144,63,117,76,85,171,105,153,231,91,23]",1.283,rectangle
,,,,,,,,,,,,,FF,,,,,,,,0.933,,,,,,,,,,,,,,,,,,,,,,60fc7e0e424b1ce5aa8dd706,610377e4181346162b9b49b9,2021-07-29_23h03.30.623,Simcolourproject_2stim_asymm_v5,2020.2.10,MacIntel,60,61025ae37ef11b136ea224fe,,,,,,,,,3380,62,84,1,0,0,response1disk,,7,2,-3,1,0,0,rectangle,2,-3,1,0,0,2,-3,1,0,0,0,69,69,79,1,,,,,,,,
,,,,,,,,,,,,,FF,,,,,,,,1.916,,,,,,,,,,,,,,,,,,,,,,60fc7e0e424b1ce5aa8dd706,610377e4181346162b9b49b9,2021-07-29_23h03.30.623,Simcolourproject_2stim_asymm_v5,2020.2.10,MacIntel,60,61025ae37ef11b136ea224fe,,,,,,,,,3136,57,104,1,0,0,response1disk,,7,23,3,1,0,0,rectangle,23,3,1,0,0,23,3,1,0,0,0,70,70,63,1,,,,,,,,
,,,,,,,,,,,,,FF,,,,,,,,0.851,,,,,,,,,,,,,,,,,,,,,,60fc7e0e424b1ce5aa8dd706,610377e4181346162b9b49b9,2021-07-29_23h03.30.623,Simcolourproject_2stim_asymm_v5,2020.2.10,MacIntel,60,61025ae37ef11b136ea224fe,,,,,,,,,3720,-38,-76,1,0,0,response5disk,,3,-5,2,1,0,0,rectangle,-5,2,1,0,0,-5,2,1,0,0,0,71,71,31,1,,,,,,,,
,,,,,,,,,,,,,FF,,,,,,,,0.8,,,,,,,,,,,,,,,,,,,,,,60fc7e0e424b1ce5aa8dd706,610377e4181346162b9b49b9,2021-07-29_23h03.30.623,Simcolourproject_2stim_asymm_v5,2020.2.10,MacIntel,60,61025ae37ef11b136ea224fe,,,,,,,,,1378,51,-80,1,0,0,response3disk,,4,8,-1,1,0,0,rectangle,8,-1,1,0,0,8,-1,1,0,0,0,72,72,83,1,,,,,,,,
,,,,,,,,,,,,,FF,,,,,,,,0.883,,,,,,,,,,,,,,,,,,,,,,60fc7e0e424b1ce5aa8dd706,610377e4181346162b9b49b9,2021-07-29_23h03.30.623,Simcolourproject_2stim_asymm_v5,2020.2.10,MacIntel,60,61025ae37ef11b136ea224fe,,,,,,,,,1257,89,-53,1,0,0,response3disk,,5,8,1,1,0,0,rectangle,8,1,1,0,0,8,1,1,0,0,0,73,73,138,1,,,,,,,,
,,,,,,,,,,,,,FF,,,,,,,,1.15,,,,,,,,,,,,,,,,,,,,,,60fc7e0e424b1ce5aa8dd706,610377e4181346162b9b49b9,2021-07-29_23h03.30.623,Simcolourproject_2stim_asymm_v5,2020.2.10,MacIntel,60,61025ae37ef11b136ea224fe,,,,,,,,,1373,-53,-94,1,0,0,response5disk,,3,-17,16,1,0,0,rectangle,-17,16,1,0,0,-17,16,1,0,0,0,74,74,147,1,,,,,,,,
,,,,,,,,,,,,,FF,,,,,,,,0.885,,,,,,,,,,,,,,,,,,,,,,60fc7e0e424b1ce5aa8dd706,610377e4181346162b9b49b9,2021-07-29_23h03.30.623,Simcolourproject_2stim_asymm_v5,2020.2.10,MacIntel,60,61025ae37ef11b136ea224fe,,,,,,,,,3770,89,-49,1,0,0,response3disk,,5,-13,1,1,0,0,rectangle,-96,-49,1,0,0,7,9,1,0,0,0,75,75,52,1,,response5disk_3,TRUE,2,2,"[69,115,0,283,242,10,148,105,247,144,63,117,76,85,171,105,153,231,91,23]",1.349,rectangle
,,,,,,,,,,,,,FF,,,,,,,,0.933,,,,,,,,,,,,,,,,,,,,,,60fc7e0e424b1ce5aa8dd706,610377e4181346162b9b49b9,2021-07-29_23h03.30.623,Simcolourproject_2stim_asymm_v5,2020.2.10,MacIntel,60,61025ae37ef11b136ea224fe,,,,,,,,,1051,-108,27,1,0,0,response7disk,,1,-8,2,1,0,0,rectangle,-8,2,1,0,0,-8,2,1,0,0,0,76,76,131,1,,,,,,,,
,,,,,,,,,,,,,FF,,,,,,,,0.884,,,,,,,,,,,,,,,,,,,,,,60fc7e0e424b1ce5aa8dd706,610377e4181346162b9b49b9,2021-07-29_23h03.30.623,Simcolourproject_2stim_asymm_v5,2020.2.10,MacIntel,60,61025ae37ef11b136ea224fe,,,,,,,,,621,-82,-39,1,0,0,response5disk,,2,-13,0,1,0,0,rectangle,-13,0,1,0,0,-13,0,1,0,0,0,77,77,47,1,,,,,,,,
,,,,,,,,,,,,,FF,,,,,,,,0.833,,,,,,,,,,,,,,,,,,,,,,60fc7e0e424b1ce5aa8dd706,610377e4181346162b9b49b9,2021-07-29_23h03.30.623,Simcolourproject_2stim_asymm_v5,2020.2.10,MacIntel,60,61025ae37ef11b136ea224fe,,,,,,,,,3293,-95,-49,1,0,0,response5disk,,2,-2,-13,1,0,0,rectangle,-2,-13,1,0,0,-2,-13,1,0,0,0,78,78,104,1,,,,,,,,
,,,,,,,,,,,,,FF,,,,,,,,1.236,,,,,,,,,,,,,,,,,,,,,,60fc7e0e424b1ce5aa8dd706,610377e4181346162b9b49b9,2021-07-29_23h03.30.623,Simcolourproject_2stim_asymm_v5,2020.2.10,MacIntel,60,61025ae37ef11b136ea224fe,,,,,,,,,954,39,-92,1,0,0,response3disk,,4,20,-9,1,0,0,rectangle,20,-9,1,0,0,20,-9,1,0,0,0,79,79,67,1,,,,,,,,
,,,,,,,,,,,,,FF,,,,,,,,0.735,,,,,,,,,,,,,,,,,,,,,,60fc7e0e424b1ce5aa8dd706,610377e4181346162b9b49b9,2021-07-29_23h03.30.623,Simcolourproject_2stim_asymm_v5,2020.2.10,MacIntel,60,61025ae37ef11b136ea224fe,,,,,,,,,2601,-58,99,1,0,0,response7disk,,0,26,-5,1,0,0,rectangle,26,-5,1,0,0,26,-5,1,0,0,0,80,80,91,1,,,,,,,,
,,,,,,,,,,,,,FF,,,,,,,,0.716,,,,,,,,,,,,,,,,,,,,,,60fc7e0e424b1ce5aa8dd706,610377e4181346162b9b49b9,2021-07-29_23h03.30.623,Simcolourproject_2stim_asymm_v5,2020.2.10,MacIntel,60,61025ae37ef11b136ea224fe,,,,,,,,,1271,37,-81,1,0,0,response3disk,,4,3,-7,1,0,0,rectangle,3,-7,1,0,0,3,-7,1,0,0,0,81,81,64,1,,,,,,,,
,,,,,,,,,,,,,FF,,,,,,,,1.033,,,,,,,,,,,,,,,,,,,,,,60fc7e0e424b1ce5aa8dd706,610377e4181346162b9b49b9,2021-07-29_23h03.30.623,Simcolourproject_2stim_asymm_v5,2020.2.10,MacIntel,60,61025ae37ef11b136ea224fe,,,,,,,,,4135,48,80,1,0,0,response1disk,,7,0,-1,1,0,0,rectangle,0,-1,1,0,0,0,-1,1,0,0,0,82,82,15,1,,,,,,,,
,,,,,,,,,,,,,FF,,,,,,,,2,,,,,,,,,,,,,,,,,,,,,,60fc7e0e424b1ce5aa8dd706,610377e4181346162b9b49b9,2021-07-29_23h03.30.623,Simcolourproject_2stim_asymm_v5,2020.2.10,MacIntel,60,61025ae37ef11b136ea224fe,,,,,,,,,2252,92,43,1,0,0,response1disk,,6,2,1,1,0,0,rectangle,2,1,1,0,0,2,1,1,0,0,0,83,83,100,1,,,,,,,,
,,,,,,,,,,,,,FF,,,,,,,,1.033,,,,,,,,,,,,,,,,,,,,,,60fc7e0e424b1ce5aa8dd706,610377e4181346162b9b49b9,2021-07-29_23h03.30.623,Simcolourproject_2stim_asymm_v5,2020.2.10,MacIntel,60,61025ae37ef11b136ea224fe,,,,,,,,,2655,80,41,1,0,0,response1disk,,6,14,4,1,0,0,rectangle,32,99,1,0,0,19,14,1,0,0,0,84,84,0,1,,response1disk_3,TRUE,7,7,"[69,115,0,283,242,10,148,105,247,144,63,117,76,85,171,105,153,231,91,23]",1.017,rectangle
,,,,,,,,,,,,,FF,,,,,,,,1.151,,,,,,,,,,,,,,,,,,,,,,60fc7e0e424b1ce5aa8dd706,610377e4181346162b9b49b9,2021-07-29_23h03.30.623,Simcolourproject_2stim_asymm_v5,2020.2.10,MacIntel,60,61025ae37ef11b136ea224fe,,,,,,,,,2724,65,-39,1,0,0,response3disk,,5,-3,6,1,0,0,rectangle,-3,6,1,0,0,-3,6,1,0,0,0,85,85,23,1,,,,,,,,
,,,,,,,,,,,,,FF,,,,,,,,1.701,,,,,,,,,,,,,,,,,,,,,,60fc7e0e424b1ce5aa8dd706,610377e4181346162b9b49b9,2021-07-29_23h03.30.623,Simcolourproject_2stim_asymm_v5,2020.2.10,MacIntel,60,61025ae37ef11b136ea224fe,,,,,,,,,2502,86,-46,1,0,0,response3disk,,5,-2,0,1,0,0,rectangle,-2,0,1,0,0,-2,0,1,0,0,0,86,86,33,1,,,,,,,,
,,,,,,,,,,,,,FF,,,,,,,,1.167,,,,,,,,,,,,,,,,,,,,,,60fc7e0e424b1ce5aa8dd706,610377e4181346162b9b49b9,2021-07-29_23h03.30.623,Simcolourproject_2stim_asymm_v5,2020.2.10,MacIntel,60,61025ae37ef11b136ea224fe,,,,,,,,,4354,-80,-28,1,0,0,response5disk,,2,-8,0,1,0,0,rectangle,-8,0,1,0,0,-8,0,1,0,0,0,87,87,137,1,,,,,,,,
,,,,,,,,,,,,,FF,,,,,,,,1.015,,,,,,,,,,,,,,,,,,,,,,60fc7e0e424b1ce5aa8dd706,610377e4181346162b9b49b9,2021-07-29_23h03.30.623,Simcolourproject_2stim_asymm_v5,2020.2.10,MacIntel,60,61025ae37ef11b136ea224fe,,,,,,,,,3262,75,-94,1,0,0,response3disk,,4,9,-1,1,0,0,rectangle,9,-1,1,0,0,9,-1,1,0,0,0,88,88,128,1,,,,,,,,
,,,,,,,,,,,,,FF,,,,,,,,0.766,,,,,,,,,,,,,,,,,,,,,,60fc7e0e424b1ce5aa8dd706,610377e4181346162b9b49b9,2021-07-29_23h03.30.623,Simcolourproject_2stim_asymm_v5,2020.2.10,MacIntel,60,61025ae37ef11b136ea224fe,,,,,,,,,3895,78,-50,1,0,0,response3disk,,5,17,1,1,0,0,rectangle,17,1,1,0,0,17,1,1,0,0,0,89,89,102,1,,,,,,,,
,,,,,,,,,,,,,FF,,,,,,,,0.668,,,,,,,,,,,,,,,,,,,,,,60fc7e0e424b1ce5aa8dd706,610377e4181346162b9b49b9,2021-07-29_23h03.30.623,Simcolourproject_2stim_asymm_v5,2020.2.10,MacIntel,60,61025ae37ef11b136ea224fe,,,,,,,,,732,78,-52,1,0,0,response3disk,,5,14,-7,1,0,0,rectangle,76,31,1,0,0,30,7,1,0,0,0,90,90,48,1,,response1disk_3,TRUE,6,6,"[69,115,0,283,242,10,148,105,247,144,63,117,76,85,171,105,153,231,91,23]",1.116,rectangle
,,,,,,,,,,,,,FF,,,,,,,,1.116,,,,,,,,,,,,,,,,,,,,,,60fc7e0e424b1ce5aa8dd706,610377e4181346162b9b49b9,2021-07-29_23h03.30.623,Simcolourproject_2stim_asymm_v5,2020.2.10,MacIntel,60,61025ae37ef11b136ea224fe,,,,,,,,,3876,-40,-93,1,0,0,response5disk,,3,-5,-1,1,0,0,rectangle,-5,-1,1,0,0,-5,-1,1,0,0,0,91,91,44,1,,,,,,,,
,,,,,,,,,,,,,FF,,,,,,,,3.567,,,,,,,,,,,,,,,,,,,,,,60fc7e0e424b1ce5aa8dd706,610377e4181346162b9b49b9,2021-07-29_23h03.30.623,Simcolourproject_2stim_asymm_v5,2020.2.10,MacIntel,60,61025ae37ef11b136ea224fe,,,,,,,,,2405,92,43,1,0,0,response1disk,,6,4,4,1,0,0,rectangle,4,4,1,0,0,4,4,1,0,0,0,92,92,93,1,,,,,,,,
,,,,,,,,,,,,,FF,,,,,,,,0.751,,,,,,,,,,,,,,,,,,,,,,60fc7e0e424b1ce5aa8dd706,610377e4181346162b9b49b9,2021-07-29_23h03.30.623,Simcolourproject_2stim_asymm_v5,2020.2.10,MacIntel,60,61025ae37ef11b136ea224fe,,,,,,,,,32,66,-35,1,0,0,response3disk,,5,10,-9,1,0,0,rectangle,10,-9,1,0,0,10,-9,1,0,0,0,93,93,105,1,,,,,,,,
,,,,,,,,,,,,,FF,,,,,,,,0.7,,,,,,,,,,,,,,,,,,,,,,60fc7e0e424b1ce5aa8dd706,610377e4181346162b9b49b9,2021-07-29_23h03.30.623,Simcolourproject_2stim_asymm_v5,2020.2.10,MacIntel,60,61025ae37ef11b136ea224fe,,,,,,,,,699,86,-49,1,0,0,response3disk,,5,14,-14,1,0,0,rectangle,14,-14,1,0,0,14,-14,1,0,0,0,94,94,49,1,,,,,,,,
,,,,,,,,,,,,,FF,,,,,,,,0.801,,,,,,,,,,,,,,,,,,,,,,60fc7e0e424b1ce5aa8dd706,610377e4181346162b9b49b9,2021-07-29_23h03.30.623,Simcolourproject_2stim_asymm_v5,2020.2.10,MacIntel,60,61025ae37ef11b136ea224fe,,,,,,,,,3900,-102,-78,1,0,0,response5disk,,2,-8,-6,1,0,0,rectangle,-8,-6,1,0,0,-8,-6,1,0,0,0,95,95,111,1,,,,,,,,
,,,,,,,,,,,,,FF,,,,,,,,0.683,,,,,,,,,,,,,,,,,,,,,,60fc7e0e424b1ce5aa8dd706,610377e4181346162b9b49b9,2021-07-29_23h03.30.623,Simcolourproject_2stim_asymm_v5,2020.2.10,MacIntel,60,61025ae37ef11b136ea224fe,,,,,,,,,3574,71,-32,1,0,0,response3disk,,5,-1,-2,1,0,0,rectangle,-1,-2,1,0,0,-1,-2,1,0,0,0,96,96,21,1,,,,,,,,
,,,,,,,,,,,,,FF,,,,,,,,0.733,,,,,,,,,,,,,,,,,,,,,,60fc7e0e424b1ce5aa8dd706,610377e4181346162b9b49b9,2021-07-29_23h03.30.623,Simcolourproject_2stim_asymm_v5,2020.2.10,MacIntel,60,61025ae37ef11b136ea224fe,,,,,,,,,3829,74,48,1,0,0,response1disk,,6,-4,-13,1,0,0,rectangle,-4,-13,1,0,0,-4,-13,1,0,0,0,97,97,59,1,,,,,,,,
,,,,,,,,,,,,,FF,,,,,,,,1.083,,,,,,,,,,,,,,,,,,,,,,60fc7e0e424b1ce5aa8dd706,610377e4181346162b9b49b9,2021-07-29_23h03.30.623,Simcolourproject_2stim_asymm_v5,2020.2.10,MacIntel,60,61025ae37ef11b136ea224fe,,,,,,,,,3383,-81,44,1,0,0,response7disk,,1,-5,4,1,0,0,rectangle,-5,4,1,0,0,-5,4,1,0,0,0,98,98,119,1,,,,,,,,
,,,,,,,,,,,,,FF,,,,,,,,0.833,,,,,,,,,,,,,,,,,,,,,,60fc7e0e424b1ce5aa8dd706,610377e4181346162b9b49b9,2021-07-29_23h03.30.623,Simcolourproject_2stim_asymm_v5,2020.2.10,MacIntel,60,61025ae37ef11b136ea224fe,,,,,,,,,2180,-38,-87,1,0,0,response5disk,,3,-22,1,1,0,0,rectangle,-22,1,1,0,0,-22,1,1,0,0,0,99,99,18,1,,,,,,,,
,,,,,,,,,,,,,FF,,,,,,,,0.966,,,,,,,,,,,,,,,,,,,,,,60fc7e0e424b1ce5aa8dd706,610377e4181346162b9b49b9,2021-07-29_23h03.30.623,Simcolourproject_2stim_asymm_v5,2020.2.10,MacIntel,60,61025ae37ef11b136ea224fe,,,,,,,,,1491,95,-45,1,0,0,response3disk,,5,15,-3,1,0,0,rectangle,15,-3,1,0,0,15,-3,1,0,0,0,100,100,122,1,,,,,,,,
,,,,,,,,,,,,,FF,,,,,,,,0.618,,,,,,,,,,,,,,,,,,,,,,60fc7e0e424b1ce5aa8dd706,610377e4181346162b9b49b9,2021-07-29_23h03.30.623,Simcolourproject_2stim_asymm_v5,2020.2.10,MacIntel,60,61025ae37ef11b136ea224fe,,,,,,,,,4059,49,79,1,0,0,response1disk,,7,22,3,1,0,0,rectangle,22,3,1,0,0,22,3,1,0,0,0,101,101,62,1,,,,,,,,
,,,,,,,,,,,,,FF,,,,,,,,0.55,,,,,,,,,,,,,,,,,,,,,,60fc7e0e424b1ce5aa8dd706,610377e4181346162b9b49b9,2021-07-29_23h03.30.623,Simcolourproject_2stim_asymm_v5,2020.2.10,MacIntel,60,61025ae37ef11b136ea224fe,,,,,,,,,1411,81,46,1,0,0,response1disk,,6,10,16,1,0,0,rectangle,10,16,1,0,0,10,16,1,0,0,0,102,102,56,1,,,,,,,,
,,,,,,,,,,,,,FF,,,,,,,,1.201,,,,,,,,,,,,,,,,,,,,,,60fc7e0e424b1ce5aa8dd706,610377e4181346162b9b49b9,2021-07-29_23h03.30.623,Simcolourproject_2stim_asymm_v5,2020.2.10,MacIntel,60,61025ae37ef11b136ea224fe,,,,,,,,,2864,74,-44,1,0,0,response3disk,,5,-3,-7,1,0,0,rectangle,-3,-7,1,0,0,-3,-7,1,0,0,0,103,103,17,1,,,,,,,,
,,,,,,,,,,,,,FF,,,,,,,,1.568,,,,,,,,,,,,,,,,,,,,,,60fc7e0e424b1ce5aa8dd706,610377e4181346162b9b49b9,2021-07-29_23h03.30.623,Simcolourproject_2stim_asymm_v5,2020.2.10,MacIntel,60,61025ae37ef11b136ea224fe,,,,,,,,,1090,85,108,1,0,0,response1disk,,7,17,0,1,0,0,rectangle,-70,-36,1,0,0,-12,3,1,0,0,0,104,104,20,1,,response5disk_3,TRUE,2,2,"[69,115,0,283,242,10,148,105,247,144,63,117,76,85,171,105,153,231,91,23]",1.75,rectangle
,,,,,,,,,,,,,FF,,,,,,,,4.15,,,,,,,,,,,,,,,,,,,,,,60fc7e0e424b1ce5aa8dd706,610377e4181346162b9b49b9,2021-07-29_23h03.30.623,Simcolourproject_2stim_asymm_v5,2020.2.10,MacIntel,60,61025ae37ef11b136ea224fe,,,,,,,,,1122,-75,-45,1,0,0,response5disk,,2,-18,-2,1,0,0,rectangle,-18,-2,1,0,0,-18,-2,1,0,0,0,105,105,35,1,,,,,,,,
,,,,,,,,,,,,,FF,,,,,,,,0.767,,,,,,,,,,,,,,,,,,,,,,60fc7e0e424b1ce5aa8dd706,610377e4181346162b9b49b9,2021-07-29_23h03.30.623,Simcolourproject_2stim_asymm_v5,2020.2.10,MacIntel,60,61025ae37ef11b136ea224fe,,,,,,,,,275,-92,-57,1,0,0,response5disk,,2,-14,-13,1,0,0,rectangle,-14,-13,1,0,0,-14,-13,1,0,0,0,106,106,89,1,,,,,,,,
,,,,,,,,,,,,,FF,,,,,,,,0.866,,,,,,,,,,,,,,,,,,,,,,60fc7e0e424b1ce5aa8dd706,610377e4181346162b9b49b9,2021-07-29_23h03.30.623,Simcolourproject_2stim_asymm_v5,2020.2.10,MacIntel,60,61025ae37ef11b136ea224fe,,,,,,,,,4288,79,-41,1,0,0,response3disk,,5,20,-1,1,0,0,rectangle,20,-1,1,0,0,20,-1,1,0,0,0,107,107,88,1,,,,,,,,
,,,,,,,,,,,,,FF,,,,,,,,0.783,,,,,,,,,,,,,,,,,,,,,,60fc7e0e424b1ce5aa8dd706,610377e4181346162b9b49b9,2021-07-29_23h03.30.623,Simcolourproject_2stim_asymm_v5,2020.2.10,MacIntel,60,61025ae37ef11b136ea224fe,,,,,,,,,1101,55,100,1,0,0,response1disk,,7,19,6,1,0,0,rectangle,19,6,1,0,0,19,6,1,0,0,0,108,108,146,1,,,,,,,,
,,,,,,,,,,,,,FF,,,,,,,,1.517,,,,,,,,,,,,,,,,,,,,,,60fc7e0e424b1ce5aa8dd706,610377e4181346162b9b49b9,2021-07-29_23h03.30.623,Simcolourproject_2stim_asymm_v5,2020.2.10,MacIntel,60,61025ae37ef11b136ea224fe,,,,,,,,,1317,-49,-92,1,0,0,response5disk,,3,-2,0,1,0,0,rectangle,-2,0,1,0,0,-2,0,1,0,0,0,109,109,71,1,,,,,,,,
,,,,,,,,,,,,,FF,,,,,,,,1.082,,,,,,,,,,,,,,,,,,,,,,60fc7e0e424b1ce5aa8dd706,610377e4181346162b9b49b9,2021-07-29_23h03.30.623,Simcolourproject_2stim_asymm_v5,2020.2.10,MacIntel,60,61025ae37ef11b136ea224fe,,,,,,,,,1628,64,-74,1,0,0,response3disk,,4,19,-1,1,0,0,rectangle,19,-1,1,0,0,19,-1,1,0,0,0,110,110,53,1,,,,,,,,
,,,,,,,,,,,,,FF,,,,,,,,1.283,,,,,,,,,,,,,,,,,,,,,,60fc7e0e424b1ce5aa8dd706,610377e4181346162b9b49b9,2021-07-29_23h03.30.623,Simcolourproject_2stim_asymm_v5,2020.2.10,MacIntel,60,61025ae37ef11b136ea224fe,,,,,,,,,2145,32,-88,1,0,0,response3disk,,4,4,-15,1,0,0,rectangle,4,-15,1,0,0,4,-15,1,0,0,0,111,111,38,1,,,,,,,,
,,,,,,,,,,,,,FF,,,,,,,,1.466,,,,,,,,,,,,,,,,,,,,,,60fc7e0e424b1ce5aa8dd706,610377e4181346162b9b49b9,2021-07-29_23h03.30.623,Simcolourproject_2stim_asymm_v5,2020.2.10,MacIntel,60,61025ae37ef11b136ea224fe,,,,,,,,,449,96,37,1,0,0,response1disk,,6,5,11,1,0,0,rectangle,5,11,1,0,0,5,11,1,0,0,0,112,112,94,1,,,,,,,,
,,,,,,,,,,,,,FF,,,,,,,,1.101,,,,,,,,,,,,,,,,,,,,,,60fc7e0e424b1ce5aa8dd706,610377e4181346162b9b49b9,2021-07-29_23h03.30.623,Simcolourproject_2stim_asymm_v5,2020.2.10,MacIntel,60,61025ae37ef11b136ea224fe,,,,,,,,,810,-72,-45,1,0,0,response5disk,,2,-5,-4,1,0,0,rectangle,-5,-4,1,0,0,-5,-4,1,0,0,0,113,113,76,1,,,,,,,,
,,,,,,,,,,,,,FF,,,,,,,,1.065,,,,,,,,,,,,,,,,,,,,,,60fc7e0e424b1ce5aa8dd706,610377e4181346162b9b49b9,2021-07-29_23h03.30.623,Simcolourproject_2stim_asymm_v5,2020.2.10,MacIntel,60,61025ae37ef11b136ea224fe,,,,,,,,,3643,49,-85,1,0,0,response3disk,,4,24,1,1,0,0,rectangle,-38,-92,1,0,0,-13,6,1,0,0,0,114,114,39,1,,response5disk_3,TRUE,3,3,"[69,115,0,283,242,10,148,105,247,144,63,117,76,85,171,105,153,231,91,23]",1.433,rectangle
,,,,,,,,,,,,,FF,,,,,,,,1.082,,,,,,,,,,,,,,,,,,,,,,60fc7e0e424b1ce5aa8dd706,610377e4181346162b9b49b9,2021-07-29_23h03.30.623,Simcolourproject_2stim_asymm_v5,2020.2.10,MacIntel,60,61025ae37ef11b136ea224fe,,,,,,,,,2872,95,-65,1,0,0,response3disk,,5,-6,1,1,0,0,rectangle,-6,1,1,0,0,-6,1,1,0,0,0,115,115,74,1,,,,,,,,
,,,,,,,,,,,,,FF,,,,,,,,1.267,,,,,,,,,,,,,,,,,,,,,,60fc7e0e424b1ce5aa8dd706,610377e4181346162b9b49b9,2021-07-29_23h03.30.623,Simcolourproject_2stim_asymm_v5,2020.2.10,MacIntel,60,61025ae37ef11b136ea224fe,,,,,,,,,750,83,-17,1,0,0,response3disk,,5,3,-1,1,0,0,rectangle,-87,17,1,0,0,-28,4,1,0,0,0,116,116,156,1,,response7disk_3,TRUE,1,1,"[69,115,0,283,242,10,148,105,247,144,63,117,76,85,171,105,153,231,91,23]",1.233,rectangle
,,,,,,,,,,,,,FF,,,,,,,,0.984,,,,,,,,,,,,,,,,,,,,,,60fc7e0e424b1ce5aa8dd706,610377e4181346162b9b49b9,2021-07-29_23h03.30.623,Simcolourproject_2stim_asymm_v5,2020.2.10,MacIntel,60,61025ae37ef11b136ea224fe,,,,,,,,,423,-39,-70,1,0,0,response5disk,,3,-7,-3,1,0,0,rectangle,-7,-3,1,0,0,-7,-3,1,0,0,0,117,117,148,1,,,,,,,,
,,,,,,,,,,,,,FF,,,,,,,,0.649,,,,,,,,,,,,,,,,,,,,,,60fc7e0e424b1ce5aa8dd706,610377e4181346162b9b49b9,2021-07-29_23h03.30.623,Simcolourproject_2stim_asymm_v5,2020.2.10,MacIntel,60,61025ae37ef11b136ea224fe,,,,,,,,,253,-75,-40,1,0,0,response5disk,,2,-9,-6,1,0,0,rectangle,-9,-6,1,0,0,-9,-6,1,0,0,0,118,118,68,1,,,,,,,,
,,,,,,,,,,,,,FF,,,,,,,,1.417,,,,,,,,,,,,,,,,,,,,,,60fc7e0e424b1ce5aa8dd706,610377e4181346162b9b49b9,2021-07-29_23h03.30.623,Simcolourproject_2stim_asymm_v5,2020.2.10,MacIntel,60,61025ae37ef11b136ea224fe,,,,,,,,,4086,-81,-44,1,0,0,response5disk,,2,-32,2,1,0,0,rectangle,-32,2,1,0,0,-32,2,1,0,0,0,119,119,22,1,,,,,,,,
,,,,,,,,,,,,,FF,,,,,,,,0.749,,,,,,,,,,,,,,,,,,,,,,60fc7e0e424b1ce5aa8dd706,610377e4181346162b9b49b9,2021-07-29_23h03.30.623,Simcolourproject_2stim_asymm_v5,2020.2.10,MacIntel,60,61025ae37ef11b136ea224fe,,,,,,,,,3458,68,30,1,0,0,response1disk,,6,6,-1,1,0,0,rectangle,6,-1,1,0,0,6,-1,1,0,0,0,120,120,36,1,,,,,,,,
,,,,,,,,,,,,,FF,,,,,,,,0.717,,,,,,,,,,,,,,,,,,,,,,60fc7e0e424b1ce5aa8dd706,610377e4181346162b9b49b9,2021-07-29_23h03.30.623,Simcolourproject_2stim_asymm_v5,2020.2.10,MacIntel,60,61025ae37ef11b136ea224fe,,,,,,,,,471,37,109,1,0,0,response1disk,,7,4,4,1,0,0,rectangle,4,4,1,0,0,4,4,1,0,0,0,121,121,32,1,,,,,,,,
,,,,,,,,,,,,,FF,,,,,,,,0.817,,,,,,,,,,,,,,,,,,,,,,60fc7e0e424b1ce5aa8dd706,610377e4181346162b9b49b9,2021-07-29_23h03.30.623,Simcolourproject_2stim_asymm_v5,2020.2.10,MacIntel,60,61025ae37ef11b136ea224fe,,,,,,,,,4258,99,43,1,0,0,response1disk,,6,-7,3,1,0,0,rectangle,-7,3,1,0,0,-7,3,1,0,0,0,122,122,60,1,,,,,,,,
,,,,,,,,,,,,,FF,,,,,,,,0.849,,,,,,,,,,,,,,,,,,,,,,60fc7e0e424b1ce5aa8dd706,610377e4181346162b9b49b9,2021-07-29_23h03.30.623,Simcolourproject_2stim_asymm_v5,2020.2.10,MacIntel,60,61025ae37ef11b136ea224fe,,,,,,,,,673,82,-44,1,0,0,response3disk,,5,-10,6,1,0,0,rectangle,-10,6,1,0,0,-10,6,1,0,0,0,123,123,66,1,,,,,,,,
,,,,,,,,,,,,,FF,,,,,,,,0.533,,,,,,,,,,,,,,,,,,,,,,60fc7e0e424b1ce5aa8dd706,610377e4181346162b9b49b9,2021-07-29_23h03.30.623,Simcolourproject_2stim_asymm_v5,2020.2.10,MacIntel,60,61025ae37ef11b136ea224fe,,,,,,,,,241,78,37,1,0,0,response1disk,,6,-10,8,1,0,0,rectangle,-10,8,1,0,0,-10,8,1,0,0,0,124,124,77,1,,,,,,,,
,,,,,,,,,,,,,FF,,,,,,,,0.701,,,,,,,,,,,,,,,,,,,,,,60fc7e0e424b1ce5aa8dd706,610377e4181346162b9b49b9,2021-07-29_23h03.30.623,Simcolourproject_2stim_asymm_v5,2020.2.10,MacIntel,60,61025ae37ef11b136ea224fe,,,,,,,,,2921,102,-53,1,0,0,response3disk,,5,16,-9,1,0,0,rectangle,16,-9,1,0,0,16,-9,1,0,0,0,125,125,92,1,,,,,,,,
,,,,,,,,,,,,,FF,,,,,,,,0.733,,,,,,,,,,,,,,,,,,,,,,60fc7e0e424b1ce5aa8dd706,610377e4181346162b9b49b9,2021-07-29_23h03.30.623,Simcolourproject_2stim_asymm_v5,2020.2.10,MacIntel,60,61025ae37ef11b136ea224fe,,,,,,,,,593,69,-50,1,0,0,response3disk,,5,20,-12,1,0,0,rectangle,20,-12,1,0,0,20,-12,1,0,0,0,126,126,46,1,,,,,,,,
,,,,,,,,,,,,,FF,,,,,,,,0.667,,,,,,,,,,,,,,,,,,,,,,60fc7e0e424b1ce5aa8dd706,610377e4181346162b9b49b9,2021-07-29_23h03.30.623,Simcolourproject_2stim_asymm_v5,2020.2.10,MacIntel,60,61025ae37ef11b136ea224fe,,,,,,,,,1420,88,54,1,0,0,response1disk,,6,1,-9,1,0,0,rectangle,1,-9,1,0,0,1,-9,1,0,0,0,127,127,144,1,,,,,,,,
,,,,,,,,,,,,,FF,,,,,,,,1.15,,,,,,,,,,,,,,,,,,,,,,60fc7e0e424b1ce5aa8dd706,610377e4181346162b9b49b9,2021-07-29_23h03.30.623,Simcolourproject_2stim_asymm_v5,2020.2.10,MacIntel,60,61025ae37ef11b136ea224fe,,,,,,,,,82,-43,-100,1,0,0,response5disk,,3,-7,2,1,0,0,rectangle,-7,2,1,0,0,-7,2,1,0,0,0,128,128,115,1,,,,,,,,
,,,,,,,,,,,,,FF,,,,,,,,0.718,,,,,,,,,,,,,,,,,,,,,,60fc7e0e424b1ce5aa8dd706,610377e4181346162b9b49b9,2021-07-29_23h03.30.623,Simcolourproject_2stim_asymm_v5,2020.2.10,MacIntel,60,61025ae37ef11b136ea224fe,,,,,,,,,3820,88,-38,1,0,0,response3disk,,5,18,2,1,0,0,rectangle,18,2,1,0,0,18,2,1,0,0,0,129,129,117,1,,,,,,,,
,,,,,,,,,,,,,FF,,,,,,,,0.853,,,,,,,,,,,,,,,,,,,,,,60fc7e0e424b1ce5aa8dd706,610377e4181346162b9b49b9,2021-07-29_23h03.30.623,Simcolourproject_2stim_asymm_v5,2020.2.10,MacIntel,60,61025ae37ef11b136ea224fe,,,,,,,,,265,-69,-45,1,0,0,response5disk,,2,2,-7,1,0,0,rectangle,2,-7,1,0,0,2,-7,1,0,0,0,130,130,140,1,,,,,,,,
,,,,,,,,,,,,,FF,,,,,,,,0.884,,,,,,,,,,,,,,,,,,,,,,60fc7e0e424b1ce5aa8dd706,610377e4181346162b9b49b9,2021-07-29_23h03.30.623,Simcolourproject_2stim_asymm_v5,2020.2.10,MacIntel,60,61025ae37ef11b136ea224fe,,,,,,,,,3812,-68,-33,1,0,0,response5disk,,2,13,0,1,0,0,rectangle,13,0,1,0,0,13,0,1,0,0,0,131,131,10,1,,,,,,,,
,,,,,,,,,,,,,FF,,,,,,,,1.667,,,,,,,,,,,,,,,,,,,,,,60fc7e0e424b1ce5aa8dd706,610377e4181346162b9b49b9,2021-07-29_23h03.30.623,Simcolourproject_2stim_asymm_v5,2020.2.10,MacIntel,60,61025ae37ef11b136ea224fe,,,,,,,,,3057,-28,-69,1,0,0,response5disk,,3,-9,-9,1,0,0,rectangle,-9,-9,1,0,0,-9,-9,1,0,0,0,132,132,114,1,,,,,,,,
,,,,,,,,,,,,,FF,,,,,,,,0.85,,,,,,,,,,,,,,,,,,,,,,60fc7e0e424b1ce5aa8dd706,610377e4181346162b9b49b9,2021-07-29_23h03.30.623,Simcolourproject_2stim_asymm_v5,2020.2.10,MacIntel,60,61025ae37ef11b136ea224fe,,,,,,,,,2538,76,-41,1,0,0,response3disk,,5,9,-12,1,0,0,rectangle,9,-12,1,0,0,9,-12,1,0,0,0,133,133,141,1,,,,,,,,
,,,,,,,,,,,,,FF,,,,,,,,0.851,,,,,,,,,,,,,,,,,,,,,,60fc7e0e424b1ce5aa8dd706,610377e4181346162b9b49b9,2021-07-29_23h03.30.623,Simcolourproject_2stim_asymm_v5,2020.2.10,MacIntel,60,61025ae37ef11b136ea224fe,,,,,,,,,1815,-34,74,1,0,0,response7disk,,0,1,2,1,0,0,rectangle,1,2,1,0,0,1,2,1,0,0,0,134,134,42,1,,,,,,,,
,,,,,,,,,,,,,FF,,,,,,,,2.367,,,,,,,,,,,,,,,,,,,,,,60fc7e0e424b1ce5aa8dd706,610377e4181346162b9b49b9,2021-07-29_23h03.30.623,Simcolourproject_2stim_asymm_v5,2020.2.10,MacIntel,60,61025ae37ef11b136ea224fe,,,,,,,,,3132,97,46,1,0,0,response1disk,,6,-4,0,1,0,0,rectangle,-4,0,1,0,0,-4,0,1,0,0,0,135,135,158,1,,,,,,,,
,,,,,,,,,,,,,FF,,,,,,,,1.899,,,,,,,,,,,,,,,,,,,,,,60fc7e0e424b1ce5aa8dd706,610377e4181346162b9b49b9,2021-07-29_23h03.30.623,Simcolourproject_2stim_asymm_v5,2020.2.10,MacIntel,60,61025ae37ef11b136ea224fe,,,,,,,,,3292,-74,-46,1,0,0,response5disk,,2,-8,-11,1,0,0,rectangle,-8,-11,1,0,0,-8,-11,1,0,0,0,136,136,139,1,,,,,,,,
,,,,,,,,,,,,,FF,,,,,,,,1.134,,,,,,,,,,,,,,,,,,,,,,60fc7e0e424b1ce5aa8dd706,610377e4181346162b9b49b9,2021-07-29_23h03.30.623,Simcolourproject_2stim_asymm_v5,2020.2.10,MacIntel,60,61025ae37ef11b136ea224fe,,,,,,,,,2310,-83,-40,1,0,0,response5disk,,2,3,-9,1,0,0,rectangle,3,-9,1,0,0,3,-9,1,0,0,0,137,137,108,1,,,,,,,,
,,,,,,,,,,,,,FF,,,,,,,,1.584,,,,,,,,,,,,,,,,,,,,,,60fc7e0e424b1ce5aa8dd706,610377e4181346162b9b49b9,2021-07-29_23h03.30.623,Simcolourproject_2stim_asymm_v5,2020.2.10,MacIntel,60,61025ae37ef11b136ea224fe,,,,,,,,,309,86,45,1,0,0,response1disk,,6,-21,10,1,0,0,rectangle,-21,10,1,0,0,-21,10,1,0,0,0,138,138,14,1,,,,,,,,
,,,,,,,,,,,,,FF,,,,,,,,0.684,,,,,,,,,,,,,,,,,,,,,,60fc7e0e424b1ce5aa8dd706,610377e4181346162b9b49b9,2021-07-29_23h03.30.623,Simcolourproject_2stim_asymm_v5,2020.2.10,MacIntel,60,61025ae37ef11b136ea224fe,,,,,,,,,3837,81,44,1,0,0,response1disk,,6,-12,5,1,0,0,rectangle,-12,5,1,0,0,-12,5,1,0,0,0,139,139,134,1,,,,,,,,
,,,,,,,,,,,,,FF,,,,,,,,0.949,,,,,,,,,,,,,,,,,,,,,,60fc7e0e424b1ce5aa8dd706,610377e4181346162b9b49b9,2021-07-29_23h03.30.623,Simcolourproject_2stim_asymm_v5,2020.2.10,MacIntel,60,61025ae37ef11b136ea224fe,,,,,,,,,2596,81,64,1,0,0,response1disk,,6,13,16,1,0,0,rectangle,13,16,1,0,0,13,16,1,0,0,0,140,140,86,1,,,,,,,,
,,,,,,,,,,,,,FF,,,,,,,,0.6,,,,,,,,,,,,,,,,,,,,,,60fc7e0e424b1ce5aa8dd706,610377e4181346162b9b49b9,2021-07-29_23h03.30.623,Simcolourproject_2stim_asymm_v5,2020.2.10,MacIntel,60,61025ae37ef11b136ea224fe,,,,,,,,,769,87,36,1,0,0,response1disk,,6,-11,0,1,0,0,rectangle,-11,0,1,0,0,-11,0,1,0,0,0,141,141,11,1,,,,,,,,
,,,,,,,,,,,,,FF,,,,,,,,1.118,,,,,,,,,,,,,,,,,,,,,,60fc7e0e424b1ce5aa8dd706,610377e4181346162b9b49b9,2021-07-29_23h03.30.623,Simcolourproject_2stim_asymm_v5,2020.2.10,MacIntel,60,61025ae37ef11b136ea224fe,,,,,,,,,1837,81,40,1,0,0,response1disk,,6,-11,10,1,0,0,rectangle,-11,10,1,0,0,-11,10,1,0,0,0,142,142,1,1,,,,,,,,
,,,,,,,,,,,,,FF,,,,,,,,1.201,,,,,,,,,,,,,,,,,,,,,,60fc7e0e424b1ce5aa8dd706,610377e4181346162b9b49b9,2021-07-29_23h03.30.623,Simcolourproject_2stim_asymm_v5,2020.2.10,MacIntel,60,61025ae37ef11b136ea224fe,,,,,,,,,362,49,96,1,0,0,response1disk,,7,19,0,1,0,0,rectangle,96,-64,1,0,0,12,-3,1,0,0,0,143,143,37,1,,response3disk_3,TRUE,5,5,"[69,115,0,283,242,10,148,105,247,144,63,117,76,85,171,105,153,231,91,23]",1.466,rectangle
,,,,,,,,,,,,,FF,,,,,,,,2.7,,,,,,,,,,,,,,,,,,,,,,60fc7e0e424b1ce5aa8dd706,610377e4181346162b9b49b9,2021-07-29_23h03.30.623,Simcolourproject_2stim_asymm_v5,2020.2.10,MacIntel,60,61025ae37ef11b136ea224fe,,,,,,,,,1479,93,25,1,0,0,response1disk,,6,8,-2,1,0,0,rectangle,8,-2,1,0,0,8,-2,1,0,0,0,144,144,29,1,,,,,,,,
,,,,,,,,,,,,,FF,,,,,,,,0.9,,,,,,,,,,,,,,,,,,,,,,60fc7e0e424b1ce5aa8dd706,610377e4181346162b9b49b9,2021-07-29_23h03.30.623,Simcolourproject_2stim_asymm_v5,2020.2.10,MacIntel,60,61025ae37ef11b136ea224fe,,,,,,,,,4159,79,-23,1,0,0,response3disk,,5,-4,-3,1,0,0,rectangle,-4,-3,1,0,0,-4,-3,1,0,0,0,145,145,81,1,,,,,,,,
,,,,,,,,,,,,,FF,,,,,,,,0.583,,,,,,,,,,,,,,,,,,,,,,60fc7e0e424b1ce5aa8dd706,610377e4181346162b9b49b9,2021-07-29_23h03.30.623,Simcolourproject_2stim_asymm_v5,2020.2.10,MacIntel,60,61025ae37ef11b136ea224fe,,,,,,,,,121,77,-26,1,0,0,response3disk,,5,0,2,1,0,0,rectangle,0,2,1,0,0,0,2,1,0,0,0,146,146,72,1,,,,,,,,
,,,,,,,,,,,,,FF,,,,,,,,0.901,,,,,,,,,,,,,,,,,,,,,,60fc7e0e424b1ce5aa8dd706,610377e4181346162b9b49b9,2021-07-29_23h03.30.623,Simcolourproject_2stim_asymm_v5,2020.2.10,MacIntel,60,61025ae37ef11b136ea224fe,,,,,,,,,2539,84,38,1,0,0,response1disk,,6,-7,8,1,0,0,rectangle,96,47,1,0,0,3,1,1,0,0,0,147,147,107,1,,response1disk_3,TRUE,6,6,"[69,115,0,283,242,10,148,105,247,144,63,117,76,85,171,105,153,231,91,23]",1.616,rectangle
,,,,,,,,,,,,,FF,,,,,,,,0.683,,,,,,,,,,,,,,,,,,,,,,60fc7e0e424b1ce5aa8dd706,610377e4181346162b9b49b9,2021-07-29_23h03.30.623,Simcolourproject_2stim_asymm_v5,2020.2.10,MacIntel,60,61025ae37ef11b136ea224fe,,,,,,,,,1007,85,42,1,0,0,response1disk,,6,11,8,1,0,0,rectangle,11,8,1,0,0,11,8,1,0,0,0,148,148,123,1,,,,,,,,
,,,,,,,,,,,,,FF,,,,,,,,2.115,,,,,,,,,,,,,,,,,,,,,,60fc7e0e424b1ce5aa8dd706,610377e4181346162b9b49b9,2021-07-29_23h03.30.623,Simcolourproject_2stim_asymm_v5,2020.2.10,MacIntel,60,61025ae37ef11b136ea224fe,,,,,,,,,1662,-91,-42,1,0,0,response5disk,,2,-1,0,1,0,0,rectangle,-1,0,1,0,0,-1,0,1,0,0,0,149,149,57,1,,,,,,,,
,,,,,,,,,,,,,FF,,,,,,,,0.733,,,,,,,,,,,,,,,,,,,,,,60fc7e0e424b1ce5aa8dd706,610377e4181346162b9b49b9,2021-07-29_23h03.30.623,Simcolourproject_2stim_asymm_v5,2020.2.10,MacIntel,60,61025ae37ef11b136ea224fe,,,,,,,,,3264,-36,-63,1,0,0,response5disk,,3,-1,-5,1,0,0,rectangle,-1,-5,1,0,0,-1,-5,1,0,0,0,150,150,78,1,,,,,,,,
,,,,,,,,,,,,,FF,,,,,,,,0.65,,,,,,,,,,,,,,,,,,,,,,60fc7e0e424b1ce5aa8dd706,610377e4181346162b9b49b9,2021-07-29_23h03.30.623,Simcolourproject_2stim_asymm_v5,2020.2.10,MacIntel,60,61025ae37ef11b136ea224fe,,,,,,,,,487,72,-25,1,0,0,response3disk,,5,28,-2,1,0,0,rectangle,28,-2,1,0,0,28,-2,1,0,0,0,151,151,101,1,,,,,,,,
,,,,,,,,,,,,,FF,,,,,,,,0.599,,,,,,,,,,,,,,,,,,,,,,60fc7e0e424b1ce5aa8dd706,610377e4181346162b9b49b9,2021-07-29_23h03.30.623,Simcolourproject_2stim_asymm_v5,2020.2.10,MacIntel,60,61025ae37ef11b136ea224fe,,,,,,,,,3263,100,41,1,0,0,response1disk,,6,-22,-1,1,0,0,rectangle,41,92,1,0,0,-11,1,1,0,0,0,152,152,159,1,,response1disk_3,TRUE,7,7,"[69,115,0,283,242,10,148,105,247,144,63,117,76,85,171,105,153,231,91,23]",1.032,rectangle
,,,,,,,,,,,,,FF,,,,,,,,0.616,,,,,,,,,,,,,,,,,,,,,,60fc7e0e424b1ce5aa8dd706,610377e4181346162b9b49b9,2021-07-29_23h03.30.623,Simcolourproject_2stim_asymm_v5,2020.2.10,MacIntel,60,61025ae37ef11b136ea224fe,,,,,,,,,177,83,32,1,0,0,response1disk,,6,8,-14,1,0,0,rectangle,8,-14,1,0,0,8,-14,1,0,0,0,153,153,133,1,,,,,,,,
,,,,,,,,,,,,,FF,,,,,,,,0.702,,,,,,,,,,,,,,,,,,,,,,60fc7e0e424b1ce5aa8dd706,610377e4181346162b9b49b9,2021-07-29_23h03.30.623,Simcolourproject_2stim_asymm_v5,2020.2.10,MacIntel,60,61025ae37ef11b136ea224fe,,,,,,,,,1083,77,-34,1,0,0,response3disk,,5,4,1,1,0,0,rectangle,4,1,1,0,0,4,1,1,0,0,0,154,154,87,1,,,,,,,,
,,,,,,,,,,,,,FF,,,,,,,,0.584,,,,,,,,,,,,,,,,,,,,,,60fc7e0e424b1ce5aa8dd706,610377e4181346162b9b49b9,2021-07-29_23h03.30.623,Simcolourproject_2stim_asymm_v5,2020.2.10,MacIntel,60,61025ae37ef11b136ea224fe,,,,,,,,,119,90,37,1,0,0,response1disk,,6,3,-4,1,0,0,rectangle,3,-4,1,0,0,3,-4,1,0,0,0,155,155,28,1,,,,,,,,
,,,,,,,,,,,,,FF,,,,,,,,0.517,,,,,,,,,,,,,,,,,,,,,,60fc7e0e424b1ce5aa8dd706,610377e4181346162b9b49b9,2021-07-29_23h03.30.623,Simcolourproject_2stim_asymm_v5,2020.2.10,MacIntel,60,61025ae37ef11b136ea224fe,,,,,,,,,1170,101,48,1,0,0,response1disk,,6,-12,15,1,0,0,rectangle,-12,15,1,0,0,-12,15,1,0,0,0,156,156,85,1,,,,,,,,
,,,,,,,,,,,,,FF,,,,,,,,0.834,,,,,,,,,,,,,,,,,,,,,,60fc7e0e424b1ce5aa8dd706,610377e4181346162b9b49b9,2021-07-29_23h03.30.623,Simcolourproject_2stim_asymm_v5,2020.2.10,MacIntel,60,61025ae37ef11b136ea224fe,,,,,,,,,2542,-73,36,1,0,0,response7disk,,1,-8,-4,1,0,0,rectangle,-8,-4,1,0,0,-8,-4,1,0,0,0,157,157,75,1,,,,,,,,
,,,,,,,,,,,,,FF,,,,,,,,1.017,,,,,,,,,,,,,,,,,,,,,,60fc7e0e424b1ce5aa8dd706,610377e4181346162b9b49b9,2021-07-29_23h03.30.623,Simcolourproject_2stim_asymm_v5,2020.2.10,MacIntel,60,61025ae37ef11b136ea224fe,,,,,,,,,1099,88,40,1,0,0,response1disk,,6,9,12,1,0,0,rectangle,9,12,1,0,0,9,12,1,0,0,0,158,158,50,1,,,,,,,,
,,,,,,,,,,,,,FF,,,,,,,,0.549,,,,,,,,,,,,,,,,,,,,,,60fc7e0e424b1ce5aa8dd706,610377e4181346162b9b49b9,2021-07-29_23h03.30.623,Simcolourproject_2stim_asymm_v5,2020.2.10,MacIntel,60,61025ae37ef11b136ea224fe,,,,,,,,,3135,74,-42,1,0,0,response3disk,,5,-3,1,1,0,0,rectangle,-3,1,1,0,0,-3,1,1,0,0,0,159,159,155,1,,,,,,,,
,,,,,,,,,,,,,FF,,,,,,,,0.868,,,,,,,,,,,,,,,,,,,,,,60fc7e0e424b1ce5aa8dd706,610377e4181346162b9b49b9,2021-07-29_23h03.30.623,Simcolourproject_2stim_asymm_v5,2020.2.10,MacIntel,60,61025ae37ef11b136ea224fe,,,,,,,,,1674,-70,-46,1,0,0,response5disk,,2,2,-2,1,0,0,rectangle,2,-2,1,0,0,2,-2,1,0,0,1,0,160,21,1,,,,,,,,
,,,,,,,,,,,,,FF,,,,,,,,0.716,,,,,,,,,,,,,,,,,,,,,,60fc7e0e424b1ce5aa8dd706,610377e4181346162b9b49b9,2021-07-29_23h03.30.623,Simcolourproject_2stim_asymm_v5,2020.2.10,MacIntel,60,61025ae37ef11b136ea224fe,,,,,,,,,3679,-87,-30,1,0,0,response5disk,,2,5,10,1,0,0,rectangle,5,10,1,0,0,5,10,1,0,0,1,1,161,37,1,,,,,,,,
,,,,,,,,,,,,,FF,,,,,,,,0.534,,,,,,,,,,,,,,,,,,,,,,60fc7e0e424b1ce5aa8dd706,610377e4181346162b9b49b9,2021-07-29_23h03.30.623,Simcolourproject_2stim_asymm_v5,2020.2.10,MacIntel,60,61025ae37ef11b136ea224fe,,,,,,,,,2443,84,36,1,0,0,response1disk,,6,-22,-5,1,0,0,rectangle,-22,-5,1,0,0,-22,-5,1,0,0,1,2,162,20,1,,,,,,,,
,,,,,,,,,,,,,FF,,,,,,,,0.651,,,,,,,,,,,,,,,,,,,,,,60fc7e0e424b1ce5aa8dd706,610377e4181346162b9b49b9,2021-07-29_23h03.30.623,Simcolourproject_2stim_asymm_v5,2020.2.10,MacIntel,60,61025ae37ef11b136ea224fe,,,,,,,,,1950,64,-40,1,0,0,response3disk,,5,4,-2,1,0,0,rectangle,4,-2,1,0,0,4,-2,1,0,0,1,3,163,27,1,,,,,,,,
,,,,,,,,,,,,,FF,,,,,,,,1.535,,,,,,,,,,,,,,,,,,,,,,60fc7e0e424b1ce5aa8dd706,610377e4181346162b9b49b9,2021-07-29_23h03.30.623,Simcolourproject_2stim_asymm_v5,2020.2.10,MacIntel,60,61025ae37ef11b136ea224fe,,,,,,,,,2615,-76,22,1,0,0,response7disk,,1,8,10,1,0,0,rectangle,8,10,1,0,0,8,10,1,0,0,1,4,164,96,1,,,,,,,,
,,,,,,,,,,,,,FF,,,,,,,,0.916,,,,,,,,,,,,,,,,,,,,,,60fc7e0e424b1ce5aa8dd706,610377e4181346162b9b49b9,2021-07-29_23h03.30.623,Simcolourproject_2stim_asymm_v5,2020.2.10,MacIntel,60,61025ae37ef11b136ea224fe,,,,,,,,,2995,-90,-36,1,0,0,response5disk,,2,-11,-10,1,0,0,rectangle,-11,-10,1,0,0,-11,-10,1,0,0,1,5,165,87,1,,,,,,,,
,,,,,,,,,,,,,FF,,,,,,,,0.549,,,,,,,,,,,,,,,,,,,,,,60fc7e0e424b1ce5aa8dd706,610377e4181346162b9b49b9,2021-07-29_23h03.30.623,Simcolourproject_2stim_asymm_v5,2020.2.10,MacIntel,60,61025ae37ef11b136ea224fe,,,,,,,,,923,35,-79,1,0,0,response3disk,,4,19,3,1,0,0,rectangle,19,3,1,0,0,19,3,1,0,0,1,6,166,32,1,,,,,,,,
,,,,,,,,,,,,,FF,,,,,,,,0.584,,,,,,,,,,,,,,,,,,,,,,60fc7e0e424b1ce5aa8dd706,610377e4181346162b9b49b9,2021-07-29_23h03.30.623,Simcolourproject_2stim_asymm_v5,2020.2.10,MacIntel,60,61025ae37ef11b136ea224fe,,,,,,,,,1808,82,-46,1,0,0,response3disk,,5,13,-5,1,0,0,rectangle,13,-5,1,0,0,13,-5,1,0,0,1,7,167,107,1,,,,,,,,
,,,,,,,,,,,,,FF,,,,,,,,0.967,,,,,,,,,,,,,,,,,,,,,,60fc7e0e424b1ce5aa8dd706,610377e4181346162b9b49b9,2021-07-29_23h03.30.623,Simcolourproject_2stim_asymm_v5,2020.2.10,MacIntel,60,61025ae37ef11b136ea224fe,,,,,,,,,1904,-34,-68,1,0,0,response5disk,,3,-10,9,1,0,0,rectangle,-10,9,1,0,0,-10,9,1,0,0,1,8,168,71,1,,,,,,,,
,,,,,,,,,,,,,FF,,,,,,,,1.05,,,,,,,,,,,,,,,,,,,,,,60fc7e0e424b1ce5aa8dd706,610377e4181346162b9b49b9,2021-07-29_23h03.30.623,Simcolourproject_2stim_asymm_v5,2020.2.10,MacIntel,60,61025ae37ef11b136ea224fe,,,,,,,,,186,-71,-33,1,0,0,response5disk,,2,4,-5,1,0,0,rectangle,4,-5,1,0,0,4,-5,1,0,0,1,9,169,145,1,,,,,,,,
,,,,,,,,,,,,,FF,,,,,,,,1.066,,,,,,,,,,,,,,,,,,,,,,60fc7e0e424b1ce5aa8dd706,610377e4181346162b9b49b9,2021-07-29_23h03.30.623,Simcolourproject_2stim_asymm_v5,2020.2.10,MacIntel,60,61025ae37ef11b136ea224fe,,,,,,,,,501,72,-44,1,0,0,response3disk,,5,-2,2,1,0,0,rectangle,39,-94,1,0,0,-6,-5,1,0,0,1,10,170,60,1,,response3disk_3,TRUE,4,4,"[69,115,0,283,242,10,148,105,247,144,63,117,76,85,171,105,153,231,91,23]",1.7,rectangle
,,,,,,,,,,,,,FF,,,,,,,,1.1,,,,,,,,,,,,,,,,,,,,,,60fc7e0e424b1ce5aa8dd706,610377e4181346162b9b49b9,2021-07-29_23h03.30.623,Simcolourproject_2stim_asymm_v5,2020.2.10,MacIntel,60,61025ae37ef11b136ea224fe,,,,,,,,,211,95,-30,1,0,0,response3disk,,5,-6,-9,1,0,0,rectangle,-6,-9,1,0,0,-6,-9,1,0,0,1,11,171,13,1,,,,,,,,
,,,,,,,,,,,,,FF,,,,,,,,2.917,,,,,,,,,,,,,,,,,,,,,,60fc7e0e424b1ce5aa8dd706,610377e4181346162b9b49b9,2021-07-29_23h03.30.623,Simcolourproject_2stim_asymm_v5,2020.2.10,MacIntel,60,61025ae37ef11b136ea224fe,,,,,,,,,1549,68,28,1,0,0,response1disk,,6,8,12,1,0,0,rectangle,8,12,1,0,0,8,12,1,0,0,1,12,172,82,1,,,,,,,,
,,,,,,,,,,,,,FF,,,,,,,,2.05,,,,,,,,,,,,,,,,,,,,,,60fc7e0e424b1ce5aa8dd706,610377e4181346162b9b49b9,2021-07-29_23h03.30.623,Simcolourproject_2stim_asymm_v5,2020.2.10,MacIntel,60,61025ae37ef11b136ea224fe,,,,,,,,,2711,-38,-80,1,0,0,response5disk,,3,-16,-4,1,0,0,rectangle,-16,-4,1,0,0,-16,-4,1,0,0,1,13,173,65,1,,,,,,,,
,,,,,,,,,,,,,FF,,,,,,,,0.634,,,,,,,,,,,,,,,,,,,,,,60fc7e0e424b1ce5aa8dd706,610377e4181346162b9b49b9,2021-07-29_23h03.30.623,Simcolourproject_2stim_asymm_v5,2020.2.10,MacIntel,60,61025ae37ef11b136ea224fe,,,,,,,,,1084,75,-48,1,0,0,response3disk,,5,4,-1,1,0,0,rectangle,4,-1,1,0,0,4,-1,1,0,0,1,14,174,9,1,,,,,,,,
,,,,,,,,,,,,,FF,,,,,,,,1.332,,,,,,,,,,,,,,,,,,,,,,60fc7e0e424b1ce5aa8dd706,610377e4181346162b9b49b9,2021-07-29_23h03.30.623,Simcolourproject_2stim_asymm_v5,2020.2.10,MacIntel,60,61025ae37ef11b136ea224fe,,,,,,,,,3840,44,-93,1,0,0,response3disk,,4,4,3,1,0,0,rectangle,4,3,1,0,0,4,3,1,0,0,1,15,175,151,1,,,,,,,,
,,,,,,,,,,,,,FF,,,,,,,,0.666,,,,,,,,,,,,,,,,,,,,,,60fc7e0e424b1ce5aa8dd706,610377e4181346162b9b49b9,2021-07-29_23h03.30.623,Simcolourproject_2stim_asymm_v5,2020.2.10,MacIntel,60,61025ae37ef11b136ea224fe,,,,,,,,,2167,-65,54,1,0,0,response7disk,,1,5,11,1,0,0,rectangle,5,11,1,0,0,5,11,1,0,0,1,16,176,15,1,,,,,,,,
,,,,,,,,,,,,,FF,,,,,,,,1.267,,,,,,,,,,,,,,,,,,,,,,60fc7e0e424b1ce5aa8dd706,610377e4181346162b9b49b9,2021-07-29_23h03.30.623,Simcolourproject_2stim_asymm_v5,2020.2.10,MacIntel,60,61025ae37ef11b136ea224fe,,,,,,,,,1465,-80,-27,1,0,0,response5disk,,2,-8,-9,1,0,0,rectangle,-8,-9,1,0,0,-8,-9,1,0,0,1,17,177,142,1,,,,,,,,
,,,,,,,,,,,,,FF,,,,,,,,0.784,,,,,,,,,,,,,,,,,,,,,,60fc7e0e424b1ce5aa8dd706,610377e4181346162b9b49b9,2021-07-29_23h03.30.623,Simcolourproject_2stim_asymm_v5,2020.2.10,MacIntel,60,61025ae37ef11b136ea224fe,,,,,,,,,4351,-78,44,1,0,0,response7disk,,1,5,-11,1,0,0,rectangle,5,-11,1,0,0,5,-11,1,0,0,1,18,178,26,1,,,,,,,,
,,,,,,,,,,,,,FF,,,,,,,,0.784,,,,,,,,,,,,,,,,,,,,,,60fc7e0e424b1ce5aa8dd706,610377e4181346162b9b49b9,2021-07-29_23h03.30.623,Simcolourproject_2stim_asymm_v5,2020.2.10,MacIntel,60,61025ae37ef11b136ea224fe,,,,,,,,,3571,92,42,1,0,0,response1disk,,6,7,5,1,0,0,rectangle,7,5,1,0,0,7,5,1,0,0,1,19,179,56,1,,,,,,,,
,,,,,,,,,,,,,FF,,,,,,,,0.601,,,,,,,,,,,,,,,,,,,,,,60fc7e0e424b1ce5aa8dd706,610377e4181346162b9b49b9,2021-07-29_23h03.30.623,Simcolourproject_2stim_asymm_v5,2020.2.10,MacIntel,60,61025ae37ef11b136ea224fe,,,,,,,,,1415,41,76,1,0,0,response1disk,,7,31,13,1,0,0,rectangle,31,13,1,0,0,31,13,1,0,0,1,20,180,112,1,,,,,,,,
,,,,,,,,,,,,,FF,,,,,,,,0.617,,,,,,,,,,,,,,,,,,,,,,60fc7e0e424b1ce5aa8dd706,610377e4181346162b9b49b9,2021-07-29_23h03.30.623,Simcolourproject_2stim_asymm_v5,2020.2.10,MacIntel,60,61025ae37ef11b136ea224fe,,,,,,,,,878,74,33,1,0,0,response1disk,,6,4,14,1,0,0,rectangle,4,14,1,0,0,4,14,1,0,0,1,21,181,90,1,,,,,,,,
,,,,,,,,,,,,,FF,,,,,,,,0.85,,,,,,,,,,,,,,,,,,,,,,60fc7e0e424b1ce5aa8dd706,610377e4181346162b9b49b9,2021-07-29_23h03.30.623,Simcolourproject_2stim_asymm_v5,2020.2.10,MacIntel,60,61025ae37ef11b136ea224fe,,,,,,,,,1725,93,-49,1,0,0,response3disk,,5,3,6,1,0,0,rectangle,3,6,1,0,0,3,6,1,0,0,1,22,182,119,1,,,,,,,,
,,,,,,,,,,,,,FF,,,,,,,,0.949,,,,,,,,,,,,,,,,,,,,,,60fc7e0e424b1ce5aa8dd706,610377e4181346162b9b49b9,2021-07-29_23h03.30.623,Simcolourproject_2stim_asymm_v5,2020.2.10,MacIntel,60,61025ae37ef11b136ea224fe,,,,,,,,,1682,-55,-84,1,0,0,response5disk,,3,-5,-2,1,0,0,rectangle,-5,-2,1,0,0,-5,-2,1,0,0,1,23,183,120,1,,,,,,,,
,,,,,,,,,,,,,FF,,,,,,,,0.716,,,,,,,,,,,,,,,,,,,,,,60fc7e0e424b1ce5aa8dd706,610377e4181346162b9b49b9,2021-07-29_23h03.30.623,Simcolourproject_2stim_asymm_v5,2020.2.10,MacIntel,60,61025ae37ef11b136ea224fe,,,,,,,,,2245,-22,-74,1,0,0,response5disk,,3,0,-14,1,0,0,rectangle,0,-14,1,0,0,0,-14,1,0,0,1,24,184,11,1,,,,,,,,
,,,,,,,,,,,,,FF,,,,,,,,0.835,,,,,,,,,,,,,,,,,,,,,,60fc7e0e424b1ce5aa8dd706,610377e4181346162b9b49b9,2021-07-29_23h03.30.623,Simcolourproject_2stim_asymm_v5,2020.2.10,MacIntel,60,61025ae37ef11b136ea224fe,,,,,,,,,842,37,-70,1,0,0,response3disk,,4,7,0,1,0,0,rectangle,7,0,1,0,0,7,0,1,0,0,1,25,185,49,1,,,,,,,,
,,,,,,,,,,,,,FF,,,,,,,,0.634,,,,,,,,,,,,,,,,,,,,,,60fc7e0e424b1ce5aa8dd706,610377e4181346162b9b49b9,2021-07-29_23h03.30.623,Simcolourproject_2stim_asymm_v5,2020.2.10,MacIntel,60,61025ae37ef11b136ea224fe,,,,,,,,,2314,77,-31,1,0,0,response3disk,,5,-7,10,1,0,0,rectangle,-7,10,1,0,0,-7,10,1,0,0,1,26,186,91,1,,,,,,,,
,,,,,,,,,,,,,FF,,,,,,,,1.616,,,,,,,,,,,,,,,,,,,,,,60fc7e0e424b1ce5aa8dd706,610377e4181346162b9b49b9,2021-07-29_23h03.30.623,Simcolourproject_2stim_asymm_v5,2020.2.10,MacIntel,60,61025ae37ef11b136ea224fe,,,,,,,,,4084,-43,-90,1,0,0,response5disk,,3,-11,6,1,0,0,rectangle,-11,6,1,0,0,-11,6,1,0,0,1,27,187,105,1,,,,,,,,
,,,,,,,,,,,,,FF,,,,,,,,1.267,,,,,,,,,,,,,,,,,,,,,,60fc7e0e424b1ce5aa8dd706,610377e4181346162b9b49b9,2021-07-29_23h03.30.623,Simcolourproject_2stim_asymm_v5,2020.2.10,MacIntel,60,61025ae37ef11b136ea224fe,,,,,,,,,2763,96,39,1,0,0,response1disk,,6,-19,8,1,0,0,rectangle,-19,8,1,0,0,-19,8,1,0,0,1,28,188,10,1,,,,,,,,
,,,,,,,,,,,,,FF,,,,,,,,0.668,,,,,,,,,,,,,,,,,,,,,,60fc7e0e424b1ce5aa8dd706,610377e4181346162b9b49b9,2021-07-29_23h03.30.623,Simcolourproject_2stim_asymm_v5,2020.2.10,MacIntel,60,61025ae37ef11b136ea224fe,,,,,,,,,3875,-40,101,1,0,0,response7disk,,0,-5,-1,1,0,0,rectangle,-5,-1,1,0,0,-5,-1,1,0,0,1,29,189,6,1,,,,,,,,
,,,,,,,,,,,,,FF,,,,,,,,1.1,,,,,,,,,,,,,,,,,,,,,,60fc7e0e424b1ce5aa8dd706,610377e4181346162b9b49b9,2021-07-29_23h03.30.623,Simcolourproject_2stim_asymm_v5,2020.2.10,MacIntel,60,61025ae37ef11b136ea224fe,,,,,,,,,1235,-39,-80,1,0,0,response5disk,,3,4,-2,1,0,0,rectangle,4,-2,1,0,0,4,-2,1,0,0,1,30,190,108,1,,,,,,,,
,,,,,,,,,,,,,FF,,,,,,,,1.416,,,,,,,,,,,,,,,,,,,,,,60fc7e0e424b1ce5aa8dd706,610377e4181346162b9b49b9,2021-07-29_23h03.30.623,Simcolourproject_2stim_asymm_v5,2020.2.10,MacIntel,60,61025ae37ef11b136ea224fe,,,,,,,,,2080,49,-94,1,0,0,response3disk,,4,-5,-7,1,0,0,rectangle,-5,-7,1,0,0,-5,-7,1,0,0,1,31,191,39,1,,,,,,,,
,,,,,,,,,,,,,FF,,,,,,,,0.816,,,,,,,,,,,,,,,,,,,,,,60fc7e0e424b1ce5aa8dd706,610377e4181346162b9b49b9,2021-07-29_23h03.30.623,Simcolourproject_2stim_asymm_v5,2020.2.10,MacIntel,60,61025ae37ef11b136ea224fe,,,,,,,,,2054,45,-89,1,0,0,response3disk,,4,2,17,1,0,0,rectangle,2,17,1,0,0,2,17,1,0,0,1,32,192,62,1,,,,,,,,
,,,,,,,,,,,,,FF,,,,,,,,1.182,,,,,,,,,,,,,,,,,,,,,,60fc7e0e424b1ce5aa8dd706,610377e4181346162b9b49b9,2021-07-29_23h03.30.623,Simcolourproject_2stim_asymm_v5,2020.2.10,MacIntel,60,61025ae37ef11b136ea224fe,,,,,,,,,4163,-75,37,1,0,0,response7disk,,1,-3,6,1,0,0,rectangle,-3,6,1,0,0,-3,6,1,0,0,1,33,193,1,1,,,,,,,,
,,,,,,,,,,,,,FF,,,,,,,,0.933,,,,,,,,,,,,,,,,,,,,,,60fc7e0e424b1ce5aa8dd706,610377e4181346162b9b49b9,2021-07-29_23h03.30.623,Simcolourproject_2stim_asymm_v5,2020.2.10,MacIntel,60,61025ae37ef11b136ea224fe,,,,,,,,,2293,-76,36,1,0,0,response7disk,,1,-8,5,1,0,0,rectangle,-8,5,1,0,0,-8,5,1,0,0,1,34,194,153,1,,,,,,,,
,,,,,,,,,,,,,FF,,,,,,,,1.284,,,,,,,,,,,,,,,,,,,,,,60fc7e0e424b1ce5aa8dd706,610377e4181346162b9b49b9,2021-07-29_23h03.30.623,Simcolourproject_2stim_asymm_v5,2020.2.10,MacIntel,60,61025ae37ef11b136ea224fe,,,,,,,,,1011,86,39,1,0,0,response1disk,,6,7,-9,1,0,0,rectangle,7,-9,1,0,0,7,-9,1,0,0,1,35,195,16,1,,,,,,,,
,,,,,,,,,,,,,FF,,,,,,,,0.85,,,,,,,,,,,,,,,,,,,,,,60fc7e0e424b1ce5aa8dd706,610377e4181346162b9b49b9,2021-07-29_23h03.30.623,Simcolourproject_2stim_asymm_v5,2020.2.10,MacIntel,60,61025ae37ef11b136ea224fe,,,,,,,,,1447,-64,47,1,0,0,response7disk,,1,3,-5,1,0,0,rectangle,3,-5,1,0,0,3,-5,1,0,0,1,36,196,149,1,,,,,,,,
,,,,,,,,,,,,,FF,,,,,,,,0.551,,,,,,,,,,,,,,,,,,,,,,60fc7e0e424b1ce5aa8dd706,610377e4181346162b9b49b9,2021-07-29_23h03.30.623,Simcolourproject_2stim_asymm_v5,2020.2.10,MacIntel,60,61025ae37ef11b136ea224fe,,,,,,,,,3308,42,95,1,0,0,response1disk,,7,10,17,1,0,0,rectangle,10,17,1,0,0,10,17,1,0,0,1,37,197,66,1,,,,,,,,
,,,,,,,,,,,,,FF,,,,,,,,2.201,,,,,,,,,,,,,,,,,,,,,,60fc7e0e424b1ce5aa8dd706,610377e4181346162b9b49b9,2021-07-29_23h03.30.623,Simcolourproject_2stim_asymm_v5,2020.2.10,MacIntel,60,61025ae37ef11b136ea224fe,,,,,,,,,3922,56,-85,1,0,0,response3disk,,4,4,7,1,0,0,rectangle,4,7,1,0,0,4,7,1,0,0,1,38,198,113,1,,,,,,,,
,,,,,,,,,,,,,FF,,,,,,,,0.833,,,,,,,,,,,,,,,,,,,,,,60fc7e0e424b1ce5aa8dd706,610377e4181346162b9b49b9,2021-07-29_23h03.30.623,Simcolourproject_2stim_asymm_v5,2020.2.10,MacIntel,60,61025ae37ef11b136ea224fe,,,,,,,,,682,47,-73,1,0,0,response3disk,,4,-2,0,1,0,0,rectangle,-2,0,1,0,0,-2,0,1,0,0,1,39,199,48,1,,,,,,,,
,,,,,,,,,,,,,FF,,,,,,,,0.601,,,,,,,,,,,,,,,,,,,,,,60fc7e0e424b1ce5aa8dd706,610377e4181346162b9b49b9,2021-07-29_23h03.30.623,Simcolourproject_2stim_asymm_v5,2020.2.10,MacIntel,60,61025ae37ef11b136ea224fe,,,,,,,,,2394,92,-43,1,0,0,response3disk,,5,6,3,1,0,0,rectangle,6,3,1,0,0,6,3,1,0,0,1,40,200,92,1,,,,,,,,
,,,,,,,,,,,,,FF,,,,,,,,0.801,,,,,,,,,,,,,,,,,,,,,,60fc7e0e424b1ce5aa8dd706,610377e4181346162b9b49b9,2021-07-29_23h03.30.623,Simcolourproject_2stim_asymm_v5,2020.2.10,MacIntel,60,61025ae37ef11b136ea224fe,,,,,,,,,3705,-39,85,1,0,0,response7disk,,0,1,-6,1,0,0,rectangle,1,-6,1,0,0,1,-6,1,0,0,1,41,201,53,1,,,,,,,,
,,,,,,,,,,,,,FF,,,,,,,,1.233,,,,,,,,,,,,,,,,,,,,,,60fc7e0e424b1ce5aa8dd706,610377e4181346162b9b49b9,2021-07-29_23h03.30.623,Simcolourproject_2stim_asymm_v5,2020.2.10,MacIntel,60,61025ae37ef11b136ea224fe,,,,,,,,,2578,38,85,1,0,0,response1disk,,7,18,-13,1,0,0,rectangle,18,-13,1,0,0,18,-13,1,0,0,1,42,202,47,1,,,,,,,,
,,,,,,,,,,,,,FF,,,,,,,,0.818,,,,,,,,,,,,,,,,,,,,,,60fc7e0e424b1ce5aa8dd706,610377e4181346162b9b49b9,2021-07-29_23h03.30.623,Simcolourproject_2stim_asymm_v5,2020.2.10,MacIntel,60,61025ae37ef11b136ea224fe,,,,,,,,,1321,83,-63,1,0,0,response3disk,,5,-1,-3,1,0,0,rectangle,-1,-3,1,0,0,-1,-3,1,0,0,1,43,203,51,1,,,,,,,,
,,,,,,,,,,,,,FF,,,,,,,,0.899,,,,,,,,,,,,,,,,,,,,,,60fc7e0e424b1ce5aa8dd706,610377e4181346162b9b49b9,2021-07-29_23h03.30.623,Simcolourproject_2stim_asymm_v5,2020.2.10,MacIntel,60,61025ae37ef11b136ea224fe,,,,,,,,,3716,-33,-88,1,0,0,response5disk,,3,-8,-17,1,0,0,rectangle,-8,-17,1,0,0,-8,-17,1,0,0,1,44,204,130,1,,,,,,,,
,,,,,,,,,,,,,FF,,,,,,,,1.216,,,,,,,,,,,,,,,,,,,,,,60fc7e0e424b1ce5aa8dd706,610377e4181346162b9b49b9,2021-07-29_23h03.30.623,Simcolourproject_2stim_asymm_v5,2020.2.10,MacIntel,60,61025ae37ef11b136ea224fe,,,,,,,,,1572,-45,-82,1,0,0,response5disk,,3,-15,0,1,0,0,rectangle,-15,0,1,0,0,-15,0,1,0,0,1,45,205,84,1,,,,,,,,
,,,,,,,,,,,,,FF,,,,,,,,1.267,,,,,,,,,,,,,,,,,,,,,,60fc7e0e424b1ce5aa8dd706,610377e4181346162b9b49b9,2021-07-29_23h03.30.623,Simcolourproject_2stim_asymm_v5,2020.2.10,MacIntel,60,61025ae37ef11b136ea224fe,,,,,,,,,2149,92,-59,1,0,0,response3disk,,5,11,3,1,0,0,rectangle,11,3,1,0,0,11,3,1,0,0,1,46,206,64,1,,,,,,,,
,,,,,,,,,,,,,FF,,,,,,,,0.933,,,,,,,,,,,,,,,,,,,,,,60fc7e0e424b1ce5aa8dd706,610377e4181346162b9b49b9,2021-07-29_23h03.30.623,Simcolourproject_2stim_asymm_v5,2020.2.10,MacIntel,60,61025ae37ef11b136ea224fe,,,,,,,,,3868,-34,-80,1,0,0,response5disk,,3,24,-3,1,0,0,rectangle,24,-3,1,0,0,24,-3,1,0,0,1,47,207,97,1,,,,,,,,
,,,,,,,,,,,,,FF,,,,,,,,0.467,,,,,,,,,,,,,,,,,,,,,,60fc7e0e424b1ce5aa8dd706,610377e4181346162b9b49b9,2021-07-29_23h03.30.623,Simcolourproject_2stim_asymm_v5,2020.2.10,MacIntel,60,61025ae37ef11b136ea224fe,,,,,,,,,2675,96,-51,1,0,0,response3disk,,5,20,0,1,0,0,rectangle,20,0,1,0,0,20,0,1,0,0,1,48,208,59,1,,,,,,,,
,,,,,,,,,,,,,FF,,,,,,,,1.616,,,,,,,,,,,,,,,,,,,,,,60fc7e0e424b1ce5aa8dd706,610377e4181346162b9b49b9,2021-07-29_23h03.30.623,Simcolourproject_2stim_asymm_v5,2020.2.10,MacIntel,60,61025ae37ef11b136ea224fe,,,,,,,,,2301,-74,-45,1,0,0,response5disk,,2,-14,-10,1,0,0,rectangle,-14,-10,1,0,0,-14,-10,1,0,0,1,49,209,7,1,,,,,,,,
,,,,,,,,,,,,,FF,,,,,,,,1.018,,,,,,,,,,,,,,,,,,,,,,60fc7e0e424b1ce5aa8dd706,610377e4181346162b9b49b9,2021-07-29_23h03.30.623,Simcolourproject_2stim_asymm_v5,2020.2.10,MacIntel,60,61025ae37ef11b136ea224fe,,,,,,,,,2253,60,-92,1,0,0,response3disk,,4,19,-3,1,0,0,rectangle,19,-3,1,0,0,19,-3,1,0,0,1,50,210,12,1,,,,,,,,
,,,,,,,,,,,,,FF,,,,,,,,0.867,,,,,,,,,,,,,,,,,,,,,,60fc7e0e424b1ce5aa8dd706,610377e4181346162b9b49b9,2021-07-29_23h03.30.623,Simcolourproject_2stim_asymm_v5,2020.2.10,MacIntel,60,61025ae37ef11b136ea224fe,,,,,,,,,3342,-83,36,1,0,0,response7disk,,1,-16,-3,1,0,0,rectangle,-16,-3,1,0,0,-16,-3,1,0,0,1,51,211,159,1,,,,,,,,
,,,,,,,,,,,,,FF,,,,,,,,0.616,,,,,,,,,,,,,,,,,,,,,,60fc7e0e424b1ce5aa8dd706,610377e4181346162b9b49b9,2021-07-29_23h03.30.623,Simcolourproject_2stim_asymm_v5,2020.2.10,MacIntel,60,61025ae37ef11b136ea224fe,,,,,,,,,516,81,30,1,0,0,response1disk,,6,3,-1,1,0,0,rectangle,3,-1,1,0,0,3,-1,1,0,0,1,52,212,158,1,,,,,,,,
,,,,,,,,,,,,,FF,,,,,,,,0.699,,,,,,,,,,,,,,,,,,,,,,60fc7e0e424b1ce5aa8dd706,610377e4181346162b9b49b9,2021-07-29_23h03.30.623,Simcolourproject_2stim_asymm_v5,2020.2.10,MacIntel,60,61025ae37ef11b136ea224fe,,,,,,,,,2240,81,-60,1,0,0,response3disk,,5,-9,-9,1,0,0,rectangle,-9,-9,1,0,0,-9,-9,1,0,0,1,53,213,137,1,,,,,,,,
,,,,,,,,,,,,,FF,,,,,,,,0.567,,,,,,,,,,,,,,,,,,,,,,60fc7e0e424b1ce5aa8dd706,610377e4181346162b9b49b9,2021-07-29_23h03.30.623,Simcolourproject_2stim_asymm_v5,2020.2.10,MacIntel,60,61025ae37ef11b136ea224fe,,,,,,,,,2626,52,-94,1,0,0,response3disk,,4,-11,-2,1,0,0,rectangle,-11,-2,1,0,0,-11,-2,1,0,0,1,54,214,144,1,,,,,,,,
,,,,,,,,,,,,,FF,,,,,,,,1.417,,,,,,,,,,,,,,,,,,,,,,60fc7e0e424b1ce5aa8dd706,610377e4181346162b9b49b9,2021-07-29_23h03.30.623,Simcolourproject_2stim_asymm_v5,2020.2.10,MacIntel,60,61025ae37ef11b136ea224fe,,,,,,,,,1002,56,104,1,0,0,response1disk,,7,21,5,1,0,0,rectangle,21,5,1,0,0,21,5,1,0,0,1,55,215,89,1,,,,,,,,
,,,,,,,,,,,,,FF,,,,,,,,1.517,,,,,,,,,,,,,,,,,,,,,,60fc7e0e424b1ce5aa8dd706,610377e4181346162b9b49b9,2021-07-29_23h03.30.623,Simcolourproject_2stim_asymm_v5,2020.2.10,MacIntel,60,61025ae37ef11b136ea224fe,,,,,,,,,825,-82,-48,1,0,0,response5disk,,2,3,3,1,0,0,rectangle,3,3,1,0,0,3,3,1,0,0,1,56,216,98,1,,,,,,,,
,,,,,,,,,,,,,FF,,,,,,,,0.817,,,,,,,,,,,,,,,,,,,,,,60fc7e0e424b1ce5aa8dd706,610377e4181346162b9b49b9,2021-07-29_23h03.30.623,Simcolourproject_2stim_asymm_v5,2020.2.10,MacIntel,60,61025ae37ef11b136ea224fe,,,,,,,,,2752,74,-48,1,0,0,response3disk,,5,14,-2,1,0,0,rectangle,14,-2,1,0,0,14,-2,1,0,0,1,57,217,83,1,,,,,,,,
,,,,,,,,,,,,,FF,,,,,,,,0.833,,,,,,,,,,,,,,,,,,,,,,60fc7e0e424b1ce5aa8dd706,610377e4181346162b9b49b9,2021-07-29_23h03.30.623,Simcolourproject_2stim_asymm_v5,2020.2.10,MacIntel,60,61025ae37ef11b136ea224fe,,,,,,,,,2607,-80,39,1,0,0,response7disk,,1,-3,-3,1,0,0,rectangle,-3,-3,1,0,0,-3,-3,1,0,0,1,58,218,41,1,,,,,,,,
,,,,,,,,,,,,,FF,,,,,,,,0.585,,,,,,,,,,,,,,,,,,,,,,60fc7e0e424b1ce5aa8dd706,610377e4181346162b9b49b9,2021-07-29_23h03.30.623,Simcolourproject_2stim_asymm_v5,2020.2.10,MacIntel,60,61025ae37ef11b136ea224fe,,,,,,,,,2423,-73,-52,1,0,0,response5disk,,2,-2,-4,1,0,0,rectangle,-2,-4,1,0,0,-2,-4,1,0,0,1,59,219,122,1,,,,,,,,
,,,,,,,,,,,,,FF,,,,,,,,0.834,,,,,,,,,,,,,,,,,,,,,,60fc7e0e424b1ce5aa8dd706,610377e4181346162b9b49b9,2021-07-29_23h03.30.623,Simcolourproject_2stim_asymm_v5,2020.2.10,MacIntel,60,61025ae37ef11b136ea224fe,,,,,,,,,1973,-47,-77,1,0,0,response5disk,,3,-16,8,1,0,0,rectangle,-16,8,1,0,0,-16,8,1,0,0,1,60,220,143,1,,,,,,,,
,,,,,,,,,,,,,FF,,,,,,,,1.284,,,,,,,,,,,,,,,,,,,,,,60fc7e0e424b1ce5aa8dd706,610377e4181346162b9b49b9,2021-07-29_23h03.30.623,Simcolourproject_2stim_asymm_v5,2020.2.10,MacIntel,60,61025ae37ef11b136ea224fe,,,,,,,,,2005,80,32,1,0,0,response1disk,,6,-12,-1,1,0,0,rectangle,-12,-1,1,0,0,-12,-1,1,0,0,1,61,221,57,1,,,,,,,,
,,,,,,,,,,,,,FF,,,,,,,,2.149,,,,,,,,,,,,,,,,,,,,,,60fc7e0e424b1ce5aa8dd706,610377e4181346162b9b49b9,2021-07-29_23h03.30.623,Simcolourproject_2stim_asymm_v5,2020.2.10,MacIntel,60,61025ae37ef11b136ea224fe,,,,,,,,,1210,33,86,1,0,0,response1disk,,7,15,7,1,0,0,rectangle,15,7,1,0,0,15,7,1,0,0,1,62,222,68,1,,,,,,,,
,,,,,,,,,,,,,FF,,,,,,,,3.785,,,,,,,,,,,,,,,,,,,,,,60fc7e0e424b1ce5aa8dd706,610377e4181346162b9b49b9,2021-07-29_23h03.30.623,Simcolourproject_2stim_asymm_v5,2020.2.10,MacIntel,60,61025ae37ef11b136ea224fe,,,,,,,,,2931,50,-91,1,0,0,response3disk,,4,1,12,1,0,0,rectangle,1,12,1,0,0,1,12,1,0,0,1,63,223,43,1,,,,,,,,
,,,,,,,,,,,,,FF,,,,,,,,1.316,,,,,,,,,,,,,,,,,,,,,,60fc7e0e424b1ce5aa8dd706,610377e4181346162b9b49b9,2021-07-29_23h03.30.623,Simcolourproject_2stim_asymm_v5,2020.2.10,MacIntel,60,61025ae37ef11b136ea224fe,,,,,,,,,3644,-52,-92,1,0,0,response5disk,,3,-24,14,1,0,0,rectangle,-24,14,1,0,0,-24,14,1,0,0,1,64,224,134,1,,,,,,,,
,,,,,,,,,,,,,FF,,,,,,,,0.817,,,,,,,,,,,,,,,,,,,,,,60fc7e0e424b1ce5aa8dd706,610377e4181346162b9b49b9,2021-07-29_23h03.30.623,Simcolourproject_2stim_asymm_v5,2020.2.10,MacIntel,60,61025ae37ef11b136ea224fe,,,,,,,,,1481,58,-52,1,0,0,response3disk,,5,-8,14,1,0,0,rectangle,-8,14,1,0,0,-8,14,1,0,0,1,65,225,2,1,,,,,,,,
,,,,,,,,,,,,,FF,,,,,,,,0.766,,,,,,,,,,,,,,,,,,,,,,60fc7e0e424b1ce5aa8dd706,610377e4181346162b9b49b9,2021-07-29_23h03.30.623,Simcolourproject_2stim_asymm_v5,2020.2.10,MacIntel,60,61025ae37ef11b136ea224fe,,,,,,,,,1937,75,-47,1,0,0,response3disk,,5,20,3,1,0,0,rectangle,20,3,1,0,0,20,3,1,0,0,1,66,226,129,1,,,,,,,,
,,,,,,,,,,,,,FF,,,,,,,,0.467,,,,,,,,,,,,,,,,,,,,,,60fc7e0e424b1ce5aa8dd706,610377e4181346162b9b49b9,2021-07-29_23h03.30.623,Simcolourproject_2stim_asymm_v5,2020.2.10,MacIntel,60,61025ae37ef11b136ea224fe,,,,,,,,,1716,103,34,1,0,0,response1disk,,6,15,-7,1,0,0,rectangle,15,-7,1,0,0,15,-7,1,0,0,1,67,227,79,1,,,,,,,,
,,,,,,,,,,,,,FF,,,,,,,,1.499,,,,,,,,,,,,,,,,,,,,,,60fc7e0e424b1ce5aa8dd706,610377e4181346162b9b49b9,2021-07-29_23h03.30.623,Simcolourproject_2stim_asymm_v5,2020.2.10,MacIntel,60,61025ae37ef11b136ea224fe,,,,,,,,,3801,35,81,1,0,0,response1disk,,7,32,7,1,0,0,rectangle,32,7,1,0,0,32,7,1,0,0,1,68,228,70,1,,,,,,,,
,,,,,,,,,,,,,FF,,,,,,,,1.482,,,,,,,,,,,,,,,,,,,,,,60fc7e0e424b1ce5aa8dd706,610377e4181346162b9b49b9,2021-07-29_23h03.30.623,Simcolourproject_2stim_asymm_v5,2020.2.10,MacIntel,60,61025ae37ef11b136ea224fe,,,,,,,,,3380,60,85,1,0,0,response1disk,,7,31,16,1,0,0,rectangle,31,16,1,0,0,31,16,1,0,0,1,69,229,93,1,,,,,,,,
,,,,,,,,,,,,,FF,,,,,,,,0.784,,,,,,,,,,,,,,,,,,,,,,60fc7e0e424b1ce5aa8dd706,610377e4181346162b9b49b9,2021-07-29_23h03.30.623,Simcolourproject_2stim_asymm_v5,2020.2.10,MacIntel,60,61025ae37ef11b136ea224fe,,,,,,,,,3136,78,36,1,0,0,response1disk,,6,14,5,1,0,0,rectangle,-39,91,1,0,0,-2,-14,1,0,0,1,70,230,152,1,,response7disk_3,TRUE,0,0,"[69,115,0,283,242,10,148,105,247,144,63,117,76,85,171,105,153,231,91,23]",1.383,rectangle
,,,,,,,,,,,,,FF,,,,,,,,2.349,,,,,,,,,,,,,,,,,,,,,,60fc7e0e424b1ce5aa8dd706,610377e4181346162b9b49b9,2021-07-29_23h03.30.623,Simcolourproject_2stim_asymm_v5,2020.2.10,MacIntel,60,61025ae37ef11b136ea224fe,,,,,,,,,3720,52,-91,1,0,0,response3disk,,4,1,-6,1,0,0,rectangle,1,-6,1,0,0,1,-6,1,0,0,1,71,231,42,1,,,,,,,,
,,,,,,,,,,,,,FF,,,,,,,,0.816,,,,,,,,,,,,,,,,,,,,,,60fc7e0e424b1ce5aa8dd706,610377e4181346162b9b49b9,2021-07-29_23h03.30.623,Simcolourproject_2stim_asymm_v5,2020.2.10,MacIntel,60,61025ae37ef11b136ea224fe,,,,,,,,,1378,35,-64,1,0,0,response3disk,,4,16,-15,1,0,0,rectangle,16,-15,1,0,0,16,-15,1,0,0,1,72,232,116,1,,,,,,,,
,,,,,,,,,,,,,FF,,,,,,,,0.684,,,,,,,,,,,,,,,,,,,,,,60fc7e0e424b1ce5aa8dd706,610377e4181346162b9b49b9,2021-07-29_23h03.30.623,Simcolourproject_2stim_asymm_v5,2020.2.10,MacIntel,60,61025ae37ef11b136ea224fe,,,,,,,,,1257,73,-79,1,0,0,response3disk,,4,22,10,1,0,0,rectangle,22,10,1,0,0,22,10,1,0,0,1,73,233,77,1,,,,,,,,
,,,,,,,,,,,,,FF,,,,,,,,1.15,,,,,,,,,,,,,,,,,,,,,,60fc7e0e424b1ce5aa8dd706,610377e4181346162b9b49b9,2021-07-29_23h03.30.623,Simcolourproject_2stim_asymm_v5,2020.2.10,MacIntel,60,61025ae37ef11b136ea224fe,,,,,,,,,1373,98,-50,1,0,0,response3disk,,5,5,0,1,0,0,rectangle,5,0,1,0,0,5,0,1,0,0,1,74,234,109,1,,,,,,,,
,,,,,,,,,,,,,FF,,,,,,,,0.817,,,,,,,,,,,,,,,,,,,,,,60fc7e0e424b1ce5aa8dd706,610377e4181346162b9b49b9,2021-07-29_23h03.30.623,Simcolourproject_2stim_asymm_v5,2020.2.10,MacIntel,60,61025ae37ef11b136ea224fe,,,,,,,,,3770,-44,-72,1,0,0,response5disk,,3,2,-1,1,0,0,rectangle,2,-1,1,0,0,2,-1,1,0,0,1,75,235,24,1,,,,,,,,
,,,,,,,,,,,,,FF,,,,,,,,0.951,,,,,,,,,,,,,,,,,,,,,,60fc7e0e424b1ce5aa8dd706,610377e4181346162b9b49b9,2021-07-29_23h03.30.623,Simcolourproject_2stim_asymm_v5,2020.2.10,MacIntel,60,61025ae37ef11b136ea224fe,,,,,,,,,1051,-69,32,1,0,0,response7disk,,1,3,2,1,0,0,rectangle,3,2,1,0,0,3,2,1,0,0,1,76,236,133,1,,,,,,,,
,,,,,,,,,,,,,FF,,,,,,,,1,,,,,,,,,,,,,,,,,,,,,,60fc7e0e424b1ce5aa8dd706,610377e4181346162b9b49b9,2021-07-29_23h03.30.623,Simcolourproject_2stim_asymm_v5,2020.2.10,MacIntel,60,61025ae37ef11b136ea224fe,,,,,,,,,621,-70,33,1,0,0,response7disk,,1,9,-3,1,0,0,rectangle,9,-3,1,0,0,9,-3,1,0,0,1,77,237,52,1,,,,,,,,
,,,,,,,,,,,,,FF,,,,,,,,1.05,,,,,,,,,,,,,,,,,,,,,,60fc7e0e424b1ce5aa8dd706,610377e4181346162b9b49b9,2021-07-29_23h03.30.623,Simcolourproject_2stim_asymm_v5,2020.2.10,MacIntel,60,61025ae37ef11b136ea224fe,,,,,,,,,3293,-72,-38,1,0,0,response5disk,,2,-19,-10,1,0,0,rectangle,-19,-10,1,0,0,-19,-10,1,0,0,1,78,238,94,1,,,,,,,,
,,,,,,,,,,,,,FF,,,,,,,,1.033,,,,,,,,,,,,,,,,,,,,,,60fc7e0e424b1ce5aa8dd706,610377e4181346162b9b49b9,2021-07-29_23h03.30.623,Simcolourproject_2stim_asymm_v5,2020.2.10,MacIntel,60,61025ae37ef11b136ea224fe,,,,,,,,,954,-71,-43,1,0,0,response5disk,,2,9,-1,1,0,0,rectangle,9,-1,1,0,0,9,-1,1,0,0,1,79,239,123,1,,,,,,,,
,,,,,,,,,,,,,FF,,,,,,,,0.618,,,,,,,,,,,,,,,,,,,,,,60fc7e0e424b1ce5aa8dd706,610377e4181346162b9b49b9,2021-07-29_23h03.30.623,Simcolourproject_2stim_asymm_v5,2020.2.10,MacIntel,60,61025ae37ef11b136ea224fe,,,,,,,,,2601,-28,89,1,0,0,response7disk,,0,3,4,1,0,0,rectangle,3,4,1,0,0,3,4,1,0,0,1,80,240,121,1,,,,,,,,
,,,,,,,,,,,,,FF,,,,,,,,2.016,,,,,,,,,,,,,,,,,,,,,,60fc7e0e424b1ce5aa8dd706,610377e4181346162b9b49b9,2021-07-29_23h03.30.623,Simcolourproject_2stim_asymm_v5,2020.2.10,MacIntel,60,61025ae37ef11b136ea224fe,,,,,,,,,1271,91,-23,1,0,0,response3disk,,5,-21,0,1,0,0,rectangle,39,100,1,0,0,11,3,1,0,0,1,81,241,81,1,,response1disk_3,TRUE,7,7,"[69,115,0,283,242,10,148,105,247,144,63,117,76,85,171,105,153,231,91,23]",1.134,rectangle
,,,,,,,,,,,,,FF,,,,,,,,0.983,,,,,,,,,,,,,,,,,,,,,,60fc7e0e424b1ce5aa8dd706,610377e4181346162b9b49b9,2021-07-29_23h03.30.623,Simcolourproject_2stim_asymm_v5,2020.2.10,MacIntel,60,61025ae37ef11b136ea224fe,,,,,,,,,4135,67,31,1,0,0,response1disk,,6,-3,5,1,0,0,rectangle,-3,5,1,0,0,-3,5,1,0,0,1,82,242,141,1,,,,,,,,
,,,,,,,,,,,,,FF,,,,,,,,1.5,,,,,,,,,,,,,,,,,,,,,,60fc7e0e424b1ce5aa8dd706,610377e4181346162b9b49b9,2021-07-29_23h03.30.623,Simcolourproject_2stim_asymm_v5,2020.2.10,MacIntel,60,61025ae37ef11b136ea224fe,,,,,,,,,2252,70,42,1,0,0,response1disk,,6,13,-2,1,0,0,rectangle,13,-2,1,0,0,13,-2,1,0,0,1,83,243,28,1,,,,,,,,
,,,,,,,,,,,,,FF,,,,,,,,0.984,,,,,,,,,,,,,,,,,,,,,,60fc7e0e424b1ce5aa8dd706,610377e4181346162b9b49b9,2021-07-29_23h03.30.623,Simcolourproject_2stim_asymm_v5,2020.2.10,MacIntel,60,61025ae37ef11b136ea224fe,,,,,,,,,2655,77,-53,1,0,0,response3disk,,5,-6,-1,1,0,0,rectangle,-6,-1,1,0,0,-6,-1,1,0,0,1,84,244,110,1,,,,,,,,
,,,,,,,,,,,,,FF,,,,,,,,0.732,,,,,,,,,,,,,,,,,,,,,,60fc7e0e424b1ce5aa8dd706,610377e4181346162b9b49b9,2021-07-29_23h03.30.623,Simcolourproject_2stim_asymm_v5,2020.2.10,MacIntel,60,61025ae37ef11b136ea224fe,,,,,,,,,2724,-67,-29,1,0,0,response5disk,,2,5,-8,1,0,0,rectangle,5,-8,1,0,0,5,-8,1,0,0,1,85,245,150,1,,,,,,,,
,,,,,,,,,,,,,FF,,,,,,,,1.182,,,,,,,,,,,,,,,,,,,,,,60fc7e0e424b1ce5aa8dd706,610377e4181346162b9b49b9,2021-07-29_23h03.30.623,Simcolourproject_2stim_asymm_v5,2020.2.10,MacIntel,60,61025ae37ef11b136ea224fe,,,,,,,,,2502,96,-55,1,0,0,response3disk,,5,0,-3,1,0,0,rectangle,-45,-100,1,0,0,-4,8,1,0,0,1,86,246,19,1,,response5disk_3,TRUE,3,3,"[69,115,0,283,242,10,148,105,247,144,63,117,76,85,171,105,153,231,91,23]",1.701,rectangle
,,,,,,,,,,,,,FF,,,,,,,,0.934,,,,,,,,,,,,,,,,,,,,,,60fc7e0e424b1ce5aa8dd706,610377e4181346162b9b49b9,2021-07-29_23h03.30.623,Simcolourproject_2stim_asymm_v5,2020.2.10,MacIntel,60,61025ae37ef11b136ea224fe,,,,,,,,,4354,-75,45,1,0,0,response7disk,,1,4,-7,1,0,0,rectangle,4,-7,1,0,0,4,-7,1,0,0,1,87,247,146,1,,,,,,,,
,,,,,,,,,,,,,FF,,,,,,,,0.833,,,,,,,,,,,,,,,,,,,,,,60fc7e0e424b1ce5aa8dd706,610377e4181346162b9b49b9,2021-07-29_23h03.30.623,Simcolourproject_2stim_asymm_v5,2020.2.10,MacIntel,60,61025ae37ef11b136ea224fe,,,,,,,,,3262,78,49,1,0,0,response1disk,,6,-11,-11,1,0,0,rectangle,-11,-11,1,0,0,-11,-11,1,0,0,1,88,248,85,1,,,,,,,,
,,,,,,,,,,,,,FF,,,,,,,,1.182,,,,,,,,,,,,,,,,,,,,,,60fc7e0e424b1ce5aa8dd706,610377e4181346162b9b49b9,2021-07-29_23h03.30.623,Simcolourproject_2stim_asymm_v5,2020.2.10,MacIntel,60,61025ae37ef11b136ea224fe,,,,,,,,,3895,92,43,1,0,0,response1disk,,6,-6,5,1,0,0,rectangle,-6,5,1,0,0,-6,5,1,0,0,1,89,249,138,1,,,,,,,,
,,,,,,,,,,,,,FF,,,,,,,,1.067,,,,,,,,,,,,,,,,,,,,,,60fc7e0e424b1ce5aa8dd706,610377e4181346162b9b49b9,2021-07-29_23h03.30.623,Simcolourproject_2stim_asymm_v5,2020.2.10,MacIntel,60,61025ae37ef11b136ea224fe,,,,,,,,,732,61,-42,1,0,0,response3disk,,5,2,-2,1,0,0,rectangle,2,-2,1,0,0,2,-2,1,0,0,1,90,250,29,1,,,,,,,,
,,,,,,,,,,,,,FF,,,,,,,,0.933,,,,,,,,,,,,,,,,,,,,,,60fc7e0e424b1ce5aa8dd706,610377e4181346162b9b49b9,2021-07-29_23h03.30.623,Simcolourproject_2stim_asymm_v5,2020.2.10,MacIntel,60,61025ae37ef11b136ea224fe,,,,,,,,,3876,-72,43,1,0,0,response7disk,,1,-7,1,1,0,0,rectangle,-7,1,1,0,0,-7,1,1,0,0,1,91,251,74,1,,,,,,,,
,,,,,,,,,,,,,FF,,,,,,,,1.166,,,,,,,,,,,,,,,,,,,,,,60fc7e0e424b1ce5aa8dd706,610377e4181346162b9b49b9,2021-07-29_23h03.30.623,Simcolourproject_2stim_asymm_v5,2020.2.10,MacIntel,60,61025ae37ef11b136ea224fe,,,,,,,,,2405,49,86,1,0,0,response1disk,,7,14,7,1,0,0,rectangle,14,7,1,0,0,14,7,1,0,0,1,92,252,8,1,,,,,,,,
,,,,,,,,,,,,,FF,,,,,,,,0.816,,,,,,,,,,,,,,,,,,,,,,60fc7e0e424b1ce5aa8dd706,610377e4181346162b9b49b9,2021-07-29_23h03.30.623,Simcolourproject_2stim_asymm_v5,2020.2.10,MacIntel,60,61025ae37ef11b136ea224fe,,,,,,,,,32,78,41,1,0,0,response1disk,,6,0,8,1,0,0,rectangle,0,8,1,0,0,0,8,1,0,0,1,93,253,126,1,,,,,,,,
,,,,,,,,,,,,,FF,,,,,,,,0.749,,,,,,,,,,,,,,,,,,,,,,60fc7e0e424b1ce5aa8dd706,610377e4181346162b9b49b9,2021-07-29_23h03.30.623,Simcolourproject_2stim_asymm_v5,2020.2.10,MacIntel,60,61025ae37ef11b136ea224fe,,,,,,,,,699,53,88,1,0,0,response1disk,,7,13,-3,1,0,0,rectangle,13,-3,1,0,0,13,-3,1,0,0,1,94,254,58,1,,,,,,,,
,,,,,,,,,,,,,FF,,,,,,,,0.784,,,,,,,,,,,,,,,,,,,,,,60fc7e0e424b1ce5aa8dd706,610377e4181346162b9b49b9,2021-07-29_23h03.30.623,Simcolourproject_2stim_asymm_v5,2020.2.10,MacIntel,60,61025ae37ef11b136ea224fe,,,,,,,,,3900,-63,-65,1,0,0,response5disk,,3,13,14,1,0,0,rectangle,13,14,1,0,0,13,14,1,0,0,1,95,255,46,1,,,,,,,,
,,,,,,,,,,,,,FF,,,,,,,,1.066,,,,,,,,,,,,,,,,,,,,,,60fc7e0e424b1ce5aa8dd706,610377e4181346162b9b49b9,2021-07-29_23h03.30.623,Simcolourproject_2stim_asymm_v5,2020.2.10,MacIntel,60,61025ae37ef11b136ea224fe,,,,,,,,,3574,66,-59,1,0,0,response3disk,,5,-2,-12,1,0,0,rectangle,-2,-12,1,0,0,-2,-12,1,0,0,1,96,256,18,1,,,,,,,,
,,,,,,,,,,,,,FF,,,,,,,,0.951,,,,,,,,,,,,,,,,,,,,,,60fc7e0e424b1ce5aa8dd706,610377e4181346162b9b49b9,2021-07-29_23h03.30.623,Simcolourproject_2stim_asymm_v5,2020.2.10,MacIntel,60,61025ae37ef11b136ea224fe,,,,,,,,,3829,99,-62,1,0,0,response3disk,,5,-12,-5,1,0,0,rectangle,-12,-5,1,0,0,-12,-5,1,0,0,1,97,257,14,1,,,,,,,,
,,,,,,,,,,,,,FF,,,,,,,,0.9,,,,,,,,,,,,,,,,,,,,,,60fc7e0e424b1ce5aa8dd706,610377e4181346162b9b49b9,2021-07-29_23h03.30.623,Simcolourproject_2stim_asymm_v5,2020.2.10,MacIntel,60,61025ae37ef11b136ea224fe,,,,,,,,,3383,-76,46,1,0,0,response7disk,,1,-5,-2,1,0,0,rectangle,-5,-2,1,0,0,-5,-2,1,0,0,1,98,258,31,1,,,,,,,,
,,,,,,,,,,,,,FF,,,,,,,,1.266,,,,,,,,,,,,,,,,,,,,,,60fc7e0e424b1ce5aa8dd706,610377e4181346162b9b49b9,2021-07-29_23h03.30.623,Simcolourproject_2stim_asymm_v5,2020.2.10,MacIntel,60,61025ae37ef11b136ea224fe,,,,,,,,,2180,89,-34,1,0,0,response3disk,,5,-8,3,1,0,0,rectangle,-8,3,1,0,0,-8,3,1,0,0,1,99,259,131,1,,,,,,,,
,,,,,,,,,,,,,FF,,,,,,,,0.916,,,,,,,,,,,,,,,,,,,,,,60fc7e0e424b1ce5aa8dd706,610377e4181346162b9b49b9,2021-07-29_23h03.30.623,Simcolourproject_2stim_asymm_v5,2020.2.10,MacIntel,60,61025ae37ef11b136ea224fe,,,,,,,,,1491,35,97,1,0,0,response1disk,,7,22,-3,1,0,0,rectangle,22,-3,1,0,0,22,-3,1,0,0,1,100,260,76,1,,,,,,,,
,,,,,,,,,,,,,FF,,,,,,,,1.001,,,,,,,,,,,,,,,,,,,,,,60fc7e0e424b1ce5aa8dd706,610377e4181346162b9b49b9,2021-07-29_23h03.30.623,Simcolourproject_2stim_asymm_v5,2020.2.10,MacIntel,60,61025ae37ef11b136ea224fe,,,,,,,,,4059,-48,-94,1,0,0,response5disk,,3,-15,5,1,0,0,rectangle,-15,5,1,0,0,-15,5,1,0,0,1,101,261,103,1,,,,,,,,
,,,,,,,,,,,,,FF,,,,,,,,1.051,,,,,,,,,,,,,,,,,,,,,,60fc7e0e424b1ce5aa8dd706,610377e4181346162b9b49b9,2021-07-29_23h03.30.623,Simcolourproject_2stim_asymm_v5,2020.2.10,MacIntel,60,61025ae37ef11b136ea224fe,,,,,,,,,1411,52,88,1,0,0,response1disk,,7,15,3,1,0,0,rectangle,15,3,1,0,0,15,3,1,0,0,1,102,262,17,1,,,,,,,,
,,,,,,,,,,,,,FF,,,,,,,,0.916,,,,,,,,,,,,,,,,,,,,,,60fc7e0e424b1ce5aa8dd706,610377e4181346162b9b49b9,2021-07-29_23h03.30.623,Simcolourproject_2stim_asymm_v5,2020.2.10,MacIntel,60,61025ae37ef11b136ea224fe,,,,,,,,,2864,52,81,1,0,0,response1disk,,7,20,11,1,0,0,rectangle,20,11,1,0,0,20,11,1,0,0,1,103,263,154,1,,,,,,,,
,,,,,,,,,,,,,FF,,,,,,,,0.666,,,,,,,,,,,,,,,,,,,,,,60fc7e0e424b1ce5aa8dd706,610377e4181346162b9b49b9,2021-07-29_23h03.30.623,Simcolourproject_2stim_asymm_v5,2020.2.10,MacIntel,60,61025ae37ef11b136ea224fe,,,,,,,,,1090,41,100,1,0,0,response1disk,,7,7,-1,1,0,0,rectangle,7,-1,1,0,0,7,-1,1,0,0,1,104,264,147,1,,,,,,,,
,,,,,,,,,,,,,FF,,,,,,,,1.766,,,,,,,,,,,,,,,,,,,,,,60fc7e0e424b1ce5aa8dd706,610377e4181346162b9b49b9,2021-07-29_23h03.30.623,Simcolourproject_2stim_asymm_v5,2020.2.10,MacIntel,60,61025ae37ef11b136ea224fe,,,,,,,,,1122,-75,33,1,0,0,response7disk,,1,-21,2,1,0,0,rectangle,-21,2,1,0,0,-21,2,1,0,0,1,105,265,140,1,,,,,,,,
,,,,,,,,,,,,,FF,,,,,,,,0.849,,,,,,,,,,,,,,,,,,,,,,60fc7e0e424b1ce5aa8dd706,610377e4181346162b9b49b9,2021-07-29_23h03.30.623,Simcolourproject_2stim_asymm_v5,2020.2.10,MacIntel,60,61025ae37ef11b136ea224fe,,,,,,,,,275,-62,40,1,0,0,response7disk,,1,-23,7,1,0,0,rectangle,-23,7,1,0,0,-23,7,1,0,0,1,106,266,3,1,,,,,,,,
,,,,,,,,,,,,,FF,,,,,,,,1.25,,,,,,,,,,,,,,,,,,,,,,60fc7e0e424b1ce5aa8dd706,610377e4181346162b9b49b9,2021-07-29_23h03.30.623,Simcolourproject_2stim_asymm_v5,2020.2.10,MacIntel,60,61025ae37ef11b136ea224fe,,,,,,,,,4288,91,56,1,0,0,response1disk,,6,2,5,1,0,0,rectangle,2,5,1,0,0,2,5,1,0,0,1,107,267,50,1,,,,,,,,
,,,,,,,,,,,,,FF,,,,,,,,0.966,,,,,,,,,,,,,,,,,,,,,,60fc7e0e424b1ce5aa8dd706,610377e4181346162b9b49b9,2021-07-29_23h03.30.623,Simcolourproject_2stim_asymm_v5,2020.2.10,MacIntel,60,61025ae37ef11b136ea224fe,,,,,,,,,1101,53,92,1,0,0,response1disk,,7,11,2,1,0,0,rectangle,11,2,1,0,0,11,2,1,0,0,1,108,268,156,1,,,,,,,,
,,,,,,,,,,,,,FF,,,,,,,,1.984,,,,,,,,,,,,,,,,,,,,,,60fc7e0e424b1ce5aa8dd706,610377e4181346162b9b49b9,2021-07-29_23h03.30.623,Simcolourproject_2stim_asymm_v5,2020.2.10,MacIntel,60,61025ae37ef11b136ea224fe,,,,,,,,,1317,-33,-85,1,0,0,response5disk,,3,10,0,1,0,0,rectangle,10,0,1,0,0,10,0,1,0,0,1,109,269,44,1,,,,,,,,
,,,,,,,,,,,,,FF,,,,,,,,0.751,,,,,,,,,,,,,,,,,,,,,,60fc7e0e424b1ce5aa8dd706,610377e4181346162b9b49b9,2021-07-29_23h03.30.623,Simcolourproject_2stim_asymm_v5,2020.2.10,MacIntel,60,61025ae37ef11b136ea224fe,,,,,,,,,1628,83,-44,1,0,0,response3disk,,5,2,2,1,0,0,rectangle,2,2,1,0,0,2,2,1,0,0,1,110,270,40,1,,,,,,,,
,,,,,,,,,,,,,FF,,,,,,,,0.884,,,,,,,,,,,,,,,,,,,,,,60fc7e0e424b1ce5aa8dd706,610377e4181346162b9b49b9,2021-07-29_23h03.30.623,Simcolourproject_2stim_asymm_v5,2020.2.10,MacIntel,60,61025ae37ef11b136ea224fe,,,,,,,,,2145,88,31,1,0,0,response1disk,,6,19,-4,1,0,0,rectangle,19,-4,1,0,0,19,-4,1,0,0,1,111,271,0,1,,,,,,,,
,,,,,,,,,,,,,FF,,,,,,,,0.516,,,,,,,,,,,,,,,,,,,,,,60fc7e0e424b1ce5aa8dd706,610377e4181346162b9b49b9,2021-07-29_23h03.30.623,Simcolourproject_2stim_asymm_v5,2020.2.10,MacIntel,60,61025ae37ef11b136ea224fe,,,,,,,,,449,71,-47,1,0,0,response3disk,,5,-12,-12,1,0,0,rectangle,-12,-12,1,0,0,-12,-12,1,0,0,1,112,272,88,1,,,,,,,,
,,,,,,,,,,,,,FF,,,,,,,,0.715,,,,,,,,,,,,,,,,,,,,,,60fc7e0e424b1ce5aa8dd706,610377e4181346162b9b49b9,2021-07-29_23h03.30.623,Simcolourproject_2stim_asymm_v5,2020.2.10,MacIntel,60,61025ae37ef11b136ea224fe,,,,,,,,,810,-50,-73,1,0,0,response5disk,,3,-27,8,1,0,0,rectangle,-27,8,1,0,0,-27,8,1,0,0,1,113,273,61,1,,,,,,,,
,,,,,,,,,,,,,FF,,,,,,,,0.8,,,,,,,,,,,,,,,,,,,,,,60fc7e0e424b1ce5aa8dd706,610377e4181346162b9b49b9,2021-07-29_23h03.30.623,Simcolourproject_2stim_asymm_v5,2020.2.10,MacIntel,60,61025ae37ef11b136ea224fe,,,,,,,,,3643,42,-92,1,0,0,response3disk,,4,4,1,1,0,0,rectangle,4,1,1,0,0,4,1,1,0,0,1,114,274,4,1,,,,,,,,
,,,,,,,,,,,,,FF,,,,,,,,0.6,,,,,,,,,,,,,,,,,,,,,,60fc7e0e424b1ce5aa8dd706,610377e4181346162b9b49b9,2021-07-29_23h03.30.623,Simcolourproject_2stim_asymm_v5,2020.2.10,MacIntel,60,61025ae37ef11b136ea224fe,,,,,,,,,2872,89,-33,1,0,0,response3disk,,5,16,8,1,0,0,rectangle,16,8,1,0,0,16,8,1,0,0,1,115,275,128,1,,,,,,,,
,,,,,,,,,,,,,FF,,,,,,,,1.202,,,,,,,,,,,,,,,,,,,,,,60fc7e0e424b1ce5aa8dd706,610377e4181346162b9b49b9,2021-07-29_23h03.30.623,Simcolourproject_2stim_asymm_v5,2020.2.10,MacIntel,60,61025ae37ef11b136ea224fe,,,,,,,,,750,44,92,1,0,0,response1disk,,7,27,-4,1,0,0,rectangle,27,-4,1,0,0,27,-4,1,0,0,1,116,276,100,1,,,,,,,,
,,,,,,,,,,,,,FF,,,,,,,,0.767,,,,,,,,,,,,,,,,,,,,,,60fc7e0e424b1ce5aa8dd706,610377e4181346162b9b49b9,2021-07-29_23h03.30.623,Simcolourproject_2stim_asymm_v5,2020.2.10,MacIntel,60,61025ae37ef11b136ea224fe,,,,,,,,,423,-70,-44,1,0,0,response5disk,,2,-20,6,1,0,0,rectangle,-20,6,1,0,0,-20,6,1,0,0,1,117,277,111,1,,,,,,,,
,,,,,,,,,,,,,FF,,,,,,,,0.567,,,,,,,,,,,,,,,,,,,,,,60fc7e0e424b1ce5aa8dd706,610377e4181346162b9b49b9,2021-07-29_23h03.30.623,Simcolourproject_2stim_asymm_v5,2020.2.10,MacIntel,60,61025ae37ef11b136ea224fe,,,,,,,,,253,-67,-40,1,0,0,response5disk,,2,14,5,1,0,0,rectangle,14,5,1,0,0,14,5,1,0,0,1,118,278,38,1,,,,,,,,
,,,,,,,,,,,,,FF,,,,,,,,1.15,,,,,,,,,,,,,,,,,,,,,,60fc7e0e424b1ce5aa8dd706,610377e4181346162b9b49b9,2021-07-29_23h03.30.623,Simcolourproject_2stim_asymm_v5,2020.2.10,MacIntel,60,61025ae37ef11b136ea224fe,,,,,,,,,4086,-84,49,1,0,0,response7disk,,1,5,-3,1,0,0,rectangle,5,-3,1,0,0,5,-3,1,0,0,1,119,279,33,1,,,,,,,,
,,,,,,,,,,,,,FF,,,,,,,,1.233,,,,,,,,,,,,,,,,,,,,,,60fc7e0e424b1ce5aa8dd706,610377e4181346162b9b49b9,2021-07-29_23h03.30.623,Simcolourproject_2stim_asymm_v5,2020.2.10,MacIntel,60,61025ae37ef11b136ea224fe,,,,,,,,,3458,38,100,1,0,0,response1disk,,7,16,1,1,0,0,rectangle,16,1,1,0,0,16,1,1,0,0,1,120,280,54,1,,,,,,,,
,,,,,,,,,,,,,FF,,,,,,,,1.15,,,,,,,,,,,,,,,,,,,,,,60fc7e0e424b1ce5aa8dd706,610377e4181346162b9b49b9,2021-07-29_23h03.30.623,Simcolourproject_2stim_asymm_v5,2020.2.10,MacIntel,60,61025ae37ef11b136ea224fe,,,,,,,,,471,60,-39,1,0,0,response3disk,,5,10,11,1,0,0,rectangle,10,11,1,0,0,10,11,1,0,0,1,121,281,118,1,,,,,,,,
,,,,,,,,,,,,,FF,,,,,,,,1.15,,,,,,,,,,,,,,,,,,,,,,60fc7e0e424b1ce5aa8dd706,610377e4181346162b9b49b9,2021-07-29_23h03.30.623,Simcolourproject_2stim_asymm_v5,2020.2.10,MacIntel,60,61025ae37ef11b136ea224fe,,,,,,,,,4258,48,113,1,0,0,response1disk,,7,9,3,1,0,0,rectangle,95,-60,1,0,0,6,-10,1,0,0,1,122,282,78,1,,response3disk_3,TRUE,5,5,"[69,115,0,283,242,10,148,105,247,144,63,117,76,85,171,105,153,231,91,23]",1.35,rectangle
,,,,,,,,,,,,,FF,,,,,,,,0.633,,,,,,,,,,,,,,,,,,,,,,60fc7e0e424b1ce5aa8dd706,610377e4181346162b9b49b9,2021-07-29_23h03.30.623,Simcolourproject_2stim_asymm_v5,2020.2.10,MacIntel,60,61025ae37ef11b136ea224fe,,,,,,,,,673,97,-54,1,0,0,response3disk,,5,16,-8,1,0,0,rectangle,16,-8,1,0,0,16,-8,1,0,0,1,123,283,75,1,,,,,,,,
,,,,,,,,,,,,,FF,,,,,,,,0.8,,,,,,,,,,,,,,,,,,,,,,60fc7e0e424b1ce5aa8dd706,610377e4181346162b9b49b9,2021-07-29_23h03.30.623,Simcolourproject_2stim_asymm_v5,2020.2.10,MacIntel,60,61025ae37ef11b136ea224fe,,,,,,,,,241,83,50,1,0,0,response1disk,,6,-6,11,1,0,0,rectangle,-6,11,1,0,0,-6,11,1,0,0,1,124,284,22,1,,,,,,,,
,,,,,,,,,,,,,FF,,,,,,,,0.75,,,,,,,,,,,,,,,,,,,,,,60fc7e0e424b1ce5aa8dd706,610377e4181346162b9b49b9,2021-07-29_23h03.30.623,Simcolourproject_2stim_asymm_v5,2020.2.10,MacIntel,60,61025ae37ef11b136ea224fe,,,,,,,,,2921,84,-47,1,0,0,response3disk,,5,-3,-10,1,0,0,rectangle,-3,-10,1,0,0,-3,-10,1,0,0,1,125,285,106,1,,,,,,,,
,,,,,,,,,,,,,FF,,,,,,,,0.85,,,,,,,,,,,,,,,,,,,,,,60fc7e0e424b1ce5aa8dd706,610377e4181346162b9b49b9,2021-07-29_23h03.30.623,Simcolourproject_2stim_asymm_v5,2020.2.10,MacIntel,60,61025ae37ef11b136ea224fe,,,,,,,,,593,49,82,1,0,0,response1disk,,7,15,-2,1,0,0,rectangle,15,-2,1,0,0,15,-2,1,0,0,1,126,286,136,1,,,,,,,,
,,,,,,,,,,,,,FF,,,,,,,,1.067,,,,,,,,,,,,,,,,,,,,,,60fc7e0e424b1ce5aa8dd706,610377e4181346162b9b49b9,2021-07-29_23h03.30.623,Simcolourproject_2stim_asymm_v5,2020.2.10,MacIntel,60,61025ae37ef11b136ea224fe,,,,,,,,,1420,-51,-102,1,0,0,response5disk,,3,-15,-5,1,0,0,rectangle,-15,-5,1,0,0,-15,-5,1,0,0,1,127,287,23,1,,,,,,,,
,,,,,,,,,,,,,FF,,,,,,,,0.684,,,,,,,,,,,,,,,,,,,,,,60fc7e0e424b1ce5aa8dd706,610377e4181346162b9b49b9,2021-07-29_23h03.30.623,Simcolourproject_2stim_asymm_v5,2020.2.10,MacIntel,60,61025ae37ef11b136ea224fe,,,,,,,,,82,-53,-82,1,0,0,response5disk,,3,-5,-11,1,0,0,rectangle,-5,-11,1,0,0,-5,-11,1,0,0,1,128,288,115,1,,,,,,,,
,,,,,,,,,,,,,FF,,,,,,,,0.7,,,,,,,,,,,,,,,,,,,,,,60fc7e0e424b1ce5aa8dd706,610377e4181346162b9b49b9,2021-07-29_23h03.30.623,Simcolourproject_2stim_asymm_v5,2020.2.10,MacIntel,60,61025ae37ef11b136ea224fe,,,,,,,,,3820,-57,-63,1,0,0,response5disk,,3,-7,-2,1,0,0,rectangle,-7,-2,1,0,0,-7,-2,1,0,0,1,129,289,104,1,,,,,,,,
,,,,,,,,,,,,,FF,,,,,,,,1.134,,,,,,,,,,,,,,,,,,,,,,60fc7e0e424b1ce5aa8dd706,610377e4181346162b9b49b9,2021-07-29_23h03.30.623,Simcolourproject_2stim_asymm_v5,2020.2.10,MacIntel,60,61025ae37ef11b136ea224fe,,,,,,,,,265,-77,-36,1,0,0,response5disk,,2,-5,-8,1,0,0,rectangle,-5,-8,1,0,0,-5,-8,1,0,0,1,130,290,72,1,,,,,,,,
,,,,,,,,,,,,,FF,,,,,,,,0.749,,,,,,,,,,,,,,,,,,,,,,60fc7e0e424b1ce5aa8dd706,610377e4181346162b9b49b9,2021-07-29_23h03.30.623,Simcolourproject_2stim_asymm_v5,2020.2.10,MacIntel,60,61025ae37ef11b136ea224fe,,,,,,,,,3812,-68,-41,1,0,0,response5disk,,2,0,-7,1,0,0,rectangle,0,-7,1,0,0,0,-7,1,0,0,1,131,291,148,1,,,,,,,,
,,,,,,,,,,,,,FF,,,,,,,,0.75,,,,,,,,,,,,,,,,,,,,,,60fc7e0e424b1ce5aa8dd706,610377e4181346162b9b49b9,2021-07-29_23h03.30.623,Simcolourproject_2stim_asymm_v5,2020.2.10,MacIntel,60,61025ae37ef11b136ea224fe,,,,,,,,,3057,-68,31,1,0,0,response7disk,,1,11,-4,1,0,0,rectangle,11,-4,1,0,0,11,-4,1,0,0,1,132,292,36,1,,,,,,,,
,,,,,,,,,,,,,FF,,,,,,,,0.966,,,,,,,,,,,,,,,,,,,,,,60fc7e0e424b1ce5aa8dd706,610377e4181346162b9b49b9,2021-07-29_23h03.30.623,Simcolourproject_2stim_asymm_v5,2020.2.10,MacIntel,60,61025ae37ef11b136ea224fe,,,,,,,,,2538,91,29,1,0,0,response1disk,,6,20,14,1,0,0,rectangle,20,14,1,0,0,20,14,1,0,0,1,133,293,35,1,,,,,,,,
,,,,,,,,,,,,,FF,,,,,,,,0.649,,,,,,,,,,,,,,,,,,,,,,60fc7e0e424b1ce5aa8dd706,610377e4181346162b9b49b9,2021-07-29_23h03.30.623,Simcolourproject_2stim_asymm_v5,2020.2.10,MacIntel,60,61025ae37ef11b136ea224fe,,,,,,,,,1815,-43,85,1,0,0,response7disk,,0,10,-10,1,0,0,rectangle,10,-10,1,0,0,10,-10,1,0,0,1,134,294,73,1,,,,,,,,
,,,,,,,,,,,,,FF,,,,,,,,2.151,,,,,,,,,,,,,,,,,,,,,,60fc7e0e424b1ce5aa8dd706,610377e4181346162b9b49b9,2021-07-29_23h03.30.623,Simcolourproject_2stim_asymm_v5,2020.2.10,MacIntel,60,61025ae37ef11b136ea224fe,,,,,,,,,3132,88,-43,1,0,0,response3disk,,5,9,4,1,0,0,rectangle,9,4,1,0,0,9,4,1,0,0,1,135,295,127,1,,,,,,,,
,,,,,,,,,,,,,FF,,,,,,,,1.134,,,,,,,,,,,,,,,,,,,,,,60fc7e0e424b1ce5aa8dd706,610377e4181346162b9b49b9,2021-07-29_23h03.30.623,Simcolourproject_2stim_asymm_v5,2020.2.10,MacIntel,60,61025ae37ef11b136ea224fe,,,,,,,,,3292,-110,-56,1,0,0,response5disk,,2,-1,-5,1,0,0,rectangle,-1,-5,1,0,0,-1,-5,1,0,0,1,136,296,99,1,,,,,,,,
,,,,,,,,,,,,,FF,,,,,,,,1.1,,,,,,,,,,,,,,,,,,,,,,60fc7e0e424b1ce5aa8dd706,610377e4181346162b9b49b9,2021-07-29_23h03.30.623,Simcolourproject_2stim_asymm_v5,2020.2.10,MacIntel,60,61025ae37ef11b136ea224fe,,,,,,,,,2310,99,-65,1,0,0,response3disk,,5,2,1,1,0,0,rectangle,2,1,1,0,0,2,1,1,0,0,1,137,297,67,1,,,,,,,,
,,,,,,,,,,,,,FF,,,,,,,,0.75,,,,,,,,,,,,,,,,,,,,,,60fc7e0e424b1ce5aa8dd706,610377e4181346162b9b49b9,2021-07-29_23h03.30.623,Simcolourproject_2stim_asymm_v5,2020.2.10,MacIntel,60,61025ae37ef11b136ea224fe,,,,,,,,,309,76,-43,1,0,0,response3disk,,5,10,-4,1,0,0,rectangle,10,-4,1,0,0,10,-4,1,0,0,1,138,298,45,1,,,,,,,,
,,,,,,,,,,,,,FF,,,,,,,,0.917,,,,,,,,,,,,,,,,,,,,,,60fc7e0e424b1ce5aa8dd706,610377e4181346162b9b49b9,2021-07-29_23h03.30.623,Simcolourproject_2stim_asymm_v5,2020.2.10,MacIntel,60,61025ae37ef11b136ea224fe,,,,,,,,,3837,-47,-88,1,0,0,response5disk,,3,1,-11,1,0,0,rectangle,1,-11,1,0,0,1,-11,1,0,0,1,139,299,102,1,,,,,,,,
,,,,,,,,,,,,,FF,,,,,,,,0.984,,,,,,,,,,,,,,,,,,,,,,60fc7e0e424b1ce5aa8dd706,610377e4181346162b9b49b9,2021-07-29_23h03.30.623,Simcolourproject_2stim_asymm_v5,2020.2.10,MacIntel,60,61025ae37ef11b136ea224fe,,,,,,,,,2596,47,101,1,0,0,response1disk,,7,31,6,1,0,0,rectangle,31,6,1,0,0,31,6,1,0,0,1,140,300,125,1,,,,,,,,
