key_resp.keys,key_resp.rt,key_resp_14.keys,key_resp_14.rt,key_resp_15.keys,key_resp_15.rt,key_resp_17.keys,key_resp_17.rt,key_resp_9.keys,key_resp_9.rt,key_resp_10.keys,key_resp_10.rt,practice_comparison,Ecc,mouse_5.x,mouse_5.y,mouse_5.leftButton,mouse_5.midButton,mouse_5.rightButton,mouse_5.clicked_name,pracsimilarity,response_time,mouse_10.x,mouse_10.y,mouse_10.leftButton,mouse_10.midButton,mouse_10.rightButton,mouse_10.clicked_name,mouse_7.x,mouse_7.y,mouse_7.leftButton,mouse_7.midButton,mouse_7.rightButton,mouse_6.x,mouse_6.y,mouse_6.leftButton,mouse_6.midButton,mouse_6.rightButton,duringprac.thisRepN,duringprac.thisTrialN,duringprac.thisN,duringprac.thisIndex,duringprac.ran,participant,session,date,expName,psychopyVersion,OS,frameRate,study_id,mouse_7.clicked_name,catchpracsimilarity,catch_response_time,catchnumberprac,catchtrialorderprac,mouse_6.clicked_name,key_resp_22.keys,key_resp_22.rt,realcomparison,mouse.x,mouse.y,mouse.leftButton,mouse.midButton,mouse.rightButton,mouse.clicked_name,Colour2,similarity,mouse_2.x,mouse_2.y,mouse_2.leftButton,mouse_2.midButton,mouse_2.rightButton,mouse_2.clicked_name,mouse_3.x,mouse_3.y,mouse_3.leftButton,mouse_3.midButton,mouse_3.rightButton,mouse_11.x,mouse_11.y,mouse_11.leftButton,mouse_11.midButton,mouse_11.rightButton,trials_2.thisRepN,trials_2.thisTrialN,trials_2.thisN,trials_2.thisIndex,trials_2.ran,Colour1,mouse_3.clicked_name,catchornah,catchsimilarity,catchnumber,catchtrialorder,catchRT,mouse_11.clicked_name
space,0.129365,space,2.02948,space,7.249415,space,2.180275,space,0.859405,space,2.914295,89,PF,-106.2055664,-43.64093018,1,0,0,response5disk_5,2,5.36909,3.400268555,-2.951599121,1,0,0,rectangle_8,3.400268555,-2.951599121,1,0,0,3.400268555,-2.951599121,1,0,0,0,0,0,6,1,60fcfaa636cc384f059f960d,61036e105257ad60f1dc32e0,2021-07-29_23h12.41.888,Simcolourproject_2stim_asymm_v5,2020.2.10,MacIntel,60,61025ae37ef11b136ea224fe,,,,,,,,,,,,,,,,,,,,,,,,,,,,,,,,,,,,,,,,,,,,,,
,,,,,,,,,,,,41,FF,97.8548584,27.60040283,1,0,0,response1disk_5,6,1.80009,13.74145508,1.289001465,1,0,0,rectangle_8,37.76586914,84.94491577,1,0,0,1.029846191,9.317810059,1,0,0,0,1,1,0,1,60fcfaa636cc384f059f960d,61036e105257ad60f1dc32e0,2021-07-29_23h12.41.888,Simcolourproject_2stim_asymm_v5,2020.2.10,MacIntel,60,61025ae37ef11b136ea224fe,response1disk_7,7,2.3166,7,"[2,5]",rectangle_4,,,,,,,,,,,,,,,,,,,,,,,,,,,,,,,,,,,,,,,,
,,,,,,,,,,,,55,PF,50.92877197,-33.20675659,1,0,0,response3disk_5,5,2.882865,0.067260742,-7.108642578,1,0,0,rectangle_8,0.067260742,-7.108642578,1,0,0,0.067260742,-7.108642578,1,0,0,0,2,2,2,1,60fcfaa636cc384f059f960d,61036e105257ad60f1dc32e0,2021-07-29_23h12.41.888,Simcolourproject_2stim_asymm_v5,2020.2.10,MacIntel,60,61025ae37ef11b136ea224fe,,,,,,,,,,,,,,,,,,,,,,,,,,,,,,,,,,,,,,,,,,,,,,
,,,,,,,,,,,,33,PF,106.3873291,33.08093262,1,0,0,response1disk_5,6,2.01745,13.09851074,-0.209533691,1,0,0,rectangle_8,13.09851074,-0.209533691,1,0,0,13.09851074,-0.209533691,1,0,0,0,3,3,4,1,60fcfaa636cc384f059f960d,61036e105257ad60f1dc32e0,2021-07-29_23h12.41.888,Simcolourproject_2stim_asymm_v5,2020.2.10,MacIntel,60,61025ae37ef11b136ea224fe,,,,,,,,,,,,,,,,,,,,,,,,,,,,,,,,,,,,,,,,,,,,,,
,,,,,,,,,,,,148,FF,106.65979,41.15234375,1,0,0,response1disk_5,6,0.93269,9.614990234,0.563232422,1,0,0,rectangle_8,49.90319824,72.79052734,1,0,0,10.54046631,3.976074219,1,0,0,0,4,4,5,1,60fcfaa636cc384f059f960d,61036e105257ad60f1dc32e0,2021-07-29_23h12.41.888,Simcolourproject_2stim_asymm_v5,2020.2.10,MacIntel,60,61025ae37ef11b136ea224fe,response1disk_7,7,2.5488,7,"[2,5]",rectangle_4,,,,,,,,,,,,,,,,,,,,,,,,,,,,,,,,,,,,,,,,
,,,,,,,,,,,,119,FF,-56.98779297,-76.53436279,1,0,0,response5disk_5,3,3.36644,4.33972168,-8.643829346,1,0,0,rectangle_8,4.33972168,-8.643829346,1,0,0,4.33972168,-8.643829346,1,0,0,0,5,5,3,1,60fcfaa636cc384f059f960d,61036e105257ad60f1dc32e0,2021-07-29_23h12.41.888,Simcolourproject_2stim_asymm_v5,2020.2.10,MacIntel,60,61025ae37ef11b136ea224fe,,,,,,,,,,,,,,,,,,,,,,,,,,,,,,,,,,,,,,,,,,,,,,
,,,,,,,,,,,,60,PF,58.91784668,-86.56097412,1,0,0,response3disk_5,4,1.766845,0.048339844,-4.550292969,1,0,0,rectangle_8,0.048339844,-4.550292969,1,0,0,0.048339844,-4.550292969,1,0,0,0,6,6,1,1,60fcfaa636cc384f059f960d,61036e105257ad60f1dc32e0,2021-07-29_23h12.41.888,Simcolourproject_2stim_asymm_v5,2020.2.10,MacIntel,60,61025ae37ef11b136ea224fe,,,,,,,,,,,,,,,,,,,,,,,,,,,,,,,,,,,,,,,,,,,,,,
,,,,,,,,,,,,,FF,,,,,,,,2.35055,,,,,,,,,,,,,,,,,,,,,,60fcfaa636cc384f059f960d,61036e105257ad60f1dc32e0,2021-07-29_23h12.41.888,Simcolourproject_2stim_asymm_v5,2020.2.10,MacIntel,60,61025ae37ef11b136ea224fe,,,,,,,space,2.41151,3105,-70.59143066,-41.99438477,1,0,0,response5disk,,2,12.50549316,4.977752686,1,0,0,rectangle,12.50549316,4.977752686,1,0,0,12.50549316,4.977752686,1,0,0,0,0,0,37,1,,,,,,,,
,,,,,,,,,,,,,FF,,,,,,,,1.71609,,,,,,,,,,,,,,,,,,,,,,60fcfaa636cc384f059f960d,61036e105257ad60f1dc32e0,2021-07-29_23h12.41.888,Simcolourproject_2stim_asymm_v5,2020.2.10,MacIntel,60,61025ae37ef11b136ea224fe,,,,,,,,,3467,48.14208984,-84.29876709,1,0,0,response3disk,,4,0.670715332,-11.2868042,1,0,0,rectangle,0.670715332,-11.2868042,1,0,0,0.670715332,-11.2868042,1,0,0,0,1,1,82,1,,,,,,,,
,,,,,,,,,,,,,FF,,,,,,,,0.83212,,,,,,,,,,,,,,,,,,,,,,60fcfaa636cc384f059f960d,61036e105257ad60f1dc32e0,2021-07-29_23h12.41.888,Simcolourproject_2stim_asymm_v5,2020.2.10,MacIntel,60,61025ae37ef11b136ea224fe,,,,,,,,,882,77.45452881,36.4508667,1,0,0,response1disk,,6,7.995117188,-4.127288818,1,0,0,rectangle,7.995117188,-4.127288818,1,0,0,7.995117188,-4.127288818,1,0,0,0,2,2,115,1,,,,,,,,
,,,,,,,,,,,,,FF,,,,,,,,1.5673,,,,,,,,,,,,,,,,,,,,,,60fcfaa636cc384f059f960d,61036e105257ad60f1dc32e0,2021-07-29_23h12.41.888,Simcolourproject_2stim_asymm_v5,2020.2.10,MacIntel,60,61025ae37ef11b136ea224fe,,,,,,,,,2242,-34.67407227,-83.78491211,1,0,0,response5disk,,3,14.66882324,-5.92880249,1,0,0,rectangle,14.66882324,-5.92880249,1,0,0,14.66882324,-5.92880249,1,0,0,0,3,3,27,1,,,,,,,,
,,,,,,,,,,,,,FF,,,,,,,,1.398925,,,,,,,,,,,,,,,,,,,,,,60fcfaa636cc384f059f960d,61036e105257ad60f1dc32e0,2021-07-29_23h12.41.888,Simcolourproject_2stim_asymm_v5,2020.2.10,MacIntel,60,61025ae37ef11b136ea224fe,,,,,,,,,3588,-95.86730957,-52.57177734,1,0,0,response5disk,,2,6.830444336,1.286193848,1,0,0,rectangle,6.830444336,1.286193848,1,0,0,6.830444336,1.286193848,1,0,0,0,4,4,70,1,,,,,,,,
,,,,,,,,,,,,,FF,,,,,,,,0.882655,,,,,,,,,,,,,,,,,,,,,,60fcfaa636cc384f059f960d,61036e105257ad60f1dc32e0,2021-07-29_23h12.41.888,Simcolourproject_2stim_asymm_v5,2020.2.10,MacIntel,60,61025ae37ef11b136ea224fe,,,,,,,,,4136,68.53649902,46.724823,1,0,0,response1disk,,6,20.44494629,3.633789063,1,0,0,rectangle,-82.46020508,-45.41055298,1,0,0,-7.92175293,-1.232391357,1,0,0,0,5,5,0,1,,response5disk_3,TRUE,2,2,"[51,6,236,92,252,235,157,304,90,154,69,30,145,100,25,155,68,226,21,214]",2.350565,rectangle
,,,,,,,,,,,,,FF,,,,,,,,1.099325,,,,,,,,,,,,,,,,,,,,,,60fcfaa636cc384f059f960d,61036e105257ad60f1dc32e0,2021-07-29_23h12.41.888,Simcolourproject_2stim_asymm_v5,2020.2.10,MacIntel,60,61025ae37ef11b136ea224fe,,,,,,,,,1316,55.75762939,-67.45367432,1,0,0,response3disk,,4,7.00012207,-0.949249268,1,0,0,rectangle,7.00012207,-0.949249268,1,0,0,7.00012207,-0.949249268,1,0,0,0,6,6,40,1,,,,,,,,
,,,,,,,,,,,,,FF,,,,,,,,1.233755,,,,,,,,,,,,,,,,,,,,,,60fcfaa636cc384f059f960d,61036e105257ad60f1dc32e0,2021-07-29_23h12.41.888,Simcolourproject_2stim_asymm_v5,2020.2.10,MacIntel,60,61025ae37ef11b136ea224fe,,,,,,,,,648,54.9074707,-86.41119385,1,0,0,response3disk,,4,4.165405273,-7.891357422,1,0,0,rectangle,4.165405273,-7.891357422,1,0,0,4.165405273,-7.891357422,1,0,0,0,7,7,137,1,,,,,,,,
,,,,,,,,,,,,,FF,,,,,,,,1.516805,,,,,,,,,,,,,,,,,,,,,,60fcfaa636cc384f059f960d,61036e105257ad60f1dc32e0,2021-07-29_23h12.41.888,Simcolourproject_2stim_asymm_v5,2020.2.10,MacIntel,60,61025ae37ef11b136ea224fe,,,,,,,,,3758,57.80944824,-79.27160645,1,0,0,response3disk,,4,-2.112915039,-1.95098877,1,0,0,rectangle,-2.112915039,-1.95098877,1,0,0,-2.112915039,-1.95098877,1,0,0,0,8,8,35,1,,,,,,,,
,,,,,,,,,,,,,FF,,,,,,,,1.249875,,,,,,,,,,,,,,,,,,,,,,60fcfaa636cc384f059f960d,61036e105257ad60f1dc32e0,2021-07-29_23h12.41.888,Simcolourproject_2stim_asymm_v5,2020.2.10,MacIntel,60,61025ae37ef11b136ea224fe,,,,,,,,,2113,-37.51647949,-85.14758301,1,0,0,response5disk,,3,-5.842529297,-0.011871338,1,0,0,rectangle,-5.842529297,-0.011871338,1,0,0,-5.842529297,-0.011871338,1,0,0,0,9,9,54,1,,,,,,,,
,,,,,,,,,,,,,FF,,,,,,,,1.11729,,,,,,,,,,,,,,,,,,,,,,60fcfaa636cc384f059f960d,61036e105257ad60f1dc32e0,2021-07-29_23h12.41.888,Simcolourproject_2stim_asymm_v5,2020.2.10,MacIntel,60,61025ae37ef11b136ea224fe,,,,,,,,,588,66.24072266,105.6953125,1,0,0,response1disk,,7,13.21459961,1.087768555,1,0,0,rectangle,13.21459961,1.087768555,1,0,0,13.21459961,1.087768555,1,0,0,0,10,10,98,1,,,,,,,,
,,,,,,,,,,,,,FF,,,,,,,,0.866875,,,,,,,,,,,,,,,,,,,,,,60fcfaa636cc384f059f960d,61036e105257ad60f1dc32e0,2021-07-29_23h12.41.888,Simcolourproject_2stim_asymm_v5,2020.2.10,MacIntel,60,61025ae37ef11b136ea224fe,,,,,,,,,2978,38.02325439,78.44854736,1,0,0,response1disk,,7,-3.105712891,-8.268249512,1,0,0,rectangle,-3.105712891,-8.268249512,1,0,0,-3.105712891,-8.268249512,1,0,0,0,11,11,151,1,,,,,,,,
,,,,,,,,,,,,,FF,,,,,,,,1.582255,,,,,,,,,,,,,,,,,,,,,,60fcfaa636cc384f059f960d,61036e105257ad60f1dc32e0,2021-07-29_23h12.41.888,Simcolourproject_2stim_asymm_v5,2020.2.10,MacIntel,60,61025ae37ef11b136ea224fe,,,,,,,,,570,-26.72247314,-105.2268677,1,0,0,response5disk,,3,-2.917480469,-2.086608887,1,0,0,rectangle,-2.917480469,-2.086608887,1,0,0,-2.917480469,-2.086608887,1,0,0,0,12,12,129,1,,,,,,,,
,,,,,,,,,,,,,FF,,,,,,,,0.76536,,,,,,,,,,,,,,,,,,,,,,60fcfaa636cc384f059f960d,61036e105257ad60f1dc32e0,2021-07-29_23h12.41.888,Simcolourproject_2stim_asymm_v5,2020.2.10,MacIntel,60,61025ae37ef11b136ea224fe,,,,,,,,,2736,-44.72485352,-87.46539307,1,0,0,response5disk,,3,3.956420898,-5.842956543,1,0,0,rectangle,3.956420898,-5.842956543,1,0,0,3.956420898,-5.842956543,1,0,0,0,13,13,108,1,,,,,,,,
,,,,,,,,,,,,,FF,,,,,,,,0.814835,,,,,,,,,,,,,,,,,,,,,,60fcfaa636cc384f059f960d,61036e105257ad60f1dc32e0,2021-07-29_23h12.41.888,Simcolourproject_2stim_asymm_v5,2020.2.10,MacIntel,60,61025ae37ef11b136ea224fe,,,,,,,,,1630,96.63226318,-42.32196045,1,0,0,response3disk,,5,0.354492188,-7.304595947,1,0,0,rectangle,0.354492188,-7.304595947,1,0,0,0.354492188,-7.304595947,1,0,0,0,14,14,60,1,,,,,,,,
,,,,,,,,,,,,,FF,,,,,,,,2.000875,,,,,,,,,,,,,,,,,,,,,,60fcfaa636cc384f059f960d,61036e105257ad60f1dc32e0,2021-07-29_23h12.41.888,Simcolourproject_2stim_asymm_v5,2020.2.10,MacIntel,60,61025ae37ef11b136ea224fe,,,,,,,,,2983,82.03839111,43.92913818,1,0,0,response1disk,,6,9.498901367,0.037139893,1,0,0,rectangle,9.498901367,0.037139893,1,0,0,9.498901367,0.037139893,1,0,0,0,15,15,123,1,,,,,,,,
,,,,,,,,,,,,,FF,,,,,,,,0.628695,,,,,,,,,,,,,,,,,,,,,,60fcfaa636cc384f059f960d,61036e105257ad60f1dc32e0,2021-07-29_23h12.41.888,Simcolourproject_2stim_asymm_v5,2020.2.10,MacIntel,60,61025ae37ef11b136ea224fe,,,,,,,,,233,95.31799316,44.60131836,1,0,0,response1disk,,6,2.813964844,4.767456055,1,0,0,rectangle,2.813964844,4.767456055,1,0,0,2.813964844,4.767456055,1,0,0,0,16,16,100,1,,,,,,,,
,,,,,,,,,,,,,FF,,,,,,,,1.332765,,,,,,,,,,,,,,,,,,,,,,60fcfaa636cc384f059f960d,61036e105257ad60f1dc32e0,2021-07-29_23h12.41.888,Simcolourproject_2stim_asymm_v5,2020.2.10,MacIntel,60,61025ae37ef11b136ea224fe,,,,,,,,,3878,48.27319336,-101.6051025,1,0,0,response3disk,,4,-12.22235107,0.800170898,1,0,0,rectangle,-12.22235107,0.800170898,1,0,0,-12.22235107,0.800170898,1,0,0,0,17,17,143,1,,,,,,,,
,,,,,,,,,,,,,FF,,,,,,,,0.983725,,,,,,,,,,,,,,,,,,,,,,60fcfaa636cc384f059f960d,61036e105257ad60f1dc32e0,2021-07-29_23h12.41.888,Simcolourproject_2stim_asymm_v5,2020.2.10,MacIntel,60,61025ae37ef11b136ea224fe,,,,,,,,,1921,72.39074707,87.9909668,1,0,0,response1disk,,7,18.51733398,2.709381104,1,0,0,rectangle,18.51733398,2.709381104,1,0,0,18.51733398,2.709381104,1,0,0,0,18,18,114,1,,,,,,,,
,,,,,,,,,,,,,FF,,,,,,,,1.16626,,,,,,,,,,,,,,,,,,,,,,60fcfaa636cc384f059f960d,61036e105257ad60f1dc32e0,2021-07-29_23h12.41.888,Simcolourproject_2stim_asymm_v5,2020.2.10,MacIntel,60,61025ae37ef11b136ea224fe,,,,,,,,,1210,-40.25219727,-93.82458496,1,0,0,response5disk,,3,8.702514648,-1.204071045,1,0,0,rectangle,8.702514648,-1.204071045,1,0,0,8.702514648,-1.204071045,1,0,0,0,19,19,6,1,,,,,,,,
,,,,,,,,,,,,,FF,,,,,,,,1.66746,,,,,,,,,,,,,,,,,,,,,,60fcfaa636cc384f059f960d,61036e105257ad60f1dc32e0,2021-07-29_23h12.41.888,Simcolourproject_2stim_asymm_v5,2020.2.10,MacIntel,60,61025ae37ef11b136ea224fe,,,,,,,,,2663,-74.94299316,30.80303955,1,0,0,response7disk,,1,10.48962402,7.49206543,1,0,0,rectangle,51.30175781,-122.4527588,1,0,0,9.585693359,-1.116516113,1,0,0,0,20,20,159,1,,response3disk_3,TRUE,4,4,"[51,6,236,92,252,235,157,304,90,154,69,30,145,100,25,155,68,226,21,214]",1.616565,rectangle
,,,,,,,,,,,,,FF,,,,,,,,1.66668,,,,,,,,,,,,,,,,,,,,,,60fcfaa636cc384f059f960d,61036e105257ad60f1dc32e0,2021-07-29_23h12.41.888,Simcolourproject_2stim_asymm_v5,2020.2.10,MacIntel,60,61025ae37ef11b136ea224fe,,,,,,,,,2312,-42.74902344,-85.38928223,1,0,0,response5disk,,3,1.43762207,1.544616699,1,0,0,rectangle,1.43762207,1.544616699,1,0,0,1.43762207,1.544616699,1,0,0,0,21,21,55,1,,,,,,,,
,,,,,,,,,,,,,FF,,,,,,,,1.43463,,,,,,,,,,,,,,,,,,,,,,60fcfaa636cc384f059f960d,61036e105257ad60f1dc32e0,2021-07-29_23h12.41.888,Simcolourproject_2stim_asymm_v5,2020.2.10,MacIntel,60,61025ae37ef11b136ea224fe,,,,,,,,,4013,49.12194824,-68.81976318,1,0,0,response3disk,,4,11.39746094,5.405944824,1,0,0,rectangle,11.39746094,5.405944824,1,0,0,11.39746094,5.405944824,1,0,0,0,22,22,39,1,,,,,,,,
,,,,,,,,,,,,,FF,,,,,,,,1.183615,,,,,,,,,,,,,,,,,,,,,,60fcfaa636cc384f059f960d,61036e105257ad60f1dc32e0,2021-07-29_23h12.41.888,Simcolourproject_2stim_asymm_v5,2020.2.10,MacIntel,60,61025ae37ef11b136ea224fe,,,,,,,,,3526,47.434021,-79.1072998,1,0,0,response3disk,,4,11.77856445,-1.31842041,1,0,0,rectangle,11.77856445,-1.31842041,1,0,0,11.77856445,-1.31842041,1,0,0,0,23,23,99,1,,,,,,,,
,,,,,,,,,,,,,FF,,,,,,,,1.56598,,,,,,,,,,,,,,,,,,,,,,60fcfaa636cc384f059f960d,61036e105257ad60f1dc32e0,2021-07-29_23h12.41.888,Simcolourproject_2stim_asymm_v5,2020.2.10,MacIntel,60,61025ae37ef11b136ea224fe,,,,,,,,,1703,90.96502686,-28.97021484,1,0,0,response3disk,,5,6.297851563,-9.937927246,1,0,0,rectangle,32.14886475,87.53814697,1,0,0,3.889831543,1.274414063,1,0,0,0,24,24,83,1,,response1disk_3,TRUE,7,7,"[51,6,236,92,252,235,157,304,90,154,69,30,145,100,25,155,68,226,21,214]",2.0518,rectangle
,,,,,,,,,,,,,FF,,,,,,,,1.13343,,,,,,,,,,,,,,,,,,,,,,60fcfaa636cc384f059f960d,61036e105257ad60f1dc32e0,2021-07-29_23h12.41.888,Simcolourproject_2stim_asymm_v5,2020.2.10,MacIntel,60,61025ae37ef11b136ea224fe,,,,,,,,,3215,-27.60693359,-90.43908691,1,0,0,response5disk,,3,22.69744873,0.901916504,1,0,0,rectangle,22.69744873,0.901916504,1,0,0,22.69744873,0.901916504,1,0,0,0,25,25,89,1,,,,,,,,
,,,,,,,,,,,,,FF,,,,,,,,0.75061,,,,,,,,,,,,,,,,,,,,,,60fcfaa636cc384f059f960d,61036e105257ad60f1dc32e0,2021-07-29_23h12.41.888,Simcolourproject_2stim_asymm_v5,2020.2.10,MacIntel,60,61025ae37ef11b136ea224fe,,,,,,,,,2320,90.05383301,53.02209473,1,0,0,response1disk,,6,-0.464355469,-1.903503418,1,0,0,rectangle,-0.464355469,-1.903503418,1,0,0,-0.464355469,-1.903503418,1,0,0,0,26,26,154,1,,,,,,,,
,,,,,,,,,,,,,FF,,,,,,,,1.76648,,,,,,,,,,,,,,,,,,,,,,60fcfaa636cc384f059f960d,61036e105257ad60f1dc32e0,2021-07-29_23h12.41.888,Simcolourproject_2stim_asymm_v5,2020.2.10,MacIntel,60,61025ae37ef11b136ea224fe,,,,,,,,,801,-78.68884277,44.11999512,1,0,0,response7disk,,1,2.974975586,6.059204102,1,0,0,rectangle,2.974975586,6.059204102,1,0,0,2.974975586,6.059204102,1,0,0,0,27,27,122,1,,,,,,,,
,,,,,,,,,,,,,FF,,,,,,,,1.083505,,,,,,,,,,,,,,,,,,,,,,60fcfaa636cc384f059f960d,61036e105257ad60f1dc32e0,2021-07-29_23h12.41.888,Simcolourproject_2stim_asymm_v5,2020.2.10,MacIntel,60,61025ae37ef11b136ea224fe,,,,,,,,,1271,106.4539795,38.41503906,1,0,0,response1disk,,6,7.827758789,-9.948547363,1,0,0,rectangle,7.827758789,-9.948547363,1,0,0,7.827758789,-9.948547363,1,0,0,0,28,28,87,1,,,,,,,,
,,,,,,,,,,,,,FF,,,,,,,,1.001355,,,,,,,,,,,,,,,,,,,,,,60fcfaa636cc384f059f960d,61036e105257ad60f1dc32e0,2021-07-29_23h12.41.888,Simcolourproject_2stim_asymm_v5,2020.2.10,MacIntel,60,61025ae37ef11b136ea224fe,,,,,,,,,1345,86.76916504,42.30316162,1,0,0,response1disk,,6,-7.301818848,-2.381469727,1,0,0,rectangle,-43.9553833,81.90197754,1,0,0,-17.94482422,-6.165130615,1,0,0,0,29,29,23,1,,response7disk_3,TRUE,0,0,"[51,6,236,92,252,235,157,304,90,154,69,30,145,100,25,155,68,226,21,214]",1.800625,rectangle
,,,,,,,,,,,,,FF,,,,,,,,0.868275,,,,,,,,,,,,,,,,,,,,,,60fcfaa636cc384f059f960d,61036e105257ad60f1dc32e0,2021-07-29_23h12.41.888,Simcolourproject_2stim_asymm_v5,2020.2.10,MacIntel,60,61025ae37ef11b136ea224fe,,,,,,,,,3790,-54.95776367,-121.4547729,1,0,0,response5disk,,3,-8.911132813,7.732208252,1,0,0,rectangle,-8.911132813,7.732208252,1,0,0,-8.911132813,7.732208252,1,0,0,0,30,30,53,1,,,,,,,,
,,,,,,,,,,,,,FF,,,,,,,,0.81682,,,,,,,,,,,,,,,,,,,,,,60fcfaa636cc384f059f960d,61036e105257ad60f1dc32e0,2021-07-29_23h12.41.888,Simcolourproject_2stim_asymm_v5,2020.2.10,MacIntel,60,61025ae37ef11b136ea224fe,,,,,,,,,1105,61.03936768,48.51791382,1,0,0,response1disk,,6,9.692871094,10.2432251,1,0,0,rectangle,9.692871094,10.2432251,1,0,0,9.692871094,10.2432251,1,0,0,0,31,31,136,1,,,,,,,,
,,,,,,,,,,,,,FF,,,,,,,,1.0333,,,,,,,,,,,,,,,,,,,,,,60fcfaa636cc384f059f960d,61036e105257ad60f1dc32e0,2021-07-29_23h12.41.888,Simcolourproject_2stim_asymm_v5,2020.2.10,MacIntel,60,61025ae37ef11b136ea224fe,,,,,,,,,4077,43.86688232,-106.1060181,1,0,0,response3disk,,4,2.239562988,-4.533874512,1,0,0,rectangle,2.239562988,-4.533874512,1,0,0,2.239562988,-4.533874512,1,0,0,0,32,32,94,1,,,,,,,,
,,,,,,,,,,,,,FF,,,,,,,,0.79979,,,,,,,,,,,,,,,,,,,,,,60fcfaa636cc384f059f960d,61036e105257ad60f1dc32e0,2021-07-29_23h12.41.888,Simcolourproject_2stim_asymm_v5,2020.2.10,MacIntel,60,61025ae37ef11b136ea224fe,,,,,,,,,597,50.36315918,78.31085205,1,0,0,response1disk,,7,3.506225586,-3.064788818,1,0,0,rectangle,3.506225586,-3.064788818,1,0,0,3.506225586,-3.064788818,1,0,0,0,33,33,17,1,,,,,,,,
,,,,,,,,,,,,,FF,,,,,,,,0.966775,,,,,,,,,,,,,,,,,,,,,,60fcfaa636cc384f059f960d,61036e105257ad60f1dc32e0,2021-07-29_23h12.41.888,Simcolourproject_2stim_asymm_v5,2020.2.10,MacIntel,60,61025ae37ef11b136ea224fe,,,,,,,,,3848,-87.84796143,-33.42230225,1,0,0,response5disk,,2,-0.912353516,-5.759277344,1,0,0,rectangle,-0.912353516,-5.759277344,1,0,0,-0.912353516,-5.759277344,1,0,0,0,34,34,9,1,,,,,,,,
,,,,,,,,,,,,,FF,,,,,,,,1.11904,,,,,,,,,,,,,,,,,,,,,,60fcfaa636cc384f059f960d,61036e105257ad60f1dc32e0,2021-07-29_23h12.41.888,Simcolourproject_2stim_asymm_v5,2020.2.10,MacIntel,60,61025ae37ef11b136ea224fe,,,,,,,,,1803,32.13970947,-91.33935547,1,0,0,response3disk,,4,0.112487793,15.12393188,1,0,0,rectangle,0.112487793,15.12393188,1,0,0,0.112487793,15.12393188,1,0,0,0,35,35,47,1,,,,,,,,
,,,,,,,,,,,,,FF,,,,,,,,0.73277,,,,,,,,,,,,,,,,,,,,,,60fcfaa636cc384f059f960d,61036e105257ad60f1dc32e0,2021-07-29_23h12.41.888,Simcolourproject_2stim_asymm_v5,2020.2.10,MacIntel,60,61025ae37ef11b136ea224fe,,,,,,,,,2436,76.22705078,69.77371216,1,0,0,response1disk,,6,16.53894043,-2.084411621,1,0,0,rectangle,16.53894043,-2.084411621,1,0,0,16.53894043,-2.084411621,1,0,0,0,36,36,5,1,,,,,,,,
,,,,,,,,,,,,,FF,,,,,,,,0.8007,,,,,,,,,,,,,,,,,,,,,,60fcfaa636cc384f059f960d,61036e105257ad60f1dc32e0,2021-07-29_23h12.41.888,Simcolourproject_2stim_asymm_v5,2020.2.10,MacIntel,60,61025ae37ef11b136ea224fe,,,,,,,,,3431,-72.65600586,59.39630127,1,0,0,response7disk,,1,-19.95837402,4.844543457,1,0,0,rectangle,-19.95837402,4.844543457,1,0,0,-19.95837402,4.844543457,1,0,0,0,37,37,49,1,,,,,,,,
,,,,,,,,,,,,,FF,,,,,,,,0.78374,,,,,,,,,,,,,,,,,,,,,,60fcfaa636cc384f059f960d,61036e105257ad60f1dc32e0,2021-07-29_23h12.41.888,Simcolourproject_2stim_asymm_v5,2020.2.10,MacIntel,60,61025ae37ef11b136ea224fe,,,,,,,,,653,-58.16027832,-76.99902344,1,0,0,response5disk,,3,9.160827637,4.554290771,1,0,0,rectangle,9.160827637,4.554290771,1,0,0,9.160827637,4.554290771,1,0,0,0,38,38,59,1,,,,,,,,
,,,,,,,,,,,,,FF,,,,,,,,0.79927,,,,,,,,,,,,,,,,,,,,,,60fcfaa636cc384f059f960d,61036e105257ad60f1dc32e0,2021-07-29_23h12.41.888,Simcolourproject_2stim_asymm_v5,2020.2.10,MacIntel,60,61025ae37ef11b136ea224fe,,,,,,,,,1524,-50.12304688,-70.22241211,1,0,0,response5disk,,3,-11.72277832,-2.608825684,1,0,0,rectangle,-11.72277832,-2.608825684,1,0,0,-11.72277832,-2.608825684,1,0,0,0,39,39,96,1,,,,,,,,
,,,,,,,,,,,,,FF,,,,,,,,0.682555,,,,,,,,,,,,,,,,,,,,,,60fcfaa636cc384f059f960d,61036e105257ad60f1dc32e0,2021-07-29_23h12.41.888,Simcolourproject_2stim_asymm_v5,2020.2.10,MacIntel,60,61025ae37ef11b136ea224fe,,,,,,,,,1404,41.97167969,64.49539185,1,0,0,response1disk,,7,20.42736816,7.402740479,1,0,0,rectangle,20.42736816,7.402740479,1,0,0,20.42736816,7.402740479,1,0,0,0,40,40,88,1,,,,,,,,
,,,,,,,,,,,,,FF,,,,,,,,0.716365,,,,,,,,,,,,,,,,,,,,,,60fcfaa636cc384f059f960d,61036e105257ad60f1dc32e0,2021-07-29_23h12.41.888,Simcolourproject_2stim_asymm_v5,2020.2.10,MacIntel,60,61025ae37ef11b136ea224fe,,,,,,,,,496,59.38391113,-74.25817871,1,0,0,response3disk,,4,18.07958984,1.18649292,1,0,0,rectangle,18.07958984,1.18649292,1,0,0,18.07958984,1.18649292,1,0,0,0,41,41,69,1,,,,,,,,
,,,,,,,,,,,,,FF,,,,,,,,0.982015,,,,,,,,,,,,,,,,,,,,,,60fcfaa636cc384f059f960d,61036e105257ad60f1dc32e0,2021-07-29_23h12.41.888,Simcolourproject_2stim_asymm_v5,2020.2.10,MacIntel,60,61025ae37ef11b136ea224fe,,,,,,,,,3978,-72.56616211,-92.6484375,1,0,0,response5disk,,3,12.17120361,7.797607422,1,0,0,rectangle,12.17120361,7.797607422,1,0,0,12.17120361,7.797607422,1,0,0,0,42,42,158,1,,,,,,,,
,,,,,,,,,,,,,FF,,,,,,,,0.69967,,,,,,,,,,,,,,,,,,,,,,60fcfaa636cc384f059f960d,61036e105257ad60f1dc32e0,2021-07-29_23h12.41.888,Simcolourproject_2stim_asymm_v5,2020.2.10,MacIntel,60,61025ae37ef11b136ea224fe,,,,,,,,,955,64.76208496,-36.9475708,1,0,0,response3disk,,5,2.24798584,-6.599243164,1,0,0,rectangle,2.24798584,-6.599243164,1,0,0,2.24798584,-6.599243164,1,0,0,0,43,43,116,1,,,,,,,,
,,,,,,,,,,,,,FF,,,,,,,,1.06698,,,,,,,,,,,,,,,,,,,,,,60fcfaa636cc384f059f960d,61036e105257ad60f1dc32e0,2021-07-29_23h12.41.888,Simcolourproject_2stim_asymm_v5,2020.2.10,MacIntel,60,61025ae37ef11b136ea224fe,,,,,,,,,1692,68.58117676,-37.37078857,1,0,0,response3disk,,5,10.48486328,1.162322998,1,0,0,rectangle,10.48486328,1.162322998,1,0,0,10.48486328,1.162322998,1,0,0,0,44,44,134,1,,,,,,,,
,,,,,,,,,,,,,FF,,,,,,,,1.04987,,,,,,,,,,,,,,,,,,,,,,60fcfaa636cc384f059f960d,61036e105257ad60f1dc32e0,2021-07-29_23h12.41.888,Simcolourproject_2stim_asymm_v5,2020.2.10,MacIntel,60,61025ae37ef11b136ea224fe,,,,,,,,,987,79.54522705,-52.27496338,1,0,0,response3disk,,5,-1.58581543,-10.34454346,1,0,0,rectangle,-1.58581543,-10.34454346,1,0,0,-1.58581543,-10.34454346,1,0,0,0,45,45,125,1,,,,,,,,
,,,,,,,,,,,,,FF,,,,,,,,1.19997,,,,,,,,,,,,,,,,,,,,,,60fcfaa636cc384f059f960d,61036e105257ad60f1dc32e0,2021-07-29_23h12.41.888,Simcolourproject_2stim_asymm_v5,2020.2.10,MacIntel,60,61025ae37ef11b136ea224fe,,,,,,,,,223,78.05883789,-34.21075439,1,0,0,response3disk,,5,0.749267578,-0.801147461,1,0,0,rectangle,0.749267578,-0.801147461,1,0,0,0.749267578,-0.801147461,1,0,0,0,46,46,68,1,,,,,,,,
,,,,,,,,,,,,,FF,,,,,,,,1.234175,,,,,,,,,,,,,,,,,,,,,,60fcfaa636cc384f059f960d,61036e105257ad60f1dc32e0,2021-07-29_23h12.41.888,Simcolourproject_2stim_asymm_v5,2020.2.10,MacIntel,60,61025ae37ef11b136ea224fe,,,,,,,,,3947,59.40734863,-96.17547607,1,0,0,response3disk,,4,5.737609863,-1.89251709,1,0,0,rectangle,5.737609863,-1.89251709,1,0,0,5.737609863,-1.89251709,1,0,0,0,47,47,65,1,,,,,,,,
,,,,,,,,,,,,,FF,,,,,,,,0.698915,,,,,,,,,,,,,,,,,,,,,,60fcfaa636cc384f059f960d,61036e105257ad60f1dc32e0,2021-07-29_23h12.41.888,Simcolourproject_2stim_asymm_v5,2020.2.10,MacIntel,60,61025ae37ef11b136ea224fe,,,,,,,,,1851,76.26989746,46.1918335,1,0,0,response1disk,,6,1.616271973,-1.725708008,1,0,0,rectangle,1.616271973,-1.725708008,1,0,0,1.616271973,-1.725708008,1,0,0,0,48,48,15,1,,,,,,,,
,,,,,,,,,,,,,FF,,,,,,,,0.717655,,,,,,,,,,,,,,,,,,,,,,60fcfaa636cc384f059f960d,61036e105257ad60f1dc32e0,2021-07-29_23h12.41.888,Simcolourproject_2stim_asymm_v5,2020.2.10,MacIntel,60,61025ae37ef11b136ea224fe,,,,,,,,,3017,82.70562744,51.44592285,1,0,0,response1disk,,6,6.467529297,9.663818359,1,0,0,rectangle,6.467529297,9.663818359,1,0,0,6.467529297,9.663818359,1,0,0,0,49,49,147,1,,,,,,,,
,,,,,,,,,,,,,FF,,,,,,,,1.750415,,,,,,,,,,,,,,,,,,,,,,60fcfaa636cc384f059f960d,61036e105257ad60f1dc32e0,2021-07-29_23h12.41.888,Simcolourproject_2stim_asymm_v5,2020.2.10,MacIntel,60,61025ae37ef11b136ea224fe,,,,,,,,,1180,51.56262207,-80.37268066,1,0,0,response3disk,,4,11.36340332,4.262908936,1,0,0,rectangle,88.60388184,15.66918945,1,0,0,16.19281006,4.039306641,1,0,0,0,50,50,22,1,,response1disk_3,TRUE,6,6,"[51,6,236,92,252,235,157,304,90,154,69,30,145,100,25,155,68,226,21,214]",1.7845,rectangle
,,,,,,,,,,,,,FF,,,,,,,,1.233305,,,,,,,,,,,,,,,,,,,,,,60fcfaa636cc384f059f960d,61036e105257ad60f1dc32e0,2021-07-29_23h12.41.888,Simcolourproject_2stim_asymm_v5,2020.2.10,MacIntel,60,61025ae37ef11b136ea224fe,,,,,,,,,2452,87.5055542,66.96798706,1,0,0,response1disk,,6,20.9251709,8.80355835,1,0,0,rectangle,20.9251709,8.80355835,1,0,0,20.9251709,8.80355835,1,0,0,0,51,51,130,1,,,,,,,,
,,,,,,,,,,,,,FF,,,,,,,,0.74915,,,,,,,,,,,,,,,,,,,,,,60fcfaa636cc384f059f960d,61036e105257ad60f1dc32e0,2021-07-29_23h12.41.888,Simcolourproject_2stim_asymm_v5,2020.2.10,MacIntel,60,61025ae37ef11b136ea224fe,,,,,,,,,3481,-59.53613281,-99.94165039,1,0,0,response5disk,,3,-23.72967529,-8.301025391,1,0,0,rectangle,-23.72967529,-8.301025391,1,0,0,-23.72967529,-8.301025391,1,0,0,0,52,52,44,1,,,,,,,,
,,,,,,,,,,,,,FF,,,,,,,,0.999955,,,,,,,,,,,,,,,,,,,,,,60fcfaa636cc384f059f960d,61036e105257ad60f1dc32e0,2021-07-29_23h12.41.888,Simcolourproject_2stim_asymm_v5,2020.2.10,MacIntel,60,61025ae37ef11b136ea224fe,,,,,,,,,1834,-33.88299561,-74.12207031,1,0,0,response5disk,,3,3.082641602,-10.72564697,1,0,0,rectangle,3.082641602,-10.72564697,1,0,0,3.082641602,-10.72564697,1,0,0,0,53,53,80,1,,,,,,,,
,,,,,,,,,,,,,FF,,,,,,,,0.733665,,,,,,,,,,,,,,,,,,,,,,60fcfaa636cc384f059f960d,61036e105257ad60f1dc32e0,2021-07-29_23h12.41.888,Simcolourproject_2stim_asymm_v5,2020.2.10,MacIntel,60,61025ae37ef11b136ea224fe,,,,,,,,,3789,-46.06738281,-96.62103271,1,0,0,response5disk,,3,1.270751953,-16.46090698,1,0,0,rectangle,1.270751953,-16.46090698,1,0,0,1.270751953,-16.46090698,1,0,0,0,54,54,131,1,,,,,,,,
,,,,,,,,,,,,,FF,,,,,,,,0.84907,,,,,,,,,,,,,,,,,,,,,,60fcfaa636cc384f059f960d,61036e105257ad60f1dc32e0,2021-07-29_23h12.41.888,Simcolourproject_2stim_asymm_v5,2020.2.10,MacIntel,60,61025ae37ef11b136ea224fe,,,,,,,,,2822,46.46252441,88.63201904,1,0,0,response1disk,,7,18.1272583,10.3560791,1,0,0,rectangle,18.1272583,10.3560791,1,0,0,18.1272583,10.3560791,1,0,0,0,55,55,78,1,,,,,,,,
,,,,,,,,,,,,,FF,,,,,,,,0.84963,,,,,,,,,,,,,,,,,,,,,,60fcfaa636cc384f059f960d,61036e105257ad60f1dc32e0,2021-07-29_23h12.41.888,Simcolourproject_2stim_asymm_v5,2020.2.10,MacIntel,60,61025ae37ef11b136ea224fe,,,,,,,,,3468,-69.30169678,44.48175049,1,0,0,response7disk,,1,-4.290039063,5.060913086,1,0,0,rectangle,-4.290039063,5.060913086,1,0,0,-4.290039063,5.060913086,1,0,0,0,56,56,79,1,,,,,,,,
,,,,,,,,,,,,,FF,,,,,,,,1.100515,,,,,,,,,,,,,,,,,,,,,,60fcfaa636cc384f059f960d,61036e105257ad60f1dc32e0,2021-07-29_23h12.41.888,Simcolourproject_2stim_asymm_v5,2020.2.10,MacIntel,60,61025ae37ef11b136ea224fe,,,,,,,,,3739,-85.52087402,-57.62319946,1,0,0,response5disk,,2,5.632324219,1.027832031,1,0,0,rectangle,5.632324219,1.027832031,1,0,0,5.632324219,1.027832031,1,0,0,0,57,57,102,1,,,,,,,,
,,,,,,,,,,,,,FF,,,,,,,,0.783055,,,,,,,,,,,,,,,,,,,,,,60fcfaa636cc384f059f960d,61036e105257ad60f1dc32e0,2021-07-29_23h12.41.888,Simcolourproject_2stim_asymm_v5,2020.2.10,MacIntel,60,61025ae37ef11b136ea224fe,,,,,,,,,828,44.12194824,-93.38977051,1,0,0,response3disk,,4,19.20239258,-12.06512451,1,0,0,rectangle,19.20239258,-12.06512451,1,0,0,19.20239258,-12.06512451,1,0,0,0,58,58,58,1,,,,,,,,
,,,,,,,,,,,,,FF,,,,,,,,0.99852,,,,,,,,,,,,,,,,,,,,,,60fcfaa636cc384f059f960d,61036e105257ad60f1dc32e0,2021-07-29_23h12.41.888,Simcolourproject_2stim_asymm_v5,2020.2.10,MacIntel,60,61025ae37ef11b136ea224fe,,,,,,,,,4357,-81.79406738,56.09924316,1,0,0,response7disk,,1,-16.30834961,3.364013672,1,0,0,rectangle,-16.30834961,3.364013672,1,0,0,-16.30834961,3.364013672,1,0,0,0,59,59,156,1,,,,,,,,
,,,,,,,,,,,,,FF,,,,,,,,0.716455,,,,,,,,,,,,,,,,,,,,,,60fcfaa636cc384f059f960d,61036e105257ad60f1dc32e0,2021-07-29_23h12.41.888,Simcolourproject_2stim_asymm_v5,2020.2.10,MacIntel,60,61025ae37ef11b136ea224fe,,,,,,,,,3862,73.25909424,45.90234375,1,0,0,response1disk,,6,12.85229492,0.980316162,1,0,0,rectangle,12.85229492,0.980316162,1,0,0,12.85229492,0.980316162,1,0,0,0,60,60,77,1,,,,,,,,
,,,,,,,,,,,,,FF,,,,,,,,0.817035,,,,,,,,,,,,,,,,,,,,,,60fcfaa636cc384f059f960d,61036e105257ad60f1dc32e0,2021-07-29_23h12.41.888,Simcolourproject_2stim_asymm_v5,2020.2.10,MacIntel,60,61025ae37ef11b136ea224fe,,,,,,,,,4232,95.61608887,33.74487305,1,0,0,response1disk,,6,25.1072998,-5.924316406,1,0,0,rectangle,25.1072998,-5.924316406,1,0,0,25.1072998,-5.924316406,1,0,0,0,61,61,153,1,,,,,,,,
,,,,,,,,,,,,,FF,,,,,,,,0.702175,,,,,,,,,,,,,,,,,,,,,,60fcfaa636cc384f059f960d,61036e105257ad60f1dc32e0,2021-07-29_23h12.41.888,Simcolourproject_2stim_asymm_v5,2020.2.10,MacIntel,60,61025ae37ef11b136ea224fe,,,,,,,,,2386,59.10455322,-54.22875977,1,0,0,response3disk,,5,-6.645385742,1.596191406,1,0,0,rectangle,-6.645385742,1.596191406,1,0,0,-6.645385742,1.596191406,1,0,0,0,62,62,8,1,,,,,,,,
,,,,,,,,,,,,,FF,,,,,,,,1.06598,,,,,,,,,,,,,,,,,,,,,,60fcfaa636cc384f059f960d,61036e105257ad60f1dc32e0,2021-07-29_23h12.41.888,Simcolourproject_2stim_asymm_v5,2020.2.10,MacIntel,60,61025ae37ef11b136ea224fe,,,,,,,,,767,82.23034668,-40.06903076,1,0,0,response3disk,,5,21.05596924,-5.716918945,1,0,0,rectangle,21.05596924,-5.716918945,1,0,0,21.05596924,-5.716918945,1,0,0,0,63,63,139,1,,,,,,,,
,,,,,,,,,,,,,FF,,,,,,,,1.0996,,,,,,,,,,,,,,,,,,,,,,60fcfaa636cc384f059f960d,61036e105257ad60f1dc32e0,2021-07-29_23h12.41.888,Simcolourproject_2stim_asymm_v5,2020.2.10,MacIntel,60,61025ae37ef11b136ea224fe,,,,,,,,,394,50.26940918,-86.5791626,1,0,0,response3disk,,4,17.44995117,-11.07141113,1,0,0,rectangle,17.44995117,-11.07141113,1,0,0,17.44995117,-11.07141113,1,0,0,0,64,64,126,1,,,,,,,,
,,,,,,,,,,,,,FF,,,,,,,,5.54976,,,,,,,,,,,,,,,,,,,,,,60fcfaa636cc384f059f960d,61036e105257ad60f1dc32e0,2021-07-29_23h12.41.888,Simcolourproject_2stim_asymm_v5,2020.2.10,MacIntel,60,61025ae37ef11b136ea224fe,,,,,,,,,400,49.25128174,-78.48852539,1,0,0,response3disk,,4,4.06652832,-0.901916504,1,0,0,rectangle,4.06652832,-0.901916504,1,0,0,4.06652832,-0.901916504,1,0,0,0,65,65,72,1,,,,,,,,
,,,,,,,,,,,,,FF,,,,,,,,1.26708,,,,,,,,,,,,,,,,,,,,,,60fcfaa636cc384f059f960d,61036e105257ad60f1dc32e0,2021-07-29_23h12.41.888,Simcolourproject_2stim_asymm_v5,2020.2.10,MacIntel,60,61025ae37ef11b136ea224fe,,,,,,,,,155,-43.55334473,-84.77807617,1,0,0,response5disk,,3,13.52838135,5.097320557,1,0,0,rectangle,13.52838135,5.097320557,1,0,0,13.52838135,5.097320557,1,0,0,0,66,66,48,1,,,,,,,,
,,,,,,,,,,,,,FF,,,,,,,,0.716955,,,,,,,,,,,,,,,,,,,,,,60fcfaa636cc384f059f960d,61036e105257ad60f1dc32e0,2021-07-29_23h12.41.888,Simcolourproject_2stim_asymm_v5,2020.2.10,MacIntel,60,61025ae37ef11b136ea224fe,,,,,,,,,676,87.10150146,62.51809692,1,0,0,response1disk,,6,20.3036499,-10.9788208,1,0,0,rectangle,-51.81707764,83.39019775,1,0,0,-26.21942139,0.61932373,1,0,0,0,67,67,38,1,,response7disk_3,TRUE,0,0,"[51,6,236,92,252,235,157,304,90,154,69,30,145,100,25,155,68,226,21,214]",1.33504,rectangle
,,,,,,,,,,,,,FF,,,,,,,,0.69884,,,,,,,,,,,,,,,,,,,,,,60fcfaa636cc384f059f960d,61036e105257ad60f1dc32e0,2021-07-29_23h12.41.888,Simcolourproject_2stim_asymm_v5,2020.2.10,MacIntel,60,61025ae37ef11b136ea224fe,,,,,,,,,1752,-72.73480225,53.47747803,1,0,0,response7disk,,1,-8.64642334,-7.272277832,1,0,0,rectangle,30.52929688,100.300293,1,0,0,12.73565674,5.653289795,1,0,0,0,68,68,128,1,,response1disk_3,TRUE,7,7,"[51,6,236,92,252,235,157,304,90,154,69,30,145,100,25,155,68,226,21,214]",1.299935,rectangle
,,,,,,,,,,,,,FF,,,,,,,,0.883325,,,,,,,,,,,,,,,,,,,,,,60fcfaa636cc384f059f960d,61036e105257ad60f1dc32e0,2021-07-29_23h12.41.888,Simcolourproject_2stim_asymm_v5,2020.2.10,MacIntel,60,61025ae37ef11b136ea224fe,,,,,,,,,4255,-93.37615967,-70.94177246,1,0,0,response5disk,,2,6.315856934,-6.543884277,1,0,0,rectangle,6.315856934,-6.543884277,1,0,0,6.315856934,-6.543884277,1,0,0,0,69,69,74,1,,,,,,,,
,,,,,,,,,,,,,FF,,,,,,,,0.96664,,,,,,,,,,,,,,,,,,,,,,60fcfaa636cc384f059f960d,61036e105257ad60f1dc32e0,2021-07-29_23h12.41.888,Simcolourproject_2stim_asymm_v5,2020.2.10,MacIntel,60,61025ae37ef11b136ea224fe,,,,,,,,,1695,44.52148438,75.69451904,1,0,0,response1disk,,7,6.896179199,7.341369629,1,0,0,rectangle,6.896179199,7.341369629,1,0,0,6.896179199,7.341369629,1,0,0,0,70,70,45,1,,,,,,,,
,,,,,,,,,,,,,FF,,,,,,,,1.432895,,,,,,,,,,,,,,,,,,,,,,60fcfaa636cc384f059f960d,61036e105257ad60f1dc32e0,2021-07-29_23h12.41.888,Simcolourproject_2stim_asymm_v5,2020.2.10,MacIntel,60,61025ae37ef11b136ea224fe,,,,,,,,,1660,53.53735352,-74.20391846,1,0,0,response3disk,,4,3.581298828,0.29699707,1,0,0,rectangle,3.581298828,0.29699707,1,0,0,3.581298828,0.29699707,1,0,0,0,71,71,14,1,,,,,,,,
,,,,,,,,,,,,,FF,,,,,,,,0.68468,,,,,,,,,,,,,,,,,,,,,,60fcfaa636cc384f059f960d,61036e105257ad60f1dc32e0,2021-07-29_23h12.41.888,Simcolourproject_2stim_asymm_v5,2020.2.10,MacIntel,60,61025ae37ef11b136ea224fe,,,,,,,,,1579,37.06799316,-98.20153809,1,0,0,response3disk,,4,0.529785156,0.8387146,1,0,0,rectangle,0.529785156,0.8387146,1,0,0,0.529785156,0.8387146,1,0,0,0,72,72,138,1,,,,,,,,
,,,,,,,,,,,,,FF,,,,,,,,1.11698,,,,,,,,,,,,,,,,,,,,,,60fcfaa636cc384f059f960d,61036e105257ad60f1dc32e0,2021-07-29_23h12.41.888,Simcolourproject_2stim_asymm_v5,2020.2.10,MacIntel,60,61025ae37ef11b136ea224fe,,,,,,,,,1652,88.56463623,41.51126099,1,0,0,response1disk,,6,-16.23095703,3.973999023,1,0,0,rectangle,-16.23095703,3.973999023,1,0,0,-16.23095703,3.973999023,1,0,0,0,73,73,81,1,,,,,,,,
,,,,,,,,,,,,,FF,,,,,,,,0.683825,,,,,,,,,,,,,,,,,,,,,,60fcfaa636cc384f059f960d,61036e105257ad60f1dc32e0,2021-07-29_23h12.41.888,Simcolourproject_2stim_asymm_v5,2020.2.10,MacIntel,60,61025ae37ef11b136ea224fe,,,,,,,,,1609,-42.24902344,66.55090332,1,0,0,response7disk,,0,-11.11157227,2.585205078,1,0,0,rectangle,-11.11157227,2.585205078,1,0,0,-11.11157227,2.585205078,1,0,0,0,74,74,127,1,,,,,,,,
,,,,,,,,,,,,,FF,,,,,,,,1.483195,,,,,,,,,,,,,,,,,,,,,,60fcfaa636cc384f059f960d,61036e105257ad60f1dc32e0,2021-07-29_23h12.41.888,Simcolourproject_2stim_asymm_v5,2020.2.10,MacIntel,60,61025ae37ef11b136ea224fe,,,,,,,,,2801,87.20440674,-70.51391602,1,0,0,response3disk,,5,8.838684082,1.396362305,1,0,0,rectangle,8.838684082,1.396362305,1,0,0,8.838684082,1.396362305,1,0,0,0,75,75,140,1,,,,,,,,
,,,,,,,,,,,,,FF,,,,,,,,0.7001,,,,,,,,,,,,,,,,,,,,,,60fcfaa636cc384f059f960d,61036e105257ad60f1dc32e0,2021-07-29_23h12.41.888,Simcolourproject_2stim_asymm_v5,2020.2.10,MacIntel,60,61025ae37ef11b136ea224fe,,,,,,,,,712,73.99853516,-97.8359375,1,0,0,response3disk,,4,17.42364502,-0.232910156,1,0,0,rectangle,17.42364502,-0.232910156,1,0,0,17.42364502,-0.232910156,1,0,0,0,76,76,3,1,,,,,,,,
,,,,,,,,,,,,,FF,,,,,,,,0.650355,,,,,,,,,,,,,,,,,,,,,,60fcfaa636cc384f059f960d,61036e105257ad60f1dc32e0,2021-07-29_23h12.41.888,Simcolourproject_2stim_asymm_v5,2020.2.10,MacIntel,60,61025ae37ef11b136ea224fe,,,,,,,,,3020,70.59851074,34.25860596,1,0,0,response1disk,,6,-5.105224609,10.62353516,1,0,0,rectangle,-5.105224609,10.62353516,1,0,0,-5.105224609,10.62353516,1,0,0,0,77,77,103,1,,,,,,,,
,,,,,,,,,,,,,FF,,,,,,,,1.017215,,,,,,,,,,,,,,,,,,,,,,60fcfaa636cc384f059f960d,61036e105257ad60f1dc32e0,2021-07-29_23h12.41.888,Simcolourproject_2stim_asymm_v5,2020.2.10,MacIntel,60,61025ae37ef11b136ea224fe,,,,,,,,,1531,49.19750977,-89.48254395,1,0,0,response3disk,,4,8.193115234,6.040771484,1,0,0,rectangle,8.193115234,6.040771484,1,0,0,8.193115234,6.040771484,1,0,0,0,78,78,155,1,,,,,,,,
,,,,,,,,,,,,,FF,,,,,,,,0.749805,,,,,,,,,,,,,,,,,,,,,,60fcfaa636cc384f059f960d,61036e105257ad60f1dc32e0,2021-07-29_23h12.41.888,Simcolourproject_2stim_asymm_v5,2020.2.10,MacIntel,60,61025ae37ef11b136ea224fe,,,,,,,,,3352,46.31292725,106.7826538,1,0,0,response1disk,,7,11.0569458,-3.40447998,1,0,0,rectangle,11.0569458,-3.40447998,1,0,0,11.0569458,-3.40447998,1,0,0,0,79,79,43,1,,,,,,,,
,,,,,,,,,,,,,FF,,,,,,,,0.88305,,,,,,,,,,,,,,,,,,,,,,60fcfaa636cc384f059f960d,61036e105257ad60f1dc32e0,2021-07-29_23h12.41.888,Simcolourproject_2stim_asymm_v5,2020.2.10,MacIntel,60,61025ae37ef11b136ea224fe,,,,,,,,,1677,-54.5892334,31.96334839,1,0,0,response7disk,,1,-2.840454102,5.782531738,1,0,0,rectangle,-2.840454102,5.782531738,1,0,0,-2.840454102,5.782531738,1,0,0,0,80,80,146,1,,,,,,,,
,,,,,,,,,,,,,FF,,,,,,,,1.19941,,,,,,,,,,,,,,,,,,,,,,60fcfaa636cc384f059f960d,61036e105257ad60f1dc32e0,2021-07-29_23h12.41.888,Simcolourproject_2stim_asymm_v5,2020.2.10,MacIntel,60,61025ae37ef11b136ea224fe,,,,,,,,,3724,65.29302979,-87.76165771,1,0,0,response3disk,,4,0.233642578,2.320861816,1,0,0,rectangle,0.233642578,2.320861816,1,0,0,0.233642578,2.320861816,1,0,0,0,81,81,73,1,,,,,,,,
,,,,,,,,,,,,,FF,,,,,,,,1.533445,,,,,,,,,,,,,,,,,,,,,,60fcfaa636cc384f059f960d,61036e105257ad60f1dc32e0,2021-07-29_23h12.41.888,Simcolourproject_2stim_asymm_v5,2020.2.10,MacIntel,60,61025ae37ef11b136ea224fe,,,,,,,,,3796,42.33508301,-79.8972168,1,0,0,response3disk,,4,6.112670898,-5.129119873,1,0,0,rectangle,6.112670898,-5.129119873,1,0,0,6.112670898,-5.129119873,1,0,0,0,82,82,97,1,,,,,,,,
,,,,,,,,,,,,,FF,,,,,,,,0.69897,,,,,,,,,,,,,,,,,,,,,,60fcfaa636cc384f059f960d,61036e105257ad60f1dc32e0,2021-07-29_23h12.41.888,Simcolourproject_2stim_asymm_v5,2020.2.10,MacIntel,60,61025ae37ef11b136ea224fe,,,,,,,,,2558,77.36437988,40.02804565,1,0,0,response1disk,,6,3.05670166,-3.87210083,1,0,0,rectangle,3.05670166,-3.87210083,1,0,0,3.05670166,-3.87210083,1,0,0,0,83,83,31,1,,,,,,,,
,,,,,,,,,,,,,FF,,,,,,,,0.700645,,,,,,,,,,,,,,,,,,,,,,60fcfaa636cc384f059f960d,61036e105257ad60f1dc32e0,2021-07-29_23h12.41.888,Simcolourproject_2stim_asymm_v5,2020.2.10,MacIntel,60,61025ae37ef11b136ea224fe,,,,,,,,,1474,76.79437256,-59.14282227,1,0,0,response3disk,,5,7.76184082,3.129180908,1,0,0,rectangle,7.76184082,3.129180908,1,0,0,7.76184082,3.129180908,1,0,0,0,84,84,32,1,,,,,,,,
,,,,,,,,,,,,,FF,,,,,,,,0.61699,,,,,,,,,,,,,,,,,,,,,,60fcfaa636cc384f059f960d,61036e105257ad60f1dc32e0,2021-07-29_23h12.41.888,Simcolourproject_2stim_asymm_v5,2020.2.10,MacIntel,60,61025ae37ef11b136ea224fe,,,,,,,,,1110,86.35595703,-34.7109375,1,0,0,response3disk,,5,12.39916992,-4.395111084,1,0,0,rectangle,12.39916992,-4.395111084,1,0,0,12.39916992,-4.395111084,1,0,0,0,85,85,42,1,,,,,,,,
,,,,,,,,,,,,,FF,,,,,,,,0.567575,,,,,,,,,,,,,,,,,,,,,,60fcfaa636cc384f059f960d,61036e105257ad60f1dc32e0,2021-07-29_23h12.41.888,Simcolourproject_2stim_asymm_v5,2020.2.10,MacIntel,60,61025ae37ef11b136ea224fe,,,,,,,,,941,72.21447754,-37.86212158,1,0,0,response3disk,,5,7.19921875,-9.109863281,1,0,0,rectangle,7.19921875,-9.109863281,1,0,0,7.19921875,-9.109863281,1,0,0,0,86,86,36,1,,,,,,,,
,,,,,,,,,,,,,FF,,,,,,,,1.53366,,,,,,,,,,,,,,,,,,,,,,60fcfaa636cc384f059f960d,61036e105257ad60f1dc32e0,2021-07-29_23h12.41.888,Simcolourproject_2stim_asymm_v5,2020.2.10,MacIntel,60,61025ae37ef11b136ea224fe,,,,,,,,,2350,96.59716797,63.77185059,1,0,0,response1disk,,6,15.17224121,4.525268555,1,0,0,rectangle,15.17224121,4.525268555,1,0,0,15.17224121,4.525268555,1,0,0,0,87,87,149,1,,,,,,,,
,,,,,,,,,,,,,FF,,,,,,,,0.917105,,,,,,,,,,,,,,,,,,,,,,60fcfaa636cc384f059f960d,61036e105257ad60f1dc32e0,2021-07-29_23h12.41.888,Simcolourproject_2stim_asymm_v5,2020.2.10,MacIntel,60,61025ae37ef11b136ea224fe,,,,,,,,,3627,54.58666992,-90.97839355,1,0,0,response3disk,,4,5.297302246,1.286682129,1,0,0,rectangle,5.297302246,1.286682129,1,0,0,5.297302246,1.286682129,1,0,0,0,88,88,86,1,,,,,,,,
,,,,,,,,,,,,,FF,,,,,,,,1.08389,,,,,,,,,,,,,,,,,,,,,,60fcfaa636cc384f059f960d,61036e105257ad60f1dc32e0,2021-07-29_23h12.41.888,Simcolourproject_2stim_asymm_v5,2020.2.10,MacIntel,60,61025ae37ef11b136ea224fe,,,,,,,,,997,94.20318604,-55.69665527,1,0,0,response3disk,,5,7.624267578,-2.0234375,1,0,0,rectangle,43.12432861,98.20495605,1,0,0,12.60150146,4.053649902,1,0,0,0,89,89,148,1,,response1disk_3,TRUE,7,7,"[51,6,236,92,252,235,157,304,90,154,69,30,145,100,25,155,68,226,21,214]",1.166445,rectangle
,,,,,,,,,,,,,FF,,,,,,,,2.100005,,,,,,,,,,,,,,,,,,,,,,60fcfaa636cc384f059f960d,61036e105257ad60f1dc32e0,2021-07-29_23h12.41.888,Simcolourproject_2stim_asymm_v5,2020.2.10,MacIntel,60,61025ae37ef11b136ea224fe,,,,,,,,,2690,48.99212646,-95.77233887,1,0,0,response3disk,,4,2.016601563,1.825256348,1,0,0,rectangle,2.016601563,1.825256348,1,0,0,2.016601563,1.825256348,1,0,0,0,90,90,33,1,,,,,,,,
,,,,,,,,,,,,,FF,,,,,,,,0.78447,,,,,,,,,,,,,,,,,,,,,,60fcfaa636cc384f059f960d,61036e105257ad60f1dc32e0,2021-07-29_23h12.41.888,Simcolourproject_2stim_asymm_v5,2020.2.10,MacIntel,60,61025ae37ef11b136ea224fe,,,,,,,,,3506,-82.57299805,-47.94888306,1,0,0,response5disk,,2,-5.904968262,-9.719421387,1,0,0,rectangle,88.0614624,57.16033936,1,0,0,18.39599609,7.154266357,1,0,0,0,91,91,61,1,,response1disk_3,TRUE,6,6,"[51,6,236,92,252,235,157,304,90,154,69,30,145,100,25,155,68,226,21,214]",1.34877,rectangle
,,,,,,,,,,,,,FF,,,,,,,,0.717165,,,,,,,,,,,,,,,,,,,,,,60fcfaa636cc384f059f960d,61036e105257ad60f1dc32e0,2021-07-29_23h12.41.888,Simcolourproject_2stim_asymm_v5,2020.2.10,MacIntel,60,61025ae37ef11b136ea224fe,,,,,,,,,3942,-53.79620361,-62.25482178,1,0,0,response5disk,,3,-14.55639648,-1.203979492,1,0,0,rectangle,-14.55639648,-1.203979492,1,0,0,-14.55639648,-1.203979492,1,0,0,0,92,92,152,1,,,,,,,,
,,,,,,,,,,,,,FF,,,,,,,,0.60116,,,,,,,,,,,,,,,,,,,,,,60fcfaa636cc384f059f960d,61036e105257ad60f1dc32e0,2021-07-29_23h12.41.888,Simcolourproject_2stim_asymm_v5,2020.2.10,MacIntel,60,61025ae37ef11b136ea224fe,,,,,,,,,3396,-39.38812256,-78.66741943,1,0,0,response5disk,,3,-10.19848633,-6.344238281,1,0,0,rectangle,-10.19848633,-6.344238281,1,0,0,-10.19848633,-6.344238281,1,0,0,0,93,93,19,1,,,,,,,,
,,,,,,,,,,,,,FF,,,,,,,,0.73323,,,,,,,,,,,,,,,,,,,,,,60fcfaa636cc384f059f960d,61036e105257ad60f1dc32e0,2021-07-29_23h12.41.888,Simcolourproject_2stim_asymm_v5,2020.2.10,MacIntel,60,61025ae37ef11b136ea224fe,,,,,,,,,1059,37.67468262,-75.4095459,1,0,0,response3disk,,4,19.4119873,3.316223145,1,0,0,rectangle,19.4119873,3.316223145,1,0,0,19.4119873,3.316223145,1,0,0,0,94,94,107,1,,,,,,,,
,,,,,,,,,,,,,FF,,,,,,,,0.5657,,,,,,,,,,,,,,,,,,,,,,60fcfaa636cc384f059f960d,61036e105257ad60f1dc32e0,2021-07-29_23h12.41.888,Simcolourproject_2stim_asymm_v5,2020.2.10,MacIntel,60,61025ae37ef11b136ea224fe,,,,,,,,,428,88.2522583,-43.25054932,1,0,0,response3disk,,5,11.77618408,-4.398284912,1,0,0,rectangle,11.77618408,-4.398284912,1,0,0,11.77618408,-4.398284912,1,0,0,0,95,95,141,1,,,,,,,,
,,,,,,,,,,,,,FF,,,,,,,,0.683335,,,,,,,,,,,,,,,,,,,,,,60fcfaa636cc384f059f960d,61036e105257ad60f1dc32e0,2021-07-29_23h12.41.888,Simcolourproject_2stim_asymm_v5,2020.2.10,MacIntel,60,61025ae37ef11b136ea224fe,,,,,,,,,1844,95.87640381,-32.30096436,1,0,0,response3disk,,5,9.478942871,0.919647217,1,0,0,rectangle,9.478942871,0.919647217,1,0,0,9.478942871,0.919647217,1,0,0,0,96,96,51,1,,,,,,,,
,,,,,,,,,,,,,FF,,,,,,,,0.865515,,,,,,,,,,,,,,,,,,,,,,60fcfaa636cc384f059f960d,61036e105257ad60f1dc32e0,2021-07-29_23h12.41.888,Simcolourproject_2stim_asymm_v5,2020.2.10,MacIntel,60,61025ae37ef11b136ea224fe,,,,,,,,,3106,-49.92242432,-58.9085083,1,0,0,response5disk,,3,-9.445861816,-1.835144043,1,0,0,rectangle,-9.445861816,-1.835144043,1,0,0,-9.445861816,-1.835144043,1,0,0,0,97,97,101,1,,,,,,,,
,,,,,,,,,,,,,FF,,,,,,,,0.53366,,,,,,,,,,,,,,,,,,,,,,60fcfaa636cc384f059f960d,61036e105257ad60f1dc32e0,2021-07-29_23h12.41.888,Simcolourproject_2stim_asymm_v5,2020.2.10,MacIntel,60,61025ae37ef11b136ea224fe,,,,,,,,,3438,-46.43945313,-92.64105225,1,0,0,response5disk,,3,2.197509766,11.72827148,1,0,0,rectangle,2.197509766,11.72827148,1,0,0,2.197509766,11.72827148,1,0,0,0,98,98,92,1,,,,,,,,
,,,,,,,,,,,,,FF,,,,,,,,0.615985,,,,,,,,,,,,,,,,,,,,,,60fcfaa636cc384f059f960d,61036e105257ad60f1dc32e0,2021-07-29_23h12.41.888,Simcolourproject_2stim_asymm_v5,2020.2.10,MacIntel,60,61025ae37ef11b136ea224fe,,,,,,,,,1395,64.41210938,54.0269165,1,0,0,response1disk,,6,-1.940368652,-1.986450195,1,0,0,rectangle,83.92797852,40.64627075,1,0,0,26.18865967,9.276733398,1,0,0,0,99,99,144,1,,response1disk_3,TRUE,6,6,"[51,6,236,92,252,235,157,304,90,154,69,30,145,100,25,155,68,226,21,214]",1.68406,rectangle
,,,,,,,,,,,,,FF,,,,,,,,0.63369,,,,,,,,,,,,,,,,,,,,,,60fcfaa636cc384f059f960d,61036e105257ad60f1dc32e0,2021-07-29_23h12.41.888,Simcolourproject_2stim_asymm_v5,2020.2.10,MacIntel,60,61025ae37ef11b136ea224fe,,,,,,,,,4084,86.83465576,46.06933594,1,0,0,response1disk,,6,6.080993652,4.635437012,1,0,0,rectangle,6.080993652,4.635437012,1,0,0,6.080993652,4.635437012,1,0,0,0,100,100,57,1,,,,,,,,
,,,,,,,,,,,,,FF,,,,,,,,0.4832,,,,,,,,,,,,,,,,,,,,,,60fcfaa636cc384f059f960d,61036e105257ad60f1dc32e0,2021-07-29_23h12.41.888,Simcolourproject_2stim_asymm_v5,2020.2.10,MacIntel,60,61025ae37ef11b136ea224fe,,,,,,,,,1874,80.68945313,38.45053101,1,0,0,response1disk,,6,12.83312988,-0.861999512,1,0,0,rectangle,12.83312988,-0.861999512,1,0,0,12.83312988,-0.861999512,1,0,0,0,101,101,95,1,,,,,,,,
,,,,,,,,,,,,,FF,,,,,,,,0.8174,,,,,,,,,,,,,,,,,,,,,,60fcfaa636cc384f059f960d,61036e105257ad60f1dc32e0,2021-07-29_23h12.41.888,Simcolourproject_2stim_asymm_v5,2020.2.10,MacIntel,60,61025ae37ef11b136ea224fe,,,,,,,,,3850,-42.43432617,-98.71118164,1,0,0,response5disk,,3,1.018554688,-16.27130127,1,0,0,rectangle,1.018554688,-16.27130127,1,0,0,1.018554688,-16.27130127,1,0,0,0,102,102,25,1,,,,,,,,
,,,,,,,,,,,,,FF,,,,,,,,0.60003,,,,,,,,,,,,,,,,,,,,,,60fcfaa636cc384f059f960d,61036e105257ad60f1dc32e0,2021-07-29_23h12.41.888,Simcolourproject_2stim_asymm_v5,2020.2.10,MacIntel,60,61025ae37ef11b136ea224fe,,,,,,,,,2832,-61.89117432,-30.86175537,1,0,0,response5disk,,2,-7.206542969,-8.859008789,1,0,0,rectangle,-7.206542969,-8.859008789,1,0,0,-7.206542969,-8.859008789,1,0,0,0,103,103,105,1,,,,,,,,
,,,,,,,,,,,,,FF,,,,,,,,1.23374,,,,,,,,,,,,,,,,,,,,,,60fcfaa636cc384f059f960d,61036e105257ad60f1dc32e0,2021-07-29_23h12.41.888,Simcolourproject_2stim_asymm_v5,2020.2.10,MacIntel,60,61025ae37ef11b136ea224fe,,,,,,,,,2267,54.63946533,77.63122559,1,0,0,response1disk,,7,11.66375732,4.668334961,1,0,0,rectangle,11.66375732,4.668334961,1,0,0,11.66375732,4.668334961,1,0,0,0,104,104,124,1,,,,,,,,
,,,,,,,,,,,,,FF,,,,,,,,0.734025,,,,,,,,,,,,,,,,,,,,,,60fcfaa636cc384f059f960d,61036e105257ad60f1dc32e0,2021-07-29_23h12.41.888,Simcolourproject_2stim_asymm_v5,2020.2.10,MacIntel,60,61025ae37ef11b136ea224fe,,,,,,,,,652,71.49890137,-60.48413086,1,0,0,response3disk,,5,3.239929199,-9.565917969,1,0,0,rectangle,3.239929199,-9.565917969,1,0,0,3.239929199,-9.565917969,1,0,0,0,105,105,106,1,,,,,,,,
,,,,,,,,,,,,,FF,,,,,,,,1.083405,,,,,,,,,,,,,,,,,,,,,,60fcfaa636cc384f059f960d,61036e105257ad60f1dc32e0,2021-07-29_23h12.41.888,Simcolourproject_2stim_asymm_v5,2020.2.10,MacIntel,60,61025ae37ef11b136ea224fe,,,,,,,,,492,112.2227783,61.1383667,1,0,0,response1disk,,6,12.14202881,10.6239624,1,0,0,rectangle,12.14202881,10.6239624,1,0,0,12.14202881,10.6239624,1,0,0,0,106,106,67,1,,,,,,,,
,,,,,,,,,,,,,FF,,,,,,,,0.433505,,,,,,,,,,,,,,,,,,,,,,60fcfaa636cc384f059f960d,61036e105257ad60f1dc32e0,2021-07-29_23h12.41.888,Simcolourproject_2stim_asymm_v5,2020.2.10,MacIntel,60,61025ae37ef11b136ea224fe,,,,,,,,,2493,71.30310059,54.94628906,1,0,0,response1disk,,6,1.717285156,3.981658936,1,0,0,rectangle,1.717285156,3.981658936,1,0,0,1.717285156,3.981658936,1,0,0,0,107,107,28,1,,,,,,,,
,,,,,,,,,,,,,FF,,,,,,,,0.632945,,,,,,,,,,,,,,,,,,,,,,60fcfaa636cc384f059f960d,61036e105257ad60f1dc32e0,2021-07-29_23h12.41.888,Simcolourproject_2stim_asymm_v5,2020.2.10,MacIntel,60,61025ae37ef11b136ea224fe,,,,,,,,,60,75.03973389,45.15509033,1,0,0,response1disk,,6,18.58123779,7.660827637,1,0,0,rectangle,18.58123779,7.660827637,1,0,0,18.58123779,7.660827637,1,0,0,0,108,108,150,1,,,,,,,,
,,,,,,,,,,,,,FF,,,,,,,,0.468125,,,,,,,,,,,,,,,,,,,,,,60fcfaa636cc384f059f960d,61036e105257ad60f1dc32e0,2021-07-29_23h12.41.888,Simcolourproject_2stim_asymm_v5,2020.2.10,MacIntel,60,61025ae37ef11b136ea224fe,,,,,,,,,3486,51.10375977,40.7590332,1,0,0,response1disk,,6,19.64831543,11.90240479,1,0,0,rectangle,19.64831543,11.90240479,1,0,0,19.64831543,11.90240479,1,0,0,0,109,109,121,1,,,,,,,,
,,,,,,,,,,,,,FF,,,,,,,,0.76666,,,,,,,,,,,,,,,,,,,,,,60fcfaa636cc384f059f960d,61036e105257ad60f1dc32e0,2021-07-29_23h12.41.888,Simcolourproject_2stim_asymm_v5,2020.2.10,MacIntel,60,61025ae37ef11b136ea224fe,,,,,,,,,907,-36.61468506,-74.92810059,1,0,0,response5disk,,3,8.313354492,-6.353271484,1,0,0,rectangle,8.313354492,-6.353271484,1,0,0,8.313354492,-6.353271484,1,0,0,0,110,110,113,1,,,,,,,,
,,,,,,,,,,,,,FF,,,,,,,,0.91832,,,,,,,,,,,,,,,,,,,,,,60fcfaa636cc384f059f960d,61036e105257ad60f1dc32e0,2021-07-29_23h12.41.888,Simcolourproject_2stim_asymm_v5,2020.2.10,MacIntel,60,61025ae37ef11b136ea224fe,,,,,,,,,2577,61.65325928,-53.99673462,1,0,0,response3disk,,5,10.68438721,-1.945404053,1,0,0,rectangle,10.68438721,-1.945404053,1,0,0,10.68438721,-1.945404053,1,0,0,0,111,111,62,1,,,,,,,,
,,,,,,,,,,,,,FF,,,,,,,,0.50028,,,,,,,,,,,,,,,,,,,,,,60fcfaa636cc384f059f960d,61036e105257ad60f1dc32e0,2021-07-29_23h12.41.888,Simcolourproject_2stim_asymm_v5,2020.2.10,MacIntel,60,61025ae37ef11b136ea224fe,,,,,,,,,2151,70.66223145,-38.38305664,1,0,0,response3disk,,5,21.22662354,-14.24041748,1,0,0,rectangle,21.22662354,-14.24041748,1,0,0,21.22662354,-14.24041748,1,0,0,0,112,112,117,1,,,,,,,,
,,,,,,,,,,,,,FF,,,,,,,,1.1674,,,,,,,,,,,,,,,,,,,,,,60fcfaa636cc384f059f960d,61036e105257ad60f1dc32e0,2021-07-29_23h12.41.888,Simcolourproject_2stim_asymm_v5,2020.2.10,MacIntel,60,61025ae37ef11b136ea224fe,,,,,,,,,1289,80.37823486,50.31970215,1,0,0,response1disk,,6,8.626037598,4.238464355,1,0,0,rectangle,8.626037598,4.238464355,1,0,0,8.626037598,4.238464355,1,0,0,0,113,113,111,1,,,,,,,,
,,,,,,,,,,,,,FF,,,,,,,,1.166105,,,,,,,,,,,,,,,,,,,,,,60fcfaa636cc384f059f960d,61036e105257ad60f1dc32e0,2021-07-29_23h12.41.888,Simcolourproject_2stim_asymm_v5,2020.2.10,MacIntel,60,61025ae37ef11b136ea224fe,,,,,,,,,3620,39.28356934,73.67199707,1,0,0,response1disk,,7,6.17010498,0.016662598,1,0,0,rectangle,6.17010498,0.016662598,1,0,0,6.17010498,0.016662598,1,0,0,0,114,114,29,1,,,,,,,,
,,,,,,,,,,,,,FF,,,,,,,,0.700475,,,,,,,,,,,,,,,,,,,,,,60fcfaa636cc384f059f960d,61036e105257ad60f1dc32e0,2021-07-29_23h12.41.888,Simcolourproject_2stim_asymm_v5,2020.2.10,MacIntel,60,61025ae37ef11b136ea224fe,,,,,,,,,3029,91.34057617,46.60873413,1,0,0,response1disk,,6,19.324646,5.535552979,1,0,0,rectangle,19.324646,5.535552979,1,0,0,19.324646,5.535552979,1,0,0,0,115,115,16,1,,,,,,,,
,,,,,,,,,,,,,FF,,,,,,,,0.700445,,,,,,,,,,,,,,,,,,,,,,60fcfaa636cc384f059f960d,61036e105257ad60f1dc32e0,2021-07-29_23h12.41.888,Simcolourproject_2stim_asymm_v5,2020.2.10,MacIntel,60,61025ae37ef11b136ea224fe,,,,,,,,,1956,-61.62512207,50.90216064,1,0,0,response7disk,,1,-19.09448242,5.738800049,1,0,0,rectangle,-19.09448242,5.738800049,1,0,0,-19.09448242,5.738800049,1,0,0,0,116,116,64,1,,,,,,,,
,,,,,,,,,,,,,FF,,,,,,,,0.69949,,,,,,,,,,,,,,,,,,,,,,60fcfaa636cc384f059f960d,61036e105257ad60f1dc32e0,2021-07-29_23h12.41.888,Simcolourproject_2stim_asymm_v5,2020.2.10,MacIntel,60,61025ae37ef11b136ea224fe,,,,,,,,,510,69.74627686,47.15499878,1,0,0,response1disk,,6,10.54229736,5.164611816,1,0,0,rectangle,10.54229736,5.164611816,1,0,0,10.54229736,5.164611816,1,0,0,0,117,117,20,1,,,,,,,,
,,,,,,,,,,,,,FF,,,,,,,,0.51323,,,,,,,,,,,,,,,,,,,,,,60fcfaa636cc384f059f960d,61036e105257ad60f1dc32e0,2021-07-29_23h12.41.888,Simcolourproject_2stim_asymm_v5,2020.2.10,MacIntel,60,61025ae37ef11b136ea224fe,,,,,,,,,3210,79.13220215,-41.35302734,1,0,0,response3disk,,5,-20.66998291,-1.6328125,1,0,0,rectangle,-20.66998291,-1.6328125,1,0,0,-20.66998291,-1.6328125,1,0,0,0,118,118,7,1,,,,,,,,
,,,,,,,,,,,,,FF,,,,,,,,0.599445,,,,,,,,,,,,,,,,,,,,,,60fcfaa636cc384f059f960d,61036e105257ad60f1dc32e0,2021-07-29_23h12.41.888,Simcolourproject_2stim_asymm_v5,2020.2.10,MacIntel,60,61025ae37ef11b136ea224fe,,,,,,,,,815,64.35571289,-32.19039917,1,0,0,response3disk,,5,6.216247559,-10.78518677,1,0,0,rectangle,6.216247559,-10.78518677,1,0,0,6.216247559,-10.78518677,1,0,0,0,119,119,109,1,,,,,,,,
,,,,,,,,,,,,,FF,,,,,,,,0.949495,,,,,,,,,,,,,,,,,,,,,,60fcfaa636cc384f059f960d,61036e105257ad60f1dc32e0,2021-07-29_23h12.41.888,Simcolourproject_2stim_asymm_v5,2020.2.10,MacIntel,60,61025ae37ef11b136ea224fe,,,,,,,,,3317,82.72167969,44.53317261,1,0,0,response1disk,,6,10.40374756,4.331604004,1,0,0,rectangle,10.40374756,4.331604004,1,0,0,10.40374756,4.331604004,1,0,0,0,120,120,76,1,,,,,,,,
,,,,,,,,,,,,,FF,,,,,,,,0.835385,,,,,,,,,,,,,,,,,,,,,,60fcfaa636cc384f059f960d,61036e105257ad60f1dc32e0,2021-07-29_23h12.41.888,Simcolourproject_2stim_asymm_v5,2020.2.10,MacIntel,60,61025ae37ef11b136ea224fe,,,,,,,,,64,76.04071045,-55.58886719,1,0,0,response3disk,,5,5.985107422,-4.521911621,1,0,0,rectangle,5.985107422,-4.521911621,1,0,0,5.985107422,-4.521911621,1,0,0,0,121,121,30,1,,,,,,,,
,,,,,,,,,,,,,FF,,,,,,,,0.566875,,,,,,,,,,,,,,,,,,,,,,60fcfaa636cc384f059f960d,61036e105257ad60f1dc32e0,2021-07-29_23h12.41.888,Simcolourproject_2stim_asymm_v5,2020.2.10,MacIntel,60,61025ae37ef11b136ea224fe,,,,,,,,,873,72.66455078,-32.72369385,1,0,0,response3disk,,5,14.14916992,-2.959350586,1,0,0,rectangle,14.14916992,-2.959350586,1,0,0,14.14916992,-2.959350586,1,0,0,0,122,122,110,1,,,,,,,,
,,,,,,,,,,,,,FF,,,,,,,,0.75104,,,,,,,,,,,,,,,,,,,,,,60fcfaa636cc384f059f960d,61036e105257ad60f1dc32e0,2021-07-29_23h12.41.888,Simcolourproject_2stim_asymm_v5,2020.2.10,MacIntel,60,61025ae37ef11b136ea224fe,,,,,,,,,2552,98.9206543,43.67926025,1,0,0,response1disk,,6,9.850219727,11.58209229,1,0,0,rectangle,9.850219727,11.58209229,1,0,0,9.850219727,11.58209229,1,0,0,0,123,123,13,1,,,,,,,,
,,,,,,,,,,,,,FF,,,,,,,,0.56676,,,,,,,,,,,,,,,,,,,,,,60fcfaa636cc384f059f960d,61036e105257ad60f1dc32e0,2021-07-29_23h12.41.888,Simcolourproject_2stim_asymm_v5,2020.2.10,MacIntel,60,61025ae37ef11b136ea224fe,,,,,,,,,2624,41.18218994,59.79681396,1,0,0,response1disk,,7,5.237243652,-10.37890625,1,0,0,rectangle,5.237243652,-10.37890625,1,0,0,5.237243652,-10.37890625,1,0,0,0,124,124,66,1,,,,,,,,
,,,,,,,,,,,,,FF,,,,,,,,0.933,,,,,,,,,,,,,,,,,,,,,,60fcfaa636cc384f059f960d,61036e105257ad60f1dc32e0,2021-07-29_23h12.41.888,Simcolourproject_2stim_asymm_v5,2020.2.10,MacIntel,60,61025ae37ef11b136ea224fe,,,,,,,,,1070,63.23413086,-98.07836914,1,0,0,response3disk,,4,5.21307373,5.27331543,1,0,0,rectangle,5.21307373,5.27331543,1,0,0,5.21307373,5.27331543,1,0,0,0,125,125,84,1,,,,,,,,
,,,,,,,,,,,,,FF,,,,,,,,0.68325,,,,,,,,,,,,,,,,,,,,,,60fcfaa636cc384f059f960d,61036e105257ad60f1dc32e0,2021-07-29_23h12.41.888,Simcolourproject_2stim_asymm_v5,2020.2.10,MacIntel,60,61025ae37ef11b136ea224fe,,,,,,,,,4181,-61.62036133,46.21862793,1,0,0,response7disk,,1,-18.52429199,12.14770508,1,0,0,rectangle,-18.52429199,12.14770508,1,0,0,-18.52429199,12.14770508,1,0,0,0,126,126,90,1,,,,,,,,
,,,,,,,,,,,,,FF,,,,,,,,0.59897,,,,,,,,,,,,,,,,,,,,,,60fcfaa636cc384f059f960d,61036e105257ad60f1dc32e0,2021-07-29_23h12.41.888,Simcolourproject_2stim_asymm_v5,2020.2.10,MacIntel,60,61025ae37ef11b136ea224fe,,,,,,,,,452,95.94610596,-31.08178711,1,0,0,response3disk,,5,29.00744629,-5.104553223,1,0,0,rectangle,29.00744629,-5.104553223,1,0,0,29.00744629,-5.104553223,1,0,0,0,127,127,63,1,,,,,,,,
,,,,,,,,,,,,,FF,,,,,,,,0.63388,,,,,,,,,,,,,,,,,,,,,,60fcfaa636cc384f059f960d,61036e105257ad60f1dc32e0,2021-07-29_23h12.41.888,Simcolourproject_2stim_asymm_v5,2020.2.10,MacIntel,60,61025ae37ef11b136ea224fe,,,,,,,,,1635,67.20794678,31.46862793,1,0,0,response1disk,,6,13.35095215,-3.588409424,1,0,0,rectangle,13.35095215,-3.588409424,1,0,0,13.35095215,-3.588409424,1,0,0,0,128,128,26,1,,,,,,,,
,,,,,,,,,,,,,FF,,,,,,,,0.633525,,,,,,,,,,,,,,,,,,,,,,60fcfaa636cc384f059f960d,61036e105257ad60f1dc32e0,2021-07-29_23h12.41.888,Simcolourproject_2stim_asymm_v5,2020.2.10,MacIntel,60,61025ae37ef11b136ea224fe,,,,,,,,,4055,-49.93652344,-65.46710205,1,0,0,response5disk,,3,-8.748291016,-7.128601074,1,0,0,rectangle,-8.748291016,-7.128601074,1,0,0,-8.748291016,-7.128601074,1,0,0,0,129,129,21,1,,,,,,,,
,,,,,,,,,,,,,FF,,,,,,,,1.06748,,,,,,,,,,,,,,,,,,,,,,60fcfaa636cc384f059f960d,61036e105257ad60f1dc32e0,2021-07-29_23h12.41.888,Simcolourproject_2stim_asymm_v5,2020.2.10,MacIntel,60,61025ae37ef11b136ea224fe,,,,,,,,,1339,95.94573975,69.89300537,1,0,0,response1disk,,6,20.23718262,12.85302734,1,0,0,rectangle,20.23718262,12.85302734,1,0,0,20.23718262,12.85302734,1,0,0,0,130,130,71,1,,,,,,,,
,,,,,,,,,,,,,FF,,,,,,,,0.56547,,,,,,,,,,,,,,,,,,,,,,60fcfaa636cc384f059f960d,61036e105257ad60f1dc32e0,2021-07-29_23h12.41.888,Simcolourproject_2stim_asymm_v5,2020.2.10,MacIntel,60,61025ae37ef11b136ea224fe,,,,,,,,,1574,39.40612793,71.112854,1,0,0,response1disk,,7,9.661010742,-0.478271484,1,0,0,rectangle,9.661010742,-0.478271484,1,0,0,9.661010742,-0.478271484,1,0,0,0,131,131,145,1,,,,,,,,
,,,,,,,,,,,,,FF,,,,,,,,0.634955,,,,,,,,,,,,,,,,,,,,,,60fcfaa636cc384f059f960d,61036e105257ad60f1dc32e0,2021-07-29_23h12.41.888,Simcolourproject_2stim_asymm_v5,2020.2.10,MacIntel,60,61025ae37ef11b136ea224fe,,,,,,,,,982,66.68041992,-52.19381714,1,0,0,response3disk,,5,13.35760498,-2.341583252,1,0,0,rectangle,13.35760498,-2.341583252,1,0,0,13.35760498,-2.341583252,1,0,0,0,132,132,10,1,,,,,,,,
,,,,,,,,,,,,,FF,,,,,,,,0.91606,,,,,,,,,,,,,,,,,,,,,,60fcfaa636cc384f059f960d,61036e105257ad60f1dc32e0,2021-07-29_23h12.41.888,Simcolourproject_2stim_asymm_v5,2020.2.10,MacIntel,60,61025ae37ef11b136ea224fe,,,,,,,,,2901,-39.22320557,-81.86804199,1,0,0,response5disk,,3,0.815429688,17.36224365,1,0,0,rectangle,0.815429688,17.36224365,1,0,0,0.815429688,17.36224365,1,0,0,0,133,133,85,1,,,,,,,,
,,,,,,,,,,,,,FF,,,,,,,,0.74946,,,,,,,,,,,,,,,,,,,,,,60fcfaa636cc384f059f960d,61036e105257ad60f1dc32e0,2021-07-29_23h12.41.888,Simcolourproject_2stim_asymm_v5,2020.2.10,MacIntel,60,61025ae37ef11b136ea224fe,,,,,,,,,501,55.65167236,90.54315186,1,0,0,response1disk,,7,-10.12780762,-3.446105957,1,0,0,rectangle,-10.12780762,-3.446105957,1,0,0,-10.12780762,-3.446105957,1,0,0,0,134,134,24,1,,,,,,,,
,,,,,,,,,,,,,FF,,,,,,,,1.166705,,,,,,,,,,,,,,,,,,,,,,60fcfaa636cc384f059f960d,61036e105257ad60f1dc32e0,2021-07-29_23h12.41.888,Simcolourproject_2stim_asymm_v5,2020.2.10,MacIntel,60,61025ae37ef11b136ea224fe,,,,,,,,,2051,80.79736328,-21.8135376,1,0,0,response3disk,,5,22.68170166,-3.985412598,1,0,0,rectangle,22.68170166,-3.985412598,1,0,0,22.68170166,-3.985412598,1,0,0,0,135,135,104,1,,,,,,,,
,,,,,,,,,,,,,FF,,,,,,,,0.866135,,,,,,,,,,,,,,,,,,,,,,60fcfaa636cc384f059f960d,61036e105257ad60f1dc32e0,2021-07-29_23h12.41.888,Simcolourproject_2stim_asymm_v5,2020.2.10,MacIntel,60,61025ae37ef11b136ea224fe,,,,,,,,,2198,41.55285645,76.20861816,1,0,0,response1disk,,7,3.608215332,13.34960938,1,0,0,rectangle,3.608215332,13.34960938,1,0,0,3.608215332,13.34960938,1,0,0,0,136,136,93,1,,,,,,,,
,,,,,,,,,,,,,FF,,,,,,,,1.06539,,,,,,,,,,,,,,,,,,,,,,60fcfaa636cc384f059f960d,61036e105257ad60f1dc32e0,2021-07-29_23h12.41.888,Simcolourproject_2stim_asymm_v5,2020.2.10,MacIntel,60,61025ae37ef11b136ea224fe,,,,,,,,,117,68.55126953,64.05688477,1,0,0,response1disk,,6,-13.0267334,-10.13580322,1,0,0,rectangle,-13.0267334,-10.13580322,1,0,0,-13.0267334,-10.13580322,1,0,0,0,137,137,52,1,,,,,,,,
,,,,,,,,,,,,,FF,,,,,,,,0.816545,,,,,,,,,,,,,,,,,,,,,,60fcfaa636cc384f059f960d,61036e105257ad60f1dc32e0,2021-07-29_23h12.41.888,Simcolourproject_2stim_asymm_v5,2020.2.10,MacIntel,60,61025ae37ef11b136ea224fe,,,,,,,,,2195,59.95892334,43.4598999,1,0,0,response1disk,,6,16.71252441,-1.414245605,1,0,0,rectangle,16.71252441,-1.414245605,1,0,0,16.71252441,-1.414245605,1,0,0,0,138,138,1,1,,,,,,,,
,,,,,,,,,,,,,FF,,,,,,,,0.698555,,,,,,,,,,,,,,,,,,,,,,60fcfaa636cc384f059f960d,61036e105257ad60f1dc32e0,2021-07-29_23h12.41.888,Simcolourproject_2stim_asymm_v5,2020.2.10,MacIntel,60,61025ae37ef11b136ea224fe,,,,,,,,,2897,55.9430542,-74.22680664,1,0,0,response3disk,,4,23.40429688,-10.58129883,1,0,0,rectangle,23.40429688,-10.58129883,1,0,0,23.40429688,-10.58129883,1,0,0,0,139,139,119,1,,,,,,,,
,,,,,,,,,,,,,FF,,,,,,,,0.849835,,,,,,,,,,,,,,,,,,,,,,60fcfaa636cc384f059f960d,61036e105257ad60f1dc32e0,2021-07-29_23h12.41.888,Simcolourproject_2stim_asymm_v5,2020.2.10,MacIntel,60,61025ae37ef11b136ea224fe,,,,,,,,,2815,78.94799805,51.41723633,1,0,0,response1disk,,6,32.26306152,12.37686157,1,0,0,rectangle,32.26306152,12.37686157,1,0,0,32.26306152,12.37686157,1,0,0,0,140,140,135,1,,,,,,,,
,,,,,,,,,,,,,FF,,,,,,,,0.583275,,,,,,,,,,,,,,,,,,,,,,60fcfaa636cc384f059f960d,61036e105257ad60f1dc32e0,2021-07-29_23h12.41.888,Simcolourproject_2stim_asymm_v5,2020.2.10,MacIntel,60,61025ae37ef11b136ea224fe,,,,,,,,,1700,79.7701416,39.36956787,1,0,0,response1disk,,6,20.85974121,13.43603516,1,0,0,rectangle,20.85974121,13.43603516,1,0,0,20.85974121,13.43603516,1,0,0,0,141,141,12,1,,,,,,,,
,,,,,,,,,,,,,FF,,,,,,,,0.6347,,,,,,,,,,,,,,,,,,,,,,60fcfaa636cc384f059f960d,61036e105257ad60f1dc32e0,2021-07-29_23h12.41.888,Simcolourproject_2stim_asymm_v5,2020.2.10,MacIntel,60,61025ae37ef11b136ea224fe,,,,,,,,,4023,36.84729004,60.27606201,1,0,0,response1disk,,7,-2.649536133,10.19760132,1,0,0,rectangle,-2.649536133,10.19760132,1,0,0,-2.649536133,10.19760132,1,0,0,0,142,142,133,1,,,,,,,,
,,,,,,,,,,,,,FF,,,,,,,,0.6828,,,,,,,,,,,,,,,,,,,,,,60fcfaa636cc384f059f960d,61036e105257ad60f1dc32e0,2021-07-29_23h12.41.888,Simcolourproject_2stim_asymm_v5,2020.2.10,MacIntel,60,61025ae37ef11b136ea224fe,,,,,,,,,4148,-44.86810303,-88.10192871,1,0,0,response5disk,,3,-8.106689453,-14.87371826,1,0,0,rectangle,-8.106689453,-14.87371826,1,0,0,-8.106689453,-14.87371826,1,0,0,0,143,143,120,1,,,,,,,,
,,,,,,,,,,,,,FF,,,,,,,,0.68352,,,,,,,,,,,,,,,,,,,,,,60fcfaa636cc384f059f960d,61036e105257ad60f1dc32e0,2021-07-29_23h12.41.888,Simcolourproject_2stim_asymm_v5,2020.2.10,MacIntel,60,61025ae37ef11b136ea224fe,,,,,,,,,3798,77.30664063,-38.99884033,1,0,0,response3disk,,5,16.0736084,-5.997833252,1,0,0,rectangle,-58.70709229,-103.3083496,1,0,0,7.507202148,5.408660889,1,0,0,0,144,144,118,1,,response5disk_3,TRUE,3,3,"[51,6,236,92,252,235,157,304,90,154,69,30,145,100,25,155,68,226,21,214]",1.51664,rectangle
,,,,,,,,,,,,,FF,,,,,,,,0.933655,,,,,,,,,,,,,,,,,,,,,,60fcfaa636cc384f059f960d,61036e105257ad60f1dc32e0,2021-07-29_23h12.41.888,Simcolourproject_2stim_asymm_v5,2020.2.10,MacIntel,60,61025ae37ef11b136ea224fe,,,,,,,,,206,94.37115479,32.90863037,1,0,0,response1disk,,6,19.99371338,-9.922180176,1,0,0,rectangle,19.99371338,-9.922180176,1,0,0,19.99371338,-9.922180176,1,0,0,0,145,145,11,1,,,,,,,,
,,,,,,,,,,,,,FF,,,,,,,,0.54993,,,,,,,,,,,,,,,,,,,,,,60fcfaa636cc384f059f960d,61036e105257ad60f1dc32e0,2021-07-29_23h12.41.888,Simcolourproject_2stim_asymm_v5,2020.2.10,MacIntel,60,61025ae37ef11b136ea224fe,,,,,,,,,1309,58.83117676,-48.12976074,1,0,0,response3disk,,5,22.2789917,-6.930206299,1,0,0,rectangle,22.2789917,-6.930206299,1,0,0,22.2789917,-6.930206299,1,0,0,0,146,146,2,1,,,,,,,,
,,,,,,,,,,,,,FF,,,,,,,,0.68332,,,,,,,,,,,,,,,,,,,,,,60fcfaa636cc384f059f960d,61036e105257ad60f1dc32e0,2021-07-29_23h12.41.888,Simcolourproject_2stim_asymm_v5,2020.2.10,MacIntel,60,61025ae37ef11b136ea224fe,,,,,,,,,2428,48.92474365,-60.04486084,1,0,0,response3disk,,4,2.244140625,3.803405762,1,0,0,rectangle,2.244140625,3.803405762,1,0,0,2.244140625,3.803405762,1,0,0,0,147,147,46,1,,,,,,,,
,,,,,,,,,,,,,FF,,,,,,,,0.566455,,,,,,,,,,,,,,,,,,,,,,60fcfaa636cc384f059f960d,61036e105257ad60f1dc32e0,2021-07-29_23h12.41.888,Simcolourproject_2stim_asymm_v5,2020.2.10,MacIntel,60,61025ae37ef11b136ea224fe,,,,,,,,,1933,80.16790771,48.8571167,1,0,0,response1disk,,6,8.299316406,6.386016846,1,0,0,rectangle,8.299316406,6.386016846,1,0,0,8.299316406,6.386016846,1,0,0,0,148,148,4,1,,,,,,,,
,,,,,,,,,,,,,FF,,,,,,,,1.849995,,,,,,,,,,,,,,,,,,,,,,60fcfaa636cc384f059f960d,61036e105257ad60f1dc32e0,2021-07-29_23h12.41.888,Simcolourproject_2stim_asymm_v5,2020.2.10,MacIntel,60,61025ae37ef11b136ea224fe,,,,,,,,,1472,69.93286133,44.79614258,1,0,0,response1disk,,6,6.932128906,-1.616210938,1,0,0,rectangle,6.932128906,-1.616210938,1,0,0,6.932128906,-1.616210938,1,0,0,0,149,149,18,1,,,,,,,,
,,,,,,,,,,,,,FF,,,,,,,,0.49959,,,,,,,,,,,,,,,,,,,,,,60fcfaa636cc384f059f960d,61036e105257ad60f1dc32e0,2021-07-29_23h12.41.888,Simcolourproject_2stim_asymm_v5,2020.2.10,MacIntel,60,61025ae37ef11b136ea224fe,,,,,,,,,241,91.88549805,-46.99343872,1,0,0,response3disk,,5,18.11517334,3.38961792,1,0,0,rectangle,18.11517334,3.38961792,1,0,0,18.11517334,3.38961792,1,0,0,0,150,150,50,1,,,,,,,,
,,,,,,,,,,,,,FF,,,,,,,,0.666855,,,,,,,,,,,,,,,,,,,,,,60fcfaa636cc384f059f960d,61036e105257ad60f1dc32e0,2021-07-29_23h12.41.888,Simcolourproject_2stim_asymm_v5,2020.2.10,MacIntel,60,61025ae37ef11b136ea224fe,,,,,,,,,2226,-72.56951904,30.94104004,1,0,0,response7disk,,1,-26.87347412,0.81552124,1,0,0,rectangle,-26.87347412,0.81552124,1,0,0,-26.87347412,0.81552124,1,0,0,0,151,151,34,1,,,,,,,,
,,,,,,,,,,,,,FF,,,,,,,,0.716815,,,,,,,,,,,,,,,,,,,,,,60fcfaa636cc384f059f960d,61036e105257ad60f1dc32e0,2021-07-29_23h12.41.888,Simcolourproject_2stim_asymm_v5,2020.2.10,MacIntel,60,61025ae37ef11b136ea224fe,,,,,,,,,3549,-58.17663574,-50.12844849,1,0,0,response5disk,,2,-8.968994141,-10.19946289,1,0,0,rectangle,-8.968994141,-10.19946289,1,0,0,-8.968994141,-10.19946289,1,0,0,0,152,152,157,1,,,,,,,,
,,,,,,,,,,,,,FF,,,,,,,,0.716955,,,,,,,,,,,,,,,,,,,,,,60fcfaa636cc384f059f960d,61036e105257ad60f1dc32e0,2021-07-29_23h12.41.888,Simcolourproject_2stim_asymm_v5,2020.2.10,MacIntel,60,61025ae37ef11b136ea224fe,,,,,,,,,125,82.97711182,55.53662109,1,0,0,response1disk,,6,24.65979004,3.940856934,1,0,0,rectangle,-53.35101318,91.34210205,1,0,0,-17.75622559,1.319641113,1,0,0,0,153,153,132,1,,response7disk_3,TRUE,0,0,"[51,6,236,92,252,235,157,304,90,154,69,30,145,100,25,155,68,226,21,214]",1.43352,rectangle
,,,,,,,,,,,,,FF,,,,,,,,0.684005,,,,,,,,,,,,,,,,,,,,,,60fcfaa636cc384f059f960d,61036e105257ad60f1dc32e0,2021-07-29_23h12.41.888,Simcolourproject_2stim_asymm_v5,2020.2.10,MacIntel,60,61025ae37ef11b136ea224fe,,,,,,,,,2176,102.994873,54.415802,1,0,0,response1disk,,6,19.86242676,0.145141602,1,0,0,rectangle,80.68798828,-47.3822937,1,0,0,30.2744751,-15.63201904,1,0,0,0,154,154,41,1,,response3disk_3,TRUE,5,5,"[51,6,236,92,252,235,157,304,90,154,69,30,145,100,25,155,68,226,21,214]",1.73323,rectangle
,,,,,,,,,,,,,FF,,,,,,,,1.033505,,,,,,,,,,,,,,,,,,,,,,60fcfaa636cc384f059f960d,61036e105257ad60f1dc32e0,2021-07-29_23h12.41.888,Simcolourproject_2stim_asymm_v5,2020.2.10,MacIntel,60,61025ae37ef11b136ea224fe,,,,,,,,,706,79.31500244,28.87420654,1,0,0,response1disk,,6,-17.68096924,8.140136719,1,0,0,rectangle,-17.68096924,8.140136719,1,0,0,-17.68096924,8.140136719,1,0,0,0,155,155,56,1,,,,,,,,
,,,,,,,,,,,,,FF,,,,,,,,0.66585,,,,,,,,,,,,,,,,,,,,,,60fcfaa636cc384f059f960d,61036e105257ad60f1dc32e0,2021-07-29_23h12.41.888,Simcolourproject_2stim_asymm_v5,2020.2.10,MacIntel,60,61025ae37ef11b136ea224fe,,,,,,,,,1915,60.76098633,44.30444336,1,0,0,response1disk,,6,5.194580078,1.795257568,1,0,0,rectangle,102.8158569,-36.17532349,1,0,0,7.293457031,9.981414795,1,0,0,0,156,156,142,1,,response3disk_3,TRUE,5,5,"[51,6,236,92,252,235,157,304,90,154,69,30,145,100,25,155,68,226,21,214]",1.29852,rectangle
,,,,,,,,,,,,,FF,,,,,,,,1.10057,,,,,,,,,,,,,,,,,,,,,,60fcfaa636cc384f059f960d,61036e105257ad60f1dc32e0,2021-07-29_23h12.41.888,Simcolourproject_2stim_asymm_v5,2020.2.10,MacIntel,60,61025ae37ef11b136ea224fe,,,,,,,,,2106,-26.76855469,-80.0335083,1,0,0,response5disk,,3,8.067932129,0.071868896,1,0,0,rectangle,8.067932129,0.071868896,1,0,0,8.067932129,0.071868896,1,0,0,0,157,157,75,1,,,,,,,,
,,,,,,,,,,,,,FF,,,,,,,,1.26705,,,,,,,,,,,,,,,,,,,,,,60fcfaa636cc384f059f960d,61036e105257ad60f1dc32e0,2021-07-29_23h12.41.888,Simcolourproject_2stim_asymm_v5,2020.2.10,MacIntel,60,61025ae37ef11b136ea224fe,,,,,,,,,1252,83.43609619,38.41110229,1,0,0,response1disk,,6,5.341552734,-13.49572754,1,0,0,rectangle,5.341552734,-13.49572754,1,0,0,5.341552734,-13.49572754,1,0,0,0,158,158,91,1,,,,,,,,
,,,,,,,,,,,,,FF,,,,,,,,1.25054,,,,,,,,,,,,,,,,,,,,,,60fcfaa636cc384f059f960d,61036e105257ad60f1dc32e0,2021-07-29_23h12.41.888,Simcolourproject_2stim_asymm_v5,2020.2.10,MacIntel,60,61025ae37ef11b136ea224fe,,,,,,,,,1529,43.12646484,-73.26306152,1,0,0,response3disk,,4,13.1027832,5.880340576,1,0,0,rectangle,13.1027832,5.880340576,1,0,0,13.1027832,5.880340576,1,0,0,0,159,159,112,1,,,,,,,,
,,,,,,,,,,,,,FF,,,,,,,,0.765495,,,,,,,,,,,,,,,,,,,,,,60fcfaa636cc384f059f960d,61036e105257ad60f1dc32e0,2021-07-29_23h12.41.888,Simcolourproject_2stim_asymm_v5,2020.2.10,MacIntel,60,61025ae37ef11b136ea224fe,,,,,,,,,3105,-46.78436279,-96.0345459,1,0,0,response5disk,,3,-7.82598877,-0.632476807,1,0,0,rectangle,-7.82598877,-0.632476807,1,0,0,-7.82598877,-0.632476807,1,0,0,1,0,160,43,1,,,,,,,,
,,,,,,,,,,,,,FF,,,,,,,,0.850875,,,,,,,,,,,,,,,,,,,,,,60fcfaa636cc384f059f960d,61036e105257ad60f1dc32e0,2021-07-29_23h12.41.888,Simcolourproject_2stim_asymm_v5,2020.2.10,MacIntel,60,61025ae37ef11b136ea224fe,,,,,,,,,3467,68.75415039,-62.58001709,1,0,0,response3disk,,5,20.97662354,4.722076416,1,0,0,rectangle,20.97662354,4.722076416,1,0,0,20.97662354,4.722076416,1,0,0,1,1,161,155,1,,,,,,,,
,,,,,,,,,,,,,FF,,,,,,,,1.000485,,,,,,,,,,,,,,,,,,,,,,60fcfaa636cc384f059f960d,61036e105257ad60f1dc32e0,2021-07-29_23h12.41.888,Simcolourproject_2stim_asymm_v5,2020.2.10,MacIntel,60,61025ae37ef11b136ea224fe,,,,,,,,,882,84.45355225,59.1473999,1,0,0,response1disk,,6,21.22900391,12.15615845,1,0,0,rectangle,21.22900391,12.15615845,1,0,0,21.22900391,12.15615845,1,0,0,1,2,162,130,1,,,,,,,,
,,,,,,,,,,,,,FF,,,,,,,,0.9666,,,,,,,,,,,,,,,,,,,,,,60fcfaa636cc384f059f960d,61036e105257ad60f1dc32e0,2021-07-29_23h12.41.888,Simcolourproject_2stim_asymm_v5,2020.2.10,MacIntel,60,61025ae37ef11b136ea224fe,,,,,,,,,2242,62.0423584,-55.76477051,1,0,0,response3disk,,5,7.792480469,0.967895508,1,0,0,rectangle,7.792480469,0.967895508,1,0,0,7.792480469,0.967895508,1,0,0,1,3,163,11,1,,,,,,,,
,,,,,,,,,,,,,FF,,,,,,,,0.766235,,,,,,,,,,,,,,,,,,,,,,60fcfaa636cc384f059f960d,61036e105257ad60f1dc32e0,2021-07-29_23h12.41.888,Simcolourproject_2stim_asymm_v5,2020.2.10,MacIntel,60,61025ae37ef11b136ea224fe,,,,,,,,,3588,-48.64343262,-76.64404297,1,0,0,response5disk,,3,1.783630371,5.144226074,1,0,0,rectangle,1.783630371,5.144226074,1,0,0,1.783630371,5.144226074,1,0,0,1,4,164,119,1,,,,,,,,
,,,,,,,,,,,,,FF,,,,,,,,0.61711,,,,,,,,,,,,,,,,,,,,,,60fcfaa636cc384f059f960d,61036e105257ad60f1dc32e0,2021-07-29_23h12.41.888,Simcolourproject_2stim_asymm_v5,2020.2.10,MacIntel,60,61025ae37ef11b136ea224fe,,,,,,,,,4136,78.21600342,-30.22003174,1,0,0,response3disk,,5,24.74462891,-7.346252441,1,0,0,rectangle,24.74462891,-7.346252441,1,0,0,24.74462891,-7.346252441,1,0,0,1,5,165,77,1,,,,,,,,
,,,,,,,,,,,,,FF,,,,,,,,0.649285,,,,,,,,,,,,,,,,,,,,,,60fcfaa636cc384f059f960d,61036e105257ad60f1dc32e0,2021-07-29_23h12.41.888,Simcolourproject_2stim_asymm_v5,2020.2.10,MacIntel,60,61025ae37ef11b136ea224fe,,,,,,,,,1316,60.97381592,34.23287964,1,0,0,response1disk,,6,9.384033203,-8.850952148,1,0,0,rectangle,9.384033203,-8.850952148,1,0,0,9.384033203,-8.850952148,1,0,0,1,6,166,71,1,,,,,,,,
,,,,,,,,,,,,,FF,,,,,,,,0.48348,,,,,,,,,,,,,,,,,,,,,,60fcfaa636cc384f059f960d,61036e105257ad60f1dc32e0,2021-07-29_23h12.41.888,Simcolourproject_2stim_asymm_v5,2020.2.10,MacIntel,60,61025ae37ef11b136ea224fe,,,,,,,,,648,65.08972168,46.61239624,1,0,0,response1disk,,6,26.93206787,9.427825928,1,0,0,rectangle,26.93206787,9.427825928,1,0,0,26.93206787,9.427825928,1,0,0,1,7,167,91,1,,,,,,,,
,,,,,,,,,,,,,FF,,,,,,,,0.416495,,,,,,,,,,,,,,,,,,,,,,60fcfaa636cc384f059f960d,61036e105257ad60f1dc32e0,2021-07-29_23h12.41.888,Simcolourproject_2stim_asymm_v5,2020.2.10,MacIntel,60,61025ae37ef11b136ea224fe,,,,,,,,,3758,75.49169922,37.23974609,1,0,0,response1disk,,6,8.305969238,4.801391602,1,0,0,rectangle,8.305969238,4.801391602,1,0,0,8.305969238,4.801391602,1,0,0,1,8,168,28,1,,,,,,,,
,,,,,,,,,,,,,FF,,,,,,,,0.63266,,,,,,,,,,,,,,,,,,,,,,60fcfaa636cc384f059f960d,61036e105257ad60f1dc32e0,2021-07-29_23h12.41.888,Simcolourproject_2stim_asymm_v5,2020.2.10,MacIntel,60,61025ae37ef11b136ea224fe,,,,,,,,,2113,42.64160156,70.62246704,1,0,0,response1disk,,7,16.26635742,14.13195801,1,0,0,rectangle,16.26635742,14.13195801,1,0,0,16.26635742,14.13195801,1,0,0,1,9,169,23,1,,,,,,,,
,,,,,,,,,,,,,FF,,,,,,,,1.449875,,,,,,,,,,,,,,,,,,,,,,60fcfaa636cc384f059f960d,61036e105257ad60f1dc32e0,2021-07-29_23h12.41.888,Simcolourproject_2stim_asymm_v5,2020.2.10,MacIntel,60,61025ae37ef11b136ea224fe,,,,,,,,,588,29.57702637,71.0088501,1,0,0,response1disk,,7,-4.385009766,4.26159668,1,0,0,rectangle,-4.385009766,4.26159668,1,0,0,-4.385009766,4.26159668,1,0,0,1,10,170,34,1,,,,,,,,
,,,,,,,,,,,,,FF,,,,,,,,1.66533,,,,,,,,,,,,,,,,,,,,,,60fcfaa636cc384f059f960d,61036e105257ad60f1dc32e0,2021-07-29_23h12.41.888,Simcolourproject_2stim_asymm_v5,2020.2.10,MacIntel,60,61025ae37ef11b136ea224fe,,,,,,,,,2978,81.48822021,31.97872925,1,0,0,response1disk,,6,28.05322266,-1.077941895,1,0,0,rectangle,28.05322266,-1.077941895,1,0,0,28.05322266,-1.077941895,1,0,0,1,11,171,6,1,,,,,,,,
,,,,,,,,,,,,,FF,,,,,,,,1.149755,,,,,,,,,,,,,,,,,,,,,,60fcfaa636cc384f059f960d,61036e105257ad60f1dc32e0,2021-07-29_23h12.41.888,Simcolourproject_2stim_asymm_v5,2020.2.10,MacIntel,60,61025ae37ef11b136ea224fe,,,,,,,,,570,55.71179199,-86.11224365,1,0,0,response3disk,,4,21.98236084,-4.663330078,1,0,0,rectangle,21.98236084,-4.663330078,1,0,0,21.98236084,-4.663330078,1,0,0,1,12,172,15,1,,,,,,,,
,,,,,,,,,,,,,FF,,,,,,,,0.70037,,,,,,,,,,,,,,,,,,,,,,60fcfaa636cc384f059f960d,61036e105257ad60f1dc32e0,2021-07-29_23h12.41.888,Simcolourproject_2stim_asymm_v5,2020.2.10,MacIntel,60,61025ae37ef11b136ea224fe,,,,,,,,,2736,67.11157227,-41.4329834,1,0,0,response3disk,,5,1.133850098,4.331176758,1,0,0,rectangle,1.133850098,4.331176758,1,0,0,1.133850098,4.331176758,1,0,0,1,13,173,116,1,,,,,,,,
,,,,,,,,,,,,,FF,,,,,,,,0.80068,,,,,,,,,,,,,,,,,,,,,,60fcfaa636cc384f059f960d,61036e105257ad60f1dc32e0,2021-07-29_23h12.41.888,Simcolourproject_2stim_asymm_v5,2020.2.10,MacIntel,60,61025ae37ef11b136ea224fe,,,,,,,,,1630,61.73748779,39.76422119,1,0,0,response1disk,,6,12.07019043,8.593139648,1,0,0,rectangle,12.07019043,8.593139648,1,0,0,12.07019043,8.593139648,1,0,0,1,14,174,76,1,,,,,,,,
,,,,,,,,,,,,,FF,,,,,,,,1.08353,,,,,,,,,,,,,,,,,,,,,,60fcfaa636cc384f059f960d,61036e105257ad60f1dc32e0,2021-07-29_23h12.41.888,Simcolourproject_2stim_asymm_v5,2020.2.10,MacIntel,60,61025ae37ef11b136ea224fe,,,,,,,,,2983,76.39648438,-53.72888184,1,0,0,response3disk,,5,31.92608643,-2.017852783,1,0,0,rectangle,31.92608643,-2.017852783,1,0,0,31.92608643,-2.017852783,1,0,0,1,15,175,107,1,,,,,,,,
,,,,,,,,,,,,,FF,,,,,,,,1.16629,,,,,,,,,,,,,,,,,,,,,,60fcfaa636cc384f059f960d,61036e105257ad60f1dc32e0,2021-07-29_23h12.41.888,Simcolourproject_2stim_asymm_v5,2020.2.10,MacIntel,60,61025ae37ef11b136ea224fe,,,,,,,,,233,79.75463867,-38.14099121,1,0,0,response3disk,,5,22.51757813,-7.432952881,1,0,0,rectangle,22.51757813,-7.432952881,1,0,0,22.51757813,-7.432952881,1,0,0,1,16,176,102,1,,,,,,,,
,,,,,,,,,,,,,FF,,,,,,,,0.800255,,,,,,,,,,,,,,,,,,,,,,60fcfaa636cc384f059f960d,61036e105257ad60f1dc32e0,2021-07-29_23h12.41.888,Simcolourproject_2stim_asymm_v5,2020.2.10,MacIntel,60,61025ae37ef11b136ea224fe,,,,,,,,,3878,79.55419922,-55.72595215,1,0,0,response3disk,,5,17.79522705,2.294494629,1,0,0,rectangle,17.79522705,2.294494629,1,0,0,17.79522705,2.294494629,1,0,0,1,17,177,20,1,,,,,,,,
,,,,,,,,,,,,,FF,,,,,,,,1.60023,,,,,,,,,,,,,,,,,,,,,,60fcfaa636cc384f059f960d,61036e105257ad60f1dc32e0,2021-07-29_23h12.41.888,Simcolourproject_2stim_asymm_v5,2020.2.10,MacIntel,60,61025ae37ef11b136ea224fe,,,,,,,,,1921,101.5841675,75.16400146,1,0,0,response1disk,,6,-25.46783447,2.210693359,1,0,0,rectangle,-25.46783447,2.210693359,1,0,0,-25.46783447,2.210693359,1,0,0,1,18,178,123,1,,,,,,,,
,,,,,,,,,,,,,FF,,,,,,,,0.750015,,,,,,,,,,,,,,,,,,,,,,60fcfaa636cc384f059f960d,61036e105257ad60f1dc32e0,2021-07-29_23h12.41.888,Simcolourproject_2stim_asymm_v5,2020.2.10,MacIntel,60,61025ae37ef11b136ea224fe,,,,,,,,,1210,33.91369629,75.84329224,1,0,0,response1disk,,7,-10.35394287,-5.459472656,1,0,0,rectangle,-10.35394287,-5.459472656,1,0,0,-10.35394287,-5.459472656,1,0,0,1,19,179,67,1,,,,,,,,
,,,,,,,,,,,,,FF,,,,,,,,0.71784,,,,,,,,,,,,,,,,,,,,,,60fcfaa636cc384f059f960d,61036e105257ad60f1dc32e0,2021-07-29_23h12.41.888,Simcolourproject_2stim_asymm_v5,2020.2.10,MacIntel,60,61025ae37ef11b136ea224fe,,,,,,,,,2663,31.02349854,-87.98181152,1,0,0,response3disk,,4,10.16247559,-5.785888672,1,0,0,rectangle,10.16247559,-5.785888672,1,0,0,10.16247559,-5.785888672,1,0,0,1,20,180,19,1,,,,,,,,
,,,,,,,,,,,,,FF,,,,,,,,0.68375,,,,,,,,,,,,,,,,,,,,,,60fcfaa636cc384f059f960d,61036e105257ad60f1dc32e0,2021-07-29_23h12.41.888,Simcolourproject_2stim_asymm_v5,2020.2.10,MacIntel,60,61025ae37ef11b136ea224fe,,,,,,,,,2312,89.46478271,-53.12893677,1,0,0,response3disk,,5,14.73907471,-6.290344238,1,0,0,rectangle,14.73907471,-6.290344238,1,0,0,14.73907471,-6.290344238,1,0,0,1,21,181,36,1,,,,,,,,
,,,,,,,,,,,,,FF,,,,,,,,1.050375,,,,,,,,,,,,,,,,,,,,,,60fcfaa636cc384f059f960d,61036e105257ad60f1dc32e0,2021-07-29_23h12.41.888,Simcolourproject_2stim_asymm_v5,2020.2.10,MacIntel,60,61025ae37ef11b136ea224fe,,,,,,,,,4013,89.36956787,50.84960938,1,0,0,response1disk,,6,19.2791748,-1.571838379,1,0,0,rectangle,19.2791748,-1.571838379,1,0,0,19.2791748,-1.571838379,1,0,0,1,22,182,16,1,,,,,,,,
,,,,,,,,,,,,,FF,,,,,,,,0.60021,,,,,,,,,,,,,,,,,,,,,,60fcfaa636cc384f059f960d,61036e105257ad60f1dc32e0,2021-07-29_23h12.41.888,Simcolourproject_2stim_asymm_v5,2020.2.10,MacIntel,60,61025ae37ef11b136ea224fe,,,,,,,,,3526,101.3324585,32.04956055,1,0,0,response1disk,,6,32.31262207,14.33746338,1,0,0,rectangle,32.31262207,14.33746338,1,0,0,32.31262207,14.33746338,1,0,0,1,23,183,73,1,,,,,,,,
,,,,,,,,,,,,,FF,,,,,,,,0.63348,,,,,,,,,,,,,,,,,,,,,,60fcfaa636cc384f059f960d,61036e105257ad60f1dc32e0,2021-07-29_23h12.41.888,Simcolourproject_2stim_asymm_v5,2020.2.10,MacIntel,60,61025ae37ef11b136ea224fe,,,,,,,,,1703,51.37756348,81.81799316,1,0,0,response1disk,,7,22.08795166,0.14831543,1,0,0,rectangle,22.08795166,0.14831543,1,0,0,22.08795166,0.14831543,1,0,0,1,24,184,127,1,,,,,,,,
,,,,,,,,,,,,,FF,,,,,,,,0.699775,,,,,,,,,,,,,,,,,,,,,,60fcfaa636cc384f059f960d,61036e105257ad60f1dc32e0,2021-07-29_23h12.41.888,Simcolourproject_2stim_asymm_v5,2020.2.10,MacIntel,60,61025ae37ef11b136ea224fe,,,,,,,,,3215,85.0402832,32.17034912,1,0,0,response1disk,,6,14.12182617,6.93572998,1,0,0,rectangle,14.12182617,6.93572998,1,0,0,14.12182617,6.93572998,1,0,0,1,25,185,109,1,,,,,,,,
,,,,,,,,,,,,,FF,,,,,,,,0.81595,,,,,,,,,,,,,,,,,,,,,,60fcfaa636cc384f059f960d,61036e105257ad60f1dc32e0,2021-07-29_23h12.41.888,Simcolourproject_2stim_asymm_v5,2020.2.10,MacIntel,60,61025ae37ef11b136ea224fe,,,,,,,,,2320,41.00140381,60.69445801,1,0,0,response1disk,,7,18.80566406,2.65411377,1,0,0,rectangle,18.80566406,2.65411377,1,0,0,18.80566406,2.65411377,1,0,0,1,26,186,66,1,,,,,,,,
,,,,,,,,,,,,,FF,,,,,,,,0.81601,,,,,,,,,,,,,,,,,,,,,,60fcfaa636cc384f059f960d,61036e105257ad60f1dc32e0,2021-07-29_23h12.41.888,Simcolourproject_2stim_asymm_v5,2020.2.10,MacIntel,60,61025ae37ef11b136ea224fe,,,,,,,,,801,-71.16455078,-34.79360962,1,0,0,response5disk,,2,2.518554688,6.591430664,1,0,0,rectangle,2.518554688,6.591430664,1,0,0,2.518554688,6.591430664,1,0,0,1,27,187,53,1,,,,,,,,
,,,,,,,,,,,,,FF,,,,,,,,1.10015,,,,,,,,,,,,,,,,,,,,,,60fcfaa636cc384f059f960d,61036e105257ad60f1dc32e0,2021-07-29_23h12.41.888,Simcolourproject_2stim_asymm_v5,2020.2.10,MacIntel,60,61025ae37ef11b136ea224fe,,,,,,,,,1271,55.76068115,-94.6159668,1,0,0,response3disk,,4,14.12597656,3.433776855,1,0,0,rectangle,14.12597656,3.433776855,1,0,0,14.12597656,3.433776855,1,0,0,1,28,188,80,1,,,,,,,,
,,,,,,,,,,,,,FF,,,,,,,,1.033025,,,,,,,,,,,,,,,,,,,,,,60fcfaa636cc384f059f960d,61036e105257ad60f1dc32e0,2021-07-29_23h12.41.888,Simcolourproject_2stim_asymm_v5,2020.2.10,MacIntel,60,61025ae37ef11b136ea224fe,,,,,,,,,1345,36.07165527,-77.16900635,1,0,0,response3disk,,4,21.78173828,-12.3560791,1,0,0,rectangle,21.78173828,-12.3560791,1,0,0,21.78173828,-12.3560791,1,0,0,1,29,189,4,1,,,,,,,,
,,,,,,,,,,,,,FF,,,,,,,,1.21714,,,,,,,,,,,,,,,,,,,,,,60fcfaa636cc384f059f960d,61036e105257ad60f1dc32e0,2021-07-29_23h12.41.888,Simcolourproject_2stim_asymm_v5,2020.2.10,MacIntel,60,61025ae37ef11b136ea224fe,,,,,,,,,3790,68.62695313,-40.63186646,1,0,0,response3disk,,5,4.366943359,1.747833252,1,0,0,rectangle,4.366943359,1.747833252,1,0,0,4.366943359,1.747833252,1,0,0,1,30,190,7,1,,,,,,,,
,,,,,,,,,,,,,FF,,,,,,,,0.66518,,,,,,,,,,,,,,,,,,,,,,60fcfaa636cc384f059f960d,61036e105257ad60f1dc32e0,2021-07-29_23h12.41.888,Simcolourproject_2stim_asymm_v5,2020.2.10,MacIntel,60,61025ae37ef11b136ea224fe,,,,,,,,,1105,65.80529785,35.70770264,1,0,0,response1disk,,6,1.497131348,-5.036010742,1,0,0,rectangle,1.497131348,-5.036010742,1,0,0,1.497131348,-5.036010742,1,0,0,1,31,191,90,1,,,,,,,,
,,,,,,,,,,,,,FF,,,,,,,,0.63335,,,,,,,,,,,,,,,,,,,,,,60fcfaa636cc384f059f960d,61036e105257ad60f1dc32e0,2021-07-29_23h12.41.888,Simcolourproject_2stim_asymm_v5,2020.2.10,MacIntel,60,61025ae37ef11b136ea224fe,,,,,,,,,4077,80.36114502,-47.30511475,1,0,0,response3disk,,5,8.12512207,-12.40826416,1,0,0,rectangle,8.12512207,-12.40826416,1,0,0,8.12512207,-12.40826416,1,0,0,1,32,192,26,1,,,,,,,,
,,,,,,,,,,,,,FF,,,,,,,,1.666815,,,,,,,,,,,,,,,,,,,,,,60fcfaa636cc384f059f960d,61036e105257ad60f1dc32e0,2021-07-29_23h12.41.888,Simcolourproject_2stim_asymm_v5,2020.2.10,MacIntel,60,61025ae37ef11b136ea224fe,,,,,,,,,597,62.33392334,40.6776123,1,0,0,response1disk,,6,19.79016113,10.66540527,1,0,0,rectangle,19.79016113,10.66540527,1,0,0,19.79016113,10.66540527,1,0,0,1,33,193,45,1,,,,,,,,
,,,,,,,,,,,,,FF,,,,,,,,0.667725,,,,,,,,,,,,,,,,,,,,,,60fcfaa636cc384f059f960d,61036e105257ad60f1dc32e0,2021-07-29_23h12.41.888,Simcolourproject_2stim_asymm_v5,2020.2.10,MacIntel,60,61025ae37ef11b136ea224fe,,,,,,,,,3848,-40.98077393,-76.41815186,1,0,0,response5disk,,3,-9.632995605,4.804290771,1,0,0,rectangle,-9.632995605,4.804290771,1,0,0,-9.632995605,4.804290771,1,0,0,1,34,194,22,1,,,,,,,,
,,,,,,,,,,,,,FF,,,,,,,,0.91682,,,,,,,,,,,,,,,,,,,,,,60fcfaa636cc384f059f960d,61036e105257ad60f1dc32e0,2021-07-29_23h12.41.888,Simcolourproject_2stim_asymm_v5,2020.2.10,MacIntel,60,61025ae37ef11b136ea224fe,,,,,,,,,1803,73.95385742,-31.47583008,1,0,0,response3disk,,5,20.29528809,5.481201172,1,0,0,rectangle,20.29528809,5.481201172,1,0,0,20.29528809,5.481201172,1,0,0,1,35,195,27,1,,,,,,,,
,,,,,,,,,,,,,FF,,,,,,,,0.8163,,,,,,,,,,,,,,,,,,,,,,60fcfaa636cc384f059f960d,61036e105257ad60f1dc32e0,2021-07-29_23h12.41.888,Simcolourproject_2stim_asymm_v5,2020.2.10,MacIntel,60,61025ae37ef11b136ea224fe,,,,,,,,,2436,57.9598999,100.728302,1,0,0,response1disk,,7,20.8638916,5.323730469,1,0,0,rectangle,20.8638916,5.323730469,1,0,0,20.8638916,5.323730469,1,0,0,1,36,196,136,1,,,,,,,,
,,,,,,,,,,,,,FF,,,,,,,,0.68326,,,,,,,,,,,,,,,,,,,,,,60fcfaa636cc384f059f960d,61036e105257ad60f1dc32e0,2021-07-29_23h12.41.888,Simcolourproject_2stim_asymm_v5,2020.2.10,MacIntel,60,61025ae37ef11b136ea224fe,,,,,,,,,3431,-62.47119141,-29.25549316,1,0,0,response5disk,,2,-5.36315918,-1.463745117,1,0,0,rectangle,-5.36315918,-1.463745117,1,0,0,-5.36315918,-1.463745117,1,0,0,1,37,197,135,1,,,,,,,,
,,,,,,,,,,,,,FF,,,,,,,,0.78373,,,,,,,,,,,,,,,,,,,,,,60fcfaa636cc384f059f960d,61036e105257ad60f1dc32e0,2021-07-29_23h12.41.888,Simcolourproject_2stim_asymm_v5,2020.2.10,MacIntel,60,61025ae37ef11b136ea224fe,,,,,,,,,653,66.09295654,47.01760864,1,0,0,response1disk,,6,0.060913086,-3.319702148,1,0,0,rectangle,0.060913086,-3.319702148,1,0,0,0.060913086,-3.319702148,1,0,0,1,38,198,100,1,,,,,,,,
,,,,,,,,,,,,,FF,,,,,,,,0.816585,,,,,,,,,,,,,,,,,,,,,,60fcfaa636cc384f059f960d,61036e105257ad60f1dc32e0,2021-07-29_23h12.41.888,Simcolourproject_2stim_asymm_v5,2020.2.10,MacIntel,60,61025ae37ef11b136ea224fe,,,,,,,,,1524,81.80688477,-52.41729736,1,0,0,response3disk,,5,1.184936523,-3.517303467,1,0,0,rectangle,1.184936523,-3.517303467,1,0,0,1.184936523,-3.517303467,1,0,0,1,39,199,98,1,,,,,,,,
,,,,,,,,,,,,,FF,,,,,,,,0.65111,,,,,,,,,,,,,,,,,,,,,,60fcfaa636cc384f059f960d,61036e105257ad60f1dc32e0,2021-07-29_23h12.41.888,Simcolourproject_2stim_asymm_v5,2020.2.10,MacIntel,60,61025ae37ef11b136ea224fe,,,,,,,,,1404,38.46081543,88.19586182,1,0,0,response1disk,,7,15.34338379,7.412811279,1,0,0,rectangle,15.34338379,7.412811279,1,0,0,15.34338379,7.412811279,1,0,0,1,40,200,157,1,,,,,,,,
,,,,,,,,,,,,,FF,,,,,,,,0.98257,,,,,,,,,,,,,,,,,,,,,,60fcfaa636cc384f059f960d,61036e105257ad60f1dc32e0,2021-07-29_23h12.41.888,Simcolourproject_2stim_asymm_v5,2020.2.10,MacIntel,60,61025ae37ef11b136ea224fe,,,,,,,,,496,39.38824463,90.77758789,1,0,0,response1disk,,7,5.294921875,11.74951172,1,0,0,rectangle,5.294921875,11.74951172,1,0,0,5.294921875,11.74951172,1,0,0,1,41,201,31,1,,,,,,,,
,,,,,,,,,,,,,FF,,,,,,,,0.650375,,,,,,,,,,,,,,,,,,,,,,60fcfaa636cc384f059f960d,61036e105257ad60f1dc32e0,2021-07-29_23h12.41.888,Simcolourproject_2stim_asymm_v5,2020.2.10,MacIntel,60,61025ae37ef11b136ea224fe,,,,,,,,,3978,56.39105225,-36.69244385,1,0,0,response3disk,,5,19.15783691,-9.214935303,1,0,0,rectangle,19.15783691,-9.214935303,1,0,0,19.15783691,-9.214935303,1,0,0,1,42,202,40,1,,,,,,,,
,,,,,,,,,,,,,FF,,,,,,,,0.83362,,,,,,,,,,,,,,,,,,,,,,60fcfaa636cc384f059f960d,61036e105257ad60f1dc32e0,2021-07-29_23h12.41.888,Simcolourproject_2stim_asymm_v5,2020.2.10,MacIntel,60,61025ae37ef11b136ea224fe,,,,,,,,,955,53.24176025,89.18087769,1,0,0,response1disk,,7,14.25415039,-17.83740234,1,0,0,rectangle,14.25415039,-17.83740234,1,0,0,14.25415039,-17.83740234,1,0,0,1,43,203,85,1,,,,,,,,
,,,,,,,,,,,,,FF,,,,,,,,0.833675,,,,,,,,,,,,,,,,,,,,,,60fcfaa636cc384f059f960d,61036e105257ad60f1dc32e0,2021-07-29_23h12.41.888,Simcolourproject_2stim_asymm_v5,2020.2.10,MacIntel,60,61025ae37ef11b136ea224fe,,,,,,,,,1692,33.21276855,79.09259033,1,0,0,response1disk,,7,11.29394531,12.50775146,1,0,0,rectangle,11.29394531,12.50775146,1,0,0,11.29394531,12.50775146,1,0,0,1,44,204,25,1,,,,,,,,
,,,,,,,,,,,,,FF,,,,,,,,1.184025,,,,,,,,,,,,,,,,,,,,,,60fcfaa636cc384f059f960d,61036e105257ad60f1dc32e0,2021-07-29_23h12.41.888,Simcolourproject_2stim_asymm_v5,2020.2.10,MacIntel,60,61025ae37ef11b136ea224fe,,,,,,,,,987,56.27484131,-84.78753662,1,0,0,response3disk,,4,18.81817627,-0.347198486,1,0,0,rectangle,18.81817627,-0.347198486,1,0,0,18.81817627,-0.347198486,1,0,0,1,45,205,150,1,,,,,,,,
,,,,,,,,,,,,,FF,,,,,,,,0.98399,,,,,,,,,,,,,,,,,,,,,,60fcfaa636cc384f059f960d,61036e105257ad60f1dc32e0,2021-07-29_23h12.41.888,Simcolourproject_2stim_asymm_v5,2020.2.10,MacIntel,60,61025ae37ef11b136ea224fe,,,,,,,,,223,47.26831055,104.8995972,1,0,0,response1disk,,7,-7.564880371,-5.902099609,1,0,0,rectangle,-7.564880371,-5.902099609,1,0,0,-7.564880371,-5.902099609,1,0,0,1,46,206,21,1,,,,,,,,
,,,,,,,,,,,,,FF,,,,,,,,0.81753,,,,,,,,,,,,,,,,,,,,,,60fcfaa636cc384f059f960d,61036e105257ad60f1dc32e0,2021-07-29_23h12.41.888,Simcolourproject_2stim_asymm_v5,2020.2.10,MacIntel,60,61025ae37ef11b136ea224fe,,,,,,,,,3947,41.31298828,-24.03909302,1,0,0,response3disk,,5,-13.83551025,2.755615234,1,0,0,rectangle,-13.83551025,2.755615234,1,0,0,-13.83551025,2.755615234,1,0,0,1,47,207,24,1,,,,,,,,
,,,,,,,,,,,,,FF,,,,,,,,0.78353,,,,,,,,,,,,,,,,,,,,,,60fcfaa636cc384f059f960d,61036e105257ad60f1dc32e0,2021-07-29_23h12.41.888,Simcolourproject_2stim_asymm_v5,2020.2.10,MacIntel,60,61025ae37ef11b136ea224fe,,,,,,,,,1851,75.04199219,46.02880859,1,0,0,response1disk,,6,22.47729492,0.423400879,1,0,0,rectangle,22.47729492,0.423400879,1,0,0,22.47729492,0.423400879,1,0,0,1,48,208,153,1,,,,,,,,
,,,,,,,,,,,,,FF,,,,,,,,0.76553,,,,,,,,,,,,,,,,,,,,,,60fcfaa636cc384f059f960d,61036e105257ad60f1dc32e0,2021-07-29_23h12.41.888,Simcolourproject_2stim_asymm_v5,2020.2.10,MacIntel,60,61025ae37ef11b136ea224fe,,,,,,,,,3017,60.92041016,36.12457275,1,0,0,response1disk,,6,15.08087158,-11.16998291,1,0,0,rectangle,15.08087158,-11.16998291,1,0,0,15.08087158,-11.16998291,1,0,0,1,49,209,9,1,,,,,,,,
,,,,,,,,,,,,,FF,,,,,,,,1.33263,,,,,,,,,,,,,,,,,,,,,,60fcfaa636cc384f059f960d,61036e105257ad60f1dc32e0,2021-07-29_23h12.41.888,Simcolourproject_2stim_asymm_v5,2020.2.10,MacIntel,60,61025ae37ef11b136ea224fe,,,,,,,,,1180,-36.23052979,-88.21746826,1,0,0,response5disk,,3,6.897827148,6.686706543,1,0,0,rectangle,6.897827148,6.686706543,1,0,0,6.897827148,6.686706543,1,0,0,1,50,210,132,1,,,,,,,,
,,,,,,,,,,,,,FF,,,,,,,,0.65074,,,,,,,,,,,,,,,,,,,,,,60fcfaa636cc384f059f960d,61036e105257ad60f1dc32e0,2021-07-29_23h12.41.888,Simcolourproject_2stim_asymm_v5,2020.2.10,MacIntel,60,61025ae37ef11b136ea224fe,,,,,,,,,2452,78.82019043,-55.43151855,1,0,0,response3disk,,5,7.393310547,0.287963867,1,0,0,rectangle,7.393310547,0.287963867,1,0,0,7.393310547,0.287963867,1,0,0,1,51,211,50,1,,,,,,,,
,,,,,,,,,,,,,FF,,,,,,,,1.284235,,,,,,,,,,,,,,,,,,,,,,60fcfaa636cc384f059f960d,61036e105257ad60f1dc32e0,2021-07-29_23h12.41.888,Simcolourproject_2stim_asymm_v5,2020.2.10,MacIntel,60,61025ae37ef11b136ea224fe,,,,,,,,,3481,-32.28765869,-107.1156616,1,0,0,response5disk,,3,-11.68591309,0.992858887,1,0,0,rectangle,-11.68591309,0.992858887,1,0,0,-11.68591309,0.992858887,1,0,0,1,52,212,145,1,,,,,,,,
,,,,,,,,,,,,,FF,,,,,,,,0.63389,,,,,,,,,,,,,,,,,,,,,,60fcfaa636cc384f059f960d,61036e105257ad60f1dc32e0,2021-07-29_23h12.41.888,Simcolourproject_2stim_asymm_v5,2020.2.10,MacIntel,60,61025ae37ef11b136ea224fe,,,,,,,,,1834,68.54022217,45.02233887,1,0,0,response1disk,,6,-5.040588379,-5.085754395,1,0,0,rectangle,79.41583252,39.71875,1,0,0,7.934082031,-5.956298828,1,0,0,1,53,213,113,1,,response1disk_3,TRUE,6,6,"[51,6,236,92,252,235,157,304,90,154,69,30,145,100,25,155,68,226,21,214]",1.567735,rectangle
,,,,,,,,,,,,,FF,,,,,,,,2.5332,,,,,,,,,,,,,,,,,,,,,,60fcfaa636cc384f059f960d,61036e105257ad60f1dc32e0,2021-07-29_23h12.41.888,Simcolourproject_2stim_asymm_v5,2020.2.10,MacIntel,60,61025ae37ef11b136ea224fe,,,,,,,,,3789,-22.7744751,-93.26293945,1,0,0,response5disk,,3,8.043945313,-13.21621704,1,0,0,rectangle,8.043945313,-13.21621704,1,0,0,8.043945313,-13.21621704,1,0,0,1,54,214,32,1,,,,,,,,
,,,,,,,,,,,,,FF,,,,,,,,0.85033,,,,,,,,,,,,,,,,,,,,,,60fcfaa636cc384f059f960d,61036e105257ad60f1dc32e0,2021-07-29_23h12.41.888,Simcolourproject_2stim_asymm_v5,2020.2.10,MacIntel,60,61025ae37ef11b136ea224fe,,,,,,,,,2822,45.00274658,61.87719727,1,0,0,response1disk,,7,13.7276001,-8.988891602,1,0,0,rectangle,13.7276001,-8.988891602,1,0,0,13.7276001,-8.988891602,1,0,0,1,55,215,88,1,,,,,,,,
,,,,,,,,,,,,,FF,,,,,,,,0.79958,,,,,,,,,,,,,,,,,,,,,,60fcfaa636cc384f059f960d,61036e105257ad60f1dc32e0,2021-07-29_23h12.41.888,Simcolourproject_2stim_asymm_v5,2020.2.10,MacIntel,60,61025ae37ef11b136ea224fe,,,,,,,,,3468,-71.90905762,34.84399414,1,0,0,response7disk,,1,-6.378967285,11.87860107,1,0,0,rectangle,-6.378967285,11.87860107,1,0,0,-6.378967285,11.87860107,1,0,0,1,56,216,56,1,,,,,,,,
,,,,,,,,,,,,,FF,,,,,,,,0.93598,,,,,,,,,,,,,,,,,,,,,,60fcfaa636cc384f059f960d,61036e105257ad60f1dc32e0,2021-07-29_23h12.41.888,Simcolourproject_2stim_asymm_v5,2020.2.10,MacIntel,60,61025ae37ef11b136ea224fe,,,,,,,,,3739,-103.4093018,-71.69226074,1,0,0,response5disk,,2,-14.96533203,-16.9432373,1,0,0,rectangle,-14.96533203,-16.9432373,1,0,0,-14.96533203,-16.9432373,1,0,0,1,57,217,95,1,,,,,,,,
,,,,,,,,,,,,,FF,,,,,,,,0.76787,,,,,,,,,,,,,,,,,,,,,,60fcfaa636cc384f059f960d,61036e105257ad60f1dc32e0,2021-07-29_23h12.41.888,Simcolourproject_2stim_asymm_v5,2020.2.10,MacIntel,60,61025ae37ef11b136ea224fe,,,,,,,,,828,45.25354004,-65.9307251,1,0,0,response3disk,,4,21.20166016,-14.59051514,1,0,0,rectangle,21.20166016,-14.59051514,1,0,0,21.20166016,-14.59051514,1,0,0,1,58,218,55,1,,,,,,,,
,,,,,,,,,,,,,FF,,,,,,,,0.950255,,,,,,,,,,,,,,,,,,,,,,60fcfaa636cc384f059f960d,61036e105257ad60f1dc32e0,2021-07-29_23h12.41.888,Simcolourproject_2stim_asymm_v5,2020.2.10,MacIntel,60,61025ae37ef11b136ea224fe,,,,,,,,,4357,-82.54040527,49.59143066,1,0,0,response7disk,,1,-17.41363525,1.002929688,1,0,0,rectangle,-17.41363525,1.002929688,1,0,0,-17.41363525,1.002929688,1,0,0,1,59,219,110,1,,,,,,,,
,,,,,,,,,,,,,FF,,,,,,,,0.84928,,,,,,,,,,,,,,,,,,,,,,60fcfaa636cc384f059f960d,61036e105257ad60f1dc32e0,2021-07-29_23h12.41.888,Simcolourproject_2stim_asymm_v5,2020.2.10,MacIntel,60,61025ae37ef11b136ea224fe,,,,,,,,,3862,84.85546875,-41.82211304,1,0,0,response3disk,,5,32.06762695,-11.79211426,1,0,0,rectangle,32.06762695,-11.79211426,1,0,0,32.06762695,-11.79211426,1,0,0,1,60,220,51,1,,,,,,,,
,,,,,,,,,,,,,FF,,,,,,,,0.648245,,,,,,,,,,,,,,,,,,,,,,60fcfaa636cc384f059f960d,61036e105257ad60f1dc32e0,2021-07-29_23h12.41.888,Simcolourproject_2stim_asymm_v5,2020.2.10,MacIntel,60,61025ae37ef11b136ea224fe,,,,,,,,,4232,53.75183105,51.02612305,1,0,0,response1disk,,6,7.04486084,-0.819610596,1,0,0,rectangle,7.04486084,-0.819610596,1,0,0,7.04486084,-0.819610596,1,0,0,1,61,221,30,1,,,,,,,,
,,,,,,,,,,,,,FF,,,,,,,,0.81681,,,,,,,,,,,,,,,,,,,,,,60fcfaa636cc384f059f960d,61036e105257ad60f1dc32e0,2021-07-29_23h12.41.888,Simcolourproject_2stim_asymm_v5,2020.2.10,MacIntel,60,61025ae37ef11b136ea224fe,,,,,,,,,2386,45.34020996,-66.80767822,1,0,0,response3disk,,4,20.65454102,-13.54605103,1,0,0,rectangle,20.65454102,-13.54605103,1,0,0,20.65454102,-13.54605103,1,0,0,1,62,222,93,1,,,,,,,,
,,,,,,,,,,,,,FF,,,,,,,,0.583035,,,,,,,,,,,,,,,,,,,,,,60fcfaa636cc384f059f960d,61036e105257ad60f1dc32e0,2021-07-29_23h12.41.888,Simcolourproject_2stim_asymm_v5,2020.2.10,MacIntel,60,61025ae37ef11b136ea224fe,,,,,,,,,767,32.59790039,76.87298584,1,0,0,response1disk,,7,17.9050293,14.99014282,1,0,0,rectangle,17.9050293,14.99014282,1,0,0,17.9050293,14.99014282,1,0,0,1,63,223,104,1,,,,,,,,
,,,,,,,,,,,,,FF,,,,,,,,0.86746,,,,,,,,,,,,,,,,,,,,,,60fcfaa636cc384f059f960d,61036e105257ad60f1dc32e0,2021-07-29_23h12.41.888,Simcolourproject_2stim_asymm_v5,2020.2.10,MacIntel,60,61025ae37ef11b136ea224fe,,,,,,,,,394,77.1361084,-30.41921997,1,0,0,response3disk,,5,15.23321533,-1.609619141,1,0,0,rectangle,15.23321533,-1.609619141,1,0,0,15.23321533,-1.609619141,1,0,0,1,64,224,17,1,,,,,,,,
,,,,,,,,,,,,,FF,,,,,,,,0.532905,,,,,,,,,,,,,,,,,,,,,,60fcfaa636cc384f059f960d,61036e105257ad60f1dc32e0,2021-07-29_23h12.41.888,Simcolourproject_2stim_asymm_v5,2020.2.10,MacIntel,60,61025ae37ef11b136ea224fe,,,,,,,,,400,82.68005371,-36.46343994,1,0,0,response3disk,,5,16.18426514,-2.968017578,1,0,0,rectangle,97.50091553,-41.80230713,1,0,0,0.38671875,9.034606934,1,0,0,1,65,225,140,1,,response3disk_3,TRUE,5,5,"[51,6,236,92,252,235,157,304,90,154,69,30,145,100,25,155,68,226,21,214]",1.15015,rectangle
,,,,,,,,,,,,,FF,,,,,,,,0.6657,,,,,,,,,,,,,,,,,,,,,,60fcfaa636cc384f059f960d,61036e105257ad60f1dc32e0,2021-07-29_23h12.41.888,Simcolourproject_2stim_asymm_v5,2020.2.10,MacIntel,60,61025ae37ef11b136ea224fe,,,,,,,,,155,35.85620117,-80.53381348,1,0,0,response3disk,,4,20.57427979,1.322692871,1,0,0,rectangle,20.57427979,1.322692871,1,0,0,20.57427979,1.322692871,1,0,0,1,66,226,122,1,,,,,,,,
,,,,,,,,,,,,,FF,,,,,,,,0.6002,,,,,,,,,,,,,,,,,,,,,,60fcfaa636cc384f059f960d,61036e105257ad60f1dc32e0,2021-07-29_23h12.41.888,Simcolourproject_2stim_asymm_v5,2020.2.10,MacIntel,60,61025ae37ef11b136ea224fe,,,,,,,,,676,79.15820313,34.49530029,1,0,0,response1disk,,6,-6.56262207,-11.04681396,1,0,0,rectangle,-6.56262207,-11.04681396,1,0,0,-6.56262207,-11.04681396,1,0,0,1,67,227,108,1,,,,,,,,
,,,,,,,,,,,,,FF,,,,,,,,0.7841,,,,,,,,,,,,,,,,,,,,,,60fcfaa636cc384f059f960d,61036e105257ad60f1dc32e0,2021-07-29_23h12.41.888,Simcolourproject_2stim_asymm_v5,2020.2.10,MacIntel,60,61025ae37ef11b136ea224fe,,,,,,,,,1752,-77.04467773,-51.14614868,1,0,0,response5disk,,2,-13.59985352,-9.049133301,1,0,0,rectangle,-13.59985352,-9.049133301,1,0,0,-13.59985352,-9.049133301,1,0,0,1,68,228,14,1,,,,,,,,
,,,,,,,,,,,,,FF,,,,,,,,0.799265,,,,,,,,,,,,,,,,,,,,,,60fcfaa636cc384f059f960d,61036e105257ad60f1dc32e0,2021-07-29_23h12.41.888,Simcolourproject_2stim_asymm_v5,2020.2.10,MacIntel,60,61025ae37ef11b136ea224fe,,,,,,,,,4255,-49.12939453,-66.91101074,1,0,0,response5disk,,3,-14.48626709,-8.67590332,1,0,0,rectangle,-14.48626709,-8.67590332,1,0,0,-14.48626709,-8.67590332,1,0,0,1,69,229,81,1,,,,,,,,
,,,,,,,,,,,,,FF,,,,,,,,0.684975,,,,,,,,,,,,,,,,,,,,,,60fcfaa636cc384f059f960d,61036e105257ad60f1dc32e0,2021-07-29_23h12.41.888,Simcolourproject_2stim_asymm_v5,2020.2.10,MacIntel,60,61025ae37ef11b136ea224fe,,,,,,,,,1695,43.90393066,71.07177734,1,0,0,response1disk,,7,17.68273926,14.3480835,1,0,0,rectangle,17.68273926,14.3480835,1,0,0,17.68273926,14.3480835,1,0,0,1,70,230,154,1,,,,,,,,
,,,,,,,,,,,,,FF,,,,,,,,0.765725,,,,,,,,,,,,,,,,,,,,,,60fcfaa636cc384f059f960d,61036e105257ad60f1dc32e0,2021-07-29_23h12.41.888,Simcolourproject_2stim_asymm_v5,2020.2.10,MacIntel,60,61025ae37ef11b136ea224fe,,,,,,,,,1660,59.90881348,-28.51641846,1,0,0,response3disk,,5,10.93847656,4.660186768,1,0,0,rectangle,10.93847656,4.660186768,1,0,0,10.93847656,4.660186768,1,0,0,1,71,231,158,1,,,,,,,,
,,,,,,,,,,,,,FF,,,,,,,,0.80073,,,,,,,,,,,,,,,,,,,,,,60fcfaa636cc384f059f960d,61036e105257ad60f1dc32e0,2021-07-29_23h12.41.888,Simcolourproject_2stim_asymm_v5,2020.2.10,MacIntel,60,61025ae37ef11b136ea224fe,,,,,,,,,1579,71.91503906,33.0355835,1,0,0,response1disk,,6,35.02435303,-6.061401367,1,0,0,rectangle,35.02435303,-6.061401367,1,0,0,35.02435303,-6.061401367,1,0,0,1,72,232,141,1,,,,,,,,
,,,,,,,,,,,,,FF,,,,,,,,1.5986,,,,,,,,,,,,,,,,,,,,,,60fcfaa636cc384f059f960d,61036e105257ad60f1dc32e0,2021-07-29_23h12.41.888,Simcolourproject_2stim_asymm_v5,2020.2.10,MacIntel,60,61025ae37ef11b136ea224fe,,,,,,,,,1652,61.87347412,41.79980469,1,0,0,response1disk,,6,9.003295898,2.112365723,1,0,0,rectangle,9.003295898,2.112365723,1,0,0,9.003295898,2.112365723,1,0,0,1,73,233,8,1,,,,,,,,
,,,,,,,,,,,,,FF,,,,,,,,0.8004,,,,,,,,,,,,,,,,,,,,,,60fcfaa636cc384f059f960d,61036e105257ad60f1dc32e0,2021-07-29_23h12.41.888,Simcolourproject_2stim_asymm_v5,2020.2.10,MacIntel,60,61025ae37ef11b136ea224fe,,,,,,,,,1609,-77.1550293,32.2923584,1,0,0,response7disk,,1,-7.594238281,12.10671997,1,0,0,rectangle,-48.65106201,-79.61364746,1,0,0,-23.94897461,3.576263428,1,0,0,1,74,234,64,1,,response5disk_3,TRUE,3,3,"[51,6,236,92,252,235,157,304,90,154,69,30,145,100,25,155,68,226,21,214]",1.383925,rectangle
,,,,,,,,,,,,,FF,,,,,,,,2.21543,,,,,,,,,,,,,,,,,,,,,,60fcfaa636cc384f059f960d,61036e105257ad60f1dc32e0,2021-07-29_23h12.41.888,Simcolourproject_2stim_asymm_v5,2020.2.10,MacIntel,60,61025ae37ef11b136ea224fe,,,,,,,,,2801,48.31896973,-100.2442017,1,0,0,response3disk,,4,18.56811523,-1.802032471,1,0,0,rectangle,30.36730957,54.46435547,1,0,0,14.20715332,3.26184082,1,0,0,1,75,235,151,1,,response1disk_3,TRUE,7,7,"[51,6,236,92,252,235,157,304,90,154,69,30,145,100,25,155,68,226,21,214]",1.69927,rectangle
,,,,,,,,,,,,,FF,,,,,,,,0.666445,,,,,,,,,,,,,,,,,,,,,,60fcfaa636cc384f059f960d,61036e105257ad60f1dc32e0,2021-07-29_23h12.41.888,Simcolourproject_2stim_asymm_v5,2020.2.10,MacIntel,60,61025ae37ef11b136ea224fe,,,,,,,,,712,62.48400879,-83.84344482,1,0,0,response3disk,,4,6.757324219,-4.415679932,1,0,0,rectangle,6.757324219,-4.415679932,1,0,0,6.757324219,-4.415679932,1,0,0,1,76,236,54,1,,,,,,,,
,,,,,,,,,,,,,FF,,,,,,,,0.6341,,,,,,,,,,,,,,,,,,,,,,60fcfaa636cc384f059f960d,61036e105257ad60f1dc32e0,2021-07-29_23h12.41.888,Simcolourproject_2stim_asymm_v5,2020.2.10,MacIntel,60,61025ae37ef11b136ea224fe,,,,,,,,,3020,97.89831543,-53.18731689,1,0,0,response3disk,,5,12.17346191,-17.34439087,1,0,0,rectangle,12.17346191,-17.34439087,1,0,0,12.17346191,-17.34439087,1,0,0,1,77,237,49,1,,,,,,,,
,,,,,,,,,,,,,FF,,,,,,,,0.449325,,,,,,,,,,,,,,,,,,,,,,60fcfaa636cc384f059f960d,61036e105257ad60f1dc32e0,2021-07-29_23h12.41.888,Simcolourproject_2stim_asymm_v5,2020.2.10,MacIntel,60,61025ae37ef11b136ea224fe,,,,,,,,,1531,82.93035889,-56.22705078,1,0,0,response3disk,,5,2.14074707,-14.86349487,1,0,0,rectangle,2.14074707,-14.86349487,1,0,0,2.14074707,-14.86349487,1,0,0,1,78,238,78,1,,,,,,,,
,,,,,,,,,,,,,FF,,,,,,,,0.60069,,,,,,,,,,,,,,,,,,,,,,60fcfaa636cc384f059f960d,61036e105257ad60f1dc32e0,2021-07-29_23h12.41.888,Simcolourproject_2stim_asymm_v5,2020.2.10,MacIntel,60,61025ae37ef11b136ea224fe,,,,,,,,,3352,75.6116333,57.25320435,1,0,0,response1disk,,6,5.344177246,3.35723877,1,0,0,rectangle,5.344177246,3.35723877,1,0,0,5.344177246,3.35723877,1,0,0,1,79,239,61,1,,,,,,,,
