key_resp.keys,key_resp.rt,key_resp_14.keys,key_resp_14.rt,key_resp_15.keys,key_resp_15.rt,key_resp_17.keys,key_resp_17.rt,key_resp_9.keys,key_resp_9.rt,key_resp_10.keys,key_resp_10.rt,practice_comparison,Ecc,mouse_5.x,mouse_5.y,mouse_5.leftButton,mouse_5.midButton,mouse_5.rightButton,mouse_5.clicked_name,pracsimilarity,response_time,mouse_10.x,mouse_10.y,mouse_10.leftButton,mouse_10.midButton,mouse_10.rightButton,mouse_10.clicked_name,mouse_7.x,mouse_7.y,mouse_7.leftButton,mouse_7.midButton,mouse_7.rightButton,mouse_6.x,mouse_6.y,mouse_6.leftButton,mouse_6.midButton,mouse_6.rightButton,duringprac.thisRepN,duringprac.thisTrialN,duringprac.thisN,duringprac.thisIndex,duringprac.ran,participant,session,date,expName,psychopyVersion,OS,frameRate,study_id,mouse_7.clicked_name,catchpracsimilarity,catch_response_time,catchnumberprac,catchtrialorderprac,mouse_6.clicked_name,key_resp_22.keys,key_resp_22.rt,realcomparison,mouse.x,mouse.y,mouse.leftButton,mouse.midButton,mouse.rightButton,mouse.clicked_name,Colour2,similarity,mouse_2.x,mouse_2.y,mouse_2.leftButton,mouse_2.midButton,mouse_2.rightButton,mouse_2.clicked_name,mouse_3.x,mouse_3.y,mouse_3.leftButton,mouse_3.midButton,mouse_3.rightButton,mouse_11.x,mouse_11.y,mouse_11.leftButton,mouse_11.midButton,mouse_11.rightButton,trials_2.thisRepN,trials_2.thisTrialN,trials_2.thisN,trials_2.thisIndex,trials_2.ran,Colour1,mouse_3.clicked_name,catchornah,catchsimilarity,catchnumber,catchtrialorder,catchRT,mouse_11.clicked_name
space,1.814,space,2.039,space,18.247,space,9.532,space,1.375,space,2.054,153,PF,49,56,1,0,0,response1disk_5,7,3.738,1,-8,1,0,0,rectangle_8,1,-8,1,0,0,1,-8,1,0,0,0,0,0,2,1,60fcf8392a83ae1b971d1199,61036bdc881c7a19b0966af9,2021-07-29_23h03.58.376,Simcolourproject_2stim_asymm_v5,2020.2.10,Win32,60,61025ae37ef11b136ea224fe,,,,,,,,,,,,,,,,,,,,,,,,,,,,,,,,,,,,,,,,,,,,,,
,,,,,,,,,,,,133,PF,58,68,1,0,0,response1disk_5,7,1.063,-2,-5,1,0,0,rectangle_8,-30,63,1,0,0,-6,-3,1,0,0,0,1,1,1,1,60fcf8392a83ae1b971d1199,61036bdc881c7a19b0966af9,2021-07-29_23h03.58.376,Simcolourproject_2stim_asymm_v5,2020.2.10,Win32,60,61025ae37ef11b136ea224fe,response7disk_7,0,2.626,0,"[2,5]",rectangle_4,,,,,,,,,,,,,,,,,,,,,,,,,,,,,,,,,,,,,,,,
,,,,,,,,,,,,142,PF,31,-63,1,0,0,response3disk_5,4,1.932,-13,-11,1,0,0,rectangle_8,-13,-11,1,0,0,-13,-11,1,0,0,0,2,2,6,1,60fcf8392a83ae1b971d1199,61036bdc881c7a19b0966af9,2021-07-29_23h03.58.376,Simcolourproject_2stim_asymm_v5,2020.2.10,Win32,60,61025ae37ef11b136ea224fe,,,,,,,,,,,,,,,,,,,,,,,,,,,,,,,,,,,,,,,,,,,,,,
,,,,,,,,,,,,105,FF,67,45,1,0,0,response1disk_5,6,1.682,12,-7,1,0,0,rectangle_8,12,-7,1,0,0,12,-7,1,0,0,0,3,3,5,1,60fcf8392a83ae1b971d1199,61036bdc881c7a19b0966af9,2021-07-29_23h03.58.376,Simcolourproject_2stim_asymm_v5,2020.2.10,Win32,60,61025ae37ef11b136ea224fe,,,,,,,,,,,,,,,,,,,,,,,,,,,,,,,,,,,,,,,,,,,,,,
,,,,,,,,,,,,99,PF,60,36,1,0,0,response1disk_5,6,1.229,-15,5,1,0,0,rectangle_8,-45,78,1,0,0,-21,0,1,0,0,0,4,4,4,1,60fcf8392a83ae1b971d1199,61036bdc881c7a19b0966af9,2021-07-29_23h03.58.376,Simcolourproject_2stim_asymm_v5,2020.2.10,Win32,60,61025ae37ef11b136ea224fe,response7disk_7,0,2.308,0,"[2,5]",rectangle_4,,,,,,,,,,,,,,,,,,,,,,,,,,,,,,,,,,,,,,,,
,,,,,,,,,,,,143,FF,-27,-75,1,0,0,response5disk_5,3,1.783,-1,11,1,0,0,rectangle_8,-1,11,1,0,0,-1,11,1,0,0,0,5,5,0,1,60fcf8392a83ae1b971d1199,61036bdc881c7a19b0966af9,2021-07-29_23h03.58.376,Simcolourproject_2stim_asymm_v5,2020.2.10,Win32,60,61025ae37ef11b136ea224fe,,,,,,,,,,,,,,,,,,,,,,,,,,,,,,,,,,,,,,,,,,,,,,
,,,,,,,,,,,,103,FF,57,-33,1,0,0,response3disk_5,5,1.629,-1,7,1,0,0,rectangle_8,-1,7,1,0,0,-1,7,1,0,0,0,6,6,3,1,60fcf8392a83ae1b971d1199,61036bdc881c7a19b0966af9,2021-07-29_23h03.58.376,Simcolourproject_2stim_asymm_v5,2020.2.10,Win32,60,61025ae37ef11b136ea224fe,,,,,,,,,,,,,,,,,,,,,,,,,,,,,,,,,,,,,,,,,,,,,,
,,,,,,,,,,,,,FF,,,,,,,,1.639,,,,,,,,,,,,,,,,,,,,,,60fcf8392a83ae1b971d1199,61036bdc881c7a19b0966af9,2021-07-29_23h03.58.376,Simcolourproject_2stim_asymm_v5,2020.2.10,Win32,60,61025ae37ef11b136ea224fe,,,,,,,space,2.559,3862,50,-25,1,0,0,response3disk,,5,9,10,1,0,0,rectangle,9,10,1,0,0,9,10,1,0,0,0,0,0,35,1,,,,,,,,
,,,,,,,,,,,,,FF,,,,,,,,2.892,,,,,,,,,,,,,,,,,,,,,,60fcf8392a83ae1b971d1199,61036bdc881c7a19b0966af9,2021-07-29_23h03.58.376,Simcolourproject_2stim_asymm_v5,2020.2.10,Win32,60,61025ae37ef11b136ea224fe,,,,,,,,,443,-73,39,1,0,0,response7disk,,1,-15,2,1,0,0,rectangle,-15,2,1,0,0,-15,2,1,0,0,0,1,1,123,1,,,,,,,,
,,,,,,,,,,,,,FF,,,,,,,,1.442,,,,,,,,,,,,,,,,,,,,,,60fcf8392a83ae1b971d1199,61036bdc881c7a19b0966af9,2021-07-29_23h03.58.376,Simcolourproject_2stim_asymm_v5,2020.2.10,Win32,60,61025ae37ef11b136ea224fe,,,,,,,,,696,43,-59,1,0,0,response3disk,,4,24,-7,1,0,0,rectangle,24,-7,1,0,0,24,-7,1,0,0,0,2,2,43,1,,,,,,,,
,,,,,,,,,,,,,FF,,,,,,,,1.439,,,,,,,,,,,,,,,,,,,,,,60fcf8392a83ae1b971d1199,61036bdc881c7a19b0966af9,2021-07-29_23h03.58.376,Simcolourproject_2stim_asymm_v5,2020.2.10,Win32,60,61025ae37ef11b136ea224fe,,,,,,,,,3339,-43,-47,1,0,0,response5disk,,3,10,-2,1,0,0,rectangle,10,-2,1,0,0,10,-2,1,0,0,0,3,3,120,1,,,,,,,,
,,,,,,,,,,,,,FF,,,,,,,,2.137,,,,,,,,,,,,,,,,,,,,,,60fcf8392a83ae1b971d1199,61036bdc881c7a19b0966af9,2021-07-29_23h03.58.376,Simcolourproject_2stim_asymm_v5,2020.2.10,Win32,60,61025ae37ef11b136ea224fe,,,,,,,,,1012,78,41,1,0,0,response1disk,,6,15,-8,1,0,0,rectangle,15,-8,1,0,0,15,-8,1,0,0,0,4,4,103,1,,,,,,,,
,,,,,,,,,,,,,FF,,,,,,,,1.566,,,,,,,,,,,,,,,,,,,,,,60fcf8392a83ae1b971d1199,61036bdc881c7a19b0966af9,2021-07-29_23h03.58.376,Simcolourproject_2stim_asymm_v5,2020.2.10,Win32,60,61025ae37ef11b136ea224fe,,,,,,,,,3829,45,24,1,0,0,response1disk,,6,-1,-3,1,0,0,rectangle,31,-82,1,0,0,1,5,1,0,0,0,5,5,9,1,,response3disk_3,TRUE,4,4,"[220,222,68,113,77,26,193,14,109,129,162,312,245,151,181,159,302,6,271,95]",2.758,rectangle
,,,,,,,,,,,,,FF,,,,,,,,1.802,,,,,,,,,,,,,,,,,,,,,,60fcf8392a83ae1b971d1199,61036bdc881c7a19b0966af9,2021-07-29_23h03.58.376,Simcolourproject_2stim_asymm_v5,2020.2.10,Win32,60,61025ae37ef11b136ea224fe,,,,,,,,,3329,-45,-68,1,0,0,response5disk,,3,-11,5,1,0,0,rectangle,-11,5,1,0,0,-11,5,1,0,0,0,6,6,100,1,,,,,,,,
,,,,,,,,,,,,,FF,,,,,,,,0.765,,,,,,,,,,,,,,,,,,,,,,60fcf8392a83ae1b971d1199,61036bdc881c7a19b0966af9,2021-07-29_23h03.58.376,Simcolourproject_2stim_asymm_v5,2020.2.10,Win32,60,61025ae37ef11b136ea224fe,,,,,,,,,609,-55,-91,1,0,0,response5disk,,3,-9,-1,1,0,0,rectangle,-9,-1,1,0,0,-9,-1,1,0,0,0,7,7,105,1,,,,,,,,
,,,,,,,,,,,,,FF,,,,,,,,0.868,,,,,,,,,,,,,,,,,,,,,,60fcf8392a83ae1b971d1199,61036bdc881c7a19b0966af9,2021-07-29_23h03.58.376,Simcolourproject_2stim_asymm_v5,2020.2.10,Win32,60,61025ae37ef11b136ea224fe,,,,,,,,,645,59,-48,1,0,0,response3disk,,5,1,-3,1,0,0,rectangle,1,-3,1,0,0,1,-3,1,0,0,0,8,8,7,1,,,,,,,,
,,,,,,,,,,,,,FF,,,,,,,,0.705,,,,,,,,,,,,,,,,,,,,,,60fcf8392a83ae1b971d1199,61036bdc881c7a19b0966af9,2021-07-29_23h03.58.376,Simcolourproject_2stim_asymm_v5,2020.2.10,Win32,60,61025ae37ef11b136ea224fe,,,,,,,,,4094,50,63,1,0,0,response1disk,,7,26,9,1,0,0,rectangle,26,9,1,0,0,26,9,1,0,0,0,9,9,133,1,,,,,,,,
,,,,,,,,,,,,,FF,,,,,,,,1.11,,,,,,,,,,,,,,,,,,,,,,60fcf8392a83ae1b971d1199,61036bdc881c7a19b0966af9,2021-07-29_23h03.58.376,Simcolourproject_2stim_asymm_v5,2020.2.10,Win32,60,61025ae37ef11b136ea224fe,,,,,,,,,49,62,42,1,0,0,response1disk,,6,15,-2,1,0,0,rectangle,15,-2,1,0,0,15,-2,1,0,0,0,10,10,65,1,,,,,,,,
,,,,,,,,,,,,,FF,,,,,,,,0.735,,,,,,,,,,,,,,,,,,,,,,60fcf8392a83ae1b971d1199,61036bdc881c7a19b0966af9,2021-07-29_23h03.58.376,Simcolourproject_2stim_asymm_v5,2020.2.10,Win32,60,61025ae37ef11b136ea224fe,,,,,,,,,160,59,-35,1,0,0,response3disk,,5,0,3,1,0,0,rectangle,0,3,1,0,0,0,3,1,0,0,0,11,11,111,1,,,,,,,,
,,,,,,,,,,,,,FF,,,,,,,,0.789,,,,,,,,,,,,,,,,,,,,,,60fcf8392a83ae1b971d1199,61036bdc881c7a19b0966af9,2021-07-29_23h03.58.376,Simcolourproject_2stim_asymm_v5,2020.2.10,Win32,60,61025ae37ef11b136ea224fe,,,,,,,,,2269,34,63,1,0,0,response1disk,,7,8,1,1,0,0,rectangle,8,1,1,0,0,8,1,1,0,0,0,12,12,104,1,,,,,,,,
,,,,,,,,,,,,,FF,,,,,,,,0.963,,,,,,,,,,,,,,,,,,,,,,60fcf8392a83ae1b971d1199,61036bdc881c7a19b0966af9,2021-07-29_23h03.58.376,Simcolourproject_2stim_asymm_v5,2020.2.10,Win32,60,61025ae37ef11b136ea224fe,,,,,,,,,1670,-64,79,1,0,0,response7disk,,0,17,-10,1,0,0,rectangle,-45,81,1,0,0,-3,1,1,0,0,0,13,13,136,1,,response7disk_3,TRUE,0,0,"[220,222,68,113,77,26,193,14,109,129,162,312,245,151,181,159,302,6,271,95]",1.776,rectangle
,,,,,,,,,,,,,FF,,,,,,,,0.867,,,,,,,,,,,,,,,,,,,,,,60fcf8392a83ae1b971d1199,61036bdc881c7a19b0966af9,2021-07-29_23h03.58.376,Simcolourproject_2stim_asymm_v5,2020.2.10,Win32,60,61025ae37ef11b136ea224fe,,,,,,,,,771,31,-50,1,0,0,response3disk,,4,-7,7,1,0,0,rectangle,-7,7,1,0,0,-7,7,1,0,0,0,14,14,22,1,,,,,,,,
,,,,,,,,,,,,,FF,,,,,,,,0.773,,,,,,,,,,,,,,,,,,,,,,60fcf8392a83ae1b971d1199,61036bdc881c7a19b0966af9,2021-07-29_23h03.58.376,Simcolourproject_2stim_asymm_v5,2020.2.10,Win32,60,61025ae37ef11b136ea224fe,,,,,,,,,190,-20,-44,1,0,0,response5disk,,3,-11,5,1,0,0,rectangle,-11,5,1,0,0,-11,5,1,0,0,0,15,15,91,1,,,,,,,,
,,,,,,,,,,,,,FF,,,,,,,,0.791,,,,,,,,,,,,,,,,,,,,,,60fcf8392a83ae1b971d1199,61036bdc881c7a19b0966af9,2021-07-29_23h03.58.376,Simcolourproject_2stim_asymm_v5,2020.2.10,Win32,60,61025ae37ef11b136ea224fe,,,,,,,,,3828,43,-61,1,0,0,response3disk,,4,24,3,1,0,0,rectangle,24,3,1,0,0,24,3,1,0,0,0,16,16,10,1,,,,,,,,
,,,,,,,,,,,,,FF,,,,,,,,1.5,,,,,,,,,,,,,,,,,,,,,,60fcf8392a83ae1b971d1199,61036bdc881c7a19b0966af9,2021-07-29_23h03.58.376,Simcolourproject_2stim_asymm_v5,2020.2.10,Win32,60,61025ae37ef11b136ea224fe,,,,,,,,,2767,38,-63,1,0,0,response3disk,,4,21,5,1,0,0,rectangle,21,5,1,0,0,21,5,1,0,0,0,17,17,141,1,,,,,,,,
,,,,,,,,,,,,,FF,,,,,,,,0.912,,,,,,,,,,,,,,,,,,,,,,60fcf8392a83ae1b971d1199,61036bdc881c7a19b0966af9,2021-07-29_23h03.58.376,Simcolourproject_2stim_asymm_v5,2020.2.10,Win32,60,61025ae37ef11b136ea224fe,,,,,,,,,3223,37,57,1,0,0,response1disk,,7,17,2,1,0,0,rectangle,17,2,1,0,0,17,2,1,0,0,0,18,18,92,1,,,,,,,,
,,,,,,,,,,,,,FF,,,,,,,,1.17,,,,,,,,,,,,,,,,,,,,,,60fcf8392a83ae1b971d1199,61036bdc881c7a19b0966af9,2021-07-29_23h03.58.376,Simcolourproject_2stim_asymm_v5,2020.2.10,Win32,60,61025ae37ef11b136ea224fe,,,,,,,,,2568,87,45,1,0,0,response1disk,,6,21,0,1,0,0,rectangle,21,0,1,0,0,21,0,1,0,0,0,19,19,16,1,,,,,,,,
,,,,,,,,,,,,,FF,,,,,,,,0.68,,,,,,,,,,,,,,,,,,,,,,60fcf8392a83ae1b971d1199,61036bdc881c7a19b0966af9,2021-07-29_23h03.58.376,Simcolourproject_2stim_asymm_v5,2020.2.10,Win32,60,61025ae37ef11b136ea224fe,,,,,,,,,4138,17,35,1,0,0,response1disk,,7,2,0,1,0,0,rectangle,2,0,1,0,0,2,0,1,0,0,0,20,20,64,1,,,,,,,,
,,,,,,,,,,,,,FF,,,,,,,,0.803,,,,,,,,,,,,,,,,,,,,,,60fcf8392a83ae1b971d1199,61036bdc881c7a19b0966af9,2021-07-29_23h03.58.376,Simcolourproject_2stim_asymm_v5,2020.2.10,Win32,60,61025ae37ef11b136ea224fe,,,,,,,,,2387,27,52,1,0,0,response1disk,,7,14,13,1,0,0,rectangle,14,13,1,0,0,14,13,1,0,0,0,21,21,6,1,,,,,,,,
,,,,,,,,,,,,,FF,,,,,,,,0.759,,,,,,,,,,,,,,,,,,,,,,60fcf8392a83ae1b971d1199,61036bdc881c7a19b0966af9,2021-07-29_23h03.58.376,Simcolourproject_2stim_asymm_v5,2020.2.10,Win32,60,61025ae37ef11b136ea224fe,,,,,,,,,668,21,68,1,0,0,response1disk,,7,15,12,1,0,0,rectangle,15,12,1,0,0,15,12,1,0,0,0,22,22,94,1,,,,,,,,
,,,,,,,,,,,,,FF,,,,,,,,0.842,,,,,,,,,,,,,,,,,,,,,,60fcf8392a83ae1b971d1199,61036bdc881c7a19b0966af9,2021-07-29_23h03.58.376,Simcolourproject_2stim_asymm_v5,2020.2.10,Win32,60,61025ae37ef11b136ea224fe,,,,,,,,,28,47,25,1,0,0,response1disk,,6,11,6,1,0,0,rectangle,11,6,1,0,0,11,6,1,0,0,0,23,23,144,1,,,,,,,,
,,,,,,,,,,,,,FF,,,,,,,,1.057,,,,,,,,,,,,,,,,,,,,,,60fcf8392a83ae1b971d1199,61036bdc881c7a19b0966af9,2021-07-29_23h03.58.376,Simcolourproject_2stim_asymm_v5,2020.2.10,Win32,60,61025ae37ef11b136ea224fe,,,,,,,,,1204,55,-41,1,0,0,response3disk,,5,24,-5,1,0,0,rectangle,24,-5,1,0,0,24,-5,1,0,0,0,24,24,21,1,,,,,,,,
,,,,,,,,,,,,,FF,,,,,,,,1.117,,,,,,,,,,,,,,,,,,,,,,60fcf8392a83ae1b971d1199,61036bdc881c7a19b0966af9,2021-07-29_23h03.58.376,Simcolourproject_2stim_asymm_v5,2020.2.10,Win32,60,61025ae37ef11b136ea224fe,,,,,,,,,1618,-39,-45,1,0,0,response5disk,,3,-20,0,1,0,0,rectangle,-37,64,1,0,0,-13,3,1,0,0,0,25,25,93,1,,response7disk_3,TRUE,0,0,"[220,222,68,113,77,26,193,14,109,129,162,312,245,151,181,159,302,6,271,95]",1.305,rectangle
,,,,,,,,,,,,,FF,,,,,,,,1.035,,,,,,,,,,,,,,,,,,,,,,60fcf8392a83ae1b971d1199,61036bdc881c7a19b0966af9,2021-07-29_23h03.58.376,Simcolourproject_2stim_asymm_v5,2020.2.10,Win32,60,61025ae37ef11b136ea224fe,,,,,,,,,4327,-55,51,1,0,0,response7disk,,1,-3,0,1,0,0,rectangle,-3,0,1,0,0,-3,0,1,0,0,0,26,26,26,1,,,,,,,,
,,,,,,,,,,,,,FF,,,,,,,,0.916,,,,,,,,,,,,,,,,,,,,,,60fcf8392a83ae1b971d1199,61036bdc881c7a19b0966af9,2021-07-29_23h03.58.376,Simcolourproject_2stim_asymm_v5,2020.2.10,Win32,60,61025ae37ef11b136ea224fe,,,,,,,,,1679,-37,-47,1,0,0,response5disk,,3,-6,10,1,0,0,rectangle,-6,10,1,0,0,-6,10,1,0,0,0,27,27,127,1,,,,,,,,
,,,,,,,,,,,,,FF,,,,,,,,0.666,,,,,,,,,,,,,,,,,,,,,,60fcf8392a83ae1b971d1199,61036bdc881c7a19b0966af9,2021-07-29_23h03.58.376,Simcolourproject_2stim_asymm_v5,2020.2.10,Win32,60,61025ae37ef11b136ea224fe,,,,,,,,,1500,58,-41,1,0,0,response3disk,,5,-7,7,1,0,0,rectangle,-7,7,1,0,0,-7,7,1,0,0,0,28,28,68,1,,,,,,,,
,,,,,,,,,,,,,FF,,,,,,,,1.135,,,,,,,,,,,,,,,,,,,,,,60fcf8392a83ae1b971d1199,61036bdc881c7a19b0966af9,2021-07-29_23h03.58.376,Simcolourproject_2stim_asymm_v5,2020.2.10,Win32,60,61025ae37ef11b136ea224fe,,,,,,,,,4097,-44,-61,1,0,0,response5disk,,3,-29,-3,1,0,0,rectangle,-29,-3,1,0,0,-29,-3,1,0,0,0,29,29,130,1,,,,,,,,
,,,,,,,,,,,,,FF,,,,,,,,0.803,,,,,,,,,,,,,,,,,,,,,,60fcf8392a83ae1b971d1199,61036bdc881c7a19b0966af9,2021-07-29_23h03.58.376,Simcolourproject_2stim_asymm_v5,2020.2.10,Win32,60,61025ae37ef11b136ea224fe,,,,,,,,,2990,43,-58,1,0,0,response3disk,,4,1,3,1,0,0,rectangle,1,3,1,0,0,1,3,1,0,0,0,30,30,25,1,,,,,,,,
,,,,,,,,,,,,,FF,,,,,,,,0.634,,,,,,,,,,,,,,,,,,,,,,60fcf8392a83ae1b971d1199,61036bdc881c7a19b0966af9,2021-07-29_23h03.58.376,Simcolourproject_2stim_asymm_v5,2020.2.10,Win32,60,61025ae37ef11b136ea224fe,,,,,,,,,3956,32,49,1,0,0,response1disk,,7,16,4,1,0,0,rectangle,16,4,1,0,0,16,4,1,0,0,0,31,31,45,1,,,,,,,,
,,,,,,,,,,,,,FF,,,,,,,,17.198,,,,,,,,,,,,,,,,,,,,,,60fcf8392a83ae1b971d1199,61036bdc881c7a19b0966af9,2021-07-29_23h03.58.376,Simcolourproject_2stim_asymm_v5,2020.2.10,Win32,60,61025ae37ef11b136ea224fe,,,,,,,,,2078,15,23,1,0,0,response1disk,,7,-27,-2,1,0,0,rectangle,-27,-2,1,0,0,-27,-2,1,0,0,0,32,32,137,1,,,,,,,,
,,,,,,,,,,,,,FF,,,,,,,,0.731,,,,,,,,,,,,,,,,,,,,,,60fcf8392a83ae1b971d1199,61036bdc881c7a19b0966af9,2021-07-29_23h03.58.376,Simcolourproject_2stim_asymm_v5,2020.2.10,Win32,60,61025ae37ef11b136ea224fe,,,,,,,,,35,-39,22,1,0,0,response7disk,,1,15,-4,1,0,0,rectangle,15,-4,1,0,0,15,-4,1,0,0,0,33,33,47,1,,,,,,,,
,,,,,,,,,,,,,FF,,,,,,,,0.867,,,,,,,,,,,,,,,,,,,,,,60fcf8392a83ae1b971d1199,61036bdc881c7a19b0966af9,2021-07-29_23h03.58.376,Simcolourproject_2stim_asymm_v5,2020.2.10,Win32,60,61025ae37ef11b136ea224fe,,,,,,,,,1040,-27,-61,1,0,0,response5disk,,3,-3,-10,1,0,0,rectangle,-3,-10,1,0,0,-3,-10,1,0,0,0,34,34,117,1,,,,,,,,
,,,,,,,,,,,,,FF,,,,,,,,0.594,,,,,,,,,,,,,,,,,,,,,,60fcf8392a83ae1b971d1199,61036bdc881c7a19b0966af9,2021-07-29_23h03.58.376,Simcolourproject_2stim_asymm_v5,2020.2.10,Win32,60,61025ae37ef11b136ea224fe,,,,,,,,,2664,-35,-58,1,0,0,response5disk,,3,-17,-7,1,0,0,rectangle,-17,-7,1,0,0,-17,-7,1,0,0,0,35,35,102,1,,,,,,,,
,,,,,,,,,,,,,FF,,,,,,,,0.535,,,,,,,,,,,,,,,,,,,,,,60fcf8392a83ae1b971d1199,61036bdc881c7a19b0966af9,2021-07-29_23h03.58.376,Simcolourproject_2stim_asymm_v5,2020.2.10,Win32,60,61025ae37ef11b136ea224fe,,,,,,,,,1455,-55,-27,1,0,0,response5disk,,2,5,-1,1,0,0,rectangle,5,-1,1,0,0,5,-1,1,0,0,0,36,36,70,1,,,,,,,,
,,,,,,,,,,,,,FF,,,,,,,,0.871,,,,,,,,,,,,,,,,,,,,,,60fcf8392a83ae1b971d1199,61036bdc881c7a19b0966af9,2021-07-29_23h03.58.376,Simcolourproject_2stim_asymm_v5,2020.2.10,Win32,60,61025ae37ef11b136ea224fe,,,,,,,,,2066,67,28,1,0,0,response1disk,,6,15,-1,1,0,0,rectangle,15,-1,1,0,0,15,-1,1,0,0,0,37,37,61,1,,,,,,,,
,,,,,,,,,,,,,FF,,,,,,,,1.15,,,,,,,,,,,,,,,,,,,,,,60fcf8392a83ae1b971d1199,61036bdc881c7a19b0966af9,2021-07-29_23h03.58.376,Simcolourproject_2stim_asymm_v5,2020.2.10,Win32,60,61025ae37ef11b136ea224fe,,,,,,,,,1140,58,28,1,0,0,response1disk,,6,21,1,1,0,0,rectangle,21,1,1,0,0,21,1,1,0,0,0,38,38,37,1,,,,,,,,
,,,,,,,,,,,,,FF,,,,,,,,1.093,,,,,,,,,,,,,,,,,,,,,,60fcf8392a83ae1b971d1199,61036bdc881c7a19b0966af9,2021-07-29_23h03.58.376,Simcolourproject_2stim_asymm_v5,2020.2.10,Win32,60,61025ae37ef11b136ea224fe,,,,,,,,,2617,54,-31,1,0,0,response3disk,,5,3,3,1,0,0,rectangle,3,3,1,0,0,3,3,1,0,0,0,39,39,53,1,,,,,,,,
,,,,,,,,,,,,,FF,,,,,,,,1.211,,,,,,,,,,,,,,,,,,,,,,60fcf8392a83ae1b971d1199,61036bdc881c7a19b0966af9,2021-07-29_23h03.58.376,Simcolourproject_2stim_asymm_v5,2020.2.10,Win32,60,61025ae37ef11b136ea224fe,,,,,,,,,2834,-20,-63,1,0,0,response5disk,,3,0,-1,1,0,0,rectangle,0,-1,1,0,0,0,-1,1,0,0,0,40,40,8,1,,,,,,,,
,,,,,,,,,,,,,FF,,,,,,,,0.7,,,,,,,,,,,,,,,,,,,,,,60fcf8392a83ae1b971d1199,61036bdc881c7a19b0966af9,2021-07-29_23h03.58.376,Simcolourproject_2stim_asymm_v5,2020.2.10,Win32,60,61025ae37ef11b136ea224fe,,,,,,,,,173,-20,-51,1,0,0,response5disk,,3,-4,-5,1,0,0,rectangle,-4,-5,1,0,0,-4,-5,1,0,0,0,41,41,140,1,,,,,,,,
,,,,,,,,,,,,,FF,,,,,,,,1.285,,,,,,,,,,,,,,,,,,,,,,60fcf8392a83ae1b971d1199,61036bdc881c7a19b0966af9,2021-07-29_23h03.58.376,Simcolourproject_2stim_asymm_v5,2020.2.10,Win32,60,61025ae37ef11b136ea224fe,,,,,,,,,272,68,-55,1,0,0,response3disk,,5,1,1,1,0,0,rectangle,1,1,1,0,0,1,1,1,0,0,0,42,42,149,1,,,,,,,,
,,,,,,,,,,,,,FF,,,,,,,,1.593,,,,,,,,,,,,,,,,,,,,,,60fcf8392a83ae1b971d1199,61036bdc881c7a19b0966af9,2021-07-29_23h03.58.376,Simcolourproject_2stim_asymm_v5,2020.2.10,Win32,60,61025ae37ef11b136ea224fe,,,,,,,,,540,66,-45,1,0,0,response3disk,,5,7,-13,1,0,0,rectangle,7,-13,1,0,0,7,-13,1,0,0,0,43,43,32,1,,,,,,,,
,,,,,,,,,,,,,FF,,,,,,,,0.78,,,,,,,,,,,,,,,,,,,,,,60fcf8392a83ae1b971d1199,61036bdc881c7a19b0966af9,2021-07-29_23h03.58.376,Simcolourproject_2stim_asymm_v5,2020.2.10,Win32,60,61025ae37ef11b136ea224fe,,,,,,,,,69,44,21,1,0,0,response1disk,,6,-2,1,1,0,0,rectangle,-2,1,1,0,0,-2,1,1,0,0,0,44,44,13,1,,,,,,,,
,,,,,,,,,,,,,FF,,,,,,,,0.777,,,,,,,,,,,,,,,,,,,,,,60fcf8392a83ae1b971d1199,61036bdc881c7a19b0966af9,2021-07-29_23h03.58.376,Simcolourproject_2stim_asymm_v5,2020.2.10,Win32,60,61025ae37ef11b136ea224fe,,,,,,,,,1847,56,31,1,0,0,response1disk,,6,-5,-6,1,0,0,rectangle,-5,-6,1,0,0,-5,-6,1,0,0,0,45,45,56,1,,,,,,,,
,,,,,,,,,,,,,FF,,,,,,,,0.984,,,,,,,,,,,,,,,,,,,,,,60fcf8392a83ae1b971d1199,61036bdc881c7a19b0966af9,2021-07-29_23h03.58.376,Simcolourproject_2stim_asymm_v5,2020.2.10,Win32,60,61025ae37ef11b136ea224fe,,,,,,,,,1617,41,-34,1,0,0,response3disk,,5,-1,-3,1,0,0,rectangle,-1,-3,1,0,0,-1,-3,1,0,0,0,46,46,146,1,,,,,,,,
,,,,,,,,,,,,,FF,,,,,,,,0.845,,,,,,,,,,,,,,,,,,,,,,60fcf8392a83ae1b971d1199,61036bdc881c7a19b0966af9,2021-07-29_23h03.58.376,Simcolourproject_2stim_asymm_v5,2020.2.10,Win32,60,61025ae37ef11b136ea224fe,,,,,,,,,4250,23,-42,1,0,0,response3disk,,4,30,-11,1,0,0,rectangle,30,-11,1,0,0,30,-11,1,0,0,0,47,47,132,1,,,,,,,,
,,,,,,,,,,,,,FF,,,,,,,,0.82,,,,,,,,,,,,,,,,,,,,,,60fcf8392a83ae1b971d1199,61036bdc881c7a19b0966af9,2021-07-29_23h03.58.376,Simcolourproject_2stim_asymm_v5,2020.2.10,Win32,60,61025ae37ef11b136ea224fe,,,,,,,,,1250,75,-32,1,0,0,response3disk,,5,-3,7,1,0,0,rectangle,-3,7,1,0,0,-3,7,1,0,0,0,48,48,139,1,,,,,,,,
,,,,,,,,,,,,,FF,,,,,,,,0.714,,,,,,,,,,,,,,,,,,,,,,60fcf8392a83ae1b971d1199,61036bdc881c7a19b0966af9,2021-07-29_23h03.58.376,Simcolourproject_2stim_asymm_v5,2020.2.10,Win32,60,61025ae37ef11b136ea224fe,,,,,,,,,3825,41,29,1,0,0,response1disk,,6,13,11,1,0,0,rectangle,13,11,1,0,0,13,11,1,0,0,0,49,49,150,1,,,,,,,,
,,,,,,,,,,,,,FF,,,,,,,,0.679,,,,,,,,,,,,,,,,,,,,,,60fcf8392a83ae1b971d1199,61036bdc881c7a19b0966af9,2021-07-29_23h03.58.376,Simcolourproject_2stim_asymm_v5,2020.2.10,Win32,60,61025ae37ef11b136ea224fe,,,,,,,,,4293,-70,47,1,0,0,response7disk,,1,17,5,1,0,0,rectangle,17,5,1,0,0,17,5,1,0,0,0,50,50,54,1,,,,,,,,
,,,,,,,,,,,,,FF,,,,,,,,1.25,,,,,,,,,,,,,,,,,,,,,,60fcf8392a83ae1b971d1199,61036bdc881c7a19b0966af9,2021-07-29_23h03.58.376,Simcolourproject_2stim_asymm_v5,2020.2.10,Win32,60,61025ae37ef11b136ea224fe,,,,,,,,,1875,29,-37,1,0,0,response3disk,,4,5,11,1,0,0,rectangle,5,11,1,0,0,5,11,1,0,0,0,51,51,124,1,,,,,,,,
,,,,,,,,,,,,,FF,,,,,,,,0.81,,,,,,,,,,,,,,,,,,,,,,60fcf8392a83ae1b971d1199,61036bdc881c7a19b0966af9,2021-07-29_23h03.58.376,Simcolourproject_2stim_asymm_v5,2020.2.10,Win32,60,61025ae37ef11b136ea224fe,,,,,,,,,482,31,-47,1,0,0,response3disk,,4,-3,3,1,0,0,rectangle,-3,3,1,0,0,-3,3,1,0,0,0,52,52,113,1,,,,,,,,
,,,,,,,,,,,,,FF,,,,,,,,0.861,,,,,,,,,,,,,,,,,,,,,,60fcf8392a83ae1b971d1199,61036bdc881c7a19b0966af9,2021-07-29_23h03.58.376,Simcolourproject_2stim_asymm_v5,2020.2.10,Win32,60,61025ae37ef11b136ea224fe,,,,,,,,,1868,63,-29,1,0,0,response3disk,,5,-3,1,1,0,0,rectangle,-3,1,1,0,0,-3,1,1,0,0,0,53,53,57,1,,,,,,,,
,,,,,,,,,,,,,FF,,,,,,,,0.868,,,,,,,,,,,,,,,,,,,,,,60fcf8392a83ae1b971d1199,61036bdc881c7a19b0966af9,2021-07-29_23h03.58.376,Simcolourproject_2stim_asymm_v5,2020.2.10,Win32,60,61025ae37ef11b136ea224fe,,,,,,,,,775,43,-21,1,0,0,response3disk,,5,11,-3,1,0,0,rectangle,11,-3,1,0,0,11,-3,1,0,0,0,54,54,52,1,,,,,,,,
,,,,,,,,,,,,,FF,,,,,,,,0.928,,,,,,,,,,,,,,,,,,,,,,60fcf8392a83ae1b971d1199,61036bdc881c7a19b0966af9,2021-07-29_23h03.58.376,Simcolourproject_2stim_asymm_v5,2020.2.10,Win32,60,61025ae37ef11b136ea224fe,,,,,,,,,3195,-36,67,1,0,0,response7disk,,0,-12,13,1,0,0,rectangle,-12,13,1,0,0,-12,13,1,0,0,0,55,55,135,1,,,,,,,,
,,,,,,,,,,,,,FF,,,,,,,,1.173,,,,,,,,,,,,,,,,,,,,,,60fcf8392a83ae1b971d1199,61036bdc881c7a19b0966af9,2021-07-29_23h03.58.376,Simcolourproject_2stim_asymm_v5,2020.2.10,Win32,60,61025ae37ef11b136ea224fe,,,,,,,,,3170,16,-73,1,0,0,response3disk,,4,-11,-1,1,0,0,rectangle,-11,-1,1,0,0,-11,-1,1,0,0,0,56,56,58,1,,,,,,,,
,,,,,,,,,,,,,FF,,,,,,,,0.625,,,,,,,,,,,,,,,,,,,,,,60fcf8392a83ae1b971d1199,61036bdc881c7a19b0966af9,2021-07-29_23h03.58.376,Simcolourproject_2stim_asymm_v5,2020.2.10,Win32,60,61025ae37ef11b136ea224fe,,,,,,,,,4160,29,83,1,0,0,response1disk,,7,16,3,1,0,0,rectangle,16,3,1,0,0,16,3,1,0,0,0,57,57,114,1,,,,,,,,
,,,,,,,,,,,,,FF,,,,,,,,1.434,,,,,,,,,,,,,,,,,,,,,,60fcf8392a83ae1b971d1199,61036bdc881c7a19b0966af9,2021-07-29_23h03.58.376,Simcolourproject_2stim_asymm_v5,2020.2.10,Win32,60,61025ae37ef11b136ea224fe,,,,,,,,,2180,54,-39,1,0,0,response3disk,,5,0,-11,1,0,0,rectangle,0,-11,1,0,0,0,-11,1,0,0,0,58,58,76,1,,,,,,,,
,,,,,,,,,,,,,FF,,,,,,,,1.099,,,,,,,,,,,,,,,,,,,,,,60fcf8392a83ae1b971d1199,61036bdc881c7a19b0966af9,2021-07-29_23h03.58.376,Simcolourproject_2stim_asymm_v5,2020.2.10,Win32,60,61025ae37ef11b136ea224fe,,,,,,,,,673,59,33,1,0,0,response1disk,,6,21,7,1,0,0,rectangle,21,7,1,0,0,21,7,1,0,0,0,59,59,18,1,,,,,,,,
,,,,,,,,,,,,,FF,,,,,,,,0.957,,,,,,,,,,,,,,,,,,,,,,60fcf8392a83ae1b971d1199,61036bdc881c7a19b0966af9,2021-07-29_23h03.58.376,Simcolourproject_2stim_asymm_v5,2020.2.10,Win32,60,61025ae37ef11b136ea224fe,,,,,,,,,2042,-16,-45,1,0,0,response5disk,,3,-3,-3,1,0,0,rectangle,-3,-3,1,0,0,-3,-3,1,0,0,0,60,60,138,1,,,,,,,,
,,,,,,,,,,,,,FF,,,,,,,,0.804,,,,,,,,,,,,,,,,,,,,,,60fcf8392a83ae1b971d1199,61036bdc881c7a19b0966af9,2021-07-29_23h03.58.376,Simcolourproject_2stim_asymm_v5,2020.2.10,Win32,60,61025ae37ef11b136ea224fe,,,,,,,,,1193,57,48,1,0,0,response1disk,,6,21,-13,1,0,0,rectangle,21,-13,1,0,0,21,-13,1,0,0,0,61,61,153,1,,,,,,,,
,,,,,,,,,,,,,FF,,,,,,,,0.884,,,,,,,,,,,,,,,,,,,,,,60fcf8392a83ae1b971d1199,61036bdc881c7a19b0966af9,2021-07-29_23h03.58.376,Simcolourproject_2stim_asymm_v5,2020.2.10,Win32,60,61025ae37ef11b136ea224fe,,,,,,,,,3593,29,-79,1,0,0,response3disk,,4,-13,-5,1,0,0,rectangle,-13,-5,1,0,0,-13,-5,1,0,0,0,62,62,155,1,,,,,,,,
,,,,,,,,,,,,,FF,,,,,,,,0.632,,,,,,,,,,,,,,,,,,,,,,60fcf8392a83ae1b971d1199,61036bdc881c7a19b0966af9,2021-07-29_23h03.58.376,Simcolourproject_2stim_asymm_v5,2020.2.10,Win32,60,61025ae37ef11b136ea224fe,,,,,,,,,1650,58,35,1,0,0,response1disk,,6,9,6,1,0,0,rectangle,9,6,1,0,0,9,6,1,0,0,0,63,63,159,1,,,,,,,,
,,,,,,,,,,,,,FF,,,,,,,,0.842,,,,,,,,,,,,,,,,,,,,,,60fcf8392a83ae1b971d1199,61036bdc881c7a19b0966af9,2021-07-29_23h03.58.376,Simcolourproject_2stim_asymm_v5,2020.2.10,Win32,60,61025ae37ef11b136ea224fe,,,,,,,,,2358,-17,-54,1,0,0,response5disk,,3,3,6,1,0,0,rectangle,3,6,1,0,0,3,6,1,0,0,0,64,64,97,1,,,,,,,,
,,,,,,,,,,,,,FF,,,,,,,,1.1,,,,,,,,,,,,,,,,,,,,,,60fcf8392a83ae1b971d1199,61036bdc881c7a19b0966af9,2021-07-29_23h03.58.376,Simcolourproject_2stim_asymm_v5,2020.2.10,Win32,60,61025ae37ef11b136ea224fe,,,,,,,,,3802,23,79,1,0,0,response1disk,,7,4,13,1,0,0,rectangle,4,13,1,0,0,4,13,1,0,0,0,65,65,29,1,,,,,,,,
,,,,,,,,,,,,,FF,,,,,,,,0.615,,,,,,,,,,,,,,,,,,,,,,60fcf8392a83ae1b971d1199,61036bdc881c7a19b0966af9,2021-07-29_23h03.58.376,Simcolourproject_2stim_asymm_v5,2020.2.10,Win32,60,61025ae37ef11b136ea224fe,,,,,,,,,1198,37,85,1,0,0,response1disk,,7,10,8,1,0,0,rectangle,10,8,1,0,0,10,8,1,0,0,0,66,66,27,1,,,,,,,,
,,,,,,,,,,,,,FF,,,,,,,,0.734,,,,,,,,,,,,,,,,,,,,,,60fcf8392a83ae1b971d1199,61036bdc881c7a19b0966af9,2021-07-29_23h03.58.376,Simcolourproject_2stim_asymm_v5,2020.2.10,Win32,60,61025ae37ef11b136ea224fe,,,,,,,,,2351,43,25,1,0,0,response1disk,,6,16,-9,1,0,0,rectangle,-63,-37,1,0,0,-14,-1,1,0,0,0,67,67,60,1,,response5disk_3,TRUE,2,2,"[220,222,68,113,77,26,193,14,109,129,162,312,245,151,181,159,302,6,271,95]",2.309,rectangle
,,,,,,,,,,,,,FF,,,,,,,,0.785,,,,,,,,,,,,,,,,,,,,,,60fcf8392a83ae1b971d1199,61036bdc881c7a19b0966af9,2021-07-29_23h03.58.376,Simcolourproject_2stim_asymm_v5,2020.2.10,Win32,60,61025ae37ef11b136ea224fe,,,,,,,,,4370,-41,84,1,0,0,response7disk,,0,-20,-1,1,0,0,rectangle,-20,-1,1,0,0,-20,-1,1,0,0,0,68,68,134,1,,,,,,,,
,,,,,,,,,,,,,FF,,,,,,,,2.122,,,,,,,,,,,,,,,,,,,,,,60fcf8392a83ae1b971d1199,61036bdc881c7a19b0966af9,2021-07-29_23h03.58.376,Simcolourproject_2stim_asymm_v5,2020.2.10,Win32,60,61025ae37ef11b136ea224fe,,,,,,,,,1004,37,-30,1,0,0,response3disk,,5,13,-1,1,0,0,rectangle,13,-1,1,0,0,13,-1,1,0,0,0,69,69,152,1,,,,,,,,
,,,,,,,,,,,,,FF,,,,,,,,0.779,,,,,,,,,,,,,,,,,,,,,,60fcf8392a83ae1b971d1199,61036bdc881c7a19b0966af9,2021-07-29_23h03.58.376,Simcolourproject_2stim_asymm_v5,2020.2.10,Win32,60,61025ae37ef11b136ea224fe,,,,,,,,,655,17,-35,1,0,0,response3disk,,4,-11,-1,1,0,0,rectangle,-11,-1,1,0,0,-11,-1,1,0,0,0,70,70,115,1,,,,,,,,
,,,,,,,,,,,,,FF,,,,,,,,0.604,,,,,,,,,,,,,,,,,,,,,,60fcf8392a83ae1b971d1199,61036bdc881c7a19b0966af9,2021-07-29_23h03.58.376,Simcolourproject_2stim_asymm_v5,2020.2.10,Win32,60,61025ae37ef11b136ea224fe,,,,,,,,,1994,49,42,1,0,0,response1disk,,6,5,13,1,0,0,rectangle,5,13,1,0,0,5,13,1,0,0,0,71,71,98,1,,,,,,,,
,,,,,,,,,,,,,FF,,,,,,,,0.55,,,,,,,,,,,,,,,,,,,,,,60fcf8392a83ae1b971d1199,61036bdc881c7a19b0966af9,2021-07-29_23h03.58.376,Simcolourproject_2stim_asymm_v5,2020.2.10,Win32,60,61025ae37ef11b136ea224fe,,,,,,,,,1924,65,39,1,0,0,response1disk,,6,14,10,1,0,0,rectangle,14,10,1,0,0,14,10,1,0,0,0,72,72,84,1,,,,,,,,
,,,,,,,,,,,,,FF,,,,,,,,1.061,,,,,,,,,,,,,,,,,,,,,,60fcf8392a83ae1b971d1199,61036bdc881c7a19b0966af9,2021-07-29_23h03.58.376,Simcolourproject_2stim_asymm_v5,2020.2.10,Win32,60,61025ae37ef11b136ea224fe,,,,,,,,,1188,27,63,1,0,0,response1disk,,7,-8,5,1,0,0,rectangle,-8,5,1,0,0,-8,5,1,0,0,0,73,73,40,1,,,,,,,,
,,,,,,,,,,,,,FF,,,,,,,,0.768,,,,,,,,,,,,,,,,,,,,,,60fcf8392a83ae1b971d1199,61036bdc881c7a19b0966af9,2021-07-29_23h03.58.376,Simcolourproject_2stim_asymm_v5,2020.2.10,Win32,60,61025ae37ef11b136ea224fe,,,,,,,,,3976,53,-33,1,0,0,response3disk,,5,-17,9,1,0,0,rectangle,-17,9,1,0,0,-17,9,1,0,0,0,74,74,86,1,,,,,,,,
,,,,,,,,,,,,,FF,,,,,,,,0.703,,,,,,,,,,,,,,,,,,,,,,60fcf8392a83ae1b971d1199,61036bdc881c7a19b0966af9,2021-07-29_23h03.58.376,Simcolourproject_2stim_asymm_v5,2020.2.10,Win32,60,61025ae37ef11b136ea224fe,,,,,,,,,586,39,59,1,0,0,response1disk,,7,11,3,1,0,0,rectangle,11,3,1,0,0,11,3,1,0,0,0,75,75,51,1,,,,,,,,
,,,,,,,,,,,,,FF,,,,,,,,1.033,,,,,,,,,,,,,,,,,,,,,,60fcf8392a83ae1b971d1199,61036bdc881c7a19b0966af9,2021-07-29_23h03.58.376,Simcolourproject_2stim_asymm_v5,2020.2.10,Win32,60,61025ae37ef11b136ea224fe,,,,,,,,,2844,66,-39,1,0,0,response3disk,,5,-15,-2,1,0,0,rectangle,36,80,1,0,0,-3,7,1,0,0,0,76,76,72,1,,response1disk_3,TRUE,7,7,"[220,222,68,113,77,26,193,14,109,129,162,312,245,151,181,159,302,6,271,95]",1.723,rectangle
,,,,,,,,,,,,,FF,,,,,,,,1.394,,,,,,,,,,,,,,,,,,,,,,60fcf8392a83ae1b971d1199,61036bdc881c7a19b0966af9,2021-07-29_23h03.58.376,Simcolourproject_2stim_asymm_v5,2020.2.10,Win32,60,61025ae37ef11b136ea224fe,,,,,,,,,4360,67,-30,1,0,0,response3disk,,5,21,-5,1,0,0,rectangle,21,-5,1,0,0,21,-5,1,0,0,0,77,77,107,1,,,,,,,,
,,,,,,,,,,,,,FF,,,,,,,,0.958,,,,,,,,,,,,,,,,,,,,,,60fcf8392a83ae1b971d1199,61036bdc881c7a19b0966af9,2021-07-29_23h03.58.376,Simcolourproject_2stim_asymm_v5,2020.2.10,Win32,60,61025ae37ef11b136ea224fe,,,,,,,,,1433,20,-47,1,0,0,response3disk,,4,-5,-3,1,0,0,rectangle,-5,-3,1,0,0,-5,-3,1,0,0,0,78,78,157,1,,,,,,,,
,,,,,,,,,,,,,FF,,,,,,,,0.853,,,,,,,,,,,,,,,,,,,,,,60fcf8392a83ae1b971d1199,61036bdc881c7a19b0966af9,2021-07-29_23h03.58.376,Simcolourproject_2stim_asymm_v5,2020.2.10,Win32,60,61025ae37ef11b136ea224fe,,,,,,,,,2913,59,48,1,0,0,response1disk,,6,17,-3,1,0,0,rectangle,17,-3,1,0,0,17,-3,1,0,0,0,79,79,96,1,,,,,,,,
,,,,,,,,,,,,,FF,,,,,,,,0.795,,,,,,,,,,,,,,,,,,,,,,60fcf8392a83ae1b971d1199,61036bdc881c7a19b0966af9,2021-07-29_23h03.58.376,Simcolourproject_2stim_asymm_v5,2020.2.10,Win32,60,61025ae37ef11b136ea224fe,,,,,,,,,843,33,-39,1,0,0,response3disk,,4,-9,3,1,0,0,rectangle,-9,3,1,0,0,-9,3,1,0,0,0,80,80,122,1,,,,,,,,
,,,,,,,,,,,,,FF,,,,,,,,0.982,,,,,,,,,,,,,,,,,,,,,,60fcf8392a83ae1b971d1199,61036bdc881c7a19b0966af9,2021-07-29_23h03.58.376,Simcolourproject_2stim_asymm_v5,2020.2.10,Win32,60,61025ae37ef11b136ea224fe,,,,,,,,,2516,72,41,1,0,0,response1disk,,6,-13,-3,1,0,0,rectangle,-13,-3,1,0,0,-13,-3,1,0,0,0,81,81,129,1,,,,,,,,
,,,,,,,,,,,,,FF,,,,,,,,0.747,,,,,,,,,,,,,,,,,,,,,,60fcf8392a83ae1b971d1199,61036bdc881c7a19b0966af9,2021-07-29_23h03.58.376,Simcolourproject_2stim_asymm_v5,2020.2.10,Win32,60,61025ae37ef11b136ea224fe,,,,,,,,,2644,48,19,1,0,0,response1disk,,6,-26,-11,1,0,0,rectangle,-26,-11,1,0,0,-26,-11,1,0,0,0,82,82,31,1,,,,,,,,
,,,,,,,,,,,,,FF,,,,,,,,0.945,,,,,,,,,,,,,,,,,,,,,,60fcf8392a83ae1b971d1199,61036bdc881c7a19b0966af9,2021-07-29_23h03.58.376,Simcolourproject_2stim_asymm_v5,2020.2.10,Win32,60,61025ae37ef11b136ea224fe,,,,,,,,,1308,-17,-55,1,0,0,response5disk,,3,-1,-7,1,0,0,rectangle,-1,-7,1,0,0,-1,-7,1,0,0,0,83,83,67,1,,,,,,,,
,,,,,,,,,,,,,FF,,,,,,,,1.079,,,,,,,,,,,,,,,,,,,,,,60fcf8392a83ae1b971d1199,61036bdc881c7a19b0966af9,2021-07-29_23h03.58.376,Simcolourproject_2stim_asymm_v5,2020.2.10,Win32,60,61025ae37ef11b136ea224fe,,,,,,,,,2884,71,-41,1,0,0,response3disk,,5,9,-9,1,0,0,rectangle,9,-9,1,0,0,9,-9,1,0,0,0,84,84,88,1,,,,,,,,
,,,,,,,,,,,,,FF,,,,,,,,1.089,,,,,,,,,,,,,,,,,,,,,,60fcf8392a83ae1b971d1199,61036bdc881c7a19b0966af9,2021-07-29_23h03.58.376,Simcolourproject_2stim_asymm_v5,2020.2.10,Win32,60,61025ae37ef11b136ea224fe,,,,,,,,,1400,20,-61,1,0,0,response3disk,,4,-13,1,1,0,0,rectangle,-13,1,1,0,0,-13,1,1,0,0,0,85,85,15,1,,,,,,,,
,,,,,,,,,,,,,FF,,,,,,,,0.875,,,,,,,,,,,,,,,,,,,,,,60fcf8392a83ae1b971d1199,61036bdc881c7a19b0966af9,2021-07-29_23h03.58.376,Simcolourproject_2stim_asymm_v5,2020.2.10,Win32,60,61025ae37ef11b136ea224fe,,,,,,,,,1783,93,41,1,0,0,response1disk,,6,17,-1,1,0,0,rectangle,17,-1,1,0,0,17,-1,1,0,0,0,86,86,77,1,,,,,,,,
,,,,,,,,,,,,,FF,,,,,,,,0.972,,,,,,,,,,,,,,,,,,,,,,60fcf8392a83ae1b971d1199,61036bdc881c7a19b0966af9,2021-07-29_23h03.58.376,Simcolourproject_2stim_asymm_v5,2020.2.10,Win32,60,61025ae37ef11b136ea224fe,,,,,,,,,456,-48,-32,1,0,0,response5disk,,2,17,1,1,0,0,rectangle,17,1,1,0,0,17,1,1,0,0,0,87,87,55,1,,,,,,,,
,,,,,,,,,,,,,FF,,,,,,,,1.2,,,,,,,,,,,,,,,,,,,,,,60fcf8392a83ae1b971d1199,61036bdc881c7a19b0966af9,2021-07-29_23h03.58.376,Simcolourproject_2stim_asymm_v5,2020.2.10,Win32,60,61025ae37ef11b136ea224fe,,,,,,,,,476,75,29,1,0,0,response1disk,,6,19,-12,1,0,0,rectangle,19,-12,1,0,0,19,-12,1,0,0,0,88,88,2,1,,,,,,,,
,,,,,,,,,,,,,FF,,,,,,,,0.554,,,,,,,,,,,,,,,,,,,,,,60fcf8392a83ae1b971d1199,61036bdc881c7a19b0966af9,2021-07-29_23h03.58.376,Simcolourproject_2stim_asymm_v5,2020.2.10,Win32,60,61025ae37ef11b136ea224fe,,,,,,,,,3731,32,18,1,0,0,response1disk,,6,19,-3,1,0,0,rectangle,19,-3,1,0,0,19,-3,1,0,0,0,89,89,20,1,,,,,,,,
,,,,,,,,,,,,,FF,,,,,,,,1.121,,,,,,,,,,,,,,,,,,,,,,60fcf8392a83ae1b971d1199,61036bdc881c7a19b0966af9,2021-07-29_23h03.58.376,Simcolourproject_2stim_asymm_v5,2020.2.10,Win32,60,61025ae37ef11b136ea224fe,,,,,,,,,1678,-27,-44,1,0,0,response5disk,,3,-1,7,1,0,0,rectangle,-1,7,1,0,0,-1,7,1,0,0,0,90,90,82,1,,,,,,,,
,,,,,,,,,,,,,FF,,,,,,,,0.956,,,,,,,,,,,,,,,,,,,,,,60fcf8392a83ae1b971d1199,61036bdc881c7a19b0966af9,2021-07-29_23h03.58.376,Simcolourproject_2stim_asymm_v5,2020.2.10,Win32,60,61025ae37ef11b136ea224fe,,,,,,,,,360,59,-59,1,0,0,response3disk,,5,15,-3,1,0,0,rectangle,15,-3,1,0,0,15,-3,1,0,0,0,91,91,46,1,,,,,,,,
,,,,,,,,,,,,,FF,,,,,,,,1.005,,,,,,,,,,,,,,,,,,,,,,60fcf8392a83ae1b971d1199,61036bdc881c7a19b0966af9,2021-07-29_23h03.58.376,Simcolourproject_2stim_asymm_v5,2020.2.10,Win32,60,61025ae37ef11b136ea224fe,,,,,,,,,1529,-34,-60,1,0,0,response5disk,,3,-15,-1,1,0,0,rectangle,-15,-1,1,0,0,-15,-1,1,0,0,0,92,92,50,1,,,,,,,,
,,,,,,,,,,,,,FF,,,,,,,,1.407,,,,,,,,,,,,,,,,,,,,,,60fcf8392a83ae1b971d1199,61036bdc881c7a19b0966af9,2021-07-29_23h03.58.376,Simcolourproject_2stim_asymm_v5,2020.2.10,Win32,60,61025ae37ef11b136ea224fe,,,,,,,,,4272,-43,52,1,0,0,response7disk,,0,12,1,1,0,0,rectangle,12,1,1,0,0,12,1,1,0,0,0,93,93,78,1,,,,,,,,
,,,,,,,,,,,,,FF,,,,,,,,0.965,,,,,,,,,,,,,,,,,,,,,,60fcf8392a83ae1b971d1199,61036bdc881c7a19b0966af9,2021-07-29_23h03.58.376,Simcolourproject_2stim_asymm_v5,2020.2.10,Win32,60,61025ae37ef11b136ea224fe,,,,,,,,,1272,73,40,1,0,0,response1disk,,6,10,8,1,0,0,rectangle,70,37,1,0,0,11,5,1,0,0,0,94,94,36,1,,response1disk_3,TRUE,6,6,"[220,222,68,113,77,26,193,14,109,129,162,312,245,151,181,159,302,6,271,95]",1.507,rectangle
,,,,,,,,,,,,,FF,,,,,,,,1.017,,,,,,,,,,,,,,,,,,,,,,60fcf8392a83ae1b971d1199,61036bdc881c7a19b0966af9,2021-07-29_23h03.58.376,Simcolourproject_2stim_asymm_v5,2020.2.10,Win32,60,61025ae37ef11b136ea224fe,,,,,,,,,1014,73,-45,1,0,0,response3disk,,5,-1,-5,1,0,0,rectangle,-1,-5,1,0,0,-1,-5,1,0,0,0,95,95,101,1,,,,,,,,
,,,,,,,,,,,,,FF,,,,,,,,1.133,,,,,,,,,,,,,,,,,,,,,,60fcf8392a83ae1b971d1199,61036bdc881c7a19b0966af9,2021-07-29_23h03.58.376,Simcolourproject_2stim_asymm_v5,2020.2.10,Win32,60,61025ae37ef11b136ea224fe,,,,,,,,,363,59,-42,1,0,0,response3disk,,5,12,3,1,0,0,rectangle,12,3,1,0,0,12,3,1,0,0,0,96,96,108,1,,,,,,,,
,,,,,,,,,,,,,FF,,,,,,,,0.927,,,,,,,,,,,,,,,,,,,,,,60fcf8392a83ae1b971d1199,61036bdc881c7a19b0966af9,2021-07-29_23h03.58.376,Simcolourproject_2stim_asymm_v5,2020.2.10,Win32,60,61025ae37ef11b136ea224fe,,,,,,,,,2375,30,-67,1,0,0,response3disk,,4,-9,11,1,0,0,rectangle,-9,11,1,0,0,-9,11,1,0,0,0,97,97,85,1,,,,,,,,
,,,,,,,,,,,,,FF,,,,,,,,0.81,,,,,,,,,,,,,,,,,,,,,,60fcf8392a83ae1b971d1199,61036bdc881c7a19b0966af9,2021-07-29_23h03.58.376,Simcolourproject_2stim_asymm_v5,2020.2.10,Win32,60,61025ae37ef11b136ea224fe,,,,,,,,,3392,-53,-31,1,0,0,response5disk,,2,-1,7,1,0,0,rectangle,-1,7,1,0,0,-1,7,1,0,0,0,98,98,74,1,,,,,,,,
,,,,,,,,,,,,,FF,,,,,,,,1.306,,,,,,,,,,,,,,,,,,,,,,60fcf8392a83ae1b971d1199,61036bdc881c7a19b0966af9,2021-07-29_23h03.58.376,Simcolourproject_2stim_asymm_v5,2020.2.10,Win32,60,61025ae37ef11b136ea224fe,,,,,,,,,4017,36,-40,1,0,0,response3disk,,4,3,5,1,0,0,rectangle,3,5,1,0,0,3,5,1,0,0,0,99,99,69,1,,,,,,,,
,,,,,,,,,,,,,FF,,,,,,,,0.685,,,,,,,,,,,,,,,,,,,,,,60fcf8392a83ae1b971d1199,61036bdc881c7a19b0966af9,2021-07-29_23h03.58.376,Simcolourproject_2stim_asymm_v5,2020.2.10,Win32,60,61025ae37ef11b136ea224fe,,,,,,,,,3049,-46,-33,1,0,0,response5disk,,2,7,-2,1,0,0,rectangle,7,-2,1,0,0,7,-2,1,0,0,0,100,100,147,1,,,,,,,,
,,,,,,,,,,,,,FF,,,,,,,,0.849,,,,,,,,,,,,,,,,,,,,,,60fcf8392a83ae1b971d1199,61036bdc881c7a19b0966af9,2021-07-29_23h03.58.376,Simcolourproject_2stim_asymm_v5,2020.2.10,Win32,60,61025ae37ef11b136ea224fe,,,,,,,,,4280,-52,89,1,0,0,response7disk,,0,-11,13,1,0,0,rectangle,-11,13,1,0,0,-11,13,1,0,0,0,101,101,131,1,,,,,,,,
,,,,,,,,,,,,,FF,,,,,,,,1.174,,,,,,,,,,,,,,,,,,,,,,60fcf8392a83ae1b971d1199,61036bdc881c7a19b0966af9,2021-07-29_23h03.58.376,Simcolourproject_2stim_asymm_v5,2020.2.10,Win32,60,61025ae37ef11b136ea224fe,,,,,,,,,89,46,30,1,0,0,response1disk,,6,13,3,1,0,0,rectangle,13,3,1,0,0,13,3,1,0,0,0,102,102,19,1,,,,,,,,
,,,,,,,,,,,,,FF,,,,,,,,0.918,,,,,,,,,,,,,,,,,,,,,,60fcf8392a83ae1b971d1199,61036bdc881c7a19b0966af9,2021-07-29_23h03.58.376,Simcolourproject_2stim_asymm_v5,2020.2.10,Win32,60,61025ae37ef11b136ea224fe,,,,,,,,,3616,60,33,1,0,0,response1disk,,6,7,3,1,0,0,rectangle,7,3,1,0,0,7,3,1,0,0,0,103,103,109,1,,,,,,,,
,,,,,,,,,,,,,FF,,,,,,,,0.493,,,,,,,,,,,,,,,,,,,,,,60fcf8392a83ae1b971d1199,61036bdc881c7a19b0966af9,2021-07-29_23h03.58.376,Simcolourproject_2stim_asymm_v5,2020.2.10,Win32,60,61025ae37ef11b136ea224fe,,,,,,,,,3209,65,25,1,0,0,response1disk,,6,3,-7,1,0,0,rectangle,3,-7,1,0,0,3,-7,1,0,0,0,104,104,80,1,,,,,,,,
,,,,,,,,,,,,,FF,,,,,,,,0.931,,,,,,,,,,,,,,,,,,,,,,60fcf8392a83ae1b971d1199,61036bdc881c7a19b0966af9,2021-07-29_23h03.58.376,Simcolourproject_2stim_asymm_v5,2020.2.10,Win32,60,61025ae37ef11b136ea224fe,,,,,,,,,2508,47,-37,1,0,0,response3disk,,5,5,-1,1,0,0,rectangle,5,-1,1,0,0,5,-1,1,0,0,0,105,105,95,1,,,,,,,,
,,,,,,,,,,,,,FF,,,,,,,,0.948,,,,,,,,,,,,,,,,,,,,,,60fcf8392a83ae1b971d1199,61036bdc881c7a19b0966af9,2021-07-29_23h03.58.376,Simcolourproject_2stim_asymm_v5,2020.2.10,Win32,60,61025ae37ef11b136ea224fe,,,,,,,,,2352,59,-20,1,0,0,response3disk,,5,19,6,1,0,0,rectangle,19,6,1,0,0,19,6,1,0,0,0,106,106,119,1,,,,,,,,
,,,,,,,,,,,,,FF,,,,,,,,1.325,,,,,,,,,,,,,,,,,,,,,,60fcf8392a83ae1b971d1199,61036bdc881c7a19b0966af9,2021-07-29_23h03.58.376,Simcolourproject_2stim_asymm_v5,2020.2.10,Win32,60,61025ae37ef11b136ea224fe,,,,,,,,,2241,-75,-28,1,0,0,response5disk,,2,11,5,1,0,0,rectangle,11,5,1,0,0,11,5,1,0,0,0,107,107,79,1,,,,,,,,
,,,,,,,,,,,,,FF,,,,,,,,0.734,,,,,,,,,,,,,,,,,,,,,,60fcf8392a83ae1b971d1199,61036bdc881c7a19b0966af9,2021-07-29_23h03.58.376,Simcolourproject_2stim_asymm_v5,2020.2.10,Win32,60,61025ae37ef11b136ea224fe,,,,,,,,,525,-41,-23,1,0,0,response5disk,,2,6,-6,1,0,0,rectangle,-37,-91,1,0,0,-9,-7,1,0,0,0,108,108,5,1,,response5disk_3,TRUE,3,3,"[220,222,68,113,77,26,193,14,109,129,162,312,245,151,181,159,302,6,271,95]",1.769,rectangle
,,,,,,,,,,,,,FF,,,,,,,,1.034,,,,,,,,,,,,,,,,,,,,,,60fcf8392a83ae1b971d1199,61036bdc881c7a19b0966af9,2021-07-29_23h03.58.376,Simcolourproject_2stim_asymm_v5,2020.2.10,Win32,60,61025ae37ef11b136ea224fe,,,,,,,,,1949,27,-73,1,0,0,response3disk,,4,-11,-1,1,0,0,rectangle,-11,-1,1,0,0,-11,-1,1,0,0,0,109,109,99,1,,,,,,,,
,,,,,,,,,,,,,FF,,,,,,,,1.178,,,,,,,,,,,,,,,,,,,,,,60fcf8392a83ae1b971d1199,61036bdc881c7a19b0966af9,2021-07-29_23h03.58.376,Simcolourproject_2stim_asymm_v5,2020.2.10,Win32,60,61025ae37ef11b136ea224fe,,,,,,,,,470,85,-55,1,0,0,response3disk,,5,-7,6,1,0,0,rectangle,-7,6,1,0,0,-7,6,1,0,0,0,110,110,148,1,,,,,,,,
,,,,,,,,,,,,,FF,,,,,,,,1.157,,,,,,,,,,,,,,,,,,,,,,60fcf8392a83ae1b971d1199,61036bdc881c7a19b0966af9,2021-07-29_23h03.58.376,Simcolourproject_2stim_asymm_v5,2020.2.10,Win32,60,61025ae37ef11b136ea224fe,,,,,,,,,3515,-52,-65,1,0,0,response5disk,,3,7,3,1,0,0,rectangle,7,3,1,0,0,7,3,1,0,0,0,111,111,62,1,,,,,,,,
,,,,,,,,,,,,,FF,,,,,,,,0.73,,,,,,,,,,,,,,,,,,,,,,60fcf8392a83ae1b971d1199,61036bdc881c7a19b0966af9,2021-07-29_23h03.58.376,Simcolourproject_2stim_asymm_v5,2020.2.10,Win32,60,61025ae37ef11b136ea224fe,,,,,,,,,2213,89,32,1,0,0,response1disk,,6,23,-7,1,0,0,rectangle,26,61,1,0,0,14,-3,1,0,0,0,112,112,39,1,,response1disk_3,TRUE,7,7,"[220,222,68,113,77,26,193,14,109,129,162,312,245,151,181,159,302,6,271,95]",1.413,rectangle
,,,,,,,,,,,,,FF,,,,,,,,0.932,,,,,,,,,,,,,,,,,,,,,,60fcf8392a83ae1b971d1199,61036bdc881c7a19b0966af9,2021-07-29_23h03.58.376,Simcolourproject_2stim_asymm_v5,2020.2.10,Win32,60,61025ae37ef11b136ea224fe,,,,,,,,,2344,71,30,1,0,0,response1disk,,6,1,-7,1,0,0,rectangle,1,-7,1,0,0,1,-7,1,0,0,0,113,113,118,1,,,,,,,,
,,,,,,,,,,,,,FF,,,,,,,,0.905,,,,,,,,,,,,,,,,,,,,,,60fcf8392a83ae1b971d1199,61036bdc881c7a19b0966af9,2021-07-29_23h03.58.376,Simcolourproject_2stim_asymm_v5,2020.2.10,Win32,60,61025ae37ef11b136ea224fe,,,,,,,,,132,43,28,1,0,0,response1disk,,6,19,3,1,0,0,rectangle,19,3,1,0,0,19,3,1,0,0,0,114,114,156,1,,,,,,,,
,,,,,,,,,,,,,FF,,,,,,,,1.068,,,,,,,,,,,,,,,,,,,,,,60fcf8392a83ae1b971d1199,61036bdc881c7a19b0966af9,2021-07-29_23h03.58.376,Simcolourproject_2stim_asymm_v5,2020.2.10,Win32,60,61025ae37ef11b136ea224fe,,,,,,,,,4082,-25,-57,1,0,0,response5disk,,3,2,-5,1,0,0,rectangle,2,-5,1,0,0,2,-5,1,0,0,0,115,115,106,1,,,,,,,,
,,,,,,,,,,,,,FF,,,,,,,,0.935,,,,,,,,,,,,,,,,,,,,,,60fcf8392a83ae1b971d1199,61036bdc881c7a19b0966af9,2021-07-29_23h03.58.376,Simcolourproject_2stim_asymm_v5,2020.2.10,Win32,60,61025ae37ef11b136ea224fe,,,,,,,,,1489,59,-31,1,0,0,response3disk,,5,14,-14,1,0,0,rectangle,14,-14,1,0,0,14,-14,1,0,0,0,116,116,63,1,,,,,,,,
,,,,,,,,,,,,,FF,,,,,,,,1.382,,,,,,,,,,,,,,,,,,,,,,60fcf8392a83ae1b971d1199,61036bdc881c7a19b0966af9,2021-07-29_23h03.58.376,Simcolourproject_2stim_asymm_v5,2020.2.10,Win32,60,61025ae37ef11b136ea224fe,,,,,,,,,4151,23,-49,1,0,0,response3disk,,4,-4,-5,1,0,0,rectangle,-4,-5,1,0,0,-4,-5,1,0,0,0,117,117,116,1,,,,,,,,
,,,,,,,,,,,,,FF,,,,,,,,0.914,,,,,,,,,,,,,,,,,,,,,,60fcf8392a83ae1b971d1199,61036bdc881c7a19b0966af9,2021-07-29_23h03.58.376,Simcolourproject_2stim_asymm_v5,2020.2.10,Win32,60,61025ae37ef11b136ea224fe,,,,,,,,,4206,-45,-31,1,0,0,response5disk,,2,18,2,1,0,0,rectangle,18,2,1,0,0,18,2,1,0,0,0,118,118,0,1,,,,,,,,
,,,,,,,,,,,,,FF,,,,,,,,0.687,,,,,,,,,,,,,,,,,,,,,,60fcf8392a83ae1b971d1199,61036bdc881c7a19b0966af9,2021-07-29_23h03.58.376,Simcolourproject_2stim_asymm_v5,2020.2.10,Win32,60,61025ae37ef11b136ea224fe,,,,,,,,,4283,-15,-39,1,0,0,response5disk,,3,1,-5,1,0,0,rectangle,1,-5,1,0,0,1,-5,1,0,0,0,119,119,89,1,,,,,,,,
,,,,,,,,,,,,,FF,,,,,,,,0.886,,,,,,,,,,,,,,,,,,,,,,60fcf8392a83ae1b971d1199,61036bdc881c7a19b0966af9,2021-07-29_23h03.58.376,Simcolourproject_2stim_asymm_v5,2020.2.10,Win32,60,61025ae37ef11b136ea224fe,,,,,,,,,523,-33,-36,1,0,0,response5disk,,3,0,3,1,0,0,rectangle,0,3,1,0,0,0,3,1,0,0,0,120,120,110,1,,,,,,,,
,,,,,,,,,,,,,FF,,,,,,,,0.705,,,,,,,,,,,,,,,,,,,,,,60fcf8392a83ae1b971d1199,61036bdc881c7a19b0966af9,2021-07-29_23h03.58.376,Simcolourproject_2stim_asymm_v5,2020.2.10,Win32,60,61025ae37ef11b136ea224fe,,,,,,,,,2906,51,35,1,0,0,response1disk,,6,-13,-5,1,0,0,rectangle,-13,-5,1,0,0,-13,-5,1,0,0,0,121,121,87,1,,,,,,,,
,,,,,,,,,,,,,FF,,,,,,,,1.65,,,,,,,,,,,,,,,,,,,,,,60fcf8392a83ae1b971d1199,61036bdc881c7a19b0966af9,2021-07-29_23h03.58.376,Simcolourproject_2stim_asymm_v5,2020.2.10,Win32,60,61025ae37ef11b136ea224fe,,,,,,,,,2395,45,21,1,0,0,response1disk,,6,12,-3,1,0,0,rectangle,12,-3,1,0,0,12,-3,1,0,0,0,122,122,143,1,,,,,,,,
,,,,,,,,,,,,,FF,,,,,,,,0.61,,,,,,,,,,,,,,,,,,,,,,60fcf8392a83ae1b971d1199,61036bdc881c7a19b0966af9,2021-07-29_23h03.58.376,Simcolourproject_2stim_asymm_v5,2020.2.10,Win32,60,61025ae37ef11b136ea224fe,,,,,,,,,3799,39,-34,1,0,0,response3disk,,5,-1,2,1,0,0,rectangle,-1,2,1,0,0,-1,2,1,0,0,0,123,123,24,1,,,,,,,,
,,,,,,,,,,,,,FF,,,,,,,,1.048,,,,,,,,,,,,,,,,,,,,,,60fcf8392a83ae1b971d1199,61036bdc881c7a19b0966af9,2021-07-29_23h03.58.376,Simcolourproject_2stim_asymm_v5,2020.2.10,Win32,60,61025ae37ef11b136ea224fe,,,,,,,,,3279,38,39,1,0,0,response1disk,,7,-12,-3,1,0,0,rectangle,-12,-3,1,0,0,-12,-3,1,0,0,0,124,124,128,1,,,,,,,,
,,,,,,,,,,,,,FF,,,,,,,,0.695,,,,,,,,,,,,,,,,,,,,,,60fcf8392a83ae1b971d1199,61036bdc881c7a19b0966af9,2021-07-29_23h03.58.376,Simcolourproject_2stim_asymm_v5,2020.2.10,Win32,60,61025ae37ef11b136ea224fe,,,,,,,,,3957,62,18,1,0,0,response1disk,,6,0,-8,1,0,0,rectangle,0,-8,1,0,0,0,-8,1,0,0,0,125,125,3,1,,,,,,,,
,,,,,,,,,,,,,FF,,,,,,,,1.147,,,,,,,,,,,,,,,,,,,,,,60fcf8392a83ae1b971d1199,61036bdc881c7a19b0966af9,2021-07-29_23h03.58.376,Simcolourproject_2stim_asymm_v5,2020.2.10,Win32,60,61025ae37ef11b136ea224fe,,,,,,,,,4108,20,-59,1,0,0,response3disk,,4,1,-9,1,0,0,rectangle,1,-9,1,0,0,1,-9,1,0,0,0,126,126,75,1,,,,,,,,
,,,,,,,,,,,,,FF,,,,,,,,1.335,,,,,,,,,,,,,,,,,,,,,,60fcf8392a83ae1b971d1199,61036bdc881c7a19b0966af9,2021-07-29_23h03.58.376,Simcolourproject_2stim_asymm_v5,2020.2.10,Win32,60,61025ae37ef11b136ea224fe,,,,,,,,,3877,17,-40,1,0,0,response3disk,,4,-10,-3,1,0,0,rectangle,-10,-3,1,0,0,-10,-3,1,0,0,0,127,127,48,1,,,,,,,,
,,,,,,,,,,,,,FF,,,,,,,,1.685,,,,,,,,,,,,,,,,,,,,,,60fcf8392a83ae1b971d1199,61036bdc881c7a19b0966af9,2021-07-29_23h03.58.376,Simcolourproject_2stim_asymm_v5,2020.2.10,Win32,60,61025ae37ef11b136ea224fe,,,,,,,,,233,48,-21,1,0,0,response3disk,,5,5,0,1,0,0,rectangle,-68,-45,1,0,0,-17,-5,1,0,0,0,128,128,81,1,,response5disk_3,TRUE,2,2,"[220,222,68,113,77,26,193,14,109,129,162,312,245,151,181,159,302,6,271,95]",2.455,rectangle
,,,,,,,,,,,,,FF,,,,,,,,2.767,,,,,,,,,,,,,,,,,,,,,,60fcf8392a83ae1b971d1199,61036bdc881c7a19b0966af9,2021-07-29_23h03.58.376,Simcolourproject_2stim_asymm_v5,2020.2.10,Win32,60,61025ae37ef11b136ea224fe,,,,,,,,,3214,37,-53,1,0,0,response3disk,,4,-27,-5,1,0,0,rectangle,-27,-5,1,0,0,-27,-5,1,0,0,0,129,129,44,1,,,,,,,,
,,,,,,,,,,,,,FF,,,,,,,,2.817,,,,,,,,,,,,,,,,,,,,,,60fcf8392a83ae1b971d1199,61036bdc881c7a19b0966af9,2021-07-29_23h03.58.376,Simcolourproject_2stim_asymm_v5,2020.2.10,Win32,60,61025ae37ef11b136ea224fe,,,,,,,,,2264,50,25,1,0,0,response1disk,,6,23,2,1,0,0,rectangle,23,2,1,0,0,23,2,1,0,0,0,130,130,142,1,,,,,,,,
,,,,,,,,,,,,,FF,,,,,,,,0.752,,,,,,,,,,,,,,,,,,,,,,60fcf8392a83ae1b971d1199,61036bdc881c7a19b0966af9,2021-07-29_23h03.58.376,Simcolourproject_2stim_asymm_v5,2020.2.10,Win32,60,61025ae37ef11b136ea224fe,,,,,,,,,3126,40,19,1,0,0,response1disk,,6,19,-9,1,0,0,rectangle,19,-9,1,0,0,19,-9,1,0,0,0,131,131,38,1,,,,,,,,
,,,,,,,,,,,,,FF,,,,,,,,1.029,,,,,,,,,,,,,,,,,,,,,,60fcf8392a83ae1b971d1199,61036bdc881c7a19b0966af9,2021-07-29_23h03.58.376,Simcolourproject_2stim_asymm_v5,2020.2.10,Win32,60,61025ae37ef11b136ea224fe,,,,,,,,,1178,75,-33,1,0,0,response3disk,,5,-4,3,1,0,0,rectangle,-4,3,1,0,0,-4,3,1,0,0,0,132,132,112,1,,,,,,,,
,,,,,,,,,,,,,FF,,,,,,,,0.718,,,,,,,,,,,,,,,,,,,,,,60fcf8392a83ae1b971d1199,61036bdc881c7a19b0966af9,2021-07-29_23h03.58.376,Simcolourproject_2stim_asymm_v5,2020.2.10,Win32,60,61025ae37ef11b136ea224fe,,,,,,,,,3666,47,31,1,0,0,response1disk,,6,18,9,1,0,0,rectangle,18,9,1,0,0,18,9,1,0,0,0,133,133,17,1,,,,,,,,
,,,,,,,,,,,,,FF,,,,,,,,0.848,,,,,,,,,,,,,,,,,,,,,,60fcf8392a83ae1b971d1199,61036bdc881c7a19b0966af9,2021-07-29_23h03.58.376,Simcolourproject_2stim_asymm_v5,2020.2.10,Win32,60,61025ae37ef11b136ea224fe,,,,,,,,,1039,65,21,1,0,0,response1disk,,6,29,-2,1,0,0,rectangle,29,-2,1,0,0,29,-2,1,0,0,0,134,134,34,1,,,,,,,,
,,,,,,,,,,,,,FF,,,,,,,,1.396,,,,,,,,,,,,,,,,,,,,,,60fcf8392a83ae1b971d1199,61036bdc881c7a19b0966af9,2021-07-29_23h03.58.376,Simcolourproject_2stim_asymm_v5,2020.2.10,Win32,60,61025ae37ef11b136ea224fe,,,,,,,,,2051,27,-53,1,0,0,response3disk,,4,3,9,1,0,0,rectangle,3,9,1,0,0,3,9,1,0,0,0,135,135,154,1,,,,,,,,
,,,,,,,,,,,,,FF,,,,,,,,1.632,,,,,,,,,,,,,,,,,,,,,,60fcf8392a83ae1b971d1199,61036bdc881c7a19b0966af9,2021-07-29_23h03.58.376,Simcolourproject_2stim_asymm_v5,2020.2.10,Win32,60,61025ae37ef11b136ea224fe,,,,,,,,,3901,31,-67,1,0,0,response3disk,,4,-9,10,1,0,0,rectangle,-9,10,1,0,0,-9,10,1,0,0,0,136,136,12,1,,,,,,,,
,,,,,,,,,,,,,FF,,,,,,,,0.593,,,,,,,,,,,,,,,,,,,,,,60fcf8392a83ae1b971d1199,61036bdc881c7a19b0966af9,2021-07-29_23h03.58.376,Simcolourproject_2stim_asymm_v5,2020.2.10,Win32,60,61025ae37ef11b136ea224fe,,,,,,,,,2205,51,54,1,0,0,response1disk,,7,-8,-3,1,0,0,rectangle,-8,-3,1,0,0,-8,-3,1,0,0,0,137,137,30,1,,,,,,,,
,,,,,,,,,,,,,FF,,,,,,,,0.835,,,,,,,,,,,,,,,,,,,,,,60fcf8392a83ae1b971d1199,61036bdc881c7a19b0966af9,2021-07-29_23h03.58.376,Simcolourproject_2stim_asymm_v5,2020.2.10,Win32,60,61025ae37ef11b136ea224fe,,,,,,,,,137,45,65,1,0,0,response1disk,,7,17,1,1,0,0,rectangle,17,1,1,0,0,17,1,1,0,0,0,138,138,4,1,,,,,,,,
,,,,,,,,,,,,,FF,,,,,,,,0.7,,,,,,,,,,,,,,,,,,,,,,60fcf8392a83ae1b971d1199,61036bdc881c7a19b0966af9,2021-07-29_23h03.58.376,Simcolourproject_2stim_asymm_v5,2020.2.10,Win32,60,61025ae37ef11b136ea224fe,,,,,,,,,4231,57,39,1,0,0,response1disk,,6,-14,5,1,0,0,rectangle,-14,5,1,0,0,-14,5,1,0,0,0,139,139,66,1,,,,,,,,
,,,,,,,,,,,,,FF,,,,,,,,1.525,,,,,,,,,,,,,,,,,,,,,,60fcf8392a83ae1b971d1199,61036bdc881c7a19b0966af9,2021-07-29_23h03.58.376,Simcolourproject_2stim_asymm_v5,2020.2.10,Win32,60,61025ae37ef11b136ea224fe,,,,,,,,,608,72,38,1,0,0,response1disk,,6,21,3,1,0,0,rectangle,21,3,1,0,0,21,3,1,0,0,0,140,140,121,1,,,,,,,,
,,,,,,,,,,,,,FF,,,,,,,,0.7,,,,,,,,,,,,,,,,,,,,,,60fcf8392a83ae1b971d1199,61036bdc881c7a19b0966af9,2021-07-29_23h03.58.376,Simcolourproject_2stim_asymm_v5,2020.2.10,Win32,60,61025ae37ef11b136ea224fe,,,,,,,,,3725,46,52,1,0,0,response1disk,,7,26,9,1,0,0,rectangle,26,9,1,0,0,26,9,1,0,0,0,141,141,49,1,,,,,,,,
,,,,,,,,,,,,,FF,,,,,,,,0.871,,,,,,,,,,,,,,,,,,,,,,60fcf8392a83ae1b971d1199,61036bdc881c7a19b0966af9,2021-07-29_23h03.58.376,Simcolourproject_2stim_asymm_v5,2020.2.10,Win32,60,61025ae37ef11b136ea224fe,,,,,,,,,787,51,-58,1,0,0,response3disk,,4,14,1,1,0,0,rectangle,14,1,1,0,0,14,1,1,0,0,0,142,142,125,1,,,,,,,,
,,,,,,,,,,,,,FF,,,,,,,,0.65,,,,,,,,,,,,,,,,,,,,,,60fcf8392a83ae1b971d1199,61036bdc881c7a19b0966af9,2021-07-29_23h03.58.376,Simcolourproject_2stim_asymm_v5,2020.2.10,Win32,60,61025ae37ef11b136ea224fe,,,,,,,,,2487,21,-41,1,0,0,response3disk,,4,4,6,1,0,0,rectangle,4,6,1,0,0,4,6,1,0,0,0,143,143,41,1,,,,,,,,
,,,,,,,,,,,,,FF,,,,,,,,1.021,,,,,,,,,,,,,,,,,,,,,,60fcf8392a83ae1b971d1199,61036bdc881c7a19b0966af9,2021-07-29_23h03.58.376,Simcolourproject_2stim_asymm_v5,2020.2.10,Win32,60,61025ae37ef11b136ea224fe,,,,,,,,,1827,-23,-55,1,0,0,response5disk,,3,6,5,1,0,0,rectangle,6,5,1,0,0,6,5,1,0,0,0,144,144,59,1,,,,,,,,
,,,,,,,,,,,,,FF,,,,,,,,0.747,,,,,,,,,,,,,,,,,,,,,,60fcf8392a83ae1b971d1199,61036bdc881c7a19b0966af9,2021-07-29_23h03.58.376,Simcolourproject_2stim_asymm_v5,2020.2.10,Win32,60,61025ae37ef11b136ea224fe,,,,,,,,,1358,57,-41,1,0,0,response3disk,,5,10,1,1,0,0,rectangle,10,1,1,0,0,10,1,1,0,0,0,145,145,158,1,,,,,,,,
,,,,,,,,,,,,,FF,,,,,,,,0.598,,,,,,,,,,,,,,,,,,,,,,60fcf8392a83ae1b971d1199,61036bdc881c7a19b0966af9,2021-07-29_23h03.58.376,Simcolourproject_2stim_asymm_v5,2020.2.10,Win32,60,61025ae37ef11b136ea224fe,,,,,,,,,321,25,35,1,0,0,response1disk,,7,7,-6,1,0,0,rectangle,7,-6,1,0,0,7,-6,1,0,0,0,146,146,1,1,,,,,,,,
,,,,,,,,,,,,,FF,,,,,,,,0.727,,,,,,,,,,,,,,,,,,,,,,60fcf8392a83ae1b971d1199,61036bdc881c7a19b0966af9,2021-07-29_23h03.58.376,Simcolourproject_2stim_asymm_v5,2020.2.10,Win32,60,61025ae37ef11b136ea224fe,,,,,,,,,2778,-45,-43,1,0,0,response5disk,,2,18,13,1,0,0,rectangle,18,13,1,0,0,18,13,1,0,0,0,147,147,73,1,,,,,,,,
,,,,,,,,,,,,,FF,,,,,,,,1.027,,,,,,,,,,,,,,,,,,,,,,60fcf8392a83ae1b971d1199,61036bdc881c7a19b0966af9,2021-07-29_23h03.58.376,Simcolourproject_2stim_asymm_v5,2020.2.10,Win32,60,61025ae37ef11b136ea224fe,,,,,,,,,3010,58,-39,1,0,0,response3disk,,5,-4,6,1,0,0,rectangle,-4,6,1,0,0,-4,6,1,0,0,0,148,148,90,1,,,,,,,,
,,,,,,,,,,,,,FF,,,,,,,,0.774,,,,,,,,,,,,,,,,,,,,,,60fcf8392a83ae1b971d1199,61036bdc881c7a19b0966af9,2021-07-29_23h03.58.376,Simcolourproject_2stim_asymm_v5,2020.2.10,Win32,60,61025ae37ef11b136ea224fe,,,,,,,,,1815,-64,95,1,0,0,response7disk,,0,-13,-1,1,0,0,rectangle,-13,-1,1,0,0,-13,-1,1,0,0,0,149,149,23,1,,,,,,,,
,,,,,,,,,,,,,FF,,,,,,,,1.485,,,,,,,,,,,,,,,,,,,,,,60fcf8392a83ae1b971d1199,61036bdc881c7a19b0966af9,2021-07-29_23h03.58.376,Simcolourproject_2stim_asymm_v5,2020.2.10,Win32,60,61025ae37ef11b136ea224fe,,,,,,,,,2199,61,40,1,0,0,response1disk,,6,-10,1,1,0,0,rectangle,-37,95,1,0,0,3,1,1,0,0,0,150,150,151,1,,response7disk_3,TRUE,0,1,"[220,222,68,113,77,26,193,14,109,129,162,312,245,151,181,159,302,6,271,95]",1.058,rectangle
,,,,,,,,,,,,,FF,,,,,,,,0.86,,,,,,,,,,,,,,,,,,,,,,60fcf8392a83ae1b971d1199,61036bdc881c7a19b0966af9,2021-07-29_23h03.58.376,Simcolourproject_2stim_asymm_v5,2020.2.10,Win32,60,61025ae37ef11b136ea224fe,,,,,,,,,430,55,27,1,0,0,response1disk,,6,5,-1,1,0,0,rectangle,5,-1,1,0,0,5,-1,1,0,0,0,151,151,11,1,,,,,,,,
,,,,,,,,,,,,,FF,,,,,,,,1.173,,,,,,,,,,,,,,,,,,,,,,60fcf8392a83ae1b971d1199,61036bdc881c7a19b0966af9,2021-07-29_23h03.58.376,Simcolourproject_2stim_asymm_v5,2020.2.10,Win32,60,61025ae37ef11b136ea224fe,,,,,,,,,4334,59,99,1,0,0,response1disk,,7,8,7,1,0,0,rectangle,8,7,1,0,0,8,7,1,0,0,0,152,152,28,1,,,,,,,,
,,,,,,,,,,,,,FF,,,,,,,,0.926,,,,,,,,,,,,,,,,,,,,,,60fcf8392a83ae1b971d1199,61036bdc881c7a19b0966af9,2021-07-29_23h03.58.376,Simcolourproject_2stim_asymm_v5,2020.2.10,Win32,60,61025ae37ef11b136ea224fe,,,,,,,,,3063,-33,-49,1,0,0,response5disk,,3,-26,-13,1,0,0,rectangle,-26,-13,1,0,0,-26,-13,1,0,0,0,153,153,42,1,,,,,,,,
,,,,,,,,,,,,,FF,,,,,,,,1.179,,,,,,,,,,,,,,,,,,,,,,60fcf8392a83ae1b971d1199,61036bdc881c7a19b0966af9,2021-07-29_23h03.58.376,Simcolourproject_2stim_asymm_v5,2020.2.10,Win32,60,61025ae37ef11b136ea224fe,,,,,,,,,4282,-66,-39,1,0,0,response5disk,,2,4,3,1,0,0,rectangle,4,3,1,0,0,4,3,1,0,0,0,154,154,71,1,,,,,,,,
,,,,,,,,,,,,,FF,,,,,,,,1.019,,,,,,,,,,,,,,,,,,,,,,60fcf8392a83ae1b971d1199,61036bdc881c7a19b0966af9,2021-07-29_23h03.58.376,Simcolourproject_2stim_asymm_v5,2020.2.10,Win32,60,61025ae37ef11b136ea224fe,,,,,,,,,4203,-37,-67,1,0,0,response5disk,,3,-18,-9,1,0,0,rectangle,-18,-9,1,0,0,-18,-9,1,0,0,0,155,155,83,1,,,,,,,,
,,,,,,,,,,,,,FF,,,,,,,,1.416,,,,,,,,,,,,,,,,,,,,,,60fcf8392a83ae1b971d1199,61036bdc881c7a19b0966af9,2021-07-29_23h03.58.376,Simcolourproject_2stim_asymm_v5,2020.2.10,Win32,60,61025ae37ef11b136ea224fe,,,,,,,,,4340,20,-44,1,0,0,response3disk,,4,-4,0,1,0,0,rectangle,-4,0,1,0,0,-4,0,1,0,0,0,156,156,126,1,,,,,,,,
,,,,,,,,,,,,,FF,,,,,,,,0.96,,,,,,,,,,,,,,,,,,,,,,60fcf8392a83ae1b971d1199,61036bdc881c7a19b0966af9,2021-07-29_23h03.58.376,Simcolourproject_2stim_asymm_v5,2020.2.10,Win32,60,61025ae37ef11b136ea224fe,,,,,,,,,3702,-26,-52,1,0,0,response5disk,,3,9,-1,1,0,0,rectangle,9,-1,1,0,0,9,-1,1,0,0,0,157,157,14,1,,,,,,,,
,,,,,,,,,,,,,FF,,,,,,,,0.812,,,,,,,,,,,,,,,,,,,,,,60fcf8392a83ae1b971d1199,61036bdc881c7a19b0966af9,2021-07-29_23h03.58.376,Simcolourproject_2stim_asymm_v5,2020.2.10,Win32,60,61025ae37ef11b136ea224fe,,,,,,,,,2858,72,28,1,0,0,response1disk,,6,9,-11,1,0,0,rectangle,37,95,1,0,0,10,-3,1,0,0,0,158,158,33,1,,response1disk_3,TRUE,7,7,"[220,222,68,113,77,26,193,14,109,129,162,312,245,151,181,159,302,6,271,95]",1.291,rectangle
,,,,,,,,,,,,,FF,,,,,,,,0.808,,,,,,,,,,,,,,,,,,,,,,60fcf8392a83ae1b971d1199,61036bdc881c7a19b0966af9,2021-07-29_23h03.58.376,Simcolourproject_2stim_asymm_v5,2020.2.10,Win32,60,61025ae37ef11b136ea224fe,,,,,,,,,3752,57,-27,1,0,0,response3disk,,5,-3,-7,1,0,0,rectangle,-3,-7,1,0,0,-3,-7,1,0,0,0,159,159,145,1,,,,,,,,
,,,,,,,,,,,,,FF,,,,,,,,1.85,,,,,,,,,,,,,,,,,,,,,,60fcf8392a83ae1b971d1199,61036bdc881c7a19b0966af9,2021-07-29_23h03.58.376,Simcolourproject_2stim_asymm_v5,2020.2.10,Win32,60,61025ae37ef11b136ea224fe,,,,,,,,,3862,29,-23,1,0,0,response3disk,,5,-14,7,1,0,0,rectangle,-14,7,1,0,0,-14,7,1,0,0,1,0,160,28,1,,,,,,,,
,,,,,,,,,,,,,FF,,,,,,,,1.007,,,,,,,,,,,,,,,,,,,,,,60fcf8392a83ae1b971d1199,61036bdc881c7a19b0966af9,2021-07-29_23h03.58.376,Simcolourproject_2stim_asymm_v5,2020.2.10,Win32,60,61025ae37ef11b136ea224fe,,,,,,,,,443,-55,-31,1,0,0,response5disk,,2,-18,1,1,0,0,rectangle,-45,-67,1,0,0,-19,-1,1,0,0,1,1,161,105,1,,response5disk_3,TRUE,3,3,"[220,222,68,113,77,26,193,14,109,129,162,312,245,151,181,159,302,6,271,95]",1.681,rectangle
,,,,,,,,,,,,,FF,,,,,,,,0.838,,,,,,,,,,,,,,,,,,,,,,60fcf8392a83ae1b971d1199,61036bdc881c7a19b0966af9,2021-07-29_23h03.58.376,Simcolourproject_2stim_asymm_v5,2020.2.10,Win32,60,61025ae37ef11b136ea224fe,,,,,,,,,696,60,25,1,0,0,response1disk,,6,-6,-6,1,0,0,rectangle,-6,-6,1,0,0,-6,-6,1,0,0,1,2,162,119,1,,,,,,,,
,,,,,,,,,,,,,FF,,,,,,,,0.783,,,,,,,,,,,,,,,,,,,,,,60fcf8392a83ae1b971d1199,61036bdc881c7a19b0966af9,2021-07-29_23h03.58.376,Simcolourproject_2stim_asymm_v5,2020.2.10,Win32,60,61025ae37ef11b136ea224fe,,,,,,,,,3339,-34,-54,1,0,0,response5disk,,3,-15,-10,1,0,0,rectangle,-15,-10,1,0,0,-15,-10,1,0,0,1,3,163,43,1,,,,,,,,
,,,,,,,,,,,,,FF,,,,,,,,0.907,,,,,,,,,,,,,,,,,,,,,,60fcf8392a83ae1b971d1199,61036bdc881c7a19b0966af9,2021-07-29_23h03.58.376,Simcolourproject_2stim_asymm_v5,2020.2.10,Win32,60,61025ae37ef11b136ea224fe,,,,,,,,,1012,43,-37,1,0,0,response3disk,,5,6,-7,1,0,0,rectangle,6,-7,1,0,0,6,-7,1,0,0,1,4,164,130,1,,,,,,,,
,,,,,,,,,,,,,FF,,,,,,,,1.187,,,,,,,,,,,,,,,,,,,,,,60fcf8392a83ae1b971d1199,61036bdc881c7a19b0966af9,2021-07-29_23h03.58.376,Simcolourproject_2stim_asymm_v5,2020.2.10,Win32,60,61025ae37ef11b136ea224fe,,,,,,,,,3829,73,-45,1,0,0,response3disk,,5,-15,7,1,0,0,rectangle,-15,7,1,0,0,-15,7,1,0,0,1,5,165,86,1,,,,,,,,
,,,,,,,,,,,,,FF,,,,,,,,1.231,,,,,,,,,,,,,,,,,,,,,,60fcf8392a83ae1b971d1199,61036bdc881c7a19b0966af9,2021-07-29_23h03.58.376,Simcolourproject_2stim_asymm_v5,2020.2.10,Win32,60,61025ae37ef11b136ea224fe,,,,,,,,,3329,-41,-23,1,0,0,response5disk,,2,16,-3,1,0,0,rectangle,16,-3,1,0,0,16,-3,1,0,0,1,6,166,157,1,,,,,,,,
,,,,,,,,,,,,,FF,,,,,,,,0.999,,,,,,,,,,,,,,,,,,,,,,60fcf8392a83ae1b971d1199,61036bdc881c7a19b0966af9,2021-07-29_23h03.58.376,Simcolourproject_2stim_asymm_v5,2020.2.10,Win32,60,61025ae37ef11b136ea224fe,,,,,,,,,609,31,-59,1,0,0,response3disk,,4,-9,5,1,0,0,rectangle,-9,5,1,0,0,-9,5,1,0,0,1,7,167,136,1,,,,,,,,
,,,,,,,,,,,,,FF,,,,,,,,0.722,,,,,,,,,,,,,,,,,,,,,,60fcf8392a83ae1b971d1199,61036bdc881c7a19b0966af9,2021-07-29_23h03.58.376,Simcolourproject_2stim_asymm_v5,2020.2.10,Win32,60,61025ae37ef11b136ea224fe,,,,,,,,,645,50,36,1,0,0,response1disk,,6,-9,3,1,0,0,rectangle,-9,3,1,0,0,-9,3,1,0,0,1,8,168,144,1,,,,,,,,
,,,,,,,,,,,,,FF,,,,,,,,0.766,,,,,,,,,,,,,,,,,,,,,,60fcf8392a83ae1b971d1199,61036bdc881c7a19b0966af9,2021-07-29_23h03.58.376,Simcolourproject_2stim_asymm_v5,2020.2.10,Win32,60,61025ae37ef11b136ea224fe,,,,,,,,,4094,39,67,1,0,0,response1disk,,7,-8,1,1,0,0,rectangle,-8,1,1,0,0,-8,1,1,0,0,1,9,169,138,1,,,,,,,,
,,,,,,,,,,,,,FF,,,,,,,,1.165,,,,,,,,,,,,,,,,,,,,,,60fcf8392a83ae1b971d1199,61036bdc881c7a19b0966af9,2021-07-29_23h03.58.376,Simcolourproject_2stim_asymm_v5,2020.2.10,Win32,60,61025ae37ef11b136ea224fe,,,,,,,,,49,66,-31,1,0,0,response3disk,,5,-4,4,1,0,0,rectangle,-4,4,1,0,0,-4,4,1,0,0,1,10,170,2,1,,,,,,,,
,,,,,,,,,,,,,FF,,,,,,,,0.717,,,,,,,,,,,,,,,,,,,,,,60fcf8392a83ae1b971d1199,61036bdc881c7a19b0966af9,2021-07-29_23h03.58.376,Simcolourproject_2stim_asymm_v5,2020.2.10,Win32,60,61025ae37ef11b136ea224fe,,,,,,,,,160,36,-23,1,0,0,response3disk,,5,-5,0,1,0,0,rectangle,-5,0,1,0,0,-5,0,1,0,0,1,11,171,3,1,,,,,,,,
,,,,,,,,,,,,,FF,,,,,,,,0.692,,,,,,,,,,,,,,,,,,,,,,60fcf8392a83ae1b971d1199,61036bdc881c7a19b0966af9,2021-07-29_23h03.58.376,Simcolourproject_2stim_asymm_v5,2020.2.10,Win32,60,61025ae37ef11b136ea224fe,,,,,,,,,2269,42,31,1,0,0,response1disk,,6,-8,-11,1,0,0,rectangle,-8,-11,1,0,0,-8,-11,1,0,0,1,12,172,91,1,,,,,,,,
,,,,,,,,,,,,,FF,,,,,,,,0.895,,,,,,,,,,,,,,,,,,,,,,60fcf8392a83ae1b971d1199,61036bdc881c7a19b0966af9,2021-07-29_23h03.58.376,Simcolourproject_2stim_asymm_v5,2020.2.10,Win32,60,61025ae37ef11b136ea224fe,,,,,,,,,1670,-39,68,1,0,0,response7disk,,0,-13,-13,1,0,0,rectangle,-13,-13,1,0,0,-13,-13,1,0,0,1,13,173,99,1,,,,,,,,
,,,,,,,,,,,,,FF,,,,,,,,0.988,,,,,,,,,,,,,,,,,,,,,,60fcf8392a83ae1b971d1199,61036bdc881c7a19b0966af9,2021-07-29_23h03.58.376,Simcolourproject_2stim_asymm_v5,2020.2.10,Win32,60,61025ae37ef11b136ea224fe,,,,,,,,,771,53,44,1,0,0,response1disk,,6,7,2,1,0,0,rectangle,7,2,1,0,0,7,2,1,0,0,1,14,174,81,1,,,,,,,,
,,,,,,,,,,,,,FF,,,,,,,,0.78,,,,,,,,,,,,,,,,,,,,,,60fcf8392a83ae1b971d1199,61036bdc881c7a19b0966af9,2021-07-29_23h03.58.376,Simcolourproject_2stim_asymm_v5,2020.2.10,Win32,60,61025ae37ef11b136ea224fe,,,,,,,,,190,-31,-37,1,0,0,response5disk,,3,-10,1,1,0,0,rectangle,-10,1,1,0,0,-10,1,1,0,0,1,15,175,6,1,,,,,,,,
,,,,,,,,,,,,,FF,,,,,,,,1.197,,,,,,,,,,,,,,,,,,,,,,60fcf8392a83ae1b971d1199,61036bdc881c7a19b0966af9,2021-07-29_23h03.58.376,Simcolourproject_2stim_asymm_v5,2020.2.10,Win32,60,61025ae37ef11b136ea224fe,,,,,,,,,3828,69,-27,1,0,0,response3disk,,5,3,5,1,0,0,rectangle,3,5,1,0,0,3,5,1,0,0,1,16,176,68,1,,,,,,,,
,,,,,,,,,,,,,FF,,,,,,,,1.786,,,,,,,,,,,,,,,,,,,,,,60fcf8392a83ae1b971d1199,61036bdc881c7a19b0966af9,2021-07-29_23h03.58.376,Simcolourproject_2stim_asymm_v5,2020.2.10,Win32,60,61025ae37ef11b136ea224fe,,,,,,,,,2767,27,-65,1,0,0,response3disk,,4,-11,4,1,0,0,rectangle,-11,4,1,0,0,-11,4,1,0,0,1,17,177,124,1,,,,,,,,
,,,,,,,,,,,,,FF,,,,,,,,0.82,,,,,,,,,,,,,,,,,,,,,,60fcf8392a83ae1b971d1199,61036bdc881c7a19b0966af9,2021-07-29_23h03.58.376,Simcolourproject_2stim_asymm_v5,2020.2.10,Win32,60,61025ae37ef11b136ea224fe,,,,,,,,,3223,47,46,1,0,0,response1disk,,6,7,7,1,0,0,rectangle,7,7,1,0,0,7,7,1,0,0,1,18,178,102,1,,,,,,,,
,,,,,,,,,,,,,FF,,,,,,,,0.767,,,,,,,,,,,,,,,,,,,,,,60fcf8392a83ae1b971d1199,61036bdc881c7a19b0966af9,2021-07-29_23h03.58.376,Simcolourproject_2stim_asymm_v5,2020.2.10,Win32,60,61025ae37ef11b136ea224fe,,,,,,,,,2568,47,26,1,0,0,response1disk,,6,19,5,1,0,0,rectangle,19,5,1,0,0,19,5,1,0,0,1,19,179,127,1,,,,,,,,
,,,,,,,,,,,,,FF,,,,,,,,1.011,,,,,,,,,,,,,,,,,,,,,,60fcf8392a83ae1b971d1199,61036bdc881c7a19b0966af9,2021-07-29_23h03.58.376,Simcolourproject_2stim_asymm_v5,2020.2.10,Win32,60,61025ae37ef11b136ea224fe,,,,,,,,,4138,83,25,1,0,0,response1disk,,6,29,-2,1,0,0,rectangle,-86,33,1,0,0,-22,7,1,0,0,1,20,180,33,1,,response7disk_3,TRUE,1,1,"[220,222,68,113,77,26,193,14,109,129,162,312,245,151,181,159,302,6,271,95]",1.582,rectangle
,,,,,,,,,,,,,FF,,,,,,,,1.029,,,,,,,,,,,,,,,,,,,,,,60fcf8392a83ae1b971d1199,61036bdc881c7a19b0966af9,2021-07-29_23h03.58.376,Simcolourproject_2stim_asymm_v5,2020.2.10,Win32,60,61025ae37ef11b136ea224fe,,,,,,,,,2387,39,-36,1,0,0,response3disk,,5,-3,-3,1,0,0,rectangle,-3,-3,1,0,0,-3,-3,1,0,0,1,21,181,61,1,,,,,,,,
,,,,,,,,,,,,,FF,,,,,,,,0.808,,,,,,,,,,,,,,,,,,,,,,60fcf8392a83ae1b971d1199,61036bdc881c7a19b0966af9,2021-07-29_23h03.58.376,Simcolourproject_2stim_asymm_v5,2020.2.10,Win32,60,61025ae37ef11b136ea224fe,,,,,,,,,668,69,25,1,0,0,response1disk,,6,5,-1,1,0,0,rectangle,5,-1,1,0,0,5,-1,1,0,0,1,22,182,106,1,,,,,,,,
,,,,,,,,,,,,,FF,,,,,,,,0.748,,,,,,,,,,,,,,,,,,,,,,60fcf8392a83ae1b971d1199,61036bdc881c7a19b0966af9,2021-07-29_23h03.58.376,Simcolourproject_2stim_asymm_v5,2020.2.10,Win32,60,61025ae37ef11b136ea224fe,,,,,,,,,28,72,14,1,0,0,response1disk,,6,-11,-11,1,0,0,rectangle,-11,-11,1,0,0,-11,-11,1,0,0,1,23,183,88,1,,,,,,,,
,,,,,,,,,,,,,FF,,,,,,,,0.731,,,,,,,,,,,,,,,,,,,,,,60fcf8392a83ae1b971d1199,61036bdc881c7a19b0966af9,2021-07-29_23h03.58.376,Simcolourproject_2stim_asymm_v5,2020.2.10,Win32,60,61025ae37ef11b136ea224fe,,,,,,,,,1204,54,-46,1,0,0,response3disk,,5,-1,-2,1,0,0,rectangle,-1,-2,1,0,0,-1,-2,1,0,0,1,24,184,29,1,,,,,,,,
,,,,,,,,,,,,,FF,,,,,,,,0.691,,,,,,,,,,,,,,,,,,,,,,60fcf8392a83ae1b971d1199,61036bdc881c7a19b0966af9,2021-07-29_23h03.58.376,Simcolourproject_2stim_asymm_v5,2020.2.10,Win32,60,61025ae37ef11b136ea224fe,,,,,,,,,1618,-47,-53,1,0,0,response5disk,,3,-9,-4,1,0,0,rectangle,-9,-4,1,0,0,-9,-4,1,0,0,1,25,185,94,1,,,,,,,,
,,,,,,,,,,,,,FF,,,,,,,,1.199,,,,,,,,,,,,,,,,,,,,,,60fcf8392a83ae1b971d1199,61036bdc881c7a19b0966af9,2021-07-29_23h03.58.376,Simcolourproject_2stim_asymm_v5,2020.2.10,Win32,60,61025ae37ef11b136ea224fe,,,,,,,,,4327,-71,20,1,0,0,response7disk,,1,-7,-7,1,0,0,rectangle,-7,-7,1,0,0,-7,-7,1,0,0,1,26,186,154,1,,,,,,,,
,,,,,,,,,,,,,FF,,,,,,,,0.711,,,,,,,,,,,,,,,,,,,,,,60fcf8392a83ae1b971d1199,61036bdc881c7a19b0966af9,2021-07-29_23h03.58.376,Simcolourproject_2stim_asymm_v5,2020.2.10,Win32,60,61025ae37ef11b136ea224fe,,,,,,,,,1679,-25,-71,1,0,0,response5disk,,3,8,-3,1,0,0,rectangle,8,-3,1,0,0,8,-3,1,0,0,1,27,187,123,1,,,,,,,,
,,,,,,,,,,,,,FF,,,,,,,,0.617,,,,,,,,,,,,,,,,,,,,,,60fcf8392a83ae1b971d1199,61036bdc881c7a19b0966af9,2021-07-29_23h03.58.376,Simcolourproject_2stim_asymm_v5,2020.2.10,Win32,60,61025ae37ef11b136ea224fe,,,,,,,,,1500,75,30,1,0,0,response1disk,,6,-3,-9,1,0,0,rectangle,-3,-9,1,0,0,-3,-9,1,0,0,1,28,188,58,1,,,,,,,,
,,,,,,,,,,,,,FF,,,,,,,,0.845,,,,,,,,,,,,,,,,,,,,,,60fcf8392a83ae1b971d1199,61036bdc881c7a19b0966af9,2021-07-29_23h03.58.376,Simcolourproject_2stim_asymm_v5,2020.2.10,Win32,60,61025ae37ef11b136ea224fe,,,,,,,,,4097,-63,-35,1,0,0,response5disk,,2,1,-1,1,0,0,rectangle,1,-1,1,0,0,1,-1,1,0,0,1,29,189,35,1,,,,,,,,
,,,,,,,,,,,,,FF,,,,,,,,0.916,,,,,,,,,,,,,,,,,,,,,,60fcf8392a83ae1b971d1199,61036bdc881c7a19b0966af9,2021-07-29_23h03.58.376,Simcolourproject_2stim_asymm_v5,2020.2.10,Win32,60,61025ae37ef11b136ea224fe,,,,,,,,,2990,-35,-70,1,0,0,response5disk,,3,1,-6,1,0,0,rectangle,1,-6,1,0,0,1,-6,1,0,0,1,30,190,148,1,,,,,,,,
,,,,,,,,,,,,,FF,,,,,,,,0.694,,,,,,,,,,,,,,,,,,,,,,60fcf8392a83ae1b971d1199,61036bdc881c7a19b0966af9,2021-07-29_23h03.58.376,Simcolourproject_2stim_asymm_v5,2020.2.10,Win32,60,61025ae37ef11b136ea224fe,,,,,,,,,3956,59,89,1,0,0,response1disk,,7,8,10,1,0,0,rectangle,8,10,1,0,0,8,10,1,0,0,1,31,191,41,1,,,,,,,,
,,,,,,,,,,,,,FF,,,,,,,,0.72,,,,,,,,,,,,,,,,,,,,,,60fcf8392a83ae1b971d1199,61036bdc881c7a19b0966af9,2021-07-29_23h03.58.376,Simcolourproject_2stim_asymm_v5,2020.2.10,Win32,60,61025ae37ef11b136ea224fe,,,,,,,,,2078,67,17,1,0,0,response1disk,,6,19,-3,1,0,0,rectangle,65,23,1,0,0,18,-2,1,0,0,1,32,192,113,1,,response1disk_3,TRUE,6,6,"[220,222,68,113,77,26,193,14,109,129,162,312,245,151,181,159,302,6,271,95]",1.218,rectangle
,,,,,,,,,,,,,FF,,,,,,,,0.795,,,,,,,,,,,,,,,,,,,,,,60fcf8392a83ae1b971d1199,61036bdc881c7a19b0966af9,2021-07-29_23h03.58.376,Simcolourproject_2stim_asymm_v5,2020.2.10,Win32,60,61025ae37ef11b136ea224fe,,,,,,,,,35,81,-33,1,0,0,response3disk,,5,-24,6,1,0,0,rectangle,-24,6,1,0,0,-24,6,1,0,0,1,33,193,26,1,,,,,,,,
,,,,,,,,,,,,,FF,,,,,,,,0.784,,,,,,,,,,,,,,,,,,,,,,60fcf8392a83ae1b971d1199,61036bdc881c7a19b0966af9,2021-07-29_23h03.58.376,Simcolourproject_2stim_asymm_v5,2020.2.10,Win32,60,61025ae37ef11b136ea224fe,,,,,,,,,1040,15,-55,1,0,0,response3disk,,4,-23,10,1,0,0,rectangle,-23,10,1,0,0,-23,10,1,0,0,1,34,194,18,1,,,,,,,,
,,,,,,,,,,,,,FF,,,,,,,,0.845,,,,,,,,,,,,,,,,,,,,,,60fcf8392a83ae1b971d1199,61036bdc881c7a19b0966af9,2021-07-29_23h03.58.376,Simcolourproject_2stim_asymm_v5,2020.2.10,Win32,60,61025ae37ef11b136ea224fe,,,,,,,,,2664,-45,-51,1,0,0,response5disk,,3,3,8,1,0,0,rectangle,3,8,1,0,0,3,8,1,0,0,1,35,195,115,1,,,,,,,,
,,,,,,,,,,,,,FF,,,,,,,,0.884,,,,,,,,,,,,,,,,,,,,,,60fcf8392a83ae1b971d1199,61036bdc881c7a19b0966af9,2021-07-29_23h03.58.376,Simcolourproject_2stim_asymm_v5,2020.2.10,Win32,60,61025ae37ef11b136ea224fe,,,,,,,,,1455,-71,-27,1,0,0,response5disk,,2,12,7,1,0,0,rectangle,12,7,1,0,0,12,7,1,0,0,1,36,196,149,1,,,,,,,,
,,,,,,,,,,,,,FF,,,,,,,,0.859,,,,,,,,,,,,,,,,,,,,,,60fcf8392a83ae1b971d1199,61036bdc881c7a19b0966af9,2021-07-29_23h03.58.376,Simcolourproject_2stim_asymm_v5,2020.2.10,Win32,60,61025ae37ef11b136ea224fe,,,,,,,,,2066,59,31,1,0,0,response1disk,,6,-5,-5,1,0,0,rectangle,-5,-5,1,0,0,-5,-5,1,0,0,1,37,197,62,1,,,,,,,,
,,,,,,,,,,,,,FF,,,,,,,,1.503,,,,,,,,,,,,,,,,,,,,,,60fcf8392a83ae1b971d1199,61036bdc881c7a19b0966af9,2021-07-29_23h03.58.376,Simcolourproject_2stim_asymm_v5,2020.2.10,Win32,60,61025ae37ef11b136ea224fe,,,,,,,,,1140,57,-39,1,0,0,response3disk,,5,6,-4,1,0,0,rectangle,6,-4,1,0,0,6,-4,1,0,0,1,38,198,114,1,,,,,,,,
,,,,,,,,,,,,,FF,,,,,,,,0.883,,,,,,,,,,,,,,,,,,,,,,60fcf8392a83ae1b971d1199,61036bdc881c7a19b0966af9,2021-07-29_23h03.58.376,Simcolourproject_2stim_asymm_v5,2020.2.10,Win32,60,61025ae37ef11b136ea224fe,,,,,,,,,2617,23,-73,1,0,0,response3disk,,4,5,-11,1,0,0,rectangle,5,-11,1,0,0,5,-11,1,0,0,1,39,199,30,1,,,,,,,,
,,,,,,,,,,,,,FF,,,,,,,,0.801,,,,,,,,,,,,,,,,,,,,,,60fcf8392a83ae1b971d1199,61036bdc881c7a19b0966af9,2021-07-29_23h03.58.376,Simcolourproject_2stim_asymm_v5,2020.2.10,Win32,60,61025ae37ef11b136ea224fe,,,,,,,,,2834,-41,-65,1,0,0,response5disk,,3,-1,2,1,0,0,rectangle,-1,2,1,0,0,-1,2,1,0,0,1,40,200,9,1,,,,,,,,
,,,,,,,,,,,,,FF,,,,,,,,0.716,,,,,,,,,,,,,,,,,,,,,,60fcf8392a83ae1b971d1199,61036bdc881c7a19b0966af9,2021-07-29_23h03.58.376,Simcolourproject_2stim_asymm_v5,2020.2.10,Win32,60,61025ae37ef11b136ea224fe,,,,,,,,,173,-20,-51,1,0,0,response5disk,,3,10,9,1,0,0,rectangle,10,9,1,0,0,10,9,1,0,0,1,41,201,54,1,,,,,,,,
,,,,,,,,,,,,,FF,,,,,,,,1.145,,,,,,,,,,,,,,,,,,,,,,60fcf8392a83ae1b971d1199,61036bdc881c7a19b0966af9,2021-07-29_23h03.58.376,Simcolourproject_2stim_asymm_v5,2020.2.10,Win32,60,61025ae37ef11b136ea224fe,,,,,,,,,272,75,33,1,0,0,response1disk,,6,-2,-9,1,0,0,rectangle,-2,-9,1,0,0,-2,-9,1,0,0,1,42,202,156,1,,,,,,,,
,,,,,,,,,,,,,FF,,,,,,,,0.68,,,,,,,,,,,,,,,,,,,,,,60fcf8392a83ae1b971d1199,61036bdc881c7a19b0966af9,2021-07-29_23h03.58.376,Simcolourproject_2stim_asymm_v5,2020.2.10,Win32,60,61025ae37ef11b136ea224fe,,,,,,,,,540,51,-17,1,0,0,response3disk,,5,8,-5,1,0,0,rectangle,8,-5,1,0,0,8,-5,1,0,0,1,43,203,153,1,,,,,,,,
,,,,,,,,,,,,,FF,,,,,,,,1.287,,,,,,,,,,,,,,,,,,,,,,60fcf8392a83ae1b971d1199,61036bdc881c7a19b0966af9,2021-07-29_23h03.58.376,Simcolourproject_2stim_asymm_v5,2020.2.10,Win32,60,61025ae37ef11b136ea224fe,,,,,,,,,69,87,-39,1,0,0,response3disk,,5,5,7,1,0,0,rectangle,5,7,1,0,0,5,7,1,0,0,1,44,204,44,1,,,,,,,,
,,,,,,,,,,,,,FF,,,,,,,,1.568,,,,,,,,,,,,,,,,,,,,,,60fcf8392a83ae1b971d1199,61036bdc881c7a19b0966af9,2021-07-29_23h03.58.376,Simcolourproject_2stim_asymm_v5,2020.2.10,Win32,60,61025ae37ef11b136ea224fe,,,,,,,,,1847,79,-38,1,0,0,response3disk,,5,24,-8,1,0,0,rectangle,24,-8,1,0,0,24,-8,1,0,0,1,45,205,52,1,,,,,,,,
,,,,,,,,,,,,,FF,,,,,,,,0.695,,,,,,,,,,,,,,,,,,,,,,60fcf8392a83ae1b971d1199,61036bdc881c7a19b0966af9,2021-07-29_23h03.58.376,Simcolourproject_2stim_asymm_v5,2020.2.10,Win32,60,61025ae37ef11b136ea224fe,,,,,,,,,1617,-39,-68,1,0,0,response5disk,,3,5,-13,1,0,0,rectangle,5,-13,1,0,0,5,-13,1,0,0,1,46,206,126,1,,,,,,,,
,,,,,,,,,,,,,FF,,,,,,,,1.969,,,,,,,,,,,,,,,,,,,,,,60fcf8392a83ae1b971d1199,61036bdc881c7a19b0966af9,2021-07-29_23h03.58.376,Simcolourproject_2stim_asymm_v5,2020.2.10,Win32,60,61025ae37ef11b136ea224fe,,,,,,,,,4250,44,-73,1,0,0,response3disk,,4,1,13,1,0,0,rectangle,1,13,1,0,0,1,13,1,0,0,1,47,207,80,1,,,,,,,,
,,,,,,,,,,,,,FF,,,,,,,,1.014,,,,,,,,,,,,,,,,,,,,,,60fcf8392a83ae1b971d1199,61036bdc881c7a19b0966af9,2021-07-29_23h03.58.376,Simcolourproject_2stim_asymm_v5,2020.2.10,Win32,60,61025ae37ef11b136ea224fe,,,,,,,,,1250,45,21,1,0,0,response1disk,,6,16,10,1,0,0,rectangle,16,10,1,0,0,16,10,1,0,0,1,48,208,4,1,,,,,,,,
,,,,,,,,,,,,,FF,,,,,,,,1.016,,,,,,,,,,,,,,,,,,,,,,60fcf8392a83ae1b971d1199,61036bdc881c7a19b0966af9,2021-07-29_23h03.58.376,Simcolourproject_2stim_asymm_v5,2020.2.10,Win32,60,61025ae37ef11b136ea224fe,,,,,,,,,3825,48,-31,1,0,0,response3disk,,5,3,-1,1,0,0,rectangle,3,-1,1,0,0,3,-1,1,0,0,1,49,209,5,1,,,,,,,,
,,,,,,,,,,,,,FF,,,,,,,,0.983,,,,,,,,,,,,,,,,,,,,,,60fcf8392a83ae1b971d1199,61036bdc881c7a19b0966af9,2021-07-29_23h03.58.376,Simcolourproject_2stim_asymm_v5,2020.2.10,Win32,60,61025ae37ef11b136ea224fe,,,,,,,,,4293,-54,-25,1,0,0,response5disk,,2,-1,8,1,0,0,rectangle,-1,8,1,0,0,-1,8,1,0,0,1,50,210,27,1,,,,,,,,
,,,,,,,,,,,,,FF,,,,,,,,1.72,,,,,,,,,,,,,,,,,,,,,,60fcf8392a83ae1b971d1199,61036bdc881c7a19b0966af9,2021-07-29_23h03.58.376,Simcolourproject_2stim_asymm_v5,2020.2.10,Win32,60,61025ae37ef11b136ea224fe,,,,,,,,,1875,59,23,1,0,0,response1disk,,6,23,1,1,0,0,rectangle,23,1,1,0,0,23,1,1,0,0,1,51,211,36,1,,,,,,,,
,,,,,,,,,,,,,FF,,,,,,,,1.174,,,,,,,,,,,,,,,,,,,,,,60fcf8392a83ae1b971d1199,61036bdc881c7a19b0966af9,2021-07-29_23h03.58.376,Simcolourproject_2stim_asymm_v5,2020.2.10,Win32,60,61025ae37ef11b136ea224fe,,,,,,,,,482,62,-39,1,0,0,response3disk,,5,13,-2,1,0,0,rectangle,13,-2,1,0,0,13,-2,1,0,0,1,52,212,108,1,,,,,,,,
,,,,,,,,,,,,,FF,,,,,,,,1.081,,,,,,,,,,,,,,,,,,,,,,60fcf8392a83ae1b971d1199,61036bdc881c7a19b0966af9,2021-07-29_23h03.58.376,Simcolourproject_2stim_asymm_v5,2020.2.10,Win32,60,61025ae37ef11b136ea224fe,,,,,,,,,1868,56,29,1,0,0,response1disk,,6,-1,-5,1,0,0,rectangle,-1,-5,1,0,0,-1,-5,1,0,0,1,53,213,10,1,,,,,,,,
,,,,,,,,,,,,,FF,,,,,,,,1.217,,,,,,,,,,,,,,,,,,,,,,60fcf8392a83ae1b971d1199,61036bdc881c7a19b0966af9,2021-07-29_23h03.58.376,Simcolourproject_2stim_asymm_v5,2020.2.10,Win32,60,61025ae37ef11b136ea224fe,,,,,,,,,775,37,17,1,0,0,response1disk,,6,-14,-8,1,0,0,rectangle,-14,-8,1,0,0,-14,-8,1,0,0,1,54,214,59,1,,,,,,,,
,,,,,,,,,,,,,FF,,,,,,,,2.674,,,,,,,,,,,,,,,,,,,,,,60fcf8392a83ae1b971d1199,61036bdc881c7a19b0966af9,2021-07-29_23h03.58.376,Simcolourproject_2stim_asymm_v5,2020.2.10,Win32,60,61025ae37ef11b136ea224fe,,,,,,,,,3195,57,-40,1,0,0,response3disk,,5,7,-5,1,0,0,rectangle,7,-5,1,0,0,7,-5,1,0,0,1,55,215,158,1,,,,,,,,
,,,,,,,,,,,,,FF,,,,,,,,1.39,,,,,,,,,,,,,,,,,,,,,,60fcf8392a83ae1b971d1199,61036bdc881c7a19b0966af9,2021-07-29_23h03.58.376,Simcolourproject_2stim_asymm_v5,2020.2.10,Win32,60,61025ae37ef11b136ea224fe,,,,,,,,,3170,44,29,1,0,0,response1disk,,6,-1,1,1,0,0,rectangle,-1,1,1,0,0,-1,1,1,0,0,1,56,216,20,1,,,,,,,,
,,,,,,,,,,,,,FF,,,,,,,,0.764,,,,,,,,,,,,,,,,,,,,,,60fcf8392a83ae1b971d1199,61036bdc881c7a19b0966af9,2021-07-29_23h03.58.376,Simcolourproject_2stim_asymm_v5,2020.2.10,Win32,60,61025ae37ef11b136ea224fe,,,,,,,,,4160,22,81,1,0,0,response1disk,,7,-4,10,1,0,0,rectangle,-4,10,1,0,0,-4,10,1,0,0,1,57,217,109,1,,,,,,,,
,,,,,,,,,,,,,FF,,,,,,,,0.883,,,,,,,,,,,,,,,,,,,,,,60fcf8392a83ae1b971d1199,61036bdc881c7a19b0966af9,2021-07-29_23h03.58.376,Simcolourproject_2stim_asymm_v5,2020.2.10,Win32,60,61025ae37ef11b136ea224fe,,,,,,,,,2180,39,-31,1,0,0,response3disk,,5,0,-5,1,0,0,rectangle,0,-5,1,0,0,0,-5,1,0,0,1,58,218,56,1,,,,,,,,
,,,,,,,,,,,,,FF,,,,,,,,0.783,,,,,,,,,,,,,,,,,,,,,,60fcf8392a83ae1b971d1199,61036bdc881c7a19b0966af9,2021-07-29_23h03.58.376,Simcolourproject_2stim_asymm_v5,2020.2.10,Win32,60,61025ae37ef11b136ea224fe,,,,,,,,,673,39,23,1,0,0,response1disk,,6,4,-2,1,0,0,rectangle,-38,-59,1,0,0,-10,11,1,0,0,1,59,219,64,1,,response5disk_3,TRUE,3,3,"[220,222,68,113,77,26,193,14,109,129,162,312,245,151,181,159,302,6,271,95]",1.499,rectangle
,,,,,,,,,,,,,FF,,,,,,,,1.061,,,,,,,,,,,,,,,,,,,,,,60fcf8392a83ae1b971d1199,61036bdc881c7a19b0966af9,2021-07-29_23h03.58.376,Simcolourproject_2stim_asymm_v5,2020.2.10,Win32,60,61025ae37ef11b136ea224fe,,,,,,,,,2042,-23,-47,1,0,0,response5disk,,3,5,3,1,0,0,rectangle,5,3,1,0,0,5,3,1,0,0,1,60,220,60,1,,,,,,,,
,,,,,,,,,,,,,FF,,,,,,,,0.836,,,,,,,,,,,,,,,,,,,,,,60fcf8392a83ae1b971d1199,61036bdc881c7a19b0966af9,2021-07-29_23h03.58.376,Simcolourproject_2stim_asymm_v5,2020.2.10,Win32,60,61025ae37ef11b136ea224fe,,,,,,,,,1193,42,-25,1,0,0,response3disk,,5,2,-2,1,0,0,rectangle,27,-68,1,0,0,3,0,1,0,0,1,61,221,125,1,,response3disk_3,TRUE,4,4,"[220,222,68,113,77,26,193,14,109,129,162,312,245,151,181,159,302,6,271,95]",1.993,rectangle
,,,,,,,,,,,,,FF,,,,,,,,0.762,,,,,,,,,,,,,,,,,,,,,,60fcf8392a83ae1b971d1199,61036bdc881c7a19b0966af9,2021-07-29_23h03.58.376,Simcolourproject_2stim_asymm_v5,2020.2.10,Win32,60,61025ae37ef11b136ea224fe,,,,,,,,,3593,-35,-75,1,0,0,response5disk,,3,9,8,1,0,0,rectangle,9,8,1,0,0,9,8,1,0,0,1,62,222,95,1,,,,,,,,
,,,,,,,,,,,,,FF,,,,,,,,1.263,,,,,,,,,,,,,,,,,,,,,,60fcf8392a83ae1b971d1199,61036bdc881c7a19b0966af9,2021-07-29_23h03.58.376,Simcolourproject_2stim_asymm_v5,2020.2.10,Win32,60,61025ae37ef11b136ea224fe,,,,,,,,,1650,63,32,1,0,0,response1disk,,6,22,1,1,0,0,rectangle,22,1,1,0,0,22,1,1,0,0,1,63,223,92,1,,,,,,,,
,,,,,,,,,,,,,FF,,,,,,,,1.901,,,,,,,,,,,,,,,,,,,,,,60fcf8392a83ae1b971d1199,61036bdc881c7a19b0966af9,2021-07-29_23h03.58.376,Simcolourproject_2stim_asymm_v5,2020.2.10,Win32,60,61025ae37ef11b136ea224fe,,,,,,,,,2358,-49,-83,1,0,0,response5disk,,3,-11,7,1,0,0,rectangle,-11,7,1,0,0,-11,7,1,0,0,1,64,224,37,1,,,,,,,,
,,,,,,,,,,,,,FF,,,,,,,,1.021,,,,,,,,,,,,,,,,,,,,,,60fcf8392a83ae1b971d1199,61036bdc881c7a19b0966af9,2021-07-29_23h03.58.376,Simcolourproject_2stim_asymm_v5,2020.2.10,Win32,60,61025ae37ef11b136ea224fe,,,,,,,,,3802,61,-23,1,0,0,response3disk,,5,17,-4,1,0,0,rectangle,17,-4,1,0,0,17,-4,1,0,0,1,65,225,53,1,,,,,,,,
,,,,,,,,,,,,,FF,,,,,,,,0.921,,,,,,,,,,,,,,,,,,,,,,60fcf8392a83ae1b971d1199,61036bdc881c7a19b0966af9,2021-07-29_23h03.58.376,Simcolourproject_2stim_asymm_v5,2020.2.10,Win32,60,61025ae37ef11b136ea224fe,,,,,,,,,1198,87,39,1,0,0,response1disk,,6,-13,-4,1,0,0,rectangle,-13,-4,1,0,0,-13,-4,1,0,0,1,66,226,87,1,,,,,,,,
,,,,,,,,,,,,,FF,,,,,,,,0.932,,,,,,,,,,,,,,,,,,,,,,60fcf8392a83ae1b971d1199,61036bdc881c7a19b0966af9,2021-07-29_23h03.58.376,Simcolourproject_2stim_asymm_v5,2020.2.10,Win32,60,61025ae37ef11b136ea224fe,,,,,,,,,2351,67,-19,1,0,0,response3disk,,5,-9,-5,1,0,0,rectangle,-9,-5,1,0,0,-9,-5,1,0,0,1,67,227,152,1,,,,,,,,
,,,,,,,,,,,,,FF,,,,,,,,1.006,,,,,,,,,,,,,,,,,,,,,,60fcf8392a83ae1b971d1199,61036bdc881c7a19b0966af9,2021-07-29_23h03.58.376,Simcolourproject_2stim_asymm_v5,2020.2.10,Win32,60,61025ae37ef11b136ea224fe,,,,,,,,,4370,-48,75,1,0,0,response7disk,,0,13,-1,1,0,0,rectangle,13,-1,1,0,0,13,-1,1,0,0,1,68,228,21,1,,,,,,,,
,,,,,,,,,,,,,FF,,,,,,,,0.961,,,,,,,,,,,,,,,,,,,,,,60fcf8392a83ae1b971d1199,61036bdc881c7a19b0966af9,2021-07-29_23h03.58.376,Simcolourproject_2stim_asymm_v5,2020.2.10,Win32,60,61025ae37ef11b136ea224fe,,,,,,,,,1004,67,37,1,0,0,response1disk,,6,-13,-13,1,0,0,rectangle,-13,-13,1,0,0,-13,-13,1,0,0,1,69,229,65,1,,,,,,,,
,,,,,,,,,,,,,FF,,,,,,,,0.76,,,,,,,,,,,,,,,,,,,,,,60fcf8392a83ae1b971d1199,61036bdc881c7a19b0966af9,2021-07-29_23h03.58.376,Simcolourproject_2stim_asymm_v5,2020.2.10,Win32,60,61025ae37ef11b136ea224fe,,,,,,,,,655,64,-20,1,0,0,response3disk,,5,-13,3,1,0,0,rectangle,-13,3,1,0,0,-13,3,1,0,0,1,70,230,38,1,,,,,,,,
,,,,,,,,,,,,,FF,,,,,,,,1.071,,,,,,,,,,,,,,,,,,,,,,60fcf8392a83ae1b971d1199,61036bdc881c7a19b0966af9,2021-07-29_23h03.58.376,Simcolourproject_2stim_asymm_v5,2020.2.10,Win32,60,61025ae37ef11b136ea224fe,,,,,,,,,1994,48,-22,1,0,0,response3disk,,5,-15,0,1,0,0,rectangle,-15,0,1,0,0,-15,0,1,0,0,1,71,231,151,1,,,,,,,,
,,,,,,,,,,,,,FF,,,,,,,,0.823,,,,,,,,,,,,,,,,,,,,,,60fcf8392a83ae1b971d1199,61036bdc881c7a19b0966af9,2021-07-29_23h03.58.376,Simcolourproject_2stim_asymm_v5,2020.2.10,Win32,60,61025ae37ef11b136ea224fe,,,,,,,,,1924,83,-29,1,0,0,response3disk,,5,18,7,1,0,0,rectangle,18,7,1,0,0,18,7,1,0,0,1,72,232,143,1,,,,,,,,
,,,,,,,,,,,,,FF,,,,,,,,1.321,,,,,,,,,,,,,,,,,,,,,,60fcf8392a83ae1b971d1199,61036bdc881c7a19b0966af9,2021-07-29_23h03.58.376,Simcolourproject_2stim_asymm_v5,2020.2.10,Win32,60,61025ae37ef11b136ea224fe,,,,,,,,,1188,25,-85,1,0,0,response3disk,,4,2,2,1,0,0,rectangle,2,2,1,0,0,2,2,1,0,0,1,73,233,11,1,,,,,,,,
,,,,,,,,,,,,,FF,,,,,,,,0.772,,,,,,,,,,,,,,,,,,,,,,60fcf8392a83ae1b971d1199,61036bdc881c7a19b0966af9,2021-07-29_23h03.58.376,Simcolourproject_2stim_asymm_v5,2020.2.10,Win32,60,61025ae37ef11b136ea224fe,,,,,,,,,3976,25,-63,1,0,0,response3disk,,4,-2,-5,1,0,0,rectangle,-2,-5,1,0,0,-2,-5,1,0,0,1,74,234,146,1,,,,,,,,
,,,,,,,,,,,,,FF,,,,,,,,1.059,,,,,,,,,,,,,,,,,,,,,,60fcf8392a83ae1b971d1199,61036bdc881c7a19b0966af9,2021-07-29_23h03.58.376,Simcolourproject_2stim_asymm_v5,2020.2.10,Win32,60,61025ae37ef11b136ea224fe,,,,,,,,,586,87,41,1,0,0,response1disk,,6,-6,-5,1,0,0,rectangle,-6,-5,1,0,0,-6,-5,1,0,0,1,75,235,1,1,,,,,,,,
,,,,,,,,,,,,,FF,,,,,,,,0.729,,,,,,,,,,,,,,,,,,,,,,60fcf8392a83ae1b971d1199,61036bdc881c7a19b0966af9,2021-07-29_23h03.58.376,Simcolourproject_2stim_asymm_v5,2020.2.10,Win32,60,61025ae37ef11b136ea224fe,,,,,,,,,2844,53,-29,1,0,0,response3disk,,5,-5,-1,1,0,0,rectangle,-5,-1,1,0,0,-5,-1,1,0,0,1,76,236,93,1,,,,,,,,
,,,,,,,,,,,,,FF,,,,,,,,1.397,,,,,,,,,,,,,,,,,,,,,,60fcf8392a83ae1b971d1199,61036bdc881c7a19b0966af9,2021-07-29_23h03.58.376,Simcolourproject_2stim_asymm_v5,2020.2.10,Win32,60,61025ae37ef11b136ea224fe,,,,,,,,,4360,66,-34,1,0,0,response3disk,,5,-5,-7,1,0,0,rectangle,-5,-7,1,0,0,-5,-7,1,0,0,1,77,237,120,1,,,,,,,,
,,,,,,,,,,,,,FF,,,,,,,,1.106,,,,,,,,,,,,,,,,,,,,,,60fcf8392a83ae1b971d1199,61036bdc881c7a19b0966af9,2021-07-29_23h03.58.376,Simcolourproject_2stim_asymm_v5,2020.2.10,Win32,60,61025ae37ef11b136ea224fe,,,,,,,,,1433,23,-85,1,0,0,response3disk,,4,-5,5,1,0,0,rectangle,-5,5,1,0,0,-5,5,1,0,0,1,78,238,22,1,,,,,,,,
,,,,,,,,,,,,,FF,,,,,,,,0.867,,,,,,,,,,,,,,,,,,,,,,60fcf8392a83ae1b971d1199,61036bdc881c7a19b0966af9,2021-07-29_23h03.58.376,Simcolourproject_2stim_asymm_v5,2020.2.10,Win32,60,61025ae37ef11b136ea224fe,,,,,,,,,2913,63,23,1,0,0,response1disk,,6,-10,-3,1,0,0,rectangle,-10,-3,1,0,0,-10,-3,1,0,0,1,79,239,47,1,,,,,,,,
,,,,,,,,,,,,,FF,,,,,,,,0.625,,,,,,,,,,,,,,,,,,,,,,60fcf8392a83ae1b971d1199,61036bdc881c7a19b0966af9,2021-07-29_23h03.58.376,Simcolourproject_2stim_asymm_v5,2020.2.10,Win32,60,61025ae37ef11b136ea224fe,,,,,,,,,843,54,28,1,0,0,response1disk,,6,-4,-13,1,0,0,rectangle,-4,-13,1,0,0,-4,-13,1,0,0,1,80,240,39,1,,,,,,,,
,,,,,,,,,,,,,FF,,,,,,,,1.034,,,,,,,,,,,,,,,,,,,,,,60fcf8392a83ae1b971d1199,61036bdc881c7a19b0966af9,2021-07-29_23h03.58.376,Simcolourproject_2stim_asymm_v5,2020.2.10,Win32,60,61025ae37ef11b136ea224fe,,,,,,,,,2516,84,17,1,0,0,response1disk,,6,5,-6,1,0,0,rectangle,5,-6,1,0,0,5,-6,1,0,0,1,81,241,129,1,,,,,,,,
,,,,,,,,,,,,,FF,,,,,,,,0.599,,,,,,,,,,,,,,,,,,,,,,60fcf8392a83ae1b971d1199,61036bdc881c7a19b0966af9,2021-07-29_23h03.58.376,Simcolourproject_2stim_asymm_v5,2020.2.10,Win32,60,61025ae37ef11b136ea224fe,,,,,,,,,2644,57,41,1,0,0,response1disk,,6,14,3,1,0,0,rectangle,14,3,1,0,0,14,3,1,0,0,1,82,242,40,1,,,,,,,,
,,,,,,,,,,,,,FF,,,,,,,,1.095,,,,,,,,,,,,,,,,,,,,,,60fcf8392a83ae1b971d1199,61036bdc881c7a19b0966af9,2021-07-29_23h03.58.376,Simcolourproject_2stim_asymm_v5,2020.2.10,Win32,60,61025ae37ef11b136ea224fe,,,,,,,,,1308,-48,-85,1,0,0,response5disk,,3,-14,-1,1,0,0,rectangle,-14,-1,1,0,0,-14,-1,1,0,0,1,83,243,107,1,,,,,,,,
,,,,,,,,,,,,,FF,,,,,,,,0.684,,,,,,,,,,,,,,,,,,,,,,60fcf8392a83ae1b971d1199,61036bdc881c7a19b0966af9,2021-07-29_23h03.58.376,Simcolourproject_2stim_asymm_v5,2020.2.10,Win32,60,61025ae37ef11b136ea224fe,,,,,,,,,2884,37,-38,1,0,0,response3disk,,4,4,1,1,0,0,rectangle,29,-67,1,0,0,-3,-3,1,0,0,1,84,244,23,1,,response3disk_3,TRUE,4,4,"[220,222,68,113,77,26,193,14,109,129,162,312,245,151,181,159,302,6,271,95]",1.917,rectangle
,,,,,,,,,,,,,FF,,,,,,,,0.89,,,,,,,,,,,,,,,,,,,,,,60fcf8392a83ae1b971d1199,61036bdc881c7a19b0966af9,2021-07-29_23h03.58.376,Simcolourproject_2stim_asymm_v5,2020.2.10,Win32,60,61025ae37ef11b136ea224fe,,,,,,,,,1400,43,-47,1,0,0,response3disk,,4,5,-3,1,0,0,rectangle,5,-3,1,0,0,5,-3,1,0,0,1,85,245,137,1,,,,,,,,
,,,,,,,,,,,,,FF,,,,,,,,2.172,,,,,,,,,,,,,,,,,,,,,,60fcf8392a83ae1b971d1199,61036bdc881c7a19b0966af9,2021-07-29_23h03.58.376,Simcolourproject_2stim_asymm_v5,2020.2.10,Win32,60,61025ae37ef11b136ea224fe,,,,,,,,,1783,83,-33,1,0,0,response3disk,,5,-7,5,1,0,0,rectangle,-7,5,1,0,0,-7,5,1,0,0,1,86,246,90,1,,,,,,,,
,,,,,,,,,,,,,FF,,,,,,,,0.877,,,,,,,,,,,,,,,,,,,,,,60fcf8392a83ae1b971d1199,61036bdc881c7a19b0966af9,2021-07-29_23h03.58.376,Simcolourproject_2stim_asymm_v5,2020.2.10,Win32,60,61025ae37ef11b136ea224fe,,,,,,,,,456,-63,-68,1,0,0,response5disk,,3,-11,-6,1,0,0,rectangle,-11,-6,1,0,0,-11,-6,1,0,0,1,87,247,104,1,,,,,,,,
,,,,,,,,,,,,,FF,,,,,,,,0.733,,,,,,,,,,,,,,,,,,,,,,60fcf8392a83ae1b971d1199,61036bdc881c7a19b0966af9,2021-07-29_23h03.58.376,Simcolourproject_2stim_asymm_v5,2020.2.10,Win32,60,61025ae37ef11b136ea224fe,,,,,,,,,476,35,-69,1,0,0,response3disk,,4,-15,13,1,0,0,rectangle,-15,13,1,0,0,-15,13,1,0,0,1,88,248,63,1,,,,,,,,
,,,,,,,,,,,,,FF,,,,,,,,0.783,,,,,,,,,,,,,,,,,,,,,,60fcf8392a83ae1b971d1199,61036bdc881c7a19b0966af9,2021-07-29_23h03.58.376,Simcolourproject_2stim_asymm_v5,2020.2.10,Win32,60,61025ae37ef11b136ea224fe,,,,,,,,,3731,85,23,1,0,0,response1disk,,6,-15,12,1,0,0,rectangle,-15,12,1,0,0,-15,12,1,0,0,1,89,249,96,1,,,,,,,,
,,,,,,,,,,,,,FF,,,,,,,,0.882,,,,,,,,,,,,,,,,,,,,,,60fcf8392a83ae1b971d1199,61036bdc881c7a19b0966af9,2021-07-29_23h03.58.376,Simcolourproject_2stim_asymm_v5,2020.2.10,Win32,60,61025ae37ef11b136ea224fe,,,,,,,,,1678,-39,-71,1,0,0,response5disk,,3,-19,11,1,0,0,rectangle,-19,11,1,0,0,-19,11,1,0,0,1,90,250,133,1,,,,,,,,
,,,,,,,,,,,,,FF,,,,,,,,0.711,,,,,,,,,,,,,,,,,,,,,,60fcf8392a83ae1b971d1199,61036bdc881c7a19b0966af9,2021-07-29_23h03.58.376,Simcolourproject_2stim_asymm_v5,2020.2.10,Win32,60,61025ae37ef11b136ea224fe,,,,,,,,,360,71,-45,1,0,0,response3disk,,5,24,3,1,0,0,rectangle,24,3,1,0,0,24,3,1,0,0,1,91,251,141,1,,,,,,,,
,,,,,,,,,,,,,FF,,,,,,,,0.716,,,,,,,,,,,,,,,,,,,,,,60fcf8392a83ae1b971d1199,61036bdc881c7a19b0966af9,2021-07-29_23h03.58.376,Simcolourproject_2stim_asymm_v5,2020.2.10,Win32,60,61025ae37ef11b136ea224fe,,,,,,,,,1529,-28,-66,1,0,0,response5disk,,3,-5,5,1,0,0,rectangle,-5,5,1,0,0,-5,5,1,0,0,1,92,252,34,1,,,,,,,,
,,,,,,,,,,,,,FF,,,,,,,,0.584,,,,,,,,,,,,,,,,,,,,,,60fcf8392a83ae1b971d1199,61036bdc881c7a19b0966af9,2021-07-29_23h03.58.376,Simcolourproject_2stim_asymm_v5,2020.2.10,Win32,60,61025ae37ef11b136ea224fe,,,,,,,,,4272,57,-31,1,0,0,response3disk,,5,12,10,1,0,0,rectangle,12,10,1,0,0,12,10,1,0,0,1,93,253,8,1,,,,,,,,
,,,,,,,,,,,,,FF,,,,,,,,0.535,,,,,,,,,,,,,,,,,,,,,,60fcf8392a83ae1b971d1199,61036bdc881c7a19b0966af9,2021-07-29_23h03.58.376,Simcolourproject_2stim_asymm_v5,2020.2.10,Win32,60,61025ae37ef11b136ea224fe,,,,,,,,,1272,66,36,1,0,0,response1disk,,6,-5,-10,1,0,0,rectangle,-5,-10,1,0,0,-5,-10,1,0,0,1,94,254,72,1,,,,,,,,
,,,,,,,,,,,,,FF,,,,,,,,0.514,,,,,,,,,,,,,,,,,,,,,,60fcf8392a83ae1b971d1199,61036bdc881c7a19b0966af9,2021-07-29_23h03.58.376,Simcolourproject_2stim_asymm_v5,2020.2.10,Win32,60,61025ae37ef11b136ea224fe,,,,,,,,,1014,51,39,1,0,0,response1disk,,6,-3,7,1,0,0,rectangle,-3,7,1,0,0,-3,7,1,0,0,1,95,255,7,1,,,,,,,,
,,,,,,,,,,,,,FF,,,,,,,,0.984,,,,,,,,,,,,,,,,,,,,,,60fcf8392a83ae1b971d1199,61036bdc881c7a19b0966af9,2021-07-29_23h03.58.376,Simcolourproject_2stim_asymm_v5,2020.2.10,Win32,60,61025ae37ef11b136ea224fe,,,,,,,,,363,68,-36,1,0,0,response3disk,,5,5,-6,1,0,0,rectangle,5,-6,1,0,0,5,-6,1,0,0,1,96,256,112,1,,,,,,,,
,,,,,,,,,,,,,FF,,,,,,,,0.933,,,,,,,,,,,,,,,,,,,,,,60fcf8392a83ae1b971d1199,61036bdc881c7a19b0966af9,2021-07-29_23h03.58.376,Simcolourproject_2stim_asymm_v5,2020.2.10,Win32,60,61025ae37ef11b136ea224fe,,,,,,,,,2375,30,-55,1,0,0,response3disk,,4,5,12,1,0,0,rectangle,5,12,1,0,0,5,12,1,0,0,1,97,257,76,1,,,,,,,,
,,,,,,,,,,,,,FF,,,,,,,,0.768,,,,,,,,,,,,,,,,,,,,,,60fcf8392a83ae1b971d1199,61036bdc881c7a19b0966af9,2021-07-29_23h03.58.376,Simcolourproject_2stim_asymm_v5,2020.2.10,Win32,60,61025ae37ef11b136ea224fe,,,,,,,,,3392,-68,-51,1,0,0,response5disk,,2,-1,1,1,0,0,rectangle,-1,1,1,0,0,-1,1,1,0,0,1,98,258,145,1,,,,,,,,
,,,,,,,,,,,,,FF,,,,,,,,0.774,,,,,,,,,,,,,,,,,,,,,,60fcf8392a83ae1b971d1199,61036bdc881c7a19b0966af9,2021-07-29_23h03.58.376,Simcolourproject_2stim_asymm_v5,2020.2.10,Win32,60,61025ae37ef11b136ea224fe,,,,,,,,,4017,63,46,1,0,0,response1disk,,6,-17,-3,1,0,0,rectangle,-17,-3,1,0,0,-17,-3,1,0,0,1,99,259,135,1,,,,,,,,
,,,,,,,,,,,,,FF,,,,,,,,0.864,,,,,,,,,,,,,,,,,,,,,,60fcf8392a83ae1b971d1199,61036bdc881c7a19b0966af9,2021-07-29_23h03.58.376,Simcolourproject_2stim_asymm_v5,2020.2.10,Win32,60,61025ae37ef11b136ea224fe,,,,,,,,,3049,-23,-74,1,0,0,response5disk,,3,-13,-4,1,0,0,rectangle,-13,-4,1,0,0,-13,-4,1,0,0,1,100,260,155,1,,,,,,,,
,,,,,,,,,,,,,FF,,,,,,,,0.808,,,,,,,,,,,,,,,,,,,,,,60fcf8392a83ae1b971d1199,61036bdc881c7a19b0966af9,2021-07-29_23h03.58.376,Simcolourproject_2stim_asymm_v5,2020.2.10,Win32,60,61025ae37ef11b136ea224fe,,,,,,,,,4280,-36,74,1,0,0,response7disk,,0,11,-13,1,0,0,rectangle,11,-13,1,0,0,11,-13,1,0,0,1,101,261,75,1,,,,,,,,
,,,,,,,,,,,,,FF,,,,,,,,0.934,,,,,,,,,,,,,,,,,,,,,,60fcf8392a83ae1b971d1199,61036bdc881c7a19b0966af9,2021-07-29_23h03.58.376,Simcolourproject_2stim_asymm_v5,2020.2.10,Win32,60,61025ae37ef11b136ea224fe,,,,,,,,,89,64,27,1,0,0,response1disk,,6,-2,-8,1,0,0,rectangle,-2,-8,1,0,0,-2,-8,1,0,0,1,102,262,110,1,,,,,,,,
,,,,,,,,,,,,,FF,,,,,,,,0.947,,,,,,,,,,,,,,,,,,,,,,60fcf8392a83ae1b971d1199,61036bdc881c7a19b0966af9,2021-07-29_23h03.58.376,Simcolourproject_2stim_asymm_v5,2020.2.10,Win32,60,61025ae37ef11b136ea224fe,,,,,,,,,3616,44,27,1,0,0,response1disk,,6,9,3,1,0,0,rectangle,9,3,1,0,0,9,3,1,0,0,1,103,263,118,1,,,,,,,,
,,,,,,,,,,,,,FF,,,,,,,,0.567,,,,,,,,,,,,,,,,,,,,,,60fcf8392a83ae1b971d1199,61036bdc881c7a19b0966af9,2021-07-29_23h03.58.376,Simcolourproject_2stim_asymm_v5,2020.2.10,Win32,60,61025ae37ef11b136ea224fe,,,,,,,,,3209,65,21,1,0,0,response1disk,,6,9,3,1,0,0,rectangle,9,3,1,0,0,9,3,1,0,0,1,104,264,31,1,,,,,,,,
,,,,,,,,,,,,,FF,,,,,,,,0.807,,,,,,,,,,,,,,,,,,,,,,60fcf8392a83ae1b971d1199,61036bdc881c7a19b0966af9,2021-07-29_23h03.58.376,Simcolourproject_2stim_asymm_v5,2020.2.10,Win32,60,61025ae37ef11b136ea224fe,,,,,,,,,2508,71,-29,1,0,0,response3disk,,5,16,-4,1,0,0,rectangle,16,-4,1,0,0,16,-4,1,0,0,1,105,265,73,1,,,,,,,,
,,,,,,,,,,,,,FF,,,,,,,,0.984,,,,,,,,,,,,,,,,,,,,,,60fcf8392a83ae1b971d1199,61036bdc881c7a19b0966af9,2021-07-29_23h03.58.376,Simcolourproject_2stim_asymm_v5,2020.2.10,Win32,60,61025ae37ef11b136ea224fe,,,,,,,,,2352,95,-41,1,0,0,response3disk,,5,3,2,1,0,0,rectangle,3,2,1,0,0,3,2,1,0,0,1,106,266,85,1,,,,,,,,
,,,,,,,,,,,,,FF,,,,,,,,0.931,,,,,,,,,,,,,,,,,,,,,,60fcf8392a83ae1b971d1199,61036bdc881c7a19b0966af9,2021-07-29_23h03.58.376,Simcolourproject_2stim_asymm_v5,2020.2.10,Win32,60,61025ae37ef11b136ea224fe,,,,,,,,,2241,-31,-85,1,0,0,response5disk,,3,5,7,1,0,0,rectangle,5,7,1,0,0,5,7,1,0,0,1,107,267,117,1,,,,,,,,
,,,,,,,,,,,,,FF,,,,,,,,0.703,,,,,,,,,,,,,,,,,,,,,,60fcf8392a83ae1b971d1199,61036bdc881c7a19b0966af9,2021-07-29_23h03.58.376,Simcolourproject_2stim_asymm_v5,2020.2.10,Win32,60,61025ae37ef11b136ea224fe,,,,,,,,,525,-55,-29,1,0,0,response5disk,,2,13,10,1,0,0,rectangle,13,10,1,0,0,13,10,1,0,0,1,108,268,13,1,,,,,,,,
,,,,,,,,,,,,,FF,,,,,,,,0.991,,,,,,,,,,,,,,,,,,,,,,60fcf8392a83ae1b971d1199,61036bdc881c7a19b0966af9,2021-07-29_23h03.58.376,Simcolourproject_2stim_asymm_v5,2020.2.10,Win32,60,61025ae37ef11b136ea224fe,,,,,,,,,1949,36,-49,1,0,0,response3disk,,4,14,-3,1,0,0,rectangle,14,-3,1,0,0,14,-3,1,0,0,1,109,269,83,1,,,,,,,,
,,,,,,,,,,,,,FF,,,,,,,,0.841,,,,,,,,,,,,,,,,,,,,,,60fcf8392a83ae1b971d1199,61036bdc881c7a19b0966af9,2021-07-29_23h03.58.376,Simcolourproject_2stim_asymm_v5,2020.2.10,Win32,60,61025ae37ef11b136ea224fe,,,,,,,,,470,24,-55,1,0,0,response3disk,,4,1,-11,1,0,0,rectangle,-62,-38,1,0,0,-7,-3,1,0,0,1,110,270,57,1,,response5disk_3,TRUE,2,2,"[220,222,68,113,77,26,193,14,109,129,162,312,245,151,181,159,302,6,271,95]",1.439,rectangle
,,,,,,,,,,,,,FF,,,,,,,,0.747,,,,,,,,,,,,,,,,,,,,,,60fcf8392a83ae1b971d1199,61036bdc881c7a19b0966af9,2021-07-29_23h03.58.376,Simcolourproject_2stim_asymm_v5,2020.2.10,Win32,60,61025ae37ef11b136ea224fe,,,,,,,,,3515,-61,-36,1,0,0,response5disk,,2,5,-12,1,0,0,rectangle,5,-12,1,0,0,5,-12,1,0,0,1,111,271,132,1,,,,,,,,
,,,,,,,,,,,,,FF,,,,,,,,0.872,,,,,,,,,,,,,,,,,,,,,,60fcf8392a83ae1b971d1199,61036bdc881c7a19b0966af9,2021-07-29_23h03.58.376,Simcolourproject_2stim_asymm_v5,2020.2.10,Win32,60,61025ae37ef11b136ea224fe,,,,,,,,,2213,107,39,1,0,0,response1disk,,6,-8,-1,1,0,0,rectangle,-8,-1,1,0,0,-8,-1,1,0,0,1,112,272,12,1,,,,,,,,
,,,,,,,,,,,,,FF,,,,,,,,1.548,,,,,,,,,,,,,,,,,,,,,,60fcf8392a83ae1b971d1199,61036bdc881c7a19b0966af9,2021-07-29_23h03.58.376,Simcolourproject_2stim_asymm_v5,2020.2.10,Win32,60,61025ae37ef11b136ea224fe,,,,,,,,,2344,65,-22,1,0,0,response3disk,,5,7,-1,1,0,0,rectangle,7,-1,1,0,0,7,-1,1,0,0,1,113,273,70,1,,,,,,,,
,,,,,,,,,,,,,FF,,,,,,,,1.742,,,,,,,,,,,,,,,,,,,,,,60fcf8392a83ae1b971d1199,61036bdc881c7a19b0966af9,2021-07-29_23h03.58.376,Simcolourproject_2stim_asymm_v5,2020.2.10,Win32,60,61025ae37ef11b136ea224fe,,,,,,,,,132,73,-29,1,0,0,response3disk,,5,6,5,1,0,0,rectangle,6,5,1,0,0,6,5,1,0,0,1,114,274,98,1,,,,,,,,
,,,,,,,,,,,,,FF,,,,,,,,0.818,,,,,,,,,,,,,,,,,,,,,,60fcf8392a83ae1b971d1199,61036bdc881c7a19b0966af9,2021-07-29_23h03.58.376,Simcolourproject_2stim_asymm_v5,2020.2.10,Win32,60,61025ae37ef11b136ea224fe,,,,,,,,,4082,37,-39,1,0,0,response3disk,,4,-2,5,1,0,0,rectangle,-2,5,1,0,0,-2,5,1,0,0,1,115,275,48,1,,,,,,,,
,,,,,,,,,,,,,FF,,,,,,,,1.623,,,,,,,,,,,,,,,,,,,,,,60fcf8392a83ae1b971d1199,61036bdc881c7a19b0966af9,2021-07-29_23h03.58.376,Simcolourproject_2stim_asymm_v5,2020.2.10,Win32,60,61025ae37ef11b136ea224fe,,,,,,,,,1489,40,27,1,0,0,response1disk,,6,11,5,1,0,0,rectangle,11,5,1,0,0,11,5,1,0,0,1,116,276,46,1,,,,,,,,
,,,,,,,,,,,,,FF,,,,,,,,0.717,,,,,,,,,,,,,,,,,,,,,,60fcf8392a83ae1b971d1199,61036bdc881c7a19b0966af9,2021-07-29_23h03.58.376,Simcolourproject_2stim_asymm_v5,2020.2.10,Win32,60,61025ae37ef11b136ea224fe,,,,,,,,,4151,-29,-43,1,0,0,response5disk,,3,-3,9,1,0,0,rectangle,-3,9,1,0,0,-3,9,1,0,0,1,117,277,71,1,,,,,,,,
,,,,,,,,,,,,,FF,,,,,,,,0.656,,,,,,,,,,,,,,,,,,,,,,60fcf8392a83ae1b971d1199,61036bdc881c7a19b0966af9,2021-07-29_23h03.58.376,Simcolourproject_2stim_asymm_v5,2020.2.10,Win32,60,61025ae37ef11b136ea224fe,,,,,,,,,4206,-58,-33,1,0,0,response5disk,,2,-3,3,1,0,0,rectangle,-3,3,1,0,0,-3,3,1,0,0,1,118,278,100,1,,,,,,,,
,,,,,,,,,,,,,FF,,,,,,,,0.625,,,,,,,,,,,,,,,,,,,,,,60fcf8392a83ae1b971d1199,61036bdc881c7a19b0966af9,2021-07-29_23h03.58.376,Simcolourproject_2stim_asymm_v5,2020.2.10,Win32,60,61025ae37ef11b136ea224fe,,,,,,,,,4283,-49,-38,1,0,0,response5disk,,2,-9,-11,1,0,0,rectangle,-9,-11,1,0,0,-9,-11,1,0,0,1,119,279,66,1,,,,,,,,
,,,,,,,,,,,,,FF,,,,,,,,0.513,,,,,,,,,,,,,,,,,,,,,,60fcf8392a83ae1b971d1199,61036bdc881c7a19b0966af9,2021-07-29_23h03.58.376,Simcolourproject_2stim_asymm_v5,2020.2.10,Win32,60,61025ae37ef11b136ea224fe,,,,,,,,,523,-50,-37,1,0,0,response5disk,,2,-7,5,1,0,0,rectangle,-7,5,1,0,0,-7,5,1,0,0,1,120,280,140,1,,,,,,,,
,,,,,,,,,,,,,FF,,,,,,,,0.77,,,,,,,,,,,,,,,,,,,,,,60fcf8392a83ae1b971d1199,61036bdc881c7a19b0966af9,2021-07-29_23h03.58.376,Simcolourproject_2stim_asymm_v5,2020.2.10,Win32,60,61025ae37ef11b136ea224fe,,,,,,,,,2906,72,-31,1,0,0,response3disk,,5,26,1,1,0,0,rectangle,26,1,1,0,0,26,1,1,0,0,1,121,281,82,1,,,,,,,,
,,,,,,,,,,,,,FF,,,,,,,,0.979,,,,,,,,,,,,,,,,,,,,,,60fcf8392a83ae1b971d1199,61036bdc881c7a19b0966af9,2021-07-29_23h03.58.376,Simcolourproject_2stim_asymm_v5,2020.2.10,Win32,60,61025ae37ef11b136ea224fe,,,,,,,,,2395,69,24,1,0,0,response1disk,,6,8,-2,1,0,0,rectangle,8,-2,1,0,0,8,-2,1,0,0,1,122,282,49,1,,,,,,,,
,,,,,,,,,,,,,FF,,,,,,,,2.15,,,,,,,,,,,,,,,,,,,,,,60fcf8392a83ae1b971d1199,61036bdc881c7a19b0966af9,2021-07-29_23h03.58.376,Simcolourproject_2stim_asymm_v5,2020.2.10,Win32,60,61025ae37ef11b136ea224fe,,,,,,,,,3799,83,45,1,0,0,response1disk,,6,23,3,1,0,0,rectangle,23,3,1,0,0,23,3,1,0,0,1,123,283,89,1,,,,,,,,
,,,,,,,,,,,,,FF,,,,,,,,0.684,,,,,,,,,,,,,,,,,,,,,,60fcf8392a83ae1b971d1199,61036bdc881c7a19b0966af9,2021-07-29_23h03.58.376,Simcolourproject_2stim_asymm_v5,2020.2.10,Win32,60,61025ae37ef11b136ea224fe,,,,,,,,,3279,63,31,1,0,0,response1disk,,6,9,11,1,0,0,rectangle,9,11,1,0,0,9,11,1,0,0,1,124,284,32,1,,,,,,,,
,,,,,,,,,,,,,FF,,,,,,,,1.159,,,,,,,,,,,,,,,,,,,,,,60fcf8392a83ae1b971d1199,61036bdc881c7a19b0966af9,2021-07-29_23h03.58.376,Simcolourproject_2stim_asymm_v5,2020.2.10,Win32,60,61025ae37ef11b136ea224fe,,,,,,,,,3957,59,-21,1,0,0,response3disk,,5,23,-1,1,0,0,rectangle,23,-1,1,0,0,23,-1,1,0,0,1,125,285,42,1,,,,,,,,
,,,,,,,,,,,,,FF,,,,,,,,0.749,,,,,,,,,,,,,,,,,,,,,,60fcf8392a83ae1b971d1199,61036bdc881c7a19b0966af9,2021-07-29_23h03.58.376,Simcolourproject_2stim_asymm_v5,2020.2.10,Win32,60,61025ae37ef11b136ea224fe,,,,,,,,,4108,72,-28,1,0,0,response3disk,,5,12,-3,1,0,0,rectangle,12,-3,1,0,0,12,-3,1,0,0,1,126,286,17,1,,,,,,,,
,,,,,,,,,,,,,FF,,,,,,,,0.585,,,,,,,,,,,,,,,,,,,,,,60fcf8392a83ae1b971d1199,61036bdc881c7a19b0966af9,2021-07-29_23h03.58.376,Simcolourproject_2stim_asymm_v5,2020.2.10,Win32,60,61025ae37ef11b136ea224fe,,,,,,,,,3877,41,-21,1,0,0,response3disk,,5,3,-2,1,0,0,rectangle,3,-2,1,0,0,3,-2,1,0,0,1,127,287,15,1,,,,,,,,
,,,,,,,,,,,,,FF,,,,,,,,1.001,,,,,,,,,,,,,,,,,,,,,,60fcf8392a83ae1b971d1199,61036bdc881c7a19b0966af9,2021-07-29_23h03.58.376,Simcolourproject_2stim_asymm_v5,2020.2.10,Win32,60,61025ae37ef11b136ea224fe,,,,,,,,,233,77,17,1,0,0,response1disk,,6,15,-13,1,0,0,rectangle,15,-13,1,0,0,15,-13,1,0,0,1,128,288,77,1,,,,,,,,
,,,,,,,,,,,,,FF,,,,,,,,0.934,,,,,,,,,,,,,,,,,,,,,,60fcf8392a83ae1b971d1199,61036bdc881c7a19b0966af9,2021-07-29_23h03.58.376,Simcolourproject_2stim_asymm_v5,2020.2.10,Win32,60,61025ae37ef11b136ea224fe,,,,,,,,,3214,47,53,1,0,0,response1disk,,7,21,-1,1,0,0,rectangle,21,-1,1,0,0,21,-1,1,0,0,1,129,289,122,1,,,,,,,,
,,,,,,,,,,,,,FF,,,,,,,,0.884,,,,,,,,,,,,,,,,,,,,,,60fcf8392a83ae1b971d1199,61036bdc881c7a19b0966af9,2021-07-29_23h03.58.376,Simcolourproject_2stim_asymm_v5,2020.2.10,Win32,60,61025ae37ef11b136ea224fe,,,,,,,,,2264,43,65,1,0,0,response1disk,,7,12,-3,1,0,0,rectangle,12,-3,1,0,0,12,-3,1,0,0,1,130,290,74,1,,,,,,,,
,,,,,,,,,,,,,FF,,,,,,,,0.777,,,,,,,,,,,,,,,,,,,,,,60fcf8392a83ae1b971d1199,61036bdc881c7a19b0966af9,2021-07-29_23h03.58.376,Simcolourproject_2stim_asymm_v5,2020.2.10,Win32,60,61025ae37ef11b136ea224fe,,,,,,,,,3126,64,25,1,0,0,response1disk,,6,20,11,1,0,0,rectangle,20,11,1,0,0,20,11,1,0,0,1,131,291,25,1,,,,,,,,
,,,,,,,,,,,,,FF,,,,,,,,1.1,,,,,,,,,,,,,,,,,,,,,,60fcf8392a83ae1b971d1199,61036bdc881c7a19b0966af9,2021-07-29_23h03.58.376,Simcolourproject_2stim_asymm_v5,2020.2.10,Win32,60,61025ae37ef11b136ea224fe,,,,,,,,,1178,53,-29,1,0,0,response3disk,,5,22,-14,1,0,0,rectangle,22,-14,1,0,0,22,-14,1,0,0,1,132,292,78,1,,,,,,,,
,,,,,,,,,,,,,FF,,,,,,,,0.945,,,,,,,,,,,,,,,,,,,,,,60fcf8392a83ae1b971d1199,61036bdc881c7a19b0966af9,2021-07-29_23h03.58.376,Simcolourproject_2stim_asymm_v5,2020.2.10,Win32,60,61025ae37ef11b136ea224fe,,,,,,,,,3666,17,-43,1,0,0,response3disk,,4,-21,-10,1,0,0,rectangle,-21,-10,1,0,0,-21,-10,1,0,0,1,133,293,121,1,,,,,,,,
,,,,,,,,,,,,,FF,,,,,,,,0.717,,,,,,,,,,,,,,,,,,,,,,60fcf8392a83ae1b971d1199,61036bdc881c7a19b0966af9,2021-07-29_23h03.58.376,Simcolourproject_2stim_asymm_v5,2020.2.10,Win32,60,61025ae37ef11b136ea224fe,,,,,,,,,1039,67,-29,1,0,0,response3disk,,5,4,7,1,0,0,rectangle,4,7,1,0,0,4,7,1,0,0,1,134,294,24,1,,,,,,,,
,,,,,,,,,,,,,FF,,,,,,,,0.996,,,,,,,,,,,,,,,,,,,,,,60fcf8392a83ae1b971d1199,61036bdc881c7a19b0966af9,2021-07-29_23h03.58.376,Simcolourproject_2stim_asymm_v5,2020.2.10,Win32,60,61025ae37ef11b136ea224fe,,,,,,,,,2051,35,-37,1,0,0,response3disk,,4,-5,-4,1,0,0,rectangle,-5,-4,1,0,0,-5,-4,1,0,0,1,135,295,101,1,,,,,,,,
,,,,,,,,,,,,,FF,,,,,,,,1.767,,,,,,,,,,,,,,,,,,,,,,60fcf8392a83ae1b971d1199,61036bdc881c7a19b0966af9,2021-07-29_23h03.58.376,Simcolourproject_2stim_asymm_v5,2020.2.10,Win32,60,61025ae37ef11b136ea224fe,,,,,,,,,3901,29,-21,1,0,0,response3disk,,5,5,-13,1,0,0,rectangle,5,-13,1,0,0,5,-13,1,0,0,1,136,296,84,1,,,,,,,,
,,,,,,,,,,,,,FF,,,,,,,,2.086,,,,,,,,,,,,,,,,,,,,,,60fcf8392a83ae1b971d1199,61036bdc881c7a19b0966af9,2021-07-29_23h03.58.376,Simcolourproject_2stim_asymm_v5,2020.2.10,Win32,60,61025ae37ef11b136ea224fe,,,,,,,,,2205,83,19,1,0,0,response1disk,,6,5,-7,1,0,0,rectangle,5,-7,1,0,0,5,-7,1,0,0,1,137,297,134,1,,,,,,,,
,,,,,,,,,,,,,FF,,,,,,,,0.671,,,,,,,,,,,,,,,,,,,,,,60fcf8392a83ae1b971d1199,61036bdc881c7a19b0966af9,2021-07-29_23h03.58.376,Simcolourproject_2stim_asymm_v5,2020.2.10,Win32,60,61025ae37ef11b136ea224fe,,,,,,,,,137,61,25,1,0,0,response1disk,,6,16,-8,1,0,0,rectangle,16,-8,1,0,0,16,-8,1,0,0,1,138,298,97,1,,,,,,,,
,,,,,,,,,,,,,FF,,,,,,,,0.717,,,,,,,,,,,,,,,,,,,,,,60fcf8392a83ae1b971d1199,61036bdc881c7a19b0966af9,2021-07-29_23h03.58.376,Simcolourproject_2stim_asymm_v5,2020.2.10,Win32,60,61025ae37ef11b136ea224fe,,,,,,,,,4231,43,-22,1,0,0,response3disk,,5,-4,0,1,0,0,rectangle,-4,0,1,0,0,-4,0,1,0,0,1,139,299,139,1,,,,,,,,
,,,,,,,,,,,,,FF,,,,,,,,0.85,,,,,,,,,,,,,,,,,,,,,,60fcf8392a83ae1b971d1199,61036bdc881c7a19b0966af9,2021-07-29_23h03.58.376,Simcolourproject_2stim_asymm_v5,2020.2.10,Win32,60,61025ae37ef11b136ea224fe,,,,,,,,,608,81,25,1,0,0,response1disk,,6,6,-9,1,0,0,rectangle,6,-9,1,0,0,6,-9,1,0,0,1,140,300,51,1,,,,,,,,
,,,,,,,,,,,,,FF,,,,,,,,1.43,,,,,,,,,,,,,,,,,,,,,,60fcf8392a83ae1b971d1199,61036bdc881c7a19b0966af9,2021-07-29_23h03.58.376,Simcolourproject_2stim_asymm_v5,2020.2.10,Win32,60,61025ae37ef11b136ea224fe,,,,,,,,,3725,46,25,1,0,0,response1disk,,6,-1,-8,1,0,0,rectangle,72,-25,1,0,0,11,-14,1,0,0,1,141,301,103,1,,response3disk_3,TRUE,5,5,"[220,222,68,113,77,26,193,14,109,129,162,312,245,151,181,159,302,6,271,95]",1.485,rectangle
,,,,,,,,,,,,,FF,,,,,,,,0.843,,,,,,,,,,,,,,,,,,,,,,60fcf8392a83ae1b971d1199,61036bdc881c7a19b0966af9,2021-07-29_23h03.58.376,Simcolourproject_2stim_asymm_v5,2020.2.10,Win32,60,61025ae37ef11b136ea224fe,,,,,,,,,787,-61,-53,1,0,0,response5disk,,2,7,-5,1,0,0,rectangle,7,-5,1,0,0,7,-5,1,0,0,1,142,302,128,1,,,,,,,,
