key_resp.keys,key_resp.rt,key_resp_14.keys,key_resp_14.rt,key_resp_15.keys,key_resp_15.rt,key_resp_17.keys,key_resp_17.rt,key_resp_9.keys,key_resp_9.rt,key_resp_10.keys,key_resp_10.rt,practice_comparison,Ecc,mouse_5.x,mouse_5.y,mouse_5.leftButton,mouse_5.midButton,mouse_5.rightButton,mouse_5.clicked_name,pracsimilarity,response_time,mouse_10.x,mouse_10.y,mouse_10.leftButton,mouse_10.midButton,mouse_10.rightButton,mouse_10.clicked_name,mouse_7.x,mouse_7.y,mouse_7.leftButton,mouse_7.midButton,mouse_7.rightButton,mouse_6.x,mouse_6.y,mouse_6.leftButton,mouse_6.midButton,mouse_6.rightButton,duringprac.thisRepN,duringprac.thisTrialN,duringprac.thisN,duringprac.thisIndex,duringprac.ran,participant,session,date,expName,psychopyVersion,OS,frameRate,study_id,mouse_7.clicked_name,catchpracsimilarity,catch_response_time,catchnumberprac,catchtrialorderprac,mouse_6.clicked_name,key_resp_22.keys,key_resp_22.rt,realcomparison,mouse.x,mouse.y,mouse.leftButton,mouse.midButton,mouse.rightButton,mouse.clicked_name,Colour2,similarity,mouse_2.x,mouse_2.y,mouse_2.leftButton,mouse_2.midButton,mouse_2.rightButton,mouse_2.clicked_name,mouse_3.x,mouse_3.y,mouse_3.leftButton,mouse_3.midButton,mouse_3.rightButton,mouse_11.x,mouse_11.y,mouse_11.leftButton,mouse_11.midButton,mouse_11.rightButton,trials_2.thisRepN,trials_2.thisTrialN,trials_2.thisN,trials_2.thisIndex,trials_2.ran,Colour1,mouse_3.clicked_name,catchornah,catchsimilarity,catchnumber,catchtrialorder,catchRT,mouse_11.clicked_name
space,6.3858,space,8.1561,space,30.2005,space,10.7992,space,1.6407,space,8.2821,6,PF,-27.19998896,81.59999478,1,0,0,response7disk_5,0,9.1681,-0.799988568,-2.400006473,1,0,0,rectangle_8,-0.799988568,-2.400006473,1,0,0,-0.799988568,-2.400006473,1,0,0,0,0,0,2,1,60fcfc13c59a84fe5ae390d5,61036474107ed3ceabea3202,2021-07-29_22h31.52.101,Simcolourproject_2stim_asymm_v5,2020.2.10,Win32,60,61025ae37ef11b136ea224fe,,,,,,,,,,,,,,,,,,,,,,,,,,,,,,,,,,,,,,,,,,,,,,
,,,,,,,,,,,,91,PF,40.80001205,67.99999458,1,0,0,response1disk_5,7,4.5976,-8.799988687,-4.000006497,1,0,0,rectangle_8,-72.79998964,29.599994,1,0,0,-1.59998858,-1.600006461,1,0,0,0,1,1,4,1,60fcfc13c59a84fe5ae390d5,61036474107ed3ceabea3202,2021-07-29_22h31.52.101,Simcolourproject_2stim_asymm_v5,2020.2.10,Win32,60,61025ae37ef11b136ea224fe,response7disk_7,1,5.551,1,"[2,5]",rectangle_4,,,,,,,,,,,,,,,,,,,,,,,,,,,,,,,,,,,,,,,,
,,,,,,,,,,,,27,FF,-20.79998887,-44.00000709,1,0,0,response5disk_5,3,3.4356,3.200011492,3.999993622,1,0,0,rectangle_8,3.200011492,3.999993622,1,0,0,3.200011492,3.999993622,1,0,0,0,2,2,5,1,60fcfc13c59a84fe5ae390d5,61036474107ed3ceabea3202,2021-07-29_22h31.52.101,Simcolourproject_2stim_asymm_v5,2020.2.10,Win32,60,61025ae37ef11b136ea224fe,,,,,,,,,,,,,,,,,,,,,,,,,,,,,,,,,,,,,,,,,,,,,,
,,,,,,,,,,,,52,PF,88.80001277,39.99999416,1,0,0,response1disk_5,6,2.9151,0.800011456,6.399993658,1,0,0,rectangle_8,0.800011456,6.399993658,1,0,0,0.800011456,6.399993658,1,0,0,0,3,3,1,1,60fcfc13c59a84fe5ae390d5,61036474107ed3ceabea3202,2021-07-29_22h31.52.101,Simcolourproject_2stim_asymm_v5,2020.2.10,Win32,60,61025ae37ef11b136ea224fe,,,,,,,,,,,,,,,,,,,,,,,,,,,,,,,,,,,,,,,,,,,,,,
,,,,,,,,,,,,153,FF,30.4000119,63.99999452,1,0,0,response1disk_5,7,2.0461,-2.399939764,0.799993575,1,0,0,rectangle_8,-65.59998953,26.39999396,1,0,0,-9.599988699,-2.400006473,1,0,0,0,4,4,3,1,60fcfc13c59a84fe5ae390d5,61036474107ed3ceabea3202,2021-07-29_22h31.52.101,Simcolourproject_2stim_asymm_v5,2020.2.10,Win32,60,61025ae37ef11b136ea224fe,response7disk_7,1,5.8995,1,"[2,5]",rectangle_4,,,,,,,,,,,,,,,,,,,,,,,,,,,,,,,,,,,,,,,,
,,,,,,,,,,,,53,FF,-38.3999403,-84.00000769,1,0,0,response5disk_5,3,2.0826,-1.59998858,-3.200006485,1,0,0,rectangle_8,-1.59998858,-3.200006485,1,0,0,-1.59998858,-3.200006485,1,0,0,0,5,5,0,1,60fcfc13c59a84fe5ae390d5,61036474107ed3ceabea3202,2021-07-29_22h31.52.101,Simcolourproject_2stim_asymm_v5,2020.2.10,Win32,60,61025ae37ef11b136ea224fe,,,,,,,,,,,,,,,,,,,,,,,,,,,,,,,,,,,,,,,,,,,,,,
,,,,,,,,,,,,139,PF,71.20001251,-33.60000694,1,0,0,response3disk_5,5,2.5499,16.80001169,-13.60000664,1,0,0,rectangle_8,16.80001169,-13.60000664,1,0,0,16.80001169,-13.60000664,1,0,0,0,6,6,6,1,60fcfc13c59a84fe5ae390d5,61036474107ed3ceabea3202,2021-07-29_22h31.52.101,Simcolourproject_2stim_asymm_v5,2020.2.10,Win32,60,61025ae37ef11b136ea224fe,,,,,,,,,,,,,,,,,,,,,,,,,,,,,,,,,,,,,,,,,,,,,,
,,,,,,,,,,,,,FF,,,,,,,,5.4326,,,,,,,,,,,,,,,,,,,,,,60fcfc13c59a84fe5ae390d5,61036474107ed3ceabea3202,2021-07-29_22h31.52.101,Simcolourproject_2stim_asymm_v5,2020.2.10,Win32,60,61025ae37ef11b136ea224fe,,,,,,,space,4.107,3008,86.40001273,51.19996991,1,0,0,response1disk,,6,2.40001148,11.19999373,1,0,0,rectangle,2.40001148,11.19999373,1,0,0,2.40001148,11.19999373,1,0,0,0,0,0,68,1,,,,,,,,
,,,,,,,,,,,,,FF,,,,,,,,3.5823,,,,,,,,,,,,,,,,,,,,,,60fcfc13c59a84fe5ae390d5,61036474107ed3ceabea3202,2021-07-29_22h31.52.101,Simcolourproject_2stim_asymm_v5,2020.2.10,Win32,60,61025ae37ef11b136ea224fe,,,,,,,,,2028,-41.59998918,-48.80000716,1,0,0,response5disk,,3,-5.599988639,5.599993646,1,0,0,rectangle,-5.599988639,5.599993646,1,0,0,-5.599988639,5.599993646,1,0,0,0,1,1,53,1,,,,,,,,
,,,,,,,,,,,,,FF,,,,,,,,2.4495,,,,,,,,,,,,,,,,,,,,,,60fcfc13c59a84fe5ae390d5,61036474107ed3ceabea3202,2021-07-29_22h31.52.101,Simcolourproject_2stim_asymm_v5,2020.2.10,Win32,60,61025ae37ef11b136ea224fe,,,,,,,,,3933,75.20001256,-37.600007,1,0,0,response3disk,,5,14.40001166,7.19999367,1,0,0,rectangle,14.40001166,7.19999367,1,0,0,14.40001166,7.19999367,1,0,0,0,2,2,93,1,,,,,,,,
,,,,,,,,,,,,,FF,,,,,,,,3.3327,,,,,,,,,,,,,,,,,,,,,,60fcfc13c59a84fe5ae390d5,61036474107ed3ceabea3202,2021-07-29_22h31.52.101,Simcolourproject_2stim_asymm_v5,2020.2.10,Win32,60,61025ae37ef11b136ea224fe,,,,,,,,,1269,51.20001221,73.59999466,1,0,0,response1disk,,7,12.00001162,7.19999367,1,0,0,rectangle,12.00001162,7.19999367,1,0,0,12.00001162,7.19999367,1,0,0,0,3,3,97,1,,,,,,,,
,,,,,,,,,,,,,FF,,,,,,,,1.933,,,,,,,,,,,,,,,,,,,,,,60fcfc13c59a84fe5ae390d5,61036474107ed3ceabea3202,2021-07-29_22h31.52.101,Simcolourproject_2stim_asymm_v5,2020.2.10,Win32,60,61025ae37ef11b136ea224fe,,,,,,,,,2133,29.60006071,68.79999459,1,0,0,response1disk,,7,-3.199988604,-4.000006497,1,0,0,rectangle,-3.199988604,-4.000006497,1,0,0,-3.199988604,-4.000006497,1,0,0,0,4,4,99,1,,,,,,,,
,,,,,,,,,,,,,FF,,,,,,,,1.5,,,,,,,,,,,,,,,,,,,,,,60fcfc13c59a84fe5ae390d5,61036474107ed3ceabea3202,2021-07-29_22h31.52.101,Simcolourproject_2stim_asymm_v5,2020.2.10,Win32,60,61025ae37ef11b136ea224fe,,,,,,,,,2899,-40.79998916,-58.40000731,1,0,0,response5disk,,3,-7.999988675,10.39999372,1,0,0,rectangle,-7.999988675,10.39999372,1,0,0,-7.999988675,10.39999372,1,0,0,0,5,5,123,1,,,,,,,,
,,,,,,,,,,,,,FF,,,,,,,,1.3641,,,,,,,,,,,,,,,,,,,,,,60fcfc13c59a84fe5ae390d5,61036474107ed3ceabea3202,2021-07-29_22h31.52.101,Simcolourproject_2stim_asymm_v5,2020.2.10,Win32,60,61025ae37ef11b136ea224fe,,,,,,,,,3311,88.00001276,-61.60000736,1,0,0,response3disk,,5,26.40001184,13.59999377,1,0,0,rectangle,26.40001184,13.59999377,1,0,0,26.40001184,13.59999377,1,0,0,0,6,6,19,1,,,,,,,,
,,,,,,,,,,,,,FF,,,,,,,,1.2162,,,,,,,,,,,,,,,,,,,,,,60fcfc13c59a84fe5ae390d5,61036474107ed3ceabea3202,2021-07-29_22h31.52.101,Simcolourproject_2stim_asymm_v5,2020.2.10,Win32,60,61025ae37ef11b136ea224fe,,,,,,,,,1507,19.20001173,-67.20000744,0,0,1,response3disk,,4,-3.999988616,11.19999373,1,0,0,rectangle,-3.999988616,11.19999373,1,0,0,-3.999988616,11.19999373,1,0,0,0,7,7,141,1,,,,,,,,
,,,,,,,,,,,,,FF,,,,,,,,2.0831,,,,,,,,,,,,,,,,,,,,,,60fcfc13c59a84fe5ae390d5,61036474107ed3ceabea3202,2021-07-29_22h31.52.101,Simcolourproject_2stim_asymm_v5,2020.2.10,Win32,60,61025ae37ef11b136ea224fe,,,,,,,,,1818,-71.19998962,-23.20000678,1,0,0,response5disk,,2,-19.19998884,-8.800006568,1,0,0,rectangle,-19.19998884,-8.800006568,1,0,0,-19.19998884,-8.800006568,1,0,0,0,8,8,29,1,,,,,,,,
,,,,,,,,,,,,,FF,,,,,,,,1.4673,,,,,,,,,,,,,,,,,,,,,,60fcfc13c59a84fe5ae390d5,61036474107ed3ceabea3202,2021-07-29_22h31.52.101,Simcolourproject_2stim_asymm_v5,2020.2.10,Win32,60,61025ae37ef11b136ea224fe,,,,,,,,,3368,36.00001198,65.59999454,1,0,0,response1disk,,7,-4.799988627,2.399993598,1,0,0,rectangle,-4.799988627,2.399993598,1,0,0,-4.799988627,2.399993598,1,0,0,0,9,9,60,1,,,,,,,,
,,,,,,,,,,,,,FF,,,,,,,,2.1993,,,,,,,,,,,,,,,,,,,,,,60fcfc13c59a84fe5ae390d5,61036474107ed3ceabea3202,2021-07-29_22h31.52.101,Simcolourproject_2stim_asymm_v5,2020.2.10,Win32,60,61025ae37ef11b136ea224fe,,,,,,,,,2622,-55.19998938,-61.60000736,1,0,0,response5disk,,3,-0.799988568,5.599993646,1,0,0,rectangle,-0.799988568,5.599993646,1,0,0,-0.799988568,5.599993646,1,0,0,0,10,10,106,1,,,,,,,,
,,,,,,,,,,,,,FF,,,,,,,,1.384,,,,,,,,,,,,,,,,,,,,,,60fcfc13c59a84fe5ae390d5,61036474107ed3ceabea3202,2021-07-29_22h31.52.101,Simcolourproject_2stim_asymm_v5,2020.2.10,Win32,60,61025ae37ef11b136ea224fe,,,,,,,,,3767,35.20001197,61.59999448,1,0,0,response1disk,,7,-1.59998858,-4.000006497,1,0,0,rectangle,-1.59998858,-4.000006497,1,0,0,-1.59998858,-4.000006497,1,0,0,0,11,11,95,1,,,,,,,,
,,,,,,,,,,,,,FF,,,,,,,,2.0663,,,,,,,,,,,,,,,,,,,,,,60fcfc13c59a84fe5ae390d5,61036474107ed3ceabea3202,2021-07-29_22h31.52.101,Simcolourproject_2stim_asymm_v5,2020.2.10,Win32,60,61025ae37ef11b136ea224fe,,,,,,,,,2380,28.00001186,-95.20000786,0,0,1,response3disk,,4,24.0000118,1.599993587,1,0,0,rectangle,24.0000118,1.599993587,1,0,0,24.0000118,1.599993587,1,0,0,0,12,12,133,1,,,,,,,,
,,,,,,,,,,,,,FF,,,,,,,,2.3494,,,,,,,,,,,,,,,,,,,,,,60fcfc13c59a84fe5ae390d5,61036474107ed3ceabea3202,2021-07-29_22h31.52.101,Simcolourproject_2stim_asymm_v5,2020.2.10,Win32,60,61025ae37ef11b136ea224fe,,,,,,,,,2717,-34.39994024,-76.00000757,1,0,0,response5disk,,3,7.200011551,10.39999372,1,0,0,rectangle,-83.99998981,42.39999419,1,0,0,-17.59998882,-2.400006473,1,0,0,0,13,13,26,1,,response7disk_3,TRUE,1,1,"[41,56,118,194,69,37,160,301,143,265,172,295,150,175,260,43,268,14,41,167]",3.9837,rectangle
,,,,,,,,,,,,,FF,,,,,,,,3.3987,,,,,,,,,,,,,,,,,,,,,,60fcfc13c59a84fe5ae390d5,61036474107ed3ceabea3202,2021-07-29_22h31.52.101,Simcolourproject_2stim_asymm_v5,2020.2.10,Win32,60,61025ae37ef11b136ea224fe,,,,,,,,,240,71.20001251,27.19996955,1,0,0,response1disk,,6,12.80001163,3.19999361,1,0,0,rectangle,12.80001163,3.19999361,1,0,0,12.80001163,3.19999361,1,0,0,0,14,14,61,1,,,,,,,,
,,,,,,,,,,,,,FF,,,,,,,,1.7155,,,,,,,,,,,,,,,,,,,,,,60fcfc13c59a84fe5ae390d5,61036474107ed3ceabea3202,2021-07-29_22h31.52.101,Simcolourproject_2stim_asymm_v5,2020.2.10,Win32,60,61025ae37ef11b136ea224fe,,,,,,,,,2780,-67.19998956,-42.40000707,1,0,0,response5disk,,2,-13.59998876,-4.000006497,1,0,0,rectangle,-13.59998876,-4.000006497,1,0,0,-13.59998876,-4.000006497,1,0,0,0,15,15,44,1,,,,,,,,
,,,,,,,,,,,,,FF,,,,,,,,1.8004,,,,,,,,,,,,,,,,,,,,,,60fcfc13c59a84fe5ae390d5,61036474107ed3ceabea3202,2021-07-29_22h31.52.101,Simcolourproject_2stim_asymm_v5,2020.2.10,Win32,60,61025ae37ef11b136ea224fe,,,,,,,,,873,-51.99998933,-65.60000741,1,0,0,response5disk,,3,-6.399939823,4.799993634,1,0,0,rectangle,-6.399939823,4.799993634,1,0,0,-6.399939823,4.799993634,1,0,0,0,16,16,76,1,,,,,,,,
,,,,,,,,,,,,,FF,,,,,,,,0.9487,,,,,,,,,,,,,,,,,,,,,,60fcfc13c59a84fe5ae390d5,61036474107ed3ceabea3202,2021-07-29_22h31.52.101,Simcolourproject_2stim_asymm_v5,2020.2.10,Win32,60,61025ae37ef11b136ea224fe,,,,,,,,,1894,-61.59998947,-46.40000713,1,0,0,response5disk,,2,-23.99998891,-8.000006557,1,0,0,rectangle,-23.99998891,-8.000006557,1,0,0,-23.99998891,-8.000006557,1,0,0,0,17,17,82,1,,,,,,,,
,,,,,,,,,,,,,FF,,,,,,,,2.3992,,,,,,,,,,,,,,,,,,,,,,60fcfc13c59a84fe5ae390d5,61036474107ed3ceabea3202,2021-07-29_22h31.52.101,Simcolourproject_2stim_asymm_v5,2020.2.10,Win32,60,61025ae37ef11b136ea224fe,,,,,,,,,400,59.20001233,81.59999478,1,0,0,response1disk,,7,2.40001148,0.799993575,1,0,0,rectangle,2.40001148,0.799993575,1,0,0,2.40001148,0.799993575,1,0,0,0,18,18,41,1,,,,,,,,
,,,,,,,,,,,,,FF,,,,,,,,3.183,,,,,,,,,,,,,,,,,,,,,,60fcfc13c59a84fe5ae390d5,61036474107ed3ceabea3202,2021-07-29_22h31.52.101,Simcolourproject_2stim_asymm_v5,2020.2.10,Win32,60,61025ae37ef11b136ea224fe,,,,,,,,,556,91.2000128,32.79999405,1,0,0,response1disk,,6,-8.799988687,-6.400006533,1,0,0,rectangle,-8.799988687,-6.400006533,1,0,0,-8.799988687,-6.400006533,1,0,0,0,19,19,33,1,,,,,,,,
,,,,,,,,,,,,,FF,,,,,,,,2.1167,,,,,,,,,,,,,,,,,,,,,,60fcfc13c59a84fe5ae390d5,61036474107ed3ceabea3202,2021-07-29_22h31.52.101,Simcolourproject_2stim_asymm_v5,2020.2.10,Win32,60,61025ae37ef11b136ea224fe,,,,,,,,,4249,69.60001248,-23.20000678,1,0,0,response3disk,,5,1.14441E-05,0.799993575,1,0,0,rectangle,1.14441E-05,0.799993575,1,0,0,1.14441E-05,0.799993575,1,0,0,0,20,20,103,1,,,,,,,,
,,,,,,,,,,,,,FF,,,,,,,,1.4162,,,,,,,,,,,,,,,,,,,,,,60fcfc13c59a84fe5ae390d5,61036474107ed3ceabea3202,2021-07-29_22h31.52.101,Simcolourproject_2stim_asymm_v5,2020.2.10,Win32,60,61025ae37ef11b136ea224fe,,,,,,,,,2140,40.80001205,79.19997033,1,0,0,response1disk,,7,7.200011551,-3.200006485,1,0,0,rectangle,7.200011551,-3.200006485,1,0,0,7.200011551,-3.200006485,1,0,0,0,21,21,147,1,,,,,,,,
,,,,,,,,,,,,,FF,,,,,,,,1.4832,,,,,,,,,,,,,,,,,,,,,,60fcfc13c59a84fe5ae390d5,61036474107ed3ceabea3202,2021-07-29_22h31.52.101,Simcolourproject_2stim_asymm_v5,2020.2.10,Win32,60,61025ae37ef11b136ea224fe,,,,,,,,,1260,-39.19998914,-83.20000768,1,0,0,response5disk,,3,-2.399939764,-8.800006568,1,0,0,rectangle,-2.399939764,-8.800006568,1,0,0,-2.399939764,-8.800006568,1,0,0,0,22,22,157,1,,,,,,,,
,,,,,,,,,,,,,FF,,,,,,,,1.6495,,,,,,,,,,,,,,,,,,,,,,60fcfc13c59a84fe5ae390d5,61036474107ed3ceabea3202,2021-07-29_22h31.52.101,Simcolourproject_2stim_asymm_v5,2020.2.10,Win32,60,61025ae37ef11b136ea224fe,,,,,,,,,1405,73.60001254,-48.00000715,1,0,0,response3disk,,5,14.40001166,-4.000006497,1,0,0,rectangle,14.40001166,-4.000006497,1,0,0,14.40001166,-4.000006497,1,0,0,0,23,23,4,1,,,,,,,,
,,,,,,,,,,,,,FF,,,,,,,,14.3635,,,,,,,,,,,,,,,,,,,,,,60fcfc13c59a84fe5ae390d5,61036474107ed3ceabea3202,2021-07-29_22h31.52.101,Simcolourproject_2stim_asymm_v5,2020.2.10,Win32,60,61025ae37ef11b136ea224fe,,,,,,,,,1158,74.40001255,-46.40000713,1,0,0,response3disk,,5,3.200011492,-10.40000659,1,0,0,rectangle,3.200011492,-10.40000659,1,0,0,3.200011492,-10.40000659,1,0,0,0,24,24,31,1,,,,,,,,
,,,,,,,,,,,,,FF,,,,,,,,1.4502,,,,,,,,,,,,,,,,,,,,,,60fcfc13c59a84fe5ae390d5,61036474107ed3ceabea3202,2021-07-29_22h31.52.101,Simcolourproject_2stim_asymm_v5,2020.2.10,Win32,60,61025ae37ef11b136ea224fe,,,,,,,,,3774,-35.99998909,-55.20000726,1,0,0,response5disk,,3,-5.599988639,6.399993658,1,0,0,rectangle,-5.599988639,6.399993658,1,0,0,-5.599988639,6.399993658,1,0,0,0,25,25,3,1,,,,,,,,
,,,,,,,,,,,,,FF,,,,,,,,1.1501,,,,,,,,,,,,,,,,,,,,,,60fcfc13c59a84fe5ae390d5,61036474107ed3ceabea3202,2021-07-29_22h31.52.101,Simcolourproject_2stim_asymm_v5,2020.2.10,Win32,60,61025ae37ef11b136ea224fe,,,,,,,,,3889,40.80001205,75.19997027,1,0,0,response1disk,,7,8.800011575,-1.600006461,1,0,0,rectangle,8.800011575,-1.600006461,1,0,0,8.800011575,-1.600006461,1,0,0,0,26,26,85,1,,,,,,,,
,,,,,,,,,,,,,FF,,,,,,,,1.2,,,,,,,,,,,,,,,,,,,,,,60fcfc13c59a84fe5ae390d5,61036474107ed3ceabea3202,2021-07-29_22h31.52.101,Simcolourproject_2stim_asymm_v5,2020.2.10,Win32,60,61025ae37ef11b136ea224fe,,,,,,,,,2901,-47.99998927,-38.40000701,1,0,0,response5disk,,2,-7.199988663,-1.600006461,1,0,0,rectangle,-7.199988663,-1.600006461,1,0,0,-7.199988663,-1.600006461,1,0,0,0,27,27,75,1,,,,,,,,
,,,,,,,,,,,,,FF,,,,,,,,1.7333,,,,,,,,,,,,,,,,,,,,,,60fcfc13c59a84fe5ae390d5,61036474107ed3ceabea3202,2021-07-29_22h31.52.101,Simcolourproject_2stim_asymm_v5,2020.2.10,Win32,60,61025ae37ef11b136ea224fe,,,,,,,,,3806,97.6000129,19.19999385,1,0,0,response1disk,,6,8.000011563,-4.800006509,1,0,0,rectangle,8.000011563,-4.800006509,1,0,0,8.000011563,-4.800006509,1,0,0,0,28,28,110,1,,,,,,,,
,,,,,,,,,,,,,FF,,,,,,,,1.6013,,,,,,,,,,,,,,,,,,,,,,60fcfc13c59a84fe5ae390d5,61036474107ed3ceabea3202,2021-07-29_22h31.52.101,Simcolourproject_2stim_asymm_v5,2020.2.10,Win32,60,61025ae37ef11b136ea224fe,,,,,,,,,2217,85.60001272,28.79999399,1,0,0,response1disk,,6,8.000011563,-0.800006449,1,0,0,rectangle,8.000011563,-0.800006449,1,0,0,8.000011563,-0.800006449,1,0,0,0,29,29,146,1,,,,,,,,
,,,,,,,,,,,,,FF,,,,,,,,1.2822,,,,,,,,,,,,,,,,,,,,,,60fcfc13c59a84fe5ae390d5,61036474107ed3ceabea3202,2021-07-29_22h31.52.101,Simcolourproject_2stim_asymm_v5,2020.2.10,Win32,60,61025ae37ef11b136ea224fe,,,,,,,,,3310,35.20001197,80.79999477,1,0,0,response1disk,,7,4.800011516,6.399993658,1,0,0,rectangle,4.800011516,6.399993658,1,0,0,4.800011516,6.399993658,1,0,0,0,30,30,121,1,,,,,,,,
,,,,,,,,,,,,,FF,,,,,,,,1.3295,,,,,,,,,,,,,,,,,,,,,,60fcfc13c59a84fe5ae390d5,61036474107ed3ceabea3202,2021-07-29_22h31.52.101,Simcolourproject_2stim_asymm_v5,2020.2.10,Win32,60,61025ae37ef11b136ea224fe,,,,,,,,,2977,46.40001214,89.5999949,1,0,0,response1disk,,7,6.400011539,3.19999361,1,0,0,rectangle,6.400011539,3.19999361,1,0,0,6.400011539,3.19999361,1,0,0,0,31,31,35,1,,,,,,,,
,,,,,,,,,,,,,FF,,,,,,,,2.7992,,,,,,,,,,,,,,,,,,,,,,60fcfc13c59a84fe5ae390d5,61036474107ed3ceabea3202,2021-07-29_22h31.52.101,Simcolourproject_2stim_asymm_v5,2020.2.10,Win32,60,61025ae37ef11b136ea224fe,,,,,,,,,3576,-19.99998885,-62.40000737,1,0,0,response5disk,,3,-5.599988639,-8.800006568,1,0,0,rectangle,-5.599988639,-8.800006568,1,0,0,-5.599988639,-8.800006568,1,0,0,0,32,32,20,1,,,,,,,,
,,,,,,,,,,,,,FF,,,,,,,,1.1666,,,,,,,,,,,,,,,,,,,,,,60fcfc13c59a84fe5ae390d5,61036474107ed3ceabea3202,2021-07-29_22h31.52.101,Simcolourproject_2stim_asymm_v5,2020.2.10,Win32,60,61025ae37ef11b136ea224fe,,,,,,,,,1635,35.20001197,35.9999941,1,0,0,response1disk,,7,8.800011575,-12.80000663,1,0,0,rectangle,8.800011575,-12.80000663,1,0,0,8.800011575,-12.80000663,1,0,0,0,33,33,132,1,,,,,,,,
,,,,,,,,,,,,,FF,,,,,,,,1.3164,,,,,,,,,,,,,,,,,,,,,,60fcfc13c59a84fe5ae390d5,61036474107ed3ceabea3202,2021-07-29_22h31.52.101,Simcolourproject_2stim_asymm_v5,2020.2.10,Win32,60,61025ae37ef11b136ea224fe,,,,,,,,,2320,28.00001186,40.79999417,1,0,0,response1disk,,7,7.200011551,-3.200006485,1,0,0,rectangle,7.200011551,-3.200006485,1,0,0,7.200011551,-3.200006485,1,0,0,0,34,34,131,1,,,,,,,,
,,,,,,,,,,,,,FF,,,,,,,,1.5338,,,,,,,,,,,,,,,,,,,,,,60fcfc13c59a84fe5ae390d5,61036474107ed3ceabea3202,2021-07-29_22h31.52.101,Simcolourproject_2stim_asymm_v5,2020.2.10,Win32,60,61025ae37ef11b136ea224fe,,,,,,,,,759,65.60001242,-45.60000712,1,0,0,response3disk,,5,-10.39993988,3.19999361,1,0,0,rectangle,-10.39993988,3.19999361,1,0,0,-10.39993988,3.19999361,1,0,0,0,35,35,100,1,,,,,,,,
,,,,,,,,,,,,,FF,,,,,,,,3.7001,,,,,,,,,,,,,,,,,,,,,,60fcfc13c59a84fe5ae390d5,61036474107ed3ceabea3202,2021-07-29_22h31.52.101,Simcolourproject_2stim_asymm_v5,2020.2.10,Win32,60,61025ae37ef11b136ea224fe,,,,,,,,,2414,-31.99998903,-81.60005648,1,0,0,response5disk,,3,16.00001168,-0.800006449,1,0,0,rectangle,-76.7999897,-28.80000687,1,0,0,-2.399939764,7.999993682,1,0,0,0,36,36,52,1,,response5disk_3,TRUE,2,2,"[41,56,118,194,69,37,160,301,143,265,172,295,150,175,260,43,268,14,41,167]",3.5321,rectangle
,,,,,,,,,,,,,FF,,,,,,,,2.9286,,,,,,,,,,,,,,,,,,,,,,60fcfc13c59a84fe5ae390d5,61036474107ed3ceabea3202,2021-07-29_22h31.52.101,Simcolourproject_2stim_asymm_v5,2020.2.10,Win32,60,61025ae37ef11b136ea224fe,,,,,,,,,2406,78.40001261,34.39999408,1,0,0,response1disk,,6,1.600060296,10.39999372,1,0,0,rectangle,1.600060296,10.39999372,1,0,0,1.600060296,10.39999372,1,0,0,0,37,37,32,1,,,,,,,,
,,,,,,,,,,,,,FF,,,,,,,,1.6677,,,,,,,,,,,,,,,,,,,,,,60fcfc13c59a84fe5ae390d5,61036474107ed3ceabea3202,2021-07-29_22h31.52.101,Simcolourproject_2stim_asymm_v5,2020.2.10,Win32,60,61025ae37ef11b136ea224fe,,,,,,,,,791,-22.39994006,-58.40000731,1,0,0,response5disk,,3,-3.199988604,-3.200006485,1,0,0,rectangle,-3.199988604,-3.200006485,1,0,0,-3.199988604,-3.200006485,1,0,0,0,38,38,10,1,,,,,,,,
,,,,,,,,,,,,,FF,,,,,,,,1.3832,,,,,,,,,,,,,,,,,,,,,,60fcfc13c59a84fe5ae390d5,61036474107ed3ceabea3202,2021-07-29_22h31.52.101,Simcolourproject_2stim_asymm_v5,2020.2.10,Win32,60,61025ae37ef11b136ea224fe,,,,,,,,,2148,57.6000123,40.79999417,1,0,0,response1disk,,6,-7.999988675,-12.00000662,1,0,0,rectangle,-7.999988675,-12.00000662,1,0,0,-7.999988675,-12.00000662,1,0,0,0,39,39,80,1,,,,,,,,
,,,,,,,,,,,,,FF,,,,,,,,1.2997,,,,,,,,,,,,,,,,,,,,,,60fcfc13c59a84fe5ae390d5,61036474107ed3ceabea3202,2021-07-29_22h31.52.101,Simcolourproject_2stim_asymm_v5,2020.2.10,Win32,60,61025ae37ef11b136ea224fe,,,,,,,,,3255,36.00001198,-48.00000715,1,0,0,response3disk,,4,14.40001166,-8.000006557,1,0,0,rectangle,-35.99998909,-83.20000768,1,0,0,7.200011551,0.799993575,1,0,0,0,40,40,21,1,,response5disk_3,TRUE,3,3,"[41,56,118,194,69,37,160,301,143,265,172,295,150,175,260,43,268,14,41,167]",2.4819,rectangle
,,,,,,,,,,,,,FF,,,,,,,,1.3361,,,,,,,,,,,,,,,,,,,,,,60fcfc13c59a84fe5ae390d5,61036474107ed3ceabea3202,2021-07-29_22h31.52.101,Simcolourproject_2stim_asymm_v5,2020.2.10,Win32,60,61025ae37ef11b136ea224fe,,,,,,,,,2522,57.6000123,55.9999944,1,0,0,response1disk,,6,-5.599988639,-8.000006557,1,0,0,rectangle,-5.599988639,-8.000006557,1,0,0,-5.599988639,-8.000006557,1,0,0,0,41,41,24,1,,,,,,,,
,,,,,,,,,,,,,FF,,,,,,,,2.1834,,,,,,,,,,,,,,,,,,,,,,60fcfc13c59a84fe5ae390d5,61036474107ed3ceabea3202,2021-07-29_22h31.52.101,Simcolourproject_2stim_asymm_v5,2020.2.10,Win32,60,61025ae37ef11b136ea224fe,,,,,,,,,2034,-71.99998963,-40.80000705,1,0,0,response5disk,,2,-15.99998879,1.599993587,1,0,0,rectangle,-59.99998945,20.79999387,1,0,0,5.600060356,2.399993598,1,0,0,0,42,42,49,1,,response7disk_3,TRUE,1,1,"[41,56,118,194,69,37,160,301,143,265,172,295,150,175,260,43,268,14,41,167]",3.2834,rectangle
,,,,,,,,,,,,,FF,,,,,,,,2.8993,,,,,,,,,,,,,,,,,,,,,,60fcfc13c59a84fe5ae390d5,61036474107ed3ceabea3202,2021-07-29_22h31.52.101,Simcolourproject_2stim_asymm_v5,2020.2.10,Win32,60,61025ae37ef11b136ea224fe,,,,,,,,,2548,-63.99998951,-24.80000681,1,0,0,response5disk,,2,6.400011539,-4.000006497,1,0,0,rectangle,6.400011539,-4.000006497,1,0,0,6.400011539,-4.000006497,1,0,0,0,43,43,62,1,,,,,,,,
,,,,,,,,,,,,,FF,,,,,,,,1.4364,,,,,,,,,,,,,,,,,,,,,,60fcfc13c59a84fe5ae390d5,61036474107ed3ceabea3202,2021-07-29_22h31.52.101,Simcolourproject_2stim_asymm_v5,2020.2.10,Win32,60,61025ae37ef11b136ea224fe,,,,,,,,,480,63.20001239,-32.00000691,1,0,0,response3disk,,5,-12.79998875,9.599993706,1,0,0,rectangle,-12.79998875,9.599993706,1,0,0,-12.79998875,9.599993706,1,0,0,0,44,44,14,1,,,,,,,,
,,,,,,,,,,,,,FF,,,,,,,,1.5829,,,,,,,,,,,,,,,,,,,,,,60fcfc13c59a84fe5ae390d5,61036474107ed3ceabea3202,2021-07-29_22h31.52.101,Simcolourproject_2stim_asymm_v5,2020.2.10,Win32,60,61025ae37ef11b136ea224fe,,,,,,,,,3228,56.00001228,95.19997057,1,0,0,response1disk,,7,-10.39993988,-4.000006497,1,0,0,rectangle,-10.39993988,-4.000006497,1,0,0,-10.39993988,-4.000006497,1,0,0,0,45,45,120,1,,,,,,,,
,,,,,,,,,,,,,FF,,,,,,,,1.4664,,,,,,,,,,,,,,,,,,,,,,60fcfc13c59a84fe5ae390d5,61036474107ed3ceabea3202,2021-07-29_22h31.52.101,Simcolourproject_2stim_asymm_v5,2020.2.10,Win32,60,61025ae37ef11b136ea224fe,,,,,,,,,3273,56.00001228,74.39999467,1,0,0,response1disk,,7,-7.999988675,-3.200006485,1,0,0,rectangle,-7.999988675,-3.200006485,1,0,0,-7.999988675,-3.200006485,1,0,0,0,46,46,109,1,,,,,,,,
,,,,,,,,,,,,,FF,,,,,,,,1.2964,,,,,,,,,,,,,,,,,,,,,,60fcfc13c59a84fe5ae390d5,61036474107ed3ceabea3202,2021-07-29_22h31.52.101,Simcolourproject_2stim_asymm_v5,2020.2.10,Win32,60,61025ae37ef11b136ea224fe,,,,,,,,,2268,-29.599989,-60.80000734,1,0,0,response5disk,,3,-17.59998882,3.19999361,1,0,0,rectangle,-17.59998882,3.19999361,1,0,0,-17.59998882,3.19999361,1,0,0,0,47,47,16,1,,,,,,,,
,,,,,,,,,,,,,FF,,,,,,,,3.416,,,,,,,,,,,,,,,,,,,,,,60fcfc13c59a84fe5ae390d5,61036474107ed3ceabea3202,2021-07-29_22h31.52.101,Simcolourproject_2stim_asymm_v5,2020.2.10,Win32,60,61025ae37ef11b136ea224fe,,,,,,,,,696,58.40001231,-66.40000743,1,0,0,response3disk,,4,11.20001161,-6.400006533,1,0,0,rectangle,11.20001161,-6.400006533,1,0,0,11.20001161,-6.400006533,1,0,0,0,48,48,15,1,,,,,,,,
,,,,,,,,,,,,,FF,,,,,,,,3.4828,,,,,,,,,,,,,,,,,,,,,,60fcfc13c59a84fe5ae390d5,61036474107ed3ceabea3202,2021-07-29_22h31.52.101,Simcolourproject_2stim_asymm_v5,2020.2.10,Win32,60,61025ae37ef11b136ea224fe,,,,,,,,,110,76.00001258,-52.00000721,1,0,0,response3disk,,5,13.60006047,-10.40000659,1,0,0,rectangle,13.60006047,-10.40000659,1,0,0,13.60006047,-10.40000659,1,0,0,0,49,49,30,1,,,,,,,,
,,,,,,,,,,,,,FF,,,,,,,,2.4009,,,,,,,,,,,,,,,,,,,,,,60fcfc13c59a84fe5ae390d5,61036474107ed3ceabea3202,2021-07-29_22h31.52.101,Simcolourproject_2stim_asymm_v5,2020.2.10,Win32,60,61025ae37ef11b136ea224fe,,,,,,,,,3746,-67.19998956,28.79999399,1,0,0,response7disk,,1,5.600060356,-3.200006485,1,0,0,rectangle,5.600060356,-3.200006485,1,0,0,5.600060356,-3.200006485,1,0,0,0,50,50,143,1,,,,,,,,
,,,,,,,,,,,,,FF,,,,,,,,1.3665,,,,,,,,,,,,,,,,,,,,,,60fcfc13c59a84fe5ae390d5,61036474107ed3ceabea3202,2021-07-29_22h31.52.101,Simcolourproject_2stim_asymm_v5,2020.2.10,Win32,60,61025ae37ef11b136ea224fe,,,,,,,,,577,77.6000126,27.99999398,1,0,0,response1disk,,6,-0.799988568,-1.600006461,1,0,0,rectangle,-0.799988568,-1.600006461,1,0,0,-0.799988568,-1.600006461,1,0,0,0,51,51,18,1,,,,,,,,
,,,,,,,,,,,,,FF,,,,,,,,1.766,,,,,,,,,,,,,,,,,,,,,,60fcfc13c59a84fe5ae390d5,61036474107ed3ceabea3202,2021-07-29_22h31.52.101,Simcolourproject_2stim_asymm_v5,2020.2.10,Win32,60,61025ae37ef11b136ea224fe,,,,,,,,,1323,37.60006083,-70.40000749,1,0,0,response3disk,,4,7.200011551,-4.800006509,1,0,0,rectangle,7.200011551,-4.800006509,1,0,0,7.200011551,-4.800006509,1,0,0,0,52,52,63,1,,,,,,,,
,,,,,,,,,,,,,FF,,,,,,,,2.8994,,,,,,,,,,,,,,,,,,,,,,60fcfc13c59a84fe5ae390d5,61036474107ed3ceabea3202,2021-07-29_22h31.52.101,Simcolourproject_2stim_asymm_v5,2020.2.10,Win32,60,61025ae37ef11b136ea224fe,,,,,,,,,2311,92.00001281,35.9999941,1,0,0,response1disk,,6,4.800011516,-1.600006461,1,0,0,rectangle,4.800011516,-1.600006461,1,0,0,4.800011516,-1.600006461,1,0,0,0,53,53,64,1,,,,,,,,
,,,,,,,,,,,,,FF,,,,,,,,1.3165,,,,,,,,,,,,,,,,,,,,,,60fcfc13c59a84fe5ae390d5,61036474107ed3ceabea3202,2021-07-29_22h31.52.101,Simcolourproject_2stim_asymm_v5,2020.2.10,Win32,60,61025ae37ef11b136ea224fe,,,,,,,,,3085,31.20001191,59.19997003,1,0,0,response1disk,,7,-3.199988604,0.799993575,1,0,0,rectangle,-3.199988604,0.799993575,1,0,0,-3.199988604,0.799993575,1,0,0,0,54,54,55,1,,,,,,,,
,,,,,,,,,,,,,FF,,,,,,,,1.7155,,,,,,,,,,,,,,,,,,,,,,60fcfc13c59a84fe5ae390d5,61036474107ed3ceabea3202,2021-07-29_22h31.52.101,Simcolourproject_2stim_asymm_v5,2020.2.10,Win32,60,61025ae37ef11b136ea224fe,,,,,,,,,2433,-39.19998914,-72.80000752,1,0,0,response5disk,,3,-18.39994,3.999993622,1,0,0,rectangle,80.80001265,31.19996961,1,0,0,-2.399939764,-5.600006521,1,0,0,0,55,55,45,1,,response1disk_3,TRUE,6,6,"[41,56,118,194,69,37,160,301,143,265,172,295,150,175,260,43,268,14,41,167]",12.4657,rectangle
,,,,,,,,,,,,,FF,,,,,,,,1.3661,,,,,,,,,,,,,,,,,,,,,,60fcfc13c59a84fe5ae390d5,61036474107ed3ceabea3202,2021-07-29_22h31.52.101,Simcolourproject_2stim_asymm_v5,2020.2.10,Win32,60,61025ae37ef11b136ea224fe,,,,,,,,,351,-85.59998983,-28.00000685,1,0,0,response5disk,,2,5.600060356,6.399993658,1,0,0,rectangle,5.600060356,6.399993658,1,0,0,5.600060356,6.399993658,1,0,0,0,56,56,65,1,,,,,,,,
,,,,,,,,,,,,,FF,,,,,,,,2.1822,,,,,,,,,,,,,,,,,,,,,,60fcfc13c59a84fe5ae390d5,61036474107ed3ceabea3202,2021-07-29_22h31.52.101,Simcolourproject_2stim_asymm_v5,2020.2.10,Win32,60,61025ae37ef11b136ea224fe,,,,,,,,,4254,-94.39994113,-60.00000733,1,0,0,response5disk,,2,1.14441E-05,-4.800006509,1,0,0,rectangle,1.14441E-05,-4.800006509,1,0,0,1.14441E-05,-4.800006509,1,0,0,0,57,57,134,1,,,,,,,,
,,,,,,,,,,,,,FF,,,,,,,,1.7166,,,,,,,,,,,,,,,,,,,,,,60fcfc13c59a84fe5ae390d5,61036474107ed3ceabea3202,2021-07-29_22h31.52.101,Simcolourproject_2stim_asymm_v5,2020.2.10,Win32,60,61025ae37ef11b136ea224fe,,,,,,,,,3598,-82.39994096,20.79999387,1,0,0,response7disk,,1,-22.39994006,-3.200006485,1,0,0,rectangle,-22.39994006,-3.200006485,1,0,0,-22.39994006,-3.200006485,1,0,0,0,58,58,79,1,,,,,,,,
,,,,,,,,,,,,,FF,,,,,,,,1.1497,,,,,,,,,,,,,,,,,,,,,,60fcfc13c59a84fe5ae390d5,61036474107ed3ceabea3202,2021-07-29_22h31.52.101,Simcolourproject_2stim_asymm_v5,2020.2.10,Win32,60,61025ae37ef11b136ea224fe,,,,,,,,,2568,81.60001266,41.59999418,1,0,0,response1disk,,6,-23.1999889,-7.200006545,1,0,0,rectangle,-23.1999889,-7.200006545,1,0,0,-23.1999889,-7.200006545,1,0,0,0,59,59,152,1,,,,,,,,
,,,,,,,,,,,,,FF,,,,,,,,1.4847,,,,,,,,,,,,,,,,,,,,,,60fcfc13c59a84fe5ae390d5,61036474107ed3ceabea3202,2021-07-29_22h31.52.101,Simcolourproject_2stim_asymm_v5,2020.2.10,Win32,60,61025ae37ef11b136ea224fe,,,,,,,,,3301,66.40001243,-77.60000759,1,0,0,response3disk,,4,9.600060415,2.399993598,1,0,0,rectangle,9.600060415,2.399993598,1,0,0,9.600060415,2.399993598,1,0,0,0,60,60,70,1,,,,,,,,
,,,,,,,,,,,,,FF,,,,,,,,1.7328,,,,,,,,,,,,,,,,,,,,,,60fcfc13c59a84fe5ae390d5,61036474107ed3ceabea3202,2021-07-29_22h31.52.101,Simcolourproject_2stim_asymm_v5,2020.2.10,Win32,60,61025ae37ef11b136ea224fe,,,,,,,,,3525,-82.39994096,-17.6000067,1,0,0,response5disk,,2,-2.399939764,-4.000006497,1,0,0,rectangle,-2.399939764,-4.000006497,1,0,0,-2.399939764,-4.000006497,1,0,0,0,61,61,77,1,,,,,,,,
,,,,,,,,,,,,,FF,,,,,,,,10.9645,,,,,,,,,,,,,,,,,,,,,,60fcfc13c59a84fe5ae390d5,61036474107ed3ceabea3202,2021-07-29_22h31.52.101,Simcolourproject_2stim_asymm_v5,2020.2.10,Win32,60,61025ae37ef11b136ea224fe,,,,,,,,,4042,89.60001278,-32.00000691,1,0,0,response3disk,,5,17.60006053,2.399993598,1,0,0,rectangle,17.60006053,2.399993598,1,0,0,17.60006053,2.399993598,1,0,0,0,62,62,155,1,,,,,,,,
,,,,,,,,,,,,,FF,,,,,,,,1.7828,,,,,,,,,,,,,,,,,,,,,,60fcfc13c59a84fe5ae390d5,61036474107ed3ceabea3202,2021-07-29_22h31.52.101,Simcolourproject_2stim_asymm_v5,2020.2.10,Win32,60,61025ae37ef11b136ea224fe,,,,,,,,,331,75.20001256,55.9999944,1,0,0,response1disk,,6,8.000011563,-6.400006533,1,0,0,rectangle,8.000011563,-6.400006533,1,0,0,8.000011563,-6.400006533,1,0,0,0,63,63,91,1,,,,,,,,
,,,,,,,,,,,,,FF,,,,,,,,1.8327,,,,,,,,,,,,,,,,,,,,,,60fcfc13c59a84fe5ae390d5,61036474107ed3ceabea3202,2021-07-29_22h31.52.101,Simcolourproject_2stim_asymm_v5,2020.2.10,Win32,60,61025ae37ef11b136ea224fe,,,,,,,,,3539,44.0000121,57.59999442,1,0,0,response1disk,,7,15.20001167,2.399993598,1,0,0,rectangle,15.20001167,2.399993598,1,0,0,15.20001167,2.399993598,1,0,0,0,64,64,137,1,,,,,,,,
,,,,,,,,,,,,,FF,,,,,,,,1.2334,,,,,,,,,,,,,,,,,,,,,,60fcfc13c59a84fe5ae390d5,61036474107ed3ceabea3202,2021-07-29_22h31.52.101,Simcolourproject_2stim_asymm_v5,2020.2.10,Win32,60,61025ae37ef11b136ea224fe,,,,,,,,,3661,-55.19998938,-30.40000689,1,0,0,response5disk,,2,-3.199988604,9.599993706,1,0,0,rectangle,-3.199988604,9.599993706,1,0,0,-3.199988604,9.599993706,1,0,0,0,65,65,51,1,,,,,,,,
,,,,,,,,,,,,,FF,,,,,,,,1.5332,,,,,,,,,,,,,,,,,,,,,,60fcfc13c59a84fe5ae390d5,61036474107ed3ceabea3202,2021-07-29_22h31.52.101,Simcolourproject_2stim_asymm_v5,2020.2.10,Win32,60,61025ae37ef11b136ea224fe,,,,,,,,,2077,46.40001214,-84.00000769,1,0,0,response3disk,,4,8.800011575,3.19999361,1,0,0,rectangle,8.800011575,3.19999361,1,0,0,8.800011575,3.19999361,1,0,0,0,66,66,22,1,,,,,,,,
,,,,,,,,,,,,,FF,,,,,,,,2.8498,,,,,,,,,,,,,,,,,,,,,,60fcfc13c59a84fe5ae390d5,61036474107ed3ceabea3202,2021-07-29_22h31.52.101,Simcolourproject_2stim_asymm_v5,2020.2.10,Win32,60,61025ae37ef11b136ea224fe,,,,,,,,,107,-62.39994066,-36.00000697,1,0,0,response5disk,,2,-1.59998858,5.599993646,1,0,0,rectangle,-1.59998858,5.599993646,1,0,0,-1.59998858,5.599993646,1,0,0,0,67,67,13,1,,,,,,,,
,,,,,,,,,,,,,FF,,,,,,,,1.9994,,,,,,,,,,,,,,,,,,,,,,60fcfc13c59a84fe5ae390d5,61036474107ed3ceabea3202,2021-07-29_22h31.52.101,Simcolourproject_2stim_asymm_v5,2020.2.10,Win32,60,61025ae37ef11b136ea224fe,,,,,,,,,49,77.6000126,-44.00000709,1,0,0,response3disk,,5,4.000011504,3.999993622,1,0,0,rectangle,-71.99998963,-52.00000721,1,0,0,18.40001172,8.799993694,1,0,0,0,68,68,108,1,,response5disk_3,TRUE,2,2,"[41,56,118,194,69,37,160,301,143,265,172,295,150,175,260,43,268,14,41,167]",2.5154,rectangle
,,,,,,,,,,,,,FF,,,,,,,,4.7655,,,,,,,,,,,,,,,,,,,,,,60fcfc13c59a84fe5ae390d5,61036474107ed3ceabea3202,2021-07-29_22h31.52.101,Simcolourproject_2stim_asymm_v5,2020.2.10,Win32,60,61025ae37ef11b136ea224fe,,,,,,,,,314,29.60006071,-81.60005648,1,0,0,response3disk,,4,12.80001163,7.999993682,1,0,0,rectangle,12.80001163,7.999993682,1,0,0,12.80001163,7.999993682,1,0,0,0,69,69,59,1,,,,,,,,
,,,,,,,,,,,,,FF,,,,,,,,1.5999,,,,,,,,,,,,,,,,,,,,,,60fcfc13c59a84fe5ae390d5,61036474107ed3ceabea3202,2021-07-29_22h31.52.101,Simcolourproject_2stim_asymm_v5,2020.2.10,Win32,60,61025ae37ef11b136ea224fe,,,,,,,,,1036,-77.59998971,-29.60000688,1,0,0,response5disk,,2,-0.799988568,-0.800006449,1,0,0,rectangle,-0.799988568,-0.800006449,1,0,0,-0.799988568,-0.800006449,1,0,0,0,70,70,47,1,,,,,,,,
,,,,,,,,,,,,,FF,,,,,,,,1.6833,,,,,,,,,,,,,,,,,,,,,,60fcfc13c59a84fe5ae390d5,61036474107ed3ceabea3202,2021-07-29_22h31.52.101,Simcolourproject_2stim_asymm_v5,2020.2.10,Win32,60,61025ae37ef11b136ea224fe,,,,,,,,,1312,-74.39994084,-28.80000687,1,0,0,response5disk,,2,1.600060296,-15.20000666,1,0,0,rectangle,1.600060296,-15.20000666,1,0,0,1.600060296,-15.20000666,1,0,0,0,71,71,129,1,,,,,,,,
,,,,,,,,,,,,,FF,,,,,,,,1.9497,,,,,,,,,,,,,,,,,,,,,,60fcfc13c59a84fe5ae390d5,61036474107ed3ceabea3202,2021-07-29_22h31.52.101,Simcolourproject_2stim_asymm_v5,2020.2.10,Win32,60,61025ae37ef11b136ea224fe,,,,,,,,,3422,-71.19998962,-28.80000687,1,0,0,response5disk,,2,-15.19998878,-2.400006473,1,0,0,rectangle,-15.19998878,-2.400006473,1,0,0,-15.19998878,-2.400006473,1,0,0,0,72,72,119,1,,,,,,,,
,,,,,,,,,,,,,FF,,,,,,,,2.6498,,,,,,,,,,,,,,,,,,,,,,60fcfc13c59a84fe5ae390d5,61036474107ed3ceabea3202,2021-07-29_22h31.52.101,Simcolourproject_2stim_asymm_v5,2020.2.10,Win32,60,61025ae37ef11b136ea224fe,,,,,,,,,3642,93.60001284,35.19996967,1,0,0,response1disk,,6,6.400011539,8.799993694,1,0,0,rectangle,6.400011539,8.799993694,1,0,0,6.400011539,8.799993694,1,0,0,0,73,73,115,1,,,,,,,,
,,,,,,,,,,,,,FF,,,,,,,,1.9327,,,,,,,,,,,,,,,,,,,,,,60fcfc13c59a84fe5ae390d5,61036474107ed3ceabea3202,2021-07-29_22h31.52.101,Simcolourproject_2stim_asymm_v5,2020.2.10,Win32,60,61025ae37ef11b136ea224fe,,,,,,,,,1455,-73.59998965,-48.00000715,1,0,0,response5disk,,2,12.80001163,0.799993575,1,0,0,rectangle,12.80001163,0.799993575,1,0,0,12.80001163,0.799993575,1,0,0,0,74,74,17,1,,,,,,,,
,,,,,,,,,,,,,FF,,,,,,,,1.3498,,,,,,,,,,,,,,,,,,,,,,60fcfc13c59a84fe5ae390d5,61036474107ed3ceabea3202,2021-07-29_22h31.52.101,Simcolourproject_2stim_asymm_v5,2020.2.10,Win32,60,61025ae37ef11b136ea224fe,,,,,,,,,3705,-15.19998878,89.5999949,1,0,0,response7disk,,0,-6.399939823,10.39999372,1,0,0,rectangle,-6.399939823,10.39999372,1,0,0,-6.399939823,10.39999372,1,0,0,0,75,75,107,1,,,,,,,,
,,,,,,,,,,,,,FF,,,,,,,,1.8487,,,,,,,,,,,,,,,,,,,,,,60fcfc13c59a84fe5ae390d5,61036474107ed3ceabea3202,2021-07-29_22h31.52.101,Simcolourproject_2stim_asymm_v5,2020.2.10,Win32,60,61025ae37ef11b136ea224fe,,,,,,,,,92,46.40001214,-38.40000701,1,0,0,response3disk,,5,-6.399939823,-8.000006557,1,0,0,rectangle,-6.399939823,-8.000006557,1,0,0,-6.399939823,-8.000006557,1,0,0,0,76,76,28,1,,,,,,,,
,,,,,,,,,,,,,FF,,,,,,,,1.6335,,,,,,,,,,,,,,,,,,,,,,60fcfc13c59a84fe5ae390d5,61036474107ed3ceabea3202,2021-07-29_22h31.52.101,Simcolourproject_2stim_asymm_v5,2020.2.10,Win32,60,61025ae37ef11b136ea224fe,,,,,,,,,3803,55.20001227,-36.00000697,1,0,0,response3disk,,5,-15.99998879,-8.000006557,1,0,0,rectangle,-15.99998879,-8.000006557,1,0,0,-15.99998879,-8.000006557,1,0,0,0,77,77,87,1,,,,,,,,
,,,,,,,,,,,,,FF,,,,,,,,2.3664,,,,,,,,,,,,,,,,,,,,,,60fcfc13c59a84fe5ae390d5,61036474107ed3ceabea3202,2021-07-29_22h31.52.101,Simcolourproject_2stim_asymm_v5,2020.2.10,Win32,60,61025ae37ef11b136ea224fe,,,,,,,,,3067,24.80001181,-67.20000744,1,0,0,response3disk,,4,4.800011516,-4.800006509,1,0,0,rectangle,4.800011516,-4.800006509,1,0,0,4.800011516,-4.800006509,1,0,0,0,78,78,78,1,,,,,,,,
,,,,,,,,,,,,,FF,,,,,,,,2.1833,,,,,,,,,,,,,,,,,,,,,,60fcfc13c59a84fe5ae390d5,61036474107ed3ceabea3202,2021-07-29_22h31.52.101,Simcolourproject_2stim_asymm_v5,2020.2.10,Win32,60,61025ae37ef11b136ea224fe,,,,,,,,,1677,-59.99998945,24.79999393,1,0,0,response7disk,,1,32.00001192,2.399993598,1,0,0,rectangle,32.00001192,2.399993598,1,0,0,32.00001192,2.399993598,1,0,0,0,79,79,140,1,,,,,,,,
,,,,,,,,,,,,,FF,,,,,,,,1.6492,,,,,,,,,,,,,,,,,,,,,,60fcfc13c59a84fe5ae390d5,61036474107ed3ceabea3202,2021-07-29_22h31.52.101,Simcolourproject_2stim_asymm_v5,2020.2.10,Win32,60,61025ae37ef11b136ea224fe,,,,,,,,,778,39.20001203,-78.40000761,1,0,0,response3disk,,4,10.4000116,5.599993646,1,0,0,rectangle,10.4000116,5.599993646,1,0,0,10.4000116,5.599993646,1,0,0,0,80,80,94,1,,,,,,,,
,,,,,,,,,,,,,FF,,,,,,,,1.3331,,,,,,,,,,,,,,,,,,,,,,60fcfc13c59a84fe5ae390d5,61036474107ed3ceabea3202,2021-07-29_22h31.52.101,Simcolourproject_2stim_asymm_v5,2020.2.10,Win32,60,61025ae37ef11b136ea224fe,,,,,,,,,3309,51.20001221,71.19997021,1,0,0,response1disk,,7,8.800011575,14.39999378,1,0,0,rectangle,8.800011575,14.39999378,1,0,0,8.800011575,14.39999378,1,0,0,0,81,81,138,1,,,,,,,,
,,,,,,,,,,,,,FF,,,,,,,,2.0827,,,,,,,,,,,,,,,,,,,,,,60fcfc13c59a84fe5ae390d5,61036474107ed3ceabea3202,2021-07-29_22h31.52.101,Simcolourproject_2stim_asymm_v5,2020.2.10,Win32,60,61025ae37ef11b136ea224fe,,,,,,,,,1061,72.80001253,-42.40000707,1,0,0,response3disk,,5,-0.799988568,10.39999372,1,0,0,rectangle,-0.799988568,10.39999372,1,0,0,-0.799988568,10.39999372,1,0,0,0,82,82,105,1,,,,,,,,
,,,,,,,,,,,,,FF,,,,,,,,2.5698,,,,,,,,,,,,,,,,,,,,,,60fcfc13c59a84fe5ae390d5,61036474107ed3ceabea3202,2021-07-29_22h31.52.101,Simcolourproject_2stim_asymm_v5,2020.2.10,Win32,60,61025ae37ef11b136ea224fe,,,,,,,,,2155,36.00001198,90.39999491,1,0,0,response1disk,,7,11.20001161,-8.800006568,1,0,0,rectangle,11.20001161,-8.800006568,1,0,0,11.20001161,-8.800006568,1,0,0,0,83,83,54,1,,,,,,,,
,,,,,,,,,,,,,FF,,,,,,,,1.5036,,,,,,,,,,,,,,,,,,,,,,60fcfc13c59a84fe5ae390d5,61036474107ed3ceabea3202,2021-07-29_22h31.52.101,Simcolourproject_2stim_asymm_v5,2020.2.10,Win32,60,61025ae37ef11b136ea224fe,,,,,,,,,2437,55.20001227,85.59999484,1,0,0,response1disk,,7,-5.599988639,-2.400006473,1,0,0,rectangle,-5.599988639,-2.400006473,1,0,0,-5.599988639,-2.400006473,1,0,0,0,84,84,89,1,,,,,,,,
,,,,,,,,,,,,,FF,,,,,,,,1.3494,,,,,,,,,,,,,,,,,,,,,,60fcfc13c59a84fe5ae390d5,61036474107ed3ceabea3202,2021-07-29_22h31.52.101,Simcolourproject_2stim_asymm_v5,2020.2.10,Win32,60,61025ae37ef11b136ea224fe,,,,,,,,,2706,69.60001248,-32.80000693,1,0,0,response3disk,,5,7.200011551,-12.80000663,1,0,0,rectangle,7.200011551,-12.80000663,1,0,0,7.200011551,-12.80000663,1,0,0,0,85,85,156,1,,,,,,,,
,,,,,,,,,,,,,FF,,,,,,,,1.4825,,,,,,,,,,,,,,,,,,,,,,60fcfc13c59a84fe5ae390d5,61036474107ed3ceabea3202,2021-07-29_22h31.52.101,Simcolourproject_2stim_asymm_v5,2020.2.10,Win32,60,61025ae37ef11b136ea224fe,,,,,,,,,3286,-76.7999897,-48.00000715,1,0,0,response5disk,,2,-2.399939764,7.999993682,1,0,0,rectangle,-2.399939764,7.999993682,1,0,0,-2.399939764,7.999993682,1,0,0,0,86,86,116,1,,,,,,,,
,,,,,,,,,,,,,FF,,,,,,,,1.4004,,,,,,,,,,,,,,,,,,,,,,60fcfc13c59a84fe5ae390d5,61036474107ed3ceabea3202,2021-07-29_22h31.52.101,Simcolourproject_2stim_asymm_v5,2020.2.10,Win32,60,61025ae37ef11b136ea224fe,,,,,,,,,1921,83.20001268,-34.40000695,1,0,0,response3disk,,5,7.200011551,3.19999361,1,0,0,rectangle,7.200011551,3.19999361,1,0,0,7.200011551,3.19999361,1,0,0,0,87,87,66,1,,,,,,,,
,,,,,,,,,,,,,FF,,,,,,,,1.4493,,,,,,,,,,,,,,,,,,,,,,60fcfc13c59a84fe5ae390d5,61036474107ed3ceabea3202,2021-07-29_22h31.52.101,Simcolourproject_2stim_asymm_v5,2020.2.10,Win32,60,61025ae37ef11b136ea224fe,,,,,,,,,3456,53.60001224,-84.00000769,1,0,0,response3disk,,4,3.200011492,4.799993634,1,0,0,rectangle,3.200011492,4.799993634,1,0,0,3.200011492,4.799993634,1,0,0,0,88,88,122,1,,,,,,,,
,,,,,,,,,,,,,FF,,,,,,,,1.3171,,,,,,,,,,,,,,,,,,,,,,60fcfc13c59a84fe5ae390d5,61036474107ed3ceabea3202,2021-07-29_22h31.52.101,Simcolourproject_2stim_asymm_v5,2020.2.10,Win32,60,61025ae37ef11b136ea224fe,,,,,,,,,143,64.80001241,-28.80000687,1,0,0,response3disk,,5,-7.999988675,0.799993575,1,0,0,rectangle,-7.999988675,0.799993575,1,0,0,-7.999988675,0.799993575,1,0,0,0,89,89,38,1,,,,,,,,
,,,,,,,,,,,,,FF,,,,,,,,2.1833,,,,,,,,,,,,,,,,,,,,,,60fcfc13c59a84fe5ae390d5,61036474107ed3ceabea3202,2021-07-29_22h31.52.101,Simcolourproject_2stim_asymm_v5,2020.2.10,Win32,60,61025ae37ef11b136ea224fe,,,,,,,,,3282,-80.79998976,-41.60000706,1,0,0,response5disk,,2,4.800011516,-8.000006557,1,0,0,rectangle,4.800011516,-8.000006557,1,0,0,4.800011516,-8.000006557,1,0,0,0,90,90,71,1,,,,,,,,
,,,,,,,,,,,,,FF,,,,,,,,1.4839,,,,,,,,,,,,,,,,,,,,,,60fcfc13c59a84fe5ae390d5,61036474107ed3ceabea3202,2021-07-29_22h31.52.101,Simcolourproject_2stim_asymm_v5,2020.2.10,Win32,60,61025ae37ef11b136ea224fe,,,,,,,,,3615,48.80001217,-40.80000705,1,0,0,response3disk,,5,2.40001148,-3.200006485,1,0,0,rectangle,2.40001148,-3.200006485,1,0,0,2.40001148,-3.200006485,1,0,0,0,91,91,96,1,,,,,,,,
,,,,,,,,,,,,,FF,,,,,,,,1.184,,,,,,,,,,,,,,,,,,,,,,60fcfc13c59a84fe5ae390d5,61036474107ed3ceabea3202,2021-07-29_22h31.52.101,Simcolourproject_2stim_asymm_v5,2020.2.10,Win32,60,61025ae37ef11b136ea224fe,,,,,,,,,1601,-84.79998982,-35.20000696,1,0,0,response5disk,,2,-10.39993988,-0.800006449,1,0,0,rectangle,-10.39993988,-0.800006449,1,0,0,-10.39993988,-0.800006449,1,0,0,0,92,92,73,1,,,,,,,,
,,,,,,,,,,,,,FF,,,,,,,,1.3987,,,,,,,,,,,,,,,,,,,,,,60fcfc13c59a84fe5ae390d5,61036474107ed3ceabea3202,2021-07-29_22h31.52.101,Simcolourproject_2stim_asymm_v5,2020.2.10,Win32,60,61025ae37ef11b136ea224fe,,,,,,,,,1038,56.80001229,-77.60000759,1,0,0,response3disk,,4,20.00001174,7.19999367,1,0,0,rectangle,20.00001174,7.19999367,1,0,0,20.00001174,7.19999367,1,0,0,0,93,93,56,1,,,,,,,,
,,,,,,,,,,,,,FF,,,,,,,,1.1665,,,,,,,,,,,,,,,,,,,,,,60fcfc13c59a84fe5ae390d5,61036474107ed3ceabea3202,2021-07-29_22h31.52.101,Simcolourproject_2stim_asymm_v5,2020.2.10,Win32,60,61025ae37ef11b136ea224fe,,,,,,,,,294,68.80001247,-30.40000689,1,0,0,response3disk,,5,20.00001174,1.599993587,1,0,0,rectangle,20.00001174,1.599993587,1,0,0,20.00001174,1.599993587,1,0,0,0,94,94,124,1,,,,,,,,
,,,,,,,,,,,,,FF,,,,,,,,3.0002,,,,,,,,,,,,,,,,,,,,,,60fcfc13c59a84fe5ae390d5,61036474107ed3ceabea3202,2021-07-29_22h31.52.101,Simcolourproject_2stim_asymm_v5,2020.2.10,Win32,60,61025ae37ef11b136ea224fe,,,,,,,,,2629,-23.99998891,-82.40000767,1,0,0,response5disk,,3,-2.399939764,-11.2000066,1,0,0,rectangle,-2.399939764,-11.2000066,1,0,0,-2.399939764,-11.2000066,1,0,0,0,95,95,39,1,,,,,,,,
,,,,,,,,,,,,,FF,,,,,,,,1.3482,,,,,,,,,,,,,,,,,,,,,,60fcfc13c59a84fe5ae390d5,61036474107ed3ceabea3202,2021-07-29_22h31.52.101,Simcolourproject_2stim_asymm_v5,2020.2.10,Win32,60,61025ae37ef11b136ea224fe,,,,,,,,,2562,-31.99998903,-77.60000759,1,0,0,response5disk,,3,-17.59998882,7.999993682,1,0,0,rectangle,-17.59998882,7.999993682,1,0,0,-17.59998882,7.999993682,1,0,0,0,96,96,34,1,,,,,,,,
,,,,,,,,,,,,,FF,,,,,,,,1.7827,,,,,,,,,,,,,,,,,,,,,,60fcfc13c59a84fe5ae390d5,61036474107ed3ceabea3202,2021-07-29_22h31.52.101,Simcolourproject_2stim_asymm_v5,2020.2.10,Win32,60,61025ae37ef11b136ea224fe,,,,,,,,,3584,-77.59998971,-36.80000699,1,0,0,response5disk,,2,9.600060415,-4.800006509,1,0,0,rectangle,9.600060415,-4.800006509,1,0,0,9.600060415,-4.800006509,1,0,0,0,97,97,67,1,,,,,,,,
,,,,,,,,,,,,,FF,,,,,,,,1.5296,,,,,,,,,,,,,,,,,,,,,,60fcfc13c59a84fe5ae390d5,61036474107ed3ceabea3202,2021-07-29_22h31.52.101,Simcolourproject_2stim_asymm_v5,2020.2.10,Win32,60,61025ae37ef11b136ea224fe,,,,,,,,,3454,77.6000126,43.19996979,1,0,0,response1disk,,6,-7.199988663,3.999993622,1,0,0,rectangle,-7.199988663,3.999993622,1,0,0,-7.199988663,3.999993622,1,0,0,0,98,98,158,1,,,,,,,,
,,,,,,,,,,,,,FF,,,,,,,,2.4671,,,,,,,,,,,,,,,,,,,,,,60fcfc13c59a84fe5ae390d5,61036474107ed3ceabea3202,2021-07-29_22h31.52.101,Simcolourproject_2stim_asymm_v5,2020.2.10,Win32,60,61025ae37ef11b136ea224fe,,,,,,,,,65,-51.99998933,-75.20000756,1,0,0,response5disk,,3,-20.79998887,-8.000006557,1,0,0,rectangle,-20.79998887,-8.000006557,1,0,0,-20.79998887,-8.000006557,1,0,0,0,99,99,102,1,,,,,,,,
,,,,,,,,,,,,,FF,,,,,,,,2.1828,,,,,,,,,,,,,,,,,,,,,,60fcfc13c59a84fe5ae390d5,61036474107ed3ceabea3202,2021-07-29_22h31.52.101,Simcolourproject_2stim_asymm_v5,2020.2.10,Win32,60,61025ae37ef11b136ea224fe,,,,,,,,,3549,74.40001255,25.59999394,1,0,0,response1disk,,6,-11.99998873,-5.600006521,1,0,0,rectangle,-11.99998873,-5.600006521,1,0,0,-11.99998873,-5.600006521,1,0,0,0,100,100,72,1,,,,,,,,
,,,,,,,,,,,,,FF,,,,,,,,6.8484,,,,,,,,,,,,,,,,,,,,,,60fcfc13c59a84fe5ae390d5,61036474107ed3ceabea3202,2021-07-29_22h31.52.101,Simcolourproject_2stim_asymm_v5,2020.2.10,Win32,60,61025ae37ef11b136ea224fe,,,,,,,,,2755,79.20001262,26.39999396,1,0,0,response1disk,,6,-9.599988699,-8.000006557,1,0,0,rectangle,-9.599988699,-8.000006557,1,0,0,-9.599988699,-8.000006557,1,0,0,0,101,101,118,1,,,,,,,,
,,,,,,,,,,,,,FF,,,,,,,,2.8827,,,,,,,,,,,,,,,,,,,,,,60fcfc13c59a84fe5ae390d5,61036474107ed3ceabea3202,2021-07-29_22h31.52.101,Simcolourproject_2stim_asymm_v5,2020.2.10,Win32,60,61025ae37ef11b136ea224fe,,,,,,,,,2345,78.40001261,35.19996967,1,0,0,response1disk,,6,-13.59998876,-2.400006473,1,0,0,rectangle,-13.59998876,-2.400006473,1,0,0,-13.59998876,-2.400006473,1,0,0,0,102,102,151,1,,,,,,,,
,,,,,,,,,,,,,FF,,,,,,,,1.9496,,,,,,,,,,,,,,,,,,,,,,60fcfc13c59a84fe5ae390d5,61036474107ed3ceabea3202,2021-07-29_22h31.52.101,Simcolourproject_2stim_asymm_v5,2020.2.10,Win32,60,61025ae37ef11b136ea224fe,,,,,,,,,398,33.60006077,-62.40000737,1,0,0,response3disk,,4,-15.19998878,-8.000006557,1,0,0,rectangle,-15.19998878,-8.000006557,1,0,0,-15.19998878,-8.000006557,1,0,0,0,103,103,12,1,,,,,,,,
,,,,,,,,,,,,,FF,,,,,,,,1.5504,,,,,,,,,,,,,,,,,,,,,,60fcfc13c59a84fe5ae390d5,61036474107ed3ceabea3202,2021-07-29_22h31.52.101,Simcolourproject_2stim_asymm_v5,2020.2.10,Win32,60,61025ae37ef11b136ea224fe,,,,,,,,,1358,79.20001262,31.99999404,1,0,0,response1disk,,6,-7.199988663,-3.200006485,1,0,0,rectangle,-7.199988663,-3.200006485,1,0,0,-7.199988663,-3.200006485,1,0,0,0,104,104,9,1,,,,,,,,
,,,,,,,,,,,,,FF,,,,,,,,1.4333,,,,,,,,,,,,,,,,,,,,,,60fcfc13c59a84fe5ae390d5,61036474107ed3ceabea3202,2021-07-29_22h31.52.101,Simcolourproject_2stim_asymm_v5,2020.2.10,Win32,60,61025ae37ef11b136ea224fe,,,,,,,,,1852,70.40001249,-52.80000722,1,0,0,response3disk,,5,13.60006047,7.999993682,1,0,0,rectangle,13.60006047,7.999993682,1,0,0,13.60006047,7.999993682,1,0,0,0,105,105,112,1,,,,,,,,
,,,,,,,,,,,,,FF,,,,,,,,1.2671,,,,,,,,,,,,,,,,,,,,,,60fcfc13c59a84fe5ae390d5,61036474107ed3ceabea3202,2021-07-29_22h31.52.101,Simcolourproject_2stim_asymm_v5,2020.2.10,Win32,60,61025ae37ef11b136ea224fe,,,,,,,,,2158,37.60006083,83.99999481,1,0,0,response1disk,,7,8.000011563,3.999993622,1,0,0,rectangle,8.000011563,3.999993622,1,0,0,8.000011563,3.999993622,1,0,0,0,106,106,57,1,,,,,,,,
,,,,,,,,,,,,,FF,,,,,,,,1.4499,,,,,,,,,,,,,,,,,,,,,,60fcfc13c59a84fe5ae390d5,61036474107ed3ceabea3202,2021-07-29_22h31.52.101,Simcolourproject_2stim_asymm_v5,2020.2.10,Win32,60,61025ae37ef11b136ea224fe,,,,,,,,,1996,-67.19998956,-48.00000715,1,0,0,response5disk,,2,-10.39993988,0.799993575,1,0,0,rectangle,-10.39993988,0.799993575,1,0,0,-10.39993988,0.799993575,1,0,0,0,107,107,23,1,,,,,,,,
,,,,,,,,,,,,,FF,,,,,,,,1.0706,,,,,,,,,,,,,,,,,,,,,,60fcfc13c59a84fe5ae390d5,61036474107ed3ceabea3202,2021-07-29_22h31.52.101,Simcolourproject_2stim_asymm_v5,2020.2.10,Win32,60,61025ae37ef11b136ea224fe,,,,,,,,,4181,-22.39994006,55.9999944,1,0,0,response7disk,,0,5.600060356,2.399993598,1,0,0,rectangle,5.600060356,2.399993598,1,0,0,5.600060356,2.399993598,1,0,0,0,108,108,84,1,,,,,,,,
,,,,,,,,,,,,,FF,,,,,,,,1.2665,,,,,,,,,,,,,,,,,,,,,,60fcfc13c59a84fe5ae390d5,61036474107ed3ceabea3202,2021-07-29_22h31.52.101,Simcolourproject_2stim_asymm_v5,2020.2.10,Win32,60,61025ae37ef11b136ea224fe,,,,,,,,,3507,-70.39994078,-39.20000702,1,0,0,response5disk,,2,-4.799988627,3.999993622,1,0,0,rectangle,-4.799988627,3.999993622,1,0,0,-4.799988627,3.999993622,1,0,0,0,109,109,154,1,,,,,,,,
,,,,,,,,,,,,,FF,,,,,,,,1.2006,,,,,,,,,,,,,,,,,,,,,,60fcfc13c59a84fe5ae390d5,61036474107ed3ceabea3202,2021-07-29_22h31.52.101,Simcolourproject_2stim_asymm_v5,2020.2.10,Win32,60,61025ae37ef11b136ea224fe,,,,,,,,,3520,-64.79998952,-32.80000693,1,0,0,response5disk,,2,3.200011492,2.399993598,1,0,0,rectangle,3.200011492,2.399993598,1,0,0,3.200011492,2.399993598,1,0,0,0,110,110,136,1,,,,,,,,
,,,,,,,,,,,,,FF,,,,,,,,3,,,,,,,,,,,,,,,,,,,,,,60fcfc13c59a84fe5ae390d5,61036474107ed3ceabea3202,2021-07-29_22h31.52.101,Simcolourproject_2stim_asymm_v5,2020.2.10,Win32,60,61025ae37ef11b136ea224fe,,,,,,,,,585,90.40001279,56.79999441,1,0,0,response1disk,,6,-5.599988639,10.39999372,1,0,0,rectangle,-5.599988639,10.39999372,1,0,0,-5.599988639,10.39999372,1,0,0,0,111,111,40,1,,,,,,,,
,,,,,,,,,,,,,FF,,,,,,,,1.3497,,,,,,,,,,,,,,,,,,,,,,60fcfc13c59a84fe5ae390d5,61036474107ed3ceabea3202,2021-07-29_22h31.52.101,Simcolourproject_2stim_asymm_v5,2020.2.10,Win32,60,61025ae37ef11b136ea224fe,,,,,,,,,2703,31.20001191,-60.80000734,1,0,0,response3disk,,4,5.600060356,-4.800006509,1,0,0,rectangle,5.600060356,-4.800006509,1,0,0,5.600060356,-4.800006509,1,0,0,0,112,112,86,1,,,,,,,,
,,,,,,,,,,,,,FF,,,,,,,,4.5991,,,,,,,,,,,,,,,,,,,,,,60fcfc13c59a84fe5ae390d5,61036474107ed3ceabea3202,2021-07-29_22h31.52.101,Simcolourproject_2stim_asymm_v5,2020.2.10,Win32,60,61025ae37ef11b136ea224fe,,,,,,,,,4180,54.40001225,23.19996949,1,0,0,response1disk,,6,10.4000116,0.799993575,1,0,0,rectangle,10.4000116,0.799993575,1,0,0,10.4000116,0.799993575,1,0,0,0,113,113,150,1,,,,,,,,
,,,,,,,,,,,,,FF,,,,,,,,1.3669,,,,,,,,,,,,,,,,,,,,,,60fcfc13c59a84fe5ae390d5,61036474107ed3ceabea3202,2021-07-29_22h31.52.101,Simcolourproject_2stim_asymm_v5,2020.2.10,Win32,60,61025ae37ef11b136ea224fe,,,,,,,,,2639,71.20001251,-42.40000707,1,0,0,response3disk,,5,1.14441E-05,12.79999375,1,0,0,rectangle,1.14441E-05,12.79999375,1,0,0,1.14441E-05,12.79999375,1,0,0,0,114,114,144,1,,,,,,,,
,,,,,,,,,,,,,FF,,,,,,,,2.0165,,,,,,,,,,,,,,,,,,,,,,60fcfc13c59a84fe5ae390d5,61036474107ed3ceabea3202,2021-07-29_22h31.52.101,Simcolourproject_2stim_asymm_v5,2020.2.10,Win32,60,61025ae37ef11b136ea224fe,,,,,,,,,1339,50.4000122,66.39999455,1,0,0,response1disk,,7,-2.399939764,-5.600006521,1,0,0,rectangle,-2.399939764,-5.600006521,1,0,0,-2.399939764,-5.600006521,1,0,0,0,115,115,111,1,,,,,,,,
,,,,,,,,,,,,,FF,,,,,,,,1.1994,,,,,,,,,,,,,,,,,,,,,,60fcfc13c59a84fe5ae390d5,61036474107ed3ceabea3202,2021-07-29_22h31.52.101,Simcolourproject_2stim_asymm_v5,2020.2.10,Win32,60,61025ae37ef11b136ea224fe,,,,,,,,,2606,-73.59998965,-54.40000725,1,0,0,response5disk,,2,0.800011456,-0.800006449,1,0,0,rectangle,0.800011456,-0.800006449,1,0,0,0.800011456,-0.800006449,1,0,0,0,116,116,135,1,,,,,,,,
,,,,,,,,,,,,,FF,,,,,,,,1.5167,,,,,,,,,,,,,,,,,,,,,,60fcfc13c59a84fe5ae390d5,61036474107ed3ceabea3202,2021-07-29_22h31.52.101,Simcolourproject_2stim_asymm_v5,2020.2.10,Win32,60,61025ae37ef11b136ea224fe,,,,,,,,,2983,56.00001228,-38.40000701,1,0,0,response3disk,,5,0.800011456,-4.800006509,1,0,0,rectangle,62.40001237,47.99999428,1,0,0,7.200011551,7.999993682,1,0,0,0,117,117,1,1,,response1disk_3,TRUE,6,6,"[41,56,118,194,69,37,160,301,143,265,172,295,150,175,260,43,268,14,41,167]",2.7324,rectangle
,,,,,,,,,,,,,FF,,,,,,,,1.8499,,,,,,,,,,,,,,,,,,,,,,60fcfc13c59a84fe5ae390d5,61036474107ed3ceabea3202,2021-07-29_22h31.52.101,Simcolourproject_2stim_asymm_v5,2020.2.10,Win32,60,61025ae37ef11b136ea224fe,,,,,,,,,1432,44.80001211,-63.20000738,1,0,0,response3disk,,4,20.00001174,-6.400006533,1,0,0,rectangle,20.00001174,-6.400006533,1,0,0,20.00001174,-6.400006533,1,0,0,0,118,118,114,1,,,,,,,,
,,,,,,,,,,,,,FF,,,,,,,,1.4996,,,,,,,,,,,,,,,,,,,,,,60fcfc13c59a84fe5ae390d5,61036474107ed3ceabea3202,2021-07-29_22h31.52.101,Simcolourproject_2stim_asymm_v5,2020.2.10,Win32,60,61025ae37ef11b136ea224fe,,,,,,,,,3703,-51.19998932,-52.80000722,1,0,0,response5disk,,3,-23.1999889,-8.000006557,1,0,0,rectangle,-23.1999889,-8.000006557,1,0,0,-23.1999889,-8.000006557,1,0,0,0,119,119,125,1,,,,,,,,
,,,,,,,,,,,,,FF,,,,,,,,2.0833,,,,,,,,,,,,,,,,,,,,,,60fcfc13c59a84fe5ae390d5,61036474107ed3ceabea3202,2021-07-29_22h31.52.101,Simcolourproject_2stim_asymm_v5,2020.2.10,Win32,60,61025ae37ef11b136ea224fe,,,,,,,,,4061,-31.19998902,-78.40000761,1,0,0,response5disk,,3,3.200011492,-16.80000669,1,0,0,rectangle,3.200011492,-16.80000669,1,0,0,3.200011492,-16.80000669,1,0,0,0,120,120,101,1,,,,,,,,
,,,,,,,,,,,,,FF,,,,,,,,1.666,,,,,,,,,,,,,,,,,,,,,,60fcfc13c59a84fe5ae390d5,61036474107ed3ceabea3202,2021-07-29_22h31.52.101,Simcolourproject_2stim_asymm_v5,2020.2.10,Win32,60,61025ae37ef11b136ea224fe,,,,,,,,,3757,-25.59998894,-68.00000745,1,0,0,response5disk,,3,10.4000116,3.19999361,1,0,0,rectangle,10.4000116,3.19999361,1,0,0,10.4000116,3.19999361,1,0,0,0,121,121,5,1,,,,,,,,
,,,,,,,,,,,,,FF,,,,,,,,1.6005,,,,,,,,,,,,,,,,,,,,,,60fcfc13c59a84fe5ae390d5,61036474107ed3ceabea3202,2021-07-29_22h31.52.101,Simcolourproject_2stim_asymm_v5,2020.2.10,Win32,60,61025ae37ef11b136ea224fe,,,,,,,,,2484,-73.59998965,-25.60000682,1,0,0,response5disk,,2,-3.199988604,0.799993575,1,0,0,rectangle,-3.199988604,0.799993575,1,0,0,-3.199988604,0.799993575,1,0,0,0,122,122,11,1,,,,,,,,
,,,,,,,,,,,,,FF,,,,,,,,1.7829,,,,,,,,,,,,,,,,,,,,,,60fcfc13c59a84fe5ae390d5,61036474107ed3ceabea3202,2021-07-29_22h31.52.101,Simcolourproject_2stim_asymm_v5,2020.2.10,Win32,60,61025ae37ef11b136ea224fe,,,,,,,,,3283,-59.99998945,25.59999394,1,0,0,response7disk,,1,13.60006047,-7.200006545,1,0,0,rectangle,13.60006047,-7.200006545,1,0,0,13.60006047,-7.200006545,1,0,0,0,123,123,98,1,,,,,,,,
,,,,,,,,,,,,,FF,,,,,,,,2.9989,,,,,,,,,,,,,,,,,,,,,,60fcfc13c59a84fe5ae390d5,61036474107ed3ceabea3202,2021-07-29_22h31.52.101,Simcolourproject_2stim_asymm_v5,2020.2.10,Win32,60,61025ae37ef11b136ea224fe,,,,,,,,,4240,36.80001199,-84.8000077,1,0,0,response3disk,,4,1.600060296,-7.200006545,1,0,0,rectangle,1.600060296,-7.200006545,1,0,0,1.600060296,-7.200006545,1,0,0,0,124,124,8,1,,,,,,,,
,,,,,,,,,,,,,FF,,,,,,,,1.5662,,,,,,,,,,,,,,,,,,,,,,60fcfc13c59a84fe5ae390d5,61036474107ed3ceabea3202,2021-07-29_22h31.52.101,Simcolourproject_2stim_asymm_v5,2020.2.10,Win32,60,61025ae37ef11b136ea224fe,,,,,,,,,3863,37.60006083,-57.6000073,1,0,0,response3disk,,4,-0.799988568,11.19999373,1,0,0,rectangle,-0.799988568,11.19999373,1,0,0,-0.799988568,11.19999373,1,0,0,0,125,125,2,1,,,,,,,,
,,,,,,,,,,,,,FF,,,,,,,,1.4324,,,,,,,,,,,,,,,,,,,,,,60fcfc13c59a84fe5ae390d5,61036474107ed3ceabea3202,2021-07-29_22h31.52.101,Simcolourproject_2stim_asymm_v5,2020.2.10,Win32,60,61025ae37ef11b136ea224fe,,,,,,,,,2943,-72.79998964,-38.40000701,1,0,0,response5disk,,2,36.80001199,-3.200006485,1,0,0,rectangle,36.80001199,-3.200006485,1,0,0,36.80001199,-3.200006485,1,0,0,0,126,126,0,1,,,,,,,,
,,,,,,,,,,,,,FF,,,,,,,,1.2667,,,,,,,,,,,,,,,,,,,,,,60fcfc13c59a84fe5ae390d5,61036474107ed3ceabea3202,2021-07-29_22h31.52.101,Simcolourproject_2stim_asymm_v5,2020.2.10,Win32,60,61025ae37ef11b136ea224fe,,,,,,,,,2249,71.20001251,-32.00000691,1,0,0,response3disk,,5,0.800011456,-2.400006473,1,0,0,rectangle,0.800011456,-2.400006473,1,0,0,0.800011456,-2.400006473,1,0,0,0,127,127,149,1,,,,,,,,
,,,,,,,,,,,,,FF,,,,,,,,1.0997,,,,,,,,,,,,,,,,,,,,,,60fcfc13c59a84fe5ae390d5,61036474107ed3ceabea3202,2021-07-29_22h31.52.101,Simcolourproject_2stim_asymm_v5,2020.2.10,Win32,60,61025ae37ef11b136ea224fe,,,,,,,,,2210,69.60001248,-38.40000701,1,0,0,response3disk,,5,14.40001166,2.399993598,1,0,0,rectangle,14.40001166,2.399993598,1,0,0,14.40001166,2.399993598,1,0,0,0,128,128,50,1,,,,,,,,
,,,,,,,,,,,,,FF,,,,,,,,1.1336,,,,,,,,,,,,,,,,,,,,,,60fcfc13c59a84fe5ae390d5,61036474107ed3ceabea3202,2021-07-29_22h31.52.101,Simcolourproject_2stim_asymm_v5,2020.2.10,Win32,60,61025ae37ef11b136ea224fe,,,,,,,,,2909,-57.59998941,-58.40000731,1,0,0,response5disk,,3,3.200011492,-12.00000662,1,0,0,rectangle,3.200011492,-12.00000662,1,0,0,3.200011492,-12.00000662,1,0,0,0,129,129,43,1,,,,,,,,
,,,,,,,,,,,,,FF,,,,,,,,12.0808,,,,,,,,,,,,,,,,,,,,,,60fcfc13c59a84fe5ae390d5,61036474107ed3ceabea3202,2021-07-29_22h31.52.101,Simcolourproject_2stim_asymm_v5,2020.2.10,Win32,60,61025ae37ef11b136ea224fe,,,,,,,,,2694,42.40001208,-75.20000756,1,0,0,response3disk,,4,4.000011504,15.19999379,1,0,0,rectangle,4.000011504,15.19999379,1,0,0,4.000011504,15.19999379,1,0,0,0,130,130,83,1,,,,,,,,
,,,,,,,,,,,,,FF,,,,,,,,1.3652,,,,,,,,,,,,,,,,,,,,,,60fcfc13c59a84fe5ae390d5,61036474107ed3ceabea3202,2021-07-29_22h31.52.101,Simcolourproject_2stim_asymm_v5,2020.2.10,Win32,60,61025ae37ef11b136ea224fe,,,,,,,,,2296,-59.99998945,-43.20000708,1,0,0,response5disk,,2,16.00001168,3.19999361,1,0,0,rectangle,16.00001168,3.19999361,1,0,0,16.00001168,3.19999361,1,0,0,0,131,131,130,1,,,,,,,,
,,,,,,,,,,,,,FF,,,,,,,,1.5999,,,,,,,,,,,,,,,,,,,,,,60fcfc13c59a84fe5ae390d5,61036474107ed3ceabea3202,2021-07-29_22h31.52.101,Simcolourproject_2stim_asymm_v5,2020.2.10,Win32,60,61025ae37ef11b136ea224fe,,,,,,,,,3878,-30.39994018,-80.80000764,1,0,0,response5disk,,3,-3.199988604,5.599993646,1,0,0,rectangle,-3.199988604,5.599993646,1,0,0,-3.199988604,5.599993646,1,0,0,0,132,132,127,1,,,,,,,,
,,,,,,,,,,,,,FF,,,,,,,,1.0829,,,,,,,,,,,,,,,,,,,,,,60fcfc13c59a84fe5ae390d5,61036474107ed3ceabea3202,2021-07-29_22h31.52.101,Simcolourproject_2stim_asymm_v5,2020.2.10,Win32,60,61025ae37ef11b136ea224fe,,,,,,,,,668,45.60006095,-80.80000764,1,0,0,response3disk,,4,18.40001172,3.999993622,1,0,0,rectangle,18.40001172,3.999993622,1,0,0,18.40001172,3.999993622,1,0,0,0,133,133,58,1,,,,,,,,
,,,,,,,,,,,,,FF,,,,,,,,3.6994,,,,,,,,,,,,,,,,,,,,,,60fcfc13c59a84fe5ae390d5,61036474107ed3ceabea3202,2021-07-29_22h31.52.101,Simcolourproject_2stim_asymm_v5,2020.2.10,Win32,60,61025ae37ef11b136ea224fe,,,,,,,,,4293,64.80001241,-40.00000703,1,0,0,response3disk,,5,0.800011456,11.19999373,1,0,0,rectangle,0.800011456,11.19999373,1,0,0,0.800011456,11.19999373,1,0,0,0,134,134,90,1,,,,,,,,
,,,,,,,,,,,,,FF,,,,,,,,1.3172,,,,,,,,,,,,,,,,,,,,,,60fcfc13c59a84fe5ae390d5,61036474107ed3ceabea3202,2021-07-29_22h31.52.101,Simcolourproject_2stim_asymm_v5,2020.2.10,Win32,60,61025ae37ef11b136ea224fe,,,,,,,,,267,55.20001227,77.59999472,1,0,0,response1disk,,7,-13.59998876,-4.000006497,1,0,0,rectangle,-13.59998876,-4.000006497,1,0,0,-13.59998876,-4.000006497,1,0,0,0,135,135,126,1,,,,,,,,
,,,,,,,,,,,,,FF,,,,,,,,1.0324,,,,,,,,,,,,,,,,,,,,,,60fcfc13c59a84fe5ae390d5,61036474107ed3ceabea3202,2021-07-29_22h31.52.101,Simcolourproject_2stim_asymm_v5,2020.2.10,Win32,60,61025ae37ef11b136ea224fe,,,,,,,,,3816,-59.99998945,-39.20000702,1,0,0,response5disk,,2,-14.39993994,-4.800006509,1,0,0,rectangle,-14.39993994,-4.800006509,1,0,0,-14.39993994,-4.800006509,1,0,0,0,136,136,145,1,,,,,,,,
,,,,,,,,,,,,,FF,,,,,,,,1.2004,,,,,,,,,,,,,,,,,,,,,,60fcfc13c59a84fe5ae390d5,61036474107ed3ceabea3202,2021-07-29_22h31.52.101,Simcolourproject_2stim_asymm_v5,2020.2.10,Win32,60,61025ae37ef11b136ea224fe,,,,,,,,,3553,-56.7999894,29.599994,1,0,0,response7disk,,1,16.00001168,3.999993622,1,0,0,rectangle,16.00001168,3.999993622,1,0,0,16.00001168,3.999993622,1,0,0,0,137,137,139,1,,,,,,,,
,,,,,,,,,,,,,FF,,,,,,,,1.5833,,,,,,,,,,,,,,,,,,,,,,60fcfc13c59a84fe5ae390d5,61036474107ed3ceabea3202,2021-07-29_22h31.52.101,Simcolourproject_2stim_asymm_v5,2020.2.10,Win32,60,61025ae37ef11b136ea224fe,,,,,,,,,2992,48.80001217,74.39999467,1,0,0,response1disk,,7,-12.79998875,-9.60000658,1,0,0,rectangle,-12.79998875,-9.60000658,1,0,0,-12.79998875,-9.60000658,1,0,0,0,138,138,37,1,,,,,,,,
,,,,,,,,,,,,,FF,,,,,,,,1.6169,,,,,,,,,,,,,,,,,,,,,,60fcfc13c59a84fe5ae390d5,61036474107ed3ceabea3202,2021-07-29_22h31.52.101,Simcolourproject_2stim_asymm_v5,2020.2.10,Win32,60,61025ae37ef11b136ea224fe,,,,,,,,,3735,58.40001231,-35.20000696,1,0,0,response3disk,,5,8.800011575,6.399993658,1,0,0,rectangle,8.800011575,6.399993658,1,0,0,8.800011575,6.399993658,1,0,0,0,139,139,142,1,,,,,,,,
,,,,,,,,,,,,,FF,,,,,,,,1.2326,,,,,,,,,,,,,,,,,,,,,,60fcfc13c59a84fe5ae390d5,61036474107ed3ceabea3202,2021-07-29_22h31.52.101,Simcolourproject_2stim_asymm_v5,2020.2.10,Win32,60,61025ae37ef11b136ea224fe,,,,,,,,,1874,81.60001266,22.3999939,1,0,0,response1disk,,6,8.800011575,6.399993658,1,0,0,rectangle,8.800011575,6.399993658,1,0,0,8.800011575,6.399993658,1,0,0,0,140,140,113,1,,,,,,,,
,,,,,,,,,,,,,FF,,,,,,,,1.2003,,,,,,,,,,,,,,,,,,,,,,60fcfc13c59a84fe5ae390d5,61036474107ed3ceabea3202,2021-07-29_22h31.52.101,Simcolourproject_2stim_asymm_v5,2020.2.10,Win32,60,61025ae37ef11b136ea224fe,,,,,,,,,4315,37.60006083,68.79999459,1,0,0,response1disk,,7,1.600060296,6.399993658,1,0,0,rectangle,1.600060296,6.399993658,1,0,0,1.600060296,6.399993658,1,0,0,0,141,141,6,1,,,,,,,,
,,,,,,,,,,,,,FF,,,,,,,,1.2327,,,,,,,,,,,,,,,,,,,,,,60fcfc13c59a84fe5ae390d5,61036474107ed3ceabea3202,2021-07-29_22h31.52.101,Simcolourproject_2stim_asymm_v5,2020.2.10,Win32,60,61025ae37ef11b136ea224fe,,,,,,,,,2397,61.60001236,-43.20000708,1,0,0,response3disk,,5,4.000011504,14.39999378,1,0,0,rectangle,-51.19998932,-73.60000753,1,0,0,6.400011539,3.999993622,1,0,0,0,142,142,128,1,,response5disk_3,TRUE,3,3,"[41,56,118,194,69,37,160,301,143,265,172,295,150,175,260,43,268,14,41,167]",2.2319,rectangle
,,,,,,,,,,,,,FF,,,,,,,,1.3872,,,,,,,,,,,,,,,,,,,,,,60fcfc13c59a84fe5ae390d5,61036474107ed3ceabea3202,2021-07-29_22h31.52.101,Simcolourproject_2stim_asymm_v5,2020.2.10,Win32,60,61025ae37ef11b136ea224fe,,,,,,,,,3489,69.60001248,33.59999406,1,0,0,response1disk,,6,-0.799988568,7.19999367,1,0,0,rectangle,-0.799988568,7.19999367,1,0,0,-0.799988568,7.19999367,1,0,0,0,143,143,159,1,,,,,,,,
,,,,,,,,,,,,,FF,,,,,,,,1.5666,,,,,,,,,,,,,,,,,,,,,,60fcfc13c59a84fe5ae390d5,61036474107ed3ceabea3202,2021-07-29_22h31.52.101,Simcolourproject_2stim_asymm_v5,2020.2.10,Win32,60,61025ae37ef11b136ea224fe,,,,,,,,,3789,-31.99998903,-74.40000755,1,0,0,response5disk,,3,-3.999988616,-0.800006449,1,0,0,rectangle,-3.999988616,-0.800006449,1,0,0,-3.999988616,-0.800006449,1,0,0,0,144,144,36,1,,,,,,,,
,,,,,,,,,,,,,FF,,,,,,,,1.1331,,,,,,,,,,,,,,,,,,,,,,60fcfc13c59a84fe5ae390d5,61036474107ed3ceabea3202,2021-07-29_22h31.52.101,Simcolourproject_2stim_asymm_v5,2020.2.10,Win32,60,61025ae37ef11b136ea224fe,,,,,,,,,1844,74.40001255,-43.20000708,1,0,0,response3disk,,5,14.40001166,-5.600006521,1,0,0,rectangle,14.40001166,-5.600006521,1,0,0,14.40001166,-5.600006521,1,0,0,0,145,145,92,1,,,,,,,,
,,,,,,,,,,,,,FF,,,,,,,,1.7331,,,,,,,,,,,,,,,,,,,,,,60fcfc13c59a84fe5ae390d5,61036474107ed3ceabea3202,2021-07-29_22h31.52.101,Simcolourproject_2stim_asymm_v5,2020.2.10,Win32,60,61025ae37ef11b136ea224fe,,,,,,,,,2190,58.40001231,42.39999419,1,0,0,response1disk,,6,8.000011563,5.599993646,1,0,0,rectangle,8.000011563,5.599993646,1,0,0,8.000011563,5.599993646,1,0,0,0,146,146,81,1,,,,,,,,
,,,,,,,,,,,,,FF,,,,,,,,1.4999,,,,,,,,,,,,,,,,,,,,,,60fcfc13c59a84fe5ae390d5,61036474107ed3ceabea3202,2021-07-29_22h31.52.101,Simcolourproject_2stim_asymm_v5,2020.2.10,Win32,60,61025ae37ef11b136ea224fe,,,,,,,,,3302,30.4000119,-49.60000718,1,0,0,response3disk,,4,8.800011575,-12.00000662,1,0,0,rectangle,8.800011575,-12.00000662,1,0,0,8.800011575,-12.00000662,1,0,0,0,147,147,7,1,,,,,,,,
,,,,,,,,,,,,,FF,,,,,,,,1.9658,,,,,,,,,,,,,,,,,,,,,,60fcfc13c59a84fe5ae390d5,61036474107ed3ceabea3202,2021-07-29_22h31.52.101,Simcolourproject_2stim_asymm_v5,2020.2.10,Win32,60,61025ae37ef11b136ea224fe,,,,,,,,,2504,62.40001237,-50.40000719,1,0,0,response3disk,,5,6.400011539,-7.200006545,1,0,0,rectangle,6.400011539,-7.200006545,1,0,0,6.400011539,-7.200006545,1,0,0,0,148,148,74,1,,,,,,,,
,,,,,,,,,,,,,FF,,,,,,,,9.7814,,,,,,,,,,,,,,,,,,,,,,60fcfc13c59a84fe5ae390d5,61036474107ed3ceabea3202,2021-07-29_22h31.52.101,Simcolourproject_2stim_asymm_v5,2020.2.10,Win32,60,61025ae37ef11b136ea224fe,,,,,,,,,2600,99.20001292,31.99999404,1,0,0,response1disk,,6,-3.199988604,-1.600006461,1,0,0,rectangle,-31.19998902,77.59999472,1,0,0,1.600060296,0.799993575,1,0,0,0,149,149,104,1,,response7disk_3,TRUE,0,0,"[41,56,118,194,69,37,160,301,143,265,172,295,150,175,260,43,268,14,41,167]",4.2313,rectangle
,,,,,,,,,,,,,FF,,,,,,,,1.2995,,,,,,,,,,,,,,,,,,,,,,60fcfc13c59a84fe5ae390d5,61036474107ed3ceabea3202,2021-07-29_22h31.52.101,Simcolourproject_2stim_asymm_v5,2020.2.10,Win32,60,61025ae37ef11b136ea224fe,,,,,,,,,4177,67.20001245,67.19997015,1,0,0,response1disk,,6,-10.39993988,-5.600006521,1,0,0,rectangle,-10.39993988,-5.600006521,1,0,0,-10.39993988,-5.600006521,1,0,0,0,150,150,27,1,,,,,,,,
,,,,,,,,,,,,,FF,,,,,,,,1.4829,,,,,,,,,,,,,,,,,,,,,,60fcfc13c59a84fe5ae390d5,61036474107ed3ceabea3202,2021-07-29_22h31.52.101,Simcolourproject_2stim_asymm_v5,2020.2.10,Win32,60,61025ae37ef11b136ea224fe,,,,,,,,,2390,46.40001214,-55.20000726,1,0,0,response3disk,,4,19.20001173,-8.000006557,1,0,0,rectangle,19.20001173,-8.000006557,1,0,0,19.20001173,-8.000006557,1,0,0,0,151,151,88,1,,,,,,,,
,,,,,,,,,,,,,FF,,,,,,,,1.1498,,,,,,,,,,,,,,,,,,,,,,60fcfc13c59a84fe5ae390d5,61036474107ed3ceabea3202,2021-07-29_22h31.52.101,Simcolourproject_2stim_asymm_v5,2020.2.10,Win32,60,61025ae37ef11b136ea224fe,,,,,,,,,1813,-53.59998935,-79.20000762,1,0,0,response5disk,,3,-14.39993994,-2.400006473,1,0,0,rectangle,-14.39993994,-2.400006473,1,0,0,-14.39993994,-2.400006473,1,0,0,0,152,152,69,1,,,,,,,,
,,,,,,,,,,,,,FF,,,,,,,,1.0834,,,,,,,,,,,,,,,,,,,,,,60fcfc13c59a84fe5ae390d5,61036474107ed3ceabea3202,2021-07-29_22h31.52.101,Simcolourproject_2stim_asymm_v5,2020.2.10,Win32,60,61025ae37ef11b136ea224fe,,,,,,,,,3483,36.00001198,-59.20000732,1,0,0,response3disk,,4,20.80001175,-8.000006557,1,0,0,rectangle,20.80001175,-8.000006557,1,0,0,20.80001175,-8.000006557,1,0,0,0,153,153,25,1,,,,,,,,
,,,,,,,,,,,,,FF,,,,,,,,1.4835,,,,,,,,,,,,,,,,,,,,,,60fcfc13c59a84fe5ae390d5,61036474107ed3ceabea3202,2021-07-29_22h31.52.101,Simcolourproject_2stim_asymm_v5,2020.2.10,Win32,60,61025ae37ef11b136ea224fe,,,,,,,,,1826,-76.7999897,-26.40000683,1,0,0,response5disk,,2,-16.79998881,-0.800006449,1,0,0,rectangle,-16.79998881,-0.800006449,1,0,0,-16.79998881,-0.800006449,1,0,0,0,154,154,42,1,,,,,,,,
,,,,,,,,,,,,,FF,,,,,,,,1.4843,,,,,,,,,,,,,,,,,,,,,,60fcfc13c59a84fe5ae390d5,61036474107ed3ceabea3202,2021-07-29_22h31.52.101,Simcolourproject_2stim_asymm_v5,2020.2.10,Win32,60,61025ae37ef11b136ea224fe,,,,,,,,,1662,31.20001191,-76.00000757,1,0,0,response3disk,,4,4.000011504,7.999993682,1,0,0,rectangle,4.000011504,7.999993682,1,0,0,4.000011504,7.999993682,1,0,0,0,155,155,148,1,,,,,,,,
,,,,,,,,,,,,,FF,,,,,,,,2.166,,,,,,,,,,,,,,,,,,,,,,60fcfc13c59a84fe5ae390d5,61036474107ed3ceabea3202,2021-07-29_22h31.52.101,Simcolourproject_2stim_asymm_v5,2020.2.10,Win32,60,61025ae37ef11b136ea224fe,,,,,,,,,2189,26.40001184,75.19997027,1,0,0,response1disk,,7,-11.99998873,-1.600006461,1,0,0,rectangle,-11.99998873,-1.600006461,1,0,0,-11.99998873,-1.600006461,1,0,0,0,156,156,46,1,,,,,,,,
,,,,,,,,,,,,,FF,,,,,,,,1.2171,,,,,,,,,,,,,,,,,,,,,,60fcfc13c59a84fe5ae390d5,61036474107ed3ceabea3202,2021-07-29_22h31.52.101,Simcolourproject_2stim_asymm_v5,2020.2.10,Win32,60,61025ae37ef11b136ea224fe,,,,,,,,,1451,-77.59998971,-36.00000697,1,0,0,response5disk,,2,-26.39994012,8.799993694,1,0,0,rectangle,-26.39994012,8.799993694,1,0,0,-26.39994012,8.799993694,1,0,0,0,157,157,117,1,,,,,,,,
,,,,,,,,,,,,,FF,,,,,,,,1.4824,,,,,,,,,,,,,,,,,,,,,,60fcfc13c59a84fe5ae390d5,61036474107ed3ceabea3202,2021-07-29_22h31.52.101,Simcolourproject_2stim_asymm_v5,2020.2.10,Win32,60,61025ae37ef11b136ea224fe,,,,,,,,,2691,48.80001217,70.39999461,1,0,0,response1disk,,7,-7.199988663,3.19999361,1,0,0,rectangle,-7.199988663,3.19999361,1,0,0,-7.199988663,3.19999361,1,0,0,0,158,158,153,1,,,,,,,,
,,,,,,,,,,,,,FF,,,,,,,,3.3659,,,,,,,,,,,,,,,,,,,,,,60fcfc13c59a84fe5ae390d5,61036474107ed3ceabea3202,2021-07-29_22h31.52.101,Simcolourproject_2stim_asymm_v5,2020.2.10,Win32,60,61025ae37ef11b136ea224fe,,,,,,,,,2675,60.00001234,-35.20000696,1,0,0,response3disk,,5,11.20001161,2.399993598,1,0,0,rectangle,53.60001224,-22.40000677,1,0,0,26.40001184,-4.800006509,1,0,0,0,159,159,48,1,,response3disk_3,TRUE,5,5,"[41,56,118,194,69,37,160,301,143,265,172,295,150,175,260,43,268,14,41,167]",2.4306,rectangle
,,,,,,,,,,,,,FF,,,,,,,,5.3162,,,,,,,,,,,,,,,,,,,,,,60fcfc13c59a84fe5ae390d5,61036474107ed3ceabea3202,2021-07-29_22h31.52.101,Simcolourproject_2stim_asymm_v5,2020.2.10,Win32,60,61025ae37ef11b136ea224fe,,,,,,,,,3008,64.0000124,-32.80000693,1,0,0,response3disk,,5,0.800011456,-8.000006557,1,0,0,rectangle,0.800011456,-8.000006557,1,0,0,0.800011456,-8.000006557,1,0,0,1,0,160,93,1,,,,,,,,
,,,,,,,,,,,,,FF,,,,,,,,0.9159,,,,,,,,,,,,,,,,,,,,,,60fcfc13c59a84fe5ae390d5,61036474107ed3ceabea3202,2021-07-29_22h31.52.101,Simcolourproject_2stim_asymm_v5,2020.2.10,Win32,60,61025ae37ef11b136ea224fe,,,,,,,,,2028,-91.19998991,-47.20000714,1,0,0,response5disk,,2,1.14441E-05,7.19999367,1,0,0,rectangle,1.14441E-05,7.19999367,1,0,0,1.14441E-05,7.19999367,1,0,0,1,1,161,129,1,,,,,,,,
,,,,,,,,,,,,,FF,,,,,,,,1.05,,,,,,,,,,,,,,,,,,,,,,60fcfc13c59a84fe5ae390d5,61036474107ed3ceabea3202,2021-07-29_22h31.52.101,Simcolourproject_2stim_asymm_v5,2020.2.10,Win32,60,61025ae37ef11b136ea224fe,,,,,,,,,3933,-50.39994048,32.79999405,1,0,0,response7disk,,1,24.80001181,7.19999367,1,0,0,rectangle,24.80001181,7.19999367,1,0,0,24.80001181,7.19999367,1,0,0,1,2,162,59,1,,,,,,,,
,,,,,,,,,,,,,FF,,,,,,,,1.3166,,,,,,,,,,,,,,,,,,,,,,60fcfc13c59a84fe5ae390d5,61036474107ed3ceabea3202,2021-07-29_22h31.52.101,Simcolourproject_2stim_asymm_v5,2020.2.10,Win32,60,61025ae37ef11b136ea224fe,,,,,,,,,1269,54.40001225,-76.00000757,1,0,0,response3disk,,4,12.80001163,-6.4373E-06,1,0,0,rectangle,12.80001163,-6.4373E-06,1,0,0,12.80001163,-6.4373E-06,1,0,0,1,3,163,74,1,,,,,,,,
,,,,,,,,,,,,,FF,,,,,,,,1.3328,,,,,,,,,,,,,,,,,,,,,,60fcfc13c59a84fe5ae390d5,61036474107ed3ceabea3202,2021-07-29_22h31.52.101,Simcolourproject_2stim_asymm_v5,2020.2.10,Win32,60,61025ae37ef11b136ea224fe,,,,,,,,,2133,74.40001255,39.99999416,1,0,0,response1disk,,6,-3.199988604,-5.600006521,1,0,0,rectangle,-3.199988604,-5.600006521,1,0,0,-3.199988604,-5.600006521,1,0,0,1,4,164,2,1,,,,,,,,
,,,,,,,,,,,,,FF,,,,,,,,1.5498,,,,,,,,,,,,,,,,,,,,,,60fcfc13c59a84fe5ae390d5,61036474107ed3ceabea3202,2021-07-29_22h31.52.101,Simcolourproject_2stim_asymm_v5,2020.2.10,Win32,60,61025ae37ef11b136ea224fe,,,,,,,,,2899,-71.19998962,-55.20000726,1,0,0,response5disk,,2,0.800011456,-9.60000658,1,0,0,rectangle,0.800011456,-9.60000658,1,0,0,0.800011456,-9.60000658,1,0,0,1,5,165,21,1,,,,,,,,
,,,,,,,,,,,,,FF,,,,,,,,1.2527,,,,,,,,,,,,,,,,,,,,,,60fcfc13c59a84fe5ae390d5,61036474107ed3ceabea3202,2021-07-29_22h31.52.101,Simcolourproject_2stim_asymm_v5,2020.2.10,Win32,60,61025ae37ef11b136ea224fe,,,,,,,,,3311,79.20001262,-30.40000689,1,0,0,response3disk,,5,-11.99998873,7.19999367,1,0,0,rectangle,-37.59998912,-69.60000747,1,0,0,-12.79998875,-4.800006509,1,0,0,1,6,166,22,1,,response5disk_3,TRUE,3,3,"[41,56,118,194,69,37,160,301,143,265,172,295,150,175,260,43,268,14,41,167]",2.1156,rectangle
,,,,,,,,,,,,,FF,,,,,,,,1.5157,,,,,,,,,,,,,,,,,,,,,,60fcfc13c59a84fe5ae390d5,61036474107ed3ceabea3202,2021-07-29_22h31.52.101,Simcolourproject_2stim_asymm_v5,2020.2.10,Win32,60,61025ae37ef11b136ea224fe,,,,,,,,,1507,76.80001259,33.59999406,1,0,0,response1disk,,6,-19.99998885,-9.60000658,1,0,0,rectangle,-19.99998885,-9.60000658,1,0,0,-19.99998885,-9.60000658,1,0,0,1,7,167,58,1,,,,,,,,
,,,,,,,,,,,,,FF,,,,,,,,2.3993,,,,,,,,,,,,,,,,,,,,,,60fcfc13c59a84fe5ae390d5,61036474107ed3ceabea3202,2021-07-29_22h31.52.101,Simcolourproject_2stim_asymm_v5,2020.2.10,Win32,60,61025ae37ef11b136ea224fe,,,,,,,,,1818,45.60006095,-62.40000737,1,0,0,response3disk,,4,24.80001181,-4.800006509,1,0,0,rectangle,24.80001181,-4.800006509,1,0,0,24.80001181,-4.800006509,1,0,0,1,8,168,131,1,,,,,,,,
,,,,,,,,,,,,,FF,,,,,,,,1.2496,,,,,,,,,,,,,,,,,,,,,,60fcfc13c59a84fe5ae390d5,61036474107ed3ceabea3202,2021-07-29_22h31.52.101,Simcolourproject_2stim_asymm_v5,2020.2.10,Win32,60,61025ae37ef11b136ea224fe,,,,,,,,,3368,55.20001227,46.39999425,1,0,0,response1disk,,6,6.400011539,5.599993646,1,0,0,rectangle,6.400011539,5.599993646,1,0,0,6.400011539,5.599993646,1,0,0,1,9,169,29,1,,,,,,,,
,,,,,,,,,,,,,FF,,,,,,,,1.4834,,,,,,,,,,,,,,,,,,,,,,60fcfc13c59a84fe5ae390d5,61036474107ed3ceabea3202,2021-07-29_22h31.52.101,Simcolourproject_2stim_asymm_v5,2020.2.10,Win32,60,61025ae37ef11b136ea224fe,,,,,,,,,2622,-23.1999889,-59.20000732,1,0,0,response5disk,,3,-4.799988627,5.599993646,1,0,0,rectangle,-4.799988627,5.599993646,1,0,0,-4.799988627,5.599993646,1,0,0,1,10,170,66,1,,,,,,,,
,,,,,,,,,,,,,FF,,,,,,,,1.0667,,,,,,,,,,,,,,,,,,,,,,60fcfc13c59a84fe5ae390d5,61036474107ed3ceabea3202,2021-07-29_22h31.52.101,Simcolourproject_2stim_asymm_v5,2020.2.10,Win32,60,61025ae37ef11b136ea224fe,,,,,,,,,3767,54.40001225,80.79999477,1,0,0,response1disk,,7,1.14441E-05,-2.400006473,1,0,0,rectangle,-58.3999406,-40.00000703,1,0,0,29.60006071,11.99999374,1,0,0,1,11,171,68,1,,response5disk_3,TRUE,2,2,"[41,56,118,194,69,37,160,301,143,265,172,295,150,175,260,43,268,14,41,167]",2.148,rectangle
,,,,,,,,,,,,,FF,,,,,,,,1.7496,,,,,,,,,,,,,,,,,,,,,,60fcfc13c59a84fe5ae390d5,61036474107ed3ceabea3202,2021-07-29_22h31.52.101,Simcolourproject_2stim_asymm_v5,2020.2.10,Win32,60,61025ae37ef11b136ea224fe,,,,,,,,,2380,64.80001241,-69.60000747,1,0,0,response3disk,,4,31.20001191,-6.4373E-06,1,0,0,rectangle,31.20001191,-6.4373E-06,1,0,0,31.20001191,-6.4373E-06,1,0,0,1,12,172,9,1,,,,,,,,
,,,,,,,,,,,,,FF,,,,,,,,2.2326,,,,,,,,,,,,,,,,,,,,,,60fcfc13c59a84fe5ae390d5,61036474107ed3ceabea3202,2021-07-29_22h31.52.101,Simcolourproject_2stim_asymm_v5,2020.2.10,Win32,60,61025ae37ef11b136ea224fe,,,,,,,,,2717,-66.39994072,-40.00000703,1,0,0,response5disk,,2,-5.599988639,3.999993622,1,0,0,rectangle,-5.599988639,3.999993622,1,0,0,-5.599988639,3.999993622,1,0,0,1,13,173,99,1,,,,,,,,
,,,,,,,,,,,,,FF,,,,,,,,1.3156,,,,,,,,,,,,,,,,,,,,,,60fcfc13c59a84fe5ae390d5,61036474107ed3ceabea3202,2021-07-29_22h31.52.101,Simcolourproject_2stim_asymm_v5,2020.2.10,Win32,60,61025ae37ef11b136ea224fe,,,,,,,,,240,97.6000129,-12.80000663,1,0,0,response3disk,,5,28.00001186,1.599993587,1,0,0,rectangle,80.00001264,32.79999405,1,0,0,1.600060296,0.799993575,1,0,0,1,14,174,148,1,,response1disk_3,TRUE,6,6,"[41,56,118,194,69,37,160,301,143,265,172,295,150,175,260,43,268,14,41,167]",2.2653,rectangle
,,,,,,,,,,,,,FF,,,,,,,,1.7831,,,,,,,,,,,,,,,,,,,,,,60fcfc13c59a84fe5ae390d5,61036474107ed3ceabea3202,2021-07-29_22h31.52.101,Simcolourproject_2stim_asymm_v5,2020.2.10,Win32,60,61025ae37ef11b136ea224fe,,,,,,,,,2780,-68.79998958,28.79999399,1,0,0,response7disk,,1,-12.79998875,-1.600006461,1,0,0,rectangle,-12.79998875,-1.600006461,1,0,0,-12.79998875,-1.600006461,1,0,0,1,15,175,81,1,,,,,,,,
,,,,,,,,,,,,,FF,,,,,,,,1.683,,,,,,,,,,,,,,,,,,,,,,60fcfc13c59a84fe5ae390d5,61036474107ed3ceabea3202,2021-07-29_22h31.52.101,Simcolourproject_2stim_asymm_v5,2020.2.10,Win32,60,61025ae37ef11b136ea224fe,,,,,,,,,873,-68.79998958,-46.40000713,1,0,0,response5disk,,2,-4.799988627,-10.40000659,1,0,0,rectangle,-4.799988627,-10.40000659,1,0,0,-4.799988627,-10.40000659,1,0,0,1,16,176,135,1,,,,,,,,
,,,,,,,,,,,,,FF,,,,,,,,1.0821,,,,,,,,,,,,,,,,,,,,,,60fcfc13c59a84fe5ae390d5,61036474107ed3ceabea3202,2021-07-29_22h31.52.101,Simcolourproject_2stim_asymm_v5,2020.2.10,Win32,60,61025ae37ef11b136ea224fe,,,,,,,,,1894,-59.99998945,-26.40000683,1,0,0,response5disk,,2,6.400011539,1.599993587,1,0,0,rectangle,6.400011539,1.599993587,1,0,0,6.400011539,1.599993587,1,0,0,1,17,177,24,1,,,,,,,,
,,,,,,,,,,,,,FF,,,,,,,,1.2166,,,,,,,,,,,,,,,,,,,,,,60fcfc13c59a84fe5ae390d5,61036474107ed3ceabea3202,2021-07-29_22h31.52.101,Simcolourproject_2stim_asymm_v5,2020.2.10,Win32,60,61025ae37ef11b136ea224fe,,,,,,,,,400,86.40001273,33.59999406,1,0,0,response1disk,,6,1.14441E-05,9.599993706,1,0,0,rectangle,1.14441E-05,9.599993706,1,0,0,1.14441E-05,9.599993706,1,0,0,1,18,178,117,1,,,,,,,,
,,,,,,,,,,,,,FF,,,,,,,,1.9659,,,,,,,,,,,,,,,,,,,,,,60fcfc13c59a84fe5ae390d5,61036474107ed3ceabea3202,2021-07-29_22h31.52.101,Simcolourproject_2stim_asymm_v5,2020.2.10,Win32,60,61025ae37ef11b136ea224fe,,,,,,,,,556,39.20001203,-82.40000767,1,0,0,response3disk,,4,-11.19998872,7.19999367,1,0,0,rectangle,-11.19998872,7.19999367,1,0,0,-11.19998872,7.19999367,1,0,0,1,19,179,40,1,,,,,,,,
,,,,,,,,,,,,,FF,,,,,,,,1.4328,,,,,,,,,,,,,,,,,,,,,,60fcfc13c59a84fe5ae390d5,61036474107ed3ceabea3202,2021-07-29_22h31.52.101,Simcolourproject_2stim_asymm_v5,2020.2.10,Win32,60,61025ae37ef11b136ea224fe,,,,,,,,,4249,-37.59998912,-67.20000744,1,0,0,response5disk,,3,-3.999988616,-3.200006485,1,0,0,rectangle,-3.999988616,-3.200006485,1,0,0,-3.999988616,-3.200006485,1,0,0,1,20,180,38,1,,,,,,,,
,,,,,,,,,,,,,FF,,,,,,,,1.4989,,,,,,,,,,,,,,,,,,,,,,60fcfc13c59a84fe5ae390d5,61036474107ed3ceabea3202,2021-07-29_22h31.52.101,Simcolourproject_2stim_asymm_v5,2020.2.10,Win32,60,61025ae37ef11b136ea224fe,,,,,,,,,2140,33.60006077,63.19997009,1,0,0,response1disk,,7,-7.199988663,3.999993622,1,0,0,rectangle,-7.199988663,3.999993622,1,0,0,-7.199988663,3.999993622,1,0,0,1,21,181,133,1,,,,,,,,
,,,,,,,,,,,,,FF,,,,,,,,2.0832,,,,,,,,,,,,,,,,,,,,,,60fcfc13c59a84fe5ae390d5,61036474107ed3ceabea3202,2021-07-29_22h31.52.101,Simcolourproject_2stim_asymm_v5,2020.2.10,Win32,60,61025ae37ef11b136ea224fe,,,,,,,,,1260,-38.3999403,-80.00000763,1,0,0,response5disk,,3,2.40001148,6.399993658,1,0,0,rectangle,2.40001148,6.399993658,1,0,0,2.40001148,6.399993658,1,0,0,1,22,182,85,1,,,,,,,,
,,,,,,,,,,,,,FF,,,,,,,,1.6333,,,,,,,,,,,,,,,,,,,,,,60fcfc13c59a84fe5ae390d5,61036474107ed3ceabea3202,2021-07-29_22h31.52.101,Simcolourproject_2stim_asymm_v5,2020.2.10,Win32,60,61025ae37ef11b136ea224fe,,,,,,,,,1405,56.00001228,-19.20000672,1,0,0,response3disk,,5,11.20001161,-0.800006449,1,0,0,rectangle,11.20001161,-0.800006449,1,0,0,11.20001161,-0.800006449,1,0,0,1,23,183,79,1,,,,,,,,
,,,,,,,,,,,,,FF,,,,,,,,1.6002,,,,,,,,,,,,,,,,,,,,,,60fcfc13c59a84fe5ae390d5,61036474107ed3ceabea3202,2021-07-29_22h31.52.101,Simcolourproject_2stim_asymm_v5,2020.2.10,Win32,60,61025ae37ef11b136ea224fe,,,,,,,,,1158,65.60001242,-44.8000071,1,0,0,response3disk,,5,-0.799988568,-6.400006533,1,0,0,rectangle,-0.799988568,-6.400006533,1,0,0,-0.799988568,-6.400006533,1,0,0,1,24,184,13,1,,,,,,,,
,,,,,,,,,,,,,FF,,,,,,,,1.2334,,,,,,,,,,,,,,,,,,,,,,60fcfc13c59a84fe5ae390d5,61036474107ed3ceabea3202,2021-07-29_22h31.52.101,Simcolourproject_2stim_asymm_v5,2020.2.10,Win32,60,61025ae37ef11b136ea224fe,,,,,,,,,3774,-43.99998921,-66.40000743,1,0,0,response5disk,,3,1.600060296,13.59999377,1,0,0,rectangle,1.600060296,13.59999377,1,0,0,1.600060296,13.59999377,1,0,0,1,25,185,95,1,,,,,,,,
,,,,,,,,,,,,,FF,,,,,,,,1.3171,,,,,,,,,,,,,,,,,,,,,,60fcfc13c59a84fe5ae390d5,61036474107ed3ceabea3202,2021-07-29_22h31.52.101,Simcolourproject_2stim_asymm_v5,2020.2.10,Win32,60,61025ae37ef11b136ea224fe,,,,,,,,,3889,57.6000123,-27.20000684,1,0,0,response3disk,,5,-11.99998873,7.19999367,1,0,0,rectangle,-11.99998873,7.19999367,1,0,0,-11.99998873,7.19999367,1,0,0,1,26,186,60,1,,,,,,,,
,,,,,,,,,,,,,FF,,,,,,,,1.1834,,,,,,,,,,,,,,,,,,,,,,60fcfc13c59a84fe5ae390d5,61036474107ed3ceabea3202,2021-07-29_22h31.52.101,Simcolourproject_2stim_asymm_v5,2020.2.10,Win32,60,61025ae37ef11b136ea224fe,,,,,,,,,2901,-71.99998963,-25.60000682,1,0,0,response5disk,,2,-5.599988639,-4.000006497,1,0,0,rectangle,-5.599988639,-4.000006497,1,0,0,-5.599988639,-4.000006497,1,0,0,1,27,187,128,1,,,,,,,,
,,,,,,,,,,,,,FF,,,,,,,,2.4495,,,,,,,,,,,,,,,,,,,,,,60fcfc13c59a84fe5ae390d5,61036474107ed3ceabea3202,2021-07-29_22h31.52.101,Simcolourproject_2stim_asymm_v5,2020.2.10,Win32,60,61025ae37ef11b136ea224fe,,,,,,,,,3806,29.60006071,-68.00000745,1,0,0,response3disk,,4,0.800011456,-6.400006533,1,0,0,rectangle,0.800011456,-6.400006533,1,0,0,0.800011456,-6.400006533,1,0,0,1,28,188,1,1,,,,,,,,
,,,,,,,,,,,,,FF,,,,,,,,1.6994,,,,,,,,,,,,,,,,,,,,,,60fcfc13c59a84fe5ae390d5,61036474107ed3ceabea3202,2021-07-29_22h31.52.101,Simcolourproject_2stim_asymm_v5,2020.2.10,Win32,60,61025ae37ef11b136ea224fe,,,,,,,,,2217,76.80001259,40.79999417,1,0,0,response1disk,,6,-14.39993994,7.19999367,1,0,0,rectangle,-14.39993994,7.19999367,1,0,0,-14.39993994,7.19999367,1,0,0,1,29,189,73,1,,,,,,,,
,,,,,,,,,,,,,FF,,,,,,,,1.1667,,,,,,,,,,,,,,,,,,,,,,60fcfc13c59a84fe5ae390d5,61036474107ed3ceabea3202,2021-07-29_22h31.52.101,Simcolourproject_2stim_asymm_v5,2020.2.10,Win32,60,61025ae37ef11b136ea224fe,,,,,,,,,3310,93.60001284,44.79999423,1,0,0,response1disk,,6,3.200011492,4.799993634,1,0,0,rectangle,3.200011492,4.799993634,1,0,0,3.200011492,4.799993634,1,0,0,1,30,190,113,1,,,,,,,,
,,,,,,,,,,,,,FF,,,,,,,,0.9668,,,,,,,,,,,,,,,,,,,,,,60fcfc13c59a84fe5ae390d5,61036474107ed3ceabea3202,2021-07-29_22h31.52.101,Simcolourproject_2stim_asymm_v5,2020.2.10,Win32,60,61025ae37ef11b136ea224fe,,,,,,,,,2977,85.60001272,-31.2000069,1,0,0,response3disk,,5,20.00001174,-6.400006533,1,0,0,rectangle,20.00001174,-6.400006533,1,0,0,20.00001174,-6.400006533,1,0,0,1,31,191,130,1,,,,,,,,
,,,,,,,,,,,,,FF,,,,,,,,2.6999,,,,,,,,,,,,,,,,,,,,,,60fcfc13c59a84fe5ae390d5,61036474107ed3ceabea3202,2021-07-29_22h31.52.101,Simcolourproject_2stim_asymm_v5,2020.2.10,Win32,60,61025ae37ef11b136ea224fe,,,,,,,,,3576,34.40001196,68.79999459,1,0,0,response1disk,,7,0.800011456,-2.400006473,1,0,0,rectangle,0.800011456,-2.400006473,1,0,0,0.800011456,-2.400006473,1,0,0,1,32,192,33,1,,,,,,,,
,,,,,,,,,,,,,FF,,,,,,,,1.8837,,,,,,,,,,,,,,,,,,,,,,60fcfc13c59a84fe5ae390d5,61036474107ed3ceabea3202,2021-07-29_22h31.52.101,Simcolourproject_2stim_asymm_v5,2020.2.10,Win32,60,61025ae37ef11b136ea224fe,,,,,,,,,1635,80.00001264,42.39999419,1,0,0,response1disk,,6,2.40001148,7.19999367,1,0,0,rectangle,88.80001277,36.79999411,1,0,0,9.600060415,2.399993598,1,0,0,1,33,193,89,1,,response1disk_3,TRUE,6,6,"[41,56,118,194,69,37,160,301,143,265,172,295,150,175,260,43,268,14,41,167]",2.5693,rectangle
,,,,,,,,,,,,,FF,,,,,,,,2.0997,,,,,,,,,,,,,,,,,,,,,,60fcfc13c59a84fe5ae390d5,61036474107ed3ceabea3202,2021-07-29_22h31.52.101,Simcolourproject_2stim_asymm_v5,2020.2.10,Win32,60,61025ae37ef11b136ea224fe,,,,,,,,,2320,35.20001197,-60.80000734,1,0,0,response3disk,,4,9.600060415,-8.000006557,1,0,0,rectangle,9.600060415,-8.000006557,1,0,0,9.600060415,-8.000006557,1,0,0,1,34,194,28,1,,,,,,,,
,,,,,,,,,,,,,FF,,,,,,,,3.2166,,,,,,,,,,,,,,,,,,,,,,60fcfc13c59a84fe5ae390d5,61036474107ed3ceabea3202,2021-07-29_22h31.52.101,Simcolourproject_2stim_asymm_v5,2020.2.10,Win32,60,61025ae37ef11b136ea224fe,,,,,,,,,759,43.20001209,-61.60000736,1,0,0,response3disk,,4,23.20001179,4.799993634,1,0,0,rectangle,23.20001179,4.799993634,1,0,0,23.20001179,4.799993634,1,0,0,1,35,195,90,1,,,,,,,,
,,,,,,,,,,,,,FF,,,,,,,,1.0161,,,,,,,,,,,,,,,,,,,,,,60fcfc13c59a84fe5ae390d5,61036474107ed3ceabea3202,2021-07-29_22h31.52.101,Simcolourproject_2stim_asymm_v5,2020.2.10,Win32,60,61025ae37ef11b136ea224fe,,,,,,,,,2414,-27.99998897,-70.40000749,1,0,0,response5disk,,3,4.800011516,0.799993575,1,0,0,rectangle,4.800011516,0.799993575,1,0,0,4.800011516,0.799993575,1,0,0,1,36,196,3,1,,,,,,,,
,,,,,,,,,,,,,FF,,,,,,,,8.1816,,,,,,,,,,,,,,,,,,,,,,60fcfc13c59a84fe5ae390d5,61036474107ed3ceabea3202,2021-07-29_22h31.52.101,Simcolourproject_2stim_asymm_v5,2020.2.10,Win32,60,61025ae37ef11b136ea224fe,,,,,,,,,2406,47.20001215,-72.80000752,1,0,0,response3disk,,4,9.600060415,12.79999375,1,0,0,rectangle,9.600060415,12.79999375,1,0,0,9.600060415,12.79999375,1,0,0,1,37,197,101,1,,,,,,,,
,,,,,,,,,,,,,FF,,,,,,,,2.2328,,,,,,,,,,,,,,,,,,,,,,60fcfc13c59a84fe5ae390d5,61036474107ed3ceabea3202,2021-07-29_22h31.52.101,Simcolourproject_2stim_asymm_v5,2020.2.10,Win32,60,61025ae37ef11b136ea224fe,,,,,,,,,791,-41.59998918,-71.2000075,1,0,0,response5disk,,3,-10.39993988,-11.2000066,1,0,0,rectangle,-10.39993988,-11.2000066,1,0,0,-10.39993988,-11.2000066,1,0,0,1,38,198,125,1,,,,,,,,
,,,,,,,,,,,,,FF,,,,,,,,1.0337,,,,,,,,,,,,,,,,,,,,,,60fcfc13c59a84fe5ae390d5,61036474107ed3ceabea3202,2021-07-29_22h31.52.101,Simcolourproject_2stim_asymm_v5,2020.2.10,Win32,60,61025ae37ef11b136ea224fe,,,,,,,,,2148,66.40001243,-37.600007,1,0,0,response3disk,,5,-5.599988639,-8.800006568,1,0,0,rectangle,-5.599988639,-8.800006568,1,0,0,-5.599988639,-8.800006568,1,0,0,1,39,199,51,1,,,,,,,,
,,,,,,,,,,,,,FF,,,,,,,,1.1326,,,,,,,,,,,,,,,,,,,,,,60fcfc13c59a84fe5ae390d5,61036474107ed3ceabea3202,2021-07-29_22h31.52.101,Simcolourproject_2stim_asymm_v5,2020.2.10,Win32,60,61025ae37ef11b136ea224fe,,,,,,,,,3255,-31.99998903,-80.80000764,1,0,0,response5disk,,3,12.80001163,2.399993598,1,0,0,rectangle,12.80001163,2.399993598,1,0,0,12.80001163,2.399993598,1,0,0,1,40,200,63,1,,,,,,,,
,,,,,,,,,,,,,FF,,,,,,,,1.0665,,,,,,,,,,,,,,,,,,,,,,60fcfc13c59a84fe5ae390d5,61036474107ed3ceabea3202,2021-07-29_22h31.52.101,Simcolourproject_2stim_asymm_v5,2020.2.10,Win32,60,61025ae37ef11b136ea224fe,,,,,,,,,2522,80.00001264,-37.600007,1,0,0,response3disk,,5,1.14441E-05,-1.600006461,1,0,0,rectangle,1.14441E-05,-1.600006461,1,0,0,1.14441E-05,-1.600006461,1,0,0,1,41,201,84,1,,,,,,,,
,,,,,,,,,,,,,FF,,,,,,,,1.2861,,,,,,,,,,,,,,,,,,,,,,60fcfc13c59a84fe5ae390d5,61036474107ed3ceabea3202,2021-07-29_22h31.52.101,Simcolourproject_2stim_asymm_v5,2020.2.10,Win32,60,61025ae37ef11b136ea224fe,,,,,,,,,2034,-60.79998946,46.39999425,1,0,0,response7disk,,1,17.60006053,7.999993682,1,0,0,rectangle,17.60006053,7.999993682,1,0,0,17.60006053,7.999993682,1,0,0,1,42,202,11,1,,,,,,,,
,,,,,,,,,,,,,FF,,,,,,,,4.7163,,,,,,,,,,,,,,,,,,,,,,60fcfc13c59a84fe5ae390d5,61036474107ed3ceabea3202,2021-07-29_22h31.52.101,Simcolourproject_2stim_asymm_v5,2020.2.10,Win32,60,61025ae37ef11b136ea224fe,,,,,,,,,2548,40.00001204,-56.80000728,1,0,0,response3disk,,4,9.600060415,-12.00000662,1,0,0,rectangle,9.600060415,-12.00000662,1,0,0,9.600060415,-12.00000662,1,0,0,1,43,203,45,1,,,,,,,,
,,,,,,,,,,,,,FF,,,,,,,,1.5499,,,,,,,,,,,,,,,,,,,,,,60fcfc13c59a84fe5ae390d5,61036474107ed3ceabea3202,2021-07-29_22h31.52.101,Simcolourproject_2stim_asymm_v5,2020.2.10,Win32,60,61025ae37ef11b136ea224fe,,,,,,,,,480,41.60006089,76.79999471,1,0,0,response1disk,,7,-5.599988639,4.799993634,1,0,0,rectangle,-5.599988639,4.799993634,1,0,0,-5.599988639,4.799993634,1,0,0,1,44,204,134,1,,,,,,,,
,,,,,,,,,,,,,FF,,,,,,,,2.2164,,,,,,,,,,,,,,,,,,,,,,60fcfc13c59a84fe5ae390d5,61036474107ed3ceabea3202,2021-07-29_22h31.52.101,Simcolourproject_2stim_asymm_v5,2020.2.10,Win32,60,61025ae37ef11b136ea224fe,,,,,,,,,3228,72.00001252,-26.40000683,1,0,0,response3disk,,5,-4.799988627,4.799993634,1,0,0,rectangle,-4.799988627,4.799993634,1,0,0,-4.799988627,4.799993634,1,0,0,1,45,205,157,1,,,,,,,,
,,,,,,,,,,,,,FF,,,,,,,,1.0339,,,,,,,,,,,,,,,,,,,,,,60fcfc13c59a84fe5ae390d5,61036474107ed3ceabea3202,2021-07-29_22h31.52.101,Simcolourproject_2stim_asymm_v5,2020.2.10,Win32,60,61025ae37ef11b136ea224fe,,,,,,,,,3273,99.20001292,60.79999447,1,0,0,response1disk,,6,-6.399939823,-12.00000662,1,0,0,rectangle,-6.399939823,-12.00000662,1,0,0,-6.399939823,-12.00000662,1,0,0,1,46,206,115,1,,,,,,,,
,,,,,,,,,,,,,FF,,,,,,,,1.5996,,,,,,,,,,,,,,,,,,,,,,60fcfc13c59a84fe5ae390d5,61036474107ed3ceabea3202,2021-07-29_22h31.52.101,Simcolourproject_2stim_asymm_v5,2020.2.10,Win32,60,61025ae37ef11b136ea224fe,,,,,,,,,2268,45.60006095,-46.40000713,1,0,0,response3disk,,4,15.20001167,-12.00000662,1,0,0,rectangle,15.20001167,-12.00000662,1,0,0,15.20001167,-12.00000662,1,0,0,1,47,207,26,1,,,,,,,,
,,,,,,,,,,,,,FF,,,,,,,,1.9161,,,,,,,,,,,,,,,,,,,,,,60fcfc13c59a84fe5ae390d5,61036474107ed3ceabea3202,2021-07-29_22h31.52.101,Simcolourproject_2stim_asymm_v5,2020.2.10,Win32,60,61025ae37ef11b136ea224fe,,,,,,,,,696,64.0000124,39.99999416,1,0,0,response1disk,,6,6.400011539,5.599993646,1,0,0,rectangle,6.400011539,5.599993646,1,0,0,6.400011539,5.599993646,1,0,0,1,48,208,55,1,,,,,,,,
,,,,,,,,,,,,,FF,,,,,,,,1.3335,,,,,,,,,,,,,,,,,,,,,,60fcfc13c59a84fe5ae390d5,61036474107ed3ceabea3202,2021-07-29_22h31.52.101,Simcolourproject_2stim_asymm_v5,2020.2.10,Win32,60,61025ae37ef11b136ea224fe,,,,,,,,,110,76.80001259,27.99999398,1,0,0,response1disk,,6,16.00001168,7.19999367,1,0,0,rectangle,16.00001168,7.19999367,1,0,0,16.00001168,7.19999367,1,0,0,1,49,209,50,1,,,,,,,,
,,,,,,,,,,,,,FF,,,,,,,,1.1662,,,,,,,,,,,,,,,,,,,,,,60fcfc13c59a84fe5ae390d5,61036474107ed3ceabea3202,2021-07-29_22h31.52.101,Simcolourproject_2stim_asymm_v5,2020.2.10,Win32,60,61025ae37ef11b136ea224fe,,,,,,,,,3746,-60.79998946,-43.20000708,1,0,0,response5disk,,2,8.000011563,-4.000006497,1,0,0,rectangle,8.000011563,-4.000006497,1,0,0,8.000011563,-4.000006497,1,0,0,1,50,210,16,1,,,,,,,,
,,,,,,,,,,,,,FF,,,,,,,,1.1334,,,,,,,,,,,,,,,,,,,,,,60fcfc13c59a84fe5ae390d5,61036474107ed3ceabea3202,2021-07-29_22h31.52.101,Simcolourproject_2stim_asymm_v5,2020.2.10,Win32,60,61025ae37ef11b136ea224fe,,,,,,,,,577,60.80001235,-48.00000715,1,0,0,response3disk,,5,18.40001172,13.59999377,1,0,0,rectangle,18.40001172,13.59999377,1,0,0,18.40001172,13.59999377,1,0,0,1,51,211,109,1,,,,,,,,
,,,,,,,,,,,,,FF,,,,,,,,1.5007,,,,,,,,,,,,,,,,,,,,,,60fcfc13c59a84fe5ae390d5,61036474107ed3ceabea3202,2021-07-29_22h31.52.101,Simcolourproject_2stim_asymm_v5,2020.2.10,Win32,60,61025ae37ef11b136ea224fe,,,,,,,,,1323,-37.59998912,-76.80000758,1,0,0,response5disk,,3,-7.199988663,-1.600006461,1,0,0,rectangle,-7.199988663,-1.600006461,1,0,0,-7.199988663,-1.600006461,1,0,0,1,52,212,145,1,,,,,,,,
,,,,,,,,,,,,,FF,,,,,,,,1.2159,,,,,,,,,,,,,,,,,,,,,,60fcfc13c59a84fe5ae390d5,61036474107ed3ceabea3202,2021-07-29_22h31.52.101,Simcolourproject_2stim_asymm_v5,2020.2.10,Win32,60,61025ae37ef11b136ea224fe,,,,,,,,,2311,80.80001265,-47.20000714,1,0,0,response3disk,,5,10.4000116,3.19999361,1,0,0,rectangle,10.4000116,3.19999361,1,0,0,10.4000116,3.19999361,1,0,0,1,53,213,142,1,,,,,,,,
,,,,,,,,,,,,,FF,,,,,,,,2.2826,,,,,,,,,,,,,,,,,,,,,,60fcfc13c59a84fe5ae390d5,61036474107ed3ceabea3202,2021-07-29_22h31.52.101,Simcolourproject_2stim_asymm_v5,2020.2.10,Win32,60,61025ae37ef11b136ea224fe,,,,,,,,,3085,34.40001196,62.39999449,1,0,0,response1disk,,7,-10.39993988,-3.200006485,1,0,0,rectangle,-10.39993988,-3.200006485,1,0,0,-10.39993988,-3.200006485,1,0,0,1,54,214,67,1,,,,,,,,
,,,,,,,,,,,,,FF,,,,,,,,5.1655,,,,,,,,,,,,,,,,,,,,,,60fcfc13c59a84fe5ae390d5,61036474107ed3ceabea3202,2021-07-29_22h31.52.101,Simcolourproject_2stim_asymm_v5,2020.2.10,Win32,60,61025ae37ef11b136ea224fe,,,,,,,,,2433,-31.99998903,-46.40000713,1,0,0,response5disk,,3,15.20001167,5.599993646,1,0,0,rectangle,15.20001167,5.599993646,1,0,0,15.20001167,5.599993646,1,0,0,1,55,215,80,1,,,,,,,,
,,,,,,,,,,,,,FF,,,,,,,,1.0174,,,,,,,,,,,,,,,,,,,,,,60fcfc13c59a84fe5ae390d5,61036474107ed3ceabea3202,2021-07-29_22h31.52.101,Simcolourproject_2stim_asymm_v5,2020.2.10,Win32,60,61025ae37ef11b136ea224fe,,,,,,,,,351,-19.19998884,-59.20000732,1,0,0,response5disk,,3,16.00001168,15.19999379,1,0,0,rectangle,16.00001168,15.19999379,1,0,0,16.00001168,15.19999379,1,0,0,1,56,216,122,1,,,,,,,,
,,,,,,,,,,,,,FF,,,,,,,,0.9832,,,,,,,,,,,,,,,,,,,,,,60fcfc13c59a84fe5ae390d5,61036474107ed3ceabea3202,2021-07-29_22h31.52.101,Simcolourproject_2stim_asymm_v5,2020.2.10,Win32,60,61025ae37ef11b136ea224fe,,,,,,,,,4254,-48.79998928,-32.00000691,1,0,0,response5disk,,2,-5.599988639,-6.4373E-06,1,0,0,rectangle,-5.599988639,-6.4373E-06,1,0,0,-5.599988639,-6.4373E-06,1,0,0,1,57,217,136,1,,,,,,,,
,,,,,,,,,,,,,FF,,,,,,,,1.4671,,,,,,,,,,,,,,,,,,,,,,60fcfc13c59a84fe5ae390d5,61036474107ed3ceabea3202,2021-07-29_22h31.52.101,Simcolourproject_2stim_asymm_v5,2020.2.10,Win32,60,61025ae37ef11b136ea224fe,,,,,,,,,3598,27.20001185,-76.80000758,1,0,0,response3disk,,4,16.00001168,-5.600006521,1,0,0,rectangle,16.00001168,-5.600006521,1,0,0,16.00001168,-5.600006521,1,0,0,1,58,218,14,1,,,,,,,,
,,,,,,,,,,,,,FF,,,,,,,,1.3839,,,,,,,,,,,,,,,,,,,,,,60fcfc13c59a84fe5ae390d5,61036474107ed3ceabea3202,2021-07-29_22h31.52.101,Simcolourproject_2stim_asymm_v5,2020.2.10,Win32,60,61025ae37ef11b136ea224fe,,,,,,,,,2568,77.6000126,25.59999394,1,0,0,response1disk,,6,4.800011516,-3.200006485,1,0,0,rectangle,4.800011516,-3.200006485,1,0,0,4.800011516,-3.200006485,1,0,0,1,59,219,127,1,,,,,,,,
,,,,,,,,,,,,,FF,,,,,,,,1.8,,,,,,,,,,,,,,,,,,,,,,60fcfc13c59a84fe5ae390d5,61036474107ed3ceabea3202,2021-07-29_22h31.52.101,Simcolourproject_2stim_asymm_v5,2020.2.10,Win32,60,61025ae37ef11b136ea224fe,,,,,,,,,3301,39.20001203,-35.20000696,1,0,0,response3disk,,5,4.800011516,-11.2000066,1,0,0,rectangle,4.800011516,-11.2000066,1,0,0,4.800011516,-11.2000066,1,0,0,1,60,220,138,1,,,,,,,,
,,,,,,,,,,,,,FF,,,,,,,,1.1843,,,,,,,,,,,,,,,,,,,,,,60fcfc13c59a84fe5ae390d5,61036474107ed3ceabea3202,2021-07-29_22h31.52.101,Simcolourproject_2stim_asymm_v5,2020.2.10,Win32,60,61025ae37ef11b136ea224fe,,,,,,,,,3525,28.00001186,-61.60000736,1,0,0,response3disk,,4,12.80001163,-4.800006509,1,0,0,rectangle,12.80001163,-4.800006509,1,0,0,12.80001163,-4.800006509,1,0,0,1,61,221,17,1,,,,,,,,
,,,,,,,,,,,,,FF,,,,,,,,2.3663,,,,,,,,,,,,,,,,,,,,,,60fcfc13c59a84fe5ae390d5,61036474107ed3ceabea3202,2021-07-29_22h31.52.101,Simcolourproject_2stim_asymm_v5,2020.2.10,Win32,60,61025ae37ef11b136ea224fe,,,,,,,,,4042,57.6000123,-41.60000706,1,0,0,response3disk,,5,24.80001181,8.799993694,1,0,0,rectangle,24.80001181,8.799993694,1,0,0,24.80001181,8.799993694,1,0,0,1,62,222,15,1,,,,,,,,
,,,,,,,,,,,,,FF,,,,,,,,1.0326,,,,,,,,,,,,,,,,,,,,,,60fcfc13c59a84fe5ae390d5,61036474107ed3ceabea3202,2021-07-29_22h31.52.101,Simcolourproject_2stim_asymm_v5,2020.2.10,Win32,60,61025ae37ef11b136ea224fe,,,,,,,,,331,86.40001273,-40.80000705,1,0,0,response3disk,,5,8.800011575,12.79999375,1,0,0,rectangle,8.800011575,12.79999375,1,0,0,8.800011575,12.79999375,1,0,0,1,63,223,118,1,,,,,,,,
,,,,,,,,,,,,,FF,,,,,,,,1.2825,,,,,,,,,,,,,,,,,,,,,,60fcfc13c59a84fe5ae390d5,61036474107ed3ceabea3202,2021-07-29_22h31.52.101,Simcolourproject_2stim_asymm_v5,2020.2.10,Win32,60,61025ae37ef11b136ea224fe,,,,,,,,,3539,64.80001241,59.99999446,1,0,0,response1disk,,6,-22.39994006,-8.800006568,1,0,0,rectangle,-22.39994006,-8.800006568,1,0,0,-22.39994006,-8.800006568,1,0,0,1,64,224,6,1,,,,,,,,
,,,,,,,,,,,,,FF,,,,,,,,1.7825,,,,,,,,,,,,,,,,,,,,,,60fcfc13c59a84fe5ae390d5,61036474107ed3ceabea3202,2021-07-29_22h31.52.101,Simcolourproject_2stim_asymm_v5,2020.2.10,Win32,60,61025ae37ef11b136ea224fe,,,,,,,,,3661,-58.3999406,38.39999413,1,0,0,response7disk,,1,-10.39993988,7.19999367,1,0,0,rectangle,-10.39993988,7.19999367,1,0,0,-10.39993988,7.19999367,1,0,0,1,65,225,137,1,,,,,,,,
,,,,,,,,,,,,,FF,,,,,,,,1.4333,,,,,,,,,,,,,,,,,,,,,,60fcfc13c59a84fe5ae390d5,61036474107ed3ceabea3202,2021-07-29_22h31.52.101,Simcolourproject_2stim_asymm_v5,2020.2.10,Win32,60,61025ae37ef11b136ea224fe,,,,,,,,,2077,80.80001265,-46.40000713,1,0,0,response3disk,,5,20.00001174,-1.600006461,1,0,0,rectangle,20.00001174,-1.600006461,1,0,0,20.00001174,-1.600006461,1,0,0,1,66,226,121,1,,,,,,,,
,,,,,,,,,,,,,FF,,,,,,,,1.4832,,,,,,,,,,,,,,,,,,,,,,60fcfc13c59a84fe5ae390d5,61036474107ed3ceabea3202,2021-07-29_22h31.52.101,Simcolourproject_2stim_asymm_v5,2020.2.10,Win32,60,61025ae37ef11b136ea224fe,,,,,,,,,107,90.40001279,-28.80000687,1,0,0,response3disk,,5,3.200011492,-1.600006461,1,0,0,rectangle,3.200011492,-1.600006461,1,0,0,3.200011492,-1.600006461,1,0,0,1,67,227,88,1,,,,,,,,
,,,,,,,,,,,,,FF,,,,,,,,1.1665,,,,,,,,,,,,,,,,,,,,,,60fcfc13c59a84fe5ae390d5,61036474107ed3ceabea3202,2021-07-29_22h31.52.101,Simcolourproject_2stim_asymm_v5,2020.2.10,Win32,60,61025ae37ef11b136ea224fe,,,,,,,,,49,47.20001215,-80.80000764,1,0,0,response3disk,,4,-21.59998888,4.799993634,1,0,0,rectangle,-21.59998888,4.799993634,1,0,0,-21.59998888,4.799993634,1,0,0,1,68,228,46,1,,,,,,,,
,,,,,,,,,,,,,FF,,,,,,,,2.0835,,,,,,,,,,,,,,,,,,,,,,60fcfc13c59a84fe5ae390d5,61036474107ed3ceabea3202,2021-07-29_22h31.52.101,Simcolourproject_2stim_asymm_v5,2020.2.10,Win32,60,61025ae37ef11b136ea224fe,,,,,,,,,314,54.40001225,35.19996967,1,0,0,response1disk,,6,-15.99998879,-12.80000663,1,0,0,rectangle,-15.99998879,-12.80000663,1,0,0,-15.99998879,-12.80000663,1,0,0,1,69,229,57,1,,,,,,,,
,,,,,,,,,,,,,FF,,,,,,,,1.9503,,,,,,,,,,,,,,,,,,,,,,60fcfc13c59a84fe5ae390d5,61036474107ed3ceabea3202,2021-07-29_22h31.52.101,Simcolourproject_2stim_asymm_v5,2020.2.10,Win32,60,61025ae37ef11b136ea224fe,,,,,,,,,1036,-14.39993994,-73.60000753,1,0,0,response5disk,,3,28.00001186,-6.400006533,1,0,0,rectangle,28.00001186,-6.400006533,1,0,0,28.00001186,-6.400006533,1,0,0,1,70,230,126,1,,,,,,,,
,,,,,,,,,,,,,FF,,,,,,,,1.1171,,,,,,,,,,,,,,,,,,,,,,60fcfc13c59a84fe5ae390d5,61036474107ed3ceabea3202,2021-07-29_22h31.52.101,Simcolourproject_2stim_asymm_v5,2020.2.10,Win32,60,61025ae37ef11b136ea224fe,,,,,,,,,1312,31.20001191,-72.00000751,1,0,0,response3disk,,4,18.40001172,-7.200006545,1,0,0,rectangle,18.40001172,-7.200006545,1,0,0,18.40001172,-7.200006545,1,0,0,1,71,231,7,1,,,,,,,,
,,,,,,,,,,,,,FF,,,,,,,,2.9831,,,,,,,,,,,,,,,,,,,,,,60fcfc13c59a84fe5ae390d5,61036474107ed3ceabea3202,2021-07-29_22h31.52.101,Simcolourproject_2stim_asymm_v5,2020.2.10,Win32,60,61025ae37ef11b136ea224fe,,,,,,,,,3422,40.80001205,-51.2000072,1,0,0,response3disk,,4,24.0000118,3.19999361,1,0,0,rectangle,24.0000118,3.19999361,1,0,0,24.0000118,3.19999361,1,0,0,1,72,232,92,1,,,,,,,,
,,,,,,,,,,,,,FF,,,,,,,,1.1496,,,,,,,,,,,,,,,,,,,,,,60fcfc13c59a84fe5ae390d5,61036474107ed3ceabea3202,2021-07-29_22h31.52.101,Simcolourproject_2stim_asymm_v5,2020.2.10,Win32,60,61025ae37ef11b136ea224fe,,,,,,,,,3642,72.00001252,-30.40000689,1,0,0,response3disk,,5,22.40001178,8.799993694,1,0,0,rectangle,22.40001178,8.799993694,1,0,0,22.40001178,8.799993694,1,0,0,1,73,233,65,1,,,,,,,,
,,,,,,,,,,,,,FF,,,,,,,,2.2664,,,,,,,,,,,,,,,,,,,,,,60fcfc13c59a84fe5ae390d5,61036474107ed3ceabea3202,2021-07-29_22h31.52.101,Simcolourproject_2stim_asymm_v5,2020.2.10,Win32,60,61025ae37ef11b136ea224fe,,,,,,,,,1455,-72.79998964,-19.20000672,1,0,0,response5disk,,2,8.000011563,-12.00000662,1,0,0,rectangle,8.000011563,-12.00000662,1,0,0,8.000011563,-12.00000662,1,0,0,1,74,234,159,1,,,,,,,,
,,,,,,,,,,,,,FF,,,,,,,,1.1003,,,,,,,,,,,,,,,,,,,,,,60fcfc13c59a84fe5ae390d5,61036474107ed3ceabea3202,2021-07-29_22h31.52.101,Simcolourproject_2stim_asymm_v5,2020.2.10,Win32,60,61025ae37ef11b136ea224fe,,,,,,,,,3705,-20.79998887,83.19997039,1,0,0,response7disk,,0,2.40001148,-4.000006497,1,0,0,rectangle,2.40001148,-4.000006497,1,0,0,2.40001148,-4.000006497,1,0,0,1,75,235,158,1,,,,,,,,
,,,,,,,,,,,,,FF,,,,,,,,1.2331,,,,,,,,,,,,,,,,,,,,,,60fcfc13c59a84fe5ae390d5,61036474107ed3ceabea3202,2021-07-29_22h31.52.101,Simcolourproject_2stim_asymm_v5,2020.2.10,Win32,60,61025ae37ef11b136ea224fe,,,,,,,,,92,-61.59998947,-76.80000758,1,0,0,response5disk,,3,1.14441E-05,11.19999373,1,0,0,rectangle,1.14441E-05,11.19999373,1,0,0,1.14441E-05,11.19999373,1,0,0,1,76,236,4,1,,,,,,,,
,,,,,,,,,,,,,FF,,,,,,,,1.2334,,,,,,,,,,,,,,,,,,,,,,60fcfc13c59a84fe5ae390d5,61036474107ed3ceabea3202,2021-07-29_22h31.52.101,Simcolourproject_2stim_asymm_v5,2020.2.10,Win32,60,61025ae37ef11b136ea224fe,,,,,,,,,3803,40.00001204,-41.60000706,1,0,0,response3disk,,4,-11.99998873,4.799993634,1,0,0,rectangle,-11.99998873,4.799993634,1,0,0,-11.99998873,4.799993634,1,0,0,1,77,237,36,1,,,,,,,,
,,,,,,,,,,,,,FF,,,,,,,,1.8331,,,,,,,,,,,,,,,,,,,,,,60fcfc13c59a84fe5ae390d5,61036474107ed3ceabea3202,2021-07-29_22h31.52.101,Simcolourproject_2stim_asymm_v5,2020.2.10,Win32,60,61025ae37ef11b136ea224fe,,,,,,,,,3067,56.00001228,51.19996991,1,0,0,response1disk,,6,2.40001148,7.999993682,1,0,0,rectangle,2.40001148,7.999993682,1,0,0,2.40001148,7.999993682,1,0,0,1,78,238,69,1,,,,,,,,
,,,,,,,,,,,,,FF,,,,,,,,1.5004,,,,,,,,,,,,,,,,,,,,,,60fcfc13c59a84fe5ae390d5,61036474107ed3ceabea3202,2021-07-29_22h31.52.101,Simcolourproject_2stim_asymm_v5,2020.2.10,Win32,60,61025ae37ef11b136ea224fe,,,,,,,,,1677,-78.3999409,35.19996967,1,0,0,response7disk,,1,1.600060296,0.799993575,1,0,0,rectangle,1.600060296,0.799993575,1,0,0,1.600060296,0.799993575,1,0,0,1,79,239,78,1,,,,,,,,
,,,,,,,,,,,,,FF,,,,,,,,2.6998,,,,,,,,,,,,,,,,,,,,,,60fcfc13c59a84fe5ae390d5,61036474107ed3ceabea3202,2021-07-29_22h31.52.101,Simcolourproject_2stim_asymm_v5,2020.2.10,Win32,60,61025ae37ef11b136ea224fe,,,,,,,,,778,60.80001235,-52.00000721,1,0,0,response3disk,,5,-10.39993988,-1.600006461,1,0,0,rectangle,-10.39993988,-1.600006461,1,0,0,-10.39993988,-1.600006461,1,0,0,1,80,240,124,1,,,,,,,,
,,,,,,,,,,,,,FF,,,,,,,,1.1334,,,,,,,,,,,,,,,,,,,,,,60fcfc13c59a84fe5ae390d5,61036474107ed3ceabea3202,2021-07-29_22h31.52.101,Simcolourproject_2stim_asymm_v5,2020.2.10,Win32,60,61025ae37ef11b136ea224fe,,,,,,,,,3309,48.80001217,101.5999951,1,0,0,response1disk,,7,-9.599988699,-12.00000662,1,0,0,rectangle,-9.599988699,-12.00000662,1,0,0,-9.599988699,-12.00000662,1,0,0,1,81,241,31,1,,,,,,,,
,,,,,,,,,,,,,FF,,,,,,,,1.6328,,,,,,,,,,,,,,,,,,,,,,60fcfc13c59a84fe5ae390d5,61036474107ed3ceabea3202,2021-07-29_22h31.52.101,Simcolourproject_2stim_asymm_v5,2020.2.10,Win32,60,61025ae37ef11b136ea224fe,,,,,,,,,1061,36.00001198,-72.80000752,1,0,0,response3disk,,4,-9.599988699,1.599993587,1,0,0,rectangle,-9.599988699,1.599993587,1,0,0,-9.599988699,1.599993587,1,0,0,1,82,242,100,1,,,,,,,,
