key_resp.keys,key_resp.rt,key_resp_14.keys,key_resp_14.rt,key_resp_15.keys,key_resp_15.rt,key_resp_17.keys,key_resp_17.rt,key_resp_9.keys,key_resp_9.rt,key_resp_10.keys,key_resp_10.rt,practice_comparison,Ecc,mouse_5.x,mouse_5.y,mouse_5.leftButton,mouse_5.midButton,mouse_5.rightButton,mouse_5.clicked_name,pracsimilarity,response_time,mouse_10.x,mouse_10.y,mouse_10.leftButton,mouse_10.midButton,mouse_10.rightButton,mouse_10.clicked_name,mouse_7.x,mouse_7.y,mouse_7.leftButton,mouse_7.midButton,mouse_7.rightButton,mouse_6.x,mouse_6.y,mouse_6.leftButton,mouse_6.midButton,mouse_6.rightButton,duringprac.thisRepN,duringprac.thisTrialN,duringprac.thisN,duringprac.thisIndex,duringprac.ran,participant,session,date,expName,psychopyVersion,OS,frameRate,study_id,mouse_7.clicked_name,catchpracsimilarity,catch_response_time,catchnumberprac,catchtrialorderprac,mouse_6.clicked_name,key_resp_22.keys,key_resp_22.rt,realcomparison,mouse.x,mouse.y,mouse.leftButton,mouse.midButton,mouse.rightButton,mouse.clicked_name,Colour2,similarity,mouse_2.x,mouse_2.y,mouse_2.leftButton,mouse_2.midButton,mouse_2.rightButton,mouse_2.clicked_name,mouse_3.x,mouse_3.y,mouse_3.leftButton,mouse_3.midButton,mouse_3.rightButton,mouse_11.x,mouse_11.y,mouse_11.leftButton,mouse_11.midButton,mouse_11.rightButton,trials_2.thisRepN,trials_2.thisTrialN,trials_2.thisN,trials_2.thisIndex,trials_2.ran,Colour1,mouse_3.clicked_name,catchornah,catchsimilarity,catchnumber,catchtrialorder,catchRT,mouse_11.clicked_name
space,1.369,space,5.7666,space,4.9369,space,1.0168,space,0.8564,space,5.1956,4,PF,47.61328125,-77.609375,1,0,0,response3disk_5,4,6.7514,0.93359375,-15.16015625,1,0,0,rectangle_8,0.93359375,-15.16015625,1,0,0,0.93359375,-15.16015625,1,0,0,0,0,0,1,1,60fceca1cfdf67843110b0dc,61036dfef7272343cda563a5,2021-07-29_23h12.49.330,Simcolourproject_2stim_asymm_v5,2020.2.10,MacIntel,60,61025ae37ef11b136ea224fe,,,,,,,,,,,,,,,,,,,,,,,,,,,,,,,,,,,,,,,,,,,,,,
,,,,,,,,,,,,8,FF,-42.3515625,87.1484375,1,0,0,response7disk_5,0,2.5499,5.80078125,-3.02734375,1,0,0,rectangle_8,90.06640625,-40.640625,1,0,0,-1.43359375,-5.6328125,1,0,0,0,1,1,3,1,60fceca1cfdf67843110b0dc,61036dfef7272343cda563a5,2021-07-29_23h12.49.330,Simcolourproject_2stim_asymm_v5,2020.2.10,MacIntel,60,61025ae37ef11b136ea224fe,response3disk_7,5,3.7513,5,"[2,5]",rectangle_4,,,,,,,,,,,,,,,,,,,,,,,,,,,,,,,,,,,,,,,,
,,,,,,,,,,,,25,PF,-69.5234375,-41.8125,1,0,0,response5disk_5,2,3.436,-8.57421875,-5.03125,1,0,0,rectangle_8,-8.57421875,-5.03125,1,0,0,-8.57421875,-5.03125,1,0,0,0,2,2,6,1,60fceca1cfdf67843110b0dc,61036dfef7272343cda563a5,2021-07-29_23h12.49.330,Simcolourproject_2stim_asymm_v5,2020.2.10,MacIntel,60,61025ae37ef11b136ea224fe,,,,,,,,,,,,,,,,,,,,,,,,,,,,,,,,,,,,,,,,,,,,,,
,,,,,,,,,,,,97,PF,-40.94921875,81.0546875,1,0,0,response7disk_5,0,2.5981,-7.90234375,5.1796875,1,0,0,rectangle_8,-7.90234375,5.1796875,1,0,0,-7.90234375,5.1796875,1,0,0,0,3,3,4,1,60fceca1cfdf67843110b0dc,61036dfef7272343cda563a5,2021-07-29_23h12.49.330,Simcolourproject_2stim_asymm_v5,2020.2.10,MacIntel,60,61025ae37ef11b136ea224fe,,,,,,,,,,,,,,,,,,,,,,,,,,,,,,,,,,,,,,,,,,,,,,
,,,,,,,,,,,,42,PF,-73.796875,42.8203125,1,0,0,response7disk_5,1,2.735,7.1953125,-0.84375,1,0,0,rectangle_8,80.71484375,-35.06640625,1,0,0,-8.76171875,8.140625,1,0,0,0,4,4,2,1,60fceca1cfdf67843110b0dc,61036dfef7272343cda563a5,2021-07-29_23h12.49.330,Simcolourproject_2stim_asymm_v5,2020.2.10,MacIntel,60,61025ae37ef11b136ea224fe,response3disk_7,5,4.0689,5,"[2,5]",rectangle_4,,,,,,,,,,,,,,,,,,,,,,,,,,,,,,,,,,,,,,,,
,,,,,,,,,,,,18,FF,-65.88671875,-37.38671875,1,0,0,response5disk_5,2,34.22,1.59375,-0.66796875,1,0,0,rectangle_8,1.59375,-0.66796875,1,0,0,1.59375,-0.66796875,1,0,0,0,5,5,0,1,60fceca1cfdf67843110b0dc,61036dfef7272343cda563a5,2021-07-29_23h12.49.330,Simcolourproject_2stim_asymm_v5,2020.2.10,MacIntel,60,61025ae37ef11b136ea224fe,,,,,,,,,,,,,,,,,,,,,,,,,,,,,,,,,,,,,,,,,,,,,,
,,,,,,,,,,,,40,FF,99.3828125,34.26171875,1,0,0,response1disk_5,6,1.6176,3.59765625,-2.8671875,1,0,0,rectangle_8,3.59765625,-2.8671875,1,0,0,3.59765625,-2.8671875,1,0,0,0,6,6,5,1,60fceca1cfdf67843110b0dc,61036dfef7272343cda563a5,2021-07-29_23h12.49.330,Simcolourproject_2stim_asymm_v5,2020.2.10,MacIntel,60,61025ae37ef11b136ea224fe,,,,,,,,,,,,,,,,,,,,,,,,,,,,,,,,,,,,,,,,,,,,,,
,,,,,,,,,,,,,FF,,,,,,,,1.8626,,,,,,,,,,,,,,,,,,,,,,60fceca1cfdf67843110b0dc,61036dfef7272343cda563a5,2021-07-29_23h12.49.330,Simcolourproject_2stim_asymm_v5,2020.2.10,MacIntel,60,61025ae37ef11b136ea224fe,,,,,,,space,31.3357,1765,38.578125,-93.28515625,1,0,0,response3disk,,4,2.58203125,-4.0078125,1,0,0,rectangle,2.58203125,-4.0078125,1,0,0,2.58203125,-4.0078125,1,0,0,0,0,0,137,1,,,,,,,,
,,,,,,,,,,,,,FF,,,,,,,,2.6476,,,,,,,,,,,,,,,,,,,,,,60fceca1cfdf67843110b0dc,61036dfef7272343cda563a5,2021-07-29_23h12.49.330,Simcolourproject_2stim_asymm_v5,2020.2.10,MacIntel,60,61025ae37ef11b136ea224fe,,,,,,,,,3566,35.0703125,-64.72265625,1,0,0,response3disk,,4,-2.4765625,0.19140625,1,0,0,rectangle,-2.4765625,0.19140625,1,0,0,-2.4765625,0.19140625,1,0,0,0,1,1,65,1,,,,,,,,
,,,,,,,,,,,,,FF,,,,,,,,1.8827,,,,,,,,,,,,,,,,,,,,,,60fceca1cfdf67843110b0dc,61036dfef7272343cda563a5,2021-07-29_23h12.49.330,Simcolourproject_2stim_asymm_v5,2020.2.10,MacIntel,60,61025ae37ef11b136ea224fe,,,,,,,,,853,-42.32421875,-84.25390625,1,0,0,response5disk,,3,-12.44140625,-0.94921875,1,0,0,rectangle,-12.44140625,-0.94921875,1,0,0,-12.44140625,-0.94921875,1,0,0,0,2,2,144,1,,,,,,,,
,,,,,,,,,,,,,FF,,,,,,,,1.0515,,,,,,,,,,,,,,,,,,,,,,60fceca1cfdf67843110b0dc,61036dfef7272343cda563a5,2021-07-29_23h12.49.330,Simcolourproject_2stim_asymm_v5,2020.2.10,MacIntel,60,61025ae37ef11b136ea224fe,,,,,,,,,1200,95.45703125,38.29296875,1,0,0,response1disk,,6,6.4140625,-2.26953125,1,0,0,rectangle,6.4140625,-2.26953125,1,0,0,6.4140625,-2.26953125,1,0,0,0,3,3,99,1,,,,,,,,
,,,,,,,,,,,,,FF,,,,,,,,2.5654,,,,,,,,,,,,,,,,,,,,,,60fceca1cfdf67843110b0dc,61036dfef7272343cda563a5,2021-07-29_23h12.49.330,Simcolourproject_2stim_asymm_v5,2020.2.10,MacIntel,60,61025ae37ef11b136ea224fe,,,,,,,,,740,86.93359375,43.71875,1,0,0,response1disk,,6,-5.91015625,2.19140625,1,0,0,rectangle,-5.91015625,2.19140625,1,0,0,-5.91015625,2.19140625,1,0,0,0,4,4,14,1,,,,,,,,
,,,,,,,,,,,,,FF,,,,,,,,1.8676,,,,,,,,,,,,,,,,,,,,,,60fceca1cfdf67843110b0dc,61036dfef7272343cda563a5,2021-07-29_23h12.49.330,Simcolourproject_2stim_asymm_v5,2020.2.10,MacIntel,60,61025ae37ef11b136ea224fe,,,,,,,,,2327,-85.34765625,-42.4921875,1,0,0,response5disk,,2,8.30859375,-7.9453125,1,0,0,rectangle,8.30859375,-7.9453125,1,0,0,8.30859375,-7.9453125,1,0,0,0,5,5,47,1,,,,,,,,
,,,,,,,,,,,,,FF,,,,,,,,1.4987,,,,,,,,,,,,,,,,,,,,,,60fceca1cfdf67843110b0dc,61036dfef7272343cda563a5,2021-07-29_23h12.49.330,Simcolourproject_2stim_asymm_v5,2020.2.10,MacIntel,60,61025ae37ef11b136ea224fe,,,,,,,,,3373,42.5234375,83.5390625,1,0,0,response1disk,,7,-5.29296875,-0.734375,1,0,0,rectangle,-5.29296875,-0.734375,1,0,0,-5.29296875,-0.734375,1,0,0,0,6,6,127,1,,,,,,,,
,,,,,,,,,,,,,FF,,,,,,,,2.4008,,,,,,,,,,,,,,,,,,,,,,60fceca1cfdf67843110b0dc,61036dfef7272343cda563a5,2021-07-29_23h12.49.330,Simcolourproject_2stim_asymm_v5,2020.2.10,MacIntel,60,61025ae37ef11b136ea224fe,,,,,,,,,3354,-82.5390625,34.015625,1,0,0,response7disk,,1,0.890625,1.96875,1,0,0,rectangle,0.890625,1.96875,1,0,0,0.890625,1.96875,1,0,0,0,7,7,19,1,,,,,,,,
,,,,,,,,,,,,,FF,,,,,,,,1.4183,,,,,,,,,,,,,,,,,,,,,,60fceca1cfdf67843110b0dc,61036dfef7272343cda563a5,2021-07-29_23h12.49.330,Simcolourproject_2stim_asymm_v5,2020.2.10,MacIntel,60,61025ae37ef11b136ea224fe,,,,,,,,,2939,-46.2890625,99.4765625,1,0,0,response7disk,,0,-1.8046875,-7.03125,1,0,0,rectangle,-1.8046875,-7.03125,1,0,0,-1.8046875,-7.03125,1,0,0,0,8,8,73,1,,,,,,,,
,,,,,,,,,,,,,FF,,,,,,,,1.2327,,,,,,,,,,,,,,,,,,,,,,60fceca1cfdf67843110b0dc,61036dfef7272343cda563a5,2021-07-29_23h12.49.330,Simcolourproject_2stim_asymm_v5,2020.2.10,MacIntel,60,61025ae37ef11b136ea224fe,,,,,,,,,699,92.25,44.0390625,1,0,0,response1disk,,6,-2.625,2.28125,1,0,0,rectangle,-2.625,2.28125,1,0,0,-2.625,2.28125,1,0,0,0,9,9,70,1,,,,,,,,
,,,,,,,,,,,,,FF,,,,,,,,2.9679,,,,,,,,,,,,,,,,,,,,,,60fceca1cfdf67843110b0dc,61036dfef7272343cda563a5,2021-07-29_23h12.49.330,Simcolourproject_2stim_asymm_v5,2020.2.10,MacIntel,60,61025ae37ef11b136ea224fe,,,,,,,,,2073,-93.81640625,-34.96484375,1,0,0,response5disk,,2,-7.63671875,1.8203125,1,0,0,rectangle,-7.63671875,1.8203125,1,0,0,-7.63671875,1.8203125,1,0,0,0,10,10,113,1,,,,,,,,
,,,,,,,,,,,,,FF,,,,,,,,3.0675,,,,,,,,,,,,,,,,,,,,,,60fceca1cfdf67843110b0dc,61036dfef7272343cda563a5,2021-07-29_23h12.49.330,Simcolourproject_2stim_asymm_v5,2020.2.10,MacIntel,60,61025ae37ef11b136ea224fe,,,,,,,,,3167,-46.62890625,-85.62109375,1,0,0,response5disk,,3,1.66796875,2.31640625,1,0,0,rectangle,1.66796875,2.31640625,1,0,0,1.66796875,2.31640625,1,0,0,0,11,11,112,1,,,,,,,,
,,,,,,,,,,,,,FF,,,,,,,,2.0833,,,,,,,,,,,,,,,,,,,,,,60fceca1cfdf67843110b0dc,61036dfef7272343cda563a5,2021-07-29_23h12.49.330,Simcolourproject_2stim_asymm_v5,2020.2.10,MacIntel,60,61025ae37ef11b136ea224fe,,,,,,,,,1367,-94.1953125,33.52734375,1,0,0,response7disk,,1,-11.26171875,-1.4375,1,0,0,rectangle,-11.26171875,-1.4375,1,0,0,-11.26171875,-1.4375,1,0,0,0,12,12,96,1,,,,,,,,
,,,,,,,,,,,,,FF,,,,,,,,1.4172,,,,,,,,,,,,,,,,,,,,,,60fceca1cfdf67843110b0dc,61036dfef7272343cda563a5,2021-07-29_23h12.49.330,Simcolourproject_2stim_asymm_v5,2020.2.10,MacIntel,60,61025ae37ef11b136ea224fe,,,,,,,,,2867,-85.94140625,-39.02734375,1,0,0,response5disk,,2,-0.1015625,0.4609375,1,0,0,rectangle,-0.1015625,0.4609375,1,0,0,-0.1015625,0.4609375,1,0,0,0,13,13,124,1,,,,,,,,
,,,,,,,,,,,,,FF,,,,,,,,0.9165,,,,,,,,,,,,,,,,,,,,,,60fceca1cfdf67843110b0dc,61036dfef7272343cda563a5,2021-07-29_23h12.49.330,Simcolourproject_2stim_asymm_v5,2020.2.10,MacIntel,60,61025ae37ef11b136ea224fe,,,,,,,,,3262,-47.34765625,-84.61328125,1,0,0,response5disk,,3,0.84375,-0.6640625,1,0,0,rectangle,0.84375,-0.6640625,1,0,0,0.84375,-0.6640625,1,0,0,0,14,14,119,1,,,,,,,,
,,,,,,,,,,,,,FF,,,,,,,,0.8338,,,,,,,,,,,,,,,,,,,,,,60fceca1cfdf67843110b0dc,61036dfef7272343cda563a5,2021-07-29_23h12.49.330,Simcolourproject_2stim_asymm_v5,2020.2.10,MacIntel,60,61025ae37ef11b136ea224fe,,,,,,,,,1435,72.73828125,34.87109375,1,0,0,response1disk,,6,6.84765625,-4.4453125,1,0,0,rectangle,6.84765625,-4.4453125,1,0,0,6.84765625,-4.4453125,1,0,0,0,15,15,87,1,,,,,,,,
,,,,,,,,,,,,,FF,,,,,,,,2.1514,,,,,,,,,,,,,,,,,,,,,,60fceca1cfdf67843110b0dc,61036dfef7272343cda563a5,2021-07-29_23h12.49.330,Simcolourproject_2stim_asymm_v5,2020.2.10,MacIntel,60,61025ae37ef11b136ea224fe,,,,,,,,,1161,-38.6875,-82.32421875,1,0,0,response5disk,,3,-3.15625,0.6171875,1,0,0,rectangle,-3.15625,0.6171875,1,0,0,-3.15625,0.6171875,1,0,0,0,16,16,39,1,,,,,,,,
,,,,,,,,,,,,,FF,,,,,,,,1.1825,,,,,,,,,,,,,,,,,,,,,,60fceca1cfdf67843110b0dc,61036dfef7272343cda563a5,2021-07-29_23h12.49.330,Simcolourproject_2stim_asymm_v5,2020.2.10,MacIntel,60,61025ae37ef11b136ea224fe,,,,,,,,,3626,94.55078125,42.3984375,1,0,0,response1disk,,6,6.34375,-1.4140625,1,0,0,rectangle,6.34375,-1.4140625,1,0,0,6.34375,-1.4140625,1,0,0,0,17,17,72,1,,,,,,,,
,,,,,,,,,,,,,FF,,,,,,,,1.0011,,,,,,,,,,,,,,,,,,,,,,60fceca1cfdf67843110b0dc,61036dfef7272343cda563a5,2021-07-29_23h12.49.330,Simcolourproject_2stim_asymm_v5,2020.2.10,MacIntel,60,61025ae37ef11b136ea224fe,,,,,,,,,694,85.09765625,-49.67578125,1,0,0,response3disk,,5,-9.2265625,9.2265625,1,0,0,rectangle,-9.2265625,9.2265625,1,0,0,-9.2265625,9.2265625,1,0,0,0,18,18,108,1,,,,,,,,
,,,,,,,,,,,,,FF,,,,,,,,1.079,,,,,,,,,,,,,,,,,,,,,,60fceca1cfdf67843110b0dc,61036dfef7272343cda563a5,2021-07-29_23h12.49.330,Simcolourproject_2stim_asymm_v5,2020.2.10,MacIntel,60,61025ae37ef11b136ea224fe,,,,,,,,,3873,-41.14453125,-94.6015625,1,0,0,response5disk,,3,-9.13671875,1.28515625,1,0,0,rectangle,-9.13671875,1.28515625,1,0,0,-9.13671875,1.28515625,1,0,0,0,19,19,18,1,,,,,,,,
,,,,,,,,,,,,,FF,,,,,,,,1.1524,,,,,,,,,,,,,,,,,,,,,,60fceca1cfdf67843110b0dc,61036dfef7272343cda563a5,2021-07-29_23h12.49.330,Simcolourproject_2stim_asymm_v5,2020.2.10,MacIntel,60,61025ae37ef11b136ea224fe,,,,,,,,,1003,-70.41796875,-44.546875,1,0,0,response5disk,,2,6.87109375,-13.70703125,1,0,0,rectangle,6.87109375,-13.70703125,1,0,0,6.87109375,-13.70703125,1,0,0,0,20,20,25,1,,,,,,,,
,,,,,,,,,,,,,FF,,,,,,,,0.7676,,,,,,,,,,,,,,,,,,,,,,60fceca1cfdf67843110b0dc,61036dfef7272343cda563a5,2021-07-29_23h12.49.330,Simcolourproject_2stim_asymm_v5,2020.2.10,MacIntel,60,61025ae37ef11b136ea224fe,,,,,,,,,416,-51.59765625,-78.890625,1,0,0,response5disk,,3,-4.3046875,-12.1640625,1,0,0,rectangle,-4.3046875,-12.1640625,1,0,0,-4.3046875,-12.1640625,1,0,0,0,21,21,155,1,,,,,,,,
,,,,,,,,,,,,,FF,,,,,,,,0.9348,,,,,,,,,,,,,,,,,,,,,,60fceca1cfdf67843110b0dc,61036dfef7272343cda563a5,2021-07-29_23h12.49.330,Simcolourproject_2stim_asymm_v5,2020.2.10,MacIntel,60,61025ae37ef11b136ea224fe,,,,,,,,,157,71.34765625,-39.46484375,1,0,0,response3disk,,5,-1.5234375,0.1953125,1,0,0,rectangle,-1.5234375,0.1953125,1,0,0,-1.5234375,0.1953125,1,0,0,0,22,22,67,1,,,,,,,,
,,,,,,,,,,,,,FF,,,,,,,,2.0005,,,,,,,,,,,,,,,,,,,,,,60fceca1cfdf67843110b0dc,61036dfef7272343cda563a5,2021-07-29_23h12.49.330,Simcolourproject_2stim_asymm_v5,2020.2.10,MacIntel,60,61025ae37ef11b136ea224fe,,,,,,,,,2096,-63.0703125,35.66015625,1,0,0,response7disk,,1,-3.01953125,0.6875,1,0,0,rectangle,-3.01953125,0.6875,1,0,0,-3.01953125,0.6875,1,0,0,0,23,23,2,1,,,,,,,,
,,,,,,,,,,,,,FF,,,,,,,,1.0009,,,,,,,,,,,,,,,,,,,,,,60fceca1cfdf67843110b0dc,61036dfef7272343cda563a5,2021-07-29_23h12.49.330,Simcolourproject_2stim_asymm_v5,2020.2.10,MacIntel,60,61025ae37ef11b136ea224fe,,,,,,,,,279,79.32421875,51.86328125,1,0,0,response1disk,,6,-2.2109375,-0.81640625,1,0,0,rectangle,-2.2109375,-0.81640625,1,0,0,-2.2109375,-0.81640625,1,0,0,0,24,24,157,1,,,,,,,,
,,,,,,,,,,,,,FF,,,,,,,,0.9333,,,,,,,,,,,,,,,,,,,,,,60fceca1cfdf67843110b0dc,61036dfef7272343cda563a5,2021-07-29_23h12.49.330,Simcolourproject_2stim_asymm_v5,2020.2.10,MacIntel,60,61025ae37ef11b136ea224fe,,,,,,,,,446,36.515625,-73.8203125,1,0,0,response3disk,,4,2.8984375,-2.88671875,1,0,0,rectangle,2.8984375,-2.88671875,1,0,0,2.8984375,-2.88671875,1,0,0,0,25,25,26,1,,,,,,,,
,,,,,,,,,,,,,FF,,,,,,,,1.0393,,,,,,,,,,,,,,,,,,,,,,60fceca1cfdf67843110b0dc,61036dfef7272343cda563a5,2021-07-29_23h12.49.330,Simcolourproject_2stim_asymm_v5,2020.2.10,MacIntel,60,61025ae37ef11b136ea224fe,,,,,,,,,916,-48.7890625,-79.85546875,1,0,0,response5disk,,3,-7.47265625,-1.2890625,1,0,0,rectangle,-7.47265625,-1.2890625,1,0,0,-7.47265625,-1.2890625,1,0,0,0,26,26,53,1,,,,,,,,
,,,,,,,,,,,,,FF,,,,,,,,1.3992,,,,,,,,,,,,,,,,,,,,,,60fceca1cfdf67843110b0dc,61036dfef7272343cda563a5,2021-07-29_23h12.49.330,Simcolourproject_2stim_asymm_v5,2020.2.10,MacIntel,60,61025ae37ef11b136ea224fe,,,,,,,,,267,-40.71875,94.69140625,1,0,0,response7disk,,0,0.296875,-14.16796875,1,0,0,rectangle,0.296875,-14.16796875,1,0,0,0.296875,-14.16796875,1,0,0,0,27,27,60,1,,,,,,,,
,,,,,,,,,,,,,FF,,,,,,,,0.8687,,,,,,,,,,,,,,,,,,,,,,60fceca1cfdf67843110b0dc,61036dfef7272343cda563a5,2021-07-29_23h12.49.330,Simcolourproject_2stim_asymm_v5,2020.2.10,MacIntel,60,61025ae37ef11b136ea224fe,,,,,,,,,1984,-74.63671875,42.32421875,1,0,0,response7disk,,1,-0.25,-0.9921875,1,0,0,rectangle,-0.25,-0.9921875,1,0,0,-0.25,-0.9921875,1,0,0,0,28,28,22,1,,,,,,,,
,,,,,,,,,,,,,FF,,,,,,,,1.4489,,,,,,,,,,,,,,,,,,,,,,60fceca1cfdf67843110b0dc,61036dfef7272343cda563a5,2021-07-29_23h12.49.330,Simcolourproject_2stim_asymm_v5,2020.2.10,MacIntel,60,61025ae37ef11b136ea224fe,,,,,,,,,1675,79.19140625,43.140625,1,0,0,response1disk,,6,9.671875,0.70703125,1,0,0,rectangle,9.671875,0.70703125,1,0,0,9.671875,0.70703125,1,0,0,0,29,29,41,1,,,,,,,,
,,,,,,,,,,,,,FF,,,,,,,,0.8157,,,,,,,,,,,,,,,,,,,,,,60fceca1cfdf67843110b0dc,61036dfef7272343cda563a5,2021-07-29_23h12.49.330,Simcolourproject_2stim_asymm_v5,2020.2.10,MacIntel,60,61025ae37ef11b136ea224fe,,,,,,,,,1134,77.51171875,42.76953125,1,0,0,response1disk,,6,-5.86328125,2.82421875,1,0,0,rectangle,-5.86328125,2.82421875,1,0,0,-5.86328125,2.82421875,1,0,0,0,30,30,156,1,,,,,,,,
,,,,,,,,,,,,,FF,,,,,,,,2.1014,,,,,,,,,,,,,,,,,,,,,,60fceca1cfdf67843110b0dc,61036dfef7272343cda563a5,2021-07-29_23h12.49.330,Simcolourproject_2stim_asymm_v5,2020.2.10,MacIntel,60,61025ae37ef11b136ea224fe,,,,,,,,,2102,79.96875,-37.14453125,1,0,0,response3disk,,5,-1.15625,-8.3203125,1,0,0,rectangle,-1.15625,-8.3203125,1,0,0,-1.15625,-8.3203125,1,0,0,0,31,31,117,1,,,,,,,,
,,,,,,,,,,,,,FF,,,,,,,,1.8381,,,,,,,,,,,,,,,,,,,,,,60fceca1cfdf67843110b0dc,61036dfef7272343cda563a5,2021-07-29_23h12.49.330,Simcolourproject_2stim_asymm_v5,2020.2.10,MacIntel,60,61025ae37ef11b136ea224fe,,,,,,,,,4051,60.62890625,-85.14453125,1,0,0,response3disk,,4,3.25390625,-8.75,1,0,0,rectangle,78.58203125,-42.046875,1,0,0,13.73046875,-1.265625,1,0,0,0,32,32,98,1,,response3disk_3,TRUE,5,5,"[45,160,308,33,240,279,160,45,149,318,34,37,113,162,130,91,303,294,208,199]",1.5851,rectangle
,,,,,,,,,,,,,FF,,,,,,,,1.1664,,,,,,,,,,,,,,,,,,,,,,60fceca1cfdf67843110b0dc,61036dfef7272343cda563a5,2021-07-29_23h12.49.330,Simcolourproject_2stim_asymm_v5,2020.2.10,MacIntel,60,61025ae37ef11b136ea224fe,,,,,,,,,2442,-29.421875,-87.40625,1,0,0,response5disk,,3,6.80859375,3.3203125,1,0,0,rectangle,74.453125,-43.78515625,1,0,0,4.66796875,1.46484375,1,0,0,0,33,33,40,1,,response3disk_3,TRUE,5,5,"[45,160,308,33,240,279,160,45,149,318,34,37,113,162,130,91,303,294,208,199]",1.1845,rectangle
,,,,,,,,,,,,,FF,,,,,,,,1.0814,,,,,,,,,,,,,,,,,,,,,,60fceca1cfdf67843110b0dc,61036dfef7272343cda563a5,2021-07-29_23h12.49.330,Simcolourproject_2stim_asymm_v5,2020.2.10,MacIntel,60,61025ae37ef11b136ea224fe,,,,,,,,,900,71.5625,-35.671875,1,0,0,response3disk,,5,6.109375,-9.05078125,1,0,0,rectangle,6.109375,-9.05078125,1,0,0,6.109375,-9.05078125,1,0,0,0,34,34,20,1,,,,,,,,
,,,,,,,,,,,,,FF,,,,,,,,0.9998,,,,,,,,,,,,,,,,,,,,,,60fceca1cfdf67843110b0dc,61036dfef7272343cda563a5,2021-07-29_23h12.49.330,Simcolourproject_2stim_asymm_v5,2020.2.10,MacIntel,60,61025ae37ef11b136ea224fe,,,,,,,,,3585,39.0625,71.859375,1,0,0,response1disk,,7,0.8828125,0.03515625,1,0,0,rectangle,0.8828125,0.03515625,1,0,0,0.8828125,0.03515625,1,0,0,0,35,35,159,1,,,,,,,,
,,,,,,,,,,,,,FF,,,,,,,,1.4621,,,,,,,,,,,,,,,,,,,,,,60fceca1cfdf67843110b0dc,61036dfef7272343cda563a5,2021-07-29_23h12.49.330,Simcolourproject_2stim_asymm_v5,2020.2.10,MacIntel,60,61025ae37ef11b136ea224fe,,,,,,,,,1587,47.21484375,-76.4609375,1,0,0,response3disk,,4,-0.0703125,-11.078125,1,0,0,rectangle,-79.046875,-32.55859375,1,0,0,-3.89453125,-8.10546875,1,0,0,0,36,36,35,1,,response5disk_3,TRUE,2,2,"[45,160,308,33,240,279,160,45,149,318,34,37,113,162,130,91,303,294,208,199]",1.9498,rectangle
,,,,,,,,,,,,,FF,,,,,,,,1.2355,,,,,,,,,,,,,,,,,,,,,,60fceca1cfdf67843110b0dc,61036dfef7272343cda563a5,2021-07-29_23h12.49.330,Simcolourproject_2stim_asymm_v5,2020.2.10,MacIntel,60,61025ae37ef11b136ea224fe,,,,,,,,,2699,-85.75390625,36.62109375,1,0,0,response7disk,,1,-12.37109375,3.421875,1,0,0,rectangle,-12.37109375,3.421875,1,0,0,-12.37109375,3.421875,1,0,0,0,37,37,152,1,,,,,,,,
,,,,,,,,,,,,,FF,,,,,,,,1.1341,,,,,,,,,,,,,,,,,,,,,,60fceca1cfdf67843110b0dc,61036dfef7272343cda563a5,2021-07-29_23h12.49.330,Simcolourproject_2stim_asymm_v5,2020.2.10,MacIntel,60,61025ae37ef11b136ea224fe,,,,,,,,,2998,37.15625,91.7734375,1,0,0,response1disk,,7,-0.16796875,8.73828125,1,0,0,rectangle,-0.16796875,8.73828125,1,0,0,-0.16796875,8.73828125,1,0,0,0,38,38,134,1,,,,,,,,
,,,,,,,,,,,,,FF,,,,,,,,27.0674,,,,,,,,,,,,,,,,,,,,,,60fceca1cfdf67843110b0dc,61036dfef7272343cda563a5,2021-07-29_23h12.49.330,Simcolourproject_2stim_asymm_v5,2020.2.10,MacIntel,60,61025ae37ef11b136ea224fe,,,,,,,,,365,-36.80078125,-84.09765625,1,0,0,response5disk,,3,-2.8984375,-10.16015625,1,0,0,rectangle,-2.8984375,-10.16015625,1,0,0,-2.8984375,-10.16015625,1,0,0,0,39,39,1,1,,,,,,,,
,,,,,,,,,,,,,FF,,,,,,,,0.7183,,,,,,,,,,,,,,,,,,,,,,60fceca1cfdf67843110b0dc,61036dfef7272343cda563a5,2021-07-29_23h12.49.330,Simcolourproject_2stim_asymm_v5,2020.2.10,MacIntel,60,61025ae37ef11b136ea224fe,,,,,,,,,973,43.14453125,67.8359375,1,0,0,response1disk,,7,11.0625,-3.78515625,1,0,0,rectangle,11.0625,-3.78515625,1,0,0,11.0625,-3.78515625,1,0,0,0,40,40,151,1,,,,,,,,
,,,,,,,,,,,,,FF,,,,,,,,0.5996,,,,,,,,,,,,,,,,,,,,,,60fceca1cfdf67843110b0dc,61036dfef7272343cda563a5,2021-07-29_23h12.49.330,Simcolourproject_2stim_asymm_v5,2020.2.10,MacIntel,60,61025ae37ef11b136ea224fe,,,,,,,,,2236,25.21875,80.03125,1,0,0,response1disk,,7,-0.87109375,-8.41796875,1,0,0,rectangle,-0.87109375,-8.41796875,1,0,0,-0.87109375,-8.41796875,1,0,0,0,41,41,62,1,,,,,,,,
,,,,,,,,,,,,,FF,,,,,,,,0.8011,,,,,,,,,,,,,,,,,,,,,,60fceca1cfdf67843110b0dc,61036dfef7272343cda563a5,2021-07-29_23h12.49.330,Simcolourproject_2stim_asymm_v5,2020.2.10,MacIntel,60,61025ae37ef11b136ea224fe,,,,,,,,,1861,28.34375,-62.41015625,1,0,0,response3disk,,4,6.1328125,-1.1796875,1,0,0,rectangle,6.1328125,-1.1796875,1,0,0,6.1328125,-1.1796875,1,0,0,0,42,42,66,1,,,,,,,,
,,,,,,,,,,,,,FF,,,,,,,,0.9169,,,,,,,,,,,,,,,,,,,,,,60fceca1cfdf67843110b0dc,61036dfef7272343cda563a5,2021-07-29_23h12.49.330,Simcolourproject_2stim_asymm_v5,2020.2.10,MacIntel,60,61025ae37ef11b136ea224fe,,,,,,,,,596,-86.640625,-39.0703125,1,0,0,response5disk,,2,-0.5390625,8.33984375,1,0,0,rectangle,-0.5390625,8.33984375,1,0,0,-0.5390625,8.33984375,1,0,0,0,43,43,123,1,,,,,,,,
,,,,,,,,,,,,,FF,,,,,,,,0.8839,,,,,,,,,,,,,,,,,,,,,,60fceca1cfdf67843110b0dc,61036dfef7272343cda563a5,2021-07-29_23h12.49.330,Simcolourproject_2stim_asymm_v5,2020.2.10,MacIntel,60,61025ae37ef11b136ea224fe,,,,,,,,,4285,-40.2890625,82.82421875,1,0,0,response7disk,,0,-6.796875,2.83984375,1,0,0,rectangle,86.8203125,50.17578125,1,0,0,-1.39453125,0.17578125,1,0,0,0,44,44,7,1,,response1disk_3,TRUE,6,6,"[45,160,308,33,240,279,160,45,149,318,34,37,113,162,130,91,303,294,208,199]",1.783,rectangle
,,,,,,,,,,,,,FF,,,,,,,,2.5677,,,,,,,,,,,,,,,,,,,,,,60fceca1cfdf67843110b0dc,61036dfef7272343cda563a5,2021-07-29_23h12.49.330,Simcolourproject_2stim_asymm_v5,2020.2.10,MacIntel,60,61025ae37ef11b136ea224fe,,,,,,,,,881,-54.66796875,-79.57421875,1,0,0,response5disk,,3,6.73828125,15.15625,1,0,0,rectangle,6.73828125,15.15625,1,0,0,6.73828125,15.15625,1,0,0,0,45,45,126,1,,,,,,,,
,,,,,,,,,,,,,FF,,,,,,,,0.7513,,,,,,,,,,,,,,,,,,,,,,60fceca1cfdf67843110b0dc,61036dfef7272343cda563a5,2021-07-29_23h12.49.330,Simcolourproject_2stim_asymm_v5,2020.2.10,MacIntel,60,61025ae37ef11b136ea224fe,,,,,,,,,1707,-29.17578125,-86.2421875,1,0,0,response5disk,,3,1.796875,1.671875,1,0,0,rectangle,1.796875,1.671875,1,0,0,1.796875,1.671875,1,0,0,0,46,46,129,1,,,,,,,,
,,,,,,,,,,,,,FF,,,,,,,,0.8823,,,,,,,,,,,,,,,,,,,,,,60fceca1cfdf67843110b0dc,61036dfef7272343cda563a5,2021-07-29_23h12.49.330,Simcolourproject_2stim_asymm_v5,2020.2.10,MacIntel,60,61025ae37ef11b136ea224fe,,,,,,,,,594,-46.9921875,-86.83984375,1,0,0,response5disk,,3,-2.4921875,-6.515625,1,0,0,rectangle,-2.4921875,-6.515625,1,0,0,-2.4921875,-6.515625,1,0,0,0,47,47,56,1,,,,,,,,
,,,,,,,,,,,,,FF,,,,,,,,1.5013,,,,,,,,,,,,,,,,,,,,,,60fceca1cfdf67843110b0dc,61036dfef7272343cda563a5,2021-07-29_23h12.49.330,Simcolourproject_2stim_asymm_v5,2020.2.10,MacIntel,60,61025ae37ef11b136ea224fe,,,,,,,,,1835,81.8984375,-27.79296875,1,0,0,response3disk,,5,9.11328125,9.5703125,1,0,0,rectangle,9.11328125,9.5703125,1,0,0,9.11328125,9.5703125,1,0,0,0,48,48,78,1,,,,,,,,
,,,,,,,,,,,,,FF,,,,,,,,13.0351,,,,,,,,,,,,,,,,,,,,,,60fceca1cfdf67843110b0dc,61036dfef7272343cda563a5,2021-07-29_23h12.49.330,Simcolourproject_2stim_asymm_v5,2020.2.10,MacIntel,60,61025ae37ef11b136ea224fe,,,,,,,,,2808,-33.64453125,-59.58984375,1,0,0,response5disk,,3,-0.3984375,2.05859375,1,0,0,rectangle,-0.3984375,2.05859375,1,0,0,-0.3984375,2.05859375,1,0,0,0,49,49,146,1,,,,,,,,
,,,,,,,,,,,,,FF,,,,,,,,3.1511,,,,,,,,,,,,,,,,,,,,,,60fceca1cfdf67843110b0dc,61036dfef7272343cda563a5,2021-07-29_23h12.49.330,Simcolourproject_2stim_asymm_v5,2020.2.10,MacIntel,60,61025ae37ef11b136ea224fe,,,,,,,,,2905,-83.15234375,-42.41015625,1,0,0,response5disk,,2,-18.984375,-1.10546875,1,0,0,rectangle,-18.984375,-1.10546875,1,0,0,-18.984375,-1.10546875,1,0,0,0,50,50,149,1,,,,,,,,
,,,,,,,,,,,,,FF,,,,,,,,1.2342,,,,,,,,,,,,,,,,,,,,,,60fceca1cfdf67843110b0dc,61036dfef7272343cda563a5,2021-07-29_23h12.49.330,Simcolourproject_2stim_asymm_v5,2020.2.10,MacIntel,60,61025ae37ef11b136ea224fe,,,,,,,,,3682,25.57421875,-90.52734375,1,0,0,response3disk,,4,5.12109375,-5.1171875,1,0,0,rectangle,5.12109375,-5.1171875,1,0,0,5.12109375,-5.1171875,1,0,0,0,51,51,148,1,,,,,,,,
,,,,,,,,,,,,,FF,,,,,,,,0.7007,,,,,,,,,,,,,,,,,,,,,,60fceca1cfdf67843110b0dc,61036dfef7272343cda563a5,2021-07-29_23h12.49.330,Simcolourproject_2stim_asymm_v5,2020.2.10,MacIntel,60,61025ae37ef11b136ea224fe,,,,,,,,,3741,31.390625,70.8125,1,0,0,response1disk,,7,-6.99609375,-2.328125,1,0,0,rectangle,-6.99609375,-2.328125,1,0,0,-6.99609375,-2.328125,1,0,0,0,52,52,57,1,,,,,,,,
,,,,,,,,,,,,,FF,,,,,,,,1.8335,,,,,,,,,,,,,,,,,,,,,,60fceca1cfdf67843110b0dc,61036dfef7272343cda563a5,2021-07-29_23h12.49.330,Simcolourproject_2stim_asymm_v5,2020.2.10,MacIntel,60,61025ae37ef11b136ea224fe,,,,,,,,,1708,-76.62109375,-34.15625,1,0,0,response5disk,,2,5.6875,2.78515625,1,0,0,rectangle,5.6875,2.78515625,1,0,0,5.6875,2.78515625,1,0,0,0,53,53,15,1,,,,,,,,
,,,,,,,,,,,,,FF,,,,,,,,1.4853,,,,,,,,,,,,,,,,,,,,,,60fceca1cfdf67843110b0dc,61036dfef7272343cda563a5,2021-07-29_23h12.49.330,Simcolourproject_2stim_asymm_v5,2020.2.10,MacIntel,60,61025ae37ef11b136ea224fe,,,,,,,,,266,83.58203125,-37.6875,1,0,0,response3disk,,5,-0.16796875,4.91015625,1,0,0,rectangle,-0.16796875,4.91015625,1,0,0,-0.16796875,4.91015625,1,0,0,0,54,54,37,1,,,,,,,,
,,,,,,,,,,,,,FF,,,,,,,,1.016,,,,,,,,,,,,,,,,,,,,,,60fceca1cfdf67843110b0dc,61036dfef7272343cda563a5,2021-07-29_23h12.49.330,Simcolourproject_2stim_asymm_v5,2020.2.10,MacIntel,60,61025ae37ef11b136ea224fe,,,,,,,,,1893,81.58984375,51.51953125,1,0,0,response1disk,,6,6.1328125,3.1796875,1,0,0,rectangle,6.1328125,3.1796875,1,0,0,6.1328125,3.1796875,1,0,0,0,55,55,16,1,,,,,,,,
,,,,,,,,,,,,,FF,,,,,,,,0.9001,,,,,,,,,,,,,,,,,,,,,,60fceca1cfdf67843110b0dc,61036dfef7272343cda563a5,2021-07-29_23h12.49.330,Simcolourproject_2stim_asymm_v5,2020.2.10,MacIntel,60,61025ae37ef11b136ea224fe,,,,,,,,,2844,67.1796875,-33.8046875,1,0,0,response3disk,,5,6.86328125,2.82421875,1,0,0,rectangle,6.86328125,2.82421875,1,0,0,6.86328125,2.82421875,1,0,0,0,56,56,0,1,,,,,,,,
,,,,,,,,,,,,,FF,,,,,,,,1.0162,,,,,,,,,,,,,,,,,,,,,,60fceca1cfdf67843110b0dc,61036dfef7272343cda563a5,2021-07-29_23h12.49.330,Simcolourproject_2stim_asymm_v5,2020.2.10,MacIntel,60,61025ae37ef11b136ea224fe,,,,,,,,,1167,-80.6171875,26.90234375,1,0,0,response7disk,,1,-0.0234375,0.12890625,1,0,0,rectangle,-0.0234375,0.12890625,1,0,0,-0.0234375,0.12890625,1,0,0,0,57,57,11,1,,,,,,,,
,,,,,,,,,,,,,FF,,,,,,,,1.166,,,,,,,,,,,,,,,,,,,,,,60fceca1cfdf67843110b0dc,61036dfef7272343cda563a5,2021-07-29_23h12.49.330,Simcolourproject_2stim_asymm_v5,2020.2.10,MacIntel,60,61025ae37ef11b136ea224fe,,,,,,,,,4080,-81.015625,49.03515625,1,0,0,response7disk,,1,-0.65234375,0.4140625,1,0,0,rectangle,-0.65234375,0.4140625,1,0,0,-0.65234375,0.4140625,1,0,0,0,58,58,17,1,,,,,,,,
,,,,,,,,,,,,,FF,,,,,,,,0.968,,,,,,,,,,,,,,,,,,,,,,60fceca1cfdf67843110b0dc,61036dfef7272343cda563a5,2021-07-29_23h12.49.330,Simcolourproject_2stim_asymm_v5,2020.2.10,MacIntel,60,61025ae37ef11b136ea224fe,,,,,,,,,1080,-37.08984375,65.515625,1,0,0,response7disk,,0,-15.2265625,-3.4140625,1,0,0,rectangle,-15.2265625,-3.4140625,1,0,0,-15.2265625,-3.4140625,1,0,0,0,59,59,84,1,,,,,,,,
,,,,,,,,,,,,,FF,,,,,,,,0.8164,,,,,,,,,,,,,,,,,,,,,,60fceca1cfdf67843110b0dc,61036dfef7272343cda563a5,2021-07-29_23h12.49.330,Simcolourproject_2stim_asymm_v5,2020.2.10,MacIntel,60,61025ae37ef11b136ea224fe,,,,,,,,,716,28.57421875,86.84765625,1,0,0,response1disk,,7,-9.88671875,-11.265625,1,0,0,rectangle,-9.88671875,-11.265625,1,0,0,-9.88671875,-11.265625,1,0,0,0,60,60,114,1,,,,,,,,
,,,,,,,,,,,,,FF,,,,,,,,1.9663,,,,,,,,,,,,,,,,,,,,,,60fceca1cfdf67843110b0dc,61036dfef7272343cda563a5,2021-07-29_23h12.49.330,Simcolourproject_2stim_asymm_v5,2020.2.10,MacIntel,60,61025ae37ef11b136ea224fe,,,,,,,,,3862,-89.40625,-46.87109375,1,0,0,response5disk,,2,-7.109375,-5.73828125,1,0,0,rectangle,-7.109375,-5.73828125,1,0,0,-7.109375,-5.73828125,1,0,0,0,61,61,30,1,,,,,,,,
,,,,,,,,,,,,,FF,,,,,,,,1.7494,,,,,,,,,,,,,,,,,,,,,,60fceca1cfdf67843110b0dc,61036dfef7272343cda563a5,2021-07-29_23h12.49.330,Simcolourproject_2stim_asymm_v5,2020.2.10,MacIntel,60,61025ae37ef11b136ea224fe,,,,,,,,,2774,-75.05859375,39.44140625,1,0,0,response7disk,,1,5.4140625,-5.125,1,0,0,rectangle,5.4140625,-5.125,1,0,0,5.4140625,-5.125,1,0,0,0,62,62,75,1,,,,,,,,
,,,,,,,,,,,,,FF,,,,,,,,1.2169,,,,,,,,,,,,,,,,,,,,,,60fceca1cfdf67843110b0dc,61036dfef7272343cda563a5,2021-07-29_23h12.49.330,Simcolourproject_2stim_asymm_v5,2020.2.10,MacIntel,60,61025ae37ef11b136ea224fe,,,,,,,,,3816,74.546875,29.25,1,0,0,response1disk,,6,2.9140625,-7.640625,1,0,0,rectangle,2.9140625,-7.640625,1,0,0,2.9140625,-7.640625,1,0,0,0,63,63,24,1,,,,,,,,
,,,,,,,,,,,,,FF,,,,,,,,1.2328,,,,,,,,,,,,,,,,,,,,,,60fceca1cfdf67843110b0dc,61036dfef7272343cda563a5,2021-07-29_23h12.49.330,Simcolourproject_2stim_asymm_v5,2020.2.10,MacIntel,60,61025ae37ef11b136ea224fe,,,,,,,,,4102,98.6015625,24.43359375,1,0,0,response1disk,,6,4.625,-1.8828125,1,0,0,rectangle,4.625,-1.8828125,1,0,0,4.625,-1.8828125,1,0,0,0,64,64,45,1,,,,,,,,
,,,,,,,,,,,,,FF,,,,,,,,1.7003,,,,,,,,,,,,,,,,,,,,,,60fceca1cfdf67843110b0dc,61036dfef7272343cda563a5,2021-07-29_23h12.49.330,Simcolourproject_2stim_asymm_v5,2020.2.10,MacIntel,60,61025ae37ef11b136ea224fe,,,,,,,,,3718,35.81640625,-101.8554688,1,0,0,response3disk,,4,11.34765625,-4.359375,1,0,0,rectangle,11.34765625,-4.359375,1,0,0,11.34765625,-4.359375,1,0,0,0,65,65,4,1,,,,,,,,
,,,,,,,,,,,,,FF,,,,,,,,2.9352,,,,,,,,,,,,,,,,,,,,,,60fceca1cfdf67843110b0dc,61036dfef7272343cda563a5,2021-07-29_23h12.49.330,Simcolourproject_2stim_asymm_v5,2020.2.10,MacIntel,60,61025ae37ef11b136ea224fe,,,,,,,,,4181,36.75,99.6796875,1,0,0,response1disk,,7,5.90625,-11.48828125,1,0,0,rectangle,5.90625,-11.48828125,1,0,0,5.90625,-11.48828125,1,0,0,0,66,66,138,1,,,,,,,,
,,,,,,,,,,,,,FF,,,,,,,,1.0171,,,,,,,,,,,,,,,,,,,,,,60fceca1cfdf67843110b0dc,61036dfef7272343cda563a5,2021-07-29_23h12.49.330,Simcolourproject_2stim_asymm_v5,2020.2.10,MacIntel,60,61025ae37ef11b136ea224fe,,,,,,,,,4268,94.859375,46.98828125,1,0,0,response1disk,,6,-11.46484375,1.96875,1,0,0,rectangle,-11.46484375,1.96875,1,0,0,-11.46484375,1.96875,1,0,0,0,67,67,64,1,,,,,,,,
,,,,,,,,,,,,,FF,,,,,,,,2.8554,,,,,,,,,,,,,,,,,,,,,,60fceca1cfdf67843110b0dc,61036dfef7272343cda563a5,2021-07-29_23h12.49.330,Simcolourproject_2stim_asymm_v5,2020.2.10,MacIntel,60,61025ae37ef11b136ea224fe,,,,,,,,,1528,88.98828125,-35.9921875,1,0,0,response3disk,,5,0.328125,8.95703125,1,0,0,rectangle,0.328125,8.95703125,1,0,0,0.328125,8.95703125,1,0,0,0,68,68,44,1,,,,,,,,
,,,,,,,,,,,,,FF,,,,,,,,1.0172,,,,,,,,,,,,,,,,,,,,,,60fceca1cfdf67843110b0dc,61036dfef7272343cda563a5,2021-07-29_23h12.49.330,Simcolourproject_2stim_asymm_v5,2020.2.10,MacIntel,60,61025ae37ef11b136ea224fe,,,,,,,,,3754,35.0625,-88.875,1,0,0,response3disk,,4,-3.7890625,5.171875,1,0,0,rectangle,-3.7890625,5.171875,1,0,0,-3.7890625,5.171875,1,0,0,0,69,69,32,1,,,,,,,,
,,,,,,,,,,,,,FF,,,,,,,,1.4781,,,,,,,,,,,,,,,,,,,,,,60fceca1cfdf67843110b0dc,61036dfef7272343cda563a5,2021-07-29_23h12.49.330,Simcolourproject_2stim_asymm_v5,2020.2.10,MacIntel,60,61025ae37ef11b136ea224fe,,,,,,,,,1937,-80.984375,29.7109375,1,0,0,response7disk,,1,-11.4765625,-0.15625,1,0,0,rectangle,-11.4765625,-0.15625,1,0,0,-11.4765625,-0.15625,1,0,0,0,70,70,93,1,,,,,,,,
,,,,,,,,,,,,,FF,,,,,,,,1.417,,,,,,,,,,,,,,,,,,,,,,60fceca1cfdf67843110b0dc,61036dfef7272343cda563a5,2021-07-29_23h12.49.330,Simcolourproject_2stim_asymm_v5,2020.2.10,MacIntel,60,61025ae37ef11b136ea224fe,,,,,,,,,1375,-75.5625,-52.8828125,1,0,0,response5disk,,2,-1.625,-5.85546875,1,0,0,rectangle,-1.625,-5.85546875,1,0,0,-1.625,-5.85546875,1,0,0,0,71,71,120,1,,,,,,,,
,,,,,,,,,,,,,FF,,,,,,,,1.4838,,,,,,,,,,,,,,,,,,,,,,60fceca1cfdf67843110b0dc,61036dfef7272343cda563a5,2021-07-29_23h12.49.330,Simcolourproject_2stim_asymm_v5,2020.2.10,MacIntel,60,61025ae37ef11b136ea224fe,,,,,,,,,2591,-83.78125,-37.43359375,1,0,0,response5disk,,2,6.62890625,-3.7578125,1,0,0,rectangle,6.62890625,-3.7578125,1,0,0,6.62890625,-3.7578125,1,0,0,0,72,72,55,1,,,,,,,,
,,,,,,,,,,,,,FF,,,,,,,,0.7337,,,,,,,,,,,,,,,,,,,,,,60fceca1cfdf67843110b0dc,61036dfef7272343cda563a5,2021-07-29_23h12.49.330,Simcolourproject_2stim_asymm_v5,2020.2.10,MacIntel,60,61025ae37ef11b136ea224fe,,,,,,,,,1527,-95.75,-32.984375,1,0,0,response5disk,,2,-0.515625,-1.63671875,1,0,0,rectangle,-0.515625,-1.63671875,1,0,0,-0.515625,-1.63671875,1,0,0,0,73,73,36,1,,,,,,,,
,,,,,,,,,,,,,FF,,,,,,,,0.749,,,,,,,,,,,,,,,,,,,,,,60fceca1cfdf67843110b0dc,61036dfef7272343cda563a5,2021-07-29_23h12.49.330,Simcolourproject_2stim_asymm_v5,2020.2.10,MacIntel,60,61025ae37ef11b136ea224fe,,,,,,,,,389,-47.64453125,-88.9453125,1,0,0,response5disk,,3,6.125,-5.78125,1,0,0,rectangle,6.125,-5.78125,1,0,0,6.125,-5.78125,1,0,0,0,74,74,51,1,,,,,,,,
,,,,,,,,,,,,,FF,,,,,,,,1.6145,,,,,,,,,,,,,,,,,,,,,,60fceca1cfdf67843110b0dc,61036dfef7272343cda563a5,2021-07-29_23h12.49.330,Simcolourproject_2stim_asymm_v5,2020.2.10,MacIntel,60,61025ae37ef11b136ea224fe,,,,,,,,,2508,-34.81640625,-79.7265625,1,0,0,response5disk,,3,8.47265625,9.17578125,1,0,0,rectangle,8.47265625,9.17578125,1,0,0,8.47265625,9.17578125,1,0,0,0,75,75,77,1,,,,,,,,
,,,,,,,,,,,,,FF,,,,,,,,0.9676,,,,,,,,,,,,,,,,,,,,,,60fceca1cfdf67843110b0dc,61036dfef7272343cda563a5,2021-07-29_23h12.49.330,Simcolourproject_2stim_asymm_v5,2020.2.10,MacIntel,60,61025ae37ef11b136ea224fe,,,,,,,,,1335,-48.59765625,76.97265625,1,0,0,response7disk,,0,3.671875,-5.6328125,1,0,0,rectangle,3.671875,-5.6328125,1,0,0,3.671875,-5.6328125,1,0,0,0,76,76,143,1,,,,,,,,
,,,,,,,,,,,,,FF,,,,,,,,1.2178,,,,,,,,,,,,,,,,,,,,,,60fceca1cfdf67843110b0dc,61036dfef7272343cda563a5,2021-07-29_23h12.49.330,Simcolourproject_2stim_asymm_v5,2020.2.10,MacIntel,60,61025ae37ef11b136ea224fe,,,,,,,,,3876,-94.8671875,39.9453125,1,0,0,response7disk,,1,-2.76171875,-0.69921875,1,0,0,rectangle,-2.76171875,-0.69921875,1,0,0,-2.76171875,-0.69921875,1,0,0,0,77,77,29,1,,,,,,,,
,,,,,,,,,,,,,FF,,,,,,,,1.6002,,,,,,,,,,,,,,,,,,,,,,60fceca1cfdf67843110b0dc,61036dfef7272343cda563a5,2021-07-29_23h12.49.330,Simcolourproject_2stim_asymm_v5,2020.2.10,MacIntel,60,61025ae37ef11b136ea224fe,,,,,,,,,2559,-72.16796875,-45.87890625,1,0,0,response5disk,,2,14.9921875,2.84765625,1,0,0,rectangle,14.9921875,2.84765625,1,0,0,14.9921875,2.84765625,1,0,0,0,78,78,50,1,,,,,,,,
,,,,,,,,,,,,,FF,,,,,,,,0.8172,,,,,,,,,,,,,,,,,,,,,,60fceca1cfdf67843110b0dc,61036dfef7272343cda563a5,2021-07-29_23h12.49.330,Simcolourproject_2stim_asymm_v5,2020.2.10,MacIntel,60,61025ae37ef11b136ea224fe,,,,,,,,,2453,-34.7265625,67.33203125,1,0,0,response7disk,,0,-6.88671875,0.5390625,1,0,0,rectangle,-6.88671875,0.5390625,1,0,0,-6.88671875,0.5390625,1,0,0,0,79,79,42,1,,,,,,,,
,,,,,,,,,,,,,FF,,,,,,,,0.6813,,,,,,,,,,,,,,,,,,,,,,60fceca1cfdf67843110b0dc,61036dfef7272343cda563a5,2021-07-29_23h12.49.330,Simcolourproject_2stim_asymm_v5,2020.2.10,MacIntel,60,61025ae37ef11b136ea224fe,,,,,,,,,2396,-29.73046875,80.59375,1,0,0,response7disk,,0,-1.61328125,-4.4765625,1,0,0,rectangle,-1.61328125,-4.4765625,1,0,0,-1.61328125,-4.4765625,1,0,0,0,80,80,139,1,,,,,,,,
,,,,,,,,,,,,,FF,,,,,,,,1.3337,,,,,,,,,,,,,,,,,,,,,,60fceca1cfdf67843110b0dc,61036dfef7272343cda563a5,2021-07-29_23h12.49.330,Simcolourproject_2stim_asymm_v5,2020.2.10,MacIntel,60,61025ae37ef11b136ea224fe,,,,,,,,,1931,-19.44921875,63.82421875,1,0,0,response7disk,,0,-1.359375,4.97265625,1,0,0,rectangle,-1.359375,4.97265625,1,0,0,-1.359375,4.97265625,1,0,0,0,81,81,31,1,,,,,,,,
,,,,,,,,,,,,,FF,,,,,,,,1.252,,,,,,,,,,,,,,,,,,,,,,60fceca1cfdf67843110b0dc,61036dfef7272343cda563a5,2021-07-29_23h12.49.330,Simcolourproject_2stim_asymm_v5,2020.2.10,MacIntel,60,61025ae37ef11b136ea224fe,,,,,,,,,1203,-85.875,44.66796875,1,0,0,response7disk,,1,-4.13671875,-12.5859375,1,0,0,rectangle,-4.13671875,-12.5859375,1,0,0,-4.13671875,-12.5859375,1,0,0,0,82,82,43,1,,,,,,,,
,,,,,,,,,,,,,FF,,,,,,,,0.9667,,,,,,,,,,,,,,,,,,,,,,60fceca1cfdf67843110b0dc,61036dfef7272343cda563a5,2021-07-29_23h12.49.330,Simcolourproject_2stim_asymm_v5,2020.2.10,MacIntel,60,61025ae37ef11b136ea224fe,,,,,,,,,4211,-43.3125,68.9609375,1,0,0,response7disk,,0,-11.82421875,-12.90234375,1,0,0,rectangle,-11.82421875,-12.90234375,1,0,0,-11.82421875,-12.90234375,1,0,0,0,83,83,59,1,,,,,,,,
,,,,,,,,,,,,,FF,,,,,,,,0.5987,,,,,,,,,,,,,,,,,,,,,,60fceca1cfdf67843110b0dc,61036dfef7272343cda563a5,2021-07-29_23h12.49.330,Simcolourproject_2stim_asymm_v5,2020.2.10,MacIntel,60,61025ae37ef11b136ea224fe,,,,,,,,,3029,-31.96484375,61.12890625,1,0,0,response7disk,,0,-13.45703125,-11.23046875,1,0,0,rectangle,-13.45703125,-11.23046875,1,0,0,-13.45703125,-11.23046875,1,0,0,0,84,84,142,1,,,,,,,,
,,,,,,,,,,,,,FF,,,,,,,,1.4857,,,,,,,,,,,,,,,,,,,,,,60fceca1cfdf67843110b0dc,61036dfef7272343cda563a5,2021-07-29_23h12.49.330,Simcolourproject_2stim_asymm_v5,2020.2.10,MacIntel,60,61025ae37ef11b136ea224fe,,,,,,,,,3089,81.45703125,27.96875,1,0,0,response1disk,,6,12.234375,2.0625,1,0,0,rectangle,12.234375,2.0625,1,0,0,12.234375,2.0625,1,0,0,0,85,85,133,1,,,,,,,,
,,,,,,,,,,,,,FF,,,,,,,,1.1157,,,,,,,,,,,,,,,,,,,,,,60fceca1cfdf67843110b0dc,61036dfef7272343cda563a5,2021-07-29_23h12.49.330,Simcolourproject_2stim_asymm_v5,2020.2.10,MacIntel,60,61025ae37ef11b136ea224fe,,,,,,,,,3030,-31.6796875,60.23828125,1,0,0,response7disk,,0,-15.8984375,5.98828125,1,0,0,rectangle,-15.8984375,5.98828125,1,0,0,-15.8984375,5.98828125,1,0,0,0,86,86,48,1,,,,,,,,
,,,,,,,,,,,,,FF,,,,,,,,1.683,,,,,,,,,,,,,,,,,,,,,,60fceca1cfdf67843110b0dc,61036dfef7272343cda563a5,2021-07-29_23h12.49.330,Simcolourproject_2stim_asymm_v5,2020.2.10,MacIntel,60,61025ae37ef11b136ea224fe,,,,,,,,,2481,53.984375,-85.4453125,1,0,0,response3disk,,4,10.1875,-0.79296875,1,0,0,rectangle,10.1875,-0.79296875,1,0,0,10.1875,-0.79296875,1,0,0,0,87,87,71,1,,,,,,,,
,,,,,,,,,,,,,FF,,,,,,,,1.3853,,,,,,,,,,,,,,,,,,,,,,60fceca1cfdf67843110b0dc,61036dfef7272343cda563a5,2021-07-29_23h12.49.330,Simcolourproject_2stim_asymm_v5,2020.2.10,MacIntel,60,61025ae37ef11b136ea224fe,,,,,,,,,1106,-69.734375,46.49609375,1,0,0,response7disk,,1,0.390625,11.72265625,1,0,0,rectangle,0.390625,11.72265625,1,0,0,0.390625,11.72265625,1,0,0,0,88,88,5,1,,,,,,,,
,,,,,,,,,,,,,FF,,,,,,,,0.6159,,,,,,,,,,,,,,,,,,,,,,60fceca1cfdf67843110b0dc,61036dfef7272343cda563a5,2021-07-29_23h12.49.330,Simcolourproject_2stim_asymm_v5,2020.2.10,MacIntel,60,61025ae37ef11b136ea224fe,,,,,,,,,3440,-40.93359375,83.20703125,1,0,0,response7disk,,0,-7.4765625,0.04296875,1,0,0,rectangle,-7.4765625,0.04296875,1,0,0,-7.4765625,0.04296875,1,0,0,0,89,89,140,1,,,,,,,,
,,,,,,,,,,,,,FF,,,,,,,,1.0852,,,,,,,,,,,,,,,,,,,,,,60fceca1cfdf67843110b0dc,61036dfef7272343cda563a5,2021-07-29_23h12.49.330,Simcolourproject_2stim_asymm_v5,2020.2.10,MacIntel,60,61025ae37ef11b136ea224fe,,,,,,,,,1827,72.90625,-26.03515625,1,0,0,response3disk,,5,15.02734375,14.140625,1,0,0,rectangle,70.7578125,-41.4453125,1,0,0,6.9296875,-3.2109375,1,0,0,0,90,90,115,1,,response3disk_3,TRUE,5,5,"[45,160,308,33,240,279,160,45,149,318,34,37,113,162,130,91,303,294,208,199]",1.3824,rectangle
,,,,,,,,,,,,,FF,,,,,,,,1.616,,,,,,,,,,,,,,,,,,,,,,60fceca1cfdf67843110b0dc,61036dfef7272343cda563a5,2021-07-29_23h12.49.330,Simcolourproject_2stim_asymm_v5,2020.2.10,MacIntel,60,61025ae37ef11b136ea224fe,,,,,,,,,2245,-72.5234375,48.37890625,1,0,0,response7disk,,1,-22.4296875,-1.46484375,1,0,0,rectangle,-22.4296875,-1.46484375,1,0,0,-22.4296875,-1.46484375,1,0,0,0,91,91,104,1,,,,,,,,
,,,,,,,,,,,,,FF,,,,,,,,1.6335,,,,,,,,,,,,,,,,,,,,,,60fceca1cfdf67843110b0dc,61036dfef7272343cda563a5,2021-07-29_23h12.49.330,Simcolourproject_2stim_asymm_v5,2020.2.10,MacIntel,60,61025ae37ef11b136ea224fe,,,,,,,,,1255,-66.0234375,48.03125,1,0,0,response7disk,,1,-14.51953125,-6.625,1,0,0,rectangle,-14.51953125,-6.625,1,0,0,-14.51953125,-6.625,1,0,0,0,92,92,116,1,,,,,,,,
,,,,,,,,,,,,,FF,,,,,,,,1.065,,,,,,,,,,,,,,,,,,,,,,60fceca1cfdf67843110b0dc,61036dfef7272343cda563a5,2021-07-29_23h12.49.330,Simcolourproject_2stim_asymm_v5,2020.2.10,MacIntel,60,61025ae37ef11b136ea224fe,,,,,,,,,3844,93,-33.47265625,1,0,0,response3disk,,5,11.6328125,-10.015625,1,0,0,rectangle,11.6328125,-10.015625,1,0,0,11.6328125,-10.015625,1,0,0,0,93,93,85,1,,,,,,,,
,,,,,,,,,,,,,FF,,,,,,,,0.9356,,,,,,,,,,,,,,,,,,,,,,60fceca1cfdf67843110b0dc,61036dfef7272343cda563a5,2021-07-29_23h12.49.330,Simcolourproject_2stim_asymm_v5,2020.2.10,MacIntel,60,61025ae37ef11b136ea224fe,,,,,,,,,1018,-92.734375,-43.75390625,1,0,0,response5disk,,2,12.68359375,-5.51953125,1,0,0,rectangle,12.68359375,-5.51953125,1,0,0,12.68359375,-5.51953125,1,0,0,0,94,94,136,1,,,,,,,,
,,,,,,,,,,,,,FF,,,,,,,,0.8838,,,,,,,,,,,,,,,,,,,,,,60fceca1cfdf67843110b0dc,61036dfef7272343cda563a5,2021-07-29_23h12.49.330,Simcolourproject_2stim_asymm_v5,2020.2.10,MacIntel,60,61025ae37ef11b136ea224fe,,,,,,,,,45,-47.015625,74.3203125,1,0,0,response7disk,,0,-11.359375,-3.234375,1,0,0,rectangle,-11.359375,-3.234375,1,0,0,-11.359375,-3.234375,1,0,0,0,95,95,101,1,,,,,,,,
,,,,,,,,,,,,,FF,,,,,,,,0.5851,,,,,,,,,,,,,,,,,,,,,,60fceca1cfdf67843110b0dc,61036dfef7272343cda563a5,2021-07-29_23h12.49.330,Simcolourproject_2stim_asymm_v5,2020.2.10,MacIntel,60,61025ae37ef11b136ea224fe,,,,,,,,,4037,-28.88671875,69.12109375,1,0,0,response7disk,,0,-3.33203125,-1.7265625,1,0,0,rectangle,-3.33203125,-1.7265625,1,0,0,-3.33203125,-1.7265625,1,0,0,0,96,96,33,1,,,,,,,,
,,,,,,,,,,,,,FF,,,,,,,,2.1845,,,,,,,,,,,,,,,,,,,,,,60fceca1cfdf67843110b0dc,61036dfef7272343cda563a5,2021-07-29_23h12.49.330,Simcolourproject_2stim_asymm_v5,2020.2.10,MacIntel,60,61025ae37ef11b136ea224fe,,,,,,,,,2581,-55.59765625,98.578125,1,0,0,response7disk,,0,2.42578125,-9.484375,1,0,0,rectangle,2.42578125,-9.484375,1,0,0,2.42578125,-9.484375,1,0,0,0,97,97,153,1,,,,,,,,
,,,,,,,,,,,,,FF,,,,,,,,0.9159,,,,,,,,,,,,,,,,,,,,,,60fceca1cfdf67843110b0dc,61036dfef7272343cda563a5,2021-07-29_23h12.49.330,Simcolourproject_2stim_asymm_v5,2020.2.10,MacIntel,60,61025ae37ef11b136ea224fe,,,,,,,,,3478,50.71484375,-77.06640625,1,0,0,response3disk,,4,12.25390625,4.2109375,1,0,0,rectangle,12.25390625,4.2109375,1,0,0,12.25390625,4.2109375,1,0,0,0,98,98,130,1,,,,,,,,
,,,,,,,,,,,,,FF,,,,,,,,1.1326,,,,,,,,,,,,,,,,,,,,,,60fceca1cfdf67843110b0dc,61036dfef7272343cda563a5,2021-07-29_23h12.49.330,Simcolourproject_2stim_asymm_v5,2020.2.10,MacIntel,60,61025ae37ef11b136ea224fe,,,,,,,,,3423,-81.04296875,-49.1640625,1,0,0,response5disk,,2,-7.22265625,-2.5546875,1,0,0,rectangle,-7.22265625,-2.5546875,1,0,0,-7.22265625,-2.5546875,1,0,0,0,99,99,90,1,,,,,,,,
,,,,,,,,,,,,,FF,,,,,,,,0.6686,,,,,,,,,,,,,,,,,,,,,,60fceca1cfdf67843110b0dc,61036dfef7272343cda563a5,2021-07-29_23h12.49.330,Simcolourproject_2stim_asymm_v5,2020.2.10,MacIntel,60,61025ae37ef11b136ea224fe,,,,,,,,,4086,-43.35546875,56.1328125,1,0,0,response7disk,,0,-7.765625,-7.51171875,1,0,0,rectangle,-7.765625,-7.51171875,1,0,0,-7.765625,-7.51171875,1,0,0,0,100,100,94,1,,,,,,,,
,,,,,,,,,,,,,FF,,,,,,,,0.7145,,,,,,,,,,,,,,,,,,,,,,60fceca1cfdf67843110b0dc,61036dfef7272343cda563a5,2021-07-29_23h12.49.330,Simcolourproject_2stim_asymm_v5,2020.2.10,MacIntel,60,61025ae37ef11b136ea224fe,,,,,,,,,494,-30.8984375,81.29296875,1,0,0,response7disk,,0,-6.25,1.6015625,1,0,0,rectangle,-6.25,1.6015625,1,0,0,-6.25,1.6015625,1,0,0,0,101,101,105,1,,,,,,,,
,,,,,,,,,,,,,FF,,,,,,,,0.9965,,,,,,,,,,,,,,,,,,,,,,60fceca1cfdf67843110b0dc,61036dfef7272343cda563a5,2021-07-29_23h12.49.330,Simcolourproject_2stim_asymm_v5,2020.2.10,MacIntel,60,61025ae37ef11b136ea224fe,,,,,,,,,277,75.70703125,58.43359375,1,0,0,response1disk,,6,-4.328125,-7.46875,1,0,0,rectangle,-4.328125,-7.46875,1,0,0,-4.328125,-7.46875,1,0,0,0,102,102,63,1,,,,,,,,
,,,,,,,,,,,,,FF,,,,,,,,6.0333,,,,,,,,,,,,,,,,,,,,,,60fceca1cfdf67843110b0dc,61036dfef7272343cda563a5,2021-07-29_23h12.49.330,Simcolourproject_2stim_asymm_v5,2020.2.10,MacIntel,60,61025ae37ef11b136ea224fe,,,,,,,,,1313,-24.78515625,-61.08984375,1,0,0,response5disk,,3,-4.359375,11.05859375,1,0,0,rectangle,-4.359375,11.05859375,1,0,0,-4.359375,11.05859375,1,0,0,0,103,103,46,1,,,,,,,,
,,,,,,,,,,,,,FF,,,,,,,,3.052,,,,,,,,,,,,,,,,,,,,,,60fceca1cfdf67843110b0dc,61036dfef7272343cda563a5,2021-07-29_23h12.49.330,Simcolourproject_2stim_asymm_v5,2020.2.10,MacIntel,60,61025ae37ef11b136ea224fe,,,,,,,,,2540,73.33984375,32.67578125,1,0,0,response1disk,,6,8.25,-6.484375,1,0,0,rectangle,8.25,-6.484375,1,0,0,8.25,-6.484375,1,0,0,0,104,104,110,1,,,,,,,,
,,,,,,,,,,,,,FF,,,,,,,,2.4036,,,,,,,,,,,,,,,,,,,,,,60fceca1cfdf67843110b0dc,61036dfef7272343cda563a5,2021-07-29_23h12.49.330,Simcolourproject_2stim_asymm_v5,2020.2.10,MacIntel,60,61025ae37ef11b136ea224fe,,,,,,,,,673,39.91015625,-72.7578125,1,0,0,response3disk,,4,9.26953125,12.453125,1,0,0,rectangle,9.26953125,12.453125,1,0,0,9.26953125,12.453125,1,0,0,0,105,105,80,1,,,,,,,,
,,,,,,,,,,,,,FF,,,,,,,,1.4502,,,,,,,,,,,,,,,,,,,,,,60fceca1cfdf67843110b0dc,61036dfef7272343cda563a5,2021-07-29_23h12.49.330,Simcolourproject_2stim_asymm_v5,2020.2.10,MacIntel,60,61025ae37ef11b136ea224fe,,,,,,,,,1198,-33.19921875,-73.859375,1,0,0,response5disk,,3,-9.40625,4.79296875,1,0,0,rectangle,-9.40625,4.79296875,1,0,0,-9.40625,4.79296875,1,0,0,0,106,106,135,1,,,,,,,,
,,,,,,,,,,,,,FF,,,,,,,,3.4499,,,,,,,,,,,,,,,,,,,,,,60fceca1cfdf67843110b0dc,61036dfef7272343cda563a5,2021-07-29_23h12.49.330,Simcolourproject_2stim_asymm_v5,2020.2.10,MacIntel,60,61025ae37ef11b136ea224fe,,,,,,,,,854,83.1875,50.640625,1,0,0,response1disk,,6,17.8984375,1.41796875,1,0,0,rectangle,17.8984375,1.41796875,1,0,0,17.8984375,1.41796875,1,0,0,0,107,107,27,1,,,,,,,,
,,,,,,,,,,,,,FF,,,,,,,,1.2528,,,,,,,,,,,,,,,,,,,,,,60fceca1cfdf67843110b0dc,61036dfef7272343cda563a5,2021-07-29_23h12.49.330,Simcolourproject_2stim_asymm_v5,2020.2.10,MacIntel,60,61025ae37ef11b136ea224fe,,,,,,,,,4271,53.66015625,77.22265625,1,0,0,response1disk,,7,-17.796875,-5.7421875,1,0,0,rectangle,-17.796875,-5.7421875,1,0,0,-17.796875,-5.7421875,1,0,0,0,108,108,68,1,,,,,,,,
,,,,,,,,,,,,,FF,,,,,,,,1.0166,,,,,,,,,,,,,,,,,,,,,,60fceca1cfdf67843110b0dc,61036dfef7272343cda563a5,2021-07-29_23h12.49.330,Simcolourproject_2stim_asymm_v5,2020.2.10,MacIntel,60,61025ae37ef11b136ea224fe,,,,,,,,,2857,82.65234375,42.06640625,1,0,0,response1disk,,6,-6.01953125,-4.8125,1,0,0,rectangle,-6.01953125,-4.8125,1,0,0,-6.01953125,-4.8125,1,0,0,0,109,109,109,1,,,,,,,,
,,,,,,,,,,,,,FF,,,,,,,,1.0526,,,,,,,,,,,,,,,,,,,,,,60fceca1cfdf67843110b0dc,61036dfef7272343cda563a5,2021-07-29_23h12.49.330,Simcolourproject_2stim_asymm_v5,2020.2.10,MacIntel,60,61025ae37ef11b136ea224fe,,,,,,,,,7,-79.1015625,-40.08984375,1,0,0,response5disk,,2,-15.01171875,-2.59375,1,0,0,rectangle,-15.01171875,-2.59375,1,0,0,-15.01171875,-2.59375,1,0,0,0,110,110,95,1,,,,,,,,
,,,,,,,,,,,,,FF,,,,,,,,1.0162,,,,,,,,,,,,,,,,,,,,,,60fceca1cfdf67843110b0dc,61036dfef7272343cda563a5,2021-07-29_23h12.49.330,Simcolourproject_2stim_asymm_v5,2020.2.10,MacIntel,60,61025ae37ef11b136ea224fe,,,,,,,,,1916,-34.60546875,-90.50390625,1,0,0,response5disk,,3,4.19140625,10.234375,1,0,0,rectangle,4.19140625,10.234375,1,0,0,4.19140625,10.234375,1,0,0,0,111,111,100,1,,,,,,,,
,,,,,,,,,,,,,FF,,,,,,,,1.5006,,,,,,,,,,,,,,,,,,,,,,60fceca1cfdf67843110b0dc,61036dfef7272343cda563a5,2021-07-29_23h12.49.330,Simcolourproject_2stim_asymm_v5,2020.2.10,MacIntel,60,61025ae37ef11b136ea224fe,,,,,,,,,3182,91.6796875,26.875,1,0,0,response1disk,,6,30.26171875,-0.90625,1,0,0,rectangle,-94.44140625,39.88671875,1,0,0,-4.5859375,-2.4453125,1,0,0,0,112,112,61,1,,response7disk_3,TRUE,1,1,"[45,160,308,33,240,279,160,45,149,318,34,37,113,162,130,91,303,294,208,199]",1.4136,rectangle
,,,,,,,,,,,,,FF,,,,,,,,1.8501,,,,,,,,,,,,,,,,,,,,,,60fceca1cfdf67843110b0dc,61036dfef7272343cda563a5,2021-07-29_23h12.49.330,Simcolourproject_2stim_asymm_v5,2020.2.10,MacIntel,60,61025ae37ef11b136ea224fe,,,,,,,,,1552,71.2890625,24.515625,1,0,0,response1disk,,6,12.3828125,-7.70703125,1,0,0,rectangle,12.3828125,-7.70703125,1,0,0,12.3828125,-7.70703125,1,0,0,0,113,113,91,1,,,,,,,,
,,,,,,,,,,,,,FF,,,,,,,,0.6832,,,,,,,,,,,,,,,,,,,,,,60fceca1cfdf67843110b0dc,61036dfef7272343cda563a5,2021-07-29_23h12.49.330,Simcolourproject_2stim_asymm_v5,2020.2.10,MacIntel,60,61025ae37ef11b136ea224fe,,,,,,,,,485,65.1640625,-24.04296875,1,0,0,response3disk,,5,0.0390625,-5.15234375,1,0,0,rectangle,0.0390625,-5.15234375,1,0,0,0.0390625,-5.15234375,1,0,0,0,114,114,150,1,,,,,,,,
,,,,,,,,,,,,,FF,,,,,,,,0.9819,,,,,,,,,,,,,,,,,,,,,,60fceca1cfdf67843110b0dc,61036dfef7272343cda563a5,2021-07-29_23h12.49.330,Simcolourproject_2stim_asymm_v5,2020.2.10,MacIntel,60,61025ae37ef11b136ea224fe,,,,,,,,,1266,56.28125,81.5859375,1,0,0,response1disk,,7,8.6015625,2.4921875,1,0,0,rectangle,8.6015625,2.4921875,1,0,0,8.6015625,2.4921875,1,0,0,0,115,115,111,1,,,,,,,,
,,,,,,,,,,,,,FF,,,,,,,,1.3824,,,,,,,,,,,,,,,,,,,,,,60fceca1cfdf67843110b0dc,61036dfef7272343cda563a5,2021-07-29_23h12.49.330,Simcolourproject_2stim_asymm_v5,2020.2.10,MacIntel,60,61025ae37ef11b136ea224fe,,,,,,,,,2110,-34.17578125,-91.5078125,1,0,0,response5disk,,3,-5.15625,-4.0234375,1,0,0,rectangle,-5.15625,-4.0234375,1,0,0,-5.15625,-4.0234375,1,0,0,0,116,116,81,1,,,,,,,,
,,,,,,,,,,,,,FF,,,,,,,,1.1835,,,,,,,,,,,,,,,,,,,,,,60fceca1cfdf67843110b0dc,61036dfef7272343cda563a5,2021-07-29_23h12.49.330,Simcolourproject_2stim_asymm_v5,2020.2.10,MacIntel,60,61025ae37ef11b136ea224fe,,,,,,,,,3405,92.8828125,26.2734375,1,0,0,response1disk,,6,23.9765625,-2.5625,1,0,0,rectangle,23.9765625,-2.5625,1,0,0,23.9765625,-2.5625,1,0,0,0,117,117,9,1,,,,,,,,
,,,,,,,,,,,,,FF,,,,,,,,0.8837,,,,,,,,,,,,,,,,,,,,,,60fceca1cfdf67843110b0dc,61036dfef7272343cda563a5,2021-07-29_23h12.49.330,Simcolourproject_2stim_asymm_v5,2020.2.10,MacIntel,60,61025ae37ef11b136ea224fe,,,,,,,,,2923,73.87109375,47.40234375,1,0,0,response1disk,,6,19.7109375,1.48046875,1,0,0,rectangle,19.7109375,1.48046875,1,0,0,19.7109375,1.48046875,1,0,0,0,118,118,97,1,,,,,,,,
,,,,,,,,,,,,,FF,,,,,,,,0.8831,,,,,,,,,,,,,,,,,,,,,,60fceca1cfdf67843110b0dc,61036dfef7272343cda563a5,2021-07-29_23h12.49.330,Simcolourproject_2stim_asymm_v5,2020.2.10,MacIntel,60,61025ae37ef11b136ea224fe,,,,,,,,,1429,-50.390625,-91.93359375,1,0,0,response5disk,,3,6.41796875,0.45703125,1,0,0,rectangle,6.41796875,0.45703125,1,0,0,6.41796875,0.45703125,1,0,0,0,119,119,12,1,,,,,,,,
,,,,,,,,,,,,,FF,,,,,,,,0.9834,,,,,,,,,,,,,,,,,,,,,,60fceca1cfdf67843110b0dc,61036dfef7272343cda563a5,2021-07-29_23h12.49.330,Simcolourproject_2stim_asymm_v5,2020.2.10,MacIntel,60,61025ae37ef11b136ea224fe,,,,,,,,,757,44.06640625,87.7890625,1,0,0,response1disk,,7,-3.67578125,-14.22265625,1,0,0,rectangle,-3.67578125,-14.22265625,1,0,0,-3.67578125,-14.22265625,1,0,0,0,120,120,121,1,,,,,,,,
,,,,,,,,,,,,,FF,,,,,,,,1.4691,,,,,,,,,,,,,,,,,,,,,,60fceca1cfdf67843110b0dc,61036dfef7272343cda563a5,2021-07-29_23h12.49.330,Simcolourproject_2stim_asymm_v5,2020.2.10,MacIntel,60,61025ae37ef11b136ea224fe,,,,,,,,,1150,-71.85546875,56.09765625,1,0,0,response7disk,,1,-3.03125,-3.03515625,1,0,0,rectangle,-3.03125,-3.03515625,1,0,0,-3.03125,-3.03515625,1,0,0,0,121,121,106,1,,,,,,,,
,,,,,,,,,,,,,FF,,,,,,,,1.0167,,,,,,,,,,,,,,,,,,,,,,60fceca1cfdf67843110b0dc,61036dfef7272343cda563a5,2021-07-29_23h12.49.330,Simcolourproject_2stim_asymm_v5,2020.2.10,MacIntel,60,61025ae37ef11b136ea224fe,,,,,,,,,1640,68.4453125,47.8828125,1,0,0,response1disk,,6,2.58203125,3.61328125,1,0,0,rectangle,2.58203125,3.61328125,1,0,0,2.58203125,3.61328125,1,0,0,0,122,122,23,1,,,,,,,,
,,,,,,,,,,,,,FF,,,,,,,,1.3202,,,,,,,,,,,,,,,,,,,,,,60fceca1cfdf67843110b0dc,61036dfef7272343cda563a5,2021-07-29_23h12.49.330,Simcolourproject_2stim_asymm_v5,2020.2.10,MacIntel,60,61025ae37ef11b136ea224fe,,,,,,,,,1382,-71.71875,-52.74609375,1,0,0,response5disk,,2,0.12109375,-12.7734375,1,0,0,rectangle,0.12109375,-12.7734375,1,0,0,0.12109375,-12.7734375,1,0,0,0,123,123,21,1,,,,,,,,
,,,,,,,,,,,,,FF,,,,,,,,1.8317,,,,,,,,,,,,,,,,,,,,,,60fceca1cfdf67843110b0dc,61036dfef7272343cda563a5,2021-07-29_23h12.49.330,Simcolourproject_2stim_asymm_v5,2020.2.10,MacIntel,60,61025ae37ef11b136ea224fe,,,,,,,,,3268,73.69140625,44.07421875,1,0,0,response1disk,,6,2.4765625,-4.44140625,1,0,0,rectangle,2.4765625,-4.44140625,1,0,0,2.4765625,-4.44140625,1,0,0,0,124,124,88,1,,,,,,,,
,,,,,,,,,,,,,FF,,,,,,,,1.0992,,,,,,,,,,,,,,,,,,,,,,60fceca1cfdf67843110b0dc,61036dfef7272343cda563a5,2021-07-29_23h12.49.330,Simcolourproject_2stim_asymm_v5,2020.2.10,MacIntel,60,61025ae37ef11b136ea224fe,,,,,,,,,2147,66.296875,41.30859375,1,0,0,response1disk,,6,8.66796875,-4.23828125,1,0,0,rectangle,8.66796875,-4.23828125,1,0,0,8.66796875,-4.23828125,1,0,0,0,125,125,34,1,,,,,,,,
,,,,,,,,,,,,,FF,,,,,,,,1.0162,,,,,,,,,,,,,,,,,,,,,,60fceca1cfdf67843110b0dc,61036dfef7272343cda563a5,2021-07-29_23h12.49.330,Simcolourproject_2stim_asymm_v5,2020.2.10,MacIntel,60,61025ae37ef11b136ea224fe,,,,,,,,,2358,-67.25390625,26.03125,1,0,0,response7disk,,1,-6.9765625,8.69921875,1,0,0,rectangle,-6.9765625,8.69921875,1,0,0,-6.9765625,8.69921875,1,0,0,0,126,126,83,1,,,,,,,,
,,,,,,,,,,,,,FF,,,,,,,,1.0308,,,,,,,,,,,,,,,,,,,,,,60fceca1cfdf67843110b0dc,61036dfef7272343cda563a5,2021-07-29_23h12.49.330,Simcolourproject_2stim_asymm_v5,2020.2.10,MacIntel,60,61025ae37ef11b136ea224fe,,,,,,,,,2768,-44.375,-79.57421875,1,0,0,response5disk,,3,-10.33984375,-2.1484375,1,0,0,rectangle,-10.33984375,-2.1484375,1,0,0,-10.33984375,-2.1484375,1,0,0,0,127,127,69,1,,,,,,,,
,,,,,,,,,,,,,FF,,,,,,,,0.9017,,,,,,,,,,,,,,,,,,,,,,60fceca1cfdf67843110b0dc,61036dfef7272343cda563a5,2021-07-29_23h12.49.330,Simcolourproject_2stim_asymm_v5,2020.2.10,MacIntel,60,61025ae37ef11b136ea224fe,,,,,,,,,869,-75.7890625,-27.515625,1,0,0,response5disk,,2,-26.62890625,-2.91796875,1,0,0,rectangle,-26.62890625,-2.91796875,1,0,0,-26.62890625,-2.91796875,1,0,0,0,128,128,107,1,,,,,,,,
,,,,,,,,,,,,,FF,,,,,,,,1.1514,,,,,,,,,,,,,,,,,,,,,,60fceca1cfdf67843110b0dc,61036dfef7272343cda563a5,2021-07-29_23h12.49.330,Simcolourproject_2stim_asymm_v5,2020.2.10,MacIntel,60,61025ae37ef11b136ea224fe,,,,,,,,,2136,77.3828125,37.20703125,1,0,0,response1disk,,6,15.5546875,1.28515625,1,0,0,rectangle,80.96875,42.44140625,1,0,0,2.6875,-14.91796875,1,0,0,0,129,129,154,1,,response1disk_3,TRUE,6,6,"[45,160,308,33,240,279,160,45,149,318,34,37,113,162,130,91,303,294,208,199]",1.4814,rectangle
,,,,,,,,,,,,,FF,,,,,,,,11.9171,,,,,,,,,,,,,,,,,,,,,,60fceca1cfdf67843110b0dc,61036dfef7272343cda563a5,2021-07-29_23h12.49.330,Simcolourproject_2stim_asymm_v5,2020.2.10,MacIntel,60,61025ae37ef11b136ea224fe,,,,,,,,,1182,43.63671875,-84.08984375,1,0,0,response3disk,,4,13.97265625,-5.765625,1,0,0,rectangle,13.97265625,-5.765625,1,0,0,13.97265625,-5.765625,1,0,0,0,130,130,92,1,,,,,,,,
,,,,,,,,,,,,,FF,,,,,,,,0.9831,,,,,,,,,,,,,,,,,,,,,,60fceca1cfdf67843110b0dc,61036dfef7272343cda563a5,2021-07-29_23h12.49.330,Simcolourproject_2stim_asymm_v5,2020.2.10,MacIntel,60,61025ae37ef11b136ea224fe,,,,,,,,,2101,-49.23046875,72.7109375,1,0,0,response7disk,,0,-31.11328125,8.875,1,0,0,rectangle,-31.11328125,8.875,1,0,0,-31.11328125,8.875,1,0,0,0,131,131,79,1,,,,,,,,
,,,,,,,,,,,,,FF,,,,,,,,0.7812,,,,,,,,,,,,,,,,,,,,,,60fceca1cfdf67843110b0dc,61036dfef7272343cda563a5,2021-07-29_23h12.49.330,Simcolourproject_2stim_asymm_v5,2020.2.10,MacIntel,60,61025ae37ef11b136ea224fe,,,,,,,,,1242,88.0546875,34.19921875,1,0,0,response1disk,,6,7.80859375,5.73828125,1,0,0,rectangle,7.80859375,5.73828125,1,0,0,7.80859375,5.73828125,1,0,0,0,132,132,141,1,,,,,,,,
,,,,,,,,,,,,,FF,,,,,,,,0.9831,,,,,,,,,,,,,,,,,,,,,,60fceca1cfdf67843110b0dc,61036dfef7272343cda563a5,2021-07-29_23h12.49.330,Simcolourproject_2stim_asymm_v5,2020.2.10,MacIntel,60,61025ae37ef11b136ea224fe,,,,,,,,,3824,-24.12890625,-77.02734375,1,0,0,response5disk,,3,-16.0546875,-6.8046875,1,0,0,rectangle,-16.0546875,-6.8046875,1,0,0,-16.0546875,-6.8046875,1,0,0,0,133,133,54,1,,,,,,,,
,,,,,,,,,,,,,FF,,,,,,,,0.9981,,,,,,,,,,,,,,,,,,,,,,60fceca1cfdf67843110b0dc,61036dfef7272343cda563a5,2021-07-29_23h12.49.330,Simcolourproject_2stim_asymm_v5,2020.2.10,MacIntel,60,61025ae37ef11b136ea224fe,,,,,,,,,1341,71.7265625,25.9140625,1,0,0,response1disk,,6,-9.72265625,4.234375,1,0,0,rectangle,-9.72265625,4.234375,1,0,0,-9.72265625,4.234375,1,0,0,0,134,134,118,1,,,,,,,,
,,,,,,,,,,,,,FF,,,,,,,,0.8832,,,,,,,,,,,,,,,,,,,,,,60fceca1cfdf67843110b0dc,61036dfef7272343cda563a5,2021-07-29_23h12.49.330,Simcolourproject_2stim_asymm_v5,2020.2.10,MacIntel,60,61025ae37ef11b136ea224fe,,,,,,,,,3310,75.44140625,76.95703125,1,0,0,response1disk,,7,9.39453125,5.40234375,1,0,0,rectangle,9.39453125,5.40234375,1,0,0,9.39453125,5.40234375,1,0,0,0,135,135,86,1,,,,,,,,
,,,,,,,,,,,,,FF,,,,,,,,1.1012,,,,,,,,,,,,,,,,,,,,,,60fceca1cfdf67843110b0dc,61036dfef7272343cda563a5,2021-07-29_23h12.49.330,Simcolourproject_2stim_asymm_v5,2020.2.10,MacIntel,60,61025ae37ef11b136ea224fe,,,,,,,,,1454,-84.01953125,-34.5859375,1,0,0,response5disk,,2,-4.9921875,3.8125,1,0,0,rectangle,-4.9921875,3.8125,1,0,0,-4.9921875,3.8125,1,0,0,0,136,136,103,1,,,,,,,,
,,,,,,,,,,,,,FF,,,,,,,,0.8503,,,,,,,,,,,,,,,,,,,,,,60fceca1cfdf67843110b0dc,61036dfef7272343cda563a5,2021-07-29_23h12.49.330,Simcolourproject_2stim_asymm_v5,2020.2.10,MacIntel,60,61025ae37ef11b136ea224fe,,,,,,,,,818,-26.34765625,-67.27734375,1,0,0,response5disk,,3,-18.34375,-2.21484375,1,0,0,rectangle,-18.34375,-2.21484375,1,0,0,-18.34375,-2.21484375,1,0,0,0,137,137,102,1,,,,,,,,
,,,,,,,,,,,,,FF,,,,,,,,0.8823,,,,,,,,,,,,,,,,,,,,,,60fceca1cfdf67843110b0dc,61036dfef7272343cda563a5,2021-07-29_23h12.49.330,Simcolourproject_2stim_asymm_v5,2020.2.10,MacIntel,60,61025ae37ef11b136ea224fe,,,,,,,,,3035,82.91015625,41.56640625,1,0,0,response1disk,,6,4.875,-3.03125,1,0,0,rectangle,4.875,-3.03125,1,0,0,4.875,-3.03125,1,0,0,0,138,138,89,1,,,,,,,,
,,,,,,,,,,,,,FF,,,,,,,,1.1336,,,,,,,,,,,,,,,,,,,,,,60fceca1cfdf67843110b0dc,61036dfef7272343cda563a5,2021-07-29_23h12.49.330,Simcolourproject_2stim_asymm_v5,2020.2.10,MacIntel,60,61025ae37ef11b136ea224fe,,,,,,,,,4245,43.44921875,64.6015625,1,0,0,response1disk,,7,3.64453125,-11.75390625,1,0,0,rectangle,3.64453125,-11.75390625,1,0,0,3.64453125,-11.75390625,1,0,0,0,139,139,76,1,,,,,,,,
,,,,,,,,,,,,,FF,,,,,,,,1.0509,,,,,,,,,,,,,,,,,,,,,,60fceca1cfdf67843110b0dc,61036dfef7272343cda563a5,2021-07-29_23h12.49.330,Simcolourproject_2stim_asymm_v5,2020.2.10,MacIntel,60,61025ae37ef11b136ea224fe,,,,,,,,,1543,77.56640625,31.0625,1,0,0,response1disk,,6,4.9921875,-4.296875,1,0,0,rectangle,4.9921875,-4.296875,1,0,0,4.9921875,-4.296875,1,0,0,0,140,140,128,1,,,,,,,,
,,,,,,,,,,,,,FF,,,,,,,,0.7996,,,,,,,,,,,,,,,,,,,,,,60fceca1cfdf67843110b0dc,61036dfef7272343cda563a5,2021-07-29_23h12.49.330,Simcolourproject_2stim_asymm_v5,2020.2.10,MacIntel,60,61025ae37ef11b136ea224fe,,,,,,,,,3896,80.32421875,43.67578125,1,0,0,response1disk,,6,5.24609375,1.00390625,1,0,0,rectangle,5.24609375,1.00390625,1,0,0,5.24609375,1.00390625,1,0,0,0,141,141,3,1,,,,,,,,
,,,,,,,,,,,,,FF,,,,,,,,1.1019,,,,,,,,,,,,,,,,,,,,,,60fceca1cfdf67843110b0dc,61036dfef7272343cda563a5,2021-07-29_23h12.49.330,Simcolourproject_2stim_asymm_v5,2020.2.10,MacIntel,60,61025ae37ef11b136ea224fe,,,,,,,,,1151,89.453125,50.6484375,1,0,0,response1disk,,6,-10.6796875,-5.203125,1,0,0,rectangle,-10.6796875,-5.203125,1,0,0,-10.6796875,-5.203125,1,0,0,0,142,142,131,1,,,,,,,,
,,,,,,,,,,,,,FF,,,,,,,,0.8662,,,,,,,,,,,,,,,,,,,,,,60fceca1cfdf67843110b0dc,61036dfef7272343cda563a5,2021-07-29_23h12.49.330,Simcolourproject_2stim_asymm_v5,2020.2.10,MacIntel,60,61025ae37ef11b136ea224fe,,,,,,,,,3264,37.30859375,71.25,1,0,0,response1disk,,7,-11.4453125,7.96875,1,0,0,rectangle,-11.4453125,7.96875,1,0,0,-11.4453125,7.96875,1,0,0,0,143,143,145,1,,,,,,,,
,,,,,,,,,,,,,FF,,,,,,,,1.0153,,,,,,,,,,,,,,,,,,,,,,60fceca1cfdf67843110b0dc,61036dfef7272343cda563a5,2021-07-29_23h12.49.330,Simcolourproject_2stim_asymm_v5,2020.2.10,MacIntel,60,61025ae37ef11b136ea224fe,,,,,,,,,2438,54.47265625,87.2578125,1,0,0,response1disk,,7,-11.09375,-1,1,0,0,rectangle,-11.09375,-1,1,0,0,-11.09375,-1,1,0,0,0,144,144,49,1,,,,,,,,
,,,,,,,,,,,,,FF,,,,,,,,0.7202,,,,,,,,,,,,,,,,,,,,,,60fceca1cfdf67843110b0dc,61036dfef7272343cda563a5,2021-07-29_23h12.49.330,Simcolourproject_2stim_asymm_v5,2020.2.10,MacIntel,60,61025ae37ef11b136ea224fe,,,,,,,,,27,38.5859375,85.69921875,1,0,0,response1disk,,7,-10.515625,-0.828125,1,0,0,rectangle,-10.515625,-0.828125,1,0,0,-10.515625,-0.828125,1,0,0,0,145,145,52,1,,,,,,,,
,,,,,,,,,,,,,FF,,,,,,,,1.0323,,,,,,,,,,,,,,,,,,,,,,60fceca1cfdf67843110b0dc,61036dfef7272343cda563a5,2021-07-29_23h12.49.330,Simcolourproject_2stim_asymm_v5,2020.2.10,MacIntel,60,61025ae37ef11b136ea224fe,,,,,,,,,2721,-77.8125,-43.98046875,1,0,0,response5disk,,2,-4.15234375,-0.25,1,0,0,rectangle,-4.15234375,-0.25,1,0,0,-4.15234375,-0.25,1,0,0,0,146,146,132,1,,,,,,,,
,,,,,,,,,,,,,FF,,,,,,,,0.936,,,,,,,,,,,,,,,,,,,,,,60fceca1cfdf67843110b0dc,61036dfef7272343cda563a5,2021-07-29_23h12.49.330,Simcolourproject_2stim_asymm_v5,2020.2.10,MacIntel,60,61025ae37ef11b136ea224fe,,,,,,,,,3627,-67.7109375,30.2109375,1,0,0,response7disk,,1,-5.87890625,-6.02734375,1,0,0,rectangle,-5.87890625,-6.02734375,1,0,0,-5.87890625,-6.02734375,1,0,0,0,147,147,8,1,,,,,,,,
,,,,,,,,,,,,,FF,,,,,,,,0.982,,,,,,,,,,,,,,,,,,,,,,60fceca1cfdf67843110b0dc,61036dfef7272343cda563a5,2021-07-29_23h12.49.330,Simcolourproject_2stim_asymm_v5,2020.2.10,MacIntel,60,61025ae37ef11b136ea224fe,,,,,,,,,1324,50.19140625,78.26171875,1,0,0,response1disk,,7,6.14453125,6.1640625,1,0,0,rectangle,80.6015625,34.41015625,1,0,0,19.06640625,1.5546875,1,0,0,0,148,148,125,1,,response1disk_3,TRUE,6,6,"[45,160,308,33,240,279,160,45,149,318,34,37,113,162,130,91,303,294,208,199]",1.4707,rectangle
,,,,,,,,,,,,,FF,,,,,,,,1.0006,,,,,,,,,,,,,,,,,,,,,,60fceca1cfdf67843110b0dc,61036dfef7272343cda563a5,2021-07-29_23h12.49.330,Simcolourproject_2stim_asymm_v5,2020.2.10,MacIntel,60,61025ae37ef11b136ea224fe,,,,,,,,,2339,47.9140625,88.37109375,1,0,0,response1disk,,7,0.69921875,9.1015625,1,0,0,rectangle,0.69921875,9.1015625,1,0,0,0.69921875,9.1015625,1,0,0,0,149,149,158,1,,,,,,,,
,,,,,,,,,,,,,FF,,,,,,,,0.5346,,,,,,,,,,,,,,,,,,,,,,60fceca1cfdf67843110b0dc,61036dfef7272343cda563a5,2021-07-29_23h12.49.330,Simcolourproject_2stim_asymm_v5,2020.2.10,MacIntel,60,61025ae37ef11b136ea224fe,,,,,,,,,1154,37.98046875,69.55078125,1,0,0,response1disk,,7,4.13671875,-8.48046875,1,0,0,rectangle,4.13671875,-8.48046875,1,0,0,4.13671875,-8.48046875,1,0,0,0,150,150,58,1,,,,,,,,
,,,,,,,,,,,,,FF,,,,,,,,0.7512,,,,,,,,,,,,,,,,,,,,,,60fceca1cfdf67843110b0dc,61036dfef7272343cda563a5,2021-07-29_23h12.49.330,Simcolourproject_2stim_asymm_v5,2020.2.10,MacIntel,60,61025ae37ef11b136ea224fe,,,,,,,,,625,46.328125,83.140625,1,0,0,response1disk,,7,-1.01171875,-1.92578125,1,0,0,rectangle,-1.01171875,-1.92578125,1,0,0,-1.01171875,-1.92578125,1,0,0,0,151,151,10,1,,,,,,,,
,,,,,,,,,,,,,FF,,,,,,,,0.6849,,,,,,,,,,,,,,,,,,,,,,60fceca1cfdf67843110b0dc,61036dfef7272343cda563a5,2021-07-29_23h12.49.330,Simcolourproject_2stim_asymm_v5,2020.2.10,MacIntel,60,61025ae37ef11b136ea224fe,,,,,,,,,2977,46.46875,79.8515625,1,0,0,response1disk,,7,2.45703125,-6.64453125,1,0,0,rectangle,2.45703125,-6.64453125,1,0,0,2.45703125,-6.64453125,1,0,0,0,152,152,13,1,,,,,,,,
,,,,,,,,,,,,,FF,,,,,,,,0.8189,,,,,,,,,,,,,,,,,,,,,,60fceca1cfdf67843110b0dc,61036dfef7272343cda563a5,2021-07-29_23h12.49.330,Simcolourproject_2stim_asymm_v5,2020.2.10,MacIntel,60,61025ae37ef11b136ea224fe,,,,,,,,,1118,46.08203125,74.47265625,1,0,0,response1disk,,7,1.61328125,0.41015625,1,0,0,rectangle,1.61328125,0.41015625,1,0,0,1.61328125,0.41015625,1,0,0,0,153,153,122,1,,,,,,,,
,,,,,,,,,,,,,FF,,,,,,,,0.9192,,,,,,,,,,,,,,,,,,,,,,60fceca1cfdf67843110b0dc,61036dfef7272343cda563a5,2021-07-29_23h12.49.330,Simcolourproject_2stim_asymm_v5,2020.2.10,MacIntel,60,61025ae37ef11b136ea224fe,,,,,,,,,2450,60.109375,85.453125,1,0,0,response1disk,,7,-0.77734375,-8.53125,1,0,0,rectangle,-0.77734375,-8.53125,1,0,0,-0.77734375,-8.53125,1,0,0,0,154,154,82,1,,,,,,,,
,,,,,,,,,,,,,FF,,,,,,,,0.8996,,,,,,,,,,,,,,,,,,,,,,60fceca1cfdf67843110b0dc,61036dfef7272343cda563a5,2021-07-29_23h12.49.330,Simcolourproject_2stim_asymm_v5,2020.2.10,MacIntel,60,61025ae37ef11b136ea224fe,,,,,,,,,4304,49.6796875,83.14453125,1,0,0,response1disk,,7,0.2265625,0.0546875,1,0,0,rectangle,0.2265625,0.0546875,1,0,0,0.2265625,0.0546875,1,0,0,0,155,155,74,1,,,,,,,,
,,,,,,,,,,,,,FF,,,,,,,,0.8177,,,,,,,,,,,,,,,,,,,,,,60fceca1cfdf67843110b0dc,61036dfef7272343cda563a5,2021-07-29_23h12.49.330,Simcolourproject_2stim_asymm_v5,2020.2.10,MacIntel,60,61025ae37ef11b136ea224fe,,,,,,,,,515,51.53515625,97.078125,1,0,0,response1disk,,7,-14.08984375,-13.63671875,1,0,0,rectangle,-14.08984375,-13.63671875,1,0,0,-14.08984375,-13.63671875,1,0,0,0,156,156,6,1,,,,,,,,
,,,,,,,,,,,,,FF,,,,,,,,0.7659,,,,,,,,,,,,,,,,,,,,,,60fceca1cfdf67843110b0dc,61036dfef7272343cda563a5,2021-07-29_23h12.49.330,Simcolourproject_2stim_asymm_v5,2020.2.10,MacIntel,60,61025ae37ef11b136ea224fe,,,,,,,,,672,44.40625,58.8359375,1,0,0,response1disk,,7,-9.3125,-12.01953125,1,0,0,rectangle,-9.3125,-12.01953125,1,0,0,-9.3125,-12.01953125,1,0,0,0,157,157,38,1,,,,,,,,
,,,,,,,,,,,,,FF,,,,,,,,0.9492,,,,,,,,,,,,,,,,,,,,,,60fceca1cfdf67843110b0dc,61036dfef7272343cda563a5,2021-07-29_23h12.49.330,Simcolourproject_2stim_asymm_v5,2020.2.10,MacIntel,60,61025ae37ef11b136ea224fe,,,,,,,,,3868,48.5390625,79.5,1,0,0,response1disk,,7,1.26171875,7.78125,1,0,0,rectangle,1.26171875,7.78125,1,0,0,1.26171875,7.78125,1,0,0,0,158,158,28,1,,,,,,,,
,,,,,,,,,,,,,FF,,,,,,,,0.8157,,,,,,,,,,,,,,,,,,,,,,60fceca1cfdf67843110b0dc,61036dfef7272343cda563a5,2021-07-29_23h12.49.330,Simcolourproject_2stim_asymm_v5,2020.2.10,MacIntel,60,61025ae37ef11b136ea224fe,,,,,,,,,1466,-62.97265625,-47.47265625,1,0,0,response5disk,,2,12.26953125,-6.47265625,1,0,0,rectangle,-20.23828125,-77.05078125,1,0,0,9.93359375,5.35546875,1,0,0,0,159,159,147,1,,response5disk_3,TRUE,3,3,"[45,160,308,33,240,279,160,45,149,318,34,37,113,162,130,91,303,294,208,199]",1.7007,rectangle
,,,,,,,,,,,,,FF,,,,,,,,0.8369,,,,,,,,,,,,,,,,,,,,,,60fceca1cfdf67843110b0dc,61036dfef7272343cda563a5,2021-07-29_23h12.49.330,Simcolourproject_2stim_asymm_v5,2020.2.10,MacIntel,60,61025ae37ef11b136ea224fe,,,,,,,,,1765,-26.6171875,-82.14453125,1,0,0,response5disk,,3,-14.8203125,-4.578125,1,0,0,rectangle,-14.8203125,-4.578125,1,0,0,-14.8203125,-4.578125,1,0,0,1,0,160,97,1,,,,,,,,
,,,,,,,,,,,,,FF,,,,,,,,0.7845,,,,,,,,,,,,,,,,,,,,,,60fceca1cfdf67843110b0dc,61036dfef7272343cda563a5,2021-07-29_23h12.49.330,Simcolourproject_2stim_asymm_v5,2020.2.10,MacIntel,60,61025ae37ef11b136ea224fe,,,,,,,,,3566,64.3671875,43.78515625,1,0,0,response1disk,,6,2.87109375,-6.296875,1,0,0,rectangle,87.3359375,-31.0625,1,0,0,3.328125,-5.39453125,1,0,0,1,1,161,6,1,,response3disk_3,TRUE,5,5,"[45,160,308,33,240,279,160,45,149,318,34,37,113,162,130,91,303,294,208,199]",1.8171,rectangle
,,,,,,,,,,,,,FF,,,,,,,,2.45,,,,,,,,,,,,,,,,,,,,,,60fceca1cfdf67843110b0dc,61036dfef7272343cda563a5,2021-07-29_23h12.49.330,Simcolourproject_2stim_asymm_v5,2020.2.10,MacIntel,60,61025ae37ef11b136ea224fe,,,,,,,,,853,34.73828125,-85.64453125,1,0,0,response3disk,,4,-1.74609375,-8.86328125,1,0,0,rectangle,-1.74609375,-8.86328125,1,0,0,-1.74609375,-8.86328125,1,0,0,1,2,162,50,1,,,,,,,,
,,,,,,,,,,,,,FF,,,,,,,,1.1678,,,,,,,,,,,,,,,,,,,,,,60fceca1cfdf67843110b0dc,61036dfef7272343cda563a5,2021-07-29_23h12.49.330,Simcolourproject_2stim_asymm_v5,2020.2.10,MacIntel,60,61025ae37ef11b136ea224fe,,,,,,,,,1200,-35.6953125,-90.8515625,1,0,0,response5disk,,3,-0.73828125,-3.078125,1,0,0,rectangle,-0.73828125,-3.078125,1,0,0,-0.73828125,-3.078125,1,0,0,1,3,163,9,1,,,,,,,,
,,,,,,,,,,,,,FF,,,,,,,,0.9669,,,,,,,,,,,,,,,,,,,,,,60fceca1cfdf67843110b0dc,61036dfef7272343cda563a5,2021-07-29_23h12.49.330,Simcolourproject_2stim_asymm_v5,2020.2.10,MacIntel,60,61025ae37ef11b136ea224fe,,,,,,,,,740,-70.98046875,33.6953125,1,0,0,response7disk,,1,6.76953125,0.0625,1,0,0,rectangle,6.76953125,0.0625,1,0,0,6.76953125,0.0625,1,0,0,1,4,164,156,1,,,,,,,,
,,,,,,,,,,,,,FF,,,,,,,,0.8017,,,,,,,,,,,,,,,,,,,,,,60fceca1cfdf67843110b0dc,61036dfef7272343cda563a5,2021-07-29_23h12.49.330,Simcolourproject_2stim_asymm_v5,2020.2.10,MacIntel,60,61025ae37ef11b136ea224fe,,,,,,,,,2327,55.5390625,75.40234375,1,0,0,response1disk,,7,1.55078125,3.703125,1,0,0,rectangle,1.55078125,3.703125,1,0,0,1.55078125,3.703125,1,0,0,1,5,165,136,1,,,,,,,,
,,,,,,,,,,,,,FF,,,,,,,,1.151,,,,,,,,,,,,,,,,,,,,,,60fceca1cfdf67843110b0dc,61036dfef7272343cda563a5,2021-07-29_23h12.49.330,Simcolourproject_2stim_asymm_v5,2020.2.10,MacIntel,60,61025ae37ef11b136ea224fe,,,,,,,,,3373,-71.14453125,47.62109375,1,0,0,response7disk,,1,-3.46484375,-7.2890625,1,0,0,rectangle,-3.46484375,-7.2890625,1,0,0,-3.46484375,-7.2890625,1,0,0,1,6,166,1,1,,,,,,,,
,,,,,,,,,,,,,FF,,,,,,,,0.8653,,,,,,,,,,,,,,,,,,,,,,60fceca1cfdf67843110b0dc,61036dfef7272343cda563a5,2021-07-29_23h12.49.330,Simcolourproject_2stim_asymm_v5,2020.2.10,MacIntel,60,61025ae37ef11b136ea224fe,,,,,,,,,3354,46.02734375,68.74609375,1,0,0,response1disk,,7,-10.359375,0.06640625,1,0,0,rectangle,-10.359375,0.06640625,1,0,0,-10.359375,0.06640625,1,0,0,1,7,167,139,1,,,,,,,,
,,,,,,,,,,,,,FF,,,,,,,,1.2367,,,,,,,,,,,,,,,,,,,,,,60fceca1cfdf67843110b0dc,61036dfef7272343cda563a5,2021-07-29_23h12.49.330,Simcolourproject_2stim_asymm_v5,2020.2.10,MacIntel,60,61025ae37ef11b136ea224fe,,,,,,,,,2939,55.29296875,78.55078125,1,0,0,response1disk,,7,2.39453125,-6.09375,1,0,0,rectangle,2.39453125,-6.09375,1,0,0,2.39453125,-6.09375,1,0,0,1,8,168,60,1,,,,,,,,
,,,,,,,,,,,,,FF,,,,,,,,4.0322,,,,,,,,,,,,,,,,,,,,,,60fceca1cfdf67843110b0dc,61036dfef7272343cda563a5,2021-07-29_23h12.49.330,Simcolourproject_2stim_asymm_v5,2020.2.10,MacIntel,60,61025ae37ef11b136ea224fe,,,,,,,,,699,78.4609375,47.84765625,1,0,0,response1disk,,6,7.22265625,-3.44921875,1,0,0,rectangle,7.22265625,-3.44921875,1,0,0,7.22265625,-3.44921875,1,0,0,1,9,169,110,1,,,,,,,,
,,,,,,,,,,,,,FF,,,,,,,,0.8038,,,,,,,,,,,,,,,,,,,,,,60fceca1cfdf67843110b0dc,61036dfef7272343cda563a5,2021-07-29_23h12.49.330,Simcolourproject_2stim_asymm_v5,2020.2.10,MacIntel,60,61025ae37ef11b136ea224fe,,,,,,,,,2073,55.015625,45.8515625,1,0,0,response1disk,,6,22.0546875,0.38671875,1,0,0,rectangle,22.0546875,0.38671875,1,0,0,22.0546875,0.38671875,1,0,0,1,10,170,7,1,,,,,,,,
,,,,,,,,,,,,,FF,,,,,,,,0.555,,,,,,,,,,,,,,,,,,,,,,60fceca1cfdf67843110b0dc,61036dfef7272343cda563a5,2021-07-29_23h12.49.330,Simcolourproject_2stim_asymm_v5,2020.2.10,MacIntel,60,61025ae37ef11b136ea224fe,,,,,,,,,3167,88.00390625,42.16015625,1,0,0,response1disk,,6,16.53125,2.80078125,1,0,0,rectangle,16.53125,2.80078125,1,0,0,16.53125,2.80078125,1,0,0,1,11,171,56,1,,,,,,,,
,,,,,,,,,,,,,FF,,,,,,,,0.7169,,,,,,,,,,,,,,,,,,,,,,60fceca1cfdf67843110b0dc,61036dfef7272343cda563a5,2021-07-29_23h12.49.330,Simcolourproject_2stim_asymm_v5,2020.2.10,MacIntel,60,61025ae37ef11b136ea224fe,,,,,,,,,1367,46.20703125,83.484375,1,0,0,response1disk,,7,9.53515625,5.3984375,1,0,0,rectangle,9.53515625,5.3984375,1,0,0,9.53515625,5.3984375,1,0,0,1,12,172,86,1,,,,,,,,
,,,,,,,,,,,,,FF,,,,,,,,1.32,,,,,,,,,,,,,,,,,,,,,,60fceca1cfdf67843110b0dc,61036dfef7272343cda563a5,2021-07-29_23h12.49.330,Simcolourproject_2stim_asymm_v5,2020.2.10,MacIntel,60,61025ae37ef11b136ea224fe,,,,,,,,,2867,75.69921875,-49.83203125,1,0,0,response3disk,,5,-9.9140625,2.79296875,1,0,0,rectangle,-9.9140625,2.79296875,1,0,0,-9.9140625,2.79296875,1,0,0,1,13,173,122,1,,,,,,,,
,,,,,,,,,,,,,FF,,,,,,,,1.1292,,,,,,,,,,,,,,,,,,,,,,60fceca1cfdf67843110b0dc,61036dfef7272343cda563a5,2021-07-29_23h12.49.330,Simcolourproject_2stim_asymm_v5,2020.2.10,MacIntel,60,61025ae37ef11b136ea224fe,,,,,,,,,3262,75.7578125,30.21484375,1,0,0,response1disk,,6,14.73828125,-1.01953125,1,0,0,rectangle,14.73828125,-1.01953125,1,0,0,14.73828125,-1.01953125,1,0,0,1,14,174,138,1,,,,,,,,
,,,,,,,,,,,,,FF,,,,,,,,1.3714,,,,,,,,,,,,,,,,,,,,,,60fceca1cfdf67843110b0dc,61036dfef7272343cda563a5,2021-07-29_23h12.49.330,Simcolourproject_2stim_asymm_v5,2020.2.10,MacIntel,60,61025ae37ef11b136ea224fe,,,,,,,,,1435,-72.36328125,23.76953125,1,0,0,response7disk,,1,-17.03125,-2.265625,1,0,0,rectangle,-17.03125,-2.265625,1,0,0,-17.03125,-2.265625,1,0,0,1,15,175,70,1,,,,,,,,
,,,,,,,,,,,,,FF,,,,,,,,0.6811,,,,,,,,,,,,,,,,,,,,,,60fceca1cfdf67843110b0dc,61036dfef7272343cda563a5,2021-07-29_23h12.49.330,Simcolourproject_2stim_asymm_v5,2020.2.10,MacIntel,60,61025ae37ef11b136ea224fe,,,,,,,,,1161,44.01171875,83.203125,1,0,0,response1disk,,7,-7.52734375,-0.55859375,1,0,0,rectangle,-7.52734375,-0.55859375,1,0,0,-7.52734375,-0.55859375,1,0,0,1,16,176,40,1,,,,,,,,
,,,,,,,,,,,,,FF,,,,,,,,1.0018,,,,,,,,,,,,,,,,,,,,,,60fceca1cfdf67843110b0dc,61036dfef7272343cda563a5,2021-07-29_23h12.49.330,Simcolourproject_2stim_asymm_v5,2020.2.10,MacIntel,60,61025ae37ef11b136ea224fe,,,,,,,,,3626,-88.01171875,-59.14453125,1,0,0,response5disk,,2,-14.58984375,14.640625,1,0,0,rectangle,-14.58984375,14.640625,1,0,0,-14.58984375,14.640625,1,0,0,1,17,177,57,1,,,,,,,,
,,,,,,,,,,,,,FF,,,,,,,,22.3029,,,,,,,,,,,,,,,,,,,,,,60fceca1cfdf67843110b0dc,61036dfef7272343cda563a5,2021-07-29_23h12.49.330,Simcolourproject_2stim_asymm_v5,2020.2.10,MacIntel,60,61025ae37ef11b136ea224fe,,,,,,,,,694,27.89453125,-90.5703125,1,0,0,response3disk,,4,2.18359375,7.41796875,1,0,0,rectangle,2.18359375,7.41796875,1,0,0,2.18359375,7.41796875,1,0,0,1,18,178,140,1,,,,,,,,
,,,,,,,,,,,,,FF,,,,,,,,1.3024,,,,,,,,,,,,,,,,,,,,,,60fceca1cfdf67843110b0dc,61036dfef7272343cda563a5,2021-07-29_23h12.49.330,Simcolourproject_2stim_asymm_v5,2020.2.10,MacIntel,60,61025ae37ef11b136ea224fe,,,,,,,,,3873,31.26171875,-74.8203125,1,0,0,response3disk,,4,14.1640625,-11.36328125,1,0,0,rectangle,14.1640625,-11.36328125,1,0,0,14.1640625,-11.36328125,1,0,0,1,19,179,153,1,,,,,,,,
,,,,,,,,,,,,,FF,,,,,,,,1.3701,,,,,,,,,,,,,,,,,,,,,,60fceca1cfdf67843110b0dc,61036dfef7272343cda563a5,2021-07-29_23h12.49.330,Simcolourproject_2stim_asymm_v5,2020.2.10,MacIntel,60,61025ae37ef11b136ea224fe,,,,,,,,,1003,78.9921875,-47.70703125,1,0,0,response3disk,,5,11.89453125,-5.1484375,1,0,0,rectangle,11.89453125,-5.1484375,1,0,0,11.89453125,-5.1484375,1,0,0,1,20,180,34,1,,,,,,,,
,,,,,,,,,,,,,FF,,,,,,,,0.751,,,,,,,,,,,,,,,,,,,,,,60fceca1cfdf67843110b0dc,61036dfef7272343cda563a5,2021-07-29_23h12.49.330,Simcolourproject_2stim_asymm_v5,2020.2.10,MacIntel,60,61025ae37ef11b136ea224fe,,,,,,,,,416,61.390625,-32.796875,1,0,0,response3disk,,5,7.76171875,-6.48046875,1,0,0,rectangle,7.76171875,-6.48046875,1,0,0,7.76171875,-6.48046875,1,0,0,1,21,181,125,1,,,,,,,,
,,,,,,,,,,,,,FF,,,,,,,,2.9632,,,,,,,,,,,,,,,,,,,,,,60fceca1cfdf67843110b0dc,61036dfef7272343cda563a5,2021-07-29_23h12.49.330,Simcolourproject_2stim_asymm_v5,2020.2.10,MacIntel,60,61025ae37ef11b136ea224fe,,,,,,,,,157,88.8828125,-36.1640625,1,0,0,response3disk,,5,17.01171875,-6.7890625,1,0,0,rectangle,17.01171875,-6.7890625,1,0,0,17.01171875,-6.7890625,1,0,0,1,22,182,55,1,,,,,,,,
,,,,,,,,,,,,,FF,,,,,,,,0.8146,,,,,,,,,,,,,,,,,,,,,,60fceca1cfdf67843110b0dc,61036dfef7272343cda563a5,2021-07-29_23h12.49.330,Simcolourproject_2stim_asymm_v5,2020.2.10,MacIntel,60,61025ae37ef11b136ea224fe,,,,,,,,,2096,-80.3828125,45.23046875,1,0,0,response7disk,,1,-15.0546875,-7.921875,1,0,0,rectangle,-15.0546875,-7.921875,1,0,0,-15.0546875,-7.921875,1,0,0,1,23,183,144,1,,,,,,,,
,,,,,,,,,,,,,FF,,,,,,,,0.622,,,,,,,,,,,,,,,,,,,,,,60fceca1cfdf67843110b0dc,61036dfef7272343cda563a5,2021-07-29_23h12.49.330,Simcolourproject_2stim_asymm_v5,2020.2.10,MacIntel,60,61025ae37ef11b136ea224fe,,,,,,,,,279,-76.98046875,41.54296875,1,0,0,response7disk,,1,1.04296875,5.2578125,1,0,0,rectangle,1.04296875,5.2578125,1,0,0,1.04296875,5.2578125,1,0,0,1,24,184,114,1,,,,,,,,
,,,,,,,,,,,,,FF,,,,,,,,1.2007,,,,,,,,,,,,,,,,,,,,,,60fceca1cfdf67843110b0dc,61036dfef7272343cda563a5,2021-07-29_23h12.49.330,Simcolourproject_2stim_asymm_v5,2020.2.10,MacIntel,60,61025ae37ef11b136ea224fe,,,,,,,,,446,38.14453125,82.2421875,1,0,0,response1disk,,7,-1.5546875,1.26171875,1,0,0,rectangle,-1.5546875,1.26171875,1,0,0,-1.5546875,1.26171875,1,0,0,1,25,185,39,1,,,,,,,,
,,,,,,,,,,,,,FF,,,,,,,,0.7838,,,,,,,,,,,,,,,,,,,,,,60fceca1cfdf67843110b0dc,61036dfef7272343cda563a5,2021-07-29_23h12.49.330,Simcolourproject_2stim_asymm_v5,2020.2.10,MacIntel,60,61025ae37ef11b136ea224fe,,,,,,,,,916,35.94921875,78.68359375,1,0,0,response1disk,,7,-13.67578125,-0.2578125,1,0,0,rectangle,-13.67578125,-0.2578125,1,0,0,-13.67578125,-0.2578125,1,0,0,1,26,186,142,1,,,,,,,,
,,,,,,,,,,,,,FF,,,,,,,,0.8013,,,,,,,,,,,,,,,,,,,,,,60fceca1cfdf67843110b0dc,61036dfef7272343cda563a5,2021-07-29_23h12.49.330,Simcolourproject_2stim_asymm_v5,2020.2.10,MacIntel,60,61025ae37ef11b136ea224fe,,,,,,,,,267,50.05078125,73.23046875,1,0,0,response1disk,,7,11.2578125,-7.35546875,1,0,0,rectangle,11.2578125,-7.35546875,1,0,0,11.2578125,-7.35546875,1,0,0,1,27,187,38,1,,,,,,,,
,,,,,,,,,,,,,FF,,,,,,,,1.0337,,,,,,,,,,,,,,,,,,,,,,60fceca1cfdf67843110b0dc,61036dfef7272343cda563a5,2021-07-29_23h12.49.330,Simcolourproject_2stim_asymm_v5,2020.2.10,MacIntel,60,61025ae37ef11b136ea224fe,,,,,,,,,1984,67.94921875,-42.25390625,1,0,0,response3disk,,5,-2.0703125,1.36328125,1,0,0,rectangle,-2.0703125,1.36328125,1,0,0,-2.0703125,1.36328125,1,0,0,1,28,188,129,1,,,,,,,,
,,,,,,,,,,,,,FF,,,,,,,,0.749,,,,,,,,,,,,,,,,,,,,,,60fceca1cfdf67843110b0dc,61036dfef7272343cda563a5,2021-07-29_23h12.49.330,Simcolourproject_2stim_asymm_v5,2020.2.10,MacIntel,60,61025ae37ef11b136ea224fe,,,,,,,,,1675,-73.78515625,47.921875,1,0,0,response7disk,,1,9.31640625,-12.64453125,1,0,0,rectangle,9.31640625,-12.64453125,1,0,0,9.31640625,-12.64453125,1,0,0,1,29,189,88,1,,,,,,,,
,,,,,,,,,,,,,FF,,,,,,,,1.4174,,,,,,,,,,,,,,,,,,,,,,60fceca1cfdf67843110b0dc,61036dfef7272343cda563a5,2021-07-29_23h12.49.330,Simcolourproject_2stim_asymm_v5,2020.2.10,MacIntel,60,61025ae37ef11b136ea224fe,,,,,,,,,1134,-76.5703125,-34.24609375,1,0,0,response5disk,,2,1.60546875,5.47265625,1,0,0,rectangle,1.60546875,5.47265625,1,0,0,1.60546875,5.47265625,1,0,0,1,30,190,132,1,,,,,,,,
,,,,,,,,,,,,,FF,,,,,,,,0.902,,,,,,,,,,,,,,,,,,,,,,60fceca1cfdf67843110b0dc,61036dfef7272343cda563a5,2021-07-29_23h12.49.330,Simcolourproject_2stim_asymm_v5,2020.2.10,MacIntel,60,61025ae37ef11b136ea224fe,,,,,,,,,2102,-74.5078125,36.2421875,1,0,0,response7disk,,1,-3.13671875,-1.80078125,1,0,0,rectangle,-3.13671875,-1.80078125,1,0,0,-3.13671875,-1.80078125,1,0,0,1,31,191,95,1,,,,,,,,
,,,,,,,,,,,,,FF,,,,,,,,0.7832,,,,,,,,,,,,,,,,,,,,,,60fceca1cfdf67843110b0dc,61036dfef7272343cda563a5,2021-07-29_23h12.49.330,Simcolourproject_2stim_asymm_v5,2020.2.10,MacIntel,60,61025ae37ef11b136ea224fe,,,,,,,,,4051,-52.52734375,-68.80078125,1,0,0,response5disk,,3,-18.72265625,-6.671875,1,0,0,rectangle,-18.72265625,-6.671875,1,0,0,-18.72265625,-6.671875,1,0,0,1,32,192,91,1,,,,,,,,
,,,,,,,,,,,,,FF,,,,,,,,1.0501,,,,,,,,,,,,,,,,,,,,,,60fceca1cfdf67843110b0dc,61036dfef7272343cda563a5,2021-07-29_23h12.49.330,Simcolourproject_2stim_asymm_v5,2020.2.10,MacIntel,60,61025ae37ef11b136ea224fe,,,,,,,,,2442,42.75,-84.53125,1,0,0,response3disk,,4,13.51171875,-4.48046875,1,0,0,rectangle,13.51171875,-4.48046875,1,0,0,13.51171875,-4.48046875,1,0,0,1,33,193,105,1,,,,,,,,
,,,,,,,,,,,,,FF,,,,,,,,22.0018,,,,,,,,,,,,,,,,,,,,,,60fceca1cfdf67843110b0dc,61036dfef7272343cda563a5,2021-07-29_23h12.49.330,Simcolourproject_2stim_asymm_v5,2020.2.10,MacIntel,60,61025ae37ef11b136ea224fe,,,,,,,,,900,34.15234375,-64.2109375,1,0,0,response3disk,,4,5.25390625,0.48046875,1,0,0,rectangle,5.25390625,0.48046875,1,0,0,5.25390625,0.48046875,1,0,0,1,34,194,24,1,,,,,,,,
,,,,,,,,,,,,,FF,,,,,,,,0.6493,,,,,,,,,,,,,,,,,,,,,,60fceca1cfdf67843110b0dc,61036dfef7272343cda563a5,2021-07-29_23h12.49.330,Simcolourproject_2stim_asymm_v5,2020.2.10,MacIntel,60,61025ae37ef11b136ea224fe,,,,,,,,,3585,-86.640625,-46.515625,1,0,0,response5disk,,2,-22.82421875,2.66015625,1,0,0,rectangle,-22.82421875,2.66015625,1,0,0,-22.82421875,2.66015625,1,0,0,1,35,195,29,1,,,,,,,,
,,,,,,,,,,,,,FF,,,,,,,,0.751,,,,,,,,,,,,,,,,,,,,,,60fceca1cfdf67843110b0dc,61036dfef7272343cda563a5,2021-07-29_23h12.49.330,Simcolourproject_2stim_asymm_v5,2020.2.10,MacIntel,60,61025ae37ef11b136ea224fe,,,,,,,,,1587,77.58203125,50.03515625,1,0,0,response1disk,,6,-14.08203125,3.9765625,1,0,0,rectangle,-14.08203125,3.9765625,1,0,0,-14.08203125,3.9765625,1,0,0,1,36,196,145,1,,,,,,,,
,,,,,,,,,,,,,FF,,,,,,,,0.6332,,,,,,,,,,,,,,,,,,,,,,60fceca1cfdf67843110b0dc,61036dfef7272343cda563a5,2021-07-29_23h12.49.330,Simcolourproject_2stim_asymm_v5,2020.2.10,MacIntel,60,61025ae37ef11b136ea224fe,,,,,,,,,2699,37.76953125,72.81640625,1,0,0,response1disk,,7,22.9453125,0.046875,1,0,0,rectangle,22.9453125,0.046875,1,0,0,22.9453125,0.046875,1,0,0,1,37,197,52,1,,,,,,,,
,,,,,,,,,,,,,FF,,,,,,,,0.6837,,,,,,,,,,,,,,,,,,,,,,60fceca1cfdf67843110b0dc,61036dfef7272343cda563a5,2021-07-29_23h12.49.330,Simcolourproject_2stim_asymm_v5,2020.2.10,MacIntel,60,61025ae37ef11b136ea224fe,,,,,,,,,2998,-79.6171875,19.1171875,1,0,0,response7disk,,1,-6.34375,3.7890625,1,0,0,rectangle,66.7109375,-42.0078125,1,0,0,-2.59765625,-3.62890625,1,0,0,1,38,198,117,1,,response3disk_3,TRUE,5,5,"[45,160,308,33,240,279,160,45,149,318,34,37,113,162,130,91,303,294,208,199]",1.0855,rectangle
,,,,,,,,,,,,,FF,,,,,,,,1.085,,,,,,,,,,,,,,,,,,,,,,60fceca1cfdf67843110b0dc,61036dfef7272343cda563a5,2021-07-29_23h12.49.330,Simcolourproject_2stim_asymm_v5,2020.2.10,MacIntel,60,61025ae37ef11b136ea224fe,,,,,,,,,365,36.1328125,60.23828125,1,0,0,response1disk,,7,-3.25390625,-6.11328125,1,0,0,rectangle,-3.25390625,-6.11328125,1,0,0,-3.25390625,-6.11328125,1,0,0,1,39,199,158,1,,,,,,,,
,,,,,,,,,,,,,FF,,,,,,,,0.8485,,,,,,,,,,,,,,,,,,,,,,60fceca1cfdf67843110b0dc,61036dfef7272343cda563a5,2021-07-29_23h12.49.330,Simcolourproject_2stim_asymm_v5,2020.2.10,MacIntel,60,61025ae37ef11b136ea224fe,,,,,,,,,973,-82.26171875,32.41796875,1,0,0,response7disk,,1,-13.99609375,-4.7421875,1,0,0,rectangle,-13.99609375,-4.7421875,1,0,0,-13.99609375,-4.7421875,1,0,0,1,40,200,73,1,,,,,,,,
,,,,,,,,,,,,,FF,,,,,,,,0.6661,,,,,,,,,,,,,,,,,,,,,,60fceca1cfdf67843110b0dc,61036dfef7272343cda563a5,2021-07-29_23h12.49.330,Simcolourproject_2stim_asymm_v5,2020.2.10,MacIntel,60,61025ae37ef11b136ea224fe,,,,,,,,,2236,-83.26953125,38.75,1,0,0,response7disk,,1,-2.39453125,-2.109375,1,0,0,rectangle,-2.39453125,-2.109375,1,0,0,-2.39453125,-2.109375,1,0,0,1,41,201,0,1,,,,,,,,
,,,,,,,,,,,,,FF,,,,,,,,0.907,,,,,,,,,,,,,,,,,,,,,,60fceca1cfdf67843110b0dc,61036dfef7272343cda563a5,2021-07-29_23h12.49.330,Simcolourproject_2stim_asymm_v5,2020.2.10,MacIntel,60,61025ae37ef11b136ea224fe,,,,,,,,,1861,72.2890625,49.3671875,1,0,0,response1disk,,6,-10.64453125,0.296875,1,0,0,rectangle,-10.64453125,0.296875,1,0,0,-10.64453125,0.296875,1,0,0,1,42,202,128,1,,,,,,,,
,,,,,,,,,,,,,FF,,,,,,,,0.712,,,,,,,,,,,,,,,,,,,,,,60fceca1cfdf67843110b0dc,61036dfef7272343cda563a5,2021-07-29_23h12.49.330,Simcolourproject_2stim_asymm_v5,2020.2.10,MacIntel,60,61025ae37ef11b136ea224fe,,,,,,,,,596,43.41796875,60.515625,1,0,0,response1disk,,7,-0.7109375,-8.21484375,1,0,0,rectangle,-0.7109375,-8.21484375,1,0,0,-0.7109375,-8.21484375,1,0,0,1,43,203,16,1,,,,,,,,
,,,,,,,,,,,,,FF,,,,,,,,1.5491,,,,,,,,,,,,,,,,,,,,,,60fceca1cfdf67843110b0dc,61036dfef7272343cda563a5,2021-07-29_23h12.49.330,Simcolourproject_2stim_asymm_v5,2020.2.10,MacIntel,60,61025ae37ef11b136ea224fe,,,,,,,,,4285,37.609375,62.4296875,1,0,0,response1disk,,7,13.01171875,8.1796875,1,0,0,rectangle,13.01171875,8.1796875,1,0,0,13.01171875,8.1796875,1,0,0,1,44,204,111,1,,,,,,,,
,,,,,,,,,,,,,FF,,,,,,,,0.8844,,,,,,,,,,,,,,,,,,,,,,60fceca1cfdf67843110b0dc,61036dfef7272343cda563a5,2021-07-29_23h12.49.330,Simcolourproject_2stim_asymm_v5,2020.2.10,MacIntel,60,61025ae37ef11b136ea224fe,,,,,,,,,881,22.18359375,93.09765625,1,0,0,response1disk,,7,3.4609375,-13.703125,1,0,0,rectangle,3.4609375,-13.703125,1,0,0,3.4609375,-13.703125,1,0,0,1,45,205,66,1,,,,,,,,
,,,,,,,,,,,,,FF,,,,,,,,0.5675,,,,,,,,,,,,,,,,,,,,,,60fceca1cfdf67843110b0dc,61036dfef7272343cda563a5,2021-07-29_23h12.49.330,Simcolourproject_2stim_asymm_v5,2020.2.10,MacIntel,60,61025ae37ef11b136ea224fe,,,,,,,,,1707,45.6328125,58.6875,1,0,0,response1disk,,7,16.43359375,-12.1796875,1,0,0,rectangle,16.43359375,-12.1796875,1,0,0,16.43359375,-12.1796875,1,0,0,1,46,206,77,1,,,,,,,,
,,,,,,,,,,,,,FF,,,,,,,,0.618,,,,,,,,,,,,,,,,,,,,,,60fceca1cfdf67843110b0dc,61036dfef7272343cda563a5,2021-07-29_23h12.49.330,Simcolourproject_2stim_asymm_v5,2020.2.10,MacIntel,60,61025ae37ef11b136ea224fe,,,,,,,,,594,48.625,76.50390625,1,0,0,response1disk,,7,16.3671875,9.14453125,1,0,0,rectangle,75.94140625,43.0078125,1,0,0,6.16015625,2.6953125,1,0,0,1,47,207,43,1,,response1disk_3,TRUE,6,6,"[45,160,308,33,240,279,160,45,149,318,34,37,113,162,130,91,303,294,208,199]",1.1674,rectangle
,,,,,,,,,,,,,FF,,,,,,,,0.933,,,,,,,,,,,,,,,,,,,,,,60fceca1cfdf67843110b0dc,61036dfef7272343cda563a5,2021-07-29_23h12.49.330,Simcolourproject_2stim_asymm_v5,2020.2.10,MacIntel,60,61025ae37ef11b136ea224fe,,,,,,,,,1835,59.953125,-32.03125,1,0,0,response3disk,,5,-6.703125,-4.546875,1,0,0,rectangle,-6.703125,-4.546875,1,0,0,-6.703125,-4.546875,1,0,0,1,48,208,64,1,,,,,,,,
,,,,,,,,,,,,,FF,,,,,,,,0.9833,,,,,,,,,,,,,,,,,,,,,,60fceca1cfdf67843110b0dc,61036dfef7272343cda563a5,2021-07-29_23h12.49.330,Simcolourproject_2stim_asymm_v5,2020.2.10,MacIntel,60,61025ae37ef11b136ea224fe,,,,,,,,,2808,67.41015625,28.34375,1,0,0,response1disk,,6,12.48046875,6.54296875,1,0,0,rectangle,12.48046875,6.54296875,1,0,0,12.48046875,6.54296875,1,0,0,1,49,209,58,1,,,,,,,,
,,,,,,,,,,,,,FF,,,,,,,,0.9463,,,,,,,,,,,,,,,,,,,,,,60fceca1cfdf67843110b0dc,61036dfef7272343cda563a5,2021-07-29_23h12.49.330,Simcolourproject_2stim_asymm_v5,2020.2.10,MacIntel,60,61025ae37ef11b136ea224fe,,,,,,,,,2905,36.0859375,85.203125,1,0,0,response1disk,,7,8.0625,-5.8203125,1,0,0,rectangle,8.0625,-5.8203125,1,0,0,8.0625,-5.8203125,1,0,0,1,50,210,154,1,,,,,,,,
,,,,,,,,,,,,,FF,,,,,,,,0.6684,,,,,,,,,,,,,,,,,,,,,,60fceca1cfdf67843110b0dc,61036dfef7272343cda563a5,2021-07-29_23h12.49.330,Simcolourproject_2stim_asymm_v5,2020.2.10,MacIntel,60,61025ae37ef11b136ea224fe,,,,,,,,,3682,43.46484375,69.97265625,1,0,0,response1disk,,7,7.35546875,7.22265625,1,0,0,rectangle,7.35546875,7.22265625,1,0,0,7.35546875,7.22265625,1,0,0,1,51,211,147,1,,,,,,,,
,,,,,,,,,,,,,FF,,,,,,,,1.1357,,,,,,,,,,,,,,,,,,,,,,60fceca1cfdf67843110b0dc,61036dfef7272343cda563a5,2021-07-29_23h12.49.330,Simcolourproject_2stim_asymm_v5,2020.2.10,MacIntel,60,61025ae37ef11b136ea224fe,,,,,,,,,3741,-46.8984375,88.14453125,1,0,0,response7disk,,0,-23.27734375,-1.40625,1,0,0,rectangle,-23.27734375,-1.40625,1,0,0,-23.27734375,-1.40625,1,0,0,1,52,212,108,1,,,,,,,,
,,,,,,,,,,,,,FF,,,,,,,,1.1324,,,,,,,,,,,,,,,,,,,,,,60fceca1cfdf67843110b0dc,61036dfef7272343cda563a5,2021-07-29_23h12.49.330,Simcolourproject_2stim_asymm_v5,2020.2.10,MacIntel,60,61025ae37ef11b136ea224fe,,,,,,,,,1708,81.46875,37.08203125,1,0,0,response1disk,,6,9.54296875,-2.69921875,1,0,0,rectangle,9.54296875,-2.69921875,1,0,0,9.54296875,-2.69921875,1,0,0,1,53,213,109,1,,,,,,,,
,,,,,,,,,,,,,FF,,,,,,,,1.5487,,,,,,,,,,,,,,,,,,,,,,60fceca1cfdf67843110b0dc,61036dfef7272343cda563a5,2021-07-29_23h12.49.330,Simcolourproject_2stim_asymm_v5,2020.2.10,MacIntel,60,61025ae37ef11b136ea224fe,,,,,,,,,266,-39.578125,-85.75,1,0,0,response5disk,,3,7.5234375,1.5078125,1,0,0,rectangle,7.5234375,1.5078125,1,0,0,7.5234375,1.5078125,1,0,0,1,54,214,59,1,,,,,,,,
,,,,,,,,,,,,,FF,,,,,,,,0.8529,,,,,,,,,,,,,,,,,,,,,,60fceca1cfdf67843110b0dc,61036dfef7272343cda563a5,2021-07-29_23h12.49.330,Simcolourproject_2stim_asymm_v5,2020.2.10,MacIntel,60,61025ae37ef11b136ea224fe,,,,,,,,,1893,-70.81640625,-43.64453125,1,0,0,response5disk,,2,10.08203125,-3.9453125,1,0,0,rectangle,10.08203125,-3.9453125,1,0,0,10.08203125,-3.9453125,1,0,0,1,55,215,32,1,,,,,,,,
,,,,,,,,,,,,,FF,,,,,,,,1.5004,,,,,,,,,,,,,,,,,,,,,,60fceca1cfdf67843110b0dc,61036dfef7272343cda563a5,2021-07-29_23h12.49.330,Simcolourproject_2stim_asymm_v5,2020.2.10,MacIntel,60,61025ae37ef11b136ea224fe,,,,,,,,,2844,-27.96484375,-74.94140625,1,0,0,response5disk,,3,-5.80078125,-5.55078125,1,0,0,rectangle,-5.80078125,-5.55078125,1,0,0,-5.80078125,-5.55078125,1,0,0,1,56,216,148,1,,,,,,,,
,,,,,,,,,,,,,FF,,,,,,,,0.949,,,,,,,,,,,,,,,,,,,,,,60fceca1cfdf67843110b0dc,61036dfef7272343cda563a5,2021-07-29_23h12.49.330,Simcolourproject_2stim_asymm_v5,2020.2.10,MacIntel,60,61025ae37ef11b136ea224fe,,,,,,,,,1167,62.4765625,42.0390625,1,0,0,response1disk,,6,11.09765625,-7.17578125,1,0,0,rectangle,11.09765625,-7.17578125,1,0,0,11.09765625,-7.17578125,1,0,0,1,57,217,107,1,,,,,,,,
,,,,,,,,,,,,,FF,,,,,,,,0.8155,,,,,,,,,,,,,,,,,,,,,,60fceca1cfdf67843110b0dc,61036dfef7272343cda563a5,2021-07-29_23h12.49.330,Simcolourproject_2stim_asymm_v5,2020.2.10,MacIntel,60,61025ae37ef11b136ea224fe,,,,,,,,,4080,53.4375,80.7578125,1,0,0,response1disk,,7,20.22265625,-8.421875,1,0,0,rectangle,20.22265625,-8.421875,1,0,0,20.22265625,-8.421875,1,0,0,1,58,218,65,1,,,,,,,,
,,,,,,,,,,,,,FF,,,,,,,,0.583,,,,,,,,,,,,,,,,,,,,,,60fceca1cfdf67843110b0dc,61036dfef7272343cda563a5,2021-07-29_23h12.49.330,Simcolourproject_2stim_asymm_v5,2020.2.10,MacIntel,60,61025ae37ef11b136ea224fe,,,,,,,,,1080,31.42578125,57.2109375,1,0,0,response1disk,,7,4.5234375,-12.27734375,1,0,0,rectangle,4.5234375,-12.27734375,1,0,0,4.5234375,-12.27734375,1,0,0,1,59,219,93,1,,,,,,,,
,,,,,,,,,,,,,FF,,,,,,,,0.7005,,,,,,,,,,,,,,,,,,,,,,60fceca1cfdf67843110b0dc,61036dfef7272343cda563a5,2021-07-29_23h12.49.330,Simcolourproject_2stim_asymm_v5,2020.2.10,MacIntel,60,61025ae37ef11b136ea224fe,,,,,,,,,716,-46.09765625,70,1,0,0,response7disk,,0,-18.37109375,-2.38671875,1,0,0,rectangle,-18.37109375,-2.38671875,1,0,0,-18.37109375,-2.38671875,1,0,0,1,60,220,123,1,,,,,,,,
,,,,,,,,,,,,,FF,,,,,,,,1.2659,,,,,,,,,,,,,,,,,,,,,,60fceca1cfdf67843110b0dc,61036dfef7272343cda563a5,2021-07-29_23h12.49.330,Simcolourproject_2stim_asymm_v5,2020.2.10,MacIntel,60,61025ae37ef11b136ea224fe,,,,,,,,,3862,72.2265625,26.96484375,1,0,0,response1disk,,6,0.19921875,-13.51953125,1,0,0,rectangle,0.19921875,-13.51953125,1,0,0,0.19921875,-13.51953125,1,0,0,1,61,221,135,1,,,,,,,,
,,,,,,,,,,,,,FF,,,,,,,,0.8526,,,,,,,,,,,,,,,,,,,,,,60fceca1cfdf67843110b0dc,61036dfef7272343cda563a5,2021-07-29_23h12.49.330,Simcolourproject_2stim_asymm_v5,2020.2.10,MacIntel,60,61025ae37ef11b136ea224fe,,,,,,,,,2774,39.3046875,60.390625,1,0,0,response1disk,,7,16.98828125,5.28125,1,0,0,rectangle,16.98828125,5.28125,1,0,0,16.98828125,5.28125,1,0,0,1,62,222,81,1,,,,,,,,
,,,,,,,,,,,,,FF,,,,,,,,0.9838,,,,,,,,,,,,,,,,,,,,,,60fceca1cfdf67843110b0dc,61036dfef7272343cda563a5,2021-07-29_23h12.49.330,Simcolourproject_2stim_asymm_v5,2020.2.10,MacIntel,60,61025ae37ef11b136ea224fe,,,,,,,,,3816,-46.359375,-61.921875,1,0,0,response5disk,,3,-21.359375,-7.5703125,1,0,0,rectangle,-21.359375,-7.5703125,1,0,0,-21.359375,-7.5703125,1,0,0,1,63,223,51,1,,,,,,,,
,,,,,,,,,,,,,FF,,,,,,,,0.8369,,,,,,,,,,,,,,,,,,,,,,60fceca1cfdf67843110b0dc,61036dfef7272343cda563a5,2021-07-29_23h12.49.330,Simcolourproject_2stim_asymm_v5,2020.2.10,MacIntel,60,61025ae37ef11b136ea224fe,,,,,,,,,4102,-61.38671875,43.70703125,1,0,0,response7disk,,1,15.62890625,6.83203125,1,0,0,rectangle,15.62890625,6.83203125,1,0,0,15.62890625,6.83203125,1,0,0,1,64,224,126,1,,,,,,,,
,,,,,,,,,,,,,FF,,,,,,,,1.6204,,,,,,,,,,,,,,,,,,,,,,60fceca1cfdf67843110b0dc,61036dfef7272343cda563a5,2021-07-29_23h12.49.330,Simcolourproject_2stim_asymm_v5,2020.2.10,MacIntel,60,61025ae37ef11b136ea224fe,,,,,,,,,3718,36.49609375,-70.83203125,1,0,0,response3disk,,4,16.359375,-7.69921875,1,0,0,rectangle,16.359375,-7.69921875,1,0,0,16.359375,-7.69921875,1,0,0,1,65,225,100,1,,,,,,,,
,,,,,,,,,,,,,FF,,,,,,,,1.1533,,,,,,,,,,,,,,,,,,,,,,60fceca1cfdf67843110b0dc,61036dfef7272343cda563a5,2021-07-29_23h12.49.330,Simcolourproject_2stim_asymm_v5,2020.2.10,MacIntel,60,61025ae37ef11b136ea224fe,,,,,,,,,4181,-34.2734375,92.44140625,1,0,0,response7disk,,0,0.234375,1.9140625,1,0,0,rectangle,0.234375,1.9140625,1,0,0,0.234375,1.9140625,1,0,0,1,66,226,27,1,,,,,,,,
,,,,,,,,,,,,,FF,,,,,,,,21.9674,,,,,,,,,,,,,,,,,,,,,,60fceca1cfdf67843110b0dc,61036dfef7272343cda563a5,2021-07-29_23h12.49.330,Simcolourproject_2stim_asymm_v5,2020.2.10,MacIntel,60,61025ae37ef11b136ea224fe,,,,,,,,,4268,46.4375,-95.01953125,1,0,0,response3disk,,4,19.25,2.8359375,1,0,0,rectangle,19.25,2.8359375,1,0,0,19.25,2.8359375,1,0,0,1,67,227,90,1,,,,,,,,
,,,,,,,,,,,,,FF,,,,,,,,1.9345,,,,,,,,,,,,,,,,,,,,,,60fceca1cfdf67843110b0dc,61036dfef7272343cda563a5,2021-07-29_23h12.49.330,Simcolourproject_2stim_asymm_v5,2020.2.10,MacIntel,60,61025ae37ef11b136ea224fe,,,,,,,,,1528,67.69140625,-112.9648438,1,0,0,response3disk,,4,9.453125,-10.31640625,1,0,0,rectangle,9.453125,-10.31640625,1,0,0,9.453125,-10.31640625,1,0,0,1,68,228,74,1,,,,,,,,
,,,,,,,,,,,,,FF,,,,,,,,0.6503,,,,,,,,,,,,,,,,,,,,,,60fceca1cfdf67843110b0dc,61036dfef7272343cda563a5,2021-07-29_23h12.49.330,Simcolourproject_2stim_asymm_v5,2020.2.10,MacIntel,60,61025ae37ef11b136ea224fe,,,,,,,,,3754,53.82421875,-34.65234375,1,0,0,response3disk,,5,0.21875,10.85546875,1,0,0,rectangle,0.21875,10.85546875,1,0,0,0.21875,10.85546875,1,0,0,1,69,229,127,1,,,,,,,,
,,,,,,,,,,,,,FF,,,,,,,,3.9788,,,,,,,,,,,,,,,,,,,,,,60fceca1cfdf67843110b0dc,61036dfef7272343cda563a5,2021-07-29_23h12.49.330,Simcolourproject_2stim_asymm_v5,2020.2.10,MacIntel,60,61025ae37ef11b136ea224fe,,,,,,,,,1937,62.9140625,35.47265625,1,0,0,response1disk,,6,6.609375,-5.40234375,1,0,0,rectangle,6.609375,-5.40234375,1,0,0,6.609375,-5.40234375,1,0,0,1,70,230,94,1,,,,,,,,
,,,,,,,,,,,,,FF,,,,,,,,2.7832,,,,,,,,,,,,,,,,,,,,,,60fceca1cfdf67843110b0dc,61036dfef7272343cda563a5,2021-07-29_23h12.49.330,Simcolourproject_2stim_asymm_v5,2020.2.10,MacIntel,60,61025ae37ef11b136ea224fe,,,,,,,,,1375,64.18359375,-30.7734375,1,0,0,response3disk,,5,16.0625,1.4453125,1,0,0,rectangle,16.0625,1.4453125,1,0,0,16.0625,1.4453125,1,0,0,1,71,231,37,1,,,,,,,,
,,,,,,,,,,,,,FF,,,,,,,,2.5046,,,,,,,,,,,,,,,,,,,,,,60fceca1cfdf67843110b0dc,61036dfef7272343cda563a5,2021-07-29_23h12.49.330,Simcolourproject_2stim_asymm_v5,2020.2.10,MacIntel,60,61025ae37ef11b136ea224fe,,,,,,,,,2591,79.02734375,39.70703125,1,0,0,response1disk,,6,26.23046875,9.0703125,1,0,0,rectangle,26.23046875,9.0703125,1,0,0,26.23046875,9.0703125,1,0,0,1,72,232,152,1,,,,,,,,
,,,,,,,,,,,,,FF,,,,,,,,0.7654,,,,,,,,,,,,,,,,,,,,,,60fceca1cfdf67843110b0dc,61036dfef7272343cda563a5,2021-07-29_23h12.49.330,Simcolourproject_2stim_asymm_v5,2020.2.10,MacIntel,60,61025ae37ef11b136ea224fe,,,,,,,,,1527,79.01171875,-33.71875,1,0,0,response3disk,,5,15.44921875,-1.34765625,1,0,0,rectangle,15.44921875,-1.34765625,1,0,0,15.44921875,-1.34765625,1,0,0,1,73,233,76,1,,,,,,,,
,,,,,,,,,,,,,FF,,,,,,,,2.1348,,,,,,,,,,,,,,,,,,,,,,60fceca1cfdf67843110b0dc,61036dfef7272343cda563a5,2021-07-29_23h12.49.330,Simcolourproject_2stim_asymm_v5,2020.2.10,MacIntel,60,61025ae37ef11b136ea224fe,,,,,,,,,389,39.875,-82.19921875,1,0,0,response3disk,,4,8.75,-13.90625,1,0,0,rectangle,8.75,-13.90625,1,0,0,8.75,-13.90625,1,0,0,1,74,234,22,1,,,,,,,,
,,,,,,,,,,,,,FF,,,,,,,,0.9191,,,,,,,,,,,,,,,,,,,,,,60fceca1cfdf67843110b0dc,61036dfef7272343cda563a5,2021-07-29_23h12.49.330,Simcolourproject_2stim_asymm_v5,2020.2.10,MacIntel,60,61025ae37ef11b136ea224fe,,,,,,,,,2508,75.8984375,61.83984375,1,0,0,response1disk,,6,13.4609375,-5.05859375,1,0,0,rectangle,13.4609375,-5.05859375,1,0,0,13.4609375,-5.05859375,1,0,0,1,75,235,131,1,,,,,,,,
,,,,,,,,,,,,,FF,,,,,,,,0.4991,,,,,,,,,,,,,,,,,,,,,,60fceca1cfdf67843110b0dc,61036dfef7272343cda563a5,2021-07-29_23h12.49.330,Simcolourproject_2stim_asymm_v5,2020.2.10,MacIntel,60,61025ae37ef11b136ea224fe,,,,,,,,,1335,38.8671875,61.55859375,1,0,0,response1disk,,7,14.140625,-12.58984375,1,0,0,rectangle,14.140625,-12.58984375,1,0,0,14.140625,-12.58984375,1,0,0,1,76,236,130,1,,,,,,,,
,,,,,,,,,,,,,FF,,,,,,,,0.9333,,,,,,,,,,,,,,,,,,,,,,60fceca1cfdf67843110b0dc,61036dfef7272343cda563a5,2021-07-29_23h12.49.330,Simcolourproject_2stim_asymm_v5,2020.2.10,MacIntel,60,61025ae37ef11b136ea224fe,,,,,,,,,3876,62.87109375,-21.8984375,1,0,0,response3disk,,5,19.29296875,2.75,1,0,0,rectangle,19.29296875,2.75,1,0,0,19.29296875,2.75,1,0,0,1,77,237,31,1,,,,,,,,
,,,,,,,,,,,,,FF,,,,,,,,1.1,,,,,,,,,,,,,,,,,,,,,,60fceca1cfdf67843110b0dc,61036dfef7272343cda563a5,2021-07-29_23h12.49.330,Simcolourproject_2stim_asymm_v5,2020.2.10,MacIntel,60,61025ae37ef11b136ea224fe,,,,,,,,,2559,59.97265625,-45.83203125,1,0,0,response3disk,,5,7.77734375,0.265625,1,0,0,rectangle,7.77734375,0.265625,1,0,0,7.77734375,0.265625,1,0,0,1,78,238,149,1,,,,,,,,
,,,,,,,,,,,,,FF,,,,,,,,0.8644,,,,,,,,,,,,,,,,,,,,,,60fceca1cfdf67843110b0dc,61036dfef7272343cda563a5,2021-07-29_23h12.49.330,Simcolourproject_2stim_asymm_v5,2020.2.10,MacIntel,60,61025ae37ef11b136ea224fe,,,,,,,,,2453,30.2578125,58.6171875,1,0,0,response1disk,,7,11.58984375,-11.72265625,1,0,0,rectangle,44.1953125,77.7578125,1,0,0,7.828125,-7.984375,1,0,0,1,79,239,46,1,,response1disk_3,TRUE,7,7,"[45,160,308,33,240,279,160,45,149,318,34,37,113,162,130,91,303,294,208,199]",1.8192,rectangle
,,,,,,,,,,,,,FF,,,,,,,,0.9164,,,,,,,,,,,,,,,,,,,,,,60fceca1cfdf67843110b0dc,61036dfef7272343cda563a5,2021-07-29_23h12.49.330,Simcolourproject_2stim_asymm_v5,2020.2.10,MacIntel,60,61025ae37ef11b136ea224fe,,,,,,,,,2396,67.68359375,35.33984375,1,0,0,response1disk,,6,-10.4375,-0.94140625,1,0,0,rectangle,-10.4375,-0.94140625,1,0,0,-10.4375,-0.94140625,1,0,0,1,80,240,120,1,,,,,,,,
,,,,,,,,,,,,,FF,,,,,,,,0.7853,,,,,,,,,,,,,,,,,,,,,,60fceca1cfdf67843110b0dc,61036dfef7272343cda563a5,2021-07-29_23h12.49.330,Simcolourproject_2stim_asymm_v5,2020.2.10,MacIntel,60,61025ae37ef11b136ea224fe,,,,,,,,,1931,78.9140625,35.08203125,1,0,0,response1disk,,6,3.94921875,-1.83984375,1,0,0,rectangle,3.94921875,-1.83984375,1,0,0,3.94921875,-1.83984375,1,0,0,1,81,241,44,1,,,,,,,,
,,,,,,,,,,,,,FF,,,,,,,,1.0831,,,,,,,,,,,,,,,,,,,,,,60fceca1cfdf67843110b0dc,61036dfef7272343cda563a5,2021-07-29_23h12.49.330,Simcolourproject_2stim_asymm_v5,2020.2.10,MacIntel,60,61025ae37ef11b136ea224fe,,,,,,,,,1203,55.0390625,-68.3515625,1,0,0,response3disk,,4,13.96484375,-0.68359375,1,0,0,rectangle,13.96484375,-0.68359375,1,0,0,13.96484375,-0.68359375,1,0,0,1,82,242,12,1,,,,,,,,
,,,,,,,,,,,,,FF,,,,,,,,0.6661,,,,,,,,,,,,,,,,,,,,,,60fceca1cfdf67843110b0dc,61036dfef7272343cda563a5,2021-07-29_23h12.49.330,Simcolourproject_2stim_asymm_v5,2020.2.10,MacIntel,60,61025ae37ef11b136ea224fe,,,,,,,,,4211,43.83984375,74.87890625,1,0,0,response1disk,,7,6.09765625,2.21484375,1,0,0,rectangle,6.09765625,2.21484375,1,0,0,6.09765625,2.21484375,1,0,0,1,83,243,134,1,,,,,,,,
,,,,,,,,,,,,,FF,,,,,,,,0.8333,,,,,,,,,,,,,,,,,,,,,,60fceca1cfdf67843110b0dc,61036dfef7272343cda563a5,2021-07-29_23h12.49.330,Simcolourproject_2stim_asymm_v5,2020.2.10,MacIntel,60,61025ae37ef11b136ea224fe,,,,,,,,,3029,37.4296875,68.7109375,1,0,0,response1disk,,7,-0.46484375,-4.91015625,1,0,0,rectangle,-0.46484375,-4.91015625,1,0,0,-0.46484375,-4.91015625,1,0,0,1,84,244,35,1,,,,,,,,
,,,,,,,,,,,,,FF,,,,,,,,1.1828,,,,,,,,,,,,,,,,,,,,,,60fceca1cfdf67843110b0dc,61036dfef7272343cda563a5,2021-07-29_23h12.49.330,Simcolourproject_2stim_asymm_v5,2020.2.10,MacIntel,60,61025ae37ef11b136ea224fe,,,,,,,,,3089,37.359375,-97.671875,1,0,0,response3disk,,4,-12.86328125,-4.48046875,1,0,0,rectangle,-12.86328125,-4.48046875,1,0,0,-12.86328125,-4.48046875,1,0,0,1,85,245,143,1,,,,,,,,
,,,,,,,,,,,,,FF,,,,,,,,0.6339,,,,,,,,,,,,,,,,,,,,,,60fceca1cfdf67843110b0dc,61036dfef7272343cda563a5,2021-07-29_23h12.49.330,Simcolourproject_2stim_asymm_v5,2020.2.10,MacIntel,60,61025ae37ef11b136ea224fe,,,,,,,,,3030,44.21484375,62.76171875,1,0,0,response1disk,,7,18.99609375,-4.21875,1,0,0,rectangle,18.99609375,-4.21875,1,0,0,18.99609375,-4.21875,1,0,0,1,86,246,54,1,,,,,,,,
,,,,,,,,,,,,,FF,,,,,,,,0.7154,,,,,,,,,,,,,,,,,,,,,,60fceca1cfdf67843110b0dc,61036dfef7272343cda563a5,2021-07-29_23h12.49.330,Simcolourproject_2stim_asymm_v5,2020.2.10,MacIntel,60,61025ae37ef11b136ea224fe,,,,,,,,,2481,-32.46484375,-82.69921875,1,0,0,response5disk,,3,8.33203125,-7.28125,1,0,0,rectangle,8.33203125,-7.28125,1,0,0,8.33203125,-7.28125,1,0,0,1,87,247,84,1,,,,,,,,
,,,,,,,,,,,,,FF,,,,,,,,0.5654,,,,,,,,,,,,,,,,,,,,,,60fceca1cfdf67843110b0dc,61036dfef7272343cda563a5,2021-07-29_23h12.49.330,Simcolourproject_2stim_asymm_v5,2020.2.10,MacIntel,60,61025ae37ef11b136ea224fe,,,,,,,,,1106,31.875,81.79296875,1,0,0,response1disk,,7,1.49609375,-4.0390625,1,0,0,rectangle,1.49609375,-4.0390625,1,0,0,1.49609375,-4.0390625,1,0,0,1,88,248,53,1,,,,,,,,
