key_resp.keys,key_resp.rt,key_resp_14.keys,key_resp_14.rt,key_resp_15.keys,key_resp_15.rt,key_resp_17.keys,key_resp_17.rt,key_resp_9.keys,key_resp_9.rt,key_resp_10.keys,key_resp_10.rt,practice_comparison,Ecc,mouse_5.x,mouse_5.y,mouse_5.leftButton,mouse_5.midButton,mouse_5.rightButton,mouse_5.clicked_name,pracsimilarity,response_time,mouse_10.x,mouse_10.y,mouse_10.leftButton,mouse_10.midButton,mouse_10.rightButton,mouse_10.clicked_name,mouse_7.x,mouse_7.y,mouse_7.leftButton,mouse_7.midButton,mouse_7.rightButton,mouse_6.x,mouse_6.y,mouse_6.leftButton,mouse_6.midButton,mouse_6.rightButton,duringprac.thisRepN,duringprac.thisTrialN,duringprac.thisN,duringprac.thisIndex,duringprac.ran,participant,session,date,expName,psychopyVersion,OS,frameRate,study_id,mouse_7.clicked_name,catchpracsimilarity,catch_response_time,catchnumberprac,catchtrialorderprac,mouse_6.clicked_name,key_resp_22.keys,key_resp_22.rt,realcomparison,mouse.x,mouse.y,mouse.leftButton,mouse.midButton,mouse.rightButton,mouse.clicked_name,Colour2,similarity,mouse_2.x,mouse_2.y,mouse_2.leftButton,mouse_2.midButton,mouse_2.rightButton,mouse_2.clicked_name,mouse_3.x,mouse_3.y,mouse_3.leftButton,mouse_3.midButton,mouse_3.rightButton,mouse_11.x,mouse_11.y,mouse_11.leftButton,mouse_11.midButton,mouse_11.rightButton,trials_2.thisRepN,trials_2.thisTrialN,trials_2.thisN,trials_2.thisIndex,trials_2.ran,Colour1,mouse_3.clicked_name,catchornah,catchsimilarity,catchnumber,catchtrialorder,catchRT,mouse_11.clicked_name
space,2.4,space,3.334,space,19.224,space,8.476,space,1.77,space,3.095,106,PF,-32,-90,1,0,0,response5disk_5,3,10.734,-4,-13,1,0,0,rectangle_8,-4,-13,1,0,0,-4,-13,1,0,0,0,0,0,4,1,60fcf3eb42a66bd3c049121b,61036c19e0daa28e0a015a2f,2021-07-29_23h05.33.829,Simcolourproject_2stim_asymm_v5,2020.2.10,MacIntel,60,61025ae37ef11b136ea224fe,,,,,,,,,,,,,,,,,,,,,,,,,,,,,,,,,,,,,,,,,,,,,,
,,,,,,,,,,,,9,PF,39,96,1,0,0,response1disk_5,7,3.033,3,-1,1,0,0,rectangle_8,-33,-68,1,0,0,1,3,1,0,0,0,1,1,1,1,60fcf3eb42a66bd3c049121b,61036c19e0daa28e0a015a2f,2021-07-29_23h05.33.829,Simcolourproject_2stim_asymm_v5,2020.2.10,MacIntel,60,61025ae37ef11b136ea224fe,response5disk_7,3,5.468,7,"[2,5]",rectangle_4,,,,,,,,,,,,,,,,,,,,,,,,,,,,,,,,,,,,,,,,
,,,,,,,,,,,,138,PF,30,72,1,0,0,response1disk_5,7,2.638,2,-7,1,0,0,rectangle_8,2,-7,1,0,0,2,-7,1,0,0,0,2,2,6,1,60fcf3eb42a66bd3c049121b,61036c19e0daa28e0a015a2f,2021-07-29_23h05.33.829,Simcolourproject_2stim_asymm_v5,2020.2.10,MacIntel,60,61025ae37ef11b136ea224fe,,,,,,,,,,,,,,,,,,,,,,,,,,,,,,,,,,,,,,,,,,,,,,
,,,,,,,,,,,,116,FF,74,36,1,0,0,response1disk_5,6,2.999,13,7,1,0,0,rectangle_8,13,7,1,0,0,13,7,1,0,0,0,3,3,0,1,60fcf3eb42a66bd3c049121b,61036c19e0daa28e0a015a2f,2021-07-29_23h05.33.829,Simcolourproject_2stim_asymm_v5,2020.2.10,MacIntel,60,61025ae37ef11b136ea224fe,,,,,,,,,,,,,,,,,,,,,,,,,,,,,,,,,,,,,,,,,,,,,,
,,,,,,,,,,,,145,FF,-116,-27,1,0,0,response5disk_5,2,3.517,-12,-8,1,0,0,rectangle_8,39,118,1,0,0,1,-11,1,0,0,0,4,4,5,1,60fcf3eb42a66bd3c049121b,61036c19e0daa28e0a015a2f,2021-07-29_23h05.33.829,Simcolourproject_2stim_asymm_v5,2020.2.10,MacIntel,60,61025ae37ef11b136ea224fe,response1disk_7,7,4.551,7,"[2,5]",rectangle_4,,,,,,,,,,,,,,,,,,,,,,,,,,,,,,,,,,,,,,,,
,,,,,,,,,,,,87,PF,32,59,1,0,0,response1disk_5,7,3.217,17,2,1,0,0,rectangle_8,17,2,1,0,0,17,2,1,0,0,0,5,5,2,1,60fcf3eb42a66bd3c049121b,61036c19e0daa28e0a015a2f,2021-07-29_23h05.33.829,Simcolourproject_2stim_asymm_v5,2020.2.10,MacIntel,60,61025ae37ef11b136ea224fe,,,,,,,,,,,,,,,,,,,,,,,,,,,,,,,,,,,,,,,,,,,,,,
,,,,,,,,,,,,64,FF,-48,-58,1,0,0,response5disk_5,3,1.453,-25,-2,1,0,0,rectangle_8,-25,-2,1,0,0,-25,-2,1,0,0,0,6,6,3,1,60fcf3eb42a66bd3c049121b,61036c19e0daa28e0a015a2f,2021-07-29_23h05.33.829,Simcolourproject_2stim_asymm_v5,2020.2.10,MacIntel,60,61025ae37ef11b136ea224fe,,,,,,,,,,,,,,,,,,,,,,,,,,,,,,,,,,,,,,,,,,,,,,
,,,,,,,,,,,,,FF,,,,,,,,3.886,,,,,,,,,,,,,,,,,,,,,,60fcf3eb42a66bd3c049121b,61036c19e0daa28e0a015a2f,2021-07-29_23h05.33.829,Simcolourproject_2stim_asymm_v5,2020.2.10,MacIntel,60,61025ae37ef11b136ea224fe,,,,,,,space,2.671,4308,35,89,1,0,0,response1disk,,7,9,-5,1,0,0,rectangle,9,-5,1,0,0,9,-5,1,0,0,0,0,0,29,1,,,,,,,,
,,,,,,,,,,,,,FF,,,,,,,,3.366,,,,,,,,,,,,,,,,,,,,,,60fcf3eb42a66bd3c049121b,61036c19e0daa28e0a015a2f,2021-07-29_23h05.33.829,Simcolourproject_2stim_asymm_v5,2020.2.10,MacIntel,60,61025ae37ef11b136ea224fe,,,,,,,,,4103,-79,33,1,0,0,response7disk,,1,-3,-4,1,0,0,rectangle,-3,-4,1,0,0,-3,-4,1,0,0,0,1,1,73,1,,,,,,,,
,,,,,,,,,,,,,FF,,,,,,,,6.52,,,,,,,,,,,,,,,,,,,,,,60fcf3eb42a66bd3c049121b,61036c19e0daa28e0a015a2f,2021-07-29_23h05.33.829,Simcolourproject_2stim_asymm_v5,2020.2.10,MacIntel,60,61025ae37ef11b136ea224fe,,,,,,,,,3989,61,81,1,0,0,response1disk,,7,-20,-7,1,0,0,rectangle,68,-31,1,0,0,5,-3,1,0,0,0,2,2,4,1,,response3disk_3,TRUE,5,5,"[3,136,316,53,76,94,125,130,73,136,251,152,220,127,72,181,275,67,314,155]",2.033,rectangle
,,,,,,,,,,,,,FF,,,,,,,,1.5,,,,,,,,,,,,,,,,,,,,,,60fcf3eb42a66bd3c049121b,61036c19e0daa28e0a015a2f,2021-07-29_23h05.33.829,Simcolourproject_2stim_asymm_v5,2020.2.10,MacIntel,60,61025ae37ef11b136ea224fe,,,,,,,,,2662,-36,63,1,0,0,response7disk,,0,-2,-10,1,0,0,rectangle,-2,-10,1,0,0,-2,-10,1,0,0,0,3,3,69,1,,,,,,,,
,,,,,,,,,,,,,FF,,,,,,,,1.253,,,,,,,,,,,,,,,,,,,,,,60fcf3eb42a66bd3c049121b,61036c19e0daa28e0a015a2f,2021-07-29_23h05.33.829,Simcolourproject_2stim_asymm_v5,2020.2.10,MacIntel,60,61025ae37ef11b136ea224fe,,,,,,,,,1376,-55,-73,1,0,0,response5disk,,3,-13,-10,1,0,0,rectangle,-13,-10,1,0,0,-13,-10,1,0,0,0,4,4,149,1,,,,,,,,
,,,,,,,,,,,,,FF,,,,,,,,1.435,,,,,,,,,,,,,,,,,,,,,,60fcf3eb42a66bd3c049121b,61036c19e0daa28e0a015a2f,2021-07-29_23h05.33.829,Simcolourproject_2stim_asymm_v5,2020.2.10,MacIntel,60,61025ae37ef11b136ea224fe,,,,,,,,,545,-81,45,1,0,0,response7disk,,1,-11,11,1,0,0,rectangle,-11,11,1,0,0,-11,11,1,0,0,0,5,5,75,1,,,,,,,,
,,,,,,,,,,,,,FF,,,,,,,,1.019,,,,,,,,,,,,,,,,,,,,,,60fcf3eb42a66bd3c049121b,61036c19e0daa28e0a015a2f,2021-07-29_23h05.33.829,Simcolourproject_2stim_asymm_v5,2020.2.10,MacIntel,60,61025ae37ef11b136ea224fe,,,,,,,,,790,79,39,1,0,0,response1disk,,6,11,4,1,0,0,rectangle,11,4,1,0,0,11,4,1,0,0,0,6,6,2,1,,,,,,,,
,,,,,,,,,,,,,FF,,,,,,,,0.769,,,,,,,,,,,,,,,,,,,,,,60fcf3eb42a66bd3c049121b,61036c19e0daa28e0a015a2f,2021-07-29_23h05.33.829,Simcolourproject_2stim_asymm_v5,2020.2.10,MacIntel,60,61025ae37ef11b136ea224fe,,,,,,,,,4235,-45,81,1,0,0,response7disk,,0,0,-4,1,0,0,rectangle,0,-4,1,0,0,0,-4,1,0,0,0,7,7,74,1,,,,,,,,
,,,,,,,,,,,,,FF,,,,,,,,1.068,,,,,,,,,,,,,,,,,,,,,,60fcf3eb42a66bd3c049121b,61036c19e0daa28e0a015a2f,2021-07-29_23h05.33.829,Simcolourproject_2stim_asymm_v5,2020.2.10,MacIntel,60,61025ae37ef11b136ea224fe,,,,,,,,,510,38,66,1,0,0,response1disk,,7,13,9,1,0,0,rectangle,13,9,1,0,0,13,9,1,0,0,0,8,8,0,1,,,,,,,,
,,,,,,,,,,,,,FF,,,,,,,,1.133,,,,,,,,,,,,,,,,,,,,,,60fcf3eb42a66bd3c049121b,61036c19e0daa28e0a015a2f,2021-07-29_23h05.33.829,Simcolourproject_2stim_asymm_v5,2020.2.10,MacIntel,60,61025ae37ef11b136ea224fe,,,,,,,,,2200,85,46,1,0,0,response1disk,,6,13,4,1,0,0,rectangle,13,4,1,0,0,13,4,1,0,0,0,9,9,116,1,,,,,,,,
,,,,,,,,,,,,,FF,,,,,,,,1.217,,,,,,,,,,,,,,,,,,,,,,60fcf3eb42a66bd3c049121b,61036c19e0daa28e0a015a2f,2021-07-29_23h05.33.829,Simcolourproject_2stim_asymm_v5,2020.2.10,MacIntel,60,61025ae37ef11b136ea224fe,,,,,,,,,1541,58,-43,1,0,0,response3disk,,5,-20,-1,1,0,0,rectangle,-20,-1,1,0,0,-20,-1,1,0,0,0,10,10,38,1,,,,,,,,
,,,,,,,,,,,,,FF,,,,,,,,2.634,,,,,,,,,,,,,,,,,,,,,,60fcf3eb42a66bd3c049121b,61036c19e0daa28e0a015a2f,2021-07-29_23h05.33.829,Simcolourproject_2stim_asymm_v5,2020.2.10,MacIntel,60,61025ae37ef11b136ea224fe,,,,,,,,,912,72,-47,1,0,0,response3disk,,5,3,-4,1,0,0,rectangle,3,-4,1,0,0,3,-4,1,0,0,0,11,11,66,1,,,,,,,,
,,,,,,,,,,,,,FF,,,,,,,,0.951,,,,,,,,,,,,,,,,,,,,,,60fcf3eb42a66bd3c049121b,61036c19e0daa28e0a015a2f,2021-07-29_23h05.33.829,Simcolourproject_2stim_asymm_v5,2020.2.10,MacIntel,60,61025ae37ef11b136ea224fe,,,,,,,,,1174,43,64,1,0,0,response1disk,,7,10,-1,1,0,0,rectangle,10,-1,1,0,0,10,-1,1,0,0,0,12,12,104,1,,,,,,,,
,,,,,,,,,,,,,FF,,,,,,,,0.884,,,,,,,,,,,,,,,,,,,,,,60fcf3eb42a66bd3c049121b,61036c19e0daa28e0a015a2f,2021-07-29_23h05.33.829,Simcolourproject_2stim_asymm_v5,2020.2.10,MacIntel,60,61025ae37ef11b136ea224fe,,,,,,,,,3789,-62,-91,1,0,0,response5disk,,3,-18,13,1,0,0,rectangle,-18,13,1,0,0,-18,13,1,0,0,0,13,13,98,1,,,,,,,,
,,,,,,,,,,,,,FF,,,,,,,,0.7,,,,,,,,,,,,,,,,,,,,,,60fcf3eb42a66bd3c049121b,61036c19e0daa28e0a015a2f,2021-07-29_23h05.33.829,Simcolourproject_2stim_asymm_v5,2020.2.10,MacIntel,60,61025ae37ef11b136ea224fe,,,,,,,,,1968,-64,27,1,0,0,response7disk,,1,-6,9,1,0,0,rectangle,-6,9,1,0,0,-6,9,1,0,0,0,14,14,121,1,,,,,,,,
,,,,,,,,,,,,,FF,,,,,,,,0.886,,,,,,,,,,,,,,,,,,,,,,60fcf3eb42a66bd3c049121b,61036c19e0daa28e0a015a2f,2021-07-29_23h05.33.829,Simcolourproject_2stim_asymm_v5,2020.2.10,MacIntel,60,61025ae37ef11b136ea224fe,,,,,,,,,368,-87,44,1,0,0,response7disk,,1,7,13,1,0,0,rectangle,7,13,1,0,0,7,13,1,0,0,0,15,15,100,1,,,,,,,,
,,,,,,,,,,,,,FF,,,,,,,,1.034,,,,,,,,,,,,,,,,,,,,,,60fcf3eb42a66bd3c049121b,61036c19e0daa28e0a015a2f,2021-07-29_23h05.33.829,Simcolourproject_2stim_asymm_v5,2020.2.10,MacIntel,60,61025ae37ef11b136ea224fe,,,,,,,,,2400,57,78,1,0,0,response1disk,,7,20,12,1,0,0,rectangle,20,12,1,0,0,20,12,1,0,0,0,16,16,3,1,,,,,,,,
,,,,,,,,,,,,,FF,,,,,,,,0.751,,,,,,,,,,,,,,,,,,,,,,60fcf3eb42a66bd3c049121b,61036c19e0daa28e0a015a2f,2021-07-29_23h05.33.829,Simcolourproject_2stim_asymm_v5,2020.2.10,MacIntel,60,61025ae37ef11b136ea224fe,,,,,,,,,3453,24,63,1,0,0,response1disk,,7,16,10,1,0,0,rectangle,16,10,1,0,0,16,10,1,0,0,0,17,17,110,1,,,,,,,,
,,,,,,,,,,,,,FF,,,,,,,,1.066,,,,,,,,,,,,,,,,,,,,,,60fcf3eb42a66bd3c049121b,61036c19e0daa28e0a015a2f,2021-07-29_23h05.33.829,Simcolourproject_2stim_asymm_v5,2020.2.10,MacIntel,60,61025ae37ef11b136ea224fe,,,,,,,,,2644,37,54,1,0,0,response1disk,,7,24,11,1,0,0,rectangle,24,11,1,0,0,24,11,1,0,0,0,18,18,131,1,,,,,,,,
,,,,,,,,,,,,,FF,,,,,,,,1.633,,,,,,,,,,,,,,,,,,,,,,60fcf3eb42a66bd3c049121b,61036c19e0daa28e0a015a2f,2021-07-29_23h05.33.829,Simcolourproject_2stim_asymm_v5,2020.2.10,MacIntel,60,61025ae37ef11b136ea224fe,,,,,,,,,2895,-99,-32,1,0,0,response5disk,,2,-18,-1,1,0,0,rectangle,-18,-1,1,0,0,-18,-1,1,0,0,0,19,19,40,1,,,,,,,,
,,,,,,,,,,,,,FF,,,,,,,,1,,,,,,,,,,,,,,,,,,,,,,60fcf3eb42a66bd3c049121b,61036c19e0daa28e0a015a2f,2021-07-29_23h05.33.829,Simcolourproject_2stim_asymm_v5,2020.2.10,MacIntel,60,61025ae37ef11b136ea224fe,,,,,,,,,409,49,64,1,0,0,response1disk,,7,22,3,1,0,0,rectangle,22,3,1,0,0,22,3,1,0,0,0,20,20,78,1,,,,,,,,
,,,,,,,,,,,,,FF,,,,,,,,1.036,,,,,,,,,,,,,,,,,,,,,,60fcf3eb42a66bd3c049121b,61036c19e0daa28e0a015a2f,2021-07-29_23h05.33.829,Simcolourproject_2stim_asymm_v5,2020.2.10,MacIntel,60,61025ae37ef11b136ea224fe,,,,,,,,,2815,25,84,1,0,0,response1disk,,7,22,8,1,0,0,rectangle,22,8,1,0,0,22,8,1,0,0,0,21,21,113,1,,,,,,,,
,,,,,,,,,,,,,FF,,,,,,,,1.117,,,,,,,,,,,,,,,,,,,,,,60fcf3eb42a66bd3c049121b,61036c19e0daa28e0a015a2f,2021-07-29_23h05.33.829,Simcolourproject_2stim_asymm_v5,2020.2.10,MacIntel,60,61025ae37ef11b136ea224fe,,,,,,,,,53,33,76,1,0,0,response1disk,,7,7,11,1,0,0,rectangle,7,11,1,0,0,7,11,1,0,0,0,22,22,87,1,,,,,,,,
,,,,,,,,,,,,,FF,,,,,,,,0.768,,,,,,,,,,,,,,,,,,,,,,60fcf3eb42a66bd3c049121b,61036c19e0daa28e0a015a2f,2021-07-29_23h05.33.829,Simcolourproject_2stim_asymm_v5,2020.2.10,MacIntel,60,61025ae37ef11b136ea224fe,,,,,,,,,694,28,60,1,0,0,response1disk,,7,20,-14,1,0,0,rectangle,20,-14,1,0,0,20,-14,1,0,0,0,23,23,58,1,,,,,,,,
,,,,,,,,,,,,,FF,,,,,,,,1.368,,,,,,,,,,,,,,,,,,,,,,60fcf3eb42a66bd3c049121b,61036c19e0daa28e0a015a2f,2021-07-29_23h05.33.829,Simcolourproject_2stim_asymm_v5,2020.2.10,MacIntel,60,61025ae37ef11b136ea224fe,,,,,,,,,1872,68,47,1,0,0,response1disk,,6,19,15,1,0,0,rectangle,19,15,1,0,0,19,15,1,0,0,0,24,24,157,1,,,,,,,,
,,,,,,,,,,,,,FF,,,,,,,,1.55,,,,,,,,,,,,,,,,,,,,,,60fcf3eb42a66bd3c049121b,61036c19e0daa28e0a015a2f,2021-07-29_23h05.33.829,Simcolourproject_2stim_asymm_v5,2020.2.10,MacIntel,60,61025ae37ef11b136ea224fe,,,,,,,,,3569,46,57,1,0,0,response1disk,,7,29,0,1,0,0,rectangle,29,0,1,0,0,29,0,1,0,0,0,25,25,11,1,,,,,,,,
,,,,,,,,,,,,,FF,,,,,,,,1.283,,,,,,,,,,,,,,,,,,,,,,60fcf3eb42a66bd3c049121b,61036c19e0daa28e0a015a2f,2021-07-29_23h05.33.829,Simcolourproject_2stim_asymm_v5,2020.2.10,MacIntel,60,61025ae37ef11b136ea224fe,,,,,,,,,994,72,-34,1,0,0,response3disk,,5,27,-15,1,0,0,rectangle,27,-15,1,0,0,27,-15,1,0,0,0,26,26,71,1,,,,,,,,
,,,,,,,,,,,,,FF,,,,,,,,1.217,,,,,,,,,,,,,,,,,,,,,,60fcf3eb42a66bd3c049121b,61036c19e0daa28e0a015a2f,2021-07-29_23h05.33.829,Simcolourproject_2stim_asymm_v5,2020.2.10,MacIntel,60,61025ae37ef11b136ea224fe,,,,,,,,,1688,-83,-29,1,0,0,response5disk,,2,14,14,1,0,0,rectangle,14,14,1,0,0,14,14,1,0,0,0,27,27,68,1,,,,,,,,
,,,,,,,,,,,,,FF,,,,,,,,1.214,,,,,,,,,,,,,,,,,,,,,,60fcf3eb42a66bd3c049121b,61036c19e0daa28e0a015a2f,2021-07-29_23h05.33.829,Simcolourproject_2stim_asymm_v5,2020.2.10,MacIntel,60,61025ae37ef11b136ea224fe,,,,,,,,,527,-87,-28,1,0,0,response5disk,,2,3,13,1,0,0,rectangle,3,13,1,0,0,3,13,1,0,0,0,28,28,114,1,,,,,,,,
,,,,,,,,,,,,,FF,,,,,,,,1.066,,,,,,,,,,,,,,,,,,,,,,60fcf3eb42a66bd3c049121b,61036c19e0daa28e0a015a2f,2021-07-29_23h05.33.829,Simcolourproject_2stim_asymm_v5,2020.2.10,MacIntel,60,61025ae37ef11b136ea224fe,,,,,,,,,204,27,38,1,0,0,response1disk,,7,7,-1,1,0,0,rectangle,7,-1,1,0,0,7,-1,1,0,0,0,29,29,64,1,,,,,,,,
,,,,,,,,,,,,,FF,,,,,,,,1.617,,,,,,,,,,,,,,,,,,,,,,60fcf3eb42a66bd3c049121b,61036c19e0daa28e0a015a2f,2021-07-29_23h05.33.829,Simcolourproject_2stim_asymm_v5,2020.2.10,MacIntel,60,61025ae37ef11b136ea224fe,,,,,,,,,300,29,59,1,0,0,response1disk,,7,16,10,1,0,0,rectangle,16,10,1,0,0,16,10,1,0,0,0,30,30,89,1,,,,,,,,
,,,,,,,,,,,,,FF,,,,,,,,1.094,,,,,,,,,,,,,,,,,,,,,,60fcf3eb42a66bd3c049121b,61036c19e0daa28e0a015a2f,2021-07-29_23h05.33.829,Simcolourproject_2stim_asymm_v5,2020.2.10,MacIntel,60,61025ae37ef11b136ea224fe,,,,,,,,,4294,-77,30,1,0,0,response7disk,,1,-19,-1,1,0,0,rectangle,-19,-1,1,0,0,-19,-1,1,0,0,0,31,31,47,1,,,,,,,,
,,,,,,,,,,,,,FF,,,,,,,,0.655,,,,,,,,,,,,,,,,,,,,,,60fcf3eb42a66bd3c049121b,61036c19e0daa28e0a015a2f,2021-07-29_23h05.33.829,Simcolourproject_2stim_asymm_v5,2020.2.10,MacIntel,60,61025ae37ef11b136ea224fe,,,,,,,,,2208,32,68,1,0,0,response1disk,,7,19,2,1,0,0,rectangle,19,2,1,0,0,19,2,1,0,0,0,32,32,122,1,,,,,,,,
,,,,,,,,,,,,,FF,,,,,,,,1.28,,,,,,,,,,,,,,,,,,,,,,60fcf3eb42a66bd3c049121b,61036c19e0daa28e0a015a2f,2021-07-29_23h05.33.829,Simcolourproject_2stim_asymm_v5,2020.2.10,MacIntel,60,61025ae37ef11b136ea224fe,,,,,,,,,1663,61,36,1,0,0,response1disk,,6,2,7,1,0,0,rectangle,2,7,1,0,0,2,7,1,0,0,0,33,33,91,1,,,,,,,,
,,,,,,,,,,,,,FF,,,,,,,,1.383,,,,,,,,,,,,,,,,,,,,,,60fcf3eb42a66bd3c049121b,61036c19e0daa28e0a015a2f,2021-07-29_23h05.33.829,Simcolourproject_2stim_asymm_v5,2020.2.10,MacIntel,60,61025ae37ef11b136ea224fe,,,,,,,,,4090,66,41,1,0,0,response1disk,,6,11,14,1,0,0,rectangle,11,14,1,0,0,11,14,1,0,0,0,34,34,136,1,,,,,,,,
,,,,,,,,,,,,,FF,,,,,,,,0.75,,,,,,,,,,,,,,,,,,,,,,60fcf3eb42a66bd3c049121b,61036c19e0daa28e0a015a2f,2021-07-29_23h05.33.829,Simcolourproject_2stim_asymm_v5,2020.2.10,MacIntel,60,61025ae37ef11b136ea224fe,,,,,,,,,3052,37,59,1,0,0,response1disk,,7,14,4,1,0,0,rectangle,14,4,1,0,0,14,4,1,0,0,0,35,35,7,1,,,,,,,,
,,,,,,,,,,,,,FF,,,,,,,,0.734,,,,,,,,,,,,,,,,,,,,,,60fcf3eb42a66bd3c049121b,61036c19e0daa28e0a015a2f,2021-07-29_23h05.33.829,Simcolourproject_2stim_asymm_v5,2020.2.10,MacIntel,60,61025ae37ef11b136ea224fe,,,,,,,,,87,29,38,1,0,0,response1disk,,7,20,0,1,0,0,rectangle,20,0,1,0,0,20,0,1,0,0,0,36,36,148,1,,,,,,,,
,,,,,,,,,,,,,FF,,,,,,,,1.216,,,,,,,,,,,,,,,,,,,,,,60fcf3eb42a66bd3c049121b,61036c19e0daa28e0a015a2f,2021-07-29_23h05.33.829,Simcolourproject_2stim_asymm_v5,2020.2.10,MacIntel,60,61025ae37ef11b136ea224fe,,,,,,,,,1141,80,-37,1,0,0,response3disk,,5,18,0,1,0,0,rectangle,18,0,1,0,0,18,0,1,0,0,0,37,37,115,1,,,,,,,,
,,,,,,,,,,,,,FF,,,,,,,,3.404,,,,,,,,,,,,,,,,,,,,,,60fcf3eb42a66bd3c049121b,61036c19e0daa28e0a015a2f,2021-07-29_23h05.33.829,Simcolourproject_2stim_asymm_v5,2020.2.10,MacIntel,60,61025ae37ef11b136ea224fe,,,,,,,,,240,25,68,1,0,0,response1disk,,7,14,13,1,0,0,rectangle,14,13,1,0,0,14,13,1,0,0,0,38,38,154,1,,,,,,,,
,,,,,,,,,,,,,FF,,,,,,,,0.75,,,,,,,,,,,,,,,,,,,,,,60fcf3eb42a66bd3c049121b,61036c19e0daa28e0a015a2f,2021-07-29_23h05.33.829,Simcolourproject_2stim_asymm_v5,2020.2.10,MacIntel,60,61025ae37ef11b136ea224fe,,,,,,,,,1471,44,28,1,0,0,response1disk,,6,7,2,1,0,0,rectangle,7,2,1,0,0,7,2,1,0,0,0,39,39,45,1,,,,,,,,
,,,,,,,,,,,,,FF,,,,,,,,0.751,,,,,,,,,,,,,,,,,,,,,,60fcf3eb42a66bd3c049121b,61036c19e0daa28e0a015a2f,2021-07-29_23h05.33.829,Simcolourproject_2stim_asymm_v5,2020.2.10,MacIntel,60,61025ae37ef11b136ea224fe,,,,,,,,,498,39,81,1,0,0,response1disk,,7,21,9,1,0,0,rectangle,21,9,1,0,0,21,9,1,0,0,0,40,40,92,1,,,,,,,,
,,,,,,,,,,,,,FF,,,,,,,,0.533,,,,,,,,,,,,,,,,,,,,,,60fcf3eb42a66bd3c049121b,61036c19e0daa28e0a015a2f,2021-07-29_23h05.33.829,Simcolourproject_2stim_asymm_v5,2020.2.10,MacIntel,60,61025ae37ef11b136ea224fe,,,,,,,,,491,34,62,1,0,0,response1disk,,7,19,13,1,0,0,rectangle,19,13,1,0,0,19,13,1,0,0,0,41,41,147,1,,,,,,,,
,,,,,,,,,,,,,FF,,,,,,,,1.134,,,,,,,,,,,,,,,,,,,,,,60fcf3eb42a66bd3c049121b,61036c19e0daa28e0a015a2f,2021-07-29_23h05.33.829,Simcolourproject_2stim_asymm_v5,2020.2.10,MacIntel,60,61025ae37ef11b136ea224fe,,,,,,,,,746,63,26,1,0,0,response1disk,,6,10,7,1,0,0,rectangle,10,7,1,0,0,10,7,1,0,0,0,42,42,137,1,,,,,,,,
,,,,,,,,,,,,,FF,,,,,,,,0.734,,,,,,,,,,,,,,,,,,,,,,60fcf3eb42a66bd3c049121b,61036c19e0daa28e0a015a2f,2021-07-29_23h05.33.829,Simcolourproject_2stim_asymm_v5,2020.2.10,MacIntel,60,61025ae37ef11b136ea224fe,,,,,,,,,3257,31,65,1,0,0,response1disk,,7,12,-1,1,0,0,rectangle,12,-1,1,0,0,12,-1,1,0,0,0,43,43,44,1,,,,,,,,
,,,,,,,,,,,,,FF,,,,,,,,0.945,,,,,,,,,,,,,,,,,,,,,,60fcf3eb42a66bd3c049121b,61036c19e0daa28e0a015a2f,2021-07-29_23h05.33.829,Simcolourproject_2stim_asymm_v5,2020.2.10,MacIntel,60,61025ae37ef11b136ea224fe,,,,,,,,,3933,48,24,1,0,0,response1disk,,6,13,7,1,0,0,rectangle,13,7,1,0,0,13,7,1,0,0,0,44,44,49,1,,,,,,,,
,,,,,,,,,,,,,FF,,,,,,,,1.748,,,,,,,,,,,,,,,,,,,,,,60fcf3eb42a66bd3c049121b,61036c19e0daa28e0a015a2f,2021-07-29_23h05.33.829,Simcolourproject_2stim_asymm_v5,2020.2.10,MacIntel,60,61025ae37ef11b136ea224fe,,,,,,,,,3457,35,88,1,0,0,response1disk,,7,2,4,1,0,0,rectangle,2,4,1,0,0,2,4,1,0,0,0,45,45,50,1,,,,,,,,
,,,,,,,,,,,,,FF,,,,,,,,1.167,,,,,,,,,,,,,,,,,,,,,,60fcf3eb42a66bd3c049121b,61036c19e0daa28e0a015a2f,2021-07-29_23h05.33.829,Simcolourproject_2stim_asymm_v5,2020.2.10,MacIntel,60,61025ae37ef11b136ea224fe,,,,,,,,,2485,-24,-52,1,0,0,response5disk,,3,-14,-3,1,0,0,rectangle,-14,-3,1,0,0,-14,-3,1,0,0,0,46,46,96,1,,,,,,,,
,,,,,,,,,,,,,FF,,,,,,,,1.301,,,,,,,,,,,,,,,,,,,,,,60fcf3eb42a66bd3c049121b,61036c19e0daa28e0a015a2f,2021-07-29_23h05.33.829,Simcolourproject_2stim_asymm_v5,2020.2.10,MacIntel,60,61025ae37ef11b136ea224fe,,,,,,,,,1775,42,-57,1,0,0,response3disk,,4,11,-11,1,0,0,rectangle,11,-11,1,0,0,11,-11,1,0,0,0,47,47,145,1,,,,,,,,
,,,,,,,,,,,,,FF,,,,,,,,0.899,,,,,,,,,,,,,,,,,,,,,,60fcf3eb42a66bd3c049121b,61036c19e0daa28e0a015a2f,2021-07-29_23h05.33.829,Simcolourproject_2stim_asymm_v5,2020.2.10,MacIntel,60,61025ae37ef11b136ea224fe,,,,,,,,,581,31,77,1,0,0,response1disk,,7,7,-9,1,0,0,rectangle,7,-9,1,0,0,7,-9,1,0,0,0,48,48,86,1,,,,,,,,
,,,,,,,,,,,,,FF,,,,,,,,0.616,,,,,,,,,,,,,,,,,,,,,,60fcf3eb42a66bd3c049121b,61036c19e0daa28e0a015a2f,2021-07-29_23h05.33.829,Simcolourproject_2stim_asymm_v5,2020.2.10,MacIntel,60,61025ae37ef11b136ea224fe,,,,,,,,,3316,47,76,1,0,0,response1disk,,7,21,2,1,0,0,rectangle,21,2,1,0,0,21,2,1,0,0,0,49,49,117,1,,,,,,,,
,,,,,,,,,,,,,FF,,,,,,,,0.688,,,,,,,,,,,,,,,,,,,,,,60fcf3eb42a66bd3c049121b,61036c19e0daa28e0a015a2f,2021-07-29_23h05.33.829,Simcolourproject_2stim_asymm_v5,2020.2.10,MacIntel,60,61025ae37ef11b136ea224fe,,,,,,,,,120,45,73,1,0,0,response1disk,,7,17,11,1,0,0,rectangle,17,11,1,0,0,17,11,1,0,0,0,50,50,12,1,,,,,,,,
,,,,,,,,,,,,,FF,,,,,,,,0.799,,,,,,,,,,,,,,,,,,,,,,60fcf3eb42a66bd3c049121b,61036c19e0daa28e0a015a2f,2021-07-29_23h05.33.829,Simcolourproject_2stim_asymm_v5,2020.2.10,MacIntel,60,61025ae37ef11b136ea224fe,,,,,,,,,4252,-76,34,1,0,0,response7disk,,1,-19,5,1,0,0,rectangle,-19,5,1,0,0,-19,5,1,0,0,0,51,51,141,1,,,,,,,,
,,,,,,,,,,,,,FF,,,,,,,,1.084,,,,,,,,,,,,,,,,,,,,,,60fcf3eb42a66bd3c049121b,61036c19e0daa28e0a015a2f,2021-07-29_23h05.33.829,Simcolourproject_2stim_asymm_v5,2020.2.10,MacIntel,60,61025ae37ef11b136ea224fe,,,,,,,,,4122,-46,-74,1,0,0,response5disk,,3,-12,9,1,0,0,rectangle,-97,-64,1,0,0,5,-1,1,0,0,0,52,52,31,1,,response5disk_3,TRUE,2,2,"[3,136,316,53,76,94,125,130,73,136,251,152,220,127,72,181,275,67,314,155]",2.182,rectangle
,,,,,,,,,,,,,FF,,,,,,,,1.35,,,,,,,,,,,,,,,,,,,,,,60fcf3eb42a66bd3c049121b,61036c19e0daa28e0a015a2f,2021-07-29_23h05.33.829,Simcolourproject_2stim_asymm_v5,2020.2.10,MacIntel,60,61025ae37ef11b136ea224fe,,,,,,,,,4168,-106,35,1,0,0,response7disk,,1,-13,10,1,0,0,rectangle,-13,10,1,0,0,-13,10,1,0,0,0,53,53,59,1,,,,,,,,
,,,,,,,,,,,,,FF,,,,,,,,0.683,,,,,,,,,,,,,,,,,,,,,,60fcf3eb42a66bd3c049121b,61036c19e0daa28e0a015a2f,2021-07-29_23h05.33.829,Simcolourproject_2stim_asymm_v5,2020.2.10,MacIntel,60,61025ae37ef11b136ea224fe,,,,,,,,,153,35,63,1,0,0,response1disk,,7,8,0,1,0,0,rectangle,8,0,1,0,0,8,0,1,0,0,0,54,54,53,1,,,,,,,,
,,,,,,,,,,,,,FF,,,,,,,,1.084,,,,,,,,,,,,,,,,,,,,,,60fcf3eb42a66bd3c049121b,61036c19e0daa28e0a015a2f,2021-07-29_23h05.33.829,Simcolourproject_2stim_asymm_v5,2020.2.10,MacIntel,60,61025ae37ef11b136ea224fe,,,,,,,,,319,60,33,1,0,0,response1disk,,6,-13,8,1,0,0,rectangle,-13,8,1,0,0,-13,8,1,0,0,0,55,55,153,1,,,,,,,,
,,,,,,,,,,,,,FF,,,,,,,,1.266,,,,,,,,,,,,,,,,,,,,,,60fcf3eb42a66bd3c049121b,61036c19e0daa28e0a015a2f,2021-07-29_23h05.33.829,Simcolourproject_2stim_asymm_v5,2020.2.10,MacIntel,60,61025ae37ef11b136ea224fe,,,,,,,,,3584,-90,-41,1,0,0,response5disk,,2,-12,10,1,0,0,rectangle,-12,10,1,0,0,-12,10,1,0,0,0,56,56,90,1,,,,,,,,
,,,,,,,,,,,,,FF,,,,,,,,0.869,,,,,,,,,,,,,,,,,,,,,,60fcf3eb42a66bd3c049121b,61036c19e0daa28e0a015a2f,2021-07-29_23h05.33.829,Simcolourproject_2stim_asymm_v5,2020.2.10,MacIntel,60,61025ae37ef11b136ea224fe,,,,,,,,,3269,25,57,1,0,0,response1disk,,7,3,1,1,0,0,rectangle,3,1,1,0,0,3,1,1,0,0,0,57,57,30,1,,,,,,,,
,,,,,,,,,,,,,FF,,,,,,,,0.966,,,,,,,,,,,,,,,,,,,,,,60fcf3eb42a66bd3c049121b,61036c19e0daa28e0a015a2f,2021-07-29_23h05.33.829,Simcolourproject_2stim_asymm_v5,2020.2.10,MacIntel,60,61025ae37ef11b136ea224fe,,,,,,,,,2186,56,23,1,0,0,response1disk,,6,4,5,1,0,0,rectangle,4,5,1,0,0,4,5,1,0,0,0,58,58,54,1,,,,,,,,
,,,,,,,,,,,,,FF,,,,,,,,0.7,,,,,,,,,,,,,,,,,,,,,,60fcf3eb42a66bd3c049121b,61036c19e0daa28e0a015a2f,2021-07-29_23h05.33.829,Simcolourproject_2stim_asymm_v5,2020.2.10,MacIntel,60,61025ae37ef11b136ea224fe,,,,,,,,,230,33,58,1,0,0,response1disk,,7,14,1,1,0,0,rectangle,14,1,1,0,0,14,1,1,0,0,0,59,59,72,1,,,,,,,,
,,,,,,,,,,,,,FF,,,,,,,,2.002,,,,,,,,,,,,,,,,,,,,,,60fcf3eb42a66bd3c049121b,61036c19e0daa28e0a015a2f,2021-07-29_23h05.33.829,Simcolourproject_2stim_asymm_v5,2020.2.10,MacIntel,60,61025ae37ef11b136ea224fe,,,,,,,,,2084,-55,-92,1,0,0,response5disk,,3,-20,10,1,0,0,rectangle,-20,10,1,0,0,-20,10,1,0,0,0,60,60,81,1,,,,,,,,
,,,,,,,,,,,,,FF,,,,,,,,0.784,,,,,,,,,,,,,,,,,,,,,,60fcf3eb42a66bd3c049121b,61036c19e0daa28e0a015a2f,2021-07-29_23h05.33.829,Simcolourproject_2stim_asymm_v5,2020.2.10,MacIntel,60,61025ae37ef11b136ea224fe,,,,,,,,,383,36,75,1,0,0,response1disk,,7,18,8,1,0,0,rectangle,18,8,1,0,0,18,8,1,0,0,0,61,61,84,1,,,,,,,,
,,,,,,,,,,,,,FF,,,,,,,,0.616,,,,,,,,,,,,,,,,,,,,,,60fcf3eb42a66bd3c049121b,61036c19e0daa28e0a015a2f,2021-07-29_23h05.33.829,Simcolourproject_2stim_asymm_v5,2020.2.10,MacIntel,60,61025ae37ef11b136ea224fe,,,,,,,,,3067,31,59,1,0,0,response1disk,,7,15,9,1,0,0,rectangle,15,9,1,0,0,15,9,1,0,0,0,62,62,60,1,,,,,,,,
,,,,,,,,,,,,,FF,,,,,,,,1.867,,,,,,,,,,,,,,,,,,,,,,60fcf3eb42a66bd3c049121b,61036c19e0daa28e0a015a2f,2021-07-29_23h05.33.829,Simcolourproject_2stim_asymm_v5,2020.2.10,MacIntel,60,61025ae37ef11b136ea224fe,,,,,,,,,2663,-83,-22,1,0,0,response5disk,,2,-18,1,1,0,0,rectangle,-18,1,1,0,0,-18,1,1,0,0,0,63,63,24,1,,,,,,,,
,,,,,,,,,,,,,FF,,,,,,,,1.266,,,,,,,,,,,,,,,,,,,,,,60fcf3eb42a66bd3c049121b,61036c19e0daa28e0a015a2f,2021-07-29_23h05.33.829,Simcolourproject_2stim_asymm_v5,2020.2.10,MacIntel,60,61025ae37ef11b136ea224fe,,,,,,,,,1074,64,28,1,0,0,response1disk,,6,0,12,1,0,0,rectangle,0,12,1,0,0,0,12,1,0,0,0,64,64,62,1,,,,,,,,
,,,,,,,,,,,,,FF,,,,,,,,0.684,,,,,,,,,,,,,,,,,,,,,,60fcf3eb42a66bd3c049121b,61036c19e0daa28e0a015a2f,2021-07-29_23h05.33.829,Simcolourproject_2stim_asymm_v5,2020.2.10,MacIntel,60,61025ae37ef11b136ea224fe,,,,,,,,,1492,33,64,1,0,0,response1disk,,7,8,11,1,0,0,rectangle,8,11,1,0,0,8,11,1,0,0,0,65,65,83,1,,,,,,,,
,,,,,,,,,,,,,FF,,,,,,,,2.834,,,,,,,,,,,,,,,,,,,,,,60fcf3eb42a66bd3c049121b,61036c19e0daa28e0a015a2f,2021-07-29_23h05.33.829,Simcolourproject_2stim_asymm_v5,2020.2.10,MacIntel,60,61025ae37ef11b136ea224fe,,,,,,,,,4250,54,79,1,0,0,response1disk,,7,9,14,1,0,0,rectangle,85,-52,1,0,0,6,-1,1,0,0,0,66,66,28,1,,response3disk_3,TRUE,5,5,"[3,136,316,53,76,94,125,130,73,136,251,152,220,127,72,181,275,67,314,155]",1.766,rectangle
,,,,,,,,,,,,,FF,,,,,,,,0.784,,,,,,,,,,,,,,,,,,,,,,60fcf3eb42a66bd3c049121b,61036c19e0daa28e0a015a2f,2021-07-29_23h05.33.829,Simcolourproject_2stim_asymm_v5,2020.2.10,MacIntel,60,61025ae37ef11b136ea224fe,,,,,,,,,3222,26,67,1,0,0,response1disk,,7,11,-14,1,0,0,rectangle,11,-14,1,0,0,11,-14,1,0,0,0,67,67,108,1,,,,,,,,
,,,,,,,,,,,,,FF,,,,,,,,1.968,,,,,,,,,,,,,,,,,,,,,,60fcf3eb42a66bd3c049121b,61036c19e0daa28e0a015a2f,2021-07-29_23h05.33.829,Simcolourproject_2stim_asymm_v5,2020.2.10,MacIntel,60,61025ae37ef11b136ea224fe,,,,,,,,,175,38,-71,1,0,0,response3disk,,4,12,-14,1,0,0,rectangle,12,-14,1,0,0,12,-14,1,0,0,0,68,68,126,1,,,,,,,,
,,,,,,,,,,,,,FF,,,,,,,,1.15,,,,,,,,,,,,,,,,,,,,,,60fcf3eb42a66bd3c049121b,61036c19e0daa28e0a015a2f,2021-07-29_23h05.33.829,Simcolourproject_2stim_asymm_v5,2020.2.10,MacIntel,60,61025ae37ef11b136ea224fe,,,,,,,,,2776,-58,-73,1,0,0,response5disk,,3,-23,-7,1,0,0,rectangle,-23,-7,1,0,0,-23,-7,1,0,0,0,69,69,15,1,,,,,,,,
,,,,,,,,,,,,,FF,,,,,,,,1.051,,,,,,,,,,,,,,,,,,,,,,60fcf3eb42a66bd3c049121b,61036c19e0daa28e0a015a2f,2021-07-29_23h05.33.829,Simcolourproject_2stim_asymm_v5,2020.2.10,MacIntel,60,61025ae37ef11b136ea224fe,,,,,,,,,4187,-55,-70,1,0,0,response5disk,,3,-20,2,1,0,0,rectangle,-20,2,1,0,0,-20,2,1,0,0,0,70,70,25,1,,,,,,,,
,,,,,,,,,,,,,FF,,,,,,,,0.986,,,,,,,,,,,,,,,,,,,,,,60fcf3eb42a66bd3c049121b,61036c19e0daa28e0a015a2f,2021-07-29_23h05.33.829,Simcolourproject_2stim_asymm_v5,2020.2.10,MacIntel,60,61025ae37ef11b136ea224fe,,,,,,,,,666,35,71,1,0,0,response1disk,,7,17,5,1,0,0,rectangle,-88,-67,1,0,0,-13,1,1,0,0,0,71,71,111,1,,response5disk_3,TRUE,2,2,"[3,136,316,53,76,94,125,130,73,136,251,152,220,127,72,181,275,67,314,155]",1.734,rectangle
,,,,,,,,,,,,,FF,,,,,,,,0.752,,,,,,,,,,,,,,,,,,,,,,60fcf3eb42a66bd3c049121b,61036c19e0daa28e0a015a2f,2021-07-29_23h05.33.829,Simcolourproject_2stim_asymm_v5,2020.2.10,MacIntel,60,61025ae37ef11b136ea224fe,,,,,,,,,2825,-70,17,1,0,0,response7disk,,1,-16,-7,1,0,0,rectangle,-43,-105,1,0,0,1,5,1,0,0,0,72,72,19,1,,response5disk_3,TRUE,3,3,"[3,136,316,53,76,94,125,130,73,136,251,152,220,127,72,181,275,67,314,155]",2.283,rectangle
,,,,,,,,,,,,,FF,,,,,,,,1.35,,,,,,,,,,,,,,,,,,,,,,60fcf3eb42a66bd3c049121b,61036c19e0daa28e0a015a2f,2021-07-29_23h05.33.829,Simcolourproject_2stim_asymm_v5,2020.2.10,MacIntel,60,61025ae37ef11b136ea224fe,,,,,,,,,3484,-77,-57,1,0,0,response5disk,,2,-6,7,1,0,0,rectangle,-6,7,1,0,0,-6,7,1,0,0,0,73,73,13,1,,,,,,,,
,,,,,,,,,,,,,FF,,,,,,,,3.267,,,,,,,,,,,,,,,,,,,,,,60fcf3eb42a66bd3c049121b,61036c19e0daa28e0a015a2f,2021-07-29_23h05.33.829,Simcolourproject_2stim_asymm_v5,2020.2.10,MacIntel,60,61025ae37ef11b136ea224fe,,,,,,,,,536,28,77,1,0,0,response1disk,,7,6,4,1,0,0,rectangle,6,4,1,0,0,6,4,1,0,0,0,74,74,105,1,,,,,,,,
,,,,,,,,,,,,,FF,,,,,,,,0.65,,,,,,,,,,,,,,,,,,,,,,60fcf3eb42a66bd3c049121b,61036c19e0daa28e0a015a2f,2021-07-29_23h05.33.829,Simcolourproject_2stim_asymm_v5,2020.2.10,MacIntel,60,61025ae37ef11b136ea224fe,,,,,,,,,1677,-44,72,1,0,0,response7disk,,0,-17,-4,1,0,0,rectangle,72,-39,1,0,0,14,-6,1,0,0,0,75,75,124,1,,response3disk_3,TRUE,5,5,"[3,136,316,53,76,94,125,130,73,136,251,152,220,127,72,181,275,67,314,155]",1.702,rectangle
,,,,,,,,,,,,,FF,,,,,,,,0.737,,,,,,,,,,,,,,,,,,,,,,60fcf3eb42a66bd3c049121b,61036c19e0daa28e0a015a2f,2021-07-29_23h05.33.829,Simcolourproject_2stim_asymm_v5,2020.2.10,MacIntel,60,61025ae37ef11b136ea224fe,,,,,,,,,508,51,68,1,0,0,response1disk,,7,18,-4,1,0,0,rectangle,18,-4,1,0,0,18,-4,1,0,0,0,76,76,77,1,,,,,,,,
,,,,,,,,,,,,,FF,,,,,,,,1.251,,,,,,,,,,,,,,,,,,,,,,60fcf3eb42a66bd3c049121b,61036c19e0daa28e0a015a2f,2021-07-29_23h05.33.829,Simcolourproject_2stim_asymm_v5,2020.2.10,MacIntel,60,61025ae37ef11b136ea224fe,,,,,,,,,2637,39,74,1,0,0,response1disk,,7,23,8,1,0,0,rectangle,23,8,1,0,0,23,8,1,0,0,0,77,77,33,1,,,,,,,,
,,,,,,,,,,,,,FF,,,,,,,,0.691,,,,,,,,,,,,,,,,,,,,,,60fcf3eb42a66bd3c049121b,61036c19e0daa28e0a015a2f,2021-07-29_23h05.33.829,Simcolourproject_2stim_asymm_v5,2020.2.10,MacIntel,60,61025ae37ef11b136ea224fe,,,,,,,,,4172,36,81,1,0,0,response1disk,,7,7,4,1,0,0,rectangle,7,4,1,0,0,7,4,1,0,0,0,78,78,128,1,,,,,,,,
,,,,,,,,,,,,,FF,,,,,,,,0.916,,,,,,,,,,,,,,,,,,,,,,60fcf3eb42a66bd3c049121b,61036c19e0daa28e0a015a2f,2021-07-29_23h05.33.829,Simcolourproject_2stim_asymm_v5,2020.2.10,MacIntel,60,61025ae37ef11b136ea224fe,,,,,,,,,1962,-85,-32,1,0,0,response5disk,,2,-2,-2,1,0,0,rectangle,-2,-2,1,0,0,-2,-2,1,0,0,0,79,79,55,1,,,,,,,,
,,,,,,,,,,,,,FF,,,,,,,,1.1,,,,,,,,,,,,,,,,,,,,,,60fcf3eb42a66bd3c049121b,61036c19e0daa28e0a015a2f,2021-07-29_23h05.33.829,Simcolourproject_2stim_asymm_v5,2020.2.10,MacIntel,60,61025ae37ef11b136ea224fe,,,,,,,,,1870,26,63,1,0,0,response1disk,,7,13,12,1,0,0,rectangle,13,12,1,0,0,13,12,1,0,0,0,80,80,159,1,,,,,,,,
,,,,,,,,,,,,,FF,,,,,,,,1.15,,,,,,,,,,,,,,,,,,,,,,60fcf3eb42a66bd3c049121b,61036c19e0daa28e0a015a2f,2021-07-29_23h05.33.829,Simcolourproject_2stim_asymm_v5,2020.2.10,MacIntel,60,61025ae37ef11b136ea224fe,,,,,,,,,2884,69,35,1,0,0,response1disk,,6,9,4,1,0,0,rectangle,9,4,1,0,0,9,4,1,0,0,0,81,81,17,1,,,,,,,,
,,,,,,,,,,,,,FF,,,,,,,,0.566,,,,,,,,,,,,,,,,,,,,,,60fcf3eb42a66bd3c049121b,61036c19e0daa28e0a015a2f,2021-07-29_23h05.33.829,Simcolourproject_2stim_asymm_v5,2020.2.10,MacIntel,60,61025ae37ef11b136ea224fe,,,,,,,,,2854,32,85,1,0,0,response1disk,,7,17,9,1,0,0,rectangle,17,9,1,0,0,17,9,1,0,0,0,82,82,119,1,,,,,,,,
,,,,,,,,,,,,,FF,,,,,,,,1.013,,,,,,,,,,,,,,,,,,,,,,60fcf3eb42a66bd3c049121b,61036c19e0daa28e0a015a2f,2021-07-29_23h05.33.829,Simcolourproject_2stim_asymm_v5,2020.2.10,MacIntel,60,61025ae37ef11b136ea224fe,,,,,,,,,1065,20,-52,1,0,0,response3disk,,4,6,8,1,0,0,rectangle,6,8,1,0,0,6,8,1,0,0,0,83,83,138,1,,,,,,,,
,,,,,,,,,,,,,FF,,,,,,,,1.235,,,,,,,,,,,,,,,,,,,,,,60fcf3eb42a66bd3c049121b,61036c19e0daa28e0a015a2f,2021-07-29_23h05.33.829,Simcolourproject_2stim_asymm_v5,2020.2.10,MacIntel,60,61025ae37ef11b136ea224fe,,,,,,,,,4247,46,78,1,0,0,response1disk,,7,18,-1,1,0,0,rectangle,18,-1,1,0,0,18,-1,1,0,0,0,84,84,6,1,,,,,,,,
,,,,,,,,,,,,,FF,,,,,,,,0.583,,,,,,,,,,,,,,,,,,,,,,60fcf3eb42a66bd3c049121b,61036c19e0daa28e0a015a2f,2021-07-29_23h05.33.829,Simcolourproject_2stim_asymm_v5,2020.2.10,MacIntel,60,61025ae37ef11b136ea224fe,,,,,,,,,1083,31,68,1,0,0,response1disk,,7,18,0,1,0,0,rectangle,18,0,1,0,0,18,0,1,0,0,0,85,85,43,1,,,,,,,,
,,,,,,,,,,,,,FF,,,,,,,,1.149,,,,,,,,,,,,,,,,,,,,,,60fcf3eb42a66bd3c049121b,61036c19e0daa28e0a015a2f,2021-07-29_23h05.33.829,Simcolourproject_2stim_asymm_v5,2020.2.10,MacIntel,60,61025ae37ef11b136ea224fe,,,,,,,,,729,-84,-38,1,0,0,response5disk,,2,-20,4,1,0,0,rectangle,-20,4,1,0,0,-20,4,1,0,0,0,86,86,65,1,,,,,,,,
,,,,,,,,,,,,,FF,,,,,,,,0.67,,,,,,,,,,,,,,,,,,,,,,60fcf3eb42a66bd3c049121b,61036c19e0daa28e0a015a2f,2021-07-29_23h05.33.829,Simcolourproject_2stim_asymm_v5,2020.2.10,MacIntel,60,61025ae37ef11b136ea224fe,,,,,,,,,3574,50,104,1,0,0,response1disk,,7,1,3,1,0,0,rectangle,1,3,1,0,0,1,3,1,0,0,0,87,87,22,1,,,,,,,,
,,,,,,,,,,,,,FF,,,,,,,,0.6,,,,,,,,,,,,,,,,,,,,,,60fcf3eb42a66bd3c049121b,61036c19e0daa28e0a015a2f,2021-07-29_23h05.33.829,Simcolourproject_2stim_asymm_v5,2020.2.10,MacIntel,60,61025ae37ef11b136ea224fe,,,,,,,,,4154,37,56,1,0,0,response1disk,,7,19,14,1,0,0,rectangle,19,14,1,0,0,19,14,1,0,0,0,88,88,14,1,,,,,,,,
,,,,,,,,,,,,,FF,,,,,,,,1.086,,,,,,,,,,,,,,,,,,,,,,60fcf3eb42a66bd3c049121b,61036c19e0daa28e0a015a2f,2021-07-29_23h05.33.829,Simcolourproject_2stim_asymm_v5,2020.2.10,MacIntel,60,61025ae37ef11b136ea224fe,,,,,,,,,3007,-81,-27,1,0,0,response5disk,,2,-22,6,1,0,0,rectangle,-22,6,1,0,0,-22,6,1,0,0,0,89,89,97,1,,,,,,,,
,,,,,,,,,,,,,FF,,,,,,,,0.567,,,,,,,,,,,,,,,,,,,,,,60fcf3eb42a66bd3c049121b,61036c19e0daa28e0a015a2f,2021-07-29_23h05.33.829,Simcolourproject_2stim_asymm_v5,2020.2.10,MacIntel,60,61025ae37ef11b136ea224fe,,,,,,,,,1506,18,88,1,0,0,response1disk,,7,-13,2,1,0,0,rectangle,-13,2,1,0,0,-13,2,1,0,0,0,90,90,129,1,,,,,,,,
,,,,,,,,,,,,,FF,,,,,,,,0.784,,,,,,,,,,,,,,,,,,,,,,60fcf3eb42a66bd3c049121b,61036c19e0daa28e0a015a2f,2021-07-29_23h05.33.829,Simcolourproject_2stim_asymm_v5,2020.2.10,MacIntel,60,61025ae37ef11b136ea224fe,,,,,,,,,1939,38,64,1,0,0,response1disk,,7,18,-2,1,0,0,rectangle,18,-2,1,0,0,18,-2,1,0,0,0,91,91,101,1,,,,,,,,
,,,,,,,,,,,,,FF,,,,,,,,1.233,,,,,,,,,,,,,,,,,,,,,,60fcf3eb42a66bd3c049121b,61036c19e0daa28e0a015a2f,2021-07-29_23h05.33.829,Simcolourproject_2stim_asymm_v5,2020.2.10,MacIntel,60,61025ae37ef11b136ea224fe,,,,,,,,,4170,-33,-60,1,0,0,response5disk,,3,-10,-9,1,0,0,rectangle,-10,-9,1,0,0,-10,-9,1,0,0,0,92,92,152,1,,,,,,,,
,,,,,,,,,,,,,FF,,,,,,,,0.849,,,,,,,,,,,,,,,,,,,,,,60fcf3eb42a66bd3c049121b,61036c19e0daa28e0a015a2f,2021-07-29_23h05.33.829,Simcolourproject_2stim_asymm_v5,2020.2.10,MacIntel,60,61025ae37ef11b136ea224fe,,,,,,,,,3973,-67,-41,1,0,0,response5disk,,2,-21,-5,1,0,0,rectangle,-40,-79,1,0,0,1,-3,1,0,0,0,93,93,16,1,,response5disk_3,TRUE,3,3,"[3,136,316,53,76,94,125,130,73,136,251,152,220,127,72,181,275,67,314,155]",1.835,rectangle
,,,,,,,,,,,,,FF,,,,,,,,0.85,,,,,,,,,,,,,,,,,,,,,,60fcf3eb42a66bd3c049121b,61036c19e0daa28e0a015a2f,2021-07-29_23h05.33.829,Simcolourproject_2stim_asymm_v5,2020.2.10,MacIntel,60,61025ae37ef11b136ea224fe,,,,,,,,,1496,34,52,1,0,0,response1disk,,7,12,-10,1,0,0,rectangle,12,-10,1,0,0,12,-10,1,0,0,0,94,94,112,1,,,,,,,,
,,,,,,,,,,,,,FF,,,,,,,,0.901,,,,,,,,,,,,,,,,,,,,,,60fcf3eb42a66bd3c049121b,61036c19e0daa28e0a015a2f,2021-07-29_23h05.33.829,Simcolourproject_2stim_asymm_v5,2020.2.10,MacIntel,60,61025ae37ef11b136ea224fe,,,,,,,,,1590,52,41,1,0,0,response1disk,,6,12,0,1,0,0,rectangle,12,0,1,0,0,12,0,1,0,0,0,95,95,133,1,,,,,,,,
,,,,,,,,,,,,,FF,,,,,,,,1.938,,,,,,,,,,,,,,,,,,,,,,60fcf3eb42a66bd3c049121b,61036c19e0daa28e0a015a2f,2021-07-29_23h05.33.829,Simcolourproject_2stim_asymm_v5,2020.2.10,MacIntel,60,61025ae37ef11b136ea224fe,,,,,,,,,523,83,-41,1,0,0,response3disk,,5,0,-14,1,0,0,rectangle,0,-14,1,0,0,0,-14,1,0,0,0,96,96,37,1,,,,,,,,
,,,,,,,,,,,,,FF,,,,,,,,1.668,,,,,,,,,,,,,,,,,,,,,,60fcf3eb42a66bd3c049121b,61036c19e0daa28e0a015a2f,2021-07-29_23h05.33.829,Simcolourproject_2stim_asymm_v5,2020.2.10,MacIntel,60,61025ae37ef11b136ea224fe,,,,,,,,,1888,-38,-69,1,0,0,response5disk,,3,-8,-7,1,0,0,rectangle,-8,-7,1,0,0,-8,-7,1,0,0,0,97,97,9,1,,,,,,,,
,,,,,,,,,,,,,FF,,,,,,,,1.568,,,,,,,,,,,,,,,,,,,,,,60fcf3eb42a66bd3c049121b,61036c19e0daa28e0a015a2f,2021-07-29_23h05.33.829,Simcolourproject_2stim_asymm_v5,2020.2.10,MacIntel,60,61025ae37ef11b136ea224fe,,,,,,,,,3888,41,70,1,0,0,response1disk,,7,24,-1,1,0,0,rectangle,24,-1,1,0,0,24,-1,1,0,0,0,98,98,135,1,,,,,,,,
,,,,,,,,,,,,,FF,,,,,,,,0.811,,,,,,,,,,,,,,,,,,,,,,60fcf3eb42a66bd3c049121b,61036c19e0daa28e0a015a2f,2021-07-29_23h05.33.829,Simcolourproject_2stim_asymm_v5,2020.2.10,MacIntel,60,61025ae37ef11b136ea224fe,,,,,,,,,1265,-50,20,1,0,0,response7disk,,1,0,-18,1,0,0,rectangle,0,-18,1,0,0,0,-18,1,0,0,0,99,99,151,1,,,,,,,,
,,,,,,,,,,,,,FF,,,,,,,,1.202,,,,,,,,,,,,,,,,,,,,,,60fcf3eb42a66bd3c049121b,61036c19e0daa28e0a015a2f,2021-07-29_23h05.33.829,Simcolourproject_2stim_asymm_v5,2020.2.10,MacIntel,60,61025ae37ef11b136ea224fe,,,,,,,,,3044,69,31,1,0,0,response1disk,,6,19,4,1,0,0,rectangle,19,4,1,0,0,19,4,1,0,0,0,100,100,10,1,,,,,,,,
,,,,,,,,,,,,,FF,,,,,,,,1.417,,,,,,,,,,,,,,,,,,,,,,60fcf3eb42a66bd3c049121b,61036c19e0daa28e0a015a2f,2021-07-29_23h05.33.829,Simcolourproject_2stim_asymm_v5,2020.2.10,MacIntel,60,61025ae37ef11b136ea224fe,,,,,,,,,2260,77,36,1,0,0,response1disk,,6,16,-3,1,0,0,rectangle,16,-3,1,0,0,16,-3,1,0,0,0,101,101,123,1,,,,,,,,
,,,,,,,,,,,,,FF,,,,,,,,1.337,,,,,,,,,,,,,,,,,,,,,,60fcf3eb42a66bd3c049121b,61036c19e0daa28e0a015a2f,2021-07-29_23h05.33.829,Simcolourproject_2stim_asymm_v5,2020.2.10,MacIntel,60,61025ae37ef11b136ea224fe,,,,,,,,,1680,-65,24,1,0,0,response7disk,,1,14,-6,1,0,0,rectangle,14,-6,1,0,0,14,-6,1,0,0,0,102,102,51,1,,,,,,,,
,,,,,,,,,,,,,FF,,,,,,,,0.596,,,,,,,,,,,,,,,,,,,,,,60fcf3eb42a66bd3c049121b,61036c19e0daa28e0a015a2f,2021-07-29_23h05.33.829,Simcolourproject_2stim_asymm_v5,2020.2.10,MacIntel,60,61025ae37ef11b136ea224fe,,,,,,,,,3178,28,54,1,0,0,response1disk,,7,17,-12,1,0,0,rectangle,17,-12,1,0,0,17,-12,1,0,0,0,103,103,41,1,,,,,,,,
,,,,,,,,,,,,,FF,,,,,,,,0.736,,,,,,,,,,,,,,,,,,,,,,60fcf3eb42a66bd3c049121b,61036c19e0daa28e0a015a2f,2021-07-29_23h05.33.829,Simcolourproject_2stim_asymm_v5,2020.2.10,MacIntel,60,61025ae37ef11b136ea224fe,,,,,,,,,3445,26,52,1,0,0,response1disk,,7,17,9,1,0,0,rectangle,17,9,1,0,0,17,9,1,0,0,0,104,104,127,1,,,,,,,,
,,,,,,,,,,,,,FF,,,,,,,,1.667,,,,,,,,,,,,,,,,,,,,,,60fcf3eb42a66bd3c049121b,61036c19e0daa28e0a015a2f,2021-07-29_23h05.33.829,Simcolourproject_2stim_asymm_v5,2020.2.10,MacIntel,60,61025ae37ef11b136ea224fe,,,,,,,,,761,63,-38,1,0,0,response3disk,,5,22,-11,1,0,0,rectangle,22,-11,1,0,0,22,-11,1,0,0,0,105,105,88,1,,,,,,,,
,,,,,,,,,,,,,FF,,,,,,,,1.284,,,,,,,,,,,,,,,,,,,,,,60fcf3eb42a66bd3c049121b,61036c19e0daa28e0a015a2f,2021-07-29_23h05.33.829,Simcolourproject_2stim_asymm_v5,2020.2.10,MacIntel,60,61025ae37ef11b136ea224fe,,,,,,,,,4159,34,-77,1,0,0,response3disk,,4,15,-11,1,0,0,rectangle,15,-11,1,0,0,15,-11,1,0,0,0,106,106,76,1,,,,,,,,
,,,,,,,,,,,,,FF,,,,,,,,1.187,,,,,,,,,,,,,,,,,,,,,,60fcf3eb42a66bd3c049121b,61036c19e0daa28e0a015a2f,2021-07-29_23h05.33.829,Simcolourproject_2stim_asymm_v5,2020.2.10,MacIntel,60,61025ae37ef11b136ea224fe,,,,,,,,,940,33,63,1,0,0,response1disk,,7,20,7,1,0,0,rectangle,20,7,1,0,0,20,7,1,0,0,0,107,107,143,1,,,,,,,,
,,,,,,,,,,,,,FF,,,,,,,,0.908,,,,,,,,,,,,,,,,,,,,,,60fcf3eb42a66bd3c049121b,61036c19e0daa28e0a015a2f,2021-07-29_23h05.33.829,Simcolourproject_2stim_asymm_v5,2020.2.10,MacIntel,60,61025ae37ef11b136ea224fe,,,,,,,,,538,46,68,1,0,0,response1disk,,7,11,3,1,0,0,rectangle,11,3,1,0,0,11,3,1,0,0,0,108,108,142,1,,,,,,,,
,,,,,,,,,,,,,FF,,,,,,,,0.792,,,,,,,,,,,,,,,,,,,,,,60fcf3eb42a66bd3c049121b,61036c19e0daa28e0a015a2f,2021-07-29_23h05.33.829,Simcolourproject_2stim_asymm_v5,2020.2.10,MacIntel,60,61025ae37ef11b136ea224fe,,,,,,,,,316,26,70,1,0,0,response1disk,,7,14,6,1,0,0,rectangle,14,6,1,0,0,14,6,1,0,0,0,109,109,118,1,,,,,,,,
,,,,,,,,,,,,,FF,,,,,,,,0.687,,,,,,,,,,,,,,,,,,,,,,60fcf3eb42a66bd3c049121b,61036c19e0daa28e0a015a2f,2021-07-29_23h05.33.829,Simcolourproject_2stim_asymm_v5,2020.2.10,MacIntel,60,61025ae37ef11b136ea224fe,,,,,,,,,231,43,84,1,0,0,response1disk,,7,16,6,1,0,0,rectangle,16,6,1,0,0,16,6,1,0,0,0,110,110,132,1,,,,,,,,
,,,,,,,,,,,,,FF,,,,,,,,1.409,,,,,,,,,,,,,,,,,,,,,,60fcf3eb42a66bd3c049121b,61036c19e0daa28e0a015a2f,2021-07-29_23h05.33.829,Simcolourproject_2stim_asymm_v5,2020.2.10,MacIntel,60,61025ae37ef11b136ea224fe,,,,,,,,,3423,51,-78,1,0,0,response3disk,,4,7,0,1,0,0,rectangle,7,0,1,0,0,7,0,1,0,0,0,111,111,102,1,,,,,,,,
,,,,,,,,,,,,,FF,,,,,,,,0.823,,,,,,,,,,,,,,,,,,,,,,60fcf3eb42a66bd3c049121b,61036c19e0daa28e0a015a2f,2021-07-29_23h05.33.829,Simcolourproject_2stim_asymm_v5,2020.2.10,MacIntel,60,61025ae37ef11b136ea224fe,,,,,,,,,3494,27,75,1,0,0,response1disk,,7,16,8,1,0,0,rectangle,16,8,1,0,0,16,8,1,0,0,0,112,112,26,1,,,,,,,,
,,,,,,,,,,,,,FF,,,,,,,,0.652,,,,,,,,,,,,,,,,,,,,,,60fcf3eb42a66bd3c049121b,61036c19e0daa28e0a015a2f,2021-07-29_23h05.33.829,Simcolourproject_2stim_asymm_v5,2020.2.10,MacIntel,60,61025ae37ef11b136ea224fe,,,,,,,,,3826,34,69,1,0,0,response1disk,,7,5,-4,1,0,0,rectangle,5,-4,1,0,0,5,-4,1,0,0,0,113,113,48,1,,,,,,,,
,,,,,,,,,,,,,FF,,,,,,,,1.652,,,,,,,,,,,,,,,,,,,,,,60fcf3eb42a66bd3c049121b,61036c19e0daa28e0a015a2f,2021-07-29_23h05.33.829,Simcolourproject_2stim_asymm_v5,2020.2.10,MacIntel,60,61025ae37ef11b136ea224fe,,,,,,,,,470,81,45,1,0,0,response1disk,,6,13,2,1,0,0,rectangle,13,2,1,0,0,13,2,1,0,0,0,114,114,5,1,,,,,,,,
,,,,,,,,,,,,,FF,,,,,,,,0.789,,,,,,,,,,,,,,,,,,,,,,60fcf3eb42a66bd3c049121b,61036c19e0daa28e0a015a2f,2021-07-29_23h05.33.829,Simcolourproject_2stim_asymm_v5,2020.2.10,MacIntel,60,61025ae37ef11b136ea224fe,,,,,,,,,819,50,33,1,0,0,response1disk,,6,20,12,1,0,0,rectangle,20,12,1,0,0,20,12,1,0,0,0,115,115,85,1,,,,,,,,
,,,,,,,,,,,,,FF,,,,,,,,0.683,,,,,,,,,,,,,,,,,,,,,,60fcf3eb42a66bd3c049121b,61036c19e0daa28e0a015a2f,2021-07-29_23h05.33.829,Simcolourproject_2stim_asymm_v5,2020.2.10,MacIntel,60,61025ae37ef11b136ea224fe,,,,,,,,,2404,34,56,1,0,0,response1disk,,7,19,8,1,0,0,rectangle,19,8,1,0,0,19,8,1,0,0,0,116,116,134,1,,,,,,,,
,,,,,,,,,,,,,FF,,,,,,,,0.534,,,,,,,,,,,,,,,,,,,,,,60fcf3eb42a66bd3c049121b,61036c19e0daa28e0a015a2f,2021-07-29_23h05.33.829,Simcolourproject_2stim_asymm_v5,2020.2.10,MacIntel,60,61025ae37ef11b136ea224fe,,,,,,,,,245,23,50,1,0,0,response1disk,,7,2,-7,1,0,0,rectangle,2,-7,1,0,0,2,-7,1,0,0,0,117,117,46,1,,,,,,,,
,,,,,,,,,,,,,FF,,,,,,,,1.104,,,,,,,,,,,,,,,,,,,,,,60fcf3eb42a66bd3c049121b,61036c19e0daa28e0a015a2f,2021-07-29_23h05.33.829,Simcolourproject_2stim_asymm_v5,2020.2.10,MacIntel,60,61025ae37ef11b136ea224fe,,,,,,,,,1306,-25,-89,1,0,0,response5disk,,3,-11,2,1,0,0,rectangle,-11,2,1,0,0,-11,2,1,0,0,0,118,118,82,1,,,,,,,,
,,,,,,,,,,,,,FF,,,,,,,,1.085,,,,,,,,,,,,,,,,,,,,,,60fcf3eb42a66bd3c049121b,61036c19e0daa28e0a015a2f,2021-07-29_23h05.33.829,Simcolourproject_2stim_asymm_v5,2020.2.10,MacIntel,60,61025ae37ef11b136ea224fe,,,,,,,,,1210,28,52,1,0,0,response1disk,,7,9,-5,1,0,0,rectangle,9,-5,1,0,0,9,-5,1,0,0,0,119,119,20,1,,,,,,,,
,,,,,,,,,,,,,FF,,,,,,,,0.671,,,,,,,,,,,,,,,,,,,,,,60fcf3eb42a66bd3c049121b,61036c19e0daa28e0a015a2f,2021-07-29_23h05.33.829,Simcolourproject_2stim_asymm_v5,2020.2.10,MacIntel,60,61025ae37ef11b136ea224fe,,,,,,,,,41,26,62,1,0,0,response1disk,,7,15,-7,1,0,0,rectangle,15,-7,1,0,0,15,-7,1,0,0,0,120,120,42,1,,,,,,,,
,,,,,,,,,,,,,FF,,,,,,,,0.702,,,,,,,,,,,,,,,,,,,,,,60fcf3eb42a66bd3c049121b,61036c19e0daa28e0a015a2f,2021-07-29_23h05.33.829,Simcolourproject_2stim_asymm_v5,2020.2.10,MacIntel,60,61025ae37ef11b136ea224fe,,,,,,,,,2027,-53,25,1,0,0,response7disk,,1,-6,9,1,0,0,rectangle,-6,9,1,0,0,-6,9,1,0,0,0,121,121,130,1,,,,,,,,
,,,,,,,,,,,,,FF,,,,,,,,0.862,,,,,,,,,,,,,,,,,,,,,,60fcf3eb42a66bd3c049121b,61036c19e0daa28e0a015a2f,2021-07-29_23h05.33.829,Simcolourproject_2stim_asymm_v5,2020.2.10,MacIntel,60,61025ae37ef11b136ea224fe,,,,,,,,,551,-49,28,1,0,0,response7disk,,1,-11,2,1,0,0,rectangle,-11,2,1,0,0,-11,2,1,0,0,0,122,122,27,1,,,,,,,,
,,,,,,,,,,,,,FF,,,,,,,,0.685,,,,,,,,,,,,,,,,,,,,,,60fcf3eb42a66bd3c049121b,61036c19e0daa28e0a015a2f,2021-07-29_23h05.33.829,Simcolourproject_2stim_asymm_v5,2020.2.10,MacIntel,60,61025ae37ef11b136ea224fe,,,,,,,,,3345,21,60,1,0,0,response1disk,,7,16,6,1,0,0,rectangle,16,6,1,0,0,16,6,1,0,0,0,123,123,125,1,,,,,,,,
,,,,,,,,,,,,,FF,,,,,,,,0.556,,,,,,,,,,,,,,,,,,,,,,60fcf3eb42a66bd3c049121b,61036c19e0daa28e0a015a2f,2021-07-29_23h05.33.829,Simcolourproject_2stim_asymm_v5,2020.2.10,MacIntel,60,61025ae37ef11b136ea224fe,,,,,,,,,1711,41,78,1,0,0,response1disk,,7,19,16,1,0,0,rectangle,91,53,1,0,0,22,5,1,0,0,0,124,124,35,1,,response1disk_3,TRUE,6,6,"[3,136,316,53,76,94,125,130,73,136,251,152,220,127,72,181,275,67,314,155]",1.67,rectangle
,,,,,,,,,,,,,FF,,,,,,,,0.837,,,,,,,,,,,,,,,,,,,,,,60fcf3eb42a66bd3c049121b,61036c19e0daa28e0a015a2f,2021-07-29_23h05.33.829,Simcolourproject_2stim_asymm_v5,2020.2.10,MacIntel,60,61025ae37ef11b136ea224fe,,,,,,,,,1336,38,60,1,0,0,response1disk,,7,22,13,1,0,0,rectangle,22,13,1,0,0,22,13,1,0,0,0,125,125,1,1,,,,,,,,
,,,,,,,,,,,,,FF,,,,,,,,1.1,,,,,,,,,,,,,,,,,,,,,,60fcf3eb42a66bd3c049121b,61036c19e0daa28e0a015a2f,2021-07-29_23h05.33.829,Simcolourproject_2stim_asymm_v5,2020.2.10,MacIntel,60,61025ae37ef11b136ea224fe,,,,,,,,,2536,-92,-27,1,0,0,response5disk,,2,-28,0,1,0,0,rectangle,35,79,1,0,0,10,15,1,0,0,0,126,126,106,1,,response1disk_3,TRUE,7,7,"[3,136,316,53,76,94,125,130,73,136,251,152,220,127,72,181,275,67,314,155]",1.82,rectangle
,,,,,,,,,,,,,FF,,,,,,,,1.44,,,,,,,,,,,,,,,,,,,,,,60fcf3eb42a66bd3c049121b,61036c19e0daa28e0a015a2f,2021-07-29_23h05.33.829,Simcolourproject_2stim_asymm_v5,2020.2.10,MacIntel,60,61025ae37ef11b136ea224fe,,,,,,,,,2731,52,-19,1,0,0,response3disk,,5,-21,0,1,0,0,rectangle,-21,0,1,0,0,-21,0,1,0,0,0,127,127,39,1,,,,,,,,
,,,,,,,,,,,,,FF,,,,,,,,0.717,,,,,,,,,,,,,,,,,,,,,,60fcf3eb42a66bd3c049121b,61036c19e0daa28e0a015a2f,2021-07-29_23h05.33.829,Simcolourproject_2stim_asymm_v5,2020.2.10,MacIntel,60,61025ae37ef11b136ea224fe,,,,,,,,,4055,26,51,1,0,0,response1disk,,7,10,-4,1,0,0,rectangle,10,-4,1,0,0,10,-4,1,0,0,0,128,128,156,1,,,,,,,,
,,,,,,,,,,,,,FF,,,,,,,,1.236,,,,,,,,,,,,,,,,,,,,,,60fcf3eb42a66bd3c049121b,61036c19e0daa28e0a015a2f,2021-07-29_23h05.33.829,Simcolourproject_2stim_asymm_v5,2020.2.10,MacIntel,60,61025ae37ef11b136ea224fe,,,,,,,,,557,67,31,1,0,0,response1disk,,6,19,-1,1,0,0,rectangle,42,77,1,0,0,14,-5,1,0,0,0,129,129,95,1,,response1disk_3,TRUE,7,7,"[3,136,316,53,76,94,125,130,73,136,251,152,220,127,72,181,275,67,314,155]",1.646,rectangle
,,,,,,,,,,,,,FF,,,,,,,,0.705,,,,,,,,,,,,,,,,,,,,,,60fcf3eb42a66bd3c049121b,61036c19e0daa28e0a015a2f,2021-07-29_23h05.33.829,Simcolourproject_2stim_asymm_v5,2020.2.10,MacIntel,60,61025ae37ef11b136ea224fe,,,,,,,,,425,37,56,1,0,0,response1disk,,7,27,4,1,0,0,rectangle,27,4,1,0,0,27,4,1,0,0,0,130,130,93,1,,,,,,,,
,,,,,,,,,,,,,FF,,,,,,,,1.087,,,,,,,,,,,,,,,,,,,,,,60fcf3eb42a66bd3c049121b,61036c19e0daa28e0a015a2f,2021-07-29_23h05.33.829,Simcolourproject_2stim_asymm_v5,2020.2.10,MacIntel,60,61025ae37ef11b136ea224fe,,,,,,,,,4229,30,65,1,0,0,response1disk,,7,17,14,1,0,0,rectangle,17,14,1,0,0,17,14,1,0,0,0,131,131,146,1,,,,,,,,
,,,,,,,,,,,,,FF,,,,,,,,0.97,,,,,,,,,,,,,,,,,,,,,,60fcf3eb42a66bd3c049121b,61036c19e0daa28e0a015a2f,2021-07-29_23h05.33.829,Simcolourproject_2stim_asymm_v5,2020.2.10,MacIntel,60,61025ae37ef11b136ea224fe,,,,,,,,,2803,66,39,1,0,0,response1disk,,6,-12,-12,1,0,0,rectangle,-12,-12,1,0,0,-12,-12,1,0,0,0,132,132,23,1,,,,,,,,
,,,,,,,,,,,,,FF,,,,,,,,0.883,,,,,,,,,,,,,,,,,,,,,,60fcf3eb42a66bd3c049121b,61036c19e0daa28e0a015a2f,2021-07-29_23h05.33.829,Simcolourproject_2stim_asymm_v5,2020.2.10,MacIntel,60,61025ae37ef11b136ea224fe,,,,,,,,,2099,-77,27,1,0,0,response7disk,,1,14,5,1,0,0,rectangle,14,5,1,0,0,14,5,1,0,0,0,133,133,80,1,,,,,,,,
,,,,,,,,,,,,,FF,,,,,,,,0.724,,,,,,,,,,,,,,,,,,,,,,60fcf3eb42a66bd3c049121b,61036c19e0daa28e0a015a2f,2021-07-29_23h05.33.829,Simcolourproject_2stim_asymm_v5,2020.2.10,MacIntel,60,61025ae37ef11b136ea224fe,,,,,,,,,573,31,77,1,0,0,response1disk,,7,8,4,1,0,0,rectangle,8,4,1,0,0,8,4,1,0,0,0,134,134,140,1,,,,,,,,
,,,,,,,,,,,,,FF,,,,,,,,0.724,,,,,,,,,,,,,,,,,,,,,,60fcf3eb42a66bd3c049121b,61036c19e0daa28e0a015a2f,2021-07-29_23h05.33.829,Simcolourproject_2stim_asymm_v5,2020.2.10,MacIntel,60,61025ae37ef11b136ea224fe,,,,,,,,,2059,32,67,1,0,0,response1disk,,7,22,4,1,0,0,rectangle,-80,32,1,0,0,-5,11,1,0,0,0,135,135,144,1,,response7disk_3,TRUE,1,1,"[3,136,316,53,76,94,125,130,73,136,251,152,220,127,72,181,275,67,314,155]",1.94,rectangle
,,,,,,,,,,,,,FF,,,,,,,,2.609,,,,,,,,,,,,,,,,,,,,,,60fcf3eb42a66bd3c049121b,61036c19e0daa28e0a015a2f,2021-07-29_23h05.33.829,Simcolourproject_2stim_asymm_v5,2020.2.10,MacIntel,60,61025ae37ef11b136ea224fe,,,,,,,,,3856,71,43,1,0,0,response1disk,,6,3,5,1,0,0,rectangle,3,5,1,0,0,3,5,1,0,0,0,136,136,63,1,,,,,,,,
,,,,,,,,,,,,,FF,,,,,,,,1.102,,,,,,,,,,,,,,,,,,,,,,60fcf3eb42a66bd3c049121b,61036c19e0daa28e0a015a2f,2021-07-29_23h05.33.829,Simcolourproject_2stim_asymm_v5,2020.2.10,MacIntel,60,61025ae37ef11b136ea224fe,,,,,,,,,7,-74,-45,1,0,0,response5disk,,2,-13,-8,1,0,0,rectangle,-13,-8,1,0,0,-13,-8,1,0,0,0,137,137,79,1,,,,,,,,
,,,,,,,,,,,,,FF,,,,,,,,1.382,,,,,,,,,,,,,,,,,,,,,,60fcf3eb42a66bd3c049121b,61036c19e0daa28e0a015a2f,2021-07-29_23h05.33.829,Simcolourproject_2stim_asymm_v5,2020.2.10,MacIntel,60,61025ae37ef11b136ea224fe,,,,,,,,,2247,76,28,1,0,0,response1disk,,6,-3,1,1,0,0,rectangle,-3,1,1,0,0,-3,1,1,0,0,0,138,138,36,1,,,,,,,,
,,,,,,,,,,,,,FF,,,,,,,,0.963,,,,,,,,,,,,,,,,,,,,,,60fcf3eb42a66bd3c049121b,61036c19e0daa28e0a015a2f,2021-07-29_23h05.33.829,Simcolourproject_2stim_asymm_v5,2020.2.10,MacIntel,60,61025ae37ef11b136ea224fe,,,,,,,,,3045,-31,56,1,0,0,response7disk,,0,-9,-10,1,0,0,rectangle,-9,-10,1,0,0,-9,-10,1,0,0,0,139,139,57,1,,,,,,,,
,,,,,,,,,,,,,FF,,,,,,,,1.08,,,,,,,,,,,,,,,,,,,,,,60fcf3eb42a66bd3c049121b,61036c19e0daa28e0a015a2f,2021-07-29_23h05.33.829,Simcolourproject_2stim_asymm_v5,2020.2.10,MacIntel,60,61025ae37ef11b136ea224fe,,,,,,,,,799,95,50,1,0,0,response1disk,,6,10,0,1,0,0,rectangle,10,0,1,0,0,10,0,1,0,0,0,140,140,99,1,,,,,,,,
,,,,,,,,,,,,,FF,,,,,,,,1.884,,,,,,,,,,,,,,,,,,,,,,60fcf3eb42a66bd3c049121b,61036c19e0daa28e0a015a2f,2021-07-29_23h05.33.829,Simcolourproject_2stim_asymm_v5,2020.2.10,MacIntel,60,61025ae37ef11b136ea224fe,,,,,,,,,1860,37,96,1,0,0,response1disk,,7,11,-4,1,0,0,rectangle,11,-4,1,0,0,11,-4,1,0,0,0,141,141,21,1,,,,,,,,
,,,,,,,,,,,,,FF,,,,,,,,0.743,,,,,,,,,,,,,,,,,,,,,,60fcf3eb42a66bd3c049121b,61036c19e0daa28e0a015a2f,2021-07-29_23h05.33.829,Simcolourproject_2stim_asymm_v5,2020.2.10,MacIntel,60,61025ae37ef11b136ea224fe,,,,,,,,,24,41,52,1,0,0,response1disk,,7,23,1,1,0,0,rectangle,23,1,1,0,0,23,1,1,0,0,0,142,142,61,1,,,,,,,,
,,,,,,,,,,,,,FF,,,,,,,,0.637,,,,,,,,,,,,,,,,,,,,,,60fcf3eb42a66bd3c049121b,61036c19e0daa28e0a015a2f,2021-07-29_23h05.33.829,Simcolourproject_2stim_asymm_v5,2020.2.10,MacIntel,60,61025ae37ef11b136ea224fe,,,,,,,,,54,35,80,1,0,0,response1disk,,7,8,1,1,0,0,rectangle,8,1,1,0,0,8,1,1,0,0,0,143,143,67,1,,,,,,,,
,,,,,,,,,,,,,FF,,,,,,,,1.205,,,,,,,,,,,,,,,,,,,,,,60fcf3eb42a66bd3c049121b,61036c19e0daa28e0a015a2f,2021-07-29_23h05.33.829,Simcolourproject_2stim_asymm_v5,2020.2.10,MacIntel,60,61025ae37ef11b136ea224fe,,,,,,,,,3203,-77,31,1,0,0,response7disk,,1,-16,5,1,0,0,rectangle,-16,5,1,0,0,-16,5,1,0,0,0,144,144,56,1,,,,,,,,
,,,,,,,,,,,,,FF,,,,,,,,1.063,,,,,,,,,,,,,,,,,,,,,,60fcf3eb42a66bd3c049121b,61036c19e0daa28e0a015a2f,2021-07-29_23h05.33.829,Simcolourproject_2stim_asymm_v5,2020.2.10,MacIntel,60,61025ae37ef11b136ea224fe,,,,,,,,,1139,-93,-38,1,0,0,response5disk,,2,-20,-1,1,0,0,rectangle,-20,-1,1,0,0,-20,-1,1,0,0,0,145,145,103,1,,,,,,,,
,,,,,,,,,,,,,FF,,,,,,,,1.039,,,,,,,,,,,,,,,,,,,,,,60fcf3eb42a66bd3c049121b,61036c19e0daa28e0a015a2f,2021-07-29_23h05.33.829,Simcolourproject_2stim_asymm_v5,2020.2.10,MacIntel,60,61025ae37ef11b136ea224fe,,,,,,,,,1060,66,-35,1,0,0,response3disk,,5,10,4,1,0,0,rectangle,10,4,1,0,0,10,4,1,0,0,0,146,146,150,1,,,,,,,,
,,,,,,,,,,,,,FF,,,,,,,,0.999,,,,,,,,,,,,,,,,,,,,,,60fcf3eb42a66bd3c049121b,61036c19e0daa28e0a015a2f,2021-07-29_23h05.33.829,Simcolourproject_2stim_asymm_v5,2020.2.10,MacIntel,60,61025ae37ef11b136ea224fe,,,,,,,,,2966,46,68,1,0,0,response1disk,,7,13,3,1,0,0,rectangle,13,3,1,0,0,13,3,1,0,0,0,147,147,107,1,,,,,,,,
,,,,,,,,,,,,,FF,,,,,,,,1.219,,,,,,,,,,,,,,,,,,,,,,60fcf3eb42a66bd3c049121b,61036c19e0daa28e0a015a2f,2021-07-29_23h05.33.829,Simcolourproject_2stim_asymm_v5,2020.2.10,MacIntel,60,61025ae37ef11b136ea224fe,,,,,,,,,2306,-46,-92,1,0,0,response5disk,,3,-25,0,1,0,0,rectangle,-25,0,1,0,0,-25,0,1,0,0,0,148,148,94,1,,,,,,,,
,,,,,,,,,,,,,FF,,,,,,,,1.151,,,,,,,,,,,,,,,,,,,,,,60fcf3eb42a66bd3c049121b,61036c19e0daa28e0a015a2f,2021-07-29_23h05.33.829,Simcolourproject_2stim_asymm_v5,2020.2.10,MacIntel,60,61025ae37ef11b136ea224fe,,,,,,,,,4180,48,79,1,0,0,response1disk,,7,-3,-18,1,0,0,rectangle,-3,-18,1,0,0,-3,-18,1,0,0,0,149,149,139,1,,,,,,,,
,,,,,,,,,,,,,FF,,,,,,,,0.633,,,,,,,,,,,,,,,,,,,,,,60fcf3eb42a66bd3c049121b,61036c19e0daa28e0a015a2f,2021-07-29_23h05.33.829,Simcolourproject_2stim_asymm_v5,2020.2.10,MacIntel,60,61025ae37ef11b136ea224fe,,,,,,,,,941,34,52,1,0,0,response1disk,,7,16,-6,1,0,0,rectangle,16,-6,1,0,0,16,-6,1,0,0,0,150,150,158,1,,,,,,,,
,,,,,,,,,,,,,FF,,,,,,,,0.819,,,,,,,,,,,,,,,,,,,,,,60fcf3eb42a66bd3c049121b,61036c19e0daa28e0a015a2f,2021-07-29_23h05.33.829,Simcolourproject_2stim_asymm_v5,2020.2.10,MacIntel,60,61025ae37ef11b136ea224fe,,,,,,,,,2995,-70,34,1,0,0,response7disk,,1,17,-17,1,0,0,rectangle,-49,-68,1,0,0,-19,4,1,0,0,0,151,151,18,1,,response5disk_3,TRUE,3,3,"[3,136,316,53,76,94,125,130,73,136,251,152,220,127,72,181,275,67,314,155]",1.852,rectangle
,,,,,,,,,,,,,FF,,,,,,,,1.186,,,,,,,,,,,,,,,,,,,,,,60fcf3eb42a66bd3c049121b,61036c19e0daa28e0a015a2f,2021-07-29_23h05.33.829,Simcolourproject_2stim_asymm_v5,2020.2.10,MacIntel,60,61025ae37ef11b136ea224fe,,,,,,,,,3329,-87,37,1,0,0,response7disk,,1,-26,4,1,0,0,rectangle,-26,4,1,0,0,-26,4,1,0,0,0,152,152,52,1,,,,,,,,
,,,,,,,,,,,,,FF,,,,,,,,0.572,,,,,,,,,,,,,,,,,,,,,,60fcf3eb42a66bd3c049121b,61036c19e0daa28e0a015a2f,2021-07-29_23h05.33.829,Simcolourproject_2stim_asymm_v5,2020.2.10,MacIntel,60,61025ae37ef11b136ea224fe,,,,,,,,,4019,59,97,1,0,0,response1disk,,7,-2,-8,1,0,0,rectangle,-2,-8,1,0,0,-2,-8,1,0,0,0,153,153,70,1,,,,,,,,
,,,,,,,,,,,,,FF,,,,,,,,0.691,,,,,,,,,,,,,,,,,,,,,,60fcf3eb42a66bd3c049121b,61036c19e0daa28e0a015a2f,2021-07-29_23h05.33.829,Simcolourproject_2stim_asymm_v5,2020.2.10,MacIntel,60,61025ae37ef11b136ea224fe,,,,,,,,,2199,65,95,1,0,0,response1disk,,7,18,5,1,0,0,rectangle,-69,29,1,0,0,-15,15,1,0,0,0,154,154,155,1,,response7disk_3,TRUE,1,1,"[3,136,316,53,76,94,125,130,73,136,251,152,220,127,72,181,275,67,314,155]",1.521,rectangle
,,,,,,,,,,,,,FF,,,,,,,,0.737,,,,,,,,,,,,,,,,,,,,,,60fcf3eb42a66bd3c049121b,61036c19e0daa28e0a015a2f,2021-07-29_23h05.33.829,Simcolourproject_2stim_asymm_v5,2020.2.10,MacIntel,60,61025ae37ef11b136ea224fe,,,,,,,,,2259,59,32,1,0,0,response1disk,,6,6,4,1,0,0,rectangle,6,4,1,0,0,6,4,1,0,0,0,155,155,109,1,,,,,,,,
,,,,,,,,,,,,,FF,,,,,,,,1.804,,,,,,,,,,,,,,,,,,,,,,60fcf3eb42a66bd3c049121b,61036c19e0daa28e0a015a2f,2021-07-29_23h05.33.829,Simcolourproject_2stim_asymm_v5,2020.2.10,MacIntel,60,61025ae37ef11b136ea224fe,,,,,,,,,1390,-60,-81,1,0,0,response5disk,,3,-19,1,1,0,0,rectangle,-19,1,1,0,0,-19,1,1,0,0,0,156,156,32,1,,,,,,,,
,,,,,,,,,,,,,FF,,,,,,,,0.717,,,,,,,,,,,,,,,,,,,,,,60fcf3eb42a66bd3c049121b,61036c19e0daa28e0a015a2f,2021-07-29_23h05.33.829,Simcolourproject_2stim_asymm_v5,2020.2.10,MacIntel,60,61025ae37ef11b136ea224fe,,,,,,,,,1421,40,89,1,0,0,response1disk,,7,7,3,1,0,0,rectangle,7,3,1,0,0,7,3,1,0,0,0,157,157,120,1,,,,,,,,
,,,,,,,,,,,,,FF,,,,,,,,0.688,,,,,,,,,,,,,,,,,,,,,,60fcf3eb42a66bd3c049121b,61036c19e0daa28e0a015a2f,2021-07-29_23h05.33.829,Simcolourproject_2stim_asymm_v5,2020.2.10,MacIntel,60,61025ae37ef11b136ea224fe,,,,,,,,,2319,29,78,1,0,0,response1disk,,7,19,10,1,0,0,rectangle,19,10,1,0,0,19,10,1,0,0,0,158,158,8,1,,,,,,,,
,,,,,,,,,,,,,FF,,,,,,,,0.756,,,,,,,,,,,,,,,,,,,,,,60fcf3eb42a66bd3c049121b,61036c19e0daa28e0a015a2f,2021-07-29_23h05.33.829,Simcolourproject_2stim_asymm_v5,2020.2.10,MacIntel,60,61025ae37ef11b136ea224fe,,,,,,,,,2534,62,26,1,0,0,response1disk,,6,15,3,1,0,0,rectangle,15,3,1,0,0,15,3,1,0,0,0,159,159,34,1,,,,,,,,
,,,,,,,,,,,,,FF,,,,,,,,1.252,,,,,,,,,,,,,,,,,,,,,,60fcf3eb42a66bd3c049121b,61036c19e0daa28e0a015a2f,2021-07-29_23h05.33.829,Simcolourproject_2stim_asymm_v5,2020.2.10,MacIntel,60,61025ae37ef11b136ea224fe,,,,,,,,,4308,18,71,1,0,0,response1disk,,7,8,5,1,0,0,rectangle,8,5,1,0,0,8,5,1,0,0,1,0,160,110,1,,,,,,,,
,,,,,,,,,,,,,FF,,,,,,,,1.02,,,,,,,,,,,,,,,,,,,,,,60fcf3eb42a66bd3c049121b,61036c19e0daa28e0a015a2f,2021-07-29_23h05.33.829,Simcolourproject_2stim_asymm_v5,2020.2.10,MacIntel,60,61025ae37ef11b136ea224fe,,,,,,,,,4103,-40,-99,1,0,0,response5disk,,3,-6,6,1,0,0,rectangle,-6,6,1,0,0,-6,6,1,0,0,1,1,161,9,1,,,,,,,,
,,,,,,,,,,,,,FF,,,,,,,,1.218,,,,,,,,,,,,,,,,,,,,,,60fcf3eb42a66bd3c049121b,61036c19e0daa28e0a015a2f,2021-07-29_23h05.33.829,Simcolourproject_2stim_asymm_v5,2020.2.10,MacIntel,60,61025ae37ef11b136ea224fe,,,,,,,,,3989,62,39,1,0,0,response1disk,,6,10,3,1,0,0,rectangle,10,3,1,0,0,10,3,1,0,0,1,2,162,59,1,,,,,,,,
,,,,,,,,,,,,,FF,,,,,,,,0.692,,,,,,,,,,,,,,,,,,,,,,60fcf3eb42a66bd3c049121b,61036c19e0daa28e0a015a2f,2021-07-29_23h05.33.829,Simcolourproject_2stim_asymm_v5,2020.2.10,MacIntel,60,61025ae37ef11b136ea224fe,,,,,,,,,2662,-37,74,1,0,0,response7disk,,0,-13,4,1,0,0,rectangle,-13,4,1,0,0,-13,4,1,0,0,1,3,163,24,1,,,,,,,,
,,,,,,,,,,,,,FF,,,,,,,,1.319,,,,,,,,,,,,,,,,,,,,,,60fcf3eb42a66bd3c049121b,61036c19e0daa28e0a015a2f,2021-07-29_23h05.33.829,Simcolourproject_2stim_asymm_v5,2020.2.10,MacIntel,60,61025ae37ef11b136ea224fe,,,,,,,,,1376,38,-86,1,0,0,response3disk,,4,11,5,1,0,0,rectangle,11,5,1,0,0,11,5,1,0,0,1,4,164,108,1,,,,,,,,
,,,,,,,,,,,,,FF,,,,,,,,1.034,,,,,,,,,,,,,,,,,,,,,,60fcf3eb42a66bd3c049121b,61036c19e0daa28e0a015a2f,2021-07-29_23h05.33.829,Simcolourproject_2stim_asymm_v5,2020.2.10,MacIntel,60,61025ae37ef11b136ea224fe,,,,,,,,,545,-59,-78,1,0,0,response5disk,,3,-15,12,1,0,0,rectangle,-15,12,1,0,0,-15,12,1,0,0,1,5,165,137,1,,,,,,,,
,,,,,,,,,,,,,FF,,,,,,,,0.686,,,,,,,,,,,,,,,,,,,,,,60fcf3eb42a66bd3c049121b,61036c19e0daa28e0a015a2f,2021-07-29_23h05.33.829,Simcolourproject_2stim_asymm_v5,2020.2.10,MacIntel,60,61025ae37ef11b136ea224fe,,,,,,,,,790,46,65,1,0,0,response1disk,,7,15,8,1,0,0,rectangle,15,8,1,0,0,15,8,1,0,0,1,6,166,118,1,,,,,,,,
,,,,,,,,,,,,,FF,,,,,,,,0.605,,,,,,,,,,,,,,,,,,,,,,60fcf3eb42a66bd3c049121b,61036c19e0daa28e0a015a2f,2021-07-29_23h05.33.829,Simcolourproject_2stim_asymm_v5,2020.2.10,MacIntel,60,61025ae37ef11b136ea224fe,,,,,,,,,4235,-42,59,1,0,0,response7disk,,0,-17,14,1,0,0,rectangle,-17,14,1,0,0,-17,14,1,0,0,1,7,167,91,1,,,,,,,,
,,,,,,,,,,,,,FF,,,,,,,,0.664,,,,,,,,,,,,,,,,,,,,,,60fcf3eb42a66bd3c049121b,61036c19e0daa28e0a015a2f,2021-07-29_23h05.33.829,Simcolourproject_2stim_asymm_v5,2020.2.10,MacIntel,60,61025ae37ef11b136ea224fe,,,,,,,,,510,41,53,1,0,0,response1disk,,7,2,2,1,0,0,rectangle,2,2,1,0,0,2,2,1,0,0,1,8,168,154,1,,,,,,,,
,,,,,,,,,,,,,FF,,,,,,,,0.79,,,,,,,,,,,,,,,,,,,,,,60fcf3eb42a66bd3c049121b,61036c19e0daa28e0a015a2f,2021-07-29_23h05.33.829,Simcolourproject_2stim_asymm_v5,2020.2.10,MacIntel,60,61025ae37ef11b136ea224fe,,,,,,,,,2200,80,44,1,0,0,response1disk,,6,14,12,1,0,0,rectangle,14,12,1,0,0,14,12,1,0,0,1,9,169,34,1,,,,,,,,
,,,,,,,,,,,,,FF,,,,,,,,1.222,,,,,,,,,,,,,,,,,,,,,,60fcf3eb42a66bd3c049121b,61036c19e0daa28e0a015a2f,2021-07-29_23h05.33.829,Simcolourproject_2stim_asymm_v5,2020.2.10,MacIntel,60,61025ae37ef11b136ea224fe,,,,,,,,,1541,-34,-56,1,0,0,response5disk,,3,-20,8,1,0,0,rectangle,-20,8,1,0,0,-20,8,1,0,0,1,10,170,135,1,,,,,,,,
,,,,,,,,,,,,,FF,,,,,,,,1.291,,,,,,,,,,,,,,,,,,,,,,60fcf3eb42a66bd3c049121b,61036c19e0daa28e0a015a2f,2021-07-29_23h05.33.829,Simcolourproject_2stim_asymm_v5,2020.2.10,MacIntel,60,61025ae37ef11b136ea224fe,,,,,,,,,912,-41,-88,1,0,0,response5disk,,3,-20,13,1,0,0,rectangle,-20,13,1,0,0,-20,13,1,0,0,1,11,171,97,1,,,,,,,,
,,,,,,,,,,,,,FF,,,,,,,,0.834,,,,,,,,,,,,,,,,,,,,,,60fcf3eb42a66bd3c049121b,61036c19e0daa28e0a015a2f,2021-07-29_23h05.33.829,Simcolourproject_2stim_asymm_v5,2020.2.10,MacIntel,60,61025ae37ef11b136ea224fe,,,,,,,,,1174,27,63,1,0,0,response1disk,,7,7,11,1,0,0,rectangle,7,11,1,0,0,7,11,1,0,0,1,12,172,152,1,,,,,,,,
,,,,,,,,,,,,,FF,,,,,,,,0.854,,,,,,,,,,,,,,,,,,,,,,60fcf3eb42a66bd3c049121b,61036c19e0daa28e0a015a2f,2021-07-29_23h05.33.829,Simcolourproject_2stim_asymm_v5,2020.2.10,MacIntel,60,61025ae37ef11b136ea224fe,,,,,,,,,3789,60,28,1,0,0,response1disk,,6,11,3,1,0,0,rectangle,11,3,1,0,0,11,3,1,0,0,1,13,173,95,1,,,,,,,,
,,,,,,,,,,,,,FF,,,,,,,,1.003,,,,,,,,,,,,,,,,,,,,,,60fcf3eb42a66bd3c049121b,61036c19e0daa28e0a015a2f,2021-07-29_23h05.33.829,Simcolourproject_2stim_asymm_v5,2020.2.10,MacIntel,60,61025ae37ef11b136ea224fe,,,,,,,,,1968,-44,-52,1,0,0,response5disk,,3,-15,-12,1,0,0,rectangle,-15,-12,1,0,0,-15,-12,1,0,0,1,14,174,124,1,,,,,,,,
,,,,,,,,,,,,,FF,,,,,,,,1.153,,,,,,,,,,,,,,,,,,,,,,60fcf3eb42a66bd3c049121b,61036c19e0daa28e0a015a2f,2021-07-29_23h05.33.829,Simcolourproject_2stim_asymm_v5,2020.2.10,MacIntel,60,61025ae37ef11b136ea224fe,,,,,,,,,368,-67,31,1,0,0,response7disk,,1,-6,8,1,0,0,rectangle,-6,8,1,0,0,-6,8,1,0,0,1,15,175,75,1,,,,,,,,
,,,,,,,,,,,,,FF,,,,,,,,0.668,,,,,,,,,,,,,,,,,,,,,,60fcf3eb42a66bd3c049121b,61036c19e0daa28e0a015a2f,2021-07-29_23h05.33.829,Simcolourproject_2stim_asymm_v5,2020.2.10,MacIntel,60,61025ae37ef11b136ea224fe,,,,,,,,,2400,34,58,1,0,0,response1disk,,7,12,6,1,0,0,rectangle,12,6,1,0,0,12,6,1,0,0,1,16,176,89,1,,,,,,,,
,,,,,,,,,,,,,FF,,,,,,,,0.653,,,,,,,,,,,,,,,,,,,,,,60fcf3eb42a66bd3c049121b,61036c19e0daa28e0a015a2f,2021-07-29_23h05.33.829,Simcolourproject_2stim_asymm_v5,2020.2.10,MacIntel,60,61025ae37ef11b136ea224fe,,,,,,,,,3453,27,49,1,0,0,response1disk,,7,20,8,1,0,0,rectangle,20,8,1,0,0,20,8,1,0,0,1,17,177,119,1,,,,,,,,
,,,,,,,,,,,,,FF,,,,,,,,0.788,,,,,,,,,,,,,,,,,,,,,,60fcf3eb42a66bd3c049121b,61036c19e0daa28e0a015a2f,2021-07-29_23h05.33.829,Simcolourproject_2stim_asymm_v5,2020.2.10,MacIntel,60,61025ae37ef11b136ea224fe,,,,,,,,,2644,41,56,1,0,0,response1disk,,7,23,4,1,0,0,rectangle,23,4,1,0,0,23,4,1,0,0,1,18,178,125,1,,,,,,,,
,,,,,,,,,,,,,FF,,,,,,,,0.819,,,,,,,,,,,,,,,,,,,,,,60fcf3eb42a66bd3c049121b,61036c19e0daa28e0a015a2f,2021-07-29_23h05.33.829,Simcolourproject_2stim_asymm_v5,2020.2.10,MacIntel,60,61025ae37ef11b136ea224fe,,,,,,,,,2895,-35,-61,1,0,0,response5disk,,3,-4,2,1,0,0,rectangle,-4,2,1,0,0,-4,2,1,0,0,1,19,179,151,1,,,,,,,,
,,,,,,,,,,,,,FF,,,,,,,,0.537,,,,,,,,,,,,,,,,,,,,,,60fcf3eb42a66bd3c049121b,61036c19e0daa28e0a015a2f,2021-07-29_23h05.33.829,Simcolourproject_2stim_asymm_v5,2020.2.10,MacIntel,60,61025ae37ef11b136ea224fe,,,,,,,,,409,28,68,1,0,0,response1disk,,7,9,2,1,0,0,rectangle,-65,-34,1,0,0,1,9,1,0,0,1,20,180,116,1,,response5disk_3,TRUE,2,2,"[3,136,316,53,76,94,125,130,73,136,251,152,220,127,72,181,275,67,314,155]",2.029,rectangle
,,,,,,,,,,,,,FF,,,,,,,,1.149,,,,,,,,,,,,,,,,,,,,,,60fcf3eb42a66bd3c049121b,61036c19e0daa28e0a015a2f,2021-07-29_23h05.33.829,Simcolourproject_2stim_asymm_v5,2020.2.10,MacIntel,60,61025ae37ef11b136ea224fe,,,,,,,,,2815,77,-33,1,0,0,response3disk,,5,7,-8,1,0,0,rectangle,7,-8,1,0,0,7,-8,1,0,0,1,21,181,21,1,,,,,,,,
,,,,,,,,,,,,,FF,,,,,,,,0.803,,,,,,,,,,,,,,,,,,,,,,60fcf3eb42a66bd3c049121b,61036c19e0daa28e0a015a2f,2021-07-29_23h05.33.829,Simcolourproject_2stim_asymm_v5,2020.2.10,MacIntel,60,61025ae37ef11b136ea224fe,,,,,,,,,53,67,37,1,0,0,response1disk,,6,5,-2,1,0,0,rectangle,5,-2,1,0,0,5,-2,1,0,0,1,22,182,1,1,,,,,,,,
,,,,,,,,,,,,,FF,,,,,,,,0.637,,,,,,,,,,,,,,,,,,,,,,60fcf3eb42a66bd3c049121b,61036c19e0daa28e0a015a2f,2021-07-29_23h05.33.829,Simcolourproject_2stim_asymm_v5,2020.2.10,MacIntel,60,61025ae37ef11b136ea224fe,,,,,,,,,694,41,71,1,0,0,response1disk,,7,22,2,1,0,0,rectangle,22,2,1,0,0,22,2,1,0,0,1,23,183,77,1,,,,,,,,
,,,,,,,,,,,,,FF,,,,,,,,0.618,,,,,,,,,,,,,,,,,,,,,,60fcf3eb42a66bd3c049121b,61036c19e0daa28e0a015a2f,2021-07-29_23h05.33.829,Simcolourproject_2stim_asymm_v5,2020.2.10,MacIntel,60,61025ae37ef11b136ea224fe,,,,,,,,,1872,39,67,1,0,0,response1disk,,7,6,-5,1,0,0,rectangle,6,-5,1,0,0,6,-5,1,0,0,1,24,184,82,1,,,,,,,,
,,,,,,,,,,,,,FF,,,,,,,,1.178,,,,,,,,,,,,,,,,,,,,,,60fcf3eb42a66bd3c049121b,61036c19e0daa28e0a015a2f,2021-07-29_23h05.33.829,Simcolourproject_2stim_asymm_v5,2020.2.10,MacIntel,60,61025ae37ef11b136ea224fe,,,,,,,,,3569,32,66,1,0,0,response1disk,,7,10,9,1,0,0,rectangle,10,9,1,0,0,10,9,1,0,0,1,25,185,87,1,,,,,,,,
,,,,,,,,,,,,,FF,,,,,,,,0.887,,,,,,,,,,,,,,,,,,,,,,60fcf3eb42a66bd3c049121b,61036c19e0daa28e0a015a2f,2021-07-29_23h05.33.829,Simcolourproject_2stim_asymm_v5,2020.2.10,MacIntel,60,61025ae37ef11b136ea224fe,,,,,,,,,994,-44,-67,1,0,0,response5disk,,3,0,1,1,0,0,rectangle,0,1,1,0,0,0,1,1,0,0,1,26,186,85,1,,,,,,,,
,,,,,,,,,,,,,FF,,,,,,,,0.95,,,,,,,,,,,,,,,,,,,,,,60fcf3eb42a66bd3c049121b,61036c19e0daa28e0a015a2f,2021-07-29_23h05.33.829,Simcolourproject_2stim_asymm_v5,2020.2.10,MacIntel,60,61025ae37ef11b136ea224fe,,,,,,,,,1688,-59,35,1,0,0,response7disk,,1,7,-8,1,0,0,rectangle,7,-8,1,0,0,7,-8,1,0,0,1,27,187,19,1,,,,,,,,
,,,,,,,,,,,,,FF,,,,,,,,1.032,,,,,,,,,,,,,,,,,,,,,,60fcf3eb42a66bd3c049121b,61036c19e0daa28e0a015a2f,2021-07-29_23h05.33.829,Simcolourproject_2stim_asymm_v5,2020.2.10,MacIntel,60,61025ae37ef11b136ea224fe,,,,,,,,,527,-68,31,1,0,0,response7disk,,1,-8,2,1,0,0,rectangle,-8,2,1,0,0,-8,2,1,0,0,1,28,188,11,1,,,,,,,,
,,,,,,,,,,,,,FF,,,,,,,,1.551,,,,,,,,,,,,,,,,,,,,,,60fcf3eb42a66bd3c049121b,61036c19e0daa28e0a015a2f,2021-07-29_23h05.33.829,Simcolourproject_2stim_asymm_v5,2020.2.10,MacIntel,60,61025ae37ef11b136ea224fe,,,,,,,,,204,46,-73,1,0,0,response3disk,,4,8,0,1,0,0,rectangle,8,0,1,0,0,8,0,1,0,0,1,29,189,93,1,,,,,,,,
,,,,,,,,,,,,,FF,,,,,,,,1.133,,,,,,,,,,,,,,,,,,,,,,60fcf3eb42a66bd3c049121b,61036c19e0daa28e0a015a2f,2021-07-29_23h05.33.829,Simcolourproject_2stim_asymm_v5,2020.2.10,MacIntel,60,61025ae37ef11b136ea224fe,,,,,,,,,300,47,-93,1,0,0,response3disk,,4,-1,-5,1,0,0,rectangle,-1,-5,1,0,0,-1,-5,1,0,0,1,30,190,49,1,,,,,,,,
,,,,,,,,,,,,,FF,,,,,,,,0.983,,,,,,,,,,,,,,,,,,,,,,60fcf3eb42a66bd3c049121b,61036c19e0daa28e0a015a2f,2021-07-29_23h05.33.829,Simcolourproject_2stim_asymm_v5,2020.2.10,MacIntel,60,61025ae37ef11b136ea224fe,,,,,,,,,4294,-59,20,1,0,0,response7disk,,1,-6,-10,1,0,0,rectangle,-6,-10,1,0,0,-6,-10,1,0,0,1,31,191,44,1,,,,,,,,
,,,,,,,,,,,,,FF,,,,,,,,0.951,,,,,,,,,,,,,,,,,,,,,,60fcf3eb42a66bd3c049121b,61036c19e0daa28e0a015a2f,2021-07-29_23h05.33.829,Simcolourproject_2stim_asymm_v5,2020.2.10,MacIntel,60,61025ae37ef11b136ea224fe,,,,,,,,,2208,18,44,1,0,0,response1disk,,7,9,5,1,0,0,rectangle,9,5,1,0,0,9,5,1,0,0,1,32,192,12,1,,,,,,,,
,,,,,,,,,,,,,FF,,,,,,,,1.053,,,,,,,,,,,,,,,,,,,,,,60fcf3eb42a66bd3c049121b,61036c19e0daa28e0a015a2f,2021-07-29_23h05.33.829,Simcolourproject_2stim_asymm_v5,2020.2.10,MacIntel,60,61025ae37ef11b136ea224fe,,,,,,,,,1663,-56,38,1,0,0,response7disk,,1,-11,4,1,0,0,rectangle,-11,4,1,0,0,-11,4,1,0,0,1,33,193,66,1,,,,,,,,
,,,,,,,,,,,,,FF,,,,,,,,1.13,,,,,,,,,,,,,,,,,,,,,,60fcf3eb42a66bd3c049121b,61036c19e0daa28e0a015a2f,2021-07-29_23h05.33.829,Simcolourproject_2stim_asymm_v5,2020.2.10,MacIntel,60,61025ae37ef11b136ea224fe,,,,,,,,,4090,-59,43,1,0,0,response7disk,,1,0,-1,1,0,0,rectangle,0,-1,1,0,0,0,-1,1,0,0,1,34,194,104,1,,,,,,,,
,,,,,,,,,,,,,FF,,,,,,,,0.985,,,,,,,,,,,,,,,,,,,,,,60fcf3eb42a66bd3c049121b,61036c19e0daa28e0a015a2f,2021-07-29_23h05.33.829,Simcolourproject_2stim_asymm_v5,2020.2.10,MacIntel,60,61025ae37ef11b136ea224fe,,,,,,,,,3052,-46,23,1,0,0,response7disk,,1,4,-15,1,0,0,rectangle,4,-15,1,0,0,4,-15,1,0,0,1,35,195,54,1,,,,,,,,
,,,,,,,,,,,,,FF,,,,,,,,0.903,,,,,,,,,,,,,,,,,,,,,,60fcf3eb42a66bd3c049121b,61036c19e0daa28e0a015a2f,2021-07-29_23h05.33.829,Simcolourproject_2stim_asymm_v5,2020.2.10,MacIntel,60,61025ae37ef11b136ea224fe,,,,,,,,,87,36,65,1,0,0,response1disk,,7,-7,-6,1,0,0,rectangle,-7,-6,1,0,0,-7,-6,1,0,0,1,36,196,74,1,,,,,,,,
,,,,,,,,,,,,,FF,,,,,,,,0.836,,,,,,,,,,,,,,,,,,,,,,60fcf3eb42a66bd3c049121b,61036c19e0daa28e0a015a2f,2021-07-29_23h05.33.829,Simcolourproject_2stim_asymm_v5,2020.2.10,MacIntel,60,61025ae37ef11b136ea224fe,,,,,,,,,1141,-38,-64,1,0,0,response5disk,,3,-17,-10,1,0,0,rectangle,-17,-10,1,0,0,-17,-10,1,0,0,1,37,197,61,1,,,,,,,,
,,,,,,,,,,,,,FF,,,,,,,,1.089,,,,,,,,,,,,,,,,,,,,,,60fcf3eb42a66bd3c049121b,61036c19e0daa28e0a015a2f,2021-07-29_23h05.33.829,Simcolourproject_2stim_asymm_v5,2020.2.10,MacIntel,60,61025ae37ef11b136ea224fe,,,,,,,,,240,27,59,1,0,0,response1disk,,7,-1,-5,1,0,0,rectangle,-1,-5,1,0,0,-1,-5,1,0,0,1,38,198,8,1,,,,,,,,
,,,,,,,,,,,,,FF,,,,,,,,0.983,,,,,,,,,,,,,,,,,,,,,,60fcf3eb42a66bd3c049121b,61036c19e0daa28e0a015a2f,2021-07-29_23h05.33.829,Simcolourproject_2stim_asymm_v5,2020.2.10,MacIntel,60,61025ae37ef11b136ea224fe,,,,,,,,,1471,30,59,1,0,0,response1disk,,7,-8,-3,1,0,0,rectangle,-8,-3,1,0,0,-8,-3,1,0,0,1,39,199,136,1,,,,,,,,
,,,,,,,,,,,,,FF,,,,,,,,0.752,,,,,,,,,,,,,,,,,,,,,,60fcf3eb42a66bd3c049121b,61036c19e0daa28e0a015a2f,2021-07-29_23h05.33.829,Simcolourproject_2stim_asymm_v5,2020.2.10,MacIntel,60,61025ae37ef11b136ea224fe,,,,,,,,,498,38,70,1,0,0,response1disk,,7,12,12,1,0,0,rectangle,12,12,1,0,0,12,12,1,0,0,1,40,200,69,1,,,,,,,,
,,,,,,,,,,,,,FF,,,,,,,,0.665,,,,,,,,,,,,,,,,,,,,,,60fcf3eb42a66bd3c049121b,61036c19e0daa28e0a015a2f,2021-07-29_23h05.33.829,Simcolourproject_2stim_asymm_v5,2020.2.10,MacIntel,60,61025ae37ef11b136ea224fe,,,,,,,,,491,42,75,1,0,0,response1disk,,7,13,12,1,0,0,rectangle,13,12,1,0,0,13,12,1,0,0,1,41,201,76,1,,,,,,,,
,,,,,,,,,,,,,FF,,,,,,,,0.643,,,,,,,,,,,,,,,,,,,,,,60fcf3eb42a66bd3c049121b,61036c19e0daa28e0a015a2f,2021-07-29_23h05.33.829,Simcolourproject_2stim_asymm_v5,2020.2.10,MacIntel,60,61025ae37ef11b136ea224fe,,,,,,,,,746,38,71,1,0,0,response1disk,,7,3,-5,1,0,0,rectangle,3,-5,1,0,0,3,-5,1,0,0,1,42,202,81,1,,,,,,,,
,,,,,,,,,,,,,FF,,,,,,,,1.314,,,,,,,,,,,,,,,,,,,,,,60fcf3eb42a66bd3c049121b,61036c19e0daa28e0a015a2f,2021-07-29_23h05.33.829,Simcolourproject_2stim_asymm_v5,2020.2.10,MacIntel,60,61025ae37ef11b136ea224fe,,,,,,,,,3257,66,-33,1,0,0,response3disk,,5,8,3,1,0,0,rectangle,8,3,1,0,0,8,3,1,0,0,1,43,203,128,1,,,,,,,,
,,,,,,,,,,,,,FF,,,,,,,,0.939,,,,,,,,,,,,,,,,,,,,,,60fcf3eb42a66bd3c049121b,61036c19e0daa28e0a015a2f,2021-07-29_23h05.33.829,Simcolourproject_2stim_asymm_v5,2020.2.10,MacIntel,60,61025ae37ef11b136ea224fe,,,,,,,,,3933,78,-42,1,0,0,response3disk,,5,14,3,1,0,0,rectangle,14,3,1,0,0,14,3,1,0,0,1,44,204,143,1,,,,,,,,
,,,,,,,,,,,,,FF,,,,,,,,1.021,,,,,,,,,,,,,,,,,,,,,,60fcf3eb42a66bd3c049121b,61036c19e0daa28e0a015a2f,2021-07-29_23h05.33.829,Simcolourproject_2stim_asymm_v5,2020.2.10,MacIntel,60,61025ae37ef11b136ea224fe,,,,,,,,,3457,31,50,1,0,0,response1disk,,7,7,0,1,0,0,rectangle,7,0,1,0,0,7,0,1,0,0,1,45,205,70,1,,,,,,,,
,,,,,,,,,,,,,FF,,,,,,,,1.121,,,,,,,,,,,,,,,,,,,,,,60fcf3eb42a66bd3c049121b,61036c19e0daa28e0a015a2f,2021-07-29_23h05.33.829,Simcolourproject_2stim_asymm_v5,2020.2.10,MacIntel,60,61025ae37ef11b136ea224fe,,,,,,,,,2485,-46,-106,1,0,0,response5disk,,3,-1,-4,1,0,0,rectangle,-1,-4,1,0,0,-1,-4,1,0,0,1,46,206,25,1,,,,,,,,
,,,,,,,,,,,,,FF,,,,,,,,1.282,,,,,,,,,,,,,,,,,,,,,,60fcf3eb42a66bd3c049121b,61036c19e0daa28e0a015a2f,2021-07-29_23h05.33.829,Simcolourproject_2stim_asymm_v5,2020.2.10,MacIntel,60,61025ae37ef11b136ea224fe,,,,,,,,,1775,87,-107,1,0,0,response3disk,,4,18,-8,1,0,0,rectangle,18,-8,1,0,0,18,-8,1,0,0,1,47,207,150,1,,,,,,,,
,,,,,,,,,,,,,FF,,,,,,,,0.65,,,,,,,,,,,,,,,,,,,,,,60fcf3eb42a66bd3c049121b,61036c19e0daa28e0a015a2f,2021-07-29_23h05.33.829,Simcolourproject_2stim_asymm_v5,2020.2.10,MacIntel,60,61025ae37ef11b136ea224fe,,,,,,,,,581,29,80,1,0,0,response1disk,,7,-1,6,1,0,0,rectangle,-1,6,1,0,0,-1,6,1,0,0,1,48,208,114,1,,,,,,,,
,,,,,,,,,,,,,FF,,,,,,,,0.572,,,,,,,,,,,,,,,,,,,,,,60fcf3eb42a66bd3c049121b,61036c19e0daa28e0a015a2f,2021-07-29_23h05.33.829,Simcolourproject_2stim_asymm_v5,2020.2.10,MacIntel,60,61025ae37ef11b136ea224fe,,,,,,,,,3316,47,89,1,0,0,response1disk,,7,8,0,1,0,0,rectangle,8,0,1,0,0,8,0,1,0,0,1,49,209,55,1,,,,,,,,
,,,,,,,,,,,,,FF,,,,,,,,1.934,,,,,,,,,,,,,,,,,,,,,,60fcf3eb42a66bd3c049121b,61036c19e0daa28e0a015a2f,2021-07-29_23h05.33.829,Simcolourproject_2stim_asymm_v5,2020.2.10,MacIntel,60,61025ae37ef11b136ea224fe,,,,,,,,,120,79,48,1,0,0,response1disk,,6,8,11,1,0,0,rectangle,8,11,1,0,0,8,11,1,0,0,1,50,210,3,1,,,,,,,,
,,,,,,,,,,,,,FF,,,,,,,,1.293,,,,,,,,,,,,,,,,,,,,,,60fcf3eb42a66bd3c049121b,61036c19e0daa28e0a015a2f,2021-07-29_23h05.33.829,Simcolourproject_2stim_asymm_v5,2020.2.10,MacIntel,60,61025ae37ef11b136ea224fe,,,,,,,,,4252,-42,-80,1,0,0,response5disk,,3,-17,-6,1,0,0,rectangle,-17,-6,1,0,0,-17,-6,1,0,0,1,51,211,48,1,,,,,,,,
,,,,,,,,,,,,,FF,,,,,,,,1.012,,,,,,,,,,,,,,,,,,,,,,60fcf3eb42a66bd3c049121b,61036c19e0daa28e0a015a2f,2021-07-29_23h05.33.829,Simcolourproject_2stim_asymm_v5,2020.2.10,MacIntel,60,61025ae37ef11b136ea224fe,,,,,,,,,4122,36,-64,1,0,0,response3disk,,4,0,10,1,0,0,rectangle,0,10,1,0,0,0,10,1,0,0,1,52,212,153,1,,,,,,,,
,,,,,,,,,,,,,FF,,,,,,,,1.004,,,,,,,,,,,,,,,,,,,,,,60fcf3eb42a66bd3c049121b,61036c19e0daa28e0a015a2f,2021-07-29_23h05.33.829,Simcolourproject_2stim_asymm_v5,2020.2.10,MacIntel,60,61025ae37ef11b136ea224fe,,,,,,,,,4168,33,-86,1,0,0,response3disk,,4,10,15,1,0,0,rectangle,10,15,1,0,0,10,15,1,0,0,1,53,213,92,1,,,,,,,,
,,,,,,,,,,,,,FF,,,,,,,,0.771,,,,,,,,,,,,,,,,,,,,,,60fcf3eb42a66bd3c049121b,61036c19e0daa28e0a015a2f,2021-07-29_23h05.33.829,Simcolourproject_2stim_asymm_v5,2020.2.10,MacIntel,60,61025ae37ef11b136ea224fe,,,,,,,,,153,40,58,1,0,0,response1disk,,7,18,5,1,0,0,rectangle,18,5,1,0,0,18,5,1,0,0,1,54,214,146,1,,,,,,,,
,,,,,,,,,,,,,FF,,,,,,,,0.552,,,,,,,,,,,,,,,,,,,,,,60fcf3eb42a66bd3c049121b,61036c19e0daa28e0a015a2f,2021-07-29_23h05.33.829,Simcolourproject_2stim_asymm_v5,2020.2.10,MacIntel,60,61025ae37ef11b136ea224fe,,,,,,,,,319,39,57,1,0,0,response1disk,,7,18,4,1,0,0,rectangle,18,4,1,0,0,18,4,1,0,0,1,55,215,14,1,,,,,,,,
,,,,,,,,,,,,,FF,,,,,,,,1.007,,,,,,,,,,,,,,,,,,,,,,60fcf3eb42a66bd3c049121b,61036c19e0daa28e0a015a2f,2021-07-29_23h05.33.829,Simcolourproject_2stim_asymm_v5,2020.2.10,MacIntel,60,61025ae37ef11b136ea224fe,,,,,,,,,3584,-66,31,1,0,0,response7disk,,1,-18,0,1,0,0,rectangle,-18,0,1,0,0,-18,0,1,0,0,1,56,216,17,1,,,,,,,,
,,,,,,,,,,,,,FF,,,,,,,,0.835,,,,,,,,,,,,,,,,,,,,,,60fcf3eb42a66bd3c049121b,61036c19e0daa28e0a015a2f,2021-07-29_23h05.33.829,Simcolourproject_2stim_asymm_v5,2020.2.10,MacIntel,60,61025ae37ef11b136ea224fe,,,,,,,,,3269,45,68,1,0,0,response1disk,,7,8,-6,1,0,0,rectangle,8,-6,1,0,0,8,-6,1,0,0,1,57,217,13,1,,,,,,,,
,,,,,,,,,,,,,FF,,,,,,,,1.608,,,,,,,,,,,,,,,,,,,,,,60fcf3eb42a66bd3c049121b,61036c19e0daa28e0a015a2f,2021-07-29_23h05.33.829,Simcolourproject_2stim_asymm_v5,2020.2.10,MacIntel,60,61025ae37ef11b136ea224fe,,,,,,,,,2186,-33,-69,1,0,0,response5disk,,3,-24,-1,1,0,0,rectangle,-24,-1,1,0,0,-24,-1,1,0,0,1,58,218,68,1,,,,,,,,
,,,,,,,,,,,,,FF,,,,,,,,0.677,,,,,,,,,,,,,,,,,,,,,,60fcf3eb42a66bd3c049121b,61036c19e0daa28e0a015a2f,2021-07-29_23h05.33.829,Simcolourproject_2stim_asymm_v5,2020.2.10,MacIntel,60,61025ae37ef11b136ea224fe,,,,,,,,,230,26,58,1,0,0,response1disk,,7,6,-1,1,0,0,rectangle,68,35,1,0,0,13,3,1,0,0,1,59,219,51,1,,response1disk_3,TRUE,6,6,"[3,136,316,53,76,94,125,130,73,136,251,152,220,127,72,181,275,67,314,155]",1.97,rectangle
,,,,,,,,,,,,,FF,,,,,,,,1.102,,,,,,,,,,,,,,,,,,,,,,60fcf3eb42a66bd3c049121b,61036c19e0daa28e0a015a2f,2021-07-29_23h05.33.829,Simcolourproject_2stim_asymm_v5,2020.2.10,MacIntel,60,61025ae37ef11b136ea224fe,,,,,,,,,2084,-71,23,1,0,0,response7disk,,1,2,-4,1,0,0,rectangle,2,-4,1,0,0,2,-4,1,0,0,1,60,220,84,1,,,,,,,,
,,,,,,,,,,,,,FF,,,,,,,,0.52,,,,,,,,,,,,,,,,,,,,,,60fcf3eb42a66bd3c049121b,61036c19e0daa28e0a015a2f,2021-07-29_23h05.33.829,Simcolourproject_2stim_asymm_v5,2020.2.10,MacIntel,60,61025ae37ef11b136ea224fe,,,,,,,,,383,35,66,1,0,0,response1disk,,7,-5,-11,1,0,0,rectangle,-5,-11,1,0,0,-5,-11,1,0,0,1,61,221,42,1,,,,,,,,
,,,,,,,,,,,,,FF,,,,,,,,1.118,,,,,,,,,,,,,,,,,,,,,,60fcf3eb42a66bd3c049121b,61036c19e0daa28e0a015a2f,2021-07-29_23h05.33.829,Simcolourproject_2stim_asymm_v5,2020.2.10,MacIntel,60,61025ae37ef11b136ea224fe,,,,,,,,,3067,30,77,1,0,0,response1disk,,7,-9,-11,1,0,0,rectangle,-9,-11,1,0,0,-9,-11,1,0,0,1,62,222,63,1,,,,,,,,
,,,,,,,,,,,,,FF,,,,,,,,0.828,,,,,,,,,,,,,,,,,,,,,,60fcf3eb42a66bd3c049121b,61036c19e0daa28e0a015a2f,2021-07-29_23h05.33.829,Simcolourproject_2stim_asymm_v5,2020.2.10,MacIntel,60,61025ae37ef11b136ea224fe,,,,,,,,,2663,-38,-59,1,0,0,response5disk,,3,-11,-5,1,0,0,rectangle,-11,-5,1,0,0,-11,-5,1,0,0,1,63,223,112,1,,,,,,,,
,,,,,,,,,,,,,FF,,,,,,,,0.853,,,,,,,,,,,,,,,,,,,,,,60fcf3eb42a66bd3c049121b,61036c19e0daa28e0a015a2f,2021-07-29_23h05.33.829,Simcolourproject_2stim_asymm_v5,2020.2.10,MacIntel,60,61025ae37ef11b136ea224fe,,,,,,,,,1074,28,-79,1,0,0,response3disk,,4,6,0,1,0,0,rectangle,6,0,1,0,0,6,0,1,0,0,1,64,224,148,1,,,,,,,,
,,,,,,,,,,,,,FF,,,,,,,,0.549,,,,,,,,,,,,,,,,,,,,,,60fcf3eb42a66bd3c049121b,61036c19e0daa28e0a015a2f,2021-07-29_23h05.33.829,Simcolourproject_2stim_asymm_v5,2020.2.10,MacIntel,60,61025ae37ef11b136ea224fe,,,,,,,,,1492,41,48,1,0,0,response1disk,,7,16,-7,1,0,0,rectangle,16,-7,1,0,0,16,-7,1,0,0,1,65,225,79,1,,,,,,,,
,,,,,,,,,,,,,FF,,,,,,,,1.389,,,,,,,,,,,,,,,,,,,,,,60fcf3eb42a66bd3c049121b,61036c19e0daa28e0a015a2f,2021-07-29_23h05.33.829,Simcolourproject_2stim_asymm_v5,2020.2.10,MacIntel,60,61025ae37ef11b136ea224fe,,,,,,,,,4250,76,-55,1,0,0,response3disk,,5,5,-8,1,0,0,rectangle,5,-8,1,0,0,5,-8,1,0,0,1,66,226,40,1,,,,,,,,
,,,,,,,,,,,,,FF,,,,,,,,0.738,,,,,,,,,,,,,,,,,,,,,,60fcf3eb42a66bd3c049121b,61036c19e0daa28e0a015a2f,2021-07-29_23h05.33.829,Simcolourproject_2stim_asymm_v5,2020.2.10,MacIntel,60,61025ae37ef11b136ea224fe,,,,,,,,,3222,35,66,1,0,0,response1disk,,7,11,4,1,0,0,rectangle,11,4,1,0,0,11,4,1,0,0,1,67,227,6,1,,,,,,,,
,,,,,,,,,,,,,FF,,,,,,,,0.924,,,,,,,,,,,,,,,,,,,,,,60fcf3eb42a66bd3c049121b,61036c19e0daa28e0a015a2f,2021-07-29_23h05.33.829,Simcolourproject_2stim_asymm_v5,2020.2.10,MacIntel,60,61025ae37ef11b136ea224fe,,,,,,,,,175,-45,-92,1,0,0,response5disk,,3,-10,3,1,0,0,rectangle,-10,3,1,0,0,-10,3,1,0,0,1,68,228,155,1,,,,,,,,
,,,,,,,,,,,,,FF,,,,,,,,0.747,,,,,,,,,,,,,,,,,,,,,,60fcf3eb42a66bd3c049121b,61036c19e0daa28e0a015a2f,2021-07-29_23h05.33.829,Simcolourproject_2stim_asymm_v5,2020.2.10,MacIntel,60,61025ae37ef11b136ea224fe,,,,,,,,,2776,-38,-55,1,0,0,response5disk,,3,-12,-10,1,0,0,rectangle,-12,-10,1,0,0,-12,-10,1,0,0,1,69,229,159,1,,,,,,,,
,,,,,,,,,,,,,FF,,,,,,,,0.786,,,,,,,,,,,,,,,,,,,,,,60fcf3eb42a66bd3c049121b,61036c19e0daa28e0a015a2f,2021-07-29_23h05.33.829,Simcolourproject_2stim_asymm_v5,2020.2.10,MacIntel,60,61025ae37ef11b136ea224fe,,,,,,,,,4187,77,-58,1,0,0,response3disk,,5,10,-16,1,0,0,rectangle,10,-16,1,0,0,10,-16,1,0,0,1,70,230,5,1,,,,,,,,
,,,,,,,,,,,,,FF,,,,,,,,0.754,,,,,,,,,,,,,,,,,,,,,,60fcf3eb42a66bd3c049121b,61036c19e0daa28e0a015a2f,2021-07-29_23h05.33.829,Simcolourproject_2stim_asymm_v5,2020.2.10,MacIntel,60,61025ae37ef11b136ea224fe,,,,,,,,,666,36,69,1,0,0,response1disk,,7,-5,-12,1,0,0,rectangle,-5,-12,1,0,0,-5,-12,1,0,0,1,71,231,57,1,,,,,,,,
,,,,,,,,,,,,,FF,,,,,,,,1.269,,,,,,,,,,,,,,,,,,,,,,60fcf3eb42a66bd3c049121b,61036c19e0daa28e0a015a2f,2021-07-29_23h05.33.829,Simcolourproject_2stim_asymm_v5,2020.2.10,MacIntel,60,61025ae37ef11b136ea224fe,,,,,,,,,2825,-69,-30,1,0,0,response5disk,,2,-12,3,1,0,0,rectangle,-12,3,1,0,0,-12,3,1,0,0,1,72,232,0,1,,,,,,,,
,,,,,,,,,,,,,FF,,,,,,,,0.903,,,,,,,,,,,,,,,,,,,,,,60fcf3eb42a66bd3c049121b,61036c19e0daa28e0a015a2f,2021-07-29_23h05.33.829,Simcolourproject_2stim_asymm_v5,2020.2.10,MacIntel,60,61025ae37ef11b136ea224fe,,,,,,,,,3484,-38,-57,1,0,0,response5disk,,3,-19,2,1,0,0,rectangle,-19,2,1,0,0,-19,2,1,0,0,1,73,233,111,1,,,,,,,,
,,,,,,,,,,,,,FF,,,,,,,,0.653,,,,,,,,,,,,,,,,,,,,,,60fcf3eb42a66bd3c049121b,61036c19e0daa28e0a015a2f,2021-07-29_23h05.33.829,Simcolourproject_2stim_asymm_v5,2020.2.10,MacIntel,60,61025ae37ef11b136ea224fe,,,,,,,,,536,29,83,1,0,0,response1disk,,7,4,12,1,0,0,rectangle,4,12,1,0,0,4,12,1,0,0,1,74,234,35,1,,,,,,,,
,,,,,,,,,,,,,FF,,,,,,,,0.77,,,,,,,,,,,,,,,,,,,,,,60fcf3eb42a66bd3c049121b,61036c19e0daa28e0a015a2f,2021-07-29_23h05.33.829,Simcolourproject_2stim_asymm_v5,2020.2.10,MacIntel,60,61025ae37ef11b136ea224fe,,,,,,,,,1677,-38,61,1,0,0,response7disk,,0,-12,-2,1,0,0,rectangle,-12,-2,1,0,0,-12,-2,1,0,0,1,75,235,73,1,,,,,,,,
,,,,,,,,,,,,,FF,,,,,,,,0.62,,,,,,,,,,,,,,,,,,,,,,60fcf3eb42a66bd3c049121b,61036c19e0daa28e0a015a2f,2021-07-29_23h05.33.829,Simcolourproject_2stim_asymm_v5,2020.2.10,MacIntel,60,61025ae37ef11b136ea224fe,,,,,,,,,508,30,72,1,0,0,response1disk,,7,5,-2,1,0,0,rectangle,5,-2,1,0,0,5,-2,1,0,0,1,76,236,60,1,,,,,,,,
,,,,,,,,,,,,,FF,,,,,,,,0.922,,,,,,,,,,,,,,,,,,,,,,60fcf3eb42a66bd3c049121b,61036c19e0daa28e0a015a2f,2021-07-29_23h05.33.829,Simcolourproject_2stim_asymm_v5,2020.2.10,MacIntel,60,61025ae37ef11b136ea224fe,,,,,,,,,2637,50,75,1,0,0,response1disk,,7,5,-8,1,0,0,rectangle,5,-8,1,0,0,5,-8,1,0,0,1,77,237,72,1,,,,,,,,
,,,,,,,,,,,,,FF,,,,,,,,2.473,,,,,,,,,,,,,,,,,,,,,,60fcf3eb42a66bd3c049121b,61036c19e0daa28e0a015a2f,2021-07-29_23h05.33.829,Simcolourproject_2stim_asymm_v5,2020.2.10,MacIntel,60,61025ae37ef11b136ea224fe,,,,,,,,,4172,122,40,1,0,0,response1disk,,6,2,6,1,0,0,rectangle,2,6,1,0,0,2,6,1,0,0,1,78,238,29,1,,,,,,,,
,,,,,,,,,,,,,FF,,,,,,,,0.802,,,,,,,,,,,,,,,,,,,,,,60fcf3eb42a66bd3c049121b,61036c19e0daa28e0a015a2f,2021-07-29_23h05.33.829,Simcolourproject_2stim_asymm_v5,2020.2.10,MacIntel,60,61025ae37ef11b136ea224fe,,,,,,,,,1962,-28,-58,1,0,0,response5disk,,3,-9,1,1,0,0,rectangle,-9,1,1,0,0,-9,1,1,0,0,1,79,239,134,1,,,,,,,,
,,,,,,,,,,,,,FF,,,,,,,,1.03,,,,,,,,,,,,,,,,,,,,,,60fcf3eb42a66bd3c049121b,61036c19e0daa28e0a015a2f,2021-07-29_23h05.33.829,Simcolourproject_2stim_asymm_v5,2020.2.10,MacIntel,60,61025ae37ef11b136ea224fe,,,,,,,,,1870,52,83,1,0,0,response1disk,,7,18,6,1,0,0,rectangle,18,6,1,0,0,18,6,1,0,0,1,80,240,158,1,,,,,,,,
,,,,,,,,,,,,,FF,,,,,,,,2.272,,,,,,,,,,,,,,,,,,,,,,60fcf3eb42a66bd3c049121b,61036c19e0daa28e0a015a2f,2021-07-29_23h05.33.829,Simcolourproject_2stim_asymm_v5,2020.2.10,MacIntel,60,61025ae37ef11b136ea224fe,,,,,,,,,2884,49,-109,1,0,0,response3disk,,4,20,-4,1,0,0,rectangle,20,-4,1,0,0,20,-4,1,0,0,1,81,241,65,1,,,,,,,,
,,,,,,,,,,,,,FF,,,,,,,,1.206,,,,,,,,,,,,,,,,,,,,,,60fcf3eb42a66bd3c049121b,61036c19e0daa28e0a015a2f,2021-07-29_23h05.33.829,Simcolourproject_2stim_asymm_v5,2020.2.10,MacIntel,60,61025ae37ef11b136ea224fe,,,,,,,,,2854,25,69,1,0,0,response1disk,,7,19,-5,1,0,0,rectangle,19,-5,1,0,0,19,-5,1,0,0,1,82,242,50,1,,,,,,,,
,,,,,,,,,,,,,FF,,,,,,,,1.15,,,,,,,,,,,,,,,,,,,,,,60fcf3eb42a66bd3c049121b,61036c19e0daa28e0a015a2f,2021-07-29_23h05.33.829,Simcolourproject_2stim_asymm_v5,2020.2.10,MacIntel,60,61025ae37ef11b136ea224fe,,,,,,,,,1065,-23,-57,1,0,0,response5disk,,3,-24,-7,1,0,0,rectangle,-24,-7,1,0,0,-24,-7,1,0,0,1,83,243,105,1,,,,,,,,
,,,,,,,,,,,,,FF,,,,,,,,1.019,,,,,,,,,,,,,,,,,,,,,,60fcf3eb42a66bd3c049121b,61036c19e0daa28e0a015a2f,2021-07-29_23h05.33.829,Simcolourproject_2stim_asymm_v5,2020.2.10,MacIntel,60,61025ae37ef11b136ea224fe,,,,,,,,,4247,65,46,1,0,0,response1disk,,6,22,9,1,0,0,rectangle,22,9,1,0,0,22,9,1,0,0,1,84,244,106,1,,,,,,,,
,,,,,,,,,,,,,FF,,,,,,,,0.653,,,,,,,,,,,,,,,,,,,,,,60fcf3eb42a66bd3c049121b,61036c19e0daa28e0a015a2f,2021-07-29_23h05.33.829,Simcolourproject_2stim_asymm_v5,2020.2.10,MacIntel,60,61025ae37ef11b136ea224fe,,,,,,,,,1083,30,80,1,0,0,response1disk,,7,6,9,1,0,0,rectangle,6,9,1,0,0,6,9,1,0,0,1,85,245,120,1,,,,,,,,
,,,,,,,,,,,,,FF,,,,,,,,1.168,,,,,,,,,,,,,,,,,,,,,,60fcf3eb42a66bd3c049121b,61036c19e0daa28e0a015a2f,2021-07-29_23h05.33.829,Simcolourproject_2stim_asymm_v5,2020.2.10,MacIntel,60,61025ae37ef11b136ea224fe,,,,,,,,,729,-35,-59,1,0,0,response5disk,,3,-9,-5,1,0,0,rectangle,-9,-5,1,0,0,-9,-5,1,0,0,1,86,246,30,1,,,,,,,,
,,,,,,,,,,,,,FF,,,,,,,,0.754,,,,,,,,,,,,,,,,,,,,,,60fcf3eb42a66bd3c049121b,61036c19e0daa28e0a015a2f,2021-07-29_23h05.33.829,Simcolourproject_2stim_asymm_v5,2020.2.10,MacIntel,60,61025ae37ef11b136ea224fe,,,,,,,,,3574,64,-19,1,0,0,response3disk,,5,10,10,1,0,0,rectangle,10,10,1,0,0,10,10,1,0,0,1,87,247,10,1,,,,,,,,
,,,,,,,,,,,,,FF,,,,,,,,0.96,,,,,,,,,,,,,,,,,,,,,,60fcf3eb42a66bd3c049121b,61036c19e0daa28e0a015a2f,2021-07-29_23h05.33.829,Simcolourproject_2stim_asymm_v5,2020.2.10,MacIntel,60,61025ae37ef11b136ea224fe,,,,,,,,,4154,-26,-53,1,0,0,response5disk,,3,-2,8,1,0,0,rectangle,-2,8,1,0,0,-2,8,1,0,0,1,88,248,139,1,,,,,,,,
,,,,,,,,,,,,,FF,,,,,,,,1.112,,,,,,,,,,,,,,,,,,,,,,60fcf3eb42a66bd3c049121b,61036c19e0daa28e0a015a2f,2021-07-29_23h05.33.829,Simcolourproject_2stim_asymm_v5,2020.2.10,MacIntel,60,61025ae37ef11b136ea224fe,,,,,,,,,3007,-79,-31,1,0,0,response5disk,,2,-20,2,1,0,0,rectangle,-20,2,1,0,0,-20,2,1,0,0,1,89,249,31,1,,,,,,,,
,,,,,,,,,,,,,FF,,,,,,,,0.773,,,,,,,,,,,,,,,,,,,,,,60fcf3eb42a66bd3c049121b,61036c19e0daa28e0a015a2f,2021-07-29_23h05.33.829,Simcolourproject_2stim_asymm_v5,2020.2.10,MacIntel,60,61025ae37ef11b136ea224fe,,,,,,,,,1506,19,57,1,0,0,response1disk,,7,14,9,1,0,0,rectangle,75,-45,1,0,0,18,-12,1,0,0,1,90,250,103,1,,response3disk_3,TRUE,5,5,"[3,136,316,53,76,94,125,130,73,136,251,152,220,127,72,181,275,67,314,155]",1.487,rectangle
,,,,,,,,,,,,,FF,,,,,,,,0.992,,,,,,,,,,,,,,,,,,,,,,60fcf3eb42a66bd3c049121b,61036c19e0daa28e0a015a2f,2021-07-29_23h05.33.829,Simcolourproject_2stim_asymm_v5,2020.2.10,MacIntel,60,61025ae37ef11b136ea224fe,,,,,,,,,1939,22,69,1,0,0,response1disk,,7,15,2,1,0,0,rectangle,15,2,1,0,0,15,2,1,0,0,1,91,251,64,1,,,,,,,,
,,,,,,,,,,,,,FF,,,,,,,,1.018,,,,,,,,,,,,,,,,,,,,,,60fcf3eb42a66bd3c049121b,61036c19e0daa28e0a015a2f,2021-07-29_23h05.33.829,Simcolourproject_2stim_asymm_v5,2020.2.10,MacIntel,60,61025ae37ef11b136ea224fe,,,,,,,,,4170,-91,34,1,0,0,response7disk,,1,-18,-3,1,0,0,rectangle,-18,-3,1,0,0,-18,-3,1,0,0,1,92,252,2,1,,,,,,,,
,,,,,,,,,,,,,FF,,,,,,,,1.011,,,,,,,,,,,,,,,,,,,,,,60fcf3eb42a66bd3c049121b,61036c19e0daa28e0a015a2f,2021-07-29_23h05.33.829,Simcolourproject_2stim_asymm_v5,2020.2.10,MacIntel,60,61025ae37ef11b136ea224fe,,,,,,,,,3973,-70,31,1,0,0,response7disk,,1,3,-12,1,0,0,rectangle,3,-12,1,0,0,3,-12,1,0,0,1,93,253,129,1,,,,,,,,
,,,,,,,,,,,,,FF,,,,,,,,0.984,,,,,,,,,,,,,,,,,,,,,,60fcf3eb42a66bd3c049121b,61036c19e0daa28e0a015a2f,2021-07-29_23h05.33.829,Simcolourproject_2stim_asymm_v5,2020.2.10,MacIntel,60,61025ae37ef11b136ea224fe,,,,,,,,,1496,22,82,1,0,0,response1disk,,7,12,6,1,0,0,rectangle,12,6,1,0,0,12,6,1,0,0,1,94,254,122,1,,,,,,,,
,,,,,,,,,,,,,FF,,,,,,,,0.972,,,,,,,,,,,,,,,,,,,,,,60fcf3eb42a66bd3c049121b,61036c19e0daa28e0a015a2f,2021-07-29_23h05.33.829,Simcolourproject_2stim_asymm_v5,2020.2.10,MacIntel,60,61025ae37ef11b136ea224fe,,,,,,,,,1590,-82,34,1,0,0,response7disk,,1,-10,-3,1,0,0,rectangle,-10,-3,1,0,0,-10,-3,1,0,0,1,95,255,126,1,,,,,,,,
,,,,,,,,,,,,,FF,,,,,,,,1.034,,,,,,,,,,,,,,,,,,,,,,60fcf3eb42a66bd3c049121b,61036c19e0daa28e0a015a2f,2021-07-29_23h05.33.829,Simcolourproject_2stim_asymm_v5,2020.2.10,MacIntel,60,61025ae37ef11b136ea224fe,,,,,,,,,523,-67,44,1,0,0,response7disk,,1,-3,2,1,0,0,rectangle,-3,2,1,0,0,-3,2,1,0,0,1,96,256,127,1,,,,,,,,
,,,,,,,,,,,,,FF,,,,,,,,0.88,,,,,,,,,,,,,,,,,,,,,,60fcf3eb42a66bd3c049121b,61036c19e0daa28e0a015a2f,2021-07-29_23h05.33.829,Simcolourproject_2stim_asymm_v5,2020.2.10,MacIntel,60,61025ae37ef11b136ea224fe,,,,,,,,,1888,-74,37,1,0,0,response7disk,,1,-2,0,1,0,0,rectangle,-2,0,1,0,0,-2,0,1,0,0,1,97,257,83,1,,,,,,,,
,,,,,,,,,,,,,FF,,,,,,,,0.727,,,,,,,,,,,,,,,,,,,,,,60fcf3eb42a66bd3c049121b,61036c19e0daa28e0a015a2f,2021-07-29_23h05.33.829,Simcolourproject_2stim_asymm_v5,2020.2.10,MacIntel,60,61025ae37ef11b136ea224fe,,,,,,,,,3888,25,70,1,0,0,response1disk,,7,20,10,1,0,0,rectangle,20,10,1,0,0,20,10,1,0,0,1,98,258,39,1,,,,,,,,
,,,,,,,,,,,,,FF,,,,,,,,0.907,,,,,,,,,,,,,,,,,,,,,,60fcf3eb42a66bd3c049121b,61036c19e0daa28e0a015a2f,2021-07-29_23h05.33.829,Simcolourproject_2stim_asymm_v5,2020.2.10,MacIntel,60,61025ae37ef11b136ea224fe,,,,,,,,,1265,22,69,1,0,0,response1disk,,7,16,8,1,0,0,rectangle,16,8,1,0,0,16,8,1,0,0,1,99,259,133,1,,,,,,,,
,,,,,,,,,,,,,FF,,,,,,,,1.108,,,,,,,,,,,,,,,,,,,,,,60fcf3eb42a66bd3c049121b,61036c19e0daa28e0a015a2f,2021-07-29_23h05.33.829,Simcolourproject_2stim_asymm_v5,2020.2.10,MacIntel,60,61025ae37ef11b136ea224fe,,,,,,,,,3044,69,41,1,0,0,response1disk,,6,13,17,1,0,0,rectangle,13,17,1,0,0,13,17,1,0,0,1,100,260,130,1,,,,,,,,
,,,,,,,,,,,,,FF,,,,,,,,0.757,,,,,,,,,,,,,,,,,,,,,,60fcf3eb42a66bd3c049121b,61036c19e0daa28e0a015a2f,2021-07-29_23h05.33.829,Simcolourproject_2stim_asymm_v5,2020.2.10,MacIntel,60,61025ae37ef11b136ea224fe,,,,,,,,,2260,31,62,1,0,0,response1disk,,7,12,12,1,0,0,rectangle,12,12,1,0,0,12,12,1,0,0,1,101,261,141,1,,,,,,,,
,,,,,,,,,,,,,FF,,,,,,,,1.103,,,,,,,,,,,,,,,,,,,,,,60fcf3eb42a66bd3c049121b,61036c19e0daa28e0a015a2f,2021-07-29_23h05.33.829,Simcolourproject_2stim_asymm_v5,2020.2.10,MacIntel,60,61025ae37ef11b136ea224fe,,,,,,,,,1680,-62,-48,1,0,0,response5disk,,2,8,4,1,0,0,rectangle,8,4,1,0,0,8,4,1,0,0,1,102,262,115,1,,,,,,,,
,,,,,,,,,,,,,FF,,,,,,,,0.97,,,,,,,,,,,,,,,,,,,,,,60fcf3eb42a66bd3c049121b,61036c19e0daa28e0a015a2f,2021-07-29_23h05.33.829,Simcolourproject_2stim_asymm_v5,2020.2.10,MacIntel,60,61025ae37ef11b136ea224fe,,,,,,,,,3178,76,30,1,0,0,response1disk,,6,18,14,1,0,0,rectangle,18,14,1,0,0,18,14,1,0,0,1,103,263,16,1,,,,,,,,
,,,,,,,,,,,,,FF,,,,,,,,1.956,,,,,,,,,,,,,,,,,,,,,,60fcf3eb42a66bd3c049121b,61036c19e0daa28e0a015a2f,2021-07-29_23h05.33.829,Simcolourproject_2stim_asymm_v5,2020.2.10,MacIntel,60,61025ae37ef11b136ea224fe,,,,,,,,,3445,72,43,1,0,0,response1disk,,6,19,9,1,0,0,rectangle,19,9,1,0,0,19,9,1,0,0,1,104,264,58,1,,,,,,,,
,,,,,,,,,,,,,FF,,,,,,,,0.756,,,,,,,,,,,,,,,,,,,,,,60fcf3eb42a66bd3c049121b,61036c19e0daa28e0a015a2f,2021-07-29_23h05.33.829,Simcolourproject_2stim_asymm_v5,2020.2.10,MacIntel,60,61025ae37ef11b136ea224fe,,,,,,,,,761,73,40,1,0,0,response1disk,,6,7,5,1,0,0,rectangle,7,5,1,0,0,7,5,1,0,0,1,105,265,62,1,,,,,,,,
,,,,,,,,,,,,,FF,,,,,,,,1.27,,,,,,,,,,,,,,,,,,,,,,60fcf3eb42a66bd3c049121b,61036c19e0daa28e0a015a2f,2021-07-29_23h05.33.829,Simcolourproject_2stim_asymm_v5,2020.2.10,MacIntel,60,61025ae37ef11b136ea224fe,,,,,,,,,4159,71,-25,1,0,0,response3disk,,5,22,0,1,0,0,rectangle,22,0,1,0,0,22,0,1,0,0,1,106,266,38,1,,,,,,,,
,,,,,,,,,,,,,FF,,,,,,,,0.666,,,,,,,,,,,,,,,,,,,,,,60fcf3eb42a66bd3c049121b,61036c19e0daa28e0a015a2f,2021-07-29_23h05.33.829,Simcolourproject_2stim_asymm_v5,2020.2.10,MacIntel,60,61025ae37ef11b136ea224fe,,,,,,,,,940,43,70,1,0,0,response1disk,,7,31,5,1,0,0,rectangle,31,5,1,0,0,31,5,1,0,0,1,107,267,109,1,,,,,,,,
,,,,,,,,,,,,,FF,,,,,,,,0.819,,,,,,,,,,,,,,,,,,,,,,60fcf3eb42a66bd3c049121b,61036c19e0daa28e0a015a2f,2021-07-29_23h05.33.829,Simcolourproject_2stim_asymm_v5,2020.2.10,MacIntel,60,61025ae37ef11b136ea224fe,,,,,,,,,538,41,91,1,0,0,response1disk,,7,16,6,1,0,0,rectangle,16,6,1,0,0,16,6,1,0,0,1,108,268,46,1,,,,,,,,
,,,,,,,,,,,,,FF,,,,,,,,0.594,,,,,,,,,,,,,,,,,,,,,,60fcf3eb42a66bd3c049121b,61036c19e0daa28e0a015a2f,2021-07-29_23h05.33.829,Simcolourproject_2stim_asymm_v5,2020.2.10,MacIntel,60,61025ae37ef11b136ea224fe,,,,,,,,,316,40,70,1,0,0,response1disk,,7,15,10,1,0,0,rectangle,15,10,1,0,0,15,10,1,0,0,1,109,269,43,1,,,,,,,,
,,,,,,,,,,,,,FF,,,,,,,,0.657,,,,,,,,,,,,,,,,,,,,,,60fcf3eb42a66bd3c049121b,61036c19e0daa28e0a015a2f,2021-07-29_23h05.33.829,Simcolourproject_2stim_asymm_v5,2020.2.10,MacIntel,60,61025ae37ef11b136ea224fe,,,,,,,,,231,27,72,1,0,0,response1disk,,7,9,14,1,0,0,rectangle,9,14,1,0,0,9,14,1,0,0,1,110,270,98,1,,,,,,,,
,,,,,,,,,,,,,FF,,,,,,,,0.971,,,,,,,,,,,,,,,,,,,,,,60fcf3eb42a66bd3c049121b,61036c19e0daa28e0a015a2f,2021-07-29_23h05.33.829,Simcolourproject_2stim_asymm_v5,2020.2.10,MacIntel,60,61025ae37ef11b136ea224fe,,,,,,,,,3423,51,-86,1,0,0,response3disk,,4,10,7,1,0,0,rectangle,10,7,1,0,0,10,7,1,0,0,1,111,271,102,1,,,,,,,,
,,,,,,,,,,,,,FF,,,,,,,,1.135,,,,,,,,,,,,,,,,,,,,,,60fcf3eb42a66bd3c049121b,61036c19e0daa28e0a015a2f,2021-07-29_23h05.33.829,Simcolourproject_2stim_asymm_v5,2020.2.10,MacIntel,60,61025ae37ef11b136ea224fe,,,,,,,,,3494,70,32,1,0,0,response1disk,,6,17,16,1,0,0,rectangle,17,16,1,0,0,17,16,1,0,0,1,112,272,123,1,,,,,,,,
,,,,,,,,,,,,,FF,,,,,,,,0.67,,,,,,,,,,,,,,,,,,,,,,60fcf3eb42a66bd3c049121b,61036c19e0daa28e0a015a2f,2021-07-29_23h05.33.829,Simcolourproject_2stim_asymm_v5,2020.2.10,MacIntel,60,61025ae37ef11b136ea224fe,,,,,,,,,3826,33,75,1,0,0,response1disk,,7,26,-4,1,0,0,rectangle,26,-4,1,0,0,26,-4,1,0,0,1,113,273,32,1,,,,,,,,
,,,,,,,,,,,,,FF,,,,,,,,0.786,,,,,,,,,,,,,,,,,,,,,,60fcf3eb42a66bd3c049121b,61036c19e0daa28e0a015a2f,2021-07-29_23h05.33.829,Simcolourproject_2stim_asymm_v5,2020.2.10,MacIntel,60,61025ae37ef11b136ea224fe,,,,,,,,,470,27,76,1,0,0,response1disk,,7,11,-5,1,0,0,rectangle,-27,-102,1,0,0,-11,-2,1,0,0,1,114,274,56,1,,response5disk_3,TRUE,3,3,"[3,136,316,53,76,94,125,130,73,136,251,152,220,127,72,181,275,67,314,155]",1.499,rectangle
,,,,,,,,,,,,,FF,,,,,,,,1.238,,,,,,,,,,,,,,,,,,,,,,60fcf3eb42a66bd3c049121b,61036c19e0daa28e0a015a2f,2021-07-29_23h05.33.829,Simcolourproject_2stim_asymm_v5,2020.2.10,MacIntel,60,61025ae37ef11b136ea224fe,,,,,,,,,819,38,-90,1,0,0,response3disk,,4,-7,7,1,0,0,rectangle,-7,7,1,0,0,-7,7,1,0,0,1,115,275,41,1,,,,,,,,
,,,,,,,,,,,,,FF,,,,,,,,0.889,,,,,,,,,,,,,,,,,,,,,,60fcf3eb42a66bd3c049121b,61036c19e0daa28e0a015a2f,2021-07-29_23h05.33.829,Simcolourproject_2stim_asymm_v5,2020.2.10,MacIntel,60,61025ae37ef11b136ea224fe,,,,,,,,,2404,68,-55,1,0,0,response3disk,,5,-9,1,1,0,0,rectangle,-9,1,1,0,0,-9,1,1,0,0,1,116,276,71,1,,,,,,,,
,,,,,,,,,,,,,FF,,,,,,,,1.314,,,,,,,,,,,,,,,,,,,,,,60fcf3eb42a66bd3c049121b,61036c19e0daa28e0a015a2f,2021-07-29_23h05.33.829,Simcolourproject_2stim_asymm_v5,2020.2.10,MacIntel,60,61025ae37ef11b136ea224fe,,,,,,,,,245,34,97,1,0,0,response1disk,,7,10,7,1,0,0,rectangle,10,7,1,0,0,10,7,1,0,0,1,117,277,147,1,,,,,,,,
,,,,,,,,,,,,,FF,,,,,,,,0.99,,,,,,,,,,,,,,,,,,,,,,60fcf3eb42a66bd3c049121b,61036c19e0daa28e0a015a2f,2021-07-29_23h05.33.829,Simcolourproject_2stim_asymm_v5,2020.2.10,MacIntel,60,61025ae37ef11b136ea224fe,,,,,,,,,1306,-84,-33,1,0,0,response5disk,,2,-19,-2,1,0,0,rectangle,-19,-2,1,0,0,-19,-2,1,0,0,1,118,278,33,1,,,,,,,,
,,,,,,,,,,,,,FF,,,,,,,,1.334,,,,,,,,,,,,,,,,,,,,,,60fcf3eb42a66bd3c049121b,61036c19e0daa28e0a015a2f,2021-07-29_23h05.33.829,Simcolourproject_2stim_asymm_v5,2020.2.10,MacIntel,60,61025ae37ef11b136ea224fe,,,,,,,,,1210,76,25,1,0,0,response1disk,,6,10,0,1,0,0,rectangle,10,0,1,0,0,10,0,1,0,0,1,119,279,28,1,,,,,,,,
,,,,,,,,,,,,,FF,,,,,,,,0.937,,,,,,,,,,,,,,,,,,,,,,60fcf3eb42a66bd3c049121b,61036c19e0daa28e0a015a2f,2021-07-29_23h05.33.829,Simcolourproject_2stim_asymm_v5,2020.2.10,MacIntel,60,61025ae37ef11b136ea224fe,,,,,,,,,41,33,59,1,0,0,response1disk,,7,1,-1,1,0,0,rectangle,1,-1,1,0,0,1,-1,1,0,0,1,120,280,117,1,,,,,,,,
,,,,,,,,,,,,,FF,,,,,,,,0.652,,,,,,,,,,,,,,,,,,,,,,60fcf3eb42a66bd3c049121b,61036c19e0daa28e0a015a2f,2021-07-29_23h05.33.829,Simcolourproject_2stim_asymm_v5,2020.2.10,MacIntel,60,61025ae37ef11b136ea224fe,,,,,,,,,2027,-68,43,1,0,0,response7disk,,1,-8,7,1,0,0,rectangle,-8,7,1,0,0,-8,7,1,0,0,1,121,281,78,1,,,,,,,,
,,,,,,,,,,,,,FF,,,,,,,,0.832,,,,,,,,,,,,,,,,,,,,,,60fcf3eb42a66bd3c049121b,61036c19e0daa28e0a015a2f,2021-07-29_23h05.33.829,Simcolourproject_2stim_asymm_v5,2020.2.10,MacIntel,60,61025ae37ef11b136ea224fe,,,,,,,,,551,-58,22,1,0,0,response7disk,,1,4,-18,1,0,0,rectangle,4,-18,1,0,0,4,-18,1,0,0,1,122,282,145,1,,,,,,,,
,,,,,,,,,,,,,FF,,,,,,,,0.715,,,,,,,,,,,,,,,,,,,,,,60fcf3eb42a66bd3c049121b,61036c19e0daa28e0a015a2f,2021-07-29_23h05.33.829,Simcolourproject_2stim_asymm_v5,2020.2.10,MacIntel,60,61025ae37ef11b136ea224fe,,,,,,,,,3345,39,74,1,0,0,response1disk,,7,16,14,1,0,0,rectangle,16,14,1,0,0,16,14,1,0,0,1,123,283,47,1,,,,,,,,
,,,,,,,,,,,,,FF,,,,,,,,0.602,,,,,,,,,,,,,,,,,,,,,,60fcf3eb42a66bd3c049121b,61036c19e0daa28e0a015a2f,2021-07-29_23h05.33.829,Simcolourproject_2stim_asymm_v5,2020.2.10,MacIntel,60,61025ae37ef11b136ea224fe,,,,,,,,,1711,42,79,1,0,0,response1disk,,7,12,8,1,0,0,rectangle,12,8,1,0,0,12,8,1,0,0,1,124,284,142,1,,,,,,,,
,,,,,,,,,,,,,FF,,,,,,,,0.602,,,,,,,,,,,,,,,,,,,,,,60fcf3eb42a66bd3c049121b,61036c19e0daa28e0a015a2f,2021-07-29_23h05.33.829,Simcolourproject_2stim_asymm_v5,2020.2.10,MacIntel,60,61025ae37ef11b136ea224fe,,,,,,,,,1336,38,71,1,0,0,response1disk,,7,26,3,1,0,0,rectangle,26,3,1,0,0,26,3,1,0,0,1,125,285,52,1,,,,,,,,
,,,,,,,,,,,,,FF,,,,,,,,1.223,,,,,,,,,,,,,,,,,,,,,,60fcf3eb42a66bd3c049121b,61036c19e0daa28e0a015a2f,2021-07-29_23h05.33.829,Simcolourproject_2stim_asymm_v5,2020.2.10,MacIntel,60,61025ae37ef11b136ea224fe,,,,,,,,,2536,-53,-64,1,0,0,response5disk,,3,-32,1,1,0,0,rectangle,-32,1,1,0,0,-32,1,1,0,0,1,126,286,131,1,,,,,,,,
,,,,,,,,,,,,,FF,,,,,,,,0.759,,,,,,,,,,,,,,,,,,,,,,60fcf3eb42a66bd3c049121b,61036c19e0daa28e0a015a2f,2021-07-29_23h05.33.829,Simcolourproject_2stim_asymm_v5,2020.2.10,MacIntel,60,61025ae37ef11b136ea224fe,,,,,,,,,2731,32,54,1,0,0,response1disk,,7,14,-2,1,0,0,rectangle,14,-2,1,0,0,14,-2,1,0,0,1,127,287,140,1,,,,,,,,
,,,,,,,,,,,,,FF,,,,,,,,0.588,,,,,,,,,,,,,,,,,,,,,,60fcf3eb42a66bd3c049121b,61036c19e0daa28e0a015a2f,2021-07-29_23h05.33.829,Simcolourproject_2stim_asymm_v5,2020.2.10,MacIntel,60,61025ae37ef11b136ea224fe,,,,,,,,,4055,77,37,1,0,0,response1disk,,6,23,11,1,0,0,rectangle,23,11,1,0,0,23,11,1,0,0,1,128,288,144,1,,,,,,,,
,,,,,,,,,,,,,FF,,,,,,,,1.147,,,,,,,,,,,,,,,,,,,,,,60fcf3eb42a66bd3c049121b,61036c19e0daa28e0a015a2f,2021-07-29_23h05.33.829,Simcolourproject_2stim_asymm_v5,2020.2.10,MacIntel,60,61025ae37ef11b136ea224fe,,,,,,,,,557,86,-53,1,0,0,response3disk,,5,-20,3,1,0,0,rectangle,-20,3,1,0,0,-20,3,1,0,0,1,129,289,149,1,,,,,,,,
,,,,,,,,,,,,,FF,,,,,,,,0.938,,,,,,,,,,,,,,,,,,,,,,60fcf3eb42a66bd3c049121b,61036c19e0daa28e0a015a2f,2021-07-29_23h05.33.829,Simcolourproject_2stim_asymm_v5,2020.2.10,MacIntel,60,61025ae37ef11b136ea224fe,,,,,,,,,425,37,65,1,0,0,response1disk,,7,13,1,1,0,0,rectangle,13,1,1,0,0,13,1,1,0,0,1,130,290,99,1,,,,,,,,
,,,,,,,,,,,,,FF,,,,,,,,1.435,,,,,,,,,,,,,,,,,,,,,,60fcf3eb42a66bd3c049121b,61036c19e0daa28e0a015a2f,2021-07-29_23h05.33.829,Simcolourproject_2stim_asymm_v5,2020.2.10,MacIntel,60,61025ae37ef11b136ea224fe,,,,,,,,,4229,60,-115,1,0,0,response3disk,,4,20,0,1,0,0,rectangle,20,0,1,0,0,20,0,1,0,0,1,131,291,37,1,,,,,,,,
,,,,,,,,,,,,,FF,,,,,,,,0.688,,,,,,,,,,,,,,,,,,,,,,60fcf3eb42a66bd3c049121b,61036c19e0daa28e0a015a2f,2021-07-29_23h05.33.829,Simcolourproject_2stim_asymm_v5,2020.2.10,MacIntel,60,61025ae37ef11b136ea224fe,,,,,,,,,2803,41,60,1,0,0,response1disk,,7,15,10,1,0,0,rectangle,15,10,1,0,0,15,10,1,0,0,1,132,292,138,1,,,,,,,,
,,,,,,,,,,,,,FF,,,,,,,,0.8,,,,,,,,,,,,,,,,,,,,,,60fcf3eb42a66bd3c049121b,61036c19e0daa28e0a015a2f,2021-07-29_23h05.33.829,Simcolourproject_2stim_asymm_v5,2020.2.10,MacIntel,60,61025ae37ef11b136ea224fe,,,,,,,,,2099,-69,31,1,0,0,response7disk,,1,-11,9,1,0,0,rectangle,-11,9,1,0,0,-11,9,1,0,0,1,133,293,132,1,,,,,,,,
,,,,,,,,,,,,,FF,,,,,,,,0.688,,,,,,,,,,,,,,,,,,,,,,60fcf3eb42a66bd3c049121b,61036c19e0daa28e0a015a2f,2021-07-29_23h05.33.829,Simcolourproject_2stim_asymm_v5,2020.2.10,MacIntel,60,61025ae37ef11b136ea224fe,,,,,,,,,573,29,79,1,0,0,response1disk,,7,10,3,1,0,0,rectangle,10,3,1,0,0,10,3,1,0,0,1,134,294,22,1,,,,,,,,
,,,,,,,,,,,,,FF,,,,,,,,1.119,,,,,,,,,,,,,,,,,,,,,,60fcf3eb42a66bd3c049121b,61036c19e0daa28e0a015a2f,2021-07-29_23h05.33.829,Simcolourproject_2stim_asymm_v5,2020.2.10,MacIntel,60,61025ae37ef11b136ea224fe,,,,,,,,,2059,34,77,1,0,0,response1disk,,7,12,8,1,0,0,rectangle,12,8,1,0,0,12,8,1,0,0,1,135,295,157,1,,,,,,,,
,,,,,,,,,,,,,FF,,,,,,,,1.611,,,,,,,,,,,,,,,,,,,,,,60fcf3eb42a66bd3c049121b,61036c19e0daa28e0a015a2f,2021-07-29_23h05.33.829,Simcolourproject_2stim_asymm_v5,2020.2.10,MacIntel,60,61025ae37ef11b136ea224fe,,,,,,,,,3856,40,-77,1,0,0,response3disk,,4,19,-9,1,0,0,rectangle,19,-9,1,0,0,19,-9,1,0,0,1,136,296,88,1,,,,,,,,
,,,,,,,,,,,,,FF,,,,,,,,0.936,,,,,,,,,,,,,,,,,,,,,,60fcf3eb42a66bd3c049121b,61036c19e0daa28e0a015a2f,2021-07-29_23h05.33.829,Simcolourproject_2stim_asymm_v5,2020.2.10,MacIntel,60,61025ae37ef11b136ea224fe,,,,,,,,,7,-28,-58,1,0,0,response5disk,,3,-3,11,1,0,0,rectangle,-3,11,1,0,0,-3,11,1,0,0,1,137,297,23,1,,,,,,,,
,,,,,,,,,,,,,FF,,,,,,,,0.653,,,,,,,,,,,,,,,,,,,,,,60fcf3eb42a66bd3c049121b,61036c19e0daa28e0a015a2f,2021-07-29_23h05.33.829,Simcolourproject_2stim_asymm_v5,2020.2.10,MacIntel,60,61025ae37ef11b136ea224fe,,,,,,,,,2247,35,72,1,0,0,response1disk,,7,11,4,1,0,0,rectangle,11,4,1,0,0,11,4,1,0,0,1,138,298,80,1,,,,,,,,
,,,,,,,,,,,,,FF,,,,,,,,0.7,,,,,,,,,,,,,,,,,,,,,,60fcf3eb42a66bd3c049121b,61036c19e0daa28e0a015a2f,2021-07-29_23h05.33.829,Simcolourproject_2stim_asymm_v5,2020.2.10,MacIntel,60,61025ae37ef11b136ea224fe,,,,,,,,,3045,-40,79,1,0,0,response7disk,,0,-13,5,1,0,0,rectangle,-13,5,1,0,0,-13,5,1,0,0,1,139,299,15,1,,,,,,,,
,,,,,,,,,,,,,FF,,,,,,,,0.651,,,,,,,,,,,,,,,,,,,,,,60fcf3eb42a66bd3c049121b,61036c19e0daa28e0a015a2f,2021-07-29_23h05.33.829,Simcolourproject_2stim_asymm_v5,2020.2.10,MacIntel,60,61025ae37ef11b136ea224fe,,,,,,,,,799,40,69,1,0,0,response1disk,,7,15,7,1,0,0,rectangle,15,7,1,0,0,15,7,1,0,0,1,140,300,20,1,,,,,,,,
,,,,,,,,,,,,,FF,,,,,,,,1.505,,,,,,,,,,,,,,,,,,,,,,60fcf3eb42a66bd3c049121b,61036c19e0daa28e0a015a2f,2021-07-29_23h05.33.829,Simcolourproject_2stim_asymm_v5,2020.2.10,MacIntel,60,61025ae37ef11b136ea224fe,,,,,,,,,1860,30,76,1,0,0,response1disk,,7,0,3,1,0,0,rectangle,0,3,1,0,0,0,3,1,0,0,1,141,301,156,1,,,,,,,,
