key_resp.keys,key_resp.rt,key_resp_14.keys,key_resp_14.rt,key_resp_15.keys,key_resp_15.rt,key_resp_17.keys,key_resp_17.rt,key_resp_9.keys,key_resp_9.rt,key_resp_10.keys,key_resp_10.rt,practice_comparison,Ecc,mouse_5.x,mouse_5.y,mouse_5.leftButton,mouse_5.midButton,mouse_5.rightButton,mouse_5.clicked_name,pracsimilarity,response_time,mouse_10.x,mouse_10.y,mouse_10.leftButton,mouse_10.midButton,mouse_10.rightButton,mouse_10.clicked_name,mouse_7.x,mouse_7.y,mouse_7.leftButton,mouse_7.midButton,mouse_7.rightButton,mouse_6.x,mouse_6.y,mouse_6.leftButton,mouse_6.midButton,mouse_6.rightButton,duringprac.thisRepN,duringprac.thisTrialN,duringprac.thisN,duringprac.thisIndex,duringprac.ran,participant,session,date,expName,psychopyVersion,OS,frameRate,study_id,mouse_7.clicked_name,catchpracsimilarity,catch_response_time,catchnumberprac,catchtrialorderprac,mouse_6.clicked_name,key_resp_22.keys,key_resp_22.rt,realcomparison,mouse.x,mouse.y,mouse.leftButton,mouse.midButton,mouse.rightButton,mouse.clicked_name,Colour2,similarity,mouse_2.x,mouse_2.y,mouse_2.leftButton,mouse_2.midButton,mouse_2.rightButton,mouse_2.clicked_name,mouse_3.x,mouse_3.y,mouse_3.leftButton,mouse_3.midButton,mouse_3.rightButton,mouse_11.x,mouse_11.y,mouse_11.leftButton,mouse_11.midButton,mouse_11.rightButton,trials_2.thisRepN,trials_2.thisTrialN,trials_2.thisN,trials_2.thisIndex,trials_2.ran,Colour1,mouse_3.clicked_name,catchornah,catchsimilarity,catchnumber,catchtrialorder,catchRT,mouse_11.clicked_name
space,1.57458,space,5.30674,space,23.44964,space,4.201,space,2.314375,space,4.04922,148,PF,120,-72,1,0,0,response3disk_5,5,14.06673,7,0,1,0,0,rectangle_8,7,0,1,0,0,7,0,1,0,0,0,0,0,2,1,60fcac2063bbc8bce2700ad5,61036eddd99f010363a36d98,2021-07-29_22h18.04.257,Simcolourproject_2stim_asymm_v5,2020.2.10,Win32,60,61025ae37ef11b136ea224fe,,,,,,,,,,,,,,,,,,,,,,,,,,,,,,,,,,,,,,,,,,,,,,
,,,,,,,,,,,,129,PF,119,-54,1,0,0,response3disk_5,5,5.85009,17,8,1,0,0,rectangle_8,-62,-110,1,0,0,-18,17,1,0,0,0,1,1,6,1,60fcac2063bbc8bce2700ad5,61036eddd99f010363a36d98,2021-07-29_22h18.04.257,Simcolourproject_2stim_asymm_v5,2020.2.10,Win32,60,61025ae37ef11b136ea224fe,response5disk_7,3,2.80204,3,"[2,5]",rectangle_4,,,,,,,,,,,,,,,,,,,,,,,,,,,,,,,,,,,,,,,,
,,,,,,,,,,,,26,FF,-89,-55,1,0,0,response5disk_5,2,1.81697,-16,1,1,0,0,rectangle_8,-16,1,1,0,0,-16,1,1,0,0,0,2,2,3,1,60fcac2063bbc8bce2700ad5,61036eddd99f010363a36d98,2021-07-29_22h18.04.257,Simcolourproject_2stim_asymm_v5,2020.2.10,Win32,60,61025ae37ef11b136ea224fe,,,,,,,,,,,,,,,,,,,,,,,,,,,,,,,,,,,,,,,,,,,,,,
,,,,,,,,,,,,135,PF,-60,-80,1,0,0,response5disk_5,3,1.74196,-33,-11,1,0,0,rectangle_8,-33,-11,1,0,0,-33,-11,1,0,0,0,3,3,4,1,60fcac2063bbc8bce2700ad5,61036eddd99f010363a36d98,2021-07-29_22h18.04.257,Simcolourproject_2stim_asymm_v5,2020.2.10,Win32,60,61025ae37ef11b136ea224fe,,,,,,,,,,,,,,,,,,,,,,,,,,,,,,,,,,,,,,,,,,,,,,
,,,,,,,,,,,,129,FF,61,-116,1,0,0,response3disk_5,4,1.511255,-23,-5,1,0,0,rectangle_8,-54,-131,1,0,0,-33,1,1,0,0,0,4,4,5,1,60fcac2063bbc8bce2700ad5,61036eddd99f010363a36d98,2021-07-29_22h18.04.257,Simcolourproject_2stim_asymm_v5,2020.2.10,Win32,60,61025ae37ef11b136ea224fe,response5disk_7,3,1.483625,3,"[2,5]",rectangle_4,,,,,,,,,,,,,,,,,,,,,,,,,,,,,,,,,,,,,,,,
,,,,,,,,,,,,84,FF,85,-137,1,0,0,response3disk_5,4,2.277275,-16,-5,1,0,0,rectangle_8,-16,-5,1,0,0,-16,-5,1,0,0,0,5,5,0,1,60fcac2063bbc8bce2700ad5,61036eddd99f010363a36d98,2021-07-29_22h18.04.257,Simcolourproject_2stim_asymm_v5,2020.2.10,Win32,60,61025ae37ef11b136ea224fe,,,,,,,,,,,,,,,,,,,,,,,,,,,,,,,,,,,,,,,,,,,,,,
,,,,,,,,,,,,101,PF,-64,-56,1,0,0,response5disk_5,2,1.100935,-16,-4,1,0,0,rectangle_8,-16,-4,1,0,0,-16,-4,1,0,0,0,6,6,1,1,60fcac2063bbc8bce2700ad5,61036eddd99f010363a36d98,2021-07-29_22h18.04.257,Simcolourproject_2stim_asymm_v5,2020.2.10,Win32,60,61025ae37ef11b136ea224fe,,,,,,,,,,,,,,,,,,,,,,,,,,,,,,,,,,,,,,,,,,,,,,
,,,,,,,,,,,,,FF,,,,,,,,1.966785,,,,,,,,,,,,,,,,,,,,,,60fcac2063bbc8bce2700ad5,61036eddd99f010363a36d98,2021-07-29_22h18.04.257,Simcolourproject_2stim_asymm_v5,2020.2.10,Win32,60,61025ae37ef11b136ea224fe,,,,,,,space,2.910625,2210,107,24,1,0,0,response1disk,,6,-42,19,1,0,0,rectangle,-42,19,1,0,0,-42,19,1,0,0,0,0,0,69,1,,,,,,,,
,,,,,,,,,,,,,FF,,,,,,,,0.883035,,,,,,,,,,,,,,,,,,,,,,60fcac2063bbc8bce2700ad5,61036eddd99f010363a36d98,2021-07-29_22h18.04.257,Simcolourproject_2stim_asymm_v5,2020.2.10,Win32,60,61025ae37ef11b136ea224fe,,,,,,,,,2947,-98,-69,1,0,0,response5disk,,2,5,14,1,0,0,rectangle,42,-110,1,0,0,-21,13,1,0,0,0,1,1,87,1,,response3disk_3,TRUE,4,4,"[263,146,214,296,183,206,152,148,287,155,273,311,141,279,212,74,166,225,2,284]",1.60163,rectangle
,,,,,,,,,,,,,FF,,,,,,,,0.90947,,,,,,,,,,,,,,,,,,,,,,60fcac2063bbc8bce2700ad5,61036eddd99f010363a36d98,2021-07-29_22h18.04.257,Simcolourproject_2stim_asymm_v5,2020.2.10,Win32,60,61025ae37ef11b136ea224fe,,,,,,,,,3046,-142,46,1,0,0,response7disk,,1,-33,5,1,0,0,rectangle,-33,5,1,0,0,-33,5,1,0,0,0,2,2,59,1,,,,,,,,
,,,,,,,,,,,,,FF,,,,,,,,1.01739,,,,,,,,,,,,,,,,,,,,,,60fcac2063bbc8bce2700ad5,61036eddd99f010363a36d98,2021-07-29_22h18.04.257,Simcolourproject_2stim_asymm_v5,2020.2.10,Win32,60,61025ae37ef11b136ea224fe,,,,,,,,,1225,-69,-108,1,0,0,response5disk,,3,-26,6,1,0,0,rectangle,-26,6,1,0,0,-26,6,1,0,0,0,3,3,44,1,,,,,,,,
,,,,,,,,,,,,,FF,,,,,,,,1.501725,,,,,,,,,,,,,,,,,,,,,,60fcac2063bbc8bce2700ad5,61036eddd99f010363a36d98,2021-07-29_22h18.04.257,Simcolourproject_2stim_asymm_v5,2020.2.10,Win32,60,61025ae37ef11b136ea224fe,,,,,,,,,1068,100,-35,1,0,0,response3disk,,5,18,-18,1,0,0,rectangle,18,-18,1,0,0,18,-18,1,0,0,0,4,4,67,1,,,,,,,,
,,,,,,,,,,,,,FF,,,,,,,,1.35056,,,,,,,,,,,,,,,,,,,,,,60fcac2063bbc8bce2700ad5,61036eddd99f010363a36d98,2021-07-29_22h18.04.257,Simcolourproject_2stim_asymm_v5,2020.2.10,Win32,60,61025ae37ef11b136ea224fe,,,,,,,,,3677,93,-123,1,0,0,response3disk,,4,-2,3,1,0,0,rectangle,-2,3,1,0,0,-2,3,1,0,0,0,5,5,66,1,,,,,,,,
,,,,,,,,,,,,,FF,,,,,,,,1.23752,,,,,,,,,,,,,,,,,,,,,,60fcac2063bbc8bce2700ad5,61036eddd99f010363a36d98,2021-07-29_22h18.04.257,Simcolourproject_2stim_asymm_v5,2020.2.10,Win32,60,61025ae37ef11b136ea224fe,,,,,,,,,4033,-28,-114,1,0,0,response5disk,,3,9,3,1,0,0,rectangle,9,3,1,0,0,9,3,1,0,0,0,6,6,79,1,,,,,,,,
,,,,,,,,,,,,,FF,,,,,,,,1.526375,,,,,,,,,,,,,,,,,,,,,,60fcac2063bbc8bce2700ad5,61036eddd99f010363a36d98,2021-07-29_22h18.04.257,Simcolourproject_2stim_asymm_v5,2020.2.10,Win32,60,61025ae37ef11b136ea224fe,,,,,,,,,2245,69,-110,1,0,0,response3disk,,4,1,-11,1,0,0,rectangle,1,-11,1,0,0,1,-11,1,0,0,0,7,7,81,1,,,,,,,,
,,,,,,,,,,,,,FF,,,,,,,,1.373715,,,,,,,,,,,,,,,,,,,,,,60fcac2063bbc8bce2700ad5,61036eddd99f010363a36d98,2021-07-29_22h18.04.257,Simcolourproject_2stim_asymm_v5,2020.2.10,Win32,60,61025ae37ef11b136ea224fe,,,,,,,,,3661,-111,-61,1,0,0,response5disk,,2,-26,0,1,0,0,rectangle,-26,0,1,0,0,-26,0,1,0,0,0,8,8,74,1,,,,,,,,
,,,,,,,,,,,,,FF,,,,,,,,1.015785,,,,,,,,,,,,,,,,,,,,,,60fcac2063bbc8bce2700ad5,61036eddd99f010363a36d98,2021-07-29_22h18.04.257,Simcolourproject_2stim_asymm_v5,2020.2.10,Win32,60,61025ae37ef11b136ea224fe,,,,,,,,,898,44,-111,1,0,0,response3disk,,4,17,-15,1,0,0,rectangle,17,-15,1,0,0,17,-15,1,0,0,0,9,9,154,1,,,,,,,,
,,,,,,,,,,,,,FF,,,,,,,,1.4474,,,,,,,,,,,,,,,,,,,,,,60fcac2063bbc8bce2700ad5,61036eddd99f010363a36d98,2021-07-29_22h18.04.257,Simcolourproject_2stim_asymm_v5,2020.2.10,Win32,60,61025ae37ef11b136ea224fe,,,,,,,,,3901,-36,-91,1,0,0,response5disk,,3,-3,-4,1,0,0,rectangle,-3,-4,1,0,0,-3,-4,1,0,0,0,10,10,95,1,,,,,,,,
,,,,,,,,,,,,,FF,,,,,,,,1.267555,,,,,,,,,,,,,,,,,,,,,,60fcac2063bbc8bce2700ad5,61036eddd99f010363a36d98,2021-07-29_22h18.04.257,Simcolourproject_2stim_asymm_v5,2020.2.10,Win32,60,61025ae37ef11b136ea224fe,,,,,,,,,219,100,-37,1,0,0,response3disk,,5,28,13,1,0,0,rectangle,28,13,1,0,0,28,13,1,0,0,0,11,11,93,1,,,,,,,,
,,,,,,,,,,,,,FF,,,,,,,,0.76739,,,,,,,,,,,,,,,,,,,,,,60fcac2063bbc8bce2700ad5,61036eddd99f010363a36d98,2021-07-29_22h18.04.257,Simcolourproject_2stim_asymm_v5,2020.2.10,Win32,60,61025ae37ef11b136ea224fe,,,,,,,,,3204,-105,-76,1,0,0,response5disk,,2,-35,9,1,0,0,rectangle,-35,9,1,0,0,-35,9,1,0,0,0,12,12,89,1,,,,,,,,
,,,,,,,,,,,,,FF,,,,,,,,0.7216,,,,,,,,,,,,,,,,,,,,,,60fcac2063bbc8bce2700ad5,61036eddd99f010363a36d98,2021-07-29_22h18.04.257,Simcolourproject_2stim_asymm_v5,2020.2.10,Win32,60,61025ae37ef11b136ea224fe,,,,,,,,,429,67,-113,1,0,0,response3disk,,4,-4,18,1,0,0,rectangle,-4,18,1,0,0,-4,18,1,0,0,0,13,13,131,1,,,,,,,,
,,,,,,,,,,,,,FF,,,,,,,,1.51302,,,,,,,,,,,,,,,,,,,,,,60fcac2063bbc8bce2700ad5,61036eddd99f010363a36d98,2021-07-29_22h18.04.257,Simcolourproject_2stim_asymm_v5,2020.2.10,Win32,60,61025ae37ef11b136ea224fe,,,,,,,,,4199,71,108,1,0,0,response1disk,,7,44,-4,1,0,0,rectangle,44,-4,1,0,0,44,-4,1,0,0,0,14,14,17,1,,,,,,,,
,,,,,,,,,,,,,FF,,,,,,,,1.182525,,,,,,,,,,,,,,,,,,,,,,60fcac2063bbc8bce2700ad5,61036eddd99f010363a36d98,2021-07-29_22h18.04.257,Simcolourproject_2stim_asymm_v5,2020.2.10,Win32,60,61025ae37ef11b136ea224fe,,,,,,,,,3889,124,-63,1,0,0,response3disk,,5,-11,0,1,0,0,rectangle,-11,0,1,0,0,-11,0,1,0,0,0,15,15,148,1,,,,,,,,
,,,,,,,,,,,,,FF,,,,,,,,2.616625,,,,,,,,,,,,,,,,,,,,,,60fcac2063bbc8bce2700ad5,61036eddd99f010363a36d98,2021-07-29_22h18.04.257,Simcolourproject_2stim_asymm_v5,2020.2.10,Win32,60,61025ae37ef11b136ea224fe,,,,,,,,,634,-61,-50,1,0,0,response5disk,,2,-3,3,1,0,0,rectangle,-3,3,1,0,0,-3,3,1,0,0,0,16,16,117,1,,,,,,,,
,,,,,,,,,,,,,FF,,,,,,,,0.72812,,,,,,,,,,,,,,,,,,,,,,60fcac2063bbc8bce2700ad5,61036eddd99f010363a36d98,2021-07-29_22h18.04.257,Simcolourproject_2stim_asymm_v5,2020.2.10,Win32,60,61025ae37ef11b136ea224fe,,,,,,,,,717,-99,57,1,0,0,response7disk,,1,-20,0,1,0,0,rectangle,-20,0,1,0,0,-20,0,1,0,0,0,17,17,114,1,,,,,,,,
,,,,,,,,,,,,,FF,,,,,,,,1.23846,,,,,,,,,,,,,,,,,,,,,,60fcac2063bbc8bce2700ad5,61036eddd99f010363a36d98,2021-07-29_22h18.04.257,Simcolourproject_2stim_asymm_v5,2020.2.10,Win32,60,61025ae37ef11b136ea224fe,,,,,,,,,1861,114,48,1,0,0,response1disk,,6,30,-3,1,0,0,rectangle,30,-3,1,0,0,30,-3,1,0,0,0,18,18,86,1,,,,,,,,
,,,,,,,,,,,,,FF,,,,,,,,1.083995,,,,,,,,,,,,,,,,,,,,,,60fcac2063bbc8bce2700ad5,61036eddd99f010363a36d98,2021-07-29_22h18.04.257,Simcolourproject_2stim_asymm_v5,2020.2.10,Win32,60,61025ae37ef11b136ea224fe,,,,,,,,,3019,101,-41,1,0,0,response3disk,,5,21,3,1,0,0,rectangle,21,3,1,0,0,21,3,1,0,0,0,19,19,122,1,,,,,,,,
,,,,,,,,,,,,,FF,,,,,,,,0.72559,,,,,,,,,,,,,,,,,,,,,,60fcac2063bbc8bce2700ad5,61036eddd99f010363a36d98,2021-07-29_22h18.04.257,Simcolourproject_2stim_asymm_v5,2020.2.10,Win32,60,61025ae37ef11b136ea224fe,,,,,,,,,1853,54,-80,1,0,0,response3disk,,4,7,9,1,0,0,rectangle,7,9,1,0,0,7,9,1,0,0,0,20,20,138,1,,,,,,,,
,,,,,,,,,,,,,FF,,,,,,,,1.03501,,,,,,,,,,,,,,,,,,,,,,60fcac2063bbc8bce2700ad5,61036eddd99f010363a36d98,2021-07-29_22h18.04.257,Simcolourproject_2stim_asymm_v5,2020.2.10,Win32,60,61025ae37ef11b136ea224fe,,,,,,,,,1995,80,-28,1,0,0,response3disk,,5,44,1,1,0,0,rectangle,44,1,1,0,0,44,1,1,0,0,0,21,21,142,1,,,,,,,,
,,,,,,,,,,,,,FF,,,,,,,,0.7022,,,,,,,,,,,,,,,,,,,,,,60fcac2063bbc8bce2700ad5,61036eddd99f010363a36d98,2021-07-29_22h18.04.257,Simcolourproject_2stim_asymm_v5,2020.2.10,Win32,60,61025ae37ef11b136ea224fe,,,,,,,,,2101,-106,-48,1,0,0,response5disk,,2,-47,18,1,0,0,rectangle,-47,18,1,0,0,-47,18,1,0,0,0,22,22,90,1,,,,,,,,
,,,,,,,,,,,,,FF,,,,,,,,0.784445,,,,,,,,,,,,,,,,,,,,,,60fcac2063bbc8bce2700ad5,61036eddd99f010363a36d98,2021-07-29_22h18.04.257,Simcolourproject_2stim_asymm_v5,2020.2.10,Win32,60,61025ae37ef11b136ea224fe,,,,,,,,,1527,-33,-94,1,0,0,response5disk,,3,-8,4,1,0,0,rectangle,-8,4,1,0,0,-8,4,1,0,0,0,23,23,146,1,,,,,,,,
,,,,,,,,,,,,,FF,,,,,,,,1.46695,,,,,,,,,,,,,,,,,,,,,,60fcac2063bbc8bce2700ad5,61036eddd99f010363a36d98,2021-07-29_22h18.04.257,Simcolourproject_2stim_asymm_v5,2020.2.10,Win32,60,61025ae37ef11b136ea224fe,,,,,,,,,3088,48,-93,1,0,0,response3disk,,4,13,-4,1,0,0,rectangle,13,-4,1,0,0,13,-4,1,0,0,0,24,24,34,1,,,,,,,,
,,,,,,,,,,,,,FF,,,,,,,,0.950295,,,,,,,,,,,,,,,,,,,,,,60fcac2063bbc8bce2700ad5,61036eddd99f010363a36d98,2021-07-29_22h18.04.257,Simcolourproject_2stim_asymm_v5,2020.2.10,Win32,60,61025ae37ef11b136ea224fe,,,,,,,,,142,27,65,1,0,0,response1disk,,7,38,-19,1,0,0,rectangle,38,-19,1,0,0,38,-19,1,0,0,0,25,25,55,1,,,,,,,,
,,,,,,,,,,,,,FF,,,,,,,,0.766395,,,,,,,,,,,,,,,,,,,,,,60fcac2063bbc8bce2700ad5,61036eddd99f010363a36d98,2021-07-29_22h18.04.257,Simcolourproject_2stim_asymm_v5,2020.2.10,Win32,60,61025ae37ef11b136ea224fe,,,,,,,,,1897,-78,-80,1,0,0,response5disk,,3,-30,16,1,0,0,rectangle,-30,16,1,0,0,-30,16,1,0,0,0,26,26,48,1,,,,,,,,
,,,,,,,,,,,,,FF,,,,,,,,0.86673,,,,,,,,,,,,,,,,,,,,,,60fcac2063bbc8bce2700ad5,61036eddd99f010363a36d98,2021-07-29_22h18.04.257,Simcolourproject_2stim_asymm_v5,2020.2.10,Win32,60,61025ae37ef11b136ea224fe,,,,,,,,,513,22,63,1,0,0,response1disk,,7,20,-4,1,0,0,rectangle,20,-4,1,0,0,20,-4,1,0,0,0,27,27,20,1,,,,,,,,
,,,,,,,,,,,,,FF,,,,,,,,0.717615,,,,,,,,,,,,,,,,,,,,,,60fcac2063bbc8bce2700ad5,61036eddd99f010363a36d98,2021-07-29_22h18.04.257,Simcolourproject_2stim_asymm_v5,2020.2.10,Win32,60,61025ae37ef11b136ea224fe,,,,,,,,,2763,54,-60,1,0,0,response3disk,,4,-4,-19,1,0,0,rectangle,-4,-19,1,0,0,-4,-19,1,0,0,0,28,28,133,1,,,,,,,,
,,,,,,,,,,,,,FF,,,,,,,,0.633705,,,,,,,,,,,,,,,,,,,,,,60fcac2063bbc8bce2700ad5,61036eddd99f010363a36d98,2021-07-29_22h18.04.257,Simcolourproject_2stim_asymm_v5,2020.2.10,Win32,60,61025ae37ef11b136ea224fe,,,,,,,,,2867,73,-24,1,0,0,response3disk,,5,6,-2,1,0,0,rectangle,6,-2,1,0,0,6,-2,1,0,0,0,29,29,92,1,,,,,,,,
,,,,,,,,,,,,,FF,,,,,,,,0.916375,,,,,,,,,,,,,,,,,,,,,,60fcac2063bbc8bce2700ad5,61036eddd99f010363a36d98,2021-07-29_22h18.04.257,Simcolourproject_2stim_asymm_v5,2020.2.10,Win32,60,61025ae37ef11b136ea224fe,,,,,,,,,589,28,66,1,0,0,response1disk,,7,23,6,1,0,0,rectangle,23,6,1,0,0,23,6,1,0,0,0,30,30,30,1,,,,,,,,
,,,,,,,,,,,,,FF,,,,,,,,0.816575,,,,,,,,,,,,,,,,,,,,,,60fcac2063bbc8bce2700ad5,61036eddd99f010363a36d98,2021-07-29_22h18.04.257,Simcolourproject_2stim_asymm_v5,2020.2.10,Win32,60,61025ae37ef11b136ea224fe,,,,,,,,,4231,49,92,1,0,0,response1disk,,7,18,-8,1,0,0,rectangle,18,-8,1,0,0,18,-8,1,0,0,0,31,31,107,1,,,,,,,,
,,,,,,,,,,,,,FF,,,,,,,,0.950295,,,,,,,,,,,,,,,,,,,,,,60fcac2063bbc8bce2700ad5,61036eddd99f010363a36d98,2021-07-29_22h18.04.257,Simcolourproject_2stim_asymm_v5,2020.2.10,Win32,60,61025ae37ef11b136ea224fe,,,,,,,,,2328,77,46,1,0,0,response1disk,,6,37,14,1,0,0,rectangle,37,14,1,0,0,37,14,1,0,0,0,32,32,85,1,,,,,,,,
,,,,,,,,,,,,,FF,,,,,,,,0.683695,,,,,,,,,,,,,,,,,,,,,,60fcac2063bbc8bce2700ad5,61036eddd99f010363a36d98,2021-07-29_22h18.04.257,Simcolourproject_2stim_asymm_v5,2020.2.10,Win32,60,61025ae37ef11b136ea224fe,,,,,,,,,3541,67,-34,1,0,0,response3disk,,5,27,-4,1,0,0,rectangle,27,-4,1,0,0,27,-4,1,0,0,0,33,33,140,1,,,,,,,,
,,,,,,,,,,,,,FF,,,,,,,,0.66642,,,,,,,,,,,,,,,,,,,,,,60fcac2063bbc8bce2700ad5,61036eddd99f010363a36d98,2021-07-29_22h18.04.257,Simcolourproject_2stim_asymm_v5,2020.2.10,Win32,60,61025ae37ef11b136ea224fe,,,,,,,,,2640,33,80,1,0,0,response1disk,,7,11,11,1,0,0,rectangle,11,11,1,0,0,11,11,1,0,0,0,34,34,135,1,,,,,,,,
,,,,,,,,,,,,,FF,,,,,,,,0.80411,,,,,,,,,,,,,,,,,,,,,,60fcac2063bbc8bce2700ad5,61036eddd99f010363a36d98,2021-07-29_22h18.04.257,Simcolourproject_2stim_asymm_v5,2020.2.10,Win32,60,61025ae37ef11b136ea224fe,,,,,,,,,2828,-116,-37,1,0,0,response5disk,,2,-48,1,1,0,0,rectangle,-48,1,1,0,0,-48,1,1,0,0,0,35,35,31,1,,,,,,,,
,,,,,,,,,,,,,FF,,,,,,,,0.766945,,,,,,,,,,,,,,,,,,,,,,60fcac2063bbc8bce2700ad5,61036eddd99f010363a36d98,2021-07-29_22h18.04.257,Simcolourproject_2stim_asymm_v5,2020.2.10,Win32,60,61025ae37ef11b136ea224fe,,,,,,,,,126,70,-129,1,0,0,response3disk,,4,17,-2,1,0,0,rectangle,17,-2,1,0,0,17,-2,1,0,0,0,36,36,76,1,,,,,,,,
,,,,,,,,,,,,,FF,,,,,,,,0.75021,,,,,,,,,,,,,,,,,,,,,,60fcac2063bbc8bce2700ad5,61036eddd99f010363a36d98,2021-07-29_22h18.04.257,Simcolourproject_2stim_asymm_v5,2020.2.10,Win32,60,61025ae37ef11b136ea224fe,,,,,,,,,2809,52,-27,1,0,0,response3disk,,5,25,8,1,0,0,rectangle,25,8,1,0,0,25,8,1,0,0,0,37,37,152,1,,,,,,,,
,,,,,,,,,,,,,FF,,,,,,,,0.750885,,,,,,,,,,,,,,,,,,,,,,60fcac2063bbc8bce2700ad5,61036eddd99f010363a36d98,2021-07-29_22h18.04.257,Simcolourproject_2stim_asymm_v5,2020.2.10,Win32,60,61025ae37ef11b136ea224fe,,,,,,,,,3118,80,-30,1,0,0,response3disk,,5,37,0,1,0,0,rectangle,37,0,1,0,0,37,0,1,0,0,0,38,38,5,1,,,,,,,,
,,,,,,,,,,,,,FF,,,,,,,,0.649685,,,,,,,,,,,,,,,,,,,,,,60fcac2063bbc8bce2700ad5,61036eddd99f010363a36d98,2021-07-29_22h18.04.257,Simcolourproject_2stim_asymm_v5,2020.2.10,Win32,60,61025ae37ef11b136ea224fe,,,,,,,,,96,-43,-96,1,0,0,response5disk,,3,-15,-7,1,0,0,rectangle,-15,-7,1,0,0,-15,-7,1,0,0,0,39,39,60,1,,,,,,,,
,,,,,,,,,,,,,FF,,,,,,,,0.76647,,,,,,,,,,,,,,,,,,,,,,60fcac2063bbc8bce2700ad5,61036eddd99f010363a36d98,2021-07-29_22h18.04.257,Simcolourproject_2stim_asymm_v5,2020.2.10,Win32,60,61025ae37ef11b136ea224fe,,,,,,,,,588,26,78,1,0,0,response1disk,,7,14,6,1,0,0,rectangle,14,6,1,0,0,14,6,1,0,0,0,40,40,91,1,,,,,,,,
,,,,,,,,,,,,,FF,,,,,,,,0.88379,,,,,,,,,,,,,,,,,,,,,,60fcac2063bbc8bce2700ad5,61036eddd99f010363a36d98,2021-07-29_22h18.04.257,Simcolourproject_2stim_asymm_v5,2020.2.10,Win32,60,61025ae37ef11b136ea224fe,,,,,,,,,3484,92,-23,1,0,0,response3disk,,5,40,-1,1,0,0,rectangle,40,-1,1,0,0,40,-1,1,0,0,0,41,41,25,1,,,,,,,,
,,,,,,,,,,,,,FF,,,,,,,,0.58313,,,,,,,,,,,,,,,,,,,,,,60fcac2063bbc8bce2700ad5,61036eddd99f010363a36d98,2021-07-29_22h18.04.257,Simcolourproject_2stim_asymm_v5,2020.2.10,Win32,60,61025ae37ef11b136ea224fe,,,,,,,,,4239,-27,-90,1,0,0,response5disk,,3,1,-15,1,0,0,rectangle,1,-15,1,0,0,1,-15,1,0,0,0,42,42,75,1,,,,,,,,
,,,,,,,,,,,,,FF,,,,,,,,0.69836,,,,,,,,,,,,,,,,,,,,,,60fcac2063bbc8bce2700ad5,61036eddd99f010363a36d98,2021-07-29_22h18.04.257,Simcolourproject_2stim_asymm_v5,2020.2.10,Win32,60,61025ae37ef11b136ea224fe,,,,,,,,,2226,-115,42,1,0,0,response7disk,,1,-40,-4,1,0,0,rectangle,-40,-4,1,0,0,-40,-4,1,0,0,0,43,43,54,1,,,,,,,,
,,,,,,,,,,,,,FF,,,,,,,,2.16709,,,,,,,,,,,,,,,,,,,,,,60fcac2063bbc8bce2700ad5,61036eddd99f010363a36d98,2021-07-29_22h18.04.257,Simcolourproject_2stim_asymm_v5,2020.2.10,Win32,60,61025ae37ef11b136ea224fe,,,,,,,,,1257,99,-46,1,0,0,response3disk,,5,-18,8,1,0,0,rectangle,-18,8,1,0,0,-18,8,1,0,0,0,44,44,100,1,,,,,,,,
,,,,,,,,,,,,,FF,,,,,,,,0.61637,,,,,,,,,,,,,,,,,,,,,,60fcac2063bbc8bce2700ad5,61036eddd99f010363a36d98,2021-07-29_22h18.04.257,Simcolourproject_2stim_asymm_v5,2020.2.10,Win32,60,61025ae37ef11b136ea224fe,,,,,,,,,2390,69,-44,1,0,0,response3disk,,5,-11,-7,1,0,0,rectangle,-11,-7,1,0,0,-11,-7,1,0,0,0,45,45,73,1,,,,,,,,
,,,,,,,,,,,,,FF,,,,,,,,0.733615,,,,,,,,,,,,,,,,,,,,,,60fcac2063bbc8bce2700ad5,61036eddd99f010363a36d98,2021-07-29_22h18.04.257,Simcolourproject_2stim_asymm_v5,2020.2.10,Win32,60,61025ae37ef11b136ea224fe,,,,,,,,,3871,35,64,1,0,0,response1disk,,7,21,3,1,0,0,rectangle,21,3,1,0,0,21,3,1,0,0,0,46,46,32,1,,,,,,,,
,,,,,,,,,,,,,FF,,,,,,,,0.983685,,,,,,,,,,,,,,,,,,,,,,60fcac2063bbc8bce2700ad5,61036eddd99f010363a36d98,2021-07-29_22h18.04.257,Simcolourproject_2stim_asymm_v5,2020.2.10,Win32,60,61025ae37ef11b136ea224fe,,,,,,,,,2418,-73,102,1,0,0,response7disk,,0,-42,10,1,0,0,rectangle,-42,10,1,0,0,-42,10,1,0,0,0,47,47,33,1,,,,,,,,
,,,,,,,,,,,,,FF,,,,,,,,0.599845,,,,,,,,,,,,,,,,,,,,,,60fcac2063bbc8bce2700ad5,61036eddd99f010363a36d98,2021-07-29_22h18.04.257,Simcolourproject_2stim_asymm_v5,2020.2.10,Win32,60,61025ae37ef11b136ea224fe,,,,,,,,,2592,54,72,1,0,0,response1disk,,7,18,-20,1,0,0,rectangle,18,-20,1,0,0,18,-20,1,0,0,0,48,48,121,1,,,,,,,,
,,,,,,,,,,,,,FF,,,,,,,,0.81529,,,,,,,,,,,,,,,,,,,,,,60fcac2063bbc8bce2700ad5,61036eddd99f010363a36d98,2021-07-29_22h18.04.257,Simcolourproject_2stim_asymm_v5,2020.2.10,Win32,60,61025ae37ef11b136ea224fe,,,,,,,,,528,-59,-123,1,0,0,response5disk,,3,-28,9,1,0,0,rectangle,-28,9,1,0,0,-28,9,1,0,0,0,49,49,58,1,,,,,,,,
,,,,,,,,,,,,,FF,,,,,,,,0.666105,,,,,,,,,,,,,,,,,,,,,,60fcac2063bbc8bce2700ad5,61036eddd99f010363a36d98,2021-07-29_22h18.04.257,Simcolourproject_2stim_asymm_v5,2020.2.10,Win32,60,61025ae37ef11b136ea224fe,,,,,,,,,3247,-43,-75,1,0,0,response5disk,,3,-19,-13,1,0,0,rectangle,-19,-13,1,0,0,-19,-13,1,0,0,0,50,50,102,1,,,,,,,,
,,,,,,,,,,,,,FF,,,,,,,,0.55031,,,,,,,,,,,,,,,,,,,,,,60fcac2063bbc8bce2700ad5,61036eddd99f010363a36d98,2021-07-29_22h18.04.257,Simcolourproject_2stim_asymm_v5,2020.2.10,Win32,60,61025ae37ef11b136ea224fe,,,,,,,,,1229,-33,-71,1,0,0,response5disk,,3,-1,12,1,0,0,rectangle,-1,12,1,0,0,-1,12,1,0,0,0,51,51,139,1,,,,,,,,
,,,,,,,,,,,,,FF,,,,,,,,0.584005,,,,,,,,,,,,,,,,,,,,,,60fcac2063bbc8bce2700ad5,61036eddd99f010363a36d98,2021-07-29_22h18.04.257,Simcolourproject_2stim_asymm_v5,2020.2.10,Win32,60,61025ae37ef11b136ea224fe,,,,,,,,,2727,-68,-49,1,0,0,response5disk,,2,-20,9,1,0,0,rectangle,-20,9,1,0,0,-20,9,1,0,0,0,52,52,126,1,,,,,,,,
,,,,,,,,,,,,,FF,,,,,,,,0.615755,,,,,,,,,,,,,,,,,,,,,,60fcac2063bbc8bce2700ad5,61036eddd99f010363a36d98,2021-07-29_22h18.04.257,Simcolourproject_2stim_asymm_v5,2020.2.10,Win32,60,61025ae37ef11b136ea224fe,,,,,,,,,1788,48,-85,1,0,0,response3disk,,4,2,-20,1,0,0,rectangle,2,-20,1,0,0,2,-20,1,0,0,0,53,53,132,1,,,,,,,,
,,,,,,,,,,,,,FF,,,,,,,,0.98367,,,,,,,,,,,,,,,,,,,,,,60fcac2063bbc8bce2700ad5,61036eddd99f010363a36d98,2021-07-29_22h18.04.257,Simcolourproject_2stim_asymm_v5,2020.2.10,Win32,60,61025ae37ef11b136ea224fe,,,,,,,,,1215,-99,-72,1,0,0,response5disk,,2,-33,-7,1,0,0,rectangle,-33,-7,1,0,0,-33,-7,1,0,0,0,54,54,28,1,,,,,,,,
,,,,,,,,,,,,,FF,,,,,,,,0.550795,,,,,,,,,,,,,,,,,,,,,,60fcac2063bbc8bce2700ad5,61036eddd99f010363a36d98,2021-07-29_22h18.04.257,Simcolourproject_2stim_asymm_v5,2020.2.10,Win32,60,61025ae37ef11b136ea224fe,,,,,,,,,676,47,76,1,0,0,response1disk,,7,22,-2,1,0,0,rectangle,22,-2,1,0,0,22,-2,1,0,0,0,55,55,42,1,,,,,,,,
,,,,,,,,,,,,,FF,,,,,,,,0.65023,,,,,,,,,,,,,,,,,,,,,,60fcac2063bbc8bce2700ad5,61036eddd99f010363a36d98,2021-07-29_22h18.04.257,Simcolourproject_2stim_asymm_v5,2020.2.10,Win32,60,61025ae37ef11b136ea224fe,,,,,,,,,994,57,30,1,0,0,response1disk,,6,14,-11,1,0,0,rectangle,14,-11,1,0,0,14,-11,1,0,0,0,56,56,3,1,,,,,,,,
,,,,,,,,,,,,,FF,,,,,,,,0.50039,,,,,,,,,,,,,,,,,,,,,,60fcac2063bbc8bce2700ad5,61036eddd99f010363a36d98,2021-07-29_22h18.04.257,Simcolourproject_2stim_asymm_v5,2020.2.10,Win32,60,61025ae37ef11b136ea224fe,,,,,,,,,1867,58,36,1,0,0,response1disk,,6,17,-3,1,0,0,rectangle,17,-3,1,0,0,17,-3,1,0,0,0,57,57,61,1,,,,,,,,
,,,,,,,,,,,,,FF,,,,,,,,0.63292,,,,,,,,,,,,,,,,,,,,,,60fcac2063bbc8bce2700ad5,61036eddd99f010363a36d98,2021-07-29_22h18.04.257,Simcolourproject_2stim_asymm_v5,2020.2.10,Win32,60,61025ae37ef11b136ea224fe,,,,,,,,,3631,-73,-116,1,0,0,response5disk,,3,-2,-15,1,0,0,rectangle,-2,-15,1,0,0,-2,-15,1,0,0,0,58,58,6,1,,,,,,,,
,,,,,,,,,,,,,FF,,,,,,,,0.68321,,,,,,,,,,,,,,,,,,,,,,60fcac2063bbc8bce2700ad5,61036eddd99f010363a36d98,2021-07-29_22h18.04.257,Simcolourproject_2stim_asymm_v5,2020.2.10,Win32,60,61025ae37ef11b136ea224fe,,,,,,,,,843,42,-81,1,0,0,response3disk,,4,7,-1,1,0,0,rectangle,7,-1,1,0,0,7,-1,1,0,0,0,59,59,120,1,,,,,,,,
,,,,,,,,,,,,,FF,,,,,,,,0.59874,,,,,,,,,,,,,,,,,,,,,,60fcac2063bbc8bce2700ad5,61036eddd99f010363a36d98,2021-07-29_22h18.04.257,Simcolourproject_2stim_asymm_v5,2020.2.10,Win32,60,61025ae37ef11b136ea224fe,,,,,,,,,2722,-76,-50,1,0,0,response5disk,,2,-29,-9,1,0,0,rectangle,-29,-9,1,0,0,-29,-9,1,0,0,0,60,60,147,1,,,,,,,,
,,,,,,,,,,,,,FF,,,,,,,,0.63373,,,,,,,,,,,,,,,,,,,,,,60fcac2063bbc8bce2700ad5,61036eddd99f010363a36d98,2021-07-29_22h18.04.257,Simcolourproject_2stim_asymm_v5,2020.2.10,Win32,60,61025ae37ef11b136ea224fe,,,,,,,,,2033,-86,-39,1,0,0,response5disk,,2,-43,-1,1,0,0,rectangle,-43,-1,1,0,0,-43,-1,1,0,0,0,61,61,13,1,,,,,,,,
,,,,,,,,,,,,,FF,,,,,,,,0.9336,,,,,,,,,,,,,,,,,,,,,,60fcac2063bbc8bce2700ad5,61036eddd99f010363a36d98,2021-07-29_22h18.04.257,Simcolourproject_2stim_asymm_v5,2020.2.10,Win32,60,61025ae37ef11b136ea224fe,,,,,,,,,2681,99,-68,1,0,0,response3disk,,5,-5,13,1,0,0,rectangle,-5,13,1,0,0,-5,13,1,0,0,0,62,62,144,1,,,,,,,,
,,,,,,,,,,,,,FF,,,,,,,,0.61551,,,,,,,,,,,,,,,,,,,,,,60fcac2063bbc8bce2700ad5,61036eddd99f010363a36d98,2021-07-29_22h18.04.257,Simcolourproject_2stim_asymm_v5,2020.2.10,Win32,60,61025ae37ef11b136ea224fe,,,,,,,,,230,74,-50,1,0,0,response3disk,,5,-17,7,1,0,0,rectangle,-17,7,1,0,0,-17,7,1,0,0,0,63,63,94,1,,,,,,,,
,,,,,,,,,,,,,FF,,,,,,,,0.48406,,,,,,,,,,,,,,,,,,,,,,60fcac2063bbc8bce2700ad5,61036eddd99f010363a36d98,2021-07-29_22h18.04.257,Simcolourproject_2stim_asymm_v5,2020.2.10,Win32,60,61025ae37ef11b136ea224fe,,,,,,,,,2525,96,58,1,0,0,response1disk,,6,13,-3,1,0,0,rectangle,13,-3,1,0,0,13,-3,1,0,0,0,64,64,10,1,,,,,,,,
,,,,,,,,,,,,,FF,,,,,,,,0.999845,,,,,,,,,,,,,,,,,,,,,,60fcac2063bbc8bce2700ad5,61036eddd99f010363a36d98,2021-07-29_22h18.04.257,Simcolourproject_2stim_asymm_v5,2020.2.10,Win32,60,61025ae37ef11b136ea224fe,,,,,,,,,2481,-106,-75,1,0,0,response5disk,,2,-13,-15,1,0,0,rectangle,-13,-15,1,0,0,-13,-15,1,0,0,0,65,65,53,1,,,,,,,,
,,,,,,,,,,,,,FF,,,,,,,,0.615995,,,,,,,,,,,,,,,,,,,,,,60fcac2063bbc8bce2700ad5,61036eddd99f010363a36d98,2021-07-29_22h18.04.257,Simcolourproject_2stim_asymm_v5,2020.2.10,Win32,60,61025ae37ef11b136ea224fe,,,,,,,,,244,72,29,1,0,0,response1disk,,6,24,-1,1,0,0,rectangle,24,-1,1,0,0,24,-1,1,0,0,0,66,66,155,1,,,,,,,,
,,,,,,,,,,,,,FF,,,,,,,,0.935,,,,,,,,,,,,,,,,,,,,,,60fcac2063bbc8bce2700ad5,61036eddd99f010363a36d98,2021-07-29_22h18.04.257,Simcolourproject_2stim_asymm_v5,2020.2.10,Win32,60,61025ae37ef11b136ea224fe,,,,,,,,,1641,54,68,1,0,0,response1disk,,7,33,4,1,0,0,rectangle,33,4,1,0,0,33,4,1,0,0,0,67,67,35,1,,,,,,,,
,,,,,,,,,,,,,FF,,,,,,,,0.733525,,,,,,,,,,,,,,,,,,,,,,60fcac2063bbc8bce2700ad5,61036eddd99f010363a36d98,2021-07-29_22h18.04.257,Simcolourproject_2stim_asymm_v5,2020.2.10,Win32,60,61025ae37ef11b136ea224fe,,,,,,,,,4145,-48,-138,1,0,0,response5disk,,3,-3,-1,1,0,0,rectangle,-3,-1,1,0,0,-3,-1,1,0,0,0,68,68,116,1,,,,,,,,
,,,,,,,,,,,,,FF,,,,,,,,0.750175,,,,,,,,,,,,,,,,,,,,,,60fcac2063bbc8bce2700ad5,61036eddd99f010363a36d98,2021-07-29_22h18.04.257,Simcolourproject_2stim_asymm_v5,2020.2.10,Win32,60,61025ae37ef11b136ea224fe,,,,,,,,,398,59,46,1,0,0,response1disk,,6,-8,-10,1,0,0,rectangle,-8,-10,1,0,0,-8,-10,1,0,0,0,69,69,141,1,,,,,,,,
,,,,,,,,,,,,,FF,,,,,,,,0.618995,,,,,,,,,,,,,,,,,,,,,,60fcac2063bbc8bce2700ad5,61036eddd99f010363a36d98,2021-07-29_22h18.04.257,Simcolourproject_2stim_asymm_v5,2020.2.10,Win32,60,61025ae37ef11b136ea224fe,,,,,,,,,3306,139,58,1,0,0,response1disk,,6,39,2,1,0,0,rectangle,39,2,1,0,0,39,2,1,0,0,0,70,70,52,1,,,,,,,,
,,,,,,,,,,,,,FF,,,,,,,,0.500385,,,,,,,,,,,,,,,,,,,,,,60fcac2063bbc8bce2700ad5,61036eddd99f010363a36d98,2021-07-29_22h18.04.257,Simcolourproject_2stim_asymm_v5,2020.2.10,Win32,60,61025ae37ef11b136ea224fe,,,,,,,,,2910,73,38,1,0,0,response1disk,,6,-23,-17,1,0,0,rectangle,-23,-17,1,0,0,-23,-17,1,0,0,0,71,71,112,1,,,,,,,,
,,,,,,,,,,,,,FF,,,,,,,,0.63391,,,,,,,,,,,,,,,,,,,,,,60fcac2063bbc8bce2700ad5,61036eddd99f010363a36d98,2021-07-29_22h18.04.257,Simcolourproject_2stim_asymm_v5,2020.2.10,Win32,60,61025ae37ef11b136ea224fe,,,,,,,,,2887,-85,-42,1,0,0,response5disk,,2,-2,4,1,0,0,rectangle,-2,4,1,0,0,-2,4,1,0,0,0,72,72,2,1,,,,,,,,
,,,,,,,,,,,,,FF,,,,,,,,0.583745,,,,,,,,,,,,,,,,,,,,,,60fcac2063bbc8bce2700ad5,61036eddd99f010363a36d98,2021-07-29_22h18.04.257,Simcolourproject_2stim_asymm_v5,2020.2.10,Win32,60,61025ae37ef11b136ea224fe,,,,,,,,,469,55,47,1,0,0,response1disk,,6,5,-8,1,0,0,rectangle,77,-47,1,0,0,21,-2,1,0,0,0,73,73,96,1,,response3disk_3,TRUE,5,5,"[263,146,214,296,183,206,152,148,287,155,273,311,141,279,212,74,166,225,2,284]",1.19998,rectangle
,,,,,,,,,,,,,FF,,,,,,,,0.782995,,,,,,,,,,,,,,,,,,,,,,60fcac2063bbc8bce2700ad5,61036eddd99f010363a36d98,2021-07-29_22h18.04.257,Simcolourproject_2stim_asymm_v5,2020.2.10,Win32,60,61025ae37ef11b136ea224fe,,,,,,,,,4189,-61,-126,1,0,0,response5disk,,3,4,-20,1,0,0,rectangle,4,-20,1,0,0,4,-20,1,0,0,0,74,74,130,1,,,,,,,,
,,,,,,,,,,,,,FF,,,,,,,,0.866055,,,,,,,,,,,,,,,,,,,,,,60fcac2063bbc8bce2700ad5,61036eddd99f010363a36d98,2021-07-29_22h18.04.257,Simcolourproject_2stim_asymm_v5,2020.2.10,Win32,60,61025ae37ef11b136ea224fe,,,,,,,,,2997,-71,-44,1,0,0,response5disk,,2,-14,16,1,0,0,rectangle,-14,16,1,0,0,-14,16,1,0,0,0,75,75,65,1,,,,,,,,
,,,,,,,,,,,,,FF,,,,,,,,0.80001,,,,,,,,,,,,,,,,,,,,,,60fcac2063bbc8bce2700ad5,61036eddd99f010363a36d98,2021-07-29_22h18.04.257,Simcolourproject_2stim_asymm_v5,2020.2.10,Win32,60,61025ae37ef11b136ea224fe,,,,,,,,,3163,73,-104,1,0,0,response3disk,,4,-5,1,1,0,0,rectangle,-5,1,1,0,0,-5,1,1,0,0,0,76,76,47,1,,,,,,,,
,,,,,,,,,,,,,FF,,,,,,,,0.732735,,,,,,,,,,,,,,,,,,,,,,60fcac2063bbc8bce2700ad5,61036eddd99f010363a36d98,2021-07-29_22h18.04.257,Simcolourproject_2stim_asymm_v5,2020.2.10,Win32,60,61025ae37ef11b136ea224fe,,,,,,,,,2526,68,45,1,0,0,response1disk,,6,16,16,1,0,0,rectangle,16,16,1,0,0,16,16,1,0,0,0,77,77,137,1,,,,,,,,
,,,,,,,,,,,,,FF,,,,,,,,1.2163,,,,,,,,,,,,,,,,,,,,,,60fcac2063bbc8bce2700ad5,61036eddd99f010363a36d98,2021-07-29_22h18.04.257,Simcolourproject_2stim_asymm_v5,2020.2.10,Win32,60,61025ae37ef11b136ea224fe,,,,,,,,,1520,28,74,1,0,0,response1disk,,7,-5,-15,1,0,0,rectangle,-5,-15,1,0,0,-5,-15,1,0,0,0,78,78,128,1,,,,,,,,
,,,,,,,,,,,,,FF,,,,,,,,0.733415,,,,,,,,,,,,,,,,,,,,,,60fcac2063bbc8bce2700ad5,61036eddd99f010363a36d98,2021-07-29_22h18.04.257,Simcolourproject_2stim_asymm_v5,2020.2.10,Win32,60,61025ae37ef11b136ea224fe,,,,,,,,,786,100,-98,1,0,0,response3disk,,5,26,11,1,0,0,rectangle,26,11,1,0,0,26,11,1,0,0,0,79,79,22,1,,,,,,,,
,,,,,,,,,,,,,FF,,,,,,,,0.850315,,,,,,,,,,,,,,,,,,,,,,60fcac2063bbc8bce2700ad5,61036eddd99f010363a36d98,2021-07-29_22h18.04.257,Simcolourproject_2stim_asymm_v5,2020.2.10,Win32,60,61025ae37ef11b136ea224fe,,,,,,,,,826,65,-27,1,0,0,response3disk,,5,31,-8,1,0,0,rectangle,31,-8,1,0,0,31,-8,1,0,0,0,80,80,129,1,,,,,,,,
,,,,,,,,,,,,,FF,,,,,,,,0.96724,,,,,,,,,,,,,,,,,,,,,,60fcac2063bbc8bce2700ad5,61036eddd99f010363a36d98,2021-07-29_22h18.04.257,Simcolourproject_2stim_asymm_v5,2020.2.10,Win32,60,61025ae37ef11b136ea224fe,,,,,,,,,2730,-111,-82,1,0,0,response5disk,,2,-9,-2,1,0,0,rectangle,-9,-2,1,0,0,-9,-2,1,0,0,0,81,81,9,1,,,,,,,,
,,,,,,,,,,,,,FF,,,,,,,,0.699925,,,,,,,,,,,,,,,,,,,,,,60fcac2063bbc8bce2700ad5,61036eddd99f010363a36d98,2021-07-29_22h18.04.257,Simcolourproject_2stim_asymm_v5,2020.2.10,Win32,60,61025ae37ef11b136ea224fe,,,,,,,,,3256,56,-90,1,0,0,response3disk,,4,24,-9,1,0,0,rectangle,24,-9,1,0,0,24,-9,1,0,0,0,82,82,111,1,,,,,,,,
,,,,,,,,,,,,,FF,,,,,,,,0.634415,,,,,,,,,,,,,,,,,,,,,,60fcac2063bbc8bce2700ad5,61036eddd99f010363a36d98,2021-07-29_22h18.04.257,Simcolourproject_2stim_asymm_v5,2020.2.10,Win32,60,61025ae37ef11b136ea224fe,,,,,,,,,1524,-66,-76,1,0,0,response5disk,,3,-26,4,1,0,0,rectangle,-26,4,1,0,0,-26,4,1,0,0,0,83,83,57,1,,,,,,,,
,,,,,,,,,,,,,FF,,,,,,,,0.835135,,,,,,,,,,,,,,,,,,,,,,60fcac2063bbc8bce2700ad5,61036eddd99f010363a36d98,2021-07-29_22h18.04.257,Simcolourproject_2stim_asymm_v5,2020.2.10,Win32,60,61025ae37ef11b136ea224fe,,,,,,,,,735,78,-27,1,0,0,response3disk,,5,16,20,1,0,0,rectangle,16,20,1,0,0,16,20,1,0,0,0,84,84,21,1,,,,,,,,
,,,,,,,,,,,,,FF,,,,,,,,0.681575,,,,,,,,,,,,,,,,,,,,,,60fcac2063bbc8bce2700ad5,61036eddd99f010363a36d98,2021-07-29_22h18.04.257,Simcolourproject_2stim_asymm_v5,2020.2.10,Win32,60,61025ae37ef11b136ea224fe,,,,,,,,,1052,84,-33,1,0,0,response3disk,,5,-16,-13,1,0,0,rectangle,-16,-13,1,0,0,-16,-13,1,0,0,0,85,85,101,1,,,,,,,,
,,,,,,,,,,,,,FF,,,,,,,,1.766615,,,,,,,,,,,,,,,,,,,,,,60fcac2063bbc8bce2700ad5,61036eddd99f010363a36d98,2021-07-29_22h18.04.257,Simcolourproject_2stim_asymm_v5,2020.2.10,Win32,60,61025ae37ef11b136ea224fe,,,,,,,,,917,89,52,1,0,0,response1disk,,6,18,-6,1,0,0,rectangle,18,-6,1,0,0,18,-6,1,0,0,0,86,86,145,1,,,,,,,,
,,,,,,,,,,,,,FF,,,,,,,,0.81652,,,,,,,,,,,,,,,,,,,,,,60fcac2063bbc8bce2700ad5,61036eddd99f010363a36d98,2021-07-29_22h18.04.257,Simcolourproject_2stim_asymm_v5,2020.2.10,Win32,60,61025ae37ef11b136ea224fe,,,,,,,,,4185,37,-103,1,0,0,response3disk,,4,-34,-7,1,0,0,rectangle,-34,-7,1,0,0,-34,-7,1,0,0,0,87,87,143,1,,,,,,,,
,,,,,,,,,,,,,FF,,,,,,,,0.91768,,,,,,,,,,,,,,,,,,,,,,60fcac2063bbc8bce2700ad5,61036eddd99f010363a36d98,2021-07-29_22h18.04.257,Simcolourproject_2stim_asymm_v5,2020.2.10,Win32,60,61025ae37ef11b136ea224fe,,,,,,,,,3084,87,-53,1,0,0,response3disk,,5,15,-12,1,0,0,rectangle,15,-12,1,0,0,15,-12,1,0,0,0,88,88,50,1,,,,,,,,
,,,,,,,,,,,,,FF,,,,,,,,1.125895,,,,,,,,,,,,,,,,,,,,,,60fcac2063bbc8bce2700ad5,61036eddd99f010363a36d98,2021-07-29_22h18.04.257,Simcolourproject_2stim_asymm_v5,2020.2.10,Win32,60,61025ae37ef11b136ea224fe,,,,,,,,,2483,72,-120,1,0,0,response3disk,,4,-16,-10,1,0,0,rectangle,-16,-10,1,0,0,-16,-10,1,0,0,0,89,89,156,1,,,,,,,,
,,,,,,,,,,,,,FF,,,,,,,,0.92703,,,,,,,,,,,,,,,,,,,,,,60fcac2063bbc8bce2700ad5,61036eddd99f010363a36d98,2021-07-29_22h18.04.257,Simcolourproject_2stim_asymm_v5,2020.2.10,Win32,60,61025ae37ef11b136ea224fe,,,,,,,,,3700,91,-104,1,0,0,response3disk,,4,-5,-15,1,0,0,rectangle,-5,-15,1,0,0,-5,-15,1,0,0,0,90,90,78,1,,,,,,,,
,,,,,,,,,,,,,FF,,,,,,,,0.84372,,,,,,,,,,,,,,,,,,,,,,60fcac2063bbc8bce2700ad5,61036eddd99f010363a36d98,2021-07-29_22h18.04.257,Simcolourproject_2stim_asymm_v5,2020.2.10,Win32,60,61025ae37ef11b136ea224fe,,,,,,,,,3191,-26,-119,1,0,0,response5disk,,3,-13,13,1,0,0,rectangle,-13,13,1,0,0,-13,13,1,0,0,0,91,91,39,1,,,,,,,,
,,,,,,,,,,,,,FF,,,,,,,,0.76077,,,,,,,,,,,,,,,,,,,,,,60fcac2063bbc8bce2700ad5,61036eddd99f010363a36d98,2021-07-29_22h18.04.257,Simcolourproject_2stim_asymm_v5,2020.2.10,Win32,60,61025ae37ef11b136ea224fe,,,,,,,,,3466,82,45,1,0,0,response1disk,,6,2,-14,1,0,0,rectangle,2,-14,1,0,0,2,-14,1,0,0,0,92,92,70,1,,,,,,,,
,,,,,,,,,,,,,FF,,,,,,,,0.983685,,,,,,,,,,,,,,,,,,,,,,60fcac2063bbc8bce2700ad5,61036eddd99f010363a36d98,2021-07-29_22h18.04.257,Simcolourproject_2stim_asymm_v5,2020.2.10,Win32,60,61025ae37ef11b136ea224fe,,,,,,,,,3925,80,91,1,0,0,response1disk,,7,3,2,1,0,0,rectangle,3,2,1,0,0,3,2,1,0,0,0,93,93,88,1,,,,,,,,
,,,,,,,,,,,,,FF,,,,,,,,0.84788,,,,,,,,,,,,,,,,,,,,,,60fcac2063bbc8bce2700ad5,61036eddd99f010363a36d98,2021-07-29_22h18.04.257,Simcolourproject_2stim_asymm_v5,2020.2.10,Win32,60,61025ae37ef11b136ea224fe,,,,,,,,,2268,57,-127,1,0,0,response3disk,,4,-6,-9,1,0,0,rectangle,-6,-9,1,0,0,-6,-9,1,0,0,0,94,94,80,1,,,,,,,,
,,,,,,,,,,,,,FF,,,,,,,,0.984955,,,,,,,,,,,,,,,,,,,,,,60fcac2063bbc8bce2700ad5,61036eddd99f010363a36d98,2021-07-29_22h18.04.257,Simcolourproject_2stim_asymm_v5,2020.2.10,Win32,60,61025ae37ef11b136ea224fe,,,,,,,,,3913,-37,-105,1,0,0,response5disk,,3,-42,12,1,0,0,rectangle,-42,12,1,0,0,-42,12,1,0,0,0,95,95,103,1,,,,,,,,
,,,,,,,,,,,,,FF,,,,,,,,0.67654,,,,,,,,,,,,,,,,,,,,,,60fcac2063bbc8bce2700ad5,61036eddd99f010363a36d98,2021-07-29_22h18.04.257,Simcolourproject_2stim_asymm_v5,2020.2.10,Win32,60,61025ae37ef11b136ea224fe,,,,,,,,,129,78,37,1,0,0,response1disk,,6,28,-5,1,0,0,rectangle,28,-5,1,0,0,28,-5,1,0,0,0,96,96,123,1,,,,,,,,
,,,,,,,,,,,,,FF,,,,,,,,1.16723,,,,,,,,,,,,,,,,,,,,,,60fcac2063bbc8bce2700ad5,61036eddd99f010363a36d98,2021-07-29_22h18.04.257,Simcolourproject_2stim_asymm_v5,2020.2.10,Win32,60,61025ae37ef11b136ea224fe,,,,,,,,,1268,70,-65,1,0,0,response3disk,,5,10,-21,1,0,0,rectangle,10,-21,1,0,0,10,-21,1,0,0,0,97,97,19,1,,,,,,,,
,,,,,,,,,,,,,FF,,,,,,,,0.790775,,,,,,,,,,,,,,,,,,,,,,60fcac2063bbc8bce2700ad5,61036eddd99f010363a36d98,2021-07-29_22h18.04.257,Simcolourproject_2stim_asymm_v5,2020.2.10,Win32,60,61025ae37ef11b136ea224fe,,,,,,,,,1010,90,44,1,0,0,response1disk,,6,37,13,1,0,0,rectangle,37,13,1,0,0,37,13,1,0,0,0,98,98,97,1,,,,,,,,
,,,,,,,,,,,,,FF,,,,,,,,0.748895,,,,,,,,,,,,,,,,,,,,,,60fcac2063bbc8bce2700ad5,61036eddd99f010363a36d98,2021-07-29_22h18.04.257,Simcolourproject_2stim_asymm_v5,2020.2.10,Win32,60,61025ae37ef11b136ea224fe,,,,,,,,,1201,70,-126,1,0,0,response3disk,,4,-21,-5,1,0,0,rectangle,-21,-5,1,0,0,-21,-5,1,0,0,0,99,99,23,1,,,,,,,,
,,,,,,,,,,,,,FF,,,,,,,,1.15331,,,,,,,,,,,,,,,,,,,,,,60fcac2063bbc8bce2700ad5,61036eddd99f010363a36d98,2021-07-29_22h18.04.257,Simcolourproject_2stim_asymm_v5,2020.2.10,Win32,60,61025ae37ef11b136ea224fe,,,,,,,,,1338,99,-39,1,0,0,response3disk,,5,14,-15,1,0,0,rectangle,14,-15,1,0,0,14,-15,1,0,0,0,100,100,115,1,,,,,,,,
,,,,,,,,,,,,,FF,,,,,,,,0.566715,,,,,,,,,,,,,,,,,,,,,,60fcac2063bbc8bce2700ad5,61036eddd99f010363a36d98,2021-07-29_22h18.04.257,Simcolourproject_2stim_asymm_v5,2020.2.10,Win32,60,61025ae37ef11b136ea224fe,,,,,,,,,2303,-26,-70,1,0,0,response5disk,,3,-17,-19,1,0,0,rectangle,-17,-19,1,0,0,-17,-19,1,0,0,0,101,101,71,1,,,,,,,,
,,,,,,,,,,,,,FF,,,,,,,,0.5836,,,,,,,,,,,,,,,,,,,,,,60fcac2063bbc8bce2700ad5,61036eddd99f010363a36d98,2021-07-29_22h18.04.257,Simcolourproject_2stim_asymm_v5,2020.2.10,Win32,60,61025ae37ef11b136ea224fe,,,,,,,,,1199,-47,-69,1,0,0,response5disk,,3,-18,16,1,0,0,rectangle,-18,16,1,0,0,-18,16,1,0,0,0,102,102,0,1,,,,,,,,
,,,,,,,,,,,,,FF,,,,,,,,0.55033,,,,,,,,,,,,,,,,,,,,,,60fcac2063bbc8bce2700ad5,61036eddd99f010363a36d98,2021-07-29_22h18.04.257,Simcolourproject_2stim_asymm_v5,2020.2.10,Win32,60,61025ae37ef11b136ea224fe,,,,,,,,,816,56,-33,1,0,0,response3disk,,5,11,1,1,0,0,rectangle,11,1,1,0,0,11,1,1,0,0,0,103,103,11,1,,,,,,,,
,,,,,,,,,,,,,FF,,,,,,,,0.683395,,,,,,,,,,,,,,,,,,,,,,60fcac2063bbc8bce2700ad5,61036eddd99f010363a36d98,2021-07-29_22h18.04.257,Simcolourproject_2stim_asymm_v5,2020.2.10,Win32,60,61025ae37ef11b136ea224fe,,,,,,,,,152,36,-82,1,0,0,response3disk,,4,-6,-8,1,0,0,rectangle,-6,-8,1,0,0,-6,-8,1,0,0,0,104,104,84,1,,,,,,,,
,,,,,,,,,,,,,FF,,,,,,,,1.80041,,,,,,,,,,,,,,,,,,,,,,60fcac2063bbc8bce2700ad5,61036eddd99f010363a36d98,2021-07-29_22h18.04.257,Simcolourproject_2stim_asymm_v5,2020.2.10,Win32,60,61025ae37ef11b136ea224fe,,,,,,,,,4198,73,66,1,0,0,response1disk,,6,-5,2,1,0,0,rectangle,-5,2,1,0,0,-5,2,1,0,0,0,105,105,56,1,,,,,,,,
,,,,,,,,,,,,,FF,,,,,,,,1.999045,,,,,,,,,,,,,,,,,,,,,,60fcac2063bbc8bce2700ad5,61036eddd99f010363a36d98,2021-07-29_22h18.04.257,Simcolourproject_2stim_asymm_v5,2020.2.10,Win32,60,61025ae37ef11b136ea224fe,,,,,,,,,4226,71,-124,1,0,0,response3disk,,4,35,-12,1,0,0,rectangle,35,-12,1,0,0,35,-12,1,0,0,0,106,106,151,1,,,,,,,,
,,,,,,,,,,,,,FF,,,,,,,,0.83328,,,,,,,,,,,,,,,,,,,,,,60fcac2063bbc8bce2700ad5,61036eddd99f010363a36d98,2021-07-29_22h18.04.257,Simcolourproject_2stim_asymm_v5,2020.2.10,Win32,60,61025ae37ef11b136ea224fe,,,,,,,,,649,49,-124,1,0,0,response3disk,,4,-33,1,1,0,0,rectangle,-33,1,1,0,0,-33,1,1,0,0,0,107,107,16,1,,,,,,,,
,,,,,,,,,,,,,FF,,,,,,,,0.633805,,,,,,,,,,,,,,,,,,,,,,60fcac2063bbc8bce2700ad5,61036eddd99f010363a36d98,2021-07-29_22h18.04.257,Simcolourproject_2stim_asymm_v5,2020.2.10,Win32,60,61025ae37ef11b136ea224fe,,,,,,,,,3272,-38,-118,1,0,0,response5disk,,3,-1,12,1,0,0,rectangle,-1,12,1,0,0,-1,12,1,0,0,0,108,108,150,1,,,,,,,,
,,,,,,,,,,,,,FF,,,,,,,,0.78355,,,,,,,,,,,,,,,,,,,,,,60fcac2063bbc8bce2700ad5,61036eddd99f010363a36d98,2021-07-29_22h18.04.257,Simcolourproject_2stim_asymm_v5,2020.2.10,Win32,60,61025ae37ef11b136ea224fe,,,,,,,,,1228,-30,-80,1,0,0,response5disk,,3,11,9,1,0,0,rectangle,11,9,1,0,0,11,9,1,0,0,0,109,109,7,1,,,,,,,,
,,,,,,,,,,,,,FF,,,,,,,,1.00006,,,,,,,,,,,,,,,,,,,,,,60fcac2063bbc8bce2700ad5,61036eddd99f010363a36d98,2021-07-29_22h18.04.257,Simcolourproject_2stim_asymm_v5,2020.2.10,Win32,60,61025ae37ef11b136ea224fe,,,,,,,,,2344,57,119,1,0,0,response1disk,,7,13,10,1,0,0,rectangle,13,10,1,0,0,13,10,1,0,0,0,110,110,62,1,,,,,,,,
,,,,,,,,,,,,,FF,,,,,,,,0.550225,,,,,,,,,,,,,,,,,,,,,,60fcac2063bbc8bce2700ad5,61036eddd99f010363a36d98,2021-07-29_22h18.04.257,Simcolourproject_2stim_asymm_v5,2020.2.10,Win32,60,61025ae37ef11b136ea224fe,,,,,,,,,3317,55,-51,1,0,0,response3disk,,5,28,-10,1,0,0,rectangle,28,-10,1,0,0,28,-10,1,0,0,0,111,111,109,1,,,,,,,,
,,,,,,,,,,,,,FF,,,,,,,,0.666615,,,,,,,,,,,,,,,,,,,,,,60fcac2063bbc8bce2700ad5,61036eddd99f010363a36d98,2021-07-29_22h18.04.257,Simcolourproject_2stim_asymm_v5,2020.2.10,Win32,60,61025ae37ef11b136ea224fe,,,,,,,,,2812,87,-56,1,0,0,response3disk,,5,26,-7,1,0,0,rectangle,26,-7,1,0,0,26,-7,1,0,0,0,112,112,4,1,,,,,,,,
,,,,,,,,,,,,,FF,,,,,,,,1.0186,,,,,,,,,,,,,,,,,,,,,,60fcac2063bbc8bce2700ad5,61036eddd99f010363a36d98,2021-07-29_22h18.04.257,Simcolourproject_2stim_asymm_v5,2020.2.10,Win32,60,61025ae37ef11b136ea224fe,,,,,,,,,3520,-123,-71,1,0,0,response5disk,,2,-18,6,1,0,0,rectangle,-18,6,1,0,0,-18,6,1,0,0,0,113,113,29,1,,,,,,,,
,,,,,,,,,,,,,FF,,,,,,,,0.715535,,,,,,,,,,,,,,,,,,,,,,60fcac2063bbc8bce2700ad5,61036eddd99f010363a36d98,2021-07-29_22h18.04.257,Simcolourproject_2stim_asymm_v5,2020.2.10,Win32,60,61025ae37ef11b136ea224fe,,,,,,,,,3883,62,-109,1,0,0,response3disk,,4,26,-2,1,0,0,rectangle,26,-2,1,0,0,26,-2,1,0,0,0,114,114,149,1,,,,,,,,
,,,,,,,,,,,,,FF,,,,,,,,1.36609,,,,,,,,,,,,,,,,,,,,,,60fcac2063bbc8bce2700ad5,61036eddd99f010363a36d98,2021-07-29_22h18.04.257,Simcolourproject_2stim_asymm_v5,2020.2.10,Win32,60,61025ae37ef11b136ea224fe,,,,,,,,,2682,56,-104,1,0,0,response3disk,,4,37,-11,1,0,0,rectangle,37,-11,1,0,0,37,-11,1,0,0,0,115,115,1,1,,,,,,,,
,,,,,,,,,,,,,FF,,,,,,,,1.115965,,,,,,,,,,,,,,,,,,,,,,60fcac2063bbc8bce2700ad5,61036eddd99f010363a36d98,2021-07-29_22h18.04.257,Simcolourproject_2stim_asymm_v5,2020.2.10,Win32,60,61025ae37ef11b136ea224fe,,,,,,,,,2276,110,-39,1,0,0,response3disk,,5,8,-2,1,0,0,rectangle,8,-2,1,0,0,8,-2,1,0,0,0,116,116,159,1,,,,,,,,
,,,,,,,,,,,,,FF,,,,,,,,0.650155,,,,,,,,,,,,,,,,,,,,,,60fcac2063bbc8bce2700ad5,61036eddd99f010363a36d98,2021-07-29_22h18.04.257,Simcolourproject_2stim_asymm_v5,2020.2.10,Win32,60,61025ae37ef11b136ea224fe,,,,,,,,,1992,49,-103,1,0,0,response3disk,,4,-11,-13,1,0,0,rectangle,-11,-13,1,0,0,-11,-13,1,0,0,0,117,117,37,1,,,,,,,,
,,,,,,,,,,,,,FF,,,,,,,,1.06538,,,,,,,,,,,,,,,,,,,,,,60fcac2063bbc8bce2700ad5,61036eddd99f010363a36d98,2021-07-29_22h18.04.257,Simcolourproject_2stim_asymm_v5,2020.2.10,Win32,60,61025ae37ef11b136ea224fe,,,,,,,,,3425,-72,130,1,0,0,response7disk,,0,-5,-5,1,0,0,rectangle,-5,-5,1,0,0,-5,-5,1,0,0,0,118,118,77,1,,,,,,,,
,,,,,,,,,,,,,FF,,,,,,,,1.184405,,,,,,,,,,,,,,,,,,,,,,60fcac2063bbc8bce2700ad5,61036eddd99f010363a36d98,2021-07-29_22h18.04.257,Simcolourproject_2stim_asymm_v5,2020.2.10,Win32,60,61025ae37ef11b136ea224fe,,,,,,,,,2108,-137,-66,1,0,0,response5disk,,2,-15,5,1,0,0,rectangle,-15,5,1,0,0,-15,5,1,0,0,0,119,119,8,1,,,,,,,,
,,,,,,,,,,,,,FF,,,,,,,,1.165805,,,,,,,,,,,,,,,,,,,,,,60fcac2063bbc8bce2700ad5,61036eddd99f010363a36d98,2021-07-29_22h18.04.257,Simcolourproject_2stim_asymm_v5,2020.2.10,Win32,60,61025ae37ef11b136ea224fe,,,,,,,,,3911,-64,-95,1,0,0,response5disk,,3,-34,3,1,0,0,rectangle,-34,3,1,0,0,-34,3,1,0,0,0,120,120,51,1,,,,,,,,
,,,,,,,,,,,,,FF,,,,,,,,1.75044,,,,,,,,,,,,,,,,,,,,,,60fcac2063bbc8bce2700ad5,61036eddd99f010363a36d98,2021-07-29_22h18.04.257,Simcolourproject_2stim_asymm_v5,2020.2.10,Win32,60,61025ae37ef11b136ea224fe,,,,,,,,,3739,71,-98,1,0,0,response3disk,,4,-3,-3,1,0,0,rectangle,-3,-3,1,0,0,-3,-3,1,0,0,0,121,121,18,1,,,,,,,,
,,,,,,,,,,,,,FF,,,,,,,,0.615295,,,,,,,,,,,,,,,,,,,,,,60fcac2063bbc8bce2700ad5,61036eddd99f010363a36d98,2021-07-29_22h18.04.257,Simcolourproject_2stim_asymm_v5,2020.2.10,Win32,60,61025ae37ef11b136ea224fe,,,,,,,,,1850,-38,-92,1,0,0,response5disk,,3,26,15,1,0,0,rectangle,26,15,1,0,0,26,15,1,0,0,0,122,122,83,1,,,,,,,,
,,,,,,,,,,,,,FF,,,,,,,,1.23224,,,,,,,,,,,,,,,,,,,,,,60fcac2063bbc8bce2700ad5,61036eddd99f010363a36d98,2021-07-29_22h18.04.257,Simcolourproject_2stim_asymm_v5,2020.2.10,Win32,60,61025ae37ef11b136ea224fe,,,,,,,,,4275,90,-50,1,0,0,response3disk,,5,-5,2,1,0,0,rectangle,-5,2,1,0,0,-5,2,1,0,0,0,123,123,125,1,,,,,,,,
,,,,,,,,,,,,,FF,,,,,,,,0.616255,,,,,,,,,,,,,,,,,,,,,,60fcac2063bbc8bce2700ad5,61036eddd99f010363a36d98,2021-07-29_22h18.04.257,Simcolourproject_2stim_asymm_v5,2020.2.10,Win32,60,61025ae37ef11b136ea224fe,,,,,,,,,216,63,36,1,0,0,response1disk,,6,22,7,1,0,0,rectangle,22,7,1,0,0,22,7,1,0,0,0,124,124,14,1,,,,,,,,
,,,,,,,,,,,,,FF,,,,,,,,0.78343,,,,,,,,,,,,,,,,,,,,,,60fcac2063bbc8bce2700ad5,61036eddd99f010363a36d98,2021-07-29_22h18.04.257,Simcolourproject_2stim_asymm_v5,2020.2.10,Win32,60,61025ae37ef11b136ea224fe,,,,,,,,,4051,51,111,1,0,0,response1disk,,7,18,4,1,0,0,rectangle,18,4,1,0,0,18,4,1,0,0,0,125,125,105,1,,,,,,,,
,,,,,,,,,,,,,FF,,,,,,,,1.66694,,,,,,,,,,,,,,,,,,,,,,60fcac2063bbc8bce2700ad5,61036eddd99f010363a36d98,2021-07-29_22h18.04.257,Simcolourproject_2stim_asymm_v5,2020.2.10,Win32,60,61025ae37ef11b136ea224fe,,,,,,,,,2290,113,-86,1,0,0,response3disk,,5,-6,-8,1,0,0,rectangle,-6,-8,1,0,0,-6,-8,1,0,0,0,126,126,15,1,,,,,,,,
,,,,,,,,,,,,,FF,,,,,,,,0.86608,,,,,,,,,,,,,,,,,,,,,,60fcac2063bbc8bce2700ad5,61036eddd99f010363a36d98,2021-07-29_22h18.04.257,Simcolourproject_2stim_asymm_v5,2020.2.10,Win32,60,61025ae37ef11b136ea224fe,,,,,,,,,829,125,-42,1,0,0,response3disk,,5,-17,-7,1,0,0,rectangle,-17,-7,1,0,0,-17,-7,1,0,0,0,127,127,46,1,,,,,,,,
,,,,,,,,,,,,,FF,,,,,,,,1.51698,,,,,,,,,,,,,,,,,,,,,,60fcac2063bbc8bce2700ad5,61036eddd99f010363a36d98,2021-07-29_22h18.04.257,Simcolourproject_2stim_asymm_v5,2020.2.10,Win32,60,61025ae37ef11b136ea224fe,,,,,,,,,1288,102,-75,1,0,0,response3disk,,5,23,12,1,0,0,rectangle,23,12,1,0,0,23,12,1,0,0,0,128,128,110,1,,,,,,,,
,,,,,,,,,,,,,FF,,,,,,,,0.874905,,,,,,,,,,,,,,,,,,,,,,60fcac2063bbc8bce2700ad5,61036eddd99f010363a36d98,2021-07-29_22h18.04.257,Simcolourproject_2stim_asymm_v5,2020.2.10,Win32,60,61025ae37ef11b136ea224fe,,,,,,,,,2704,93,42,1,0,0,response1disk,,6,28,-11,1,0,0,rectangle,28,-11,1,0,0,28,-11,1,0,0,0,129,129,27,1,,,,,,,,
,,,,,,,,,,,,,FF,,,,,,,,6.050645,,,,,,,,,,,,,,,,,,,,,,60fcac2063bbc8bce2700ad5,61036eddd99f010363a36d98,2021-07-29_22h18.04.257,Simcolourproject_2stim_asymm_v5,2020.2.10,Win32,60,61025ae37ef11b136ea224fe,,,,,,,,,3560,128,-60,1,0,0,response3disk,,5,41,-3,1,0,0,rectangle,41,-3,1,0,0,41,-3,1,0,0,0,130,130,119,1,,,,,,,,
,,,,,,,,,,,,,FF,,,,,,,,0.598995,,,,,,,,,,,,,,,,,,,,,,60fcac2063bbc8bce2700ad5,61036eddd99f010363a36d98,2021-07-29_22h18.04.257,Simcolourproject_2stim_asymm_v5,2020.2.10,Win32,60,61025ae37ef11b136ea224fe,,,,,,,,,1983,69,-115,1,0,0,response3disk,,4,-7,-8,1,0,0,rectangle,-7,-8,1,0,0,-7,-8,1,0,0,0,131,131,104,1,,,,,,,,
,,,,,,,,,,,,,FF,,,,,,,,1.418345,,,,,,,,,,,,,,,,,,,,,,60fcac2063bbc8bce2700ad5,61036eddd99f010363a36d98,2021-07-29_22h18.04.257,Simcolourproject_2stim_asymm_v5,2020.2.10,Win32,60,61025ae37ef11b136ea224fe,,,,,,,,,1109,140,62,1,0,0,response1disk,,6,27,17,1,0,0,rectangle,27,17,1,0,0,27,17,1,0,0,0,132,132,12,1,,,,,,,,
,,,,,,,,,,,,,FF,,,,,,,,0.716245,,,,,,,,,,,,,,,,,,,,,,60fcac2063bbc8bce2700ad5,61036eddd99f010363a36d98,2021-07-29_22h18.04.257,Simcolourproject_2stim_asymm_v5,2020.2.10,Win32,60,61025ae37ef11b136ea224fe,,,,,,,,,31,93,40,1,0,0,response1disk,,6,47,3,1,0,0,rectangle,47,3,1,0,0,47,3,1,0,0,0,133,133,72,1,,,,,,,,
,,,,,,,,,,,,,FF,,,,,,,,0.798945,,,,,,,,,,,,,,,,,,,,,,60fcac2063bbc8bce2700ad5,61036eddd99f010363a36d98,2021-07-29_22h18.04.257,Simcolourproject_2stim_asymm_v5,2020.2.10,Win32,60,61025ae37ef11b136ea224fe,,,,,,,,,810,-107,-93,1,0,0,response5disk,,2,-20,-14,1,0,0,rectangle,-20,-14,1,0,0,-20,-14,1,0,0,0,134,134,68,1,,,,,,,,
,,,,,,,,,,,,,FF,,,,,,,,0.618075,,,,,,,,,,,,,,,,,,,,,,60fcac2063bbc8bce2700ad5,61036eddd99f010363a36d98,2021-07-29_22h18.04.257,Simcolourproject_2stim_asymm_v5,2020.2.10,Win32,60,61025ae37ef11b136ea224fe,,,,,,,,,4144,-40,-93,1,0,0,response5disk,,3,-22,-17,1,0,0,rectangle,-22,-17,1,0,0,-22,-17,1,0,0,0,135,135,45,1,,,,,,,,
,,,,,,,,,,,,,FF,,,,,,,,0.800245,,,,,,,,,,,,,,,,,,,,,,60fcac2063bbc8bce2700ad5,61036eddd99f010363a36d98,2021-07-29_22h18.04.257,Simcolourproject_2stim_asymm_v5,2020.2.10,Win32,60,61025ae37ef11b136ea224fe,,,,,,,,,572,71,-43,1,0,0,response3disk,,5,-1,-2,1,0,0,rectangle,-1,-2,1,0,0,-1,-2,1,0,0,0,136,136,136,1,,,,,,,,
,,,,,,,,,,,,,FF,,,,,,,,0.982775,,,,,,,,,,,,,,,,,,,,,,60fcac2063bbc8bce2700ad5,61036eddd99f010363a36d98,2021-07-29_22h18.04.257,Simcolourproject_2stim_asymm_v5,2020.2.10,Win32,60,61025ae37ef11b136ea224fe,,,,,,,,,2583,99,36,1,0,0,response1disk,,6,44,-15,1,0,0,rectangle,44,-15,1,0,0,44,-15,1,0,0,0,137,137,82,1,,,,,,,,
,,,,,,,,,,,,,FF,,,,,,,,0.799995,,,,,,,,,,,,,,,,,,,,,,60fcac2063bbc8bce2700ad5,61036eddd99f010363a36d98,2021-07-29_22h18.04.257,Simcolourproject_2stim_asymm_v5,2020.2.10,Win32,60,61025ae37ef11b136ea224fe,,,,,,,,,803,-129,-64,1,0,0,response5disk,,2,-41,12,1,0,0,rectangle,-41,12,1,0,0,-41,12,1,0,0,0,138,138,99,1,,,,,,,,
,,,,,,,,,,,,,FF,,,,,,,,0.64986,,,,,,,,,,,,,,,,,,,,,,60fcac2063bbc8bce2700ad5,61036eddd99f010363a36d98,2021-07-29_22h18.04.257,Simcolourproject_2stim_asymm_v5,2020.2.10,Win32,60,61025ae37ef11b136ea224fe,,,,,,,,,3501,63,122,1,0,0,response1disk,,7,-9,-13,1,0,0,rectangle,-9,-13,1,0,0,-9,-13,1,0,0,0,139,139,118,1,,,,,,,,
,,,,,,,,,,,,,FF,,,,,,,,1.05075,,,,,,,,,,,,,,,,,,,,,,60fcac2063bbc8bce2700ad5,61036eddd99f010363a36d98,2021-07-29_22h18.04.257,Simcolourproject_2stim_asymm_v5,2020.2.10,Win32,60,61025ae37ef11b136ea224fe,,,,,,,,,3482,-36,-131,1,0,0,response5disk,,3,22,8,1,0,0,rectangle,-62,-148,1,0,0,-12,-3,1,0,0,0,140,140,63,1,,response5disk_3,TRUE,3,3,"[263,146,214,296,183,206,152,148,287,155,273,311,141,279,212,74,166,225,2,284]",1.183785,rectangle
,,,,,,,,,,,,,FF,,,,,,,,0.78267,,,,,,,,,,,,,,,,,,,,,,60fcac2063bbc8bce2700ad5,61036eddd99f010363a36d98,2021-07-29_22h18.04.257,Simcolourproject_2stim_asymm_v5,2020.2.10,Win32,60,61025ae37ef11b136ea224fe,,,,,,,,,2368,-51,-108,1,0,0,response5disk,,3,4,-2,1,0,0,rectangle,4,-2,1,0,0,4,-2,1,0,0,0,141,141,38,1,,,,,,,,
,,,,,,,,,,,,,FF,,,,,,,,2.566755,,,,,,,,,,,,,,,,,,,,,,60fcac2063bbc8bce2700ad5,61036eddd99f010363a36d98,2021-07-29_22h18.04.257,Simcolourproject_2stim_asymm_v5,2020.2.10,Win32,60,61025ae37ef11b136ea224fe,,,,,,,,,3684,92,50,1,0,0,response1disk,,6,13,4,1,0,0,rectangle,13,4,1,0,0,13,4,1,0,0,0,142,142,43,1,,,,,,,,
,,,,,,,,,,,,,FF,,,,,,,,0.81715,,,,,,,,,,,,,,,,,,,,,,60fcac2063bbc8bce2700ad5,61036eddd99f010363a36d98,2021-07-29_22h18.04.257,Simcolourproject_2stim_asymm_v5,2020.2.10,Win32,60,61025ae37ef11b136ea224fe,,,,,,,,,920,82,26,1,0,0,response1disk,,6,-5,5,1,0,0,rectangle,-5,5,1,0,0,-5,5,1,0,0,0,143,143,41,1,,,,,,,,
,,,,,,,,,,,,,FF,,,,,,,,1.5156,,,,,,,,,,,,,,,,,,,,,,60fcac2063bbc8bce2700ad5,61036eddd99f010363a36d98,2021-07-29_22h18.04.257,Simcolourproject_2stim_asymm_v5,2020.2.10,Win32,60,61025ae37ef11b136ea224fe,,,,,,,,,645,62,-100,1,0,0,response3disk,,4,10,-2,1,0,0,rectangle,10,-2,1,0,0,10,-2,1,0,0,0,144,144,49,1,,,,,,,,
,,,,,,,,,,,,,FF,,,,,,,,1.006435,,,,,,,,,,,,,,,,,,,,,,60fcac2063bbc8bce2700ad5,61036eddd99f010363a36d98,2021-07-29_22h18.04.257,Simcolourproject_2stim_asymm_v5,2020.2.10,Win32,60,61025ae37ef11b136ea224fe,,,,,,,,,951,117,-42,1,0,0,response3disk,,5,20,-14,1,0,0,rectangle,-122,-83,1,0,0,-4,15,1,0,0,0,145,145,24,1,,response5disk_3,TRUE,2,2,"[263,146,214,296,183,206,152,148,287,155,273,311,141,279,212,74,166,225,2,284]",1.316185,rectangle
,,,,,,,,,,,,,FF,,,,,,,,0.67237,,,,,,,,,,,,,,,,,,,,,,60fcac2063bbc8bce2700ad5,61036eddd99f010363a36d98,2021-07-29_22h18.04.257,Simcolourproject_2stim_asymm_v5,2020.2.10,Win32,60,61025ae37ef11b136ea224fe,,,,,,,,,2676,-55,-97,1,0,0,response5disk,,3,-23,1,1,0,0,rectangle,-23,1,1,0,0,-23,1,1,0,0,0,146,146,158,1,,,,,,,,
,,,,,,,,,,,,,FF,,,,,,,,1.24951,,,,,,,,,,,,,,,,,,,,,,60fcac2063bbc8bce2700ad5,61036eddd99f010363a36d98,2021-07-29_22h18.04.257,Simcolourproject_2stim_asymm_v5,2020.2.10,Win32,60,61025ae37ef11b136ea224fe,,,,,,,,,1304,-55,-99,1,0,0,response5disk,,3,12,-5,1,0,0,rectangle,-105,-78,1,0,0,23,3,1,0,0,0,147,147,124,1,,response5disk_3,TRUE,2,2,"[263,146,214,296,183,206,152,148,287,155,273,311,141,279,212,74,166,225,2,284]",1.23825,rectangle
,,,,,,,,,,,,,FF,,,,,,,,1.172115,,,,,,,,,,,,,,,,,,,,,,60fcac2063bbc8bce2700ad5,61036eddd99f010363a36d98,2021-07-29_22h18.04.257,Simcolourproject_2stim_asymm_v5,2020.2.10,Win32,60,61025ae37ef11b136ea224fe,,,,,,,,,42,72,-104,1,0,0,response3disk,,4,-17,-16,1,0,0,rectangle,-17,-16,1,0,0,-17,-16,1,0,0,0,148,148,157,1,,,,,,,,
,,,,,,,,,,,,,FF,,,,,,,,2.49955,,,,,,,,,,,,,,,,,,,,,,60fcac2063bbc8bce2700ad5,61036eddd99f010363a36d98,2021-07-29_22h18.04.257,Simcolourproject_2stim_asymm_v5,2020.2.10,Win32,60,61025ae37ef11b136ea224fe,,,,,,,,,1121,69,-104,1,0,0,response3disk,,4,-15,1,1,0,0,rectangle,-15,1,1,0,0,-15,1,1,0,0,0,149,149,40,1,,,,,,,,
,,,,,,,,,,,,,FF,,,,,,,,1.30613,,,,,,,,,,,,,,,,,,,,,,60fcac2063bbc8bce2700ad5,61036eddd99f010363a36d98,2021-07-29_22h18.04.257,Simcolourproject_2stim_asymm_v5,2020.2.10,Win32,60,61025ae37ef11b136ea224fe,,,,,,,,,2760,130,-46,1,0,0,response3disk,,5,-6,-9,1,0,0,rectangle,-6,-9,1,0,0,-6,-9,1,0,0,0,150,150,108,1,,,,,,,,
,,,,,,,,,,,,,FF,,,,,,,,0.64972,,,,,,,,,,,,,,,,,,,,,,60fcac2063bbc8bce2700ad5,61036eddd99f010363a36d98,2021-07-29_22h18.04.257,Simcolourproject_2stim_asymm_v5,2020.2.10,Win32,60,61025ae37ef11b136ea224fe,,,,,,,,,996,122,-40,1,0,0,response3disk,,5,-14,-4,1,0,0,rectangle,93,33,1,0,0,-5,10,1,0,0,0,151,151,127,1,,response1disk_3,TRUE,6,6,"[263,146,214,296,183,206,152,148,287,155,273,311,141,279,212,74,166,225,2,284]",1.24935,rectangle
,,,,,,,,,,,,,FF,,,,,,,,1.416995,,,,,,,,,,,,,,,,,,,,,,60fcac2063bbc8bce2700ad5,61036eddd99f010363a36d98,2021-07-29_22h18.04.257,Simcolourproject_2stim_asymm_v5,2020.2.10,Win32,60,61025ae37ef11b136ea224fe,,,,,,,,,2434,35,-109,1,0,0,response3disk,,4,-3,14,1,0,0,rectangle,-3,14,1,0,0,-3,14,1,0,0,0,152,152,106,1,,,,,,,,
,,,,,,,,,,,,,FF,,,,,,,,1.159705,,,,,,,,,,,,,,,,,,,,,,60fcac2063bbc8bce2700ad5,61036eddd99f010363a36d98,2021-07-29_22h18.04.257,Simcolourproject_2stim_asymm_v5,2020.2.10,Win32,60,61025ae37ef11b136ea224fe,,,,,,,,,1976,89,-65,1,0,0,response3disk,,5,-11,6,1,0,0,rectangle,-11,6,1,0,0,-11,6,1,0,0,0,153,153,36,1,,,,,,,,
,,,,,,,,,,,,,FF,,,,,,,,0.81725,,,,,,,,,,,,,,,,,,,,,,60fcac2063bbc8bce2700ad5,61036eddd99f010363a36d98,2021-07-29_22h18.04.257,Simcolourproject_2stim_asymm_v5,2020.2.10,Win32,60,61025ae37ef11b136ea224fe,,,,,,,,,3158,-125,-73,1,0,0,response5disk,,2,-36,10,1,0,0,rectangle,98,43,1,0,0,9,-4,1,0,0,0,154,154,134,1,,response1disk_3,TRUE,6,6,"[263,146,214,296,183,206,152,148,287,155,273,311,141,279,212,74,166,225,2,284]",1.584185,rectangle
,,,,,,,,,,,,,FF,,,,,,,,0.784615,,,,,,,,,,,,,,,,,,,,,,60fcac2063bbc8bce2700ad5,61036eddd99f010363a36d98,2021-07-29_22h18.04.257,Simcolourproject_2stim_asymm_v5,2020.2.10,Win32,60,61025ae37ef11b136ea224fe,,,,,,,,,2694,42,72,1,0,0,response1disk,,7,5,2,1,0,0,rectangle,5,2,1,0,0,5,2,1,0,0,0,155,155,153,1,,,,,,,,
,,,,,,,,,,,,,FF,,,,,,,,0.71704,,,,,,,,,,,,,,,,,,,,,,60fcac2063bbc8bce2700ad5,61036eddd99f010363a36d98,2021-07-29_22h18.04.257,Simcolourproject_2stim_asymm_v5,2020.2.10,Win32,60,61025ae37ef11b136ea224fe,,,,,,,,,3098,-86,-59,1,0,0,response5disk,,2,-34,10,1,0,0,rectangle,-34,10,1,0,0,-34,10,1,0,0,0,156,156,64,1,,,,,,,,
,,,,,,,,,,,,,FF,,,,,,,,1.299695,,,,,,,,,,,,,,,,,,,,,,60fcac2063bbc8bce2700ad5,61036eddd99f010363a36d98,2021-07-29_22h18.04.257,Simcolourproject_2stim_asymm_v5,2020.2.10,Win32,60,61025ae37ef11b136ea224fe,,,,,,,,,1684,-115,37,1,0,0,response7disk,,1,-27,0,1,0,0,rectangle,-27,0,1,0,0,-27,0,1,0,0,0,157,157,98,1,,,,,,,,
,,,,,,,,,,,,,FF,,,,,,,,0.8864,,,,,,,,,,,,,,,,,,,,,,60fcac2063bbc8bce2700ad5,61036eddd99f010363a36d98,2021-07-29_22h18.04.257,Simcolourproject_2stim_asymm_v5,2020.2.10,Win32,60,61025ae37ef11b136ea224fe,,,,,,,,,607,115,-65,1,0,0,response3disk,,5,26,0,1,0,0,rectangle,26,0,1,0,0,26,0,1,0,0,0,158,158,26,1,,,,,,,,
,,,,,,,,,,,,,FF,,,,,,,,0.850285,,,,,,,,,,,,,,,,,,,,,,60fcac2063bbc8bce2700ad5,61036eddd99f010363a36d98,2021-07-29_22h18.04.257,Simcolourproject_2stim_asymm_v5,2020.2.10,Win32,60,61025ae37ef11b136ea224fe,,,,,,,,,70,-125,-49,1,0,0,response5disk,,2,2,17,1,0,0,rectangle,2,17,1,0,0,2,17,1,0,0,0,159,159,113,1,,,,,,,,
,,,,,,,,,,,,,FF,,,,,,,,0.73297,,,,,,,,,,,,,,,,,,,,,,60fcac2063bbc8bce2700ad5,61036eddd99f010363a36d98,2021-07-29_22h18.04.257,Simcolourproject_2stim_asymm_v5,2020.2.10,Win32,60,61025ae37ef11b136ea224fe,,,,,,,,,2210,47,70,1,0,0,response1disk,,7,28,3,1,0,0,rectangle,28,3,1,0,0,28,3,1,0,0,1,0,160,35,1,,,,,,,,
,,,,,,,,,,,,,FF,,,,,,,,1.299925,,,,,,,,,,,,,,,,,,,,,,60fcac2063bbc8bce2700ad5,61036eddd99f010363a36d98,2021-07-29_22h18.04.257,Simcolourproject_2stim_asymm_v5,2020.2.10,Win32,60,61025ae37ef11b136ea224fe,,,,,,,,,2947,-118,-80,1,0,0,response5disk,,2,-2,-6,1,0,0,rectangle,-2,-6,1,0,0,-2,-6,1,0,0,1,1,161,127,1,,,,,,,,
,,,,,,,,,,,,,FF,,,,,,,,0.516815,,,,,,,,,,,,,,,,,,,,,,60fcac2063bbc8bce2700ad5,61036eddd99f010363a36d98,2021-07-29_22h18.04.257,Simcolourproject_2stim_asymm_v5,2020.2.10,Win32,60,61025ae37ef11b136ea224fe,,,,,,,,,3046,-89,-28,1,0,0,response5disk,,2,-35,2,1,0,0,rectangle,-35,2,1,0,0,-35,2,1,0,0,1,2,162,126,1,,,,,,,,
,,,,,,,,,,,,,FF,,,,,,,,0.785575,,,,,,,,,,,,,,,,,,,,,,60fcac2063bbc8bce2700ad5,61036eddd99f010363a36d98,2021-07-29_22h18.04.257,Simcolourproject_2stim_asymm_v5,2020.2.10,Win32,60,61025ae37ef11b136ea224fe,,,,,,,,,1225,-46,-97,1,0,0,response5disk,,3,-16,-6,1,0,0,rectangle,-16,-6,1,0,0,-16,-6,1,0,0,1,3,163,89,1,,,,,,,,
,,,,,,,,,,,,,FF,,,,,,,,0.733415,,,,,,,,,,,,,,,,,,,,,,60fcac2063bbc8bce2700ad5,61036eddd99f010363a36d98,2021-07-29_22h18.04.257,Simcolourproject_2stim_asymm_v5,2020.2.10,Win32,60,61025ae37ef11b136ea224fe,,,,,,,,,1068,73,-41,1,0,0,response3disk,,5,27,-14,1,0,0,rectangle,27,-14,1,0,0,27,-14,1,0,0,1,4,164,38,1,,,,,,,,
,,,,,,,,,,,,,FF,,,,,,,,0.98302,,,,,,,,,,,,,,,,,,,,,,60fcac2063bbc8bce2700ad5,61036eddd99f010363a36d98,2021-07-29_22h18.04.257,Simcolourproject_2stim_asymm_v5,2020.2.10,Win32,60,61025ae37ef11b136ea224fe,,,,,,,,,3677,74,-112,1,0,0,response3disk,,4,-18,-10,1,0,0,rectangle,-93,40,1,0,0,-23,9,1,0,0,1,5,165,79,1,,response7disk_3,TRUE,1,1,"[263,146,214,296,183,206,152,148,287,155,273,311,141,279,212,74,166,225,2,284]",1.017175,rectangle
,,,,,,,,,,,,,FF,,,,,,,,1.41715,,,,,,,,,,,,,,,,,,,,,,60fcac2063bbc8bce2700ad5,61036eddd99f010363a36d98,2021-07-29_22h18.04.257,Simcolourproject_2stim_asymm_v5,2020.2.10,Win32,60,61025ae37ef11b136ea224fe,,,,,,,,,4033,70,98,1,0,0,response1disk,,7,28,3,1,0,0,rectangle,28,3,1,0,0,28,3,1,0,0,1,6,166,74,1,,,,,,,,
,,,,,,,,,,,,,FF,,,,,,,,1.000155,,,,,,,,,,,,,,,,,,,,,,60fcac2063bbc8bce2700ad5,61036eddd99f010363a36d98,2021-07-29_22h18.04.257,Simcolourproject_2stim_asymm_v5,2020.2.10,Win32,60,61025ae37ef11b136ea224fe,,,,,,,,,2245,85,41,1,0,0,response1disk,,6,33,6,1,0,0,rectangle,33,6,1,0,0,33,6,1,0,0,1,7,167,91,1,,,,,,,,
,,,,,,,,,,,,,FF,,,,,,,,1.050265,,,,,,,,,,,,,,,,,,,,,,60fcac2063bbc8bce2700ad5,61036eddd99f010363a36d98,2021-07-29_22h18.04.257,Simcolourproject_2stim_asymm_v5,2020.2.10,Win32,60,61025ae37ef11b136ea224fe,,,,,,,,,3661,26,-108,1,0,0,response3disk,,4,-29,-18,1,0,0,rectangle,-29,-18,1,0,0,-29,-18,1,0,0,1,8,168,46,1,,,,,,,,
,,,,,,,,,,,,,FF,,,,,,,,0.63432,,,,,,,,,,,,,,,,,,,,,,60fcac2063bbc8bce2700ad5,61036eddd99f010363a36d98,2021-07-29_22h18.04.257,Simcolourproject_2stim_asymm_v5,2020.2.10,Win32,60,61025ae37ef11b136ea224fe,,,,,,,,,898,-36,-94,1,0,0,response5disk,,3,33,0,1,0,0,rectangle,33,0,1,0,0,33,0,1,0,0,1,9,169,139,1,,,,,,,,
,,,,,,,,,,,,,FF,,,,,,,,0.64935,,,,,,,,,,,,,,,,,,,,,,60fcac2063bbc8bce2700ad5,61036eddd99f010363a36d98,2021-07-29_22h18.04.257,Simcolourproject_2stim_asymm_v5,2020.2.10,Win32,60,61025ae37ef11b136ea224fe,,,,,,,,,3901,-75,-51,1,0,0,response5disk,,2,-3,6,1,0,0,rectangle,-3,6,1,0,0,-3,6,1,0,0,1,10,170,41,1,,,,,,,,
,,,,,,,,,,,,,FF,,,,,,,,0.599385,,,,,,,,,,,,,,,,,,,,,,60fcac2063bbc8bce2700ad5,61036eddd99f010363a36d98,2021-07-29_22h18.04.257,Simcolourproject_2stim_asymm_v5,2020.2.10,Win32,60,61025ae37ef11b136ea224fe,,,,,,,,,219,88,-46,1,0,0,response3disk,,5,25,7,1,0,0,rectangle,25,7,1,0,0,25,7,1,0,0,1,11,171,61,1,,,,,,,,
,,,,,,,,,,,,,FF,,,,,,,,1.399595,,,,,,,,,,,,,,,,,,,,,,60fcac2063bbc8bce2700ad5,61036eddd99f010363a36d98,2021-07-29_22h18.04.257,Simcolourproject_2stim_asymm_v5,2020.2.10,Win32,60,61025ae37ef11b136ea224fe,,,,,,,,,3204,90,35,1,0,0,response1disk,,6,3,-13,1,0,0,rectangle,3,-13,1,0,0,3,-13,1,0,0,1,12,172,65,1,,,,,,,,
,,,,,,,,,,,,,FF,,,,,,,,0.60022,,,,,,,,,,,,,,,,,,,,,,60fcac2063bbc8bce2700ad5,61036eddd99f010363a36d98,2021-07-29_22h18.04.257,Simcolourproject_2stim_asymm_v5,2020.2.10,Win32,60,61025ae37ef11b136ea224fe,,,,,,,,,429,108,47,1,0,0,response1disk,,6,-1,-7,1,0,0,rectangle,-1,-7,1,0,0,-1,-7,1,0,0,1,13,173,129,1,,,,,,,,
,,,,,,,,,,,,,FF,,,,,,,,0.83298,,,,,,,,,,,,,,,,,,,,,,60fcac2063bbc8bce2700ad5,61036eddd99f010363a36d98,2021-07-29_22h18.04.257,Simcolourproject_2stim_asymm_v5,2020.2.10,Win32,60,61025ae37ef11b136ea224fe,,,,,,,,,4199,34,68,1,0,0,response1disk,,7,-10,1,1,0,0,rectangle,-10,1,1,0,0,-10,1,1,0,0,1,14,174,0,1,,,,,,,,
,,,,,,,,,,,,,FF,,,,,,,,0.733315,,,,,,,,,,,,,,,,,,,,,,60fcac2063bbc8bce2700ad5,61036eddd99f010363a36d98,2021-07-29_22h18.04.257,Simcolourproject_2stim_asymm_v5,2020.2.10,Win32,60,61025ae37ef11b136ea224fe,,,,,,,,,3889,125,-66,1,0,0,response3disk,,5,-3,-12,1,0,0,rectangle,-3,-12,1,0,0,-3,-12,1,0,0,1,15,175,8,1,,,,,,,,
,,,,,,,,,,,,,FF,,,,,,,,0.73336,,,,,,,,,,,,,,,,,,,,,,60fcac2063bbc8bce2700ad5,61036eddd99f010363a36d98,2021-07-29_22h18.04.257,Simcolourproject_2stim_asymm_v5,2020.2.10,Win32,60,61025ae37ef11b136ea224fe,,,,,,,,,634,-43,-105,1,0,0,response5disk,,3,11,-15,1,0,0,rectangle,11,-15,1,0,0,11,-15,1,0,0,1,16,176,47,1,,,,,,,,
,,,,,,,,,,,,,FF,,,,,,,,1.150095,,,,,,,,,,,,,,,,,,,,,,60fcac2063bbc8bce2700ad5,61036eddd99f010363a36d98,2021-07-29_22h18.04.257,Simcolourproject_2stim_asymm_v5,2020.2.10,Win32,60,61025ae37ef11b136ea224fe,,,,,,,,,717,-40,101,1,0,0,response7disk,,0,-34,21,1,0,0,rectangle,-34,21,1,0,0,-34,21,1,0,0,1,17,177,95,1,,,,,,,,
,,,,,,,,,,,,,FF,,,,,,,,1.01668,,,,,,,,,,,,,,,,,,,,,,60fcac2063bbc8bce2700ad5,61036eddd99f010363a36d98,2021-07-29_22h18.04.257,Simcolourproject_2stim_asymm_v5,2020.2.10,Win32,60,61025ae37ef11b136ea224fe,,,,,,,,,1861,88,-46,1,0,0,response3disk,,5,9,1,1,0,0,rectangle,9,1,1,0,0,9,1,1,0,0,1,18,178,154,1,,,,,,,,
,,,,,,,,,,,,,FF,,,,,,,,0.749695,,,,,,,,,,,,,,,,,,,,,,60fcac2063bbc8bce2700ad5,61036eddd99f010363a36d98,2021-07-29_22h18.04.257,Simcolourproject_2stim_asymm_v5,2020.2.10,Win32,60,61025ae37ef11b136ea224fe,,,,,,,,,3019,77,60,1,0,0,response1disk,,6,-11,-8,1,0,0,rectangle,-11,-8,1,0,0,-11,-8,1,0,0,1,19,179,155,1,,,,,,,,
,,,,,,,,,,,,,FF,,,,,,,,0.483405,,,,,,,,,,,,,,,,,,,,,,60fcac2063bbc8bce2700ad5,61036eddd99f010363a36d98,2021-07-29_22h18.04.257,Simcolourproject_2stim_asymm_v5,2020.2.10,Win32,60,61025ae37ef11b136ea224fe,,,,,,,,,1853,83,53,1,0,0,response1disk,,6,30,5,1,0,0,rectangle,30,5,1,0,0,30,5,1,0,0,1,20,180,114,1,,,,,,,,
,,,,,,,,,,,,,FF,,,,,,,,0.799675,,,,,,,,,,,,,,,,,,,,,,60fcac2063bbc8bce2700ad5,61036eddd99f010363a36d98,2021-07-29_22h18.04.257,Simcolourproject_2stim_asymm_v5,2020.2.10,Win32,60,61025ae37ef11b136ea224fe,,,,,,,,,1995,36,83,1,0,0,response1disk,,7,16,9,1,0,0,rectangle,16,9,1,0,0,16,9,1,0,0,1,21,181,145,1,,,,,,,,
,,,,,,,,,,,,,FF,,,,,,,,0.93452,,,,,,,,,,,,,,,,,,,,,,60fcac2063bbc8bce2700ad5,61036eddd99f010363a36d98,2021-07-29_22h18.04.257,Simcolourproject_2stim_asymm_v5,2020.2.10,Win32,60,61025ae37ef11b136ea224fe,,,,,,,,,2101,-109,-73,1,0,0,response5disk,,2,-9,16,1,0,0,rectangle,110,-57,1,0,0,20,9,1,0,0,1,22,182,147,1,,response3disk_3,TRUE,5,5,"[263,146,214,296,183,206,152,148,287,155,273,311,141,279,212,74,166,225,2,284]",1.0496,rectangle
,,,,,,,,,,,,,FF,,,,,,,,0.882965,,,,,,,,,,,,,,,,,,,,,,60fcac2063bbc8bce2700ad5,61036eddd99f010363a36d98,2021-07-29_22h18.04.257,Simcolourproject_2stim_asymm_v5,2020.2.10,Win32,60,61025ae37ef11b136ea224fe,,,,,,,,,1527,-32,-89,1,0,0,response5disk,,3,-7,4,1,0,0,rectangle,-7,4,1,0,0,-7,4,1,0,0,1,23,183,84,1,,,,,,,,
,,,,,,,,,,,,,FF,,,,,,,,1.333235,,,,,,,,,,,,,,,,,,,,,,60fcac2063bbc8bce2700ad5,61036eddd99f010363a36d98,2021-07-29_22h18.04.257,Simcolourproject_2stim_asymm_v5,2020.2.10,Win32,60,61025ae37ef11b136ea224fe,,,,,,,,,3088,74,35,1,0,0,response1disk,,6,-7,-8,1,0,0,rectangle,-7,-8,1,0,0,-7,-8,1,0,0,1,24,184,54,1,,,,,,,,
,,,,,,,,,,,,,FF,,,,,,,,0.533395,,,,,,,,,,,,,,,,,,,,,,60fcac2063bbc8bce2700ad5,61036eddd99f010363a36d98,2021-07-29_22h18.04.257,Simcolourproject_2stim_asymm_v5,2020.2.10,Win32,60,61025ae37ef11b136ea224fe,,,,,,,,,142,94,47,1,0,0,response1disk,,6,0,-16,1,0,0,rectangle,0,-16,1,0,0,0,-16,1,0,0,1,25,185,116,1,,,,,,,,
,,,,,,,,,,,,,FF,,,,,,,,0.766635,,,,,,,,,,,,,,,,,,,,,,60fcac2063bbc8bce2700ad5,61036eddd99f010363a36d98,2021-07-29_22h18.04.257,Simcolourproject_2stim_asymm_v5,2020.2.10,Win32,60,61025ae37ef11b136ea224fe,,,,,,,,,1897,36,-104,1,0,0,response3disk,,4,-11,6,1,0,0,rectangle,-11,6,1,0,0,-11,6,1,0,0,1,26,186,6,1,,,,,,,,
,,,,,,,,,,,,,FF,,,,,,,,1.200945,,,,,,,,,,,,,,,,,,,,,,60fcac2063bbc8bce2700ad5,61036eddd99f010363a36d98,2021-07-29_22h18.04.257,Simcolourproject_2stim_asymm_v5,2020.2.10,Win32,60,61025ae37ef11b136ea224fe,,,,,,,,,513,98,49,1,0,0,response1disk,,6,8,-13,1,0,0,rectangle,8,-13,1,0,0,8,-13,1,0,0,1,27,187,159,1,,,,,,,,
,,,,,,,,,,,,,FF,,,,,,,,1.000285,,,,,,,,,,,,,,,,,,,,,,60fcac2063bbc8bce2700ad5,61036eddd99f010363a36d98,2021-07-29_22h18.04.257,Simcolourproject_2stim_asymm_v5,2020.2.10,Win32,60,61025ae37ef11b136ea224fe,,,,,,,,,2763,32,51,1,0,0,response1disk,,7,18,3,1,0,0,rectangle,18,3,1,0,0,18,3,1,0,0,1,28,188,123,1,,,,,,,,
,,,,,,,,,,,,,FF,,,,,,,,0.50025,,,,,,,,,,,,,,,,,,,,,,60fcac2063bbc8bce2700ad5,61036eddd99f010363a36d98,2021-07-29_22h18.04.257,Simcolourproject_2stim_asymm_v5,2020.2.10,Win32,60,61025ae37ef11b136ea224fe,,,,,,,,,2867,72,28,1,0,0,response1disk,,6,-4,-14,1,0,0,rectangle,-4,-14,1,0,0,-4,-14,1,0,0,1,29,189,110,1,,,,,,,,
,,,,,,,,,,,,,FF,,,,,,,,0.449755,,,,,,,,,,,,,,,,,,,,,,60fcac2063bbc8bce2700ad5,61036eddd99f010363a36d98,2021-07-29_22h18.04.257,Simcolourproject_2stim_asymm_v5,2020.2.10,Win32,60,61025ae37ef11b136ea224fe,,,,,,,,,589,79,-49,1,0,0,response3disk,,5,36,-4,1,0,0,rectangle,36,-4,1,0,0,36,-4,1,0,0,1,30,190,72,1,,,,,,,,
,,,,,,,,,,,,,FF,,,,,,,,0.50024,,,,,,,,,,,,,,,,,,,,,,60fcac2063bbc8bce2700ad5,61036eddd99f010363a36d98,2021-07-29_22h18.04.257,Simcolourproject_2stim_asymm_v5,2020.2.10,Win32,60,61025ae37ef11b136ea224fe,,,,,,,,,4231,81,67,1,0,0,response1disk,,6,-21,12,1,0,0,rectangle,-21,12,1,0,0,-21,12,1,0,0,1,31,191,148,1,,,,,,,,
,,,,,,,,,,,,,FF,,,,,,,,0.48395,,,,,,,,,,,,,,,,,,,,,,60fcac2063bbc8bce2700ad5,61036eddd99f010363a36d98,2021-07-29_22h18.04.257,Simcolourproject_2stim_asymm_v5,2020.2.10,Win32,60,61025ae37ef11b136ea224fe,,,,,,,,,2328,53,67,1,0,0,response1disk,,7,13,10,1,0,0,rectangle,13,10,1,0,0,13,10,1,0,0,1,32,192,37,1,,,,,,,,
,,,,,,,,,,,,,FF,,,,,,,,0.449635,,,,,,,,,,,,,,,,,,,,,,60fcac2063bbc8bce2700ad5,61036eddd99f010363a36d98,2021-07-29_22h18.04.257,Simcolourproject_2stim_asymm_v5,2020.2.10,Win32,60,61025ae37ef11b136ea224fe,,,,,,,,,3541,100,48,1,0,0,response1disk,,6,25,10,1,0,0,rectangle,25,10,1,0,0,25,10,1,0,0,1,33,193,45,1,,,,,,,,
,,,,,,,,,,,,,FF,,,,,,,,0.516605,,,,,,,,,,,,,,,,,,,,,,60fcac2063bbc8bce2700ad5,61036eddd99f010363a36d98,2021-07-29_22h18.04.257,Simcolourproject_2stim_asymm_v5,2020.2.10,Win32,60,61025ae37ef11b136ea224fe,,,,,,,,,2640,79,54,1,0,0,response1disk,,6,22,12,1,0,0,rectangle,22,12,1,0,0,22,12,1,0,0,1,34,194,142,1,,,,,,,,
,,,,,,,,,,,,,FF,,,,,,,,0.70028,,,,,,,,,,,,,,,,,,,,,,60fcac2063bbc8bce2700ad5,61036eddd99f010363a36d98,2021-07-29_22h18.04.257,Simcolourproject_2stim_asymm_v5,2020.2.10,Win32,60,61025ae37ef11b136ea224fe,,,,,,,,,2828,40,-85,1,0,0,response3disk,,4,24,-3,1,0,0,rectangle,24,-3,1,0,0,24,-3,1,0,0,1,35,195,81,1,,,,,,,,
,,,,,,,,,,,,,FF,,,,,,,,0.66771,,,,,,,,,,,,,,,,,,,,,,60fcac2063bbc8bce2700ad5,61036eddd99f010363a36d98,2021-07-29_22h18.04.257,Simcolourproject_2stim_asymm_v5,2020.2.10,Win32,60,61025ae37ef11b136ea224fe,,,,,,,,,126,71,-29,1,0,0,response3disk,,5,34,5,1,0,0,rectangle,34,5,1,0,0,34,5,1,0,0,1,36,196,28,1,,,,,,,,
,,,,,,,,,,,,,FF,,,,,,,,0.483515,,,,,,,,,,,,,,,,,,,,,,60fcac2063bbc8bce2700ad5,61036eddd99f010363a36d98,2021-07-29_22h18.04.257,Simcolourproject_2stim_asymm_v5,2020.2.10,Win32,60,61025ae37ef11b136ea224fe,,,,,,,,,2809,66,32,1,0,0,response1disk,,6,23,12,1,0,0,rectangle,23,12,1,0,0,23,12,1,0,0,1,37,197,73,1,,,,,,,,
,,,,,,,,,,,,,FF,,,,,,,,0.48319,,,,,,,,,,,,,,,,,,,,,,60fcac2063bbc8bce2700ad5,61036eddd99f010363a36d98,2021-07-29_22h18.04.257,Simcolourproject_2stim_asymm_v5,2020.2.10,Win32,60,61025ae37ef11b136ea224fe,,,,,,,,,3118,63,38,1,0,0,response1disk,,6,24,4,1,0,0,rectangle,24,4,1,0,0,24,4,1,0,0,1,38,198,113,1,,,,,,,,
,,,,,,,,,,,,,FF,,,,,,,,0.63379,,,,,,,,,,,,,,,,,,,,,,60fcac2063bbc8bce2700ad5,61036eddd99f010363a36d98,2021-07-29_22h18.04.257,Simcolourproject_2stim_asymm_v5,2020.2.10,Win32,60,61025ae37ef11b136ea224fe,,,,,,,,,96,-46,-106,1,0,0,response5disk,,3,-2,-19,1,0,0,rectangle,-2,-19,1,0,0,-2,-19,1,0,0,1,39,199,14,1,,,,,,,,
,,,,,,,,,,,,,FF,,,,,,,,0.516545,,,,,,,,,,,,,,,,,,,,,,60fcac2063bbc8bce2700ad5,61036eddd99f010363a36d98,2021-07-29_22h18.04.257,Simcolourproject_2stim_asymm_v5,2020.2.10,Win32,60,61025ae37ef11b136ea224fe,,,,,,,,,588,31,-88,1,0,0,response3disk,,4,4,3,1,0,0,rectangle,4,3,1,0,0,4,3,1,0,0,1,40,200,13,1,,,,,,,,
,,,,,,,,,,,,,FF,,,,,,,,0.766405,,,,,,,,,,,,,,,,,,,,,,60fcac2063bbc8bce2700ad5,61036eddd99f010363a36d98,2021-07-29_22h18.04.257,Simcolourproject_2stim_asymm_v5,2020.2.10,Win32,60,61025ae37ef11b136ea224fe,,,,,,,,,3484,-23,-77,1,0,0,response5disk,,3,4,15,1,0,0,rectangle,4,15,1,0,0,4,15,1,0,0,1,41,201,52,1,,,,,,,,
,,,,,,,,,,,,,FF,,,,,,,,0.6164,,,,,,,,,,,,,,,,,,,,,,60fcac2063bbc8bce2700ad5,61036eddd99f010363a36d98,2021-07-29_22h18.04.257,Simcolourproject_2stim_asymm_v5,2020.2.10,Win32,60,61025ae37ef11b136ea224fe,,,,,,,,,4239,-57,-83,1,0,0,response5disk,,3,-6,0,1,0,0,rectangle,-6,0,1,0,0,-6,0,1,0,0,1,42,202,77,1,,,,,,,,
,,,,,,,,,,,,,FF,,,,,,,,0.648295,,,,,,,,,,,,,,,,,,,,,,60fcac2063bbc8bce2700ad5,61036eddd99f010363a36d98,2021-07-29_22h18.04.257,Simcolourproject_2stim_asymm_v5,2020.2.10,Win32,60,61025ae37ef11b136ea224fe,,,,,,,,,2226,-61,75,1,0,0,response7disk,,0,-14,17,1,0,0,rectangle,-14,17,1,0,0,-14,17,1,0,0,1,43,203,119,1,,,,,,,,
,,,,,,,,,,,,,FF,,,,,,,,0.81829,,,,,,,,,,,,,,,,,,,,,,60fcac2063bbc8bce2700ad5,61036eddd99f010363a36d98,2021-07-29_22h18.04.257,Simcolourproject_2stim_asymm_v5,2020.2.10,Win32,60,61025ae37ef11b136ea224fe,,,,,,,,,1257,85,-42,1,0,0,response3disk,,5,22,-6,1,0,0,rectangle,22,-6,1,0,0,22,-6,1,0,0,1,44,204,102,1,,,,,,,,
,,,,,,,,,,,,,FF,,,,,,,,0.5676,,,,,,,,,,,,,,,,,,,,,,60fcac2063bbc8bce2700ad5,61036eddd99f010363a36d98,2021-07-29_22h18.04.257,Simcolourproject_2stim_asymm_v5,2020.2.10,Win32,60,61025ae37ef11b136ea224fe,,,,,,,,,2390,67,-29,1,0,0,response3disk,,5,-14,7,1,0,0,rectangle,107,-46,1,0,0,17,-5,1,0,0,1,45,205,135,1,,response3disk_3,TRUE,5,5,"[263,146,214,296,183,206,152,148,287,155,273,311,141,279,212,74,166,225,2,284]",0.933955,rectangle
,,,,,,,,,,,,,FF,,,,,,,,0.849755,,,,,,,,,,,,,,,,,,,,,,60fcac2063bbc8bce2700ad5,61036eddd99f010363a36d98,2021-07-29_22h18.04.257,Simcolourproject_2stim_asymm_v5,2020.2.10,Win32,60,61025ae37ef11b136ea224fe,,,,,,,,,3871,85,36,1,0,0,response1disk,,6,-14,-20,1,0,0,rectangle,-14,-20,1,0,0,-14,-20,1,0,0,1,46,206,121,1,,,,,,,,
,,,,,,,,,,,,,FF,,,,,,,,0.583385,,,,,,,,,,,,,,,,,,,,,,60fcac2063bbc8bce2700ad5,61036eddd99f010363a36d98,2021-07-29_22h18.04.257,Simcolourproject_2stim_asymm_v5,2020.2.10,Win32,60,61025ae37ef11b136ea224fe,,,,,,,,,2418,-39,81,1,0,0,response7disk,,0,-13,7,1,0,0,rectangle,-13,7,1,0,0,-13,7,1,0,0,1,47,207,86,1,,,,,,,,
,,,,,,,,,,,,,FF,,,,,,,,0.650605,,,,,,,,,,,,,,,,,,,,,,60fcac2063bbc8bce2700ad5,61036eddd99f010363a36d98,2021-07-29_22h18.04.257,Simcolourproject_2stim_asymm_v5,2020.2.10,Win32,60,61025ae37ef11b136ea224fe,,,,,,,,,2592,26,81,1,0,0,response1disk,,7,1,9,1,0,0,rectangle,1,9,1,0,0,1,9,1,0,0,1,48,208,98,1,,,,,,,,
,,,,,,,,,,,,,FF,,,,,,,,0.800425,,,,,,,,,,,,,,,,,,,,,,60fcac2063bbc8bce2700ad5,61036eddd99f010363a36d98,2021-07-29_22h18.04.257,Simcolourproject_2stim_asymm_v5,2020.2.10,Win32,60,61025ae37ef11b136ea224fe,,,,,,,,,528,95,38,1,0,0,response1disk,,6,27,-4,1,0,0,rectangle,27,-4,1,0,0,27,-4,1,0,0,1,49,209,94,1,,,,,,,,
,,,,,,,,,,,,,FF,,,,,,,,2.252295,,,,,,,,,,,,,,,,,,,,,,60fcac2063bbc8bce2700ad5,61036eddd99f010363a36d98,2021-07-29_22h18.04.257,Simcolourproject_2stim_asymm_v5,2020.2.10,Win32,60,61025ae37ef11b136ea224fe,,,,,,,,,3247,109,-30,1,0,0,response3disk,,5,28,7,1,0,0,rectangle,28,7,1,0,0,28,7,1,0,0,1,50,210,88,1,,,,,,,,
,,,,,,,,,,,,,FF,,,,,,,,0.98383,,,,,,,,,,,,,,,,,,,,,,60fcac2063bbc8bce2700ad5,61036eddd99f010363a36d98,2021-07-29_22h18.04.257,Simcolourproject_2stim_asymm_v5,2020.2.10,Win32,60,61025ae37ef11b136ea224fe,,,,,,,,,1229,42,-131,1,0,0,response3disk,,4,-23,9,1,0,0,rectangle,-59,-144,1,0,0,-8,11,1,0,0,1,51,211,131,1,,response5disk_3,TRUE,3,3,"[263,146,214,296,183,206,152,148,287,155,273,311,141,279,212,74,166,225,2,284]",1.316595,rectangle
,,,,,,,,,,,,,FF,,,,,,,,0.93142,,,,,,,,,,,,,,,,,,,,,,60fcac2063bbc8bce2700ad5,61036eddd99f010363a36d98,2021-07-29_22h18.04.257,Simcolourproject_2stim_asymm_v5,2020.2.10,Win32,60,61025ae37ef11b136ea224fe,,,,,,,,,2727,-52,-94,1,0,0,response5disk,,3,-2,0,1,0,0,rectangle,-2,0,1,0,0,-2,0,1,0,0,1,52,212,118,1,,,,,,,,
,,,,,,,,,,,,,FF,,,,,,,,0.704165,,,,,,,,,,,,,,,,,,,,,,60fcac2063bbc8bce2700ad5,61036eddd99f010363a36d98,2021-07-29_22h18.04.257,Simcolourproject_2stim_asymm_v5,2020.2.10,Win32,60,61025ae37ef11b136ea224fe,,,,,,,,,1788,95,-137,1,0,0,response3disk,,4,24,-13,1,0,0,rectangle,61,-148,1,0,0,-16,1,1,0,0,1,53,213,64,1,,response3disk_3,TRUE,4,4,"[263,146,214,296,183,206,152,148,287,155,273,311,141,279,212,74,166,225,2,284]",1.0347,rectangle
,,,,,,,,,,,,,FF,,,,,,,,1.801615,,,,,,,,,,,,,,,,,,,,,,60fcac2063bbc8bce2700ad5,61036eddd99f010363a36d98,2021-07-29_22h18.04.257,Simcolourproject_2stim_asymm_v5,2020.2.10,Win32,60,61025ae37ef11b136ea224fe,,,,,,,,,1215,98,33,1,0,0,response1disk,,6,9,-10,1,0,0,rectangle,9,-10,1,0,0,9,-10,1,0,0,1,54,214,32,1,,,,,,,,
,,,,,,,,,,,,,FF,,,,,,,,0.600085,,,,,,,,,,,,,,,,,,,,,,60fcac2063bbc8bce2700ad5,61036eddd99f010363a36d98,2021-07-29_22h18.04.257,Simcolourproject_2stim_asymm_v5,2020.2.10,Win32,60,61025ae37ef11b136ea224fe,,,,,,,,,676,57,48,1,0,0,response1disk,,6,21,-14,1,0,0,rectangle,21,-14,1,0,0,21,-14,1,0,0,1,55,215,130,1,,,,,,,,
,,,,,,,,,,,,,FF,,,,,,,,0.46684,,,,,,,,,,,,,,,,,,,,,,60fcac2063bbc8bce2700ad5,61036eddd99f010363a36d98,2021-07-29_22h18.04.257,Simcolourproject_2stim_asymm_v5,2020.2.10,Win32,60,61025ae37ef11b136ea224fe,,,,,,,,,994,76,-40,1,0,0,response3disk,,5,2,1,1,0,0,rectangle,2,1,1,0,0,2,1,1,0,0,1,56,216,43,1,,,,,,,,
,,,,,,,,,,,,,FF,,,,,,,,0.799365,,,,,,,,,,,,,,,,,,,,,,60fcac2063bbc8bce2700ad5,61036eddd99f010363a36d98,2021-07-29_22h18.04.257,Simcolourproject_2stim_asymm_v5,2020.2.10,Win32,60,61025ae37ef11b136ea224fe,,,,,,,,,1867,35,-98,1,0,0,response3disk,,4,-9,4,1,0,0,rectangle,-9,4,1,0,0,-9,4,1,0,0,1,57,217,108,1,,,,,,,,
,,,,,,,,,,,,,FF,,,,,,,,0.873865,,,,,,,,,,,,,,,,,,,,,,60fcac2063bbc8bce2700ad5,61036eddd99f010363a36d98,2021-07-29_22h18.04.257,Simcolourproject_2stim_asymm_v5,2020.2.10,Win32,60,61025ae37ef11b136ea224fe,,,,,,,,,3631,-27,-108,1,0,0,response5disk,,3,-33,5,1,0,0,rectangle,-33,5,1,0,0,-33,5,1,0,0,1,58,218,134,1,,,,,,,,
,,,,,,,,,,,,,FF,,,,,,,,1.03308,,,,,,,,,,,,,,,,,,,,,,60fcac2063bbc8bce2700ad5,61036eddd99f010363a36d98,2021-07-29_22h18.04.257,Simcolourproject_2stim_asymm_v5,2020.2.10,Win32,60,61025ae37ef11b136ea224fe,,,,,,,,,843,92,69,1,0,0,response1disk,,6,27,1,1,0,0,rectangle,27,1,1,0,0,27,1,1,0,0,1,59,219,125,1,,,,,,,,
,,,,,,,,,,,,,FF,,,,,,,,0.600225,,,,,,,,,,,,,,,,,,,,,,60fcac2063bbc8bce2700ad5,61036eddd99f010363a36d98,2021-07-29_22h18.04.257,Simcolourproject_2stim_asymm_v5,2020.2.10,Win32,60,61025ae37ef11b136ea224fe,,,,,,,,,2722,-113,-69,1,0,0,response5disk,,2,3,-3,1,0,0,rectangle,3,-3,1,0,0,3,-3,1,0,0,1,60,220,24,1,,,,,,,,
,,,,,,,,,,,,,FF,,,,,,,,0.58297,,,,,,,,,,,,,,,,,,,,,,60fcac2063bbc8bce2700ad5,61036eddd99f010363a36d98,2021-07-29_22h18.04.257,Simcolourproject_2stim_asymm_v5,2020.2.10,Win32,60,61025ae37ef11b136ea224fe,,,,,,,,,2033,-72,-48,1,0,0,response5disk,,2,-6,5,1,0,0,rectangle,-6,5,1,0,0,-6,5,1,0,0,1,61,221,27,1,,,,,,,,
,,,,,,,,,,,,,FF,,,,,,,,0.833385,,,,,,,,,,,,,,,,,,,,,,60fcac2063bbc8bce2700ad5,61036eddd99f010363a36d98,2021-07-29_22h18.04.257,Simcolourproject_2stim_asymm_v5,2020.2.10,Win32,60,61025ae37ef11b136ea224fe,,,,,,,,,2681,29,-82,1,0,0,response3disk,,4,-16,10,1,0,0,rectangle,-16,10,1,0,0,-16,10,1,0,0,1,62,222,153,1,,,,,,,,
,,,,,,,,,,,,,FF,,,,,,,,0.60174,,,,,,,,,,,,,,,,,,,,,,60fcac2063bbc8bce2700ad5,61036eddd99f010363a36d98,2021-07-29_22h18.04.257,Simcolourproject_2stim_asymm_v5,2020.2.10,Win32,60,61025ae37ef11b136ea224fe,,,,,,,,,230,77,-26,1,0,0,response3disk,,5,17,-4,1,0,0,rectangle,17,-4,1,0,0,17,-4,1,0,0,1,63,223,48,1,,,,,,,,
,,,,,,,,,,,,,FF,,,,,,,,0.56757,,,,,,,,,,,,,,,,,,,,,,60fcac2063bbc8bce2700ad5,61036eddd99f010363a36d98,2021-07-29_22h18.04.257,Simcolourproject_2stim_asymm_v5,2020.2.10,Win32,60,61025ae37ef11b136ea224fe,,,,,,,,,2525,66,33,1,0,0,response1disk,,6,13,4,1,0,0,rectangle,-57,-115,1,0,0,-14,13,1,0,0,1,64,224,104,1,,response5disk_3,TRUE,3,3,"[263,146,214,296,183,206,152,148,287,155,273,311,141,279,212,74,166,225,2,284]",1.1171,rectangle
,,,,,,,,,,,,,FF,,,,,,,,0.63481,,,,,,,,,,,,,,,,,,,,,,60fcac2063bbc8bce2700ad5,61036eddd99f010363a36d98,2021-07-29_22h18.04.257,Simcolourproject_2stim_asymm_v5,2020.2.10,Win32,60,61025ae37ef11b136ea224fe,,,,,,,,,2481,-69,106,1,0,0,response7disk,,0,-13,0,1,0,0,rectangle,-13,0,1,0,0,-13,0,1,0,0,1,65,225,62,1,,,,,,,,
,,,,,,,,,,,,,FF,,,,,,,,0.80027,,,,,,,,,,,,,,,,,,,,,,60fcac2063bbc8bce2700ad5,61036eddd99f010363a36d98,2021-07-29_22h18.04.257,Simcolourproject_2stim_asymm_v5,2020.2.10,Win32,60,61025ae37ef11b136ea224fe,,,,,,,,,244,35,-60,1,0,0,response3disk,,4,-6,14,1,0,0,rectangle,-6,14,1,0,0,-6,14,1,0,0,1,66,226,5,1,,,,,,,,
,,,,,,,,,,,,,FF,,,,,,,,0.65107,,,,,,,,,,,,,,,,,,,,,,60fcac2063bbc8bce2700ad5,61036eddd99f010363a36d98,2021-07-29_22h18.04.257,Simcolourproject_2stim_asymm_v5,2020.2.10,Win32,60,61025ae37ef11b136ea224fe,,,,,,,,,1641,73,44,1,0,0,response1disk,,6,-14,-6,1,0,0,rectangle,-14,-6,1,0,0,-14,-6,1,0,0,1,67,227,44,1,,,,,,,,
,,,,,,,,,,,,,FF,,,,,,,,0.71531,,,,,,,,,,,,,,,,,,,,,,60fcac2063bbc8bce2700ad5,61036eddd99f010363a36d98,2021-07-29_22h18.04.257,Simcolourproject_2stim_asymm_v5,2020.2.10,Win32,60,61025ae37ef11b136ea224fe,,,,,,,,,4145,-25,-51,1,0,0,response5disk,,3,-9,5,1,0,0,rectangle,-9,5,1,0,0,-9,5,1,0,0,1,68,228,105,1,,,,,,,,
,,,,,,,,,,,,,FF,,,,,,,,0.54973,,,,,,,,,,,,,,,,,,,,,,60fcac2063bbc8bce2700ad5,61036eddd99f010363a36d98,2021-07-29_22h18.04.257,Simcolourproject_2stim_asymm_v5,2020.2.10,Win32,60,61025ae37ef11b136ea224fe,,,,,,,,,398,30,76,1,0,0,response1disk,,7,-5,-6,1,0,0,rectangle,-5,-6,1,0,0,-5,-6,1,0,0,1,69,229,70,1,,,,,,,,
,,,,,,,,,,,,,FF,,,,,,,,0.566805,,,,,,,,,,,,,,,,,,,,,,60fcac2063bbc8bce2700ad5,61036eddd99f010363a36d98,2021-07-29_22h18.04.257,Simcolourproject_2stim_asymm_v5,2020.2.10,Win32,60,61025ae37ef11b136ea224fe,,,,,,,,,3306,55,49,1,0,0,response1disk,,6,20,20,1,0,0,rectangle,20,20,1,0,0,20,20,1,0,0,1,70,230,63,1,,,,,,,,
,,,,,,,,,,,,,FF,,,,,,,,0.716305,,,,,,,,,,,,,,,,,,,,,,60fcac2063bbc8bce2700ad5,61036eddd99f010363a36d98,2021-07-29_22h18.04.257,Simcolourproject_2stim_asymm_v5,2020.2.10,Win32,60,61025ae37ef11b136ea224fe,,,,,,,,,2910,45,56,1,0,0,response1disk,,7,12,-3,1,0,0,rectangle,12,-3,1,0,0,12,-3,1,0,0,1,71,231,156,1,,,,,,,,
,,,,,,,,,,,,,FF,,,,,,,,1.23377,,,,,,,,,,,,,,,,,,,,,,60fcac2063bbc8bce2700ad5,61036eddd99f010363a36d98,2021-07-29_22h18.04.257,Simcolourproject_2stim_asymm_v5,2020.2.10,Win32,60,61025ae37ef11b136ea224fe,,,,,,,,,2887,-114,40,1,0,0,response7disk,,1,-46,13,1,0,0,rectangle,-46,13,1,0,0,-46,13,1,0,0,1,72,232,140,1,,,,,,,,
,,,,,,,,,,,,,FF,,,,,,,,1.366975,,,,,,,,,,,,,,,,,,,,,,60fcac2063bbc8bce2700ad5,61036eddd99f010363a36d98,2021-07-29_22h18.04.257,Simcolourproject_2stim_asymm_v5,2020.2.10,Win32,60,61025ae37ef11b136ea224fe,,,,,,,,,469,47,-79,1,0,0,response3disk,,4,-2,11,1,0,0,rectangle,-2,11,1,0,0,-2,11,1,0,0,1,73,233,7,1,,,,,,,,
,,,,,,,,,,,,,FF,,,,,,,,1.332615,,,,,,,,,,,,,,,,,,,,,,60fcac2063bbc8bce2700ad5,61036eddd99f010363a36d98,2021-07-29_22h18.04.257,Simcolourproject_2stim_asymm_v5,2020.2.10,Win32,60,61025ae37ef11b136ea224fe,,,,,,,,,4189,50,-73,1,0,0,response3disk,,4,27,-16,1,0,0,rectangle,27,-16,1,0,0,27,-16,1,0,0,1,74,234,151,1,,,,,,,,
,,,,,,,,,,,,,FF,,,,,,,,0.60106,,,,,,,,,,,,,,,,,,,,,,60fcac2063bbc8bce2700ad5,61036eddd99f010363a36d98,2021-07-29_22h18.04.257,Simcolourproject_2stim_asymm_v5,2020.2.10,Win32,60,61025ae37ef11b136ea224fe,,,,,,,,,2997,41,-76,1,0,0,response3disk,,4,-5,-2,1,0,0,rectangle,-5,-2,1,0,0,-5,-2,1,0,0,1,75,235,96,1,,,,,,,,
,,,,,,,,,,,,,FF,,,,,,,,0.532805,,,,,,,,,,,,,,,,,,,,,,60fcac2063bbc8bce2700ad5,61036eddd99f010363a36d98,2021-07-29_22h18.04.257,Simcolourproject_2stim_asymm_v5,2020.2.10,Win32,60,61025ae37ef11b136ea224fe,,,,,,,,,3163,-22,-68,1,0,0,response5disk,,3,-2,1,1,0,0,rectangle,-2,1,1,0,0,-2,1,1,0,0,1,76,236,149,1,,,,,,,,
,,,,,,,,,,,,,FF,,,,,,,,0.432575,,,,,,,,,,,,,,,,,,,,,,60fcac2063bbc8bce2700ad5,61036eddd99f010363a36d98,2021-07-29_22h18.04.257,Simcolourproject_2stim_asymm_v5,2020.2.10,Win32,60,61025ae37ef11b136ea224fe,,,,,,,,,2526,111,-30,1,0,0,response3disk,,5,-2,9,1,0,0,rectangle,-2,9,1,0,0,-2,9,1,0,0,1,77,237,50,1,,,,,,,,
,,,,,,,,,,,,,FF,,,,,,,,0.44931,,,,,,,,,,,,,,,,,,,,,,60fcac2063bbc8bce2700ad5,61036eddd99f010363a36d98,2021-07-29_22h18.04.257,Simcolourproject_2stim_asymm_v5,2020.2.10,Win32,60,61025ae37ef11b136ea224fe,,,,,,,,,1520,47,63,1,0,0,response1disk,,7,14,4,1,0,0,rectangle,14,4,1,0,0,14,4,1,0,0,1,78,238,76,1,,,,,,,,
,,,,,,,,,,,,,FF,,,,,,,,0.71634,,,,,,,,,,,,,,,,,,,,,,60fcac2063bbc8bce2700ad5,61036eddd99f010363a36d98,2021-07-29_22h18.04.257,Simcolourproject_2stim_asymm_v5,2020.2.10,Win32,60,61025ae37ef11b136ea224fe,,,,,,,,,786,88,-29,1,0,0,response3disk,,5,26,-6,1,0,0,rectangle,26,-6,1,0,0,26,-6,1,0,0,1,79,239,128,1,,,,,,,,
,,,,,,,,,,,,,FF,,,,,,,,0.633665,,,,,,,,,,,,,,,,,,,,,,60fcac2063bbc8bce2700ad5,61036eddd99f010363a36d98,2021-07-29_22h18.04.257,Simcolourproject_2stim_asymm_v5,2020.2.10,Win32,60,61025ae37ef11b136ea224fe,,,,,,,,,826,28,-99,1,0,0,response3disk,,4,-14,-15,1,0,0,rectangle,-14,-15,1,0,0,-14,-15,1,0,0,1,80,240,80,1,,,,,,,,
,,,,,,,,,,,,,FF,,,,,,,,0.49993,,,,,,,,,,,,,,,,,,,,,,60fcac2063bbc8bce2700ad5,61036eddd99f010363a36d98,2021-07-29_22h18.04.257,Simcolourproject_2stim_asymm_v5,2020.2.10,Win32,60,61025ae37ef11b136ea224fe,,,,,,,,,2730,-25,-72,1,0,0,response5disk,,3,-8,-3,1,0,0,rectangle,-8,-3,1,0,0,-8,-3,1,0,0,1,81,241,26,1,,,,,,,,
,,,,,,,,,,,,,FF,,,,,,,,0.516925,,,,,,,,,,,,,,,,,,,,,,60fcac2063bbc8bce2700ad5,61036eddd99f010363a36d98,2021-07-29_22h18.04.257,Simcolourproject_2stim_asymm_v5,2020.2.10,Win32,60,61025ae37ef11b136ea224fe,,,,,,,,,3256,35,-64,1,0,0,response3disk,,4,1,10,1,0,0,rectangle,1,10,1,0,0,1,10,1,0,0,1,82,242,22,1,,,,,,,,
,,,,,,,,,,,,,FF,,,,,,,,0.53359,,,,,,,,,,,,,,,,,,,,,,60fcac2063bbc8bce2700ad5,61036eddd99f010363a36d98,2021-07-29_22h18.04.257,Simcolourproject_2stim_asymm_v5,2020.2.10,Win32,60,61025ae37ef11b136ea224fe,,,,,,,,,1524,-25,-82,1,0,0,response5disk,,3,-2,-8,1,0,0,rectangle,-2,-8,1,0,0,-2,-8,1,0,0,1,83,243,106,1,,,,,,,,
,,,,,,,,,,,,,FF,,,,,,,,0.667095,,,,,,,,,,,,,,,,,,,,,,60fcac2063bbc8bce2700ad5,61036eddd99f010363a36d98,2021-07-29_22h18.04.257,Simcolourproject_2stim_asymm_v5,2020.2.10,Win32,60,61025ae37ef11b136ea224fe,,,,,,,,,735,33,-69,1,0,0,response3disk,,4,5,-9,1,0,0,rectangle,5,-9,1,0,0,5,-9,1,0,0,1,84,244,83,1,,,,,,,,
,,,,,,,,,,,,,FF,,,,,,,,1.3665,,,,,,,,,,,,,,,,,,,,,,60fcac2063bbc8bce2700ad5,61036eddd99f010363a36d98,2021-07-29_22h18.04.257,Simcolourproject_2stim_asymm_v5,2020.2.10,Win32,60,61025ae37ef11b136ea224fe,,,,,,,,,1052,-113,-60,1,0,0,response5disk,,2,42,1,1,0,0,rectangle,42,1,1,0,0,42,1,1,0,0,1,85,245,12,1,,,,,,,,
,,,,,,,,,,,,,FF,,,,,,,,0.93502,,,,,,,,,,,,,,,,,,,,,,60fcac2063bbc8bce2700ad5,61036eddd99f010363a36d98,2021-07-29_22h18.04.257,Simcolourproject_2stim_asymm_v5,2020.2.10,Win32,60,61025ae37ef11b136ea224fe,,,,,,,,,917,101,-42,1,0,0,response3disk,,5,17,3,1,0,0,rectangle,17,3,1,0,0,17,3,1,0,0,1,86,246,144,1,,,,,,,,
,,,,,,,,,,,,,FF,,,,,,,,0.651265,,,,,,,,,,,,,,,,,,,,,,60fcac2063bbc8bce2700ad5,61036eddd99f010363a36d98,2021-07-29_22h18.04.257,Simcolourproject_2stim_asymm_v5,2020.2.10,Win32,60,61025ae37ef11b136ea224fe,,,,,,,,,4185,45,-70,1,0,0,response3disk,,4,-19,4,1,0,0,rectangle,-19,4,1,0,0,-19,4,1,0,0,1,87,247,111,1,,,,,,,,
,,,,,,,,,,,,,FF,,,,,,,,0.649995,,,,,,,,,,,,,,,,,,,,,,60fcac2063bbc8bce2700ad5,61036eddd99f010363a36d98,2021-07-29_22h18.04.257,Simcolourproject_2stim_asymm_v5,2020.2.10,Win32,60,61025ae37ef11b136ea224fe,,,,,,,,,3084,61,-31,1,0,0,response3disk,,5,1,12,1,0,0,rectangle,1,12,1,0,0,1,12,1,0,0,1,88,248,158,1,,,,,,,,
,,,,,,,,,,,,,FF,,,,,,,,1.41862,,,,,,,,,,,,,,,,,,,,,,60fcac2063bbc8bce2700ad5,61036eddd99f010363a36d98,2021-07-29_22h18.04.257,Simcolourproject_2stim_asymm_v5,2020.2.10,Win32,60,61025ae37ef11b136ea224fe,,,,,,,,,2483,34,-108,1,0,0,response3disk,,4,-9,-12,1,0,0,rectangle,-9,-12,1,0,0,-9,-12,1,0,0,1,89,249,17,1,,,,,,,,
,,,,,,,,,,,,,FF,,,,,,,,0.78307,,,,,,,,,,,,,,,,,,,,,,60fcac2063bbc8bce2700ad5,61036eddd99f010363a36d98,2021-07-29_22h18.04.257,Simcolourproject_2stim_asymm_v5,2020.2.10,Win32,60,61025ae37ef11b136ea224fe,,,,,,,,,3700,71,54,1,0,0,response1disk,,6,23,-3,1,0,0,rectangle,23,-3,1,0,0,23,-3,1,0,0,1,90,250,60,1,,,,,,,,
,,,,,,,,,,,,,FF,,,,,,,,1.18326,,,,,,,,,,,,,,,,,,,,,,60fcac2063bbc8bce2700ad5,61036eddd99f010363a36d98,2021-07-29_22h18.04.257,Simcolourproject_2stim_asymm_v5,2020.2.10,Win32,60,61025ae37ef11b136ea224fe,,,,,,,,,3191,34,-67,1,0,0,response3disk,,4,1,-10,1,0,0,rectangle,1,-10,1,0,0,1,-10,1,0,0,1,91,251,69,1,,,,,,,,
,,,,,,,,,,,,,FF,,,,,,,,0.567095,,,,,,,,,,,,,,,,,,,,,,60fcac2063bbc8bce2700ad5,61036eddd99f010363a36d98,2021-07-29_22h18.04.257,Simcolourproject_2stim_asymm_v5,2020.2.10,Win32,60,61025ae37ef11b136ea224fe,,,,,,,,,3466,39,-63,1,0,0,response3disk,,4,-2,10,1,0,0,rectangle,-2,10,1,0,0,-2,10,1,0,0,1,92,252,29,1,,,,,,,,
,,,,,,,,,,,,,FF,,,,,,,,0.833095,,,,,,,,,,,,,,,,,,,,,,60fcac2063bbc8bce2700ad5,61036eddd99f010363a36d98,2021-07-29_22h18.04.257,Simcolourproject_2stim_asymm_v5,2020.2.10,Win32,60,61025ae37ef11b136ea224fe,,,,,,,,,3925,99,42,1,0,0,response1disk,,6,7,-21,1,0,0,rectangle,7,-21,1,0,0,7,-21,1,0,0,1,93,253,25,1,,,,,,,,
,,,,,,,,,,,,,FF,,,,,,,,0.61637,,,,,,,,,,,,,,,,,,,,,,60fcac2063bbc8bce2700ad5,61036eddd99f010363a36d98,2021-07-29_22h18.04.257,Simcolourproject_2stim_asymm_v5,2020.2.10,Win32,60,61025ae37ef11b136ea224fe,,,,,,,,,2268,41,-69,1,0,0,response3disk,,4,2,3,1,0,0,rectangle,2,3,1,0,0,2,3,1,0,0,1,94,254,117,1,,,,,,,,
,,,,,,,,,,,,,FF,,,,,,,,1.23335,,,,,,,,,,,,,,,,,,,,,,60fcac2063bbc8bce2700ad5,61036eddd99f010363a36d98,2021-07-29_22h18.04.257,Simcolourproject_2stim_asymm_v5,2020.2.10,Win32,60,61025ae37ef11b136ea224fe,,,,,,,,,3913,-82,-95,1,0,0,response5disk,,3,-22,1,1,0,0,rectangle,-22,1,1,0,0,-22,1,1,0,0,1,95,255,78,1,,,,,,,,
,,,,,,,,,,,,,FF,,,,,,,,0.59961,,,,,,,,,,,,,,,,,,,,,,60fcac2063bbc8bce2700ad5,61036eddd99f010363a36d98,2021-07-29_22h18.04.257,Simcolourproject_2stim_asymm_v5,2020.2.10,Win32,60,61025ae37ef11b136ea224fe,,,,,,,,,129,75,-27,1,0,0,response3disk,,5,31,9,1,0,0,rectangle,31,9,1,0,0,31,9,1,0,0,1,96,256,103,1,,,,,,,,
,,,,,,,,,,,,,FF,,,,,,,,1.17502,,,,,,,,,,,,,,,,,,,,,,60fcac2063bbc8bce2700ad5,61036eddd99f010363a36d98,2021-07-29_22h18.04.257,Simcolourproject_2stim_asymm_v5,2020.2.10,Win32,60,61025ae37ef11b136ea224fe,,,,,,,,,1268,150,54,1,0,0,response1disk,,6,12,-18,1,0,0,rectangle,12,-18,1,0,0,12,-18,1,0,0,1,97,257,59,1,,,,,,,,
,,,,,,,,,,,,,FF,,,,,,,,0.417815,,,,,,,,,,,,,,,,,,,,,,60fcac2063bbc8bce2700ad5,61036eddd99f010363a36d98,2021-07-29_22h18.04.257,Simcolourproject_2stim_asymm_v5,2020.2.10,Win32,60,61025ae37ef11b136ea224fe,,,,,,,,,1010,53,29,1,0,0,response1disk,,6,-5,-9,1,0,0,rectangle,-5,-9,1,0,0,-5,-9,1,0,0,1,98,258,42,1,,,,,,,,
,,,,,,,,,,,,,FF,,,,,,,,1.162295,,,,,,,,,,,,,,,,,,,,,,60fcac2063bbc8bce2700ad5,61036eddd99f010363a36d98,2021-07-29_22h18.04.257,Simcolourproject_2stim_asymm_v5,2020.2.10,Win32,60,61025ae37ef11b136ea224fe,,,,,,,,,1201,-146,-42,1,0,0,response5disk,,2,-10,11,1,0,0,rectangle,-10,11,1,0,0,-10,11,1,0,0,1,99,259,137,1,,,,,,,,
,,,,,,,,,,,,,FF,,,,,,,,0.53959,,,,,,,,,,,,,,,,,,,,,,60fcac2063bbc8bce2700ad5,61036eddd99f010363a36d98,2021-07-29_22h18.04.257,Simcolourproject_2stim_asymm_v5,2020.2.10,Win32,60,61025ae37ef11b136ea224fe,,,,,,,,,1338,54,42,1,0,0,response1disk,,6,-25,-4,1,0,0,rectangle,-25,-4,1,0,0,-25,-4,1,0,0,1,100,260,21,1,,,,,,,,
,,,,,,,,,,,,,FF,,,,,,,,0.949615,,,,,,,,,,,,,,,,,,,,,,60fcac2063bbc8bce2700ad5,61036eddd99f010363a36d98,2021-07-29_22h18.04.257,Simcolourproject_2stim_asymm_v5,2020.2.10,Win32,60,61025ae37ef11b136ea224fe,,,,,,,,,2303,-44,-106,1,0,0,response5disk,,3,11,3,1,0,0,rectangle,11,3,1,0,0,11,3,1,0,0,1,101,261,93,1,,,,,,,,
,,,,,,,,,,,,,FF,,,,,,,,1.09507,,,,,,,,,,,,,,,,,,,,,,60fcac2063bbc8bce2700ad5,61036eddd99f010363a36d98,2021-07-29_22h18.04.257,Simcolourproject_2stim_asymm_v5,2020.2.10,Win32,60,61025ae37ef11b136ea224fe,,,,,,,,,1199,42,-71,1,0,0,response3disk,,4,7,-3,1,0,0,rectangle,54,-84,1,0,0,3,-4,1,0,0,1,102,262,34,1,,response3disk_3,TRUE,4,4,"[263,146,214,296,183,206,152,148,287,155,273,311,141,279,212,74,166,225,2,284]",1.016855,rectangle
,,,,,,,,,,,,,FF,,,,,,,,2.606165,,,,,,,,,,,,,,,,,,,,,,60fcac2063bbc8bce2700ad5,61036eddd99f010363a36d98,2021-07-29_22h18.04.257,Simcolourproject_2stim_asymm_v5,2020.2.10,Win32,60,61025ae37ef11b136ea224fe,,,,,,,,,816,73,-67,1,0,0,response3disk,,5,-27,-12,1,0,0,rectangle,-27,-12,1,0,0,-27,-12,1,0,0,1,103,263,53,1,,,,,,,,
,,,,,,,,,,,,,FF,,,,,,,,1.55619,,,,,,,,,,,,,,,,,,,,,,60fcac2063bbc8bce2700ad5,61036eddd99f010363a36d98,2021-07-29_22h18.04.257,Simcolourproject_2stim_asymm_v5,2020.2.10,Win32,60,61025ae37ef11b136ea224fe,,,,,,,,,152,55,-109,1,0,0,response3disk,,4,16,13,1,0,0,rectangle,16,13,1,0,0,16,13,1,0,0,1,104,264,33,1,,,,,,,,
,,,,,,,,,,,,,FF,,,,,,,,1.911075,,,,,,,,,,,,,,,,,,,,,,60fcac2063bbc8bce2700ad5,61036eddd99f010363a36d98,2021-07-29_22h18.04.257,Simcolourproject_2stim_asymm_v5,2020.2.10,Win32,60,61025ae37ef11b136ea224fe,,,,,,,,,4198,63,58,1,0,0,response1disk,,6,9,12,1,0,0,rectangle,9,12,1,0,0,9,12,1,0,0,1,105,265,120,1,,,,,,,,
,,,,,,,,,,,,,FF,,,,,,,,0.682955,,,,,,,,,,,,,,,,,,,,,,60fcac2063bbc8bce2700ad5,61036eddd99f010363a36d98,2021-07-29_22h18.04.257,Simcolourproject_2stim_asymm_v5,2020.2.10,Win32,60,61025ae37ef11b136ea224fe,,,,,,,,,4226,30,59,1,0,0,response1disk,,7,-4,-3,1,0,0,rectangle,-4,-3,1,0,0,-4,-3,1,0,0,1,106,266,146,1,,,,,,,,
,,,,,,,,,,,,,FF,,,,,,,,0.755255,,,,,,,,,,,,,,,,,,,,,,60fcac2063bbc8bce2700ad5,61036eddd99f010363a36d98,2021-07-29_22h18.04.257,Simcolourproject_2stim_asymm_v5,2020.2.10,Win32,60,61025ae37ef11b136ea224fe,,,,,,,,,649,94,67,1,0,0,response1disk,,6,5,9,1,0,0,rectangle,5,9,1,0,0,5,9,1,0,0,1,107,267,18,1,,,,,,,,
,,,,,,,,,,,,,FF,,,,,,,,0.523625,,,,,,,,,,,,,,,,,,,,,,60fcac2063bbc8bce2700ad5,61036eddd99f010363a36d98,2021-07-29_22h18.04.257,Simcolourproject_2stim_asymm_v5,2020.2.10,Win32,60,61025ae37ef11b136ea224fe,,,,,,,,,3272,64,-79,1,0,0,response3disk,,4,-1,4,1,0,0,rectangle,-1,4,1,0,0,-1,4,1,0,0,1,108,268,100,1,,,,,,,,
,,,,,,,,,,,,,FF,,,,,,,,0.64936,,,,,,,,,,,,,,,,,,,,,,60fcac2063bbc8bce2700ad5,61036eddd99f010363a36d98,2021-07-29_22h18.04.257,Simcolourproject_2stim_asymm_v5,2020.2.10,Win32,60,61025ae37ef11b136ea224fe,,,,,,,,,1228,84,-47,1,0,0,response3disk,,5,20,0,1,0,0,rectangle,20,0,1,0,0,20,0,1,0,0,1,109,269,36,1,,,,,,,,
,,,,,,,,,,,,,FF,,,,,,,,0.983105,,,,,,,,,,,,,,,,,,,,,,60fcac2063bbc8bce2700ad5,61036eddd99f010363a36d98,2021-07-29_22h18.04.257,Simcolourproject_2stim_asymm_v5,2020.2.10,Win32,60,61025ae37ef11b136ea224fe,,,,,,,,,2344,62,37,1,0,0,response1disk,,6,6,-7,1,0,0,rectangle,6,-7,1,0,0,6,-7,1,0,0,1,110,270,132,1,,,,,,,,
,,,,,,,,,,,,,FF,,,,,,,,0.523155,,,,,,,,,,,,,,,,,,,,,,60fcac2063bbc8bce2700ad5,61036eddd99f010363a36d98,2021-07-29_22h18.04.257,Simcolourproject_2stim_asymm_v5,2020.2.10,Win32,60,61025ae37ef11b136ea224fe,,,,,,,,,3317,45,-66,1,0,0,response3disk,,4,6,-4,1,0,0,rectangle,6,-4,1,0,0,6,-4,1,0,0,1,111,271,75,1,,,,,,,,
,,,,,,,,,,,,,FF,,,,,,,,1.40868,,,,,,,,,,,,,,,,,,,,,,60fcac2063bbc8bce2700ad5,61036eddd99f010363a36d98,2021-07-29_22h18.04.257,Simcolourproject_2stim_asymm_v5,2020.2.10,Win32,60,61025ae37ef11b136ea224fe,,,,,,,,,2812,33,-59,1,0,0,response3disk,,4,-2,-2,1,0,0,rectangle,108,58,1,0,0,8,-15,1,0,0,1,112,272,109,1,,response1disk_3,TRUE,6,6,"[263,146,214,296,183,206,152,148,287,155,273,311,141,279,212,74,166,225,2,284]",1.32715,rectangle
,,,,,,,,,,,,,FF,,,,,,,,0.87665,,,,,,,,,,,,,,,,,,,,,,60fcac2063bbc8bce2700ad5,61036eddd99f010363a36d98,2021-07-29_22h18.04.257,Simcolourproject_2stim_asymm_v5,2020.2.10,Win32,60,61025ae37ef11b136ea224fe,,,,,,,,,3520,23,-86,1,0,0,response3disk,,4,12,7,1,0,0,rectangle,12,7,1,0,0,12,7,1,0,0,1,113,273,16,1,,,,,,,,
,,,,,,,,,,,,,FF,,,,,,,,1.241015,,,,,,,,,,,,,,,,,,,,,,60fcac2063bbc8bce2700ad5,61036eddd99f010363a36d98,2021-07-29_22h18.04.257,Simcolourproject_2stim_asymm_v5,2020.2.10,Win32,60,61025ae37ef11b136ea224fe,,,,,,,,,3883,54,-67,1,0,0,response3disk,,4,5,-5,1,0,0,rectangle,5,-5,1,0,0,5,-5,1,0,0,1,114,274,85,1,,,,,,,,
,,,,,,,,,,,,,FF,,,,,,,,1.00655,,,,,,,,,,,,,,,,,,,,,,60fcac2063bbc8bce2700ad5,61036eddd99f010363a36d98,2021-07-29_22h18.04.257,Simcolourproject_2stim_asymm_v5,2020.2.10,Win32,60,61025ae37ef11b136ea224fe,,,,,,,,,2682,-26,-74,1,0,0,response5disk,,3,-6,-2,1,0,0,rectangle,-6,-2,1,0,0,-6,-2,1,0,0,1,115,275,31,1,,,,,,,,
,,,,,,,,,,,,,FF,,,,,,,,0.466435,,,,,,,,,,,,,,,,,,,,,,60fcac2063bbc8bce2700ad5,61036eddd99f010363a36d98,2021-07-29_22h18.04.257,Simcolourproject_2stim_asymm_v5,2020.2.10,Win32,60,61025ae37ef11b136ea224fe,,,,,,,,,2276,128,-39,1,0,0,response3disk,,5,4,-8,1,0,0,rectangle,4,-8,1,0,0,4,-8,1,0,0,1,116,276,107,1,,,,,,,,
,,,,,,,,,,,,,FF,,,,,,,,0.483255,,,,,,,,,,,,,,,,,,,,,,60fcac2063bbc8bce2700ad5,61036eddd99f010363a36d98,2021-07-29_22h18.04.257,Simcolourproject_2stim_asymm_v5,2020.2.10,Win32,60,61025ae37ef11b136ea224fe,,,,,,,,,1992,66,39,1,0,0,response1disk,,6,28,15,1,0,0,rectangle,28,15,1,0,0,28,15,1,0,0,1,117,277,112,1,,,,,,,,
,,,,,,,,,,,,,FF,,,,,,,,0.832095,,,,,,,,,,,,,,,,,,,,,,60fcac2063bbc8bce2700ad5,61036eddd99f010363a36d98,2021-07-29_22h18.04.257,Simcolourproject_2stim_asymm_v5,2020.2.10,Win32,60,61025ae37ef11b136ea224fe,,,,,,,,,3425,-50,73,1,0,0,response7disk,,0,-20,13,1,0,0,rectangle,-49,-103,1,0,0,-14,8,1,0,0,1,118,278,57,1,,response5disk_3,TRUE,3,3,"[263,146,214,296,183,206,152,148,287,155,273,311,141,279,212,74,166,225,2,284]",1.71066,rectangle
,,,,,,,,,,,,,FF,,,,,,,,0.851145,,,,,,,,,,,,,,,,,,,,,,60fcac2063bbc8bce2700ad5,61036eddd99f010363a36d98,2021-07-29_22h18.04.257,Simcolourproject_2stim_asymm_v5,2020.2.10,Win32,60,61025ae37ef11b136ea224fe,,,,,,,,,2108,-34,-84,1,0,0,response5disk,,3,-20,3,1,0,0,rectangle,-20,3,1,0,0,-20,3,1,0,0,1,119,279,143,1,,,,,,,,
,,,,,,,,,,,,,FF,,,,,,,,1.01008,,,,,,,,,,,,,,,,,,,,,,60fcac2063bbc8bce2700ad5,61036eddd99f010363a36d98,2021-07-29_22h18.04.257,Simcolourproject_2stim_asymm_v5,2020.2.10,Win32,60,61025ae37ef11b136ea224fe,,,,,,,,,3911,-60,-52,1,0,0,response5disk,,2,14,14,1,0,0,rectangle,14,14,1,0,0,14,14,1,0,0,1,120,280,124,1,,,,,,,,
,,,,,,,,,,,,,FF,,,,,,,,0.710565,,,,,,,,,,,,,,,,,,,,,,60fcac2063bbc8bce2700ad5,61036eddd99f010363a36d98,2021-07-29_22h18.04.257,Simcolourproject_2stim_asymm_v5,2020.2.10,Win32,60,61025ae37ef11b136ea224fe,,,,,,,,,3739,46,75,1,0,0,response1disk,,7,23,9,1,0,0,rectangle,23,9,1,0,0,23,9,1,0,0,1,121,281,71,1,,,,,,,,
,,,,,,,,,,,,,FF,,,,,,,,0.483415,,,,,,,,,,,,,,,,,,,,,,60fcac2063bbc8bce2700ad5,61036eddd99f010363a36d98,2021-07-29_22h18.04.257,Simcolourproject_2stim_asymm_v5,2020.2.10,Win32,60,61025ae37ef11b136ea224fe,,,,,,,,,1850,61,35,1,0,0,response1disk,,6,7,-9,1,0,0,rectangle,7,-9,1,0,0,7,-9,1,0,0,1,122,282,99,1,,,,,,,,
,,,,,,,,,,,,,FF,,,,,,,,0.666565,,,,,,,,,,,,,,,,,,,,,,60fcac2063bbc8bce2700ad5,61036eddd99f010363a36d98,2021-07-29_22h18.04.257,Simcolourproject_2stim_asymm_v5,2020.2.10,Win32,60,61025ae37ef11b136ea224fe,,,,,,,,,4275,81,23,1,0,0,response1disk,,6,5,-12,1,0,0,rectangle,86,-51,1,0,0,-10,-9,1,0,0,1,123,283,133,1,,response3disk_3,TRUE,5,5,"[263,146,214,296,183,206,152,148,287,155,273,311,141,279,212,74,166,225,2,284]",1.01454,rectangle
,,,,,,,,,,,,,FF,,,,,,,,0.76126,,,,,,,,,,,,,,,,,,,,,,60fcac2063bbc8bce2700ad5,61036eddd99f010363a36d98,2021-07-29_22h18.04.257,Simcolourproject_2stim_asymm_v5,2020.2.10,Win32,60,61025ae37ef11b136ea224fe,,,,,,,,,216,-35,-76,1,0,0,response5disk,,3,-3,-1,1,0,0,rectangle,-3,-1,1,0,0,-3,-1,1,0,0,1,124,284,150,1,,,,,,,,
,,,,,,,,,,,,,FF,,,,,,,,0.605415,,,,,,,,,,,,,,,,,,,,,,60fcac2063bbc8bce2700ad5,61036eddd99f010363a36d98,2021-07-29_22h18.04.257,Simcolourproject_2stim_asymm_v5,2020.2.10,Win32,60,61025ae37ef11b136ea224fe,,,,,,,,,4051,-45,-82,1,0,0,response5disk,,3,9,11,1,0,0,rectangle,9,11,1,0,0,9,11,1,0,0,1,125,285,15,1,,,,,,,,
,,,,,,,,,,,,,FF,,,,,,,,1.00566,,,,,,,,,,,,,,,,,,,,,,60fcac2063bbc8bce2700ad5,61036eddd99f010363a36d98,2021-07-29_22h18.04.257,Simcolourproject_2stim_asymm_v5,2020.2.10,Win32,60,61025ae37ef11b136ea224fe,,,,,,,,,2290,71,-104,1,0,0,response3disk,,4,2,-6,1,0,0,rectangle,-75,90,1,0,0,-5,3,1,0,0,1,126,286,157,1,,response7disk_3,TRUE,0,0,"[263,146,214,296,183,206,152,148,287,155,273,311,141,279,212,74,166,225,2,284]",1.18353,rectangle
,,,,,,,,,,,,,FF,,,,,,,,0.666505,,,,,,,,,,,,,,,,,,,,,,60fcac2063bbc8bce2700ad5,61036eddd99f010363a36d98,2021-07-29_22h18.04.257,Simcolourproject_2stim_asymm_v5,2020.2.10,Win32,60,61025ae37ef11b136ea224fe,,,,,,,,,829,42,-60,1,0,0,response3disk,,4,4,5,1,0,0,rectangle,4,5,1,0,0,4,5,1,0,0,1,127,287,20,1,,,,,,,,
,,,,,,,,,,,,,FF,,,,,,,,0.694,,,,,,,,,,,,,,,,,,,,,,60fcac2063bbc8bce2700ad5,61036eddd99f010363a36d98,2021-07-29_22h18.04.257,Simcolourproject_2stim_asymm_v5,2020.2.10,Win32,60,61025ae37ef11b136ea224fe,,,,,,,,,1288,-25,-74,1,0,0,response5disk,,3,6,-12,1,0,0,rectangle,6,-12,1,0,0,6,-12,1,0,0,1,128,288,90,1,,,,,,,,
,,,,,,,,,,,,,FF,,,,,,,,0.593075,,,,,,,,,,,,,,,,,,,,,,60fcac2063bbc8bce2700ad5,61036eddd99f010363a36d98,2021-07-29_22h18.04.257,Simcolourproject_2stim_asymm_v5,2020.2.10,Win32,60,61025ae37ef11b136ea224fe,,,,,,,,,2704,41,43,1,0,0,response1disk,,7,4,1,1,0,0,rectangle,4,1,1,0,0,4,1,1,0,0,1,129,289,101,1,,,,,,,,
,,,,,,,,,,,,,FF,,,,,,,,0.740595,,,,,,,,,,,,,,,,,,,,,,60fcac2063bbc8bce2700ad5,61036eddd99f010363a36d98,2021-07-29_22h18.04.257,Simcolourproject_2stim_asymm_v5,2020.2.10,Win32,60,61025ae37ef11b136ea224fe,,,,,,,,,3560,-31,-76,1,0,0,response5disk,,3,-1,4,1,0,0,rectangle,-1,4,1,0,0,-1,4,1,0,0,1,130,290,68,1,,,,,,,,
,,,,,,,,,,,,,FF,,,,,,,,0.61658,,,,,,,,,,,,,,,,,,,,,,60fcac2063bbc8bce2700ad5,61036eddd99f010363a36d98,2021-07-29_22h18.04.257,Simcolourproject_2stim_asymm_v5,2020.2.10,Win32,60,61025ae37ef11b136ea224fe,,,,,,,,,1983,47,-36,1,0,0,response3disk,,5,21,-13,1,0,0,rectangle,21,-13,1,0,0,21,-13,1,0,0,1,131,291,51,1,,,,,,,,
,,,,,,,,,,,,,FF,,,,,,,,0.51711,,,,,,,,,,,,,,,,,,,,,,60fcac2063bbc8bce2700ad5,61036eddd99f010363a36d98,2021-07-29_22h18.04.257,Simcolourproject_2stim_asymm_v5,2020.2.10,Win32,60,61025ae37ef11b136ea224fe,,,,,,,,,1109,80,-42,1,0,0,response3disk,,5,11,2,1,0,0,rectangle,11,2,1,0,0,11,2,1,0,0,1,132,292,138,1,,,,,,,,
,,,,,,,,,,,,,FF,,,,,,,,0.46739,,,,,,,,,,,,,,,,,,,,,,60fcac2063bbc8bce2700ad5,61036eddd99f010363a36d98,2021-07-29_22h18.04.257,Simcolourproject_2stim_asymm_v5,2020.2.10,Win32,60,61025ae37ef11b136ea224fe,,,,,,,,,31,47,27,1,0,0,response1disk,,6,13,9,1,0,0,rectangle,13,9,1,0,0,13,9,1,0,0,1,133,293,66,1,,,,,,,,
,,,,,,,,,,,,,FF,,,,,,,,0.722205,,,,,,,,,,,,,,,,,,,,,,60fcac2063bbc8bce2700ad5,61036eddd99f010363a36d98,2021-07-29_22h18.04.257,Simcolourproject_2stim_asymm_v5,2020.2.10,Win32,60,61025ae37ef11b136ea224fe,,,,,,,,,810,-93,-56,1,0,0,response5disk,,2,25,6,1,0,0,rectangle,25,6,1,0,0,25,6,1,0,0,1,134,294,97,1,,,,,,,,
,,,,,,,,,,,,,FF,,,,,,,,0.63283,,,,,,,,,,,,,,,,,,,,,,60fcac2063bbc8bce2700ad5,61036eddd99f010363a36d98,2021-07-29_22h18.04.257,Simcolourproject_2stim_asymm_v5,2020.2.10,Win32,60,61025ae37ef11b136ea224fe,,,,,,,,,4144,-96,-33,1,0,0,response5disk,,2,-16,16,1,0,0,rectangle,99,-50,1,0,0,41,-4,1,0,0,1,135,295,49,1,,response3disk_3,TRUE,5,5,"[263,146,214,296,183,206,152,148,287,155,273,311,141,279,212,74,166,225,2,284]",0.90506,rectangle
,,,,,,,,,,,,,FF,,,,,,,,0.884385,,,,,,,,,,,,,,,,,,,,,,60fcac2063bbc8bce2700ad5,61036eddd99f010363a36d98,2021-07-29_22h18.04.257,Simcolourproject_2stim_asymm_v5,2020.2.10,Win32,60,61025ae37ef11b136ea224fe,,,,,,,,,572,110,-74,1,0,0,response3disk,,5,-22,-10,1,0,0,rectangle,-22,-10,1,0,0,-22,-10,1,0,0,1,136,296,58,1,,,,,,,,
,,,,,,,,,,,,,FF,,,,,,,,0.32704,,,,,,,,,,,,,,,,,,,,,,60fcac2063bbc8bce2700ad5,61036eddd99f010363a36d98,2021-07-29_22h18.04.257,Simcolourproject_2stim_asymm_v5,2020.2.10,Win32,60,61025ae37ef11b136ea224fe,,,,,,,,,2583,85,51,1,0,0,response1disk,,6,28,7,1,0,0,rectangle,28,7,1,0,0,28,7,1,0,0,1,137,297,30,1,,,,,,,,
,,,,,,,,,,,,,FF,,,,,,,,0.867425,,,,,,,,,,,,,,,,,,,,,,60fcac2063bbc8bce2700ad5,61036eddd99f010363a36d98,2021-07-29_22h18.04.257,Simcolourproject_2stim_asymm_v5,2020.2.10,Win32,60,61025ae37ef11b136ea224fe,,,,,,,,,803,-98,-37,1,0,0,response5disk,,2,-10,7,1,0,0,rectangle,-10,7,1,0,0,-10,7,1,0,0,1,138,298,152,1,,,,,,,,
