key_resp.keys,key_resp.rt,key_resp_14.keys,key_resp_14.rt,key_resp_15.keys,key_resp_15.rt,key_resp_17.keys,key_resp_17.rt,key_resp_9.keys,key_resp_9.rt,key_resp_10.keys,key_resp_10.rt,practice_comparison,Ecc,mouse_5.x,mouse_5.y,mouse_5.leftButton,mouse_5.midButton,mouse_5.rightButton,mouse_5.clicked_name,pracsimilarity,response_time,mouse_10.x,mouse_10.y,mouse_10.leftButton,mouse_10.midButton,mouse_10.rightButton,mouse_10.clicked_name,mouse_7.x,mouse_7.y,mouse_7.leftButton,mouse_7.midButton,mouse_7.rightButton,mouse_6.x,mouse_6.y,mouse_6.leftButton,mouse_6.midButton,mouse_6.rightButton,duringprac.thisRepN,duringprac.thisTrialN,duringprac.thisN,duringprac.thisIndex,duringprac.ran,participant,session,date,expName,psychopyVersion,OS,frameRate,study_id,mouse_7.clicked_name,catchpracsimilarity,catch_response_time,catchnumberprac,catchtrialorderprac,mouse_6.clicked_name,key_resp_22.keys,key_resp_22.rt,realcomparison,mouse.x,mouse.y,mouse.leftButton,mouse.midButton,mouse.rightButton,mouse.clicked_name,Colour2,similarity,mouse_2.x,mouse_2.y,mouse_2.leftButton,mouse_2.midButton,mouse_2.rightButton,mouse_2.clicked_name,mouse_3.x,mouse_3.y,mouse_3.leftButton,mouse_3.midButton,mouse_3.rightButton,mouse_11.x,mouse_11.y,mouse_11.leftButton,mouse_11.midButton,mouse_11.rightButton,trials_2.thisRepN,trials_2.thisTrialN,trials_2.thisN,trials_2.thisIndex,trials_2.ran,Colour1,mouse_3.clicked_name,catchornah,catchsimilarity,catchnumber,catchtrialorder,catchRT,mouse_11.clicked_name
space,33.0789,space,13.1636,space,27.6288,space,12.5671,space,0.7208,space,4.1634,140,FF,30.92578125,-90.0703125,1,0,0,response3disk_5,4,5.0582,-4.15234375,1.26953125,1,0,0,rectangle_8,-4.15234375,1.26953125,1,0,0,-4.15234375,1.26953125,1,0,0,0,0,0,3,1,60fcd84b3e8a213628c9a160,610369a172fda66032ff7c73,2021-07-29_19h55.43.287,Simcolourproject_2stim_asymm_v5,2020.2.10,MacIntel,60,61025ae37ef11b136ea224fe,,,,,,,,,,,,,,,,,,,,,,,,,,,,,,,,,,,,,,,,,,,,,,
,,,,,,,,,,,,40,PF,29.03125,-91.921875,1,0,0,response3disk_5,4,4.0524,-3.765625,-5.07421875,1,0,0,rectangle_8,-41.49609375,80.546875,1,0,0,4.1171875,-4.875,1,0,0,0,1,1,6,1,60fcd84b3e8a213628c9a160,610369a172fda66032ff7c73,2021-07-29_19h55.43.287,Simcolourproject_2stim_asymm_v5,2020.2.10,MacIntel,60,61025ae37ef11b136ea224fe,response7disk_7,0,2.3851,0,"[2,5]",rectangle_4,,,,,,,,,,,,,,,,,,,,,,,,,,,,,,,,,,,,,,,,
,,,,,,,,,,,,81,FF,-88.8671875,-28.62109375,1,0,0,response5disk_5,2,1.8179,-10.96484375,5.5390625,1,0,0,rectangle_8,-10.96484375,5.5390625,1,0,0,-10.96484375,5.5390625,1,0,0,0,2,2,5,1,60fcd84b3e8a213628c9a160,610369a172fda66032ff7c73,2021-07-29_19h55.43.287,Simcolourproject_2stim_asymm_v5,2020.2.10,MacIntel,60,61025ae37ef11b136ea224fe,,,,,,,,,,,,,,,,,,,,,,,,,,,,,,,,,,,,,,,,,,,,,,
,,,,,,,,,,,,141,PF,-42.96484375,80.76953125,1,0,0,response7disk_5,0,1.5495,2.2265625,-1.73828125,1,0,0,rectangle_8,2.2265625,-1.73828125,1,0,0,2.2265625,-1.73828125,1,0,0,0,3,3,4,1,60fcd84b3e8a213628c9a160,610369a172fda66032ff7c73,2021-07-29_19h55.43.287,Simcolourproject_2stim_asymm_v5,2020.2.10,MacIntel,60,61025ae37ef11b136ea224fe,,,,,,,,,,,,,,,,,,,,,,,,,,,,,,,,,,,,,,,,,,,,,,
,,,,,,,,,,,,72,PF,-29.6328125,-98.26171875,1,0,0,response5disk_5,3,4.7013,-10.1953125,2.0078125,1,0,0,rectangle_8,-29.73046875,83.83984375,1,0,0,-2.48046875,-0.81640625,1,0,0,0,4,4,2,1,60fcd84b3e8a213628c9a160,610369a172fda66032ff7c73,2021-07-29_19h55.43.287,Simcolourproject_2stim_asymm_v5,2020.2.10,MacIntel,60,61025ae37ef11b136ea224fe,response7disk_7,0,1.65,0,"[2,5]",rectangle_4,,,,,,,,,,,,,,,,,,,,,,,,,,,,,,,,,,,,,,,,
,,,,,,,,,,,,7,PF,86.20703125,-53.48046875,1,0,0,response3disk_5,5,2.7177,-17.08984375,9.05078125,1,0,0,rectangle_8,-17.08984375,9.05078125,1,0,0,-17.08984375,9.05078125,1,0,0,0,5,5,1,1,60fcd84b3e8a213628c9a160,610369a172fda66032ff7c73,2021-07-29_19h55.43.287,Simcolourproject_2stim_asymm_v5,2020.2.10,MacIntel,60,61025ae37ef11b136ea224fe,,,,,,,,,,,,,,,,,,,,,,,,,,,,,,,,,,,,,,,,,,,,,,
,,,,,,,,,,,,146,FF,78.9140625,-53.4765625,1,0,0,response3disk_5,5,1.6518,-8.578125,-1.2578125,1,0,0,rectangle_8,-8.578125,-1.2578125,1,0,0,-8.578125,-1.2578125,1,0,0,0,6,6,0,1,60fcd84b3e8a213628c9a160,610369a172fda66032ff7c73,2021-07-29_19h55.43.287,Simcolourproject_2stim_asymm_v5,2020.2.10,MacIntel,60,61025ae37ef11b136ea224fe,,,,,,,,,,,,,,,,,,,,,,,,,,,,,,,,,,,,,,,,,,,,,,
,,,,,,,,,,,,,FF,,,,,,,,7.4701,,,,,,,,,,,,,,,,,,,,,,60fcd84b3e8a213628c9a160,610369a172fda66032ff7c73,2021-07-29_19h55.43.287,Simcolourproject_2stim_asymm_v5,2020.2.10,MacIntel,60,61025ae37ef11b136ea224fe,,,,,,,space,2.6321,314,87.6796875,39.17578125,1,0,0,response1disk,,6,5.40234375,-1.57421875,1,0,0,rectangle,5.40234375,-1.57421875,1,0,0,5.40234375,-1.57421875,1,0,0,0,0,0,50,1,,,,,,,,
,,,,,,,,,,,,,FF,,,,,,,,5.8186,,,,,,,,,,,,,,,,,,,,,,60fcd84b3e8a213628c9a160,610369a172fda66032ff7c73,2021-07-29_19h55.43.287,Simcolourproject_2stim_asymm_v5,2020.2.10,MacIntel,60,61025ae37ef11b136ea224fe,,,,,,,,,2199,87.98828125,-49.58984375,1,0,0,response3disk,,5,5.171875,-0.7109375,1,0,0,rectangle,5.171875,-0.7109375,1,0,0,5.171875,-0.7109375,1,0,0,0,1,1,55,1,,,,,,,,
,,,,,,,,,,,,,FF,,,,,,,,2.5191,,,,,,,,,,,,,,,,,,,,,,60fcd84b3e8a213628c9a160,610369a172fda66032ff7c73,2021-07-29_19h55.43.287,Simcolourproject_2stim_asymm_v5,2020.2.10,MacIntel,60,61025ae37ef11b136ea224fe,,,,,,,,,4102,-97.66796875,28.82421875,1,0,0,response7disk,,1,-2.92578125,3.484375,1,0,0,rectangle,-2.92578125,3.484375,1,0,0,-2.92578125,3.484375,1,0,0,0,2,2,140,1,,,,,,,,
,,,,,,,,,,,,,FF,,,,,,,,6.1188,,,,,,,,,,,,,,,,,,,,,,60fcd84b3e8a213628c9a160,610369a172fda66032ff7c73,2021-07-29_19h55.43.287,Simcolourproject_2stim_asymm_v5,2020.2.10,MacIntel,60,61025ae37ef11b136ea224fe,,,,,,,,,2647,99.26171875,44.6484375,1,0,0,response1disk,,6,-10.8984375,-11,1,0,0,rectangle,-10.8984375,-11,1,0,0,-10.8984375,-11,1,0,0,0,3,3,8,1,,,,,,,,
,,,,,,,,,,,,,FF,,,,,,,,3.0023,,,,,,,,,,,,,,,,,,,,,,60fcd84b3e8a213628c9a160,610369a172fda66032ff7c73,2021-07-29_19h55.43.287,Simcolourproject_2stim_asymm_v5,2020.2.10,MacIntel,60,61025ae37ef11b136ea224fe,,,,,,,,,2101,-85.8359375,-36.21875,1,0,0,response5disk,,2,9.86328125,-0.1171875,1,0,0,rectangle,9.86328125,-0.1171875,1,0,0,9.86328125,-0.1171875,1,0,0,0,4,4,22,1,,,,,,,,
,,,,,,,,,,,,,FF,,,,,,,,1.9828,,,,,,,,,,,,,,,,,,,,,,60fcd84b3e8a213628c9a160,610369a172fda66032ff7c73,2021-07-29_19h55.43.287,Simcolourproject_2stim_asymm_v5,2020.2.10,MacIntel,60,61025ae37ef11b136ea224fe,,,,,,,,,1033,84.734375,-40.8203125,1,0,0,response3disk,,5,3.265625,11.41015625,1,0,0,rectangle,3.265625,11.41015625,1,0,0,3.265625,11.41015625,1,0,0,0,5,5,40,1,,,,,,,,
,,,,,,,,,,,,,FF,,,,,,,,1.6338,,,,,,,,,,,,,,,,,,,,,,60fcd84b3e8a213628c9a160,610369a172fda66032ff7c73,2021-07-29_19h55.43.287,Simcolourproject_2stim_asymm_v5,2020.2.10,MacIntel,60,61025ae37ef11b136ea224fe,,,,,,,,,2793,57.85546875,80.37890625,1,0,0,response1disk,,7,5.78515625,0.78125,1,0,0,rectangle,5.78515625,0.78125,1,0,0,5.78515625,0.78125,1,0,0,0,6,6,59,1,,,,,,,,
,,,,,,,,,,,,,FF,,,,,,,,1.4149,,,,,,,,,,,,,,,,,,,,,,60fcd84b3e8a213628c9a160,610369a172fda66032ff7c73,2021-07-29_19h55.43.287,Simcolourproject_2stim_asymm_v5,2020.2.10,MacIntel,60,61025ae37ef11b136ea224fe,,,,,,,,,1952,83.6953125,27.77734375,1,0,0,response1disk,,6,13.1640625,5.59765625,1,0,0,rectangle,13.1640625,5.59765625,1,0,0,13.1640625,5.59765625,1,0,0,0,7,7,20,1,,,,,,,,
,,,,,,,,,,,,,FF,,,,,,,,2.153,,,,,,,,,,,,,,,,,,,,,,60fcd84b3e8a213628c9a160,610369a172fda66032ff7c73,2021-07-29_19h55.43.287,Simcolourproject_2stim_asymm_v5,2020.2.10,MacIntel,60,61025ae37ef11b136ea224fe,,,,,,,,,533,43.55078125,-78.28125,1,0,0,response3disk,,4,-7.6171875,3.640625,1,0,0,rectangle,-7.6171875,3.640625,1,0,0,-7.6171875,3.640625,1,0,0,0,8,8,119,1,,,,,,,,
,,,,,,,,,,,,,FF,,,,,,,,2.117,,,,,,,,,,,,,,,,,,,,,,60fcd84b3e8a213628c9a160,610369a172fda66032ff7c73,2021-07-29_19h55.43.287,Simcolourproject_2stim_asymm_v5,2020.2.10,MacIntel,60,61025ae37ef11b136ea224fe,,,,,,,,,874,30.09765625,-93.40625,1,0,0,response3disk,,4,-5.3984375,7.15625,1,0,0,rectangle,-5.3984375,7.15625,1,0,0,-5.3984375,7.15625,1,0,0,0,9,9,85,1,,,,,,,,
,,,,,,,,,,,,,FF,,,,,,,,1.5508,,,,,,,,,,,,,,,,,,,,,,60fcd84b3e8a213628c9a160,610369a172fda66032ff7c73,2021-07-29_19h55.43.287,Simcolourproject_2stim_asymm_v5,2020.2.10,MacIntel,60,61025ae37ef11b136ea224fe,,,,,,,,,329,47.5390625,71.5859375,1,0,0,response1disk,,7,2.41015625,6.62890625,1,0,0,rectangle,2.41015625,6.62890625,1,0,0,2.41015625,6.62890625,1,0,0,0,10,10,19,1,,,,,,,,
,,,,,,,,,,,,,FF,,,,,,,,3.7204,,,,,,,,,,,,,,,,,,,,,,60fcd84b3e8a213628c9a160,610369a172fda66032ff7c73,2021-07-29_19h55.43.287,Simcolourproject_2stim_asymm_v5,2020.2.10,MacIntel,60,61025ae37ef11b136ea224fe,,,,,,,,,401,30.953125,78.0625,1,0,0,response1disk,,7,-4.19140625,4.4453125,1,0,0,rectangle,-4.19140625,4.4453125,1,0,0,-4.19140625,4.4453125,1,0,0,0,11,11,138,1,,,,,,,,
,,,,,,,,,,,,,FF,,,,,,,,3.3684,,,,,,,,,,,,,,,,,,,,,,60fcd84b3e8a213628c9a160,610369a172fda66032ff7c73,2021-07-29_19h55.43.287,Simcolourproject_2stim_asymm_v5,2020.2.10,MacIntel,60,61025ae37ef11b136ea224fe,,,,,,,,,1593,45.1328125,85.96875,1,0,0,response1disk,,7,-3.75390625,4.24609375,1,0,0,rectangle,-3.75390625,4.24609375,1,0,0,-3.75390625,4.24609375,1,0,0,0,12,12,18,1,,,,,,,,
,,,,,,,,,,,,,FF,,,,,,,,0.8327,,,,,,,,,,,,,,,,,,,,,,60fcd84b3e8a213628c9a160,610369a172fda66032ff7c73,2021-07-29_19h55.43.287,Simcolourproject_2stim_asymm_v5,2020.2.10,MacIntel,60,61025ae37ef11b136ea224fe,,,,,,,,,496,32.44140625,57.203125,1,0,0,response1disk,,7,0.31640625,-2.65234375,1,0,0,rectangle,0.31640625,-2.65234375,1,0,0,0.31640625,-2.65234375,1,0,0,0,13,13,152,1,,,,,,,,
,,,,,,,,,,,,,FF,,,,,,,,1.4345,,,,,,,,,,,,,,,,,,,,,,60fcd84b3e8a213628c9a160,610369a172fda66032ff7c73,2021-07-29_19h55.43.287,Simcolourproject_2stim_asymm_v5,2020.2.10,MacIntel,60,61025ae37ef11b136ea224fe,,,,,,,,,128,53.57421875,83.33984375,1,0,0,response1disk,,7,2.40234375,3.359375,1,0,0,rectangle,2.40234375,3.359375,1,0,0,2.40234375,3.359375,1,0,0,0,14,14,13,1,,,,,,,,
,,,,,,,,,,,,,FF,,,,,,,,2.6177,,,,,,,,,,,,,,,,,,,,,,60fcd84b3e8a213628c9a160,610369a172fda66032ff7c73,2021-07-29_19h55.43.287,Simcolourproject_2stim_asymm_v5,2020.2.10,MacIntel,60,61025ae37ef11b136ea224fe,,,,,,,,,3672,-30.68359375,-76.15234375,1,0,0,response5disk,,3,-1.046875,8.60546875,1,0,0,rectangle,-1.046875,8.60546875,1,0,0,-1.046875,8.60546875,1,0,0,0,15,15,142,1,,,,,,,,
,,,,,,,,,,,,,FF,,,,,,,,1.5163,,,,,,,,,,,,,,,,,,,,,,60fcd84b3e8a213628c9a160,610369a172fda66032ff7c73,2021-07-29_19h55.43.287,Simcolourproject_2stim_asymm_v5,2020.2.10,MacIntel,60,61025ae37ef11b136ea224fe,,,,,,,,,1786,31.8515625,83.83203125,1,0,0,response1disk,,7,-5.203125,-4.90234375,1,0,0,rectangle,-68.81640625,30.16015625,1,0,0,-3.40234375,-3.7109375,1,0,0,0,16,16,53,1,,response7disk_3,TRUE,1,1,"[248,108,276,88,323,179,146,87,175,81,17,315,230,234,118,48,279,265,50,232]",1.9507,rectangle
,,,,,,,,,,,,,FF,,,,,,,,4.5023,,,,,,,,,,,,,,,,,,,,,,60fcd84b3e8a213628c9a160,610369a172fda66032ff7c73,2021-07-29_19h55.43.287,Simcolourproject_2stim_asymm_v5,2020.2.10,MacIntel,60,61025ae37ef11b136ea224fe,,,,,,,,,159,73.01953125,-34.078125,1,0,0,response3disk,,5,-0.5390625,12.53515625,1,0,0,rectangle,-0.5390625,12.53515625,1,0,0,-0.5390625,12.53515625,1,0,0,0,17,17,38,1,,,,,,,,
,,,,,,,,,,,,,FF,,,,,,,,1.6668,,,,,,,,,,,,,,,,,,,,,,60fcd84b3e8a213628c9a160,610369a172fda66032ff7c73,2021-07-29_19h55.43.287,Simcolourproject_2stim_asymm_v5,2020.2.10,MacIntel,60,61025ae37ef11b136ea224fe,,,,,,,,,3673,-51.5,-76.65625,1,0,0,response5disk,,3,-5.5703125,4.4765625,1,0,0,rectangle,-5.5703125,4.4765625,1,0,0,-5.5703125,4.4765625,1,0,0,0,18,18,135,1,,,,,,,,
,,,,,,,,,,,,,FF,,,,,,,,0.8179,,,,,,,,,,,,,,,,,,,,,,60fcd84b3e8a213628c9a160,610369a172fda66032ff7c73,2021-07-29_19h55.43.287,Simcolourproject_2stim_asymm_v5,2020.2.10,MacIntel,60,61025ae37ef11b136ea224fe,,,,,,,,,4081,55.03125,89.64453125,1,0,0,response1disk,,7,14.2421875,-4.98828125,1,0,0,rectangle,14.2421875,-4.98828125,1,0,0,14.2421875,-4.98828125,1,0,0,0,19,19,91,1,,,,,,,,
,,,,,,,,,,,,,FF,,,,,,,,1.3675,,,,,,,,,,,,,,,,,,,,,,60fcd84b3e8a213628c9a160,610369a172fda66032ff7c73,2021-07-29_19h55.43.287,Simcolourproject_2stim_asymm_v5,2020.2.10,MacIntel,60,61025ae37ef11b136ea224fe,,,,,,,,,3594,82.63671875,39.83984375,1,0,0,response1disk,,6,3.2578125,-1.19921875,1,0,0,rectangle,3.2578125,-1.19921875,1,0,0,3.2578125,-1.19921875,1,0,0,0,20,20,6,1,,,,,,,,
,,,,,,,,,,,,,FF,,,,,,,,1.1334,,,,,,,,,,,,,,,,,,,,,,60fcd84b3e8a213628c9a160,610369a172fda66032ff7c73,2021-07-29_19h55.43.287,Simcolourproject_2stim_asymm_v5,2020.2.10,MacIntel,60,61025ae37ef11b136ea224fe,,,,,,,,,4118,-50.11328125,86.671875,1,0,0,response7disk,,0,-2.4765625,1.8203125,1,0,0,rectangle,-2.4765625,1.8203125,1,0,0,-2.4765625,1.8203125,1,0,0,0,21,21,158,1,,,,,,,,
,,,,,,,,,,,,,FF,,,,,,,,1.1166,,,,,,,,,,,,,,,,,,,,,,60fcd84b3e8a213628c9a160,610369a172fda66032ff7c73,2021-07-29_19h55.43.287,Simcolourproject_2stim_asymm_v5,2020.2.10,MacIntel,60,61025ae37ef11b136ea224fe,,,,,,,,,319,48.03125,82.1640625,1,0,0,response1disk,,7,13.421875,12.76171875,1,0,0,rectangle,13.421875,12.76171875,1,0,0,13.421875,12.76171875,1,0,0,0,22,22,108,1,,,,,,,,
,,,,,,,,,,,,,FF,,,,,,,,0.9539,,,,,,,,,,,,,,,,,,,,,,60fcd84b3e8a213628c9a160,610369a172fda66032ff7c73,2021-07-29_19h55.43.287,Simcolourproject_2stim_asymm_v5,2020.2.10,MacIntel,60,61025ae37ef11b136ea224fe,,,,,,,,,671,39.08203125,85.42578125,1,0,0,response1disk,,7,-4.125,-0.875,1,0,0,rectangle,-4.125,-0.875,1,0,0,-4.125,-0.875,1,0,0,0,23,23,15,1,,,,,,,,
,,,,,,,,,,,,,FF,,,,,,,,0.7845,,,,,,,,,,,,,,,,,,,,,,60fcd84b3e8a213628c9a160,610369a172fda66032ff7c73,2021-07-29_19h55.43.287,Simcolourproject_2stim_asymm_v5,2020.2.10,MacIntel,60,61025ae37ef11b136ea224fe,,,,,,,,,4243,48.34375,91.34375,1,0,0,response1disk,,7,2.19921875,3.515625,1,0,0,rectangle,2.19921875,3.515625,1,0,0,2.19921875,3.515625,1,0,0,0,24,24,145,1,,,,,,,,
,,,,,,,,,,,,,FF,,,,,,,,1.6835,,,,,,,,,,,,,,,,,,,,,,60fcd84b3e8a213628c9a160,610369a172fda66032ff7c73,2021-07-29_19h55.43.287,Simcolourproject_2stim_asymm_v5,2020.2.10,MacIntel,60,61025ae37ef11b136ea224fe,,,,,,,,,4256,34.2109375,-72.484375,1,0,0,response3disk,,4,-7.1171875,-6.48046875,1,0,0,rectangle,-7.1171875,-6.48046875,1,0,0,-7.1171875,-6.48046875,1,0,0,0,25,25,123,1,,,,,,,,
,,,,,,,,,,,,,FF,,,,,,,,1.6675,,,,,,,,,,,,,,,,,,,,,,60fcd84b3e8a213628c9a160,610369a172fda66032ff7c73,2021-07-29_19h55.43.287,Simcolourproject_2stim_asymm_v5,2020.2.10,MacIntel,60,61025ae37ef11b136ea224fe,,,,,,,,,2030,30.5703125,-87.47265625,1,0,0,response3disk,,4,-8.40234375,1.3828125,1,0,0,rectangle,-8.40234375,1.3828125,1,0,0,-8.40234375,1.3828125,1,0,0,0,26,26,37,1,,,,,,,,
,,,,,,,,,,,,,FF,,,,,,,,1.0348,,,,,,,,,,,,,,,,,,,,,,60fcd84b3e8a213628c9a160,610369a172fda66032ff7c73,2021-07-29_19h55.43.287,Simcolourproject_2stim_asymm_v5,2020.2.10,MacIntel,60,61025ae37ef11b136ea224fe,,,,,,,,,3104,-57.80078125,-90.4375,1,0,0,response5disk,,3,-14.64453125,3.53125,1,0,0,rectangle,-14.64453125,3.53125,1,0,0,-14.64453125,3.53125,1,0,0,0,27,27,147,1,,,,,,,,
,,,,,,,,,,,,,FF,,,,,,,,2.3687,,,,,,,,,,,,,,,,,,,,,,60fcd84b3e8a213628c9a160,610369a172fda66032ff7c73,2021-07-29_19h55.43.287,Simcolourproject_2stim_asymm_v5,2020.2.10,MacIntel,60,61025ae37ef11b136ea224fe,,,,,,,,,1440,94.7890625,36.42578125,1,0,0,response1disk,,6,12.75,4.08203125,1,0,0,rectangle,12.75,4.08203125,1,0,0,12.75,4.08203125,1,0,0,0,28,28,16,1,,,,,,,,
,,,,,,,,,,,,,FF,,,,,,,,0.8486,,,,,,,,,,,,,,,,,,,,,,60fcd84b3e8a213628c9a160,610369a172fda66032ff7c73,2021-07-29_19h55.43.287,Simcolourproject_2stim_asymm_v5,2020.2.10,MacIntel,60,61025ae37ef11b136ea224fe,,,,,,,,,3524,47.265625,77.98828125,1,0,0,response1disk,,7,8.359375,10.03125,1,0,0,rectangle,8.359375,10.03125,1,0,0,8.359375,10.03125,1,0,0,0,29,29,10,1,,,,,,,,
,,,,,,,,,,,,,FF,,,,,,,,3.8508,,,,,,,,,,,,,,,,,,,,,,60fcd84b3e8a213628c9a160,610369a172fda66032ff7c73,2021-07-29_19h55.43.287,Simcolourproject_2stim_asymm_v5,2020.2.10,MacIntel,60,61025ae37ef11b136ea224fe,,,,,,,,,952,91.14453125,37.11328125,1,0,0,response1disk,,6,4.96484375,8.03125,1,0,0,rectangle,4.96484375,8.03125,1,0,0,4.96484375,8.03125,1,0,0,0,30,30,64,1,,,,,,,,
,,,,,,,,,,,,,FF,,,,,,,,1.5166,,,,,,,,,,,,,,,,,,,,,,60fcd84b3e8a213628c9a160,610369a172fda66032ff7c73,2021-07-29_19h55.43.287,Simcolourproject_2stim_asymm_v5,2020.2.10,MacIntel,60,61025ae37ef11b136ea224fe,,,,,,,,,2099,-87.859375,-33.91796875,1,0,0,response5disk,,2,1.5625,8.046875,1,0,0,rectangle,1.5625,8.046875,1,0,0,1.5625,8.046875,1,0,0,0,31,31,120,1,,,,,,,,
,,,,,,,,,,,,,FF,,,,,,,,2.0524,,,,,,,,,,,,,,,,,,,,,,60fcd84b3e8a213628c9a160,610369a172fda66032ff7c73,2021-07-29_19h55.43.287,Simcolourproject_2stim_asymm_v5,2020.2.10,MacIntel,60,61025ae37ef11b136ea224fe,,,,,,,,,2009,46.7265625,80.16015625,1,0,0,response1disk,,7,11.75,10.0546875,1,0,0,rectangle,11.75,10.0546875,1,0,0,11.75,10.0546875,1,0,0,0,32,32,127,1,,,,,,,,
,,,,,,,,,,,,,FF,,,,,,,,1.0843,,,,,,,,,,,,,,,,,,,,,,60fcd84b3e8a213628c9a160,610369a172fda66032ff7c73,2021-07-29_19h55.43.287,Simcolourproject_2stim_asymm_v5,2020.2.10,MacIntel,60,61025ae37ef11b136ea224fe,,,,,,,,,2860,45.66015625,87.05859375,1,0,0,response1disk,,7,16.52734375,8.765625,1,0,0,rectangle,16.52734375,8.765625,1,0,0,16.52734375,8.765625,1,0,0,0,33,33,23,1,,,,,,,,
,,,,,,,,,,,,,FF,,,,,,,,0.7167,,,,,,,,,,,,,,,,,,,,,,60fcd84b3e8a213628c9a160,610369a172fda66032ff7c73,2021-07-29_19h55.43.287,Simcolourproject_2stim_asymm_v5,2020.2.10,MacIntel,60,61025ae37ef11b136ea224fe,,,,,,,,,237,33.06640625,97.37890625,1,0,0,response1disk,,7,1.62109375,3.6640625,1,0,0,rectangle,1.62109375,3.6640625,1,0,0,1.62109375,3.6640625,1,0,0,0,34,34,67,1,,,,,,,,
,,,,,,,,,,,,,FF,,,,,,,,2.1324,,,,,,,,,,,,,,,,,,,,,,60fcd84b3e8a213628c9a160,610369a172fda66032ff7c73,2021-07-29_19h55.43.287,Simcolourproject_2stim_asymm_v5,2020.2.10,MacIntel,60,61025ae37ef11b136ea224fe,,,,,,,,,2173,-83.49609375,-54.39453125,1,0,0,response5disk,,2,-12.37890625,4.40625,1,0,0,rectangle,-12.37890625,4.40625,1,0,0,-12.37890625,4.40625,1,0,0,0,35,35,115,1,,,,,,,,
,,,,,,,,,,,,,FF,,,,,,,,3.5861,,,,,,,,,,,,,,,,,,,,,,60fcd84b3e8a213628c9a160,610369a172fda66032ff7c73,2021-07-29_19h55.43.287,Simcolourproject_2stim_asymm_v5,2020.2.10,MacIntel,60,61025ae37ef11b136ea224fe,,,,,,,,,2227,-87.33984375,-35.77734375,1,0,0,response5disk,,2,-3.12890625,-5.75390625,1,0,0,rectangle,-3.12890625,-5.75390625,1,0,0,-3.12890625,-5.75390625,1,0,0,0,36,36,25,1,,,,,,,,
,,,,,,,,,,,,,FF,,,,,,,,1.0013,,,,,,,,,,,,,,,,,,,,,,60fcd84b3e8a213628c9a160,610369a172fda66032ff7c73,2021-07-29_19h55.43.287,Simcolourproject_2stim_asymm_v5,2020.2.10,MacIntel,60,61025ae37ef11b136ea224fe,,,,,,,,,2998,-75.23046875,-35.42578125,1,0,0,response5disk,,2,11.69140625,2.33203125,1,0,0,rectangle,11.69140625,2.33203125,1,0,0,11.69140625,2.33203125,1,0,0,0,37,37,105,1,,,,,,,,
,,,,,,,,,,,,,FF,,,,,,,,1.9007,,,,,,,,,,,,,,,,,,,,,,60fcd84b3e8a213628c9a160,610369a172fda66032ff7c73,2021-07-29_19h55.43.287,Simcolourproject_2stim_asymm_v5,2020.2.10,MacIntel,60,61025ae37ef11b136ea224fe,,,,,,,,,1594,72.82421875,41.47265625,1,0,0,response1disk,,6,-0.26953125,0.25390625,1,0,0,rectangle,-0.26953125,0.25390625,1,0,0,-0.26953125,0.25390625,1,0,0,0,38,38,41,1,,,,,,,,
,,,,,,,,,,,,,FF,,,,,,,,1.099,,,,,,,,,,,,,,,,,,,,,,60fcd84b3e8a213628c9a160,610369a172fda66032ff7c73,2021-07-29_19h55.43.287,Simcolourproject_2stim_asymm_v5,2020.2.10,MacIntel,60,61025ae37ef11b136ea224fe,,,,,,,,,2686,43.4453125,85.09765625,1,0,0,response1disk,,7,-6.125,-10.3359375,1,0,0,rectangle,-6.125,-10.3359375,1,0,0,-6.125,-10.3359375,1,0,0,0,39,39,34,1,,,,,,,,
,,,,,,,,,,,,,FF,,,,,,,,3.6526,,,,,,,,,,,,,,,,,,,,,,60fcd84b3e8a213628c9a160,610369a172fda66032ff7c73,2021-07-29_19h55.43.287,Simcolourproject_2stim_asymm_v5,2020.2.10,MacIntel,60,61025ae37ef11b136ea224fe,,,,,,,,,526,-48.3515625,-80.25390625,1,0,0,response5disk,,3,7.62109375,-0.41015625,1,0,0,rectangle,7.62109375,-0.41015625,1,0,0,7.62109375,-0.41015625,1,0,0,0,40,40,39,1,,,,,,,,
,,,,,,,,,,,,,FF,,,,,,,,1.7347,,,,,,,,,,,,,,,,,,,,,,60fcd84b3e8a213628c9a160,610369a172fda66032ff7c73,2021-07-29_19h55.43.287,Simcolourproject_2stim_asymm_v5,2020.2.10,MacIntel,60,61025ae37ef11b136ea224fe,,,,,,,,,3292,-51.98828125,-64.5390625,1,0,0,response5disk,,3,-10.62109375,4.02734375,1,0,0,rectangle,-10.62109375,4.02734375,1,0,0,-10.62109375,4.02734375,1,0,0,0,41,41,90,1,,,,,,,,
,,,,,,,,,,,,,FF,,,,,,,,1.6179,,,,,,,,,,,,,,,,,,,,,,60fcd84b3e8a213628c9a160,610369a172fda66032ff7c73,2021-07-29_19h55.43.287,Simcolourproject_2stim_asymm_v5,2020.2.10,MacIntel,60,61025ae37ef11b136ea224fe,,,,,,,,,242,30.84765625,89.13671875,1,0,0,response1disk,,7,-5.34375,4.94140625,1,0,0,rectangle,-5.34375,4.94140625,1,0,0,-5.34375,4.94140625,1,0,0,0,42,42,146,1,,,,,,,,
,,,,,,,,,,,,,FF,,,,,,,,1.8671,,,,,,,,,,,,,,,,,,,,,,60fcd84b3e8a213628c9a160,610369a172fda66032ff7c73,2021-07-29_19h55.43.287,Simcolourproject_2stim_asymm_v5,2020.2.10,MacIntel,60,61025ae37ef11b136ea224fe,,,,,,,,,2833,-41.453125,-87.83203125,1,0,0,response5disk,,3,-4.94921875,-1.02734375,1,0,0,rectangle,-4.94921875,-1.02734375,1,0,0,-4.94921875,-1.02734375,1,0,0,0,43,43,56,1,,,,,,,,
,,,,,,,,,,,,,FF,,,,,,,,1.2507,,,,,,,,,,,,,,,,,,,,,,60fcd84b3e8a213628c9a160,610369a172fda66032ff7c73,2021-07-29_19h55.43.287,Simcolourproject_2stim_asymm_v5,2020.2.10,MacIntel,60,61025ae37ef11b136ea224fe,,,,,,,,,2397,59.4609375,80.12890625,1,0,0,response1disk,,7,5.2109375,-2.40625,1,0,0,rectangle,5.2109375,-2.40625,1,0,0,5.2109375,-2.40625,1,0,0,0,44,44,95,1,,,,,,,,
,,,,,,,,,,,,,FF,,,,,,,,1.951,,,,,,,,,,,,,,,,,,,,,,60fcd84b3e8a213628c9a160,610369a172fda66032ff7c73,2021-07-29_19h55.43.287,Simcolourproject_2stim_asymm_v5,2020.2.10,MacIntel,60,61025ae37ef11b136ea224fe,,,,,,,,,1535,27.1875,-95.35546875,1,0,0,response3disk,,4,10.73046875,-1.1640625,1,0,0,rectangle,10.73046875,-1.1640625,1,0,0,10.73046875,-1.1640625,1,0,0,0,45,45,58,1,,,,,,,,
,,,,,,,,,,,,,FF,,,,,,,,1.6841,,,,,,,,,,,,,,,,,,,,,,60fcd84b3e8a213628c9a160,610369a172fda66032ff7c73,2021-07-29_19h55.43.287,Simcolourproject_2stim_asymm_v5,2020.2.10,MacIntel,60,61025ae37ef11b136ea224fe,,,,,,,,,1656,43.375,79.8203125,1,0,0,response1disk,,7,6.43359375,-1.05078125,1,0,0,rectangle,6.43359375,-1.05078125,1,0,0,6.43359375,-1.05078125,1,0,0,0,46,46,31,1,,,,,,,,
,,,,,,,,,,,,,FF,,,,,,,,3.0517,,,,,,,,,,,,,,,,,,,,,,60fcd84b3e8a213628c9a160,610369a172fda66032ff7c73,2021-07-29_19h55.43.287,Simcolourproject_2stim_asymm_v5,2020.2.10,MacIntel,60,61025ae37ef11b136ea224fe,,,,,,,,,3172,41.83984375,83.98046875,1,0,0,response1disk,,7,18.40234375,9.17578125,1,0,0,rectangle,95.27734375,-30.28515625,1,0,0,12.08203125,14,1,0,0,0,47,47,69,1,,response3disk_3,TRUE,5,5,"[248,108,276,88,323,179,146,87,175,81,17,315,230,234,118,48,279,265,50,232]",2.1181,rectangle
,,,,,,,,,,,,,FF,,,,,,,,2.8844,,,,,,,,,,,,,,,,,,,,,,60fcd84b3e8a213628c9a160,610369a172fda66032ff7c73,2021-07-29_19h55.43.287,Simcolourproject_2stim_asymm_v5,2020.2.10,MacIntel,60,61025ae37ef11b136ea224fe,,,,,,,,,1064,80.16796875,40.21484375,1,0,0,response1disk,,6,7.42578125,9.04296875,1,0,0,rectangle,7.42578125,9.04296875,1,0,0,7.42578125,9.04296875,1,0,0,0,48,48,45,1,,,,,,,,
,,,,,,,,,,,,,FF,,,,,,,,3.6686,,,,,,,,,,,,,,,,,,,,,,60fcd84b3e8a213628c9a160,610369a172fda66032ff7c73,2021-07-29_19h55.43.287,Simcolourproject_2stim_asymm_v5,2020.2.10,MacIntel,60,61025ae37ef11b136ea224fe,,,,,,,,,3459,48.38671875,89.55859375,1,0,0,response1disk,,7,6.35546875,0.35546875,1,0,0,rectangle,88.80078125,-37.6875,1,0,0,1.2265625,6.4921875,1,0,0,0,49,49,66,1,,response3disk_3,TRUE,5,5,"[248,108,276,88,323,179,146,87,175,81,17,315,230,234,118,48,279,265,50,232]",2.3333,rectangle
,,,,,,,,,,,,,FF,,,,,,,,1.8857,,,,,,,,,,,,,,,,,,,,,,60fcd84b3e8a213628c9a160,610369a172fda66032ff7c73,2021-07-29_19h55.43.287,Simcolourproject_2stim_asymm_v5,2020.2.10,MacIntel,60,61025ae37ef11b136ea224fe,,,,,,,,,3020,93.7265625,49.33203125,1,0,0,response1disk,,6,9.1328125,-0.796875,1,0,0,rectangle,9.1328125,-0.796875,1,0,0,9.1328125,-0.796875,1,0,0,0,50,50,48,1,,,,,,,,
,,,,,,,,,,,,,FF,,,,,,,,0.834,,,,,,,,,,,,,,,,,,,,,,60fcd84b3e8a213628c9a160,610369a172fda66032ff7c73,2021-07-29_19h55.43.287,Simcolourproject_2stim_asymm_v5,2020.2.10,MacIntel,60,61025ae37ef11b136ea224fe,,,,,,,,,707,38.58984375,67.03125,1,0,0,response1disk,,7,13.84765625,7.60546875,1,0,0,rectangle,13.84765625,7.60546875,1,0,0,13.84765625,7.60546875,1,0,0,0,51,51,130,1,,,,,,,,
,,,,,,,,,,,,,FF,,,,,,,,2.0337,,,,,,,,,,,,,,,,,,,,,,60fcd84b3e8a213628c9a160,610369a172fda66032ff7c73,2021-07-29_19h55.43.287,Simcolourproject_2stim_asymm_v5,2020.2.10,MacIntel,60,61025ae37ef11b136ea224fe,,,,,,,,,3748,43.125,-76.00390625,1,0,0,response3disk,,4,-5.85546875,5.7421875,1,0,0,rectangle,-5.85546875,5.7421875,1,0,0,-5.85546875,5.7421875,1,0,0,0,52,52,136,1,,,,,,,,
,,,,,,,,,,,,,FF,,,,,,,,2.4497,,,,,,,,,,,,,,,,,,,,,,60fcd84b3e8a213628c9a160,610369a172fda66032ff7c73,2021-07-29_19h55.43.287,Simcolourproject_2stim_asymm_v5,2020.2.10,MacIntel,60,61025ae37ef11b136ea224fe,,,,,,,,,2607,-87.7578125,-58,1,0,0,response5disk,,2,-7.921875,-3.0546875,1,0,0,rectangle,-7.921875,-3.0546875,1,0,0,-7.921875,-3.0546875,1,0,0,0,53,53,70,1,,,,,,,,
,,,,,,,,,,,,,FF,,,,,,,,2.2935,,,,,,,,,,,,,,,,,,,,,,60fcd84b3e8a213628c9a160,610369a172fda66032ff7c73,2021-07-29_19h55.43.287,Simcolourproject_2stim_asymm_v5,2020.2.10,MacIntel,60,61025ae37ef11b136ea224fe,,,,,,,,,2903,86.1953125,-30.953125,1,0,0,response3disk,,5,20.43359375,-3.81640625,1,0,0,rectangle,20.43359375,-3.81640625,1,0,0,20.43359375,-3.81640625,1,0,0,0,54,54,116,1,,,,,,,,
,,,,,,,,,,,,,FF,,,,,,,,1.3995,,,,,,,,,,,,,,,,,,,,,,60fcd84b3e8a213628c9a160,610369a172fda66032ff7c73,2021-07-29_19h55.43.287,Simcolourproject_2stim_asymm_v5,2020.2.10,MacIntel,60,61025ae37ef11b136ea224fe,,,,,,,,,4176,81.4609375,52.625,1,0,0,response1disk,,6,13.37890625,5.203125,1,0,0,rectangle,13.37890625,5.203125,1,0,0,13.37890625,5.203125,1,0,0,0,55,55,32,1,,,,,,,,
,,,,,,,,,,,,,FF,,,,,,,,2.2007,,,,,,,,,,,,,,,,,,,,,,60fcd84b3e8a213628c9a160,610369a172fda66032ff7c73,2021-07-29_19h55.43.287,Simcolourproject_2stim_asymm_v5,2020.2.10,MacIntel,60,61025ae37ef11b136ea224fe,,,,,,,,,1748,-45.5078125,-83.98828125,1,0,0,response5disk,,3,3.13671875,11.95703125,1,0,0,rectangle,3.13671875,11.95703125,1,0,0,3.13671875,11.95703125,1,0,0,0,56,56,92,1,,,,,,,,
,,,,,,,,,,,,,FF,,,,,,,,0.6836,,,,,,,,,,,,,,,,,,,,,,60fcd84b3e8a213628c9a160,610369a172fda66032ff7c73,2021-07-29_19h55.43.287,Simcolourproject_2stim_asymm_v5,2020.2.10,MacIntel,60,61025ae37ef11b136ea224fe,,,,,,,,,1820,-34.08203125,-62.4609375,1,0,0,response5disk,,3,8.375,12.15625,1,0,0,rectangle,8.375,12.15625,1,0,0,8.375,12.15625,1,0,0,0,57,57,77,1,,,,,,,,
,,,,,,,,,,,,,FF,,,,,,,,1.8153,,,,,,,,,,,,,,,,,,,,,,60fcd84b3e8a213628c9a160,610369a172fda66032ff7c73,2021-07-29_19h55.43.287,Simcolourproject_2stim_asymm_v5,2020.2.10,MacIntel,60,61025ae37ef11b136ea224fe,,,,,,,,,4189,39.2734375,-75.40625,1,0,0,response3disk,,4,4.328125,-2.66015625,1,0,0,rectangle,4.328125,-2.66015625,1,0,0,4.328125,-2.66015625,1,0,0,0,58,58,81,1,,,,,,,,
,,,,,,,,,,,,,FF,,,,,,,,1.2185,,,,,,,,,,,,,,,,,,,,,,60fcd84b3e8a213628c9a160,610369a172fda66032ff7c73,2021-07-29_19h55.43.287,Simcolourproject_2stim_asymm_v5,2020.2.10,MacIntel,60,61025ae37ef11b136ea224fe,,,,,,,,,3015,77.828125,-26.0078125,1,0,0,response3disk,,5,-6.859375,-0.85546875,1,0,0,rectangle,-6.859375,-0.85546875,1,0,0,-6.859375,-0.85546875,1,0,0,0,59,59,88,1,,,,,,,,
,,,,,,,,,,,,,FF,,,,,,,,3.2845,,,,,,,,,,,,,,,,,,,,,,60fcd84b3e8a213628c9a160,610369a172fda66032ff7c73,2021-07-29_19h55.43.287,Simcolourproject_2stim_asymm_v5,2020.2.10,MacIntel,60,61025ae37ef11b136ea224fe,,,,,,,,,3542,41.80078125,73.50390625,1,0,0,response1disk,,7,17.3984375,12.85546875,1,0,0,rectangle,17.3984375,12.85546875,1,0,0,17.3984375,12.85546875,1,0,0,0,60,60,51,1,,,,,,,,
,,,,,,,,,,,,,FF,,,,,,,,1.4334,,,,,,,,,,,,,,,,,,,,,,60fcd84b3e8a213628c9a160,610369a172fda66032ff7c73,2021-07-29_19h55.43.287,Simcolourproject_2stim_asymm_v5,2020.2.10,MacIntel,60,61025ae37ef11b136ea224fe,,,,,,,,,3945,88.96875,41.48828125,1,0,0,response1disk,,6,5.18359375,3.546875,1,0,0,rectangle,5.18359375,3.546875,1,0,0,5.18359375,3.546875,1,0,0,0,61,61,141,1,,,,,,,,
,,,,,,,,,,,,,FF,,,,,,,,1.7818,,,,,,,,,,,,,,,,,,,,,,60fcd84b3e8a213628c9a160,610369a172fda66032ff7c73,2021-07-29_19h55.43.287,Simcolourproject_2stim_asymm_v5,2020.2.10,MacIntel,60,61025ae37ef11b136ea224fe,,,,,,,,,3311,70.80078125,32.9375,1,0,0,response1disk,,6,16.3671875,7.24609375,1,0,0,rectangle,16.3671875,7.24609375,1,0,0,16.3671875,7.24609375,1,0,0,0,62,62,148,1,,,,,,,,
,,,,,,,,,,,,,FF,,,,,,,,0.9187,,,,,,,,,,,,,,,,,,,,,,60fcd84b3e8a213628c9a160,610369a172fda66032ff7c73,2021-07-29_19h55.43.287,Simcolourproject_2stim_asymm_v5,2020.2.10,MacIntel,60,61025ae37ef11b136ea224fe,,,,,,,,,2639,40.0078125,80.43359375,1,0,0,response1disk,,7,5.56640625,-3.7890625,1,0,0,rectangle,5.56640625,-3.7890625,1,0,0,5.56640625,-3.7890625,1,0,0,0,63,63,144,1,,,,,,,,
,,,,,,,,,,,,,FF,,,,,,,,1.5508,,,,,,,,,,,,,,,,,,,,,,60fcd84b3e8a213628c9a160,610369a172fda66032ff7c73,2021-07-29_19h55.43.287,Simcolourproject_2stim_asymm_v5,2020.2.10,MacIntel,60,61025ae37ef11b136ea224fe,,,,,,,,,290,91.34375,-42.6953125,1,0,0,response3disk,,5,13.50390625,7.046875,1,0,0,rectangle,13.50390625,7.046875,1,0,0,13.50390625,7.046875,1,0,0,0,64,64,129,1,,,,,,,,
,,,,,,,,,,,,,FF,,,,,,,,1.0661,,,,,,,,,,,,,,,,,,,,,,60fcd84b3e8a213628c9a160,610369a172fda66032ff7c73,2021-07-29_19h55.43.287,Simcolourproject_2stim_asymm_v5,2020.2.10,MacIntel,60,61025ae37ef11b136ea224fe,,,,,,,,,3631,71.1796875,51.77734375,1,0,0,response1disk,,6,18.4453125,7.6015625,1,0,0,rectangle,18.4453125,7.6015625,1,0,0,18.4453125,7.6015625,1,0,0,0,65,65,128,1,,,,,,,,
,,,,,,,,,,,,,FF,,,,,,,,1.433,,,,,,,,,,,,,,,,,,,,,,60fcd84b3e8a213628c9a160,610369a172fda66032ff7c73,2021-07-29_19h55.43.287,Simcolourproject_2stim_asymm_v5,2020.2.10,MacIntel,60,61025ae37ef11b136ea224fe,,,,,,,,,1179,47.6953125,86.109375,1,0,0,response1disk,,7,13.8515625,8.88671875,1,0,0,rectangle,13.8515625,8.88671875,1,0,0,13.8515625,8.88671875,1,0,0,0,66,66,98,1,,,,,,,,
,,,,,,,,,,,,,FF,,,,,,,,3.6199,,,,,,,,,,,,,,,,,,,,,,60fcd84b3e8a213628c9a160,610369a172fda66032ff7c73,2021-07-29_19h55.43.287,Simcolourproject_2stim_asymm_v5,2020.2.10,MacIntel,60,61025ae37ef11b136ea224fe,,,,,,,,,1291,-90.21875,-42.87109375,1,0,0,response5disk,,2,-8.11328125,-0.96484375,1,0,0,rectangle,-8.11328125,-0.96484375,1,0,0,-8.11328125,-0.96484375,1,0,0,0,67,67,7,1,,,,,,,,
,,,,,,,,,,,,,FF,,,,,,,,2.0004,,,,,,,,,,,,,,,,,,,,,,60fcd84b3e8a213628c9a160,610369a172fda66032ff7c73,2021-07-29_19h55.43.287,Simcolourproject_2stim_asymm_v5,2020.2.10,MacIntel,60,61025ae37ef11b136ea224fe,,,,,,,,,3725,49.453125,-85.2421875,1,0,0,response3disk,,4,16.390625,-0.2421875,1,0,0,rectangle,16.390625,-0.2421875,1,0,0,16.390625,-0.2421875,1,0,0,0,68,68,154,1,,,,,,,,
,,,,,,,,,,,,,FF,,,,,,,,1.8677,,,,,,,,,,,,,,,,,,,,,,60fcd84b3e8a213628c9a160,610369a172fda66032ff7c73,2021-07-29_19h55.43.287,Simcolourproject_2stim_asymm_v5,2020.2.10,MacIntel,60,61025ae37ef11b136ea224fe,,,,,,,,,472,51.09765625,106.7460938,1,0,0,response1disk,,7,1.51953125,1.35546875,1,0,0,rectangle,1.51953125,1.35546875,1,0,0,1.51953125,1.35546875,1,0,0,0,69,69,61,1,,,,,,,,
,,,,,,,,,,,,,FF,,,,,,,,1.9001,,,,,,,,,,,,,,,,,,,,,,60fcd84b3e8a213628c9a160,610369a172fda66032ff7c73,2021-07-29_19h55.43.287,Simcolourproject_2stim_asymm_v5,2020.2.10,MacIntel,60,61025ae37ef11b136ea224fe,,,,,,,,,435,82.859375,-23.75390625,1,0,0,response3disk,,5,17.8203125,-3.64453125,1,0,0,rectangle,17.8203125,-3.64453125,1,0,0,17.8203125,-3.64453125,1,0,0,0,70,70,106,1,,,,,,,,
,,,,,,,,,,,,,FF,,,,,,,,1.4326,,,,,,,,,,,,,,,,,,,,,,60fcd84b3e8a213628c9a160,610369a172fda66032ff7c73,2021-07-29_19h55.43.287,Simcolourproject_2stim_asymm_v5,2020.2.10,MacIntel,60,61025ae37ef11b136ea224fe,,,,,,,,,3763,89.4296875,51.07421875,1,0,0,response1disk,,6,10.17578125,6.49609375,1,0,0,rectangle,10.17578125,6.49609375,1,0,0,10.17578125,6.49609375,1,0,0,0,71,71,65,1,,,,,,,,
,,,,,,,,,,,,,FF,,,,,,,,6.455,,,,,,,,,,,,,,,,,,,,,,60fcd84b3e8a213628c9a160,610369a172fda66032ff7c73,2021-07-29_19h55.43.287,Simcolourproject_2stim_asymm_v5,2020.2.10,MacIntel,60,61025ae37ef11b136ea224fe,,,,,,,,,880,69.0859375,27.58203125,1,0,0,response1disk,,6,-9.8515625,-11.24609375,1,0,0,rectangle,-9.8515625,-11.24609375,1,0,0,-9.8515625,-11.24609375,1,0,0,0,72,72,17,1,,,,,,,,
,,,,,,,,,,,,,FF,,,,,,,,1.3826,,,,,,,,,,,,,,,,,,,,,,60fcd84b3e8a213628c9a160,610369a172fda66032ff7c73,2021-07-29_19h55.43.287,Simcolourproject_2stim_asymm_v5,2020.2.10,MacIntel,60,61025ae37ef11b136ea224fe,,,,,,,,,3189,55.2421875,-62.56640625,1,0,0,response3disk,,4,1.53125,-0.828125,1,0,0,rectangle,1.53125,-0.828125,1,0,0,1.53125,-0.828125,1,0,0,0,73,73,27,1,,,,,,,,
,,,,,,,,,,,,,FF,,,,,,,,1.3007,,,,,,,,,,,,,,,,,,,,,,60fcd84b3e8a213628c9a160,610369a172fda66032ff7c73,2021-07-29_19h55.43.287,Simcolourproject_2stim_asymm_v5,2020.2.10,MacIntel,60,61025ae37ef11b136ea224fe,,,,,,,,,3932,91.484375,-33.91796875,1,0,0,response3disk,,5,11.89453125,4.6953125,1,0,0,rectangle,11.89453125,4.6953125,1,0,0,11.89453125,4.6953125,1,0,0,0,74,74,86,1,,,,,,,,
,,,,,,,,,,,,,FF,,,,,,,,1.5699,,,,,,,,,,,,,,,,,,,,,,60fcd84b3e8a213628c9a160,610369a172fda66032ff7c73,2021-07-29_19h55.43.287,Simcolourproject_2stim_asymm_v5,2020.2.10,MacIntel,60,61025ae37ef11b136ea224fe,,,,,,,,,3618,41.27734375,78.6015625,1,0,0,response1disk,,7,-2.32421875,0.76171875,1,0,0,rectangle,-2.32421875,0.76171875,1,0,0,-2.32421875,0.76171875,1,0,0,0,75,75,33,1,,,,,,,,
,,,,,,,,,,,,,FF,,,,,,,,4.3009,,,,,,,,,,,,,,,,,,,,,,60fcd84b3e8a213628c9a160,610369a172fda66032ff7c73,2021-07-29_19h55.43.287,Simcolourproject_2stim_asymm_v5,2020.2.10,MacIntel,60,61025ae37ef11b136ea224fe,,,,,,,,,3405,76.32421875,46.8671875,1,0,0,response1disk,,6,-1.83203125,-4.875,1,0,0,rectangle,-1.83203125,-4.875,1,0,0,-1.83203125,-4.875,1,0,0,0,76,76,71,1,,,,,,,,
,,,,,,,,,,,,,FF,,,,,,,,3.4012,,,,,,,,,,,,,,,,,,,,,,60fcd84b3e8a213628c9a160,610369a172fda66032ff7c73,2021-07-29_19h55.43.287,Simcolourproject_2stim_asymm_v5,2020.2.10,MacIntel,60,61025ae37ef11b136ea224fe,,,,,,,,,1022,62.9609375,95.41796875,1,0,0,response1disk,,7,13.02734375,6.7421875,1,0,0,rectangle,13.02734375,6.7421875,1,0,0,13.02734375,6.7421875,1,0,0,0,77,77,131,1,,,,,,,,
,,,,,,,,,,,,,FF,,,,,,,,0.8644,,,,,,,,,,,,,,,,,,,,,,60fcd84b3e8a213628c9a160,610369a172fda66032ff7c73,2021-07-29_19h55.43.287,Simcolourproject_2stim_asymm_v5,2020.2.10,MacIntel,60,61025ae37ef11b136ea224fe,,,,,,,,,4316,-33.86328125,66.66015625,1,0,0,response7disk,,0,-1.43359375,7.71875,1,0,0,rectangle,-1.43359375,7.71875,1,0,0,-1.43359375,7.71875,1,0,0,0,78,78,125,1,,,,,,,,
,,,,,,,,,,,,,FF,,,,,,,,1.1337,,,,,,,,,,,,,,,,,,,,,,60fcd84b3e8a213628c9a160,610369a172fda66032ff7c73,2021-07-29_19h55.43.287,Simcolourproject_2stim_asymm_v5,2020.2.10,MacIntel,60,61025ae37ef11b136ea224fe,,,,,,,,,431,-76.53515625,-44.27734375,1,0,0,response5disk,,2,-16.0078125,2.14453125,1,0,0,rectangle,-16.0078125,2.14453125,1,0,0,-16.0078125,2.14453125,1,0,0,0,79,79,102,1,,,,,,,,
,,,,,,,,,,,,,FF,,,,,,,,1.2176,,,,,,,,,,,,,,,,,,,,,,60fcd84b3e8a213628c9a160,610369a172fda66032ff7c73,2021-07-29_19h55.43.287,Simcolourproject_2stim_asymm_v5,2020.2.10,MacIntel,60,61025ae37ef11b136ea224fe,,,,,,,,,2435,73.40234375,-51.80078125,1,0,0,response3disk,,5,16.4609375,3.65234375,1,0,0,rectangle,-23.14453125,-77.4375,1,0,0,3.94921875,4.58203125,1,0,0,0,80,80,112,1,,response5disk_3,TRUE,3,3,"[248,108,276,88,323,179,146,87,175,81,17,315,230,234,118,48,279,265,50,232]",1.6336,rectangle
,,,,,,,,,,,,,FF,,,,,,,,1.334,,,,,,,,,,,,,,,,,,,,,,60fcd84b3e8a213628c9a160,610369a172fda66032ff7c73,2021-07-29_19h55.43.287,Simcolourproject_2stim_asymm_v5,2020.2.10,MacIntel,60,61025ae37ef11b136ea224fe,,,,,,,,,2879,45.1796875,-86.0703125,1,0,0,response3disk,,4,4.19140625,-6.51171875,1,0,0,rectangle,4.19140625,-6.51171875,1,0,0,4.19140625,-6.51171875,1,0,0,0,81,81,24,1,,,,,,,,
,,,,,,,,,,,,,FF,,,,,,,,0.9338,,,,,,,,,,,,,,,,,,,,,,60fcd84b3e8a213628c9a160,610369a172fda66032ff7c73,2021-07-29_19h55.43.287,Simcolourproject_2stim_asymm_v5,2020.2.10,MacIntel,60,61025ae37ef11b136ea224fe,,,,,,,,,603,81.55078125,39.859375,1,0,0,response1disk,,6,6.375,3.04296875,1,0,0,rectangle,6.375,3.04296875,1,0,0,6.375,3.04296875,1,0,0,0,82,82,5,1,,,,,,,,
,,,,,,,,,,,,,FF,,,,,,,,0.9997,,,,,,,,,,,,,,,,,,,,,,60fcd84b3e8a213628c9a160,610369a172fda66032ff7c73,2021-07-29_19h55.43.287,Simcolourproject_2stim_asymm_v5,2020.2.10,MacIntel,60,61025ae37ef11b136ea224fe,,,,,,,,,1908,35.140625,65.91796875,1,0,0,response1disk,,7,13.96484375,0.96484375,1,0,0,rectangle,13.96484375,0.96484375,1,0,0,13.96484375,0.96484375,1,0,0,0,83,83,54,1,,,,,,,,
,,,,,,,,,,,,,FF,,,,,,,,0.9002,,,,,,,,,,,,,,,,,,,,,,60fcd84b3e8a213628c9a160,610369a172fda66032ff7c73,2021-07-29_19h55.43.287,Simcolourproject_2stim_asymm_v5,2020.2.10,MacIntel,60,61025ae37ef11b136ea224fe,,,,,,,,,1644,40.73828125,96.359375,1,0,0,response1disk,,7,11.015625,-1.7265625,1,0,0,rectangle,11.015625,-1.7265625,1,0,0,11.015625,-1.7265625,1,0,0,0,84,84,35,1,,,,,,,,
,,,,,,,,,,,,,FF,,,,,,,,2.2476,,,,,,,,,,,,,,,,,,,,,,60fcd84b3e8a213628c9a160,610369a172fda66032ff7c73,2021-07-29_19h55.43.287,Simcolourproject_2stim_asymm_v5,2020.2.10,MacIntel,60,61025ae37ef11b136ea224fe,,,,,,,,,1146,71.41015625,47.1171875,1,0,0,response1disk,,6,14.296875,1.9609375,1,0,0,rectangle,14.296875,1.9609375,1,0,0,14.296875,1.9609375,1,0,0,0,85,85,111,1,,,,,,,,
,,,,,,,,,,,,,FF,,,,,,,,1.1352,,,,,,,,,,,,,,,,,,,,,,60fcd84b3e8a213628c9a160,610369a172fda66032ff7c73,2021-07-29_19h55.43.287,Simcolourproject_2stim_asymm_v5,2020.2.10,MacIntel,60,61025ae37ef11b136ea224fe,,,,,,,,,1274,83.58203125,50.5703125,1,0,0,response1disk,,6,13.23828125,2.9296875,1,0,0,rectangle,-36.3203125,93.671875,1,0,0,-0.875,1.94921875,1,0,0,0,86,86,117,1,,response7disk_3,TRUE,0,0,"[248,108,276,88,323,179,146,87,175,81,17,315,230,234,118,48,279,265,50,232]",1.6165,rectangle
,,,,,,,,,,,,,FF,,,,,,,,1.7005,,,,,,,,,,,,,,,,,,,,,,60fcd84b3e8a213628c9a160,610369a172fda66032ff7c73,2021-07-29_19h55.43.287,Simcolourproject_2stim_asymm_v5,2020.2.10,MacIntel,60,61025ae37ef11b136ea224fe,,,,,,,,,1917,90.2578125,-35.6640625,1,0,0,response3disk,,5,20.81640625,2.25390625,1,0,0,rectangle,-37.7109375,-85.9296875,1,0,0,0.74609375,14.1484375,1,0,0,0,87,87,52,1,,response5disk_3,TRUE,3,3,"[248,108,276,88,323,179,146,87,175,81,17,315,230,234,118,48,279,265,50,232]",1.5668,rectangle
,,,,,,,,,,,,,FF,,,,,,,,1.6853,,,,,,,,,,,,,,,,,,,,,,60fcd84b3e8a213628c9a160,610369a172fda66032ff7c73,2021-07-29_19h55.43.287,Simcolourproject_2stim_asymm_v5,2020.2.10,MacIntel,60,61025ae37ef11b136ea224fe,,,,,,,,,3207,83.8828125,-45.546875,1,0,0,response3disk,,5,12.82421875,-0.26953125,1,0,0,rectangle,12.82421875,-0.26953125,1,0,0,12.82421875,-0.26953125,1,0,0,0,88,88,132,1,,,,,,,,
,,,,,,,,,,,,,FF,,,,,,,,2.0679,,,,,,,,,,,,,,,,,,,,,,60fcd84b3e8a213628c9a160,610369a172fda66032ff7c73,2021-07-29_19h55.43.287,Simcolourproject_2stim_asymm_v5,2020.2.10,MacIntel,60,61025ae37ef11b136ea224fe,,,,,,,,,4190,93.64453125,-30.5078125,1,0,0,response3disk,,5,22.90625,-1.01953125,1,0,0,rectangle,22.90625,-1.01953125,1,0,0,22.90625,-1.01953125,1,0,0,0,89,89,101,1,,,,,,,,
,,,,,,,,,,,,,FF,,,,,,,,0.7845,,,,,,,,,,,,,,,,,,,,,,60fcd84b3e8a213628c9a160,610369a172fda66032ff7c73,2021-07-29_19h55.43.287,Simcolourproject_2stim_asymm_v5,2020.2.10,MacIntel,60,61025ae37ef11b136ea224fe,,,,,,,,,2471,51.79296875,106.4648438,1,0,0,response1disk,,7,-6.80078125,2.21875,1,0,0,rectangle,-6.80078125,2.21875,1,0,0,-6.80078125,2.21875,1,0,0,0,90,90,4,1,,,,,,,,
,,,,,,,,,,,,,FF,,,,,,,,1.1663,,,,,,,,,,,,,,,,,,,,,,60fcd84b3e8a213628c9a160,610369a172fda66032ff7c73,2021-07-29_19h55.43.287,Simcolourproject_2stim_asymm_v5,2020.2.10,MacIntel,60,61025ae37ef11b136ea224fe,,,,,,,,,2893,-41.625,-86.6015625,1,0,0,response5disk,,3,-6.2265625,2.84375,1,0,0,rectangle,-6.2265625,2.84375,1,0,0,-6.2265625,2.84375,1,0,0,0,91,91,155,1,,,,,,,,
,,,,,,,,,,,,,FF,,,,,,,,1.2163,,,,,,,,,,,,,,,,,,,,,,60fcd84b3e8a213628c9a160,610369a172fda66032ff7c73,2021-07-29_19h55.43.287,Simcolourproject_2stim_asymm_v5,2020.2.10,MacIntel,60,61025ae37ef11b136ea224fe,,,,,,,,,3948,81.47265625,-43.96484375,1,0,0,response3disk,,5,21.24609375,4.1953125,1,0,0,rectangle,21.24609375,4.1953125,1,0,0,21.24609375,4.1953125,1,0,0,0,92,92,12,1,,,,,,,,
,,,,,,,,,,,,,FF,,,,,,,,2.1343,,,,,,,,,,,,,,,,,,,,,,60fcd84b3e8a213628c9a160,610369a172fda66032ff7c73,2021-07-29_19h55.43.287,Simcolourproject_2stim_asymm_v5,2020.2.10,MacIntel,60,61025ae37ef11b136ea224fe,,,,,,,,,3561,92.69921875,-37.51171875,1,0,0,response3disk,,5,14.0625,-0.27734375,1,0,0,rectangle,14.0625,-0.27734375,1,0,0,14.0625,-0.27734375,1,0,0,0,93,93,63,1,,,,,,,,
,,,,,,,,,,,,,FF,,,,,,,,1.5351,,,,,,,,,,,,,,,,,,,,,,60fcd84b3e8a213628c9a160,610369a172fda66032ff7c73,2021-07-29_19h55.43.287,Simcolourproject_2stim_asymm_v5,2020.2.10,MacIntel,60,61025ae37ef11b136ea224fe,,,,,,,,,1905,41.78515625,-98.48046875,1,0,0,response3disk,,4,3.6953125,12.41796875,1,0,0,rectangle,3.6953125,12.41796875,1,0,0,3.6953125,12.41796875,1,0,0,0,94,94,94,1,,,,,,,,
,,,,,,,,,,,,,FF,,,,,,,,2.1673,,,,,,,,,,,,,,,,,,,,,,60fcd84b3e8a213628c9a160,610369a172fda66032ff7c73,2021-07-29_19h55.43.287,Simcolourproject_2stim_asymm_v5,2020.2.10,MacIntel,60,61025ae37ef11b136ea224fe,,,,,,,,,2088,85.65625,31.73046875,1,0,0,response1disk,,6,17.9765625,1.75390625,1,0,0,rectangle,17.9765625,1.75390625,1,0,0,17.9765625,1.75390625,1,0,0,0,95,95,83,1,,,,,,,,
,,,,,,,,,,,,,FF,,,,,,,,1.9358,,,,,,,,,,,,,,,,,,,,,,60fcd84b3e8a213628c9a160,610369a172fda66032ff7c73,2021-07-29_19h55.43.287,Simcolourproject_2stim_asymm_v5,2020.2.10,MacIntel,60,61025ae37ef11b136ea224fe,,,,,,,,,3342,-59.9140625,-82.5625,1,0,0,response5disk,,3,-3.2109375,10.0546875,1,0,0,rectangle,-3.2109375,10.0546875,1,0,0,-3.2109375,10.0546875,1,0,0,0,96,96,84,1,,,,,,,,
,,,,,,,,,,,,,FF,,,,,,,,1.3345,,,,,,,,,,,,,,,,,,,,,,60fcd84b3e8a213628c9a160,610369a172fda66032ff7c73,2021-07-29_19h55.43.287,Simcolourproject_2stim_asymm_v5,2020.2.10,MacIntel,60,61025ae37ef11b136ea224fe,,,,,,,,,2149,86.41015625,-44.45703125,1,0,0,response3disk,,5,6.75,5.96484375,1,0,0,rectangle,6.75,5.96484375,1,0,0,6.75,5.96484375,1,0,0,0,97,97,100,1,,,,,,,,
,,,,,,,,,,,,,FF,,,,,,,,0.9696,,,,,,,,,,,,,,,,,,,,,,60fcd84b3e8a213628c9a160,610369a172fda66032ff7c73,2021-07-29_19h55.43.287,Simcolourproject_2stim_asymm_v5,2020.2.10,MacIntel,60,61025ae37ef11b136ea224fe,,,,,,,,,4130,38.28125,78.30859375,1,0,0,response1disk,,7,12.1796875,1.24609375,1,0,0,rectangle,12.1796875,1.24609375,1,0,0,12.1796875,1.24609375,1,0,0,0,98,98,109,1,,,,,,,,
,,,,,,,,,,,,,FF,,,,,,,,1.7021,,,,,,,,,,,,,,,,,,,,,,60fcd84b3e8a213628c9a160,610369a172fda66032ff7c73,2021-07-29_19h55.43.287,Simcolourproject_2stim_asymm_v5,2020.2.10,MacIntel,60,61025ae37ef11b136ea224fe,,,,,,,,,2170,-48.34375,-93.54296875,1,0,0,response5disk,,3,5.484375,11.07421875,1,0,0,rectangle,5.484375,11.07421875,1,0,0,5.484375,11.07421875,1,0,0,0,99,99,137,1,,,,,,,,
,,,,,,,,,,,,,FF,,,,,,,,1.6008,,,,,,,,,,,,,,,,,,,,,,60fcd84b3e8a213628c9a160,610369a172fda66032ff7c73,2021-07-29_19h55.43.287,Simcolourproject_2stim_asymm_v5,2020.2.10,MacIntel,60,61025ae37ef11b136ea224fe,,,,,,,,,1816,-84.4921875,-42.62890625,1,0,0,response5disk,,2,-4.37890625,11.4765625,1,0,0,rectangle,-4.37890625,11.4765625,1,0,0,-4.37890625,11.4765625,1,0,0,0,100,100,157,1,,,,,,,,
,,,,,,,,,,,,,FF,,,,,,,,2.1844,,,,,,,,,,,,,,,,,,,,,,60fcd84b3e8a213628c9a160,610369a172fda66032ff7c73,2021-07-29_19h55.43.287,Simcolourproject_2stim_asymm_v5,2020.2.10,MacIntel,60,61025ae37ef11b136ea224fe,,,,,,,,,3128,33.7265625,79.4609375,1,0,0,response1disk,,7,5.41015625,5.90625,1,0,0,rectangle,5.41015625,5.90625,1,0,0,5.41015625,5.90625,1,0,0,0,101,101,26,1,,,,,,,,
,,,,,,,,,,,,,FF,,,,,,,,1.4997,,,,,,,,,,,,,,,,,,,,,,60fcd84b3e8a213628c9a160,610369a172fda66032ff7c73,2021-07-29_19h55.43.287,Simcolourproject_2stim_asymm_v5,2020.2.10,MacIntel,60,61025ae37ef11b136ea224fe,,,,,,,,,1764,88.33984375,49.85546875,1,0,0,response1disk,,6,5.6875,8.91015625,1,0,0,rectangle,5.6875,8.91015625,1,0,0,5.6875,8.91015625,1,0,0,0,102,102,75,1,,,,,,,,
,,,,,,,,,,,,,FF,,,,,,,,1.0996,,,,,,,,,,,,,,,,,,,,,,60fcd84b3e8a213628c9a160,610369a172fda66032ff7c73,2021-07-29_19h55.43.287,Simcolourproject_2stim_asymm_v5,2020.2.10,MacIntel,60,61025ae37ef11b136ea224fe,,,,,,,,,1141,92.89453125,53.7734375,1,0,0,response1disk,,6,13.23046875,3.12890625,1,0,0,rectangle,13.23046875,3.12890625,1,0,0,13.23046875,3.12890625,1,0,0,0,103,103,28,1,,,,,,,,
,,,,,,,,,,,,,FF,,,,,,,,1.0499,,,,,,,,,,,,,,,,,,,,,,60fcd84b3e8a213628c9a160,610369a172fda66032ff7c73,2021-07-29_19h55.43.287,Simcolourproject_2stim_asymm_v5,2020.2.10,MacIntel,60,61025ae37ef11b136ea224fe,,,,,,,,,1354,87.1796875,39.515625,1,0,0,response1disk,,6,20.62109375,9.66796875,1,0,0,rectangle,20.62109375,9.66796875,1,0,0,20.62109375,9.66796875,1,0,0,0,104,104,87,1,,,,,,,,
,,,,,,,,,,,,,FF,,,,,,,,0.7177,,,,,,,,,,,,,,,,,,,,,,60fcd84b3e8a213628c9a160,610369a172fda66032ff7c73,2021-07-29_19h55.43.287,Simcolourproject_2stim_asymm_v5,2020.2.10,MacIntel,60,61025ae37ef11b136ea224fe,,,,,,,,,150,38.37890625,78.296875,1,0,0,response1disk,,7,14.12890625,-1.4296875,1,0,0,rectangle,14.12890625,-1.4296875,1,0,0,14.12890625,-1.4296875,1,0,0,0,105,105,3,1,,,,,,,,
,,,,,,,,,,,,,FF,,,,,,,,0.667,,,,,,,,,,,,,,,,,,,,,,60fcd84b3e8a213628c9a160,610369a172fda66032ff7c73,2021-07-29_19h55.43.287,Simcolourproject_2stim_asymm_v5,2020.2.10,MacIntel,60,61025ae37ef11b136ea224fe,,,,,,,,,1670,-28.37109375,76.640625,1,0,0,response7disk,,0,12.20703125,6.90234375,1,0,0,rectangle,12.20703125,6.90234375,1,0,0,12.20703125,6.90234375,1,0,0,0,106,106,149,1,,,,,,,,
,,,,,,,,,,,,,FF,,,,,,,,1.6181,,,,,,,,,,,,,,,,,,,,,,60fcd84b3e8a213628c9a160,610369a172fda66032ff7c73,2021-07-29_19h55.43.287,Simcolourproject_2stim_asymm_v5,2020.2.10,MacIntel,60,61025ae37ef11b136ea224fe,,,,,,,,,2439,84.6015625,51.40625,1,0,0,response1disk,,6,9.47265625,11.37109375,1,0,0,rectangle,-36.8515625,-89.265625,1,0,0,2.8828125,7.0390625,1,0,0,0,107,107,113,1,,response5disk_3,TRUE,3,3,"[248,108,276,88,323,179,146,87,175,81,17,315,230,234,118,48,279,265,50,232]",1.8183,rectangle
,,,,,,,,,,,,,FF,,,,,,,,1.671,,,,,,,,,,,,,,,,,,,,,,60fcd84b3e8a213628c9a160,610369a172fda66032ff7c73,2021-07-29_19h55.43.287,Simcolourproject_2stim_asymm_v5,2020.2.10,MacIntel,60,61025ae37ef11b136ea224fe,,,,,,,,,3266,93.8125,48.4609375,1,0,0,response1disk,,6,7.5703125,0.875,1,0,0,rectangle,7.5703125,0.875,1,0,0,7.5703125,0.875,1,0,0,0,108,108,76,1,,,,,,,,
,,,,,,,,,,,,,FF,,,,,,,,2.0816,,,,,,,,,,,,,,,,,,,,,,60fcd84b3e8a213628c9a160,610369a172fda66032ff7c73,2021-07-29_19h55.43.287,Simcolourproject_2stim_asymm_v5,2020.2.10,MacIntel,60,61025ae37ef11b136ea224fe,,,,,,,,,1885,45.1015625,85.60546875,1,0,0,response1disk,,7,-1.8046875,-1.6640625,1,0,0,rectangle,-1.8046875,-1.6640625,1,0,0,-1.8046875,-1.6640625,1,0,0,0,109,109,72,1,,,,,,,,
,,,,,,,,,,,,,FF,,,,,,,,1.3024,,,,,,,,,,,,,,,,,,,,,,60fcd84b3e8a213628c9a160,610369a172fda66032ff7c73,2021-07-29_19h55.43.287,Simcolourproject_2stim_asymm_v5,2020.2.10,MacIntel,60,61025ae37ef11b136ea224fe,,,,,,,,,1578,87.3984375,35.71875,1,0,0,response1disk,,6,24.73828125,2.9296875,1,0,0,rectangle,24.73828125,2.9296875,1,0,0,24.73828125,2.9296875,1,0,0,0,110,110,159,1,,,,,,,,
,,,,,,,,,,,,,FF,,,,,,,,1.2351,,,,,,,,,,,,,,,,,,,,,,60fcd84b3e8a213628c9a160,610369a172fda66032ff7c73,2021-07-29_19h55.43.287,Simcolourproject_2stim_asymm_v5,2020.2.10,MacIntel,60,61025ae37ef11b136ea224fe,,,,,,,,,1888,-51.5703125,-91.3671875,1,0,0,response5disk,,3,5.03515625,-3.87109375,1,0,0,rectangle,5.03515625,-3.87109375,1,0,0,5.03515625,-3.87109375,1,0,0,0,111,111,0,1,,,,,,,,
,,,,,,,,,,,,,FF,,,,,,,,1.8695,,,,,,,,,,,,,,,,,,,,,,60fcd84b3e8a213628c9a160,610369a172fda66032ff7c73,2021-07-29_19h55.43.287,Simcolourproject_2stim_asymm_v5,2020.2.10,MacIntel,60,61025ae37ef11b136ea224fe,,,,,,,,,1631,84.19921875,47.38671875,1,0,0,response1disk,,6,27.07421875,12.31640625,1,0,0,rectangle,27.07421875,12.31640625,1,0,0,27.07421875,12.31640625,1,0,0,0,112,112,74,1,,,,,,,,
,,,,,,,,,,,,,FF,,,,,,,,0.849,,,,,,,,,,,,,,,,,,,,,,60fcd84b3e8a213628c9a160,610369a172fda66032ff7c73,2021-07-29_19h55.43.287,Simcolourproject_2stim_asymm_v5,2020.2.10,MacIntel,60,61025ae37ef11b136ea224fe,,,,,,,,,4071,-30.8828125,75.28515625,1,0,0,response7disk,,0,1.22265625,6.65625,1,0,0,rectangle,1.22265625,6.65625,1,0,0,1.22265625,6.65625,1,0,0,0,113,113,14,1,,,,,,,,
,,,,,,,,,,,,,FF,,,,,,,,0.9833,,,,,,,,,,,,,,,,,,,,,,60fcd84b3e8a213628c9a160,610369a172fda66032ff7c73,2021-07-29_19h55.43.287,Simcolourproject_2stim_asymm_v5,2020.2.10,MacIntel,60,61025ae37ef11b136ea224fe,,,,,,,,,3675,-89.4453125,51.2890625,1,0,0,response7disk,,1,-9.63671875,4.67578125,1,0,0,rectangle,-9.63671875,4.67578125,1,0,0,-9.63671875,4.67578125,1,0,0,0,114,114,124,1,,,,,,,,
,,,,,,,,,,,,,FF,,,,,,,,2.0705,,,,,,,,,,,,,,,,,,,,,,60fcd84b3e8a213628c9a160,610369a172fda66032ff7c73,2021-07-29_19h55.43.287,Simcolourproject_2stim_asymm_v5,2020.2.10,MacIntel,60,61025ae37ef11b136ea224fe,,,,,,,,,730,82.515625,-38.89453125,1,0,0,response3disk,,5,18.328125,6.1953125,1,0,0,rectangle,18.328125,6.1953125,1,0,0,18.328125,6.1953125,1,0,0,0,115,115,110,1,,,,,,,,
,,,,,,,,,,,,,FF,,,,,,,,2.1837,,,,,,,,,,,,,,,,,,,,,,60fcd84b3e8a213628c9a160,610369a172fda66032ff7c73,2021-07-29_19h55.43.287,Simcolourproject_2stim_asymm_v5,2020.2.10,MacIntel,60,61025ae37ef11b136ea224fe,,,,,,,,,3599,54.44140625,-74.3125,1,0,0,response3disk,,4,15.0625,-2.015625,1,0,0,rectangle,15.0625,-2.015625,1,0,0,15.0625,-2.015625,1,0,0,0,116,116,30,1,,,,,,,,
,,,,,,,,,,,,,FF,,,,,,,,1.3512,,,,,,,,,,,,,,,,,,,,,,60fcd84b3e8a213628c9a160,610369a172fda66032ff7c73,2021-07-29_19h55.43.287,Simcolourproject_2stim_asymm_v5,2020.2.10,MacIntel,60,61025ae37ef11b136ea224fe,,,,,,,,,1263,81.93359375,48.45703125,1,0,0,response1disk,,6,14.8359375,2.515625,1,0,0,rectangle,-37.08984375,96.94921875,1,0,0,-4.1484375,1.21875,1,0,0,0,117,117,97,1,,response7disk_3,TRUE,0,0,"[248,108,276,88,323,179,146,87,175,81,17,315,230,234,118,48,279,265,50,232]",1.4178,rectangle
,,,,,,,,,,,,,FF,,,,,,,,3.705,,,,,,,,,,,,,,,,,,,,,,60fcd84b3e8a213628c9a160,610369a172fda66032ff7c73,2021-07-29_19h55.43.287,Simcolourproject_2stim_asymm_v5,2020.2.10,MacIntel,60,61025ae37ef11b136ea224fe,,,,,,,,,1901,-36.87890625,-89.703125,1,0,0,response5disk,,3,0.46484375,12.48828125,1,0,0,rectangle,0.46484375,12.48828125,1,0,0,0.46484375,12.48828125,1,0,0,0,118,118,82,1,,,,,,,,
,,,,,,,,,,,,,FF,,,,,,,,1.1671,,,,,,,,,,,,,,,,,,,,,,60fcd84b3e8a213628c9a160,610369a172fda66032ff7c73,2021-07-29_19h55.43.287,Simcolourproject_2stim_asymm_v5,2020.2.10,MacIntel,60,61025ae37ef11b136ea224fe,,,,,,,,,3302,82.6875,38.3359375,1,0,0,response1disk,,6,4.70703125,4.9453125,1,0,0,rectangle,4.70703125,4.9453125,1,0,0,4.70703125,4.9453125,1,0,0,0,119,119,36,1,,,,,,,,
,,,,,,,,,,,,,FF,,,,,,,,2.602,,,,,,,,,,,,,,,,,,,,,,60fcd84b3e8a213628c9a160,610369a172fda66032ff7c73,2021-07-29_19h55.43.287,Simcolourproject_2stim_asymm_v5,2020.2.10,MacIntel,60,61025ae37ef11b136ea224fe,,,,,,,,,4201,-30.5625,-80.984375,1,0,0,response5disk,,3,-4.7421875,7.4453125,1,0,0,rectangle,-4.7421875,7.4453125,1,0,0,-4.7421875,7.4453125,1,0,0,0,120,120,42,1,,,,,,,,
,,,,,,,,,,,,,FF,,,,,,,,1.5848,,,,,,,,,,,,,,,,,,,,,,60fcd84b3e8a213628c9a160,610369a172fda66032ff7c73,2021-07-29_19h55.43.287,Simcolourproject_2stim_asymm_v5,2020.2.10,MacIntel,60,61025ae37ef11b136ea224fe,,,,,,,,,2624,45.9921875,82.37109375,1,0,0,response1disk,,7,10.69921875,9.6328125,1,0,0,rectangle,10.69921875,9.6328125,1,0,0,10.69921875,9.6328125,1,0,0,0,121,121,121,1,,,,,,,,
,,,,,,,,,,,,,FF,,,,,,,,1.8675,,,,,,,,,,,,,,,,,,,,,,60fcd84b3e8a213628c9a160,610369a172fda66032ff7c73,2021-07-29_19h55.43.287,Simcolourproject_2stim_asymm_v5,2020.2.10,MacIntel,60,61025ae37ef11b136ea224fe,,,,,,,,,37,91.1796875,34.6875,1,0,0,response1disk,,6,22.23828125,8.34375,1,0,0,rectangle,22.23828125,8.34375,1,0,0,22.23828125,8.34375,1,0,0,0,122,122,114,1,,,,,,,,
,,,,,,,,,,,,,FF,,,,,,,,0.6511,,,,,,,,,,,,,,,,,,,,,,60fcd84b3e8a213628c9a160,610369a172fda66032ff7c73,2021-07-29_19h55.43.287,Simcolourproject_2stim_asymm_v5,2020.2.10,MacIntel,60,61025ae37ef11b136ea224fe,,,,,,,,,1564,44.1484375,79.5859375,1,0,0,response1disk,,7,14.26953125,5.9375,1,0,0,rectangle,14.26953125,5.9375,1,0,0,14.26953125,5.9375,1,0,0,0,123,123,153,1,,,,,,,,
,,,,,,,,,,,,,FF,,,,,,,,2.0844,,,,,,,,,,,,,,,,,,,,,,60fcd84b3e8a213628c9a160,610369a172fda66032ff7c73,2021-07-29_19h55.43.287,Simcolourproject_2stim_asymm_v5,2020.2.10,MacIntel,60,61025ae37ef11b136ea224fe,,,,,,,,,1967,82.15234375,-50.4921875,1,0,0,response3disk,,5,5.6796875,-10.6953125,1,0,0,rectangle,5.6796875,-10.6953125,1,0,0,5.6796875,-10.6953125,1,0,0,0,124,124,68,1,,,,,,,,
,,,,,,,,,,,,,FF,,,,,,,,1.2677,,,,,,,,,,,,,,,,,,,,,,60fcd84b3e8a213628c9a160,610369a172fda66032ff7c73,2021-07-29_19h55.43.287,Simcolourproject_2stim_asymm_v5,2020.2.10,MacIntel,60,61025ae37ef11b136ea224fe,,,,,,,,,360,70.39453125,37.85546875,1,0,0,response1disk,,6,14.9296875,2.42578125,1,0,0,rectangle,14.9296875,2.42578125,1,0,0,14.9296875,2.42578125,1,0,0,0,125,125,156,1,,,,,,,,
,,,,,,,,,,,,,FF,,,,,,,,4.17,,,,,,,,,,,,,,,,,,,,,,60fcd84b3e8a213628c9a160,610369a172fda66032ff7c73,2021-07-29_19h55.43.287,Simcolourproject_2stim_asymm_v5,2020.2.10,MacIntel,60,61025ae37ef11b136ea224fe,,,,,,,,,1051,-51.90234375,-86.51953125,1,0,0,response5disk,,3,-13.79296875,-13.63671875,1,0,0,rectangle,-13.79296875,-13.63671875,1,0,0,-13.79296875,-13.63671875,1,0,0,0,126,126,104,1,,,,,,,,
,,,,,,,,,,,,,FF,,,,,,,,0.9159,,,,,,,,,,,,,,,,,,,,,,60fcd84b3e8a213628c9a160,610369a172fda66032ff7c73,2021-07-29_19h55.43.287,Simcolourproject_2stim_asymm_v5,2020.2.10,MacIntel,60,61025ae37ef11b136ea224fe,,,,,,,,,4152,55.078125,93.3046875,1,0,0,response1disk,,7,14.1875,0.625,1,0,0,rectangle,14.1875,0.625,1,0,0,14.1875,0.625,1,0,0,0,127,127,44,1,,,,,,,,
,,,,,,,,,,,,,FF,,,,,,,,1.285,,,,,,,,,,,,,,,,,,,,,,60fcd84b3e8a213628c9a160,610369a172fda66032ff7c73,2021-07-29_19h55.43.287,Simcolourproject_2stim_asymm_v5,2020.2.10,MacIntel,60,61025ae37ef11b136ea224fe,,,,,,,,,2430,90.4296875,51.0390625,1,0,0,response1disk,,6,9.73828125,-1.23046875,1,0,0,rectangle,9.73828125,-1.23046875,1,0,0,9.73828125,-1.23046875,1,0,0,0,128,128,57,1,,,,,,,,
,,,,,,,,,,,,,FF,,,,,,,,1.2017,,,,,,,,,,,,,,,,,,,,,,60fcd84b3e8a213628c9a160,610369a172fda66032ff7c73,2021-07-29_19h55.43.287,Simcolourproject_2stim_asymm_v5,2020.2.10,MacIntel,60,61025ae37ef11b136ea224fe,,,,,,,,,2175,29.9765625,80.01171875,1,0,0,response1disk,,7,6.2890625,-1.703125,1,0,0,rectangle,6.2890625,-1.703125,1,0,0,6.2890625,-1.703125,1,0,0,0,129,129,47,1,,,,,,,,
,,,,,,,,,,,,,FF,,,,,,,,2.5176,,,,,,,,,,,,,,,,,,,,,,60fcd84b3e8a213628c9a160,610369a172fda66032ff7c73,2021-07-29_19h55.43.287,Simcolourproject_2stim_asymm_v5,2020.2.10,MacIntel,60,61025ae37ef11b136ea224fe,,,,,,,,,3327,91.52734375,-28.390625,1,0,0,response3disk,,5,17.8359375,-0.43359375,1,0,0,rectangle,17.8359375,-0.43359375,1,0,0,17.8359375,-0.43359375,1,0,0,0,130,130,122,1,,,,,,,,
,,,,,,,,,,,,,FF,,,,,,,,1.8343,,,,,,,,,,,,,,,,,,,,,,60fcd84b3e8a213628c9a160,610369a172fda66032ff7c73,2021-07-29_19h55.43.287,Simcolourproject_2stim_asymm_v5,2020.2.10,MacIntel,60,61025ae37ef11b136ea224fe,,,,,,,,,807,79.46484375,-49.16796875,1,0,0,response3disk,,5,-13.72265625,-3.796875,1,0,0,rectangle,-13.72265625,-3.796875,1,0,0,-13.72265625,-3.796875,1,0,0,0,131,131,80,1,,,,,,,,
,,,,,,,,,,,,,FF,,,,,,,,1.2509,,,,,,,,,,,,,,,,,,,,,,60fcd84b3e8a213628c9a160,610369a172fda66032ff7c73,2021-07-29_19h55.43.287,Simcolourproject_2stim_asymm_v5,2020.2.10,MacIntel,60,61025ae37ef11b136ea224fe,,,,,,,,,3883,95.53515625,39,1,0,0,response1disk,,6,7.9765625,6.875,1,0,0,rectangle,7.9765625,6.875,1,0,0,7.9765625,6.875,1,0,0,0,132,132,139,1,,,,,,,,
,,,,,,,,,,,,,FF,,,,,,,,0.8504,,,,,,,,,,,,,,,,,,,,,,60fcd84b3e8a213628c9a160,610369a172fda66032ff7c73,2021-07-29_19h55.43.287,Simcolourproject_2stim_asymm_v5,2020.2.10,MacIntel,60,61025ae37ef11b136ea224fe,,,,,,,,,4240,79.109375,-39.08984375,1,0,0,response3disk,,5,15.46875,0.65234375,1,0,0,rectangle,15.46875,0.65234375,1,0,0,15.46875,0.65234375,1,0,0,0,133,133,78,1,,,,,,,,
,,,,,,,,,,,,,FF,,,,,,,,1.8675,,,,,,,,,,,,,,,,,,,,,,60fcd84b3e8a213628c9a160,610369a172fda66032ff7c73,2021-07-29_19h55.43.287,Simcolourproject_2stim_asymm_v5,2020.2.10,MacIntel,60,61025ae37ef11b136ea224fe,,,,,,,,,69,91.63671875,46.58203125,1,0,0,response1disk,,6,10.00390625,-2.078125,1,0,0,rectangle,10.00390625,-2.078125,1,0,0,10.00390625,-2.078125,1,0,0,0,134,134,43,1,,,,,,,,
,,,,,,,,,,,,,FF,,,,,,,,0.666,,,,,,,,,,,,,,,,,,,,,,60fcd84b3e8a213628c9a160,610369a172fda66032ff7c73,2021-07-29_19h55.43.287,Simcolourproject_2stim_asymm_v5,2020.2.10,MacIntel,60,61025ae37ef11b136ea224fe,,,,,,,,,2497,46.8671875,75.06640625,1,0,0,response1disk,,7,15.2265625,10.65234375,1,0,0,rectangle,15.2265625,10.65234375,1,0,0,15.2265625,10.65234375,1,0,0,0,135,135,73,1,,,,,,,,
,,,,,,,,,,,,,FF,,,,,,,,1.3844,,,,,,,,,,,,,,,,,,,,,,60fcd84b3e8a213628c9a160,610369a172fda66032ff7c73,2021-07-29_19h55.43.287,Simcolourproject_2stim_asymm_v5,2020.2.10,MacIntel,60,61025ae37ef11b136ea224fe,,,,,,,,,3246,83.578125,-25.64453125,1,0,0,response3disk,,5,20.19140625,1.34765625,1,0,0,rectangle,20.19140625,1.34765625,1,0,0,20.19140625,1.34765625,1,0,0,0,136,136,126,1,,,,,,,,
,,,,,,,,,,,,,FF,,,,,,,,1.3674,,,,,,,,,,,,,,,,,,,,,,60fcd84b3e8a213628c9a160,610369a172fda66032ff7c73,2021-07-29_19h55.43.287,Simcolourproject_2stim_asymm_v5,2020.2.10,MacIntel,60,61025ae37ef11b136ea224fe,,,,,,,,,1116,86.6875,-28.125,1,0,0,response3disk,,5,8.72265625,7.046875,1,0,0,rectangle,8.72265625,7.046875,1,0,0,8.72265625,7.046875,1,0,0,0,137,137,151,1,,,,,,,,
,,,,,,,,,,,,,FF,,,,,,,,1.1998,,,,,,,,,,,,,,,,,,,,,,60fcd84b3e8a213628c9a160,610369a172fda66032ff7c73,2021-07-29_19h55.43.287,Simcolourproject_2stim_asymm_v5,2020.2.10,MacIntel,60,61025ae37ef11b136ea224fe,,,,,,,,,2307,91.546875,66.296875,1,0,0,response1disk,,6,6.4453125,-1.5078125,1,0,0,rectangle,6.4453125,-1.5078125,1,0,0,6.4453125,-1.5078125,1,0,0,0,138,138,29,1,,,,,,,,
,,,,,,,,,,,,,FF,,,,,,,,1.2504,,,,,,,,,,,,,,,,,,,,,,60fcd84b3e8a213628c9a160,610369a172fda66032ff7c73,2021-07-29_19h55.43.287,Simcolourproject_2stim_asymm_v5,2020.2.10,MacIntel,60,61025ae37ef11b136ea224fe,,,,,,,,,2668,44.29296875,-82.78125,1,0,0,response3disk,,4,1.88671875,-1.25390625,1,0,0,rectangle,1.88671875,-1.25390625,1,0,0,1.88671875,-1.25390625,1,0,0,0,139,139,49,1,,,,,,,,
,,,,,,,,,,,,,FF,,,,,,,,2.4515,,,,,,,,,,,,,,,,,,,,,,60fcd84b3e8a213628c9a160,610369a172fda66032ff7c73,2021-07-29_19h55.43.287,Simcolourproject_2stim_asymm_v5,2020.2.10,MacIntel,60,61025ae37ef11b136ea224fe,,,,,,,,,4219,71,-51.94921875,1,0,0,response3disk,,5,19.40234375,-4.79296875,1,0,0,rectangle,19.40234375,-4.79296875,1,0,0,19.40234375,-4.79296875,1,0,0,0,140,140,93,1,,,,,,,,
,,,,,,,,,,,,,FF,,,,,,,,0.6838,,,,,,,,,,,,,,,,,,,,,,60fcd84b3e8a213628c9a160,610369a172fda66032ff7c73,2021-07-29_19h55.43.287,Simcolourproject_2stim_asymm_v5,2020.2.10,MacIntel,60,61025ae37ef11b136ea224fe,,,,,,,,,4019,43.60546875,90.73046875,1,0,0,response1disk,,7,5.25,-3.6015625,1,0,0,rectangle,5.25,-3.6015625,1,0,0,5.25,-3.6015625,1,0,0,0,141,141,103,1,,,,,,,,
,,,,,,,,,,,,,FF,,,,,,,,1.7474,,,,,,,,,,,,,,,,,,,,,,60fcd84b3e8a213628c9a160,610369a172fda66032ff7c73,2021-07-29_19h55.43.287,Simcolourproject_2stim_asymm_v5,2020.2.10,MacIntel,60,61025ae37ef11b136ea224fe,,,,,,,,,2718,-37.64453125,82.8203125,1,0,0,response7disk,,0,4.7734375,2.44921875,1,0,0,rectangle,4.7734375,2.44921875,1,0,0,4.7734375,2.44921875,1,0,0,0,142,142,89,1,,,,,,,,
,,,,,,,,,,,,,FF,,,,,,,,2.634,,,,,,,,,,,,,,,,,,,,,,60fcd84b3e8a213628c9a160,610369a172fda66032ff7c73,2021-07-29_19h55.43.287,Simcolourproject_2stim_asymm_v5,2020.2.10,MacIntel,60,61025ae37ef11b136ea224fe,,,,,,,,,1321,45.8828125,-89.359375,1,0,0,response3disk,,4,-4.03125,-2.98828125,1,0,0,rectangle,-4.03125,-2.98828125,1,0,0,-4.03125,-2.98828125,1,0,0,0,143,143,1,1,,,,,,,,
,,,,,,,,,,,,,FF,,,,,,,,1.7013,,,,,,,,,,,,,,,,,,,,,,60fcd84b3e8a213628c9a160,610369a172fda66032ff7c73,2021-07-29_19h55.43.287,Simcolourproject_2stim_asymm_v5,2020.2.10,MacIntel,60,61025ae37ef11b136ea224fe,,,,,,,,,1260,84.51171875,65.328125,1,0,0,response1disk,,6,2.17578125,5.45703125,1,0,0,rectangle,2.17578125,5.45703125,1,0,0,2.17578125,5.45703125,1,0,0,0,144,144,2,1,,,,,,,,
,,,,,,,,,,,,,FF,,,,,,,,2.2678,,,,,,,,,,,,,,,,,,,,,,60fcd84b3e8a213628c9a160,610369a172fda66032ff7c73,2021-07-29_19h55.43.287,Simcolourproject_2stim_asymm_v5,2020.2.10,MacIntel,60,61025ae37ef11b136ea224fe,,,,,,,,,2612,94.19921875,33.56640625,1,0,0,response1disk,,6,13.609375,1.984375,1,0,0,rectangle,87.484375,31.50390625,1,0,0,-0.09765625,3.73046875,1,0,0,0,145,145,62,1,,response1disk_3,TRUE,6,6,"[248,108,276,88,323,179,146,87,175,81,17,315,230,234,118,48,279,265,50,232]",1.3513,rectangle
,,,,,,,,,,,,,FF,,,,,,,,1.8851,,,,,,,,,,,,,,,,,,,,,,60fcd84b3e8a213628c9a160,610369a172fda66032ff7c73,2021-07-29_19h55.43.287,Simcolourproject_2stim_asymm_v5,2020.2.10,MacIntel,60,61025ae37ef11b136ea224fe,,,,,,,,,3209,47.4921875,91.5,1,0,0,response1disk,,7,4.109375,4.32421875,1,0,0,rectangle,4.109375,4.32421875,1,0,0,4.109375,4.32421875,1,0,0,0,146,146,134,1,,,,,,,,
,,,,,,,,,,,,,FF,,,,,,,,2.2351,,,,,,,,,,,,,,,,,,,,,,60fcd84b3e8a213628c9a160,610369a172fda66032ff7c73,2021-07-29_19h55.43.287,Simcolourproject_2stim_asymm_v5,2020.2.10,MacIntel,60,61025ae37ef11b136ea224fe,,,,,,,,,3625,47.140625,-85.66015625,1,0,0,response3disk,,4,-2.98046875,5.92578125,1,0,0,rectangle,-2.98046875,5.92578125,1,0,0,-2.98046875,5.92578125,1,0,0,0,147,147,150,1,,,,,,,,
,,,,,,,,,,,,,FF,,,,,,,,2.0012,,,,,,,,,,,,,,,,,,,,,,60fcd84b3e8a213628c9a160,610369a172fda66032ff7c73,2021-07-29_19h55.43.287,Simcolourproject_2stim_asymm_v5,2020.2.10,MacIntel,60,61025ae37ef11b136ea224fe,,,,,,,,,3608,84.15625,-39.66796875,1,0,0,response3disk,,5,-15.04296875,-1.8984375,1,0,0,rectangle,-15.04296875,-1.8984375,1,0,0,-15.04296875,-1.8984375,1,0,0,0,148,148,46,1,,,,,,,,
,,,,,,,,,,,,,FF,,,,,,,,0.7358,,,,,,,,,,,,,,,,,,,,,,60fcd84b3e8a213628c9a160,610369a172fda66032ff7c73,2021-07-29_19h55.43.287,Simcolourproject_2stim_asymm_v5,2020.2.10,MacIntel,60,61025ae37ef11b136ea224fe,,,,,,,,,3061,83.0390625,-29.0625,1,0,0,response3disk,,5,-0.33984375,0.98046875,1,0,0,rectangle,-0.33984375,0.98046875,1,0,0,-0.33984375,0.98046875,1,0,0,0,149,149,107,1,,,,,,,,
,,,,,,,,,,,,,FF,,,,,,,,1.5516,,,,,,,,,,,,,,,,,,,,,,60fcd84b3e8a213628c9a160,610369a172fda66032ff7c73,2021-07-29_19h55.43.287,Simcolourproject_2stim_asymm_v5,2020.2.10,MacIntel,60,61025ae37ef11b136ea224fe,,,,,,,,,2044,85.09375,37.75390625,1,0,0,response1disk,,6,14.02734375,5.77734375,1,0,0,rectangle,14.02734375,5.77734375,1,0,0,14.02734375,5.77734375,1,0,0,0,150,150,11,1,,,,,,,,
,,,,,,,,,,,,,FF,,,,,,,,1.8013,,,,,,,,,,,,,,,,,,,,,,60fcd84b3e8a213628c9a160,610369a172fda66032ff7c73,2021-07-29_19h55.43.287,Simcolourproject_2stim_asymm_v5,2020.2.10,MacIntel,60,61025ae37ef11b136ea224fe,,,,,,,,,3456,42.69921875,72.453125,1,0,0,response1disk,,7,13.0625,1.33203125,1,0,0,rectangle,13.0625,1.33203125,1,0,0,13.0625,1.33203125,1,0,0,0,151,151,118,1,,,,,,,,
,,,,,,,,,,,,,FF,,,,,,,,0.6527,,,,,,,,,,,,,,,,,,,,,,60fcd84b3e8a213628c9a160,610369a172fda66032ff7c73,2021-07-29_19h55.43.287,Simcolourproject_2stim_asymm_v5,2020.2.10,MacIntel,60,61025ae37ef11b136ea224fe,,,,,,,,,1706,38.0703125,103.2382813,1,0,0,response1disk,,7,19.07421875,-0.55078125,1,0,0,rectangle,19.07421875,-0.55078125,1,0,0,19.07421875,-0.55078125,1,0,0,0,152,152,79,1,,,,,,,,
,,,,,,,,,,,,,FF,,,,,,,,0.9676,,,,,,,,,,,,,,,,,,,,,,60fcd84b3e8a213628c9a160,610369a172fda66032ff7c73,2021-07-29_19h55.43.287,Simcolourproject_2stim_asymm_v5,2020.2.10,MacIntel,60,61025ae37ef11b136ea224fe,,,,,,,,,3655,46.08984375,109.7070313,1,0,0,response1disk,,7,8.90625,4.953125,1,0,0,rectangle,8.90625,4.953125,1,0,0,8.90625,4.953125,1,0,0,0,153,153,21,1,,,,,,,,
,,,,,,,,,,,,,FF,,,,,,,,1.666,,,,,,,,,,,,,,,,,,,,,,60fcd84b3e8a213628c9a160,610369a172fda66032ff7c73,2021-07-29_19h55.43.287,Simcolourproject_2stim_asymm_v5,2020.2.10,MacIntel,60,61025ae37ef11b136ea224fe,,,,,,,,,834,76.453125,40.609375,1,0,0,response1disk,,6,15.3125,11.31640625,1,0,0,rectangle,15.3125,11.31640625,1,0,0,15.3125,11.31640625,1,0,0,0,154,154,60,1,,,,,,,,
,,,,,,,,,,,,,FF,,,,,,,,0.6673,,,,,,,,,,,,,,,,,,,,,,60fcd84b3e8a213628c9a160,610369a172fda66032ff7c73,2021-07-29_19h55.43.287,Simcolourproject_2stim_asymm_v5,2020.2.10,MacIntel,60,61025ae37ef11b136ea224fe,,,,,,,,,1176,40.7265625,102.1835938,1,0,0,response1disk,,7,2.53125,3.32421875,1,0,0,rectangle,2.53125,3.32421875,1,0,0,2.53125,3.32421875,1,0,0,0,155,155,96,1,,,,,,,,
,,,,,,,,,,,,,FF,,,,,,,,1.9174,,,,,,,,,,,,,,,,,,,,,,60fcd84b3e8a213628c9a160,610369a172fda66032ff7c73,2021-07-29_19h55.43.287,Simcolourproject_2stim_asymm_v5,2020.2.10,MacIntel,60,61025ae37ef11b136ea224fe,,,,,,,,,2011,30.36328125,90.46875,1,0,0,response1disk,,7,2.1171875,6.4375,1,0,0,rectangle,2.1171875,6.4375,1,0,0,2.1171875,6.4375,1,0,0,0,156,156,9,1,,,,,,,,
,,,,,,,,,,,,,FF,,,,,,,,0.8003,,,,,,,,,,,,,,,,,,,,,,60fcd84b3e8a213628c9a160,610369a172fda66032ff7c73,2021-07-29_19h55.43.287,Simcolourproject_2stim_asymm_v5,2020.2.10,MacIntel,60,61025ae37ef11b136ea224fe,,,,,,,,,3891,87.3828125,36.67578125,1,0,0,response1disk,,6,5.72265625,-4.76171875,1,0,0,rectangle,5.72265625,-4.76171875,1,0,0,5.72265625,-4.76171875,1,0,0,0,157,157,133,1,,,,,,,,
,,,,,,,,,,,,,FF,,,,,,,,0.5506,,,,,,,,,,,,,,,,,,,,,,60fcd84b3e8a213628c9a160,610369a172fda66032ff7c73,2021-07-29_19h55.43.287,Simcolourproject_2stim_asymm_v5,2020.2.10,MacIntel,60,61025ae37ef11b136ea224fe,,,,,,,,,291,79.64453125,47.5,1,0,0,response1disk,,6,5.7265625,-0.515625,1,0,0,rectangle,5.7265625,-0.515625,1,0,0,5.7265625,-0.515625,1,0,0,0,158,158,99,1,,,,,,,,
,,,,,,,,,,,,,FF,,,,,,,,0.915,,,,,,,,,,,,,,,,,,,,,,60fcd84b3e8a213628c9a160,610369a172fda66032ff7c73,2021-07-29_19h55.43.287,Simcolourproject_2stim_asymm_v5,2020.2.10,MacIntel,60,61025ae37ef11b136ea224fe,,,,,,,,,4005,81.90234375,35.98828125,1,0,0,response1disk,,6,11.9609375,0.71484375,1,0,0,rectangle,11.9609375,0.71484375,1,0,0,11.9609375,0.71484375,1,0,0,0,159,159,143,1,,,,,,,,
,,,,,,,,,,,,,FF,,,,,,,,1.2003,,,,,,,,,,,,,,,,,,,,,,60fcd84b3e8a213628c9a160,610369a172fda66032ff7c73,2021-07-29_19h55.43.287,Simcolourproject_2stim_asymm_v5,2020.2.10,MacIntel,60,61025ae37ef11b136ea224fe,,,,,,,,,314,91.81640625,36.0078125,1,0,0,response1disk,,6,-3.65234375,0.2734375,1,0,0,rectangle,-3.65234375,0.2734375,1,0,0,-3.65234375,0.2734375,1,0,0,1,0,160,150,1,,,,,,,,
,,,,,,,,,,,,,FF,,,,,,,,0.8993,,,,,,,,,,,,,,,,,,,,,,60fcd84b3e8a213628c9a160,610369a172fda66032ff7c73,2021-07-29_19h55.43.287,Simcolourproject_2stim_asymm_v5,2020.2.10,MacIntel,60,61025ae37ef11b136ea224fe,,,,,,,,,2199,47.6953125,85.7890625,1,0,0,response1disk,,7,11.59765625,1.921875,1,0,0,rectangle,11.59765625,1.921875,1,0,0,11.59765625,1.921875,1,0,0,1,1,161,101,1,,,,,,,,
,,,,,,,,,,,,,FF,,,,,,,,1.1501,,,,,,,,,,,,,,,,,,,,,,60fcd84b3e8a213628c9a160,610369a172fda66032ff7c73,2021-07-29_19h55.43.287,Simcolourproject_2stim_asymm_v5,2020.2.10,MacIntel,60,61025ae37ef11b136ea224fe,,,,,,,,,4102,80.7109375,-48.76953125,1,0,0,response3disk,,5,3.51953125,5.8671875,1,0,0,rectangle,3.51953125,5.8671875,1,0,0,3.51953125,5.8671875,1,0,0,1,2,162,145,1,,,,,,,,
,,,,,,,,,,,,,FF,,,,,,,,0.8843,,,,,,,,,,,,,,,,,,,,,,60fcd84b3e8a213628c9a160,610369a172fda66032ff7c73,2021-07-29_19h55.43.287,Simcolourproject_2stim_asymm_v5,2020.2.10,MacIntel,60,61025ae37ef11b136ea224fe,,,,,,,,,2647,85.03515625,-37.5859375,1,0,0,response3disk,,5,-3.90625,0.09765625,1,0,0,rectangle,-3.90625,0.09765625,1,0,0,-3.90625,0.09765625,1,0,0,1,3,163,86,1,,,,,,,,
,,,,,,,,,,,,,FF,,,,,,,,1.7173,,,,,,,,,,,,,,,,,,,,,,60fcd84b3e8a213628c9a160,610369a172fda66032ff7c73,2021-07-29_19h55.43.287,Simcolourproject_2stim_asymm_v5,2020.2.10,MacIntel,60,61025ae37ef11b136ea224fe,,,,,,,,,2101,39.27734375,-78.2421875,1,0,0,response3disk,,4,-7.77734375,2.21875,1,0,0,rectangle,-7.77734375,2.21875,1,0,0,-7.77734375,2.21875,1,0,0,1,4,164,41,1,,,,,,,,
,,,,,,,,,,,,,FF,,,,,,,,0.8176,,,,,,,,,,,,,,,,,,,,,,60fcd84b3e8a213628c9a160,610369a172fda66032ff7c73,2021-07-29_19h55.43.287,Simcolourproject_2stim_asymm_v5,2020.2.10,MacIntel,60,61025ae37ef11b136ea224fe,,,,,,,,,1033,84.08984375,-36.58984375,1,0,0,response3disk,,5,3.25,11.42578125,1,0,0,rectangle,3.25,11.42578125,1,0,0,3.25,11.42578125,1,0,0,1,5,165,22,1,,,,,,,,
,,,,,,,,,,,,,FF,,,,,,,,0.7842,,,,,,,,,,,,,,,,,,,,,,60fcd84b3e8a213628c9a160,610369a172fda66032ff7c73,2021-07-29_19h55.43.287,Simcolourproject_2stim_asymm_v5,2020.2.10,MacIntel,60,61025ae37ef11b136ea224fe,,,,,,,,,2793,78.20703125,-24.640625,1,0,0,response3disk,,5,17.171875,3.90234375,1,0,0,rectangle,17.171875,3.90234375,1,0,0,17.171875,3.90234375,1,0,0,1,6,166,99,1,,,,,,,,
,,,,,,,,,,,,,FF,,,,,,,,0.6001,,,,,,,,,,,,,,,,,,,,,,60fcd84b3e8a213628c9a160,610369a172fda66032ff7c73,2021-07-29_19h55.43.287,Simcolourproject_2stim_asymm_v5,2020.2.10,MacIntel,60,61025ae37ef11b136ea224fe,,,,,,,,,1952,68.6328125,-41.6484375,1,0,0,response3disk,,5,9.63671875,10.2890625,1,0,0,rectangle,9.63671875,10.2890625,1,0,0,9.63671875,10.2890625,1,0,0,1,7,167,37,1,,,,,,,,
,,,,,,,,,,,,,FF,,,,,,,,0.7161,,,,,,,,,,,,,,,,,,,,,,60fcd84b3e8a213628c9a160,610369a172fda66032ff7c73,2021-07-29_19h55.43.287,Simcolourproject_2stim_asymm_v5,2020.2.10,MacIntel,60,61025ae37ef11b136ea224fe,,,,,,,,,533,74.94921875,-36.88671875,1,0,0,response3disk,,5,-0.2421875,12.1015625,1,0,0,rectangle,-0.2421875,12.1015625,1,0,0,-0.2421875,12.1015625,1,0,0,1,8,168,69,1,,,,,,,,
,,,,,,,,,,,,,FF,,,,,,,,1.1346,,,,,,,,,,,,,,,,,,,,,,60fcd84b3e8a213628c9a160,610369a172fda66032ff7c73,2021-07-29_19h55.43.287,Simcolourproject_2stim_asymm_v5,2020.2.10,MacIntel,60,61025ae37ef11b136ea224fe,,,,,,,,,874,86.09375,-36.234375,1,0,0,response3disk,,5,8.84375,-2.88671875,1,0,0,rectangle,8.84375,-2.88671875,1,0,0,8.84375,-2.88671875,1,0,0,1,9,169,98,1,,,,,,,,
,,,,,,,,,,,,,FF,,,,,,,,0.8333,,,,,,,,,,,,,,,,,,,,,,60fcd84b3e8a213628c9a160,610369a172fda66032ff7c73,2021-07-29_19h55.43.287,Simcolourproject_2stim_asymm_v5,2020.2.10,MacIntel,60,61025ae37ef11b136ea224fe,,,,,,,,,329,36.7890625,75.61328125,1,0,0,response1disk,,7,7.515625,9.05078125,1,0,0,rectangle,7.515625,9.05078125,1,0,0,7.515625,9.05078125,1,0,0,1,10,170,17,1,,,,,,,,
,,,,,,,,,,,,,FF,,,,,,,,1.634,,,,,,,,,,,,,,,,,,,,,,60fcd84b3e8a213628c9a160,610369a172fda66032ff7c73,2021-07-29_19h55.43.287,Simcolourproject_2stim_asymm_v5,2020.2.10,MacIntel,60,61025ae37ef11b136ea224fe,,,,,,,,,401,81.18359375,41.6640625,1,0,0,response1disk,,6,14.5390625,4.171875,1,0,0,rectangle,14.5390625,4.171875,1,0,0,14.5390625,4.171875,1,0,0,1,11,171,148,1,,,,,,,,
,,,,,,,,,,,,,FF,,,,,,,,1.9669,,,,,,,,,,,,,,,,,,,,,,60fcd84b3e8a213628c9a160,610369a172fda66032ff7c73,2021-07-29_19h55.43.287,Simcolourproject_2stim_asymm_v5,2020.2.10,MacIntel,60,61025ae37ef11b136ea224fe,,,,,,,,,1593,75.6640625,-27.0390625,1,0,0,response3disk,,5,7.85546875,-0.98828125,1,0,0,rectangle,7.85546875,-0.98828125,1,0,0,7.85546875,-0.98828125,1,0,0,1,12,172,94,1,,,,,,,,
,,,,,,,,,,,,,FF,,,,,,,,1.1337,,,,,,,,,,,,,,,,,,,,,,60fcd84b3e8a213628c9a160,610369a172fda66032ff7c73,2021-07-29_19h55.43.287,Simcolourproject_2stim_asymm_v5,2020.2.10,MacIntel,60,61025ae37ef11b136ea224fe,,,,,,,,,496,82.93359375,60.3515625,1,0,0,response1disk,,6,16.29296875,0.53125,1,0,0,rectangle,16.29296875,0.53125,1,0,0,16.29296875,0.53125,1,0,0,1,13,173,51,1,,,,,,,,
,,,,,,,,,,,,,FF,,,,,,,,0.5503,,,,,,,,,,,,,,,,,,,,,,60fcd84b3e8a213628c9a160,610369a172fda66032ff7c73,2021-07-29_19h55.43.287,Simcolourproject_2stim_asymm_v5,2020.2.10,MacIntel,60,61025ae37ef11b136ea224fe,,,,,,,,,128,48.453125,84.56640625,1,0,0,response1disk,,7,17.70703125,15.0234375,1,0,0,rectangle,-40.21875,-95.2421875,1,0,0,-0.8359375,-0.80078125,1,0,0,1,14,174,28,1,,response5disk_3,TRUE,3,3,"[248,108,276,88,323,179,146,87,175,81,17,315,230,234,118,48,279,265,50,232]",1.9527,rectangle
,,,,,,,,,,,,,FF,,,,,,,,1.4176,,,,,,,,,,,,,,,,,,,,,,60fcd84b3e8a213628c9a160,610369a172fda66032ff7c73,2021-07-29_19h55.43.287,Simcolourproject_2stim_asymm_v5,2020.2.10,MacIntel,60,61025ae37ef11b136ea224fe,,,,,,,,,3672,-43.94140625,-86.78515625,1,0,0,response5disk,,3,-3.8046875,3.35546875,1,0,0,rectangle,-3.8046875,3.35546875,1,0,0,-3.8046875,3.35546875,1,0,0,1,15,175,141,1,,,,,,,,
,,,,,,,,,,,,,FF,,,,,,,,1.6157,,,,,,,,,,,,,,,,,,,,,,60fcd84b3e8a213628c9a160,610369a172fda66032ff7c73,2021-07-29_19h55.43.287,Simcolourproject_2stim_asymm_v5,2020.2.10,MacIntel,60,61025ae37ef11b136ea224fe,,,,,,,,,1786,78.09765625,29.96875,1,0,0,response1disk,,6,11.83984375,-0.18359375,1,0,0,rectangle,11.83984375,-0.18359375,1,0,0,11.83984375,-0.18359375,1,0,0,1,16,176,38,1,,,,,,,,
,,,,,,,,,,,,,FF,,,,,,,,0.6674,,,,,,,,,,,,,,,,,,,,,,60fcd84b3e8a213628c9a160,610369a172fda66032ff7c73,2021-07-29_19h55.43.287,Simcolourproject_2stim_asymm_v5,2020.2.10,MacIntel,60,61025ae37ef11b136ea224fe,,,,,,,,,159,26.48828125,70.09765625,1,0,0,response1disk,,7,-0.5703125,-3.796875,1,0,0,rectangle,-0.5703125,-3.796875,1,0,0,-0.5703125,-3.796875,1,0,0,1,17,177,0,1,,,,,,,,
,,,,,,,,,,,,,FF,,,,,,,,1.7162,,,,,,,,,,,,,,,,,,,,,,60fcd84b3e8a213628c9a160,610369a172fda66032ff7c73,2021-07-29_19h55.43.287,Simcolourproject_2stim_asymm_v5,2020.2.10,MacIntel,60,61025ae37ef11b136ea224fe,,,,,,,,,3673,80.2265625,-29.40625,1,0,0,response3disk,,5,1.83984375,-0.52734375,1,0,0,rectangle,-37.23828125,-102.6328125,1,0,0,-0.8046875,10.640625,1,0,0,1,18,178,81,1,,response5disk_3,TRUE,3,3,"[248,108,276,88,323,179,146,87,175,81,17,315,230,234,118,48,279,265,50,232]",1.8177,rectangle
,,,,,,,,,,,,,FF,,,,,,,,1.4659,,,,,,,,,,,,,,,,,,,,,,60fcd84b3e8a213628c9a160,610369a172fda66032ff7c73,2021-07-29_19h55.43.287,Simcolourproject_2stim_asymm_v5,2020.2.10,MacIntel,60,61025ae37ef11b136ea224fe,,,,,,,,,4081,87.60546875,42.1171875,1,0,0,response1disk,,6,10.0546875,0.71484375,1,0,0,rectangle,10.0546875,0.71484375,1,0,0,10.0546875,0.71484375,1,0,0,1,19,179,156,1,,,,,,,,
,,,,,,,,,,,,,FF,,,,,,,,2.8352,,,,,,,,,,,,,,,,,,,,,,60fcd84b3e8a213628c9a160,610369a172fda66032ff7c73,2021-07-29_19h55.43.287,Simcolourproject_2stim_asymm_v5,2020.2.10,MacIntel,60,61025ae37ef11b136ea224fe,,,,,,,,,3594,93.25,-20.85546875,1,0,0,response3disk,,5,20.65234375,-0.90234375,1,0,0,rectangle,20.65234375,-0.90234375,1,0,0,20.65234375,-0.90234375,1,0,0,1,20,180,49,1,,,,,,,,
,,,,,,,,,,,,,FF,,,,,,,,0.9005,,,,,,,,,,,,,,,,,,,,,,60fcd84b3e8a213628c9a160,610369a172fda66032ff7c73,2021-07-29_19h55.43.287,Simcolourproject_2stim_asymm_v5,2020.2.10,MacIntel,60,61025ae37ef11b136ea224fe,,,,,,,,,4118,-57.73828125,77.01953125,1,0,0,response7disk,,0,-2.84375,6.453125,1,0,0,rectangle,-2.84375,6.453125,1,0,0,-2.84375,6.453125,1,0,0,1,21,181,84,1,,,,,,,,
,,,,,,,,,,,,,FF,,,,,,,,1.8843,,,,,,,,,,,,,,,,,,,,,,60fcd84b3e8a213628c9a160,610369a172fda66032ff7c73,2021-07-29_19h55.43.287,Simcolourproject_2stim_asymm_v5,2020.2.10,MacIntel,60,61025ae37ef11b136ea224fe,,,,,,,,,319,82.94921875,-44.14453125,1,0,0,response3disk,,5,5.19921875,2.46484375,1,0,0,rectangle,5.19921875,2.46484375,1,0,0,5.19921875,2.46484375,1,0,0,1,22,182,88,1,,,,,,,,
,,,,,,,,,,,,,FF,,,,,,,,0.9339,,,,,,,,,,,,,,,,,,,,,,60fcd84b3e8a213628c9a160,610369a172fda66032ff7c73,2021-07-29_19h55.43.287,Simcolourproject_2stim_asymm_v5,2020.2.10,MacIntel,60,61025ae37ef11b136ea224fe,,,,,,,,,671,55.27734375,96.0078125,1,0,0,response1disk,,7,20.98828125,6.2734375,1,0,0,rectangle,20.98828125,6.2734375,1,0,0,20.98828125,6.2734375,1,0,0,1,23,183,33,1,,,,,,,,
,,,,,,,,,,,,,FF,,,,,,,,0.4828,,,,,,,,,,,,,,,,,,,,,,60fcd84b3e8a213628c9a160,610369a172fda66032ff7c73,2021-07-29_19h55.43.287,Simcolourproject_2stim_asymm_v5,2020.2.10,MacIntel,60,61025ae37ef11b136ea224fe,,,,,,,,,4243,37.1328125,77.69921875,1,0,0,response1disk,,7,11.625,-1.18359375,1,0,0,rectangle,11.625,-1.18359375,1,0,0,11.625,-1.18359375,1,0,0,1,24,184,75,1,,,,,,,,
,,,,,,,,,,,,,FF,,,,,,,,2.3525,,,,,,,,,,,,,,,,,,,,,,60fcd84b3e8a213628c9a160,610369a172fda66032ff7c73,2021-07-29_19h55.43.287,Simcolourproject_2stim_asymm_v5,2020.2.10,MacIntel,60,61025ae37ef11b136ea224fe,,,,,,,,,4256,42.48828125,-78.0703125,1,0,0,response3disk,,4,9.21875,1.0078125,1,0,0,rectangle,9.21875,1.0078125,1,0,0,9.21875,1.0078125,1,0,0,1,25,185,74,1,,,,,,,,
,,,,,,,,,,,,,FF,,,,,,,,0.6512,,,,,,,,,,,,,,,,,,,,,,60fcd84b3e8a213628c9a160,610369a172fda66032ff7c73,2021-07-29_19h55.43.287,Simcolourproject_2stim_asymm_v5,2020.2.10,MacIntel,60,61025ae37ef11b136ea224fe,,,,,,,,,2030,35.0078125,-98.74609375,1,0,0,response3disk,,4,-0.5703125,5.86328125,1,0,0,rectangle,-0.5703125,5.86328125,1,0,0,-0.5703125,5.86328125,1,0,0,1,26,186,90,1,,,,,,,,
,,,,,,,,,,,,,FF,,,,,,,,0.7009,,,,,,,,,,,,,,,,,,,,,,60fcd84b3e8a213628c9a160,610369a172fda66032ff7c73,2021-07-29_19h55.43.287,Simcolourproject_2stim_asymm_v5,2020.2.10,MacIntel,60,61025ae37ef11b136ea224fe,,,,,,,,,3104,37.078125,-68.8125,1,0,0,response3disk,,4,5.87109375,-6.8046875,1,0,0,rectangle,5.87109375,-6.8046875,1,0,0,5.87109375,-6.8046875,1,0,0,1,27,187,71,1,,,,,,,,
,,,,,,,,,,,,,FF,,,,,,,,1.6683,,,,,,,,,,,,,,,,,,,,,,60fcd84b3e8a213628c9a160,610369a172fda66032ff7c73,2021-07-29_19h55.43.287,Simcolourproject_2stim_asymm_v5,2020.2.10,MacIntel,60,61025ae37ef11b136ea224fe,,,,,,,,,1440,84.10546875,-30.53515625,1,0,0,response3disk,,5,9.7109375,7.91796875,1,0,0,rectangle,9.7109375,7.91796875,1,0,0,9.7109375,7.91796875,1,0,0,1,28,188,109,1,,,,,,,,
,,,,,,,,,,,,,FF,,,,,,,,1.4175,,,,,,,,,,,,,,,,,,,,,,60fcd84b3e8a213628c9a160,610369a172fda66032ff7c73,2021-07-29_19h55.43.287,Simcolourproject_2stim_asymm_v5,2020.2.10,MacIntel,60,61025ae37ef11b136ea224fe,,,,,,,,,3524,84.24609375,49.35546875,1,0,0,response1disk,,6,12.19140625,6.15625,1,0,0,rectangle,12.19140625,6.15625,1,0,0,12.19140625,6.15625,1,0,0,1,29,189,155,1,,,,,,,,
,,,,,,,,,,,,,FF,,,,,,,,1.5162,,,,,,,,,,,,,,,,,,,,,,60fcd84b3e8a213628c9a160,610369a172fda66032ff7c73,2021-07-29_19h55.43.287,Simcolourproject_2stim_asymm_v5,2020.2.10,MacIntel,60,61025ae37ef11b136ea224fe,,,,,,,,,952,74.6015625,-39.94921875,1,0,0,response3disk,,5,7.7265625,-0.38671875,1,0,0,rectangle,7.7265625,-0.38671875,1,0,0,7.7265625,-0.38671875,1,0,0,1,30,190,129,1,,,,,,,,
,,,,,,,,,,,,,FF,,,,,,,,0.9327,,,,,,,,,,,,,,,,,,,,,,60fcd84b3e8a213628c9a160,610369a172fda66032ff7c73,2021-07-29_19h55.43.287,Simcolourproject_2stim_asymm_v5,2020.2.10,MacIntel,60,61025ae37ef11b136ea224fe,,,,,,,,,2099,29.859375,-82.8359375,1,0,0,response3disk,,4,-4.55859375,-5.19140625,1,0,0,rectangle,-4.55859375,-5.19140625,1,0,0,-4.55859375,-5.19140625,1,0,0,1,31,191,44,1,,,,,,,,
,,,,,,,,,,,,,FF,,,,,,,,3.2367,,,,,,,,,,,,,,,,,,,,,,60fcd84b3e8a213628c9a160,610369a172fda66032ff7c73,2021-07-29_19h55.43.287,Simcolourproject_2stim_asymm_v5,2020.2.10,MacIntel,60,61025ae37ef11b136ea224fe,,,,,,,,,2009,81.67578125,53.7890625,1,0,0,response1disk,,6,4.45703125,3.46484375,1,0,0,rectangle,4.45703125,3.46484375,1,0,0,4.45703125,3.46484375,1,0,0,1,32,192,77,1,,,,,,,,
,,,,,,,,,,,,,FF,,,,,,,,0.9168,,,,,,,,,,,,,,,,,,,,,,60fcd84b3e8a213628c9a160,610369a172fda66032ff7c73,2021-07-29_19h55.43.287,Simcolourproject_2stim_asymm_v5,2020.2.10,MacIntel,60,61025ae37ef11b136ea224fe,,,,,,,,,2860,74.36328125,37.34765625,1,0,0,response1disk,,6,-0.9375,-2.3984375,1,0,0,rectangle,-0.9375,-2.3984375,1,0,0,-0.9375,-2.3984375,1,0,0,1,33,193,151,1,,,,,,,,
,,,,,,,,,,,,,FF,,,,,,,,0.8331,,,,,,,,,,,,,,,,,,,,,,60fcd84b3e8a213628c9a160,610369a172fda66032ff7c73,2021-07-29_19h55.43.287,Simcolourproject_2stim_asymm_v5,2020.2.10,MacIntel,60,61025ae37ef11b136ea224fe,,,,,,,,,237,75.078125,42.73046875,1,0,0,response1disk,,6,20.1640625,10.69921875,1,0,0,rectangle,20.1640625,10.69921875,1,0,0,20.1640625,10.69921875,1,0,0,1,34,194,119,1,,,,,,,,
,,,,,,,,,,,,,FF,,,,,,,,1.517,,,,,,,,,,,,,,,,,,,,,,60fcd84b3e8a213628c9a160,610369a172fda66032ff7c73,2021-07-29_19h55.43.287,Simcolourproject_2stim_asymm_v5,2020.2.10,MacIntel,60,61025ae37ef11b136ea224fe,,,,,,,,,2173,86.7734375,-33.10546875,1,0,0,response3disk,,5,-13.14453125,4.9921875,1,0,0,rectangle,-13.14453125,4.9921875,1,0,0,-13.14453125,4.9921875,1,0,0,1,35,195,58,1,,,,,,,,
,,,,,,,,,,,,,FF,,,,,,,,0.6169,,,,,,,,,,,,,,,,,,,,,,60fcd84b3e8a213628c9a160,610369a172fda66032ff7c73,2021-07-29_19h55.43.287,Simcolourproject_2stim_asymm_v5,2020.2.10,MacIntel,60,61025ae37ef11b136ea224fe,,,,,,,,,2227,24.51953125,-82.5390625,1,0,0,response3disk,,4,-1.08984375,3.98828125,1,0,0,rectangle,-1.08984375,3.98828125,1,0,0,-1.08984375,3.98828125,1,0,0,1,36,196,133,1,,,,,,,,
,,,,,,,,,,,,,FF,,,,,,,,1.0842,,,,,,,,,,,,,,,,,,,,,,60fcd84b3e8a213628c9a160,610369a172fda66032ff7c73,2021-07-29_19h55.43.287,Simcolourproject_2stim_asymm_v5,2020.2.10,MacIntel,60,61025ae37ef11b136ea224fe,,,,,,,,,2998,34.50390625,-73.04296875,1,0,0,response3disk,,4,-7.59375,1.75,1,0,0,rectangle,-7.59375,1.75,1,0,0,-7.59375,1.75,1,0,0,1,37,197,127,1,,,,,,,,
,,,,,,,,,,,,,FF,,,,,,,,1.1167,,,,,,,,,,,,,,,,,,,,,,60fcd84b3e8a213628c9a160,610369a172fda66032ff7c73,2021-07-29_19h55.43.287,Simcolourproject_2stim_asymm_v5,2020.2.10,MacIntel,60,61025ae37ef11b136ea224fe,,,,,,,,,1594,45.89453125,92.91796875,1,0,0,response1disk,,7,13.90234375,13.06640625,1,0,0,rectangle,13.90234375,13.06640625,1,0,0,13.90234375,13.06640625,1,0,0,1,38,198,132,1,,,,,,,,
,,,,,,,,,,,,,FF,,,,,,,,0.9329,,,,,,,,,,,,,,,,,,,,,,60fcd84b3e8a213628c9a160,610369a172fda66032ff7c73,2021-07-29_19h55.43.287,Simcolourproject_2stim_asymm_v5,2020.2.10,MacIntel,60,61025ae37ef11b136ea224fe,,,,,,,,,2686,72.890625,35.421875,1,0,0,response1disk,,6,12.1953125,-14.99609375,1,0,0,rectangle,12.1953125,-14.99609375,1,0,0,12.1953125,-14.99609375,1,0,0,1,39,199,154,1,,,,,,,,
,,,,,,,,,,,,,FF,,,,,,,,0.7336,,,,,,,,,,,,,,,,,,,,,,60fcd84b3e8a213628c9a160,610369a172fda66032ff7c73,2021-07-29_19h55.43.287,Simcolourproject_2stim_asymm_v5,2020.2.10,MacIntel,60,61025ae37ef11b136ea224fe,,,,,,,,,526,69.51953125,39.52734375,1,0,0,response1disk,,6,19.31640625,7.67578125,1,0,0,rectangle,19.31640625,7.67578125,1,0,0,19.31640625,7.67578125,1,0,0,1,40,200,125,1,,,,,,,,
,,,,,,,,,,,,,FF,,,,,,,,1.3173,,,,,,,,,,,,,,,,,,,,,,60fcd84b3e8a213628c9a160,610369a172fda66032ff7c73,2021-07-29_19h55.43.287,Simcolourproject_2stim_asymm_v5,2020.2.10,MacIntel,60,61025ae37ef11b136ea224fe,,,,,,,,,3292,73.6640625,-41.58203125,1,0,0,response3disk,,5,4.34765625,-10.03125,1,0,0,rectangle,4.34765625,-10.03125,1,0,0,4.34765625,-10.03125,1,0,0,1,41,201,19,1,,,,,,,,
,,,,,,,,,,,,,FF,,,,,,,,1.168,,,,,,,,,,,,,,,,,,,,,,60fcd84b3e8a213628c9a160,610369a172fda66032ff7c73,2021-07-29_19h55.43.287,Simcolourproject_2stim_asymm_v5,2020.2.10,MacIntel,60,61025ae37ef11b136ea224fe,,,,,,,,,242,87.01953125,36.5703125,1,0,0,response1disk,,6,7.40625,-3.94140625,1,0,0,rectangle,7.40625,-3.94140625,1,0,0,7.40625,-3.94140625,1,0,0,1,42,202,16,1,,,,,,,,
,,,,,,,,,,,,,FF,,,,,,,,1.4006,,,,,,,,,,,,,,,,,,,,,,60fcd84b3e8a213628c9a160,610369a172fda66032ff7c73,2021-07-29_19h55.43.287,Simcolourproject_2stim_asymm_v5,2020.2.10,MacIntel,60,61025ae37ef11b136ea224fe,,,,,,,,,2833,33.59375,-73.98046875,1,0,0,response3disk,,4,-14.421875,7.01171875,1,0,0,rectangle,-14.421875,7.01171875,1,0,0,-14.421875,7.01171875,1,0,0,1,43,203,87,1,,,,,,,,
,,,,,,,,,,,,,FF,,,,,,,,0.6181,,,,,,,,,,,,,,,,,,,,,,60fcd84b3e8a213628c9a160,610369a172fda66032ff7c73,2021-07-29_19h55.43.287,Simcolourproject_2stim_asymm_v5,2020.2.10,MacIntel,60,61025ae37ef11b136ea224fe,,,,,,,,,2397,87.64453125,47.0234375,1,0,0,response1disk,,6,-1.1953125,4.24609375,1,0,0,rectangle,-1.1953125,4.24609375,1,0,0,-1.1953125,4.24609375,1,0,0,1,44,204,92,1,,,,,,,,
,,,,,,,,,,,,,FF,,,,,,,,0.9007,,,,,,,,,,,,,,,,,,,,,,60fcd84b3e8a213628c9a160,610369a172fda66032ff7c73,2021-07-29_19h55.43.287,Simcolourproject_2stim_asymm_v5,2020.2.10,MacIntel,60,61025ae37ef11b136ea224fe,,,,,,,,,1535,74.66015625,-44.58203125,1,0,0,response3disk,,5,-8.5,-0.125,1,0,0,rectangle,-8.5,-0.125,1,0,0,-8.5,-0.125,1,0,0,1,45,205,29,1,,,,,,,,
,,,,,,,,,,,,,FF,,,,,,,,0.5681,,,,,,,,,,,,,,,,,,,,,,60fcd84b3e8a213628c9a160,610369a172fda66032ff7c73,2021-07-29_19h55.43.287,Simcolourproject_2stim_asymm_v5,2020.2.10,MacIntel,60,61025ae37ef11b136ea224fe,,,,,,,,,1656,92.96484375,43.96484375,1,0,0,response1disk,,6,7.66015625,1.91796875,1,0,0,rectangle,7.66015625,1.91796875,1,0,0,7.66015625,1.91796875,1,0,0,1,46,206,68,1,,,,,,,,
,,,,,,,,,,,,,FF,,,,,,,,0.7326,,,,,,,,,,,,,,,,,,,,,,60fcd84b3e8a213628c9a160,610369a172fda66032ff7c73,2021-07-29_19h55.43.287,Simcolourproject_2stim_asymm_v5,2020.2.10,MacIntel,60,61025ae37ef11b136ea224fe,,,,,,,,,3172,76.1640625,37.16796875,1,0,0,response1disk,,6,18.265625,4.24609375,1,0,0,rectangle,18.265625,4.24609375,1,0,0,18.265625,4.24609375,1,0,0,1,47,207,78,1,,,,,,,,
,,,,,,,,,,,,,FF,,,,,,,,1.3647,,,,,,,,,,,,,,,,,,,,,,60fcd84b3e8a213628c9a160,610369a172fda66032ff7c73,2021-07-29_19h55.43.287,Simcolourproject_2stim_asymm_v5,2020.2.10,MacIntel,60,61025ae37ef11b136ea224fe,,,,,,,,,1064,77.55078125,30.4609375,1,0,0,response1disk,,6,15.8984375,5.609375,1,0,0,rectangle,15.8984375,5.609375,1,0,0,15.8984375,5.609375,1,0,0,1,48,208,140,1,,,,,,,,
,,,,,,,,,,,,,FF,,,,,,,,0.6496,,,,,,,,,,,,,,,,,,,,,,60fcd84b3e8a213628c9a160,610369a172fda66032ff7c73,2021-07-29_19h55.43.287,Simcolourproject_2stim_asymm_v5,2020.2.10,MacIntel,60,61025ae37ef11b136ea224fe,,,,,,,,,3459,43.796875,91.6015625,1,0,0,response1disk,,7,8.1015625,8.08203125,1,0,0,rectangle,8.1015625,8.08203125,1,0,0,8.1015625,8.08203125,1,0,0,1,49,209,82,1,,,,,,,,
,,,,,,,,,,,,,FF,,,,,,,,0.7335,,,,,,,,,,,,,,,,,,,,,,60fcd84b3e8a213628c9a160,610369a172fda66032ff7c73,2021-07-29_19h55.43.287,Simcolourproject_2stim_asymm_v5,2020.2.10,MacIntel,60,61025ae37ef11b136ea224fe,,,,,,,,,3020,106.0820313,42.41796875,1,0,0,response1disk,,6,-5.3515625,1.62109375,1,0,0,rectangle,-5.3515625,1.62109375,1,0,0,-5.3515625,1.62109375,1,0,0,1,50,210,146,1,,,,,,,,
,,,,,,,,,,,,,FF,,,,,,,,0.617,,,,,,,,,,,,,,,,,,,,,,60fcd84b3e8a213628c9a160,610369a172fda66032ff7c73,2021-07-29_19h55.43.287,Simcolourproject_2stim_asymm_v5,2020.2.10,MacIntel,60,61025ae37ef11b136ea224fe,,,,,,,,,707,40.10546875,81.5625,1,0,0,response1disk,,7,13.3046875,13.98046875,1,0,0,rectangle,13.3046875,13.98046875,1,0,0,13.3046875,13.98046875,1,0,0,1,51,211,135,1,,,,,,,,
,,,,,,,,,,,,,FF,,,,,,,,0.9508,,,,,,,,,,,,,,,,,,,,,,60fcd84b3e8a213628c9a160,610369a172fda66032ff7c73,2021-07-29_19h55.43.287,Simcolourproject_2stim_asymm_v5,2020.2.10,MacIntel,60,61025ae37ef11b136ea224fe,,,,,,,,,3748,75.953125,-39.71875,1,0,0,response3disk,,5,0.546875,1.1171875,1,0,0,rectangle,0.546875,1.1171875,1,0,0,0.546875,1.1171875,1,0,0,1,52,212,117,1,,,,,,,,
,,,,,,,,,,,,,FF,,,,,,,,0.7488,,,,,,,,,,,,,,,,,,,,,,60fcd84b3e8a213628c9a160,610369a172fda66032ff7c73,2021-07-29_19h55.43.287,Simcolourproject_2stim_asymm_v5,2020.2.10,MacIntel,60,61025ae37ef11b136ea224fe,,,,,,,,,2607,37.68359375,-66.3046875,1,0,0,response3disk,,4,2.57421875,-8.97265625,1,0,0,rectangle,2.57421875,-8.97265625,1,0,0,2.57421875,-8.97265625,1,0,0,1,53,213,144,1,,,,,,,,
,,,,,,,,,,,,,FF,,,,,,,,0.8837,,,,,,,,,,,,,,,,,,,,,,60fcd84b3e8a213628c9a160,610369a172fda66032ff7c73,2021-07-29_19h55.43.287,Simcolourproject_2stim_asymm_v5,2020.2.10,MacIntel,60,61025ae37ef11b136ea224fe,,,,,,,,,2903,72.86328125,-35.7109375,1,0,0,response3disk,,5,4.97265625,-5.875,1,0,0,rectangle,4.97265625,-5.875,1,0,0,4.97265625,-5.875,1,0,0,1,54,214,138,1,,,,,,,,
,,,,,,,,,,,,,FF,,,,,,,,1.0341,,,,,,,,,,,,,,,,,,,,,,60fcd84b3e8a213628c9a160,610369a172fda66032ff7c73,2021-07-29_19h55.43.287,Simcolourproject_2stim_asymm_v5,2020.2.10,MacIntel,60,61025ae37ef11b136ea224fe,,,,,,,,,4176,76.62890625,58.99609375,1,0,0,response1disk,,6,17.99609375,10.27734375,1,0,0,rectangle,17.99609375,10.27734375,1,0,0,17.99609375,10.27734375,1,0,0,1,55,215,30,1,,,,,,,,
,,,,,,,,,,,,,FF,,,,,,,,2.5322,,,,,,,,,,,,,,,,,,,,,,60fcd84b3e8a213628c9a160,610369a172fda66032ff7c73,2021-07-29_19h55.43.287,Simcolourproject_2stim_asymm_v5,2020.2.10,MacIntel,60,61025ae37ef11b136ea224fe,,,,,,,,,1748,43.19140625,-80.15625,1,0,0,response3disk,,4,-8.66015625,5.80859375,1,0,0,rectangle,-8.66015625,5.80859375,1,0,0,-8.66015625,5.80859375,1,0,0,1,56,216,5,1,,,,,,,,
,,,,,,,,,,,,,FF,,,,,,,,0.6499,,,,,,,,,,,,,,,,,,,,,,60fcd84b3e8a213628c9a160,610369a172fda66032ff7c73,2021-07-29_19h55.43.287,Simcolourproject_2stim_asymm_v5,2020.2.10,MacIntel,60,61025ae37ef11b136ea224fe,,,,,,,,,1820,36.91796875,-69.72265625,1,0,0,response3disk,,4,2.33203125,-4.94921875,1,0,0,rectangle,2.33203125,-4.94921875,1,0,0,2.33203125,-4.94921875,1,0,0,1,57,217,40,1,,,,,,,,
,,,,,,,,,,,,,FF,,,,,,,,1.0672,,,,,,,,,,,,,,,,,,,,,,60fcd84b3e8a213628c9a160,610369a172fda66032ff7c73,2021-07-29_19h55.43.287,Simcolourproject_2stim_asymm_v5,2020.2.10,MacIntel,60,61025ae37ef11b136ea224fe,,,,,,,,,4189,33.97265625,-76.234375,1,0,0,response3disk,,4,-2.30078125,-13.421875,1,0,0,rectangle,-2.30078125,-13.421875,1,0,0,-2.30078125,-13.421875,1,0,0,1,58,218,39,1,,,,,,,,
,,,,,,,,,,,,,FF,,,,,,,,0.6514,,,,,,,,,,,,,,,,,,,,,,60fcd84b3e8a213628c9a160,610369a172fda66032ff7c73,2021-07-29_19h55.43.287,Simcolourproject_2stim_asymm_v5,2020.2.10,MacIntel,60,61025ae37ef11b136ea224fe,,,,,,,,,3015,72.73828125,-27.75390625,1,0,0,response3disk,,5,10.0703125,13.9453125,1,0,0,rectangle,10.0703125,13.9453125,1,0,0,10.0703125,13.9453125,1,0,0,1,59,219,76,1,,,,,,,,
,,,,,,,,,,,,,FF,,,,,,,,0.5855,,,,,,,,,,,,,,,,,,,,,,60fcd84b3e8a213628c9a160,610369a172fda66032ff7c73,2021-07-29_19h55.43.287,Simcolourproject_2stim_asymm_v5,2020.2.10,MacIntel,60,61025ae37ef11b136ea224fe,,,,,,,,,3542,34.8125,80.3671875,1,0,0,response1disk,,7,12.67578125,9.11328125,1,0,0,rectangle,12.67578125,9.11328125,1,0,0,12.67578125,9.11328125,1,0,0,1,60,220,64,1,,,,,,,,
,,,,,,,,,,,,,FF,,,,,,,,2.2852,,,,,,,,,,,,,,,,,,,,,,60fcd84b3e8a213628c9a160,610369a172fda66032ff7c73,2021-07-29_19h55.43.287,Simcolourproject_2stim_asymm_v5,2020.2.10,MacIntel,60,61025ae37ef11b136ea224fe,,,,,,,,,3945,75.01953125,-40.01953125,1,0,0,response3disk,,5,8.4765625,-3.85546875,1,0,0,rectangle,8.4765625,-3.85546875,1,0,0,8.4765625,-3.85546875,1,0,0,1,61,221,6,1,,,,,,,,
,,,,,,,,,,,,,FF,,,,,,,,0.7504,,,,,,,,,,,,,,,,,,,,,,60fcd84b3e8a213628c9a160,610369a172fda66032ff7c73,2021-07-29_19h55.43.287,Simcolourproject_2stim_asymm_v5,2020.2.10,MacIntel,60,61025ae37ef11b136ea224fe,,,,,,,,,3311,66.22265625,-27.78125,1,0,0,response3disk,,5,1.515625,6.41015625,1,0,0,rectangle,1.515625,6.41015625,1,0,0,1.515625,6.41015625,1,0,0,1,62,222,3,1,,,,,,,,
,,,,,,,,,,,,,FF,,,,,,,,2.1173,,,,,,,,,,,,,,,,,,,,,,60fcd84b3e8a213628c9a160,610369a172fda66032ff7c73,2021-07-29_19h55.43.287,Simcolourproject_2stim_asymm_v5,2020.2.10,MacIntel,60,61025ae37ef11b136ea224fe,,,,,,,,,2639,26.74609375,76.890625,1,0,0,response1disk,,7,11.89453125,0.328125,1,0,0,rectangle,11.89453125,0.328125,1,0,0,11.89453125,0.328125,1,0,0,1,63,223,122,1,,,,,,,,
,,,,,,,,,,,,,FF,,,,,,,,1.7992,,,,,,,,,,,,,,,,,,,,,,60fcd84b3e8a213628c9a160,610369a172fda66032ff7c73,2021-07-29_19h55.43.287,Simcolourproject_2stim_asymm_v5,2020.2.10,MacIntel,60,61025ae37ef11b136ea224fe,,,,,,,,,290,85.41015625,-18.46875,1,0,0,response3disk,,5,22.18359375,-1.78515625,1,0,0,rectangle,22.18359375,-1.78515625,1,0,0,22.18359375,-1.78515625,1,0,0,1,64,224,116,1,,,,,,,,
,,,,,,,,,,,,,FF,,,,,,,,3.2334,,,,,,,,,,,,,,,,,,,,,,60fcd84b3e8a213628c9a160,610369a172fda66032ff7c73,2021-07-29_19h55.43.287,Simcolourproject_2stim_asymm_v5,2020.2.10,MacIntel,60,61025ae37ef11b136ea224fe,,,,,,,,,3631,81.703125,-47.3828125,1,0,0,response3disk,,5,13.828125,6.38671875,1,0,0,rectangle,13.828125,6.38671875,1,0,0,13.828125,6.38671875,1,0,0,1,65,225,61,1,,,,,,,,
,,,,,,,,,,,,,FF,,,,,,,,2.0518,,,,,,,,,,,,,,,,,,,,,,60fcd84b3e8a213628c9a160,610369a172fda66032ff7c73,2021-07-29_19h55.43.287,Simcolourproject_2stim_asymm_v5,2020.2.10,MacIntel,60,61025ae37ef11b136ea224fe,,,,,,,,,1179,73.02734375,37.56640625,1,0,0,response1disk,,6,14.75390625,-3.33984375,1,0,0,rectangle,14.75390625,-3.33984375,1,0,0,14.75390625,-3.33984375,1,0,0,1,66,226,149,1,,,,,,,,
,,,,,,,,,,,,,FF,,,,,,,,2.7591,,,,,,,,,,,,,,,,,,,,,,60fcd84b3e8a213628c9a160,610369a172fda66032ff7c73,2021-07-29_19h55.43.287,Simcolourproject_2stim_asymm_v5,2020.2.10,MacIntel,60,61025ae37ef11b136ea224fe,,,,,,,,,1291,-39.06640625,-84.91015625,1,0,0,response5disk,,3,1.4609375,13.33203125,1,0,0,rectangle,1.4609375,13.33203125,1,0,0,1.4609375,13.33203125,1,0,0,1,67,227,9,1,,,,,,,,
,,,,,,,,,,,,,FF,,,,,,,,1.6344,,,,,,,,,,,,,,,,,,,,,,60fcd84b3e8a213628c9a160,610369a172fda66032ff7c73,2021-07-29_19h55.43.287,Simcolourproject_2stim_asymm_v5,2020.2.10,MacIntel,60,61025ae37ef11b136ea224fe,,,,,,,,,3725,74.51171875,43.02734375,1,0,0,response1disk,,6,8.33984375,6.13671875,1,0,0,rectangle,8.33984375,6.13671875,1,0,0,8.33984375,6.13671875,1,0,0,1,68,228,139,1,,,,,,,,
,,,,,,,,,,,,,FF,,,,,,,,1.7662,,,,,,,,,,,,,,,,,,,,,,60fcd84b3e8a213628c9a160,610369a172fda66032ff7c73,2021-07-29_19h55.43.287,Simcolourproject_2stim_asymm_v5,2020.2.10,MacIntel,60,61025ae37ef11b136ea224fe,,,,,,,,,472,77.70703125,40.3984375,1,0,0,response1disk,,6,3.140625,-0.453125,1,0,0,rectangle,-85.08203125,-35.48828125,1,0,0,-1.0625,-3.6796875,1,0,0,1,69,229,112,1,,response5disk_3,TRUE,2,2,"[248,108,276,88,323,179,146,87,175,81,17,315,230,234,118,48,279,265,50,232]",1.75,rectangle
,,,,,,,,,,,,,FF,,,,,,,,1.8001,,,,,,,,,,,,,,,,,,,,,,60fcd84b3e8a213628c9a160,610369a172fda66032ff7c73,2021-07-29_19h55.43.287,Simcolourproject_2stim_asymm_v5,2020.2.10,MacIntel,60,61025ae37ef11b136ea224fe,,,,,,,,,435,33.14453125,-68.23046875,1,0,0,response3disk,,4,-1.2578125,7.2578125,1,0,0,rectangle,-1.2578125,7.2578125,1,0,0,-1.2578125,7.2578125,1,0,0,1,70,230,8,1,,,,,,,,
,,,,,,,,,,,,,FF,,,,,,,,2.4343,,,,,,,,,,,,,,,,,,,,,,60fcd84b3e8a213628c9a160,610369a172fda66032ff7c73,2021-07-29_19h55.43.287,Simcolourproject_2stim_asymm_v5,2020.2.10,MacIntel,60,61025ae37ef11b136ea224fe,,,,,,,,,3763,73.32421875,45.1484375,1,0,0,response1disk,,6,-4.125,-4.08984375,1,0,0,rectangle,94.875,56.2421875,1,0,0,16.76953125,12.2734375,1,0,0,1,71,231,27,1,,response1disk_3,TRUE,6,6,"[248,108,276,88,323,179,146,87,175,81,17,315,230,234,118,48,279,265,50,232]",1.7498,rectangle
,,,,,,,,,,,,,FF,,,,,,,,1.9188,,,,,,,,,,,,,,,,,,,,,,60fcd84b3e8a213628c9a160,610369a172fda66032ff7c73,2021-07-29_19h55.43.287,Simcolourproject_2stim_asymm_v5,2020.2.10,MacIntel,60,61025ae37ef11b136ea224fe,,,,,,,,,880,96.24609375,39.7890625,1,0,0,response1disk,,6,17.04296875,-4.15625,1,0,0,rectangle,17.04296875,-4.15625,1,0,0,17.04296875,-4.15625,1,0,0,1,72,232,96,1,,,,,,,,
,,,,,,,,,,,,,FF,,,,,,,,0.8169,,,,,,,,,,,,,,,,,,,,,,60fcd84b3e8a213628c9a160,610369a172fda66032ff7c73,2021-07-29_19h55.43.287,Simcolourproject_2stim_asymm_v5,2020.2.10,MacIntel,60,61025ae37ef11b136ea224fe,,,,,,,,,3189,74.140625,-39.48828125,1,0,0,response3disk,,5,-17.703125,5.2265625,1,0,0,rectangle,49.30859375,-77.98046875,1,0,0,8.640625,-6.07421875,1,0,0,1,73,233,13,1,,response3disk_3,TRUE,4,4,"[248,108,276,88,323,179,146,87,175,81,17,315,230,234,118,48,279,265,50,232]",1.4182,rectangle
,,,,,,,,,,,,,FF,,,,,,,,1.7004,,,,,,,,,,,,,,,,,,,,,,60fcd84b3e8a213628c9a160,610369a172fda66032ff7c73,2021-07-29_19h55.43.287,Simcolourproject_2stim_asymm_v5,2020.2.10,MacIntel,60,61025ae37ef11b136ea224fe,,,,,,,,,3932,78.48828125,-32.08984375,1,0,0,response3disk,,5,1.53125,6.14453125,1,0,0,rectangle,1.53125,6.14453125,1,0,0,1.53125,6.14453125,1,0,0,1,74,234,42,1,,,,,,,,
,,,,,,,,,,,,,FF,,,,,,,,1.6328,,,,,,,,,,,,,,,,,,,,,,60fcd84b3e8a213628c9a160,610369a172fda66032ff7c73,2021-07-29_19h55.43.287,Simcolourproject_2stim_asymm_v5,2020.2.10,MacIntel,60,61025ae37ef11b136ea224fe,,,,,,,,,3618,85.36328125,44.953125,1,0,0,response1disk,,6,7.60546875,2.5703125,1,0,0,rectangle,7.60546875,2.5703125,1,0,0,7.60546875,2.5703125,1,0,0,1,75,235,66,1,,,,,,,,
,,,,,,,,,,,,,FF,,,,,,,,0.8678,,,,,,,,,,,,,,,,,,,,,,60fcd84b3e8a213628c9a160,610369a172fda66032ff7c73,2021-07-29_19h55.43.287,Simcolourproject_2stim_asymm_v5,2020.2.10,MacIntel,60,61025ae37ef11b136ea224fe,,,,,,,,,3405,93.19140625,43.16796875,1,0,0,response1disk,,6,8.453125,15.37109375,1,0,0,rectangle,8.453125,15.37109375,1,0,0,8.453125,15.37109375,1,0,0,1,76,236,159,1,,,,,,,,
,,,,,,,,,,,,,FF,,,,,,,,1.0011,,,,,,,,,,,,,,,,,,,,,,60fcd84b3e8a213628c9a160,610369a172fda66032ff7c73,2021-07-29_19h55.43.287,Simcolourproject_2stim_asymm_v5,2020.2.10,MacIntel,60,61025ae37ef11b136ea224fe,,,,,,,,,1022,40.8046875,78.26953125,1,0,0,response1disk,,7,2.05859375,4.8359375,1,0,0,rectangle,2.05859375,4.8359375,1,0,0,2.05859375,4.8359375,1,0,0,1,77,237,55,1,,,,,,,,
,,,,,,,,,,,,,FF,,,,,,,,0.7006,,,,,,,,,,,,,,,,,,,,,,60fcd84b3e8a213628c9a160,610369a172fda66032ff7c73,2021-07-29_19h55.43.287,Simcolourproject_2stim_asymm_v5,2020.2.10,MacIntel,60,61025ae37ef11b136ea224fe,,,,,,,,,4316,-31.45703125,70.375,1,0,0,response7disk,,0,-5.5,0.64453125,1,0,0,rectangle,-5.5,0.64453125,1,0,0,-5.5,0.64453125,1,0,0,1,78,238,126,1,,,,,,,,
,,,,,,,,,,,,,FF,,,,,,,,1.8503,,,,,,,,,,,,,,,,,,,,,,60fcd84b3e8a213628c9a160,610369a172fda66032ff7c73,2021-07-29_19h55.43.287,Simcolourproject_2stim_asymm_v5,2020.2.10,MacIntel,60,61025ae37ef11b136ea224fe,,,,,,,,,431,-61.07421875,-80.6484375,1,0,0,response5disk,,3,0.28515625,13.28125,1,0,0,rectangle,0.28515625,13.28125,1,0,0,0.28515625,13.28125,1,0,0,1,79,239,24,1,,,,,,,,
,,,,,,,,,,,,,FF,,,,,,,,1.1,,,,,,,,,,,,,,,,,,,,,,60fcd84b3e8a213628c9a160,610369a172fda66032ff7c73,2021-07-29_19h55.43.287,Simcolourproject_2stim_asymm_v5,2020.2.10,MacIntel,60,61025ae37ef11b136ea224fe,,,,,,,,,2435,42.69921875,-77.84375,1,0,0,response3disk,,4,-1.67578125,-1.45703125,1,0,0,rectangle,-1.67578125,-1.45703125,1,0,0,-1.67578125,-1.45703125,1,0,0,1,80,240,130,1,,,,,,,,
,,,,,,,,,,,,,FF,,,,,,,,0.7013,,,,,,,,,,,,,,,,,,,,,,60fcd84b3e8a213628c9a160,610369a172fda66032ff7c73,2021-07-29_19h55.43.287,Simcolourproject_2stim_asymm_v5,2020.2.10,MacIntel,60,61025ae37ef11b136ea224fe,,,,,,,,,2879,69.6015625,-33.984375,1,0,0,response3disk,,5,8.51171875,-2.21484375,1,0,0,rectangle,8.51171875,-2.21484375,1,0,0,8.51171875,-2.21484375,1,0,0,1,81,241,95,1,,,,,,,,
,,,,,,,,,,,,,FF,,,,,,,,1.9026,,,,,,,,,,,,,,,,,,,,,,60fcd84b3e8a213628c9a160,610369a172fda66032ff7c73,2021-07-29_19h55.43.287,Simcolourproject_2stim_asymm_v5,2020.2.10,MacIntel,60,61025ae37ef11b136ea224fe,,,,,,,,,603,33.32421875,68.96875,1,0,0,response1disk,,7,6.78125,2.33203125,1,0,0,rectangle,6.78125,2.33203125,1,0,0,6.78125,2.33203125,1,0,0,1,82,242,114,1,,,,,,,,
,,,,,,,,,,,,,FF,,,,,,,,1.5184,,,,,,,,,,,,,,,,,,,,,,60fcd84b3e8a213628c9a160,610369a172fda66032ff7c73,2021-07-29_19h55.43.287,Simcolourproject_2stim_asymm_v5,2020.2.10,MacIntel,60,61025ae37ef11b136ea224fe,,,,,,,,,1908,84.51171875,44.21484375,1,0,0,response1disk,,6,12.87109375,4.6953125,1,0,0,rectangle,12.87109375,4.6953125,1,0,0,12.87109375,4.6953125,1,0,0,1,83,243,107,1,,,,,,,,
,,,,,,,,,,,,,FF,,,,,,,,1.3167,,,,,,,,,,,,,,,,,,,,,,60fcd84b3e8a213628c9a160,610369a172fda66032ff7c73,2021-07-29_19h55.43.287,Simcolourproject_2stim_asymm_v5,2020.2.10,MacIntel,60,61025ae37ef11b136ea224fe,,,,,,,,,1644,31.0234375,84.828125,1,0,0,response1disk,,7,20.3203125,3.3203125,1,0,0,rectangle,20.3203125,3.3203125,1,0,0,20.3203125,3.3203125,1,0,0,1,84,244,105,1,,,,,,,,
,,,,,,,,,,,,,FF,,,,,,,,1.1006,,,,,,,,,,,,,,,,,,,,,,60fcd84b3e8a213628c9a160,610369a172fda66032ff7c73,2021-07-29_19h55.43.287,Simcolourproject_2stim_asymm_v5,2020.2.10,MacIntel,60,61025ae37ef11b136ea224fe,,,,,,,,,1146,44.62890625,89.3125,1,0,0,response1disk,,7,9.3359375,1.03125,1,0,0,rectangle,9.3359375,1.03125,1,0,0,9.3359375,1.03125,1,0,0,1,85,245,73,1,,,,,,,,
,,,,,,,,,,,,,FF,,,,,,,,1.7323,,,,,,,,,,,,,,,,,,,,,,60fcd84b3e8a213628c9a160,610369a172fda66032ff7c73,2021-07-29_19h55.43.287,Simcolourproject_2stim_asymm_v5,2020.2.10,MacIntel,60,61025ae37ef11b136ea224fe,,,,,,,,,1274,69.7734375,51.64453125,1,0,0,response1disk,,6,9.9296875,-8.875,1,0,0,rectangle,9.9296875,-8.875,1,0,0,9.9296875,-8.875,1,0,0,1,86,246,115,1,,,,,,,,
,,,,,,,,,,,,,FF,,,,,,,,0.9841,,,,,,,,,,,,,,,,,,,,,,60fcd84b3e8a213628c9a160,610369a172fda66032ff7c73,2021-07-29_19h55.43.287,Simcolourproject_2stim_asymm_v5,2020.2.10,MacIntel,60,61025ae37ef11b136ea224fe,,,,,,,,,1917,91.6796875,37.6484375,1,0,0,response1disk,,6,22.76171875,6.13671875,1,0,0,rectangle,24.62109375,75.84765625,1,0,0,0.16796875,3.94140625,1,0,0,1,87,247,11,1,,response1disk_3,TRUE,7,7,"[248,108,276,88,323,179,146,87,175,81,17,315,230,234,118,48,279,265,50,232]",1.6173,rectangle
,,,,,,,,,,,,,FF,,,,,,,,2.3004,,,,,,,,,,,,,,,,,,,,,,60fcd84b3e8a213628c9a160,610369a172fda66032ff7c73,2021-07-29_19h55.43.287,Simcolourproject_2stim_asymm_v5,2020.2.10,MacIntel,60,61025ae37ef11b136ea224fe,,,,,,,,,3207,85.8984375,27.0703125,1,0,0,response1disk,,6,20.3125,1.25390625,1,0,0,rectangle,20.3125,1.25390625,1,0,0,20.3125,1.25390625,1,0,0,1,88,248,45,1,,,,,,,,
,,,,,,,,,,,,,FF,,,,,,,,0.8853,,,,,,,,,,,,,,,,,,,,,,60fcd84b3e8a213628c9a160,610369a172fda66032ff7c73,2021-07-29_19h55.43.287,Simcolourproject_2stim_asymm_v5,2020.2.10,MacIntel,60,61025ae37ef11b136ea224fe,,,,,,,,,4190,95.16796875,-28.890625,1,0,0,response3disk,,5,8.16796875,-2.34765625,1,0,0,rectangle,8.16796875,-2.34765625,1,0,0,8.16796875,-2.34765625,1,0,0,1,89,249,91,1,,,,,,,,
