key_resp.keys,key_resp.rt,key_resp_14.keys,key_resp_14.rt,key_resp_15.keys,key_resp_15.rt,key_resp_17.keys,key_resp_17.rt,key_resp_9.keys,key_resp_9.rt,key_resp_10.keys,key_resp_10.rt,practice_comparison,Ecc,mouse_5.x,mouse_5.y,mouse_5.leftButton,mouse_5.midButton,mouse_5.rightButton,mouse_5.clicked_name,pracsimilarity,response_time,mouse_10.x,mouse_10.y,mouse_10.leftButton,mouse_10.midButton,mouse_10.rightButton,mouse_10.clicked_name,mouse_7.x,mouse_7.y,mouse_7.leftButton,mouse_7.midButton,mouse_7.rightButton,mouse_6.x,mouse_6.y,mouse_6.leftButton,mouse_6.midButton,mouse_6.rightButton,duringprac.thisRepN,duringprac.thisTrialN,duringprac.thisN,duringprac.thisIndex,duringprac.ran,participant,session,date,expName,psychopyVersion,OS,frameRate,study_id,mouse_7.clicked_name,catchpracsimilarity,catch_response_time,catchnumberprac,catchtrialorderprac,mouse_6.clicked_name,key_resp_22.keys,key_resp_22.rt,realcomparison,mouse.x,mouse.y,mouse.leftButton,mouse.midButton,mouse.rightButton,mouse.clicked_name,Colour2,similarity,mouse_2.x,mouse_2.y,mouse_2.leftButton,mouse_2.midButton,mouse_2.rightButton,mouse_2.clicked_name,mouse_3.x,mouse_3.y,mouse_3.leftButton,mouse_3.midButton,mouse_3.rightButton,mouse_11.x,mouse_11.y,mouse_11.leftButton,mouse_11.midButton,mouse_11.rightButton,trials_2.thisRepN,trials_2.thisTrialN,trials_2.thisN,trials_2.thisIndex,trials_2.ran,Colour1,mouse_3.clicked_name,catchornah,catchsimilarity,catchnumber,catchtrialorder,catchRT,mouse_11.clicked_name
space,1.3693,space,17.2651,space,29.0944,space,9.5538,space,3.9337,space,2.6771,117,FF,-49.05554956,-50.22222617,1,0,0,response5disk_5,3,5.8531,-9.055549264,-3.57628E-06,1,0,0,rectangle_8,-9.055549264,-3.57628E-06,1,0,0,-9.055549264,-3.57628E-06,1,0,0,0,0,0,5,1,60fccb788ad29d26b970f1a5,61037786a170c2c33d55abf6,2021-07-29_22h56.45.964,Simcolourproject_2stim_asymm_v5,2020.2.10,Win32,60,61025ae37ef11b136ea224fe,,,,,,,,,,,,,,,,,,,,,,,,,,,,,,,,,,,,,,,,,,,,,,
,,,,,,,,,,,,132,PF,44.72222891,-67.55555964,1,0,0,response3disk_5,4,3.1351,-9.055549264,-8.000003636,1,0,0,rectangle_8,-89.05554986,37.33333004,1,0,0,9.611171795,0.888885319,1,0,0,0,1,1,2,1,60fccb788ad29d26b970f1a5,61037786a170c2c33d55abf6,2021-07-29_22h56.45.964,Simcolourproject_2stim_asymm_v5,2020.2.10,Win32,60,61025ae37ef11b136ea224fe,response7disk_7,1,3.2349,1,"[2,5]",rectangle_4,,,,,,,,,,,,,,,,,,,,,,,,,,,,,,,,,,,,,,,,
,,,,,,,,,,,,16,PF,83.38889587,-38.22222608,1,0,0,response3disk_5,5,2.1006,-5.499993682,-0.444448024,1,0,0,rectangle_8,-5.499993682,-0.444448024,1,0,0,-5.499993682,-0.444448024,1,0,0,0,2,2,4,1,60fccb788ad29d26b970f1a5,61037786a170c2c33d55abf6,2021-07-29_22h56.45.964,Simcolourproject_2stim_asymm_v5,2020.2.10,Win32,60,61025ae37ef11b136ea224fe,,,,,,,,,,,,,,,,,,,,,,,,,,,,,,,,,,,,,,,,,,,,,,
,,,,,,,,,,,,5,PF,45.61117206,89.33333042,1,0,0,response1disk_5,7,7.3374,-8.166660368,3.111107558,1,0,0,rectangle_8,-8.166660368,3.111107558,1,0,0,-8.166660368,3.111107558,1,0,0,0,3,3,1,1,60fccb788ad29d26b970f1a5,61037786a170c2c33d55abf6,2021-07-29_22h56.45.964,Simcolourproject_2stim_asymm_v5,2020.2.10,Win32,60,61025ae37ef11b136ea224fe,,,,,,,,,,,,,,,,,,,,,,,,,,,,,,,,,,,,,,,,,,,,,,
,,,,,,,,,,,,82,FF,-87.27777207,-40.00000387,1,0,0,response5disk_5,2,7.8866,-5.94443813,-5.333336949,1,0,0,rectangle_8,-113.9444389,41.33333007,1,0,0,4.722228616,-3.111114711,1,0,0,0,4,4,3,1,60fccb788ad29d26b970f1a5,61037786a170c2c33d55abf6,2021-07-29_22h56.45.964,Simcolourproject_2stim_asymm_v5,2020.2.10,Win32,60,61025ae37ef11b136ea224fe,response7disk_7,1,3.0007,1,"[2,5]",rectangle_4,,,,,,,,,,,,,,,,,,,,,,,,,,,,,,,,,,,,,,,,
,,,,,,,,,,,,16,PF,-58.83332741,-78.66667083,1,0,0,response5disk_5,3,5.0182,-1.055549204,2.222218663,1,0,0,rectangle_8,-1.055549204,2.222218663,1,0,0,-1.055549204,2.222218663,1,0,0,0,5,5,6,1,60fccb788ad29d26b970f1a5,61037786a170c2c33d55abf6,2021-07-29_22h56.45.964,Simcolourproject_2stim_asymm_v5,2020.2.10,Win32,60,61025ae37ef11b136ea224fe,,,,,,,,,,,,,,,,,,,,,,,,,,,,,,,,,,,,,,,,,,,,,,
,,,,,,,,,,,,53,FF,-34.38882853,-88.00000423,1,0,0,response5disk_5,3,2.7491,-0.611104757,-0.888892472,1,0,0,rectangle_8,-0.611104757,-0.888892472,1,0,0,-0.611104757,-0.888892472,1,0,0,0,6,6,0,1,60fccb788ad29d26b970f1a5,61037786a170c2c33d55abf6,2021-07-29_22h56.45.964,Simcolourproject_2stim_asymm_v5,2020.2.10,Win32,60,61025ae37ef11b136ea224fe,,,,,,,,,,,,,,,,,,,,,,,,,,,,,,,,,,,,,,,,,,,,,,
,,,,,,,,,,,,,FF,,,,,,,,4.7037,,,,,,,,,,,,,,,,,,,,,,60fccb788ad29d26b970f1a5,61037786a170c2c33d55abf6,2021-07-29_22h56.45.964,Simcolourproject_2stim_asymm_v5,2020.2.10,Win32,60,61025ae37ef11b136ea224fe,,,,,,,space,2.4527,215,-28.61110497,-84.8888931,1,0,0,response5disk,,3,-13.49999374,7.555552036,1,0,0,rectangle,-13.49999374,7.555552036,1,0,0,-13.49999374,7.555552036,1,0,0,0,0,0,41,1,,,,,,,,
,,,,,,,,,,,,,FF,,,,,,,,7.4699,,,,,,,,,,,,,,,,,,,,,,60fccb788ad29d26b970f1a5,61037786a170c2c33d55abf6,2021-07-29_22h56.45.964,Simcolourproject_2stim_asymm_v5,2020.2.10,Win32,60,61025ae37ef11b136ea224fe,,,,,,,,,539,19.38889539,-76.88889304,1,0,0,response3disk,,4,-7.277771473,-2.222225815,1,0,0,rectangle,-7.277771473,-2.222225815,1,0,0,-7.277771473,-2.222225815,1,0,0,0,1,1,140,1,,,,,,,,
,,,,,,,,,,,,,FF,,,,,,,,2.8675,,,,,,,,,,,,,,,,,,,,,,60fccb788ad29d26b970f1a5,61037786a170c2c33d55abf6,2021-07-29_22h56.45.964,Simcolourproject_2stim_asymm_v5,2020.2.10,Win32,60,61025ae37ef11b136ea224fe,,,,,,,,,4312,73.61111802,39.55555227,1,0,0,response1disk,,6,9.611171795,-4.000003606,1,0,0,rectangle,9.611171795,-4.000003606,1,0,0,9.611171795,-4.000003606,1,0,0,0,2,2,83,1,,,,,,,,
,,,,,,,,,,,,,FF,,,,,,,,1.3665,,,,,,,,,,,,,,,,,,,,,,60fccb788ad29d26b970f1a5,61037786a170c2c33d55abf6,2021-07-29_22h56.45.964,Simcolourproject_2stim_asymm_v5,2020.2.10,Win32,60,61025ae37ef11b136ea224fe,,,,,,,,,3911,-93.05554989,42.22221896,1,0,0,response7disk,,1,8.277784199,4.444440901,1,0,0,rectangle,8.277784199,4.444440901,1,0,0,8.277784199,4.444440901,1,0,0,0,3,3,85,1,,,,,,,,
,,,,,,,,,,,,,FF,,,,,,,,3.9177,,,,,,,,,,,,,,,,,,,,,,60fccb788ad29d26b970f1a5,61037786a170c2c33d55abf6,2021-07-29_22h56.45.964,Simcolourproject_2stim_asymm_v5,2020.2.10,Win32,60,61025ae37ef11b136ea224fe,,,,,,,,,4286,42.50000668,-75.1111695,1,0,0,response3disk,,4,10.50000644,-11.11111477,1,0,0,rectangle,-44.61110508,-75.55555969,1,0,0,0.277784139,-2.666670263,1,0,0,0,4,4,93,1,,response5disk_3,TRUE,3,3,"[299,200,91,292,66,79,283,322,172,70,5,218,35,139,301,71,323,154,303,41]",2.0338,rectangle
,,,,,,,,,,,,,FF,,,,,,,,2.9182,,,,,,,,,,,,,,,,,,,,,,60fccb788ad29d26b970f1a5,61037786a170c2c33d55abf6,2021-07-29_22h56.45.964,Simcolourproject_2stim_asymm_v5,2020.2.10,Win32,60,61025ae37ef11b136ea224fe,,,,,,,,,753,53.61117212,34.66666335,1,0,0,response1disk,,6,-10.38882835,9.333329827,1,0,0,rectangle,-10.38882835,9.333329827,1,0,0,-10.38882835,9.333329827,1,0,0,0,5,5,45,1,,,,,,,,
,,,,,,,,,,,,,FF,,,,,,,,4.519,,,,,,,,,,,,,,,,,,,,,,60fccb788ad29d26b970f1a5,61037786a170c2c33d55abf6,2021-07-29_22h56.45.964,Simcolourproject_2stim_asymm_v5,2020.2.10,Win32,60,61025ae37ef11b136ea224fe,,,,,,,,,493,69.16667354,43.5555523,1,0,0,response1disk,,6,10.05556199,7.555552036,1,0,0,rectangle,10.05556199,7.555552036,1,0,0,10.05556199,7.555552036,1,0,0,0,6,6,47,1,,,,,,,,
,,,,,,,,,,,,,FF,,,,,,,,2.3014,,,,,,,,,,,,,,,,,,,,,,60fccb788ad29d26b970f1a5,61037786a170c2c33d55abf6,2021-07-29_22h56.45.964,Simcolourproject_2stim_asymm_v5,2020.2.10,Win32,60,61025ae37ef11b136ea224fe,,,,,,,,,224,53.16667342,-86.22222644,1,0,0,response3disk,,4,0.277784139,2.66666311,1,0,0,rectangle,0.277784139,2.66666311,1,0,0,0.277784139,2.66666311,1,0,0,0,7,7,125,1,,,,,,,,
,,,,,,,,,,,,,FF,,,,,,,,2.5181,,,,,,,,,,,,,,,,,,,,,,60fccb788ad29d26b970f1a5,61037786a170c2c33d55abf6,2021-07-29_22h56.45.964,Simcolourproject_2stim_asymm_v5,2020.2.10,Win32,60,61025ae37ef11b136ea224fe,,,,,,,,,2996,-96.61110547,63.11110801,1,0,0,response7disk,,1,-4.166660339,-1.33333692,1,0,0,rectangle,-4.166660339,-1.33333692,1,0,0,-4.166660339,-1.33333692,1,0,0,0,8,8,26,1,,,,,,,,
,,,,,,,,,,,,,FF,,,,,,,,1.2333,,,,,,,,,,,,,,,,,,,,,,60fccb788ad29d26b970f1a5,61037786a170c2c33d55abf6,2021-07-29_22h56.45.964,Simcolourproject_2stim_asymm_v5,2020.2.10,Win32,60,61025ae37ef11b136ea224fe,,,,,,,,,1899,-89.94443876,40.88888562,1,0,0,response7disk,,1,-8.611104816,-4.000003606,1,0,0,rectangle,-8.611104816,-4.000003606,1,0,0,-8.611104816,-4.000003606,1,0,0,0,9,9,153,1,,,,,,,,
,,,,,,,,,,,,,FF,,,,,,,,0.8333,,,,,,,,,,,,,,,,,,,,,,60fccb788ad29d26b970f1a5,61037786a170c2c33d55abf6,2021-07-29_22h56.45.964,Simcolourproject_2stim_asymm_v5,2020.2.10,Win32,60,61025ae37ef11b136ea224fe,,,,,,,,,2296,-89.94443876,43.11110786,1,0,0,response7disk,,1,-4.166660339,-0.444448024,1,0,0,rectangle,-4.166660339,-0.444448024,1,0,0,-4.166660339,-0.444448024,1,0,0,0,10,10,76,1,,,,,,,,
,,,,,,,,,,,,,FF,,,,,,,,1.3668,,,,,,,,,,,,,,,,,,,,,,60fccb788ad29d26b970f1a5,61037786a170c2c33d55abf6,2021-07-29_22h56.45.964,Simcolourproject_2stim_asymm_v5,2020.2.10,Win32,60,61025ae37ef11b136ea224fe,,,,,,,,,3748,-105.9444389,-55.11116935,1,0,0,response5disk,,2,-28.61110497,-7.555559188,1,0,0,rectangle,-28.61110497,-7.555559188,1,0,0,-28.61110497,-7.555559188,1,0,0,0,11,11,27,1,,,,,,,,
,,,,,,,,,,,,,FF,,,,,,,,1.8176,,,,,,,,,,,,,,,,,,,,,,60fccb788ad29d26b970f1a5,61037786a170c2c33d55abf6,2021-07-29_22h56.45.964,Simcolourproject_2stim_asymm_v5,2020.2.10,Win32,60,61025ae37ef11b136ea224fe,,,,,,,,,864,45.16667336,-66.22222629,1,0,0,response3disk,,4,-13.05554929,-1.33333692,1,0,0,rectangle,-13.05554929,-1.33333692,1,0,0,-13.05554929,-1.33333692,1,0,0,0,12,12,144,1,,,,,,,,
,,,,,,,,,,,,,FF,,,,,,,,2.0672,,,,,,,,,,,,,,,,,,,,,,60fccb788ad29d26b970f1a5,61037786a170c2c33d55abf6,2021-07-29_22h56.45.964,Simcolourproject_2stim_asymm_v5,2020.2.10,Win32,60,61025ae37ef11b136ea224fe,,,,,,,,,4289,86.500007,-43.11116926,1,0,0,response3disk,,5,2.500006378,-1.777781367,1,0,0,rectangle,2.500006378,-1.777781367,1,0,0,2.500006378,-1.777781367,1,0,0,0,13,13,115,1,,,,,,,,
,,,,,,,,,,,,,FF,,,,,,,,1.7342,,,,,,,,,,,,,,,,,,,,,,60fccb788ad29d26b970f1a5,61037786a170c2c33d55abf6,2021-07-29_22h56.45.964,Simcolourproject_2stim_asymm_v5,2020.2.10,Win32,60,61025ae37ef11b136ea224fe,,,,,,,,,2592,26.05556211,-106.2222266,1,0,0,response3disk,,4,7.388895303,-18.22222593,1,0,0,rectangle,7.388895303,-18.22222593,1,0,0,7.388895303,-18.22222593,1,0,0,0,14,14,48,1,,,,,,,,
,,,,,,,,,,,,,FF,,,,,,,,0.9497,,,,,,,,,,,,,,,,,,,,,,60fccb788ad29d26b970f1a5,61037786a170c2c33d55abf6,2021-07-29_22h56.45.964,Simcolourproject_2stim_asymm_v5,2020.2.10,Win32,60,61025ae37ef11b136ea224fe,,,,,,,,,2355,-54.38882868,116.8888862,1,0,0,response7disk,,0,-5.055549234,11.11110762,1,0,0,rectangle,-5.055549234,11.11110762,1,0,0,-5.055549234,11.11110762,1,0,0,0,15,15,122,1,,,,,,,,
,,,,,,,,,,,,,FF,,,,,,,,5.2854,,,,,,,,,,,,,,,,,,,,,,60fccb788ad29d26b970f1a5,61037786a170c2c33d55abf6,2021-07-29_22h56.45.964,Simcolourproject_2stim_asymm_v5,2020.2.10,Win32,60,61025ae37ef11b136ea224fe,,,,,,,,,1776,-88.61110541,29.77777442,1,0,0,response7disk,,1,-16.16666043,-7.555559188,1,0,0,rectangle,-16.16666043,-7.555559188,1,0,0,-16.16666043,-7.555559188,1,0,0,0,16,16,43,1,,,,,,,,
,,,,,,,,,,,,,FF,,,,,,,,0.7505,,,,,,,,,,,,,,,,,,,,,,60fccb788ad29d26b970f1a5,61037786a170c2c33d55abf6,2021-07-29_22h56.45.964,Simcolourproject_2stim_asymm_v5,2020.2.10,Win32,60,61025ae37ef11b136ea224fe,,,,,,,,,1218,-87.72221652,41.33333007,1,0,0,response7disk,,1,0.277784139,-5.777781397,1,0,0,rectangle,0.277784139,-5.777781397,1,0,0,0.277784139,-5.777781397,1,0,0,0,17,17,38,1,,,,,,,,
,,,,,,,,,,,,,FF,,,,,,,,2.0159,,,,,,,,,,,,,,,,,,,,,,60fccb788ad29d26b970f1a5,61037786a170c2c33d55abf6,2021-07-29_22h56.45.964,Simcolourproject_2stim_asymm_v5,2020.2.10,Win32,60,61025ae37ef11b136ea224fe,,,,,,,,,1874,70.05556244,-37.77778164,1,0,0,response3disk,,5,-1.9444381,8.444440931,1,0,0,rectangle,-1.9444381,8.444440931,1,0,0,-1.9444381,8.444440931,1,0,0,0,18,18,4,1,,,,,,,,
,,,,,,,,,,,,,FF,,,,,,,,2.1171,,,,,,,,,,,,,,,,,,,,,,60fccb788ad29d26b970f1a5,61037786a170c2c33d55abf6,2021-07-29_22h56.45.964,Simcolourproject_2stim_asymm_v5,2020.2.10,Win32,60,61025ae37ef11b136ea224fe,,,,,,,,,3414,69.61111799,-35.5555594,1,0,0,response3disk,,5,-2.388828294,5.333329797,1,0,0,rectangle,-2.388828294,5.333329797,1,0,0,-2.388828294,5.333329797,1,0,0,0,19,19,94,1,,,,,,,,
,,,,,,,,,,,,,FF,,,,,,,,1.1003,,,,,,,,,,,,,,,,,,,,,,60fccb788ad29d26b970f1a5,61037786a170c2c33d55abf6,2021-07-29_22h56.45.964,Simcolourproject_2stim_asymm_v5,2020.2.10,Win32,60,61025ae37ef11b136ea224fe,,,,,,,,,3940,-53.05554959,-82.22222641,1,0,0,response5disk,,3,-10.83332705,-1.33333692,1,0,0,rectangle,-10.83332705,-1.33333692,1,0,0,-10.83332705,-1.33333692,1,0,0,0,20,20,121,1,,,,,,,,
,,,,,,,,,,,,,FF,,,,,,,,1.5342,,,,,,,,,,,,,,,,,,,,,,60fccb788ad29d26b970f1a5,61037786a170c2c33d55abf6,2021-07-29_22h56.45.964,Simcolourproject_2stim_asymm_v5,2020.2.10,Win32,60,61025ae37ef11b136ea224fe,,,,,,,,,1763,51.38889563,-29.77778158,1,0,0,response3disk,,5,6.05556196,12.44444096,1,0,0,rectangle,6.05556196,12.44444096,1,0,0,6.05556196,12.44444096,1,0,0,0,21,21,34,1,,,,,,,,
,,,,,,,,,,,,,FF,,,,,,,,1.0167,,,,,,,,,,,,,,,,,,,,,,60fccb788ad29d26b970f1a5,61037786a170c2c33d55abf6,2021-07-29_22h56.45.964,Simcolourproject_2stim_asymm_v5,2020.2.10,Win32,60,61025ae37ef11b136ea224fe,,,,,,,,,3947,33.16667327,-88.44444868,1,0,0,response3disk,,4,-1.055549204,-0.444448024,1,0,0,rectangle,-1.055549204,-0.444448024,1,0,0,-1.055549204,-0.444448024,1,0,0,0,22,22,81,1,,,,,,,,
,,,,,,,,,,,,,FF,,,,,,,,2.5508,,,,,,,,,,,,,,,,,,,,,,60fccb788ad29d26b970f1a5,61037786a170c2c33d55abf6,2021-07-29_22h56.45.964,Simcolourproject_2stim_asymm_v5,2020.2.10,Win32,60,61025ae37ef11b136ea224fe,,,,,,,,,2705,31.38889548,66.22221914,1,0,0,response1disk,,7,-8.611104816,-8.000003636,1,0,0,rectangle,-8.611104816,-8.000003636,1,0,0,-8.611104816,-8.000003636,1,0,0,0,23,23,116,1,,,,,,,,
,,,,,,,,,,,,,FF,,,,,,,,1.801,,,,,,,,,,,,,,,,,,,,,,60fccb788ad29d26b970f1a5,61037786a170c2c33d55abf6,2021-07-29_22h56.45.964,Simcolourproject_2stim_asymm_v5,2020.2.10,Win32,60,61025ae37ef11b136ea224fe,,,,,,,,,1180,-29.94443831,-76.44444859,1,0,0,response5disk,,3,0.722228587,-3.57628E-06,1,0,0,rectangle,0.722228587,-3.57628E-06,1,0,0,0.722228587,-3.57628E-06,1,0,0,0,24,24,3,1,,,,,,,,
,,,,,,,,,,,,,FF,,,,,,,,3.4848,,,,,,,,,,,,,,,,,,,,,,60fccb788ad29d26b970f1a5,61037786a170c2c33d55abf6,2021-07-29_22h56.45.964,Simcolourproject_2stim_asymm_v5,2020.2.10,Win32,60,61025ae37ef11b136ea224fe,,,,,,,,,3500,92.72222927,-37.33333719,1,0,0,response3disk,,5,21.61117188,-12.00000367,1,0,0,rectangle,21.61117188,-12.00000367,1,0,0,21.61117188,-12.00000367,1,0,0,0,25,25,139,1,,,,,,,,
,,,,,,,,,,,,,FF,,,,,,,,1.1341,,,,,,,,,,,,,,,,,,,,,,60fccb788ad29d26b970f1a5,61037786a170c2c33d55abf6,2021-07-29_22h56.45.964,Simcolourproject_2stim_asymm_v5,2020.2.10,Win32,60,61025ae37ef11b136ea224fe,,,,,,,,,12,30.05556214,-67.11116944,1,0,0,response3disk,,4,-8.166660368,-10.22222587,1,0,0,rectangle,-8.166660368,-10.22222587,1,0,0,-8.166660368,-10.22222587,1,0,0,0,26,26,56,1,,,,,,,,
,,,,,,,,,,,,,FF,,,,,,,,1.4337,,,,,,,,,,,,,,,,,,,,,,60fccb788ad29d26b970f1a5,61037786a170c2c33d55abf6,2021-07-29_22h56.45.964,Simcolourproject_2stim_asymm_v5,2020.2.10,Win32,60,61025ae37ef11b136ea224fe,,,,,,,,,3520,-46.38882862,-79.11116953,1,0,0,response5disk,,3,-10.83332705,3.555552006,1,0,0,rectangle,-10.83332705,3.555552006,1,0,0,-10.83332705,3.555552006,1,0,0,0,27,27,91,1,,,,,,,,
,,,,,,,,,,,,,FF,,,,,,,,1.9845,,,,,,,,,,,,,,,,,,,,,,60fccb788ad29d26b970f1a5,61037786a170c2c33d55abf6,2021-07-29_22h56.45.964,Simcolourproject_2stim_asymm_v5,2020.2.10,Win32,60,61025ae37ef11b136ea224fe,,,,,,,,,2189,62.05556238,41.77777451,1,0,0,response1disk,,6,7.388895303,-4.444448054,1,0,0,rectangle,7.388895303,-4.444448054,1,0,0,7.388895303,-4.444448054,1,0,0,0,28,28,106,1,,,,,,,,
,,,,,,,,,,,,,FF,,,,,,,,3.5677,,,,,,,,,,,,,,,,,,,,,,60fccb788ad29d26b970f1a5,61037786a170c2c33d55abf6,2021-07-29_22h56.45.964,Simcolourproject_2stim_asymm_v5,2020.2.10,Win32,60,61025ae37ef11b136ea224fe,,,,,,,,,2034,-93.05554989,-34.6666705,1,0,0,response5disk,,2,-5.055549234,11.55555207,1,0,0,rectangle,-5.055549234,11.55555207,1,0,0,-5.055549234,11.55555207,1,0,0,0,29,29,104,1,,,,,,,,
,,,,,,,,,,,,,FF,,,,,,,,1.3665,,,,,,,,,,,,,,,,,,,,,,60fccb788ad29d26b970f1a5,61037786a170c2c33d55abf6,2021-07-29_22h56.45.964,Simcolourproject_2stim_asymm_v5,2020.2.10,Win32,60,61025ae37ef11b136ea224fe,,,,,,,,,2715,-28.61110497,-75.1111695,1,0,0,response5disk,,3,-6.833327025,-2.666670263,1,0,0,rectangle,-6.833327025,-2.666670263,1,0,0,-6.833327025,-2.666670263,1,0,0,0,30,30,31,1,,,,,,,,
,,,,,,,,,,,,,FF,,,,,,,,2.9009,,,,,,,,,,,,,,,,,,,,,,60fccb788ad29d26b970f1a5,61037786a170c2c33d55abf6,2021-07-29_22h56.45.964,Simcolourproject_2stim_asymm_v5,2020.2.10,Win32,60,61025ae37ef11b136ea224fe,,,,,,,,,3740,-30.3888285,-69.33333743,1,0,0,response5disk,,3,-0.166660309,-2.222225815,1,0,0,rectangle,-0.166660309,-2.222225815,1,0,0,-0.166660309,-2.222225815,1,0,0,0,31,31,159,1,,,,,,,,
,,,,,,,,,,,,,FF,,,,,,,,2.8843,,,,,,,,,,,,,,,,,,,,,,60fccb788ad29d26b970f1a5,61037786a170c2c33d55abf6,2021-07-29_22h56.45.964,Simcolourproject_2stim_asymm_v5,2020.2.10,Win32,60,61025ae37ef11b136ea224fe,,,,,,,,,2575,67.8333402,-32.88889271,1,0,0,response3disk,,5,12.72222868,-3.555559158,1,0,0,rectangle,12.72222868,-3.555559158,1,0,0,12.72222868,-3.555559158,1,0,0,0,32,32,29,1,,,,,,,,
,,,,,,,,,,,,,FF,,,,,,,,1.8169,,,,,,,,,,,,,,,,,,,,,,60fccb788ad29d26b970f1a5,61037786a170c2c33d55abf6,2021-07-29_22h56.45.964,Simcolourproject_2stim_asymm_v5,2020.2.10,Win32,60,61025ae37ef11b136ea224fe,,,,,,,,,587,81.61111808,61.33333021,1,0,0,response1disk,,6,8.277784199,-1.33333692,1,0,0,rectangle,8.277784199,-1.33333692,1,0,0,8.277784199,-1.33333692,1,0,0,0,33,33,69,1,,,,,,,,
,,,,,,,,,,,,,FF,,,,,,,,3.6019,,,,,,,,,,,,,,,,,,,,,,60fccb788ad29d26b970f1a5,61037786a170c2c33d55abf6,2021-07-29_22h56.45.964,Simcolourproject_2stim_asymm_v5,2020.2.10,Win32,60,61025ae37ef11b136ea224fe,,,,,,,,,1135,62.50000682,-88.44444868,1,0,0,response3disk,,4,18.5000065,-15.55555925,1,0,0,rectangle,84.27778476,42.22221896,1,0,0,-2.833326995,-5.333336949,1,0,0,0,34,34,66,1,,response1disk_3,TRUE,6,6,"[299,200,91,292,66,79,283,322,172,70,5,218,35,139,301,71,323,154,303,41]",1.6837,rectangle
,,,,,,,,,,,,,FF,,,,,,,,1.4669,,,,,,,,,,,,,,,,,,,,,,60fccb788ad29d26b970f1a5,61037786a170c2c33d55abf6,2021-07-29_22h56.45.964,Simcolourproject_2stim_asymm_v5,2020.2.10,Win32,60,61025ae37ef11b136ea224fe,,,,,,,,,759,87.83334035,28.88888553,1,0,0,response1disk,,6,-5.94443813,3.555552006,1,0,0,rectangle,-5.94443813,3.555552006,1,0,0,-5.94443813,3.555552006,1,0,0,0,35,35,147,1,,,,,,,,
,,,,,,,,,,,,,FF,,,,,,,,1.1332,,,,,,,,,,,,,,,,,,,,,,60fccb788ad29d26b970f1a5,61037786a170c2c33d55abf6,2021-07-29_22h56.45.964,Simcolourproject_2stim_asymm_v5,2020.2.10,Win32,60,61025ae37ef11b136ea224fe,,,,,,,,,3707,-48.61110511,71.55555251,1,0,0,response7disk,,0,4.277784169,-12.44444811,1,0,0,rectangle,4.277784169,-12.44444811,1,0,0,4.277784169,-12.44444811,1,0,0,0,36,36,7,1,,,,,,,,
,,,,,,,,,,,,,FF,,,,,,,,3.0511,,,,,,,,,,,,,,,,,,,,,,60fccb788ad29d26b970f1a5,61037786a170c2c33d55abf6,2021-07-29_22h56.45.964,Simcolourproject_2stim_asymm_v5,2020.2.10,Win32,60,61025ae37ef11b136ea224fe,,,,,,,,,786,60.27778459,-89.77778202,1,0,0,response3disk,,4,5.611171765,-10.22222587,1,0,0,rectangle,5.611171765,-10.22222587,1,0,0,5.611171765,-10.22222587,1,0,0,0,37,37,97,1,,,,,,,,
,,,,,,,,,,,,,FF,,,,,,,,4.3847,,,,,,,,,,,,,,,,,,,,,,60fccb788ad29d26b970f1a5,61037786a170c2c33d55abf6,2021-07-29_22h56.45.964,Simcolourproject_2stim_asymm_v5,2020.2.10,Win32,60,61025ae37ef11b136ea224fe,,,,,,,,,2585,87.83334035,-55.55555955,1,0,0,response3disk,,5,-11.72221595,-7.555559188,1,0,0,rectangle,-11.72221595,-7.555559188,1,0,0,-11.72221595,-7.555559188,1,0,0,0,38,38,95,1,,,,,,,,
,,,,,,,,,,,,,FF,,,,,,,,2.5842,,,,,,,,,,,,,,,,,,,,,,60fccb788ad29d26b970f1a5,61037786a170c2c33d55abf6,2021-07-29_22h56.45.964,Simcolourproject_2stim_asymm_v5,2020.2.10,Win32,60,61025ae37ef11b136ea224fe,,,,,,,,,1398,90.05556259,-38.22222608,1,0,0,response3disk,,5,4.277784169,-4.000003606,1,0,0,rectangle,4.277784169,-4.000003606,1,0,0,4.277784169,-4.000003606,1,0,0,0,39,39,12,1,,,,,,,,
,,,,,,,,,,,,,FF,,,,,,,,1.2341,,,,,,,,,,,,,,,,,,,,,,60fccb788ad29d26b970f1a5,61037786a170c2c33d55abf6,2021-07-29_22h56.45.964,Simcolourproject_2stim_asymm_v5,2020.2.10,Win32,60,61025ae37ef11b136ea224fe,,,,,,,,,2566,89.16667369,59.99999687,1,0,0,response1disk,,6,-17.49999377,3.555552006,1,0,0,rectangle,-81.9444387,41.33333007,1,0,0,2.944450825,-4.888892502,1,0,0,0,40,40,49,1,,response7disk_3,TRUE,1,1,"[299,200,91,292,66,79,283,322,172,70,5,218,35,139,301,71,323,154,303,41]",1.3006,rectangle
,,,,,,,,,,,,,FF,,,,,,,,3.4343,,,,,,,,,,,,,,,,,,,,,,60fccb788ad29d26b970f1a5,61037786a170c2c33d55abf6,2021-07-29_22h56.45.964,Simcolourproject_2stim_asymm_v5,2020.2.10,Win32,60,61025ae37ef11b136ea224fe,,,,,,,,,205,86.500007,-70.66667077,1,0,0,response3disk,,5,-10.83332705,-7.555559188,1,0,0,rectangle,-10.83332705,-7.555559188,1,0,0,-10.83332705,-7.555559188,1,0,0,0,41,41,9,1,,,,,,,,
,,,,,,,,,,,,,FF,,,,,,,,2.1339,,,,,,,,,,,,,,,,,,,,,,60fccb788ad29d26b970f1a5,61037786a170c2c33d55abf6,2021-07-29_22h56.45.964,Simcolourproject_2stim_asymm_v5,2020.2.10,Win32,60,61025ae37ef11b136ea224fe,,,,,,,,,1878,73.61111802,50.66666347,1,0,0,response1disk,,6,-0.166660309,2.66666311,1,0,0,rectangle,-0.166660309,2.66666311,1,0,0,-0.166660309,2.66666311,1,0,0,0,42,42,55,1,,,,,,,,
,,,,,,,,,,,,,FF,,,,,,,,2.9015,,,,,,,,,,,,,,,,,,,,,,60fccb788ad29d26b970f1a5,61037786a170c2c33d55abf6,2021-07-29_22h56.45.964,Simcolourproject_2stim_asymm_v5,2020.2.10,Win32,60,61025ae37ef11b136ea224fe,,,,,,,,,1997,62.50000682,86.22221929,1,0,0,response1disk,,7,-1.9444381,4.888885349,1,0,0,rectangle,-1.9444381,4.888885349,1,0,0,-1.9444381,4.888885349,1,0,0,0,43,43,33,1,,,,,,,,
,,,,,,,,,,,,,FF,,,,,,,,2.9014,,,,,,,,,,,,,,,,,,,,,,60fccb788ad29d26b970f1a5,61037786a170c2c33d55abf6,2021-07-29_22h56.45.964,Simcolourproject_2stim_asymm_v5,2020.2.10,Win32,60,61025ae37ef11b136ea224fe,,,,,,,,,3557,-22.83332714,-89.33333758,1,0,0,response5disk,,3,-1.055549204,1.777774215,1,0,0,rectangle,-1.055549204,1.777774215,1,0,0,-1.055549204,1.777774215,1,0,0,0,44,44,102,1,,,,,,,,
,,,,,,,,,,,,,FF,,,,,,,,0.9333,,,,,,,,,,,,,,,,,,,,,,60fccb788ad29d26b970f1a5,61037786a170c2c33d55abf6,2021-07-29_22h56.45.964,Simcolourproject_2stim_asymm_v5,2020.2.10,Win32,60,61025ae37ef11b136ea224fe,,,,,,,,,1766,-47.72221622,-86.66667089,1,0,0,response5disk,,3,-8.166660368,-3.555559158,1,0,0,rectangle,-8.166660368,-3.555559158,1,0,0,-8.166660368,-3.555559158,1,0,0,0,45,45,8,1,,,,,,,,
,,,,,,,,,,,,,FF,,,,,,,,2.417,,,,,,,,,,,,,,,,,,,,,,60fccb788ad29d26b970f1a5,61037786a170c2c33d55abf6,2021-07-29_22h56.45.964,Simcolourproject_2stim_asymm_v5,2020.2.10,Win32,60,61025ae37ef11b136ea224fe,,,,,,,,,2079,88.72222924,-28.44444823,1,0,0,response3disk,,5,0.277784139,0.444440871,1,0,0,rectangle,0.277784139,0.444440871,1,0,0,0.277784139,0.444440871,1,0,0,0,46,46,42,1,,,,,,,,
,,,,,,,,,,,,,FF,,,,,,,,1.2673,,,,,,,,,,,,,,,,,,,,,,60fccb788ad29d26b970f1a5,61037786a170c2c33d55abf6,2021-07-29_22h56.45.964,Simcolourproject_2stim_asymm_v5,2020.2.10,Win32,60,61025ae37ef11b136ea224fe,,,,,,,,,2610,43.83334002,-58.22222623,1,0,0,response3disk,,4,12.72222868,-0.444448024,1,0,0,rectangle,12.72222868,-0.444448024,1,0,0,12.72222868,-0.444448024,1,0,0,0,47,47,39,1,,,,,,,,
,,,,,,,,,,,,,FF,,,,,,,,2.4007,,,,,,,,,,,,,,,,,,,,,,60fccb788ad29d26b970f1a5,61037786a170c2c33d55abf6,2021-07-29_22h56.45.964,Simcolourproject_2stim_asymm_v5,2020.2.10,Win32,60,61025ae37ef11b136ea224fe,,,,,,,,,4323,108.7222294,55.55555239,1,0,0,response1disk,,6,6.05556196,-8.444448084,1,0,0,rectangle,6.05556196,-8.444448084,1,0,0,6.05556196,-8.444448084,1,0,0,0,48,48,126,1,,,,,,,,
,,,,,,,,,,,,,FF,,,,,,,,1.451,,,,,,,,,,,,,,,,,,,,,,60fccb788ad29d26b970f1a5,61037786a170c2c33d55abf6,2021-07-29_22h56.45.964,Simcolourproject_2stim_asymm_v5,2020.2.10,Win32,60,61025ae37ef11b136ea224fe,,,,,,,,,2029,-26.38882847,-54.2222262,1,0,0,response5disk,,3,-5.94443813,-8.444448084,1,0,0,rectangle,-5.94443813,-8.444448084,1,0,0,-5.94443813,-8.444448084,1,0,0,0,49,49,129,1,,,,,,,,
,,,,,,,,,,,,,FF,,,,,,,,1.1672,,,,,,,,,,,,,,,,,,,,,,60fccb788ad29d26b970f1a5,61037786a170c2c33d55abf6,2021-07-29_22h56.45.964,Simcolourproject_2stim_asymm_v5,2020.2.10,Win32,60,61025ae37ef11b136ea224fe,,,,,,,,,2484,49.61117209,-71.11116947,1,0,0,response3disk,,4,13.16667312,-8.888892531,1,0,0,rectangle,13.16667312,-8.888892531,1,0,0,13.16667312,-8.888892531,1,0,0,0,50,50,87,1,,,,,,,,
,,,,,,,,,,,,,FF,,,,,,,,2.6004,,,,,,,,,,,,,,,,,,,,,,60fccb788ad29d26b970f1a5,61037786a170c2c33d55abf6,2021-07-29_22h56.45.964,Simcolourproject_2stim_asymm_v5,2020.2.10,Win32,60,61025ae37ef11b136ea224fe,,,,,,,,,1718,88.27778479,-28.44444823,1,0,0,response3disk,,5,16.72222871,5.777774245,1,0,0,rectangle,16.72222871,5.777774245,1,0,0,16.72222871,5.777774245,1,0,0,0,51,51,78,1,,,,,,,,
,,,,,,,,,,,,,FF,,,,,,,,1.6509,,,,,,,,,,,,,,,,,,,,,,60fccb788ad29d26b970f1a5,61037786a170c2c33d55abf6,2021-07-29_22h56.45.964,Simcolourproject_2stim_asymm_v5,2020.2.10,Win32,60,61025ae37ef11b136ea224fe,,,,,,,,,1564,85.16667366,45.77777454,1,0,0,response1disk,,6,13.61117183,8.888885379,1,0,0,rectangle,13.61117183,8.888885379,1,0,0,13.61117183,8.888885379,1,0,0,0,52,52,149,1,,,,,,,,
,,,,,,,,,,,,,FF,,,,,,,,4.9517,,,,,,,,,,,,,,,,,,,,,,60fccb788ad29d26b970f1a5,61037786a170c2c33d55abf6,2021-07-29_22h56.45.964,Simcolourproject_2stim_asymm_v5,2020.2.10,Win32,60,61025ae37ef11b136ea224fe,,,,,,,,,3521,119.3888961,-47.11116929,1,0,0,response3disk,,5,-9.499993712,-6.222225845,1,0,0,rectangle,-9.499993712,-6.222225845,1,0,0,-9.499993712,-6.222225845,1,0,0,0,53,53,50,1,,,,,,,,
,,,,,,,,,,,,,FF,,,,,,,,1.0006,,,,,,,,,,,,,,,,,,,,,,60fccb788ad29d26b970f1a5,61037786a170c2c33d55abf6,2021-07-29_22h56.45.964,Simcolourproject_2stim_asymm_v5,2020.2.10,Win32,60,61025ae37ef11b136ea224fe,,,,,,,,,3443,98.50000709,-34.22222605,1,0,0,response3disk,,5,6.500006407,-0.444448024,1,0,0,rectangle,6.500006407,-0.444448024,1,0,0,6.500006407,-0.444448024,1,0,0,0,54,54,143,1,,,,,,,,
,,,,,,,,,,,,,FF,,,,,,,,1.0831,,,,,,,,,,,,,,,,,,,,,,60fccb788ad29d26b970f1a5,61037786a170c2c33d55abf6,2021-07-29_22h56.45.964,Simcolourproject_2stim_asymm_v5,2020.2.10,Win32,60,61025ae37ef11b136ea224fe,,,,,,,,,540,97.16667375,-35.1111692,1,0,0,response3disk,,5,2.05556193,-0.888892472,1,0,0,rectangle,2.05556193,-0.888892472,1,0,0,2.05556193,-0.888892472,1,0,0,0,55,55,133,1,,,,,,,,
,,,,,,,,,,,,,FF,,,,,,,,1.9344,,,,,,,,,,,,,,,,,,,,,,60fccb788ad29d26b970f1a5,61037786a170c2c33d55abf6,2021-07-29_22h56.45.964,Simcolourproject_2stim_asymm_v5,2020.2.10,Win32,60,61025ae37ef11b136ea224fe,,,,,,,,,677,87.83334035,-28.44444823,1,0,0,response3disk,,5,13.16667312,-1.33333692,1,0,0,rectangle,13.16667312,-1.33333692,1,0,0,13.16667312,-1.33333692,1,0,0,0,56,56,71,1,,,,,,,,
,,,,,,,,,,,,,FF,,,,,,,,2.5516,,,,,,,,,,,,,,,,,,,,,,60fccb788ad29d26b970f1a5,61037786a170c2c33d55abf6,2021-07-29_22h56.45.964,Simcolourproject_2stim_asymm_v5,2020.2.10,Win32,60,61025ae37ef11b136ea224fe,,,,,,,,,2432,42.05556223,-64.4444485,1,0,0,response3disk,,4,8.722228646,-15.55555925,1,0,0,rectangle,8.722228646,-15.55555925,1,0,0,8.722228646,-15.55555925,1,0,0,0,57,57,105,1,,,,,,,,
,,,,,,,,,,,,,FF,,,,,,,,1.2834,,,,,,,,,,,,,,,,,,,,,,60fccb788ad29d26b970f1a5,61037786a170c2c33d55abf6,2021-07-29_22h56.45.964,Simcolourproject_2stim_asymm_v5,2020.2.10,Win32,60,61025ae37ef11b136ea224fe,,,,,,,,,412,80.72222918,41.33333007,1,0,0,response1disk,,6,8.722228646,-2.222225815,1,0,0,rectangle,8.722228646,-2.222225815,1,0,0,8.722228646,-2.222225815,1,0,0,0,58,58,14,1,,,,,,,,
,,,,,,,,,,,,,FF,,,,,,,,3.1269,,,,,,,,,,,,,,,,,,,,,,60fccb788ad29d26b970f1a5,61037786a170c2c33d55abf6,2021-07-29_22h56.45.964,Simcolourproject_2stim_asymm_v5,2020.2.10,Win32,60,61025ae37ef11b136ea224fe,,,,,,,,,120,90.94445148,70.66666362,1,0,0,response1disk,,6,11.38889533,14.6666632,1,0,0,rectangle,11.38889533,14.6666632,1,0,0,11.38889533,14.6666632,1,0,0,0,59,59,127,1,,,,,,,,
,,,,,,,,,,,,,FF,,,,,,,,1.384,,,,,,,,,,,,,,,,,,,,,,60fccb788ad29d26b970f1a5,61037786a170c2c33d55abf6,2021-07-29_22h56.45.964,Simcolourproject_2stim_asymm_v5,2020.2.10,Win32,60,61025ae37ef11b136ea224fe,,,,,,,,,3851,-38.83332726,-86.66667089,1,0,0,response5disk,,3,-0.166660309,-13.77778146,1,0,0,rectangle,-0.166660309,-13.77778146,1,0,0,-0.166660309,-13.77778146,1,0,0,0,60,60,21,1,,,,,,,,
,,,,,,,,,,,,,FF,,,,,,,,3.0348,,,,,,,,,,,,,,,,,,,,,,60fccb788ad29d26b970f1a5,61037786a170c2c33d55abf6,2021-07-29_22h56.45.964,Simcolourproject_2stim_asymm_v5,2020.2.10,Win32,60,61025ae37ef11b136ea224fe,,,,,,,,,3923,40.27778444,-93.3333376,1,0,0,response3disk,,4,2.500006378,-0.444448024,1,0,0,rectangle,2.500006378,-0.444448024,1,0,0,2.500006378,-0.444448024,1,0,0,0,61,61,64,1,,,,,,,,
,,,,,,,,,,,,,FF,,,,,,,,2.8008,,,,,,,,,,,,,,,,,,,,,,60fccb788ad29d26b970f1a5,61037786a170c2c33d55abf6,2021-07-29_22h56.45.964,Simcolourproject_2stim_asymm_v5,2020.2.10,Win32,60,61025ae37ef11b136ea224fe,,,,,,,,,2648,38.50000665,-79.11116953,1,0,0,response3disk,,4,13.16667312,-16.44444814,1,0,0,rectangle,13.16667312,-16.44444814,1,0,0,13.16667312,-16.44444814,1,0,0,0,62,62,73,1,,,,,,,,
,,,,,,,,,,,,,FF,,,,,,,,2.3505,,,,,,,,,,,,,,,,,,,,,,60fccb788ad29d26b970f1a5,61037786a170c2c33d55abf6,2021-07-29_22h56.45.964,Simcolourproject_2stim_asymm_v5,2020.2.10,Win32,60,61025ae37ef11b136ea224fe,,,,,,,,,2128,72.72222912,-23.11111486,1,0,0,response3disk,,5,-3.722215891,8.444440931,1,0,0,rectangle,-3.722215891,8.444440931,1,0,0,-3.722215891,8.444440931,1,0,0,0,63,63,22,1,,,,,,,,
,,,,,,,,,,,,,FF,,,,,,,,2.0344,,,,,,,,,,,,,,,,,,,,,,60fccb788ad29d26b970f1a5,61037786a170c2c33d55abf6,2021-07-29_22h56.45.964,Simcolourproject_2stim_asymm_v5,2020.2.10,Win32,60,61025ae37ef11b136ea224fe,,,,,,,,,3837,53.61117212,-90.22222647,1,0,0,response3disk,,4,7.388895303,9.333329827,1,0,0,rectangle,7.388895303,9.333329827,1,0,0,7.388895303,9.333329827,1,0,0,0,64,64,157,1,,,,,,,,
,,,,,,,,,,,,,FF,,,,,,,,2.0171,,,,,,,,,,,,,,,,,,,,,,60fccb788ad29d26b970f1a5,61037786a170c2c33d55abf6,2021-07-29_22h56.45.964,Simcolourproject_2stim_asymm_v5,2020.2.10,Win32,60,61025ae37ef11b136ea224fe,,,,,,,,,2214,111.8333405,42.66666341,1,0,0,response1disk,,6,5.611171765,-14.2222259,1,0,0,rectangle,42.50000668,-92.44444871,1,0,0,16.27778426,-3.555559158,1,0,0,0,65,65,146,1,,response3disk_3,TRUE,4,4,"[299,200,91,292,66,79,283,322,172,70,5,218,35,139,301,71,323,154,303,41]",1.4503,rectangle
,,,,,,,,,,,,,FF,,,,,,,,3.0345,,,,,,,,,,,,,,,,,,,,,,60fccb788ad29d26b970f1a5,61037786a170c2c33d55abf6,2021-07-29_22h56.45.964,Simcolourproject_2stim_asymm_v5,2020.2.10,Win32,60,61025ae37ef11b136ea224fe,,,,,,,,,849,62.50000682,-39.55555943,1,0,0,response3disk,,5,7.833339751,-8.000003636,1,0,0,rectangle,7.833339751,-8.000003636,1,0,0,7.833339751,-8.000003636,1,0,0,0,66,66,130,1,,,,,,,,
,,,,,,,,,,,,,FF,,,,,,,,1.3006,,,,,,,,,,,,,,,,,,,,,,60fccb788ad29d26b970f1a5,61037786a170c2c33d55abf6,2021-07-29_22h56.45.964,Simcolourproject_2stim_asymm_v5,2020.2.10,Win32,60,61025ae37ef11b136ea224fe,,,,,,,,,3552,-54.83332738,91.11110821,1,0,0,response7disk,,0,-5.94443813,-4.888892502,1,0,0,rectangle,-5.94443813,-4.888892502,1,0,0,-5.94443813,-4.888892502,1,0,0,0,67,67,72,1,,,,,,,,
,,,,,,,,,,,,,FF,,,,,,,,6.0526,,,,,,,,,,,,,,,,,,,,,,60fccb788ad29d26b970f1a5,61037786a170c2c33d55abf6,2021-07-29_22h56.45.964,Simcolourproject_2stim_asymm_v5,2020.2.10,Win32,60,61025ae37ef11b136ea224fe,,,,,,,,,2382,36.27778441,-56.88889289,1,0,0,response3disk,,4,14.50000647,-15.1111148,1,0,0,rectangle,14.50000647,-15.1111148,1,0,0,14.50000647,-15.1111148,1,0,0,0,68,68,90,1,,,,,,,,
,,,,,,,,,,,,,FF,,,,,,,,1.7844,,,,,,,,,,,,,,,,,,,,,,60fccb788ad29d26b970f1a5,61037786a170c2c33d55abf6,2021-07-29_22h56.45.964,Simcolourproject_2stim_asymm_v5,2020.2.10,Win32,60,61025ae37ef11b136ea224fe,,,,,,,,,2901,21.16667318,-38.22222608,1,0,0,response3disk,,4,10.05556199,-0.888892472,1,0,0,rectangle,75.38889581,33.77777445,1,0,0,21.16667318,3.111107558,1,0,0,0,69,69,5,1,,response1disk_3,TRUE,6,6,"[299,200,91,292,66,79,283,322,172,70,5,218,35,139,301,71,323,154,303,41]",1.6164,rectangle
,,,,,,,,,,,,,FF,,,,,,,,1.3833,,,,,,,,,,,,,,,,,,,,,,60fccb788ad29d26b970f1a5,61037786a170c2c33d55abf6,2021-07-29_22h56.45.964,Simcolourproject_2stim_asymm_v5,2020.2.10,Win32,60,61025ae37ef11b136ea224fe,,,,,,,,,761,54.50000677,31.99999666,1,0,0,response1disk,,6,20.72222874,3.555552006,1,0,0,rectangle,-21.05554935,95.55555269,1,0,0,-5.499993682,13.7777743,1,0,0,0,70,70,44,1,,response7disk_3,TRUE,0,0,"[299,200,91,292,66,79,283,322,172,70,5,218,35,139,301,71,323,154,303,41]",2.0668,rectangle
,,,,,,,,,,,,,FF,,,,,,,,2.1679,,,,,,,,,,,,,,,,,,,,,,60fccb788ad29d26b970f1a5,61037786a170c2c33d55abf6,2021-07-29_22h56.45.964,Simcolourproject_2stim_asymm_v5,2020.2.10,Win32,60,61025ae37ef11b136ea224fe,,,,,,,,,3175,33.61117197,59.99999687,1,0,0,response1disk,,7,-3.722215891,-5.777781397,1,0,0,rectangle,-3.722215891,-5.777781397,1,0,0,-3.722215891,-5.777781397,1,0,0,0,71,71,52,1,,,,,,,,
,,,,,,,,,,,,,FF,,,,,,,,4.2522,,,,,,,,,,,,,,,,,,,,,,60fccb788ad29d26b970f1a5,61037786a170c2c33d55abf6,2021-07-29_22h56.45.964,Simcolourproject_2stim_asymm_v5,2020.2.10,Win32,60,61025ae37ef11b136ea224fe,,,,,,,,,2354,72.27778468,-26.22222599,1,0,0,response3disk,,5,26.50000656,-17.33333704,1,0,0,rectangle,26.50000656,-17.33333704,1,0,0,26.50000656,-17.33333704,1,0,0,0,72,72,62,1,,,,,,,,
,,,,,,,,,,,,,FF,,,,,,,,2.1846,,,,,,,,,,,,,,,,,,,,,,60fccb788ad29d26b970f1a5,61037786a170c2c33d55abf6,2021-07-29_22h56.45.964,Simcolourproject_2stim_asymm_v5,2020.2.10,Win32,60,61025ae37ef11b136ea224fe,,,,,,,,,3789,29.16667324,-60.00000402,1,0,0,response3disk,,4,9.166673094,3.555552006,1,0,0,rectangle,9.166673094,3.555552006,1,0,0,9.166673094,3.555552006,1,0,0,0,73,73,118,1,,,,,,,,
,,,,,,,,,,,,,FF,,,,,,,,1.1668,,,,,,,,,,,,,,,,,,,,,,60fccb788ad29d26b970f1a5,61037786a170c2c33d55abf6,2021-07-29_22h56.45.964,Simcolourproject_2stim_asymm_v5,2020.2.10,Win32,60,61025ae37ef11b136ea224fe,,,,,,,,,4124,35.83333996,-54.2222262,1,0,0,response3disk,,4,1.166673034,11.55555207,1,0,0,rectangle,1.166673034,11.55555207,1,0,0,1.166673034,11.55555207,1,0,0,0,74,74,101,1,,,,,,,,
,,,,,,,,,,,,,FF,,,,,,,,1.8668,,,,,,,,,,,,,,,,,,,,,,60fccb788ad29d26b970f1a5,61037786a170c2c33d55abf6,2021-07-29_22h56.45.964,Simcolourproject_2stim_asymm_v5,2020.2.10,Win32,60,61025ae37ef11b136ea224fe,,,,,,,,,902,55.38889566,-29.77778158,1,0,0,response3disk,,5,23.38889542,-10.22222587,1,0,0,rectangle,23.38889542,-10.22222587,1,0,0,23.38889542,-10.22222587,1,0,0,0,75,75,61,1,,,,,,,,
,,,,,,,,,,,,,FF,,,,,,,,1.3003,,,,,,,,,,,,,,,,,,,,,,60fccb788ad29d26b970f1a5,61037786a170c2c33d55abf6,2021-07-29_22h56.45.964,Simcolourproject_2stim_asymm_v5,2020.2.10,Win32,60,61025ae37ef11b136ea224fe,,,,,,,,,1530,-28.61110497,-65.3333374,1,0,0,response5disk,,3,8.277784199,-4.888892502,1,0,0,rectangle,8.277784199,-4.888892502,1,0,0,8.277784199,-4.888892502,1,0,0,0,76,76,70,1,,,,,,,,
,,,,,,,,,,,,,FF,,,,,,,,2.3179,,,,,,,,,,,,,,,,,,,,,,60fccb788ad29d26b970f1a5,61037786a170c2c33d55abf6,2021-07-29_22h56.45.964,Simcolourproject_2stim_asymm_v5,2020.2.10,Win32,60,61025ae37ef11b136ea224fe,,,,,,,,,2405,25.16667321,-41.77778167,1,0,0,response3disk,,4,-4.166660339,12.44444096,1,0,0,rectangle,-4.166660339,12.44444096,1,0,0,-4.166660339,12.44444096,1,0,0,0,77,77,131,1,,,,,,,,
,,,,,,,,,,,,,FF,,,,,,,,4.2648,,,,,,,,,,,,,,,,,,,,,,60fccb788ad29d26b970f1a5,61037786a170c2c33d55abf6,2021-07-29_22h56.45.964,Simcolourproject_2stim_asymm_v5,2020.2.10,Win32,60,61025ae37ef11b136ea224fe,,,,,,,,,2800,39.38889554,-48.44444838,1,0,0,response3disk,,4,9.611171795,-10.22222587,1,0,0,rectangle,-45.05554953,-67.55555964,1,0,0,-13.05554929,-8.444448084,1,0,0,0,78,78,99,1,,response5disk_3,TRUE,3,3,"[299,200,91,292,66,79,283,322,172,70,5,218,35,139,301,71,323,154,303,41]",2.0006,rectangle
,,,,,,,,,,,,,FF,,,,,,,,1.1499,,,,,,,,,,,,,,,,,,,,,,60fccb788ad29d26b970f1a5,61037786a170c2c33d55abf6,2021-07-29_22h56.45.964,Simcolourproject_2stim_asymm_v5,2020.2.10,Win32,60,61025ae37ef11b136ea224fe,,,,,,,,,4280,-40.16666061,88.4444144,1,0,0,response7disk,,0,-3.722215891,-4.000003606,1,0,0,rectangle,-3.722215891,-4.000003606,1,0,0,-3.722215891,-4.000003606,1,0,0,0,79,79,40,1,,,,,,,,
,,,,,,,,,,,,,FF,,,,,,,,4.4192,,,,,,,,,,,,,,,,,,,,,,60fccb788ad29d26b970f1a5,61037786a170c2c33d55abf6,2021-07-29_22h56.45.964,Simcolourproject_2stim_asymm_v5,2020.2.10,Win32,60,61025ae37ef11b136ea224fe,,,,,,,,,4057,60.72222903,-46.22222614,1,0,0,response3disk,,5,11.38889533,-5.333336949,1,0,0,rectangle,11.38889533,-5.333336949,1,0,0,11.38889533,-5.333336949,1,0,0,0,80,80,60,1,,,,,,,,
,,,,,,,,,,,,,FF,,,,,,,,1.5674,,,,,,,,,,,,,,,,,,,,,,60fccb788ad29d26b970f1a5,61037786a170c2c33d55abf6,2021-07-29_22h56.45.964,Simcolourproject_2stim_asymm_v5,2020.2.10,Win32,60,61025ae37ef11b136ea224fe,,,,,,,,,3259,36.27778441,-75.1111695,1,0,0,response3disk,,4,7.388895303,-6.666670293,1,0,0,rectangle,7.388895303,-6.666670293,1,0,0,7.388895303,-6.666670293,1,0,0,0,81,81,103,1,,,,,,,,
,,,,,,,,,,,,,FF,,,,,,,,3.1852,,,,,,,,,,,,,,,,,,,,,,60fccb788ad29d26b970f1a5,61037786a170c2c33d55abf6,2021-07-29_22h56.45.964,Simcolourproject_2stim_asymm_v5,2020.2.10,Win32,60,61025ae37ef11b136ea224fe,,,,,,,,,3362,39.38889554,-61.77778181,1,0,0,response3disk,,4,6.944450855,7.111107588,1,0,0,rectangle,6.944450855,7.111107588,1,0,0,6.944450855,7.111107588,1,0,0,0,82,82,74,1,,,,,,,,
,,,,,,,,,,,,,FF,,,,,,,,1.1667,,,,,,,,,,,,,,,,,,,,,,60fccb788ad29d26b970f1a5,61037786a170c2c33d55abf6,2021-07-29_22h56.45.964,Simcolourproject_2stim_asymm_v5,2020.2.10,Win32,60,61025ae37ef11b136ea224fe,,,,,,,,,1931,56.722229,37.33333004,1,0,0,response1disk,,6,23.38889542,3.555552006,1,0,0,rectangle,23.38889542,3.555552006,1,0,0,23.38889542,3.555552006,1,0,0,0,83,83,77,1,,,,,,,,
,,,,,,,,,,,,,FF,,,,,,,,2.468,,,,,,,,,,,,,,,,,,,,,,60fccb788ad29d26b970f1a5,61037786a170c2c33d55abf6,2021-07-29_22h56.45.964,Simcolourproject_2stim_asymm_v5,2020.2.10,Win32,60,61025ae37ef11b136ea224fe,,,,,,,,,3245,-44.61110508,-60.44444847,1,0,0,response5disk,,3,-4.166660339,-3.57628E-06,1,0,0,rectangle,-4.166660339,-3.57628E-06,1,0,0,-4.166660339,-3.57628E-06,1,0,0,0,84,84,132,1,,,,,,,,
,,,,,,,,,,,,,FF,,,,,,,,1.7178,,,,,,,,,,,,,,,,,,,,,,60fccb788ad29d26b970f1a5,61037786a170c2c33d55abf6,2021-07-29_22h56.45.964,Simcolourproject_2stim_asymm_v5,2020.2.10,Win32,60,61025ae37ef11b136ea224fe,,,,,,,,,1462,-38.83332726,-48.88889283,1,0,0,response5disk,,3,-8.611104816,10.66666317,1,0,0,rectangle,-8.611104816,10.66666317,1,0,0,-8.611104816,10.66666317,1,0,0,0,85,85,53,1,,,,,,,,
,,,,,,,,,,,,,FF,,,,,,,,1.0668,,,,,,,,,,,,,,,,,,,,,,60fccb788ad29d26b970f1a5,61037786a170c2c33d55abf6,2021-07-29_22h56.45.964,Simcolourproject_2stim_asymm_v5,2020.2.10,Win32,60,61025ae37ef11b136ea224fe,,,,,,,,,988,31.83333993,-67.11116944,1,0,0,response3disk,,4,-1.499993652,1.777774215,1,0,0,rectangle,-1.499993652,1.777774215,1,0,0,-1.499993652,1.777774215,1,0,0,0,86,86,100,1,,,,,,,,
,,,,,,,,,,,,,FF,,,,,,,,3.9687,,,,,,,,,,,,,,,,,,,,,,60fccb788ad29d26b970f1a5,61037786a170c2c33d55abf6,2021-07-29_22h56.45.964,Simcolourproject_2stim_asymm_v5,2020.2.10,Win32,60,61025ae37ef11b136ea224fe,,,,,,,,,3036,-67.27777192,-30.22222602,1,0,0,response5disk,,2,-38.38882856,-15.1111148,1,0,0,rectangle,-38.38882856,-15.1111148,1,0,0,-38.38882856,-15.1111148,1,0,0,0,87,87,158,1,,,,,,,,
,,,,,,,,,,,,,FF,,,,,,,,2.6014,,,,,,,,,,,,,,,,,,,,,,60fccb788ad29d26b970f1a5,61037786a170c2c33d55abf6,2021-07-29_22h56.45.964,Simcolourproject_2stim_asymm_v5,2020.2.10,Win32,60,61025ae37ef11b136ea224fe,,,,,,,,,1510,66.05556241,70.66666362,1,0,0,response1disk,,7,24.72222877,6.66666314,1,0,0,rectangle,24.72222877,6.66666314,1,0,0,24.72222877,6.66666314,1,0,0,0,88,88,18,1,,,,,,,,
,,,,,,,,,,,,,FF,,,,,,,,2.4007,,,,,,,,,,,,,,,,,,,,,,60fccb788ad29d26b970f1a5,61037786a170c2c33d55abf6,2021-07-29_22h56.45.964,Simcolourproject_2stim_asymm_v5,2020.2.10,Win32,60,61025ae37ef11b136ea224fe,,,,,,,,,2556,32.72222883,-25.3333371,1,0,0,response3disk,,5,17.16667315,-13.33333701,1,0,0,rectangle,17.16667315,-13.33333701,1,0,0,17.16667315,-13.33333701,1,0,0,0,89,89,134,1,,,,,,,,
,,,,,,,,,,,,,FF,,,,,,,,3.968,,,,,,,,,,,,,,,,,,,,,,60fccb788ad29d26b970f1a5,61037786a170c2c33d55abf6,2021-07-29_22h56.45.964,Simcolourproject_2stim_asymm_v5,2020.2.10,Win32,60,61025ae37ef11b136ea224fe,,,,,,,,,1145,-36.16666058,-38.66667053,1,0,0,response5disk,,3,-5.499993682,-10.22222587,1,0,0,rectangle,46.50000671,62.66666356,1,0,0,28.27778435,-8.444448084,1,0,0,0,90,90,138,1,,response1disk_3,TRUE,7,7,"[299,200,91,292,66,79,283,322,172,70,5,218,35,139,301,71,323,154,303,41]",1.6004,rectangle
,,,,,,,,,,,,,FF,,,,,,,,0.9835,,,,,,,,,,,,,,,,,,,,,,60fccb788ad29d26b970f1a5,61037786a170c2c33d55abf6,2021-07-29_22h56.45.964,Simcolourproject_2stim_asymm_v5,2020.2.10,Win32,60,61025ae37ef11b136ea224fe,,,,,,,,,4071,-42.38882859,92.888886,1,0,0,response7disk,,0,-5.94443813,7.555552036,1,0,0,rectangle,-5.94443813,7.555552036,1,0,0,-5.94443813,7.555552036,1,0,0,0,91,91,13,1,,,,,,,,
,,,,,,,,,,,,,FF,,,,,,,,3.0008,,,,,,,,,,,,,,,,,,,,,,60fccb788ad29d26b970f1a5,61037786a170c2c33d55abf6,2021-07-29_22h56.45.964,Simcolourproject_2stim_asymm_v5,2020.2.10,Win32,60,61025ae37ef11b136ea224fe,,,,,,,,,1006,39.38889554,66.66666359,1,0,0,response1disk,,7,15.83333981,11.11110762,1,0,0,rectangle,15.83333981,11.11110762,1,0,0,15.83333981,11.11110762,1,0,0,0,92,92,111,1,,,,,,,,
,,,,,,,,,,,,,FF,,,,,,,,3.0678,,,,,,,,,,,,,,,,,,,,,,60fccb788ad29d26b970f1a5,61037786a170c2c33d55abf6,2021-07-29_22h56.45.964,Simcolourproject_2stim_asymm_v5,2020.2.10,Win32,60,61025ae37ef11b136ea224fe,,,,,,,,,3412,54.94445121,-38.22222608,1,0,0,response3disk,,5,12.72222868,-5.777781397,1,0,0,rectangle,12.72222868,-5.777781397,1,0,0,12.72222868,-5.777781397,1,0,0,0,93,93,58,1,,,,,,,,
,,,,,,,,,,,,,FF,,,,,,,,2.3342,,,,,,,,,,,,,,,,,,,,,,60fccb788ad29d26b970f1a5,61037786a170c2c33d55abf6,2021-07-29_22h56.45.964,Simcolourproject_2stim_asymm_v5,2020.2.10,Win32,60,61025ae37ef11b136ea224fe,,,,,,,,,823,23.38889542,-55.55555955,1,0,0,response3disk,,4,3.388895273,-13.33333701,1,0,0,rectangle,3.388895273,-13.33333701,1,0,0,3.388895273,-13.33333701,1,0,0,0,94,94,107,1,,,,,,,,
,,,,,,,,,,,,,FF,,,,,,,,3.6511,,,,,,,,,,,,,,,,,,,,,,60fccb788ad29d26b970f1a5,61037786a170c2c33d55abf6,2021-07-29_22h56.45.964,Simcolourproject_2stim_asymm_v5,2020.2.10,Win32,60,61025ae37ef11b136ea224fe,,,,,,,,,3786,30.94445103,-69.33333743,1,0,0,response3disk,,4,6.944450855,-16.88889259,1,0,0,rectangle,6.944450855,-16.88889259,1,0,0,6.944450855,-16.88889259,1,0,0,0,95,95,79,1,,,,,,,,
,,,,,,,,,,,,,FF,,,,,,,,0.7833,,,,,,,,,,,,,,,,,,,,,,60fccb788ad29d26b970f1a5,61037786a170c2c33d55abf6,2021-07-29_22h56.45.964,Simcolourproject_2stim_asymm_v5,2020.2.10,Win32,60,61025ae37ef11b136ea224fe,,,,,,,,,3400,34.50000662,-36.00000384,1,0,0,response3disk,,4,15.83333981,3.999996454,1,0,0,rectangle,15.83333981,3.999996454,1,0,0,15.83333981,3.999996454,1,0,0,0,96,96,98,1,,,,,,,,
,,,,,,,,,,,,,FF,,,,,,,,3.1011,,,,,,,,,,,,,,,,,,,,,,60fccb788ad29d26b970f1a5,61037786a170c2c33d55abf6,2021-07-29_22h56.45.964,Simcolourproject_2stim_asymm_v5,2020.2.10,Win32,60,61025ae37ef11b136ea224fe,,,,,,,,,4333,-43.27777174,-63.11116941,1,0,0,response5disk,,3,-11.2777715,-7.11111474,1,0,0,rectangle,-11.2777715,-7.11111474,1,0,0,-11.2777715,-7.11111474,1,0,0,0,97,97,88,1,,,,,,,,
,,,,,,,,,,,,,FF,,,,,,,,6.6534,,,,,,,,,,,,,,,,,,,,,,60fccb788ad29d26b970f1a5,61037786a170c2c33d55abf6,2021-07-29_22h56.45.964,Simcolourproject_2stim_asymm_v5,2020.2.10,Win32,60,61025ae37ef11b136ea224fe,,,,,,,,,1509,89.16667369,-44.8888928,1,0,0,response3disk,,5,-1.055549204,9.777774274,1,0,0,rectangle,-1.055549204,9.777774274,1,0,0,-1.055549204,9.777774274,1,0,0,0,98,98,86,1,,,,,,,,
,,,,,,,,,,,,,FF,,,,,,,,2.5681,,,,,,,,,,,,,,,,,,,,,,60fccb788ad29d26b970f1a5,61037786a170c2c33d55abf6,2021-07-29_22h56.45.964,Simcolourproject_2stim_asymm_v5,2020.2.10,Win32,60,61025ae37ef11b136ea224fe,,,,,,,,,2842,60.72222903,-29.33333713,1,0,0,response3disk,,5,6.500006407,2.222218663,1,0,0,rectangle,6.500006407,2.222218663,1,0,0,6.500006407,2.222218663,1,0,0,0,99,99,80,1,,,,,,,,
,,,,,,,,,,,,,FF,,,,,,,,2.1346,,,,,,,,,,,,,,,,,,,,,,60fccb788ad29d26b970f1a5,61037786a170c2c33d55abf6,2021-07-29_22h56.45.964,Simcolourproject_2stim_asymm_v5,2020.2.10,Win32,60,61025ae37ef11b136ea224fe,,,,,,,,,2482,-22.83332714,-55.11116935,1,0,0,response5disk,,3,-14.83332708,-4.888892502,1,0,0,rectangle,-14.83332708,-4.888892502,1,0,0,-14.83332708,-4.888892502,1,0,0,0,100,100,75,1,,,,,,,,
,,,,,,,,,,,,,FF,,,,,,,,1.0836,,,,,,,,,,,,,,,,,,,,,,60fccb788ad29d26b970f1a5,61037786a170c2c33d55abf6,2021-07-29_22h56.45.964,Simcolourproject_2stim_asymm_v5,2020.2.10,Win32,60,61025ae37ef11b136ea224fe,,,,,,,,,1411,74.05556247,25.33332995,1,0,0,response1disk,,6,14.94445091,-3.555559158,1,0,0,rectangle,14.94445091,-3.555559158,1,0,0,14.94445091,-3.555559158,1,0,0,0,101,101,19,1,,,,,,,,
,,,,,,,,,,,,,FF,,,,,,,,0.8331,,,,,,,,,,,,,,,,,,,,,,60fccb788ad29d26b970f1a5,61037786a170c2c33d55abf6,2021-07-29_22h56.45.964,Simcolourproject_2stim_asymm_v5,2020.2.10,Win32,60,61025ae37ef11b136ea224fe,,,,,,,,,1872,59.38889569,36.88888559,1,0,0,response1disk,,6,11.83333978,4.888885349,1,0,0,rectangle,11.83333978,4.888885349,1,0,0,11.83333978,4.888885349,1,0,0,0,102,102,113,1,,,,,,,,
,,,,,,,,,,,,,FF,,,,,,,,0.8663,,,,,,,,,,,,,,,,,,,,,,60fccb788ad29d26b970f1a5,61037786a170c2c33d55abf6,2021-07-29_22h56.45.964,Simcolourproject_2stim_asymm_v5,2020.2.10,Win32,60,61025ae37ef11b136ea224fe,,,,,,,,,1102,47.3888956,64.44441422,1,0,0,response1disk,,7,9.166673094,2.222218663,1,0,0,rectangle,9.166673094,2.222218663,1,0,0,9.166673094,2.222218663,1,0,0,0,103,103,59,1,,,,,,,,
,,,,,,,,,,,,,FF,,,,,,,,0.7999,,,,,,,,,,,,,,,,,,,,,,60fccb788ad29d26b970f1a5,61037786a170c2c33d55abf6,2021-07-29_22h56.45.964,Simcolourproject_2stim_asymm_v5,2020.2.10,Win32,60,61025ae37ef11b136ea224fe,,,,,,,,,999,39.83333999,71.99999696,1,0,0,response1disk,,7,7.833339751,10.22221872,1,0,0,rectangle,7.833339751,10.22221872,1,0,0,7.833339751,10.22221872,1,0,0,0,104,104,137,1,,,,,,,,
,,,,,,,,,,,,,FF,,,,,,,,1.3167,,,,,,,,,,,,,,,,,,,,,,60fccb788ad29d26b970f1a5,61037786a170c2c33d55abf6,2021-07-29_22h56.45.964,Simcolourproject_2stim_asymm_v5,2020.2.10,Win32,60,61025ae37ef11b136ea224fe,,,,,,,,,3166,67.38889575,-28.00000378,1,0,0,response3disk,,5,23.83333987,-4.888892502,1,0,0,rectangle,23.83333987,-4.888892502,1,0,0,23.83333987,-4.888892502,1,0,0,0,105,105,15,1,,,,,,,,
,,,,,,,,,,,,,FF,,,,,,,,0.8506,,,,,,,,,,,,,,,,,,,,,,60fccb788ad29d26b970f1a5,61037786a170c2c33d55abf6,2021-07-29_22h56.45.964,Simcolourproject_2stim_asymm_v5,2020.2.10,Win32,60,61025ae37ef11b136ea224fe,,,,,,,,,1660,50.50000674,-28.88889268,1,0,0,response3disk,,5,0.722228587,4.888885349,1,0,0,rectangle,0.722228587,4.888885349,1,0,0,0.722228587,4.888885349,1,0,0,0,106,106,156,1,,,,,,,,
,,,,,,,,,,,,,FF,,,,,,,,1.7506,,,,,,,,,,,,,,,,,,,,,,60fccb788ad29d26b970f1a5,61037786a170c2c33d55abf6,2021-07-29_22h56.45.964,Simcolourproject_2stim_asymm_v5,2020.2.10,Win32,60,61025ae37ef11b136ea224fe,,,,,,,,,1429,69.61111799,33.33333001,1,0,0,response1disk,,6,17.16667315,8.444440931,1,0,0,rectangle,17.16667315,8.444440931,1,0,0,17.16667315,8.444440931,1,0,0,0,107,107,24,1,,,,,,,,
,,,,,,,,,,,,,FF,,,,,,,,8.3534,,,,,,,,,,,,,,,,,,,,,,60fccb788ad29d26b970f1a5,61037786a170c2c33d55abf6,2021-07-29_22h56.45.964,Simcolourproject_2stim_asymm_v5,2020.2.10,Win32,60,61025ae37ef11b136ea224fe,,,,,,,,,3834,66.9444513,-43.55555946,1,0,0,response3disk,,5,4.277784169,-0.444448024,1,0,0,rectangle,4.277784169,-0.444448024,1,0,0,4.277784169,-0.444448024,1,0,0,0,108,108,119,1,,,,,,,,
,,,,,,,,,,,,,FF,,,,,,,,1.0165,,,,,,,,,,,,,,,,,,,,,,60fccb788ad29d26b970f1a5,61037786a170c2c33d55abf6,2021-07-29_22h56.45.964,Simcolourproject_2stim_asymm_v5,2020.2.10,Win32,60,61025ae37ef11b136ea224fe,,,,,,,,,652,56.27778456,-25.3333371,1,0,0,response3disk,,5,7.833339751,-6.222225845,1,0,0,rectangle,7.833339751,-6.222225845,1,0,0,7.833339751,-6.222225845,1,0,0,0,109,109,92,1,,,,,,,,
,,,,,,,,,,,,,FF,,,,,,,,1.0331,,,,,,,,,,,,,,,,,,,,,,60fccb788ad29d26b970f1a5,61037786a170c2c33d55abf6,2021-07-29_22h56.45.964,Simcolourproject_2stim_asymm_v5,2020.2.10,Win32,60,61025ae37ef11b136ea224fe,,,,,,,,,2233,-74.83332753,-51.11116932,1,0,0,response5disk,,2,-17.94443822,-0.444448024,1,0,0,rectangle,-17.94443822,-0.444448024,1,0,0,-17.94443822,-0.444448024,1,0,0,0,110,110,20,1,,,,,,,,
,,,,,,,,,,,,,FF,,,,,,,,1.6168,,,,,,,,,,,,,,,,,,,,,,60fccb788ad29d26b970f1a5,61037786a170c2c33d55abf6,2021-07-29_22h56.45.964,Simcolourproject_2stim_asymm_v5,2020.2.10,Win32,60,61025ae37ef11b136ea224fe,,,,,,,,,3596,25.16667321,-51.55555952,1,0,0,response3disk,,4,3.388895273,1.333329767,1,0,0,rectangle,3.388895273,1.333329767,1,0,0,3.388895273,1.333329767,1,0,0,0,111,111,65,1,,,,,,,,
,,,,,,,,,,,,,FF,,,,,,,,0.6832,,,,,,,,,,,,,,,,,,,,,,60fccb788ad29d26b970f1a5,61037786a170c2c33d55abf6,2021-07-29_22h56.45.964,Simcolourproject_2stim_asymm_v5,2020.2.10,Win32,60,61025ae37ef11b136ea224fe,,,,,,,,,3397,22.05556208,-37.77778164,1,0,0,response3disk,,4,-5.94443813,7.999996483,1,0,0,rectangle,-5.94443813,7.999996483,1,0,0,-5.94443813,7.999996483,1,0,0,0,112,112,0,1,,,,,,,,
,,,,,,,,,,,,,FF,,,,,,,,3.3013,,,,,,,,,,,,,,,,,,,,,,60fccb788ad29d26b970f1a5,61037786a170c2c33d55abf6,2021-07-29_22h56.45.964,Simcolourproject_2stim_asymm_v5,2020.2.10,Win32,60,61025ae37ef11b136ea224fe,,,,,,,,,2600,48.72222894,-22.66667041,1,0,0,response3disk,,5,14.05556202,-12.00000367,1,0,0,rectangle,14.05556202,-12.00000367,1,0,0,14.05556202,-12.00000367,1,0,0,0,113,113,30,1,,,,,,,,
,,,,,,,,,,,,,FF,,,,,,,,1.5668,,,,,,,,,,,,,,,,,,,,,,60fccb788ad29d26b970f1a5,61037786a170c2c33d55abf6,2021-07-29_22h56.45.964,Simcolourproject_2stim_asymm_v5,2020.2.10,Win32,60,61025ae37ef11b136ea224fe,,,,,,,,,3066,36.72222885,-21.33333707,1,0,0,response3disk,,5,9.166673094,4.888885349,1,0,0,rectangle,9.166673094,4.888885349,1,0,0,9.166673094,4.888885349,1,0,0,0,114,114,36,1,,,,,,,,
,,,,,,,,,,,,,FF,,,,,,,,1.75,,,,,,,,,,,,,,,,,,,,,,60fccb788ad29d26b970f1a5,61037786a170c2c33d55abf6,2021-07-29_22h56.45.964,Simcolourproject_2stim_asymm_v5,2020.2.10,Win32,60,61025ae37ef11b136ea224fe,,,,,,,,,2825,66.05556241,-26.22222599,1,0,0,response3disk,,5,29.16667324,-9.333336979,1,0,0,rectangle,29.16667324,-9.333336979,1,0,0,29.16667324,-9.333336979,1,0,0,0,115,115,57,1,,,,,,,,
,,,,,,,,,,,,,FF,,,,,,,,1.1175,,,,,,,,,,,,,,,,,,,,,,60fccb788ad29d26b970f1a5,61037786a170c2c33d55abf6,2021-07-29_22h56.45.964,Simcolourproject_2stim_asymm_v5,2020.2.10,Win32,60,61025ae37ef11b136ea224fe,,,,,,,,,578,82.05556253,-46.66667059,1,0,0,response3disk,,5,9.166673094,-8.444448084,1,0,0,rectangle,9.166673094,-8.444448084,1,0,0,9.166673094,-8.444448084,1,0,0,0,116,116,11,1,,,,,,,,
,,,,,,,,,,,,,FF,,,,,,,,0.9669,,,,,,,,,,,,,,,,,,,,,,60fccb788ad29d26b970f1a5,61037786a170c2c33d55abf6,2021-07-29_22h56.45.964,Simcolourproject_2stim_asymm_v5,2020.2.10,Win32,60,61025ae37ef11b136ea224fe,,,,,,,,,45,69.61111799,51.11110792,1,0,0,response1disk,,6,6.944450855,18.22221878,1,0,0,rectangle,6.944450855,18.22221878,1,0,0,6.944450855,18.22221878,1,0,0,0,117,117,10,1,,,,,,,,
,,,,,,,,,,,,,FF,,,,,,,,0.9999,,,,,,,,,,,,,,,,,,,,,,60fccb788ad29d26b970f1a5,61037786a170c2c33d55abf6,2021-07-29_22h56.45.964,Simcolourproject_2stim_asymm_v5,2020.2.10,Win32,60,61025ae37ef11b136ea224fe,,,,,,,,,1434,51.83334008,82.66666371,1,0,0,response1disk,,7,10.05556199,-4.000003606,1,0,0,rectangle,10.05556199,-4.000003606,1,0,0,10.05556199,-4.000003606,1,0,0,0,118,118,35,1,,,,,,,,
,,,,,,,,,,,,,FF,,,,,,,,0.8337,,,,,,,,,,,,,,,,,,,,,,60fccb788ad29d26b970f1a5,61037786a170c2c33d55abf6,2021-07-29_22h56.45.964,Simcolourproject_2stim_asymm_v5,2020.2.10,Win32,60,61025ae37ef11b136ea224fe,,,,,,,,,3117,45.16667336,91.99999711,1,0,0,response1disk,,7,13.61117183,13.7777743,1,0,0,rectangle,13.61117183,13.7777743,1,0,0,13.61117183,13.7777743,1,0,0,0,119,119,109,1,,,,,,,,
,,,,,,,,,,,,,FF,,,,,,,,2.0006,,,,,,,,,,,,,,,,,,,,,,60fccb788ad29d26b970f1a5,61037786a170c2c33d55abf6,2021-07-29_22h56.45.964,Simcolourproject_2stim_asymm_v5,2020.2.10,Win32,60,61025ae37ef11b136ea224fe,,,,,,,,,3234,109.1666738,52.44441413,1,0,0,response1disk,,6,22.50000653,7.999996483,1,0,0,rectangle,22.50000653,7.999996483,1,0,0,22.50000653,7.999996483,1,0,0,0,120,120,1,1,,,,,,,,
,,,,,,,,,,,,,FF,,,,,,,,0.95,,,,,,,,,,,,,,,,,,,,,,60fccb788ad29d26b970f1a5,61037786a170c2c33d55abf6,2021-07-29_22h56.45.964,Simcolourproject_2stim_asymm_v5,2020.2.10,Win32,60,61025ae37ef11b136ea224fe,,,,,,,,,1062,57.16667345,38.66666338,1,0,0,response1disk,,6,2.944450825,-13.33333701,1,0,0,rectangle,2.944450825,-13.33333701,1,0,0,2.944450825,-13.33333701,1,0,0,0,121,121,124,1,,,,,,,,
,,,,,,,,,,,,,FF,,,,,,,,1.3174,,,,,,,,,,,,,,,,,,,,,,60fccb788ad29d26b970f1a5,61037786a170c2c33d55abf6,2021-07-29_22h56.45.964,Simcolourproject_2stim_asymm_v5,2020.2.10,Win32,60,61025ae37ef11b136ea224fe,,,,,,,,,2027,-47.72221622,-69.33333743,1,0,0,response5disk,,3,-6.388828324,-7.11111474,1,0,0,rectangle,-6.388828324,-7.11111474,1,0,0,-6.388828324,-7.11111474,1,0,0,0,122,122,67,1,,,,,,,,
,,,,,,,,,,,,,FF,,,,,,,,1.3002,,,,,,,,,,,,,,,,,,,,,,60fccb788ad29d26b970f1a5,61037786a170c2c33d55abf6,2021-07-29_22h56.45.964,Simcolourproject_2stim_asymm_v5,2020.2.10,Win32,60,61025ae37ef11b136ea224fe,,,,,,,,,3563,49.16667339,39.99999672,1,0,0,response1disk,,6,-1.9444381,0.888885319,1,0,0,rectangle,-1.9444381,0.888885319,1,0,0,-1.9444381,0.888885319,1,0,0,0,123,123,68,1,,,,,,,,
,,,,,,,,,,,,,FF,,,,,,,,4.1016,,,,,,,,,,,,,,,,,,,,,,60fccb788ad29d26b970f1a5,61037786a170c2c33d55abf6,2021-07-29_22h56.45.964,Simcolourproject_2stim_asymm_v5,2020.2.10,Win32,60,61025ae37ef11b136ea224fe,,,,,,,,,3017,96.7222293,49.77777457,1,0,0,response1disk,,6,13.16667312,10.66666317,1,0,0,rectangle,13.16667312,10.66666317,1,0,0,13.16667312,10.66666317,1,0,0,0,124,124,89,1,,,,,,,,
,,,,,,,,,,,,,FF,,,,,,,,2.7176,,,,,,,,,,,,,,,,,,,,,,60fccb788ad29d26b970f1a5,61037786a170c2c33d55abf6,2021-07-29_22h56.45.964,Simcolourproject_2stim_asymm_v5,2020.2.10,Win32,60,61025ae37ef11b136ea224fe,,,,,,,,,2587,49.16667339,82.22221926,1,0,0,response1disk,,7,3.388895273,5.333329797,1,0,0,rectangle,3.388895273,5.333329797,1,0,0,3.388895273,5.333329797,1,0,0,0,125,125,51,1,,,,,,,,
,,,,,,,,,,,,,FF,,,,,,,,2.0345,,,,,,,,,,,,,,,,,,,,,,60fccb788ad29d26b970f1a5,61037786a170c2c33d55abf6,2021-07-29_22h56.45.964,Simcolourproject_2stim_asymm_v5,2020.2.10,Win32,60,61025ae37ef11b136ea224fe,,,,,,,,,3183,46.05556226,33.33333001,1,0,0,response1disk,,6,14.50000647,6.66666314,1,0,0,rectangle,14.50000647,6.66666314,1,0,0,14.50000647,6.66666314,1,0,0,0,126,126,84,1,,,,,,,,
,,,,,,,,,,,,,FF,,,,,,,,1.2333,,,,,,,,,,,,,,,,,,,,,,60fccb788ad29d26b970f1a5,61037786a170c2c33d55abf6,2021-07-29_22h56.45.964,Simcolourproject_2stim_asymm_v5,2020.2.10,Win32,60,61025ae37ef11b136ea224fe,,,,,,,,,2258,48.2777845,-43.55555946,1,0,0,response3disk,,5,2.944450825,-9.777781427,1,0,0,rectangle,2.944450825,-9.777781427,1,0,0,2.944450825,-9.777781427,1,0,0,0,127,127,150,1,,,,,,,,
,,,,,,,,,,,,,FF,,,,,,,,1.2999,,,,,,,,,,,,,,,,,,,,,,60fccb788ad29d26b970f1a5,61037786a170c2c33d55abf6,2021-07-29_22h56.45.964,Simcolourproject_2stim_asymm_v5,2020.2.10,Win32,60,61025ae37ef11b136ea224fe,,,,,,,,,36,52.72222897,59.55555242,1,0,0,response1disk,,7,23.83333987,9.777774274,1,0,0,rectangle,23.83333987,9.777774274,1,0,0,23.83333987,9.777774274,1,0,0,0,128,128,142,1,,,,,,,,
,,,,,,,,,,,,,FF,,,,,,,,2.6681,,,,,,,,,,,,,,,,,,,,,,60fccb788ad29d26b970f1a5,61037786a170c2c33d55abf6,2021-07-29_22h56.45.964,Simcolourproject_2stim_asymm_v5,2020.2.10,Win32,60,61025ae37ef11b136ea224fe,,,,,,,,,3988,44.27778447,-20.44444817,1,0,0,response3disk,,5,-13.49999374,-7.11111474,1,0,0,rectangle,-13.49999374,-7.11111474,1,0,0,-13.49999374,-7.11111474,1,0,0,0,129,129,123,1,,,,,,,,
,,,,,,,,,,,,,FF,,,,,,,,3.2177,,,,,,,,,,,,,,,,,,,,,,60fccb788ad29d26b970f1a5,61037786a170c2c33d55abf6,2021-07-29_22h56.45.964,Simcolourproject_2stim_asymm_v5,2020.2.10,Win32,60,61025ae37ef11b136ea224fe,,,,,,,,,1620,43.83334002,-39.11116923,1,0,0,response3disk,,5,-11.2777715,-7.11111474,1,0,0,rectangle,-11.2777715,-7.11111474,1,0,0,-11.2777715,-7.11111474,1,0,0,0,130,130,54,1,,,,,,,,
,,,,,,,,,,,,,FF,,,,,,,,1.1511,,,,,,,,,,,,,,,,,,,,,,60fccb788ad29d26b970f1a5,61037786a170c2c33d55abf6,2021-07-29_22h56.45.964,Simcolourproject_2stim_asymm_v5,2020.2.10,Win32,60,61025ae37ef11b136ea224fe,,,,,,,,,3461,33.16667327,-57.77778178,1,0,0,response3disk,,4,15.83333981,15.11110765,1,0,0,rectangle,15.83333981,15.11110765,1,0,0,15.83333981,15.11110765,1,0,0,0,131,131,23,1,,,,,,,,
,,,,,,,,,,,,,FF,,,,,,,,1.0667,,,,,,,,,,,,,,,,,,,,,,60fccb788ad29d26b970f1a5,61037786a170c2c33d55abf6,2021-07-29_22h56.45.964,Simcolourproject_2stim_asymm_v5,2020.2.10,Win32,60,61025ae37ef11b136ea224fe,,,,,,,,,2314,50.94445118,-31.55555937,1,0,0,response3disk,,5,0.277784139,1.777774215,1,0,0,rectangle,0.277784139,1.777774215,1,0,0,0.277784139,1.777774215,1,0,0,0,132,132,136,1,,,,,,,,
,,,,,,,,,,,,,FF,,,,,,,,2.5013,,,,,,,,,,,,,,,,,,,,,,60fccb788ad29d26b970f1a5,61037786a170c2c33d55abf6,2021-07-29_22h56.45.964,Simcolourproject_2stim_asymm_v5,2020.2.10,Win32,60,61025ae37ef11b136ea224fe,,,,,,,,,1618,60.72222903,-28.44444823,1,0,0,response3disk,,5,-3.277771443,9.777774274,1,0,0,rectangle,-3.277771443,9.777774274,1,0,0,-3.277771443,9.777774274,1,0,0,0,133,133,151,1,,,,,,,,
,,,,,,,,,,,,,FF,,,,,,,,1.2666,,,,,,,,,,,,,,,,,,,,,,60fccb788ad29d26b970f1a5,61037786a170c2c33d55abf6,2021-07-29_22h56.45.964,Simcolourproject_2stim_asymm_v5,2020.2.10,Win32,60,61025ae37ef11b136ea224fe,,,,,,,,,4002,34.50000662,-50.22222617,1,0,0,response3disk,,4,5.611171765,-7.555559188,1,0,0,rectangle,5.611171765,-7.555559188,1,0,0,5.611171765,-7.555559188,1,0,0,0,134,134,6,1,,,,,,,,
,,,,,,,,,,,,,FF,,,,,,,,1.4003,,,,,,,,,,,,,,,,,,,,,,60fccb788ad29d26b970f1a5,61037786a170c2c33d55abf6,2021-07-29_22h56.45.964,Simcolourproject_2stim_asymm_v5,2020.2.10,Win32,60,61025ae37ef11b136ea224fe,,,,,,,,,3524,36.72222885,-45.33333725,1,0,0,response3disk,,4,16.72222871,-7.555559188,1,0,0,rectangle,16.72222871,-7.555559188,1,0,0,16.72222871,-7.555559188,1,0,0,0,135,135,2,1,,,,,,,,
,,,,,,,,,,,,,FF,,,,,,,,1.2834,,,,,,,,,,,,,,,,,,,,,,60fccb788ad29d26b970f1a5,61037786a170c2c33d55abf6,2021-07-29_22h56.45.964,Simcolourproject_2stim_asymm_v5,2020.2.10,Win32,60,61025ae37ef11b136ea224fe,,,,,,,,,3540,55.83334011,42.22221896,1,0,0,response1disk,,6,20.27778429,14.6666632,1,0,0,rectangle,20.27778429,14.6666632,1,0,0,20.27778429,14.6666632,1,0,0,0,136,136,155,1,,,,,,,,
,,,,,,,,,,,,,FF,,,,,,,,2.1011,,,,,,,,,,,,,,,,,,,,,,60fccb788ad29d26b970f1a5,61037786a170c2c33d55abf6,2021-07-29_22h56.45.964,Simcolourproject_2stim_asymm_v5,2020.2.10,Win32,60,61025ae37ef11b136ea224fe,,,,,,,,,1252,32.72222883,76.88888589,1,0,0,response1disk,,7,-5.94443813,-0.888892472,1,0,0,rectangle,-5.94443813,-0.888892472,1,0,0,-5.94443813,-0.888892472,1,0,0,0,137,137,32,1,,,,,,,,
,,,,,,,,,,,,,FF,,,,,,,,1.1174,,,,,,,,,,,,,,,,,,,,,,60fccb788ad29d26b970f1a5,61037786a170c2c33d55abf6,2021-07-29_22h56.45.964,Simcolourproject_2stim_asymm_v5,2020.2.10,Win32,60,61025ae37ef11b136ea224fe,,,,,,,,,1173,53.16667342,35.55555224,1,0,0,response1disk,,6,9.166673094,3.999996454,1,0,0,rectangle,-44.61110508,-92.44444871,1,0,0,-11.2777715,-7.11111474,1,0,0,0,138,138,46,1,,response5disk_3,TRUE,3,3,"[299,200,91,292,66,79,283,322,172,70,5,218,35,139,301,71,323,154,303,41]",1.7673,rectangle
,,,,,,,,,,,,,FF,,,,,,,,1.3336,,,,,,,,,,,,,,,,,,,,,,60fccb788ad29d26b970f1a5,61037786a170c2c33d55abf6,2021-07-29_22h56.45.964,Simcolourproject_2stim_asymm_v5,2020.2.10,Win32,60,61025ae37ef11b136ea224fe,,,,,,,,,2924,31.38889548,56.88888574,1,0,0,response1disk,,7,7.833339751,4.444440901,1,0,0,rectangle,7.833339751,4.444440901,1,0,0,7.833339751,4.444440901,1,0,0,0,139,139,141,1,,,,,,,,
,,,,,,,,,,,,,FF,,,,,,,,3.6856,,,,,,,,,,,,,,,,,,,,,,60fccb788ad29d26b970f1a5,61037786a170c2c33d55abf6,2021-07-29_22h56.45.964,Simcolourproject_2stim_asymm_v5,2020.2.10,Win32,60,61025ae37ef11b136ea224fe,,,,,,,,,3459,31.38889548,51.99999681,1,0,0,response1disk,,7,6.500006407,-5.333336949,1,0,0,rectangle,6.500006407,-5.333336949,1,0,0,6.500006407,-5.333336949,1,0,0,0,140,140,17,1,,,,,,,,
,,,,,,,,,,,,,FF,,,,,,,,0.9831,,,,,,,,,,,,,,,,,,,,,,60fccb788ad29d26b970f1a5,61037786a170c2c33d55abf6,2021-07-29_22h56.45.964,Simcolourproject_2stim_asymm_v5,2020.2.10,Win32,60,61025ae37ef11b136ea224fe,,,,,,,,,2122,41.16667333,-21.33333707,1,0,0,response3disk,,5,0.277784139,-4.000003606,1,0,0,rectangle,0.277784139,-4.000003606,1,0,0,0.277784139,-4.000003606,1,0,0,0,141,141,37,1,,,,,,,,
,,,,,,,,,,,,,FF,,,,,,,,1.3841,,,,,,,,,,,,,,,,,,,,,,60fccb788ad29d26b970f1a5,61037786a170c2c33d55abf6,2021-07-29_22h56.45.964,Simcolourproject_2stim_asymm_v5,2020.2.10,Win32,60,61025ae37ef11b136ea224fe,,,,,,,,,2708,38.0555622,46.66666344,1,0,0,response1disk,,7,15.83333981,-7.555559188,1,0,0,rectangle,15.83333981,-7.555559188,1,0,0,15.83333981,-7.555559188,1,0,0,0,142,142,108,1,,,,,,,,
,,,,,,,,,,,,,FF,,,,,,,,1.0165,,,,,,,,,,,,,,,,,,,,,,60fccb788ad29d26b970f1a5,61037786a170c2c33d55abf6,2021-07-29_22h56.45.964,Simcolourproject_2stim_asymm_v5,2020.2.10,Win32,60,61025ae37ef11b136ea224fe,,,,,,,,,1658,69.61111799,35.55555224,1,0,0,response1disk,,6,21.61117188,-0.888892472,1,0,0,rectangle,21.61117188,-0.888892472,1,0,0,21.61117188,-0.888892472,1,0,0,0,143,143,148,1,,,,,,,,
,,,,,,,,,,,,,FF,,,,,,,,0.8672,,,,,,,,,,,,,,,,,,,,,,60fccb788ad29d26b970f1a5,61037786a170c2c33d55abf6,2021-07-29_22h56.45.964,Simcolourproject_2stim_asymm_v5,2020.2.10,Win32,60,61025ae37ef11b136ea224fe,,,,,,,,,3568,60.27778459,35.55555224,1,0,0,response1disk,,6,23.38889542,2.66666311,1,0,0,rectangle,23.38889542,2.66666311,1,0,0,23.38889542,2.66666311,1,0,0,0,144,144,128,1,,,,,,,,
,,,,,,,,,,,,,FF,,,,,,,,1.4333,,,,,,,,,,,,,,,,,,,,,,60fccb788ad29d26b970f1a5,61037786a170c2c33d55abf6,2021-07-29_22h56.45.964,Simcolourproject_2stim_asymm_v5,2020.2.10,Win32,60,61025ae37ef11b136ea224fe,,,,,,,,,212,45.61117206,69.33333027,1,0,0,response1disk,,7,-0.611104757,-3.111114711,1,0,0,rectangle,-0.611104757,-3.111114711,1,0,0,-0.611104757,-3.111114711,1,0,0,0,145,145,154,1,,,,,,,,
,,,,,,,,,,,,,FF,,,,,,,,1.2003,,,,,,,,,,,,,,,,,,,,,,60fccb788ad29d26b970f1a5,61037786a170c2c33d55abf6,2021-07-29_22h56.45.964,Simcolourproject_2stim_asymm_v5,2020.2.10,Win32,60,61025ae37ef11b136ea224fe,,,,,,,,,2165,44.27778447,-52.00000396,1,0,0,response3disk,,4,14.50000647,-4.444448054,1,0,0,rectangle,14.50000647,-4.444448054,1,0,0,14.50000647,-4.444448054,1,0,0,0,146,146,114,1,,,,,,,,
,,,,,,,,,,,,,FF,,,,,,,,1.7511,,,,,,,,,,,,,,,,,,,,,,60fccb788ad29d26b970f1a5,61037786a170c2c33d55abf6,2021-07-29_22h56.45.964,Simcolourproject_2stim_asymm_v5,2020.2.10,Win32,60,61025ae37ef11b136ea224fe,,,,,,,,,3904,49.61117209,23.55555215,1,0,0,response1disk,,6,19.38889539,2.66666311,1,0,0,rectangle,19.38889539,2.66666311,1,0,0,19.38889539,2.66666311,1,0,0,0,147,147,152,1,,,,,,,,
,,,,,,,,,,,,,FF,,,,,,,,0.9008,,,,,,,,,,,,,,,,,,,,,,60fccb788ad29d26b970f1a5,61037786a170c2c33d55abf6,2021-07-29_22h56.45.964,Simcolourproject_2stim_asymm_v5,2020.2.10,Win32,60,61025ae37ef11b136ea224fe,,,,,,,,,1248,36.72222885,59.99999687,1,0,0,response1disk,,7,15.38889536,13.33332986,1,0,0,rectangle,15.38889536,13.33332986,1,0,0,15.38889536,13.33332986,1,0,0,0,148,148,110,1,,,,,,,,
,,,,,,,,,,,,,FF,,,,,,,,0.7838,,,,,,,,,,,,,,,,,,,,,,60fccb788ad29d26b970f1a5,61037786a170c2c33d55abf6,2021-07-29_22h56.45.964,Simcolourproject_2stim_asymm_v5,2020.2.10,Win32,60,61025ae37ef11b136ea224fe,,,,,,,,,2081,31.83333993,55.99999684,1,0,0,response1disk,,7,5.611171765,-2.666670263,1,0,0,rectangle,5.611171765,-2.666670263,1,0,0,5.611171765,-2.666670263,1,0,0,0,149,149,16,1,,,,,,,,
,,,,,,,,,,,,,FF,,,,,,,,1.0163,,,,,,,,,,,,,,,,,,,,,,60fccb788ad29d26b970f1a5,61037786a170c2c33d55abf6,2021-07-29_22h56.45.964,Simcolourproject_2stim_asymm_v5,2020.2.10,Win32,60,61025ae37ef11b136ea224fe,,,,,,,,,2198,63.38889572,23.9999966,1,0,0,response1disk,,6,10.05556199,-8.888892531,1,0,0,rectangle,10.05556199,-8.888892531,1,0,0,10.05556199,-8.888892531,1,0,0,0,150,150,82,1,,,,,,,,
,,,,,,,,,,,,,FF,,,,,,,,0.984,,,,,,,,,,,,,,,,,,,,,,60fccb788ad29d26b970f1a5,61037786a170c2c33d55abf6,2021-07-29_22h56.45.964,Simcolourproject_2stim_asymm_v5,2020.2.10,Win32,60,61025ae37ef11b136ea224fe,,,,,,,,,3504,25.16667321,-62.66667071,1,0,0,response3disk,,4,-1.499993652,-6.222225845,1,0,0,rectangle,-1.499993652,-6.222225845,1,0,0,-1.499993652,-6.222225845,1,0,0,0,151,151,28,1,,,,,,,,
,,,,,,,,,,,,,FF,,,,,,,,1.2674,,,,,,,,,,,,,,,,,,,,,,60fccb788ad29d26b970f1a5,61037786a170c2c33d55abf6,2021-07-29_22h56.45.964,Simcolourproject_2stim_asymm_v5,2020.2.10,Win32,60,61025ae37ef11b136ea224fe,,,,,,,,,1765,74.50000691,-44.0000039,1,0,0,response3disk,,5,10.50000644,-5.333336949,1,0,0,rectangle,10.50000644,-5.333336949,1,0,0,10.50000644,-5.333336949,1,0,0,0,152,152,63,1,,,,,,,,
,,,,,,,,,,,,,FF,,,,,,,,1.035,,,,,,,,,,,,,,,,,,,,,,60fccb788ad29d26b970f1a5,61037786a170c2c33d55abf6,2021-07-29_22h56.45.964,Simcolourproject_2stim_asymm_v5,2020.2.10,Win32,60,61025ae37ef11b136ea224fe,,,,,,,,,2012,26.944451,70.66666362,1,0,0,response1disk,,7,-12.61110485,-0.888892472,1,0,0,rectangle,39.38889554,85.33333039,1,0,0,-5.499993682,-5.777781397,1,0,0,0,153,153,135,1,,response1disk_3,TRUE,7,7,"[299,200,91,292,66,79,283,322,172,70,5,218,35,139,301,71,323,154,303,41]",2.2509,rectangle
,,,,,,,,,,,,,FF,,,,,,,,1.2669,,,,,,,,,,,,,,,,,,,,,,60fccb788ad29d26b970f1a5,61037786a170c2c33d55abf6,2021-07-29_22h56.45.964,Simcolourproject_2stim_asymm_v5,2020.2.10,Win32,60,61025ae37ef11b136ea224fe,,,,,,,,,2719,-77.05554977,-28.88889268,1,0,0,response5disk,,2,-4.611104786,9.333329827,1,0,0,rectangle,-4.611104786,9.333329827,1,0,0,-4.611104786,9.333329827,1,0,0,0,154,154,145,1,,,,,,,,
,,,,,,,,,,,,,FF,,,,,,,,1.3007,,,,,,,,,,,,,,,,,,,,,,60fccb788ad29d26b970f1a5,61037786a170c2c33d55abf6,2021-07-29_22h56.45.964,Simcolourproject_2stim_asymm_v5,2020.2.10,Win32,60,61025ae37ef11b136ea224fe,,,,,,,,,79,-46.83332732,22.22221881,1,0,0,response7disk,,1,1.611171736,-2.222225815,1,0,0,rectangle,1.611171736,-2.222225815,1,0,0,1.611171736,-2.222225815,1,0,0,0,155,155,112,1,,,,,,,,
,,,,,,,,,,,,,FF,,,,,,,,3.2517,,,,,,,,,,,,,,,,,,,,,,60fccb788ad29d26b970f1a5,61037786a170c2c33d55abf6,2021-07-29_22h56.45.964,Simcolourproject_2stim_asymm_v5,2020.2.10,Win32,60,61025ae37ef11b136ea224fe,,,,,,,,,2190,40.27778444,72.44441428,1,0,0,response1disk,,7,-4.166660339,8.888885379,1,0,0,rectangle,-4.166660339,8.888885379,1,0,0,-4.166660339,8.888885379,1,0,0,0,156,156,120,1,,,,,,,,
,,,,,,,,,,,,,FF,,,,,,,,1.9337,,,,,,,,,,,,,,,,,,,,,,60fccb788ad29d26b970f1a5,61037786a170c2c33d55abf6,2021-07-29_22h56.45.964,Simcolourproject_2stim_asymm_v5,2020.2.10,Win32,60,61025ae37ef11b136ea224fe,,,,,,,,,3750,-36.61110502,-74.6666708,1,0,0,response5disk,,3,-5.94443813,-7.555559188,1,0,0,rectangle,-5.94443813,-7.555559188,1,0,0,-5.94443813,-7.555559188,1,0,0,0,157,157,25,1,,,,,,,,
,,,,,,,,,,,,,FF,,,,,,,,1.1667,,,,,,,,,,,,,,,,,,,,,,60fccb788ad29d26b970f1a5,61037786a170c2c33d55abf6,2021-07-29_22h56.45.964,Simcolourproject_2stim_asymm_v5,2020.2.10,Win32,60,61025ae37ef11b136ea224fe,,,,,,,,,1631,46.05556226,-44.0000039,1,0,0,response3disk,,5,12.72222868,14.22221875,1,0,0,rectangle,12.72222868,14.22221875,1,0,0,12.72222868,14.22221875,1,0,0,0,158,158,117,1,,,,,,,,
,,,,,,,,,,,,,FF,,,,,,,,1.0167,,,,,,,,,,,,,,,,,,,,,,60fccb788ad29d26b970f1a5,61037786a170c2c33d55abf6,2021-07-29_22h56.45.964,Simcolourproject_2stim_asymm_v5,2020.2.10,Win32,60,61025ae37ef11b136ea224fe,,,,,,,,,2137,54.05556232,42.22221896,1,0,0,response1disk,,6,6.05556196,-1.33333692,1,0,0,rectangle,6.05556196,-1.33333692,1,0,0,6.05556196,-1.33333692,1,0,0,0,159,159,96,1,,,,,,,,
,,,,,,,,,,,,,FF,,,,,,,,0.8506,,,,,,,,,,,,,,,,,,,,,,60fccb788ad29d26b970f1a5,61037786a170c2c33d55abf6,2021-07-29_22h56.45.964,Simcolourproject_2stim_asymm_v5,2020.2.10,Win32,60,61025ae37ef11b136ea224fe,,,,,,,,,215,31.83333993,38.22221893,1,0,0,response1disk,,7,3.388895273,-10.22222587,1,0,0,rectangle,3.388895273,-10.22222587,1,0,0,3.388895273,-10.22222587,1,0,0,1,0,160,72,1,,,,,,,,
,,,,,,,,,,,,,FF,,,,,,,,1.8007,,,,,,,,,,,,,,,,,,,,,,60fccb788ad29d26b970f1a5,61037786a170c2c33d55abf6,2021-07-29_22h56.45.964,Simcolourproject_2stim_asymm_v5,2020.2.10,Win32,60,61025ae37ef11b136ea224fe,,,,,,,,,539,30.50000659,64.8888858,1,0,0,response1disk,,7,1.166673034,5.777774245,1,0,0,rectangle,1.166673034,5.777774245,1,0,0,1.166673034,5.777774245,1,0,0,1,1,161,66,1,,,,,,,,
,,,,,,,,,,,,,FF,,,,,,,,0.8831,,,,,,,,,,,,,,,,,,,,,,60fccb788ad29d26b970f1a5,61037786a170c2c33d55abf6,2021-07-29_22h56.45.964,Simcolourproject_2stim_asymm_v5,2020.2.10,Win32,60,61025ae37ef11b136ea224fe,,,,,,,,,4312,31.38889548,71.99999696,1,0,0,response1disk,,7,-1.499993652,3.555552006,1,0,0,rectangle,-1.499993652,3.555552006,1,0,0,-1.499993652,3.555552006,1,0,0,1,2,162,46,1,,,,,,,,
,,,,,,,,,,,,,FF,,,,,,,,0.9997,,,,,,,,,,,,,,,,,,,,,,60fccb788ad29d26b970f1a5,61037786a170c2c33d55abf6,2021-07-29_22h56.45.964,Simcolourproject_2stim_asymm_v5,2020.2.10,Win32,60,61025ae37ef11b136ea224fe,,,,,,,,,3911,33.16667327,-73.7777819,1,0,0,response3disk,,4,-0.611104757,-3.111114711,1,0,0,rectangle,-0.611104757,-3.111114711,1,0,0,-0.611104757,-3.111114711,1,0,0,1,3,163,51,1,,,,,,,,
,,,,,,,,,,,,,FF,,,,,,,,1.3,,,,,,,,,,,,,,,,,,,,,,60fccb788ad29d26b970f1a5,61037786a170c2c33d55abf6,2021-07-29_22h56.45.964,Simcolourproject_2stim_asymm_v5,2020.2.10,Win32,60,61025ae37ef11b136ea224fe,,,,,,,,,4286,38.50000665,59.11110798,1,0,0,response1disk,,7,-1.9444381,-6.222225845,1,0,0,rectangle,-1.9444381,-6.222225845,1,0,0,-1.9444381,-6.222225845,1,0,0,1,4,164,121,1,,,,,,,,
,,,,,,,,,,,,,FF,,,,,,,,1.0501,,,,,,,,,,,,,,,,,,,,,,60fccb788ad29d26b970f1a5,61037786a170c2c33d55abf6,2021-07-29_22h56.45.964,Simcolourproject_2stim_asymm_v5,2020.2.10,Win32,60,61025ae37ef11b136ea224fe,,,,,,,,,753,32.72222883,81.33333036,1,0,0,response1disk,,7,2.944450825,0.888885319,1,0,0,rectangle,2.944450825,0.888885319,1,0,0,2.944450825,0.888885319,1,0,0,1,5,165,29,1,,,,,,,,
,,,,,,,,,,,,,FF,,,,,,,,1.2007,,,,,,,,,,,,,,,,,,,,,,60fccb788ad29d26b970f1a5,61037786a170c2c33d55abf6,2021-07-29_22h56.45.964,Simcolourproject_2stim_asymm_v5,2020.2.10,Win32,60,61025ae37ef11b136ea224fe,,,,,,,,,493,34.94445106,59.99999687,1,0,0,response1disk,,7,0.277784139,-4.444448054,1,0,0,rectangle,0.277784139,-4.444448054,1,0,0,0.277784139,-4.444448054,1,0,0,1,6,166,148,1,,,,,,,,
,,,,,,,,,,,,,FF,,,,,,,,0.8166,,,,,,,,,,,,,,,,,,,,,,60fccb788ad29d26b970f1a5,61037786a170c2c33d55abf6,2021-07-29_22h56.45.964,Simcolourproject_2stim_asymm_v5,2020.2.10,Win32,60,61025ae37ef11b136ea224fe,,,,,,,,,224,53.61117212,36.44441401,1,0,0,response1disk,,6,7.388895303,-2.222225815,1,0,0,rectangle,7.388895303,-2.222225815,1,0,0,7.388895303,-2.222225815,1,0,0,1,7,167,22,1,,,,,,,,
,,,,,,,,,,,,,FF,,,,,,,,1.2336,,,,,,,,,,,,,,,,,,,,,,60fccb788ad29d26b970f1a5,61037786a170c2c33d55abf6,2021-07-29_22h56.45.964,Simcolourproject_2stim_asymm_v5,2020.2.10,Win32,60,61025ae37ef11b136ea224fe,,,,,,,,,2996,-22.83332714,-71.11116947,1,0,0,response5disk,,3,3.388895273,-7.11111474,1,0,0,rectangle,3.388895273,-7.11111474,1,0,0,3.388895273,-7.11111474,1,0,0,1,8,168,111,1,,,,,,,,
,,,,,,,,,,,,,FF,,,,,,,,0.8339,,,,,,,,,,,,,,,,,,,,,,60fccb788ad29d26b970f1a5,61037786a170c2c33d55abf6,2021-07-29_22h56.45.964,Simcolourproject_2stim_asymm_v5,2020.2.10,Win32,60,61025ae37ef11b136ea224fe,,,,,,,,,1899,-37.05554947,-64.4444485,1,0,0,response5disk,,3,10.94445089,18.66666323,1,0,0,rectangle,10.94445089,18.66666323,1,0,0,10.94445089,18.66666323,1,0,0,1,9,169,19,1,,,,,,,,
,,,,,,,,,,,,,FF,,,,,,,,0.8497,,,,,,,,,,,,,,,,,,,,,,60fccb788ad29d26b970f1a5,61037786a170c2c33d55abf6,2021-07-29_22h56.45.964,Simcolourproject_2stim_asymm_v5,2020.2.10,Win32,60,61025ae37ef11b136ea224fe,,,,,,,,,2296,-38.38882856,-60.00000402,1,0,0,response5disk,,3,-0.611104757,-5.777781397,1,0,0,rectangle,-0.611104757,-5.777781397,1,0,0,-0.611104757,-5.777781397,1,0,0,1,10,170,112,1,,,,,,,,
,,,,,,,,,,,,,FF,,,,,,,,1.2831,,,,,,,,,,,,,,,,,,,,,,60fccb788ad29d26b970f1a5,61037786a170c2c33d55abf6,2021-07-29_22h56.45.964,Simcolourproject_2stim_asymm_v5,2020.2.10,Win32,60,61025ae37ef11b136ea224fe,,,,,,,,,3748,24.72222877,-52.88889286,1,0,0,response3disk,,4,-7.722215921,14.22221875,1,0,0,rectangle,42.05556223,77.33333033,1,0,0,9.611171795,9.333329827,1,0,0,1,11,171,157,1,,response1disk_3,TRUE,7,7,"[299,200,91,292,66,79,283,322,172,70,5,218,35,139,301,71,323,154,303,41]",1.5169,rectangle
,,,,,,,,,,,,,FF,,,,,,,,1.6676,,,,,,,,,,,,,,,,,,,,,,60fccb788ad29d26b970f1a5,61037786a170c2c33d55abf6,2021-07-29_22h56.45.964,Simcolourproject_2stim_asymm_v5,2020.2.10,Win32,60,61025ae37ef11b136ea224fe,,,,,,,,,864,58.50000679,-21.33333707,1,0,0,response3disk,,5,20.72222874,-3.111114711,1,0,0,rectangle,20.72222874,-3.111114711,1,0,0,20.72222874,-3.111114711,1,0,0,1,12,172,36,1,,,,,,,,
,,,,,,,,,,,,,FF,,,,,,,,0.7504,,,,,,,,,,,,,,,,,,,,,,60fccb788ad29d26b970f1a5,61037786a170c2c33d55abf6,2021-07-29_22h56.45.964,Simcolourproject_2stim_asymm_v5,2020.2.10,Win32,60,61025ae37ef11b136ea224fe,,,,,,,,,4289,34.50000662,51.99999681,1,0,0,response1disk,,7,17.16667315,9.333329827,1,0,0,rectangle,17.16667315,9.333329827,1,0,0,17.16667315,9.333329827,1,0,0,1,13,173,34,1,,,,,,,,
,,,,,,,,,,,,,FF,,,,,,,,2.6844,,,,,,,,,,,,,,,,,,,,,,60fccb788ad29d26b970f1a5,61037786a170c2c33d55abf6,2021-07-29_22h56.45.964,Simcolourproject_2stim_asymm_v5,2020.2.10,Win32,60,61025ae37ef11b136ea224fe,,,,,,,,,2592,74.05556247,32.88888556,1,0,0,response1disk,,6,7.833339751,3.555552006,1,0,0,rectangle,7.833339751,3.555552006,1,0,0,7.833339751,3.555552006,1,0,0,1,14,174,10,1,,,,,,,,
,,,,,,,,,,,,,FF,,,,,,,,1.6175,,,,,,,,,,,,,,,,,,,,,,60fccb788ad29d26b970f1a5,61037786a170c2c33d55abf6,2021-07-29_22h56.45.964,Simcolourproject_2stim_asymm_v5,2020.2.10,Win32,60,61025ae37ef11b136ea224fe,,,,,,,,,2355,-41.0555495,85.33333039,1,0,0,response7disk,,0,-10.83332705,14.6666632,1,0,0,rectangle,-10.83332705,14.6666632,1,0,0,-10.83332705,14.6666632,1,0,0,1,15,175,60,1,,,,,,,,
,,,,,,,,,,,,,FF,,,,,,,,2.0336,,,,,,,,,,,,,,,,,,,,,,60fccb788ad29d26b970f1a5,61037786a170c2c33d55abf6,2021-07-29_22h56.45.964,Simcolourproject_2stim_asymm_v5,2020.2.10,Win32,60,61025ae37ef11b136ea224fe,,,,,,,,,1776,61.61111793,-25.77778155,1,0,0,response3disk,,5,19.83333984,3.999996454,1,0,0,rectangle,19.83333984,3.999996454,1,0,0,19.83333984,3.999996454,1,0,0,1,16,176,57,1,,,,,,,,
,,,,,,,,,,,,,FF,,,,,,,,1.0167,,,,,,,,,,,,,,,,,,,,,,60fccb788ad29d26b970f1a5,61037786a170c2c33d55abf6,2021-07-29_22h56.45.964,Simcolourproject_2stim_asymm_v5,2020.2.10,Win32,60,61025ae37ef11b136ea224fe,,,,,,,,,1218,-48.16666067,-71.55555966,1,0,0,response5disk,,3,-1.055549204,-2.222225815,1,0,0,rectangle,-1.055549204,-2.222225815,1,0,0,-1.055549204,-2.222225815,1,0,0,1,17,177,103,1,,,,,,,,
,,,,,,,,,,,,,FF,,,,,,,,4.3021,,,,,,,,,,,,,,,,,,,,,,60fccb788ad29d26b970f1a5,61037786a170c2c33d55abf6,2021-07-29_22h56.45.964,Simcolourproject_2stim_asymm_v5,2020.2.10,Win32,60,61025ae37ef11b136ea224fe,,,,,,,,,1874,33.61117197,-49.33333728,1,0,0,response3disk,,4,10.05556199,-4.888892502,1,0,0,rectangle,10.05556199,-4.888892502,1,0,0,10.05556199,-4.888892502,1,0,0,1,18,178,131,1,,,,,,,,
,,,,,,,,,,,,,FF,,,,,,,,1.6001,,,,,,,,,,,,,,,,,,,,,,60fccb788ad29d26b970f1a5,61037786a170c2c33d55abf6,2021-07-29_22h56.45.964,Simcolourproject_2stim_asymm_v5,2020.2.10,Win32,60,61025ae37ef11b136ea224fe,,,,,,,,,3414,50.05556229,33.33333001,1,0,0,response1disk,,6,11.83333978,3.555552006,1,0,0,rectangle,11.83333978,3.555552006,1,0,0,11.83333978,3.555552006,1,0,0,1,19,179,58,1,,,,,,,,
,,,,,,,,,,,,,FF,,,,,,,,1.0997,,,,,,,,,,,,,,,,,,,,,,60fccb788ad29d26b970f1a5,61037786a170c2c33d55abf6,2021-07-29_22h56.45.964,Simcolourproject_2stim_asymm_v5,2020.2.10,Win32,60,61025ae37ef11b136ea224fe,,,,,,,,,3940,30.05556214,-52.88889286,1,0,0,response3disk,,4,10.50000644,-17.33333704,1,0,0,rectangle,10.50000644,-17.33333704,1,0,0,10.50000644,-17.33333704,1,0,0,1,20,180,109,1,,,,,,,,
,,,,,,,,,,,,,FF,,,,,,,,1.6917,,,,,,,,,,,,,,,,,,,,,,60fccb788ad29d26b970f1a5,61037786a170c2c33d55abf6,2021-07-29_22h56.45.964,Simcolourproject_2stim_asymm_v5,2020.2.10,Win32,60,61025ae37ef11b136ea224fe,,,,,,,,,1763,84.27778476,39.55555227,1,0,0,response1disk,,6,6.500006407,6.222218692,1,0,0,rectangle,6.500006407,6.222218692,1,0,0,6.500006407,6.222218692,1,0,0,1,21,181,39,1,,,,,,,,
,,,,,,,,,,,,,FF,,,,,,,,0.9339,,,,,,,,,,,,,,,,,,,,,,60fccb788ad29d26b970f1a5,61037786a170c2c33d55abf6,2021-07-29_22h56.45.964,Simcolourproject_2stim_asymm_v5,2020.2.10,Win32,60,61025ae37ef11b136ea224fe,,,,,,,,,3947,34.05556217,26.66666329,1,0,0,response1disk,,6,8.722228646,2.222218663,1,0,0,rectangle,8.722228646,2.222218663,1,0,0,8.722228646,2.222218663,1,0,0,1,22,182,101,1,,,,,,,,
,,,,,,,,,,,,,FF,,,,,,,,0.8338,,,,,,,,,,,,,,,,,,,,,,60fccb788ad29d26b970f1a5,61037786a170c2c33d55abf6,2021-07-29_22h56.45.964,Simcolourproject_2stim_asymm_v5,2020.2.10,Win32,60,61025ae37ef11b136ea224fe,,,,,,,,,2705,33.61117197,68.44441425,1,0,0,response1disk,,7,11.38889533,7.555552036,1,0,0,rectangle,11.38889533,7.555552036,1,0,0,11.38889533,7.555552036,1,0,0,1,23,183,142,1,,,,,,,,
,,,,,,,,,,,,,FF,,,,,,,,3.1009,,,,,,,,,,,,,,,,,,,,,,60fccb788ad29d26b970f1a5,61037786a170c2c33d55abf6,2021-07-29_22h56.45.964,Simcolourproject_2stim_asymm_v5,2020.2.10,Win32,60,61025ae37ef11b136ea224fe,,,,,,,,,1180,80.72222918,45.77777454,1,0,0,response1disk,,6,31.38889548,13.33332986,1,0,0,rectangle,31.38889548,13.33332986,1,0,0,31.38889548,13.33332986,1,0,0,1,24,184,90,1,,,,,,,,
,,,,,,,,,,,,,FF,,,,,,,,1.2669,,,,,,,,,,,,,,,,,,,,,,60fccb788ad29d26b970f1a5,61037786a170c2c33d55abf6,2021-07-29_22h56.45.964,Simcolourproject_2stim_asymm_v5,2020.2.10,Win32,60,61025ae37ef11b136ea224fe,,,,,,,,,3500,50.50000674,76.88888589,1,0,0,response1disk,,7,19.83333984,1.333329767,1,0,0,rectangle,19.83333984,1.333329767,1,0,0,19.83333984,1.333329767,1,0,0,1,25,185,26,1,,,,,,,,
,,,,,,,,,,,,,FF,,,,,,,,1.0332,,,,,,,,,,,,,,,,,,,,,,60fccb788ad29d26b970f1a5,61037786a170c2c33d55abf6,2021-07-29_22h56.45.964,Simcolourproject_2stim_asymm_v5,2020.2.10,Win32,60,61025ae37ef11b136ea224fe,,,,,,,,,12,35.83333996,51.55555236,1,0,0,response1disk,,7,17.61117185,4.888885349,1,0,0,rectangle,17.61117185,4.888885349,1,0,0,17.61117185,4.888885349,1,0,0,1,26,186,3,1,,,,,,,,
,,,,,,,,,,,,,FF,,,,,,,,1.4675,,,,,,,,,,,,,,,,,,,,,,60fccb788ad29d26b970f1a5,61037786a170c2c33d55abf6,2021-07-29_22h56.45.964,Simcolourproject_2stim_asymm_v5,2020.2.10,Win32,60,61025ae37ef11b136ea224fe,,,,,,,,,3520,41.61117203,-64.88889295,1,0,0,response3disk,,4,6.05556196,-9.777781427,1,0,0,rectangle,6.05556196,-9.777781427,1,0,0,6.05556196,-9.777781427,1,0,0,1,27,187,9,1,,,,,,,,
,,,,,,,,,,,,,FF,,,,,,,,1.2675,,,,,,,,,,,,,,,,,,,,,,60fccb788ad29d26b970f1a5,61037786a170c2c33d55abf6,2021-07-29_22h56.45.964,Simcolourproject_2stim_asymm_v5,2020.2.10,Win32,60,61025ae37ef11b136ea224fe,,,,,,,,,2189,29.61117194,53.33333015,1,0,0,response1disk,,7,15.38889536,0.444440871,1,0,0,rectangle,15.38889536,0.444440871,1,0,0,15.38889536,0.444440871,1,0,0,1,28,188,37,1,,,,,,,,
,,,,,,,,,,,,,FF,,,,,,,,1.2333,,,,,,,,,,,,,,,,,,,,,,60fccb788ad29d26b970f1a5,61037786a170c2c33d55abf6,2021-07-29_22h56.45.964,Simcolourproject_2stim_asymm_v5,2020.2.10,Win32,60,61025ae37ef11b136ea224fe,,,,,,,,,2034,-33.05554944,-46.22222614,1,0,0,response5disk,,3,-8.611104816,-4.444448054,1,0,0,rectangle,-8.611104816,-4.444448054,1,0,0,-8.611104816,-4.444448054,1,0,0,1,29,189,14,1,,,,,,,,
,,,,,,,,,,,,,FF,,,,,,,,2.0673,,,,,,,,,,,,,,,,,,,,,,60fccb788ad29d26b970f1a5,61037786a170c2c33d55abf6,2021-07-29_22h56.45.964,Simcolourproject_2stim_asymm_v5,2020.2.10,Win32,60,61025ae37ef11b136ea224fe,,,,,,,,,2715,38.50000665,-53.33333731,1,0,0,response3disk,,4,16.72222871,5.777774245,1,0,0,rectangle,16.72222871,5.777774245,1,0,0,16.72222871,5.777774245,1,0,0,1,30,190,136,1,,,,,,,,
,,,,,,,,,,,,,FF,,,,,,,,2.1338,,,,,,,,,,,,,,,,,,,,,,60fccb788ad29d26b970f1a5,61037786a170c2c33d55abf6,2021-07-29_22h56.45.964,Simcolourproject_2stim_asymm_v5,2020.2.10,Win32,60,61025ae37ef11b136ea224fe,,,,,,,,,3740,48.72222894,-37.33333719,1,0,0,response3disk,,5,19.38889539,-14.2222259,1,0,0,rectangle,19.38889539,-14.2222259,1,0,0,19.38889539,-14.2222259,1,0,0,1,31,191,25,1,,,,,,,,
,,,,,,,,,,,,,FF,,,,,,,,2.0678,,,,,,,,,,,,,,,,,,,,,,60fccb788ad29d26b970f1a5,61037786a170c2c33d55abf6,2021-07-29_22h56.45.964,Simcolourproject_2stim_asymm_v5,2020.2.10,Win32,60,61025ae37ef11b136ea224fe,,,,,,,,,2575,70.05556244,43.11110786,1,0,0,response1disk,,6,20.27778429,6.222218692,1,0,0,rectangle,20.27778429,6.222218692,1,0,0,20.27778429,6.222218692,1,0,0,1,32,192,145,1,,,,,,,,
,,,,,,,,,,,,,FF,,,,,,,,0.8173,,,,,,,,,,,,,,,,,,,,,,60fccb788ad29d26b970f1a5,61037786a170c2c33d55abf6,2021-07-29_22h56.45.964,Simcolourproject_2stim_asymm_v5,2020.2.10,Win32,60,61025ae37ef11b136ea224fe,,,,,,,,,587,29.16667324,82.66666371,1,0,0,response1disk,,7,3.833339721,8.888885379,1,0,0,rectangle,3.833339721,8.888885379,1,0,0,3.833339721,8.888885379,1,0,0,1,33,193,97,1,,,,,,,,
,,,,,,,,,,,,,FF,,,,,,,,1.1834,,,,,,,,,,,,,,,,,,,,,,60fccb788ad29d26b970f1a5,61037786a170c2c33d55abf6,2021-07-29_22h56.45.964,Simcolourproject_2stim_asymm_v5,2020.2.10,Win32,60,61025ae37ef11b136ea224fe,,,,,,,,,1135,62.94445127,-35.5555594,1,0,0,response3disk,,5,25.61117191,-8.000003636,1,0,0,rectangle,25.61117191,-8.000003636,1,0,0,25.61117191,-8.000003636,1,0,0,1,34,194,68,1,,,,,,,,
,,,,,,,,,,,,,FF,,,,,,,,1.7671,,,,,,,,,,,,,,,,,,,,,,60fccb788ad29d26b970f1a5,61037786a170c2c33d55abf6,2021-07-29_22h56.45.964,Simcolourproject_2stim_asymm_v5,2020.2.10,Win32,60,61025ae37ef11b136ea224fe,,,,,,,,,759,71.83334023,41.77777451,1,0,0,response1disk,,6,26.50000656,9.333329827,1,0,0,rectangle,26.50000656,9.333329827,1,0,0,26.50000656,9.333329827,1,0,0,1,35,195,93,1,,,,,,,,
,,,,,,,,,,,,,FF,,,,,,,,1.0669,,,,,,,,,,,,,,,,,,,,,,60fccb788ad29d26b970f1a5,61037786a170c2c33d55abf6,2021-07-29_22h56.45.964,Simcolourproject_2stim_asymm_v5,2020.2.10,Win32,60,61025ae37ef11b136ea224fe,,,,,,,,,3707,-27.27777162,67.11110803,1,0,0,response7disk,,0,1.611171736,0.444440871,1,0,0,rectangle,1.611171736,0.444440871,1,0,0,1.611171736,0.444440871,1,0,0,1,36,196,144,1,,,,,,,,
,,,,,,,,,,,,,FF,,,,,,,,3.2679,,,,,,,,,,,,,,,,,,,,,,60fccb788ad29d26b970f1a5,61037786a170c2c33d55abf6,2021-07-29_22h56.45.964,Simcolourproject_2stim_asymm_v5,2020.2.10,Win32,60,61025ae37ef11b136ea224fe,,,,,,,,,786,-66.38882877,-37.33333719,1,0,0,response5disk,,2,-3.277771443,7.999996483,1,0,0,rectangle,-3.277771443,7.999996483,1,0,0,-3.277771443,7.999996483,1,0,0,1,37,197,62,1,,,,,,,,
,,,,,,,,,,,,,FF,,,,,,,,1.9676,,,,,,,,,,,,,,,,,,,,,,60fccb788ad29d26b970f1a5,61037786a170c2c33d55abf6,2021-07-29_22h56.45.964,Simcolourproject_2stim_asymm_v5,2020.2.10,Win32,60,61025ae37ef11b136ea224fe,,,,,,,,,2585,44.72222891,-41.77778167,1,0,0,response3disk,,5,8.722228646,3.999996454,1,0,0,rectangle,8.722228646,3.999996454,1,0,0,8.722228646,3.999996454,1,0,0,1,38,198,67,1,,,,,,,,
,,,,,,,,,,,,,FF,,,,,,,,0.8839,,,,,,,,,,,,,,,,,,,,,,60fccb788ad29d26b970f1a5,61037786a170c2c33d55abf6,2021-07-29_22h56.45.964,Simcolourproject_2stim_asymm_v5,2020.2.10,Win32,60,61025ae37ef11b136ea224fe,,,,,,,,,1398,63.38889572,-46.66667059,1,0,0,response3disk,,5,15.83333981,-7.11111474,1,0,0,rectangle,36.72222885,80.88888592,1,0,0,2.944450825,4.444440901,1,0,0,1,39,199,15,1,,response1disk_3,TRUE,7,7,"[299,200,91,292,66,79,283,322,172,70,5,218,35,139,301,71,323,154,303,41]",1.5502,rectangle
,,,,,,,,,,,,,FF,,,,,,,,2.6011,,,,,,,,,,,,,,,,,,,,,,60fccb788ad29d26b970f1a5,61037786a170c2c33d55abf6,2021-07-29_22h56.45.964,Simcolourproject_2stim_asymm_v5,2020.2.10,Win32,60,61025ae37ef11b136ea224fe,,,,,,,,,2566,45.61117206,-19.55555928,1,0,0,response3disk,,5,17.61117185,4.888885349,1,0,0,rectangle,17.61117185,4.888885349,1,0,0,17.61117185,4.888885349,1,0,0,1,40,200,105,1,,,,,,,,
,,,,,,,,,,,,,FF,,,,,,,,0.8665,,,,,,,,,,,,,,,,,,,,,,60fccb788ad29d26b970f1a5,61037786a170c2c33d55abf6,2021-07-29_22h56.45.964,Simcolourproject_2stim_asymm_v5,2020.2.10,Win32,60,61025ae37ef11b136ea224fe,,,,,,,,,205,68.72222909,44.88888565,1,0,0,response1disk,,6,22.94445097,1.777774215,1,0,0,rectangle,22.94445097,1.777774215,1,0,0,22.94445097,1.777774215,1,0,0,1,41,201,64,1,,,,,,,,
,,,,,,,,,,,,,FF,,,,,,,,1.5171,,,,,,,,,,,,,,,,,,,,,,60fccb788ad29d26b970f1a5,61037786a170c2c33d55abf6,2021-07-29_22h56.45.964,Simcolourproject_2stim_asymm_v5,2020.2.10,Win32,60,61025ae37ef11b136ea224fe,,,,,,,,,1878,54.05556232,38.66666338,1,0,0,response1disk,,6,21.16667318,6.66666314,1,0,0,rectangle,21.16667318,6.66666314,1,0,0,21.16667318,6.66666314,1,0,0,1,42,202,88,1,,,,,,,,
,,,,,,,,,,,,,FF,,,,,,,,1.0834,,,,,,,,,,,,,,,,,,,,,,60fccb788ad29d26b970f1a5,61037786a170c2c33d55abf6,2021-07-29_22h56.45.964,Simcolourproject_2stim_asymm_v5,2020.2.10,Win32,60,61025ae37ef11b136ea224fe,,,,,,,,,1997,32.27778438,80.44441434,1,0,0,response1disk,,7,4.722228616,-2.222225815,1,0,0,rectangle,4.722228616,-2.222225815,1,0,0,4.722228616,-2.222225815,1,0,0,1,43,203,53,1,,,,,,,,
,,,,,,,,,,,,,FF,,,,,,,,2.0505,,,,,,,,,,,,,,,,,,,,,,60fccb788ad29d26b970f1a5,61037786a170c2c33d55abf6,2021-07-29_22h56.45.964,Simcolourproject_2stim_asymm_v5,2020.2.10,Win32,60,61025ae37ef11b136ea224fe,,,,,,,,,3557,59.38889569,-42.66667056,1,0,0,response3disk,,5,16.27778426,-12.00000367,1,0,0,rectangle,16.27778426,-12.00000367,1,0,0,16.27778426,-12.00000367,1,0,0,1,44,204,114,1,,,,,,,,
,,,,,,,,,,,,,FF,,,,,,,,1.2675,,,,,,,,,,,,,,,,,,,,,,60fccb788ad29d26b970f1a5,61037786a170c2c33d55abf6,2021-07-29_22h56.45.964,Simcolourproject_2stim_asymm_v5,2020.2.10,Win32,60,61025ae37ef11b136ea224fe,,,,,,,,,1766,30.94445103,-66.66667074,1,0,0,response3disk,,4,-2.388828294,9.777774274,1,0,0,rectangle,-2.388828294,9.777774274,1,0,0,-2.388828294,9.777774274,1,0,0,1,45,205,52,1,,,,,,,,
,,,,,,,,,,,,,FF,,,,,,,,1.5671,,,,,,,,,,,,,,,,,,,,,,60fccb788ad29d26b970f1a5,61037786a170c2c33d55abf6,2021-07-29_22h56.45.964,Simcolourproject_2stim_asymm_v5,2020.2.10,Win32,60,61025ae37ef11b136ea224fe,,,,,,,,,2079,48.2777845,73.77777475,1,0,0,response1disk,,7,12.27778423,0.888885319,1,0,0,rectangle,12.27778423,0.888885319,1,0,0,12.27778423,0.888885319,1,0,0,1,46,206,116,1,,,,,,,,
,,,,,,,,,,,,,FF,,,,,,,,1.2836,,,,,,,,,,,,,,,,,,,,,,60fccb788ad29d26b970f1a5,61037786a170c2c33d55abf6,2021-07-29_22h56.45.964,Simcolourproject_2stim_asymm_v5,2020.2.10,Win32,60,61025ae37ef11b136ea224fe,,,,,,,,,2610,56.27778456,-27.55555934,1,0,0,response3disk,,5,18.94445094,0.444440871,1,0,0,rectangle,18.94445094,0.444440871,1,0,0,18.94445094,0.444440871,1,0,0,1,47,207,120,1,,,,,,,,
,,,,,,,,,,,,,FF,,,,,,,,0.8665,,,,,,,,,,,,,,,,,,,,,,60fccb788ad29d26b970f1a5,61037786a170c2c33d55abf6,2021-07-29_22h56.45.964,Simcolourproject_2stim_asymm_v5,2020.2.10,Win32,60,61025ae37ef11b136ea224fe,,,,,,,,,4323,38.94445109,74.2222192,1,0,0,response1disk,,7,10.05556199,8.444440931,1,0,0,rectangle,10.05556199,8.444440931,1,0,0,10.05556199,8.444440931,1,0,0,1,48,208,91,1,,,,,,,,
,,,,,,,,,,,,,FF,,,,,,,,1.2339,,,,,,,,,,,,,,,,,,,,,,60fccb788ad29d26b970f1a5,61037786a170c2c33d55abf6,2021-07-29_22h56.45.964,Simcolourproject_2stim_asymm_v5,2020.2.10,Win32,60,61025ae37ef11b136ea224fe,,,,,,,,,2029,25.16667321,-64.4444485,1,0,0,response3disk,,4,-2.833326995,-1.777781367,1,0,0,rectangle,-2.833326995,-1.777781367,1,0,0,-2.833326995,-1.777781367,1,0,0,1,49,209,2,1,,,,,,,,
,,,,,,,,,,,,,FF,,,,,,,,1.5188,,,,,,,,,,,,,,,,,,,,,,60fccb788ad29d26b970f1a5,61037786a170c2c33d55abf6,2021-07-29_22h56.45.964,Simcolourproject_2stim_asymm_v5,2020.2.10,Win32,60,61025ae37ef11b136ea224fe,,,,,,,,,2484,47.3888956,-34.22222605,1,0,0,response3disk,,5,15.38889536,-8.888892531,1,0,0,rectangle,15.38889536,-8.888892531,1,0,0,15.38889536,-8.888892531,1,0,0,1,50,210,18,1,,,,,,,,
,,,,,,,,,,,,,FF,,,,,,,,1.0504,,,,,,,,,,,,,,,,,,,,,,60fccb788ad29d26b970f1a5,61037786a170c2c33d55abf6,2021-07-29_22h56.45.964,Simcolourproject_2stim_asymm_v5,2020.2.10,Win32,60,61025ae37ef11b136ea224fe,,,,,,,,,1718,62.05556238,43.5555523,1,0,0,response1disk,,6,14.94445091,-0.888892472,1,0,0,rectangle,14.94445091,-0.888892472,1,0,0,14.94445091,-0.888892472,1,0,0,1,51,211,133,1,,,,,,,,
,,,,,,,,,,,,,FF,,,,,,,,1.1002,,,,,,,,,,,,,,,,,,,,,,60fccb788ad29d26b970f1a5,61037786a170c2c33d55abf6,2021-07-29_22h56.45.964,Simcolourproject_2stim_asymm_v5,2020.2.10,Win32,60,61025ae37ef11b136ea224fe,,,,,,,,,1564,50.94445118,30.22221887,1,0,0,response1disk,,6,29.16667324,7.555552036,1,0,0,rectangle,29.16667324,7.555552036,1,0,0,29.16667324,7.555552036,1,0,0,1,52,212,69,1,,,,,,,,
,,,,,,,,,,,,,FF,,,,,,,,1.1168,,,,,,,,,,,,,,,,,,,,,,60fccb788ad29d26b970f1a5,61037786a170c2c33d55abf6,2021-07-29_22h56.45.964,Simcolourproject_2stim_asymm_v5,2020.2.10,Win32,60,61025ae37ef11b136ea224fe,,,,,,,,,3521,52.27778453,-26.22222599,1,0,0,response3disk,,5,24.27778432,-8.000003636,1,0,0,rectangle,24.27778432,-8.000003636,1,0,0,24.27778432,-8.000003636,1,0,0,1,53,213,130,1,,,,,,,,
,,,,,,,,,,,,,FF,,,,,,,,1.1999,,,,,,,,,,,,,,,,,,,,,,60fccb788ad29d26b970f1a5,61037786a170c2c33d55abf6,2021-07-29_22h56.45.964,Simcolourproject_2stim_asymm_v5,2020.2.10,Win32,60,61025ae37ef11b136ea224fe,,,,,,,,,3443,65.61111796,48.4444141,1,0,0,response1disk,,6,26.944451,11.99999651,1,0,0,rectangle,26.944451,11.99999651,1,0,0,26.944451,11.99999651,1,0,0,1,54,214,1,1,,,,,,,,
,,,,,,,,,,,,,FF,,,,,,,,0.8171,,,,,,,,,,,,,,,,,,,,,,60fccb788ad29d26b970f1a5,61037786a170c2c33d55abf6,2021-07-29_22h56.45.964,Simcolourproject_2stim_asymm_v5,2020.2.10,Win32,60,61025ae37ef11b136ea224fe,,,,,,,,,540,50.94445118,66.22221914,1,0,0,response1disk,,7,24.72222877,-3.111114711,1,0,0,rectangle,24.72222877,-3.111114711,1,0,0,24.72222877,-3.111114711,1,0,0,1,55,215,33,1,,,,,,,,
,,,,,,,,,,,,,FF,,,,,,,,1.034,,,,,,,,,,,,,,,,,,,,,,60fccb788ad29d26b970f1a5,61037786a170c2c33d55abf6,2021-07-29_22h56.45.964,Simcolourproject_2stim_asymm_v5,2020.2.10,Win32,60,61025ae37ef11b136ea224fe,,,,,,,,,677,38.0555622,69.33333027,1,0,0,response1disk,,7,5.166673064,3.111107558,1,0,0,rectangle,5.166673064,3.111107558,1,0,0,5.166673064,3.111107558,1,0,0,1,56,216,95,1,,,,,,,,
,,,,,,,,,,,,,FF,,,,,,,,0.9505,,,,,,,,,,,,,,,,,,,,,,60fccb788ad29d26b970f1a5,61037786a170c2c33d55abf6,2021-07-29_22h56.45.964,Simcolourproject_2stim_asymm_v5,2020.2.10,Win32,60,61025ae37ef11b136ea224fe,,,,,,,,,2432,38.94445109,52.88888571,1,0,0,response1disk,,7,21.61117188,7.111107588,1,0,0,rectangle,-20.61110491,-66.22222629,1,0,0,9.166673094,4.444440901,1,0,0,1,57,217,44,1,,response5disk_3,TRUE,3,3,"[299,200,91,292,66,79,283,322,172,70,5,218,35,139,301,71,323,154,303,41]",1.7,rectangle
,,,,,,,,,,,,,FF,,,,,,,,1.0499,,,,,,,,,,,,,,,,,,,,,,60fccb788ad29d26b970f1a5,61037786a170c2c33d55abf6,2021-07-29_22h56.45.964,Simcolourproject_2stim_asymm_v5,2020.2.10,Win32,60,61025ae37ef11b136ea224fe,,,,,,,,,412,27.38889545,55.99999684,1,0,0,response1disk,,7,2.500006378,3.555552006,1,0,0,rectangle,2.500006378,3.555552006,1,0,0,2.500006378,3.555552006,1,0,0,1,58,218,65,1,,,,,,,,
,,,,,,,,,,,,,FF,,,,,,,,1.2007,,,,,,,,,,,,,,,,,,,,,,60fccb788ad29d26b970f1a5,61037786a170c2c33d55abf6,2021-07-29_22h56.45.964,Simcolourproject_2stim_asymm_v5,2020.2.10,Win32,60,61025ae37ef11b136ea224fe,,,,,,,,,120,46.94445115,35.55555224,1,0,0,response1disk,,6,5.611171765,5.333329797,1,0,0,rectangle,5.611171765,5.333329797,1,0,0,5.611171765,5.333329797,1,0,0,1,59,219,78,1,,,,,,,,
,,,,,,,,,,,,,FF,,,,,,,,1.1668,,,,,,,,,,,,,,,,,,,,,,60fccb788ad29d26b970f1a5,61037786a170c2c33d55abf6,2021-07-29_22h56.45.964,Simcolourproject_2stim_asymm_v5,2020.2.10,Win32,60,61025ae37ef11b136ea224fe,,,,,,,,,3851,34.05556217,-70.66667077,1,0,0,response3disk,,4,6.05556196,8.444440931,1,0,0,rectangle,6.05556196,8.444440931,1,0,0,6.05556196,8.444440931,1,0,0,1,60,220,5,1,,,,,,,,
,,,,,,,,,,,,,FF,,,,,,,,1.0842,,,,,,,,,,,,,,,,,,,,,,60fccb788ad29d26b970f1a5,61037786a170c2c33d55abf6,2021-07-29_22h56.45.964,Simcolourproject_2stim_asymm_v5,2020.2.10,Win32,60,61025ae37ef11b136ea224fe,,,,,,,,,3923,28.7222288,44.88888565,1,0,0,response1disk,,7,16.27778426,18.22221878,1,0,0,rectangle,16.27778426,18.22221878,1,0,0,16.27778426,18.22221878,1,0,0,1,61,221,122,1,,,,,,,,
,,,,,,,,,,,,,FF,,,,,,,,0.9338,,,,,,,,,,,,,,,,,,,,,,60fccb788ad29d26b970f1a5,61037786a170c2c33d55abf6,2021-07-29_22h56.45.964,Simcolourproject_2stim_asymm_v5,2020.2.10,Win32,60,61025ae37ef11b136ea224fe,,,,,,,,,2648,62.50000682,41.77777451,1,0,0,response1disk,,6,20.72222874,8.888885379,1,0,0,rectangle,20.72222874,8.888885379,1,0,0,20.72222874,8.888885379,1,0,0,1,62,222,17,1,,,,,,,,
,,,,,,,,,,,,,FF,,,,,,,,0.9,,,,,,,,,,,,,,,,,,,,,,60fccb788ad29d26b970f1a5,61037786a170c2c33d55abf6,2021-07-29_22h56.45.964,Simcolourproject_2stim_asymm_v5,2020.2.10,Win32,60,61025ae37ef11b136ea224fe,,,,,,,,,2128,37.1666733,53.7777746,1,0,0,response1disk,,7,8.277784199,1.333329767,1,0,0,rectangle,8.277784199,1.333329767,1,0,0,8.277784199,1.333329767,1,0,0,1,63,223,42,1,,,,,,,,
,,,,,,,,,,,,,FF,,,,,,,,1.2001,,,,,,,,,,,,,,,,,,,,,,60fccb788ad29d26b970f1a5,61037786a170c2c33d55abf6,2021-07-29_22h56.45.964,Simcolourproject_2stim_asymm_v5,2020.2.10,Win32,60,61025ae37ef11b136ea224fe,,,,,,,,,3837,32.72222883,-24.4444482,1,0,0,response3disk,,5,6.05556196,-5.777781397,1,0,0,rectangle,6.05556196,-5.777781397,1,0,0,6.05556196,-5.777781397,1,0,0,1,64,224,98,1,,,,,,,,
,,,,,,,,,,,,,FF,,,,,,,,1.2201,,,,,,,,,,,,,,,,,,,,,,60fccb788ad29d26b970f1a5,61037786a170c2c33d55abf6,2021-07-29_22h56.45.964,Simcolourproject_2stim_asymm_v5,2020.2.10,Win32,60,61025ae37ef11b136ea224fe,,,,,,,,,2214,56.27778456,30.66666332,1,0,0,response1disk,,6,27.38889545,7.999996483,1,0,0,rectangle,27.38889545,7.999996483,1,0,0,27.38889545,7.999996483,1,0,0,1,65,225,150,1,,,,,,,,
,,,,,,,,,,,,,FF,,,,,,,,1.4835,,,,,,,,,,,,,,,,,,,,,,60fccb788ad29d26b970f1a5,61037786a170c2c33d55abf6,2021-07-29_22h56.45.964,Simcolourproject_2stim_asymm_v5,2020.2.10,Win32,60,61025ae37ef11b136ea224fe,,,,,,,,,849,29.61117194,45.77777454,1,0,0,response1disk,,7,2.944450825,1.333329767,1,0,0,rectangle,2.944450825,1.333329767,1,0,0,2.944450825,1.333329767,1,0,0,1,66,226,0,1,,,,,,,,
,,,,,,,,,,,,,FF,,,,,,,,0.9668,,,,,,,,,,,,,,,,,,,,,,60fccb788ad29d26b970f1a5,61037786a170c2c33d55abf6,2021-07-29_22h56.45.964,Simcolourproject_2stim_asymm_v5,2020.2.10,Win32,60,61025ae37ef11b136ea224fe,,,,,,,,,3552,-59.72221631,-27.55555934,1,0,0,response5disk,,2,-12.1666604,8.888885379,1,0,0,rectangle,-12.1666604,8.888885379,1,0,0,-12.1666604,8.888885379,1,0,0,1,67,227,63,1,,,,,,,,
,,,,,,,,,,,,,FF,,,,,,,,2.5012,,,,,,,,,,,,,,,,,,,,,,60fccb788ad29d26b970f1a5,61037786a170c2c33d55abf6,2021-07-29_22h56.45.964,Simcolourproject_2stim_asymm_v5,2020.2.10,Win32,60,61025ae37ef11b136ea224fe,,,,,,,,,2382,33.61117197,-68.44444853,1,0,0,response3disk,,4,10.94445089,-11.55555922,1,0,0,rectangle,10.94445089,-11.55555922,1,0,0,10.94445089,-11.55555922,1,0,0,1,68,228,140,1,,,,,,,,
,,,,,,,,,,,,,FF,,,,,,,,3.4677,,,,,,,,,,,,,,,,,,,,,,60fccb788ad29d26b970f1a5,61037786a170c2c33d55abf6,2021-07-29_22h56.45.964,Simcolourproject_2stim_asymm_v5,2020.2.10,Win32,60,61025ae37ef11b136ea224fe,,,,,,,,,2901,23.38889542,-36.00000384,1,0,0,response3disk,,4,6.944450855,1.777774215,1,0,0,rectangle,6.944450855,1.777774215,1,0,0,6.944450855,1.777774215,1,0,0,1,69,229,23,1,,,,,,,,
,,,,,,,,,,,,,FF,,,,,,,,1.0673,,,,,,,,,,,,,,,,,,,,,,60fccb788ad29d26b970f1a5,61037786a170c2c33d55abf6,2021-07-29_22h56.45.964,Simcolourproject_2stim_asymm_v5,2020.2.10,Win32,60,61025ae37ef11b136ea224fe,,,,,,,,,761,25.16667321,60.88888577,1,0,0,response1disk,,7,-8.611104816,-6.222225845,1,0,0,rectangle,-8.611104816,-6.222225845,1,0,0,-8.611104816,-6.222225845,1,0,0,1,70,230,84,1,,,,,,,,
,,,,,,,,,,,,,FF,,,,,,,,0.8165,,,,,,,,,,,,,,,,,,,,,,60fccb788ad29d26b970f1a5,61037786a170c2c33d55abf6,2021-07-29_22h56.45.964,Simcolourproject_2stim_asymm_v5,2020.2.10,Win32,60,61025ae37ef11b136ea224fe,,,,,,,,,3175,30.05556214,42.66666341,1,0,0,response1disk,,7,-0.611104757,-9.333336979,1,0,0,rectangle,-0.611104757,-9.333336979,1,0,0,-0.611104757,-9.333336979,1,0,0,1,71,231,61,1,,,,,,,,
,,,,,,,,,,,,,FF,,,,,,,,3.6184,,,,,,,,,,,,,,,,,,,,,,60fccb788ad29d26b970f1a5,61037786a170c2c33d55abf6,2021-07-29_22h56.45.964,Simcolourproject_2stim_asymm_v5,2020.2.10,Win32,60,61025ae37ef11b136ea224fe,,,,,,,,,2354,40.72222888,-25.77778155,1,0,0,response3disk,,5,2.944450825,1.777774215,1,0,0,rectangle,2.944450825,1.777774215,1,0,0,2.944450825,1.777774215,1,0,0,1,72,232,152,1,,,,,,,,
,,,,,,,,,,,,,FF,,,,,,,,1.4192,,,,,,,,,,,,,,,,,,,,,,60fccb788ad29d26b970f1a5,61037786a170c2c33d55abf6,2021-07-29_22h56.45.964,Simcolourproject_2stim_asymm_v5,2020.2.10,Win32,60,61025ae37ef11b136ea224fe,,,,,,,,,3789,53.16667342,-16.88889259,1,0,0,response3disk,,5,31.38889548,-0.888892472,1,0,0,rectangle,31.38889548,-0.888892472,1,0,0,31.38889548,-0.888892472,1,0,0,1,73,233,107,1,,,,,,,,
,,,,,,,,,,,,,FF,,,,,,,,1.7838,,,,,,,,,,,,,,,,,,,,,,60fccb788ad29d26b970f1a5,61037786a170c2c33d55abf6,2021-07-29_22h56.45.964,Simcolourproject_2stim_asymm_v5,2020.2.10,Win32,60,61025ae37ef11b136ea224fe,,,,,,,,,4124,30.50000659,-53.33333731,1,0,0,response3disk,,4,15.83333981,-18.22222593,1,0,0,rectangle,15.83333981,-18.22222593,1,0,0,15.83333981,-18.22222593,1,0,0,1,74,234,12,1,,,,,,,,
,,,,,,,,,,,,,FF,,,,,,,,1.5837,,,,,,,,,,,,,,,,,,,,,,60fccb788ad29d26b970f1a5,61037786a170c2c33d55abf6,2021-07-29_22h56.45.964,Simcolourproject_2stim_asymm_v5,2020.2.10,Win32,60,61025ae37ef11b136ea224fe,,,,,,,,,902,41.61117203,-26.66667044,1,0,0,response3disk,,5,15.83333981,-8.888892531,1,0,0,rectangle,15.83333981,-8.888892531,1,0,0,15.83333981,-8.888892531,1,0,0,1,75,235,138,1,,,,,,,,
,,,,,,,,,,,,,FF,,,,,,,,1.2675,,,,,,,,,,,,,,,,,,,,,,60fccb788ad29d26b970f1a5,61037786a170c2c33d55abf6,2021-07-29_22h56.45.964,Simcolourproject_2stim_asymm_v5,2020.2.10,Win32,60,61025ae37ef11b136ea224fe,,,,,,,,,1530,-29.94443831,-72.44444856,1,0,0,response5disk,,3,-5.055549234,-8.888892531,1,0,0,rectangle,-5.055549234,-8.888892531,1,0,0,-5.055549234,-8.888892531,1,0,0,1,76,236,48,1,,,,,,,,
,,,,,,,,,,,,,FF,,,,,,,,1.1006,,,,,,,,,,,,,,,,,,,,,,60fccb788ad29d26b970f1a5,61037786a170c2c33d55abf6,2021-07-29_22h56.45.964,Simcolourproject_2stim_asymm_v5,2020.2.10,Win32,60,61025ae37ef11b136ea224fe,,,,,,,,,2405,38.94445109,58.22221908,1,0,0,response1disk,,7,6.05556196,-1.33333692,1,0,0,rectangle,6.05556196,-1.33333692,1,0,0,6.05556196,-1.33333692,1,0,0,1,77,237,45,1,,,,,,,,
,,,,,,,,,,,,,FF,,,,,,,,1.1505,,,,,,,,,,,,,,,,,,,,,,60fccb788ad29d26b970f1a5,61037786a170c2c33d55abf6,2021-07-29_22h56.45.964,Simcolourproject_2stim_asymm_v5,2020.2.10,Win32,60,61025ae37ef11b136ea224fe,,,,,,,,,2800,56.27778456,25.77777439,1,0,0,response1disk,,6,31.38889548,1.333329767,1,0,0,rectangle,31.38889548,1.333329767,1,0,0,31.38889548,1.333329767,1,0,0,1,78,238,141,1,,,,,,,,
,,,,,,,,,,,,,FF,,,,,,,,1.2998,,,,,,,,,,,,,,,,,,,,,,60fccb788ad29d26b970f1a5,61037786a170c2c33d55abf6,2021-07-29_22h56.45.964,Simcolourproject_2stim_asymm_v5,2020.2.10,Win32,60,61025ae37ef11b136ea224fe,,,,,,,,,4280,-58.83332741,65.77777469,1,0,0,response7disk,,0,-17.05554932,1.777774215,1,0,0,rectangle,-17.05554932,1.777774215,1,0,0,-17.05554932,1.777774215,1,0,0,1,79,239,50,1,,,,,,,,
,,,,,,,,,,,,,FF,,,,,,,,2.2004,,,,,,,,,,,,,,,,,,,,,,60fccb788ad29d26b970f1a5,61037786a170c2c33d55abf6,2021-07-29_22h56.45.964,Simcolourproject_2stim_asymm_v5,2020.2.10,Win32,60,61025ae37ef11b136ea224fe,,,,,,,,,4057,61.61111793,-36.00000384,1,0,0,response3disk,,5,6.944450855,3.999996454,1,0,0,rectangle,6.944450855,3.999996454,1,0,0,6.944450855,3.999996454,1,0,0,1,80,240,85,1,,,,,,,,
,,,,,,,,,,,,,FF,,,,,,,,1.667,,,,,,,,,,,,,,,,,,,,,,60fccb788ad29d26b970f1a5,61037786a170c2c33d55abf6,2021-07-29_22h56.45.964,Simcolourproject_2stim_asymm_v5,2020.2.10,Win32,60,61025ae37ef11b136ea224fe,,,,,,,,,3259,59.83334014,-28.44444823,1,0,0,response3disk,,5,12.72222868,0.444440871,1,0,0,rectangle,12.72222868,0.444440871,1,0,0,12.72222868,0.444440871,1,0,0,1,81,241,117,1,,,,,,,,
,,,,,,,,,,,,,FF,,,,,,,,1.8507,,,,,,,,,,,,,,,,,,,,,,60fccb788ad29d26b970f1a5,61037786a170c2c33d55abf6,2021-07-29_22h56.45.964,Simcolourproject_2stim_asymm_v5,2020.2.10,Win32,60,61025ae37ef11b136ea224fe,,,,,,,,,3362,38.50000665,34.2222189,1,0,0,response1disk,,6,0.277784139,-12.00000367,1,0,0,rectangle,0.277784139,-12.00000367,1,0,0,0.277784139,-12.00000367,1,0,0,1,82,242,79,1,,,,,,,,
,,,,,,,,,,,,,FF,,,,,,,,0.85,,,,,,,,,,,,,,,,,,,,,,60fccb788ad29d26b970f1a5,61037786a170c2c33d55abf6,2021-07-29_22h56.45.964,Simcolourproject_2stim_asymm_v5,2020.2.10,Win32,60,61025ae37ef11b136ea224fe,,,,,,,,,1931,50.05556229,39.11110783,1,0,0,response1disk,,6,4.722228616,-4.000003606,1,0,0,rectangle,4.722228616,-4.000003606,1,0,0,4.722228616,-4.000003606,1,0,0,1,83,243,74,1,,,,,,,,
