key_resp.keys,key_resp.rt,key_resp_14.keys,key_resp_14.rt,key_resp_15.keys,key_resp_15.rt,key_resp_17.keys,key_resp_17.rt,key_resp_9.keys,key_resp_9.rt,key_resp_10.keys,key_resp_10.rt,practice_comparison,Ecc,mouse_5.x,mouse_5.y,mouse_5.leftButton,mouse_5.midButton,mouse_5.rightButton,mouse_5.clicked_name,pracsimilarity,response_time,mouse_10.x,mouse_10.y,mouse_10.leftButton,mouse_10.midButton,mouse_10.rightButton,mouse_10.clicked_name,mouse_7.x,mouse_7.y,mouse_7.leftButton,mouse_7.midButton,mouse_7.rightButton,mouse_6.x,mouse_6.y,mouse_6.leftButton,mouse_6.midButton,mouse_6.rightButton,duringprac.thisRepN,duringprac.thisTrialN,duringprac.thisN,duringprac.thisIndex,duringprac.ran,participant,session,date,expName,psychopyVersion,OS,frameRate,study_id,mouse_7.clicked_name,catchpracsimilarity,catch_response_time,catchnumberprac,catchtrialorderprac,mouse_6.clicked_name,key_resp_22.keys,key_resp_22.rt,realcomparison,mouse.x,mouse.y,mouse.leftButton,mouse.midButton,mouse.rightButton,mouse.clicked_name,Colour2,similarity,mouse_2.x,mouse_2.y,mouse_2.leftButton,mouse_2.midButton,mouse_2.rightButton,mouse_2.clicked_name,mouse_3.x,mouse_3.y,mouse_3.leftButton,mouse_3.midButton,mouse_3.rightButton,mouse_11.x,mouse_11.y,mouse_11.leftButton,mouse_11.midButton,mouse_11.rightButton,trials_2.thisRepN,trials_2.thisTrialN,trials_2.thisN,trials_2.thisIndex,trials_2.ran,Colour1,mouse_3.clicked_name,catchornah,catchsimilarity,catchnumber,catchtrialorder,catchRT,mouse_11.clicked_name
space,188.8981,space,503.3754,space,25.2033,space,6.2649,space,2.1365,space,3.2041,147,PF,90.33203125,38.52734375,1,0,0,response1disk_5,6,4.9846,8.34375,5.76953125,1,0,0,rectangle_8,8.34375,5.76953125,1,0,0,8.34375,5.76953125,1,0,0,0,0,0,1,1,60fccd293da770308619aa88,61036bcc00901aa2abfd1f08,2021-07-29_22h03.36.682,Simcolourproject_2stim_asymm_v5,2020.2.10,MacIntel,60,61025ae37ef11b136ea224fe,,,,,,,,,,,,,,,,,,,,,,,,,,,,,,,,,,,,,,,,,,,,,,
,,,,,,,,,,,,23,PF,-80.94140625,-49.86328125,1,0,0,response5disk_5,2,6.0499,3.6953125,13.7109375,1,0,0,rectangle_8,32.8671875,56.4296875,1,0,0,-5.02734375,-2.17578125,1,0,0,0,1,1,4,1,60fccd293da770308619aa88,61036bcc00901aa2abfd1f08,2021-07-29_22h03.36.682,Simcolourproject_2stim_asymm_v5,2020.2.10,MacIntel,60,61025ae37ef11b136ea224fe,response1disk_7,7,2.3182,7,"[2,5]",rectangle_4,,,,,,,,,,,,,,,,,,,,,,,,,,,,,,,,,,,,,,,,
,,,,,,,,,,,,85,FF,-56.5,-77.98828125,1,0,0,response5disk_5,3,2.452,1.55859375,-0.09765625,1,0,0,rectangle_8,1.55859375,-0.09765625,1,0,0,1.55859375,-0.09765625,1,0,0,0,2,2,5,1,60fccd293da770308619aa88,61036bcc00901aa2abfd1f08,2021-07-29_22h03.36.682,Simcolourproject_2stim_asymm_v5,2020.2.10,MacIntel,60,61025ae37ef11b136ea224fe,,,,,,,,,,,,,,,,,,,,,,,,,,,,,,,,,,,,,,,,,,,,,,
,,,,,,,,,,,,157,FF,-31.8046875,-68.44140625,1,0,0,response5disk_5,3,1.316,2.49609375,0.25,1,0,0,rectangle_8,2.49609375,0.25,1,0,0,2.49609375,0.25,1,0,0,0,3,3,3,1,60fccd293da770308619aa88,61036bcc00901aa2abfd1f08,2021-07-29_22h03.36.682,Simcolourproject_2stim_asymm_v5,2020.2.10,MacIntel,60,61025ae37ef11b136ea224fe,,,,,,,,,,,,,,,,,,,,,,,,,,,,,,,,,,,,,,,,,,,,,,
,,,,,,,,,,,,36,PF,67.34375,36.5859375,1,0,0,response1disk_5,6,1.5662,6.015625,7.13671875,1,0,0,rectangle_8,27.19140625,54.046875,1,0,0,2.2578125,-10.4609375,1,0,0,0,4,4,6,1,60fccd293da770308619aa88,61036bcc00901aa2abfd1f08,2021-07-29_22h03.36.682,Simcolourproject_2stim_asymm_v5,2020.2.10,MacIntel,60,61025ae37ef11b136ea224fe,response1disk_7,7,2.0328,7,"[2,5]",rectangle_4,,,,,,,,,,,,,,,,,,,,,,,,,,,,,,,,,,,,,,,,
,,,,,,,,,,,,160,FF,86.96875,29.8046875,1,0,0,response1disk_5,6,3.4012,17.19140625,15.109375,1,0,0,rectangle_8,17.19140625,15.109375,1,0,0,17.19140625,15.109375,1,0,0,0,5,5,0,1,60fccd293da770308619aa88,61036bcc00901aa2abfd1f08,2021-07-29_22h03.36.682,Simcolourproject_2stim_asymm_v5,2020.2.10,MacIntel,60,61025ae37ef11b136ea224fe,,,,,,,,,,,,,,,,,,,,,,,,,,,,,,,,,,,,,,,,,,,,,,
,,,,,,,,,,,,101,PF,-70.8359375,19.74609375,1,0,0,response7disk_5,1,2.967,-0.43359375,3.34375,1,0,0,rectangle_8,-0.43359375,3.34375,1,0,0,-0.43359375,3.34375,1,0,0,0,6,6,2,1,60fccd293da770308619aa88,61036bcc00901aa2abfd1f08,2021-07-29_22h03.36.682,Simcolourproject_2stim_asymm_v5,2020.2.10,MacIntel,60,61025ae37ef11b136ea224fe,,,,,,,,,,,,,,,,,,,,,,,,,,,,,,,,,,,,,,,,,,,,,,
,,,,,,,,,,,,,FF,,,,,,,,3.2838,,,,,,,,,,,,,,,,,,,,,,60fccd293da770308619aa88,61036bcc00901aa2abfd1f08,2021-07-29_22h03.36.682,Simcolourproject_2stim_asymm_v5,2020.2.10,MacIntel,60,61025ae37ef11b136ea224fe,,,,,,,space,2.3019,867,38.96875,-67.33203125,1,0,0,response3disk,,4,14.7578125,-11.94140625,1,0,0,rectangle,14.7578125,-11.94140625,1,0,0,14.7578125,-11.94140625,1,0,0,0,0,0,62,1,,,,,,,,
,,,,,,,,,,,,,FF,,,,,,,,1.5656,,,,,,,,,,,,,,,,,,,,,,60fccd293da770308619aa88,61036bcc00901aa2abfd1f08,2021-07-29_22h03.36.682,Simcolourproject_2stim_asymm_v5,2020.2.10,MacIntel,60,61025ae37ef11b136ea224fe,,,,,,,,,937,53.73046875,65.20703125,1,0,0,response1disk,,7,26.4765625,10.40625,1,0,0,rectangle,26.4765625,10.40625,1,0,0,26.4765625,10.40625,1,0,0,0,1,1,77,1,,,,,,,,
,,,,,,,,,,,,,FF,,,,,,,,0.8342,,,,,,,,,,,,,,,,,,,,,,60fccd293da770308619aa88,61036bcc00901aa2abfd1f08,2021-07-29_22h03.36.682,Simcolourproject_2stim_asymm_v5,2020.2.10,MacIntel,60,61025ae37ef11b136ea224fe,,,,,,,,,3451,40.5625,65.390625,1,0,0,response1disk,,7,5.32421875,-13.8359375,1,0,0,rectangle,5.32421875,-13.8359375,1,0,0,5.32421875,-13.8359375,1,0,0,0,2,2,154,1,,,,,,,,
,,,,,,,,,,,,,FF,,,,,,,,2.9826,,,,,,,,,,,,,,,,,,,,,,60fccd293da770308619aa88,61036bcc00901aa2abfd1f08,2021-07-29_22h03.36.682,Simcolourproject_2stim_asymm_v5,2020.2.10,MacIntel,60,61025ae37ef11b136ea224fe,,,,,,,,,3700,-75.26953125,43.7890625,1,0,0,response7disk,,1,-4.9609375,8.2421875,1,0,0,rectangle,-4.9609375,8.2421875,1,0,0,-4.9609375,8.2421875,1,0,0,0,3,3,43,1,,,,,,,,
,,,,,,,,,,,,,FF,,,,,,,,1.3667,,,,,,,,,,,,,,,,,,,,,,60fccd293da770308619aa88,61036bcc00901aa2abfd1f08,2021-07-29_22h03.36.682,Simcolourproject_2stim_asymm_v5,2020.2.10,MacIntel,60,61025ae37ef11b136ea224fe,,,,,,,,,1978,66.65234375,45.31640625,1,0,0,response1disk,,6,8.5703125,-1.0078125,1,0,0,rectangle,8.5703125,-1.0078125,1,0,0,8.5703125,-1.0078125,1,0,0,0,4,4,12,1,,,,,,,,
,,,,,,,,,,,,,FF,,,,,,,,2.4993,,,,,,,,,,,,,,,,,,,,,,60fccd293da770308619aa88,61036bcc00901aa2abfd1f08,2021-07-29_22h03.36.682,Simcolourproject_2stim_asymm_v5,2020.2.10,MacIntel,60,61025ae37ef11b136ea224fe,,,,,,,,,3066,48.12109375,-73.32421875,1,0,0,response3disk,,4,-0.9296875,1.19921875,1,0,0,rectangle,-0.9296875,1.19921875,1,0,0,-0.9296875,1.19921875,1,0,0,0,5,5,7,1,,,,,,,,
,,,,,,,,,,,,,FF,,,,,,,,1.2495,,,,,,,,,,,,,,,,,,,,,,60fccd293da770308619aa88,61036bcc00901aa2abfd1f08,2021-07-29_22h03.36.682,Simcolourproject_2stim_asymm_v5,2020.2.10,MacIntel,60,61025ae37ef11b136ea224fe,,,,,,,,,779,52.62109375,66.12109375,1,0,0,response1disk,,7,1.98046875,3.86328125,1,0,0,rectangle,1.98046875,3.86328125,1,0,0,1.98046875,3.86328125,1,0,0,0,6,6,53,1,,,,,,,,
,,,,,,,,,,,,,FF,,,,,,,,1.4999,,,,,,,,,,,,,,,,,,,,,,60fccd293da770308619aa88,61036bcc00901aa2abfd1f08,2021-07-29_22h03.36.682,Simcolourproject_2stim_asymm_v5,2020.2.10,MacIntel,60,61025ae37ef11b136ea224fe,,,,,,,,,1259,59.1015625,46.80078125,1,0,0,response1disk,,6,-1.35546875,-10.08203125,1,0,0,rectangle,-1.35546875,-10.08203125,1,0,0,-1.35546875,-10.08203125,1,0,0,0,7,7,104,1,,,,,,,,
,,,,,,,,,,,,,FF,,,,,,,,1.0827,,,,,,,,,,,,,,,,,,,,,,60fccd293da770308619aa88,61036bcc00901aa2abfd1f08,2021-07-29_22h03.36.682,Simcolourproject_2stim_asymm_v5,2020.2.10,MacIntel,60,61025ae37ef11b136ea224fe,,,,,,,,,1185,63.796875,49.28515625,1,0,0,response1disk,,6,13.40234375,8,1,0,0,rectangle,13.40234375,8,1,0,0,13.40234375,8,1,0,0,0,8,8,56,1,,,,,,,,
,,,,,,,,,,,,,FF,,,,,,,,8.6494,,,,,,,,,,,,,,,,,,,,,,60fccd293da770308619aa88,61036bcc00901aa2abfd1f08,2021-07-29_22h03.36.682,Simcolourproject_2stim_asymm_v5,2020.2.10,MacIntel,60,61025ae37ef11b136ea224fe,,,,,,,,,3242,-77.79296875,-94.23046875,1,0,0,response5disk,,3,6.70703125,15.67578125,1,0,0,rectangle,-25.72265625,-74.5703125,1,0,0,-5.06640625,6.07421875,1,0,0,0,9,9,87,1,,response5disk_3,TRUE,3,3,"[154,140,228,14,19,10,191,190,40,146,28,198,36,296,156,29,193,196,16,264]",2.2826,rectangle
,,,,,,,,,,,,,FF,,,,,,,,1.6839,,,,,,,,,,,,,,,,,,,,,,60fccd293da770308619aa88,61036bcc00901aa2abfd1f08,2021-07-29_22h03.36.682,Simcolourproject_2stim_asymm_v5,2020.2.10,MacIntel,60,61025ae37ef11b136ea224fe,,,,,,,,,2446,40.8671875,67.51953125,1,0,0,response1disk,,7,-7.50390625,-7.48828125,1,0,0,rectangle,-7.50390625,-7.48828125,1,0,0,-7.50390625,-7.48828125,1,0,0,0,10,10,91,1,,,,,,,,
,,,,,,,,,,,,,FF,,,,,,,,1.3494,,,,,,,,,,,,,,,,,,,,,,60fccd293da770308619aa88,61036bcc00901aa2abfd1f08,2021-07-29_22h03.36.682,Simcolourproject_2stim_asymm_v5,2020.2.10,MacIntel,60,61025ae37ef11b136ea224fe,,,,,,,,,3870,-58.8203125,30.7890625,1,0,0,response7disk,,1,2.44921875,16.03515625,1,0,0,rectangle,2.44921875,16.03515625,1,0,0,2.44921875,16.03515625,1,0,0,0,11,11,88,1,,,,,,,,
,,,,,,,,,,,,,FF,,,,,,,,0.8497,,,,,,,,,,,,,,,,,,,,,,60fccd293da770308619aa88,61036bcc00901aa2abfd1f08,2021-07-29_22h03.36.682,Simcolourproject_2stim_asymm_v5,2020.2.10,MacIntel,60,61025ae37ef11b136ea224fe,,,,,,,,,3343,-43.109375,21.97265625,1,0,0,response7disk,,1,4.34375,1.44140625,1,0,0,rectangle,4.34375,1.44140625,1,0,0,4.34375,1.44140625,1,0,0,0,12,12,136,1,,,,,,,,
,,,,,,,,,,,,,FF,,,,,,,,1.2175,,,,,,,,,,,,,,,,,,,,,,60fccd293da770308619aa88,61036bcc00901aa2abfd1f08,2021-07-29_22h03.36.682,Simcolourproject_2stim_asymm_v5,2020.2.10,MacIntel,60,61025ae37ef11b136ea224fe,,,,,,,,,1983,69.62890625,-34.18359375,1,0,0,response3disk,,5,5.32421875,-13.05078125,1,0,0,rectangle,77.21484375,-37.35546875,1,0,0,17.01953125,-13.94140625,1,0,0,0,13,13,71,1,,response3disk_3,TRUE,5,5,"[154,140,228,14,19,10,191,190,40,146,28,198,36,296,156,29,193,196,16,264]",2.0001,rectangle
,,,,,,,,,,,,,FF,,,,,,,,2.932,,,,,,,,,,,,,,,,,,,,,,60fccd293da770308619aa88,61036bcc00901aa2abfd1f08,2021-07-29_22h03.36.682,Simcolourproject_2stim_asymm_v5,2020.2.10,MacIntel,60,61025ae37ef11b136ea224fe,,,,,,,,,1158,-92.02734375,-69.97265625,1,0,0,response5disk,,2,-21.3515625,-6.421875,1,0,0,rectangle,-21.3515625,-6.421875,1,0,0,-21.3515625,-6.421875,1,0,0,0,14,14,151,1,,,,,,,,
,,,,,,,,,,,,,FF,,,,,,,,1.5162,,,,,,,,,,,,,,,,,,,,,,60fccd293da770308619aa88,61036bcc00901aa2abfd1f08,2021-07-29_22h03.36.682,Simcolourproject_2stim_asymm_v5,2020.2.10,MacIntel,60,61025ae37ef11b136ea224fe,,,,,,,,,3467,-62.0703125,-20.51953125,1,0,0,response5disk,,2,0.07421875,5.9921875,1,0,0,rectangle,-35.6328125,-79.6484375,1,0,0,-8.19921875,-1.91796875,1,0,0,0,15,15,52,1,,response5disk_3,TRUE,3,3,"[154,140,228,14,19,10,191,190,40,146,28,198,36,296,156,29,193,196,16,264]",1.599,rectangle
,,,,,,,,,,,,,FF,,,,,,,,2.0989,,,,,,,,,,,,,,,,,,,,,,60fccd293da770308619aa88,61036bcc00901aa2abfd1f08,2021-07-29_22h03.36.682,Simcolourproject_2stim_asymm_v5,2020.2.10,MacIntel,60,61025ae37ef11b136ea224fe,,,,,,,,,3711,-52.5390625,-86.296875,1,0,0,response5disk,,3,14.640625,-8.2578125,1,0,0,rectangle,14.640625,-8.2578125,1,0,0,14.640625,-8.2578125,1,0,0,0,16,16,94,1,,,,,,,,
,,,,,,,,,,,,,FF,,,,,,,,1.5341,,,,,,,,,,,,,,,,,,,,,,60fccd293da770308619aa88,61036bcc00901aa2abfd1f08,2021-07-29_22h03.36.682,Simcolourproject_2stim_asymm_v5,2020.2.10,MacIntel,60,61025ae37ef11b136ea224fe,,,,,,,,,3827,22.46484375,-70.1796875,1,0,0,response3disk,,4,1.5,-15.06640625,1,0,0,rectangle,1.5,-15.06640625,1,0,0,1.5,-15.06640625,1,0,0,0,17,17,114,1,,,,,,,,
,,,,,,,,,,,,,FF,,,,,,,,1.9168,,,,,,,,,,,,,,,,,,,,,,60fccd293da770308619aa88,61036bcc00901aa2abfd1f08,2021-07-29_22h03.36.682,Simcolourproject_2stim_asymm_v5,2020.2.10,MacIntel,60,61025ae37ef11b136ea224fe,,,,,,,,,3166,92.96875,-31.17578125,1,0,0,response3disk,,5,-6.359375,6.921875,1,0,0,rectangle,77.09765625,29.60546875,1,0,0,-5.7109375,4.890625,1,0,0,0,18,18,33,1,,response1disk_3,TRUE,6,6,"[154,140,228,14,19,10,191,190,40,146,28,198,36,296,156,29,193,196,16,264]",1.4502,rectangle
,,,,,,,,,,,,,FF,,,,,,,,1.2164,,,,,,,,,,,,,,,,,,,,,,60fccd293da770308619aa88,61036bcc00901aa2abfd1f08,2021-07-29_22h03.36.682,Simcolourproject_2stim_asymm_v5,2020.2.10,MacIntel,60,61025ae37ef11b136ea224fe,,,,,,,,,3810,-44.08984375,68.234375,1,0,0,response7disk,,0,3.96875,-0.578125,1,0,0,rectangle,3.96875,-0.578125,1,0,0,3.96875,-0.578125,1,0,0,0,19,19,152,1,,,,,,,,
,,,,,,,,,,,,,FF,,,,,,,,1.084,,,,,,,,,,,,,,,,,,,,,,60fccd293da770308619aa88,61036bcc00901aa2abfd1f08,2021-07-29_22h03.36.682,Simcolourproject_2stim_asymm_v5,2020.2.10,MacIntel,60,61025ae37ef11b136ea224fe,,,,,,,,,2724,-56.0546875,-89.80078125,1,0,0,response5disk,,3,-12.3203125,1.55859375,1,0,0,rectangle,-12.3203125,1.55859375,1,0,0,-12.3203125,1.55859375,1,0,0,0,20,20,49,1,,,,,,,,
,,,,,,,,,,,,,FF,,,,,,,,0.949,,,,,,,,,,,,,,,,,,,,,,60fccd293da770308619aa88,61036bcc00901aa2abfd1f08,2021-07-29_22h03.36.682,Simcolourproject_2stim_asymm_v5,2020.2.10,MacIntel,60,61025ae37ef11b136ea224fe,,,,,,,,,4145,-80.73046875,-62.0390625,1,0,0,response5disk,,2,-9.52734375,7.91796875,1,0,0,rectangle,-9.52734375,7.91796875,1,0,0,-9.52734375,7.91796875,1,0,0,0,21,21,9,1,,,,,,,,
,,,,,,,,,,,,,FF,,,,,,,,2.1004,,,,,,,,,,,,,,,,,,,,,,60fccd293da770308619aa88,61036bcc00901aa2abfd1f08,2021-07-29_22h03.36.682,Simcolourproject_2stim_asymm_v5,2020.2.10,MacIntel,60,61025ae37ef11b136ea224fe,,,,,,,,,3966,-83.60546875,-22.53125,1,0,0,response5disk,,2,-32.03125,14.6953125,1,0,0,rectangle,-32.03125,14.6953125,1,0,0,-32.03125,14.6953125,1,0,0,0,22,22,106,1,,,,,,,,
,,,,,,,,,,,,,FF,,,,,,,,1.283,,,,,,,,,,,,,,,,,,,,,,60fccd293da770308619aa88,61036bcc00901aa2abfd1f08,2021-07-29_22h03.36.682,Simcolourproject_2stim_asymm_v5,2020.2.10,MacIntel,60,61025ae37ef11b136ea224fe,,,,,,,,,874,68.8984375,-50.8984375,1,0,0,response3disk,,5,-7.31640625,6.89453125,1,0,0,rectangle,-7.31640625,6.89453125,1,0,0,-7.31640625,6.89453125,1,0,0,0,23,23,42,1,,,,,,,,
,,,,,,,,,,,,,FF,,,,,,,,0.8836,,,,,,,,,,,,,,,,,,,,,,60fccd293da770308619aa88,61036bcc00901aa2abfd1f08,2021-07-29_22h03.36.682,Simcolourproject_2stim_asymm_v5,2020.2.10,MacIntel,60,61025ae37ef11b136ea224fe,,,,,,,,,3063,58.1953125,-39.921875,1,0,0,response3disk,,5,-2.19921875,1.94921875,1,0,0,rectangle,-2.19921875,1.94921875,1,0,0,-2.19921875,1.94921875,1,0,0,0,24,24,100,1,,,,,,,,
,,,,,,,,,,,,,FF,,,,,,,,2.0167,,,,,,,,,,,,,,,,,,,,,,60fccd293da770308619aa88,61036bcc00901aa2abfd1f08,2021-07-29_22h03.36.682,Simcolourproject_2stim_asymm_v5,2020.2.10,MacIntel,60,61025ae37ef11b136ea224fe,,,,,,,,,4187,55.0546875,28.5625,1,0,0,response1disk,,6,8.34765625,3.9296875,1,0,0,rectangle,8.34765625,3.9296875,1,0,0,8.34765625,3.9296875,1,0,0,0,25,25,2,1,,,,,,,,
,,,,,,,,,,,,,FF,,,,,,,,1.2167,,,,,,,,,,,,,,,,,,,,,,60fccd293da770308619aa88,61036bcc00901aa2abfd1f08,2021-07-29_22h03.36.682,Simcolourproject_2stim_asymm_v5,2020.2.10,MacIntel,60,61025ae37ef11b136ea224fe,,,,,,,,,1602,-61.26171875,-38.2734375,1,0,0,response5disk,,2,-27.921875,-9.171875,1,0,0,rectangle,-27.921875,-9.171875,1,0,0,-27.921875,-9.171875,1,0,0,0,26,26,135,1,,,,,,,,
,,,,,,,,,,,,,FF,,,,,,,,1.2831,,,,,,,,,,,,,,,,,,,,,,60fccd293da770308619aa88,61036bcc00901aa2abfd1f08,2021-07-29_22h03.36.682,Simcolourproject_2stim_asymm_v5,2020.2.10,MacIntel,60,61025ae37ef11b136ea224fe,,,,,,,,,1490,48.2265625,75.91796875,1,0,0,response1disk,,7,2.9609375,0.66796875,1,0,0,rectangle,68.09375,31.83203125,1,0,0,-3.21875,3.48046875,1,0,0,0,27,27,95,1,,response1disk_3,TRUE,6,6,"[154,140,228,14,19,10,191,190,40,146,28,198,36,296,156,29,193,196,16,264]",1.3496,rectangle
,,,,,,,,,,,,,FF,,,,,,,,0.9659,,,,,,,,,,,,,,,,,,,,,,60fccd293da770308619aa88,61036bcc00901aa2abfd1f08,2021-07-29_22h03.36.682,Simcolourproject_2stim_asymm_v5,2020.2.10,MacIntel,60,61025ae37ef11b136ea224fe,,,,,,,,,4285,64.359375,33.296875,1,0,0,response1disk,,6,-2.16015625,1.0859375,1,0,0,rectangle,62.01171875,-20.671875,1,0,0,9.60546875,-11.921875,1,0,0,0,28,28,74,1,,response3disk_3,TRUE,5,5,"[154,140,228,14,19,10,191,190,40,146,28,198,36,296,156,29,193,196,16,264]",1.665,rectangle
,,,,,,,,,,,,,FF,,,,,,,,2.6823,,,,,,,,,,,,,,,,,,,,,,60fccd293da770308619aa88,61036bcc00901aa2abfd1f08,2021-07-29_22h03.36.682,Simcolourproject_2stim_asymm_v5,2020.2.10,MacIntel,60,61025ae37ef11b136ea224fe,,,,,,,,,453,80.81640625,-47.63671875,1,0,0,response3disk,,5,11.93359375,-4.0078125,1,0,0,rectangle,11.93359375,-4.0078125,1,0,0,11.93359375,-4.0078125,1,0,0,0,29,29,102,1,,,,,,,,
,,,,,,,,,,,,,FF,,,,,,,,1.7158,,,,,,,,,,,,,,,,,,,,,,60fccd293da770308619aa88,61036bcc00901aa2abfd1f08,2021-07-29_22h03.36.682,Simcolourproject_2stim_asymm_v5,2020.2.10,MacIntel,60,61025ae37ef11b136ea224fe,,,,,,,,,4314,71.57421875,29.3125,1,0,0,response1disk,,6,9.1015625,3.5234375,1,0,0,rectangle,9.1015625,3.5234375,1,0,0,9.1015625,3.5234375,1,0,0,0,30,30,158,1,,,,,,,,
,,,,,,,,,,,,,FF,,,,,,,,1.0173,,,,,,,,,,,,,,,,,,,,,,60fccd293da770308619aa88,61036bcc00901aa2abfd1f08,2021-07-29_22h03.36.682,Simcolourproject_2stim_asymm_v5,2020.2.10,MacIntel,60,61025ae37ef11b136ea224fe,,,,,,,,,3902,-80.73828125,-64.328125,1,0,0,response5disk,,2,-0.55078125,-3.921875,1,0,0,rectangle,-0.55078125,-3.921875,1,0,0,-0.55078125,-3.921875,1,0,0,0,31,31,64,1,,,,,,,,
,,,,,,,,,,,,,FF,,,,,,,,0.9674,,,,,,,,,,,,,,,,,,,,,,60fccd293da770308619aa88,61036bcc00901aa2abfd1f08,2021-07-29_22h03.36.682,Simcolourproject_2stim_asymm_v5,2020.2.10,MacIntel,60,61025ae37ef11b136ea224fe,,,,,,,,,3979,29.65234375,-78.3984375,1,0,0,response3disk,,4,3.546875,-11.1953125,1,0,0,rectangle,3.546875,-11.1953125,1,0,0,3.546875,-11.1953125,1,0,0,0,32,32,83,1,,,,,,,,
,,,,,,,,,,,,,FF,,,,,,,,2.7491,,,,,,,,,,,,,,,,,,,,,,60fccd293da770308619aa88,61036bcc00901aa2abfd1f08,2021-07-29_22h03.36.682,Simcolourproject_2stim_asymm_v5,2020.2.10,MacIntel,60,61025ae37ef11b136ea224fe,,,,,,,,,3582,-49.80078125,-107.234375,1,0,0,response5disk,,3,-1.265625,0.84375,1,0,0,rectangle,-1.265625,0.84375,1,0,0,-1.265625,0.84375,1,0,0,0,33,33,48,1,,,,,,,,
,,,,,,,,,,,,,FF,,,,,,,,3.35,,,,,,,,,,,,,,,,,,,,,,60fccd293da770308619aa88,61036bcc00901aa2abfd1f08,2021-07-29_22h03.36.682,Simcolourproject_2stim_asymm_v5,2020.2.10,MacIntel,60,61025ae37ef11b136ea224fe,,,,,,,,,1313,66.9140625,-82.16796875,1,0,0,response3disk,,4,2.82421875,-2.3515625,1,0,0,rectangle,2.82421875,-2.3515625,1,0,0,2.82421875,-2.3515625,1,0,0,0,34,34,89,1,,,,,,,,
,,,,,,,,,,,,,FF,,,,,,,,1.5659,,,,,,,,,,,,,,,,,,,,,,60fccd293da770308619aa88,61036bcc00901aa2abfd1f08,2021-07-29_22h03.36.682,Simcolourproject_2stim_asymm_v5,2020.2.10,MacIntel,60,61025ae37ef11b136ea224fe,,,,,,,,,2059,74.99609375,35.8359375,1,0,0,response1disk,,6,1.36328125,-0.375,1,0,0,rectangle,38.3515625,-93.9765625,1,0,0,12.1875,-4.5546875,1,0,0,0,35,35,145,1,,response3disk_3,TRUE,4,4,"[154,140,228,14,19,10,191,190,40,146,28,198,36,296,156,29,193,196,16,264]",1.6828,rectangle
,,,,,,,,,,,,,FF,,,,,,,,1.8321,,,,,,,,,,,,,,,,,,,,,,60fccd293da770308619aa88,61036bcc00901aa2abfd1f08,2021-07-29_22h03.36.682,Simcolourproject_2stim_asymm_v5,2020.2.10,MacIntel,60,61025ae37ef11b136ea224fe,,,,,,,,,2912,94.13671875,49.40234375,1,0,0,response1disk,,6,14.73828125,-1.1953125,1,0,0,rectangle,14.73828125,-1.1953125,1,0,0,14.73828125,-1.1953125,1,0,0,0,36,36,82,1,,,,,,,,
,,,,,,,,,,,,,FF,,,,,,,,2.2675,,,,,,,,,,,,,,,,,,,,,,60fccd293da770308619aa88,61036bcc00901aa2abfd1f08,2021-07-29_22h03.36.682,Simcolourproject_2stim_asymm_v5,2020.2.10,MacIntel,60,61025ae37ef11b136ea224fe,,,,,,,,,250,25.0546875,-79.90625,1,0,0,response3disk,,4,0.26171875,0.0078125,1,0,0,rectangle,0.26171875,0.0078125,1,0,0,0.26171875,0.0078125,1,0,0,0,37,37,119,1,,,,,,,,
,,,,,,,,,,,,,FF,,,,,,,,1.1497,,,,,,,,,,,,,,,,,,,,,,60fccd293da770308619aa88,61036bcc00901aa2abfd1f08,2021-07-29_22h03.36.682,Simcolourproject_2stim_asymm_v5,2020.2.10,MacIntel,60,61025ae37ef11b136ea224fe,,,,,,,,,198,71.1015625,41.34375,1,0,0,response1disk,,6,10.80859375,7.53515625,1,0,0,rectangle,10.80859375,7.53515625,1,0,0,10.80859375,7.53515625,1,0,0,0,38,38,38,1,,,,,,,,
,,,,,,,,,,,,,FF,,,,,,,,1.1504,,,,,,,,,,,,,,,,,,,,,,60fccd293da770308619aa88,61036bcc00901aa2abfd1f08,2021-07-29_22h03.36.682,Simcolourproject_2stim_asymm_v5,2020.2.10,MacIntel,60,61025ae37ef11b136ea224fe,,,,,,,,,574,69.3203125,21.1953125,1,0,0,response1disk,,6,12.33984375,1.546875,1,0,0,rectangle,30.109375,-82.92578125,1,0,0,18.0625,-10.69921875,1,0,0,0,39,39,118,1,,response3disk_3,TRUE,4,4,"[154,140,228,14,19,10,191,190,40,146,28,198,36,296,156,29,193,196,16,264]",1.5498,rectangle
,,,,,,,,,,,,,FF,,,,,,,,2.0174,,,,,,,,,,,,,,,,,,,,,,60fccd293da770308619aa88,61036bcc00901aa2abfd1f08,2021-07-29_22h03.36.682,Simcolourproject_2stim_asymm_v5,2020.2.10,MacIntel,60,61025ae37ef11b136ea224fe,,,,,,,,,3207,30.02734375,-96.5625,1,0,0,response3disk,,4,4.875,-1.94921875,1,0,0,rectangle,4.875,-1.94921875,1,0,0,4.875,-1.94921875,1,0,0,0,40,40,124,1,,,,,,,,
,,,,,,,,,,,,,FF,,,,,,,,1.0492,,,,,,,,,,,,,,,,,,,,,,60fccd293da770308619aa88,61036bcc00901aa2abfd1f08,2021-07-29_22h03.36.682,Simcolourproject_2stim_asymm_v5,2020.2.10,MacIntel,60,61025ae37ef11b136ea224fe,,,,,,,,,1789,39.66796875,52.140625,1,0,0,response1disk,,7,11.23828125,-7.62109375,1,0,0,rectangle,11.23828125,-7.62109375,1,0,0,11.23828125,-7.62109375,1,0,0,0,41,41,90,1,,,,,,,,
,,,,,,,,,,,,,FF,,,,,,,,0.9167,,,,,,,,,,,,,,,,,,,,,,60fccd293da770308619aa88,61036bcc00901aa2abfd1f08,2021-07-29_22h03.36.682,Simcolourproject_2stim_asymm_v5,2020.2.10,MacIntel,60,61025ae37ef11b136ea224fe,,,,,,,,,1409,62.61328125,27.94921875,1,0,0,response1disk,,6,29.2421875,-0.5703125,1,0,0,rectangle,29.2421875,-0.5703125,1,0,0,29.2421875,-0.5703125,1,0,0,0,42,42,84,1,,,,,,,,
,,,,,,,,,,,,,FF,,,,,,,,0.9493,,,,,,,,,,,,,,,,,,,,,,60fccd293da770308619aa88,61036bcc00901aa2abfd1f08,2021-07-29_22h03.36.682,Simcolourproject_2stim_asymm_v5,2020.2.10,MacIntel,60,61025ae37ef11b136ea224fe,,,,,,,,,1778,61.62890625,29.5625,1,0,0,response1disk,,6,-2.02734375,-13.390625,1,0,0,rectangle,-2.02734375,-13.390625,1,0,0,-2.02734375,-13.390625,1,0,0,0,43,43,85,1,,,,,,,,
,,,,,,,,,,,,,FF,,,,,,,,0.8503,,,,,,,,,,,,,,,,,,,,,,60fccd293da770308619aa88,61036bcc00901aa2abfd1f08,2021-07-29_22h03.36.682,Simcolourproject_2stim_asymm_v5,2020.2.10,MacIntel,60,61025ae37ef11b136ea224fe,,,,,,,,,2756,45.69140625,15.94921875,1,0,0,response1disk,,6,-2.7265625,2.921875,1,0,0,rectangle,-2.7265625,2.921875,1,0,0,-2.7265625,2.921875,1,0,0,0,44,44,54,1,,,,,,,,
,,,,,,,,,,,,,FF,,,,,,,,1.4996,,,,,,,,,,,,,,,,,,,,,,60fccd293da770308619aa88,61036bcc00901aa2abfd1f08,2021-07-29_22h03.36.682,Simcolourproject_2stim_asymm_v5,2020.2.10,MacIntel,60,61025ae37ef11b136ea224fe,,,,,,,,,3237,-54.4140625,-80.265625,1,0,0,response5disk,,3,-11.90234375,8.734375,1,0,0,rectangle,-11.90234375,8.734375,1,0,0,-11.90234375,8.734375,1,0,0,0,45,45,153,1,,,,,,,,
,,,,,,,,,,,,,FF,,,,,,,,0.8663,,,,,,,,,,,,,,,,,,,,,,60fccd293da770308619aa88,61036bcc00901aa2abfd1f08,2021-07-29_22h03.36.682,Simcolourproject_2stim_asymm_v5,2020.2.10,MacIntel,60,61025ae37ef11b136ea224fe,,,,,,,,,755,88.96875,-34.74609375,1,0,0,response3disk,,5,14.6171875,-2.22265625,1,0,0,rectangle,14.6171875,-2.22265625,1,0,0,14.6171875,-2.22265625,1,0,0,0,46,46,122,1,,,,,,,,
,,,,,,,,,,,,,FF,,,,,,,,1.8501,,,,,,,,,,,,,,,,,,,,,,60fccd293da770308619aa88,61036bcc00901aa2abfd1f08,2021-07-29_22h03.36.682,Simcolourproject_2stim_asymm_v5,2020.2.10,MacIntel,60,61025ae37ef11b136ea224fe,,,,,,,,,116,114.3632813,44.24609375,1,0,0,response1disk,,6,15.21875,-1.82421875,1,0,0,rectangle,15.21875,-1.82421875,1,0,0,15.21875,-1.82421875,1,0,0,0,47,47,109,1,,,,,,,,
,,,,,,,,,,,,,FF,,,,,,,,1.217,,,,,,,,,,,,,,,,,,,,,,60fccd293da770308619aa88,61036bcc00901aa2abfd1f08,2021-07-29_22h03.36.682,Simcolourproject_2stim_asymm_v5,2020.2.10,MacIntel,60,61025ae37ef11b136ea224fe,,,,,,,,,3059,18.78515625,-96.2421875,1,0,0,response3disk,,4,17.9921875,-13.67578125,1,0,0,rectangle,17.9921875,-13.67578125,1,0,0,17.9921875,-13.67578125,1,0,0,0,48,48,123,1,,,,,,,,
,,,,,,,,,,,,,FF,,,,,,,,1.1001,,,,,,,,,,,,,,,,,,,,,,60fccd293da770308619aa88,61036bcc00901aa2abfd1f08,2021-07-29_22h03.36.682,Simcolourproject_2stim_asymm_v5,2020.2.10,MacIntel,60,61025ae37ef11b136ea224fe,,,,,,,,,2578,77.6953125,45.02734375,1,0,0,response1disk,,6,22.32421875,4.03515625,1,0,0,rectangle,22.32421875,4.03515625,1,0,0,22.32421875,4.03515625,1,0,0,0,49,49,65,1,,,,,,,,
,,,,,,,,,,,,,FF,,,,,,,,0.7675,,,,,,,,,,,,,,,,,,,,,,60fccd293da770308619aa88,61036bcc00901aa2abfd1f08,2021-07-29_22h03.36.682,Simcolourproject_2stim_asymm_v5,2020.2.10,MacIntel,60,61025ae37ef11b136ea224fe,,,,,,,,,934,46.578125,52.5625,1,0,0,response1disk,,7,19.80078125,8.62109375,1,0,0,rectangle,19.80078125,8.62109375,1,0,0,19.80078125,8.62109375,1,0,0,0,50,50,159,1,,,,,,,,
,,,,,,,,,,,,,FF,,,,,,,,2.282,,,,,,,,,,,,,,,,,,,,,,60fccd293da770308619aa88,61036bcc00901aa2abfd1f08,2021-07-29_22h03.36.682,Simcolourproject_2stim_asymm_v5,2020.2.10,MacIntel,60,61025ae37ef11b136ea224fe,,,,,,,,,1077,83.75390625,27.96875,1,0,0,response1disk,,6,30.03515625,14.953125,1,0,0,rectangle,30.03515625,14.953125,1,0,0,30.03515625,14.953125,1,0,0,0,51,51,96,1,,,,,,,,
,,,,,,,,,,,,,FF,,,,,,,,1.201,,,,,,,,,,,,,,,,,,,,,,60fccd293da770308619aa88,61036bcc00901aa2abfd1f08,2021-07-29_22h03.36.682,Simcolourproject_2stim_asymm_v5,2020.2.10,MacIntel,60,61025ae37ef11b136ea224fe,,,,,,,,,1306,-80.51953125,-55.8515625,1,0,0,response5disk,,2,-1.24609375,2.6953125,1,0,0,rectangle,-1.24609375,2.6953125,1,0,0,-1.24609375,2.6953125,1,0,0,0,52,52,40,1,,,,,,,,
,,,,,,,,,,,,,FF,,,,,,,,0.8336,,,,,,,,,,,,,,,,,,,,,,60fccd293da770308619aa88,61036bcc00901aa2abfd1f08,2021-07-29_22h03.36.682,Simcolourproject_2stim_asymm_v5,2020.2.10,MacIntel,60,61025ae37ef11b136ea224fe,,,,,,,,,1897,-64.125,-52.6796875,1,0,0,response5disk,,2,-7.95703125,2.55078125,1,0,0,rectangle,-7.95703125,2.55078125,1,0,0,-7.95703125,2.55078125,1,0,0,0,53,53,8,1,,,,,,,,
,,,,,,,,,,,,,FF,,,,,,,,1.3162,,,,,,,,,,,,,,,,,,,,,,60fccd293da770308619aa88,61036bcc00901aa2abfd1f08,2021-07-29_22h03.36.682,Simcolourproject_2stim_asymm_v5,2020.2.10,MacIntel,60,61025ae37ef11b136ea224fe,,,,,,,,,248,-41.08203125,-76.8828125,1,0,0,response5disk,,3,-22.77734375,-9.35546875,1,0,0,rectangle,-22.77734375,-9.35546875,1,0,0,-22.77734375,-9.35546875,1,0,0,0,54,54,155,1,,,,,,,,
,,,,,,,,,,,,,FF,,,,,,,,1.0835,,,,,,,,,,,,,,,,,,,,,,60fccd293da770308619aa88,61036bcc00901aa2abfd1f08,2021-07-29_22h03.36.682,Simcolourproject_2stim_asymm_v5,2020.2.10,MacIntel,60,61025ae37ef11b136ea224fe,,,,,,,,,2766,49.75,30.01953125,1,0,0,response1disk,,6,1.8984375,9.546875,1,0,0,rectangle,1.8984375,9.546875,1,0,0,1.8984375,9.546875,1,0,0,0,55,55,86,1,,,,,,,,
,,,,,,,,,,,,,FF,,,,,,,,0.9821,,,,,,,,,,,,,,,,,,,,,,60fccd293da770308619aa88,61036bcc00901aa2abfd1f08,2021-07-29_22h03.36.682,Simcolourproject_2stim_asymm_v5,2020.2.10,MacIntel,60,61025ae37ef11b136ea224fe,,,,,,,,,2039,-31.25390625,-90.01171875,1,0,0,response5disk,,3,-20.33984375,2.64453125,1,0,0,rectangle,-20.33984375,2.64453125,1,0,0,-20.33984375,2.64453125,1,0,0,0,56,56,5,1,,,,,,,,
,,,,,,,,,,,,,FF,,,,,,,,2.0998,,,,,,,,,,,,,,,,,,,,,,60fccd293da770308619aa88,61036bcc00901aa2abfd1f08,2021-07-29_22h03.36.682,Simcolourproject_2stim_asymm_v5,2020.2.10,MacIntel,60,61025ae37ef11b136ea224fe,,,,,,,,,3839,-30.0625,-62.8828125,1,0,0,response5disk,,3,-22.640625,-2.6953125,1,0,0,rectangle,-22.640625,-2.6953125,1,0,0,-22.640625,-2.6953125,1,0,0,0,57,57,127,1,,,,,,,,
,,,,,,,,,,,,,FF,,,,,,,,1.1495,,,,,,,,,,,,,,,,,,,,,,60fccd293da770308619aa88,61036bcc00901aa2abfd1f08,2021-07-29_22h03.36.682,Simcolourproject_2stim_asymm_v5,2020.2.10,MacIntel,60,61025ae37ef11b136ea224fe,,,,,,,,,2164,-71.23046875,34.05078125,1,0,0,response7disk,,1,-15.5234375,15.40625,1,0,0,rectangle,-15.5234375,15.40625,1,0,0,-15.5234375,15.40625,1,0,0,0,58,58,115,1,,,,,,,,
,,,,,,,,,,,,,FF,,,,,,,,0.8333,,,,,,,,,,,,,,,,,,,,,,60fccd293da770308619aa88,61036bcc00901aa2abfd1f08,2021-07-29_22h03.36.682,Simcolourproject_2stim_asymm_v5,2020.2.10,MacIntel,60,61025ae37ef11b136ea224fe,,,,,,,,,2954,-53.65625,19.8125,1,0,0,response7disk,,1,-15.1484375,-0.7734375,1,0,0,rectangle,-15.1484375,-0.7734375,1,0,0,-15.1484375,-0.7734375,1,0,0,0,59,59,21,1,,,,,,,,
,,,,,,,,,,,,,FF,,,,,,,,1.7324,,,,,,,,,,,,,,,,,,,,,,60fccd293da770308619aa88,61036bcc00901aa2abfd1f08,2021-07-29_22h03.36.682,Simcolourproject_2stim_asymm_v5,2020.2.10,MacIntel,60,61025ae37ef11b136ea224fe,,,,,,,,,27,57.33203125,34.984375,1,0,0,response1disk,,6,2.42578125,15.5078125,1,0,0,rectangle,2.42578125,15.5078125,1,0,0,2.42578125,15.5078125,1,0,0,0,60,60,97,1,,,,,,,,
,,,,,,,,,,,,,FF,,,,,,,,0.733,,,,,,,,,,,,,,,,,,,,,,60fccd293da770308619aa88,61036bcc00901aa2abfd1f08,2021-07-29_22h03.36.682,Simcolourproject_2stim_asymm_v5,2020.2.10,MacIntel,60,61025ae37ef11b136ea224fe,,,,,,,,,2079,66.14453125,27.046875,1,0,0,response1disk,,6,8.76171875,15,1,0,0,rectangle,8.76171875,15,1,0,0,8.76171875,15,1,0,0,0,61,61,126,1,,,,,,,,
,,,,,,,,,,,,,FF,,,,,,,,6.4665,,,,,,,,,,,,,,,,,,,,,,60fccd293da770308619aa88,61036bcc00901aa2abfd1f08,2021-07-29_22h03.36.682,Simcolourproject_2stim_asymm_v5,2020.2.10,MacIntel,60,61025ae37ef11b136ea224fe,,,,,,,,,1777,74.40625,-41.30859375,1,0,0,response3disk,,5,0.46484375,1.7265625,1,0,0,rectangle,0.46484375,1.7265625,1,0,0,0.46484375,1.7265625,1,0,0,0,62,62,116,1,,,,,,,,
,,,,,,,,,,,,,FF,,,,,,,,0.9335,,,,,,,,,,,,,,,,,,,,,,60fccd293da770308619aa88,61036bcc00901aa2abfd1f08,2021-07-29_22h03.36.682,Simcolourproject_2stim_asymm_v5,2020.2.10,MacIntel,60,61025ae37ef11b136ea224fe,,,,,,,,,1556,67.71875,36.62890625,1,0,0,response1disk,,6,4.4609375,16.125,1,0,0,rectangle,4.4609375,16.125,1,0,0,4.4609375,16.125,1,0,0,0,63,63,36,1,,,,,,,,
,,,,,,,,,,,,,FF,,,,,,,,2.1827,,,,,,,,,,,,,,,,,,,,,,60fccd293da770308619aa88,61036bcc00901aa2abfd1f08,2021-07-29_22h03.36.682,Simcolourproject_2stim_asymm_v5,2020.2.10,MacIntel,60,61025ae37ef11b136ea224fe,,,,,,,,,3414,72.90625,23.5234375,1,0,0,response1disk,,6,4.62109375,-3.56640625,1,0,0,rectangle,4.62109375,-3.56640625,1,0,0,4.62109375,-3.56640625,1,0,0,0,64,64,129,1,,,,,,,,
,,,,,,,,,,,,,FF,,,,,,,,0.8502,,,,,,,,,,,,,,,,,,,,,,60fccd293da770308619aa88,61036bcc00901aa2abfd1f08,2021-07-29_22h03.36.682,Simcolourproject_2stim_asymm_v5,2020.2.10,MacIntel,60,61025ae37ef11b136ea224fe,,,,,,,,,2093,-30.4609375,61.0859375,1,0,0,response7disk,,0,-25.49609375,-4.2109375,1,0,0,rectangle,-25.49609375,-4.2109375,1,0,0,-25.49609375,-4.2109375,1,0,0,0,65,65,80,1,,,,,,,,
,,,,,,,,,,,,,FF,,,,,,,,5.984,,,,,,,,,,,,,,,,,,,,,,60fccd293da770308619aa88,61036bcc00901aa2abfd1f08,2021-07-29_22h03.36.682,Simcolourproject_2stim_asymm_v5,2020.2.10,MacIntel,60,61025ae37ef11b136ea224fe,,,,,,,,,54,102.03125,22.94921875,1,0,0,response1disk,,6,-3.84375,-4.52734375,1,0,0,rectangle,-3.84375,-4.52734375,1,0,0,-3.84375,-4.52734375,1,0,0,0,66,66,57,1,,,,,,,,
,,,,,,,,,,,,,FF,,,,,,,,2.0661,,,,,,,,,,,,,,,,,,,,,,60fccd293da770308619aa88,61036bcc00901aa2abfd1f08,2021-07-29_22h03.36.682,Simcolourproject_2stim_asymm_v5,2020.2.10,MacIntel,60,61025ae37ef11b136ea224fe,,,,,,,,,2240,43.140625,-85.32421875,1,0,0,response3disk,,4,3.359375,0.0546875,1,0,0,rectangle,3.359375,0.0546875,1,0,0,3.359375,0.0546875,1,0,0,0,67,67,51,1,,,,,,,,
,,,,,,,,,,,,,FF,,,,,,,,1.6008,,,,,,,,,,,,,,,,,,,,,,60fccd293da770308619aa88,61036bcc00901aa2abfd1f08,2021-07-29_22h03.36.682,Simcolourproject_2stim_asymm_v5,2020.2.10,MacIntel,60,61025ae37ef11b136ea224fe,,,,,,,,,2709,-105.203125,-48.82421875,1,0,0,response5disk,,2,-20.28515625,-14.44921875,1,0,0,rectangle,-20.28515625,-14.44921875,1,0,0,-20.28515625,-14.44921875,1,0,0,0,68,68,41,1,,,,,,,,
,,,,,,,,,,,,,FF,,,,,,,,1.0826,,,,,,,,,,,,,,,,,,,,,,60fccd293da770308619aa88,61036bcc00901aa2abfd1f08,2021-07-29_22h03.36.682,Simcolourproject_2stim_asymm_v5,2020.2.10,MacIntel,60,61025ae37ef11b136ea224fe,,,,,,,,,5,-61.7734375,-42.13671875,1,0,0,response5disk,,2,-15.2734375,-6.50390625,1,0,0,rectangle,-15.2734375,-6.50390625,1,0,0,-15.2734375,-6.50390625,1,0,0,0,69,69,157,1,,,,,,,,
,,,,,,,,,,,,,FF,,,,,,,,0.7665,,,,,,,,,,,,,,,,,,,,,,60fccd293da770308619aa88,61036bcc00901aa2abfd1f08,2021-07-29_22h03.36.682,Simcolourproject_2stim_asymm_v5,2020.2.10,MacIntel,60,61025ae37ef11b136ea224fe,,,,,,,,,1425,45.12890625,56.953125,1,0,0,response1disk,,7,12.90625,-5.2265625,1,0,0,rectangle,12.90625,-5.2265625,1,0,0,12.90625,-5.2265625,1,0,0,0,70,70,107,1,,,,,,,,
,,,,,,,,,,,,,FF,,,,,,,,1.2336,,,,,,,,,,,,,,,,,,,,,,60fccd293da770308619aa88,61036bcc00901aa2abfd1f08,2021-07-29_22h03.36.682,Simcolourproject_2stim_asymm_v5,2020.2.10,MacIntel,60,61025ae37ef11b136ea224fe,,,,,,,,,3844,-65.1640625,26.46484375,1,0,0,response7disk,,1,-6.04296875,-1.5078125,1,0,0,rectangle,-6.04296875,-1.5078125,1,0,0,-6.04296875,-1.5078125,1,0,0,0,71,71,128,1,,,,,,,,
,,,,,,,,,,,,,FF,,,,,,,,0.6496,,,,,,,,,,,,,,,,,,,,,,60fccd293da770308619aa88,61036bcc00901aa2abfd1f08,2021-07-29_22h03.36.682,Simcolourproject_2stim_asymm_v5,2020.2.10,MacIntel,60,61025ae37ef11b136ea224fe,,,,,,,,,2541,-31.6328125,47,1,0,0,response7disk,,0,-33.7421875,7.22265625,1,0,0,rectangle,-33.7421875,7.22265625,1,0,0,-33.7421875,7.22265625,1,0,0,0,72,72,15,1,,,,,,,,
,,,,,,,,,,,,,FF,,,,,,,,0.8841,,,,,,,,,,,,,,,,,,,,,,60fccd293da770308619aa88,61036bcc00901aa2abfd1f08,2021-07-29_22h03.36.682,Simcolourproject_2stim_asymm_v5,2020.2.10,MacIntel,60,61025ae37ef11b136ea224fe,,,,,,,,,4051,-32.71484375,-69.92578125,1,0,0,response5disk,,3,-6.1953125,-11.46484375,1,0,0,rectangle,-6.1953125,-11.46484375,1,0,0,-6.1953125,-11.46484375,1,0,0,0,73,73,37,1,,,,,,,,
,,,,,,,,,,,,,FF,,,,,,,,0.8992,,,,,,,,,,,,,,,,,,,,,,60fccd293da770308619aa88,61036bcc00901aa2abfd1f08,2021-07-29_22h03.36.682,Simcolourproject_2stim_asymm_v5,2020.2.10,MacIntel,60,61025ae37ef11b136ea224fe,,,,,,,,,635,-30.546875,-56.48046875,1,0,0,response5disk,,3,-2.2109375,-5.90234375,1,0,0,rectangle,-2.2109375,-5.90234375,1,0,0,-2.2109375,-5.90234375,1,0,0,0,74,74,61,1,,,,,,,,
,,,,,,,,,,,,,FF,,,,,,,,0.8157,,,,,,,,,,,,,,,,,,,,,,60fccd293da770308619aa88,61036bcc00901aa2abfd1f08,2021-07-29_22h03.36.682,Simcolourproject_2stim_asymm_v5,2020.2.10,MacIntel,60,61025ae37ef11b136ea224fe,,,,,,,,,670,73.9609375,48.890625,1,0,0,response1disk,,6,27.453125,9.74609375,1,0,0,rectangle,27.453125,9.74609375,1,0,0,27.453125,9.74609375,1,0,0,0,75,75,121,1,,,,,,,,
,,,,,,,,,,,,,FF,,,,,,,,1.3828,,,,,,,,,,,,,,,,,,,,,,60fccd293da770308619aa88,61036bcc00901aa2abfd1f08,2021-07-29_22h03.36.682,Simcolourproject_2stim_asymm_v5,2020.2.10,MacIntel,60,61025ae37ef11b136ea224fe,,,,,,,,,4297,37.296875,61.1796875,1,0,0,response1disk,,7,-3.234375,12.59765625,1,0,0,rectangle,-3.234375,12.59765625,1,0,0,-3.234375,12.59765625,1,0,0,0,76,76,117,1,,,,,,,,
,,,,,,,,,,,,,FF,,,,,,,,0.8,,,,,,,,,,,,,,,,,,,,,,60fccd293da770308619aa88,61036bcc00901aa2abfd1f08,2021-07-29_22h03.36.682,Simcolourproject_2stim_asymm_v5,2020.2.10,MacIntel,60,61025ae37ef11b136ea224fe,,,,,,,,,4223,-52.9375,27.17578125,1,0,0,response7disk,,1,-11.59375,-0.4765625,1,0,0,rectangle,-11.59375,-0.4765625,1,0,0,-11.59375,-0.4765625,1,0,0,0,77,77,131,1,,,,,,,,
,,,,,,,,,,,,,FF,,,,,,,,0.6991,,,,,,,,,,,,,,,,,,,,,,60fccd293da770308619aa88,61036bcc00901aa2abfd1f08,2021-07-29_22h03.36.682,Simcolourproject_2stim_asymm_v5,2020.2.10,MacIntel,60,61025ae37ef11b136ea224fe,,,,,,,,,2342,66.63671875,29.97265625,1,0,0,response1disk,,6,9.015625,7.46875,1,0,0,rectangle,9.015625,7.46875,1,0,0,9.015625,7.46875,1,0,0,0,78,78,70,1,,,,,,,,
,,,,,,,,,,,,,FF,,,,,,,,0.6995,,,,,,,,,,,,,,,,,,,,,,60fccd293da770308619aa88,61036bcc00901aa2abfd1f08,2021-07-29_22h03.36.682,Simcolourproject_2stim_asymm_v5,2020.2.10,MacIntel,60,61025ae37ef11b136ea224fe,,,,,,,,,793,54.05859375,62.6640625,1,0,0,response1disk,,7,11.7890625,12.8359375,1,0,0,rectangle,11.7890625,12.8359375,1,0,0,11.7890625,12.8359375,1,0,0,0,79,79,68,1,,,,,,,,
,,,,,,,,,,,,,FF,,,,,,,,1.1662,,,,,,,,,,,,,,,,,,,,,,60fccd293da770308619aa88,61036bcc00901aa2abfd1f08,2021-07-29_22h03.36.682,Simcolourproject_2stim_asymm_v5,2020.2.10,MacIntel,60,61025ae37ef11b136ea224fe,,,,,,,,,3555,-35.77734375,-84.79296875,1,0,0,response5disk,,3,-3.91796875,2.72265625,1,0,0,rectangle,-3.91796875,2.72265625,1,0,0,-3.91796875,2.72265625,1,0,0,0,80,80,32,1,,,,,,,,
,,,,,,,,,,,,,FF,,,,,,,,3.6666,,,,,,,,,,,,,,,,,,,,,,60fccd293da770308619aa88,61036bcc00901aa2abfd1f08,2021-07-29_22h03.36.682,Simcolourproject_2stim_asymm_v5,2020.2.10,MacIntel,60,61025ae37ef11b136ea224fe,,,,,,,,,2243,33.0703125,-60.9765625,1,0,0,response3disk,,4,7.62890625,-7.30078125,1,0,0,rectangle,7.62890625,-7.30078125,1,0,0,7.62890625,-7.30078125,1,0,0,0,81,81,130,1,,,,,,,,
,,,,,,,,,,,,,FF,,,,,,,,0.6334,,,,,,,,,,,,,,,,,,,,,,60fccd293da770308619aa88,61036bcc00901aa2abfd1f08,2021-07-29_22h03.36.682,Simcolourproject_2stim_asymm_v5,2020.2.10,MacIntel,60,61025ae37ef11b136ea224fe,,,,,,,,,291,53.40625,32.07421875,1,0,0,response1disk,,6,-11.4765625,6.21484375,1,0,0,rectangle,-11.4765625,6.21484375,1,0,0,-11.4765625,6.21484375,1,0,0,0,82,82,78,1,,,,,,,,
,,,,,,,,,,,,,FF,,,,,,,,1.3829,,,,,,,,,,,,,,,,,,,,,,60fccd293da770308619aa88,61036bcc00901aa2abfd1f08,2021-07-29_22h03.36.682,Simcolourproject_2stim_asymm_v5,2020.2.10,MacIntel,60,61025ae37ef11b136ea224fe,,,,,,,,,4009,64.47265625,-29.359375,1,0,0,response3disk,,5,-4.5,-9.45703125,1,0,0,rectangle,-4.5,-9.45703125,1,0,0,-4.5,-9.45703125,1,0,0,0,83,83,133,1,,,,,,,,
,,,,,,,,,,,,,FF,,,,,,,,0.7168,,,,,,,,,,,,,,,,,,,,,,60fccd293da770308619aa88,61036bcc00901aa2abfd1f08,2021-07-29_22h03.36.682,Simcolourproject_2stim_asymm_v5,2020.2.10,MacIntel,60,61025ae37ef11b136ea224fe,,,,,,,,,3177,68.01953125,20.26171875,1,0,0,response1disk,,6,11.95703125,-2.96875,1,0,0,rectangle,11.95703125,-2.96875,1,0,0,11.95703125,-2.96875,1,0,0,0,84,84,55,1,,,,,,,,
,,,,,,,,,,,,,FF,,,,,,,,1.2663,,,,,,,,,,,,,,,,,,,,,,60fccd293da770308619aa88,61036bcc00901aa2abfd1f08,2021-07-29_22h03.36.682,Simcolourproject_2stim_asymm_v5,2020.2.10,MacIntel,60,61025ae37ef11b136ea224fe,,,,,,,,,2486,-33.203125,-77.3359375,1,0,0,response5disk,,3,-2.96875,-2.1015625,1,0,0,rectangle,-2.96875,-2.1015625,1,0,0,-2.96875,-2.1015625,1,0,0,0,85,85,11,1,,,,,,,,
,,,,,,,,,,,,,FF,,,,,,,,2.2684,,,,,,,,,,,,,,,,,,,,,,60fccd293da770308619aa88,61036bcc00901aa2abfd1f08,2021-07-29_22h03.36.682,Simcolourproject_2stim_asymm_v5,2020.2.10,MacIntel,60,61025ae37ef11b136ea224fe,,,,,,,,,2884,-90.0234375,-40.921875,1,0,0,response5disk,,2,-32.96875,-9.64453125,1,0,0,rectangle,-32.96875,-9.64453125,1,0,0,-32.96875,-9.64453125,1,0,0,0,86,86,103,1,,,,,,,,
,,,,,,,,,,,,,FF,,,,,,,,2.9501,,,,,,,,,,,,,,,,,,,,,,60fccd293da770308619aa88,61036bcc00901aa2abfd1f08,2021-07-29_22h03.36.682,Simcolourproject_2stim_asymm_v5,2020.2.10,MacIntel,60,61025ae37ef11b136ea224fe,,,,,,,,,514,77.3671875,69.11328125,1,0,0,response1disk,,6,-24.0546875,-16.81640625,1,0,0,rectangle,-24.0546875,-16.81640625,1,0,0,-24.0546875,-16.81640625,1,0,0,0,87,87,20,1,,,,,,,,
,,,,,,,,,,,,,FF,,,,,,,,2.3835,,,,,,,,,,,,,,,,,,,,,,60fccd293da770308619aa88,61036bcc00901aa2abfd1f08,2021-07-29_22h03.36.682,Simcolourproject_2stim_asymm_v5,2020.2.10,MacIntel,60,61025ae37ef11b136ea224fe,,,,,,,,,2317,62.7421875,-29.63671875,1,0,0,response3disk,,5,8.3671875,7.5234375,1,0,0,rectangle,8.3671875,7.5234375,1,0,0,8.3671875,7.5234375,1,0,0,0,88,88,45,1,,,,,,,,
,,,,,,,,,,,,,FF,,,,,,,,1.2825,,,,,,,,,,,,,,,,,,,,,,60fccd293da770308619aa88,61036bcc00901aa2abfd1f08,2021-07-29_22h03.36.682,Simcolourproject_2stim_asymm_v5,2020.2.10,MacIntel,60,61025ae37ef11b136ea224fe,,,,,,,,,3686,-26.14453125,-57.01171875,1,0,0,response5disk,,3,-15.5234375,-1.91015625,1,0,0,rectangle,-15.5234375,-1.91015625,1,0,0,-15.5234375,-1.91015625,1,0,0,0,89,89,147,1,,,,,,,,
,,,,,,,,,,,,,FF,,,,,,,,1.4649,,,,,,,,,,,,,,,,,,,,,,60fccd293da770308619aa88,61036bcc00901aa2abfd1f08,2021-07-29_22h03.36.682,Simcolourproject_2stim_asymm_v5,2020.2.10,MacIntel,60,61025ae37ef11b136ea224fe,,,,,,,,,4104,-80.48828125,-30.48828125,1,0,0,response5disk,,2,-20.03515625,1.890625,1,0,0,rectangle,-20.03515625,1.890625,1,0,0,-20.03515625,1.890625,1,0,0,0,90,90,59,1,,,,,,,,
,,,,,,,,,,,,,FF,,,,,,,,1.4821,,,,,,,,,,,,,,,,,,,,,,60fccd293da770308619aa88,61036bcc00901aa2abfd1f08,2021-07-29_22h03.36.682,Simcolourproject_2stim_asymm_v5,2020.2.10,MacIntel,60,61025ae37ef11b136ea224fe,,,,,,,,,328,46.14453125,67.75390625,1,0,0,response1disk,,7,13.46875,17.28125,1,0,0,rectangle,13.46875,17.28125,1,0,0,13.46875,17.28125,1,0,0,0,91,91,16,1,,,,,,,,
,,,,,,,,,,,,,FF,,,,,,,,0.5992,,,,,,,,,,,,,,,,,,,,,,60fccd293da770308619aa88,61036bcc00901aa2abfd1f08,2021-07-29_22h03.36.682,Simcolourproject_2stim_asymm_v5,2020.2.10,MacIntel,60,61025ae37ef11b136ea224fe,,,,,,,,,1642,45.28125,55.15625,1,0,0,response1disk,,7,15.68359375,8.8125,1,0,0,rectangle,15.68359375,8.8125,1,0,0,15.68359375,8.8125,1,0,0,0,92,92,4,1,,,,,,,,
,,,,,,,,,,,,,FF,,,,,,,,0.9678,,,,,,,,,,,,,,,,,,,,,,60fccd293da770308619aa88,61036bcc00901aa2abfd1f08,2021-07-29_22h03.36.682,Simcolourproject_2stim_asymm_v5,2020.2.10,MacIntel,60,61025ae37ef11b136ea224fe,,,,,,,,,3135,79.8125,59.4765625,1,0,0,response1disk,,6,7.921875,4.27734375,1,0,0,rectangle,7.921875,4.27734375,1,0,0,7.921875,4.27734375,1,0,0,0,93,93,25,1,,,,,,,,
,,,,,,,,,,,,,FF,,,,,,,,0.9836,,,,,,,,,,,,,,,,,,,,,,60fccd293da770308619aa88,61036bcc00901aa2abfd1f08,2021-07-29_22h03.36.682,Simcolourproject_2stim_asymm_v5,2020.2.10,MacIntel,60,61025ae37ef11b136ea224fe,,,,,,,,,2036,-36.8359375,-80.796875,1,0,0,response5disk,,3,-0.22265625,-6.37109375,1,0,0,rectangle,-0.22265625,-6.37109375,1,0,0,-0.22265625,-6.37109375,1,0,0,0,94,94,28,1,,,,,,,,
,,,,,,,,,,,,,FF,,,,,,,,0.8166,,,,,,,,,,,,,,,,,,,,,,60fccd293da770308619aa88,61036bcc00901aa2abfd1f08,2021-07-29_22h03.36.682,Simcolourproject_2stim_asymm_v5,2020.2.10,MacIntel,60,61025ae37ef11b136ea224fe,,,,,,,,,3828,68.1640625,24.35546875,1,0,0,response1disk,,6,-2.984375,5.36328125,1,0,0,rectangle,-2.984375,5.36328125,1,0,0,-2.984375,5.36328125,1,0,0,0,95,95,58,1,,,,,,,,
,,,,,,,,,,,,,FF,,,,,,,,1.2995,,,,,,,,,,,,,,,,,,,,,,60fccd293da770308619aa88,61036bcc00901aa2abfd1f08,2021-07-29_22h03.36.682,Simcolourproject_2stim_asymm_v5,2020.2.10,MacIntel,60,61025ae37ef11b136ea224fe,,,,,,,,,3107,-84.5390625,-51.93359375,1,0,0,response5disk,,2,-9.01953125,10.25390625,1,0,0,rectangle,-9.01953125,10.25390625,1,0,0,-9.01953125,10.25390625,1,0,0,0,96,96,6,1,,,,,,,,
,,,,,,,,,,,,,FF,,,,,,,,0.8172,,,,,,,,,,,,,,,,,,,,,,60fccd293da770308619aa88,61036bcc00901aa2abfd1f08,2021-07-29_22h03.36.682,Simcolourproject_2stim_asymm_v5,2020.2.10,MacIntel,60,61025ae37ef11b136ea224fe,,,,,,,,,444,-52.34375,-43.4453125,1,0,0,response5disk,,2,7.1875,3.83984375,1,0,0,rectangle,7.1875,3.83984375,1,0,0,7.1875,3.83984375,1,0,0,0,97,97,140,1,,,,,,,,
,,,,,,,,,,,,,FF,,,,,,,,1.6991,,,,,,,,,,,,,,,,,,,,,,60fccd293da770308619aa88,61036bcc00901aa2abfd1f08,2021-07-29_22h03.36.682,Simcolourproject_2stim_asymm_v5,2020.2.10,MacIntel,60,61025ae37ef11b136ea224fe,,,,,,,,,313,84.6953125,66.91015625,1,0,0,response1disk,,6,-4.375,-4.84375,1,0,0,rectangle,-4.375,-4.84375,1,0,0,-4.375,-4.84375,1,0,0,0,98,98,35,1,,,,,,,,
,,,,,,,,,,,,,FF,,,,,,,,1.0833,,,,,,,,,,,,,,,,,,,,,,60fccd293da770308619aa88,61036bcc00901aa2abfd1f08,2021-07-29_22h03.36.682,Simcolourproject_2stim_asymm_v5,2020.2.10,MacIntel,60,61025ae37ef11b136ea224fe,,,,,,,,,3009,82.9375,57.9609375,1,0,0,response1disk,,6,16.9921875,-6.83984375,1,0,0,rectangle,16.9921875,-6.83984375,1,0,0,16.9921875,-6.83984375,1,0,0,0,99,99,1,1,,,,,,,,
,,,,,,,,,,,,,FF,,,,,,,,0.6008,,,,,,,,,,,,,,,,,,,,,,60fccd293da770308619aa88,61036bcc00901aa2abfd1f08,2021-07-29_22h03.36.682,Simcolourproject_2stim_asymm_v5,2020.2.10,MacIntel,60,61025ae37ef11b136ea224fe,,,,,,,,,2126,39.41796875,44.58203125,1,0,0,response1disk,,7,21.91796875,-5.203125,1,0,0,rectangle,21.91796875,-5.203125,1,0,0,21.91796875,-5.203125,1,0,0,0,100,100,79,1,,,,,,,,
,,,,,,,,,,,,,FF,,,,,,,,0.966,,,,,,,,,,,,,,,,,,,,,,60fccd293da770308619aa88,61036bcc00901aa2abfd1f08,2021-07-29_22h03.36.682,Simcolourproject_2stim_asymm_v5,2020.2.10,MacIntel,60,61025ae37ef11b136ea224fe,,,,,,,,,549,-29.2109375,-106.5859375,1,0,0,response5disk,,3,-4.734375,-4.28125,1,0,0,rectangle,-4.734375,-4.28125,1,0,0,-4.734375,-4.28125,1,0,0,0,101,101,29,1,,,,,,,,
,,,,,,,,,,,,,FF,,,,,,,,1.4162,,,,,,,,,,,,,,,,,,,,,,60fccd293da770308619aa88,61036bcc00901aa2abfd1f08,2021-07-29_22h03.36.682,Simcolourproject_2stim_asymm_v5,2020.2.10,MacIntel,60,61025ae37ef11b136ea224fe,,,,,,,,,1507,87.671875,33.5078125,1,0,0,response1disk,,6,9.59375,2.609375,1,0,0,rectangle,9.59375,2.609375,1,0,0,9.59375,2.609375,1,0,0,0,102,102,146,1,,,,,,,,
,,,,,,,,,,,,,FF,,,,,,,,0.7992,,,,,,,,,,,,,,,,,,,,,,60fccd293da770308619aa88,61036bcc00901aa2abfd1f08,2021-07-29_22h03.36.682,Simcolourproject_2stim_asymm_v5,2020.2.10,MacIntel,60,61025ae37ef11b136ea224fe,,,,,,,,,3640,51.53515625,55.25390625,1,0,0,response1disk,,7,5.28125,-2.01171875,1,0,0,rectangle,5.28125,-2.01171875,1,0,0,5.28125,-2.01171875,1,0,0,0,103,103,144,1,,,,,,,,
,,,,,,,,,,,,,FF,,,,,,,,0.8668,,,,,,,,,,,,,,,,,,,,,,60fccd293da770308619aa88,61036bcc00901aa2abfd1f08,2021-07-29_22h03.36.682,Simcolourproject_2stim_asymm_v5,2020.2.10,MacIntel,60,61025ae37ef11b136ea224fe,,,,,,,,,4078,-31.44140625,-92.05078125,1,0,0,response5disk,,3,4.1640625,-11.4375,1,0,0,rectangle,4.1640625,-11.4375,1,0,0,4.1640625,-11.4375,1,0,0,0,104,104,76,1,,,,,,,,
,,,,,,,,,,,,,FF,,,,,,,,2.4997,,,,,,,,,,,,,,,,,,,,,,60fccd293da770308619aa88,61036bcc00901aa2abfd1f08,2021-07-29_22h03.36.682,Simcolourproject_2stim_asymm_v5,2020.2.10,MacIntel,60,61025ae37ef11b136ea224fe,,,,,,,,,4311,36.87109375,53.2734375,1,0,0,response1disk,,7,-1.89453125,-1.07421875,1,0,0,rectangle,-1.89453125,-1.07421875,1,0,0,-1.89453125,-1.07421875,1,0,0,0,105,105,92,1,,,,,,,,
,,,,,,,,,,,,,FF,,,,,,,,1.5334,,,,,,,,,,,,,,,,,,,,,,60fccd293da770308619aa88,61036bcc00901aa2abfd1f08,2021-07-29_22h03.36.682,Simcolourproject_2stim_asymm_v5,2020.2.10,MacIntel,60,61025ae37ef11b136ea224fe,,,,,,,,,3234,54.6953125,67.1015625,1,0,0,response1disk,,7,7.3984375,3.25390625,1,0,0,rectangle,7.3984375,3.25390625,1,0,0,7.3984375,3.25390625,1,0,0,0,106,106,105,1,,,,,,,,
,,,,,,,,,,,,,FF,,,,,,,,2.7992,,,,,,,,,,,,,,,,,,,,,,60fccd293da770308619aa88,61036bcc00901aa2abfd1f08,2021-07-29_22h03.36.682,Simcolourproject_2stim_asymm_v5,2020.2.10,MacIntel,60,61025ae37ef11b136ea224fe,,,,,,,,,3289,-84.92578125,-46.34375,1,0,0,response5disk,,2,25.6953125,10.66796875,1,0,0,rectangle,25.6953125,10.66796875,1,0,0,25.6953125,10.66796875,1,0,0,0,107,107,3,1,,,,,,,,
,,,,,,,,,,,,,FF,,,,,,,,2.9171,,,,,,,,,,,,,,,,,,,,,,60fccd293da770308619aa88,61036bcc00901aa2abfd1f08,2021-07-29_22h03.36.682,Simcolourproject_2stim_asymm_v5,2020.2.10,MacIntel,60,61025ae37ef11b136ea224fe,,,,,,,,,866,57.1796875,-90.32421875,1,0,0,response3disk,,4,10.1015625,7.12890625,1,0,0,rectangle,10.1015625,7.12890625,1,0,0,10.1015625,7.12890625,1,0,0,0,108,108,69,1,,,,,,,,
,,,,,,,,,,,,,FF,,,,,,,,1.3177,,,,,,,,,,,,,,,,,,,,,,60fccd293da770308619aa88,61036bcc00901aa2abfd1f08,2021-07-29_22h03.36.682,Simcolourproject_2stim_asymm_v5,2020.2.10,MacIntel,60,61025ae37ef11b136ea224fe,,,,,,,,,730,73.89453125,22.125,1,0,0,response1disk,,6,-20.96484375,-12.9140625,1,0,0,rectangle,-20.96484375,-12.9140625,1,0,0,-20.96484375,-12.9140625,1,0,0,0,109,109,120,1,,,,,,,,
,,,,,,,,,,,,,FF,,,,,,,,0.8173,,,,,,,,,,,,,,,,,,,,,,60fccd293da770308619aa88,61036bcc00901aa2abfd1f08,2021-07-29_22h03.36.682,Simcolourproject_2stim_asymm_v5,2020.2.10,MacIntel,60,61025ae37ef11b136ea224fe,,,,,,,,,1318,-86.234375,-49.79296875,1,0,0,response5disk,,2,-35.79296875,-16.125,1,0,0,rectangle,-35.79296875,-16.125,1,0,0,-35.79296875,-16.125,1,0,0,0,110,110,44,1,,,,,,,,
,,,,,,,,,,,,,FF,,,,,,,,1.2327,,,,,,,,,,,,,,,,,,,,,,60fccd293da770308619aa88,61036bcc00901aa2abfd1f08,2021-07-29_22h03.36.682,Simcolourproject_2stim_asymm_v5,2020.2.10,MacIntel,60,61025ae37ef11b136ea224fe,,,,,,,,,2485,47.40625,-76.71484375,1,0,0,response3disk,,4,16.8671875,-11.00390625,1,0,0,rectangle,16.8671875,-11.00390625,1,0,0,16.8671875,-11.00390625,1,0,0,0,111,111,30,1,,,,,,,,
,,,,,,,,,,,,,FF,,,,,,,,0.8504,,,,,,,,,,,,,,,,,,,,,,60fccd293da770308619aa88,61036bcc00901aa2abfd1f08,2021-07-29_22h03.36.682,Simcolourproject_2stim_asymm_v5,2020.2.10,MacIntel,60,61025ae37ef11b136ea224fe,,,,,,,,,1636,43.0625,48.84765625,1,0,0,response1disk,,7,4.3359375,-0.58203125,1,0,0,rectangle,4.3359375,-0.58203125,1,0,0,4.3359375,-0.58203125,1,0,0,0,112,112,34,1,,,,,,,,
,,,,,,,,,,,,,FF,,,,,,,,8.2507,,,,,,,,,,,,,,,,,,,,,,60fccd293da770308619aa88,61036bcc00901aa2abfd1f08,2021-07-29_22h03.36.682,Simcolourproject_2stim_asymm_v5,2020.2.10,MacIntel,60,61025ae37ef11b136ea224fe,,,,,,,,,236,62.953125,-51.6328125,1,0,0,response3disk,,5,-7.86328125,-6.51171875,1,0,0,rectangle,-7.86328125,-6.51171875,1,0,0,-7.86328125,-6.51171875,1,0,0,0,113,113,14,1,,,,,,,,
,,,,,,,,,,,,,FF,,,,,,,,6.6667,,,,,,,,,,,,,,,,,,,,,,60fccd293da770308619aa88,61036bcc00901aa2abfd1f08,2021-07-29_22h03.36.682,Simcolourproject_2stim_asymm_v5,2020.2.10,MacIntel,60,61025ae37ef11b136ea224fe,,,,,,,,,269,-31.58984375,-63.15625,1,0,0,response5disk,,3,12.83203125,-6.27734375,1,0,0,rectangle,12.83203125,-6.27734375,1,0,0,12.83203125,-6.27734375,1,0,0,0,114,114,125,1,,,,,,,,
,,,,,,,,,,,,,FF,,,,,,,,0.7329,,,,,,,,,,,,,,,,,,,,,,60fccd293da770308619aa88,61036bcc00901aa2abfd1f08,2021-07-29_22h03.36.682,Simcolourproject_2stim_asymm_v5,2020.2.10,MacIntel,60,61025ae37ef11b136ea224fe,,,,,,,,,502,62.62109375,-49.76953125,1,0,0,response3disk,,5,6.89453125,-8.26171875,1,0,0,rectangle,6.89453125,-8.26171875,1,0,0,6.89453125,-8.26171875,1,0,0,0,115,115,156,1,,,,,,,,
,,,,,,,,,,,,,FF,,,,,,,,1.25,,,,,,,,,,,,,,,,,,,,,,60fccd293da770308619aa88,61036bcc00901aa2abfd1f08,2021-07-29_22h03.36.682,Simcolourproject_2stim_asymm_v5,2020.2.10,MacIntel,60,61025ae37ef11b136ea224fe,,,,,,,,,234,75.0546875,52.1875,1,0,0,response1disk,,6,8.16796875,10.09375,1,0,0,rectangle,8.16796875,10.09375,1,0,0,8.16796875,10.09375,1,0,0,0,116,116,142,1,,,,,,,,
,,,,,,,,,,,,,FF,,,,,,,,0.5998,,,,,,,,,,,,,,,,,,,,,,60fccd293da770308619aa88,61036bcc00901aa2abfd1f08,2021-07-29_22h03.36.682,Simcolourproject_2stim_asymm_v5,2020.2.10,MacIntel,60,61025ae37ef11b136ea224fe,,,,,,,,,2812,75.078125,54.4375,1,0,0,response1disk,,6,6.84765625,-2.55859375,1,0,0,rectangle,6.84765625,-2.55859375,1,0,0,6.84765625,-2.55859375,1,0,0,0,117,117,110,1,,,,,,,,
,,,,,,,,,,,,,FF,,,,,,,,0.6335,,,,,,,,,,,,,,,,,,,,,,60fccd293da770308619aa88,61036bcc00901aa2abfd1f08,2021-07-29_22h03.36.682,Simcolourproject_2stim_asymm_v5,2020.2.10,MacIntel,60,61025ae37ef11b136ea224fe,,,,,,,,,1681,-50.76953125,-69.09375,1,0,0,response5disk,,3,-4.625,-3.58203125,1,0,0,rectangle,-4.625,-3.58203125,1,0,0,-4.625,-3.58203125,1,0,0,0,118,118,19,1,,,,,,,,
,,,,,,,,,,,,,FF,,,,,,,,0.6838,,,,,,,,,,,,,,,,,,,,,,60fccd293da770308619aa88,61036bcc00901aa2abfd1f08,2021-07-29_22h03.36.682,Simcolourproject_2stim_asymm_v5,2020.2.10,MacIntel,60,61025ae37ef11b136ea224fe,,,,,,,,,2931,78.40234375,61.4765625,1,0,0,response1disk,,6,-6.4609375,-2.19140625,1,0,0,rectangle,-6.4609375,-2.19140625,1,0,0,-6.4609375,-2.19140625,1,0,0,0,119,119,18,1,,,,,,,,
,,,,,,,,,,,,,FF,,,,,,,,0.8672,,,,,,,,,,,,,,,,,,,,,,60fccd293da770308619aa88,61036bcc00901aa2abfd1f08,2021-07-29_22h03.36.682,Simcolourproject_2stim_asymm_v5,2020.2.10,MacIntel,60,61025ae37ef11b136ea224fe,,,,,,,,,1574,46.26171875,57.72265625,1,0,0,response1disk,,7,17.625,11.234375,1,0,0,rectangle,17.625,11.234375,1,0,0,17.625,11.234375,1,0,0,0,120,120,139,1,,,,,,,,
,,,,,,,,,,,,,FF,,,,,,,,1.1342,,,,,,,,,,,,,,,,,,,,,,60fccd293da770308619aa88,61036bcc00901aa2abfd1f08,2021-07-29_22h03.36.682,Simcolourproject_2stim_asymm_v5,2020.2.10,MacIntel,60,61025ae37ef11b136ea224fe,,,,,,,,,51,67.57421875,43.09375,1,0,0,response1disk,,6,15.65234375,14.18359375,1,0,0,rectangle,15.65234375,14.18359375,1,0,0,15.65234375,14.18359375,1,0,0,0,121,121,111,1,,,,,,,,
,,,,,,,,,,,,,FF,,,,,,,,0.6499,,,,,,,,,,,,,,,,,,,,,,60fccd293da770308619aa88,61036bcc00901aa2abfd1f08,2021-07-29_22h03.36.682,Simcolourproject_2stim_asymm_v5,2020.2.10,MacIntel,60,61025ae37ef11b136ea224fe,,,,,,,,,4062,37.625,46.46484375,1,0,0,response1disk,,7,12.875,2.48828125,1,0,0,rectangle,12.875,2.48828125,1,0,0,12.875,2.48828125,1,0,0,0,122,122,101,1,,,,,,,,
,,,,,,,,,,,,,FF,,,,,,,,0.9343,,,,,,,,,,,,,,,,,,,,,,60fccd293da770308619aa88,61036bcc00901aa2abfd1f08,2021-07-29_22h03.36.682,Simcolourproject_2stim_asymm_v5,2020.2.10,MacIntel,60,61025ae37ef11b136ea224fe,,,,,,,,,3972,-58.40625,-94.18359375,1,0,0,response5disk,,3,-15.32421875,-6.64453125,1,0,0,rectangle,-15.32421875,-6.64453125,1,0,0,-15.32421875,-6.64453125,1,0,0,0,123,123,148,1,,,,,,,,
,,,,,,,,,,,,,FF,,,,,,,,0.7335,,,,,,,,,,,,,,,,,,,,,,60fccd293da770308619aa88,61036bcc00901aa2abfd1f08,2021-07-29_22h03.36.682,Simcolourproject_2stim_asymm_v5,2020.2.10,MacIntel,60,61025ae37ef11b136ea224fe,,,,,,,,,595,49.3984375,39.14453125,1,0,0,response1disk,,6,8.89453125,12.23828125,1,0,0,rectangle,8.89453125,12.23828125,1,0,0,8.89453125,12.23828125,1,0,0,0,124,124,98,1,,,,,,,,
,,,,,,,,,,,,,FF,,,,,,,,1.066,,,,,,,,,,,,,,,,,,,,,,60fccd293da770308619aa88,61036bcc00901aa2abfd1f08,2021-07-29_22h03.36.682,Simcolourproject_2stim_asymm_v5,2020.2.10,MacIntel,60,61025ae37ef11b136ea224fe,,,,,,,,,1608,-74.20703125,41.84375,1,0,0,response7disk,,1,-13.37890625,5.921875,1,0,0,rectangle,-13.37890625,5.921875,1,0,0,-13.37890625,5.921875,1,0,0,0,125,125,50,1,,,,,,,,
,,,,,,,,,,,,,FF,,,,,,,,0.6166,,,,,,,,,,,,,,,,,,,,,,60fccd293da770308619aa88,61036bcc00901aa2abfd1f08,2021-07-29_22h03.36.682,Simcolourproject_2stim_asymm_v5,2020.2.10,MacIntel,60,61025ae37ef11b136ea224fe,,,,,,,,,1448,-50.34765625,15.66015625,1,0,0,response7disk,,1,-3.91796875,7.55859375,1,0,0,rectangle,-3.91796875,7.55859375,1,0,0,-3.91796875,7.55859375,1,0,0,0,126,126,26,1,,,,,,,,
,,,,,,,,,,,,,FF,,,,,,,,0.6994,,,,,,,,,,,,,,,,,,,,,,60fccd293da770308619aa88,61036bcc00901aa2abfd1f08,2021-07-29_22h03.36.682,Simcolourproject_2stim_asymm_v5,2020.2.10,MacIntel,60,61025ae37ef11b136ea224fe,,,,,,,,,2915,68.40234375,-33.8515625,1,0,0,response3disk,,5,8.5234375,9.859375,1,0,0,rectangle,8.5234375,9.859375,1,0,0,8.5234375,9.859375,1,0,0,0,127,127,39,1,,,,,,,,
,,,,,,,,,,,,,FF,,,,,,,,1.1663,,,,,,,,,,,,,,,,,,,,,,60fccd293da770308619aa88,61036bcc00901aa2abfd1f08,2021-07-29_22h03.36.682,Simcolourproject_2stim_asymm_v5,2020.2.10,MacIntel,60,61025ae37ef11b136ea224fe,,,,,,,,,2942,-41.3828125,-105.2734375,1,0,0,response5disk,,3,-17.80078125,-1.92578125,1,0,0,rectangle,-17.80078125,-1.92578125,1,0,0,-17.80078125,-1.92578125,1,0,0,0,128,128,13,1,,,,,,,,
,,,,,,,,,,,,,FF,,,,,,,,1.0333,,,,,,,,,,,,,,,,,,,,,,60fccd293da770308619aa88,61036bcc00901aa2abfd1f08,2021-07-29_22h03.36.682,Simcolourproject_2stim_asymm_v5,2020.2.10,MacIntel,60,61025ae37ef11b136ea224fe,,,,,,,,,1761,35.66015625,-71.640625,1,0,0,response3disk,,4,19.40234375,-0.91796875,1,0,0,rectangle,19.40234375,-0.91796875,1,0,0,19.40234375,-0.91796875,1,0,0,0,129,129,143,1,,,,,,,,
,,,,,,,,,,,,,FF,,,,,,,,1.0835,,,,,,,,,,,,,,,,,,,,,,60fccd293da770308619aa88,61036bcc00901aa2abfd1f08,2021-07-29_22h03.36.682,Simcolourproject_2stim_asymm_v5,2020.2.10,MacIntel,60,61025ae37ef11b136ea224fe,,,,,,,,,726,-60.140625,-76.83203125,1,0,0,response5disk,,3,-5.69921875,-2.50390625,1,0,0,rectangle,-5.69921875,-2.50390625,1,0,0,-5.69921875,-2.50390625,1,0,0,0,130,130,24,1,,,,,,,,
,,,,,,,,,,,,,FF,,,,,,,,1.8335,,,,,,,,,,,,,,,,,,,,,,60fccd293da770308619aa88,61036bcc00901aa2abfd1f08,2021-07-29_22h03.36.682,Simcolourproject_2stim_asymm_v5,2020.2.10,MacIntel,60,61025ae37ef11b136ea224fe,,,,,,,,,3054,-93.00390625,-37.44921875,1,0,0,response5disk,,2,-17.66796875,-2.16015625,1,0,0,rectangle,-17.66796875,-2.16015625,1,0,0,-17.66796875,-2.16015625,1,0,0,0,131,131,17,1,,,,,,,,
,,,,,,,,,,,,,FF,,,,,,,,2.5492,,,,,,,,,,,,,,,,,,,,,,60fccd293da770308619aa88,61036bcc00901aa2abfd1f08,2021-07-29_22h03.36.682,Simcolourproject_2stim_asymm_v5,2020.2.10,MacIntel,60,61025ae37ef11b136ea224fe,,,,,,,,,3833,57.10546875,-88.2421875,1,0,0,response3disk,,4,16.61328125,-13.49609375,1,0,0,rectangle,16.61328125,-13.49609375,1,0,0,16.61328125,-13.49609375,1,0,0,0,132,132,134,1,,,,,,,,
,,,,,,,,,,,,,FF,,,,,,,,0.8677,,,,,,,,,,,,,,,,,,,,,,60fccd293da770308619aa88,61036bcc00901aa2abfd1f08,2021-07-29_22h03.36.682,Simcolourproject_2stim_asymm_v5,2020.2.10,MacIntel,60,61025ae37ef11b136ea224fe,,,,,,,,,4343,-48.14453125,119.2578125,1,0,0,response7disk,,0,-17.85546875,3.66015625,1,0,0,rectangle,-17.85546875,3.66015625,1,0,0,-17.85546875,3.66015625,1,0,0,0,133,133,149,1,,,,,,,,
,,,,,,,,,,,,,FF,,,,,,,,1.0478,,,,,,,,,,,,,,,,,,,,,,60fccd293da770308619aa88,61036bcc00901aa2abfd1f08,2021-07-29_22h03.36.682,Simcolourproject_2stim_asymm_v5,2020.2.10,MacIntel,60,61025ae37ef11b136ea224fe,,,,,,,,,2242,-82.109375,-47.51171875,1,0,0,response5disk,,2,-4.6171875,1.5546875,1,0,0,rectangle,-4.6171875,1.5546875,1,0,0,-4.6171875,1.5546875,1,0,0,0,134,134,99,1,,,,,,,,
,,,,,,,,,,,,,FF,,,,,,,,1.7163,,,,,,,,,,,,,,,,,,,,,,60fccd293da770308619aa88,61036bcc00901aa2abfd1f08,2021-07-29_22h03.36.682,Simcolourproject_2stim_asymm_v5,2020.2.10,MacIntel,60,61025ae37ef11b136ea224fe,,,,,,,,,811,81.64453125,-45.09375,1,0,0,response3disk,,5,16.953125,-4.40234375,1,0,0,rectangle,16.953125,-4.40234375,1,0,0,16.953125,-4.40234375,1,0,0,0,135,135,66,1,,,,,,,,
,,,,,,,,,,,,,FF,,,,,,,,0.7827,,,,,,,,,,,,,,,,,,,,,,60fccd293da770308619aa88,61036bcc00901aa2abfd1f08,2021-07-29_22h03.36.682,Simcolourproject_2stim_asymm_v5,2020.2.10,MacIntel,60,61025ae37ef11b136ea224fe,,,,,,,,,1958,-66.4140625,-42.125,1,0,0,response5disk,,2,-10.1484375,4.26171875,1,0,0,rectangle,-10.1484375,4.26171875,1,0,0,-10.1484375,4.26171875,1,0,0,0,136,136,113,1,,,,,,,,
,,,,,,,,,,,,,FF,,,,,,,,1.6161,,,,,,,,,,,,,,,,,,,,,,60fccd293da770308619aa88,61036bcc00901aa2abfd1f08,2021-07-29_22h03.36.682,Simcolourproject_2stim_asymm_v5,2020.2.10,MacIntel,60,61025ae37ef11b136ea224fe,,,,,,,,,614,-40.6015625,-88.69921875,1,0,0,response5disk,,3,-2.46484375,-9.48828125,1,0,0,rectangle,-2.46484375,-9.48828125,1,0,0,-2.46484375,-9.48828125,1,0,0,0,137,137,23,1,,,,,,,,
,,,,,,,,,,,,,FF,,,,,,,,1.9993,,,,,,,,,,,,,,,,,,,,,,60fccd293da770308619aa88,61036bcc00901aa2abfd1f08,2021-07-29_22h03.36.682,Simcolourproject_2stim_asymm_v5,2020.2.10,MacIntel,60,61025ae37ef11b136ea224fe,,,,,,,,,3681,64.55859375,-71.23046875,1,0,0,response3disk,,4,33.5859375,-14.88671875,1,0,0,rectangle,33.5859375,-14.88671875,1,0,0,33.5859375,-14.88671875,1,0,0,0,138,138,47,1,,,,,,,,
,,,,,,,,,,,,,FF,,,,,,,,0.9484,,,,,,,,,,,,,,,,,,,,,,60fccd293da770308619aa88,61036bcc00901aa2abfd1f08,2021-07-29_22h03.36.682,Simcolourproject_2stim_asymm_v5,2020.2.10,MacIntel,60,61025ae37ef11b136ea224fe,,,,,,,,,4101,68.28515625,-51.52734375,1,0,0,response3disk,,5,17.38671875,-12.84375,1,0,0,rectangle,-76.95703125,-46.875,1,0,0,-5.46484375,-4.04296875,1,0,0,0,139,139,60,1,,response5disk_3,TRUE,2,2,"[154,140,228,14,19,10,191,190,40,146,28,198,36,296,156,29,193,196,16,264]",1.8335,rectangle
,,,,,,,,,,,,,FF,,,,,,,,3.0994,,,,,,,,,,,,,,,,,,,,,,60fccd293da770308619aa88,61036bcc00901aa2abfd1f08,2021-07-29_22h03.36.682,Simcolourproject_2stim_asymm_v5,2020.2.10,MacIntel,60,61025ae37ef11b136ea224fe,,,,,,,,,926,86.51171875,-21.453125,1,0,0,response3disk,,5,-20.046875,-5.703125,1,0,0,rectangle,-20.046875,-5.703125,1,0,0,-20.046875,-5.703125,1,0,0,0,140,140,112,1,,,,,,,,
,,,,,,,,,,,,,FF,,,,,,,,1.0161,,,,,,,,,,,,,,,,,,,,,,60fccd293da770308619aa88,61036bcc00901aa2abfd1f08,2021-07-29_22h03.36.682,Simcolourproject_2stim_asymm_v5,2020.2.10,MacIntel,60,61025ae37ef11b136ea224fe,,,,,,,,,584,66.30859375,-35.62890625,1,0,0,response3disk,,5,1.00390625,-4.19140625,1,0,0,rectangle,1.00390625,-4.19140625,1,0,0,1.00390625,-4.19140625,1,0,0,0,141,141,73,1,,,,,,,,
,,,,,,,,,,,,,FF,,,,,,,,0.8504,,,,,,,,,,,,,,,,,,,,,,60fccd293da770308619aa88,61036bcc00901aa2abfd1f08,2021-07-29_22h03.36.682,Simcolourproject_2stim_asymm_v5,2020.2.10,MacIntel,60,61025ae37ef11b136ea224fe,,,,,,,,,389,-38.3828125,-73.2890625,1,0,0,response5disk,,3,2.0234375,5.26953125,1,0,0,rectangle,2.0234375,5.26953125,1,0,0,2.0234375,5.26953125,1,0,0,0,142,142,72,1,,,,,,,,
,,,,,,,,,,,,,FF,,,,,,,,0.8825,,,,,,,,,,,,,,,,,,,,,,60fccd293da770308619aa88,61036bcc00901aa2abfd1f08,2021-07-29_22h03.36.682,Simcolourproject_2stim_asymm_v5,2020.2.10,MacIntel,60,61025ae37ef11b136ea224fe,,,,,,,,,3439,-58.73828125,-39.59765625,1,0,0,response5disk,,2,-1.265625,14.85546875,1,0,0,rectangle,-1.265625,14.85546875,1,0,0,-1.265625,14.85546875,1,0,0,0,143,143,138,1,,,,,,,,
,,,,,,,,,,,,,FF,,,,,,,,0.9985,,,,,,,,,,,,,,,,,,,,,,60fccd293da770308619aa88,61036bcc00901aa2abfd1f08,2021-07-29_22h03.36.682,Simcolourproject_2stim_asymm_v5,2020.2.10,MacIntel,60,61025ae37ef11b136ea224fe,,,,,,,,,546,-61.453125,-80.31640625,1,0,0,response5disk,,3,-9.2109375,-1.15625,1,0,0,rectangle,-9.2109375,-1.15625,1,0,0,-9.2109375,-1.15625,1,0,0,0,144,144,75,1,,,,,,,,
,,,,,,,,,,,,,FF,,,,,,,,1.2505,,,,,,,,,,,,,,,,,,,,,,60fccd293da770308619aa88,61036bcc00901aa2abfd1f08,2021-07-29_22h03.36.682,Simcolourproject_2stim_asymm_v5,2020.2.10,MacIntel,60,61025ae37ef11b136ea224fe,,,,,,,,,3426,-74.12890625,-31.1328125,1,0,0,response5disk,,2,-27.625,-0.1484375,1,0,0,rectangle,-58.7109375,-91.00390625,1,0,0,-2.63671875,3.125,1,0,0,0,145,145,0,1,,response5disk_3,TRUE,3,3,"[154,140,228,14,19,10,191,190,40,146,28,198,36,296,156,29,193,196,16,264]",1.6334,rectangle
,,,,,,,,,,,,,FF,,,,,,,,1.5166,,,,,,,,,,,,,,,,,,,,,,60fccd293da770308619aa88,61036bcc00901aa2abfd1f08,2021-07-29_22h03.36.682,Simcolourproject_2stim_asymm_v5,2020.2.10,MacIntel,60,61025ae37ef11b136ea224fe,,,,,,,,,2832,-36.01953125,-90.30078125,1,0,0,response5disk,,3,0.37109375,-2.26171875,1,0,0,rectangle,0.37109375,-2.26171875,1,0,0,0.37109375,-2.26171875,1,0,0,0,146,146,93,1,,,,,,,,
,,,,,,,,,,,,,FF,,,,,,,,0.8654,,,,,,,,,,,,,,,,,,,,,,60fccd293da770308619aa88,61036bcc00901aa2abfd1f08,2021-07-29_22h03.36.682,Simcolourproject_2stim_asymm_v5,2020.2.10,MacIntel,60,61025ae37ef11b136ea224fe,,,,,,,,,1163,63.02734375,34.1640625,1,0,0,response1disk,,6,-3.703125,-0.82421875,1,0,0,rectangle,-3.703125,-0.82421875,1,0,0,-3.703125,-0.82421875,1,0,0,0,147,147,137,1,,,,,,,,
,,,,,,,,,,,,,FF,,,,,,,,0.7335,,,,,,,,,,,,,,,,,,,,,,60fccd293da770308619aa88,61036bcc00901aa2abfd1f08,2021-07-29_22h03.36.682,Simcolourproject_2stim_asymm_v5,2020.2.10,MacIntel,60,61025ae37ef11b136ea224fe,,,,,,,,,345,-28.484375,-75.546875,1,0,0,response5disk,,3,-1.3515625,3.69140625,1,0,0,rectangle,-1.3515625,3.69140625,1,0,0,-1.3515625,3.69140625,1,0,0,0,148,148,108,1,,,,,,,,
,,,,,,,,,,,,,FF,,,,,,,,1.1501,,,,,,,,,,,,,,,,,,,,,,60fccd293da770308619aa88,61036bcc00901aa2abfd1f08,2021-07-29_22h03.36.682,Simcolourproject_2stim_asymm_v5,2020.2.10,MacIntel,60,61025ae37ef11b136ea224fe,,,,,,,,,1197,45.28125,-81.41796875,1,0,0,response3disk,,4,0.87890625,-9.25390625,1,0,0,rectangle,0.87890625,-9.25390625,1,0,0,0.87890625,-9.25390625,1,0,0,0,149,149,46,1,,,,,,,,
,,,,,,,,,,,,,FF,,,,,,,,1.8007,,,,,,,,,,,,,,,,,,,,,,60fccd293da770308619aa88,61036bcc00901aa2abfd1f08,2021-07-29_22h03.36.682,Simcolourproject_2stim_asymm_v5,2020.2.10,MacIntel,60,61025ae37ef11b136ea224fe,,,,,,,,,115,67.34765625,32.37890625,1,0,0,response1disk,,6,1.1484375,7.30078125,1,0,0,rectangle,1.1484375,7.30078125,1,0,0,1.1484375,7.30078125,1,0,0,0,150,150,27,1,,,,,,,,
,,,,,,,,,,,,,FF,,,,,,,,0.9163,,,,,,,,,,,,,,,,,,,,,,60fccd293da770308619aa88,61036bcc00901aa2abfd1f08,2021-07-29_22h03.36.682,Simcolourproject_2stim_asymm_v5,2020.2.10,MacIntel,60,61025ae37ef11b136ea224fe,,,,,,,,,529,71.1171875,-45.75390625,1,0,0,response3disk,,5,4.92578125,13.18359375,1,0,0,rectangle,4.92578125,13.18359375,1,0,0,4.92578125,13.18359375,1,0,0,0,151,151,81,1,,,,,,,,
,,,,,,,,,,,,,FF,,,,,,,,2.7659,,,,,,,,,,,,,,,,,,,,,,60fccd293da770308619aa88,61036bcc00901aa2abfd1f08,2021-07-29_22h03.36.682,Simcolourproject_2stim_asymm_v5,2020.2.10,MacIntel,60,61025ae37ef11b136ea224fe,,,,,,,,,4163,35.93359375,-101.5742188,1,0,0,response3disk,,4,20.8125,7.69921875,1,0,0,rectangle,20.8125,7.69921875,1,0,0,20.8125,7.69921875,1,0,0,0,152,152,10,1,,,,,,,,
,,,,,,,,,,,,,FF,,,,,,,,2.1505,,,,,,,,,,,,,,,,,,,,,,60fccd293da770308619aa88,61036bcc00901aa2abfd1f08,2021-07-29_22h03.36.682,Simcolourproject_2stim_asymm_v5,2020.2.10,MacIntel,60,61025ae37ef11b136ea224fe,,,,,,,,,515,86.828125,26.69921875,1,0,0,response1disk,,6,2.90625,5.69921875,1,0,0,rectangle,90.765625,40.10546875,1,0,0,6.3515625,-9.27734375,1,0,0,0,153,153,132,1,,response1disk_3,TRUE,6,6,"[154,140,228,14,19,10,191,190,40,146,28,198,36,296,156,29,193,196,16,264]",1.4007,rectangle
,,,,,,,,,,,,,FF,,,,,,,,1.1991,,,,,,,,,,,,,,,,,,,,,,60fccd293da770308619aa88,61036bcc00901aa2abfd1f08,2021-07-29_22h03.36.682,Simcolourproject_2stim_asymm_v5,2020.2.10,MacIntel,60,61025ae37ef11b136ea224fe,,,,,,,,,2614,62.9140625,-24.35546875,1,0,0,response3disk,,5,28.109375,-4.35546875,1,0,0,rectangle,28.109375,-4.35546875,1,0,0,28.109375,-4.35546875,1,0,0,0,154,154,63,1,,,,,,,,
,,,,,,,,,,,,,FF,,,,,,,,1.0506,,,,,,,,,,,,,,,,,,,,,,60fccd293da770308619aa88,61036bcc00901aa2abfd1f08,2021-07-29_22h03.36.682,Simcolourproject_2stim_asymm_v5,2020.2.10,MacIntel,60,61025ae37ef11b136ea224fe,,,,,,,,,3202,-60.92578125,-44.015625,1,0,0,response5disk,,2,-3.8125,-8.9140625,1,0,0,rectangle,33.2421875,-60.48828125,1,0,0,3.875,9.3984375,1,0,0,0,155,155,67,1,,response3disk_3,TRUE,4,4,"[154,140,228,14,19,10,191,190,40,146,28,198,36,296,156,29,193,196,16,264]",1.5657,rectangle
,,,,,,,,,,,,,FF,,,,,,,,1.3837,,,,,,,,,,,,,,,,,,,,,,60fccd293da770308619aa88,61036bcc00901aa2abfd1f08,2021-07-29_22h03.36.682,Simcolourproject_2stim_asymm_v5,2020.2.10,MacIntel,60,61025ae37ef11b136ea224fe,,,,,,,,,3349,35.50390625,-42.0625,1,0,0,response3disk,,4,3.3046875,1.859375,1,0,0,rectangle,3.3046875,1.859375,1,0,0,3.3046875,1.859375,1,0,0,0,156,156,31,1,,,,,,,,
,,,,,,,,,,,,,FF,,,,,,,,1.5838,,,,,,,,,,,,,,,,,,,,,,60fccd293da770308619aa88,61036bcc00901aa2abfd1f08,2021-07-29_22h03.36.682,Simcolourproject_2stim_asymm_v5,2020.2.10,MacIntel,60,61025ae37ef11b136ea224fe,,,,,,,,,3980,43.94921875,-85.7890625,1,0,0,response3disk,,4,15.08984375,-9.53515625,1,0,0,rectangle,15.08984375,-9.53515625,1,0,0,15.08984375,-9.53515625,1,0,0,0,157,157,22,1,,,,,,,,
,,,,,,,,,,,,,FF,,,,,,,,0.9505,,,,,,,,,,,,,,,,,,,,,,60fccd293da770308619aa88,61036bcc00901aa2abfd1f08,2021-07-29_22h03.36.682,Simcolourproject_2stim_asymm_v5,2020.2.10,MacIntel,60,61025ae37ef11b136ea224fe,,,,,,,,,1098,53.890625,37.21484375,1,0,0,response1disk,,6,7.515625,-2.21875,1,0,0,rectangle,7.515625,-2.21875,1,0,0,7.515625,-2.21875,1,0,0,0,158,158,150,1,,,,,,,,
,,,,,,,,,,,,,FF,,,,,,,,2.2173,,,,,,,,,,,,,,,,,,,,,,60fccd293da770308619aa88,61036bcc00901aa2abfd1f08,2021-07-29_22h03.36.682,Simcolourproject_2stim_asymm_v5,2020.2.10,MacIntel,60,61025ae37ef11b136ea224fe,,,,,,,,,1301,64.21484375,-72.1328125,1,0,0,response3disk,,4,21.64453125,6.87890625,1,0,0,rectangle,21.64453125,6.87890625,1,0,0,21.64453125,6.87890625,1,0,0,0,159,159,141,1,,,,,,,,
,,,,,,,,,,,,,FF,,,,,,,,1.8332,,,,,,,,,,,,,,,,,,,,,,60fccd293da770308619aa88,61036bcc00901aa2abfd1f08,2021-07-29_22h03.36.682,Simcolourproject_2stim_asymm_v5,2020.2.10,MacIntel,60,61025ae37ef11b136ea224fe,,,,,,,,,867,62.328125,-26.23046875,1,0,0,response3disk,,5,6.36328125,-8.76953125,1,0,0,rectangle,6.36328125,-8.76953125,1,0,0,6.36328125,-8.76953125,1,0,0,1,0,160,149,1,,,,,,,,
,,,,,,,,,,,,,FF,,,,,,,,1.6499,,,,,,,,,,,,,,,,,,,,,,60fccd293da770308619aa88,61036bcc00901aa2abfd1f08,2021-07-29_22h03.36.682,Simcolourproject_2stim_asymm_v5,2020.2.10,MacIntel,60,61025ae37ef11b136ea224fe,,,,,,,,,937,-52.015625,-29.86328125,1,0,0,response5disk,,2,-7.34765625,-1.17578125,1,0,0,rectangle,-7.34765625,-1.17578125,1,0,0,-7.34765625,-1.17578125,1,0,0,1,1,161,87,1,,,,,,,,
,,,,,,,,,,,,,FF,,,,,,,,2.2175,,,,,,,,,,,,,,,,,,,,,,60fccd293da770308619aa88,61036bcc00901aa2abfd1f08,2021-07-29_22h03.36.682,Simcolourproject_2stim_asymm_v5,2020.2.10,MacIntel,60,61025ae37ef11b136ea224fe,,,,,,,,,3451,77.4140625,30.796875,1,0,0,response1disk,,6,14.05078125,0.41015625,1,0,0,rectangle,14.05078125,0.41015625,1,0,0,14.05078125,0.41015625,1,0,0,1,2,162,99,1,,,,,,,,
,,,,,,,,,,,,,FF,,,,,,,,3.0492,,,,,,,,,,,,,,,,,,,,,,60fccd293da770308619aa88,61036bcc00901aa2abfd1f08,2021-07-29_22h03.36.682,Simcolourproject_2stim_asymm_v5,2020.2.10,MacIntel,60,61025ae37ef11b136ea224fe,,,,,,,,,3700,28.20703125,-98.16796875,1,0,0,response3disk,,4,9.5625,-13.44921875,1,0,0,rectangle,9.5625,-13.44921875,1,0,0,9.5625,-13.44921875,1,0,0,1,3,163,4,1,,,,,,,,
,,,,,,,,,,,,,FF,,,,,,,,1.2333,,,,,,,,,,,,,,,,,,,,,,60fccd293da770308619aa88,61036bcc00901aa2abfd1f08,2021-07-29_22h03.36.682,Simcolourproject_2stim_asymm_v5,2020.2.10,MacIntel,60,61025ae37ef11b136ea224fe,,,,,,,,,1978,84.41796875,-59.46875,1,0,0,response3disk,,5,-12.7734375,-4.7421875,1,0,0,rectangle,-12.7734375,-4.7421875,1,0,0,-12.7734375,-4.7421875,1,0,0,1,4,164,50,1,,,,,,,,
,,,,,,,,,,,,,FF,,,,,,,,1.367,,,,,,,,,,,,,,,,,,,,,,60fccd293da770308619aa88,61036bcc00901aa2abfd1f08,2021-07-29_22h03.36.682,Simcolourproject_2stim_asymm_v5,2020.2.10,MacIntel,60,61025ae37ef11b136ea224fe,,,,,,,,,3066,79.48828125,-46.265625,1,0,0,response3disk,,5,2.18359375,0.296875,1,0,0,rectangle,2.18359375,0.296875,1,0,0,2.18359375,0.296875,1,0,0,1,5,165,16,1,,,,,,,,
,,,,,,,,,,,,,FF,,,,,,,,0.9993,,,,,,,,,,,,,,,,,,,,,,60fccd293da770308619aa88,61036bcc00901aa2abfd1f08,2021-07-29_22h03.36.682,Simcolourproject_2stim_asymm_v5,2020.2.10,MacIntel,60,61025ae37ef11b136ea224fe,,,,,,,,,779,34.2421875,56.296875,1,0,0,response1disk,,7,2.08203125,-3.5546875,1,0,0,rectangle,2.08203125,-3.5546875,1,0,0,2.08203125,-3.5546875,1,0,0,1,6,166,56,1,,,,,,,,
,,,,,,,,,,,,,FF,,,,,,,,4.6651,,,,,,,,,,,,,,,,,,,,,,60fccd293da770308619aa88,61036bcc00901aa2abfd1f08,2021-07-29_22h03.36.682,Simcolourproject_2stim_asymm_v5,2020.2.10,MacIntel,60,61025ae37ef11b136ea224fe,,,,,,,,,1259,41.8125,69.078125,1,0,0,response1disk,,7,2.23828125,5.6484375,1,0,0,rectangle,2.23828125,5.6484375,1,0,0,2.23828125,5.6484375,1,0,0,1,7,167,9,1,,,,,,,,
,,,,,,,,,,,,,FF,,,,,,,,1.2154,,,,,,,,,,,,,,,,,,,,,,60fccd293da770308619aa88,61036bcc00901aa2abfd1f08,2021-07-29_22h03.36.682,Simcolourproject_2stim_asymm_v5,2020.2.10,MacIntel,60,61025ae37ef11b136ea224fe,,,,,,,,,1185,51.6875,58.63671875,1,0,0,response1disk,,7,26.484375,5.58203125,1,0,0,rectangle,26.484375,5.58203125,1,0,0,26.484375,5.58203125,1,0,0,1,8,168,96,1,,,,,,,,
,,,,,,,,,,,,,FF,,,,,,,,2.0002,,,,,,,,,,,,,,,,,,,,,,60fccd293da770308619aa88,61036bcc00901aa2abfd1f08,2021-07-29_22h03.36.682,Simcolourproject_2stim_asymm_v5,2020.2.10,MacIntel,60,61025ae37ef11b136ea224fe,,,,,,,,,3242,-86.2109375,-43.54296875,1,0,0,response5disk,,2,2.9375,11.0859375,1,0,0,rectangle,2.9375,11.0859375,1,0,0,2.9375,11.0859375,1,0,0,1,9,169,114,1,,,,,,,,
,,,,,,,,,,,,,FF,,,,,,,,2.0176,,,,,,,,,,,,,,,,,,,,,,60fccd293da770308619aa88,61036bcc00901aa2abfd1f08,2021-07-29_22h03.36.682,Simcolourproject_2stim_asymm_v5,2020.2.10,MacIntel,60,61025ae37ef11b136ea224fe,,,,,,,,,2446,38.33203125,71.8515625,1,0,0,response1disk,,7,0.328125,4.890625,1,0,0,rectangle,0.328125,4.890625,1,0,0,0.328125,4.890625,1,0,0,1,10,170,95,1,,,,,,,,
,,,,,,,,,,,,,FF,,,,,,,,3.0506,,,,,,,,,,,,,,,,,,,,,,60fccd293da770308619aa88,61036bcc00901aa2abfd1f08,2021-07-29_22h03.36.682,Simcolourproject_2stim_asymm_v5,2020.2.10,MacIntel,60,61025ae37ef11b136ea224fe,,,,,,,,,3870,105.0117188,-40.5625,1,0,0,response3disk,,5,0.01953125,-3.12890625,1,0,0,rectangle,0.01953125,-3.12890625,1,0,0,0.01953125,-3.12890625,1,0,0,1,11,171,46,1,,,,,,,,
,,,,,,,,,,,,,FF,,,,,,,,1.1,,,,,,,,,,,,,,,,,,,,,,60fccd293da770308619aa88,61036bcc00901aa2abfd1f08,2021-07-29_22h03.36.682,Simcolourproject_2stim_asymm_v5,2020.2.10,MacIntel,60,61025ae37ef11b136ea224fe,,,,,,,,,3343,-81.703125,-53.80078125,1,0,0,response5disk,,2,-19.109375,-12.5859375,1,0,0,rectangle,-19.109375,-12.5859375,1,0,0,-19.109375,-12.5859375,1,0,0,1,12,172,54,1,,,,,,,,
,,,,,,,,,,,,,FF,,,,,,,,1.1162,,,,,,,,,,,,,,,,,,,,,,60fccd293da770308619aa88,61036bcc00901aa2abfd1f08,2021-07-29_22h03.36.682,Simcolourproject_2stim_asymm_v5,2020.2.10,MacIntel,60,61025ae37ef11b136ea224fe,,,,,,,,,1983,100.1601563,-48.47265625,1,0,0,response3disk,,5,4.78125,-14.41796875,1,0,0,rectangle,4.78125,-14.41796875,1,0,0,4.78125,-14.41796875,1,0,0,1,13,173,147,1,,,,,,,,
,,,,,,,,,,,,,FF,,,,,,,,1.6165,,,,,,,,,,,,,,,,,,,,,,60fccd293da770308619aa88,61036bcc00901aa2abfd1f08,2021-07-29_22h03.36.682,Simcolourproject_2stim_asymm_v5,2020.2.10,MacIntel,60,61025ae37ef11b136ea224fe,,,,,,,,,1158,64.34765625,39.3984375,1,0,0,response1disk,,6,16.03125,9.65234375,1,0,0,rectangle,16.03125,9.65234375,1,0,0,16.03125,9.65234375,1,0,0,1,14,174,64,1,,,,,,,,
,,,,,,,,,,,,,FF,,,,,,,,1.1505,,,,,,,,,,,,,,,,,,,,,,60fccd293da770308619aa88,61036bcc00901aa2abfd1f08,2021-07-29_22h03.36.682,Simcolourproject_2stim_asymm_v5,2020.2.10,MacIntel,60,61025ae37ef11b136ea224fe,,,,,,,,,3467,-76.734375,-27.453125,1,0,0,response5disk,,2,-10.6796875,14.67578125,1,0,0,rectangle,-10.6796875,14.67578125,1,0,0,-10.6796875,14.67578125,1,0,0,1,15,175,74,1,,,,,,,,
,,,,,,,,,,,,,FF,,,,,,,,1.6506,,,,,,,,,,,,,,,,,,,,,,60fccd293da770308619aa88,61036bcc00901aa2abfd1f08,2021-07-29_22h03.36.682,Simcolourproject_2stim_asymm_v5,2020.2.10,MacIntel,60,61025ae37ef11b136ea224fe,,,,,,,,,3711,86.8359375,47.83203125,1,0,0,response1disk,,6,7.83984375,4.35546875,1,0,0,rectangle,7.83984375,4.35546875,1,0,0,7.83984375,4.35546875,1,0,0,1,16,176,79,1,,,,,,,,
,,,,,,,,,,,,,FF,,,,,,,,3.1505,,,,,,,,,,,,,,,,,,,,,,60fccd293da770308619aa88,61036bcc00901aa2abfd1f08,2021-07-29_22h03.36.682,Simcolourproject_2stim_asymm_v5,2020.2.10,MacIntel,60,61025ae37ef11b136ea224fe,,,,,,,,,3827,58.1875,-59.07421875,1,0,0,response3disk,,4,-16.25,-10.12890625,1,0,0,rectangle,-16.25,-10.12890625,1,0,0,-16.25,-10.12890625,1,0,0,1,17,177,116,1,,,,,,,,
,,,,,,,,,,,,,FF,,,,,,,,2.7999,,,,,,,,,,,,,,,,,,,,,,60fccd293da770308619aa88,61036bcc00901aa2abfd1f08,2021-07-29_22h03.36.682,Simcolourproject_2stim_asymm_v5,2020.2.10,MacIntel,60,61025ae37ef11b136ea224fe,,,,,,,,,3166,91.19921875,-32.1953125,1,0,0,response3disk,,5,20.08203125,2.01171875,1,0,0,rectangle,20.08203125,2.01171875,1,0,0,20.08203125,2.01171875,1,0,0,1,18,178,150,1,,,,,,,,
,,,,,,,,,,,,,FF,,,,,,,,0.7661,,,,,,,,,,,,,,,,,,,,,,60fccd293da770308619aa88,61036bcc00901aa2abfd1f08,2021-07-29_22h03.36.682,Simcolourproject_2stim_asymm_v5,2020.2.10,MacIntel,60,61025ae37ef11b136ea224fe,,,,,,,,,3810,-45.18359375,100.375,1,0,0,response7disk,,0,-8.1875,2.21875,1,0,0,rectangle,-8.1875,2.21875,1,0,0,-8.1875,2.21875,1,0,0,1,19,179,68,1,,,,,,,,
,,,,,,,,,,,,,FF,,,,,,,,0.9826,,,,,,,,,,,,,,,,,,,,,,60fccd293da770308619aa88,61036bcc00901aa2abfd1f08,2021-07-29_22h03.36.682,Simcolourproject_2stim_asymm_v5,2020.2.10,MacIntel,60,61025ae37ef11b136ea224fe,,,,,,,,,2724,-76.921875,-40.45703125,1,0,0,response5disk,,2,6.296875,5.71484375,1,0,0,rectangle,6.296875,5.71484375,1,0,0,6.296875,5.71484375,1,0,0,1,20,180,57,1,,,,,,,,
,,,,,,,,,,,,,FF,,,,,,,,0.6494,,,,,,,,,,,,,,,,,,,,,,60fccd293da770308619aa88,61036bcc00901aa2abfd1f08,2021-07-29_22h03.36.682,Simcolourproject_2stim_asymm_v5,2020.2.10,MacIntel,60,61025ae37ef11b136ea224fe,,,,,,,,,4145,-41.7421875,30.98828125,1,0,0,response7disk,,1,-6.515625,3.34375,1,0,0,rectangle,-6.515625,3.34375,1,0,0,-6.515625,3.34375,1,0,0,1,21,181,35,1,,,,,,,,
,,,,,,,,,,,,,FF,,,,,,,,1.1846,,,,,,,,,,,,,,,,,,,,,,60fccd293da770308619aa88,61036bcc00901aa2abfd1f08,2021-07-29_22h03.36.682,Simcolourproject_2stim_asymm_v5,2020.2.10,MacIntel,60,61025ae37ef11b136ea224fe,,,,,,,,,3966,-62.97265625,22.2109375,1,0,0,response7disk,,1,-10.1171875,-4.23828125,1,0,0,rectangle,-10.1171875,-4.23828125,1,0,0,-10.1171875,-4.23828125,1,0,0,1,22,182,108,1,,,,,,,,
,,,,,,,,,,,,,FF,,,,,,,,1.1497,,,,,,,,,,,,,,,,,,,,,,60fccd293da770308619aa88,61036bcc00901aa2abfd1f08,2021-07-29_22h03.36.682,Simcolourproject_2stim_asymm_v5,2020.2.10,MacIntel,60,61025ae37ef11b136ea224fe,,,,,,,,,874,-19.41796875,-63.33984375,1,0,0,response5disk,,3,-8.22265625,-7.8515625,1,0,0,rectangle,-8.22265625,-7.8515625,1,0,0,-8.22265625,-7.8515625,1,0,0,1,23,183,90,1,,,,,,,,
,,,,,,,,,,,,,FF,,,,,,,,0.9332,,,,,,,,,,,,,,,,,,,,,,60fccd293da770308619aa88,61036bcc00901aa2abfd1f08,2021-07-29_22h03.36.682,Simcolourproject_2stim_asymm_v5,2020.2.10,MacIntel,60,61025ae37ef11b136ea224fe,,,,,,,,,3063,78.76171875,34.484375,1,0,0,response1disk,,6,0.66015625,2.921875,1,0,0,rectangle,0.66015625,2.921875,1,0,0,0.66015625,2.921875,1,0,0,1,24,184,120,1,,,,,,,,
,,,,,,,,,,,,,FF,,,,,,,,0.8341,,,,,,,,,,,,,,,,,,,,,,60fccd293da770308619aa88,61036bcc00901aa2abfd1f08,2021-07-29_22h03.36.682,Simcolourproject_2stim_asymm_v5,2020.2.10,MacIntel,60,61025ae37ef11b136ea224fe,,,,,,,,,4187,47.4453125,38.765625,1,0,0,response1disk,,6,-32.01953125,8.84765625,1,0,0,rectangle,-32.01953125,8.84765625,1,0,0,-32.01953125,8.84765625,1,0,0,1,25,185,19,1,,,,,,,,
,,,,,,,,,,,,,FF,,,,,,,,1.1663,,,,,,,,,,,,,,,,,,,,,,60fccd293da770308619aa88,61036bcc00901aa2abfd1f08,2021-07-29_22h03.36.682,Simcolourproject_2stim_asymm_v5,2020.2.10,MacIntel,60,61025ae37ef11b136ea224fe,,,,,,,,,1602,-37.9140625,-63.1328125,1,0,0,response5disk,,3,-1.4921875,-9.03125,1,0,0,rectangle,-1.4921875,-9.03125,1,0,0,-1.4921875,-9.03125,1,0,0,1,26,186,140,1,,,,,,,,
,,,,,,,,,,,,,FF,,,,,,,,0.8327,,,,,,,,,,,,,,,,,,,,,,60fccd293da770308619aa88,61036bcc00901aa2abfd1f08,2021-07-29_22h03.36.682,Simcolourproject_2stim_asymm_v5,2020.2.10,MacIntel,60,61025ae37ef11b136ea224fe,,,,,,,,,1490,43.59765625,70.2421875,1,0,0,response1disk,,7,-5.31640625,13.94140625,1,0,0,rectangle,-5.31640625,13.94140625,1,0,0,-5.31640625,13.94140625,1,0,0,1,27,187,127,1,,,,,,,,
,,,,,,,,,,,,,FF,,,,,,,,0.9661,,,,,,,,,,,,,,,,,,,,,,60fccd293da770308619aa88,61036bcc00901aa2abfd1f08,2021-07-29_22h03.36.682,Simcolourproject_2stim_asymm_v5,2020.2.10,MacIntel,60,61025ae37ef11b136ea224fe,,,,,,,,,4285,66.796875,-26.90625,1,0,0,response3disk,,5,10.4609375,-10.25390625,1,0,0,rectangle,10.4609375,-10.25390625,1,0,0,10.4609375,-10.25390625,1,0,0,1,28,188,36,1,,,,,,,,
,,,,,,,,,,,,,FF,,,,,,,,4.15,,,,,,,,,,,,,,,,,,,,,,60fccd293da770308619aa88,61036bcc00901aa2abfd1f08,2021-07-29_22h03.36.682,Simcolourproject_2stim_asymm_v5,2020.2.10,MacIntel,60,61025ae37ef11b136ea224fe,,,,,,,,,453,53.26171875,-93.72265625,1,0,0,response3disk,,4,17.640625,-17.08203125,1,0,0,rectangle,34.34765625,56.4921875,1,0,0,6.69921875,-9.96484375,1,0,0,1,29,189,27,1,,response1disk_3,TRUE,7,7,"[154,140,228,14,19,10,191,190,40,146,28,198,36,296,156,29,193,196,16,264]",1.3507,rectangle
,,,,,,,,,,,,,FF,,,,,,,,0.9174,,,,,,,,,,,,,,,,,,,,,,60fccd293da770308619aa88,61036bcc00901aa2abfd1f08,2021-07-29_22h03.36.682,Simcolourproject_2stim_asymm_v5,2020.2.10,MacIntel,60,61025ae37ef11b136ea224fe,,,,,,,,,4314,33.8203125,45.64453125,1,0,0,response1disk,,7,-20.69921875,-3.72265625,1,0,0,rectangle,-54.37109375,-55.72265625,1,0,0,-12.16015625,-6.16015625,1,0,0,1,30,190,101,1,,response5disk_3,TRUE,3,3,"[154,140,228,14,19,10,191,190,40,146,28,198,36,296,156,29,193,196,16,264]",1.6009,rectangle
,,,,,,,,,,,,,FF,,,,,,,,3.7491,,,,,,,,,,,,,,,,,,,,,,60fccd293da770308619aa88,61036bcc00901aa2abfd1f08,2021-07-29_22h03.36.682,Simcolourproject_2stim_asymm_v5,2020.2.10,MacIntel,60,61025ae37ef11b136ea224fe,,,,,,,,,3902,25.10546875,-83.64453125,1,0,0,response3disk,,4,-1.12890625,3.71484375,1,0,0,rectangle,-1.12890625,3.71484375,1,0,0,-1.12890625,3.71484375,1,0,0,1,31,191,52,1,,,,,,,,
,,,,,,,,,,,,,FF,,,,,,,,0.8663,,,,,,,,,,,,,,,,,,,,,,60fccd293da770308619aa88,61036bcc00901aa2abfd1f08,2021-07-29_22h03.36.682,Simcolourproject_2stim_asymm_v5,2020.2.10,MacIntel,60,61025ae37ef11b136ea224fe,,,,,,,,,3979,-49.33203125,-70.8671875,1,0,0,response5disk,,3,-13.703125,-4.62109375,1,0,0,rectangle,-31.875,81.2734375,1,0,0,-29.46875,3.953125,1,0,0,1,32,192,128,1,,response7disk_3,TRUE,0,0,"[154,140,228,14,19,10,191,190,40,146,28,198,36,296,156,29,193,196,16,264]",1.7666,rectangle
,,,,,,,,,,,,,FF,,,,,,,,2.9837,,,,,,,,,,,,,,,,,,,,,,60fccd293da770308619aa88,61036bcc00901aa2abfd1f08,2021-07-29_22h03.36.682,Simcolourproject_2stim_asymm_v5,2020.2.10,MacIntel,60,61025ae37ef11b136ea224fe,,,,,,,,,3582,64.8984375,70.76953125,1,0,0,response1disk,,7,23.85546875,15.8984375,1,0,0,rectangle,23.85546875,15.8984375,1,0,0,23.85546875,15.8984375,1,0,0,1,33,193,60,1,,,,,,,,
,,,,,,,,,,,,,FF,,,,,,,,0.9668,,,,,,,,,,,,,,,,,,,,,,60fccd293da770308619aa88,61036bcc00901aa2abfd1f08,2021-07-29_22h03.36.682,Simcolourproject_2stim_asymm_v5,2020.2.10,MacIntel,60,61025ae37ef11b136ea224fe,,,,,,,,,1313,-36.9921875,-47.07421875,1,0,0,response5disk,,3,-17.65234375,-2.7265625,1,0,0,rectangle,-17.65234375,-2.7265625,1,0,0,-17.65234375,-2.7265625,1,0,0,1,34,194,13,1,,,,,,,,
,,,,,,,,,,,,,FF,,,,,,,,0.8161,,,,,,,,,,,,,,,,,,,,,,60fccd293da770308619aa88,61036bcc00901aa2abfd1f08,2021-07-29_22h03.36.682,Simcolourproject_2stim_asymm_v5,2020.2.10,MacIntel,60,61025ae37ef11b136ea224fe,,,,,,,,,2059,25.4921875,65.90234375,1,0,0,response1disk,,7,4.52734375,9.74609375,1,0,0,rectangle,22.34375,81.28515625,1,0,0,-1.0546875,4.7421875,1,0,0,1,35,195,77,1,,response1disk_3,TRUE,7,7,"[154,140,228,14,19,10,191,190,40,146,28,198,36,296,156,29,193,196,16,264]",1.4991,rectangle
,,,,,,,,,,,,,FF,,,,,,,,2.3648,,,,,,,,,,,,,,,,,,,,,,60fccd293da770308619aa88,61036bcc00901aa2abfd1f08,2021-07-29_22h03.36.682,Simcolourproject_2stim_asymm_v5,2020.2.10,MacIntel,60,61025ae37ef11b136ea224fe,,,,,,,,,2912,28.546875,-73.30859375,1,0,0,response3disk,,4,-1.8203125,-5.30859375,1,0,0,rectangle,-1.8203125,-5.30859375,1,0,0,-1.8203125,-5.30859375,1,0,0,1,36,196,14,1,,,,,,,,
,,,,,,,,,,,,,FF,,,,,,,,1.0179,,,,,,,,,,,,,,,,,,,,,,60fccd293da770308619aa88,61036bcc00901aa2abfd1f08,2021-07-29_22h03.36.682,Simcolourproject_2stim_asymm_v5,2020.2.10,MacIntel,60,61025ae37ef11b136ea224fe,,,,,,,,,250,46.69921875,-72.46875,1,0,0,response3disk,,4,1.78515625,-10.57421875,1,0,0,rectangle,-71.90625,-40.98046875,1,0,0,-8.87890625,-5.19140625,1,0,0,1,37,197,21,1,,response5disk_3,TRUE,2,2,"[154,140,228,14,19,10,191,190,40,146,28,198,36,296,156,29,193,196,16,264]",1.7329,rectangle
,,,,,,,,,,,,,FF,,,,,,,,1.0159,,,,,,,,,,,,,,,,,,,,,,60fccd293da770308619aa88,61036bcc00901aa2abfd1f08,2021-07-29_22h03.36.682,Simcolourproject_2stim_asymm_v5,2020.2.10,MacIntel,60,61025ae37ef11b136ea224fe,,,,,,,,,198,-30.6953125,-74.71875,1,0,0,response5disk,,3,-8.95703125,-7.7109375,1,0,0,rectangle,-8.95703125,-7.7109375,1,0,0,-8.95703125,-7.7109375,1,0,0,1,38,198,11,1,,,,,,,,
,,,,,,,,,,,,,FF,,,,,,,,1.3492,,,,,,,,,,,,,,,,,,,,,,60fccd293da770308619aa88,61036bcc00901aa2abfd1f08,2021-07-29_22h03.36.682,Simcolourproject_2stim_asymm_v5,2020.2.10,MacIntel,60,61025ae37ef11b136ea224fe,,,,,,,,,574,51.68359375,32.890625,1,0,0,response1disk,,6,-1.37109375,7.84375,1,0,0,rectangle,-1.37109375,7.84375,1,0,0,-1.37109375,7.84375,1,0,0,1,39,199,15,1,,,,,,,,
,,,,,,,,,,,,,FF,,,,,,,,1.8667,,,,,,,,,,,,,,,,,,,,,,60fccd293da770308619aa88,61036bcc00901aa2abfd1f08,2021-07-29_22h03.36.682,Simcolourproject_2stim_asymm_v5,2020.2.10,MacIntel,60,61025ae37ef11b136ea224fe,,,,,,,,,3207,72.1484375,-23.1171875,1,0,0,response3disk,,5,7.3671875,-4.171875,1,0,0,rectangle,7.3671875,-4.171875,1,0,0,7.3671875,-4.171875,1,0,0,1,40,200,154,1,,,,,,,,
,,,,,,,,,,,,,FF,,,,,,,,1.2829,,,,,,,,,,,,,,,,,,,,,,60fccd293da770308619aa88,61036bcc00901aa2abfd1f08,2021-07-29_22h03.36.682,Simcolourproject_2stim_asymm_v5,2020.2.10,MacIntel,60,61025ae37ef11b136ea224fe,,,,,,,,,1789,33.28125,60.10546875,1,0,0,response1disk,,7,4.1171875,5.3671875,1,0,0,rectangle,4.1171875,5.3671875,1,0,0,4.1171875,5.3671875,1,0,0,1,41,201,61,1,,,,,,,,
,,,,,,,,,,,,,FF,,,,,,,,1.1324,,,,,,,,,,,,,,,,,,,,,,60fccd293da770308619aa88,61036bcc00901aa2abfd1f08,2021-07-29_22h03.36.682,Simcolourproject_2stim_asymm_v5,2020.2.10,MacIntel,60,61025ae37ef11b136ea224fe,,,,,,,,,1409,43.97265625,61.265625,1,0,0,response1disk,,7,16.9140625,12.1796875,1,0,0,rectangle,16.9140625,12.1796875,1,0,0,16.9140625,12.1796875,1,0,0,1,42,202,81,1,,,,,,,,
,,,,,,,,,,,,,FF,,,,,,,,0.9679,,,,,,,,,,,,,,,,,,,,,,60fccd293da770308619aa88,61036bcc00901aa2abfd1f08,2021-07-29_22h03.36.682,Simcolourproject_2stim_asymm_v5,2020.2.10,MacIntel,60,61025ae37ef11b136ea224fe,,,,,,,,,1778,68.984375,37.37890625,1,0,0,response1disk,,6,13.765625,-7.73046875,1,0,0,rectangle,13.765625,-7.73046875,1,0,0,13.765625,-7.73046875,1,0,0,1,43,203,12,1,,,,,,,,
,,,,,,,,,,,,,FF,,,,,,,,1.9008,,,,,,,,,,,,,,,,,,,,,,60fccd293da770308619aa88,61036bcc00901aa2abfd1f08,2021-07-29_22h03.36.682,Simcolourproject_2stim_asymm_v5,2020.2.10,MacIntel,60,61025ae37ef11b136ea224fe,,,,,,,,,2756,41.0390625,57.671875,1,0,0,response1disk,,7,11.671875,-1.984375,1,0,0,rectangle,11.671875,-1.984375,1,0,0,11.671875,-1.984375,1,0,0,1,44,204,144,1,,,,,,,,
,,,,,,,,,,,,,FF,,,,,,,,0.9327,,,,,,,,,,,,,,,,,,,,,,60fccd293da770308619aa88,61036bcc00901aa2abfd1f08,2021-07-29_22h03.36.682,Simcolourproject_2stim_asymm_v5,2020.2.10,MacIntel,60,61025ae37ef11b136ea224fe,,,,,,,,,3237,-21.45703125,-68.82421875,1,0,0,response5disk,,3,5.56640625,0.421875,1,0,0,rectangle,5.56640625,0.421875,1,0,0,5.56640625,0.421875,1,0,0,1,45,205,115,1,,,,,,,,
,,,,,,,,,,,,,FF,,,,,,,,1.0152,,,,,,,,,,,,,,,,,,,,,,60fccd293da770308619aa88,61036bcc00901aa2abfd1f08,2021-07-29_22h03.36.682,Simcolourproject_2stim_asymm_v5,2020.2.10,MacIntel,60,61025ae37ef11b136ea224fe,,,,,,,,,755,59.328125,21.0234375,1,0,0,response1disk,,6,-12.1875,4.46484375,1,0,0,rectangle,-12.1875,4.46484375,1,0,0,-12.1875,4.46484375,1,0,0,1,46,206,82,1,,,,,,,,
,,,,,,,,,,,,,FF,,,,,,,,0.8838,,,,,,,,,,,,,,,,,,,,,,60fccd293da770308619aa88,61036bcc00901aa2abfd1f08,2021-07-29_22h03.36.682,Simcolourproject_2stim_asymm_v5,2020.2.10,MacIntel,60,61025ae37ef11b136ea224fe,,,,,,,,,116,27.28515625,44.9140625,1,0,0,response1disk,,7,6.671875,3.34375,1,0,0,rectangle,6.671875,3.34375,1,0,0,6.671875,3.34375,1,0,0,1,47,207,32,1,,,,,,,,
,,,,,,,,,,,,,FF,,,,,,,,1.9163,,,,,,,,,,,,,,,,,,,,,,60fccd293da770308619aa88,61036bcc00901aa2abfd1f08,2021-07-29_22h03.36.682,Simcolourproject_2stim_asymm_v5,2020.2.10,MacIntel,60,61025ae37ef11b136ea224fe,,,,,,,,,3059,33.58203125,-84.27734375,1,0,0,response3disk,,4,10.0625,-12.75,1,0,0,rectangle,10.0625,-12.75,1,0,0,10.0625,-12.75,1,0,0,1,48,208,109,1,,,,,,,,
,,,,,,,,,,,,,FF,,,,,,,,2.1163,,,,,,,,,,,,,,,,,,,,,,60fccd293da770308619aa88,61036bcc00901aa2abfd1f08,2021-07-29_22h03.36.682,Simcolourproject_2stim_asymm_v5,2020.2.10,MacIntel,60,61025ae37ef11b136ea224fe,,,,,,,,,2578,73.58203125,52.4765625,1,0,0,response1disk,,6,0.703125,1.57421875,1,0,0,rectangle,0.703125,1.57421875,1,0,0,0.703125,1.57421875,1,0,0,1,49,209,63,1,,,,,,,,
,,,,,,,,,,,,,FF,,,,,,,,1.2504,,,,,,,,,,,,,,,,,,,,,,60fccd293da770308619aa88,61036bcc00901aa2abfd1f08,2021-07-29_22h03.36.682,Simcolourproject_2stim_asymm_v5,2020.2.10,MacIntel,60,61025ae37ef11b136ea224fe,,,,,,,,,934,51.34765625,66.84765625,1,0,0,response1disk,,7,30.4140625,7.01171875,1,0,0,rectangle,30.4140625,7.01171875,1,0,0,30.4140625,7.01171875,1,0,0,1,50,210,155,1,,,,,,,,
,,,,,,,,,,,,,FF,,,,,,,,1.217,,,,,,,,,,,,,,,,,,,,,,60fccd293da770308619aa88,61036bcc00901aa2abfd1f08,2021-07-29_22h03.36.682,Simcolourproject_2stim_asymm_v5,2020.2.10,MacIntel,60,61025ae37ef11b136ea224fe,,,,,,,,,1077,97.359375,31.87109375,1,0,0,response1disk,,6,-2.640625,-0.19921875,1,0,0,rectangle,-2.640625,-0.19921875,1,0,0,-2.640625,-0.19921875,1,0,0,1,51,211,106,1,,,,,,,,
,,,,,,,,,,,,,FF,,,,,,,,0.9012,,,,,,,,,,,,,,,,,,,,,,60fccd293da770308619aa88,61036bcc00901aa2abfd1f08,2021-07-29_22h03.36.682,Simcolourproject_2stim_asymm_v5,2020.2.10,MacIntel,60,61025ae37ef11b136ea224fe,,,,,,,,,1306,-66.578125,-64.8515625,1,0,0,response5disk,,2,11.203125,4,1,0,0,rectangle,11.203125,4,1,0,0,11.203125,4,1,0,0,1,52,212,148,1,,,,,,,,
,,,,,,,,,,,,,FF,,,,,,,,4.0497,,,,,,,,,,,,,,,,,,,,,,60fccd293da770308619aa88,61036bcc00901aa2abfd1f08,2021-07-29_22h03.36.682,Simcolourproject_2stim_asymm_v5,2020.2.10,MacIntel,60,61025ae37ef11b136ea224fe,,,,,,,,,1897,18.3125,-77.234375,1,0,0,response3disk,,4,-4.06640625,-0.21484375,1,0,0,rectangle,-4.06640625,-0.21484375,1,0,0,-4.06640625,-0.21484375,1,0,0,1,53,213,136,1,,,,,,,,
,,,,,,,,,,,,,FF,,,,,,,,0.9167,,,,,,,,,,,,,,,,,,,,,,60fccd293da770308619aa88,61036bcc00901aa2abfd1f08,2021-07-29_22h03.36.682,Simcolourproject_2stim_asymm_v5,2020.2.10,MacIntel,60,61025ae37ef11b136ea224fe,,,,,,,,,248,-23.18359375,-64.75390625,1,0,0,response5disk,,3,3.046875,-5.265625,1,0,0,rectangle,3.046875,-5.265625,1,0,0,3.046875,-5.265625,1,0,0,1,54,214,8,1,,,,,,,,
,,,,,,,,,,,,,FF,,,,,,,,0.7838,,,,,,,,,,,,,,,,,,,,,,60fccd293da770308619aa88,61036bcc00901aa2abfd1f08,2021-07-29_22h03.36.682,Simcolourproject_2stim_asymm_v5,2020.2.10,MacIntel,60,61025ae37ef11b136ea224fe,,,,,,,,,2766,56.34765625,75.86328125,1,0,0,response1disk,,7,5.484375,5.421875,1,0,0,rectangle,5.484375,5.421875,1,0,0,5.484375,5.421875,1,0,0,1,55,215,121,1,,,,,,,,
,,,,,,,,,,,,,FF,,,,,,,,1.566,,,,,,,,,,,,,,,,,,,,,,60fccd293da770308619aa88,61036bcc00901aa2abfd1f08,2021-07-29_22h03.36.682,Simcolourproject_2stim_asymm_v5,2020.2.10,MacIntel,60,61025ae37ef11b136ea224fe,,,,,,,,,2039,17.55078125,-83.8203125,1,0,0,response3disk,,4,7.484375,2.80859375,1,0,0,rectangle,7.484375,2.80859375,1,0,0,7.484375,2.80859375,1,0,0,1,56,216,122,1,,,,,,,,
,,,,,,,,,,,,,FF,,,,,,,,1.8838,,,,,,,,,,,,,,,,,,,,,,60fccd293da770308619aa88,61036bcc00901aa2abfd1f08,2021-07-29_22h03.36.682,Simcolourproject_2stim_asymm_v5,2020.2.10,MacIntel,60,61025ae37ef11b136ea224fe,,,,,,,,,3839,84.60546875,-19.0625,1,0,0,response3disk,,5,18.9140625,-2.2734375,1,0,0,rectangle,18.9140625,-2.2734375,1,0,0,18.9140625,-2.2734375,1,0,0,1,57,217,102,1,,,,,,,,
,,,,,,,,,,,,,FF,,,,,,,,0.8494,,,,,,,,,,,,,,,,,,,,,,60fccd293da770308619aa88,61036bcc00901aa2abfd1f08,2021-07-29_22h03.36.682,Simcolourproject_2stim_asymm_v5,2020.2.10,MacIntel,60,61025ae37ef11b136ea224fe,,,,,,,,,2164,-26.328125,-76.609375,1,0,0,response5disk,,3,0.5703125,-6.09765625,1,0,0,rectangle,0.5703125,-6.09765625,1,0,0,0.5703125,-6.09765625,1,0,0,1,58,218,6,1,,,,,,,,
,,,,,,,,,,,,,FF,,,,,,,,1.367,,,,,,,,,,,,,,,,,,,,,,60fccd293da770308619aa88,61036bcc00901aa2abfd1f08,2021-07-29_22h03.36.682,Simcolourproject_2stim_asymm_v5,2020.2.10,MacIntel,60,61025ae37ef11b136ea224fe,,,,,,,,,2954,26.7578125,-81.78125,1,0,0,response3disk,,4,9.67578125,-8.41015625,1,0,0,rectangle,9.67578125,-8.41015625,1,0,0,9.67578125,-8.41015625,1,0,0,1,59,219,22,1,,,,,,,,
,,,,,,,,,,,,,FF,,,,,,,,1.1505,,,,,,,,,,,,,,,,,,,,,,60fccd293da770308619aa88,61036bcc00901aa2abfd1f08,2021-07-29_22h03.36.682,Simcolourproject_2stim_asymm_v5,2020.2.10,MacIntel,60,61025ae37ef11b136ea224fe,,,,,,,,,27,56.5078125,67.9765625,1,0,0,response1disk,,7,28.98828125,-8.390625,1,0,0,rectangle,28.98828125,-8.390625,1,0,0,28.98828125,-8.390625,1,0,0,1,60,220,112,1,,,,,,,,
,,,,,,,,,,,,,FF,,,,,,,,0.7018,,,,,,,,,,,,,,,,,,,,,,60fccd293da770308619aa88,61036bcc00901aa2abfd1f08,2021-07-29_22h03.36.682,Simcolourproject_2stim_asymm_v5,2020.2.10,MacIntel,60,61025ae37ef11b136ea224fe,,,,,,,,,2079,77.3828125,17.25,1,0,0,response1disk,,6,14.0390625,-7.30859375,1,0,0,rectangle,14.0390625,-7.30859375,1,0,0,14.0390625,-7.30859375,1,0,0,1,61,221,152,1,,,,,,,,
,,,,,,,,,,,,,FF,,,,,,,,0.9827,,,,,,,,,,,,,,,,,,,,,,60fccd293da770308619aa88,61036bcc00901aa2abfd1f08,2021-07-29_22h03.36.682,Simcolourproject_2stim_asymm_v5,2020.2.10,MacIntel,60,61025ae37ef11b136ea224fe,,,,,,,,,1777,88.29296875,-58.68359375,1,0,0,response3disk,,5,-15.00390625,-10.53515625,1,0,0,rectangle,-15.00390625,-10.53515625,1,0,0,-15.00390625,-10.53515625,1,0,0,1,62,222,41,1,,,,,,,,
,,,,,,,,,,,,,FF,,,,,,,,0.7836,,,,,,,,,,,,,,,,,,,,,,60fccd293da770308619aa88,61036bcc00901aa2abfd1f08,2021-07-29_22h03.36.682,Simcolourproject_2stim_asymm_v5,2020.2.10,MacIntel,60,61025ae37ef11b136ea224fe,,,,,,,,,1556,68.73046875,-34.86328125,1,0,0,response3disk,,5,-18.921875,-6.5234375,1,0,0,rectangle,-18.921875,-6.5234375,1,0,0,-18.921875,-6.5234375,1,0,0,1,63,223,23,1,,,,,,,,
,,,,,,,,,,,,,FF,,,,,,,,0.8669,,,,,,,,,,,,,,,,,,,,,,60fccd293da770308619aa88,61036bcc00901aa2abfd1f08,2021-07-29_22h03.36.682,Simcolourproject_2stim_asymm_v5,2020.2.10,MacIntel,60,61025ae37ef11b136ea224fe,,,,,,,,,3414,54.8125,21.9453125,1,0,0,response1disk,,6,-14.75,10.2421875,1,0,0,rectangle,-14.75,10.2421875,1,0,0,-14.75,10.2421875,1,0,0,1,64,224,55,1,,,,,,,,
,,,,,,,,,,,,,FF,,,,,,,,0.8002,,,,,,,,,,,,,,,,,,,,,,60fccd293da770308619aa88,61036bcc00901aa2abfd1f08,2021-07-29_22h03.36.682,Simcolourproject_2stim_asymm_v5,2020.2.10,MacIntel,60,61025ae37ef11b136ea224fe,,,,,,,,,2093,-37.7265625,43.69140625,1,0,0,response7disk,,0,-33.07421875,-8.03125,1,0,0,rectangle,-33.07421875,-8.03125,1,0,0,-33.07421875,-8.03125,1,0,0,1,65,225,2,1,,,,,,,,
,,,,,,,,,,,,,FF,,,,,,,,0.9002,,,,,,,,,,,,,,,,,,,,,,60fccd293da770308619aa88,61036bcc00901aa2abfd1f08,2021-07-29_22h03.36.682,Simcolourproject_2stim_asymm_v5,2020.2.10,MacIntel,60,61025ae37ef11b136ea224fe,,,,,,,,,54,68.48828125,21.1171875,1,0,0,response1disk,,6,9.0625,8.5859375,1,0,0,rectangle,9.0625,8.5859375,1,0,0,9.0625,8.5859375,1,0,0,1,66,226,58,1,,,,,,,,
,,,,,,,,,,,,,FF,,,,,,,,1.1324,,,,,,,,,,,,,,,,,,,,,,60fccd293da770308619aa88,61036bcc00901aa2abfd1f08,2021-07-29_22h03.36.682,Simcolourproject_2stim_asymm_v5,2020.2.10,MacIntel,60,61025ae37ef11b136ea224fe,,,,,,,,,2240,-29.5078125,-71.484375,1,0,0,response5disk,,3,-4.99609375,-1.984375,1,0,0,rectangle,92.546875,-41.02734375,1,0,0,-2.4296875,1.6875,1,0,0,1,67,227,26,1,,response3disk_3,TRUE,5,5,"[154,140,228,14,19,10,191,190,40,146,28,198,36,296,156,29,193,196,16,264]",2.0504,rectangle
,,,,,,,,,,,,,FF,,,,,,,,1.5831,,,,,,,,,,,,,,,,,,,,,,60fccd293da770308619aa88,61036bcc00901aa2abfd1f08,2021-07-29_22h03.36.682,Simcolourproject_2stim_asymm_v5,2020.2.10,MacIntel,60,61025ae37ef11b136ea224fe,,,,,,,,,2709,27.48046875,75.87109375,1,0,0,response1disk,,7,-7.8515625,7.36328125,1,0,0,rectangle,-7.8515625,7.36328125,1,0,0,-7.8515625,7.36328125,1,0,0,1,68,228,84,1,,,,,,,,
,,,,,,,,,,,,,FF,,,,,,,,0.8491,,,,,,,,,,,,,,,,,,,,,,60fccd293da770308619aa88,61036bcc00901aa2abfd1f08,2021-07-29_22h03.36.682,Simcolourproject_2stim_asymm_v5,2020.2.10,MacIntel,60,61025ae37ef11b136ea224fe,,,,,,,,,5,-40.57421875,-90.58984375,1,0,0,response5disk,,3,-17.02734375,5.640625,1,0,0,rectangle,-17.02734375,5.640625,1,0,0,-17.02734375,5.640625,1,0,0,1,69,229,137,1,,,,,,,,
,,,,,,,,,,,,,FF,,,,,,,,0.8164,,,,,,,,,,,,,,,,,,,,,,60fccd293da770308619aa88,61036bcc00901aa2abfd1f08,2021-07-29_22h03.36.682,Simcolourproject_2stim_asymm_v5,2020.2.10,MacIntel,60,61025ae37ef11b136ea224fe,,,,,,,,,1425,92.6328125,-58.875,1,0,0,response3disk,,5,18.76171875,-5.01171875,1,0,0,rectangle,18.76171875,-5.01171875,1,0,0,18.76171875,-5.01171875,1,0,0,1,70,230,157,1,,,,,,,,
,,,,,,,,,,,,,FF,,,,,,,,1.6342,,,,,,,,,,,,,,,,,,,,,,60fccd293da770308619aa88,61036bcc00901aa2abfd1f08,2021-07-29_22h03.36.682,Simcolourproject_2stim_asymm_v5,2020.2.10,MacIntel,60,61025ae37ef11b136ea224fe,,,,,,,,,3844,39.375,-103.71875,1,0,0,response3disk,,4,5.2734375,-6.51953125,1,0,0,rectangle,5.2734375,-6.51953125,1,0,0,5.2734375,-6.51953125,1,0,0,1,71,231,117,1,,,,,,,,
,,,,,,,,,,,,,FF,,,,,,,,0.717,,,,,,,,,,,,,,,,,,,,,,60fccd293da770308619aa88,61036bcc00901aa2abfd1f08,2021-07-29_22h03.36.682,Simcolourproject_2stim_asymm_v5,2020.2.10,MacIntel,60,61025ae37ef11b136ea224fe,,,,,,,,,2541,-24.4375,51.34375,1,0,0,response7disk,,0,-25.16796875,-15.66796875,1,0,0,rectangle,-25.16796875,-15.66796875,1,0,0,-25.16796875,-15.66796875,1,0,0,1,72,232,83,1,,,,,,,,
,,,,,,,,,,,,,FF,,,,,,,,1.3367,,,,,,,,,,,,,,,,,,,,,,60fccd293da770308619aa88,61036bcc00901aa2abfd1f08,2021-07-29_22h03.36.682,Simcolourproject_2stim_asymm_v5,2020.2.10,MacIntel,60,61025ae37ef11b136ea224fe,,,,,,,,,4051,97.12890625,-62.04296875,1,0,0,response3disk,,5,9.65625,-17.76171875,1,0,0,rectangle,9.65625,-17.76171875,1,0,0,9.65625,-17.76171875,1,0,0,1,73,233,3,1,,,,,,,,
,,,,,,,,,,,,,FF,,,,,,,,1.0508,,,,,,,,,,,,,,,,,,,,,,60fccd293da770308619aa88,61036bcc00901aa2abfd1f08,2021-07-29_22h03.36.682,Simcolourproject_2stim_asymm_v5,2020.2.10,MacIntel,60,61025ae37ef11b136ea224fe,,,,,,,,,635,34.78125,-86.67578125,1,0,0,response3disk,,4,10.27734375,-17.42578125,1,0,0,rectangle,10.27734375,-17.42578125,1,0,0,10.27734375,-17.42578125,1,0,0,1,74,234,28,1,,,,,,,,
,,,,,,,,,,,,,FF,,,,,,,,1.0672,,,,,,,,,,,,,,,,,,,,,,60fccd293da770308619aa88,61036bcc00901aa2abfd1f08,2021-07-29_22h03.36.682,Simcolourproject_2stim_asymm_v5,2020.2.10,MacIntel,60,61025ae37ef11b136ea224fe,,,,,,,,,670,50.9140625,71.84375,1,0,0,response1disk,,7,15.3828125,3.33984375,1,0,0,rectangle,15.3828125,3.33984375,1,0,0,15.3828125,3.33984375,1,0,0,1,75,235,107,1,,,,,,,,
,,,,,,,,,,,,,FF,,,,,,,,0.9182,,,,,,,,,,,,,,,,,,,,,,60fccd293da770308619aa88,61036bcc00901aa2abfd1f08,2021-07-29_22h03.36.682,Simcolourproject_2stim_asymm_v5,2020.2.10,MacIntel,60,61025ae37ef11b136ea224fe,,,,,,,,,4297,88.7890625,46.25390625,1,0,0,response1disk,,6,5.88671875,1.06640625,1,0,0,rectangle,5.88671875,1.06640625,1,0,0,5.88671875,1.06640625,1,0,0,1,76,236,132,1,,,,,,,,
,,,,,,,,,,,,,FF,,,,,,,,1.1005,,,,,,,,,,,,,,,,,,,,,,60fccd293da770308619aa88,61036bcc00901aa2abfd1f08,2021-07-29_22h03.36.682,Simcolourproject_2stim_asymm_v5,2020.2.10,MacIntel,60,61025ae37ef11b136ea224fe,,,,,,,,,4223,-73.09375,-54.8046875,1,0,0,response5disk,,2,4.56640625,-6.6953125,1,0,0,rectangle,4.56640625,-6.6953125,1,0,0,4.56640625,-6.6953125,1,0,0,1,77,237,151,1,,,,,,,,
,,,,,,,,,,,,,FF,,,,,,,,1.0835,,,,,,,,,,,,,,,,,,,,,,60fccd293da770308619aa88,61036bcc00901aa2abfd1f08,2021-07-29_22h03.36.682,Simcolourproject_2stim_asymm_v5,2020.2.10,MacIntel,60,61025ae37ef11b136ea224fe,,,,,,,,,2342,64.484375,93.234375,1,0,0,response1disk,,7,22.36328125,5.63671875,1,0,0,rectangle,22.36328125,5.63671875,1,0,0,22.36328125,5.63671875,1,0,0,1,78,238,75,1,,,,,,,,
,,,,,,,,,,,,,FF,,,,,,,,1.1339,,,,,,,,,,,,,,,,,,,,,,60fccd293da770308619aa88,61036bcc00901aa2abfd1f08,2021-07-29_22h03.36.682,Simcolourproject_2stim_asymm_v5,2020.2.10,MacIntel,60,61025ae37ef11b136ea224fe,,,,,,,,,793,43.05859375,65.48046875,1,0,0,response1disk,,7,2.8046875,8.58984375,1,0,0,rectangle,2.8046875,8.58984375,1,0,0,2.8046875,8.58984375,1,0,0,1,79,239,130,1,,,,,,,,
,,,,,,,,,,,,,FF,,,,,,,,3.5822,,,,,,,,,,,,,,,,,,,,,,60fccd293da770308619aa88,61036bcc00901aa2abfd1f08,2021-07-29_22h03.36.682,Simcolourproject_2stim_asymm_v5,2020.2.10,MacIntel,60,61025ae37ef11b136ea224fe,,,,,,,,,3555,-45.22265625,-74.63671875,1,0,0,response5disk,,3,-3.515625,-0.640625,1,0,0,rectangle,-3.515625,-0.640625,1,0,0,-3.515625,-0.640625,1,0,0,1,80,240,17,1,,,,,,,,
,,,,,,,,,,,,,FF,,,,,,,,2.1829,,,,,,,,,,,,,,,,,,,,,,60fccd293da770308619aa88,61036bcc00901aa2abfd1f08,2021-07-29_22h03.36.682,Simcolourproject_2stim_asymm_v5,2020.2.10,MacIntel,60,61025ae37ef11b136ea224fe,,,,,,,,,2243,25.22265625,-66.8515625,1,0,0,response3disk,,4,10.3984375,2.1328125,1,0,0,rectangle,10.3984375,2.1328125,1,0,0,10.3984375,2.1328125,1,0,0,1,81,241,51,1,,,,,,,,
,,,,,,,,,,,,,FF,,,,,,,,4.2159,,,,,,,,,,,,,,,,,,,,,,60fccd293da770308619aa88,61036bcc00901aa2abfd1f08,2021-07-29_22h03.36.682,Simcolourproject_2stim_asymm_v5,2020.2.10,MacIntel,60,61025ae37ef11b136ea224fe,,,,,,,,,291,-29.2890625,-68.0625,1,0,0,response5disk,,3,-9.4453125,-17.6015625,1,0,0,rectangle,-9.4453125,-17.6015625,1,0,0,-9.4453125,-17.6015625,1,0,0,1,82,242,71,1,,,,,,,,
,,,,,,,,,,,,,FF,,,,,,,,1.0334,,,,,,,,,,,,,,,,,,,,,,60fccd293da770308619aa88,61036bcc00901aa2abfd1f08,2021-07-29_22h03.36.682,Simcolourproject_2stim_asymm_v5,2020.2.10,MacIntel,60,61025ae37ef11b136ea224fe,,,,,,,,,4009,53.2578125,-42.73828125,1,0,0,response3disk,,5,9.796875,17.828125,1,0,0,rectangle,9.796875,17.828125,1,0,0,9.796875,17.828125,1,0,0,1,83,243,0,1,,,,,,,,
,,,,,,,,,,,,,FF,,,,,,,,0.9664,,,,,,,,,,,,,,,,,,,,,,60fccd293da770308619aa88,61036bcc00901aa2abfd1f08,2021-07-29_22h03.36.682,Simcolourproject_2stim_asymm_v5,2020.2.10,MacIntel,60,61025ae37ef11b136ea224fe,,,,,,,,,3177,58.34375,75.8515625,1,0,0,response1disk,,7,25.078125,-9.859375,1,0,0,rectangle,25.078125,-9.859375,1,0,0,25.078125,-9.859375,1,0,0,1,84,244,47,1,,,,,,,,
,,,,,,,,,,,,,FF,,,,,,,,1.3,,,,,,,,,,,,,,,,,,,,,,60fccd293da770308619aa88,61036bcc00901aa2abfd1f08,2021-07-29_22h03.36.682,Simcolourproject_2stim_asymm_v5,2020.2.10,MacIntel,60,61025ae37ef11b136ea224fe,,,,,,,,,2486,74.03515625,37.77734375,1,0,0,response1disk,,6,-12.61328125,12.4453125,1,0,0,rectangle,-12.61328125,12.4453125,1,0,0,-12.61328125,12.4453125,1,0,0,1,85,245,153,1,,,,,,,,
,,,,,,,,,,,,,FF,,,,,,,,1.183,,,,,,,,,,,,,,,,,,,,,,60fccd293da770308619aa88,61036bcc00901aa2abfd1f08,2021-07-29_22h03.36.682,Simcolourproject_2stim_asymm_v5,2020.2.10,MacIntel,60,61025ae37ef11b136ea224fe,,,,,,,,,2884,70.6171875,33.61328125,1,0,0,response1disk,,6,-3.5625,12.21484375,1,0,0,rectangle,-3.5625,12.21484375,1,0,0,-3.5625,12.21484375,1,0,0,1,86,246,91,1,,,,,,,,
,,,,,,,,,,,,,FF,,,,,,,,1.4174,,,,,,,,,,,,,,,,,,,,,,60fccd293da770308619aa88,61036bcc00901aa2abfd1f08,2021-07-29_22h03.36.682,Simcolourproject_2stim_asymm_v5,2020.2.10,MacIntel,60,61025ae37ef11b136ea224fe,,,,,,,,,514,52.25390625,63.19140625,1,0,0,response1disk,,7,-3.09765625,3.6953125,1,0,0,rectangle,-3.09765625,3.6953125,1,0,0,-3.09765625,3.6953125,1,0,0,1,87,247,124,1,,,,,,,,
