key_resp.keys,key_resp.rt,key_resp_14.keys,key_resp_14.rt,key_resp_15.keys,key_resp_15.rt,key_resp_17.keys,key_resp_17.rt,key_resp_9.keys,key_resp_9.rt,key_resp_10.keys,key_resp_10.rt,practice_comparison,Ecc,mouse_5.x,mouse_5.y,mouse_5.leftButton,mouse_5.midButton,mouse_5.rightButton,mouse_5.clicked_name,pracsimilarity,response_time,mouse_10.x,mouse_10.y,mouse_10.leftButton,mouse_10.midButton,mouse_10.rightButton,mouse_10.clicked_name,mouse_7.x,mouse_7.y,mouse_7.leftButton,mouse_7.midButton,mouse_7.rightButton,mouse_6.x,mouse_6.y,mouse_6.leftButton,mouse_6.midButton,mouse_6.rightButton,duringprac.thisRepN,duringprac.thisTrialN,duringprac.thisN,duringprac.thisIndex,duringprac.ran,participant,session,date,expName,psychopyVersion,OS,frameRate,study_id,mouse_7.clicked_name,catchpracsimilarity,catch_response_time,catchnumberprac,catchtrialorderprac,mouse_6.clicked_name,key_resp_22.keys,key_resp_22.rt,realcomparison,mouse.x,mouse.y,mouse.leftButton,mouse.midButton,mouse.rightButton,mouse.clicked_name,Colour2,similarity,mouse_2.x,mouse_2.y,mouse_2.leftButton,mouse_2.midButton,mouse_2.rightButton,mouse_2.clicked_name,mouse_3.x,mouse_3.y,mouse_3.leftButton,mouse_3.midButton,mouse_3.rightButton,mouse_11.x,mouse_11.y,mouse_11.leftButton,mouse_11.midButton,mouse_11.rightButton,trials_2.thisRepN,trials_2.thisTrialN,trials_2.thisN,trials_2.thisIndex,trials_2.ran,Colour1,mouse_3.clicked_name,catchornah,catchsimilarity,catchnumber,catchtrialorder,catchRT,mouse_11.clicked_name
space,8.0221,space,8.5306,space,34.7433,space,14.4695,space,1.5249,space,4.0348,86,PF,-20.22372974,56.47481247,1,0,0,response7disk_5,0,16.8499,4.263266743,-9.370582753,1,0,0,rectangle_8,4.263266743,-9.370582753,1,0,0,4.263266743,-9.370582753,1,0,0,0,0,0,6,1,60fcd1cab3a2ced3c5c9b2e9,61036e90dfbeb787579eee8b,2021-07-29_20h15.17.321,Simcolourproject_2stim_asymm_v5,2020.2.10,Linux x86_64,60,61025ae37ef11b136ea224fe,,,,,,,,,,,,,,,,,,,,,,,,,,,,,,,,,,,,,,,,,,,,,,
,,,,,,,,,,,,22,FF,23.62665093,38.29779754,1,0,0,response1disk_5,7,9.7348,1.371305372,4.612096217,1,0,0,rectangle_8,52.1668958,-24.78577612,1,0,0,-3.909122299,3.382192836,1,0,0,0,1,1,0,1,60fcd1cab3a2ced3c5c9b2e9,61036e90dfbeb787579eee8b,2021-07-29_20h15.17.321,Simcolourproject_2stim_asymm_v5,2020.2.10,Linux x86_64,60,61025ae37ef11b136ea224fe,response3disk_7,5,5.7104,5,"[2,5]",rectangle_4,,,,,,,,,,,,,,,,,,,,,,,,,,,,,,,,,,,,,,,,
,,,,,,,,,,,,19,FF,-23.19756817,41.75297848,1,0,0,response7disk_5,0,5.8275,0.059781925,-8.169256675,1,0,0,rectangle_8,0.059781925,-8.169256675,1,0,0,0.059781925,-8.169256675,1,0,0,0,2,2,5,1,60fcd1cab3a2ced3c5c9b2e9,61036e90dfbeb787579eee8b,2021-07-29_20h15.17.321,Simcolourproject_2stim_asymm_v5,2020.2.10,Linux x86_64,60,61025ae37ef11b136ea224fe,,,,,,,,,,,,,,,,,,,,,,,,,,,,,,,,,,,,,,,,,,,,,,
,,,,,,,,,,,,26,PF,-25.68713439,47.39748408,1,0,0,response7disk_5,0,2.3887,-12.96134276,2.220186248,1,0,0,rectangle_8,-12.96134276,2.220186248,1,0,0,-12.96134276,2.220186248,1,0,0,0,3,3,1,1,60fcd1cab3a2ced3c5c9b2e9,61036e90dfbeb787579eee8b,2021-07-29_20h15.17.321,Simcolourproject_2stim_asymm_v5,2020.2.10,Linux x86_64,60,61025ae37ef11b136ea224fe,,,,,,,,,,,,,,,,,,,,,,,,,,,,,,,,,,,,,,,,,,,,,,
,,,,,,,,,,,,133,PF,-14.01423134,46.05424805,1,0,0,response7disk_5,0,8.1627,0.268766302,-4.886104923,1,0,0,rectangle_8,50.04384891,-41.91653283,1,0,0,-8.488018303,10.24354671,1,0,0,0,4,4,2,1,60fcd1cab3a2ced3c5c9b2e9,61036e90dfbeb787579eee8b,2021-07-29_20h15.17.321,Simcolourproject_2stim_asymm_v5,2020.2.10,Linux x86_64,60,61025ae37ef11b136ea224fe,response3disk_7,5,2.5059,5,"[2,5]",rectangle_4,,,,,,,,,,,,,,,,,,,,,,,,,,,,,,,,,,,,,,,,
,,,,,,,,,,,,129,PF,50.33471034,14.10433519,1,0,0,response1disk_5,6,7.5465,7.962896704,-1.486767932,1,0,0,rectangle_8,7.962896704,-1.486767932,1,0,0,7.962896704,-1.486767932,1,0,0,0,5,5,4,1,60fcd1cab3a2ced3c5c9b2e9,61036e90dfbeb787579eee8b,2021-07-29_20h15.17.321,Simcolourproject_2stim_asymm_v5,2020.2.10,Linux x86_64,60,61025ae37ef11b136ea224fe,,,,,,,,,,,,,,,,,,,,,,,,,,,,,,,,,,,,,,,,,,,,,,
,,,,,,,,,,,,129,FF,51.62361866,20.78818598,1,0,0,response1disk_5,6,1.6818,8.818982237,-2.297340513,1,0,0,rectangle_8,8.818982237,-2.297340513,1,0,0,8.818982237,-2.297340513,1,0,0,0,6,6,3,1,60fcd1cab3a2ced3c5c9b2e9,61036e90dfbeb787579eee8b,2021-07-29_20h15.17.321,Simcolourproject_2stim_asymm_v5,2020.2.10,Linux x86_64,60,61025ae37ef11b136ea224fe,,,,,,,,,,,,,,,,,,,,,,,,,,,,,,,,,,,,,,,,,,,,,,
,,,,,,,,,,,,,FF,,,,,,,,4.2073,,,,,,,,,,,,,,,,,,,,,,60fcd1cab3a2ced3c5c9b2e9,61036e90dfbeb787579eee8b,2021-07-29_20h15.17.321,Simcolourproject_2stim_asymm_v5,2020.2.10,Linux x86_64,60,61025ae37ef11b136ea224fe,,,,,,,space,1.1432,2099,-21.2250147,37.68510736,1,0,0,response7disk,,0,-14.01824038,6.55144656,1,0,0,rectangle,-14.01824038,6.55144656,1,0,0,-14.01824038,6.55144656,1,0,0,0,0,0,28,1,,,,,,,,
,,,,,,,,,,,,,FF,,,,,,,,5.3483,,,,,,,,,,,,,,,,,,,,,,60fcd1cab3a2ced3c5c9b2e9,61036e90dfbeb787579eee8b,2021-07-29_20h15.17.321,Simcolourproject_2stim_asymm_v5,2020.2.10,Linux x86_64,60,61025ae37ef11b136ea224fe,,,,,,,,,4223,-41.41929939,-33.03402865,1,0,0,response5disk,,2,-1.739303203,2.319795624,1,0,0,rectangle,-1.739303203,2.319795624,1,0,0,-1.739303203,2.319795624,1,0,0,0,1,1,112,1,,,,,,,,
,,,,,,,,,,,,,FF,,,,,,,,1.7691,,,,,,,,,,,,,,,,,,,,,,60fcd1cab3a2ced3c5c9b2e9,61036e90dfbeb787579eee8b,2021-07-29_20h15.17.321,Simcolourproject_2stim_asymm_v5,2020.2.10,Linux x86_64,60,61025ae37ef11b136ea224fe,,,,,,,,,2051,47.92732957,19.92202643,1,0,0,response1disk,,6,-16.15074451,-1.163140257,1,0,0,rectangle,-16.15074451,-1.163140257,1,0,0,-16.15074451,-1.163140257,1,0,0,0,2,2,74,1,,,,,,,,
,,,,,,,,,,,,,FF,,,,,,,,1.3376,,,,,,,,,,,,,,,,,,,,,,60fcd1cab3a2ced3c5c9b2e9,61036e90dfbeb787579eee8b,2021-07-29_20h15.17.321,Simcolourproject_2stim_asymm_v5,2020.2.10,Linux x86_64,60,61025ae37ef11b136ea224fe,,,,,,,,,2988,44.733045,29.04342864,1,0,0,response1disk,,6,-4.410098865,-1.29096715,1,0,0,rectangle,-4.410098865,-1.29096715,1,0,0,-4.410098865,-1.29096715,1,0,0,0,3,3,124,1,,,,,,,,
,,,,,,,,,,,,,FF,,,,,,,,1.1924,,,,,,,,,,,,,,,,,,,,,,60fcd1cab3a2ced3c5c9b2e9,61036e90dfbeb787579eee8b,2021-07-29_20h15.17.321,Simcolourproject_2stim_asymm_v5,2020.2.10,Linux x86_64,60,61025ae37ef11b136ea224fe,,,,,,,,,2311,43.27010297,26.25714161,1,0,0,response1disk,,6,3.96171452,-3.764034602,1,0,0,rectangle,3.96171452,-3.764034602,1,0,0,3.96171452,-3.764034602,1,0,0,0,4,4,103,1,,,,,,,,
,,,,,,,,,,,,,FF,,,,,,,,3.0948,,,,,,,,,,,,,,,,,,,,,,60fcd1cab3a2ced3c5c9b2e9,61036e90dfbeb787579eee8b,2021-07-29_20h15.17.321,Simcolourproject_2stim_asymm_v5,2020.2.10,Linux x86_64,60,61025ae37ef11b136ea224fe,,,,,,,,,3728,35.79636731,-42.87767593,1,0,0,response3disk,,4,6.04025072,-12.6851901,1,0,0,rectangle,6.04025072,-12.6851901,1,0,0,6.04025072,-12.6851901,1,0,0,0,5,5,2,1,,,,,,,,
,,,,,,,,,,,,,FF,,,,,,,,2.1889,,,,,,,,,,,,,,,,,,,,,,60fcd1cab3a2ced3c5c9b2e9,61036e90dfbeb787579eee8b,2021-07-29_20h15.17.321,Simcolourproject_2stim_asymm_v5,2020.2.10,Linux x86_64,60,61025ae37ef11b136ea224fe,,,,,,,,,1880,15.84062086,-37.54266355,1,0,0,response3disk,,4,-7.017572157,13.37294127,1,0,0,rectangle,-7.017572157,13.37294127,1,0,0,-7.017572157,13.37294127,1,0,0,0,6,6,24,1,,,,,,,,
,,,,,,,,,,,,,FF,,,,,,,,1.2597,,,,,,,,,,,,,,,,,,,,,,60fcd1cab3a2ced3c5c9b2e9,61036e90dfbeb787579eee8b,2021-07-29_20h15.17.321,Simcolourproject_2stim_asymm_v5,2020.2.10,Linux x86_64,60,61025ae37ef11b136ea224fe,,,,,,,,,2362,-46.01387179,-20.15332338,1,0,0,response5disk,,2,-3.482313085,-3.746816263,1,0,0,rectangle,-3.482313085,-3.746816263,1,0,0,-3.482313085,-3.746816263,1,0,0,0,7,7,130,1,,,,,,,,
,,,,,,,,,,,,,FF,,,,,,,,3.1072,,,,,,,,,,,,,,,,,,,,,,60fcd1cab3a2ced3c5c9b2e9,61036e90dfbeb787579eee8b,2021-07-29_20h15.17.321,Simcolourproject_2stim_asymm_v5,2020.2.10,Linux x86_64,60,61025ae37ef11b136ea224fe,,,,,,,,,3180,13.32011303,-46.58815088,1,0,0,response3disk,,4,-5.0212728,-3.530636163,1,0,0,rectangle,-5.0212728,-3.530636163,1,0,0,-5.0212728,-3.530636163,1,0,0,0,8,8,19,1,,,,,,,,
,,,,,,,,,,,,,FF,,,,,,,,1.5379,,,,,,,,,,,,,,,,,,,,,,60fcd1cab3a2ced3c5c9b2e9,61036e90dfbeb787579eee8b,2021-07-29_20h15.17.321,Simcolourproject_2stim_asymm_v5,2020.2.10,Linux x86_64,60,61025ae37ef11b136ea224fe,,,,,,,,,2027,-43.33963246,-18.34971522,1,0,0,response5disk,,2,-0.294350479,7.321003515,1,0,0,rectangle,-45.18497581,13.74573115,1,0,0,-13.97265033,2.488895132,1,0,0,0,9,9,27,1,,response7disk_3,TRUE,1,5,"[185,227,10,310,119,95,16,197,124,49,163,292,218,117,22,113,235,35,131,297]",3.3674,rectangle
,,,,,,,,,,,,,FF,,,,,,,,1.3549,,,,,,,,,,,,,,,,,,,,,,60fcd1cab3a2ced3c5c9b2e9,61036e90dfbeb787579eee8b,2021-07-29_20h15.17.321,Simcolourproject_2stim_asymm_v5,2020.2.10,Linux x86_64,60,61025ae37ef11b136ea224fe,,,,,,,,,1370,-50.15100175,14.30799987,1,0,0,response7disk,,1,-20.61517711,-0.138674789,1,0,0,rectangle,-20.61517711,-0.138674789,1,0,0,-20.61517711,-0.138674789,1,0,0,0,10,10,9,1,,,,,,,,
,,,,,,,,,,,,,FF,,,,,,,,1.2014,,,,,,,,,,,,,,,,,,,,,,60fcd1cab3a2ced3c5c9b2e9,61036e90dfbeb787579eee8b,2021-07-29_20h15.17.321,Simcolourproject_2stim_asymm_v5,2020.2.10,Linux x86_64,60,61025ae37ef11b136ea224fe,,,,,,,,,3026,47.52632216,-32.63895772,1,0,0,response3disk,,5,-4.72511737,3.374945714,1,0,0,rectangle,-4.72511737,3.374945714,1,0,0,-4.72511737,3.374945714,1,0,0,0,11,11,13,1,,,,,,,,
,,,,,,,,,,,,,FF,,,,,,,,0.9937,,,,,,,,,,,,,,,,,,,,,,60fcd1cab3a2ced3c5c9b2e9,61036e90dfbeb787579eee8b,2021-07-29_20h15.17.321,Simcolourproject_2stim_asymm_v5,2020.2.10,Linux x86_64,60,61025ae37ef11b136ea224fe,,,,,,,,,3171,48.20564988,-29.7352005,1,0,0,response3disk,,5,-17.96509485,-3.869606149,1,0,0,rectangle,-17.96509485,-3.869606149,1,0,0,-17.96509485,-3.869606149,1,0,0,0,12,12,142,1,,,,,,,,
,,,,,,,,,,,,,FF,,,,,,,,2.7497,,,,,,,,,,,,,,,,,,,,,,60fcd1cab3a2ced3c5c9b2e9,61036e90dfbeb787579eee8b,2021-07-29_20h15.17.321,Simcolourproject_2stim_asymm_v5,2020.2.10,Linux x86_64,60,61025ae37ef11b136ea224fe,,,,,,,,,3814,-45.32431586,24.44515557,1,0,0,response7disk,,1,-29.48200489,6.008734796,1,0,0,rectangle,-29.48200489,6.008734796,1,0,0,-29.48200489,6.008734796,1,0,0,0,13,13,43,1,,,,,,,,
,,,,,,,,,,,,,FF,,,,,,,,2.1881,,,,,,,,,,,,,,,,,,,,,,60fcd1cab3a2ced3c5c9b2e9,61036e90dfbeb787579eee8b,2021-07-29_20h15.17.321,Simcolourproject_2stim_asymm_v5,2020.2.10,Linux x86_64,60,61025ae37ef11b136ea224fe,,,,,,,,,374,14.46351353,-55.1933113,1,0,0,response3disk,,4,-16.93384485,-1.463818714,1,0,0,rectangle,-16.93384485,-1.463818714,1,0,0,-16.93384485,-1.463818714,1,0,0,0,14,14,109,1,,,,,,,,
,,,,,,,,,,,,,FF,,,,,,,,1.1048,,,,,,,,,,,,,,,,,,,,,,60fcd1cab3a2ced3c5c9b2e9,61036e90dfbeb787579eee8b,2021-07-29_20h15.17.321,Simcolourproject_2stim_asymm_v5,2020.2.10,Linux x86_64,60,61025ae37ef11b136ea224fe,,,,,,,,,3597,-46.41318306,16.32411316,1,0,0,response7disk,,1,-25.50323225,3.519836751,1,0,0,rectangle,-29.77543622,14.33449555,1,0,0,-11.49305533,2.665498751,1,0,0,0,15,15,137,1,,response7disk_3,TRUE,1,5,"[185,227,10,310,119,95,16,197,124,49,163,292,218,117,22,113,235,35,131,297]",1.5252,rectangle
,,,,,,,,,,,,,FF,,,,,,,,1.1101,,,,,,,,,,,,,,,,,,,,,,60fcd1cab3a2ced3c5c9b2e9,61036e90dfbeb787579eee8b,2021-07-29_20h15.17.321,Simcolourproject_2stim_asymm_v5,2020.2.10,Linux x86_64,60,61025ae37ef11b136ea224fe,,,,,,,,,3381,-24.25025115,49.35942385,1,0,0,response7disk,,0,-21.78350566,7.705075269,1,0,0,rectangle,-21.78350566,7.705075269,1,0,0,-21.78350566,7.705075269,1,0,0,0,16,16,50,1,,,,,,,,
,,,,,,,,,,,,,FF,,,,,,,,1.919,,,,,,,,,,,,,,,,,,,,,,60fcd1cab3a2ced3c5c9b2e9,61036e90dfbeb787579eee8b,2021-07-29_20h15.17.321,Simcolourproject_2stim_asymm_v5,2020.2.10,Linux x86_64,60,61025ae37ef11b136ea224fe,,,,,,,,,385,40.83260295,-19.42984475,1,0,0,response3disk,,5,-0.799181897,0.965303426,1,0,0,rectangle,-0.799181897,0.965303426,1,0,0,-0.799181897,0.965303426,1,0,0,0,17,17,39,1,,,,,,,,
,,,,,,,,,,,,,FF,,,,,,,,1.0059,,,,,,,,,,,,,,,,,,,,,,60fcd1cab3a2ced3c5c9b2e9,61036e90dfbeb787579eee8b,2021-07-29_20h15.17.321,Simcolourproject_2stim_asymm_v5,2020.2.10,Linux x86_64,60,61025ae37ef11b136ea224fe,,,,,,,,,4145,-42.30283147,18.47260208,1,0,0,response7disk,,1,-19.49228442,-6.495171547,1,0,0,rectangle,-19.49228442,-6.495171547,1,0,0,-19.49228442,-6.495171547,1,0,0,0,18,18,123,1,,,,,,,,
,,,,,,,,,,,,,FF,,,,,,,,1.0121,,,,,,,,,,,,,,,,,,,,,,60fcd1cab3a2ced3c5c9b2e9,61036e90dfbeb787579eee8b,2021-07-29_20h15.17.321,Simcolourproject_2stim_asymm_v5,2020.2.10,Linux x86_64,60,61025ae37ef11b136ea224fe,,,,,,,,,2720,-54.88398904,-20.6398571,1,0,0,response5disk,,2,4.484072665,5.242287422,1,0,0,rectangle,4.484072665,5.242287422,1,0,0,4.484072665,5.242287422,1,0,0,0,19,19,61,1,,,,,,,,
,,,,,,,,,,,,,FF,,,,,,,,1.3545,,,,,,,,,,,,,,,,,,,,,,60fcd1cab3a2ced3c5c9b2e9,61036e90dfbeb787579eee8b,2021-07-29_20h15.17.321,Simcolourproject_2stim_asymm_v5,2020.2.10,Linux x86_64,60,61025ae37ef11b136ea224fe,,,,,,,,,3058,-24.58007229,-37.39443165,1,0,0,response5disk,,3,-11.95630575,-4.115391513,1,0,0,rectangle,-11.95630575,-4.115391513,1,0,0,-11.95630575,-4.115391513,1,0,0,0,20,20,101,1,,,,,,,,
,,,,,,,,,,,,,FF,,,,,,,,1.5331,,,,,,,,,,,,,,,,,,,,,,60fcd1cab3a2ced3c5c9b2e9,61036e90dfbeb787579eee8b,2021-07-29_20h15.17.321,Simcolourproject_2stim_asymm_v5,2020.2.10,Linux x86_64,60,61025ae37ef11b136ea224fe,,,,,,,,,3812,-22.07518946,-38.22836463,1,0,0,response5disk,,3,-17.8988428,8.104335141,1,0,0,rectangle,-28.58613729,-34.86426099,1,0,0,-22.33048346,2.928245464,1,0,0,0,21,21,133,1,,response5disk_3,TRUE,3,3,"[185,227,10,310,119,95,16,197,124,49,163,292,218,117,22,113,235,35,131,297]",4.7481,rectangle
,,,,,,,,,,,,,FF,,,,,,,,2.8531,,,,,,,,,,,,,,,,,,,,,,60fcd1cab3a2ced3c5c9b2e9,61036e90dfbeb787579eee8b,2021-07-29_20h15.17.321,Simcolourproject_2stim_asymm_v5,2020.2.10,Linux x86_64,60,61025ae37ef11b136ea224fe,,,,,,,,,4273,48.66185877,14.5623944,1,0,0,response1disk,,6,19.22112047,6.341177233,1,0,0,rectangle,19.22112047,6.341177233,1,0,0,19.22112047,6.341177233,1,0,0,0,22,22,17,1,,,,,,,,
,,,,,,,,,,,,,FF,,,,,,,,1.3181,,,,,,,,,,,,,,,,,,,,,,60fcd1cab3a2ced3c5c9b2e9,61036e90dfbeb787579eee8b,2021-07-29_20h15.17.321,Simcolourproject_2stim_asymm_v5,2020.2.10,Linux x86_64,60,61025ae37ef11b136ea224fe,,,,,,,,,718,-46.73370115,19.35479781,1,0,0,response7disk,,1,-15.52785183,-8.544153881,1,0,0,rectangle,-15.52785183,-8.544153881,1,0,0,-15.52785183,-8.544153881,1,0,0,0,23,23,152,1,,,,,,,,
,,,,,,,,,,,,,FF,,,,,,,,2.5494,,,,,,,,,,,,,,,,,,,,,,60fcd1cab3a2ced3c5c9b2e9,61036e90dfbeb787579eee8b,2021-07-29_20h15.17.321,Simcolourproject_2stim_asymm_v5,2020.2.10,Linux x86_64,60,61025ae37ef11b136ea224fe,,,,,,,,,2821,45.21330817,33.82216017,1,0,0,response1disk,,6,8.348227711,-3.556103885,1,0,0,rectangle,8.348227711,-3.556103885,1,0,0,8.348227711,-3.556103885,1,0,0,0,24,24,106,1,,,,,,,,
,,,,,,,,,,,,,FF,,,,,,,,1.0394,,,,,,,,,,,,,,,,,,,,,,60fcd1cab3a2ced3c5c9b2e9,61036e90dfbeb787579eee8b,2021-07-29_20h15.17.321,Simcolourproject_2stim_asymm_v5,2020.2.10,Linux x86_64,60,61025ae37ef11b136ea224fe,,,,,,,,,3893,60.61811914,12.12623073,1,0,0,response1disk,,6,7.925016359,4.164059618,1,0,0,rectangle,7.925016359,4.164059618,1,0,0,7.925016359,4.164059618,1,0,0,0,25,25,62,1,,,,,,,,
,,,,,,,,,,,,,FF,,,,,,,,1.998,,,,,,,,,,,,,,,,,,,,,,60fcd1cab3a2ced3c5c9b2e9,61036e90dfbeb787579eee8b,2021-07-29_20h15.17.321,Simcolourproject_2stim_asymm_v5,2020.2.10,Linux x86_64,60,61025ae37ef11b136ea224fe,,,,,,,,,3509,24.16016245,-44.45986139,1,0,0,response3disk,,4,-0.301546203,-5.3112694,1,0,0,rectangle,-0.301546203,-5.3112694,1,0,0,-0.301546203,-5.3112694,1,0,0,0,26,26,121,1,,,,,,,,
,,,,,,,,,,,,,FF,,,,,,,,1.2326,,,,,,,,,,,,,,,,,,,,,,60fcd1cab3a2ced3c5c9b2e9,61036e90dfbeb787579eee8b,2021-07-29_20h15.17.321,Simcolourproject_2stim_asymm_v5,2020.2.10,Linux x86_64,60,61025ae37ef11b136ea224fe,,,,,,,,,1713,23.31307157,34.56789414,1,0,0,response1disk,,7,11.17326885,11.33339047,1,0,0,rectangle,11.17326885,11.33339047,1,0,0,11.17326885,11.33339047,1,0,0,0,27,27,140,1,,,,,,,,
,,,,,,,,,,,,,FF,,,,,,,,0.7562,,,,,,,,,,,,,,,,,,,,,,60fcd1cab3a2ced3c5c9b2e9,61036e90dfbeb787579eee8b,2021-07-29_20h15.17.321,Simcolourproject_2stim_asymm_v5,2020.2.10,Linux x86_64,60,61025ae37ef11b136ea224fe,,,,,,,,,2814,21.97004113,24.94291976,1,0,0,response1disk,,7,31.75468348,6.620371314,1,0,0,rectangle,31.75468348,6.620371314,1,0,0,31.75468348,6.620371314,1,0,0,0,28,28,29,1,,,,,,,,
,,,,,,,,,,,,,FF,,,,,,,,0.9171,,,,,,,,,,,,,,,,,,,,,,60fcd1cab3a2ced3c5c9b2e9,61036e90dfbeb787579eee8b,2021-07-29_20h15.17.321,Simcolourproject_2stim_asymm_v5,2020.2.10,Linux x86_64,60,61025ae37ef11b136ea224fe,,,,,,,,,3025,37.59478426,19.14961688,1,0,0,response1disk,,6,28.37002062,10.78957365,1,0,0,rectangle,28.37002062,10.78957365,1,0,0,28.37002062,10.78957365,1,0,0,0,29,29,15,1,,,,,,,,
,,,,,,,,,,,,,FF,,,,,,,,0.6218,,,,,,,,,,,,,,,,,,,,,,60fcd1cab3a2ced3c5c9b2e9,61036e90dfbeb787579eee8b,2021-07-29_20h15.17.321,Simcolourproject_2stim_asymm_v5,2020.2.10,Linux x86_64,60,61025ae37ef11b136ea224fe,,,,,,,,,1942,29.23479242,13.81645484,1,0,0,response1disk,,6,21.35018093,6.077813744,1,0,0,rectangle,21.35018093,6.077813744,1,0,0,21.35018093,6.077813744,1,0,0,0,30,30,104,1,,,,,,,,
,,,,,,,,,,,,,FF,,,,,,,,1.5204,,,,,,,,,,,,,,,,,,,,,,60fcd1cab3a2ced3c5c9b2e9,61036e90dfbeb787579eee8b,2021-07-29_20h15.17.321,Simcolourproject_2stim_asymm_v5,2020.2.10,Linux x86_64,60,61025ae37ef11b136ea224fe,,,,,,,,,2826,41.52472878,20.24244173,1,0,0,response1disk,,6,23.34910159,2.656606893,1,0,0,rectangle,23.34910159,2.656606893,1,0,0,23.34910159,2.656606893,1,0,0,0,31,31,46,1,,,,,,,,
,,,,,,,,,,,,,FF,,,,,,,,1.0073,,,,,,,,,,,,,,,,,,,,,,60fcd1cab3a2ced3c5c9b2e9,61036e90dfbeb787579eee8b,2021-07-29_20h15.17.321,Simcolourproject_2stim_asymm_v5,2020.2.10,Linux x86_64,60,61025ae37ef11b136ea224fe,,,,,,,,,4315,35.45441623,24.64350056,1,0,0,response1disk,,6,17.17743213,7.473167373,1,0,0,rectangle,17.17743213,7.473167373,1,0,0,17.17743213,7.473167373,1,0,0,0,32,32,44,1,,,,,,,,
,,,,,,,,,,,,,FF,,,,,,,,0.6601,,,,,,,,,,,,,,,,,,,,,,60fcd1cab3a2ced3c5c9b2e9,61036e90dfbeb787579eee8b,2021-07-29_20h15.17.321,Simcolourproject_2stim_asymm_v5,2020.2.10,Linux x86_64,60,61025ae37ef11b136ea224fe,,,,,,,,,1343,43.4699899,21.03823738,1,0,0,response1disk,,6,17.61318461,-2.754937144,1,0,0,rectangle,17.61318461,-2.754937144,1,0,0,17.61318461,-2.754937144,1,0,0,0,33,33,11,1,,,,,,,,
,,,,,,,,,,,,,FF,,,,,,,,0.6452,,,,,,,,,,,,,,,,,,,,,,60fcd1cab3a2ced3c5c9b2e9,61036e90dfbeb787579eee8b,2021-07-29_20h15.17.321,Simcolourproject_2stim_asymm_v5,2020.2.10,Linux x86_64,60,61025ae37ef11b136ea224fe,,,,,,,,,1980,31.88271596,-20.05150388,1,0,0,response3disk,,5,-14.96787033,3.553116973,1,0,0,rectangle,-53.59251083,-26.12078847,1,0,0,-27.16004764,-10.47425258,1,0,0,0,34,34,87,1,,response5disk_3,TRUE,2,2,"[185,227,10,310,119,95,16,197,124,49,163,292,218,117,22,113,235,35,131,297]",2.5018,rectangle
,,,,,,,,,,,,,FF,,,,,,,,1.4113,,,,,,,,,,,,,,,,,,,,,,60fcd1cab3a2ced3c5c9b2e9,61036e90dfbeb787579eee8b,2021-07-29_20h15.17.321,Simcolourproject_2stim_asymm_v5,2020.2.10,Linux x86_64,60,61025ae37ef11b136ea224fe,,,,,,,,,1943,35.63631385,-14.97836446,1,0,0,response3disk,,5,13.30644115,-6.666326976,1,0,0,rectangle,13.30644115,-6.666326976,1,0,0,13.30644115,-6.666326976,1,0,0,0,35,35,63,1,,,,,,,,
,,,,,,,,,,,,,FF,,,,,,,,0.9812,,,,,,,,,,,,,,,,,,,,,,60fcd1cab3a2ced3c5c9b2e9,61036e90dfbeb787579eee8b,2021-07-29_20h15.17.321,Simcolourproject_2stim_asymm_v5,2020.2.10,Linux x86_64,60,61025ae37ef11b136ea224fe,,,,,,,,,3612,28.8003763,-24.92079874,1,0,0,response3disk,,5,-0.957693411,-6.226308469,1,0,0,rectangle,-0.957693411,-6.226308469,1,0,0,-0.957693411,-6.226308469,1,0,0,0,36,36,65,1,,,,,,,,
,,,,,,,,,,,,,FF,,,,,,,,1.1463,,,,,,,,,,,,,,,,,,,,,,60fcd1cab3a2ced3c5c9b2e9,61036e90dfbeb787579eee8b,2021-07-29_20h15.17.321,Simcolourproject_2stim_asymm_v5,2020.2.10,Linux x86_64,60,61025ae37ef11b136ea224fe,,,,,,,,,175,-39.42150949,-20.15183283,1,0,0,response5disk,,2,-3.248040879,7.986325271,1,0,0,rectangle,-3.248040879,7.986325271,1,0,0,-3.248040879,7.986325271,1,0,0,0,37,37,54,1,,,,,,,,
,,,,,,,,,,,,,FF,,,,,,,,0.8378,,,,,,,,,,,,,,,,,,,,,,60fcd1cab3a2ced3c5c9b2e9,61036e90dfbeb787579eee8b,2021-07-29_20h15.17.321,Simcolourproject_2stim_asymm_v5,2020.2.10,Linux x86_64,60,61025ae37ef11b136ea224fe,,,,,,,,,1442,23.69655225,-40.59180009,1,0,0,response3disk,,4,6.549039786,-1.440432611,1,0,0,rectangle,6.549039786,-1.440432611,1,0,0,6.549039786,-1.440432611,1,0,0,0,38,38,131,1,,,,,,,,
,,,,,,,,,,,,,FF,,,,,,,,1.0586,,,,,,,,,,,,,,,,,,,,,,60fcd1cab3a2ced3c5c9b2e9,61036e90dfbeb787579eee8b,2021-07-29_20h15.17.321,Simcolourproject_2stim_asymm_v5,2020.2.10,Linux x86_64,60,61025ae37ef11b136ea224fe,,,,,,,,,2496,-22.65177252,-31.84267379,1,0,0,response5disk,,3,-5.490331192,-6.825815053,1,0,0,rectangle,-5.490331192,-6.825815053,1,0,0,-5.490331192,-6.825815053,1,0,0,0,39,39,80,1,,,,,,,,
,,,,,,,,,,,,,FF,,,,,,,,1.2341,,,,,,,,,,,,,,,,,,,,,,60fcd1cab3a2ced3c5c9b2e9,61036e90dfbeb787579eee8b,2021-07-29_20h15.17.321,Simcolourproject_2stim_asymm_v5,2020.2.10,Linux x86_64,60,61025ae37ef11b136ea224fe,,,,,,,,,4290,47.55849733,22.86543722,1,0,0,response1disk,,6,8.148032397,8.580692052,1,0,0,rectangle,8.148032397,8.580692052,1,0,0,8.148032397,8.580692052,1,0,0,0,40,40,71,1,,,,,,,,
,,,,,,,,,,,,,FF,,,,,,,,0.9549,,,,,,,,,,,,,,,,,,,,,,60fcd1cab3a2ced3c5c9b2e9,61036e90dfbeb787579eee8b,2021-07-29_20h15.17.321,Simcolourproject_2stim_asymm_v5,2020.2.10,Linux x86_64,60,61025ae37ef11b136ea224fe,,,,,,,,,633,-32.54764019,17.85438661,1,0,0,response7disk,,1,-13.13923133,2.636664458,1,0,0,rectangle,-13.13923133,2.636664458,1,0,0,-13.13923133,2.636664458,1,0,0,0,41,41,136,1,,,,,,,,
,,,,,,,,,,,,,FF,,,,,,,,1.888,,,,,,,,,,,,,,,,,,,,,,60fcd1cab3a2ced3c5c9b2e9,61036e90dfbeb787579eee8b,2021-07-29_20h15.17.321,Simcolourproject_2stim_asymm_v5,2020.2.10,Linux x86_64,60,61025ae37ef11b136ea224fe,,,,,,,,,1456,-30.19150325,17.36394664,1,0,0,response7disk,,1,-10.56933,0.376950215,1,0,0,rectangle,-10.56933,0.376950215,1,0,0,-10.56933,0.376950215,1,0,0,0,42,42,45,1,,,,,,,,
,,,,,,,,,,,,,FF,,,,,,,,1.8584,,,,,,,,,,,,,,,,,,,,,,60fcd1cab3a2ced3c5c9b2e9,61036e90dfbeb787579eee8b,2021-07-29_20h15.17.321,Simcolourproject_2stim_asymm_v5,2020.2.10,Linux x86_64,60,61025ae37ef11b136ea224fe,,,,,,,,,2985,-36.10356127,19.58614032,1,0,0,response7disk,,1,-21.09590285,5.46139721,1,0,0,rectangle,-21.09590285,5.46139721,1,0,0,-21.09590285,5.46139721,1,0,0,0,43,43,143,1,,,,,,,,
,,,,,,,,,,,,,FF,,,,,,,,0.8363,,,,,,,,,,,,,,,,,,,,,,60fcd1cab3a2ced3c5c9b2e9,61036e90dfbeb787579eee8b,2021-07-29_20h15.17.321,Simcolourproject_2stim_asymm_v5,2020.2.10,Linux x86_64,60,61025ae37ef11b136ea224fe,,,,,,,,,4020,-27.69700282,52.81930772,1,0,0,response7disk,,0,-14.64740363,15.55170362,1,0,0,rectangle,-14.64740363,15.55170362,1,0,0,-14.64740363,15.55170362,1,0,0,0,44,44,107,1,,,,,,,,
,,,,,,,,,,,,,FF,,,,,,,,1.2577,,,,,,,,,,,,,,,,,,,,,,60fcd1cab3a2ced3c5c9b2e9,61036e90dfbeb787579eee8b,2021-07-29_20h15.17.321,Simcolourproject_2stim_asymm_v5,2020.2.10,Linux x86_64,60,61025ae37ef11b136ea224fe,,,,,,,,,2073,40.0029874,-14.97520348,1,0,0,response3disk,,5,-4.010684799,-2.495839692,1,0,0,rectangle,-4.010684799,-2.495839692,1,0,0,-4.010684799,-2.495839692,1,0,0,0,45,45,92,1,,,,,,,,
,,,,,,,,,,,,,FF,,,,,,,,1.0063,,,,,,,,,,,,,,,,,,,,,,60fcd1cab3a2ced3c5c9b2e9,61036e90dfbeb787579eee8b,2021-07-29_20h15.17.321,Simcolourproject_2stim_asymm_v5,2020.2.10,Linux x86_64,60,61025ae37ef11b136ea224fe,,,,,,,,,2656,-28.65778613,26.76387475,1,0,0,response7disk,,1,-8.002204155,2.942097232,1,0,0,rectangle,-8.002204155,2.942097232,1,0,0,-8.002204155,2.942097232,1,0,0,0,46,46,42,1,,,,,,,,
,,,,,,,,,,,,,FF,,,,,,,,0.9402,,,,,,,,,,,,,,,,,,,,,,60fcd1cab3a2ced3c5c9b2e9,61036e90dfbeb787579eee8b,2021-07-29_20h15.17.321,Simcolourproject_2stim_asymm_v5,2020.2.10,Linux x86_64,60,61025ae37ef11b136ea224fe,,,,,,,,,606,30.20302845,-14.59215968,1,0,0,response3disk,,5,-0.260324985,8.679890244,1,0,0,rectangle,-0.260324985,8.679890244,1,0,0,-0.260324985,8.679890244,1,0,0,0,47,47,147,1,,,,,,,,
,,,,,,,,,,,,,FF,,,,,,,,0.8485,,,,,,,,,,,,,,,,,,,,,,60fcd1cab3a2ced3c5c9b2e9,61036e90dfbeb787579eee8b,2021-07-29_20h15.17.321,Simcolourproject_2stim_asymm_v5,2020.2.10,Linux x86_64,60,61025ae37ef11b136ea224fe,,,,,,,,,1782,38.4715832,-22.06846525,1,0,0,response3disk,,5,17.35979233,-11.11503178,1,0,0,rectangle,36.08589239,-24.68015318,1,0,0,17.92481084,-9.25786688,1,0,0,0,48,48,126,1,,response3disk_3,TRUE,5,7,"[185,227,10,310,119,95,16,197,124,49,163,292,218,117,22,113,235,35,131,297]",0.7798,rectangle
,,,,,,,,,,,,,FF,,,,,,,,1.2162,,,,,,,,,,,,,,,,,,,,,,60fcd1cab3a2ced3c5c9b2e9,61036e90dfbeb787579eee8b,2021-07-29_20h15.17.321,Simcolourproject_2stim_asymm_v5,2020.2.10,Linux x86_64,60,61025ae37ef11b136ea224fe,,,,,,,,,2791,-22.59451512,-44.18729765,1,0,0,response5disk,,3,-22.59451512,-11.80458771,1,0,0,rectangle,-22.59451512,-11.80458771,1,0,0,-22.59451512,-11.80458771,1,0,0,0,49,49,30,1,,,,,,,,
,,,,,,,,,,,,,FF,,,,,,,,1.28,,,,,,,,,,,,,,,,,,,,,,60fcd1cab3a2ced3c5c9b2e9,61036e90dfbeb787579eee8b,2021-07-29_20h15.17.321,Simcolourproject_2stim_asymm_v5,2020.2.10,Linux x86_64,60,61025ae37ef11b136ea224fe,,,,,,,,,3202,-48.80884508,-19.65306638,1,0,0,response5disk,,2,-31.74670474,-6.000773928,1,0,0,rectangle,-31.74670474,-6.000773928,1,0,0,-31.74670474,-6.000773928,1,0,0,0,50,50,66,1,,,,,,,,
,,,,,,,,,,,,,FF,,,,,,,,0.9098,,,,,,,,,,,,,,,,,,,,,,60fcd1cab3a2ced3c5c9b2e9,61036e90dfbeb787579eee8b,2021-07-29_20h15.17.321,Simcolourproject_2stim_asymm_v5,2020.2.10,Linux x86_64,60,61025ae37ef11b136ea224fe,,,,,,,,,2159,-21.51310064,13.09737075,1,0,0,response7disk,,1,-2.631264559,11.00750128,1,0,0,rectangle,-2.631264559,11.00750128,1,0,0,-2.631264559,11.00750128,1,0,0,0,51,51,120,1,,,,,,,,
,,,,,,,,,,,,,FF,,,,,,,,1.3811,,,,,,,,,,,,,,,,,,,,,,60fcd1cab3a2ced3c5c9b2e9,61036e90dfbeb787579eee8b,2021-07-29_20h15.17.321,Simcolourproject_2stim_asymm_v5,2020.2.10,Linux x86_64,60,61025ae37ef11b136ea224fe,,,,,,,,,2479,59.37510926,17.74634796,1,0,0,response1disk,,6,12.77498556,7.076939985,1,0,0,rectangle,12.77498556,7.076939985,1,0,0,12.77498556,7.076939985,1,0,0,0,52,52,115,1,,,,,,,,
,,,,,,,,,,,,,FF,,,,,,,,0.7122,,,,,,,,,,,,,,,,,,,,,,60fcd1cab3a2ced3c5c9b2e9,61036e90dfbeb787579eee8b,2021-07-29_20h15.17.321,Simcolourproject_2stim_asymm_v5,2020.2.10,Linux x86_64,60,61025ae37ef11b136ea224fe,,,,,,,,,1265,37.84463007,8.924364958,1,0,0,response1disk,,6,7.80047894,8.203790322,1,0,0,rectangle,7.80047894,8.203790322,1,0,0,7.80047894,8.203790322,1,0,0,0,53,53,114,1,,,,,,,,
,,,,,,,,,,,,,FF,,,,,,,,0.4731,,,,,,,,,,,,,,,,,,,,,,60fcd1cab3a2ced3c5c9b2e9,61036e90dfbeb787579eee8b,2021-07-29_20h15.17.321,Simcolourproject_2stim_asymm_v5,2020.2.10,Linux x86_64,60,61025ae37ef11b136ea224fe,,,,,,,,,22,38.74676823,-21.17917659,1,0,0,response3disk,,5,3.92707225,-3.765936329,1,0,0,rectangle,3.92707225,-3.765936329,1,0,0,3.92707225,-3.765936329,1,0,0,0,54,54,1,1,,,,,,,,
,,,,,,,,,,,,,FF,,,,,,,,0.4601,,,,,,,,,,,,,,,,,,,,,,60fcd1cab3a2ced3c5c9b2e9,61036e90dfbeb787579eee8b,2021-07-29_20h15.17.321,Simcolourproject_2stim_asymm_v5,2020.2.10,Linux x86_64,60,61025ae37ef11b136ea224fe,,,,,,,,,3345,43.38795865,-16.44994136,1,0,0,response3disk,,5,1.52529386,-0.975203373,1,0,0,rectangle,1.52529386,-0.975203373,1,0,0,1.52529386,-0.975203373,1,0,0,0,55,55,119,1,,,,,,,,
,,,,,,,,,,,,,FF,,,,,,,,0.6905,,,,,,,,,,,,,,,,,,,,,,60fcd1cab3a2ced3c5c9b2e9,61036e90dfbeb787579eee8b,2021-07-29_20h15.17.321,Simcolourproject_2stim_asymm_v5,2020.2.10,Linux x86_64,60,61025ae37ef11b136ea224fe,,,,,,,,,3629,33.34925586,21.52788068,1,0,0,response1disk,,6,-6.80339658,-8.791686778,1,0,0,rectangle,-6.80339658,-8.791686778,1,0,0,-6.80339658,-8.791686778,1,0,0,0,56,56,68,1,,,,,,,,
,,,,,,,,,,,,,FF,,,,,,,,0.5658,,,,,,,,,,,,,,,,,,,,,,60fcd1cab3a2ced3c5c9b2e9,61036e90dfbeb787579eee8b,2021-07-29_20h15.17.321,Simcolourproject_2stim_asymm_v5,2020.2.10,Linux x86_64,60,61025ae37ef11b136ea224fe,,,,,,,,,608,27.85413863,11.85777884,1,0,0,response1disk,,6,13.09833054,3.804736013,1,0,0,rectangle,13.09833054,3.804736013,1,0,0,13.09833054,3.804736013,1,0,0,0,57,57,125,1,,,,,,,,
,,,,,,,,,,,,,FF,,,,,,,,0.8066,,,,,,,,,,,,,,,,,,,,,,60fcd1cab3a2ced3c5c9b2e9,61036e90dfbeb787579eee8b,2021-07-29_20h15.17.321,Simcolourproject_2stim_asymm_v5,2020.2.10,Linux x86_64,60,61025ae37ef11b136ea224fe,,,,,,,,,1641,46.30500225,24.13944011,1,0,0,response1disk,,6,15.93354849,5.649359793,1,0,0,rectangle,15.93354849,5.649359793,1,0,0,15.93354849,5.649359793,1,0,0,0,58,58,56,1,,,,,,,,
,,,,,,,,,,,,,FF,,,,,,,,1.1789,,,,,,,,,,,,,,,,,,,,,,60fcd1cab3a2ced3c5c9b2e9,61036e90dfbeb787579eee8b,2021-07-29_20h15.17.321,Simcolourproject_2stim_asymm_v5,2020.2.10,Linux x86_64,60,61025ae37ef11b136ea224fe,,,,,,,,,530,-51.12555974,-17.90985091,1,0,0,response5disk,,2,-26.14822608,2.875254098,1,0,0,rectangle,-26.14822608,2.875254098,1,0,0,-26.14822608,2.875254098,1,0,0,0,59,59,99,1,,,,,,,,
,,,,,,,,,,,,,FF,,,,,,,,1.1351,,,,,,,,,,,,,,,,,,,,,,60fcd1cab3a2ced3c5c9b2e9,61036e90dfbeb787579eee8b,2021-07-29_20h15.17.321,Simcolourproject_2stim_asymm_v5,2020.2.10,Linux x86_64,60,61025ae37ef11b136ea224fe,,,,,,,,,3514,-24.31475567,45.07930458,1,0,0,response7disk,,0,-11.28900517,5.957388167,1,0,0,rectangle,-11.28900517,5.957388167,1,0,0,-11.28900517,5.957388167,1,0,0,0,60,60,118,1,,,,,,,,
,,,,,,,,,,,,,FF,,,,,,,,0.673,,,,,,,,,,,,,,,,,,,,,,60fcd1cab3a2ced3c5c9b2e9,61036e90dfbeb787579eee8b,2021-07-29_20h15.17.321,Simcolourproject_2stim_asymm_v5,2020.2.10,Linux x86_64,60,61025ae37ef11b136ea224fe,,,,,,,,,3306,-40.73570563,21.15840596,1,0,0,response7disk,,1,25.02575662,-1.127829813,1,0,0,rectangle,25.02575662,-1.127829813,1,0,0,25.02575662,-1.127829813,1,0,0,0,61,61,146,1,,,,,,,,
,,,,,,,,,,,,,FF,,,,,,,,0.9183,,,,,,,,,,,,,,,,,,,,,,60fcd1cab3a2ced3c5c9b2e9,61036e90dfbeb787579eee8b,2021-07-29_20h15.17.321,Simcolourproject_2stim_asymm_v5,2020.2.10,Linux x86_64,60,61025ae37ef11b136ea224fe,,,,,,,,,3854,46.75560875,16.15028504,1,0,0,response1disk,,6,32.93873982,-9.354135384,1,0,0,rectangle,32.93873982,-9.354135384,1,0,0,32.93873982,-9.354135384,1,0,0,0,62,62,129,1,,,,,,,,
,,,,,,,,,,,,,FF,,,,,,,,0.4406,,,,,,,,,,,,,,,,,,,,,,60fcd1cab3a2ced3c5c9b2e9,61036e90dfbeb787579eee8b,2021-07-29_20h15.17.321,Simcolourproject_2stim_asymm_v5,2020.2.10,Linux x86_64,60,61025ae37ef11b136ea224fe,,,,,,,,,2458,32.93873982,-18.00205897,1,0,0,response3disk,,5,2.528737536,1.785975719,1,0,0,rectangle,2.528737536,1.785975719,1,0,0,2.528737536,1.785975719,1,0,0,0,63,63,81,1,,,,,,,,
,,,,,,,,,,,,,FF,,,,,,,,0.3897,,,,,,,,,,,,,,,,,,,,,,60fcd1cab3a2ced3c5c9b2e9,61036e90dfbeb787579eee8b,2021-07-29_20h15.17.321,Simcolourproject_2stim_asymm_v5,2020.2.10,Linux x86_64,60,61025ae37ef11b136ea224fe,,,,,,,,,4228,32.65322378,-20.41077609,1,0,0,response3disk,,5,8.621665213,0.964378262,1,0,0,rectangle,8.621665213,0.964378262,1,0,0,8.621665213,0.964378262,1,0,0,0,64,64,3,1,,,,,,,,
,,,,,,,,,,,,,FF,,,,,,,,0.6219,,,,,,,,,,,,,,,,,,,,,,60fcd1cab3a2ced3c5c9b2e9,61036e90dfbeb787579eee8b,2021-07-29_20h15.17.321,Simcolourproject_2stim_asymm_v5,2020.2.10,Linux x86_64,60,61025ae37ef11b136ea224fe,,,,,,,,,1419,20.58455593,-16.76434309,1,0,0,response3disk,,5,0.540302077,3.738638151,1,0,0,rectangle,0.540302077,3.738638151,1,0,0,0.540302077,3.738638151,1,0,0,0,65,65,6,1,,,,,,,,
,,,,,,,,,,,,,FF,,,,,,,,0.6709,,,,,,,,,,,,,,,,,,,,,,60fcd1cab3a2ced3c5c9b2e9,61036e90dfbeb787579eee8b,2021-07-29_20h15.17.321,Simcolourproject_2stim_asymm_v5,2020.2.10,Linux x86_64,60,61025ae37ef11b136ea224fe,,,,,,,,,3410,29.47045237,-15.76758116,1,0,0,response3disk,,5,9.24892673,2.078815976,1,0,0,rectangle,9.24892673,2.078815976,1,0,0,9.24892673,2.078815976,1,0,0,0,66,66,22,1,,,,,,,,
,,,,,,,,,,,,,FF,,,,,,,,0.5722,,,,,,,,,,,,,,,,,,,,,,60fcd1cab3a2ced3c5c9b2e9,61036e90dfbeb787579eee8b,2021-07-29_20h15.17.321,Simcolourproject_2stim_asymm_v5,2020.2.10,Linux x86_64,60,61025ae37ef11b136ea224fe,,,,,,,,,301,28.63014604,-16.94773125,1,0,0,response3disk,,5,15.55078739,3.282686256,1,0,0,rectangle,15.55078739,3.282686256,1,0,0,15.55078739,3.282686256,1,0,0,0,67,67,149,1,,,,,,,,
,,,,,,,,,,,,,FF,,,,,,,,0.4352,,,,,,,,,,,,,,,,,,,,,,60fcd1cab3a2ced3c5c9b2e9,61036e90dfbeb787579eee8b,2021-07-29_20h15.17.321,Simcolourproject_2stim_asymm_v5,2020.2.10,Linux x86_64,60,61025ae37ef11b136ea224fe,,,,,,,,,918,45.24239945,-29.72504939,1,0,0,response3disk,,5,13.35835316,-2.131890265,1,0,0,rectangle,13.35835316,-2.131890265,1,0,0,13.35835316,-2.131890265,1,0,0,0,68,68,21,1,,,,,,,,
,,,,,,,,,,,,,FF,,,,,,,,0.4502,,,,,,,,,,,,,,,,,,,,,,60fcd1cab3a2ced3c5c9b2e9,61036e90dfbeb787579eee8b,2021-07-29_20h15.17.321,Simcolourproject_2stim_asymm_v5,2020.2.10,Linux x86_64,60,61025ae37ef11b136ea224fe,,,,,,,,,881,59.09642916,27.60844713,1,0,0,response1disk,,6,24.55304897,0.55992719,1,0,0,rectangle,24.55304897,0.55992719,1,0,0,24.55304897,0.55992719,1,0,0,0,69,69,20,1,,,,,,,,
,,,,,,,,,,,,,FF,,,,,,,,0.7744,,,,,,,,,,,,,,,,,,,,,,60fcd1cab3a2ced3c5c9b2e9,61036e90dfbeb787579eee8b,2021-07-29_20h15.17.321,Simcolourproject_2stim_asymm_v5,2020.2.10,Linux x86_64,60,61025ae37ef11b136ea224fe,,,,,,,,,2874,48.53243854,16.08629449,1,0,0,response1disk,,6,18.68262335,3.57822491,1,0,0,rectangle,18.68262335,3.57822491,1,0,0,18.68262335,3.57822491,1,0,0,0,70,70,134,1,,,,,,,,
,,,,,,,,,,,,,FF,,,,,,,,0.5223,,,,,,,,,,,,,,,,,,,,,,60fcd1cab3a2ced3c5c9b2e9,61036e90dfbeb787579eee8b,2021-07-29_20h15.17.321,Simcolourproject_2stim_asymm_v5,2020.2.10,Linux x86_64,60,61025ae37ef11b136ea224fe,,,,,,,,,2595,38.71361651,26.02397446,1,0,0,response1disk,,6,9.051044328,9.015622154,1,0,0,rectangle,9.051044328,9.015622154,1,0,0,9.051044328,9.015622154,1,0,0,0,71,71,12,1,,,,,,,,
,,,,,,,,,,,,,FF,,,,,,,,1.0436,,,,,,,,,,,,,,,,,,,,,,60fcd1cab3a2ced3c5c9b2e9,61036e90dfbeb787579eee8b,2021-07-29_20h15.17.321,Simcolourproject_2stim_asymm_v5,2020.2.10,Linux x86_64,60,61025ae37ef11b136ea224fe,,,,,,,,,1465,-30.69104067,18.57920158,1,0,0,response7disk,,1,-2.819638327,1.678862231,1,0,0,rectangle,-2.819638327,1.678862231,1,0,0,-2.819638327,1.678862231,1,0,0,0,72,72,47,1,,,,,,,,
,,,,,,,,,,,,,FF,,,,,,,,0.7473,,,,,,,,,,,,,,,,,,,,,,60fcd1cab3a2ced3c5c9b2e9,61036e90dfbeb787579eee8b,2021-07-29_20h15.17.321,Simcolourproject_2stim_asymm_v5,2020.2.10,Linux x86_64,60,61025ae37ef11b136ea224fe,,,,,,,,,1164,36.25704782,-19.40615026,1,0,0,response3disk,,5,24.08476154,-10.85346722,1,0,0,rectangle,24.08476154,-10.85346722,1,0,0,24.08476154,-10.85346722,1,0,0,0,73,73,69,1,,,,,,,,
,,,,,,,,,,,,,FF,,,,,,,,0.9655,,,,,,,,,,,,,,,,,,,,,,60fcd1cab3a2ced3c5c9b2e9,61036e90dfbeb787579eee8b,2021-07-29_20h15.17.321,Simcolourproject_2stim_asymm_v5,2020.2.10,Linux x86_64,60,61025ae37ef11b136ea224fe,,,,,,,,,3675,-47.25760124,25.74385521,1,0,0,response7disk,,1,-14.19211991,-0.71088902,1,0,0,rectangle,-14.19211991,-0.71088902,1,0,0,-14.19211991,-0.71088902,1,0,0,0,74,74,153,1,,,,,,,,
,,,,,,,,,,,,,FF,,,,,,,,0.8003,,,,,,,,,,,,,,,,,,,,,,60fcd1cab3a2ced3c5c9b2e9,61036e90dfbeb787579eee8b,2021-07-29_20h15.17.321,Simcolourproject_2stim_asymm_v5,2020.2.10,Linux x86_64,60,61025ae37ef11b136ea224fe,,,,,,,,,2692,38.89186486,18.9435108,1,0,0,response1disk,,6,-11.02589867,-10.88633626,1,0,0,rectangle,-11.02589867,-10.88633626,1,0,0,-11.02589867,-10.88633626,1,0,0,0,75,75,89,1,,,,,,,,
,,,,,,,,,,,,,FF,,,,,,,,0.976,,,,,,,,,,,,,,,,,,,,,,60fcd1cab3a2ced3c5c9b2e9,61036e90dfbeb787579eee8b,2021-07-29_20h15.17.321,Simcolourproject_2stim_asymm_v5,2020.2.10,Linux x86_64,60,61025ae37ef11b136ea224fe,,,,,,,,,2895,-28.27744074,-15.09729949,1,0,0,response5disk,,2,-11.4807712,-2.159336811,1,0,0,rectangle,-11.4807712,-2.159336811,1,0,0,-11.4807712,-2.159336811,1,0,0,0,76,76,0,1,,,,,,,,
,,,,,,,,,,,,,FF,,,,,,,,0.6448,,,,,,,,,,,,,,,,,,,,,,60fcd1cab3a2ced3c5c9b2e9,61036e90dfbeb787579eee8b,2021-07-29_20h15.17.321,Simcolourproject_2stim_asymm_v5,2020.2.10,Linux x86_64,60,61025ae37ef11b136ea224fe,,,,,,,,,708,39.56307169,-17.33373043,1,0,0,response3disk,,5,5.720606392,9.722602011,1,0,0,rectangle,5.720606392,9.722602011,1,0,0,5.720606392,9.722602011,1,0,0,0,77,77,138,1,,,,,,,,
,,,,,,,,,,,,,FF,,,,,,,,1.2894,,,,,,,,,,,,,,,,,,,,,,60fcd1cab3a2ced3c5c9b2e9,61036e90dfbeb787579eee8b,2021-07-29_20h15.17.321,Simcolourproject_2stim_asymm_v5,2020.2.10,Linux x86_64,60,61025ae37ef11b136ea224fe,,,,,,,,,3554,-15.554476,-32.80206936,1,0,0,response5disk,,3,-9.500765021,-6.768172166,1,0,0,rectangle,-9.500765021,-6.768172166,1,0,0,-9.500765021,-6.768172166,1,0,0,0,78,78,40,1,,,,,,,,
,,,,,,,,,,,,,FF,,,,,,,,0.5578,,,,,,,,,,,,,,,,,,,,,,60fcd1cab3a2ced3c5c9b2e9,61036e90dfbeb787579eee8b,2021-07-29_20h15.17.321,Simcolourproject_2stim_asymm_v5,2020.2.10,Linux x86_64,60,61025ae37ef11b136ea224fe,,,,,,,,,3160,-10.79805121,-27.66802327,1,0,0,response5disk,,3,-6.037514584,-3.839589702,1,0,0,rectangle,-6.037514584,-3.839589702,1,0,0,-6.037514584,-3.839589702,1,0,0,0,79,79,84,1,,,,,,,,
,,,,,,,,,,,,,FF,,,,,,,,1.3634,,,,,,,,,,,,,,,,,,,,,,60fcd1cab3a2ced3c5c9b2e9,61036e90dfbeb787579eee8b,2021-07-29_20h15.17.321,Simcolourproject_2stim_asymm_v5,2020.2.10,Linux x86_64,60,61025ae37ef11b136ea224fe,,,,,,,,,4325,27.85773649,45.82475586,1,0,0,response1disk,,7,2.919516733,8.70080924,1,0,0,rectangle,2.919516733,8.70080924,1,0,0,2.919516733,8.70080924,1,0,0,0,80,80,18,1,,,,,,,,
,,,,,,,,,,,,,FF,,,,,,,,1.1534,,,,,,,,,,,,,,,,,,,,,,60fcd1cab3a2ced3c5c9b2e9,61036e90dfbeb787579eee8b,2021-07-29_20h15.17.321,Simcolourproject_2stim_asymm_v5,2020.2.10,Linux x86_64,60,61025ae37ef11b136ea224fe,,,,,,,,,2540,13.92439963,53.85060912,1,0,0,response1disk,,7,-4.508114902,1.585651909,1,0,0,rectangle,-4.508114902,1.585651909,1,0,0,-4.508114902,1.585651909,1,0,0,0,81,81,33,1,,,,,,,,
,,,,,,,,,,,,,FF,,,,,,,,1.6554,,,,,,,,,,,,,,,,,,,,,,60fcd1cab3a2ced3c5c9b2e9,61036e90dfbeb787579eee8b,2021-07-29_20h15.17.321,Simcolourproject_2stim_asymm_v5,2020.2.10,Linux x86_64,60,61025ae37ef11b136ea224fe,,,,,,,,,3821,-20.49182185,-42.54482231,1,0,0,response5disk,,3,-10.59816429,-6.822782569,1,0,0,rectangle,-10.59816429,-6.822782569,1,0,0,-10.59816429,-6.822782569,1,0,0,0,82,82,72,1,,,,,,,,
,,,,,,,,,,,,,FF,,,,,,,,1.3207,,,,,,,,,,,,,,,,,,,,,,60fcd1cab3a2ced3c5c9b2e9,61036e90dfbeb787579eee8b,2021-07-29_20h15.17.321,Simcolourproject_2stim_asymm_v5,2020.2.10,Linux x86_64,60,61025ae37ef11b136ea224fe,,,,,,,,,3708,-55.33161446,18.1802244,1,0,0,response7disk,,1,-9.091585331,6.409125424,1,0,0,rectangle,-9.091585331,6.409125424,1,0,0,-9.091585331,6.409125424,1,0,0,0,83,83,34,1,,,,,,,,
,,,,,,,,,,,,,FF,,,,,,,,1.491,,,,,,,,,,,,,,,,,,,,,,60fcd1cab3a2ced3c5c9b2e9,61036e90dfbeb787579eee8b,2021-07-29_20h15.17.321,Simcolourproject_2stim_asymm_v5,2020.2.10,Linux x86_64,60,61025ae37ef11b136ea224fe,,,,,,,,,696,32.16807781,-31.48165405,1,0,0,response3disk,,5,-3.356490715,15.32668306,1,0,0,rectangle,-3.356490715,15.32668306,1,0,0,-3.356490715,15.32668306,1,0,0,0,84,84,59,1,,,,,,,,
,,,,,,,,,,,,,FF,,,,,,,,1.7514,,,,,,,,,,,,,,,,,,,,,,60fcd1cab3a2ced3c5c9b2e9,61036e90dfbeb787579eee8b,2021-07-29_20h15.17.321,Simcolourproject_2stim_asymm_v5,2020.2.10,Linux x86_64,60,61025ae37ef11b136ea224fe,,,,,,,,,3745,-55.05997589,12.59102309,1,0,0,response7disk,,1,-26.73462617,2.834855249,1,0,0,rectangle,-26.73462617,2.834855249,1,0,0,-26.73462617,2.834855249,1,0,0,0,85,85,98,1,,,,,,,,
,,,,,,,,,,,,,FF,,,,,,,,0.7025,,,,,,,,,,,,,,,,,,,,,,60fcd1cab3a2ced3c5c9b2e9,61036e90dfbeb787579eee8b,2021-07-29_20h15.17.321,Simcolourproject_2stim_asymm_v5,2020.2.10,Linux x86_64,60,61025ae37ef11b136ea224fe,,,,,,,,,3556,-29.12571377,20.47219091,1,0,0,response7disk,,1,-3.401566785,4.910256169,1,0,0,rectangle,-3.401566785,4.910256169,1,0,0,-3.401566785,4.910256169,1,0,0,0,86,86,38,1,,,,,,,,
,,,,,,,,,,,,,FF,,,,,,,,0.6887,,,,,,,,,,,,,,,,,,,,,,60fcd1cab3a2ced3c5c9b2e9,61036e90dfbeb787579eee8b,2021-07-29_20h15.17.321,Simcolourproject_2stim_asymm_v5,2020.2.10,Linux x86_64,60,61025ae37ef11b136ea224fe,,,,,,,,,2693,61.41160187,-26.11567437,1,0,0,response3disk,,5,17.08594365,-4.807234651,1,0,0,rectangle,17.08594365,-4.807234651,1,0,0,17.08594365,-4.807234651,1,0,0,0,87,87,51,1,,,,,,,,
,,,,,,,,,,,,,FF,,,,,,,,1.4702,,,,,,,,,,,,,,,,,,,,,,60fcd1cab3a2ced3c5c9b2e9,61036e90dfbeb787579eee8b,2021-07-29_20h15.17.321,Simcolourproject_2stim_asymm_v5,2020.2.10,Linux x86_64,60,61025ae37ef11b136ea224fe,,,,,,,,,3111,19.14165912,-57.89001157,1,0,0,response3disk,,4,-3.125559382,-8.839743933,1,0,0,rectangle,-3.125559382,-8.839743933,1,0,0,-3.125559382,-8.839743933,1,0,0,0,88,88,77,1,,,,,,,,
,,,,,,,,,,,,,FF,,,,,,,,15.9454,,,,,,,,,,,,,,,,,,,,,,60fcd1cab3a2ced3c5c9b2e9,61036e90dfbeb787579eee8b,2021-07-29_20h15.17.321,Simcolourproject_2stim_asymm_v5,2020.2.10,Linux x86_64,60,61025ae37ef11b136ea224fe,,,,,,,,,1172,-20.34289929,-42.46317647,1,0,0,response5disk,,3,-3.300649989,-3.702613886,1,0,0,rectangle,-3.300649989,-3.702613886,1,0,0,-3.300649989,-3.702613886,1,0,0,0,89,89,116,1,,,,,,,,
,,,,,,,,,,,,,FF,,,,,,,,1.2025,,,,,,,,,,,,,,,,,,,,,,60fcd1cab3a2ced3c5c9b2e9,61036e90dfbeb787579eee8b,2021-07-29_20h15.17.321,Simcolourproject_2stim_asymm_v5,2020.2.10,Linux x86_64,60,61025ae37ef11b136ea224fe,,,,,,,,,1508,55.13602808,23.32041263,1,0,0,response1disk,,6,11.09277631,-4.918562703,1,0,0,rectangle,11.09277631,-4.918562703,1,0,0,11.09277631,-4.918562703,1,0,0,0,90,90,97,1,,,,,,,,
,,,,,,,,,,,,,FF,,,,,,,,2.3926,,,,,,,,,,,,,,,,,,,,,,60fcd1cab3a2ced3c5c9b2e9,61036e90dfbeb787579eee8b,2021-07-29_20h15.17.321,Simcolourproject_2stim_asymm_v5,2020.2.10,Linux x86_64,60,61025ae37ef11b136ea224fe,,,,,,,,,2726,-39.45479294,-22.24835827,1,0,0,response5disk,,2,-17.61158246,-0.45292225,1,0,0,rectangle,-17.61158246,-0.45292225,1,0,0,-17.61158246,-0.45292225,1,0,0,0,91,91,94,1,,,,,,,,
,,,,,,,,,,,,,FF,,,,,,,,0.9627,,,,,,,,,,,,,,,,,,,,,,60fcd1cab3a2ced3c5c9b2e9,61036e90dfbeb787579eee8b,2021-07-29_20h15.17.321,Simcolourproject_2stim_asymm_v5,2020.2.10,Linux x86_64,60,61025ae37ef11b136ea224fe,,,,,,,,,4227,55.8621794,-27.73910666,1,0,0,response3disk,,5,10.86510875,-5.357887336,1,0,0,rectangle,10.86510875,-5.357887336,1,0,0,10.86510875,-5.357887336,1,0,0,0,92,92,57,1,,,,,,,,
,,,,,,,,,,,,,FF,,,,,,,,0.9415,,,,,,,,,,,,,,,,,,,,,,60fcd1cab3a2ced3c5c9b2e9,61036e90dfbeb787579eee8b,2021-07-29_20h15.17.321,Simcolourproject_2stim_asymm_v5,2020.2.10,Linux x86_64,60,61025ae37ef11b136ea224fe,,,,,,,,,1521,-21.619138,63.07938188,1,0,0,response7disk,,0,-15.1960037,-6.45148315,1,0,0,rectangle,-15.1960037,-6.45148315,1,0,0,-15.1960037,-6.45148315,1,0,0,0,93,93,70,1,,,,,,,,
,,,,,,,,,,,,,FF,,,,,,,,1.1149,,,,,,,,,,,,,,,,,,,,,,60fcd1cab3a2ced3c5c9b2e9,61036e90dfbeb787579eee8b,2021-07-29_20h15.17.321,Simcolourproject_2stim_asymm_v5,2020.2.10,Linux x86_64,60,61025ae37ef11b136ea224fe,,,,,,,,,3727,-32.16454823,16.18261447,1,0,0,response7disk,,1,0.815715173,-3.370428439,1,0,0,rectangle,47.27295236,-27.82270555,1,0,0,3.234737601,-3.267632386,1,0,0,0,94,94,155,1,,response3disk_3,TRUE,5,4,"[185,227,10,310,119,95,16,197,124,49,163,292,218,117,22,113,235,35,131,297]",5.5235,rectangle
,,,,,,,,,,,,,FF,,,,,,,,1.4055,,,,,,,,,,,,,,,,,,,,,,60fcd1cab3a2ced3c5c9b2e9,61036e90dfbeb787579eee8b,2021-07-29_20h15.17.321,Simcolourproject_2stim_asymm_v5,2020.2.10,Linux x86_64,60,61025ae37ef11b136ea224fe,,,,,,,,,4063,35.01367493,-23.50874068,1,0,0,response3disk,,5,-10.33850469,-0.185986598,1,0,0,rectangle,-10.33850469,-0.185986598,1,0,0,-10.33850469,-0.185986598,1,0,0,0,95,95,10,1,,,,,,,,
,,,,,,,,,,,,,FF,,,,,,,,1.0915,,,,,,,,,,,,,,,,,,,,,,60fcd1cab3a2ced3c5c9b2e9,61036e90dfbeb787579eee8b,2021-07-29_20h15.17.321,Simcolourproject_2stim_asymm_v5,2020.2.10,Linux x86_64,60,61025ae37ef11b136ea224fe,,,,,,,,,2101,-51.9190714,16.04820863,1,0,0,response7disk,,1,1.344729363,-4.297083463,1,0,0,rectangle,1.344729363,-4.297083463,1,0,0,1.344729363,-4.297083463,1,0,0,0,96,96,156,1,,,,,,,,
,,,,,,,,,,,,,FF,,,,,,,,0.884,,,,,,,,,,,,,,,,,,,,,,60fcd1cab3a2ced3c5c9b2e9,61036e90dfbeb787579eee8b,2021-07-29_20h15.17.321,Simcolourproject_2stim_asymm_v5,2020.2.10,Linux x86_64,60,61025ae37ef11b136ea224fe,,,,,,,,,1029,-21.26330946,-37.73031768,1,0,0,response5disk,,3,-16.08166879,4.188627949,1,0,0,rectangle,-16.08166879,4.188627949,1,0,0,-16.08166879,4.188627949,1,0,0,0,97,97,154,1,,,,,,,,
,,,,,,,,,,,,,FF,,,,,,,,1.0234,,,,,,,,,,,,,,,,,,,,,,60fcd1cab3a2ced3c5c9b2e9,61036e90dfbeb787579eee8b,2021-07-29_20h15.17.321,Simcolourproject_2stim_asymm_v5,2020.2.10,Linux x86_64,60,61025ae37ef11b136ea224fe,,,,,,,,,2302,-46.34541799,-21.68094975,1,0,0,response5disk,,2,-11.78857152,5.512332729,1,0,0,rectangle,-11.78857152,5.512332729,1,0,0,-11.78857152,5.512332729,1,0,0,0,98,98,37,1,,,,,,,,
,,,,,,,,,,,,,FF,,,,,,,,1.2845,,,,,,,,,,,,,,,,,,,,,,60fcd1cab3a2ced3c5c9b2e9,61036e90dfbeb787579eee8b,2021-07-29_20h15.17.321,Simcolourproject_2stim_asymm_v5,2020.2.10,Linux x86_64,60,61025ae37ef11b136ea224fe,,,,,,,,,2195,-21.26354075,-34.33290811,1,0,0,response5disk,,3,-8.862430458,2.649925224,1,0,0,rectangle,-8.862430458,2.649925224,1,0,0,-8.862430458,2.649925224,1,0,0,0,99,99,95,1,,,,,,,,
,,,,,,,,,,,,,FF,,,,,,,,1.3325,,,,,,,,,,,,,,,,,,,,,,60fcd1cab3a2ced3c5c9b2e9,61036e90dfbeb787579eee8b,2021-07-29_20h15.17.321,Simcolourproject_2stim_asymm_v5,2020.2.10,Linux x86_64,60,61025ae37ef11b136ea224fe,,,,,,,,,1489,34.27942842,-49.45893618,1,0,0,response3disk,,4,1.407948936,-2.354803432,1,0,0,rectangle,1.407948936,-2.354803432,1,0,0,1.407948936,-2.354803432,1,0,0,0,100,100,41,1,,,,,,,,
,,,,,,,,,,,,,FF,,,,,,,,1.04,,,,,,,,,,,,,,,,,,,,,,60fcd1cab3a2ced3c5c9b2e9,61036e90dfbeb787579eee8b,2021-07-29_20h15.17.321,Simcolourproject_2stim_asymm_v5,2020.2.10,Linux x86_64,60,61025ae37ef11b136ea224fe,,,,,,,,,1187,26.29212367,-26.94922179,1,0,0,response3disk,,4,-0.632449928,-6.480368841,1,0,0,rectangle,-0.632449928,-6.480368841,1,0,0,-0.632449928,-6.480368841,1,0,0,0,101,101,135,1,,,,,,,,
,,,,,,,,,,,,,FF,,,,,,,,0.6494,,,,,,,,,,,,,,,,,,,,,,60fcd1cab3a2ced3c5c9b2e9,61036e90dfbeb787579eee8b,2021-07-29_20h15.17.321,Simcolourproject_2stim_asymm_v5,2020.2.10,Linux x86_64,60,61025ae37ef11b136ea224fe,,,,,,,,,3593,32.34961241,19.50709023,1,0,0,response1disk,,6,-17.25452036,1.176395196,1,0,0,rectangle,-17.25452036,1.176395196,1,0,0,-17.25452036,1.176395196,1,0,0,0,102,102,78,1,,,,,,,,
,,,,,,,,,,,,,FF,,,,,,,,1.0082,,,,,,,,,,,,,,,,,,,,,,60fcd1cab3a2ced3c5c9b2e9,61036e90dfbeb787579eee8b,2021-07-29_20h15.17.321,Simcolourproject_2stim_asymm_v5,2020.2.10,Linux x86_64,60,61025ae37ef11b136ea224fe,,,,,,,,,1684,-32.61744194,42.27739262,1,0,0,response7disk,,0,-1.033071847,-3.000311249,1,0,0,rectangle,-1.033071847,-3.000311249,1,0,0,-1.033071847,-3.000311249,1,0,0,0,103,103,5,1,,,,,,,,
,,,,,,,,,,,,,FF,,,,,,,,2.1307,,,,,,,,,,,,,,,,,,,,,,60fcd1cab3a2ced3c5c9b2e9,61036e90dfbeb787579eee8b,2021-07-29_20h15.17.321,Simcolourproject_2stim_asymm_v5,2020.2.10,Linux x86_64,60,61025ae37ef11b136ea224fe,,,,,,,,,936,59.07278284,-28.53058488,1,0,0,response3disk,,5,-9.45337927,8.406401418,1,0,0,rectangle,-9.45337927,8.406401418,1,0,0,-9.45337927,8.406401418,1,0,0,0,104,104,32,1,,,,,,,,
,,,,,,,,,,,,,FF,,,,,,,,1.3365,,,,,,,,,,,,,,,,,,,,,,60fcd1cab3a2ced3c5c9b2e9,61036e90dfbeb787579eee8b,2021-07-29_20h15.17.321,Simcolourproject_2stim_asymm_v5,2020.2.10,Linux x86_64,60,61025ae37ef11b136ea224fe,,,,,,,,,3464,39.26830078,34.62792711,1,0,0,response1disk,,6,5.537960274,6.167914559,1,0,0,rectangle,5.537960274,6.167914559,1,0,0,5.537960274,6.167914559,1,0,0,0,105,105,157,1,,,,,,,,
,,,,,,,,,,,,,FF,,,,,,,,1.193,,,,,,,,,,,,,,,,,,,,,,60fcd1cab3a2ced3c5c9b2e9,61036e90dfbeb787579eee8b,2021-07-29_20h15.17.321,Simcolourproject_2stim_asymm_v5,2020.2.10,Linux x86_64,60,61025ae37ef11b136ea224fe,,,,,,,,,2477,51.78747234,31.47514645,1,0,0,response1disk,,6,12.67578413,0.003466528,1,0,0,rectangle,12.67578413,0.003466528,1,0,0,12.67578413,0.003466528,1,0,0,0,106,106,8,1,,,,,,,,
,,,,,,,,,,,,,FF,,,,,,,,5.0448,,,,,,,,,,,,,,,,,,,,,,60fcd1cab3a2ced3c5c9b2e9,61036e90dfbeb787579eee8b,2021-07-29_20h15.17.321,Simcolourproject_2stim_asymm_v5,2020.2.10,Linux x86_64,60,61025ae37ef11b136ea224fe,,,,,,,,,2854,47.94310553,37.22542918,1,0,0,response1disk,,6,3.674113632,4.131627538,1,0,0,rectangle,3.674113632,4.131627538,1,0,0,3.674113632,4.131627538,1,0,0,0,107,107,158,1,,,,,,,,
,,,,,,,,,,,,,FF,,,,,,,,0.7781,,,,,,,,,,,,,,,,,,,,,,60fcd1cab3a2ced3c5c9b2e9,61036e90dfbeb787579eee8b,2021-07-29_20h15.17.321,Simcolourproject_2stim_asymm_v5,2020.2.10,Linux x86_64,60,61025ae37ef11b136ea224fe,,,,,,,,,4131,42.41380862,-22.59200547,1,0,0,response3disk,,5,-6.672360541,1.711705644,1,0,0,rectangle,-6.672360541,1.711705644,1,0,0,-6.672360541,1.711705644,1,0,0,0,108,108,58,1,,,,,,,,
,,,,,,,,,,,,,FF,,,,,,,,3.1431,,,,,,,,,,,,,,,,,,,,,,60fcd1cab3a2ced3c5c9b2e9,61036e90dfbeb787579eee8b,2021-07-29_20h15.17.321,Simcolourproject_2stim_asymm_v5,2020.2.10,Linux x86_64,60,61025ae37ef11b136ea224fe,,,,,,,,,780,-21.59729383,-50.61349006,1,0,0,response5disk,,3,-14.8209266,-2.31473867,1,0,0,rectangle,-14.8209266,-2.31473867,1,0,0,-14.8209266,-2.31473867,1,0,0,0,109,109,111,1,,,,,,,,
,,,,,,,,,,,,,FF,,,,,,,,0.8099,,,,,,,,,,,,,,,,,,,,,,60fcd1cab3a2ced3c5c9b2e9,61036e90dfbeb787579eee8b,2021-07-29_20h15.17.321,Simcolourproject_2stim_asymm_v5,2020.2.10,Linux x86_64,60,61025ae37ef11b136ea224fe,,,,,,,,,2484,-38.87916074,20.63183325,1,0,0,response7disk,,1,-3.352407802,-1.017529573,1,0,0,rectangle,-3.352407802,-1.017529573,1,0,0,-3.352407802,-1.017529573,1,0,0,0,110,110,91,1,,,,,,,,
,,,,,,,,,,,,,FF,,,,,,,,1.1109,,,,,,,,,,,,,,,,,,,,,,60fcd1cab3a2ced3c5c9b2e9,61036e90dfbeb787579eee8b,2021-07-29_20h15.17.321,Simcolourproject_2stim_asymm_v5,2020.2.10,Linux x86_64,60,61025ae37ef11b136ea224fe,,,,,,,,,999,59.31003613,-31.26989411,1,0,0,response3disk,,5,15.83915278,2.187599974,1,0,0,rectangle,15.83915278,2.187599974,1,0,0,15.83915278,2.187599974,1,0,0,0,111,111,48,1,,,,,,,,
,,,,,,,,,,,,,FF,,,,,,,,0.9278,,,,,,,,,,,,,,,,,,,,,,60fcd1cab3a2ced3c5c9b2e9,61036e90dfbeb787579eee8b,2021-07-29_20h15.17.321,Simcolourproject_2stim_asymm_v5,2020.2.10,Linux x86_64,60,61025ae37ef11b136ea224fe,,,,,,,,,1866,36.81029295,-23.9223149,1,0,0,response3disk,,5,-16.29052467,-6.665144747,1,0,0,rectangle,39.26172183,-15.13332943,1,0,0,8.408077483,-3.599149658,1,0,0,0,112,112,90,1,,response3disk_3,TRUE,5,4,"[185,227,10,310,119,95,16,197,124,49,163,292,218,117,22,113,235,35,131,297]",1.3001,rectangle
,,,,,,,,,,,,,FF,,,,,,,,0.987,,,,,,,,,,,,,,,,,,,,,,60fcd1cab3a2ced3c5c9b2e9,61036e90dfbeb787579eee8b,2021-07-29_20h15.17.321,Simcolourproject_2stim_asymm_v5,2020.2.10,Linux x86_64,60,61025ae37ef11b136ea224fe,,,,,,,,,1966,-38.37373824,16.50457171,1,0,0,response7disk,,1,-7.760019883,3.236582301,1,0,0,rectangle,-7.760019883,3.236582301,1,0,0,-7.760019883,3.236582301,1,0,0,0,113,113,60,1,,,,,,,,
,,,,,,,,,,,,,FF,,,,,,,,1.0065,,,,,,,,,,,,,,,,,,,,,,60fcd1cab3a2ced3c5c9b2e9,61036e90dfbeb787579eee8b,2021-07-29_20h15.17.321,Simcolourproject_2stim_asymm_v5,2020.2.10,Linux x86_64,60,61025ae37ef11b136ea224fe,,,,,,,,,1142,-39.44202053,-9.452742424,1,0,0,response5disk,,2,-2.114614824,-3.664116764,1,0,0,rectangle,-2.114614824,-3.664116764,1,0,0,-2.114614824,-3.664116764,1,0,0,0,114,114,159,1,,,,,,,,
,,,,,,,,,,,,,FF,,,,,,,,0.7136,,,,,,,,,,,,,,,,,,,,,,60fcd1cab3a2ced3c5c9b2e9,61036e90dfbeb787579eee8b,2021-07-29_20h15.17.321,Simcolourproject_2stim_asymm_v5,2020.2.10,Linux x86_64,60,61025ae37ef11b136ea224fe,,,,,,,,,3799,47.56481606,-32.52976254,1,0,0,response3disk,,5,-0.116208148,-0.28153553,1,0,0,rectangle,-0.116208148,-0.28153553,1,0,0,-0.116208148,-0.28153553,1,0,0,0,115,115,122,1,,,,,,,,
,,,,,,,,,,,,,FF,,,,,,,,0.7449,,,,,,,,,,,,,,,,,,,,,,60fcd1cab3a2ced3c5c9b2e9,61036e90dfbeb787579eee8b,2021-07-29_20h15.17.321,Simcolourproject_2stim_asymm_v5,2020.2.10,Linux x86_64,60,61025ae37ef11b136ea224fe,,,,,,,,,4127,-39.16084762,-56.12443788,1,0,0,response5disk,,3,-10.4006449,-4.825557973,1,0,0,rectangle,-28.16503648,-53.99213934,1,0,0,-17.56018443,4.021867051,1,0,0,0,116,116,31,1,,response5disk_3,TRUE,3,4,"[185,227,10,310,119,95,16,197,124,49,163,292,218,117,22,113,235,35,131,297]",0.9194,rectangle
,,,,,,,,,,,,,FF,,,,,,,,0.7997,,,,,,,,,,,,,,,,,,,,,,60fcd1cab3a2ced3c5c9b2e9,61036e90dfbeb787579eee8b,2021-07-29_20h15.17.321,Simcolourproject_2stim_asymm_v5,2020.2.10,Linux x86_64,60,61025ae37ef11b136ea224fe,,,,,,,,,292,-23.03625869,-36.12294719,1,0,0,response5disk,,3,-4.127078861,1.872992652,1,0,0,rectangle,-4.127078861,1.872992652,1,0,0,-4.127078861,1.872992652,1,0,0,0,117,117,35,1,,,,,,,,
,,,,,,,,,,,,,FF,,,,,,,,0.9291,,,,,,,,,,,,,,,,,,,,,,60fcd1cab3a2ced3c5c9b2e9,61036e90dfbeb787579eee8b,2021-07-29_20h15.17.321,Simcolourproject_2stim_asymm_v5,2020.2.10,Linux x86_64,60,61025ae37ef11b136ea224fe,,,,,,,,,2715,-25.01659896,-38.48710222,1,0,0,response5disk,,3,-12.80566137,-5.887800991,1,0,0,rectangle,14.29662091,-31.04297182,1,0,0,2.185909468,-2.42126108,1,0,0,0,118,118,108,1,,response3disk_3,TRUE,4,0,"[185,227,10,310,119,95,16,197,124,49,163,292,218,117,22,113,235,35,131,297]",0.7524,rectangle
,,,,,,,,,,,,,FF,,,,,,,,1.401,,,,,,,,,,,,,,,,,,,,,,60fcd1cab3a2ced3c5c9b2e9,61036e90dfbeb787579eee8b,2021-07-29_20h15.17.321,Simcolourproject_2stim_asymm_v5,2020.2.10,Linux x86_64,60,61025ae37ef11b136ea224fe,,,,,,,,,3451,21.55895649,-48.79101883,1,0,0,response3disk,,4,-2.893423424,-5.403220395,1,0,0,rectangle,-2.893423424,-5.403220395,1,0,0,-2.893423424,-5.403220395,1,0,0,0,119,119,4,1,,,,,,,,
,,,,,,,,,,,,,FF,,,,,,,,1.1496,,,,,,,,,,,,,,,,,,,,,,60fcd1cab3a2ced3c5c9b2e9,61036e90dfbeb787579eee8b,2021-07-29_20h15.17.321,Simcolourproject_2stim_asymm_v5,2020.2.10,Linux x86_64,60,61025ae37ef11b136ea224fe,,,,,,,,,2649,26.00843226,58.27428316,1,0,0,response1disk,,7,-3.954792675,3.682023299,1,0,0,rectangle,-3.954792675,3.682023299,1,0,0,-3.954792675,3.682023299,1,0,0,0,120,120,93,1,,,,,,,,
,,,,,,,,,,,,,FF,,,,,,,,0.7498,,,,,,,,,,,,,,,,,,,,,,60fcd1cab3a2ced3c5c9b2e9,61036e90dfbeb787579eee8b,2021-07-29_20h15.17.321,Simcolourproject_2stim_asymm_v5,2020.2.10,Linux x86_64,60,61025ae37ef11b136ea224fe,,,,,,,,,3541,25.77904287,16.5231521,1,0,0,response1disk,,6,-0.394168677,-4.984377876,1,0,0,rectangle,-0.394168677,-4.984377876,1,0,0,-0.394168677,-4.984377876,1,0,0,0,121,121,83,1,,,,,,,,
,,,,,,,,,,,,,FF,,,,,,,,1.237,,,,,,,,,,,,,,,,,,,,,,60fcd1cab3a2ced3c5c9b2e9,61036e90dfbeb787579eee8b,2021-07-29_20h15.17.321,Simcolourproject_2stim_asymm_v5,2020.2.10,Linux x86_64,60,61025ae37ef11b136ea224fe,,,,,,,,,549,-26.67883684,-45.76221021,1,0,0,response5disk,,3,-2.818485101,-2.258020948,1,0,0,rectangle,-2.818485101,-2.258020948,1,0,0,-2.818485101,-2.258020948,1,0,0,0,122,122,7,1,,,,,,,,
,,,,,,,,,,,,,FF,,,,,,,,1.3708,,,,,,,,,,,,,,,,,,,,,,60fcd1cab3a2ced3c5c9b2e9,61036e90dfbeb787579eee8b,2021-07-29_20h15.17.321,Simcolourproject_2stim_asymm_v5,2020.2.10,Linux x86_64,60,61025ae37ef11b136ea224fe,,,,,,,,,2126,25.63623345,44.92030486,1,0,0,response1disk,,7,1.057902675,-1.732630319,1,0,0,rectangle,-23.54882551,-62.95400207,1,0,0,16.22021775,2.574113134,1,0,0,0,123,123,82,1,,response5disk_3,TRUE,3,3,"[185,227,10,310,119,95,16,197,124,49,163,292,218,117,22,113,235,35,131,297]",3.3524,rectangle
,,,,,,,,,,,,,FF,,,,,,,,1.2999,,,,,,,,,,,,,,,,,,,,,,60fcd1cab3a2ced3c5c9b2e9,61036e90dfbeb787579eee8b,2021-07-29_20h15.17.321,Simcolourproject_2stim_asymm_v5,2020.2.10,Linux x86_64,60,61025ae37ef11b136ea224fe,,,,,,,,,3147,-53.28710698,20.21674279,1,0,0,response7disk,,1,1.267940711,-3.43632071,1,0,0,rectangle,1.267940711,-3.43632071,1,0,0,1.267940711,-3.43632071,1,0,0,0,124,124,145,1,,,,,,,,
,,,,,,,,,,,,,FF,,,,,,,,0.8227,,,,,,,,,,,,,,,,,,,,,,60fcd1cab3a2ced3c5c9b2e9,61036e90dfbeb787579eee8b,2021-07-29_20h15.17.321,Simcolourproject_2stim_asymm_v5,2020.2.10,Linux x86_64,60,61025ae37ef11b136ea224fe,,,,,,,,,3713,-41.02929439,19.0859348,1,0,0,response7disk,,1,7.847787594,1.012538287,1,0,0,rectangle,7.847787594,1.012538287,1,0,0,7.847787594,1.012538287,1,0,0,0,125,125,110,1,,,,,,,,
,,,,,,,,,,,,,FF,,,,,,,,1.5306,,,,,,,,,,,,,,,,,,,,,,60fcd1cab3a2ced3c5c9b2e9,61036e90dfbeb787579eee8b,2021-07-29_20h15.17.321,Simcolourproject_2stim_asymm_v5,2020.2.10,Linux x86_64,60,61025ae37ef11b136ea224fe,,,,,,,,,3466,-17.56542703,-48.86279617,1,0,0,response5disk,,3,-9.907480836,-7.14016531,1,0,0,rectangle,-9.907480836,-7.14016531,1,0,0,-9.907480836,-7.14016531,1,0,0,0,126,126,102,1,,,,,,,,
,,,,,,,,,,,,,FF,,,,,,,,0.8569,,,,,,,,,,,,,,,,,,,,,,60fcd1cab3a2ced3c5c9b2e9,61036e90dfbeb787579eee8b,2021-07-29_20h15.17.321,Simcolourproject_2stim_asymm_v5,2020.2.10,Linux x86_64,60,61025ae37ef11b136ea224fe,,,,,,,,,2363,-53.70276282,-15.40481381,1,0,0,response5disk,,2,-3.743778076,4.112995753,1,0,0,rectangle,-3.743778076,4.112995753,1,0,0,-3.743778076,4.112995753,1,0,0,0,127,127,64,1,,,,,,,,
,,,,,,,,,,,,,FF,,,,,,,,1.5834,,,,,,,,,,,,,,,,,,,,,,60fcd1cab3a2ced3c5c9b2e9,61036e90dfbeb787579eee8b,2021-07-29_20h15.17.321,Simcolourproject_2stim_asymm_v5,2020.2.10,Linux x86_64,60,61025ae37ef11b136ea224fe,,,,,,,,,955,40.57080387,-25.30654086,1,0,0,response3disk,,5,-9.920535935,-0.485097415,1,0,0,rectangle,-9.920535935,-0.485097415,1,0,0,-9.920535935,-0.485097415,1,0,0,0,128,128,53,1,,,,,,,,
,,,,,,,,,,,,,FF,,,,,,,,0.8993,,,,,,,,,,,,,,,,,,,,,,60fcd1cab3a2ced3c5c9b2e9,61036e90dfbeb787579eee8b,2021-07-29_20h15.17.321,Simcolourproject_2stim_asymm_v5,2020.2.10,Linux x86_64,60,61025ae37ef11b136ea224fe,,,,,,,,,3607,27.06712881,-26.37454045,1,0,0,response3disk,,5,6.950814931,9.597602085,1,0,0,rectangle,6.950814931,9.597602085,1,0,0,6.950814931,9.597602085,1,0,0,0,129,129,67,1,,,,,,,,
,,,,,,,,,,,,,FF,,,,,,,,0.7366,,,,,,,,,,,,,,,,,,,,,,60fcd1cab3a2ced3c5c9b2e9,61036e90dfbeb787579eee8b,2021-07-29_20h15.17.321,Simcolourproject_2stim_asymm_v5,2020.2.10,Linux x86_64,60,61025ae37ef11b136ea224fe,,,,,,,,,1248,48.18945627,10.96761649,1,0,0,response1disk,,6,10.62145641,1.999714487,1,0,0,rectangle,-28.00780992,57.85528645,1,0,0,0.059444608,-5.571446137,1,0,0,0,130,130,73,1,,response7disk_3,TRUE,0,0,"[185,227,10,310,119,95,16,197,124,49,163,292,218,117,22,113,235,35,131,297]",2.5097,rectangle
,,,,,,,,,,,,,FF,,,,,,,,0.8338,,,,,,,,,,,,,,,,,,,,,,60fcd1cab3a2ced3c5c9b2e9,61036e90dfbeb787579eee8b,2021-07-29_20h15.17.321,Simcolourproject_2stim_asymm_v5,2020.2.10,Linux x86_64,60,61025ae37ef11b136ea224fe,,,,,,,,,368,-49.15172455,21.4822136,1,0,0,response7disk,,1,-5.701169127,1.942097299,1,0,0,rectangle,-5.701169127,1.942097299,1,0,0,-5.701169127,1.942097299,1,0,0,0,131,131,16,1,,,,,,,,
,,,,,,,,,,,,,FF,,,,,,,,1.2654,,,,,,,,,,,,,,,,,,,,,,60fcd1cab3a2ced3c5c9b2e9,61036e90dfbeb787579eee8b,2021-07-29_20h15.17.321,Simcolourproject_2stim_asymm_v5,2020.2.10,Linux x86_64,60,61025ae37ef11b136ea224fe,,,,,,,,,3131,47.78880866,27.238587,1,0,0,response1disk,,6,0.85120551,9.672540408,1,0,0,rectangle,0.85120551,9.672540408,1,0,0,0.85120551,9.672540408,1,0,0,0,132,132,113,1,,,,,,,,
,,,,,,,,,,,,,FF,,,,,,,,0.9979,,,,,,,,,,,,,,,,,,,,,,60fcd1cab3a2ced3c5c9b2e9,61036e90dfbeb787579eee8b,2021-07-29_20h15.17.321,Simcolourproject_2stim_asymm_v5,2020.2.10,Linux x86_64,60,61025ae37ef11b136ea224fe,,,,,,,,,725,-28.96777086,-58.27220722,1,0,0,response5disk,,3,-5.408457365,-4.809855876,1,0,0,rectangle,-5.408457365,-4.809855876,1,0,0,-5.408457365,-4.809855876,1,0,0,0,133,133,49,1,,,,,,,,
,,,,,,,,,,,,,FF,,,,,,,,0.9277,,,,,,,,,,,,,,,,,,,,,,60fcd1cab3a2ced3c5c9b2e9,61036e90dfbeb787579eee8b,2021-07-29_20h15.17.321,Simcolourproject_2stim_asymm_v5,2020.2.10,Linux x86_64,60,61025ae37ef11b136ea224fe,,,,,,,,,2527,37.38037416,-30.84981804,1,0,0,response3disk,,5,11.42321422,-6.164939151,1,0,0,rectangle,11.42321422,-6.164939151,1,0,0,11.42321422,-6.164939151,1,0,0,0,134,134,23,1,,,,,,,,
,,,,,,,,,,,,,FF,,,,,,,,2.1676,,,,,,,,,,,,,,,,,,,,,,60fcd1cab3a2ced3c5c9b2e9,61036e90dfbeb787579eee8b,2021-07-29_20h15.17.321,Simcolourproject_2stim_asymm_v5,2020.2.10,Linux x86_64,60,61025ae37ef11b136ea224fe,,,,,,,,,3884,-18.27564496,-43.81782286,1,0,0,response5disk,,3,-1.471548413,-3.308134031,1,0,0,rectangle,-1.471548413,-3.308134031,1,0,0,-1.471548413,-3.308134031,1,0,0,0,135,135,139,1,,,,,,,,
,,,,,,,,,,,,,FF,,,,,,,,1.8119,,,,,,,,,,,,,,,,,,,,,,60fcd1cab3a2ced3c5c9b2e9,61036e90dfbeb787579eee8b,2021-07-29_20h15.17.321,Simcolourproject_2stim_asymm_v5,2020.2.10,Linux x86_64,60,61025ae37ef11b136ea224fe,,,,,,,,,1057,-46.50279875,-8.178868031,1,0,0,response5disk,,2,-7.162800511,-2.210580569,1,0,0,rectangle,-7.162800511,-2.210580569,1,0,0,-7.162800511,-2.210580569,1,0,0,0,136,136,117,1,,,,,,,,
,,,,,,,,,,,,,FF,,,,,,,,1.0639,,,,,,,,,,,,,,,,,,,,,,60fcd1cab3a2ced3c5c9b2e9,61036e90dfbeb787579eee8b,2021-07-29_20h15.17.321,Simcolourproject_2stim_asymm_v5,2020.2.10,Linux x86_64,60,61025ae37ef11b136ea224fe,,,,,,,,,2248,52.58190594,-22.97466378,1,0,0,response3disk,,5,0.553019859,4.106082718,1,0,0,rectangle,0.553019859,4.106082718,1,0,0,0.553019859,4.106082718,1,0,0,0,137,137,151,1,,,,,,,,
,,,,,,,,,,,,,FF,,,,,,,,1.1037,,,,,,,,,,,,,,,,,,,,,,60fcd1cab3a2ced3c5c9b2e9,61036e90dfbeb787579eee8b,2021-07-29_20h15.17.321,Simcolourproject_2stim_asymm_v5,2020.2.10,Linux x86_64,60,61025ae37ef11b136ea224fe,,,,,,,,,3373,63.29441116,24.58809356,1,0,0,response1disk,,6,6.925167316,-3.982630335,1,0,0,rectangle,6.925167316,-3.982630335,1,0,0,6.925167316,-3.982630335,1,0,0,0,138,138,150,1,,,,,,,,
,,,,,,,,,,,,,FF,,,,,,,,0.7277,,,,,,,,,,,,,,,,,,,,,,60fcd1cab3a2ced3c5c9b2e9,61036e90dfbeb787579eee8b,2021-07-29_20h15.17.321,Simcolourproject_2stim_asymm_v5,2020.2.10,Linux x86_64,60,61025ae37ef11b136ea224fe,,,,,,,,,2902,-35.56103263,21.18652076,1,0,0,response7disk,,1,-2.136356189,-6.95574919,1,0,0,rectangle,-2.136356189,-6.95574919,1,0,0,-2.136356189,-6.95574919,1,0,0,0,139,139,88,1,,,,,,,,
,,,,,,,,,,,,,FF,,,,,,,,2.6405,,,,,,,,,,,,,,,,,,,,,,60fcd1cab3a2ced3c5c9b2e9,61036e90dfbeb787579eee8b,2021-07-29_20h15.17.321,Simcolourproject_2stim_asymm_v5,2020.2.10,Linux x86_64,60,61025ae37ef11b136ea224fe,,,,,,,,,3539,31.23815578,-49.45636628,1,0,0,response3disk,,4,-7.062497262,-2.847273625,1,0,0,rectangle,-7.062497262,-2.847273625,1,0,0,-7.062497262,-2.847273625,1,0,0,0,140,140,55,1,,,,,,,,
,,,,,,,,,,,,,FF,,,,,,,,1.6534,,,,,,,,,,,,,,,,,,,,,,60fcd1cab3a2ced3c5c9b2e9,61036e90dfbeb787579eee8b,2021-07-29_20h15.17.321,Simcolourproject_2stim_asymm_v5,2020.2.10,Linux x86_64,60,61025ae37ef11b136ea224fe,,,,,,,,,1611,-43.35973232,20.01192165,1,0,0,response7disk,,1,-12.31738011,0.844363944,1,0,0,rectangle,-12.31738011,0.844363944,1,0,0,-12.31738011,0.844363944,1,0,0,0,141,141,14,1,,,,,,,,
,,,,,,,,,,,,,FF,,,,,,,,0.9691,,,,,,,,,,,,,,,,,,,,,,60fcd1cab3a2ced3c5c9b2e9,61036e90dfbeb787579eee8b,2021-07-29_20h15.17.321,Simcolourproject_2stim_asymm_v5,2020.2.10,Linux x86_64,60,61025ae37ef11b136ea224fe,,,,,,,,,1608,-32.94307414,23.73236782,1,0,0,response7disk,,1,-6.277341007,-2.059727361,1,0,0,rectangle,-6.277341007,-2.059727361,1,0,0,-6.277341007,-2.059727361,1,0,0,0,142,142,26,1,,,,,,,,
,,,,,,,,,,,,,FF,,,,,,,,1.0385,,,,,,,,,,,,,,,,,,,,,,60fcd1cab3a2ced3c5c9b2e9,61036e90dfbeb787579eee8b,2021-07-29_20h15.17.321,Simcolourproject_2stim_asymm_v5,2020.2.10,Linux x86_64,60,61025ae37ef11b136ea224fe,,,,,,,,,2232,-56.71630623,-26.1936708,1,0,0,response5disk,,2,-11.62047427,2.896867043,1,0,0,rectangle,-11.62047427,2.896867043,1,0,0,-11.62047427,2.896867043,1,0,0,0,143,143,141,1,,,,,,,,
,,,,,,,,,,,,,FF,,,,,,,,1.3059,,,,,,,,,,,,,,,,,,,,,,60fcd1cab3a2ced3c5c9b2e9,61036e90dfbeb787579eee8b,2021-07-29_20h15.17.321,Simcolourproject_2stim_asymm_v5,2020.2.10,Linux x86_64,60,61025ae37ef11b136ea224fe,,,,,,,,,2471,25.58239402,-57.16447695,1,0,0,response3disk,,4,-6.361942158,-2.141064738,1,0,0,rectangle,-6.361942158,-2.141064738,1,0,0,-6.361942158,-2.141064738,1,0,0,0,144,144,132,1,,,,,,,,
,,,,,,,,,,,,,FF,,,,,,,,1.4313,,,,,,,,,,,,,,,,,,,,,,60fcd1cab3a2ced3c5c9b2e9,61036e90dfbeb787579eee8b,2021-07-29_20h15.17.321,Simcolourproject_2stim_asymm_v5,2020.2.10,Linux x86_64,60,61025ae37ef11b136ea224fe,,,,,,,,,3327,50.62646801,37.84719111,1,0,0,response1disk,,6,-18.34932403,-1.820829333,1,0,0,rectangle,-18.34932403,-1.820829333,1,0,0,-18.34932403,-1.820829333,1,0,0,0,145,145,127,1,,,,,,,,
,,,,,,,,,,,,,FF,,,,,,,,1.4072,,,,,,,,,,,,,,,,,,,,,,60fcd1cab3a2ced3c5c9b2e9,61036e90dfbeb787579eee8b,2021-07-29_20h15.17.321,Simcolourproject_2stim_asymm_v5,2020.2.10,Linux x86_64,60,61025ae37ef11b136ea224fe,,,,,,,,,3891,52.68724619,18.09261654,1,0,0,response1disk,,6,-2.594364005,8.20214566,1,0,0,rectangle,-2.594364005,8.20214566,1,0,0,-2.594364005,8.20214566,1,0,0,0,146,146,86,1,,,,,,,,
,,,,,,,,,,,,,FF,,,,,,,,1.8115,,,,,,,,,,,,,,,,,,,,,,60fcd1cab3a2ced3c5c9b2e9,61036e90dfbeb787579eee8b,2021-07-29_20h15.17.321,Simcolourproject_2stim_asymm_v5,2020.2.10,Linux x86_64,60,61025ae37ef11b136ea224fe,,,,,,,,,1361,46.06543282,-22.72913541,1,0,0,response3disk,,5,-12.59179418,3.368855122,1,0,0,rectangle,-12.59179418,3.368855122,1,0,0,-12.59179418,3.368855122,1,0,0,0,147,147,76,1,,,,,,,,
,,,,,,,,,,,,,FF,,,,,,,,0.9862,,,,,,,,,,,,,,,,,,,,,,60fcd1cab3a2ced3c5c9b2e9,61036e90dfbeb787579eee8b,2021-07-29_20h15.17.321,Simcolourproject_2stim_asymm_v5,2020.2.10,Linux x86_64,60,61025ae37ef11b136ea224fe,,,,,,,,,620,-43.37486904,58.35713678,1,0,0,response7disk,,0,-5.025105183,3.582953602,1,0,0,rectangle,-5.025105183,3.582953602,1,0,0,-5.025105183,3.582953602,1,0,0,0,148,148,79,1,,,,,,,,
,,,,,,,,,,,,,FF,,,,,,,,1.4717,,,,,,,,,,,,,,,,,,,,,,60fcd1cab3a2ced3c5c9b2e9,61036e90dfbeb787579eee8b,2021-07-29_20h15.17.321,Simcolourproject_2stim_asymm_v5,2020.2.10,Linux x86_64,60,61025ae37ef11b136ea224fe,,,,,,,,,246,-16.27466838,-43.24463207,1,0,0,response5disk,,3,-1.711294509,-1.849972014,1,0,0,rectangle,-1.711294509,-1.849972014,1,0,0,-1.711294509,-1.849972014,1,0,0,0,149,149,144,1,,,,,,,,
,,,,,,,,,,,,,FF,,,,,,,,1.224,,,,,,,,,,,,,,,,,,,,,,60fcd1cab3a2ced3c5c9b2e9,61036e90dfbeb787579eee8b,2021-07-29_20h15.17.321,Simcolourproject_2stim_asymm_v5,2020.2.10,Linux x86_64,60,61025ae37ef11b136ea224fe,,,,,,,,,2252,53.45202313,-24.00321539,1,0,0,response3disk,,5,2.803713749,-1.55443336,1,0,0,rectangle,2.803713749,-1.55443336,1,0,0,2.803713749,-1.55443336,1,0,0,0,150,150,36,1,,,,,,,,
,,,,,,,,,,,,,FF,,,,,,,,0.9761,,,,,,,,,,,,,,,,,,,,,,60fcd1cab3a2ced3c5c9b2e9,61036e90dfbeb787579eee8b,2021-07-29_20h15.17.321,Simcolourproject_2stim_asymm_v5,2020.2.10,Linux x86_64,60,61025ae37ef11b136ea224fe,,,,,,,,,3120,47.83581215,16.02878018,1,0,0,response1disk,,6,-3.114948919,1.879443105,1,0,0,rectangle,-3.114948919,1.879443105,1,0,0,-3.114948919,1.879443105,1,0,0,0,151,151,75,1,,,,,,,,
,,,,,,,,,,,,,FF,,,,,,,,0.7577,,,,,,,,,,,,,,,,,,,,,,60fcd1cab3a2ced3c5c9b2e9,61036e90dfbeb787579eee8b,2021-07-29_20h15.17.321,Simcolourproject_2stim_asymm_v5,2020.2.10,Linux x86_64,60,61025ae37ef11b136ea224fe,,,,,,,,,2707,34.46024667,24.78381725,1,0,0,response1disk,,6,-14.23115994,-2.976616759,1,0,0,rectangle,-14.23115994,-2.976616759,1,0,0,-14.23115994,-2.976616759,1,0,0,0,152,152,25,1,,,,,,,,
,,,,,,,,,,,,,FF,,,,,,,,1.6126,,,,,,,,,,,,,,,,,,,,,,60fcd1cab3a2ced3c5c9b2e9,61036e90dfbeb787579eee8b,2021-07-29_20h15.17.321,Simcolourproject_2stim_asymm_v5,2020.2.10,Linux x86_64,60,61025ae37ef11b136ea224fe,,,,,,,,,3430,17.60058886,-50.62001761,1,0,0,response3disk,,4,-3.524771085,3.482264868,1,0,0,rectangle,-3.524771085,3.482264868,1,0,0,-3.524771085,3.482264868,1,0,0,0,153,153,128,1,,,,,,,,
,,,,,,,,,,,,,FF,,,,,,,,2.8194,,,,,,,,,,,,,,,,,,,,,,60fcd1cab3a2ced3c5c9b2e9,61036e90dfbeb787579eee8b,2021-07-29_20h15.17.321,Simcolourproject_2stim_asymm_v5,2020.2.10,Linux x86_64,60,61025ae37ef11b136ea224fe,,,,,,,,,849,24.81299126,45.78705548,1,0,0,response1disk,,7,-6.085215183,-2.007198577,1,0,0,rectangle,-6.085215183,-2.007198577,1,0,0,-6.085215183,-2.007198577,1,0,0,0,154,154,96,1,,,,,,,,
,,,,,,,,,,,,,FF,,,,,,,,1.0745,,,,,,,,,,,,,,,,,,,,,,60fcd1cab3a2ced3c5c9b2e9,61036e90dfbeb787579eee8b,2021-07-29_20h15.17.321,Simcolourproject_2stim_asymm_v5,2020.2.10,Linux x86_64,60,61025ae37ef11b136ea224fe,,,,,,,,,1639,56.25342118,22.6805586,1,0,0,response1disk,,6,10.2126365,-1.219035537,1,0,0,rectangle,10.2126365,-1.219035537,1,0,0,10.2126365,-1.219035537,1,0,0,0,155,155,105,1,,,,,,,,
,,,,,,,,,,,,,FF,,,,,,,,1.6939,,,,,,,,,,,,,,,,,,,,,,60fcd1cab3a2ced3c5c9b2e9,61036e90dfbeb787579eee8b,2021-07-29_20h15.17.321,Simcolourproject_2stim_asymm_v5,2020.2.10,Linux x86_64,60,61025ae37ef11b136ea224fe,,,,,,,,,928,44.84997229,11.61430646,1,0,0,response1disk,,6,-0.482059302,-3.05654069,1,0,0,rectangle,-0.482059302,-3.05654069,1,0,0,-0.482059302,-3.05654069,1,0,0,0,156,156,100,1,,,,,,,,
,,,,,,,,,,,,,FF,,,,,,,,0.9214,,,,,,,,,,,,,,,,,,,,,,60fcd1cab3a2ced3c5c9b2e9,61036e90dfbeb787579eee8b,2021-07-29_20h15.17.321,Simcolourproject_2stim_asymm_v5,2020.2.10,Linux x86_64,60,61025ae37ef11b136ea224fe,,,,,,,,,4030,53.54834303,-18.44346515,1,0,0,response3disk,,5,-5.292477718,3.912003769,1,0,0,rectangle,-5.292477718,3.912003769,1,0,0,-5.292477718,3.912003769,1,0,0,0,157,157,85,1,,,,,,,,
,,,,,,,,,,,,,FF,,,,,,,,0.8343,,,,,,,,,,,,,,,,,,,,,,60fcd1cab3a2ced3c5c9b2e9,61036e90dfbeb787579eee8b,2021-07-29_20h15.17.321,Simcolourproject_2stim_asymm_v5,2020.2.10,Linux x86_64,60,61025ae37ef11b136ea224fe,,,,,,,,,395,50.46972973,-30.34873867,1,0,0,response3disk,,5,-5.106571055,1.962219627,1,0,0,rectangle,-5.106571055,1.962219627,1,0,0,-5.106571055,1.962219627,1,0,0,0,158,158,52,1,,,,,,,,
,,,,,,,,,,,,,FF,,,,,,,,0.6783,,,,,,,,,,,,,,,,,,,,,,60fcd1cab3a2ced3c5c9b2e9,61036e90dfbeb787579eee8b,2021-07-29_20h15.17.321,Simcolourproject_2stim_asymm_v5,2020.2.10,Linux x86_64,60,61025ae37ef11b136ea224fe,,,,,,,,,2862,39.49463199,-17.99912921,1,0,0,response3disk,,5,1.318105185,2.335626291,1,0,0,rectangle,1.318105185,2.335626291,1,0,0,1.318105185,2.335626291,1,0,0,0,159,159,148,1,,,,,,,,
,,,,,,,,,,,,,FF,,,,,,,,0.8012,,,,,,,,,,,,,,,,,,,,,,60fcd1cab3a2ced3c5c9b2e9,61036e90dfbeb787579eee8b,2021-07-29_20h15.17.321,Simcolourproject_2stim_asymm_v5,2020.2.10,Linux x86_64,60,61025ae37ef11b136ea224fe,,,,,,,,,2099,-27.75207904,49.91899424,1,0,0,response7disk,,0,-0.345957327,6.616002556,1,0,0,rectangle,-0.345957327,6.616002556,1,0,0,-0.345957327,6.616002556,1,0,0,1,0,160,124,1,,,,,,,,
,,,,,,,,,,,,,FF,,,,,,,,1.0224,,,,,,,,,,,,,,,,,,,,,,60fcd1cab3a2ced3c5c9b2e9,61036e90dfbeb787579eee8b,2021-07-29_20h15.17.321,Simcolourproject_2stim_asymm_v5,2020.2.10,Linux x86_64,60,61025ae37ef11b136ea224fe,,,,,,,,,4223,-45.28356046,22.88152488,1,0,0,response7disk,,1,-5.03795469,3.119805984,1,0,0,rectangle,-5.03795469,3.119805984,1,0,0,-5.03795469,3.119805984,1,0,0,1,1,161,7,1,,,,,,,,
,,,,,,,,,,,,,FF,,,,,,,,1.5279,,,,,,,,,,,,,,,,,,,,,,60fcd1cab3a2ced3c5c9b2e9,61036e90dfbeb787579eee8b,2021-07-29_20h15.17.321,Simcolourproject_2stim_asymm_v5,2020.2.10,Linux x86_64,60,61025ae37ef11b136ea224fe,,,,,,,,,2051,61.46926723,29.80026465,1,0,0,response1disk,,6,-13.17158962,1.919764857,1,0,0,rectangle,55.44896496,33.88178195,1,0,0,-2.555918281,3.867647272,1,0,0,1,2,162,151,1,,response1disk_3,TRUE,6,6,"[185,227,10,310,119,95,16,197,124,49,163,292,218,117,22,113,235,35,131,297]",2.8488,rectangle
,,,,,,,,,,,,,FF,,,,,,,,1.2949,,,,,,,,,,,,,,,,,,,,,,60fcd1cab3a2ced3c5c9b2e9,61036e90dfbeb787579eee8b,2021-07-29_20h15.17.321,Simcolourproject_2stim_asymm_v5,2020.2.10,Linux x86_64,60,61025ae37ef11b136ea224fe,,,,,,,,,2988,-21.31799696,-51.38908628,1,0,0,response5disk,,3,3.163217246,0.567996754,1,0,0,rectangle,3.163217246,0.567996754,1,0,0,3.163217246,0.567996754,1,0,0,1,3,163,23,1,,,,,,,,
,,,,,,,,,,,,,FF,,,,,,,,1.5099,,,,,,,,,,,,,,,,,,,,,,60fcd1cab3a2ced3c5c9b2e9,61036e90dfbeb787579eee8b,2021-07-29_20h15.17.321,Simcolourproject_2stim_asymm_v5,2020.2.10,Linux x86_64,60,61025ae37ef11b136ea224fe,,,,,,,,,2311,22.70801077,51.58436741,1,0,0,response1disk,,7,-0.829946846,9.578739009,1,0,0,rectangle,-0.829946846,9.578739009,1,0,0,-0.829946846,9.578739009,1,0,0,1,4,164,25,1,,,,,,,,
,,,,,,,,,,,,,FF,,,,,,,,0.8831,,,,,,,,,,,,,,,,,,,,,,60fcd1cab3a2ced3c5c9b2e9,61036e90dfbeb787579eee8b,2021-07-29_20h15.17.321,Simcolourproject_2stim_asymm_v5,2020.2.10,Linux x86_64,60,61025ae37ef11b136ea224fe,,,,,,,,,3728,48.84436993,18.54656391,1,0,0,response1disk,,6,0.220346131,6.507218633,1,0,0,rectangle,0.220346131,6.507218633,1,0,0,0.220346131,6.507218633,1,0,0,1,5,165,106,1,,,,,,,,
,,,,,,,,,,,,,FF,,,,,,,,1.6468,,,,,,,,,,,,,,,,,,,,,,60fcd1cab3a2ced3c5c9b2e9,61036e90dfbeb787579eee8b,2021-07-29_20h15.17.321,Simcolourproject_2stim_asymm_v5,2020.2.10,Linux x86_64,60,61025ae37ef11b136ea224fe,,,,,,,,,1880,25.92223777,-42.76167051,1,0,0,response3disk,,4,-3.403034858,-3.163448586,1,0,0,rectangle,-3.403034858,-3.163448586,1,0,0,-3.403034858,-3.163448586,1,0,0,1,6,166,26,1,,,,,,,,
,,,,,,,,,,,,,FF,,,,,,,,1.1266,,,,,,,,,,,,,,,,,,,,,,60fcd1cab3a2ced3c5c9b2e9,61036e90dfbeb787579eee8b,2021-07-29_20h15.17.321,Simcolourproject_2stim_asymm_v5,2020.2.10,Linux x86_64,60,61025ae37ef11b136ea224fe,,,,,,,,,2362,-45.77929443,14.13316955,1,0,0,response7disk,,1,-2.526981192,10.84248799,1,0,0,rectangle,-2.526981192,10.84248799,1,0,0,-2.526981192,10.84248799,1,0,0,1,7,167,0,1,,,,,,,,
,,,,,,,,,,,,,FF,,,,,,,,1.5399,,,,,,,,,,,,,,,,,,,,,,60fcd1cab3a2ced3c5c9b2e9,61036e90dfbeb787579eee8b,2021-07-29_20h15.17.321,Simcolourproject_2stim_asymm_v5,2020.2.10,Linux x86_64,60,61025ae37ef11b136ea224fe,,,,,,,,,3180,46.26624491,25.27924283,1,0,0,response1disk,,6,4.322396943,-4.861639388,1,0,0,rectangle,4.322396943,-4.861639388,1,0,0,4.322396943,-4.861639388,1,0,0,1,8,168,14,1,,,,,,,,
,,,,,,,,,,,,,FF,,,,,,,,1.0155,,,,,,,,,,,,,,,,,,,,,,60fcd1cab3a2ced3c5c9b2e9,61036e90dfbeb787579eee8b,2021-07-29_20h15.17.321,Simcolourproject_2stim_asymm_v5,2020.2.10,Linux x86_64,60,61025ae37ef11b136ea224fe,,,,,,,,,2027,-51.51598238,20.20039822,1,0,0,response7disk,,1,-3.86168515,3.719826548,1,0,0,rectangle,-3.86168515,3.719826548,1,0,0,-3.86168515,3.719826548,1,0,0,1,9,169,49,1,,,,,,,,
,,,,,,,,,,,,,FF,,,,,,,,1.3722,,,,,,,,,,,,,,,,,,,,,,60fcd1cab3a2ced3c5c9b2e9,61036e90dfbeb787579eee8b,2021-07-29_20h15.17.321,Simcolourproject_2stim_asymm_v5,2020.2.10,Linux x86_64,60,61025ae37ef11b136ea224fe,,,,,,,,,1370,-48.08056397,22.30815419,1,0,0,response7disk,,1,-0.620114402,1.229592154,1,0,0,rectangle,-0.620114402,1.229592154,1,0,0,-0.620114402,1.229592154,1,0,0,1,10,170,156,1,,,,,,,,
,,,,,,,,,,,,,FF,,,,,,,,0.9015,,,,,,,,,,,,,,,,,,,,,,60fcd1cab3a2ced3c5c9b2e9,61036e90dfbeb787579eee8b,2021-07-29_20h15.17.321,Simcolourproject_2stim_asymm_v5,2020.2.10,Linux x86_64,60,61025ae37ef11b136ea224fe,,,,,,,,,3026,61.6029021,-36.30808288,1,0,0,response3disk,,5,-8.581745835,8.700963509,1,0,0,rectangle,-8.581745835,8.700963509,1,0,0,-8.581745835,8.700963509,1,0,0,1,11,171,38,1,,,,,,,,
,,,,,,,,,,,,,FF,,,,,,,,0.8144,,,,,,,,,,,,,,,,,,,,,,60fcd1cab3a2ced3c5c9b2e9,61036e90dfbeb787579eee8b,2021-07-29_20h15.17.321,Simcolourproject_2stim_asymm_v5,2020.2.10,Linux x86_64,60,61025ae37ef11b136ea224fe,,,,,,,,,3171,45.95849923,22.72249939,1,0,0,response1disk,,6,9.039348047,8.338556023,1,0,0,rectangle,9.039348047,8.338556023,1,0,0,9.039348047,8.338556023,1,0,0,1,12,172,57,1,,,,,,,,
,,,,,,,,,,,,,FF,,,,,,,,1.0274,,,,,,,,,,,,,,,,,,,,,,60fcd1cab3a2ced3c5c9b2e9,61036e90dfbeb787579eee8b,2021-07-29_20h15.17.321,Simcolourproject_2stim_asymm_v5,2020.2.10,Linux x86_64,60,61025ae37ef11b136ea224fe,,,,,,,,,3814,-45.48987214,35.81743164,1,0,0,response7disk,,1,6.356576645,7.354489404,1,0,0,rectangle,6.356576645,7.354489404,1,0,0,6.356576645,7.354489404,1,0,0,1,13,173,120,1,,,,,,,,
,,,,,,,,,,,,,FF,,,,,,,,1.696,,,,,,,,,,,,,,,,,,,,,,60fcd1cab3a2ced3c5c9b2e9,61036e90dfbeb787579eee8b,2021-07-29_20h15.17.321,Simcolourproject_2stim_asymm_v5,2020.2.10,Linux x86_64,60,61025ae37ef11b136ea224fe,,,,,,,,,374,-44.2301836,-18.72271063,1,0,0,response5disk,,2,-3.993649583,-3.159336744,1,0,0,rectangle,-3.993649583,-3.159336744,1,0,0,-3.993649583,-3.159336744,1,0,0,1,14,174,104,1,,,,,,,,
,,,,,,,,,,,,,FF,,,,,,,,1.439,,,,,,,,,,,,,,,,,,,,,,60fcd1cab3a2ced3c5c9b2e9,61036e90dfbeb787579eee8b,2021-07-29_20h15.17.321,Simcolourproject_2stim_asymm_v5,2020.2.10,Linux x86_64,60,61025ae37ef11b136ea224fe,,,,,,,,,3597,-32.81018454,-52.61338728,1,0,0,response5disk,,3,-3.443485105,5.698599177,1,0,0,rectangle,-3.443485105,5.698599177,1,0,0,-3.443485105,5.698599177,1,0,0,1,15,175,155,1,,,,,,,,
,,,,,,,,,,,,,FF,,,,,,,,1.5261,,,,,,,,,,,,,,,,,,,,,,60fcd1cab3a2ced3c5c9b2e9,61036e90dfbeb787579eee8b,2021-07-29_20h15.17.321,Simcolourproject_2stim_asymm_v5,2020.2.10,Linux x86_64,60,61025ae37ef11b136ea224fe,,,,,,,,,3381,-27.88024002,55.44014457,1,0,0,response7disk,,0,-5.012075783,4.400901799,1,0,0,rectangle,-5.012075783,4.400901799,1,0,0,-5.012075783,4.400901799,1,0,0,1,16,176,66,1,,,,,,,,
,,,,,,,,,,,,,FF,,,,,,,,0.8507,,,,,,,,,,,,,,,,,,,,,,60fcd1cab3a2ced3c5c9b2e9,61036e90dfbeb787579eee8b,2021-07-29_20h15.17.321,Simcolourproject_2stim_asymm_v5,2020.2.10,Linux x86_64,60,61025ae37ef11b136ea224fe,,,,,,,,,385,43.80859687,24.31917909,1,0,0,response1disk,,6,11.92712048,2.02333188,1,0,0,rectangle,11.92712048,2.02333188,1,0,0,11.92712048,2.02333188,1,0,0,1,17,177,58,1,,,,,,,,
,,,,,,,,,,,,,FF,,,,,,,,1.5184,,,,,,,,,,,,,,,,,,,,,,60fcd1cab3a2ced3c5c9b2e9,61036e90dfbeb787579eee8b,2021-07-29_20h15.17.321,Simcolourproject_2stim_asymm_v5,2020.2.10,Linux x86_64,60,61025ae37ef11b136ea224fe,,,,,,,,,4145,-38.4400674,-25.2117115,1,0,0,response5disk,,2,-5.102407815,1.552885742,1,0,0,rectangle,-5.102407815,1.552885742,1,0,0,-5.102407815,1.552885742,1,0,0,1,18,178,19,1,,,,,,,,
,,,,,,,,,,,,,FF,,,,,,,,1.3703,,,,,,,,,,,,,,,,,,,,,,60fcd1cab3a2ced3c5c9b2e9,61036e90dfbeb787579eee8b,2021-07-29_20h15.17.321,Simcolourproject_2stim_asymm_v5,2020.2.10,Linux x86_64,60,61025ae37ef11b136ea224fe,,,,,,,,,2720,-41.23876705,-22.27035662,1,0,0,response5disk,,2,9.234377859,-4.268197772,1,0,0,rectangle,9.234377859,-4.268197772,1,0,0,9.234377859,-4.268197772,1,0,0,1,19,179,18,1,,,,,,,,
,,,,,,,,,,,,,FF,,,,,,,,0.8684,,,,,,,,,,,,,,,,,,,,,,60fcd1cab3a2ced3c5c9b2e9,61036e90dfbeb787579eee8b,2021-07-29_20h15.17.321,Simcolourproject_2stim_asymm_v5,2020.2.10,Linux x86_64,60,61025ae37ef11b136ea224fe,,,,,,,,,3058,-51.87854406,-22.65147299,1,0,0,response5disk,,2,-5.24971456,0.869137793,1,0,0,rectangle,-5.24971456,0.869137793,1,0,0,-5.24971456,0.869137793,1,0,0,1,20,180,96,1,,,,,,,,
,,,,,,,,,,,,,FF,,,,,,,,0.9134,,,,,,,,,,,,,,,,,,,,,,60fcd1cab3a2ced3c5c9b2e9,61036e90dfbeb787579eee8b,2021-07-29_20h15.17.321,Simcolourproject_2stim_asymm_v5,2020.2.10,Linux x86_64,60,61025ae37ef11b136ea224fe,,,,,,,,,3812,-43.90491119,-24.47944381,1,0,0,response5disk,,2,10.46654275,6.612995771,1,0,0,rectangle,10.46654275,6.612995771,1,0,0,10.46654275,6.612995771,1,0,0,1,21,181,123,1,,,,,,,,
,,,,,,,,,,,,,FF,,,,,,,,0.735,,,,,,,,,,,,,,,,,,,,,,60fcd1cab3a2ced3c5c9b2e9,61036e90dfbeb787579eee8b,2021-07-29_20h15.17.321,Simcolourproject_2stim_asymm_v5,2020.2.10,Linux x86_64,60,61025ae37ef11b136ea224fe,,,,,,,,,4273,43.1462305,-33.52256682,1,0,0,response3disk,,5,11.60644819,-7.738284146,1,0,0,rectangle,11.60644819,-7.738284146,1,0,0,11.60644819,-7.738284146,1,0,0,1,22,182,11,1,,,,,,,,
,,,,,,,,,,,,,FF,,,,,,,,1.1991,,,,,,,,,,,,,,,,,,,,,,60fcd1cab3a2ced3c5c9b2e9,61036e90dfbeb787579eee8b,2021-07-29_20h15.17.321,Simcolourproject_2stim_asymm_v5,2020.2.10,Linux x86_64,60,61025ae37ef11b136ea224fe,,,,,,,,,718,-44.6964151,21.75765563,1,0,0,response7disk,,1,-9.190915247,5.42269457,1,0,0,rectangle,-9.190915247,5.42269457,1,0,0,-9.190915247,5.42269457,1,0,0,1,23,183,8,1,,,,,,,,
,,,,,,,,,,,,,FF,,,,,,,,1.06,,,,,,,,,,,,,,,,,,,,,,60fcd1cab3a2ced3c5c9b2e9,61036e90dfbeb787579eee8b,2021-07-29_20h15.17.321,Simcolourproject_2stim_asymm_v5,2020.2.10,Linux x86_64,60,61025ae37ef11b136ea224fe,,,,,,,,,2821,35.70544097,16.18495308,1,0,0,response1disk,,6,14.37806108,8.87648777,1,0,0,rectangle,14.04541305,-53.50462906,1,0,0,-0.751821845,-4.252572772,1,0,0,1,24,184,52,1,,response3disk_3,TRUE,4,4,"[185,227,10,310,119,95,16,197,124,49,163,292,218,117,22,113,235,35,131,297]",2.4937,rectangle
,,,,,,,,,,,,,FF,,,,,,,,0.887,,,,,,,,,,,,,,,,,,,,,,60fcd1cab3a2ced3c5c9b2e9,61036e90dfbeb787579eee8b,2021-07-29_20h15.17.321,Simcolourproject_2stim_asymm_v5,2020.2.10,Linux x86_64,60,61025ae37ef11b136ea224fe,,,,,,,,,3893,56.05810868,25.14637893,1,0,0,response1disk,,6,4.503652084,0.181123807,1,0,0,rectangle,4.503652084,0.181123807,1,0,0,4.503652084,0.181123807,1,0,0,1,25,185,112,1,,,,,,,,
,,,,,,,,,,,,,FF,,,,,,,,0.8598,,,,,,,,,,,,,,,,,,,,,,60fcd1cab3a2ced3c5c9b2e9,61036e90dfbeb787579eee8b,2021-07-29_20h15.17.321,Simcolourproject_2stim_asymm_v5,2020.2.10,Linux x86_64,60,61025ae37ef11b136ea224fe,,,,,,,,,3509,34.71888154,20.87381516,1,0,0,response1disk,,6,-5.362430432,2.955769182,1,0,0,rectangle,-5.362430432,2.955769182,1,0,0,-5.362430432,2.955769182,1,0,0,1,26,186,121,1,,,,,,,,
,,,,,,,,,,,,,FF,,,,,,,,1.0725,,,,,,,,,,,,,,,,,,,,,,60fcd1cab3a2ced3c5c9b2e9,61036e90dfbeb787579eee8b,2021-07-29_20h15.17.321,Simcolourproject_2stim_asymm_v5,2020.2.10,Linux x86_64,60,61025ae37ef11b136ea224fe,,,,,,,,,1713,41.82067539,-19.16797173,1,0,0,response3disk,,5,-0.113535451,2.732136368,1,0,0,rectangle,-0.113535451,2.732136368,1,0,0,-0.113535451,2.732136368,1,0,0,1,27,187,116,1,,,,,,,,
,,,,,,,,,,,,,FF,,,,,,,,3.0629,,,,,,,,,,,,,,,,,,,,,,60fcd1cab3a2ced3c5c9b2e9,61036e90dfbeb787579eee8b,2021-07-29_20h15.17.321,Simcolourproject_2stim_asymm_v5,2020.2.10,Linux x86_64,60,61025ae37ef11b136ea224fe,,,,,,,,,2814,46.99681646,30.24645092,1,0,0,response1disk,,6,7.444698569,3.476508289,1,0,0,rectangle,7.444698569,3.476508289,1,0,0,7.444698569,3.476508289,1,0,0,1,28,188,115,1,,,,,,,,
,,,,,,,,,,,,,FF,,,,,,,,1.6834,,,,,,,,,,,,,,,,,,,,,,60fcd1cab3a2ced3c5c9b2e9,61036e90dfbeb787579eee8b,2021-07-29_20h15.17.321,Simcolourproject_2stim_asymm_v5,2020.2.10,Linux x86_64,60,61025ae37ef11b136ea224fe,,,,,,,,,3025,21.69017565,46.34014964,1,0,0,response1disk,,7,-12.25670474,2.71252802,1,0,0,rectangle,-12.25670474,2.71252802,1,0,0,-12.25670474,2.71252802,1,0,0,1,29,189,55,1,,,,,,,,
,,,,,,,,,,,,,FF,,,,,,,,0.9854,,,,,,,,,,,,,,,,,,,,,,60fcd1cab3a2ced3c5c9b2e9,61036e90dfbeb787579eee8b,2021-07-29_20h15.17.321,Simcolourproject_2stim_asymm_v5,2020.2.10,Linux x86_64,60,61025ae37ef11b136ea224fe,,,,,,,,,1942,35.80309722,23.92850269,1,0,0,response1disk,,6,4.969112613,-2.013520535,1,0,0,rectangle,4.969112613,-2.013520535,1,0,0,4.969112613,-2.013520535,1,0,0,1,30,190,65,1,,,,,,,,
,,,,,,,,,,,,,FF,,,,,,,,2.6063,,,,,,,,,,,,,,,,,,,,,,60fcd1cab3a2ced3c5c9b2e9,61036e90dfbeb787579eee8b,2021-07-29_20h15.17.321,Simcolourproject_2stim_asymm_v5,2020.2.10,Linux x86_64,60,61025ae37ef11b136ea224fe,,,,,,,,,2826,-19.83300517,-39.94737156,1,0,0,response5disk,,3,-2.258066717,-0.71027217,1,0,0,rectangle,-2.258066717,-0.71027217,1,0,0,-2.258066717,-0.71027217,1,0,0,1,31,191,150,1,,,,,,,,
,,,,,,,,,,,,,FF,,,,,,,,1.1573,,,,,,,,,,,,,,,,,,,,,,60fcd1cab3a2ced3c5c9b2e9,61036e90dfbeb787579eee8b,2021-07-29_20h15.17.321,Simcolourproject_2stim_asymm_v5,2020.2.10,Linux x86_64,60,61025ae37ef11b136ea224fe,,,,,,,,,4315,16.47826155,43.55041895,1,0,0,response1disk,,7,-8.293454303,-0.210580554,1,0,0,rectangle,-8.293454303,-0.210580554,1,0,0,-8.293454303,-0.210580554,1,0,0,1,32,192,83,1,,,,,,,,
,,,,,,,,,,,,,FF,,,,,,,,1.4452,,,,,,,,,,,,,,,,,,,,,,60fcd1cab3a2ced3c5c9b2e9,61036e90dfbeb787579eee8b,2021-07-29_20h15.17.321,Simcolourproject_2stim_asymm_v5,2020.2.10,Linux x86_64,60,61025ae37ef11b136ea224fe,,,,,,,,,1343,30.02978817,15.84215394,1,0,0,response1disk,,6,10.33630015,6.411746798,1,0,0,rectangle,10.33630015,6.411746798,1,0,0,10.33630015,6.411746798,1,0,0,1,33,193,140,1,,,,,,,,
,,,,,,,,,,,,,FF,,,,,,,,1.4684,,,,,,,,,,,,,,,,,,,,,,60fcd1cab3a2ced3c5c9b2e9,61036e90dfbeb787579eee8b,2021-07-29_20h15.17.321,Simcolourproject_2stim_asymm_v5,2020.2.10,Linux x86_64,60,61025ae37ef11b136ea224fe,,,,,,,,,1980,25.9866909,-52.64617922,1,0,0,response3disk,,4,0.476693789,2.456411653,1,0,0,rectangle,0.476693789,2.456411653,1,0,0,0.476693789,2.456411653,1,0,0,1,34,194,47,1,,,,,,,,
,,,,,,,,,,,,,FF,,,,,,,,1.1586,,,,,,,,,,,,,,,,,,,,,,60fcd1cab3a2ced3c5c9b2e9,61036e90dfbeb787579eee8b,2021-07-29_20h15.17.321,Simcolourproject_2stim_asymm_v5,2020.2.10,Linux x86_64,60,61025ae37ef11b136ea224fe,,,,,,,,,1943,28.23216789,55.11746776,1,0,0,response1disk,,7,2.487307496,4.885302502,1,0,0,rectangle,2.487307496,4.885302502,1,0,0,2.487307496,4.885302502,1,0,0,1,35,195,5,1,,,,,,,,
,,,,,,,,,,,,,FF,,,,,,,,0.8913,,,,,,,,,,,,,,,,,,,,,,60fcd1cab3a2ced3c5c9b2e9,61036e90dfbeb787579eee8b,2021-07-29_20h15.17.321,Simcolourproject_2stim_asymm_v5,2020.2.10,Linux x86_64,60,61025ae37ef11b136ea224fe,,,,,,,,,3612,49.60680826,17.36219918,1,0,0,response1disk,,6,0.764394243,-2.120017246,1,0,0,rectangle,-52.10364172,31.52744394,1,0,0,0.575198107,-1.591491337,1,0,0,1,36,196,118,1,,response7disk_3,TRUE,1,1,"[185,227,10,310,119,95,16,197,124,49,163,292,218,117,22,113,235,35,131,297]",2.7019,rectangle
,,,,,,,,,,,,,FF,,,,,,,,1.4212,,,,,,,,,,,,,,,,,,,,,,60fcd1cab3a2ced3c5c9b2e9,61036e90dfbeb787579eee8b,2021-07-29_20h15.17.321,Simcolourproject_2stim_asymm_v5,2020.2.10,Linux x86_64,60,61025ae37ef11b136ea224fe,,,,,,,,,175,-24.22301343,-51.60084615,1,0,0,response5disk,,3,10.63939432,6.11631094,1,0,0,rectangle,10.63939432,6.11631094,1,0,0,10.63939432,6.11631094,1,0,0,1,37,197,97,1,,,,,,,,
,,,,,,,,,,,,,FF,,,,,,,,0.9994,,,,,,,,,,,,,,,,,,,,,,60fcd1cab3a2ced3c5c9b2e9,61036e90dfbeb787579eee8b,2021-07-29_20h15.17.321,Simcolourproject_2stim_asymm_v5,2020.2.10,Linux x86_64,60,61025ae37ef11b136ea224fe,,,,,,,,,1442,42.1328156,-35.58655738,1,0,0,response3disk,,5,-1.457285461,2.029808032,1,0,0,rectangle,-1.457285461,2.029808032,1,0,0,-1.457285461,2.029808032,1,0,0,1,38,198,29,1,,,,,,,,
,,,,,,,,,,,,,FF,,,,,,,,0.8943,,,,,,,,,,,,,,,,,,,,,,60fcd1cab3a2ced3c5c9b2e9,61036e90dfbeb787579eee8b,2021-07-29_20h15.17.321,Simcolourproject_2stim_asymm_v5,2020.2.10,Linux x86_64,60,61025ae37ef11b136ea224fe,,,,,,,,,2496,-19.96923564,-58.50848395,1,0,0,response5disk,,3,-6.740925508,-0.275830349,1,0,0,rectangle,-6.740925508,-0.275830349,1,0,0,-6.740925508,-0.275830349,1,0,0,1,39,199,79,1,,,,,,,,
,,,,,,,,,,,,,FF,,,,,,,,1.0683,,,,,,,,,,,,,,,,,,,,,,60fcd1cab3a2ced3c5c9b2e9,61036e90dfbeb787579eee8b,2021-07-29_20h15.17.321,Simcolourproject_2stim_asymm_v5,2020.2.10,Linux x86_64,60,61025ae37ef11b136ea224fe,,,,,,,,,4290,34.01061674,49.45235156,1,0,0,response1disk,,7,4.078975888,6.954047378,1,0,0,rectangle,4.078975888,6.954047378,1,0,0,4.078975888,6.954047378,1,0,0,1,40,200,135,1,,,,,,,,
,,,,,,,,,,,,,FF,,,,,,,,1.2666,,,,,,,,,,,,,,,,,,,,,,60fcd1cab3a2ced3c5c9b2e9,61036e90dfbeb787579eee8b,2021-07-29_20h15.17.321,Simcolourproject_2stim_asymm_v5,2020.2.10,Linux x86_64,60,61025ae37ef11b136ea224fe,,,,,,,,,633,-45.29455964,-18.77177004,1,0,0,response5disk,,2,8.437143067,3.936906113,1,0,0,rectangle,8.437143067,3.936906113,1,0,0,8.437143067,3.936906113,1,0,0,1,41,201,105,1,,,,,,,,
,,,,,,,,,,,,,FF,,,,,,,,0.7204,,,,,,,,,,,,,,,,,,,,,,60fcd1cab3a2ced3c5c9b2e9,61036e90dfbeb787579eee8b,2021-07-29_20h15.17.321,Simcolourproject_2stim_asymm_v5,2020.2.10,Linux x86_64,60,61025ae37ef11b136ea224fe,,,,,,,,,1456,-33.20116933,20.9405812,1,0,0,response7disk,,1,4.193490692,-1.77061346,1,0,0,rectangle,4.193490692,-1.77061346,1,0,0,4.193490692,-1.77061346,1,0,0,1,42,202,143,1,,,,,,,,
,,,,,,,,,,,,,FF,,,,,,,,0.9365,,,,,,,,,,,,,,,,,,,,,,60fcd1cab3a2ced3c5c9b2e9,61036e90dfbeb787579eee8b,2021-07-29_20h15.17.321,Simcolourproject_2stim_asymm_v5,2020.2.10,Linux x86_64,60,61025ae37ef11b136ea224fe,,,,,,,,,2985,-51.39892337,21.34492947,1,0,0,response7disk,,1,-16.76598212,6.775079449,1,0,0,rectangle,-16.76598212,6.775079449,1,0,0,-16.76598212,6.775079449,1,0,0,1,43,203,127,1,,,,,,,,
,,,,,,,,,,,,,FF,,,,,,,,0.9986,,,,,,,,,,,,,,,,,,,,,,60fcd1cab3a2ced3c5c9b2e9,61036e90dfbeb787579eee8b,2021-07-29_20h15.17.321,Simcolourproject_2stim_asymm_v5,2020.2.10,Linux x86_64,60,61025ae37ef11b136ea224fe,,,,,,,,,4020,-27.49657945,45.42087024,1,0,0,response7disk,,0,-4.673105797,4.827608217,1,0,0,rectangle,-4.673105797,4.827608217,1,0,0,-4.673105797,4.827608217,1,0,0,1,44,204,139,1,,,,,,,,
,,,,,,,,,,,,,FF,,,,,,,,1.0267,,,,,,,,,,,,,,,,,,,,,,60fcd1cab3a2ced3c5c9b2e9,61036e90dfbeb787579eee8b,2021-07-29_20h15.17.321,Simcolourproject_2stim_asymm_v5,2020.2.10,Linux x86_64,60,61025ae37ef11b136ea224fe,,,,,,,,,2073,27.79186669,52.96191162,1,0,0,response1disk,,7,-5.23694215,6.671769415,1,0,0,rectangle,-5.23694215,6.671769415,1,0,0,-5.23694215,6.671769415,1,0,0,1,45,205,85,1,,,,,,,,
,,,,,,,,,,,,,FF,,,,,,,,1.6437,,,,,,,,,,,,,,,,,,,,,,60fcd1cab3a2ced3c5c9b2e9,61036e90dfbeb787579eee8b,2021-07-29_20h15.17.321,Simcolourproject_2stim_asymm_v5,2020.2.10,Linux x86_64,60,61025ae37ef11b136ea224fe,,,,,,,,,2656,-44.61096588,24.96057506,1,0,0,response7disk,,1,-2.845700356,-3.429227782,1,0,0,rectangle,-2.845700356,-3.429227782,1,0,0,-2.845700356,-3.429227782,1,0,0,1,46,206,63,1,,,,,,,,
,,,,,,,,,,,,,FF,,,,,,,,1.2026,,,,,,,,,,,,,,,,,,,,,,60fcd1cab3a2ced3c5c9b2e9,61036e90dfbeb787579eee8b,2021-07-29_20h15.17.321,Simcolourproject_2stim_asymm_v5,2020.2.10,Linux x86_64,60,61025ae37ef11b136ea224fe,,,,,,,,,606,-36.15087639,-26.38620781,1,0,0,response5disk,,2,0.940920766,4.127104511,1,0,0,rectangle,0.940920766,4.127104511,1,0,0,0.940920766,4.127104511,1,0,0,1,47,207,16,1,,,,,,,,
,,,,,,,,,,,,,FF,,,,,,,,1.299,,,,,,,,,,,,,,,,,,,,,,60fcd1cab3a2ced3c5c9b2e9,61036e90dfbeb787579eee8b,2021-07-29_20h15.17.321,Simcolourproject_2stim_asymm_v5,2020.2.10,Linux x86_64,60,61025ae37ef11b136ea224fe,,,,,,,,,1782,19.57458147,36.90352334,1,0,0,response1disk,,7,5.04004189,6.861376735,1,0,0,rectangle,5.04004189,6.861376735,1,0,0,5.04004189,6.861376735,1,0,0,1,48,208,132,1,,,,,,,,
,,,,,,,,,,,,,FF,,,,,,,,1.0872,,,,,,,,,,,,,,,,,,,,,,60fcd1cab3a2ced3c5c9b2e9,61036e90dfbeb787579eee8b,2021-07-29_20h15.17.321,Simcolourproject_2stim_asymm_v5,2020.2.10,Linux x86_64,60,61025ae37ef11b136ea224fe,,,,,,,,,2791,42.90979957,-22.18195202,1,0,0,response3disk,,5,-2.156375721,2.144168641,1,0,0,rectangle,-2.156375721,2.144168641,1,0,0,-2.156375721,2.144168641,1,0,0,1,49,209,4,1,,,,,,,,
,,,,,,,,,,,,,FF,,,,,,,,1.2598,,,,,,,,,,,,,,,,,,,,,,60fcd1cab3a2ced3c5c9b2e9,61036e90dfbeb787579eee8b,2021-07-29_20h15.17.321,Simcolourproject_2stim_asymm_v5,2020.2.10,Linux x86_64,60,61025ae37ef11b136ea224fe,,,,,,,,,3202,-27.03222397,-47.25879225,1,0,0,response5disk,,3,-3.769785478,-6.830235209,1,0,0,rectangle,-3.769785478,-6.830235209,1,0,0,-3.769785478,-6.830235209,1,0,0,1,50,210,159,1,,,,,,,,
,,,,,,,,,,,,,FF,,,,,,,,1.2441,,,,,,,,,,,,,,,,,,,,,,60fcd1cab3a2ced3c5c9b2e9,61036e90dfbeb787579eee8b,2021-07-29_20h15.17.321,Simcolourproject_2stim_asymm_v5,2020.2.10,Linux x86_64,60,61025ae37ef11b136ea224fe,,,,,,,,,2159,21.92509033,56.69266309,1,0,0,response1disk,,7,-8.08228551,2.987301871,1,0,0,rectangle,-8.08228551,2.987301871,1,0,0,-8.08228551,2.987301871,1,0,0,1,51,211,12,1,,,,,,,,
,,,,,,,,,,,,,FF,,,,,,,,1.3863,,,,,,,,,,,,,,,,,,,,,,60fcd1cab3a2ced3c5c9b2e9,61036e90dfbeb787579eee8b,2021-07-29_20h15.17.321,Simcolourproject_2stim_asymm_v5,2020.2.10,Linux x86_64,60,61025ae37ef11b136ea224fe,,,,,,,,,2479,16.71813614,38.51526266,1,0,0,response1disk,,7,-4.661978124,9.840766149,1,0,0,rectangle,-4.661978124,9.840766149,1,0,0,-4.661978124,9.840766149,1,0,0,1,52,212,72,1,,,,,,,,
,,,,,,,,,,,,,FF,,,,,,,,0.7801,,,,,,,,,,,,,,,,,,,,,,60fcd1cab3a2ced3c5c9b2e9,61036e90dfbeb787579eee8b,2021-07-29_20h15.17.321,Simcolourproject_2stim_asymm_v5,2020.2.10,Linux x86_64,60,61025ae37ef11b136ea224fe,,,,,,,,,1265,45.73841288,28.22897558,1,0,0,response1disk,,6,10.57825636,-1.757918148,1,0,0,rectangle,10.57825636,-1.757918148,1,0,0,10.57825636,-1.757918148,1,0,0,1,53,213,36,1,,,,,,,,
,,,,,,,,,,,,,FF,,,,,,,,0.8306,,,,,,,,,,,,,,,,,,,,,,60fcd1cab3a2ced3c5c9b2e9,61036e90dfbeb787579eee8b,2021-07-29_20h15.17.321,Simcolourproject_2stim_asymm_v5,2020.2.10,Linux x86_64,60,61025ae37ef11b136ea224fe,,,,,,,,,22,39.20592927,-20.00360085,1,0,0,response3disk,,5,12.48173088,5.45967545,1,0,0,rectangle,12.48173088,5.45967545,1,0,0,12.48173088,5.45967545,1,0,0,1,54,214,2,1,,,,,,,,
,,,,,,,,,,,,,FF,,,,,,,,0.7048,,,,,,,,,,,,,,,,,,,,,,60fcd1cab3a2ced3c5c9b2e9,61036e90dfbeb787579eee8b,2021-07-29_20h15.17.321,Simcolourproject_2stim_asymm_v5,2020.2.10,Linux x86_64,60,61025ae37ef11b136ea224fe,,,,,,,,,3345,38.66532483,22.11127405,1,0,0,response1disk,,6,12.43017866,4.192585597,1,0,0,rectangle,12.43017866,4.192585597,1,0,0,12.43017866,4.192585597,1,0,0,1,55,215,138,1,,,,,,,,
,,,,,,,,,,,,,FF,,,,,,,,1.1796,,,,,,,,,,,,,,,,,,,,,,60fcd1cab3a2ced3c5c9b2e9,61036e90dfbeb787579eee8b,2021-07-29_20h15.17.321,Simcolourproject_2stim_asymm_v5,2020.2.10,Linux x86_64,60,61025ae37ef11b136ea224fe,,,,,,,,,3629,37.52762951,18.0362329,1,0,0,response1disk,,6,-2.404782384,-3.158154589,1,0,0,rectangle,-2.404782384,-3.158154589,1,0,0,-2.404782384,-3.158154589,1,0,0,1,56,216,74,1,,,,,,,,
,,,,,,,,,,,,,FF,,,,,,,,0.8924,,,,,,,,,,,,,,,,,,,,,,60fcd1cab3a2ced3c5c9b2e9,61036e90dfbeb787579eee8b,2021-07-29_20h15.17.321,Simcolourproject_2stim_asymm_v5,2020.2.10,Linux x86_64,60,61025ae37ef11b136ea224fe,,,,,,,,,608,28.03446538,22.2533896,1,0,0,response1disk,,6,-1.030758936,4.101765284,1,0,0,rectangle,-48.58202882,29.40259812,1,0,0,-6.977253635,14.83858177,1,0,0,1,57,217,70,1,,response7disk_3,TRUE,1,1,"[185,227,10,310,119,95,16,197,124,49,163,292,218,117,22,113,235,35,131,297]",2.0862,rectangle
,,,,,,,,,,,,,FF,,,,,,,,4.1513,,,,,,,,,,,,,,,,,,,,,,60fcd1cab3a2ced3c5c9b2e9,61036e90dfbeb787579eee8b,2021-07-29_20h15.17.321,Simcolourproject_2stim_asymm_v5,2020.2.10,Linux x86_64,60,61025ae37ef11b136ea224fe,,,,,,,,,1641,52.14147625,22.55057299,1,0,0,response1disk,,6,-8.409536746,3.591074491,1,0,0,rectangle,-8.409536746,3.591074491,1,0,0,-8.409536746,3.591074491,1,0,0,1,58,218,41,1,,,,,,,,
,,,,,,,,,,,,,FF,,,,,,,,1.4988,,,,,,,,,,,,,,,,,,,,,,60fcd1cab3a2ced3c5c9b2e9,61036e90dfbeb787579eee8b,2021-07-29_20h15.17.321,Simcolourproject_2stim_asymm_v5,2020.2.10,Linux x86_64,60,61025ae37ef11b136ea224fe,,,,,,,,,530,-50.322623,33.43636665,1,0,0,response7disk,,1,-15.42577857,4.696671744,1,0,0,rectangle,-15.42577857,4.696671744,1,0,0,-15.42577857,4.696671744,1,0,0,1,59,219,119,1,,,,,,,,
,,,,,,,,,,,,,FF,,,,,,,,1.1199,,,,,,,,,,,,,,,,,,,,,,60fcd1cab3a2ced3c5c9b2e9,61036e90dfbeb787579eee8b,2021-07-29_20h15.17.321,Simcolourproject_2stim_asymm_v5,2020.2.10,Linux x86_64,60,61025ae37ef11b136ea224fe,,,,,,,,,3514,-32.09205131,43.80147261,1,0,0,response7disk,,0,-4.274668294,6.669764892,1,0,0,rectangle,-4.274668294,6.669764892,1,0,0,-4.274668294,6.669764892,1,0,0,1,60,220,108,1,,,,,,,,
,,,,,,,,,,,,,FF,,,,,,,,1.1551,,,,,,,,,,,,,,,,,,,,,,60fcd1cab3a2ced3c5c9b2e9,61036e90dfbeb787579eee8b,2021-07-29_20h15.17.321,Simcolourproject_2stim_asymm_v5,2020.2.10,Linux x86_64,60,61025ae37ef11b136ea224fe,,,,,,,,,3306,46.78772929,-27.09544918,1,0,0,response3disk,,5,0.660441734,3.903985677,1,0,0,rectangle,0.660441734,3.903985677,1,0,0,0.660441734,3.903985677,1,0,0,1,61,221,157,1,,,,,,,,
,,,,,,,,,,,,,FF,,,,,,,,1.1254,,,,,,,,,,,,,,,,,,,,,,60fcd1cab3a2ced3c5c9b2e9,61036e90dfbeb787579eee8b,2021-07-29_20h15.17.321,Simcolourproject_2stim_asymm_v5,2020.2.10,Linux x86_64,60,61025ae37ef11b136ea224fe,,,,,,,,,3854,55.69739733,33.87551139,1,0,0,response1disk,,6,-0.332388248,-7.399776742,1,0,0,rectangle,-0.332388248,-7.399776742,1,0,0,-0.332388248,-7.399776742,1,0,0,1,62,222,130,1,,,,,,,,
,,,,,,,,,,,,,FF,,,,,,,,0.866,,,,,,,,,,,,,,,,,,,,,,60fcd1cab3a2ced3c5c9b2e9,61036e90dfbeb787579eee8b,2021-07-29_20h15.17.321,Simcolourproject_2stim_asymm_v5,2020.2.10,Linux x86_64,60,61025ae37ef11b136ea224fe,,,,,,,,,2458,41.71520664,-17.65070198,1,0,0,response3disk,,5,9.266732917,8.266444591,1,0,0,rectangle,9.266732917,8.266444591,1,0,0,9.266732917,8.266444591,1,0,0,1,63,223,54,1,,,,,,,,
,,,,,,,,,,,,,FF,,,,,,,,1.1746,,,,,,,,,,,,,,,,,,,,,,60fcd1cab3a2ced3c5c9b2e9,61036e90dfbeb787579eee8b,2021-07-29_20h15.17.321,Simcolourproject_2stim_asymm_v5,2020.2.10,Linux x86_64,60,61025ae37ef11b136ea224fe,,,,,,,,,4228,48.99779304,-38.04662113,1,0,0,response3disk,,5,0.012698103,0.679222084,1,0,0,rectangle,0.012698103,0.679222084,1,0,0,0.012698103,0.679222084,1,0,0,1,64,224,103,1,,,,,,,,
,,,,,,,,,,,,,FF,,,,,,,,1.3008,,,,,,,,,,,,,,,,,,,,,,60fcd1cab3a2ced3c5c9b2e9,61036e90dfbeb787579eee8b,2021-07-29_20h15.17.321,Simcolourproject_2stim_asymm_v5,2020.2.10,Linux x86_64,60,61025ae37ef11b136ea224fe,,,,,,,,,1419,23.0173241,55.52991123,1,0,0,response1disk,,7,-9.37916052,7.269991048,1,0,0,rectangle,-9.37916052,7.269991048,1,0,0,-9.37916052,7.269991048,1,0,0,1,65,225,34,1,,,,,,,,
,,,,,,,,,,,,,FF,,,,,,,,1.0339,,,,,,,,,,,,,,,,,,,,,,60fcd1cab3a2ced3c5c9b2e9,61036e90dfbeb787579eee8b,2021-07-29_20h15.17.321,Simcolourproject_2stim_asymm_v5,2020.2.10,Linux x86_64,60,61025ae37ef11b136ea224fe,,,,,,,,,3410,42.81481602,-16.72836439,1,0,0,response3disk,,5,16.19593219,0.613638202,1,0,0,rectangle,24.50146782,53.06899941,1,0,0,6.888803212,10.72584017,1,0,0,1,66,226,95,1,,response1disk_3,TRUE,7,7,"[185,227,10,310,119,95,16,197,124,49,163,292,218,117,22,113,235,35,131,297]",2.4036,rectangle
,,,,,,,,,,,,,FF,,,,,,,,1.9578,,,,,,,,,,,,,,,,,,,,,,60fcd1cab3a2ced3c5c9b2e9,61036e90dfbeb787579eee8b,2021-07-29_20h15.17.321,Simcolourproject_2stim_asymm_v5,2020.2.10,Linux x86_64,60,61025ae37ef11b136ea224fe,,,,,,,,,301,46.78089335,12.81568393,1,0,0,response1disk,,6,9.630990732,3.661746777,1,0,0,rectangle,9.630990732,3.661746777,1,0,0,9.630990732,3.661746777,1,0,0,1,67,227,158,1,,,,,,,,
,,,,,,,,,,,,,FF,,,,,,,,2.9945,,,,,,,,,,,,,,,,,,,,,,60fcd1cab3a2ced3c5c9b2e9,61036e90dfbeb787579eee8b,2021-07-29_20h15.17.321,Simcolourproject_2stim_asymm_v5,2020.2.10,Linux x86_64,60,61025ae37ef11b136ea224fe,,,,,,,,,918,51.34411296,21.0264673,1,0,0,response1disk,,6,8.788577074,2.535102032,1,0,0,rectangle,8.788577074,2.535102032,1,0,0,8.788577074,2.535102032,1,0,0,1,68,228,87,1,,,,,,,,
,,,,,,,,,,,,,FF,,,,,,,,1.6011,,,,,,,,,,,,,,,,,,,,,,60fcd1cab3a2ced3c5c9b2e9,61036e90dfbeb787579eee8b,2021-07-29_20h15.17.321,Simcolourproject_2stim_asymm_v5,2020.2.10,Linux x86_64,60,61025ae37ef11b136ea224fe,,,,,,,,,881,53.29554184,-25.41031347,1,0,0,response3disk,,5,0.663577014,-0.61127957,1,0,0,rectangle,0.663577014,-0.61127957,1,0,0,0.663577014,-0.61127957,1,0,0,1,69,229,46,1,,,,,,,,
,,,,,,,,,,,,,FF,,,,,,,,0.9341,,,,,,,,,,,,,,,,,,,,,,60fcd1cab3a2ced3c5c9b2e9,61036e90dfbeb787579eee8b,2021-07-29_20h15.17.321,Simcolourproject_2stim_asymm_v5,2020.2.10,Linux x86_64,60,61025ae37ef11b136ea224fe,,,,,,,,,2874,47.59403583,-20.24527437,1,0,0,response3disk,,5,13.9010103,-1.170284509,1,0,0,rectangle,13.9010103,-1.170284509,1,0,0,13.9010103,-1.170284509,1,0,0,1,70,230,80,1,,,,,,,,
,,,,,,,,,,,,,FF,,,,,,,,1.778,,,,,,,,,,,,,,,,,,,,,,60fcd1cab3a2ced3c5c9b2e9,61036e90dfbeb787579eee8b,2021-07-29_20h15.17.321,Simcolourproject_2stim_asymm_v5,2020.2.10,Linux x86_64,60,61025ae37ef11b136ea224fe,,,,,,,,,2595,39.79004215,-23.32954146,1,0,0,response3disk,,5,10.99255016,-9.252778401,1,0,0,rectangle,10.99255016,-9.252778401,1,0,0,10.99255016,-9.252778401,1,0,0,1,71,231,28,1,,,,,,,,
,,,,,,,,,,,,,FF,,,,,,,,1.2239,,,,,,,,,,,,,,,,,,,,,,60fcd1cab3a2ced3c5c9b2e9,61036e90dfbeb787579eee8b,2021-07-29_20h15.17.321,Simcolourproject_2stim_asymm_v5,2020.2.10,Linux x86_64,60,61025ae37ef11b136ea224fe,,,,,,,,,1465,-18.3110325,-51.09863603,1,0,0,response5disk,,3,-4.478384373,-2.045644301,1,0,0,rectangle,-4.478384373,-2.045644301,1,0,0,-4.478384373,-2.045644301,1,0,0,1,72,232,68,1,,,,,,,,
,,,,,,,,,,,,,FF,,,,,,,,0.9529,,,,,,,,,,,,,,,,,,,,,,60fcd1cab3a2ced3c5c9b2e9,61036e90dfbeb787579eee8b,2021-07-29_20h15.17.321,Simcolourproject_2stim_asymm_v5,2020.2.10,Linux x86_64,60,61025ae37ef11b136ea224fe,,,,,,,,,1164,24.92313723,-16.97214523,1,0,0,response3disk,,5,3.607424692,-6.487204778,1,0,0,rectangle,3.607424692,-6.487204778,1,0,0,3.607424692,-6.487204778,1,0,0,1,73,233,128,1,,,,,,,,
,,,,,,,,,,,,,FF,,,,,,,,0.8327,,,,,,,,,,,,,,,,,,,,,,60fcd1cab3a2ced3c5c9b2e9,61036e90dfbeb787579eee8b,2021-07-29_20h15.17.321,Simcolourproject_2stim_asymm_v5,2020.2.10,Linux x86_64,60,61025ae37ef11b136ea224fe,,,,,,,,,3675,-31.11451224,31.65948547,1,0,0,response7disk,,0,-3.992673021,-0.503292316,1,0,0,rectangle,-59.55432537,-27.40548207,1,0,0,-1.298208568,1.938936321,1,0,0,1,74,234,144,1,,response5disk_3,TRUE,2,2,"[185,227,10,310,119,95,16,197,124,49,163,292,218,117,22,113,235,35,131,297]",2.1906,rectangle
,,,,,,,,,,,,,FF,,,,,,,,1.3382,,,,,,,,,,,,,,,,,,,,,,60fcd1cab3a2ced3c5c9b2e9,61036e90dfbeb787579eee8b,2021-07-29_20h15.17.321,Simcolourproject_2stim_asymm_v5,2020.2.10,Linux x86_64,60,61025ae37ef11b136ea224fe,,,,,,,,,2692,44.70410469,-17.83630026,1,0,0,response3disk,,5,0.719729358,2.301909185,1,0,0,rectangle,0.719729358,2.301909185,1,0,0,0.719729358,2.301909185,1,0,0,1,75,235,15,1,,,,,,,,
,,,,,,,,,,,,,FF,,,,,,,,1.837,,,,,,,,,,,,,,,,,,,,,,60fcd1cab3a2ced3c5c9b2e9,61036e90dfbeb787579eee8b,2021-07-29_20h15.17.321,Simcolourproject_2stim_asymm_v5,2020.2.10,Linux x86_64,60,61025ae37ef11b136ea224fe,,,,,,,,,2895,-40.67089595,-18.57509549,1,0,0,response5disk,,2,-1.73522029,-2.879577284,1,0,0,rectangle,-1.73522029,-2.879577284,1,0,0,-1.73522029,-2.879577284,1,0,0,1,76,236,53,1,,,,,,,,
,,,,,,,,,,,,,FF,,,,,,,,1.1816,,,,,,,,,,,,,,,,,,,,,,60fcd1cab3a2ced3c5c9b2e9,61036e90dfbeb787579eee8b,2021-07-29_20h15.17.321,Simcolourproject_2stim_asymm_v5,2020.2.10,Linux x86_64,60,61025ae37ef11b136ea224fe,,,,,,,,,708,51.98998056,28.76826937,1,0,0,response1disk,,6,3.993886455,3.226713879,1,0,0,rectangle,3.993886455,3.226713879,1,0,0,3.993886455,3.226713879,1,0,0,1,77,237,71,1,,,,,,,,
