key_resp.keys,key_resp.rt,key_resp_14.keys,key_resp_14.rt,key_resp_15.keys,key_resp_15.rt,key_resp_17.keys,key_resp_17.rt,key_resp_9.keys,key_resp_9.rt,key_resp_10.keys,key_resp_10.rt,practice_comparison,Ecc,mouse_5.x,mouse_5.y,mouse_5.leftButton,mouse_5.midButton,mouse_5.rightButton,mouse_5.clicked_name,pracsimilarity,response_time,mouse_10.x,mouse_10.y,mouse_10.leftButton,mouse_10.midButton,mouse_10.rightButton,mouse_10.clicked_name,mouse_7.x,mouse_7.y,mouse_7.leftButton,mouse_7.midButton,mouse_7.rightButton,mouse_6.x,mouse_6.y,mouse_6.leftButton,mouse_6.midButton,mouse_6.rightButton,duringprac.thisRepN,duringprac.thisTrialN,duringprac.thisN,duringprac.thisIndex,duringprac.ran,participant,session,date,expName,psychopyVersion,OS,frameRate,study_id,mouse_7.clicked_name,catchpracsimilarity,catch_response_time,catchnumberprac,catchtrialorderprac,mouse_6.clicked_name,key_resp_22.keys,key_resp_22.rt,realcomparison,mouse.x,mouse.y,mouse.leftButton,mouse.midButton,mouse.rightButton,mouse.clicked_name,Colour2,similarity,mouse_2.x,mouse_2.y,mouse_2.leftButton,mouse_2.midButton,mouse_2.rightButton,mouse_2.clicked_name,mouse_3.x,mouse_3.y,mouse_3.leftButton,mouse_3.midButton,mouse_3.rightButton,mouse_11.x,mouse_11.y,mouse_11.leftButton,mouse_11.midButton,mouse_11.rightButton,trials_2.thisRepN,trials_2.thisTrialN,trials_2.thisN,trials_2.thisIndex,trials_2.ran,Colour1,mouse_3.clicked_name,catchornah,catchsimilarity,catchnumber,catchtrialorder,catchRT,mouse_11.clicked_name
space,1.2029,space,14.1547,space,18.7885,space,10.1384,space,1.0337,space,4.0527,96,PF,106.2304688,70.2578125,1,0,0,response1disk_5,6,28.7618,-2.41015625,-6.37109375,1,0,0,rectangle_8,-2.41015625,-6.37109375,1,0,0,-2.41015625,-6.37109375,1,0,0,0,0,0,2,1,60fcde377ed6a23279394b7a,61036bb94c5946437063b14e,2021-07-29_21h08.24.829,Simcolourproject_2stim_asymm_v5,2020.2.10,MacIntel,60,61025ae37ef11b136ea224fe,,,,,,,,,,,,,,,,,,,,,,,,,,,,,,,,,,,,,,,,,,,,,,
,,,,,,,,,,,,159,FF,38.07421875,70.96875,1,0,0,response1disk_5,7,5.7363,-5.3046875,0.33203125,1,0,0,rectangle_8,91.1875,-55.84765625,1,0,0,6.24609375,-5.02734375,1,0,0,0,1,1,3,1,60fcde377ed6a23279394b7a,61036bb94c5946437063b14e,2021-07-29_21h08.24.829,Simcolourproject_2stim_asymm_v5,2020.2.10,MacIntel,60,61025ae37ef11b136ea224fe,response3disk_7,5,2.6355,5,"[2,5]",rectangle_4,,,,,,,,,,,,,,,,,,,,,,,,,,,,,,,,,,,,,,,,
,,,,,,,,,,,,36,PF,-72.56640625,-30.37109375,1,0,0,response5disk_5,2,3.1522,5.07421875,7.4140625,1,0,0,rectangle_8,5.07421875,7.4140625,1,0,0,5.07421875,7.4140625,1,0,0,0,2,2,1,1,60fcde377ed6a23279394b7a,61036bb94c5946437063b14e,2021-07-29_21h08.24.829,Simcolourproject_2stim_asymm_v5,2020.2.10,MacIntel,60,61025ae37ef11b136ea224fe,,,,,,,,,,,,,,,,,,,,,,,,,,,,,,,,,,,,,,,,,,,,,,
,,,,,,,,,,,,51,FF,38.82421875,70.09765625,1,0,0,response1disk_5,7,1.7175,8.7421875,-2.36328125,1,0,0,rectangle_8,8.7421875,-2.36328125,1,0,0,8.7421875,-2.36328125,1,0,0,0,3,3,0,1,60fcde377ed6a23279394b7a,61036bb94c5946437063b14e,2021-07-29_21h08.24.829,Simcolourproject_2stim_asymm_v5,2020.2.10,MacIntel,60,61025ae37ef11b136ea224fe,,,,,,,,,,,,,,,,,,,,,,,,,,,,,,,,,,,,,,,,,,,,,,
,,,,,,,,,,,,157,PF,48.69921875,84.05859375,1,0,0,response1disk_5,7,1.2509,16.109375,-9.70703125,1,0,0,rectangle_8,62.51171875,-42.55859375,1,0,0,-14.44921875,-2.19140625,1,0,0,0,4,4,6,1,60fcde377ed6a23279394b7a,61036bb94c5946437063b14e,2021-07-29_21h08.24.829,Simcolourproject_2stim_asymm_v5,2020.2.10,MacIntel,60,61025ae37ef11b136ea224fe,response3disk_7,5,2.6677,5,"[2,5]",rectangle_4,,,,,,,,,,,,,,,,,,,,,,,,,,,,,,,,,,,,,,,,
,,,,,,,,,,,,17,PF,42.3125,-74.6953125,1,0,0,response3disk_5,4,1.4169,2.55078125,4.09765625,1,0,0,rectangle_8,2.55078125,4.09765625,1,0,0,2.55078125,4.09765625,1,0,0,0,5,5,4,1,60fcde377ed6a23279394b7a,61036bb94c5946437063b14e,2021-07-29_21h08.24.829,Simcolourproject_2stim_asymm_v5,2020.2.10,MacIntel,60,61025ae37ef11b136ea224fe,,,,,,,,,,,,,,,,,,,,,,,,,,,,,,,,,,,,,,,,,,,,,,
,,,,,,,,,,,,109,FF,67.32421875,-36.81640625,1,0,0,response3disk_5,5,1.8509,0.90625,-8.63671875,1,0,0,rectangle_8,0.90625,-8.63671875,1,0,0,0.90625,-8.63671875,1,0,0,0,6,6,5,1,60fcde377ed6a23279394b7a,61036bb94c5946437063b14e,2021-07-29_21h08.24.829,Simcolourproject_2stim_asymm_v5,2020.2.10,MacIntel,60,61025ae37ef11b136ea224fe,,,,,,,,,,,,,,,,,,,,,,,,,,,,,,,,,,,,,,,,,,,,,,
,,,,,,,,,,,,,FF,,,,,,,,5.3683,,,,,,,,,,,,,,,,,,,,,,60fcde377ed6a23279394b7a,61036bb94c5946437063b14e,2021-07-29_21h08.24.829,Simcolourproject_2stim_asymm_v5,2020.2.10,MacIntel,60,61025ae37ef11b136ea224fe,,,,,,,space,2.7436,3074,93.33984375,48.76953125,1,0,0,response1disk,,6,5.328125,-3.53125,1,0,0,rectangle,5.328125,-3.53125,1,0,0,5.328125,-3.53125,1,0,0,0,0,0,53,1,,,,,,,,
,,,,,,,,,,,,,FF,,,,,,,,1.0009,,,,,,,,,,,,,,,,,,,,,,60fcde377ed6a23279394b7a,61036bb94c5946437063b14e,2021-07-29_21h08.24.829,Simcolourproject_2stim_asymm_v5,2020.2.10,MacIntel,60,61025ae37ef11b136ea224fe,,,,,,,,,3058,28.59765625,53.421875,1,0,0,response1disk,,7,14.41796875,-2.3359375,1,0,0,rectangle,14.41796875,-2.3359375,1,0,0,14.41796875,-2.3359375,1,0,0,0,1,1,1,1,,,,,,,,
,,,,,,,,,,,,,FF,,,,,,,,2.4342,,,,,,,,,,,,,,,,,,,,,,60fcde377ed6a23279394b7a,61036bb94c5946437063b14e,2021-07-29_21h08.24.829,Simcolourproject_2stim_asymm_v5,2020.2.10,MacIntel,60,61025ae37ef11b136ea224fe,,,,,,,,,3527,35.48046875,-74.97265625,1,0,0,response3disk,,4,15.51953125,-5.00390625,1,0,0,rectangle,15.51953125,-5.00390625,1,0,0,15.51953125,-5.00390625,1,0,0,0,2,2,17,1,,,,,,,,
,,,,,,,,,,,,,FF,,,,,,,,3.1342,,,,,,,,,,,,,,,,,,,,,,60fcde377ed6a23279394b7a,61036bb94c5946437063b14e,2021-07-29_21h08.24.829,Simcolourproject_2stim_asymm_v5,2020.2.10,MacIntel,60,61025ae37ef11b136ea224fe,,,,,,,,,482,-77.83984375,35.2109375,1,0,0,response7disk,,1,-13.43359375,-6.71484375,1,0,0,rectangle,-13.43359375,-6.71484375,1,0,0,-13.43359375,-6.71484375,1,0,0,0,3,3,121,1,,,,,,,,
,,,,,,,,,,,,,FF,,,,,,,,4.8189,,,,,,,,,,,,,,,,,,,,,,60fcde377ed6a23279394b7a,61036bb94c5946437063b14e,2021-07-29_21h08.24.829,Simcolourproject_2stim_asymm_v5,2020.2.10,MacIntel,60,61025ae37ef11b136ea224fe,,,,,,,,,3033,68.5546875,-31.5703125,1,0,0,response3disk,,5,1.703125,5.30859375,1,0,0,rectangle,1.703125,5.30859375,1,0,0,1.703125,5.30859375,1,0,0,0,4,4,55,1,,,,,,,,
,,,,,,,,,,,,,FF,,,,,,,,1.3176,,,,,,,,,,,,,,,,,,,,,,60fcde377ed6a23279394b7a,61036bb94c5946437063b14e,2021-07-29_21h08.24.829,Simcolourproject_2stim_asymm_v5,2020.2.10,MacIntel,60,61025ae37ef11b136ea224fe,,,,,,,,,1218,-71.90625,-30.63671875,1,0,0,response5disk,,2,-11.88671875,1.7109375,1,0,0,rectangle,-11.88671875,1.7109375,1,0,0,-11.88671875,1.7109375,1,0,0,0,5,5,146,1,,,,,,,,
,,,,,,,,,,,,,FF,,,,,,,,5.2863,,,,,,,,,,,,,,,,,,,,,,60fcde377ed6a23279394b7a,61036bb94c5946437063b14e,2021-07-29_21h08.24.829,Simcolourproject_2stim_asymm_v5,2020.2.10,MacIntel,60,61025ae37ef11b136ea224fe,,,,,,,,,2036,34.56640625,-65.84375,1,0,0,response3disk,,4,9.0859375,-8.8515625,1,0,0,rectangle,9.0859375,-8.8515625,1,0,0,9.0859375,-8.8515625,1,0,0,0,6,6,158,1,,,,,,,,
,,,,,,,,,,,,,FF,,,,,,,,1.1841,,,,,,,,,,,,,,,,,,,,,,60fcde377ed6a23279394b7a,61036bb94c5946437063b14e,2021-07-29_21h08.24.829,Simcolourproject_2stim_asymm_v5,2020.2.10,MacIntel,60,61025ae37ef11b136ea224fe,,,,,,,,,2812,86.21875,44.734375,1,0,0,response1disk,,6,12.0078125,5.0546875,1,0,0,rectangle,12.0078125,5.0546875,1,0,0,12.0078125,5.0546875,1,0,0,0,7,7,125,1,,,,,,,,
,,,,,,,,,,,,,FF,,,,,,,,5.1022,,,,,,,,,,,,,,,,,,,,,,60fcde377ed6a23279394b7a,61036bb94c5946437063b14e,2021-07-29_21h08.24.829,Simcolourproject_2stim_asymm_v5,2020.2.10,MacIntel,60,61025ae37ef11b136ea224fe,,,,,,,,,2015,44.0234375,-82.76171875,1,0,0,response3disk,,4,6.02734375,8.6796875,1,0,0,rectangle,6.02734375,8.6796875,1,0,0,6.02734375,8.6796875,1,0,0,0,8,8,39,1,,,,,,,,
,,,,,,,,,,,,,FF,,,,,,,,1.5173,,,,,,,,,,,,,,,,,,,,,,60fcde377ed6a23279394b7a,61036bb94c5946437063b14e,2021-07-29_21h08.24.829,Simcolourproject_2stim_asymm_v5,2020.2.10,MacIntel,60,61025ae37ef11b136ea224fe,,,,,,,,,1829,-46.37109375,-78.6171875,1,0,0,response5disk,,3,-12.45703125,-5.58984375,1,0,0,rectangle,-12.45703125,-5.58984375,1,0,0,-12.45703125,-5.58984375,1,0,0,0,9,9,104,1,,,,,,,,
,,,,,,,,,,,,,FF,,,,,,,,0.9838,,,,,,,,,,,,,,,,,,,,,,60fcde377ed6a23279394b7a,61036bb94c5946437063b14e,2021-07-29_21h08.24.829,Simcolourproject_2stim_asymm_v5,2020.2.10,MacIntel,60,61025ae37ef11b136ea224fe,,,,,,,,,4146,-62.2578125,40.78125,1,0,0,response7disk,,1,3.69140625,4.71484375,1,0,0,rectangle,3.69140625,4.71484375,1,0,0,3.69140625,4.71484375,1,0,0,0,10,10,63,1,,,,,,,,
,,,,,,,,,,,,,FF,,,,,,,,1.1007,,,,,,,,,,,,,,,,,,,,,,60fcde377ed6a23279394b7a,61036bb94c5946437063b14e,2021-07-29_21h08.24.829,Simcolourproject_2stim_asymm_v5,2020.2.10,MacIntel,60,61025ae37ef11b136ea224fe,,,,,,,,,1689,80.48828125,-29.1015625,1,0,0,response3disk,,5,27.03125,-4.11328125,1,0,0,rectangle,27.03125,-4.11328125,1,0,0,27.03125,-4.11328125,1,0,0,0,11,11,95,1,,,,,,,,
,,,,,,,,,,,,,FF,,,,,,,,1.0336,,,,,,,,,,,,,,,,,,,,,,60fcde377ed6a23279394b7a,61036bb94c5946437063b14e,2021-07-29_21h08.24.829,Simcolourproject_2stim_asymm_v5,2020.2.10,MacIntel,60,61025ae37ef11b136ea224fe,,,,,,,,,2635,83.3125,36.23828125,1,0,0,response1disk,,6,4.4609375,-0.39453125,1,0,0,rectangle,4.4609375,-0.39453125,1,0,0,4.4609375,-0.39453125,1,0,0,0,12,12,140,1,,,,,,,,
,,,,,,,,,,,,,FF,,,,,,,,0.7665,,,,,,,,,,,,,,,,,,,,,,60fcde377ed6a23279394b7a,61036bb94c5946437063b14e,2021-07-29_21h08.24.829,Simcolourproject_2stim_asymm_v5,2020.2.10,MacIntel,60,61025ae37ef11b136ea224fe,,,,,,,,,673,82.94921875,35.50390625,1,0,0,response1disk,,6,14.53125,-2.31640625,1,0,0,rectangle,39.0390625,91.87109375,1,0,0,7.62890625,12.0078125,1,0,0,0,13,13,112,1,,response1disk_3,TRUE,7,7,"[268,276,143,162,78,314,217,194,99,125,262,255,296,48,261,258,14,248,134,137]",1.8511,rectangle
,,,,,,,,,,,,,FF,,,,,,,,0.9521,,,,,,,,,,,,,,,,,,,,,,60fcde377ed6a23279394b7a,61036bb94c5946437063b14e,2021-07-29_21h08.24.829,Simcolourproject_2stim_asymm_v5,2020.2.10,MacIntel,60,61025ae37ef11b136ea224fe,,,,,,,,,4367,-63.9296875,26.4375,1,0,0,response7disk,,1,-16.79296875,-5.0625,1,0,0,rectangle,-16.79296875,-5.0625,1,0,0,-16.79296875,-5.0625,1,0,0,0,14,14,47,1,,,,,,,,
,,,,,,,,,,,,,FF,,,,,,,,3.9185,,,,,,,,,,,,,,,,,,,,,,60fcde377ed6a23279394b7a,61036bb94c5946437063b14e,2021-07-29_21h08.24.829,Simcolourproject_2stim_asymm_v5,2020.2.10,MacIntel,60,61025ae37ef11b136ea224fe,,,,,,,,,1096,59.4140625,-38.90625,1,0,0,response3disk,,5,5.34375,-6.25,1,0,0,rectangle,5.34375,-6.25,1,0,0,5.34375,-6.25,1,0,0,0,15,15,81,1,,,,,,,,
,,,,,,,,,,,,,FF,,,,,,,,0.8831,,,,,,,,,,,,,,,,,,,,,,60fcde377ed6a23279394b7a,61036bb94c5946437063b14e,2021-07-29_21h08.24.829,Simcolourproject_2stim_asymm_v5,2020.2.10,MacIntel,60,61025ae37ef11b136ea224fe,,,,,,,,,253,-31.65625,-80.43359375,1,0,0,response5disk,,3,-11.76953125,1.74609375,1,0,0,rectangle,-11.76953125,1.74609375,1,0,0,-11.76953125,1.74609375,1,0,0,0,16,16,75,1,,,,,,,,
,,,,,,,,,,,,,FF,,,,,,,,1.1851,,,,,,,,,,,,,,,,,,,,,,60fcde377ed6a23279394b7a,61036bb94c5946437063b14e,2021-07-29_21h08.24.829,Simcolourproject_2stim_asymm_v5,2020.2.10,MacIntel,60,61025ae37ef11b136ea224fe,,,,,,,,,3484,60.41796875,-73.5390625,1,0,0,response3disk,,4,1.9765625,8.046875,1,0,0,rectangle,1.9765625,8.046875,1,0,0,1.9765625,8.046875,1,0,0,0,17,17,70,1,,,,,,,,
,,,,,,,,,,,,,FF,,,,,,,,0.8832,,,,,,,,,,,,,,,,,,,,,,60fcde377ed6a23279394b7a,61036bb94c5946437063b14e,2021-07-29_21h08.24.829,Simcolourproject_2stim_asymm_v5,2020.2.10,MacIntel,60,61025ae37ef11b136ea224fe,,,,,,,,,4026,49.19921875,-74.1953125,1,0,0,response3disk,,4,18.859375,-11.5625,1,0,0,rectangle,18.859375,-11.5625,1,0,0,18.859375,-11.5625,1,0,0,0,18,18,52,1,,,,,,,,
,,,,,,,,,,,,,FF,,,,,,,,0.8344,,,,,,,,,,,,,,,,,,,,,,60fcde377ed6a23279394b7a,61036bb94c5946437063b14e,2021-07-29_21h08.24.829,Simcolourproject_2stim_asymm_v5,2020.2.10,MacIntel,60,61025ae37ef11b136ea224fe,,,,,,,,,3019,80.37109375,48.92578125,1,0,0,response1disk,,6,7.29296875,14.953125,1,0,0,rectangle,7.29296875,14.953125,1,0,0,7.29296875,14.953125,1,0,0,0,19,19,159,1,,,,,,,,
,,,,,,,,,,,,,FF,,,,,,,,0.7337,,,,,,,,,,,,,,,,,,,,,,60fcde377ed6a23279394b7a,61036bb94c5946437063b14e,2021-07-29_21h08.24.829,Simcolourproject_2stim_asymm_v5,2020.2.10,MacIntel,60,61025ae37ef11b136ea224fe,,,,,,,,,3178,76.34765625,25.45703125,1,0,0,response1disk,,6,7.26953125,-2.09765625,1,0,0,rectangle,7.26953125,-2.09765625,1,0,0,7.26953125,-2.09765625,1,0,0,0,20,20,41,1,,,,,,,,
,,,,,,,,,,,,,FF,,,,,,,,1.5347,,,,,,,,,,,,,,,,,,,,,,60fcde377ed6a23279394b7a,61036bb94c5946437063b14e,2021-07-29_21h08.24.829,Simcolourproject_2stim_asymm_v5,2020.2.10,MacIntel,60,61025ae37ef11b136ea224fe,,,,,,,,,3687,82.8359375,36.80859375,1,0,0,response1disk,,6,0.0078125,-11.234375,1,0,0,rectangle,0.0078125,-11.234375,1,0,0,0.0078125,-11.234375,1,0,0,0,21,21,102,1,,,,,,,,
,,,,,,,,,,,,,FF,,,,,,,,0.9831,,,,,,,,,,,,,,,,,,,,,,60fcde377ed6a23279394b7a,61036bb94c5946437063b14e,2021-07-29_21h08.24.829,Simcolourproject_2stim_asymm_v5,2020.2.10,MacIntel,60,61025ae37ef11b136ea224fe,,,,,,,,,3696,40.8359375,93.83984375,1,0,0,response1disk,,7,-12.1328125,-1.3125,1,0,0,rectangle,-12.1328125,-1.3125,1,0,0,-12.1328125,-1.3125,1,0,0,0,22,22,9,1,,,,,,,,
,,,,,,,,,,,,,FF,,,,,,,,1.0004,,,,,,,,,,,,,,,,,,,,,,60fcde377ed6a23279394b7a,61036bb94c5946437063b14e,2021-07-29_21h08.24.829,Simcolourproject_2stim_asymm_v5,2020.2.10,MacIntel,60,61025ae37ef11b136ea224fe,,,,,,,,,2993,-39.90234375,85.1484375,1,0,0,response7disk,,0,-11.4921875,4.89453125,1,0,0,rectangle,-11.4921875,4.89453125,1,0,0,-11.4921875,4.89453125,1,0,0,0,23,23,115,1,,,,,,,,
,,,,,,,,,,,,,FF,,,,,,,,1.2503,,,,,,,,,,,,,,,,,,,,,,60fcde377ed6a23279394b7a,61036bb94c5946437063b14e,2021-07-29_21h08.24.829,Simcolourproject_2stim_asymm_v5,2020.2.10,MacIntel,60,61025ae37ef11b136ea224fe,,,,,,,,,2378,-42.15234375,-60.08984375,1,0,0,response5disk,,3,-15.3046875,10.65234375,1,0,0,rectangle,-15.3046875,10.65234375,1,0,0,-15.3046875,10.65234375,1,0,0,0,24,24,7,1,,,,,,,,
,,,,,,,,,,,,,FF,,,,,,,,1.6009,,,,,,,,,,,,,,,,,,,,,,60fcde377ed6a23279394b7a,61036bb94c5946437063b14e,2021-07-29_21h08.24.829,Simcolourproject_2stim_asymm_v5,2020.2.10,MacIntel,60,61025ae37ef11b136ea224fe,,,,,,,,,4194,75.5703125,-51.89453125,1,0,0,response3disk,,5,11.30859375,-2.70703125,1,0,0,rectangle,11.30859375,-2.70703125,1,0,0,11.30859375,-2.70703125,1,0,0,0,25,25,80,1,,,,,,,,
,,,,,,,,,,,,,FF,,,,,,,,1.0175,,,,,,,,,,,,,,,,,,,,,,60fcde377ed6a23279394b7a,61036bb94c5946437063b14e,2021-07-29_21h08.24.829,Simcolourproject_2stim_asymm_v5,2020.2.10,MacIntel,60,61025ae37ef11b136ea224fe,,,,,,,,,3101,-78.02734375,-32.8046875,1,0,0,response5disk,,2,-15.40234375,-2.21875,1,0,0,rectangle,-15.40234375,-2.21875,1,0,0,-15.40234375,-2.21875,1,0,0,0,26,26,135,1,,,,,,,,
,,,,,,,,,,,,,FF,,,,,,,,1.4007,,,,,,,,,,,,,,,,,,,,,,60fcde377ed6a23279394b7a,61036bb94c5946437063b14e,2021-07-29_21h08.24.829,Simcolourproject_2stim_asymm_v5,2020.2.10,MacIntel,60,61025ae37ef11b136ea224fe,,,,,,,,,1857,71.91015625,45.75390625,1,0,0,response1disk,,6,2.97265625,-1.671875,1,0,0,rectangle,2.97265625,-1.671875,1,0,0,2.97265625,-1.671875,1,0,0,0,27,27,123,1,,,,,,,,
,,,,,,,,,,,,,FF,,,,,,,,0.7348,,,,,,,,,,,,,,,,,,,,,,60fcde377ed6a23279394b7a,61036bb94c5946437063b14e,2021-07-29_21h08.24.829,Simcolourproject_2stim_asymm_v5,2020.2.10,MacIntel,60,61025ae37ef11b136ea224fe,,,,,,,,,1859,87.14453125,35.95703125,1,0,0,response1disk,,6,8.7578125,7.0625,1,0,0,rectangle,8.7578125,7.0625,1,0,0,8.7578125,7.0625,1,0,0,0,28,28,24,1,,,,,,,,
,,,,,,,,,,,,,FF,,,,,,,,0.8658,,,,,,,,,,,,,,,,,,,,,,60fcde377ed6a23279394b7a,61036bb94c5946437063b14e,2021-07-29_21h08.24.829,Simcolourproject_2stim_asymm_v5,2020.2.10,MacIntel,60,61025ae37ef11b136ea224fe,,,,,,,,,3090,-87.59375,-40.08203125,1,0,0,response5disk,,2,-23.09375,-5.36328125,1,0,0,rectangle,-23.09375,-5.36328125,1,0,0,-23.09375,-5.36328125,1,0,0,0,29,29,68,1,,,,,,,,
,,,,,,,,,,,,,FF,,,,,,,,0.7842,,,,,,,,,,,,,,,,,,,,,,60fcde377ed6a23279394b7a,61036bb94c5946437063b14e,2021-07-29_21h08.24.829,Simcolourproject_2stim_asymm_v5,2020.2.10,MacIntel,60,61025ae37ef11b136ea224fe,,,,,,,,,1387,-53.125,-97.05859375,1,0,0,response5disk,,3,-0.55078125,-0.0703125,1,0,0,rectangle,-0.55078125,-0.0703125,1,0,0,-0.55078125,-0.0703125,1,0,0,0,30,30,113,1,,,,,,,,
,,,,,,,,,,,,,FF,,,,,,,,1.4015,,,,,,,,,,,,,,,,,,,,,,60fcde377ed6a23279394b7a,61036bb94c5946437063b14e,2021-07-29_21h08.24.829,Simcolourproject_2stim_asymm_v5,2020.2.10,MacIntel,60,61025ae37ef11b136ea224fe,,,,,,,,,2950,84.484375,-37.11328125,1,0,0,response3disk,,5,-2.4375,-7.01171875,1,0,0,rectangle,-2.4375,-7.01171875,1,0,0,-2.4375,-7.01171875,1,0,0,0,31,31,15,1,,,,,,,,
,,,,,,,,,,,,,FF,,,,,,,,0.7503,,,,,,,,,,,,,,,,,,,,,,60fcde377ed6a23279394b7a,61036bb94c5946437063b14e,2021-07-29_21h08.24.829,Simcolourproject_2stim_asymm_v5,2020.2.10,MacIntel,60,61025ae37ef11b136ea224fe,,,,,,,,,1197,68.65234375,-49.84375,1,0,0,response3disk,,5,0.6484375,-4.5390625,1,0,0,rectangle,0.6484375,-4.5390625,1,0,0,0.6484375,-4.5390625,1,0,0,0,32,32,138,1,,,,,,,,
,,,,,,,,,,,,,FF,,,,,,,,1.0013,,,,,,,,,,,,,,,,,,,,,,60fcde377ed6a23279394b7a,61036bb94c5946437063b14e,2021-07-29_21h08.24.829,Simcolourproject_2stim_asymm_v5,2020.2.10,MacIntel,60,61025ae37ef11b136ea224fe,,,,,,,,,3538,40.62109375,79.984375,1,0,0,response1disk,,7,17.74609375,10.37109375,1,0,0,rectangle,17.74609375,10.37109375,1,0,0,17.74609375,10.37109375,1,0,0,0,33,33,83,1,,,,,,,,
,,,,,,,,,,,,,FF,,,,,,,,0.9837,,,,,,,,,,,,,,,,,,,,,,60fcde377ed6a23279394b7a,61036bb94c5946437063b14e,2021-07-29_21h08.24.829,Simcolourproject_2stim_asymm_v5,2020.2.10,MacIntel,60,61025ae37ef11b136ea224fe,,,,,,,,,4177,36.453125,79.84375,1,0,0,response1disk,,7,6.546875,-0.01171875,1,0,0,rectangle,6.546875,-0.01171875,1,0,0,6.546875,-0.01171875,1,0,0,0,34,34,108,1,,,,,,,,
,,,,,,,,,,,,,FF,,,,,,,,1.5848,,,,,,,,,,,,,,,,,,,,,,60fcde377ed6a23279394b7a,61036bb94c5946437063b14e,2021-07-29_21h08.24.829,Simcolourproject_2stim_asymm_v5,2020.2.10,MacIntel,60,61025ae37ef11b136ea224fe,,,,,,,,,2682,49.75,94.875,1,0,0,response1disk,,7,13.94140625,-0.52734375,1,0,0,rectangle,13.94140625,-0.52734375,1,0,0,13.94140625,-0.52734375,1,0,0,0,35,35,67,1,,,,,,,,
,,,,,,,,,,,,,FF,,,,,,,,1.3339,,,,,,,,,,,,,,,,,,,,,,60fcde377ed6a23279394b7a,61036bb94c5946437063b14e,2021-07-29_21h08.24.829,Simcolourproject_2stim_asymm_v5,2020.2.10,MacIntel,60,61025ae37ef11b136ea224fe,,,,,,,,,3917,-35.73046875,-93.203125,1,0,0,response5disk,,3,-13.13671875,-0.75,1,0,0,rectangle,-13.13671875,-0.75,1,0,0,-13.13671875,-0.75,1,0,0,0,36,36,119,1,,,,,,,,
,,,,,,,,,,,,,FF,,,,,,,,1.6669,,,,,,,,,,,,,,,,,,,,,,60fcde377ed6a23279394b7a,61036bb94c5946437063b14e,2021-07-29_21h08.24.829,Simcolourproject_2stim_asymm_v5,2020.2.10,MacIntel,60,61025ae37ef11b136ea224fe,,,,,,,,,3955,67.33203125,27.5859375,1,0,0,response1disk,,6,5.55078125,11.45703125,1,0,0,rectangle,5.55078125,11.45703125,1,0,0,5.55078125,11.45703125,1,0,0,0,37,37,61,1,,,,,,,,
,,,,,,,,,,,,,FF,,,,,,,,1.2677,,,,,,,,,,,,,,,,,,,,,,60fcde377ed6a23279394b7a,61036bb94c5946437063b14e,2021-07-29_21h08.24.829,Simcolourproject_2stim_asymm_v5,2020.2.10,MacIntel,60,61025ae37ef11b136ea224fe,,,,,,,,,1633,88.703125,37.703125,1,0,0,response1disk,,6,6.29296875,1.10546875,1,0,0,rectangle,6.29296875,1.10546875,1,0,0,6.29296875,1.10546875,1,0,0,0,38,38,87,1,,,,,,,,
,,,,,,,,,,,,,FF,,,,,,,,1.1335,,,,,,,,,,,,,,,,,,,,,,60fcde377ed6a23279394b7a,61036bb94c5946437063b14e,2021-07-29_21h08.24.829,Simcolourproject_2stim_asymm_v5,2020.2.10,MacIntel,60,61025ae37ef11b136ea224fe,,,,,,,,,2192,53.0859375,83.578125,1,0,0,response1disk,,7,17.66015625,1.265625,1,0,0,rectangle,17.66015625,1.265625,1,0,0,17.66015625,1.265625,1,0,0,0,39,39,19,1,,,,,,,,
,,,,,,,,,,,,,FF,,,,,,,,1.4333,,,,,,,,,,,,,,,,,,,,,,60fcde377ed6a23279394b7a,61036bb94c5946437063b14e,2021-07-29_21h08.24.829,Simcolourproject_2stim_asymm_v5,2020.2.10,MacIntel,60,61025ae37ef11b136ea224fe,,,,,,,,,577,25.453125,-80.0546875,1,0,0,response3disk,,4,19.85546875,1.33203125,1,0,0,rectangle,19.85546875,1.33203125,1,0,0,19.85546875,1.33203125,1,0,0,0,40,40,62,1,,,,,,,,
,,,,,,,,,,,,,FF,,,,,,,,2.1676,,,,,,,,,,,,,,,,,,,,,,60fcde377ed6a23279394b7a,61036bb94c5946437063b14e,2021-07-29_21h08.24.829,Simcolourproject_2stim_asymm_v5,2020.2.10,MacIntel,60,61025ae37ef11b136ea224fe,,,,,,,,,4003,44.40625,-75.46484375,1,0,0,response3disk,,4,12.30859375,10.85546875,1,0,0,rectangle,12.30859375,10.85546875,1,0,0,12.30859375,10.85546875,1,0,0,0,41,41,151,1,,,,,,,,
,,,,,,,,,,,,,FF,,,,,,,,0.8169,,,,,,,,,,,,,,,,,,,,,,60fcde377ed6a23279394b7a,61036bb94c5946437063b14e,2021-07-29_21h08.24.829,Simcolourproject_2stim_asymm_v5,2020.2.10,MacIntel,60,61025ae37ef11b136ea224fe,,,,,,,,,1212,-72.61328125,-37.55078125,1,0,0,response5disk,,2,-13.1953125,3.23828125,1,0,0,rectangle,-13.1953125,3.23828125,1,0,0,-13.1953125,3.23828125,1,0,0,0,42,42,25,1,,,,,,,,
,,,,,,,,,,,,,FF,,,,,,,,1.0339,,,,,,,,,,,,,,,,,,,,,,60fcde377ed6a23279394b7a,61036bb94c5946437063b14e,2021-07-29_21h08.24.829,Simcolourproject_2stim_asymm_v5,2020.2.10,MacIntel,60,61025ae37ef11b136ea224fe,,,,,,,,,2394,39.03515625,-68.71875,1,0,0,response3disk,,4,17.34765625,3.50390625,1,0,0,rectangle,17.34765625,3.50390625,1,0,0,17.34765625,3.50390625,1,0,0,0,43,43,20,1,,,,,,,,
,,,,,,,,,,,,,FF,,,,,,,,1.5326,,,,,,,,,,,,,,,,,,,,,,60fcde377ed6a23279394b7a,61036bb94c5946437063b14e,2021-07-29_21h08.24.829,Simcolourproject_2stim_asymm_v5,2020.2.10,MacIntel,60,61025ae37ef11b136ea224fe,,,,,,,,,222,40.40625,-73.40625,1,0,0,response3disk,,4,22.84375,-1.4140625,1,0,0,rectangle,22.84375,-1.4140625,1,0,0,22.84375,-1.4140625,1,0,0,0,44,44,127,1,,,,,,,,
,,,,,,,,,,,,,FF,,,,,,,,1.2513,,,,,,,,,,,,,,,,,,,,,,60fcde377ed6a23279394b7a,61036bb94c5946437063b14e,2021-07-29_21h08.24.829,Simcolourproject_2stim_asymm_v5,2020.2.10,MacIntel,60,61025ae37ef11b136ea224fe,,,,,,,,,2904,78.5625,22.046875,1,0,0,response1disk,,6,19.8515625,6.4765625,1,0,0,rectangle,19.8515625,6.4765625,1,0,0,19.8515625,6.4765625,1,0,0,0,45,45,82,1,,,,,,,,
,,,,,,,,,,,,,FF,,,,,,,,3.3191,,,,,,,,,,,,,,,,,,,,,,60fcde377ed6a23279394b7a,61036bb94c5946437063b14e,2021-07-29_21h08.24.829,Simcolourproject_2stim_asymm_v5,2020.2.10,MacIntel,60,61025ae37ef11b136ea224fe,,,,,,,,,1200,-22.27734375,-86.62890625,1,0,0,response5disk,,3,-15.171875,1.36328125,1,0,0,rectangle,-15.171875,1.36328125,1,0,0,-15.171875,1.36328125,1,0,0,0,46,46,21,1,,,,,,,,
,,,,,,,,,,,,,FF,,,,,,,,1.3849,,,,,,,,,,,,,,,,,,,,,,60fcde377ed6a23279394b7a,61036bb94c5946437063b14e,2021-07-29_21h08.24.829,Simcolourproject_2stim_asymm_v5,2020.2.10,MacIntel,60,61025ae37ef11b136ea224fe,,,,,,,,,3634,28.375,-69.15234375,1,0,0,response3disk,,4,11.0390625,-6.86328125,1,0,0,rectangle,-78.3359375,41.2109375,1,0,0,-15.046875,1.2421875,1,0,0,0,47,47,72,1,,response7disk_3,TRUE,1,1,"[268,276,143,162,78,314,217,194,99,125,262,255,296,48,261,258,14,248,134,137]",1.5186,rectangle
,,,,,,,,,,,,,FF,,,,,,,,1.9999,,,,,,,,,,,,,,,,,,,,,,60fcde377ed6a23279394b7a,61036bb94c5946437063b14e,2021-07-29_21h08.24.829,Simcolourproject_2stim_asymm_v5,2020.2.10,MacIntel,60,61025ae37ef11b136ea224fe,,,,,,,,,988,-35.18359375,-73.609375,1,0,0,response5disk,,3,-11.22265625,1.0859375,1,0,0,rectangle,-11.22265625,1.0859375,1,0,0,-11.22265625,1.0859375,1,0,0,0,48,48,145,1,,,,,,,,
,,,,,,,,,,,,,FF,,,,,,,,1.334,,,,,,,,,,,,,,,,,,,,,,60fcde377ed6a23279394b7a,61036bb94c5946437063b14e,2021-07-29_21h08.24.829,Simcolourproject_2stim_asymm_v5,2020.2.10,MacIntel,60,61025ae37ef11b136ea224fe,,,,,,,,,2474,62.87890625,-83.55859375,1,0,0,response3disk,,4,2.6953125,5.5859375,1,0,0,rectangle,2.6953125,5.5859375,1,0,0,2.6953125,5.5859375,1,0,0,0,49,49,54,1,,,,,,,,
,,,,,,,,,,,,,FF,,,,,,,,0.8163,,,,,,,,,,,,,,,,,,,,,,60fcde377ed6a23279394b7a,61036bb94c5946437063b14e,2021-07-29_21h08.24.829,Simcolourproject_2stim_asymm_v5,2020.2.10,MacIntel,60,61025ae37ef11b136ea224fe,,,,,,,,,2245,54.2265625,-84.80078125,1,0,0,response3disk,,4,12.74609375,-2.51953125,1,0,0,rectangle,12.74609375,-2.51953125,1,0,0,12.74609375,-2.51953125,1,0,0,0,50,50,101,1,,,,,,,,
,,,,,,,,,,,,,FF,,,,,,,,0.7833,,,,,,,,,,,,,,,,,,,,,,60fcde377ed6a23279394b7a,61036bb94c5946437063b14e,2021-07-29_21h08.24.829,Simcolourproject_2stim_asymm_v5,2020.2.10,MacIntel,60,61025ae37ef11b136ea224fe,,,,,,,,,1477,66.81640625,41.875,1,0,0,response1disk,,6,11.67578125,-2.80078125,1,0,0,rectangle,11.67578125,-2.80078125,1,0,0,11.67578125,-2.80078125,1,0,0,0,51,51,71,1,,,,,,,,
,,,,,,,,,,,,,FF,,,,,,,,1.5831,,,,,,,,,,,,,,,,,,,,,,60fcde377ed6a23279394b7a,61036bb94c5946437063b14e,2021-07-29_21h08.24.829,Simcolourproject_2stim_asymm_v5,2020.2.10,MacIntel,60,61025ae37ef11b136ea224fe,,,,,,,,,2800,67.01171875,-34.21875,1,0,0,response3disk,,5,3.8671875,5.96484375,1,0,0,rectangle,3.8671875,5.96484375,1,0,0,3.8671875,5.96484375,1,0,0,0,52,52,97,1,,,,,,,,
,,,,,,,,,,,,,FF,,,,,,,,0.8177,,,,,,,,,,,,,,,,,,,,,,60fcde377ed6a23279394b7a,61036bb94c5946437063b14e,2021-07-29_21h08.24.829,Simcolourproject_2stim_asymm_v5,2020.2.10,MacIntel,60,61025ae37ef11b136ea224fe,,,,,,,,,2920,87.6015625,-40.02734375,1,0,0,response3disk,,5,18.59765625,-3.42578125,1,0,0,rectangle,18.59765625,-3.42578125,1,0,0,18.59765625,-3.42578125,1,0,0,0,53,53,153,1,,,,,,,,
,,,,,,,,,,,,,FF,,,,,,,,1.5338,,,,,,,,,,,,,,,,,,,,,,60fcde377ed6a23279394b7a,61036bb94c5946437063b14e,2021-07-29_21h08.24.829,Simcolourproject_2stim_asymm_v5,2020.2.10,MacIntel,60,61025ae37ef11b136ea224fe,,,,,,,,,4082,49.74609375,88.94921875,1,0,0,response1disk,,7,10.796875,2.33203125,1,0,0,rectangle,10.796875,2.33203125,1,0,0,10.796875,2.33203125,1,0,0,0,54,54,33,1,,,,,,,,
,,,,,,,,,,,,,FF,,,,,,,,2.2012,,,,,,,,,,,,,,,,,,,,,,60fcde377ed6a23279394b7a,61036bb94c5946437063b14e,2021-07-29_21h08.24.829,Simcolourproject_2stim_asymm_v5,2020.2.10,MacIntel,60,61025ae37ef11b136ea224fe,,,,,,,,,3723,64.66015625,30.2578125,1,0,0,response1disk,,6,4.42578125,-5.42578125,1,0,0,rectangle,4.42578125,-5.42578125,1,0,0,4.42578125,-5.42578125,1,0,0,0,55,55,38,1,,,,,,,,
,,,,,,,,,,,,,FF,,,,,,,,0.7339,,,,,,,,,,,,,,,,,,,,,,60fcde377ed6a23279394b7a,61036bb94c5946437063b14e,2021-07-29_21h08.24.829,Simcolourproject_2stim_asymm_v5,2020.2.10,MacIntel,60,61025ae37ef11b136ea224fe,,,,,,,,,2965,97.38671875,36.1328125,1,0,0,response1disk,,6,12.69140625,-2.5625,1,0,0,rectangle,12.69140625,-2.5625,1,0,0,12.69140625,-2.5625,1,0,0,0,56,56,13,1,,,,,,,,
,,,,,,,,,,,,,FF,,,,,,,,0.6335,,,,,,,,,,,,,,,,,,,,,,60fcde377ed6a23279394b7a,61036bb94c5946437063b14e,2021-07-29_21h08.24.829,Simcolourproject_2stim_asymm_v5,2020.2.10,MacIntel,60,61025ae37ef11b136ea224fe,,,,,,,,,3017,92.09375,44.41015625,1,0,0,response1disk,,6,-5.37109375,-5.91796875,1,0,0,rectangle,-5.37109375,-5.91796875,1,0,0,-5.37109375,-5.91796875,1,0,0,0,57,57,31,1,,,,,,,,
,,,,,,,,,,,,,FF,,,,,,,,2.0343,,,,,,,,,,,,,,,,,,,,,,60fcde377ed6a23279394b7a,61036bb94c5946437063b14e,2021-07-29_21h08.24.829,Simcolourproject_2stim_asymm_v5,2020.2.10,MacIntel,60,61025ae37ef11b136ea224fe,,,,,,,,,2442,43.53125,-99.015625,1,0,0,response3disk,,4,14.33984375,0.12890625,1,0,0,rectangle,14.33984375,0.12890625,1,0,0,14.33984375,0.12890625,1,0,0,0,58,58,91,1,,,,,,,,
,,,,,,,,,,,,,FF,,,,,,,,2.0514,,,,,,,,,,,,,,,,,,,,,,60fcde377ed6a23279394b7a,61036bb94c5946437063b14e,2021-07-29_21h08.24.829,Simcolourproject_2stim_asymm_v5,2020.2.10,MacIntel,60,61025ae37ef11b136ea224fe,,,,,,,,,3836,45.38671875,-68.93359375,1,0,0,response3disk,,4,6.49609375,-2.4453125,1,0,0,rectangle,6.49609375,-2.4453125,1,0,0,6.49609375,-2.4453125,1,0,0,0,59,59,49,1,,,,,,,,
,,,,,,,,,,,,,FF,,,,,,,,4.6191,,,,,,,,,,,,,,,,,,,,,,60fcde377ed6a23279394b7a,61036bb94c5946437063b14e,2021-07-29_21h08.24.829,Simcolourproject_2stim_asymm_v5,2020.2.10,MacIntel,60,61025ae37ef11b136ea224fe,,,,,,,,,1001,36.390625,-70.48828125,1,0,0,response3disk,,4,1.3125,-2.890625,1,0,0,rectangle,1.3125,-2.890625,1,0,0,1.3125,-2.890625,1,0,0,0,60,60,132,1,,,,,,,,
,,,,,,,,,,,,,FF,,,,,,,,1.5169,,,,,,,,,,,,,,,,,,,,,,60fcde377ed6a23279394b7a,61036bb94c5946437063b14e,2021-07-29_21h08.24.829,Simcolourproject_2stim_asymm_v5,2020.2.10,MacIntel,60,61025ae37ef11b136ea224fe,,,,,,,,,742,61.7734375,-33.890625,1,0,0,response3disk,,5,-7.14453125,5.66796875,1,0,0,rectangle,-7.14453125,5.66796875,1,0,0,-7.14453125,5.66796875,1,0,0,0,61,61,69,1,,,,,,,,
,,,,,,,,,,,,,FF,,,,,,,,1.1334,,,,,,,,,,,,,,,,,,,,,,60fcde377ed6a23279394b7a,61036bb94c5946437063b14e,2021-07-29_21h08.24.829,Simcolourproject_2stim_asymm_v5,2020.2.10,MacIntel,60,61025ae37ef11b136ea224fe,,,,,,,,,1832,-35.7421875,-85.22265625,1,0,0,response5disk,,3,-20.10546875,0.77734375,1,0,0,rectangle,-20.10546875,0.77734375,1,0,0,-20.10546875,0.77734375,1,0,0,0,62,62,147,1,,,,,,,,
,,,,,,,,,,,,,FF,,,,,,,,1.5174,,,,,,,,,,,,,,,,,,,,,,60fcde377ed6a23279394b7a,61036bb94c5946437063b14e,2021-07-29_21h08.24.829,Simcolourproject_2stim_asymm_v5,2020.2.10,MacIntel,60,61025ae37ef11b136ea224fe,,,,,,,,,494,59.296875,-46.25390625,1,0,0,response3disk,,5,5.234375,-3.1484375,1,0,0,rectangle,5.234375,-3.1484375,1,0,0,5.234375,-3.1484375,1,0,0,0,63,63,43,1,,,,,,,,
,,,,,,,,,,,,,FF,,,,,,,,1.7837,,,,,,,,,,,,,,,,,,,,,,60fcde377ed6a23279394b7a,61036bb94c5946437063b14e,2021-07-29_21h08.24.829,Simcolourproject_2stim_asymm_v5,2020.2.10,MacIntel,60,61025ae37ef11b136ea224fe,,,,,,,,,3169,70.04296875,45.91015625,1,0,0,response1disk,,6,17.08984375,8.0859375,1,0,0,rectangle,17.08984375,8.0859375,1,0,0,17.08984375,8.0859375,1,0,0,0,64,64,116,1,,,,,,,,
,,,,,,,,,,,,,FF,,,,,,,,1.1844,,,,,,,,,,,,,,,,,,,,,,60fcde377ed6a23279394b7a,61036bb94c5946437063b14e,2021-07-29_21h08.24.829,Simcolourproject_2stim_asymm_v5,2020.2.10,MacIntel,60,61025ae37ef11b136ea224fe,,,,,,,,,3339,-27.06640625,-80.53125,1,0,0,response5disk,,3,-11.95703125,-2.3203125,1,0,0,rectangle,-11.95703125,-2.3203125,1,0,0,-11.95703125,-2.3203125,1,0,0,0,65,65,64,1,,,,,,,,
,,,,,,,,,,,,,FF,,,,,,,,0.8832,,,,,,,,,,,,,,,,,,,,,,60fcde377ed6a23279394b7a,61036bb94c5946437063b14e,2021-07-29_21h08.24.829,Simcolourproject_2stim_asymm_v5,2020.2.10,MacIntel,60,61025ae37ef11b136ea224fe,,,,,,,,,2723,-39.890625,-80.85546875,1,0,0,response5disk,,3,-11.6953125,0.39453125,1,0,0,rectangle,-11.6953125,0.39453125,1,0,0,-11.6953125,0.39453125,1,0,0,0,66,66,86,1,,,,,,,,
,,,,,,,,,,,,,FF,,,,,,,,1.2177,,,,,,,,,,,,,,,,,,,,,,60fcde377ed6a23279394b7a,61036bb94c5946437063b14e,2021-07-29_21h08.24.829,Simcolourproject_2stim_asymm_v5,2020.2.10,MacIntel,60,61025ae37ef11b136ea224fe,,,,,,,,,457,-16.39453125,-82.91796875,1,0,0,response5disk,,3,7.640625,9.01953125,1,0,0,rectangle,7.640625,9.01953125,1,0,0,7.640625,9.01953125,1,0,0,0,67,67,40,1,,,,,,,,
,,,,,,,,,,,,,FF,,,,,,,,1.7347,,,,,,,,,,,,,,,,,,,,,,60fcde377ed6a23279394b7a,61036bb94c5946437063b14e,2021-07-29_21h08.24.829,Simcolourproject_2stim_asymm_v5,2020.2.10,MacIntel,60,61025ae37ef11b136ea224fe,,,,,,,,,1089,66.7109375,-39.38671875,1,0,0,response3disk,,5,6.8203125,6.91015625,1,0,0,rectangle,6.8203125,6.91015625,1,0,0,6.8203125,6.91015625,1,0,0,0,68,68,26,1,,,,,,,,
,,,,,,,,,,,,,FF,,,,,,,,0.6669,,,,,,,,,,,,,,,,,,,,,,60fcde377ed6a23279394b7a,61036bb94c5946437063b14e,2021-07-29_21h08.24.829,Simcolourproject_2stim_asymm_v5,2020.2.10,MacIntel,60,61025ae37ef11b136ea224fe,,,,,,,,,4198,69.91015625,-35.38671875,1,0,0,response3disk,,5,25.5234375,12.515625,1,0,0,rectangle,25.5234375,12.515625,1,0,0,25.5234375,12.515625,1,0,0,0,69,69,142,1,,,,,,,,
,,,,,,,,,,,,,FF,,,,,,,,0.9508,,,,,,,,,,,,,,,,,,,,,,60fcde377ed6a23279394b7a,61036bb94c5946437063b14e,2021-07-29_21h08.24.829,Simcolourproject_2stim_asymm_v5,2020.2.10,MacIntel,60,61025ae37ef11b136ea224fe,,,,,,,,,285,69.578125,-26.6484375,1,0,0,response3disk,,5,3.0625,-6.265625,1,0,0,rectangle,3.0625,-6.265625,1,0,0,3.0625,-6.265625,1,0,0,0,70,70,36,1,,,,,,,,
,,,,,,,,,,,,,FF,,,,,,,,3.3013,,,,,,,,,,,,,,,,,,,,,,60fcde377ed6a23279394b7a,61036bb94c5946437063b14e,2021-07-29_21h08.24.829,Simcolourproject_2stim_asymm_v5,2020.2.10,MacIntel,60,61025ae37ef11b136ea224fe,,,,,,,,,3544,28.57421875,-64.01953125,1,0,0,response3disk,,4,6.28515625,6.0546875,1,0,0,rectangle,6.28515625,6.0546875,1,0,0,6.28515625,6.0546875,1,0,0,0,71,71,96,1,,,,,,,,
,,,,,,,,,,,,,FF,,,,,,,,1.0508,,,,,,,,,,,,,,,,,,,,,,60fcde377ed6a23279394b7a,61036bb94c5946437063b14e,2021-07-29_21h08.24.829,Simcolourproject_2stim_asymm_v5,2020.2.10,MacIntel,60,61025ae37ef11b136ea224fe,,,,,,,,,1570,63.87109375,-44.828125,1,0,0,response3disk,,5,8.56640625,2.53515625,1,0,0,rectangle,8.56640625,2.53515625,1,0,0,8.56640625,2.53515625,1,0,0,0,72,72,73,1,,,,,,,,
,,,,,,,,,,,,,FF,,,,,,,,1.2999,,,,,,,,,,,,,,,,,,,,,,60fcde377ed6a23279394b7a,61036bb94c5946437063b14e,2021-07-29_21h08.24.829,Simcolourproject_2stim_asymm_v5,2020.2.10,MacIntel,60,61025ae37ef11b136ea224fe,,,,,,,,,542,45.25390625,77.51171875,1,0,0,response1disk,,7,10.06640625,-0.6796875,1,0,0,rectangle,10.06640625,-0.6796875,1,0,0,10.06640625,-0.6796875,1,0,0,0,73,73,6,1,,,,,,,,
,,,,,,,,,,,,,FF,,,,,,,,1.083,,,,,,,,,,,,,,,,,,,,,,60fcde377ed6a23279394b7a,61036bb94c5946437063b14e,2021-07-29_21h08.24.829,Simcolourproject_2stim_asymm_v5,2020.2.10,MacIntel,60,61025ae37ef11b136ea224fe,,,,,,,,,668,85.25390625,40.64453125,1,0,0,response1disk,,6,20.63671875,-3.62109375,1,0,0,rectangle,20.63671875,-3.62109375,1,0,0,20.63671875,-3.62109375,1,0,0,0,74,74,148,1,,,,,,,,
,,,,,,,,,,,,,FF,,,,,,,,1.3513,,,,,,,,,,,,,,,,,,,,,,60fcde377ed6a23279394b7a,61036bb94c5946437063b14e,2021-07-29_21h08.24.829,Simcolourproject_2stim_asymm_v5,2020.2.10,MacIntel,60,61025ae37ef11b136ea224fe,,,,,,,,,2410,35.6171875,-67.09765625,1,0,0,response3disk,,4,13.5078125,-9.33984375,1,0,0,rectangle,13.5078125,-9.33984375,1,0,0,13.5078125,-9.33984375,1,0,0,0,75,75,144,1,,,,,,,,
,,,,,,,,,,,,,FF,,,,,,,,1.417,,,,,,,,,,,,,,,,,,,,,,60fcde377ed6a23279394b7a,61036bb94c5946437063b14e,2021-07-29_21h08.24.829,Simcolourproject_2stim_asymm_v5,2020.2.10,MacIntel,60,61025ae37ef11b136ea224fe,,,,,,,,,2220,37.1796875,-57.98828125,1,0,0,response3disk,,4,17.5703125,-3.6328125,1,0,0,rectangle,17.5703125,-3.6328125,1,0,0,17.5703125,-3.6328125,1,0,0,0,76,76,76,1,,,,,,,,
,,,,,,,,,,,,,FF,,,,,,,,1.4354,,,,,,,,,,,,,,,,,,,,,,60fcde377ed6a23279394b7a,61036bb94c5946437063b14e,2021-07-29_21h08.24.829,Simcolourproject_2stim_asymm_v5,2020.2.10,MacIntel,60,61025ae37ef11b136ea224fe,,,,,,,,,1067,54.1796875,-79.75,1,0,0,response3disk,,4,18.05078125,-5.83203125,1,0,0,rectangle,69.6015625,41.3671875,1,0,0,7.47265625,-2.24609375,1,0,0,0,77,77,60,1,,response1disk_3,TRUE,6,6,"[268,276,143,162,78,314,217,194,99,125,262,255,296,48,261,258,14,248,134,137]",1.9529,rectangle
,,,,,,,,,,,,,FF,,,,,,,,1.0672,,,,,,,,,,,,,,,,,,,,,,60fcde377ed6a23279394b7a,61036bb94c5946437063b14e,2021-07-29_21h08.24.829,Simcolourproject_2stim_asymm_v5,2020.2.10,MacIntel,60,61025ae37ef11b136ea224fe,,,,,,,,,3639,55.84765625,-81.703125,1,0,0,response3disk,,4,1.78515625,14.046875,1,0,0,rectangle,1.78515625,14.046875,1,0,0,1.78515625,14.046875,1,0,0,0,78,78,32,1,,,,,,,,
,,,,,,,,,,,,,FF,,,,,,,,1.0339,,,,,,,,,,,,,,,,,,,,,,60fcde377ed6a23279394b7a,61036bb94c5946437063b14e,2021-07-29_21h08.24.829,Simcolourproject_2stim_asymm_v5,2020.2.10,MacIntel,60,61025ae37ef11b136ea224fe,,,,,,,,,2518,70.62890625,28.8046875,1,0,0,response1disk,,6,-0.34765625,10.64453125,1,0,0,rectangle,-0.34765625,10.64453125,1,0,0,-0.34765625,10.64453125,1,0,0,0,79,79,35,1,,,,,,,,
,,,,,,,,,,,,,FF,,,,,,,,0.683,,,,,,,,,,,,,,,,,,,,,,60fcde377ed6a23279394b7a,61036bb94c5946437063b14e,2021-07-29_21h08.24.829,Simcolourproject_2stim_asymm_v5,2020.2.10,MacIntel,60,61025ae37ef11b136ea224fe,,,,,,,,,2961,63.21875,33.8671875,1,0,0,response1disk,,6,11.640625,9.22265625,1,0,0,rectangle,11.640625,9.22265625,1,0,0,11.640625,9.22265625,1,0,0,0,80,80,93,1,,,,,,,,
,,,,,,,,,,,,,FF,,,,,,,,0.601,,,,,,,,,,,,,,,,,,,,,,60fcde377ed6a23279394b7a,61036bb94c5946437063b14e,2021-07-29_21h08.24.829,Simcolourproject_2stim_asymm_v5,2020.2.10,MacIntel,60,61025ae37ef11b136ea224fe,,,,,,,,,2870,70.6953125,34.26171875,1,0,0,response1disk,,6,10.0390625,4.6484375,1,0,0,rectangle,10.0390625,4.6484375,1,0,0,10.0390625,4.6484375,1,0,0,0,81,81,114,1,,,,,,,,
,,,,,,,,,,,,,FF,,,,,,,,1.5179,,,,,,,,,,,,,,,,,,,,,,60fcde377ed6a23279394b7a,61036bb94c5946437063b14e,2021-07-29_21h08.24.829,Simcolourproject_2stim_asymm_v5,2020.2.10,MacIntel,60,61025ae37ef11b136ea224fe,,,,,,,,,3396,-42.953125,-69.51171875,1,0,0,response5disk,,3,-8.265625,-3.859375,1,0,0,rectangle,-8.265625,-3.859375,1,0,0,-8.265625,-3.859375,1,0,0,0,82,82,107,1,,,,,,,,
,,,,,,,,,,,,,FF,,,,,,,,0.9517,,,,,,,,,,,,,,,,,,,,,,60fcde377ed6a23279394b7a,61036bb94c5946437063b14e,2021-07-29_21h08.24.829,Simcolourproject_2stim_asymm_v5,2020.2.10,MacIntel,60,61025ae37ef11b136ea224fe,,,,,,,,,3834,37.48046875,87.91796875,1,0,0,response1disk,,7,8.68359375,10.0078125,1,0,0,rectangle,8.68359375,10.0078125,1,0,0,8.68359375,10.0078125,1,0,0,0,83,83,34,1,,,,,,,,
,,,,,,,,,,,,,FF,,,,,,,,1.8347,,,,,,,,,,,,,,,,,,,,,,60fcde377ed6a23279394b7a,61036bb94c5946437063b14e,2021-07-29_21h08.24.829,Simcolourproject_2stim_asymm_v5,2020.2.10,MacIntel,60,61025ae37ef11b136ea224fe,,,,,,,,,2585,80.98046875,29.48828125,1,0,0,response1disk,,6,-19.94140625,-1.2578125,1,0,0,rectangle,-19.94140625,-1.2578125,1,0,0,-19.94140625,-1.2578125,1,0,0,0,84,84,42,1,,,,,,,,
,,,,,,,,,,,,,FF,,,,,,,,0.6835,,,,,,,,,,,,,,,,,,,,,,60fcde377ed6a23279394b7a,61036bb94c5946437063b14e,2021-07-29_21h08.24.829,Simcolourproject_2stim_asymm_v5,2020.2.10,MacIntel,60,61025ae37ef11b136ea224fe,,,,,,,,,1713,74.515625,33.3515625,1,0,0,response1disk,,6,-15.29296875,-14.21484375,1,0,0,rectangle,-15.29296875,-14.21484375,1,0,0,-15.29296875,-14.21484375,1,0,0,0,85,85,133,1,,,,,,,,
,,,,,,,,,,,,,FF,,,,,,,,1.3523,,,,,,,,,,,,,,,,,,,,,,60fcde377ed6a23279394b7a,61036bb94c5946437063b14e,2021-07-29_21h08.24.829,Simcolourproject_2stim_asymm_v5,2020.2.10,MacIntel,60,61025ae37ef11b136ea224fe,,,,,,,,,3968,-47.20703125,-68.12109375,1,0,0,response5disk,,3,-12.2890625,-5.5078125,1,0,0,rectangle,-12.2890625,-5.5078125,1,0,0,-12.2890625,-5.5078125,1,0,0,0,86,86,98,1,,,,,,,,
,,,,,,,,,,,,,FF,,,,,,,,1.1505,,,,,,,,,,,,,,,,,,,,,,60fcde377ed6a23279394b7a,61036bb94c5946437063b14e,2021-07-29_21h08.24.829,Simcolourproject_2stim_asymm_v5,2020.2.10,MacIntel,60,61025ae37ef11b136ea224fe,,,,,,,,,2145,66.33984375,-30.11328125,1,0,0,response3disk,,5,-10.84375,-5.62109375,1,0,0,rectangle,-10.84375,-5.62109375,1,0,0,-10.84375,-5.62109375,1,0,0,0,87,87,155,1,,,,,,,,
,,,,,,,,,,,,,FF,,,,,,,,1.1508,,,,,,,,,,,,,,,,,,,,,,60fcde377ed6a23279394b7a,61036bb94c5946437063b14e,2021-07-29_21h08.24.829,Simcolourproject_2stim_asymm_v5,2020.2.10,MacIntel,60,61025ae37ef11b136ea224fe,,,,,,,,,712,30.109375,-64.53125,1,0,0,response3disk,,4,21.6875,-6.5234375,1,0,0,rectangle,21.6875,-6.5234375,1,0,0,21.6875,-6.5234375,1,0,0,0,88,88,111,1,,,,,,,,
,,,,,,,,,,,,,FF,,,,,,,,0.9345,,,,,,,,,,,,,,,,,,,,,,60fcde377ed6a23279394b7a,61036bb94c5946437063b14e,2021-07-29_21h08.24.829,Simcolourproject_2stim_asymm_v5,2020.2.10,MacIntel,60,61025ae37ef11b136ea224fe,,,,,,,,,3023,93.57421875,56.1875,1,0,0,response1disk,,6,9.703125,3.59375,1,0,0,rectangle,9.703125,3.59375,1,0,0,9.703125,3.59375,1,0,0,0,89,89,10,1,,,,,,,,
,,,,,,,,,,,,,FF,,,,,,,,1.3507,,,,,,,,,,,,,,,,,,,,,,60fcde377ed6a23279394b7a,61036bb94c5946437063b14e,2021-07-29_21h08.24.829,Simcolourproject_2stim_asymm_v5,2020.2.10,MacIntel,60,61025ae37ef11b136ea224fe,,,,,,,,,4068,81.23828125,43.234375,1,0,0,response1disk,,6,-1.53515625,-11.0546875,1,0,0,rectangle,-1.53515625,-11.0546875,1,0,0,-1.53515625,-11.0546875,1,0,0,0,90,90,106,1,,,,,,,,
,,,,,,,,,,,,,FF,,,,,,,,1.3674,,,,,,,,,,,,,,,,,,,,,,60fcde377ed6a23279394b7a,61036bb94c5946437063b14e,2021-07-29_21h08.24.829,Simcolourproject_2stim_asymm_v5,2020.2.10,MacIntel,60,61025ae37ef11b136ea224fe,,,,,,,,,36,55.14453125,-31.51171875,1,0,0,response3disk,,5,9.68359375,-2.69140625,1,0,0,rectangle,9.68359375,-2.69140625,1,0,0,9.68359375,-2.69140625,1,0,0,0,91,91,90,1,,,,,,,,
,,,,,,,,,,,,,FF,,,,,,,,2.384,,,,,,,,,,,,,,,,,,,,,,60fcde377ed6a23279394b7a,61036bb94c5946437063b14e,2021-07-29_21h08.24.829,Simcolourproject_2stim_asymm_v5,2020.2.10,MacIntel,60,61025ae37ef11b136ea224fe,,,,,,,,,2110,46.39453125,-62.9453125,1,0,0,response3disk,,4,20.96875,-4.09375,1,0,0,rectangle,20.96875,-4.09375,1,0,0,20.96875,-4.09375,1,0,0,0,92,92,30,1,,,,,,,,
,,,,,,,,,,,,,FF,,,,,,,,1.4173,,,,,,,,,,,,,,,,,,,,,,60fcde377ed6a23279394b7a,61036bb94c5946437063b14e,2021-07-29_21h08.24.829,Simcolourproject_2stim_asymm_v5,2020.2.10,MacIntel,60,61025ae37ef11b136ea224fe,,,,,,,,,551,35.3359375,-53.72265625,1,0,0,response3disk,,4,23.73046875,-11.40625,1,0,0,rectangle,23.73046875,-11.40625,1,0,0,23.73046875,-11.40625,1,0,0,0,93,93,4,1,,,,,,,,
,,,,,,,,,,,,,FF,,,,,,,,1.3016,,,,,,,,,,,,,,,,,,,,,,60fcde377ed6a23279394b7a,61036bb94c5946437063b14e,2021-07-29_21h08.24.829,Simcolourproject_2stim_asymm_v5,2020.2.10,MacIntel,60,61025ae37ef11b136ea224fe,,,,,,,,,4224,-72.36328125,-33.12109375,1,0,0,response5disk,,2,-5.55078125,1.0625,1,0,0,rectangle,-5.55078125,1.0625,1,0,0,-5.55078125,1.0625,1,0,0,0,94,94,126,1,,,,,,,,
,,,,,,,,,,,,,FF,,,,,,,,0.9167,,,,,,,,,,,,,,,,,,,,,,60fcde377ed6a23279394b7a,61036bb94c5946437063b14e,2021-07-29_21h08.24.829,Simcolourproject_2stim_asymm_v5,2020.2.10,MacIntel,60,61025ae37ef11b136ea224fe,,,,,,,,,3796,89.3125,-37.0546875,1,0,0,response3disk,,5,-4.7421875,2.38671875,1,0,0,rectangle,-4.7421875,2.38671875,1,0,0,-4.7421875,2.38671875,1,0,0,0,95,95,141,1,,,,,,,,
,,,,,,,,,,,,,FF,,,,,,,,1.3662,,,,,,,,,,,,,,,,,,,,,,60fcde377ed6a23279394b7a,61036bb94c5946437063b14e,2021-07-29_21h08.24.829,Simcolourproject_2stim_asymm_v5,2020.2.10,MacIntel,60,61025ae37ef11b136ea224fe,,,,,,,,,378,99.52734375,-43.8125,1,0,0,response3disk,,5,4.828125,1.9921875,1,0,0,rectangle,4.828125,1.9921875,1,0,0,4.828125,1.9921875,1,0,0,0,96,96,89,1,,,,,,,,
,,,,,,,,,,,,,FF,,,,,,,,1.0334,,,,,,,,,,,,,,,,,,,,,,60fcde377ed6a23279394b7a,61036bb94c5946437063b14e,2021-07-29_21h08.24.829,Simcolourproject_2stim_asymm_v5,2020.2.10,MacIntel,60,61025ae37ef11b136ea224fe,,,,,,,,,2288,-27.58984375,-73.6875,1,0,0,response5disk,,3,-6.88671875,6.09375,1,0,0,rectangle,-6.88671875,6.09375,1,0,0,-6.88671875,6.09375,1,0,0,0,97,97,5,1,,,,,,,,
,,,,,,,,,,,,,FF,,,,,,,,1.6848,,,,,,,,,,,,,,,,,,,,,,60fcde377ed6a23279394b7a,61036bb94c5946437063b14e,2021-07-29_21h08.24.829,Simcolourproject_2stim_asymm_v5,2020.2.10,MacIntel,60,61025ae37ef11b136ea224fe,,,,,,,,,289,41.69140625,-76.4375,1,0,0,response3disk,,4,4.62890625,2.015625,1,0,0,rectangle,78.02734375,-42.796875,1,0,0,-4.51953125,6.140625,1,0,0,0,98,98,100,1,,response3disk_3,TRUE,5,5,"[268,276,143,162,78,314,217,194,99,125,262,255,296,48,261,258,14,248,134,137]",1.4505,rectangle
,,,,,,,,,,,,,FF,,,,,,,,2.4355,,,,,,,,,,,,,,,,,,,,,,60fcde377ed6a23279394b7a,61036bb94c5946437063b14e,2021-07-29_21h08.24.829,Simcolourproject_2stim_asymm_v5,2020.2.10,MacIntel,60,61025ae37ef11b136ea224fe,,,,,,,,,2225,75.40234375,-47.45703125,1,0,0,response3disk,,5,25.4453125,-10.00390625,1,0,0,rectangle,25.4453125,-10.00390625,1,0,0,25.4453125,-10.00390625,1,0,0,0,99,99,78,1,,,,,,,,
,,,,,,,,,,,,,FF,,,,,,,,1.5153,,,,,,,,,,,,,,,,,,,,,,60fcde377ed6a23279394b7a,61036bb94c5946437063b14e,2021-07-29_21h08.24.829,Simcolourproject_2stim_asymm_v5,2020.2.10,MacIntel,60,61025ae37ef11b136ea224fe,,,,,,,,,1377,30.03125,-86.57421875,1,0,0,response3disk,,4,9.8046875,7.06640625,1,0,0,rectangle,9.8046875,7.06640625,1,0,0,9.8046875,7.06640625,1,0,0,0,100,100,156,1,,,,,,,,
,,,,,,,,,,,,,FF,,,,,,,,2.5352,,,,,,,,,,,,,,,,,,,,,,60fcde377ed6a23279394b7a,61036bb94c5946437063b14e,2021-07-29_21h08.24.829,Simcolourproject_2stim_asymm_v5,2020.2.10,MacIntel,60,61025ae37ef11b136ea224fe,,,,,,,,,1754,50.70703125,-68.9140625,1,0,0,response3disk,,4,18.3828125,-2.87890625,1,0,0,rectangle,18.3828125,-2.87890625,1,0,0,18.3828125,-2.87890625,1,0,0,0,101,101,120,1,,,,,,,,
,,,,,,,,,,,,,FF,,,,,,,,2.2997,,,,,,,,,,,,,,,,,,,,,,60fcde377ed6a23279394b7a,61036bb94c5946437063b14e,2021-07-29_21h08.24.829,Simcolourproject_2stim_asymm_v5,2020.2.10,MacIntel,60,61025ae37ef11b136ea224fe,,,,,,,,,2749,81.52734375,51.06640625,1,0,0,response1disk,,6,11.49609375,4.5390625,1,0,0,rectangle,11.49609375,4.5390625,1,0,0,11.49609375,4.5390625,1,0,0,0,102,102,14,1,,,,,,,,
,,,,,,,,,,,,,FF,,,,,,,,0.9507,,,,,,,,,,,,,,,,,,,,,,60fcde377ed6a23279394b7a,61036bb94c5946437063b14e,2021-07-29_21h08.24.829,Simcolourproject_2stim_asymm_v5,2020.2.10,MacIntel,60,61025ae37ef11b136ea224fe,,,,,,,,,4365,-61.2734375,77.44921875,1,0,0,response7disk,,0,-16.5859375,-5.171875,1,0,0,rectangle,-16.5859375,-5.171875,1,0,0,-16.5859375,-5.171875,1,0,0,0,103,103,8,1,,,,,,,,
,,,,,,,,,,,,,FF,,,,,,,,1.3507,,,,,,,,,,,,,,,,,,,,,,60fcde377ed6a23279394b7a,61036bb94c5946437063b14e,2021-07-29_21h08.24.829,Simcolourproject_2stim_asymm_v5,2020.2.10,MacIntel,60,61025ae37ef11b136ea224fe,,,,,,,,,695,-88.390625,-31.83984375,1,0,0,response5disk,,2,-11.03125,9.921875,1,0,0,rectangle,-11.03125,9.921875,1,0,0,-11.03125,9.921875,1,0,0,0,104,104,58,1,,,,,,,,
,,,,,,,,,,,,,FF,,,,,,,,0.9825,,,,,,,,,,,,,,,,,,,,,,60fcde377ed6a23279394b7a,61036bb94c5946437063b14e,2021-07-29_21h08.24.829,Simcolourproject_2stim_asymm_v5,2020.2.10,MacIntel,60,61025ae37ef11b136ea224fe,,,,,,,,,1821,-69.890625,-20.1875,1,0,0,response5disk,,2,-26.36328125,-5.51953125,1,0,0,rectangle,-26.36328125,-5.51953125,1,0,0,-26.36328125,-5.51953125,1,0,0,0,105,105,11,1,,,,,,,,
,,,,,,,,,,,,,FF,,,,,,,,2.2678,,,,,,,,,,,,,,,,,,,,,,60fcde377ed6a23279394b7a,61036bb94c5946437063b14e,2021-07-29_21h08.24.829,Simcolourproject_2stim_asymm_v5,2020.2.10,MacIntel,60,61025ae37ef11b136ea224fe,,,,,,,,,945,60.3515625,-72.41796875,1,0,0,response3disk,,4,10.28515625,13.828125,1,0,0,rectangle,10.28515625,13.828125,1,0,0,10.28515625,13.828125,1,0,0,0,106,106,109,1,,,,,,,,
,,,,,,,,,,,,,FF,,,,,,,,1.0675,,,,,,,,,,,,,,,,,,,,,,60fcde377ed6a23279394b7a,61036bb94c5946437063b14e,2021-07-29_21h08.24.829,Simcolourproject_2stim_asymm_v5,2020.2.10,MacIntel,60,61025ae37ef11b136ea224fe,,,,,,,,,2972,74.55859375,25.3515625,1,0,0,response1disk,,6,20.0859375,15.5234375,1,0,0,rectangle,20.0859375,15.5234375,1,0,0,20.0859375,15.5234375,1,0,0,0,107,107,103,1,,,,,,,,
,,,,,,,,,,,,,FF,,,,,,,,0.6666,,,,,,,,,,,,,,,,,,,,,,60fcde377ed6a23279394b7a,61036bb94c5946437063b14e,2021-07-29_21h08.24.829,Simcolourproject_2stim_asymm_v5,2020.2.10,MacIntel,60,61025ae37ef11b136ea224fe,,,,,,,,,447,81.1328125,34.515625,1,0,0,response1disk,,6,-3.7890625,-12.1171875,1,0,0,rectangle,-3.7890625,-12.1171875,1,0,0,-3.7890625,-12.1171875,1,0,0,0,108,108,124,1,,,,,,,,
,,,,,,,,,,,,,FF,,,,,,,,0.6846,,,,,,,,,,,,,,,,,,,,,,60fcde377ed6a23279394b7a,61036bb94c5946437063b14e,2021-07-29_21h08.24.829,Simcolourproject_2stim_asymm_v5,2020.2.10,MacIntel,60,61025ae37ef11b136ea224fe,,,,,,,,,1581,71.62890625,43.671875,1,0,0,response1disk,,6,-18.78125,-2.2265625,1,0,0,rectangle,-18.78125,-2.2265625,1,0,0,-18.78125,-2.2265625,1,0,0,0,109,109,84,1,,,,,,,,
,,,,,,,,,,,,,FF,,,,,,,,1.1669,,,,,,,,,,,,,,,,,,,,,,60fcde377ed6a23279394b7a,61036bb94c5946437063b14e,2021-07-29_21h08.24.829,Simcolourproject_2stim_asymm_v5,2020.2.10,MacIntel,60,61025ae37ef11b136ea224fe,,,,,,,,,3374,-40.1328125,-96.59765625,1,0,0,response5disk,,3,-15.7578125,11.796875,1,0,0,rectangle,-15.7578125,11.796875,1,0,0,-15.7578125,11.796875,1,0,0,0,110,110,28,1,,,,,,,,
,,,,,,,,,,,,,FF,,,,,,,,1.3847,,,,,,,,,,,,,,,,,,,,,,60fcde377ed6a23279394b7a,61036bb94c5946437063b14e,2021-07-29_21h08.24.829,Simcolourproject_2stim_asymm_v5,2020.2.10,MacIntel,60,61025ae37ef11b136ea224fe,,,,,,,,,451,74.22265625,-40.85546875,1,0,0,response3disk,,5,14.73828125,-3.41796875,1,0,0,rectangle,14.73828125,-3.41796875,1,0,0,14.73828125,-3.41796875,1,0,0,0,111,111,154,1,,,,,,,,
,,,,,,,,,,,,,FF,,,,,,,,1.1508,,,,,,,,,,,,,,,,,,,,,,60fcde377ed6a23279394b7a,61036bb94c5946437063b14e,2021-07-29_21h08.24.829,Simcolourproject_2stim_asymm_v5,2020.2.10,MacIntel,60,61025ae37ef11b136ea224fe,,,,,,,,,3148,-38.9140625,-79.4296875,1,0,0,response5disk,,3,-18.1484375,-5.984375,1,0,0,rectangle,-18.1484375,-5.984375,1,0,0,-18.1484375,-5.984375,1,0,0,0,112,112,99,1,,,,,,,,
,,,,,,,,,,,,,FF,,,,,,,,1.0182,,,,,,,,,,,,,,,,,,,,,,60fcde377ed6a23279394b7a,61036bb94c5946437063b14e,2021-07-29_21h08.24.829,Simcolourproject_2stim_asymm_v5,2020.2.10,MacIntel,60,61025ae37ef11b136ea224fe,,,,,,,,,4149,-26.80078125,-69.44140625,1,0,0,response5disk,,3,-16.8203125,4.19921875,1,0,0,rectangle,-16.8203125,4.19921875,1,0,0,-16.8203125,4.19921875,1,0,0,0,113,113,2,1,,,,,,,,
,,,,,,,,,,,,,FF,,,,,,,,1.0834,,,,,,,,,,,,,,,,,,,,,,60fcde377ed6a23279394b7a,61036bb94c5946437063b14e,2021-07-29_21h08.24.829,Simcolourproject_2stim_asymm_v5,2020.2.10,MacIntel,60,61025ae37ef11b136ea224fe,,,,,,,,,521,83.55859375,44.80078125,1,0,0,response1disk,,6,-4.4296875,-4.4765625,1,0,0,rectangle,-4.4296875,-4.4765625,1,0,0,-4.4296875,-4.4765625,1,0,0,0,114,114,149,1,,,,,,,,
,,,,,,,,,,,,,FF,,,,,,,,0.9008,,,,,,,,,,,,,,,,,,,,,,60fcde377ed6a23279394b7a,61036bb94c5946437063b14e,2021-07-29_21h08.24.829,Simcolourproject_2stim_asymm_v5,2020.2.10,MacIntel,60,61025ae37ef11b136ea224fe,,,,,,,,,395,-37.9453125,-81.54296875,1,0,0,response5disk,,3,-16.171875,13.05078125,1,0,0,rectangle,-16.171875,13.05078125,1,0,0,-16.171875,13.05078125,1,0,0,0,115,115,122,1,,,,,,,,
,,,,,,,,,,,,,FF,,,,,,,,0.8172,,,,,,,,,,,,,,,,,,,,,,60fcde377ed6a23279394b7a,61036bb94c5946437063b14e,2021-07-29_21h08.24.829,Simcolourproject_2stim_asymm_v5,2020.2.10,MacIntel,60,61025ae37ef11b136ea224fe,,,,,,,,,4254,-40.15234375,-64.12890625,1,0,0,response5disk,,3,-25.66015625,-1.94140625,1,0,0,rectangle,-25.66015625,-1.94140625,1,0,0,-25.66015625,-1.94140625,1,0,0,0,116,116,129,1,,,,,,,,
,,,,,,,,,,,,,FF,,,,,,,,0.8981,,,,,,,,,,,,,,,,,,,,,,60fcde377ed6a23279394b7a,61036bb94c5946437063b14e,2021-07-29_21h08.24.829,Simcolourproject_2stim_asymm_v5,2020.2.10,MacIntel,60,61025ae37ef11b136ea224fe,,,,,,,,,4370,-26.05859375,108.078125,1,0,0,response7disk,,0,1.828125,-12.34375,1,0,0,rectangle,1.828125,-12.34375,1,0,0,1.828125,-12.34375,1,0,0,0,117,117,136,1,,,,,,,,
,,,,,,,,,,,,,FF,,,,,,,,1.0375,,,,,,,,,,,,,,,,,,,,,,60fcde377ed6a23279394b7a,61036bb94c5946437063b14e,2021-07-29_21h08.24.829,Simcolourproject_2stim_asymm_v5,2020.2.10,MacIntel,60,61025ae37ef11b136ea224fe,,,,,,,,,306,54.21875,-56.80859375,1,0,0,response3disk,,4,11.97265625,10.0703125,1,0,0,rectangle,11.97265625,10.0703125,1,0,0,11.97265625,10.0703125,1,0,0,0,118,118,45,1,,,,,,,,
,,,,,,,,,,,,,FF,,,,,,,,0.8487,,,,,,,,,,,,,,,,,,,,,,60fcde377ed6a23279394b7a,61036bb94c5946437063b14e,2021-07-29_21h08.24.829,Simcolourproject_2stim_asymm_v5,2020.2.10,MacIntel,60,61025ae37ef11b136ea224fe,,,,,,,,,255,-46.62890625,-83.15234375,1,0,0,response5disk,,3,-27.265625,-13.9140625,1,0,0,rectangle,-27.265625,-13.9140625,1,0,0,-27.265625,-13.9140625,1,0,0,0,119,119,118,1,,,,,,,,
,,,,,,,,,,,,,FF,,,,,,,,1.5337,,,,,,,,,,,,,,,,,,,,,,60fcde377ed6a23279394b7a,61036bb94c5946437063b14e,2021-07-29_21h08.24.829,Simcolourproject_2stim_asymm_v5,2020.2.10,MacIntel,60,61025ae37ef11b136ea224fe,,,,,,,,,2540,48.1953125,-60.54296875,1,0,0,response3disk,,4,4.12890625,13.7890625,1,0,0,rectangle,4.12890625,13.7890625,1,0,0,4.12890625,13.7890625,1,0,0,0,120,120,0,1,,,,,,,,
,,,,,,,,,,,,,FF,,,,,,,,2.4348,,,,,,,,,,,,,,,,,,,,,,60fcde377ed6a23279394b7a,61036bb94c5946437063b14e,2021-07-29_21h08.24.829,Simcolourproject_2stim_asymm_v5,2020.2.10,MacIntel,60,61025ae37ef11b136ea224fe,,,,,,,,,1147,71.2421875,-44.68359375,1,0,0,response3disk,,5,3.67578125,11.9453125,1,0,0,rectangle,3.67578125,11.9453125,1,0,0,3.67578125,11.9453125,1,0,0,0,121,121,29,1,,,,,,,,
,,,,,,,,,,,,,FF,,,,,,,,1.7329,,,,,,,,,,,,,,,,,,,,,,60fcde377ed6a23279394b7a,61036bb94c5946437063b14e,2021-07-29_21h08.24.829,Simcolourproject_2stim_asymm_v5,2020.2.10,MacIntel,60,61025ae37ef11b136ea224fe,,,,,,,,,1194,42.51171875,-79.85546875,1,0,0,response3disk,,4,8.48046875,3.8515625,1,0,0,rectangle,8.48046875,3.8515625,1,0,0,8.48046875,3.8515625,1,0,0,0,122,122,157,1,,,,,,,,
,,,,,,,,,,,,,FF,,,,,,,,1.669,,,,,,,,,,,,,,,,,,,,,,60fcde377ed6a23279394b7a,61036bb94c5946437063b14e,2021-07-29_21h08.24.829,Simcolourproject_2stim_asymm_v5,2020.2.10,MacIntel,60,61025ae37ef11b136ea224fe,,,,,,,,,4249,23.2109375,-63.46875,1,0,0,response3disk,,4,14.13671875,-14.2421875,1,0,0,rectangle,14.13671875,-14.2421875,1,0,0,14.13671875,-14.2421875,1,0,0,0,123,123,88,1,,,,,,,,
,,,,,,,,,,,,,FF,,,,,,,,1.1329,,,,,,,,,,,,,,,,,,,,,,60fcde377ed6a23279394b7a,61036bb94c5946437063b14e,2021-07-29_21h08.24.829,Simcolourproject_2stim_asymm_v5,2020.2.10,MacIntel,60,61025ae37ef11b136ea224fe,,,,,,,,,1150,34.359375,-48.96484375,1,0,0,response3disk,,4,-11.890625,-0.38671875,1,0,0,rectangle,42.96875,-78.3046875,1,0,0,-16.65234375,-3.50390625,1,0,0,0,124,124,79,1,,response3disk_3,TRUE,4,4,"[268,276,143,162,78,314,217,194,99,125,262,255,296,48,261,258,14,248,134,137]",1.4673,rectangle
,,,,,,,,,,,,,FF,,,,,,,,1.6342,,,,,,,,,,,,,,,,,,,,,,60fcde377ed6a23279394b7a,61036bb94c5946437063b14e,2021-07-29_21h08.24.829,Simcolourproject_2stim_asymm_v5,2020.2.10,MacIntel,60,61025ae37ef11b136ea224fe,,,,,,,,,2580,79.0390625,-29.3671875,1,0,0,response3disk,,5,-0.3515625,0.796875,1,0,0,rectangle,-0.3515625,0.796875,1,0,0,-0.3515625,0.796875,1,0,0,0,125,125,46,1,,,,,,,,
,,,,,,,,,,,,,FF,,,,,,,,1.0497,,,,,,,,,,,,,,,,,,,,,,60fcde377ed6a23279394b7a,61036bb94c5946437063b14e,2021-07-29_21h08.24.829,Simcolourproject_2stim_asymm_v5,2020.2.10,MacIntel,60,61025ae37ef11b136ea224fe,,,,,,,,,3571,107.859375,-51.953125,1,0,0,response3disk,,5,3.43359375,12.20703125,1,0,0,rectangle,3.43359375,12.20703125,1,0,0,3.43359375,12.20703125,1,0,0,0,126,126,143,1,,,,,,,,
,,,,,,,,,,,,,FF,,,,,,,,1.2342,,,,,,,,,,,,,,,,,,,,,,60fcde377ed6a23279394b7a,61036bb94c5946437063b14e,2021-07-29_21h08.24.829,Simcolourproject_2stim_asymm_v5,2020.2.10,MacIntel,60,61025ae37ef11b136ea224fe,,,,,,,,,3194,36.2421875,-71.61328125,1,0,0,response3disk,,4,17.453125,-0.17578125,1,0,0,rectangle,17.453125,-0.17578125,1,0,0,17.453125,-0.17578125,1,0,0,0,127,127,77,1,,,,,,,,
,,,,,,,,,,,,,FF,,,,,,,,1.1174,,,,,,,,,,,,,,,,,,,,,,60fcde377ed6a23279394b7a,61036bb94c5946437063b14e,2021-07-29_21h08.24.829,Simcolourproject_2stim_asymm_v5,2020.2.10,MacIntel,60,61025ae37ef11b136ea224fe,,,,,,,,,2747,21.09375,-60.62890625,1,0,0,response3disk,,4,6.22265625,8.37109375,1,0,0,rectangle,6.22265625,8.37109375,1,0,0,6.22265625,8.37109375,1,0,0,0,128,128,65,1,,,,,,,,
,,,,,,,,,,,,,FF,,,,,,,,0.8336,,,,,,,,,,,,,,,,,,,,,,60fcde377ed6a23279394b7a,61036bb94c5946437063b14e,2021-07-29_21h08.24.829,Simcolourproject_2stim_asymm_v5,2020.2.10,MacIntel,60,61025ae37ef11b136ea224fe,,,,,,,,,1246,88.80859375,-44.34375,1,0,0,response3disk,,5,21.90234375,-6.37890625,1,0,0,rectangle,21.90234375,-6.37890625,1,0,0,21.90234375,-6.37890625,1,0,0,0,129,129,117,1,,,,,,,,
,,,,,,,,,,,,,FF,,,,,,,,1.6013,,,,,,,,,,,,,,,,,,,,,,60fcde377ed6a23279394b7a,61036bb94c5946437063b14e,2021-07-29_21h08.24.829,Simcolourproject_2stim_asymm_v5,2020.2.10,MacIntel,60,61025ae37ef11b136ea224fe,,,,,,,,,1761,65.140625,-38.0078125,1,0,0,response3disk,,5,-15.6015625,8.4375,1,0,0,rectangle,-15.6015625,8.4375,1,0,0,-15.6015625,8.4375,1,0,0,0,130,130,37,1,,,,,,,,
,,,,,,,,,,,,,FF,,,,,,,,1.5337,,,,,,,,,,,,,,,,,,,,,,60fcde377ed6a23279394b7a,61036bb94c5946437063b14e,2021-07-29_21h08.24.829,Simcolourproject_2stim_asymm_v5,2020.2.10,MacIntel,60,61025ae37ef11b136ea224fe,,,,,,,,,3908,-31.51171875,-75.9453125,1,0,0,response5disk,,3,-17.80078125,-5.95703125,1,0,0,rectangle,-17.80078125,-5.95703125,1,0,0,-17.80078125,-5.95703125,1,0,0,0,131,131,85,1,,,,,,,,
,,,,,,,,,,,,,FF,,,,,,,,0.7657,,,,,,,,,,,,,,,,,,,,,,60fcde377ed6a23279394b7a,61036bb94c5946437063b14e,2021-07-29_21h08.24.829,Simcolourproject_2stim_asymm_v5,2020.2.10,MacIntel,60,61025ae37ef11b136ea224fe,,,,,,,,,3425,-37.3046875,86.99609375,1,0,0,response7disk,,0,-13.09765625,1.2578125,1,0,0,rectangle,-13.09765625,1.2578125,1,0,0,-13.09765625,1.2578125,1,0,0,0,132,132,94,1,,,,,,,,
,,,,,,,,,,,,,FF,,,,,,,,1.2175,,,,,,,,,,,,,,,,,,,,,,60fcde377ed6a23279394b7a,61036bb94c5946437063b14e,2021-07-29_21h08.24.829,Simcolourproject_2stim_asymm_v5,2020.2.10,MacIntel,60,61025ae37ef11b136ea224fe,,,,,,,,,116,105.3398438,25.328125,1,0,0,response1disk,,6,-6.12890625,0.03515625,1,0,0,rectangle,-41.44921875,92.2890625,1,0,0,-5.28125,-7.76171875,1,0,0,0,133,133,134,1,,response7disk_3,TRUE,0,0,"[268,276,143,162,78,314,217,194,99,125,262,255,296,48,261,258,14,248,134,137]",1.5845,rectangle
,,,,,,,,,,,,,FF,,,,,,,,1.3163,,,,,,,,,,,,,,,,,,,,,,60fcde377ed6a23279394b7a,61036bb94c5946437063b14e,2021-07-29_21h08.24.829,Simcolourproject_2stim_asymm_v5,2020.2.10,MacIntel,60,61025ae37ef11b136ea224fe,,,,,,,,,1722,47.40625,72.48828125,1,0,0,response1disk,,7,10.9609375,-0.77734375,1,0,0,rectangle,10.9609375,-0.77734375,1,0,0,10.9609375,-0.77734375,1,0,0,0,134,134,130,1,,,,,,,,
,,,,,,,,,,,,,FF,,,,,,,,0.9337,,,,,,,,,,,,,,,,,,,,,,60fcde377ed6a23279394b7a,61036bb94c5946437063b14e,2021-07-29_21h08.24.829,Simcolourproject_2stim_asymm_v5,2020.2.10,MacIntel,60,61025ae37ef11b136ea224fe,,,,,,,,,2366,74.8828125,-25.33984375,1,0,0,response3disk,,5,5.14453125,7.75,1,0,0,rectangle,5.14453125,7.75,1,0,0,5.14453125,7.75,1,0,0,0,135,135,66,1,,,,,,,,
,,,,,,,,,,,,,FF,,,,,,,,0.766,,,,,,,,,,,,,,,,,,,,,,60fcde377ed6a23279394b7a,61036bb94c5946437063b14e,2021-07-29_21h08.24.829,Simcolourproject_2stim_asymm_v5,2020.2.10,MacIntel,60,61025ae37ef11b136ea224fe,,,,,,,,,753,81.66796875,-33.16015625,1,0,0,response3disk,,5,17.75,-4.83984375,1,0,0,rectangle,-74.06640625,35.89453125,1,0,0,-4.51953125,-3.49609375,1,0,0,0,136,136,92,1,,response7disk_3,TRUE,1,1,"[268,276,143,162,78,314,217,194,99,125,262,255,296,48,261,258,14,248,134,137]",1.3006,rectangle
,,,,,,,,,,,,,FF,,,,,,,,1.2339,,,,,,,,,,,,,,,,,,,,,,60fcde377ed6a23279394b7a,61036bb94c5946437063b14e,2021-07-29_21h08.24.829,Simcolourproject_2stim_asymm_v5,2020.2.10,MacIntel,60,61025ae37ef11b136ea224fe,,,,,,,,,3872,-44.3515625,-94.66015625,1,0,0,response5disk,,3,-22.828125,-5.3984375,1,0,0,rectangle,-22.828125,-5.3984375,1,0,0,-22.828125,-5.3984375,1,0,0,0,137,137,16,1,,,,,,,,
,,,,,,,,,,,,,FF,,,,,,,,0.952,,,,,,,,,,,,,,,,,,,,,,60fcde377ed6a23279394b7a,61036bb94c5946437063b14e,2021-07-29_21h08.24.829,Simcolourproject_2stim_asymm_v5,2020.2.10,MacIntel,60,61025ae37ef11b136ea224fe,,,,,,,,,547,-40.6328125,-71.19140625,1,0,0,response5disk,,3,-20.25390625,10.328125,1,0,0,rectangle,-20.25390625,10.328125,1,0,0,-20.25390625,10.328125,1,0,0,0,138,138,12,1,,,,,,,,
,,,,,,,,,,,,,FF,,,,,,,,0.8832,,,,,,,,,,,,,,,,,,,,,,60fcde377ed6a23279394b7a,61036bb94c5946437063b14e,2021-07-29_21h08.24.829,Simcolourproject_2stim_asymm_v5,2020.2.10,MacIntel,60,61025ae37ef11b136ea224fe,,,,,,,,,2976,96.328125,44.0546875,1,0,0,response1disk,,6,1.23046875,9.02734375,1,0,0,rectangle,1.23046875,9.02734375,1,0,0,1.23046875,9.02734375,1,0,0,0,139,139,57,1,,,,,,,,
,,,,,,,,,,,,,FF,,,,,,,,1.8674,,,,,,,,,,,,,,,,,,,,,,60fcde377ed6a23279394b7a,61036bb94c5946437063b14e,2021-07-29_21h08.24.829,Simcolourproject_2stim_asymm_v5,2020.2.10,MacIntel,60,61025ae37ef11b136ea224fe,,,,,,,,,466,72.61328125,-50.77734375,1,0,0,response3disk,,5,11.578125,5.36328125,1,0,0,rectangle,11.578125,5.36328125,1,0,0,11.578125,5.36328125,1,0,0,0,140,140,44,1,,,,,,,,
,,,,,,,,,,,,,FF,,,,,,,,1.1005,,,,,,,,,,,,,,,,,,,,,,60fcde377ed6a23279394b7a,61036bb94c5946437063b14e,2021-07-29_21h08.24.829,Simcolourproject_2stim_asymm_v5,2020.2.10,MacIntel,60,61025ae37ef11b136ea224fe,,,,,,,,,209,82.1953125,50.30078125,1,0,0,response1disk,,6,13.64453125,-0.4609375,1,0,0,rectangle,13.64453125,-0.4609375,1,0,0,13.64453125,-0.4609375,1,0,0,0,141,141,50,1,,,,,,,,
,,,,,,,,,,,,,FF,,,,,,,,1.7026,,,,,,,,,,,,,,,,,,,,,,60fcde377ed6a23279394b7a,61036bb94c5946437063b14e,2021-07-29_21h08.24.829,Simcolourproject_2stim_asymm_v5,2020.2.10,MacIntel,60,61025ae37ef11b136ea224fe,,,,,,,,,59,69.96484375,-37.453125,1,0,0,response3disk,,5,12.19921875,2.7265625,1,0,0,rectangle,-28.703125,-83.0078125,1,0,0,3,-0.5625,1,0,0,0,142,142,22,1,,response5disk_3,TRUE,3,3,"[268,276,143,162,78,314,217,194,99,125,262,255,296,48,261,258,14,248,134,137]",1.4175,rectangle
,,,,,,,,,,,,,FF,,,,,,,,1.6508,,,,,,,,,,,,,,,,,,,,,,60fcde377ed6a23279394b7a,61036bb94c5946437063b14e,2021-07-29_21h08.24.829,Simcolourproject_2stim_asymm_v5,2020.2.10,MacIntel,60,61025ae37ef11b136ea224fe,,,,,,,,,3649,44.5625,88.359375,1,0,0,response1disk,,7,7.55078125,-2.3359375,1,0,0,rectangle,7.55078125,-2.3359375,1,0,0,7.55078125,-2.3359375,1,0,0,0,143,143,150,1,,,,,,,,
,,,,,,,,,,,,,FF,,,,,,,,2.3343,,,,,,,,,,,,,,,,,,,,,,60fcde377ed6a23279394b7a,61036bb94c5946437063b14e,2021-07-29_21h08.24.829,Simcolourproject_2stim_asymm_v5,2020.2.10,MacIntel,60,61025ae37ef11b136ea224fe,,,,,,,,,346,-46.80859375,-71.29296875,1,0,0,response5disk,,3,9.9375,0.359375,1,0,0,rectangle,9.9375,0.359375,1,0,0,9.9375,0.359375,1,0,0,0,144,144,3,1,,,,,,,,
,,,,,,,,,,,,,FF,,,,,,,,1.3507,,,,,,,,,,,,,,,,,,,,,,60fcde377ed6a23279394b7a,61036bb94c5946437063b14e,2021-07-29_21h08.24.829,Simcolourproject_2stim_asymm_v5,2020.2.10,MacIntel,60,61025ae37ef11b136ea224fe,,,,,,,,,1092,63.9296875,-27.4375,1,0,0,response3disk,,5,5.375,8.625,1,0,0,rectangle,5.375,8.625,1,0,0,5.375,8.625,1,0,0,0,145,145,110,1,,,,,,,,
,,,,,,,,,,,,,FF,,,,,,,,1.0009,,,,,,,,,,,,,,,,,,,,,,60fcde377ed6a23279394b7a,61036bb94c5946437063b14e,2021-07-29_21h08.24.829,Simcolourproject_2stim_asymm_v5,2020.2.10,MacIntel,60,61025ae37ef11b136ea224fe,,,,,,,,,1301,-39.2578125,-88.15234375,1,0,0,response5disk,,3,-13.43359375,-1.52734375,1,0,0,rectangle,-13.43359375,-1.52734375,1,0,0,-13.43359375,-1.52734375,1,0,0,0,146,146,152,1,,,,,,,,
,,,,,,,,,,,,,FF,,,,,,,,1.0999,,,,,,,,,,,,,,,,,,,,,,60fcde377ed6a23279394b7a,61036bb94c5946437063b14e,2021-07-29_21h08.24.829,Simcolourproject_2stim_asymm_v5,2020.2.10,MacIntel,60,61025ae37ef11b136ea224fe,,,,,,,,,3994,-65.26171875,-48.90625,1,0,0,response5disk,,2,-13.84375,-1.10546875,1,0,0,rectangle,-13.84375,-1.10546875,1,0,0,-13.84375,-1.10546875,1,0,0,0,147,147,137,1,,,,,,,,
,,,,,,,,,,,,,FF,,,,,,,,0.7159,,,,,,,,,,,,,,,,,,,,,,60fcde377ed6a23279394b7a,61036bb94c5946437063b14e,2021-07-29_21h08.24.829,Simcolourproject_2stim_asymm_v5,2020.2.10,MacIntel,60,61025ae37ef11b136ea224fe,,,,,,,,,2292,-63.5234375,-20.51171875,1,0,0,response5disk,,2,-9.390625,1.64453125,1,0,0,rectangle,-9.390625,1.64453125,1,0,0,-9.390625,1.64453125,1,0,0,0,148,148,23,1,,,,,,,,
,,,,,,,,,,,,,FF,,,,,,,,0.8006,,,,,,,,,,,,,,,,,,,,,,60fcde377ed6a23279394b7a,61036bb94c5946437063b14e,2021-07-29_21h08.24.829,Simcolourproject_2stim_asymm_v5,2020.2.10,MacIntel,60,61025ae37ef11b136ea224fe,,,,,,,,,792,59.625,114.0117188,1,0,0,response1disk,,7,10.8984375,15.515625,1,0,0,rectangle,10.8984375,15.515625,1,0,0,10.8984375,15.515625,1,0,0,0,149,149,51,1,,,,,,,,
,,,,,,,,,,,,,FF,,,,,,,,0.7006,,,,,,,,,,,,,,,,,,,,,,60fcde377ed6a23279394b7a,61036bb94c5946437063b14e,2021-07-29_21h08.24.829,Simcolourproject_2stim_asymm_v5,2020.2.10,MacIntel,60,61025ae37ef11b136ea224fe,,,,,,,,,1634,43.97265625,99.9921875,1,0,0,response1disk,,7,0.2578125,-4.40625,1,0,0,rectangle,0.2578125,-4.40625,1,0,0,0.2578125,-4.40625,1,0,0,0,150,150,59,1,,,,,,,,
,,,,,,,,,,,,,FF,,,,,,,,1.2007,,,,,,,,,,,,,,,,,,,,,,60fcde377ed6a23279394b7a,61036bb94c5946437063b14e,2021-07-29_21h08.24.829,Simcolourproject_2stim_asymm_v5,2020.2.10,MacIntel,60,61025ae37ef11b136ea224fe,,,,,,,,,2652,-67.4921875,-34.4296875,1,0,0,response5disk,,2,-28.51953125,-1.76171875,1,0,0,rectangle,-28.51953125,-1.76171875,1,0,0,-28.51953125,-1.76171875,1,0,0,0,151,151,131,1,,,,,,,,
,,,,,,,,,,,,,FF,,,,,,,,1.2177,,,,,,,,,,,,,,,,,,,,,,60fcde377ed6a23279394b7a,61036bb94c5946437063b14e,2021-07-29_21h08.24.829,Simcolourproject_2stim_asymm_v5,2020.2.10,MacIntel,60,61025ae37ef11b136ea224fe,,,,,,,,,63,-30.984375,-76.64453125,1,0,0,response5disk,,3,2.8984375,1.3515625,1,0,0,rectangle,2.8984375,1.3515625,1,0,0,2.8984375,1.3515625,1,0,0,0,152,152,18,1,,,,,,,,
,,,,,,,,,,,,,FF,,,,,,,,1.5176,,,,,,,,,,,,,,,,,,,,,,60fcde377ed6a23279394b7a,61036bb94c5946437063b14e,2021-07-29_21h08.24.829,Simcolourproject_2stim_asymm_v5,2020.2.10,MacIntel,60,61025ae37ef11b136ea224fe,,,,,,,,,123,68.85546875,-41.28515625,1,0,0,response3disk,,5,4.79296875,2.30078125,1,0,0,rectangle,4.79296875,2.30078125,1,0,0,4.79296875,2.30078125,1,0,0,0,153,153,27,1,,,,,,,,
,,,,,,,,,,,,,FF,,,,,,,,1.1341,,,,,,,,,,,,,,,,,,,,,,60fcde377ed6a23279394b7a,61036bb94c5946437063b14e,2021-07-29_21h08.24.829,Simcolourproject_2stim_asymm_v5,2020.2.10,MacIntel,60,61025ae37ef11b136ea224fe,,,,,,,,,365,92.91796875,35.00390625,1,0,0,response1disk,,6,14.43359375,11.609375,1,0,0,rectangle,14.43359375,11.609375,1,0,0,14.43359375,11.609375,1,0,0,0,154,154,48,1,,,,,,,,
,,,,,,,,,,,,,FF,,,,,,,,0.8834,,,,,,,,,,,,,,,,,,,,,,60fcde377ed6a23279394b7a,61036bb94c5946437063b14e,2021-07-29_21h08.24.829,Simcolourproject_2stim_asymm_v5,2020.2.10,MacIntel,60,61025ae37ef11b136ea224fe,,,,,,,,,3507,-33.49609375,-84.64453125,1,0,0,response5disk,,3,-11.41796875,-2.6953125,1,0,0,rectangle,-11.41796875,-2.6953125,1,0,0,-11.41796875,-2.6953125,1,0,0,0,155,155,74,1,,,,,,,,
,,,,,,,,,,,,,FF,,,,,,,,1.2837,,,,,,,,,,,,,,,,,,,,,,60fcde377ed6a23279394b7a,61036bb94c5946437063b14e,2021-07-29_21h08.24.829,Simcolourproject_2stim_asymm_v5,2020.2.10,MacIntel,60,61025ae37ef11b136ea224fe,,,,,,,,,728,70.34765625,-51.26171875,1,0,0,response3disk,,5,14.1015625,-6.15234375,1,0,0,rectangle,14.1015625,-6.15234375,1,0,0,14.1015625,-6.15234375,1,0,0,0,156,156,139,1,,,,,,,,
,,,,,,,,,,,,,FF,,,,,,,,0.7345,,,,,,,,,,,,,,,,,,,,,,60fcde377ed6a23279394b7a,61036bb94c5946437063b14e,2021-07-29_21h08.24.829,Simcolourproject_2stim_asymm_v5,2020.2.10,MacIntel,60,61025ae37ef11b136ea224fe,,,,,,,,,3072,65.84765625,53.6015625,1,0,0,response1disk,,6,4.1953125,-2.30078125,1,0,0,rectangle,4.1953125,-2.30078125,1,0,0,4.1953125,-2.30078125,1,0,0,0,157,157,105,1,,,,,,,,
,,,,,,,,,,,,,FF,,,,,,,,2.0516,,,,,,,,,,,,,,,,,,,,,,60fcde377ed6a23279394b7a,61036bb94c5946437063b14e,2021-07-29_21h08.24.829,Simcolourproject_2stim_asymm_v5,2020.2.10,MacIntel,60,61025ae37ef11b136ea224fe,,,,,,,,,2467,64.703125,-31.4296875,1,0,0,response3disk,,5,5.48828125,-3.5390625,1,0,0,rectangle,5.48828125,-3.5390625,1,0,0,5.48828125,-3.5390625,1,0,0,0,158,158,56,1,,,,,,,,
,,,,,,,,,,,,,FF,,,,,,,,0.7,,,,,,,,,,,,,,,,,,,,,,60fcde377ed6a23279394b7a,61036bb94c5946437063b14e,2021-07-29_21h08.24.829,Simcolourproject_2stim_asymm_v5,2020.2.10,MacIntel,60,61025ae37ef11b136ea224fe,,,,,,,,,983,74.23828125,-37.17578125,1,0,0,response3disk,,5,-3.45703125,3.015625,1,0,0,rectangle,-3.45703125,3.015625,1,0,0,-3.45703125,3.015625,1,0,0,0,159,159,128,1,,,,,,,,
,,,,,,,,,,,,,FF,,,,,,,,1.0012,,,,,,,,,,,,,,,,,,,,,,60fcde377ed6a23279394b7a,61036bb94c5946437063b14e,2021-07-29_21h08.24.829,Simcolourproject_2stim_asymm_v5,2020.2.10,MacIntel,60,61025ae37ef11b136ea224fe,,,,,,,,,3074,83.5078125,34.52734375,1,0,0,response1disk,,6,2.66796875,3.96875,1,0,0,rectangle,2.66796875,3.96875,1,0,0,2.66796875,3.96875,1,0,0,1,0,160,13,1,,,,,,,,
,,,,,,,,,,,,,FF,,,,,,,,0.7998,,,,,,,,,,,,,,,,,,,,,,60fcde377ed6a23279394b7a,61036bb94c5946437063b14e,2021-07-29_21h08.24.829,Simcolourproject_2stim_asymm_v5,2020.2.10,MacIntel,60,61025ae37ef11b136ea224fe,,,,,,,,,3058,-36.2109375,-65.87109375,1,0,0,response5disk,,3,-21.87109375,2.4140625,1,0,0,rectangle,93.2734375,41.46484375,1,0,0,-14.5859375,7.12890625,1,0,0,1,1,161,58,1,,response1disk_3,TRUE,6,6,"[268,276,143,162,78,314,217,194,99,125,262,255,296,48,261,258,14,248,134,137]",1.9328,rectangle
,,,,,,,,,,,,,FF,,,,,,,,5.1023,,,,,,,,,,,,,,,,,,,,,,60fcde377ed6a23279394b7a,61036bb94c5946437063b14e,2021-07-29_21h08.24.829,Simcolourproject_2stim_asymm_v5,2020.2.10,MacIntel,60,61025ae37ef11b136ea224fe,,,,,,,,,3527,27.4453125,-70.0703125,1,0,0,response3disk,,4,3.203125,-4.265625,1,0,0,rectangle,3.203125,-4.265625,1,0,0,3.203125,-4.265625,1,0,0,1,2,162,129,1,,,,,,,,
,,,,,,,,,,,,,FF,,,,,,,,0.9017,,,,,,,,,,,,,,,,,,,,,,60fcde377ed6a23279394b7a,61036bb94c5946437063b14e,2021-07-29_21h08.24.829,Simcolourproject_2stim_asymm_v5,2020.2.10,MacIntel,60,61025ae37ef11b136ea224fe,,,,,,,,,482,53.9453125,-28.015625,1,0,0,response3disk,,5,10.73828125,-2.5,1,0,0,rectangle,10.73828125,-2.5,1,0,0,10.73828125,-2.5,1,0,0,1,3,163,134,1,,,,,,,,
,,,,,,,,,,,,,FF,,,,,,,,0.8839,,,,,,,,,,,,,,,,,,,,,,60fcde377ed6a23279394b7a,61036bb94c5946437063b14e,2021-07-29_21h08.24.829,Simcolourproject_2stim_asymm_v5,2020.2.10,MacIntel,60,61025ae37ef11b136ea224fe,,,,,,,,,3033,72.5546875,57.80078125,1,0,0,response1disk,,6,13.3515625,-1.140625,1,0,0,rectangle,13.3515625,-1.140625,1,0,0,13.3515625,-1.140625,1,0,0,1,4,164,23,1,,,,,,,,
,,,,,,,,,,,,,FF,,,,,,,,0.9183,,,,,,,,,,,,,,,,,,,,,,60fcde377ed6a23279394b7a,61036bb94c5946437063b14e,2021-07-29_21h08.24.829,Simcolourproject_2stim_asymm_v5,2020.2.10,MacIntel,60,61025ae37ef11b136ea224fe,,,,,,,,,1218,-50.50390625,-68.57421875,1,0,0,response5disk,,3,-13.6015625,-7.09765625,1,0,0,rectangle,-13.6015625,-7.09765625,1,0,0,-13.6015625,-7.09765625,1,0,0,1,5,165,156,1,,,,,,,,
,,,,,,,,,,,,,FF,,,,,,,,1.1842,,,,,,,,,,,,,,,,,,,,,,60fcde377ed6a23279394b7a,61036bb94c5946437063b14e,2021-07-29_21h08.24.829,Simcolourproject_2stim_asymm_v5,2020.2.10,MacIntel,60,61025ae37ef11b136ea224fe,,,,,,,,,2036,46.71484375,-72.35546875,1,0,0,response3disk,,4,7.56640625,-7.7578125,1,0,0,rectangle,7.56640625,-7.7578125,1,0,0,7.56640625,-7.7578125,1,0,0,1,6,166,12,1,,,,,,,,
,,,,,,,,,,,,,FF,,,,,,,,3.601,,,,,,,,,,,,,,,,,,,,,,60fcde377ed6a23279394b7a,61036bb94c5946437063b14e,2021-07-29_21h08.24.829,Simcolourproject_2stim_asymm_v5,2020.2.10,MacIntel,60,61025ae37ef11b136ea224fe,,,,,,,,,2812,80.7421875,-36.03125,1,0,0,response3disk,,5,12.11328125,-10.9921875,1,0,0,rectangle,12.11328125,-10.9921875,1,0,0,12.11328125,-10.9921875,1,0,0,1,7,167,83,1,,,,,,,,
,,,,,,,,,,,,,FF,,,,,,,,0.9833,,,,,,,,,,,,,,,,,,,,,,60fcde377ed6a23279394b7a,61036bb94c5946437063b14e,2021-07-29_21h08.24.829,Simcolourproject_2stim_asymm_v5,2020.2.10,MacIntel,60,61025ae37ef11b136ea224fe,,,,,,,,,2015,104.4179688,57.2734375,1,0,0,response1disk,,6,6.078125,1.8046875,1,0,0,rectangle,6.078125,1.8046875,1,0,0,6.078125,1.8046875,1,0,0,1,8,168,25,1,,,,,,,,
,,,,,,,,,,,,,FF,,,,,,,,0.8333,,,,,,,,,,,,,,,,,,,,,,60fcde377ed6a23279394b7a,61036bb94c5946437063b14e,2021-07-29_21h08.24.829,Simcolourproject_2stim_asymm_v5,2020.2.10,MacIntel,60,61025ae37ef11b136ea224fe,,,,,,,,,1829,28.3046875,-88.67578125,1,0,0,response3disk,,4,19.35546875,10.85546875,1,0,0,rectangle,19.35546875,10.85546875,1,0,0,19.35546875,10.85546875,1,0,0,1,9,169,53,1,,,,,,,,
,,,,,,,,,,,,,FF,,,,,,,,0.9337,,,,,,,,,,,,,,,,,,,,,,60fcde377ed6a23279394b7a,61036bb94c5946437063b14e,2021-07-29_21h08.24.829,Simcolourproject_2stim_asymm_v5,2020.2.10,MacIntel,60,61025ae37ef11b136ea224fe,,,,,,,,,4146,-56.2421875,-66.4609375,1,0,0,response5disk,,3,-12.98828125,7.12890625,1,0,0,rectangle,-12.98828125,7.12890625,1,0,0,-12.98828125,7.12890625,1,0,0,1,10,170,111,1,,,,,,,,
,,,,,,,,,,,,,FF,,,,,,,,0.8169,,,,,,,,,,,,,,,,,,,,,,60fcde377ed6a23279394b7a,61036bb94c5946437063b14e,2021-07-29_21h08.24.829,Simcolourproject_2stim_asymm_v5,2020.2.10,MacIntel,60,61025ae37ef11b136ea224fe,,,,,,,,,1689,82.97265625,-35.11328125,1,0,0,response3disk,,5,-6.01953125,-4.609375,1,0,0,rectangle,-6.01953125,-4.609375,1,0,0,-6.01953125,-4.609375,1,0,0,1,11,171,87,1,,,,,,,,
,,,,,,,,,,,,,FF,,,,,,,,0.8015,,,,,,,,,,,,,,,,,,,,,,60fcde377ed6a23279394b7a,61036bb94c5946437063b14e,2021-07-29_21h08.24.829,Simcolourproject_2stim_asymm_v5,2020.2.10,MacIntel,60,61025ae37ef11b136ea224fe,,,,,,,,,2635,74.7421875,28.6875,1,0,0,response1disk,,6,7.4453125,-5.56640625,1,0,0,rectangle,7.4453125,-5.56640625,1,0,0,7.4453125,-5.56640625,1,0,0,1,12,172,5,1,,,,,,,,
,,,,,,,,,,,,,FF,,,,,,,,1.0353,,,,,,,,,,,,,,,,,,,,,,60fcde377ed6a23279394b7a,61036bb94c5946437063b14e,2021-07-29_21h08.24.829,Simcolourproject_2stim_asymm_v5,2020.2.10,MacIntel,60,61025ae37ef11b136ea224fe,,,,,,,,,673,79.5390625,38.21484375,1,0,0,response1disk,,6,15.328125,7.02734375,1,0,0,rectangle,15.328125,7.02734375,1,0,0,15.328125,7.02734375,1,0,0,1,13,173,110,1,,,,,,,,
,,,,,,,,,,,,,FF,,,,,,,,0.8337,,,,,,,,,,,,,,,,,,,,,,60fcde377ed6a23279394b7a,61036bb94c5946437063b14e,2021-07-29_21h08.24.829,Simcolourproject_2stim_asymm_v5,2020.2.10,MacIntel,60,61025ae37ef11b136ea224fe,,,,,,,,,4367,-88.31640625,-46.796875,1,0,0,response5disk,,2,-19.30859375,5.671875,1,0,0,rectangle,-19.30859375,5.671875,1,0,0,-19.30859375,5.671875,1,0,0,1,14,174,73,1,,,,,,,,
,,,,,,,,,,,,,FF,,,,,,,,2.4678,,,,,,,,,,,,,,,,,,,,,,60fcde377ed6a23279394b7a,61036bb94c5946437063b14e,2021-07-29_21h08.24.829,Simcolourproject_2stim_asymm_v5,2020.2.10,MacIntel,60,61025ae37ef11b136ea224fe,,,,,,,,,1096,61.75,61.24609375,1,0,0,response1disk,,6,-5.359375,-11.109375,1,0,0,rectangle,-5.359375,-11.109375,1,0,0,-5.359375,-11.109375,1,0,0,1,15,175,84,1,,,,,,,,
,,,,,,,,,,,,,FF,,,,,,,,1.1513,,,,,,,,,,,,,,,,,,,,,,60fcde377ed6a23279394b7a,61036bb94c5946437063b14e,2021-07-29_21h08.24.829,Simcolourproject_2stim_asymm_v5,2020.2.10,MacIntel,60,61025ae37ef11b136ea224fe,,,,,,,,,253,-45.2421875,-61.07421875,1,0,0,response5disk,,3,-12.4296875,6.55078125,1,0,0,rectangle,-12.4296875,6.55078125,1,0,0,-12.4296875,6.55078125,1,0,0,1,16,176,28,1,,,,,,,,
,,,,,,,,,,,,,FF,,,,,,,,0.9012,,,,,,,,,,,,,,,,,,,,,,60fcde377ed6a23279394b7a,61036bb94c5946437063b14e,2021-07-29_21h08.24.829,Simcolourproject_2stim_asymm_v5,2020.2.10,MacIntel,60,61025ae37ef11b136ea224fe,,,,,,,,,3484,53.35546875,20.7265625,1,0,0,response1disk,,6,0.1875,-11.671875,1,0,0,rectangle,0.1875,-11.671875,1,0,0,0.1875,-11.671875,1,0,0,1,17,177,120,1,,,,,,,,
,,,,,,,,,,,,,FF,,,,,,,,0.7506,,,,,,,,,,,,,,,,,,,,,,60fcde377ed6a23279394b7a,61036bb94c5946437063b14e,2021-07-29_21h08.24.829,Simcolourproject_2stim_asymm_v5,2020.2.10,MacIntel,60,61025ae37ef11b136ea224fe,,,,,,,,,4026,92.3828125,37.94140625,1,0,0,response1disk,,6,14.90234375,2.0546875,1,0,0,rectangle,14.90234375,2.0546875,1,0,0,14.90234375,2.0546875,1,0,0,1,18,178,123,1,,,,,,,,
,,,,,,,,,,,,,FF,,,,,,,,0.7836,,,,,,,,,,,,,,,,,,,,,,60fcde377ed6a23279394b7a,61036bb94c5946437063b14e,2021-07-29_21h08.24.829,Simcolourproject_2stim_asymm_v5,2020.2.10,MacIntel,60,61025ae37ef11b136ea224fe,,,,,,,,,3019,95.12109375,64.50390625,1,0,0,response1disk,,6,5.44140625,2.26171875,1,0,0,rectangle,5.44140625,2.26171875,1,0,0,5.44140625,2.26171875,1,0,0,1,19,179,132,1,,,,,,,,
,,,,,,,,,,,,,FF,,,,,,,,0.7836,,,,,,,,,,,,,,,,,,,,,,60fcde377ed6a23279394b7a,61036bb94c5946437063b14e,2021-07-29_21h08.24.829,Simcolourproject_2stim_asymm_v5,2020.2.10,MacIntel,60,61025ae37ef11b136ea224fe,,,,,,,,,3178,76.59765625,41.7109375,1,0,0,response1disk,,6,2.80859375,5.8359375,1,0,0,rectangle,2.80859375,5.8359375,1,0,0,2.80859375,5.8359375,1,0,0,1,20,180,154,1,,,,,,,,
,,,,,,,,,,,,,FF,,,,,,,,0.7843,,,,,,,,,,,,,,,,,,,,,,60fcde377ed6a23279394b7a,61036bb94c5946437063b14e,2021-07-29_21h08.24.829,Simcolourproject_2stim_asymm_v5,2020.2.10,MacIntel,60,61025ae37ef11b136ea224fe,,,,,,,,,3687,50.8359375,91.71484375,1,0,0,response1disk,,7,7.7109375,4.32421875,1,0,0,rectangle,7.7109375,4.32421875,1,0,0,7.7109375,4.32421875,1,0,0,1,21,181,0,1,,,,,,,,
,,,,,,,,,,,,,FF,,,,,,,,0.7836,,,,,,,,,,,,,,,,,,,,,,60fcde377ed6a23279394b7a,61036bb94c5946437063b14e,2021-07-29_21h08.24.829,Simcolourproject_2stim_asymm_v5,2020.2.10,MacIntel,60,61025ae37ef11b136ea224fe,,,,,,,,,3696,44.7734375,71.5,1,0,0,response1disk,,7,5.1171875,-10.62109375,1,0,0,rectangle,5.1171875,-10.62109375,1,0,0,5.1171875,-10.62109375,1,0,0,1,22,182,4,1,,,,,,,,
,,,,,,,,,,,,,FF,,,,,,,,0.9851,,,,,,,,,,,,,,,,,,,,,,60fcde377ed6a23279394b7a,61036bb94c5946437063b14e,2021-07-29_21h08.24.829,Simcolourproject_2stim_asymm_v5,2020.2.10,MacIntel,60,61025ae37ef11b136ea224fe,,,,,,,,,2993,-50.4921875,87.55078125,1,0,0,response7disk,,0,-12.58984375,-12.125,1,0,0,rectangle,-12.58984375,-12.125,1,0,0,-12.58984375,-12.125,1,0,0,1,23,183,130,1,,,,,,,,
,,,,,,,,,,,,,FF,,,,,,,,1.3156,,,,,,,,,,,,,,,,,,,,,,60fcde377ed6a23279394b7a,61036bb94c5946437063b14e,2021-07-29_21h08.24.829,Simcolourproject_2stim_asymm_v5,2020.2.10,MacIntel,60,61025ae37ef11b136ea224fe,,,,,,,,,2378,-21.01953125,-77.33203125,1,0,0,response5disk,,3,-3.6015625,11.2734375,1,0,0,rectangle,-3.6015625,11.2734375,1,0,0,-3.6015625,11.2734375,1,0,0,1,24,184,51,1,,,,,,,,
,,,,,,,,,,,,,FF,,,,,,,,1.1008,,,,,,,,,,,,,,,,,,,,,,60fcde377ed6a23279394b7a,61036bb94c5946437063b14e,2021-07-29_21h08.24.829,Simcolourproject_2stim_asymm_v5,2020.2.10,MacIntel,60,61025ae37ef11b136ea224fe,,,,,,,,,4194,59.5390625,-35.92578125,1,0,0,response3disk,,5,12.453125,2.015625,1,0,0,rectangle,12.453125,2.015625,1,0,0,12.453125,2.015625,1,0,0,1,25,185,117,1,,,,,,,,
,,,,,,,,,,,,,FF,,,,,,,,1.0678,,,,,,,,,,,,,,,,,,,,,,60fcde377ed6a23279394b7a,61036bb94c5946437063b14e,2021-07-29_21h08.24.829,Simcolourproject_2stim_asymm_v5,2020.2.10,MacIntel,60,61025ae37ef11b136ea224fe,,,,,,,,,3101,41.35546875,-67.0703125,1,0,0,response3disk,,4,14.43359375,-12.25390625,1,0,0,rectangle,14.43359375,-12.25390625,1,0,0,14.43359375,-12.25390625,1,0,0,1,26,186,49,1,,,,,,,,
,,,,,,,,,,,,,FF,,,,,,,,1.0844,,,,,,,,,,,,,,,,,,,,,,60fcde377ed6a23279394b7a,61036bb94c5946437063b14e,2021-07-29_21h08.24.829,Simcolourproject_2stim_asymm_v5,2020.2.10,MacIntel,60,61025ae37ef11b136ea224fe,,,,,,,,,1857,92.6015625,48.703125,1,0,0,response1disk,,6,1.9453125,12.953125,1,0,0,rectangle,1.9453125,12.953125,1,0,0,1.9453125,12.953125,1,0,0,1,27,187,81,1,,,,,,,,
,,,,,,,,,,,,,FF,,,,,,,,0.5668,,,,,,,,,,,,,,,,,,,,,,60fcde377ed6a23279394b7a,61036bb94c5946437063b14e,2021-07-29_21h08.24.829,Simcolourproject_2stim_asymm_v5,2020.2.10,MacIntel,60,61025ae37ef11b136ea224fe,,,,,,,,,1859,78.9453125,44.3046875,1,0,0,response1disk,,6,4.66796875,-8.1953125,1,0,0,rectangle,4.66796875,-8.1953125,1,0,0,4.66796875,-8.1953125,1,0,0,1,28,188,157,1,,,,,,,,
,,,,,,,,,,,,,FF,,,,,,,,0.9504,,,,,,,,,,,,,,,,,,,,,,60fcde377ed6a23279394b7a,61036bb94c5946437063b14e,2021-07-29_21h08.24.829,Simcolourproject_2stim_asymm_v5,2020.2.10,MacIntel,60,61025ae37ef11b136ea224fe,,,,,,,,,3090,28.17578125,-94.58984375,1,0,0,response3disk,,4,5.796875,2.31640625,1,0,0,rectangle,5.796875,2.31640625,1,0,0,5.796875,2.31640625,1,0,0,1,29,189,63,1,,,,,,,,
,,,,,,,,,,,,,FF,,,,,,,,2.7351,,,,,,,,,,,,,,,,,,,,,,60fcde377ed6a23279394b7a,61036bb94c5946437063b14e,2021-07-29_21h08.24.829,Simcolourproject_2stim_asymm_v5,2020.2.10,MacIntel,60,61025ae37ef11b136ea224fe,,,,,,,,,1387,42.65625,-70.8046875,1,0,0,response3disk,,4,12.640625,5.703125,1,0,0,rectangle,12.640625,5.703125,1,0,0,12.640625,5.703125,1,0,0,1,30,190,22,1,,,,,,,,
,,,,,,,,,,,,,FF,,,,,,,,1.6019,,,,,,,,,,,,,,,,,,,,,,60fcde377ed6a23279394b7a,61036bb94c5946437063b14e,2021-07-29_21h08.24.829,Simcolourproject_2stim_asymm_v5,2020.2.10,MacIntel,60,61025ae37ef11b136ea224fe,,,,,,,,,2950,37.703125,-46.60546875,1,0,0,response3disk,,4,10.72265625,-4.203125,1,0,0,rectangle,10.72265625,-4.203125,1,0,0,10.72265625,-4.203125,1,0,0,1,31,191,80,1,,,,,,,,
,,,,,,,,,,,,,FF,,,,,,,,2.0839,,,,,,,,,,,,,,,,,,,,,,60fcde377ed6a23279394b7a,61036bb94c5946437063b14e,2021-07-29_21h08.24.829,Simcolourproject_2stim_asymm_v5,2020.2.10,MacIntel,60,61025ae37ef11b136ea224fe,,,,,,,,,1197,66.7734375,-37.78515625,1,0,0,response3disk,,5,-2.16796875,0.16796875,1,0,0,rectangle,-2.16796875,0.16796875,1,0,0,-2.16796875,0.16796875,1,0,0,1,32,192,146,1,,,,,,,,
,,,,,,,,,,,,,FF,,,,,,,,1.0832,,,,,,,,,,,,,,,,,,,,,,60fcde377ed6a23279394b7a,61036bb94c5946437063b14e,2021-07-29_21h08.24.829,Simcolourproject_2stim_asymm_v5,2020.2.10,MacIntel,60,61025ae37ef11b136ea224fe,,,,,,,,,3538,78.5390625,52.4140625,1,0,0,response1disk,,6,0.921875,2.0546875,1,0,0,rectangle,-48.0703125,72.05859375,1,0,0,-16.1328125,-5.0546875,1,0,0,1,33,193,158,1,,response7disk_3,TRUE,0,0,"[268,276,143,162,78,314,217,194,99,125,262,255,296,48,261,258,14,248,134,137]",1.3519,rectangle
,,,,,,,,,,,,,FF,,,,,,,,0.9832,,,,,,,,,,,,,,,,,,,,,,60fcde377ed6a23279394b7a,61036bb94c5946437063b14e,2021-07-29_21h08.24.829,Simcolourproject_2stim_asymm_v5,2020.2.10,MacIntel,60,61025ae37ef11b136ea224fe,,,,,,,,,4177,66.16015625,95.28515625,1,0,0,response1disk,,7,8.01171875,12.02734375,1,0,0,rectangle,8.01171875,12.02734375,1,0,0,8.01171875,12.02734375,1,0,0,1,34,194,78,1,,,,,,,,
,,,,,,,,,,,,,FF,,,,,,,,1.2165,,,,,,,,,,,,,,,,,,,,,,60fcde377ed6a23279394b7a,61036bb94c5946437063b14e,2021-07-29_21h08.24.829,Simcolourproject_2stim_asymm_v5,2020.2.10,MacIntel,60,61025ae37ef11b136ea224fe,,,,,,,,,2682,85.6796875,42.8046875,1,0,0,response1disk,,6,11.6015625,12.40625,1,0,0,rectangle,11.6015625,12.40625,1,0,0,11.6015625,12.40625,1,0,0,1,35,195,98,1,,,,,,,,
,,,,,,,,,,,,,FF,,,,,,,,0.9489,,,,,,,,,,,,,,,,,,,,,,60fcde377ed6a23279394b7a,61036bb94c5946437063b14e,2021-07-29_21h08.24.829,Simcolourproject_2stim_asymm_v5,2020.2.10,MacIntel,60,61025ae37ef11b136ea224fe,,,,,,,,,3917,-38.6484375,-79.96875,1,0,0,response5disk,,3,-8.5546875,-3.56640625,1,0,0,rectangle,-8.5546875,-3.56640625,1,0,0,-8.5546875,-3.56640625,1,0,0,1,36,196,62,1,,,,,,,,
,,,,,,,,,,,,,FF,,,,,,,,2.3352,,,,,,,,,,,,,,,,,,,,,,60fcde377ed6a23279394b7a,61036bb94c5946437063b14e,2021-07-29_21h08.24.829,Simcolourproject_2stim_asymm_v5,2020.2.10,MacIntel,60,61025ae37ef11b136ea224fe,,,,,,,,,3955,78.4375,30.69921875,1,0,0,response1disk,,6,9.56640625,9.3671875,1,0,0,rectangle,9.56640625,9.3671875,1,0,0,9.56640625,9.3671875,1,0,0,1,37,197,105,1,,,,,,,,
,,,,,,,,,,,,,FF,,,,,,,,1.0009,,,,,,,,,,,,,,,,,,,,,,60fcde377ed6a23279394b7a,61036bb94c5946437063b14e,2021-07-29_21h08.24.829,Simcolourproject_2stim_asymm_v5,2020.2.10,MacIntel,60,61025ae37ef11b136ea224fe,,,,,,,,,1633,28.65234375,70.6796875,1,0,0,response1disk,,7,6.00390625,-6.28515625,1,0,0,rectangle,6.00390625,-6.28515625,1,0,0,6.00390625,-6.28515625,1,0,0,1,38,198,18,1,,,,,,,,
,,,,,,,,,,,,,FF,,,,,,,,0.6667,,,,,,,,,,,,,,,,,,,,,,60fcde377ed6a23279394b7a,61036bb94c5946437063b14e,2021-07-29_21h08.24.829,Simcolourproject_2stim_asymm_v5,2020.2.10,MacIntel,60,61025ae37ef11b136ea224fe,,,,,,,,,2192,37.3359375,81.16796875,1,0,0,response1disk,,7,-15.12890625,-3.83203125,1,0,0,rectangle,-15.12890625,-3.83203125,1,0,0,-15.12890625,-3.83203125,1,0,0,1,39,199,31,1,,,,,,,,
,,,,,,,,,,,,,FF,,,,,,,,1.1992,,,,,,,,,,,,,,,,,,,,,,60fcde377ed6a23279394b7a,61036bb94c5946437063b14e,2021-07-29_21h08.24.829,Simcolourproject_2stim_asymm_v5,2020.2.10,MacIntel,60,61025ae37ef11b136ea224fe,,,,,,,,,577,85.41015625,-42.50390625,1,0,0,response3disk,,5,-5.39453125,-12.99609375,1,0,0,rectangle,-5.39453125,-12.99609375,1,0,0,-5.39453125,-12.99609375,1,0,0,1,40,200,60,1,,,,,,,,
,,,,,,,,,,,,,FF,,,,,,,,1.7504,,,,,,,,,,,,,,,,,,,,,,60fcde377ed6a23279394b7a,61036bb94c5946437063b14e,2021-07-29_21h08.24.829,Simcolourproject_2stim_asymm_v5,2020.2.10,MacIntel,60,61025ae37ef11b136ea224fe,,,,,,,,,4003,35.1875,-66.48046875,1,0,0,response3disk,,4,18.22265625,-7.45703125,1,0,0,rectangle,18.22265625,-7.45703125,1,0,0,18.22265625,-7.45703125,1,0,0,1,41,201,40,1,,,,,,,,
,,,,,,,,,,,,,FF,,,,,,,,1.1671,,,,,,,,,,,,,,,,,,,,,,60fcde377ed6a23279394b7a,61036bb94c5946437063b14e,2021-07-29_21h08.24.829,Simcolourproject_2stim_asymm_v5,2020.2.10,MacIntel,60,61025ae37ef11b136ea224fe,,,,,,,,,1212,-68.2421875,-34.61328125,1,0,0,response5disk,,2,-16.79296875,-3.359375,1,0,0,rectangle,-16.79296875,-3.359375,1,0,0,-16.79296875,-3.359375,1,0,0,1,42,202,29,1,,,,,,,,
,,,,,,,,,,,,,FF,,,,,,,,1.5517,,,,,,,,,,,,,,,,,,,,,,60fcde377ed6a23279394b7a,61036bb94c5946437063b14e,2021-07-29_21h08.24.829,Simcolourproject_2stim_asymm_v5,2020.2.10,MacIntel,60,61025ae37ef11b136ea224fe,,,,,,,,,2394,30.21875,-71.10546875,1,0,0,response3disk,,4,11.3515625,-2.11328125,1,0,0,rectangle,11.3515625,-2.11328125,1,0,0,11.3515625,-2.11328125,1,0,0,1,43,203,107,1,,,,,,,,
,,,,,,,,,,,,,FF,,,,,,,,1.1161,,,,,,,,,,,,,,,,,,,,,,60fcde377ed6a23279394b7a,61036bb94c5946437063b14e,2021-07-29_21h08.24.829,Simcolourproject_2stim_asymm_v5,2020.2.10,MacIntel,60,61025ae37ef11b136ea224fe,,,,,,,,,222,66.890625,-32.3125,1,0,0,response3disk,,5,4.62109375,2.56640625,1,0,0,rectangle,4.62109375,2.56640625,1,0,0,4.62109375,2.56640625,1,0,0,1,44,204,109,1,,,,,,,,
,,,,,,,,,,,,,FF,,,,,,,,0.7336,,,,,,,,,,,,,,,,,,,,,,60fcde377ed6a23279394b7a,61036bb94c5946437063b14e,2021-07-29_21h08.24.829,Simcolourproject_2stim_asymm_v5,2020.2.10,MacIntel,60,61025ae37ef11b136ea224fe,,,,,,,,,2904,62.34765625,35.34375,1,0,0,response1disk,,6,-10.078125,4.91015625,1,0,0,rectangle,-10.078125,4.91015625,1,0,0,-10.078125,4.91015625,1,0,0,1,45,205,64,1,,,,,,,,
,,,,,,,,,,,,,FF,,,,,,,,1.4838,,,,,,,,,,,,,,,,,,,,,,60fcde377ed6a23279394b7a,61036bb94c5946437063b14e,2021-07-29_21h08.24.829,Simcolourproject_2stim_asymm_v5,2020.2.10,MacIntel,60,61025ae37ef11b136ea224fe,,,,,,,,,1200,66.8984375,-22.23828125,1,0,0,response3disk,,5,26.09765625,-8.2890625,1,0,0,rectangle,26.09765625,-8.2890625,1,0,0,26.09765625,-8.2890625,1,0,0,1,46,206,153,1,,,,,,,,
,,,,,,,,,,,,,FF,,,,,,,,0.7002,,,,,,,,,,,,,,,,,,,,,,60fcde377ed6a23279394b7a,61036bb94c5946437063b14e,2021-07-29_21h08.24.829,Simcolourproject_2stim_asymm_v5,2020.2.10,MacIntel,60,61025ae37ef11b136ea224fe,,,,,,,,,3634,72.953125,44.0625,1,0,0,response1disk,,6,-20.94921875,-7.296875,1,0,0,rectangle,-20.94921875,-7.296875,1,0,0,-20.94921875,-7.296875,1,0,0,1,47,207,21,1,,,,,,,,
,,,,,,,,,,,,,FF,,,,,,,,0.9842,,,,,,,,,,,,,,,,,,,,,,60fcde377ed6a23279394b7a,61036bb94c5946437063b14e,2021-07-29_21h08.24.829,Simcolourproject_2stim_asymm_v5,2020.2.10,MacIntel,60,61025ae37ef11b136ea224fe,,,,,,,,,988,62.96484375,-28.55859375,1,0,0,response3disk,,5,-2.59375,3.36328125,1,0,0,rectangle,-2.59375,3.36328125,1,0,0,-2.59375,3.36328125,1,0,0,1,48,208,128,1,,,,,,,,
,,,,,,,,,,,,,FF,,,,,,,,2.1831,,,,,,,,,,,,,,,,,,,,,,60fcde377ed6a23279394b7a,61036bb94c5946437063b14e,2021-07-29_21h08.24.829,Simcolourproject_2stim_asymm_v5,2020.2.10,MacIntel,60,61025ae37ef11b136ea224fe,,,,,,,,,2474,41.68359375,-70.09765625,1,0,0,response3disk,,4,18.0625,-12.80859375,1,0,0,rectangle,18.0625,-12.80859375,1,0,0,18.0625,-12.80859375,1,0,0,1,49,209,91,1,,,,,,,,
,,,,,,,,,,,,,FF,,,,,,,,2.117,,,,,,,,,,,,,,,,,,,,,,60fcde377ed6a23279394b7a,61036bb94c5946437063b14e,2021-07-29_21h08.24.829,Simcolourproject_2stim_asymm_v5,2020.2.10,MacIntel,60,61025ae37ef11b136ea224fe,,,,,,,,,2245,52.8984375,-35.14453125,1,0,0,response3disk,,5,0.1875,-8.734375,1,0,0,rectangle,0.1875,-8.734375,1,0,0,0.1875,-8.734375,1,0,0,1,50,210,140,1,,,,,,,,
,,,,,,,,,,,,,FF,,,,,,,,0.983,,,,,,,,,,,,,,,,,,,,,,60fcde377ed6a23279394b7a,61036bb94c5946437063b14e,2021-07-29_21h08.24.829,Simcolourproject_2stim_asymm_v5,2020.2.10,MacIntel,60,61025ae37ef11b136ea224fe,,,,,,,,,1477,27.35546875,62.0859375,1,0,0,response1disk,,7,19.98046875,6.40234375,1,0,0,rectangle,19.98046875,6.40234375,1,0,0,19.98046875,6.40234375,1,0,0,1,51,211,115,1,,,,,,,,
,,,,,,,,,,,,,FF,,,,,,,,1.5671,,,,,,,,,,,,,,,,,,,,,,60fcde377ed6a23279394b7a,61036bb94c5946437063b14e,2021-07-29_21h08.24.829,Simcolourproject_2stim_asymm_v5,2020.2.10,MacIntel,60,61025ae37ef11b136ea224fe,,,,,,,,,2800,31.6875,-58.4609375,1,0,0,response3disk,,4,5.04296875,6.93359375,1,0,0,rectangle,5.04296875,6.93359375,1,0,0,5.04296875,6.93359375,1,0,0,1,52,212,118,1,,,,,,,,
,,,,,,,,,,,,,FF,,,,,,,,1.0506,,,,,,,,,,,,,,,,,,,,,,60fcde377ed6a23279394b7a,61036bb94c5946437063b14e,2021-07-29_21h08.24.829,Simcolourproject_2stim_asymm_v5,2020.2.10,MacIntel,60,61025ae37ef11b136ea224fe,,,,,,,,,2920,74.05859375,32.91015625,1,0,0,response1disk,,6,4.09375,6.46875,1,0,0,rectangle,4.09375,6.46875,1,0,0,4.09375,6.46875,1,0,0,1,53,213,37,1,,,,,,,,
,,,,,,,,,,,,,FF,,,,,,,,1.6341,,,,,,,,,,,,,,,,,,,,,,60fcde377ed6a23279394b7a,61036bb94c5946437063b14e,2021-07-29_21h08.24.829,Simcolourproject_2stim_asymm_v5,2020.2.10,MacIntel,60,61025ae37ef11b136ea224fe,,,,,,,,,4082,29.71875,-73.1640625,1,0,0,response3disk,,4,17.296875,-5.75,1,0,0,rectangle,17.296875,-5.75,1,0,0,17.296875,-5.75,1,0,0,1,54,214,114,1,,,,,,,,
,,,,,,,,,,,,,FF,,,,,,,,3.3851,,,,,,,,,,,,,,,,,,,,,,60fcde377ed6a23279394b7a,61036bb94c5946437063b14e,2021-07-29_21h08.24.829,Simcolourproject_2stim_asymm_v5,2020.2.10,MacIntel,60,61025ae37ef11b136ea224fe,,,,,,,,,3723,85.00390625,29.90625,1,0,0,response1disk,,6,4.18359375,2.95703125,1,0,0,rectangle,4.18359375,2.95703125,1,0,0,4.18359375,2.95703125,1,0,0,1,55,215,148,1,,,,,,,,
,,,,,,,,,,,,,FF,,,,,,,,0.7498,,,,,,,,,,,,,,,,,,,,,,60fcde377ed6a23279394b7a,61036bb94c5946437063b14e,2021-07-29_21h08.24.829,Simcolourproject_2stim_asymm_v5,2020.2.10,MacIntel,60,61025ae37ef11b136ea224fe,,,,,,,,,2965,81.30078125,37.86328125,1,0,0,response1disk,,6,3.20703125,-7.08203125,1,0,0,rectangle,-85.91015625,50.0859375,1,0,0,-18.3828125,1.98046875,1,0,0,1,56,216,34,1,,response7disk_3,TRUE,1,1,"[268,276,143,162,78,314,217,194,99,125,262,255,296,48,261,258,14,248,134,137]",1.3181,rectangle
,,,,,,,,,,,,,FF,,,,,,,,0.8344,,,,,,,,,,,,,,,,,,,,,,60fcde377ed6a23279394b7a,61036bb94c5946437063b14e,2021-07-29_21h08.24.829,Simcolourproject_2stim_asymm_v5,2020.2.10,MacIntel,60,61025ae37ef11b136ea224fe,,,,,,,,,3017,30.265625,80.8515625,1,0,0,response1disk,,7,6.3125,1.5,1,0,0,rectangle,6.3125,1.5,1,0,0,6.3125,1.5,1,0,0,1,57,217,2,1,,,,,,,,
,,,,,,,,,,,,,FF,,,,,,,,1.1004,,,,,,,,,,,,,,,,,,,,,,60fcde377ed6a23279394b7a,61036bb94c5946437063b14e,2021-07-29_21h08.24.829,Simcolourproject_2stim_asymm_v5,2020.2.10,MacIntel,60,61025ae37ef11b136ea224fe,,,,,,,,,2442,59.36328125,-32.08203125,1,0,0,response3disk,,5,-9.5,1.51953125,1,0,0,rectangle,-9.5,1.51953125,1,0,0,-9.5,1.51953125,1,0,0,1,58,218,108,1,,,,,,,,
,,,,,,,,,,,,,FF,,,,,,,,1.851,,,,,,,,,,,,,,,,,,,,,,60fcde377ed6a23279394b7a,61036bb94c5946437063b14e,2021-07-29_21h08.24.829,Simcolourproject_2stim_asymm_v5,2020.2.10,MacIntel,60,61025ae37ef11b136ea224fe,,,,,,,,,3836,42.02734375,-80.1484375,1,0,0,response3disk,,4,9.31640625,-3.1640625,1,0,0,rectangle,9.31640625,-3.1640625,1,0,0,9.31640625,-3.1640625,1,0,0,1,59,219,150,1,,,,,,,,
,,,,,,,,,,,,,FF,,,,,,,,0.9835,,,,,,,,,,,,,,,,,,,,,,60fcde377ed6a23279394b7a,61036bb94c5946437063b14e,2021-07-29_21h08.24.829,Simcolourproject_2stim_asymm_v5,2020.2.10,MacIntel,60,61025ae37ef11b136ea224fe,,,,,,,,,1001,76.2578125,-33.02734375,1,0,0,response3disk,,5,15.90625,7.578125,1,0,0,rectangle,15.90625,7.578125,1,0,0,15.90625,7.578125,1,0,0,1,60,220,88,1,,,,,,,,
,,,,,,,,,,,,,FF,,,,,,,,0.9337,,,,,,,,,,,,,,,,,,,,,,60fcde377ed6a23279394b7a,61036bb94c5946437063b14e,2021-07-29_21h08.24.829,Simcolourproject_2stim_asymm_v5,2020.2.10,MacIntel,60,61025ae37ef11b136ea224fe,,,,,,,,,742,86.6640625,-28.5234375,1,0,0,response3disk,,5,9.4921875,5.109375,1,0,0,rectangle,9.4921875,5.109375,1,0,0,9.4921875,5.109375,1,0,0,1,61,221,144,1,,,,,,,,
,,,,,,,,,,,,,FF,,,,,,,,1.0005,,,,,,,,,,,,,,,,,,,,,,60fcde377ed6a23279394b7a,61036bb94c5946437063b14e,2021-07-29_21h08.24.829,Simcolourproject_2stim_asymm_v5,2020.2.10,MacIntel,60,61025ae37ef11b136ea224fe,,,,,,,,,1832,-31.43359375,-69.734375,1,0,0,response5disk,,3,-17.6640625,-7.58984375,1,0,0,rectangle,-17.6640625,-7.58984375,1,0,0,-17.6640625,-7.58984375,1,0,0,1,62,222,138,1,,,,,,,,
,,,,,,,,,,,,,FF,,,,,,,,1.3,,,,,,,,,,,,,,,,,,,,,,60fcde377ed6a23279394b7a,61036bb94c5946437063b14e,2021-07-29_21h08.24.829,Simcolourproject_2stim_asymm_v5,2020.2.10,MacIntel,60,61025ae37ef11b136ea224fe,,,,,,,,,494,59.140625,-29.65234375,1,0,0,response3disk,,5,12.5546875,-5.078125,1,0,0,rectangle,12.5546875,-5.078125,1,0,0,12.5546875,-5.078125,1,0,0,1,63,223,93,1,,,,,,,,
,,,,,,,,,,,,,FF,,,,,,,,0.8736,,,,,,,,,,,,,,,,,,,,,,60fcde377ed6a23279394b7a,61036bb94c5946437063b14e,2021-07-29_21h08.24.829,Simcolourproject_2stim_asymm_v5,2020.2.10,MacIntel,60,61025ae37ef11b136ea224fe,,,,,,,,,3169,78.91796875,-26.94140625,1,0,0,response3disk,,5,19.12109375,-2.66015625,1,0,0,rectangle,19.12109375,-2.66015625,1,0,0,19.12109375,-2.66015625,1,0,0,1,64,224,102,1,,,,,,,,
,,,,,,,,,,,,,FF,,,,,,,,1.0331,,,,,,,,,,,,,,,,,,,,,,60fcde377ed6a23279394b7a,61036bb94c5946437063b14e,2021-07-29_21h08.24.829,Simcolourproject_2stim_asymm_v5,2020.2.10,MacIntel,60,61025ae37ef11b136ea224fe,,,,,,,,,3339,-24.9296875,-83.83984375,1,0,0,response5disk,,3,-17.97265625,-5.9921875,1,0,0,rectangle,-17.97265625,-5.9921875,1,0,0,-17.97265625,-5.9921875,1,0,0,1,65,225,92,1,,,,,,,,
,,,,,,,,,,,,,FF,,,,,,,,1.651,,,,,,,,,,,,,,,,,,,,,,60fcde377ed6a23279394b7a,61036bb94c5946437063b14e,2021-07-29_21h08.24.829,Simcolourproject_2stim_asymm_v5,2020.2.10,MacIntel,60,61025ae37ef11b136ea224fe,,,,,,,,,2723,27.80859375,-69.0546875,1,0,0,response3disk,,4,10.0859375,-5.375,1,0,0,rectangle,10.0859375,-5.375,1,0,0,10.0859375,-5.375,1,0,0,1,66,226,52,1,,,,,,,,
,,,,,,,,,,,,,FF,,,,,,,,1.0667,,,,,,,,,,,,,,,,,,,,,,60fcde377ed6a23279394b7a,61036bb94c5946437063b14e,2021-07-29_21h08.24.829,Simcolourproject_2stim_asymm_v5,2020.2.10,MacIntel,60,61025ae37ef11b136ea224fe,,,,,,,,,457,28.67578125,-66.80859375,1,0,0,response3disk,,4,15.95703125,-1.52734375,1,0,0,rectangle,15.95703125,-1.52734375,1,0,0,15.95703125,-1.52734375,1,0,0,1,67,227,24,1,,,,,,,,
,,,,,,,,,,,,,FF,,,,,,,,1.6842,,,,,,,,,,,,,,,,,,,,,,60fcde377ed6a23279394b7a,61036bb94c5946437063b14e,2021-07-29_21h08.24.829,Simcolourproject_2stim_asymm_v5,2020.2.10,MacIntel,60,61025ae37ef11b136ea224fe,,,,,,,,,1089,84.7890625,30.96484375,1,0,0,response1disk,,6,-0.52734375,-6.9609375,1,0,0,rectangle,-0.52734375,-6.9609375,1,0,0,-0.52734375,-6.9609375,1,0,0,1,68,228,135,1,,,,,,,,
,,,,,,,,,,,,,FF,,,,,,,,1.1838,,,,,,,,,,,,,,,,,,,,,,60fcde377ed6a23279394b7a,61036bb94c5946437063b14e,2021-07-29_21h08.24.829,Simcolourproject_2stim_asymm_v5,2020.2.10,MacIntel,60,61025ae37ef11b136ea224fe,,,,,,,,,4198,29.19921875,58.03515625,1,0,0,response1disk,,7,3.50390625,-13.92578125,1,0,0,rectangle,3.50390625,-13.92578125,1,0,0,3.50390625,-13.92578125,1,0,0,1,69,229,6,1,,,,,,,,
,,,,,,,,,,,,,FF,,,,,,,,1.0998,,,,,,,,,,,,,,,,,,,,,,60fcde377ed6a23279394b7a,61036bb94c5946437063b14e,2021-07-29_21h08.24.829,Simcolourproject_2stim_asymm_v5,2020.2.10,MacIntel,60,61025ae37ef11b136ea224fe,,,,,,,,,285,78.41796875,-47.42578125,1,0,0,response3disk,,5,6.59375,-1.765625,1,0,0,rectangle,6.59375,-1.765625,1,0,0,6.59375,-1.765625,1,0,0,1,70,230,42,1,,,,,,,,
,,,,,,,,,,,,,FF,,,,,,,,1.6004,,,,,,,,,,,,,,,,,,,,,,60fcde377ed6a23279394b7a,61036bb94c5946437063b14e,2021-07-29_21h08.24.829,Simcolourproject_2stim_asymm_v5,2020.2.10,MacIntel,60,61025ae37ef11b136ea224fe,,,,,,,,,3544,37.31640625,-63.57421875,1,0,0,response3disk,,4,19.828125,-0.7109375,1,0,0,rectangle,19.828125,-0.7109375,1,0,0,19.828125,-0.7109375,1,0,0,1,71,231,101,1,,,,,,,,
,,,,,,,,,,,,,FF,,,,,,,,1.0181,,,,,,,,,,,,,,,,,,,,,,60fcde377ed6a23279394b7a,61036bb94c5946437063b14e,2021-07-29_21h08.24.829,Simcolourproject_2stim_asymm_v5,2020.2.10,MacIntel,60,61025ae37ef11b136ea224fe,,,,,,,,,1570,71.703125,44.640625,1,0,0,response1disk,,6,13.3984375,6.75390625,1,0,0,rectangle,13.3984375,6.75390625,1,0,0,13.3984375,6.75390625,1,0,0,1,72,232,119,1,,,,,,,,
,,,,,,,,,,,,,FF,,,,,,,,2.4242,,,,,,,,,,,,,,,,,,,,,,60fcde377ed6a23279394b7a,61036bb94c5946437063b14e,2021-07-29_21h08.24.829,Simcolourproject_2stim_asymm_v5,2020.2.10,MacIntel,60,61025ae37ef11b136ea224fe,,,,,,,,,542,32.703125,65.6953125,1,0,0,response1disk,,7,9.71875,-5.16796875,1,0,0,rectangle,9.71875,-5.16796875,1,0,0,9.71875,-5.16796875,1,0,0,1,73,233,137,1,,,,,,,,
,,,,,,,,,,,,,FF,,,,,,,,0.8835,,,,,,,,,,,,,,,,,,,,,,60fcde377ed6a23279394b7a,61036bb94c5946437063b14e,2021-07-29_21h08.24.829,Simcolourproject_2stim_asymm_v5,2020.2.10,MacIntel,60,61025ae37ef11b136ea224fe,,,,,,,,,668,45.1484375,96.02734375,1,0,0,response1disk,,7,-8.375,-4.66796875,1,0,0,rectangle,-8.375,-4.66796875,1,0,0,-8.375,-4.66796875,1,0,0,1,74,234,94,1,,,,,,,,
,,,,,,,,,,,,,FF,,,,,,,,1.2844,,,,,,,,,,,,,,,,,,,,,,60fcde377ed6a23279394b7a,61036bb94c5946437063b14e,2021-07-29_21h08.24.829,Simcolourproject_2stim_asymm_v5,2020.2.10,MacIntel,60,61025ae37ef11b136ea224fe,,,,,,,,,2410,60.98828125,22.55859375,1,0,0,response1disk,,6,-5.3515625,3.80078125,1,0,0,rectangle,-5.3515625,3.80078125,1,0,0,-5.3515625,3.80078125,1,0,0,1,75,235,151,1,,,,,,,,
,,,,,,,,,,,,,FF,,,,,,,,1.201,,,,,,,,,,,,,,,,,,,,,,60fcde377ed6a23279394b7a,61036bb94c5946437063b14e,2021-07-29_21h08.24.829,Simcolourproject_2stim_asymm_v5,2020.2.10,MacIntel,60,61025ae37ef11b136ea224fe,,,,,,,,,2220,54.96484375,37.55078125,1,0,0,response1disk,,6,16.7109375,14.79296875,1,0,0,rectangle,16.7109375,14.79296875,1,0,0,16.7109375,14.79296875,1,0,0,1,76,236,100,1,,,,,,,,
,,,,,,,,,,,,,FF,,,,,,,,0.7667,,,,,,,,,,,,,,,,,,,,,,60fcde377ed6a23279394b7a,61036bb94c5946437063b14e,2021-07-29_21h08.24.829,Simcolourproject_2stim_asymm_v5,2020.2.10,MacIntel,60,61025ae37ef11b136ea224fe,,,,,,,,,1067,65.08203125,30.33984375,1,0,0,response1disk,,6,-10.6640625,-5.63671875,1,0,0,rectangle,-10.6640625,-5.63671875,1,0,0,-10.6640625,-5.63671875,1,0,0,1,77,237,45,1,,,,,,,,
,,,,,,,,,,,,,FF,,,,,,,,2.1004,,,,,,,,,,,,,,,,,,,,,,60fcde377ed6a23279394b7a,61036bb94c5946437063b14e,2021-07-29_21h08.24.829,Simcolourproject_2stim_asymm_v5,2020.2.10,MacIntel,60,61025ae37ef11b136ea224fe,,,,,,,,,3639,54.5703125,24.59375,1,0,0,response1disk,,6,11.53125,0.8984375,1,0,0,rectangle,11.53125,0.8984375,1,0,0,11.53125,0.8984375,1,0,0,1,78,238,82,1,,,,,,,,
,,,,,,,,,,,,,FF,,,,,,,,1.1168,,,,,,,,,,,,,,,,,,,,,,60fcde377ed6a23279394b7a,61036bb94c5946437063b14e,2021-07-29_21h08.24.829,Simcolourproject_2stim_asymm_v5,2020.2.10,MacIntel,60,61025ae37ef11b136ea224fe,,,,,,,,,2518,52.47265625,-27.39453125,1,0,0,response3disk,,5,12.65234375,-11.66796875,1,0,0,rectangle,12.65234375,-11.66796875,1,0,0,12.65234375,-11.66796875,1,0,0,1,79,239,55,1,,,,,,,,
,,,,,,,,,,,,,FF,,,,,,,,1.7508,,,,,,,,,,,,,,,,,,,,,,60fcde377ed6a23279394b7a,61036bb94c5946437063b14e,2021-07-29_21h08.24.829,Simcolourproject_2stim_asymm_v5,2020.2.10,MacIntel,60,61025ae37ef11b136ea224fe,,,,,,,,,2961,32.171875,-62.5625,1,0,0,response3disk,,4,7.4921875,4.06640625,1,0,0,rectangle,7.4921875,4.06640625,1,0,0,7.4921875,4.06640625,1,0,0,1,80,240,38,1,,,,,,,,
,,,,,,,,,,,,,FF,,,,,,,,1.1002,,,,,,,,,,,,,,,,,,,,,,60fcde377ed6a23279394b7a,61036bb94c5946437063b14e,2021-07-29_21h08.24.829,Simcolourproject_2stim_asymm_v5,2020.2.10,MacIntel,60,61025ae37ef11b136ea224fe,,,,,,,,,2870,30.078125,21.81640625,1,0,0,response1disk,,6,3.1015625,-15.51953125,1,0,0,rectangle,3.1015625,-15.51953125,1,0,0,3.1015625,-15.51953125,1,0,0,1,81,241,139,1,,,,,,,,
,,,,,,,,,,,,,FF,,,,,,,,0.982,,,,,,,,,,,,,,,,,,,,,,60fcde377ed6a23279394b7a,61036bb94c5946437063b14e,2021-07-29_21h08.24.829,Simcolourproject_2stim_asymm_v5,2020.2.10,MacIntel,60,61025ae37ef11b136ea224fe,,,,,,,,,3396,-45.87109375,-72.80078125,1,0,0,response5disk,,3,-4.58984375,3.73046875,1,0,0,rectangle,-4.58984375,3.73046875,1,0,0,-4.58984375,3.73046875,1,0,0,1,82,242,9,1,,,,,,,,
,,,,,,,,,,,,,FF,,,,,,,,1.7348,,,,,,,,,,,,,,,,,,,,,,60fcde377ed6a23279394b7a,61036bb94c5946437063b14e,2021-07-29_21h08.24.829,Simcolourproject_2stim_asymm_v5,2020.2.10,MacIntel,60,61025ae37ef11b136ea224fe,,,,,,,,,3834,29.53515625,80.97265625,1,0,0,response1disk,,7,17.734375,10.4609375,1,0,0,rectangle,17.734375,10.4609375,1,0,0,17.734375,10.4609375,1,0,0,1,83,243,27,1,,,,,,,,
,,,,,,,,,,,,,FF,,,,,,,,0.9165,,,,,,,,,,,,,,,,,,,,,,60fcde377ed6a23279394b7a,61036bb94c5946437063b14e,2021-07-29_21h08.24.829,Simcolourproject_2stim_asymm_v5,2020.2.10,MacIntel,60,61025ae37ef11b136ea224fe,,,,,,,,,2585,76.30078125,44.45703125,1,0,0,response1disk,,6,3.9609375,-1.87890625,1,0,0,rectangle,3.9609375,-1.87890625,1,0,0,3.9609375,-1.87890625,1,0,0,1,84,244,145,1,,,,,,,,
,,,,,,,,,,,,,FF,,,,,,,,0.7009,,,,,,,,,,,,,,,,,,,,,,60fcde377ed6a23279394b7a,61036bb94c5946437063b14e,2021-07-29_21h08.24.829,Simcolourproject_2stim_asymm_v5,2020.2.10,MacIntel,60,61025ae37ef11b136ea224fe,,,,,,,,,1713,30.65625,61.7421875,1,0,0,response1disk,,7,8.3515625,-10.30078125,1,0,0,rectangle,8.3515625,-10.30078125,1,0,0,8.3515625,-10.30078125,1,0,0,1,85,245,77,1,,,,,,,,
,,,,,,,,,,,,,FF,,,,,,,,0.884,,,,,,,,,,,,,,,,,,,,,,60fcde377ed6a23279394b7a,61036bb94c5946437063b14e,2021-07-29_21h08.24.829,Simcolourproject_2stim_asymm_v5,2020.2.10,MacIntel,60,61025ae37ef11b136ea224fe,,,,,,,,,3968,-70.43359375,-31.73828125,1,0,0,response5disk,,2,-9.40625,-7.0078125,1,0,0,rectangle,-9.40625,-7.0078125,1,0,0,-9.40625,-7.0078125,1,0,0,1,86,246,74,1,,,,,,,,
,,,,,,,,,,,,,FF,,,,,,,,1.2501,,,,,,,,,,,,,,,,,,,,,,60fcde377ed6a23279394b7a,61036bb94c5946437063b14e,2021-07-29_21h08.24.829,Simcolourproject_2stim_asymm_v5,2020.2.10,MacIntel,60,61025ae37ef11b136ea224fe,,,,,,,,,2145,65.765625,-24.9296875,1,0,0,response3disk,,5,8.58203125,-9.390625,1,0,0,rectangle,64.24609375,-33.9921875,1,0,0,2.3671875,13.453125,1,0,0,1,87,247,11,1,,response3disk_3,TRUE,5,5,"[268,276,143,162,78,314,217,194,99,125,262,255,296,48,261,258,14,248,134,137]",1.4348,rectangle
,,,,,,,,,,,,,FF,,,,,,,,0.9504,,,,,,,,,,,,,,,,,,,,,,60fcde377ed6a23279394b7a,61036bb94c5946437063b14e,2021-07-29_21h08.24.829,Simcolourproject_2stim_asymm_v5,2020.2.10,MacIntel,60,61025ae37ef11b136ea224fe,,,,,,,,,712,-48.76953125,-100.2421875,1,0,0,response5disk,,3,-18.609375,-4.52734375,1,0,0,rectangle,-18.609375,-4.52734375,1,0,0,-18.609375,-4.52734375,1,0,0,1,88,248,90,1,,,,,,,,
