key_resp.keys,key_resp.rt,key_resp_14.keys,key_resp_14.rt,key_resp_15.keys,key_resp_15.rt,key_resp_17.keys,key_resp_17.rt,key_resp_9.keys,key_resp_9.rt,key_resp_10.keys,key_resp_10.rt,practice_comparison,Ecc,mouse_5.x,mouse_5.y,mouse_5.leftButton,mouse_5.midButton,mouse_5.rightButton,mouse_5.clicked_name,pracsimilarity,response_time,mouse_10.x,mouse_10.y,mouse_10.leftButton,mouse_10.midButton,mouse_10.rightButton,mouse_10.clicked_name,mouse_7.x,mouse_7.y,mouse_7.leftButton,mouse_7.midButton,mouse_7.rightButton,mouse_6.x,mouse_6.y,mouse_6.leftButton,mouse_6.midButton,mouse_6.rightButton,duringprac.thisRepN,duringprac.thisTrialN,duringprac.thisN,duringprac.thisIndex,duringprac.ran,participant,session,date,expName,psychopyVersion,OS,frameRate,study_id,mouse_7.clicked_name,catchpracsimilarity,catch_response_time,catchnumberprac,catchtrialorderprac,mouse_6.clicked_name,key_resp_22.keys,key_resp_22.rt,realcomparison,mouse.x,mouse.y,mouse.leftButton,mouse.midButton,mouse.rightButton,mouse.clicked_name,Colour2,similarity,mouse_2.x,mouse_2.y,mouse_2.leftButton,mouse_2.midButton,mouse_2.rightButton,mouse_2.clicked_name,mouse_3.x,mouse_3.y,mouse_3.leftButton,mouse_3.midButton,mouse_3.rightButton,mouse_11.x,mouse_11.y,mouse_11.leftButton,mouse_11.midButton,mouse_11.rightButton,trials_2.thisRepN,trials_2.thisTrialN,trials_2.thisN,trials_2.thisIndex,trials_2.ran,Colour1,mouse_3.clicked_name,catchornah,catchsimilarity,catchnumber,catchtrialorder,catchRT,mouse_11.clicked_name
space,1.2964,space,27.9306,space,27.6775,space,18.0524,space,1.2281,space,7.9697,13,PF,53,-134,1,0,0,response3disk_5,4,10.8711,2,2,1,0,0,rectangle_8,2,2,1,0,0,2,2,1,0,0,0,0,0,1,1,60fcc96991d7f1dff0cfb17f,61036dfce74451882cc12837,2021-07-29_20h13.16.649,Simcolourproject_2stim_asymm_v5,2020.2.10,Win32,60,61025ae37ef11b136ea224fe,,,,,,,,,,,,,,,,,,,,,,,,,,,,,,,,,,,,,,,,,,,,,,
,,,,,,,,,,,,85,FF,-52,-89,1,0,0,response5disk_5,3,3.6712,10,5,1,0,0,rectangle_8,-53,-101,1,0,0,19,8,1,0,0,0,1,1,5,1,60fcc96991d7f1dff0cfb17f,61036dfce74451882cc12837,2021-07-29_20h13.16.649,Simcolourproject_2stim_asymm_v5,2020.2.10,Win32,60,61025ae37ef11b136ea224fe,response5disk_7,3,3.8818,3,"[2,5]",rectangle_4,,,,,,,,,,,,,,,,,,,,,,,,,,,,,,,,,,,,,,,,
,,,,,,,,,,,,137,FF,100,-59,1,0,0,response3disk_5,5,5.9859,1,15,1,0,0,rectangle_8,1,15,1,0,0,1,15,1,0,0,0,2,2,0,1,60fcc96991d7f1dff0cfb17f,61036dfce74451882cc12837,2021-07-29_20h13.16.649,Simcolourproject_2stim_asymm_v5,2020.2.10,Win32,60,61025ae37ef11b136ea224fe,,,,,,,,,,,,,,,,,,,,,,,,,,,,,,,,,,,,,,,,,,,,,,
,,,,,,,,,,,,154,PF,75,110,1,0,0,response1disk_5,7,1.7205,8,-2,1,0,0,rectangle_8,8,-2,1,0,0,8,-2,1,0,0,0,3,3,4,1,60fcc96991d7f1dff0cfb17f,61036dfce74451882cc12837,2021-07-29_20h13.16.649,Simcolourproject_2stim_asymm_v5,2020.2.10,Win32,60,61025ae37ef11b136ea224fe,,,,,,,,,,,,,,,,,,,,,,,,,,,,,,,,,,,,,,,,,,,,,,
,,,,,,,,,,,,132,PF,35,-109,1,0,0,response3disk_5,4,3.1051,-8,1,1,0,0,rectangle_8,-62,-100,1,0,0,23,13,1,0,0,0,4,4,2,1,60fcc96991d7f1dff0cfb17f,61036dfce74451882cc12837,2021-07-29_20h13.16.649,Simcolourproject_2stim_asymm_v5,2020.2.10,Win32,60,61025ae37ef11b136ea224fe,response5disk_7,3,3.2011,3,"[2,5]",rectangle_4,,,,,,,,,,,,,,,,,,,,,,,,,,,,,,,,,,,,,,,,
,,,,,,,,,,,,47,PF,119,-77,1,0,0,response3disk_5,5,4.8549,8,7,1,0,0,rectangle_8,8,7,1,0,0,8,7,1,0,0,0,5,5,6,1,60fcc96991d7f1dff0cfb17f,61036dfce74451882cc12837,2021-07-29_20h13.16.649,Simcolourproject_2stim_asymm_v5,2020.2.10,Win32,60,61025ae37ef11b136ea224fe,,,,,,,,,,,,,,,,,,,,,,,,,,,,,,,,,,,,,,,,,,,,,,
,,,,,,,,,,,,124,FF,121,30,1,0,0,response1disk_5,6,3.6546,21,8,1,0,0,rectangle_8,21,8,1,0,0,21,8,1,0,0,0,6,6,3,1,60fcc96991d7f1dff0cfb17f,61036dfce74451882cc12837,2021-07-29_20h13.16.649,Simcolourproject_2stim_asymm_v5,2020.2.10,Win32,60,61025ae37ef11b136ea224fe,,,,,,,,,,,,,,,,,,,,,,,,,,,,,,,,,,,,,,,,,,,,,,
,,,,,,,,,,,,,FF,,,,,,,,4.7485,,,,,,,,,,,,,,,,,,,,,,60fcc96991d7f1dff0cfb17f,61036dfce74451882cc12837,2021-07-29_20h13.16.649,Simcolourproject_2stim_asymm_v5,2020.2.10,Win32,60,61025ae37ef11b136ea224fe,,,,,,,space,3.6754,3565,93,-56,1,0,0,response3disk,,5,3,-3,1,0,0,rectangle,3,-3,1,0,0,3,-3,1,0,0,0,0,0,87,1,,,,,,,,
,,,,,,,,,,,,,FF,,,,,,,,0.9205,,,,,,,,,,,,,,,,,,,,,,60fcc96991d7f1dff0cfb17f,61036dfce74451882cc12837,2021-07-29_20h13.16.649,Simcolourproject_2stim_asymm_v5,2020.2.10,Win32,60,61025ae37ef11b136ea224fe,,,,,,,,,2586,37,88,1,0,0,response1disk,,7,-3,6,1,0,0,rectangle,-3,6,1,0,0,-3,6,1,0,0,0,1,1,113,1,,,,,,,,
,,,,,,,,,,,,,FF,,,,,,,,1.4138,,,,,,,,,,,,,,,,,,,,,,60fcc96991d7f1dff0cfb17f,61036dfce74451882cc12837,2021-07-29_20h13.16.649,Simcolourproject_2stim_asymm_v5,2020.2.10,Win32,60,61025ae37ef11b136ea224fe,,,,,,,,,2757,42,101,1,0,0,response1disk,,7,2,12,1,0,0,rectangle,2,12,1,0,0,2,12,1,0,0,0,2,2,82,1,,,,,,,,
,,,,,,,,,,,,,FF,,,,,,,,3.9054,,,,,,,,,,,,,,,,,,,,,,60fcc96991d7f1dff0cfb17f,61036dfce74451882cc12837,2021-07-29_20h13.16.649,Simcolourproject_2stim_asymm_v5,2020.2.10,Win32,60,61025ae37ef11b136ea224fe,,,,,,,,,1835,24,-118,1,0,0,response3disk,,4,2,-4,1,0,0,rectangle,2,-4,1,0,0,2,-4,1,0,0,0,3,3,3,1,,,,,,,,
,,,,,,,,,,,,,FF,,,,,,,,1.6971,,,,,,,,,,,,,,,,,,,,,,60fcc96991d7f1dff0cfb17f,61036dfce74451882cc12837,2021-07-29_20h13.16.649,Simcolourproject_2stim_asymm_v5,2020.2.10,Win32,60,61025ae37ef11b136ea224fe,,,,,,,,,3900,-98,-79,1,0,0,response5disk,,2,-5,2,1,0,0,rectangle,-5,2,1,0,0,-5,2,1,0,0,0,4,4,56,1,,,,,,,,
,,,,,,,,,,,,,FF,,,,,,,,1.6941,,,,,,,,,,,,,,,,,,,,,,60fcc96991d7f1dff0cfb17f,61036dfce74451882cc12837,2021-07-29_20h13.16.649,Simcolourproject_2stim_asymm_v5,2020.2.10,Win32,60,61025ae37ef11b136ea224fe,,,,,,,,,1411,85,99,1,0,0,response1disk,,7,-8,4,1,0,0,rectangle,-8,4,1,0,0,-8,4,1,0,0,0,5,5,2,1,,,,,,,,
,,,,,,,,,,,,,FF,,,,,,,,2.0507,,,,,,,,,,,,,,,,,,,,,,60fcc96991d7f1dff0cfb17f,61036dfce74451882cc12837,2021-07-29_20h13.16.649,Simcolourproject_2stim_asymm_v5,2020.2.10,Win32,60,61025ae37ef11b136ea224fe,,,,,,,,,3046,-85,36,1,0,0,response7disk,,1,23,-2,1,0,0,rectangle,23,-2,1,0,0,23,-2,1,0,0,0,6,6,156,1,,,,,,,,
,,,,,,,,,,,,,FF,,,,,,,,2.3311,,,,,,,,,,,,,,,,,,,,,,60fcc96991d7f1dff0cfb17f,61036dfce74451882cc12837,2021-07-29_20h13.16.649,Simcolourproject_2stim_asymm_v5,2020.2.10,Win32,60,61025ae37ef11b136ea224fe,,,,,,,,,3176,64,121,1,0,0,response1disk,,7,-1,-6,1,0,0,rectangle,-1,-6,1,0,0,-1,-6,1,0,0,0,7,7,85,1,,,,,,,,
,,,,,,,,,,,,,FF,,,,,,,,1.7045,,,,,,,,,,,,,,,,,,,,,,60fcc96991d7f1dff0cfb17f,61036dfce74451882cc12837,2021-07-29_20h13.16.649,Simcolourproject_2stim_asymm_v5,2020.2.10,Win32,60,61025ae37ef11b136ea224fe,,,,,,,,,452,47,86,1,0,0,response1disk,,7,4,0,1,0,0,rectangle,4,0,1,0,0,4,0,1,0,0,0,8,8,35,1,,,,,,,,
,,,,,,,,,,,,,FF,,,,,,,,2.5502,,,,,,,,,,,,,,,,,,,,,,60fcc96991d7f1dff0cfb17f,61036dfce74451882cc12837,2021-07-29_20h13.16.649,Simcolourproject_2stim_asymm_v5,2020.2.10,Win32,60,61025ae37ef11b136ea224fe,,,,,,,,,2027,-102,-32,1,0,0,response5disk,,2,-10,7,1,0,0,rectangle,-10,7,1,0,0,-10,7,1,0,0,0,9,9,70,1,,,,,,,,
,,,,,,,,,,,,,FF,,,,,,,,1.2107,,,,,,,,,,,,,,,,,,,,,,60fcc96991d7f1dff0cfb17f,61036dfce74451882cc12837,2021-07-29_20h13.16.649,Simcolourproject_2stim_asymm_v5,2020.2.10,Win32,60,61025ae37ef11b136ea224fe,,,,,,,,,3477,-68,62,1,0,0,response7disk,,1,-12,5,1,0,0,rectangle,-12,5,1,0,0,-12,5,1,0,0,0,10,10,53,1,,,,,,,,
,,,,,,,,,,,,,FF,,,,,,,,3.6115,,,,,,,,,,,,,,,,,,,,,,60fcc96991d7f1dff0cfb17f,61036dfce74451882cc12837,2021-07-29_20h13.16.649,Simcolourproject_2stim_asymm_v5,2020.2.10,Win32,60,61025ae37ef11b136ea224fe,,,,,,,,,2551,31,-133,1,0,0,response3disk,,4,-5,3,1,0,0,rectangle,-5,3,1,0,0,-5,3,1,0,0,0,11,11,36,1,,,,,,,,
,,,,,,,,,,,,,FF,,,,,,,,0.974,,,,,,,,,,,,,,,,,,,,,,60fcc96991d7f1dff0cfb17f,61036dfce74451882cc12837,2021-07-29_20h13.16.649,Simcolourproject_2stim_asymm_v5,2020.2.10,Win32,60,61025ae37ef11b136ea224fe,,,,,,,,,1677,-54,70,1,0,0,response7disk,,0,-13,-3,1,0,0,rectangle,32,-110,1,0,0,0,2,1,0,0,0,12,12,22,1,,response3disk_3,TRUE,4,4,"[270,99,64,84,289,90,13,306,53,101,242,118,275,103,215,101,124,89,243,89]",2.0382,rectangle
,,,,,,,,,,,,,FF,,,,,,,,2.0543,,,,,,,,,,,,,,,,,,,,,,60fcc96991d7f1dff0cfb17f,61036dfce74451882cc12837,2021-07-29_20h13.16.649,Simcolourproject_2stim_asymm_v5,2020.2.10,Win32,60,61025ae37ef11b136ea224fe,,,,,,,,,562,104,58,1,0,0,response1disk,,6,27,-1,1,0,0,rectangle,27,-1,1,0,0,27,-1,1,0,0,0,13,13,110,1,,,,,,,,
,,,,,,,,,,,,,FF,,,,,,,,1.9217,,,,,,,,,,,,,,,,,,,,,,60fcc96991d7f1dff0cfb17f,61036dfce74451882cc12837,2021-07-29_20h13.16.649,Simcolourproject_2stim_asymm_v5,2020.2.10,Win32,60,61025ae37ef11b136ea224fe,,,,,,,,,1583,79,46,1,0,0,response1disk,,6,8,-5,1,0,0,rectangle,8,-5,1,0,0,8,-5,1,0,0,0,14,14,157,1,,,,,,,,
,,,,,,,,,,,,,FF,,,,,,,,1.2807,,,,,,,,,,,,,,,,,,,,,,60fcc96991d7f1dff0cfb17f,61036dfce74451882cc12837,2021-07-29_20h13.16.649,Simcolourproject_2stim_asymm_v5,2020.2.10,Win32,60,61025ae37ef11b136ea224fe,,,,,,,,,2891,-88,42,1,0,0,response7disk,,1,-31,-7,1,0,0,rectangle,-31,-7,1,0,0,-31,-7,1,0,0,0,15,15,100,1,,,,,,,,
,,,,,,,,,,,,,FF,,,,,,,,1.3178,,,,,,,,,,,,,,,,,,,,,,60fcc96991d7f1dff0cfb17f,61036dfce74451882cc12837,2021-07-29_20h13.16.649,Simcolourproject_2stim_asymm_v5,2020.2.10,Win32,60,61025ae37ef11b136ea224fe,,,,,,,,,1891,-91,-29,1,0,0,response5disk,,2,-15,-3,1,0,0,rectangle,-15,-3,1,0,0,-15,-3,1,0,0,0,16,16,19,1,,,,,,,,
,,,,,,,,,,,,,FF,,,,,,,,0.7047,,,,,,,,,,,,,,,,,,,,,,60fcc96991d7f1dff0cfb17f,61036dfce74451882cc12837,2021-07-29_20h13.16.649,Simcolourproject_2stim_asymm_v5,2020.2.10,Win32,60,61025ae37ef11b136ea224fe,,,,,,,,,1706,45,104,1,0,0,response1disk,,7,15,5,1,0,0,rectangle,15,5,1,0,0,15,5,1,0,0,0,17,17,31,1,,,,,,,,
,,,,,,,,,,,,,FF,,,,,,,,3.6114,,,,,,,,,,,,,,,,,,,,,,60fcc96991d7f1dff0cfb17f,61036dfce74451882cc12837,2021-07-29_20h13.16.649,Simcolourproject_2stim_asymm_v5,2020.2.10,Win32,60,61025ae37ef11b136ea224fe,,,,,,,,,4261,57,92,1,0,0,response1disk,,7,2,1,1,0,0,rectangle,2,1,1,0,0,2,1,1,0,0,0,18,18,62,1,,,,,,,,
,,,,,,,,,,,,,FF,,,,,,,,2.0405,,,,,,,,,,,,,,,,,,,,,,60fcc96991d7f1dff0cfb17f,61036dfce74451882cc12837,2021-07-29_20h13.16.649,Simcolourproject_2stim_asymm_v5,2020.2.10,Win32,60,61025ae37ef11b136ea224fe,,,,,,,,,1536,-98,-44,1,0,0,response5disk,,2,0,-6,1,0,0,rectangle,0,-6,1,0,0,0,-6,1,0,0,0,19,19,69,1,,,,,,,,
,,,,,,,,,,,,,FF,,,,,,,,3.8046,,,,,,,,,,,,,,,,,,,,,,60fcc96991d7f1dff0cfb17f,61036dfce74451882cc12837,2021-07-29_20h13.16.649,Simcolourproject_2stim_asymm_v5,2020.2.10,Win32,60,61025ae37ef11b136ea224fe,,,,,,,,,3997,-47,-128,1,0,0,response5disk,,3,5,-2,1,0,0,rectangle,5,-2,1,0,0,5,-2,1,0,0,0,20,20,32,1,,,,,,,,
,,,,,,,,,,,,,FF,,,,,,,,2.6415,,,,,,,,,,,,,,,,,,,,,,60fcc96991d7f1dff0cfb17f,61036dfce74451882cc12837,2021-07-29_20h13.16.649,Simcolourproject_2stim_asymm_v5,2020.2.10,Win32,60,61025ae37ef11b136ea224fe,,,,,,,,,3751,41,-123,1,0,0,response3disk,,4,12,9,1,0,0,rectangle,12,9,1,0,0,12,9,1,0,0,0,21,21,37,1,,,,,,,,
,,,,,,,,,,,,,FF,,,,,,,,1.3107,,,,,,,,,,,,,,,,,,,,,,60fcc96991d7f1dff0cfb17f,61036dfce74451882cc12837,2021-07-29_20h13.16.649,Simcolourproject_2stim_asymm_v5,2020.2.10,Win32,60,61025ae37ef11b136ea224fe,,,,,,,,,3585,34,-85,1,0,0,response3disk,,4,13,1,1,0,0,rectangle,13,1,1,0,0,13,1,1,0,0,0,22,22,34,1,,,,,,,,
,,,,,,,,,,,,,FF,,,,,,,,1.3071,,,,,,,,,,,,,,,,,,,,,,60fcc96991d7f1dff0cfb17f,61036dfce74451882cc12837,2021-07-29_20h13.16.649,Simcolourproject_2stim_asymm_v5,2020.2.10,Win32,60,61025ae37ef11b136ea224fe,,,,,,,,,186,-110,-69,1,0,0,response5disk,,2,-19,0,1,0,0,rectangle,-19,0,1,0,0,-19,0,1,0,0,0,23,23,154,1,,,,,,,,
,,,,,,,,,,,,,FF,,,,,,,,0.9705,,,,,,,,,,,,,,,,,,,,,,60fcc96991d7f1dff0cfb17f,61036dfce74451882cc12837,2021-07-29_20h13.16.649,Simcolourproject_2stim_asymm_v5,2020.2.10,Win32,60,61025ae37ef11b136ea224fe,,,,,,,,,516,56,79,1,0,0,response1disk,,7,10,-10,1,0,0,rectangle,10,-10,1,0,0,10,-10,1,0,0,0,24,24,51,1,,,,,,,,
,,,,,,,,,,,,,FF,,,,,,,,1.267,,,,,,,,,,,,,,,,,,,,,,60fcc96991d7f1dff0cfb17f,61036dfce74451882cc12837,2021-07-29_20h13.16.649,Simcolourproject_2stim_asymm_v5,2020.2.10,Win32,60,61025ae37ef11b136ea224fe,,,,,,,,,4282,-75,-93,1,0,0,response5disk,,3,-18,13,1,0,0,rectangle,-18,13,1,0,0,-18,13,1,0,0,0,25,25,126,1,,,,,,,,
,,,,,,,,,,,,,FF,,,,,,,,0.9237,,,,,,,,,,,,,,,,,,,,,,60fcc96991d7f1dff0cfb17f,61036dfce74451882cc12837,2021-07-29_20h13.16.649,Simcolourproject_2stim_asymm_v5,2020.2.10,Win32,60,61025ae37ef11b136ea224fe,,,,,,,,,505,41,96,1,0,0,response1disk,,7,11,-7,1,0,0,rectangle,11,-7,1,0,0,11,-7,1,0,0,0,26,26,94,1,,,,,,,,
,,,,,,,,,,,,,FF,,,,,,,,0.7472,,,,,,,,,,,,,,,,,,,,,,60fcc96991d7f1dff0cfb17f,61036dfce74451882cc12837,2021-07-29_20h13.16.649,Simcolourproject_2stim_asymm_v5,2020.2.10,Win32,60,61025ae37ef11b136ea224fe,,,,,,,,,1507,65,98,1,0,0,response1disk,,7,6,-3,1,0,0,rectangle,6,-3,1,0,0,6,-3,1,0,0,0,27,27,55,1,,,,,,,,
,,,,,,,,,,,,,FF,,,,,,,,0.6804,,,,,,,,,,,,,,,,,,,,,,60fcc96991d7f1dff0cfb17f,61036dfce74451882cc12837,2021-07-29_20h13.16.649,Simcolourproject_2stim_asymm_v5,2020.2.10,Win32,60,61025ae37ef11b136ea224fe,,,,,,,,,775,50,92,1,0,0,response1disk,,7,12,-1,1,0,0,rectangle,12,-1,1,0,0,12,-1,1,0,0,0,28,28,6,1,,,,,,,,
,,,,,,,,,,,,,FF,,,,,,,,0.7602,,,,,,,,,,,,,,,,,,,,,,60fcc96991d7f1dff0cfb17f,61036dfce74451882cc12837,2021-07-29_20h13.16.649,Simcolourproject_2stim_asymm_v5,2020.2.10,Win32,60,61025ae37ef11b136ea224fe,,,,,,,,,2572,46,78,1,0,0,response1disk,,7,16,1,1,0,0,rectangle,16,1,1,0,0,16,1,1,0,0,0,29,29,68,1,,,,,,,,
,,,,,,,,,,,,,FF,,,,,,,,0.7334,,,,,,,,,,,,,,,,,,,,,,60fcc96991d7f1dff0cfb17f,61036dfce74451882cc12837,2021-07-29_20h13.16.649,Simcolourproject_2stim_asymm_v5,2020.2.10,Win32,60,61025ae37ef11b136ea224fe,,,,,,,,,3318,40,66,1,0,0,response1disk,,7,7,3,1,0,0,rectangle,7,3,1,0,0,7,3,1,0,0,0,30,30,58,1,,,,,,,,
,,,,,,,,,,,,,FF,,,,,,,,0.8003,,,,,,,,,,,,,,,,,,,,,,60fcc96991d7f1dff0cfb17f,61036dfce74451882cc12837,2021-07-29_20h13.16.649,Simcolourproject_2stim_asymm_v5,2020.2.10,Win32,60,61025ae37ef11b136ea224fe,,,,,,,,,771,37,71,1,0,0,response1disk,,7,4,4,1,0,0,rectangle,4,4,1,0,0,4,4,1,0,0,0,31,31,121,1,,,,,,,,
,,,,,,,,,,,,,FF,,,,,,,,0.7336,,,,,,,,,,,,,,,,,,,,,,60fcc96991d7f1dff0cfb17f,61036dfce74451882cc12837,2021-07-29_20h13.16.649,Simcolourproject_2stim_asymm_v5,2020.2.10,Win32,60,61025ae37ef11b136ea224fe,,,,,,,,,4017,39,65,1,0,0,response1disk,,7,6,1,1,0,0,rectangle,6,1,1,0,0,6,1,1,0,0,0,32,32,132,1,,,,,,,,
,,,,,,,,,,,,,FF,,,,,,,,1.2004,,,,,,,,,,,,,,,,,,,,,,60fcc96991d7f1dff0cfb17f,61036dfce74451882cc12837,2021-07-29_20h13.16.649,Simcolourproject_2stim_asymm_v5,2020.2.10,Win32,60,61025ae37ef11b136ea224fe,,,,,,,,,137,37,65,1,0,0,response1disk,,7,4,6,1,0,0,rectangle,4,6,1,0,0,4,6,1,0,0,0,33,33,18,1,,,,,,,,
,,,,,,,,,,,,,FF,,,,,,,,2.8511,,,,,,,,,,,,,,,,,,,,,,60fcc96991d7f1dff0cfb17f,61036dfce74451882cc12837,2021-07-29_20h13.16.649,Simcolourproject_2stim_asymm_v5,2020.2.10,Win32,60,61025ae37ef11b136ea224fe,,,,,,,,,831,87,33,1,0,0,response1disk,,6,31,-4,1,0,0,rectangle,31,-4,1,0,0,31,-4,1,0,0,0,34,34,116,1,,,,,,,,
,,,,,,,,,,,,,FF,,,,,,,,1.4836,,,,,,,,,,,,,,,,,,,,,,60fcc96991d7f1dff0cfb17f,61036dfce74451882cc12837,2021-07-29_20h13.16.649,Simcolourproject_2stim_asymm_v5,2020.2.10,Win32,60,61025ae37ef11b136ea224fe,,,,,,,,,752,43,102,1,0,0,response1disk,,7,-7,3,1,0,0,rectangle,-7,3,1,0,0,-7,3,1,0,0,0,35,35,39,1,,,,,,,,
,,,,,,,,,,,,,FF,,,,,,,,0.6537,,,,,,,,,,,,,,,,,,,,,,60fcc96991d7f1dff0cfb17f,61036dfce74451882cc12837,2021-07-29_20h13.16.649,Simcolourproject_2stim_asymm_v5,2020.2.10,Win32,60,61025ae37ef11b136ea224fe,,,,,,,,,1640,36,76,1,0,0,response1disk,,7,-1,3,1,0,0,rectangle,-1,3,1,0,0,-1,3,1,0,0,0,36,36,91,1,,,,,,,,
,,,,,,,,,,,,,FF,,,,,,,,0.6005,,,,,,,,,,,,,,,,,,,,,,60fcc96991d7f1dff0cfb17f,61036dfce74451882cc12837,2021-07-29_20h13.16.649,Simcolourproject_2stim_asymm_v5,2020.2.10,Win32,60,61025ae37ef11b136ea224fe,,,,,,,,,1503,30,71,1,0,0,response1disk,,7,6,-5,1,0,0,rectangle,6,-5,1,0,0,6,-5,1,0,0,0,37,37,144,1,,,,,,,,
,,,,,,,,,,,,,FF,,,,,,,,1.6574,,,,,,,,,,,,,,,,,,,,,,60fcc96991d7f1dff0cfb17f,61036dfce74451882cc12837,2021-07-29_20h13.16.649,Simcolourproject_2stim_asymm_v5,2020.2.10,Win32,60,61025ae37ef11b136ea224fe,,,,,,,,,2908,48,-74,1,0,0,response3disk,,4,7,-4,1,0,0,rectangle,7,-4,1,0,0,7,-4,1,0,0,0,38,38,17,1,,,,,,,,
,,,,,,,,,,,,,FF,,,,,,,,2.7208,,,,,,,,,,,,,,,,,,,,,,60fcc96991d7f1dff0cfb17f,61036dfce74451882cc12837,2021-07-29_20h13.16.649,Simcolourproject_2stim_asymm_v5,2020.2.10,Win32,60,61025ae37ef11b136ea224fe,,,,,,,,,1030,53,-37,1,0,0,response3disk,,5,12,1,1,0,0,rectangle,12,1,1,0,0,12,1,1,0,0,0,39,39,142,1,,,,,,,,
,,,,,,,,,,,,,FF,,,,,,,,0.7737,,,,,,,,,,,,,,,,,,,,,,60fcc96991d7f1dff0cfb17f,61036dfce74451882cc12837,2021-07-29_20h13.16.649,Simcolourproject_2stim_asymm_v5,2020.2.10,Win32,60,61025ae37ef11b136ea224fe,,,,,,,,,2973,36,72,1,0,0,response1disk,,7,4,6,1,0,0,rectangle,4,6,1,0,0,4,6,1,0,0,0,40,40,78,1,,,,,,,,
,,,,,,,,,,,,,FF,,,,,,,,1.2938,,,,,,,,,,,,,,,,,,,,,,60fcc96991d7f1dff0cfb17f,61036dfce74451882cc12837,2021-07-29_20h13.16.649,Simcolourproject_2stim_asymm_v5,2020.2.10,Win32,60,61025ae37ef11b136ea224fe,,,,,,,,,3088,32,47,1,0,0,response1disk,,7,0,4,1,0,0,rectangle,0,4,1,0,0,0,4,1,0,0,0,41,41,7,1,,,,,,,,
,,,,,,,,,,,,,FF,,,,,,,,1.667,,,,,,,,,,,,,,,,,,,,,,60fcc96991d7f1dff0cfb17f,61036dfce74451882cc12837,2021-07-29_20h13.16.649,Simcolourproject_2stim_asymm_v5,2020.2.10,Win32,60,61025ae37ef11b136ea224fe,,,,,,,,,2933,31,-91,1,0,0,response3disk,,4,0,-4,1,0,0,rectangle,0,-4,1,0,0,0,-4,1,0,0,0,42,42,10,1,,,,,,,,
,,,,,,,,,,,,,FF,,,,,,,,0.6538,,,,,,,,,,,,,,,,,,,,,,60fcc96991d7f1dff0cfb17f,61036dfce74451882cc12837,2021-07-29_20h13.16.649,Simcolourproject_2stim_asymm_v5,2020.2.10,Win32,60,61025ae37ef11b136ea224fe,,,,,,,,,500,32,87,1,0,0,response1disk,,7,11,13,1,0,0,rectangle,11,13,1,0,0,11,13,1,0,0,0,43,43,30,1,,,,,,,,
,,,,,,,,,,,,,FF,,,,,,,,2.9076,,,,,,,,,,,,,,,,,,,,,,60fcc96991d7f1dff0cfb17f,61036dfce74451882cc12837,2021-07-29_20h13.16.649,Simcolourproject_2stim_asymm_v5,2020.2.10,Win32,60,61025ae37ef11b136ea224fe,,,,,,,,,4,88,43,1,0,0,response1disk,,6,16,3,1,0,0,rectangle,16,3,1,0,0,16,3,1,0,0,0,44,44,114,1,,,,,,,,
,,,,,,,,,,,,,FF,,,,,,,,1.6274,,,,,,,,,,,,,,,,,,,,,,60fcc96991d7f1dff0cfb17f,61036dfce74451882cc12837,2021-07-29_20h13.16.649,Simcolourproject_2stim_asymm_v5,2020.2.10,Win32,60,61025ae37ef11b136ea224fe,,,,,,,,,140,46,66,1,0,0,response1disk,,7,11,6,1,0,0,rectangle,11,6,1,0,0,11,6,1,0,0,0,45,45,46,1,,,,,,,,
,,,,,,,,,,,,,FF,,,,,,,,0.7969,,,,,,,,,,,,,,,,,,,,,,60fcc96991d7f1dff0cfb17f,61036dfce74451882cc12837,2021-07-29_20h13.16.649,Simcolourproject_2stim_asymm_v5,2020.2.10,Win32,60,61025ae37ef11b136ea224fe,,,,,,,,,3655,42,75,1,0,0,response1disk,,7,11,13,1,0,0,rectangle,11,13,1,0,0,11,13,1,0,0,0,46,46,95,1,,,,,,,,
,,,,,,,,,,,,,FF,,,,,,,,2.3449,,,,,,,,,,,,,,,,,,,,,,60fcc96991d7f1dff0cfb17f,61036dfce74451882cc12837,2021-07-29_20h13.16.649,Simcolourproject_2stim_asymm_v5,2020.2.10,Win32,60,61025ae37ef11b136ea224fe,,,,,,,,,1951,50,-71,1,0,0,response3disk,,4,10,-14,1,0,0,rectangle,10,-14,1,0,0,10,-14,1,0,0,0,47,47,28,1,,,,,,,,
,,,,,,,,,,,,,FF,,,,,,,,1.7707,,,,,,,,,,,,,,,,,,,,,,60fcc96991d7f1dff0cfb17f,61036dfce74451882cc12837,2021-07-29_20h13.16.649,Simcolourproject_2stim_asymm_v5,2020.2.10,Win32,60,61025ae37ef11b136ea224fe,,,,,,,,,1552,39,75,1,0,0,response1disk,,7,9,17,1,0,0,rectangle,9,17,1,0,0,9,17,1,0,0,0,48,48,135,1,,,,,,,,
,,,,,,,,,,,,,FF,,,,,,,,1.5873,,,,,,,,,,,,,,,,,,,,,,60fcc96991d7f1dff0cfb17f,61036dfce74451882cc12837,2021-07-29_20h13.16.649,Simcolourproject_2stim_asymm_v5,2020.2.10,Win32,60,61025ae37ef11b136ea224fe,,,,,,,,,2359,36,-95,1,0,0,response3disk,,4,-4,3,1,0,0,rectangle,-4,3,1,0,0,-4,3,1,0,0,0,49,49,101,1,,,,,,,,
,,,,,,,,,,,,,FF,,,,,,,,1.3072,,,,,,,,,,,,,,,,,,,,,,60fcc96991d7f1dff0cfb17f,61036dfce74451882cc12837,2021-07-29_20h13.16.649,Simcolourproject_2stim_asymm_v5,2020.2.10,Win32,60,61025ae37ef11b136ea224fe,,,,,,,,,1746,-65,-89,1,0,0,response5disk,,3,-16,18,1,0,0,rectangle,-16,18,1,0,0,-16,18,1,0,0,0,50,50,145,1,,,,,,,,
,,,,,,,,,,,,,FF,,,,,,,,0.7865,,,,,,,,,,,,,,,,,,,,,,60fcc96991d7f1dff0cfb17f,61036dfce74451882cc12837,2021-07-29_20h13.16.649,Simcolourproject_2stim_asymm_v5,2020.2.10,Win32,60,61025ae37ef11b136ea224fe,,,,,,,,,3606,31,73,1,0,0,response1disk,,7,-6,3,1,0,0,rectangle,-6,3,1,0,0,-6,3,1,0,0,0,51,51,119,1,,,,,,,,
,,,,,,,,,,,,,FF,,,,,,,,0.7735,,,,,,,,,,,,,,,,,,,,,,60fcc96991d7f1dff0cfb17f,61036dfce74451882cc12837,2021-07-29_20h13.16.649,Simcolourproject_2stim_asymm_v5,2020.2.10,Win32,60,61025ae37ef11b136ea224fe,,,,,,,,,1509,40,67,1,0,0,response1disk,,7,0,-1,1,0,0,rectangle,86,-42,1,0,0,28,-6,1,0,0,0,52,52,26,1,,response3disk_3,TRUE,5,5,"[270,99,64,84,289,90,13,306,53,101,242,118,275,103,215,101,124,89,243,89]",1.4847,rectangle
,,,,,,,,,,,,,FF,,,,,,,,3.9109,,,,,,,,,,,,,,,,,,,,,,60fcc96991d7f1dff0cfb17f,61036dfce74451882cc12837,2021-07-29_20h13.16.649,Simcolourproject_2stim_asymm_v5,2020.2.10,Win32,60,61025ae37ef11b136ea224fe,,,,,,,,,2272,65,88,1,0,0,response1disk,,7,4,7,1,0,0,rectangle,4,7,1,0,0,4,7,1,0,0,0,53,53,81,1,,,,,,,,
,,,,,,,,,,,,,FF,,,,,,,,2.2176,,,,,,,,,,,,,,,,,,,,,,60fcc96991d7f1dff0cfb17f,61036dfce74451882cc12837,2021-07-29_20h13.16.649,Simcolourproject_2stim_asymm_v5,2020.2.10,Win32,60,61025ae37ef11b136ea224fe,,,,,,,,,4003,95,-25,1,0,0,response3disk,,5,6,2,1,0,0,rectangle,6,2,1,0,0,6,2,1,0,0,0,54,54,60,1,,,,,,,,
,,,,,,,,,,,,,FF,,,,,,,,3.3111,,,,,,,,,,,,,,,,,,,,,,60fcc96991d7f1dff0cfb17f,61036dfce74451882cc12837,2021-07-29_20h13.16.649,Simcolourproject_2stim_asymm_v5,2020.2.10,Win32,60,61025ae37ef11b136ea224fe,,,,,,,,,650,49,84,1,0,0,response1disk,,7,8,5,1,0,0,rectangle,8,5,1,0,0,8,5,1,0,0,0,55,55,9,1,,,,,,,,
,,,,,,,,,,,,,FF,,,,,,,,2.721,,,,,,,,,,,,,,,,,,,,,,60fcc96991d7f1dff0cfb17f,61036dfce74451882cc12837,2021-07-29_20h13.16.649,Simcolourproject_2stim_asymm_v5,2020.2.10,Win32,60,61025ae37ef11b136ea224fe,,,,,,,,,2153,38,-63,1,0,0,response3disk,,4,1,4,1,0,0,rectangle,1,4,1,0,0,1,4,1,0,0,0,56,56,73,1,,,,,,,,
,,,,,,,,,,,,,FF,,,,,,,,3.5637,,,,,,,,,,,,,,,,,,,,,,60fcc96991d7f1dff0cfb17f,61036dfce74451882cc12837,2021-07-29_20h13.16.649,Simcolourproject_2stim_asymm_v5,2020.2.10,Win32,60,61025ae37ef11b136ea224fe,,,,,,,,,2763,74,48,1,0,0,response1disk,,6,28,7,1,0,0,rectangle,28,7,1,0,0,28,7,1,0,0,0,57,57,153,1,,,,,,,,
,,,,,,,,,,,,,FF,,,,,,,,2.0509,,,,,,,,,,,,,,,,,,,,,,60fcc96991d7f1dff0cfb17f,61036dfce74451882cc12837,2021-07-29_20h13.16.649,Simcolourproject_2stim_asymm_v5,2020.2.10,Win32,60,61025ae37ef11b136ea224fe,,,,,,,,,3546,27,-55,1,0,0,response3disk,,4,4,1,1,0,0,rectangle,4,1,1,0,0,4,1,1,0,0,0,58,58,155,1,,,,,,,,
,,,,,,,,,,,,,FF,,,,,,,,1.8143,,,,,,,,,,,,,,,,,,,,,,60fcc96991d7f1dff0cfb17f,61036dfce74451882cc12837,2021-07-29_20h13.16.649,Simcolourproject_2stim_asymm_v5,2020.2.10,Win32,60,61025ae37ef11b136ea224fe,,,,,,,,,1661,30,-48,1,0,0,response3disk,,4,-4,3,1,0,0,rectangle,-4,3,1,0,0,-4,3,1,0,0,0,59,59,105,1,,,,,,,,
,,,,,,,,,,,,,FF,,,,,,,,2.1339,,,,,,,,,,,,,,,,,,,,,,60fcc96991d7f1dff0cfb17f,61036dfce74451882cc12837,2021-07-29_20h13.16.649,Simcolourproject_2stim_asymm_v5,2020.2.10,Win32,60,61025ae37ef11b136ea224fe,,,,,,,,,2715,-63,-80,1,0,0,response5disk,,3,-28,-11,1,0,0,rectangle,-28,-11,1,0,0,-28,-11,1,0,0,0,60,60,1,1,,,,,,,,
,,,,,,,,,,,,,FF,,,,,,,,2.9474,,,,,,,,,,,,,,,,,,,,,,60fcc96991d7f1dff0cfb17f,61036dfce74451882cc12837,2021-07-29_20h13.16.649,Simcolourproject_2stim_asymm_v5,2020.2.10,Win32,60,61025ae37ef11b136ea224fe,,,,,,,,,1796,44,56,1,0,0,response1disk,,7,-3,-8,1,0,0,rectangle,-3,-8,1,0,0,-3,-8,1,0,0,0,61,61,152,1,,,,,,,,
,,,,,,,,,,,,,FF,,,,,,,,1.0138,,,,,,,,,,,,,,,,,,,,,,60fcc96991d7f1dff0cfb17f,61036dfce74451882cc12837,2021-07-29_20h13.16.649,Simcolourproject_2stim_asymm_v5,2020.2.10,Win32,60,61025ae37ef11b136ea224fe,,,,,,,,,2221,52,82,1,0,0,response1disk,,7,11,12,1,0,0,rectangle,11,12,1,0,0,11,12,1,0,0,0,62,62,47,1,,,,,,,,
,,,,,,,,,,,,,FF,,,,,,,,1.4304,,,,,,,,,,,,,,,,,,,,,,60fcc96991d7f1dff0cfb17f,61036dfce74451882cc12837,2021-07-29_20h13.16.649,Simcolourproject_2stim_asymm_v5,2020.2.10,Win32,60,61025ae37ef11b136ea224fe,,,,,,,,,3423,-76,-54,1,0,0,response5disk,,2,-24,-9,1,0,0,rectangle,-84,59,1,0,0,-16,8,1,0,0,0,63,63,57,1,,response7disk_3,TRUE,1,1,"[270,99,64,84,289,90,13,306,53,101,242,118,275,103,215,101,124,89,243,89]",1.6272,rectangle
,,,,,,,,,,,,,FF,,,,,,,,1.7372,,,,,,,,,,,,,,,,,,,,,,60fcc96991d7f1dff0cfb17f,61036dfce74451882cc12837,2021-07-29_20h13.16.649,Simcolourproject_2stim_asymm_v5,2020.2.10,Win32,60,61025ae37ef11b136ea224fe,,,,,,,,,637,-69,47,1,0,0,response7disk,,1,-27,-5,1,0,0,rectangle,-27,-5,1,0,0,-27,-5,1,0,0,0,64,64,63,1,,,,,,,,
,,,,,,,,,,,,,FF,,,,,,,,1.8274,,,,,,,,,,,,,,,,,,,,,,60fcc96991d7f1dff0cfb17f,61036dfce74451882cc12837,2021-07-29_20h13.16.649,Simcolourproject_2stim_asymm_v5,2020.2.10,Win32,60,61025ae37ef11b136ea224fe,,,,,,,,,964,40,68,1,0,0,response1disk,,7,-2,-1,1,0,0,rectangle,-2,-1,1,0,0,-2,-1,1,0,0,0,65,65,12,1,,,,,,,,
,,,,,,,,,,,,,FF,,,,,,,,0.9473,,,,,,,,,,,,,,,,,,,,,,60fcc96991d7f1dff0cfb17f,61036dfce74451882cc12837,2021-07-29_20h13.16.649,Simcolourproject_2stim_asymm_v5,2020.2.10,Win32,60,61025ae37ef11b136ea224fe,,,,,,,,,1122,24,57,1,0,0,response1disk,,7,18,5,1,0,0,rectangle,18,5,1,0,0,18,5,1,0,0,0,66,66,14,1,,,,,,,,
,,,,,,,,,,,,,FF,,,,,,,,4.8282,,,,,,,,,,,,,,,,,,,,,,60fcc96991d7f1dff0cfb17f,61036dfce74451882cc12837,2021-07-29_20h13.16.649,Simcolourproject_2stim_asymm_v5,2020.2.10,Win32,60,61025ae37ef11b136ea224fe,,,,,,,,,2053,57,40,1,0,0,response1disk,,6,-14,4,1,0,0,rectangle,-14,4,1,0,0,-14,4,1,0,0,0,67,67,108,1,,,,,,,,
,,,,,,,,,,,,,FF,,,,,,,,0.9734,,,,,,,,,,,,,,,,,,,,,,60fcc96991d7f1dff0cfb17f,61036dfce74451882cc12837,2021-07-29_20h13.16.649,Simcolourproject_2stim_asymm_v5,2020.2.10,Win32,60,61025ae37ef11b136ea224fe,,,,,,,,,136,57,77,1,0,0,response1disk,,7,3,2,1,0,0,rectangle,3,2,1,0,0,3,2,1,0,0,0,68,68,33,1,,,,,,,,
,,,,,,,,,,,,,FF,,,,,,,,1.0043,,,,,,,,,,,,,,,,,,,,,,60fcc96991d7f1dff0cfb17f,61036dfce74451882cc12837,2021-07-29_20h13.16.649,Simcolourproject_2stim_asymm_v5,2020.2.10,Win32,60,61025ae37ef11b136ea224fe,,,,,,,,,4150,-46,-76,1,0,0,response5disk,,3,-4,4,1,0,0,rectangle,-4,4,1,0,0,-4,4,1,0,0,0,69,69,107,1,,,,,,,,
,,,,,,,,,,,,,FF,,,,,,,,1.9773,,,,,,,,,,,,,,,,,,,,,,60fcc96991d7f1dff0cfb17f,61036dfce74451882cc12837,2021-07-29_20h13.16.649,Simcolourproject_2stim_asymm_v5,2020.2.10,Win32,60,61025ae37ef11b136ea224fe,,,,,,,,,607,74,-41,1,0,0,response3disk,,5,8,-8,1,0,0,rectangle,8,-8,1,0,0,8,-8,1,0,0,0,70,70,83,1,,,,,,,,
,,,,,,,,,,,,,FF,,,,,,,,0.7641,,,,,,,,,,,,,,,,,,,,,,60fcc96991d7f1dff0cfb17f,61036dfce74451882cc12837,2021-07-29_20h13.16.649,Simcolourproject_2stim_asymm_v5,2020.2.10,Win32,60,61025ae37ef11b136ea224fe,,,,,,,,,2213,29,87,1,0,0,response1disk,,7,-6,-4,1,0,0,rectangle,-6,-4,1,0,0,-6,-4,1,0,0,0,71,71,138,1,,,,,,,,
,,,,,,,,,,,,,FF,,,,,,,,0.7194,,,,,,,,,,,,,,,,,,,,,,60fcc96991d7f1dff0cfb17f,61036dfce74451882cc12837,2021-07-29_20h13.16.649,Simcolourproject_2stim_asymm_v5,2020.2.10,Win32,60,61025ae37ef11b136ea224fe,,,,,,,,,3136,33,74,1,0,0,response1disk,,7,-4,7,1,0,0,rectangle,-4,7,1,0,0,-4,7,1,0,0,0,72,72,66,1,,,,,,,,
,,,,,,,,,,,,,FF,,,,,,,,0.6272,,,,,,,,,,,,,,,,,,,,,,60fcc96991d7f1dff0cfb17f,61036dfce74451882cc12837,2021-07-29_20h13.16.649,Simcolourproject_2stim_asymm_v5,2020.2.10,Win32,60,61025ae37ef11b136ea224fe,,,,,,,,,929,37,75,1,0,0,response1disk,,7,-5,8,1,0,0,rectangle,-5,8,1,0,0,-5,8,1,0,0,0,73,73,88,1,,,,,,,,
,,,,,,,,,,,,,FF,,,,,,,,2.2544,,,,,,,,,,,,,,,,,,,,,,60fcc96991d7f1dff0cfb17f,61036dfce74451882cc12837,2021-07-29_20h13.16.649,Simcolourproject_2stim_asymm_v5,2020.2.10,Win32,60,61025ae37ef11b136ea224fe,,,,,,,,,2230,48,66,1,0,0,response1disk,,7,-1,5,1,0,0,rectangle,-1,5,1,0,0,-1,5,1,0,0,0,74,74,75,1,,,,,,,,
,,,,,,,,,,,,,FF,,,,,,,,1.9205,,,,,,,,,,,,,,,,,,,,,,60fcc96991d7f1dff0cfb17f,61036dfce74451882cc12837,2021-07-29_20h13.16.649,Simcolourproject_2stim_asymm_v5,2020.2.10,Win32,60,61025ae37ef11b136ea224fe,,,,,,,,,2990,36,75,1,0,0,response1disk,,7,-2,10,1,0,0,rectangle,-2,10,1,0,0,-2,10,1,0,0,0,75,75,8,1,,,,,,,,
,,,,,,,,,,,,,FF,,,,,,,,2.094,,,,,,,,,,,,,,,,,,,,,,60fcc96991d7f1dff0cfb17f,61036dfce74451882cc12837,2021-07-29_20h13.16.649,Simcolourproject_2stim_asymm_v5,2020.2.10,Win32,60,61025ae37ef11b136ea224fe,,,,,,,,,3829,48,-28,1,0,0,response3disk,,5,17,5,1,0,0,rectangle,17,5,1,0,0,17,5,1,0,0,0,76,76,134,1,,,,,,,,
,,,,,,,,,,,,,FF,,,,,,,,1.0941,,,,,,,,,,,,,,,,,,,,,,60fcc96991d7f1dff0cfb17f,61036dfce74451882cc12837,2021-07-29_20h13.16.649,Simcolourproject_2stim_asymm_v5,2020.2.10,Win32,60,61025ae37ef11b136ea224fe,,,,,,,,,2349,36,87,1,0,0,response1disk,,7,-12,12,1,0,0,rectangle,-12,12,1,0,0,-12,12,1,0,0,0,77,77,93,1,,,,,,,,
,,,,,,,,,,,,,FF,,,,,,,,1.441,,,,,,,,,,,,,,,,,,,,,,60fcc96991d7f1dff0cfb17f,61036dfce74451882cc12837,2021-07-29_20h13.16.649,Simcolourproject_2stim_asymm_v5,2020.2.10,Win32,60,61025ae37ef11b136ea224fe,,,,,,,,,2997,32,67,1,0,0,response1disk,,7,1,1,1,0,0,rectangle,1,1,1,0,0,1,1,1,0,0,0,78,78,13,1,,,,,,,,
,,,,,,,,,,,,,FF,,,,,,,,0.9338,,,,,,,,,,,,,,,,,,,,,,60fcc96991d7f1dff0cfb17f,61036dfce74451882cc12837,2021-07-29_20h13.16.649,Simcolourproject_2stim_asymm_v5,2020.2.10,Win32,60,61025ae37ef11b136ea224fe,,,,,,,,,1578,32,53,1,0,0,response1disk,,7,8,8,1,0,0,rectangle,8,8,1,0,0,8,8,1,0,0,0,79,79,67,1,,,,,,,,
,,,,,,,,,,,,,FF,,,,,,,,2.2141,,,,,,,,,,,,,,,,,,,,,,60fcc96991d7f1dff0cfb17f,61036dfce74451882cc12837,2021-07-29_20h13.16.649,Simcolourproject_2stim_asymm_v5,2020.2.10,Win32,60,61025ae37ef11b136ea224fe,,,,,,,,,695,38,-62,1,0,0,response3disk,,4,13,2,1,0,0,rectangle,13,2,1,0,0,13,2,1,0,0,0,80,80,52,1,,,,,,,,
,,,,,,,,,,,,,FF,,,,,,,,1.2107,,,,,,,,,,,,,,,,,,,,,,60fcc96991d7f1dff0cfb17f,61036dfce74451882cc12837,2021-07-29_20h13.16.649,Simcolourproject_2stim_asymm_v5,2020.2.10,Win32,60,61025ae37ef11b136ea224fe,,,,,,,,,2664,-67,-48,1,0,0,response5disk,,2,-23,-4,1,0,0,rectangle,-23,-4,1,0,0,-23,-4,1,0,0,0,81,81,29,1,,,,,,,,
,,,,,,,,,,,,,FF,,,,,,,,1.7338,,,,,,,,,,,,,,,,,,,,,,60fcc96991d7f1dff0cfb17f,61036dfce74451882cc12837,2021-07-29_20h13.16.649,Simcolourproject_2stim_asymm_v5,2020.2.10,Win32,60,61025ae37ef11b136ea224fe,,,,,,,,,4228,37,85,1,0,0,response1disk,,7,4,11,1,0,0,rectangle,4,11,1,0,0,4,11,1,0,0,0,82,82,129,1,,,,,,,,
,,,,,,,,,,,,,FF,,,,,,,,0.627,,,,,,,,,,,,,,,,,,,,,,60fcc96991d7f1dff0cfb17f,61036dfce74451882cc12837,2021-07-29_20h13.16.649,Simcolourproject_2stim_asymm_v5,2020.2.10,Win32,60,61025ae37ef11b136ea224fe,,,,,,,,,4313,40,70,1,0,0,response1disk,,7,0,-3,1,0,0,rectangle,-87,48,1,0,0,-22,10,1,0,0,0,83,83,141,1,,response7disk_3,TRUE,1,1,"[270,99,64,84,289,90,13,306,53,101,242,118,275,103,215,101,124,89,243,89]",1.3467,rectangle
,,,,,,,,,,,,,FF,,,,,,,,2.5052,,,,,,,,,,,,,,,,,,,,,,60fcc96991d7f1dff0cfb17f,61036dfce74451882cc12837,2021-07-29_20h13.16.649,Simcolourproject_2stim_asymm_v5,2020.2.10,Win32,60,61025ae37ef11b136ea224fe,,,,,,,,,641,31,-55,1,0,0,response3disk,,4,-9,12,1,0,0,rectangle,-9,12,1,0,0,-9,12,1,0,0,0,84,84,104,1,,,,,,,,
,,,,,,,,,,,,,FF,,,,,,,,2.0991,,,,,,,,,,,,,,,,,,,,,,60fcc96991d7f1dff0cfb17f,61036dfce74451882cc12837,2021-07-29_20h13.16.649,Simcolourproject_2stim_asymm_v5,2020.2.10,Win32,60,61025ae37ef11b136ea224fe,,,,,,,,,2905,52,37,1,0,0,response1disk,,6,1,11,1,0,0,rectangle,1,11,1,0,0,1,11,1,0,0,0,85,85,90,1,,,,,,,,
,,,,,,,,,,,,,FF,,,,,,,,1.2539,,,,,,,,,,,,,,,,,,,,,,60fcc96991d7f1dff0cfb17f,61036dfce74451882cc12837,2021-07-29_20h13.16.649,Simcolourproject_2stim_asymm_v5,2020.2.10,Win32,60,61025ae37ef11b136ea224fe,,,,,,,,,2373,52,28,1,0,0,response1disk,,6,2,-6,1,0,0,rectangle,2,-6,1,0,0,2,-6,1,0,0,0,86,86,147,1,,,,,,,,
,,,,,,,,,,,,,FF,,,,,,,,1.1072,,,,,,,,,,,,,,,,,,,,,,60fcc96991d7f1dff0cfb17f,61036dfce74451882cc12837,2021-07-29_20h13.16.649,Simcolourproject_2stim_asymm_v5,2020.2.10,Win32,60,61025ae37ef11b136ea224fe,,,,,,,,,90,34,75,1,0,0,response1disk,,7,-1,-5,1,0,0,rectangle,-1,-5,1,0,0,-1,-5,1,0,0,0,87,87,158,1,,,,,,,,
,,,,,,,,,,,,,FF,,,,,,,,0.6152,,,,,,,,,,,,,,,,,,,,,,60fcc96991d7f1dff0cfb17f,61036dfce74451882cc12837,2021-07-29_20h13.16.649,Simcolourproject_2stim_asymm_v5,2020.2.10,Win32,60,61025ae37ef11b136ea224fe,,,,,,,,,3028,34,62,1,0,0,response1disk,,7,3,6,1,0,0,rectangle,-73,44,1,0,0,-30,7,1,0,0,0,88,88,118,1,,response7disk_3,TRUE,1,1,"[270,99,64,84,289,90,13,306,53,101,242,118,275,103,215,101,124,89,243,89]",1.1877,rectangle
,,,,,,,,,,,,,FF,,,,,,,,3.1878,,,,,,,,,,,,,,,,,,,,,,60fcc96991d7f1dff0cfb17f,61036dfce74451882cc12837,2021-07-29_20h13.16.649,Simcolourproject_2stim_asymm_v5,2020.2.10,Win32,60,61025ae37ef11b136ea224fe,,,,,,,,,4117,26,-67,1,0,0,response3disk,,4,-3,-4,1,0,0,rectangle,28,-90,1,0,0,2,4,1,0,0,0,89,89,80,1,,response3disk_3,TRUE,4,4,"[270,99,64,84,289,90,13,306,53,101,242,118,275,103,215,101,124,89,243,89]",2.0787,rectangle
,,,,,,,,,,,,,FF,,,,,,,,0.7469,,,,,,,,,,,,,,,,,,,,,,60fcc96991d7f1dff0cfb17f,61036dfce74451882cc12837,2021-07-29_20h13.16.649,Simcolourproject_2stim_asymm_v5,2020.2.10,Win32,60,61025ae37ef11b136ea224fe,,,,,,,,,935,35,79,1,0,0,response1disk,,7,-5,6,1,0,0,rectangle,-5,6,1,0,0,-5,6,1,0,0,0,90,90,44,1,,,,,,,,
,,,,,,,,,,,,,FF,,,,,,,,0.6136,,,,,,,,,,,,,,,,,,,,,,60fcc96991d7f1dff0cfb17f,61036dfce74451882cc12837,2021-07-29_20h13.16.649,Simcolourproject_2stim_asymm_v5,2020.2.10,Win32,60,61025ae37ef11b136ea224fe,,,,,,,,,1656,26,59,1,0,0,response1disk,,7,1,6,1,0,0,rectangle,1,6,1,0,0,1,6,1,0,0,0,91,91,146,1,,,,,,,,
,,,,,,,,,,,,,FF,,,,,,,,1.4841,,,,,,,,,,,,,,,,,,,,,,60fcc96991d7f1dff0cfb17f,61036dfce74451882cc12837,2021-07-29_20h13.16.649,Simcolourproject_2stim_asymm_v5,2020.2.10,Win32,60,61025ae37ef11b136ea224fe,,,,,,,,,614,-47,-69,1,0,0,response5disk,,3,-7,-1,1,0,0,rectangle,-7,-1,1,0,0,-7,-1,1,0,0,0,92,92,96,1,,,,,,,,
,,,,,,,,,,,,,FF,,,,,,,,1.5206,,,,,,,,,,,,,,,,,,,,,,60fcc96991d7f1dff0cfb17f,61036dfce74451882cc12837,2021-07-29_20h13.16.649,Simcolourproject_2stim_asymm_v5,2020.2.10,Win32,60,61025ae37ef11b136ea224fe,,,,,,,,,326,31,58,1,0,0,response1disk,,7,2,-10,1,0,0,rectangle,2,-10,1,0,0,2,-10,1,0,0,0,93,93,59,1,,,,,,,,
,,,,,,,,,,,,,FF,,,,,,,,1.0277,,,,,,,,,,,,,,,,,,,,,,60fcc96991d7f1dff0cfb17f,61036dfce74451882cc12837,2021-07-29_20h13.16.649,Simcolourproject_2stim_asymm_v5,2020.2.10,Win32,60,61025ae37ef11b136ea224fe,,,,,,,,,968,-33,73,1,0,0,response7disk,,0,-10,8,1,0,0,rectangle,-10,8,1,0,0,-10,8,1,0,0,0,94,94,149,1,,,,,,,,
,,,,,,,,,,,,,FF,,,,,,,,1.5739,,,,,,,,,,,,,,,,,,,,,,60fcc96991d7f1dff0cfb17f,61036dfce74451882cc12837,2021-07-29_20h13.16.649,Simcolourproject_2stim_asymm_v5,2020.2.10,Win32,60,61025ae37ef11b136ea224fe,,,,,,,,,292,34,85,1,0,0,response1disk,,7,-4,17,1,0,0,rectangle,-4,17,1,0,0,-4,17,1,0,0,0,95,95,99,1,,,,,,,,
,,,,,,,,,,,,,FF,,,,,,,,0.9335,,,,,,,,,,,,,,,,,,,,,,60fcc96991d7f1dff0cfb17f,61036dfce74451882cc12837,2021-07-29_20h13.16.649,Simcolourproject_2stim_asymm_v5,2020.2.10,Win32,60,61025ae37ef11b136ea224fe,,,,,,,,,1519,33,77,1,0,0,response1disk,,7,0,0,1,0,0,rectangle,0,0,1,0,0,0,0,1,0,0,0,96,96,102,1,,,,,,,,
,,,,,,,,,,,,,FF,,,,,,,,0.8008,,,,,,,,,,,,,,,,,,,,,,60fcc96991d7f1dff0cfb17f,61036dfce74451882cc12837,2021-07-29_20h13.16.649,Simcolourproject_2stim_asymm_v5,2020.2.10,Win32,60,61025ae37ef11b136ea224fe,,,,,,,,,1348,30,65,1,0,0,response1disk,,7,-1,15,1,0,0,rectangle,-1,15,1,0,0,-1,15,1,0,0,0,97,97,23,1,,,,,,,,
,,,,,,,,,,,,,FF,,,,,,,,1.3872,,,,,,,,,,,,,,,,,,,,,,60fcc96991d7f1dff0cfb17f,61036dfce74451882cc12837,2021-07-29_20h13.16.649,Simcolourproject_2stim_asymm_v5,2020.2.10,Win32,60,61025ae37ef11b136ea224fe,,,,,,,,,1901,-61,-38,1,0,0,response5disk,,2,-6,4,1,0,0,rectangle,32,75,1,0,0,-6,-2,1,0,0,0,98,98,49,1,,response1disk_3,TRUE,7,7,"[270,99,64,84,289,90,13,306,53,101,242,118,275,103,215,101,124,89,243,89]",1.3467,rectangle
,,,,,,,,,,,,,FF,,,,,,,,1.2671,,,,,,,,,,,,,,,,,,,,,,60fcc96991d7f1dff0cfb17f,61036dfce74451882cc12837,2021-07-29_20h13.16.649,Simcolourproject_2stim_asymm_v5,2020.2.10,Win32,60,61025ae37ef11b136ea224fe,,,,,,,,,1296,-88,47,1,0,0,response7disk,,1,-25,5,1,0,0,rectangle,-25,5,1,0,0,-25,5,1,0,0,0,99,99,140,1,,,,,,,,
,,,,,,,,,,,,,FF,,,,,,,,1.7073,,,,,,,,,,,,,,,,,,,,,,60fcc96991d7f1dff0cfb17f,61036dfce74451882cc12837,2021-07-29_20h13.16.649,Simcolourproject_2stim_asymm_v5,2020.2.10,Win32,60,61025ae37ef11b136ea224fe,,,,,,,,,3892,28,73,1,0,0,response1disk,,7,-6,5,1,0,0,rectangle,26,-91,1,0,0,2,-2,1,0,0,0,100,100,77,1,,response3disk_3,TRUE,4,4,"[270,99,64,84,289,90,13,306,53,101,242,118,275,103,215,101,124,89,243,89]",2.1207,rectangle
,,,,,,,,,,,,,FF,,,,,,,,1.6939,,,,,,,,,,,,,,,,,,,,,,60fcc96991d7f1dff0cfb17f,61036dfce74451882cc12837,2021-07-29_20h13.16.649,Simcolourproject_2stim_asymm_v5,2020.2.10,Win32,60,61025ae37ef11b136ea224fe,,,,,,,,,3575,30,85,1,0,0,response1disk,,7,7,11,1,0,0,rectangle,7,11,1,0,0,7,11,1,0,0,0,101,101,54,1,,,,,,,,
,,,,,,,,,,,,,FF,,,,,,,,0.7336,,,,,,,,,,,,,,,,,,,,,,60fcc96991d7f1dff0cfb17f,61036dfce74451882cc12837,2021-07-29_20h13.16.649,Simcolourproject_2stim_asymm_v5,2020.2.10,Win32,60,61025ae37ef11b136ea224fe,,,,,,,,,2616,33,58,1,0,0,response1disk,,7,13,2,1,0,0,rectangle,60,76,1,0,0,11,-2,1,0,0,0,102,102,38,1,,response1disk_3,TRUE,7,7,"[270,99,64,84,289,90,13,306,53,101,242,118,275,103,215,101,124,89,243,89]",1.24,rectangle
,,,,,,,,,,,,,FF,,,,,,,,2.2141,,,,,,,,,,,,,,,,,,,,,,60fcc96991d7f1dff0cfb17f,61036dfce74451882cc12837,2021-07-29_20h13.16.649,Simcolourproject_2stim_asymm_v5,2020.2.10,Win32,60,61025ae37ef11b136ea224fe,,,,,,,,,2841,70,-46,1,0,0,response3disk,,5,8,2,1,0,0,rectangle,8,2,1,0,0,8,2,1,0,0,0,103,103,112,1,,,,,,,,
,,,,,,,,,,,,,FF,,,,,,,,1.9874,,,,,,,,,,,,,,,,,,,,,,60fcc96991d7f1dff0cfb17f,61036dfce74451882cc12837,2021-07-29_20h13.16.649,Simcolourproject_2stim_asymm_v5,2020.2.10,Win32,60,61025ae37ef11b136ea224fe,,,,,,,,,3077,37,59,1,0,0,response1disk,,7,11,15,1,0,0,rectangle,11,15,1,0,0,11,15,1,0,0,0,104,104,25,1,,,,,,,,
,,,,,,,,,,,,,FF,,,,,,,,0.7602,,,,,,,,,,,,,,,,,,,,,,60fcc96991d7f1dff0cfb17f,61036dfce74451882cc12837,2021-07-29_20h13.16.649,Simcolourproject_2stim_asymm_v5,2020.2.10,Win32,60,61025ae37ef11b136ea224fe,,,,,,,,,1581,36,87,1,0,0,response1disk,,7,-4,15,1,0,0,rectangle,-4,15,1,0,0,-4,15,1,0,0,0,105,105,40,1,,,,,,,,
,,,,,,,,,,,,,FF,,,,,,,,0.4403,,,,,,,,,,,,,,,,,,,,,,60fcc96991d7f1dff0cfb17f,61036dfce74451882cc12837,2021-07-29_20h13.16.649,Simcolourproject_2stim_asymm_v5,2020.2.10,Win32,60,61025ae37ef11b136ea224fe,,,,,,,,,1722,29,74,1,0,0,response1disk,,7,-5,9,1,0,0,rectangle,-5,9,1,0,0,-5,9,1,0,0,0,106,106,124,1,,,,,,,,
,,,,,,,,,,,,,FF,,,,,,,,1.1872,,,,,,,,,,,,,,,,,,,,,,60fcc96991d7f1dff0cfb17f,61036dfce74451882cc12837,2021-07-29_20h13.16.649,Simcolourproject_2stim_asymm_v5,2020.2.10,Win32,60,61025ae37ef11b136ea224fe,,,,,,,,,2614,52,-24,1,0,0,response3disk,,5,6,-2,1,0,0,rectangle,6,-2,1,0,0,6,-2,1,0,0,0,107,107,120,1,,,,,,,,
,,,,,,,,,,,,,FF,,,,,,,,0.7741,,,,,,,,,,,,,,,,,,,,,,60fcc96991d7f1dff0cfb17f,61036dfce74451882cc12837,2021-07-29_20h13.16.649,Simcolourproject_2stim_asymm_v5,2020.2.10,Win32,60,61025ae37ef11b136ea224fe,,,,,,,,,1210,37,81,1,0,0,response1disk,,7,4,8,1,0,0,rectangle,4,8,1,0,0,4,8,1,0,0,0,108,108,130,1,,,,,,,,
,,,,,,,,,,,,,FF,,,,,,,,1.4138,,,,,,,,,,,,,,,,,,,,,,60fcc96991d7f1dff0cfb17f,61036dfce74451882cc12837,2021-07-29_20h13.16.649,Simcolourproject_2stim_asymm_v5,2020.2.10,Win32,60,61025ae37ef11b136ea224fe,,,,,,,,,3522,-34,-62,1,0,0,response5disk,,3,-6,1,1,0,0,rectangle,-6,1,1,0,0,-6,1,1,0,0,0,109,109,16,1,,,,,,,,
,,,,,,,,,,,,,FF,,,,,,,,1.4541,,,,,,,,,,,,,,,,,,,,,,60fcc96991d7f1dff0cfb17f,61036dfce74451882cc12837,2021-07-29_20h13.16.649,Simcolourproject_2stim_asymm_v5,2020.2.10,Win32,60,61025ae37ef11b136ea224fe,,,,,,,,,830,26,-58,1,0,0,response3disk,,4,8,7,1,0,0,rectangle,8,7,1,0,0,8,7,1,0,0,0,110,110,64,1,,,,,,,,
,,,,,,,,,,,,,FF,,,,,,,,1.5739,,,,,,,,,,,,,,,,,,,,,,60fcc96991d7f1dff0cfb17f,61036dfce74451882cc12837,2021-07-29_20h13.16.649,Simcolourproject_2stim_asymm_v5,2020.2.10,Win32,60,61025ae37ef11b136ea224fe,,,,,,,,,4317,64,31,1,0,0,response1disk,,6,8,0,1,0,0,rectangle,8,0,1,0,0,8,0,1,0,0,0,111,111,72,1,,,,,,,,
,,,,,,,,,,,,,FF,,,,,,,,0.7739,,,,,,,,,,,,,,,,,,,,,,60fcc96991d7f1dff0cfb17f,61036dfce74451882cc12837,2021-07-29_20h13.16.649,Simcolourproject_2stim_asymm_v5,2020.2.10,Win32,60,61025ae37ef11b136ea224fe,,,,,,,,,4065,33,56,1,0,0,response1disk,,7,7,4,1,0,0,rectangle,7,4,1,0,0,7,4,1,0,0,0,112,112,71,1,,,,,,,,
,,,,,,,,,,,,,FF,,,,,,,,0.9205,,,,,,,,,,,,,,,,,,,,,,60fcc96991d7f1dff0cfb17f,61036dfce74451882cc12837,2021-07-29_20h13.16.649,Simcolourproject_2stim_asymm_v5,2020.2.10,Win32,60,61025ae37ef11b136ea224fe,,,,,,,,,4349,37,70,1,0,0,response1disk,,7,5,2,1,0,0,rectangle,5,2,1,0,0,5,2,1,0,0,0,113,113,74,1,,,,,,,,
,,,,,,,,,,,,,FF,,,,,,,,0.5736,,,,,,,,,,,,,,,,,,,,,,60fcc96991d7f1dff0cfb17f,61036dfce74451882cc12837,2021-07-29_20h13.16.649,Simcolourproject_2stim_asymm_v5,2020.2.10,Win32,60,61025ae37ef11b136ea224fe,,,,,,,,,2862,41,65,1,0,0,response1disk,,7,-3,-10,1,0,0,rectangle,-3,-10,1,0,0,-3,-10,1,0,0,0,114,114,127,1,,,,,,,,
,,,,,,,,,,,,,FF,,,,,,,,1.1472,,,,,,,,,,,,,,,,,,,,,,60fcc96991d7f1dff0cfb17f,61036dfce74451882cc12837,2021-07-29_20h13.16.649,Simcolourproject_2stim_asymm_v5,2020.2.10,Win32,60,61025ae37ef11b136ea224fe,,,,,,,,,3000,-76,39,1,0,0,response7disk,,1,-24,12,1,0,0,rectangle,-24,12,1,0,0,-24,12,1,0,0,0,115,115,111,1,,,,,,,,
,,,,,,,,,,,,,FF,,,,,,,,1.3872,,,,,,,,,,,,,,,,,,,,,,60fcc96991d7f1dff0cfb17f,61036dfce74451882cc12837,2021-07-29_20h13.16.649,Simcolourproject_2stim_asymm_v5,2020.2.10,Win32,60,61025ae37ef11b136ea224fe,,,,,,,,,837,34,95,1,0,0,response1disk,,7,-2,15,1,0,0,rectangle,-2,15,1,0,0,-2,15,1,0,0,0,116,116,98,1,,,,,,,,
,,,,,,,,,,,,,FF,,,,,,,,1.1206,,,,,,,,,,,,,,,,,,,,,,60fcc96991d7f1dff0cfb17f,61036dfce74451882cc12837,2021-07-29_20h13.16.649,Simcolourproject_2stim_asymm_v5,2020.2.10,Win32,60,61025ae37ef11b136ea224fe,,,,,,,,,3476,-78,-26,1,0,0,response5disk,,2,-18,10,1,0,0,rectangle,-75,-34,1,0,0,-32,2,1,0,0,0,117,117,139,1,,response5disk_3,TRUE,2,2,"[270,99,64,84,289,90,13,306,53,101,242,118,275,103,215,101,124,89,243,89]",1.6137,rectangle
,,,,,,,,,,,,,FF,,,,,,,,1.0536,,,,,,,,,,,,,,,,,,,,,,60fcc96991d7f1dff0cfb17f,61036dfce74451882cc12837,2021-07-29_20h13.16.649,Simcolourproject_2stim_asymm_v5,2020.2.10,Win32,60,61025ae37ef11b136ea224fe,,,,,,,,,3444,37,85,1,0,0,response1disk,,7,2,0,1,0,0,rectangle,2,0,1,0,0,2,0,1,0,0,0,118,118,84,1,,,,,,,,
,,,,,,,,,,,,,FF,,,,,,,,0.8139,,,,,,,,,,,,,,,,,,,,,,60fcc96991d7f1dff0cfb17f,61036dfce74451882cc12837,2021-07-29_20h13.16.649,Simcolourproject_2stim_asymm_v5,2020.2.10,Win32,60,61025ae37ef11b136ea224fe,,,,,,,,,2284,37,70,1,0,0,response1disk,,7,-3,3,1,0,0,rectangle,-3,3,1,0,0,-3,3,1,0,0,0,119,119,24,1,,,,,,,,
,,,,,,,,,,,,,FF,,,,,,,,1.2004,,,,,,,,,,,,,,,,,,,,,,60fcc96991d7f1dff0cfb17f,61036dfce74451882cc12837,2021-07-29_20h13.16.649,Simcolourproject_2stim_asymm_v5,2020.2.10,Win32,60,61025ae37ef11b136ea224fe,,,,,,,,,502,32,76,1,0,0,response1disk,,7,-2,16,1,0,0,rectangle,-2,16,1,0,0,-2,16,1,0,0,0,120,120,133,1,,,,,,,,
,,,,,,,,,,,,,FF,,,,,,,,1.3071,,,,,,,,,,,,,,,,,,,,,,60fcc96991d7f1dff0cfb17f,61036dfce74451882cc12837,2021-07-29_20h13.16.649,Simcolourproject_2stim_asymm_v5,2020.2.10,Win32,60,61025ae37ef11b136ea224fe,,,,,,,,,4295,-71,-32,1,0,0,response5disk,,2,-2,3,1,0,0,rectangle,-2,3,1,0,0,-2,3,1,0,0,0,121,121,41,1,,,,,,,,
,,,,,,,,,,,,,FF,,,,,,,,1.5075,,,,,,,,,,,,,,,,,,,,,,60fcc96991d7f1dff0cfb17f,61036dfce74451882cc12837,2021-07-29_20h13.16.649,Simcolourproject_2stim_asymm_v5,2020.2.10,Win32,60,61025ae37ef11b136ea224fe,,,,,,,,,3968,-68,-35,1,0,0,response5disk,,2,-26,-4,1,0,0,rectangle,-26,-4,1,0,0,-26,-4,1,0,0,0,122,122,128,1,,,,,,,,
,,,,,,,,,,,,,FF,,,,,,,,1.2003,,,,,,,,,,,,,,,,,,,,,,60fcc96991d7f1dff0cfb17f,61036dfce74451882cc12837,2021-07-29_20h13.16.649,Simcolourproject_2stim_asymm_v5,2020.2.10,Win32,60,61025ae37ef11b136ea224fe,,,,,,,,,846,35,72,1,0,0,response1disk,,7,-1,15,1,0,0,rectangle,-51,80,1,0,0,-13,-4,1,0,0,0,123,123,159,1,,response7disk_3,TRUE,0,0,"[270,99,64,84,289,90,13,306,53,101,242,118,275,103,215,101,124,89,243,89]",1.827,rectangle
,,,,,,,,,,,,,FF,,,,,,,,0.8938,,,,,,,,,,,,,,,,,,,,,,60fcc96991d7f1dff0cfb17f,61036dfce74451882cc12837,2021-07-29_20h13.16.649,Simcolourproject_2stim_asymm_v5,2020.2.10,Win32,60,61025ae37ef11b136ea224fe,,,,,,,,,3681,28,71,1,0,0,response1disk,,7,-10,11,1,0,0,rectangle,-10,11,1,0,0,-10,11,1,0,0,0,124,124,109,1,,,,,,,,
,,,,,,,,,,,,,FF,,,,,,,,0.667,,,,,,,,,,,,,,,,,,,,,,60fcc96991d7f1dff0cfb17f,61036dfce74451882cc12837,2021-07-29_20h13.16.649,Simcolourproject_2stim_asymm_v5,2020.2.10,Win32,60,61025ae37ef11b136ea224fe,,,,,,,,,2528,31,72,1,0,0,response1disk,,7,4,-2,1,0,0,rectangle,4,-2,1,0,0,4,-2,1,0,0,0,125,125,117,1,,,,,,,,
,,,,,,,,,,,,,FF,,,,,,,,0.6802,,,,,,,,,,,,,,,,,,,,,,60fcc96991d7f1dff0cfb17f,61036dfce74451882cc12837,2021-07-29_20h13.16.649,Simcolourproject_2stim_asymm_v5,2020.2.10,Win32,60,61025ae37ef11b136ea224fe,,,,,,,,,489,39,68,1,0,0,response1disk,,7,9,3,1,0,0,rectangle,9,3,1,0,0,9,3,1,0,0,0,126,126,50,1,,,,,,,,
,,,,,,,,,,,,,FF,,,,,,,,1.3203,,,,,,,,,,,,,,,,,,,,,,60fcc96991d7f1dff0cfb17f,61036dfce74451882cc12837,2021-07-29_20h13.16.649,Simcolourproject_2stim_asymm_v5,2020.2.10,Win32,60,61025ae37ef11b136ea224fe,,,,,,,,,2596,33,59,1,0,0,response1disk,,7,-1,5,1,0,0,rectangle,-1,5,1,0,0,-1,5,1,0,0,0,127,127,65,1,,,,,,,,
,,,,,,,,,,,,,FF,,,,,,,,1.1871,,,,,,,,,,,,,,,,,,,,,,60fcc96991d7f1dff0cfb17f,61036dfce74451882cc12837,2021-07-29_20h13.16.649,Simcolourproject_2stim_asymm_v5,2020.2.10,Win32,60,61025ae37ef11b136ea224fe,,,,,,,,,4148,-42,-66,1,0,0,response5disk,,3,-2,-1,1,0,0,rectangle,-2,-1,1,0,0,-2,-1,1,0,0,0,128,128,15,1,,,,,,,,
,,,,,,,,,,,,,FF,,,,,,,,2.3742,,,,,,,,,,,,,,,,,,,,,,60fcc96991d7f1dff0cfb17f,61036dfce74451882cc12837,2021-07-29_20h13.16.649,Simcolourproject_2stim_asymm_v5,2020.2.10,Win32,60,61025ae37ef11b136ea224fe,,,,,,,,,2473,67,-31,1,0,0,response3disk,,5,25,4,1,0,0,rectangle,25,4,1,0,0,25,4,1,0,0,0,129,129,97,1,,,,,,,,
,,,,,,,,,,,,,FF,,,,,,,,1.2406,,,,,,,,,,,,,,,,,,,,,,60fcc96991d7f1dff0cfb17f,61036dfce74451882cc12837,2021-07-29_20h13.16.649,Simcolourproject_2stim_asymm_v5,2020.2.10,Win32,60,61025ae37ef11b136ea224fe,,,,,,,,,3649,40,63,1,0,0,response1disk,,7,14,12,1,0,0,rectangle,14,12,1,0,0,14,12,1,0,0,0,130,130,5,1,,,,,,,,
,,,,,,,,,,,,,FF,,,,,,,,1.5205,,,,,,,,,,,,,,,,,,,,,,60fcc96991d7f1dff0cfb17f,61036dfce74451882cc12837,2021-07-29_20h13.16.649,Simcolourproject_2stim_asymm_v5,2020.2.10,Win32,60,61025ae37ef11b136ea224fe,,,,,,,,,1217,36,-53,1,0,0,response3disk,,4,17,1,1,0,0,rectangle,17,1,1,0,0,17,1,1,0,0,0,131,131,151,1,,,,,,,,
,,,,,,,,,,,,,FF,,,,,,,,1.4939,,,,,,,,,,,,,,,,,,,,,,60fcc96991d7f1dff0cfb17f,61036dfce74451882cc12837,2021-07-29_20h13.16.649,Simcolourproject_2stim_asymm_v5,2020.2.10,Win32,60,61025ae37ef11b136ea224fe,,,,,,,,,1631,37,52,1,0,0,response1disk,,7,7,7,1,0,0,rectangle,7,7,1,0,0,7,7,1,0,0,0,132,132,122,1,,,,,,,,
,,,,,,,,,,,,,FF,,,,,,,,0.9736,,,,,,,,,,,,,,,,,,,,,,60fcc96991d7f1dff0cfb17f,61036dfce74451882cc12837,2021-07-29_20h13.16.649,Simcolourproject_2stim_asymm_v5,2020.2.10,Win32,60,61025ae37ef11b136ea224fe,,,,,,,,,1415,29,55,1,0,0,response1disk,,7,-1,7,1,0,0,rectangle,-1,7,1,0,0,-1,7,1,0,0,0,133,133,143,1,,,,,,,,
,,,,,,,,,,,,,FF,,,,,,,,0.6937,,,,,,,,,,,,,,,,,,,,,,60fcc96991d7f1dff0cfb17f,61036dfce74451882cc12837,2021-07-29_20h13.16.649,Simcolourproject_2stim_asymm_v5,2020.2.10,Win32,60,61025ae37ef11b136ea224fe,,,,,,,,,3962,28,60,1,0,0,response1disk,,7,-6,6,1,0,0,rectangle,-6,6,1,0,0,-6,6,1,0,0,0,134,134,43,1,,,,,,,,
,,,,,,,,,,,,,FF,,,,,,,,1.8004,,,,,,,,,,,,,,,,,,,,,,60fcc96991d7f1dff0cfb17f,61036dfce74451882cc12837,2021-07-29_20h13.16.649,Simcolourproject_2stim_asymm_v5,2020.2.10,Win32,60,61025ae37ef11b136ea224fe,,,,,,,,,3626,57,-37,1,0,0,response3disk,,5,4,0,1,0,0,rectangle,4,0,1,0,0,4,0,1,0,0,0,135,135,11,1,,,,,,,,
,,,,,,,,,,,,,FF,,,,,,,,2.0274,,,,,,,,,,,,,,,,,,,,,,60fcc96991d7f1dff0cfb17f,61036dfce74451882cc12837,2021-07-29_20h13.16.649,Simcolourproject_2stim_asymm_v5,2020.2.10,Win32,60,61025ae37ef11b136ea224fe,,,,,,,,,1769,37,59,1,0,0,response1disk,,7,3,-6,1,0,0,rectangle,3,-6,1,0,0,3,-6,1,0,0,0,136,136,125,1,,,,,,,,
,,,,,,,,,,,,,FF,,,,,,,,0.9736,,,,,,,,,,,,,,,,,,,,,,60fcc96991d7f1dff0cfb17f,61036dfce74451882cc12837,2021-07-29_20h13.16.649,Simcolourproject_2stim_asymm_v5,2020.2.10,Win32,60,61025ae37ef11b136ea224fe,,,,,,,,,1190,28,52,1,0,0,response1disk,,7,6,6,1,0,0,rectangle,6,6,1,0,0,6,6,1,0,0,0,137,137,20,1,,,,,,,,
,,,,,,,,,,,,,FF,,,,,,,,0.6,,,,,,,,,,,,,,,,,,,,,,60fcc96991d7f1dff0cfb17f,61036dfce74451882cc12837,2021-07-29_20h13.16.649,Simcolourproject_2stim_asymm_v5,2020.2.10,Win32,60,61025ae37ef11b136ea224fe,,,,,,,,,673,37,70,1,0,0,response1disk,,7,5,6,1,0,0,rectangle,5,6,1,0,0,5,6,1,0,0,0,138,138,89,1,,,,,,,,
,,,,,,,,,,,,,FF,,,,,,,,0.5733,,,,,,,,,,,,,,,,,,,,,,60fcc96991d7f1dff0cfb17f,61036dfce74451882cc12837,2021-07-29_20h13.16.649,Simcolourproject_2stim_asymm_v5,2020.2.10,Win32,60,61025ae37ef11b136ea224fe,,,,,,,,,3456,43,76,1,0,0,response1disk,,7,4,11,1,0,0,rectangle,4,11,1,0,0,4,11,1,0,0,0,139,139,148,1,,,,,,,,
,,,,,,,,,,,,,FF,,,,,,,,0.4937,,,,,,,,,,,,,,,,,,,,,,60fcc96991d7f1dff0cfb17f,61036dfce74451882cc12837,2021-07-29_20h13.16.649,Simcolourproject_2stim_asymm_v5,2020.2.10,Win32,60,61025ae37ef11b136ea224fe,,,,,,,,,86,33,76,1,0,0,response1disk,,7,-8,13,1,0,0,rectangle,-8,13,1,0,0,-8,13,1,0,0,0,140,140,45,1,,,,,,,,
,,,,,,,,,,,,,FF,,,,,,,,1.4273,,,,,,,,,,,,,,,,,,,,,,60fcc96991d7f1dff0cfb17f,61036dfce74451882cc12837,2021-07-29_20h13.16.649,Simcolourproject_2stim_asymm_v5,2020.2.10,Win32,60,61025ae37ef11b136ea224fe,,,,,,,,,3738,71,-22,1,0,0,response3disk,,5,22,4,1,0,0,rectangle,22,4,1,0,0,22,4,1,0,0,0,141,141,137,1,,,,,,,,
,,,,,,,,,,,,,FF,,,,,,,,1.3473,,,,,,,,,,,,,,,,,,,,,,60fcc96991d7f1dff0cfb17f,61036dfce74451882cc12837,2021-07-29_20h13.16.649,Simcolourproject_2stim_asymm_v5,2020.2.10,Win32,60,61025ae37ef11b136ea224fe,,,,,,,,,2778,-78,-45,1,0,0,response5disk,,2,-26,3,1,0,0,rectangle,-26,3,1,0,0,-26,3,1,0,0,0,142,142,103,1,,,,,,,,
,,,,,,,,,,,,,FF,,,,,,,,2.494,,,,,,,,,,,,,,,,,,,,,,60fcc96991d7f1dff0cfb17f,61036dfce74451882cc12837,2021-07-29_20h13.16.649,Simcolourproject_2stim_asymm_v5,2020.2.10,Win32,60,61025ae37ef11b136ea224fe,,,,,,,,,1635,43,67,1,0,0,response1disk,,7,14,5,1,0,0,rectangle,14,5,1,0,0,14,5,1,0,0,0,143,143,92,1,,,,,,,,
,,,,,,,,,,,,,FF,,,,,,,,0.6004,,,,,,,,,,,,,,,,,,,,,,60fcc96991d7f1dff0cfb17f,61036dfce74451882cc12837,2021-07-29_20h13.16.649,Simcolourproject_2stim_asymm_v5,2020.2.10,Win32,60,61025ae37ef11b136ea224fe,,,,,,,,,2978,41,72,1,0,0,response1disk,,7,6,4,1,0,0,rectangle,6,4,1,0,0,6,4,1,0,0,0,144,144,4,1,,,,,,,,
,,,,,,,,,,,,,FF,,,,,,,,1.4404,,,,,,,,,,,,,,,,,,,,,,60fcc96991d7f1dff0cfb17f,61036dfce74451882cc12837,2021-07-29_20h13.16.649,Simcolourproject_2stim_asymm_v5,2020.2.10,Win32,60,61025ae37ef11b136ea224fe,,,,,,,,,1448,-88,-36,1,0,0,response5disk,,2,-13,8,1,0,0,rectangle,-13,8,1,0,0,-13,8,1,0,0,0,145,145,123,1,,,,,,,,
,,,,,,,,,,,,,FF,,,,,,,,2.4543,,,,,,,,,,,,,,,,,,,,,,60fcc96991d7f1dff0cfb17f,61036dfce74451882cc12837,2021-07-29_20h13.16.649,Simcolourproject_2stim_asymm_v5,2020.2.10,Win32,60,61025ae37ef11b136ea224fe,,,,,,,,,214,40,80,1,0,0,response1disk,,7,-3,-4,1,0,0,rectangle,-3,-4,1,0,0,-3,-4,1,0,0,0,146,146,131,1,,,,,,,,
,,,,,,,,,,,,,FF,,,,,,,,0.7607,,,,,,,,,,,,,,,,,,,,,,60fcc96991d7f1dff0cfb17f,61036dfce74451882cc12837,2021-07-29_20h13.16.649,Simcolourproject_2stim_asymm_v5,2020.2.10,Win32,60,61025ae37ef11b136ea224fe,,,,,,,,,4235,-62,101,1,0,0,response7disk,,0,-16,10,1,0,0,rectangle,-16,10,1,0,0,-16,10,1,0,0,0,147,147,76,1,,,,,,,,
,,,,,,,,,,,,,FF,,,,,,,,3.1743,,,,,,,,,,,,,,,,,,,,,,60fcc96991d7f1dff0cfb17f,61036dfce74451882cc12837,2021-07-29_20h13.16.649,Simcolourproject_2stim_asymm_v5,2020.2.10,Win32,60,61025ae37ef11b136ea224fe,,,,,,,,,1148,34,76,1,0,0,response1disk,,7,3,9,1,0,0,rectangle,3,9,1,0,0,3,9,1,0,0,0,148,148,42,1,,,,,,,,
,,,,,,,,,,,,,FF,,,,,,,,0.5866,,,,,,,,,,,,,,,,,,,,,,60fcc96991d7f1dff0cfb17f,61036dfce74451882cc12837,2021-07-29_20h13.16.649,Simcolourproject_2stim_asymm_v5,2020.2.10,Win32,60,61025ae37ef11b136ea224fe,,,,,,,,,3380,31,76,1,0,0,response1disk,,7,3,5,1,0,0,rectangle,3,5,1,0,0,3,5,1,0,0,0,149,149,136,1,,,,,,,,
,,,,,,,,,,,,,FF,,,,,,,,0.4935,,,,,,,,,,,,,,,,,,,,,,60fcc96991d7f1dff0cfb17f,61036dfce74451882cc12837,2021-07-29_20h13.16.649,Simcolourproject_2stim_asymm_v5,2020.2.10,Win32,60,61025ae37ef11b136ea224fe,,,,,,,,,3351,34,81,1,0,0,response1disk,,7,-1,10,1,0,0,rectangle,-1,10,1,0,0,-1,10,1,0,0,0,150,150,0,1,,,,,,,,
,,,,,,,,,,,,,FF,,,,,,,,0.467,,,,,,,,,,,,,,,,,,,,,,60fcc96991d7f1dff0cfb17f,61036dfce74451882cc12837,2021-07-29_20h13.16.649,Simcolourproject_2stim_asymm_v5,2020.2.10,Win32,60,61025ae37ef11b136ea224fe,,,,,,,,,1641,39,84,1,0,0,response1disk,,7,14,7,1,0,0,rectangle,14,7,1,0,0,14,7,1,0,0,0,151,151,61,1,,,,,,,,
,,,,,,,,,,,,,FF,,,,,,,,1.4939,,,,,,,,,,,,,,,,,,,,,,60fcc96991d7f1dff0cfb17f,61036dfce74451882cc12837,2021-07-29_20h13.16.649,Simcolourproject_2stim_asymm_v5,2020.2.10,Win32,60,61025ae37ef11b136ea224fe,,,,,,,,,700,-74,-27,1,0,0,response5disk,,2,-31,-6,1,0,0,rectangle,-31,-6,1,0,0,-31,-6,1,0,0,0,152,152,106,1,,,,,,,,
,,,,,,,,,,,,,FF,,,,,,,,1.0404,,,,,,,,,,,,,,,,,,,,,,60fcc96991d7f1dff0cfb17f,61036dfce74451882cc12837,2021-07-29_20h13.16.649,Simcolourproject_2stim_asymm_v5,2020.2.10,Win32,60,61025ae37ef11b136ea224fe,,,,,,,,,3631,44,122,1,0,0,response1disk,,7,8,6,1,0,0,rectangle,8,6,1,0,0,8,6,1,0,0,0,153,153,115,1,,,,,,,,
,,,,,,,,,,,,,FF,,,,,,,,0.6934,,,,,,,,,,,,,,,,,,,,,,60fcc96991d7f1dff0cfb17f,61036dfce74451882cc12837,2021-07-29_20h13.16.649,Simcolourproject_2stim_asymm_v5,2020.2.10,Win32,60,61025ae37ef11b136ea224fe,,,,,,,,,1477,32,87,1,0,0,response1disk,,7,-8,7,1,0,0,rectangle,-8,7,1,0,0,-8,7,1,0,0,0,154,154,27,1,,,,,,,,
,,,,,,,,,,,,,FF,,,,,,,,1.4403,,,,,,,,,,,,,,,,,,,,,,60fcc96991d7f1dff0cfb17f,61036dfce74451882cc12837,2021-07-29_20h13.16.649,Simcolourproject_2stim_asymm_v5,2020.2.10,Win32,60,61025ae37ef11b136ea224fe,,,,,,,,,3979,-41,-66,1,0,0,response5disk,,3,-4,-9,1,0,0,rectangle,-4,-9,1,0,0,-4,-9,1,0,0,0,155,155,21,1,,,,,,,,
,,,,,,,,,,,,,FF,,,,,,,,1.3475,,,,,,,,,,,,,,,,,,,,,,60fcc96991d7f1dff0cfb17f,61036dfce74451882cc12837,2021-07-29_20h13.16.649,Simcolourproject_2stim_asymm_v5,2020.2.10,Win32,60,61025ae37ef11b136ea224fe,,,,,,,,,4286,35,73,1,0,0,response1disk,,7,-1,-4,1,0,0,rectangle,-1,-4,1,0,0,-1,-4,1,0,0,0,156,156,48,1,,,,,,,,
,,,,,,,,,,,,,FF,,,,,,,,1.854,,,,,,,,,,,,,,,,,,,,,,60fcc96991d7f1dff0cfb17f,61036dfce74451882cc12837,2021-07-29_20h13.16.649,Simcolourproject_2stim_asymm_v5,2020.2.10,Win32,60,61025ae37ef11b136ea224fe,,,,,,,,,3505,-44,-76,1,0,0,response5disk,,3,-4,4,1,0,0,rectangle,-4,4,1,0,0,-4,4,1,0,0,0,157,157,86,1,,,,,,,,
,,,,,,,,,,,,,FF,,,,,,,,6.3085,,,,,,,,,,,,,,,,,,,,,,60fcc96991d7f1dff0cfb17f,61036dfce74451882cc12837,2021-07-29_20h13.16.649,Simcolourproject_2stim_asymm_v5,2020.2.10,Win32,60,61025ae37ef11b136ea224fe,,,,,,,,,239,43,-81,1,0,0,response3disk,,4,6,-7,1,0,0,rectangle,6,-7,1,0,0,6,-7,1,0,0,0,158,158,79,1,,,,,,,,
,,,,,,,,,,,,,FF,,,,,,,,1.1736,,,,,,,,,,,,,,,,,,,,,,60fcc96991d7f1dff0cfb17f,61036dfce74451882cc12837,2021-07-29_20h13.16.649,Simcolourproject_2stim_asymm_v5,2020.2.10,Win32,60,61025ae37ef11b136ea224fe,,,,,,,,,3139,22,-47,1,0,0,response3disk,,4,1,7,1,0,0,rectangle,1,7,1,0,0,1,7,1,0,0,0,159,159,150,1,,,,,,,,
,,,,,,,,,,,,,FF,,,,,,,,0.9336,,,,,,,,,,,,,,,,,,,,,,60fcc96991d7f1dff0cfb17f,61036dfce74451882cc12837,2021-07-29_20h13.16.649,Simcolourproject_2stim_asymm_v5,2020.2.10,Win32,60,61025ae37ef11b136ea224fe,,,,,,,,,3565,-34,-76,1,0,0,response5disk,,3,-7,-4,1,0,0,rectangle,-7,-4,1,0,0,-7,-4,1,0,0,1,0,160,100,1,,,,,,,,
,,,,,,,,,,,,,FF,,,,,,,,0.6404,,,,,,,,,,,,,,,,,,,,,,60fcc96991d7f1dff0cfb17f,61036dfce74451882cc12837,2021-07-29_20h13.16.649,Simcolourproject_2stim_asymm_v5,2020.2.10,Win32,60,61025ae37ef11b136ea224fe,,,,,,,,,2586,36,74,1,0,0,response1disk,,7,2,-3,1,0,0,rectangle,2,-3,1,0,0,2,-3,1,0,0,1,1,161,58,1,,,,,,,,
,,,,,,,,,,,,,FF,,,,,,,,0.6534,,,,,,,,,,,,,,,,,,,,,,60fcc96991d7f1dff0cfb17f,61036dfce74451882cc12837,2021-07-29_20h13.16.649,Simcolourproject_2stim_asymm_v5,2020.2.10,Win32,60,61025ae37ef11b136ea224fe,,,,,,,,,2757,44,79,1,0,0,response1disk,,7,7,7,1,0,0,rectangle,7,7,1,0,0,7,7,1,0,0,1,2,162,60,1,,,,,,,,
,,,,,,,,,,,,,FF,,,,,,,,1.2672,,,,,,,,,,,,,,,,,,,,,,60fcc96991d7f1dff0cfb17f,61036dfce74451882cc12837,2021-07-29_20h13.16.649,Simcolourproject_2stim_asymm_v5,2020.2.10,Win32,60,61025ae37ef11b136ea224fe,,,,,,,,,1835,33,70,1,0,0,response1disk,,7,10,5,1,0,0,rectangle,10,5,1,0,0,10,5,1,0,0,1,3,163,38,1,,,,,,,,
,,,,,,,,,,,,,FF,,,,,,,,2.3074,,,,,,,,,,,,,,,,,,,,,,60fcc96991d7f1dff0cfb17f,61036dfce74451882cc12837,2021-07-29_20h13.16.649,Simcolourproject_2stim_asymm_v5,2020.2.10,Win32,60,61025ae37ef11b136ea224fe,,,,,,,,,3900,-49,-65,1,0,0,response5disk,,3,1,1,1,0,0,rectangle,1,1,1,0,0,1,1,1,0,0,1,4,164,136,1,,,,,,,,
,,,,,,,,,,,,,FF,,,,,,,,1.2005,,,,,,,,,,,,,,,,,,,,,,60fcc96991d7f1dff0cfb17f,61036dfce74451882cc12837,2021-07-29_20h13.16.649,Simcolourproject_2stim_asymm_v5,2020.2.10,Win32,60,61025ae37ef11b136ea224fe,,,,,,,,,1411,41,91,1,0,0,response1disk,,7,-6,0,1,0,0,rectangle,-6,0,1,0,0,-6,0,1,0,0,1,5,165,146,1,,,,,,,,
,,,,,,,,,,,,,FF,,,,,,,,0.987,,,,,,,,,,,,,,,,,,,,,,60fcc96991d7f1dff0cfb17f,61036dfce74451882cc12837,2021-07-29_20h13.16.649,Simcolourproject_2stim_asymm_v5,2020.2.10,Win32,60,61025ae37ef11b136ea224fe,,,,,,,,,3046,-85,43,1,0,0,response7disk,,1,-4,3,1,0,0,rectangle,-4,3,1,0,0,-4,3,1,0,0,1,6,166,123,1,,,,,,,,
,,,,,,,,,,,,,FF,,,,,,,,0.6671,,,,,,,,,,,,,,,,,,,,,,60fcc96991d7f1dff0cfb17f,61036dfce74451882cc12837,2021-07-29_20h13.16.649,Simcolourproject_2stim_asymm_v5,2020.2.10,Win32,60,61025ae37ef11b136ea224fe,,,,,,,,,3176,31,97,1,0,0,response1disk,,7,-5,3,1,0,0,rectangle,-5,3,1,0,0,-5,3,1,0,0,1,7,167,17,1,,,,,,,,
,,,,,,,,,,,,,FF,,,,,,,,0.987,,,,,,,,,,,,,,,,,,,,,,60fcc96991d7f1dff0cfb17f,61036dfce74451882cc12837,2021-07-29_20h13.16.649,Simcolourproject_2stim_asymm_v5,2020.2.10,Win32,60,61025ae37ef11b136ea224fe,,,,,,,,,452,29,70,1,0,0,response1disk,,7,0,10,1,0,0,rectangle,0,10,1,0,0,0,10,1,0,0,1,8,168,67,1,,,,,,,,
,,,,,,,,,,,,,FF,,,,,,,,1.3205,,,,,,,,,,,,,,,,,,,,,,60fcc96991d7f1dff0cfb17f,61036dfce74451882cc12837,2021-07-29_20h13.16.649,Simcolourproject_2stim_asymm_v5,2020.2.10,Win32,60,61025ae37ef11b136ea224fe,,,,,,,,,2027,-72,-31,1,0,0,response5disk,,2,-26,-1,1,0,0,rectangle,-26,-1,1,0,0,-26,-1,1,0,0,1,9,169,78,1,,,,,,,,
,,,,,,,,,,,,,FF,,,,,,,,0.8669,,,,,,,,,,,,,,,,,,,,,,60fcc96991d7f1dff0cfb17f,61036dfce74451882cc12837,2021-07-29_20h13.16.649,Simcolourproject_2stim_asymm_v5,2020.2.10,Win32,60,61025ae37ef11b136ea224fe,,,,,,,,,3477,-59,39,1,0,0,response7disk,,1,-17,10,1,0,0,rectangle,-17,10,1,0,0,-17,10,1,0,0,1,10,170,157,1,,,,,,,,
,,,,,,,,,,,,,FF,,,,,,,,0.6937,,,,,,,,,,,,,,,,,,,,,,60fcc96991d7f1dff0cfb17f,61036dfce74451882cc12837,2021-07-29_20h13.16.649,Simcolourproject_2stim_asymm_v5,2020.2.10,Win32,60,61025ae37ef11b136ea224fe,,,,,,,,,2551,38,72,1,0,0,response1disk,,7,-13,-5,1,0,0,rectangle,-13,-5,1,0,0,-13,-5,1,0,0,1,11,171,109,1,,,,,,,,
,,,,,,,,,,,,,FF,,,,,,,,1.0538,,,,,,,,,,,,,,,,,,,,,,60fcc96991d7f1dff0cfb17f,61036dfce74451882cc12837,2021-07-29_20h13.16.649,Simcolourproject_2stim_asymm_v5,2020.2.10,Win32,60,61025ae37ef11b136ea224fe,,,,,,,,,1677,-74,41,1,0,0,response7disk,,1,-21,7,1,0,0,rectangle,-21,7,1,0,0,-21,7,1,0,0,1,12,172,92,1,,,,,,,,
,,,,,,,,,,,,,FF,,,,,,,,2.4009,,,,,,,,,,,,,,,,,,,,,,60fcc96991d7f1dff0cfb17f,61036dfce74451882cc12837,2021-07-29_20h13.16.649,Simcolourproject_2stim_asymm_v5,2020.2.10,Win32,60,61025ae37ef11b136ea224fe,,,,,,,,,562,75,-33,1,0,0,response3disk,,5,1,-9,1,0,0,rectangle,1,-9,1,0,0,1,-9,1,0,0,1,13,173,104,1,,,,,,,,
,,,,,,,,,,,,,FF,,,,,,,,1.2138,,,,,,,,,,,,,,,,,,,,,,60fcc96991d7f1dff0cfb17f,61036dfce74451882cc12837,2021-07-29_20h13.16.649,Simcolourproject_2stim_asymm_v5,2020.2.10,Win32,60,61025ae37ef11b136ea224fe,,,,,,,,,1583,32,57,1,0,0,response1disk,,7,-17,-3,1,0,0,rectangle,-17,-3,1,0,0,-17,-3,1,0,0,1,14,174,159,1,,,,,,,,
,,,,,,,,,,,,,FF,,,,,,,,1.5606,,,,,,,,,,,,,,,,,,,,,,60fcc96991d7f1dff0cfb17f,61036dfce74451882cc12837,2021-07-29_20h13.16.649,Simcolourproject_2stim_asymm_v5,2020.2.10,Win32,60,61025ae37ef11b136ea224fe,,,,,,,,,2891,26,-86,1,0,0,response3disk,,4,3,-17,1,0,0,rectangle,3,-17,1,0,0,3,-17,1,0,0,1,15,175,31,1,,,,,,,,
,,,,,,,,,,,,,FF,,,,,,,,2.0408,,,,,,,,,,,,,,,,,,,,,,60fcc96991d7f1dff0cfb17f,61036dfce74451882cc12837,2021-07-29_20h13.16.649,Simcolourproject_2stim_asymm_v5,2020.2.10,Win32,60,61025ae37ef11b136ea224fe,,,,,,,,,1891,35,-64,1,0,0,response3disk,,4,5,-1,1,0,0,rectangle,5,-1,1,0,0,5,-1,1,0,0,1,16,176,63,1,,,,,,,,
,,,,,,,,,,,,,FF,,,,,,,,4.4014,,,,,,,,,,,,,,,,,,,,,,60fcc96991d7f1dff0cfb17f,61036dfce74451882cc12837,2021-07-29_20h13.16.649,Simcolourproject_2stim_asymm_v5,2020.2.10,Win32,60,61025ae37ef11b136ea224fe,,,,,,,,,1706,54,27,1,0,0,response1disk,,6,8,-7,1,0,0,rectangle,8,-7,1,0,0,8,-7,1,0,0,1,17,177,11,1,,,,,,,,
,,,,,,,,,,,,,FF,,,,,,,,1.4136,,,,,,,,,,,,,,,,,,,,,,60fcc96991d7f1dff0cfb17f,61036dfce74451882cc12837,2021-07-29_20h13.16.649,Simcolourproject_2stim_asymm_v5,2020.2.10,Win32,60,61025ae37ef11b136ea224fe,,,,,,,,,4261,44,63,1,0,0,response1disk,,7,20,8,1,0,0,rectangle,20,8,1,0,0,20,8,1,0,0,1,18,178,54,1,,,,,,,,
,,,,,,,,,,,,,FF,,,,,,,,1.1744,,,,,,,,,,,,,,,,,,,,,,60fcc96991d7f1dff0cfb17f,61036dfce74451882cc12837,2021-07-29_20h13.16.649,Simcolourproject_2stim_asymm_v5,2020.2.10,Win32,60,61025ae37ef11b136ea224fe,,,,,,,,,1536,39,-74,1,0,0,response3disk,,4,15,7,1,0,0,rectangle,15,7,1,0,0,15,7,1,0,0,1,19,179,8,1,,,,,,,,
,,,,,,,,,,,,,FF,,,,,,,,1.3071,,,,,,,,,,,,,,,,,,,,,,60fcc96991d7f1dff0cfb17f,61036dfce74451882cc12837,2021-07-29_20h13.16.649,Simcolourproject_2stim_asymm_v5,2020.2.10,Win32,60,61025ae37ef11b136ea224fe,,,,,,,,,3997,33,-55,1,0,0,response3disk,,4,-9,5,1,0,0,rectangle,-9,5,1,0,0,-9,5,1,0,0,1,20,180,102,1,,,,,,,,
,,,,,,,,,,,,,FF,,,,,,,,0.7468,,,,,,,,,,,,,,,,,,,,,,60fcc96991d7f1dff0cfb17f,61036dfce74451882cc12837,2021-07-29_20h13.16.649,Simcolourproject_2stim_asymm_v5,2020.2.10,Win32,60,61025ae37ef11b136ea224fe,,,,,,,,,3751,38,-67,1,0,0,response3disk,,4,6,3,1,0,0,rectangle,6,3,1,0,0,6,3,1,0,0,1,21,181,45,1,,,,,,,,
,,,,,,,,,,,,,FF,,,,,,,,0.7472,,,,,,,,,,,,,,,,,,,,,,60fcc96991d7f1dff0cfb17f,61036dfce74451882cc12837,2021-07-29_20h13.16.649,Simcolourproject_2stim_asymm_v5,2020.2.10,Win32,60,61025ae37ef11b136ea224fe,,,,,,,,,3585,34,-75,1,0,0,response3disk,,4,3,5,1,0,0,rectangle,3,5,1,0,0,3,5,1,0,0,1,22,182,0,1,,,,,,,,
,,,,,,,,,,,,,FF,,,,,,,,1.9605,,,,,,,,,,,,,,,,,,,,,,60fcc96991d7f1dff0cfb17f,61036dfce74451882cc12837,2021-07-29_20h13.16.649,Simcolourproject_2stim_asymm_v5,2020.2.10,Win32,60,61025ae37ef11b136ea224fe,,,,,,,,,186,-91,-65,1,0,0,response5disk,,2,-16,-7,1,0,0,rectangle,-16,-7,1,0,0,-16,-7,1,0,0,1,23,183,131,1,,,,,,,,
,,,,,,,,,,,,,FF,,,,,,,,1.0935,,,,,,,,,,,,,,,,,,,,,,60fcc96991d7f1dff0cfb17f,61036dfce74451882cc12837,2021-07-29_20h13.16.649,Simcolourproject_2stim_asymm_v5,2020.2.10,Win32,60,61025ae37ef11b136ea224fe,,,,,,,,,516,40,63,1,0,0,response1disk,,7,9,-1,1,0,0,rectangle,9,-1,1,0,0,9,-1,1,0,0,1,24,184,12,1,,,,,,,,
,,,,,,,,,,,,,FF,,,,,,,,0.9736,,,,,,,,,,,,,,,,,,,,,,60fcc96991d7f1dff0cfb17f,61036dfce74451882cc12837,2021-07-29_20h13.16.649,Simcolourproject_2stim_asymm_v5,2020.2.10,Win32,60,61025ae37ef11b136ea224fe,,,,,,,,,4282,-81,-54,1,0,0,response5disk,,2,-7,-8,1,0,0,rectangle,-7,-8,1,0,0,-7,-8,1,0,0,1,25,185,133,1,,,,,,,,
,,,,,,,,,,,,,FF,,,,,,,,0.8136,,,,,,,,,,,,,,,,,,,,,,60fcc96991d7f1dff0cfb17f,61036dfce74451882cc12837,2021-07-29_20h13.16.649,Simcolourproject_2stim_asymm_v5,2020.2.10,Win32,60,61025ae37ef11b136ea224fe,,,,,,,,,505,32,62,1,0,0,response1disk,,7,4,-2,1,0,0,rectangle,4,-2,1,0,0,4,-2,1,0,0,1,26,186,28,1,,,,,,,,
,,,,,,,,,,,,,FF,,,,,,,,0.667,,,,,,,,,,,,,,,,,,,,,,60fcc96991d7f1dff0cfb17f,61036dfce74451882cc12837,2021-07-29_20h13.16.649,Simcolourproject_2stim_asymm_v5,2020.2.10,Win32,60,61025ae37ef11b136ea224fe,,,,,,,,,1507,34,79,1,0,0,response1disk,,7,-10,4,1,0,0,rectangle,-10,4,1,0,0,-10,4,1,0,0,1,27,187,32,1,,,,,,,,
,,,,,,,,,,,,,FF,,,,,,,,0.6135,,,,,,,,,,,,,,,,,,,,,,60fcc96991d7f1dff0cfb17f,61036dfce74451882cc12837,2021-07-29_20h13.16.649,Simcolourproject_2stim_asymm_v5,2020.2.10,Win32,60,61025ae37ef11b136ea224fe,,,,,,,,,775,31,64,1,0,0,response1disk,,7,5,7,1,0,0,rectangle,5,7,1,0,0,5,7,1,0,0,1,28,188,86,1,,,,,,,,
,,,,,,,,,,,,,FF,,,,,,,,0.5868,,,,,,,,,,,,,,,,,,,,,,60fcc96991d7f1dff0cfb17f,61036dfce74451882cc12837,2021-07-29_20h13.16.649,Simcolourproject_2stim_asymm_v5,2020.2.10,Win32,60,61025ae37ef11b136ea224fe,,,,,,,,,2572,30,65,1,0,0,response1disk,,7,-3,-1,1,0,0,rectangle,-3,-1,1,0,0,-3,-1,1,0,0,1,29,189,115,1,,,,,,,,
,,,,,,,,,,,,,FF,,,,,,,,0.6002,,,,,,,,,,,,,,,,,,,,,,60fcc96991d7f1dff0cfb17f,61036dfce74451882cc12837,2021-07-29_20h13.16.649,Simcolourproject_2stim_asymm_v5,2020.2.10,Win32,60,61025ae37ef11b136ea224fe,,,,,,,,,3318,33,64,1,0,0,response1disk,,7,5,-2,1,0,0,rectangle,5,-2,1,0,0,5,-2,1,0,0,1,30,190,40,1,,,,,,,,
,,,,,,,,,,,,,FF,,,,,,,,0.4671,,,,,,,,,,,,,,,,,,,,,,60fcc96991d7f1dff0cfb17f,61036dfce74451882cc12837,2021-07-29_20h13.16.649,Simcolourproject_2stim_asymm_v5,2020.2.10,Win32,60,61025ae37ef11b136ea224fe,,,,,,,,,771,40,69,1,0,0,response1disk,,7,5,0,1,0,0,rectangle,5,0,1,0,0,5,0,1,0,0,1,31,191,156,1,,,,,,,,
,,,,,,,,,,,,,FF,,,,,,,,0.547,,,,,,,,,,,,,,,,,,,,,,60fcc96991d7f1dff0cfb17f,61036dfce74451882cc12837,2021-07-29_20h13.16.649,Simcolourproject_2stim_asymm_v5,2020.2.10,Win32,60,61025ae37ef11b136ea224fe,,,,,,,,,4017,38,68,1,0,0,response1disk,,7,8,5,1,0,0,rectangle,8,5,1,0,0,8,5,1,0,0,1,32,192,41,1,,,,,,,,
,,,,,,,,,,,,,FF,,,,,,,,0.654,,,,,,,,,,,,,,,,,,,,,,60fcc96991d7f1dff0cfb17f,61036dfce74451882cc12837,2021-07-29_20h13.16.649,Simcolourproject_2stim_asymm_v5,2020.2.10,Win32,60,61025ae37ef11b136ea224fe,,,,,,,,,137,34,62,1,0,0,response1disk,,7,2,-8,1,0,0,rectangle,2,-8,1,0,0,2,-8,1,0,0,1,33,193,52,1,,,,,,,,
,,,,,,,,,,,,,FF,,,,,,,,0.747,,,,,,,,,,,,,,,,,,,,,,60fcc96991d7f1dff0cfb17f,61036dfce74451882cc12837,2021-07-29_20h13.16.649,Simcolourproject_2stim_asymm_v5,2020.2.10,Win32,60,61025ae37ef11b136ea224fe,,,,,,,,,831,33,71,1,0,0,response1disk,,7,8,7,1,0,0,rectangle,8,7,1,0,0,8,7,1,0,0,1,34,194,89,1,,,,,,,,
,,,,,,,,,,,,,FF,,,,,,,,0.5202,,,,,,,,,,,,,,,,,,,,,,60fcc96991d7f1dff0cfb17f,61036dfce74451882cc12837,2021-07-29_20h13.16.649,Simcolourproject_2stim_asymm_v5,2020.2.10,Win32,60,61025ae37ef11b136ea224fe,,,,,,,,,752,43,80,1,0,0,response1disk,,7,-3,6,1,0,0,rectangle,-3,6,1,0,0,-3,6,1,0,0,1,35,195,29,1,,,,,,,,
,,,,,,,,,,,,,FF,,,,,,,,0.5603,,,,,,,,,,,,,,,,,,,,,,60fcc96991d7f1dff0cfb17f,61036dfce74451882cc12837,2021-07-29_20h13.16.649,Simcolourproject_2stim_asymm_v5,2020.2.10,Win32,60,61025ae37ef11b136ea224fe,,,,,,,,,1640,38,77,1,0,0,response1disk,,7,0,8,1,0,0,rectangle,0,8,1,0,0,0,8,1,0,0,1,36,196,6,1,,,,,,,,
,,,,,,,,,,,,,FF,,,,,,,,0.5604,,,,,,,,,,,,,,,,,,,,,,60fcc96991d7f1dff0cfb17f,61036dfce74451882cc12837,2021-07-29_20h13.16.649,Simcolourproject_2stim_asymm_v5,2020.2.10,Win32,60,61025ae37ef11b136ea224fe,,,,,,,,,1503,42,70,1,0,0,response1disk,,7,9,8,1,0,0,rectangle,9,8,1,0,0,9,8,1,0,0,1,37,197,79,1,,,,,,,,
,,,,,,,,,,,,,FF,,,,,,,,1.2673,,,,,,,,,,,,,,,,,,,,,,60fcc96991d7f1dff0cfb17f,61036dfce74451882cc12837,2021-07-29_20h13.16.649,Simcolourproject_2stim_asymm_v5,2020.2.10,Win32,60,61025ae37ef11b136ea224fe,,,,,,,,,2908,69,-30,1,0,0,response3disk,,5,7,0,1,0,0,rectangle,7,0,1,0,0,7,0,1,0,0,1,38,198,21,1,,,,,,,,
,,,,,,,,,,,,,FF,,,,,,,,1.0803,,,,,,,,,,,,,,,,,,,,,,60fcc96991d7f1dff0cfb17f,61036dfce74451882cc12837,2021-07-29_20h13.16.649,Simcolourproject_2stim_asymm_v5,2020.2.10,Win32,60,61025ae37ef11b136ea224fe,,,,,,,,,1030,35,64,1,0,0,response1disk,,7,5,4,1,0,0,rectangle,5,4,1,0,0,5,4,1,0,0,1,39,199,72,1,,,,,,,,
,,,,,,,,,,,,,FF,,,,,,,,0.5335,,,,,,,,,,,,,,,,,,,,,,60fcc96991d7f1dff0cfb17f,61036dfce74451882cc12837,2021-07-29_20h13.16.649,Simcolourproject_2stim_asymm_v5,2020.2.10,Win32,60,61025ae37ef11b136ea224fe,,,,,,,,,2973,36,74,1,0,0,response1disk,,7,3,10,1,0,0,rectangle,3,10,1,0,0,3,10,1,0,0,1,40,200,95,1,,,,,,,,
,,,,,,,,,,,,,FF,,,,,,,,1.267,,,,,,,,,,,,,,,,,,,,,,60fcc96991d7f1dff0cfb17f,61036dfce74451882cc12837,2021-07-29_20h13.16.649,Simcolourproject_2stim_asymm_v5,2020.2.10,Win32,60,61025ae37ef11b136ea224fe,,,,,,,,,3088,33,66,1,0,0,response1disk,,7,1,-1,1,0,0,rectangle,1,-1,1,0,0,1,-1,1,0,0,1,41,201,69,1,,,,,,,,
,,,,,,,,,,,,,FF,,,,,,,,1.5605,,,,,,,,,,,,,,,,,,,,,,60fcc96991d7f1dff0cfb17f,61036dfce74451882cc12837,2021-07-29_20h13.16.649,Simcolourproject_2stim_asymm_v5,2020.2.10,Win32,60,61025ae37ef11b136ea224fe,,,,,,,,,2933,-37,-90,1,0,0,response5disk,,3,-5,1,1,0,0,rectangle,-5,1,1,0,0,-5,1,1,0,0,1,42,202,24,1,,,,,,,,
,,,,,,,,,,,,,FF,,,,,,,,1.2937,,,,,,,,,,,,,,,,,,,,,,60fcc96991d7f1dff0cfb17f,61036dfce74451882cc12837,2021-07-29_20h13.16.649,Simcolourproject_2stim_asymm_v5,2020.2.10,Win32,60,61025ae37ef11b136ea224fe,,,,,,,,,500,42,68,1,0,0,response1disk,,7,-1,2,1,0,0,rectangle,-1,2,1,0,0,-1,2,1,0,0,1,43,203,3,1,,,,,,,,
,,,,,,,,,,,,,FF,,,,,,,,1.2135,,,,,,,,,,,,,,,,,,,,,,60fcc96991d7f1dff0cfb17f,61036dfce74451882cc12837,2021-07-29_20h13.16.649,Simcolourproject_2stim_asymm_v5,2020.2.10,Win32,60,61025ae37ef11b136ea224fe,,,,,,,,,4,60,-90,1,0,0,response3disk,,4,21,2,1,0,0,rectangle,21,2,1,0,0,21,2,1,0,0,1,44,204,4,1,,,,,,,,
,,,,,,,,,,,,,FF,,,,,,,,1.6271,,,,,,,,,,,,,,,,,,,,,,60fcc96991d7f1dff0cfb17f,61036dfce74451882cc12837,2021-07-29_20h13.16.649,Simcolourproject_2stim_asymm_v5,2020.2.10,Win32,60,61025ae37ef11b136ea224fe,,,,,,,,,140,36,74,1,0,0,response1disk,,7,-4,17,1,0,0,rectangle,-4,17,1,0,0,-4,17,1,0,0,1,45,205,96,1,,,,,,,,
,,,,,,,,,,,,,FF,,,,,,,,0.6938,,,,,,,,,,,,,,,,,,,,,,60fcc96991d7f1dff0cfb17f,61036dfce74451882cc12837,2021-07-29_20h13.16.649,Simcolourproject_2stim_asymm_v5,2020.2.10,Win32,60,61025ae37ef11b136ea224fe,,,,,,,,,3655,27,71,1,0,0,response1disk,,7,1,10,1,0,0,rectangle,1,10,1,0,0,1,10,1,0,0,1,46,206,7,1,,,,,,,,
,,,,,,,,,,,,,FF,,,,,,,,2.0272,,,,,,,,,,,,,,,,,,,,,,60fcc96991d7f1dff0cfb17f,61036dfce74451882cc12837,2021-07-29_20h13.16.649,Simcolourproject_2stim_asymm_v5,2020.2.10,Win32,60,61025ae37ef11b136ea224fe,,,,,,,,,1951,99,-46,1,0,0,response3disk,,5,27,-3,1,0,0,rectangle,27,-3,1,0,0,27,-3,1,0,0,1,47,207,49,1,,,,,,,,
,,,,,,,,,,,,,FF,,,,,,,,1.9475,,,,,,,,,,,,,,,,,,,,,,60fcc96991d7f1dff0cfb17f,61036dfce74451882cc12837,2021-07-29_20h13.16.649,Simcolourproject_2stim_asymm_v5,2020.2.10,Win32,60,61025ae37ef11b136ea224fe,,,,,,,,,1552,43,78,1,0,0,response1disk,,7,9,14,1,0,0,rectangle,9,14,1,0,0,9,14,1,0,0,1,48,208,68,1,,,,,,,,
,,,,,,,,,,,,,FF,,,,,,,,1.32,,,,,,,,,,,,,,,,,,,,,,60fcc96991d7f1dff0cfb17f,61036dfce74451882cc12837,2021-07-29_20h13.16.649,Simcolourproject_2stim_asymm_v5,2020.2.10,Win32,60,61025ae37ef11b136ea224fe,,,,,,,,,2359,-60,-80,1,0,0,response5disk,,3,-13,-5,1,0,0,rectangle,-13,-5,1,0,0,-13,-5,1,0,0,1,49,209,134,1,,,,,,,,
,,,,,,,,,,,,,FF,,,,,,,,0.6141,,,,,,,,,,,,,,,,,,,,,,60fcc96991d7f1dff0cfb17f,61036dfce74451882cc12837,2021-07-29_20h13.16.649,Simcolourproject_2stim_asymm_v5,2020.2.10,Win32,60,61025ae37ef11b136ea224fe,,,,,,,,,1746,-38,-67,1,0,0,response5disk,,3,-2,10,1,0,0,rectangle,-2,10,1,0,0,-2,10,1,0,0,1,50,210,125,1,,,,,,,,
,,,,,,,,,,,,,FF,,,,,,,,0.9068,,,,,,,,,,,,,,,,,,,,,,60fcc96991d7f1dff0cfb17f,61036dfce74451882cc12837,2021-07-29_20h13.16.649,Simcolourproject_2stim_asymm_v5,2020.2.10,Win32,60,61025ae37ef11b136ea224fe,,,,,,,,,3606,31,72,1,0,0,response1disk,,7,-4,2,1,0,0,rectangle,-4,2,1,0,0,-4,2,1,0,0,1,51,211,36,1,,,,,,,,
,,,,,,,,,,,,,FF,,,,,,,,0.8539,,,,,,,,,,,,,,,,,,,,,,60fcc96991d7f1dff0cfb17f,61036dfce74451882cc12837,2021-07-29_20h13.16.649,Simcolourproject_2stim_asymm_v5,2020.2.10,Win32,60,61025ae37ef11b136ea224fe,,,,,,,,,1509,33,66,1,0,0,response1disk,,7,1,2,1,0,0,rectangle,1,2,1,0,0,1,2,1,0,0,1,52,212,27,1,,,,,,,,
,,,,,,,,,,,,,FF,,,,,,,,0.4801,,,,,,,,,,,,,,,,,,,,,,60fcc96991d7f1dff0cfb17f,61036dfce74451882cc12837,2021-07-29_20h13.16.649,Simcolourproject_2stim_asymm_v5,2020.2.10,Win32,60,61025ae37ef11b136ea224fe,,,,,,,,,2272,43,73,1,0,0,response1disk,,7,-2,-2,1,0,0,rectangle,-2,-2,1,0,0,-2,-2,1,0,0,1,53,213,18,1,,,,,,,,
,,,,,,,,,,,,,FF,,,,,,,,0.5869,,,,,,,,,,,,,,,,,,,,,,60fcc96991d7f1dff0cfb17f,61036dfce74451882cc12837,2021-07-29_20h13.16.649,Simcolourproject_2stim_asymm_v5,2020.2.10,Win32,60,61025ae37ef11b136ea224fe,,,,,,,,,4003,33,71,1,0,0,response1disk,,7,13,12,1,0,0,rectangle,34,-94,1,0,0,3,-8,1,0,0,1,54,214,62,1,,response3disk_3,TRUE,4,4,"[270,99,64,84,289,90,13,306,53,101,242,118,275,103,215,101,124,89,243,89]",1.6804,rectangle
,,,,,,,,,,,,,FF,,,,,,,,2.2677,,,,,,,,,,,,,,,,,,,,,,60fcc96991d7f1dff0cfb17f,61036dfce74451882cc12837,2021-07-29_20h13.16.649,Simcolourproject_2stim_asymm_v5,2020.2.10,Win32,60,61025ae37ef11b136ea224fe,,,,,,,,,650,61,-29,1,0,0,response3disk,,5,8,-2,1,0,0,rectangle,8,-2,1,0,0,8,-2,1,0,0,1,55,215,114,1,,,,,,,,
,,,,,,,,,,,,,FF,,,,,,,,1.8008,,,,,,,,,,,,,,,,,,,,,,60fcc96991d7f1dff0cfb17f,61036dfce74451882cc12837,2021-07-29_20h13.16.649,Simcolourproject_2stim_asymm_v5,2020.2.10,Win32,60,61025ae37ef11b136ea224fe,,,,,,,,,2153,26,-68,1,0,0,response3disk,,4,-5,-11,1,0,0,rectangle,-5,-11,1,0,0,-5,-11,1,0,0,1,56,216,154,1,,,,,,,,
,,,,,,,,,,,,,FF,,,,,,,,0.4934,,,,,,,,,,,,,,,,,,,,,,60fcc96991d7f1dff0cfb17f,61036dfce74451882cc12837,2021-07-29_20h13.16.649,Simcolourproject_2stim_asymm_v5,2020.2.10,Win32,60,61025ae37ef11b136ea224fe,,,,,,,,,2763,33,74,1,0,0,response1disk,,7,3,-7,1,0,0,rectangle,3,-7,1,0,0,3,-7,1,0,0,1,57,217,39,1,,,,,,,,
,,,,,,,,,,,,,FF,,,,,,,,2.3341,,,,,,,,,,,,,,,,,,,,,,60fcc96991d7f1dff0cfb17f,61036dfce74451882cc12837,2021-07-29_20h13.16.649,Simcolourproject_2stim_asymm_v5,2020.2.10,Win32,60,61025ae37ef11b136ea224fe,,,,,,,,,3546,39,-71,1,0,0,response3disk,,4,5,2,1,0,0,rectangle,5,2,1,0,0,5,2,1,0,0,1,58,218,13,1,,,,,,,,
,,,,,,,,,,,,,FF,,,,,,,,1.4939,,,,,,,,,,,,,,,,,,,,,,60fcc96991d7f1dff0cfb17f,61036dfce74451882cc12837,2021-07-29_20h13.16.649,Simcolourproject_2stim_asymm_v5,2020.2.10,Win32,60,61025ae37ef11b136ea224fe,,,,,,,,,1661,49,-60,1,0,0,response3disk,,4,9,6,1,0,0,rectangle,9,6,1,0,0,9,6,1,0,0,1,59,219,90,1,,,,,,,,
,,,,,,,,,,,,,FF,,,,,,,,1.1739,,,,,,,,,,,,,,,,,,,,,,60fcc96991d7f1dff0cfb17f,61036dfce74451882cc12837,2021-07-29_20h13.16.649,Simcolourproject_2stim_asymm_v5,2020.2.10,Win32,60,61025ae37ef11b136ea224fe,,,,,,,,,2715,-37,-86,1,0,0,response5disk,,3,-3,4,1,0,0,rectangle,-3,4,1,0,0,-3,4,1,0,0,1,60,220,129,1,,,,,,,,
,,,,,,,,,,,,,FF,,,,,,,,0.5869,,,,,,,,,,,,,,,,,,,,,,60fcc96991d7f1dff0cfb17f,61036dfce74451882cc12837,2021-07-29_20h13.16.649,Simcolourproject_2stim_asymm_v5,2020.2.10,Win32,60,61025ae37ef11b136ea224fe,,,,,,,,,1796,30,72,1,0,0,response1disk,,7,-6,-11,1,0,0,rectangle,-6,-11,1,0,0,-6,-11,1,0,0,1,61,221,53,1,,,,,,,,
,,,,,,,,,,,,,FF,,,,,,,,1.1205,,,,,,,,,,,,,,,,,,,,,,60fcc96991d7f1dff0cfb17f,61036dfce74451882cc12837,2021-07-29_20h13.16.649,Simcolourproject_2stim_asymm_v5,2020.2.10,Win32,60,61025ae37ef11b136ea224fe,,,,,,,,,2221,52,34,1,0,0,response1disk,,6,11,-15,1,0,0,rectangle,11,-15,1,0,0,11,-15,1,0,0,1,62,222,10,1,,,,,,,,
,,,,,,,,,,,,,FF,,,,,,,,3.5479,,,,,,,,,,,,,,,,,,,,,,60fcc96991d7f1dff0cfb17f,61036dfce74451882cc12837,2021-07-29_20h13.16.649,Simcolourproject_2stim_asymm_v5,2020.2.10,Win32,60,61025ae37ef11b136ea224fe,,,,,,,,,3423,69,41,1,0,0,response1disk,,6,34,0,1,0,0,rectangle,34,0,1,0,0,34,0,1,0,0,1,63,223,148,1,,,,,,,,
,,,,,,,,,,,,,FF,,,,,,,,1.2138,,,,,,,,,,,,,,,,,,,,,,60fcc96991d7f1dff0cfb17f,61036dfce74451882cc12837,2021-07-29_20h13.16.649,Simcolourproject_2stim_asymm_v5,2020.2.10,Win32,60,61025ae37ef11b136ea224fe,,,,,,,,,637,-87,-56,1,0,0,response5disk,,2,7,-1,1,0,0,rectangle,7,-1,1,0,0,7,-1,1,0,0,1,64,224,153,1,,,,,,,,
,,,,,,,,,,,,,FF,,,,,,,,1.5204,,,,,,,,,,,,,,,,,,,,,,60fcc96991d7f1dff0cfb17f,61036dfce74451882cc12837,2021-07-29_20h13.16.649,Simcolourproject_2stim_asymm_v5,2020.2.10,Win32,60,61025ae37ef11b136ea224fe,,,,,,,,,964,21,51,1,0,0,response1disk,,7,1,4,1,0,0,rectangle,1,4,1,0,0,1,4,1,0,0,1,65,225,140,1,,,,,,,,
,,,,,,,,,,,,,FF,,,,,,,,0.7881,,,,,,,,,,,,,,,,,,,,,,60fcc96991d7f1dff0cfb17f,61036dfce74451882cc12837,2021-07-29_20h13.16.649,Simcolourproject_2stim_asymm_v5,2020.2.10,Win32,60,61025ae37ef11b136ea224fe,,,,,,,,,1122,30,52,1,0,0,response1disk,,7,5,-1,1,0,0,rectangle,5,-1,1,0,0,5,-1,1,0,0,1,66,226,57,1,,,,,,,,
,,,,,,,,,,,,,FF,,,,,,,,2.6678,,,,,,,,,,,,,,,,,,,,,,60fcc96991d7f1dff0cfb17f,61036dfce74451882cc12837,2021-07-29_20h13.16.649,Simcolourproject_2stim_asymm_v5,2020.2.10,Win32,60,61025ae37ef11b136ea224fe,,,,,,,,,2053,30,64,1,0,0,response1disk,,7,4,17,1,0,0,rectangle,4,17,1,0,0,4,17,1,0,0,1,67,227,150,1,,,,,,,,
,,,,,,,,,,,,,FF,,,,,,,,0.5468,,,,,,,,,,,,,,,,,,,,,,60fcc96991d7f1dff0cfb17f,61036dfce74451882cc12837,2021-07-29_20h13.16.649,Simcolourproject_2stim_asymm_v5,2020.2.10,Win32,60,61025ae37ef11b136ea224fe,,,,,,,,,136,35,76,1,0,0,response1disk,,7,4,17,1,0,0,rectangle,4,17,1,0,0,4,17,1,0,0,1,68,228,88,1,,,,,,,,
,,,,,,,,,,,,,FF,,,,,,,,1.9072,,,,,,,,,,,,,,,,,,,,,,60fcc96991d7f1dff0cfb17f,61036dfce74451882cc12837,2021-07-29_20h13.16.649,Simcolourproject_2stim_asymm_v5,2020.2.10,Win32,60,61025ae37ef11b136ea224fe,,,,,,,,,4150,47,-59,1,0,0,response3disk,,4,4,8,1,0,0,rectangle,4,8,1,0,0,4,8,1,0,0,1,69,229,70,1,,,,,,,,
,,,,,,,,,,,,,FF,,,,,,,,1.4671,,,,,,,,,,,,,,,,,,,,,,60fcc96991d7f1dff0cfb17f,61036dfce74451882cc12837,2021-07-29_20h13.16.649,Simcolourproject_2stim_asymm_v5,2020.2.10,Win32,60,61025ae37ef11b136ea224fe,,,,,,,,,607,29,76,1,0,0,response1disk,,7,4,11,1,0,0,rectangle,4,11,1,0,0,4,11,1,0,0,1,70,230,116,1,,,,,,,,
,,,,,,,,,,,,,FF,,,,,,,,0.9201,,,,,,,,,,,,,,,,,,,,,,60fcc96991d7f1dff0cfb17f,61036dfce74451882cc12837,2021-07-29_20h13.16.649,Simcolourproject_2stim_asymm_v5,2020.2.10,Win32,60,61025ae37ef11b136ea224fe,,,,,,,,,2213,28,65,1,0,0,response1disk,,7,1,9,1,0,0,rectangle,1,9,1,0,0,1,9,1,0,0,1,71,231,73,1,,,,,,,,
,,,,,,,,,,,,,FF,,,,,,,,0.3867,,,,,,,,,,,,,,,,,,,,,,60fcc96991d7f1dff0cfb17f,61036dfce74451882cc12837,2021-07-29_20h13.16.649,Simcolourproject_2stim_asymm_v5,2020.2.10,Win32,60,61025ae37ef11b136ea224fe,,,,,,,,,3136,33,79,1,0,0,response1disk,,7,11,4,1,0,0,rectangle,11,4,1,0,0,11,4,1,0,0,1,72,232,149,1,,,,,,,,
,,,,,,,,,,,,,FF,,,,,,,,0.4305,,,,,,,,,,,,,,,,,,,,,,60fcc96991d7f1dff0cfb17f,61036dfce74451882cc12837,2021-07-29_20h13.16.649,Simcolourproject_2stim_asymm_v5,2020.2.10,Win32,60,61025ae37ef11b136ea224fe,,,,,,,,,929,46,63,1,0,0,response1disk,,7,11,2,1,0,0,rectangle,11,2,1,0,0,11,2,1,0,0,1,73,233,139,1,,,,,,,,
,,,,,,,,,,,,,FF,,,,,,,,3.1342,,,,,,,,,,,,,,,,,,,,,,60fcc96991d7f1dff0cfb17f,61036dfce74451882cc12837,2021-07-29_20h13.16.649,Simcolourproject_2stim_asymm_v5,2020.2.10,Win32,60,61025ae37ef11b136ea224fe,,,,,,,,,2230,79,33,1,0,0,response1disk,,6,20,10,1,0,0,rectangle,20,10,1,0,0,20,10,1,0,0,1,74,234,34,1,,,,,,,,
,,,,,,,,,,,,,FF,,,,,,,,2.2407,,,,,,,,,,,,,,,,,,,,,,60fcc96991d7f1dff0cfb17f,61036dfce74451882cc12837,2021-07-29_20h13.16.649,Simcolourproject_2stim_asymm_v5,2020.2.10,Win32,60,61025ae37ef11b136ea224fe,,,,,,,,,2990,35,-43,1,0,0,response3disk,,4,14,-2,1,0,0,rectangle,14,-2,1,0,0,14,-2,1,0,0,1,75,235,91,1,,,,,,,,
,,,,,,,,,,,,,FF,,,,,,,,0.6137,,,,,,,,,,,,,,,,,,,,,,60fcc96991d7f1dff0cfb17f,61036dfce74451882cc12837,2021-07-29_20h13.16.649,Simcolourproject_2stim_asymm_v5,2020.2.10,Win32,60,61025ae37ef11b136ea224fe,,,,,,,,,3829,25,68,1,0,0,response1disk,,7,5,5,1,0,0,rectangle,5,5,1,0,0,5,5,1,0,0,1,76,236,117,1,,,,,,,,
,,,,,,,,,,,,,FF,,,,,,,,0.5734,,,,,,,,,,,,,,,,,,,,,,60fcc96991d7f1dff0cfb17f,61036dfce74451882cc12837,2021-07-29_20h13.16.649,Simcolourproject_2stim_asymm_v5,2020.2.10,Win32,60,61025ae37ef11b136ea224fe,,,,,,,,,2349,29,62,1,0,0,response1disk,,7,-1,3,1,0,0,rectangle,-1,3,1,0,0,-1,3,1,0,0,1,77,237,77,1,,,,,,,,
,,,,,,,,,,,,,FF,,,,,,,,1.0538,,,,,,,,,,,,,,,,,,,,,,60fcc96991d7f1dff0cfb17f,61036dfce74451882cc12837,2021-07-29_20h13.16.649,Simcolourproject_2stim_asymm_v5,2020.2.10,Win32,60,61025ae37ef11b136ea224fe,,,,,,,,,2997,35,63,1,0,0,response1disk,,7,-8,-6,1,0,0,rectangle,-8,-6,1,0,0,-8,-6,1,0,0,1,78,238,15,1,,,,,,,,
,,,,,,,,,,,,,FF,,,,,,,,0.4268,,,,,,,,,,,,,,,,,,,,,,60fcc96991d7f1dff0cfb17f,61036dfce74451882cc12837,2021-07-29_20h13.16.649,Simcolourproject_2stim_asymm_v5,2020.2.10,Win32,60,61025ae37ef11b136ea224fe,,,,,,,,,1578,32,69,1,0,0,response1disk,,7,-1,7,1,0,0,rectangle,-1,7,1,0,0,-1,7,1,0,0,1,79,239,107,1,,,,,,,,
,,,,,,,,,,,,,FF,,,,,,,,1.0802,,,,,,,,,,,,,,,,,,,,,,60fcc96991d7f1dff0cfb17f,61036dfce74451882cc12837,2021-07-29_20h13.16.649,Simcolourproject_2stim_asymm_v5,2020.2.10,Win32,60,61025ae37ef11b136ea224fe,,,,,,,,,695,-34,-62,1,0,0,response5disk,,3,-7,-4,1,0,0,rectangle,-7,-4,1,0,0,-7,-4,1,0,0,1,80,240,30,1,,,,,,,,
,,,,,,,,,,,,,FF,,,,,,,,1.3605,,,,,,,,,,,,,,,,,,,,,,60fcc96991d7f1dff0cfb17f,61036dfce74451882cc12837,2021-07-29_20h13.16.649,Simcolourproject_2stim_asymm_v5,2020.2.10,Win32,60,61025ae37ef11b136ea224fe,,,,,,,,,2664,22,-52,1,0,0,response3disk,,4,2,1,1,0,0,rectangle,-46,-87,1,0,0,-3,10,1,0,0,1,81,241,124,1,,response5disk_3,TRUE,3,3,"[270,99,64,84,289,90,13,306,53,101,242,118,275,103,215,101,124,89,243,89]",1.7071,rectangle
,,,,,,,,,,,,,FF,,,,,,,,0.6937,,,,,,,,,,,,,,,,,,,,,,60fcc96991d7f1dff0cfb17f,61036dfce74451882cc12837,2021-07-29_20h13.16.649,Simcolourproject_2stim_asymm_v5,2020.2.10,Win32,60,61025ae37ef11b136ea224fe,,,,,,,,,4228,31,85,1,0,0,response1disk,,7,-2,12,1,0,0,rectangle,42,-100,1,0,0,6,-15,1,0,0,1,82,242,155,1,,response3disk_3,TRUE,4,4,"[270,99,64,84,289,90,13,306,53,101,242,118,275,103,215,101,124,89,243,89]",1.8937,rectangle
,,,,,,,,,,,,,FF,,,,,,,,1.2136,,,,,,,,,,,,,,,,,,,,,,60fcc96991d7f1dff0cfb17f,61036dfce74451882cc12837,2021-07-29_20h13.16.649,Simcolourproject_2stim_asymm_v5,2020.2.10,Win32,60,61025ae37ef11b136ea224fe,,,,,,,,,4313,37,66,1,0,0,response1disk,,7,-12,4,1,0,0,rectangle,-12,4,1,0,0,-12,4,1,0,0,1,83,243,94,1,,,,,,,,
,,,,,,,,,,,,,FF,,,,,,,,1.0665,,,,,,,,,,,,,,,,,,,,,,60fcc96991d7f1dff0cfb17f,61036dfce74451882cc12837,2021-07-29_20h13.16.649,Simcolourproject_2stim_asymm_v5,2020.2.10,Win32,60,61025ae37ef11b136ea224fe,,,,,,,,,641,55,-35,1,0,0,response3disk,,5,16,7,1,0,0,rectangle,16,7,1,0,0,16,7,1,0,0,1,84,244,61,1,,,,,,,,
,,,,,,,,,,,,,FF,,,,,,,,1.147,,,,,,,,,,,,,,,,,,,,,,60fcc96991d7f1dff0cfb17f,61036dfce74451882cc12837,2021-07-29_20h13.16.649,Simcolourproject_2stim_asymm_v5,2020.2.10,Win32,60,61025ae37ef11b136ea224fe,,,,,,,,,2905,32,66,1,0,0,response1disk,,7,-4,5,1,0,0,rectangle,-4,5,1,0,0,-4,5,1,0,0,1,85,245,147,1,,,,,,,,
,,,,,,,,,,,,,FF,,,,,,,,0.4668,,,,,,,,,,,,,,,,,,,,,,60fcc96991d7f1dff0cfb17f,61036dfce74451882cc12837,2021-07-29_20h13.16.649,Simcolourproject_2stim_asymm_v5,2020.2.10,Win32,60,61025ae37ef11b136ea224fe,,,,,,,,,2373,37,63,1,0,0,response1disk,,7,8,-1,1,0,0,rectangle,8,-1,1,0,0,8,-1,1,0,0,1,86,246,56,1,,,,,,,,
,,,,,,,,,,,,,FF,,,,,,,,0.5602,,,,,,,,,,,,,,,,,,,,,,60fcc96991d7f1dff0cfb17f,61036dfce74451882cc12837,2021-07-29_20h13.16.649,Simcolourproject_2stim_asymm_v5,2020.2.10,Win32,60,61025ae37ef11b136ea224fe,,,,,,,,,90,30,65,1,0,0,response1disk,,7,7,4,1,0,0,rectangle,7,4,1,0,0,7,4,1,0,0,1,87,247,158,1,,,,,,,,
,,,,,,,,,,,,,FF,,,,,,,,0.5728,,,,,,,,,,,,,,,,,,,,,,60fcc96991d7f1dff0cfb17f,61036dfce74451882cc12837,2021-07-29_20h13.16.649,Simcolourproject_2stim_asymm_v5,2020.2.10,Win32,60,61025ae37ef11b136ea224fe,,,,,,,,,3028,35,69,1,0,0,response1disk,,7,2,6,1,0,0,rectangle,2,6,1,0,0,2,6,1,0,0,1,88,248,142,1,,,,,,,,
,,,,,,,,,,,,,FF,,,,,,,,1.6538,,,,,,,,,,,,,,,,,,,,,,60fcc96991d7f1dff0cfb17f,61036dfce74451882cc12837,2021-07-29_20h13.16.649,Simcolourproject_2stim_asymm_v5,2020.2.10,Win32,60,61025ae37ef11b136ea224fe,,,,,,,,,4117,25,-53,1,0,0,response3disk,,4,-1,1,1,0,0,rectangle,-1,1,1,0,0,-1,1,1,0,0,1,89,249,101,1,,,,,,,,
,,,,,,,,,,,,,FF,,,,,,,,0.9069,,,,,,,,,,,,,,,,,,,,,,60fcc96991d7f1dff0cfb17f,61036dfce74451882cc12837,2021-07-29_20h13.16.649,Simcolourproject_2stim_asymm_v5,2020.2.10,Win32,60,61025ae37ef11b136ea224fe,,,,,,,,,935,30,70,1,0,0,response1disk,,7,-1,4,1,0,0,rectangle,-1,4,1,0,0,-1,4,1,0,0,1,90,250,128,1,,,,,,,,
,,,,,,,,,,,,,FF,,,,,,,,0.6271,,,,,,,,,,,,,,,,,,,,,,60fcc96991d7f1dff0cfb17f,61036dfce74451882cc12837,2021-07-29_20h13.16.649,Simcolourproject_2stim_asymm_v5,2020.2.10,Win32,60,61025ae37ef11b136ea224fe,,,,,,,,,1656,34,76,1,0,0,response1disk,,7,3,6,1,0,0,rectangle,3,6,1,0,0,3,6,1,0,0,1,91,251,5,1,,,,,,,,
,,,,,,,,,,,,,FF,,,,,,,,1.4937,,,,,,,,,,,,,,,,,,,,,,60fcc96991d7f1dff0cfb17f,61036dfce74451882cc12837,2021-07-29_20h13.16.649,Simcolourproject_2stim_asymm_v5,2020.2.10,Win32,60,61025ae37ef11b136ea224fe,,,,,,,,,614,42,-72,1,0,0,response3disk,,4,9,-6,1,0,0,rectangle,9,-6,1,0,0,9,-6,1,0,0,1,92,252,112,1,,,,,,,,
,,,,,,,,,,,,,FF,,,,,,,,0.6668,,,,,,,,,,,,,,,,,,,,,,60fcc96991d7f1dff0cfb17f,61036dfce74451882cc12837,2021-07-29_20h13.16.649,Simcolourproject_2stim_asymm_v5,2020.2.10,Win32,60,61025ae37ef11b136ea224fe,,,,,,,,,326,38,59,1,0,0,response1disk,,7,0,-11,1,0,0,rectangle,0,-11,1,0,0,0,-11,1,0,0,1,93,253,145,1,,,,,,,,
,,,,,,,,,,,,,FF,,,,,,,,0.8268,,,,,,,,,,,,,,,,,,,,,,60fcc96991d7f1dff0cfb17f,61036dfce74451882cc12837,2021-07-29_20h13.16.649,Simcolourproject_2stim_asymm_v5,2020.2.10,Win32,60,61025ae37ef11b136ea224fe,,,,,,,,,968,-55,39,1,0,0,response7disk,,1,-9,9,1,0,0,rectangle,-9,9,1,0,0,-9,9,1,0,0,1,94,254,44,1,,,,,,,,
,,,,,,,,,,,,,FF,,,,,,,,0.5734,,,,,,,,,,,,,,,,,,,,,,60fcc96991d7f1dff0cfb17f,61036dfce74451882cc12837,2021-07-29_20h13.16.649,Simcolourproject_2stim_asymm_v5,2020.2.10,Win32,60,61025ae37ef11b136ea224fe,,,,,,,,,292,30,82,1,0,0,response1disk,,7,1,-2,1,0,0,rectangle,1,-2,1,0,0,1,-2,1,0,0,1,95,255,113,1,,,,,,,,
,,,,,,,,,,,,,FF,,,,,,,,0.8802,,,,,,,,,,,,,,,,,,,,,,60fcc96991d7f1dff0cfb17f,61036dfce74451882cc12837,2021-07-29_20h13.16.649,Simcolourproject_2stim_asymm_v5,2020.2.10,Win32,60,61025ae37ef11b136ea224fe,,,,,,,,,1519,32,80,1,0,0,response1disk,,7,2,10,1,0,0,rectangle,2,10,1,0,0,2,10,1,0,0,1,96,256,105,1,,,,,,,,
,,,,,,,,,,,,,FF,,,,,,,,1.6405,,,,,,,,,,,,,,,,,,,,,,60fcc96991d7f1dff0cfb17f,61036dfce74451882cc12837,2021-07-29_20h13.16.649,Simcolourproject_2stim_asymm_v5,2020.2.10,Win32,60,61025ae37ef11b136ea224fe,,,,,,,,,1348,71,36,1,0,0,response1disk,,6,7,-8,1,0,0,rectangle,7,-8,1,0,0,7,-8,1,0,0,1,97,257,126,1,,,,,,,,
,,,,,,,,,,,,,FF,,,,,,,,1.5073,,,,,,,,,,,,,,,,,,,,,,60fcc96991d7f1dff0cfb17f,61036dfce74451882cc12837,2021-07-29_20h13.16.649,Simcolourproject_2stim_asymm_v5,2020.2.10,Win32,60,61025ae37ef11b136ea224fe,,,,,,,,,1901,-37,-87,1,0,0,response5disk,,3,-4,-7,1,0,0,rectangle,-4,-7,1,0,0,-4,-7,1,0,0,1,98,258,106,1,,,,,,,,
,,,,,,,,,,,,,FF,,,,,,,,1.8406,,,,,,,,,,,,,,,,,,,,,,60fcc96991d7f1dff0cfb17f,61036dfce74451882cc12837,2021-07-29_20h13.16.649,Simcolourproject_2stim_asymm_v5,2020.2.10,Win32,60,61025ae37ef11b136ea224fe,,,,,,,,,1296,-40,-66,1,0,0,response5disk,,3,-1,0,1,0,0,rectangle,-1,0,1,0,0,-1,0,1,0,0,1,99,259,16,1,,,,,,,,
,,,,,,,,,,,,,FF,,,,,,,,0.8402,,,,,,,,,,,,,,,,,,,,,,60fcc96991d7f1dff0cfb17f,61036dfce74451882cc12837,2021-07-29_20h13.16.649,Simcolourproject_2stim_asymm_v5,2020.2.10,Win32,60,61025ae37ef11b136ea224fe,,,,,,,,,3892,22,65,1,0,0,response1disk,,7,2,2,1,0,0,rectangle,2,2,1,0,0,2,2,1,0,0,1,100,260,137,1,,,,,,,,
,,,,,,,,,,,,,FF,,,,,,,,0.4936,,,,,,,,,,,,,,,,,,,,,,60fcc96991d7f1dff0cfb17f,61036dfce74451882cc12837,2021-07-29_20h13.16.649,Simcolourproject_2stim_asymm_v5,2020.2.10,Win32,60,61025ae37ef11b136ea224fe,,,,,,,,,3575,38,66,1,0,0,response1disk,,7,-4,2,1,0,0,rectangle,-4,2,1,0,0,-4,2,1,0,0,1,101,261,143,1,,,,,,,,
,,,,,,,,,,,,,FF,,,,,,,,0.5336,,,,,,,,,,,,,,,,,,,,,,60fcc96991d7f1dff0cfb17f,61036dfce74451882cc12837,2021-07-29_20h13.16.649,Simcolourproject_2stim_asymm_v5,2020.2.10,Win32,60,61025ae37ef11b136ea224fe,,,,,,,,,2616,26,55,1,0,0,response1disk,,7,-2,-1,1,0,0,rectangle,-2,-1,1,0,0,-2,-1,1,0,0,1,102,262,50,1,,,,,,,,
,,,,,,,,,,,,,FF,,,,,,,,2.0142,,,,,,,,,,,,,,,,,,,,,,60fcc96991d7f1dff0cfb17f,61036dfce74451882cc12837,2021-07-29_20h13.16.649,Simcolourproject_2stim_asymm_v5,2020.2.10,Win32,60,61025ae37ef11b136ea224fe,,,,,,,,,2841,55,-67,1,0,0,response3disk,,4,11,-4,1,0,0,rectangle,11,-4,1,0,0,11,-4,1,0,0,1,103,263,80,1,,,,,,,,
,,,,,,,,,,,,,FF,,,,,,,,0.8268,,,,,,,,,,,,,,,,,,,,,,60fcc96991d7f1dff0cfb17f,61036dfce74451882cc12837,2021-07-29_20h13.16.649,Simcolourproject_2stim_asymm_v5,2020.2.10,Win32,60,61025ae37ef11b136ea224fe,,,,,,,,,3077,40,69,1,0,0,response1disk,,7,-5,-5,1,0,0,rectangle,-5,-5,1,0,0,-5,-5,1,0,0,1,104,264,64,1,,,,,,,,
,,,,,,,,,,,,,FF,,,,,,,,1.8138,,,,,,,,,,,,,,,,,,,,,,60fcc96991d7f1dff0cfb17f,61036dfce74451882cc12837,2021-07-29_20h13.16.649,Simcolourproject_2stim_asymm_v5,2020.2.10,Win32,60,61025ae37ef11b136ea224fe,,,,,,,,,1581,87,49,1,0,0,response1disk,,6,24,4,1,0,0,rectangle,24,4,1,0,0,24,4,1,0,0,1,105,265,66,1,,,,,,,,
,,,,,,,,,,,,,FF,,,,,,,,2.2676,,,,,,,,,,,,,,,,,,,,,,60fcc96991d7f1dff0cfb17f,61036dfce74451882cc12837,2021-07-29_20h13.16.649,Simcolourproject_2stim_asymm_v5,2020.2.10,Win32,60,61025ae37ef11b136ea224fe,,,,,,,,,1722,68,44,1,0,0,response1disk,,6,27,8,1,0,0,rectangle,27,8,1,0,0,27,8,1,0,0,1,106,266,74,1,,,,,,,,
,,,,,,,,,,,,,FF,,,,,,,,1.1738,,,,,,,,,,,,,,,,,,,,,,60fcc96991d7f1dff0cfb17f,61036dfce74451882cc12837,2021-07-29_20h13.16.649,Simcolourproject_2stim_asymm_v5,2020.2.10,Win32,60,61025ae37ef11b136ea224fe,,,,,,,,,2614,-27,-60,1,0,0,response5disk,,3,10,2,1,0,0,rectangle,10,2,1,0,0,10,2,1,0,0,1,107,267,119,1,,,,,,,,
,,,,,,,,,,,,,FF,,,,,,,,0.8804,,,,,,,,,,,,,,,,,,,,,,60fcc96991d7f1dff0cfb17f,61036dfce74451882cc12837,2021-07-29_20h13.16.649,Simcolourproject_2stim_asymm_v5,2020.2.10,Win32,60,61025ae37ef11b136ea224fe,,,,,,,,,1210,24,63,1,0,0,response1disk,,7,11,6,1,0,0,rectangle,11,6,1,0,0,11,6,1,0,0,1,108,268,98,1,,,,,,,,
,,,,,,,,,,,,,FF,,,,,,,,0.8803,,,,,,,,,,,,,,,,,,,,,,60fcc96991d7f1dff0cfb17f,61036dfce74451882cc12837,2021-07-29_20h13.16.649,Simcolourproject_2stim_asymm_v5,2020.2.10,Win32,60,61025ae37ef11b136ea224fe,,,,,,,,,3522,-30,-59,1,0,0,response5disk,,3,-5,8,1,0,0,rectangle,-93,-57,1,0,0,-10,10,1,0,0,1,109,269,144,1,,response5disk_3,TRUE,2,2,"[270,99,64,84,289,90,13,306,53,101,242,118,275,103,215,101,124,89,243,89]",1.3764,rectangle
,,,,,,,,,,,,,FF,,,,,,,,1.7074,,,,,,,,,,,,,,,,,,,,,,60fcc96991d7f1dff0cfb17f,61036dfce74451882cc12837,2021-07-29_20h13.16.649,Simcolourproject_2stim_asymm_v5,2020.2.10,Win32,60,61025ae37ef11b136ea224fe,,,,,,,,,830,30,-55,1,0,0,response3disk,,4,-2,-5,1,0,0,rectangle,-2,-5,1,0,0,-2,-5,1,0,0,1,110,270,141,1,,,,,,,,
,,,,,,,,,,,,,FF,,,,,,,,1.6167,,,,,,,,,,,,,,,,,,,,,,60fcc96991d7f1dff0cfb17f,61036dfce74451882cc12837,2021-07-29_20h13.16.649,Simcolourproject_2stim_asymm_v5,2020.2.10,Win32,60,61025ae37ef11b136ea224fe,,,,,,,,,4317,75,26,1,0,0,response1disk,,6,26,-1,1,0,0,rectangle,26,-1,1,0,0,26,-1,1,0,0,1,111,271,9,1,,,,,,,,
,,,,,,,,,,,,,FF,,,,,,,,1.2404,,,,,,,,,,,,,,,,,,,,,,60fcc96991d7f1dff0cfb17f,61036dfce74451882cc12837,2021-07-29_20h13.16.649,Simcolourproject_2stim_asymm_v5,2020.2.10,Win32,60,61025ae37ef11b136ea224fe,,,,,,,,,4065,35,63,1,0,0,response1disk,,7,11,6,1,0,0,rectangle,11,6,1,0,0,11,6,1,0,0,1,112,272,97,1,,,,,,,,
,,,,,,,,,,,,,FF,,,,,,,,0.4936,,,,,,,,,,,,,,,,,,,,,,60fcc96991d7f1dff0cfb17f,61036dfce74451882cc12837,2021-07-29_20h13.16.649,Simcolourproject_2stim_asymm_v5,2020.2.10,Win32,60,61025ae37ef11b136ea224fe,,,,,,,,,4349,42,73,1,0,0,response1disk,,7,2,4,1,0,0,rectangle,2,4,1,0,0,2,4,1,0,0,1,113,273,65,1,,,,,,,,
,,,,,,,,,,,,,FF,,,,,,,,0.4138,,,,,,,,,,,,,,,,,,,,,,60fcc96991d7f1dff0cfb17f,61036dfce74451882cc12837,2021-07-29_20h13.16.649,Simcolourproject_2stim_asymm_v5,2020.2.10,Win32,60,61025ae37ef11b136ea224fe,,,,,,,,,2862,45,77,1,0,0,response1disk,,7,2,10,1,0,0,rectangle,58,85,1,0,0,-1,2,1,0,0,1,114,274,103,1,,response1disk_3,TRUE,7,7,"[270,99,64,84,289,90,13,306,53,101,242,118,275,103,215,101,124,89,243,89]",1.2268,rectangle
,,,,,,,,,,,,,FF,,,,,,,,1.347,,,,,,,,,,,,,,,,,,,,,,60fcc96991d7f1dff0cfb17f,61036dfce74451882cc12837,2021-07-29_20h13.16.649,Simcolourproject_2stim_asymm_v5,2020.2.10,Win32,60,61025ae37ef11b136ea224fe,,,,,,,,,3000,-77,45,1,0,0,response7disk,,1,-16,6,1,0,0,rectangle,-16,6,1,0,0,-16,6,1,0,0,1,115,275,118,1,,,,,,,,
,,,,,,,,,,,,,FF,,,,,,,,1.1069,,,,,,,,,,,,,,,,,,,,,,60fcc96991d7f1dff0cfb17f,61036dfce74451882cc12837,2021-07-29_20h13.16.649,Simcolourproject_2stim_asymm_v5,2020.2.10,Win32,60,61025ae37ef11b136ea224fe,,,,,,,,,837,28,81,1,0,0,response1disk,,7,-1,9,1,0,0,rectangle,-1,9,1,0,0,-1,9,1,0,0,1,116,276,99,1,,,,,,,,
,,,,,,,,,,,,,FF,,,,,,,,1.0538,,,,,,,,,,,,,,,,,,,,,,60fcc96991d7f1dff0cfb17f,61036dfce74451882cc12837,2021-07-29_20h13.16.649,Simcolourproject_2stim_asymm_v5,2020.2.10,Win32,60,61025ae37ef11b136ea224fe,,,,,,,,,3476,-75,-34,1,0,0,response5disk,,2,-27,11,1,0,0,rectangle,-27,11,1,0,0,-27,11,1,0,0,1,117,277,2,1,,,,,,,,
,,,,,,,,,,,,,FF,,,,,,,,0.7336,,,,,,,,,,,,,,,,,,,,,,60fcc96991d7f1dff0cfb17f,61036dfce74451882cc12837,2021-07-29_20h13.16.649,Simcolourproject_2stim_asymm_v5,2020.2.10,Win32,60,61025ae37ef11b136ea224fe,,,,,,,,,3444,26,86,1,0,0,response1disk,,7,-7,12,1,0,0,rectangle,-7,12,1,0,0,-7,12,1,0,0,1,118,278,1,1,,,,,,,,
,,,,,,,,,,,,,FF,,,,,,,,1.1737,,,,,,,,,,,,,,,,,,,,,,60fcc96991d7f1dff0cfb17f,61036dfce74451882cc12837,2021-07-29_20h13.16.649,Simcolourproject_2stim_asymm_v5,2020.2.10,Win32,60,61025ae37ef11b136ea224fe,,,,,,,,,2284,32,72,1,0,0,response1disk,,7,-1,8,1,0,0,rectangle,-1,8,1,0,0,-1,8,1,0,0,1,119,279,83,1,,,,,,,,
,,,,,,,,,,,,,FF,,,,,,,,0.4832,,,,,,,,,,,,,,,,,,,,,,60fcc96991d7f1dff0cfb17f,61036dfce74451882cc12837,2021-07-29_20h13.16.649,Simcolourproject_2stim_asymm_v5,2020.2.10,Win32,60,61025ae37ef11b136ea224fe,,,,,,,,,502,28,63,1,0,0,response1disk,,7,-2,-2,1,0,0,rectangle,-2,-2,1,0,0,-2,-2,1,0,0,1,120,280,22,1,,,,,,,,
,,,,,,,,,,,,,FF,,,,,,,,2.2806,,,,,,,,,,,,,,,,,,,,,,60fcc96991d7f1dff0cfb17f,61036dfce74451882cc12837,2021-07-29_20h13.16.649,Simcolourproject_2stim_asymm_v5,2020.2.10,Win32,60,61025ae37ef11b136ea224fe,,,,,,,,,4295,-33,-84,1,0,0,response5disk,,3,-7,-5,1,0,0,rectangle,-7,-5,1,0,0,-7,-5,1,0,0,1,121,281,151,1,,,,,,,,
,,,,,,,,,,,,,FF,,,,,,,,1.0569,,,,,,,,,,,,,,,,,,,,,,60fcc96991d7f1dff0cfb17f,61036dfce74451882cc12837,2021-07-29_20h13.16.649,Simcolourproject_2stim_asymm_v5,2020.2.10,Win32,60,61025ae37ef11b136ea224fe,,,,,,,,,3968,-48,-64,1,0,0,response5disk,,3,-4,3,1,0,0,rectangle,-4,3,1,0,0,-4,3,1,0,0,1,122,282,130,1,,,,,,,,
,,,,,,,,,,,,,FF,,,,,,,,2.5578,,,,,,,,,,,,,,,,,,,,,,60fcc96991d7f1dff0cfb17f,61036dfce74451882cc12837,2021-07-29_20h13.16.649,Simcolourproject_2stim_asymm_v5,2020.2.10,Win32,60,61025ae37ef11b136ea224fe,,,,,,,,,846,82,30,1,0,0,response1disk,,6,8,-1,1,0,0,rectangle,8,-1,1,0,0,8,-1,1,0,0,1,123,283,42,1,,,,,,,,
,,,,,,,,,,,,,FF,,,,,,,,0.6505,,,,,,,,,,,,,,,,,,,,,,60fcc96991d7f1dff0cfb17f,61036dfce74451882cc12837,2021-07-29_20h13.16.649,Simcolourproject_2stim_asymm_v5,2020.2.10,Win32,60,61025ae37ef11b136ea224fe,,,,,,,,,3681,34,54,1,0,0,response1disk,,7,8,-10,1,0,0,rectangle,8,-10,1,0,0,8,-10,1,0,0,1,124,284,121,1,,,,,,,,
,,,,,,,,,,,,,FF,,,,,,,,0.9308,,,,,,,,,,,,,,,,,,,,,,60fcc96991d7f1dff0cfb17f,61036dfce74451882cc12837,2021-07-29_20h13.16.649,Simcolourproject_2stim_asymm_v5,2020.2.10,Win32,60,61025ae37ef11b136ea224fe,,,,,,,,,2528,33,77,1,0,0,response1disk,,7,5,-3,1,0,0,rectangle,5,-3,1,0,0,5,-3,1,0,0,1,125,285,47,1,,,,,,,,
,,,,,,,,,,,,,FF,,,,,,,,0.6166,,,,,,,,,,,,,,,,,,,,,,60fcc96991d7f1dff0cfb17f,61036dfce74451882cc12837,2021-07-29_20h13.16.649,Simcolourproject_2stim_asymm_v5,2020.2.10,Win32,60,61025ae37ef11b136ea224fe,,,,,,,,,489,43,89,1,0,0,response1disk,,7,4,-1,1,0,0,rectangle,4,-1,1,0,0,4,-1,1,0,0,1,126,286,76,1,,,,,,,,
,,,,,,,,,,,,,FF,,,,,,,,0.6137,,,,,,,,,,,,,,,,,,,,,,60fcc96991d7f1dff0cfb17f,61036dfce74451882cc12837,2021-07-29_20h13.16.649,Simcolourproject_2stim_asymm_v5,2020.2.10,Win32,60,61025ae37ef11b136ea224fe,,,,,,,,,2596,33,72,1,0,0,response1disk,,7,-3,1,1,0,0,rectangle,-3,1,1,0,0,-3,1,1,0,0,1,127,287,43,1,,,,,,,,
,,,,,,,,,,,,,FF,,,,,,,,1.1735,,,,,,,,,,,,,,,,,,,,,,60fcc96991d7f1dff0cfb17f,61036dfce74451882cc12837,2021-07-29_20h13.16.649,Simcolourproject_2stim_asymm_v5,2020.2.10,Win32,60,61025ae37ef11b136ea224fe,,,,,,,,,4148,56,-27,1,0,0,response3disk,,5,16,18,1,0,0,rectangle,-33,73,1,0,0,6,-8,1,0,0,1,128,288,14,1,,response7disk_3,TRUE,0,0,"[270,99,64,84,289,90,13,306,53,101,242,118,275,103,215,101,124,89,243,89]",1.3068,rectangle
,,,,,,,,,,,,,FF,,,,,,,,4.2179,,,,,,,,,,,,,,,,,,,,,,60fcc96991d7f1dff0cfb17f,61036dfce74451882cc12837,2021-07-29_20h13.16.649,Simcolourproject_2stim_asymm_v5,2020.2.10,Win32,60,61025ae37ef11b136ea224fe,,,,,,,,,2473,81,-31,1,0,0,response3disk,,5,13,5,1,0,0,rectangle,13,5,1,0,0,13,5,1,0,0,1,129,289,111,1,,,,,,,,
,,,,,,,,,,,,,FF,,,,,,,,0.6671,,,,,,,,,,,,,,,,,,,,,,60fcc96991d7f1dff0cfb17f,61036dfce74451882cc12837,2021-07-29_20h13.16.649,Simcolourproject_2stim_asymm_v5,2020.2.10,Win32,60,61025ae37ef11b136ea224fe,,,,,,,,,3649,38,81,1,0,0,response1disk,,7,-6,5,1,0,0,rectangle,-6,5,1,0,0,-6,5,1,0,0,1,130,290,33,1,,,,,,,,
,,,,,,,,,,,,,FF,,,,,,,,1.2505,,,,,,,,,,,,,,,,,,,,,,60fcc96991d7f1dff0cfb17f,61036dfce74451882cc12837,2021-07-29_20h13.16.649,Simcolourproject_2stim_asymm_v5,2020.2.10,Win32,60,61025ae37ef11b136ea224fe,,,,,,,,,1217,45,-63,1,0,0,response3disk,,4,4,-5,1,0,0,rectangle,4,-5,1,0,0,4,-5,1,0,0,1,131,291,82,1,,,,,,,,
,,,,,,,,,,,,,FF,,,,,,,,1.1605,,,,,,,,,,,,,,,,,,,,,,60fcc96991d7f1dff0cfb17f,61036dfce74451882cc12837,2021-07-29_20h13.16.649,Simcolourproject_2stim_asymm_v5,2020.2.10,Win32,60,61025ae37ef11b136ea224fe,,,,,,,,,1631,32,68,1,0,0,response1disk,,7,-12,3,1,0,0,rectangle,-12,3,1,0,0,-12,3,1,0,0,1,132,292,85,1,,,,,,,,
,,,,,,,,,,,,,FF,,,,,,,,1.0639,,,,,,,,,,,,,,,,,,,,,,60fcc96991d7f1dff0cfb17f,61036dfce74451882cc12837,2021-07-29_20h13.16.649,Simcolourproject_2stim_asymm_v5,2020.2.10,Win32,60,61025ae37ef11b136ea224fe,,,,,,,,,1415,37,61,1,0,0,response1disk,,7,12,14,1,0,0,rectangle,12,14,1,0,0,12,14,1,0,0,1,133,293,55,1,,,,,,,,
,,,,,,,,,,,,,FF,,,,,,,,0.5069,,,,,,,,,,,,,,,,,,,,,,60fcc96991d7f1dff0cfb17f,61036dfce74451882cc12837,2021-07-29_20h13.16.649,Simcolourproject_2stim_asymm_v5,2020.2.10,Win32,60,61025ae37ef11b136ea224fe,,,,,,,,,3962,35,67,1,0,0,response1disk,,7,12,1,1,0,0,rectangle,12,1,1,0,0,12,1,1,0,0,1,134,294,135,1,,,,,,,,
,,,,,,,,,,,,,FF,,,,,,,,0.4403,,,,,,,,,,,,,,,,,,,,,,60fcc96991d7f1dff0cfb17f,61036dfce74451882cc12837,2021-07-29_20h13.16.649,Simcolourproject_2stim_asymm_v5,2020.2.10,Win32,60,61025ae37ef11b136ea224fe,,,,,,,,,3626,31,64,1,0,0,response1disk,,7,3,-4,1,0,0,rectangle,3,-4,1,0,0,3,-4,1,0,0,1,135,295,110,1,,,,,,,,
,,,,,,,,,,,,,FF,,,,,,,,0.5867,,,,,,,,,,,,,,,,,,,,,,60fcc96991d7f1dff0cfb17f,61036dfce74451882cc12837,2021-07-29_20h13.16.649,Simcolourproject_2stim_asymm_v5,2020.2.10,Win32,60,61025ae37ef11b136ea224fe,,,,,,,,,1769,34,65,1,0,0,response1disk,,7,17,1,1,0,0,rectangle,17,1,1,0,0,17,1,1,0,0,1,136,296,37,1,,,,,,,,
,,,,,,,,,,,,,FF,,,,,,,,0.4936,,,,,,,,,,,,,,,,,,,,,,60fcc96991d7f1dff0cfb17f,61036dfce74451882cc12837,2021-07-29_20h13.16.649,Simcolourproject_2stim_asymm_v5,2020.2.10,Win32,60,61025ae37ef11b136ea224fe,,,,,,,,,1190,32,56,1,0,0,response1disk,,7,9,-3,1,0,0,rectangle,9,-3,1,0,0,9,-3,1,0,0,1,137,297,81,1,,,,,,,,
,,,,,,,,,,,,,FF,,,,,,,,0.4966,,,,,,,,,,,,,,,,,,,,,,60fcc96991d7f1dff0cfb17f,61036dfce74451882cc12837,2021-07-29_20h13.16.649,Simcolourproject_2stim_asymm_v5,2020.2.10,Win32,60,61025ae37ef11b136ea224fe,,,,,,,,,673,36,75,1,0,0,response1disk,,7,10,6,1,0,0,rectangle,10,6,1,0,0,10,6,1,0,0,1,138,298,120,1,,,,,,,,
,,,,,,,,,,,,,FF,,,,,,,,0.524,,,,,,,,,,,,,,,,,,,,,,60fcc96991d7f1dff0cfb17f,61036dfce74451882cc12837,2021-07-29_20h13.16.649,Simcolourproject_2stim_asymm_v5,2020.2.10,Win32,60,61025ae37ef11b136ea224fe,,,,,,,,,3456,51,89,1,0,0,response1disk,,7,-6,11,1,0,0,rectangle,-6,11,1,0,0,-6,11,1,0,0,1,139,299,71,1,,,,,,,,
,,,,,,,,,,,,,FF,,,,,,,,0.3973,,,,,,,,,,,,,,,,,,,,,,60fcc96991d7f1dff0cfb17f,61036dfce74451882cc12837,2021-07-29_20h13.16.649,Simcolourproject_2stim_asymm_v5,2020.2.10,Win32,60,61025ae37ef11b136ea224fe,,,,,,,,,86,40,90,1,0,0,response1disk,,7,-4,6,1,0,0,rectangle,-4,6,1,0,0,-4,6,1,0,0,1,140,300,51,1,,,,,,,,
,,,,,,,,,,,,,FF,,,,,,,,0.4294,,,,,,,,,,,,,,,,,,,,,,60fcc96991d7f1dff0cfb17f,61036dfce74451882cc12837,2021-07-29_20h13.16.649,Simcolourproject_2stim_asymm_v5,2020.2.10,Win32,60,61025ae37ef11b136ea224fe,,,,,,,,,3738,32,86,1,0,0,response1disk,,7,-5,0,1,0,0,rectangle,-5,0,1,0,0,-5,0,1,0,0,1,141,301,93,1,,,,,,,,
,,,,,,,,,,,,,FF,,,,,,,,1.574,,,,,,,,,,,,,,,,,,,,,,60fcc96991d7f1dff0cfb17f,61036dfce74451882cc12837,2021-07-29_20h13.16.649,Simcolourproject_2stim_asymm_v5,2020.2.10,Win32,60,61025ae37ef11b136ea224fe,,,,,,,,,2778,33,-70,1,0,0,response3disk,,4,-5,16,1,0,0,rectangle,-5,16,1,0,0,-5,16,1,0,0,1,142,302,84,1,,,,,,,,
,,,,,,,,,,,,,FF,,,,,,,,0.6002,,,,,,,,,,,,,,,,,,,,,,60fcc96991d7f1dff0cfb17f,61036dfce74451882cc12837,2021-07-29_20h13.16.649,Simcolourproject_2stim_asymm_v5,2020.2.10,Win32,60,61025ae37ef11b136ea224fe,,,,,,,,,1635,35,86,1,0,0,response1disk,,7,-2,4,1,0,0,rectangle,-2,4,1,0,0,-2,4,1,0,0,1,143,303,108,1,,,,,,,,
