key_resp.keys,key_resp.rt,key_resp_14.keys,key_resp_14.rt,key_resp_15.keys,key_resp_15.rt,key_resp_17.keys,key_resp_17.rt,key_resp_9.keys,key_resp_9.rt,key_resp_10.keys,key_resp_10.rt,practice_comparison,Ecc,mouse_5.x,mouse_5.y,mouse_5.leftButton,mouse_5.midButton,mouse_5.rightButton,mouse_5.clicked_name,pracsimilarity,response_time,mouse_10.x,mouse_10.y,mouse_10.leftButton,mouse_10.midButton,mouse_10.rightButton,mouse_10.clicked_name,mouse_7.x,mouse_7.y,mouse_7.leftButton,mouse_7.midButton,mouse_7.rightButton,mouse_6.x,mouse_6.y,mouse_6.leftButton,mouse_6.midButton,mouse_6.rightButton,duringprac.thisRepN,duringprac.thisTrialN,duringprac.thisN,duringprac.thisIndex,duringprac.ran,participant,session,date,expName,psychopyVersion,OS,frameRate,study_id,mouse_7.clicked_name,catchpracsimilarity,catch_response_time,catchnumberprac,catchtrialorderprac,mouse_6.clicked_name,key_resp_22.keys,key_resp_22.rt,realcomparison,mouse.x,mouse.y,mouse.leftButton,mouse.midButton,mouse.rightButton,mouse.clicked_name,Colour2,similarity,mouse_2.x,mouse_2.y,mouse_2.leftButton,mouse_2.midButton,mouse_2.rightButton,mouse_2.clicked_name,mouse_3.x,mouse_3.y,mouse_3.leftButton,mouse_3.midButton,mouse_3.rightButton,mouse_11.x,mouse_11.y,mouse_11.leftButton,mouse_11.midButton,mouse_11.rightButton,trials_2.thisRepN,trials_2.thisTrialN,trials_2.thisN,trials_2.thisIndex,trials_2.ran,Colour1,mouse_3.clicked_name,catchornah,catchsimilarity,catchnumber,catchtrialorder,catchRT,mouse_11.clicked_name
space,2.2595,space,24.3192,space,39.2362,space,7.2442,space,4.4712,space,3.9518,160,PF,66,-52,1,0,0,response3disk_5,5,8.265,9,-4,1,0,0,rectangle_8,9,-4,1,0,0,9,-4,1,0,0,0,0,0,2,1,60fcc1523286b54d48b32cf5,610371705dfd0f61720e3910,2021-07-29_20h56.30.585,Simcolourproject_2stim_asymm_v5,2020.2.10,Win32,60,61025ae37ef11b136ea224fe,,,,,,,,,,,,,,,,,,,,,,,,,,,,,,,,,,,,,,,,,,,,,,
,,,,,,,,,,,,138,PF,-39,-118,1,0,0,response5disk_5,3,2.9652,-11,-5,1,0,0,rectangle_8,59,-126,1,0,0,-5,-5,1,0,0,0,1,1,1,1,60fcc1523286b54d48b32cf5,610371705dfd0f61720e3910,2021-07-29_20h56.30.585,Simcolourproject_2stim_asymm_v5,2020.2.10,Win32,60,61025ae37ef11b136ea224fe,response3disk_7,4,2.0853,4,"[2,5]",rectangle_4,,,,,,,,,,,,,,,,,,,,,,,,,,,,,,,,,,,,,,,,
,,,,,,,,,,,,91,FF,-73,57,1,0,0,response7disk_5,1,6.2076,0,6,1,0,0,rectangle_8,0,6,1,0,0,0,6,1,0,0,0,2,2,5,1,60fcc1523286b54d48b32cf5,610371705dfd0f61720e3910,2021-07-29_20h56.30.585,Simcolourproject_2stim_asymm_v5,2020.2.10,Win32,60,61025ae37ef11b136ea224fe,,,,,,,,,,,,,,,,,,,,,,,,,,,,,,,,,,,,,,,,,,,,,,
,,,,,,,,,,,,65,PF,62,-116,1,0,0,response3disk_5,4,1.4772,8,-10,1,0,0,rectangle_8,8,-10,1,0,0,8,-10,1,0,0,0,3,3,4,1,60fcc1523286b54d48b32cf5,610371705dfd0f61720e3910,2021-07-29_20h56.30.585,Simcolourproject_2stim_asymm_v5,2020.2.10,Win32,60,61025ae37ef11b136ea224fe,,,,,,,,,,,,,,,,,,,,,,,,,,,,,,,,,,,,,,,,,,,,,,
,,,,,,,,,,,,27,PF,-98,30,1,0,0,response7disk_5,1,3.3852,-13,0,1,0,0,rectangle_8,61,-101,1,0,0,-14,-8,1,0,0,0,4,4,6,1,60fcc1523286b54d48b32cf5,610371705dfd0f61720e3910,2021-07-29_20h56.30.585,Simcolourproject_2stim_asymm_v5,2020.2.10,Win32,60,61025ae37ef11b136ea224fe,response3disk_7,4,1.3346,4,"[2,5]",rectangle_4,,,,,,,,,,,,,,,,,,,,,,,,,,,,,,,,,,,,,,,,
,,,,,,,,,,,,113,FF,-81,-47,1,0,0,response5disk_5,2,1.2665,-11,-8,1,0,0,rectangle_8,-11,-8,1,0,0,-11,-8,1,0,0,0,5,5,0,1,60fcc1523286b54d48b32cf5,610371705dfd0f61720e3910,2021-07-29_20h56.30.585,Simcolourproject_2stim_asymm_v5,2020.2.10,Win32,60,61025ae37ef11b136ea224fe,,,,,,,,,,,,,,,,,,,,,,,,,,,,,,,,,,,,,,,,,,,,,,
,,,,,,,,,,,,137,FF,131,26,1,0,0,response1disk_5,6,3.7707,42,-11,1,0,0,rectangle_8,42,-11,1,0,0,42,-11,1,0,0,0,6,6,3,1,60fcc1523286b54d48b32cf5,610371705dfd0f61720e3910,2021-07-29_20h56.30.585,Simcolourproject_2stim_asymm_v5,2020.2.10,Win32,60,61025ae37ef11b136ea224fe,,,,,,,,,,,,,,,,,,,,,,,,,,,,,,,,,,,,,,,,,,,,,,
,,,,,,,,,,,,,FF,,,,,,,,2.4359,,,,,,,,,,,,,,,,,,,,,,60fcc1523286b54d48b32cf5,610371705dfd0f61720e3910,2021-07-29_20h56.30.585,Simcolourproject_2stim_asymm_v5,2020.2.10,Win32,60,61025ae37ef11b136ea224fe,,,,,,,space,3.4871,417,89,-68,1,0,0,response3disk,,5,1,-5,1,0,0,rectangle,1,-5,1,0,0,1,-5,1,0,0,0,0,0,113,1,,,,,,,,
,,,,,,,,,,,,,FF,,,,,,,,2.2696,,,,,,,,,,,,,,,,,,,,,,60fcc1523286b54d48b32cf5,610371705dfd0f61720e3910,2021-07-29_20h56.30.585,Simcolourproject_2stim_asymm_v5,2020.2.10,Win32,60,61025ae37ef11b136ea224fe,,,,,,,,,1775,37,-118,1,0,0,response3disk,,4,10,-8,1,0,0,rectangle,10,-8,1,0,0,10,-8,1,0,0,0,1,1,48,1,,,,,,,,
,,,,,,,,,,,,,FF,,,,,,,,1.4354,,,,,,,,,,,,,,,,,,,,,,60fcc1523286b54d48b32cf5,610371705dfd0f61720e3910,2021-07-29_20h56.30.585,Simcolourproject_2stim_asymm_v5,2020.2.10,Win32,60,61025ae37ef11b136ea224fe,,,,,,,,,4171,-99,-49,1,0,0,response5disk,,2,-5,-1,1,0,0,rectangle,-5,-1,1,0,0,-5,-1,1,0,0,0,2,2,24,1,,,,,,,,
,,,,,,,,,,,,,FF,,,,,,,,1.3946,,,,,,,,,,,,,,,,,,,,,,60fcc1523286b54d48b32cf5,610371705dfd0f61720e3910,2021-07-29_20h56.30.585,Simcolourproject_2stim_asymm_v5,2020.2.10,Win32,60,61025ae37ef11b136ea224fe,,,,,,,,,3138,-84,-52,1,0,0,response5disk,,2,-27,-2,1,0,0,rectangle,-27,-2,1,0,0,-27,-2,1,0,0,0,3,3,125,1,,,,,,,,
,,,,,,,,,,,,,FF,,,,,,,,1.5103,,,,,,,,,,,,,,,,,,,,,,60fcc1523286b54d48b32cf5,610371705dfd0f61720e3910,2021-07-29_20h56.30.585,Simcolourproject_2stim_asymm_v5,2020.2.10,Win32,60,61025ae37ef11b136ea224fe,,,,,,,,,4362,-75,58,1,0,0,response7disk,,1,-17,-1,1,0,0,rectangle,-17,-1,1,0,0,-17,-1,1,0,0,0,4,4,130,1,,,,,,,,
,,,,,,,,,,,,,FF,,,,,,,,1.8184,,,,,,,,,,,,,,,,,,,,,,60fcc1523286b54d48b32cf5,610371705dfd0f61720e3910,2021-07-29_20h56.30.585,Simcolourproject_2stim_asymm_v5,2020.2.10,Win32,60,61025ae37ef11b136ea224fe,,,,,,,,,1236,-37,-115,1,0,0,response5disk,,3,3,-1,1,0,0,rectangle,3,-1,1,0,0,3,-1,1,0,0,0,5,5,45,1,,,,,,,,
,,,,,,,,,,,,,FF,,,,,,,,1.4862,,,,,,,,,,,,,,,,,,,,,,60fcc1523286b54d48b32cf5,610371705dfd0f61720e3910,2021-07-29_20h56.30.585,Simcolourproject_2stim_asymm_v5,2020.2.10,Win32,60,61025ae37ef11b136ea224fe,,,,,,,,,3443,98,34,1,0,0,response1disk,,6,27,-7,1,0,0,rectangle,27,-7,1,0,0,27,-7,1,0,0,0,6,6,71,1,,,,,,,,
,,,,,,,,,,,,,FF,,,,,,,,1.8355,,,,,,,,,,,,,,,,,,,,,,60fcc1523286b54d48b32cf5,610371705dfd0f61720e3910,2021-07-29_20h56.30.585,Simcolourproject_2stim_asymm_v5,2020.2.10,Win32,60,61025ae37ef11b136ea224fe,,,,,,,,,1133,-43,-77,1,0,0,response5disk,,3,-11,19,1,0,0,rectangle,-11,19,1,0,0,-11,19,1,0,0,0,7,7,90,1,,,,,,,,
,,,,,,,,,,,,,FF,,,,,,,,1.0184,,,,,,,,,,,,,,,,,,,,,,60fcc1523286b54d48b32cf5,610371705dfd0f61720e3910,2021-07-29_20h56.30.585,Simcolourproject_2stim_asymm_v5,2020.2.10,Win32,60,61025ae37ef11b136ea224fe,,,,,,,,,3512,-60,-37,1,0,0,response5disk,,2,-6,8,1,0,0,rectangle,-6,8,1,0,0,-6,8,1,0,0,0,8,8,114,1,,,,,,,,
,,,,,,,,,,,,,FF,,,,,,,,1.1007,,,,,,,,,,,,,,,,,,,,,,60fcc1523286b54d48b32cf5,610371705dfd0f61720e3910,2021-07-29_20h56.30.585,Simcolourproject_2stim_asymm_v5,2020.2.10,Win32,60,61025ae37ef11b136ea224fe,,,,,,,,,593,118,33,1,0,0,response1disk,,6,26,8,1,0,0,rectangle,26,8,1,0,0,26,8,1,0,0,0,9,9,115,1,,,,,,,,
,,,,,,,,,,,,,FF,,,,,,,,1.9514,,,,,,,,,,,,,,,,,,,,,,60fcc1523286b54d48b32cf5,610371705dfd0f61720e3910,2021-07-29_20h56.30.585,Simcolourproject_2stim_asymm_v5,2020.2.10,Win32,60,61025ae37ef11b136ea224fe,,,,,,,,,513,53,-119,1,0,0,response3disk,,4,-2,-11,1,0,0,rectangle,-2,-11,1,0,0,-2,-11,1,0,0,0,10,10,2,1,,,,,,,,
,,,,,,,,,,,,,FF,,,,,,,,1.4994,,,,,,,,,,,,,,,,,,,,,,60fcc1523286b54d48b32cf5,610371705dfd0f61720e3910,2021-07-29_20h56.30.585,Simcolourproject_2stim_asymm_v5,2020.2.10,Win32,60,61025ae37ef11b136ea224fe,,,,,,,,,2804,69,92,1,0,0,response1disk,,7,17,6,1,0,0,rectangle,17,6,1,0,0,17,6,1,0,0,0,11,11,65,1,,,,,,,,
,,,,,,,,,,,,,FF,,,,,,,,1.0986,,,,,,,,,,,,,,,,,,,,,,60fcc1523286b54d48b32cf5,610371705dfd0f61720e3910,2021-07-29_20h56.30.585,Simcolourproject_2stim_asymm_v5,2020.2.10,Win32,60,61025ae37ef11b136ea224fe,,,,,,,,,2836,-51,-71,1,0,0,response5disk,,3,-7,10,1,0,0,rectangle,-7,10,1,0,0,-7,10,1,0,0,0,12,12,20,1,,,,,,,,
,,,,,,,,,,,,,FF,,,,,,,,1.1364,,,,,,,,,,,,,,,,,,,,,,60fcc1523286b54d48b32cf5,610371705dfd0f61720e3910,2021-07-29_20h56.30.585,Simcolourproject_2stim_asymm_v5,2020.2.10,Win32,60,61025ae37ef11b136ea224fe,,,,,,,,,125,114,-34,1,0,0,response3disk,,5,29,3,1,0,0,rectangle,29,3,1,0,0,29,3,1,0,0,0,13,13,110,1,,,,,,,,
,,,,,,,,,,,,,FF,,,,,,,,2.7705,,,,,,,,,,,,,,,,,,,,,,60fcc1523286b54d48b32cf5,610371705dfd0f61720e3910,2021-07-29_20h56.30.585,Simcolourproject_2stim_asymm_v5,2020.2.10,Win32,60,61025ae37ef11b136ea224fe,,,,,,,,,4088,51,-45,1,0,0,response3disk,,5,11,-6,1,0,0,rectangle,11,-6,1,0,0,11,-6,1,0,0,0,14,14,29,1,,,,,,,,
,,,,,,,,,,,,,FF,,,,,,,,0.9672,,,,,,,,,,,,,,,,,,,,,,60fcc1523286b54d48b32cf5,610371705dfd0f61720e3910,2021-07-29_20h56.30.585,Simcolourproject_2stim_asymm_v5,2020.2.10,Win32,60,61025ae37ef11b136ea224fe,,,,,,,,,2174,-81,56,1,0,0,response7disk,,1,-27,-4,1,0,0,rectangle,-27,-4,1,0,0,-27,-4,1,0,0,0,15,15,11,1,,,,,,,,
,,,,,,,,,,,,,FF,,,,,,,,0.9832,,,,,,,,,,,,,,,,,,,,,,60fcc1523286b54d48b32cf5,610371705dfd0f61720e3910,2021-07-29_20h56.30.585,Simcolourproject_2stim_asymm_v5,2020.2.10,Win32,60,61025ae37ef11b136ea224fe,,,,,,,,,4320,60,-90,1,0,0,response3disk,,4,4,-10,1,0,0,rectangle,4,-10,1,0,0,4,-10,1,0,0,0,16,16,91,1,,,,,,,,
,,,,,,,,,,,,,FF,,,,,,,,1.3362,,,,,,,,,,,,,,,,,,,,,,60fcc1523286b54d48b32cf5,610371705dfd0f61720e3910,2021-07-29_20h56.30.585,Simcolourproject_2stim_asymm_v5,2020.2.10,Win32,60,61025ae37ef11b136ea224fe,,,,,,,,,2844,40,-89,1,0,0,response3disk,,4,-5,0,1,0,0,rectangle,-98,53,1,0,0,-14,-8,1,0,0,0,17,17,134,1,,response7disk_3,TRUE,1,1,"[101,300,18,49,48,200,252,227,319,99,272,293,322,268,122,161,302,128,187,93]",1.552,rectangle
,,,,,,,,,,,,,FF,,,,,,,,1.4176,,,,,,,,,,,,,,,,,,,,,,60fcc1523286b54d48b32cf5,610371705dfd0f61720e3910,2021-07-29_20h56.30.585,Simcolourproject_2stim_asymm_v5,2020.2.10,Win32,60,61025ae37ef11b136ea224fe,,,,,,,,,97,-102,-79,1,0,0,response5disk,,2,-20,2,1,0,0,rectangle,-20,2,1,0,0,-20,2,1,0,0,0,18,18,21,1,,,,,,,,
,,,,,,,,,,,,,FF,,,,,,,,1.4511,,,,,,,,,,,,,,,,,,,,,,60fcc1523286b54d48b32cf5,610371705dfd0f61720e3910,2021-07-29_20h56.30.585,Simcolourproject_2stim_asymm_v5,2020.2.10,Win32,60,61025ae37ef11b136ea224fe,,,,,,,,,245,53,-94,1,0,0,response3disk,,4,-11,-10,1,0,0,rectangle,-11,-10,1,0,0,-11,-10,1,0,0,0,19,19,87,1,,,,,,,,
,,,,,,,,,,,,,FF,,,,,,,,1.2184,,,,,,,,,,,,,,,,,,,,,,60fcc1523286b54d48b32cf5,610371705dfd0f61720e3910,2021-07-29_20h56.30.585,Simcolourproject_2stim_asymm_v5,2020.2.10,Win32,60,61025ae37ef11b136ea224fe,,,,,,,,,1072,-94,-29,1,0,0,response5disk,,2,-1,6,1,0,0,rectangle,-1,6,1,0,0,-1,6,1,0,0,0,20,20,107,1,,,,,,,,
,,,,,,,,,,,,,FF,,,,,,,,1.1686,,,,,,,,,,,,,,,,,,,,,,60fcc1523286b54d48b32cf5,610371705dfd0f61720e3910,2021-07-29_20h56.30.585,Simcolourproject_2stim_asymm_v5,2020.2.10,Win32,60,61025ae37ef11b136ea224fe,,,,,,,,,635,-69,-40,1,0,0,response5disk,,2,-14,13,1,0,0,rectangle,-14,13,1,0,0,-14,13,1,0,0,0,21,21,36,1,,,,,,,,
,,,,,,,,,,,,,FF,,,,,,,,1.6997,,,,,,,,,,,,,,,,,,,,,,60fcc1523286b54d48b32cf5,610371705dfd0f61720e3910,2021-07-29_20h56.30.585,Simcolourproject_2stim_asymm_v5,2020.2.10,Win32,60,61025ae37ef11b136ea224fe,,,,,,,,,367,-37,-92,1,0,0,response5disk,,3,-13,-3,1,0,0,rectangle,-13,-3,1,0,0,-13,-3,1,0,0,0,22,22,73,1,,,,,,,,
,,,,,,,,,,,,,FF,,,,,,,,0.8013,,,,,,,,,,,,,,,,,,,,,,60fcc1523286b54d48b32cf5,610371705dfd0f61720e3910,2021-07-29_20h56.30.585,Simcolourproject_2stim_asymm_v5,2020.2.10,Win32,60,61025ae37ef11b136ea224fe,,,,,,,,,3812,-72,-32,1,0,0,response5disk,,2,-30,5,1,0,0,rectangle,-30,5,1,0,0,-30,5,1,0,0,0,23,23,103,1,,,,,,,,
,,,,,,,,,,,,,FF,,,,,,,,1.0816,,,,,,,,,,,,,,,,,,,,,,60fcc1523286b54d48b32cf5,610371705dfd0f61720e3910,2021-07-29_20h56.30.585,Simcolourproject_2stim_asymm_v5,2020.2.10,Win32,60,61025ae37ef11b136ea224fe,,,,,,,,,2675,107,-38,1,0,0,response3disk,,5,21,12,1,0,0,rectangle,21,12,1,0,0,21,12,1,0,0,0,24,24,145,1,,,,,,,,
,,,,,,,,,,,,,FF,,,,,,,,0.7827,,,,,,,,,,,,,,,,,,,,,,60fcc1523286b54d48b32cf5,610371705dfd0f61720e3910,2021-07-29_20h56.30.585,Simcolourproject_2stim_asymm_v5,2020.2.10,Win32,60,61025ae37ef11b136ea224fe,,,,,,,,,3311,48,71,1,0,0,response1disk,,7,16,5,1,0,0,rectangle,16,5,1,0,0,16,5,1,0,0,0,25,25,94,1,,,,,,,,
,,,,,,,,,,,,,FF,,,,,,,,0.8243,,,,,,,,,,,,,,,,,,,,,,60fcc1523286b54d48b32cf5,610371705dfd0f61720e3910,2021-07-29_20h56.30.585,Simcolourproject_2stim_asymm_v5,2020.2.10,Win32,60,61025ae37ef11b136ea224fe,,,,,,,,,759,30,56,1,0,0,response1disk,,7,-4,-6,1,0,0,rectangle,-4,-6,1,0,0,-4,-6,1,0,0,0,26,26,98,1,,,,,,,,
,,,,,,,,,,,,,FF,,,,,,,,0.7677,,,,,,,,,,,,,,,,,,,,,,60fcc1523286b54d48b32cf5,610371705dfd0f61720e3910,2021-07-29_20h56.30.585,Simcolourproject_2stim_asymm_v5,2020.2.10,Win32,60,61025ae37ef11b136ea224fe,,,,,,,,,354,-67,-46,1,0,0,response5disk,,2,25,-5,1,0,0,rectangle,25,-5,1,0,0,25,-5,1,0,0,0,27,27,17,1,,,,,,,,
,,,,,,,,,,,,,FF,,,,,,,,0.95,,,,,,,,,,,,,,,,,,,,,,60fcc1523286b54d48b32cf5,610371705dfd0f61720e3910,2021-07-29_20h56.30.585,Simcolourproject_2stim_asymm_v5,2020.2.10,Win32,60,61025ae37ef11b136ea224fe,,,,,,,,,1553,51,-73,1,0,0,response3disk,,4,-2,8,1,0,0,rectangle,-2,8,1,0,0,-2,8,1,0,0,0,28,28,95,1,,,,,,,,
,,,,,,,,,,,,,FF,,,,,,,,2.2022,,,,,,,,,,,,,,,,,,,,,,60fcc1523286b54d48b32cf5,610371705dfd0f61720e3910,2021-07-29_20h56.30.585,Simcolourproject_2stim_asymm_v5,2020.2.10,Win32,60,61025ae37ef11b136ea224fe,,,,,,,,,3238,-47,-106,1,0,0,response5disk,,3,-2,-6,1,0,0,rectangle,-2,-6,1,0,0,-2,-6,1,0,0,0,29,29,117,1,,,,,,,,
,,,,,,,,,,,,,FF,,,,,,,,1.2089,,,,,,,,,,,,,,,,,,,,,,60fcc1523286b54d48b32cf5,610371705dfd0f61720e3910,2021-07-29_20h56.30.585,Simcolourproject_2stim_asymm_v5,2020.2.10,Win32,60,61025ae37ef11b136ea224fe,,,,,,,,,4226,41,-83,1,0,0,response3disk,,4,16,-6,1,0,0,rectangle,16,-6,1,0,0,16,-6,1,0,0,0,30,30,64,1,,,,,,,,
,,,,,,,,,,,,,FF,,,,,,,,1.0856,,,,,,,,,,,,,,,,,,,,,,60fcc1523286b54d48b32cf5,610371705dfd0f61720e3910,2021-07-29_20h56.30.585,Simcolourproject_2stim_asymm_v5,2020.2.10,Win32,60,61025ae37ef11b136ea224fe,,,,,,,,,1627,112,64,1,0,0,response1disk,,6,32,-4,1,0,0,rectangle,32,-4,1,0,0,32,-4,1,0,0,0,31,31,12,1,,,,,,,,
,,,,,,,,,,,,,FF,,,,,,,,1.3505,,,,,,,,,,,,,,,,,,,,,,60fcc1523286b54d48b32cf5,610371705dfd0f61720e3910,2021-07-29_20h56.30.585,Simcolourproject_2stim_asymm_v5,2020.2.10,Win32,60,61025ae37ef11b136ea224fe,,,,,,,,,1767,101,33,1,0,0,response1disk,,6,35,-14,1,0,0,rectangle,35,-14,1,0,0,35,-14,1,0,0,0,32,32,135,1,,,,,,,,
,,,,,,,,,,,,,FF,,,,,,,,1.6171,,,,,,,,,,,,,,,,,,,,,,60fcc1523286b54d48b32cf5,610371705dfd0f61720e3910,2021-07-29_20h56.30.585,Simcolourproject_2stim_asymm_v5,2020.2.10,Win32,60,61025ae37ef11b136ea224fe,,,,,,,,,3095,54,-88,1,0,0,response3disk,,4,1,18,1,0,0,rectangle,1,18,1,0,0,1,18,1,0,0,0,33,33,153,1,,,,,,,,
,,,,,,,,,,,,,FF,,,,,,,,1.7357,,,,,,,,,,,,,,,,,,,,,,60fcc1523286b54d48b32cf5,610371705dfd0f61720e3910,2021-07-29_20h56.30.585,Simcolourproject_2stim_asymm_v5,2020.2.10,Win32,60,61025ae37ef11b136ea224fe,,,,,,,,,2326,119,-27,1,0,0,response3disk,,5,28,-8,1,0,0,rectangle,28,-8,1,0,0,28,-8,1,0,0,0,34,34,156,1,,,,,,,,
,,,,,,,,,,,,,FF,,,,,,,,0.9678,,,,,,,,,,,,,,,,,,,,,,60fcc1523286b54d48b32cf5,610371705dfd0f61720e3910,2021-07-29_20h56.30.585,Simcolourproject_2stim_asymm_v5,2020.2.10,Win32,60,61025ae37ef11b136ea224fe,,,,,,,,,1371,-84,-62,1,0,0,response5disk,,2,-22,-7,1,0,0,rectangle,-22,-7,1,0,0,-22,-7,1,0,0,0,35,35,128,1,,,,,,,,
,,,,,,,,,,,,,FF,,,,,,,,0.9196,,,,,,,,,,,,,,,,,,,,,,60fcc1523286b54d48b32cf5,610371705dfd0f61720e3910,2021-07-29_20h56.30.585,Simcolourproject_2stim_asymm_v5,2020.2.10,Win32,60,61025ae37ef11b136ea224fe,,,,,,,,,4008,-28,-71,1,0,0,response5disk,,3,-1,-1,1,0,0,rectangle,-1,-1,1,0,0,-1,-1,1,0,0,0,36,36,9,1,,,,,,,,
,,,,,,,,,,,,,FF,,,,,,,,1.1869,,,,,,,,,,,,,,,,,,,,,,60fcc1523286b54d48b32cf5,610371705dfd0f61720e3910,2021-07-29_20h56.30.585,Simcolourproject_2stim_asymm_v5,2020.2.10,Win32,60,61025ae37ef11b136ea224fe,,,,,,,,,2346,86,-70,1,0,0,response3disk,,5,7,3,1,0,0,rectangle,7,3,1,0,0,7,3,1,0,0,0,37,37,143,1,,,,,,,,
,,,,,,,,,,,,,FF,,,,,,,,1.1349,,,,,,,,,,,,,,,,,,,,,,60fcc1523286b54d48b32cf5,610371705dfd0f61720e3910,2021-07-29_20h56.30.585,Simcolourproject_2stim_asymm_v5,2020.2.10,Win32,60,61025ae37ef11b136ea224fe,,,,,,,,,2021,104,31,1,0,0,response1disk,,6,11,-16,1,0,0,rectangle,11,-16,1,0,0,11,-16,1,0,0,0,38,38,88,1,,,,,,,,
,,,,,,,,,,,,,FF,,,,,,,,1.0359,,,,,,,,,,,,,,,,,,,,,,60fcc1523286b54d48b32cf5,610371705dfd0f61720e3910,2021-07-29_20h56.30.585,Simcolourproject_2stim_asymm_v5,2020.2.10,Win32,60,61025ae37ef11b136ea224fe,,,,,,,,,1516,65,46,1,0,0,response1disk,,6,-19,-5,1,0,0,rectangle,-19,-5,1,0,0,-19,-5,1,0,0,0,39,39,139,1,,,,,,,,
,,,,,,,,,,,,,FF,,,,,,,,1.5023,,,,,,,,,,,,,,,,,,,,,,60fcc1523286b54d48b32cf5,610371705dfd0f61720e3910,2021-07-29_20h56.30.585,Simcolourproject_2stim_asymm_v5,2020.2.10,Win32,60,61025ae37ef11b136ea224fe,,,,,,,,,1234,87,-25,1,0,0,response3disk,,5,-36,-10,1,0,0,rectangle,-36,-10,1,0,0,-36,-10,1,0,0,0,40,40,42,1,,,,,,,,
,,,,,,,,,,,,,FF,,,,,,,,1.2504,,,,,,,,,,,,,,,,,,,,,,60fcc1523286b54d48b32cf5,610371705dfd0f61720e3910,2021-07-29_20h56.30.585,Simcolourproject_2stim_asymm_v5,2020.2.10,Win32,60,61025ae37ef11b136ea224fe,,,,,,,,,2196,77,34,1,0,0,response1disk,,6,29,-3,1,0,0,rectangle,29,-3,1,0,0,29,-3,1,0,0,0,41,41,69,1,,,,,,,,
,,,,,,,,,,,,,FF,,,,,,,,0.801,,,,,,,,,,,,,,,,,,,,,,60fcc1523286b54d48b32cf5,610371705dfd0f61720e3910,2021-07-29_20h56.30.585,Simcolourproject_2stim_asymm_v5,2020.2.10,Win32,60,61025ae37ef11b136ea224fe,,,,,,,,,2996,-50,-82,1,0,0,response5disk,,3,0,5,1,0,0,rectangle,0,5,1,0,0,0,5,1,0,0,0,42,42,119,1,,,,,,,,
,,,,,,,,,,,,,FF,,,,,,,,1.5014,,,,,,,,,,,,,,,,,,,,,,60fcc1523286b54d48b32cf5,610371705dfd0f61720e3910,2021-07-29_20h56.30.585,Simcolourproject_2stim_asymm_v5,2020.2.10,Win32,60,61025ae37ef11b136ea224fe,,,,,,,,,3963,97,-64,1,0,0,response3disk,,5,26,-10,1,0,0,rectangle,26,-10,1,0,0,26,-10,1,0,0,0,43,43,6,1,,,,,,,,
,,,,,,,,,,,,,FF,,,,,,,,1.2332,,,,,,,,,,,,,,,,,,,,,,60fcc1523286b54d48b32cf5,610371705dfd0f61720e3910,2021-07-29_20h56.30.585,Simcolourproject_2stim_asymm_v5,2020.2.10,Win32,60,61025ae37ef11b136ea224fe,,,,,,,,,2177,49,-77,1,0,0,response3disk,,4,10,-8,1,0,0,rectangle,10,-8,1,0,0,10,-8,1,0,0,0,44,44,47,1,,,,,,,,
,,,,,,,,,,,,,FF,,,,,,,,1.8039,,,,,,,,,,,,,,,,,,,,,,60fcc1523286b54d48b32cf5,610371705dfd0f61720e3910,2021-07-29_20h56.30.585,Simcolourproject_2stim_asymm_v5,2020.2.10,Win32,60,61025ae37ef11b136ea224fe,,,,,,,,,2003,81,42,1,0,0,response1disk,,6,17,2,1,0,0,rectangle,17,2,1,0,0,17,2,1,0,0,0,45,45,150,1,,,,,,,,
,,,,,,,,,,,,,FF,,,,,,,,0.8662,,,,,,,,,,,,,,,,,,,,,,60fcc1523286b54d48b32cf5,610371705dfd0f61720e3910,2021-07-29_20h56.30.585,Simcolourproject_2stim_asymm_v5,2020.2.10,Win32,60,61025ae37ef11b136ea224fe,,,,,,,,,3523,44,36,1,0,0,response1disk,,6,5,-1,1,0,0,rectangle,5,-1,1,0,0,5,-1,1,0,0,0,46,46,127,1,,,,,,,,
,,,,,,,,,,,,,FF,,,,,,,,0.9827,,,,,,,,,,,,,,,,,,,,,,60fcc1523286b54d48b32cf5,610371705dfd0f61720e3910,2021-07-29_20h56.30.585,Simcolourproject_2stim_asymm_v5,2020.2.10,Win32,60,61025ae37ef11b136ea224fe,,,,,,,,,164,-100,-61,1,0,0,response5disk,,2,-36,-8,1,0,0,rectangle,83,-28,1,0,0,2,13,1,0,0,0,47,47,7,1,,response3disk_3,TRUE,5,5,"[101,300,18,49,48,200,252,227,319,99,272,293,322,268,122,161,302,128,187,93]",1.6526,rectangle
,,,,,,,,,,,,,FF,,,,,,,,1.1527,,,,,,,,,,,,,,,,,,,,,,60fcc1523286b54d48b32cf5,610371705dfd0f61720e3910,2021-07-29_20h56.30.585,Simcolourproject_2stim_asymm_v5,2020.2.10,Win32,60,61025ae37ef11b136ea224fe,,,,,,,,,980,55,-86,1,0,0,response3disk,,4,14,9,1,0,0,rectangle,89,46,1,0,0,7,-4,1,0,0,0,48,48,44,1,,response1disk_3,TRUE,6,6,"[101,300,18,49,48,200,252,227,319,99,272,293,322,268,122,161,302,128,187,93]",1.2346,rectangle
,,,,,,,,,,,,,FF,,,,,,,,1.0515,,,,,,,,,,,,,,,,,,,,,,60fcc1523286b54d48b32cf5,610371705dfd0f61720e3910,2021-07-29_20h56.30.585,Simcolourproject_2stim_asymm_v5,2020.2.10,Win32,60,61025ae37ef11b136ea224fe,,,,,,,,,4359,-55,-44,1,0,0,response5disk,,2,-2,6,1,0,0,rectangle,-2,6,1,0,0,-2,6,1,0,0,0,49,49,149,1,,,,,,,,
,,,,,,,,,,,,,FF,,,,,,,,1.6508,,,,,,,,,,,,,,,,,,,,,,60fcc1523286b54d48b32cf5,610371705dfd0f61720e3910,2021-07-29_20h56.30.585,Simcolourproject_2stim_asymm_v5,2020.2.10,Win32,60,61025ae37ef11b136ea224fe,,,,,,,,,1105,95,28,1,0,0,response1disk,,6,8,-11,1,0,0,rectangle,8,-11,1,0,0,8,-11,1,0,0,0,50,50,30,1,,,,,,,,
,,,,,,,,,,,,,FF,,,,,,,,1.0166,,,,,,,,,,,,,,,,,,,,,,60fcc1523286b54d48b32cf5,610371705dfd0f61720e3910,2021-07-29_20h56.30.585,Simcolourproject_2stim_asymm_v5,2020.2.10,Win32,60,61025ae37ef11b136ea224fe,,,,,,,,,1658,34,-74,1,0,0,response3disk,,4,20,11,1,0,0,rectangle,20,11,1,0,0,20,11,1,0,0,0,51,51,75,1,,,,,,,,
,,,,,,,,,,,,,FF,,,,,,,,0.9329,,,,,,,,,,,,,,,,,,,,,,60fcc1523286b54d48b32cf5,610371705dfd0f61720e3910,2021-07-29_20h56.30.585,Simcolourproject_2stim_asymm_v5,2020.2.10,Win32,60,61025ae37ef11b136ea224fe,,,,,,,,,272,79,43,1,0,0,response1disk,,6,23,8,1,0,0,rectangle,23,8,1,0,0,23,8,1,0,0,0,52,52,116,1,,,,,,,,
,,,,,,,,,,,,,FF,,,,,,,,0.9163,,,,,,,,,,,,,,,,,,,,,,60fcc1523286b54d48b32cf5,610371705dfd0f61720e3910,2021-07-29_20h56.30.585,Simcolourproject_2stim_asymm_v5,2020.2.10,Win32,60,61025ae37ef11b136ea224fe,,,,,,,,,640,-48,-90,1,0,0,response5disk,,3,3,8,1,0,0,rectangle,3,8,1,0,0,3,8,1,0,0,0,53,53,3,1,,,,,,,,
,,,,,,,,,,,,,FF,,,,,,,,3.6047,,,,,,,,,,,,,,,,,,,,,,60fcc1523286b54d48b32cf5,610371705dfd0f61720e3910,2021-07-29_20h56.30.585,Simcolourproject_2stim_asymm_v5,2020.2.10,Win32,60,61025ae37ef11b136ea224fe,,,,,,,,,153,92,-34,1,0,0,response3disk,,5,17,13,1,0,0,rectangle,17,13,1,0,0,17,13,1,0,0,0,54,54,46,1,,,,,,,,
,,,,,,,,,,,,,FF,,,,,,,,1.5525,,,,,,,,,,,,,,,,,,,,,,60fcc1523286b54d48b32cf5,610371705dfd0f61720e3910,2021-07-29_20h56.30.585,Simcolourproject_2stim_asymm_v5,2020.2.10,Win32,60,61025ae37ef11b136ea224fe,,,,,,,,,3019,72,25,1,0,0,response1disk,,6,16,-7,1,0,0,rectangle,16,-7,1,0,0,16,-7,1,0,0,0,55,55,93,1,,,,,,,,
,,,,,,,,,,,,,FF,,,,,,,,0.9353,,,,,,,,,,,,,,,,,,,,,,60fcc1523286b54d48b32cf5,610371705dfd0f61720e3910,2021-07-29_20h56.30.585,Simcolourproject_2stim_asymm_v5,2020.2.10,Win32,60,61025ae37ef11b136ea224fe,,,,,,,,,3669,-69,93,1,0,0,response7disk,,0,-2,-1,1,0,0,rectangle,-2,-1,1,0,0,-2,-1,1,0,0,0,56,56,43,1,,,,,,,,
,,,,,,,,,,,,,FF,,,,,,,,0.7333,,,,,,,,,,,,,,,,,,,,,,60fcc1523286b54d48b32cf5,610371705dfd0f61720e3910,2021-07-29_20h56.30.585,Simcolourproject_2stim_asymm_v5,2020.2.10,Win32,60,61025ae37ef11b136ea224fe,,,,,,,,,4095,-31,84,1,0,0,response7disk,,0,-4,10,1,0,0,rectangle,-4,10,1,0,0,-4,10,1,0,0,0,57,57,16,1,,,,,,,,
,,,,,,,,,,,,,FF,,,,,,,,0.8172,,,,,,,,,,,,,,,,,,,,,,60fcc1523286b54d48b32cf5,610371705dfd0f61720e3910,2021-07-29_20h56.30.585,Simcolourproject_2stim_asymm_v5,2020.2.10,Win32,60,61025ae37ef11b136ea224fe,,,,,,,,,2731,91,42,1,0,0,response1disk,,6,18,-4,1,0,0,rectangle,18,-4,1,0,0,18,-4,1,0,0,0,58,58,31,1,,,,,,,,
,,,,,,,,,,,,,FF,,,,,,,,0.8687,,,,,,,,,,,,,,,,,,,,,,60fcc1523286b54d48b32cf5,610371705dfd0f61720e3910,2021-07-29_20h56.30.585,Simcolourproject_2stim_asymm_v5,2020.2.10,Win32,60,61025ae37ef11b136ea224fe,,,,,,,,,3509,64,-49,1,0,0,response3disk,,5,-2,-3,1,0,0,rectangle,-2,-3,1,0,0,-2,-3,1,0,0,0,59,59,26,1,,,,,,,,
,,,,,,,,,,,,,FF,,,,,,,,0.9171,,,,,,,,,,,,,,,,,,,,,,60fcc1523286b54d48b32cf5,610371705dfd0f61720e3910,2021-07-29_20h56.30.585,Simcolourproject_2stim_asymm_v5,2020.2.10,Win32,60,61025ae37ef11b136ea224fe,,,,,,,,,2617,86,-42,1,0,0,response3disk,,5,-1,-6,1,0,0,rectangle,-1,-6,1,0,0,-1,-6,1,0,0,0,60,60,35,1,,,,,,,,
,,,,,,,,,,,,,FF,,,,,,,,1.4184,,,,,,,,,,,,,,,,,,,,,,60fcc1523286b54d48b32cf5,610371705dfd0f61720e3910,2021-07-29_20h56.30.585,Simcolourproject_2stim_asymm_v5,2020.2.10,Win32,60,61025ae37ef11b136ea224fe,,,,,,,,,2648,85,-22,1,0,0,response3disk,,5,13,14,1,0,0,rectangle,13,14,1,0,0,13,14,1,0,0,0,61,61,14,1,,,,,,,,
,,,,,,,,,,,,,FF,,,,,,,,0.8202,,,,,,,,,,,,,,,,,,,,,,60fcc1523286b54d48b32cf5,610371705dfd0f61720e3910,2021-07-29_20h56.30.585,Simcolourproject_2stim_asymm_v5,2020.2.10,Win32,60,61025ae37ef11b136ea224fe,,,,,,,,,1580,-38,-79,1,0,0,response5disk,,3,-17,1,1,0,0,rectangle,-17,1,1,0,0,-17,1,1,0,0,0,62,62,142,1,,,,,,,,
,,,,,,,,,,,,,FF,,,,,,,,1.5693,,,,,,,,,,,,,,,,,,,,,,60fcc1523286b54d48b32cf5,610371705dfd0f61720e3910,2021-07-29_20h56.30.585,Simcolourproject_2stim_asymm_v5,2020.2.10,Win32,60,61025ae37ef11b136ea224fe,,,,,,,,,21,-47,-77,1,0,0,response5disk,,3,-27,-2,1,0,0,rectangle,-27,-2,1,0,0,-27,-2,1,0,0,0,63,63,100,1,,,,,,,,
,,,,,,,,,,,,,FF,,,,,,,,0.8262,,,,,,,,,,,,,,,,,,,,,,60fcc1523286b54d48b32cf5,610371705dfd0f61720e3910,2021-07-29_20h56.30.585,Simcolourproject_2stim_asymm_v5,2020.2.10,Win32,60,61025ae37ef11b136ea224fe,,,,,,,,,2981,88,37,1,0,0,response1disk,,6,27,8,1,0,0,rectangle,27,8,1,0,0,27,8,1,0,0,0,64,64,129,1,,,,,,,,
,,,,,,,,,,,,,FF,,,,,,,,1.3533,,,,,,,,,,,,,,,,,,,,,,60fcc1523286b54d48b32cf5,610371705dfd0f61720e3910,2021-07-29_20h56.30.585,Simcolourproject_2stim_asymm_v5,2020.2.10,Win32,60,61025ae37ef11b136ea224fe,,,,,,,,,4349,55,63,1,0,0,response1disk,,7,0,9,1,0,0,rectangle,0,9,1,0,0,0,9,1,0,0,0,65,65,76,1,,,,,,,,
,,,,,,,,,,,,,FF,,,,,,,,1.4374,,,,,,,,,,,,,,,,,,,,,,60fcc1523286b54d48b32cf5,610371705dfd0f61720e3910,2021-07-29_20h56.30.585,Simcolourproject_2stim_asymm_v5,2020.2.10,Win32,60,61025ae37ef11b136ea224fe,,,,,,,,,672,31,66,1,0,0,response1disk,,7,-12,-7,1,0,0,rectangle,-12,-7,1,0,0,-12,-7,1,0,0,0,66,66,136,1,,,,,,,,
,,,,,,,,,,,,,FF,,,,,,,,2.3198,,,,,,,,,,,,,,,,,,,,,,60fcc1523286b54d48b32cf5,610371705dfd0f61720e3910,2021-07-29_20h56.30.585,Simcolourproject_2stim_asymm_v5,2020.2.10,Win32,60,61025ae37ef11b136ea224fe,,,,,,,,,4367,-76,-44,1,0,0,response5disk,,2,17,11,1,0,0,rectangle,17,11,1,0,0,17,11,1,0,0,0,67,67,66,1,,,,,,,,
,,,,,,,,,,,,,FF,,,,,,,,1.084,,,,,,,,,,,,,,,,,,,,,,60fcc1523286b54d48b32cf5,610371705dfd0f61720e3910,2021-07-29_20h56.30.585,Simcolourproject_2stim_asymm_v5,2020.2.10,Win32,60,61025ae37ef11b136ea224fe,,,,,,,,,1384,-59,-51,1,0,0,response5disk,,2,-9,-11,1,0,0,rectangle,-9,-11,1,0,0,-9,-11,1,0,0,0,68,68,144,1,,,,,,,,
,,,,,,,,,,,,,FF,,,,,,,,1.9352,,,,,,,,,,,,,,,,,,,,,,60fcc1523286b54d48b32cf5,610371705dfd0f61720e3910,2021-07-29_20h56.30.585,Simcolourproject_2stim_asymm_v5,2020.2.10,Win32,60,61025ae37ef11b136ea224fe,,,,,,,,,2126,91,-49,1,0,0,response3disk,,5,20,13,1,0,0,rectangle,20,13,1,0,0,20,13,1,0,0,0,69,69,85,1,,,,,,,,
,,,,,,,,,,,,,FF,,,,,,,,0.8173,,,,,,,,,,,,,,,,,,,,,,60fcc1523286b54d48b32cf5,610371705dfd0f61720e3910,2021-07-29_20h56.30.585,Simcolourproject_2stim_asymm_v5,2020.2.10,Win32,60,61025ae37ef11b136ea224fe,,,,,,,,,2520,61,27,1,0,0,response1disk,,6,-12,7,1,0,0,rectangle,-12,7,1,0,0,-12,7,1,0,0,0,70,70,54,1,,,,,,,,
,,,,,,,,,,,,,FF,,,,,,,,1.1574,,,,,,,,,,,,,,,,,,,,,,60fcc1523286b54d48b32cf5,610371705dfd0f61720e3910,2021-07-29_20h56.30.585,Simcolourproject_2stim_asymm_v5,2020.2.10,Win32,60,61025ae37ef11b136ea224fe,,,,,,,,,2180,-71,-58,1,0,0,response5disk,,2,-38,-2,1,0,0,rectangle,-38,-2,1,0,0,-38,-2,1,0,0,0,71,71,55,1,,,,,,,,
,,,,,,,,,,,,,FF,,,,,,,,1.6051,,,,,,,,,,,,,,,,,,,,,,60fcc1523286b54d48b32cf5,610371705dfd0f61720e3910,2021-07-29_20h56.30.585,Simcolourproject_2stim_asymm_v5,2020.2.10,Win32,60,61025ae37ef11b136ea224fe,,,,,,,,,4093,103,63,1,0,0,response1disk,,6,2,-10,1,0,0,rectangle,2,-10,1,0,0,2,-10,1,0,0,0,72,72,10,1,,,,,,,,
,,,,,,,,,,,,,FF,,,,,,,,0.8175,,,,,,,,,,,,,,,,,,,,,,60fcc1523286b54d48b32cf5,610371705dfd0f61720e3910,2021-07-29_20h56.30.585,Simcolourproject_2stim_asymm_v5,2020.2.10,Win32,60,61025ae37ef11b136ea224fe,,,,,,,,,774,60,61,1,0,0,response1disk,,7,0,13,1,0,0,rectangle,0,13,1,0,0,0,13,1,0,0,0,73,73,79,1,,,,,,,,
,,,,,,,,,,,,,FF,,,,,,,,0.8369,,,,,,,,,,,,,,,,,,,,,,60fcc1523286b54d48b32cf5,610371705dfd0f61720e3910,2021-07-29_20h56.30.585,Simcolourproject_2stim_asymm_v5,2020.2.10,Win32,60,61025ae37ef11b136ea224fe,,,,,,,,,756,37,-75,1,0,0,response3disk,,4,-17,3,1,0,0,rectangle,-17,3,1,0,0,-17,3,1,0,0,0,74,74,72,1,,,,,,,,
,,,,,,,,,,,,,FF,,,,,,,,1.3874,,,,,,,,,,,,,,,,,,,,,,60fcc1523286b54d48b32cf5,610371705dfd0f61720e3910,2021-07-29_20h56.30.585,Simcolourproject_2stim_asymm_v5,2020.2.10,Win32,60,61025ae37ef11b136ea224fe,,,,,,,,,396,22,-65,1,0,0,response3disk,,4,-17,-1,1,0,0,rectangle,-17,-1,1,0,0,-17,-1,1,0,0,0,75,75,82,1,,,,,,,,
,,,,,,,,,,,,,FF,,,,,,,,0.8,,,,,,,,,,,,,,,,,,,,,,60fcc1523286b54d48b32cf5,610371705dfd0f61720e3910,2021-07-29_20h56.30.585,Simcolourproject_2stim_asymm_v5,2020.2.10,Win32,60,61025ae37ef11b136ea224fe,,,,,,,,,3678,73,-38,1,0,0,response3disk,,5,20,6,1,0,0,rectangle,20,6,1,0,0,20,6,1,0,0,0,76,76,124,1,,,,,,,,
,,,,,,,,,,,,,FF,,,,,,,,1.1007,,,,,,,,,,,,,,,,,,,,,,60fcc1523286b54d48b32cf5,610371705dfd0f61720e3910,2021-07-29_20h56.30.585,Simcolourproject_2stim_asymm_v5,2020.2.10,Win32,60,61025ae37ef11b136ea224fe,,,,,,,,,4123,-67,-57,1,0,0,response5disk,,2,3,-2,1,0,0,rectangle,3,-2,1,0,0,3,-2,1,0,0,0,77,77,13,1,,,,,,,,
,,,,,,,,,,,,,FF,,,,,,,,0.6517,,,,,,,,,,,,,,,,,,,,,,60fcc1523286b54d48b32cf5,610371705dfd0f61720e3910,2021-07-29_20h56.30.585,Simcolourproject_2stim_asymm_v5,2020.2.10,Win32,60,61025ae37ef11b136ea224fe,,,,,,,,,391,70,38,1,0,0,response1disk,,6,-6,-2,1,0,0,rectangle,-6,-2,1,0,0,-6,-2,1,0,0,0,78,78,155,1,,,,,,,,
,,,,,,,,,,,,,FF,,,,,,,,1.3333,,,,,,,,,,,,,,,,,,,,,,60fcc1523286b54d48b32cf5,610371705dfd0f61720e3910,2021-07-29_20h56.30.585,Simcolourproject_2stim_asymm_v5,2020.2.10,Win32,60,61025ae37ef11b136ea224fe,,,,,,,,,1123,-78,-54,1,0,0,response5disk,,2,-5,-19,1,0,0,rectangle,-5,-19,1,0,0,-5,-19,1,0,0,0,79,79,147,1,,,,,,,,
,,,,,,,,,,,,,FF,,,,,,,,1.0209,,,,,,,,,,,,,,,,,,,,,,60fcc1523286b54d48b32cf5,610371705dfd0f61720e3910,2021-07-29_20h56.30.585,Simcolourproject_2stim_asymm_v5,2020.2.10,Win32,60,61025ae37ef11b136ea224fe,,,,,,,,,2047,-45,-56,1,0,0,response5disk,,3,-26,19,1,0,0,rectangle,-26,19,1,0,0,-26,19,1,0,0,0,80,80,122,1,,,,,,,,
,,,,,,,,,,,,,FF,,,,,,,,0.6557,,,,,,,,,,,,,,,,,,,,,,60fcc1523286b54d48b32cf5,610371705dfd0f61720e3910,2021-07-29_20h56.30.585,Simcolourproject_2stim_asymm_v5,2020.2.10,Win32,60,61025ae37ef11b136ea224fe,,,,,,,,,3192,-45,-51,1,0,0,response5disk,,3,-32,-3,1,0,0,rectangle,-32,-3,1,0,0,-32,-3,1,0,0,0,81,81,49,1,,,,,,,,
,,,,,,,,,,,,,FF,,,,,,,,1.0381,,,,,,,,,,,,,,,,,,,,,,60fcc1523286b54d48b32cf5,610371705dfd0f61720e3910,2021-07-29_20h56.30.585,Simcolourproject_2stim_asymm_v5,2020.2.10,Win32,60,61025ae37ef11b136ea224fe,,,,,,,,,2367,-77,-35,1,0,0,response5disk,,2,-21,8,1,0,0,rectangle,-21,8,1,0,0,-21,8,1,0,0,0,82,82,158,1,,,,,,,,
,,,,,,,,,,,,,FF,,,,,,,,0.9406,,,,,,,,,,,,,,,,,,,,,,60fcc1523286b54d48b32cf5,610371705dfd0f61720e3910,2021-07-29_20h56.30.585,Simcolourproject_2stim_asymm_v5,2020.2.10,Win32,60,61025ae37ef11b136ea224fe,,,,,,,,,3018,117,26,1,0,0,response1disk,,6,9,-21,1,0,0,rectangle,9,-21,1,0,0,9,-21,1,0,0,0,83,83,96,1,,,,,,,,
,,,,,,,,,,,,,FF,,,,,,,,1.4846,,,,,,,,,,,,,,,,,,,,,,60fcc1523286b54d48b32cf5,610371705dfd0f61720e3910,2021-07-29_20h56.30.585,Simcolourproject_2stim_asymm_v5,2020.2.10,Win32,60,61025ae37ef11b136ea224fe,,,,,,,,,3987,82,35,1,0,0,response1disk,,6,5,-9,1,0,0,rectangle,5,-9,1,0,0,5,-9,1,0,0,0,84,84,68,1,,,,,,,,
,,,,,,,,,,,,,FF,,,,,,,,0.9702,,,,,,,,,,,,,,,,,,,,,,60fcc1523286b54d48b32cf5,610371705dfd0f61720e3910,2021-07-29_20h56.30.585,Simcolourproject_2stim_asymm_v5,2020.2.10,Win32,60,61025ae37ef11b136ea224fe,,,,,,,,,1279,36,77,1,0,0,response1disk,,7,-4,18,1,0,0,rectangle,-4,18,1,0,0,-4,18,1,0,0,0,85,85,84,1,,,,,,,,
,,,,,,,,,,,,,FF,,,,,,,,0.9815,,,,,,,,,,,,,,,,,,,,,,60fcc1523286b54d48b32cf5,610371705dfd0f61720e3910,2021-07-29_20h56.30.585,Simcolourproject_2stim_asymm_v5,2020.2.10,Win32,60,61025ae37ef11b136ea224fe,,,,,,,,,2611,-70,-37,1,0,0,response5disk,,2,-25,11,1,0,0,rectangle,-25,11,1,0,0,-25,11,1,0,0,0,86,86,74,1,,,,,,,,
,,,,,,,,,,,,,FF,,,,,,,,1.9674,,,,,,,,,,,,,,,,,,,,,,60fcc1523286b54d48b32cf5,610371705dfd0f61720e3910,2021-07-29_20h56.30.585,Simcolourproject_2stim_asymm_v5,2020.2.10,Win32,60,61025ae37ef11b136ea224fe,,,,,,,,,3825,106,37,1,0,0,response1disk,,6,13,0,1,0,0,rectangle,13,0,1,0,0,13,0,1,0,0,0,87,87,15,1,,,,,,,,
,,,,,,,,,,,,,FF,,,,,,,,1.1537,,,,,,,,,,,,,,,,,,,,,,60fcc1523286b54d48b32cf5,610371705dfd0f61720e3910,2021-07-29_20h56.30.585,Simcolourproject_2stim_asymm_v5,2020.2.10,Win32,60,61025ae37ef11b136ea224fe,,,,,,,,,2988,-48,-84,1,0,0,response5disk,,3,-20,5,1,0,0,rectangle,-20,5,1,0,0,-20,5,1,0,0,0,88,88,106,1,,,,,,,,
,,,,,,,,,,,,,FF,,,,,,,,1.101,,,,,,,,,,,,,,,,,,,,,,60fcc1523286b54d48b32cf5,610371705dfd0f61720e3910,2021-07-29_20h56.30.585,Simcolourproject_2stim_asymm_v5,2020.2.10,Win32,60,61025ae37ef11b136ea224fe,,,,,,,,,738,-50,-109,1,0,0,response5disk,,3,-12,-13,1,0,0,rectangle,-12,-13,1,0,0,-12,-13,1,0,0,0,89,89,83,1,,,,,,,,
,,,,,,,,,,,,,FF,,,,,,,,1.1,,,,,,,,,,,,,,,,,,,,,,60fcc1523286b54d48b32cf5,610371705dfd0f61720e3910,2021-07-29_20h56.30.585,Simcolourproject_2stim_asymm_v5,2020.2.10,Win32,60,61025ae37ef11b136ea224fe,,,,,,,,,1763,36,-94,1,0,0,response3disk,,4,3,0,1,0,0,rectangle,3,0,1,0,0,3,0,1,0,0,0,90,90,0,1,,,,,,,,
,,,,,,,,,,,,,FF,,,,,,,,1.0521,,,,,,,,,,,,,,,,,,,,,,60fcc1523286b54d48b32cf5,610371705dfd0f61720e3910,2021-07-29_20h56.30.585,Simcolourproject_2stim_asymm_v5,2020.2.10,Win32,60,61025ae37ef11b136ea224fe,,,,,,,,,1459,-76,43,1,0,0,response7disk,,1,-36,3,1,0,0,rectangle,-36,3,1,0,0,-36,3,1,0,0,0,91,91,38,1,,,,,,,,
,,,,,,,,,,,,,FF,,,,,,,,0.7298,,,,,,,,,,,,,,,,,,,,,,60fcc1523286b54d48b32cf5,610371705dfd0f61720e3910,2021-07-29_20h56.30.585,Simcolourproject_2stim_asymm_v5,2020.2.10,Win32,60,61025ae37ef11b136ea224fe,,,,,,,,,965,55,45,1,0,0,response1disk,,6,21,9,1,0,0,rectangle,-101,54,1,0,0,12,-6,1,0,0,0,92,92,50,1,,response7disk_3,TRUE,1,1,"[101,300,18,49,48,200,252,227,319,99,272,293,322,268,122,161,302,128,187,93]",2.0218,rectangle
,,,,,,,,,,,,,FF,,,,,,,,0.951,,,,,,,,,,,,,,,,,,,,,,60fcc1523286b54d48b32cf5,610371705dfd0f61720e3910,2021-07-29_20h56.30.585,Simcolourproject_2stim_asymm_v5,2020.2.10,Win32,60,61025ae37ef11b136ea224fe,,,,,,,,,1713,90,-52,1,0,0,response3disk,,5,36,-5,1,0,0,rectangle,36,-5,1,0,0,36,-5,1,0,0,0,93,93,133,1,,,,,,,,
,,,,,,,,,,,,,FF,,,,,,,,1.1846,,,,,,,,,,,,,,,,,,,,,,60fcc1523286b54d48b32cf5,610371705dfd0f61720e3910,2021-07-29_20h56.30.585,Simcolourproject_2stim_asymm_v5,2020.2.10,Win32,60,61025ae37ef11b136ea224fe,,,,,,,,,247,133,35,1,0,0,response1disk,,6,15,2,1,0,0,rectangle,15,2,1,0,0,15,2,1,0,0,0,94,94,37,1,,,,,,,,
,,,,,,,,,,,,,FF,,,,,,,,1.3534,,,,,,,,,,,,,,,,,,,,,,60fcc1523286b54d48b32cf5,610371705dfd0f61720e3910,2021-07-29_20h56.30.585,Simcolourproject_2stim_asymm_v5,2020.2.10,Win32,60,61025ae37ef11b136ea224fe,,,,,,,,,2176,75,-96,1,0,0,response3disk,,4,5,4,1,0,0,rectangle,5,4,1,0,0,5,4,1,0,0,0,95,95,51,1,,,,,,,,
,,,,,,,,,,,,,FF,,,,,,,,1.1042,,,,,,,,,,,,,,,,,,,,,,60fcc1523286b54d48b32cf5,610371705dfd0f61720e3910,2021-07-29_20h56.30.585,Simcolourproject_2stim_asymm_v5,2020.2.10,Win32,60,61025ae37ef11b136ea224fe,,,,,,,,,3022,148,-31,1,0,0,response3disk,,5,21,11,1,0,0,rectangle,21,11,1,0,0,21,11,1,0,0,0,96,96,140,1,,,,,,,,
,,,,,,,,,,,,,FF,,,,,,,,0.9342,,,,,,,,,,,,,,,,,,,,,,60fcc1523286b54d48b32cf5,610371705dfd0f61720e3910,2021-07-29_20h56.30.585,Simcolourproject_2stim_asymm_v5,2020.2.10,Win32,60,61025ae37ef11b136ea224fe,,,,,,,,,638,-43,-101,1,0,0,response5disk,,3,25,-1,1,0,0,rectangle,25,-1,1,0,0,25,-1,1,0,0,0,97,97,41,1,,,,,,,,
,,,,,,,,,,,,,FF,,,,,,,,0.9872,,,,,,,,,,,,,,,,,,,,,,60fcc1523286b54d48b32cf5,610371705dfd0f61720e3910,2021-07-29_20h56.30.585,Simcolourproject_2stim_asymm_v5,2020.2.10,Win32,60,61025ae37ef11b136ea224fe,,,,,,,,,1444,-28,-53,1,0,0,response5disk,,3,12,5,1,0,0,rectangle,58,-106,1,0,0,4,11,1,0,0,0,98,98,8,1,,response3disk_3,TRUE,4,4,"[101,300,18,49,48,200,252,227,319,99,272,293,322,268,122,161,302,128,187,93]",1.5849,rectangle
,,,,,,,,,,,,,FF,,,,,,,,0.7503,,,,,,,,,,,,,,,,,,,,,,60fcc1523286b54d48b32cf5,610371705dfd0f61720e3910,2021-07-29_20h56.30.585,Simcolourproject_2stim_asymm_v5,2020.2.10,Win32,60,61025ae37ef11b136ea224fe,,,,,,,,,225,99,-37,1,0,0,response3disk,,5,26,6,1,0,0,rectangle,26,6,1,0,0,26,6,1,0,0,0,99,99,126,1,,,,,,,,
,,,,,,,,,,,,,FF,,,,,,,,0.8866,,,,,,,,,,,,,,,,,,,,,,60fcc1523286b54d48b32cf5,610371705dfd0f61720e3910,2021-07-29_20h56.30.585,Simcolourproject_2stim_asymm_v5,2020.2.10,Win32,60,61025ae37ef11b136ea224fe,,,,,,,,,532,-53,-89,1,0,0,response5disk,,3,-11,-8,1,0,0,rectangle,-80,44,1,0,0,16,2,1,0,0,0,100,100,34,1,,response7disk_3,TRUE,1,1,"[101,300,18,49,48,200,252,227,319,99,272,293,322,268,122,161,302,128,187,93]",1.1848,rectangle
,,,,,,,,,,,,,FF,,,,,,,,1.6694,,,,,,,,,,,,,,,,,,,,,,60fcc1523286b54d48b32cf5,610371705dfd0f61720e3910,2021-07-29_20h56.30.585,Simcolourproject_2stim_asymm_v5,2020.2.10,Win32,60,61025ae37ef11b136ea224fe,,,,,,,,,974,-83,-54,1,0,0,response5disk,,2,28,-3,1,0,0,rectangle,28,-3,1,0,0,28,-3,1,0,0,0,101,101,104,1,,,,,,,,
,,,,,,,,,,,,,FF,,,,,,,,0.8018,,,,,,,,,,,,,,,,,,,,,,60fcc1523286b54d48b32cf5,610371705dfd0f61720e3910,2021-07-29_20h56.30.585,Simcolourproject_2stim_asymm_v5,2020.2.10,Win32,60,61025ae37ef11b136ea224fe,,,,,,,,,2203,117,70,1,0,0,response1disk,,6,44,21,1,0,0,rectangle,44,21,1,0,0,44,21,1,0,0,0,102,102,146,1,,,,,,,,
,,,,,,,,,,,,,FF,,,,,,,,1.1197,,,,,,,,,,,,,,,,,,,,,,60fcc1523286b54d48b32cf5,610371705dfd0f61720e3910,2021-07-29_20h56.30.585,Simcolourproject_2stim_asymm_v5,2020.2.10,Win32,60,61025ae37ef11b136ea224fe,,,,,,,,,463,-37,-24,1,0,0,response5disk,,2,3,11,1,0,0,rectangle,3,11,1,0,0,3,11,1,0,0,0,103,103,89,1,,,,,,,,
,,,,,,,,,,,,,FF,,,,,,,,1.1761,,,,,,,,,,,,,,,,,,,,,,60fcc1523286b54d48b32cf5,610371705dfd0f61720e3910,2021-07-29_20h56.30.585,Simcolourproject_2stim_asymm_v5,2020.2.10,Win32,60,61025ae37ef11b136ea224fe,,,,,,,,,1712,-32,-77,1,0,0,response5disk,,3,3,21,1,0,0,rectangle,3,21,1,0,0,3,21,1,0,0,0,104,104,101,1,,,,,,,,
,,,,,,,,,,,,,FF,,,,,,,,1.5586,,,,,,,,,,,,,,,,,,,,,,60fcc1523286b54d48b32cf5,610371705dfd0f61720e3910,2021-07-29_20h56.30.585,Simcolourproject_2stim_asymm_v5,2020.2.10,Win32,60,61025ae37ef11b136ea224fe,,,,,,,,,2983,103,-37,1,0,0,response3disk,,5,31,-5,1,0,0,rectangle,31,-5,1,0,0,31,-5,1,0,0,0,105,105,57,1,,,,,,,,
,,,,,,,,,,,,,FF,,,,,,,,0.7657,,,,,,,,,,,,,,,,,,,,,,60fcc1523286b54d48b32cf5,610371705dfd0f61720e3910,2021-07-29_20h56.30.585,Simcolourproject_2stim_asymm_v5,2020.2.10,Win32,60,61025ae37ef11b136ea224fe,,,,,,,,,2743,110,42,1,0,0,response1disk,,6,-17,-11,1,0,0,rectangle,-17,-11,1,0,0,-17,-11,1,0,0,0,106,106,92,1,,,,,,,,
,,,,,,,,,,,,,FF,,,,,,,,2.6847,,,,,,,,,,,,,,,,,,,,,,60fcc1523286b54d48b32cf5,610371705dfd0f61720e3910,2021-07-29_20h56.30.585,Simcolourproject_2stim_asymm_v5,2020.2.10,Win32,60,61025ae37ef11b136ea224fe,,,,,,,,,2853,59,38,1,0,0,response1disk,,6,18,-21,1,0,0,rectangle,18,-21,1,0,0,18,-21,1,0,0,0,107,107,138,1,,,,,,,,
,,,,,,,,,,,,,FF,,,,,,,,1.1191,,,,,,,,,,,,,,,,,,,,,,60fcc1523286b54d48b32cf5,610371705dfd0f61720e3910,2021-07-29_20h56.30.585,Simcolourproject_2stim_asymm_v5,2020.2.10,Win32,60,61025ae37ef11b136ea224fe,,,,,,,,,1058,-46,-69,1,0,0,response5disk,,3,-43,-7,1,0,0,rectangle,-43,-7,1,0,0,-43,-7,1,0,0,0,108,108,60,1,,,,,,,,
,,,,,,,,,,,,,FF,,,,,,,,0.7666,,,,,,,,,,,,,,,,,,,,,,60fcc1523286b54d48b32cf5,610371705dfd0f61720e3910,2021-07-29_20h56.30.585,Simcolourproject_2stim_asymm_v5,2020.2.10,Win32,60,61025ae37ef11b136ea224fe,,,,,,,,,183,105,-41,1,0,0,response3disk,,5,31,4,1,0,0,rectangle,31,4,1,0,0,31,4,1,0,0,0,109,109,102,1,,,,,,,,
,,,,,,,,,,,,,FF,,,,,,,,1.4333,,,,,,,,,,,,,,,,,,,,,,60fcc1523286b54d48b32cf5,610371705dfd0f61720e3910,2021-07-29_20h56.30.585,Simcolourproject_2stim_asymm_v5,2020.2.10,Win32,60,61025ae37ef11b136ea224fe,,,,,,,,,2094,-84,43,1,0,0,response7disk,,1,-46,10,1,0,0,rectangle,-46,10,1,0,0,-46,10,1,0,0,0,110,110,28,1,,,,,,,,
,,,,,,,,,,,,,FF,,,,,,,,0.9564,,,,,,,,,,,,,,,,,,,,,,60fcc1523286b54d48b32cf5,610371705dfd0f61720e3910,2021-07-29_20h56.30.585,Simcolourproject_2stim_asymm_v5,2020.2.10,Win32,60,61025ae37ef11b136ea224fe,,,,,,,,,484,134,-49,1,0,0,response3disk,,5,-8,-5,1,0,0,rectangle,-8,-5,1,0,0,-8,-5,1,0,0,0,111,111,78,1,,,,,,,,
,,,,,,,,,,,,,FF,,,,,,,,1.4668,,,,,,,,,,,,,,,,,,,,,,60fcc1523286b54d48b32cf5,610371705dfd0f61720e3910,2021-07-29_20h56.30.585,Simcolourproject_2stim_asymm_v5,2020.2.10,Win32,60,61025ae37ef11b136ea224fe,,,,,,,,,2303,34,-86,1,0,0,response3disk,,4,-5,4,1,0,0,rectangle,-5,4,1,0,0,-5,4,1,0,0,0,112,112,152,1,,,,,,,,
,,,,,,,,,,,,,FF,,,,,,,,0.8518,,,,,,,,,,,,,,,,,,,,,,60fcc1523286b54d48b32cf5,610371705dfd0f61720e3910,2021-07-29_20h56.30.585,Simcolourproject_2stim_asymm_v5,2020.2.10,Win32,60,61025ae37ef11b136ea224fe,,,,,,,,,1757,-62,-80,1,0,0,response5disk,,3,4,6,1,0,0,rectangle,4,6,1,0,0,4,6,1,0,0,0,113,113,40,1,,,,,,,,
,,,,,,,,,,,,,FF,,,,,,,,1.2517,,,,,,,,,,,,,,,,,,,,,,60fcc1523286b54d48b32cf5,610371705dfd0f61720e3910,2021-07-29_20h56.30.585,Simcolourproject_2stim_asymm_v5,2020.2.10,Win32,60,61025ae37ef11b136ea224fe,,,,,,,,,105,-30,-77,1,0,0,response5disk,,3,-9,-2,1,0,0,rectangle,-9,-2,1,0,0,-9,-2,1,0,0,0,114,114,32,1,,,,,,,,
,,,,,,,,,,,,,FF,,,,,,,,1.0867,,,,,,,,,,,,,,,,,,,,,,60fcc1523286b54d48b32cf5,610371705dfd0f61720e3910,2021-07-29_20h56.30.585,Simcolourproject_2stim_asymm_v5,2020.2.10,Win32,60,61025ae37ef11b136ea224fe,,,,,,,,,3078,120,49,1,0,0,response1disk,,6,14,-7,1,0,0,rectangle,14,-7,1,0,0,14,-7,1,0,0,0,115,115,63,1,,,,,,,,
,,,,,,,,,,,,,FF,,,,,,,,1.4993,,,,,,,,,,,,,,,,,,,,,,60fcc1523286b54d48b32cf5,610371705dfd0f61720e3910,2021-07-29_20h56.30.585,Simcolourproject_2stim_asymm_v5,2020.2.10,Win32,60,61025ae37ef11b136ea224fe,,,,,,,,,3702,-59,27,1,0,0,response7disk,,1,14,-21,1,0,0,rectangle,14,-21,1,0,0,14,-21,1,0,0,0,116,116,25,1,,,,,,,,
,,,,,,,,,,,,,FF,,,,,,,,1.1365,,,,,,,,,,,,,,,,,,,,,,60fcc1523286b54d48b32cf5,610371705dfd0f61720e3910,2021-07-29_20h56.30.585,Simcolourproject_2stim_asymm_v5,2020.2.10,Win32,60,61025ae37ef11b136ea224fe,,,,,,,,,3079,65,83,1,0,0,response1disk,,7,20,17,1,0,0,rectangle,20,17,1,0,0,20,17,1,0,0,0,117,117,27,1,,,,,,,,
,,,,,,,,,,,,,FF,,,,,,,,0.8165,,,,,,,,,,,,,,,,,,,,,,60fcc1523286b54d48b32cf5,610371705dfd0f61720e3910,2021-07-29_20h56.30.585,Simcolourproject_2stim_asymm_v5,2020.2.10,Win32,60,61025ae37ef11b136ea224fe,,,,,,,,,176,27,95,1,0,0,response1disk,,7,-29,4,1,0,0,rectangle,-29,4,1,0,0,-29,4,1,0,0,0,118,118,4,1,,,,,,,,
,,,,,,,,,,,,,FF,,,,,,,,1.6196,,,,,,,,,,,,,,,,,,,,,,60fcc1523286b54d48b32cf5,610371705dfd0f61720e3910,2021-07-29_20h56.30.585,Simcolourproject_2stim_asymm_v5,2020.2.10,Win32,60,61025ae37ef11b136ea224fe,,,,,,,,,3756,82,-100,1,0,0,response3disk,,4,-3,2,1,0,0,rectangle,-3,2,1,0,0,-3,2,1,0,0,0,119,119,59,1,,,,,,,,
,,,,,,,,,,,,,FF,,,,,,,,0.9863,,,,,,,,,,,,,,,,,,,,,,60fcc1523286b54d48b32cf5,610371705dfd0f61720e3910,2021-07-29_20h56.30.585,Simcolourproject_2stim_asymm_v5,2020.2.10,Win32,60,61025ae37ef11b136ea224fe,,,,,,,,,3517,-137,-60,1,0,0,response5disk,,2,-17,7,1,0,0,rectangle,-17,7,1,0,0,-17,7,1,0,0,0,120,120,67,1,,,,,,,,
,,,,,,,,,,,,,FF,,,,,,,,1.1686,,,,,,,,,,,,,,,,,,,,,,60fcc1523286b54d48b32cf5,610371705dfd0f61720e3910,2021-07-29_20h56.30.585,Simcolourproject_2stim_asymm_v5,2020.2.10,Win32,60,61025ae37ef11b136ea224fe,,,,,,,,,3091,-96,-65,1,0,0,response5disk,,2,-31,-6,1,0,0,rectangle,116,-51,1,0,0,-19,-4,1,0,0,0,121,121,154,1,,response3disk_3,TRUE,5,5,"[101,300,18,49,48,200,252,227,319,99,272,293,322,268,122,161,302,128,187,93]",1.3834,rectangle
,,,,,,,,,,,,,FF,,,,,,,,1.2194,,,,,,,,,,,,,,,,,,,,,,60fcc1523286b54d48b32cf5,610371705dfd0f61720e3910,2021-07-29_20h56.30.585,Simcolourproject_2stim_asymm_v5,2020.2.10,Win32,60,61025ae37ef11b136ea224fe,,,,,,,,,3580,98,-24,1,0,0,response3disk,,5,-4,19,1,0,0,rectangle,-4,19,1,0,0,-4,19,1,0,0,0,122,122,5,1,,,,,,,,
,,,,,,,,,,,,,FF,,,,,,,,0.8287,,,,,,,,,,,,,,,,,,,,,,60fcc1523286b54d48b32cf5,610371705dfd0f61720e3910,2021-07-29_20h56.30.585,Simcolourproject_2stim_asymm_v5,2020.2.10,Win32,60,61025ae37ef11b136ea224fe,,,,,,,,,2507,39,84,1,0,0,response1disk,,7,-14,11,1,0,0,rectangle,-14,11,1,0,0,-14,11,1,0,0,0,123,123,56,1,,,,,,,,
,,,,,,,,,,,,,FF,,,,,,,,1.8702,,,,,,,,,,,,,,,,,,,,,,60fcc1523286b54d48b32cf5,610371705dfd0f61720e3910,2021-07-29_20h56.30.585,Simcolourproject_2stim_asymm_v5,2020.2.10,Win32,60,61025ae37ef11b136ea224fe,,,,,,,,,1033,31,-89,1,0,0,response3disk,,4,-34,2,1,0,0,rectangle,-34,2,1,0,0,-34,2,1,0,0,0,124,124,19,1,,,,,,,,
,,,,,,,,,,,,,FF,,,,,,,,1.1518,,,,,,,,,,,,,,,,,,,,,,60fcc1523286b54d48b32cf5,610371705dfd0f61720e3910,2021-07-29_20h56.30.585,Simcolourproject_2stim_asymm_v5,2020.2.10,Win32,60,61025ae37ef11b136ea224fe,,,,,,,,,2818,109,-42,1,0,0,response3disk,,5,5,3,1,0,0,rectangle,5,3,1,0,0,5,3,1,0,0,0,125,125,23,1,,,,,,,,
,,,,,,,,,,,,,FF,,,,,,,,1.4693,,,,,,,,,,,,,,,,,,,,,,60fcc1523286b54d48b32cf5,610371705dfd0f61720e3910,2021-07-29_20h56.30.585,Simcolourproject_2stim_asymm_v5,2020.2.10,Win32,60,61025ae37ef11b136ea224fe,,,,,,,,,2796,74,-30,1,0,0,response3disk,,5,1,11,1,0,0,rectangle,1,11,1,0,0,1,11,1,0,0,0,126,126,62,1,,,,,,,,
,,,,,,,,,,,,,FF,,,,,,,,1.884,,,,,,,,,,,,,,,,,,,,,,60fcc1523286b54d48b32cf5,610371705dfd0f61720e3910,2021-07-29_20h56.30.585,Simcolourproject_2stim_asymm_v5,2020.2.10,Win32,60,61025ae37ef11b136ea224fe,,,,,,,,,1774,128,53,1,0,0,response1disk,,6,1,20,1,0,0,rectangle,159,58,1,0,0,18,-6,1,0,0,0,127,127,22,1,,response1disk_3,TRUE,6,6,"[101,300,18,49,48,200,252,227,319,99,272,293,322,268,122,161,302,128,187,93]",1.2165,rectangle
,,,,,,,,,,,,,FF,,,,,,,,2.2181,,,,,,,,,,,,,,,,,,,,,,60fcc1523286b54d48b32cf5,610371705dfd0f61720e3910,2021-07-29_20h56.30.585,Simcolourproject_2stim_asymm_v5,2020.2.10,Win32,60,61025ae37ef11b136ea224fe,,,,,,,,,3960,77,-34,1,0,0,response3disk,,5,-31,3,1,0,0,rectangle,-31,3,1,0,0,-31,3,1,0,0,0,128,128,52,1,,,,,,,,
,,,,,,,,,,,,,FF,,,,,,,,0.95,,,,,,,,,,,,,,,,,,,,,,60fcc1523286b54d48b32cf5,610371705dfd0f61720e3910,2021-07-29_20h56.30.585,Simcolourproject_2stim_asymm_v5,2020.2.10,Win32,60,61025ae37ef11b136ea224fe,,,,,,,,,2827,-41,-71,1,0,0,response5disk,,3,-30,-5,1,0,0,rectangle,-30,-5,1,0,0,-30,-5,1,0,0,0,129,129,58,1,,,,,,,,
,,,,,,,,,,,,,FF,,,,,,,,1.0214,,,,,,,,,,,,,,,,,,,,,,60fcc1523286b54d48b32cf5,610371705dfd0f61720e3910,2021-07-29_20h56.30.585,Simcolourproject_2stim_asymm_v5,2020.2.10,Win32,60,61025ae37ef11b136ea224fe,,,,,,,,,3887,29,-80,1,0,0,response3disk,,4,-25,0,1,0,0,rectangle,-25,0,1,0,0,-25,0,1,0,0,0,130,130,151,1,,,,,,,,
,,,,,,,,,,,,,FF,,,,,,,,0.834,,,,,,,,,,,,,,,,,,,,,,60fcc1523286b54d48b32cf5,610371705dfd0f61720e3910,2021-07-29_20h56.30.585,Simcolourproject_2stim_asymm_v5,2020.2.10,Win32,60,61025ae37ef11b136ea224fe,,,,,,,,,1397,86,-43,1,0,0,response3disk,,5,26,3,1,0,0,rectangle,26,3,1,0,0,26,3,1,0,0,0,131,131,61,1,,,,,,,,
,,,,,,,,,,,,,FF,,,,,,,,2.518,,,,,,,,,,,,,,,,,,,,,,60fcc1523286b54d48b32cf5,610371705dfd0f61720e3910,2021-07-29_20h56.30.585,Simcolourproject_2stim_asymm_v5,2020.2.10,Win32,60,61025ae37ef11b136ea224fe,,,,,,,,,3128,82,74,1,0,0,response1disk,,6,-17,-4,1,0,0,rectangle,-17,-4,1,0,0,-17,-4,1,0,0,0,132,132,132,1,,,,,,,,
,,,,,,,,,,,,,FF,,,,,,,,1.35,,,,,,,,,,,,,,,,,,,,,,60fcc1523286b54d48b32cf5,610371705dfd0f61720e3910,2021-07-29_20h56.30.585,Simcolourproject_2stim_asymm_v5,2020.2.10,Win32,60,61025ae37ef11b136ea224fe,,,,,,,,,1840,25,84,1,0,0,response1disk,,7,0,11,1,0,0,rectangle,0,11,1,0,0,0,11,1,0,0,0,133,133,148,1,,,,,,,,
,,,,,,,,,,,,,FF,,,,,,,,1.8358,,,,,,,,,,,,,,,,,,,,,,60fcc1523286b54d48b32cf5,610371705dfd0f61720e3910,2021-07-29_20h56.30.585,Simcolourproject_2stim_asymm_v5,2020.2.10,Win32,60,61025ae37ef11b136ea224fe,,,,,,,,,1635,117,64,1,0,0,response1disk,,6,10,-6,1,0,0,rectangle,10,-6,1,0,0,10,-6,1,0,0,0,134,134,18,1,,,,,,,,
,,,,,,,,,,,,,FF,,,,,,,,4.1409,,,,,,,,,,,,,,,,,,,,,,60fcc1523286b54d48b32cf5,610371705dfd0f61720e3910,2021-07-29_20h56.30.585,Simcolourproject_2stim_asymm_v5,2020.2.10,Win32,60,61025ae37ef11b136ea224fe,,,,,,,,,2315,96,-49,1,0,0,response3disk,,5,46,10,1,0,0,rectangle,46,10,1,0,0,46,10,1,0,0,0,135,135,137,1,,,,,,,,
,,,,,,,,,,,,,FF,,,,,,,,0.9482,,,,,,,,,,,,,,,,,,,,,,60fcc1523286b54d48b32cf5,610371705dfd0f61720e3910,2021-07-29_20h56.30.585,Simcolourproject_2stim_asymm_v5,2020.2.10,Win32,60,61025ae37ef11b136ea224fe,,,,,,,,,1369,-90,-60,1,0,0,response5disk,,2,-17,11,1,0,0,rectangle,-17,11,1,0,0,-17,11,1,0,0,0,136,136,77,1,,,,,,,,
,,,,,,,,,,,,,FF,,,,,,,,1.57,,,,,,,,,,,,,,,,,,,,,,60fcc1523286b54d48b32cf5,610371705dfd0f61720e3910,2021-07-29_20h56.30.585,Simcolourproject_2stim_asymm_v5,2020.2.10,Win32,60,61025ae37ef11b136ea224fe,,,,,,,,,3209,-56,-104,1,0,0,response5disk,,3,-3,-1,1,0,0,rectangle,-3,-1,1,0,0,-3,-1,1,0,0,0,137,137,86,1,,,,,,,,
,,,,,,,,,,,,,FF,,,,,,,,0.8027,,,,,,,,,,,,,,,,,,,,,,60fcc1523286b54d48b32cf5,610371705dfd0f61720e3910,2021-07-29_20h56.30.585,Simcolourproject_2stim_asymm_v5,2020.2.10,Win32,60,61025ae37ef11b136ea224fe,,,,,,,,,4278,-36,-80,1,0,0,response5disk,,3,13,-3,1,0,0,rectangle,13,-3,1,0,0,13,-3,1,0,0,0,138,138,53,1,,,,,,,,
,,,,,,,,,,,,,FF,,,,,,,,0.8251,,,,,,,,,,,,,,,,,,,,,,60fcc1523286b54d48b32cf5,610371705dfd0f61720e3910,2021-07-29_20h56.30.585,Simcolourproject_2stim_asymm_v5,2020.2.10,Win32,60,61025ae37ef11b136ea224fe,,,,,,,,,3198,-124,-51,1,0,0,response5disk,,2,-19,12,1,0,0,rectangle,-19,12,1,0,0,-19,12,1,0,0,0,139,139,111,1,,,,,,,,
,,,,,,,,,,,,,FF,,,,,,,,0.984,,,,,,,,,,,,,,,,,,,,,,60fcc1523286b54d48b32cf5,610371705dfd0f61720e3910,2021-07-29_20h56.30.585,Simcolourproject_2stim_asymm_v5,2020.2.10,Win32,60,61025ae37ef11b136ea224fe,,,,,,,,,305,-58,-29,1,0,0,response5disk,,2,-25,-1,1,0,0,rectangle,-25,-1,1,0,0,-25,-1,1,0,0,0,140,140,81,1,,,,,,,,
,,,,,,,,,,,,,FF,,,,,,,,1.0541,,,,,,,,,,,,,,,,,,,,,,60fcc1523286b54d48b32cf5,610371705dfd0f61720e3910,2021-07-29_20h56.30.585,Simcolourproject_2stim_asymm_v5,2020.2.10,Win32,60,61025ae37ef11b136ea224fe,,,,,,,,,1692,68,-39,1,0,0,response3disk,,5,7,3,1,0,0,rectangle,7,3,1,0,0,7,3,1,0,0,0,141,141,1,1,,,,,,,,
,,,,,,,,,,,,,FF,,,,,,,,1.4019,,,,,,,,,,,,,,,,,,,,,,60fcc1523286b54d48b32cf5,610371705dfd0f61720e3910,2021-07-29_20h56.30.585,Simcolourproject_2stim_asymm_v5,2020.2.10,Win32,60,61025ae37ef11b136ea224fe,,,,,,,,,658,32,-75,1,0,0,response3disk,,4,-14,6,1,0,0,rectangle,-14,6,1,0,0,-14,6,1,0,0,0,142,142,141,1,,,,,,,,
,,,,,,,,,,,,,FF,,,,,,,,0.7392,,,,,,,,,,,,,,,,,,,,,,60fcc1523286b54d48b32cf5,610371705dfd0f61720e3910,2021-07-29_20h56.30.585,Simcolourproject_2stim_asymm_v5,2020.2.10,Win32,60,61025ae37ef11b136ea224fe,,,,,,,,,3332,-44,-98,1,0,0,response5disk,,3,-3,-1,1,0,0,rectangle,-3,-1,1,0,0,-3,-1,1,0,0,0,143,143,105,1,,,,,,,,
,,,,,,,,,,,,,FF,,,,,,,,0.7182,,,,,,,,,,,,,,,,,,,,,,60fcc1523286b54d48b32cf5,610371705dfd0f61720e3910,2021-07-29_20h56.30.585,Simcolourproject_2stim_asymm_v5,2020.2.10,Win32,60,61025ae37ef11b136ea224fe,,,,,,,,,193,-31,-57,1,0,0,response5disk,,3,-11,3,1,0,0,rectangle,-11,3,1,0,0,-11,3,1,0,0,0,144,144,118,1,,,,,,,,
,,,,,,,,,,,,,FF,,,,,,,,1.2012,,,,,,,,,,,,,,,,,,,,,,60fcc1523286b54d48b32cf5,610371705dfd0f61720e3910,2021-07-29_20h56.30.585,Simcolourproject_2stim_asymm_v5,2020.2.10,Win32,60,61025ae37ef11b136ea224fe,,,,,,,,,134,110,29,1,0,0,response1disk,,6,30,-3,1,0,0,rectangle,30,-3,1,0,0,30,-3,1,0,0,0,145,145,131,1,,,,,,,,
,,,,,,,,,,,,,FF,,,,,,,,1.1661,,,,,,,,,,,,,,,,,,,,,,60fcc1523286b54d48b32cf5,610371705dfd0f61720e3910,2021-07-29_20h56.30.585,Simcolourproject_2stim_asymm_v5,2020.2.10,Win32,60,61025ae37ef11b136ea224fe,,,,,,,,,4016,76,29,1,0,0,response1disk,,6,2,-5,1,0,0,rectangle,2,-5,1,0,0,2,-5,1,0,0,0,146,146,123,1,,,,,,,,
,,,,,,,,,,,,,FF,,,,,,,,1.4184,,,,,,,,,,,,,,,,,,,,,,60fcc1523286b54d48b32cf5,610371705dfd0f61720e3910,2021-07-29_20h56.30.585,Simcolourproject_2stim_asymm_v5,2020.2.10,Win32,60,61025ae37ef11b136ea224fe,,,,,,,,,1074,45,69,1,0,0,response1disk,,7,34,20,1,0,0,rectangle,34,20,1,0,0,34,20,1,0,0,0,147,147,108,1,,,,,,,,
,,,,,,,,,,,,,FF,,,,,,,,1.5168,,,,,,,,,,,,,,,,,,,,,,60fcc1523286b54d48b32cf5,610371705dfd0f61720e3910,2021-07-29_20h56.30.585,Simcolourproject_2stim_asymm_v5,2020.2.10,Win32,60,61025ae37ef11b136ea224fe,,,,,,,,,3655,35,74,1,0,0,response1disk,,7,-3,6,1,0,0,rectangle,-3,6,1,0,0,-3,6,1,0,0,0,148,148,159,1,,,,,,,,
,,,,,,,,,,,,,FF,,,,,,,,1.1685,,,,,,,,,,,,,,,,,,,,,,60fcc1523286b54d48b32cf5,610371705dfd0f61720e3910,2021-07-29_20h56.30.585,Simcolourproject_2stim_asymm_v5,2020.2.10,Win32,60,61025ae37ef11b136ea224fe,,,,,,,,,779,36,91,1,0,0,response1disk,,7,5,17,1,0,0,rectangle,5,17,1,0,0,5,17,1,0,0,0,149,149,120,1,,,,,,,,
,,,,,,,,,,,,,FF,,,,,,,,1.6183,,,,,,,,,,,,,,,,,,,,,,60fcc1523286b54d48b32cf5,610371705dfd0f61720e3910,2021-07-29_20h56.30.585,Simcolourproject_2stim_asymm_v5,2020.2.10,Win32,60,61025ae37ef11b136ea224fe,,,,,,,,,1869,36,88,1,0,0,response1disk,,7,-1,9,1,0,0,rectangle,-1,9,1,0,0,-1,9,1,0,0,0,150,150,109,1,,,,,,,,
,,,,,,,,,,,,,FF,,,,,,,,2.8859,,,,,,,,,,,,,,,,,,,,,,60fcc1523286b54d48b32cf5,610371705dfd0f61720e3910,2021-07-29_20h56.30.585,Simcolourproject_2stim_asymm_v5,2020.2.10,Win32,60,61025ae37ef11b136ea224fe,,,,,,,,,2079,65,36,1,0,0,response1disk,,6,-8,-3,1,0,0,rectangle,-8,-3,1,0,0,-8,-3,1,0,0,0,151,151,99,1,,,,,,,,
,,,,,,,,,,,,,FF,,,,,,,,0.8843,,,,,,,,,,,,,,,,,,,,,,60fcc1523286b54d48b32cf5,610371705dfd0f61720e3910,2021-07-29_20h56.30.585,Simcolourproject_2stim_asymm_v5,2020.2.10,Win32,60,61025ae37ef11b136ea224fe,,,,,,,,,3675,-39,-79,1,0,0,response5disk,,3,-12,1,1,0,0,rectangle,-12,1,1,0,0,-12,1,1,0,0,0,152,152,39,1,,,,,,,,
,,,,,,,,,,,,,FF,,,,,,,,1.22,,,,,,,,,,,,,,,,,,,,,,60fcc1523286b54d48b32cf5,610371705dfd0f61720e3910,2021-07-29_20h56.30.585,Simcolourproject_2stim_asymm_v5,2020.2.10,Win32,60,61025ae37ef11b136ea224fe,,,,,,,,,4305,-86,36,1,0,0,response7disk,,1,-19,-2,1,0,0,rectangle,-19,-2,1,0,0,-19,-2,1,0,0,0,153,153,112,1,,,,,,,,
,,,,,,,,,,,,,FF,,,,,,,,2.3375,,,,,,,,,,,,,,,,,,,,,,60fcc1523286b54d48b32cf5,610371705dfd0f61720e3910,2021-07-29_20h56.30.585,Simcolourproject_2stim_asymm_v5,2020.2.10,Win32,60,61025ae37ef11b136ea224fe,,,,,,,,,3104,87,-29,1,0,0,response3disk,,5,-3,4,1,0,0,rectangle,-3,4,1,0,0,-3,4,1,0,0,0,154,154,80,1,,,,,,,,
,,,,,,,,,,,,,FF,,,,,,,,1.815,,,,,,,,,,,,,,,,,,,,,,60fcc1523286b54d48b32cf5,610371705dfd0f61720e3910,2021-07-29_20h56.30.585,Simcolourproject_2stim_asymm_v5,2020.2.10,Win32,60,61025ae37ef11b136ea224fe,,,,,,,,,3211,-31,-100,1,0,0,response5disk,,3,3,6,1,0,0,rectangle,3,6,1,0,0,3,6,1,0,0,0,155,155,70,1,,,,,,,,
,,,,,,,,,,,,,FF,,,,,,,,0.9018,,,,,,,,,,,,,,,,,,,,,,60fcc1523286b54d48b32cf5,610371705dfd0f61720e3910,2021-07-29_20h56.30.585,Simcolourproject_2stim_asymm_v5,2020.2.10,Win32,60,61025ae37ef11b136ea224fe,,,,,,,,,3434,-45,76,1,0,0,response7disk,,0,-30,3,1,0,0,rectangle,-30,3,1,0,0,-30,3,1,0,0,0,156,156,33,1,,,,,,,,
,,,,,,,,,,,,,FF,,,,,,,,0.6363,,,,,,,,,,,,,,,,,,,,,,60fcc1523286b54d48b32cf5,610371705dfd0f61720e3910,2021-07-29_20h56.30.585,Simcolourproject_2stim_asymm_v5,2020.2.10,Win32,60,61025ae37ef11b136ea224fe,,,,,,,,,317,76,-39,1,0,0,response3disk,,5,34,10,1,0,0,rectangle,34,10,1,0,0,34,10,1,0,0,0,157,157,157,1,,,,,,,,
,,,,,,,,,,,,,FF,,,,,,,,0.9169,,,,,,,,,,,,,,,,,,,,,,60fcc1523286b54d48b32cf5,610371705dfd0f61720e3910,2021-07-29_20h56.30.585,Simcolourproject_2stim_asymm_v5,2020.2.10,Win32,60,61025ae37ef11b136ea224fe,,,,,,,,,244,99,36,1,0,0,response1disk,,6,13,-14,1,0,0,rectangle,13,-14,1,0,0,13,-14,1,0,0,0,158,158,121,1,,,,,,,,
,,,,,,,,,,,,,FF,,,,,,,,0.7825,,,,,,,,,,,,,,,,,,,,,,60fcc1523286b54d48b32cf5,610371705dfd0f61720e3910,2021-07-29_20h56.30.585,Simcolourproject_2stim_asymm_v5,2020.2.10,Win32,60,61025ae37ef11b136ea224fe,,,,,,,,,2101,-73,48,1,0,0,response7disk,,1,-29,-3,1,0,0,rectangle,-29,-3,1,0,0,-29,-3,1,0,0,0,159,159,97,1,,,,,,,,
,,,,,,,,,,,,,FF,,,,,,,,0.7,,,,,,,,,,,,,,,,,,,,,,60fcc1523286b54d48b32cf5,610371705dfd0f61720e3910,2021-07-29_20h56.30.585,Simcolourproject_2stim_asymm_v5,2020.2.10,Win32,60,61025ae37ef11b136ea224fe,,,,,,,,,417,90,-37,1,0,0,response3disk,,5,37,5,1,0,0,rectangle,-47,-74,1,0,0,-12,19,1,0,0,1,0,160,128,1,,response5disk_3,TRUE,3,3,"[101,300,18,49,48,200,252,227,319,99,272,293,322,268,122,161,302,128,187,93]",1.6387,rectangle
,,,,,,,,,,,,,FF,,,,,,,,0.856,,,,,,,,,,,,,,,,,,,,,,60fcc1523286b54d48b32cf5,610371705dfd0f61720e3910,2021-07-29_20h56.30.585,Simcolourproject_2stim_asymm_v5,2020.2.10,Win32,60,61025ae37ef11b136ea224fe,,,,,,,,,1775,55,-86,1,0,0,response3disk,,4,23,-7,1,0,0,rectangle,23,-7,1,0,0,23,-7,1,0,0,1,1,161,133,1,,,,,,,,
,,,,,,,,,,,,,FF,,,,,,,,0.7996,,,,,,,,,,,,,,,,,,,,,,60fcc1523286b54d48b32cf5,610371705dfd0f61720e3910,2021-07-29_20h56.30.585,Simcolourproject_2stim_asymm_v5,2020.2.10,Win32,60,61025ae37ef11b136ea224fe,,,,,,,,,4171,62,-93,1,0,0,response3disk,,4,-33,3,1,0,0,rectangle,-33,3,1,0,0,-33,3,1,0,0,1,2,162,54,1,,,,,,,,
,,,,,,,,,,,,,FF,,,,,,,,0.9514,,,,,,,,,,,,,,,,,,,,,,60fcc1523286b54d48b32cf5,610371705dfd0f61720e3910,2021-07-29_20h56.30.585,Simcolourproject_2stim_asymm_v5,2020.2.10,Win32,60,61025ae37ef11b136ea224fe,,,,,,,,,3138,-57,-69,1,0,0,response5disk,,3,-23,5,1,0,0,rectangle,-23,5,1,0,0,-23,5,1,0,0,1,3,163,28,1,,,,,,,,
,,,,,,,,,,,,,FF,,,,,,,,1.0346,,,,,,,,,,,,,,,,,,,,,,60fcc1523286b54d48b32cf5,610371705dfd0f61720e3910,2021-07-29_20h56.30.585,Simcolourproject_2stim_asymm_v5,2020.2.10,Win32,60,61025ae37ef11b136ea224fe,,,,,,,,,4362,-59,89,1,0,0,response7disk,,0,-38,14,1,0,0,rectangle,-38,14,1,0,0,-38,14,1,0,0,1,4,164,142,1,,,,,,,,
,,,,,,,,,,,,,FF,,,,,,,,0.8204,,,,,,,,,,,,,,,,,,,,,,60fcc1523286b54d48b32cf5,610371705dfd0f61720e3910,2021-07-29_20h56.30.585,Simcolourproject_2stim_asymm_v5,2020.2.10,Win32,60,61025ae37ef11b136ea224fe,,,,,,,,,1236,35,-90,1,0,0,response3disk,,4,-4,-6,1,0,0,rectangle,-4,-6,1,0,0,-4,-6,1,0,0,1,5,165,12,1,,,,,,,,
,,,,,,,,,,,,,FF,,,,,,,,0.7671,,,,,,,,,,,,,,,,,,,,,,60fcc1523286b54d48b32cf5,610371705dfd0f61720e3910,2021-07-29_20h56.30.585,Simcolourproject_2stim_asymm_v5,2020.2.10,Win32,60,61025ae37ef11b136ea224fe,,,,,,,,,3443,99,-53,1,0,0,response3disk,,5,24,8,1,0,0,rectangle,24,8,1,0,0,24,8,1,0,0,1,6,166,109,1,,,,,,,,
,,,,,,,,,,,,,FF,,,,,,,,0.9385,,,,,,,,,,,,,,,,,,,,,,60fcc1523286b54d48b32cf5,610371705dfd0f61720e3910,2021-07-29_20h56.30.585,Simcolourproject_2stim_asymm_v5,2020.2.10,Win32,60,61025ae37ef11b136ea224fe,,,,,,,,,1133,-44,-63,1,0,0,response5disk,,3,-13,0,1,0,0,rectangle,-13,0,1,0,0,-13,0,1,0,0,1,7,167,19,1,,,,,,,,
,,,,,,,,,,,,,FF,,,,,,,,0.6327,,,,,,,,,,,,,,,,,,,,,,60fcc1523286b54d48b32cf5,610371705dfd0f61720e3910,2021-07-29_20h56.30.585,Simcolourproject_2stim_asymm_v5,2020.2.10,Win32,60,61025ae37ef11b136ea224fe,,,,,,,,,3512,-36,-69,1,0,0,response5disk,,3,-36,-3,1,0,0,rectangle,-36,-3,1,0,0,-36,-3,1,0,0,1,8,168,47,1,,,,,,,,
,,,,,,,,,,,,,FF,,,,,,,,0.8698,,,,,,,,,,,,,,,,,,,,,,60fcc1523286b54d48b32cf5,610371705dfd0f61720e3910,2021-07-29_20h56.30.585,Simcolourproject_2stim_asymm_v5,2020.2.10,Win32,60,61025ae37ef11b136ea224fe,,,,,,,,,593,105,-47,1,0,0,response3disk,,5,29,9,1,0,0,rectangle,29,9,1,0,0,29,9,1,0,0,1,9,169,43,1,,,,,,,,
,,,,,,,,,,,,,FF,,,,,,,,1.2501,,,,,,,,,,,,,,,,,,,,,,60fcc1523286b54d48b32cf5,610371705dfd0f61720e3910,2021-07-29_20h56.30.585,Simcolourproject_2stim_asymm_v5,2020.2.10,Win32,60,61025ae37ef11b136ea224fe,,,,,,,,,513,80,-44,1,0,0,response3disk,,5,5,-11,1,0,0,rectangle,5,-11,1,0,0,5,-11,1,0,0,1,10,170,70,1,,,,,,,,
,,,,,,,,,,,,,FF,,,,,,,,0.7313,,,,,,,,,,,,,,,,,,,,,,60fcc1523286b54d48b32cf5,610371705dfd0f61720e3910,2021-07-29_20h56.30.585,Simcolourproject_2stim_asymm_v5,2020.2.10,Win32,60,61025ae37ef11b136ea224fe,,,,,,,,,2804,62,32,1,0,0,response1disk,,6,14,4,1,0,0,rectangle,14,4,1,0,0,14,4,1,0,0,1,11,171,144,1,,,,,,,,
,,,,,,,,,,,,,FF,,,,,,,,1.1324,,,,,,,,,,,,,,,,,,,,,,60fcc1523286b54d48b32cf5,610371705dfd0f61720e3910,2021-07-29_20h56.30.585,Simcolourproject_2stim_asymm_v5,2020.2.10,Win32,60,61025ae37ef11b136ea224fe,,,,,,,,,2836,-52,-70,1,0,0,response5disk,,3,-34,-14,1,0,0,rectangle,-34,-14,1,0,0,-34,-14,1,0,0,1,12,172,71,1,,,,,,,,
,,,,,,,,,,,,,FF,,,,,,,,0.9192,,,,,,,,,,,,,,,,,,,,,,60fcc1523286b54d48b32cf5,610371705dfd0f61720e3910,2021-07-29_20h56.30.585,Simcolourproject_2stim_asymm_v5,2020.2.10,Win32,60,61025ae37ef11b136ea224fe,,,,,,,,,125,31,-84,1,0,0,response3disk,,4,-4,4,1,0,0,rectangle,-4,4,1,0,0,-4,4,1,0,0,1,13,173,115,1,,,,,,,,
,,,,,,,,,,,,,FF,,,,,,,,1.0504,,,,,,,,,,,,,,,,,,,,,,60fcc1523286b54d48b32cf5,610371705dfd0f61720e3910,2021-07-29_20h56.30.585,Simcolourproject_2stim_asymm_v5,2020.2.10,Win32,60,61025ae37ef11b136ea224fe,,,,,,,,,4088,-61,-101,1,0,0,response5disk,,3,-19,-15,1,0,0,rectangle,-19,-15,1,0,0,-19,-15,1,0,0,1,14,174,158,1,,,,,,,,
,,,,,,,,,,,,,FF,,,,,,,,1.9074,,,,,,,,,,,,,,,,,,,,,,60fcc1523286b54d48b32cf5,610371705dfd0f61720e3910,2021-07-29_20h56.30.585,Simcolourproject_2stim_asymm_v5,2020.2.10,Win32,60,61025ae37ef11b136ea224fe,,,,,,,,,2174,-95,-33,1,0,0,response5disk,,2,-29,-8,1,0,0,rectangle,-29,-8,1,0,0,-29,-8,1,0,0,1,15,175,99,1,,,,,,,,
,,,,,,,,,,,,,FF,,,,,,,,1.2196,,,,,,,,,,,,,,,,,,,,,,60fcc1523286b54d48b32cf5,610371705dfd0f61720e3910,2021-07-29_20h56.30.585,Simcolourproject_2stim_asymm_v5,2020.2.10,Win32,60,61025ae37ef11b136ea224fe,,,,,,,,,4320,91,-58,1,0,0,response3disk,,5,-9,-6,1,0,0,rectangle,-9,-6,1,0,0,-9,-6,1,0,0,1,16,176,3,1,,,,,,,,
,,,,,,,,,,,,,FF,,,,,,,,1.3843,,,,,,,,,,,,,,,,,,,,,,60fcc1523286b54d48b32cf5,610371705dfd0f61720e3910,2021-07-29_20h56.30.585,Simcolourproject_2stim_asymm_v5,2020.2.10,Win32,60,61025ae37ef11b136ea224fe,,,,,,,,,2844,67,37,1,0,0,response1disk,,6,25,4,1,0,0,rectangle,25,4,1,0,0,25,4,1,0,0,1,17,177,153,1,,,,,,,,
,,,,,,,,,,,,,FF,,,,,,,,1.119,,,,,,,,,,,,,,,,,,,,,,60fcc1523286b54d48b32cf5,610371705dfd0f61720e3910,2021-07-29_20h56.30.585,Simcolourproject_2stim_asymm_v5,2020.2.10,Win32,60,61025ae37ef11b136ea224fe,,,,,,,,,97,-42,-127,1,0,0,response5disk,,3,8,0,1,0,0,rectangle,8,0,1,0,0,8,0,1,0,0,1,18,178,138,1,,,,,,,,
,,,,,,,,,,,,,FF,,,,,,,,2.0874,,,,,,,,,,,,,,,,,,,,,,60fcc1523286b54d48b32cf5,610371705dfd0f61720e3910,2021-07-29_20h56.30.585,Simcolourproject_2stim_asymm_v5,2020.2.10,Win32,60,61025ae37ef11b136ea224fe,,,,,,,,,245,51,-74,1,0,0,response3disk,,4,-15,-12,1,0,0,rectangle,-15,-12,1,0,0,-15,-12,1,0,0,1,19,179,7,1,,,,,,,,
,,,,,,,,,,,,,FF,,,,,,,,0.9661,,,,,,,,,,,,,,,,,,,,,,60fcc1523286b54d48b32cf5,610371705dfd0f61720e3910,2021-07-29_20h56.30.585,Simcolourproject_2stim_asymm_v5,2020.2.10,Win32,60,61025ae37ef11b136ea224fe,,,,,,,,,1072,-69,-40,1,0,0,response5disk,,2,8,-11,1,0,0,rectangle,8,-11,1,0,0,8,-11,1,0,0,1,20,180,93,1,,,,,,,,
,,,,,,,,,,,,,FF,,,,,,,,0.7707,,,,,,,,,,,,,,,,,,,,,,60fcc1523286b54d48b32cf5,610371705dfd0f61720e3910,2021-07-29_20h56.30.585,Simcolourproject_2stim_asymm_v5,2020.2.10,Win32,60,61025ae37ef11b136ea224fe,,,,,,,,,635,-37,-83,1,0,0,response5disk,,3,-26,-12,1,0,0,rectangle,-26,-12,1,0,0,-26,-12,1,0,0,1,21,181,17,1,,,,,,,,
,,,,,,,,,,,,,FF,,,,,,,,0.7817,,,,,,,,,,,,,,,,,,,,,,60fcc1523286b54d48b32cf5,610371705dfd0f61720e3910,2021-07-29_20h56.30.585,Simcolourproject_2stim_asymm_v5,2020.2.10,Win32,60,61025ae37ef11b136ea224fe,,,,,,,,,367,-82,-43,1,0,0,response5disk,,2,-18,-6,1,0,0,rectangle,-18,-6,1,0,0,-18,-6,1,0,0,1,22,182,114,1,,,,,,,,
,,,,,,,,,,,,,FF,,,,,,,,0.6007,,,,,,,,,,,,,,,,,,,,,,60fcc1523286b54d48b32cf5,610371705dfd0f61720e3910,2021-07-29_20h56.30.585,Simcolourproject_2stim_asymm_v5,2020.2.10,Win32,60,61025ae37ef11b136ea224fe,,,,,,,,,3812,-50,-88,1,0,0,response5disk,,3,-27,-2,1,0,0,rectangle,-27,-2,1,0,0,-27,-2,1,0,0,1,23,183,11,1,,,,,,,,
,,,,,,,,,,,,,FF,,,,,,,,0.9189,,,,,,,,,,,,,,,,,,,,,,60fcc1523286b54d48b32cf5,610371705dfd0f61720e3910,2021-07-29_20h56.30.585,Simcolourproject_2stim_asymm_v5,2020.2.10,Win32,60,61025ae37ef11b136ea224fe,,,,,,,,,2675,60,-61,1,0,0,response3disk,,4,-26,-8,1,0,0,rectangle,-26,-8,1,0,0,-26,-8,1,0,0,1,24,184,4,1,,,,,,,,
,,,,,,,,,,,,,FF,,,,,,,,1.1499,,,,,,,,,,,,,,,,,,,,,,60fcc1523286b54d48b32cf5,610371705dfd0f61720e3910,2021-07-29_20h56.30.585,Simcolourproject_2stim_asymm_v5,2020.2.10,Win32,60,61025ae37ef11b136ea224fe,,,,,,,,,3311,85,42,1,0,0,response1disk,,6,23,1,1,0,0,rectangle,23,1,1,0,0,23,1,1,0,0,1,25,185,14,1,,,,,,,,
,,,,,,,,,,,,,FF,,,,,,,,0.7984,,,,,,,,,,,,,,,,,,,,,,60fcc1523286b54d48b32cf5,610371705dfd0f61720e3910,2021-07-29_20h56.30.585,Simcolourproject_2stim_asymm_v5,2020.2.10,Win32,60,61025ae37ef11b136ea224fe,,,,,,,,,759,91,51,1,0,0,response1disk,,6,21,21,1,0,0,rectangle,-33,94,1,0,0,10,1,1,0,0,1,26,186,143,1,,response7disk_3,TRUE,0,0,"[101,300,18,49,48,200,252,227,319,99,272,293,322,268,122,161,302,128,187,93]",1.4855,rectangle
,,,,,,,,,,,,,FF,,,,,,,,0.9027,,,,,,,,,,,,,,,,,,,,,,60fcc1523286b54d48b32cf5,610371705dfd0f61720e3910,2021-07-29_20h56.30.585,Simcolourproject_2stim_asymm_v5,2020.2.10,Win32,60,61025ae37ef11b136ea224fe,,,,,,,,,354,-29,-85,1,0,0,response5disk,,3,41,0,1,0,0,rectangle,41,0,1,0,0,41,0,1,0,0,1,27,187,22,1,,,,,,,,
,,,,,,,,,,,,,FF,,,,,,,,0.8834,,,,,,,,,,,,,,,,,,,,,,60fcc1523286b54d48b32cf5,610371705dfd0f61720e3910,2021-07-29_20h56.30.585,Simcolourproject_2stim_asymm_v5,2020.2.10,Win32,60,61025ae37ef11b136ea224fe,,,,,,,,,1553,92,-55,1,0,0,response3disk,,5,7,-19,1,0,0,rectangle,7,-19,1,0,0,7,-19,1,0,0,1,28,188,52,1,,,,,,,,
,,,,,,,,,,,,,FF,,,,,,,,0.8494,,,,,,,,,,,,,,,,,,,,,,60fcc1523286b54d48b32cf5,610371705dfd0f61720e3910,2021-07-29_20h56.30.585,Simcolourproject_2stim_asymm_v5,2020.2.10,Win32,60,61025ae37ef11b136ea224fe,,,,,,,,,3238,36,-76,1,0,0,response3disk,,4,-6,-3,1,0,0,rectangle,-6,-3,1,0,0,-6,-3,1,0,0,1,29,189,151,1,,,,,,,,
,,,,,,,,,,,,,FF,,,,,,,,0.6532,,,,,,,,,,,,,,,,,,,,,,60fcc1523286b54d48b32cf5,610371705dfd0f61720e3910,2021-07-29_20h56.30.585,Simcolourproject_2stim_asymm_v5,2020.2.10,Win32,60,61025ae37ef11b136ea224fe,,,,,,,,,4226,40,-81,1,0,0,response3disk,,4,-16,13,1,0,0,rectangle,-16,13,1,0,0,-16,13,1,0,0,1,30,190,80,1,,,,,,,,
,,,,,,,,,,,,,FF,,,,,,,,1.4004,,,,,,,,,,,,,,,,,,,,,,60fcc1523286b54d48b32cf5,610371705dfd0f61720e3910,2021-07-29_20h56.30.585,Simcolourproject_2stim_asymm_v5,2020.2.10,Win32,60,61025ae37ef11b136ea224fe,,,,,,,,,1627,92,-48,1,0,0,response3disk,,5,11,5,1,0,0,rectangle,11,5,1,0,0,11,5,1,0,0,1,31,191,21,1,,,,,,,,
,,,,,,,,,,,,,FF,,,,,,,,1.0845,,,,,,,,,,,,,,,,,,,,,,60fcc1523286b54d48b32cf5,610371705dfd0f61720e3910,2021-07-29_20h56.30.585,Simcolourproject_2stim_asymm_v5,2020.2.10,Win32,60,61025ae37ef11b136ea224fe,,,,,,,,,1767,34,-83,1,0,0,response3disk,,4,12,-20,1,0,0,rectangle,12,-20,1,0,0,12,-20,1,0,0,1,32,192,123,1,,,,,,,,
,,,,,,,,,,,,,FF,,,,,,,,0.719,,,,,,,,,,,,,,,,,,,,,,60fcc1523286b54d48b32cf5,610371705dfd0f61720e3910,2021-07-29_20h56.30.585,Simcolourproject_2stim_asymm_v5,2020.2.10,Win32,60,61025ae37ef11b136ea224fe,,,,,,,,,3095,-39,-88,1,0,0,response5disk,,3,-20,-20,1,0,0,rectangle,-20,-20,1,0,0,-20,-20,1,0,0,1,33,193,36,1,,,,,,,,
,,,,,,,,,,,,,FF,,,,,,,,0.7131,,,,,,,,,,,,,,,,,,,,,,60fcc1523286b54d48b32cf5,610371705dfd0f61720e3910,2021-07-29_20h56.30.585,Simcolourproject_2stim_asymm_v5,2020.2.10,Win32,60,61025ae37ef11b136ea224fe,,,,,,,,,2326,113,-51,1,0,0,response3disk,,5,32,4,1,0,0,rectangle,32,4,1,0,0,32,4,1,0,0,1,34,194,113,1,,,,,,,,
,,,,,,,,,,,,,FF,,,,,,,,0.7495,,,,,,,,,,,,,,,,,,,,,,60fcc1523286b54d48b32cf5,610371705dfd0f61720e3910,2021-07-29_20h56.30.585,Simcolourproject_2stim_asymm_v5,2020.2.10,Win32,60,61025ae37ef11b136ea224fe,,,,,,,,,1371,-41,-90,1,0,0,response5disk,,3,-13,1,1,0,0,rectangle,-13,1,1,0,0,-13,1,1,0,0,1,35,195,74,1,,,,,,,,
,,,,,,,,,,,,,FF,,,,,,,,0.6843,,,,,,,,,,,,,,,,,,,,,,60fcc1523286b54d48b32cf5,610371705dfd0f61720e3910,2021-07-29_20h56.30.585,Simcolourproject_2stim_asymm_v5,2020.2.10,Win32,60,61025ae37ef11b136ea224fe,,,,,,,,,4008,85,-38,1,0,0,response3disk,,5,32,7,1,0,0,rectangle,32,7,1,0,0,32,7,1,0,0,1,36,196,92,1,,,,,,,,
,,,,,,,,,,,,,FF,,,,,,,,1.1338,,,,,,,,,,,,,,,,,,,,,,60fcc1523286b54d48b32cf5,610371705dfd0f61720e3910,2021-07-29_20h56.30.585,Simcolourproject_2stim_asymm_v5,2020.2.10,Win32,60,61025ae37ef11b136ea224fe,,,,,,,,,2346,100,37,1,0,0,response1disk,,6,-4,7,1,0,0,rectangle,-4,7,1,0,0,-4,7,1,0,0,1,37,197,62,1,,,,,,,,
,,,,,,,,,,,,,FF,,,,,,,,0.7861,,,,,,,,,,,,,,,,,,,,,,60fcc1523286b54d48b32cf5,610371705dfd0f61720e3910,2021-07-29_20h56.30.585,Simcolourproject_2stim_asymm_v5,2020.2.10,Win32,60,61025ae37ef11b136ea224fe,,,,,,,,,2021,93,67,1,0,0,response1disk,,6,16,14,1,0,0,rectangle,16,14,1,0,0,16,14,1,0,0,1,38,198,96,1,,,,,,,,
,,,,,,,,,,,,,FF,,,,,,,,0.6371,,,,,,,,,,,,,,,,,,,,,,60fcc1523286b54d48b32cf5,610371705dfd0f61720e3910,2021-07-29_20h56.30.585,Simcolourproject_2stim_asymm_v5,2020.2.10,Win32,60,61025ae37ef11b136ea224fe,,,,,,,,,1516,79,37,1,0,0,response1disk,,6,-3,12,1,0,0,rectangle,-81,-49,1,0,0,23,-1,1,0,0,1,39,199,105,1,,response5disk_3,TRUE,2,2,"[101,300,18,49,48,200,252,227,319,99,272,293,322,268,122,161,302,128,187,93]",1.9516,rectangle
,,,,,,,,,,,,,FF,,,,,,,,1.0696,,,,,,,,,,,,,,,,,,,,,,60fcc1523286b54d48b32cf5,610371705dfd0f61720e3910,2021-07-29_20h56.30.585,Simcolourproject_2stim_asymm_v5,2020.2.10,Win32,60,61025ae37ef11b136ea224fe,,,,,,,,,1234,51,-59,1,0,0,response3disk,,4,33,-4,1,0,0,rectangle,33,-4,1,0,0,33,-4,1,0,0,1,40,200,100,1,,,,,,,,
,,,,,,,,,,,,,FF,,,,,,,,1.4344,,,,,,,,,,,,,,,,,,,,,,60fcc1523286b54d48b32cf5,610371705dfd0f61720e3910,2021-07-29_20h56.30.585,Simcolourproject_2stim_asymm_v5,2020.2.10,Win32,60,61025ae37ef11b136ea224fe,,,,,,,,,2196,86,-44,1,0,0,response3disk,,5,16,-8,1,0,0,rectangle,16,-8,1,0,0,16,-8,1,0,0,1,41,201,49,1,,,,,,,,
,,,,,,,,,,,,,FF,,,,,,,,0.6349,,,,,,,,,,,,,,,,,,,,,,60fcc1523286b54d48b32cf5,610371705dfd0f61720e3910,2021-07-29_20h56.30.585,Simcolourproject_2stim_asymm_v5,2020.2.10,Win32,60,61025ae37ef11b136ea224fe,,,,,,,,,2996,-42,-79,1,0,0,response5disk,,3,-32,-7,1,0,0,rectangle,-32,-7,1,0,0,-32,-7,1,0,0,1,42,202,73,1,,,,,,,,
,,,,,,,,,,,,,FF,,,,,,,,0.9168,,,,,,,,,,,,,,,,,,,,,,60fcc1523286b54d48b32cf5,610371705dfd0f61720e3910,2021-07-29_20h56.30.585,Simcolourproject_2stim_asymm_v5,2020.2.10,Win32,60,61025ae37ef11b136ea224fe,,,,,,,,,3963,-30,-51,1,0,0,response5disk,,3,-28,-17,1,0,0,rectangle,-28,-17,1,0,0,-28,-17,1,0,0,1,43,203,112,1,,,,,,,,
,,,,,,,,,,,,,FF,,,,,,,,0.8414,,,,,,,,,,,,,,,,,,,,,,60fcc1523286b54d48b32cf5,610371705dfd0f61720e3910,2021-07-29_20h56.30.585,Simcolourproject_2stim_asymm_v5,2020.2.10,Win32,60,61025ae37ef11b136ea224fe,,,,,,,,,2177,-41,-61,1,0,0,response5disk,,3,-23,-9,1,0,0,rectangle,-23,-9,1,0,0,-23,-9,1,0,0,1,44,204,120,1,,,,,,,,
,,,,,,,,,,,,,FF,,,,,,,,1.0846,,,,,,,,,,,,,,,,,,,,,,60fcc1523286b54d48b32cf5,610371705dfd0f61720e3910,2021-07-29_20h56.30.585,Simcolourproject_2stim_asymm_v5,2020.2.10,Win32,60,61025ae37ef11b136ea224fe,,,,,,,,,2003,107,29,1,0,0,response1disk,,6,42,-10,1,0,0,rectangle,42,-10,1,0,0,42,-10,1,0,0,1,45,205,53,1,,,,,,,,
,,,,,,,,,,,,,FF,,,,,,,,0.6663,,,,,,,,,,,,,,,,,,,,,,60fcc1523286b54d48b32cf5,610371705dfd0f61720e3910,2021-07-29_20h56.30.585,Simcolourproject_2stim_asymm_v5,2020.2.10,Win32,60,61025ae37ef11b136ea224fe,,,,,,,,,3523,47,33,1,0,0,response1disk,,6,12,13,1,0,0,rectangle,12,13,1,0,0,12,13,1,0,0,1,46,206,116,1,,,,,,,,
,,,,,,,,,,,,,FF,,,,,,,,0.9504,,,,,,,,,,,,,,,,,,,,,,60fcc1523286b54d48b32cf5,610371705dfd0f61720e3910,2021-07-29_20h56.30.585,Simcolourproject_2stim_asymm_v5,2020.2.10,Win32,60,61025ae37ef11b136ea224fe,,,,,,,,,164,-45,-78,1,0,0,response5disk,,3,5,-10,1,0,0,rectangle,5,-10,1,0,0,5,-10,1,0,0,1,47,207,101,1,,,,,,,,
,,,,,,,,,,,,,FF,,,,,,,,1.4194,,,,,,,,,,,,,,,,,,,,,,60fcc1523286b54d48b32cf5,610371705dfd0f61720e3910,2021-07-29_20h56.30.585,Simcolourproject_2stim_asymm_v5,2020.2.10,Win32,60,61025ae37ef11b136ea224fe,,,,,,,,,980,-42,-66,1,0,0,response5disk,,3,-29,11,1,0,0,rectangle,-29,11,1,0,0,-29,11,1,0,0,1,48,208,126,1,,,,,,,,
,,,,,,,,,,,,,FF,,,,,,,,0.5354,,,,,,,,,,,,,,,,,,,,,,60fcc1523286b54d48b32cf5,610371705dfd0f61720e3910,2021-07-29_20h56.30.585,Simcolourproject_2stim_asymm_v5,2020.2.10,Win32,60,61025ae37ef11b136ea224fe,,,,,,,,,4359,-56,-27,1,0,0,response5disk,,2,-35,9,1,0,0,rectangle,-35,9,1,0,0,-35,9,1,0,0,1,49,209,45,1,,,,,,,,
,,,,,,,,,,,,,FF,,,,,,,,0.6707,,,,,,,,,,,,,,,,,,,,,,60fcc1523286b54d48b32cf5,610371705dfd0f61720e3910,2021-07-29_20h56.30.585,Simcolourproject_2stim_asymm_v5,2020.2.10,Win32,60,61025ae37ef11b136ea224fe,,,,,,,,,1105,82,45,1,0,0,response1disk,,6,19,-5,1,0,0,rectangle,19,-5,1,0,0,19,-5,1,0,0,1,50,210,81,1,,,,,,,,
,,,,,,,,,,,,,FF,,,,,,,,0.5675,,,,,,,,,,,,,,,,,,,,,,60fcc1523286b54d48b32cf5,610371705dfd0f61720e3910,2021-07-29_20h56.30.585,Simcolourproject_2stim_asymm_v5,2020.2.10,Win32,60,61025ae37ef11b136ea224fe,,,,,,,,,1658,90,41,1,0,0,response1disk,,6,16,2,1,0,0,rectangle,16,2,1,0,0,16,2,1,0,0,1,51,211,15,1,,,,,,,,
,,,,,,,,,,,,,FF,,,,,,,,0.6529,,,,,,,,,,,,,,,,,,,,,,60fcc1523286b54d48b32cf5,610371705dfd0f61720e3910,2021-07-29_20h56.30.585,Simcolourproject_2stim_asymm_v5,2020.2.10,Win32,60,61025ae37ef11b136ea224fe,,,,,,,,,272,81,35,1,0,0,response1disk,,6,10,-8,1,0,0,rectangle,10,-8,1,0,0,10,-8,1,0,0,1,52,212,156,1,,,,,,,,
,,,,,,,,,,,,,FF,,,,,,,,0.7836,,,,,,,,,,,,,,,,,,,,,,60fcc1523286b54d48b32cf5,610371705dfd0f61720e3910,2021-07-29_20h56.30.585,Simcolourproject_2stim_asymm_v5,2020.2.10,Win32,60,61025ae37ef11b136ea224fe,,,,,,,,,640,43,-74,1,0,0,response3disk,,4,11,-11,1,0,0,rectangle,11,-11,1,0,0,11,-11,1,0,0,1,53,213,44,1,,,,,,,,
,,,,,,,,,,,,,FF,,,,,,,,0.5507,,,,,,,,,,,,,,,,,,,,,,60fcc1523286b54d48b32cf5,610371705dfd0f61720e3910,2021-07-29_20h56.30.585,Simcolourproject_2stim_asymm_v5,2020.2.10,Win32,60,61025ae37ef11b136ea224fe,,,,,,,,,153,82,43,1,0,0,response1disk,,6,26,7,1,0,0,rectangle,26,7,1,0,0,26,7,1,0,0,1,54,214,6,1,,,,,,,,
,,,,,,,,,,,,,FF,,,,,,,,0.6348,,,,,,,,,,,,,,,,,,,,,,60fcc1523286b54d48b32cf5,610371705dfd0f61720e3910,2021-07-29_20h56.30.585,Simcolourproject_2stim_asymm_v5,2020.2.10,Win32,60,61025ae37ef11b136ea224fe,,,,,,,,,3019,34,77,1,0,0,response1disk,,7,17,16,1,0,0,rectangle,17,16,1,0,0,17,16,1,0,0,1,55,215,69,1,,,,,,,,
,,,,,,,,,,,,,FF,,,,,,,,1.0349,,,,,,,,,,,,,,,,,,,,,,60fcc1523286b54d48b32cf5,610371705dfd0f61720e3910,2021-07-29_20h56.30.585,Simcolourproject_2stim_asymm_v5,2020.2.10,Win32,60,61025ae37ef11b136ea224fe,,,,,,,,,3669,-69,32,1,0,0,response7disk,,1,-36,2,1,0,0,rectangle,-36,2,1,0,0,-36,2,1,0,0,1,56,216,39,1,,,,,,,,
,,,,,,,,,,,,,FF,,,,,,,,0.7175,,,,,,,,,,,,,,,,,,,,,,60fcc1523286b54d48b32cf5,610371705dfd0f61720e3910,2021-07-29_20h56.30.585,Simcolourproject_2stim_asymm_v5,2020.2.10,Win32,60,61025ae37ef11b136ea224fe,,,,,,,,,4095,-27,98,1,0,0,response7disk,,0,-26,12,1,0,0,rectangle,-26,12,1,0,0,-26,12,1,0,0,1,57,217,154,1,,,,,,,,
,,,,,,,,,,,,,FF,,,,,,,,1.5543,,,,,,,,,,,,,,,,,,,,,,60fcc1523286b54d48b32cf5,610371705dfd0f61720e3910,2021-07-29_20h56.30.585,Simcolourproject_2stim_asymm_v5,2020.2.10,Win32,60,61025ae37ef11b136ea224fe,,,,,,,,,2731,63,-82,1,0,0,response3disk,,4,27,1,1,0,0,rectangle,27,1,1,0,0,27,1,1,0,0,1,58,218,37,1,,,,,,,,
,,,,,,,,,,,,,FF,,,,,,,,1.6179,,,,,,,,,,,,,,,,,,,,,,60fcc1523286b54d48b32cf5,610371705dfd0f61720e3910,2021-07-29_20h56.30.585,Simcolourproject_2stim_asymm_v5,2020.2.10,Win32,60,61025ae37ef11b136ea224fe,,,,,,,,,3509,110,-52,1,0,0,response3disk,,5,12,5,1,0,0,rectangle,12,5,1,0,0,12,5,1,0,0,1,59,219,32,1,,,,,,,,
,,,,,,,,,,,,,FF,,,,,,,,0.6504,,,,,,,,,,,,,,,,,,,,,,60fcc1523286b54d48b32cf5,610371705dfd0f61720e3910,2021-07-29_20h56.30.585,Simcolourproject_2stim_asymm_v5,2020.2.10,Win32,60,61025ae37ef11b136ea224fe,,,,,,,,,2617,68,45,1,0,0,response1disk,,6,-14,-9,1,0,0,rectangle,-14,-9,1,0,0,-14,-9,1,0,0,1,60,220,148,1,,,,,,,,
,,,,,,,,,,,,,FF,,,,,,,,1.0496,,,,,,,,,,,,,,,,,,,,,,60fcc1523286b54d48b32cf5,610371705dfd0f61720e3910,2021-07-29_20h56.30.585,Simcolourproject_2stim_asymm_v5,2020.2.10,Win32,60,61025ae37ef11b136ea224fe,,,,,,,,,2648,68,41,1,0,0,response1disk,,6,16,11,1,0,0,rectangle,16,11,1,0,0,16,11,1,0,0,1,61,221,89,1,,,,,,,,
,,,,,,,,,,,,,FF,,,,,,,,1.6911,,,,,,,,,,,,,,,,,,,,,,60fcc1523286b54d48b32cf5,610371705dfd0f61720e3910,2021-07-29_20h56.30.585,Simcolourproject_2stim_asymm_v5,2020.2.10,Win32,60,61025ae37ef11b136ea224fe,,,,,,,,,1580,72,31,1,0,0,response1disk,,6,3,4,1,0,0,rectangle,3,4,1,0,0,3,4,1,0,0,1,62,222,83,1,,,,,,,,
,,,,,,,,,,,,,FF,,,,,,,,0.9364,,,,,,,,,,,,,,,,,,,,,,60fcc1523286b54d48b32cf5,610371705dfd0f61720e3910,2021-07-29_20h56.30.585,Simcolourproject_2stim_asymm_v5,2020.2.10,Win32,60,61025ae37ef11b136ea224fe,,,,,,,,,21,55,-54,1,0,0,response3disk,,5,28,3,1,0,0,rectangle,28,3,1,0,0,28,3,1,0,0,1,63,223,110,1,,,,,,,,
,,,,,,,,,,,,,FF,,,,,,,,2.5181,,,,,,,,,,,,,,,,,,,,,,60fcc1523286b54d48b32cf5,610371705dfd0f61720e3910,2021-07-29_20h56.30.585,Simcolourproject_2stim_asymm_v5,2020.2.10,Win32,60,61025ae37ef11b136ea224fe,,,,,,,,,2981,105,-43,1,0,0,response3disk,,5,-11,5,1,0,0,rectangle,-11,5,1,0,0,-11,5,1,0,0,1,64,224,135,1,,,,,,,,
,,,,,,,,,,,,,FF,,,,,,,,1.0535,,,,,,,,,,,,,,,,,,,,,,60fcc1523286b54d48b32cf5,610371705dfd0f61720e3910,2021-07-29_20h56.30.585,Simcolourproject_2stim_asymm_v5,2020.2.10,Win32,60,61025ae37ef11b136ea224fe,,,,,,,,,4349,90,44,1,0,0,response1disk,,6,12,2,1,0,0,rectangle,12,2,1,0,0,12,2,1,0,0,1,65,225,30,1,,,,,,,,
,,,,,,,,,,,,,FF,,,,,,,,1.2514,,,,,,,,,,,,,,,,,,,,,,60fcc1523286b54d48b32cf5,610371705dfd0f61720e3910,2021-07-29_20h56.30.585,Simcolourproject_2stim_asymm_v5,2020.2.10,Win32,60,61025ae37ef11b136ea224fe,,,,,,,,,672,45,78,1,0,0,response1disk,,7,6,-1,1,0,0,rectangle,106,-54,1,0,0,-4,-7,1,0,0,1,66,226,0,1,,response3disk_3,TRUE,5,5,"[101,300,18,49,48,200,252,227,319,99,272,293,322,268,122,161,302,128,187,93]",1.3516,rectangle
,,,,,,,,,,,,,FF,,,,,,,,2.0211,,,,,,,,,,,,,,,,,,,,,,60fcc1523286b54d48b32cf5,610371705dfd0f61720e3910,2021-07-29_20h56.30.585,Simcolourproject_2stim_asymm_v5,2020.2.10,Win32,60,61025ae37ef11b136ea224fe,,,,,,,,,4367,-35,-76,1,0,0,response5disk,,3,14,5,1,0,0,rectangle,14,5,1,0,0,14,5,1,0,0,1,67,227,68,1,,,,,,,,
,,,,,,,,,,,,,FF,,,,,,,,0.7544,,,,,,,,,,,,,,,,,,,,,,60fcc1523286b54d48b32cf5,610371705dfd0f61720e3910,2021-07-29_20h56.30.585,Simcolourproject_2stim_asymm_v5,2020.2.10,Win32,60,61025ae37ef11b136ea224fe,,,,,,,,,1384,-33,-74,1,0,0,response5disk,,3,-1,2,1,0,0,rectangle,-1,2,1,0,0,-1,2,1,0,0,1,68,228,65,1,,,,,,,,
,,,,,,,,,,,,,FF,,,,,,,,0.8876,,,,,,,,,,,,,,,,,,,,,,60fcc1523286b54d48b32cf5,610371705dfd0f61720e3910,2021-07-29_20h56.30.585,Simcolourproject_2stim_asymm_v5,2020.2.10,Win32,60,61025ae37ef11b136ea224fe,,,,,,,,,2126,63,44,1,0,0,response1disk,,6,-1,2,1,0,0,rectangle,-1,2,1,0,0,-1,2,1,0,0,1,69,229,118,1,,,,,,,,
,,,,,,,,,,,,,FF,,,,,,,,0.8009,,,,,,,,,,,,,,,,,,,,,,60fcc1523286b54d48b32cf5,610371705dfd0f61720e3910,2021-07-29_20h56.30.585,Simcolourproject_2stim_asymm_v5,2020.2.10,Win32,60,61025ae37ef11b136ea224fe,,,,,,,,,2520,109,44,1,0,0,response1disk,,6,7,-12,1,0,0,rectangle,7,-12,1,0,0,7,-12,1,0,0,1,70,230,34,1,,,,,,,,
,,,,,,,,,,,,,FF,,,,,,,,1.1012,,,,,,,,,,,,,,,,,,,,,,60fcc1523286b54d48b32cf5,610371705dfd0f61720e3910,2021-07-29_20h56.30.585,Simcolourproject_2stim_asymm_v5,2020.2.10,Win32,60,61025ae37ef11b136ea224fe,,,,,,,,,2180,87,-43,1,0,0,response3disk,,5,6,-15,1,0,0,rectangle,6,-15,1,0,0,6,-15,1,0,0,1,71,231,159,1,,,,,,,,
,,,,,,,,,,,,,FF,,,,,,,,0.7532,,,,,,,,,,,,,,,,,,,,,,60fcc1523286b54d48b32cf5,610371705dfd0f61720e3910,2021-07-29_20h56.30.585,Simcolourproject_2stim_asymm_v5,2020.2.10,Win32,60,61025ae37ef11b136ea224fe,,,,,,,,,4093,109,55,1,0,0,response1disk,,6,6,7,1,0,0,rectangle,6,7,1,0,0,6,7,1,0,0,1,72,232,137,1,,,,,,,,
,,,,,,,,,,,,,FF,,,,,,,,0.5846,,,,,,,,,,,,,,,,,,,,,,60fcc1523286b54d48b32cf5,610371705dfd0f61720e3910,2021-07-29_20h56.30.585,Simcolourproject_2stim_asymm_v5,2020.2.10,Win32,60,61025ae37ef11b136ea224fe,,,,,,,,,774,68,49,1,0,0,response1disk,,6,-4,6,1,0,0,rectangle,-4,6,1,0,0,-4,6,1,0,0,1,73,233,111,1,,,,,,,,
,,,,,,,,,,,,,FF,,,,,,,,1.3853,,,,,,,,,,,,,,,,,,,,,,60fcc1523286b54d48b32cf5,610371705dfd0f61720e3910,2021-07-29_20h56.30.585,Simcolourproject_2stim_asymm_v5,2020.2.10,Win32,60,61025ae37ef11b136ea224fe,,,,,,,,,756,115,65,1,0,0,response1disk,,6,28,-10,1,0,0,rectangle,28,-10,1,0,0,28,-10,1,0,0,1,74,234,61,1,,,,,,,,
,,,,,,,,,,,,,FF,,,,,,,,0.8403,,,,,,,,,,,,,,,,,,,,,,60fcc1523286b54d48b32cf5,610371705dfd0f61720e3910,2021-07-29_20h56.30.585,Simcolourproject_2stim_asymm_v5,2020.2.10,Win32,60,61025ae37ef11b136ea224fe,,,,,,,,,396,37,-83,1,0,0,response3disk,,4,8,16,1,0,0,rectangle,8,16,1,0,0,8,16,1,0,0,1,75,235,145,1,,,,,,,,
,,,,,,,,,,,,,FF,,,,,,,,0.7198,,,,,,,,,,,,,,,,,,,,,,60fcc1523286b54d48b32cf5,610371705dfd0f61720e3910,2021-07-29_20h56.30.585,Simcolourproject_2stim_asymm_v5,2020.2.10,Win32,60,61025ae37ef11b136ea224fe,,,,,,,,,3678,-71,-71,1,0,0,response5disk,,3,-25,14,1,0,0,rectangle,-25,14,1,0,0,-25,14,1,0,0,1,76,236,9,1,,,,,,,,
,,,,,,,,,,,,,FF,,,,,,,,0.602,,,,,,,,,,,,,,,,,,,,,,60fcc1523286b54d48b32cf5,610371705dfd0f61720e3910,2021-07-29_20h56.30.585,Simcolourproject_2stim_asymm_v5,2020.2.10,Win32,60,61025ae37ef11b136ea224fe,,,,,,,,,4123,-33,-68,1,0,0,response5disk,,3,-3,8,1,0,0,rectangle,-3,8,1,0,0,-3,8,1,0,0,1,77,237,78,1,,,,,,,,
,,,,,,,,,,,,,FF,,,,,,,,1.0516,,,,,,,,,,,,,,,,,,,,,,60fcc1523286b54d48b32cf5,610371705dfd0f61720e3910,2021-07-29_20h56.30.585,Simcolourproject_2stim_asymm_v5,2020.2.10,Win32,60,61025ae37ef11b136ea224fe,,,,,,,,,391,104,53,1,0,0,response1disk,,6,8,4,1,0,0,rectangle,8,4,1,0,0,8,4,1,0,0,1,78,238,86,1,,,,,,,,
,,,,,,,,,,,,,FF,,,,,,,,1.1527,,,,,,,,,,,,,,,,,,,,,,60fcc1523286b54d48b32cf5,610371705dfd0f61720e3910,2021-07-29_20h56.30.585,Simcolourproject_2stim_asymm_v5,2020.2.10,Win32,60,61025ae37ef11b136ea224fe,,,,,,,,,1123,81,41,1,0,0,response1disk,,6,45,-18,1,0,0,rectangle,45,-18,1,0,0,45,-18,1,0,0,1,79,239,72,1,,,,,,,,
,,,,,,,,,,,,,FF,,,,,,,,0.635,,,,,,,,,,,,,,,,,,,,,,60fcc1523286b54d48b32cf5,610371705dfd0f61720e3910,2021-07-29_20h56.30.585,Simcolourproject_2stim_asymm_v5,2020.2.10,Win32,60,61025ae37ef11b136ea224fe,,,,,,,,,2047,88,-76,1,0,0,response3disk,,5,-16,-9,1,0,0,rectangle,-16,-9,1,0,0,-16,-9,1,0,0,1,80,240,27,1,,,,,,,,
,,,,,,,,,,,,,FF,,,,,,,,1.3515,,,,,,,,,,,,,,,,,,,,,,60fcc1523286b54d48b32cf5,610371705dfd0f61720e3910,2021-07-29_20h56.30.585,Simcolourproject_2stim_asymm_v5,2020.2.10,Win32,60,61025ae37ef11b136ea224fe,,,,,,,,,3192,-90,-25,1,0,0,response5disk,,2,-22,9,1,0,0,rectangle,-22,9,1,0,0,-22,9,1,0,0,1,81,241,56,1,,,,,,,,
,,,,,,,,,,,,,FF,,,,,,,,0.7178,,,,,,,,,,,,,,,,,,,,,,60fcc1523286b54d48b32cf5,610371705dfd0f61720e3910,2021-07-29_20h56.30.585,Simcolourproject_2stim_asymm_v5,2020.2.10,Win32,60,61025ae37ef11b136ea224fe,,,,,,,,,2367,-55,-23,1,0,0,response5disk,,2,-25,4,1,0,0,rectangle,-25,4,1,0,0,-25,4,1,0,0,1,82,242,64,1,,,,,,,,
,,,,,,,,,,,,,FF,,,,,,,,0.7011,,,,,,,,,,,,,,,,,,,,,,60fcc1523286b54d48b32cf5,610371705dfd0f61720e3910,2021-07-29_20h56.30.585,Simcolourproject_2stim_asymm_v5,2020.2.10,Win32,60,61025ae37ef11b136ea224fe,,,,,,,,,3018,129,63,1,0,0,response1disk,,6,14,8,1,0,0,rectangle,14,8,1,0,0,14,8,1,0,0,1,83,243,5,1,,,,,,,,
,,,,,,,,,,,,,FF,,,,,,,,0.5154,,,,,,,,,,,,,,,,,,,,,,60fcc1523286b54d48b32cf5,610371705dfd0f61720e3910,2021-07-29_20h56.30.585,Simcolourproject_2stim_asymm_v5,2020.2.10,Win32,60,61025ae37ef11b136ea224fe,,,,,,,,,3987,107,42,1,0,0,response1disk,,6,-27,-8,1,0,0,rectangle,-27,-8,1,0,0,-27,-8,1,0,0,1,84,244,131,1,,,,,,,,
,,,,,,,,,,,,,FF,,,,,,,,0.9333,,,,,,,,,,,,,,,,,,,,,,60fcc1523286b54d48b32cf5,610371705dfd0f61720e3910,2021-07-29_20h56.30.585,Simcolourproject_2stim_asymm_v5,2020.2.10,Win32,60,61025ae37ef11b136ea224fe,,,,,,,,,1279,124,-49,1,0,0,response3disk,,5,28,-2,1,0,0,rectangle,28,-2,1,0,0,28,-2,1,0,0,1,85,245,84,1,,,,,,,,
,,,,,,,,,,,,,FF,,,,,,,,0.8857,,,,,,,,,,,,,,,,,,,,,,60fcc1523286b54d48b32cf5,610371705dfd0f61720e3910,2021-07-29_20h56.30.585,Simcolourproject_2stim_asymm_v5,2020.2.10,Win32,60,61025ae37ef11b136ea224fe,,,,,,,,,2611,54,-90,1,0,0,response3disk,,4,26,-3,1,0,0,rectangle,26,-3,1,0,0,26,-3,1,0,0,1,86,246,106,1,,,,,,,,
,,,,,,,,,,,,,FF,,,,,,,,0.8014,,,,,,,,,,,,,,,,,,,,,,60fcc1523286b54d48b32cf5,610371705dfd0f61720e3910,2021-07-29_20h56.30.585,Simcolourproject_2stim_asymm_v5,2020.2.10,Win32,60,61025ae37ef11b136ea224fe,,,,,,,,,3825,89,44,1,0,0,response1disk,,6,2,7,1,0,0,rectangle,2,7,1,0,0,2,7,1,0,0,1,87,247,26,1,,,,,,,,
,,,,,,,,,,,,,FF,,,,,,,,0.6527,,,,,,,,,,,,,,,,,,,,,,60fcc1523286b54d48b32cf5,610371705dfd0f61720e3910,2021-07-29_20h56.30.585,Simcolourproject_2stim_asymm_v5,2020.2.10,Win32,60,61025ae37ef11b136ea224fe,,,,,,,,,2988,84,54,1,0,0,response1disk,,6,-6,9,1,0,0,rectangle,-6,9,1,0,0,-6,9,1,0,0,1,88,248,104,1,,,,,,,,
,,,,,,,,,,,,,FF,,,,,,,,1.1228,,,,,,,,,,,,,,,,,,,,,,60fcc1523286b54d48b32cf5,610371705dfd0f61720e3910,2021-07-29_20h56.30.585,Simcolourproject_2stim_asymm_v5,2020.2.10,Win32,60,61025ae37ef11b136ea224fe,,,,,,,,,738,95,-44,1,0,0,response3disk,,5,-27,0,1,0,0,rectangle,-27,0,1,0,0,-27,0,1,0,0,1,89,249,10,1,,,,,,,,
,,,,,,,,,,,,,FF,,,,,,,,1.0837,,,,,,,,,,,,,,,,,,,,,,60fcc1523286b54d48b32cf5,610371705dfd0f61720e3910,2021-07-29_20h56.30.585,Simcolourproject_2stim_asymm_v5,2020.2.10,Win32,60,61025ae37ef11b136ea224fe,,,,,,,,,1763,-52,-59,1,0,0,response5disk,,3,-19,-15,1,0,0,rectangle,-19,-15,1,0,0,-19,-15,1,0,0,1,90,250,33,1,,,,,,,,
,,,,,,,,,,,,,FF,,,,,,,,0.9837,,,,,,,,,,,,,,,,,,,,,,60fcc1523286b54d48b32cf5,610371705dfd0f61720e3910,2021-07-29_20h56.30.585,Simcolourproject_2stim_asymm_v5,2020.2.10,Win32,60,61025ae37ef11b136ea224fe,,,,,,,,,1459,-68,79,1,0,0,response7disk,,0,-16,13,1,0,0,rectangle,-58,28,1,0,0,4,-5,1,0,0,1,91,251,79,1,,response7disk_3,TRUE,1,1,"[101,300,18,49,48,200,252,227,319,99,272,293,322,268,122,161,302,128,187,93]",1.2379,rectangle
,,,,,,,,,,,,,FF,,,,,,,,1.3175,,,,,,,,,,,,,,,,,,,,,,60fcc1523286b54d48b32cf5,610371705dfd0f61720e3910,2021-07-29_20h56.30.585,Simcolourproject_2stim_asymm_v5,2020.2.10,Win32,60,61025ae37ef11b136ea224fe,,,,,,,,,965,95,34,1,0,0,response1disk,,6,18,-4,1,0,0,rectangle,18,-4,1,0,0,18,-4,1,0,0,1,92,252,139,1,,,,,,,,
,,,,,,,,,,,,,FF,,,,,,,,1.3024,,,,,,,,,,,,,,,,,,,,,,60fcc1523286b54d48b32cf5,610371705dfd0f61720e3910,2021-07-29_20h56.30.585,Simcolourproject_2stim_asymm_v5,2020.2.10,Win32,60,61025ae37ef11b136ea224fe,,,,,,,,,1713,31,75,1,0,0,response1disk,,7,-18,-7,1,0,0,rectangle,-18,-7,1,0,0,-18,-7,1,0,0,1,93,253,35,1,,,,,,,,
,,,,,,,,,,,,,FF,,,,,,,,2.7851,,,,,,,,,,,,,,,,,,,,,,60fcc1523286b54d48b32cf5,610371705dfd0f61720e3910,2021-07-29_20h56.30.585,Simcolourproject_2stim_asymm_v5,2020.2.10,Win32,60,61025ae37ef11b136ea224fe,,,,,,,,,247,78,22,1,0,0,response1disk,,6,8,7,1,0,0,rectangle,8,7,1,0,0,8,7,1,0,0,1,94,254,147,1,,,,,,,,
,,,,,,,,,,,,,FF,,,,,,,,1.1691,,,,,,,,,,,,,,,,,,,,,,60fcc1523286b54d48b32cf5,610371705dfd0f61720e3910,2021-07-29_20h56.30.585,Simcolourproject_2stim_asymm_v5,2020.2.10,Win32,60,61025ae37ef11b136ea224fe,,,,,,,,,2176,-40,-85,1,0,0,response5disk,,3,2,-7,1,0,0,rectangle,2,-7,1,0,0,2,-7,1,0,0,1,95,255,119,1,,,,,,,,
,,,,,,,,,,,,,FF,,,,,,,,1.3336,,,,,,,,,,,,,,,,,,,,,,60fcc1523286b54d48b32cf5,610371705dfd0f61720e3910,2021-07-29_20h56.30.585,Simcolourproject_2stim_asymm_v5,2020.2.10,Win32,60,61025ae37ef11b136ea224fe,,,,,,,,,3022,106,-25,1,0,0,response3disk,,5,16,10,1,0,0,rectangle,16,10,1,0,0,16,10,1,0,0,1,96,256,97,1,,,,,,,,
,,,,,,,,,,,,,FF,,,,,,,,1.0825,,,,,,,,,,,,,,,,,,,,,,60fcc1523286b54d48b32cf5,610371705dfd0f61720e3910,2021-07-29_20h56.30.585,Simcolourproject_2stim_asymm_v5,2020.2.10,Win32,60,61025ae37ef11b136ea224fe,,,,,,,,,638,-57,-78,1,0,0,response5disk,,3,0,-5,1,0,0,rectangle,0,-5,1,0,0,0,-5,1,0,0,1,97,257,87,1,,,,,,,,
,,,,,,,,,,,,,FF,,,,,,,,3.1524,,,,,,,,,,,,,,,,,,,,,,60fcc1523286b54d48b32cf5,610371705dfd0f61720e3910,2021-07-29_20h56.30.585,Simcolourproject_2stim_asymm_v5,2020.2.10,Win32,60,61025ae37ef11b136ea224fe,,,,,,,,,1444,93,-61,1,0,0,response3disk,,5,-15,-14,1,0,0,rectangle,-15,-14,1,0,0,-15,-14,1,0,0,1,98,258,50,1,,,,,,,,
,,,,,,,,,,,,,FF,,,,,,,,1.0354,,,,,,,,,,,,,,,,,,,,,,60fcc1523286b54d48b32cf5,610371705dfd0f61720e3910,2021-07-29_20h56.30.585,Simcolourproject_2stim_asymm_v5,2020.2.10,Win32,60,61025ae37ef11b136ea224fe,,,,,,,,,225,72,-25,1,0,0,response3disk,,5,10,17,1,0,0,rectangle,10,17,1,0,0,10,17,1,0,0,1,99,259,134,1,,,,,,,,
,,,,,,,,,,,,,FF,,,,,,,,0.6665,,,,,,,,,,,,,,,,,,,,,,60fcc1523286b54d48b32cf5,610371705dfd0f61720e3910,2021-07-29_20h56.30.585,Simcolourproject_2stim_asymm_v5,2020.2.10,Win32,60,61025ae37ef11b136ea224fe,,,,,,,,,532,-69,-37,1,0,0,response5disk,,2,-18,16,1,0,0,rectangle,-18,16,1,0,0,-18,16,1,0,0,1,100,260,46,1,,,,,,,,
,,,,,,,,,,,,,FF,,,,,,,,0.5318,,,,,,,,,,,,,,,,,,,,,,60fcc1523286b54d48b32cf5,610371705dfd0f61720e3910,2021-07-29_20h56.30.585,Simcolourproject_2stim_asymm_v5,2020.2.10,Win32,60,61025ae37ef11b136ea224fe,,,,,,,,,974,-62,-43,1,0,0,response5disk,,2,-22,0,1,0,0,rectangle,-22,0,1,0,0,-22,0,1,0,0,1,101,261,60,1,,,,,,,,
,,,,,,,,,,,,,FF,,,,,,,,1.6863,,,,,,,,,,,,,,,,,,,,,,60fcc1523286b54d48b32cf5,610371705dfd0f61720e3910,2021-07-29_20h56.30.585,Simcolourproject_2stim_asymm_v5,2020.2.10,Win32,60,61025ae37ef11b136ea224fe,,,,,,,,,2203,93,38,1,0,0,response1disk,,6,33,-5,1,0,0,rectangle,33,-5,1,0,0,33,-5,1,0,0,1,102,262,31,1,,,,,,,,
,,,,,,,,,,,,,FF,,,,,,,,0.7528,,,,,,,,,,,,,,,,,,,,,,60fcc1523286b54d48b32cf5,610371705dfd0f61720e3910,2021-07-29_20h56.30.585,Simcolourproject_2stim_asymm_v5,2020.2.10,Win32,60,61025ae37ef11b136ea224fe,,,,,,,,,463,-28,-66,1,0,0,response5disk,,3,23,6,1,0,0,rectangle,23,6,1,0,0,23,6,1,0,0,1,103,263,85,1,,,,,,,,
,,,,,,,,,,,,,FF,,,,,,,,1.1346,,,,,,,,,,,,,,,,,,,,,,60fcc1523286b54d48b32cf5,610371705dfd0f61720e3910,2021-07-29_20h56.30.585,Simcolourproject_2stim_asymm_v5,2020.2.10,Win32,60,61025ae37ef11b136ea224fe,,,,,,,,,1712,43,-52,1,0,0,response3disk,,4,4,9,1,0,0,rectangle,4,9,1,0,0,4,9,1,0,0,1,104,264,76,1,,,,,,,,
,,,,,,,,,,,,,FF,,,,,,,,1.4933,,,,,,,,,,,,,,,,,,,,,,60fcc1523286b54d48b32cf5,610371705dfd0f61720e3910,2021-07-29_20h56.30.585,Simcolourproject_2stim_asymm_v5,2020.2.10,Win32,60,61025ae37ef11b136ea224fe,,,,,,,,,2983,65,-40,1,0,0,response3disk,,5,-9,0,1,0,0,rectangle,-9,0,1,0,0,-9,0,1,0,0,1,105,265,146,1,,,,,,,,
,,,,,,,,,,,,,FF,,,,,,,,1.6189,,,,,,,,,,,,,,,,,,,,,,60fcc1523286b54d48b32cf5,610371705dfd0f61720e3910,2021-07-29_20h56.30.585,Simcolourproject_2stim_asymm_v5,2020.2.10,Win32,60,61025ae37ef11b136ea224fe,,,,,,,,,2743,73,50,1,0,0,response1disk,,6,16,8,1,0,0,rectangle,16,8,1,0,0,16,8,1,0,0,1,106,266,13,1,,,,,,,,
,,,,,,,,,,,,,FF,,,,,,,,0.7332,,,,,,,,,,,,,,,,,,,,,,60fcc1523286b54d48b32cf5,610371705dfd0f61720e3910,2021-07-29_20h56.30.585,Simcolourproject_2stim_asymm_v5,2020.2.10,Win32,60,61025ae37ef11b136ea224fe,,,,,,,,,2853,49,61,1,0,0,response1disk,,7,7,-15,1,0,0,rectangle,-32,95,1,0,0,-8,2,1,0,0,1,107,267,130,1,,response7disk_3,TRUE,0,0,"[101,300,18,49,48,200,252,227,319,99,272,293,322,268,122,161,302,128,187,93]",1.3731,rectangle
,,,,,,,,,,,,,FF,,,,,,,,1.3026,,,,,,,,,,,,,,,,,,,,,,60fcc1523286b54d48b32cf5,610371705dfd0f61720e3910,2021-07-29_20h56.30.585,Simcolourproject_2stim_asymm_v5,2020.2.10,Win32,60,61025ae37ef11b136ea224fe,,,,,,,,,1058,-39,-52,1,0,0,response5disk,,3,-35,-4,1,0,0,rectangle,-35,-4,1,0,0,-35,-4,1,0,0,1,108,268,48,1,,,,,,,,
,,,,,,,,,,,,,FF,,,,,,,,0.8139,,,,,,,,,,,,,,,,,,,,,,60fcc1523286b54d48b32cf5,610371705dfd0f61720e3910,2021-07-29_20h56.30.585,Simcolourproject_2stim_asymm_v5,2020.2.10,Win32,60,61025ae37ef11b136ea224fe,,,,,,,,,183,75,-44,1,0,0,response3disk,,5,2,2,1,0,0,rectangle,2,2,1,0,0,2,2,1,0,0,1,109,269,16,1,,,,,,,,
,,,,,,,,,,,,,FF,,,,,,,,0.7021,,,,,,,,,,,,,,,,,,,,,,60fcc1523286b54d48b32cf5,610371705dfd0f61720e3910,2021-07-29_20h56.30.585,Simcolourproject_2stim_asymm_v5,2020.2.10,Win32,60,61025ae37ef11b136ea224fe,,,,,,,,,2094,-27,-63,1,0,0,response5disk,,3,1,-11,1,0,0,rectangle,1,-11,1,0,0,1,-11,1,0,0,1,110,270,59,1,,,,,,,,
,,,,,,,,,,,,,FF,,,,,,,,0.9514,,,,,,,,,,,,,,,,,,,,,,60fcc1523286b54d48b32cf5,610371705dfd0f61720e3910,2021-07-29_20h56.30.585,Simcolourproject_2stim_asymm_v5,2020.2.10,Win32,60,61025ae37ef11b136ea224fe,,,,,,,,,484,107,-45,1,0,0,response3disk,,5,31,3,1,0,0,rectangle,62,-95,1,0,0,23,-9,1,0,0,1,111,271,107,1,,response3disk_3,TRUE,4,4,"[101,300,18,49,48,200,252,227,319,99,272,293,322,268,122,161,302,128,187,93]",1.2496,rectangle
,,,,,,,,,,,,,FF,,,,,,,,0.9169,,,,,,,,,,,,,,,,,,,,,,60fcc1523286b54d48b32cf5,610371705dfd0f61720e3910,2021-07-29_20h56.30.585,Simcolourproject_2stim_asymm_v5,2020.2.10,Win32,60,61025ae37ef11b136ea224fe,,,,,,,,,2303,106,-32,1,0,0,response3disk,,5,31,-5,1,0,0,rectangle,31,-5,1,0,0,31,-5,1,0,0,1,112,272,82,1,,,,,,,,
,,,,,,,,,,,,,FF,,,,,,,,0.886,,,,,,,,,,,,,,,,,,,,,,60fcc1523286b54d48b32cf5,610371705dfd0f61720e3910,2021-07-29_20h56.30.585,Simcolourproject_2stim_asymm_v5,2020.2.10,Win32,60,61025ae37ef11b136ea224fe,,,,,,,,,1757,-40,-81,1,0,0,response5disk,,3,16,-1,1,0,0,rectangle,16,-1,1,0,0,16,-1,1,0,0,1,113,273,63,1,,,,,,,,
,,,,,,,,,,,,,FF,,,,,,,,0.7191,,,,,,,,,,,,,,,,,,,,,,60fcc1523286b54d48b32cf5,610371705dfd0f61720e3910,2021-07-29_20h56.30.585,Simcolourproject_2stim_asymm_v5,2020.2.10,Win32,60,61025ae37ef11b136ea224fe,,,,,,,,,105,31,-62,1,0,0,response3disk,,4,14,-16,1,0,0,rectangle,14,-16,1,0,0,14,-16,1,0,0,1,114,274,124,1,,,,,,,,
,,,,,,,,,,,,,FF,,,,,,,,1.3016,,,,,,,,,,,,,,,,,,,,,,60fcc1523286b54d48b32cf5,610371705dfd0f61720e3910,2021-07-29_20h56.30.585,Simcolourproject_2stim_asymm_v5,2020.2.10,Win32,60,61025ae37ef11b136ea224fe,,,,,,,,,3078,81,-37,1,0,0,response3disk,,5,37,-3,1,0,0,rectangle,37,-3,1,0,0,37,-3,1,0,0,1,115,275,141,1,,,,,,,,
,,,,,,,,,,,,,FF,,,,,,,,1.3689,,,,,,,,,,,,,,,,,,,,,,60fcc1523286b54d48b32cf5,610371705dfd0f61720e3910,2021-07-29_20h56.30.585,Simcolourproject_2stim_asymm_v5,2020.2.10,Win32,60,61025ae37ef11b136ea224fe,,,,,,,,,3702,32,-89,1,0,0,response3disk,,4,-9,-16,1,0,0,rectangle,-9,-16,1,0,0,-9,-16,1,0,0,1,116,276,132,1,,,,,,,,
,,,,,,,,,,,,,FF,,,,,,,,0.9014,,,,,,,,,,,,,,,,,,,,,,60fcc1523286b54d48b32cf5,610371705dfd0f61720e3910,2021-07-29_20h56.30.585,Simcolourproject_2stim_asymm_v5,2020.2.10,Win32,60,61025ae37ef11b136ea224fe,,,,,,,,,3079,95,32,1,0,0,response1disk,,6,19,-20,1,0,0,rectangle,19,-20,1,0,0,19,-20,1,0,0,1,117,277,2,1,,,,,,,,
,,,,,,,,,,,,,FF,,,,,,,,1.2346,,,,,,,,,,,,,,,,,,,,,,60fcc1523286b54d48b32cf5,610371705dfd0f61720e3910,2021-07-29_20h56.30.585,Simcolourproject_2stim_asymm_v5,2020.2.10,Win32,60,61025ae37ef11b136ea224fe,,,,,,,,,176,75,44,1,0,0,response1disk,,6,35,15,1,0,0,rectangle,35,15,1,0,0,35,15,1,0,0,1,118,278,155,1,,,,,,,,
,,,,,,,,,,,,,FF,,,,,,,,1.2857,,,,,,,,,,,,,,,,,,,,,,60fcc1523286b54d48b32cf5,610371705dfd0f61720e3910,2021-07-29_20h56.30.585,Simcolourproject_2stim_asymm_v5,2020.2.10,Win32,60,61025ae37ef11b136ea224fe,,,,,,,,,3756,105,42,1,0,0,response1disk,,6,25,-2,1,0,0,rectangle,25,-2,1,0,0,25,-2,1,0,0,1,119,279,8,1,,,,,,,,
,,,,,,,,,,,,,FF,,,,,,,,0.968,,,,,,,,,,,,,,,,,,,,,,60fcc1523286b54d48b32cf5,610371705dfd0f61720e3910,2021-07-29_20h56.30.585,Simcolourproject_2stim_asymm_v5,2020.2.10,Win32,60,61025ae37ef11b136ea224fe,,,,,,,,,3517,-49,-100,1,0,0,response5disk,,3,2,0,1,0,0,rectangle,2,0,1,0,0,2,0,1,0,0,1,120,280,24,1,,,,,,,,
,,,,,,,,,,,,,FF,,,,,,,,1.0689,,,,,,,,,,,,,,,,,,,,,,60fcc1523286b54d48b32cf5,610371705dfd0f61720e3910,2021-07-29_20h56.30.585,Simcolourproject_2stim_asymm_v5,2020.2.10,Win32,60,61025ae37ef11b136ea224fe,,,,,,,,,3091,-41,-69,1,0,0,response5disk,,3,-32,4,1,0,0,rectangle,-32,4,1,0,0,-32,4,1,0,0,1,121,281,108,1,,,,,,,,
,,,,,,,,,,,,,FF,,,,,,,,1.0837,,,,,,,,,,,,,,,,,,,,,,60fcc1523286b54d48b32cf5,610371705dfd0f61720e3910,2021-07-29_20h56.30.585,Simcolourproject_2stim_asymm_v5,2020.2.10,Win32,60,61025ae37ef11b136ea224fe,,,,,,,,,3580,70,-60,1,0,0,response3disk,,5,11,-11,1,0,0,rectangle,11,-11,1,0,0,11,-11,1,0,0,1,122,282,29,1,,,,,,,,
,,,,,,,,,,,,,FF,,,,,,,,1.4863,,,,,,,,,,,,,,,,,,,,,,60fcc1523286b54d48b32cf5,610371705dfd0f61720e3910,2021-07-29_20h56.30.585,Simcolourproject_2stim_asymm_v5,2020.2.10,Win32,60,61025ae37ef11b136ea224fe,,,,,,,,,2507,54,73,1,0,0,response1disk,,7,29,1,1,0,0,rectangle,29,1,1,0,0,29,1,1,0,0,1,123,283,152,1,,,,,,,,
,,,,,,,,,,,,,FF,,,,,,,,2.171,,,,,,,,,,,,,,,,,,,,,,60fcc1523286b54d48b32cf5,610371705dfd0f61720e3910,2021-07-29_20h56.30.585,Simcolourproject_2stim_asymm_v5,2020.2.10,Win32,60,61025ae37ef11b136ea224fe,,,,,,,,,1033,44,-65,1,0,0,response3disk,,4,47,13,1,0,0,rectangle,47,13,1,0,0,47,13,1,0,0,1,124,284,18,1,,,,,,,,
,,,,,,,,,,,,,FF,,,,,,,,0.8521,,,,,,,,,,,,,,,,,,,,,,60fcc1523286b54d48b32cf5,610371705dfd0f61720e3910,2021-07-29_20h56.30.585,Simcolourproject_2stim_asymm_v5,2020.2.10,Win32,60,61025ae37ef11b136ea224fe,,,,,,,,,2818,96,-34,1,0,0,response3disk,,5,34,13,1,0,0,rectangle,34,13,1,0,0,34,13,1,0,0,1,125,285,38,1,,,,,,,,
,,,,,,,,,,,,,FF,,,,,,,,1.8172,,,,,,,,,,,,,,,,,,,,,,60fcc1523286b54d48b32cf5,610371705dfd0f61720e3910,2021-07-29_20h56.30.585,Simcolourproject_2stim_asymm_v5,2020.2.10,Win32,60,61025ae37ef11b136ea224fe,,,,,,,,,2796,37,-72,1,0,0,response3disk,,4,-33,-1,1,0,0,rectangle,-33,-1,1,0,0,-33,-1,1,0,0,1,126,286,149,1,,,,,,,,
,,,,,,,,,,,,,FF,,,,,,,,1.1696,,,,,,,,,,,,,,,,,,,,,,60fcc1523286b54d48b32cf5,610371705dfd0f61720e3910,2021-07-29_20h56.30.585,Simcolourproject_2stim_asymm_v5,2020.2.10,Win32,60,61025ae37ef11b136ea224fe,,,,,,,,,1774,92,-42,1,0,0,response3disk,,5,26,-4,1,0,0,rectangle,26,-4,1,0,0,26,-4,1,0,0,1,127,287,90,1,,,,,,,,
,,,,,,,,,,,,,FF,,,,,,,,0.6655,,,,,,,,,,,,,,,,,,,,,,60fcc1523286b54d48b32cf5,610371705dfd0f61720e3910,2021-07-29_20h56.30.585,Simcolourproject_2stim_asymm_v5,2020.2.10,Win32,60,61025ae37ef11b136ea224fe,,,,,,,,,3960,92,40,1,0,0,response1disk,,6,17,14,1,0,0,rectangle,17,14,1,0,0,17,14,1,0,0,1,128,288,20,1,,,,,,,,
,,,,,,,,,,,,,FF,,,,,,,,0.8531,,,,,,,,,,,,,,,,,,,,,,60fcc1523286b54d48b32cf5,610371705dfd0f61720e3910,2021-07-29_20h56.30.585,Simcolourproject_2stim_asymm_v5,2020.2.10,Win32,60,61025ae37ef11b136ea224fe,,,,,,,,,2827,-50,-82,1,0,0,response5disk,,3,11,-9,1,0,0,rectangle,11,-9,1,0,0,11,-9,1,0,0,1,129,289,136,1,,,,,,,,
,,,,,,,,,,,,,FF,,,,,,,,1.8038,,,,,,,,,,,,,,,,,,,,,,60fcc1523286b54d48b32cf5,610371705dfd0f61720e3910,2021-07-29_20h56.30.585,Simcolourproject_2stim_asymm_v5,2020.2.10,Win32,60,61025ae37ef11b136ea224fe,,,,,,,,,3887,54,-72,1,0,0,response3disk,,4,12,3,1,0,0,rectangle,12,3,1,0,0,12,3,1,0,0,1,130,290,140,1,,,,,,,,
,,,,,,,,,,,,,FF,,,,,,,,0.9347,,,,,,,,,,,,,,,,,,,,,,60fcc1523286b54d48b32cf5,610371705dfd0f61720e3910,2021-07-29_20h56.30.585,Simcolourproject_2stim_asymm_v5,2020.2.10,Win32,60,61025ae37ef11b136ea224fe,,,,,,,,,1397,107,36,1,0,0,response1disk,,6,17,3,1,0,0,rectangle,17,3,1,0,0,17,3,1,0,0,1,131,291,157,1,,,,,,,,
,,,,,,,,,,,,,FF,,,,,,,,1.2685,,,,,,,,,,,,,,,,,,,,,,60fcc1523286b54d48b32cf5,610371705dfd0f61720e3910,2021-07-29_20h56.30.585,Simcolourproject_2stim_asymm_v5,2020.2.10,Win32,60,61025ae37ef11b136ea224fe,,,,,,,,,3128,44,64,1,0,0,response1disk,,7,45,16,1,0,0,rectangle,91,-54,1,0,0,-10,3,1,0,0,1,132,292,88,1,,response3disk_3,TRUE,5,5,"[101,300,18,49,48,200,252,227,319,99,272,293,322,268,122,161,302,128,187,93]",1.0833,rectangle
,,,,,,,,,,,,,FF,,,,,,,,1.8367,,,,,,,,,,,,,,,,,,,,,,60fcc1523286b54d48b32cf5,610371705dfd0f61720e3910,2021-07-29_20h56.30.585,Simcolourproject_2stim_asymm_v5,2020.2.10,Win32,60,61025ae37ef11b136ea224fe,,,,,,,,,1840,72,-37,1,0,0,response3disk,,5,11,-4,1,0,0,rectangle,11,-4,1,0,0,11,-4,1,0,0,1,133,293,67,1,,,,,,,,
,,,,,,,,,,,,,FF,,,,,,,,0.7341,,,,,,,,,,,,,,,,,,,,,,60fcc1523286b54d48b32cf5,610371705dfd0f61720e3910,2021-07-29_20h56.30.585,Simcolourproject_2stim_asymm_v5,2020.2.10,Win32,60,61025ae37ef11b136ea224fe,,,,,,,,,1635,117,46,1,0,0,response1disk,,6,24,-15,1,0,0,rectangle,24,-15,1,0,0,24,-15,1,0,0,1,134,294,51,1,,,,,,,,
,,,,,,,,,,,,,FF,,,,,,,,2.3364,,,,,,,,,,,,,,,,,,,,,,60fcc1523286b54d48b32cf5,610371705dfd0f61720e3910,2021-07-29_20h56.30.585,Simcolourproject_2stim_asymm_v5,2020.2.10,Win32,60,61025ae37ef11b136ea224fe,,,,,,,,,2315,68,-47,1,0,0,response3disk,,5,-21,4,1,0,0,rectangle,-21,4,1,0,0,-21,4,1,0,0,1,135,295,42,1,,,,,,,,
,,,,,,,,,,,,,FF,,,,,,,,0.7174,,,,,,,,,,,,,,,,,,,,,,60fcc1523286b54d48b32cf5,610371705dfd0f61720e3910,2021-07-29_20h56.30.585,Simcolourproject_2stim_asymm_v5,2020.2.10,Win32,60,61025ae37ef11b136ea224fe,,,,,,,,,1369,-42,-91,1,0,0,response5disk,,3,-27,-17,1,0,0,rectangle,-27,-17,1,0,0,-27,-17,1,0,0,1,136,296,41,1,,,,,,,,
,,,,,,,,,,,,,FF,,,,,,,,0.6981,,,,,,,,,,,,,,,,,,,,,,60fcc1523286b54d48b32cf5,610371705dfd0f61720e3910,2021-07-29_20h56.30.585,Simcolourproject_2stim_asymm_v5,2020.2.10,Win32,60,61025ae37ef11b136ea224fe,,,,,,,,,3209,120,-55,1,0,0,response3disk,,5,38,15,1,0,0,rectangle,38,15,1,0,0,38,15,1,0,0,1,137,297,98,1,,,,,,,,
,,,,,,,,,,,,,FF,,,,,,,,0.9689,,,,,,,,,,,,,,,,,,,,,,60fcc1523286b54d48b32cf5,610371705dfd0f61720e3910,2021-07-29_20h56.30.585,Simcolourproject_2stim_asymm_v5,2020.2.10,Win32,60,61025ae37ef11b136ea224fe,,,,,,,,,4278,81,36,1,0,0,response1disk,,6,12,2,1,0,0,rectangle,12,2,1,0,0,12,2,1,0,0,1,138,298,75,1,,,,,,,,
,,,,,,,,,,,,,FF,,,,,,,,0.8003,,,,,,,,,,,,,,,,,,,,,,60fcc1523286b54d48b32cf5,610371705dfd0f61720e3910,2021-07-29_20h56.30.585,Simcolourproject_2stim_asymm_v5,2020.2.10,Win32,60,61025ae37ef11b136ea224fe,,,,,,,,,3198,-29,-97,1,0,0,response5disk,,3,22,1,1,0,0,rectangle,125,-58,1,0,0,-16,-8,1,0,0,1,139,299,121,1,,response3disk_3,TRUE,5,5,"[101,300,18,49,48,200,252,227,319,99,272,293,322,268,122,161,302,128,187,93]",2.2059,rectangle
,,,,,,,,,,,,,FF,,,,,,,,0.752,,,,,,,,,,,,,,,,,,,,,,60fcc1523286b54d48b32cf5,610371705dfd0f61720e3910,2021-07-29_20h56.30.585,Simcolourproject_2stim_asymm_v5,2020.2.10,Win32,60,61025ae37ef11b136ea224fe,,,,,,,,,305,60,-87,1,0,0,response3disk,,4,13,7,1,0,0,rectangle,13,7,1,0,0,13,7,1,0,0,1,140,300,117,1,,,,,,,,
