key_resp.keys,key_resp.rt,key_resp_14.keys,key_resp_14.rt,key_resp_15.keys,key_resp_15.rt,key_resp_17.keys,key_resp_17.rt,key_resp_9.keys,key_resp_9.rt,key_resp_10.keys,key_resp_10.rt,practice_comparison,Ecc,mouse_5.x,mouse_5.y,mouse_5.leftButton,mouse_5.midButton,mouse_5.rightButton,mouse_5.clicked_name,pracsimilarity,response_time,mouse_10.x,mouse_10.y,mouse_10.leftButton,mouse_10.midButton,mouse_10.rightButton,mouse_10.clicked_name,mouse_7.x,mouse_7.y,mouse_7.leftButton,mouse_7.midButton,mouse_7.rightButton,mouse_6.x,mouse_6.y,mouse_6.leftButton,mouse_6.midButton,mouse_6.rightButton,duringprac.thisRepN,duringprac.thisTrialN,duringprac.thisN,duringprac.thisIndex,duringprac.ran,participant,session,date,expName,psychopyVersion,OS,frameRate,study_id,mouse_7.clicked_name,catchpracsimilarity,catch_response_time,catchnumberprac,catchtrialorderprac,mouse_6.clicked_name,key_resp_22.keys,key_resp_22.rt,realcomparison,mouse.x,mouse.y,mouse.leftButton,mouse.midButton,mouse.rightButton,mouse.clicked_name,Colour2,similarity,mouse_2.x,mouse_2.y,mouse_2.leftButton,mouse_2.midButton,mouse_2.rightButton,mouse_2.clicked_name,mouse_3.x,mouse_3.y,mouse_3.leftButton,mouse_3.midButton,mouse_3.rightButton,mouse_11.x,mouse_11.y,mouse_11.leftButton,mouse_11.midButton,mouse_11.rightButton,trials_2.thisRepN,trials_2.thisTrialN,trials_2.thisN,trials_2.thisIndex,trials_2.ran,Colour1,mouse_3.clicked_name,catchornah,catchsimilarity,catchnumber,catchtrialorder,catchRT,mouse_11.clicked_name
space,1.4393,space,10.0988,space,33.1869,space,5.397,space,2.5666,space,4.5962,150,PF,-31.99998188,-95.3333469,1,0,0,response5disk_5,3,13.2651,-4.666607042,-6.000010908,1,0,0,rectangle_8,-4.666607042,-6.000010908,1,0,0,-4.666607042,-6.000010908,1,0,0,0,0,0,4,1,60fcdb0781bec43078236d55,61036a1dd7d7cb15328b0efe,2021-07-29_22h56.27.922,Simcolourproject_2stim_asymm_v5,2020.2.10,Win32,60,61025ae37ef11b136ea224fe,,,,,,,,,,,,,,,,,,,,,,,,,,,,,,,,,,,,,,,,,,,,,,
,,,,,,,,,,,,117,PF,-39.33331543,-74.66667962,1,0,0,response5disk_5,3,2.3857,1.9735E-05,-0.666677415,1,0,0,rectangle_8,74.66668797,32.66665691,1,0,0,2.000019133,-2.666677475,1,0,0,0,1,1,6,1,60fcdb0781bec43078236d55,61036a1dd7d7cb15328b0efe,2021-07-29_22h56.27.922,Simcolourproject_2stim_asymm_v5,2020.2.10,Win32,60,61025ae37ef11b136ea224fe,response1disk_7,6,3.5305,6,"[2,5]",rectangle_4,,,,,,,,,,,,,,,,,,,,,,,,,,,,,,,,,,,,,,,,
,,,,,,,,,,,,39,FF,76.66668802,57.999991,1,0,0,response1disk_5,6,7.9947,-7.999981165,-0.666677415,1,0,0,rectangle_8,-7.999981165,-0.666677415,1,0,0,-7.999981165,-0.666677415,1,0,0,0,2,2,0,1,60fcdb0781bec43078236d55,61036a1dd7d7cb15328b0efe,2021-07-29_22h56.27.922,Simcolourproject_2stim_asymm_v5,2020.2.10,Win32,60,61025ae37ef11b136ea224fe,,,,,,,,,,,,,,,,,,,,,,,,,,,,,,,,,,,,,,,,,,,,,,
,,,,,,,,,,,,25,FF,43.3333537,75.99999154,1,0,0,response1disk_5,7,2.7662,-1.999980986,-2.000010788,1,0,0,rectangle_8,-1.999980986,-2.000010788,1,0,0,-1.999980986,-2.000010788,1,0,0,0,3,3,5,1,60fcdb0781bec43078236d55,61036a1dd7d7cb15328b0efe,2021-07-29_22h56.27.922,Simcolourproject_2stim_asymm_v5,2020.2.10,Win32,60,61025ae37ef11b136ea224fe,,,,,,,,,,,,,,,,,,,,,,,,,,,,,,,,,,,,,,,,,,,,,,
,,,,,,,,,,,,40,PF,-40.66660812,-84.00001323,1,0,0,response5disk_5,3,1.5661,0.66668576,-1.07288E-05,1,0,0,rectangle_8,76.66668802,49.99999076,1,0,0,-1.999980986,-1.333344102,1,0,0,0,4,4,2,1,60fcdb0781bec43078236d55,61036a1dd7d7cb15328b0efe,2021-07-29_22h56.27.922,Simcolourproject_2stim_asymm_v5,2020.2.10,Win32,60,61025ae37ef11b136ea224fe,response1disk_7,6,1.884,6,"[2,5]",rectangle_4,,,,,,,,,,,,,,,,,,,,,,,,,,,,,,,,,,,,,,,,
,,,,,,,,,,,,52,PF,-79.33331662,-43.33334535,1,0,0,response5disk_5,2,1.2318,-2.666606983,-6.666677594,1,0,0,rectangle_8,-2.666606983,-6.666677594,1,0,0,-2.666606983,-6.666677594,1,0,0,0,5,5,1,1,60fcdb0781bec43078236d55,61036a1dd7d7cb15328b0efe,2021-07-29_22h56.27.922,Simcolourproject_2stim_asymm_v5,2020.2.10,Win32,60,61025ae37ef11b136ea224fe,,,,,,,,,,,,,,,,,,,,,,,,,,,,,,,,,,,,,,,,,,,,,,
,,,,,,,,,,,,99,FF,-61.99998277,-30.00001162,1,0,0,response5disk_5,2,0.885,4.666685879,4.666656077,1,0,0,rectangle_8,4.666685879,4.666656077,1,0,0,4.666685879,4.666656077,1,0,0,0,6,6,3,1,60fcdb0781bec43078236d55,61036a1dd7d7cb15328b0efe,2021-07-29_22h56.27.922,Simcolourproject_2stim_asymm_v5,2020.2.10,Win32,60,61025ae37ef11b136ea224fe,,,,,,,,,,,,,,,,,,,,,,,,,,,,,,,,,,,,,,,,,,,,,,
,,,,,,,,,,,,,FF,,,,,,,,10.6935,,,,,,,,,,,,,,,,,,,,,,60fcdb0781bec43078236d55,61036a1dd7d7cb15328b0efe,2021-07-29_22h56.27.922,Simcolourproject_2stim_asymm_v5,2020.2.10,Win32,60,61025ae37ef11b136ea224fe,,,,,,,space,3.6083,2625,81.33335483,-38.66667855,1,0,0,response3disk,,5,1.9735E-05,-1.333344102,1,0,0,rectangle,1.9735E-05,-1.333344102,1,0,0,1.9735E-05,-1.333344102,1,0,0,0,0,0,68,1,,,,,,,,
,,,,,,,,,,,,,FF,,,,,,,,1.1007,,,,,,,,,,,,,,,,,,,,,,60fcdb0781bec43078236d55,61036a1dd7d7cb15328b0efe,2021-07-29_22h56.27.922,Simcolourproject_2stim_asymm_v5,2020.2.10,Win32,60,61025ae37ef11b136ea224fe,,,,,,,,,2752,64.66668767,-38.00001186,1,0,0,response3disk,,5,-9.999981225,0.666655958,1,0,0,rectangle,-9.999981225,0.666655958,1,0,0,-9.999981225,0.666655958,1,0,0,0,1,1,152,1,,,,,,,,
,,,,,,,,,,,,,FF,,,,,,,,2.2193,,,,,,,,,,,,,,,,,,,,,,60fcdb0781bec43078236d55,61036a1dd7d7cb15328b0efe,2021-07-29_22h56.27.922,Simcolourproject_2stim_asymm_v5,2020.2.10,Win32,60,61025ae37ef11b136ea224fe,,,,,,,,,4030,-29.33331513,-80.00001311,1,0,0,response5disk,,3,-10.66660722,-0.666677415,1,0,0,rectangle,-10.66660722,-0.666677415,1,0,0,-10.66660722,-0.666677415,1,0,0,0,2,2,60,1,,,,,,,,
,,,,,,,,,,,,,FF,,,,,,,,1.75,,,,,,,,,,,,,,,,,,,,,,60fcdb0781bec43078236d55,61036a1dd7d7cb15328b0efe,2021-07-29_22h56.27.922,Simcolourproject_2stim_asymm_v5,2020.2.10,Win32,60,61025ae37ef11b136ea224fe,,,,,,,,,174,-31.33331519,-72.66667956,1,0,0,response5disk,,3,-6.666607102,3.99998939,1,0,0,rectangle,-6.666607102,3.99998939,1,0,0,-6.666607102,3.99998939,1,0,0,0,3,3,39,1,,,,,,,,
,,,,,,,,,,,,,FF,,,,,,,,0.852,,,,,,,,,,,,,,,,,,,,,,60fcdb0781bec43078236d55,61036a1dd7d7cb15328b0efe,2021-07-29_22h56.27.922,Simcolourproject_2stim_asymm_v5,2020.2.10,Win32,60,61025ae37ef11b136ea224fe,,,,,,,,,3091,-37.99998206,-79.33334643,1,0,0,response5disk,,3,1.333393137,-2.000010788,1,0,0,rectangle,1.333393137,-2.000010788,1,0,0,1.333393137,-2.000010788,1,0,0,0,4,4,134,1,,,,,,,,
,,,,,,,,,,,,,FF,,,,,,,,1.0494,,,,,,,,,,,,,,,,,,,,,,60fcdb0781bec43078236d55,61036a1dd7d7cb15328b0efe,2021-07-29_22h56.27.922,Simcolourproject_2stim_asymm_v5,2020.2.10,Win32,60,61025ae37ef11b136ea224fe,,,,,,,,,4017,70.00002116,57.33330397,1,0,0,response1disk,,6,1.333393137,1.333322644,1,0,0,rectangle,1.333393137,1.333322644,1,0,0,1.333393137,1.333322644,1,0,0,0,5,5,138,1,,,,,,,,
,,,,,,,,,,,,,FF,,,,,,,,0.8321,,,,,,,,,,,,,,,,,,,,,,60fcdb0781bec43078236d55,61036a1dd7d7cb15328b0efe,2021-07-29_22h56.27.922,Simcolourproject_2stim_asymm_v5,2020.2.10,Win32,60,61025ae37ef11b136ea224fe,,,,,,,,,534,46.66668713,84.66665846,1,0,0,response1disk,,7,-3.999981046,-2.000010788,1,0,0,rectangle,-3.999981046,-2.000010788,1,0,0,-3.999981046,-2.000010788,1,0,0,0,6,6,29,1,,,,,,,,
,,,,,,,,,,,,,FF,,,,,,,,1.1839,,,,,,,,,,,,,,,,,,,,,,60fcdb0781bec43078236d55,61036a1dd7d7cb15328b0efe,2021-07-29_22h56.27.922,Simcolourproject_2stim_asymm_v5,2020.2.10,Win32,60,61025ae37ef11b136ea224fe,,,,,,,,,135,32.66668671,56.66665763,1,0,0,response1disk,,7,-1.999980986,-3.333344162,1,0,0,rectangle,-1.999980986,-3.333344162,1,0,0,-1.999980986,-3.333344162,1,0,0,0,7,7,26,1,,,,,,,,
,,,,,,,,,,,,,FF,,,,,,,,1.9494,,,,,,,,,,,,,,,,,,,,,,60fcdb0781bec43078236d55,61036a1dd7d7cb15328b0efe,2021-07-29_22h56.27.922,Simcolourproject_2stim_asymm_v5,2020.2.10,Win32,60,61025ae37ef11b136ea224fe,,,,,,,,,1919,68.66668779,31.33330319,1,0,0,response1disk,,6,-1.3333143,-6.666677594,1,0,0,rectangle,-1.3333143,-6.666677594,1,0,0,-1.3333143,-6.666677594,1,0,0,0,8,8,42,1,,,,,,,,
,,,,,,,,,,,,,FF,,,,,,,,1.0868,,,,,,,,,,,,,,,,,,,,,,60fcdb0781bec43078236d55,61036a1dd7d7cb15328b0efe,2021-07-29_22h56.27.922,Simcolourproject_2stim_asymm_v5,2020.2.10,Win32,60,61025ae37ef11b136ea224fe,,,,,,,,,3902,53.333354,-70.00001281,1,0,0,response3disk,,4,-0.666606923,-3.333344162,1,0,0,rectangle,-0.666606923,-3.333344162,1,0,0,-0.666606923,-3.333344162,1,0,0,0,9,9,109,1,,,,,,,,
,,,,,,,,,,,,,FF,,,,,,,,1.0672,,,,,,,,,,,,,,,,,,,,,,60fcdb0781bec43078236d55,61036a1dd7d7cb15328b0efe,2021-07-29_22h56.27.922,Simcolourproject_2stim_asymm_v5,2020.2.10,Win32,60,61025ae37ef11b136ea224fe,,,,,,,,,1685,36.00002015,-71.33334619,1,0,0,response3disk,,4,1.9735E-05,-0.666677415,1,0,0,rectangle,1.9735E-05,-0.666677415,1,0,0,1.9735E-05,-0.666677415,1,0,0,0,10,10,20,1,,,,,,,,
,,,,,,,,,,,,,FF,,,,,,,,0.8315,,,,,,,,,,,,,,,,,,,,,,60fcdb0781bec43078236d55,61036a1dd7d7cb15328b0efe,2021-07-29_22h56.27.922,Simcolourproject_2stim_asymm_v5,2020.2.10,Win32,60,61025ae37ef11b136ea224fe,,,,,,,,,1638,68.0000211,45.33330361,1,0,0,response1disk,,6,3.333393196,0.666655958,1,0,0,rectangle,3.333393196,0.666655958,1,0,0,3.333393196,0.666655958,1,0,0,0,11,11,40,1,,,,,,,,
,,,,,,,,,,,,,FF,,,,,,,,0.9715,,,,,,,,,,,,,,,,,,,,,,60fcdb0781bec43078236d55,61036a1dd7d7cb15328b0efe,2021-07-29_22h56.27.922,Simcolourproject_2stim_asymm_v5,2020.2.10,Win32,60,61025ae37ef11b136ea224fe,,,,,,,,,2037,24.66668648,-81.33334649,1,0,0,response3disk,,4,1.333393137,1.333322644,1,0,0,rectangle,1.333393137,1.333322644,1,0,0,1.333393137,1.333322644,1,0,0,0,12,12,53,1,,,,,,,,
,,,,,,,,,,,,,FF,,,,,,,,1.8405,,,,,,,,,,,,,,,,,,,,,,60fcdb0781bec43078236d55,61036a1dd7d7cb15328b0efe,2021-07-29_22h56.27.922,Simcolourproject_2stim_asymm_v5,2020.2.10,Win32,60,61025ae37ef11b136ea224fe,,,,,,,,,4281,-49.33331573,-76.00001299,1,0,0,response5disk,,3,-3.333314359,3.333322704,1,0,0,rectangle,40.00002027,-88.00001335,1,0,0,-9.333314538,4.666656077,1,0,0,0,13,13,151,1,,response3disk_3,TRUE,4,4,"[143,72,295,31,65,302,286,167,71,14,179,26,274,215,105,168,92,165,239,321]",1.7655,rectangle
,,,,,,,,,,,,,FF,,,,,,,,1.5,,,,,,,,,,,,,,,,,,,,,,60fcdb0781bec43078236d55,61036a1dd7d7cb15328b0efe,2021-07-29_22h56.27.922,Simcolourproject_2stim_asymm_v5,2020.2.10,Win32,60,61025ae37ef11b136ea224fe,,,,,,,,,2370,82.00002152,-52.66667897,1,0,0,response3disk,,5,-1.3333143,0.666655958,1,0,0,rectangle,-1.3333143,0.666655958,1,0,0,-1.3333143,0.666655958,1,0,0,0,14,14,124,1,,,,,,,,
,,,,,,,,,,,,,FF,,,,,,,,0.733,,,,,,,,,,,,,,,,,,,,,,60fcdb0781bec43078236d55,61036a1dd7d7cb15328b0efe,2021-07-29_22h56.27.922,Simcolourproject_2stim_asymm_v5,2020.2.10,Win32,60,61025ae37ef11b136ea224fe,,,,,,,,,1885,31.33339403,49.33330373,1,0,0,response1disk,,7,2.66668582,-1.333344102,1,0,0,rectangle,2.66668582,-1.333344102,1,0,0,2.66668582,-1.333344102,1,0,0,0,15,15,159,1,,,,,,,,
,,,,,,,,,,,,,FF,,,,,,,,0.8197,,,,,,,,,,,,,,,,,,,,,,60fcdb0781bec43078236d55,61036a1dd7d7cb15328b0efe,2021-07-29_22h56.27.922,Simcolourproject_2stim_asymm_v5,2020.2.10,Win32,60,61025ae37ef11b136ea224fe,,,,,,,,,860,35.33339415,55.33330391,1,0,0,response1disk,,7,1.9735E-05,-1.333344102,1,0,0,rectangle,1.9735E-05,-1.333344102,1,0,0,1.9735E-05,-1.333344102,1,0,0,0,16,16,135,1,,,,,,,,
,,,,,,,,,,,,,FF,,,,,,,,0.9327,,,,,,,,,,,,,,,,,,,,,,60fcdb0781bec43078236d55,61036a1dd7d7cb15328b0efe,2021-07-29_22h56.27.922,Simcolourproject_2stim_asymm_v5,2020.2.10,Win32,60,61025ae37ef11b136ea224fe,,,,,,,,,1479,69.33335447,39.33330343,1,0,0,response1disk,,6,-1.3333143,0.666655958,1,0,0,rectangle,-1.3333143,0.666655958,1,0,0,-1.3333143,0.666655958,1,0,0,0,17,17,80,1,,,,,,,,
,,,,,,,,,,,,,FF,,,,,,,,1.3324,,,,,,,,,,,,,,,,,,,,,,60fcdb0781bec43078236d55,61036a1dd7d7cb15328b0efe,2021-07-29_22h56.27.922,Simcolourproject_2stim_asymm_v5,2020.2.10,Win32,60,61025ae37ef11b136ea224fe,,,,,,,,,3774,69.33335447,32.66665691,1,0,0,response1disk,,6,-5.333314419,-2.666677475,1,0,0,rectangle,-5.333314419,-2.666677475,1,0,0,-5.333314419,-2.666677475,1,0,0,0,18,18,93,1,,,,,,,,
,,,,,,,,,,,,,FF,,,,,,,,1.1674,,,,,,,,,,,,,,,,,,,,,,60fcdb0781bec43078236d55,61036a1dd7d7cb15328b0efe,2021-07-29_22h56.27.922,Simcolourproject_2stim_asymm_v5,2020.2.10,Win32,60,61025ae37ef11b136ea224fe,,,,,,,,,2031,-50.66660841,-64.66667932,1,0,0,response5disk,,3,1.9735E-05,2.666656017,1,0,0,rectangle,1.9735E-05,2.666656017,1,0,0,1.9735E-05,2.666656017,1,0,0,0,19,19,27,1,,,,,,,,
,,,,,,,,,,,,,FF,,,,,,,,1.2979,,,,,,,,,,,,,,,,,,,,,,60fcdb0781bec43078236d55,61036a1dd7d7cb15328b0efe,2021-07-29_22h56.27.922,Simcolourproject_2stim_asymm_v5,2020.2.10,Win32,60,61025ae37ef11b136ea224fe,,,,,,,,,919,85.33335495,39.33330343,1,0,0,response1disk,,6,1.333393137,-4.000010848,1,0,0,rectangle,1.333393137,-4.000010848,1,0,0,1.333393137,-4.000010848,1,0,0,0,20,20,18,1,,,,,,,,
,,,,,,,,,,,,,FF,,,,,,,,0.9672,,,,,,,,,,,,,,,,,,,,,,60fcdb0781bec43078236d55,61036a1dd7d7cb15328b0efe,2021-07-29_22h56.27.922,Simcolourproject_2stim_asymm_v5,2020.2.10,Win32,60,61025ae37ef11b136ea224fe,,,,,,,,,2639,71.33335453,49.33330373,1,0,0,response1disk,,6,-1.999980986,-2.666677475,1,0,0,rectangle,-1.999980986,-2.666677475,1,0,0,-1.999980986,-2.666677475,1,0,0,0,21,21,111,1,,,,,,,,
,,,,,,,,,,,,,FF,,,,,,,,1.3983,,,,,,,,,,,,,,,,,,,,,,60fcdb0781bec43078236d55,61036a1dd7d7cb15328b0efe,2021-07-29_22h56.27.922,Simcolourproject_2stim_asymm_v5,2020.2.10,Win32,60,61025ae37ef11b136ea224fe,,,,,,,,,3027,37.33339421,62.66665781,1,0,0,response1disk,,7,-1.3333143,-8.000010967,1,0,0,rectangle,-1.3333143,-8.000010967,1,0,0,-1.3333143,-8.000010967,1,0,0,0,22,22,119,1,,,,,,,,
,,,,,,,,,,,,,FF,,,,,,,,0.65,,,,,,,,,,,,,,,,,,,,,,60fcdb0781bec43078236d55,61036a1dd7d7cb15328b0efe,2021-07-29_22h56.27.922,Simcolourproject_2stim_asymm_v5,2020.2.10,Win32,60,61025ae37ef11b136ea224fe,,,,,,,,,4010,31.33339403,53.99999088,1,0,0,response1disk,,7,-3.333314359,0.666655958,1,0,0,rectangle,-3.333314359,0.666655958,1,0,0,-3.333314359,0.666655958,1,0,0,0,23,23,35,1,,,,,,,,
,,,,,,,,,,,,,FF,,,,,,,,0.8665,,,,,,,,,,,,,,,,,,,,,,60fcdb0781bec43078236d55,61036a1dd7d7cb15328b0efe,2021-07-29_22h56.27.922,Simcolourproject_2stim_asymm_v5,2020.2.10,Win32,60,61025ae37ef11b136ea224fe,,,,,,,,,695,32.66668671,-66.0000127,1,0,0,response3disk,,4,2.66668582,-0.666677415,1,0,0,rectangle,2.66668582,-0.666677415,1,0,0,2.66668582,-0.666677415,1,0,0,0,24,24,155,1,,,,,,,,
,,,,,,,,,,,,,FF,,,,,,,,1.0863,,,,,,,,,,,,,,,,,,,,,,60fcdb0781bec43078236d55,61036a1dd7d7cb15328b0efe,2021-07-29_22h56.27.922,Simcolourproject_2stim_asymm_v5,2020.2.10,Win32,60,61025ae37ef11b136ea224fe,,,,,,,,,1326,86.00002164,33.33330325,1,0,0,response1disk,,6,1.9735E-05,3.99998939,1,0,0,rectangle,34.66668677,66.66665792,1,0,0,-1.999980986,-4.666677535,1,0,0,0,25,25,122,1,,response1disk_3,TRUE,7,7,"[143,72,295,31,65,302,286,167,71,14,179,26,274,215,105,168,92,165,239,321]",1.5324,rectangle
,,,,,,,,,,,,,FF,,,,,,,,1.5055,,,,,,,,,,,,,,,,,,,,,,60fcdb0781bec43078236d55,61036a1dd7d7cb15328b0efe,2021-07-29_22h56.27.922,Simcolourproject_2stim_asymm_v5,2020.2.10,Win32,60,61025ae37ef11b136ea224fe,,,,,,,,,3555,28.00001991,-85.33334661,1,0,0,response3disk,,4,-1.999980986,1.333322644,1,0,0,rectangle,-1.999980986,1.333322644,1,0,0,-1.999980986,1.333322644,1,0,0,0,26,26,65,1,,,,,,,,
,,,,,,,,,,,,,FF,,,,,,,,1.0165,,,,,,,,,,,,,,,,,,,,,,60fcdb0781bec43078236d55,61036a1dd7d7cb15328b0efe,2021-07-29_22h56.27.922,Simcolourproject_2stim_asymm_v5,2020.2.10,Win32,60,61025ae37ef11b136ea224fe,,,,,,,,,1719,37.33339421,57.999991,1,0,0,response1disk,,7,-1.999980986,-0.666677415,1,0,0,rectangle,-1.999980986,-0.666677415,1,0,0,-1.999980986,-0.666677415,1,0,0,0,27,27,95,1,,,,,,,,
,,,,,,,,,,,,,FF,,,,,,,,0.894,,,,,,,,,,,,,,,,,,,,,,60fcdb0781bec43078236d55,61036a1dd7d7cb15328b0efe,2021-07-29_22h56.27.922,Simcolourproject_2stim_asymm_v5,2020.2.10,Win32,60,61025ae37ef11b136ea224fe,,,,,,,,,425,44.66668707,76.66665822,1,0,0,response1disk,,7,1.9735E-05,-9.33334434,1,0,0,rectangle,1.9735E-05,-9.33334434,1,0,0,1.9735E-05,-9.33334434,1,0,0,0,28,28,82,1,,,,,,,,
,,,,,,,,,,,,,FF,,,,,,,,1.1495,,,,,,,,,,,,,,,,,,,,,,60fcdb0781bec43078236d55,61036a1dd7d7cb15328b0efe,2021-07-29_22h56.27.922,Simcolourproject_2stim_asymm_v5,2020.2.10,Win32,60,61025ae37ef11b136ea224fe,,,,,,,,,1630,71.33335453,42.66665721,1,0,0,response1disk,,6,1.9735E-05,-1.333344102,1,0,0,rectangle,1.9735E-05,-1.333344102,1,0,0,1.9735E-05,-1.333344102,1,0,0,0,29,29,52,1,,,,,,,,
,,,,,,,,,,,,,FF,,,,,,,,0.9667,,,,,,,,,,,,,,,,,,,,,,60fcdb0781bec43078236d55,61036a1dd7d7cb15328b0efe,2021-07-29_22h56.27.922,Simcolourproject_2stim_asymm_v5,2020.2.10,Win32,60,61025ae37ef11b136ea224fe,,,,,,,,,1151,73.33335459,-48.00001216,1,0,0,response3disk,,5,2.000019133,1.333322644,1,0,0,rectangle,-33.33331525,-74.00001293,1,0,0,-5.333314419,-2.000010788,1,0,0,0,30,30,61,1,,response5disk_3,TRUE,3,3,"[143,72,295,31,65,302,286,167,71,14,179,26,274,215,105,168,92,165,239,321]",1.2316,rectangle
,,,,,,,,,,,,,FF,,,,,,,,1.3239,,,,,,,,,,,,,,,,,,,,,,60fcdb0781bec43078236d55,61036a1dd7d7cb15328b0efe,2021-07-29_22h56.27.922,Simcolourproject_2stim_asymm_v5,2020.2.10,Win32,60,61025ae37ef11b136ea224fe,,,,,,,,,1808,17.33339361,-73.33334625,1,0,0,response3disk,,4,-2.666606983,3.333322704,1,0,0,rectangle,-2.666606983,3.333322704,1,0,0,-2.666606983,3.333322704,1,0,0,0,31,31,101,1,,,,,,,,
,,,,,,,,,,,,,FF,,,,,,,,1.1663,,,,,,,,,,,,,,,,,,,,,,60fcdb0781bec43078236d55,61036a1dd7d7cb15328b0efe,2021-07-29_22h56.27.922,Simcolourproject_2stim_asymm_v5,2020.2.10,Win32,60,61025ae37ef11b136ea224fe,,,,,,,,,573,41.33339433,69.99999136,1,0,0,response1disk,,7,-1.3333143,-1.333344102,1,0,0,rectangle,-1.3333143,-1.333344102,1,0,0,-1.3333143,-1.333344102,1,0,0,0,32,32,62,1,,,,,,,,
,,,,,,,,,,,,,FF,,,,,,,,0.9158,,,,,,,,,,,,,,,,,,,,,,60fcdb0781bec43078236d55,61036a1dd7d7cb15328b0efe,2021-07-29_22h56.27.922,Simcolourproject_2stim_asymm_v5,2020.2.10,Win32,60,61025ae37ef11b136ea224fe,,,,,,,,,877,30.66668665,59.99999106,1,0,0,response1disk,,7,1.333393137,7.99998951,1,0,0,rectangle,1.333393137,7.99998951,1,0,0,1.333393137,7.99998951,1,0,0,0,33,33,86,1,,,,,,,,
,,,,,,,,,,,,,FF,,,,,,,,1.2337,,,,,,,,,,,,,,,,,,,,,,60fcdb0781bec43078236d55,61036a1dd7d7cb15328b0efe,2021-07-29_22h56.27.922,Simcolourproject_2stim_asymm_v5,2020.2.10,Win32,60,61025ae37ef11b136ea224fe,,,,,,,,,3919,86.66668832,29.99999017,1,0,0,response1disk,,6,2.66668582,2.666656017,1,0,0,rectangle,2.66668582,2.666656017,1,0,0,2.66668582,2.666656017,1,0,0,0,34,34,55,1,,,,,,,,
,,,,,,,,,,,,,FF,,,,,,,,0.9739,,,,,,,,,,,,,,,,,,,,,,60fcdb0781bec43078236d55,61036a1dd7d7cb15328b0efe,2021-07-29_22h56.27.922,Simcolourproject_2stim_asymm_v5,2020.2.10,Win32,60,61025ae37ef11b136ea224fe,,,,,,,,,2862,83.33335489,51.99999082,1,0,0,response1disk,,6,3.333393196,1.999989331,1,0,0,rectangle,3.333393196,1.999989331,1,0,0,3.333393196,1.999989331,1,0,0,0,35,35,118,1,,,,,,,,
,,,,,,,,,,,,,FF,,,,,,,,1.4357,,,,,,,,,,,,,,,,,,,,,,60fcdb0781bec43078236d55,61036a1dd7d7cb15328b0efe,2021-07-29_22h56.27.922,Simcolourproject_2stim_asymm_v5,2020.2.10,Win32,60,61025ae37ef11b136ea224fe,,,,,,,,,3362,37.33339421,69.99999136,1,0,0,response1disk,,7,-7.333314478,-2.000010788,1,0,0,rectangle,-7.333314478,-2.000010788,1,0,0,-7.333314478,-2.000010788,1,0,0,0,36,36,131,1,,,,,,,,
,,,,,,,,,,,,,FF,,,,,,,,0.8675,,,,,,,,,,,,,,,,,,,,,,60fcdb0781bec43078236d55,61036a1dd7d7cb15328b0efe,2021-07-29_22h56.27.922,Simcolourproject_2stim_asymm_v5,2020.2.10,Win32,60,61025ae37ef11b136ea224fe,,,,,,,,,1423,68.0000211,-24.00001144,1,0,0,response3disk,,5,-11.3333146,-2.000010788,1,0,0,rectangle,-11.3333146,-2.000010788,1,0,0,-11.3333146,-2.000010788,1,0,0,0,37,37,90,1,,,,,,,,
,,,,,,,,,,,,,FF,,,,,,,,1.2153,,,,,,,,,,,,,,,,,,,,,,60fcdb0781bec43078236d55,61036a1dd7d7cb15328b0efe,2021-07-29_22h56.27.922,Simcolourproject_2stim_asymm_v5,2020.2.10,Win32,60,61025ae37ef11b136ea224fe,,,,,,,,,2810,67.33335441,53.99999088,1,0,0,response1disk,,6,0.66668576,-1.333344102,1,0,0,rectangle,0.66668576,-1.333344102,1,0,0,0.66668576,-1.333344102,1,0,0,0,38,38,24,1,,,,,,,,
,,,,,,,,,,,,,FF,,,,,,,,0.916,,,,,,,,,,,,,,,,,,,,,,60fcdb0781bec43078236d55,61036a1dd7d7cb15328b0efe,2021-07-29_22h56.27.922,Simcolourproject_2stim_asymm_v5,2020.2.10,Win32,60,61025ae37ef11b136ea224fe,,,,,,,,,2750,38.66668689,73.33330444,1,0,0,response1disk,,7,-2.666606983,2.666656017,1,0,0,rectangle,-2.666606983,2.666656017,1,0,0,-2.666606983,2.666656017,1,0,0,0,39,39,76,1,,,,,,,,
,,,,,,,,,,,,,FF,,,,,,,,1.3835,,,,,,,,,,,,,,,,,,,,,,60fcdb0781bec43078236d55,61036a1dd7d7cb15328b0efe,2021-07-29_22h56.27.922,Simcolourproject_2stim_asymm_v5,2020.2.10,Win32,60,61025ae37ef11b136ea224fe,,,,,,,,,1828,36.00002015,-74.00001293,1,0,0,response3disk,,4,-4.666607042,-1.07288E-05,1,0,0,rectangle,-4.666607042,-1.07288E-05,1,0,0,-4.666607042,-1.07288E-05,1,0,0,0,40,40,88,1,,,,,,,,
,,,,,,,,,,,,,FF,,,,,,,,0.8003,,,,,,,,,,,,,,,,,,,,,,60fcdb0781bec43078236d55,61036a1dd7d7cb15328b0efe,2021-07-29_22h56.27.922,Simcolourproject_2stim_asymm_v5,2020.2.10,Win32,60,61025ae37ef11b136ea224fe,,,,,,,,,721,-37.99998206,-80.00001311,1,0,0,response5disk,,3,-1.999980986,-4.666677535,1,0,0,rectangle,-1.999980986,-4.666677535,1,0,0,-1.999980986,-4.666677535,1,0,0,0,41,41,117,1,,,,,,,,
,,,,,,,,,,,,,FF,,,,,,,,0.9657,,,,,,,,,,,,,,,,,,,,,,60fcdb0781bec43078236d55,61036a1dd7d7cb15328b0efe,2021-07-29_22h56.27.922,Simcolourproject_2stim_asymm_v5,2020.2.10,Win32,60,61025ae37ef11b136ea224fe,,,,,,,,,704,21.33339373,-60.00001252,1,0,0,response3disk,,4,-7.999981165,9.333322883,1,0,0,rectangle,-7.999981165,9.333322883,1,0,0,-7.999981165,9.333322883,1,0,0,0,42,42,115,1,,,,,,,,
,,,,,,,,,,,,,FF,,,,,,,,0.9655,,,,,,,,,,,,,,,,,,,,,,60fcdb0781bec43078236d55,61036a1dd7d7cb15328b0efe,2021-07-29_22h56.27.922,Simcolourproject_2stim_asymm_v5,2020.2.10,Win32,60,61025ae37ef11b136ea224fe,,,,,,,,,30,66.66668773,36.66665703,1,0,0,response1disk,,6,1.9735E-05,-2.000010788,1,0,0,rectangle,1.9735E-05,-2.000010788,1,0,0,1.9735E-05,-2.000010788,1,0,0,0,43,43,6,1,,,,,,,,
,,,,,,,,,,,,,FF,,,,,,,,1.2493,,,,,,,,,,,,,,,,,,,,,,60fcdb0781bec43078236d55,61036a1dd7d7cb15328b0efe,2021-07-29_22h56.27.922,Simcolourproject_2stim_asymm_v5,2020.2.10,Win32,60,61025ae37ef11b136ea224fe,,,,,,,,,2724,-35.999982,-75.33334631,1,0,0,response5disk,,3,6.000019252,2.666656017,1,0,0,rectangle,6.000019252,2.666656017,1,0,0,6.000019252,2.666656017,1,0,0,0,44,44,44,1,,,,,,,,
,,,,,,,,,,,,,FF,,,,,,,,1.2161,,,,,,,,,,,,,,,,,,,,,,60fcdb0781bec43078236d55,61036a1dd7d7cb15328b0efe,2021-07-29_22h56.27.922,Simcolourproject_2stim_asymm_v5,2020.2.10,Win32,60,61025ae37ef11b136ea224fe,,,,,,,,,2908,69.33335447,-52.00001228,1,0,0,response3disk,,5,-3.999981046,-2.000010788,1,0,0,rectangle,-3.999981046,-2.000010788,1,0,0,-3.999981046,-2.000010788,1,0,0,0,45,45,11,1,,,,,,,,
,,,,,,,,,,,,,FF,,,,,,,,1.2833,,,,,,,,,,,,,,,,,,,,,,60fcdb0781bec43078236d55,61036a1dd7d7cb15328b0efe,2021-07-29_22h56.27.922,Simcolourproject_2stim_asymm_v5,2020.2.10,Win32,60,61025ae37ef11b136ea224fe,,,,,,,,,2765,40.00002027,65.99999124,1,0,0,response1disk,,7,-8.666607161,2.666656017,1,0,0,rectangle,-8.666607161,2.666656017,1,0,0,-8.666607161,2.666656017,1,0,0,0,46,46,22,1,,,,,,,,
,,,,,,,,,,,,,FF,,,,,,,,1.506,,,,,,,,,,,,,,,,,,,,,,60fcdb0781bec43078236d55,61036a1dd7d7cb15328b0efe,2021-07-29_22h56.27.922,Simcolourproject_2stim_asymm_v5,2020.2.10,Win32,60,61025ae37ef11b136ea224fe,,,,,,,,,4211,78.66668808,42.66665721,1,0,0,response1disk,,6,1.9735E-05,5.333322763,1,0,0,rectangle,1.9735E-05,5.333322763,1,0,0,1.9735E-05,5.333322763,1,0,0,0,47,47,66,1,,,,,,,,
,,,,,,,,,,,,,FF,,,,,,,,0.9179,,,,,,,,,,,,,,,,,,,,,,60fcdb0781bec43078236d55,61036a1dd7d7cb15328b0efe,2021-07-29_22h56.27.922,Simcolourproject_2stim_asymm_v5,2020.2.10,Win32,60,61025ae37ef11b136ea224fe,,,,,,,,,3576,56.00002074,37.33330337,1,0,0,response1disk,,6,-1.3333143,-1.333344102,1,0,0,rectangle,-1.3333143,-1.333344102,1,0,0,-1.3333143,-1.333344102,1,0,0,0,48,48,59,1,,,,,,,,
,,,,,,,,,,,,,FF,,,,,,,,0.8329,,,,,,,,,,,,,,,,,,,,,,60fcdb0781bec43078236d55,61036a1dd7d7cb15328b0efe,2021-07-29_22h56.27.922,Simcolourproject_2stim_asymm_v5,2020.2.10,Win32,60,61025ae37ef11b136ea224fe,,,,,,,,,982,67.33335441,39.99999046,1,0,0,response1disk,,6,-2.666606983,-1.07288E-05,1,0,0,rectangle,-2.666606983,-1.07288E-05,1,0,0,-2.666606983,-1.07288E-05,1,0,0,0,49,49,36,1,,,,,,,,
,,,,,,,,,,,,,FF,,,,,,,,0.8382,,,,,,,,,,,,,,,,,,,,,,60fcdb0781bec43078236d55,61036a1dd7d7cb15328b0efe,2021-07-29_22h56.27.922,Simcolourproject_2stim_asymm_v5,2020.2.10,Win32,60,61025ae37ef11b136ea224fe,,,,,,,,,2623,40.66668695,53.99999088,1,0,0,response1disk,,7,4.000019193,-1.07288E-05,1,0,0,rectangle,4.000019193,-1.07288E-05,1,0,0,4.000019193,-1.07288E-05,1,0,0,0,50,50,102,1,,,,,,,,
,,,,,,,,,,,,,FF,,,,,,,,1.2347,,,,,,,,,,,,,,,,,,,,,,60fcdb0781bec43078236d55,61036a1dd7d7cb15328b0efe,2021-07-29_22h56.27.922,Simcolourproject_2stim_asymm_v5,2020.2.10,Win32,60,61025ae37ef11b136ea224fe,,,,,,,,,3023,60.66668755,25.99999005,1,0,0,response1disk,,6,-4.666607042,1.333322644,1,0,0,rectangle,-4.666607042,1.333322644,1,0,0,-4.666607042,1.333322644,1,0,0,0,51,51,107,1,,,,,,,,
,,,,,,,,,,,,,FF,,,,,,,,1.9488,,,,,,,,,,,,,,,,,,,,,,60fcdb0781bec43078236d55,61036a1dd7d7cb15328b0efe,2021-07-29_22h56.27.922,Simcolourproject_2stim_asymm_v5,2020.2.10,Win32,60,61025ae37ef11b136ea224fe,,,,,,,,,1750,-79.99998331,-46.66667879,1,0,0,response5disk,,2,-1.3333143,1.333322644,1,0,0,rectangle,-1.3333143,1.333322644,1,0,0,-1.3333143,1.333322644,1,0,0,0,52,52,46,1,,,,,,,,
,,,,,,,,,,,,,FF,,,,,,,,0.8508,,,,,,,,,,,,,,,,,,,,,,60fcdb0781bec43078236d55,61036a1dd7d7cb15328b0efe,2021-07-29_22h56.27.922,Simcolourproject_2stim_asymm_v5,2020.2.10,Win32,60,61025ae37ef11b136ea224fe,,,,,,,,,4204,72.66668791,46.66665733,1,0,0,response1disk,,6,6.666685939,-5.333344221,1,0,0,rectangle,6.666685939,-5.333344221,1,0,0,6.666685939,-5.333344221,1,0,0,0,53,53,150,1,,,,,,,,
,,,,,,,,,,,,,FF,,,,,,,,1.0165,,,,,,,,,,,,,,,,,,,,,,60fcdb0781bec43078236d55,61036a1dd7d7cb15328b0efe,2021-07-29_22h56.27.922,Simcolourproject_2stim_asymm_v5,2020.2.10,Win32,60,61025ae37ef11b136ea224fe,,,,,,,,,3119,54.00002068,44.66665727,1,0,0,response1disk,,6,-9.999981225,1.333322644,1,0,0,rectangle,-9.999981225,1.333322644,1,0,0,-9.999981225,1.333322644,1,0,0,0,54,54,121,1,,,,,,,,
,,,,,,,,,,,,,FF,,,,,,,,0.9359,,,,,,,,,,,,,,,,,,,,,,60fcdb0781bec43078236d55,61036a1dd7d7cb15328b0efe,2021-07-29_22h56.27.922,Simcolourproject_2stim_asymm_v5,2020.2.10,Win32,60,61025ae37ef11b136ea224fe,,,,,,,,,176,28.66668659,46.66665733,1,0,0,response1disk,,7,2.000019133,1.999989331,1,0,0,rectangle,2.000019133,1.999989331,1,0,0,2.000019133,1.999989331,1,0,0,0,55,55,47,1,,,,,,,,
,,,,,,,,,,,,,FF,,,,,,,,0.8327,,,,,,,,,,,,,,,,,,,,,,60fcdb0781bec43078236d55,61036a1dd7d7cb15328b0efe,2021-07-29_22h56.27.922,Simcolourproject_2stim_asymm_v5,2020.2.10,Win32,60,61025ae37ef11b136ea224fe,,,,,,,,,1887,-72.66660907,-39.33334523,1,0,0,response5disk,,2,-8.666607161,-3.333344162,1,0,0,rectangle,-8.666607161,-3.333344162,1,0,0,-8.666607161,-3.333344162,1,0,0,0,56,56,156,1,,,,,,,,
,,,,,,,,,,,,,FF,,,,,,,,0.9163,,,,,,,,,,,,,,,,,,,,,,60fcdb0781bec43078236d55,61036a1dd7d7cb15328b0efe,2021-07-29_22h56.27.922,Simcolourproject_2stim_asymm_v5,2020.2.10,Win32,60,61025ae37ef11b136ea224fe,,,,,,,,,1673,-40.66660812,-69.33334613,1,0,0,response5disk,,3,6.000019252,5.333322763,1,0,0,rectangle,6.000019252,5.333322763,1,0,0,6.000019252,5.333322763,1,0,0,0,57,57,113,1,,,,,,,,
,,,,,,,,,,,,,FF,,,,,,,,1.6482,,,,,,,,,,,,,,,,,,,,,,60fcdb0781bec43078236d55,61036a1dd7d7cb15328b0efe,2021-07-29_22h56.27.922,Simcolourproject_2stim_asymm_v5,2020.2.10,Win32,60,61025ae37ef11b136ea224fe,,,,,,,,,918,46.66668713,73.99999148,1,0,0,response1disk,,7,-1.3333143,-3.333344162,1,0,0,rectangle,-1.3333143,-3.333344162,1,0,0,-1.3333143,-3.333344162,1,0,0,0,58,58,16,1,,,,,,,,
,,,,,,,,,,,,,FF,,,,,,,,0.983,,,,,,,,,,,,,,,,,,,,,,60fcdb0781bec43078236d55,61036a1dd7d7cb15328b0efe,2021-07-29_22h56.27.922,Simcolourproject_2stim_asymm_v5,2020.2.10,Win32,60,61025ae37ef11b136ea224fe,,,,,,,,,1057,75.33335465,-48.66667885,1,0,0,response3disk,,5,2.66668582,1.999989331,1,0,0,rectangle,2.66668582,1.999989331,1,0,0,2.66668582,1.999989331,1,0,0,0,59,59,97,1,,,,,,,,
,,,,,,,,,,,,,FF,,,,,,,,2.0318,,,,,,,,,,,,,,,,,,,,,,60fcdb0781bec43078236d55,61036a1dd7d7cb15328b0efe,2021-07-29_22h56.27.922,Simcolourproject_2stim_asymm_v5,2020.2.10,Win32,60,61025ae37ef11b136ea224fe,,,,,,,,,2672,73.33335459,45.99999064,1,0,0,response1disk,,6,-7.999981165,-2.000010788,1,0,0,rectangle,-7.999981165,-2.000010788,1,0,0,-7.999981165,-2.000010788,1,0,0,0,60,60,34,1,,,,,,,,
,,,,,,,,,,,,,FF,,,,,,,,1.3161,,,,,,,,,,,,,,,,,,,,,,60fcdb0781bec43078236d55,61036a1dd7d7cb15328b0efe,2021-07-29_22h56.27.922,Simcolourproject_2stim_asymm_v5,2020.2.10,Win32,60,61025ae37ef11b136ea224fe,,,,,,,,,3396,32.66668671,-90.6666801,1,0,0,response3disk,,4,-1.3333143,-6.000010908,1,0,0,rectangle,-1.3333143,-6.000010908,1,0,0,-1.3333143,-6.000010908,1,0,0,0,61,61,25,1,,,,,,,,
,,,,,,,,,,,,,FF,,,,,,,,1.1396,,,,,,,,,,,,,,,,,,,,,,60fcdb0781bec43078236d55,61036a1dd7d7cb15328b0efe,2021-07-29_22h56.27.922,Simcolourproject_2stim_asymm_v5,2020.2.10,Win32,60,61025ae37ef11b136ea224fe,,,,,,,,,3840,59.33335418,62.66665781,1,0,0,response1disk,,7,-7.333314478,-3.333344162,1,0,0,rectangle,-7.333314478,-3.333344162,1,0,0,-7.333314478,-3.333344162,1,0,0,0,62,62,54,1,,,,,,,,
,,,,,,,,,,,,,FF,,,,,,,,1.2491,,,,,,,,,,,,,,,,,,,,,,60fcdb0781bec43078236d55,61036a1dd7d7cb15328b0efe,2021-07-29_22h56.27.922,Simcolourproject_2stim_asymm_v5,2020.2.10,Win32,60,61025ae37ef11b136ea224fe,,,,,,,,,2308,79.33335477,-56.66667908,1,0,0,response3disk,,5,4.000019193,-4.000010848,1,0,0,rectangle,4.000019193,-4.000010848,1,0,0,4.000019193,-4.000010848,1,0,0,0,63,63,67,1,,,,,,,,
,,,,,,,,,,,,,FF,,,,,,,,1.2547,,,,,,,,,,,,,,,,,,,,,,60fcdb0781bec43078236d55,61036a1dd7d7cb15328b0efe,2021-07-29_22h56.27.922,Simcolourproject_2stim_asymm_v5,2020.2.10,Win32,60,61025ae37ef11b136ea224fe,,,,,,,,,2264,90.00002176,44.66665727,1,0,0,response1disk,,6,1.333393137,2.666656017,1,0,0,rectangle,26.00001985,-82.66667986,1,0,0,-10.66660722,1.333322644,1,0,0,0,64,64,141,1,,response3disk_3,TRUE,4,4,"[143,72,295,31,65,302,286,167,71,14,179,26,274,215,105,168,92,165,239,321]",1.4339,rectangle
,,,,,,,,,,,,,FF,,,,,,,,1.865,,,,,,,,,,,,,,,,,,,,,,60fcdb0781bec43078236d55,61036a1dd7d7cb15328b0efe,2021-07-29_22h56.27.922,Simcolourproject_2stim_asymm_v5,2020.2.10,Win32,60,61025ae37ef11b136ea224fe,,,,,,,,,1327,80.00002146,29.99999017,1,0,0,response1disk,,6,-1.3333143,1.333322644,1,0,0,rectangle,-1.3333143,1.333322644,1,0,0,-1.3333143,1.333322644,1,0,0,0,65,65,116,1,,,,,,,,
,,,,,,,,,,,,,FF,,,,,,,,2.8976,,,,,,,,,,,,,,,,,,,,,,60fcdb0781bec43078236d55,61036a1dd7d7cb15328b0efe,2021-07-29_22h56.27.922,Simcolourproject_2stim_asymm_v5,2020.2.10,Win32,60,61025ae37ef11b136ea224fe,,,,,,,,,836,82.00002152,-47.33334547,1,0,0,response3disk,,5,8.000019312,-6.000010908,1,0,0,rectangle,8.000019312,-6.000010908,1,0,0,8.000019312,-6.000010908,1,0,0,0,66,66,120,1,,,,,,,,
,,,,,,,,,,,,,FF,,,,,,,,1.3717,,,,,,,,,,,,,,,,,,,,,,60fcdb0781bec43078236d55,61036a1dd7d7cb15328b0efe,2021-07-29_22h56.27.922,Simcolourproject_2stim_asymm_v5,2020.2.10,Win32,60,61025ae37ef11b136ea224fe,,,,,,,,,22,80.66668814,63.99999118,1,0,0,response1disk,,6,-2.666606983,-1.333344102,1,0,0,rectangle,-2.666606983,-1.333344102,1,0,0,-2.666606983,-1.333344102,1,0,0,0,67,67,153,1,,,,,,,,
,,,,,,,,,,,,,FF,,,,,,,,1.2665,,,,,,,,,,,,,,,,,,,,,,60fcdb0781bec43078236d55,61036a1dd7d7cb15328b0efe,2021-07-29_22h56.27.922,Simcolourproject_2stim_asymm_v5,2020.2.10,Win32,60,61025ae37ef11b136ea224fe,,,,,,,,,1115,30.66668665,-78.00001305,1,0,0,response3disk,,4,-10.66660722,-3.333344162,1,0,0,rectangle,-10.66660722,-3.333344162,1,0,0,-10.66660722,-3.333344162,1,0,0,0,68,68,57,1,,,,,,,,
,,,,,,,,,,,,,FF,,,,,,,,0.8048,,,,,,,,,,,,,,,,,,,,,,60fcdb0781bec43078236d55,61036a1dd7d7cb15328b0efe,2021-07-29_22h56.27.922,Simcolourproject_2stim_asymm_v5,2020.2.10,Win32,60,61025ae37ef11b136ea224fe,,,,,,,,,3026,42.00002033,76.66665822,1,0,0,response1disk,,7,5.333393256,5.99998945,1,0,0,rectangle,5.333393256,5.99998945,1,0,0,5.333393256,5.99998945,1,0,0,0,69,69,79,1,,,,,,,,
,,,,,,,,,,,,,FF,,,,,,,,1.0836,,,,,,,,,,,,,,,,,,,,,,60fcdb0781bec43078236d55,61036a1dd7d7cb15328b0efe,2021-07-29_22h56.27.922,Simcolourproject_2stim_asymm_v5,2020.2.10,Win32,60,61025ae37ef11b136ea224fe,,,,,,,,,3704,70.00002116,45.33330361,1,0,0,response1disk,,6,2.66668582,-0.666677415,1,0,0,rectangle,-85.3333168,-58.66667914,1,0,0,7.333393315,-0.666677415,1,0,0,0,70,70,126,1,,response5disk_3,TRUE,2,2,"[143,72,295,31,65,302,286,167,71,14,179,26,274,215,105,168,92,165,239,321]",1.265,rectangle
,,,,,,,,,,,,,FF,,,,,,,,1.6854,,,,,,,,,,,,,,,,,,,,,,60fcdb0781bec43078236d55,61036a1dd7d7cb15328b0efe,2021-07-29_22h56.27.922,Simcolourproject_2stim_asymm_v5,2020.2.10,Win32,60,61025ae37ef11b136ea224fe,,,,,,,,,1250,61.33335423,34.66665697,1,0,0,response1disk,,6,1.333393137,-6.000010908,1,0,0,rectangle,92.6666885,-32.00001168,1,0,0,12.00001943,-4.000010848,1,0,0,0,71,71,89,1,,response3disk_3,TRUE,5,5,"[143,72,295,31,65,302,286,167,71,14,179,26,274,215,105,168,92,165,239,321]",1.3384,rectangle
,,,,,,,,,,,,,FF,,,,,,,,0.9347,,,,,,,,,,,,,,,,,,,,,,60fcdb0781bec43078236d55,61036a1dd7d7cb15328b0efe,2021-07-29_22h56.27.922,Simcolourproject_2stim_asymm_v5,2020.2.10,Win32,60,61025ae37ef11b136ea224fe,,,,,,,,,969,-49.99998242,-78.66667974,1,0,0,response5disk,,3,0.66668576,3.99998939,1,0,0,rectangle,0.66668576,3.99998939,1,0,0,0.66668576,3.99998939,1,0,0,0,72,72,30,1,,,,,,,,
,,,,,,,,,,,,,FF,,,,,,,,1.0331,,,,,,,,,,,,,,,,,,,,,,60fcdb0781bec43078236d55,61036a1dd7d7cb15328b0efe,2021-07-29_22h56.27.922,Simcolourproject_2stim_asymm_v5,2020.2.10,Win32,60,61025ae37ef11b136ea224fe,,,,,,,,,822,95.33335525,40.66665715,1,0,0,response1disk,,6,-7.999981165,-4.666677535,1,0,0,rectangle,-7.999981165,-4.666677535,1,0,0,-7.999981165,-4.666677535,1,0,0,0,73,73,140,1,,,,,,,,
,,,,,,,,,,,,,FF,,,,,,,,1.0211,,,,,,,,,,,,,,,,,,,,,,60fcdb0781bec43078236d55,61036a1dd7d7cb15328b0efe,2021-07-29_22h56.27.922,Simcolourproject_2stim_asymm_v5,2020.2.10,Win32,60,61025ae37ef11b136ea224fe,,,,,,,,,2011,71.33335453,-35.33334512,1,0,0,response3disk,,5,-3.999981046,2.666656017,1,0,0,rectangle,-3.999981046,2.666656017,1,0,0,-3.999981046,2.666656017,1,0,0,0,74,74,21,1,,,,,,,,
,,,,,,,,,,,,,FF,,,,,,,,0.6733,,,,,,,,,,,,,,,,,,,,,,60fcdb0781bec43078236d55,61036a1dd7d7cb15328b0efe,2021-07-29_22h56.27.922,Simcolourproject_2stim_asymm_v5,2020.2.10,Win32,60,61025ae37ef11b136ea224fe,,,,,,,,,1999,30.66668665,63.99999118,1,0,0,response1disk,,7,-0.666606923,0.666655958,1,0,0,rectangle,-0.666606923,0.666655958,1,0,0,-0.666606923,0.666655958,1,0,0,0,75,75,8,1,,,,,,,,
,,,,,,,,,,,,,FF,,,,,,,,0.989,,,,,,,,,,,,,,,,,,,,,,60fcdb0781bec43078236d55,61036a1dd7d7cb15328b0efe,2021-07-29_22h56.27.922,Simcolourproject_2stim_asymm_v5,2020.2.10,Win32,60,61025ae37ef11b136ea224fe,,,,,,,,,2544,29.33339397,-77.33334637,1,0,0,response3disk,,4,-19.33331484,5.333322763,1,0,0,rectangle,-19.33331484,5.333322763,1,0,0,-19.33331484,5.333322763,1,0,0,0,76,76,58,1,,,,,,,,
,,,,,,,,,,,,,FF,,,,,,,,1.8161,,,,,,,,,,,,,,,,,,,,,,60fcdb0781bec43078236d55,61036a1dd7d7cb15328b0efe,2021-07-29_22h56.27.922,Simcolourproject_2stim_asymm_v5,2020.2.10,Win32,60,61025ae37ef11b136ea224fe,,,,,,,,,3003,34.66668677,-82.66667986,1,0,0,response3disk,,4,-1.999980986,0.666655958,1,0,0,rectangle,-1.999980986,0.666655958,1,0,0,-1.999980986,0.666655958,1,0,0,0,77,77,28,1,,,,,,,,
,,,,,,,,,,,,,FF,,,,,,,,4.5817,,,,,,,,,,,,,,,,,,,,,,60fcdb0781bec43078236d55,61036a1dd7d7cb15328b0efe,2021-07-29_22h56.27.922,Simcolourproject_2stim_asymm_v5,2020.2.10,Win32,60,61025ae37ef11b136ea224fe,,,,,,,,,3353,62.00002092,27.33330307,1,0,0,response1disk,,6,-3.333314359,-2.000010788,1,0,0,rectangle,-3.333314359,-2.000010788,1,0,0,-3.333314359,-2.000010788,1,0,0,0,78,78,37,1,,,,,,,,
,,,,,,,,,,,,,FF,,,,,,,,1.0657,,,,,,,,,,,,,,,,,,,,,,60fcdb0781bec43078236d55,61036a1dd7d7cb15328b0efe,2021-07-29_22h56.27.922,Simcolourproject_2stim_asymm_v5,2020.2.10,Win32,60,61025ae37ef11b136ea224fe,,,,,,,,,2241,46.00002044,-85.33334661,1,0,0,response3disk,,4,4.666685879,-9.33334434,1,0,0,rectangle,4.666685879,-9.33334434,1,0,0,4.666685879,-9.33334434,1,0,0,0,79,79,5,1,,,,,,,,
,,,,,,,,,,,,,FF,,,,,,,,0.7323,,,,,,,,,,,,,,,,,,,,,,60fcdb0781bec43078236d55,61036a1dd7d7cb15328b0efe,2021-07-29_22h56.27.922,Simcolourproject_2stim_asymm_v5,2020.2.10,Win32,60,61025ae37ef11b136ea224fe,,,,,,,,,1838,38.00002021,-75.33334631,1,0,0,response3disk,,4,13.33339349,-2.666677475,1,0,0,rectangle,13.33339349,-2.666677475,1,0,0,13.33339349,-2.666677475,1,0,0,0,80,80,125,1,,,,,,,,
,,,,,,,,,,,,,FF,,,,,,,,0.8237,,,,,,,,,,,,,,,,,,,,,,60fcdb0781bec43078236d55,61036a1dd7d7cb15328b0efe,2021-07-29_22h56.27.922,Simcolourproject_2stim_asymm_v5,2020.2.10,Win32,60,61025ae37ef11b136ea224fe,,,,,,,,,1564,54.00002068,89.33330492,1,0,0,response1disk,,7,9.333393375,-1.07288E-05,1,0,0,rectangle,9.333393375,-1.07288E-05,1,0,0,9.333393375,-1.07288E-05,1,0,0,0,81,81,158,1,,,,,,,,
,,,,,,,,,,,,,FF,,,,,,,,1.3825,,,,,,,,,,,,,,,,,,,,,,60fcdb0781bec43078236d55,61036a1dd7d7cb15328b0efe,2021-07-29_22h56.27.922,Simcolourproject_2stim_asymm_v5,2020.2.10,Win32,60,61025ae37ef11b136ea224fe,,,,,,,,,3883,38.66668689,76.66665822,1,0,0,response1disk,,7,4.000019193,-6.666677594,1,0,0,rectangle,4.000019193,-6.666677594,1,0,0,4.000019193,-6.666677594,1,0,0,0,82,82,83,1,,,,,,,,
,,,,,,,,,,,,,FF,,,,,,,,0.921,,,,,,,,,,,,,,,,,,,,,,60fcdb0781bec43078236d55,61036a1dd7d7cb15328b0efe,2021-07-29_22h56.27.922,Simcolourproject_2stim_asymm_v5,2020.2.10,Win32,60,61025ae37ef11b136ea224fe,,,,,,,,,1745,-44.66660823,-72.66667956,1,0,0,response5disk,,3,-4.666607042,-3.333344162,1,0,0,rectangle,-4.666607042,-3.333344162,1,0,0,-4.666607042,-3.333344162,1,0,0,0,83,83,63,1,,,,,,,,
,,,,,,,,,,,,,FF,,,,,,,,1.0496,,,,,,,,,,,,,,,,,,,,,,60fcdb0781bec43078236d55,61036a1dd7d7cb15328b0efe,2021-07-29_22h56.27.922,Simcolourproject_2stim_asymm_v5,2020.2.10,Win32,60,61025ae37ef11b136ea224fe,,,,,,,,,2719,-75.3333165,37.9999904,1,0,0,response7disk,,1,4.666685879,5.333322763,1,0,0,rectangle,4.666685879,5.333322763,1,0,0,4.666685879,5.333322763,1,0,0,0,84,84,149,1,,,,,,,,
,,,,,,,,,,,,,FF,,,,,,,,1.6322,,,,,,,,,,,,,,,,,,,,,,60fcdb0781bec43078236d55,61036a1dd7d7cb15328b0efe,2021-07-29_22h56.27.922,Simcolourproject_2stim_asymm_v5,2020.2.10,Win32,60,61025ae37ef11b136ea224fe,,,,,,,,,1513,40.00002027,75.99999154,1,0,0,response1disk,,7,-5.333314419,-6.000010908,1,0,0,rectangle,-5.333314419,-6.000010908,1,0,0,-5.333314419,-6.000010908,1,0,0,0,85,85,75,1,,,,,,,,
,,,,,,,,,,,,,FF,,,,,,,,0.8991,,,,,,,,,,,,,,,,,,,,,,60fcdb0781bec43078236d55,61036a1dd7d7cb15328b0efe,2021-07-29_22h56.27.922,Simcolourproject_2stim_asymm_v5,2020.2.10,Win32,60,61025ae37ef11b136ea224fe,,,,,,,,,2570,69.33335447,34.66665697,1,0,0,response1disk,,6,10.66668606,-2.666677475,1,0,0,rectangle,10.66668606,-2.666677475,1,0,0,10.66668606,-2.666677475,1,0,0,0,86,86,110,1,,,,,,,,
,,,,,,,,,,,,,FF,,,,,,,,1.4999,,,,,,,,,,,,,,,,,,,,,,60fcdb0781bec43078236d55,61036a1dd7d7cb15328b0efe,2021-07-29_22h56.27.922,Simcolourproject_2stim_asymm_v5,2020.2.10,Win32,60,61025ae37ef11b136ea224fe,,,,,,,,,4357,-37.99998206,-92.00001347,1,0,0,response5disk,,3,4.666685879,3.333322704,1,0,0,rectangle,4.666685879,3.333322704,1,0,0,4.666685879,3.333322704,1,0,0,0,87,87,69,1,,,,,,,,
,,,,,,,,,,,,,FF,,,,,,,,0.9326,,,,,,,,,,,,,,,,,,,,,,60fcdb0781bec43078236d55,61036a1dd7d7cb15328b0efe,2021-07-29_22h56.27.922,Simcolourproject_2stim_asymm_v5,2020.2.10,Win32,60,61025ae37ef11b136ea224fe,,,,,,,,,3411,20.66668636,43.99999058,1,0,0,response1disk,,7,-7.333314478,-10.66667771,1,0,0,rectangle,-7.333314478,-10.66667771,1,0,0,-7.333314478,-10.66667771,1,0,0,0,88,88,136,1,,,,,,,,
,,,,,,,,,,,,,FF,,,,,,,,0.8702,,,,,,,,,,,,,,,,,,,,,,60fcdb0781bec43078236d55,61036a1dd7d7cb15328b0efe,2021-07-29_22h56.27.922,Simcolourproject_2stim_asymm_v5,2020.2.10,Win32,60,61025ae37ef11b136ea224fe,,,,,,,,,516,29.33339397,63.99999118,1,0,0,response1disk,,7,5.333393256,5.333322763,1,0,0,rectangle,5.333393256,5.333322763,1,0,0,5.333393256,5.333322763,1,0,0,0,89,89,133,1,,,,,,,,
,,,,,,,,,,,,,FF,,,,,,,,1.2178,,,,,,,,,,,,,,,,,,,,,,60fcdb0781bec43078236d55,61036a1dd7d7cb15328b0efe,2021-07-29_22h56.27.922,Simcolourproject_2stim_asymm_v5,2020.2.10,Win32,60,61025ae37ef11b136ea224fe,,,,,,,,,4115,87.33335501,-36.66667849,1,0,0,response3disk,,5,13.33339349,2.666656017,1,0,0,rectangle,13.33339349,2.666656017,1,0,0,13.33339349,2.666656017,1,0,0,0,90,90,108,1,,,,,,,,
,,,,,,,,,,,,,FF,,,,,,,,0.8006,,,,,,,,,,,,,,,,,,,,,,60fcdb0781bec43078236d55,61036a1dd7d7cb15328b0efe,2021-07-29_22h56.27.922,Simcolourproject_2stim_asymm_v5,2020.2.10,Win32,60,61025ae37ef11b136ea224fe,,,,,,,,,491,42.66668701,73.99999148,1,0,0,response1disk,,7,0.66668576,-1.333344102,1,0,0,rectangle,83.33335489,-26.66667819,1,0,0,5.333393256,-1.333344102,1,0,0,0,91,91,4,1,,response3disk_3,TRUE,5,5,"[143,72,295,31,65,302,286,167,71,14,179,26,274,215,105,168,92,165,239,321]",1.4653,rectangle
,,,,,,,,,,,,,FF,,,,,,,,1.0491,,,,,,,,,,,,,,,,,,,,,,60fcdb0781bec43078236d55,61036a1dd7d7cb15328b0efe,2021-07-29_22h56.27.922,Simcolourproject_2stim_asymm_v5,2020.2.10,Win32,60,61025ae37ef11b136ea224fe,,,,,,,,,658,66.66668773,52.66665751,1,0,0,response1disk,,6,16.66668624,-1.333344102,1,0,0,rectangle,16.66668624,-1.333344102,1,0,0,16.66668624,-1.333344102,1,0,0,0,92,92,128,1,,,,,,,,
,,,,,,,,,,,,,FF,,,,,,,,2.199,,,,,,,,,,,,,,,,,,,,,,60fcdb0781bec43078236d55,61036a1dd7d7cb15328b0efe,2021-07-29_22h56.27.922,Simcolourproject_2stim_asymm_v5,2020.2.10,Win32,60,61025ae37ef11b136ea224fe,,,,,,,,,684,62.66668761,17.99998981,1,0,0,response1disk,,6,2.66668582,8.666656196,1,0,0,rectangle,2.66668582,8.666656196,1,0,0,2.66668582,8.666656196,1,0,0,0,93,93,64,1,,,,,,,,
,,,,,,,,,,,,,FF,,,,,,,,0.915,,,,,,,,,,,,,,,,,,,,,,60fcdb0781bec43078236d55,61036a1dd7d7cb15328b0efe,2021-07-29_22h56.27.922,Simcolourproject_2stim_asymm_v5,2020.2.10,Win32,60,61025ae37ef11b136ea224fe,,,,,,,,,4051,94.66668856,39.99999046,1,0,0,response1disk,,6,-2.666606983,-1.333344102,1,0,0,rectangle,-2.666606983,-1.333344102,1,0,0,-2.666606983,-1.333344102,1,0,0,0,94,94,23,1,,,,,,,,
,,,,,,,,,,,,,FF,,,,,,,,1.3653,,,,,,,,,,,,,,,,,,,,,,60fcdb0781bec43078236d55,61036a1dd7d7cb15328b0efe,2021-07-29_22h56.27.922,Simcolourproject_2stim_asymm_v5,2020.2.10,Win32,60,61025ae37ef11b136ea224fe,,,,,,,,,709,37.33339421,74.66665816,1,0,0,response1disk,,7,-12.66660728,2.666656017,1,0,0,rectangle,-12.66660728,2.666656017,1,0,0,-12.66660728,2.666656017,1,0,0,0,95,95,99,1,,,,,,,,
,,,,,,,,,,,,,FF,,,,,,,,0.9736,,,,,,,,,,,,,,,,,,,,,,60fcdb0781bec43078236d55,61036a1dd7d7cb15328b0efe,2021-07-29_22h56.27.922,Simcolourproject_2stim_asymm_v5,2020.2.10,Win32,60,61025ae37ef11b136ea224fe,,,,,,,,,1709,36.00002015,57.999991,1,0,0,response1disk,,7,-1.3333143,9.999989569,1,0,0,rectangle,-1.3333143,9.999989569,1,0,0,-1.3333143,9.999989569,1,0,0,0,96,96,2,1,,,,,,,,
,,,,,,,,,,,,,FF,,,,,,,,1.8154,,,,,,,,,,,,,,,,,,,,,,60fcdb0781bec43078236d55,61036a1dd7d7cb15328b0efe,2021-07-29_22h56.27.922,Simcolourproject_2stim_asymm_v5,2020.2.10,Win32,60,61025ae37ef11b136ea224fe,,,,,,,,,441,37.33339421,-60.6666792,1,0,0,response3disk,,4,-7.333314478,-4.666677535,1,0,0,rectangle,-7.333314478,-4.666677535,1,0,0,-7.333314478,-4.666677535,1,0,0,0,97,97,105,1,,,,,,,,
,,,,,,,,,,,,,FF,,,,,,,,0.9021,,,,,,,,,,,,,,,,,,,,,,60fcdb0781bec43078236d55,61036a1dd7d7cb15328b0efe,2021-07-29_22h56.27.922,Simcolourproject_2stim_asymm_v5,2020.2.10,Win32,60,61025ae37ef11b136ea224fe,,,,,,,,,1421,52.00002062,67.9999913,1,0,0,response1disk,,7,-9.333314538,-3.333344162,1,0,0,rectangle,-9.333314538,-3.333344162,1,0,0,-9.333314538,-3.333344162,1,0,0,0,98,98,31,1,,,,,,,,
,,,,,,,,,,,,,FF,,,,,,,,1.1163,,,,,,,,,,,,,,,,,,,,,,60fcdb0781bec43078236d55,61036a1dd7d7cb15328b0efe,2021-07-29_22h56.27.922,Simcolourproject_2stim_asymm_v5,2020.2.10,Win32,60,61025ae37ef11b136ea224fe,,,,,,,,,3778,36.00002015,-97.33334696,1,0,0,response3disk,,4,6.666685939,5.99998945,1,0,0,rectangle,6.666685939,5.99998945,1,0,0,6.666685939,5.99998945,1,0,0,0,99,99,139,1,,,,,,,,
,,,,,,,,,,,,,FF,,,,,,,,0.8327,,,,,,,,,,,,,,,,,,,,,,60fcdb0781bec43078236d55,61036a1dd7d7cb15328b0efe,2021-07-29_22h56.27.922,Simcolourproject_2stim_asymm_v5,2020.2.10,Win32,60,61025ae37ef11b136ea224fe,,,,,,,,,1871,47.33335382,77.9999916,1,0,0,response1disk,,7,4.666685879,-0.666677415,1,0,0,rectangle,4.666685879,-0.666677415,1,0,0,4.666685879,-0.666677415,1,0,0,0,100,100,103,1,,,,,,,,
,,,,,,,,,,,,,FF,,,,,,,,1.4013,,,,,,,,,,,,,,,,,,,,,,60fcdb0781bec43078236d55,61036a1dd7d7cb15328b0efe,2021-07-29_22h56.27.922,Simcolourproject_2stim_asymm_v5,2020.2.10,Win32,60,61025ae37ef11b136ea224fe,,,,,,,,,1974,80.00002146,-54.66667902,1,0,0,response3disk,,5,10.00001937,0.666655958,1,0,0,rectangle,10.00001937,0.666655958,1,0,0,10.00001937,0.666655958,1,0,0,0,101,101,144,1,,,,,,,,
,,,,,,,,,,,,,FF,,,,,,,,0.7503,,,,,,,,,,,,,,,,,,,,,,60fcdb0781bec43078236d55,61036a1dd7d7cb15328b0efe,2021-07-29_22h56.27.922,Simcolourproject_2stim_asymm_v5,2020.2.10,Win32,60,61025ae37ef11b136ea224fe,,,,,,,,,3230,50.00002056,94.66665876,1,0,0,response1disk,,7,-1.3333143,3.333322704,1,0,0,rectangle,-1.3333143,3.333322704,1,0,0,-1.3333143,3.333322704,1,0,0,0,102,102,13,1,,,,,,,,
,,,,,,,,,,,,,FF,,,,,,,,1.1994,,,,,,,,,,,,,,,,,,,,,,60fcdb0781bec43078236d55,61036a1dd7d7cb15328b0efe,2021-07-29_22h56.27.922,Simcolourproject_2stim_asymm_v5,2020.2.10,Win32,60,61025ae37ef11b136ea224fe,,,,,,,,,3542,47.33335382,80.66665834,1,0,0,response1disk,,7,6.666685939,2.666656017,1,0,0,rectangle,6.666685939,2.666656017,1,0,0,6.666685939,2.666656017,1,0,0,0,103,103,12,1,,,,,,,,
,,,,,,,,,,,,,FF,,,,,,,,0.9015,,,,,,,,,,,,,,,,,,,,,,60fcdb0781bec43078236d55,61036a1dd7d7cb15328b0efe,2021-07-29_22h56.27.922,Simcolourproject_2stim_asymm_v5,2020.2.10,Win32,60,61025ae37ef11b136ea224fe,,,,,,,,,3901,66.00002104,30.66665685,1,0,0,response1disk,,6,3.333393196,1.999989331,1,0,0,rectangle,-89.99998361,-58.66667914,1,0,0,0.66668576,-3.333344162,1,0,0,0,104,104,81,1,,response5disk_3,TRUE,2,2,"[143,72,295,31,65,302,286,167,71,14,179,26,274,215,105,168,92,165,239,321]",1.4218,rectangle
,,,,,,,,,,,,,FF,,,,,,,,1.3668,,,,,,,,,,,,,,,,,,,,,,60fcdb0781bec43078236d55,61036a1dd7d7cb15328b0efe,2021-07-29_22h56.27.922,Simcolourproject_2stim_asymm_v5,2020.2.10,Win32,60,61025ae37ef11b136ea224fe,,,,,,,,,2664,76.66668802,-52.00001228,1,0,0,response3disk,,5,2.000019133,-7.333344281,1,0,0,rectangle,2.000019133,-7.333344281,1,0,0,2.000019133,-7.333344281,1,0,0,0,105,105,49,1,,,,,,,,
,,,,,,,,,,,,,FF,,,,,,,,0.8993,,,,,,,,,,,,,,,,,,,,,,60fcdb0781bec43078236d55,61036a1dd7d7cb15328b0efe,2021-07-29_22h56.27.922,Simcolourproject_2stim_asymm_v5,2020.2.10,Win32,60,61025ae37ef11b136ea224fe,,,,,,,,,609,28.00001991,-62.66667926,1,0,0,response3disk,,4,3.333393196,-1.333344102,1,0,0,rectangle,3.333393196,-1.333344102,1,0,0,3.333393196,-1.333344102,1,0,0,0,106,106,1,1,,,,,,,,
,,,,,,,,,,,,,FF,,,,,,,,0.9666,,,,,,,,,,,,,,,,,,,,,,60fcdb0781bec43078236d55,61036a1dd7d7cb15328b0efe,2021-07-29_22h56.27.922,Simcolourproject_2stim_asymm_v5,2020.2.10,Win32,60,61025ae37ef11b136ea224fe,,,,,,,,,2390,39.33339427,61.33330409,1,0,0,response1disk,,7,-21.99998158,3.333322704,1,0,0,rectangle,-21.99998158,3.333322704,1,0,0,-21.99998158,3.333322704,1,0,0,0,107,107,51,1,,,,,,,,
,,,,,,,,,,,,,FF,,,,,,,,1.3725,,,,,,,,,,,,,,,,,,,,,,60fcdb0781bec43078236d55,61036a1dd7d7cb15328b0efe,2021-07-29_22h56.27.922,Simcolourproject_2stim_asymm_v5,2020.2.10,Win32,60,61025ae37ef11b136ea224fe,,,,,,,,,2473,44.66668707,95.99999213,1,0,0,response1disk,,7,7.333393315,-10.00001103,1,0,0,rectangle,7.333393315,-10.00001103,1,0,0,7.333393315,-10.00001103,1,0,0,0,108,108,15,1,,,,,,,,
,,,,,,,,,,,,,FF,,,,,,,,0.7889,,,,,,,,,,,,,,,,,,,,,,60fcdb0781bec43078236d55,61036a1dd7d7cb15328b0efe,2021-07-29_22h56.27.922,Simcolourproject_2stim_asymm_v5,2020.2.10,Win32,60,61025ae37ef11b136ea224fe,,,,,,,,,1863,33.33339409,61.33330409,1,0,0,response1disk,,7,-15.9999814,-14.00001115,1,0,0,rectangle,-15.9999814,-14.00001115,1,0,0,-15.9999814,-14.00001115,1,0,0,0,109,109,84,1,,,,,,,,
,,,,,,,,,,,,,FF,,,,,,,,0.8419,,,,,,,,,,,,,,,,,,,,,,60fcdb0781bec43078236d55,61036a1dd7d7cb15328b0efe,2021-07-29_22h56.27.922,Simcolourproject_2stim_asymm_v5,2020.2.10,Win32,60,61025ae37ef11b136ea224fe,,,,,,,,,3453,17.33339361,31.33330319,1,0,0,response1disk,,7,-9.333314538,-8.000010967,1,0,0,rectangle,-9.333314538,-8.000010967,1,0,0,-9.333314538,-8.000010967,1,0,0,0,110,110,85,1,,,,,,,,
,,,,,,,,,,,,,FF,,,,,,,,1.2169,,,,,,,,,,,,,,,,,,,,,,60fcdb0781bec43078236d55,61036a1dd7d7cb15328b0efe,2021-07-29_22h56.27.922,Simcolourproject_2stim_asymm_v5,2020.2.10,Win32,60,61025ae37ef11b136ea224fe,,,,,,,,,2554,62.00002092,27.99999011,1,0,0,response1disk,,6,5.333393256,2.666656017,1,0,0,rectangle,5.333393256,2.666656017,1,0,0,5.333393256,2.666656017,1,0,0,0,111,111,70,1,,,,,,,,
,,,,,,,,,,,,,FF,,,,,,,,1.1687,,,,,,,,,,,,,,,,,,,,,,60fcdb0781bec43078236d55,61036a1dd7d7cb15328b0efe,2021-07-29_22h56.27.922,Simcolourproject_2stim_asymm_v5,2020.2.10,Win32,60,61025ae37ef11b136ea224fe,,,,,,,,,785,62.00002092,-40.66667861,1,0,0,response3disk,,5,16.00001955,-1.333344102,1,0,0,rectangle,16.00001955,-1.333344102,1,0,0,16.00001955,-1.333344102,1,0,0,0,112,112,9,1,,,,,,,,
,,,,,,,,,,,,,FF,,,,,,,,0.7896,,,,,,,,,,,,,,,,,,,,,,60fcdb0781bec43078236d55,61036a1dd7d7cb15328b0efe,2021-07-29_22h56.27.922,Simcolourproject_2stim_asymm_v5,2020.2.10,Win32,60,61025ae37ef11b136ea224fe,,,,,,,,,3370,34.66668677,71.33330439,1,0,0,response1disk,,7,-15.33331472,-7.333344281,1,0,0,rectangle,-15.33331472,-7.333344281,1,0,0,-15.33331472,-7.333344281,1,0,0,0,113,113,146,1,,,,,,,,
,,,,,,,,,,,,,FF,,,,,,,,2.2602,,,,,,,,,,,,,,,,,,,,,,60fcdb0781bec43078236d55,61036a1dd7d7cb15328b0efe,2021-07-29_22h56.27.922,Simcolourproject_2stim_asymm_v5,2020.2.10,Win32,60,61025ae37ef11b136ea224fe,,,,,,,,,2771,26.00001985,61.99999112,1,0,0,response1disk,,7,-2.666606983,6.666656137,1,0,0,rectangle,-2.666606983,6.666656137,1,0,0,-2.666606983,6.666656137,1,0,0,0,114,114,14,1,,,,,,,,
,,,,,,,,,,,,,FF,,,,,,,,1.0664,,,,,,,,,,,,,,,,,,,,,,60fcdb0781bec43078236d55,61036a1dd7d7cb15328b0efe,2021-07-29_22h56.27.922,Simcolourproject_2stim_asymm_v5,2020.2.10,Win32,60,61025ae37ef11b136ea224fe,,,,,,,,,3342,65.33335435,29.33330313,1,0,0,response1disk,,6,4.666685879,3.99998939,1,0,0,rectangle,4.666685879,3.99998939,1,0,0,4.666685879,3.99998939,1,0,0,0,115,115,137,1,,,,,,,,
,,,,,,,,,,,,,FF,,,,,,,,0.8993,,,,,,,,,,,,,,,,,,,,,,60fcdb0781bec43078236d55,61036a1dd7d7cb15328b0efe,2021-07-29_22h56.27.922,Simcolourproject_2stim_asymm_v5,2020.2.10,Win32,60,61025ae37ef11b136ea224fe,,,,,,,,,413,48.66668719,72.6666581,1,0,0,response1disk,,7,2.66668582,3.333322704,1,0,0,rectangle,2.66668582,3.333322704,1,0,0,2.66668582,3.333322704,1,0,0,0,116,116,143,1,,,,,,,,
,,,,,,,,,,,,,FF,,,,,,,,0.949,,,,,,,,,,,,,,,,,,,,,,60fcdb0781bec43078236d55,61036a1dd7d7cb15328b0efe,2021-07-29_22h56.27.922,Simcolourproject_2stim_asymm_v5,2020.2.10,Win32,60,61025ae37ef11b136ea224fe,,,,,,,,,526,84.00002158,-44.00001204,1,0,0,response3disk,,5,13.33339349,7.333322823,1,0,0,rectangle,13.33339349,7.333322823,1,0,0,13.33339349,7.333322823,1,0,0,0,117,117,114,1,,,,,,,,
,,,,,,,,,,,,,FF,,,,,,,,0.7653,,,,,,,,,,,,,,,,,,,,,,60fcdb0781bec43078236d55,61036a1dd7d7cb15328b0efe,2021-07-29_22h56.27.922,Simcolourproject_2stim_asymm_v5,2020.2.10,Win32,60,61025ae37ef11b136ea224fe,,,,,,,,,2937,35.33339415,79.99999166,1,0,0,response1disk,,7,1.9735E-05,1.999989331,1,0,0,rectangle,1.9735E-05,1.999989331,1,0,0,1.9735E-05,1.999989331,1,0,0,0,118,118,132,1,,,,,,,,
,,,,,,,,,,,,,FF,,,,,,,,0.9013,,,,,,,,,,,,,,,,,,,,,,60fcdb0781bec43078236d55,61036a1dd7d7cb15328b0efe,2021-07-29_22h56.27.922,Simcolourproject_2stim_asymm_v5,2020.2.10,Win32,60,61025ae37ef11b136ea224fe,,,,,,,,,1380,40.00002027,82.6666584,1,0,0,response1disk,,7,-3.999981046,-10.66667771,1,0,0,rectangle,-3.999981046,-10.66667771,1,0,0,-3.999981046,-10.66667771,1,0,0,0,119,119,7,1,,,,,,,,
,,,,,,,,,,,,,FF,,,,,,,,0.7739,,,,,,,,,,,,,,,,,,,,,,60fcdb0781bec43078236d55,61036a1dd7d7cb15328b0efe,2021-07-29_22h56.27.922,Simcolourproject_2stim_asymm_v5,2020.2.10,Win32,60,61025ae37ef11b136ea224fe,,,,,,,,,187,61.33335423,35.33330331,1,0,0,response1disk,,6,15.33339355,6.666656137,1,0,0,rectangle,15.33339355,6.666656137,1,0,0,15.33339355,6.666656137,1,0,0,0,120,120,87,1,,,,,,,,
,,,,,,,,,,,,,FF,,,,,,,,1.0127,,,,,,,,,,,,,,,,,,,,,,60fcdb0781bec43078236d55,61036a1dd7d7cb15328b0efe,2021-07-29_22h56.27.922,Simcolourproject_2stim_asymm_v5,2020.2.10,Win32,60,61025ae37ef11b136ea224fe,,,,,,,,,3940,72.66668791,-44.00001204,1,0,0,response3disk,,5,14.66668618,1.333322644,1,0,0,rectangle,14.66668618,1.333322644,1,0,0,14.66668618,1.333322644,1,0,0,0,121,121,38,1,,,,,,,,
,,,,,,,,,,,,,FF,,,,,,,,0.7511,,,,,,,,,,,,,,,,,,,,,,60fcdb0781bec43078236d55,61036a1dd7d7cb15328b0efe,2021-07-29_22h56.27.922,Simcolourproject_2stim_asymm_v5,2020.2.10,Win32,60,61025ae37ef11b136ea224fe,,,,,,,,,2339,45.33335376,111.3333259,1,0,0,response1disk,,7,-14.66660734,-4.000010848,1,0,0,rectangle,-14.66660734,-4.000010848,1,0,0,-14.66660734,-4.000010848,1,0,0,0,122,122,129,1,,,,,,,,
,,,,,,,,,,,,,FF,,,,,,,,1.4002,,,,,,,,,,,,,,,,,,,,,,60fcdb0781bec43078236d55,61036a1dd7d7cb15328b0efe,2021-07-29_22h56.27.922,Simcolourproject_2stim_asymm_v5,2020.2.10,Win32,60,61025ae37ef11b136ea224fe,,,,,,,,,1904,90.00002176,-36.0000118,1,0,0,response3disk,,5,10.66668606,4.666656077,1,0,0,rectangle,10.66668606,4.666656077,1,0,0,10.66668606,4.666656077,1,0,0,0,123,123,104,1,,,,,,,,
,,,,,,,,,,,,,FF,,,,,,,,0.8548,,,,,,,,,,,,,,,,,,,,,,60fcdb0781bec43078236d55,61036a1dd7d7cb15328b0efe,2021-07-29_22h56.27.922,Simcolourproject_2stim_asymm_v5,2020.2.10,Win32,60,61025ae37ef11b136ea224fe,,,,,,,,,339,50.66668725,79.33330462,1,0,0,response1disk,,7,-5.333314419,4.666656077,1,0,0,rectangle,-5.333314419,4.666656077,1,0,0,-5.333314419,4.666656077,1,0,0,0,124,124,56,1,,,,,,,,
,,,,,,,,,,,,,FF,,,,,,,,0.9006,,,,,,,,,,,,,,,,,,,,,,60fcdb0781bec43078236d55,61036a1dd7d7cb15328b0efe,2021-07-29_22h56.27.922,Simcolourproject_2stim_asymm_v5,2020.2.10,Win32,60,61025ae37ef11b136ea224fe,,,,,,,,,464,62.66668761,26.66665673,1,0,0,response1disk,,6,10.66668606,-1.333344102,1,0,0,rectangle,10.66668606,-1.333344102,1,0,0,10.66668606,-1.333344102,1,0,0,0,125,125,91,1,,,,,,,,
,,,,,,,,,,,,,FF,,,,,,,,0.7336,,,,,,,,,,,,,,,,,,,,,,60fcdb0781bec43078236d55,61036a1dd7d7cb15328b0efe,2021-07-29_22h56.27.922,Simcolourproject_2stim_asymm_v5,2020.2.10,Win32,60,61025ae37ef11b136ea224fe,,,,,,,,,4061,32.00002003,50.66665745,1,0,0,response1disk,,7,3.333393196,-7.333344281,1,0,0,rectangle,3.333393196,-7.333344281,1,0,0,3.333393196,-7.333344281,1,0,0,0,126,126,142,1,,,,,,,,
,,,,,,,,,,,,,FF,,,,,,,,0.9825,,,,,,,,,,,,,,,,,,,,,,60fcdb0781bec43078236d55,61036a1dd7d7cb15328b0efe,2021-07-29_22h56.27.922,Simcolourproject_2stim_asymm_v5,2020.2.10,Win32,60,61025ae37ef11b136ea224fe,,,,,,,,,2163,70.66668785,-38.66667855,1,0,0,response3disk,,5,18.00001961,-0.666677415,1,0,0,rectangle,18.00001961,-0.666677415,1,0,0,18.00001961,-0.666677415,1,0,0,0,127,127,32,1,,,,,,,,
,,,,,,,,,,,,,FF,,,,,,,,0.8056,,,,,,,,,,,,,,,,,,,,,,60fcdb0781bec43078236d55,61036a1dd7d7cb15328b0efe,2021-07-29_22h56.27.922,Simcolourproject_2stim_asymm_v5,2020.2.10,Win32,60,61025ae37ef11b136ea224fe,,,,,,,,,739,48.0000205,111.3333259,1,0,0,response1disk,,7,-11.3333146,-12.00001109,1,0,0,rectangle,-11.3333146,-12.00001109,1,0,0,-11.3333146,-12.00001109,1,0,0,0,128,128,50,1,,,,,,,,
,,,,,,,,,,,,,FF,,,,,,,,1.303,,,,,,,,,,,,,,,,,,,,,,60fcdb0781bec43078236d55,61036a1dd7d7cb15328b0efe,2021-07-29_22h56.27.922,Simcolourproject_2stim_asymm_v5,2020.2.10,Win32,60,61025ae37ef11b136ea224fe,,,,,,,,,1353,48.0000205,88.66665858,1,0,0,response1disk,,7,8.666685998,5.99998945,1,0,0,rectangle,8.666685998,5.99998945,1,0,0,8.666685998,5.99998945,1,0,0,0,129,129,123,1,,,,,,,,
,,,,,,,,,,,,,FF,,,,,,,,0.7725,,,,,,,,,,,,,,,,,,,,,,60fcdb0781bec43078236d55,61036a1dd7d7cb15328b0efe,2021-07-29_22h56.27.922,Simcolourproject_2stim_asymm_v5,2020.2.10,Win32,60,61025ae37ef11b136ea224fe,,,,,,,,,572,46.66668713,77.33330456,1,0,0,response1disk,,7,12.00001943,0.666655958,1,0,0,rectangle,12.00001943,0.666655958,1,0,0,12.00001943,0.666655958,1,0,0,0,130,130,45,1,,,,,,,,
,,,,,,,,,,,,,FF,,,,,,,,0.8517,,,,,,,,,,,,,,,,,,,,,,60fcdb0781bec43078236d55,61036a1dd7d7cb15328b0efe,2021-07-29_22h56.27.922,Simcolourproject_2stim_asymm_v5,2020.2.10,Win32,60,61025ae37ef11b136ea224fe,,,,,,,,,726,66.00002104,53.33330385,1,0,0,response1disk,,6,-7.333314478,-6.000010908,1,0,0,rectangle,-7.333314478,-6.000010908,1,0,0,-7.333314478,-6.000010908,1,0,0,0,131,131,147,1,,,,,,,,
,,,,,,,,,,,,,FF,,,,,,,,0.7356,,,,,,,,,,,,,,,,,,,,,,60fcdb0781bec43078236d55,61036a1dd7d7cb15328b0efe,2021-07-29_22h56.27.922,Simcolourproject_2stim_asymm_v5,2020.2.10,Win32,60,61025ae37ef11b136ea224fe,,,,,,,,,3495,26.00001985,59.99999106,1,0,0,response1disk,,7,-3.999981046,-1.333344102,1,0,0,rectangle,-3.999981046,-1.333344102,1,0,0,-3.999981046,-1.333344102,1,0,0,0,132,132,127,1,,,,,,,,
,,,,,,,,,,,,,FF,,,,,,,,0.692,,,,,,,,,,,,,,,,,,,,,,60fcdb0781bec43078236d55,61036a1dd7d7cb15328b0efe,2021-07-29_22h56.27.922,Simcolourproject_2stim_asymm_v5,2020.2.10,Win32,60,61025ae37ef11b136ea224fe,,,,,,,,,2329,38.00002021,63.33330415,1,0,0,response1disk,,7,7.333393315,8.666656196,1,0,0,rectangle,7.333393315,8.666656196,1,0,0,7.333393315,8.666656196,1,0,0,0,133,133,3,1,,,,,,,,
,,,,,,,,,,,,,FF,,,,,,,,0.6045,,,,,,,,,,,,,,,,,,,,,,60fcdb0781bec43078236d55,61036a1dd7d7cb15328b0efe,2021-07-29_22h56.27.922,Simcolourproject_2stim_asymm_v5,2020.2.10,Win32,60,61025ae37ef11b136ea224fe,,,,,,,,,341,32.00002003,63.33330415,1,0,0,response1disk,,7,4.000019193,-0.666677415,1,0,0,rectangle,4.000019193,-0.666677415,1,0,0,4.000019193,-0.666677415,1,0,0,0,134,134,98,1,,,,,,,,
,,,,,,,,,,,,,FF,,,,,,,,0.7241,,,,,,,,,,,,,,,,,,,,,,60fcdb0781bec43078236d55,61036a1dd7d7cb15328b0efe,2021-07-29_22h56.27.922,Simcolourproject_2stim_asymm_v5,2020.2.10,Win32,60,61025ae37ef11b136ea224fe,,,,,,,,,2230,82.00002152,37.33330337,1,0,0,response1disk,,6,6.666685939,5.333322763,1,0,0,rectangle,6.666685939,5.333322763,1,0,0,6.666685939,5.333322763,1,0,0,0,135,135,17,1,,,,,,,,
,,,,,,,,,,,,,FF,,,,,,,,0.8338,,,,,,,,,,,,,,,,,,,,,,60fcdb0781bec43078236d55,61036a1dd7d7cb15328b0efe,2021-07-29_22h56.27.922,Simcolourproject_2stim_asymm_v5,2020.2.10,Win32,60,61025ae37ef11b136ea224fe,,,,,,,,,2915,35.33339415,73.33330444,1,0,0,response1disk,,7,-5.999981105,-1.07288E-05,1,0,0,rectangle,-5.999981105,-1.07288E-05,1,0,0,-5.999981105,-1.07288E-05,1,0,0,0,136,136,148,1,,,,,,,,
,,,,,,,,,,,,,FF,,,,,,,,0.8181,,,,,,,,,,,,,,,,,,,,,,60fcdb0781bec43078236d55,61036a1dd7d7cb15328b0efe,2021-07-29_22h56.27.922,Simcolourproject_2stim_asymm_v5,2020.2.10,Win32,60,61025ae37ef11b136ea224fe,,,,,,,,,486,26.66668653,81.33330468,1,0,0,response1disk,,7,-13.33331466,1.333322644,1,0,0,rectangle,-13.33331466,1.333322644,1,0,0,-13.33331466,1.333322644,1,0,0,0,137,137,94,1,,,,,,,,
,,,,,,,,,,,,,FF,,,,,,,,0.6864,,,,,,,,,,,,,,,,,,,,,,60fcdb0781bec43078236d55,61036a1dd7d7cb15328b0efe,2021-07-29_22h56.27.922,Simcolourproject_2stim_asymm_v5,2020.2.10,Win32,60,61025ae37ef11b136ea224fe,,,,,,,,,3667,28.66668659,69.33330433,1,0,0,response1disk,,7,1.333393137,3.333322704,1,0,0,rectangle,1.333393137,3.333322704,1,0,0,1.333393137,3.333322704,1,0,0,0,138,138,100,1,,,,,,,,
,,,,,,,,,,,,,FF,,,,,,,,1.513,,,,,,,,,,,,,,,,,,,,,,60fcdb0781bec43078236d55,61036a1dd7d7cb15328b0efe,2021-07-29_22h56.27.922,Simcolourproject_2stim_asymm_v5,2020.2.10,Win32,60,61025ae37ef11b136ea224fe,,,,,,,,,4237,42.66668701,-74.66667962,1,0,0,response3disk,,4,2.66668582,-1.07288E-05,1,0,0,rectangle,2.66668582,-1.07288E-05,1,0,0,2.66668582,-1.07288E-05,1,0,0,0,139,139,145,1,,,,,,,,
,,,,,,,,,,,,,FF,,,,,,,,0.7367,,,,,,,,,,,,,,,,,,,,,,60fcdb0781bec43078236d55,61036a1dd7d7cb15328b0efe,2021-07-29_22h56.27.922,Simcolourproject_2stim_asymm_v5,2020.2.10,Win32,60,61025ae37ef11b136ea224fe,,,,,,,,,1706,47.33335382,88.66665858,1,0,0,response1disk,,7,10.66668606,-2.000010788,1,0,0,rectangle,10.66668606,-2.000010788,1,0,0,10.66668606,-2.000010788,1,0,0,0,140,140,43,1,,,,,,,,
,,,,,,,,,,,,,FF,,,,,,,,0.708,,,,,,,,,,,,,,,,,,,,,,60fcdb0781bec43078236d55,61036a1dd7d7cb15328b0efe,2021-07-29_22h56.27.922,Simcolourproject_2stim_asymm_v5,2020.2.10,Win32,60,61025ae37ef11b136ea224fe,,,,,,,,,1511,45.33335376,67.9999913,1,0,0,response1disk,,7,4.666685879,5.99998945,1,0,0,rectangle,4.666685879,5.99998945,1,0,0,4.666685879,5.99998945,1,0,0,0,141,141,157,1,,,,,,,,
,,,,,,,,,,,,,FF,,,,,,,,0.767,,,,,,,,,,,,,,,,,,,,,,60fcdb0781bec43078236d55,61036a1dd7d7cb15328b0efe,2021-07-29_22h56.27.922,Simcolourproject_2stim_asymm_v5,2020.2.10,Win32,60,61025ae37ef11b136ea224fe,,,,,,,,,1930,33.33339409,93.33330504,1,0,0,response1disk,,7,-1.999980986,2.666656017,1,0,0,rectangle,67.33335441,-30.00001162,1,0,0,12.66668612,8.666656196,1,0,0,0,142,142,33,1,,response3disk_3,TRUE,5,5,"[143,72,295,31,65,302,286,167,71,14,179,26,274,215,105,168,92,165,239,321]",1.3659,rectangle
,,,,,,,,,,,,,FF,,,,,,,,0.8661,,,,,,,,,,,,,,,,,,,,,,60fcdb0781bec43078236d55,61036a1dd7d7cb15328b0efe,2021-07-29_22h56.27.922,Simcolourproject_2stim_asymm_v5,2020.2.10,Win32,60,61025ae37ef11b136ea224fe,,,,,,,,,2504,40.66668695,75.3333045,1,0,0,response1disk,,7,-1.3333143,-9.33334434,1,0,0,rectangle,-1.3333143,-9.33334434,1,0,0,-1.3333143,-9.33334434,1,0,0,0,143,143,77,1,,,,,,,,
,,,,,,,,,,,,,FF,,,,,,,,1.3521,,,,,,,,,,,,,,,,,,,,,,60fcdb0781bec43078236d55,61036a1dd7d7cb15328b0efe,2021-07-29_22h56.27.922,Simcolourproject_2stim_asymm_v5,2020.2.10,Win32,60,61025ae37ef11b136ea224fe,,,,,,,,,1853,26.66668653,43.99999058,1,0,0,response1disk,,7,-1.3333143,-2.000010788,1,0,0,rectangle,-1.3333143,-2.000010788,1,0,0,-1.3333143,-2.000010788,1,0,0,0,144,144,154,1,,,,,,,,
,,,,,,,,,,,,,FF,,,,,,,,1.0133,,,,,,,,,,,,,,,,,,,,,,60fcdb0781bec43078236d55,61036a1dd7d7cb15328b0efe,2021-07-29_22h56.27.922,Simcolourproject_2stim_asymm_v5,2020.2.10,Win32,60,61025ae37ef11b136ea224fe,,,,,,,,,3753,65.33335435,29.99999017,1,0,0,response1disk,,6,8.666685998,-0.666677415,1,0,0,rectangle,8.666685998,-0.666677415,1,0,0,8.666685998,-0.666677415,1,0,0,0,145,145,41,1,,,,,,,,
,,,,,,,,,,,,,FF,,,,,,,,0.7166,,,,,,,,,,,,,,,,,,,,,,60fcdb0781bec43078236d55,61036a1dd7d7cb15328b0efe,2021-07-29_22h56.27.922,Simcolourproject_2stim_asymm_v5,2020.2.10,Win32,60,61025ae37ef11b136ea224fe,,,,,,,,,3442,37.33339421,61.99999112,1,0,0,response1disk,,7,9.333393375,7.333322823,1,0,0,rectangle,9.333393375,7.333322823,1,0,0,9.333393375,7.333322823,1,0,0,0,146,146,0,1,,,,,,,,
,,,,,,,,,,,,,FF,,,,,,,,1.5827,,,,,,,,,,,,,,,,,,,,,,60fcdb0781bec43078236d55,61036a1dd7d7cb15328b0efe,2021-07-29_22h56.27.922,Simcolourproject_2stim_asymm_v5,2020.2.10,Win32,60,61025ae37ef11b136ea224fe,,,,,,,,,2180,58.66668749,27.99999011,1,0,0,response1disk,,6,8.666685998,-6.666677594,1,0,0,rectangle,8.666685998,-6.666677594,1,0,0,8.666685998,-6.666677594,1,0,0,0,147,147,78,1,,,,,,,,
,,,,,,,,,,,,,FF,,,,,,,,0.8888,,,,,,,,,,,,,,,,,,,,,,60fcdb0781bec43078236d55,61036a1dd7d7cb15328b0efe,2021-07-29_22h56.27.922,Simcolourproject_2stim_asymm_v5,2020.2.10,Win32,60,61025ae37ef11b136ea224fe,,,,,,,,,2881,42.00002033,79.99999166,1,0,0,response1disk,,7,3.333393196,5.99998945,1,0,0,rectangle,3.333393196,5.99998945,1,0,0,3.333393196,5.99998945,1,0,0,0,148,148,74,1,,,,,,,,
,,,,,,,,,,,,,FF,,,,,,,,0.8334,,,,,,,,,,,,,,,,,,,,,,60fcdb0781bec43078236d55,61036a1dd7d7cb15328b0efe,2021-07-29_22h56.27.922,Simcolourproject_2stim_asymm_v5,2020.2.10,Win32,60,61025ae37ef11b136ea224fe,,,,,,,,,152,25.33339385,73.33330444,1,0,0,response1disk,,7,-14.66660734,-10.00001103,1,0,0,rectangle,-14.66660734,-10.00001103,1,0,0,-14.66660734,-10.00001103,1,0,0,0,149,149,10,1,,,,,,,,
,,,,,,,,,,,,,FF,,,,,,,,0.5655,,,,,,,,,,,,,,,,,,,,,,60fcdb0781bec43078236d55,61036a1dd7d7cb15328b0efe,2021-07-29_22h56.27.922,Simcolourproject_2stim_asymm_v5,2020.2.10,Win32,60,61025ae37ef11b136ea224fe,,,,,,,,,156,27.33339391,59.33330403,1,0,0,response1disk,,7,4.666685879,-1.333344102,1,0,0,rectangle,4.666685879,-1.333344102,1,0,0,4.666685879,-1.333344102,1,0,0,0,150,150,96,1,,,,,,,,
,,,,,,,,,,,,,FF,,,,,,,,0.7847,,,,,,,,,,,,,,,,,,,,,,60fcdb0781bec43078236d55,61036a1dd7d7cb15328b0efe,2021-07-29_22h56.27.922,Simcolourproject_2stim_asymm_v5,2020.2.10,Win32,60,61025ae37ef11b136ea224fe,,,,,,,,,4060,37.33339421,47.33330367,1,0,0,response1disk,,7,8.000019312,-1.07288E-05,1,0,0,rectangle,8.000019312,-1.07288E-05,1,0,0,8.000019312,-1.07288E-05,1,0,0,0,151,151,106,1,,,,,,,,
,,,,,,,,,,,,,FF,,,,,,,,0.7172,,,,,,,,,,,,,,,,,,,,,,60fcdb0781bec43078236d55,61036a1dd7d7cb15328b0efe,2021-07-29_22h56.27.922,Simcolourproject_2stim_asymm_v5,2020.2.10,Win32,60,61025ae37ef11b136ea224fe,,,,,,,,,123,30.00001997,63.99999118,1,0,0,response1disk,,7,-6.666607102,-4.666677535,1,0,0,rectangle,-6.666607102,-4.666677535,1,0,0,-6.666607102,-4.666677535,1,0,0,0,152,152,72,1,,,,,,,,
,,,,,,,,,,,,,FF,,,,,,,,0.535,,,,,,,,,,,,,,,,,,,,,,60fcdb0781bec43078236d55,61036a1dd7d7cb15328b0efe,2021-07-29_22h56.27.922,Simcolourproject_2stim_asymm_v5,2020.2.10,Win32,60,61025ae37ef11b136ea224fe,,,,,,,,,364,40.00002027,72.6666581,1,0,0,response1disk,,7,6.666685939,1.999989331,1,0,0,rectangle,6.666685939,1.999989331,1,0,0,6.666685939,1.999989331,1,0,0,0,153,153,92,1,,,,,,,,
,,,,,,,,,,,,,FF,,,,,,,,1.0004,,,,,,,,,,,,,,,,,,,,,,60fcdb0781bec43078236d55,61036a1dd7d7cb15328b0efe,2021-07-29_22h56.27.922,Simcolourproject_2stim_asymm_v5,2020.2.10,Win32,60,61025ae37ef11b136ea224fe,,,,,,,,,4352,66.00002104,-28.66667825,1,0,0,response3disk,,5,6.000019252,3.333322704,1,0,0,rectangle,6.000019252,3.333322704,1,0,0,6.000019252,3.333322704,1,0,0,0,154,154,71,1,,,,,,,,
,,,,,,,,,,,,,FF,,,,,,,,1.0325,,,,,,,,,,,,,,,,,,,,,,60fcdb0781bec43078236d55,61036a1dd7d7cb15328b0efe,2021-07-29_22h56.27.922,Simcolourproject_2stim_asymm_v5,2020.2.10,Win32,60,61025ae37ef11b136ea224fe,,,,,,,,,458,77.33335471,27.99999011,1,0,0,response1disk,,6,-1.3333143,-0.666677415,1,0,0,rectangle,-1.3333143,-0.666677415,1,0,0,-1.3333143,-0.666677415,1,0,0,0,155,155,73,1,,,,,,,,
,,,,,,,,,,,,,FF,,,,,,,,0.5841,,,,,,,,,,,,,,,,,,,,,,60fcdb0781bec43078236d55,61036a1dd7d7cb15328b0efe,2021-07-29_22h56.27.922,Simcolourproject_2stim_asymm_v5,2020.2.10,Win32,60,61025ae37ef11b136ea224fe,,,,,,,,,307,30.00001997,56.66665763,1,0,0,response1disk,,7,10.66668606,3.99998939,1,0,0,rectangle,10.66668606,3.99998939,1,0,0,10.66668606,3.99998939,1,0,0,0,156,156,112,1,,,,,,,,
,,,,,,,,,,,,,FF,,,,,,,,1.1831,,,,,,,,,,,,,,,,,,,,,,60fcdb0781bec43078236d55,61036a1dd7d7cb15328b0efe,2021-07-29_22h56.27.922,Simcolourproject_2stim_asymm_v5,2020.2.10,Win32,60,61025ae37ef11b136ea224fe,,,,,,,,,3710,35.33339415,60.66665775,1,0,0,response1disk,,7,2.66668582,3.333322704,1,0,0,rectangle,2.66668582,3.333322704,1,0,0,2.66668582,3.333322704,1,0,0,0,157,157,19,1,,,,,,,,
,,,,,,,,,,,,,FF,,,,,,,,0.5896,,,,,,,,,,,,,,,,,,,,,,60fcdb0781bec43078236d55,61036a1dd7d7cb15328b0efe,2021-07-29_22h56.27.922,Simcolourproject_2stim_asymm_v5,2020.2.10,Win32,60,61025ae37ef11b136ea224fe,,,,,,,,,1646,32.00002003,64.66665787,1,0,0,response1disk,,7,-1.3333143,-6.000010908,1,0,0,rectangle,-1.3333143,-6.000010908,1,0,0,-1.3333143,-6.000010908,1,0,0,0,158,158,48,1,,,,,,,,
,,,,,,,,,,,,,FF,,,,,,,,0.6181,,,,,,,,,,,,,,,,,,,,,,60fcdb0781bec43078236d55,61036a1dd7d7cb15328b0efe,2021-07-29_22h56.27.922,Simcolourproject_2stim_asymm_v5,2020.2.10,Win32,60,61025ae37ef11b136ea224fe,,,,,,,,,751,28.66668659,68.66665798,1,0,0,response1disk,,7,-0.666606923,6.666656137,1,0,0,rectangle,-0.666606923,6.666656137,1,0,0,-0.666606923,6.666656137,1,0,0,0,159,159,130,1,,,,,,,,
,,,,,,,,,,,,,FF,,,,,,,,0.5968,,,,,,,,,,,,,,,,,,,,,,60fcdb0781bec43078236d55,61036a1dd7d7cb15328b0efe,2021-07-29_22h56.27.922,Simcolourproject_2stim_asymm_v5,2020.2.10,Win32,60,61025ae37ef11b136ea224fe,,,,,,,,,2625,36.66668683,61.33330409,1,0,0,response1disk,,7,5.333393256,-6.000010908,1,0,0,rectangle,5.333393256,-6.000010908,1,0,0,5.333393256,-6.000010908,1,0,0,1,0,160,157,1,,,,,,,,
,,,,,,,,,,,,,FF,,,,,,,,0.9033,,,,,,,,,,,,,,,,,,,,,,60fcdb0781bec43078236d55,61036a1dd7d7cb15328b0efe,2021-07-29_22h56.27.922,Simcolourproject_2stim_asymm_v5,2020.2.10,Win32,60,61025ae37ef11b136ea224fe,,,,,,,,,2752,40.00002027,57.33330397,1,0,0,response1disk,,7,-1.3333143,-8.000010967,1,0,0,rectangle,-1.3333143,-8.000010967,1,0,0,-1.3333143,-8.000010967,1,0,0,1,1,161,100,1,,,,,,,,
,,,,,,,,,,,,,FF,,,,,,,,0.9167,,,,,,,,,,,,,,,,,,,,,,60fcdb0781bec43078236d55,61036a1dd7d7cb15328b0efe,2021-07-29_22h56.27.922,Simcolourproject_2stim_asymm_v5,2020.2.10,Win32,60,61025ae37ef11b136ea224fe,,,,,,,,,4030,30.00001997,61.33330409,1,0,0,response1disk,,7,-3.999981046,-3.333344162,1,0,0,rectangle,-3.999981046,-3.333344162,1,0,0,-3.999981046,-3.333344162,1,0,0,1,2,162,35,1,,,,,,,,
,,,,,,,,,,,,,FF,,,,,,,,0.7732,,,,,,,,,,,,,,,,,,,,,,60fcdb0781bec43078236d55,61036a1dd7d7cb15328b0efe,2021-07-29_22h56.27.922,Simcolourproject_2stim_asymm_v5,2020.2.10,Win32,60,61025ae37ef11b136ea224fe,,,,,,,,,174,65.33335435,20.66665655,1,0,0,response1disk,,6,9.333393375,1.999989331,1,0,0,rectangle,9.333393375,1.999989331,1,0,0,9.333393375,1.999989331,1,0,0,1,3,163,152,1,,,,,,,,
,,,,,,,,,,,,,FF,,,,,,,,0.7948,,,,,,,,,,,,,,,,,,,,,,60fcdb0781bec43078236d55,61036a1dd7d7cb15328b0efe,2021-07-29_22h56.27.922,Simcolourproject_2stim_asymm_v5,2020.2.10,Win32,60,61025ae37ef11b136ea224fe,,,,,,,,,3091,68.0000211,-33.33334506,1,0,0,response3disk,,5,6.000019252,2.666656017,1,0,0,rectangle,-35.33331531,80.66665834,1,0,0,9.333393375,-1.333344102,1,0,0,1,4,164,13,1,,response7disk_3,TRUE,0,0,"[143,72,295,31,65,302,286,167,71,14,179,26,274,215,105,168,92,165,239,321]",1.8191,rectangle
,,,,,,,,,,,,,FF,,,,,,,,3.1048,,,,,,,,,,,,,,,,,,,,,,60fcdb0781bec43078236d55,61036a1dd7d7cb15328b0efe,2021-07-29_22h56.27.922,Simcolourproject_2stim_asymm_v5,2020.2.10,Win32,60,61025ae37ef11b136ea224fe,,,,,,,,,4017,37.33339421,63.99999118,1,0,0,response1disk,,7,13.33339349,-2.000010788,1,0,0,rectangle,13.33339349,-2.000010788,1,0,0,13.33339349,-2.000010788,1,0,0,1,5,165,65,1,,,,,,,,
,,,,,,,,,,,,,FF,,,,,,,,0.7666,,,,,,,,,,,,,,,,,,,,,,60fcdb0781bec43078236d55,61036a1dd7d7cb15328b0efe,2021-07-29_22h56.27.922,Simcolourproject_2stim_asymm_v5,2020.2.10,Win32,60,61025ae37ef11b136ea224fe,,,,,,,,,534,28.00001991,77.9999916,1,0,0,response1disk,,7,1.333393137,9.999989569,1,0,0,rectangle,-41.33331549,80.66665834,1,0,0,-3.999981046,3.333322704,1,0,0,1,6,166,139,1,,response7disk_3,TRUE,0,0,"[143,72,295,31,65,302,286,167,71,14,179,26,274,215,105,168,92,165,239,321]",1.351,rectangle
,,,,,,,,,,,,,FF,,,,,,,,1.0548,,,,,,,,,,,,,,,,,,,,,,60fcdb0781bec43078236d55,61036a1dd7d7cb15328b0efe,2021-07-29_22h56.27.922,Simcolourproject_2stim_asymm_v5,2020.2.10,Win32,60,61025ae37ef11b136ea224fe,,,,,,,,,135,40.66668695,67.33330427,1,0,0,response1disk,,7,6.000019252,3.333322704,1,0,0,rectangle,78.0000214,57.999991,1,0,0,3.333393196,-2.666677475,1,0,0,1,7,167,149,1,,response1disk_3,TRUE,6,6,"[143,72,295,31,65,302,286,167,71,14,179,26,274,215,105,168,92,165,239,321]",1.3226,rectangle
,,,,,,,,,,,,,FF,,,,,,,,0.734,,,,,,,,,,,,,,,,,,,,,,60fcdb0781bec43078236d55,61036a1dd7d7cb15328b0efe,2021-07-29_22h56.27.922,Simcolourproject_2stim_asymm_v5,2020.2.10,Win32,60,61025ae37ef11b136ea224fe,,,,,,,,,1919,36.66668683,82.6666584,1,0,0,response1disk,,7,6.666685939,7.333322823,1,0,0,rectangle,6.666685939,7.333322823,1,0,0,6.666685939,7.333322823,1,0,0,1,8,168,99,1,,,,,,,,
,,,,,,,,,,,,,FF,,,,,,,,2.6499,,,,,,,,,,,,,,,,,,,,,,60fcdb0781bec43078236d55,61036a1dd7d7cb15328b0efe,2021-07-29_22h56.27.922,Simcolourproject_2stim_asymm_v5,2020.2.10,Win32,60,61025ae37ef11b136ea224fe,,,,,,,,,3902,77.33335471,-40.66667861,1,0,0,response3disk,,5,14.66668618,3.99998939,1,0,0,rectangle,14.66668618,3.99998939,1,0,0,14.66668618,3.99998939,1,0,0,1,9,169,55,1,,,,,,,,
,,,,,,,,,,,,,FF,,,,,,,,1.3328,,,,,,,,,,,,,,,,,,,,,,60fcdb0781bec43078236d55,61036a1dd7d7cb15328b0efe,2021-07-29_22h56.27.922,Simcolourproject_2stim_asymm_v5,2020.2.10,Win32,60,61025ae37ef11b136ea224fe,,,,,,,,,1685,69.33335447,-60.00001252,1,0,0,response3disk,,5,2.000019133,1.333322644,1,0,0,rectangle,2.000019133,1.333322644,1,0,0,2.000019133,1.333322644,1,0,0,1,10,170,25,1,,,,,,,,
,,,,,,,,,,,,,FF,,,,,,,,0.6672,,,,,,,,,,,,,,,,,,,,,,60fcdb0781bec43078236d55,61036a1dd7d7cb15328b0efe,2021-07-29_22h56.27.922,Simcolourproject_2stim_asymm_v5,2020.2.10,Win32,60,61025ae37ef11b136ea224fe,,,,,,,,,1638,38.00002021,65.99999124,1,0,0,response1disk,,7,2.66668582,3.99998939,1,0,0,rectangle,2.66668582,3.99998939,1,0,0,2.66668582,3.99998939,1,0,0,1,11,171,119,1,,,,,,,,
,,,,,,,,,,,,,FF,,,,,,,,1.0659,,,,,,,,,,,,,,,,,,,,,,60fcdb0781bec43078236d55,61036a1dd7d7cb15328b0efe,2021-07-29_22h56.27.922,Simcolourproject_2stim_asymm_v5,2020.2.10,Win32,60,61025ae37ef11b136ea224fe,,,,,,,,,2037,71.33335453,50.66665745,1,0,0,response1disk,,6,1.333393137,3.99998939,1,0,0,rectangle,1.333393137,3.99998939,1,0,0,1.333393137,3.99998939,1,0,0,1,12,172,95,1,,,,,,,,
,,,,,,,,,,,,,FF,,,,,,,,1.1856,,,,,,,,,,,,,,,,,,,,,,60fcdb0781bec43078236d55,61036a1dd7d7cb15328b0efe,2021-07-29_22h56.27.922,Simcolourproject_2stim_asymm_v5,2020.2.10,Win32,60,61025ae37ef11b136ea224fe,,,,,,,,,4281,76.66668802,35.99999034,1,0,0,response1disk,,6,4.000019193,7.333322823,1,0,0,rectangle,4.000019193,7.333322823,1,0,0,4.000019193,7.333322823,1,0,0,1,13,173,10,1,,,,,,,,
,,,,,,,,,,,,,FF,,,,,,,,0.8895,,,,,,,,,,,,,,,,,,,,,,60fcdb0781bec43078236d55,61036a1dd7d7cb15328b0efe,2021-07-29_22h56.27.922,Simcolourproject_2stim_asymm_v5,2020.2.10,Win32,60,61025ae37ef11b136ea224fe,,,,,,,,,2370,34.00002009,61.99999112,1,0,0,response1disk,,7,26.66668653,1.333322644,1,0,0,rectangle,26.66668653,1.333322644,1,0,0,26.66668653,1.333322644,1,0,0,1,14,174,52,1,,,,,,,,
,,,,,,,,,,,,,FF,,,,,,,,0.9181,,,,,,,,,,,,,,,,,,,,,,60fcdb0781bec43078236d55,61036a1dd7d7cb15328b0efe,2021-07-29_22h56.27.922,Simcolourproject_2stim_asymm_v5,2020.2.10,Win32,60,61025ae37ef11b136ea224fe,,,,,,,,,1885,34.00002009,72.6666581,1,0,0,response1disk,,7,-1.3333143,3.99998939,1,0,0,rectangle,-1.3333143,3.99998939,1,0,0,-1.3333143,3.99998939,1,0,0,1,15,175,36,1,,,,,,,,
,,,,,,,,,,,,,FF,,,,,,,,0.8904,,,,,,,,,,,,,,,,,,,,,,60fcdb0781bec43078236d55,61036a1dd7d7cb15328b0efe,2021-07-29_22h56.27.922,Simcolourproject_2stim_asymm_v5,2020.2.10,Win32,60,61025ae37ef11b136ea224fe,,,,,,,,,860,30.66668665,74.66665816,1,0,0,response1disk,,7,-3.333314359,9.999989569,1,0,0,rectangle,-3.333314359,9.999989569,1,0,0,-3.333314359,9.999989569,1,0,0,1,16,176,126,1,,,,,,,,
,,,,,,,,,,,,,FF,,,,,,,,1.189,,,,,,,,,,,,,,,,,,,,,,60fcdb0781bec43078236d55,61036a1dd7d7cb15328b0efe,2021-07-29_22h56.27.922,Simcolourproject_2stim_asymm_v5,2020.2.10,Win32,60,61025ae37ef11b136ea224fe,,,,,,,,,1479,78.66668808,37.9999904,1,0,0,response1disk,,6,9.333393375,1.999989331,1,0,0,rectangle,9.333393375,1.999989331,1,0,0,9.333393375,1.999989331,1,0,0,1,17,177,60,1,,,,,,,,
,,,,,,,,,,,,,FF,,,,,,,,0.6346,,,,,,,,,,,,,,,,,,,,,,60fcdb0781bec43078236d55,61036a1dd7d7cb15328b0efe,2021-07-29_22h56.27.922,Simcolourproject_2stim_asymm_v5,2020.2.10,Win32,60,61025ae37ef11b136ea224fe,,,,,,,,,3774,41.33339433,79.33330462,1,0,0,response1disk,,7,2.000019133,-11.3333444,1,0,0,rectangle,36.00002015,-72.00001287,1,0,0,4.666685879,-0.666677415,1,0,0,1,18,178,137,1,,response3disk_3,TRUE,4,4,"[143,72,295,31,65,302,286,167,71,14,179,26,274,215,105,168,92,165,239,321]",1.0813,rectangle
,,,,,,,,,,,,,FF,,,,,,,,1.0512,,,,,,,,,,,,,,,,,,,,,,60fcdb0781bec43078236d55,61036a1dd7d7cb15328b0efe,2021-07-29_22h56.27.922,Simcolourproject_2stim_asymm_v5,2020.2.10,Win32,60,61025ae37ef11b136ea224fe,,,,,,,,,2031,41.33339433,-76.00001299,1,0,0,response3disk,,4,-3.999981046,8.666656196,1,0,0,rectangle,-3.999981046,8.666656196,1,0,0,-3.999981046,8.666656196,1,0,0,1,19,179,136,1,,,,,,,,
,,,,,,,,,,,,,FF,,,,,,,,0.7239,,,,,,,,,,,,,,,,,,,,,,60fcdb0781bec43078236d55,61036a1dd7d7cb15328b0efe,2021-07-29_22h56.27.922,Simcolourproject_2stim_asymm_v5,2020.2.10,Win32,60,61025ae37ef11b136ea224fe,,,,,,,,,919,47.33335382,77.33330456,1,0,0,response1disk,,7,-5.333314419,4.666656077,1,0,0,rectangle,-5.333314419,4.666656077,1,0,0,-5.333314419,4.666656077,1,0,0,1,20,180,15,1,,,,,,,,
,,,,,,,,,,,,,FF,,,,,,,,0.9537,,,,,,,,,,,,,,,,,,,,,,60fcdb0781bec43078236d55,61036a1dd7d7cb15328b0efe,2021-07-29_22h56.27.922,Simcolourproject_2stim_asymm_v5,2020.2.10,Win32,60,61025ae37ef11b136ea224fe,,,,,,,,,2639,36.00002015,65.99999124,1,0,0,response1disk,,7,-6.666607102,-10.00001103,1,0,0,rectangle,-6.666607102,-10.00001103,1,0,0,-6.666607102,-10.00001103,1,0,0,1,21,181,67,1,,,,,,,,
,,,,,,,,,,,,,FF,,,,,,,,0.7185,,,,,,,,,,,,,,,,,,,,,,60fcdb0781bec43078236d55,61036a1dd7d7cb15328b0efe,2021-07-29_22h56.27.922,Simcolourproject_2stim_asymm_v5,2020.2.10,Win32,60,61025ae37ef11b136ea224fe,,,,,,,,,3027,36.00002015,79.99999166,1,0,0,response1disk,,7,-11.3333146,-1.07288E-05,1,0,0,rectangle,-11.3333146,-1.07288E-05,1,0,0,-11.3333146,-1.07288E-05,1,0,0,1,22,182,159,1,,,,,,,,
,,,,,,,,,,,,,FF,,,,,,,,0.6231,,,,,,,,,,,,,,,,,,,,,,60fcdb0781bec43078236d55,61036a1dd7d7cb15328b0efe,2021-07-29_22h56.27.922,Simcolourproject_2stim_asymm_v5,2020.2.10,Win32,60,61025ae37ef11b136ea224fe,,,,,,,,,4010,26.00001985,51.33330379,1,0,0,response1disk,,7,2.000019133,1.333322644,1,0,0,rectangle,2.000019133,1.333322644,1,0,0,2.000019133,1.333322644,1,0,0,1,23,183,94,1,,,,,,,,
,,,,,,,,,,,,,FF,,,,,,,,1.1551,,,,,,,,,,,,,,,,,,,,,,60fcdb0781bec43078236d55,61036a1dd7d7cb15328b0efe,2021-07-29_22h56.27.922,Simcolourproject_2stim_asymm_v5,2020.2.10,Win32,60,61025ae37ef11b136ea224fe,,,,,,,,,695,64.66668767,35.99999034,1,0,0,response1disk,,6,2.000019133,8.666656196,1,0,0,rectangle,2.000019133,8.666656196,1,0,0,2.000019133,8.666656196,1,0,0,1,24,184,148,1,,,,,,,,
,,,,,,,,,,,,,FF,,,,,,,,2.0505,,,,,,,,,,,,,,,,,,,,,,60fcdb0781bec43078236d55,61036a1dd7d7cb15328b0efe,2021-07-29_22h56.27.922,Simcolourproject_2stim_asymm_v5,2020.2.10,Win32,60,61025ae37ef11b136ea224fe,,,,,,,,,1326,68.66668779,35.33330331,1,0,0,response1disk,,6,2.66668582,5.333322763,1,0,0,rectangle,2.66668582,5.333322763,1,0,0,2.66668582,5.333322763,1,0,0,1,25,185,141,1,,,,,,,,
,,,,,,,,,,,,,FF,,,,,,,,0.9231,,,,,,,,,,,,,,,,,,,,,,60fcdb0781bec43078236d55,61036a1dd7d7cb15328b0efe,2021-07-29_22h56.27.922,Simcolourproject_2stim_asymm_v5,2020.2.10,Win32,60,61025ae37ef11b136ea224fe,,,,,,,,,3555,68.0000211,32.66665691,1,0,0,response1disk,,6,0.66668576,4.666656077,1,0,0,rectangle,0.66668576,4.666656077,1,0,0,0.66668576,4.666656077,1,0,0,1,26,186,128,1,,,,,,,,
,,,,,,,,,,,,,FF,,,,,,,,0.6361,,,,,,,,,,,,,,,,,,,,,,60fcdb0781bec43078236d55,61036a1dd7d7cb15328b0efe,2021-07-29_22h56.27.922,Simcolourproject_2stim_asymm_v5,2020.2.10,Win32,60,61025ae37ef11b136ea224fe,,,,,,,,,1719,25.33339385,56.66665763,1,0,0,response1disk,,7,-4.666607042,-6.000010908,1,0,0,rectangle,-4.666607042,-6.000010908,1,0,0,-4.666607042,-6.000010908,1,0,0,1,27,187,51,1,,,,,,,,
,,,,,,,,,,,,,FF,,,,,,,,0.5307,,,,,,,,,,,,,,,,,,,,,,60fcdb0781bec43078236d55,61036a1dd7d7cb15328b0efe,2021-07-29_22h56.27.922,Simcolourproject_2stim_asymm_v5,2020.2.10,Win32,60,61025ae37ef11b136ea224fe,,,,,,,,,425,36.66668683,61.99999112,1,0,0,response1disk,,7,1.9735E-05,2.666656017,1,0,0,rectangle,1.9735E-05,2.666656017,1,0,0,1.9735E-05,2.666656017,1,0,0,1,28,188,150,1,,,,,,,,
,,,,,,,,,,,,,FF,,,,,,,,0.6845,,,,,,,,,,,,,,,,,,,,,,60fcdb0781bec43078236d55,61036a1dd7d7cb15328b0efe,2021-07-29_22h56.27.922,Simcolourproject_2stim_asymm_v5,2020.2.10,Win32,60,61025ae37ef11b136ea224fe,,,,,,,,,1630,40.66668695,57.999991,1,0,0,response1disk,,7,0.66668576,-10.00001103,1,0,0,rectangle,0.66668576,-10.00001103,1,0,0,0.66668576,-10.00001103,1,0,0,1,29,189,20,1,,,,,,,,
,,,,,,,,,,,,,FF,,,,,,,,1.0183,,,,,,,,,,,,,,,,,,,,,,60fcdb0781bec43078236d55,61036a1dd7d7cb15328b0efe,2021-07-29_22h56.27.922,Simcolourproject_2stim_asymm_v5,2020.2.10,Win32,60,61025ae37ef11b136ea224fe,,,,,,,,,1151,20.00001967,55.99999094,1,0,0,response1disk,,7,-4.666607042,2.666656017,1,0,0,rectangle,-4.666607042,2.666656017,1,0,0,-4.666607042,2.666656017,1,0,0,1,30,190,82,1,,,,,,,,
,,,,,,,,,,,,,FF,,,,,,,,0.6732,,,,,,,,,,,,,,,,,,,,,,60fcdb0781bec43078236d55,61036a1dd7d7cb15328b0efe,2021-07-29_22h56.27.922,Simcolourproject_2stim_asymm_v5,2020.2.10,Win32,60,61025ae37ef11b136ea224fe,,,,,,,,,1808,32.66668671,68.66665798,1,0,0,response1disk,,7,-0.666606923,3.333322704,1,0,0,rectangle,-0.666606923,3.333322704,1,0,0,-0.666606923,3.333322704,1,0,0,1,31,191,70,1,,,,,,,,
,,,,,,,,,,,,,FF,,,,,,,,0.5021,,,,,,,,,,,,,,,,,,,,,,60fcdb0781bec43078236d55,61036a1dd7d7cb15328b0efe,2021-07-29_22h56.27.922,Simcolourproject_2stim_asymm_v5,2020.2.10,Win32,60,61025ae37ef11b136ea224fe,,,,,,,,,573,26.66668653,57.999991,1,0,0,response1disk,,7,5.333393256,9.999989569,1,0,0,rectangle,5.333393256,9.999989569,1,0,0,5.333393256,9.999989569,1,0,0,1,32,192,151,1,,,,,,,,
,,,,,,,,,,,,,FF,,,,,,,,0.7184,,,,,,,,,,,,,,,,,,,,,,60fcdb0781bec43078236d55,61036a1dd7d7cb15328b0efe,2021-07-29_22h56.27.922,Simcolourproject_2stim_asymm_v5,2020.2.10,Win32,60,61025ae37ef11b136ea224fe,,,,,,,,,877,36.66668683,61.99999112,1,0,0,response1disk,,7,8.666685998,3.333322704,1,0,0,rectangle,8.666685998,3.333322704,1,0,0,8.666685998,3.333322704,1,0,0,1,33,193,5,1,,,,,,,,
,,,,,,,,,,,,,FF,,,,,,,,0.7011,,,,,,,,,,,,,,,,,,,,,,60fcdb0781bec43078236d55,61036a1dd7d7cb15328b0efe,2021-07-29_22h56.27.922,Simcolourproject_2stim_asymm_v5,2020.2.10,Win32,60,61025ae37ef11b136ea224fe,,,,,,,,,3919,32.66668671,62.66665781,1,0,0,response1disk,,7,-1.999980986,-0.666677415,1,0,0,rectangle,-1.999980986,-0.666677415,1,0,0,-1.999980986,-0.666677415,1,0,0,1,34,194,73,1,,,,,,,,
,,,,,,,,,,,,,FF,,,,,,,,0.6502,,,,,,,,,,,,,,,,,,,,,,60fcdb0781bec43078236d55,61036a1dd7d7cb15328b0efe,2021-07-29_22h56.27.922,Simcolourproject_2stim_asymm_v5,2020.2.10,Win32,60,61025ae37ef11b136ea224fe,,,,,,,,,2862,32.00002003,58.66665769,1,0,0,response1disk,,7,1.333393137,-8.666677654,1,0,0,rectangle,1.333393137,-8.666677654,1,0,0,1.333393137,-8.666677654,1,0,0,1,35,195,133,1,,,,,,,,
,,,,,,,,,,,,,FF,,,,,,,,0.5014,,,,,,,,,,,,,,,,,,,,,,60fcdb0781bec43078236d55,61036a1dd7d7cb15328b0efe,2021-07-29_22h56.27.922,Simcolourproject_2stim_asymm_v5,2020.2.10,Win32,60,61025ae37ef11b136ea224fe,,,,,,,,,3362,23.33339379,43.99999058,1,0,0,response1disk,,7,-0.666606923,-8.666677654,1,0,0,rectangle,-0.666606923,-8.666677654,1,0,0,-0.666606923,-8.666677654,1,0,0,1,36,196,6,1,,,,,,,,
,,,,,,,,,,,,,FF,,,,,,,,0.5333,,,,,,,,,,,,,,,,,,,,,,60fcdb0781bec43078236d55,61036a1dd7d7cb15328b0efe,2021-07-29_22h56.27.922,Simcolourproject_2stim_asymm_v5,2020.2.10,Win32,60,61025ae37ef11b136ea224fe,,,,,,,,,1423,32.66668671,55.33330391,1,0,0,response1disk,,7,12.00001943,13.99998969,1,0,0,rectangle,12.00001943,13.99998969,1,0,0,12.00001943,13.99998969,1,0,0,1,37,197,108,1,,,,,,,,
,,,,,,,,,,,,,FF,,,,,,,,0.7004,,,,,,,,,,,,,,,,,,,,,,60fcdb0781bec43078236d55,61036a1dd7d7cb15328b0efe,2021-07-29_22h56.27.922,Simcolourproject_2stim_asymm_v5,2020.2.10,Win32,60,61025ae37ef11b136ea224fe,,,,,,,,,2810,26.66668653,45.99999064,1,0,0,response1disk,,7,-2.666606983,-5.333344221,1,0,0,rectangle,-2.666606983,-5.333344221,1,0,0,-2.666606983,-5.333344221,1,0,0,1,38,198,77,1,,,,,,,,
,,,,,,,,,,,,,FF,,,,,,,,0.4847,,,,,,,,,,,,,,,,,,,,,,60fcdb0781bec43078236d55,61036a1dd7d7cb15328b0efe,2021-07-29_22h56.27.922,Simcolourproject_2stim_asymm_v5,2020.2.10,Win32,60,61025ae37ef11b136ea224fe,,,,,,,,,2750,26.00001985,62.66665781,1,0,0,response1disk,,7,4.666685879,5.99998945,1,0,0,rectangle,4.666685879,5.99998945,1,0,0,4.666685879,5.99998945,1,0,0,1,39,199,96,1,,,,,,,,
,,,,,,,,,,,,,FF,,,,,,,,1.3004,,,,,,,,,,,,,,,,,,,,,,60fcdb0781bec43078236d55,61036a1dd7d7cb15328b0efe,2021-07-29_22h56.27.922,Simcolourproject_2stim_asymm_v5,2020.2.10,Win32,60,61025ae37ef11b136ea224fe,,,,,,,,,1828,75.33335465,-58.00001246,1,0,0,response3disk,,5,19.33339367,3.333322704,1,0,0,rectangle,19.33339367,3.333322704,1,0,0,19.33339367,3.333322704,1,0,0,1,40,200,4,1,,,,,,,,
,,,,,,,,,,,,,FF,,,,,,,,0.9561,,,,,,,,,,,,,,,,,,,,,,60fcdb0781bec43078236d55,61036a1dd7d7cb15328b0efe,2021-07-29_22h56.27.922,Simcolourproject_2stim_asymm_v5,2020.2.10,Win32,60,61025ae37ef11b136ea224fe,,,,,,,,,721,48.0000205,-64.66667932,1,0,0,response3disk,,4,8.666685998,-2.000010788,1,0,0,rectangle,8.666685998,-2.000010788,1,0,0,8.666685998,-2.000010788,1,0,0,1,41,201,155,1,,,,,,,,
,,,,,,,,,,,,,FF,,,,,,,,1.2567,,,,,,,,,,,,,,,,,,,,,,60fcdb0781bec43078236d55,61036a1dd7d7cb15328b0efe,2021-07-29_22h56.27.922,Simcolourproject_2stim_asymm_v5,2020.2.10,Win32,60,61025ae37ef11b136ea224fe,,,,,,,,,704,72.00002122,-54.66667902,1,0,0,response3disk,,5,6.000019252,9.333322883,1,0,0,rectangle,6.000019252,9.333322883,1,0,0,6.000019252,9.333322883,1,0,0,1,42,202,43,1,,,,,,,,
,,,,,,,,,,,,,FF,,,,,,,,0.6257,,,,,,,,,,,,,,,,,,,,,,60fcdb0781bec43078236d55,61036a1dd7d7cb15328b0efe,2021-07-29_22h56.27.922,Simcolourproject_2stim_asymm_v5,2020.2.10,Win32,60,61025ae37ef11b136ea224fe,,,,,,,,,30,30.66668665,58.66665769,1,0,0,response1disk,,7,1.333393137,0.666655958,1,0,0,rectangle,1.333393137,0.666655958,1,0,0,1.333393137,0.666655958,1,0,0,1,43,203,14,1,,,,,,,,
,,,,,,,,,,,,,FF,,,,,,,,1.2357,,,,,,,,,,,,,,,,,,,,,,60fcdb0781bec43078236d55,61036a1dd7d7cb15328b0efe,2021-07-29_22h56.27.922,Simcolourproject_2stim_asymm_v5,2020.2.10,Win32,60,61025ae37ef11b136ea224fe,,,,,,,,,2724,-39.33331543,-73.33334625,1,0,0,response5disk,,3,-1.999980986,-6.000010908,1,0,0,rectangle,-1.999980986,-6.000010908,1,0,0,-1.999980986,-6.000010908,1,0,0,1,44,204,127,1,,,,,,,,
,,,,,,,,,,,,,FF,,,,,,,,0.766,,,,,,,,,,,,,,,,,,,,,,60fcdb0781bec43078236d55,61036a1dd7d7cb15328b0efe,2021-07-29_22h56.27.922,Simcolourproject_2stim_asymm_v5,2020.2.10,Win32,60,61025ae37ef11b136ea224fe,,,,,,,,,2908,32.00002003,55.33330391,1,0,0,response1disk,,7,-3.333314359,-8.000010967,1,0,0,rectangle,-3.333314359,-8.000010967,1,0,0,-3.333314359,-8.000010967,1,0,0,1,45,205,64,1,,,,,,,,
,,,,,,,,,,,,,FF,,,,,,,,0.5333,,,,,,,,,,,,,,,,,,,,,,60fcdb0781bec43078236d55,61036a1dd7d7cb15328b0efe,2021-07-29_22h56.27.922,Simcolourproject_2stim_asymm_v5,2020.2.10,Win32,60,61025ae37ef11b136ea224fe,,,,,,,,,2765,31.33339403,69.33330433,1,0,0,response1disk,,7,-0.666606923,3.333322704,1,0,0,rectangle,-0.666606923,3.333322704,1,0,0,-0.666606923,3.333322704,1,0,0,1,46,206,129,1,,,,,,,,
,,,,,,,,,,,,,FF,,,,,,,,0.5835,,,,,,,,,,,,,,,,,,,,,,60fcdb0781bec43078236d55,61036a1dd7d7cb15328b0efe,2021-07-29_22h56.27.922,Simcolourproject_2stim_asymm_v5,2020.2.10,Win32,60,61025ae37ef11b136ea224fe,,,,,,,,,4211,43.3333537,63.33330415,1,0,0,response1disk,,7,7.333393315,3.99998939,1,0,0,rectangle,7.333393315,3.99998939,1,0,0,7.333393315,3.99998939,1,0,0,1,47,207,59,1,,,,,,,,
,,,,,,,,,,,,,FF,,,,,,,,0.5509,,,,,,,,,,,,,,,,,,,,,,60fcdb0781bec43078236d55,61036a1dd7d7cb15328b0efe,2021-07-29_22h56.27.922,Simcolourproject_2stim_asymm_v5,2020.2.10,Win32,60,61025ae37ef11b136ea224fe,,,,,,,,,3576,43.3333537,79.99999166,1,0,0,response1disk,,7,6.666685939,9.333322883,1,0,0,rectangle,6.666685939,9.333322883,1,0,0,6.666685939,9.333322883,1,0,0,1,48,208,121,1,,,,,,,,
,,,,,,,,,,,,,FF,,,,,,,,0.8828,,,,,,,,,,,,,,,,,,,,,,60fcdb0781bec43078236d55,61036a1dd7d7cb15328b0efe,2021-07-29_22h56.27.922,Simcolourproject_2stim_asymm_v5,2020.2.10,Win32,60,61025ae37ef11b136ea224fe,,,,,,,,,982,34.66668677,89.99999195,1,0,0,response1disk,,7,-4.666607042,11.99998963,1,0,0,rectangle,-4.666607042,11.99998963,1,0,0,-4.666607042,11.99998963,1,0,0,1,49,209,147,1,,,,,,,,
,,,,,,,,,,,,,FF,,,,,,,,0.5336,,,,,,,,,,,,,,,,,,,,,,60fcdb0781bec43078236d55,61036a1dd7d7cb15328b0efe,2021-07-29_22h56.27.922,Simcolourproject_2stim_asymm_v5,2020.2.10,Win32,60,61025ae37ef11b136ea224fe,,,,,,,,,2623,36.00002015,73.33330444,1,0,0,response1disk,,7,-0.666606923,-1.07288E-05,1,0,0,rectangle,-0.666606923,-1.07288E-05,1,0,0,-0.666606923,-1.07288E-05,1,0,0,1,50,210,89,1,,,,,,,,
,,,,,,,,,,,,,FF,,,,,,,,0.485,,,,,,,,,,,,,,,,,,,,,,60fcdb0781bec43078236d55,61036a1dd7d7cb15328b0efe,2021-07-29_22h56.27.922,Simcolourproject_2stim_asymm_v5,2020.2.10,Win32,60,61025ae37ef11b136ea224fe,,,,,,,,,3023,31.33339403,57.999991,1,0,0,response1disk,,7,-0.666606923,-10.66667771,1,0,0,rectangle,-0.666606923,-10.66667771,1,0,0,-0.666606923,-10.66667771,1,0,0,1,51,211,7,1,,,,,,,,
,,,,,,,,,,,,,FF,,,,,,,,2.4559,,,,,,,,,,,,,,,,,,,,,,60fcdb0781bec43078236d55,61036a1dd7d7cb15328b0efe,2021-07-29_22h56.27.922,Simcolourproject_2stim_asymm_v5,2020.2.10,Win32,60,61025ae37ef11b136ea224fe,,,,,,,,,1750,-60.66660871,-45.33334541,1,0,0,response5disk,,2,-7.999981165,-1.07288E-05,1,0,0,rectangle,-7.999981165,-1.07288E-05,1,0,0,-7.999981165,-1.07288E-05,1,0,0,1,52,212,23,1,,,,,,,,
,,,,,,,,,,,,,FF,,,,,,,,1.7671,,,,,,,,,,,,,,,,,,,,,,60fcdb0781bec43078236d55,61036a1dd7d7cb15328b0efe,2021-07-29_22h56.27.922,Simcolourproject_2stim_asymm_v5,2020.2.10,Win32,60,61025ae37ef11b136ea224fe,,,,,,,,,4204,83.33335489,-47.33334547,1,0,0,response3disk,,5,16.00001955,1.333322644,1,0,0,rectangle,16.00001955,1.333322644,1,0,0,16.00001955,1.333322644,1,0,0,1,53,213,38,1,,,,,,,,
,,,,,,,,,,,,,FF,,,,,,,,0.6555,,,,,,,,,,,,,,,,,,,,,,60fcdb0781bec43078236d55,61036a1dd7d7cb15328b0efe,2021-07-29_22h56.27.922,Simcolourproject_2stim_asymm_v5,2020.2.10,Win32,60,61025ae37ef11b136ea224fe,,,,,,,,,3119,40.00002027,68.66665798,1,0,0,response1disk,,7,1.333393137,1.999989331,1,0,0,rectangle,31.33339403,73.99999148,1,0,0,-0.666606923,0.666655958,1,0,0,1,54,214,85,1,,response1disk_3,TRUE,7,7,"[143,72,295,31,65,302,286,167,71,14,179,26,274,215,105,168,92,165,239,321]",1.3979,rectangle
,,,,,,,,,,,,,FF,,,,,,,,0.9665,,,,,,,,,,,,,,,,,,,,,,60fcdb0781bec43078236d55,61036a1dd7d7cb15328b0efe,2021-07-29_22h56.27.922,Simcolourproject_2stim_asymm_v5,2020.2.10,Win32,60,61025ae37ef11b136ea224fe,,,,,,,,,176,40.66668695,93.33330504,1,0,0,response1disk,,7,-1.999980986,3.99998939,1,0,0,rectangle,-1.999980986,3.99998939,1,0,0,-1.999980986,3.99998939,1,0,0,1,55,215,0,1,,,,,,,,
,,,,,,,,,,,,,FF,,,,,,,,1.1338,,,,,,,,,,,,,,,,,,,,,,60fcdb0781bec43078236d55,61036a1dd7d7cb15328b0efe,2021-07-29_22h56.27.922,Simcolourproject_2stim_asymm_v5,2020.2.10,Win32,60,61025ae37ef11b136ea224fe,,,,,,,,,1887,-37.99998206,-68.00001276,1,0,0,response5disk,,3,3.333393196,-0.666677415,1,0,0,rectangle,3.333393196,-0.666677415,1,0,0,3.333393196,-0.666677415,1,0,0,1,56,216,56,1,,,,,,,,
,,,,,,,,,,,,,FF,,,,,,,,0.75,,,,,,,,,,,,,,,,,,,,,,60fcdb0781bec43078236d55,61036a1dd7d7cb15328b0efe,2021-07-29_22h56.27.922,Simcolourproject_2stim_asymm_v5,2020.2.10,Win32,60,61025ae37ef11b136ea224fe,,,,,,,,,1673,-29.99998182,-66.66667938,1,0,0,response5disk,,3,4.000019193,-2.000010788,1,0,0,rectangle,4.000019193,-2.000010788,1,0,0,4.000019193,-2.000010788,1,0,0,1,57,217,143,1,,,,,,,,
,,,,,,,,,,,,,FF,,,,,,,,0.6167,,,,,,,,,,,,,,,,,,,,,,60fcdb0781bec43078236d55,61036a1dd7d7cb15328b0efe,2021-07-29_22h56.27.922,Simcolourproject_2stim_asymm_v5,2020.2.10,Win32,60,61025ae37ef11b136ea224fe,,,,,,,,,918,43.3333537,110.6666592,1,0,0,response1disk,,7,-1.999980986,5.333322763,1,0,0,rectangle,-1.999980986,5.333322763,1,0,0,-1.999980986,5.333322763,1,0,0,1,58,218,21,1,,,,,,,,
,,,,,,,,,,,,,FF,,,,,,,,1.4008,,,,,,,,,,,,,,,,,,,,,,60fcdb0781bec43078236d55,61036a1dd7d7cb15328b0efe,2021-07-29_22h56.27.922,Simcolourproject_2stim_asymm_v5,2020.2.10,Win32,60,61025ae37ef11b136ea224fe,,,,,,,,,1057,51.33335394,58.66665769,1,0,0,response1disk,,7,-5.999981105,-6.000010908,1,0,0,rectangle,-5.999981105,-6.000010908,1,0,0,-5.999981105,-6.000010908,1,0,0,1,59,219,39,1,,,,,,,,
,,,,,,,,,,,,,FF,,,,,,,,0.7855,,,,,,,,,,,,,,,,,,,,,,60fcdb0781bec43078236d55,61036a1dd7d7cb15328b0efe,2021-07-29_22h56.27.922,Simcolourproject_2stim_asymm_v5,2020.2.10,Win32,60,61025ae37ef11b136ea224fe,,,,,,,,,2672,63.33335429,35.99999034,1,0,0,response1disk,,6,12.00001943,-1.07288E-05,1,0,0,rectangle,12.00001943,-1.07288E-05,1,0,0,12.00001943,-1.07288E-05,1,0,0,1,60,220,78,1,,,,,,,,
,,,,,,,,,,,,,FF,,,,,,,,0.8669,,,,,,,,,,,,,,,,,,,,,,60fcdb0781bec43078236d55,61036a1dd7d7cb15328b0efe,2021-07-29_22h56.27.922,Simcolourproject_2stim_asymm_v5,2020.2.10,Win32,60,61025ae37ef11b136ea224fe,,,,,,,,,3396,76.00002134,-34.66667843,1,0,0,response3disk,,5,9.333393375,1.333322644,1,0,0,rectangle,9.333393375,1.333322644,1,0,0,9.333393375,1.333322644,1,0,0,1,61,221,145,1,,,,,,,,
,,,,,,,,,,,,,FF,,,,,,,,0.6669,,,,,,,,,,,,,,,,,,,,,,60fcdb0781bec43078236d55,61036a1dd7d7cb15328b0efe,2021-07-29_22h56.27.922,Simcolourproject_2stim_asymm_v5,2020.2.10,Win32,60,61025ae37ef11b136ea224fe,,,,,,,,,3840,44.66668707,73.99999148,1,0,0,response1disk,,7,-2.666606983,7.333322823,1,0,0,rectangle,-2.666606983,7.333322823,1,0,0,-2.666606983,7.333322823,1,0,0,1,62,222,31,1,,,,,,,,
,,,,,,,,,,,,,FF,,,,,,,,0.9844,,,,,,,,,,,,,,,,,,,,,,60fcdb0781bec43078236d55,61036a1dd7d7cb15328b0efe,2021-07-29_22h56.27.922,Simcolourproject_2stim_asymm_v5,2020.2.10,Win32,60,61025ae37ef11b136ea224fe,,,,,,,,,2308,48.66668719,81.99999171,1,0,0,response1disk,,7,-1.999980986,0.666655958,1,0,0,rectangle,-1.999980986,0.666655958,1,0,0,-1.999980986,0.666655958,1,0,0,1,63,223,158,1,,,,,,,,
,,,,,,,,,,,,,FF,,,,,,,,0.7067,,,,,,,,,,,,,,,,,,,,,,60fcdb0781bec43078236d55,61036a1dd7d7cb15328b0efe,2021-07-29_22h56.27.922,Simcolourproject_2stim_asymm_v5,2020.2.10,Win32,60,61025ae37ef11b136ea224fe,,,,,,,,,2264,46.00002044,83.33330474,1,0,0,response1disk,,7,1.9735E-05,-8.666677654,1,0,0,rectangle,1.9735E-05,-8.666677654,1,0,0,1.9735E-05,-8.666677654,1,0,0,1,64,224,45,1,,,,,,,,
,,,,,,,,,,,,,FF,,,,,,,,0.5078,,,,,,,,,,,,,,,,,,,,,,60fcdb0781bec43078236d55,61036a1dd7d7cb15328b0efe,2021-07-29_22h56.27.922,Simcolourproject_2stim_asymm_v5,2020.2.10,Win32,60,61025ae37ef11b136ea224fe,,,,,,,,,1327,36.00002015,67.33330427,1,0,0,response1disk,,7,10.00001937,2.666656017,1,0,0,rectangle,10.00001937,2.666656017,1,0,0,10.00001937,2.666656017,1,0,0,1,65,225,104,1,,,,,,,,
,,,,,,,,,,,,,FF,,,,,,,,0.5886,,,,,,,,,,,,,,,,,,,,,,60fcdb0781bec43078236d55,61036a1dd7d7cb15328b0efe,2021-07-29_22h56.27.922,Simcolourproject_2stim_asymm_v5,2020.2.10,Win32,60,61025ae37ef11b136ea224fe,,,,,,,,,836,37.33339421,61.33330409,1,0,0,response1disk,,7,-0.666606923,-6.666677594,1,0,0,rectangle,-0.666606923,-6.666677594,1,0,0,-0.666606923,-6.666677594,1,0,0,1,66,226,50,1,,,,,,,,
,,,,,,,,,,,,,FF,,,,,,,,0.6034,,,,,,,,,,,,,,,,,,,,,,60fcdb0781bec43078236d55,61036a1dd7d7cb15328b0efe,2021-07-29_22h56.27.922,Simcolourproject_2stim_asymm_v5,2020.2.10,Win32,60,61025ae37ef11b136ea224fe,,,,,,,,,22,34.66668677,63.33330415,1,0,0,response1disk,,7,6.666685939,9.333322883,1,0,0,rectangle,6.666685939,9.333322883,1,0,0,6.666685939,9.333322883,1,0,0,1,67,227,17,1,,,,,,,,
,,,,,,,,,,,,,FF,,,,,,,,0.9885,,,,,,,,,,,,,,,,,,,,,,60fcdb0781bec43078236d55,61036a1dd7d7cb15328b0efe,2021-07-29_22h56.27.922,Simcolourproject_2stim_asymm_v5,2020.2.10,Win32,60,61025ae37ef11b136ea224fe,,,,,,,,,1115,70.00002116,44.66665727,1,0,0,response1disk,,6,18.6666863,5.99998945,1,0,0,rectangle,18.6666863,5.99998945,1,0,0,18.6666863,5.99998945,1,0,0,1,68,228,135,1,,,,,,,,
,,,,,,,,,,,,,FF,,,,,,,,0.6236,,,,,,,,,,,,,,,,,,,,,,60fcdb0781bec43078236d55,61036a1dd7d7cb15328b0efe,2021-07-29_22h56.27.922,Simcolourproject_2stim_asymm_v5,2020.2.10,Win32,60,61025ae37ef11b136ea224fe,,,,,,,,,3026,39.33339427,54.66665757,1,0,0,response1disk,,7,9.333393375,-10.66667771,1,0,0,rectangle,9.333393375,-10.66667771,1,0,0,9.333393375,-10.66667771,1,0,0,1,69,229,1,1,,,,,,,,
,,,,,,,,,,,,,FF,,,,,,,,0.5906,,,,,,,,,,,,,,,,,,,,,,60fcdb0781bec43078236d55,61036a1dd7d7cb15328b0efe,2021-07-29_22h56.27.922,Simcolourproject_2stim_asymm_v5,2020.2.10,Win32,60,61025ae37ef11b136ea224fe,,,,,,,,,3704,29.33339397,55.33330391,1,0,0,response1disk,,7,16.66668624,2.666656017,1,0,0,rectangle,16.66668624,2.666656017,1,0,0,16.66668624,2.666656017,1,0,0,1,70,230,103,1,,,,,,,,
,,,,,,,,,,,,,FF,,,,,,,,0.6239,,,,,,,,,,,,,,,,,,,,,,60fcdb0781bec43078236d55,61036a1dd7d7cb15328b0efe,2021-07-29_22h56.27.922,Simcolourproject_2stim_asymm_v5,2020.2.10,Win32,60,61025ae37ef11b136ea224fe,,,,,,,,,1250,36.66668683,57.999991,1,0,0,response1disk,,7,10.00001937,-1.07288E-05,1,0,0,rectangle,10.00001937,-1.07288E-05,1,0,0,10.00001937,-1.07288E-05,1,0,0,1,71,231,58,1,,,,,,,,
,,,,,,,,,,,,,FF,,,,,,,,0.9227,,,,,,,,,,,,,,,,,,,,,,60fcdb0781bec43078236d55,61036a1dd7d7cb15328b0efe,2021-07-29_22h56.27.922,Simcolourproject_2stim_asymm_v5,2020.2.10,Win32,60,61025ae37ef11b136ea224fe,,,,,,,,,969,55.33335406,-67.33334607,1,0,0,response3disk,,4,0.66668576,-7.333344281,1,0,0,rectangle,0.66668576,-7.333344281,1,0,0,0.66668576,-7.333344281,1,0,0,1,72,232,28,1,,,,,,,,
,,,,,,,,,,,,,FF,,,,,,,,0.9393,,,,,,,,,,,,,,,,,,,,,,60fcdb0781bec43078236d55,61036a1dd7d7cb15328b0efe,2021-07-29_22h56.27.922,Simcolourproject_2stim_asymm_v5,2020.2.10,Win32,60,61025ae37ef11b136ea224fe,,,,,,,,,822,32.00002003,59.99999106,1,0,0,response1disk,,7,5.333393256,-2.000010788,1,0,0,rectangle,5.333393256,-2.000010788,1,0,0,5.333393256,-2.000010788,1,0,0,1,73,233,156,1,,,,,,,,
,,,,,,,,,,,,,FF,,,,,,,,4.4675,,,,,,,,,,,,,,,,,,,,,,60fcdb0781bec43078236d55,61036a1dd7d7cb15328b0efe,2021-07-29_22h56.27.922,Simcolourproject_2stim_asymm_v5,2020.2.10,Win32,60,61025ae37ef11b136ea224fe,,,,,,,,,2011,28.00001991,56.66665763,1,0,0,response1disk,,7,-5.333314419,-3.333344162,1,0,0,rectangle,-5.333314419,-3.333344162,1,0,0,-5.333314419,-3.333344162,1,0,0,1,74,234,61,1,,,,,,,,
,,,,,,,,,,,,,FF,,,,,,,,0.707,,,,,,,,,,,,,,,,,,,,,,60fcdb0781bec43078236d55,61036a1dd7d7cb15328b0efe,2021-07-29_22h56.27.922,Simcolourproject_2stim_asymm_v5,2020.2.10,Win32,60,61025ae37ef11b136ea224fe,,,,,,,,,1999,42.00002033,59.99999106,1,0,0,response1disk,,7,5.333393256,4.666656077,1,0,0,rectangle,5.333393256,4.666656077,1,0,0,5.333393256,4.666656077,1,0,0,1,75,235,92,1,,,,,,,,
,,,,,,,,,,,,,FF,,,,,,,,1.7823,,,,,,,,,,,,,,,,,,,,,,60fcdb0781bec43078236d55,61036a1dd7d7cb15328b0efe,2021-07-29_22h56.27.922,Simcolourproject_2stim_asymm_v5,2020.2.10,Win32,60,61025ae37ef11b136ea224fe,,,,,,,,,2544,86.00002164,-32.00001168,1,0,0,response3disk,,5,6.000019252,-0.666677415,1,0,0,rectangle,6.000019252,-0.666677415,1,0,0,6.000019252,-0.666677415,1,0,0,1,76,236,112,1,,,,,,,,
,,,,,,,,,,,,,FF,,,,,,,,0.9498,,,,,,,,,,,,,,,,,,,,,,60fcdb0781bec43078236d55,61036a1dd7d7cb15328b0efe,2021-07-29_22h56.27.922,Simcolourproject_2stim_asymm_v5,2020.2.10,Win32,60,61025ae37ef11b136ea224fe,,,,,,,,,3003,74.66668797,-28.66667825,1,0,0,response3disk,,5,5.333393256,-1.333344102,1,0,0,rectangle,5.333393256,-1.333344102,1,0,0,5.333393256,-1.333344102,1,0,0,1,77,237,48,1,,,,,,,,
,,,,,,,,,,,,,FF,,,,,,,,0.6548,,,,,,,,,,,,,,,,,,,,,,60fcdb0781bec43078236d55,61036a1dd7d7cb15328b0efe,2021-07-29_22h56.27.922,Simcolourproject_2stim_asymm_v5,2020.2.10,Win32,60,61025ae37ef11b136ea224fe,,,,,,,,,3353,33.33339409,71.99999142,1,0,0,response1disk,,7,2.000019133,-1.333344102,1,0,0,rectangle,86.00002164,-62.66667926,1,0,0,9.333393375,-6.000010908,1,0,0,1,78,238,69,1,,response3disk_3,TRUE,5,5,"[143,72,295,31,65,302,286,167,71,14,179,26,274,215,105,168,92,165,239,321]",1.2521,rectangle
,,,,,,,,,,,,,FF,,,,,,,,0.9837,,,,,,,,,,,,,,,,,,,,,,60fcdb0781bec43078236d55,61036a1dd7d7cb15328b0efe,2021-07-29_22h56.27.922,Simcolourproject_2stim_asymm_v5,2020.2.10,Win32,60,61025ae37ef11b136ea224fe,,,,,,,,,2241,54.00002068,43.33330355,1,0,0,response1disk,,6,1.333393137,3.333322704,1,0,0,rectangle,1.333393137,3.333322704,1,0,0,1.333393137,3.333322704,1,0,0,1,79,239,9,1,,,,,,,,
,,,,,,,,,,,,,FF,,,,,,,,1.0361,,,,,,,,,,,,,,,,,,,,,,60fcdb0781bec43078236d55,61036a1dd7d7cb15328b0efe,2021-07-29_22h56.27.922,Simcolourproject_2stim_asymm_v5,2020.2.10,Win32,60,61025ae37ef11b136ea224fe,,,,,,,,,1838,34.00002009,60.66665775,1,0,0,response1disk,,7,-0.666606923,-2.000010788,1,0,0,rectangle,-0.666606923,-2.000010788,1,0,0,-0.666606923,-2.000010788,1,0,0,1,80,240,71,1,,,,,,,,
,,,,,,,,,,,,,FF,,,,,,,,0.6836,,,,,,,,,,,,,,,,,,,,,,60fcdb0781bec43078236d55,61036a1dd7d7cb15328b0efe,2021-07-29_22h56.27.922,Simcolourproject_2stim_asymm_v5,2020.2.10,Win32,60,61025ae37ef11b136ea224fe,,,,,,,,,1564,28.00001991,75.99999154,1,0,0,response1disk,,7,1.9735E-05,2.666656017,1,0,0,rectangle,1.9735E-05,2.666656017,1,0,0,1.9735E-05,2.666656017,1,0,0,1,81,241,62,1,,,,,,,,
,,,,,,,,,,,,,FF,,,,,,,,0.7514,,,,,,,,,,,,,,,,,,,,,,60fcdb0781bec43078236d55,61036a1dd7d7cb15328b0efe,2021-07-29_22h56.27.922,Simcolourproject_2stim_asymm_v5,2020.2.10,Win32,60,61025ae37ef11b136ea224fe,,,,,,,,,3883,20.66668636,43.99999058,1,0,0,response1disk,,7,6.666685939,2.666656017,1,0,0,rectangle,6.666685939,2.666656017,1,0,0,6.666685939,2.666656017,1,0,0,1,82,242,84,1,,,,,,,,
,,,,,,,,,,,,,FF,,,,,,,,1.1238,,,,,,,,,,,,,,,,,,,,,,60fcdb0781bec43078236d55,61036a1dd7d7cb15328b0efe,2021-07-29_22h56.27.922,Simcolourproject_2stim_asymm_v5,2020.2.10,Win32,60,61025ae37ef11b136ea224fe,,,,,,,,,1745,-58.66660865,-83.33334655,1,0,0,response5disk,,3,-1.999980986,3.99998939,1,0,0,rectangle,-1.999980986,3.99998939,1,0,0,-1.999980986,3.99998939,1,0,0,1,83,243,19,1,,,,,,,,
