key_resp.keys,key_resp.rt,key_resp_14.keys,key_resp_14.rt,key_resp_15.keys,key_resp_15.rt,key_resp_17.keys,key_resp_17.rt,key_resp_9.keys,key_resp_9.rt,key_resp_10.keys,key_resp_10.rt,practice_comparison,Ecc,mouse_5.x,mouse_5.y,mouse_5.leftButton,mouse_5.midButton,mouse_5.rightButton,mouse_5.clicked_name,pracsimilarity,response_time,mouse_10.x,mouse_10.y,mouse_10.leftButton,mouse_10.midButton,mouse_10.rightButton,mouse_10.clicked_name,mouse_7.x,mouse_7.y,mouse_7.leftButton,mouse_7.midButton,mouse_7.rightButton,mouse_6.x,mouse_6.y,mouse_6.leftButton,mouse_6.midButton,mouse_6.rightButton,duringprac.thisRepN,duringprac.thisTrialN,duringprac.thisN,duringprac.thisIndex,duringprac.ran,participant,session,date,expName,psychopyVersion,OS,frameRate,study_id,mouse_7.clicked_name,catchpracsimilarity,catch_response_time,catchnumberprac,catchtrialorderprac,mouse_6.clicked_name,key_resp_22.keys,key_resp_22.rt,realcomparison,mouse.x,mouse.y,mouse.leftButton,mouse.midButton,mouse.rightButton,mouse.clicked_name,Colour2,similarity,mouse_2.x,mouse_2.y,mouse_2.leftButton,mouse_2.midButton,mouse_2.rightButton,mouse_2.clicked_name,mouse_3.x,mouse_3.y,mouse_3.leftButton,mouse_3.midButton,mouse_3.rightButton,mouse_11.x,mouse_11.y,mouse_11.leftButton,mouse_11.midButton,mouse_11.rightButton,trials_2.thisRepN,trials_2.thisTrialN,trials_2.thisN,trials_2.thisIndex,trials_2.ran,Colour1,mouse_3.clicked_name,catchornah,catchsimilarity,catchnumber,catchtrialorder,catchRT,mouse_11.clicked_name
space,1.0909,space,13.311,space,38.9256,space,1.9036,space,0.0666,space,3.3992,142,PF,117,52,1,0,0,response1disk_5,6,3.708,-7,-10,1,0,0,rectangle_8,-7,-10,1,0,0,-7,-10,1,0,0,0,0,0,4,1,60fcf7e8002c2c1b89b03b30,61036ae3dab58175685386d7,2021-07-30_14h59.48.244,Simcolourproject_2stim_asymm_v5,2020.2.10,Win32,60,61025ae37ef11b136ea224fe,,,,,,,,,,,,,,,,,,,,,,,,,,,,,,,,,,,,,,,,,,,,,,
,,,,,,,,,,,,89,PF,118,-53,1,0,0,response3disk_5,5,3.2242,2,11,1,0,0,rectangle_8,136,74,1,0,0,-4,0,1,0,0,0,1,1,6,1,60fcf7e8002c2c1b89b03b30,61036ae3dab58175685386d7,2021-07-30_14h59.48.244,Simcolourproject_2stim_asymm_v5,2020.2.10,Win32,60,61025ae37ef11b136ea224fe,response1disk_7,6,1.9377,6,"[2,5]",rectangle_4,,,,,,,,,,,,,,,,,,,,,,,,,,,,,,,,,,,,,,,,
,,,,,,,,,,,,14,PF,132,-38,1,0,0,response3disk_5,5,3.809,4,-2,1,0,0,rectangle_8,4,-2,1,0,0,4,-2,1,0,0,0,2,2,2,1,60fcf7e8002c2c1b89b03b30,61036ae3dab58175685386d7,2021-07-30_14h59.48.244,Simcolourproject_2stim_asymm_v5,2020.2.10,Win32,60,61025ae37ef11b136ea224fe,,,,,,,,,,,,,,,,,,,,,,,,,,,,,,,,,,,,,,,,,,,,,,
,,,,,,,,,,,,147,FF,35,90,1,0,0,response1disk_5,7,3.0066,-8,-7,1,0,0,rectangle_8,-8,-7,1,0,0,-8,-7,1,0,0,0,3,3,0,1,60fcf7e8002c2c1b89b03b30,61036ae3dab58175685386d7,2021-07-30_14h59.48.244,Simcolourproject_2stim_asymm_v5,2020.2.10,Win32,60,61025ae37ef11b136ea224fe,,,,,,,,,,,,,,,,,,,,,,,,,,,,,,,,,,,,,,,,,,,,,,
,,,,,,,,,,,,60,FF,60,-122,1,0,0,response3disk_5,4,1.6872,-11,1,1,0,0,rectangle_8,122,51,1,0,0,17,-15,1,0,0,0,4,4,5,1,60fcf7e8002c2c1b89b03b30,61036ae3dab58175685386d7,2021-07-30_14h59.48.244,Simcolourproject_2stim_asymm_v5,2020.2.10,Win32,60,61025ae37ef11b136ea224fe,response1disk_7,6,1.7871,6,"[2,5]",rectangle_4,,,,,,,,,,,,,,,,,,,,,,,,,,,,,,,,,,,,,,,,
,,,,,,,,,,,,25,FF,-52,-121,1,0,0,response5disk_5,3,5.8297,-5,8,1,0,0,rectangle_8,-5,8,1,0,0,-5,8,1,0,0,0,5,5,3,1,60fcf7e8002c2c1b89b03b30,61036ae3dab58175685386d7,2021-07-30_14h59.48.244,Simcolourproject_2stim_asymm_v5,2020.2.10,Win32,60,61025ae37ef11b136ea224fe,,,,,,,,,,,,,,,,,,,,,,,,,,,,,,,,,,,,,,,,,,,,,,
,,,,,,,,,,,,83,PF,105,-40,1,0,0,response3disk_5,5,1.9711,-17,9,1,0,0,rectangle_8,-17,9,1,0,0,-17,9,1,0,0,0,6,6,1,1,60fcf7e8002c2c1b89b03b30,61036ae3dab58175685386d7,2021-07-30_14h59.48.244,Simcolourproject_2stim_asymm_v5,2020.2.10,Win32,60,61025ae37ef11b136ea224fe,,,,,,,,,,,,,,,,,,,,,,,,,,,,,,,,,,,,,,,,,,,,,,
,,,,,,,,,,,,,FF,,,,,,,,1.3863,,,,,,,,,,,,,,,,,,,,,,60fcf7e8002c2c1b89b03b30,61036ae3dab58175685386d7,2021-07-30_14h59.48.244,Simcolourproject_2stim_asymm_v5,2020.2.10,Win32,60,61025ae37ef11b136ea224fe,,,,,,,space,3.7845,1390,105,-49,1,0,0,response3disk,,5,11,4,1,0,0,rectangle,11,4,1,0,0,11,4,1,0,0,0,0,0,7,1,,,,,,,,
,,,,,,,,,,,,,FF,,,,,,,,1.7539,,,,,,,,,,,,,,,,,,,,,,60fcf7e8002c2c1b89b03b30,61036ae3dab58175685386d7,2021-07-30_14h59.48.244,Simcolourproject_2stim_asymm_v5,2020.2.10,Win32,60,61025ae37ef11b136ea224fe,,,,,,,,,2829,96,32,1,0,0,response1disk,,6,3,-5,1,0,0,rectangle,3,-5,1,0,0,3,-5,1,0,0,0,1,1,31,1,,,,,,,,
,,,,,,,,,,,,,FF,,,,,,,,1.2195,,,,,,,,,,,,,,,,,,,,,,60fcf7e8002c2c1b89b03b30,61036ae3dab58175685386d7,2021-07-30_14h59.48.244,Simcolourproject_2stim_asymm_v5,2020.2.10,Win32,60,61025ae37ef11b136ea224fe,,,,,,,,,2236,-62,-121,1,0,0,response5disk,,3,1,18,1,0,0,rectangle,1,18,1,0,0,1,18,1,0,0,0,2,2,9,1,,,,,,,,
,,,,,,,,,,,,,FF,,,,,,,,1.4368,,,,,,,,,,,,,,,,,,,,,,60fcf7e8002c2c1b89b03b30,61036ae3dab58175685386d7,2021-07-30_14h59.48.244,Simcolourproject_2stim_asymm_v5,2020.2.10,Win32,60,61025ae37ef11b136ea224fe,,,,,,,,,4122,41,-95,1,0,0,response3disk,,4,-18,-2,1,0,0,rectangle,-18,-2,1,0,0,-18,-2,1,0,0,0,3,3,142,1,,,,,,,,
,,,,,,,,,,,,,FF,,,,,,,,1.0518,,,,,,,,,,,,,,,,,,,,,,60fcf7e8002c2c1b89b03b30,61036ae3dab58175685386d7,2021-07-30_14h59.48.244,Simcolourproject_2stim_asymm_v5,2020.2.10,Win32,60,61025ae37ef11b136ea224fe,,,,,,,,,2550,90,-49,1,0,0,response3disk,,5,4,-7,1,0,0,rectangle,4,-7,1,0,0,4,-7,1,0,0,0,4,4,86,1,,,,,,,,
,,,,,,,,,,,,,FF,,,,,,,,1.9876,,,,,,,,,,,,,,,,,,,,,,60fcf7e8002c2c1b89b03b30,61036ae3dab58175685386d7,2021-07-30_14h59.48.244,Simcolourproject_2stim_asymm_v5,2020.2.10,Win32,60,61025ae37ef11b136ea224fe,,,,,,,,,1943,101,69,1,0,0,response1disk,,6,-10,-8,1,0,0,rectangle,142,44,1,0,0,9,5,1,0,0,0,5,5,137,1,,response1disk_3,TRUE,6,6,"[233,114,112,25,224,85,162,204,199,33,75,71,6,20,290,95,274,111,160,285]",1.6544,rectangle
,,,,,,,,,,,,,FF,,,,,,,,1.6536,,,,,,,,,,,,,,,,,,,,,,60fcf7e8002c2c1b89b03b30,61036ae3dab58175685386d7,2021-07-30_14h59.48.244,Simcolourproject_2stim_asymm_v5,2020.2.10,Win32,60,61025ae37ef11b136ea224fe,,,,,,,,,1790,-125,-47,1,0,0,response5disk,,2,12,21,1,0,0,rectangle,12,21,1,0,0,12,21,1,0,0,0,6,6,149,1,,,,,,,,
,,,,,,,,,,,,,FF,,,,,,,,3.358,,,,,,,,,,,,,,,,,,,,,,60fcf7e8002c2c1b89b03b30,61036ae3dab58175685386d7,2021-07-30_14h59.48.244,Simcolourproject_2stim_asymm_v5,2020.2.10,Win32,60,61025ae37ef11b136ea224fe,,,,,,,,,1303,-91,-56,1,0,0,response5disk,,2,2,3,1,0,0,rectangle,2,3,1,0,0,2,3,1,0,0,0,7,7,122,1,,,,,,,,
,,,,,,,,,,,,,FF,,,,,,,,2.8228,,,,,,,,,,,,,,,,,,,,,,60fcf7e8002c2c1b89b03b30,61036ae3dab58175685386d7,2021-07-30_14h59.48.244,Simcolourproject_2stim_asymm_v5,2020.2.10,Win32,60,61025ae37ef11b136ea224fe,,,,,,,,,3397,-42,-107,1,0,0,response5disk,,3,-12,-4,1,0,0,rectangle,-12,-4,1,0,0,-12,-4,1,0,0,0,8,8,115,1,,,,,,,,
,,,,,,,,,,,,,FF,,,,,,,,2.5384,,,,,,,,,,,,,,,,,,,,,,60fcf7e8002c2c1b89b03b30,61036ae3dab58175685386d7,2021-07-30_14h59.48.244,Simcolourproject_2stim_asymm_v5,2020.2.10,Win32,60,61025ae37ef11b136ea224fe,,,,,,,,,3804,106,63,1,0,0,response1disk,,6,-17,-19,1,0,0,rectangle,-17,-19,1,0,0,-17,-19,1,0,0,0,9,9,41,1,,,,,,,,
,,,,,,,,,,,,,FF,,,,,,,,1.2689,,,,,,,,,,,,,,,,,,,,,,60fcf7e8002c2c1b89b03b30,61036ae3dab58175685386d7,2021-07-30_14h59.48.244,Simcolourproject_2stim_asymm_v5,2020.2.10,Win32,60,61025ae37ef11b136ea224fe,,,,,,,,,1145,-135,78,1,0,0,response7disk,,1,-1,-6,1,0,0,rectangle,-1,-6,1,0,0,-1,-6,1,0,0,0,10,10,35,1,,,,,,,,
,,,,,,,,,,,,,FF,,,,,,,,0.8686,,,,,,,,,,,,,,,,,,,,,,60fcf7e8002c2c1b89b03b30,61036ae3dab58175685386d7,2021-07-30_14h59.48.244,Simcolourproject_2stim_asymm_v5,2020.2.10,Win32,60,61025ae37ef11b136ea224fe,,,,,,,,,2634,113,-47,1,0,0,response3disk,,5,-19,-4,1,0,0,rectangle,-19,-4,1,0,0,-19,-4,1,0,0,0,11,11,54,1,,,,,,,,
,,,,,,,,,,,,,FF,,,,,,,,0.9857,,,,,,,,,,,,,,,,,,,,,,60fcf7e8002c2c1b89b03b30,61036ae3dab58175685386d7,2021-07-30_14h59.48.244,Simcolourproject_2stim_asymm_v5,2020.2.10,Win32,60,61025ae37ef11b136ea224fe,,,,,,,,,293,-65,-115,1,0,0,response5disk,,3,-12,10,1,0,0,rectangle,-12,10,1,0,0,-12,10,1,0,0,0,12,12,98,1,,,,,,,,
,,,,,,,,,,,,,FF,,,,,,,,1.3699,,,,,,,,,,,,,,,,,,,,,,60fcf7e8002c2c1b89b03b30,61036ae3dab58175685386d7,2021-07-30_14h59.48.244,Simcolourproject_2stim_asymm_v5,2020.2.10,Win32,60,61025ae37ef11b136ea224fe,,,,,,,,,3583,-122,-57,1,0,0,response5disk,,2,4,15,1,0,0,rectangle,4,15,1,0,0,4,15,1,0,0,0,13,13,15,1,,,,,,,,
,,,,,,,,,,,,,FF,,,,,,,,0.9687,,,,,,,,,,,,,,,,,,,,,,60fcf7e8002c2c1b89b03b30,61036ae3dab58175685386d7,2021-07-30_14h59.48.244,Simcolourproject_2stim_asymm_v5,2020.2.10,Win32,60,61025ae37ef11b136ea224fe,,,,,,,,,3141,82,46,1,0,0,response1disk,,6,6,-3,1,0,0,rectangle,6,-3,1,0,0,6,-3,1,0,0,0,14,14,29,1,,,,,,,,
,,,,,,,,,,,,,FF,,,,,,,,0.8185,,,,,,,,,,,,,,,,,,,,,,60fcf7e8002c2c1b89b03b30,61036ae3dab58175685386d7,2021-07-30_14h59.48.244,Simcolourproject_2stim_asymm_v5,2020.2.10,Win32,60,61025ae37ef11b136ea224fe,,,,,,,,,1131,-151,66,1,0,0,response7disk,,1,4,5,1,0,0,rectangle,4,5,1,0,0,4,5,1,0,0,0,15,15,19,1,,,,,,,,
,,,,,,,,,,,,,FF,,,,,,,,1.5872,,,,,,,,,,,,,,,,,,,,,,60fcf7e8002c2c1b89b03b30,61036ae3dab58175685386d7,2021-07-30_14h59.48.244,Simcolourproject_2stim_asymm_v5,2020.2.10,Win32,60,61025ae37ef11b136ea224fe,,,,,,,,,3967,46,-120,1,0,0,response3disk,,4,-1,-8,1,0,0,rectangle,-1,-8,1,0,0,-1,-8,1,0,0,0,16,16,91,1,,,,,,,,
,,,,,,,,,,,,,FF,,,,,,,,0.935,,,,,,,,,,,,,,,,,,,,,,60fcf7e8002c2c1b89b03b30,61036ae3dab58175685386d7,2021-07-30_14h59.48.244,Simcolourproject_2stim_asymm_v5,2020.2.10,Win32,60,61025ae37ef11b136ea224fe,,,,,,,,,568,75,41,1,0,0,response1disk,,6,7,6,1,0,0,rectangle,7,6,1,0,0,7,6,1,0,0,0,17,17,158,1,,,,,,,,
,,,,,,,,,,,,,FF,,,,,,,,1.9378,,,,,,,,,,,,,,,,,,,,,,60fcf7e8002c2c1b89b03b30,61036ae3dab58175685386d7,2021-07-30_14h59.48.244,Simcolourproject_2stim_asymm_v5,2020.2.10,Win32,60,61025ae37ef11b136ea224fe,,,,,,,,,1326,106,-33,1,0,0,response3disk,,5,-20,-2,1,0,0,rectangle,-20,-2,1,0,0,-20,-2,1,0,0,0,18,18,145,1,,,,,,,,
,,,,,,,,,,,,,FF,,,,,,,,1.4533,,,,,,,,,,,,,,,,,,,,,,60fcf7e8002c2c1b89b03b30,61036ae3dab58175685386d7,2021-07-30_14h59.48.244,Simcolourproject_2stim_asymm_v5,2020.2.10,Win32,60,61025ae37ef11b136ea224fe,,,,,,,,,1391,68,-105,1,0,0,response3disk,,4,-4,3,1,0,0,rectangle,-54,135,1,0,0,-1,-9,1,0,0,0,19,19,139,1,,response7disk_3,TRUE,0,0,"[233,114,112,25,224,85,162,204,199,33,75,71,6,20,290,95,274,111,160,285]",1.7367,rectangle
,,,,,,,,,,,,,FF,,,,,,,,1.2361,,,,,,,,,,,,,,,,,,,,,,60fcf7e8002c2c1b89b03b30,61036ae3dab58175685386d7,2021-07-30_14h59.48.244,Simcolourproject_2stim_asymm_v5,2020.2.10,Win32,60,61025ae37ef11b136ea224fe,,,,,,,,,864,107,41,1,0,0,response1disk,,6,-7,-3,1,0,0,rectangle,-7,-3,1,0,0,-7,-3,1,0,0,0,20,20,81,1,,,,,,,,
,,,,,,,,,,,,,FF,,,,,,,,1.2365,,,,,,,,,,,,,,,,,,,,,,60fcf7e8002c2c1b89b03b30,61036ae3dab58175685386d7,2021-07-30_14h59.48.244,Simcolourproject_2stim_asymm_v5,2020.2.10,Win32,60,61025ae37ef11b136ea224fe,,,,,,,,,1627,67,53,1,0,0,response1disk,,6,7,0,1,0,0,rectangle,7,0,1,0,0,7,0,1,0,0,0,21,21,60,1,,,,,,,,
,,,,,,,,,,,,,FF,,,,,,,,1.0188,,,,,,,,,,,,,,,,,,,,,,60fcf7e8002c2c1b89b03b30,61036ae3dab58175685386d7,2021-07-30_14h59.48.244,Simcolourproject_2stim_asymm_v5,2020.2.10,Win32,60,61025ae37ef11b136ea224fe,,,,,,,,,3918,92,-37,1,0,0,response3disk,,5,-10,7,1,0,0,rectangle,-10,7,1,0,0,-10,7,1,0,0,0,22,22,53,1,,,,,,,,
,,,,,,,,,,,,,FF,,,,,,,,1.0692,,,,,,,,,,,,,,,,,,,,,,60fcf7e8002c2c1b89b03b30,61036ae3dab58175685386d7,2021-07-30_14h59.48.244,Simcolourproject_2stim_asymm_v5,2020.2.10,Win32,60,61025ae37ef11b136ea224fe,,,,,,,,,353,-114,-49,1,0,0,response5disk,,2,-20,-3,1,0,0,rectangle,-20,-3,1,0,0,-20,-3,1,0,0,0,23,23,140,1,,,,,,,,
,,,,,,,,,,,,,FF,,,,,,,,1.1358,,,,,,,,,,,,,,,,,,,,,,60fcf7e8002c2c1b89b03b30,61036ae3dab58175685386d7,2021-07-30_14h59.48.244,Simcolourproject_2stim_asymm_v5,2020.2.10,Win32,60,61025ae37ef11b136ea224fe,,,,,,,,,3735,106,85,1,0,0,response1disk,,6,33,10,1,0,0,rectangle,-43,134,1,0,0,-7,14,1,0,0,0,24,24,97,1,,response7disk_3,TRUE,0,0,"[233,114,112,25,224,85,162,204,199,33,75,71,6,20,290,95,274,111,160,285]",1.8202,rectangle
,,,,,,,,,,,,,FF,,,,,,,,1.3361,,,,,,,,,,,,,,,,,,,,,,60fcf7e8002c2c1b89b03b30,61036ae3dab58175685386d7,2021-07-30_14h59.48.244,Simcolourproject_2stim_asymm_v5,2020.2.10,Win32,60,61025ae37ef11b136ea224fe,,,,,,,,,2664,-122,-46,1,0,0,response5disk,,2,8,14,1,0,0,rectangle,8,14,1,0,0,8,14,1,0,0,0,25,25,75,1,,,,,,,,
,,,,,,,,,,,,,FF,,,,,,,,0.8022,,,,,,,,,,,,,,,,,,,,,,60fcf7e8002c2c1b89b03b30,61036ae3dab58175685386d7,2021-07-30_14h59.48.244,Simcolourproject_2stim_asymm_v5,2020.2.10,Win32,60,61025ae37ef11b136ea224fe,,,,,,,,,2657,87,65,1,0,0,response1disk,,6,8,17,1,0,0,rectangle,8,17,1,0,0,8,17,1,0,0,0,26,26,23,1,,,,,,,,
,,,,,,,,,,,,,FF,,,,,,,,1.9377,,,,,,,,,,,,,,,,,,,,,,60fcf7e8002c2c1b89b03b30,61036ae3dab58175685386d7,2021-07-30_14h59.48.244,Simcolourproject_2stim_asymm_v5,2020.2.10,Win32,60,61025ae37ef11b136ea224fe,,,,,,,,,4117,67,62,1,0,0,response1disk,,6,1,13,1,0,0,rectangle,1,13,1,0,0,1,13,1,0,0,0,27,27,78,1,,,,,,,,
,,,,,,,,,,,,,FF,,,,,,,,1.9542,,,,,,,,,,,,,,,,,,,,,,60fcf7e8002c2c1b89b03b30,61036ae3dab58175685386d7,2021-07-30_14h59.48.244,Simcolourproject_2stim_asymm_v5,2020.2.10,Win32,60,61025ae37ef11b136ea224fe,,,,,,,,,2389,59,89,1,0,0,response1disk,,7,-15,13,1,0,0,rectangle,-15,13,1,0,0,-15,13,1,0,0,0,28,28,39,1,,,,,,,,
,,,,,,,,,,,,,FF,,,,,,,,1.1859,,,,,,,,,,,,,,,,,,,,,,60fcf7e8002c2c1b89b03b30,61036ae3dab58175685386d7,2021-07-30_14h59.48.244,Simcolourproject_2stim_asymm_v5,2020.2.10,Win32,60,61025ae37ef11b136ea224fe,,,,,,,,,569,-55,-104,1,0,0,response5disk,,3,-13,11,1,0,0,rectangle,-13,11,1,0,0,-13,11,1,0,0,0,29,29,4,1,,,,,,,,
,,,,,,,,,,,,,FF,,,,,,,,1.1355,,,,,,,,,,,,,,,,,,,,,,60fcf7e8002c2c1b89b03b30,61036ae3dab58175685386d7,2021-07-30_14h59.48.244,Simcolourproject_2stim_asymm_v5,2020.2.10,Win32,60,61025ae37ef11b136ea224fe,,,,,,,,,3809,109,-50,1,0,0,response3disk,,5,-3,1,1,0,0,rectangle,-3,1,1,0,0,-3,1,1,0,0,0,30,30,38,1,,,,,,,,
,,,,,,,,,,,,,FF,,,,,,,,1.0857,,,,,,,,,,,,,,,,,,,,,,60fcf7e8002c2c1b89b03b30,61036ae3dab58175685386d7,2021-07-30_14h59.48.244,Simcolourproject_2stim_asymm_v5,2020.2.10,Win32,60,61025ae37ef11b136ea224fe,,,,,,,,,4274,93,44,1,0,0,response1disk,,6,2,7,1,0,0,rectangle,2,7,1,0,0,2,7,1,0,0,0,31,31,118,1,,,,,,,,
,,,,,,,,,,,,,FF,,,,,,,,0.8179,,,,,,,,,,,,,,,,,,,,,,60fcf7e8002c2c1b89b03b30,61036ae3dab58175685386d7,2021-07-30_14h59.48.244,Simcolourproject_2stim_asymm_v5,2020.2.10,Win32,60,61025ae37ef11b136ea224fe,,,,,,,,,2428,-56,-112,1,0,0,response5disk,,3,2,0,1,0,0,rectangle,53,112,1,0,0,-7,11,1,0,0,0,32,32,11,1,,response1disk_3,TRUE,7,7,"[233,114,112,25,224,85,162,204,199,33,75,71,6,20,290,95,274,111,160,285]",1.7535,rectangle
,,,,,,,,,,,,,FF,,,,,,,,0.9356,,,,,,,,,,,,,,,,,,,,,,60fcf7e8002c2c1b89b03b30,61036ae3dab58175685386d7,2021-07-30_14h59.48.244,Simcolourproject_2stim_asymm_v5,2020.2.10,Win32,60,61025ae37ef11b136ea224fe,,,,,,,,,3570,139,-66,1,0,0,response3disk,,5,25,1,1,0,0,rectangle,25,1,1,0,0,25,1,1,0,0,0,33,33,121,1,,,,,,,,
,,,,,,,,,,,,,FF,,,,,,,,1.5369,,,,,,,,,,,,,,,,,,,,,,60fcf7e8002c2c1b89b03b30,61036ae3dab58175685386d7,2021-07-30_14h59.48.244,Simcolourproject_2stim_asymm_v5,2020.2.10,Win32,60,61025ae37ef11b136ea224fe,,,,,,,,,2843,85,41,1,0,0,response1disk,,6,-25,-14,1,0,0,rectangle,-25,-14,1,0,0,-25,-14,1,0,0,0,34,34,82,1,,,,,,,,
,,,,,,,,,,,,,FF,,,,,,,,2.004,,,,,,,,,,,,,,,,,,,,,,60fcf7e8002c2c1b89b03b30,61036ae3dab58175685386d7,2021-07-30_14h59.48.244,Simcolourproject_2stim_asymm_v5,2020.2.10,Win32,60,61025ae37ef11b136ea224fe,,,,,,,,,2001,102,52,1,0,0,response1disk,,6,3,2,1,0,0,rectangle,3,2,1,0,0,3,2,1,0,0,0,35,35,110,1,,,,,,,,
,,,,,,,,,,,,,FF,,,,,,,,0.8519,,,,,,,,,,,,,,,,,,,,,,60fcf7e8002c2c1b89b03b30,61036ae3dab58175685386d7,2021-07-30_14h59.48.244,Simcolourproject_2stim_asymm_v5,2020.2.10,Win32,60,61025ae37ef11b136ea224fe,,,,,,,,,2223,-45,-96,1,0,0,response5disk,,3,-10,13,1,0,0,rectangle,-10,13,1,0,0,-10,13,1,0,0,0,36,36,56,1,,,,,,,,
,,,,,,,,,,,,,FF,,,,,,,,1.4706,,,,,,,,,,,,,,,,,,,,,,60fcf7e8002c2c1b89b03b30,61036ae3dab58175685386d7,2021-07-30_14h59.48.244,Simcolourproject_2stim_asymm_v5,2020.2.10,Win32,60,61025ae37ef11b136ea224fe,,,,,,,,,4051,95,56,1,0,0,response1disk,,6,-2,4,1,0,0,rectangle,-2,4,1,0,0,-2,4,1,0,0,0,37,37,109,1,,,,,,,,
,,,,,,,,,,,,,FF,,,,,,,,1.5202,,,,,,,,,,,,,,,,,,,,,,60fcf7e8002c2c1b89b03b30,61036ae3dab58175685386d7,2021-07-30_14h59.48.244,Simcolourproject_2stim_asymm_v5,2020.2.10,Win32,60,61025ae37ef11b136ea224fe,,,,,,,,,4039,27,-113,1,0,0,response3disk,,4,-5,-2,1,0,0,rectangle,-5,-2,1,0,0,-5,-2,1,0,0,0,38,38,14,1,,,,,,,,
,,,,,,,,,,,,,FF,,,,,,,,1.4532,,,,,,,,,,,,,,,,,,,,,,60fcf7e8002c2c1b89b03b30,61036ae3dab58175685386d7,2021-07-30_14h59.48.244,Simcolourproject_2stim_asymm_v5,2020.2.10,Win32,60,61025ae37ef11b136ea224fe,,,,,,,,,3663,111,44,1,0,0,response1disk,,6,21,2,1,0,0,rectangle,21,2,1,0,0,21,2,1,0,0,0,39,39,3,1,,,,,,,,
,,,,,,,,,,,,,FF,,,,,,,,0.7853,,,,,,,,,,,,,,,,,,,,,,60fcf7e8002c2c1b89b03b30,61036ae3dab58175685386d7,2021-07-30_14h59.48.244,Simcolourproject_2stim_asymm_v5,2020.2.10,Win32,60,61025ae37ef11b136ea224fe,,,,,,,,,134,114,-43,1,0,0,response3disk,,5,18,16,1,0,0,rectangle,18,16,1,0,0,18,16,1,0,0,0,40,40,157,1,,,,,,,,
,,,,,,,,,,,,,FF,,,,,,,,0.601,,,,,,,,,,,,,,,,,,,,,,60fcf7e8002c2c1b89b03b30,61036ae3dab58175685386d7,2021-07-30_14h59.48.244,Simcolourproject_2stim_asymm_v5,2020.2.10,Win32,60,61025ae37ef11b136ea224fe,,,,,,,,,2627,98,77,1,0,0,response1disk,,6,2,10,1,0,0,rectangle,2,10,1,0,0,2,10,1,0,0,0,41,41,59,1,,,,,,,,
,,,,,,,,,,,,,FF,,,,,,,,0.6845,,,,,,,,,,,,,,,,,,,,,,60fcf7e8002c2c1b89b03b30,61036ae3dab58175685386d7,2021-07-30_14h59.48.244,Simcolourproject_2stim_asymm_v5,2020.2.10,Win32,60,61025ae37ef11b136ea224fe,,,,,,,,,1092,112,68,1,0,0,response1disk,,6,18,10,1,0,0,rectangle,18,10,1,0,0,18,10,1,0,0,0,42,42,131,1,,,,,,,,
,,,,,,,,,,,,,FF,,,,,,,,0.5677,,,,,,,,,,,,,,,,,,,,,,60fcf7e8002c2c1b89b03b30,61036ae3dab58175685386d7,2021-07-30_14h59.48.244,Simcolourproject_2stim_asymm_v5,2020.2.10,Win32,60,61025ae37ef11b136ea224fe,,,,,,,,,4038,70,37,1,0,0,response1disk,,6,17,10,1,0,0,rectangle,17,10,1,0,0,17,10,1,0,0,0,43,43,87,1,,,,,,,,
,,,,,,,,,,,,,FF,,,,,,,,1.4537,,,,,,,,,,,,,,,,,,,,,,60fcf7e8002c2c1b89b03b30,61036ae3dab58175685386d7,2021-07-30_14h59.48.244,Simcolourproject_2stim_asymm_v5,2020.2.10,Win32,60,61025ae37ef11b136ea224fe,,,,,,,,,3956,71,127,1,0,0,response1disk,,7,11,16,1,0,0,rectangle,11,16,1,0,0,11,16,1,0,0,0,44,44,65,1,,,,,,,,
,,,,,,,,,,,,,FF,,,,,,,,1.319,,,,,,,,,,,,,,,,,,,,,,60fcf7e8002c2c1b89b03b30,61036ae3dab58175685386d7,2021-07-30_14h59.48.244,Simcolourproject_2stim_asymm_v5,2020.2.10,Win32,60,61025ae37ef11b136ea224fe,,,,,,,,,3217,104,-49,1,0,0,response3disk,,5,-10,-5,1,0,0,rectangle,-10,-5,1,0,0,-10,-5,1,0,0,0,45,45,152,1,,,,,,,,
,,,,,,,,,,,,,FF,,,,,,,,0.9518,,,,,,,,,,,,,,,,,,,,,,60fcf7e8002c2c1b89b03b30,61036ae3dab58175685386d7,2021-07-30_14h59.48.244,Simcolourproject_2stim_asymm_v5,2020.2.10,Win32,60,61025ae37ef11b136ea224fe,,,,,,,,,366,-56,125,1,0,0,response7disk,,0,-21,17,1,0,0,rectangle,-21,17,1,0,0,-21,17,1,0,0,0,46,46,32,1,,,,,,,,
,,,,,,,,,,,,,FF,,,,,,,,1.2357,,,,,,,,,,,,,,,,,,,,,,60fcf7e8002c2c1b89b03b30,61036ae3dab58175685386d7,2021-07-30_14h59.48.244,Simcolourproject_2stim_asymm_v5,2020.2.10,Win32,60,61025ae37ef11b136ea224fe,,,,,,,,,1836,-93,-53,1,0,0,response5disk,,2,13,9,1,0,0,rectangle,13,9,1,0,0,13,9,1,0,0,0,47,47,101,1,,,,,,,,
,,,,,,,,,,,,,FF,,,,,,,,0.9014,,,,,,,,,,,,,,,,,,,,,,60fcf7e8002c2c1b89b03b30,61036ae3dab58175685386d7,2021-07-30_14h59.48.244,Simcolourproject_2stim_asymm_v5,2020.2.10,Win32,60,61025ae37ef11b136ea224fe,,,,,,,,,3490,109,67,1,0,0,response1disk,,6,-4,3,1,0,0,rectangle,-4,3,1,0,0,-4,3,1,0,0,0,48,48,68,1,,,,,,,,
,,,,,,,,,,,,,FF,,,,,,,,1.5365,,,,,,,,,,,,,,,,,,,,,,60fcf7e8002c2c1b89b03b30,61036ae3dab58175685386d7,2021-07-30_14h59.48.244,Simcolourproject_2stim_asymm_v5,2020.2.10,Win32,60,61025ae37ef11b136ea224fe,,,,,,,,,3428,-59,-82,1,0,0,response5disk,,3,-32,4,1,0,0,rectangle,-32,4,1,0,0,-32,4,1,0,0,0,49,49,61,1,,,,,,,,
,,,,,,,,,,,,,FF,,,,,,,,1.0686,,,,,,,,,,,,,,,,,,,,,,60fcf7e8002c2c1b89b03b30,61036ae3dab58175685386d7,2021-07-30_14h59.48.244,Simcolourproject_2stim_asymm_v5,2020.2.10,Win32,60,61025ae37ef11b136ea224fe,,,,,,,,,1416,71,-83,1,0,0,response3disk,,4,-14,1,1,0,0,rectangle,-14,1,1,0,0,-14,1,1,0,0,0,50,50,102,1,,,,,,,,
,,,,,,,,,,,,,FF,,,,,,,,1.1524,,,,,,,,,,,,,,,,,,,,,,60fcf7e8002c2c1b89b03b30,61036ae3dab58175685386d7,2021-07-30_14h59.48.244,Simcolourproject_2stim_asymm_v5,2020.2.10,Win32,60,61025ae37ef11b136ea224fe,,,,,,,,,2567,58,103,1,0,0,response1disk,,7,4,9,1,0,0,rectangle,4,9,1,0,0,4,9,1,0,0,0,51,51,69,1,,,,,,,,
,,,,,,,,,,,,,FF,,,,,,,,0.9682,,,,,,,,,,,,,,,,,,,,,,60fcf7e8002c2c1b89b03b30,61036ae3dab58175685386d7,2021-07-30_14h59.48.244,Simcolourproject_2stim_asymm_v5,2020.2.10,Win32,60,61025ae37ef11b136ea224fe,,,,,,,,,3013,51,-109,1,0,0,response3disk,,4,2,8,1,0,0,rectangle,2,8,1,0,0,2,8,1,0,0,0,52,52,106,1,,,,,,,,
,,,,,,,,,,,,,FF,,,,,,,,0.969,,,,,,,,,,,,,,,,,,,,,,60fcf7e8002c2c1b89b03b30,61036ae3dab58175685386d7,2021-07-30_14h59.48.244,Simcolourproject_2stim_asymm_v5,2020.2.10,Win32,60,61025ae37ef11b136ea224fe,,,,,,,,,1237,102,63,1,0,0,response1disk,,6,-4,-2,1,0,0,rectangle,-4,-2,1,0,0,-4,-2,1,0,0,0,53,53,0,1,,,,,,,,
,,,,,,,,,,,,,FF,,,,,,,,2.1381,,,,,,,,,,,,,,,,,,,,,,60fcf7e8002c2c1b89b03b30,61036ae3dab58175685386d7,2021-07-30_14h59.48.244,Simcolourproject_2stim_asymm_v5,2020.2.10,Win32,60,61025ae37ef11b136ea224fe,,,,,,,,,2097,70,-63,1,0,0,response3disk,,5,-21,18,1,0,0,rectangle,-21,18,1,0,0,-21,18,1,0,0,0,54,54,79,1,,,,,,,,
,,,,,,,,,,,,,FF,,,,,,,,0.9355,,,,,,,,,,,,,,,,,,,,,,60fcf7e8002c2c1b89b03b30,61036ae3dab58175685386d7,2021-07-30_14h59.48.244,Simcolourproject_2stim_asymm_v5,2020.2.10,Win32,60,61025ae37ef11b136ea224fe,,,,,,,,,589,132,120,1,0,0,response1disk,,6,31,14,1,0,0,rectangle,31,14,1,0,0,31,14,1,0,0,0,55,55,105,1,,,,,,,,
,,,,,,,,,,,,,FF,,,,,,,,0.885,,,,,,,,,,,,,,,,,,,,,,60fcf7e8002c2c1b89b03b30,61036ae3dab58175685386d7,2021-07-30_14h59.48.244,Simcolourproject_2stim_asymm_v5,2020.2.10,Win32,60,61025ae37ef11b136ea224fe,,,,,,,,,3926,89,-29,1,0,0,response3disk,,5,-2,13,1,0,0,rectangle,-2,13,1,0,0,-2,13,1,0,0,0,56,56,104,1,,,,,,,,
,,,,,,,,,,,,,FF,,,,,,,,1.0356,,,,,,,,,,,,,,,,,,,,,,60fcf7e8002c2c1b89b03b30,61036ae3dab58175685386d7,2021-07-30_14h59.48.244,Simcolourproject_2stim_asymm_v5,2020.2.10,Win32,60,61025ae37ef11b136ea224fe,,,,,,,,,3558,-104,-49,1,0,0,response5disk,,2,-14,9,1,0,0,rectangle,-14,9,1,0,0,-14,9,1,0,0,0,57,57,150,1,,,,,,,,
,,,,,,,,,,,,,FF,,,,,,,,1.0688,,,,,,,,,,,,,,,,,,,,,,60fcf7e8002c2c1b89b03b30,61036ae3dab58175685386d7,2021-07-30_14h59.48.244,Simcolourproject_2stim_asymm_v5,2020.2.10,Win32,60,61025ae37ef11b136ea224fe,,,,,,,,,610,126,-83,1,0,0,response3disk,,5,-22,9,1,0,0,rectangle,-22,9,1,0,0,-22,9,1,0,0,0,58,58,37,1,,,,,,,,
,,,,,,,,,,,,,FF,,,,,,,,0.9523,,,,,,,,,,,,,,,,,,,,,,60fcf7e8002c2c1b89b03b30,61036ae3dab58175685386d7,2021-07-30_14h59.48.244,Simcolourproject_2stim_asymm_v5,2020.2.10,Win32,60,61025ae37ef11b136ea224fe,,,,,,,,,3145,64,106,1,0,0,response1disk,,7,11,-14,1,0,0,rectangle,11,-14,1,0,0,11,-14,1,0,0,0,59,59,24,1,,,,,,,,
,,,,,,,,,,,,,FF,,,,,,,,0.8685,,,,,,,,,,,,,,,,,,,,,,60fcf7e8002c2c1b89b03b30,61036ae3dab58175685386d7,2021-07-30_14h59.48.244,Simcolourproject_2stim_asymm_v5,2020.2.10,Win32,60,61025ae37ef11b136ea224fe,,,,,,,,,3651,25,-82,1,0,0,response3disk,,4,-6,15,1,0,0,rectangle,-6,15,1,0,0,-6,15,1,0,0,0,60,60,44,1,,,,,,,,
,,,,,,,,,,,,,FF,,,,,,,,0.8348,,,,,,,,,,,,,,,,,,,,,,60fcf7e8002c2c1b89b03b30,61036ae3dab58175685386d7,2021-07-30_14h59.48.244,Simcolourproject_2stim_asymm_v5,2020.2.10,Win32,60,61025ae37ef11b136ea224fe,,,,,,,,,770,56,-82,1,0,0,response3disk,,4,3,6,1,0,0,rectangle,3,6,1,0,0,3,6,1,0,0,0,61,61,135,1,,,,,,,,
,,,,,,,,,,,,,FF,,,,,,,,1.3029,,,,,,,,,,,,,,,,,,,,,,60fcf7e8002c2c1b89b03b30,61036ae3dab58175685386d7,2021-07-30_14h59.48.244,Simcolourproject_2stim_asymm_v5,2020.2.10,Win32,60,61025ae37ef11b136ea224fe,,,,,,,,,863,125,-35,1,0,0,response3disk,,5,-8,11,1,0,0,rectangle,-8,11,1,0,0,-8,11,1,0,0,0,62,62,21,1,,,,,,,,
,,,,,,,,,,,,,FF,,,,,,,,0.8348,,,,,,,,,,,,,,,,,,,,,,60fcf7e8002c2c1b89b03b30,61036ae3dab58175685386d7,2021-07-30_14h59.48.244,Simcolourproject_2stim_asymm_v5,2020.2.10,Win32,60,61025ae37ef11b136ea224fe,,,,,,,,,1328,87,-35,1,0,0,response3disk,,5,-7,4,1,0,0,rectangle,-7,4,1,0,0,-7,4,1,0,0,0,63,63,34,1,,,,,,,,
,,,,,,,,,,,,,FF,,,,,,,,0.7681,,,,,,,,,,,,,,,,,,,,,,60fcf7e8002c2c1b89b03b30,61036ae3dab58175685386d7,2021-07-30_14h59.48.244,Simcolourproject_2stim_asymm_v5,2020.2.10,Win32,60,61025ae37ef11b136ea224fe,,,,,,,,,4105,37,73,1,0,0,response1disk,,7,-1,2,1,0,0,rectangle,-1,2,1,0,0,-1,2,1,0,0,0,64,64,73,1,,,,,,,,
,,,,,,,,,,,,,FF,,,,,,,,0.5509,,,,,,,,,,,,,,,,,,,,,,60fcf7e8002c2c1b89b03b30,61036ae3dab58175685386d7,2021-07-30_14h59.48.244,Simcolourproject_2stim_asymm_v5,2020.2.10,Win32,60,61025ae37ef11b136ea224fe,,,,,,,,,2260,46,129,1,0,0,response1disk,,7,2,9,1,0,0,rectangle,2,9,1,0,0,2,9,1,0,0,0,65,65,159,1,,,,,,,,
,,,,,,,,,,,,,FF,,,,,,,,0.7512,,,,,,,,,,,,,,,,,,,,,,60fcf7e8002c2c1b89b03b30,61036ae3dab58175685386d7,2021-07-30_14h59.48.244,Simcolourproject_2stim_asymm_v5,2020.2.10,Win32,60,61025ae37ef11b136ea224fe,,,,,,,,,3596,116,57,1,0,0,response1disk,,6,17,-2,1,0,0,rectangle,17,-2,1,0,0,17,-2,1,0,0,0,66,66,80,1,,,,,,,,
,,,,,,,,,,,,,FF,,,,,,,,0.6511,,,,,,,,,,,,,,,,,,,,,,60fcf7e8002c2c1b89b03b30,61036ae3dab58175685386d7,2021-07-30_14h59.48.244,Simcolourproject_2stim_asymm_v5,2020.2.10,Win32,60,61025ae37ef11b136ea224fe,,,,,,,,,1926,44,104,1,0,0,response1disk,,7,5,-5,1,0,0,rectangle,5,-5,1,0,0,5,-5,1,0,0,0,67,67,25,1,,,,,,,,
,,,,,,,,,,,,,FF,,,,,,,,0.835,,,,,,,,,,,,,,,,,,,,,,60fcf7e8002c2c1b89b03b30,61036ae3dab58175685386d7,2021-07-30_14h59.48.244,Simcolourproject_2stim_asymm_v5,2020.2.10,Win32,60,61025ae37ef11b136ea224fe,,,,,,,,,127,123,-51,1,0,0,response3disk,,5,4,5,1,0,0,rectangle,4,5,1,0,0,4,5,1,0,0,0,68,68,45,1,,,,,,,,
,,,,,,,,,,,,,FF,,,,,,,,0.6015,,,,,,,,,,,,,,,,,,,,,,60fcf7e8002c2c1b89b03b30,61036ae3dab58175685386d7,2021-07-30_14h59.48.244,Simcolourproject_2stim_asymm_v5,2020.2.10,Win32,60,61025ae37ef11b136ea224fe,,,,,,,,,2438,87,58,1,0,0,response1disk,,6,10,13,1,0,0,rectangle,10,13,1,0,0,10,13,1,0,0,0,69,69,85,1,,,,,,,,
,,,,,,,,,,,,,FF,,,,,,,,0.5342,,,,,,,,,,,,,,,,,,,,,,60fcf7e8002c2c1b89b03b30,61036ae3dab58175685386d7,2021-07-30_14h59.48.244,Simcolourproject_2stim_asymm_v5,2020.2.10,Win32,60,61025ae37ef11b136ea224fe,,,,,,,,,1104,90,40,1,0,0,response1disk,,6,4,-6,1,0,0,rectangle,42,128,1,0,0,7,0,1,0,0,0,70,70,46,1,,response1disk_3,TRUE,7,7,"[233,114,112,25,224,85,162,204,199,33,75,71,6,20,290,95,274,111,160,285]",1.2356,rectangle
,,,,,,,,,,,,,FF,,,,,,,,0.7018,,,,,,,,,,,,,,,,,,,,,,60fcf7e8002c2c1b89b03b30,61036ae3dab58175685386d7,2021-07-30_14h59.48.244,Simcolourproject_2stim_asymm_v5,2020.2.10,Win32,60,61025ae37ef11b136ea224fe,,,,,,,,,1856,103,48,1,0,0,response1disk,,6,-1,-11,1,0,0,rectangle,-1,-11,1,0,0,-1,-11,1,0,0,0,71,71,71,1,,,,,,,,
,,,,,,,,,,,,,FF,,,,,,,,0.9357,,,,,,,,,,,,,,,,,,,,,,60fcf7e8002c2c1b89b03b30,61036ae3dab58175685386d7,2021-07-30_14h59.48.244,Simcolourproject_2stim_asymm_v5,2020.2.10,Win32,60,61025ae37ef11b136ea224fe,,,,,,,,,2787,81,-66,1,0,0,response3disk,,5,-24,1,1,0,0,rectangle,-24,1,1,0,0,-24,1,1,0,0,0,72,72,18,1,,,,,,,,
,,,,,,,,,,,,,FF,,,,,,,,1.2861,,,,,,,,,,,,,,,,,,,,,,60fcf7e8002c2c1b89b03b30,61036ae3dab58175685386d7,2021-07-30_14h59.48.244,Simcolourproject_2stim_asymm_v5,2020.2.10,Win32,60,61025ae37ef11b136ea224fe,,,,,,,,,1979,115,-43,1,0,0,response3disk,,5,-9,11,1,0,0,rectangle,-9,11,1,0,0,-9,11,1,0,0,0,73,73,10,1,,,,,,,,
,,,,,,,,,,,,,FF,,,,,,,,0.6015,,,,,,,,,,,,,,,,,,,,,,60fcf7e8002c2c1b89b03b30,61036ae3dab58175685386d7,2021-07-30_14h59.48.244,Simcolourproject_2stim_asymm_v5,2020.2.10,Win32,60,61025ae37ef11b136ea224fe,,,,,,,,,145,134,77,1,0,0,response1disk,,6,20,16,1,0,0,rectangle,50,115,1,0,0,-7,8,1,0,0,0,74,74,49,1,,response1disk_3,TRUE,7,7,"[233,114,112,25,224,85,162,204,199,33,75,71,6,20,290,95,274,111,160,285]",1.5033,rectangle
,,,,,,,,,,,,,FF,,,,,,,,0.8847,,,,,,,,,,,,,,,,,,,,,,60fcf7e8002c2c1b89b03b30,61036ae3dab58175685386d7,2021-07-30_14h59.48.244,Simcolourproject_2stim_asymm_v5,2020.2.10,Win32,60,61025ae37ef11b136ea224fe,,,,,,,,,1838,126,62,1,0,0,response1disk,,6,-23,11,1,0,0,rectangle,-23,11,1,0,0,-23,11,1,0,0,0,75,75,83,1,,,,,,,,
,,,,,,,,,,,,,FF,,,,,,,,1.1687,,,,,,,,,,,,,,,,,,,,,,60fcf7e8002c2c1b89b03b30,61036ae3dab58175685386d7,2021-07-30_14h59.48.244,Simcolourproject_2stim_asymm_v5,2020.2.10,Win32,60,61025ae37ef11b136ea224fe,,,,,,,,,4328,-112,53,1,0,0,response7disk,,1,10,-10,1,0,0,rectangle,10,-10,1,0,0,10,-10,1,0,0,0,76,76,48,1,,,,,,,,
,,,,,,,,,,,,,FF,,,,,,,,1.6035,,,,,,,,,,,,,,,,,,,,,,60fcf7e8002c2c1b89b03b30,61036ae3dab58175685386d7,2021-07-30_14h59.48.244,Simcolourproject_2stim_asymm_v5,2020.2.10,Win32,60,61025ae37ef11b136ea224fe,,,,,,,,,189,-37,-112,1,0,0,response5disk,,3,-3,-17,1,0,0,rectangle,-3,-17,1,0,0,-3,-17,1,0,0,0,77,77,47,1,,,,,,,,
,,,,,,,,,,,,,FF,,,,,,,,0.8345,,,,,,,,,,,,,,,,,,,,,,60fcf7e8002c2c1b89b03b30,61036ae3dab58175685386d7,2021-07-30_14h59.48.244,Simcolourproject_2stim_asymm_v5,2020.2.10,Win32,60,61025ae37ef11b136ea224fe,,,,,,,,,2698,121,77,1,0,0,response1disk,,6,34,1,1,0,0,rectangle,34,1,1,0,0,34,1,1,0,0,0,78,78,125,1,,,,,,,,
,,,,,,,,,,,,,FF,,,,,,,,1.32,,,,,,,,,,,,,,,,,,,,,,60fcf7e8002c2c1b89b03b30,61036ae3dab58175685386d7,2021-07-30_14h59.48.244,Simcolourproject_2stim_asymm_v5,2020.2.10,Win32,60,61025ae37ef11b136ea224fe,,,,,,,,,100,69,-115,1,0,0,response3disk,,4,-14,-7,1,0,0,rectangle,-14,-7,1,0,0,-14,-7,1,0,0,0,79,79,17,1,,,,,,,,
,,,,,,,,,,,,,FF,,,,,,,,0.735,,,,,,,,,,,,,,,,,,,,,,60fcf7e8002c2c1b89b03b30,61036ae3dab58175685386d7,2021-07-30_14h59.48.244,Simcolourproject_2stim_asymm_v5,2020.2.10,Win32,60,61025ae37ef11b136ea224fe,,,,,,,,,587,45,125,1,0,0,response1disk,,7,9,0,1,0,0,rectangle,9,0,1,0,0,9,0,1,0,0,0,80,80,16,1,,,,,,,,
,,,,,,,,,,,,,FF,,,,,,,,0.7852,,,,,,,,,,,,,,,,,,,,,,60fcf7e8002c2c1b89b03b30,61036ae3dab58175685386d7,2021-07-30_14h59.48.244,Simcolourproject_2stim_asymm_v5,2020.2.10,Win32,60,61025ae37ef11b136ea224fe,,,,,,,,,2064,125,-58,1,0,0,response3disk,,5,-7,18,1,0,0,rectangle,-7,18,1,0,0,-7,18,1,0,0,0,81,81,76,1,,,,,,,,
,,,,,,,,,,,,,FF,,,,,,,,0.8684,,,,,,,,,,,,,,,,,,,,,,60fcf7e8002c2c1b89b03b30,61036ae3dab58175685386d7,2021-07-30_14h59.48.244,Simcolourproject_2stim_asymm_v5,2020.2.10,Win32,60,61025ae37ef11b136ea224fe,,,,,,,,,3629,52,118,1,0,0,response1disk,,7,-7,-5,1,0,0,rectangle,-7,-5,1,0,0,-7,-5,1,0,0,0,82,82,146,1,,,,,,,,
,,,,,,,,,,,,,FF,,,,,,,,0.6353,,,,,,,,,,,,,,,,,,,,,,60fcf7e8002c2c1b89b03b30,61036ae3dab58175685386d7,2021-07-30_14h59.48.244,Simcolourproject_2stim_asymm_v5,2020.2.10,Win32,60,61025ae37ef11b136ea224fe,,,,,,,,,2123,63,106,1,0,0,response1disk,,7,6,15,1,0,0,rectangle,6,15,1,0,0,6,15,1,0,0,0,83,83,113,1,,,,,,,,
,,,,,,,,,,,,,FF,,,,,,,,0.768,,,,,,,,,,,,,,,,,,,,,,60fcf7e8002c2c1b89b03b30,61036ae3dab58175685386d7,2021-07-30_14h59.48.244,Simcolourproject_2stim_asymm_v5,2020.2.10,Win32,60,61025ae37ef11b136ea224fe,,,,,,,,,2812,72,45,1,0,0,response1disk,,6,-32,-11,1,0,0,rectangle,131,-54,1,0,0,21,-5,1,0,0,0,84,84,96,1,,response3disk_3,TRUE,5,5,"[233,114,112,25,224,85,162,204,199,33,75,71,6,20,290,95,274,111,160,285]",1.6036,rectangle
,,,,,,,,,,,,,FF,,,,,,,,0.8187,,,,,,,,,,,,,,,,,,,,,,60fcf7e8002c2c1b89b03b30,61036ae3dab58175685386d7,2021-07-30_14h59.48.244,Simcolourproject_2stim_asymm_v5,2020.2.10,Win32,60,61025ae37ef11b136ea224fe,,,,,,,,,2186,131,79,1,0,0,response1disk,,6,21,12,1,0,0,rectangle,21,12,1,0,0,21,12,1,0,0,0,85,85,130,1,,,,,,,,
,,,,,,,,,,,,,FF,,,,,,,,1.0188,,,,,,,,,,,,,,,,,,,,,,60fcf7e8002c2c1b89b03b30,61036ae3dab58175685386d7,2021-07-30_14h59.48.244,Simcolourproject_2stim_asymm_v5,2020.2.10,Win32,60,61025ae37ef11b136ea224fe,,,,,,,,,2241,-60,-129,1,0,0,response5disk,,3,-2,-7,1,0,0,rectangle,-2,-7,1,0,0,-2,-7,1,0,0,0,86,86,143,1,,,,,,,,
,,,,,,,,,,,,,FF,,,,,,,,0.9683,,,,,,,,,,,,,,,,,,,,,,60fcf7e8002c2c1b89b03b30,61036ae3dab58175685386d7,2021-07-30_14h59.48.244,Simcolourproject_2stim_asymm_v5,2020.2.10,Win32,60,61025ae37ef11b136ea224fe,,,,,,,,,461,-119,-62,1,0,0,response5disk,,2,-8,4,1,0,0,rectangle,-8,4,1,0,0,-8,4,1,0,0,0,87,87,116,1,,,,,,,,
,,,,,,,,,,,,,FF,,,,,,,,0.6349,,,,,,,,,,,,,,,,,,,,,,60fcf7e8002c2c1b89b03b30,61036ae3dab58175685386d7,2021-07-30_14h59.48.244,Simcolourproject_2stim_asymm_v5,2020.2.10,Win32,60,61025ae37ef11b136ea224fe,,,,,,,,,3911,43,-116,1,0,0,response3disk,,4,-4,5,1,0,0,rectangle,-4,5,1,0,0,-4,5,1,0,0,0,88,88,119,1,,,,,,,,
,,,,,,,,,,,,,FF,,,,,,,,0.9187,,,,,,,,,,,,,,,,,,,,,,60fcf7e8002c2c1b89b03b30,61036ae3dab58175685386d7,2021-07-30_14h59.48.244,Simcolourproject_2stim_asymm_v5,2020.2.10,Win32,60,61025ae37ef11b136ea224fe,,,,,,,,,412,124,56,1,0,0,response1disk,,6,5,6,1,0,0,rectangle,5,6,1,0,0,5,6,1,0,0,0,89,89,64,1,,,,,,,,
,,,,,,,,,,,,,FF,,,,,,,,0.9021,,,,,,,,,,,,,,,,,,,,,,60fcf7e8002c2c1b89b03b30,61036ae3dab58175685386d7,2021-07-30_14h59.48.244,Simcolourproject_2stim_asymm_v5,2020.2.10,Win32,60,61025ae37ef11b136ea224fe,,,,,,,,,1820,96,39,1,0,0,response1disk,,6,-29,-5,1,0,0,rectangle,-29,-5,1,0,0,-29,-5,1,0,0,0,90,90,43,1,,,,,,,,
,,,,,,,,,,,,,FF,,,,,,,,1.0358,,,,,,,,,,,,,,,,,,,,,,60fcf7e8002c2c1b89b03b30,61036ae3dab58175685386d7,2021-07-30_14h59.48.244,Simcolourproject_2stim_asymm_v5,2020.2.10,Win32,60,61025ae37ef11b136ea224fe,,,,,,,,,1756,46,-103,1,0,0,response3disk,,4,-2,15,1,0,0,rectangle,-2,15,1,0,0,-2,15,1,0,0,0,91,91,12,1,,,,,,,,
,,,,,,,,,,,,,FF,,,,,,,,1.4531,,,,,,,,,,,,,,,,,,,,,,60fcf7e8002c2c1b89b03b30,61036ae3dab58175685386d7,2021-07-30_14h59.48.244,Simcolourproject_2stim_asymm_v5,2020.2.10,Win32,60,61025ae37ef11b136ea224fe,,,,,,,,,1865,87,-45,1,0,0,response3disk,,5,-31,5,1,0,0,rectangle,-31,5,1,0,0,-31,5,1,0,0,0,92,92,147,1,,,,,,,,
,,,,,,,,,,,,,FF,,,,,,,,0.7518,,,,,,,,,,,,,,,,,,,,,,60fcf7e8002c2c1b89b03b30,61036ae3dab58175685386d7,2021-07-30_14h59.48.244,Simcolourproject_2stim_asymm_v5,2020.2.10,Win32,60,61025ae37ef11b136ea224fe,,,,,,,,,913,107,-50,1,0,0,response3disk,,5,20,-8,1,0,0,rectangle,20,-8,1,0,0,20,-8,1,0,0,0,93,93,20,1,,,,,,,,
,,,,,,,,,,,,,FF,,,,,,,,1.7206,,,,,,,,,,,,,,,,,,,,,,60fcf7e8002c2c1b89b03b30,61036ae3dab58175685386d7,2021-07-30_14h59.48.244,Simcolourproject_2stim_asymm_v5,2020.2.10,Win32,60,61025ae37ef11b136ea224fe,,,,,,,,,3372,-40,-98,1,0,0,response5disk,,3,8,6,1,0,0,rectangle,-122,56,1,0,0,-9,6,1,0,0,0,94,94,156,1,,response7disk_3,TRUE,1,1,"[233,114,112,25,224,85,162,204,199,33,75,71,6,20,290,95,274,111,160,285]",1.503,rectangle
,,,,,,,,,,,,,FF,,,,,,,,0.7678,,,,,,,,,,,,,,,,,,,,,,60fcf7e8002c2c1b89b03b30,61036ae3dab58175685386d7,2021-07-30_14h59.48.244,Simcolourproject_2stim_asymm_v5,2020.2.10,Win32,60,61025ae37ef11b136ea224fe,,,,,,,,,3171,112,71,1,0,0,response1disk,,6,16,11,1,0,0,rectangle,16,11,1,0,0,16,11,1,0,0,0,95,95,8,1,,,,,,,,
,,,,,,,,,,,,,FF,,,,,,,,0.4506,,,,,,,,,,,,,,,,,,,,,,60fcf7e8002c2c1b89b03b30,61036ae3dab58175685386d7,2021-07-30_14h59.48.244,Simcolourproject_2stim_asymm_v5,2020.2.10,Win32,60,61025ae37ef11b136ea224fe,,,,,,,,,1542,94,57,1,0,0,response1disk,,6,-12,-18,1,0,0,rectangle,-12,-18,1,0,0,-12,-18,1,0,0,0,96,96,50,1,,,,,,,,
,,,,,,,,,,,,,FF,,,,,,,,2.0543,,,,,,,,,,,,,,,,,,,,,,60fcf7e8002c2c1b89b03b30,61036ae3dab58175685386d7,2021-07-30_14h59.48.244,Simcolourproject_2stim_asymm_v5,2020.2.10,Win32,60,61025ae37ef11b136ea224fe,,,,,,,,,1426,134,-57,1,0,0,response3disk,,5,1,-17,1,0,0,rectangle,1,-17,1,0,0,1,-17,1,0,0,0,97,97,2,1,,,,,,,,
,,,,,,,,,,,,,FF,,,,,,,,0.9518,,,,,,,,,,,,,,,,,,,,,,60fcf7e8002c2c1b89b03b30,61036ae3dab58175685386d7,2021-07-30_14h59.48.244,Simcolourproject_2stim_asymm_v5,2020.2.10,Win32,60,61025ae37ef11b136ea224fe,,,,,,,,,657,118,48,1,0,0,response1disk,,6,-4,-12,1,0,0,rectangle,-4,-12,1,0,0,-4,-12,1,0,0,0,98,98,36,1,,,,,,,,
,,,,,,,,,,,,,FF,,,,,,,,0.4505,,,,,,,,,,,,,,,,,,,,,,60fcf7e8002c2c1b89b03b30,61036ae3dab58175685386d7,2021-07-30_14h59.48.244,Simcolourproject_2stim_asymm_v5,2020.2.10,Win32,60,61025ae37ef11b136ea224fe,,,,,,,,,3791,110,45,1,0,0,response1disk,,6,0,-7,1,0,0,rectangle,0,-7,1,0,0,0,-7,1,0,0,0,99,99,57,1,,,,,,,,
,,,,,,,,,,,,,FF,,,,,,,,0.4175,,,,,,,,,,,,,,,,,,,,,,60fcf7e8002c2c1b89b03b30,61036ae3dab58175685386d7,2021-07-30_14h59.48.244,Simcolourproject_2stim_asymm_v5,2020.2.10,Win32,60,61025ae37ef11b136ea224fe,,,,,,,,,2952,103,35,1,0,0,response1disk,,6,10,-11,1,0,0,rectangle,10,-11,1,0,0,10,-11,1,0,0,0,100,100,5,1,,,,,,,,
,,,,,,,,,,,,,FF,,,,,,,,0.835,,,,,,,,,,,,,,,,,,,,,,60fcf7e8002c2c1b89b03b30,61036ae3dab58175685386d7,2021-07-30_14h59.48.244,Simcolourproject_2stim_asymm_v5,2020.2.10,Win32,60,61025ae37ef11b136ea224fe,,,,,,,,,2893,-95,43,1,0,0,response7disk,,1,6,-5,1,0,0,rectangle,6,-5,1,0,0,6,-5,1,0,0,0,101,101,154,1,,,,,,,,
,,,,,,,,,,,,,FF,,,,,,,,0.885,,,,,,,,,,,,,,,,,,,,,,60fcf7e8002c2c1b89b03b30,61036ae3dab58175685386d7,2021-07-30_14h59.48.244,Simcolourproject_2stim_asymm_v5,2020.2.10,Win32,60,61025ae37ef11b136ea224fe,,,,,,,,,1142,23,-103,1,0,0,response3disk,,4,-5,-4,1,0,0,rectangle,-5,-4,1,0,0,-5,-4,1,0,0,0,102,102,62,1,,,,,,,,
,,,,,,,,,,,,,FF,,,,,,,,1.3364,,,,,,,,,,,,,,,,,,,,,,60fcf7e8002c2c1b89b03b30,61036ae3dab58175685386d7,2021-07-30_14h59.48.244,Simcolourproject_2stim_asymm_v5,2020.2.10,Win32,60,61025ae37ef11b136ea224fe,,,,,,,,,3234,63,34,1,0,0,response1disk,,6,10,12,1,0,0,rectangle,10,12,1,0,0,10,12,1,0,0,0,103,103,63,1,,,,,,,,
,,,,,,,,,,,,,FF,,,,,,,,1.0022,,,,,,,,,,,,,,,,,,,,,,60fcf7e8002c2c1b89b03b30,61036ae3dab58175685386d7,2021-07-30_14h59.48.244,Simcolourproject_2stim_asymm_v5,2020.2.10,Win32,60,61025ae37ef11b136ea224fe,,,,,,,,,3469,-102,47,1,0,0,response7disk,,1,1,4,1,0,0,rectangle,1,4,1,0,0,1,4,1,0,0,0,104,104,100,1,,,,,,,,
,,,,,,,,,,,,,FF,,,,,,,,0.9351,,,,,,,,,,,,,,,,,,,,,,60fcf7e8002c2c1b89b03b30,61036ae3dab58175685386d7,2021-07-30_14h59.48.244,Simcolourproject_2stim_asymm_v5,2020.2.10,Win32,60,61025ae37ef11b136ea224fe,,,,,,,,,1689,80,36,1,0,0,response1disk,,6,22,-13,1,0,0,rectangle,22,-13,1,0,0,22,-13,1,0,0,0,105,105,126,1,,,,,,,,
,,,,,,,,,,,,,FF,,,,,,,,0.9857,,,,,,,,,,,,,,,,,,,,,,60fcf7e8002c2c1b89b03b30,61036ae3dab58175685386d7,2021-07-30_14h59.48.244,Simcolourproject_2stim_asymm_v5,2020.2.10,Win32,60,61025ae37ef11b136ea224fe,,,,,,,,,3542,72,112,1,0,0,response1disk,,7,31,4,1,0,0,rectangle,31,4,1,0,0,31,4,1,0,0,0,106,106,112,1,,,,,,,,
,,,,,,,,,,,,,FF,,,,,,,,1.854,,,,,,,,,,,,,,,,,,,,,,60fcf7e8002c2c1b89b03b30,61036ae3dab58175685386d7,2021-07-30_14h59.48.244,Simcolourproject_2stim_asymm_v5,2020.2.10,Win32,60,61025ae37ef11b136ea224fe,,,,,,,,,3830,71,113,1,0,0,response1disk,,7,-6,6,1,0,0,rectangle,-6,6,1,0,0,-6,6,1,0,0,0,107,107,30,1,,,,,,,,
,,,,,,,,,,,,,FF,,,,,,,,0.4846,,,,,,,,,,,,,,,,,,,,,,60fcf7e8002c2c1b89b03b30,61036ae3dab58175685386d7,2021-07-30_14h59.48.244,Simcolourproject_2stim_asymm_v5,2020.2.10,Win32,60,61025ae37ef11b136ea224fe,,,,,,,,,2283,58,96,1,0,0,response1disk,,7,5,-3,1,0,0,rectangle,5,-3,1,0,0,5,-3,1,0,0,0,108,108,40,1,,,,,,,,
,,,,,,,,,,,,,FF,,,,,,,,0.4172,,,,,,,,,,,,,,,,,,,,,,60fcf7e8002c2c1b89b03b30,61036ae3dab58175685386d7,2021-07-30_14h59.48.244,Simcolourproject_2stim_asymm_v5,2020.2.10,Win32,60,61025ae37ef11b136ea224fe,,,,,,,,,50,55,84,1,0,0,response1disk,,7,10,11,1,0,0,rectangle,10,11,1,0,0,10,11,1,0,0,0,109,109,138,1,,,,,,,,
,,,,,,,,,,,,,FF,,,,,,,,0.4675,,,,,,,,,,,,,,,,,,,,,,60fcf7e8002c2c1b89b03b30,61036ae3dab58175685386d7,2021-07-30_14h59.48.244,Simcolourproject_2stim_asymm_v5,2020.2.10,Win32,60,61025ae37ef11b136ea224fe,,,,,,,,,1002,90,45,1,0,0,response1disk,,6,11,4,1,0,0,rectangle,48,97,1,0,0,3,1,1,0,0,0,110,110,128,1,,response1disk_3,TRUE,7,7,"[233,114,112,25,224,85,162,204,199,33,75,71,6,20,290,95,274,111,160,285]",1.369,rectangle
,,,,,,,,,,,,,FF,,,,,,,,3.9424,,,,,,,,,,,,,,,,,,,,,,60fcf7e8002c2c1b89b03b30,61036ae3dab58175685386d7,2021-07-30_14h59.48.244,Simcolourproject_2stim_asymm_v5,2020.2.10,Win32,60,61025ae37ef11b136ea224fe,,,,,,,,,3930,109,-50,1,0,0,response3disk,,5,10,-9,1,0,0,rectangle,-56,-87,1,0,0,-24,-8,1,0,0,0,111,111,70,1,,response5disk_3,TRUE,3,3,"[233,114,112,25,224,85,162,204,199,33,75,71,6,20,290,95,274,111,160,285]",1.5862,rectangle
,,,,,,,,,,,,,FF,,,,,,,,1.136,,,,,,,,,,,,,,,,,,,,,,60fcf7e8002c2c1b89b03b30,61036ae3dab58175685386d7,2021-07-30_14h59.48.244,Simcolourproject_2stim_asymm_v5,2020.2.10,Win32,60,61025ae37ef11b136ea224fe,,,,,,,,,1077,34,92,1,0,0,response1disk,,7,-3,0,1,0,0,rectangle,-3,0,1,0,0,-3,0,1,0,0,0,112,112,127,1,,,,,,,,
,,,,,,,,,,,,,FF,,,,,,,,1.1194,,,,,,,,,,,,,,,,,,,,,,60fcf7e8002c2c1b89b03b30,61036ae3dab58175685386d7,2021-07-30_14h59.48.244,Simcolourproject_2stim_asymm_v5,2020.2.10,Win32,60,61025ae37ef11b136ea224fe,,,,,,,,,1307,-39,-110,1,0,0,response5disk,,3,-5,-1,1,0,0,rectangle,-48,97,1,0,0,33,5,1,0,0,0,113,113,117,1,,response7disk_3,TRUE,0,0,"[233,114,112,25,224,85,162,204,199,33,75,71,6,20,290,95,274,111,160,285]",1.3528,rectangle
,,,,,,,,,,,,,FF,,,,,,,,1.2526,,,,,,,,,,,,,,,,,,,,,,60fcf7e8002c2c1b89b03b30,61036ae3dab58175685386d7,2021-07-30_14h59.48.244,Simcolourproject_2stim_asymm_v5,2020.2.10,Win32,60,61025ae37ef11b136ea224fe,,,,,,,,,2573,71,119,1,0,0,response1disk,,7,9,2,1,0,0,rectangle,9,2,1,0,0,9,2,1,0,0,0,114,114,89,1,,,,,,,,
,,,,,,,,,,,,,FF,,,,,,,,0.6016,,,,,,,,,,,,,,,,,,,,,,60fcf7e8002c2c1b89b03b30,61036ae3dab58175685386d7,2021-07-30_14h59.48.244,Simcolourproject_2stim_asymm_v5,2020.2.10,Win32,60,61025ae37ef11b136ea224fe,,,,,,,,,1210,30,90,1,0,0,response1disk,,7,-6,-1,1,0,0,rectangle,-6,-1,1,0,0,-6,-1,1,0,0,0,115,115,133,1,,,,,,,,
,,,,,,,,,,,,,FF,,,,,,,,0.6176,,,,,,,,,,,,,,,,,,,,,,60fcf7e8002c2c1b89b03b30,61036ae3dab58175685386d7,2021-07-30_14h59.48.244,Simcolourproject_2stim_asymm_v5,2020.2.10,Win32,60,61025ae37ef11b136ea224fe,,,,,,,,,2444,48,113,1,0,0,response1disk,,7,11,-9,1,0,0,rectangle,11,-9,1,0,0,11,-9,1,0,0,0,116,116,74,1,,,,,,,,
,,,,,,,,,,,,,FF,,,,,,,,0.8687,,,,,,,,,,,,,,,,,,,,,,60fcf7e8002c2c1b89b03b30,61036ae3dab58175685386d7,2021-07-30_14h59.48.244,Simcolourproject_2stim_asymm_v5,2020.2.10,Win32,60,61025ae37ef11b136ea224fe,,,,,,,,,549,104,-46,1,0,0,response3disk,,5,-23,-2,1,0,0,rectangle,-23,-2,1,0,0,-23,-2,1,0,0,0,117,117,120,1,,,,,,,,
,,,,,,,,,,,,,FF,,,,,,,,1.0189,,,,,,,,,,,,,,,,,,,,,,60fcf7e8002c2c1b89b03b30,61036ae3dab58175685386d7,2021-07-30_14h59.48.244,Simcolourproject_2stim_asymm_v5,2020.2.10,Win32,60,61025ae37ef11b136ea224fe,,,,,,,,,496,78,45,1,0,0,response1disk,,6,-15,4,1,0,0,rectangle,-15,4,1,0,0,-15,4,1,0,0,0,118,118,22,1,,,,,,,,
,,,,,,,,,,,,,FF,,,,,,,,0.6515,,,,,,,,,,,,,,,,,,,,,,60fcf7e8002c2c1b89b03b30,61036ae3dab58175685386d7,2021-07-30_14h59.48.244,Simcolourproject_2stim_asymm_v5,2020.2.10,Win32,60,61025ae37ef11b136ea224fe,,,,,,,,,3933,40,85,1,0,0,response1disk,,7,-11,-8,1,0,0,rectangle,-11,-8,1,0,0,-11,-8,1,0,0,0,119,119,27,1,,,,,,,,
,,,,,,,,,,,,,FF,,,,,,,,0.985,,,,,,,,,,,,,,,,,,,,,,60fcf7e8002c2c1b89b03b30,61036ae3dab58175685386d7,2021-07-30_14h59.48.244,Simcolourproject_2stim_asymm_v5,2020.2.10,Win32,60,61025ae37ef11b136ea224fe,,,,,,,,,3066,108,-35,1,0,0,response3disk,,5,4,13,1,0,0,rectangle,4,13,1,0,0,4,13,1,0,0,0,120,120,13,1,,,,,,,,
,,,,,,,,,,,,,FF,,,,,,,,0.4838,,,,,,,,,,,,,,,,,,,,,,60fcf7e8002c2c1b89b03b30,61036ae3dab58175685386d7,2021-07-30_14h59.48.244,Simcolourproject_2stim_asymm_v5,2020.2.10,Win32,60,61025ae37ef11b136ea224fe,,,,,,,,,682,80,66,1,0,0,response1disk,,6,-13,0,1,0,0,rectangle,-13,0,1,0,0,-13,0,1,0,0,0,121,121,151,1,,,,,,,,
,,,,,,,,,,,,,FF,,,,,,,,0.5179,,,,,,,,,,,,,,,,,,,,,,60fcf7e8002c2c1b89b03b30,61036ae3dab58175685386d7,2021-07-30_14h59.48.244,Simcolourproject_2stim_asymm_v5,2020.2.10,Win32,60,61025ae37ef11b136ea224fe,,,,,,,,,952,86,54,1,0,0,response1disk,,6,-11,4,1,0,0,rectangle,-11,4,1,0,0,-11,4,1,0,0,0,122,122,107,1,,,,,,,,
,,,,,,,,,,,,,FF,,,,,,,,0.7011,,,,,,,,,,,,,,,,,,,,,,60fcf7e8002c2c1b89b03b30,61036ae3dab58175685386d7,2021-07-30_14h59.48.244,Simcolourproject_2stim_asymm_v5,2020.2.10,Win32,60,61025ae37ef11b136ea224fe,,,,,,,,,1467,43,76,1,0,0,response1disk,,7,20,0,1,0,0,rectangle,20,0,1,0,0,20,0,1,0,0,0,123,123,52,1,,,,,,,,
,,,,,,,,,,,,,FF,,,,,,,,0.9188,,,,,,,,,,,,,,,,,,,,,,60fcf7e8002c2c1b89b03b30,61036ae3dab58175685386d7,2021-07-30_14h59.48.244,Simcolourproject_2stim_asymm_v5,2020.2.10,Win32,60,61025ae37ef11b136ea224fe,,,,,,,,,1738,73,-26,1,0,0,response3disk,,5,-11,-1,1,0,0,rectangle,-11,-1,1,0,0,-11,-1,1,0,0,0,124,124,141,1,,,,,,,,
,,,,,,,,,,,,,FF,,,,,,,,0.5343,,,,,,,,,,,,,,,,,,,,,,60fcf7e8002c2c1b89b03b30,61036ae3dab58175685386d7,2021-07-30_14h59.48.244,Simcolourproject_2stim_asymm_v5,2020.2.10,Win32,60,61025ae37ef11b136ea224fe,,,,,,,,,2502,73,45,1,0,0,response1disk,,6,-25,-8,1,0,0,rectangle,-25,-8,1,0,0,-25,-8,1,0,0,0,125,125,123,1,,,,,,,,
,,,,,,,,,,,,,FF,,,,,,,,0.8013,,,,,,,,,,,,,,,,,,,,,,60fcf7e8002c2c1b89b03b30,61036ae3dab58175685386d7,2021-07-30_14h59.48.244,Simcolourproject_2stim_asymm_v5,2020.2.10,Win32,60,61025ae37ef11b136ea224fe,,,,,,,,,979,53,-22,1,0,0,response3disk,,5,-25,-2,1,0,0,rectangle,-25,-2,1,0,0,-25,-2,1,0,0,0,126,126,90,1,,,,,,,,
,,,,,,,,,,,,,FF,,,,,,,,0.5676,,,,,,,,,,,,,,,,,,,,,,60fcf7e8002c2c1b89b03b30,61036ae3dab58175685386d7,2021-07-30_14h59.48.244,Simcolourproject_2stim_asymm_v5,2020.2.10,Win32,60,61025ae37ef11b136ea224fe,,,,,,,,,20,59,45,1,0,0,response1disk,,6,4,0,1,0,0,rectangle,4,0,1,0,0,4,0,1,0,0,0,127,127,129,1,,,,,,,,
,,,,,,,,,,,,,FF,,,,,,,,0.5676,,,,,,,,,,,,,,,,,,,,,,60fcf7e8002c2c1b89b03b30,61036ae3dab58175685386d7,2021-07-30_14h59.48.244,Simcolourproject_2stim_asymm_v5,2020.2.10,Win32,60,61025ae37ef11b136ea224fe,,,,,,,,,1512,44,80,1,0,0,response1disk,,7,8,3,1,0,0,rectangle,8,3,1,0,0,8,3,1,0,0,0,128,128,124,1,,,,,,,,
,,,,,,,,,,,,,FF,,,,,,,,0.6011,,,,,,,,,,,,,,,,,,,,,,60fcf7e8002c2c1b89b03b30,61036ae3dab58175685386d7,2021-07-30_14h59.48.244,Simcolourproject_2stim_asymm_v5,2020.2.10,Win32,60,61025ae37ef11b136ea224fe,,,,,,,,,3626,100,49,1,0,0,response1disk,,6,22,-3,1,0,0,rectangle,22,-3,1,0,0,22,-3,1,0,0,0,129,129,84,1,,,,,,,,
,,,,,,,,,,,,,FF,,,,,,,,0.9015,,,,,,,,,,,,,,,,,,,,,,60fcf7e8002c2c1b89b03b30,61036ae3dab58175685386d7,2021-07-30_14h59.48.244,Simcolourproject_2stim_asymm_v5,2020.2.10,Win32,60,61025ae37ef11b136ea224fe,,,,,,,,,3771,79,45,1,0,0,response1disk,,6,-2,-8,1,0,0,rectangle,-2,-8,1,0,0,-2,-8,1,0,0,0,130,130,6,1,,,,,,,,
,,,,,,,,,,,,,FF,,,,,,,,0.5511,,,,,,,,,,,,,,,,,,,,,,60fcf7e8002c2c1b89b03b30,61036ae3dab58175685386d7,2021-07-30_14h59.48.244,Simcolourproject_2stim_asymm_v5,2020.2.10,Win32,60,61025ae37ef11b136ea224fe,,,,,,,,,1072,69,58,1,0,0,response1disk,,6,0,-3,1,0,0,rectangle,0,-3,1,0,0,0,-3,1,0,0,0,131,131,136,1,,,,,,,,
,,,,,,,,,,,,,FF,,,,,,,,0.5015,,,,,,,,,,,,,,,,,,,,,,60fcf7e8002c2c1b89b03b30,61036ae3dab58175685386d7,2021-07-30_14h59.48.244,Simcolourproject_2stim_asymm_v5,2020.2.10,Win32,60,61025ae37ef11b136ea224fe,,,,,,,,,2972,66,46,1,0,0,response1disk,,6,-18,-12,1,0,0,rectangle,-18,-12,1,0,0,-18,-12,1,0,0,0,132,132,94,1,,,,,,,,
,,,,,,,,,,,,,FF,,,,,,,,0.501,,,,,,,,,,,,,,,,,,,,,,60fcf7e8002c2c1b89b03b30,61036ae3dab58175685386d7,2021-07-30_14h59.48.244,Simcolourproject_2stim_asymm_v5,2020.2.10,Win32,60,61025ae37ef11b136ea224fe,,,,,,,,,654,70,38,1,0,0,response1disk,,6,-4,0,1,0,0,rectangle,-4,0,1,0,0,-4,0,1,0,0,0,133,133,88,1,,,,,,,,
,,,,,,,,,,,,,FF,,,,,,,,0.6012,,,,,,,,,,,,,,,,,,,,,,60fcf7e8002c2c1b89b03b30,61036ae3dab58175685386d7,2021-07-30_14h59.48.244,Simcolourproject_2stim_asymm_v5,2020.2.10,Win32,60,61025ae37ef11b136ea224fe,,,,,,,,,1457,91,42,1,0,0,response1disk,,6,7,-13,1,0,0,rectangle,7,-13,1,0,0,7,-13,1,0,0,0,134,134,103,1,,,,,,,,
,,,,,,,,,,,,,FF,,,,,,,,1.2362,,,,,,,,,,,,,,,,,,,,,,60fcf7e8002c2c1b89b03b30,61036ae3dab58175685386d7,2021-07-30_14h59.48.244,Simcolourproject_2stim_asymm_v5,2020.2.10,Win32,60,61025ae37ef11b136ea224fe,,,,,,,,,3946,39,-84,1,0,0,response3disk,,4,5,-11,1,0,0,rectangle,5,-11,1,0,0,5,-11,1,0,0,0,135,135,51,1,,,,,,,,
,,,,,,,,,,,,,FF,,,,,,,,1.0682,,,,,,,,,,,,,,,,,,,,,,60fcf7e8002c2c1b89b03b30,61036ae3dab58175685386d7,2021-07-30_14h59.48.244,Simcolourproject_2stim_asymm_v5,2020.2.10,Win32,60,61025ae37ef11b136ea224fe,,,,,,,,,1026,67,-47,1,0,0,response3disk,,5,-19,-10,1,0,0,rectangle,-19,-10,1,0,0,-19,-10,1,0,0,0,136,136,72,1,,,,,,,,
,,,,,,,,,,,,,FF,,,,,,,,0.6349,,,,,,,,,,,,,,,,,,,,,,60fcf7e8002c2c1b89b03b30,61036ae3dab58175685386d7,2021-07-30_14h59.48.244,Simcolourproject_2stim_asymm_v5,2020.2.10,Win32,60,61025ae37ef11b136ea224fe,,,,,,,,,4323,64,-36,1,0,0,response3disk,,5,-19,7,1,0,0,rectangle,-19,7,1,0,0,-19,7,1,0,0,0,137,137,66,1,,,,,,,,
,,,,,,,,,,,,,FF,,,,,,,,1.6201,,,,,,,,,,,,,,,,,,,,,,60fcf7e8002c2c1b89b03b30,61036ae3dab58175685386d7,2021-07-30_14h59.48.244,Simcolourproject_2stim_asymm_v5,2020.2.10,Win32,60,61025ae37ef11b136ea224fe,,,,,,,,,1223,-34,-73,1,0,0,response5disk,,3,7,-12,1,0,0,rectangle,7,-12,1,0,0,7,-12,1,0,0,0,138,138,95,1,,,,,,,,
,,,,,,,,,,,,,FF,,,,,,,,0.668,,,,,,,,,,,,,,,,,,,,,,60fcf7e8002c2c1b89b03b30,61036ae3dab58175685386d7,2021-07-30_14h59.48.244,Simcolourproject_2stim_asymm_v5,2020.2.10,Win32,60,61025ae37ef11b136ea224fe,,,,,,,,,4315,60,36,1,0,0,response1disk,,6,-16,-9,1,0,0,rectangle,-16,-9,1,0,0,-16,-9,1,0,0,0,139,139,28,1,,,,,,,,
,,,,,,,,,,,,,FF,,,,,,,,0.4677,,,,,,,,,,,,,,,,,,,,,,60fcf7e8002c2c1b89b03b30,61036ae3dab58175685386d7,2021-07-30_14h59.48.244,Simcolourproject_2stim_asymm_v5,2020.2.10,Win32,60,61025ae37ef11b136ea224fe,,,,,,,,,1167,124,30,1,0,0,response1disk,,6,39,2,1,0,0,rectangle,39,2,1,0,0,39,2,1,0,0,0,140,140,108,1,,,,,,,,
,,,,,,,,,,,,,FF,,,,,,,,0.4679,,,,,,,,,,,,,,,,,,,,,,60fcf7e8002c2c1b89b03b30,61036ae3dab58175685386d7,2021-07-30_14h59.48.244,Simcolourproject_2stim_asymm_v5,2020.2.10,Win32,60,61025ae37ef11b136ea224fe,,,,,,,,,2073,124,71,1,0,0,response1disk,,6,29,11,1,0,0,rectangle,29,11,1,0,0,29,11,1,0,0,0,141,141,42,1,,,,,,,,
,,,,,,,,,,,,,FF,,,,,,,,0.4341,,,,,,,,,,,,,,,,,,,,,,60fcf7e8002c2c1b89b03b30,61036ae3dab58175685386d7,2021-07-30_14h59.48.244,Simcolourproject_2stim_asymm_v5,2020.2.10,Win32,60,61025ae37ef11b136ea224fe,,,,,,,,,1641,90,38,1,0,0,response1disk,,6,5,15,1,0,0,rectangle,5,15,1,0,0,5,15,1,0,0,0,142,142,93,1,,,,,,,,
,,,,,,,,,,,,,FF,,,,,,,,0.4344,,,,,,,,,,,,,,,,,,,,,,60fcf7e8002c2c1b89b03b30,61036ae3dab58175685386d7,2021-07-30_14h59.48.244,Simcolourproject_2stim_asymm_v5,2020.2.10,Win32,60,61025ae37ef11b136ea224fe,,,,,,,,,2366,55,83,1,0,0,response1disk,,7,7,8,1,0,0,rectangle,7,8,1,0,0,7,8,1,0,0,0,143,143,77,1,,,,,,,,
,,,,,,,,,,,,,FF,,,,,,,,0.451,,,,,,,,,,,,,,,,,,,,,,60fcf7e8002c2c1b89b03b30,61036ae3dab58175685386d7,2021-07-30_14h59.48.244,Simcolourproject_2stim_asymm_v5,2020.2.10,Win32,60,61025ae37ef11b136ea224fe,,,,,,,,,4244,95,35,1,0,0,response1disk,,6,10,9,1,0,0,rectangle,10,9,1,0,0,10,9,1,0,0,0,144,144,33,1,,,,,,,,
,,,,,,,,,,,,,FF,,,,,,,,0.4174,,,,,,,,,,,,,,,,,,,,,,60fcf7e8002c2c1b89b03b30,61036ae3dab58175685386d7,2021-07-30_14h59.48.244,Simcolourproject_2stim_asymm_v5,2020.2.10,Win32,60,61025ae37ef11b136ea224fe,,,,,,,,,2983,43,76,1,0,0,response1disk,,7,-5,3,1,0,0,rectangle,-5,3,1,0,0,-5,3,1,0,0,0,145,145,134,1,,,,,,,,
,,,,,,,,,,,,,FF,,,,,,,,0.5509,,,,,,,,,,,,,,,,,,,,,,60fcf7e8002c2c1b89b03b30,61036ae3dab58175685386d7,2021-07-30_14h59.48.244,Simcolourproject_2stim_asymm_v5,2020.2.10,Win32,60,61025ae37ef11b136ea224fe,,,,,,,,,1643,95,47,1,0,0,response1disk,,6,8,-10,1,0,0,rectangle,8,-10,1,0,0,8,-10,1,0,0,0,146,146,26,1,,,,,,,,
,,,,,,,,,,,,,FF,,,,,,,,0.4846,,,,,,,,,,,,,,,,,,,,,,60fcf7e8002c2c1b89b03b30,61036ae3dab58175685386d7,2021-07-30_14h59.48.244,Simcolourproject_2stim_asymm_v5,2020.2.10,Win32,60,61025ae37ef11b136ea224fe,,,,,,,,,3836,88,-27,1,0,0,response3disk,,5,-6,7,1,0,0,rectangle,-6,7,1,0,0,-6,7,1,0,0,0,147,147,111,1,,,,,,,,
,,,,,,,,,,,,,FF,,,,,,,,0.5011,,,,,,,,,,,,,,,,,,,,,,60fcf7e8002c2c1b89b03b30,61036ae3dab58175685386d7,2021-07-30_14h59.48.244,Simcolourproject_2stim_asymm_v5,2020.2.10,Win32,60,61025ae37ef11b136ea224fe,,,,,,,,,3177,45,78,1,0,0,response1disk,,7,8,8,1,0,0,rectangle,8,8,1,0,0,8,8,1,0,0,0,148,148,1,1,,,,,,,,
,,,,,,,,,,,,,FF,,,,,,,,0.6517,,,,,,,,,,,,,,,,,,,,,,60fcf7e8002c2c1b89b03b30,61036ae3dab58175685386d7,2021-07-30_14h59.48.244,Simcolourproject_2stim_asymm_v5,2020.2.10,Win32,60,61025ae37ef11b136ea224fe,,,,,,,,,3979,69,41,1,0,0,response1disk,,6,-4,-1,1,0,0,rectangle,-4,-1,1,0,0,-4,-1,1,0,0,0,149,149,58,1,,,,,,,,
,,,,,,,,,,,,,FF,,,,,,,,0.9183,,,,,,,,,,,,,,,,,,,,,,60fcf7e8002c2c1b89b03b30,61036ae3dab58175685386d7,2021-07-30_14h59.48.244,Simcolourproject_2stim_asymm_v5,2020.2.10,Win32,60,61025ae37ef11b136ea224fe,,,,,,,,,1121,82,53,1,0,0,response1disk,,6,-17,5,1,0,0,rectangle,-17,5,1,0,0,-17,5,1,0,0,0,150,150,99,1,,,,,,,,
,,,,,,,,,,,,,FF,,,,,,,,0.8014,,,,,,,,,,,,,,,,,,,,,,60fcf7e8002c2c1b89b03b30,61036ae3dab58175685386d7,2021-07-30_14h59.48.244,Simcolourproject_2stim_asymm_v5,2020.2.10,Win32,60,61025ae37ef11b136ea224fe,,,,,,,,,3732,38,127,1,0,0,response1disk,,7,-12,0,1,0,0,rectangle,-12,0,1,0,0,-12,0,1,0,0,0,151,151,155,1,,,,,,,,
,,,,,,,,,,,,,FF,,,,,,,,1.2527,,,,,,,,,,,,,,,,,,,,,,60fcf7e8002c2c1b89b03b30,61036ae3dab58175685386d7,2021-07-30_14h59.48.244,Simcolourproject_2stim_asymm_v5,2020.2.10,Win32,60,61025ae37ef11b136ea224fe,,,,,,,,,2517,73,-45,1,0,0,response3disk,,5,-15,13,1,0,0,rectangle,-15,13,1,0,0,-15,13,1,0,0,0,152,152,132,1,,,,,,,,
,,,,,,,,,,,,,FF,,,,,,,,0.618,,,,,,,,,,,,,,,,,,,,,,60fcf7e8002c2c1b89b03b30,61036ae3dab58175685386d7,2021-07-30_14h59.48.244,Simcolourproject_2stim_asymm_v5,2020.2.10,Win32,60,61025ae37ef11b136ea224fe,,,,,,,,,3346,60,-43,1,0,0,response3disk,,5,-42,-3,1,0,0,rectangle,-42,-3,1,0,0,-42,-3,1,0,0,0,153,153,67,1,,,,,,,,
,,,,,,,,,,,,,FF,,,,,,,,0.8349,,,,,,,,,,,,,,,,,,,,,,60fcf7e8002c2c1b89b03b30,61036ae3dab58175685386d7,2021-07-30_14h59.48.244,Simcolourproject_2stim_asymm_v5,2020.2.10,Win32,60,61025ae37ef11b136ea224fe,,,,,,,,,4316,-76,106,1,0,0,response7disk,,0,-43,12,1,0,0,rectangle,-43,12,1,0,0,-43,12,1,0,0,0,154,154,144,1,,,,,,,,
,,,,,,,,,,,,,FF,,,,,,,,1.2863,,,,,,,,,,,,,,,,,,,,,,60fcf7e8002c2c1b89b03b30,61036ae3dab58175685386d7,2021-07-30_14h59.48.244,Simcolourproject_2stim_asymm_v5,2020.2.10,Win32,60,61025ae37ef11b136ea224fe,,,,,,,,,2887,-119,-54,1,0,0,response5disk,,2,-26,-10,1,0,0,rectangle,-26,-10,1,0,0,-26,-10,1,0,0,0,155,155,148,1,,,,,,,,
,,,,,,,,,,,,,FF,,,,,,,,1.0028,,,,,,,,,,,,,,,,,,,,,,60fcf7e8002c2c1b89b03b30,61036ae3dab58175685386d7,2021-07-30_14h59.48.244,Simcolourproject_2stim_asymm_v5,2020.2.10,Win32,60,61025ae37ef11b136ea224fe,,,,,,,,,529,-35,-116,1,0,0,response5disk,,3,4,0,1,0,0,rectangle,4,0,1,0,0,4,0,1,0,0,0,156,156,114,1,,,,,,,,
,,,,,,,,,,,,,FF,,,,,,,,0.8688,,,,,,,,,,,,,,,,,,,,,,60fcf7e8002c2c1b89b03b30,61036ae3dab58175685386d7,2021-07-30_14h59.48.244,Simcolourproject_2stim_asymm_v5,2020.2.10,Win32,60,61025ae37ef11b136ea224fe,,,,,,,,,583,83,58,1,0,0,response1disk,,6,19,18,1,0,0,rectangle,19,18,1,0,0,19,18,1,0,0,0,157,157,55,1,,,,,,,,
,,,,,,,,,,,,,FF,,,,,,,,0.4509,,,,,,,,,,,,,,,,,,,,,,60fcf7e8002c2c1b89b03b30,61036ae3dab58175685386d7,2021-07-30_14h59.48.244,Simcolourproject_2stim_asymm_v5,2020.2.10,Win32,60,61025ae37ef11b136ea224fe,,,,,,,,,3454,79,43,1,0,0,response1disk,,6,7,6,1,0,0,rectangle,7,6,1,0,0,7,6,1,0,0,0,158,158,92,1,,,,,,,,
,,,,,,,,,,,,,FF,,,,,,,,0.8016,,,,,,,,,,,,,,,,,,,,,,60fcf7e8002c2c1b89b03b30,61036ae3dab58175685386d7,2021-07-30_14h59.48.244,Simcolourproject_2stim_asymm_v5,2020.2.10,Win32,60,61025ae37ef11b136ea224fe,,,,,,,,,371,72,-54,1,0,0,response3disk,,5,-15,-3,1,0,0,rectangle,-122,79,1,0,0,-41,2,1,0,0,0,159,159,153,1,,response7disk_3,TRUE,1,1,"[233,114,112,25,224,85,162,204,199,33,75,71,6,20,290,95,274,111,160,285]",1.4029,rectangle
,,,,,,,,,,,,,FF,,,,,,,,0.8345,,,,,,,,,,,,,,,,,,,,,,60fcf7e8002c2c1b89b03b30,61036ae3dab58175685386d7,2021-07-30_14h59.48.244,Simcolourproject_2stim_asymm_v5,2020.2.10,Win32,60,61025ae37ef11b136ea224fe,,,,,,,,,1390,-63,-76,1,0,0,response5disk,,3,-31,2,1,0,0,rectangle,-31,2,1,0,0,-31,2,1,0,0,1,0,160,37,1,,,,,,,,
,,,,,,,,,,,,,FF,,,,,,,,0.6846,,,,,,,,,,,,,,,,,,,,,,60fcf7e8002c2c1b89b03b30,61036ae3dab58175685386d7,2021-07-30_14h59.48.244,Simcolourproject_2stim_asymm_v5,2020.2.10,Win32,60,61025ae37ef11b136ea224fe,,,,,,,,,2829,40,-78,1,0,0,response3disk,,4,-15,6,1,0,0,rectangle,141,39,1,0,0,23,-5,1,0,0,1,1,161,20,1,,response1disk_3,TRUE,6,6,"[233,114,112,25,224,85,162,204,199,33,75,71,6,20,290,95,274,111,160,285]",1.3359,rectangle
,,,,,,,,,,,,,FF,,,,,,,,1.0523,,,,,,,,,,,,,,,,,,,,,,60fcf7e8002c2c1b89b03b30,61036ae3dab58175685386d7,2021-07-30_14h59.48.244,Simcolourproject_2stim_asymm_v5,2020.2.10,Win32,60,61025ae37ef11b136ea224fe,,,,,,,,,2236,39,-93,1,0,0,response3disk,,4,14,5,1,0,0,rectangle,14,5,1,0,0,14,5,1,0,0,1,2,162,1,1,,,,,,,,
,,,,,,,,,,,,,FF,,,,,,,,0.7017,,,,,,,,,,,,,,,,,,,,,,60fcf7e8002c2c1b89b03b30,61036ae3dab58175685386d7,2021-07-30_14h59.48.244,Simcolourproject_2stim_asymm_v5,2020.2.10,Win32,60,61025ae37ef11b136ea224fe,,,,,,,,,4122,127,-53,1,0,0,response3disk,,5,23,-5,1,0,0,rectangle,23,-5,1,0,0,23,-5,1,0,0,1,3,163,64,1,,,,,,,,
,,,,,,,,,,,,,FF,,,,,,,,0.8347,,,,,,,,,,,,,,,,,,,,,,60fcf7e8002c2c1b89b03b30,61036ae3dab58175685386d7,2021-07-30_14h59.48.244,Simcolourproject_2stim_asymm_v5,2020.2.10,Win32,60,61025ae37ef11b136ea224fe,,,,,,,,,2550,89,49,1,0,0,response1disk,,6,14,16,1,0,0,rectangle,14,16,1,0,0,14,16,1,0,0,1,4,164,60,1,,,,,,,,
,,,,,,,,,,,,,FF,,,,,,,,0.5178,,,,,,,,,,,,,,,,,,,,,,60fcf7e8002c2c1b89b03b30,61036ae3dab58175685386d7,2021-07-30_14h59.48.244,Simcolourproject_2stim_asymm_v5,2020.2.10,Win32,60,61025ae37ef11b136ea224fe,,,,,,,,,1943,44,92,1,0,0,response1disk,,7,19,9,1,0,0,rectangle,19,9,1,0,0,19,9,1,0,0,1,5,165,142,1,,,,,,,,
,,,,,,,,,,,,,FF,,,,,,,,0.5342,,,,,,,,,,,,,,,,,,,,,,60fcf7e8002c2c1b89b03b30,61036ae3dab58175685386d7,2021-07-30_14h59.48.244,Simcolourproject_2stim_asymm_v5,2020.2.10,Win32,60,61025ae37ef11b136ea224fe,,,,,,,,,1790,50,89,1,0,0,response1disk,,7,10,4,1,0,0,rectangle,10,4,1,0,0,10,4,1,0,0,1,6,166,65,1,,,,,,,,
,,,,,,,,,,,,,FF,,,,,,,,0.8854,,,,,,,,,,,,,,,,,,,,,,60fcf7e8002c2c1b89b03b30,61036ae3dab58175685386d7,2021-07-30_14h59.48.244,Simcolourproject_2stim_asymm_v5,2020.2.10,Win32,60,61025ae37ef11b136ea224fe,,,,,,,,,1303,118,-44,1,0,0,response3disk,,5,20,-10,1,0,0,rectangle,20,-10,1,0,0,20,-10,1,0,0,1,7,167,30,1,,,,,,,,
,,,,,,,,,,,,,FF,,,,,,,,1.0355,,,,,,,,,,,,,,,,,,,,,,60fcf7e8002c2c1b89b03b30,61036ae3dab58175685386d7,2021-07-30_14h59.48.244,Simcolourproject_2stim_asymm_v5,2020.2.10,Win32,60,61025ae37ef11b136ea224fe,,,,,,,,,3397,76,-37,1,0,0,response3disk,,5,-7,16,1,0,0,rectangle,-7,16,1,0,0,-7,16,1,0,0,1,8,168,111,1,,,,,,,,
,,,,,,,,,,,,,FF,,,,,,,,0.7347,,,,,,,,,,,,,,,,,,,,,,60fcf7e8002c2c1b89b03b30,61036ae3dab58175685386d7,2021-07-30_14h59.48.244,Simcolourproject_2stim_asymm_v5,2020.2.10,Win32,60,61025ae37ef11b136ea224fe,,,,,,,,,3804,51,79,1,0,0,response1disk,,7,-5,-13,1,0,0,rectangle,-5,-13,1,0,0,-5,-13,1,0,0,1,9,169,96,1,,,,,,,,
,,,,,,,,,,,,,FF,,,,,,,,1.3867,,,,,,,,,,,,,,,,,,,,,,60fcf7e8002c2c1b89b03b30,61036ae3dab58175685386d7,2021-07-30_14h59.48.244,Simcolourproject_2stim_asymm_v5,2020.2.10,Win32,60,61025ae37ef11b136ea224fe,,,,,,,,,1145,-69,-125,1,0,0,response5disk,,3,15,17,1,0,0,rectangle,15,17,1,0,0,15,17,1,0,0,1,10,170,132,1,,,,,,,,
,,,,,,,,,,,,,FF,,,,,,,,0.6849,,,,,,,,,,,,,,,,,,,,,,60fcf7e8002c2c1b89b03b30,61036ae3dab58175685386d7,2021-07-30_14h59.48.244,Simcolourproject_2stim_asymm_v5,2020.2.10,Win32,60,61025ae37ef11b136ea224fe,,,,,,,,,2634,47,-100,1,0,0,response3disk,,4,11,4,1,0,0,rectangle,11,4,1,0,0,11,4,1,0,0,1,11,171,62,1,,,,,,,,
,,,,,,,,,,,,,FF,,,,,,,,0.5846,,,,,,,,,,,,,,,,,,,,,,60fcf7e8002c2c1b89b03b30,61036ae3dab58175685386d7,2021-07-30_14h59.48.244,Simcolourproject_2stim_asymm_v5,2020.2.10,Win32,60,61025ae37ef11b136ea224fe,,,,,,,,,293,73,56,1,0,0,response1disk,,6,-11,-6,1,0,0,rectangle,-11,-6,1,0,0,-11,-6,1,0,0,1,12,172,8,1,,,,,,,,
,,,,,,,,,,,,,FF,,,,,,,,1.47,,,,,,,,,,,,,,,,,,,,,,60fcf7e8002c2c1b89b03b30,61036ae3dab58175685386d7,2021-07-30_14h59.48.244,Simcolourproject_2stim_asymm_v5,2020.2.10,Win32,60,61025ae37ef11b136ea224fe,,,,,,,,,3583,97,-66,1,0,0,response3disk,,5,-20,3,1,0,0,rectangle,-20,3,1,0,0,-20,3,1,0,0,1,13,173,12,1,,,,,,,,
,,,,,,,,,,,,,FF,,,,,,,,1.0858,,,,,,,,,,,,,,,,,,,,,,60fcf7e8002c2c1b89b03b30,61036ae3dab58175685386d7,2021-07-30_14h59.48.244,Simcolourproject_2stim_asymm_v5,2020.2.10,Win32,60,61025ae37ef11b136ea224fe,,,,,,,,,3141,57,127,1,0,0,response1disk,,7,9,6,1,0,0,rectangle,9,6,1,0,0,9,6,1,0,0,1,14,174,26,1,,,,,,,,
,,,,,,,,,,,,,FF,,,,,,,,0.7852,,,,,,,,,,,,,,,,,,,,,,60fcf7e8002c2c1b89b03b30,61036ae3dab58175685386d7,2021-07-30_14h59.48.244,Simcolourproject_2stim_asymm_v5,2020.2.10,Win32,60,61025ae37ef11b136ea224fe,,,,,,,,,1131,-116,51,1,0,0,response7disk,,1,-11,7,1,0,0,rectangle,-11,7,1,0,0,-11,7,1,0,0,1,15,175,81,1,,,,,,,,
,,,,,,,,,,,,,FF,,,,,,,,0.8686,,,,,,,,,,,,,,,,,,,,,,60fcf7e8002c2c1b89b03b30,61036ae3dab58175685386d7,2021-07-30_14h59.48.244,Simcolourproject_2stim_asymm_v5,2020.2.10,Win32,60,61025ae37ef11b136ea224fe,,,,,,,,,3967,-118,-79,1,0,0,response5disk,,2,12,-4,1,0,0,rectangle,12,-4,1,0,0,12,-4,1,0,0,1,16,176,119,1,,,,,,,,
,,,,,,,,,,,,,FF,,,,,,,,0.6682,,,,,,,,,,,,,,,,,,,,,,60fcf7e8002c2c1b89b03b30,61036ae3dab58175685386d7,2021-07-30_14h59.48.244,Simcolourproject_2stim_asymm_v5,2020.2.10,Win32,60,61025ae37ef11b136ea224fe,,,,,,,,,568,106,-41,1,0,0,response3disk,,5,8,11,1,0,0,rectangle,8,11,1,0,0,8,11,1,0,0,1,17,177,39,1,,,,,,,,
,,,,,,,,,,,,,FF,,,,,,,,0.7517,,,,,,,,,,,,,,,,,,,,,,60fcf7e8002c2c1b89b03b30,61036ae3dab58175685386d7,2021-07-30_14h59.48.244,Simcolourproject_2stim_asymm_v5,2020.2.10,Win32,60,61025ae37ef11b136ea224fe,,,,,,,,,1326,96,-33,1,0,0,response3disk,,5,-17,7,1,0,0,rectangle,-17,7,1,0,0,-17,7,1,0,0,1,18,178,44,1,,,,,,,,
,,,,,,,,,,,,,FF,,,,,,,,0.6848,,,,,,,,,,,,,,,,,,,,,,60fcf7e8002c2c1b89b03b30,61036ae3dab58175685386d7,2021-07-30_14h59.48.244,Simcolourproject_2stim_asymm_v5,2020.2.10,Win32,60,61025ae37ef11b136ea224fe,,,,,,,,,1391,87,-46,1,0,0,response3disk,,5,12,10,1,0,0,rectangle,12,10,1,0,0,12,10,1,0,0,1,19,179,17,1,,,,,,,,
,,,,,,,,,,,,,FF,,,,,,,,1.721,,,,,,,,,,,,,,,,,,,,,,60fcf7e8002c2c1b89b03b30,61036ae3dab58175685386d7,2021-07-30_14h59.48.244,Simcolourproject_2stim_asymm_v5,2020.2.10,Win32,60,61025ae37ef11b136ea224fe,,,,,,,,,864,73,-78,1,0,0,response3disk,,4,-6,11,1,0,0,rectangle,-6,11,1,0,0,-6,11,1,0,0,1,20,180,154,1,,,,,,,,
,,,,,,,,,,,,,FF,,,,,,,,0.6515,,,,,,,,,,,,,,,,,,,,,,60fcf7e8002c2c1b89b03b30,61036ae3dab58175685386d7,2021-07-30_14h59.48.244,Simcolourproject_2stim_asymm_v5,2020.2.10,Win32,60,61025ae37ef11b136ea224fe,,,,,,,,,1627,53,136,1,0,0,response1disk,,7,16,-2,1,0,0,rectangle,16,-2,1,0,0,16,-2,1,0,0,1,21,181,79,1,,,,,,,,
,,,,,,,,,,,,,FF,,,,,,,,1.1023,,,,,,,,,,,,,,,,,,,,,,60fcf7e8002c2c1b89b03b30,61036ae3dab58175685386d7,2021-07-30_14h59.48.244,Simcolourproject_2stim_asymm_v5,2020.2.10,Win32,60,61025ae37ef11b136ea224fe,,,,,,,,,3918,50,97,1,0,0,response1disk,,7,4,10,1,0,0,rectangle,4,10,1,0,0,4,10,1,0,0,1,22,182,102,1,,,,,,,,
,,,,,,,,,,,,,FF,,,,,,,,1.1696,,,,,,,,,,,,,,,,,,,,,,60fcf7e8002c2c1b89b03b30,61036ae3dab58175685386d7,2021-07-30_14h59.48.244,Simcolourproject_2stim_asymm_v5,2020.2.10,Win32,60,61025ae37ef11b136ea224fe,,,,,,,,,353,-141,-58,1,0,0,response5disk,,2,-40,10,1,0,0,rectangle,-40,10,1,0,0,-40,10,1,0,0,1,23,183,52,1,,,,,,,,
,,,,,,,,,,,,,FF,,,,,,,,1.0522,,,,,,,,,,,,,,,,,,,,,,60fcf7e8002c2c1b89b03b30,61036ae3dab58175685386d7,2021-07-30_14h59.48.244,Simcolourproject_2stim_asymm_v5,2020.2.10,Win32,60,61025ae37ef11b136ea224fe,,,,,,,,,3735,95,-45,1,0,0,response3disk,,5,-9,13,1,0,0,rectangle,-9,13,1,0,0,-9,13,1,0,0,1,24,184,140,1,,,,,,,,
,,,,,,,,,,,,,FF,,,,,,,,0.8852,,,,,,,,,,,,,,,,,,,,,,60fcf7e8002c2c1b89b03b30,61036ae3dab58175685386d7,2021-07-30_14h59.48.244,Simcolourproject_2stim_asymm_v5,2020.2.10,Win32,60,61025ae37ef11b136ea224fe,,,,,,,,,2664,-63,-110,1,0,0,response5disk,,3,-11,21,1,0,0,rectangle,-11,21,1,0,0,-11,21,1,0,0,1,25,185,33,1,,,,,,,,
,,,,,,,,,,,,,FF,,,,,,,,2.7389,,,,,,,,,,,,,,,,,,,,,,60fcf7e8002c2c1b89b03b30,61036ae3dab58175685386d7,2021-07-30_14h59.48.244,Simcolourproject_2stim_asymm_v5,2020.2.10,Win32,60,61025ae37ef11b136ea224fe,,,,,,,,,2657,64,-35,1,0,0,response3disk,,5,3,-7,1,0,0,rectangle,3,-7,1,0,0,3,-7,1,0,0,1,26,186,68,1,,,,,,,,
,,,,,,,,,,,,,FF,,,,,,,,1.9879,,,,,,,,,,,,,,,,,,,,,,60fcf7e8002c2c1b89b03b30,61036ae3dab58175685386d7,2021-07-30_14h59.48.244,Simcolourproject_2stim_asymm_v5,2020.2.10,Win32,60,61025ae37ef11b136ea224fe,,,,,,,,,4117,51,129,1,0,0,response1disk,,7,-11,11,1,0,0,rectangle,-11,11,1,0,0,-11,11,1,0,0,1,27,187,134,1,,,,,,,,
,,,,,,,,,,,,,FF,,,,,,,,2.8399,,,,,,,,,,,,,,,,,,,,,,60fcf7e8002c2c1b89b03b30,61036ae3dab58175685386d7,2021-07-30_14h59.48.244,Simcolourproject_2stim_asymm_v5,2020.2.10,Win32,60,61025ae37ef11b136ea224fe,,,,,,,,,2389,117,-36,1,0,0,response3disk,,5,38,-3,1,0,0,rectangle,38,-3,1,0,0,38,-3,1,0,0,1,28,188,13,1,,,,,,,,
,,,,,,,,,,,,,FF,,,,,,,,1.4201,,,,,,,,,,,,,,,,,,,,,,60fcf7e8002c2c1b89b03b30,61036ae3dab58175685386d7,2021-07-30_14h59.48.244,Simcolourproject_2stim_asymm_v5,2020.2.10,Win32,60,61025ae37ef11b136ea224fe,,,,,,,,,569,103,-45,1,0,0,response3disk,,5,11,-1,1,0,0,rectangle,11,-1,1,0,0,11,-1,1,0,0,1,29,189,69,1,,,,,,,,
,,,,,,,,,,,,,FF,,,,,,,,0.6688,,,,,,,,,,,,,,,,,,,,,,60fcf7e8002c2c1b89b03b30,61036ae3dab58175685386d7,2021-07-30_14h59.48.244,Simcolourproject_2stim_asymm_v5,2020.2.10,Win32,60,61025ae37ef11b136ea224fe,,,,,,,,,3809,60,112,1,0,0,response1disk,,7,-1,-2,1,0,0,rectangle,-1,-2,1,0,0,-1,-2,1,0,0,1,30,190,22,1,,,,,,,,
,,,,,,,,,,,,,FF,,,,,,,,1.0692,,,,,,,,,,,,,,,,,,,,,,60fcf7e8002c2c1b89b03b30,61036ae3dab58175685386d7,2021-07-30_14h59.48.244,Simcolourproject_2stim_asymm_v5,2020.2.10,Win32,60,61025ae37ef11b136ea224fe,,,,,,,,,4274,-71,-112,1,0,0,response5disk,,3,8,1,1,0,0,rectangle,8,1,1,0,0,8,1,1,0,0,1,31,191,67,1,,,,,,,,
,,,,,,,,,,,,,FF,,,,,,,,0.7682,,,,,,,,,,,,,,,,,,,,,,60fcf7e8002c2c1b89b03b30,61036ae3dab58175685386d7,2021-07-30_14h59.48.244,Simcolourproject_2stim_asymm_v5,2020.2.10,Win32,60,61025ae37ef11b136ea224fe,,,,,,,,,2428,94,49,1,0,0,response1disk,,6,8,-5,1,0,0,rectangle,8,-5,1,0,0,8,-5,1,0,0,1,32,192,147,1,,,,,,,,
,,,,,,,,,,,,,FF,,,,,,,,0.8186,,,,,,,,,,,,,,,,,,,,,,60fcf7e8002c2c1b89b03b30,61036ae3dab58175685386d7,2021-07-30_14h59.48.244,Simcolourproject_2stim_asymm_v5,2020.2.10,Win32,60,61025ae37ef11b136ea224fe,,,,,,,,,3570,116,-57,1,0,0,response3disk,,5,26,-12,1,0,0,rectangle,26,-12,1,0,0,26,-12,1,0,0,1,33,193,149,1,,,,,,,,
,,,,,,,,,,,,,FF,,,,,,,,1.4867,,,,,,,,,,,,,,,,,,,,,,60fcf7e8002c2c1b89b03b30,61036ae3dab58175685386d7,2021-07-30_14h59.48.244,Simcolourproject_2stim_asymm_v5,2020.2.10,Win32,60,61025ae37ef11b136ea224fe,,,,,,,,,2843,117,74,1,0,0,response1disk,,6,8,20,1,0,0,rectangle,8,20,1,0,0,8,20,1,0,0,1,34,194,48,1,,,,,,,,
,,,,,,,,,,,,,FF,,,,,,,,1.3195,,,,,,,,,,,,,,,,,,,,,,60fcf7e8002c2c1b89b03b30,61036ae3dab58175685386d7,2021-07-30_14h59.48.244,Simcolourproject_2stim_asymm_v5,2020.2.10,Win32,60,61025ae37ef11b136ea224fe,,,,,,,,,2001,106,-52,1,0,0,response3disk,,5,-12,6,1,0,0,rectangle,-12,6,1,0,0,-12,6,1,0,0,1,35,195,122,1,,,,,,,,
,,,,,,,,,,,,,FF,,,,,,,,1.4192,,,,,,,,,,,,,,,,,,,,,,60fcf7e8002c2c1b89b03b30,61036ae3dab58175685386d7,2021-07-30_14h59.48.244,Simcolourproject_2stim_asymm_v5,2020.2.10,Win32,60,61025ae37ef11b136ea224fe,,,,,,,,,2223,100,44,1,0,0,response1disk,,6,2,-3,1,0,0,rectangle,2,-3,1,0,0,2,-3,1,0,0,1,36,196,34,1,,,,,,,,
,,,,,,,,,,,,,FF,,,,,,,,1.153,,,,,,,,,,,,,,,,,,,,,,60fcf7e8002c2c1b89b03b30,61036ae3dab58175685386d7,2021-07-30_14h59.48.244,Simcolourproject_2stim_asymm_v5,2020.2.10,Win32,60,61025ae37ef11b136ea224fe,,,,,,,,,4051,160,72,1,0,0,response1disk,,6,-6,-9,1,0,0,rectangle,-6,-9,1,0,0,-6,-9,1,0,0,1,37,197,74,1,,,,,,,,
,,,,,,,,,,,,,FF,,,,,,,,1.9209,,,,,,,,,,,,,,,,,,,,,,60fcf7e8002c2c1b89b03b30,61036ae3dab58175685386d7,2021-07-30_14h59.48.244,Simcolourproject_2stim_asymm_v5,2020.2.10,Win32,60,61025ae37ef11b136ea224fe,,,,,,,,,4039,118,-52,1,0,0,response3disk,,5,10,6,1,0,0,rectangle,54,105,1,0,0,15,3,1,0,0,1,38,198,129,1,,response1disk_3,TRUE,7,7,"[233,114,112,25,224,85,162,204,199,33,75,71,6,20,290,95,274,111,160,285]",1.286,rectangle
,,,,,,,,,,,,,FF,,,,,,,,0.9358,,,,,,,,,,,,,,,,,,,,,,60fcf7e8002c2c1b89b03b30,61036ae3dab58175685386d7,2021-07-30_14h59.48.244,Simcolourproject_2stim_asymm_v5,2020.2.10,Win32,60,61025ae37ef11b136ea224fe,,,,,,,,,3663,70,-32,1,0,0,response3disk,,5,-18,2,1,0,0,rectangle,-18,2,1,0,0,-18,2,1,0,0,1,39,199,78,1,,,,,,,,
,,,,,,,,,,,,,FF,,,,,,,,1.0191,,,,,,,,,,,,,,,,,,,,,,60fcf7e8002c2c1b89b03b30,61036ae3dab58175685386d7,2021-07-30_14h59.48.244,Simcolourproject_2stim_asymm_v5,2020.2.10,Win32,60,61025ae37ef11b136ea224fe,,,,,,,,,134,94,-44,1,0,0,response3disk,,5,2,3,1,0,0,rectangle,2,3,1,0,0,2,3,1,0,0,1,40,200,35,1,,,,,,,,
,,,,,,,,,,,,,FF,,,,,,,,0.9349,,,,,,,,,,,,,,,,,,,,,,60fcf7e8002c2c1b89b03b30,61036ae3dab58175685386d7,2021-07-30_14h59.48.244,Simcolourproject_2stim_asymm_v5,2020.2.10,Win32,60,61025ae37ef11b136ea224fe,,,,,,,,,2627,108,49,1,0,0,response1disk,,6,3,-2,1,0,0,rectangle,3,-2,1,0,0,3,-2,1,0,0,1,41,201,143,1,,,,,,,,
,,,,,,,,,,,,,FF,,,,,,,,0.8682,,,,,,,,,,,,,,,,,,,,,,60fcf7e8002c2c1b89b03b30,61036ae3dab58175685386d7,2021-07-30_14h59.48.244,Simcolourproject_2stim_asymm_v5,2020.2.10,Win32,60,61025ae37ef11b136ea224fe,,,,,,,,,1092,114,57,1,0,0,response1disk,,6,22,9,1,0,0,rectangle,22,9,1,0,0,22,9,1,0,0,1,42,202,16,1,,,,,,,,
,,,,,,,,,,,,,FF,,,,,,,,0.885,,,,,,,,,,,,,,,,,,,,,,60fcf7e8002c2c1b89b03b30,61036ae3dab58175685386d7,2021-07-30_14h59.48.244,Simcolourproject_2stim_asymm_v5,2020.2.10,Win32,60,61025ae37ef11b136ea224fe,,,,,,,,,4038,93,67,1,0,0,response1disk,,6,-1,-4,1,0,0,rectangle,-58,117,1,0,0,16,2,1,0,0,1,43,203,15,1,,response7disk_3,TRUE,0,0,"[233,114,112,25,224,85,162,204,199,33,75,71,6,20,290,95,274,111,160,285]",1.3699,rectangle
,,,,,,,,,,,,,FF,,,,,,,,1.0025,,,,,,,,,,,,,,,,,,,,,,60fcf7e8002c2c1b89b03b30,61036ae3dab58175685386d7,2021-07-30_14h59.48.244,Simcolourproject_2stim_asymm_v5,2020.2.10,Win32,60,61025ae37ef11b136ea224fe,,,,,,,,,3956,36,99,1,0,0,response1disk,,7,3,3,1,0,0,rectangle,3,3,1,0,0,3,3,1,0,0,1,44,204,133,1,,,,,,,,
,,,,,,,,,,,,,FF,,,,,,,,0.9022,,,,,,,,,,,,,,,,,,,,,,60fcf7e8002c2c1b89b03b30,61036ae3dab58175685386d7,2021-07-30_14h59.48.244,Simcolourproject_2stim_asymm_v5,2020.2.10,Win32,60,61025ae37ef11b136ea224fe,,,,,,,,,3217,107,59,1,0,0,response1disk,,6,4,-15,1,0,0,rectangle,4,-15,1,0,0,4,-15,1,0,0,1,45,205,146,1,,,,,,,,
,,,,,,,,,,,,,FF,,,,,,,,0.7519,,,,,,,,,,,,,,,,,,,,,,60fcf7e8002c2c1b89b03b30,61036ae3dab58175685386d7,2021-07-30_14h59.48.244,Simcolourproject_2stim_asymm_v5,2020.2.10,Win32,60,61025ae37ef11b136ea224fe,,,,,,,,,366,-134,57,1,0,0,response7disk,,1,-18,-3,1,0,0,rectangle,-18,-3,1,0,0,-18,-3,1,0,0,1,46,206,130,1,,,,,,,,
,,,,,,,,,,,,,FF,,,,,,,,0.7514,,,,,,,,,,,,,,,,,,,,,,60fcf7e8002c2c1b89b03b30,61036ae3dab58175685386d7,2021-07-30_14h59.48.244,Simcolourproject_2stim_asymm_v5,2020.2.10,Win32,60,61025ae37ef11b136ea224fe,,,,,,,,,1836,64,-108,1,0,0,response3disk,,4,5,5,1,0,0,rectangle,5,5,1,0,0,5,5,1,0,0,1,47,207,151,1,,,,,,,,
,,,,,,,,,,,,,FF,,,,,,,,0.6509,,,,,,,,,,,,,,,,,,,,,,60fcf7e8002c2c1b89b03b30,61036ae3dab58175685386d7,2021-07-30_14h59.48.244,Simcolourproject_2stim_asymm_v5,2020.2.10,Win32,60,61025ae37ef11b136ea224fe,,,,,,,,,3490,52,-81,1,0,0,response3disk,,4,8,12,1,0,0,rectangle,8,12,1,0,0,8,12,1,0,0,1,48,208,138,1,,,,,,,,
,,,,,,,,,,,,,FF,,,,,,,,2.1543,,,,,,,,,,,,,,,,,,,,,,60fcf7e8002c2c1b89b03b30,61036ae3dab58175685386d7,2021-07-30_14h59.48.244,Simcolourproject_2stim_asymm_v5,2020.2.10,Win32,60,61025ae37ef11b136ea224fe,,,,,,,,,3428,103,-44,1,0,0,response3disk,,5,14,3,1,0,0,rectangle,14,3,1,0,0,14,3,1,0,0,1,49,209,145,1,,,,,,,,
,,,,,,,,,,,,,FF,,,,,,,,1.687,,,,,,,,,,,,,,,,,,,,,,60fcf7e8002c2c1b89b03b30,61036ae3dab58175685386d7,2021-07-30_14h59.48.244,Simcolourproject_2stim_asymm_v5,2020.2.10,Win32,60,61025ae37ef11b136ea224fe,,,,,,,,,1416,80,-25,1,0,0,response3disk,,5,5,17,1,0,0,rectangle,5,17,1,0,0,5,17,1,0,0,1,50,210,155,1,,,,,,,,
,,,,,,,,,,,,,FF,,,,,,,,0.5683,,,,,,,,,,,,,,,,,,,,,,60fcf7e8002c2c1b89b03b30,61036ae3dab58175685386d7,2021-07-30_14h59.48.244,Simcolourproject_2stim_asymm_v5,2020.2.10,Win32,60,61025ae37ef11b136ea224fe,,,,,,,,,2567,55,133,1,0,0,response1disk,,7,8,5,1,0,0,rectangle,8,5,1,0,0,8,5,1,0,0,1,51,211,28,1,,,,,,,,
,,,,,,,,,,,,,FF,,,,,,,,0.7349,,,,,,,,,,,,,,,,,,,,,,60fcf7e8002c2c1b89b03b30,61036ae3dab58175685386d7,2021-07-30_14h59.48.244,Simcolourproject_2stim_asymm_v5,2020.2.10,Win32,60,61025ae37ef11b136ea224fe,,,,,,,,,3013,45,127,1,0,0,response1disk,,7,-1,5,1,0,0,rectangle,-1,5,1,0,0,-1,5,1,0,0,1,52,212,98,1,,,,,,,,
,,,,,,,,,,,,,FF,,,,,,,,0.8514,,,,,,,,,,,,,,,,,,,,,,60fcf7e8002c2c1b89b03b30,61036ae3dab58175685386d7,2021-07-30_14h59.48.244,Simcolourproject_2stim_asymm_v5,2020.2.10,Win32,60,61025ae37ef11b136ea224fe,,,,,,,,,1237,114,-44,1,0,0,response3disk,,5,6,-8,1,0,0,rectangle,6,-8,1,0,0,6,-8,1,0,0,1,53,213,7,1,,,,,,,,
,,,,,,,,,,,,,FF,,,,,,,,1.086,,,,,,,,,,,,,,,,,,,,,,60fcf7e8002c2c1b89b03b30,61036ae3dab58175685386d7,2021-07-30_14h59.48.244,Simcolourproject_2stim_asymm_v5,2020.2.10,Win32,60,61025ae37ef11b136ea224fe,,,,,,,,,2097,-68,-93,1,0,0,response5disk,,3,-19,-7,1,0,0,rectangle,-19,-7,1,0,0,-19,-7,1,0,0,1,54,214,51,1,,,,,,,,
,,,,,,,,,,,,,FF,,,,,,,,0.7517,,,,,,,,,,,,,,,,,,,,,,60fcf7e8002c2c1b89b03b30,61036ae3dab58175685386d7,2021-07-30_14h59.48.244,Simcolourproject_2stim_asymm_v5,2020.2.10,Win32,60,61025ae37ef11b136ea224fe,,,,,,,,,589,106,-31,1,0,0,response3disk,,5,-15,6,1,0,0,rectangle,-15,6,1,0,0,-15,6,1,0,0,1,55,215,49,1,,,,,,,,
,,,,,,,,,,,,,FF,,,,,,,,0.8183,,,,,,,,,,,,,,,,,,,,,,60fcf7e8002c2c1b89b03b30,61036ae3dab58175685386d7,2021-07-30_14h59.48.244,Simcolourproject_2stim_asymm_v5,2020.2.10,Win32,60,61025ae37ef11b136ea224fe,,,,,,,,,3926,102,96,1,0,0,response1disk,,6,7,5,1,0,0,rectangle,7,5,1,0,0,7,5,1,0,0,1,56,216,103,1,,,,,,,,
,,,,,,,,,,,,,FF,,,,,,,,1.4358,,,,,,,,,,,,,,,,,,,,,,60fcf7e8002c2c1b89b03b30,61036ae3dab58175685386d7,2021-07-30_14h59.48.244,Simcolourproject_2stim_asymm_v5,2020.2.10,Win32,60,61025ae37ef11b136ea224fe,,,,,,,,,3558,-75,-107,1,0,0,response5disk,,3,-6,-1,1,0,0,rectangle,-6,-1,1,0,0,-6,-1,1,0,0,1,57,217,135,1,,,,,,,,
,,,,,,,,,,,,,FF,,,,,,,,0.835,,,,,,,,,,,,,,,,,,,,,,60fcf7e8002c2c1b89b03b30,61036ae3dab58175685386d7,2021-07-30_14h59.48.244,Simcolourproject_2stim_asymm_v5,2020.2.10,Win32,60,61025ae37ef11b136ea224fe,,,,,,,,,610,61,104,1,0,0,response1disk,,7,-2,-17,1,0,0,rectangle,-2,-17,1,0,0,-2,-17,1,0,0,1,58,218,41,1,,,,,,,,
,,,,,,,,,,,,,FF,,,,,,,,0.5511,,,,,,,,,,,,,,,,,,,,,,60fcf7e8002c2c1b89b03b30,61036ae3dab58175685386d7,2021-07-30_14h59.48.244,Simcolourproject_2stim_asymm_v5,2020.2.10,Win32,60,61025ae37ef11b136ea224fe,,,,,,,,,3145,31,91,1,0,0,response1disk,,7,-4,2,1,0,0,rectangle,-4,2,1,0,0,-4,2,1,0,0,1,59,219,131,1,,,,,,,,
,,,,,,,,,,,,,FF,,,,,,,,0.7685,,,,,,,,,,,,,,,,,,,,,,60fcf7e8002c2c1b89b03b30,61036ae3dab58175685386d7,2021-07-30_14h59.48.244,Simcolourproject_2stim_asymm_v5,2020.2.10,Win32,60,61025ae37ef11b136ea224fe,,,,,,,,,3651,110,-81,1,0,0,response3disk,,5,-21,-21,1,0,0,rectangle,-21,-21,1,0,0,-21,-21,1,0,0,1,60,220,113,1,,,,,,,,
,,,,,,,,,,,,,FF,,,,,,,,0.5841,,,,,,,,,,,,,,,,,,,,,,60fcf7e8002c2c1b89b03b30,61036ae3dab58175685386d7,2021-07-30_14h59.48.244,Simcolourproject_2stim_asymm_v5,2020.2.10,Win32,60,61025ae37ef11b136ea224fe,,,,,,,,,770,90,46,1,0,0,response1disk,,6,16,0,1,0,0,rectangle,16,0,1,0,0,16,0,1,0,0,1,61,221,59,1,,,,,,,,
,,,,,,,,,,,,,FF,,,,,,,,1.4698,,,,,,,,,,,,,,,,,,,,,,60fcf7e8002c2c1b89b03b30,61036ae3dab58175685386d7,2021-07-30_14h59.48.244,Simcolourproject_2stim_asymm_v5,2020.2.10,Win32,60,61025ae37ef11b136ea224fe,,,,,,,,,863,89,25,1,0,0,response1disk,,6,-22,-12,1,0,0,rectangle,-22,-12,1,0,0,-22,-12,1,0,0,1,62,222,29,1,,,,,,,,
,,,,,,,,,,,,,FF,,,,,,,,0.8536,,,,,,,,,,,,,,,,,,,,,,60fcf7e8002c2c1b89b03b30,61036ae3dab58175685386d7,2021-07-30_14h59.48.244,Simcolourproject_2stim_asymm_v5,2020.2.10,Win32,60,61025ae37ef11b136ea224fe,,,,,,,,,1328,146,-45,1,0,0,response3disk,,5,26,-2,1,0,0,rectangle,78,-125,1,0,0,-12,2,1,0,0,1,63,223,25,1,,response3disk_3,TRUE,4,4,"[233,114,112,25,224,85,162,204,199,33,75,71,6,20,290,95,274,111,160,285]",1.1021,rectangle
,,,,,,,,,,,,,FF,,,,,,,,2.3217,,,,,,,,,,,,,,,,,,,,,,60fcf7e8002c2c1b89b03b30,61036ae3dab58175685386d7,2021-07-30_14h59.48.244,Simcolourproject_2stim_asymm_v5,2020.2.10,Win32,60,61025ae37ef11b136ea224fe,,,,,,,,,4105,105,74,1,0,0,response1disk,,6,21,6,1,0,0,rectangle,21,6,1,0,0,21,6,1,0,0,1,64,224,101,1,,,,,,,,
,,,,,,,,,,,,,FF,,,,,,,,0.6851,,,,,,,,,,,,,,,,,,,,,,60fcf7e8002c2c1b89b03b30,61036ae3dab58175685386d7,2021-07-30_14h59.48.244,Simcolourproject_2stim_asymm_v5,2020.2.10,Win32,60,61025ae37ef11b136ea224fe,,,,,,,,,2260,128,-69,1,0,0,response3disk,,5,-11,0,1,0,0,rectangle,-11,0,1,0,0,-11,0,1,0,0,1,65,225,114,1,,,,,,,,
,,,,,,,,,,,,,FF,,,,,,,,0.501,,,,,,,,,,,,,,,,,,,,,,60fcf7e8002c2c1b89b03b30,61036ae3dab58175685386d7,2021-07-30_14h59.48.244,Simcolourproject_2stim_asymm_v5,2020.2.10,Win32,60,61025ae37ef11b136ea224fe,,,,,,,,,3596,73,45,1,0,0,response1disk,,6,1,-8,1,0,0,rectangle,1,-8,1,0,0,1,-8,1,0,0,1,66,226,108,1,,,,,,,,
,,,,,,,,,,,,,FF,,,,,,,,0.5177,,,,,,,,,,,,,,,,,,,,,,60fcf7e8002c2c1b89b03b30,61036ae3dab58175685386d7,2021-07-30_14h59.48.244,Simcolourproject_2stim_asymm_v5,2020.2.10,Win32,60,61025ae37ef11b136ea224fe,,,,,,,,,1926,71,38,1,0,0,response1disk,,6,20,3,1,0,0,rectangle,20,3,1,0,0,20,3,1,0,0,1,67,227,9,1,,,,,,,,
,,,,,,,,,,,,,FF,,,,,,,,0.6848,,,,,,,,,,,,,,,,,,,,,,60fcf7e8002c2c1b89b03b30,61036ae3dab58175685386d7,2021-07-30_14h59.48.244,Simcolourproject_2stim_asymm_v5,2020.2.10,Win32,60,61025ae37ef11b136ea224fe,,,,,,,,,127,102,-51,1,0,0,response3disk,,5,-17,4,1,0,0,rectangle,-17,4,1,0,0,-17,4,1,0,0,1,68,228,116,1,,,,,,,,
,,,,,,,,,,,,,FF,,,,,,,,0.7849,,,,,,,,,,,,,,,,,,,,,,60fcf7e8002c2c1b89b03b30,61036ae3dab58175685386d7,2021-07-30_14h59.48.244,Simcolourproject_2stim_asymm_v5,2020.2.10,Win32,60,61025ae37ef11b136ea224fe,,,,,,,,,2438,89,48,1,0,0,response1disk,,6,8,4,1,0,0,rectangle,8,4,1,0,0,8,4,1,0,0,1,69,229,137,1,,,,,,,,
,,,,,,,,,,,,,FF,,,,,,,,0.7854,,,,,,,,,,,,,,,,,,,,,,60fcf7e8002c2c1b89b03b30,61036ae3dab58175685386d7,2021-07-30_14h59.48.244,Simcolourproject_2stim_asymm_v5,2020.2.10,Win32,60,61025ae37ef11b136ea224fe,,,,,,,,,1104,35,113,1,0,0,response1disk,,7,-30,-17,1,0,0,rectangle,-30,-17,1,0,0,-30,-17,1,0,0,1,70,230,5,1,,,,,,,,
,,,,,,,,,,,,,FF,,,,,,,,0.5679,,,,,,,,,,,,,,,,,,,,,,60fcf7e8002c2c1b89b03b30,61036ae3dab58175685386d7,2021-07-30_14h59.48.244,Simcolourproject_2stim_asymm_v5,2020.2.10,Win32,60,61025ae37ef11b136ea224fe,,,,,,,,,1856,141,70,1,0,0,response1disk,,6,16,10,1,0,0,rectangle,16,10,1,0,0,16,10,1,0,0,1,71,231,112,1,,,,,,,,
,,,,,,,,,,,,,FF,,,,,,,,1.3197,,,,,,,,,,,,,,,,,,,,,,60fcf7e8002c2c1b89b03b30,61036ae3dab58175685386d7,2021-07-30_14h59.48.244,Simcolourproject_2stim_asymm_v5,2020.2.10,Win32,60,61025ae37ef11b136ea224fe,,,,,,,,,2787,40,-126,1,0,0,response3disk,,4,-15,10,1,0,0,rectangle,-114,71,1,0,0,17,-7,1,0,0,1,72,232,76,1,,response7disk_3,TRUE,1,1,"[233,114,112,25,224,85,162,204,199,33,75,71,6,20,290,95,274,111,160,285]",1.2523,rectangle
,,,,,,,,,,,,,FF,,,,,,,,0.7516,,,,,,,,,,,,,,,,,,,,,,60fcf7e8002c2c1b89b03b30,61036ae3dab58175685386d7,2021-07-30_14h59.48.244,Simcolourproject_2stim_asymm_v5,2020.2.10,Win32,60,61025ae37ef11b136ea224fe,,,,,,,,,1979,88,55,1,0,0,response1disk,,6,27,10,1,0,0,rectangle,27,10,1,0,0,27,10,1,0,0,1,73,233,0,1,,,,,,,,
,,,,,,,,,,,,,FF,,,,,,,,0.6515,,,,,,,,,,,,,,,,,,,,,,60fcf7e8002c2c1b89b03b30,61036ae3dab58175685386d7,2021-07-30_14h59.48.244,Simcolourproject_2stim_asymm_v5,2020.2.10,Win32,60,61025ae37ef11b136ea224fe,,,,,,,,,145,99,41,1,0,0,response1disk,,6,24,14,1,0,0,rectangle,24,14,1,0,0,24,14,1,0,0,1,74,234,71,1,,,,,,,,
,,,,,,,,,,,,,FF,,,,,,,,0.5344,,,,,,,,,,,,,,,,,,,,,,60fcf7e8002c2c1b89b03b30,61036ae3dab58175685386d7,2021-07-30_14h59.48.244,Simcolourproject_2stim_asymm_v5,2020.2.10,Win32,60,61025ae37ef11b136ea224fe,,,,,,,,,1838,94,-53,1,0,0,response3disk,,5,-15,-8,1,0,0,rectangle,-15,-8,1,0,0,-15,-8,1,0,0,1,75,235,73,1,,,,,,,,
,,,,,,,,,,,,,FF,,,,,,,,1.2858,,,,,,,,,,,,,,,,,,,,,,60fcf7e8002c2c1b89b03b30,61036ae3dab58175685386d7,2021-07-30_14h59.48.244,Simcolourproject_2stim_asymm_v5,2020.2.10,Win32,60,61025ae37ef11b136ea224fe,,,,,,,,,4328,80,45,1,0,0,response1disk,,6,-2,-1,1,0,0,rectangle,-2,-1,1,0,0,-2,-1,1,0,0,1,76,236,40,1,,,,,,,,
,,,,,,,,,,,,,FF,,,,,,,,0.8177,,,,,,,,,,,,,,,,,,,,,,60fcf7e8002c2c1b89b03b30,61036ae3dab58175685386d7,2021-07-30_14h59.48.244,Simcolourproject_2stim_asymm_v5,2020.2.10,Win32,60,61025ae37ef11b136ea224fe,,,,,,,,,189,86,-42,1,0,0,response3disk,,5,-15,9,1,0,0,rectangle,-15,9,1,0,0,-15,9,1,0,0,1,77,237,91,1,,,,,,,,
,,,,,,,,,,,,,FF,,,,,,,,0.6517,,,,,,,,,,,,,,,,,,,,,,60fcf7e8002c2c1b89b03b30,61036ae3dab58175685386d7,2021-07-30_14h59.48.244,Simcolourproject_2stim_asymm_v5,2020.2.10,Win32,60,61025ae37ef11b136ea224fe,,,,,,,,,2698,51,101,1,0,0,response1disk,,7,18,4,1,0,0,rectangle,18,4,1,0,0,18,4,1,0,0,1,78,238,70,1,,,,,,,,
,,,,,,,,,,,,,FF,,,,,,,,0.5337,,,,,,,,,,,,,,,,,,,,,,60fcf7e8002c2c1b89b03b30,61036ae3dab58175685386d7,2021-07-30_14h59.48.244,Simcolourproject_2stim_asymm_v5,2020.2.10,Win32,60,61025ae37ef11b136ea224fe,,,,,,,,,100,77,40,1,0,0,response1disk,,6,1,-1,1,0,0,rectangle,1,-1,1,0,0,1,-1,1,0,0,1,79,239,31,1,,,,,,,,
,,,,,,,,,,,,,FF,,,,,,,,0.5681,,,,,,,,,,,,,,,,,,,,,,60fcf7e8002c2c1b89b03b30,61036ae3dab58175685386d7,2021-07-30_14h59.48.244,Simcolourproject_2stim_asymm_v5,2020.2.10,Win32,60,61025ae37ef11b136ea224fe,,,,,,,,,587,69,113,1,0,0,response1disk,,7,16,13,1,0,0,rectangle,16,13,1,0,0,16,13,1,0,0,1,80,240,128,1,,,,,,,,
,,,,,,,,,,,,,FF,,,,,,,,0.5675,,,,,,,,,,,,,,,,,,,,,,60fcf7e8002c2c1b89b03b30,61036ae3dab58175685386d7,2021-07-30_14h59.48.244,Simcolourproject_2stim_asymm_v5,2020.2.10,Win32,60,61025ae37ef11b136ea224fe,,,,,,,,,2064,78,38,1,0,0,response1disk,,6,7,-8,1,0,0,rectangle,7,-8,1,0,0,7,-8,1,0,0,1,81,241,57,1,,,,,,,,
,,,,,,,,,,,,,FF,,,,,,,,0.4678,,,,,,,,,,,,,,,,,,,,,,60fcf7e8002c2c1b89b03b30,61036ae3dab58175685386d7,2021-07-30_14h59.48.244,Simcolourproject_2stim_asymm_v5,2020.2.10,Win32,60,61025ae37ef11b136ea224fe,,,,,,,,,3629,113,-47,1,0,0,response3disk,,5,-3,-15,1,0,0,rectangle,-3,-15,1,0,0,-3,-15,1,0,0,1,82,242,63,1,,,,,,,,
,,,,,,,,,,,,,FF,,,,,,,,0.5511,,,,,,,,,,,,,,,,,,,,,,60fcf7e8002c2c1b89b03b30,61036ae3dab58175685386d7,2021-07-30_14h59.48.244,Simcolourproject_2stim_asymm_v5,2020.2.10,Win32,60,61025ae37ef11b136ea224fe,,,,,,,,,2123,61,103,1,0,0,response1disk,,7,5,-9,1,0,0,rectangle,5,-9,1,0,0,5,-9,1,0,0,1,83,243,152,1,,,,,,,,
,,,,,,,,,,,,,FF,,,,,,,,1.2027,,,,,,,,,,,,,,,,,,,,,,60fcf7e8002c2c1b89b03b30,61036ae3dab58175685386d7,2021-07-30_14h59.48.244,Simcolourproject_2stim_asymm_v5,2020.2.10,Win32,60,61025ae37ef11b136ea224fe,,,,,,,,,2812,43,-107,1,0,0,response3disk,,4,-16,14,1,0,0,rectangle,-16,14,1,0,0,-16,14,1,0,0,1,84,244,45,1,,,,,,,,
,,,,,,,,,,,,,FF,,,,,,,,0.7347,,,,,,,,,,,,,,,,,,,,,,60fcf7e8002c2c1b89b03b30,61036ae3dab58175685386d7,2021-07-30_14h59.48.244,Simcolourproject_2stim_asymm_v5,2020.2.10,Win32,60,61025ae37ef11b136ea224fe,,,,,,,,,2186,113,47,1,0,0,response1disk,,6,-14,4,1,0,0,rectangle,-14,4,1,0,0,-14,4,1,0,0,1,85,245,87,1,,,,,,,,
,,,,,,,,,,,,,FF,,,,,,,,2.489,,,,,,,,,,,,,,,,,,,,,,60fcf7e8002c2c1b89b03b30,61036ae3dab58175685386d7,2021-07-30_14h59.48.244,Simcolourproject_2stim_asymm_v5,2020.2.10,Win32,60,61025ae37ef11b136ea224fe,,,,,,,,,2241,-81,-105,1,0,0,response5disk,,3,-7,14,1,0,0,rectangle,-7,14,1,0,0,-7,14,1,0,0,1,86,246,83,1,,,,,,,,
,,,,,,,,,,,,,FF,,,,,,,,1.2866,,,,,,,,,,,,,,,,,,,,,,60fcf7e8002c2c1b89b03b30,61036ae3dab58175685386d7,2021-07-30_14h59.48.244,Simcolourproject_2stim_asymm_v5,2020.2.10,Win32,60,61025ae37ef11b136ea224fe,,,,,,,,,461,66,-21,1,0,0,response3disk,,5,9,-2,1,0,0,rectangle,9,-2,1,0,0,9,-2,1,0,0,1,87,247,144,1,,,,,,,,
,,,,,,,,,,,,,FF,,,,,,,,0.835,,,,,,,,,,,,,,,,,,,,,,60fcf7e8002c2c1b89b03b30,61036ae3dab58175685386d7,2021-07-30_14h59.48.244,Simcolourproject_2stim_asymm_v5,2020.2.10,Win32,60,61025ae37ef11b136ea224fe,,,,,,,,,3911,71,104,1,0,0,response1disk,,7,24,6,1,0,0,rectangle,24,6,1,0,0,24,6,1,0,0,1,88,248,66,1,,,,,,,,
,,,,,,,,,,,,,FF,,,,,,,,0.5509,,,,,,,,,,,,,,,,,,,,,,60fcf7e8002c2c1b89b03b30,61036ae3dab58175685386d7,2021-07-30_14h59.48.244,Simcolourproject_2stim_asymm_v5,2020.2.10,Win32,60,61025ae37ef11b136ea224fe,,,,,,,,,412,94,102,1,0,0,response1disk,,7,25,-4,1,0,0,rectangle,25,-4,1,0,0,25,-4,1,0,0,1,89,249,118,1,,,,,,,,
,,,,,,,,,,,,,FF,,,,,,,,0.5177,,,,,,,,,,,,,,,,,,,,,,60fcf7e8002c2c1b89b03b30,61036ae3dab58175685386d7,2021-07-30_14h59.48.244,Simcolourproject_2stim_asymm_v5,2020.2.10,Win32,60,61025ae37ef11b136ea224fe,,,,,,,,,1820,157,63,1,0,0,response1disk,,6,44,17,1,0,0,rectangle,44,17,1,0,0,44,17,1,0,0,1,90,250,10,1,,,,,,,,
,,,,,,,,,,,,,FF,,,,,,,,0.4341,,,,,,,,,,,,,,,,,,,,,,60fcf7e8002c2c1b89b03b30,61036ae3dab58175685386d7,2021-07-30_14h59.48.244,Simcolourproject_2stim_asymm_v5,2020.2.10,Win32,60,61025ae37ef11b136ea224fe,,,,,,,,,1756,100,47,1,0,0,response1disk,,6,1,2,1,0,0,rectangle,1,2,1,0,0,1,2,1,0,0,1,91,251,100,1,,,,,,,,
,,,,,,,,,,,,,FF,,,,,,,,0.6849,,,,,,,,,,,,,,,,,,,,,,60fcf7e8002c2c1b89b03b30,61036ae3dab58175685386d7,2021-07-30_14h59.48.244,Simcolourproject_2stim_asymm_v5,2020.2.10,Win32,60,61025ae37ef11b136ea224fe,,,,,,,,,1865,69,50,1,0,0,response1disk,,6,-47,-10,1,0,0,rectangle,-47,-10,1,0,0,-47,-10,1,0,0,1,92,252,3,1,,,,,,,,
,,,,,,,,,,,,,FF,,,,,,,,0.6009,,,,,,,,,,,,,,,,,,,,,,60fcf7e8002c2c1b89b03b30,61036ae3dab58175685386d7,2021-07-30_14h59.48.244,Simcolourproject_2stim_asymm_v5,2020.2.10,Win32,60,61025ae37ef11b136ea224fe,,,,,,,,,913,95,49,1,0,0,response1disk,,6,-1,13,1,0,0,rectangle,-1,13,1,0,0,-1,13,1,0,0,1,93,253,85,1,,,,,,,,
,,,,,,,,,,,,,FF,,,,,,,,1.5533,,,,,,,,,,,,,,,,,,,,,,60fcf7e8002c2c1b89b03b30,61036ae3dab58175685386d7,2021-07-30_14h59.48.244,Simcolourproject_2stim_asymm_v5,2020.2.10,Win32,60,61025ae37ef11b136ea224fe,,,,,,,,,3372,80,105,1,0,0,response1disk,,7,15,9,1,0,0,rectangle,15,9,1,0,0,15,9,1,0,0,1,94,254,75,1,,,,,,,,
,,,,,,,,,,,,,FF,,,,,,,,0.7684,,,,,,,,,,,,,,,,,,,,,,60fcf7e8002c2c1b89b03b30,61036ae3dab58175685386d7,2021-07-30_14h59.48.244,Simcolourproject_2stim_asymm_v5,2020.2.10,Win32,60,61025ae37ef11b136ea224fe,,,,,,,,,3171,109,-54,1,0,0,response3disk,,5,9,-9,1,0,0,rectangle,9,-9,1,0,0,9,-9,1,0,0,1,95,255,157,1,,,,,,,,
,,,,,,,,,,,,,FF,,,,,,,,0.5345,,,,,,,,,,,,,,,,,,,,,,60fcf7e8002c2c1b89b03b30,61036ae3dab58175685386d7,2021-07-30_14h59.48.244,Simcolourproject_2stim_asymm_v5,2020.2.10,Win32,60,61025ae37ef11b136ea224fe,,,,,,,,,1542,73,-48,1,0,0,response3disk,,5,-12,10,1,0,0,rectangle,-12,10,1,0,0,-12,10,1,0,0,1,96,256,95,1,,,,,,,,
,,,,,,,,,,,,,FF,,,,,,,,0.7347,,,,,,,,,,,,,,,,,,,,,,60fcf7e8002c2c1b89b03b30,61036ae3dab58175685386d7,2021-07-30_14h59.48.244,Simcolourproject_2stim_asymm_v5,2020.2.10,Win32,60,61025ae37ef11b136ea224fe,,,,,,,,,1426,52,-98,1,0,0,response3disk,,4,-17,11,1,0,0,rectangle,-17,11,1,0,0,-17,11,1,0,0,1,97,257,18,1,,,,,,,,
,,,,,,,,,,,,,FF,,,,,,,,0.6011,,,,,,,,,,,,,,,,,,,,,,60fcf7e8002c2c1b89b03b30,61036ae3dab58175685386d7,2021-07-30_14h59.48.244,Simcolourproject_2stim_asymm_v5,2020.2.10,Win32,60,61025ae37ef11b136ea224fe,,,,,,,,,657,103,39,1,0,0,response1disk,,6,6,-8,1,0,0,rectangle,6,-8,1,0,0,6,-8,1,0,0,1,98,258,84,1,,,,,,,,
,,,,,,,,,,,,,FF,,,,,,,,0.5677,,,,,,,,,,,,,,,,,,,,,,60fcf7e8002c2c1b89b03b30,61036ae3dab58175685386d7,2021-07-30_14h59.48.244,Simcolourproject_2stim_asymm_v5,2020.2.10,Win32,60,61025ae37ef11b136ea224fe,,,,,,,,,3791,82,58,1,0,0,response1disk,,6,-5,18,1,0,0,rectangle,-5,18,1,0,0,-5,18,1,0,0,1,99,259,42,1,,,,,,,,
,,,,,,,,,,,,,FF,,,,,,,,0.6847,,,,,,,,,,,,,,,,,,,,,,60fcf7e8002c2c1b89b03b30,61036ae3dab58175685386d7,2021-07-30_14h59.48.244,Simcolourproject_2stim_asymm_v5,2020.2.10,Win32,60,61025ae37ef11b136ea224fe,,,,,,,,,2952,26,99,1,0,0,response1disk,,7,-14,9,1,0,0,rectangle,-14,9,1,0,0,-14,9,1,0,0,1,100,260,127,1,,,,,,,,
,,,,,,,,,,,,,FF,,,,,,,,0.9013,,,,,,,,,,,,,,,,,,,,,,60fcf7e8002c2c1b89b03b30,61036ae3dab58175685386d7,2021-07-30_14h59.48.244,Simcolourproject_2stim_asymm_v5,2020.2.10,Win32,60,61025ae37ef11b136ea224fe,,,,,,,,,2893,-110,-67,1,0,0,response5disk,,2,6,9,1,0,0,rectangle,6,9,1,0,0,6,9,1,0,0,1,101,261,58,1,,,,,,,,
,,,,,,,,,,,,,FF,,,,,,,,1.0022,,,,,,,,,,,,,,,,,,,,,,60fcf7e8002c2c1b89b03b30,61036ae3dab58175685386d7,2021-07-30_14h59.48.244,Simcolourproject_2stim_asymm_v5,2020.2.10,Win32,60,61025ae37ef11b136ea224fe,,,,,,,,,1142,75,49,1,0,0,response1disk,,6,-13,0,1,0,0,rectangle,-13,0,1,0,0,-13,0,1,0,0,1,102,262,46,1,,,,,,,,
,,,,,,,,,,,,,FF,,,,,,,,0.7018,,,,,,,,,,,,,,,,,,,,,,60fcf7e8002c2c1b89b03b30,61036ae3dab58175685386d7,2021-07-30_14h59.48.244,Simcolourproject_2stim_asymm_v5,2020.2.10,Win32,60,61025ae37ef11b136ea224fe,,,,,,,,,3234,114,50,1,0,0,response1disk,,6,30,21,1,0,0,rectangle,30,21,1,0,0,30,21,1,0,0,1,103,263,19,1,,,,,,,,
,,,,,,,,,,,,,FF,,,,,,,,1.4529,,,,,,,,,,,,,,,,,,,,,,60fcf7e8002c2c1b89b03b30,61036ae3dab58175685386d7,2021-07-30_14h59.48.244,Simcolourproject_2stim_asymm_v5,2020.2.10,Win32,60,61025ae37ef11b136ea224fe,,,,,,,,,3469,-149,44,1,0,0,response7disk,,1,-16,21,1,0,0,rectangle,-16,21,1,0,0,-16,21,1,0,0,1,104,264,89,1,,,,,,,,
,,,,,,,,,,,,,FF,,,,,,,,1.0872,,,,,,,,,,,,,,,,,,,,,,60fcf7e8002c2c1b89b03b30,61036ae3dab58175685386d7,2021-07-30_14h59.48.244,Simcolourproject_2stim_asymm_v5,2020.2.10,Win32,60,61025ae37ef11b136ea224fe,,,,,,,,,1689,100,-70,1,0,0,response3disk,,5,-20,-3,1,0,0,rectangle,-20,-3,1,0,0,-20,-3,1,0,0,1,105,265,27,1,,,,,,,,
,,,,,,,,,,,,,FF,,,,,,,,0.6511,,,,,,,,,,,,,,,,,,,,,,60fcf7e8002c2c1b89b03b30,61036ae3dab58175685386d7,2021-07-30_14h59.48.244,Simcolourproject_2stim_asymm_v5,2020.2.10,Win32,60,61025ae37ef11b136ea224fe,,,,,,,,,3542,59,88,1,0,0,response1disk,,7,14,8,1,0,0,rectangle,14,8,1,0,0,14,8,1,0,0,1,106,266,11,1,,,,,,,,
,,,,,,,,,,,,,FF,,,,,,,,3.2906,,,,,,,,,,,,,,,,,,,,,,60fcf7e8002c2c1b89b03b30,61036ae3dab58175685386d7,2021-07-30_14h59.48.244,Simcolourproject_2stim_asymm_v5,2020.2.10,Win32,60,61025ae37ef11b136ea224fe,,,,,,,,,3830,114,-53,1,0,0,response3disk,,5,-1,0,1,0,0,rectangle,-1,0,1,0,0,-1,0,1,0,0,1,107,267,109,1,,,,,,,,
,,,,,,,,,,,,,FF,,,,,,,,1.3866,,,,,,,,,,,,,,,,,,,,,,60fcf7e8002c2c1b89b03b30,61036ae3dab58175685386d7,2021-07-30_14h59.48.244,Simcolourproject_2stim_asymm_v5,2020.2.10,Win32,60,61025ae37ef11b136ea224fe,,,,,,,,,2283,92,53,1,0,0,response1disk,,6,-17,14,1,0,0,rectangle,-17,14,1,0,0,-17,14,1,0,0,1,108,268,92,1,,,,,,,,
,,,,,,,,,,,,,FF,,,,,,,,1.2193,,,,,,,,,,,,,,,,,,,,,,60fcf7e8002c2c1b89b03b30,61036ae3dab58175685386d7,2021-07-30_14h59.48.244,Simcolourproject_2stim_asymm_v5,2020.2.10,Win32,60,61025ae37ef11b136ea224fe,,,,,,,,,50,86,-36,1,0,0,response3disk,,5,22,-8,1,0,0,rectangle,22,-8,1,0,0,22,-8,1,0,0,1,109,269,115,1,,,,,,,,
,,,,,,,,,,,,,FF,,,,,,,,2.4725,,,,,,,,,,,,,,,,,,,,,,60fcf7e8002c2c1b89b03b30,61036ae3dab58175685386d7,2021-07-30_14h59.48.244,Simcolourproject_2stim_asymm_v5,2020.2.10,Win32,60,61025ae37ef11b136ea224fe,,,,,,,,,1002,45,-129,1,0,0,response3disk,,4,-6,-13,1,0,0,rectangle,-6,-13,1,0,0,-6,-13,1,0,0,1,110,270,159,1,,,,,,,,
,,,,,,,,,,,,,FF,,,,,,,,3.9583,,,,,,,,,,,,,,,,,,,,,,60fcf7e8002c2c1b89b03b30,61036ae3dab58175685386d7,2021-07-30_14h59.48.244,Simcolourproject_2stim_asymm_v5,2020.2.10,Win32,60,61025ae37ef11b136ea224fe,,,,,,,,,3930,87,-52,1,0,0,response3disk,,5,-4,-15,1,0,0,rectangle,-4,-15,1,0,0,-4,-15,1,0,0,1,111,271,56,1,,,,,,,,
,,,,,,,,,,,,,FF,,,,,,,,0.7519,,,,,,,,,,,,,,,,,,,,,,60fcf7e8002c2c1b89b03b30,61036ae3dab58175685386d7,2021-07-30_14h59.48.244,Simcolourproject_2stim_asymm_v5,2020.2.10,Win32,60,61025ae37ef11b136ea224fe,,,,,,,,,1077,116,-45,1,0,0,response3disk,,5,15,-1,1,0,0,rectangle,15,-1,1,0,0,15,-1,1,0,0,1,112,272,72,1,,,,,,,,
,,,,,,,,,,,,,FF,,,,,,,,0.6683,,,,,,,,,,,,,,,,,,,,,,60fcf7e8002c2c1b89b03b30,61036ae3dab58175685386d7,2021-07-30_14h59.48.244,Simcolourproject_2stim_asymm_v5,2020.2.10,Win32,60,61025ae37ef11b136ea224fe,,,,,,,,,1307,70,-113,1,0,0,response3disk,,4,11,16,1,0,0,rectangle,-53,-114,1,0,0,-1,16,1,0,0,1,113,273,148,1,,response5disk_3,TRUE,3,3,"[233,114,112,25,224,85,162,204,199,33,75,71,6,20,290,95,274,111,160,285]",1.7703,rectangle
,,,,,,,,,,,,,FF,,,,,,,,1.6869,,,,,,,,,,,,,,,,,,,,,,60fcf7e8002c2c1b89b03b30,61036ae3dab58175685386d7,2021-07-30_14h59.48.244,Simcolourproject_2stim_asymm_v5,2020.2.10,Win32,60,61025ae37ef11b136ea224fe,,,,,,,,,2573,84,-100,1,0,0,response3disk,,4,-35,4,1,0,0,rectangle,-35,4,1,0,0,-35,4,1,0,0,1,114,274,61,1,,,,,,,,
,,,,,,,,,,,,,FF,,,,,,,,0.6847,,,,,,,,,,,,,,,,,,,,,,60fcf7e8002c2c1b89b03b30,61036ae3dab58175685386d7,2021-07-30_14h59.48.244,Simcolourproject_2stim_asymm_v5,2020.2.10,Win32,60,61025ae37ef11b136ea224fe,,,,,,,,,1210,54,102,1,0,0,response1disk,,7,-20,-2,1,0,0,rectangle,-20,-2,1,0,0,-20,-2,1,0,0,1,115,275,141,1,,,,,,,,
,,,,,,,,,,,,,FF,,,,,,,,0.7178,,,,,,,,,,,,,,,,,,,,,,60fcf7e8002c2c1b89b03b30,61036ae3dab58175685386d7,2021-07-30_14h59.48.244,Simcolourproject_2stim_asymm_v5,2020.2.10,Win32,60,61025ae37ef11b136ea224fe,,,,,,,,,2444,65,107,1,0,0,response1disk,,7,10,15,1,0,0,rectangle,10,15,1,0,0,10,15,1,0,0,1,116,276,123,1,,,,,,,,
,,,,,,,,,,,,,FF,,,,,,,,0.8855,,,,,,,,,,,,,,,,,,,,,,60fcf7e8002c2c1b89b03b30,61036ae3dab58175685386d7,2021-07-30_14h59.48.244,Simcolourproject_2stim_asymm_v5,2020.2.10,Win32,60,61025ae37ef11b136ea224fe,,,,,,,,,549,-86,-136,1,0,0,response5disk,,3,-23,-5,1,0,0,rectangle,-23,-5,1,0,0,-23,-5,1,0,0,1,117,277,153,1,,,,,,,,
,,,,,,,,,,,,,FF,,,,,,,,1.771,,,,,,,,,,,,,,,,,,,,,,60fcf7e8002c2c1b89b03b30,61036ae3dab58175685386d7,2021-07-30_14h59.48.244,Simcolourproject_2stim_asymm_v5,2020.2.10,Win32,60,61025ae37ef11b136ea224fe,,,,,,,,,496,-123,-79,1,0,0,response5disk,,2,-35,-12,1,0,0,rectangle,-35,-12,1,0,0,-35,-12,1,0,0,1,118,278,110,1,,,,,,,,
,,,,,,,,,,,,,FF,,,,,,,,0.5671,,,,,,,,,,,,,,,,,,,,,,60fcf7e8002c2c1b89b03b30,61036ae3dab58175685386d7,2021-07-30_14h59.48.244,Simcolourproject_2stim_asymm_v5,2020.2.10,Win32,60,61025ae37ef11b136ea224fe,,,,,,,,,3933,-51,-113,1,0,0,response5disk,,3,6,2,1,0,0,rectangle,6,2,1,0,0,6,2,1,0,0,1,119,279,54,1,,,,,,,,
,,,,,,,,,,,,,FF,,,,,,,,0.9521,,,,,,,,,,,,,,,,,,,,,,60fcf7e8002c2c1b89b03b30,61036ae3dab58175685386d7,2021-07-30_14h59.48.244,Simcolourproject_2stim_asymm_v5,2020.2.10,Win32,60,61025ae37ef11b136ea224fe,,,,,,,,,3066,42,-79,1,0,0,response3disk,,4,17,14,1,0,0,rectangle,17,14,1,0,0,17,14,1,0,0,1,120,280,150,1,,,,,,,,
,,,,,,,,,,,,,FF,,,,,,,,0.8518,,,,,,,,,,,,,,,,,,,,,,60fcf7e8002c2c1b89b03b30,61036ae3dab58175685386d7,2021-07-30_14h59.48.244,Simcolourproject_2stim_asymm_v5,2020.2.10,Win32,60,61025ae37ef11b136ea224fe,,,,,,,,,682,108,-42,1,0,0,response3disk,,5,5,6,1,0,0,rectangle,5,6,1,0,0,5,6,1,0,0,1,121,281,50,1,,,,,,,,
,,,,,,,,,,,,,FF,,,,,,,,0.8684,,,,,,,,,,,,,,,,,,,,,,60fcf7e8002c2c1b89b03b30,61036ae3dab58175685386d7,2021-07-30_14h59.48.244,Simcolourproject_2stim_asymm_v5,2020.2.10,Win32,60,61025ae37ef11b136ea224fe,,,,,,,,,952,119,62,1,0,0,response1disk,,6,28,-2,1,0,0,rectangle,28,-2,1,0,0,28,-2,1,0,0,1,122,282,53,1,,,,,,,,
,,,,,,,,,,,,,FF,,,,,,,,1.0685,,,,,,,,,,,,,,,,,,,,,,60fcf7e8002c2c1b89b03b30,61036ae3dab58175685386d7,2021-07-30_14h59.48.244,Simcolourproject_2stim_asymm_v5,2020.2.10,Win32,60,61025ae37ef11b136ea224fe,,,,,,,,,1467,139,-75,1,0,0,response3disk,,5,24,-10,1,0,0,rectangle,24,-10,1,0,0,24,-10,1,0,0,1,123,283,47,1,,,,,,,,
,,,,,,,,,,,,,FF,,,,,,,,0.9688,,,,,,,,,,,,,,,,,,,,,,60fcf7e8002c2c1b89b03b30,61036ae3dab58175685386d7,2021-07-30_14h59.48.244,Simcolourproject_2stim_asymm_v5,2020.2.10,Win32,60,61025ae37ef11b136ea224fe,,,,,,,,,1738,126,-52,1,0,0,response3disk,,5,-3,11,1,0,0,rectangle,58,-109,1,0,0,13,11,1,0,0,1,124,284,4,1,,response3disk_3,TRUE,4,4,"[233,114,112,25,224,85,162,204,199,33,75,71,6,20,290,95,274,111,160,285]",1.2194,rectangle
,,,,,,,,,,,,,FF,,,,,,,,2.6391,,,,,,,,,,,,,,,,,,,,,,60fcf7e8002c2c1b89b03b30,61036ae3dab58175685386d7,2021-07-30_14h59.48.244,Simcolourproject_2stim_asymm_v5,2020.2.10,Win32,60,61025ae37ef11b136ea224fe,,,,,,,,,2502,67,-111,1,0,0,response3disk,,4,28,17,1,0,0,rectangle,28,17,1,0,0,28,17,1,0,0,1,125,285,32,1,,,,,,,,
,,,,,,,,,,,,,FF,,,,,,,,0.7849,,,,,,,,,,,,,,,,,,,,,,60fcf7e8002c2c1b89b03b30,61036ae3dab58175685386d7,2021-07-30_14h59.48.244,Simcolourproject_2stim_asymm_v5,2020.2.10,Win32,60,61025ae37ef11b136ea224fe,,,,,,,,,979,134,65,1,0,0,response1disk,,6,4,8,1,0,0,rectangle,4,8,1,0,0,4,8,1,0,0,1,126,286,104,1,,,,,,,,
,,,,,,,,,,,,,FF,,,,,,,,0.551,,,,,,,,,,,,,,,,,,,,,,60fcf7e8002c2c1b89b03b30,61036ae3dab58175685386d7,2021-07-30_14h59.48.244,Simcolourproject_2stim_asymm_v5,2020.2.10,Win32,60,61025ae37ef11b136ea224fe,,,,,,,,,20,119,63,1,0,0,response1disk,,6,-8,-3,1,0,0,rectangle,-8,-3,1,0,0,-8,-3,1,0,0,1,127,287,106,1,,,,,,,,
,,,,,,,,,,,,,FF,,,,,,,,0.6007,,,,,,,,,,,,,,,,,,,,,,60fcf7e8002c2c1b89b03b30,61036ae3dab58175685386d7,2021-07-30_14h59.48.244,Simcolourproject_2stim_asymm_v5,2020.2.10,Win32,60,61025ae37ef11b136ea224fe,,,,,,,,,1512,117,80,1,0,0,response1disk,,6,9,-17,1,0,0,rectangle,9,-17,1,0,0,9,-17,1,0,0,1,128,288,156,1,,,,,,,,
,,,,,,,,,,,,,FF,,,,,,,,0.9685,,,,,,,,,,,,,,,,,,,,,,60fcf7e8002c2c1b89b03b30,61036ae3dab58175685386d7,2021-07-30_14h59.48.244,Simcolourproject_2stim_asymm_v5,2020.2.10,Win32,60,61025ae37ef11b136ea224fe,,,,,,,,,3626,97,-52,1,0,0,response3disk,,5,4,-6,1,0,0,rectangle,31,-120,1,0,0,-22,0,1,0,0,1,129,289,117,1,,response3disk_3,TRUE,4,4,"[233,114,112,25,224,85,162,204,199,33,75,71,6,20,290,95,274,111,160,285]",1.4693,rectangle
,,,,,,,,,,,,,FF,,,,,,,,0.8517,,,,,,,,,,,,,,,,,,,,,,60fcf7e8002c2c1b89b03b30,61036ae3dab58175685386d7,2021-07-30_14h59.48.244,Simcolourproject_2stim_asymm_v5,2020.2.10,Win32,60,61025ae37ef11b136ea224fe,,,,,,,,,3771,78,63,1,0,0,response1disk,,6,10,4,1,0,0,rectangle,10,4,1,0,0,10,4,1,0,0,1,130,290,90,1,,,,,,,,
,,,,,,,,,,,,,FF,,,,,,,,1.2863,,,,,,,,,,,,,,,,,,,,,,60fcf7e8002c2c1b89b03b30,61036ae3dab58175685386d7,2021-07-30_14h59.48.244,Simcolourproject_2stim_asymm_v5,2020.2.10,Win32,60,61025ae37ef11b136ea224fe,,,,,,,,,1072,107,-56,1,0,0,response3disk,,5,-4,2,1,0,0,rectangle,-4,2,1,0,0,-4,2,1,0,0,1,131,291,24,1,,,,,,,,
,,,,,,,,,,,,,FF,,,,,,,,0.5009,,,,,,,,,,,,,,,,,,,,,,60fcf7e8002c2c1b89b03b30,61036ae3dab58175685386d7,2021-07-30_14h59.48.244,Simcolourproject_2stim_asymm_v5,2020.2.10,Win32,60,61025ae37ef11b136ea224fe,,,,,,,,,2972,126,-54,1,0,0,response3disk,,5,15,-8,1,0,0,rectangle,15,-8,1,0,0,15,-8,1,0,0,1,132,292,136,1,,,,,,,,
,,,,,,,,,,,,,FF,,,,,,,,2.5558,,,,,,,,,,,,,,,,,,,,,,60fcf7e8002c2c1b89b03b30,61036ae3dab58175685386d7,2021-07-30_14h59.48.244,Simcolourproject_2stim_asymm_v5,2020.2.10,Win32,60,61025ae37ef11b136ea224fe,,,,,,,,,654,68,-105,1,0,0,response3disk,,4,29,10,1,0,0,rectangle,29,10,1,0,0,29,10,1,0,0,1,133,293,158,1,,,,,,,,
,,,,,,,,,,,,,FF,,,,,,,,1.1358,,,,,,,,,,,,,,,,,,,,,,60fcf7e8002c2c1b89b03b30,61036ae3dab58175685386d7,2021-07-30_14h59.48.244,Simcolourproject_2stim_asymm_v5,2020.2.10,Win32,60,61025ae37ef11b136ea224fe,,,,,,,,,1457,148,59,1,0,0,response1disk,,6,-18,-8,1,0,0,rectangle,-18,-8,1,0,0,-18,-8,1,0,0,1,134,294,80,1,,,,,,,,
,,,,,,,,,,,,,FF,,,,,,,,0.6186,,,,,,,,,,,,,,,,,,,,,,60fcf7e8002c2c1b89b03b30,61036ae3dab58175685386d7,2021-07-30_14h59.48.244,Simcolourproject_2stim_asymm_v5,2020.2.10,Win32,60,61025ae37ef11b136ea224fe,,,,,,,,,3946,91,65,1,0,0,response1disk,,6,-3,11,1,0,0,rectangle,-3,11,1,0,0,-3,11,1,0,0,1,135,295,125,1,,,,,,,,
,,,,,,,,,,,,,FF,,,,,,,,1.4031,,,,,,,,,,,,,,,,,,,,,,60fcf7e8002c2c1b89b03b30,61036ae3dab58175685386d7,2021-07-30_14h59.48.244,Simcolourproject_2stim_asymm_v5,2020.2.10,Win32,60,61025ae37ef11b136ea224fe,,,,,,,,,1026,-88,-110,1,0,0,response5disk,,3,-2,20,1,0,0,rectangle,-2,20,1,0,0,-2,20,1,0,0,1,136,296,107,1,,,,,,,,
,,,,,,,,,,,,,FF,,,,,,,,0.735,,,,,,,,,,,,,,,,,,,,,,60fcf7e8002c2c1b89b03b30,61036ae3dab58175685386d7,2021-07-30_14h59.48.244,Simcolourproject_2stim_asymm_v5,2020.2.10,Win32,60,61025ae37ef11b136ea224fe,,,,,,,,,4323,-29,-82,1,0,0,response5disk,,3,11,12,1,0,0,rectangle,11,12,1,0,0,11,12,1,0,0,1,137,297,2,1,,,,,,,,
,,,,,,,,,,,,,FF,,,,,,,,0.7851,,,,,,,,,,,,,,,,,,,,,,60fcf7e8002c2c1b89b03b30,61036ae3dab58175685386d7,2021-07-30_14h59.48.244,Simcolourproject_2stim_asymm_v5,2020.2.10,Win32,60,61025ae37ef11b136ea224fe,,,,,,,,,1223,112,-47,1,0,0,response3disk,,5,-10,20,1,0,0,rectangle,-10,20,1,0,0,-10,20,1,0,0,1,138,298,21,1,,,,,,,,
,,,,,,,,,,,,,FF,,,,,,,,0.6845,,,,,,,,,,,,,,,,,,,,,,60fcf7e8002c2c1b89b03b30,61036ae3dab58175685386d7,2021-07-30_14h59.48.244,Simcolourproject_2stim_asymm_v5,2020.2.10,Win32,60,61025ae37ef11b136ea224fe,,,,,,,,,4315,74,122,1,0,0,response1disk,,7,25,11,1,0,0,rectangle,25,11,1,0,0,25,11,1,0,0,1,139,299,14,1,,,,,,,,
,,,,,,,,,,,,,FF,,,,,,,,0.5179,,,,,,,,,,,,,,,,,,,,,,60fcf7e8002c2c1b89b03b30,61036ae3dab58175685386d7,2021-07-30_14h59.48.244,Simcolourproject_2stim_asymm_v5,2020.2.10,Win32,60,61025ae37ef11b136ea224fe,,,,,,,,,1167,112,56,1,0,0,response1disk,,6,12,2,1,0,0,rectangle,12,2,1,0,0,12,2,1,0,0,1,140,300,88,1,,,,,,,,
