key_resp.keys,key_resp.rt,key_resp_14.keys,key_resp_14.rt,key_resp_15.keys,key_resp_15.rt,key_resp_17.keys,key_resp_17.rt,key_resp_9.keys,key_resp_9.rt,key_resp_10.keys,key_resp_10.rt,practice_comparison,Ecc,mouse_5.x,mouse_5.y,mouse_5.leftButton,mouse_5.midButton,mouse_5.rightButton,mouse_5.clicked_name,pracsimilarity,response_time,mouse_10.x,mouse_10.y,mouse_10.leftButton,mouse_10.midButton,mouse_10.rightButton,mouse_10.clicked_name,mouse_7.x,mouse_7.y,mouse_7.leftButton,mouse_7.midButton,mouse_7.rightButton,mouse_6.x,mouse_6.y,mouse_6.leftButton,mouse_6.midButton,mouse_6.rightButton,duringprac.thisRepN,duringprac.thisTrialN,duringprac.thisN,duringprac.thisIndex,duringprac.ran,participant,session,date,expName,psychopyVersion,OS,frameRate,study_id,mouse_7.clicked_name,catchpracsimilarity,catch_response_time,catchnumberprac,catchtrialorderprac,mouse_6.clicked_name,key_resp_22.keys,key_resp_22.rt,realcomparison,mouse.x,mouse.y,mouse.leftButton,mouse.midButton,mouse.rightButton,mouse.clicked_name,Colour2,similarity,mouse_2.x,mouse_2.y,mouse_2.leftButton,mouse_2.midButton,mouse_2.rightButton,mouse_2.clicked_name,mouse_3.x,mouse_3.y,mouse_3.leftButton,mouse_3.midButton,mouse_3.rightButton,mouse_11.x,mouse_11.y,mouse_11.leftButton,mouse_11.midButton,mouse_11.rightButton,trials_2.thisRepN,trials_2.thisTrialN,trials_2.thisN,trials_2.thisIndex,trials_2.ran,Colour1,mouse_3.clicked_name,catchornah,catchsimilarity,catchnumber,catchtrialorder,catchRT,mouse_11.clicked_name
space,1.819,space,2.3334,space,2.8339,space,3.6,space,1.8903,space,3.3342,53,FF,-78,-64,1,0,0,response5disk_5,2,7.759,5,-11,1,0,0,rectangle_8,5,-11,1,0,0,5,-11,1,0,0,0,0,0,5,1,60fcf4f6c21c55d0cc9081c8,61036d41b25cdebc6342c23e,2021-07-29_20h10.20.746,Simcolourproject_2stim_asymm_v5,2020.2.10,Win32,60,61025ae37ef11b136ea224fe,,,,,,,,,,,,,,,,,,,,,,,,,,,,,,,,,,,,,,,,,,,,,,
,,,,,,,,,,,,55,PF,61,-48,1,0,0,response3disk_5,5,10.2167,21,3,1,0,0,rectangle_8,140,-57,1,0,0,6,6,1,0,0,0,1,1,6,1,60fcf4f6c21c55d0cc9081c8,61036d41b25cdebc6342c23e,2021-07-29_20h10.20.746,Simcolourproject_2stim_asymm_v5,2020.2.10,Win32,60,61025ae37ef11b136ea224fe,response3disk_7,5,3.5997,5,"[2,5]",rectangle_4,,,,,,,,,,,,,,,,,,,,,,,,,,,,,,,,,,,,,,,,
,,,,,,,,,,,,118,FF,-53,-55,1,0,0,response5disk_5,3,5.3503,14,-5,1,0,0,rectangle_8,14,-5,1,0,0,14,-5,1,0,0,0,2,2,0,1,60fcf4f6c21c55d0cc9081c8,61036d41b25cdebc6342c23e,2021-07-29_20h10.20.746,Simcolourproject_2stim_asymm_v5,2020.2.10,Win32,60,61025ae37ef11b136ea224fe,,,,,,,,,,,,,,,,,,,,,,,,,,,,,,,,,,,,,,,,,,,,,,
,,,,,,,,,,,,51,PF,117,59,1,0,0,response1disk_5,6,2.1493,15,7,1,0,0,rectangle_8,15,7,1,0,0,15,7,1,0,0,0,3,3,2,1,60fcf4f6c21c55d0cc9081c8,61036d41b25cdebc6342c23e,2021-07-29_20h10.20.746,Simcolourproject_2stim_asymm_v5,2020.2.10,Win32,60,61025ae37ef11b136ea224fe,,,,,,,,,,,,,,,,,,,,,,,,,,,,,,,,,,,,,,,,,,,,,,
,,,,,,,,,,,,102,PF,-91,-47,1,0,0,response5disk_5,2,1.9324,-2,6,1,0,0,rectangle_8,106,-53,1,0,0,-11,-11,1,0,0,0,4,4,4,1,60fcf4f6c21c55d0cc9081c8,61036d41b25cdebc6342c23e,2021-07-29_20h10.20.746,Simcolourproject_2stim_asymm_v5,2020.2.10,Win32,60,61025ae37ef11b136ea224fe,response3disk_7,5,1.7994,5,"[2,5]",rectangle_4,,,,,,,,,,,,,,,,,,,,,,,,,,,,,,,,,,,,,,,,
,,,,,,,,,,,,40,PF,130,36,1,0,0,response1disk_5,6,2.8334,24,-10,1,0,0,rectangle_8,24,-10,1,0,0,24,-10,1,0,0,0,5,5,1,1,60fcf4f6c21c55d0cc9081c8,61036d41b25cdebc6342c23e,2021-07-29_20h10.20.746,Simcolourproject_2stim_asymm_v5,2020.2.10,Win32,60,61025ae37ef11b136ea224fe,,,,,,,,,,,,,,,,,,,,,,,,,,,,,,,,,,,,,,,,,,,,,,
,,,,,,,,,,,,28,FF,92,-54,1,0,0,response3disk_5,5,2.4003,9,3,1,0,0,rectangle_8,9,3,1,0,0,9,3,1,0,0,0,6,6,3,1,60fcf4f6c21c55d0cc9081c8,61036d41b25cdebc6342c23e,2021-07-29_20h10.20.746,Simcolourproject_2stim_asymm_v5,2020.2.10,Win32,60,61025ae37ef11b136ea224fe,,,,,,,,,,,,,,,,,,,,,,,,,,,,,,,,,,,,,,,,,,,,,,
,,,,,,,,,,,,,FF,,,,,,,,6.4156,,,,,,,,,,,,,,,,,,,,,,60fcf4f6c21c55d0cc9081c8,61036d41b25cdebc6342c23e,2021-07-29_20h10.20.746,Simcolourproject_2stim_asymm_v5,2020.2.10,Win32,60,61025ae37ef11b136ea224fe,,,,,,,space,1.8374,3464,77,38,1,0,0,response1disk,,6,16,-2,1,0,0,rectangle,16,-2,1,0,0,16,-2,1,0,0,0,0,0,58,1,,,,,,,,
,,,,,,,,,,,,,FF,,,,,,,,1.1553,,,,,,,,,,,,,,,,,,,,,,60fcf4f6c21c55d0cc9081c8,61036d41b25cdebc6342c23e,2021-07-29_20h10.20.746,Simcolourproject_2stim_asymm_v5,2020.2.10,Win32,60,61025ae37ef11b136ea224fe,,,,,,,,,1751,-95,-44,1,0,0,response5disk,,2,-9,-7,1,0,0,rectangle,-9,-7,1,0,0,-9,-7,1,0,0,0,1,1,155,1,,,,,,,,
,,,,,,,,,,,,,FF,,,,,,,,2.6828,,,,,,,,,,,,,,,,,,,,,,60fcf4f6c21c55d0cc9081c8,61036d41b25cdebc6342c23e,2021-07-29_20h10.20.746,Simcolourproject_2stim_asymm_v5,2020.2.10,Win32,60,61025ae37ef11b136ea224fe,,,,,,,,,718,-40,-83,1,0,0,response5disk,,3,6,2,1,0,0,rectangle,6,2,1,0,0,6,2,1,0,0,0,2,2,12,1,,,,,,,,
,,,,,,,,,,,,,FF,,,,,,,,1.95,,,,,,,,,,,,,,,,,,,,,,60fcf4f6c21c55d0cc9081c8,61036d41b25cdebc6342c23e,2021-07-29_20h10.20.746,Simcolourproject_2stim_asymm_v5,2020.2.10,Win32,60,61025ae37ef11b136ea224fe,,,,,,,,,2744,61,99,1,0,0,response1disk,,7,14,2,1,0,0,rectangle,153,60,1,0,0,16,2,1,0,0,0,3,3,63,1,,response1disk_3,TRUE,6,6,"[242,259,194,196,182,207,120,56,25,20,258,144,218,4,148,271,256,113,108,257]",1.983,rectangle
,,,,,,,,,,,,,FF,,,,,,,,3.4324,,,,,,,,,,,,,,,,,,,,,,60fcf4f6c21c55d0cc9081c8,61036d41b25cdebc6342c23e,2021-07-29_20h10.20.746,Simcolourproject_2stim_asymm_v5,2020.2.10,Win32,60,61025ae37ef11b136ea224fe,,,,,,,,,3545,103,-49,1,0,0,response3disk,,5,1,-7,1,0,0,rectangle,1,-7,1,0,0,1,-7,1,0,0,0,4,4,99,1,,,,,,,,
,,,,,,,,,,,,,FF,,,,,,,,4.5327,,,,,,,,,,,,,,,,,,,,,,60fcf4f6c21c55d0cc9081c8,61036d41b25cdebc6342c23e,2021-07-29_20h10.20.746,Simcolourproject_2stim_asymm_v5,2020.2.10,Win32,60,61025ae37ef11b136ea224fe,,,,,,,,,3307,57,-96,1,0,0,response3disk,,4,-12,-6,1,0,0,rectangle,-12,-6,1,0,0,-12,-6,1,0,0,0,5,5,4,1,,,,,,,,
,,,,,,,,,,,,,FF,,,,,,,,3.4477,,,,,,,,,,,,,,,,,,,,,,60fcf4f6c21c55d0cc9081c8,61036d41b25cdebc6342c23e,2021-07-29_20h10.20.746,Simcolourproject_2stim_asymm_v5,2020.2.10,Win32,60,61025ae37ef11b136ea224fe,,,,,,,,,1089,85,62,1,0,0,response1disk,,6,26,3,1,0,0,rectangle,26,3,1,0,0,26,3,1,0,0,0,6,6,153,1,,,,,,,,
,,,,,,,,,,,,,FF,,,,,,,,2.1328,,,,,,,,,,,,,,,,,,,,,,60fcf4f6c21c55d0cc9081c8,61036d41b25cdebc6342c23e,2021-07-29_20h10.20.746,Simcolourproject_2stim_asymm_v5,2020.2.10,Win32,60,61025ae37ef11b136ea224fe,,,,,,,,,1471,55,-119,1,0,0,response3disk,,4,29,-10,1,0,0,rectangle,29,-10,1,0,0,29,-10,1,0,0,0,7,7,62,1,,,,,,,,
,,,,,,,,,,,,,FF,,,,,,,,1.7995,,,,,,,,,,,,,,,,,,,,,,60fcf4f6c21c55d0cc9081c8,61036d41b25cdebc6342c23e,2021-07-29_20h10.20.746,Simcolourproject_2stim_asymm_v5,2020.2.10,Win32,60,61025ae37ef11b136ea224fe,,,,,,,,,1759,-37,-93,1,0,0,response5disk,,3,17,-3,1,0,0,rectangle,17,-3,1,0,0,17,-3,1,0,0,0,8,8,78,1,,,,,,,,
,,,,,,,,,,,,,FF,,,,,,,,2.0168,,,,,,,,,,,,,,,,,,,,,,60fcf4f6c21c55d0cc9081c8,61036d41b25cdebc6342c23e,2021-07-29_20h10.20.746,Simcolourproject_2stim_asymm_v5,2020.2.10,Win32,60,61025ae37ef11b136ea224fe,,,,,,,,,2176,66,-94,1,0,0,response3disk,,4,19,0,1,0,0,rectangle,19,0,1,0,0,19,0,1,0,0,0,9,9,119,1,,,,,,,,
,,,,,,,,,,,,,FF,,,,,,,,2.5828,,,,,,,,,,,,,,,,,,,,,,60fcf4f6c21c55d0cc9081c8,61036d41b25cdebc6342c23e,2021-07-29_20h10.20.746,Simcolourproject_2stim_asymm_v5,2020.2.10,Win32,60,61025ae37ef11b136ea224fe,,,,,,,,,3554,118,-44,1,0,0,response3disk,,5,4,-6,1,0,0,rectangle,4,-6,1,0,0,4,-6,1,0,0,0,10,10,89,1,,,,,,,,
,,,,,,,,,,,,,FF,,,,,,,,1.1166,,,,,,,,,,,,,,,,,,,,,,60fcf4f6c21c55d0cc9081c8,61036d41b25cdebc6342c23e,2021-07-29_20h10.20.746,Simcolourproject_2stim_asymm_v5,2020.2.10,Win32,60,61025ae37ef11b136ea224fe,,,,,,,,,4238,-44,-96,1,0,0,response5disk,,3,9,3,1,0,0,rectangle,9,3,1,0,0,9,3,1,0,0,0,11,11,151,1,,,,,,,,
,,,,,,,,,,,,,FF,,,,,,,,2.1674,,,,,,,,,,,,,,,,,,,,,,60fcf4f6c21c55d0cc9081c8,61036d41b25cdebc6342c23e,2021-07-29_20h10.20.746,Simcolourproject_2stim_asymm_v5,2020.2.10,Win32,60,61025ae37ef11b136ea224fe,,,,,,,,,3774,43,-111,1,0,0,response3disk,,4,11,2,1,0,0,rectangle,11,2,1,0,0,11,2,1,0,0,0,12,12,19,1,,,,,,,,
,,,,,,,,,,,,,FF,,,,,,,,2.6661,,,,,,,,,,,,,,,,,,,,,,60fcf4f6c21c55d0cc9081c8,61036d41b25cdebc6342c23e,2021-07-29_20h10.20.746,Simcolourproject_2stim_asymm_v5,2020.2.10,Win32,60,61025ae37ef11b136ea224fe,,,,,,,,,1529,82,-120,1,0,0,response3disk,,4,14,-6,1,0,0,rectangle,14,-6,1,0,0,14,-6,1,0,0,0,13,13,70,1,,,,,,,,
,,,,,,,,,,,,,FF,,,,,,,,2.0995,,,,,,,,,,,,,,,,,,,,,,60fcf4f6c21c55d0cc9081c8,61036d41b25cdebc6342c23e,2021-07-29_20h10.20.746,Simcolourproject_2stim_asymm_v5,2020.2.10,Win32,60,61025ae37ef11b136ea224fe,,,,,,,,,2293,-123,-60,1,0,0,response5disk,,2,-3,5,1,0,0,rectangle,-3,5,1,0,0,-3,5,1,0,0,0,14,14,152,1,,,,,,,,
,,,,,,,,,,,,,FF,,,,,,,,1.9667,,,,,,,,,,,,,,,,,,,,,,60fcf4f6c21c55d0cc9081c8,61036d41b25cdebc6342c23e,2021-07-29_20h10.20.746,Simcolourproject_2stim_asymm_v5,2020.2.10,Win32,60,61025ae37ef11b136ea224fe,,,,,,,,,4319,119,-61,1,0,0,response3disk,,5,24,-6,1,0,0,rectangle,24,-6,1,0,0,24,-6,1,0,0,0,15,15,24,1,,,,,,,,
,,,,,,,,,,,,,FF,,,,,,,,3.5662,,,,,,,,,,,,,,,,,,,,,,60fcf4f6c21c55d0cc9081c8,61036d41b25cdebc6342c23e,2021-07-29_20h10.20.746,Simcolourproject_2stim_asymm_v5,2020.2.10,Win32,60,61025ae37ef11b136ea224fe,,,,,,,,,124,135,-53,1,0,0,response3disk,,5,14,1,1,0,0,rectangle,14,1,1,0,0,14,1,1,0,0,0,16,16,144,1,,,,,,,,
,,,,,,,,,,,,,FF,,,,,,,,2.3673,,,,,,,,,,,,,,,,,,,,,,60fcf4f6c21c55d0cc9081c8,61036d41b25cdebc6342c23e,2021-07-29_20h10.20.746,Simcolourproject_2stim_asymm_v5,2020.2.10,Win32,60,61025ae37ef11b136ea224fe,,,,,,,,,1826,-84,-53,1,0,0,response5disk,,2,21,-2,1,0,0,rectangle,21,-2,1,0,0,21,-2,1,0,0,0,17,17,85,1,,,,,,,,
,,,,,,,,,,,,,FF,,,,,,,,1.3825,,,,,,,,,,,,,,,,,,,,,,60fcf4f6c21c55d0cc9081c8,61036d41b25cdebc6342c23e,2021-07-29_20h10.20.746,Simcolourproject_2stim_asymm_v5,2020.2.10,Win32,60,61025ae37ef11b136ea224fe,,,,,,,,,2321,-48,-97,1,0,0,response5disk,,3,6,-1,1,0,0,rectangle,6,-1,1,0,0,6,-1,1,0,0,0,18,18,67,1,,,,,,,,
,,,,,,,,,,,,,FF,,,,,,,,3.3826,,,,,,,,,,,,,,,,,,,,,,60fcf4f6c21c55d0cc9081c8,61036d41b25cdebc6342c23e,2021-07-29_20h10.20.746,Simcolourproject_2stim_asymm_v5,2020.2.10,Win32,60,61025ae37ef11b136ea224fe,,,,,,,,,3487,56,-103,1,0,0,response3disk,,4,27,-7,1,0,0,rectangle,-62,120,1,0,0,-6,-12,1,0,0,0,19,19,96,1,,response7disk_3,TRUE,0,0,"[242,259,194,196,182,207,120,56,25,20,258,144,218,4,148,271,256,113,108,257]",2.0829,rectangle
,,,,,,,,,,,,,FF,,,,,,,,1.9659,,,,,,,,,,,,,,,,,,,,,,60fcf4f6c21c55d0cc9081c8,61036d41b25cdebc6342c23e,2021-07-29_20h10.20.746,Simcolourproject_2stim_asymm_v5,2020.2.10,Win32,60,61025ae37ef11b136ea224fe,,,,,,,,,425,-39,-88,1,0,0,response5disk,,3,-2,5,1,0,0,rectangle,-2,5,1,0,0,-2,5,1,0,0,0,20,20,3,1,,,,,,,,
,,,,,,,,,,,,,FF,,,,,,,,1.2674,,,,,,,,,,,,,,,,,,,,,,60fcf4f6c21c55d0cc9081c8,61036d41b25cdebc6342c23e,2021-07-29_20h10.20.746,Simcolourproject_2stim_asymm_v5,2020.2.10,Win32,60,61025ae37ef11b136ea224fe,,,,,,,,,1368,-112,56,1,0,0,response7disk,,1,-5,-12,1,0,0,rectangle,-5,-12,1,0,0,-5,-12,1,0,0,0,21,21,13,1,,,,,,,,
,,,,,,,,,,,,,FF,,,,,,,,1.5809,,,,,,,,,,,,,,,,,,,,,,60fcf4f6c21c55d0cc9081c8,61036d41b25cdebc6342c23e,2021-07-29_20h10.20.746,Simcolourproject_2stim_asymm_v5,2020.2.10,Win32,60,61025ae37ef11b136ea224fe,,,,,,,,,3899,-100,-54,1,0,0,response5disk,,2,-5,3,1,0,0,rectangle,-5,3,1,0,0,-5,3,1,0,0,0,22,22,31,1,,,,,,,,
,,,,,,,,,,,,,FF,,,,,,,,0.983,,,,,,,,,,,,,,,,,,,,,,60fcf4f6c21c55d0cc9081c8,61036d41b25cdebc6342c23e,2021-07-29_20h10.20.746,Simcolourproject_2stim_asymm_v5,2020.2.10,Win32,60,61025ae37ef11b136ea224fe,,,,,,,,,202,-56,-90,1,0,0,response5disk,,3,0,6,1,0,0,rectangle,0,6,1,0,0,0,6,1,0,0,0,23,23,22,1,,,,,,,,
,,,,,,,,,,,,,FF,,,,,,,,3.3834,,,,,,,,,,,,,,,,,,,,,,60fcf4f6c21c55d0cc9081c8,61036d41b25cdebc6342c23e,2021-07-29_20h10.20.746,Simcolourproject_2stim_asymm_v5,2020.2.10,Win32,60,61025ae37ef11b136ea224fe,,,,,,,,,1263,60,-97,1,0,0,response3disk,,4,25,1,1,0,0,rectangle,139,-62,1,0,0,-5,7,1,0,0,0,24,24,125,1,,response3disk_3,TRUE,5,5,"[242,259,194,196,182,207,120,56,25,20,258,144,218,4,148,271,256,113,108,257]",1.8158,rectangle
,,,,,,,,,,,,,FF,,,,,,,,1.4001,,,,,,,,,,,,,,,,,,,,,,60fcf4f6c21c55d0cc9081c8,61036d41b25cdebc6342c23e,2021-07-29_20h10.20.746,Simcolourproject_2stim_asymm_v5,2020.2.10,Win32,60,61025ae37ef11b136ea224fe,,,,,,,,,1274,-47,-99,1,0,0,response5disk,,3,8,8,1,0,0,rectangle,8,8,1,0,0,8,8,1,0,0,0,25,25,115,1,,,,,,,,
,,,,,,,,,,,,,FF,,,,,,,,2.9994,,,,,,,,,,,,,,,,,,,,,,60fcf4f6c21c55d0cc9081c8,61036d41b25cdebc6342c23e,2021-07-29_20h10.20.746,Simcolourproject_2stim_asymm_v5,2020.2.10,Win32,60,61025ae37ef11b136ea224fe,,,,,,,,,1797,145,44,1,0,0,response1disk,,6,20,-3,1,0,0,rectangle,20,-3,1,0,0,20,-3,1,0,0,0,26,26,40,1,,,,,,,,
,,,,,,,,,,,,,FF,,,,,,,,1.766,,,,,,,,,,,,,,,,,,,,,,60fcf4f6c21c55d0cc9081c8,61036d41b25cdebc6342c23e,2021-07-29_20h10.20.746,Simcolourproject_2stim_asymm_v5,2020.2.10,Win32,60,61025ae37ef11b136ea224fe,,,,,,,,,3667,58,105,1,0,0,response1disk,,7,18,-2,1,0,0,rectangle,18,-2,1,0,0,18,-2,1,0,0,0,27,27,147,1,,,,,,,,
,,,,,,,,,,,,,FF,,,,,,,,0.9161,,,,,,,,,,,,,,,,,,,,,,60fcf4f6c21c55d0cc9081c8,61036d41b25cdebc6342c23e,2021-07-29_20h10.20.746,Simcolourproject_2stim_asymm_v5,2020.2.10,Win32,60,61025ae37ef11b136ea224fe,,,,,,,,,3923,-41,-102,1,0,0,response5disk,,3,34,6,1,0,0,rectangle,34,6,1,0,0,34,6,1,0,0,0,28,28,18,1,,,,,,,,
,,,,,,,,,,,,,FF,,,,,,,,1.8002,,,,,,,,,,,,,,,,,,,,,,60fcf4f6c21c55d0cc9081c8,61036d41b25cdebc6342c23e,2021-07-29_20h10.20.746,Simcolourproject_2stim_asymm_v5,2020.2.10,Win32,60,61025ae37ef11b136ea224fe,,,,,,,,,2642,39,-98,1,0,0,response3disk,,4,35,1,1,0,0,rectangle,35,1,1,0,0,35,1,1,0,0,0,29,29,60,1,,,,,,,,
,,,,,,,,,,,,,FF,,,,,,,,1.9809,,,,,,,,,,,,,,,,,,,,,,60fcf4f6c21c55d0cc9081c8,61036d41b25cdebc6342c23e,2021-07-29_20h10.20.746,Simcolourproject_2stim_asymm_v5,2020.2.10,Win32,60,61025ae37ef11b136ea224fe,,,,,,,,,1225,40,-110,1,0,0,response3disk,,4,32,2,1,0,0,rectangle,32,2,1,0,0,32,2,1,0,0,0,30,30,65,1,,,,,,,,
,,,,,,,,,,,,,FF,,,,,,,,2.5507,,,,,,,,,,,,,,,,,,,,,,60fcf4f6c21c55d0cc9081c8,61036d41b25cdebc6342c23e,2021-07-29_20h10.20.746,Simcolourproject_2stim_asymm_v5,2020.2.10,Win32,60,61025ae37ef11b136ea224fe,,,,,,,,,832,118,-53,1,0,0,response3disk,,5,27,5,1,0,0,rectangle,27,5,1,0,0,27,5,1,0,0,0,31,31,135,1,,,,,,,,
,,,,,,,,,,,,,FF,,,,,,,,1.0667,,,,,,,,,,,,,,,,,,,,,,60fcf4f6c21c55d0cc9081c8,61036d41b25cdebc6342c23e,2021-07-29_20h10.20.746,Simcolourproject_2stim_asymm_v5,2020.2.10,Win32,60,61025ae37ef11b136ea224fe,,,,,,,,,4122,-46,-109,1,0,0,response5disk,,3,2,0,1,0,0,rectangle,2,0,1,0,0,2,0,1,0,0,0,32,32,109,1,,,,,,,,
,,,,,,,,,,,,,FF,,,,,,,,1.75,,,,,,,,,,,,,,,,,,,,,,60fcf4f6c21c55d0cc9081c8,61036d41b25cdebc6342c23e,2021-07-29_20h10.20.746,Simcolourproject_2stim_asymm_v5,2020.2.10,Win32,60,61025ae37ef11b136ea224fe,,,,,,,,,2781,-58,-100,1,0,0,response5disk,,3,-12,-2,1,0,0,rectangle,-12,-2,1,0,0,-12,-2,1,0,0,0,33,33,92,1,,,,,,,,
,,,,,,,,,,,,,FF,,,,,,,,2.0327,,,,,,,,,,,,,,,,,,,,,,60fcf4f6c21c55d0cc9081c8,61036d41b25cdebc6342c23e,2021-07-29_20h10.20.746,Simcolourproject_2stim_asymm_v5,2020.2.10,Win32,60,61025ae37ef11b136ea224fe,,,,,,,,,162,54,-135,1,0,0,response3disk,,4,4,9,1,0,0,rectangle,4,9,1,0,0,4,9,1,0,0,0,34,34,64,1,,,,,,,,
,,,,,,,,,,,,,FF,,,,,,,,3.2994,,,,,,,,,,,,,,,,,,,,,,60fcf4f6c21c55d0cc9081c8,61036d41b25cdebc6342c23e,2021-07-29_20h10.20.746,Simcolourproject_2stim_asymm_v5,2020.2.10,Win32,60,61025ae37ef11b136ea224fe,,,,,,,,,4357,-128,-78,1,0,0,response5disk,,2,-14,0,1,0,0,rectangle,-14,0,1,0,0,-14,0,1,0,0,0,35,35,154,1,,,,,,,,
,,,,,,,,,,,,,FF,,,,,,,,1.416,,,,,,,,,,,,,,,,,,,,,,60fcf4f6c21c55d0cc9081c8,61036d41b25cdebc6342c23e,2021-07-29_20h10.20.746,Simcolourproject_2stim_asymm_v5,2020.2.10,Win32,60,61025ae37ef11b136ea224fe,,,,,,,,,11,-95,-79,1,0,0,response5disk,,2,10,3,1,0,0,rectangle,10,3,1,0,0,10,3,1,0,0,0,36,36,133,1,,,,,,,,
,,,,,,,,,,,,,FF,,,,,,,,1.6995,,,,,,,,,,,,,,,,,,,,,,60fcf4f6c21c55d0cc9081c8,61036d41b25cdebc6342c23e,2021-07-29_20h10.20.746,Simcolourproject_2stim_asymm_v5,2020.2.10,Win32,60,61025ae37ef11b136ea224fe,,,,,,,,,3508,95,41,1,0,0,response1disk,,6,32,-17,1,0,0,rectangle,32,-17,1,0,0,32,-17,1,0,0,0,37,37,29,1,,,,,,,,
,,,,,,,,,,,,,FF,,,,,,,,3.4502,,,,,,,,,,,,,,,,,,,,,,60fcf4f6c21c55d0cc9081c8,61036d41b25cdebc6342c23e,2021-07-29_20h10.20.746,Simcolourproject_2stim_asymm_v5,2020.2.10,Win32,60,61025ae37ef11b136ea224fe,,,,,,,,,3715,59,-111,1,0,0,response3disk,,4,16,1,1,0,0,rectangle,16,1,1,0,0,16,1,1,0,0,0,38,38,23,1,,,,,,,,
,,,,,,,,,,,,,FF,,,,,,,,1.7338,,,,,,,,,,,,,,,,,,,,,,60fcf4f6c21c55d0cc9081c8,61036d41b25cdebc6342c23e,2021-07-29_20h10.20.746,Simcolourproject_2stim_asymm_v5,2020.2.10,Win32,60,61025ae37ef11b136ea224fe,,,,,,,,,3716,98,-46,1,0,0,response3disk,,5,10,-2,1,0,0,rectangle,10,-2,1,0,0,10,-2,1,0,0,0,39,39,88,1,,,,,,,,
,,,,,,,,,,,,,FF,,,,,,,,1.5335,,,,,,,,,,,,,,,,,,,,,,60fcf4f6c21c55d0cc9081c8,61036d41b25cdebc6342c23e,2021-07-29_20h10.20.746,Simcolourproject_2stim_asymm_v5,2020.2.10,Win32,60,61025ae37ef11b136ea224fe,,,,,,,,,2322,106,-47,1,0,0,response3disk,,5,30,3,1,0,0,rectangle,30,3,1,0,0,30,3,1,0,0,0,40,40,39,1,,,,,,,,
,,,,,,,,,,,,,FF,,,,,,,,2.0334,,,,,,,,,,,,,,,,,,,,,,60fcf4f6c21c55d0cc9081c8,61036d41b25cdebc6342c23e,2021-07-29_20h10.20.746,Simcolourproject_2stim_asymm_v5,2020.2.10,Win32,60,61025ae37ef11b136ea224fe,,,,,,,,,973,-54,-118,1,0,0,response5disk,,3,30,0,1,0,0,rectangle,30,0,1,0,0,30,0,1,0,0,0,41,41,84,1,,,,,,,,
,,,,,,,,,,,,,FF,,,,,,,,1.1507,,,,,,,,,,,,,,,,,,,,,,60fcf4f6c21c55d0cc9081c8,61036d41b25cdebc6342c23e,2021-07-29_20h10.20.746,Simcolourproject_2stim_asymm_v5,2020.2.10,Win32,60,61025ae37ef11b136ea224fe,,,,,,,,,1292,-36,-102,1,0,0,response5disk,,3,-2,6,1,0,0,rectangle,-2,6,1,0,0,-2,6,1,0,0,0,42,42,8,1,,,,,,,,
,,,,,,,,,,,,,FF,,,,,,,,0.7662,,,,,,,,,,,,,,,,,,,,,,60fcf4f6c21c55d0cc9081c8,61036d41b25cdebc6342c23e,2021-07-29_20h10.20.746,Simcolourproject_2stim_asymm_v5,2020.2.10,Win32,60,61025ae37ef11b136ea224fe,,,,,,,,,3821,-50,-120,1,0,0,response5disk,,3,-7,4,1,0,0,rectangle,-7,4,1,0,0,-7,4,1,0,0,0,43,43,5,1,,,,,,,,
,,,,,,,,,,,,,FF,,,,,,,,2.5834,,,,,,,,,,,,,,,,,,,,,,60fcf4f6c21c55d0cc9081c8,61036d41b25cdebc6342c23e,2021-07-29_20h10.20.746,Simcolourproject_2stim_asymm_v5,2020.2.10,Win32,60,61025ae37ef11b136ea224fe,,,,,,,,,2683,-116,-76,1,0,0,response5disk,,2,-6,0,1,0,0,rectangle,-6,0,1,0,0,-6,0,1,0,0,0,44,44,55,1,,,,,,,,
,,,,,,,,,,,,,FF,,,,,,,,1.1328,,,,,,,,,,,,,,,,,,,,,,60fcf4f6c21c55d0cc9081c8,61036d41b25cdebc6342c23e,2021-07-29_20h10.20.746,Simcolourproject_2stim_asymm_v5,2020.2.10,Win32,60,61025ae37ef11b136ea224fe,,,,,,,,,1680,74,-100,1,0,0,response3disk,,4,23,-5,1,0,0,rectangle,23,-5,1,0,0,23,-5,1,0,0,0,45,45,20,1,,,,,,,,
,,,,,,,,,,,,,FF,,,,,,,,1.4828,,,,,,,,,,,,,,,,,,,,,,60fcf4f6c21c55d0cc9081c8,61036d41b25cdebc6342c23e,2021-07-29_20h10.20.746,Simcolourproject_2stim_asymm_v5,2020.2.10,Win32,60,61025ae37ef11b136ea224fe,,,,,,,,,3656,66,-114,1,0,0,response3disk,,4,-6,3,1,0,0,rectangle,-6,3,1,0,0,-6,3,1,0,0,0,46,46,91,1,,,,,,,,
,,,,,,,,,,,,,FF,,,,,,,,3.183,,,,,,,,,,,,,,,,,,,,,,60fcf4f6c21c55d0cc9081c8,61036d41b25cdebc6342c23e,2021-07-29_20h10.20.746,Simcolourproject_2stim_asymm_v5,2020.2.10,Win32,60,61025ae37ef11b136ea224fe,,,,,,,,,749,81,-60,1,0,0,response3disk,,5,11,-3,1,0,0,rectangle,11,-3,1,0,0,11,-3,1,0,0,0,47,47,87,1,,,,,,,,
,,,,,,,,,,,,,FF,,,,,,,,4.6661,,,,,,,,,,,,,,,,,,,,,,60fcf4f6c21c55d0cc9081c8,61036d41b25cdebc6342c23e,2021-07-29_20h10.20.746,Simcolourproject_2stim_asymm_v5,2020.2.10,Win32,60,61025ae37ef11b136ea224fe,,,,,,,,,2059,114,-52,1,0,0,response3disk,,5,4,0,1,0,0,rectangle,4,0,1,0,0,4,0,1,0,0,0,48,48,68,1,,,,,,,,
,,,,,,,,,,,,,FF,,,,,,,,2.8497,,,,,,,,,,,,,,,,,,,,,,60fcf4f6c21c55d0cc9081c8,61036d41b25cdebc6342c23e,2021-07-29_20h10.20.746,Simcolourproject_2stim_asymm_v5,2020.2.10,Win32,60,61025ae37ef11b136ea224fe,,,,,,,,,3119,63,-120,1,0,0,response3disk,,4,24,6,1,0,0,rectangle,24,6,1,0,0,24,6,1,0,0,0,49,49,74,1,,,,,,,,
,,,,,,,,,,,,,FF,,,,,,,,3.3661,,,,,,,,,,,,,,,,,,,,,,60fcf4f6c21c55d0cc9081c8,61036d41b25cdebc6342c23e,2021-07-29_20h10.20.746,Simcolourproject_2stim_asymm_v5,2020.2.10,Win32,60,61025ae37ef11b136ea224fe,,,,,,,,,3493,55,120,1,0,0,response1disk,,7,21,4,1,0,0,rectangle,21,4,1,0,0,21,4,1,0,0,0,50,50,71,1,,,,,,,,
,,,,,,,,,,,,,FF,,,,,,,,3.8168,,,,,,,,,,,,,,,,,,,,,,60fcf4f6c21c55d0cc9081c8,61036d41b25cdebc6342c23e,2021-07-29_20h10.20.746,Simcolourproject_2stim_asymm_v5,2020.2.10,Win32,60,61025ae37ef11b136ea224fe,,,,,,,,,3771,108,-46,1,0,0,response3disk,,5,1,-10,1,0,0,rectangle,1,-10,1,0,0,1,-10,1,0,0,0,51,51,86,1,,,,,,,,
,,,,,,,,,,,,,FF,,,,,,,,2.0668,,,,,,,,,,,,,,,,,,,,,,60fcf4f6c21c55d0cc9081c8,61036d41b25cdebc6342c23e,2021-07-29_20h10.20.746,Simcolourproject_2stim_asymm_v5,2020.2.10,Win32,60,61025ae37ef11b136ea224fe,,,,,,,,,3751,62,-122,1,0,0,response3disk,,4,23,-5,1,0,0,rectangle,23,-5,1,0,0,23,-5,1,0,0,0,52,52,54,1,,,,,,,,
,,,,,,,,,,,,,FF,,,,,,,,1.9995,,,,,,,,,,,,,,,,,,,,,,60fcf4f6c21c55d0cc9081c8,61036d41b25cdebc6342c23e,2021-07-29_20h10.20.746,Simcolourproject_2stim_asymm_v5,2020.2.10,Win32,60,61025ae37ef11b136ea224fe,,,,,,,,,394,34,-126,1,0,0,response3disk,,4,-9,10,1,0,0,rectangle,-9,10,1,0,0,-9,10,1,0,0,0,53,53,118,1,,,,,,,,
,,,,,,,,,,,,,FF,,,,,,,,1.3667,,,,,,,,,,,,,,,,,,,,,,60fcf4f6c21c55d0cc9081c8,61036d41b25cdebc6342c23e,2021-07-29_20h10.20.746,Simcolourproject_2stim_asymm_v5,2020.2.10,Win32,60,61025ae37ef11b136ea224fe,,,,,,,,,3045,-69,113,1,0,0,response7disk,,0,-11,-4,1,0,0,rectangle,-11,-4,1,0,0,-11,-4,1,0,0,0,54,54,28,1,,,,,,,,
,,,,,,,,,,,,,FF,,,,,,,,3.4003,,,,,,,,,,,,,,,,,,,,,,60fcf4f6c21c55d0cc9081c8,61036d41b25cdebc6342c23e,2021-07-29_20h10.20.746,Simcolourproject_2stim_asymm_v5,2020.2.10,Win32,60,61025ae37ef11b136ea224fe,,,,,,,,,2640,-64,-111,1,0,0,response5disk,,3,-20,2,1,0,0,rectangle,-45,135,1,0,0,-7,-1,1,0,0,0,55,55,95,1,,response7disk_3,TRUE,0,0,"[242,259,194,196,182,207,120,56,25,20,258,144,218,4,148,271,256,113,108,257]",1.6842,rectangle
,,,,,,,,,,,,,FF,,,,,,,,1.5168,,,,,,,,,,,,,,,,,,,,,,60fcf4f6c21c55d0cc9081c8,61036d41b25cdebc6342c23e,2021-07-29_20h10.20.746,Simcolourproject_2stim_asymm_v5,2020.2.10,Win32,60,61025ae37ef11b136ea224fe,,,,,,,,,3755,-47,-125,1,0,0,response5disk,,3,-7,-6,1,0,0,rectangle,-7,-6,1,0,0,-7,-6,1,0,0,0,56,56,10,1,,,,,,,,
,,,,,,,,,,,,,FF,,,,,,,,1.2676,,,,,,,,,,,,,,,,,,,,,,60fcf4f6c21c55d0cc9081c8,61036d41b25cdebc6342c23e,2021-07-29_20h10.20.746,Simcolourproject_2stim_asymm_v5,2020.2.10,Win32,60,61025ae37ef11b136ea224fe,,,,,,,,,4298,-54,-106,1,0,0,response5disk,,3,-8,9,1,0,0,rectangle,-8,9,1,0,0,-8,9,1,0,0,0,57,57,37,1,,,,,,,,
,,,,,,,,,,,,,FF,,,,,,,,1.4328,,,,,,,,,,,,,,,,,,,,,,60fcf4f6c21c55d0cc9081c8,61036d41b25cdebc6342c23e,2021-07-29_20h10.20.746,Simcolourproject_2stim_asymm_v5,2020.2.10,Win32,60,61025ae37ef11b136ea224fe,,,,,,,,,407,46,-102,1,0,0,response3disk,,4,8,-2,1,0,0,rectangle,8,-2,1,0,0,8,-2,1,0,0,0,58,58,69,1,,,,,,,,
,,,,,,,,,,,,,FF,,,,,,,,2.166,,,,,,,,,,,,,,,,,,,,,,60fcf4f6c21c55d0cc9081c8,61036d41b25cdebc6342c23e,2021-07-29_20h10.20.746,Simcolourproject_2stim_asymm_v5,2020.2.10,Win32,60,61025ae37ef11b136ea224fe,,,,,,,,,2618,57,-117,1,0,0,response3disk,,4,-7,9,1,0,0,rectangle,-7,9,1,0,0,-7,9,1,0,0,0,59,59,158,1,,,,,,,,
,,,,,,,,,,,,,FF,,,,,,,,2.1168,,,,,,,,,,,,,,,,,,,,,,60fcf4f6c21c55d0cc9081c8,61036d41b25cdebc6342c23e,2021-07-29_20h10.20.746,Simcolourproject_2stim_asymm_v5,2020.2.10,Win32,60,61025ae37ef11b136ea224fe,,,,,,,,,655,122,-45,1,0,0,response3disk,,5,7,-1,1,0,0,rectangle,7,-1,1,0,0,7,-1,1,0,0,0,60,60,140,1,,,,,,,,
,,,,,,,,,,,,,FF,,,,,,,,1.5833,,,,,,,,,,,,,,,,,,,,,,60fcf4f6c21c55d0cc9081c8,61036d41b25cdebc6342c23e,2021-07-29_20h10.20.746,Simcolourproject_2stim_asymm_v5,2020.2.10,Win32,60,61025ae37ef11b136ea224fe,,,,,,,,,3530,105,56,1,0,0,response1disk,,6,20,-8,1,0,0,rectangle,20,-8,1,0,0,20,-8,1,0,0,0,61,61,120,1,,,,,,,,
,,,,,,,,,,,,,FF,,,,,,,,1.7007,,,,,,,,,,,,,,,,,,,,,,60fcf4f6c21c55d0cc9081c8,61036d41b25cdebc6342c23e,2021-07-29_20h10.20.746,Simcolourproject_2stim_asymm_v5,2020.2.10,Win32,60,61025ae37ef11b136ea224fe,,,,,,,,,3069,82,71,1,0,0,response1disk,,6,18,2,1,0,0,rectangle,18,2,1,0,0,18,2,1,0,0,0,62,62,113,1,,,,,,,,
,,,,,,,,,,,,,FF,,,,,,,,1.5827,,,,,,,,,,,,,,,,,,,,,,60fcf4f6c21c55d0cc9081c8,61036d41b25cdebc6342c23e,2021-07-29_20h10.20.746,Simcolourproject_2stim_asymm_v5,2020.2.10,Win32,60,61025ae37ef11b136ea224fe,,,,,,,,,551,75,-136,1,0,0,response3disk,,4,16,-4,1,0,0,rectangle,16,-4,1,0,0,16,-4,1,0,0,0,63,63,66,1,,,,,,,,
,,,,,,,,,,,,,FF,,,,,,,,2.3668,,,,,,,,,,,,,,,,,,,,,,60fcf4f6c21c55d0cc9081c8,61036d41b25cdebc6342c23e,2021-07-29_20h10.20.746,Simcolourproject_2stim_asymm_v5,2020.2.10,Win32,60,61025ae37ef11b136ea224fe,,,,,,,,,658,63,-127,1,0,0,response3disk,,4,12,3,1,0,0,rectangle,12,3,1,0,0,12,3,1,0,0,0,64,64,59,1,,,,,,,,
,,,,,,,,,,,,,FF,,,,,,,,2.6002,,,,,,,,,,,,,,,,,,,,,,60fcf4f6c21c55d0cc9081c8,61036d41b25cdebc6342c23e,2021-07-29_20h10.20.746,Simcolourproject_2stim_asymm_v5,2020.2.10,Win32,60,61025ae37ef11b136ea224fe,,,,,,,,,2788,109,69,1,0,0,response1disk,,6,6,1,1,0,0,rectangle,6,1,1,0,0,6,1,1,0,0,0,65,65,104,1,,,,,,,,
,,,,,,,,,,,,,FF,,,,,,,,1.4495,,,,,,,,,,,,,,,,,,,,,,60fcf4f6c21c55d0cc9081c8,61036d41b25cdebc6342c23e,2021-07-29_20h10.20.746,Simcolourproject_2stim_asymm_v5,2020.2.10,Win32,60,61025ae37ef11b136ea224fe,,,,,,,,,3782,59,110,1,0,0,response1disk,,7,28,4,1,0,0,rectangle,28,4,1,0,0,28,4,1,0,0,0,66,66,97,1,,,,,,,,
,,,,,,,,,,,,,FF,,,,,,,,1.1162,,,,,,,,,,,,,,,,,,,,,,60fcf4f6c21c55d0cc9081c8,61036d41b25cdebc6342c23e,2021-07-29_20h10.20.746,Simcolourproject_2stim_asymm_v5,2020.2.10,Win32,60,61025ae37ef11b136ea224fe,,,,,,,,,3469,-53,130,1,0,0,response7disk,,0,2,4,1,0,0,rectangle,2,4,1,0,0,2,4,1,0,0,0,67,67,136,1,,,,,,,,
,,,,,,,,,,,,,FF,,,,,,,,2.45,,,,,,,,,,,,,,,,,,,,,,60fcf4f6c21c55d0cc9081c8,61036d41b25cdebc6342c23e,2021-07-29_20h10.20.746,Simcolourproject_2stim_asymm_v5,2020.2.10,Win32,60,61025ae37ef11b136ea224fe,,,,,,,,,2337,-56,-104,1,0,0,response5disk,,3,-16,0,1,0,0,rectangle,-16,0,1,0,0,-16,0,1,0,0,0,68,68,47,1,,,,,,,,
,,,,,,,,,,,,,FF,,,,,,,,4.0328,,,,,,,,,,,,,,,,,,,,,,60fcf4f6c21c55d0cc9081c8,61036d41b25cdebc6342c23e,2021-07-29_20h10.20.746,Simcolourproject_2stim_asymm_v5,2020.2.10,Win32,60,61025ae37ef11b136ea224fe,,,,,,,,,1784,54,-96,1,0,0,response3disk,,4,7,-3,1,0,0,rectangle,7,-3,1,0,0,7,-3,1,0,0,0,69,69,46,1,,,,,,,,
,,,,,,,,,,,,,FF,,,,,,,,1.2333,,,,,,,,,,,,,,,,,,,,,,60fcf4f6c21c55d0cc9081c8,61036d41b25cdebc6342c23e,2021-07-29_20h10.20.746,Simcolourproject_2stim_asymm_v5,2020.2.10,Win32,60,61025ae37ef11b136ea224fe,,,,,,,,,315,60,105,1,0,0,response1disk,,7,30,5,1,0,0,rectangle,30,5,1,0,0,30,5,1,0,0,0,70,70,145,1,,,,,,,,
,,,,,,,,,,,,,FF,,,,,,,,1.1834,,,,,,,,,,,,,,,,,,,,,,60fcf4f6c21c55d0cc9081c8,61036d41b25cdebc6342c23e,2021-07-29_20h10.20.746,Simcolourproject_2stim_asymm_v5,2020.2.10,Win32,60,61025ae37ef11b136ea224fe,,,,,,,,,3236,-48,-106,1,0,0,response5disk,,3,21,-1,1,0,0,rectangle,21,-1,1,0,0,21,-1,1,0,0,0,71,71,61,1,,,,,,,,
,,,,,,,,,,,,,FF,,,,,,,,1.7335,,,,,,,,,,,,,,,,,,,,,,60fcf4f6c21c55d0cc9081c8,61036d41b25cdebc6342c23e,2021-07-29_20h10.20.746,Simcolourproject_2stim_asymm_v5,2020.2.10,Win32,60,61025ae37ef11b136ea224fe,,,,,,,,,2247,91,-104,1,0,0,response3disk,,4,1,11,1,0,0,rectangle,1,11,1,0,0,1,11,1,0,0,0,72,72,30,1,,,,,,,,
,,,,,,,,,,,,,FF,,,,,,,,2.183,,,,,,,,,,,,,,,,,,,,,,60fcf4f6c21c55d0cc9081c8,61036d41b25cdebc6342c23e,2021-07-29_20h10.20.746,Simcolourproject_2stim_asymm_v5,2020.2.10,Win32,60,61025ae37ef11b136ea224fe,,,,,,,,,1825,-48,-132,1,0,0,response5disk,,3,-11,-9,1,0,0,rectangle,-11,-9,1,0,0,-11,-9,1,0,0,0,73,73,129,1,,,,,,,,
,,,,,,,,,,,,,FF,,,,,,,,1.1994,,,,,,,,,,,,,,,,,,,,,,60fcf4f6c21c55d0cc9081c8,61036d41b25cdebc6342c23e,2021-07-29_20h10.20.746,Simcolourproject_2stim_asymm_v5,2020.2.10,Win32,60,61025ae37ef11b136ea224fe,,,,,,,,,2289,83,-43,1,0,0,response3disk,,5,14,10,1,0,0,rectangle,14,10,1,0,0,14,10,1,0,0,0,74,74,106,1,,,,,,,,
,,,,,,,,,,,,,FF,,,,,,,,1.5834,,,,,,,,,,,,,,,,,,,,,,60fcf4f6c21c55d0cc9081c8,61036d41b25cdebc6342c23e,2021-07-29_20h10.20.746,Simcolourproject_2stim_asymm_v5,2020.2.10,Win32,60,61025ae37ef11b136ea224fe,,,,,,,,,120,58,-137,1,0,0,response3disk,,4,10,4,1,0,0,rectangle,10,4,1,0,0,10,4,1,0,0,0,75,75,48,1,,,,,,,,
,,,,,,,,,,,,,FF,,,,,,,,4.7995,,,,,,,,,,,,,,,,,,,,,,60fcf4f6c21c55d0cc9081c8,61036d41b25cdebc6342c23e,2021-07-29_20h10.20.746,Simcolourproject_2stim_asymm_v5,2020.2.10,Win32,60,61025ae37ef11b136ea224fe,,,,,,,,,3694,92,65,1,0,0,response1disk,,6,27,10,1,0,0,rectangle,27,10,1,0,0,27,10,1,0,0,0,76,76,81,1,,,,,,,,
,,,,,,,,,,,,,FF,,,,,,,,2.4993,,,,,,,,,,,,,,,,,,,,,,60fcf4f6c21c55d0cc9081c8,61036d41b25cdebc6342c23e,2021-07-29_20h10.20.746,Simcolourproject_2stim_asymm_v5,2020.2.10,Win32,60,61025ae37ef11b136ea224fe,,,,,,,,,3372,69,-137,1,0,0,response3disk,,4,26,4,1,0,0,rectangle,26,4,1,0,0,26,4,1,0,0,0,77,77,7,1,,,,,,,,
,,,,,,,,,,,,,FF,,,,,,,,1.5161,,,,,,,,,,,,,,,,,,,,,,60fcf4f6c21c55d0cc9081c8,61036d41b25cdebc6342c23e,2021-07-29_20h10.20.746,Simcolourproject_2stim_asymm_v5,2020.2.10,Win32,60,61025ae37ef11b136ea224fe,,,,,,,,,3218,140,-61,1,0,0,response3disk,,5,16,0,1,0,0,rectangle,16,0,1,0,0,16,0,1,0,0,0,78,78,105,1,,,,,,,,
,,,,,,,,,,,,,FF,,,,,,,,2.4997,,,,,,,,,,,,,,,,,,,,,,60fcf4f6c21c55d0cc9081c8,61036d41b25cdebc6342c23e,2021-07-29_20h10.20.746,Simcolourproject_2stim_asymm_v5,2020.2.10,Win32,60,61025ae37ef11b136ea224fe,,,,,,,,,3502,73,-134,1,0,0,response3disk,,4,18,2,1,0,0,rectangle,18,2,1,0,0,18,2,1,0,0,0,79,79,15,1,,,,,,,,
,,,,,,,,,,,,,FF,,,,,,,,1.2673,,,,,,,,,,,,,,,,,,,,,,60fcf4f6c21c55d0cc9081c8,61036d41b25cdebc6342c23e,2021-07-29_20h10.20.746,Simcolourproject_2stim_asymm_v5,2020.2.10,Win32,60,61025ae37ef11b136ea224fe,,,,,,,,,2993,-61,98,1,0,0,response7disk,,0,5,9,1,0,0,rectangle,5,9,1,0,0,5,9,1,0,0,0,80,80,52,1,,,,,,,,
,,,,,,,,,,,,,FF,,,,,,,,2.1834,,,,,,,,,,,,,,,,,,,,,,60fcf4f6c21c55d0cc9081c8,61036d41b25cdebc6342c23e,2021-07-29_20h10.20.746,Simcolourproject_2stim_asymm_v5,2020.2.10,Win32,60,61025ae37ef11b136ea224fe,,,,,,,,,423,120,-56,1,0,0,response3disk,,5,6,5,1,0,0,rectangle,6,5,1,0,0,6,5,1,0,0,0,81,81,17,1,,,,,,,,
,,,,,,,,,,,,,FF,,,,,,,,2.3674,,,,,,,,,,,,,,,,,,,,,,60fcf4f6c21c55d0cc9081c8,61036d41b25cdebc6342c23e,2021-07-29_20h10.20.746,Simcolourproject_2stim_asymm_v5,2020.2.10,Win32,60,61025ae37ef11b136ea224fe,,,,,,,,,3189,69,-122,1,0,0,response3disk,,4,1,9,1,0,0,rectangle,1,9,1,0,0,1,9,1,0,0,0,82,82,146,1,,,,,,,,
,,,,,,,,,,,,,FF,,,,,,,,3.4161,,,,,,,,,,,,,,,,,,,,,,60fcf4f6c21c55d0cc9081c8,61036d41b25cdebc6342c23e,2021-07-29_20h10.20.746,Simcolourproject_2stim_asymm_v5,2020.2.10,Win32,60,61025ae37ef11b136ea224fe,,,,,,,,,1687,65,-51,1,0,0,response3disk,,5,-16,6,1,0,0,rectangle,-16,6,1,0,0,-16,6,1,0,0,0,83,83,49,1,,,,,,,,
,,,,,,,,,,,,,FF,,,,,,,,0.8842,,,,,,,,,,,,,,,,,,,,,,60fcf4f6c21c55d0cc9081c8,61036d41b25cdebc6342c23e,2021-07-29_20h10.20.746,Simcolourproject_2stim_asymm_v5,2020.2.10,Win32,60,61025ae37ef11b136ea224fe,,,,,,,,,4161,-50,125,1,0,0,response7disk,,0,-8,4,1,0,0,rectangle,-8,4,1,0,0,-8,4,1,0,0,0,84,84,143,1,,,,,,,,
,,,,,,,,,,,,,FF,,,,,,,,1.3168,,,,,,,,,,,,,,,,,,,,,,60fcf4f6c21c55d0cc9081c8,61036d41b25cdebc6342c23e,2021-07-29_20h10.20.746,Simcolourproject_2stim_asymm_v5,2020.2.10,Win32,60,61025ae37ef11b136ea224fe,,,,,,,,,466,-52,-104,1,0,0,response5disk,,3,5,-3,1,0,0,rectangle,5,-3,1,0,0,5,-3,1,0,0,0,85,85,127,1,,,,,,,,
,,,,,,,,,,,,,FF,,,,,,,,2.7667,,,,,,,,,,,,,,,,,,,,,,60fcf4f6c21c55d0cc9081c8,61036d41b25cdebc6342c23e,2021-07-29_20h10.20.746,Simcolourproject_2stim_asymm_v5,2020.2.10,Win32,60,61025ae37ef11b136ea224fe,,,,,,,,,4061,-62,-128,1,0,0,response5disk,,3,23,5,1,0,0,rectangle,23,5,1,0,0,23,5,1,0,0,0,86,86,126,1,,,,,,,,
,,,,,,,,,,,,,FF,,,,,,,,1.4341,,,,,,,,,,,,,,,,,,,,,,60fcf4f6c21c55d0cc9081c8,61036d41b25cdebc6342c23e,2021-07-29_20h10.20.746,Simcolourproject_2stim_asymm_v5,2020.2.10,Win32,60,61025ae37ef11b136ea224fe,,,,,,,,,2120,58,-113,1,0,0,response3disk,,4,22,11,1,0,0,rectangle,22,11,1,0,0,22,11,1,0,0,0,87,87,108,1,,,,,,,,
,,,,,,,,,,,,,FF,,,,,,,,1.5166,,,,,,,,,,,,,,,,,,,,,,60fcf4f6c21c55d0cc9081c8,61036d41b25cdebc6342c23e,2021-07-29_20h10.20.746,Simcolourproject_2stim_asymm_v5,2020.2.10,Win32,60,61025ae37ef11b136ea224fe,,,,,,,,,3374,55,-123,1,0,0,response3disk,,4,26,4,1,0,0,rectangle,26,4,1,0,0,26,4,1,0,0,0,88,88,83,1,,,,,,,,
,,,,,,,,,,,,,FF,,,,,,,,2.2328,,,,,,,,,,,,,,,,,,,,,,60fcf4f6c21c55d0cc9081c8,61036d41b25cdebc6342c23e,2021-07-29_20h10.20.746,Simcolourproject_2stim_asymm_v5,2020.2.10,Win32,60,61025ae37ef11b136ea224fe,,,,,,,,,1494,58,-111,1,0,0,response3disk,,4,11,13,1,0,0,rectangle,11,13,1,0,0,11,13,1,0,0,0,89,89,159,1,,,,,,,,
,,,,,,,,,,,,,FF,,,,,,,,2.1834,,,,,,,,,,,,,,,,,,,,,,60fcf4f6c21c55d0cc9081c8,61036d41b25cdebc6342c23e,2021-07-29_20h10.20.746,Simcolourproject_2stim_asymm_v5,2020.2.10,Win32,60,61025ae37ef11b136ea224fe,,,,,,,,,3113,120,-74,1,0,0,response3disk,,5,22,7,1,0,0,rectangle,22,7,1,0,0,22,7,1,0,0,0,90,90,2,1,,,,,,,,
,,,,,,,,,,,,,FF,,,,,,,,1.4661,,,,,,,,,,,,,,,,,,,,,,60fcf4f6c21c55d0cc9081c8,61036d41b25cdebc6342c23e,2021-07-29_20h10.20.746,Simcolourproject_2stim_asymm_v5,2020.2.10,Win32,60,61025ae37ef11b136ea224fe,,,,,,,,,3277,-39,-119,1,0,0,response5disk,,3,4,-9,1,0,0,rectangle,4,-9,1,0,0,4,-9,1,0,0,0,91,91,79,1,,,,,,,,
,,,,,,,,,,,,,FF,,,,,,,,1.0993,,,,,,,,,,,,,,,,,,,,,,60fcf4f6c21c55d0cc9081c8,61036d41b25cdebc6342c23e,2021-07-29_20h10.20.746,Simcolourproject_2stim_asymm_v5,2020.2.10,Win32,60,61025ae37ef11b136ea224fe,,,,,,,,,1480,54,-103,1,0,0,response3disk,,4,13,-5,1,0,0,rectangle,13,-5,1,0,0,13,-5,1,0,0,0,92,92,117,1,,,,,,,,
,,,,,,,,,,,,,FF,,,,,,,,1.233,,,,,,,,,,,,,,,,,,,,,,60fcf4f6c21c55d0cc9081c8,61036d41b25cdebc6342c23e,2021-07-29_20h10.20.746,Simcolourproject_2stim_asymm_v5,2020.2.10,Win32,60,61025ae37ef11b136ea224fe,,,,,,,,,3893,65,88,1,0,0,response1disk,,7,10,2,1,0,0,rectangle,10,2,1,0,0,10,2,1,0,0,0,93,93,32,1,,,,,,,,
,,,,,,,,,,,,,FF,,,,,,,,1.0495,,,,,,,,,,,,,,,,,,,,,,60fcf4f6c21c55d0cc9081c8,61036d41b25cdebc6342c23e,2021-07-29_20h10.20.746,Simcolourproject_2stim_asymm_v5,2020.2.10,Win32,60,61025ae37ef11b136ea224fe,,,,,,,,,3437,124,55,1,0,0,response1disk,,6,19,-9,1,0,0,rectangle,19,-9,1,0,0,19,-9,1,0,0,0,94,94,149,1,,,,,,,,
,,,,,,,,,,,,,FF,,,,,,,,1.2994,,,,,,,,,,,,,,,,,,,,,,60fcf4f6c21c55d0cc9081c8,61036d41b25cdebc6342c23e,2021-07-29_20h10.20.746,Simcolourproject_2stim_asymm_v5,2020.2.10,Win32,60,61025ae37ef11b136ea224fe,,,,,,,,,3839,64,-121,1,0,0,response3disk,,4,12,-1,1,0,0,rectangle,12,-1,1,0,0,12,-1,1,0,0,0,95,95,131,1,,,,,,,,
,,,,,,,,,,,,,FF,,,,,,,,1.6501,,,,,,,,,,,,,,,,,,,,,,60fcf4f6c21c55d0cc9081c8,61036d41b25cdebc6342c23e,2021-07-29_20h10.20.746,Simcolourproject_2stim_asymm_v5,2020.2.10,Win32,60,61025ae37ef11b136ea224fe,,,,,,,,,1959,62,-128,1,0,0,response3disk,,4,10,14,1,0,0,rectangle,10,14,1,0,0,10,14,1,0,0,0,96,96,25,1,,,,,,,,
,,,,,,,,,,,,,FF,,,,,,,,2.6328,,,,,,,,,,,,,,,,,,,,,,60fcf4f6c21c55d0cc9081c8,61036d41b25cdebc6342c23e,2021-07-29_20h10.20.746,Simcolourproject_2stim_asymm_v5,2020.2.10,Win32,60,61025ae37ef11b136ea224fe,,,,,,,,,397,116,75,1,0,0,response1disk,,6,24,2,1,0,0,rectangle,24,2,1,0,0,24,2,1,0,0,0,97,97,75,1,,,,,,,,
,,,,,,,,,,,,,FF,,,,,,,,1.5669,,,,,,,,,,,,,,,,,,,,,,60fcf4f6c21c55d0cc9081c8,61036d41b25cdebc6342c23e,2021-07-29_20h10.20.746,Simcolourproject_2stim_asymm_v5,2020.2.10,Win32,60,61025ae37ef11b136ea224fe,,,,,,,,,1230,116,-65,1,0,0,response3disk,,5,1,4,1,0,0,rectangle,1,4,1,0,0,1,4,1,0,0,0,98,98,138,1,,,,,,,,
,,,,,,,,,,,,,FF,,,,,,,,3.3495,,,,,,,,,,,,,,,,,,,,,,60fcf4f6c21c55d0cc9081c8,61036d41b25cdebc6342c23e,2021-07-29_20h10.20.746,Simcolourproject_2stim_asymm_v5,2020.2.10,Win32,60,61025ae37ef11b136ea224fe,,,,,,,,,1642,33,-101,1,0,0,response3disk,,4,-28,5,1,0,0,rectangle,-28,5,1,0,0,-28,5,1,0,0,0,99,99,157,1,,,,,,,,
,,,,,,,,,,,,,FF,,,,,,,,1.5001,,,,,,,,,,,,,,,,,,,,,,60fcf4f6c21c55d0cc9081c8,61036d41b25cdebc6342c23e,2021-07-29_20h10.20.746,Simcolourproject_2stim_asymm_v5,2020.2.10,Win32,60,61025ae37ef11b136ea224fe,,,,,,,,,2374,80,-46,1,0,0,response3disk,,5,5,7,1,0,0,rectangle,5,7,1,0,0,5,7,1,0,0,0,100,100,33,1,,,,,,,,
,,,,,,,,,,,,,FF,,,,,,,,2.6175,,,,,,,,,,,,,,,,,,,,,,60fcf4f6c21c55d0cc9081c8,61036d41b25cdebc6342c23e,2021-07-29_20h10.20.746,Simcolourproject_2stim_asymm_v5,2020.2.10,Win32,60,61025ae37ef11b136ea224fe,,,,,,,,,1995,102,64,1,0,0,response1disk,,6,4,-2,1,0,0,rectangle,4,-2,1,0,0,4,-2,1,0,0,0,101,101,72,1,,,,,,,,
,,,,,,,,,,,,,FF,,,,,,,,1.5161,,,,,,,,,,,,,,,,,,,,,,60fcf4f6c21c55d0cc9081c8,61036d41b25cdebc6342c23e,2021-07-29_20h10.20.746,Simcolourproject_2stim_asymm_v5,2020.2.10,Win32,60,61025ae37ef11b136ea224fe,,,,,,,,,72,44,-134,1,0,0,response3disk,,4,2,6,1,0,0,rectangle,2,6,1,0,0,2,6,1,0,0,0,102,102,123,1,,,,,,,,
,,,,,,,,,,,,,FF,,,,,,,,1.7496,,,,,,,,,,,,,,,,,,,,,,60fcf4f6c21c55d0cc9081c8,61036d41b25cdebc6342c23e,2021-07-29_20h10.20.746,Simcolourproject_2stim_asymm_v5,2020.2.10,Win32,60,61025ae37ef11b136ea224fe,,,,,,,,,1816,-114,-45,1,0,0,response5disk,,2,3,-8,1,0,0,rectangle,3,-8,1,0,0,3,-8,1,0,0,0,103,103,26,1,,,,,,,,
,,,,,,,,,,,,,FF,,,,,,,,2.1669,,,,,,,,,,,,,,,,,,,,,,60fcf4f6c21c55d0cc9081c8,61036d41b25cdebc6342c23e,2021-07-29_20h10.20.746,Simcolourproject_2stim_asymm_v5,2020.2.10,Win32,60,61025ae37ef11b136ea224fe,,,,,,,,,3731,140,46,1,0,0,response1disk,,6,33,7,1,0,0,rectangle,33,7,1,0,0,33,7,1,0,0,0,104,104,21,1,,,,,,,,
,,,,,,,,,,,,,FF,,,,,,,,2.2494,,,,,,,,,,,,,,,,,,,,,,60fcf4f6c21c55d0cc9081c8,61036d41b25cdebc6342c23e,2021-07-29_20h10.20.746,Simcolourproject_2stim_asymm_v5,2020.2.10,Win32,60,61025ae37ef11b136ea224fe,,,,,,,,,957,54,-91,1,0,0,response3disk,,4,-17,-3,1,0,0,rectangle,-17,-3,1,0,0,-17,-3,1,0,0,0,105,105,9,1,,,,,,,,
,,,,,,,,,,,,,FF,,,,,,,,1.0501,,,,,,,,,,,,,,,,,,,,,,60fcf4f6c21c55d0cc9081c8,61036d41b25cdebc6342c23e,2021-07-29_20h10.20.746,Simcolourproject_2stim_asymm_v5,2020.2.10,Win32,60,61025ae37ef11b136ea224fe,,,,,,,,,827,59,-111,1,0,0,response3disk,,4,18,15,1,0,0,rectangle,18,15,1,0,0,18,15,1,0,0,0,106,106,156,1,,,,,,,,
,,,,,,,,,,,,,FF,,,,,,,,1.3994,,,,,,,,,,,,,,,,,,,,,,60fcf4f6c21c55d0cc9081c8,61036d41b25cdebc6342c23e,2021-07-29_20h10.20.746,Simcolourproject_2stim_asymm_v5,2020.2.10,Win32,60,61025ae37ef11b136ea224fe,,,,,,,,,2299,-60,-101,1,0,0,response5disk,,3,-36,-5,1,0,0,rectangle,-122,-77,1,0,0,-3,0,1,0,0,0,107,107,43,1,,response5disk_3,TRUE,2,2,"[242,259,194,196,182,207,120,56,25,20,258,144,218,4,148,271,256,113,108,257]",1.6001,rectangle
,,,,,,,,,,,,,FF,,,,,,,,1.5161,,,,,,,,,,,,,,,,,,,,,,60fcf4f6c21c55d0cc9081c8,61036d41b25cdebc6342c23e,2021-07-29_20h10.20.746,Simcolourproject_2stim_asymm_v5,2020.2.10,Win32,60,61025ae37ef11b136ea224fe,,,,,,,,,4171,37,-101,1,0,0,response3disk,,4,17,12,1,0,0,rectangle,17,12,1,0,0,17,12,1,0,0,0,108,108,128,1,,,,,,,,
,,,,,,,,,,,,,FF,,,,,,,,1.9168,,,,,,,,,,,,,,,,,,,,,,60fcf4f6c21c55d0cc9081c8,61036d41b25cdebc6342c23e,2021-07-29_20h10.20.746,Simcolourproject_2stim_asymm_v5,2020.2.10,Win32,60,61025ae37ef11b136ea224fe,,,,,,,,,2621,96,-76,1,0,0,response3disk,,5,4,-2,1,0,0,rectangle,4,-2,1,0,0,4,-2,1,0,0,0,109,109,130,1,,,,,,,,
,,,,,,,,,,,,,FF,,,,,,,,1.4666,,,,,,,,,,,,,,,,,,,,,,60fcf4f6c21c55d0cc9081c8,61036d41b25cdebc6342c23e,2021-07-29_20h10.20.746,Simcolourproject_2stim_asymm_v5,2020.2.10,Win32,60,61025ae37ef11b136ea224fe,,,,,,,,,571,104,-46,1,0,0,response3disk,,5,1,5,1,0,0,rectangle,1,5,1,0,0,1,5,1,0,0,0,110,110,121,1,,,,,,,,
,,,,,,,,,,,,,FF,,,,,,,,1.6833,,,,,,,,,,,,,,,,,,,,,,60fcf4f6c21c55d0cc9081c8,61036d41b25cdebc6342c23e,2021-07-29_20h10.20.746,Simcolourproject_2stim_asymm_v5,2020.2.10,Win32,60,61025ae37ef11b136ea224fe,,,,,,,,,1914,100,57,1,0,0,response1disk,,6,-11,17,1,0,0,rectangle,-11,17,1,0,0,-11,17,1,0,0,0,111,111,114,1,,,,,,,,
,,,,,,,,,,,,,FF,,,,,,,,4.7336,,,,,,,,,,,,,,,,,,,,,,60fcf4f6c21c55d0cc9081c8,61036d41b25cdebc6342c23e,2021-07-29_20h10.20.746,Simcolourproject_2stim_asymm_v5,2020.2.10,Win32,60,61025ae37ef11b136ea224fe,,,,,,,,,1189,67,-106,1,0,0,response3disk,,4,14,2,1,0,0,rectangle,107,65,1,0,0,9,7,1,0,0,0,112,112,134,1,,response1disk_3,TRUE,6,6,"[242,259,194,196,182,207,120,56,25,20,258,144,218,4,148,271,256,113,108,257]",1.6491,rectangle
,,,,,,,,,,,,,FF,,,,,,,,2.1829,,,,,,,,,,,,,,,,,,,,,,60fcf4f6c21c55d0cc9081c8,61036d41b25cdebc6342c23e,2021-07-29_20h10.20.746,Simcolourproject_2stim_asymm_v5,2020.2.10,Win32,60,61025ae37ef11b136ea224fe,,,,,,,,,3854,77,-54,1,0,0,response3disk,,5,-12,-8,1,0,0,rectangle,-12,-8,1,0,0,-12,-8,1,0,0,0,113,113,76,1,,,,,,,,
,,,,,,,,,,,,,FF,,,,,,,,1.5842,,,,,,,,,,,,,,,,,,,,,,60fcf4f6c21c55d0cc9081c8,61036d41b25cdebc6342c23e,2021-07-29_20h10.20.746,Simcolourproject_2stim_asymm_v5,2020.2.10,Win32,60,61025ae37ef11b136ea224fe,,,,,,,,,327,74,117,1,0,0,response1disk,,7,28,-1,1,0,0,rectangle,28,-1,1,0,0,28,-1,1,0,0,0,114,114,122,1,,,,,,,,
,,,,,,,,,,,,,FF,,,,,,,,2.5329,,,,,,,,,,,,,,,,,,,,,,60fcf4f6c21c55d0cc9081c8,61036d41b25cdebc6342c23e,2021-07-29_20h10.20.746,Simcolourproject_2stim_asymm_v5,2020.2.10,Win32,60,61025ae37ef11b136ea224fe,,,,,,,,,2525,143,66,1,0,0,response1disk,,6,22,-8,1,0,0,rectangle,22,-8,1,0,0,22,-8,1,0,0,0,115,115,100,1,,,,,,,,
,,,,,,,,,,,,,FF,,,,,,,,1.9839,,,,,,,,,,,,,,,,,,,,,,60fcf4f6c21c55d0cc9081c8,61036d41b25cdebc6342c23e,2021-07-29_20h10.20.746,Simcolourproject_2stim_asymm_v5,2020.2.10,Win32,60,61025ae37ef11b136ea224fe,,,,,,,,,834,72,-130,1,0,0,response3disk,,4,19,5,1,0,0,rectangle,19,5,1,0,0,19,5,1,0,0,0,116,116,112,1,,,,,,,,
,,,,,,,,,,,,,FF,,,,,,,,1.6328,,,,,,,,,,,,,,,,,,,,,,60fcf4f6c21c55d0cc9081c8,61036d41b25cdebc6342c23e,2021-07-29_20h10.20.746,Simcolourproject_2stim_asymm_v5,2020.2.10,Win32,60,61025ae37ef11b136ea224fe,,,,,,,,,1042,77,129,1,0,0,response1disk,,7,20,3,1,0,0,rectangle,20,3,1,0,0,20,3,1,0,0,0,117,117,73,1,,,,,,,,
,,,,,,,,,,,,,FF,,,,,,,,1.3166,,,,,,,,,,,,,,,,,,,,,,60fcf4f6c21c55d0cc9081c8,61036d41b25cdebc6342c23e,2021-07-29_20h10.20.746,Simcolourproject_2stim_asymm_v5,2020.2.10,Win32,60,61025ae37ef11b136ea224fe,,,,,,,,,1785,79,-122,1,0,0,response3disk,,4,14,2,1,0,0,rectangle,14,2,1,0,0,14,2,1,0,0,0,118,118,35,1,,,,,,,,
,,,,,,,,,,,,,FF,,,,,,,,1.866,,,,,,,,,,,,,,,,,,,,,,60fcf4f6c21c55d0cc9081c8,61036d41b25cdebc6342c23e,2021-07-29_20h10.20.746,Simcolourproject_2stim_asymm_v5,2020.2.10,Win32,60,61025ae37ef11b136ea224fe,,,,,,,,,1551,116,34,1,0,0,response1disk,,6,34,11,1,0,0,rectangle,108,70,1,0,0,31,-2,1,0,0,0,119,119,14,1,,response1disk_3,TRUE,6,6,"[242,259,194,196,182,207,120,56,25,20,258,144,218,4,148,271,256,113,108,257]",1.3322,rectangle
,,,,,,,,,,,,,FF,,,,,,,,1.5827,,,,,,,,,,,,,,,,,,,,,,60fcf4f6c21c55d0cc9081c8,61036d41b25cdebc6342c23e,2021-07-29_20h10.20.746,Simcolourproject_2stim_asymm_v5,2020.2.10,Win32,60,61025ae37ef11b136ea224fe,,,,,,,,,1299,102,88,1,0,0,response1disk,,6,17,2,1,0,0,rectangle,17,2,1,0,0,17,2,1,0,0,0,120,120,1,1,,,,,,,,
,,,,,,,,,,,,,FF,,,,,,,,1.6994,,,,,,,,,,,,,,,,,,,,,,60fcf4f6c21c55d0cc9081c8,61036d41b25cdebc6342c23e,2021-07-29_20h10.20.746,Simcolourproject_2stim_asymm_v5,2020.2.10,Win32,60,61025ae37ef11b136ea224fe,,,,,,,,,2606,69,-56,1,0,0,response3disk,,5,-5,10,1,0,0,rectangle,-5,10,1,0,0,-5,10,1,0,0,0,121,121,132,1,,,,,,,,
,,,,,,,,,,,,,FF,,,,,,,,1.3,,,,,,,,,,,,,,,,,,,,,,60fcf4f6c21c55d0cc9081c8,61036d41b25cdebc6342c23e,2021-07-29_20h10.20.746,Simcolourproject_2stim_asymm_v5,2020.2.10,Win32,60,61025ae37ef11b136ea224fe,,,,,,,,,2259,93,-45,1,0,0,response3disk,,5,-8,-9,1,0,0,rectangle,-8,-9,1,0,0,-8,-9,1,0,0,0,122,122,110,1,,,,,,,,
,,,,,,,,,,,,,FF,,,,,,,,5.2997,,,,,,,,,,,,,,,,,,,,,,60fcf4f6c21c55d0cc9081c8,61036d41b25cdebc6342c23e,2021-07-29_20h10.20.746,Simcolourproject_2stim_asymm_v5,2020.2.10,Win32,60,61025ae37ef11b136ea224fe,,,,,,,,,3945,84,-127,1,0,0,response3disk,,4,20,2,1,0,0,rectangle,20,2,1,0,0,20,2,1,0,0,0,123,123,107,1,,,,,,,,
,,,,,,,,,,,,,FF,,,,,,,,1.5335,,,,,,,,,,,,,,,,,,,,,,60fcf4f6c21c55d0cc9081c8,61036d41b25cdebc6342c23e,2021-07-29_20h10.20.746,Simcolourproject_2stim_asymm_v5,2020.2.10,Win32,60,61025ae37ef11b136ea224fe,,,,,,,,,1873,103,39,1,0,0,response1disk,,6,13,11,1,0,0,rectangle,13,11,1,0,0,13,11,1,0,0,0,124,124,11,1,,,,,,,,
,,,,,,,,,,,,,FF,,,,,,,,1.2494,,,,,,,,,,,,,,,,,,,,,,60fcf4f6c21c55d0cc9081c8,61036d41b25cdebc6342c23e,2021-07-29_20h10.20.746,Simcolourproject_2stim_asymm_v5,2020.2.10,Win32,60,61025ae37ef11b136ea224fe,,,,,,,,,99,70,-120,1,0,0,response3disk,,4,15,8,1,0,0,rectangle,15,8,1,0,0,15,8,1,0,0,0,125,125,50,1,,,,,,,,
,,,,,,,,,,,,,FF,,,,,,,,1.4667,,,,,,,,,,,,,,,,,,,,,,60fcf4f6c21c55d0cc9081c8,61036d41b25cdebc6342c23e,2021-07-29_20h10.20.746,Simcolourproject_2stim_asymm_v5,2020.2.10,Win32,60,61025ae37ef11b136ea224fe,,,,,,,,,4259,103,54,1,0,0,response1disk,,6,16,-10,1,0,0,rectangle,16,-10,1,0,0,16,-10,1,0,0,0,126,126,53,1,,,,,,,,
,,,,,,,,,,,,,FF,,,,,,,,1.4162,,,,,,,,,,,,,,,,,,,,,,60fcf4f6c21c55d0cc9081c8,61036d41b25cdebc6342c23e,2021-07-29_20h10.20.746,Simcolourproject_2stim_asymm_v5,2020.2.10,Win32,60,61025ae37ef11b136ea224fe,,,,,,,,,4325,53,88,1,0,0,response1disk,,7,33,-2,1,0,0,rectangle,33,-2,1,0,0,33,-2,1,0,0,0,127,127,150,1,,,,,,,,
,,,,,,,,,,,,,FF,,,,,,,,1.2999,,,,,,,,,,,,,,,,,,,,,,60fcf4f6c21c55d0cc9081c8,61036d41b25cdebc6342c23e,2021-07-29_20h10.20.746,Simcolourproject_2stim_asymm_v5,2020.2.10,Win32,60,61025ae37ef11b136ea224fe,,,,,,,,,2639,86,-63,1,0,0,response3disk,,5,15,-6,1,0,0,rectangle,15,-6,1,0,0,15,-6,1,0,0,0,128,128,41,1,,,,,,,,
,,,,,,,,,,,,,FF,,,,,,,,2.7502,,,,,,,,,,,,,,,,,,,,,,60fcf4f6c21c55d0cc9081c8,61036d41b25cdebc6342c23e,2021-07-29_20h10.20.746,Simcolourproject_2stim_asymm_v5,2020.2.10,Win32,60,61025ae37ef11b136ea224fe,,,,,,,,,1411,117,-66,1,0,0,response3disk,,5,24,2,1,0,0,rectangle,24,2,1,0,0,24,2,1,0,0,0,129,129,137,1,,,,,,,,
,,,,,,,,,,,,,FF,,,,,,,,1.1835,,,,,,,,,,,,,,,,,,,,,,60fcf4f6c21c55d0cc9081c8,61036d41b25cdebc6342c23e,2021-07-29_20h10.20.746,Simcolourproject_2stim_asymm_v5,2020.2.10,Win32,60,61025ae37ef11b136ea224fe,,,,,,,,,4183,109,-42,1,0,0,response3disk,,5,20,-3,1,0,0,rectangle,20,-3,1,0,0,20,-3,1,0,0,0,130,130,6,1,,,,,,,,
,,,,,,,,,,,,,FF,,,,,,,,1.2168,,,,,,,,,,,,,,,,,,,,,,60fcf4f6c21c55d0cc9081c8,61036d41b25cdebc6342c23e,2021-07-29_20h10.20.746,Simcolourproject_2stim_asymm_v5,2020.2.10,Win32,60,61025ae37ef11b136ea224fe,,,,,,,,,384,68,-128,1,0,0,response3disk,,4,7,3,1,0,0,rectangle,7,3,1,0,0,7,3,1,0,0,0,131,131,93,1,,,,,,,,
,,,,,,,,,,,,,FF,,,,,,,,1.566,,,,,,,,,,,,,,,,,,,,,,60fcf4f6c21c55d0cc9081c8,61036d41b25cdebc6342c23e,2021-07-29_20h10.20.746,Simcolourproject_2stim_asymm_v5,2020.2.10,Win32,60,61025ae37ef11b136ea224fe,,,,,,,,,18,39,-116,1,0,0,response3disk,,4,-6,-7,1,0,0,rectangle,-6,-7,1,0,0,-6,-7,1,0,0,0,132,132,142,1,,,,,,,,
,,,,,,,,,,,,,FF,,,,,,,,1.6835,,,,,,,,,,,,,,,,,,,,,,60fcf4f6c21c55d0cc9081c8,61036d41b25cdebc6342c23e,2021-07-29_20h10.20.746,Simcolourproject_2stim_asymm_v5,2020.2.10,Win32,60,61025ae37ef11b136ea224fe,,,,,,,,,4283,-39,-89,1,0,0,response5disk,,3,-14,-11,1,0,0,rectangle,-14,-11,1,0,0,-14,-11,1,0,0,0,133,133,0,1,,,,,,,,
,,,,,,,,,,,,,FF,,,,,,,,1.0495,,,,,,,,,,,,,,,,,,,,,,60fcf4f6c21c55d0cc9081c8,61036d41b25cdebc6342c23e,2021-07-29_20h10.20.746,Simcolourproject_2stim_asymm_v5,2020.2.10,Win32,60,61025ae37ef11b136ea224fe,,,,,,,,,3600,112,60,1,0,0,response1disk,,6,17,9,1,0,0,rectangle,17,9,1,0,0,17,9,1,0,0,0,134,134,116,1,,,,,,,,
,,,,,,,,,,,,,FF,,,,,,,,1.5496,,,,,,,,,,,,,,,,,,,,,,60fcf4f6c21c55d0cc9081c8,61036d41b25cdebc6342c23e,2021-07-29_20h10.20.746,Simcolourproject_2stim_asymm_v5,2020.2.10,Win32,60,61025ae37ef11b136ea224fe,,,,,,,,,2183,30,-123,1,0,0,response3disk,,4,30,4,1,0,0,rectangle,30,4,1,0,0,30,4,1,0,0,0,135,135,90,1,,,,,,,,
,,,,,,,,,,,,,FF,,,,,,,,3.4169,,,,,,,,,,,,,,,,,,,,,,60fcf4f6c21c55d0cc9081c8,61036d41b25cdebc6342c23e,2021-07-29_20h10.20.746,Simcolourproject_2stim_asymm_v5,2020.2.10,Win32,60,61025ae37ef11b136ea224fe,,,,,,,,,3325,57,-126,1,0,0,response3disk,,4,33,-16,1,0,0,rectangle,33,-16,1,0,0,33,-16,1,0,0,0,136,136,103,1,,,,,,,,
,,,,,,,,,,,,,FF,,,,,,,,1.0495,,,,,,,,,,,,,,,,,,,,,,60fcf4f6c21c55d0cc9081c8,61036d41b25cdebc6342c23e,2021-07-29_20h10.20.746,Simcolourproject_2stim_asymm_v5,2020.2.10,Win32,60,61025ae37ef11b136ea224fe,,,,,,,,,2826,121,-51,1,0,0,response3disk,,5,6,-2,1,0,0,rectangle,6,-2,1,0,0,6,-2,1,0,0,0,137,137,82,1,,,,,,,,
,,,,,,,,,,,,,FF,,,,,,,,1.9836,,,,,,,,,,,,,,,,,,,,,,60fcf4f6c21c55d0cc9081c8,61036d41b25cdebc6342c23e,2021-07-29_20h10.20.746,Simcolourproject_2stim_asymm_v5,2020.2.10,Win32,60,61025ae37ef11b136ea224fe,,,,,,,,,1600,41,-114,1,0,0,response3disk,,4,21,-9,1,0,0,rectangle,21,-9,1,0,0,21,-9,1,0,0,0,138,138,56,1,,,,,,,,
,,,,,,,,,,,,,FF,,,,,,,,1.4995,,,,,,,,,,,,,,,,,,,,,,60fcf4f6c21c55d0cc9081c8,61036d41b25cdebc6342c23e,2021-07-29_20h10.20.746,Simcolourproject_2stim_asymm_v5,2020.2.10,Win32,60,61025ae37ef11b136ea224fe,,,,,,,,,3547,135,51,1,0,0,response1disk,,6,36,3,1,0,0,rectangle,36,3,1,0,0,36,3,1,0,0,0,139,139,44,1,,,,,,,,
,,,,,,,,,,,,,FF,,,,,,,,1.166,,,,,,,,,,,,,,,,,,,,,,60fcf4f6c21c55d0cc9081c8,61036d41b25cdebc6342c23e,2021-07-29_20h10.20.746,Simcolourproject_2stim_asymm_v5,2020.2.10,Win32,60,61025ae37ef11b136ea224fe,,,,,,,,,2747,-64,-123,1,0,0,response5disk,,3,9,-8,1,0,0,rectangle,9,-8,1,0,0,9,-8,1,0,0,0,140,140,51,1,,,,,,,,
,,,,,,,,,,,,,FF,,,,,,,,1.1494,,,,,,,,,,,,,,,,,,,,,,60fcf4f6c21c55d0cc9081c8,61036d41b25cdebc6342c23e,2021-07-29_20h10.20.746,Simcolourproject_2stim_asymm_v5,2020.2.10,Win32,60,61025ae37ef11b136ea224fe,,,,,,,,,2326,67,-115,1,0,0,response3disk,,4,14,5,1,0,0,rectangle,14,5,1,0,0,14,5,1,0,0,0,141,141,80,1,,,,,,,,
,,,,,,,,,,,,,FF,,,,,,,,0.9995,,,,,,,,,,,,,,,,,,,,,,60fcf4f6c21c55d0cc9081c8,61036d41b25cdebc6342c23e,2021-07-29_20h10.20.746,Simcolourproject_2stim_asymm_v5,2020.2.10,Win32,60,61025ae37ef11b136ea224fe,,,,,,,,,1181,132,-55,1,0,0,response3disk,,5,22,4,1,0,0,rectangle,22,4,1,0,0,22,4,1,0,0,0,142,142,101,1,,,,,,,,
,,,,,,,,,,,,,FF,,,,,,,,1.2,,,,,,,,,,,,,,,,,,,,,,60fcf4f6c21c55d0cc9081c8,61036d41b25cdebc6342c23e,2021-07-29_20h10.20.746,Simcolourproject_2stim_asymm_v5,2020.2.10,Win32,60,61025ae37ef11b136ea224fe,,,,,,,,,531,75,44,1,0,0,response1disk,,6,-4,-10,1,0,0,rectangle,-97,57,1,0,0,0,-8,1,0,0,0,143,143,139,1,,response7disk_3,TRUE,1,1,"[242,259,194,196,182,207,120,56,25,20,258,144,218,4,148,271,256,113,108,257]",1.5992,rectangle
,,,,,,,,,,,,,FF,,,,,,,,5.0996,,,,,,,,,,,,,,,,,,,,,,60fcf4f6c21c55d0cc9081c8,61036d41b25cdebc6342c23e,2021-07-29_20h10.20.746,Simcolourproject_2stim_asymm_v5,2020.2.10,Win32,60,61025ae37ef11b136ea224fe,,,,,,,,,4172,100,-78,1,0,0,response3disk,,5,21,3,1,0,0,rectangle,21,3,1,0,0,21,3,1,0,0,0,144,144,98,1,,,,,,,,
,,,,,,,,,,,,,FF,,,,,,,,1.0328,,,,,,,,,,,,,,,,,,,,,,60fcf4f6c21c55d0cc9081c8,61036d41b25cdebc6342c23e,2021-07-29_20h10.20.746,Simcolourproject_2stim_asymm_v5,2020.2.10,Win32,60,61025ae37ef11b136ea224fe,,,,,,,,,363,132,45,1,0,0,response1disk,,6,33,9,1,0,0,rectangle,33,9,1,0,0,33,9,1,0,0,0,145,145,27,1,,,,,,,,
,,,,,,,,,,,,,FF,,,,,,,,1.1333,,,,,,,,,,,,,,,,,,,,,,60fcf4f6c21c55d0cc9081c8,61036d41b25cdebc6342c23e,2021-07-29_20h10.20.746,Simcolourproject_2stim_asymm_v5,2020.2.10,Win32,60,61025ae37ef11b136ea224fe,,,,,,,,,1772,58,-113,1,0,0,response3disk,,4,-1,6,1,0,0,rectangle,-1,6,1,0,0,-1,6,1,0,0,0,146,146,57,1,,,,,,,,
,,,,,,,,,,,,,FF,,,,,,,,1.6335,,,,,,,,,,,,,,,,,,,,,,60fcf4f6c21c55d0cc9081c8,61036d41b25cdebc6342c23e,2021-07-29_20h10.20.746,Simcolourproject_2stim_asymm_v5,2020.2.10,Win32,60,61025ae37ef11b136ea224fe,,,,,,,,,4049,-64,-115,1,0,0,response5disk,,3,-13,4,1,0,0,rectangle,-60,105,1,0,0,-28,-2,1,0,0,0,147,147,45,1,,response7disk_3,TRUE,0,0,"[242,259,194,196,182,207,120,56,25,20,258,144,218,4,148,271,256,113,108,257]",1.8659,rectangle
,,,,,,,,,,,,,FF,,,,,,,,1.8501,,,,,,,,,,,,,,,,,,,,,,60fcf4f6c21c55d0cc9081c8,61036d41b25cdebc6342c23e,2021-07-29_20h10.20.746,Simcolourproject_2stim_asymm_v5,2020.2.10,Win32,60,61025ae37ef11b136ea224fe,,,,,,,,,461,-41,-122,1,0,0,response5disk,,3,0,-6,1,0,0,rectangle,0,-6,1,0,0,0,-6,1,0,0,0,148,148,34,1,,,,,,,,
,,,,,,,,,,,,,FF,,,,,,,,1.416,,,,,,,,,,,,,,,,,,,,,,60fcf4f6c21c55d0cc9081c8,61036d41b25cdebc6342c23e,2021-07-29_20h10.20.746,Simcolourproject_2stim_asymm_v5,2020.2.10,Win32,60,61025ae37ef11b136ea224fe,,,,,,,,,2966,54,-131,1,0,0,response3disk,,4,9,6,1,0,0,rectangle,9,6,1,0,0,9,6,1,0,0,0,149,149,102,1,,,,,,,,
,,,,,,,,,,,,,FF,,,,,,,,2.6667,,,,,,,,,,,,,,,,,,,,,,60fcf4f6c21c55d0cc9081c8,61036d41b25cdebc6342c23e,2021-07-29_20h10.20.746,Simcolourproject_2stim_asymm_v5,2020.2.10,Win32,60,61025ae37ef11b136ea224fe,,,,,,,,,140,123,-79,1,0,0,response3disk,,5,-4,-10,1,0,0,rectangle,-4,-10,1,0,0,-4,-10,1,0,0,0,150,150,141,1,,,,,,,,
,,,,,,,,,,,,,FF,,,,,,,,1.2827,,,,,,,,,,,,,,,,,,,,,,60fcf4f6c21c55d0cc9081c8,61036d41b25cdebc6342c23e,2021-07-29_20h10.20.746,Simcolourproject_2stim_asymm_v5,2020.2.10,Win32,60,61025ae37ef11b136ea224fe,,,,,,,,,2661,-53,-123,1,0,0,response5disk,,3,-15,1,1,0,0,rectangle,-15,1,1,0,0,-15,1,1,0,0,0,151,151,124,1,,,,,,,,
,,,,,,,,,,,,,FF,,,,,,,,1.8976,,,,,,,,,,,,,,,,,,,,,,60fcf4f6c21c55d0cc9081c8,61036d41b25cdebc6342c23e,2021-07-29_20h10.20.746,Simcolourproject_2stim_asymm_v5,2020.2.10,Win32,60,61025ae37ef11b136ea224fe,,,,,,,,,2571,62,-48,1,0,0,response3disk,,5,-14,2,1,0,0,rectangle,-14,2,1,0,0,-14,2,1,0,0,0,152,152,94,1,,,,,,,,
,,,,,,,,,,,,,FF,,,,,,,,2.8501,,,,,,,,,,,,,,,,,,,,,,60fcf4f6c21c55d0cc9081c8,61036d41b25cdebc6342c23e,2021-07-29_20h10.20.746,Simcolourproject_2stim_asymm_v5,2020.2.10,Win32,60,61025ae37ef11b136ea224fe,,,,,,,,,3744,-62,-114,1,0,0,response5disk,,3,3,13,1,0,0,rectangle,3,13,1,0,0,3,13,1,0,0,0,153,153,36,1,,,,,,,,
,,,,,,,,,,,,,FF,,,,,,,,1.1671,,,,,,,,,,,,,,,,,,,,,,60fcf4f6c21c55d0cc9081c8,61036d41b25cdebc6342c23e,2021-07-29_20h10.20.746,Simcolourproject_2stim_asymm_v5,2020.2.10,Win32,60,61025ae37ef11b136ea224fe,,,,,,,,,486,105,-71,1,0,0,response3disk,,5,11,8,1,0,0,rectangle,11,8,1,0,0,11,8,1,0,0,0,154,154,16,1,,,,,,,,
,,,,,,,,,,,,,FF,,,,,,,,4.2827,,,,,,,,,,,,,,,,,,,,,,60fcf4f6c21c55d0cc9081c8,61036d41b25cdebc6342c23e,2021-07-29_20h10.20.746,Simcolourproject_2stim_asymm_v5,2020.2.10,Win32,60,61025ae37ef11b136ea224fe,,,,,,,,,573,103,-91,1,0,0,response3disk,,5,2,-1,1,0,0,rectangle,2,-1,1,0,0,2,-1,1,0,0,0,155,155,42,1,,,,,,,,
,,,,,,,,,,,,,FF,,,,,,,,1.6494,,,,,,,,,,,,,,,,,,,,,,60fcf4f6c21c55d0cc9081c8,61036d41b25cdebc6342c23e,2021-07-29_20h10.20.746,Simcolourproject_2stim_asymm_v5,2020.2.10,Win32,60,61025ae37ef11b136ea224fe,,,,,,,,,200,107,35,1,0,0,response1disk,,6,28,15,1,0,0,rectangle,28,15,1,0,0,28,15,1,0,0,0,156,156,148,1,,,,,,,,
,,,,,,,,,,,,,FF,,,,,,,,1.9667,,,,,,,,,,,,,,,,,,,,,,60fcf4f6c21c55d0cc9081c8,61036d41b25cdebc6342c23e,2021-07-29_20h10.20.746,Simcolourproject_2stim_asymm_v5,2020.2.10,Win32,60,61025ae37ef11b136ea224fe,,,,,,,,,4037,69,143,1,0,0,response1disk,,7,6,-5,1,0,0,rectangle,6,-5,1,0,0,6,-5,1,0,0,0,157,157,38,1,,,,,,,,
,,,,,,,,,,,,,FF,,,,,,,,2.0003,,,,,,,,,,,,,,,,,,,,,,60fcf4f6c21c55d0cc9081c8,61036d41b25cdebc6342c23e,2021-07-29_20h10.20.746,Simcolourproject_2stim_asymm_v5,2020.2.10,Win32,60,61025ae37ef11b136ea224fe,,,,,,,,,3627,71,-137,1,0,0,response3disk,,4,27,-10,1,0,0,rectangle,27,-10,1,0,0,27,-10,1,0,0,0,158,158,77,1,,,,,,,,
,,,,,,,,,,,,,FF,,,,,,,,1.2174,,,,,,,,,,,,,,,,,,,,,,60fcf4f6c21c55d0cc9081c8,61036d41b25cdebc6342c23e,2021-07-29_20h10.20.746,Simcolourproject_2stim_asymm_v5,2020.2.10,Win32,60,61025ae37ef11b136ea224fe,,,,,,,,,2384,136,65,1,0,0,response1disk,,6,12,2,1,0,0,rectangle,12,2,1,0,0,12,2,1,0,0,0,159,159,111,1,,,,,,,,
,,,,,,,,,,,,,FF,,,,,,,,2.4668,,,,,,,,,,,,,,,,,,,,,,60fcf4f6c21c55d0cc9081c8,61036d41b25cdebc6342c23e,2021-07-29_20h10.20.746,Simcolourproject_2stim_asymm_v5,2020.2.10,Win32,60,61025ae37ef11b136ea224fe,,,,,,,,,3464,140,53,1,0,0,response1disk,,6,23,-13,1,0,0,rectangle,23,-13,1,0,0,23,-13,1,0,0,1,0,160,41,1,,,,,,,,
,,,,,,,,,,,,,FF,,,,,,,,1.5163,,,,,,,,,,,,,,,,,,,,,,60fcf4f6c21c55d0cc9081c8,61036d41b25cdebc6342c23e,2021-07-29_20h10.20.746,Simcolourproject_2stim_asymm_v5,2020.2.10,Win32,60,61025ae37ef11b136ea224fe,,,,,,,,,1751,-119,-74,1,0,0,response5disk,,2,-15,-5,1,0,0,rectangle,-15,-5,1,0,0,-15,-5,1,0,0,1,1,161,72,1,,,,,,,,
,,,,,,,,,,,,,FF,,,,,,,,0.9167,,,,,,,,,,,,,,,,,,,,,,60fcf4f6c21c55d0cc9081c8,61036d41b25cdebc6342c23e,2021-07-29_20h10.20.746,Simcolourproject_2stim_asymm_v5,2020.2.10,Win32,60,61025ae37ef11b136ea224fe,,,,,,,,,718,-112,-53,1,0,0,response5disk,,2,4,6,1,0,0,rectangle,4,6,1,0,0,4,6,1,0,0,1,2,162,0,1,,,,,,,,
,,,,,,,,,,,,,FF,,,,,,,,2.1497,,,,,,,,,,,,,,,,,,,,,,60fcf4f6c21c55d0cc9081c8,61036d41b25cdebc6342c23e,2021-07-29_20h10.20.746,Simcolourproject_2stim_asymm_v5,2020.2.10,Win32,60,61025ae37ef11b136ea224fe,,,,,,,,,2744,44,99,1,0,0,response1disk,,7,-22,4,1,0,0,rectangle,-22,4,1,0,0,-22,4,1,0,0,1,3,163,44,1,,,,,,,,
,,,,,,,,,,,,,FF,,,,,,,,1.4499,,,,,,,,,,,,,,,,,,,,,,60fcf4f6c21c55d0cc9081c8,61036d41b25cdebc6342c23e,2021-07-29_20h10.20.746,Simcolourproject_2stim_asymm_v5,2020.2.10,Win32,60,61025ae37ef11b136ea224fe,,,,,,,,,3545,73,-101,1,0,0,response3disk,,4,-1,-4,1,0,0,rectangle,-1,-4,1,0,0,-1,-4,1,0,0,1,4,164,40,1,,,,,,,,
,,,,,,,,,,,,,FF,,,,,,,,1.7667,,,,,,,,,,,,,,,,,,,,,,60fcf4f6c21c55d0cc9081c8,61036d41b25cdebc6342c23e,2021-07-29_20h10.20.746,Simcolourproject_2stim_asymm_v5,2020.2.10,Win32,60,61025ae37ef11b136ea224fe,,,,,,,,,3307,146,60,1,0,0,response1disk,,6,16,3,1,0,0,rectangle,16,3,1,0,0,16,3,1,0,0,1,5,165,26,1,,,,,,,,
,,,,,,,,,,,,,FF,,,,,,,,2.8334,,,,,,,,,,,,,,,,,,,,,,60fcf4f6c21c55d0cc9081c8,61036d41b25cdebc6342c23e,2021-07-29_20h10.20.746,Simcolourproject_2stim_asymm_v5,2020.2.10,Win32,60,61025ae37ef11b136ea224fe,,,,,,,,,1089,61,-108,1,0,0,response3disk,,4,28,0,1,0,0,rectangle,28,0,1,0,0,28,0,1,0,0,1,6,166,27,1,,,,,,,,
,,,,,,,,,,,,,FF,,,,,,,,1.2994,,,,,,,,,,,,,,,,,,,,,,60fcf4f6c21c55d0cc9081c8,61036d41b25cdebc6342c23e,2021-07-29_20h10.20.746,Simcolourproject_2stim_asymm_v5,2020.2.10,Win32,60,61025ae37ef11b136ea224fe,,,,,,,,,1471,134,-49,1,0,0,response3disk,,5,-1,-7,1,0,0,rectangle,-1,-7,1,0,0,-1,-7,1,0,0,1,7,167,66,1,,,,,,,,
,,,,,,,,,,,,,FF,,,,,,,,1.8501,,,,,,,,,,,,,,,,,,,,,,60fcf4f6c21c55d0cc9081c8,61036d41b25cdebc6342c23e,2021-07-29_20h10.20.746,Simcolourproject_2stim_asymm_v5,2020.2.10,Win32,60,61025ae37ef11b136ea224fe,,,,,,,,,1759,146,52,1,0,0,response1disk,,6,35,15,1,0,0,rectangle,35,15,1,0,0,35,15,1,0,0,1,8,168,69,1,,,,,,,,
,,,,,,,,,,,,,FF,,,,,,,,1.2827,,,,,,,,,,,,,,,,,,,,,,60fcf4f6c21c55d0cc9081c8,61036d41b25cdebc6342c23e,2021-07-29_20h10.20.746,Simcolourproject_2stim_asymm_v5,2020.2.10,Win32,60,61025ae37ef11b136ea224fe,,,,,,,,,2176,100,65,1,0,0,response1disk,,6,9,7,1,0,0,rectangle,9,7,1,0,0,9,7,1,0,0,1,9,169,56,1,,,,,,,,
,,,,,,,,,,,,,FF,,,,,,,,1.2835,,,,,,,,,,,,,,,,,,,,,,60fcf4f6c21c55d0cc9081c8,61036d41b25cdebc6342c23e,2021-07-29_20h10.20.746,Simcolourproject_2stim_asymm_v5,2020.2.10,Win32,60,61025ae37ef11b136ea224fe,,,,,,,,,3554,-61,-110,1,0,0,response5disk,,3,31,9,1,0,0,rectangle,31,9,1,0,0,31,9,1,0,0,1,10,170,98,1,,,,,,,,
,,,,,,,,,,,,,FF,,,,,,,,2.3841,,,,,,,,,,,,,,,,,,,,,,60fcf4f6c21c55d0cc9081c8,61036d41b25cdebc6342c23e,2021-07-29_20h10.20.746,Simcolourproject_2stim_asymm_v5,2020.2.10,Win32,60,61025ae37ef11b136ea224fe,,,,,,,,,4238,136,50,1,0,0,response1disk,,6,19,13,1,0,0,rectangle,19,13,1,0,0,19,13,1,0,0,1,11,171,81,1,,,,,,,,
,,,,,,,,,,,,,FF,,,,,,,,2.2995,,,,,,,,,,,,,,,,,,,,,,60fcf4f6c21c55d0cc9081c8,61036d41b25cdebc6342c23e,2021-07-29_20h10.20.746,Simcolourproject_2stim_asymm_v5,2020.2.10,Win32,60,61025ae37ef11b136ea224fe,,,,,,,,,3774,68,-116,1,0,0,response3disk,,4,17,6,1,0,0,rectangle,17,6,1,0,0,17,6,1,0,0,1,12,172,67,1,,,,,,,,
,,,,,,,,,,,,,FF,,,,,,,,1.2162,,,,,,,,,,,,,,,,,,,,,,60fcf4f6c21c55d0cc9081c8,61036d41b25cdebc6342c23e,2021-07-29_20h10.20.746,Simcolourproject_2stim_asymm_v5,2020.2.10,Win32,60,61025ae37ef11b136ea224fe,,,,,,,,,1529,127,-67,1,0,0,response3disk,,5,3,1,1,0,0,rectangle,3,1,1,0,0,3,1,1,0,0,1,13,173,60,1,,,,,,,,
,,,,,,,,,,,,,FF,,,,,,,,1.3008,,,,,,,,,,,,,,,,,,,,,,60fcf4f6c21c55d0cc9081c8,61036d41b25cdebc6342c23e,2021-07-29_20h10.20.746,Simcolourproject_2stim_asymm_v5,2020.2.10,Win32,60,61025ae37ef11b136ea224fe,,,,,,,,,2293,69,-114,1,0,0,response3disk,,4,3,2,1,0,0,rectangle,3,2,1,0,0,3,2,1,0,0,1,14,174,14,1,,,,,,,,
,,,,,,,,,,,,,FF,,,,,,,,2.1828,,,,,,,,,,,,,,,,,,,,,,60fcf4f6c21c55d0cc9081c8,61036d41b25cdebc6342c23e,2021-07-29_20h10.20.746,Simcolourproject_2stim_asymm_v5,2020.2.10,Win32,60,61025ae37ef11b136ea224fe,,,,,,,,,4319,133,-63,1,0,0,response3disk,,5,-3,-2,1,0,0,rectangle,-3,-2,1,0,0,-3,-2,1,0,0,1,15,175,64,1,,,,,,,,
,,,,,,,,,,,,,FF,,,,,,,,1.2507,,,,,,,,,,,,,,,,,,,,,,60fcf4f6c21c55d0cc9081c8,61036d41b25cdebc6342c23e,2021-07-29_20h10.20.746,Simcolourproject_2stim_asymm_v5,2020.2.10,Win32,60,61025ae37ef11b136ea224fe,,,,,,,,,124,67,108,1,0,0,response1disk,,7,25,8,1,0,0,rectangle,25,8,1,0,0,25,8,1,0,0,1,16,176,49,1,,,,,,,,
,,,,,,,,,,,,,FF,,,,,,,,0.8978,,,,,,,,,,,,,,,,,,,,,,60fcf4f6c21c55d0cc9081c8,61036d41b25cdebc6342c23e,2021-07-29_20h10.20.746,Simcolourproject_2stim_asymm_v5,2020.2.10,Win32,60,61025ae37ef11b136ea224fe,,,,,,,,,1826,-54,-114,1,0,0,response5disk,,3,24,10,1,0,0,rectangle,24,10,1,0,0,24,10,1,0,0,1,17,177,124,1,,,,,,,,
,,,,,,,,,,,,,FF,,,,,,,,5.2661,,,,,,,,,,,,,,,,,,,,,,60fcf4f6c21c55d0cc9081c8,61036d41b25cdebc6342c23e,2021-07-29_20h10.20.746,Simcolourproject_2stim_asymm_v5,2020.2.10,Win32,60,61025ae37ef11b136ea224fe,,,,,,,,,2321,-63,-68,1,0,0,response5disk,,3,17,5,1,0,0,rectangle,17,5,1,0,0,17,5,1,0,0,1,18,178,144,1,,,,,,,,
,,,,,,,,,,,,,FF,,,,,,,,2.2495,,,,,,,,,,,,,,,,,,,,,,60fcf4f6c21c55d0cc9081c8,61036d41b25cdebc6342c23e,2021-07-29_20h10.20.746,Simcolourproject_2stim_asymm_v5,2020.2.10,Win32,60,61025ae37ef11b136ea224fe,,,,,,,,,3487,-68,-124,1,0,0,response5disk,,3,14,3,1,0,0,rectangle,14,3,1,0,0,14,3,1,0,0,1,19,179,136,1,,,,,,,,
,,,,,,,,,,,,,FF,,,,,,,,2.0834,,,,,,,,,,,,,,,,,,,,,,60fcf4f6c21c55d0cc9081c8,61036d41b25cdebc6342c23e,2021-07-29_20h10.20.746,Simcolourproject_2stim_asymm_v5,2020.2.10,Win32,60,61025ae37ef11b136ea224fe,,,,,,,,,425,50,-133,1,0,0,response3disk,,4,15,13,1,0,0,rectangle,15,13,1,0,0,15,13,1,0,0,1,20,180,140,1,,,,,,,,
,,,,,,,,,,,,,FF,,,,,,,,1.183,,,,,,,,,,,,,,,,,,,,,,60fcf4f6c21c55d0cc9081c8,61036d41b25cdebc6342c23e,2021-07-29_20h10.20.746,Simcolourproject_2stim_asymm_v5,2020.2.10,Win32,60,61025ae37ef11b136ea224fe,,,,,,,,,1368,-65,98,1,0,0,response7disk,,0,-36,0,1,0,0,rectangle,109,58,1,0,0,17,1,1,0,0,1,21,181,17,1,,response1disk_3,TRUE,6,6,"[242,259,194,196,182,207,120,56,25,20,258,144,218,4,148,271,256,113,108,257]",1.6496,rectangle
,,,,,,,,,,,,,FF,,,,,,,,2.1835,,,,,,,,,,,,,,,,,,,,,,60fcf4f6c21c55d0cc9081c8,61036d41b25cdebc6342c23e,2021-07-29_20h10.20.746,Simcolourproject_2stim_asymm_v5,2020.2.10,Win32,60,61025ae37ef11b136ea224fe,,,,,,,,,3899,-131,-93,1,0,0,response5disk,,2,-8,12,1,0,0,rectangle,-8,12,1,0,0,-8,12,1,0,0,1,22,182,143,1,,,,,,,,
,,,,,,,,,,,,,FF,,,,,,,,1.5495,,,,,,,,,,,,,,,,,,,,,,60fcf4f6c21c55d0cc9081c8,61036d41b25cdebc6342c23e,2021-07-29_20h10.20.746,Simcolourproject_2stim_asymm_v5,2020.2.10,Win32,60,61025ae37ef11b136ea224fe,,,,,,,,,202,48,-117,1,0,0,response3disk,,4,21,-6,1,0,0,rectangle,21,-6,1,0,0,21,-6,1,0,0,1,23,183,100,1,,,,,,,,
,,,,,,,,,,,,,FF,,,,,,,,4.1499,,,,,,,,,,,,,,,,,,,,,,60fcf4f6c21c55d0cc9081c8,61036d41b25cdebc6342c23e,2021-07-29_20h10.20.746,Simcolourproject_2stim_asymm_v5,2020.2.10,Win32,60,61025ae37ef11b136ea224fe,,,,,,,,,1263,-45,-145,1,0,0,response5disk,,3,-26,11,1,0,0,rectangle,-26,11,1,0,0,-26,11,1,0,0,1,24,184,93,1,,,,,,,,
,,,,,,,,,,,,,FF,,,,,,,,1.3327,,,,,,,,,,,,,,,,,,,,,,60fcf4f6c21c55d0cc9081c8,61036d41b25cdebc6342c23e,2021-07-29_20h10.20.746,Simcolourproject_2stim_asymm_v5,2020.2.10,Win32,60,61025ae37ef11b136ea224fe,,,,,,,,,1274,-60,-129,1,0,0,response5disk,,3,7,7,1,0,0,rectangle,7,7,1,0,0,7,7,1,0,0,1,25,185,142,1,,,,,,,,
,,,,,,,,,,,,,FF,,,,,,,,1.6496,,,,,,,,,,,,,,,,,,,,,,60fcf4f6c21c55d0cc9081c8,61036d41b25cdebc6342c23e,2021-07-29_20h10.20.746,Simcolourproject_2stim_asymm_v5,2020.2.10,Win32,60,61025ae37ef11b136ea224fe,,,,,,,,,1797,58,-137,1,0,0,response3disk,,4,26,-6,1,0,0,rectangle,26,-6,1,0,0,26,-6,1,0,0,1,26,186,1,1,,,,,,,,
,,,,,,,,,,,,,FF,,,,,,,,1.1333,,,,,,,,,,,,,,,,,,,,,,60fcf4f6c21c55d0cc9081c8,61036d41b25cdebc6342c23e,2021-07-29_20h10.20.746,Simcolourproject_2stim_asymm_v5,2020.2.10,Win32,60,61025ae37ef11b136ea224fe,,,,,,,,,3667,106,35,1,0,0,response1disk,,6,1,9,1,0,0,rectangle,1,9,1,0,0,1,9,1,0,0,1,27,187,146,1,,,,,,,,
,,,,,,,,,,,,,FF,,,,,,,,3.5162,,,,,,,,,,,,,,,,,,,,,,60fcf4f6c21c55d0cc9081c8,61036d41b25cdebc6342c23e,2021-07-29_20h10.20.746,Simcolourproject_2stim_asymm_v5,2020.2.10,Win32,60,61025ae37ef11b136ea224fe,,,,,,,,,3923,47,108,1,0,0,response1disk,,7,4,11,1,0,0,rectangle,4,11,1,0,0,4,11,1,0,0,1,28,188,46,1,,,,,,,,
,,,,,,,,,,,,,FF,,,,,,,,1.1833,,,,,,,,,,,,,,,,,,,,,,60fcf4f6c21c55d0cc9081c8,61036d41b25cdebc6342c23e,2021-07-29_20h10.20.746,Simcolourproject_2stim_asymm_v5,2020.2.10,Win32,60,61025ae37ef11b136ea224fe,,,,,,,,,2642,54,-101,1,0,0,response3disk,,4,28,-14,1,0,0,rectangle,28,-14,1,0,0,28,-14,1,0,0,1,29,189,36,1,,,,,,,,
,,,,,,,,,,,,,FF,,,,,,,,1.6333,,,,,,,,,,,,,,,,,,,,,,60fcf4f6c21c55d0cc9081c8,61036d41b25cdebc6342c23e,2021-07-29_20h10.20.746,Simcolourproject_2stim_asymm_v5,2020.2.10,Win32,60,61025ae37ef11b136ea224fe,,,,,,,,,1225,-56,-144,1,0,0,response5disk,,3,8,1,1,0,0,rectangle,8,1,1,0,0,8,1,1,0,0,1,30,190,154,1,,,,,,,,
,,,,,,,,,,,,,FF,,,,,,,,1.8338,,,,,,,,,,,,,,,,,,,,,,60fcf4f6c21c55d0cc9081c8,61036d41b25cdebc6342c23e,2021-07-29_20h10.20.746,Simcolourproject_2stim_asymm_v5,2020.2.10,Win32,60,61025ae37ef11b136ea224fe,,,,,,,,,832,68,-105,1,0,0,response3disk,,4,30,2,1,0,0,rectangle,30,2,1,0,0,30,2,1,0,0,1,31,191,122,1,,,,,,,,
,,,,,,,,,,,,,FF,,,,,,,,1.2332,,,,,,,,,,,,,,,,,,,,,,60fcf4f6c21c55d0cc9081c8,61036d41b25cdebc6342c23e,2021-07-29_20h10.20.746,Simcolourproject_2stim_asymm_v5,2020.2.10,Win32,60,61025ae37ef11b136ea224fe,,,,,,,,,4122,-71,-102,1,0,0,response5disk,,3,-18,-9,1,0,0,rectangle,-18,-9,1,0,0,-18,-9,1,0,0,1,32,192,32,1,,,,,,,,
,,,,,,,,,,,,,FF,,,,,,,,2.6663,,,,,,,,,,,,,,,,,,,,,,60fcf4f6c21c55d0cc9081c8,61036d41b25cdebc6342c23e,2021-07-29_20h10.20.746,Simcolourproject_2stim_asymm_v5,2020.2.10,Win32,60,61025ae37ef11b136ea224fe,,,,,,,,,2781,-53,-126,1,0,0,response5disk,,3,-14,20,1,0,0,rectangle,-103,-54,1,0,0,7,5,1,0,0,1,33,193,84,1,,response5disk_3,TRUE,2,2,"[242,259,194,196,182,207,120,56,25,20,258,144,218,4,148,271,256,113,108,257]",1.5001,rectangle
,,,,,,,,,,,,,FF,,,,,,,,1.066,,,,,,,,,,,,,,,,,,,,,,60fcf4f6c21c55d0cc9081c8,61036d41b25cdebc6342c23e,2021-07-29_20h10.20.746,Simcolourproject_2stim_asymm_v5,2020.2.10,Win32,60,61025ae37ef11b136ea224fe,,,,,,,,,162,52,-105,1,0,0,response3disk,,4,29,2,1,0,0,rectangle,29,2,1,0,0,29,2,1,0,0,1,34,194,125,1,,,,,,,,
,,,,,,,,,,,,,FF,,,,,,,,3.2502,,,,,,,,,,,,,,,,,,,,,,60fcf4f6c21c55d0cc9081c8,61036d41b25cdebc6342c23e,2021-07-29_20h10.20.746,Simcolourproject_2stim_asymm_v5,2020.2.10,Win32,60,61025ae37ef11b136ea224fe,,,,,,,,,4357,48,-122,1,0,0,response3disk,,4,-19,3,1,0,0,rectangle,-68,-134,1,0,0,21,-7,1,0,0,1,35,195,31,1,,response5disk_3,TRUE,3,3,"[242,259,194,196,182,207,120,56,25,20,258,144,218,4,148,271,256,113,108,257]",1.8834,rectangle
,,,,,,,,,,,,,FF,,,,,,,,2.8495,,,,,,,,,,,,,,,,,,,,,,60fcf4f6c21c55d0cc9081c8,61036d41b25cdebc6342c23e,2021-07-29_20h10.20.746,Simcolourproject_2stim_asymm_v5,2020.2.10,Win32,60,61025ae37ef11b136ea224fe,,,,,,,,,11,-59,-105,1,0,0,response5disk,,3,-7,4,1,0,0,rectangle,-7,4,1,0,0,-7,4,1,0,0,1,36,196,90,1,,,,,,,,
,,,,,,,,,,,,,FF,,,,,,,,1.2161,,,,,,,,,,,,,,,,,,,,,,60fcf4f6c21c55d0cc9081c8,61036d41b25cdebc6342c23e,2021-07-29_20h10.20.746,Simcolourproject_2stim_asymm_v5,2020.2.10,Win32,60,61025ae37ef11b136ea224fe,,,,,,,,,3508,63,-144,1,0,0,response3disk,,4,26,-2,1,0,0,rectangle,26,-2,1,0,0,26,-2,1,0,0,1,37,197,38,1,,,,,,,,
,,,,,,,,,,,,,FF,,,,,,,,1.2163,,,,,,,,,,,,,,,,,,,,,,60fcf4f6c21c55d0cc9081c8,61036d41b25cdebc6342c23e,2021-07-29_20h10.20.746,Simcolourproject_2stim_asymm_v5,2020.2.10,Win32,60,61025ae37ef11b136ea224fe,,,,,,,,,3715,107,-61,1,0,0,response3disk,,5,2,-5,1,0,0,rectangle,2,-5,1,0,0,2,-5,1,0,0,1,38,198,94,1,,,,,,,,
,,,,,,,,,,,,,FF,,,,,,,,1.2002,,,,,,,,,,,,,,,,,,,,,,60fcf4f6c21c55d0cc9081c8,61036d41b25cdebc6342c23e,2021-07-29_20h10.20.746,Simcolourproject_2stim_asymm_v5,2020.2.10,Win32,60,61025ae37ef11b136ea224fe,,,,,,,,,3716,130,-66,1,0,0,response3disk,,5,35,3,1,0,0,rectangle,35,3,1,0,0,35,3,1,0,0,1,39,199,148,1,,,,,,,,
,,,,,,,,,,,,,FF,,,,,,,,2.2829,,,,,,,,,,,,,,,,,,,,,,60fcf4f6c21c55d0cc9081c8,61036d41b25cdebc6342c23e,2021-07-29_20h10.20.746,Simcolourproject_2stim_asymm_v5,2020.2.10,Win32,60,61025ae37ef11b136ea224fe,,,,,,,,,2322,114,42,1,0,0,response1disk,,6,38,-10,1,0,0,rectangle,38,-10,1,0,0,38,-10,1,0,0,1,40,200,138,1,,,,,,,,
,,,,,,,,,,,,,FF,,,,,,,,1.4264,,,,,,,,,,,,,,,,,,,,,,60fcf4f6c21c55d0cc9081c8,61036d41b25cdebc6342c23e,2021-07-29_20h10.20.746,Simcolourproject_2stim_asymm_v5,2020.2.10,Win32,60,61025ae37ef11b136ea224fe,,,,,,,,,973,103,-52,1,0,0,response3disk,,5,7,-2,1,0,0,rectangle,7,-2,1,0,0,7,-2,1,0,0,1,41,201,73,1,,,,,,,,
,,,,,,,,,,,,,FF,,,,,,,,1.3143,,,,,,,,,,,,,,,,,,,,,,60fcf4f6c21c55d0cc9081c8,61036d41b25cdebc6342c23e,2021-07-29_20h10.20.746,Simcolourproject_2stim_asymm_v5,2020.2.10,Win32,60,61025ae37ef11b136ea224fe,,,,,,,,,1292,64,-109,1,0,0,response3disk,,4,12,-15,1,0,0,rectangle,12,-15,1,0,0,12,-15,1,0,0,1,42,202,147,1,,,,,,,,
,,,,,,,,,,,,,FF,,,,,,,,9.1833,,,,,,,,,,,,,,,,,,,,,,60fcf4f6c21c55d0cc9081c8,61036d41b25cdebc6342c23e,2021-07-29_20h10.20.746,Simcolourproject_2stim_asymm_v5,2020.2.10,Win32,60,61025ae37ef11b136ea224fe,,,,,,,,,3821,141,74.5,1,0,0,response1disk,,6,20,5.5,1,0,0,rectangle,20,5.5,1,0,0,20,5.5,1,0,0,1,43,203,101,1,,,,,,,,
,,,,,,,,,,,,,FF,,,,,,,,1.8162,,,,,,,,,,,,,,,,,,,,,,60fcf4f6c21c55d0cc9081c8,61036d41b25cdebc6342c23e,2021-07-29_20h10.20.746,Simcolourproject_2stim_asymm_v5,2020.2.10,Win32,60,61025ae37ef11b136ea224fe,,,,,,,,,2683,109,80.5,1,0,0,response1disk,,6,-1,7.5,1,0,0,rectangle,-1,7.5,1,0,0,-1,7.5,1,0,0,1,44,204,39,1,,,,,,,,
,,,,,,,,,,,,,FF,,,,,,,,2.0167,,,,,,,,,,,,,,,,,,,,,,60fcf4f6c21c55d0cc9081c8,61036d41b25cdebc6342c23e,2021-07-29_20h10.20.746,Simcolourproject_2stim_asymm_v5,2020.2.10,Win32,60,61025ae37ef11b136ea224fe,,,,,,,,,1680,128,-53.5,1,0,0,response3disk,,5,6,-1.5,1,0,0,rectangle,6,-1.5,1,0,0,6,-1.5,1,0,0,1,45,205,99,1,,,,,,,,
,,,,,,,,,,,,,FF,,,,,,,,1.1662,,,,,,,,,,,,,,,,,,,,,,60fcf4f6c21c55d0cc9081c8,61036d41b25cdebc6342c23e,2021-07-29_20h10.20.746,Simcolourproject_2stim_asymm_v5,2020.2.10,Win32,60,61025ae37ef11b136ea224fe,,,,,,,,,3656,121,51.5,1,0,0,response1disk,,6,8,1.5,1,0,0,rectangle,-49,113.5,1,0,0,-21,-3.5,1,0,0,1,46,206,108,1,,response7disk_3,TRUE,0,0,"[242,259,194,196,182,207,120,56,25,20,258,144,218,4,148,271,256,113,108,257]",1.4328,rectangle
,,,,,,,,,,,,,FF,,,,,,,,1.0168,,,,,,,,,,,,,,,,,,,,,,60fcf4f6c21c55d0cc9081c8,61036d41b25cdebc6342c23e,2021-07-29_20h10.20.746,Simcolourproject_2stim_asymm_v5,2020.2.10,Win32,60,61025ae37ef11b136ea224fe,,,,,,,,,749,112,50.5,1,0,0,response1disk,,6,7,-3.5,1,0,0,rectangle,7,-3.5,1,0,0,7,-3.5,1,0,0,1,47,207,132,1,,,,,,,,
,,,,,,,,,,,,,FF,,,,,,,,2.0995,,,,,,,,,,,,,,,,,,,,,,60fcf4f6c21c55d0cc9081c8,61036d41b25cdebc6342c23e,2021-07-29_20h10.20.746,Simcolourproject_2stim_asymm_v5,2020.2.10,Win32,60,61025ae37ef11b136ea224fe,,,,,,,,,2059,120,-71.5,1,0,0,response3disk,,5,25,0.5,1,0,0,rectangle,25,0.5,1,0,0,25,0.5,1,0,0,1,48,208,53,1,,,,,,,,
,,,,,,,,,,,,,FF,,,,,,,,1.0328,,,,,,,,,,,,,,,,,,,,,,60fcf4f6c21c55d0cc9081c8,61036d41b25cdebc6342c23e,2021-07-29_20h10.20.746,Simcolourproject_2stim_asymm_v5,2020.2.10,Win32,60,61025ae37ef11b136ea224fe,,,,,,,,,3119,124,43.5,1,0,0,response1disk,,6,26,1.5,1,0,0,rectangle,26,1.5,1,0,0,26,1.5,1,0,0,1,49,209,52,1,,,,,,,,
,,,,,,,,,,,,,FF,,,,,,,,2.0499,,,,,,,,,,,,,,,,,,,,,,60fcf4f6c21c55d0cc9081c8,61036d41b25cdebc6342c23e,2021-07-29_20h10.20.746,Simcolourproject_2stim_asymm_v5,2020.2.10,Win32,60,61025ae37ef11b136ea224fe,,,,,,,,,3493,74,107.5,1,0,0,response1disk,,7,0,10.5,1,0,0,rectangle,0,10.5,1,0,0,0,10.5,1,0,0,1,50,210,30,1,,,,,,,,
,,,,,,,,,,,,,FF,,,,,,,,2.1494,,,,,,,,,,,,,,,,,,,,,,60fcf4f6c21c55d0cc9081c8,61036d41b25cdebc6342c23e,2021-07-29_20h10.20.746,Simcolourproject_2stim_asymm_v5,2020.2.10,Win32,60,61025ae37ef11b136ea224fe,,,,,,,,,3771,131,44.5,1,0,0,response1disk,,6,31,-12.5,1,0,0,rectangle,31,-12.5,1,0,0,31,-12.5,1,0,0,1,51,211,48,1,,,,,,,,
,,,,,,,,,,,,,FF,,,,,,,,1.5995,,,,,,,,,,,,,,,,,,,,,,60fcf4f6c21c55d0cc9081c8,61036d41b25cdebc6342c23e,2021-07-29_20h10.20.746,Simcolourproject_2stim_asymm_v5,2020.2.10,Win32,60,61025ae37ef11b136ea224fe,,,,,,,,,3751,74,-112.5,1,0,0,response3disk,,4,14,3.5,1,0,0,rectangle,14,3.5,1,0,0,14,3.5,1,0,0,1,52,212,34,1,,,,,,,,
,,,,,,,,,,,,,FF,,,,,,,,1.2174,,,,,,,,,,,,,,,,,,,,,,60fcf4f6c21c55d0cc9081c8,61036d41b25cdebc6342c23e,2021-07-29_20h10.20.746,Simcolourproject_2stim_asymm_v5,2020.2.10,Win32,60,61025ae37ef11b136ea224fe,,,,,,,,,394,59,-114.5,1,0,0,response3disk,,4,11,-1.5,1,0,0,rectangle,11,-1.5,1,0,0,11,-1.5,1,0,0,1,53,213,2,1,,,,,,,,
,,,,,,,,,,,,,FF,,,,,,,,1.5835,,,,,,,,,,,,,,,,,,,,,,60fcf4f6c21c55d0cc9081c8,61036d41b25cdebc6342c23e,2021-07-29_20h10.20.746,Simcolourproject_2stim_asymm_v5,2020.2.10,Win32,60,61025ae37ef11b136ea224fe,,,,,,,,,3045,-41,106.5,1,0,0,response7disk,,0,-13,0.5,1,0,0,rectangle,-13,0.5,1,0,0,-13,0.5,1,0,0,1,54,214,114,1,,,,,,,,
,,,,,,,,,,,,,FF,,,,,,,,1.7495,,,,,,,,,,,,,,,,,,,,,,60fcf4f6c21c55d0cc9081c8,61036d41b25cdebc6342c23e,2021-07-29_20h10.20.746,Simcolourproject_2stim_asymm_v5,2020.2.10,Win32,60,61025ae37ef11b136ea224fe,,,,,,,,,2640,75,-123.5,1,0,0,response3disk,,4,-6,4.5,1,0,0,rectangle,-6,4.5,1,0,0,-6,4.5,1,0,0,1,55,215,123,1,,,,,,,,
,,,,,,,,,,,,,FF,,,,,,,,1.416,,,,,,,,,,,,,,,,,,,,,,60fcf4f6c21c55d0cc9081c8,61036d41b25cdebc6342c23e,2021-07-29_20h10.20.746,Simcolourproject_2stim_asymm_v5,2020.2.10,Win32,60,61025ae37ef11b136ea224fe,,,,,,,,,3755,134,-50.5,1,0,0,response3disk,,5,22,-5.5,1,0,0,rectangle,22,-5.5,1,0,0,22,-5.5,1,0,0,1,56,216,78,1,,,,,,,,
,,,,,,,,,,,,,FF,,,,,,,,1.0167,,,,,,,,,,,,,,,,,,,,,,60fcf4f6c21c55d0cc9081c8,61036d41b25cdebc6342c23e,2021-07-29_20h10.20.746,Simcolourproject_2stim_asymm_v5,2020.2.10,Win32,60,61025ae37ef11b136ea224fe,,,,,,,,,4298,122,42.5,1,0,0,response1disk,,6,19,16.5,1,0,0,rectangle,137,56.5,1,0,0,12,-14.5,1,0,0,1,57,217,115,1,,response1disk_3,TRUE,6,6,"[242,259,194,196,182,207,120,56,25,20,258,144,218,4,148,271,256,113,108,257]",1.6155,rectangle
,,,,,,,,,,,,,FF,,,,,,,,1.3163,,,,,,,,,,,,,,,,,,,,,,60fcf4f6c21c55d0cc9081c8,61036d41b25cdebc6342c23e,2021-07-29_20h10.20.746,Simcolourproject_2stim_asymm_v5,2020.2.10,Win32,60,61025ae37ef11b136ea224fe,,,,,,,,,407,118,63.5,1,0,0,response1disk,,6,12,-9.5,1,0,0,rectangle,12,-9.5,1,0,0,12,-9.5,1,0,0,1,58,218,7,1,,,,,,,,
,,,,,,,,,,,,,FF,,,,,,,,1.7834,,,,,,,,,,,,,,,,,,,,,,60fcf4f6c21c55d0cc9081c8,61036d41b25cdebc6342c23e,2021-07-29_20h10.20.746,Simcolourproject_2stim_asymm_v5,2020.2.10,Win32,60,61025ae37ef11b136ea224fe,,,,,,,,,2618,123,-51.5,1,0,0,response3disk,,5,11,-3.5,1,0,0,rectangle,11,-3.5,1,0,0,11,-3.5,1,0,0,1,59,219,95,1,,,,,,,,
,,,,,,,,,,,,,FF,,,,,,,,3.5662,,,,,,,,,,,,,,,,,,,,,,60fcf4f6c21c55d0cc9081c8,61036d41b25cdebc6342c23e,2021-07-29_20h10.20.746,Simcolourproject_2stim_asymm_v5,2020.2.10,Win32,60,61025ae37ef11b136ea224fe,,,,,,,,,655,111,-60.5,1,0,0,response3disk,,5,-7,-4.5,1,0,0,rectangle,-7,-4.5,1,0,0,-7,-4.5,1,0,0,1,60,220,155,1,,,,,,,,
,,,,,,,,,,,,,FF,,,,,,,,1.8494,,,,,,,,,,,,,,,,,,,,,,60fcf4f6c21c55d0cc9081c8,61036d41b25cdebc6342c23e,2021-07-29_20h10.20.746,Simcolourproject_2stim_asymm_v5,2020.2.10,Win32,60,61025ae37ef11b136ea224fe,,,,,,,,,3530,97,50.5,1,0,0,response1disk,,6,26,-2.5,1,0,0,rectangle,26,-2.5,1,0,0,26,-2.5,1,0,0,1,61,221,134,1,,,,,,,,
,,,,,,,,,,,,,FF,,,,,,,,1.8341,,,,,,,,,,,,,,,,,,,,,,60fcf4f6c21c55d0cc9081c8,61036d41b25cdebc6342c23e,2021-07-29_20h10.20.746,Simcolourproject_2stim_asymm_v5,2020.2.10,Win32,60,61025ae37ef11b136ea224fe,,,,,,,,,3069,123,-55.5,1,0,0,response3disk,,5,29,-3.5,1,0,0,rectangle,29,-3.5,1,0,0,29,-3.5,1,0,0,1,62,222,15,1,,,,,,,,
,,,,,,,,,,,,,FF,,,,,,,,1.5492,,,,,,,,,,,,,,,,,,,,,,60fcf4f6c21c55d0cc9081c8,61036d41b25cdebc6342c23e,2021-07-29_20h10.20.746,Simcolourproject_2stim_asymm_v5,2020.2.10,Win32,60,61025ae37ef11b136ea224fe,,,,,,,,,551,-44,-121.5,1,0,0,response5disk,,3,-21,-5.5,1,0,0,rectangle,-21,-5.5,1,0,0,-21,-5.5,1,0,0,1,63,223,45,1,,,,,,,,
,,,,,,,,,,,,,FF,,,,,,,,2.0334,,,,,,,,,,,,,,,,,,,,,,60fcf4f6c21c55d0cc9081c8,61036d41b25cdebc6342c23e,2021-07-29_20h10.20.746,Simcolourproject_2stim_asymm_v5,2020.2.10,Win32,60,61025ae37ef11b136ea224fe,,,,,,,,,658,126,-50.5,1,0,0,response3disk,,5,15,-3.5,1,0,0,rectangle,15,-3.5,1,0,0,15,-3.5,1,0,0,1,64,224,57,1,,,,,,,,
,,,,,,,,,,,,,FF,,,,,,,,1.5661,,,,,,,,,,,,,,,,,,,,,,60fcf4f6c21c55d0cc9081c8,61036d41b25cdebc6342c23e,2021-07-29_20h10.20.746,Simcolourproject_2stim_asymm_v5,2020.2.10,Win32,60,61025ae37ef11b136ea224fe,,,,,,,,,2788,129,-59.5,1,0,0,response3disk,,5,9,-6.5,1,0,0,rectangle,9,-6.5,1,0,0,9,-6.5,1,0,0,1,65,225,28,1,,,,,,,,
,,,,,,,,,,,,,FF,,,,,,,,2.6994,,,,,,,,,,,,,,,,,,,,,,60fcf4f6c21c55d0cc9081c8,61036d41b25cdebc6342c23e,2021-07-29_20h10.20.746,Simcolourproject_2stim_asymm_v5,2020.2.10,Win32,60,61025ae37ef11b136ea224fe,,,,,,,,,3782,143,54.5,1,0,0,response1disk,,6,-10,-5.5,1,0,0,rectangle,-10,-5.5,1,0,0,-10,-5.5,1,0,0,1,66,226,111,1,,,,,,,,
,,,,,,,,,,,,,FF,,,,,,,,3.0674,,,,,,,,,,,,,,,,,,,,,,60fcf4f6c21c55d0cc9081c8,61036d41b25cdebc6342c23e,2021-07-29_20h10.20.746,Simcolourproject_2stim_asymm_v5,2020.2.10,Win32,60,61025ae37ef11b136ea224fe,,,,,,,,,3469,-77,-101.5,1,0,0,response5disk,,3,7,-8.5,1,0,0,rectangle,7,-8.5,1,0,0,7,-8.5,1,0,0,1,67,227,120,1,,,,,,,,
,,,,,,,,,,,,,FF,,,,,,,,1.1167,,,,,,,,,,,,,,,,,,,,,,60fcf4f6c21c55d0cc9081c8,61036d41b25cdebc6342c23e,2021-07-29_20h10.20.746,Simcolourproject_2stim_asymm_v5,2020.2.10,Win32,60,61025ae37ef11b136ea224fe,,,,,,,,,2337,88,-62.5,1,0,0,response3disk,,5,4,-0.5,1,0,0,rectangle,4,-0.5,1,0,0,4,-0.5,1,0,0,1,68,228,75,1,,,,,,,,
,,,,,,,,,,,,,FF,,,,,,,,0.916,,,,,,,,,,,,,,,,,,,,,,60fcf4f6c21c55d0cc9081c8,61036d41b25cdebc6342c23e,2021-07-29_20h10.20.746,Simcolourproject_2stim_asymm_v5,2020.2.10,Win32,60,61025ae37ef11b136ea224fe,,,,,,,,,1784,-61,-123.5,1,0,0,response5disk,,3,8,4.5,1,0,0,rectangle,8,4.5,1,0,0,8,4.5,1,0,0,1,69,229,112,1,,,,,,,,
,,,,,,,,,,,,,FF,,,,,,,,1.3829,,,,,,,,,,,,,,,,,,,,,,60fcf4f6c21c55d0cc9081c8,61036d41b25cdebc6342c23e,2021-07-29_20h10.20.746,Simcolourproject_2stim_asymm_v5,2020.2.10,Win32,60,61025ae37ef11b136ea224fe,,,,,,,,,315,139,49.5,1,0,0,response1disk,,6,24,-8.5,1,0,0,rectangle,24,-8.5,1,0,0,24,-8.5,1,0,0,1,70,230,70,1,,,,,,,,
,,,,,,,,,,,,,FF,,,,,,,,2.3992,,,,,,,,,,,,,,,,,,,,,,60fcf4f6c21c55d0cc9081c8,61036d41b25cdebc6342c23e,2021-07-29_20h10.20.746,Simcolourproject_2stim_asymm_v5,2020.2.10,Win32,60,61025ae37ef11b136ea224fe,,,,,,,,,3236,122,-58.5,1,0,0,response3disk,,5,1,-8.5,1,0,0,rectangle,1,-8.5,1,0,0,1,-8.5,1,0,0,1,71,231,61,1,,,,,,,,
,,,,,,,,,,,,,FF,,,,,,,,1.8503,,,,,,,,,,,,,,,,,,,,,,60fcf4f6c21c55d0cc9081c8,61036d41b25cdebc6342c23e,2021-07-29_20h10.20.746,Simcolourproject_2stim_asymm_v5,2020.2.10,Win32,60,61025ae37ef11b136ea224fe,,,,,,,,,2247,128,40.5,1,0,0,response1disk,,6,28,-11.5,1,0,0,rectangle,28,-11.5,1,0,0,28,-11.5,1,0,0,1,72,232,63,1,,,,,,,,
,,,,,,,,,,,,,FF,,,,,,,,2.6493,,,,,,,,,,,,,,,,,,,,,,60fcf4f6c21c55d0cc9081c8,61036d41b25cdebc6342c23e,2021-07-29_20h10.20.746,Simcolourproject_2stim_asymm_v5,2020.2.10,Win32,60,61025ae37ef11b136ea224fe,,,,,,,,,1825,-49,-118.5,1,0,0,response5disk,,3,7,-4.5,1,0,0,rectangle,7,-4.5,1,0,0,7,-4.5,1,0,0,1,73,233,89,1,,,,,,,,
,,,,,,,,,,,,,FF,,,,,,,,1.2828,,,,,,,,,,,,,,,,,,,,,,60fcf4f6c21c55d0cc9081c8,61036d41b25cdebc6342c23e,2021-07-29_20h10.20.746,Simcolourproject_2stim_asymm_v5,2020.2.10,Win32,60,61025ae37ef11b136ea224fe,,,,,,,,,2289,78,129.5,1,0,0,response1disk,,7,4,-8.5,1,0,0,rectangle,4,-8.5,1,0,0,4,-8.5,1,0,0,1,74,234,23,1,,,,,,,,
,,,,,,,,,,,,,FF,,,,,,,,1.3661,,,,,,,,,,,,,,,,,,,,,,60fcf4f6c21c55d0cc9081c8,61036d41b25cdebc6342c23e,2021-07-29_20h10.20.746,Simcolourproject_2stim_asymm_v5,2020.2.10,Win32,60,61025ae37ef11b136ea224fe,,,,,,,,,120,125,60.5,1,0,0,response1disk,,6,18,-7.5,1,0,0,rectangle,18,-7.5,1,0,0,18,-7.5,1,0,0,1,75,235,86,1,,,,,,,,
,,,,,,,,,,,,,FF,,,,,,,,0.9826,,,,,,,,,,,,,,,,,,,,,,60fcf4f6c21c55d0cc9081c8,61036d41b25cdebc6342c23e,2021-07-29_20h10.20.746,Simcolourproject_2stim_asymm_v5,2020.2.10,Win32,60,61025ae37ef11b136ea224fe,,,,,,,,,3694,59,-109.5,1,0,0,response3disk,,4,9,-16.5,1,0,0,rectangle,9,-16.5,1,0,0,9,-16.5,1,0,0,1,76,236,19,1,,,,,,,,
,,,,,,,,,,,,,FF,,,,,,,,2.4837,,,,,,,,,,,,,,,,,,,,,,60fcf4f6c21c55d0cc9081c8,61036d41b25cdebc6342c23e,2021-07-29_20h10.20.746,Simcolourproject_2stim_asymm_v5,2020.2.10,Win32,60,61025ae37ef11b136ea224fe,,,,,,,,,3372,-56,-101.5,1,0,0,response5disk,,3,-4,-5.5,1,0,0,rectangle,-4,-5.5,1,0,0,-4,-5.5,1,0,0,1,77,237,80,1,,,,,,,,
,,,,,,,,,,,,,FF,,,,,,,,0.9335,,,,,,,,,,,,,,,,,,,,,,60fcf4f6c21c55d0cc9081c8,61036d41b25cdebc6342c23e,2021-07-29_20h10.20.746,Simcolourproject_2stim_asymm_v5,2020.2.10,Win32,60,61025ae37ef11b136ea224fe,,,,,,,,,3218,-54,-108.5,1,0,0,response5disk,,3,-11,-10.5,1,0,0,rectangle,-11,-10.5,1,0,0,-11,-10.5,1,0,0,1,78,238,129,1,,,,,,,,
,,,,,,,,,,,,,FF,,,,,,,,2.9829,,,,,,,,,,,,,,,,,,,,,,60fcf4f6c21c55d0cc9081c8,61036d41b25cdebc6342c23e,2021-07-29_20h10.20.746,Simcolourproject_2stim_asymm_v5,2020.2.10,Win32,60,61025ae37ef11b136ea224fe,,,,,,,,,3502,45,-116.5,1,0,0,response3disk,,4,17,6.5,1,0,0,rectangle,17,6.5,1,0,0,17,6.5,1,0,0,1,79,239,71,1,,,,,,,,
,,,,,,,,,,,,,FF,,,,,,,,1.0834,,,,,,,,,,,,,,,,,,,,,,60fcf4f6c21c55d0cc9081c8,61036d41b25cdebc6342c23e,2021-07-29_20h10.20.746,Simcolourproject_2stim_asymm_v5,2020.2.10,Win32,60,61025ae37ef11b136ea224fe,,,,,,,,,2993,-105,-59.5,1,0,0,response5disk,,2,-9,-10.5,1,0,0,rectangle,-9,-10.5,1,0,0,-9,-10.5,1,0,0,1,80,240,65,1,,,,,,,,
,,,,,,,,,,,,,FF,,,,,,,,0.85,,,,,,,,,,,,,,,,,,,,,,60fcf4f6c21c55d0cc9081c8,61036d41b25cdebc6342c23e,2021-07-29_20h10.20.746,Simcolourproject_2stim_asymm_v5,2020.2.10,Win32,60,61025ae37ef11b136ea224fe,,,,,,,,,423,53,-97.5,1,0,0,response3disk,,4,20,1.5,1,0,0,rectangle,-43,124.5,1,0,0,-6,-12.5,1,0,0,1,81,241,76,1,,response7disk_3,TRUE,0,0,"[242,259,194,196,182,207,120,56,25,20,258,144,218,4,148,271,256,113,108,257]",1.7828,rectangle
,,,,,,,,,,,,,FF,,,,,,,,1.3329,,,,,,,,,,,,,,,,,,,,,,60fcf4f6c21c55d0cc9081c8,61036d41b25cdebc6342c23e,2021-07-29_20h10.20.746,Simcolourproject_2stim_asymm_v5,2020.2.10,Win32,60,61025ae37ef11b136ea224fe,,,,,,,,,3189,27,-112.5,1,0,0,response3disk,,4,14,-2.5,1,0,0,rectangle,14,-2.5,1,0,0,14,-2.5,1,0,0,1,82,242,9,1,,,,,,,,
,,,,,,,,,,,,,FF,,,,,,,,1.0328,,,,,,,,,,,,,,,,,,,,,,60fcf4f6c21c55d0cc9081c8,61036d41b25cdebc6342c23e,2021-07-29_20h10.20.746,Simcolourproject_2stim_asymm_v5,2020.2.10,Win32,60,61025ae37ef11b136ea224fe,,,,,,,,,1687,91,-37.5,1,0,0,response3disk,,5,26,4.5,1,0,0,rectangle,26,4.5,1,0,0,26,4.5,1,0,0,1,83,243,149,1,,,,,,,,
,,,,,,,,,,,,,FF,,,,,,,,1.0834,,,,,,,,,,,,,,,,,,,,,,60fcf4f6c21c55d0cc9081c8,61036d41b25cdebc6342c23e,2021-07-29_20h10.20.746,Simcolourproject_2stim_asymm_v5,2020.2.10,Win32,60,61025ae37ef11b136ea224fe,,,,,,,,,4161,-96,-71.5,1,0,0,response5disk,,2,6,0.5,1,0,0,rectangle,6,0.5,1,0,0,6,0.5,1,0,0,1,84,244,131,1,,,,,,,,
,,,,,,,,,,,,,FF,,,,,,,,0.9828,,,,,,,,,,,,,,,,,,,,,,60fcf4f6c21c55d0cc9081c8,61036d41b25cdebc6342c23e,2021-07-29_20h10.20.746,Simcolourproject_2stim_asymm_v5,2020.2.10,Win32,60,61025ae37ef11b136ea224fe,,,,,,,,,466,47,-86.5,1,0,0,response3disk,,4,22,1.5,1,0,0,rectangle,22,1.5,1,0,0,22,1.5,1,0,0,1,85,245,83,1,,,,,,,,
,,,,,,,,,,,,,FF,,,,,,,,1.2337,,,,,,,,,,,,,,,,,,,,,,60fcf4f6c21c55d0cc9081c8,61036d41b25cdebc6342c23e,2021-07-29_20h10.20.746,Simcolourproject_2stim_asymm_v5,2020.2.10,Win32,60,61025ae37ef11b136ea224fe,,,,,,,,,4061,118,-36.5,1,0,0,response3disk,,5,41,16.5,1,0,0,rectangle,41,16.5,1,0,0,41,16.5,1,0,0,1,86,246,12,1,,,,,,,,
,,,,,,,,,,,,,FF,,,,,,,,1.0995,,,,,,,,,,,,,,,,,,,,,,60fcf4f6c21c55d0cc9081c8,61036d41b25cdebc6342c23e,2021-07-29_20h10.20.746,Simcolourproject_2stim_asymm_v5,2020.2.10,Win32,60,61025ae37ef11b136ea224fe,,,,,,,,,2120,111,59.5,1,0,0,response1disk,,6,9,-8.5,1,0,0,rectangle,9,-8.5,1,0,0,9,-8.5,1,0,0,1,87,247,13,1,,,,,,,,
,,,,,,,,,,,,,FF,,,,,,,,0.9495,,,,,,,,,,,,,,,,,,,,,,60fcf4f6c21c55d0cc9081c8,61036d41b25cdebc6342c23e,2021-07-29_20h10.20.746,Simcolourproject_2stim_asymm_v5,2020.2.10,Win32,60,61025ae37ef11b136ea224fe,,,,,,,,,3374,-66,-112.5,1,0,0,response5disk,,3,-12,1.5,1,0,0,rectangle,-12,1.5,1,0,0,-12,1.5,1,0,0,1,88,248,137,1,,,,,,,,
,,,,,,,,,,,,,FF,,,,,,,,1.516,,,,,,,,,,,,,,,,,,,,,,60fcf4f6c21c55d0cc9081c8,61036d41b25cdebc6342c23e,2021-07-29_20h10.20.746,Simcolourproject_2stim_asymm_v5,2020.2.10,Win32,60,61025ae37ef11b136ea224fe,,,,,,,,,1494,134,46.5,1,0,0,response1disk,,6,18,3.5,1,0,0,rectangle,18,3.5,1,0,0,18,3.5,1,0,0,1,89,249,77,1,,,,,,,,
,,,,,,,,,,,,,FF,,,,,,,,1.2501,,,,,,,,,,,,,,,,,,,,,,60fcf4f6c21c55d0cc9081c8,61036d41b25cdebc6342c23e,2021-07-29_20h10.20.746,Simcolourproject_2stim_asymm_v5,2020.2.10,Win32,60,61025ae37ef11b136ea224fe,,,,,,,,,3113,37,-134.5,1,0,0,response3disk,,4,16,-2.5,1,0,0,rectangle,16,-2.5,1,0,0,16,-2.5,1,0,0,1,90,250,85,1,,,,,,,,
,,,,,,,,,,,,,FF,,,,,,,,1.016,,,,,,,,,,,,,,,,,,,,,,60fcf4f6c21c55d0cc9081c8,61036d41b25cdebc6342c23e,2021-07-29_20h10.20.746,Simcolourproject_2stim_asymm_v5,2020.2.10,Win32,60,61025ae37ef11b136ea224fe,,,,,,,,,3277,-46,-109.5,1,0,0,response5disk,,3,-15,-0.5,1,0,0,rectangle,-15,-0.5,1,0,0,-15,-0.5,1,0,0,1,91,251,51,1,,,,,,,,
,,,,,,,,,,,,,FF,,,,,,,,1.3658,,,,,,,,,,,,,,,,,,,,,,60fcf4f6c21c55d0cc9081c8,61036d41b25cdebc6342c23e,2021-07-29_20h10.20.746,Simcolourproject_2stim_asymm_v5,2020.2.10,Win32,60,61025ae37ef11b136ea224fe,,,,,,,,,1480,45,-119.5,1,0,0,response3disk,,4,-12,-8.5,1,0,0,rectangle,-12,-8.5,1,0,0,-12,-8.5,1,0,0,1,92,252,151,1,,,,,,,,
,,,,,,,,,,,,,FF,,,,,,,,0.8167,,,,,,,,,,,,,,,,,,,,,,60fcf4f6c21c55d0cc9081c8,61036d41b25cdebc6342c23e,2021-07-29_20h10.20.746,Simcolourproject_2stim_asymm_v5,2020.2.10,Win32,60,61025ae37ef11b136ea224fe,,,,,,,,,3893,128,-45.5,1,0,0,response3disk,,5,21,-7.5,1,0,0,rectangle,21,-7.5,1,0,0,21,-7.5,1,0,0,1,93,253,121,1,,,,,,,,
,,,,,,,,,,,,,FF,,,,,,,,1.8166,,,,,,,,,,,,,,,,,,,,,,60fcf4f6c21c55d0cc9081c8,61036d41b25cdebc6342c23e,2021-07-29_20h10.20.746,Simcolourproject_2stim_asymm_v5,2020.2.10,Win32,60,61025ae37ef11b136ea224fe,,,,,,,,,3437,141,48.5,1,0,0,response1disk,,6,30,0.5,1,0,0,rectangle,30,0.5,1,0,0,30,0.5,1,0,0,1,94,254,130,1,,,,,,,,
,,,,,,,,,,,,,FF,,,,,,,,0.8996,,,,,,,,,,,,,,,,,,,,,,60fcf4f6c21c55d0cc9081c8,61036d41b25cdebc6342c23e,2021-07-29_20h10.20.746,Simcolourproject_2stim_asymm_v5,2020.2.10,Win32,60,61025ae37ef11b136ea224fe,,,,,,,,,3839,56,104.5,1,0,0,response1disk,,7,17,-9.5,1,0,0,rectangle,57,-116.5,1,0,0,23,-4.5,1,0,0,1,95,255,152,1,,response3disk_3,TRUE,4,4,"[242,259,194,196,182,207,120,56,25,20,258,144,218,4,148,271,256,113,108,257]",1.434,rectangle
,,,,,,,,,,,,,FF,,,,,,,,0.9328,,,,,,,,,,,,,,,,,,,,,,60fcf4f6c21c55d0cc9081c8,61036d41b25cdebc6342c23e,2021-07-29_20h10.20.746,Simcolourproject_2stim_asymm_v5,2020.2.10,Win32,60,61025ae37ef11b136ea224fe,,,,,,,,,1959,49,-100.5,1,0,0,response3disk,,4,10,10.5,1,0,0,rectangle,129,53.5,1,0,0,17,-1.5,1,0,0,1,96,256,43,1,,response1disk_3,TRUE,6,6,"[242,259,194,196,182,207,120,56,25,20,258,144,218,4,148,271,256,113,108,257]",1.6989,rectangle
,,,,,,,,,,,,,FF,,,,,,,,2.5165,,,,,,,,,,,,,,,,,,,,,,60fcf4f6c21c55d0cc9081c8,61036d41b25cdebc6342c23e,2021-07-29_20h10.20.746,Simcolourproject_2stim_asymm_v5,2020.2.10,Win32,60,61025ae37ef11b136ea224fe,,,,,,,,,397,78,132.5,1,0,0,response1disk,,7,11,4.5,1,0,0,rectangle,-103,59.5,1,0,0,-4,-5.5,1,0,0,1,97,257,21,1,,response7disk_3,TRUE,1,1,"[242,259,194,196,182,207,120,56,25,20,258,144,218,4,148,271,256,113,108,257]",1.4499,rectangle
,,,,,,,,,,,,,FF,,,,,,,,1.7662,,,,,,,,,,,,,,,,,,,,,,60fcf4f6c21c55d0cc9081c8,61036d41b25cdebc6342c23e,2021-07-29_20h10.20.746,Simcolourproject_2stim_asymm_v5,2020.2.10,Win32,60,61025ae37ef11b136ea224fe,,,,,,,,,1230,61,-125.5,1,0,0,response3disk,,4,13,-0.5,1,0,0,rectangle,-97,38.5,1,0,0,-5,-1.5,1,0,0,1,98,258,159,1,,response7disk_3,TRUE,1,1,"[242,259,194,196,182,207,120,56,25,20,258,144,218,4,148,271,256,113,108,257]",1.1667,rectangle
,,,,,,,,,,,,,FF,,,,,,,,2.1835,,,,,,,,,,,,,,,,,,,,,,60fcf4f6c21c55d0cc9081c8,61036d41b25cdebc6342c23e,2021-07-29_20h10.20.746,Simcolourproject_2stim_asymm_v5,2020.2.10,Win32,60,61025ae37ef11b136ea224fe,,,,,,,,,1642,127,45.5,1,0,0,response1disk,,6,18,-1.5,1,0,0,rectangle,18,-1.5,1,0,0,18,-1.5,1,0,0,1,99,259,135,1,,,,,,,,
,,,,,,,,,,,,,FF,,,,,,,,2.3999,,,,,,,,,,,,,,,,,,,,,,60fcf4f6c21c55d0cc9081c8,61036d41b25cdebc6342c23e,2021-07-29_20h10.20.746,Simcolourproject_2stim_asymm_v5,2020.2.10,Win32,60,61025ae37ef11b136ea224fe,,,,,,,,,2374,126,-69.5,1,0,0,response3disk,,5,-5,-7.5,1,0,0,rectangle,-5,-7.5,1,0,0,-5,-7.5,1,0,0,1,100,260,119,1,,,,,,,,
,,,,,,,,,,,,,FF,,,,,,,,2.2328,,,,,,,,,,,,,,,,,,,,,,60fcf4f6c21c55d0cc9081c8,61036d41b25cdebc6342c23e,2021-07-29_20h10.20.746,Simcolourproject_2stim_asymm_v5,2020.2.10,Win32,60,61025ae37ef11b136ea224fe,,,,,,,,,1995,145,-65.5,1,0,0,response3disk,,5,16,-3.5,1,0,0,rectangle,16,-3.5,1,0,0,16,-3.5,1,0,0,1,101,261,103,1,,,,,,,,
,,,,,,,,,,,,,FF,,,,,,,,1.2508,,,,,,,,,,,,,,,,,,,,,,60fcf4f6c21c55d0cc9081c8,61036d41b25cdebc6342c23e,2021-07-29_20h10.20.746,Simcolourproject_2stim_asymm_v5,2020.2.10,Win32,60,61025ae37ef11b136ea224fe,,,,,,,,,72,51,-129.5,1,0,0,response3disk,,4,10,1.5,1,0,0,rectangle,10,1.5,1,0,0,10,1.5,1,0,0,1,102,262,87,1,,,,,,,,
,,,,,,,,,,,,,FF,,,,,,,,1.2996,,,,,,,,,,,,,,,,,,,,,,60fcf4f6c21c55d0cc9081c8,61036d41b25cdebc6342c23e,2021-07-29_20h10.20.746,Simcolourproject_2stim_asymm_v5,2020.2.10,Win32,60,61025ae37ef11b136ea224fe,,,,,,,,,1816,-42,-130.5,1,0,0,response5disk,,3,-7,-12.5,1,0,0,rectangle,-7,-12.5,1,0,0,-7,-12.5,1,0,0,1,103,263,141,1,,,,,,,,
,,,,,,,,,,,,,FF,,,,,,,,1.8662,,,,,,,,,,,,,,,,,,,,,,60fcf4f6c21c55d0cc9081c8,61036d41b25cdebc6342c23e,2021-07-29_20h10.20.746,Simcolourproject_2stim_asymm_v5,2020.2.10,Win32,60,61025ae37ef11b136ea224fe,,,,,,,,,3731,115,-76.5,1,0,0,response3disk,,5,-6,7.5,1,0,0,rectangle,-6,7.5,1,0,0,-6,7.5,1,0,0,1,104,264,117,1,,,,,,,,
,,,,,,,,,,,,,FF,,,,,,,,1.1833,,,,,,,,,,,,,,,,,,,,,,60fcf4f6c21c55d0cc9081c8,61036d41b25cdebc6342c23e,2021-07-29_20h10.20.746,Simcolourproject_2stim_asymm_v5,2020.2.10,Win32,60,61025ae37ef11b136ea224fe,,,,,,,,,957,132,-54.5,1,0,0,response3disk,,5,2,-2.5,1,0,0,rectangle,2,-2.5,1,0,0,2,-2.5,1,0,0,1,105,265,126,1,,,,,,,,
,,,,,,,,,,,,,FF,,,,,,,,0.8162,,,,,,,,,,,,,,,,,,,,,,60fcf4f6c21c55d0cc9081c8,61036d41b25cdebc6342c23e,2021-07-29_20h10.20.746,Simcolourproject_2stim_asymm_v5,2020.2.10,Win32,60,61025ae37ef11b136ea224fe,,,,,,,,,827,120,-54.5,1,0,0,response3disk,,5,-17,3.5,1,0,0,rectangle,-17,3.5,1,0,0,-17,3.5,1,0,0,1,106,266,79,1,,,,,,,,
,,,,,,,,,,,,,FF,,,,,,,,3.3662,,,,,,,,,,,,,,,,,,,,,,60fcf4f6c21c55d0cc9081c8,61036d41b25cdebc6342c23e,2021-07-29_20h10.20.746,Simcolourproject_2stim_asymm_v5,2020.2.10,Win32,60,61025ae37ef11b136ea224fe,,,,,,,,,2299,136,51.5,1,0,0,response1disk,,6,37,5.5,1,0,0,rectangle,37,5.5,1,0,0,37,5.5,1,0,0,1,107,267,59,1,,,,,,,,
,,,,,,,,,,,,,FF,,,,,,,,1.1161,,,,,,,,,,,,,,,,,,,,,,60fcf4f6c21c55d0cc9081c8,61036d41b25cdebc6342c23e,2021-07-29_20h10.20.746,Simcolourproject_2stim_asymm_v5,2020.2.10,Win32,60,61025ae37ef11b136ea224fe,,,,,,,,,4171,56,-128.5,1,0,0,response3disk,,4,13,-3.5,1,0,0,rectangle,13,-3.5,1,0,0,13,-3.5,1,0,0,1,108,268,91,1,,,,,,,,
,,,,,,,,,,,,,FF,,,,,,,,1.8175,,,,,,,,,,,,,,,,,,,,,,60fcf4f6c21c55d0cc9081c8,61036d41b25cdebc6342c23e,2021-07-29_20h10.20.746,Simcolourproject_2stim_asymm_v5,2020.2.10,Win32,60,61025ae37ef11b136ea224fe,,,,,,,,,2621,132,69.5,1,0,0,response1disk,,6,3,10.5,1,0,0,rectangle,3,10.5,1,0,0,3,10.5,1,0,0,1,109,269,25,1,,,,,,,,
,,,,,,,,,,,,,FF,,,,,,,,1.2499,,,,,,,,,,,,,,,,,,,,,,60fcf4f6c21c55d0cc9081c8,61036d41b25cdebc6342c23e,2021-07-29_20h10.20.746,Simcolourproject_2stim_asymm_v5,2020.2.10,Win32,60,61025ae37ef11b136ea224fe,,,,,,,,,571,129,-85.5,1,0,0,response3disk,,5,25,-14.5,1,0,0,rectangle,-52,-134.5,1,0,0,19,-1.5,1,0,0,1,110,270,33,1,,response5disk_3,TRUE,3,3,"[242,259,194,196,182,207,120,56,25,20,258,144,218,4,148,271,256,113,108,257]",1.5324,rectangle
,,,,,,,,,,,,,FF,,,,,,,,0.8994,,,,,,,,,,,,,,,,,,,,,,60fcf4f6c21c55d0cc9081c8,61036d41b25cdebc6342c23e,2021-07-29_20h10.20.746,Simcolourproject_2stim_asymm_v5,2020.2.10,Win32,60,61025ae37ef11b136ea224fe,,,,,,,,,1914,104,-66.5,1,0,0,response3disk,,5,5,-4.5,1,0,0,rectangle,5,-4.5,1,0,0,5,-4.5,1,0,0,1,111,271,158,1,,,,,,,,
,,,,,,,,,,,,,FF,,,,,,,,1.5661,,,,,,,,,,,,,,,,,,,,,,60fcf4f6c21c55d0cc9081c8,61036d41b25cdebc6342c23e,2021-07-29_20h10.20.746,Simcolourproject_2stim_asymm_v5,2020.2.10,Win32,60,61025ae37ef11b136ea224fe,,,,,,,,,1189,134,51.5,1,0,0,response1disk,,6,7,-9.5,1,0,0,rectangle,7,-9.5,1,0,0,7,-9.5,1,0,0,1,112,272,102,1,,,,,,,,
,,,,,,,,,,,,,FF,,,,,,,,1.4993,,,,,,,,,,,,,,,,,,,,,,60fcf4f6c21c55d0cc9081c8,61036d41b25cdebc6342c23e,2021-07-29_20h10.20.746,Simcolourproject_2stim_asymm_v5,2020.2.10,Win32,60,61025ae37ef11b136ea224fe,,,,,,,,,3854,133,-56.5,1,0,0,response3disk,,5,-1,1.5,1,0,0,rectangle,-1,1.5,1,0,0,-1,1.5,1,0,0,1,113,273,47,1,,,,,,,,
,,,,,,,,,,,,,FF,,,,,,,,1.8329,,,,,,,,,,,,,,,,,,,,,,60fcf4f6c21c55d0cc9081c8,61036d41b25cdebc6342c23e,2021-07-29_20h10.20.746,Simcolourproject_2stim_asymm_v5,2020.2.10,Win32,60,61025ae37ef11b136ea224fe,,,,,,,,,327,114,77.5,1,0,0,response1disk,,6,22,-1.5,1,0,0,rectangle,22,-1.5,1,0,0,22,-1.5,1,0,0,1,114,274,3,1,,,,,,,,
,,,,,,,,,,,,,FF,,,,,,,,1.3162,,,,,,,,,,,,,,,,,,,,,,60fcf4f6c21c55d0cc9081c8,61036d41b25cdebc6342c23e,2021-07-29_20h10.20.746,Simcolourproject_2stim_asymm_v5,2020.2.10,Win32,60,61025ae37ef11b136ea224fe,,,,,,,,,2525,123,-62.5,1,0,0,response3disk,,5,4,-8.5,1,0,0,rectangle,4,-8.5,1,0,0,4,-8.5,1,0,0,1,115,275,55,1,,,,,,,,
,,,,,,,,,,,,,FF,,,,,,,,0.9995,,,,,,,,,,,,,,,,,,,,,,60fcf4f6c21c55d0cc9081c8,61036d41b25cdebc6342c23e,2021-07-29_20h10.20.746,Simcolourproject_2stim_asymm_v5,2020.2.10,Win32,60,61025ae37ef11b136ea224fe,,,,,,,,,834,139,-54.5,1,0,0,response3disk,,5,-12,-9.5,1,0,0,rectangle,-12,-9.5,1,0,0,-12,-9.5,1,0,0,1,116,276,109,1,,,,,,,,
,,,,,,,,,,,,,FF,,,,,,,,1.5327,,,,,,,,,,,,,,,,,,,,,,60fcf4f6c21c55d0cc9081c8,61036d41b25cdebc6342c23e,2021-07-29_20h10.20.746,Simcolourproject_2stim_asymm_v5,2020.2.10,Win32,60,61025ae37ef11b136ea224fe,,,,,,,,,1042,139,-57.5,1,0,0,response3disk,,5,-18,-4.5,1,0,0,rectangle,-18,-4.5,1,0,0,-18,-4.5,1,0,0,1,117,277,106,1,,,,,,,,
,,,,,,,,,,,,,FF,,,,,,,,1.9667,,,,,,,,,,,,,,,,,,,,,,60fcf4f6c21c55d0cc9081c8,61036d41b25cdebc6342c23e,2021-07-29_20h10.20.746,Simcolourproject_2stim_asymm_v5,2020.2.10,Win32,60,61025ae37ef11b136ea224fe,,,,,,,,,1785,130,-73.5,1,0,0,response3disk,,5,-29,-12.5,1,0,0,rectangle,-29,-12.5,1,0,0,-29,-12.5,1,0,0,1,118,278,22,1,,,,,,,,
,,,,,,,,,,,,,FF,,,,,,,,1.4507,,,,,,,,,,,,,,,,,,,,,,60fcf4f6c21c55d0cc9081c8,61036d41b25cdebc6342c23e,2021-07-29_20h10.20.746,Simcolourproject_2stim_asymm_v5,2020.2.10,Win32,60,61025ae37ef11b136ea224fe,,,,,,,,,1551,79,-134.5,1,0,0,response3disk,,4,5,-2.5,1,0,0,rectangle,5,-2.5,1,0,0,5,-2.5,1,0,0,1,119,279,74,1,,,,,,,,
,,,,,,,,,,,,,FF,,,,,,,,1.2995,,,,,,,,,,,,,,,,,,,,,,60fcf4f6c21c55d0cc9081c8,61036d41b25cdebc6342c23e,2021-07-29_20h10.20.746,Simcolourproject_2stim_asymm_v5,2020.2.10,Win32,60,61025ae37ef11b136ea224fe,,,,,,,,,1299,132,-67.5,1,0,0,response3disk,,5,-23,2.5,1,0,0,rectangle,-23,2.5,1,0,0,-23,2.5,1,0,0,1,120,280,110,1,,,,,,,,
,,,,,,,,,,,,,FF,,,,,,,,0.9328,,,,,,,,,,,,,,,,,,,,,,60fcf4f6c21c55d0cc9081c8,61036d41b25cdebc6342c23e,2021-07-29_20h10.20.746,Simcolourproject_2stim_asymm_v5,2020.2.10,Win32,60,61025ae37ef11b136ea224fe,,,,,,,,,2606,94,-48.5,1,0,0,response3disk,,5,-44,-2.5,1,0,0,rectangle,-44,-2.5,1,0,0,-44,-2.5,1,0,0,1,121,281,118,1,,,,,,,,
,,,,,,,,,,,,,FF,,,,,,,,0.7668,,,,,,,,,,,,,,,,,,,,,,60fcf4f6c21c55d0cc9081c8,61036d41b25cdebc6342c23e,2021-07-29_20h10.20.746,Simcolourproject_2stim_asymm_v5,2020.2.10,Win32,60,61025ae37ef11b136ea224fe,,,,,,,,,2259,44,-88.5,1,0,0,response3disk,,4,-28,5.5,1,0,0,rectangle,-28,5.5,1,0,0,-28,5.5,1,0,0,1,122,282,50,1,,,,,,,,
,,,,,,,,,,,,,FF,,,,,,,,0.9161,,,,,,,,,,,,,,,,,,,,,,60fcf4f6c21c55d0cc9081c8,61036d41b25cdebc6342c23e,2021-07-29_20h10.20.746,Simcolourproject_2stim_asymm_v5,2020.2.10,Win32,60,61025ae37ef11b136ea224fe,,,,,,,,,3945,118,-66.5,1,0,0,response3disk,,5,6,2.5,1,0,0,rectangle,6,2.5,1,0,0,6,2.5,1,0,0,1,123,283,42,1,,,,,,,,
,,,,,,,,,,,,,FF,,,,,,,,0.866,,,,,,,,,,,,,,,,,,,,,,60fcf4f6c21c55d0cc9081c8,61036d41b25cdebc6342c23e,2021-07-29_20h10.20.746,Simcolourproject_2stim_asymm_v5,2020.2.10,Win32,60,61025ae37ef11b136ea224fe,,,,,,,,,1873,111,-58.5,1,0,0,response3disk,,5,-6,2.5,1,0,0,rectangle,-6,2.5,1,0,0,-6,2.5,1,0,0,1,124,284,157,1,,,,,,,,
,,,,,,,,,,,,,FF,,,,,,,,0.8501,,,,,,,,,,,,,,,,,,,,,,60fcf4f6c21c55d0cc9081c8,61036d41b25cdebc6342c23e,2021-07-29_20h10.20.746,Simcolourproject_2stim_asymm_v5,2020.2.10,Win32,60,61025ae37ef11b136ea224fe,,,,,,,,,99,123,-69.5,1,0,0,response3disk,,5,4,-8.5,1,0,0,rectangle,4,-8.5,1,0,0,4,-8.5,1,0,0,1,125,285,18,1,,,,,,,,
,,,,,,,,,,,,,FF,,,,,,,,0.866,,,,,,,,,,,,,,,,,,,,,,60fcf4f6c21c55d0cc9081c8,61036d41b25cdebc6342c23e,2021-07-29_20h10.20.746,Simcolourproject_2stim_asymm_v5,2020.2.10,Win32,60,61025ae37ef11b136ea224fe,,,,,,,,,4259,119,42.5,1,0,0,response1disk,,6,8,-1.5,1,0,0,rectangle,8,-1.5,1,0,0,8,-1.5,1,0,0,1,126,286,35,1,,,,,,,,
,,,,,,,,,,,,,FF,,,,,,,,1.7168,,,,,,,,,,,,,,,,,,,,,,60fcf4f6c21c55d0cc9081c8,61036d41b25cdebc6342c23e,2021-07-29_20h10.20.746,Simcolourproject_2stim_asymm_v5,2020.2.10,Win32,60,61025ae37ef11b136ea224fe,,,,,,,,,4325,64,100.5,1,0,0,response1disk,,7,16,-0.5,1,0,0,rectangle,16,-0.5,1,0,0,16,-0.5,1,0,0,1,127,287,150,1,,,,,,,,
,,,,,,,,,,,,,FF,,,,,,,,1.0994,,,,,,,,,,,,,,,,,,,,,,60fcf4f6c21c55d0cc9081c8,61036d41b25cdebc6342c23e,2021-07-29_20h10.20.746,Simcolourproject_2stim_asymm_v5,2020.2.10,Win32,60,61025ae37ef11b136ea224fe,,,,,,,,,2639,140,-58.5,1,0,0,response3disk,,5,14,-0.5,1,0,0,rectangle,14,-0.5,1,0,0,14,-0.5,1,0,0,1,128,288,68,1,,,,,,,,
,,,,,,,,,,,,,FF,,,,,,,,1.6,,,,,,,,,,,,,,,,,,,,,,60fcf4f6c21c55d0cc9081c8,61036d41b25cdebc6342c23e,2021-07-29_20h10.20.746,Simcolourproject_2stim_asymm_v5,2020.2.10,Win32,60,61025ae37ef11b136ea224fe,,,,,,,,,1411,53,103.5,1,0,0,response1disk,,7,-7,-8.5,1,0,0,rectangle,-7,-8.5,1,0,0,-7,-8.5,1,0,0,1,129,289,4,1,,,,,,,,
,,,,,,,,,,,,,FF,,,,,,,,0.7661,,,,,,,,,,,,,,,,,,,,,,60fcf4f6c21c55d0cc9081c8,61036d41b25cdebc6342c23e,2021-07-29_20h10.20.746,Simcolourproject_2stim_asymm_v5,2020.2.10,Win32,60,61025ae37ef11b136ea224fe,,,,,,,,,4183,131,-55.5,1,0,0,response3disk,,5,-19,5.5,1,0,0,rectangle,-19,5.5,1,0,0,-19,5.5,1,0,0,1,130,290,58,1,,,,,,,,
,,,,,,,,,,,,,FF,,,,,,,,1.0669,,,,,,,,,,,,,,,,,,,,,,60fcf4f6c21c55d0cc9081c8,61036d41b25cdebc6342c23e,2021-07-29_20h10.20.746,Simcolourproject_2stim_asymm_v5,2020.2.10,Win32,60,61025ae37ef11b136ea224fe,,,,,,,,,384,139,57.5,1,0,0,response1disk,,6,31,-14.5,1,0,0,rectangle,31,-14.5,1,0,0,31,-14.5,1,0,0,1,131,291,116,1,,,,,,,,
,,,,,,,,,,,,,FF,,,,,,,,1.1161,,,,,,,,,,,,,,,,,,,,,,60fcf4f6c21c55d0cc9081c8,61036d41b25cdebc6342c23e,2021-07-29_20h10.20.746,Simcolourproject_2stim_asymm_v5,2020.2.10,Win32,60,61025ae37ef11b136ea224fe,,,,,,,,,18,112,34.5,1,0,0,response1disk,,6,-10,6.5,1,0,0,rectangle,-10,6.5,1,0,0,-10,6.5,1,0,0,1,132,292,107,1,,,,,,,,
,,,,,,,,,,,,,FF,,,,,,,,2.4834,,,,,,,,,,,,,,,,,,,,,,60fcf4f6c21c55d0cc9081c8,61036d41b25cdebc6342c23e,2021-07-29_20h10.20.746,Simcolourproject_2stim_asymm_v5,2020.2.10,Win32,60,61025ae37ef11b136ea224fe,,,,,,,,,4283,135,-55.5,1,0,0,response3disk,,5,15,-14.5,1,0,0,rectangle,15,-14.5,1,0,0,15,-14.5,1,0,0,1,133,293,62,1,,,,,,,,
,,,,,,,,,,,,,FF,,,,,,,,0.8673,,,,,,,,,,,,,,,,,,,,,,60fcf4f6c21c55d0cc9081c8,61036d41b25cdebc6342c23e,2021-07-29_20h10.20.746,Simcolourproject_2stim_asymm_v5,2020.2.10,Win32,60,61025ae37ef11b136ea224fe,,,,,,,,,3600,128,41.5,1,0,0,response1disk,,6,15,-3.5,1,0,0,rectangle,15,-3.5,1,0,0,15,-3.5,1,0,0,1,134,294,133,1,,,,,,,,
,,,,,,,,,,,,,FF,,,,,,,,0.7834,,,,,,,,,,,,,,,,,,,,,,60fcf4f6c21c55d0cc9081c8,61036d41b25cdebc6342c23e,2021-07-29_20h10.20.746,Simcolourproject_2stim_asymm_v5,2020.2.10,Win32,60,61025ae37ef11b136ea224fe,,,,,,,,,2183,127,47.5,1,0,0,response1disk,,6,7,5.5,1,0,0,rectangle,7,5.5,1,0,0,7,5.5,1,0,0,1,135,295,54,1,,,,,,,,
,,,,,,,,,,,,,FF,,,,,,,,1.2328,,,,,,,,,,,,,,,,,,,,,,60fcf4f6c21c55d0cc9081c8,61036d41b25cdebc6342c23e,2021-07-29_20h10.20.746,Simcolourproject_2stim_asymm_v5,2020.2.10,Win32,60,61025ae37ef11b136ea224fe,,,,,,,,,3325,74,-112.5,1,0,0,response3disk,,4,-2,3.5,1,0,0,rectangle,-2,3.5,1,0,0,-2,3.5,1,0,0,1,136,296,127,1,,,,,,,,
,,,,,,,,,,,,,FF,,,,,,,,0.9161,,,,,,,,,,,,,,,,,,,,,,60fcf4f6c21c55d0cc9081c8,61036d41b25cdebc6342c23e,2021-07-29_20h10.20.746,Simcolourproject_2stim_asymm_v5,2020.2.10,Win32,60,61025ae37ef11b136ea224fe,,,,,,,,,2826,122,54.5,1,0,0,response1disk,,6,13,3.5,1,0,0,rectangle,13,3.5,1,0,0,13,3.5,1,0,0,1,137,297,37,1,,,,,,,,
,,,,,,,,,,,,,FF,,,,,,,,0.8333,,,,,,,,,,,,,,,,,,,,,,60fcf4f6c21c55d0cc9081c8,61036d41b25cdebc6342c23e,2021-07-29_20h10.20.746,Simcolourproject_2stim_asymm_v5,2020.2.10,Win32,60,61025ae37ef11b136ea224fe,,,,,,,,,1600,132,57.5,1,0,0,response1disk,,6,18,-9.5,1,0,0,rectangle,18,-9.5,1,0,0,18,-9.5,1,0,0,1,138,298,97,1,,,,,,,,
