key_resp.keys,key_resp.rt,key_resp_14.keys,key_resp_14.rt,key_resp_15.keys,key_resp_15.rt,key_resp_17.keys,key_resp_17.rt,key_resp_9.keys,key_resp_9.rt,key_resp_10.keys,key_resp_10.rt,practice_comparison,Ecc,mouse_5.x,mouse_5.y,mouse_5.leftButton,mouse_5.midButton,mouse_5.rightButton,mouse_5.clicked_name,pracsimilarity,response_time,mouse_10.x,mouse_10.y,mouse_10.leftButton,mouse_10.midButton,mouse_10.rightButton,mouse_10.clicked_name,mouse_7.x,mouse_7.y,mouse_7.leftButton,mouse_7.midButton,mouse_7.rightButton,mouse_6.x,mouse_6.y,mouse_6.leftButton,mouse_6.midButton,mouse_6.rightButton,duringprac.thisRepN,duringprac.thisTrialN,duringprac.thisN,duringprac.thisIndex,duringprac.ran,participant,session,date,expName,psychopyVersion,OS,frameRate,study_id,mouse_7.clicked_name,catchpracsimilarity,catch_response_time,catchnumberprac,catchtrialorderprac,mouse_6.clicked_name,key_resp_22.keys,key_resp_22.rt,realcomparison,mouse.x,mouse.y,mouse.leftButton,mouse.midButton,mouse.rightButton,mouse.clicked_name,Colour2,similarity,mouse_2.x,mouse_2.y,mouse_2.leftButton,mouse_2.midButton,mouse_2.rightButton,mouse_2.clicked_name,mouse_3.x,mouse_3.y,mouse_3.leftButton,mouse_3.midButton,mouse_3.rightButton,mouse_11.x,mouse_11.y,mouse_11.leftButton,mouse_11.midButton,mouse_11.rightButton,trials_2.thisRepN,trials_2.thisTrialN,trials_2.thisN,trials_2.thisIndex,trials_2.ran,Colour1,mouse_3.clicked_name,catchornah,catchsimilarity,catchnumber,catchtrialorder,catchRT,mouse_11.clicked_name
space,1.0494,space,18.1237,space,17.4688,space,6.15,space,1.3336,space,3.0489,158,PF,-90.5447998,41.11508179,1,0,0,response7disk_5,1,3.2709,5.945068359,0.856506348,1,0,0,rectangle_8,5.945068359,0.856506348,1,0,0,5.945068359,0.856506348,1,0,0,0,0,0,6,1,60fcc830a7570c6a06934f60,6103707d9c3011b0ea7d3986,2021-07-29_23h25.38.620,Simcolourproject_2stim_asymm_v5,2020.2.10,MacIntel,60,61025ae37ef11b136ea224fe,,,,,,,,,,,,,,,,,,,,,,,,,,,,,,,,,,,,,,,,,,,,,,
,,,,,,,,,,,,128,PF,-40.80950928,-77.03527832,1,0,0,response5disk_5,3,2.5316,8.307495117,7.641937256,1,0,0,rectangle_8,50.29675293,-78.48052979,1,0,0,-5.439331055,-0.086669922,1,0,0,0,1,1,1,1,60fcc830a7570c6a06934f60,6103707d9c3011b0ea7d3986,2021-07-29_23h25.38.620,Simcolourproject_2stim_asymm_v5,2020.2.10,MacIntel,60,61025ae37ef11b136ea224fe,response3disk_7,4,1.9676,4,"[2,5]",rectangle_4,,,,,,,,,,,,,,,,,,,,,,,,,,,,,,,,,,,,,,,,
,,,,,,,,,,,,90,FF,96.21533203,41.67462158,1,0,0,response1disk_5,6,4.2844,-1.062133789,6.131195068,1,0,0,rectangle_8,-1.062133789,6.131195068,1,0,0,-1.062133789,6.131195068,1,0,0,0,2,2,3,1,60fcc830a7570c6a06934f60,6103707d9c3011b0ea7d3986,2021-07-29_23h25.38.620,Simcolourproject_2stim_asymm_v5,2020.2.10,MacIntel,60,61025ae37ef11b136ea224fe,,,,,,,,,,,,,,,,,,,,,,,,,,,,,,,,,,,,,,,,,,,,,,
,,,,,,,,,,,,26,FF,57.09387207,-70.1862793,1,0,0,response3disk_5,4,2.8829,-6.377624512,8.739746094,1,0,0,rectangle_8,-6.377624512,8.739746094,1,0,0,-6.377624512,8.739746094,1,0,0,0,3,3,5,1,60fcc830a7570c6a06934f60,6103707d9c3011b0ea7d3986,2021-07-29_23h25.38.620,Simcolourproject_2stim_asymm_v5,2020.2.10,MacIntel,60,61025ae37ef11b136ea224fe,,,,,,,,,,,,,,,,,,,,,,,,,,,,,,,,,,,,,,,,,,,,,,
,,,,,,,,,,,,122,FF,-31.32318115,-79.30059814,1,0,0,response5disk_5,3,2.9825,7.006835938,-0.313049316,1,0,0,rectangle_8,41.30792236,-76.38995361,1,0,0,6.904418945,-5.503509521,1,0,0,0,4,4,0,1,60fcc830a7570c6a06934f60,6103707d9c3011b0ea7d3986,2021-07-29_23h25.38.620,Simcolourproject_2stim_asymm_v5,2020.2.10,MacIntel,60,61025ae37ef11b136ea224fe,response3disk_7,4,1.666,4,"[2,5]",rectangle_4,,,,,,,,,,,,,,,,,,,,,,,,,,,,,,,,,,,,,,,,
,,,,,,,,,,,,119,PF,-71.06201172,-37.40460205,1,0,0,response5disk_5,2,1.6829,17.29241943,3.336273193,1,0,0,rectangle_8,17.29241943,3.336273193,1,0,0,17.29241943,3.336273193,1,0,0,0,5,5,2,1,60fcc830a7570c6a06934f60,6103707d9c3011b0ea7d3986,2021-07-29_23h25.38.620,Simcolourproject_2stim_asymm_v5,2020.2.10,MacIntel,60,61025ae37ef11b136ea224fe,,,,,,,,,,,,,,,,,,,,,,,,,,,,,,,,,,,,,,,,,,,,,,
,,,,,,,,,,,,0,PF,59.47912598,-79.31756592,1,0,0,response3disk_5,4,4.2653,4.682067871,-4.957946777,1,0,0,rectangle_8,4.682067871,-4.957946777,1,0,0,4.682067871,-4.957946777,1,0,0,0,6,6,4,1,60fcc830a7570c6a06934f60,6103707d9c3011b0ea7d3986,2021-07-29_23h25.38.620,Simcolourproject_2stim_asymm_v5,2020.2.10,MacIntel,60,61025ae37ef11b136ea224fe,,,,,,,,,,,,,,,,,,,,,,,,,,,,,,,,,,,,,,,,,,,,,,
,,,,,,,,,,,,,FF,,,,,,,,2.7658,,,,,,,,,,,,,,,,,,,,,,60fcc830a7570c6a06934f60,6103707d9c3011b0ea7d3986,2021-07-29_23h25.38.620,Simcolourproject_2stim_asymm_v5,2020.2.10,MacIntel,60,61025ae37ef11b136ea224fe,,,,,,,space,2.1539,3805,25.953125,-68.3963623,1,0,0,response3disk,,4,-6.658874512,-1.136871338,1,0,0,rectangle,-6.658874512,-1.136871338,1,0,0,-6.658874512,-1.136871338,1,0,0,0,0,0,46,1,,,,,,,,
,,,,,,,,,,,,,FF,,,,,,,,8.5675,,,,,,,,,,,,,,,,,,,,,,60fcc830a7570c6a06934f60,6103707d9c3011b0ea7d3986,2021-07-29_23h25.38.620,Simcolourproject_2stim_asymm_v5,2020.2.10,MacIntel,60,61025ae37ef11b136ea224fe,,,,,,,,,3686,106.6908569,59.019104,1,0,0,response1disk,,6,-5.844238281,7.296508789,1,0,0,rectangle,-5.844238281,7.296508789,1,0,0,-5.844238281,7.296508789,1,0,0,0,1,1,16,1,,,,,,,,
,,,,,,,,,,,,,FF,,,,,,,,1.3505,,,,,,,,,,,,,,,,,,,,,,60fcc830a7570c6a06934f60,6103707d9c3011b0ea7d3986,2021-07-29_23h25.38.620,Simcolourproject_2stim_asymm_v5,2020.2.10,MacIntel,60,61025ae37ef11b136ea224fe,,,,,,,,,261,-59.34069824,-67.35125732,1,0,0,response5disk,,3,-5.905395508,8.815612793,1,0,0,rectangle,-5.905395508,8.815612793,1,0,0,-5.905395508,8.815612793,1,0,0,0,2,2,83,1,,,,,,,,
,,,,,,,,,,,,,FF,,,,,,,,2.6185,,,,,,,,,,,,,,,,,,,,,,60fcc830a7570c6a06934f60,6103707d9c3011b0ea7d3986,2021-07-29_23h25.38.620,Simcolourproject_2stim_asymm_v5,2020.2.10,MacIntel,60,61025ae37ef11b136ea224fe,,,,,,,,,3037,-77.8460083,-26.33441162,1,0,0,response5disk,,2,-5.859375,13.38342285,1,0,0,rectangle,-5.859375,13.38342285,1,0,0,-5.859375,13.38342285,1,0,0,0,3,3,69,1,,,,,,,,
,,,,,,,,,,,,,FF,,,,,,,,1.5165,,,,,,,,,,,,,,,,,,,,,,60fcc830a7570c6a06934f60,6103707d9c3011b0ea7d3986,2021-07-29_23h25.38.620,Simcolourproject_2stim_asymm_v5,2020.2.10,MacIntel,60,61025ae37ef11b136ea224fe,,,,,,,,,3745,-36.84979248,-77.84356689,1,0,0,response5disk,,3,5.589172363,-11.71377563,1,0,0,rectangle,5.589172363,-11.71377563,1,0,0,5.589172363,-11.71377563,1,0,0,0,4,4,120,1,,,,,,,,
,,,,,,,,,,,,,FF,,,,,,,,0.9003,,,,,,,,,,,,,,,,,,,,,,60fcc830a7570c6a06934f60,6103707d9c3011b0ea7d3986,2021-07-29_23h25.38.620,Simcolourproject_2stim_asymm_v5,2020.2.10,MacIntel,60,61025ae37ef11b136ea224fe,,,,,,,,,3341,-72.10638428,-30.26550293,1,0,0,response5disk,,2,15.85968018,-6.700622559,1,0,0,rectangle,15.85968018,-6.700622559,1,0,0,15.85968018,-6.700622559,1,0,0,0,5,5,39,1,,,,,,,,
,,,,,,,,,,,,,FF,,,,,,,,1.8016,,,,,,,,,,,,,,,,,,,,,,60fcc830a7570c6a06934f60,6103707d9c3011b0ea7d3986,2021-07-29_23h25.38.620,Simcolourproject_2stim_asymm_v5,2020.2.10,MacIntel,60,61025ae37ef11b136ea224fe,,,,,,,,,1104,30.08551025,71.081604,1,0,0,response1disk,,7,12.41479492,-11.56826782,1,0,0,rectangle,12.41479492,-11.56826782,1,0,0,12.41479492,-11.56826782,1,0,0,0,6,6,93,1,,,,,,,,
,,,,,,,,,,,,,FF,,,,,,,,1.4842,,,,,,,,,,,,,,,,,,,,,,60fcc830a7570c6a06934f60,6103707d9c3011b0ea7d3986,2021-07-29_23h25.38.620,Simcolourproject_2stim_asymm_v5,2020.2.10,MacIntel,60,61025ae37ef11b136ea224fe,,,,,,,,,3914,53.90716553,-64.67706299,1,0,0,response3disk,,4,10.89306641,-0.706268311,1,0,0,rectangle,10.89306641,-0.706268311,1,0,0,10.89306641,-0.706268311,1,0,0,0,7,7,156,1,,,,,,,,
,,,,,,,,,,,,,FF,,,,,,,,1.4009,,,,,,,,,,,,,,,,,,,,,,60fcc830a7570c6a06934f60,6103707d9c3011b0ea7d3986,2021-07-29_23h25.38.620,Simcolourproject_2stim_asymm_v5,2020.2.10,MacIntel,60,61025ae37ef11b136ea224fe,,,,,,,,,1426,35.8359375,64.99206543,1,0,0,response1disk,,7,-1.371520996,-13.39837646,1,0,0,rectangle,-1.371520996,-13.39837646,1,0,0,-1.371520996,-13.39837646,1,0,0,0,8,8,76,1,,,,,,,,
,,,,,,,,,,,,,FF,,,,,,,,0.8336,,,,,,,,,,,,,,,,,,,,,,60fcc830a7570c6a06934f60,6103707d9c3011b0ea7d3986,2021-07-29_23h25.38.620,Simcolourproject_2stim_asymm_v5,2020.2.10,MacIntel,60,61025ae37ef11b136ea224fe,,,,,,,,,4337,-56.77368164,-37.31854248,1,0,0,response5disk,,2,17.06854248,12.98492432,1,0,0,rectangle,17.06854248,12.98492432,1,0,0,17.06854248,12.98492432,1,0,0,0,9,9,144,1,,,,,,,,
,,,,,,,,,,,,,FF,,,,,,,,1.0831,,,,,,,,,,,,,,,,,,,,,,60fcc830a7570c6a06934f60,6103707d9c3011b0ea7d3986,2021-07-29_23h25.38.620,Simcolourproject_2stim_asymm_v5,2020.2.10,MacIntel,60,61025ae37ef11b136ea224fe,,,,,,,,,2271,42.22088623,67.46054077,1,0,0,response1disk,,7,15.91241455,-6.27243042,1,0,0,rectangle,15.91241455,-6.27243042,1,0,0,15.91241455,-6.27243042,1,0,0,0,10,10,116,1,,,,,,,,
,,,,,,,,,,,,,FF,,,,,,,,1.2491,,,,,,,,,,,,,,,,,,,,,,60fcc830a7570c6a06934f60,6103707d9c3011b0ea7d3986,2021-07-29_23h25.38.620,Simcolourproject_2stim_asymm_v5,2020.2.10,MacIntel,60,61025ae37ef11b136ea224fe,,,,,,,,,748,80.62231445,-35.12121582,1,0,0,response3disk,,5,7.52355957,9.826812744,1,0,0,rectangle,7.52355957,9.826812744,1,0,0,7.52355957,9.826812744,1,0,0,0,11,11,49,1,,,,,,,,
,,,,,,,,,,,,,FF,,,,,,,,1.4506,,,,,,,,,,,,,,,,,,,,,,60fcc830a7570c6a06934f60,6103707d9c3011b0ea7d3986,2021-07-29_23h25.38.620,Simcolourproject_2stim_asymm_v5,2020.2.10,MacIntel,60,61025ae37ef11b136ea224fe,,,,,,,,,2307,79.15753174,-37.18768311,1,0,0,response3disk,,5,-10.17663574,0.401550293,1,0,0,rectangle,-10.17663574,0.401550293,1,0,0,-10.17663574,0.401550293,1,0,0,0,12,12,107,1,,,,,,,,
,,,,,,,,,,,,,FF,,,,,,,,1.5008,,,,,,,,,,,,,,,,,,,,,,60fcc830a7570c6a06934f60,6103707d9c3011b0ea7d3986,2021-07-29_23h25.38.620,Simcolourproject_2stim_asymm_v5,2020.2.10,MacIntel,60,61025ae37ef11b136ea224fe,,,,,,,,,2966,51.24572754,86.53863525,1,0,0,response1disk,,7,3.096252441,-5.825897217,1,0,0,rectangle,3.096252441,-5.825897217,1,0,0,3.096252441,-5.825897217,1,0,0,0,13,13,108,1,,,,,,,,
,,,,,,,,,,,,,FF,,,,,,,,1.4332,,,,,,,,,,,,,,,,,,,,,,60fcc830a7570c6a06934f60,6103707d9c3011b0ea7d3986,2021-07-29_23h25.38.620,Simcolourproject_2stim_asymm_v5,2020.2.10,MacIntel,60,61025ae37ef11b136ea224fe,,,,,,,,,1505,28.46069336,87.73297119,1,0,0,response1disk,,7,-0.856445313,4.050415039,1,0,0,rectangle,-0.856445313,4.050415039,1,0,0,-0.856445313,4.050415039,1,0,0,0,14,14,30,1,,,,,,,,
,,,,,,,,,,,,,FF,,,,,,,,0.8499,,,,,,,,,,,,,,,,,,,,,,60fcc830a7570c6a06934f60,6103707d9c3011b0ea7d3986,2021-07-29_23h25.38.620,Simcolourproject_2stim_asymm_v5,2020.2.10,MacIntel,60,61025ae37ef11b136ea224fe,,,,,,,,,2478,49.74029541,117.5209045,1,0,0,response1disk,,7,-3.096374512,2.843780518,1,0,0,rectangle,-3.096374512,2.843780518,1,0,0,-3.096374512,2.843780518,1,0,0,0,15,15,129,1,,,,,,,,
,,,,,,,,,,,,,FF,,,,,,,,1.6124,,,,,,,,,,,,,,,,,,,,,,60fcc830a7570c6a06934f60,6103707d9c3011b0ea7d3986,2021-07-29_23h25.38.620,Simcolourproject_2stim_asymm_v5,2020.2.10,MacIntel,60,61025ae37ef11b136ea224fe,,,,,,,,,1203,46.22631836,-63.16625977,1,0,0,response3disk,,4,4.215515137,-5.339111328,1,0,0,rectangle,4.215515137,-5.339111328,1,0,0,4.215515137,-5.339111328,1,0,0,0,16,16,51,1,,,,,,,,
,,,,,,,,,,,,,FF,,,,,,,,2.5502,,,,,,,,,,,,,,,,,,,,,,60fcc830a7570c6a06934f60,6103707d9c3011b0ea7d3986,2021-07-29_23h25.38.620,Simcolourproject_2stim_asymm_v5,2020.2.10,MacIntel,60,61025ae37ef11b136ea224fe,,,,,,,,,3001,-56.95855713,-72.21337891,1,0,0,response5disk,,3,-8.712036133,-10.23428345,1,0,0,rectangle,-8.712036133,-10.23428345,1,0,0,-8.712036133,-10.23428345,1,0,0,0,17,17,133,1,,,,,,,,
,,,,,,,,,,,,,FF,,,,,,,,0.9522,,,,,,,,,,,,,,,,,,,,,,60fcc830a7570c6a06934f60,6103707d9c3011b0ea7d3986,2021-07-29_23h25.38.620,Simcolourproject_2stim_asymm_v5,2020.2.10,MacIntel,60,61025ae37ef11b136ea224fe,,,,,,,,,1097,38.28179932,65.90414429,1,0,0,response1disk,,7,6.505737305,-8.206787109,1,0,0,rectangle,6.505737305,-8.206787109,1,0,0,6.505737305,-8.206787109,1,0,0,0,18,18,38,1,,,,,,,,
,,,,,,,,,,,,,FF,,,,,,,,2.8179,,,,,,,,,,,,,,,,,,,,,,60fcc830a7570c6a06934f60,6103707d9c3011b0ea7d3986,2021-07-29_23h25.38.620,Simcolourproject_2stim_asymm_v5,2020.2.10,MacIntel,60,61025ae37ef11b136ea224fe,,,,,,,,,1532,51.12689209,-63.66290283,1,0,0,response3disk,,4,13.862854,-11.48226929,1,0,0,rectangle,13.862854,-11.48226929,1,0,0,13.862854,-11.48226929,1,0,0,0,19,19,147,1,,,,,,,,
,,,,,,,,,,,,,FF,,,,,,,,0.8341,,,,,,,,,,,,,,,,,,,,,,60fcc830a7570c6a06934f60,6103707d9c3011b0ea7d3986,2021-07-29_23h25.38.620,Simcolourproject_2stim_asymm_v5,2020.2.10,MacIntel,60,61025ae37ef11b136ea224fe,,,,,,,,,2205,36.58050537,59.76049805,1,0,0,response1disk,,7,18.74017334,13.19778442,1,0,0,rectangle,18.74017334,13.19778442,1,0,0,18.74017334,13.19778442,1,0,0,0,20,20,124,1,,,,,,,,
,,,,,,,,,,,,,FF,,,,,,,,1.266,,,,,,,,,,,,,,,,,,,,,,60fcc830a7570c6a06934f60,6103707d9c3011b0ea7d3986,2021-07-29_23h25.38.620,Simcolourproject_2stim_asymm_v5,2020.2.10,MacIntel,60,61025ae37ef11b136ea224fe,,,,,,,,,1508,41.66387939,82.83618164,1,0,0,response1disk,,7,5.212402344,8.358398438,1,0,0,rectangle,42.50720215,-99.53930664,1,0,0,-3.536437988,-6.444763184,1,0,0,0,21,21,65,1,,response3disk_3,TRUE,4,4,"[51,72,218,305,257,154,82,111,22,303,133,286,138,55,314,236,210,145,260,298]",1.3172,rectangle
,,,,,,,,,,,,,FF,,,,,,,,1.8471,,,,,,,,,,,,,,,,,,,,,,60fcc830a7570c6a06934f60,6103707d9c3011b0ea7d3986,2021-07-29_23h25.38.620,Simcolourproject_2stim_asymm_v5,2020.2.10,MacIntel,60,61025ae37ef11b136ea224fe,,,,,,,,,2054,63.33624268,-84.40716553,1,0,0,response3disk,,4,6.299682617,-4.529846191,1,0,0,rectangle,6.299682617,-4.529846191,1,0,0,6.299682617,-4.529846191,1,0,0,0,22,22,136,1,,,,,,,,
,,,,,,,,,,,,,FF,,,,,,,,1.55,,,,,,,,,,,,,,,,,,,,,,60fcc830a7570c6a06934f60,6103707d9c3011b0ea7d3986,2021-07-29_23h25.38.620,Simcolourproject_2stim_asymm_v5,2020.2.10,MacIntel,60,61025ae37ef11b136ea224fe,,,,,,,,,2087,-53.38793945,-91.45556641,1,0,0,response5disk,,3,-3.381530762,2.88772583,1,0,0,rectangle,-3.381530762,2.88772583,1,0,0,-3.381530762,2.88772583,1,0,0,0,23,23,29,1,,,,,,,,
,,,,,,,,,,,,,FF,,,,,,,,0.7505,,,,,,,,,,,,,,,,,,,,,,60fcc830a7570c6a06934f60,6103707d9c3011b0ea7d3986,2021-07-29_23h25.38.620,Simcolourproject_2stim_asymm_v5,2020.2.10,MacIntel,60,61025ae37ef11b136ea224fe,,,,,,,,,3442,34.26873779,51.24090576,1,0,0,response1disk,,7,-6.329528809,2.309112549,1,0,0,rectangle,-6.329528809,2.309112549,1,0,0,-6.329528809,2.309112549,1,0,0,0,24,24,14,1,,,,,,,,
,,,,,,,,,,,,,FF,,,,,,,,1.3176,,,,,,,,,,,,,,,,,,,,,,60fcc830a7570c6a06934f60,6103707d9c3011b0ea7d3986,2021-07-29_23h25.38.620,Simcolourproject_2stim_asymm_v5,2020.2.10,MacIntel,60,61025ae37ef11b136ea224fe,,,,,,,,,4153,56.64837646,109.8461304,1,0,0,response1disk,,7,0.256713867,-9.988769531,1,0,0,rectangle,0.256713867,-9.988769531,1,0,0,0.256713867,-9.988769531,1,0,0,0,25,25,22,1,,,,,,,,
,,,,,,,,,,,,,FF,,,,,,,,1.7789,,,,,,,,,,,,,,,,,,,,,,60fcc830a7570c6a06934f60,6103707d9c3011b0ea7d3986,2021-07-29_23h25.38.620,Simcolourproject_2stim_asymm_v5,2020.2.10,MacIntel,60,61025ae37ef11b136ea224fe,,,,,,,,,4187,46.35791016,-60.31842041,1,0,0,response3disk,,4,4.771911621,8.84564209,1,0,0,rectangle,4.771911621,8.84564209,1,0,0,4.771911621,8.84564209,1,0,0,0,26,26,154,1,,,,,,,,
,,,,,,,,,,,,,FF,,,,,,,,8.5578,,,,,,,,,,,,,,,,,,,,,,60fcc830a7570c6a06934f60,6103707d9c3011b0ea7d3986,2021-07-29_23h25.38.620,Simcolourproject_2stim_asymm_v5,2020.2.10,MacIntel,60,61025ae37ef11b136ea224fe,,,,,,,,,107,90.78240967,26.68347168,1,0,0,response1disk,,6,-6.627685547,-3.322662354,1,0,0,rectangle,-6.627685547,-3.322662354,1,0,0,-6.627685547,-3.322662354,1,0,0,0,27,27,63,1,,,,,,,,
,,,,,,,,,,,,,FF,,,,,,,,1.0674,,,,,,,,,,,,,,,,,,,,,,60fcc830a7570c6a06934f60,6103707d9c3011b0ea7d3986,2021-07-29_23h25.38.620,Simcolourproject_2stim_asymm_v5,2020.2.10,MacIntel,60,61025ae37ef11b136ea224fe,,,,,,,,,3215,77.10974121,89.83520508,1,0,0,response1disk,,7,8.606994629,-1.231079102,1,0,0,rectangle,8.606994629,-1.231079102,1,0,0,8.606994629,-1.231079102,1,0,0,0,28,28,17,1,,,,,,,,
,,,,,,,,,,,,,FF,,,,,,,,0.8666,,,,,,,,,,,,,,,,,,,,,,60fcc830a7570c6a06934f60,6103707d9c3011b0ea7d3986,2021-07-29_23h25.38.620,Simcolourproject_2stim_asymm_v5,2020.2.10,MacIntel,60,61025ae37ef11b136ea224fe,,,,,,,,,3451,97.953125,45.70855713,1,0,0,response1disk,,6,0.255126953,10.61227417,1,0,0,rectangle,0.255126953,10.61227417,1,0,0,0.255126953,10.61227417,1,0,0,0,29,29,114,1,,,,,,,,
,,,,,,,,,,,,,FF,,,,,,,,2.2486,,,,,,,,,,,,,,,,,,,,,,60fcc830a7570c6a06934f60,6103707d9c3011b0ea7d3986,2021-07-29_23h25.38.620,Simcolourproject_2stim_asymm_v5,2020.2.10,MacIntel,60,61025ae37ef11b136ea224fe,,,,,,,,,1604,-78.96362305,-37.90374756,1,0,0,response5disk,,2,-1.673217773,13.38562012,1,0,0,rectangle,-1.673217773,13.38562012,1,0,0,-1.673217773,13.38562012,1,0,0,0,30,30,110,1,,,,,,,,
,,,,,,,,,,,,,FF,,,,,,,,0.7472,,,,,,,,,,,,,,,,,,,,,,60fcc830a7570c6a06934f60,6103707d9c3011b0ea7d3986,2021-07-29_23h25.38.620,Simcolourproject_2stim_asymm_v5,2020.2.10,MacIntel,60,61025ae37ef11b136ea224fe,,,,,,,,,1578,51.63171387,95.4654541,1,0,0,response1disk,,7,2.720153809,12.20715332,1,0,0,rectangle,2.720153809,12.20715332,1,0,0,2.720153809,12.20715332,1,0,0,0,31,31,8,1,,,,,,,,
,,,,,,,,,,,,,FF,,,,,,,,1.2333,,,,,,,,,,,,,,,,,,,,,,60fcc830a7570c6a06934f60,6103707d9c3011b0ea7d3986,2021-07-29_23h25.38.620,Simcolourproject_2stim_asymm_v5,2020.2.10,MacIntel,60,61025ae37ef11b136ea224fe,,,,,,,,,1223,-77.53552246,-40.58789063,1,0,0,response5disk,,2,-8.03729248,6.847900391,1,0,0,rectangle,-8.03729248,6.847900391,1,0,0,-8.03729248,6.847900391,1,0,0,0,32,32,48,1,,,,,,,,
,,,,,,,,,,,,,FF,,,,,,,,0.6667,,,,,,,,,,,,,,,,,,,,,,60fcc830a7570c6a06934f60,6103707d9c3011b0ea7d3986,2021-07-29_23h25.38.620,Simcolourproject_2stim_asymm_v5,2020.2.10,MacIntel,60,61025ae37ef11b136ea224fe,,,,,,,,,1859,31.00195313,55.63790894,1,0,0,response1disk,,7,1.200805664,5.940032959,1,0,0,rectangle,1.200805664,5.940032959,1,0,0,1.200805664,5.940032959,1,0,0,0,33,33,146,1,,,,,,,,
,,,,,,,,,,,,,FF,,,,,,,,1.5836,,,,,,,,,,,,,,,,,,,,,,60fcc830a7570c6a06934f60,6103707d9c3011b0ea7d3986,2021-07-29_23h25.38.620,Simcolourproject_2stim_asymm_v5,2020.2.10,MacIntel,60,61025ae37ef11b136ea224fe,,,,,,,,,783,38.42547607,-75.59381104,1,0,0,response3disk,,4,-4.279968262,-10.73974609,1,0,0,rectangle,-4.279968262,-10.73974609,1,0,0,-4.279968262,-10.73974609,1,0,0,0,34,34,3,1,,,,,,,,
,,,,,,,,,,,,,FF,,,,,,,,1.4176,,,,,,,,,,,,,,,,,,,,,,60fcc830a7570c6a06934f60,6103707d9c3011b0ea7d3986,2021-07-29_23h25.38.620,Simcolourproject_2stim_asymm_v5,2020.2.10,MacIntel,60,61025ae37ef11b136ea224fe,,,,,,,,,41,42.83416748,82.6194458,1,0,0,response1disk,,7,3.329833984,4.774688721,1,0,0,rectangle,3.329833984,4.774688721,1,0,0,3.329833984,4.774688721,1,0,0,0,35,35,10,1,,,,,,,,
,,,,,,,,,,,,,FF,,,,,,,,0.7329,,,,,,,,,,,,,,,,,,,,,,60fcc830a7570c6a06934f60,6103707d9c3011b0ea7d3986,2021-07-29_23h25.38.620,Simcolourproject_2stim_asymm_v5,2020.2.10,MacIntel,60,61025ae37ef11b136ea224fe,,,,,,,,,4181,-64.79455566,-15.58526611,1,0,0,response5disk,,2,-4.87878418,-6.231750488,1,0,0,rectangle,-4.87878418,-6.231750488,1,0,0,-4.87878418,-6.231750488,1,0,0,0,36,36,148,1,,,,,,,,
,,,,,,,,,,,,,FF,,,,,,,,1.6666,,,,,,,,,,,,,,,,,,,,,,60fcc830a7570c6a06934f60,6103707d9c3011b0ea7d3986,2021-07-29_23h25.38.620,Simcolourproject_2stim_asymm_v5,2020.2.10,MacIntel,60,61025ae37ef11b136ea224fe,,,,,,,,,2684,38.31671143,85.79931641,1,0,0,response1disk,,7,-3.792053223,2.719421387,1,0,0,rectangle,-3.792053223,2.719421387,1,0,0,-3.792053223,2.719421387,1,0,0,0,37,37,138,1,,,,,,,,
,,,,,,,,,,,,,FF,,,,,,,,2.1332,,,,,,,,,,,,,,,,,,,,,,60fcc830a7570c6a06934f60,6103707d9c3011b0ea7d3986,2021-07-29_23h25.38.620,Simcolourproject_2stim_asymm_v5,2020.2.10,MacIntel,60,61025ae37ef11b136ea224fe,,,,,,,,,846,92.1630249,41.34204102,1,0,0,response1disk,,6,10.04931641,17.48342896,1,0,0,rectangle,10.04931641,17.48342896,1,0,0,10.04931641,17.48342896,1,0,0,0,38,38,122,1,,,,,,,,
,,,,,,,,,,,,,FF,,,,,,,,0.6673,,,,,,,,,,,,,,,,,,,,,,60fcc830a7570c6a06934f60,6103707d9c3011b0ea7d3986,2021-07-29_23h25.38.620,Simcolourproject_2stim_asymm_v5,2020.2.10,MacIntel,60,61025ae37ef11b136ea224fe,,,,,,,,,200,18.50909424,62.32110596,1,0,0,response1disk,,7,-0.202941895,-3.99420166,1,0,0,rectangle,-0.202941895,-3.99420166,1,0,0,-0.202941895,-3.99420166,1,0,0,0,39,39,86,1,,,,,,,,
,,,,,,,,,,,,,FF,,,,,,,,0.95,,,,,,,,,,,,,,,,,,,,,,60fcc830a7570c6a06934f60,6103707d9c3011b0ea7d3986,2021-07-29_23h25.38.620,Simcolourproject_2stim_asymm_v5,2020.2.10,MacIntel,60,61025ae37ef11b136ea224fe,,,,,,,,,837,37.39434814,86.46084595,1,0,0,response1disk,,7,1.88104248,-8.004394531,1,0,0,rectangle,1.88104248,-8.004394531,1,0,0,1.88104248,-8.004394531,1,0,0,0,40,40,47,1,,,,,,,,
,,,,,,,,,,,,,FF,,,,,,,,1.9686,,,,,,,,,,,,,,,,,,,,,,60fcc830a7570c6a06934f60,6103707d9c3011b0ea7d3986,2021-07-29_23h25.38.620,Simcolourproject_2stim_asymm_v5,2020.2.10,MacIntel,60,61025ae37ef11b136ea224fe,,,,,,,,,2823,52.71087646,-104.5827637,1,0,0,response3disk,,4,10.05462646,-15.44494629,1,0,0,rectangle,10.05462646,-15.44494629,1,0,0,10.05462646,-15.44494629,1,0,0,0,41,41,118,1,,,,,,,,
,,,,,,,,,,,,,FF,,,,,,,,1.1332,,,,,,,,,,,,,,,,,,,,,,60fcc830a7570c6a06934f60,6103707d9c3011b0ea7d3986,2021-07-29_23h25.38.620,Simcolourproject_2stim_asymm_v5,2020.2.10,MacIntel,60,61025ae37ef11b136ea224fe,,,,,,,,,824,-71.54217529,-60.07086182,1,0,0,response5disk,,2,19.05133057,2.73651123,1,0,0,rectangle,19.05133057,2.73651123,1,0,0,19.05133057,2.73651123,1,0,0,0,42,42,11,1,,,,,,,,
,,,,,,,,,,,,,FF,,,,,,,,0.9679,,,,,,,,,,,,,,,,,,,,,,60fcc830a7570c6a06934f60,6103707d9c3011b0ea7d3986,2021-07-29_23h25.38.620,Simcolourproject_2stim_asymm_v5,2020.2.10,MacIntel,60,61025ae37ef11b136ea224fe,,,,,,,,,3309,33.74951172,88.20373535,1,0,0,response1disk,,7,0.976257324,7.916015625,1,0,0,rectangle,0.976257324,7.916015625,1,0,0,0.976257324,7.916015625,1,0,0,0,43,43,41,1,,,,,,,,
,,,,,,,,,,,,,FF,,,,,,,,0.7661,,,,,,,,,,,,,,,,,,,,,,60fcc830a7570c6a06934f60,6103707d9c3011b0ea7d3986,2021-07-29_23h25.38.620,Simcolourproject_2stim_asymm_v5,2020.2.10,MacIntel,60,61025ae37ef11b136ea224fe,,,,,,,,,579,43.09997559,82.52850342,1,0,0,response1disk,,7,5.245361328,-11.10644531,1,0,0,rectangle,5.245361328,-11.10644531,1,0,0,5.245361328,-11.10644531,1,0,0,0,44,44,126,1,,,,,,,,
,,,,,,,,,,,,,FF,,,,,,,,0.9678,,,,,,,,,,,,,,,,,,,,,,60fcc830a7570c6a06934f60,6103707d9c3011b0ea7d3986,2021-07-29_23h25.38.620,Simcolourproject_2stim_asymm_v5,2020.2.10,MacIntel,60,61025ae37ef11b136ea224fe,,,,,,,,,1790,95.92926025,27.18417358,1,0,0,response1disk,,6,15.86853027,7.713928223,1,0,0,rectangle,15.86853027,7.713928223,1,0,0,15.86853027,7.713928223,1,0,0,0,45,45,94,1,,,,,,,,
,,,,,,,,,,,,,FF,,,,,,,,0.7043,,,,,,,,,,,,,,,,,,,,,,60fcc830a7570c6a06934f60,6103707d9c3011b0ea7d3986,2021-07-29_23h25.38.620,Simcolourproject_2stim_asymm_v5,2020.2.10,MacIntel,60,61025ae37ef11b136ea224fe,,,,,,,,,2282,46.96514893,96.10888672,1,0,0,response1disk,,7,10.7244873,13.25024414,1,0,0,rectangle,10.7244873,13.25024414,1,0,0,10.7244873,13.25024414,1,0,0,0,46,46,28,1,,,,,,,,
,,,,,,,,,,,,,FF,,,,,,,,1.2994,,,,,,,,,,,,,,,,,,,,,,60fcc830a7570c6a06934f60,6103707d9c3011b0ea7d3986,2021-07-29_23h25.38.620,Simcolourproject_2stim_asymm_v5,2020.2.10,MacIntel,60,61025ae37ef11b136ea224fe,,,,,,,,,2170,-32.35247803,-76.25360107,1,0,0,response5disk,,3,1.820617676,2.709442139,1,0,0,rectangle,1.820617676,2.709442139,1,0,0,1.820617676,2.709442139,1,0,0,0,47,47,101,1,,,,,,,,
,,,,,,,,,,,,,FF,,,,,,,,0.7841,,,,,,,,,,,,,,,,,,,,,,60fcc830a7570c6a06934f60,6103707d9c3011b0ea7d3986,2021-07-29_23h25.38.620,Simcolourproject_2stim_asymm_v5,2020.2.10,MacIntel,60,61025ae37ef11b136ea224fe,,,,,,,,,2293,-73.37530518,-39.49176025,1,0,0,response5disk,,2,1.336486816,-12.37347412,1,0,0,rectangle,1.336486816,-12.37347412,1,0,0,1.336486816,-12.37347412,1,0,0,0,48,48,1,1,,,,,,,,
,,,,,,,,,,,,,FF,,,,,,,,1.0164,,,,,,,,,,,,,,,,,,,,,,60fcc830a7570c6a06934f60,6103707d9c3011b0ea7d3986,2021-07-29_23h25.38.620,Simcolourproject_2stim_asymm_v5,2020.2.10,MacIntel,60,61025ae37ef11b136ea224fe,,,,,,,,,1865,50.50415039,110.2594299,1,0,0,response1disk,,7,2.886535645,-5.41217041,1,0,0,rectangle,2.886535645,-5.41217041,1,0,0,2.886535645,-5.41217041,1,0,0,0,49,49,19,1,,,,,,,,
,,,,,,,,,,,,,FF,,,,,,,,0.5661,,,,,,,,,,,,,,,,,,,,,,60fcc830a7570c6a06934f60,6103707d9c3011b0ea7d3986,2021-07-29_23h25.38.620,Simcolourproject_2stim_asymm_v5,2020.2.10,MacIntel,60,61025ae37ef11b136ea224fe,,,,,,,,,2339,55.07525635,100.6571655,1,0,0,response1disk,,7,5.194702148,4.058654785,1,0,0,rectangle,76.10131836,-53.16314697,1,0,0,-12.17651367,-4.882324219,1,0,0,0,50,50,150,1,,response3disk_3,TRUE,5,5,"[51,72,218,305,257,154,82,111,22,303,133,286,138,55,314,236,210,145,260,298]",1.2664,rectangle
,,,,,,,,,,,,,FF,,,,,,,,1.283,,,,,,,,,,,,,,,,,,,,,,60fcc830a7570c6a06934f60,6103707d9c3011b0ea7d3986,2021-07-29_23h25.38.620,Simcolourproject_2stim_asymm_v5,2020.2.10,MacIntel,60,61025ae37ef11b136ea224fe,,,,,,,,,3743,-77.94287109,-56.4331665,1,0,0,response5disk,,2,-15.55712891,-0.246154785,1,0,0,rectangle,-15.55712891,-0.246154785,1,0,0,-15.55712891,-0.246154785,1,0,0,0,51,51,68,1,,,,,,,,
,,,,,,,,,,,,,FF,,,,,,,,0.8162,,,,,,,,,,,,,,,,,,,,,,60fcc830a7570c6a06934f60,6103707d9c3011b0ea7d3986,2021-07-29_23h25.38.620,Simcolourproject_2stim_asymm_v5,2020.2.10,MacIntel,60,61025ae37ef11b136ea224fe,,,,,,,,,629,53.19903564,77.92321777,1,0,0,response1disk,,7,-4.067565918,-2.767791748,1,0,0,rectangle,-4.067565918,-2.767791748,1,0,0,-4.067565918,-2.767791748,1,0,0,0,52,52,102,1,,,,,,,,
,,,,,,,,,,,,,FF,,,,,,,,0.8507,,,,,,,,,,,,,,,,,,,,,,60fcc830a7570c6a06934f60,6103707d9c3011b0ea7d3986,2021-07-29_23h25.38.620,Simcolourproject_2stim_asymm_v5,2020.2.10,MacIntel,60,61025ae37ef11b136ea224fe,,,,,,,,,2412,53.16192627,28.87359619,1,0,0,response1disk,,6,6.397094727,0.371673584,1,0,0,rectangle,6.397094727,0.371673584,1,0,0,6.397094727,0.371673584,1,0,0,0,53,53,31,1,,,,,,,,
,,,,,,,,,,,,,FF,,,,,,,,0.8006,,,,,,,,,,,,,,,,,,,,,,60fcc830a7570c6a06934f60,6103707d9c3011b0ea7d3986,2021-07-29_23h25.38.620,Simcolourproject_2stim_asymm_v5,2020.2.10,MacIntel,60,61025ae37ef11b136ea224fe,,,,,,,,,2263,43.08996582,90.29403687,1,0,0,response1disk,,7,16.05194092,0.452270508,1,0,0,rectangle,-68.21496582,46.71008301,1,0,0,-6.131896973,6.870910645,1,0,0,0,54,54,141,1,,response7disk_3,TRUE,1,1,"[51,72,218,305,257,154,82,111,22,303,133,286,138,55,314,236,210,145,260,298]",1.5155,rectangle
,,,,,,,,,,,,,FF,,,,,,,,0.6833,,,,,,,,,,,,,,,,,,,,,,60fcc830a7570c6a06934f60,6103707d9c3011b0ea7d3986,2021-07-29_23h25.38.620,Simcolourproject_2stim_asymm_v5,2020.2.10,MacIntel,60,61025ae37ef11b136ea224fe,,,,,,,,,2703,54.40008545,89.06939697,1,0,0,response1disk,,7,6.059570313,5.009094238,1,0,0,rectangle,6.059570313,5.009094238,1,0,0,6.059570313,5.009094238,1,0,0,0,55,55,60,1,,,,,,,,
,,,,,,,,,,,,,FF,,,,,,,,0.7387,,,,,,,,,,,,,,,,,,,,,,60fcc830a7570c6a06934f60,6103707d9c3011b0ea7d3986,2021-07-29_23h25.38.620,Simcolourproject_2stim_asymm_v5,2020.2.10,MacIntel,60,61025ae37ef11b136ea224fe,,,,,,,,,3018,49.57635498,80.53521729,1,0,0,response1disk,,7,5.006958008,1.803039551,1,0,0,rectangle,5.006958008,1.803039551,1,0,0,5.006958008,1.803039551,1,0,0,0,56,56,98,1,,,,,,,,
,,,,,,,,,,,,,FF,,,,,,,,0.8167,,,,,,,,,,,,,,,,,,,,,,60fcc830a7570c6a06934f60,6103707d9c3011b0ea7d3986,2021-07-29_23h25.38.620,Simcolourproject_2stim_asymm_v5,2020.2.10,MacIntel,60,61025ae37ef11b136ea224fe,,,,,,,,,3965,-73.95678711,37.0302124,1,0,0,response7disk,,1,-6.398254395,-14.84255981,1,0,0,rectangle,-6.398254395,-14.84255981,1,0,0,-6.398254395,-14.84255981,1,0,0,0,57,57,89,1,,,,,,,,
,,,,,,,,,,,,,FF,,,,,,,,1.8011,,,,,,,,,,,,,,,,,,,,,,60fcc830a7570c6a06934f60,6103707d9c3011b0ea7d3986,2021-07-29_23h25.38.620,Simcolourproject_2stim_asymm_v5,2020.2.10,MacIntel,60,61025ae37ef11b136ea224fe,,,,,,,,,2310,112.0368042,-38.90087891,1,0,0,response3disk,,5,9.185546875,-2.272491455,1,0,0,rectangle,9.185546875,-2.272491455,1,0,0,9.185546875,-2.272491455,1,0,0,0,58,58,153,1,,,,,,,,
,,,,,,,,,,,,,FF,,,,,,,,0.9155,,,,,,,,,,,,,,,,,,,,,,60fcc830a7570c6a06934f60,6103707d9c3011b0ea7d3986,2021-07-29_23h25.38.620,Simcolourproject_2stim_asymm_v5,2020.2.10,MacIntel,60,61025ae37ef11b136ea224fe,,,,,,,,,1226,38.33447266,-74.2467041,1,0,0,response3disk,,4,-3.532653809,-0.968841553,1,0,0,rectangle,-3.532653809,-0.968841553,1,0,0,-3.532653809,-0.968841553,1,0,0,0,59,59,33,1,,,,,,,,
,,,,,,,,,,,,,FF,,,,,,,,1.9127,,,,,,,,,,,,,,,,,,,,,,60fcc830a7570c6a06934f60,6103707d9c3011b0ea7d3986,2021-07-29_23h25.38.620,Simcolourproject_2stim_asymm_v5,2020.2.10,MacIntel,60,61025ae37ef11b136ea224fe,,,,,,,,,4107,60.39697266,-42.78515625,1,0,0,response3disk,,5,-5.030822754,-13.07122803,1,0,0,rectangle,-5.030822754,-13.07122803,1,0,0,-5.030822754,-13.07122803,1,0,0,0,60,60,15,1,,,,,,,,
,,,,,,,,,,,,,FF,,,,,,,,2.0836,,,,,,,,,,,,,,,,,,,,,,60fcc830a7570c6a06934f60,6103707d9c3011b0ea7d3986,2021-07-29_23h25.38.620,Simcolourproject_2stim_asymm_v5,2020.2.10,MacIntel,60,61025ae37ef11b136ea224fe,,,,,,,,,3632,24.59448242,-61.61447144,1,0,0,response3disk,,4,-8.480773926,-7.046112061,1,0,0,rectangle,-8.480773926,-7.046112061,1,0,0,-8.480773926,-7.046112061,1,0,0,0,61,61,92,1,,,,,,,,
,,,,,,,,,,,,,FF,,,,,,,,1.0999,,,,,,,,,,,,,,,,,,,,,,60fcc830a7570c6a06934f60,6103707d9c3011b0ea7d3986,2021-07-29_23h25.38.620,Simcolourproject_2stim_asymm_v5,2020.2.10,MacIntel,60,61025ae37ef11b136ea224fe,,,,,,,,,3200,-31.23400879,-57.78143311,1,0,0,response5disk,,3,11.77606201,-14.93084717,1,0,0,rectangle,11.77606201,-14.93084717,1,0,0,11.77606201,-14.93084717,1,0,0,0,62,62,84,1,,,,,,,,
,,,,,,,,,,,,,FF,,,,,,,,0.6151,,,,,,,,,,,,,,,,,,,,,,60fcc830a7570c6a06934f60,6103707d9c3011b0ea7d3986,2021-07-29_23h25.38.620,Simcolourproject_2stim_asymm_v5,2020.2.10,MacIntel,60,61025ae37ef11b136ea224fe,,,,,,,,,3358,26.38000488,70.96777344,1,0,0,response1disk,,7,5.15838623,2.285339355,1,0,0,rectangle,5.15838623,2.285339355,1,0,0,5.15838623,2.285339355,1,0,0,0,63,63,104,1,,,,,,,,
,,,,,,,,,,,,,FF,,,,,,,,0.7871,,,,,,,,,,,,,,,,,,,,,,60fcc830a7570c6a06934f60,6103707d9c3011b0ea7d3986,2021-07-29_23h25.38.620,Simcolourproject_2stim_asymm_v5,2020.2.10,MacIntel,60,61025ae37ef11b136ea224fe,,,,,,,,,348,-64.02160645,-42.79681396,1,0,0,response5disk,,2,-13.56518555,8.769012451,1,0,0,rectangle,-13.56518555,8.769012451,1,0,0,-13.56518555,8.769012451,1,0,0,0,64,64,99,1,,,,,,,,
,,,,,,,,,,,,,FF,,,,,,,,1.3002,,,,,,,,,,,,,,,,,,,,,,60fcc830a7570c6a06934f60,6103707d9c3011b0ea7d3986,2021-07-29_23h25.38.620,Simcolourproject_2stim_asymm_v5,2020.2.10,MacIntel,60,61025ae37ef11b136ea224fe,,,,,,,,,3788,29.17480469,-92.72296143,1,0,0,response3disk,,4,4.844116211,-8.107543945,1,0,0,rectangle,4.844116211,-8.107543945,1,0,0,4.844116211,-8.107543945,1,0,0,0,65,65,55,1,,,,,,,,
,,,,,,,,,,,,,FF,,,,,,,,1.5828,,,,,,,,,,,,,,,,,,,,,,60fcc830a7570c6a06934f60,6103707d9c3011b0ea7d3986,2021-07-29_23h25.38.620,Simcolourproject_2stim_asymm_v5,2020.2.10,MacIntel,60,61025ae37ef11b136ea224fe,,,,,,,,,3253,73.10205078,-41.10546875,1,0,0,response3disk,,5,3.46472168,-17.33477783,1,0,0,rectangle,3.46472168,-17.33477783,1,0,0,3.46472168,-17.33477783,1,0,0,0,66,66,149,1,,,,,,,,
,,,,,,,,,,,,,FF,,,,,,,,0.9012,,,,,,,,,,,,,,,,,,,,,,60fcc830a7570c6a06934f60,6103707d9c3011b0ea7d3986,2021-07-29_23h25.38.620,Simcolourproject_2stim_asymm_v5,2020.2.10,MacIntel,60,61025ae37ef11b136ea224fe,,,,,,,,,3978,54.16455078,119.729248,1,0,0,response1disk,,7,-22.42749023,8.739868164,1,0,0,rectangle,-22.42749023,8.739868164,1,0,0,-22.42749023,8.739868164,1,0,0,0,67,67,127,1,,,,,,,,
,,,,,,,,,,,,,FF,,,,,,,,0.7828,,,,,,,,,,,,,,,,,,,,,,60fcc830a7570c6a06934f60,6103707d9c3011b0ea7d3986,2021-07-29_23h25.38.620,Simcolourproject_2stim_asymm_v5,2020.2.10,MacIntel,60,61025ae37ef11b136ea224fe,,,,,,,,,4071,-87.65844727,36.24053955,1,0,0,response7disk,,1,-16.33642578,0.670593262,1,0,0,rectangle,-16.33642578,0.670593262,1,0,0,-16.33642578,0.670593262,1,0,0,0,68,68,53,1,,,,,,,,
,,,,,,,,,,,,,FF,,,,,,,,0.8834,,,,,,,,,,,,,,,,,,,,,,60fcc830a7570c6a06934f60,6103707d9c3011b0ea7d3986,2021-07-29_23h25.38.620,Simcolourproject_2stim_asymm_v5,2020.2.10,MacIntel,60,61025ae37ef11b136ea224fe,,,,,,,,,766,44.18426514,70.8470459,1,0,0,response1disk,,7,5.578552246,11.57363892,1,0,0,rectangle,5.578552246,11.57363892,1,0,0,5.578552246,11.57363892,1,0,0,0,69,69,109,1,,,,,,,,
,,,,,,,,,,,,,FF,,,,,,,,0.8001,,,,,,,,,,,,,,,,,,,,,,60fcc830a7570c6a06934f60,6103707d9c3011b0ea7d3986,2021-07-29_23h25.38.620,Simcolourproject_2stim_asymm_v5,2020.2.10,MacIntel,60,61025ae37ef11b136ea224fe,,,,,,,,,2041,-79.83728027,-39.21942139,1,0,0,response5disk,,2,8.609069824,-13.91351318,1,0,0,rectangle,8.609069824,-13.91351318,1,0,0,8.609069824,-13.91351318,1,0,0,0,70,70,134,1,,,,,,,,
,,,,,,,,,,,,,FF,,,,,,,,0.5669,,,,,,,,,,,,,,,,,,,,,,60fcc830a7570c6a06934f60,6103707d9c3011b0ea7d3986,2021-07-29_23h25.38.620,Simcolourproject_2stim_asymm_v5,2020.2.10,MacIntel,60,61025ae37ef11b136ea224fe,,,,,,,,,8,35.15155029,89.90008545,1,0,0,response1disk,,7,8.471862793,-0.414916992,1,0,0,rectangle,75.17608643,-39.20526123,1,0,0,-10.64654541,-2.07043457,1,0,0,0,71,71,59,1,,response3disk_3,TRUE,5,5,"[51,72,218,305,257,154,82,111,22,303,133,286,138,55,314,236,210,145,260,298]",1.4543,rectangle
,,,,,,,,,,,,,FF,,,,,,,,2.7064,,,,,,,,,,,,,,,,,,,,,,60fcc830a7570c6a06934f60,6103707d9c3011b0ea7d3986,2021-07-29_23h25.38.620,Simcolourproject_2stim_asymm_v5,2020.2.10,MacIntel,60,61025ae37ef11b136ea224fe,,,,,,,,,3094,94.99884033,-32.92663574,1,0,0,response3disk,,5,9.237304688,0.237243652,1,0,0,rectangle,9.237304688,0.237243652,1,0,0,9.237304688,0.237243652,1,0,0,0,72,72,139,1,,,,,,,,
,,,,,,,,,,,,,FF,,,,,,,,2.2506,,,,,,,,,,,,,,,,,,,,,,60fcc830a7570c6a06934f60,6103707d9c3011b0ea7d3986,2021-07-29_23h25.38.620,Simcolourproject_2stim_asymm_v5,2020.2.10,MacIntel,60,61025ae37ef11b136ea224fe,,,,,,,,,4197,78.90911865,-41.66595459,1,0,0,response3disk,,5,4.021911621,-4.35458374,1,0,0,rectangle,4.021911621,-4.35458374,1,0,0,4.021911621,-4.35458374,1,0,0,0,73,73,20,1,,,,,,,,
,,,,,,,,,,,,,FF,,,,,,,,1.517,,,,,,,,,,,,,,,,,,,,,,60fcc830a7570c6a06934f60,6103707d9c3011b0ea7d3986,2021-07-29_23h25.38.620,Simcolourproject_2stim_asymm_v5,2020.2.10,MacIntel,60,61025ae37ef11b136ea224fe,,,,,,,,,782,60.21276855,-41.67684937,1,0,0,response3disk,,5,1.182678223,6.544250488,1,0,0,rectangle,1.182678223,6.544250488,1,0,0,1.182678223,6.544250488,1,0,0,0,74,74,78,1,,,,,,,,
,,,,,,,,,,,,,FF,,,,,,,,1.046,,,,,,,,,,,,,,,,,,,,,,60fcc830a7570c6a06934f60,6103707d9c3011b0ea7d3986,2021-07-29_23h25.38.620,Simcolourproject_2stim_asymm_v5,2020.2.10,MacIntel,60,61025ae37ef11b136ea224fe,,,,,,,,,3171,77.32611084,-56.6335144,1,0,0,response3disk,,5,13.94946289,-1.067260742,1,0,0,rectangle,13.94946289,-1.067260742,1,0,0,13.94946289,-1.067260742,1,0,0,0,75,75,152,1,,,,,,,,
,,,,,,,,,,,,,FF,,,,,,,,2.0505,,,,,,,,,,,,,,,,,,,,,,60fcc830a7570c6a06934f60,6103707d9c3011b0ea7d3986,2021-07-29_23h25.38.620,Simcolourproject_2stim_asymm_v5,2020.2.10,MacIntel,60,61025ae37ef11b136ea224fe,,,,,,,,,25,72.06134033,-66.0335083,1,0,0,response3disk,,5,1.246032715,5.80267334,1,0,0,rectangle,1.246032715,5.80267334,1,0,0,1.246032715,5.80267334,1,0,0,0,76,76,137,1,,,,,,,,
,,,,,,,,,,,,,FF,,,,,,,,0.935,,,,,,,,,,,,,,,,,,,,,,60fcc830a7570c6a06934f60,6103707d9c3011b0ea7d3986,2021-07-29_23h25.38.620,Simcolourproject_2stim_asymm_v5,2020.2.10,MacIntel,60,61025ae37ef11b136ea224fe,,,,,,,,,4029,-44.68786621,-64.67504883,1,0,0,response5disk,,3,-4.054626465,-15.71533203,1,0,0,rectangle,-4.054626465,-15.71533203,1,0,0,-4.054626465,-15.71533203,1,0,0,0,77,77,135,1,,,,,,,,
,,,,,,,,,,,,,FF,,,,,,,,0.7666,,,,,,,,,,,,,,,,,,,,,,60fcc830a7570c6a06934f60,6103707d9c3011b0ea7d3986,2021-07-29_23h25.38.620,Simcolourproject_2stim_asymm_v5,2020.2.10,MacIntel,60,61025ae37ef11b136ea224fe,,,,,,,,,2755,66.01055908,-40.199646,1,0,0,response3disk,,5,1.647888184,-0.225341797,1,0,0,rectangle,1.647888184,-0.225341797,1,0,0,1.647888184,-0.225341797,1,0,0,0,78,78,85,1,,,,,,,,
,,,,,,,,,,,,,FF,,,,,,,,1.1678,,,,,,,,,,,,,,,,,,,,,,60fcc830a7570c6a06934f60,6103707d9c3011b0ea7d3986,2021-07-29_23h25.38.620,Simcolourproject_2stim_asymm_v5,2020.2.10,MacIntel,60,61025ae37ef11b136ea224fe,,,,,,,,,1664,81.15484619,-47.56274414,1,0,0,response3disk,,5,21.050354,-11.41696167,1,0,0,rectangle,21.050354,-11.41696167,1,0,0,21.050354,-11.41696167,1,0,0,0,79,79,73,1,,,,,,,,
,,,,,,,,,,,,,FF,,,,,,,,1.9166,,,,,,,,,,,,,,,,,,,,,,60fcc830a7570c6a06934f60,6103707d9c3011b0ea7d3986,2021-07-29_23h25.38.620,Simcolourproject_2stim_asymm_v5,2020.2.10,MacIntel,60,61025ae37ef11b136ea224fe,,,,,,,,,376,84.24243164,47.33657837,1,0,0,response1disk,,6,5.340942383,6.67590332,1,0,0,rectangle,5.340942383,6.67590332,1,0,0,5.340942383,6.67590332,1,0,0,0,80,80,97,1,,,,,,,,
,,,,,,,,,,,,,FF,,,,,,,,0.6838,,,,,,,,,,,,,,,,,,,,,,60fcc830a7570c6a06934f60,6103707d9c3011b0ea7d3986,2021-07-29_23h25.38.620,Simcolourproject_2stim_asymm_v5,2020.2.10,MacIntel,60,61025ae37ef11b136ea224fe,,,,,,,,,3167,44.55169678,91.30059814,1,0,0,response1disk,,7,9.925415039,11.67019653,1,0,0,rectangle,60.9810791,-48.77929688,1,0,0,7.595092773,-4.95980835,1,0,0,0,81,81,25,1,,response3disk_3,TRUE,5,5,"[51,72,218,305,257,154,82,111,22,303,133,286,138,55,314,236,210,145,260,298]",1.066,rectangle
,,,,,,,,,,,,,FF,,,,,,,,1.7507,,,,,,,,,,,,,,,,,,,,,,60fcc830a7570c6a06934f60,6103707d9c3011b0ea7d3986,2021-07-29_23h25.38.620,Simcolourproject_2stim_asymm_v5,2020.2.10,MacIntel,60,61025ae37ef11b136ea224fe,,,,,,,,,4354,32.87731934,-105.9887085,1,0,0,response3disk,,4,7.43536377,-14.66693115,1,0,0,rectangle,7.43536377,-14.66693115,1,0,0,7.43536377,-14.66693115,1,0,0,0,82,82,91,1,,,,,,,,
,,,,,,,,,,,,,FF,,,,,,,,2.5629,,,,,,,,,,,,,,,,,,,,,,60fcc830a7570c6a06934f60,6103707d9c3011b0ea7d3986,2021-07-29_23h25.38.620,Simcolourproject_2stim_asymm_v5,2020.2.10,MacIntel,60,61025ae37ef11b136ea224fe,,,,,,,,,3464,93.83654785,-33.53918457,1,0,0,response3disk,,5,12.36791992,-7.702148438,1,0,0,rectangle,12.36791992,-7.702148438,1,0,0,12.36791992,-7.702148438,1,0,0,0,83,83,88,1,,,,,,,,
,,,,,,,,,,,,,FF,,,,,,,,2.0647,,,,,,,,,,,,,,,,,,,,,,60fcc830a7570c6a06934f60,6103707d9c3011b0ea7d3986,2021-07-29_23h25.38.620,Simcolourproject_2stim_asymm_v5,2020.2.10,MacIntel,60,61025ae37ef11b136ea224fe,,,,,,,,,3144,74.23669434,-60.9777832,1,0,0,response3disk,,5,-3.059082031,-9.182098389,1,0,0,rectangle,-3.059082031,-9.182098389,1,0,0,-3.059082031,-9.182098389,1,0,0,0,84,84,112,1,,,,,,,,
,,,,,,,,,,,,,FF,,,,,,,,1.5992,,,,,,,,,,,,,,,,,,,,,,60fcc830a7570c6a06934f60,6103707d9c3011b0ea7d3986,2021-07-29_23h25.38.620,Simcolourproject_2stim_asymm_v5,2020.2.10,MacIntel,60,61025ae37ef11b136ea224fe,,,,,,,,,3533,51.18798828,88.74835205,1,0,0,response1disk,,7,7.989440918,-13.58657837,1,0,0,rectangle,7.989440918,-13.58657837,1,0,0,7.989440918,-13.58657837,1,0,0,0,85,85,158,1,,,,,,,,
,,,,,,,,,,,,,FF,,,,,,,,0.9997,,,,,,,,,,,,,,,,,,,,,,60fcc830a7570c6a06934f60,6103707d9c3011b0ea7d3986,2021-07-29_23h25.38.620,Simcolourproject_2stim_asymm_v5,2020.2.10,MacIntel,60,61025ae37ef11b136ea224fe,,,,,,,,,1231,-50.73516846,-79.50952148,1,0,0,response5disk,,3,28.27441406,-17.27728271,1,0,0,rectangle,28.27441406,-17.27728271,1,0,0,28.27441406,-17.27728271,1,0,0,0,86,86,44,1,,,,,,,,
,,,,,,,,,,,,,FF,,,,,,,,1.4335,,,,,,,,,,,,,,,,,,,,,,60fcc830a7570c6a06934f60,6103707d9c3011b0ea7d3986,2021-07-29_23h25.38.620,Simcolourproject_2stim_asymm_v5,2020.2.10,MacIntel,60,61025ae37ef11b136ea224fe,,,,,,,,,3716,118.7314453,30.20483398,1,0,0,response1disk,,6,-16.08105469,-0.044494629,1,0,0,rectangle,-16.08105469,-0.044494629,1,0,0,-16.08105469,-0.044494629,1,0,0,0,87,87,0,1,,,,,,,,
,,,,,,,,,,,,,FF,,,,,,,,0.6998,,,,,,,,,,,,,,,,,,,,,,60fcc830a7570c6a06934f60,6103707d9c3011b0ea7d3986,2021-07-29_23h25.38.620,Simcolourproject_2stim_asymm_v5,2020.2.10,MacIntel,60,61025ae37ef11b136ea224fe,,,,,,,,,2059,36.87414551,80.13815308,1,0,0,response1disk,,7,-11.54730225,-4.955383301,1,0,0,rectangle,-11.54730225,-4.955383301,1,0,0,-11.54730225,-4.955383301,1,0,0,0,88,88,18,1,,,,,,,,
,,,,,,,,,,,,,FF,,,,,,,,0.6833,,,,,,,,,,,,,,,,,,,,,,60fcc830a7570c6a06934f60,6103707d9c3011b0ea7d3986,2021-07-29_23h25.38.620,Simcolourproject_2stim_asymm_v5,2020.2.10,MacIntel,60,61025ae37ef11b136ea224fe,,,,,,,,,1988,32.47589111,76.52050781,1,0,0,response1disk,,7,9.268920898,-0.988769531,1,0,0,rectangle,9.268920898,-0.988769531,1,0,0,9.268920898,-0.988769531,1,0,0,0,89,89,5,1,,,,,,,,
,,,,,,,,,,,,,FF,,,,,,,,1.2665,,,,,,,,,,,,,,,,,,,,,,60fcc830a7570c6a06934f60,6103707d9c3011b0ea7d3986,2021-07-29_23h25.38.620,Simcolourproject_2stim_asymm_v5,2020.2.10,MacIntel,60,61025ae37ef11b136ea224fe,,,,,,,,,4228,61.25506592,-50.56060791,1,0,0,response3disk,,5,-9.686401367,-6.246154785,1,0,0,rectangle,-9.686401367,-6.246154785,1,0,0,-9.686401367,-6.246154785,1,0,0,0,90,90,42,1,,,,,,,,
,,,,,,,,,,,,,FF,,,,,,,,0.6505,,,,,,,,,,,,,,,,,,,,,,60fcc830a7570c6a06934f60,6103707d9c3011b0ea7d3986,2021-07-29_23h25.38.620,Simcolourproject_2stim_asymm_v5,2020.2.10,MacIntel,60,61025ae37ef11b136ea224fe,,,,,,,,,2714,27.68188477,58.85400391,1,0,0,response1disk,,7,23.82421875,1.428649902,1,0,0,rectangle,23.82421875,1.428649902,1,0,0,23.82421875,1.428649902,1,0,0,0,91,91,58,1,,,,,,,,
,,,,,,,,,,,,,FF,,,,,,,,1.2341,,,,,,,,,,,,,,,,,,,,,,60fcc830a7570c6a06934f60,6103707d9c3011b0ea7d3986,2021-07-29_23h25.38.620,Simcolourproject_2stim_asymm_v5,2020.2.10,MacIntel,60,61025ae37ef11b136ea224fe,,,,,,,,,623,31.07128906,74.7434082,1,0,0,response1disk,,7,17.52172852,1.310974121,1,0,0,rectangle,17.52172852,1.310974121,1,0,0,17.52172852,1.310974121,1,0,0,0,92,92,21,1,,,,,,,,
,,,,,,,,,,,,,FF,,,,,,,,0.6999,,,,,,,,,,,,,,,,,,,,,,60fcc830a7570c6a06934f60,6103707d9c3011b0ea7d3986,2021-07-29_23h25.38.620,Simcolourproject_2stim_asymm_v5,2020.2.10,MacIntel,60,61025ae37ef11b136ea224fe,,,,,,,,,2877,26.56713867,65.972229,1,0,0,response1disk,,7,11.45214844,-8.347015381,1,0,0,rectangle,11.45214844,-8.347015381,1,0,0,11.45214844,-8.347015381,1,0,0,0,93,93,66,1,,,,,,,,
,,,,,,,,,,,,,FF,,,,,,,,1.3506,,,,,,,,,,,,,,,,,,,,,,60fcc830a7570c6a06934f60,6103707d9c3011b0ea7d3986,2021-07-29_23h25.38.620,Simcolourproject_2stim_asymm_v5,2020.2.10,MacIntel,60,61025ae37ef11b136ea224fe,,,,,,,,,1735,-70.03381348,-40.47000122,1,0,0,response5disk,,2,-4.088500977,-2.221130371,1,0,0,rectangle,-4.088500977,-2.221130371,1,0,0,-4.088500977,-2.221130371,1,0,0,0,94,94,115,1,,,,,,,,
,,,,,,,,,,,,,FF,,,,,,,,0.5996,,,,,,,,,,,,,,,,,,,,,,60fcc830a7570c6a06934f60,6103707d9c3011b0ea7d3986,2021-07-29_23h25.38.620,Simcolourproject_2stim_asymm_v5,2020.2.10,MacIntel,60,61025ae37ef11b136ea224fe,,,,,,,,,1626,45.09893799,65.88900757,1,0,0,response1disk,,7,11.82147217,1.733032227,1,0,0,rectangle,11.82147217,1.733032227,1,0,0,11.82147217,1.733032227,1,0,0,0,95,95,151,1,,,,,,,,
,,,,,,,,,,,,,FF,,,,,,,,0.6335,,,,,,,,,,,,,,,,,,,,,,60fcc830a7570c6a06934f60,6103707d9c3011b0ea7d3986,2021-07-29_23h25.38.620,Simcolourproject_2stim_asymm_v5,2020.2.10,MacIntel,60,61025ae37ef11b136ea224fe,,,,,,,,,2131,40.82855225,60.07806396,1,0,0,response1disk,,7,25.09552002,7.566162109,1,0,0,rectangle,25.09552002,7.566162109,1,0,0,25.09552002,7.566162109,1,0,0,0,96,96,4,1,,,,,,,,
,,,,,,,,,,,,,FF,,,,,,,,0.6158,,,,,,,,,,,,,,,,,,,,,,60fcc830a7570c6a06934f60,6103707d9c3011b0ea7d3986,2021-07-29_23h25.38.620,Simcolourproject_2stim_asymm_v5,2020.2.10,MacIntel,60,61025ae37ef11b136ea224fe,,,,,,,,,3262,32.0567627,55.31283569,1,0,0,response1disk,,7,4.470825195,-2.142089844,1,0,0,rectangle,4.470825195,-2.142089844,1,0,0,4.470825195,-2.142089844,1,0,0,0,97,97,111,1,,,,,,,,
,,,,,,,,,,,,,FF,,,,,,,,1.0178,,,,,,,,,,,,,,,,,,,,,,60fcc830a7570c6a06934f60,6103707d9c3011b0ea7d3986,2021-07-29_23h25.38.620,Simcolourproject_2stim_asymm_v5,2020.2.10,MacIntel,60,61025ae37ef11b136ea224fe,,,,,,,,,1768,-27.71624756,-70.36865234,1,0,0,response5disk,,3,2.386169434,6.753387451,1,0,0,rectangle,2.386169434,6.753387451,1,0,0,2.386169434,6.753387451,1,0,0,0,98,98,72,1,,,,,,,,
,,,,,,,,,,,,,FF,,,,,,,,0.8165,,,,,,,,,,,,,,,,,,,,,,60fcc830a7570c6a06934f60,6103707d9c3011b0ea7d3986,2021-07-29_23h25.38.620,Simcolourproject_2stim_asymm_v5,2020.2.10,MacIntel,60,61025ae37ef11b136ea224fe,,,,,,,,,3143,-41.16278076,-54.53430176,1,0,0,response5disk,,3,-13.62524414,-17.34216309,1,0,0,rectangle,-13.62524414,-17.34216309,1,0,0,-13.62524414,-17.34216309,1,0,0,0,99,99,27,1,,,,,,,,
,,,,,,,,,,,,,FF,,,,,,,,1.3152,,,,,,,,,,,,,,,,,,,,,,60fcc830a7570c6a06934f60,6103707d9c3011b0ea7d3986,2021-07-29_23h25.38.620,Simcolourproject_2stim_asymm_v5,2020.2.10,MacIntel,60,61025ae37ef11b136ea224fe,,,,,,,,,189,-74.48199463,-39.67892456,1,0,0,response5disk,,2,3.542358398,-2.223754883,1,0,0,rectangle,3.542358398,-2.223754883,1,0,0,3.542358398,-2.223754883,1,0,0,0,100,100,145,1,,,,,,,,
,,,,,,,,,,,,,FF,,,,,,,,0.5174,,,,,,,,,,,,,,,,,,,,,,60fcc830a7570c6a06934f60,6103707d9c3011b0ea7d3986,2021-07-29_23h25.38.620,Simcolourproject_2stim_asymm_v5,2020.2.10,MacIntel,60,61025ae37ef11b136ea224fe,,,,,,,,,1085,33.74407959,50.72702026,1,0,0,response1disk,,7,8.979980469,4.695343018,1,0,0,rectangle,8.979980469,4.695343018,1,0,0,8.979980469,4.695343018,1,0,0,0,101,101,35,1,,,,,,,,
,,,,,,,,,,,,,FF,,,,,,,,1.3838,,,,,,,,,,,,,,,,,,,,,,60fcc830a7570c6a06934f60,6103707d9c3011b0ea7d3986,2021-07-29_23h25.38.620,Simcolourproject_2stim_asymm_v5,2020.2.10,MacIntel,60,61025ae37ef11b136ea224fe,,,,,,,,,1513,38.29962158,-88.23327637,1,0,0,response3disk,,4,11.89752197,-6.610687256,1,0,0,rectangle,11.89752197,-6.610687256,1,0,0,11.89752197,-6.610687256,1,0,0,0,102,102,45,1,,,,,,,,
,,,,,,,,,,,,,FF,,,,,,,,0.8707,,,,,,,,,,,,,,,,,,,,,,60fcc830a7570c6a06934f60,6103707d9c3011b0ea7d3986,2021-07-29_23h25.38.620,Simcolourproject_2stim_asymm_v5,2020.2.10,MacIntel,60,61025ae37ef11b136ea224fe,,,,,,,,,3217,45.0380249,63.00228882,1,0,0,response1disk,,7,2.23046875,-7.448120117,1,0,0,rectangle,2.23046875,-7.448120117,1,0,0,2.23046875,-7.448120117,1,0,0,0,103,103,71,1,,,,,,,,
,,,,,,,,,,,,,FF,,,,,,,,1.2334,,,,,,,,,,,,,,,,,,,,,,60fcc830a7570c6a06934f60,6103707d9c3011b0ea7d3986,2021-07-29_23h25.38.620,Simcolourproject_2stim_asymm_v5,2020.2.10,MacIntel,60,61025ae37ef11b136ea224fe,,,,,,,,,637,-77.01831055,-27.19406128,1,0,0,response5disk,,2,-9.599609375,2.757080078,1,0,0,rectangle,-9.599609375,2.757080078,1,0,0,-9.599609375,2.757080078,1,0,0,0,104,104,64,1,,,,,,,,
,,,,,,,,,,,,,FF,,,,,,,,0.9995,,,,,,,,,,,,,,,,,,,,,,60fcc830a7570c6a06934f60,6103707d9c3011b0ea7d3986,2021-07-29_23h25.38.620,Simcolourproject_2stim_asymm_v5,2020.2.10,MacIntel,60,61025ae37ef11b136ea224fe,,,,,,,,,161,39.10583496,81.69281006,1,0,0,response1disk,,7,10.69671631,-0.789642334,1,0,0,rectangle,10.69671631,-0.789642334,1,0,0,10.69671631,-0.789642334,1,0,0,0,105,105,80,1,,,,,,,,
,,,,,,,,,,,,,FF,,,,,,,,0.783,,,,,,,,,,,,,,,,,,,,,,60fcc830a7570c6a06934f60,6103707d9c3011b0ea7d3986,2021-07-29_23h25.38.620,Simcolourproject_2stim_asymm_v5,2020.2.10,MacIntel,60,61025ae37ef11b136ea224fe,,,,,,,,,3846,-66.36035156,-31.34289551,1,0,0,response5disk,,2,2.141357422,-8.100585938,1,0,0,rectangle,2.141357422,-8.100585938,1,0,0,2.141357422,-8.100585938,1,0,0,0,106,106,103,1,,,,,,,,
,,,,,,,,,,,,,FF,,,,,,,,0.5336,,,,,,,,,,,,,,,,,,,,,,60fcc830a7570c6a06934f60,6103707d9c3011b0ea7d3986,2021-07-29_23h25.38.620,Simcolourproject_2stim_asymm_v5,2020.2.10,MacIntel,60,61025ae37ef11b136ea224fe,,,,,,,,,4105,36.24200439,78.42791748,1,0,0,response1disk,,7,12.00244141,8.728637695,1,0,0,rectangle,12.00244141,8.728637695,1,0,0,12.00244141,8.728637695,1,0,0,0,107,107,159,1,,,,,,,,
,,,,,,,,,,,,,FF,,,,,,,,0.9493,,,,,,,,,,,,,,,,,,,,,,60fcc830a7570c6a06934f60,6103707d9c3011b0ea7d3986,2021-07-29_23h25.38.620,Simcolourproject_2stim_asymm_v5,2020.2.10,MacIntel,60,61025ae37ef11b136ea224fe,,,,,,,,,789,-46.67645264,-82.42388916,1,0,0,response5disk,,3,-0.515808105,1.637023926,1,0,0,rectangle,-0.515808105,1.637023926,1,0,0,-0.515808105,1.637023926,1,0,0,0,108,108,95,1,,,,,,,,
,,,,,,,,,,,,,FF,,,,,,,,0.6834,,,,,,,,,,,,,,,,,,,,,,60fcc830a7570c6a06934f60,6103707d9c3011b0ea7d3986,2021-07-29_23h25.38.620,Simcolourproject_2stim_asymm_v5,2020.2.10,MacIntel,60,61025ae37ef11b136ea224fe,,,,,,,,,320,41.97094727,64.67556763,1,0,0,response1disk,,7,8.435302734,-5.368225098,1,0,0,rectangle,8.435302734,-5.368225098,1,0,0,8.435302734,-5.368225098,1,0,0,0,109,109,67,1,,,,,,,,
,,,,,,,,,,,,,FF,,,,,,,,1.1515,,,,,,,,,,,,,,,,,,,,,,60fcc830a7570c6a06934f60,6103707d9c3011b0ea7d3986,2021-07-29_23h25.38.620,Simcolourproject_2stim_asymm_v5,2020.2.10,MacIntel,60,61025ae37ef11b136ea224fe,,,,,,,,,1291,-64.50842285,-33.59466553,1,0,0,response5disk,,2,12.097229,1.938720703,1,0,0,rectangle,-34.3303833,-93.70739746,1,0,0,-6.165527344,-6.68371582,1,0,0,0,110,110,90,1,,response5disk_3,TRUE,3,3,"[51,72,218,305,257,154,82,111,22,303,133,286,138,55,314,236,210,145,260,298]",2.2075,rectangle
,,,,,,,,,,,,,FF,,,,,,,,0.6828,,,,,,,,,,,,,,,,,,,,,,60fcc830a7570c6a06934f60,6103707d9c3011b0ea7d3986,2021-07-29_23h25.38.620,Simcolourproject_2stim_asymm_v5,2020.2.10,MacIntel,60,61025ae37ef11b136ea224fe,,,,,,,,,1035,44.15588379,85.59356689,1,0,0,response1disk,,7,4.764892578,-4.826690674,1,0,0,rectangle,4.764892578,-4.826690674,1,0,0,4.764892578,-4.826690674,1,0,0,0,111,111,119,1,,,,,,,,
,,,,,,,,,,,,,FF,,,,,,,,1.1006,,,,,,,,,,,,,,,,,,,,,,60fcc830a7570c6a06934f60,6103707d9c3011b0ea7d3986,2021-07-29_23h25.38.620,Simcolourproject_2stim_asymm_v5,2020.2.10,MacIntel,60,61025ae37ef11b136ea224fe,,,,,,,,,1112,-39.40307617,-50.12957764,1,0,0,response5disk,,3,2.491394043,-8.921569824,1,0,0,rectangle,2.491394043,-8.921569824,1,0,0,2.491394043,-8.921569824,1,0,0,0,112,112,56,1,,,,,,,,
,,,,,,,,,,,,,FF,,,,,,,,0.9166,,,,,,,,,,,,,,,,,,,,,,60fcc830a7570c6a06934f60,6103707d9c3011b0ea7d3986,2021-07-29_23h25.38.620,Simcolourproject_2stim_asymm_v5,2020.2.10,MacIntel,60,61025ae37ef11b136ea224fe,,,,,,,,,2607,-73.68652344,-24.05718994,1,0,0,response5disk,,2,-2.814147949,15.71069336,1,0,0,rectangle,-2.814147949,15.71069336,1,0,0,-2.814147949,15.71069336,1,0,0,0,113,113,157,1,,,,,,,,
,,,,,,,,,,,,,FF,,,,,,,,0.9602,,,,,,,,,,,,,,,,,,,,,,60fcc830a7570c6a06934f60,6103707d9c3011b0ea7d3986,2021-07-29_23h25.38.620,Simcolourproject_2stim_asymm_v5,2020.2.10,MacIntel,60,61025ae37ef11b136ea224fe,,,,,,,,,3968,-63.45849609,-35.22247314,1,0,0,response5disk,,2,5.97442627,-0.971008301,1,0,0,rectangle,5.97442627,-0.971008301,1,0,0,5.97442627,-0.971008301,1,0,0,0,114,114,32,1,,,,,,,,
,,,,,,,,,,,,,FF,,,,,,,,0.5362,,,,,,,,,,,,,,,,,,,,,,60fcc830a7570c6a06934f60,6103707d9c3011b0ea7d3986,2021-07-29_23h25.38.620,Simcolourproject_2stim_asymm_v5,2020.2.10,MacIntel,60,61025ae37ef11b136ea224fe,,,,,,,,,3046,-79.91174316,-33.65036011,1,0,0,response5disk,,2,-6.467651367,-5.778594971,1,0,0,rectangle,-6.467651367,-5.778594971,1,0,0,-6.467651367,-5.778594971,1,0,0,0,115,115,50,1,,,,,,,,
,,,,,,,,,,,,,FF,,,,,,,,0.5786,,,,,,,,,,,,,,,,,,,,,,60fcc830a7570c6a06934f60,6103707d9c3011b0ea7d3986,2021-07-29_23h25.38.620,Simcolourproject_2stim_asymm_v5,2020.2.10,MacIntel,60,61025ae37ef11b136ea224fe,,,,,,,,,3924,45.60858154,68.42791748,1,0,0,response1disk,,7,16.25897217,12.0567627,1,0,0,rectangle,16.25897217,12.0567627,1,0,0,16.25897217,12.0567627,1,0,0,0,116,116,106,1,,,,,,,,
,,,,,,,,,,,,,FF,,,,,,,,2.0673,,,,,,,,,,,,,,,,,,,,,,60fcc830a7570c6a06934f60,6103707d9c3011b0ea7d3986,2021-07-29_23h25.38.620,Simcolourproject_2stim_asymm_v5,2020.2.10,MacIntel,60,61025ae37ef11b136ea224fe,,,,,,,,,426,50.39007568,78.17883301,1,0,0,response1disk,,7,-10.26934814,-7.551544189,1,0,0,rectangle,-10.26934814,-7.551544189,1,0,0,-10.26934814,-7.551544189,1,0,0,0,117,117,128,1,,,,,,,,
,,,,,,,,,,,,,FF,,,,,,,,0.9338,,,,,,,,,,,,,,,,,,,,,,60fcc830a7570c6a06934f60,6103707d9c3011b0ea7d3986,2021-07-29_23h25.38.620,Simcolourproject_2stim_asymm_v5,2020.2.10,MacIntel,60,61025ae37ef11b136ea224fe,,,,,,,,,2299,-76.67840576,-63.59069824,1,0,0,response5disk,,2,9.975219727,-2.017059326,1,0,0,rectangle,9.975219727,-2.017059326,1,0,0,9.975219727,-2.017059326,1,0,0,0,118,118,77,1,,,,,,,,
,,,,,,,,,,,,,FF,,,,,,,,0.7453,,,,,,,,,,,,,,,,,,,,,,60fcc830a7570c6a06934f60,6103707d9c3011b0ea7d3986,2021-07-29_23h25.38.620,Simcolourproject_2stim_asymm_v5,2020.2.10,MacIntel,60,61025ae37ef11b136ea224fe,,,,,,,,,463,-33.77032471,-76.51593018,1,0,0,response5disk,,3,-2.556274414,-1.010650635,1,0,0,rectangle,-2.556274414,-1.010650635,1,0,0,-2.556274414,-1.010650635,1,0,0,0,119,119,61,1,,,,,,,,
,,,,,,,,,,,,,FF,,,,,,,,1.2837,,,,,,,,,,,,,,,,,,,,,,60fcc830a7570c6a06934f60,6103707d9c3011b0ea7d3986,2021-07-29_23h25.38.620,Simcolourproject_2stim_asymm_v5,2020.2.10,MacIntel,60,61025ae37ef11b136ea224fe,,,,,,,,,2544,-17.92431641,-95.84075928,1,0,0,response5disk,,3,7.601989746,-10.30401611,1,0,0,rectangle,7.601989746,-10.30401611,1,0,0,7.601989746,-10.30401611,1,0,0,0,120,120,2,1,,,,,,,,
,,,,,,,,,,,,,FF,,,,,,,,2.1504,,,,,,,,,,,,,,,,,,,,,,60fcc830a7570c6a06934f60,6103707d9c3011b0ea7d3986,2021-07-29_23h25.38.620,Simcolourproject_2stim_asymm_v5,2020.2.10,MacIntel,60,61025ae37ef11b136ea224fe,,,,,,,,,3636,-30.82275391,-73.92565918,1,0,0,response5disk,,3,0.069458008,-13.6260376,1,0,0,rectangle,0.069458008,-13.6260376,1,0,0,0.069458008,-13.6260376,1,0,0,0,121,121,74,1,,,,,,,,
,,,,,,,,,,,,,FF,,,,,,,,1.2657,,,,,,,,,,,,,,,,,,,,,,60fcc830a7570c6a06934f60,6103707d9c3011b0ea7d3986,2021-07-29_23h25.38.620,Simcolourproject_2stim_asymm_v5,2020.2.10,MacIntel,60,61025ae37ef11b136ea224fe,,,,,,,,,3543,-67.574646,-41.73727417,1,0,0,response5disk,,2,23.77697754,5.057434082,1,0,0,rectangle,23.77697754,5.057434082,1,0,0,23.77697754,5.057434082,1,0,0,0,122,122,70,1,,,,,,,,
,,,,,,,,,,,,,FF,,,,,,,,1.3997,,,,,,,,,,,,,,,,,,,,,,60fcc830a7570c6a06934f60,6103707d9c3011b0ea7d3986,2021-07-29_23h25.38.620,Simcolourproject_2stim_asymm_v5,2020.2.10,MacIntel,60,61025ae37ef11b136ea224fe,,,,,,,,,3712,42.32012939,-83.34143066,1,0,0,response3disk,,4,-18.67944336,5.480133057,1,0,0,rectangle,-18.67944336,5.480133057,1,0,0,-18.67944336,5.480133057,1,0,0,0,123,123,26,1,,,,,,,,
,,,,,,,,,,,,,FF,,,,,,,,1.3811,,,,,,,,,,,,,,,,,,,,,,60fcc830a7570c6a06934f60,6103707d9c3011b0ea7d3986,2021-07-29_23h25.38.620,Simcolourproject_2stim_asymm_v5,2020.2.10,MacIntel,60,61025ae37ef11b136ea224fe,,,,,,,,,1086,63.23815918,99.4927063,1,0,0,response1disk,,7,3.60168457,1.637786865,1,0,0,rectangle,3.60168457,1.637786865,1,0,0,3.60168457,1.637786865,1,0,0,0,124,124,105,1,,,,,,,,
,,,,,,,,,,,,,FF,,,,,,,,1.2996,,,,,,,,,,,,,,,,,,,,,,60fcc830a7570c6a06934f60,6103707d9c3011b0ea7d3986,2021-07-29_23h25.38.620,Simcolourproject_2stim_asymm_v5,2020.2.10,MacIntel,60,61025ae37ef11b136ea224fe,,,,,,,,,3728,99.64160156,61.32501221,1,0,0,response1disk,,6,9.286315918,14.5932312,1,0,0,rectangle,9.286315918,14.5932312,1,0,0,9.286315918,14.5932312,1,0,0,0,125,125,75,1,,,,,,,,
,,,,,,,,,,,,,FF,,,,,,,,0.8343,,,,,,,,,,,,,,,,,,,,,,60fcc830a7570c6a06934f60,6103707d9c3011b0ea7d3986,2021-07-29_23h25.38.620,Simcolourproject_2stim_asymm_v5,2020.2.10,MacIntel,60,61025ae37ef11b136ea224fe,,,,,,,,,3100,-57.53204346,-64.78436279,1,0,0,response5disk,,3,11.57995605,0.954650879,1,0,0,rectangle,11.57995605,0.954650879,1,0,0,11.57995605,0.954650879,1,0,0,0,126,126,12,1,,,,,,,,
,,,,,,,,,,,,,FF,,,,,,,,2.1505,,,,,,,,,,,,,,,,,,,,,,60fcc830a7570c6a06934f60,6103707d9c3011b0ea7d3986,2021-07-29_23h25.38.620,Simcolourproject_2stim_asymm_v5,2020.2.10,MacIntel,60,61025ae37ef11b136ea224fe,,,,,,,,,1288,-30.83978271,-95.07025146,1,0,0,response5disk,,3,7.586547852,-9.964294434,1,0,0,rectangle,7.586547852,-9.964294434,1,0,0,7.586547852,-9.964294434,1,0,0,0,127,127,7,1,,,,,,,,
,,,,,,,,,,,,,FF,,,,,,,,1.5334,,,,,,,,,,,,,,,,,,,,,,60fcc830a7570c6a06934f60,6103707d9c3011b0ea7d3986,2021-07-29_23h25.38.620,Simcolourproject_2stim_asymm_v5,2020.2.10,MacIntel,60,61025ae37ef11b136ea224fe,,,,,,,,,3943,-26.30108643,-71.13806152,1,0,0,response5disk,,3,3.767272949,-10.02062988,1,0,0,rectangle,3.767272949,-10.02062988,1,0,0,3.767272949,-10.02062988,1,0,0,0,128,128,142,1,,,,,,,,
,,,,,,,,,,,,,FF,,,,,,,,1.0319,,,,,,,,,,,,,,,,,,,,,,60fcc830a7570c6a06934f60,6103707d9c3011b0ea7d3986,2021-07-29_23h25.38.620,Simcolourproject_2stim_asymm_v5,2020.2.10,MacIntel,60,61025ae37ef11b136ea224fe,,,,,,,,,3651,81.1484375,-37.22723389,1,0,0,response3disk,,5,-2.09777832,-10.09356689,1,0,0,rectangle,-2.09777832,-10.09356689,1,0,0,-2.09777832,-10.09356689,1,0,0,0,129,129,62,1,,,,,,,,
,,,,,,,,,,,,,FF,,,,,,,,1.0663,,,,,,,,,,,,,,,,,,,,,,60fcc830a7570c6a06934f60,6103707d9c3011b0ea7d3986,2021-07-29_23h25.38.620,Simcolourproject_2stim_asymm_v5,2020.2.10,MacIntel,60,61025ae37ef11b136ea224fe,,,,,,,,,378,84.21679688,-29.28948975,1,0,0,response3disk,,5,-6.893005371,9.703796387,1,0,0,rectangle,-6.893005371,9.703796387,1,0,0,-6.893005371,9.703796387,1,0,0,0,130,130,37,1,,,,,,,,
,,,,,,,,,,,,,FF,,,,,,,,2.2497,,,,,,,,,,,,,,,,,,,,,,60fcc830a7570c6a06934f60,6103707d9c3011b0ea7d3986,2021-07-29_23h25.38.620,Simcolourproject_2stim_asymm_v5,2020.2.10,MacIntel,60,61025ae37ef11b136ea224fe,,,,,,,,,3931,66.74389648,32.72271729,1,0,0,response1disk,,6,-15.93481445,2.577819824,1,0,0,rectangle,-15.93481445,2.577819824,1,0,0,-15.93481445,2.577819824,1,0,0,0,131,131,24,1,,,,,,,,
,,,,,,,,,,,,,FF,,,,,,,,0.8007,,,,,,,,,,,,,,,,,,,,,,60fcc830a7570c6a06934f60,6103707d9c3011b0ea7d3986,2021-07-29_23h25.38.620,Simcolourproject_2stim_asymm_v5,2020.2.10,MacIntel,60,61025ae37ef11b136ea224fe,,,,,,,,,2742,90.19537354,30.8934021,1,0,0,response1disk,,6,18.69909668,14.64224243,1,0,0,rectangle,92.93005371,-49.38781738,1,0,0,2.776123047,2.16116333,1,0,0,0,132,132,9,1,,response3disk_3,TRUE,5,5,"[51,72,218,305,257,154,82,111,22,303,133,286,138,55,314,236,210,145,260,298]",1.3487,rectangle
,,,,,,,,,,,,,FF,,,,,,,,3.2987,,,,,,,,,,,,,,,,,,,,,,60fcc830a7570c6a06934f60,6103707d9c3011b0ea7d3986,2021-07-29_23h25.38.620,Simcolourproject_2stim_asymm_v5,2020.2.10,MacIntel,60,61025ae37ef11b136ea224fe,,,,,,,,,3839,101.2523193,30.09786987,1,0,0,response1disk,,6,8.280395508,7.784423828,1,0,0,rectangle,8.280395508,7.784423828,1,0,0,8.280395508,7.784423828,1,0,0,0,133,133,125,1,,,,,,,,
,,,,,,,,,,,,,FF,,,,,,,,2.366,,,,,,,,,,,,,,,,,,,,,,60fcc830a7570c6a06934f60,6103707d9c3011b0ea7d3986,2021-07-29_23h25.38.620,Simcolourproject_2stim_asymm_v5,2020.2.10,MacIntel,60,61025ae37ef11b136ea224fe,,,,,,,,,2697,99.55078125,41.91577148,1,0,0,response1disk,,6,11.32318115,14.10470581,1,0,0,rectangle,11.32318115,14.10470581,1,0,0,11.32318115,14.10470581,1,0,0,0,134,134,13,1,,,,,,,,
,,,,,,,,,,,,,FF,,,,,,,,0.7828,,,,,,,,,,,,,,,,,,,,,,60fcc830a7570c6a06934f60,6103707d9c3011b0ea7d3986,2021-07-29_23h25.38.620,Simcolourproject_2stim_asymm_v5,2020.2.10,MacIntel,60,61025ae37ef11b136ea224fe,,,,,,,,,1571,67.79119873,18.46420288,1,0,0,response1disk,,6,-5.497314453,-1.635681152,1,0,0,rectangle,-5.497314453,-1.635681152,1,0,0,-5.497314453,-1.635681152,1,0,0,0,135,135,132,1,,,,,,,,
,,,,,,,,,,,,,FF,,,,,,,,1.1981,,,,,,,,,,,,,,,,,,,,,,60fcc830a7570c6a06934f60,6103707d9c3011b0ea7d3986,2021-07-29_23h25.38.620,Simcolourproject_2stim_asymm_v5,2020.2.10,MacIntel,60,61025ae37ef11b136ea224fe,,,,,,,,,1385,-63.60974121,-88.57342529,1,0,0,response5disk,,3,5.599975586,-7.489501953,1,0,0,rectangle,5.599975586,-7.489501953,1,0,0,5.599975586,-7.489501953,1,0,0,0,136,136,143,1,,,,,,,,
,,,,,,,,,,,,,FF,,,,,,,,1.5,,,,,,,,,,,,,,,,,,,,,,60fcc830a7570c6a06934f60,6103707d9c3011b0ea7d3986,2021-07-29_23h25.38.620,Simcolourproject_2stim_asymm_v5,2020.2.10,MacIntel,60,61025ae37ef11b136ea224fe,,,,,,,,,3560,-31.58978271,-70.08770752,1,0,0,response5disk,,3,-0.632324219,-8.772033691,1,0,0,rectangle,-37.41564941,-85.07202148,1,0,0,7.941650391,1.452819824,1,0,0,0,137,137,113,1,,response5disk_3,TRUE,3,3,"[51,72,218,305,257,154,82,111,22,303,133,286,138,55,314,236,210,145,260,298]",1.5167,rectangle
,,,,,,,,,,,,,FF,,,,,,,,1.1991,,,,,,,,,,,,,,,,,,,,,,60fcc830a7570c6a06934f60,6103707d9c3011b0ea7d3986,2021-07-29_23h25.38.620,Simcolourproject_2stim_asymm_v5,2020.2.10,MacIntel,60,61025ae37ef11b136ea224fe,,,,,,,,,3213,-39.48565674,-78.53302002,1,0,0,response5disk,,3,-8.686523438,-13.97134399,1,0,0,rectangle,-8.686523438,-13.97134399,1,0,0,-8.686523438,-13.97134399,1,0,0,0,138,138,54,1,,,,,,,,
,,,,,,,,,,,,,FF,,,,,,,,1.4668,,,,,,,,,,,,,,,,,,,,,,60fcc830a7570c6a06934f60,6103707d9c3011b0ea7d3986,2021-07-29_23h25.38.620,Simcolourproject_2stim_asymm_v5,2020.2.10,MacIntel,60,61025ae37ef11b136ea224fe,,,,,,,,,753,88.33758545,39.33840942,1,0,0,response1disk,,6,-9.308105469,-2.215454102,1,0,0,rectangle,-9.308105469,-2.215454102,1,0,0,-9.308105469,-2.215454102,1,0,0,0,139,139,96,1,,,,,,,,
,,,,,,,,,,,,,FF,,,,,,,,0.9316,,,,,,,,,,,,,,,,,,,,,,60fcc830a7570c6a06934f60,6103707d9c3011b0ea7d3986,2021-07-29_23h25.38.620,Simcolourproject_2stim_asymm_v5,2020.2.10,MacIntel,60,61025ae37ef11b136ea224fe,,,,,,,,,4123,-34.4586792,-84.49151611,1,0,0,response5disk,,3,7.136413574,13.20819092,1,0,0,rectangle,7.136413574,13.20819092,1,0,0,7.136413574,13.20819092,1,0,0,0,140,140,100,1,,,,,,,,
,,,,,,,,,,,,,FF,,,,,,,,1.1657,,,,,,,,,,,,,,,,,,,,,,60fcc830a7570c6a06934f60,6103707d9c3011b0ea7d3986,2021-07-29_23h25.38.620,Simcolourproject_2stim_asymm_v5,2020.2.10,MacIntel,60,61025ae37ef11b136ea224fe,,,,,,,,,546,39.90332031,-112.8656616,1,0,0,response3disk,,4,24.71057129,3.558868408,1,0,0,rectangle,24.71057129,3.558868408,1,0,0,24.71057129,3.558868408,1,0,0,0,141,141,36,1,,,,,,,,
,,,,,,,,,,,,,FF,,,,,,,,0.7837,,,,,,,,,,,,,,,,,,,,,,60fcc830a7570c6a06934f60,6103707d9c3011b0ea7d3986,2021-07-29_23h25.38.620,Simcolourproject_2stim_asymm_v5,2020.2.10,MacIntel,60,61025ae37ef11b136ea224fe,,,,,,,,,779,70.87017822,34.79962158,1,0,0,response1disk,,6,24.38079834,10.87640381,1,0,0,rectangle,24.38079834,10.87640381,1,0,0,24.38079834,10.87640381,1,0,0,0,142,142,87,1,,,,,,,,
,,,,,,,,,,,,,FF,,,,,,,,0.9993,,,,,,,,,,,,,,,,,,,,,,60fcc830a7570c6a06934f60,6103707d9c3011b0ea7d3986,2021-07-29_23h25.38.620,Simcolourproject_2stim_asymm_v5,2020.2.10,MacIntel,60,61025ae37ef11b136ea224fe,,,,,,,,,1077,72.61083984,27.9659729,1,0,0,response1disk,,6,7.774902344,-3.027404785,1,0,0,rectangle,7.774902344,-3.027404785,1,0,0,7.774902344,-3.027404785,1,0,0,0,143,143,52,1,,,,,,,,
,,,,,,,,,,,,,FF,,,,,,,,0.6662,,,,,,,,,,,,,,,,,,,,,,60fcc830a7570c6a06934f60,6103707d9c3011b0ea7d3986,2021-07-29_23h25.38.620,Simcolourproject_2stim_asymm_v5,2020.2.10,MacIntel,60,61025ae37ef11b136ea224fe,,,,,,,,,228,40.00109863,93.53964233,1,0,0,response1disk,,7,6.597961426,-0.577392578,1,0,0,rectangle,48.84393311,-111.3703003,1,0,0,20.84375,12.73931885,1,0,0,0,144,144,23,1,,response3disk_3,TRUE,4,4,"[51,72,218,305,257,154,82,111,22,303,133,286,138,55,314,236,210,145,260,298]",1.0819,rectangle
,,,,,,,,,,,,,FF,,,,,,,,1.6668,,,,,,,,,,,,,,,,,,,,,,60fcc830a7570c6a06934f60,6103707d9c3011b0ea7d3986,2021-07-29_23h25.38.620,Simcolourproject_2stim_asymm_v5,2020.2.10,MacIntel,60,61025ae37ef11b136ea224fe,,,,,,,,,574,56.9800415,77.42376709,1,0,0,response1disk,,7,-5.031738281,2.072998047,1,0,0,rectangle,-5.031738281,2.072998047,1,0,0,-5.031738281,2.072998047,1,0,0,0,145,145,131,1,,,,,,,,
,,,,,,,,,,,,,FF,,,,,,,,1.5679,,,,,,,,,,,,,,,,,,,,,,60fcc830a7570c6a06934f60,6103707d9c3011b0ea7d3986,2021-07-29_23h25.38.620,Simcolourproject_2stim_asymm_v5,2020.2.10,MacIntel,60,61025ae37ef11b136ea224fe,,,,,,,,,2380,76.56744385,-30.64599609,1,0,0,response3disk,,5,1.196228027,-7.066467285,1,0,0,rectangle,1.196228027,-7.066467285,1,0,0,1.196228027,-7.066467285,1,0,0,0,146,146,40,1,,,,,,,,
,,,,,,,,,,,,,FF,,,,,,,,3.3502,,,,,,,,,,,,,,,,,,,,,,60fcc830a7570c6a06934f60,6103707d9c3011b0ea7d3986,2021-07-29_23h25.38.620,Simcolourproject_2stim_asymm_v5,2020.2.10,MacIntel,60,61025ae37ef11b136ea224fe,,,,,,,,,3485,32.48034668,-22.55303955,1,0,0,response3disk,,5,-9.063232422,6.792236328,1,0,0,rectangle,-9.063232422,6.792236328,1,0,0,-9.063232422,6.792236328,1,0,0,0,147,147,140,1,,,,,,,,
,,,,,,,,,,,,,FF,,,,,,,,0.8663,,,,,,,,,,,,,,,,,,,,,,60fcc830a7570c6a06934f60,6103707d9c3011b0ea7d3986,2021-07-29_23h25.38.620,Simcolourproject_2stim_asymm_v5,2020.2.10,MacIntel,60,61025ae37ef11b136ea224fe,,,,,,,,,1294,-33.66125488,-65.36523438,1,0,0,response5disk,,3,4.500854492,2.231811523,1,0,0,rectangle,4.500854492,2.231811523,1,0,0,4.500854492,2.231811523,1,0,0,0,148,148,155,1,,,,,,,,
,,,,,,,,,,,,,FF,,,,,,,,1.1999,,,,,,,,,,,,,,,,,,,,,,60fcc830a7570c6a06934f60,6103707d9c3011b0ea7d3986,2021-07-29_23h25.38.620,Simcolourproject_2stim_asymm_v5,2020.2.10,MacIntel,60,61025ae37ef11b136ea224fe,,,,,,,,,3601,27.61352539,-93.72821045,1,0,0,response3disk,,4,18.39007568,3.180206299,1,0,0,rectangle,18.39007568,3.180206299,1,0,0,18.39007568,3.180206299,1,0,0,0,149,149,82,1,,,,,,,,
,,,,,,,,,,,,,FF,,,,,,,,1.9493,,,,,,,,,,,,,,,,,,,,,,60fcc830a7570c6a06934f60,6103707d9c3011b0ea7d3986,2021-07-29_23h25.38.620,Simcolourproject_2stim_asymm_v5,2020.2.10,MacIntel,60,61025ae37ef11b136ea224fe,,,,,,,,,1551,70.37451172,62.37011719,1,0,0,response1disk,,6,5.132873535,-4.098693848,1,0,0,rectangle,5.132873535,-4.098693848,1,0,0,5.132873535,-4.098693848,1,0,0,0,150,150,43,1,,,,,,,,
,,,,,,,,,,,,,FF,,,,,,,,0.5515,,,,,,,,,,,,,,,,,,,,,,60fcc830a7570c6a06934f60,6103707d9c3011b0ea7d3986,2021-07-29_23h25.38.620,Simcolourproject_2stim_asymm_v5,2020.2.10,MacIntel,60,61025ae37ef11b136ea224fe,,,,,,,,,933,39.28674316,73.74615479,1,0,0,response1disk,,7,5.446044922,3.345489502,1,0,0,rectangle,5.446044922,3.345489502,1,0,0,5.446044922,3.345489502,1,0,0,0,151,151,79,1,,,,,,,,
,,,,,,,,,,,,,FF,,,,,,,,0.65,,,,,,,,,,,,,,,,,,,,,,60fcc830a7570c6a06934f60,6103707d9c3011b0ea7d3986,2021-07-29_23h25.38.620,Simcolourproject_2stim_asymm_v5,2020.2.10,MacIntel,60,61025ae37ef11b136ea224fe,,,,,,,,,2506,38.36419678,94.95806885,1,0,0,response1disk,,7,3.707214355,-4.20892334,1,0,0,rectangle,3.707214355,-4.20892334,1,0,0,3.707214355,-4.20892334,1,0,0,0,152,152,121,1,,,,,,,,
,,,,,,,,,,,,,FF,,,,,,,,1.5998,,,,,,,,,,,,,,,,,,,,,,60fcc830a7570c6a06934f60,6103707d9c3011b0ea7d3986,2021-07-29_23h25.38.620,Simcolourproject_2stim_asymm_v5,2020.2.10,MacIntel,60,61025ae37ef11b136ea224fe,,,,,,,,,963,50.83782959,107.8242493,1,0,0,response1disk,,7,9.053833008,-4.452972412,1,0,0,rectangle,57.67504883,-72.40148926,1,0,0,13.76312256,7.297729492,1,0,0,0,153,153,130,1,,response3disk_3,TRUE,4,4,"[51,72,218,305,257,154,82,111,22,303,133,286,138,55,314,236,210,145,260,298]",1.0994,rectangle
,,,,,,,,,,,,,FF,,,,,,,,0.7839,,,,,,,,,,,,,,,,,,,,,,60fcc830a7570c6a06934f60,6103707d9c3011b0ea7d3986,2021-07-29_23h25.38.620,Simcolourproject_2stim_asymm_v5,2020.2.10,MacIntel,60,61025ae37ef11b136ea224fe,,,,,,,,,34,41.09674072,72.64199829,1,0,0,response1disk,,7,17.08648682,13.44512939,1,0,0,rectangle,17.08648682,13.44512939,1,0,0,17.08648682,13.44512939,1,0,0,0,154,154,117,1,,,,,,,,
,,,,,,,,,,,,,FF,,,,,,,,1.4008,,,,,,,,,,,,,,,,,,,,,,60fcc830a7570c6a06934f60,6103707d9c3011b0ea7d3986,2021-07-29_23h25.38.620,Simcolourproject_2stim_asymm_v5,2020.2.10,MacIntel,60,61025ae37ef11b136ea224fe,,,,,,,,,3526,109.3734741,-30.52172852,1,0,0,response3disk,,5,-8.914367676,-2.486785889,1,0,0,rectangle,-8.914367676,-2.486785889,1,0,0,-8.914367676,-2.486785889,1,0,0,0,155,155,81,1,,,,,,,,
,,,,,,,,,,,,,FF,,,,,,,,1.8168,,,,,,,,,,,,,,,,,,,,,,60fcc830a7570c6a06934f60,6103707d9c3011b0ea7d3986,2021-07-29_23h25.38.620,Simcolourproject_2stim_asymm_v5,2020.2.10,MacIntel,60,61025ae37ef11b136ea224fe,,,,,,,,,621,48.58953857,87.90124512,1,0,0,response1disk,,7,-8.624389648,3.613189697,1,0,0,rectangle,-8.624389648,3.613189697,1,0,0,-8.624389648,3.613189697,1,0,0,0,156,156,6,1,,,,,,,,
,,,,,,,,,,,,,FF,,,,,,,,1.9994,,,,,,,,,,,,,,,,,,,,,,60fcc830a7570c6a06934f60,6103707d9c3011b0ea7d3986,2021-07-29_23h25.38.620,Simcolourproject_2stim_asymm_v5,2020.2.10,MacIntel,60,61025ae37ef11b136ea224fe,,,,,,,,,271,70.22210693,43.20529175,1,0,0,response1disk,,6,0.294677734,-1.061157227,1,0,0,rectangle,0.294677734,-1.061157227,1,0,0,0.294677734,-1.061157227,1,0,0,0,157,157,34,1,,,,,,,,
,,,,,,,,,,,,,FF,,,,,,,,2.316,,,,,,,,,,,,,,,,,,,,,,60fcc830a7570c6a06934f60,6103707d9c3011b0ea7d3986,2021-07-29_23h25.38.620,Simcolourproject_2stim_asymm_v5,2020.2.10,MacIntel,60,61025ae37ef11b136ea224fe,,,,,,,,,3592,-51.859375,-58.31506348,1,0,0,response5disk,,3,10.00939941,-9.211914063,1,0,0,rectangle,10.00939941,-9.211914063,1,0,0,10.00939941,-9.211914063,1,0,0,0,158,158,57,1,,,,,,,,
,,,,,,,,,,,,,FF,,,,,,,,0.8518,,,,,,,,,,,,,,,,,,,,,,60fcc830a7570c6a06934f60,6103707d9c3011b0ea7d3986,2021-07-29_23h25.38.620,Simcolourproject_2stim_asymm_v5,2020.2.10,MacIntel,60,61025ae37ef11b136ea224fe,,,,,,,,,551,42.56707764,-74.56835938,1,0,0,response3disk,,4,18.53948975,-10.94342041,1,0,0,rectangle,18.53948975,-10.94342041,1,0,0,18.53948975,-10.94342041,1,0,0,0,159,159,123,1,,,,,,,,
,,,,,,,,,,,,,FF,,,,,,,,0.5666,,,,,,,,,,,,,,,,,,,,,,60fcc830a7570c6a06934f60,6103707d9c3011b0ea7d3986,2021-07-29_23h25.38.620,Simcolourproject_2stim_asymm_v5,2020.2.10,MacIntel,60,61025ae37ef11b136ea224fe,,,,,,,,,3805,31.96246338,-64.87353516,1,0,0,response3disk,,4,14.51751709,-3.754760742,1,0,0,rectangle,14.51751709,-3.754760742,1,0,0,14.51751709,-3.754760742,1,0,0,1,0,160,27,1,,,,,,,,
,,,,,,,,,,,,,FF,,,,,,,,1.5001,,,,,,,,,,,,,,,,,,,,,,60fcc830a7570c6a06934f60,6103707d9c3011b0ea7d3986,2021-07-29_23h25.38.620,Simcolourproject_2stim_asymm_v5,2020.2.10,MacIntel,60,61025ae37ef11b136ea224fe,,,,,,,,,3686,48.47723389,77.47875977,1,0,0,response1disk,,7,-4.561218262,-10.49743652,1,0,0,rectangle,-4.561218262,-10.49743652,1,0,0,-4.561218262,-10.49743652,1,0,0,1,1,161,154,1,,,,,,,,
,,,,,,,,,,,,,FF,,,,,,,,1.6495,,,,,,,,,,,,,,,,,,,,,,60fcc830a7570c6a06934f60,6103707d9c3011b0ea7d3986,2021-07-29_23h25.38.620,Simcolourproject_2stim_asymm_v5,2020.2.10,MacIntel,60,61025ae37ef11b136ea224fe,,,,,,,,,261,-70.54541016,-35.88226318,1,0,0,response5disk,,2,-3.866333008,-15.12713623,1,0,0,rectangle,-3.866333008,-15.12713623,1,0,0,-3.866333008,-15.12713623,1,0,0,1,2,162,149,1,,,,,,,,
,,,,,,,,,,,,,FF,,,,,,,,0.667,,,,,,,,,,,,,,,,,,,,,,60fcc830a7570c6a06934f60,6103707d9c3011b0ea7d3986,2021-07-29_23h25.38.620,Simcolourproject_2stim_asymm_v5,2020.2.10,MacIntel,60,61025ae37ef11b136ea224fe,,,,,,,,,3037,-66.11846924,-41.3515625,1,0,0,response5disk,,2,-5.902709961,-4.373840332,1,0,0,rectangle,-5.902709961,-4.373840332,1,0,0,-5.902709961,-4.373840332,1,0,0,1,3,163,25,1,,,,,,,,
,,,,,,,,,,,,,FF,,,,,,,,0.9156,,,,,,,,,,,,,,,,,,,,,,60fcc830a7570c6a06934f60,6103707d9c3011b0ea7d3986,2021-07-29_23h25.38.620,Simcolourproject_2stim_asymm_v5,2020.2.10,MacIntel,60,61025ae37ef11b136ea224fe,,,,,,,,,3745,-28.96203613,-50.25518799,1,0,0,response5disk,,3,0.780578613,-15.46688843,1,0,0,rectangle,0.780578613,-15.46688843,1,0,0,0.780578613,-15.46688843,1,0,0,1,4,164,35,1,,,,,,,,
,,,,,,,,,,,,,FF,,,,,,,,4.6659,,,,,,,,,,,,,,,,,,,,,,60fcc830a7570c6a06934f60,6103707d9c3011b0ea7d3986,2021-07-29_23h25.38.620,Simcolourproject_2stim_asymm_v5,2020.2.10,MacIntel,60,61025ae37ef11b136ea224fe,,,,,,,,,3341,100.6497803,49.73886108,1,0,0,response1disk,,6,-3.04296875,-3.273712158,1,0,0,rectangle,-3.04296875,-3.273712158,1,0,0,-3.04296875,-3.273712158,1,0,0,1,5,165,57,1,,,,,,,,
,,,,,,,,,,,,,FF,,,,,,,,1.1671,,,,,,,,,,,,,,,,,,,,,,60fcc830a7570c6a06934f60,6103707d9c3011b0ea7d3986,2021-07-29_23h25.38.620,Simcolourproject_2stim_asymm_v5,2020.2.10,MacIntel,60,61025ae37ef11b136ea224fe,,,,,,,,,1104,45.31774902,89.41271973,1,0,0,response1disk,,7,2.839111328,-6.104125977,1,0,0,rectangle,2.839111328,-6.104125977,1,0,0,2.839111328,-6.104125977,1,0,0,1,6,166,93,1,,,,,,,,
,,,,,,,,,,,,,FF,,,,,,,,1.3332,,,,,,,,,,,,,,,,,,,,,,60fcc830a7570c6a06934f60,6103707d9c3011b0ea7d3986,2021-07-29_23h25.38.620,Simcolourproject_2stim_asymm_v5,2020.2.10,MacIntel,60,61025ae37ef11b136ea224fe,,,,,,,,,3914,-29.81207275,-80.44921875,1,0,0,response5disk,,3,2.75567627,-2.155303955,1,0,0,rectangle,2.75567627,-2.155303955,1,0,0,2.75567627,-2.155303955,1,0,0,1,7,167,61,1,,,,,,,,
,,,,,,,,,,,,,FF,,,,,,,,0.9001,,,,,,,,,,,,,,,,,,,,,,60fcc830a7570c6a06934f60,6103707d9c3011b0ea7d3986,2021-07-29_23h25.38.620,Simcolourproject_2stim_asymm_v5,2020.2.10,MacIntel,60,61025ae37ef11b136ea224fe,,,,,,,,,1426,101.8969727,40.50177002,1,0,0,response1disk,,6,15.26733398,-3.870727539,1,0,0,rectangle,15.26733398,-3.870727539,1,0,0,15.26733398,-3.870727539,1,0,0,1,8,168,135,1,,,,,,,,
,,,,,,,,,,,,,FF,,,,,,,,1.3154,,,,,,,,,,,,,,,,,,,,,,60fcc830a7570c6a06934f60,6103707d9c3011b0ea7d3986,2021-07-29_23h25.38.620,Simcolourproject_2stim_asymm_v5,2020.2.10,MacIntel,60,61025ae37ef11b136ea224fe,,,,,,,,,4337,-87.37011719,-52.77233887,1,0,0,response5disk,,2,-16.5793457,-16.76696777,1,0,0,rectangle,-16.5793457,-16.76696777,1,0,0,-16.5793457,-16.76696777,1,0,0,1,9,169,41,1,,,,,,,,
,,,,,,,,,,,,,FF,,,,,,,,0.6334,,,,,,,,,,,,,,,,,,,,,,60fcc830a7570c6a06934f60,6103707d9c3011b0ea7d3986,2021-07-29_23h25.38.620,Simcolourproject_2stim_asymm_v5,2020.2.10,MacIntel,60,61025ae37ef11b136ea224fe,,,,,,,,,2271,75.0043335,35.83282471,1,0,0,response1disk,,6,23.54846191,8.395141602,1,0,0,rectangle,23.54846191,8.395141602,1,0,0,23.54846191,8.395141602,1,0,0,1,10,170,28,1,,,,,,,,
,,,,,,,,,,,,,FF,,,,,,,,0.9001,,,,,,,,,,,,,,,,,,,,,,60fcc830a7570c6a06934f60,6103707d9c3011b0ea7d3986,2021-07-29_23h25.38.620,Simcolourproject_2stim_asymm_v5,2020.2.10,MacIntel,60,61025ae37ef11b136ea224fe,,,,,,,,,748,-36.1741333,-62.56842041,1,0,0,response5disk,,3,22.32128906,-5.877990723,1,0,0,rectangle,22.32128906,-5.877990723,1,0,0,22.32128906,-5.877990723,1,0,0,1,11,171,112,1,,,,,,,,
,,,,,,,,,,,,,FF,,,,,,,,0.8833,,,,,,,,,,,,,,,,,,,,,,60fcc830a7570c6a06934f60,6103707d9c3011b0ea7d3986,2021-07-29_23h25.38.620,Simcolourproject_2stim_asymm_v5,2020.2.10,MacIntel,60,61025ae37ef11b136ea224fe,,,,,,,,,2307,-60.05523682,-35.62231445,1,0,0,response5disk,,2,-5.957214355,-1.564697266,1,0,0,rectangle,-5.957214355,-1.564697266,1,0,0,-5.957214355,-1.564697266,1,0,0,1,12,172,109,1,,,,,,,,
,,,,,,,,,,,,,FF,,,,,,,,10.5832,,,,,,,,,,,,,,,,,,,,,,60fcc830a7570c6a06934f60,6103707d9c3011b0ea7d3986,2021-07-29_23h25.38.620,Simcolourproject_2stim_asymm_v5,2020.2.10,MacIntel,60,61025ae37ef11b136ea224fe,,,,,,,,,2966,35.31018066,74.36621094,1,0,0,response1disk,,7,7.108337402,-6.688415527,1,0,0,rectangle,7.108337402,-6.688415527,1,0,0,7.108337402,-6.688415527,1,0,0,1,13,173,67,1,,,,,,,,
,,,,,,,,,,,,,FF,,,,,,,,26.8338,,,,,,,,,,,,,,,,,,,,,,60fcc830a7570c6a06934f60,6103707d9c3011b0ea7d3986,2021-07-29_23h25.38.620,Simcolourproject_2stim_asymm_v5,2020.2.10,MacIntel,60,61025ae37ef11b136ea224fe,,,,,,,,,1505,71.5579834,41.44772339,1,0,0,response1disk,,6,2.030090332,2.631072998,1,0,0,rectangle,2.030090332,2.631072998,1,0,0,2.030090332,2.631072998,1,0,0,1,14,174,155,1,,,,,,,,
,,,,,,,,,,,,,FF,,,,,,,,1.6335,,,,,,,,,,,,,,,,,,,,,,60fcc830a7570c6a06934f60,6103707d9c3011b0ea7d3986,2021-07-29_23h25.38.620,Simcolourproject_2stim_asymm_v5,2020.2.10,MacIntel,60,61025ae37ef11b136ea224fe,,,,,,,,,2478,39.25714111,-78.75262451,1,0,0,response3disk,,4,-23.22644043,8.830932617,1,0,0,rectangle,-23.22644043,8.830932617,1,0,0,-23.22644043,8.830932617,1,0,0,1,15,175,55,1,,,,,,,,
,,,,,,,,,,,,,FF,,,,,,,,18.9987,,,,,,,,,,,,,,,,,,,,,,60fcc830a7570c6a06934f60,6103707d9c3011b0ea7d3986,2021-07-29_23h25.38.620,Simcolourproject_2stim_asymm_v5,2020.2.10,MacIntel,60,61025ae37ef11b136ea224fe,,,,,,,,,1203,-24.49957275,-62.82141113,1,0,0,response5disk,,3,-4.728515625,11.79107666,1,0,0,rectangle,-4.728515625,11.79107666,1,0,0,-4.728515625,11.79107666,1,0,0,1,16,176,2,1,,,,,,,,
,,,,,,,,,,,,,FF,,,,,,,,0.9162,,,,,,,,,,,,,,,,,,,,,,60fcc830a7570c6a06934f60,6103707d9c3011b0ea7d3986,2021-07-29_23h25.38.620,Simcolourproject_2stim_asymm_v5,2020.2.10,MacIntel,60,61025ae37ef11b136ea224fe,,,,,,,,,3001,-38.58319092,-55.52352905,1,0,0,response5disk,,3,-0.059692383,4.981323242,1,0,0,rectangle,-0.059692383,4.981323242,1,0,0,-0.059692383,4.981323242,1,0,0,1,17,177,134,1,,,,,,,,
,,,,,,,,,,,,,FF,,,,,,,,0.9327,,,,,,,,,,,,,,,,,,,,,,60fcc830a7570c6a06934f60,6103707d9c3011b0ea7d3986,2021-07-29_23h25.38.620,Simcolourproject_2stim_asymm_v5,2020.2.10,MacIntel,60,61025ae37ef11b136ea224fe,,,,,,,,,1097,34.42944336,63.80773926,1,0,0,response1disk,,7,25.56030273,10.77474976,1,0,0,rectangle,25.56030273,10.77474976,1,0,0,25.56030273,10.77474976,1,0,0,1,18,178,34,1,,,,,,,,
,,,,,,,,,,,,,FF,,,,,,,,1.3823,,,,,,,,,,,,,,,,,,,,,,60fcc830a7570c6a06934f60,6103707d9c3011b0ea7d3986,2021-07-29_23h25.38.620,Simcolourproject_2stim_asymm_v5,2020.2.10,MacIntel,60,61025ae37ef11b136ea224fe,,,,,,,,,1532,40.09564209,-80.79986572,1,0,0,response3disk,,4,11.93774414,13.08737183,1,0,0,rectangle,11.93774414,13.08737183,1,0,0,11.93774414,13.08737183,1,0,0,1,19,179,8,1,,,,,,,,
,,,,,,,,,,,,,FF,,,,,,,,1.0163,,,,,,,,,,,,,,,,,,,,,,60fcc830a7570c6a06934f60,6103707d9c3011b0ea7d3986,2021-07-29_23h25.38.620,Simcolourproject_2stim_asymm_v5,2020.2.10,MacIntel,60,61025ae37ef11b136ea224fe,,,,,,,,,2205,49.5057373,92.02090454,1,0,0,response1disk,,7,-2.32232666,-5.339660645,1,0,0,rectangle,-2.32232666,-5.339660645,1,0,0,-2.32232666,-5.339660645,1,0,0,1,20,180,47,1,,,,,,,,
,,,,,,,,,,,,,FF,,,,,,,,0.9995,,,,,,,,,,,,,,,,,,,,,,60fcc830a7570c6a06934f60,6103707d9c3011b0ea7d3986,2021-07-29_23h25.38.620,Simcolourproject_2stim_asymm_v5,2020.2.10,MacIntel,60,61025ae37ef11b136ea224fe,,,,,,,,,1508,25.97460938,83.18209839,1,0,0,response1disk,,7,-3.38873291,-8.024871826,1,0,0,rectangle,-3.38873291,-8.024871826,1,0,0,-3.38873291,-8.024871826,1,0,0,1,21,181,51,1,,,,,,,,
,,,,,,,,,,,,,FF,,,,,,,,0.9498,,,,,,,,,,,,,,,,,,,,,,60fcc830a7570c6a06934f60,6103707d9c3011b0ea7d3986,2021-07-29_23h25.38.620,Simcolourproject_2stim_asymm_v5,2020.2.10,MacIntel,60,61025ae37ef11b136ea224fe,,,,,,,,,2054,-30.79266357,-71.5737915,1,0,0,response5disk,,3,-5.565856934,2.720489502,1,0,0,rectangle,-5.565856934,2.720489502,1,0,0,-5.565856934,2.720489502,1,0,0,1,22,182,146,1,,,,,,,,
,,,,,,,,,,,,,FF,,,,,,,,1.9839,,,,,,,,,,,,,,,,,,,,,,60fcc830a7570c6a06934f60,6103707d9c3011b0ea7d3986,2021-07-29_23h25.38.620,Simcolourproject_2stim_asymm_v5,2020.2.10,MacIntel,60,61025ae37ef11b136ea224fe,,,,,,,,,2087,-24.56518555,-70.5579834,1,0,0,response5disk,,3,-2.246704102,2.11050415,1,0,0,rectangle,-2.246704102,2.11050415,1,0,0,-2.246704102,2.11050415,1,0,0,1,23,183,64,1,,,,,,,,
,,,,,,,,,,,,,FF,,,,,,,,1.1331,,,,,,,,,,,,,,,,,,,,,,60fcc830a7570c6a06934f60,6103707d9c3011b0ea7d3986,2021-07-29_23h25.38.620,Simcolourproject_2stim_asymm_v5,2020.2.10,MacIntel,60,61025ae37ef11b136ea224fe,,,,,,,,,3442,34.35498047,-64.42803955,1,0,0,response3disk,,4,34.93206787,-9.419311523,1,0,0,rectangle,34.93206787,-9.419311523,1,0,0,34.93206787,-9.419311523,1,0,0,1,24,184,113,1,,,,,,,,
,,,,,,,,,,,,,FF,,,,,,,,0.7673,,,,,,,,,,,,,,,,,,,,,,60fcc830a7570c6a06934f60,6103707d9c3011b0ea7d3986,2021-07-29_23h25.38.620,Simcolourproject_2stim_asymm_v5,2020.2.10,MacIntel,60,61025ae37ef11b136ea224fe,,,,,,,,,4153,64.57769775,93.55023193,1,0,0,response1disk,,7,-11.30096436,1.033905029,1,0,0,rectangle,-11.30096436,1.033905029,1,0,0,-11.30096436,1.033905029,1,0,0,1,25,185,36,1,,,,,,,,
,,,,,,,,,,,,,FF,,,,,,,,1.184,,,,,,,,,,,,,,,,,,,,,,60fcc830a7570c6a06934f60,6103707d9c3011b0ea7d3986,2021-07-29_23h25.38.620,Simcolourproject_2stim_asymm_v5,2020.2.10,MacIntel,60,61025ae37ef11b136ea224fe,,,,,,,,,4187,61.28076172,-31.01821899,1,0,0,response3disk,,5,10.29260254,3.795227051,1,0,0,rectangle,10.29260254,3.795227051,1,0,0,10.29260254,3.795227051,1,0,0,1,26,186,147,1,,,,,,,,
,,,,,,,,,,,,,FF,,,,,,,,1.8205,,,,,,,,,,,,,,,,,,,,,,60fcc830a7570c6a06934f60,6103707d9c3011b0ea7d3986,2021-07-29_23h25.38.620,Simcolourproject_2stim_asymm_v5,2020.2.10,MacIntel,60,61025ae37ef11b136ea224fe,,,,,,,,,107,52.5345459,-83.38085938,1,0,0,response3disk,,4,-0.781066895,-0.152282715,1,0,0,rectangle,-0.781066895,-0.152282715,1,0,0,-0.781066895,-0.152282715,1,0,0,1,27,187,107,1,,,,,,,,
,,,,,,,,,,,,,FF,,,,,,,,0.9835,,,,,,,,,,,,,,,,,,,,,,60fcc830a7570c6a06934f60,6103707d9c3011b0ea7d3986,2021-07-29_23h25.38.620,Simcolourproject_2stim_asymm_v5,2020.2.10,MacIntel,60,61025ae37ef11b136ea224fe,,,,,,,,,3215,40.48742676,110.2889404,1,0,0,response1disk,,7,-0.709350586,-17.35858154,1,0,0,rectangle,-0.709350586,-17.35858154,1,0,0,-0.709350586,-17.35858154,1,0,0,1,28,188,6,1,,,,,,,,
,,,,,,,,,,,,,FF,,,,,,,,0.683,,,,,,,,,,,,,,,,,,,,,,60fcc830a7570c6a06934f60,6103707d9c3011b0ea7d3986,2021-07-29_23h25.38.620,Simcolourproject_2stim_asymm_v5,2020.2.10,MacIntel,60,61025ae37ef11b136ea224fe,,,,,,,,,3451,34.49713135,74.83618164,1,0,0,response1disk,,7,2.164001465,-5.378479004,1,0,0,rectangle,2.164001465,-5.378479004,1,0,0,2.164001465,-5.378479004,1,0,0,1,29,189,82,1,,,,,,,,
,,,,,,,,,,,,,FF,,,,,,,,0.9168,,,,,,,,,,,,,,,,,,,,,,60fcc830a7570c6a06934f60,6103707d9c3011b0ea7d3986,2021-07-29_23h25.38.620,Simcolourproject_2stim_asymm_v5,2020.2.10,MacIntel,60,61025ae37ef11b136ea224fe,,,,,,,,,1604,-57.79022217,-43.38446045,1,0,0,response5disk,,2,-7.661804199,-13.42962646,1,0,0,rectangle,-7.661804199,-13.42962646,1,0,0,-7.661804199,-13.42962646,1,0,0,1,30,190,30,1,,,,,,,,
,,,,,,,,,,,,,FF,,,,,,,,0.9687,,,,,,,,,,,,,,,,,,,,,,60fcc830a7570c6a06934f60,6103707d9c3011b0ea7d3986,2021-07-29_23h25.38.620,Simcolourproject_2stim_asymm_v5,2020.2.10,MacIntel,60,61025ae37ef11b136ea224fe,,,,,,,,,1578,54.64752197,-77.25366211,1,0,0,response3disk,,4,24.15014648,-12.03833008,1,0,0,rectangle,24.15014648,-12.03833008,1,0,0,24.15014648,-12.03833008,1,0,0,1,31,191,42,1,,,,,,,,
,,,,,,,,,,,,,FF,,,,,,,,0.9211,,,,,,,,,,,,,,,,,,,,,,60fcc830a7570c6a06934f60,6103707d9c3011b0ea7d3986,2021-07-29_23h25.38.620,Simcolourproject_2stim_asymm_v5,2020.2.10,MacIntel,60,61025ae37ef11b136ea224fe,,,,,,,,,1223,-59.48431396,-62.4395752,1,0,0,response5disk,,3,-7.466674805,2.278015137,1,0,0,rectangle,-7.466674805,2.278015137,1,0,0,-7.466674805,2.278015137,1,0,0,1,32,192,81,1,,,,,,,,
,,,,,,,,,,,,,FF,,,,,,,,1.9829,,,,,,,,,,,,,,,,,,,,,,60fcc830a7570c6a06934f60,6103707d9c3011b0ea7d3986,2021-07-29_23h25.38.620,Simcolourproject_2stim_asymm_v5,2020.2.10,MacIntel,60,61025ae37ef11b136ea224fe,,,,,,,,,1859,32.53723145,86.23049927,1,0,0,response1disk,,7,4.433044434,6.780456543,1,0,0,rectangle,4.433044434,6.780456543,1,0,0,4.433044434,6.780456543,1,0,0,1,33,193,137,1,,,,,,,,
,,,,,,,,,,,,,FF,,,,,,,,0.8844,,,,,,,,,,,,,,,,,,,,,,60fcc830a7570c6a06934f60,6103707d9c3011b0ea7d3986,2021-07-29_23h25.38.620,Simcolourproject_2stim_asymm_v5,2020.2.10,MacIntel,60,61025ae37ef11b136ea224fe,,,,,,,,,783,88.23815918,47.15930176,1,0,0,response1disk,,6,20.46142578,14.91986084,1,0,0,rectangle,20.46142578,14.91986084,1,0,0,20.46142578,14.91986084,1,0,0,1,34,194,117,1,,,,,,,,
,,,,,,,,,,,,,FF,,,,,,,,0.5835,,,,,,,,,,,,,,,,,,,,,,60fcc830a7570c6a06934f60,6103707d9c3011b0ea7d3986,2021-07-29_23h25.38.620,Simcolourproject_2stim_asymm_v5,2020.2.10,MacIntel,60,61025ae37ef11b136ea224fe,,,,,,,,,41,44.53692627,71.53723145,1,0,0,response1disk,,7,1.865722656,1.750732422,1,0,0,rectangle,1.865722656,1.750732422,1,0,0,1.865722656,1.750732422,1,0,0,1,35,195,31,1,,,,,,,,
,,,,,,,,,,,,,FF,,,,,,,,0.9997,,,,,,,,,,,,,,,,,,,,,,60fcc830a7570c6a06934f60,6103707d9c3011b0ea7d3986,2021-07-29_23h25.38.620,Simcolourproject_2stim_asymm_v5,2020.2.10,MacIntel,60,61025ae37ef11b136ea224fe,,,,,,,,,4181,-88.51013184,32.19180298,1,0,0,response7disk,,1,-15.47662354,12.12298584,1,0,0,rectangle,-15.47662354,12.12298584,1,0,0,-15.47662354,12.12298584,1,0,0,1,36,196,139,1,,,,,,,,
,,,,,,,,,,,,,FF,,,,,,,,1.2332,,,,,,,,,,,,,,,,,,,,,,60fcc830a7570c6a06934f60,6103707d9c3011b0ea7d3986,2021-07-29_23h25.38.620,Simcolourproject_2stim_asymm_v5,2020.2.10,MacIntel,60,61025ae37ef11b136ea224fe,,,,,,,,,2684,50.89373779,83.99121094,1,0,0,response1disk,,7,-0.349487305,2.848937988,1,0,0,rectangle,-0.349487305,2.848937988,1,0,0,-0.349487305,2.848937988,1,0,0,1,37,197,62,1,,,,,,,,
,,,,,,,,,,,,,FF,,,,,,,,2.1664,,,,,,,,,,,,,,,,,,,,,,60fcc830a7570c6a06934f60,6103707d9c3011b0ea7d3986,2021-07-29_23h25.38.620,Simcolourproject_2stim_asymm_v5,2020.2.10,MacIntel,60,61025ae37ef11b136ea224fe,,,,,,,,,846,28.9083252,118.8703613,1,0,0,response1disk,,7,15.85119629,4.041748047,1,0,0,rectangle,15.85119629,4.041748047,1,0,0,15.85119629,4.041748047,1,0,0,1,38,198,152,1,,,,,,,,
,,,,,,,,,,,,,FF,,,,,,,,1.2267,,,,,,,,,,,,,,,,,,,,,,60fcc830a7570c6a06934f60,6103707d9c3011b0ea7d3986,2021-07-29_23h25.38.620,Simcolourproject_2stim_asymm_v5,2020.2.10,MacIntel,60,61025ae37ef11b136ea224fe,,,,,,,,,200,49.32403564,102.0767822,1,0,0,response1disk,,7,11.68334961,-8.067382813,1,0,0,rectangle,11.68334961,-8.067382813,1,0,0,11.68334961,-8.067382813,1,0,0,1,39,199,101,1,,,,,,,,
,,,,,,,,,,,,,FF,,,,,,,,1.3331,,,,,,,,,,,,,,,,,,,,,,60fcc830a7570c6a06934f60,6103707d9c3011b0ea7d3986,2021-07-29_23h25.38.620,Simcolourproject_2stim_asymm_v5,2020.2.10,MacIntel,60,61025ae37ef11b136ea224fe,,,,,,,,,837,76.46246338,72.60070801,1,0,0,response1disk,,6,-9.544067383,-7.776916504,1,0,0,rectangle,-9.544067383,-7.776916504,1,0,0,-9.544067383,-7.776916504,1,0,0,1,40,200,43,1,,,,,,,,
,,,,,,,,,,,,,FF,,,,,,,,1.1659,,,,,,,,,,,,,,,,,,,,,,60fcc830a7570c6a06934f60,6103707d9c3011b0ea7d3986,2021-07-29_23h25.38.620,Simcolourproject_2stim_asymm_v5,2020.2.10,MacIntel,60,61025ae37ef11b136ea224fe,,,,,,,,,2823,-37.03649902,-67.12231445,1,0,0,response5disk,,3,11.54699707,-7.205688477,1,0,0,rectangle,11.54699707,-7.205688477,1,0,0,11.54699707,-7.205688477,1,0,0,1,41,201,141,1,,,,,,,,
,,,,,,,,,,,,,FF,,,,,,,,0.6657,,,,,,,,,,,,,,,,,,,,,,60fcc830a7570c6a06934f60,6103707d9c3011b0ea7d3986,2021-07-29_23h25.38.620,Simcolourproject_2stim_asymm_v5,2020.2.10,MacIntel,60,61025ae37ef11b136ea224fe,,,,,,,,,824,-65.45782471,-23.27191162,1,0,0,response5disk,,2,-8.886230469,0.554443359,1,0,0,rectangle,-8.886230469,0.554443359,1,0,0,-8.886230469,0.554443359,1,0,0,1,42,202,83,1,,,,,,,,
,,,,,,,,,,,,,FF,,,,,,,,0.7832,,,,,,,,,,,,,,,,,,,,,,60fcc830a7570c6a06934f60,6103707d9c3011b0ea7d3986,2021-07-29_23h25.38.620,Simcolourproject_2stim_asymm_v5,2020.2.10,MacIntel,60,61025ae37ef11b136ea224fe,,,,,,,,,3309,47.27044678,77.72106934,1,0,0,response1disk,,7,-3.89263916,4.028198242,1,0,0,rectangle,-3.89263916,4.028198242,1,0,0,-3.89263916,4.028198242,1,0,0,1,43,203,48,1,,,,,,,,
,,,,,,,,,,,,,FF,,,,,,,,0.7491,,,,,,,,,,,,,,,,,,,,,,60fcc830a7570c6a06934f60,6103707d9c3011b0ea7d3986,2021-07-29_23h25.38.620,Simcolourproject_2stim_asymm_v5,2020.2.10,MacIntel,60,61025ae37ef11b136ea224fe,,,,,,,,,579,44.68164063,88.58996582,1,0,0,response1disk,,7,12.0078125,-3.704986572,1,0,0,rectangle,12.0078125,-3.704986572,1,0,0,12.0078125,-3.704986572,1,0,0,1,44,204,98,1,,,,,,,,
,,,,,,,,,,,,,FF,,,,,,,,1.3493,,,,,,,,,,,,,,,,,,,,,,60fcc830a7570c6a06934f60,6103707d9c3011b0ea7d3986,2021-07-29_23h25.38.620,Simcolourproject_2stim_asymm_v5,2020.2.10,MacIntel,60,61025ae37ef11b136ea224fe,,,,,,,,,1790,82.61547852,34.8192749,1,0,0,response1disk,,6,19.72814941,0.74130249,1,0,0,rectangle,19.72814941,0.74130249,1,0,0,19.72814941,0.74130249,1,0,0,1,45,205,45,1,,,,,,,,
,,,,,,,,,,,,,FF,,,,,,,,0.7167,,,,,,,,,,,,,,,,,,,,,,60fcc830a7570c6a06934f60,6103707d9c3011b0ea7d3986,2021-07-29_23h25.38.620,Simcolourproject_2stim_asymm_v5,2020.2.10,MacIntel,60,61025ae37ef11b136ea224fe,,,,,,,,,2282,34.12530518,75.13165283,1,0,0,response1disk,,7,7.898803711,9.33972168,1,0,0,rectangle,7.898803711,9.33972168,1,0,0,7.898803711,9.33972168,1,0,0,1,46,206,91,1,,,,,,,,
,,,,,,,,,,,,,FF,,,,,,,,0.8502,,,,,,,,,,,,,,,,,,,,,,60fcc830a7570c6a06934f60,6103707d9c3011b0ea7d3986,2021-07-29_23h25.38.620,Simcolourproject_2stim_asymm_v5,2020.2.10,MacIntel,60,61025ae37ef11b136ea224fe,,,,,,,,,2170,28.90313721,67.63891602,1,0,0,response1disk,,7,0.405212402,10.43386841,1,0,0,rectangle,0.405212402,10.43386841,1,0,0,0.405212402,10.43386841,1,0,0,1,47,207,39,1,,,,,,,,
,,,,,,,,,,,,,FF,,,,,,,,0.8336,,,,,,,,,,,,,,,,,,,,,,60fcc830a7570c6a06934f60,6103707d9c3011b0ea7d3986,2021-07-29_23h25.38.620,Simcolourproject_2stim_asymm_v5,2020.2.10,MacIntel,60,61025ae37ef11b136ea224fe,,,,,,,,,2293,-54.01525879,-28.8503418,1,0,0,response5disk,,2,15.10461426,-0.417053223,1,0,0,rectangle,15.10461426,-0.417053223,1,0,0,15.10461426,-0.417053223,1,0,0,1,48,208,145,1,,,,,,,,
,,,,,,,,,,,,,FF,,,,,,,,0.7164,,,,,,,,,,,,,,,,,,,,,,60fcc830a7570c6a06934f60,6103707d9c3011b0ea7d3986,2021-07-29_23h25.38.620,Simcolourproject_2stim_asymm_v5,2020.2.10,MacIntel,60,61025ae37ef11b136ea224fe,,,,,,,,,1865,45.05145264,67.09432983,1,0,0,response1disk,,7,-2.027404785,-9.06451416,1,0,0,rectangle,75.01696777,48.31604004,1,0,0,27.29449463,9.583557129,1,0,0,1,49,209,89,1,,response1disk_3,TRUE,6,6,"[51,72,218,305,257,154,82,111,22,303,133,286,138,55,314,236,210,145,260,298]",1.5827,rectangle
,,,,,,,,,,,,,FF,,,,,,,,0.7999,,,,,,,,,,,,,,,,,,,,,,60fcc830a7570c6a06934f60,6103707d9c3011b0ea7d3986,2021-07-29_23h25.38.620,Simcolourproject_2stim_asymm_v5,2020.2.10,MacIntel,60,61025ae37ef11b136ea224fe,,,,,,,,,2339,27.29449463,49.64492798,1,0,0,response1disk,,7,-6.851318359,-5.746826172,1,0,0,rectangle,-6.851318359,-5.746826172,1,0,0,-6.851318359,-5.746826172,1,0,0,1,50,210,96,1,,,,,,,,
,,,,,,,,,,,,,FF,,,,,,,,0.8654,,,,,,,,,,,,,,,,,,,,,,60fcc830a7570c6a06934f60,6103707d9c3011b0ea7d3986,2021-07-29_23h25.38.620,Simcolourproject_2stim_asymm_v5,2020.2.10,MacIntel,60,61025ae37ef11b136ea224fe,,,,,,,,,3743,-35.03631592,-52.99511719,1,0,0,response5disk,,3,5.441833496,2.538391113,1,0,0,rectangle,5.441833496,2.538391113,1,0,0,5.441833496,2.538391113,1,0,0,1,51,211,40,1,,,,,,,,
,,,,,,,,,,,,,FF,,,,,,,,0.6501,,,,,,,,,,,,,,,,,,,,,,60fcc830a7570c6a06934f60,6103707d9c3011b0ea7d3986,2021-07-29_23h25.38.620,Simcolourproject_2stim_asymm_v5,2020.2.10,MacIntel,60,61025ae37ef11b136ea224fe,,,,,,,,,629,53.57440186,80.69696045,1,0,0,response1disk,,7,12.34344482,-10.32214355,1,0,0,rectangle,12.34344482,-10.32214355,1,0,0,12.34344482,-10.32214355,1,0,0,1,52,212,29,1,,,,,,,,
,,,,,,,,,,,,,FF,,,,,,,,1.3843,,,,,,,,,,,,,,,,,,,,,,60fcc830a7570c6a06934f60,6103707d9c3011b0ea7d3986,2021-07-29_23h25.38.620,Simcolourproject_2stim_asymm_v5,2020.2.10,MacIntel,60,61025ae37ef11b136ea224fe,,,,,,,,,2412,37.88677979,-69.70385742,1,0,0,response3disk,,4,-0.161743164,6.570983887,1,0,0,rectangle,-0.161743164,6.570983887,1,0,0,-0.161743164,6.570983887,1,0,0,1,53,213,23,1,,,,,,,,
,,,,,,,,,,,,,FF,,,,,,,,1.6169,,,,,,,,,,,,,,,,,,,,,,60fcc830a7570c6a06934f60,6103707d9c3011b0ea7d3986,2021-07-29_23h25.38.620,Simcolourproject_2stim_asymm_v5,2020.2.10,MacIntel,60,61025ae37ef11b136ea224fe,,,,,,,,,2263,43.53253174,-81.56604004,1,0,0,response3disk,,4,3.836120605,12.29937744,1,0,0,rectangle,3.836120605,12.29937744,1,0,0,3.836120605,12.29937744,1,0,0,1,54,214,150,1,,,,,,,,
,,,,,,,,,,,,,FF,,,,,,,,0.5997,,,,,,,,,,,,,,,,,,,,,,60fcc830a7570c6a06934f60,6103707d9c3011b0ea7d3986,2021-07-29_23h25.38.620,Simcolourproject_2stim_asymm_v5,2020.2.10,MacIntel,60,61025ae37ef11b136ea224fe,,,,,,,,,2703,27.43682861,-80.87005615,1,0,0,response3disk,,4,5.825683594,-5.983154297,1,0,0,rectangle,5.825683594,-5.983154297,1,0,0,5.825683594,-5.983154297,1,0,0,1,55,215,118,1,,,,,,,,
,,,,,,,,,,,,,FF,,,,,,,,1.4998,,,,,,,,,,,,,,,,,,,,,,60fcc830a7570c6a06934f60,6103707d9c3011b0ea7d3986,2021-07-29_23h25.38.620,Simcolourproject_2stim_asymm_v5,2020.2.10,MacIntel,60,61025ae37ef11b136ea224fe,,,,,,,,,3018,35.74560547,69.61752319,1,0,0,response1disk,,7,-6.566162109,-8.835266113,1,0,0,rectangle,-6.566162109,-8.835266113,1,0,0,-6.566162109,-8.835266113,1,0,0,1,56,216,116,1,,,,,,,,
,,,,,,,,,,,,,FF,,,,,,,,1.0667,,,,,,,,,,,,,,,,,,,,,,60fcc830a7570c6a06934f60,6103707d9c3011b0ea7d3986,2021-07-29_23h25.38.620,Simcolourproject_2stim_asymm_v5,2020.2.10,MacIntel,60,61025ae37ef11b136ea224fe,,,,,,,,,3965,-85.67303467,46.38342285,1,0,0,response7disk,,1,-9.919128418,7.547241211,1,0,0,rectangle,40.6463623,-95.08691406,1,0,0,5.77947998,-6.140686035,1,0,0,1,57,217,52,1,,response3disk_3,TRUE,4,4,"[51,72,218,305,257,154,82,111,22,303,133,286,138,55,314,236,210,145,260,298]",1.7163,rectangle
,,,,,,,,,,,,,FF,,,,,,,,3.5155,,,,,,,,,,,,,,,,,,,,,,60fcc830a7570c6a06934f60,6103707d9c3011b0ea7d3986,2021-07-29_23h25.38.620,Simcolourproject_2stim_asymm_v5,2020.2.10,MacIntel,60,61025ae37ef11b136ea224fe,,,,,,,,,2310,72.17205811,40.89422607,1,0,0,response1disk,,6,-8.129211426,-9.731262207,1,0,0,rectangle,-8.129211426,-9.731262207,1,0,0,-8.129211426,-9.731262207,1,0,0,1,58,218,90,1,,,,,,,,
,,,,,,,,,,,,,FF,,,,,,,,0.9833,,,,,,,,,,,,,,,,,,,,,,60fcc830a7570c6a06934f60,6103707d9c3011b0ea7d3986,2021-07-29_23h25.38.620,Simcolourproject_2stim_asymm_v5,2020.2.10,MacIntel,60,61025ae37ef11b136ea224fe,,,,,,,,,1226,-69.39660645,41.03717041,1,0,0,response7disk,,1,-14.50360107,5.464172363,1,0,0,rectangle,-14.50360107,5.464172363,1,0,0,-14.50360107,5.464172363,1,0,0,1,59,219,60,1,,,,,,,,
,,,,,,,,,,,,,FF,,,,,,,,1.2327,,,,,,,,,,,,,,,,,,,,,,60fcc830a7570c6a06934f60,6103707d9c3011b0ea7d3986,2021-07-29_23h25.38.620,Simcolourproject_2stim_asymm_v5,2020.2.10,MacIntel,60,61025ae37ef11b136ea224fe,,,,,,,,,4107,-32.08276367,-68.831604,1,0,0,response5disk,,3,1.328369141,6.020874023,1,0,0,rectangle,1.328369141,6.020874023,1,0,0,1.328369141,6.020874023,1,0,0,1,60,220,129,1,,,,,,,,
,,,,,,,,,,,,,FF,,,,,,,,1.5185,,,,,,,,,,,,,,,,,,,,,,60fcc830a7570c6a06934f60,6103707d9c3011b0ea7d3986,2021-07-29_23h25.38.620,Simcolourproject_2stim_asymm_v5,2020.2.10,MacIntel,60,61025ae37ef11b136ea224fe,,,,,,,,,3632,48.10253906,77.52966309,1,0,0,response1disk,,7,9.027099609,10.86029053,1,0,0,rectangle,9.027099609,10.86029053,1,0,0,9.027099609,10.86029053,1,0,0,1,61,221,148,1,,,,,,,,
,,,,,,,,,,,,,FF,,,,,,,,1.2509,,,,,,,,,,,,,,,,,,,,,,60fcc830a7570c6a06934f60,6103707d9c3011b0ea7d3986,2021-07-29_23h25.38.620,Simcolourproject_2stim_asymm_v5,2020.2.10,MacIntel,60,61025ae37ef11b136ea224fe,,,,,,,,,3200,-75.91027832,46.32659912,1,0,0,response7disk,,1,-16.69488525,0.338989258,1,0,0,rectangle,-16.69488525,0.338989258,1,0,0,-16.69488525,0.338989258,1,0,0,1,62,222,12,1,,,,,,,,
,,,,,,,,,,,,,FF,,,,,,,,1.8339,,,,,,,,,,,,,,,,,,,,,,60fcc830a7570c6a06934f60,6103707d9c3011b0ea7d3986,2021-07-29_23h25.38.620,Simcolourproject_2stim_asymm_v5,2020.2.10,MacIntel,60,61025ae37ef11b136ea224fe,,,,,,,,,3358,72.42657471,17.21368408,1,0,0,response1disk,,6,-1.808105469,4.303039551,1,0,0,rectangle,-1.808105469,4.303039551,1,0,0,-1.808105469,4.303039551,1,0,0,1,63,223,100,1,,,,,,,,
,,,,,,,,,,,,,FF,,,,,,,,1.083,,,,,,,,,,,,,,,,,,,,,,60fcc830a7570c6a06934f60,6103707d9c3011b0ea7d3986,2021-07-29_23h25.38.620,Simcolourproject_2stim_asymm_v5,2020.2.10,MacIntel,60,61025ae37ef11b136ea224fe,,,,,,,,,348,-62.34130859,-42.60137939,1,0,0,response5disk,,2,-14.45269775,-17.25469971,1,0,0,rectangle,-14.45269775,-17.25469971,1,0,0,-14.45269775,-17.25469971,1,0,0,1,64,224,159,1,,,,,,,,
,,,,,,,,,,,,,FF,,,,,,,,2.1167,,,,,,,,,,,,,,,,,,,,,,60fcc830a7570c6a06934f60,6103707d9c3011b0ea7d3986,2021-07-29_23h25.38.620,Simcolourproject_2stim_asymm_v5,2020.2.10,MacIntel,60,61025ae37ef11b136ea224fe,,,,,,,,,3788,-28.61114502,-80.35144043,1,0,0,response5disk,,3,12.99475098,2.958984375,1,0,0,rectangle,12.99475098,2.958984375,1,0,0,12.99475098,2.958984375,1,0,0,1,65,225,49,1,,,,,,,,
,,,,,,,,,,,,,FF,,,,,,,,0.8328,,,,,,,,,,,,,,,,,,,,,,60fcc830a7570c6a06934f60,6103707d9c3011b0ea7d3986,2021-07-29_23h25.38.620,Simcolourproject_2stim_asymm_v5,2020.2.10,MacIntel,60,61025ae37ef11b136ea224fe,,,,,,,,,3253,28.90545654,-50.71710205,1,0,0,response3disk,,4,1.517883301,-4.155944824,1,0,0,rectangle,1.517883301,-4.155944824,1,0,0,1.517883301,-4.155944824,1,0,0,1,66,226,158,1,,,,,,,,
,,,,,,,,,,,,,FF,,,,,,,,0.7516,,,,,,,,,,,,,,,,,,,,,,60fcc830a7570c6a06934f60,6103707d9c3011b0ea7d3986,2021-07-29_23h25.38.620,Simcolourproject_2stim_asymm_v5,2020.2.10,MacIntel,60,61025ae37ef11b136ea224fe,,,,,,,,,3978,64.07263184,-28.62878418,1,0,0,response3disk,,5,18.34558105,6.189117432,1,0,0,rectangle,18.34558105,6.189117432,1,0,0,18.34558105,6.189117432,1,0,0,1,67,227,119,1,,,,,,,,
,,,,,,,,,,,,,FF,,,,,,,,1.0676,,,,,,,,,,,,,,,,,,,,,,60fcc830a7570c6a06934f60,6103707d9c3011b0ea7d3986,2021-07-29_23h25.38.620,Simcolourproject_2stim_asymm_v5,2020.2.10,MacIntel,60,61025ae37ef11b136ea224fe,,,,,,,,,4071,-58.04998779,86.09259033,1,0,0,response7disk,,0,-2.452636719,6.777587891,1,0,0,rectangle,-2.452636719,6.777587891,1,0,0,-2.452636719,6.777587891,1,0,0,1,68,228,10,1,,,,,,,,
,,,,,,,,,,,,,FF,,,,,,,,1.6158,,,,,,,,,,,,,,,,,,,,,,60fcc830a7570c6a06934f60,6103707d9c3011b0ea7d3986,2021-07-29_23h25.38.620,Simcolourproject_2stim_asymm_v5,2020.2.10,MacIntel,60,61025ae37ef11b136ea224fe,,,,,,,,,766,64.92791748,38.32714844,1,0,0,response1disk,,6,11.39025879,1.673278809,1,0,0,rectangle,11.39025879,1.673278809,1,0,0,11.39025879,1.673278809,1,0,0,1,69,229,111,1,,,,,,,,
,,,,,,,,,,,,,FF,,,,,,,,1.1505,,,,,,,,,,,,,,,,,,,,,,60fcc830a7570c6a06934f60,6103707d9c3011b0ea7d3986,2021-07-29_23h25.38.620,Simcolourproject_2stim_asymm_v5,2020.2.10,MacIntel,60,61025ae37ef11b136ea224fe,,,,,,,,,2041,-60.46520996,-33.14874268,1,0,0,response5disk,,2,-8.77746582,-2.098876953,1,0,0,rectangle,-8.77746582,-2.098876953,1,0,0,-8.77746582,-2.098876953,1,0,0,1,70,230,56,1,,,,,,,,
,,,,,,,,,,,,,FF,,,,,,,,1.3386,,,,,,,,,,,,,,,,,,,,,,60fcc830a7570c6a06934f60,6103707d9c3011b0ea7d3986,2021-07-29_23h25.38.620,Simcolourproject_2stim_asymm_v5,2020.2.10,MacIntel,60,61025ae37ef11b136ea224fe,,,,,,,,,8,-27.08551025,-81.75537109,1,0,0,response5disk,,3,-1.033447266,-3.185028076,1,0,0,rectangle,-1.033447266,-3.185028076,1,0,0,-1.033447266,-3.185028076,1,0,0,1,71,231,78,1,,,,,,,,
,,,,,,,,,,,,,FF,,,,,,,,1.0497,,,,,,,,,,,,,,,,,,,,,,60fcc830a7570c6a06934f60,6103707d9c3011b0ea7d3986,2021-07-29_23h25.38.620,Simcolourproject_2stim_asymm_v5,2020.2.10,MacIntel,60,61025ae37ef11b136ea224fe,,,,,,,,,3094,-81.74682617,-35.90768433,1,0,0,response5disk,,2,-19.60357666,-6.311187744,1,0,0,rectangle,-19.60357666,-6.311187744,1,0,0,-19.60357666,-6.311187744,1,0,0,1,72,232,77,1,,,,,,,,
,,,,,,,,,,,,,FF,,,,,,,,2.0169,,,,,,,,,,,,,,,,,,,,,,60fcc830a7570c6a06934f60,6103707d9c3011b0ea7d3986,2021-07-29_23h25.38.620,Simcolourproject_2stim_asymm_v5,2020.2.10,MacIntel,60,61025ae37ef11b136ea224fe,,,,,,,,,4197,-44.37927246,-73.83587646,1,0,0,response5disk,,3,9.718566895,5.36706543,1,0,0,rectangle,9.718566895,5.36706543,1,0,0,9.718566895,5.36706543,1,0,0,1,73,233,44,1,,,,,,,,
,,,,,,,,,,,,,FF,,,,,,,,1.1329,,,,,,,,,,,,,,,,,,,,,,60fcc830a7570c6a06934f60,6103707d9c3011b0ea7d3986,2021-07-29_23h25.38.620,Simcolourproject_2stim_asymm_v5,2020.2.10,MacIntel,60,61025ae37ef11b136ea224fe,,,,,,,,,782,-22.32043457,-79.91333008,1,0,0,response5disk,,3,-11.39239502,-11.43457031,1,0,0,rectangle,-11.39239502,-11.43457031,1,0,0,-11.39239502,-11.43457031,1,0,0,1,74,234,106,1,,,,,,,,
,,,,,,,,,,,,,FF,,,,,,,,0.6493,,,,,,,,,,,,,,,,,,,,,,60fcc830a7570c6a06934f60,6103707d9c3011b0ea7d3986,2021-07-29_23h25.38.620,Simcolourproject_2stim_asymm_v5,2020.2.10,MacIntel,60,61025ae37ef11b136ea224fe,,,,,,,,,3171,37.67919922,-80.88330078,1,0,0,response3disk,,4,12.3494873,-5.874023438,1,0,0,rectangle,94.72814941,47.47058105,1,0,0,10.95965576,-5.49887085,1,0,0,1,75,235,53,1,,response1disk_3,TRUE,6,6,"[51,72,218,305,257,154,82,111,22,303,133,286,138,55,314,236,210,145,260,298]",1.4499,rectangle
,,,,,,,,,,,,,FF,,,,,,,,1.7825,,,,,,,,,,,,,,,,,,,,,,60fcc830a7570c6a06934f60,6103707d9c3011b0ea7d3986,2021-07-29_23h25.38.620,Simcolourproject_2stim_asymm_v5,2020.2.10,MacIntel,60,61025ae37ef11b136ea224fe,,,,,,,,,25,47.64263916,-51.12915039,1,0,0,response3disk,,4,10.3996582,-10.53829956,1,0,0,rectangle,10.3996582,-10.53829956,1,0,0,10.3996582,-10.53829956,1,0,0,1,76,236,87,1,,,,,,,,
,,,,,,,,,,,,,FF,,,,,,,,0.8499,,,,,,,,,,,,,,,,,,,,,,60fcc830a7570c6a06934f60,6103707d9c3011b0ea7d3986,2021-07-29_23h25.38.620,Simcolourproject_2stim_asymm_v5,2020.2.10,MacIntel,60,61025ae37ef11b136ea224fe,,,,,,,,,4029,-79.03125,-28.78720093,1,0,0,response5disk,,2,-13.13299561,0.304199219,1,0,0,rectangle,-13.13299561,0.304199219,1,0,0,-13.13299561,0.304199219,1,0,0,1,77,237,130,1,,,,,,,,
,,,,,,,,,,,,,FF,,,,,,,,0.9998,,,,,,,,,,,,,,,,,,,,,,60fcc830a7570c6a06934f60,6103707d9c3011b0ea7d3986,2021-07-29_23h25.38.620,Simcolourproject_2stim_asymm_v5,2020.2.10,MacIntel,60,61025ae37ef11b136ea224fe,,,,,,,,,2755,57.9152832,98.70233154,1,0,0,response1disk,,7,16.69146729,8.233276367,1,0,0,rectangle,16.69146729,8.233276367,1,0,0,16.69146729,8.233276367,1,0,0,1,78,238,70,1,,,,,,,,
,,,,,,,,,,,,,FF,,,,,,,,1.25,,,,,,,,,,,,,,,,,,,,,,60fcc830a7570c6a06934f60,6103707d9c3011b0ea7d3986,2021-07-29_23h25.38.620,Simcolourproject_2stim_asymm_v5,2020.2.10,MacIntel,60,61025ae37ef11b136ea224fe,,,,,,,,,1664,70.42364502,39.48831177,1,0,0,response1disk,,6,22.11199951,8.733154297,1,0,0,rectangle,22.11199951,8.733154297,1,0,0,22.11199951,8.733154297,1,0,0,1,79,239,94,1,,,,,,,,
,,,,,,,,,,,,,FF,,,,,,,,1.4836,,,,,,,,,,,,,,,,,,,,,,60fcc830a7570c6a06934f60,6103707d9c3011b0ea7d3986,2021-07-29_23h25.38.620,Simcolourproject_2stim_asymm_v5,2020.2.10,MacIntel,60,61025ae37ef11b136ea224fe,,,,,,,,,376,53.84820557,-34.92266846,1,0,0,response3disk,,5,-0.563903809,-10.09362793,1,0,0,rectangle,-0.563903809,-10.09362793,1,0,0,-0.563903809,-10.09362793,1,0,0,1,80,240,18,1,,,,,,,,
,,,,,,,,,,,,,FF,,,,,,,,0.8661,,,,,,,,,,,,,,,,,,,,,,60fcc830a7570c6a06934f60,6103707d9c3011b0ea7d3986,2021-07-29_23h25.38.620,Simcolourproject_2stim_asymm_v5,2020.2.10,MacIntel,60,61025ae37ef11b136ea224fe,,,,,,,,,3167,24.67468262,-78.66149902,1,0,0,response3disk,,4,10.68780518,-8.836181641,1,0,0,rectangle,10.68780518,-8.836181641,1,0,0,10.68780518,-8.836181641,1,0,0,1,81,241,84,1,,,,,,,,
