key_resp.keys,key_resp.rt,key_resp_14.keys,key_resp_14.rt,key_resp_15.keys,key_resp_15.rt,key_resp_17.keys,key_resp_17.rt,key_resp_9.keys,key_resp_9.rt,key_resp_10.keys,key_resp_10.rt,practice_comparison,Ecc,mouse_5.x,mouse_5.y,mouse_5.leftButton,mouse_5.midButton,mouse_5.rightButton,mouse_5.clicked_name,pracsimilarity,response_time,mouse_10.x,mouse_10.y,mouse_10.leftButton,mouse_10.midButton,mouse_10.rightButton,mouse_10.clicked_name,mouse_7.x,mouse_7.y,mouse_7.leftButton,mouse_7.midButton,mouse_7.rightButton,mouse_6.x,mouse_6.y,mouse_6.leftButton,mouse_6.midButton,mouse_6.rightButton,duringprac.thisRepN,duringprac.thisTrialN,duringprac.thisN,duringprac.thisIndex,duringprac.ran,participant,session,date,expName,psychopyVersion,OS,frameRate,study_id,mouse_7.clicked_name,catchpracsimilarity,catch_response_time,catchnumberprac,catchtrialorderprac,mouse_6.clicked_name,key_resp_22.keys,key_resp_22.rt,realcomparison,mouse.x,mouse.y,mouse.leftButton,mouse.midButton,mouse.rightButton,mouse.clicked_name,Colour2,similarity,mouse_2.x,mouse_2.y,mouse_2.leftButton,mouse_2.midButton,mouse_2.rightButton,mouse_2.clicked_name,mouse_3.x,mouse_3.y,mouse_3.leftButton,mouse_3.midButton,mouse_3.rightButton,mouse_11.x,mouse_11.y,mouse_11.leftButton,mouse_11.midButton,mouse_11.rightButton,trials_2.thisRepN,trials_2.thisTrialN,trials_2.thisN,trials_2.thisIndex,trials_2.ran,Colour1,mouse_3.clicked_name,catchornah,catchsimilarity,catchnumber,catchtrialorder,catchRT,mouse_11.clicked_name
space,1.7429,space,13.6265,space,9.6804,space,5.8506,space,1.3212,space,4.2215,156,PF,35.20001197,-100.0000079,1,0,0,response3disk_5,4,17.536,-3.199988604,2.399993598,1,0,0,rectangle_8,-3.199988604,2.399993598,1,0,0,-3.199988604,2.399993598,1,0,0,0,0,0,1,1,60fcd70d608b9cd2da4651f7,61036dff1cbe328e09cf2616,2021-07-29_21h12.37.668,Simcolourproject_2stim_asymm_v5,2020.2.10,Win32,60,61025ae37ef11b136ea224fe,,,,,,,,,,,,,,,,,,,,,,,,,,,,,,,,,,,,,,,,,,,,,,
,,,,,,,,,,,,98,FF,101.600013,-46.40000713,1,0,0,response3disk_5,5,8.5432,-4.799988627,10.39999372,1,0,0,rectangle_8,51.20001221,-120.8000082,1,0,0,-7.199988663,3.19999361,1,0,0,0,1,1,0,1,60fcd70d608b9cd2da4651f7,61036dff1cbe328e09cf2616,2021-07-29_21h12.37.668,Simcolourproject_2stim_asymm_v5,2020.2.10,Win32,60,61025ae37ef11b136ea224fe,response3disk_7,4,2.7279,4,"[2,5]",rectangle_4,,,,,,,,,,,,,,,,,,,,,,,,,,,,,,,,,,,,,,,,
,,,,,,,,,,,,97,FF,-109.5999902,-64.00000739,1,0,0,response5disk_5,2,3.8261,-9.599988699,5.599993646,1,0,0,rectangle_8,-9.599988699,5.599993646,1,0,0,-9.599988699,5.599993646,1,0,0,0,2,2,5,1,60fcd70d608b9cd2da4651f7,61036dff1cbe328e09cf2616,2021-07-29_21h12.37.668,Simcolourproject_2stim_asymm_v5,2020.2.10,Win32,60,61025ae37ef11b136ea224fe,,,,,,,,,,,,,,,,,,,,,,,,,,,,,,,,,,,,,,,,,,,,,,
,,,,,,,,,,,,31,PF,56.80001229,81.59999478,1,0,0,response1disk_5,7,2.4435,-3.999988616,0.799993575,1,0,0,rectangle_8,-3.999988616,0.799993575,1,0,0,-3.999988616,0.799993575,1,0,0,0,3,3,6,1,60fcd70d608b9cd2da4651f7,61036dff1cbe328e09cf2616,2021-07-29_21h12.37.668,Simcolourproject_2stim_asymm_v5,2020.2.10,Win32,60,61025ae37ef11b136ea224fe,,,,,,,,,,,,,,,,,,,,,,,,,,,,,,,,,,,,,,,,,,,,,,
,,,,,,,,,,,,24,PF,62.40001237,40.79999417,1,0,0,response1disk_5,6,2.131,-3.999988616,-4.000006497,1,0,0,rectangle_8,41.60006089,-68.80000746,1,0,0,-4.799988627,7.19999367,1,0,0,0,4,4,4,1,60fcd70d608b9cd2da4651f7,61036dff1cbe328e09cf2616,2021-07-29_21h12.37.668,Simcolourproject_2stim_asymm_v5,2020.2.10,Win32,60,61025ae37ef11b136ea224fe,response3disk_7,4,1.6819,4,"[2,5]",rectangle_4,,,,,,,,,,,,,,,,,,,,,,,,,,,,,,,,,,,,,,,,
,,,,,,,,,,,,138,PF,80.80001265,-57.6000073,1,0,0,response3disk_5,5,4.8663,-9.599988699,5.599993646,1,0,0,rectangle_8,-9.599988699,5.599993646,1,0,0,-9.599988699,5.599993646,1,0,0,0,5,5,2,1,60fcd70d608b9cd2da4651f7,61036dff1cbe328e09cf2616,2021-07-29_21h12.37.668,Simcolourproject_2stim_asymm_v5,2020.2.10,Win32,60,61025ae37ef11b136ea224fe,,,,,,,,,,,,,,,,,,,,,,,,,,,,,,,,,,,,,,,,,,,,,,
,,,,,,,,,,,,24,FF,77.6000126,46.39999425,1,0,0,response1disk_5,6,2.3479,5.600060356,1.599993587,1,0,0,rectangle_8,5.600060356,1.599993587,1,0,0,5.600060356,1.599993587,1,0,0,0,6,6,3,1,60fcd70d608b9cd2da4651f7,61036dff1cbe328e09cf2616,2021-07-29_21h12.37.668,Simcolourproject_2stim_asymm_v5,2020.2.10,Win32,60,61025ae37ef11b136ea224fe,,,,,,,,,,,,,,,,,,,,,,,,,,,,,,,,,,,,,,,,,,,,,,
,,,,,,,,,,,,,FF,,,,,,,,2.2269,,,,,,,,,,,,,,,,,,,,,,60fcd70d608b9cd2da4651f7,61036dff1cbe328e09cf2616,2021-07-29_21h12.37.668,Simcolourproject_2stim_asymm_v5,2020.2.10,Win32,60,61025ae37ef11b136ea224fe,,,,,,,space,3.3044,1920,85.60001272,-40.00000703,1,0,0,response3disk,,5,-10.39993988,10.39999372,1,0,0,rectangle,-10.39993988,10.39999372,1,0,0,-10.39993988,10.39999372,1,0,0,0,0,0,51,1,,,,,,,,
,,,,,,,,,,,,,FF,,,,,,,,3.0249,,,,,,,,,,,,,,,,,,,,,,60fcd70d608b9cd2da4651f7,61036dff1cbe328e09cf2616,2021-07-29_21h12.37.668,Simcolourproject_2stim_asymm_v5,2020.2.10,Win32,60,61025ae37ef11b136ea224fe,,,,,,,,,393,-65.59998953,-93.60005666,1,0,0,response5disk,,3,-3.999988616,9.599993706,1,0,0,rectangle,-3.999988616,9.599993706,1,0,0,-3.999988616,9.599993706,1,0,0,0,1,1,48,1,,,,,,,,
,,,,,,,,,,,,,FF,,,,,,,,2.0782,,,,,,,,,,,,,,,,,,,,,,60fcd70d608b9cd2da4651f7,61036dff1cbe328e09cf2616,2021-07-29_21h12.37.668,Simcolourproject_2stim_asymm_v5,2020.2.10,Win32,60,61025ae37ef11b136ea224fe,,,,,,,,,4278,63.20001239,-87.20000774,1,0,0,response3disk,,4,-3.999988616,3.999993622,1,0,0,rectangle,-3.999988616,3.999993622,1,0,0,-3.999988616,3.999993622,1,0,0,0,2,2,60,1,,,,,,,,
,,,,,,,,,,,,,FF,,,,,,,,4.3879,,,,,,,,,,,,,,,,,,,,,,60fcd70d608b9cd2da4651f7,61036dff1cbe328e09cf2616,2021-07-29_21h12.37.668,Simcolourproject_2stim_asymm_v5,2020.2.10,Win32,60,61025ae37ef11b136ea224fe,,,,,,,,,2222,-114.3999414,-58.40000731,1,0,0,response5disk,,2,-6.399939823,5.599993646,1,0,0,rectangle,-6.399939823,5.599993646,1,0,0,-6.399939823,5.599993646,1,0,0,0,3,3,107,1,,,,,,,,
,,,,,,,,,,,,,FF,,,,,,,,2.2935,,,,,,,,,,,,,,,,,,,,,,60fcd70d608b9cd2da4651f7,61036dff1cbe328e09cf2616,2021-07-29_21h12.37.668,Simcolourproject_2stim_asymm_v5,2020.2.10,Win32,60,61025ae37ef11b136ea224fe,,,,,,,,,2020,52.00001222,-71.2000075,1,0,0,response3disk,,4,1.14441E-05,-6.4373E-06,1,0,0,rectangle,1.14441E-05,-6.4373E-06,1,0,0,1.14441E-05,-6.4373E-06,1,0,0,0,4,4,13,1,,,,,,,,
,,,,,,,,,,,,,FF,,,,,,,,4.139,,,,,,,,,,,,,,,,,,,,,,60fcd70d608b9cd2da4651f7,61036dff1cbe328e09cf2616,2021-07-29_21h12.37.668,Simcolourproject_2stim_asymm_v5,2020.2.10,Win32,60,61025ae37ef11b136ea224fe,,,,,,,,,3050,-90.39994107,-69.60000747,1,0,0,response5disk,,2,-3.199988604,0.799993575,1,0,0,rectangle,-3.199988604,0.799993575,1,0,0,-3.199988604,0.799993575,1,0,0,0,5,5,147,1,,,,,,,,
,,,,,,,,,,,,,FF,,,,,,,,1.5458,,,,,,,,,,,,,,,,,,,,,,60fcd70d608b9cd2da4651f7,61036dff1cbe328e09cf2616,2021-07-29_21h12.37.668,Simcolourproject_2stim_asymm_v5,2020.2.10,Win32,60,61025ae37ef11b136ea224fe,,,,,,,,,2575,90.40001279,-32.80000693,1,0,0,response3disk,,5,10.4000116,3.999993622,1,0,0,rectangle,97.6000129,-59.20000732,1,0,0,-10.39993988,5.599993646,1,0,0,0,6,6,71,1,,response3disk_3,TRUE,5,5,"[10,291,303,177,197,24,321,70,226,233,182,7,126,314,21,71,239,98,33,313]",1.6452,rectangle
,,,,,,,,,,,,,FF,,,,,,,,1.3131,,,,,,,,,,,,,,,,,,,,,,60fcd70d608b9cd2da4651f7,61036dff1cbe328e09cf2616,2021-07-29_21h12.37.668,Simcolourproject_2stim_asymm_v5,2020.2.10,Win32,60,61025ae37ef11b136ea224fe,,,,,,,,,1833,76.00001258,36.79999411,1,0,0,response1disk,,6,-5.599988639,0.799993575,1,0,0,rectangle,-5.599988639,0.799993575,1,0,0,-5.599988639,0.799993575,1,0,0,0,7,7,118,1,,,,,,,,
,,,,,,,,,,,,,FF,,,,,,,,2.7758,,,,,,,,,,,,,,,,,,,,,,60fcd70d608b9cd2da4651f7,61036dff1cbe328e09cf2616,2021-07-29_21h12.37.668,Simcolourproject_2stim_asymm_v5,2020.2.10,Win32,60,61025ae37ef11b136ea224fe,,,,,,,,,2787,-35.99998909,-111.2000081,1,0,0,response5disk,,3,-15.19998878,7.19999367,1,0,0,rectangle,-15.19998878,7.19999367,1,0,0,-15.19998878,7.19999367,1,0,0,0,8,8,143,1,,,,,,,,
,,,,,,,,,,,,,FF,,,,,,,,2.5593,,,,,,,,,,,,,,,,,,,,,,60fcd70d608b9cd2da4651f7,61036dff1cbe328e09cf2616,2021-07-29_21h12.37.668,Simcolourproject_2stim_asymm_v5,2020.2.10,Win32,60,61025ae37ef11b136ea224fe,,,,,,,,,820,-49.5999893,-87.20000774,1,0,0,response5disk,,3,-12.79998875,-8.000006557,1,0,0,rectangle,41.60006089,-104.000008,1,0,0,-7.999988675,0.799993575,1,0,0,0,9,9,66,1,,response3disk_3,TRUE,4,4,"[10,291,303,177,197,24,321,70,226,233,182,7,126,314,21,71,239,98,33,313]",1.2835,rectangle
,,,,,,,,,,,,,FF,,,,,,,,4.3887,,,,,,,,,,,,,,,,,,,,,,60fcd70d608b9cd2da4651f7,61036dff1cbe328e09cf2616,2021-07-29_21h12.37.668,Simcolourproject_2stim_asymm_v5,2020.2.10,Win32,60,61025ae37ef11b136ea224fe,,,,,,,,,3104,-88.79998988,45.59999424,1,0,0,response7disk,,1,-10.39993988,-4.800006509,1,0,0,rectangle,-10.39993988,-4.800006509,1,0,0,-10.39993988,-4.800006509,1,0,0,0,10,10,112,1,,,,,,,,
,,,,,,,,,,,,,FF,,,,,,,,2.9782,,,,,,,,,,,,,,,,,,,,,,60fcd70d608b9cd2da4651f7,61036dff1cbe328e09cf2616,2021-07-29_21h12.37.668,Simcolourproject_2stim_asymm_v5,2020.2.10,Win32,60,61025ae37ef11b136ea224fe,,,,,,,,,1091,-47.99998927,-112.8000081,1,0,0,response5disk,,3,-12.79998875,-1.600006461,1,0,0,rectangle,-12.79998875,-1.600006461,1,0,0,-12.79998875,-1.600006461,1,0,0,0,11,11,53,1,,,,,,,,
,,,,,,,,,,,,,FF,,,,,,,,1.2136,,,,,,,,,,,,,,,,,,,,,,60fcd70d608b9cd2da4651f7,61036dff1cbe328e09cf2616,2021-07-29_21h12.37.668,Simcolourproject_2stim_asymm_v5,2020.2.10,Win32,60,61025ae37ef11b136ea224fe,,,,,,,,,137,91.2000128,-54.40000725,1,0,0,response3disk,,5,-8.799988687,1.599993587,1,0,0,rectangle,-8.799988687,1.599993587,1,0,0,-8.799988687,1.599993587,1,0,0,0,12,12,10,1,,,,,,,,
,,,,,,,,,,,,,FF,,,,,,,,1.197,,,,,,,,,,,,,,,,,,,,,,60fcd70d608b9cd2da4651f7,61036dff1cbe328e09cf2616,2021-07-29_21h12.37.668,Simcolourproject_2stim_asymm_v5,2020.2.10,Win32,60,61025ae37ef11b136ea224fe,,,,,,,,,3105,-94.39994113,-36.00000697,1,0,0,response5disk,,2,-4.799988627,-4.000006497,1,0,0,rectangle,-4.799988627,-4.000006497,1,0,0,-4.799988627,-4.000006497,1,0,0,0,13,13,68,1,,,,,,,,
,,,,,,,,,,,,,FF,,,,,,,,0.9317,,,,,,,,,,,,,,,,,,,,,,60fcd70d608b9cd2da4651f7,61036dff1cbe328e09cf2616,2021-07-29_21h12.37.668,Simcolourproject_2stim_asymm_v5,2020.2.10,Win32,60,61025ae37ef11b136ea224fe,,,,,,,,,3047,-94.39994113,38.39999413,1,0,0,response7disk,,1,-11.19998872,2.399993598,1,0,0,rectangle,-11.19998872,2.399993598,1,0,0,-11.19998872,2.399993598,1,0,0,0,14,14,43,1,,,,,,,,
,,,,,,,,,,,,,FF,,,,,,,,2.1274,,,,,,,,,,,,,,,,,,,,,,60fcd70d608b9cd2da4651f7,61036dff1cbe328e09cf2616,2021-07-29_21h12.37.668,Simcolourproject_2stim_asymm_v5,2020.2.10,Win32,60,61025ae37ef11b136ea224fe,,,,,,,,,3792,100.0000129,35.9999941,1,0,0,response1disk,,6,-3.999988616,5.599993646,1,0,0,rectangle,-3.999988616,5.599993646,1,0,0,-3.999988616,5.599993646,1,0,0,0,15,15,78,1,,,,,,,,
,,,,,,,,,,,,,FF,,,,,,,,1.4332,,,,,,,,,,,,,,,,,,,,,,60fcd70d608b9cd2da4651f7,61036dff1cbe328e09cf2616,2021-07-29_21h12.37.668,Simcolourproject_2stim_asymm_v5,2020.2.10,Win32,60,61025ae37ef11b136ea224fe,,,,,,,,,2286,20.80001175,-95.20000786,1,0,0,response3disk,,4,-14.39993994,-8.800006568,1,0,0,rectangle,-14.39993994,-8.800006568,1,0,0,-14.39993994,-8.800006568,1,0,0,0,16,16,140,1,,,,,,,,
,,,,,,,,,,,,,FF,,,,,,,,1.8786,,,,,,,,,,,,,,,,,,,,,,60fcd70d608b9cd2da4651f7,61036dff1cbe328e09cf2616,2021-07-29_21h12.37.668,Simcolourproject_2stim_asymm_v5,2020.2.10,Win32,60,61025ae37ef11b136ea224fe,,,,,,,,,3808,99.20001292,20.79999387,1,0,0,response1disk,,6,-2.399939764,-10.40000659,1,0,0,rectangle,-2.399939764,-10.40000659,1,0,0,-2.399939764,-10.40000659,1,0,0,0,17,17,98,1,,,,,,,,
,,,,,,,,,,,,,FF,,,,,,,,1.0777,,,,,,,,,,,,,,,,,,,,,,60fcd70d608b9cd2da4651f7,61036dff1cbe328e09cf2616,2021-07-29_21h12.37.668,Simcolourproject_2stim_asymm_v5,2020.2.10,Win32,60,61025ae37ef11b136ea224fe,,,,,,,,,3288,89.60001278,47.19996985,1,0,0,response1disk,,6,5.600060356,5.599993646,1,0,0,rectangle,5.600060356,5.599993646,1,0,0,5.600060356,5.599993646,1,0,0,0,18,18,120,1,,,,,,,,
,,,,,,,,,,,,,FF,,,,,,,,1.1671,,,,,,,,,,,,,,,,,,,,,,60fcd70d608b9cd2da4651f7,61036dff1cbe328e09cf2616,2021-07-29_21h12.37.668,Simcolourproject_2stim_asymm_v5,2020.2.10,Win32,60,61025ae37ef11b136ea224fe,,,,,,,,,70,-95.19998997,34.39999408,1,0,0,response7disk,,1,6.400011539,-7.200006545,1,0,0,rectangle,6.400011539,-7.200006545,1,0,0,6.400011539,-7.200006545,1,0,0,0,19,19,70,1,,,,,,,,
,,,,,,,,,,,,,FF,,,,,,,,2.4736,,,,,,,,,,,,,,,,,,,,,,60fcd70d608b9cd2da4651f7,61036dff1cbe328e09cf2616,2021-07-29_21h12.37.668,Simcolourproject_2stim_asymm_v5,2020.2.10,Win32,60,61025ae37ef11b136ea224fe,,,,,,,,,2113,44.0000121,-100.0000079,1,0,0,response3disk,,4,-3.199988604,-11.2000066,1,0,0,rectangle,95.20001286,-55.20000726,1,0,0,4.000011504,8.799993694,1,0,0,0,20,20,85,1,,response3disk_3,TRUE,5,5,"[10,291,303,177,197,24,321,70,226,233,182,7,126,314,21,71,239,98,33,313]",1.3428,rectangle
,,,,,,,,,,,,,FF,,,,,,,,2.094,,,,,,,,,,,,,,,,,,,,,,60fcd70d608b9cd2da4651f7,61036dff1cbe328e09cf2616,2021-07-29_21h12.37.668,Simcolourproject_2stim_asymm_v5,2020.2.10,Win32,60,61025ae37ef11b136ea224fe,,,,,,,,,3929,119.2000132,23.99999392,1,0,0,response1disk,,6,-5.599988639,-2.400006473,1,0,0,rectangle,-5.599988639,-2.400006473,1,0,0,-5.599988639,-2.400006473,1,0,0,0,21,21,104,1,,,,,,,,
,,,,,,,,,,,,,FF,,,,,,,,1.8316,,,,,,,,,,,,,,,,,,,,,,60fcd70d608b9cd2da4651f7,61036dff1cbe328e09cf2616,2021-07-29_21h12.37.668,Simcolourproject_2stim_asymm_v5,2020.2.10,Win32,60,61025ae37ef11b136ea224fe,,,,,,,,,3374,-77.59998971,-40.00000703,1,0,0,response5disk,,2,-21.59998888,-12.80000663,1,0,0,rectangle,-21.59998888,-12.80000663,1,0,0,-21.59998888,-12.80000663,1,0,0,0,22,22,117,1,,,,,,,,
,,,,,,,,,,,,,FF,,,,,,,,1.8251,,,,,,,,,,,,,,,,,,,,,,60fcd70d608b9cd2da4651f7,61036dff1cbe328e09cf2616,2021-07-29_21h12.37.668,Simcolourproject_2stim_asymm_v5,2020.2.10,Win32,60,61025ae37ef11b136ea224fe,,,,,,,,,3714,-58.3999406,-103.200008,1,0,0,response5disk,,3,-9.599988699,-6.4373E-06,1,0,0,rectangle,83.20001268,-50.40000719,1,0,0,-2.399939764,0.799993575,1,0,0,0,23,23,152,1,,response3disk_3,TRUE,5,5,"[10,291,303,177,197,24,321,70,226,233,182,7,126,314,21,71,239,98,33,313]",1.1173,rectangle
,,,,,,,,,,,,,FF,,,,,,,,0.9972,,,,,,,,,,,,,,,,,,,,,,60fcd70d608b9cd2da4651f7,61036dff1cbe328e09cf2616,2021-07-29_21h12.37.668,Simcolourproject_2stim_asymm_v5,2020.2.10,Win32,60,61025ae37ef11b136ea224fe,,,,,,,,,934,101.600013,32.79999405,1,0,0,response1disk,,6,1.14441E-05,0.799993575,1,0,0,rectangle,1.14441E-05,0.799993575,1,0,0,1.14441E-05,0.799993575,1,0,0,0,24,24,37,1,,,,,,,,
,,,,,,,,,,,,,FF,,,,,,,,1.7322,,,,,,,,,,,,,,,,,,,,,,60fcd70d608b9cd2da4651f7,61036dff1cbe328e09cf2616,2021-07-29_21h12.37.668,Simcolourproject_2stim_asymm_v5,2020.2.10,Win32,60,61025ae37ef11b136ea224fe,,,,,,,,,1543,-100.7999901,-72.00000751,1,0,0,response5disk,,2,-3.199988604,-8.000006557,1,0,0,rectangle,-3.199988604,-8.000006557,1,0,0,-3.199988604,-8.000006557,1,0,0,0,25,25,133,1,,,,,,,,
,,,,,,,,,,,,,FF,,,,,,,,1.194,,,,,,,,,,,,,,,,,,,,,,60fcd70d608b9cd2da4651f7,61036dff1cbe328e09cf2616,2021-07-29_21h12.37.668,Simcolourproject_2stim_asymm_v5,2020.2.10,Win32,60,61025ae37ef11b136ea224fe,,,,,,,,,4261,95.20001286,-58.40000731,1,0,0,response3disk,,5,-4.799988627,1.599993587,1,0,0,rectangle,-4.799988627,1.599993587,1,0,0,-4.799988627,1.599993587,1,0,0,0,26,26,125,1,,,,,,,,
,,,,,,,,,,,,,FF,,,,,,,,2.264,,,,,,,,,,,,,,,,,,,,,,60fcd70d608b9cd2da4651f7,61036dff1cbe328e09cf2616,2021-07-29_21h12.37.668,Simcolourproject_2stim_asymm_v5,2020.2.10,Win32,60,61025ae37ef11b136ea224fe,,,,,,,,,2325,48.80001217,-95.20000786,1,0,0,response3disk,,4,-3.999988616,-6.4373E-06,1,0,0,rectangle,-3.999988616,-6.4373E-06,1,0,0,-3.999988616,-6.4373E-06,1,0,0,0,27,27,96,1,,,,,,,,
,,,,,,,,,,,,,FF,,,,,,,,3.6241,,,,,,,,,,,,,,,,,,,,,,60fcd70d608b9cd2da4651f7,61036dff1cbe328e09cf2616,2021-07-29_21h12.37.668,Simcolourproject_2stim_asymm_v5,2020.2.10,Win32,60,61025ae37ef11b136ea224fe,,,,,,,,,3980,-107.1999902,-53.60000724,1,0,0,response5disk,,2,-13.59998876,-9.60000658,1,0,0,rectangle,-13.59998876,-9.60000658,1,0,0,-13.59998876,-9.60000658,1,0,0,0,28,28,58,1,,,,,,,,
,,,,,,,,,,,,,FF,,,,,,,,1.4166,,,,,,,,,,,,,,,,,,,,,,60fcd70d608b9cd2da4651f7,61036dff1cbe328e09cf2616,2021-07-29_21h12.37.668,Simcolourproject_2stim_asymm_v5,2020.2.10,Win32,60,61025ae37ef11b136ea224fe,,,,,,,,,4253,-76.7999897,-37.600007,1,0,0,response5disk,,2,4.000011504,-8.000006557,1,0,0,rectangle,4.000011504,-8.000006557,1,0,0,4.000011504,-8.000006557,1,0,0,0,29,29,76,1,,,,,,,,
,,,,,,,,,,,,,FF,,,,,,,,1.8952,,,,,,,,,,,,,,,,,,,,,,60fcd70d608b9cd2da4651f7,61036dff1cbe328e09cf2616,2021-07-29_21h12.37.668,Simcolourproject_2stim_asymm_v5,2020.2.10,Win32,60,61025ae37ef11b136ea224fe,,,,,,,,,3521,-35.19998908,-112.0000081,1,0,0,response5disk,,3,-5.599988639,-4.000006497,1,0,0,rectangle,-5.599988639,-4.000006497,1,0,0,-5.599988639,-4.000006497,1,0,0,0,30,30,55,1,,,,,,,,
,,,,,,,,,,,,,FF,,,,,,,,1.151,,,,,,,,,,,,,,,,,,,,,,60fcd70d608b9cd2da4651f7,61036dff1cbe328e09cf2616,2021-07-29_21h12.37.668,Simcolourproject_2stim_asymm_v5,2020.2.10,Win32,60,61025ae37ef11b136ea224fe,,,,,,,,,2133,87.20001274,50.39999431,1,0,0,response1disk,,6,6.400011539,4.799993634,1,0,0,rectangle,6.400011539,4.799993634,1,0,0,6.400011539,4.799993634,1,0,0,0,31,31,22,1,,,,,,,,
,,,,,,,,,,,,,FF,,,,,,,,2.0609,,,,,,,,,,,,,,,,,,,,,,60fcd70d608b9cd2da4651f7,61036dff1cbe328e09cf2616,2021-07-29_21h12.37.668,Simcolourproject_2stim_asymm_v5,2020.2.10,Win32,60,61025ae37ef11b136ea224fe,,,,,,,,,2956,57.6000123,94.39999497,1,0,0,response1disk,,7,-15.19998878,15.19999379,1,0,0,rectangle,-51.19998932,108.7999952,1,0,0,8.800011575,-9.60000658,1,0,0,0,32,32,132,1,,response7disk_3,TRUE,0,0,"[10,291,303,177,197,24,321,70,226,233,182,7,126,314,21,71,239,98,33,313]",1.5759,rectangle
,,,,,,,,,,,,,FF,,,,,,,,1.3296,,,,,,,,,,,,,,,,,,,,,,60fcd70d608b9cd2da4651f7,61036dff1cbe328e09cf2616,2021-07-29_21h12.37.668,Simcolourproject_2stim_asymm_v5,2020.2.10,Win32,60,61025ae37ef11b136ea224fe,,,,,,,,,1059,-39.99998915,-81.60005648,1,0,0,response5disk,,3,-15.99998879,8.799993694,1,0,0,rectangle,-15.99998879,8.799993694,1,0,0,-15.99998879,8.799993694,1,0,0,0,33,33,115,1,,,,,,,,
,,,,,,,,,,,,,FF,,,,,,,,1.0769,,,,,,,,,,,,,,,,,,,,,,60fcd70d608b9cd2da4651f7,61036dff1cbe328e09cf2616,2021-07-29_21h12.37.668,Simcolourproject_2stim_asymm_v5,2020.2.10,Win32,60,61025ae37ef11b136ea224fe,,,,,,,,,319,76.80001259,-49.60000718,1,0,0,response3disk,,5,9.600060415,5.599993646,1,0,0,rectangle,9.600060415,5.599993646,1,0,0,9.600060415,5.599993646,1,0,0,0,34,34,131,1,,,,,,,,
,,,,,,,,,,,,,FF,,,,,,,,1.4658,,,,,,,,,,,,,,,,,,,,,,60fcd70d608b9cd2da4651f7,61036dff1cbe328e09cf2616,2021-07-29_21h12.37.668,Simcolourproject_2stim_asymm_v5,2020.2.10,Win32,60,61025ae37ef11b136ea224fe,,,,,,,,,1043,99.20001292,-43.20000708,1,0,0,response3disk,,5,12.80001163,-5.600006521,1,0,0,rectangle,12.80001163,-5.600006521,1,0,0,12.80001163,-5.600006521,1,0,0,0,35,35,84,1,,,,,,,,
,,,,,,,,,,,,,FF,,,,,,,,1.2598,,,,,,,,,,,,,,,,,,,,,,60fcd70d608b9cd2da4651f7,61036dff1cbe328e09cf2616,2021-07-29_21h12.37.668,Simcolourproject_2stim_asymm_v5,2020.2.10,Win32,60,61025ae37ef11b136ea224fe,,,,,,,,,2974,-64.79998952,-101.6000568,1,0,0,response5disk,,3,-9.599988699,-4.000006497,1,0,0,rectangle,-9.599988699,-4.000006497,1,0,0,-9.599988699,-4.000006497,1,0,0,0,36,36,139,1,,,,,,,,
,,,,,,,,,,,,,FF,,,,,,,,1.1305,,,,,,,,,,,,,,,,,,,,,,60fcd70d608b9cd2da4651f7,61036dff1cbe328e09cf2616,2021-07-29_21h12.37.668,Simcolourproject_2stim_asymm_v5,2020.2.10,Win32,60,61025ae37ef11b136ea224fe,,,,,,,,,497,-64.79998952,-87.20000774,1,0,0,response5disk,,3,-30.39994018,5.599993646,1,0,0,rectangle,-30.39994018,5.599993646,1,0,0,-30.39994018,5.599993646,1,0,0,0,37,37,124,1,,,,,,,,
,,,,,,,,,,,,,FF,,,,,,,,1.5261,,,,,,,,,,,,,,,,,,,,,,60fcd70d608b9cd2da4651f7,61036dff1cbe328e09cf2616,2021-07-29_21h12.37.668,Simcolourproject_2stim_asymm_v5,2020.2.10,Win32,60,61025ae37ef11b136ea224fe,,,,,,,,,219,-65.59998953,-74.40000755,1,0,0,response5disk,,3,-8.799988687,15.9999938,1,0,0,rectangle,-8.799988687,15.9999938,1,0,0,-8.799988687,15.9999938,1,0,0,0,38,38,155,1,,,,,,,,
,,,,,,,,,,,,,FF,,,,,,,,1.3599,,,,,,,,,,,,,,,,,,,,,,60fcd70d608b9cd2da4651f7,61036dff1cbe328e09cf2616,2021-07-29_21h12.37.668,Simcolourproject_2stim_asymm_v5,2020.2.10,Win32,60,61025ae37ef11b136ea224fe,,,,,,,,,939,52.80001223,-106.400008,1,0,0,response3disk,,4,-7.199988663,2.399993598,1,0,0,rectangle,-7.199988663,2.399993598,1,0,0,-7.199988663,2.399993598,1,0,0,0,39,39,36,1,,,,,,,,
,,,,,,,,,,,,,FF,,,,,,,,0.9678,,,,,,,,,,,,,,,,,,,,,,60fcd70d608b9cd2da4651f7,61036dff1cbe328e09cf2616,2021-07-29_21h12.37.668,Simcolourproject_2stim_asymm_v5,2020.2.10,Win32,60,61025ae37ef11b136ea224fe,,,,,,,,,2719,-79.99998975,27.19996955,1,0,0,response7disk,,1,-15.19998878,1.599993587,1,0,0,rectangle,-15.19998878,1.599993587,1,0,0,-15.19998878,1.599993587,1,0,0,0,40,40,46,1,,,,,,,,
,,,,,,,,,,,,,FF,,,,,,,,1.3666,,,,,,,,,,,,,,,,,,,,,,60fcd70d608b9cd2da4651f7,61036dff1cbe328e09cf2616,2021-07-29_21h12.37.668,Simcolourproject_2stim_asymm_v5,2020.2.10,Win32,60,61025ae37ef11b136ea224fe,,,,,,,,,436,-96.79999,-56.80000728,1,0,0,response5disk,,2,11.20001161,6.399993658,1,0,0,rectangle,11.20001161,6.399993658,1,0,0,11.20001161,6.399993658,1,0,0,0,41,41,81,1,,,,,,,,
,,,,,,,,,,,,,FF,,,,,,,,1.5427,,,,,,,,,,,,,,,,,,,,,,60fcd70d608b9cd2da4651f7,61036dff1cbe328e09cf2616,2021-07-29_21h12.37.668,Simcolourproject_2stim_asymm_v5,2020.2.10,Win32,60,61025ae37ef11b136ea224fe,,,,,,,,,3250,-102.3999413,68.79999459,1,0,0,response7disk,,1,10.4000116,11.19999373,1,0,0,rectangle,10.4000116,11.19999373,1,0,0,10.4000116,11.19999373,1,0,0,0,42,42,52,1,,,,,,,,
,,,,,,,,,,,,,FF,,,,,,,,1.1475,,,,,,,,,,,,,,,,,,,,,,60fcd70d608b9cd2da4651f7,61036dff1cbe328e09cf2616,2021-07-29_21h12.37.668,Simcolourproject_2stim_asymm_v5,2020.2.10,Win32,60,61025ae37ef11b136ea224fe,,,,,,,,,2092,22.40001178,85.59999484,1,0,0,response1disk,,7,-7.199988663,10.39999372,1,0,0,rectangle,-7.199988663,10.39999372,1,0,0,-7.199988663,10.39999372,1,0,0,0,43,43,38,1,,,,,,,,
,,,,,,,,,,,,,FF,,,,,,,,1.1971,,,,,,,,,,,,,,,,,,,,,,60fcd70d608b9cd2da4651f7,61036dff1cbe328e09cf2616,2021-07-29_21h12.37.668,Simcolourproject_2stim_asymm_v5,2020.2.10,Win32,60,61025ae37ef11b136ea224fe,,,,,,,,,3003,-84.79998982,-60.80000734,1,0,0,response5disk,,2,-6.399939823,-9.60000658,1,0,0,rectangle,-6.399939823,-9.60000658,1,0,0,-6.399939823,-9.60000658,1,0,0,0,44,44,108,1,,,,,,,,
,,,,,,,,,,,,,FF,,,,,,,,0.9806,,,,,,,,,,,,,,,,,,,,,,60fcd70d608b9cd2da4651f7,61036dff1cbe328e09cf2616,2021-07-29_21h12.37.668,Simcolourproject_2stim_asymm_v5,2020.2.10,Win32,60,61025ae37ef11b136ea224fe,,,,,,,,,2979,45.60006095,-84.00000769,1,0,0,response3disk,,4,-7.999988675,1.599993587,1,0,0,rectangle,-7.999988675,1.599993587,1,0,0,-7.999988675,1.599993587,1,0,0,0,45,45,105,1,,,,,,,,
,,,,,,,,,,,,,FF,,,,,,,,1.1306,,,,,,,,,,,,,,,,,,,,,,60fcd70d608b9cd2da4651f7,61036dff1cbe328e09cf2616,2021-07-29_21h12.37.668,Simcolourproject_2stim_asymm_v5,2020.2.10,Win32,60,61025ae37ef11b136ea224fe,,,,,,,,,2915,-91.99998993,-68.80000746,1,0,0,response5disk,,2,-10.39993988,2.399993598,1,0,0,rectangle,-10.39993988,2.399993598,1,0,0,-10.39993988,2.399993598,1,0,0,0,46,46,111,1,,,,,,,,
,,,,,,,,,,,,,FF,,,,,,,,0.951,,,,,,,,,,,,,,,,,,,,,,60fcd70d608b9cd2da4651f7,61036dff1cbe328e09cf2616,2021-07-29_21h12.37.668,Simcolourproject_2stim_asymm_v5,2020.2.10,Win32,60,61025ae37ef11b136ea224fe,,,,,,,,,46,52.80001223,-92.80000782,1,0,0,response3disk,,4,-13.59998876,10.39999372,1,0,0,rectangle,-13.59998876,10.39999372,1,0,0,-13.59998876,10.39999372,1,0,0,0,47,47,6,1,,,,,,,,
,,,,,,,,,,,,,FF,,,,,,,,1.4464,,,,,,,,,,,,,,,,,,,,,,60fcd70d608b9cd2da4651f7,61036dff1cbe328e09cf2616,2021-07-29_21h12.37.668,Simcolourproject_2stim_asymm_v5,2020.2.10,Win32,60,61025ae37ef11b136ea224fe,,,,,,,,,3835,-46.39994042,-62.40000737,1,0,0,response5disk,,3,-16.79998881,-4.800006509,1,0,0,rectangle,-16.79998881,-4.800006509,1,0,0,-16.79998881,-4.800006509,1,0,0,0,48,48,126,1,,,,,,,,
,,,,,,,,,,,,,FF,,,,,,,,1.1477,,,,,,,,,,,,,,,,,,,,,,60fcd70d608b9cd2da4651f7,61036dff1cbe328e09cf2616,2021-07-29_21h12.37.668,Simcolourproject_2stim_asymm_v5,2020.2.10,Win32,60,61025ae37ef11b136ea224fe,,,,,,,,,1476,40.80001205,-88.00000775,1,0,0,response3disk,,4,-11.99998873,1.599993587,1,0,0,rectangle,-11.99998873,1.599993587,1,0,0,-11.99998873,1.599993587,1,0,0,0,49,49,7,1,,,,,,,,
,,,,,,,,,,,,,FF,,,,,,,,1.0312,,,,,,,,,,,,,,,,,,,,,,60fcd70d608b9cd2da4651f7,61036dff1cbe328e09cf2616,2021-07-29_21h12.37.668,Simcolourproject_2stim_asymm_v5,2020.2.10,Win32,60,61025ae37ef11b136ea224fe,,,,,,,,,2310,106.400013,-44.00000709,1,0,0,response3disk,,5,-4.799988627,11.99999374,1,0,0,rectangle,-4.799988627,11.99999374,1,0,0,-4.799988627,11.99999374,1,0,0,0,50,50,94,1,,,,,,,,
,,,,,,,,,,,,,FF,,,,,,,,1.0637,,,,,,,,,,,,,,,,,,,,,,60fcd70d608b9cd2da4651f7,61036dff1cbe328e09cf2616,2021-07-29_21h12.37.668,Simcolourproject_2stim_asymm_v5,2020.2.10,Win32,60,61025ae37ef11b136ea224fe,,,,,,,,,2366,-35.99998909,-96.80000788,1,0,0,response5disk,,3,-8.799988687,-0.800006449,1,0,0,rectangle,-8.799988687,-0.800006449,1,0,0,-8.799988687,-0.800006449,1,0,0,0,51,51,1,1,,,,,,,,
,,,,,,,,,,,,,FF,,,,,,,,1.3328,,,,,,,,,,,,,,,,,,,,,,60fcd70d608b9cd2da4651f7,61036dff1cbe328e09cf2616,2021-07-29_21h12.37.668,Simcolourproject_2stim_asymm_v5,2020.2.10,Win32,60,61025ae37ef11b136ea224fe,,,,,,,,,3317,-64.79998952,-101.6000568,1,0,0,response5disk,,3,-8.799988687,7.999993682,1,0,0,rectangle,-8.799988687,7.999993682,1,0,0,-8.799988687,7.999993682,1,0,0,0,52,52,148,1,,,,,,,,
,,,,,,,,,,,,,FF,,,,,,,,1.1431,,,,,,,,,,,,,,,,,,,,,,60fcd70d608b9cd2da4651f7,61036dff1cbe328e09cf2616,2021-07-29_21h12.37.668,Simcolourproject_2stim_asymm_v5,2020.2.10,Win32,60,61025ae37ef11b136ea224fe,,,,,,,,,2905,-99.99999005,-68.80000746,1,0,0,response5disk,,2,-3.999988616,1.599993587,1,0,0,rectangle,-3.999988616,1.599993587,1,0,0,-3.999988616,1.599993587,1,0,0,0,53,53,24,1,,,,,,,,
,,,,,,,,,,,,,FF,,,,,,,,0.9772,,,,,,,,,,,,,,,,,,,,,,60fcd70d608b9cd2da4651f7,61036dff1cbe328e09cf2616,2021-07-29_21h12.37.668,Simcolourproject_2stim_asymm_v5,2020.2.10,Win32,60,61025ae37ef11b136ea224fe,,,,,,,,,646,-91.99998993,-39.20000702,1,0,0,response5disk,,2,-5.599988639,3.19999361,1,0,0,rectangle,-5.599988639,3.19999361,1,0,0,-5.599988639,3.19999361,1,0,0,0,54,54,103,1,,,,,,,,
,,,,,,,,,,,,,FF,,,,,,,,0.9606,,,,,,,,,,,,,,,,,,,,,,60fcd70d608b9cd2da4651f7,61036dff1cbe328e09cf2616,2021-07-29_21h12.37.668,Simcolourproject_2stim_asymm_v5,2020.2.10,Win32,60,61025ae37ef11b136ea224fe,,,,,,,,,1589,-93.59998995,-53.60000724,1,0,0,response5disk,,2,9.600060415,3.999993622,1,0,0,rectangle,9.600060415,3.999993622,1,0,0,9.600060415,3.999993622,1,0,0,0,55,55,73,1,,,,,,,,
,,,,,,,,,,,,,FF,,,,,,,,1.0435,,,,,,,,,,,,,,,,,,,,,,60fcd70d608b9cd2da4651f7,61036dff1cbe328e09cf2616,2021-07-29_21h12.37.668,Simcolourproject_2stim_asymm_v5,2020.2.10,Win32,60,61025ae37ef11b136ea224fe,,,,,,,,,1257,-55.19998938,-92.00000781,1,0,0,response5disk,,3,-6.399939823,-1.600006461,1,0,0,rectangle,-6.399939823,-1.600006461,1,0,0,-6.399939823,-1.600006461,1,0,0,0,56,56,83,1,,,,,,,,
,,,,,,,,,,,,,FF,,,,,,,,2.4938,,,,,,,,,,,,,,,,,,,,,,60fcd70d608b9cd2da4651f7,61036dff1cbe328e09cf2616,2021-07-29_21h12.37.668,Simcolourproject_2stim_asymm_v5,2020.2.10,Win32,60,61025ae37ef11b136ea224fe,,,,,,,,,2408,61.60001236,-94.40000784,1,0,0,response3disk,,4,-7.999988675,4.799993634,1,0,0,rectangle,-7.999988675,4.799993634,1,0,0,-7.999988675,4.799993634,1,0,0,0,57,57,14,1,,,,,,,,
,,,,,,,,,,,,,FF,,,,,,,,1.1437,,,,,,,,,,,,,,,,,,,,,,60fcd70d608b9cd2da4651f7,61036dff1cbe328e09cf2616,2021-07-29_21h12.37.668,Simcolourproject_2stim_asymm_v5,2020.2.10,Win32,60,61025ae37ef11b136ea224fe,,,,,,,,,2250,28.80001187,-104.000008,1,0,0,response3disk,,4,-5.599988639,7.999993682,1,0,0,rectangle,-5.599988639,7.999993682,1,0,0,-5.599988639,7.999993682,1,0,0,0,58,58,86,1,,,,,,,,
,,,,,,,,,,,,,FF,,,,,,,,1.3963,,,,,,,,,,,,,,,,,,,,,,60fcd70d608b9cd2da4651f7,61036dff1cbe328e09cf2616,2021-07-29_21h12.37.668,Simcolourproject_2stim_asymm_v5,2020.2.10,Win32,60,61025ae37ef11b136ea224fe,,,,,,,,,1260,-55.19998938,-112.0000081,1,0,0,response5disk,,3,-18.39994,0.799993575,1,0,0,rectangle,-18.39994,0.799993575,1,0,0,-18.39994,0.799993575,1,0,0,0,59,59,16,1,,,,,,,,
,,,,,,,,,,,,,FF,,,,,,,,1.3292,,,,,,,,,,,,,,,,,,,,,,60fcd70d608b9cd2da4651f7,61036dff1cbe328e09cf2616,2021-07-29_21h12.37.668,Simcolourproject_2stim_asymm_v5,2020.2.10,Win32,60,61025ae37ef11b136ea224fe,,,,,,,,,2380,64.0000124,-88.00000775,1,0,0,response3disk,,4,5.600060356,11.19999373,1,0,0,rectangle,5.600060356,11.19999373,1,0,0,5.600060356,11.19999373,1,0,0,0,60,60,45,1,,,,,,,,
,,,,,,,,,,,,,FF,,,,,,,,1.9277,,,,,,,,,,,,,,,,,,,,,,60fcd70d608b9cd2da4651f7,61036dff1cbe328e09cf2616,2021-07-29_21h12.37.668,Simcolourproject_2stim_asymm_v5,2020.2.10,Win32,60,61025ae37ef11b136ea224fe,,,,,,,,,695,-95.19998997,-55.20000726,1,0,0,response5disk,,2,19.20001173,0.799993575,1,0,0,rectangle,19.20001173,0.799993575,1,0,0,19.20001173,0.799993575,1,0,0,0,61,61,75,1,,,,,,,,
,,,,,,,,,,,,,FF,,,,,,,,0.9137,,,,,,,,,,,,,,,,,,,,,,60fcd70d608b9cd2da4651f7,61036dff1cbe328e09cf2616,2021-07-29_21h12.37.668,Simcolourproject_2stim_asymm_v5,2020.2.10,Win32,60,61025ae37ef11b136ea224fe,,,,,,,,,1015,-41.59998918,-93.60005666,1,0,0,response5disk,,3,-5.599988639,-8.800006568,1,0,0,rectangle,-5.599988639,-8.800006568,1,0,0,-5.599988639,-8.800006568,1,0,0,0,62,62,129,1,,,,,,,,
,,,,,,,,,,,,,FF,,,,,,,,0.931,,,,,,,,,,,,,,,,,,,,,,60fcd70d608b9cd2da4651f7,61036dff1cbe328e09cf2616,2021-07-29_21h12.37.668,Simcolourproject_2stim_asymm_v5,2020.2.10,Win32,60,61025ae37ef11b136ea224fe,,,,,,,,,195,-49.5999893,-80.00000763,1,0,0,response5disk,,3,-7.199988663,-3.200006485,1,0,0,rectangle,-7.199988663,-3.200006485,1,0,0,-7.199988663,-3.200006485,1,0,0,0,63,63,29,1,,,,,,,,
,,,,,,,,,,,,,FF,,,,,,,,0.9512,,,,,,,,,,,,,,,,,,,,,,60fcd70d608b9cd2da4651f7,61036dff1cbe328e09cf2616,2021-07-29_21h12.37.668,Simcolourproject_2stim_asymm_v5,2020.2.10,Win32,60,61025ae37ef11b136ea224fe,,,,,,,,,1012,54.40001225,-84.00000769,1,0,0,response3disk,,4,10.4000116,-7.200006545,1,0,0,rectangle,10.4000116,-7.200006545,1,0,0,10.4000116,-7.200006545,1,0,0,0,64,64,127,1,,,,,,,,
,,,,,,,,,,,,,FF,,,,,,,,1.0772,,,,,,,,,,,,,,,,,,,,,,60fcd70d608b9cd2da4651f7,61036dff1cbe328e09cf2616,2021-07-29_21h12.37.668,Simcolourproject_2stim_asymm_v5,2020.2.10,Win32,60,61025ae37ef11b136ea224fe,,,,,,,,,2394,45.60006095,-84.00000769,1,0,0,response3disk,,4,-12.79998875,-1.600006461,1,0,0,rectangle,-12.79998875,-1.600006461,1,0,0,-12.79998875,-1.600006461,1,0,0,0,65,65,109,1,,,,,,,,
,,,,,,,,,,,,,FF,,,,,,,,0.9614,,,,,,,,,,,,,,,,,,,,,,60fcd70d608b9cd2da4651f7,61036dff1cbe328e09cf2616,2021-07-29_21h12.37.668,Simcolourproject_2stim_asymm_v5,2020.2.10,Win32,60,61025ae37ef11b136ea224fe,,,,,,,,,418,88.80001277,23.19996949,1,0,0,response1disk,,6,12.00001162,-14.40000665,1,0,0,rectangle,12.00001162,-14.40000665,1,0,0,12.00001162,-14.40000665,1,0,0,0,66,66,39,1,,,,,,,,
,,,,,,,,,,,,,FF,,,,,,,,0.9807,,,,,,,,,,,,,,,,,,,,,,60fcd70d608b9cd2da4651f7,61036dff1cbe328e09cf2616,2021-07-29_21h12.37.668,Simcolourproject_2stim_asymm_v5,2020.2.10,Win32,60,61025ae37ef11b136ea224fe,,,,,,,,,4350,-107.9999902,35.9999941,1,0,0,response7disk,,1,-3.199988604,-1.600006461,1,0,0,rectangle,-3.199988604,-1.600006461,1,0,0,-3.199988604,-1.600006461,1,0,0,0,67,67,89,1,,,,,,,,
,,,,,,,,,,,,,FF,,,,,,,,1.7325,,,,,,,,,,,,,,,,,,,,,,60fcd70d608b9cd2da4651f7,61036dff1cbe328e09cf2616,2021-07-29_21h12.37.668,Simcolourproject_2stim_asymm_v5,2020.2.10,Win32,60,61025ae37ef11b136ea224fe,,,,,,,,,1330,75.20001256,-48.00000715,1,0,0,response3disk,,5,-4.799988627,11.99999374,1,0,0,rectangle,-4.799988627,11.99999374,1,0,0,-4.799988627,11.99999374,1,0,0,0,68,68,9,1,,,,,,,,
,,,,,,,,,,,,,FF,,,,,,,,1.197,,,,,,,,,,,,,,,,,,,,,,60fcd70d608b9cd2da4651f7,61036dff1cbe328e09cf2616,2021-07-29_21h12.37.668,Simcolourproject_2stim_asymm_v5,2020.2.10,Win32,60,61025ae37ef11b136ea224fe,,,,,,,,,3659,73.60001254,55.19996997,1,0,0,response1disk,,6,-9.599988699,-7.200006545,1,0,0,rectangle,96.00001287,-24.80000681,1,0,0,9.600060415,1.599993587,1,0,0,0,69,69,28,1,,response3disk_3,TRUE,5,5,"[10,291,303,177,197,24,321,70,226,233,182,7,126,314,21,71,239,98,33,313]",1.3301,rectangle
,,,,,,,,,,,,,FF,,,,,,,,1.2149,,,,,,,,,,,,,,,,,,,,,,60fcd70d608b9cd2da4651f7,61036dff1cbe328e09cf2616,2021-07-29_21h12.37.668,Simcolourproject_2stim_asymm_v5,2020.2.10,Win32,60,61025ae37ef11b136ea224fe,,,,,,,,,1075,-37.59998912,-82.40000767,1,0,0,response5disk,,3,-10.39993988,-0.800006449,1,0,0,rectangle,43.20001209,-94.40000784,1,0,0,-16.79998881,6.399993658,1,0,0,0,70,70,119,1,,response3disk_3,TRUE,4,4,"[10,291,303,177,197,24,321,70,226,233,182,7,126,314,21,71,239,98,33,313]",1.2801,rectangle
,,,,,,,,,,,,,FF,,,,,,,,1.7825,,,,,,,,,,,,,,,,,,,,,,60fcd70d608b9cd2da4651f7,61036dff1cbe328e09cf2616,2021-07-29_21h12.37.668,Simcolourproject_2stim_asymm_v5,2020.2.10,Win32,60,61025ae37ef11b136ea224fe,,,,,,,,,3594,-62.39994066,-92.80000782,1,0,0,response5disk,,3,2.40001148,-6.400006533,1,0,0,rectangle,2.40001148,-6.400006533,1,0,0,2.40001148,-6.400006533,1,0,0,0,71,71,59,1,,,,,,,,
,,,,,,,,,,,,,FF,,,,,,,,0.9142,,,,,,,,,,,,,,,,,,,,,,60fcd70d608b9cd2da4651f7,61036dff1cbe328e09cf2616,2021-07-29_21h12.37.668,Simcolourproject_2stim_asymm_v5,2020.2.10,Win32,60,61025ae37ef11b136ea224fe,,,,,,,,,3342,-98.39994119,-38.40000701,1,0,0,response5disk,,2,-7.999988675,-6.400006533,1,0,0,rectangle,-7.999988675,-6.400006533,1,0,0,-7.999988675,-6.400006533,1,0,0,0,72,72,4,1,,,,,,,,
,,,,,,,,,,,,,FF,,,,,,,,1.4496,,,,,,,,,,,,,,,,,,,,,,60fcd70d608b9cd2da4651f7,61036dff1cbe328e09cf2616,2021-07-29_21h12.37.668,Simcolourproject_2stim_asymm_v5,2020.2.10,Win32,60,61025ae37ef11b136ea224fe,,,,,,,,,3195,-41.59998918,106.3999951,1,0,0,response7disk,,0,0.800011456,1.599993587,1,0,0,rectangle,0.800011456,1.599993587,1,0,0,0.800011456,1.599993587,1,0,0,0,73,73,32,1,,,,,,,,
,,,,,,,,,,,,,FF,,,,,,,,1.6966,,,,,,,,,,,,,,,,,,,,,,60fcd70d608b9cd2da4651f7,61036dff1cbe328e09cf2616,2021-07-29_21h12.37.668,Simcolourproject_2stim_asymm_v5,2020.2.10,Win32,60,61025ae37ef11b136ea224fe,,,,,,,,,4122,-87.19998986,-51.2000072,1,0,0,response5disk,,2,24.80001181,15.9999938,1,0,0,rectangle,24.80001181,15.9999938,1,0,0,24.80001181,15.9999938,1,0,0,0,74,74,54,1,,,,,,,,
,,,,,,,,,,,,,FF,,,,,,,,1.3457,,,,,,,,,,,,,,,,,,,,,,60fcd70d608b9cd2da4651f7,61036dff1cbe328e09cf2616,2021-07-29_21h12.37.668,Simcolourproject_2stim_asymm_v5,2020.2.10,Win32,60,61025ae37ef11b136ea224fe,,,,,,,,,1409,48.00001216,92.79999495,1,0,0,response1disk,,7,-9.599988699,2.399993598,1,0,0,rectangle,-9.599988699,2.399993598,1,0,0,-9.599988699,2.399993598,1,0,0,0,75,75,21,1,,,,,,,,
,,,,,,,,,,,,,FF,,,,,,,,2.1092,,,,,,,,,,,,,,,,,,,,,,60fcd70d608b9cd2da4651f7,61036dff1cbe328e09cf2616,2021-07-29_21h12.37.668,Simcolourproject_2stim_asymm_v5,2020.2.10,Win32,60,61025ae37ef11b136ea224fe,,,,,,,,,1722,58.40001231,96.79999501,1,0,0,response1disk,,7,13.60006047,7.999993682,1,0,0,rectangle,13.60006047,7.999993682,1,0,0,13.60006047,7.999993682,1,0,0,0,76,76,159,1,,,,,,,,
,,,,,,,,,,,,,FF,,,,,,,,1.3801,,,,,,,,,,,,,,,,,,,,,,60fcd70d608b9cd2da4651f7,61036dff1cbe328e09cf2616,2021-07-29_21h12.37.668,Simcolourproject_2stim_asymm_v5,2020.2.10,Win32,60,61025ae37ef11b136ea224fe,,,,,,,,,2715,-95.19998997,-56.00000727,1,0,0,response5disk,,2,-18.39994,7.999993682,1,0,0,rectangle,-18.39994,7.999993682,1,0,0,-18.39994,7.999993682,1,0,0,0,77,77,19,1,,,,,,,,
,,,,,,,,,,,,,FF,,,,,,,,0.8814,,,,,,,,,,,,,,,,,,,,,,60fcd70d608b9cd2da4651f7,61036dff1cbe328e09cf2616,2021-07-29_21h12.37.668,Simcolourproject_2stim_asymm_v5,2020.2.10,Win32,60,61025ae37ef11b136ea224fe,,,,,,,,,641,-98.39994119,-33.60000694,1,0,0,response5disk,,2,-0.799988568,4.799993634,1,0,0,rectangle,-0.799988568,4.799993634,1,0,0,-0.799988568,4.799993634,1,0,0,0,78,78,135,1,,,,,,,,
,,,,,,,,,,,,,FF,,,,,,,,0.9607,,,,,,,,,,,,,,,,,,,,,,60fcd70d608b9cd2da4651f7,61036dff1cbe328e09cf2616,2021-07-29_21h12.37.668,Simcolourproject_2stim_asymm_v5,2020.2.10,Win32,60,61025ae37ef11b136ea224fe,,,,,,,,,2215,44.0000121,-82.40000767,1,0,0,response3disk,,4,-4.799988627,-4.800006509,1,0,0,rectangle,-4.799988627,-4.800006509,1,0,0,-4.799988627,-4.800006509,1,0,0,0,79,79,154,1,,,,,,,,
,,,,,,,,,,,,,FF,,,,,,,,1.3504,,,,,,,,,,,,,,,,,,,,,,60fcd70d608b9cd2da4651f7,61036dff1cbe328e09cf2616,2021-07-29_21h12.37.668,Simcolourproject_2stim_asymm_v5,2020.2.10,Win32,60,61025ae37ef11b136ea224fe,,,,,,,,,2759,104.800013,-44.00000709,1,0,0,response3disk,,5,7.200011551,12.79999375,1,0,0,rectangle,7.200011551,12.79999375,1,0,0,7.200011551,12.79999375,1,0,0,0,80,80,72,1,,,,,,,,
,,,,,,,,,,,,,FF,,,,,,,,1.0471,,,,,,,,,,,,,,,,,,,,,,60fcd70d608b9cd2da4651f7,61036dff1cbe328e09cf2616,2021-07-29_21h12.37.668,Simcolourproject_2stim_asymm_v5,2020.2.10,Win32,60,61025ae37ef11b136ea224fe,,,,,,,,,4136,40.80001205,92.79999495,1,0,0,response1disk,,7,2.40001148,4.799993634,1,0,0,rectangle,2.40001148,4.799993634,1,0,0,2.40001148,4.799993634,1,0,0,0,81,81,5,1,,,,,,,,
,,,,,,,,,,,,,FF,,,,,,,,1.001,,,,,,,,,,,,,,,,,,,,,,60fcd70d608b9cd2da4651f7,61036dff1cbe328e09cf2616,2021-07-29_21h12.37.668,Simcolourproject_2stim_asymm_v5,2020.2.10,Win32,60,61025ae37ef11b136ea224fe,,,,,,,,,3045,-32.79998904,64.79999453,1,0,0,response7disk,,0,7.200011551,11.19999373,1,0,0,rectangle,7.200011551,11.19999373,1,0,0,7.200011551,11.19999373,1,0,0,0,82,82,134,1,,,,,,,,
,,,,,,,,,,,,,FF,,,,,,,,2.4135,,,,,,,,,,,,,,,,,,,,,,60fcd70d608b9cd2da4651f7,61036dff1cbe328e09cf2616,2021-07-29_21h12.37.668,Simcolourproject_2stim_asymm_v5,2020.2.10,Win32,60,61025ae37ef11b136ea224fe,,,,,,,,,2140,46.40001214,87.99999487,1,0,0,response1disk,,7,-2.399939764,-3.200006485,1,0,0,rectangle,-2.399939764,-3.200006485,1,0,0,-2.399939764,-3.200006485,1,0,0,0,83,83,35,1,,,,,,,,
,,,,,,,,,,,,,FF,,,,,,,,1.8452,,,,,,,,,,,,,,,,,,,,,,60fcd70d608b9cd2da4651f7,61036dff1cbe328e09cf2616,2021-07-29_21h12.37.668,Simcolourproject_2stim_asymm_v5,2020.2.10,Win32,60,61025ae37ef11b136ea224fe,,,,,,,,,1066,-47.19998926,-94.40000784,1,0,0,response5disk,,3,3.200011492,-7.200006545,1,0,0,rectangle,3.200011492,-7.200006545,1,0,0,3.200011492,-7.200006545,1,0,0,0,84,84,128,1,,,,,,,,
,,,,,,,,,,,,,FF,,,,,,,,1.4935,,,,,,,,,,,,,,,,,,,,,,60fcd70d608b9cd2da4651f7,61036dff1cbe328e09cf2616,2021-07-29_21h12.37.668,Simcolourproject_2stim_asymm_v5,2020.2.10,Win32,60,61025ae37ef11b136ea224fe,,,,,,,,,1796,105.600013,-37.600007,1,0,0,response3disk,,5,1.600060296,-3.200006485,1,0,0,rectangle,1.600060296,-3.200006485,1,0,0,1.600060296,-3.200006485,1,0,0,0,85,85,100,1,,,,,,,,
,,,,,,,,,,,,,FF,,,,,,,,2.7231,,,,,,,,,,,,,,,,,,,,,,60fcd70d608b9cd2da4651f7,61036dff1cbe328e09cf2616,2021-07-29_21h12.37.668,Simcolourproject_2stim_asymm_v5,2020.2.10,Win32,60,61025ae37ef11b136ea224fe,,,,,,,,,3708,-30.39994018,-77.60000759,1,0,0,response5disk,,3,-8.799988687,-2.400006473,1,0,0,rectangle,-8.799988687,-2.400006473,1,0,0,-8.799988687,-2.400006473,1,0,0,0,86,86,42,1,,,,,,,,
,,,,,,,,,,,,,FF,,,,,,,,1.1103,,,,,,,,,,,,,,,,,,,,,,60fcd70d608b9cd2da4651f7,61036dff1cbe328e09cf2616,2021-07-29_21h12.37.668,Simcolourproject_2stim_asymm_v5,2020.2.10,Win32,60,61025ae37ef11b136ea224fe,,,,,,,,,704,-53.59998935,-68.00000745,1,0,0,response5disk,,3,-10.39993988,3.19999361,1,0,0,rectangle,-10.39993988,3.19999361,1,0,0,-10.39993988,3.19999361,1,0,0,0,87,87,153,1,,,,,,,,
,,,,,,,,,,,,,FF,,,,,,,,1.0475,,,,,,,,,,,,,,,,,,,,,,60fcd70d608b9cd2da4651f7,61036dff1cbe328e09cf2616,2021-07-29_21h12.37.668,Simcolourproject_2stim_asymm_v5,2020.2.10,Win32,60,61025ae37ef11b136ea224fe,,,,,,,,,828,-45.59998924,-77.60000759,1,0,0,response5disk,,3,-10.39993988,3.19999361,1,0,0,rectangle,-10.39993988,3.19999361,1,0,0,-10.39993988,3.19999361,1,0,0,0,88,88,69,1,,,,,,,,
,,,,,,,,,,,,,FF,,,,,,,,1.0809,,,,,,,,,,,,,,,,,,,,,,60fcd70d608b9cd2da4651f7,61036dff1cbe328e09cf2616,2021-07-29_21h12.37.668,Simcolourproject_2stim_asymm_v5,2020.2.10,Win32,60,61025ae37ef11b136ea224fe,,,,,,,,,116,67.20001245,-104.800008,1,0,0,response3disk,,4,-6.399939823,0.799993575,1,0,0,rectangle,-6.399939823,0.799993575,1,0,0,-6.399939823,0.799993575,1,0,0,0,89,89,113,1,,,,,,,,
,,,,,,,,,,,,,FF,,,,,,,,1.5454,,,,,,,,,,,,,,,,,,,,,,60fcd70d608b9cd2da4651f7,61036dff1cbe328e09cf2616,2021-07-29_21h12.37.668,Simcolourproject_2stim_asymm_v5,2020.2.10,Win32,60,61025ae37ef11b136ea224fe,,,,,,,,,3179,90.40001279,-33.60000694,1,0,0,response3disk,,5,-1.59998858,11.99999374,1,0,0,rectangle,-1.59998858,11.99999374,1,0,0,-1.59998858,11.99999374,1,0,0,0,90,90,33,1,,,,,,,,
,,,,,,,,,,,,,FF,,,,,,,,1.0438,,,,,,,,,,,,,,,,,,,,,,60fcd70d608b9cd2da4651f7,61036dff1cbe328e09cf2616,2021-07-29_21h12.37.668,Simcolourproject_2stim_asymm_v5,2020.2.10,Win32,60,61025ae37ef11b136ea224fe,,,,,,,,,852,104.000013,36.79999411,1,0,0,response1disk,,6,-9.599988699,-11.2000066,1,0,0,rectangle,-9.599988699,-11.2000066,1,0,0,-9.599988699,-11.2000066,1,0,0,0,91,91,156,1,,,,,,,,
,,,,,,,,,,,,,FF,,,,,,,,0.9846,,,,,,,,,,,,,,,,,,,,,,60fcd70d608b9cd2da4651f7,61036dff1cbe328e09cf2616,2021-07-29_21h12.37.668,Simcolourproject_2stim_asymm_v5,2020.2.10,Win32,60,61025ae37ef11b136ea224fe,,,,,,,,,1701,87.20001274,41.59999418,1,0,0,response1disk,,6,-0.799988568,3.19999361,1,0,0,rectangle,-0.799988568,3.19999361,1,0,0,-0.799988568,3.19999361,1,0,0,0,92,92,0,1,,,,,,,,
,,,,,,,,,,,,,FF,,,,,,,,0.9147,,,,,,,,,,,,,,,,,,,,,,60fcd70d608b9cd2da4651f7,61036dff1cbe328e09cf2616,2021-07-29_21h12.37.668,Simcolourproject_2stim_asymm_v5,2020.2.10,Win32,60,61025ae37ef11b136ea224fe,,,,,,,,,78,-67.19998956,-34.40000695,1,0,0,response5disk,,2,-0.799988568,7.19999367,1,0,0,rectangle,-0.799988568,7.19999367,1,0,0,-0.799988568,7.19999367,1,0,0,0,93,93,144,1,,,,,,,,
,,,,,,,,,,,,,FF,,,,,,,,1.1647,,,,,,,,,,,,,,,,,,,,,,60fcd70d608b9cd2da4651f7,61036dff1cbe328e09cf2616,2021-07-29_21h12.37.668,Simcolourproject_2stim_asymm_v5,2020.2.10,Win32,60,61025ae37ef11b136ea224fe,,,,,,,,,2699,56.00001228,-100.8000079,1,0,0,response3disk,,4,-8.799988687,-8.800006568,1,0,0,rectangle,-8.799988687,-8.800006568,1,0,0,-8.799988687,-8.800006568,1,0,0,0,94,94,95,1,,,,,,,,
,,,,,,,,,,,,,FF,,,,,,,,0.9438,,,,,,,,,,,,,,,,,,,,,,60fcd70d608b9cd2da4651f7,61036dff1cbe328e09cf2616,2021-07-29_21h12.37.668,Simcolourproject_2stim_asymm_v5,2020.2.10,Win32,60,61025ae37ef11b136ea224fe,,,,,,,,,16,76.00001258,-49.60000718,1,0,0,response3disk,,5,-8.799988687,-0.800006449,1,0,0,rectangle,-8.799988687,-0.800006449,1,0,0,-8.799988687,-0.800006449,1,0,0,0,95,95,15,1,,,,,,,,
,,,,,,,,,,,,,FF,,,,,,,,1.1839,,,,,,,,,,,,,,,,,,,,,,60fcd70d608b9cd2da4651f7,61036dff1cbe328e09cf2616,2021-07-29_21h12.37.668,Simcolourproject_2stim_asymm_v5,2020.2.10,Win32,60,61025ae37ef11b136ea224fe,,,,,,,,,2679,17.60006053,-72.80000752,1,0,0,response3disk,,4,-4.799988627,-15.20000666,1,0,0,rectangle,-4.799988627,-15.20000666,1,0,0,-4.799988627,-15.20000666,1,0,0,0,96,96,77,1,,,,,,,,
,,,,,,,,,,,,,FF,,,,,,,,1.1171,,,,,,,,,,,,,,,,,,,,,,60fcd70d608b9cd2da4651f7,61036dff1cbe328e09cf2616,2021-07-29_21h12.37.668,Simcolourproject_2stim_asymm_v5,2020.2.10,Win32,60,61025ae37ef11b136ea224fe,,,,,,,,,260,-115.9999903,52.79999435,1,0,0,response7disk,,1,1.600060296,-4.000006497,1,0,0,rectangle,123.2000133,43.19996979,1,0,0,-8.799988687,1.599993587,1,0,0,0,97,97,114,1,,response1disk_3,TRUE,6,6,"[10,291,303,177,197,24,321,70,226,233,182,7,126,314,21,71,239,98,33,313]",1.8116,rectangle
,,,,,,,,,,,,,FF,,,,,,,,1.3463,,,,,,,,,,,,,,,,,,,,,,60fcd70d608b9cd2da4651f7,61036dff1cbe328e09cf2616,2021-07-29_21h12.37.668,Simcolourproject_2stim_asymm_v5,2020.2.10,Win32,60,61025ae37ef11b136ea224fe,,,,,,,,,3448,39.20001203,108.7999952,1,0,0,response1disk,,7,5.600060356,-3.200006485,1,0,0,rectangle,5.600060356,-3.200006485,1,0,0,5.600060356,-3.200006485,1,0,0,0,98,98,123,1,,,,,,,,
,,,,,,,,,,,,,FF,,,,,,,,1.0475,,,,,,,,,,,,,,,,,,,,,,60fcd70d608b9cd2da4651f7,61036dff1cbe328e09cf2616,2021-07-29_21h12.37.668,Simcolourproject_2stim_asymm_v5,2020.2.10,Win32,60,61025ae37ef11b136ea224fe,,,,,,,,,1921,-31.19998902,-66.40000743,1,0,0,response5disk,,3,-5.599988639,-4.800006509,1,0,0,rectangle,-5.599988639,-4.800006509,1,0,0,-5.599988639,-4.800006509,1,0,0,0,99,99,12,1,,,,,,,,
,,,,,,,,,,,,,FF,,,,,,,,1.0635,,,,,,,,,,,,,,,,,,,,,,60fcd70d608b9cd2da4651f7,61036dff1cbe328e09cf2616,2021-07-29_21h12.37.668,Simcolourproject_2stim_asymm_v5,2020.2.10,Win32,60,61025ae37ef11b136ea224fe,,,,,,,,,3722,82.40001267,-58.40000731,1,0,0,response3disk,,5,-4.799988627,-0.800006449,1,0,0,rectangle,-4.799988627,-0.800006449,1,0,0,-4.799988627,-0.800006449,1,0,0,0,100,100,62,1,,,,,,,,
,,,,,,,,,,,,,FF,,,,,,,,1.5824,,,,,,,,,,,,,,,,,,,,,,60fcd70d608b9cd2da4651f7,61036dff1cbe328e09cf2616,2021-07-29_21h12.37.668,Simcolourproject_2stim_asymm_v5,2020.2.10,Win32,60,61025ae37ef11b136ea224fe,,,,,,,,,471,40.80001205,-106.400008,1,0,0,response3disk,,4,-7.199988663,1.599993587,1,0,0,rectangle,-7.199988663,1.599993587,1,0,0,-7.199988663,1.599993587,1,0,0,0,101,101,93,1,,,,,,,,
,,,,,,,,,,,,,FF,,,,,,,,1.4299,,,,,,,,,,,,,,,,,,,,,,60fcd70d608b9cd2da4651f7,61036dff1cbe328e09cf2616,2021-07-29_21h12.37.668,Simcolourproject_2stim_asymm_v5,2020.2.10,Win32,60,61025ae37ef11b136ea224fe,,,,,,,,,2226,-55.99998939,119.1999709,1,0,0,response7disk,,0,7.200011551,11.19999373,1,0,0,rectangle,7.200011551,11.19999373,1,0,0,7.200011551,11.19999373,1,0,0,0,102,102,31,1,,,,,,,,
,,,,,,,,,,,,,FF,,,,,,,,1.0679,,,,,,,,,,,,,,,,,,,,,,60fcd70d608b9cd2da4651f7,61036dff1cbe328e09cf2616,2021-07-29_21h12.37.668,Simcolourproject_2stim_asymm_v5,2020.2.10,Win32,60,61025ae37ef11b136ea224fe,,,,,,,,,3354,57.6000123,91.19997051,1,0,0,response1disk,,7,6.400011539,-6.4373E-06,1,0,0,rectangle,6.400011539,-6.4373E-06,1,0,0,6.400011539,-6.4373E-06,1,0,0,0,103,103,64,1,,,,,,,,
,,,,,,,,,,,,,FF,,,,,,,,1.097,,,,,,,,,,,,,,,,,,,,,,60fcd70d608b9cd2da4651f7,61036dff1cbe328e09cf2616,2021-07-29_21h12.37.668,Simcolourproject_2stim_asymm_v5,2020.2.10,Win32,60,61025ae37ef11b136ea224fe,,,,,,,,,1052,-79.99998975,-49.60000718,1,0,0,response5disk,,2,-16.79998881,-2.400006473,1,0,0,rectangle,-16.79998881,-2.400006473,1,0,0,-16.79998881,-2.400006473,1,0,0,0,104,104,87,1,,,,,,,,
,,,,,,,,,,,,,FF,,,,,,,,0.9942,,,,,,,,,,,,,,,,,,,,,,60fcd70d608b9cd2da4651f7,61036dff1cbe328e09cf2616,2021-07-29_21h12.37.668,Simcolourproject_2stim_asymm_v5,2020.2.10,Win32,60,61025ae37ef11b136ea224fe,,,,,,,,,3188,-78.3999409,-19.20000672,1,0,0,response5disk,,2,-31.19998902,9.599993706,1,0,0,rectangle,-31.19998902,9.599993706,1,0,0,-31.19998902,9.599993706,1,0,0,0,105,105,30,1,,,,,,,,
,,,,,,,,,,,,,FF,,,,,,,,0.9653,,,,,,,,,,,,,,,,,,,,,,60fcd70d608b9cd2da4651f7,61036dff1cbe328e09cf2616,2021-07-29_21h12.37.668,Simcolourproject_2stim_asymm_v5,2020.2.10,Win32,60,61025ae37ef11b136ea224fe,,,,,,,,,2281,40.00001204,-85.60005654,1,0,0,response3disk,,4,1.14441E-05,-6.4373E-06,1,0,0,rectangle,1.14441E-05,-6.4373E-06,1,0,0,1.14441E-05,-6.4373E-06,1,0,0,0,106,106,99,1,,,,,,,,
,,,,,,,,,,,,,FF,,,,,,,,0.9809,,,,,,,,,,,,,,,,,,,,,,60fcd70d608b9cd2da4651f7,61036dff1cbe328e09cf2616,2021-07-29_21h12.37.668,Simcolourproject_2stim_asymm_v5,2020.2.10,Win32,60,61025ae37ef11b136ea224fe,,,,,,,,,2293,-51.19998932,-92.80000782,1,0,0,response5disk,,3,-15.99998879,-12.00000662,1,0,0,rectangle,-15.99998879,-12.00000662,1,0,0,-15.99998879,-12.00000662,1,0,0,0,107,107,110,1,,,,,,,,
,,,,,,,,,,,,,FF,,,,,,,,0.8516,,,,,,,,,,,,,,,,,,,,,,60fcd70d608b9cd2da4651f7,61036dff1cbe328e09cf2616,2021-07-29_21h12.37.668,Simcolourproject_2stim_asymm_v5,2020.2.10,Win32,60,61025ae37ef11b136ea224fe,,,,,,,,,1486,107.200013,-65.60000741,1,0,0,response3disk,,5,-8.799988687,6.399993658,1,0,0,rectangle,-8.799988687,6.399993658,1,0,0,-8.799988687,6.399993658,1,0,0,0,108,108,141,1,,,,,,,,
,,,,,,,,,,,,,FF,,,,,,,,1.2796,,,,,,,,,,,,,,,,,,,,,,60fcd70d608b9cd2da4651f7,61036dff1cbe328e09cf2616,2021-07-29_21h12.37.668,Simcolourproject_2stim_asymm_v5,2020.2.10,Win32,60,61025ae37ef11b136ea224fe,,,,,,,,,3140,-82.39994096,-64.8000074,1,0,0,response5disk,,2,-12.79998875,0.799993575,1,0,0,rectangle,-12.79998875,0.799993575,1,0,0,-12.79998875,0.799993575,1,0,0,0,109,109,102,1,,,,,,,,
,,,,,,,,,,,,,FF,,,,,,,,1.1279,,,,,,,,,,,,,,,,,,,,,,60fcd70d608b9cd2da4651f7,61036dff1cbe328e09cf2616,2021-07-29_21h12.37.668,Simcolourproject_2stim_asymm_v5,2020.2.10,Win32,60,61025ae37ef11b136ea224fe,,,,,,,,,3464,68.00001246,85.59999484,1,0,0,response1disk,,7,20.00001174,-3.200006485,1,0,0,rectangle,20.00001174,-3.200006485,1,0,0,20.00001174,-3.200006485,1,0,0,0,110,110,49,1,,,,,,,,
,,,,,,,,,,,,,FF,,,,,,,,1.8953,,,,,,,,,,,,,,,,,,,,,,60fcd70d608b9cd2da4651f7,61036dff1cbe328e09cf2616,2021-07-29_21h12.37.668,Simcolourproject_2stim_asymm_v5,2020.2.10,Win32,60,61025ae37ef11b136ea224fe,,,,,,,,,2985,-101.5999901,-43.20000708,1,0,0,response5disk,,2,-10.39993988,3.19999361,1,0,0,rectangle,-10.39993988,3.19999361,1,0,0,-10.39993988,3.19999361,1,0,0,0,111,111,149,1,,,,,,,,
,,,,,,,,,,,,,FF,,,,,,,,1.1269,,,,,,,,,,,,,,,,,,,,,,60fcd70d608b9cd2da4651f7,61036dff1cbe328e09cf2616,2021-07-29_21h12.37.668,Simcolourproject_2stim_asymm_v5,2020.2.10,Win32,60,61025ae37ef11b136ea224fe,,,,,,,,,2503,88.80001277,-52.00000721,1,0,0,response3disk,,5,1.14441E-05,-3.200006485,1,0,0,rectangle,1.14441E-05,-3.200006485,1,0,0,1.14441E-05,-3.200006485,1,0,0,0,112,112,34,1,,,,,,,,
,,,,,,,,,,,,,FF,,,,,,,,0.8277,,,,,,,,,,,,,,,,,,,,,,60fcd70d608b9cd2da4651f7,61036dff1cbe328e09cf2616,2021-07-29_21h12.37.668,Simcolourproject_2stim_asymm_v5,2020.2.10,Win32,60,61025ae37ef11b136ea224fe,,,,,,,,,1265,77.6000126,-56.80000728,1,0,0,response3disk,,5,16.80001169,-6.4373E-06,1,0,0,rectangle,16.80001169,-6.4373E-06,1,0,0,16.80001169,-6.4373E-06,1,0,0,0,113,113,40,1,,,,,,,,
,,,,,,,,,,,,,FF,,,,,,,,0.8274,,,,,,,,,,,,,,,,,,,,,,60fcd70d608b9cd2da4651f7,61036dff1cbe328e09cf2616,2021-07-29_21h12.37.668,Simcolourproject_2stim_asymm_v5,2020.2.10,Win32,60,61025ae37ef11b136ea224fe,,,,,,,,,2135,64.80001241,47.19996985,1,0,0,response1disk,,6,8.800011575,3.999993622,1,0,0,rectangle,8.800011575,3.999993622,1,0,0,8.800011575,3.999993622,1,0,0,0,114,114,151,1,,,,,,,,
,,,,,,,,,,,,,FF,,,,,,,,1.3174,,,,,,,,,,,,,,,,,,,,,,60fcd70d608b9cd2da4651f7,61036dff1cbe328e09cf2616,2021-07-29_21h12.37.668,Simcolourproject_2stim_asymm_v5,2020.2.10,Win32,60,61025ae37ef11b136ea224fe,,,,,,,,,2598,-44.79998922,-92.00000781,1,0,0,response5disk,,3,-2.399939764,-6.4373E-06,1,0,0,rectangle,-2.399939764,-6.4373E-06,1,0,0,-2.399939764,-6.4373E-06,1,0,0,0,115,115,17,1,,,,,,,,
,,,,,,,,,,,,,FF,,,,,,,,0.8139,,,,,,,,,,,,,,,,,,,,,,60fcd70d608b9cd2da4651f7,61036dff1cbe328e09cf2616,2021-07-29_21h12.37.668,Simcolourproject_2stim_asymm_v5,2020.2.10,Win32,60,61025ae37ef11b136ea224fe,,,,,,,,,2355,-71.19998962,126.3999954,1,0,0,response7disk,,0,-10.39993988,0.799993575,1,0,0,rectangle,-10.39993988,0.799993575,1,0,0,-10.39993988,0.799993575,1,0,0,0,116,116,65,1,,,,,,,,
,,,,,,,,,,,,,FF,,,,,,,,1.6327,,,,,,,,,,,,,,,,,,,,,,60fcd70d608b9cd2da4651f7,61036dff1cbe328e09cf2616,2021-07-29_21h12.37.668,Simcolourproject_2stim_asymm_v5,2020.2.10,Win32,60,61025ae37ef11b136ea224fe,,,,,,,,,1231,-103.1999901,55.9999944,1,0,0,response7disk,,1,13.60006047,-11.2000066,1,0,0,rectangle,13.60006047,-11.2000066,1,0,0,13.60006047,-11.2000066,1,0,0,0,117,117,67,1,,,,,,,,
,,,,,,,,,,,,,FF,,,,,,,,0.9439,,,,,,,,,,,,,,,,,,,,,,60fcd70d608b9cd2da4651f7,61036dff1cbe328e09cf2616,2021-07-29_21h12.37.668,Simcolourproject_2stim_asymm_v5,2020.2.10,Win32,60,61025ae37ef11b136ea224fe,,,,,,,,,1583,44.0000121,51.99999434,1,0,0,response1disk,,7,2.40001148,-8.800006568,1,0,0,rectangle,2.40001148,-8.800006568,1,0,0,2.40001148,-8.800006568,1,0,0,0,118,118,20,1,,,,,,,,
,,,,,,,,,,,,,FF,,,,,,,,1.1923,,,,,,,,,,,,,,,,,,,,,,60fcd70d608b9cd2da4651f7,61036dff1cbe328e09cf2616,2021-07-29_21h12.37.668,Simcolourproject_2stim_asymm_v5,2020.2.10,Win32,60,61025ae37ef11b136ea224fe,,,,,,,,,3852,25.60006065,-92.00000781,1,0,0,response3disk,,4,-4.799988627,-6.400006533,1,0,0,rectangle,-4.799988627,-6.400006533,1,0,0,-4.799988627,-6.400006533,1,0,0,0,119,119,18,1,,,,,,,,
,,,,,,,,,,,,,FF,,,,,,,,1.2797,,,,,,,,,,,,,,,,,,,,,,60fcd70d608b9cd2da4651f7,61036dff1cbe328e09cf2616,2021-07-29_21h12.37.668,Simcolourproject_2stim_asymm_v5,2020.2.10,Win32,60,61025ae37ef11b136ea224fe,,,,,,,,,2138,97.6000129,-49.60000718,1,0,0,response3disk,,5,16.00001168,-5.600006521,1,0,0,rectangle,16.00001168,-5.600006521,1,0,0,16.00001168,-5.600006521,1,0,0,0,120,120,91,1,,,,,,,,
,,,,,,,,,,,,,FF,,,,,,,,1.6652,,,,,,,,,,,,,,,,,,,,,,60fcd70d608b9cd2da4651f7,61036dff1cbe328e09cf2616,2021-07-29_21h12.37.668,Simcolourproject_2stim_asymm_v5,2020.2.10,Win32,60,61025ae37ef11b136ea224fe,,,,,,,,,2652,-111.1999902,42.39999419,1,0,0,response7disk,,1,-11.99998873,-6.400006533,1,0,0,rectangle,-11.99998873,-6.400006533,1,0,0,-11.99998873,-6.400006533,1,0,0,0,121,121,150,1,,,,,,,,
,,,,,,,,,,,,,FF,,,,,,,,1.1311,,,,,,,,,,,,,,,,,,,,,,60fcd70d608b9cd2da4651f7,61036dff1cbe328e09cf2616,2021-07-29_21h12.37.668,Simcolourproject_2stim_asymm_v5,2020.2.10,Win32,60,61025ae37ef11b136ea224fe,,,,,,,,,3806,56.80001229,79.19997033,1,0,0,response1disk,,7,20.00001174,13.59999377,1,0,0,rectangle,20.00001174,13.59999377,1,0,0,20.00001174,13.59999377,1,0,0,0,122,122,121,1,,,,,,,,
,,,,,,,,,,,,,FF,,,,,,,,1.429,,,,,,,,,,,,,,,,,,,,,,60fcd70d608b9cd2da4651f7,61036dff1cbe328e09cf2616,2021-07-29_21h12.37.668,Simcolourproject_2stim_asymm_v5,2020.2.10,Win32,60,61025ae37ef11b136ea224fe,,,,,,,,,2385,46.40001214,-94.40000784,1,0,0,response3disk,,4,2.40001148,-2.400006473,1,0,0,rectangle,2.40001148,-2.400006473,1,0,0,2.40001148,-2.400006473,1,0,0,0,123,123,41,1,,,,,,,,
,,,,,,,,,,,,,FF,,,,,,,,0.9474,,,,,,,,,,,,,,,,,,,,,,60fcd70d608b9cd2da4651f7,61036dff1cbe328e09cf2616,2021-07-29_21h12.37.668,Simcolourproject_2stim_asymm_v5,2020.2.10,Win32,60,61025ae37ef11b136ea224fe,,,,,,,,,2144,100.0000129,-64.8000074,1,0,0,response3disk,,5,1.600060296,-4.000006497,1,0,0,rectangle,1.600060296,-4.000006497,1,0,0,1.600060296,-4.000006497,1,0,0,0,124,124,26,1,,,,,,,,
,,,,,,,,,,,,,FF,,,,,,,,1.114,,,,,,,,,,,,,,,,,,,,,,60fcd70d608b9cd2da4651f7,61036dff1cbe328e09cf2616,2021-07-29_21h12.37.668,Simcolourproject_2stim_asymm_v5,2020.2.10,Win32,60,61025ae37ef11b136ea224fe,,,,,,,,,887,-87.19998986,-30.40000689,1,0,0,response5disk,,2,-10.39993988,-0.800006449,1,0,0,rectangle,52.80001223,103.9999951,1,0,0,4.000011504,-6.4373E-06,1,0,0,0,125,125,23,1,,response1disk_3,TRUE,7,7,"[10,291,303,177,197,24,321,70,226,233,182,7,126,314,21,71,239,98,33,313]",1.7787,rectangle
,,,,,,,,,,,,,FF,,,,,,,,2.061,,,,,,,,,,,,,,,,,,,,,,60fcd70d608b9cd2da4651f7,61036dff1cbe328e09cf2616,2021-07-29_21h12.37.668,Simcolourproject_2stim_asymm_v5,2020.2.10,Win32,60,61025ae37ef11b136ea224fe,,,,,,,,,2850,53.60001224,-120.8000082,1,0,0,response3disk,,4,-3.999988616,-1.600006461,1,0,0,rectangle,-3.999988616,-1.600006461,1,0,0,-3.999988616,-1.600006461,1,0,0,0,126,126,122,1,,,,,,,,
,,,,,,,,,,,,,FF,,,,,,,,1.6291,,,,,,,,,,,,,,,,,,,,,,60fcd70d608b9cd2da4651f7,61036dff1cbe328e09cf2616,2021-07-29_21h12.37.668,Simcolourproject_2stim_asymm_v5,2020.2.10,Win32,60,61025ae37ef11b136ea224fe,,,,,,,,,3908,-95.99998999,-41.60000706,1,0,0,response5disk,,2,-20.79998887,3.19999361,1,0,0,rectangle,-20.79998887,3.19999361,1,0,0,-20.79998887,3.19999361,1,0,0,0,127,127,25,1,,,,,,,,
,,,,,,,,,,,,,FF,,,,,,,,1.0969,,,,,,,,,,,,,,,,,,,,,,60fcd70d608b9cd2da4651f7,61036dff1cbe328e09cf2616,2021-07-29_21h12.37.668,Simcolourproject_2stim_asymm_v5,2020.2.10,Win32,60,61025ae37ef11b136ea224fe,,,,,,,,,2078,68.80001247,-136.0000085,1,0,0,response3disk,,4,-4.799988627,0.799993575,1,0,0,rectangle,-4.799988627,0.799993575,1,0,0,-4.799988627,0.799993575,1,0,0,0,128,128,56,1,,,,,,,,
,,,,,,,,,,,,,FF,,,,,,,,1.0802,,,,,,,,,,,,,,,,,,,,,,60fcd70d608b9cd2da4651f7,61036dff1cbe328e09cf2616,2021-07-29_21h12.37.668,Simcolourproject_2stim_asymm_v5,2020.2.10,Win32,60,61025ae37ef11b136ea224fe,,,,,,,,,3947,-39.19998914,-58.40000731,1,0,0,response5disk,,3,-25.59998894,-8.000006557,1,0,0,rectangle,-25.59998894,-8.000006557,1,0,0,-25.59998894,-8.000006557,1,0,0,0,129,129,44,1,,,,,,,,
,,,,,,,,,,,,,FF,,,,,,,,1.546,,,,,,,,,,,,,,,,,,,,,,60fcd70d608b9cd2da4651f7,61036dff1cbe328e09cf2616,2021-07-29_21h12.37.668,Simcolourproject_2stim_asymm_v5,2020.2.10,Win32,60,61025ae37ef11b136ea224fe,,,,,,,,,2143,98.40001291,-73.60000753,1,0,0,response3disk,,5,4.000011504,3.999993622,1,0,0,rectangle,4.000011504,3.999993622,1,0,0,4.000011504,3.999993622,1,0,0,0,130,130,116,1,,,,,,,,
,,,,,,,,,,,,,FF,,,,,,,,1.0306,,,,,,,,,,,,,,,,,,,,,,60fcd70d608b9cd2da4651f7,61036dff1cbe328e09cf2616,2021-07-29_21h12.37.668,Simcolourproject_2stim_asymm_v5,2020.2.10,Win32,60,61025ae37ef11b136ea224fe,,,,,,,,,862,-30.39994018,-84.00000769,1,0,0,response5disk,,3,-12.79998875,-6.400006533,1,0,0,rectangle,-12.79998875,-6.400006533,1,0,0,-12.79998875,-6.400006533,1,0,0,0,131,131,145,1,,,,,,,,
,,,,,,,,,,,,,FF,,,,,,,,1.0969,,,,,,,,,,,,,,,,,,,,,,60fcd70d608b9cd2da4651f7,61036dff1cbe328e09cf2616,2021-07-29_21h12.37.668,Simcolourproject_2stim_asymm_v5,2020.2.10,Win32,60,61025ae37ef11b136ea224fe,,,,,,,,,3608,63.20001239,-111.2000081,1,0,0,response3disk,,4,-3.199988604,-15.20000666,1,0,0,rectangle,-3.199988604,-15.20000666,1,0,0,-3.199988604,-15.20000666,1,0,0,0,132,132,50,1,,,,,,,,
,,,,,,,,,,,,,FF,,,,,,,,1.612,,,,,,,,,,,,,,,,,,,,,,60fcd70d608b9cd2da4651f7,61036dff1cbe328e09cf2616,2021-07-29_21h12.37.668,Simcolourproject_2stim_asymm_v5,2020.2.10,Win32,60,61025ae37ef11b136ea224fe,,,,,,,,,2530,44.0000121,-98.4000079,1,0,0,response3disk,,4,-12.79998875,12.79999375,1,0,0,rectangle,-12.79998875,12.79999375,1,0,0,-12.79998875,12.79999375,1,0,0,0,133,133,3,1,,,,,,,,
,,,,,,,,,,,,,FF,,,,,,,,1.0304,,,,,,,,,,,,,,,,,,,,,,60fcd70d608b9cd2da4651f7,61036dff1cbe328e09cf2616,2021-07-29_21h12.37.668,Simcolourproject_2stim_asymm_v5,2020.2.10,Win32,60,61025ae37ef11b136ea224fe,,,,,,,,,1048,70.40001249,49.5999943,1,0,0,response1disk,,6,15.20001167,-6.4373E-06,1,0,0,rectangle,15.20001167,-6.4373E-06,1,0,0,15.20001167,-6.4373E-06,1,0,0,0,134,134,47,1,,,,,,,,
,,,,,,,,,,,,,FF,,,,,,,,0.9144,,,,,,,,,,,,,,,,,,,,,,60fcd70d608b9cd2da4651f7,61036dff1cbe328e09cf2616,2021-07-29_21h12.37.668,Simcolourproject_2stim_asymm_v5,2020.2.10,Win32,60,61025ae37ef11b136ea224fe,,,,,,,,,3296,-86.39994102,43.99999422,1,0,0,response7disk,,1,-10.39993988,-6.400006533,1,0,0,rectangle,-10.39993988,-6.400006533,1,0,0,-10.39993988,-6.400006533,1,0,0,0,135,135,157,1,,,,,,,,
,,,,,,,,,,,,,FF,,,,,,,,0.9973,,,,,,,,,,,,,,,,,,,,,,60fcd70d608b9cd2da4651f7,61036dff1cbe328e09cf2616,2021-07-29_21h12.37.668,Simcolourproject_2stim_asymm_v5,2020.2.10,Win32,60,61025ae37ef11b136ea224fe,,,,,,,,,795,-26.39994012,-72.80000752,1,0,0,response5disk,,3,-8.799988687,0.799993575,1,0,0,rectangle,-8.799988687,0.799993575,1,0,0,-8.799988687,0.799993575,1,0,0,0,136,136,138,1,,,,,,,,
,,,,,,,,,,,,,FF,,,,,,,,1.2964,,,,,,,,,,,,,,,,,,,,,,60fcd70d608b9cd2da4651f7,61036dff1cbe328e09cf2616,2021-07-29_21h12.37.668,Simcolourproject_2stim_asymm_v5,2020.2.10,Win32,60,61025ae37ef11b136ea224fe,,,,,,,,,648,-78.3999409,-52.80000722,1,0,0,response5disk,,2,-9.599988699,-1.600006461,1,0,0,rectangle,-9.599988699,-1.600006461,1,0,0,-9.599988699,-1.600006461,1,0,0,0,137,137,146,1,,,,,,,,
,,,,,,,,,,,,,FF,,,,,,,,1.181,,,,,,,,,,,,,,,,,,,,,,60fcd70d608b9cd2da4651f7,61036dff1cbe328e09cf2616,2021-07-29_21h12.37.668,Simcolourproject_2stim_asymm_v5,2020.2.10,Win32,60,61025ae37ef11b136ea224fe,,,,,,,,,2911,53.60001224,-101.6000568,1,0,0,response3disk,,4,-3.199988604,-0.800006449,1,0,0,rectangle,-3.199988604,-0.800006449,1,0,0,-3.199988604,-0.800006449,1,0,0,0,138,138,8,1,,,,,,,,
,,,,,,,,,,,,,FF,,,,,,,,1.0141,,,,,,,,,,,,,,,,,,,,,,60fcd70d608b9cd2da4651f7,61036dff1cbe328e09cf2616,2021-07-29_21h12.37.668,Simcolourproject_2stim_asymm_v5,2020.2.10,Win32,60,61025ae37ef11b136ea224fe,,,,,,,,,4363,-78.3999409,32.79999405,1,0,0,response7disk,,1,-7.199988663,-1.600006461,1,0,0,rectangle,-7.199988663,-1.600006461,1,0,0,-7.199988663,-1.600006461,1,0,0,0,139,139,63,1,,,,,,,,
,,,,,,,,,,,,,FF,,,,,,,,1.1137,,,,,,,,,,,,,,,,,,,,,,60fcd70d608b9cd2da4651f7,61036dff1cbe328e09cf2616,2021-07-29_21h12.37.668,Simcolourproject_2stim_asymm_v5,2020.2.10,Win32,60,61025ae37ef11b136ea224fe,,,,,,,,,1394,-74.39994084,-30.40000689,1,0,0,response5disk,,2,-20.79998887,-2.400006473,1,0,0,rectangle,-20.79998887,-2.400006473,1,0,0,-20.79998887,-2.400006473,1,0,0,0,140,140,57,1,,,,,,,,
,,,,,,,,,,,,,FF,,,,,,,,1.2134,,,,,,,,,,,,,,,,,,,,,,60fcd70d608b9cd2da4651f7,61036dff1cbe328e09cf2616,2021-07-29_21h12.37.668,Simcolourproject_2stim_asymm_v5,2020.2.10,Win32,60,61025ae37ef11b136ea224fe,,,,,,,,,956,56.80001229,-87.20000774,1,0,0,response3disk,,4,-19.99998885,13.59999377,1,0,0,rectangle,-19.99998885,13.59999377,1,0,0,-19.99998885,13.59999377,1,0,0,0,141,141,61,1,,,,,,,,
,,,,,,,,,,,,,FF,,,,,,,,1.9813,,,,,,,,,,,,,,,,,,,,,,60fcd70d608b9cd2da4651f7,61036dff1cbe328e09cf2616,2021-07-29_21h12.37.668,Simcolourproject_2stim_asymm_v5,2020.2.10,Win32,60,61025ae37ef11b136ea224fe,,,,,,,,,3137,33.60006077,-92.00000781,1,0,0,response3disk,,4,-7.999988675,5.599993646,1,0,0,rectangle,-7.999988675,5.599993646,1,0,0,-7.999988675,5.599993646,1,0,0,0,142,142,92,1,,,,,,,,
,,,,,,,,,,,,,FF,,,,,,,,2.3936,,,,,,,,,,,,,,,,,,,,,,60fcd70d608b9cd2da4651f7,61036dff1cbe328e09cf2616,2021-07-29_21h12.37.668,Simcolourproject_2stim_asymm_v5,2020.2.10,Win32,60,61025ae37ef11b136ea224fe,,,,,,,,,2536,76.80001259,31.19996961,1,0,0,response1disk,,6,11.20001161,-14.40000665,1,0,0,rectangle,11.20001161,-14.40000665,1,0,0,11.20001161,-14.40000665,1,0,0,0,143,143,82,1,,,,,,,,
,,,,,,,,,,,,,FF,,,,,,,,0.9971,,,,,,,,,,,,,,,,,,,,,,60fcd70d608b9cd2da4651f7,61036dff1cbe328e09cf2616,2021-07-29_21h12.37.668,Simcolourproject_2stim_asymm_v5,2020.2.10,Win32,60,61025ae37ef11b136ea224fe,,,,,,,,,4214,81.60001266,45.59999424,1,0,0,response1disk,,6,5.600060356,5.599993646,1,0,0,rectangle,5.600060356,5.599993646,1,0,0,5.600060356,5.599993646,1,0,0,0,144,144,158,1,,,,,,,,
,,,,,,,,,,,,,FF,,,,,,,,1.2301,,,,,,,,,,,,,,,,,,,,,,60fcd70d608b9cd2da4651f7,61036dff1cbe328e09cf2616,2021-07-29_21h12.37.668,Simcolourproject_2stim_asymm_v5,2020.2.10,Win32,60,61025ae37ef11b136ea224fe,,,,,,,,,2516,38.40001202,67.19997015,1,0,0,response1disk,,7,12.80001163,-6.400006533,1,0,0,rectangle,12.80001163,-6.400006533,1,0,0,12.80001163,-6.400006533,1,0,0,0,145,145,136,1,,,,,,,,
,,,,,,,,,,,,,FF,,,,,,,,0.798,,,,,,,,,,,,,,,,,,,,,,60fcd70d608b9cd2da4651f7,61036dff1cbe328e09cf2616,2021-07-29_21h12.37.668,Simcolourproject_2stim_asymm_v5,2020.2.10,Win32,60,61025ae37ef11b136ea224fe,,,,,,,,,2582,29.60006071,77.59999472,1,0,0,response1disk,,7,17.60006053,3.999993622,1,0,0,rectangle,17.60006053,3.999993622,1,0,0,17.60006053,3.999993622,1,0,0,0,146,146,80,1,,,,,,,,
,,,,,,,,,,,,,FF,,,,,,,,1.596,,,,,,,,,,,,,,,,,,,,,,60fcd70d608b9cd2da4651f7,61036dff1cbe328e09cf2616,2021-07-29_21h12.37.668,Simcolourproject_2stim_asymm_v5,2020.2.10,Win32,60,61025ae37ef11b136ea224fe,,,,,,,,,2746,76.00001258,-46.40000713,1,0,0,response3disk,,5,-3.999988616,3.19999361,1,0,0,rectangle,-3.999988616,3.19999361,1,0,0,-3.999988616,3.19999361,1,0,0,0,147,147,2,1,,,,,,,,
,,,,,,,,,,,,,FF,,,,,,,,1.0149,,,,,,,,,,,,,,,,,,,,,,60fcd70d608b9cd2da4651f7,61036dff1cbe328e09cf2616,2021-07-29_21h12.37.668,Simcolourproject_2stim_asymm_v5,2020.2.10,Win32,60,61025ae37ef11b136ea224fe,,,,,,,,,3215,33.60006077,-86.40000772,1,0,0,response3disk,,4,-6.399939823,-6.4373E-06,1,0,0,rectangle,-6.399939823,-6.4373E-06,1,0,0,-6.399939823,-6.4373E-06,1,0,0,0,148,148,11,1,,,,,,,,
,,,,,,,,,,,,,FF,,,,,,,,1.5962,,,,,,,,,,,,,,,,,,,,,,60fcd70d608b9cd2da4651f7,61036dff1cbe328e09cf2616,2021-07-29_21h12.37.668,Simcolourproject_2stim_asymm_v5,2020.2.10,Win32,60,61025ae37ef11b136ea224fe,,,,,,,,,1287,-119.1999903,42.39999419,1,0,0,response7disk,,1,-7.999988675,9.599993706,1,0,0,rectangle,-7.999988675,9.599993706,1,0,0,-7.999988675,9.599993706,1,0,0,0,149,149,88,1,,,,,,,,
,,,,,,,,,,,,,FF,,,,,,,,0.9145,,,,,,,,,,,,,,,,,,,,,,60fcd70d608b9cd2da4651f7,61036dff1cbe328e09cf2616,2021-07-29_21h12.37.668,Simcolourproject_2stim_asymm_v5,2020.2.10,Win32,60,61025ae37ef11b136ea224fe,,,,,,,,,1870,-60.79998946,-34.40000695,1,0,0,response5disk,,2,-3.199988604,0.799993575,1,0,0,rectangle,-3.199988604,0.799993575,1,0,0,-3.199988604,0.799993575,1,0,0,0,150,150,97,1,,,,,,,,
,,,,,,,,,,,,,FF,,,,,,,,1.5127,,,,,,,,,,,,,,,,,,,,,,60fcd70d608b9cd2da4651f7,61036dff1cbe328e09cf2616,2021-07-29_21h12.37.668,Simcolourproject_2stim_asymm_v5,2020.2.10,Win32,60,61025ae37ef11b136ea224fe,,,,,,,,,2794,-119.9999903,-36.80000699,1,0,0,response5disk,,2,-15.99998879,0.799993575,1,0,0,rectangle,-15.99998879,0.799993575,1,0,0,-15.99998879,0.799993575,1,0,0,0,151,151,74,1,,,,,,,,
,,,,,,,,,,,,,FF,,,,,,,,1.184,,,,,,,,,,,,,,,,,,,,,,60fcd70d608b9cd2da4651f7,61036dff1cbe328e09cf2616,2021-07-29_21h12.37.668,Simcolourproject_2stim_asymm_v5,2020.2.10,Win32,60,61025ae37ef11b136ea224fe,,,,,,,,,823,48.00001216,-99.20000792,1,0,0,response3disk,,4,-12.79998875,1.599993587,1,0,0,rectangle,-12.79998875,1.599993587,1,0,0,-12.79998875,1.599993587,1,0,0,0,152,152,101,1,,,,,,,,
,,,,,,,,,,,,,FF,,,,,,,,0.8646,,,,,,,,,,,,,,,,,,,,,,60fcd70d608b9cd2da4651f7,61036dff1cbe328e09cf2616,2021-07-29_21h12.37.668,Simcolourproject_2stim_asymm_v5,2020.2.10,Win32,60,61025ae37ef11b136ea224fe,,,,,,,,,1036,-35.99998909,-78.40000761,1,0,0,response5disk,,3,-8.799988687,7.19999367,1,0,0,rectangle,-8.799988687,7.19999367,1,0,0,-8.799988687,7.19999367,1,0,0,0,153,153,142,1,,,,,,,,
,,,,,,,,,,,,,FF,,,,,,,,1.181,,,,,,,,,,,,,,,,,,,,,,60fcd70d608b9cd2da4651f7,61036dff1cbe328e09cf2616,2021-07-29_21h12.37.668,Simcolourproject_2stim_asymm_v5,2020.2.10,Win32,60,61025ae37ef11b136ea224fe,,,,,,,,,1750,-86.39994102,43.99999422,1,0,0,response7disk,,1,2.40001148,3.19999361,1,0,0,rectangle,2.40001148,3.19999361,1,0,0,2.40001148,3.19999361,1,0,0,0,154,154,137,1,,,,,,,,
,,,,,,,,,,,,,FF,,,,,,,,1.1805,,,,,,,,,,,,,,,,,,,,,,60fcd70d608b9cd2da4651f7,61036dff1cbe328e09cf2616,2021-07-29_21h12.37.668,Simcolourproject_2stim_asymm_v5,2020.2.10,Win32,60,61025ae37ef11b136ea224fe,,,,,,,,,95,-110.3999414,40.79999417,1,0,0,response7disk,,1,-23.1999889,5.599993646,1,0,0,rectangle,-23.1999889,5.599993646,1,0,0,-23.1999889,5.599993646,1,0,0,0,155,155,27,1,,,,,,,,
,,,,,,,,,,,,,FF,,,,,,,,4.6869,,,,,,,,,,,,,,,,,,,,,,60fcd70d608b9cd2da4651f7,61036dff1cbe328e09cf2616,2021-07-29_21h12.37.668,Simcolourproject_2stim_asymm_v5,2020.2.10,Win32,60,61025ae37ef11b136ea224fe,,,,,,,,,1051,-39.99998915,-99.20000792,1,0,0,response5disk,,3,8.000011563,-15.20000666,1,0,0,rectangle,8.000011563,-15.20000666,1,0,0,8.000011563,-15.20000666,1,0,0,0,156,156,90,1,,,,,,,,
,,,,,,,,,,,,,FF,,,,,,,,1.2137,,,,,,,,,,,,,,,,,,,,,,60fcd70d608b9cd2da4651f7,61036dff1cbe328e09cf2616,2021-07-29_21h12.37.668,Simcolourproject_2stim_asymm_v5,2020.2.10,Win32,60,61025ae37ef11b136ea224fe,,,,,,,,,1078,92.80001283,-40.80000705,1,0,0,response3disk,,5,-6.399939823,8.799993694,1,0,0,rectangle,-6.399939823,8.799993694,1,0,0,-6.399939823,8.799993694,1,0,0,0,157,157,79,1,,,,,,,,
,,,,,,,,,,,,,FF,,,,,,,,0.964,,,,,,,,,,,,,,,,,,,,,,60fcd70d608b9cd2da4651f7,61036dff1cbe328e09cf2616,2021-07-29_21h12.37.668,Simcolourproject_2stim_asymm_v5,2020.2.10,Win32,60,61025ae37ef11b136ea224fe,,,,,,,,,2208,32.80001193,74.39999467,1,0,0,response1disk,,7,1.600060296,-10.40000659,1,0,0,rectangle,1.600060296,-10.40000659,1,0,0,1.600060296,-10.40000659,1,0,0,0,158,158,106,1,,,,,,,,
,,,,,,,,,,,,,FF,,,,,,,,1.3503,,,,,,,,,,,,,,,,,,,,,,60fcd70d608b9cd2da4651f7,61036dff1cbe328e09cf2616,2021-07-29_21h12.37.668,Simcolourproject_2stim_asymm_v5,2020.2.10,Win32,60,61025ae37ef11b136ea224fe,,,,,,,,,3057,-102.3999413,50.39999431,1,0,0,response7disk,,1,-4.799988627,7.999993682,1,0,0,rectangle,-4.799988627,7.999993682,1,0,0,-4.799988627,7.999993682,1,0,0,0,159,159,130,1,,,,,,,,
,,,,,,,,,,,,,FF,,,,,,,,0.8811,,,,,,,,,,,,,,,,,,,,,,60fcd70d608b9cd2da4651f7,61036dff1cbe328e09cf2616,2021-07-29_21h12.37.668,Simcolourproject_2stim_asymm_v5,2020.2.10,Win32,60,61025ae37ef11b136ea224fe,,,,,,,,,1920,-35.19998908,-85.60005654,1,0,0,response5disk,,3,-2.399939764,-2.400006473,1,0,0,rectangle,-2.399939764,-2.400006473,1,0,0,-2.399939764,-2.400006473,1,0,0,1,0,160,67,1,,,,,,,,
,,,,,,,,,,,,,FF,,,,,,,,1.4626,,,,,,,,,,,,,,,,,,,,,,60fcd70d608b9cd2da4651f7,61036dff1cbe328e09cf2616,2021-07-29_21h12.37.668,Simcolourproject_2stim_asymm_v5,2020.2.10,Win32,60,61025ae37ef11b136ea224fe,,,,,,,,,393,32.80001193,-100.0000079,1,0,0,response3disk,,4,-8.799988687,-6.4373E-06,1,0,0,rectangle,-8.799988687,-6.4373E-06,1,0,0,-8.799988687,-6.4373E-06,1,0,0,1,1,161,81,1,,,,,,,,
,,,,,,,,,,,,,FF,,,,,,,,1.6789,,,,,,,,,,,,,,,,,,,,,,60fcd70d608b9cd2da4651f7,61036dff1cbe328e09cf2616,2021-07-29_21h12.37.668,Simcolourproject_2stim_asymm_v5,2020.2.10,Win32,60,61025ae37ef11b136ea224fe,,,,,,,,,4278,-67.99998957,-97.60005672,1,0,0,response5disk,,3,-2.399939764,-0.800006449,1,0,0,rectangle,-2.399939764,-0.800006449,1,0,0,-2.399939764,-0.800006449,1,0,0,1,2,162,35,1,,,,,,,,
,,,,,,,,,,,,,FF,,,,,,,,1.8619,,,,,,,,,,,,,,,,,,,,,,60fcd70d608b9cd2da4651f7,61036dff1cbe328e09cf2616,2021-07-29_21h12.37.668,Simcolourproject_2stim_asymm_v5,2020.2.10,Win32,60,61025ae37ef11b136ea224fe,,,,,,,,,2222,24.0000118,-84.8000077,1,0,0,response3disk,,4,-2.399939764,-6.4373E-06,1,0,0,rectangle,-2.399939764,-6.4373E-06,1,0,0,-2.399939764,-6.4373E-06,1,0,0,1,3,163,19,1,,,,,,,,
,,,,,,,,,,,,,FF,,,,,,,,1.2302,,,,,,,,,,,,,,,,,,,,,,60fcd70d608b9cd2da4651f7,61036dff1cbe328e09cf2616,2021-07-29_21h12.37.668,Simcolourproject_2stim_asymm_v5,2020.2.10,Win32,60,61025ae37ef11b136ea224fe,,,,,,,,,2020,78.40001261,-45.60000712,1,0,0,response3disk,,5,14.40001166,-0.800006449,1,0,0,rectangle,14.40001166,-0.800006449,1,0,0,14.40001166,-0.800006449,1,0,0,1,4,164,29,1,,,,,,,,
,,,,,,,,,,,,,FF,,,,,,,,1.3465,,,,,,,,,,,,,,,,,,,,,,60fcd70d608b9cd2da4651f7,61036dff1cbe328e09cf2616,2021-07-29_21h12.37.668,Simcolourproject_2stim_asymm_v5,2020.2.10,Win32,60,61025ae37ef11b136ea224fe,,,,,,,,,3050,-80.79998976,-64.00000739,1,0,0,response5disk,,2,-9.599988699,12.79999375,1,0,0,rectangle,-9.599988699,12.79999375,1,0,0,-9.599988699,12.79999375,1,0,0,1,5,165,49,1,,,,,,,,
,,,,,,,,,,,,,FF,,,,,,,,1.5496,,,,,,,,,,,,,,,,,,,,,,60fcd70d608b9cd2da4651f7,61036dff1cbe328e09cf2616,2021-07-29_21h12.37.668,Simcolourproject_2stim_asymm_v5,2020.2.10,Win32,60,61025ae37ef11b136ea224fe,,,,,,,,,2575,100.8000129,49.5999943,1,0,0,response1disk,,6,11.20001161,8.799993694,1,0,0,rectangle,11.20001161,8.799993694,1,0,0,11.20001161,8.799993694,1,0,0,1,6,166,6,1,,,,,,,,
,,,,,,,,,,,,,FF,,,,,,,,1.0805,,,,,,,,,,,,,,,,,,,,,,60fcd70d608b9cd2da4651f7,61036dff1cbe328e09cf2616,2021-07-29_21h12.37.668,Simcolourproject_2stim_asymm_v5,2020.2.10,Win32,60,61025ae37ef11b136ea224fe,,,,,,,,,1833,-34.39994024,-72.00000751,1,0,0,response5disk,,3,-10.39993988,-6.400006533,1,0,0,rectangle,-10.39993988,-6.400006533,1,0,0,-10.39993988,-6.400006533,1,0,0,1,7,167,100,1,,,,,,,,
,,,,,,,,,,,,,FF,,,,,,,,0.8978,,,,,,,,,,,,,,,,,,,,,,60fcd70d608b9cd2da4651f7,61036dff1cbe328e09cf2616,2021-07-29_21h12.37.668,Simcolourproject_2stim_asymm_v5,2020.2.10,Win32,60,61025ae37ef11b136ea224fe,,,,,,,,,2787,41.60006089,-80.80000764,1,0,0,response3disk,,4,-7.199988663,4.799993634,1,0,0,rectangle,-7.199988663,4.799993634,1,0,0,-7.199988663,4.799993634,1,0,0,1,8,168,120,1,,,,,,,,
,,,,,,,,,,,,,FF,,,,,,,,1.0473,,,,,,,,,,,,,,,,,,,,,,60fcd70d608b9cd2da4651f7,61036dff1cbe328e09cf2616,2021-07-29_21h12.37.668,Simcolourproject_2stim_asymm_v5,2020.2.10,Win32,60,61025ae37ef11b136ea224fe,,,,,,,,,820,-35.99998909,-86.40000772,1,0,0,response5disk,,3,0.800011456,-3.200006485,1,0,0,rectangle,0.800011456,-3.200006485,1,0,0,0.800011456,-3.200006485,1,0,0,1,9,169,75,1,,,,,,,,
,,,,,,,,,,,,,FF,,,,,,,,1.4128,,,,,,,,,,,,,,,,,,,,,,60fcd70d608b9cd2da4651f7,61036dff1cbe328e09cf2616,2021-07-29_21h12.37.668,Simcolourproject_2stim_asymm_v5,2020.2.10,Win32,60,61025ae37ef11b136ea224fe,,,,,,,,,3104,-91.19998991,-52.80000722,1,0,0,response5disk,,2,-0.799988568,-11.2000066,1,0,0,rectangle,-0.799988568,-11.2000066,1,0,0,-0.799988568,-11.2000066,1,0,0,1,10,170,36,1,,,,,,,,
,,,,,,,,,,,,,FF,,,,,,,,2.1113,,,,,,,,,,,,,,,,,,,,,,60fcd70d608b9cd2da4651f7,61036dff1cbe328e09cf2616,2021-07-29_21h12.37.668,Simcolourproject_2stim_asymm_v5,2020.2.10,Win32,60,61025ae37ef11b136ea224fe,,,,,,,,,1091,88.80001277,-40.80000705,1,0,0,response3disk,,5,4.800011516,3.19999361,1,0,0,rectangle,4.800011516,3.19999361,1,0,0,4.800011516,3.19999361,1,0,0,1,11,171,149,1,,,,,,,,
,,,,,,,,,,,,,FF,,,,,,,,1.0845,,,,,,,,,,,,,,,,,,,,,,60fcd70d608b9cd2da4651f7,61036dff1cbe328e09cf2616,2021-07-29_21h12.37.668,Simcolourproject_2stim_asymm_v5,2020.2.10,Win32,60,61025ae37ef11b136ea224fe,,,,,,,,,137,98.40001291,43.19996979,1,0,0,response1disk,,6,-3.199988604,13.59999377,1,0,0,rectangle,-3.199988604,13.59999377,1,0,0,-3.199988604,13.59999377,1,0,0,1,12,172,111,1,,,,,,,,
,,,,,,,,,,,,,FF,,,,,,,,0.9974,,,,,,,,,,,,,,,,,,,,,,60fcd70d608b9cd2da4651f7,61036dff1cbe328e09cf2616,2021-07-29_21h12.37.668,Simcolourproject_2stim_asymm_v5,2020.2.10,Win32,60,61025ae37ef11b136ea224fe,,,,,,,,,3105,-81.59998977,-43.20000708,1,0,0,response5disk,,2,16.00001168,-6.4373E-06,1,0,0,rectangle,16.00001168,-6.4373E-06,1,0,0,16.00001168,-6.4373E-06,1,0,0,1,13,173,99,1,,,,,,,,
,,,,,,,,,,,,,FF,,,,,,,,0.8311,,,,,,,,,,,,,,,,,,,,,,60fcd70d608b9cd2da4651f7,61036dff1cbe328e09cf2616,2021-07-29_21h12.37.668,Simcolourproject_2stim_asymm_v5,2020.2.10,Win32,60,61025ae37ef11b136ea224fe,,,,,,,,,3047,-89.59998989,27.19996955,1,0,0,response7disk,,1,-3.199988604,-0.800006449,1,0,0,rectangle,-3.199988604,-0.800006449,1,0,0,-3.199988604,-0.800006449,1,0,0,1,14,174,128,1,,,,,,,,
,,,,,,,,,,,,,FF,,,,,,,,1.2467,,,,,,,,,,,,,,,,,,,,,,60fcd70d608b9cd2da4651f7,61036dff1cbe328e09cf2616,2021-07-29_21h12.37.668,Simcolourproject_2stim_asymm_v5,2020.2.10,Win32,60,61025ae37ef11b136ea224fe,,,,,,,,,3792,28.80001187,90.39999491,1,0,0,response1disk,,7,1.600060296,-6.4373E-06,1,0,0,rectangle,1.600060296,-6.4373E-06,1,0,0,1.600060296,-6.4373E-06,1,0,0,1,15,175,142,1,,,,,,,,
,,,,,,,,,,,,,FF,,,,,,,,1.1804,,,,,,,,,,,,,,,,,,,,,,60fcd70d608b9cd2da4651f7,61036dff1cbe328e09cf2616,2021-07-29_21h12.37.668,Simcolourproject_2stim_asymm_v5,2020.2.10,Win32,60,61025ae37ef11b136ea224fe,,,,,,,,,2286,62.40001237,-40.00000703,1,0,0,response3disk,,5,-4.799988627,15.19999379,1,0,0,rectangle,46.40001214,-100.0000079,1,0,0,-4.799988627,3.999993622,1,0,0,1,16,176,89,1,,response3disk_3,TRUE,4,4,"[10,291,303,177,197,24,321,70,226,233,182,7,126,314,21,71,239,98,33,313]",1.3634,rectangle
,,,,,,,,,,,,,FF,,,,,,,,2.3937,,,,,,,,,,,,,,,,,,,,,,60fcd70d608b9cd2da4651f7,61036dff1cbe328e09cf2616,2021-07-29_21h12.37.668,Simcolourproject_2stim_asymm_v5,2020.2.10,Win32,60,61025ae37ef11b136ea224fe,,,,,,,,,3808,-78.3999409,-94.40000784,1,0,0,response5disk,,3,2.40001148,-8.800006568,1,0,0,rectangle,2.40001148,-8.800006568,1,0,0,2.40001148,-8.800006568,1,0,0,1,17,177,143,1,,,,,,,,
,,,,,,,,,,,,,FF,,,,,,,,1.5958,,,,,,,,,,,,,,,,,,,,,,60fcd70d608b9cd2da4651f7,61036dff1cbe328e09cf2616,2021-07-29_21h12.37.668,Simcolourproject_2stim_asymm_v5,2020.2.10,Win32,60,61025ae37ef11b136ea224fe,,,,,,,,,3288,107.200013,35.19996967,1,0,0,response1disk,,6,-1.59998858,-4.800006509,1,0,0,rectangle,-1.59998858,-4.800006509,1,0,0,-1.59998858,-4.800006509,1,0,0,1,18,178,21,1,,,,,,,,
,,,,,,,,,,,,,FF,,,,,,,,0.8312,,,,,,,,,,,,,,,,,,,,,,60fcd70d608b9cd2da4651f7,61036dff1cbe328e09cf2616,2021-07-29_21h12.37.668,Simcolourproject_2stim_asymm_v5,2020.2.10,Win32,60,61025ae37ef11b136ea224fe,,,,,,,,,70,-91.19998991,28.79999399,1,0,0,response7disk,,1,5.600060356,0.799993575,1,0,0,rectangle,5.600060356,0.799993575,1,0,0,5.600060356,0.799993575,1,0,0,1,19,179,34,1,,,,,,,,
,,,,,,,,,,,,,FF,,,,,,,,1.0141,,,,,,,,,,,,,,,,,,,,,,60fcd70d608b9cd2da4651f7,61036dff1cbe328e09cf2616,2021-07-29_21h12.37.668,Simcolourproject_2stim_asymm_v5,2020.2.10,Win32,60,61025ae37ef11b136ea224fe,,,,,,,,,2113,60.00001234,95.99999499,1,0,0,response1disk,,7,6.400011539,0.799993575,1,0,0,rectangle,6.400011539,0.799993575,1,0,0,6.400011539,0.799993575,1,0,0,1,20,180,92,1,,,,,,,,
,,,,,,,,,,,,,FF,,,,,,,,1.4627,,,,,,,,,,,,,,,,,,,,,,60fcd70d608b9cd2da4651f7,61036dff1cbe328e09cf2616,2021-07-29_21h12.37.668,Simcolourproject_2stim_asymm_v5,2020.2.10,Win32,60,61025ae37ef11b136ea224fe,,,,,,,,,3929,96.00001287,27.99999398,1,0,0,response1disk,,6,7.200011551,-10.40000659,1,0,0,rectangle,-99.99999005,-28.00000685,1,0,0,-11.99998873,10.39999372,1,0,0,1,21,181,32,1,,response5disk_3,TRUE,2,2,"[10,291,303,177,197,24,321,70,226,233,182,7,126,314,21,71,239,98,33,313]",1.5489,rectangle
,,,,,,,,,,,,,FF,,,,,,,,0.8646,,,,,,,,,,,,,,,,,,,,,,60fcd70d608b9cd2da4651f7,61036dff1cbe328e09cf2616,2021-07-29_21h12.37.668,Simcolourproject_2stim_asymm_v5,2020.2.10,Win32,60,61025ae37ef11b136ea224fe,,,,,,,,,3374,-81.59998977,34.39999408,1,0,0,response7disk,,1,20.00001174,-8.000006557,1,0,0,rectangle,20.00001174,-8.000006557,1,0,0,20.00001174,-8.000006557,1,0,0,1,22,182,98,1,,,,,,,,
,,,,,,,,,,,,,FF,,,,,,,,0.8645,,,,,,,,,,,,,,,,,,,,,,60fcd70d608b9cd2da4651f7,61036dff1cbe328e09cf2616,2021-07-29_21h12.37.668,Simcolourproject_2stim_asymm_v5,2020.2.10,Win32,60,61025ae37ef11b136ea224fe,,,,,,,,,3714,-68.79998958,-45.60000712,1,0,0,response5disk,,2,-6.399939823,-5.600006521,1,0,0,rectangle,-6.399939823,-5.600006521,1,0,0,-6.399939823,-5.600006521,1,0,0,1,23,183,11,1,,,,,,,,
,,,,,,,,,,,,,FF,,,,,,,,1.5459,,,,,,,,,,,,,,,,,,,,,,60fcd70d608b9cd2da4651f7,61036dff1cbe328e09cf2616,2021-07-29_21h12.37.668,Simcolourproject_2stim_asymm_v5,2020.2.10,Win32,60,61025ae37ef11b136ea224fe,,,,,,,,,934,101.600013,66.39999455,1,0,0,response1disk,,6,-0.799988568,-6.4373E-06,1,0,0,rectangle,-0.799988568,-6.4373E-06,1,0,0,-0.799988568,-6.4373E-06,1,0,0,1,24,184,9,1,,,,,,,,
,,,,,,,,,,,,,FF,,,,,,,,0.9808,,,,,,,,,,,,,,,,,,,,,,60fcd70d608b9cd2da4651f7,61036dff1cbe328e09cf2616,2021-07-29_21h12.37.668,Simcolourproject_2stim_asymm_v5,2020.2.10,Win32,60,61025ae37ef11b136ea224fe,,,,,,,,,1543,28.80001187,-79.20000762,1,0,0,response3disk,,4,-11.99998873,2.399993598,1,0,0,rectangle,-11.99998873,2.399993598,1,0,0,-11.99998873,2.399993598,1,0,0,1,25,185,137,1,,,,,,,,
,,,,,,,,,,,,,FF,,,,,,,,0.8311,,,,,,,,,,,,,,,,,,,,,,60fcd70d608b9cd2da4651f7,61036dff1cbe328e09cf2616,2021-07-29_21h12.37.668,Simcolourproject_2stim_asymm_v5,2020.2.10,Win32,60,61025ae37ef11b136ea224fe,,,,,,,,,4261,74.40001255,-32.80000693,1,0,0,response3disk,,5,16.00001168,3.999993622,1,0,0,rectangle,16.00001168,3.999993622,1,0,0,16.00001168,3.999993622,1,0,0,1,26,186,134,1,,,,,,,,
,,,,,,,,,,,,,FF,,,,,,,,0.8977,,,,,,,,,,,,,,,,,,,,,,60fcd70d608b9cd2da4651f7,61036dff1cbe328e09cf2616,2021-07-29_21h12.37.668,Simcolourproject_2stim_asymm_v5,2020.2.10,Win32,60,61025ae37ef11b136ea224fe,,,,,,,,,2325,77.6000126,55.19996997,1,0,0,response1disk,,6,7.200011551,3.999993622,1,0,0,rectangle,7.200011551,3.999993622,1,0,0,7.200011551,3.999993622,1,0,0,1,27,187,147,1,,,,,,,,
,,,,,,,,,,,,,FF,,,,,,,,1.1304,,,,,,,,,,,,,,,,,,,,,,60fcd70d608b9cd2da4651f7,61036dff1cbe328e09cf2616,2021-07-29_21h12.37.668,Simcolourproject_2stim_asymm_v5,2020.2.10,Win32,60,61025ae37ef11b136ea224fe,,,,,,,,,3980,-99.99999005,-68.80000746,1,0,0,response5disk,,2,16.00001168,4.799993634,1,0,0,rectangle,16.00001168,4.799993634,1,0,0,16.00001168,4.799993634,1,0,0,1,28,188,66,1,,,,,,,,
,,,,,,,,,,,,,FF,,,,,,,,0.8813,,,,,,,,,,,,,,,,,,,,,,60fcd70d608b9cd2da4651f7,61036dff1cbe328e09cf2616,2021-07-29_21h12.37.668,Simcolourproject_2stim_asymm_v5,2020.2.10,Win32,60,61025ae37ef11b136ea224fe,,,,,,,,,4253,-95.99998999,45.59999424,1,0,0,response7disk,,1,-10.39993988,-6.4373E-06,1,0,0,rectangle,-10.39993988,-6.4373E-06,1,0,0,-10.39993988,-6.4373E-06,1,0,0,1,29,189,83,1,,,,,,,,
,,,,,,,,,,,,,FF,,,,,,,,1.1798,,,,,,,,,,,,,,,,,,,,,,60fcd70d608b9cd2da4651f7,61036dff1cbe328e09cf2616,2021-07-29_21h12.37.668,Simcolourproject_2stim_asymm_v5,2020.2.10,Win32,60,61025ae37ef11b136ea224fe,,,,,,,,,3521,-54.39994054,-95.20000786,1,0,0,response5disk,,3,-3.999988616,-8.000006557,1,0,0,rectangle,-3.999988616,-8.000006557,1,0,0,-3.999988616,-8.000006557,1,0,0,1,30,190,152,1,,,,,,,,
,,,,,,,,,,,,,FF,,,,,,,,0.8809,,,,,,,,,,,,,,,,,,,,,,60fcd70d608b9cd2da4651f7,61036dff1cbe328e09cf2616,2021-07-29_21h12.37.668,Simcolourproject_2stim_asymm_v5,2020.2.10,Win32,60,61025ae37ef11b136ea224fe,,,,,,,,,2133,125.6000133,-66.40000743,1,0,0,response3disk,,5,-9.599988699,-1.600006461,1,0,0,rectangle,-9.599988699,-1.600006461,1,0,0,-9.599988699,-1.600006461,1,0,0,1,31,191,2,1,,,,,,,,
,,,,,,,,,,,,,FF,,,,,,,,1.1801,,,,,,,,,,,,,,,,,,,,,,60fcd70d608b9cd2da4651f7,61036dff1cbe328e09cf2616,2021-07-29_21h12.37.668,Simcolourproject_2stim_asymm_v5,2020.2.10,Win32,60,61025ae37ef11b136ea224fe,,,,,,,,,2956,37.60006083,-83.20000768,1,0,0,response3disk,,4,5.600060356,-2.400006473,1,0,0,rectangle,5.600060356,-2.400006473,1,0,0,5.600060356,-2.400006473,1,0,0,1,32,192,41,1,,,,,,,,
,,,,,,,,,,,,,FF,,,,,,,,1.1303,,,,,,,,,,,,,,,,,,,,,,60fcd70d608b9cd2da4651f7,61036dff1cbe328e09cf2616,2021-07-29_21h12.37.668,Simcolourproject_2stim_asymm_v5,2020.2.10,Win32,60,61025ae37ef11b136ea224fe,,,,,,,,,1059,-58.3999406,-88.00000775,1,0,0,response5disk,,3,4.800011516,-13.60000664,1,0,0,rectangle,4.800011516,-13.60000664,1,0,0,4.800011516,-13.60000664,1,0,0,1,33,193,87,1,,,,,,,,
,,,,,,,,,,,,,FF,,,,,,,,0.9479,,,,,,,,,,,,,,,,,,,,,,60fcd70d608b9cd2da4651f7,61036dff1cbe328e09cf2616,2021-07-29_21h12.37.668,Simcolourproject_2stim_asymm_v5,2020.2.10,Win32,60,61025ae37ef11b136ea224fe,,,,,,,,,319,61.60001236,75.9999947,1,0,0,response1disk,,7,-0.799988568,-15.20000666,1,0,0,rectangle,-0.799988568,-15.20000666,1,0,0,-0.799988568,-15.20000666,1,0,0,1,34,194,55,1,,,,,,,,
,,,,,,,,,,,,,FF,,,,,,,,1.4131,,,,,,,,,,,,,,,,,,,,,,60fcd70d608b9cd2da4651f7,61036dff1cbe328e09cf2616,2021-07-29_21h12.37.668,Simcolourproject_2stim_asymm_v5,2020.2.10,Win32,60,61025ae37ef11b136ea224fe,,,,,,,,,1043,24.0000118,-92.80000782,1,0,0,response3disk,,4,1.600060296,-5.600006521,1,0,0,rectangle,1.600060296,-5.600006521,1,0,0,1.600060296,-5.600006521,1,0,0,1,35,195,17,1,,,,,,,,
,,,,,,,,,,,,,FF,,,,,,,,1.28,,,,,,,,,,,,,,,,,,,,,,60fcd70d608b9cd2da4651f7,61036dff1cbe328e09cf2616,2021-07-29_21h12.37.668,Simcolourproject_2stim_asymm_v5,2020.2.10,Win32,60,61025ae37ef11b136ea224fe,,,,,,,,,2974,-47.99998927,-83.20000768,1,0,0,response5disk,,3,-5.599988639,-6.400006533,1,0,0,rectangle,108.0000131,50.39999431,1,0,0,10.4000116,0.799993575,1,0,0,1,36,196,157,1,,response1disk_3,TRUE,6,6,"[10,291,303,177,197,24,321,70,226,233,182,7,126,314,21,71,239,98,33,313]",1.5952,rectangle
,,,,,,,,,,,,,FF,,,,,,,,1.7125,,,,,,,,,,,,,,,,,,,,,,60fcd70d608b9cd2da4651f7,61036dff1cbe328e09cf2616,2021-07-29_21h12.37.668,Simcolourproject_2stim_asymm_v5,2020.2.10,Win32,60,61025ae37ef11b136ea224fe,,,,,,,,,497,87.20001274,46.39999425,1,0,0,response1disk,,6,-3.199988604,1.599993587,1,0,0,rectangle,-3.199988604,1.599993587,1,0,0,-3.199988604,1.599993587,1,0,0,1,37,197,130,1,,,,,,,,
,,,,,,,,,,,,,FF,,,,,,,,1.1634,,,,,,,,,,,,,,,,,,,,,,60fcd70d608b9cd2da4651f7,61036dff1cbe328e09cf2616,2021-07-29_21h12.37.668,Simcolourproject_2stim_asymm_v5,2020.2.10,Win32,60,61025ae37ef11b136ea224fe,,,,,,,,,219,-62.39994066,-84.00000769,1,0,0,response5disk,,3,-19.19998884,3.999993622,1,0,0,rectangle,-19.19998884,3.999993622,1,0,0,-19.19998884,3.999993622,1,0,0,1,38,198,12,1,,,,,,,,
,,,,,,,,,,,,,FF,,,,,,,,1.0638,,,,,,,,,,,,,,,,,,,,,,60fcd70d608b9cd2da4651f7,61036dff1cbe328e09cf2616,2021-07-29_21h12.37.668,Simcolourproject_2stim_asymm_v5,2020.2.10,Win32,60,61025ae37ef11b136ea224fe,,,,,,,,,939,60.00001234,80.79999477,1,0,0,response1disk,,7,19.20001173,0.799993575,1,0,0,rectangle,19.20001173,0.799993575,1,0,0,19.20001173,0.799993575,1,0,0,1,39,199,97,1,,,,,,,,
,,,,,,,,,,,,,FF,,,,,,,,1.0137,,,,,,,,,,,,,,,,,,,,,,60fcd70d608b9cd2da4651f7,61036dff1cbe328e09cf2616,2021-07-29_21h12.37.668,Simcolourproject_2stim_asymm_v5,2020.2.10,Win32,60,61025ae37ef11b136ea224fe,,,,,,,,,2719,-65.59998953,79.99999475,1,0,0,response7disk,,0,-3.199988604,0.799993575,1,0,0,rectangle,-3.199988604,0.799993575,1,0,0,-3.199988604,0.799993575,1,0,0,1,40,200,4,1,,,,,,,,
,,,,,,,,,,,,,FF,,,,,,,,1.0803,,,,,,,,,,,,,,,,,,,,,,60fcd70d608b9cd2da4651f7,61036dff1cbe328e09cf2616,2021-07-29_21h12.37.668,Simcolourproject_2stim_asymm_v5,2020.2.10,Win32,60,61025ae37ef11b136ea224fe,,,,,,,,,436,-112.7999902,39.99999416,1,0,0,response7disk,,1,4.000011504,3.19999361,1,0,0,rectangle,4.000011504,3.19999361,1,0,0,4.000011504,3.19999361,1,0,0,1,41,201,31,1,,,,,,,,
,,,,,,,,,,,,,FF,,,,,,,,1.2672,,,,,,,,,,,,,,,,,,,,,,60fcd70d608b9cd2da4651f7,61036dff1cbe328e09cf2616,2021-07-29_21h12.37.668,Simcolourproject_2stim_asymm_v5,2020.2.10,Win32,60,61025ae37ef11b136ea224fe,,,,,,,,,3250,-117.5999903,43.99999422,1,0,0,response7disk,,1,-6.399939823,13.59999377,1,0,0,rectangle,-6.399939823,13.59999377,1,0,0,-6.399939823,13.59999377,1,0,0,1,42,202,53,1,,,,,,,,
,,,,,,,,,,,,,FF,,,,,,,,0.9308,,,,,,,,,,,,,,,,,,,,,,60fcd70d608b9cd2da4651f7,61036dff1cbe328e09cf2616,2021-07-29_21h12.37.668,Simcolourproject_2stim_asymm_v5,2020.2.10,Win32,60,61025ae37ef11b136ea224fe,,,,,,,,,2092,76.80001259,89.5999949,1,0,0,response1disk,,7,2.40001148,1.599993587,1,0,0,rectangle,2.40001148,1.599993587,1,0,0,2.40001148,1.599993587,1,0,0,1,43,203,46,1,,,,,,,,
,,,,,,,,,,,,,FF,,,,,,,,1.4796,,,,,,,,,,,,,,,,,,,,,,60fcd70d608b9cd2da4651f7,61036dff1cbe328e09cf2616,2021-07-29_21h12.37.668,Simcolourproject_2stim_asymm_v5,2020.2.10,Win32,60,61025ae37ef11b136ea224fe,,,,,,,,,3003,-59.99998945,-86.40000772,1,0,0,response5disk,,3,-8.799988687,-2.400006473,1,0,0,rectangle,-8.799988687,-2.400006473,1,0,0,-8.799988687,-2.400006473,1,0,0,1,44,204,8,1,,,,,,,,
,,,,,,,,,,,,,FF,,,,,,,,1.0305,,,,,,,,,,,,,,,,,,,,,,60fcd70d608b9cd2da4651f7,61036dff1cbe328e09cf2616,2021-07-29_21h12.37.668,Simcolourproject_2stim_asymm_v5,2020.2.10,Win32,60,61025ae37ef11b136ea224fe,,,,,,,,,2979,85.60001272,-47.20000714,1,0,0,response3disk,,5,3.200011492,-1.600006461,1,0,0,rectangle,3.200011492,-1.600006461,1,0,0,3.200011492,-1.600006461,1,0,0,1,45,205,59,1,,,,,,,,
,,,,,,,,,,,,,FF,,,,,,,,0.9477,,,,,,,,,,,,,,,,,,,,,,60fcd70d608b9cd2da4651f7,61036dff1cbe328e09cf2616,2021-07-29_21h12.37.668,Simcolourproject_2stim_asymm_v5,2020.2.10,Win32,60,61025ae37ef11b136ea224fe,,,,,,,,,2915,50.4000122,-80.80000764,1,0,0,response3disk,,4,-1.59998858,-6.4373E-06,1,0,0,rectangle,-1.59998858,-6.4373E-06,1,0,0,-1.59998858,-6.4373E-06,1,0,0,1,46,206,109,1,,,,,,,,
,,,,,,,,,,,,,FF,,,,,,,,0.9185,,,,,,,,,,,,,,,,,,,,,,60fcd70d608b9cd2da4651f7,61036dff1cbe328e09cf2616,2021-07-29_21h12.37.668,Simcolourproject_2stim_asymm_v5,2020.2.10,Win32,60,61025ae37ef11b136ea224fe,,,,,,,,,46,82.40001267,25.59999394,1,0,0,response1disk,,6,12.80001163,7.999993682,1,0,0,rectangle,12.80001163,7.999993682,1,0,0,12.80001163,7.999993682,1,0,0,1,47,207,102,1,,,,,,,,
,,,,,,,,,,,,,FF,,,,,,,,1.712,,,,,,,,,,,,,,,,,,,,,,60fcd70d608b9cd2da4651f7,61036dff1cbe328e09cf2616,2021-07-29_21h12.37.668,Simcolourproject_2stim_asymm_v5,2020.2.10,Win32,60,61025ae37ef11b136ea224fe,,,,,,,,,3835,49.60006101,-100.0000079,1,0,0,response3disk,,4,4.000011504,-2.400006473,1,0,0,rectangle,4.000011504,-2.400006473,1,0,0,4.000011504,-2.400006473,1,0,0,1,48,208,132,1,,,,,,,,
,,,,,,,,,,,,,FF,,,,,,,,0.9312,,,,,,,,,,,,,,,,,,,,,,60fcd70d608b9cd2da4651f7,61036dff1cbe328e09cf2616,2021-07-29_21h12.37.668,Simcolourproject_2stim_asymm_v5,2020.2.10,Win32,60,61025ae37ef11b136ea224fe,,,,,,,,,1476,97.6000129,43.99999422,1,0,0,response1disk,,6,-3.999988616,-8.800006568,1,0,0,rectangle,-3.999988616,-8.800006568,1,0,0,-3.999988616,-8.800006568,1,0,0,1,49,209,56,1,,,,,,,,
,,,,,,,,,,,,,FF,,,,,,,,0.8146,,,,,,,,,,,,,,,,,,,,,,60fcd70d608b9cd2da4651f7,61036dff1cbe328e09cf2616,2021-07-29_21h12.37.668,Simcolourproject_2stim_asymm_v5,2020.2.10,Win32,60,61025ae37ef11b136ea224fe,,,,,,,,,2310,74.40001255,31.19996961,1,0,0,response1disk,,6,10.4000116,-1.600006461,1,0,0,rectangle,10.4000116,-1.600006461,1,0,0,10.4000116,-1.600006461,1,0,0,1,50,210,15,1,,,,,,,,
,,,,,,,,,,,,,FF,,,,,,,,1.014,,,,,,,,,,,,,,,,,,,,,,60fcd70d608b9cd2da4651f7,61036dff1cbe328e09cf2616,2021-07-29_21h12.37.668,Simcolourproject_2stim_asymm_v5,2020.2.10,Win32,60,61025ae37ef11b136ea224fe,,,,,,,,,2366,64.80001241,46.39999425,1,0,0,response1disk,,6,-0.799988568,9.599993706,1,0,0,rectangle,-0.799988568,9.599993706,1,0,0,-0.799988568,9.599993706,1,0,0,1,51,211,136,1,,,,,,,,
,,,,,,,,,,,,,FF,,,,,,,,1.1804,,,,,,,,,,,,,,,,,,,,,,60fcd70d608b9cd2da4651f7,61036dff1cbe328e09cf2616,2021-07-29_21h12.37.668,Simcolourproject_2stim_asymm_v5,2020.2.10,Win32,60,61025ae37ef11b136ea224fe,,,,,,,,,3317,92.80001283,44.79999423,1,0,0,response1disk,,6,-10.39993988,-5.600006521,1,0,0,rectangle,-10.39993988,-5.600006521,1,0,0,-10.39993988,-5.600006521,1,0,0,1,52,212,16,1,,,,,,,,
,,,,,,,,,,,,,FF,,,,,,,,0.9807,,,,,,,,,,,,,,,,,,,,,,60fcd70d608b9cd2da4651f7,61036dff1cbe328e09cf2616,2021-07-29_21h12.37.668,Simcolourproject_2stim_asymm_v5,2020.2.10,Win32,60,61025ae37ef11b136ea224fe,,,,,,,,,2905,80.00001264,18.39999384,1,0,0,response1disk,,6,4.000011504,-1.600006461,1,0,0,rectangle,4.000011504,-1.600006461,1,0,0,4.000011504,-1.600006461,1,0,0,1,53,213,124,1,,,,,,,,
,,,,,,,,,,,,,FF,,,,,,,,1.0806,,,,,,,,,,,,,,,,,,,,,,60fcd70d608b9cd2da4651f7,61036dff1cbe328e09cf2616,2021-07-29_21h12.37.668,Simcolourproject_2stim_asymm_v5,2020.2.10,Win32,60,61025ae37ef11b136ea224fe,,,,,,,,,646,-55.19998938,-96.00000787,1,0,0,response5disk,,3,-12.79998875,-10.40000659,1,0,0,rectangle,-12.79998875,-10.40000659,1,0,0,-12.79998875,-10.40000659,1,0,0,1,54,214,101,1,,,,,,,,
,,,,,,,,,,,,,FF,,,,,,,,1.7168,,,,,,,,,,,,,,,,,,,,,,60fcd70d608b9cd2da4651f7,61036dff1cbe328e09cf2616,2021-07-29_21h12.37.668,Simcolourproject_2stim_asymm_v5,2020.2.10,Win32,60,61025ae37ef11b136ea224fe,,,,,,,,,1589,44.0000121,-105.6000568,1,0,0,response3disk,,4,-5.599988639,11.19999373,1,0,0,rectangle,-5.599988639,11.19999373,1,0,0,-5.599988639,11.19999373,1,0,0,1,55,215,76,1,,,,,,,,
,,,,,,,,,,,,,FF,,,,,,,,1.1802,,,,,,,,,,,,,,,,,,,,,,60fcd70d608b9cd2da4651f7,61036dff1cbe328e09cf2616,2021-07-29_21h12.37.668,Simcolourproject_2stim_asymm_v5,2020.2.10,Win32,60,61025ae37ef11b136ea224fe,,,,,,,,,1257,-36.7999891,-91.2000078,1,0,0,response5disk,,3,-9.599988699,0.799993575,1,0,0,rectangle,-9.599988699,0.799993575,1,0,0,-9.599988699,0.799993575,1,0,0,1,56,216,96,1,,,,,,,,
,,,,,,,,,,,,,FF,,,,,,,,0.9807,,,,,,,,,,,,,,,,,,,,,,60fcd70d608b9cd2da4651f7,61036dff1cbe328e09cf2616,2021-07-29_21h12.37.668,Simcolourproject_2stim_asymm_v5,2020.2.10,Win32,60,61025ae37ef11b136ea224fe,,,,,,,,,2408,96.80001289,-46.40000713,1,0,0,response3disk,,5,2.40001148,16.79999381,1,0,0,rectangle,2.40001148,16.79999381,1,0,0,2.40001148,16.79999381,1,0,0,1,57,217,24,1,,,,,,,,
,,,,,,,,,,,,,FF,,,,,,,,1.0138,,,,,,,,,,,,,,,,,,,,,,60fcd70d608b9cd2da4651f7,61036dff1cbe328e09cf2616,2021-07-29_21h12.37.668,Simcolourproject_2stim_asymm_v5,2020.2.10,Win32,60,61025ae37ef11b136ea224fe,,,,,,,,,2250,-62.39994066,-76.00000757,1,0,0,response5disk,,3,-6.399939823,11.99999374,1,0,0,rectangle,-6.399939823,11.99999374,1,0,0,-6.399939823,11.99999374,1,0,0,1,58,218,47,1,,,,,,,,
,,,,,,,,,,,,,FF,,,,,,,,0.8319,,,,,,,,,,,,,,,,,,,,,,60fcd70d608b9cd2da4651f7,61036dff1cbe328e09cf2616,2021-07-29_21h12.37.668,Simcolourproject_2stim_asymm_v5,2020.2.10,Win32,60,61025ae37ef11b136ea224fe,,,,,,,,,1260,-100.7999901,-35.20000696,1,0,0,response5disk,,2,-5.599988639,4.799993634,1,0,0,rectangle,-5.599988639,4.799993634,1,0,0,-5.599988639,4.799993634,1,0,0,1,59,219,38,1,,,,,,,,
,,,,,,,,,,,,,FF,,,,,,,,1.7621,,,,,,,,,,,,,,,,,,,,,,60fcd70d608b9cd2da4651f7,61036dff1cbe328e09cf2616,2021-07-29_21h12.37.668,Simcolourproject_2stim_asymm_v5,2020.2.10,Win32,60,61025ae37ef11b136ea224fe,,,,,,,,,2380,48.00001216,-76.00000757,1,0,0,response3disk,,4,4.000011504,-3.200006485,1,0,0,rectangle,4.000011504,-3.200006485,1,0,0,4.000011504,-3.200006485,1,0,0,1,60,220,10,1,,,,,,,,
,,,,,,,,,,,,,FF,,,,,,,,0.7813,,,,,,,,,,,,,,,,,,,,,,60fcd70d608b9cd2da4651f7,61036dff1cbe328e09cf2616,2021-07-29_21h12.37.668,Simcolourproject_2stim_asymm_v5,2020.2.10,Win32,60,61025ae37ef11b136ea224fe,,,,,,,,,695,-82.39994096,-29.60000688,1,0,0,response5disk,,2,-6.399939823,-1.600006461,1,0,0,rectangle,-6.399939823,-1.600006461,1,0,0,-6.399939823,-1.600006461,1,0,0,1,61,221,94,1,,,,,,,,
,,,,,,,,,,,,,FF,,,,,,,,0.8647,,,,,,,,,,,,,,,,,,,,,,60fcd70d608b9cd2da4651f7,61036dff1cbe328e09cf2616,2021-07-29_21h12.37.668,Simcolourproject_2stim_asymm_v5,2020.2.10,Win32,60,61025ae37ef11b136ea224fe,,,,,,,,,1015,107.200013,67.19997015,1,0,0,response1disk,,6,-0.799988568,0.799993575,1,0,0,rectangle,-0.799988568,0.799993575,1,0,0,-0.799988568,0.799993575,1,0,0,1,62,222,27,1,,,,,,,,
,,,,,,,,,,,,,FF,,,,,,,,1.5624,,,,,,,,,,,,,,,,,,,,,,60fcd70d608b9cd2da4651f7,61036dff1cbe328e09cf2616,2021-07-29_21h12.37.668,Simcolourproject_2stim_asymm_v5,2020.2.10,Win32,60,61025ae37ef11b136ea224fe,,,,,,,,,195,48.00001216,-84.00000769,1,0,0,response3disk,,4,4.800011516,-7.200006545,1,0,0,rectangle,4.800011516,-7.200006545,1,0,0,4.800011516,-7.200006545,1,0,0,1,63,223,60,1,,,,,,,,
,,,,,,,,,,,,,FF,,,,,,,,0.9807,,,,,,,,,,,,,,,,,,,,,,60fcd70d608b9cd2da4651f7,61036dff1cbe328e09cf2616,2021-07-29_21h12.37.668,Simcolourproject_2stim_asymm_v5,2020.2.10,Win32,60,61025ae37ef11b136ea224fe,,,,,,,,,1012,27.20001185,-73.60000753,1,0,0,response3disk,,4,-23.99998891,7.999993682,1,0,0,rectangle,-23.99998891,7.999993682,1,0,0,-23.99998891,7.999993682,1,0,0,1,64,224,25,1,,,,,,,,
,,,,,,,,,,,,,FF,,,,,,,,1.1138,,,,,,,,,,,,,,,,,,,,,,60fcd70d608b9cd2da4651f7,61036dff1cbe328e09cf2616,2021-07-29_21h12.37.668,Simcolourproject_2stim_asymm_v5,2020.2.10,Win32,60,61025ae37ef11b136ea224fe,,,,,,,,,2394,106.400013,-54.40000725,1,0,0,response3disk,,5,-3.199988604,-1.600006461,1,0,0,rectangle,90.40001279,-54.40000725,1,0,0,1.600060296,0.799993575,1,0,0,1,65,225,150,1,,response3disk_3,TRUE,5,5,"[10,291,303,177,197,24,321,70,226,233,182,7,126,314,21,71,239,98,33,313]",1.6286,rectangle
,,,,,,,,,,,,,FF,,,,,,,,1.0805,,,,,,,,,,,,,,,,,,,,,,60fcd70d608b9cd2da4651f7,61036dff1cbe328e09cf2616,2021-07-29_21h12.37.668,Simcolourproject_2stim_asymm_v5,2020.2.10,Win32,60,61025ae37ef11b136ea224fe,,,,,,,,,418,28.80001187,77.59999472,1,0,0,response1disk,,7,0.800011456,-4.800006509,1,0,0,rectangle,0.800011456,-4.800006509,1,0,0,0.800011456,-4.800006509,1,0,0,1,66,226,146,1,,,,,,,,
,,,,,,,,,,,,,FF,,,,,,,,0.8144,,,,,,,,,,,,,,,,,,,,,,60fcd70d608b9cd2da4651f7,61036dff1cbe328e09cf2616,2021-07-29_21h12.37.668,Simcolourproject_2stim_asymm_v5,2020.2.10,Win32,60,61025ae37ef11b136ea224fe,,,,,,,,,4350,-58.3999406,90.39999491,1,0,0,response7disk,,0,-2.399939764,-7.200006545,1,0,0,rectangle,-2.399939764,-7.200006545,1,0,0,-2.399939764,-7.200006545,1,0,0,1,67,227,79,1,,,,,,,,
,,,,,,,,,,,,,FF,,,,,,,,1.579,,,,,,,,,,,,,,,,,,,,,,60fcd70d608b9cd2da4651f7,61036dff1cbe328e09cf2616,2021-07-29_21h12.37.668,Simcolourproject_2stim_asymm_v5,2020.2.10,Win32,60,61025ae37ef11b136ea224fe,,,,,,,,,1330,89.60001278,-52.00000721,1,0,0,response3disk,,5,-2.399939764,-1.600006461,1,0,0,rectangle,-2.399939764,-1.600006461,1,0,0,-2.399939764,-1.600006461,1,0,0,1,68,228,42,1,,,,,,,,
,,,,,,,,,,,,,FF,,,,,,,,0.9145,,,,,,,,,,,,,,,,,,,,,,60fcd70d608b9cd2da4651f7,61036dff1cbe328e09cf2616,2021-07-29_21h12.37.668,Simcolourproject_2stim_asymm_v5,2020.2.10,Win32,60,61025ae37ef11b136ea224fe,,,,,,,,,3659,85.60001272,-54.40000725,1,0,0,response3disk,,5,8.800011575,3.19999361,1,0,0,rectangle,8.800011575,3.19999361,1,0,0,8.800011575,3.19999361,1,0,0,1,69,229,127,1,,,,,,,,
,,,,,,,,,,,,,FF,,,,,,,,1.2632,,,,,,,,,,,,,,,,,,,,,,60fcd70d608b9cd2da4651f7,61036dff1cbe328e09cf2616,2021-07-29_21h12.37.668,Simcolourproject_2stim_asymm_v5,2020.2.10,Win32,60,61025ae37ef11b136ea224fe,,,,,,,,,1075,-39.19998914,-92.00000781,1,0,0,response5disk,,3,0.800011456,-2.400006473,1,0,0,rectangle,0.800011456,-2.400006473,1,0,0,0.800011456,-2.400006473,1,0,0,1,70,230,122,1,,,,,,,,
,,,,,,,,,,,,,FF,,,,,,,,1.1634,,,,,,,,,,,,,,,,,,,,,,60fcd70d608b9cd2da4651f7,61036dff1cbe328e09cf2616,2021-07-29_21h12.37.668,Simcolourproject_2stim_asymm_v5,2020.2.10,Win32,60,61025ae37ef11b136ea224fe,,,,,,,,,3594,48.00001216,-109.6000569,1,0,0,response3disk,,4,-8.799988687,15.19999379,1,0,0,rectangle,-8.799988687,15.19999379,1,0,0,-8.799988687,15.19999379,1,0,0,1,71,231,113,1,,,,,,,,
,,,,,,,,,,,,,FF,,,,,,,,0.9977,,,,,,,,,,,,,,,,,,,,,,60fcd70d608b9cd2da4651f7,61036dff1cbe328e09cf2616,2021-07-29_21h12.37.668,Simcolourproject_2stim_asymm_v5,2020.2.10,Win32,60,61025ae37ef11b136ea224fe,,,,,,,,,3342,-100.7999901,-40.80000705,1,0,0,response5disk,,2,4.800011516,4.799993634,1,0,0,rectangle,-61.59998947,117.5999953,1,0,0,1.600060296,3.999993622,1,0,0,1,72,232,104,1,,response7disk_3,TRUE,0,0,"[10,291,303,177,197,24,321,70,226,233,182,7,126,314,21,71,239,98,33,313]",1.4293,rectangle
,,,,,,,,,,,,,FF,,,,,,,,0.8811,,,,,,,,,,,,,,,,,,,,,,60fcd70d608b9cd2da4651f7,61036dff1cbe328e09cf2616,2021-07-29_21h12.37.668,Simcolourproject_2stim_asymm_v5,2020.2.10,Win32,60,61025ae37ef11b136ea224fe,,,,,,,,,3195,-45.59998924,132.7999955,1,0,0,response7disk,,0,4.000011504,7.999993682,1,0,0,rectangle,4.000011504,7.999993682,1,0,0,4.000011504,7.999993682,1,0,0,1,73,233,78,1,,,,,,,,
,,,,,,,,,,,,,FF,,,,,,,,1.1302,,,,,,,,,,,,,,,,,,,,,,60fcd70d608b9cd2da4651f7,61036dff1cbe328e09cf2616,2021-07-29_21h12.37.668,Simcolourproject_2stim_asymm_v5,2020.2.10,Win32,60,61025ae37ef11b136ea224fe,,,,,,,,,4122,-109.5999902,36.79999411,1,0,0,response7disk,,1,1.600060296,-8.000006557,1,0,0,rectangle,1.600060296,-8.000006557,1,0,0,1.600060296,-8.000006557,1,0,0,1,74,234,14,1,,,,,,,,
,,,,,,,,,,,,,FF,,,,,,,,1.5958,,,,,,,,,,,,,,,,,,,,,,60fcd70d608b9cd2da4651f7,61036dff1cbe328e09cf2616,2021-07-29_21h12.37.668,Simcolourproject_2stim_asymm_v5,2020.2.10,Win32,60,61025ae37ef11b136ea224fe,,,,,,,,,1409,80.80001265,19.99999386,1,0,0,response1disk,,6,17.60006053,-8.800006568,1,0,0,rectangle,17.60006053,-8.800006568,1,0,0,17.60006053,-8.800006568,1,0,0,1,75,235,30,1,,,,,,,,
,,,,,,,,,,,,,FF,,,,,,,,1.3629,,,,,,,,,,,,,,,,,,,,,,60fcd70d608b9cd2da4651f7,61036dff1cbe328e09cf2616,2021-07-29_21h12.37.668,Simcolourproject_2stim_asymm_v5,2020.2.10,Win32,60,61025ae37ef11b136ea224fe,,,,,,,,,1722,94.40001285,-56.80000728,1,0,0,response3disk,,5,1.600060296,4.799993634,1,0,0,rectangle,1.600060296,4.799993634,1,0,0,1.600060296,4.799993634,1,0,0,1,76,236,45,1,,,,,,,,
,,,,,,,,,,,,,FF,,,,,,,,1.147,,,,,,,,,,,,,,,,,,,,,,60fcd70d608b9cd2da4651f7,61036dff1cbe328e09cf2616,2021-07-29_21h12.37.668,Simcolourproject_2stim_asymm_v5,2020.2.10,Win32,60,61025ae37ef11b136ea224fe,,,,,,,,,2715,-102.3999413,-42.40000707,1,0,0,response5disk,,2,-3.199988604,0.799993575,1,0,0,rectangle,-3.199988604,0.799993575,1,0,0,-3.199988604,0.799993575,1,0,0,1,77,237,62,1,,,,,,,,
,,,,,,,,,,,,,FF,,,,,,,,1.1469,,,,,,,,,,,,,,,,,,,,,,60fcd70d608b9cd2da4651f7,61036dff1cbe328e09cf2616,2021-07-29_21h12.37.668,Simcolourproject_2stim_asymm_v5,2020.2.10,Win32,60,61025ae37ef11b136ea224fe,,,,,,,,,641,-95.99998999,-44.8000071,1,0,0,response5disk,,2,-2.399939764,-3.200006485,1,0,0,rectangle,-27.19998896,70.39999461,1,0,0,2.40001148,-8.800006568,1,0,0,1,78,238,88,1,,response7disk_3,TRUE,0,0,"[10,291,303,177,197,24,321,70,226,233,182,7,126,314,21,71,239,98,33,313]",1.2629,rectangle
,,,,,,,,,,,,,FF,,,,,,,,1.2136,,,,,,,,,,,,,,,,,,,,,,60fcd70d608b9cd2da4651f7,61036dff1cbe328e09cf2616,2021-07-29_21h12.37.668,Simcolourproject_2stim_asymm_v5,2020.2.10,Win32,60,61025ae37ef11b136ea224fe,,,,,,,,,2215,34.40001196,-73.60000753,1,0,0,response3disk,,4,1.14441E-05,-7.200006545,1,0,0,rectangle,1.14441E-05,-7.200006545,1,0,0,1.14441E-05,-7.200006545,1,0,0,1,79,239,141,1,,,,,,,,
,,,,,,,,,,,,,FF,,,,,,,,0.9639,,,,,,,,,,,,,,,,,,,,,,60fcd70d608b9cd2da4651f7,61036dff1cbe328e09cf2616,2021-07-29_21h12.37.668,Simcolourproject_2stim_asymm_v5,2020.2.10,Win32,60,61025ae37ef11b136ea224fe,,,,,,,,,2759,36.80001199,-77.60000759,1,0,0,response3disk,,4,1.600060296,-8.800006568,1,0,0,rectangle,1.600060296,-8.800006568,1,0,0,1.600060296,-8.800006568,1,0,0,1,80,240,57,1,,,,,,,,
,,,,,,,,,,,,,FF,,,,,,,,1.1969,,,,,,,,,,,,,,,,,,,,,,60fcd70d608b9cd2da4651f7,61036dff1cbe328e09cf2616,2021-07-29_21h12.37.668,Simcolourproject_2stim_asymm_v5,2020.2.10,Win32,60,61025ae37ef11b136ea224fe,,,,,,,,,4136,75.20001256,41.59999418,1,0,0,response1disk,,6,4.800011516,14.39999378,1,0,0,rectangle,4.800011516,14.39999378,1,0,0,4.800011516,14.39999378,1,0,0,1,81,241,86,1,,,,,,,,
,,,,,,,,,,,,,FF,,,,,,,,0.7982,,,,,,,,,,,,,,,,,,,,,,60fcd70d608b9cd2da4651f7,61036dff1cbe328e09cf2616,2021-07-29_21h12.37.668,Simcolourproject_2stim_asymm_v5,2020.2.10,Win32,60,61025ae37ef11b136ea224fe,,,,,,,,,3045,-50.39994048,78.39999473,1,0,0,response7disk,,0,-7.199988663,-6.4373E-06,1,0,0,rectangle,-7.199988663,-6.4373E-06,1,0,0,-7.199988663,-6.4373E-06,1,0,0,1,82,242,74,1,,,,,,,,
