key_resp.keys,key_resp.rt,key_resp_14.keys,key_resp_14.rt,key_resp_15.keys,key_resp_15.rt,key_resp_17.keys,key_resp_17.rt,key_resp_9.keys,key_resp_9.rt,key_resp_10.keys,key_resp_10.rt,practice_comparison,Ecc,mouse_5.x,mouse_5.y,mouse_5.leftButton,mouse_5.midButton,mouse_5.rightButton,mouse_5.clicked_name,pracsimilarity,response_time,mouse_10.x,mouse_10.y,mouse_10.leftButton,mouse_10.midButton,mouse_10.rightButton,mouse_10.clicked_name,mouse_7.x,mouse_7.y,mouse_7.leftButton,mouse_7.midButton,mouse_7.rightButton,mouse_6.x,mouse_6.y,mouse_6.leftButton,mouse_6.midButton,mouse_6.rightButton,duringprac.thisRepN,duringprac.thisTrialN,duringprac.thisN,duringprac.thisIndex,duringprac.ran,participant,session,date,expName,psychopyVersion,OS,frameRate,study_id,mouse_7.clicked_name,catchpracsimilarity,catch_response_time,catchnumberprac,catchtrialorderprac,mouse_6.clicked_name,key_resp_22.keys,key_resp_22.rt,realcomparison,mouse.x,mouse.y,mouse.leftButton,mouse.midButton,mouse.rightButton,mouse.clicked_name,Colour2,similarity,mouse_2.x,mouse_2.y,mouse_2.leftButton,mouse_2.midButton,mouse_2.rightButton,mouse_2.clicked_name,mouse_3.x,mouse_3.y,mouse_3.leftButton,mouse_3.midButton,mouse_3.rightButton,mouse_11.x,mouse_11.y,mouse_11.leftButton,mouse_11.midButton,mouse_11.rightButton,trials_2.thisRepN,trials_2.thisTrialN,trials_2.thisN,trials_2.thisIndex,trials_2.ran,Colour1,mouse_3.clicked_name,catchornah,catchsimilarity,catchnumber,catchtrialorder,catchRT,mouse_11.clicked_name
space,1.6689,space,17.9956,space,32.905,space,26.5454,space,3.2695,space,5.2985,24,PF,38.12890625,-81.0234375,1,0,0,response3disk_5,4,20.3359,4.80078125,1.3203125,1,0,0,rectangle_8,4.80078125,1.3203125,1,0,0,4.80078125,1.3203125,1,0,0,0,0,0,6,1,60fcd314736594904a0ad216,61036bf57baab5273ba77cb8,2021-07-29_23h04.02.963,Simcolourproject_2stim_asymm_v5,2020.2.10,MacIntel,60,61025ae37ef11b136ea224fe,,,,,,,,,,,,,,,,,,,,,,,,,,,,,,,,,,,,,,,,,,,,,,
,,,,,,,,,,,,121,PF,48.90234375,83.796875,1,0,0,response1disk_5,7,3.4343,-1.06640625,-4.8984375,1,0,0,rectangle_8,-61.7734375,-32.62890625,1,0,0,-15.8046875,-2.1875,1,0,0,0,1,1,2,1,60fcd314736594904a0ad216,61036bf57baab5273ba77cb8,2021-07-29_23h04.02.963,Simcolourproject_2stim_asymm_v5,2020.2.10,MacIntel,60,61025ae37ef11b136ea224fe,response5disk_7,2,2.7356,2,"[2,5]",rectangle_4,,,,,,,,,,,,,,,,,,,,,,,,,,,,,,,,,,,,,,,,
,,,,,,,,,,,,88,PF,-38.0859375,-66.265625,1,0,0,response5disk_5,3,3.0817,0.2578125,-1.25390625,1,0,0,rectangle_8,0.2578125,-1.25390625,1,0,0,0.2578125,-1.25390625,1,0,0,0,2,2,1,1,60fcd314736594904a0ad216,61036bf57baab5273ba77cb8,2021-07-29_23h04.02.963,Simcolourproject_2stim_asymm_v5,2020.2.10,MacIntel,60,61025ae37ef11b136ea224fe,,,,,,,,,,,,,,,,,,,,,,,,,,,,,,,,,,,,,,,,,,,,,,
,,,,,,,,,,,,59,PF,29.40234375,-79.2421875,1,0,0,response3disk_5,4,3.1015,-6.9375,-5.0390625,1,0,0,rectangle_8,-6.9375,-5.0390625,1,0,0,-6.9375,-5.0390625,1,0,0,0,3,3,4,1,60fcd314736594904a0ad216,61036bf57baab5273ba77cb8,2021-07-29_23h04.02.963,Simcolourproject_2stim_asymm_v5,2020.2.10,MacIntel,60,61025ae37ef11b136ea224fe,,,,,,,,,,,,,,,,,,,,,,,,,,,,,,,,,,,,,,,,,,,,,,
,,,,,,,,,,,,157,FF,29.90234375,-73.09375,1,0,0,response3disk_5,4,1.948,13.1484375,-4.33203125,1,0,0,rectangle_8,-76.1640625,-48.32421875,1,0,0,-14.16015625,-6.26171875,1,0,0,0,4,4,3,1,60fcd314736594904a0ad216,61036bf57baab5273ba77cb8,2021-07-29_23h04.02.963,Simcolourproject_2stim_asymm_v5,2020.2.10,MacIntel,60,61025ae37ef11b136ea224fe,response5disk_7,2,2.4344,2,"[2,5]",rectangle_4,,,,,,,,,,,,,,,,,,,,,,,,,,,,,,,,,,,,,,,,
,,,,,,,,,,,,144,FF,30.4296875,57.6328125,1,0,0,response1disk_5,7,2.4643,14.34765625,7.15234375,1,0,0,rectangle_8,14.34765625,7.15234375,1,0,0,14.34765625,7.15234375,1,0,0,0,5,5,0,1,60fcd314736594904a0ad216,61036bf57baab5273ba77cb8,2021-07-29_23h04.02.963,Simcolourproject_2stim_asymm_v5,2020.2.10,MacIntel,60,61025ae37ef11b136ea224fe,,,,,,,,,,,,,,,,,,,,,,,,,,,,,,,,,,,,,,,,,,,,,,
,,,,,,,,,,,,144,FF,25.2109375,101.625,1,0,0,response1disk_5,7,1.4838,-2.890625,-0.1015625,1,0,0,rectangle_8,-2.890625,-0.1015625,1,0,0,-2.890625,-0.1015625,1,0,0,0,6,6,5,1,60fcd314736594904a0ad216,61036bf57baab5273ba77cb8,2021-07-29_23h04.02.963,Simcolourproject_2stim_asymm_v5,2020.2.10,MacIntel,60,61025ae37ef11b136ea224fe,,,,,,,,,,,,,,,,,,,,,,,,,,,,,,,,,,,,,,,,,,,,,,
,,,,,,,,,,,,,FF,,,,,,,,5.1341,,,,,,,,,,,,,,,,,,,,,,60fcd314736594904a0ad216,61036bf57baab5273ba77cb8,2021-07-29_23h04.02.963,Simcolourproject_2stim_asymm_v5,2020.2.10,MacIntel,60,61025ae37ef11b136ea224fe,,,,,,,space,3.1086,1509,75.98046875,33.86328125,1,0,0,response1disk,,6,12.84765625,8.19140625,1,0,0,rectangle,12.84765625,8.19140625,1,0,0,12.84765625,8.19140625,1,0,0,0,0,0,72,1,,,,,,,,
,,,,,,,,,,,,,FF,,,,,,,,1.2341,,,,,,,,,,,,,,,,,,,,,,60fcd314736594904a0ad216,61036bf57baab5273ba77cb8,2021-07-29_23h04.02.963,Simcolourproject_2stim_asymm_v5,2020.2.10,MacIntel,60,61025ae37ef11b136ea224fe,,,,,,,,,2964,53.34375,101.46875,1,0,0,response1disk,,7,20.98046875,-8.44140625,1,0,0,rectangle,20.98046875,-8.44140625,1,0,0,20.98046875,-8.44140625,1,0,0,0,1,1,87,1,,,,,,,,
,,,,,,,,,,,,,FF,,,,,,,,2.0998,,,,,,,,,,,,,,,,,,,,,,60fcd314736594904a0ad216,61036bf57baab5273ba77cb8,2021-07-29_23h04.02.963,Simcolourproject_2stim_asymm_v5,2020.2.10,MacIntel,60,61025ae37ef11b136ea224fe,,,,,,,,,218,100.1210938,-47.015625,1,0,0,response3disk,,5,2.9140625,-9.71484375,1,0,0,rectangle,2.9140625,-9.71484375,1,0,0,2.9140625,-9.71484375,1,0,0,0,2,2,13,1,,,,,,,,
,,,,,,,,,,,,,FF,,,,,,,,1.5333,,,,,,,,,,,,,,,,,,,,,,60fcd314736594904a0ad216,61036bf57baab5273ba77cb8,2021-07-29_23h04.02.963,Simcolourproject_2stim_asymm_v5,2020.2.10,MacIntel,60,61025ae37ef11b136ea224fe,,,,,,,,,4367,-56.69921875,88.921875,1,0,0,response7disk,,0,-4.94921875,6.64453125,1,0,0,rectangle,-4.94921875,6.64453125,1,0,0,-4.94921875,6.64453125,1,0,0,0,3,3,88,1,,,,,,,,
,,,,,,,,,,,,,FF,,,,,,,,1.2176,,,,,,,,,,,,,,,,,,,,,,60fcd314736594904a0ad216,61036bf57baab5273ba77cb8,2021-07-29_23h04.02.963,Simcolourproject_2stim_asymm_v5,2020.2.10,MacIntel,60,61025ae37ef11b136ea224fe,,,,,,,,,343,-50.7421875,103.6914063,1,0,0,response7disk,,0,-11.9921875,8.9453125,1,0,0,rectangle,-11.9921875,8.9453125,1,0,0,-11.9921875,8.9453125,1,0,0,0,4,4,155,1,,,,,,,,
,,,,,,,,,,,,,FF,,,,,,,,2.6169,,,,,,,,,,,,,,,,,,,,,,60fcd314736594904a0ad216,61036bf57baab5273ba77cb8,2021-07-29_23h04.02.963,Simcolourproject_2stim_asymm_v5,2020.2.10,MacIntel,60,61025ae37ef11b136ea224fe,,,,,,,,,1427,-35.11328125,-59.87109375,1,0,0,response5disk,,3,0.94921875,-7.296875,1,0,0,rectangle,0.94921875,-7.296875,1,0,0,0.94921875,-7.296875,1,0,0,0,5,5,98,1,,,,,,,,
,,,,,,,,,,,,,FF,,,,,,,,1.0159,,,,,,,,,,,,,,,,,,,,,,60fcd314736594904a0ad216,61036bf57baab5273ba77cb8,2021-07-29_23h04.02.963,Simcolourproject_2stim_asymm_v5,2020.2.10,MacIntel,60,61025ae37ef11b136ea224fe,,,,,,,,,1403,30.96484375,63.734375,1,0,0,response1disk,,7,11.97265625,3.39453125,1,0,0,rectangle,-27.671875,-98.09765625,1,0,0,3.65234375,9.12109375,1,0,0,0,6,6,124,1,,response5disk_3,TRUE,3,3,"[194,24,202,153,39,32,43,200,7,94,109,119,320,7,152,135,184,73,166,21]",2.4154,rectangle
,,,,,,,,,,,,,FF,,,,,,,,1.4973,,,,,,,,,,,,,,,,,,,,,,60fcd314736594904a0ad216,61036bf57baab5273ba77cb8,2021-07-29_23h04.02.963,Simcolourproject_2stim_asymm_v5,2020.2.10,MacIntel,60,61025ae37ef11b136ea224fe,,,,,,,,,422,113.296875,57.4453125,1,0,0,response1disk,,6,19.71484375,-1.73828125,1,0,0,rectangle,19.71484375,-1.73828125,1,0,0,19.71484375,-1.73828125,1,0,0,0,7,7,131,1,,,,,,,,
,,,,,,,,,,,,,FF,,,,,,,,2.0176,,,,,,,,,,,,,,,,,,,,,,60fcd314736594904a0ad216,61036bf57baab5273ba77cb8,2021-07-29_23h04.02.963,Simcolourproject_2stim_asymm_v5,2020.2.10,MacIntel,60,61025ae37ef11b136ea224fe,,,,,,,,,4236,-93.19921875,37.60546875,1,0,0,response7disk,,1,-1.453125,-4.62109375,1,0,0,rectangle,-1.453125,-4.62109375,1,0,0,-1.453125,-4.62109375,1,0,0,0,8,8,7,1,,,,,,,,
,,,,,,,,,,,,,FF,,,,,,,,1.5356,,,,,,,,,,,,,,,,,,,,,,60fcd314736594904a0ad216,61036bf57baab5273ba77cb8,2021-07-29_23h04.02.963,Simcolourproject_2stim_asymm_v5,2020.2.10,MacIntel,60,61025ae37ef11b136ea224fe,,,,,,,,,1357,94.0859375,46.48828125,1,0,0,response1disk,,6,-8.24609375,5.8125,1,0,0,rectangle,-8.24609375,5.8125,1,0,0,-8.24609375,5.8125,1,0,0,0,9,9,56,1,,,,,,,,
,,,,,,,,,,,,,FF,,,,,,,,1.536,,,,,,,,,,,,,,,,,,,,,,60fcd314736594904a0ad216,61036bf57baab5273ba77cb8,2021-07-29_23h04.02.963,Simcolourproject_2stim_asymm_v5,2020.2.10,MacIntel,60,61025ae37ef11b136ea224fe,,,,,,,,,3713,-63.6875,-37.01953125,1,0,0,response5disk,,2,-19.35546875,-8.99609375,1,0,0,rectangle,-19.35546875,-8.99609375,1,0,0,-19.35546875,-8.99609375,1,0,0,0,10,10,22,1,,,,,,,,
,,,,,,,,,,,,,FF,,,,,,,,1.3978,,,,,,,,,,,,,,,,,,,,,,60fcd314736594904a0ad216,61036bf57baab5273ba77cb8,2021-07-29_23h04.02.963,Simcolourproject_2stim_asymm_v5,2020.2.10,MacIntel,60,61025ae37ef11b136ea224fe,,,,,,,,,3299,31.7734375,-55.61328125,1,0,0,response3disk,,4,6.44921875,0.1953125,1,0,0,rectangle,6.44921875,0.1953125,1,0,0,6.44921875,0.1953125,1,0,0,0,11,11,127,1,,,,,,,,
,,,,,,,,,,,,,FF,,,,,,,,1.353,,,,,,,,,,,,,,,,,,,,,,60fcd314736594904a0ad216,61036bf57baab5273ba77cb8,2021-07-29_23h04.02.963,Simcolourproject_2stim_asymm_v5,2020.2.10,MacIntel,60,61025ae37ef11b136ea224fe,,,,,,,,,253,-75.609375,36.7890625,1,0,0,response7disk,,1,6.50390625,11.0625,1,0,0,rectangle,6.50390625,11.0625,1,0,0,6.50390625,11.0625,1,0,0,0,12,12,101,1,,,,,,,,
,,,,,,,,,,,,,FF,,,,,,,,1.3991,,,,,,,,,,,,,,,,,,,,,,60fcd314736594904a0ad216,61036bf57baab5273ba77cb8,2021-07-29_23h04.02.963,Simcolourproject_2stim_asymm_v5,2020.2.10,MacIntel,60,61025ae37ef11b136ea224fe,,,,,,,,,1791,60.6484375,-74.44140625,1,0,0,response3disk,,4,13.08203125,-17.1796875,1,0,0,rectangle,13.08203125,-17.1796875,1,0,0,13.08203125,-17.1796875,1,0,0,0,13,13,100,1,,,,,,,,
,,,,,,,,,,,,,FF,,,,,,,,1.0155,,,,,,,,,,,,,,,,,,,,,,60fcd314736594904a0ad216,61036bf57baab5273ba77cb8,2021-07-29_23h04.02.963,Simcolourproject_2stim_asymm_v5,2020.2.10,MacIntel,60,61025ae37ef11b136ea224fe,,,,,,,,,3083,44.109375,70.8515625,1,0,0,response1disk,,7,11.8671875,-6.4375,1,0,0,rectangle,11.8671875,-6.4375,1,0,0,11.8671875,-6.4375,1,0,0,0,14,14,97,1,,,,,,,,
,,,,,,,,,,,,,FF,,,,,,,,0.9343,,,,,,,,,,,,,,,,,,,,,,60fcd314736594904a0ad216,61036bf57baab5273ba77cb8,2021-07-29_23h04.02.963,Simcolourproject_2stim_asymm_v5,2020.2.10,MacIntel,60,61025ae37ef11b136ea224fe,,,,,,,,,167,-35.765625,69.2421875,1,0,0,response7disk,,0,8.83984375,12.89453125,1,0,0,rectangle,8.83984375,12.89453125,1,0,0,8.83984375,12.89453125,1,0,0,0,15,15,102,1,,,,,,,,
,,,,,,,,,,,,,FF,,,,,,,,1.0004,,,,,,,,,,,,,,,,,,,,,,60fcd314736594904a0ad216,61036bf57baab5273ba77cb8,2021-07-29_23h04.02.963,Simcolourproject_2stim_asymm_v5,2020.2.10,MacIntel,60,61025ae37ef11b136ea224fe,,,,,,,,,4160,25.74609375,93.109375,1,0,0,response1disk,,7,-2.41796875,-10.81640625,1,0,0,rectangle,-2.41796875,-10.81640625,1,0,0,-2.41796875,-10.81640625,1,0,0,0,16,16,20,1,,,,,,,,
,,,,,,,,,,,,,FF,,,,,,,,0.9002,,,,,,,,,,,,,,,,,,,,,,60fcd314736594904a0ad216,61036bf57baab5273ba77cb8,2021-07-29_23h04.02.963,Simcolourproject_2stim_asymm_v5,2020.2.10,MacIntel,60,61025ae37ef11b136ea224fe,,,,,,,,,699,-96.03125,44.82421875,1,0,0,response7disk,,1,1.06640625,12.140625,1,0,0,rectangle,1.06640625,12.140625,1,0,0,1.06640625,12.140625,1,0,0,0,17,17,152,1,,,,,,,,
,,,,,,,,,,,,,FF,,,,,,,,1.2659,,,,,,,,,,,,,,,,,,,,,,60fcd314736594904a0ad216,61036bf57baab5273ba77cb8,2021-07-29_23h04.02.963,Simcolourproject_2stim_asymm_v5,2020.2.10,MacIntel,60,61025ae37ef11b136ea224fe,,,,,,,,,1507,92.96484375,21.91015625,1,0,0,response1disk,,6,-8.38671875,6.24609375,1,0,0,rectangle,-8.38671875,6.24609375,1,0,0,-8.38671875,6.24609375,1,0,0,0,18,18,140,1,,,,,,,,
,,,,,,,,,,,,,FF,,,,,,,,1.4011,,,,,,,,,,,,,,,,,,,,,,60fcd314736594904a0ad216,61036bf57baab5273ba77cb8,2021-07-29_23h04.02.963,Simcolourproject_2stim_asymm_v5,2020.2.10,MacIntel,60,61025ae37ef11b136ea224fe,,,,,,,,,2016,-48.0546875,60.57421875,1,0,0,response7disk,,0,-13.67578125,8.2265625,1,0,0,rectangle,-13.67578125,8.2265625,1,0,0,-13.67578125,8.2265625,1,0,0,0,19,19,28,1,,,,,,,,
,,,,,,,,,,,,,FF,,,,,,,,0.8818,,,,,,,,,,,,,,,,,,,,,,60fcd314736594904a0ad216,61036bf57baab5273ba77cb8,2021-07-29_23h04.02.963,Simcolourproject_2stim_asymm_v5,2020.2.10,MacIntel,60,61025ae37ef11b136ea224fe,,,,,,,,,1745,-45.80859375,82.9375,1,0,0,response7disk,,0,27.96484375,-3.77734375,1,0,0,rectangle,44.65625,-70.72265625,1,0,0,17.19140625,0.671875,1,0,0,0,20,20,71,1,,response3disk_3,TRUE,4,4,"[194,24,202,153,39,32,43,200,7,94,109,119,320,7,152,135,184,73,166,21]",1.6837,rectangle
,,,,,,,,,,,,,FF,,,,,,,,2.7678,,,,,,,,,,,,,,,,,,,,,,60fcd314736594904a0ad216,61036bf57baab5273ba77cb8,2021-07-29_23h04.02.963,Simcolourproject_2stim_asymm_v5,2020.2.10,MacIntel,60,61025ae37ef11b136ea224fe,,,,,,,,,284,-35.546875,77.93359375,1,0,0,response7disk,,0,-15.67578125,14.8515625,1,0,0,rectangle,-15.67578125,14.8515625,1,0,0,-15.67578125,14.8515625,1,0,0,0,21,21,96,1,,,,,,,,
,,,,,,,,,,,,,FF,,,,,,,,0.8001,,,,,,,,,,,,,,,,,,,,,,60fcd314736594904a0ad216,61036bf57baab5273ba77cb8,2021-07-29_23h04.02.963,Simcolourproject_2stim_asymm_v5,2020.2.10,MacIntel,60,61025ae37ef11b136ea224fe,,,,,,,,,3030,24.99609375,67.21484375,1,0,0,response1disk,,7,0.21484375,0.69140625,1,0,0,rectangle,0.21484375,0.69140625,1,0,0,0.21484375,0.69140625,1,0,0,0,22,22,137,1,,,,,,,,
,,,,,,,,,,,,,FF,,,,,,,,0.8503,,,,,,,,,,,,,,,,,,,,,,60fcd314736594904a0ad216,61036bf57baab5273ba77cb8,2021-07-29_23h04.02.963,Simcolourproject_2stim_asymm_v5,2020.2.10,MacIntel,60,61025ae37ef11b136ea224fe,,,,,,,,,3347,38.609375,92.0703125,1,0,0,response1disk,,7,-9.4765625,-10.625,1,0,0,rectangle,-38.83203125,72.9765625,1,0,0,6.3359375,-14.7890625,1,0,0,0,23,23,43,1,,response7disk_3,TRUE,0,0,"[194,24,202,153,39,32,43,200,7,94,109,119,320,7,152,135,184,73,166,21]",1.6331,rectangle
,,,,,,,,,,,,,FF,,,,,,,,0.9677,,,,,,,,,,,,,,,,,,,,,,60fcd314736594904a0ad216,61036bf57baab5273ba77cb8,2021-07-29_23h04.02.963,Simcolourproject_2stim_asymm_v5,2020.2.10,MacIntel,60,61025ae37ef11b136ea224fe,,,,,,,,,1571,74.4140625,28.9375,1,0,0,response1disk,,6,-4.33984375,6.54296875,1,0,0,rectangle,-4.33984375,6.54296875,1,0,0,-4.33984375,6.54296875,1,0,0,0,24,24,8,1,,,,,,,,
,,,,,,,,,,,,,FF,,,,,,,,0.7314,,,,,,,,,,,,,,,,,,,,,,60fcd314736594904a0ad216,61036bf57baab5273ba77cb8,2021-07-29_23h04.02.963,Simcolourproject_2stim_asymm_v5,2020.2.10,MacIntel,60,61025ae37ef11b136ea224fe,,,,,,,,,3428,-46.21484375,78.2578125,1,0,0,response7disk,,0,-1.55859375,-4.75,1,0,0,rectangle,-1.55859375,-4.75,1,0,0,-1.55859375,-4.75,1,0,0,0,25,25,45,1,,,,,,,,
,,,,,,,,,,,,,FF,,,,,,,,0.8987,,,,,,,,,,,,,,,,,,,,,,60fcd314736594904a0ad216,61036bf57baab5273ba77cb8,2021-07-29_23h04.02.963,Simcolourproject_2stim_asymm_v5,2020.2.10,MacIntel,60,61025ae37ef11b136ea224fe,,,,,,,,,2311,77.64453125,-48.66796875,1,0,0,response3disk,,5,1.0859375,-14.33984375,1,0,0,rectangle,1.0859375,-14.33984375,1,0,0,1.0859375,-14.33984375,1,0,0,0,26,26,44,1,,,,,,,,
,,,,,,,,,,,,,FF,,,,,,,,0.8834,,,,,,,,,,,,,,,,,,,,,,60fcd314736594904a0ad216,61036bf57baab5273ba77cb8,2021-07-29_23h04.02.963,Simcolourproject_2stim_asymm_v5,2020.2.10,MacIntel,60,61025ae37ef11b136ea224fe,,,,,,,,,3088,70.640625,-38.44921875,1,0,0,response3disk,,5,9.7734375,-3.140625,1,0,0,rectangle,9.7734375,-3.140625,1,0,0,9.7734375,-3.140625,1,0,0,0,27,27,59,1,,,,,,,,
,,,,,,,,,,,,,FF,,,,,,,,1.4662,,,,,,,,,,,,,,,,,,,,,,60fcd314736594904a0ad216,61036bf57baab5273ba77cb8,2021-07-29_23h04.02.963,Simcolourproject_2stim_asymm_v5,2020.2.10,MacIntel,60,61025ae37ef11b136ea224fe,,,,,,,,,3855,46.6953125,74.1015625,1,0,0,response1disk,,7,20.32421875,15.3828125,1,0,0,rectangle,20.32421875,15.3828125,1,0,0,20.32421875,15.3828125,1,0,0,0,28,28,69,1,,,,,,,,
,,,,,,,,,,,,,FF,,,,,,,,0.8994,,,,,,,,,,,,,,,,,,,,,,60fcd314736594904a0ad216,61036bf57baab5273ba77cb8,2021-07-29_23h04.02.963,Simcolourproject_2stim_asymm_v5,2020.2.10,MacIntel,60,61025ae37ef11b136ea224fe,,,,,,,,,4094,25.70703125,104.5976563,1,0,0,response1disk,,7,-9.17578125,-13.5859375,1,0,0,rectangle,-9.17578125,-13.5859375,1,0,0,-9.17578125,-13.5859375,1,0,0,0,29,29,10,1,,,,,,,,
,,,,,,,,,,,,,FF,,,,,,,,1.9848,,,,,,,,,,,,,,,,,,,,,,60fcd314736594904a0ad216,61036bf57baab5273ba77cb8,2021-07-29_23h04.02.963,Simcolourproject_2stim_asymm_v5,2020.2.10,MacIntel,60,61025ae37ef11b136ea224fe,,,,,,,,,1297,-44.47265625,89.43359375,1,0,0,response7disk,,0,2.359375,8.7421875,1,0,0,rectangle,2.359375,8.7421875,1,0,0,2.359375,8.7421875,1,0,0,0,30,30,120,1,,,,,,,,
,,,,,,,,,,,,,FF,,,,,,,,0.6487,,,,,,,,,,,,,,,,,,,,,,60fcd314736594904a0ad216,61036bf57baab5273ba77cb8,2021-07-29_23h04.02.963,Simcolourproject_2stim_asymm_v5,2020.2.10,MacIntel,60,61025ae37ef11b136ea224fe,,,,,,,,,1136,-42.046875,93.39453125,1,0,0,response7disk,,0,10.5625,5.0859375,1,0,0,rectangle,-94.6640625,37.92578125,1,0,0,18.56640625,2.27734375,1,0,0,0,31,31,23,1,,response7disk_3,TRUE,1,1,"[194,24,202,153,39,32,43,200,7,94,109,119,320,7,152,135,184,73,166,21]",1.5651,rectangle
,,,,,,,,,,,,,FF,,,,,,,,1.7682,,,,,,,,,,,,,,,,,,,,,,60fcd314736594904a0ad216,61036bf57baab5273ba77cb8,2021-07-29_23h04.02.963,Simcolourproject_2stim_asymm_v5,2020.2.10,MacIntel,60,61025ae37ef11b136ea224fe,,,,,,,,,3808,52.7109375,82.921875,1,0,0,response1disk,,7,0.70703125,9.375,1,0,0,rectangle,0.70703125,9.375,1,0,0,0.70703125,9.375,1,0,0,0,32,32,33,1,,,,,,,,
,,,,,,,,,,,,,FF,,,,,,,,1.203,,,,,,,,,,,,,,,,,,,,,,60fcd314736594904a0ad216,61036bf57baab5273ba77cb8,2021-07-29_23h04.02.963,Simcolourproject_2stim_asymm_v5,2020.2.10,MacIntel,60,61025ae37ef11b136ea224fe,,,,,,,,,2222,-66.59765625,-31.11328125,1,0,0,response5disk,,2,24.11328125,10.23828125,1,0,0,rectangle,24.11328125,10.23828125,1,0,0,24.11328125,10.23828125,1,0,0,0,33,33,4,1,,,,,,,,
,,,,,,,,,,,,,FF,,,,,,,,1.5997,,,,,,,,,,,,,,,,,,,,,,60fcd314736594904a0ad216,61036bf57baab5273ba77cb8,2021-07-29_23h04.02.963,Simcolourproject_2stim_asymm_v5,2020.2.10,MacIntel,60,61025ae37ef11b136ea224fe,,,,,,,,,3458,73.8125,29.3828125,1,0,0,response1disk,,6,11.56640625,-5.8046875,1,0,0,rectangle,11.56640625,-5.8046875,1,0,0,11.56640625,-5.8046875,1,0,0,0,34,34,112,1,,,,,,,,
,,,,,,,,,,,,,FF,,,,,,,,1.7512,,,,,,,,,,,,,,,,,,,,,,60fcd314736594904a0ad216,61036bf57baab5273ba77cb8,2021-07-29_23h04.02.963,Simcolourproject_2stim_asymm_v5,2020.2.10,MacIntel,60,61025ae37ef11b136ea224fe,,,,,,,,,2282,-44.19140625,-81.11328125,1,0,0,response5disk,,3,5.60546875,-6.1953125,1,0,0,rectangle,5.60546875,-6.1953125,1,0,0,5.60546875,-6.1953125,1,0,0,0,35,35,37,1,,,,,,,,
,,,,,,,,,,,,,FF,,,,,,,,0.7811,,,,,,,,,,,,,,,,,,,,,,60fcd314736594904a0ad216,61036bf57baab5273ba77cb8,2021-07-29_23h04.02.963,Simcolourproject_2stim_asymm_v5,2020.2.10,MacIntel,60,61025ae37ef11b136ea224fe,,,,,,,,,4077,-55.375,87.5390625,1,0,0,response7disk,,0,0.171875,2.79296875,1,0,0,rectangle,0.171875,2.79296875,1,0,0,0.171875,2.79296875,1,0,0,0,36,36,19,1,,,,,,,,
,,,,,,,,,,,,,FF,,,,,,,,1.0828,,,,,,,,,,,,,,,,,,,,,,60fcd314736594904a0ad216,61036bf57baab5273ba77cb8,2021-07-29_23h04.02.963,Simcolourproject_2stim_asymm_v5,2020.2.10,MacIntel,60,61025ae37ef11b136ea224fe,,,,,,,,,2820,81.27734375,-36.05078125,1,0,0,response3disk,,5,18.93359375,1.484375,1,0,0,rectangle,18.93359375,1.484375,1,0,0,18.93359375,1.484375,1,0,0,0,37,37,55,1,,,,,,,,
,,,,,,,,,,,,,FF,,,,,,,,1.1169,,,,,,,,,,,,,,,,,,,,,,60fcd314736594904a0ad216,61036bf57baab5273ba77cb8,2021-07-29_23h04.02.963,Simcolourproject_2stim_asymm_v5,2020.2.10,MacIntel,60,61025ae37ef11b136ea224fe,,,,,,,,,2127,59.34375,36.71875,1,0,0,response1disk,,6,-8.484375,-9.8203125,1,0,0,rectangle,-67.984375,-20.3359375,1,0,0,-2.2734375,4.47265625,1,0,0,0,38,38,148,1,,response5disk_3,TRUE,2,2,"[194,24,202,153,39,32,43,200,7,94,109,119,320,7,152,135,184,73,166,21]",1.3848,rectangle
,,,,,,,,,,,,,FF,,,,,,,,1.4824,,,,,,,,,,,,,,,,,,,,,,60fcd314736594904a0ad216,61036bf57baab5273ba77cb8,2021-07-29_23h04.02.963,Simcolourproject_2stim_asymm_v5,2020.2.10,MacIntel,60,61025ae37ef11b136ea224fe,,,,,,,,,1695,-44.94921875,-71.2109375,1,0,0,response5disk,,3,-5.63671875,-1.96875,1,0,0,rectangle,-5.63671875,-1.96875,1,0,0,-5.63671875,-1.96875,1,0,0,0,39,39,123,1,,,,,,,,
,,,,,,,,,,,,,FF,,,,,,,,1.048,,,,,,,,,,,,,,,,,,,,,,60fcd314736594904a0ad216,61036bf57baab5273ba77cb8,2021-07-29_23h04.02.963,Simcolourproject_2stim_asymm_v5,2020.2.10,MacIntel,60,61025ae37ef11b136ea224fe,,,,,,,,,4130,-82.37890625,-42.671875,1,0,0,response5disk,,2,-1.578125,-8.5234375,1,0,0,rectangle,-1.578125,-8.5234375,1,0,0,-1.578125,-8.5234375,1,0,0,0,40,40,51,1,,,,,,,,
,,,,,,,,,,,,,FF,,,,,,,,0.9513,,,,,,,,,,,,,,,,,,,,,,60fcd314736594904a0ad216,61036bf57baab5273ba77cb8,2021-07-29_23h04.02.963,Simcolourproject_2stim_asymm_v5,2020.2.10,MacIntel,60,61025ae37ef11b136ea224fe,,,,,,,,,810,-92.3671875,-42.8046875,1,0,0,response5disk,,2,-9.0234375,-0.05859375,1,0,0,rectangle,-9.0234375,-0.05859375,1,0,0,-9.0234375,-0.05859375,1,0,0,0,41,41,16,1,,,,,,,,
,,,,,,,,,,,,,FF,,,,,,,,0.9655,,,,,,,,,,,,,,,,,,,,,,60fcd314736594904a0ad216,61036bf57baab5273ba77cb8,2021-07-29_23h04.02.963,Simcolourproject_2stim_asymm_v5,2020.2.10,MacIntel,60,61025ae37ef11b136ea224fe,,,,,,,,,2743,43.546875,79.27734375,1,0,0,response1disk,,7,9.6015625,2.38671875,1,0,0,rectangle,-89.40625,-40.4296875,1,0,0,2.80078125,-4.984375,1,0,0,0,42,42,38,1,,response5disk_3,TRUE,2,2,"[194,24,202,153,39,32,43,200,7,94,109,119,320,7,152,135,184,73,166,21]",1.5174,rectangle
,,,,,,,,,,,,,FF,,,,,,,,1.5492,,,,,,,,,,,,,,,,,,,,,,60fcd314736594904a0ad216,61036bf57baab5273ba77cb8,2021-07-29_23h04.02.963,Simcolourproject_2stim_asymm_v5,2020.2.10,MacIntel,60,61025ae37ef11b136ea224fe,,,,,,,,,472,38.8359375,76.8984375,1,0,0,response1disk,,7,8.59765625,11.11328125,1,0,0,rectangle,8.59765625,11.11328125,1,0,0,8.59765625,11.11328125,1,0,0,0,43,43,40,1,,,,,,,,
,,,,,,,,,,,,,FF,,,,,,,,1.2834,,,,,,,,,,,,,,,,,,,,,,60fcd314736594904a0ad216,61036bf57baab5273ba77cb8,2021-07-29_23h04.02.963,Simcolourproject_2stim_asymm_v5,2020.2.10,MacIntel,60,61025ae37ef11b136ea224fe,,,,,,,,,1835,-36.48828125,-92.55859375,1,0,0,response5disk,,3,-5.37890625,2.08984375,1,0,0,rectangle,-5.37890625,2.08984375,1,0,0,-5.37890625,2.08984375,1,0,0,0,44,44,89,1,,,,,,,,
,,,,,,,,,,,,,FF,,,,,,,,1.567,,,,,,,,,,,,,,,,,,,,,,60fcd314736594904a0ad216,61036bf57baab5273ba77cb8,2021-07-29_23h04.02.963,Simcolourproject_2stim_asymm_v5,2020.2.10,MacIntel,60,61025ae37ef11b136ea224fe,,,,,,,,,3893,31.15234375,95.859375,1,0,0,response1disk,,7,-1.73046875,-10.79296875,1,0,0,rectangle,-1.73046875,-10.79296875,1,0,0,-1.73046875,-10.79296875,1,0,0,0,45,45,66,1,,,,,,,,
,,,,,,,,,,,,,FF,,,,,,,,1.9338,,,,,,,,,,,,,,,,,,,,,,60fcd314736594904a0ad216,61036bf57baab5273ba77cb8,2021-07-29_23h04.02.963,Simcolourproject_2stim_asymm_v5,2020.2.10,MacIntel,60,61025ae37ef11b136ea224fe,,,,,,,,,156,82.484375,-64.828125,1,0,0,response3disk,,5,14.9296875,-0.8125,1,0,0,rectangle,14.9296875,-0.8125,1,0,0,14.9296875,-0.8125,1,0,0,0,46,46,129,1,,,,,,,,
,,,,,,,,,,,,,FF,,,,,,,,0.9334,,,,,,,,,,,,,,,,,,,,,,60fcd314736594904a0ad216,61036bf57baab5273ba77cb8,2021-07-29_23h04.02.963,Simcolourproject_2stim_asymm_v5,2020.2.10,MacIntel,60,61025ae37ef11b136ea224fe,,,,,,,,,3307,55.31640625,84.76171875,1,0,0,response1disk,,7,14.5234375,-16.09765625,1,0,0,rectangle,14.5234375,-16.09765625,1,0,0,14.5234375,-16.09765625,1,0,0,0,47,47,94,1,,,,,,,,
,,,,,,,,,,,,,FF,,,,,,,,1.4171,,,,,,,,,,,,,,,,,,,,,,60fcd314736594904a0ad216,61036bf57baab5273ba77cb8,2021-07-29_23h04.02.963,Simcolourproject_2stim_asymm_v5,2020.2.10,MacIntel,60,61025ae37ef11b136ea224fe,,,,,,,,,2883,-82.70703125,-37.45703125,1,0,0,response5disk,,2,2.62890625,-3.671875,1,0,0,rectangle,2.62890625,-3.671875,1,0,0,2.62890625,-3.671875,1,0,0,0,48,48,0,1,,,,,,,,
,,,,,,,,,,,,,FF,,,,,,,,1.5325,,,,,,,,,,,,,,,,,,,,,,60fcd314736594904a0ad216,61036bf57baab5273ba77cb8,2021-07-29_23h04.02.963,Simcolourproject_2stim_asymm_v5,2020.2.10,MacIntel,60,61025ae37ef11b136ea224fe,,,,,,,,,3575,82.71484375,-38.6953125,1,0,0,response3disk,,5,21.24609375,-4.484375,1,0,0,rectangle,21.24609375,-4.484375,1,0,0,21.24609375,-4.484375,1,0,0,0,49,49,107,1,,,,,,,,
,,,,,,,,,,,,,FF,,,,,,,,0.8179,,,,,,,,,,,,,,,,,,,,,,60fcd314736594904a0ad216,61036bf57baab5273ba77cb8,2021-07-29_23h04.02.963,Simcolourproject_2stim_asymm_v5,2020.2.10,MacIntel,60,61025ae37ef11b136ea224fe,,,,,,,,,3781,-28.46484375,67.671875,1,0,0,response7disk,,0,5.1015625,10.52734375,1,0,0,rectangle,5.1015625,10.52734375,1,0,0,5.1015625,10.52734375,1,0,0,0,50,50,52,1,,,,,,,,
,,,,,,,,,,,,,FF,,,,,,,,0.898,,,,,,,,,,,,,,,,,,,,,,60fcd314736594904a0ad216,61036bf57baab5273ba77cb8,2021-07-29_23h04.02.963,Simcolourproject_2stim_asymm_v5,2020.2.10,MacIntel,60,61025ae37ef11b136ea224fe,,,,,,,,,1740,-54.875,93.26953125,1,0,0,response7disk,,0,-1.60546875,3.73828125,1,0,0,rectangle,-1.60546875,3.73828125,1,0,0,-1.60546875,3.73828125,1,0,0,0,51,51,156,1,,,,,,,,
,,,,,,,,,,,,,FF,,,,,,,,0.9492,,,,,,,,,,,,,,,,,,,,,,60fcd314736594904a0ad216,61036bf57baab5273ba77cb8,2021-07-29_23h04.02.963,Simcolourproject_2stim_asymm_v5,2020.2.10,MacIntel,60,61025ae37ef11b136ea224fe,,,,,,,,,1369,-48.765625,88.8359375,1,0,0,response7disk,,0,-8.74609375,-2.76171875,1,0,0,rectangle,-8.74609375,-2.76171875,1,0,0,-8.74609375,-2.76171875,1,0,0,0,52,52,64,1,,,,,,,,
,,,,,,,,,,,,,FF,,,,,,,,0.6678,,,,,,,,,,,,,,,,,,,,,,60fcd314736594904a0ad216,61036bf57baab5273ba77cb8,2021-07-29_23h04.02.963,Simcolourproject_2stim_asymm_v5,2020.2.10,MacIntel,60,61025ae37ef11b136ea224fe,,,,,,,,,1213,-45.2578125,73.30078125,1,0,0,response7disk,,0,-1.95703125,3.359375,1,0,0,rectangle,-1.95703125,3.359375,1,0,0,-1.95703125,3.359375,1,0,0,0,53,53,70,1,,,,,,,,
,,,,,,,,,,,,,FF,,,,,,,,1.051,,,,,,,,,,,,,,,,,,,,,,60fcd314736594904a0ad216,61036bf57baab5273ba77cb8,2021-07-29_23h04.02.963,Simcolourproject_2stim_asymm_v5,2020.2.10,MacIntel,60,61025ae37ef11b136ea224fe,,,,,,,,,2078,90.28515625,35.6484375,1,0,0,response1disk,,6,-18.1171875,-12.46484375,1,0,0,rectangle,-18.1171875,-12.46484375,1,0,0,-18.1171875,-12.46484375,1,0,0,0,54,54,144,1,,,,,,,,
,,,,,,,,,,,,,FF,,,,,,,,0.7009,,,,,,,,,,,,,,,,,,,,,,60fcd314736594904a0ad216,61036bf57baab5273ba77cb8,2021-07-29_23h04.02.963,Simcolourproject_2stim_asymm_v5,2020.2.10,MacIntel,60,61025ae37ef11b136ea224fe,,,,,,,,,3297,-32.49609375,72.1953125,1,0,0,response7disk,,0,3.77734375,7.32421875,1,0,0,rectangle,3.77734375,7.32421875,1,0,0,3.77734375,7.32421875,1,0,0,0,55,55,138,1,,,,,,,,
,,,,,,,,,,,,,FF,,,,,,,,0.8173,,,,,,,,,,,,,,,,,,,,,,60fcd314736594904a0ad216,61036bf57baab5273ba77cb8,2021-07-29_23h04.02.963,Simcolourproject_2stim_asymm_v5,2020.2.10,MacIntel,60,61025ae37ef11b136ea224fe,,,,,,,,,3020,87.515625,34.37109375,1,0,0,response1disk,,6,11.25390625,2.5390625,1,0,0,rectangle,11.25390625,2.5390625,1,0,0,11.25390625,2.5390625,1,0,0,0,56,56,53,1,,,,,,,,
,,,,,,,,,,,,,FF,,,,,,,,0.8501,,,,,,,,,,,,,,,,,,,,,,60fcd314736594904a0ad216,61036bf57baab5273ba77cb8,2021-07-29_23h04.02.963,Simcolourproject_2stim_asymm_v5,2020.2.10,MacIntel,60,61025ae37ef11b136ea224fe,,,,,,,,,3904,79.953125,33.2734375,1,0,0,response1disk,,6,-0.8671875,-4.83984375,1,0,0,rectangle,-0.8671875,-4.83984375,1,0,0,-0.8671875,-4.83984375,1,0,0,0,57,57,24,1,,,,,,,,
,,,,,,,,,,,,,FF,,,,,,,,0.6342,,,,,,,,,,,,,,,,,,,,,,60fcd314736594904a0ad216,61036bf57baab5273ba77cb8,2021-07-29_23h04.02.963,Simcolourproject_2stim_asymm_v5,2020.2.10,MacIntel,60,61025ae37ef11b136ea224fe,,,,,,,,,345,-41.21484375,69.078125,1,0,0,response7disk,,0,-0.01953125,2.23828125,1,0,0,rectangle,-0.01953125,2.23828125,1,0,0,-0.01953125,2.23828125,1,0,0,0,58,58,139,1,,,,,,,,
,,,,,,,,,,,,,FF,,,,,,,,0.9661,,,,,,,,,,,,,,,,,,,,,,60fcd314736594904a0ad216,61036bf57baab5273ba77cb8,2021-07-29_23h04.02.963,Simcolourproject_2stim_asymm_v5,2020.2.10,MacIntel,60,61025ae37ef11b136ea224fe,,,,,,,,,219,93.26171875,42.47265625,1,0,0,response1disk,,6,8.19140625,-1.390625,1,0,0,rectangle,8.19140625,-1.390625,1,0,0,8.19140625,-1.390625,1,0,0,0,59,59,115,1,,,,,,,,
,,,,,,,,,,,,,FF,,,,,,,,0.9349,,,,,,,,,,,,,,,,,,,,,,60fcd314736594904a0ad216,61036bf57baab5273ba77cb8,2021-07-29_23h04.02.963,Simcolourproject_2stim_asymm_v5,2020.2.10,MacIntel,60,61025ae37ef11b136ea224fe,,,,,,,,,3397,-24.125,-93.16015625,1,0,0,response5disk,,3,-0.98046875,-12.6484375,1,0,0,rectangle,-0.98046875,-12.6484375,1,0,0,-0.98046875,-12.6484375,1,0,0,0,60,60,2,1,,,,,,,,
,,,,,,,,,,,,,FF,,,,,,,,0.9646,,,,,,,,,,,,,,,,,,,,,,60fcd314736594904a0ad216,61036bf57baab5273ba77cb8,2021-07-29_23h04.02.963,Simcolourproject_2stim_asymm_v5,2020.2.10,MacIntel,60,61025ae37ef11b136ea224fe,,,,,,,,,3694,55.87890625,-74.8203125,1,0,0,response3disk,,4,9.0234375,-5.06640625,1,0,0,rectangle,9.0234375,-5.06640625,1,0,0,9.0234375,-5.06640625,1,0,0,0,61,61,80,1,,,,,,,,
,,,,,,,,,,,,,FF,,,,,,,,0.9986,,,,,,,,,,,,,,,,,,,,,,60fcd314736594904a0ad216,61036bf57baab5273ba77cb8,2021-07-29_23h04.02.963,Simcolourproject_2stim_asymm_v5,2020.2.10,MacIntel,60,61025ae37ef11b136ea224fe,,,,,,,,,2716,41.75390625,-64.70703125,1,0,0,response3disk,,4,11.296875,2.2890625,1,0,0,rectangle,11.296875,2.2890625,1,0,0,11.296875,2.2890625,1,0,0,0,62,62,142,1,,,,,,,,
,,,,,,,,,,,,,FF,,,,,,,,1.8666,,,,,,,,,,,,,,,,,,,,,,60fcd314736594904a0ad216,61036bf57baab5273ba77cb8,2021-07-29_23h04.02.963,Simcolourproject_2stim_asymm_v5,2020.2.10,MacIntel,60,61025ae37ef11b136ea224fe,,,,,,,,,2170,21.2421875,-57.42578125,1,0,0,response3disk,,4,3.9140625,11.19921875,1,0,0,rectangle,3.9140625,11.19921875,1,0,0,3.9140625,11.19921875,1,0,0,0,63,63,41,1,,,,,,,,
,,,,,,,,,,,,,FF,,,,,,,,1.1335,,,,,,,,,,,,,,,,,,,,,,60fcd314736594904a0ad216,61036bf57baab5273ba77cb8,2021-07-29_23h04.02.963,Simcolourproject_2stim_asymm_v5,2020.2.10,MacIntel,60,61025ae37ef11b136ea224fe,,,,,,,,,2180,34.08984375,-80.9140625,1,0,0,response3disk,,4,6.9609375,-8.1171875,1,0,0,rectangle,6.9609375,-8.1171875,1,0,0,6.9609375,-8.1171875,1,0,0,0,64,64,128,1,,,,,,,,
,,,,,,,,,,,,,FF,,,,,,,,1.2667,,,,,,,,,,,,,,,,,,,,,,60fcd314736594904a0ad216,61036bf57baab5273ba77cb8,2021-07-29_23h04.02.963,Simcolourproject_2stim_asymm_v5,2020.2.10,MacIntel,60,61025ae37ef11b136ea224fe,,,,,,,,,1243,36.24609375,93.765625,1,0,0,response1disk,,7,9.47265625,0.86328125,1,0,0,rectangle,9.47265625,0.86328125,1,0,0,9.47265625,0.86328125,1,0,0,0,65,65,99,1,,,,,,,,
,,,,,,,,,,,,,FF,,,,,,,,0.8167,,,,,,,,,,,,,,,,,,,,,,60fcd314736594904a0ad216,61036bf57baab5273ba77cb8,2021-07-29_23h04.02.963,Simcolourproject_2stim_asymm_v5,2020.2.10,MacIntel,60,61025ae37ef11b136ea224fe,,,,,,,,,3667,37.7265625,110.5820313,1,0,0,response1disk,,7,1.01171875,2.20703125,1,0,0,rectangle,1.01171875,2.20703125,1,0,0,1.01171875,2.20703125,1,0,0,0,66,66,134,1,,,,,,,,
,,,,,,,,,,,,,FF,,,,,,,,0.9995,,,,,,,,,,,,,,,,,,,,,,60fcd314736594904a0ad216,61036bf57baab5273ba77cb8,2021-07-29_23h04.02.963,Simcolourproject_2stim_asymm_v5,2020.2.10,MacIntel,60,61025ae37ef11b136ea224fe,,,,,,,,,2445,39.1953125,74.69921875,1,0,0,response1disk,,7,9.41015625,-3.05078125,1,0,0,rectangle,9.41015625,-3.05078125,1,0,0,9.41015625,-3.05078125,1,0,0,0,67,67,63,1,,,,,,,,
,,,,,,,,,,,,,FF,,,,,,,,1.1168,,,,,,,,,,,,,,,,,,,,,,60fcd314736594904a0ad216,61036bf57baab5273ba77cb8,2021-07-29_23h04.02.963,Simcolourproject_2stim_asymm_v5,2020.2.10,MacIntel,60,61025ae37ef11b136ea224fe,,,,,,,,,750,34.88671875,105.390625,1,0,0,response1disk,,7,7.2265625,3.91015625,1,0,0,rectangle,7.2265625,3.91015625,1,0,0,7.2265625,3.91015625,1,0,0,0,68,68,78,1,,,,,,,,
,,,,,,,,,,,,,FF,,,,,,,,0.7515,,,,,,,,,,,,,,,,,,,,,,60fcd314736594904a0ad216,61036bf57baab5273ba77cb8,2021-07-29_23h04.02.963,Simcolourproject_2stim_asymm_v5,2020.2.10,MacIntel,60,61025ae37ef11b136ea224fe,,,,,,,,,3250,-52.27734375,79.75390625,1,0,0,response7disk,,0,-1.234375,-5.21875,1,0,0,rectangle,-1.234375,-5.21875,1,0,0,-1.234375,-5.21875,1,0,0,0,69,69,61,1,,,,,,,,
,,,,,,,,,,,,,FF,,,,,,,,0.6649,,,,,,,,,,,,,,,,,,,,,,60fcd314736594904a0ad216,61036bf57baab5273ba77cb8,2021-07-29_23h04.02.963,Simcolourproject_2stim_asymm_v5,2020.2.10,MacIntel,60,61025ae37ef11b136ea224fe,,,,,,,,,444,-40.0859375,91.32421875,1,0,0,response7disk,,0,-6.09765625,3.97265625,1,0,0,rectangle,-6.09765625,3.97265625,1,0,0,-6.09765625,3.97265625,1,0,0,0,70,70,130,1,,,,,,,,
,,,,,,,,,,,,,FF,,,,,,,,1.4668,,,,,,,,,,,,,,,,,,,,,,60fcd314736594904a0ad216,61036bf57baab5273ba77cb8,2021-07-29_23h04.02.963,Simcolourproject_2stim_asymm_v5,2020.2.10,MacIntel,60,61025ae37ef11b136ea224fe,,,,,,,,,3607,75.06640625,35.6484375,1,0,0,response1disk,,6,6.08984375,-1.57421875,1,0,0,rectangle,6.08984375,-1.57421875,1,0,0,6.08984375,-1.57421875,1,0,0,0,71,71,39,1,,,,,,,,
,,,,,,,,,,,,,FF,,,,,,,,1.0313,,,,,,,,,,,,,,,,,,,,,,60fcd314736594904a0ad216,61036bf57baab5273ba77cb8,2021-07-29_23h04.02.963,Simcolourproject_2stim_asymm_v5,2020.2.10,MacIntel,60,61025ae37ef11b136ea224fe,,,,,,,,,1716,41.05859375,93.8125,1,0,0,response1disk,,7,-6.77734375,-7.35546875,1,0,0,rectangle,105.3828125,24.49609375,1,0,0,-3.66796875,-10.71484375,1,0,0,0,72,72,27,1,,response1disk_3,TRUE,6,6,"[194,24,202,153,39,32,43,200,7,94,109,119,320,7,152,135,184,73,166,21]",28.1871,rectangle
,,,,,,,,,,,,,FF,,,,,,,,1.2019,,,,,,,,,,,,,,,,,,,,,,60fcd314736594904a0ad216,61036bf57baab5273ba77cb8,2021-07-29_23h04.02.963,Simcolourproject_2stim_asymm_v5,2020.2.10,MacIntel,60,61025ae37ef11b136ea224fe,,,,,,,,,2923,78.66015625,-50.7890625,1,0,0,response3disk,,5,-8.91796875,-5.78125,1,0,0,rectangle,-8.91796875,-5.78125,1,0,0,-8.91796875,-5.78125,1,0,0,0,73,73,104,1,,,,,,,,
,,,,,,,,,,,,,FF,,,,,,,,1.2835,,,,,,,,,,,,,,,,,,,,,,60fcd314736594904a0ad216,61036bf57baab5273ba77cb8,2021-07-29_23h04.02.963,Simcolourproject_2stim_asymm_v5,2020.2.10,MacIntel,60,61025ae37ef11b136ea224fe,,,,,,,,,3853,40.49609375,-81.7421875,1,0,0,response3disk,,4,0.85546875,-1.19921875,1,0,0,rectangle,0.85546875,-1.19921875,1,0,0,0.85546875,-1.19921875,1,0,0,0,74,74,54,1,,,,,,,,
,,,,,,,,,,,,,FF,,,,,,,,0.9353,,,,,,,,,,,,,,,,,,,,,,60fcd314736594904a0ad216,61036bf57baab5273ba77cb8,2021-07-29_23h04.02.963,Simcolourproject_2stim_asymm_v5,2020.2.10,MacIntel,60,61025ae37ef11b136ea224fe,,,,,,,,,2618,-30.02734375,-61.9609375,1,0,0,response5disk,,3,-1.921875,16.1484375,1,0,0,rectangle,-1.921875,16.1484375,1,0,0,-1.921875,16.1484375,1,0,0,0,75,75,50,1,,,,,,,,
,,,,,,,,,,,,,FF,,,,,,,,1.3488,,,,,,,,,,,,,,,,,,,,,,60fcd314736594904a0ad216,61036bf57baab5273ba77cb8,2021-07-29_23h04.02.963,Simcolourproject_2stim_asymm_v5,2020.2.10,MacIntel,60,61025ae37ef11b136ea224fe,,,,,,,,,3572,61.3359375,89.53125,1,0,0,response1disk,,7,9.6640625,11.859375,1,0,0,rectangle,9.6640625,11.859375,1,0,0,9.6640625,11.859375,1,0,0,0,76,76,86,1,,,,,,,,
,,,,,,,,,,,,,FF,,,,,,,,0.883,,,,,,,,,,,,,,,,,,,,,,60fcd314736594904a0ad216,61036bf57baab5273ba77cb8,2021-07-29_23h04.02.963,Simcolourproject_2stim_asymm_v5,2020.2.10,MacIntel,60,61025ae37ef11b136ea224fe,,,,,,,,,2403,28.875,91.07421875,1,0,0,response1disk,,7,-2.421875,5.41015625,1,0,0,rectangle,-2.421875,5.41015625,1,0,0,-2.421875,5.41015625,1,0,0,0,77,77,135,1,,,,,,,,
,,,,,,,,,,,,,FF,,,,,,,,0.8017,,,,,,,,,,,,,,,,,,,,,,60fcd314736594904a0ad216,61036bf57baab5273ba77cb8,2021-07-29_23h04.02.963,Simcolourproject_2stim_asymm_v5,2020.2.10,MacIntel,60,61025ae37ef11b136ea224fe,,,,,,,,,2925,51.3984375,89.96484375,1,0,0,response1disk,,7,-5.9609375,-0.2421875,1,0,0,rectangle,-5.9609375,-0.2421875,1,0,0,-5.9609375,-0.2421875,1,0,0,0,78,78,11,1,,,,,,,,
,,,,,,,,,,,,,FF,,,,,,,,1.1351,,,,,,,,,,,,,,,,,,,,,,60fcd314736594904a0ad216,61036bf57baab5273ba77cb8,2021-07-29_23h04.02.963,Simcolourproject_2stim_asymm_v5,2020.2.10,MacIntel,60,61025ae37ef11b136ea224fe,,,,,,,,,1362,27.56640625,72.1796875,1,0,0,response1disk,,7,4.32421875,-3.203125,1,0,0,rectangle,4.32421875,-3.203125,1,0,0,4.32421875,-3.203125,1,0,0,0,79,79,79,1,,,,,,,,
,,,,,,,,,,,,,FF,,,,,,,,1.5499,,,,,,,,,,,,,,,,,,,,,,60fcd314736594904a0ad216,61036bf57baab5273ba77cb8,2021-07-29_23h04.02.963,Simcolourproject_2stim_asymm_v5,2020.2.10,MacIntel,60,61025ae37ef11b136ea224fe,,,,,,,,,3028,33.01171875,86.64453125,1,0,0,response1disk,,7,5.3671875,11.3125,1,0,0,rectangle,5.3671875,11.3125,1,0,0,5.3671875,11.3125,1,0,0,0,80,80,31,1,,,,,,,,
,,,,,,,,,,,,,FF,,,,,,,,1.2682,,,,,,,,,,,,,,,,,,,,,,60fcd314736594904a0ad216,61036bf57baab5273ba77cb8,2021-07-29_23h04.02.963,Simcolourproject_2stim_asymm_v5,2020.2.10,MacIntel,60,61025ae37ef11b136ea224fe,,,,,,,,,4105,-76.6328125,-49.796875,1,0,0,response5disk,,2,-17.00390625,2.140625,1,0,0,rectangle,-17.00390625,2.140625,1,0,0,-17.00390625,2.140625,1,0,0,0,81,81,92,1,,,,,,,,
,,,,,,,,,,,,,FF,,,,,,,,0.7822,,,,,,,,,,,,,,,,,,,,,,60fcd314736594904a0ad216,61036bf57baab5273ba77cb8,2021-07-29_23h04.02.963,Simcolourproject_2stim_asymm_v5,2020.2.10,MacIntel,60,61025ae37ef11b136ea224fe,,,,,,,,,889,-68.7265625,-35.98046875,1,0,0,response5disk,,2,-9.4453125,-7.99609375,1,0,0,rectangle,-9.4453125,-7.99609375,1,0,0,-9.4453125,-7.99609375,1,0,0,0,82,82,143,1,,,,,,,,
,,,,,,,,,,,,,FF,,,,,,,,0.7508,,,,,,,,,,,,,,,,,,,,,,60fcd314736594904a0ad216,61036bf57baab5273ba77cb8,2021-07-29_23h04.02.963,Simcolourproject_2stim_asymm_v5,2020.2.10,MacIntel,60,61025ae37ef11b136ea224fe,,,,,,,,,1608,-44.57421875,73.8515625,1,0,0,response7disk,,0,-8.1875,9.3203125,1,0,0,rectangle,-8.1875,9.3203125,1,0,0,-8.1875,9.3203125,1,0,0,0,83,83,132,1,,,,,,,,
,,,,,,,,,,,,,FF,,,,,,,,1.2998,,,,,,,,,,,,,,,,,,,,,,60fcd314736594904a0ad216,61036bf57baab5273ba77cb8,2021-07-29_23h04.02.963,Simcolourproject_2stim_asymm_v5,2020.2.10,MacIntel,60,61025ae37ef11b136ea224fe,,,,,,,,,3033,96.9921875,-45.234375,1,0,0,response3disk,,5,4.859375,-6.37109375,1,0,0,rectangle,4.859375,-6.37109375,1,0,0,4.859375,-6.37109375,1,0,0,0,84,84,153,1,,,,,,,,
,,,,,,,,,,,,,FF,,,,,,,,1.867,,,,,,,,,,,,,,,,,,,,,,60fcd314736594904a0ad216,61036bf57baab5273ba77cb8,2021-07-29_23h04.02.963,Simcolourproject_2stim_asymm_v5,2020.2.10,MacIntel,60,61025ae37ef11b136ea224fe,,,,,,,,,3035,-82.63671875,-29.05078125,1,0,0,response5disk,,2,-14.1953125,4.83984375,1,0,0,rectangle,-14.1953125,4.83984375,1,0,0,-14.1953125,4.83984375,1,0,0,0,85,85,46,1,,,,,,,,
,,,,,,,,,,,,,FF,,,,,,,,0.9839,,,,,,,,,,,,,,,,,,,,,,60fcd314736594904a0ad216,61036bf57baab5273ba77cb8,2021-07-29_23h04.02.963,Simcolourproject_2stim_asymm_v5,2020.2.10,MacIntel,60,61025ae37ef11b136ea224fe,,,,,,,,,4128,-79.921875,-21.1875,1,0,0,response5disk,,2,-6.57421875,3.6953125,1,0,0,rectangle,-6.57421875,3.6953125,1,0,0,-6.57421875,3.6953125,1,0,0,0,86,86,141,1,,,,,,,,
,,,,,,,,,,,,,FF,,,,,,,,1.1001,,,,,,,,,,,,,,,,,,,,,,60fcd314736594904a0ad216,61036bf57baab5273ba77cb8,2021-07-29_23h04.02.963,Simcolourproject_2stim_asymm_v5,2020.2.10,MacIntel,60,61025ae37ef11b136ea224fe,,,,,,,,,257,63.6640625,-35.37890625,1,0,0,response3disk,,5,-0.13671875,5.09375,1,0,0,rectangle,-0.13671875,5.09375,1,0,0,-0.13671875,5.09375,1,0,0,0,87,87,111,1,,,,,,,,
,,,,,,,,,,,,,FF,,,,,,,,1.4668,,,,,,,,,,,,,,,,,,,,,,60fcd314736594904a0ad216,61036bf57baab5273ba77cb8,2021-07-29_23h04.02.963,Simcolourproject_2stim_asymm_v5,2020.2.10,MacIntel,60,61025ae37ef11b136ea224fe,,,,,,,,,2375,85.171875,47.1875,1,0,0,response1disk,,6,2.5859375,6.95703125,1,0,0,rectangle,2.5859375,6.95703125,1,0,0,2.5859375,6.95703125,1,0,0,0,88,88,150,1,,,,,,,,
,,,,,,,,,,,,,FF,,,,,,,,0.9833,,,,,,,,,,,,,,,,,,,,,,60fcd314736594904a0ad216,61036bf57baab5273ba77cb8,2021-07-29_23h04.02.963,Simcolourproject_2stim_asymm_v5,2020.2.10,MacIntel,60,61025ae37ef11b136ea224fe,,,,,,,,,668,37.140625,95.91796875,1,0,0,response1disk,,7,-4.01171875,5.015625,1,0,0,rectangle,-4.01171875,5.015625,1,0,0,-4.01171875,5.015625,1,0,0,0,89,89,146,1,,,,,,,,
,,,,,,,,,,,,,FF,,,,,,,,0.7504,,,,,,,,,,,,,,,,,,,,,,60fcd314736594904a0ad216,61036bf57baab5273ba77cb8,2021-07-29_23h04.02.963,Simcolourproject_2stim_asymm_v5,2020.2.10,MacIntel,60,61025ae37ef11b136ea224fe,,,,,,,,,4118,-50.234375,71.9375,1,0,0,response7disk,,0,2.23828125,2.3984375,1,0,0,rectangle,2.23828125,2.3984375,1,0,0,2.23828125,2.3984375,1,0,0,0,90,90,25,1,,,,,,,,
,,,,,,,,,,,,,FF,,,,,,,,1.2338,,,,,,,,,,,,,,,,,,,,,,60fcd314736594904a0ad216,61036bf57baab5273ba77cb8,2021-07-29_23h04.02.963,Simcolourproject_2stim_asymm_v5,2020.2.10,MacIntel,60,61025ae37ef11b136ea224fe,,,,,,,,,831,49.33984375,87.47265625,1,0,0,response1disk,,7,-5.5078125,-3.84375,1,0,0,rectangle,-5.5078125,-3.84375,1,0,0,-5.5078125,-3.84375,1,0,0,0,91,91,158,1,,,,,,,,
,,,,,,,,,,,,,FF,,,,,,,,0.6686,,,,,,,,,,,,,,,,,,,,,,60fcd314736594904a0ad216,61036bf57baab5273ba77cb8,2021-07-29_23h04.02.963,Simcolourproject_2stim_asymm_v5,2020.2.10,MacIntel,60,61025ae37ef11b136ea224fe,,,,,,,,,746,36.26171875,87.9609375,1,0,0,response1disk,,7,-5.1875,-17.79296875,1,0,0,rectangle,-5.1875,-17.79296875,1,0,0,-5.1875,-17.79296875,1,0,0,0,92,92,114,1,,,,,,,,
,,,,,,,,,,,,,FF,,,,,,,,0.8829,,,,,,,,,,,,,,,,,,,,,,60fcd314736594904a0ad216,61036bf57baab5273ba77cb8,2021-07-29_23h04.02.963,Simcolourproject_2stim_asymm_v5,2020.2.10,MacIntel,60,61025ae37ef11b136ea224fe,,,,,,,,,2912,30.8671875,82.890625,1,0,0,response1disk,,7,-5.05078125,-11.56640625,1,0,0,rectangle,-80.953125,38.94140625,1,0,0,-12.50390625,-4.7265625,1,0,0,0,93,93,136,1,,response7disk_3,TRUE,1,1,"[194,24,202,153,39,32,43,200,7,94,109,119,320,7,152,135,184,73,166,21]",1.4491,rectangle
,,,,,,,,,,,,,FF,,,,,,,,0.8171,,,,,,,,,,,,,,,,,,,,,,60fcd314736594904a0ad216,61036bf57baab5273ba77cb8,2021-07-29_23h04.02.963,Simcolourproject_2stim_asymm_v5,2020.2.10,MacIntel,60,61025ae37ef11b136ea224fe,,,,,,,,,3069,39.94921875,88.58203125,1,0,0,response1disk,,7,-1.6484375,4.55859375,1,0,0,rectangle,-1.6484375,4.55859375,1,0,0,-1.6484375,4.55859375,1,0,0,0,94,94,12,1,,,,,,,,
,,,,,,,,,,,,,FF,,,,,,,,1.3363,,,,,,,,,,,,,,,,,,,,,,60fcd314736594904a0ad216,61036bf57baab5273ba77cb8,2021-07-29_23h04.02.963,Simcolourproject_2stim_asymm_v5,2020.2.10,MacIntel,60,61025ae37ef11b136ea224fe,,,,,,,,,1985,44.625,-82.15234375,1,0,0,response3disk,,4,20.11328125,-7.46875,1,0,0,rectangle,20.11328125,-7.46875,1,0,0,20.11328125,-7.46875,1,0,0,0,95,95,121,1,,,,,,,,
,,,,,,,,,,,,,FF,,,,,,,,0.8163,,,,,,,,,,,,,,,,,,,,,,60fcd314736594904a0ad216,61036bf57baab5273ba77cb8,2021-07-29_23h04.02.963,Simcolourproject_2stim_asymm_v5,2020.2.10,MacIntel,60,61025ae37ef11b136ea224fe,,,,,,,,,3467,25.80078125,107.1601563,1,0,0,response1disk,,7,-4.515625,3.75390625,1,0,0,rectangle,-4.515625,3.75390625,1,0,0,-4.515625,3.75390625,1,0,0,0,96,96,85,1,,,,,,,,
,,,,,,,,,,,,,FF,,,,,,,,1.0157,,,,,,,,,,,,,,,,,,,,,,60fcd314736594904a0ad216,61036bf57baab5273ba77cb8,2021-07-29_23h04.02.963,Simcolourproject_2stim_asymm_v5,2020.2.10,MacIntel,60,61025ae37ef11b136ea224fe,,,,,,,,,3691,36.203125,-76.125,1,0,0,response3disk,,4,11.7265625,-4.265625,1,0,0,rectangle,11.7265625,-4.265625,1,0,0,11.7265625,-4.265625,1,0,0,0,97,97,157,1,,,,,,,,
,,,,,,,,,,,,,FF,,,,,,,,0.9835,,,,,,,,,,,,,,,,,,,,,,60fcd314736594904a0ad216,61036bf57baab5273ba77cb8,2021-07-29_23h04.02.963,Simcolourproject_2stim_asymm_v5,2020.2.10,MacIntel,60,61025ae37ef11b136ea224fe,,,,,,,,,1953,39.953125,-81.60546875,1,0,0,response3disk,,4,-6.66796875,7.53125,1,0,0,rectangle,-6.66796875,7.53125,1,0,0,-6.66796875,7.53125,1,0,0,0,98,98,32,1,,,,,,,,
,,,,,,,,,,,,,FF,,,,,,,,1.1348,,,,,,,,,,,,,,,,,,,,,,60fcd314736594904a0ad216,61036bf57baab5273ba77cb8,2021-07-29_23h04.02.963,Simcolourproject_2stim_asymm_v5,2020.2.10,MacIntel,60,61025ae37ef11b136ea224fe,,,,,,,,,2814,76.8984375,38.33203125,1,0,0,response1disk,,6,8.81640625,-4.3203125,1,0,0,rectangle,8.81640625,-4.3203125,1,0,0,8.81640625,-4.3203125,1,0,0,0,99,99,113,1,,,,,,,,
,,,,,,,,,,,,,FF,,,,,,,,1.1497,,,,,,,,,,,,,,,,,,,,,,60fcd314736594904a0ad216,61036bf57baab5273ba77cb8,2021-07-29_23h04.02.963,Simcolourproject_2stim_asymm_v5,2020.2.10,MacIntel,60,61025ae37ef11b136ea224fe,,,,,,,,,2364,-70.82421875,-46.52734375,1,0,0,response5disk,,2,-8.375,-0.6953125,1,0,0,rectangle,-8.375,-0.6953125,1,0,0,-8.375,-0.6953125,1,0,0,0,100,100,35,1,,,,,,,,
,,,,,,,,,,,,,FF,,,,,,,,0.934,,,,,,,,,,,,,,,,,,,,,,60fcd314736594904a0ad216,61036bf57baab5273ba77cb8,2021-07-29_23h04.02.963,Simcolourproject_2stim_asymm_v5,2020.2.10,MacIntel,60,61025ae37ef11b136ea224fe,,,,,,,,,1868,67.40234375,38.390625,1,0,0,response1disk,,6,-7.1484375,-15.796875,1,0,0,rectangle,-7.1484375,-15.796875,1,0,0,-7.1484375,-15.796875,1,0,0,0,101,101,58,1,,,,,,,,
,,,,,,,,,,,,,FF,,,,,,,,1.0493,,,,,,,,,,,,,,,,,,,,,,60fcd314736594904a0ad216,61036bf57baab5273ba77cb8,2021-07-29_23h04.02.963,Simcolourproject_2stim_asymm_v5,2020.2.10,MacIntel,60,61025ae37ef11b136ea224fe,,,,,,,,,1215,-88.1640625,40.5625,1,0,0,response7disk,,1,-2.87109375,5.171875,1,0,0,rectangle,-2.87109375,5.171875,1,0,0,-2.87109375,5.171875,1,0,0,0,102,102,154,1,,,,,,,,
,,,,,,,,,,,,,FF,,,,,,,,0.6653,,,,,,,,,,,,,,,,,,,,,,60fcd314736594904a0ad216,61036bf57baab5273ba77cb8,2021-07-29_23h04.02.963,Simcolourproject_2stim_asymm_v5,2020.2.10,MacIntel,60,61025ae37ef11b136ea224fe,,,,,,,,,4080,-64.91015625,36.80078125,1,0,0,response7disk,,1,15.2890625,-2.421875,1,0,0,rectangle,15.2890625,-2.421875,1,0,0,15.2890625,-2.421875,1,0,0,0,103,103,73,1,,,,,,,,
,,,,,,,,,,,,,FF,,,,,,,,1.149,,,,,,,,,,,,,,,,,,,,,,60fcd314736594904a0ad216,61036bf57baab5273ba77cb8,2021-07-29_23h04.02.963,Simcolourproject_2stim_asymm_v5,2020.2.10,MacIntel,60,61025ae37ef11b136ea224fe,,,,,,,,,2806,97.2421875,-35.85546875,1,0,0,response3disk,,5,8.484375,-14.94140625,1,0,0,rectangle,8.484375,-14.94140625,1,0,0,8.484375,-14.94140625,1,0,0,0,104,104,110,1,,,,,,,,
,,,,,,,,,,,,,FF,,,,,,,,1.3996,,,,,,,,,,,,,,,,,,,,,,60fcd314736594904a0ad216,61036bf57baab5273ba77cb8,2021-07-29_23h04.02.963,Simcolourproject_2stim_asymm_v5,2020.2.10,MacIntel,60,61025ae37ef11b136ea224fe,,,,,,,,,3542,78.3359375,-37.06640625,1,0,0,response3disk,,5,10.7265625,-6.171875,1,0,0,rectangle,10.7265625,-6.171875,1,0,0,10.7265625,-6.171875,1,0,0,0,105,105,48,1,,,,,,,,
,,,,,,,,,,,,,FF,,,,,,,,0.8528,,,,,,,,,,,,,,,,,,,,,,60fcd314736594904a0ad216,61036bf57baab5273ba77cb8,2021-07-29_23h04.02.963,Simcolourproject_2stim_asymm_v5,2020.2.10,MacIntel,60,61025ae37ef11b136ea224fe,,,,,,,,,1109,85.71875,-35.40234375,1,0,0,response3disk,,5,-2.62109375,6.30859375,1,0,0,rectangle,-2.62109375,6.30859375,1,0,0,-2.62109375,6.30859375,1,0,0,0,106,106,14,1,,,,,,,,
,,,,,,,,,,,,,FF,,,,,,,,1.4177,,,,,,,,,,,,,,,,,,,,,,60fcd314736594904a0ad216,61036bf57baab5273ba77cb8,2021-07-29_23h04.02.963,Simcolourproject_2stim_asymm_v5,2020.2.10,MacIntel,60,61025ae37ef11b136ea224fe,,,,,,,,,2347,-36.87890625,-79.890625,1,0,0,response5disk,,3,-9.0546875,-4.84765625,1,0,0,rectangle,-9.0546875,-4.84765625,1,0,0,-9.0546875,-4.84765625,1,0,0,0,107,107,42,1,,,,,,,,
,,,,,,,,,,,,,FF,,,,,,,,0.8015,,,,,,,,,,,,,,,,,,,,,,60fcd314736594904a0ad216,61036bf57baab5273ba77cb8,2021-07-29_23h04.02.963,Simcolourproject_2stim_asymm_v5,2020.2.10,MacIntel,60,61025ae37ef11b136ea224fe,,,,,,,,,671,68.71484375,-91.953125,1,0,0,response3disk,,4,8.62109375,2.11328125,1,0,0,rectangle,76.11328125,48.90234375,1,0,0,7.7578125,-0.9921875,1,0,0,0,108,108,26,1,,response1disk_3,TRUE,6,6,"[194,24,202,153,39,32,43,200,7,94,109,119,320,7,152,135,184,73,166,21]",1.7675,rectangle
,,,,,,,,,,,,,FF,,,,,,,,1.0989,,,,,,,,,,,,,,,,,,,,,,60fcd314736594904a0ad216,61036bf57baab5273ba77cb8,2021-07-29_23h04.02.963,Simcolourproject_2stim_asymm_v5,2020.2.10,MacIntel,60,61025ae37ef11b136ea224fe,,,,,,,,,729,-82.41015625,-30.23828125,1,0,0,response5disk,,2,-17.796875,1.25,1,0,0,rectangle,-17.796875,1.25,1,0,0,-17.796875,1.25,1,0,0,0,109,109,34,1,,,,,,,,
,,,,,,,,,,,,,FF,,,,,,,,0.6999,,,,,,,,,,,,,,,,,,,,,,60fcd314736594904a0ad216,61036bf57baab5273ba77cb8,2021-07-29_23h04.02.963,Simcolourproject_2stim_asymm_v5,2020.2.10,MacIntel,60,61025ae37ef11b136ea224fe,,,,,,,,,2937,-70.9453125,-35.3203125,1,0,0,response5disk,,2,-13.67578125,-5.3203125,1,0,0,rectangle,-13.67578125,-5.3203125,1,0,0,-13.67578125,-5.3203125,1,0,0,0,110,110,3,1,,,,,,,,
,,,,,,,,,,,,,FF,,,,,,,,0.7328,,,,,,,,,,,,,,,,,,,,,,60fcd314736594904a0ad216,61036bf57baab5273ba77cb8,2021-07-29_23h04.02.963,Simcolourproject_2stim_asymm_v5,2020.2.10,MacIntel,60,61025ae37ef11b136ea224fe,,,,,,,,,3266,85.03515625,-50.7109375,1,0,0,response3disk,,5,-3.30859375,2.328125,1,0,0,rectangle,-3.30859375,2.328125,1,0,0,-3.30859375,2.328125,1,0,0,0,111,111,65,1,,,,,,,,
,,,,,,,,,,,,,FF,,,,,,,,1.7355,,,,,,,,,,,,,,,,,,,,,,60fcd314736594904a0ad216,61036bf57baab5273ba77cb8,2021-07-29_23h04.02.963,Simcolourproject_2stim_asymm_v5,2020.2.10,MacIntel,60,61025ae37ef11b136ea224fe,,,,,,,,,771,28.6953125,83.9609375,1,0,0,response1disk,,7,-4.79296875,-6.97265625,1,0,0,rectangle,-4.79296875,-6.97265625,1,0,0,-4.79296875,-6.97265625,1,0,0,0,112,112,30,1,,,,,,,,
,,,,,,,,,,,,,FF,,,,,,,,1.3153,,,,,,,,,,,,,,,,,,,,,,60fcd314736594904a0ad216,61036bf57baab5273ba77cb8,2021-07-29_23h04.02.963,Simcolourproject_2stim_asymm_v5,2020.2.10,MacIntel,60,61025ae37ef11b136ea224fe,,,,,,,,,1137,-71.625,43.13671875,1,0,0,response7disk,,1,8.76171875,14.765625,1,0,0,rectangle,8.76171875,14.765625,1,0,0,8.76171875,14.765625,1,0,0,0,113,113,126,1,,,,,,,,
,,,,,,,,,,,,,FF,,,,,,,,0.6663,,,,,,,,,,,,,,,,,,,,,,60fcd314736594904a0ad216,61036bf57baab5273ba77cb8,2021-07-29_23h04.02.963,Simcolourproject_2stim_asymm_v5,2020.2.10,MacIntel,60,61025ae37ef11b136ea224fe,,,,,,,,,1135,-90.484375,42.1953125,1,0,0,response7disk,,1,7.46484375,7.765625,1,0,0,rectangle,7.46484375,7.765625,1,0,0,7.46484375,7.765625,1,0,0,0,114,114,60,1,,,,,,,,
,,,,,,,,,,,,,FF,,,,,,,,0.6175,,,,,,,,,,,,,,,,,,,,,,60fcd314736594904a0ad216,61036bf57baab5273ba77cb8,2021-07-29_23h04.02.963,Simcolourproject_2stim_asymm_v5,2020.2.10,MacIntel,60,61025ae37ef11b136ea224fe,,,,,,,,,2157,-76.81640625,39.7109375,1,0,0,response7disk,,1,1.0546875,-2.28515625,1,0,0,rectangle,1.0546875,-2.28515625,1,0,0,1.0546875,-2.28515625,1,0,0,0,115,115,9,1,,,,,,,,
,,,,,,,,,,,,,FF,,,,,,,,1.0838,,,,,,,,,,,,,,,,,,,,,,60fcd314736594904a0ad216,61036bf57baab5273ba77cb8,2021-07-29_23h04.02.963,Simcolourproject_2stim_asymm_v5,2020.2.10,MacIntel,60,61025ae37ef11b136ea224fe,,,,,,,,,1189,34.7890625,84.984375,1,0,0,response1disk,,7,4.80859375,5.6171875,1,0,0,rectangle,4.80859375,5.6171875,1,0,0,4.80859375,5.6171875,1,0,0,0,116,116,5,1,,,,,,,,
,,,,,,,,,,,,,FF,,,,,,,,1.5999,,,,,,,,,,,,,,,,,,,,,,60fcd314736594904a0ad216,61036bf57baab5273ba77cb8,2021-07-29_23h04.02.963,Simcolourproject_2stim_asymm_v5,2020.2.10,MacIntel,60,61025ae37ef11b136ea224fe,,,,,,,,,737,70.06640625,-43.8984375,1,0,0,response3disk,,5,0.0703125,15.3515625,1,0,0,rectangle,0.0703125,15.3515625,1,0,0,0.0703125,15.3515625,1,0,0,0,117,117,21,1,,,,,,,,
,,,,,,,,,,,,,FF,,,,,,,,0.7172,,,,,,,,,,,,,,,,,,,,,,60fcd314736594904a0ad216,61036bf57baab5273ba77cb8,2021-07-29_23h04.02.963,Simcolourproject_2stim_asymm_v5,2020.2.10,MacIntel,60,61025ae37ef11b136ea224fe,,,,,,,,,1241,89.4296875,-40.27734375,1,0,0,response3disk,,5,0.8046875,7.35546875,1,0,0,rectangle,-68.49609375,50.546875,1,0,0,-0.796875,6.828125,1,0,0,0,118,118,122,1,,response7disk_3,TRUE,1,1,"[194,24,202,153,39,32,43,200,7,94,109,119,320,7,152,135,184,73,166,21]",1.3176,rectangle
,,,,,,,,,,,,,FF,,,,,,,,1.4164,,,,,,,,,,,,,,,,,,,,,,60fcd314736594904a0ad216,61036bf57baab5273ba77cb8,2021-07-29_23h04.02.963,Simcolourproject_2stim_asymm_v5,2020.2.10,MacIntel,60,61025ae37ef11b136ea224fe,,,,,,,,,592,-43.66796875,-73.75,1,0,0,response5disk,,3,-1.46484375,-9.41796875,1,0,0,rectangle,-1.46484375,-9.41796875,1,0,0,-1.46484375,-9.41796875,1,0,0,0,119,119,76,1,,,,,,,,
,,,,,,,,,,,,,FF,,,,,,,,1.0847,,,,,,,,,,,,,,,,,,,,,,60fcd314736594904a0ad216,61036bf57baab5273ba77cb8,2021-07-29_23h04.02.963,Simcolourproject_2stim_asymm_v5,2020.2.10,MacIntel,60,61025ae37ef11b136ea224fe,,,,,,,,,1727,79.5234375,-36.15625,1,0,0,response3disk,,5,24.8515625,-17.390625,1,0,0,rectangle,24.8515625,-17.390625,1,0,0,24.8515625,-17.390625,1,0,0,0,120,120,17,1,,,,,,,,
,,,,,,,,,,,,,FF,,,,,,,,0.8823,,,,,,,,,,,,,,,,,,,,,,60fcd314736594904a0ad216,61036bf57baab5273ba77cb8,2021-07-29_23h04.02.963,Simcolourproject_2stim_asymm_v5,2020.2.10,MacIntel,60,61025ae37ef11b136ea224fe,,,,,,,,,3232,34.8125,83.7578125,1,0,0,response1disk,,7,4.86328125,6.98828125,1,0,0,rectangle,4.86328125,6.98828125,1,0,0,4.86328125,6.98828125,1,0,0,0,121,121,93,1,,,,,,,,
,,,,,,,,,,,,,FF,,,,,,,,0.6178,,,,,,,,,,,,,,,,,,,,,,60fcd314736594904a0ad216,61036bf57baab5273ba77cb8,2021-07-29_23h04.02.963,Simcolourproject_2stim_asymm_v5,2020.2.10,MacIntel,60,61025ae37ef11b136ea224fe,,,,,,,,,143,33.30859375,65.57421875,1,0,0,response1disk,,7,-0.90625,4.72265625,1,0,0,rectangle,-0.90625,4.72265625,1,0,0,-0.90625,4.72265625,1,0,0,0,122,122,57,1,,,,,,,,
,,,,,,,,,,,,,FF,,,,,,,,0.632,,,,,,,,,,,,,,,,,,,,,,60fcd314736594904a0ad216,61036bf57baab5273ba77cb8,2021-07-29_23h04.02.963,Simcolourproject_2stim_asymm_v5,2020.2.10,MacIntel,60,61025ae37ef11b136ea224fe,,,,,,,,,3489,29.2421875,81.28125,1,0,0,response1disk,,7,3.9140625,-6.9921875,1,0,0,rectangle,3.9140625,-6.9921875,1,0,0,3.9140625,-6.9921875,1,0,0,0,123,123,74,1,,,,,,,,
,,,,,,,,,,,,,FF,,,,,,,,0.902,,,,,,,,,,,,,,,,,,,,,,60fcd314736594904a0ad216,61036bf57baab5273ba77cb8,2021-07-29_23h04.02.963,Simcolourproject_2stim_asymm_v5,2020.2.10,MacIntel,60,61025ae37ef11b136ea224fe,,,,,,,,,4223,-46.42578125,77.25,1,0,0,response7disk,,0,6.8046875,-1.59765625,1,0,0,rectangle,6.8046875,-1.59765625,1,0,0,6.8046875,-1.59765625,1,0,0,0,124,124,67,1,,,,,,,,
,,,,,,,,,,,,,FF,,,,,,,,0.7822,,,,,,,,,,,,,,,,,,,,,,60fcd314736594904a0ad216,61036bf57baab5273ba77cb8,2021-07-29_23h04.02.963,Simcolourproject_2stim_asymm_v5,2020.2.10,MacIntel,60,61025ae37ef11b136ea224fe,,,,,,,,,299,54.484375,91.41796875,1,0,0,response1disk,,7,19.56640625,13.01953125,1,0,0,rectangle,19.56640625,13.01953125,1,0,0,19.56640625,13.01953125,1,0,0,0,125,125,83,1,,,,,,,,
,,,,,,,,,,,,,FF,,,,,,,,1.0509,,,,,,,,,,,,,,,,,,,,,,60fcd314736594904a0ad216,61036bf57baab5273ba77cb8,2021-07-29_23h04.02.963,Simcolourproject_2stim_asymm_v5,2020.2.10,MacIntel,60,61025ae37ef11b136ea224fe,,,,,,,,,865,-40.23046875,-72.06640625,1,0,0,response5disk,,3,3.03125,-2.34765625,1,0,0,rectangle,3.03125,-2.34765625,1,0,0,3.03125,-2.34765625,1,0,0,0,126,126,81,1,,,,,,,,
,,,,,,,,,,,,,FF,,,,,,,,0.9182,,,,,,,,,,,,,,,,,,,,,,60fcd314736594904a0ad216,61036bf57baab5273ba77cb8,2021-07-29_23h04.02.963,Simcolourproject_2stim_asymm_v5,2020.2.10,MacIntel,60,61025ae37ef11b136ea224fe,,,,,,,,,3684,72.23828125,-37.23046875,1,0,0,response3disk,,5,5.8359375,7.43359375,1,0,0,rectangle,5.8359375,7.43359375,1,0,0,5.8359375,7.43359375,1,0,0,0,127,127,15,1,,,,,,,,
,,,,,,,,,,,,,FF,,,,,,,,0.8157,,,,,,,,,,,,,,,,,,,,,,60fcd314736594904a0ad216,61036bf57baab5273ba77cb8,2021-07-29_23h04.02.963,Simcolourproject_2stim_asymm_v5,2020.2.10,MacIntel,60,61025ae37ef11b136ea224fe,,,,,,,,,3202,-44.99609375,63.5703125,1,0,0,response7disk,,0,3.48828125,-2.48046875,1,0,0,rectangle,3.48828125,-2.48046875,1,0,0,3.48828125,-2.48046875,1,0,0,0,128,128,116,1,,,,,,,,
,,,,,,,,,,,,,FF,,,,,,,,1.2989,,,,,,,,,,,,,,,,,,,,,,60fcd314736594904a0ad216,61036bf57baab5273ba77cb8,2021-07-29_23h04.02.963,Simcolourproject_2stim_asymm_v5,2020.2.10,MacIntel,60,61025ae37ef11b136ea224fe,,,,,,,,,1999,95.90234375,47.3359375,1,0,0,response1disk,,6,-11.64453125,4.01953125,1,0,0,rectangle,-11.64453125,4.01953125,1,0,0,-11.64453125,4.01953125,1,0,0,0,129,129,108,1,,,,,,,,
,,,,,,,,,,,,,FF,,,,,,,,1.5664,,,,,,,,,,,,,,,,,,,,,,60fcd314736594904a0ad216,61036bf57baab5273ba77cb8,2021-07-29_23h04.02.963,Simcolourproject_2stim_asymm_v5,2020.2.10,MacIntel,60,61025ae37ef11b136ea224fe,,,,,,,,,1005,-35.68359375,-63.3203125,1,0,0,response5disk,,3,-11.0234375,9.8359375,1,0,0,rectangle,-11.0234375,9.8359375,1,0,0,-11.0234375,9.8359375,1,0,0,0,130,130,6,1,,,,,,,,
,,,,,,,,,,,,,FF,,,,,,,,0.8654,,,,,,,,,,,,,,,,,,,,,,60fcd314736594904a0ad216,61036bf57baab5273ba77cb8,2021-07-29_23h04.02.963,Simcolourproject_2stim_asymm_v5,2020.2.10,MacIntel,60,61025ae37ef11b136ea224fe,,,,,,,,,1087,51.33984375,68.6640625,1,0,0,response1disk,,7,-10.43359375,-5.6015625,1,0,0,rectangle,-10.43359375,-5.6015625,1,0,0,-10.43359375,-5.6015625,1,0,0,0,131,131,68,1,,,,,,,,
,,,,,,,,,,,,,FF,,,,,,,,1.1832,,,,,,,,,,,,,,,,,,,,,,60fcd314736594904a0ad216,61036bf57baab5273ba77cb8,2021-07-29_23h04.02.963,Simcolourproject_2stim_asymm_v5,2020.2.10,MacIntel,60,61025ae37ef11b136ea224fe,,,,,,,,,3564,44.484375,-69.0859375,1,0,0,response3disk,,4,-2.31640625,-8.06640625,1,0,0,rectangle,-2.31640625,-8.06640625,1,0,0,-2.31640625,-8.06640625,1,0,0,0,132,132,95,1,,,,,,,,
,,,,,,,,,,,,,FF,,,,,,,,1.0173,,,,,,,,,,,,,,,,,,,,,,60fcd314736594904a0ad216,61036bf57baab5273ba77cb8,2021-07-29_23h04.02.963,Simcolourproject_2stim_asymm_v5,2020.2.10,MacIntel,60,61025ae37ef11b136ea224fe,,,,,,,,,2143,83.23046875,-25.53125,1,0,0,response3disk,,5,22.06640625,-1.02734375,1,0,0,rectangle,22.06640625,-1.02734375,1,0,0,22.06640625,-1.02734375,1,0,0,0,133,133,125,1,,,,,,,,
,,,,,,,,,,,,,FF,,,,,,,,0.65,,,,,,,,,,,,,,,,,,,,,,60fcd314736594904a0ad216,61036bf57baab5273ba77cb8,2021-07-29_23h04.02.963,Simcolourproject_2stim_asymm_v5,2020.2.10,MacIntel,60,61025ae37ef11b136ea224fe,,,,,,,,,2761,43.5390625,79.33984375,1,0,0,response1disk,,7,9.9765625,-9.359375,1,0,0,rectangle,-89.46875,35.328125,1,0,0,7.5078125,12.8359375,1,0,0,0,134,134,62,1,,response7disk_3,TRUE,1,1,"[194,24,202,153,39,32,43,200,7,94,109,119,320,7,152,135,184,73,166,21]",1.1992,rectangle
,,,,,,,,,,,,,FF,,,,,,,,0.8334,,,,,,,,,,,,,,,,,,,,,,60fcd314736594904a0ad216,61036bf57baab5273ba77cb8,2021-07-29_23h04.02.963,Simcolourproject_2stim_asymm_v5,2020.2.10,MacIntel,60,61025ae37ef11b136ea224fe,,,,,,,,,136,43.0625,77.3046875,1,0,0,response1disk,,7,5.1953125,8.68359375,1,0,0,rectangle,5.1953125,8.68359375,1,0,0,5.1953125,8.68359375,1,0,0,0,135,135,77,1,,,,,,,,
,,,,,,,,,,,,,FF,,,,,,,,0.6848,,,,,,,,,,,,,,,,,,,,,,60fcd314736594904a0ad216,61036bf57baab5273ba77cb8,2021-07-29_23h04.02.963,Simcolourproject_2stim_asymm_v5,2020.2.10,MacIntel,60,61025ae37ef11b136ea224fe,,,,,,,,,1130,24.2890625,69.1484375,1,0,0,response1disk,,7,-5.6484375,-13.28125,1,0,0,rectangle,-5.6484375,-13.28125,1,0,0,-5.6484375,-13.28125,1,0,0,0,136,136,151,1,,,,,,,,
,,,,,,,,,,,,,FF,,,,,,,,1.1502,,,,,,,,,,,,,,,,,,,,,,60fcd314736594904a0ad216,61036bf57baab5273ba77cb8,2021-07-29_23h04.02.963,Simcolourproject_2stim_asymm_v5,2020.2.10,MacIntel,60,61025ae37ef11b136ea224fe,,,,,,,,,2501,-38.19921875,-84.4296875,1,0,0,response5disk,,3,-13.2109375,-14.88671875,1,0,0,rectangle,-13.2109375,-14.88671875,1,0,0,-13.2109375,-14.88671875,1,0,0,0,137,137,47,1,,,,,,,,
,,,,,,,,,,,,,FF,,,,,,,,0.9503,,,,,,,,,,,,,,,,,,,,,,60fcd314736594904a0ad216,61036bf57baab5273ba77cb8,2021-07-29_23h04.02.963,Simcolourproject_2stim_asymm_v5,2020.2.10,MacIntel,60,61025ae37ef11b136ea224fe,,,,,,,,,1111,22.71875,-58.61328125,1,0,0,response3disk,,4,2.86328125,4.37109375,1,0,0,rectangle,2.86328125,4.37109375,1,0,0,2.86328125,4.37109375,1,0,0,0,138,138,36,1,,,,,,,,
,,,,,,,,,,,,,FF,,,,,,,,0.8498,,,,,,,,,,,,,,,,,,,,,,60fcd314736594904a0ad216,61036bf57baab5273ba77cb8,2021-07-29_23h04.02.963,Simcolourproject_2stim_asymm_v5,2020.2.10,MacIntel,60,61025ae37ef11b136ea224fe,,,,,,,,,3766,37.30078125,64.48046875,1,0,0,response1disk,,7,11.734375,1.33203125,1,0,0,rectangle,11.734375,1.33203125,1,0,0,11.734375,1.33203125,1,0,0,0,139,139,103,1,,,,,,,,
,,,,,,,,,,,,,FF,,,,,,,,0.7001,,,,,,,,,,,,,,,,,,,,,,60fcd314736594904a0ad216,61036bf57baab5273ba77cb8,2021-07-29_23h04.02.963,Simcolourproject_2stim_asymm_v5,2020.2.10,MacIntel,60,61025ae37ef11b136ea224fe,,,,,,,,,1360,32.35546875,89.12890625,1,0,0,response1disk,,7,4.7109375,-4.44140625,1,0,0,rectangle,4.7109375,-4.44140625,1,0,0,4.7109375,-4.44140625,1,0,0,0,140,140,18,1,,,,,,,,
,,,,,,,,,,,,,FF,,,,,,,,0.6333,,,,,,,,,,,,,,,,,,,,,,60fcd314736594904a0ad216,61036bf57baab5273ba77cb8,2021-07-29_23h04.02.963,Simcolourproject_2stim_asymm_v5,2020.2.10,MacIntel,60,61025ae37ef11b136ea224fe,,,,,,,,,4323,23.546875,81.48046875,1,0,0,response1disk,,7,3.8828125,15.1953125,1,0,0,rectangle,3.8828125,15.1953125,1,0,0,3.8828125,15.1953125,1,0,0,0,141,141,159,1,,,,,,,,
,,,,,,,,,,,,,FF,,,,,,,,0.7008,,,,,,,,,,,,,,,,,,,,,,60fcd314736594904a0ad216,61036bf57baab5273ba77cb8,2021-07-29_23h04.02.963,Simcolourproject_2stim_asymm_v5,2020.2.10,MacIntel,60,61025ae37ef11b136ea224fe,,,,,,,,,3327,41.37109375,92.74609375,1,0,0,response1disk,,7,1.5625,-4.4453125,1,0,0,rectangle,1.5625,-4.4453125,1,0,0,1.5625,-4.4453125,1,0,0,0,142,142,84,1,,,,,,,,
,,,,,,,,,,,,,FF,,,,,,,,7.6189,,,,,,,,,,,,,,,,,,,,,,60fcd314736594904a0ad216,61036bf57baab5273ba77cb8,2021-07-29_23h04.02.963,Simcolourproject_2stim_asymm_v5,2020.2.10,MacIntel,60,61025ae37ef11b136ea224fe,,,,,,,,,3171,43.6015625,66.265625,1,0,0,response1disk,,7,2.640625,-5.48828125,1,0,0,rectangle,2.640625,-5.48828125,1,0,0,2.640625,-5.48828125,1,0,0,0,143,143,1,1,,,,,,,,
,,,,,,,,,,,,,FF,,,,,,,,0.5151,,,,,,,,,,,,,,,,,,,,,,60fcd314736594904a0ad216,61036bf57baab5273ba77cb8,2021-07-29_23h04.02.963,Simcolourproject_2stim_asymm_v5,2020.2.10,MacIntel,60,61025ae37ef11b136ea224fe,,,,,,,,,2023,49.12109375,84.88671875,1,0,0,response1disk,,7,-0.2421875,-1.3828125,1,0,0,rectangle,-0.2421875,-1.3828125,1,0,0,-0.2421875,-1.3828125,1,0,0,0,144,144,147,1,,,,,,,,
,,,,,,,,,,,,,FF,,,,,,,,0.5501,,,,,,,,,,,,,,,,,,,,,,60fcd314736594904a0ad216,61036bf57baab5273ba77cb8,2021-07-29_23h04.02.963,Simcolourproject_2stim_asymm_v5,2020.2.10,MacIntel,60,61025ae37ef11b136ea224fe,,,,,,,,,4147,-56.23046875,90.02734375,1,0,0,response7disk,,0,-7.93359375,-7.65625,1,0,0,rectangle,-7.93359375,-7.65625,1,0,0,-7.93359375,-7.65625,1,0,0,0,145,145,91,1,,,,,,,,
,,,,,,,,,,,,,FF,,,,,,,,0.9669,,,,,,,,,,,,,,,,,,,,,,60fcd314736594904a0ad216,61036bf57baab5273ba77cb8,2021-07-29_23h04.02.963,Simcolourproject_2stim_asymm_v5,2020.2.10,MacIntel,60,61025ae37ef11b136ea224fe,,,,,,,,,2246,-42.11328125,-66.296875,1,0,0,response5disk,,3,-2.20703125,4.12109375,1,0,0,rectangle,-2.20703125,4.12109375,1,0,0,-2.20703125,4.12109375,1,0,0,0,146,146,75,1,,,,,,,,
,,,,,,,,,,,,,FF,,,,,,,,1.4653,,,,,,,,,,,,,,,,,,,,,,60fcd314736594904a0ad216,61036bf57baab5273ba77cb8,2021-07-29_23h04.02.963,Simcolourproject_2stim_asymm_v5,2020.2.10,MacIntel,60,61025ae37ef11b136ea224fe,,,,,,,,,643,61.0859375,41.84765625,1,0,0,response1disk,,6,25.19921875,17.7578125,1,0,0,rectangle,25.19921875,17.7578125,1,0,0,25.19921875,17.7578125,1,0,0,0,147,147,105,1,,,,,,,,
,,,,,,,,,,,,,FF,,,,,,,,0.6852,,,,,,,,,,,,,,,,,,,,,,60fcd314736594904a0ad216,61036bf57baab5273ba77cb8,2021-07-29_23h04.02.963,Simcolourproject_2stim_asymm_v5,2020.2.10,MacIntel,60,61025ae37ef11b136ea224fe,,,,,,,,,4322,76.6875,38.23828125,1,0,0,response1disk,,6,8.33984375,5.609375,1,0,0,rectangle,8.33984375,5.609375,1,0,0,8.33984375,5.609375,1,0,0,0,148,148,118,1,,,,,,,,
,,,,,,,,,,,,,FF,,,,,,,,1.0331,,,,,,,,,,,,,,,,,,,,,,60fcd314736594904a0ad216,61036bf57baab5273ba77cb8,2021-07-29_23h04.02.963,Simcolourproject_2stim_asymm_v5,2020.2.10,MacIntel,60,61025ae37ef11b136ea224fe,,,,,,,,,2794,32.26953125,82.90234375,1,0,0,response1disk,,7,1.60546875,0.65625,1,0,0,rectangle,1.60546875,0.65625,1,0,0,1.60546875,0.65625,1,0,0,0,149,149,29,1,,,,,,,,
,,,,,,,,,,,,,FF,,,,,,,,0.5988,,,,,,,,,,,,,,,,,,,,,,60fcd314736594904a0ad216,61036bf57baab5273ba77cb8,2021-07-29_23h04.02.963,Simcolourproject_2stim_asymm_v5,2020.2.10,MacIntel,60,61025ae37ef11b136ea224fe,,,,,,,,,1497,37.8828125,87.359375,1,0,0,response1disk,,7,-2.0234375,0.015625,1,0,0,rectangle,-2.0234375,0.015625,1,0,0,-2.0234375,0.015625,1,0,0,0,150,150,149,1,,,,,,,,
,,,,,,,,,,,,,FF,,,,,,,,1.6525,,,,,,,,,,,,,,,,,,,,,,60fcd314736594904a0ad216,61036bf57baab5273ba77cb8,2021-07-29_23h04.02.963,Simcolourproject_2stim_asymm_v5,2020.2.10,MacIntel,60,61025ae37ef11b136ea224fe,,,,,,,,,1110,-29.50390625,-82.37109375,1,0,0,response5disk,,3,-8.16796875,-7.3984375,1,0,0,rectangle,91.921875,43.578125,1,0,0,16.0546875,3.55859375,1,0,0,0,151,151,109,1,,response1disk_3,TRUE,6,6,"[194,24,202,153,39,32,43,200,7,94,109,119,320,7,152,135,184,73,166,21]",1.65,rectangle
,,,,,,,,,,,,,FF,,,,,,,,0.7996,,,,,,,,,,,,,,,,,,,,,,60fcd314736594904a0ad216,61036bf57baab5273ba77cb8,2021-07-29_23h04.02.963,Simcolourproject_2stim_asymm_v5,2020.2.10,MacIntel,60,61025ae37ef11b136ea224fe,,,,,,,,,1895,-19.078125,71.1953125,1,0,0,response7disk,,0,13.375,6.5390625,1,0,0,rectangle,-32.9296875,72.5,1,0,0,9,-0.828125,1,0,0,0,152,152,90,1,,response7disk_3,TRUE,0,0,"[194,24,202,153,39,32,43,200,7,94,109,119,320,7,152,135,184,73,166,21]",4.1177,rectangle
,,,,,,,,,,,,,FF,,,,,,,,0.8318,,,,,,,,,,,,,,,,,,,,,,60fcd314736594904a0ad216,61036bf57baab5273ba77cb8,2021-07-29_23h04.02.963,Simcolourproject_2stim_asymm_v5,2020.2.10,MacIntel,60,61025ae37ef11b136ea224fe,,,,,,,,,4199,37.703125,66.1015625,1,0,0,response1disk,,7,3.80859375,-7.0625,1,0,0,rectangle,3.80859375,-7.0625,1,0,0,3.80859375,-7.0625,1,0,0,0,153,153,145,1,,,,,,,,
,,,,,,,,,,,,,FF,,,,,,,,1.167,,,,,,,,,,,,,,,,,,,,,,60fcd314736594904a0ad216,61036bf57baab5273ba77cb8,2021-07-29_23h04.02.963,Simcolourproject_2stim_asymm_v5,2020.2.10,MacIntel,60,61025ae37ef11b136ea224fe,,,,,,,,,1580,-25.00390625,-67.359375,1,0,0,response5disk,,3,-8.98046875,1.6171875,1,0,0,rectangle,-8.98046875,1.6171875,1,0,0,-8.98046875,1.6171875,1,0,0,0,154,154,106,1,,,,,,,,
,,,,,,,,,,,,,FF,,,,,,,,1.2997,,,,,,,,,,,,,,,,,,,,,,60fcd314736594904a0ad216,61036bf57baab5273ba77cb8,2021-07-29_23h04.02.963,Simcolourproject_2stim_asymm_v5,2020.2.10,MacIntel,60,61025ae37ef11b136ea224fe,,,,,,,,,3507,-38.48828125,56.7578125,1,0,0,response7disk,,0,-2.9375,-4.99609375,1,0,0,rectangle,-2.9375,-4.99609375,1,0,0,-2.9375,-4.99609375,1,0,0,0,155,155,119,1,,,,,,,,
,,,,,,,,,,,,,FF,,,,,,,,0.8325,,,,,,,,,,,,,,,,,,,,,,60fcd314736594904a0ad216,61036bf57baab5273ba77cb8,2021-07-29_23h04.02.963,Simcolourproject_2stim_asymm_v5,2020.2.10,MacIntel,60,61025ae37ef11b136ea224fe,,,,,,,,,1339,32.71875,76.19140625,1,0,0,response1disk,,7,11.08203125,12.3828125,1,0,0,rectangle,11.08203125,12.3828125,1,0,0,11.08203125,12.3828125,1,0,0,0,156,156,133,1,,,,,,,,
,,,,,,,,,,,,,FF,,,,,,,,1.0659,,,,,,,,,,,,,,,,,,,,,,60fcd314736594904a0ad216,61036bf57baab5273ba77cb8,2021-07-29_23h04.02.963,Simcolourproject_2stim_asymm_v5,2020.2.10,MacIntel,60,61025ae37ef11b136ea224fe,,,,,,,,,388,-33.16015625,-82.30078125,1,0,0,response5disk,,3,13.23046875,7.08984375,1,0,0,rectangle,13.23046875,7.08984375,1,0,0,13.23046875,7.08984375,1,0,0,0,157,157,82,1,,,,,,,,
,,,,,,,,,,,,,FF,,,,,,,,1.6656,,,,,,,,,,,,,,,,,,,,,,60fcd314736594904a0ad216,61036bf57baab5273ba77cb8,2021-07-29_23h04.02.963,Simcolourproject_2stim_asymm_v5,2020.2.10,MacIntel,60,61025ae37ef11b136ea224fe,,,,,,,,,3613,109.6523438,54.83203125,1,0,0,response1disk,,6,9.28125,5.7578125,1,0,0,rectangle,9.28125,5.7578125,1,0,0,9.28125,5.7578125,1,0,0,0,158,158,117,1,,,,,,,,
,,,,,,,,,,,,,FF,,,,,,,,0.9499,,,,,,,,,,,,,,,,,,,,,,60fcd314736594904a0ad216,61036bf57baab5273ba77cb8,2021-07-29_23h04.02.963,Simcolourproject_2stim_asymm_v5,2020.2.10,MacIntel,60,61025ae37ef11b136ea224fe,,,,,,,,,705,-76.62890625,-43.3125,1,0,0,response5disk,,2,8.73046875,-8.03125,1,0,0,rectangle,8.73046875,-8.03125,1,0,0,8.73046875,-8.03125,1,0,0,0,159,159,49,1,,,,,,,,
,,,,,,,,,,,,,FF,,,,,,,,0.8982,,,,,,,,,,,,,,,,,,,,,,60fcd314736594904a0ad216,61036bf57baab5273ba77cb8,2021-07-29_23h04.02.963,Simcolourproject_2stim_asymm_v5,2020.2.10,MacIntel,60,61025ae37ef11b136ea224fe,,,,,,,,,1509,65.296875,-35.37109375,1,0,0,response3disk,,5,1.59765625,-14.3515625,1,0,0,rectangle,1.59765625,-14.3515625,1,0,0,1.59765625,-14.3515625,1,0,0,1,0,160,133,1,,,,,,,,
,,,,,,,,,,,,,FF,,,,,,,,0.7507,,,,,,,,,,,,,,,,,,,,,,60fcd314736594904a0ad216,61036bf57baab5273ba77cb8,2021-07-29_23h04.02.963,Simcolourproject_2stim_asymm_v5,2020.2.10,MacIntel,60,61025ae37ef11b136ea224fe,,,,,,,,,2964,47.41015625,90.55859375,1,0,0,response1disk,,7,-11.4765625,1.02734375,1,0,0,rectangle,-11.4765625,1.02734375,1,0,0,-11.4765625,1.02734375,1,0,0,1,1,161,131,1,,,,,,,,
,,,,,,,,,,,,,FF,,,,,,,,0.8154,,,,,,,,,,,,,,,,,,,,,,60fcd314736594904a0ad216,61036bf57baab5273ba77cb8,2021-07-29_23h04.02.963,Simcolourproject_2stim_asymm_v5,2020.2.10,MacIntel,60,61025ae37ef11b136ea224fe,,,,,,,,,218,46.05859375,81.5546875,1,0,0,response1disk,,7,9.05859375,5.07421875,1,0,0,rectangle,9.05859375,5.07421875,1,0,0,9.05859375,5.07421875,1,0,0,1,2,162,79,1,,,,,,,,
,,,,,,,,,,,,,FF,,,,,,,,1.0154,,,,,,,,,,,,,,,,,,,,,,60fcd314736594904a0ad216,61036bf57baab5273ba77cb8,2021-07-29_23h04.02.963,Simcolourproject_2stim_asymm_v5,2020.2.10,MacIntel,60,61025ae37ef11b136ea224fe,,,,,,,,,4367,-44.015625,96.6875,1,0,0,response7disk,,0,-5.39453125,6.04296875,1,0,0,rectangle,-5.39453125,6.04296875,1,0,0,-5.39453125,6.04296875,1,0,0,1,3,163,3,1,,,,,,,,
,,,,,,,,,,,,,FF,,,,,,,,0.9832,,,,,,,,,,,,,,,,,,,,,,60fcd314736594904a0ad216,61036bf57baab5273ba77cb8,2021-07-29_23h04.02.963,Simcolourproject_2stim_asymm_v5,2020.2.10,MacIntel,60,61025ae37ef11b136ea224fe,,,,,,,,,343,-94.77734375,41.7578125,1,0,0,response7disk,,1,12.08203125,-2.234375,1,0,0,rectangle,12.08203125,-2.234375,1,0,0,12.08203125,-2.234375,1,0,0,1,4,164,2,1,,,,,,,,
,,,,,,,,,,,,,FF,,,,,,,,1.4168,,,,,,,,,,,,,,,,,,,,,,60fcd314736594904a0ad216,61036bf57baab5273ba77cb8,2021-07-29_23h04.02.963,Simcolourproject_2stim_asymm_v5,2020.2.10,MacIntel,60,61025ae37ef11b136ea224fe,,,,,,,,,1427,83.515625,-45.29296875,1,0,0,response3disk,,5,10.640625,-0.78515625,1,0,0,rectangle,97.53515625,-39.9921875,1,0,0,17.6015625,-13.9296875,1,0,0,1,5,165,58,1,,response3disk_3,TRUE,5,5,"[194,24,202,153,39,32,43,200,7,94,109,119,320,7,152,135,184,73,166,21]",1.8484,rectangle
,,,,,,,,,,,,,FF,,,,,,,,1.4353,,,,,,,,,,,,,,,,,,,,,,60fcd314736594904a0ad216,61036bf57baab5273ba77cb8,2021-07-29_23h04.02.963,Simcolourproject_2stim_asymm_v5,2020.2.10,MacIntel,60,61025ae37ef11b136ea224fe,,,,,,,,,1403,72.8359375,22.51171875,1,0,0,response1disk,,6,9.1796875,0.91015625,1,0,0,rectangle,9.1796875,0.91015625,1,0,0,9.1796875,0.91015625,1,0,0,1,6,166,6,1,,,,,,,,
,,,,,,,,,,,,,FF,,,,,,,,0.8817,,,,,,,,,,,,,,,,,,,,,,60fcd314736594904a0ad216,61036bf57baab5273ba77cb8,2021-07-29_23h04.02.963,Simcolourproject_2stim_asymm_v5,2020.2.10,MacIntel,60,61025ae37ef11b136ea224fe,,,,,,,,,422,66.30078125,26.765625,1,0,0,response1disk,,6,16.69140625,-3.9140625,1,0,0,rectangle,16.69140625,-3.9140625,1,0,0,16.69140625,-3.9140625,1,0,0,1,7,167,83,1,,,,,,,,
,,,,,,,,,,,,,FF,,,,,,,,1.0339,,,,,,,,,,,,,,,,,,,,,,60fcd314736594904a0ad216,61036bf57baab5273ba77cb8,2021-07-29_23h04.02.963,Simcolourproject_2stim_asymm_v5,2020.2.10,MacIntel,60,61025ae37ef11b136ea224fe,,,,,,,,,4236,-63.4765625,32.53515625,1,0,0,response7disk,,1,7.109375,5.19140625,1,0,0,rectangle,7.109375,5.19140625,1,0,0,7.109375,5.19140625,1,0,0,1,8,168,16,1,,,,,,,,
,,,,,,,,,,,,,FF,,,,,,,,1.2997,,,,,,,,,,,,,,,,,,,,,,60fcd314736594904a0ad216,61036bf57baab5273ba77cb8,2021-07-29_23h04.02.963,Simcolourproject_2stim_asymm_v5,2020.2.10,MacIntel,60,61025ae37ef11b136ea224fe,,,,,,,,,1357,39.17578125,-80.9296875,1,0,0,response3disk,,4,-0.47265625,4.57421875,1,0,0,rectangle,-0.47265625,4.57421875,1,0,0,-0.47265625,4.57421875,1,0,0,1,9,169,24,1,,,,,,,,
,,,,,,,,,,,,,FF,,,,,,,,1.3526,,,,,,,,,,,,,,,,,,,,,,60fcd314736594904a0ad216,61036bf57baab5273ba77cb8,2021-07-29_23h04.02.963,Simcolourproject_2stim_asymm_v5,2020.2.10,MacIntel,60,61025ae37ef11b136ea224fe,,,,,,,,,3713,-70.515625,24.7890625,1,0,0,response7disk,,1,-4.484375,-2.51171875,1,0,0,rectangle,-4.484375,-2.51171875,1,0,0,-4.484375,-2.51171875,1,0,0,1,10,170,114,1,,,,,,,,
,,,,,,,,,,,,,FF,,,,,,,,0.7653,,,,,,,,,,,,,,,,,,,,,,60fcd314736594904a0ad216,61036bf57baab5273ba77cb8,2021-07-29_23h04.02.963,Simcolourproject_2stim_asymm_v5,2020.2.10,MacIntel,60,61025ae37ef11b136ea224fe,,,,,,,,,3299,34.90234375,71.91015625,1,0,0,response1disk,,7,10.60546875,16.21484375,1,0,0,rectangle,10.60546875,16.21484375,1,0,0,10.60546875,16.21484375,1,0,0,1,11,171,92,1,,,,,,,,
,,,,,,,,,,,,,FF,,,,,,,,0.8,,,,,,,,,,,,,,,,,,,,,,60fcd314736594904a0ad216,61036bf57baab5273ba77cb8,2021-07-29_23h04.02.963,Simcolourproject_2stim_asymm_v5,2020.2.10,MacIntel,60,61025ae37ef11b136ea224fe,,,,,,,,,253,-87.26171875,35.7890625,1,0,0,response7disk,,1,-11.1640625,13.82421875,1,0,0,rectangle,-11.1640625,13.82421875,1,0,0,-11.1640625,13.82421875,1,0,0,1,12,172,18,1,,,,,,,,
,,,,,,,,,,,,,FF,,,,,,,,0.9346,,,,,,,,,,,,,,,,,,,,,,60fcd314736594904a0ad216,61036bf57baab5273ba77cb8,2021-07-29_23h04.02.963,Simcolourproject_2stim_asymm_v5,2020.2.10,MacIntel,60,61025ae37ef11b136ea224fe,,,,,,,,,1791,23.23828125,79.48046875,1,0,0,response1disk,,7,4.58203125,9.15625,1,0,0,rectangle,4.58203125,9.15625,1,0,0,4.58203125,9.15625,1,0,0,1,13,173,109,1,,,,,,,,
,,,,,,,,,,,,,FF,,,,,,,,1.0527,,,,,,,,,,,,,,,,,,,,,,60fcd314736594904a0ad216,61036bf57baab5273ba77cb8,2021-07-29_23h04.02.963,Simcolourproject_2stim_asymm_v5,2020.2.10,MacIntel,60,61025ae37ef11b136ea224fe,,,,,,,,,3083,34.65625,66.1875,1,0,0,response1disk,,7,17.59375,2.97265625,1,0,0,rectangle,17.59375,2.97265625,1,0,0,17.59375,2.97265625,1,0,0,1,14,174,63,1,,,,,,,,
,,,,,,,,,,,,,FF,,,,,,,,0.9831,,,,,,,,,,,,,,,,,,,,,,60fcd314736594904a0ad216,61036bf57baab5273ba77cb8,2021-07-29_23h04.02.963,Simcolourproject_2stim_asymm_v5,2020.2.10,MacIntel,60,61025ae37ef11b136ea224fe,,,,,,,,,167,-90.94921875,29.29296875,1,0,0,response7disk,,1,-19.40625,10.09765625,1,0,0,rectangle,-19.40625,10.09765625,1,0,0,-19.40625,10.09765625,1,0,0,1,15,175,26,1,,,,,,,,
,,,,,,,,,,,,,FF,,,,,,,,0.8151,,,,,,,,,,,,,,,,,,,,,,60fcd314736594904a0ad216,61036bf57baab5273ba77cb8,2021-07-29_23h04.02.963,Simcolourproject_2stim_asymm_v5,2020.2.10,MacIntel,60,61025ae37ef11b136ea224fe,,,,,,,,,4160,42.734375,95.60546875,1,0,0,response1disk,,7,8.26171875,-5.53515625,1,0,0,rectangle,8.26171875,-5.53515625,1,0,0,8.26171875,-5.53515625,1,0,0,1,16,176,155,1,,,,,,,,
,,,,,,,,,,,,,FF,,,,,,,,0.9154,,,,,,,,,,,,,,,,,,,,,,60fcd314736594904a0ad216,61036bf57baab5273ba77cb8,2021-07-29_23h04.02.963,Simcolourproject_2stim_asymm_v5,2020.2.10,MacIntel,60,61025ae37ef11b136ea224fe,,,,,,,,,699,-60.35546875,-32.78515625,1,0,0,response5disk,,2,-0.609375,-1.2578125,1,0,0,rectangle,-0.609375,-1.2578125,1,0,0,-0.609375,-1.2578125,1,0,0,1,17,177,7,1,,,,,,,,
,,,,,,,,,,,,,FF,,,,,,,,0.8535,,,,,,,,,,,,,,,,,,,,,,60fcd314736594904a0ad216,61036bf57baab5273ba77cb8,2021-07-29_23h04.02.963,Simcolourproject_2stim_asymm_v5,2020.2.10,MacIntel,60,61025ae37ef11b136ea224fe,,,,,,,,,1507,22.16796875,82.55078125,1,0,0,response1disk,,7,6.78125,7.21484375,1,0,0,rectangle,6.78125,7.21484375,1,0,0,6.78125,7.21484375,1,0,0,1,18,178,64,1,,,,,,,,
,,,,,,,,,,,,,FF,,,,,,,,0.8849,,,,,,,,,,,,,,,,,,,,,,60fcd314736594904a0ad216,61036bf57baab5273ba77cb8,2021-07-29_23h04.02.963,Simcolourproject_2stim_asymm_v5,2020.2.10,MacIntel,60,61025ae37ef11b136ea224fe,,,,,,,,,2016,-68.26171875,-40.140625,1,0,0,response5disk,,2,-6.6015625,-3.63671875,1,0,0,rectangle,-6.6015625,-3.63671875,1,0,0,-6.6015625,-3.63671875,1,0,0,1,19,179,68,1,,,,,,,,
,,,,,,,,,,,,,FF,,,,,,,,1.0836,,,,,,,,,,,,,,,,,,,,,,60fcd314736594904a0ad216,61036bf57baab5273ba77cb8,2021-07-29_23h04.02.963,Simcolourproject_2stim_asymm_v5,2020.2.10,MacIntel,60,61025ae37ef11b136ea224fe,,,,,,,,,1745,-36.953125,73.53125,1,0,0,response7disk,,0,-11.0625,4.21875,1,0,0,rectangle,-11.0625,4.21875,1,0,0,-11.0625,4.21875,1,0,0,1,20,180,152,1,,,,,,,,
,,,,,,,,,,,,,FF,,,,,,,,1.4992,,,,,,,,,,,,,,,,,,,,,,60fcd314736594904a0ad216,61036bf57baab5273ba77cb8,2021-07-29_23h04.02.963,Simcolourproject_2stim_asymm_v5,2020.2.10,MacIntel,60,61025ae37ef11b136ea224fe,,,,,,,,,284,-78.46484375,-40.71484375,1,0,0,response5disk,,2,-13.62109375,9.4453125,1,0,0,rectangle,-13.62109375,9.4453125,1,0,0,-13.62109375,9.4453125,1,0,0,1,21,181,47,1,,,,,,,,
,,,,,,,,,,,,,FF,,,,,,,,0.7774,,,,,,,,,,,,,,,,,,,,,,60fcd314736594904a0ad216,61036bf57baab5273ba77cb8,2021-07-29_23h04.02.963,Simcolourproject_2stim_asymm_v5,2020.2.10,MacIntel,60,61025ae37ef11b136ea224fe,,,,,,,,,3030,29.0546875,73.40234375,1,0,0,response1disk,,7,12.359375,12.17578125,1,0,0,rectangle,12.359375,12.17578125,1,0,0,12.359375,12.17578125,1,0,0,1,22,182,23,1,,,,,,,,
,,,,,,,,,,,,,FF,,,,,,,,1.2981,,,,,,,,,,,,,,,,,,,,,,60fcd314736594904a0ad216,61036bf57baab5273ba77cb8,2021-07-29_23h04.02.963,Simcolourproject_2stim_asymm_v5,2020.2.10,MacIntel,60,61025ae37ef11b136ea224fe,,,,,,,,,3347,39.296875,68.1328125,1,0,0,response1disk,,7,13.80859375,0.8515625,1,0,0,rectangle,-115.7304688,27.01171875,1,0,0,-14.83203125,3.984375,1,0,0,1,23,183,141,1,,response7disk_3,TRUE,1,1,"[194,24,202,153,39,32,43,200,7,94,109,119,320,7,152,135,184,73,166,21]",1.5325,rectangle
,,,,,,,,,,,,,FF,,,,,,,,1.0324,,,,,,,,,,,,,,,,,,,,,,60fcd314736594904a0ad216,61036bf57baab5273ba77cb8,2021-07-29_23h04.02.963,Simcolourproject_2stim_asymm_v5,2020.2.10,MacIntel,60,61025ae37ef11b136ea224fe,,,,,,,,,1571,71.25,36.09375,1,0,0,response1disk,,6,18.09375,0.5703125,1,0,0,rectangle,18.09375,0.5703125,1,0,0,18.09375,0.5703125,1,0,0,1,24,184,93,1,,,,,,,,
,,,,,,,,,,,,,FF,,,,,,,,0.9333,,,,,,,,,,,,,,,,,,,,,,60fcd314736594904a0ad216,61036bf57baab5273ba77cb8,2021-07-29_23h04.02.963,Simcolourproject_2stim_asymm_v5,2020.2.10,MacIntel,60,61025ae37ef11b136ea224fe,,,,,,,,,3428,-55.234375,118.7773438,1,0,0,response7disk,,0,-22.41796875,1.546875,1,0,0,rectangle,-22.41796875,1.546875,1,0,0,-22.41796875,1.546875,1,0,0,1,25,185,135,1,,,,,,,,
,,,,,,,,,,,,,FF,,,,,,,,0.8679,,,,,,,,,,,,,,,,,,,,,,60fcd314736594904a0ad216,61036bf57baab5273ba77cb8,2021-07-29_23h04.02.963,Simcolourproject_2stim_asymm_v5,2020.2.10,MacIntel,60,61025ae37ef11b136ea224fe,,,,,,,,,2311,69.28515625,33.09375,1,0,0,response1disk,,6,19.375,0.36328125,1,0,0,rectangle,19.375,0.36328125,1,0,0,19.375,0.36328125,1,0,0,1,26,186,147,1,,,,,,,,
,,,,,,,,,,,,,FF,,,,,,,,1.2991,,,,,,,,,,,,,,,,,,,,,,60fcd314736594904a0ad216,61036bf57baab5273ba77cb8,2021-07-29_23h04.02.963,Simcolourproject_2stim_asymm_v5,2020.2.10,MacIntel,60,61025ae37ef11b136ea224fe,,,,,,,,,3088,92.3203125,-27.9453125,1,0,0,response3disk,,5,1.59375,-4.99609375,1,0,0,rectangle,1.59375,-4.99609375,1,0,0,1.59375,-4.99609375,1,0,0,1,27,187,29,1,,,,,,,,
,,,,,,,,,,,,,FF,,,,,,,,0.7845,,,,,,,,,,,,,,,,,,,,,,60fcd314736594904a0ad216,61036bf57baab5273ba77cb8,2021-07-29_23h04.02.963,Simcolourproject_2stim_asymm_v5,2020.2.10,MacIntel,60,61025ae37ef11b136ea224fe,,,,,,,,,3855,40.1875,65.734375,1,0,0,response1disk,,7,2.03515625,-6.859375,1,0,0,rectangle,2.03515625,-6.859375,1,0,0,2.03515625,-6.859375,1,0,0,1,28,188,31,1,,,,,,,,
,,,,,,,,,,,,,FF,,,,,,,,0.7664,,,,,,,,,,,,,,,,,,,,,,60fcd314736594904a0ad216,61036bf57baab5273ba77cb8,2021-07-29_23h04.02.963,Simcolourproject_2stim_asymm_v5,2020.2.10,MacIntel,60,61025ae37ef11b136ea224fe,,,,,,,,,4094,30.57421875,67.53125,1,0,0,response1disk,,7,10.1640625,-2.7890625,1,0,0,rectangle,10.1640625,-2.7890625,1,0,0,10.1640625,-2.7890625,1,0,0,1,29,189,150,1,,,,,,,,
,,,,,,,,,,,,,FF,,,,,,,,0.8661,,,,,,,,,,,,,,,,,,,,,,60fcd314736594904a0ad216,61036bf57baab5273ba77cb8,2021-07-29_23h04.02.963,Simcolourproject_2stim_asymm_v5,2020.2.10,MacIntel,60,61025ae37ef11b136ea224fe,,,,,,,,,1297,-44.8125,94.2890625,1,0,0,response7disk,,0,-8.984375,-5.2578125,1,0,0,rectangle,-8.984375,-5.2578125,1,0,0,-8.984375,-5.2578125,1,0,0,1,30,190,71,1,,,,,,,,
,,,,,,,,,,,,,FF,,,,,,,,0.602,,,,,,,,,,,,,,,,,,,,,,60fcd314736594904a0ad216,61036bf57baab5273ba77cb8,2021-07-29_23h04.02.963,Simcolourproject_2stim_asymm_v5,2020.2.10,MacIntel,60,61025ae37ef11b136ea224fe,,,,,,,,,1136,-42.9609375,86.828125,1,0,0,response7disk,,0,-19.71484375,10.73046875,1,0,0,rectangle,-19.71484375,10.73046875,1,0,0,-19.71484375,10.73046875,1,0,0,1,31,191,113,1,,,,,,,,
,,,,,,,,,,,,,FF,,,,,,,,1.5185,,,,,,,,,,,,,,,,,,,,,,60fcd314736594904a0ad216,61036bf57baab5273ba77cb8,2021-07-29_23h04.02.963,Simcolourproject_2stim_asymm_v5,2020.2.10,MacIntel,60,61025ae37ef11b136ea224fe,,,,,,,,,3808,33.6875,63.8203125,1,0,0,response1disk,,7,7.7109375,5.0234375,1,0,0,rectangle,7.7109375,5.0234375,1,0,0,7.7109375,5.0234375,1,0,0,1,32,192,87,1,,,,,,,,
,,,,,,,,,,,,,FF,,,,,,,,1.9636,,,,,,,,,,,,,,,,,,,,,,60fcd314736594904a0ad216,61036bf57baab5273ba77cb8,2021-07-29_23h04.02.963,Simcolourproject_2stim_asymm_v5,2020.2.10,MacIntel,60,61025ae37ef11b136ea224fe,,,,,,,,,2222,-36.10546875,-76.5234375,1,0,0,response5disk,,3,-8.171875,-7.41796875,1,0,0,rectangle,-71.83203125,-37.51953125,1,0,0,-1.72265625,-7.0546875,1,0,0,1,33,193,86,1,,response5disk_3,TRUE,2,2,"[194,24,202,153,39,32,43,200,7,94,109,119,320,7,152,135,184,73,166,21]",1.6667,rectangle
,,,,,,,,,,,,,FF,,,,,,,,1.434,,,,,,,,,,,,,,,,,,,,,,60fcd314736594904a0ad216,61036bf57baab5273ba77cb8,2021-07-29_23h04.02.963,Simcolourproject_2stim_asymm_v5,2020.2.10,MacIntel,60,61025ae37ef11b136ea224fe,,,,,,,,,3458,78.43359375,-38.39453125,1,0,0,response3disk,,5,24.4453125,-7.48828125,1,0,0,rectangle,24.4453125,-7.48828125,1,0,0,24.4453125,-7.48828125,1,0,0,1,34,194,100,1,,,,,,,,
,,,,,,,,,,,,,FF,,,,,,,,1.0677,,,,,,,,,,,,,,,,,,,,,,60fcd314736594904a0ad216,61036bf57baab5273ba77cb8,2021-07-29_23h04.02.963,Simcolourproject_2stim_asymm_v5,2020.2.10,MacIntel,60,61025ae37ef11b136ea224fe,,,,,,,,,2282,82.10546875,23.6953125,1,0,0,response1disk,,6,-0.59375,0.52734375,1,0,0,rectangle,-0.59375,0.52734375,1,0,0,-0.59375,0.52734375,1,0,0,1,35,195,74,1,,,,,,,,
,,,,,,,,,,,,,FF,,,,,,,,1.3504,,,,,,,,,,,,,,,,,,,,,,60fcd314736594904a0ad216,61036bf57baab5273ba77cb8,2021-07-29_23h04.02.963,Simcolourproject_2stim_asymm_v5,2020.2.10,MacIntel,60,61025ae37ef11b136ea224fe,,,,,,,,,4077,-90.30859375,39.80859375,1,0,0,response7disk,,1,5.84765625,13.1171875,1,0,0,rectangle,5.84765625,13.1171875,1,0,0,5.84765625,13.1171875,1,0,0,1,36,196,85,1,,,,,,,,
,,,,,,,,,,,,,FF,,,,,,,,0.8506,,,,,,,,,,,,,,,,,,,,,,60fcd314736594904a0ad216,61036bf57baab5273ba77cb8,2021-07-29_23h04.02.963,Simcolourproject_2stim_asymm_v5,2020.2.10,MacIntel,60,61025ae37ef11b136ea224fe,,,,,,,,,2820,45.375,93.51953125,1,0,0,response1disk,,7,10.16796875,-5.8203125,1,0,0,rectangle,10.16796875,-5.8203125,1,0,0,10.16796875,-5.8203125,1,0,0,1,37,197,36,1,,,,,,,,
,,,,,,,,,,,,,FF,,,,,,,,0.7486,,,,,,,,,,,,,,,,,,,,,,60fcd314736594904a0ad216,61036bf57baab5273ba77cb8,2021-07-29_23h04.02.963,Simcolourproject_2stim_asymm_v5,2020.2.10,MacIntel,60,61025ae37ef11b136ea224fe,,,,,,,,,2127,42.58203125,55.80078125,1,0,0,response1disk,,7,-2.61328125,-3.984375,1,0,0,rectangle,-2.61328125,-3.984375,1,0,0,-2.61328125,-3.984375,1,0,0,1,38,198,101,1,,,,,,,,
,,,,,,,,,,,,,FF,,,,,,,,0.9513,,,,,,,,,,,,,,,,,,,,,,60fcd314736594904a0ad216,61036bf57baab5273ba77cb8,2021-07-29_23h04.02.963,Simcolourproject_2stim_asymm_v5,2020.2.10,MacIntel,60,61025ae37ef11b136ea224fe,,,,,,,,,1695,41.8046875,54.9609375,1,0,0,response1disk,,7,18.9609375,-8.3671875,1,0,0,rectangle,-60.546875,86.5,1,0,0,4.6484375,-7.43359375,1,0,0,1,39,199,89,1,,response7disk_3,TRUE,0,0,"[194,24,202,153,39,32,43,200,7,94,109,119,320,7,152,135,184,73,166,21]",1.8486,rectangle
,,,,,,,,,,,,,FF,,,,,,,,0.7828,,,,,,,,,,,,,,,,,,,,,,60fcd314736594904a0ad216,61036bf57baab5273ba77cb8,2021-07-29_23h04.02.963,Simcolourproject_2stim_asymm_v5,2020.2.10,MacIntel,60,61025ae37ef11b136ea224fe,,,,,,,,,4130,88.65234375,24.87109375,1,0,0,response1disk,,6,5.43359375,8.703125,1,0,0,rectangle,5.43359375,8.703125,1,0,0,5.43359375,8.703125,1,0,0,1,40,200,104,1,,,,,,,,
,,,,,,,,,,,,,FF,,,,,,,,0.9844,,,,,,,,,,,,,,,,,,,,,,60fcd314736594904a0ad216,61036bf57baab5273ba77cb8,2021-07-29_23h04.02.963,Simcolourproject_2stim_asymm_v5,2020.2.10,MacIntel,60,61025ae37ef11b136ea224fe,,,,,,,,,810,-74.078125,-28.79296875,1,0,0,response5disk,,2,-1.58984375,-4.984375,1,0,0,rectangle,-65.59375,-41.11328125,1,0,0,-10.3203125,16.1640625,1,0,0,1,41,201,56,1,,response5disk_3,TRUE,2,2,"[194,24,202,153,39,32,43,200,7,94,109,119,320,7,152,135,184,73,166,21]",1.6334,rectangle
,,,,,,,,,,,,,FF,,,,,,,,1.4852,,,,,,,,,,,,,,,,,,,,,,60fcd314736594904a0ad216,61036bf57baab5273ba77cb8,2021-07-29_23h04.02.963,Simcolourproject_2stim_asymm_v5,2020.2.10,MacIntel,60,61025ae37ef11b136ea224fe,,,,,,,,,2743,39.14453125,62.61328125,1,0,0,response1disk,,7,13.80078125,9.47265625,1,0,0,rectangle,13.80078125,9.47265625,1,0,0,13.80078125,9.47265625,1,0,0,1,42,202,66,1,,,,,,,,
,,,,,,,,,,,,,FF,,,,,,,,0.8,,,,,,,,,,,,,,,,,,,,,,60fcd314736594904a0ad216,61036bf57baab5273ba77cb8,2021-07-29_23h04.02.963,Simcolourproject_2stim_asymm_v5,2020.2.10,MacIntel,60,61025ae37ef11b136ea224fe,,,,,,,,,472,34.3671875,68.3984375,1,0,0,response1disk,,7,7.41796875,-5.58984375,1,0,0,rectangle,7.41796875,-5.58984375,1,0,0,7.41796875,-5.58984375,1,0,0,1,43,203,139,1,,,,,,,,
,,,,,,,,,,,,,FF,,,,,,,,0.5846,,,,,,,,,,,,,,,,,,,,,,60fcd314736594904a0ad216,61036bf57baab5273ba77cb8,2021-07-29_23h04.02.963,Simcolourproject_2stim_asymm_v5,2020.2.10,MacIntel,60,61025ae37ef11b136ea224fe,,,,,,,,,1835,30.16796875,67.54296875,1,0,0,response1disk,,7,4.99609375,-1.828125,1,0,0,rectangle,4.99609375,-1.828125,1,0,0,4.99609375,-1.828125,1,0,0,1,44,204,72,1,,,,,,,,
,,,,,,,,,,,,,FF,,,,,,,,0.8508,,,,,,,,,,,,,,,,,,,,,,60fcd314736594904a0ad216,61036bf57baab5273ba77cb8,2021-07-29_23h04.02.963,Simcolourproject_2stim_asymm_v5,2020.2.10,MacIntel,60,61025ae37ef11b136ea224fe,,,,,,,,,3893,21.921875,80.40234375,1,0,0,response1disk,,7,8.28125,2.3984375,1,0,0,rectangle,8.28125,2.3984375,1,0,0,8.28125,2.3984375,1,0,0,1,45,205,81,1,,,,,,,,
,,,,,,,,,,,,,FF,,,,,,,,0.8833,,,,,,,,,,,,,,,,,,,,,,60fcd314736594904a0ad216,61036bf57baab5273ba77cb8,2021-07-29_23h04.02.963,Simcolourproject_2stim_asymm_v5,2020.2.10,MacIntel,60,61025ae37ef11b136ea224fe,,,,,,,,,156,43.33984375,94.23046875,1,0,0,response1disk,,7,10.671875,6.08984375,1,0,0,rectangle,10.671875,6.08984375,1,0,0,10.671875,6.08984375,1,0,0,1,46,206,38,1,,,,,,,,
,,,,,,,,,,,,,FF,,,,,,,,0.5851,,,,,,,,,,,,,,,,,,,,,,60fcd314736594904a0ad216,61036bf57baab5273ba77cb8,2021-07-29_23h04.02.963,Simcolourproject_2stim_asymm_v5,2020.2.10,MacIntel,60,61025ae37ef11b136ea224fe,,,,,,,,,3307,32.93359375,79.93359375,1,0,0,response1disk,,7,11.265625,-10.72265625,1,0,0,rectangle,11.265625,-10.72265625,1,0,0,11.265625,-10.72265625,1,0,0,1,47,207,146,1,,,,,,,,
,,,,,,,,,,,,,FF,,,,,,,,0.9523,,,,,,,,,,,,,,,,,,,,,,60fcd314736594904a0ad216,61036bf57baab5273ba77cb8,2021-07-29_23h04.02.963,Simcolourproject_2stim_asymm_v5,2020.2.10,MacIntel,60,61025ae37ef11b136ea224fe,,,,,,,,,2883,-52.5703125,-34.58984375,1,0,0,response5disk,,2,-5.00390625,-6.93359375,1,0,0,rectangle,-5.00390625,-6.93359375,1,0,0,-5.00390625,-6.93359375,1,0,0,1,48,208,149,1,,,,,,,,
,,,,,,,,,,,,,FF,,,,,,,,1.4511,,,,,,,,,,,,,,,,,,,,,,60fcd314736594904a0ad216,61036bf57baab5273ba77cb8,2021-07-29_23h04.02.963,Simcolourproject_2stim_asymm_v5,2020.2.10,MacIntel,60,61025ae37ef11b136ea224fe,,,,,,,,,3575,26.1015625,62.6796875,1,0,0,response1disk,,7,9.6328125,4.5546875,1,0,0,rectangle,9.6328125,4.5546875,1,0,0,9.6328125,4.5546875,1,0,0,1,49,209,22,1,,,,,,,,
,,,,,,,,,,,,,FF,,,,,,,,0.8515,,,,,,,,,,,,,,,,,,,,,,60fcd314736594904a0ad216,61036bf57baab5273ba77cb8,2021-07-29_23h04.02.963,Simcolourproject_2stim_asymm_v5,2020.2.10,MacIntel,60,61025ae37ef11b136ea224fe,,,,,,,,,3781,-27.92578125,53.0390625,1,0,0,response7disk,,0,-9.0390625,15.60546875,1,0,0,rectangle,-9.0390625,15.60546875,1,0,0,-9.0390625,15.60546875,1,0,0,1,50,210,82,1,,,,,,,,
,,,,,,,,,,,,,FF,,,,,,,,1.5,,,,,,,,,,,,,,,,,,,,,,60fcd314736594904a0ad216,61036bf57baab5273ba77cb8,2021-07-29_23h04.02.963,Simcolourproject_2stim_asymm_v5,2020.2.10,MacIntel,60,61025ae37ef11b136ea224fe,,,,,,,,,1740,-37.83203125,-58.71484375,1,0,0,response5disk,,3,3.39453125,9.7578125,1,0,0,rectangle,3.39453125,9.7578125,1,0,0,3.39453125,9.7578125,1,0,0,1,51,211,159,1,,,,,,,,
,,,,,,,,,,,,,FF,,,,,,,,1.6162,,,,,,,,,,,,,,,,,,,,,,60fcd314736594904a0ad216,61036bf57baab5273ba77cb8,2021-07-29_23h04.02.963,Simcolourproject_2stim_asymm_v5,2020.2.10,MacIntel,60,61025ae37ef11b136ea224fe,,,,,,,,,1369,-81.34375,-47.34765625,1,0,0,response5disk,,2,-11.22265625,-0.53515625,1,0,0,rectangle,-11.22265625,-0.53515625,1,0,0,-11.22265625,-0.53515625,1,0,0,1,52,212,130,1,,,,,,,,
,,,,,,,,,,,,,FF,,,,,,,,0.8834,,,,,,,,,,,,,,,,,,,,,,60fcd314736594904a0ad216,61036bf57baab5273ba77cb8,2021-07-29_23h04.02.963,Simcolourproject_2stim_asymm_v5,2020.2.10,MacIntel,60,61025ae37ef11b136ea224fe,,,,,,,,,1213,-86.46875,23.44921875,1,0,0,response7disk,,1,-5.39453125,8.57421875,1,0,0,rectangle,-5.39453125,8.57421875,1,0,0,-5.39453125,8.57421875,1,0,0,1,53,213,15,1,,,,,,,,
,,,,,,,,,,,,,FF,,,,,,,,1.3847,,,,,,,,,,,,,,,,,,,,,,60fcd314736594904a0ad216,61036bf57baab5273ba77cb8,2021-07-29_23h04.02.963,Simcolourproject_2stim_asymm_v5,2020.2.10,MacIntel,60,61025ae37ef11b136ea224fe,,,,,,,,,2078,77.125,40.94921875,1,0,0,response1disk,,6,0.828125,12.3046875,1,0,0,rectangle,0.828125,12.3046875,1,0,0,0.828125,12.3046875,1,0,0,1,54,214,53,1,,,,,,,,
,,,,,,,,,,,,,FF,,,,,,,,0.967,,,,,,,,,,,,,,,,,,,,,,60fcd314736594904a0ad216,61036bf57baab5273ba77cb8,2021-07-29_23h04.02.963,Simcolourproject_2stim_asymm_v5,2020.2.10,MacIntel,60,61025ae37ef11b136ea224fe,,,,,,,,,3297,-52.25,80.08203125,1,0,0,response7disk,,0,-11.640625,13.7421875,1,0,0,rectangle,-11.640625,13.7421875,1,0,0,-11.640625,13.7421875,1,0,0,1,55,215,59,1,,,,,,,,
,,,,,,,,,,,,,FF,,,,,,,,0.8183,,,,,,,,,,,,,,,,,,,,,,60fcd314736594904a0ad216,61036bf57baab5273ba77cb8,2021-07-29_23h04.02.963,Simcolourproject_2stim_asymm_v5,2020.2.10,MacIntel,60,61025ae37ef11b136ea224fe,,,,,,,,,3020,37.03125,74.83203125,1,0,0,response1disk,,7,14.0859375,13.53125,1,0,0,rectangle,14.0859375,13.53125,1,0,0,14.0859375,13.53125,1,0,0,1,56,216,80,1,,,,,,,,
,,,,,,,,,,,,,FF,,,,,,,,0.6987,,,,,,,,,,,,,,,,,,,,,,60fcd314736594904a0ad216,61036bf57baab5273ba77cb8,2021-07-29_23h04.02.963,Simcolourproject_2stim_asymm_v5,2020.2.10,MacIntel,60,61025ae37ef11b136ea224fe,,,,,,,,,3904,38.890625,69.42578125,1,0,0,response1disk,,7,14.34765625,9.265625,1,0,0,rectangle,14.34765625,9.265625,1,0,0,14.34765625,9.265625,1,0,0,1,57,217,57,1,,,,,,,,
,,,,,,,,,,,,,FF,,,,,,,,1.1994,,,,,,,,,,,,,,,,,,,,,,60fcd314736594904a0ad216,61036bf57baab5273ba77cb8,2021-07-29_23h04.02.963,Simcolourproject_2stim_asymm_v5,2020.2.10,MacIntel,60,61025ae37ef11b136ea224fe,,,,,,,,,345,-86.4375,35.390625,1,0,0,response7disk,,1,-11.859375,13.8828125,1,0,0,rectangle,-11.859375,13.8828125,1,0,0,-11.859375,13.8828125,1,0,0,1,58,218,35,1,,,,,,,,
,,,,,,,,,,,,,FF,,,,,,,,0.8656,,,,,,,,,,,,,,,,,,,,,,60fcd314736594904a0ad216,61036bf57baab5273ba77cb8,2021-07-29_23h04.02.963,Simcolourproject_2stim_asymm_v5,2020.2.10,MacIntel,60,61025ae37ef11b136ea224fe,,,,,,,,,219,67.1640625,51.7421875,1,0,0,response1disk,,6,5.18359375,3.2890625,1,0,0,rectangle,5.18359375,3.2890625,1,0,0,5.18359375,3.2890625,1,0,0,1,59,219,116,1,,,,,,,,
,,,,,,,,,,,,,FF,,,,,,,,1.1,,,,,,,,,,,,,,,,,,,,,,60fcd314736594904a0ad216,61036bf57baab5273ba77cb8,2021-07-29_23h04.02.963,Simcolourproject_2stim_asymm_v5,2020.2.10,MacIntel,60,61025ae37ef11b136ea224fe,,,,,,,,,3397,30.9921875,-39.16796875,1,0,0,response3disk,,4,22.9453125,-1.96875,1,0,0,rectangle,22.9453125,-1.96875,1,0,0,22.9453125,-1.96875,1,0,0,1,60,220,136,1,,,,,,,,
,,,,,,,,,,,,,FF,,,,,,,,0.7172,,,,,,,,,,,,,,,,,,,,,,60fcd314736594904a0ad216,61036bf57baab5273ba77cb8,2021-07-29_23h04.02.963,Simcolourproject_2stim_asymm_v5,2020.2.10,MacIntel,60,61025ae37ef11b136ea224fe,,,,,,,,,3694,26.58984375,54.6015625,1,0,0,response1disk,,7,15.3828125,-5.73046875,1,0,0,rectangle,15.3828125,-5.73046875,1,0,0,15.3828125,-5.73046875,1,0,0,1,61,221,25,1,,,,,,,,
,,,,,,,,,,,,,FF,,,,,,,,0.7487,,,,,,,,,,,,,,,,,,,,,,60fcd314736594904a0ad216,61036bf57baab5273ba77cb8,2021-07-29_23h04.02.963,Simcolourproject_2stim_asymm_v5,2020.2.10,MacIntel,60,61025ae37ef11b136ea224fe,,,,,,,,,2716,27.28515625,47.07421875,1,0,0,response1disk,,7,21.1484375,3.59375,1,0,0,rectangle,21.1484375,3.59375,1,0,0,21.1484375,3.59375,1,0,0,1,62,222,70,1,,,,,,,,
,,,,,,,,,,,,,FF,,,,,,,,1.1854,,,,,,,,,,,,,,,,,,,,,,60fcd314736594904a0ad216,61036bf57baab5273ba77cb8,2021-07-29_23h04.02.963,Simcolourproject_2stim_asymm_v5,2020.2.10,MacIntel,60,61025ae37ef11b136ea224fe,,,,,,,,,2170,74.93359375,-28.34375,1,0,0,response3disk,,5,18.359375,8.10546875,1,0,0,rectangle,18.359375,8.10546875,1,0,0,18.359375,8.10546875,1,0,0,1,63,223,145,1,,,,,,,,
,,,,,,,,,,,,,FF,,,,,,,,1.2503,,,,,,,,,,,,,,,,,,,,,,60fcd314736594904a0ad216,61036bf57baab5273ba77cb8,2021-07-29_23h04.02.963,Simcolourproject_2stim_asymm_v5,2020.2.10,MacIntel,60,61025ae37ef11b136ea224fe,,,,,,,,,2180,58.35546875,49.53125,1,0,0,response1disk,,6,6.64453125,2.8125,1,0,0,rectangle,6.64453125,2.8125,1,0,0,6.64453125,2.8125,1,0,0,1,64,224,143,1,,,,,,,,
,,,,,,,,,,,,,FF,,,,,,,,1.2674,,,,,,,,,,,,,,,,,,,,,,60fcd314736594904a0ad216,61036bf57baab5273ba77cb8,2021-07-29_23h04.02.963,Simcolourproject_2stim_asymm_v5,2020.2.10,MacIntel,60,61025ae37ef11b136ea224fe,,,,,,,,,1243,22.07421875,73.203125,1,0,0,response1disk,,7,11.25390625,-3.2421875,1,0,0,rectangle,11.25390625,-3.2421875,1,0,0,11.25390625,-3.2421875,1,0,0,1,65,225,103,1,,,,,,,,
,,,,,,,,,,,,,FF,,,,,,,,0.7168,,,,,,,,,,,,,,,,,,,,,,60fcd314736594904a0ad216,61036bf57baab5273ba77cb8,2021-07-29_23h04.02.963,Simcolourproject_2stim_asymm_v5,2020.2.10,MacIntel,60,61025ae37ef11b136ea224fe,,,,,,,,,3667,29.9609375,62.67578125,1,0,0,response1disk,,7,9.875,1.6484375,1,0,0,rectangle,9.875,1.6484375,1,0,0,9.875,1.6484375,1,0,0,1,66,226,153,1,,,,,,,,
,,,,,,,,,,,,,FF,,,,,,,,0.6486,,,,,,,,,,,,,,,,,,,,,,60fcd314736594904a0ad216,61036bf57baab5273ba77cb8,2021-07-29_23h04.02.963,Simcolourproject_2stim_asymm_v5,2020.2.10,MacIntel,60,61025ae37ef11b136ea224fe,,,,,,,,,2445,27.21875,67.52734375,1,0,0,response1disk,,7,15.18359375,12.44140625,1,0,0,rectangle,15.18359375,12.44140625,1,0,0,15.18359375,12.44140625,1,0,0,1,67,227,107,1,,,,,,,,
,,,,,,,,,,,,,FF,,,,,,,,0.8488,,,,,,,,,,,,,,,,,,,,,,60fcd314736594904a0ad216,61036bf57baab5273ba77cb8,2021-07-29_23h04.02.963,Simcolourproject_2stim_asymm_v5,2020.2.10,MacIntel,60,61025ae37ef11b136ea224fe,,,,,,,,,750,37.640625,68.76171875,1,0,0,response1disk,,7,28.79296875,-7.90625,1,0,0,rectangle,28.79296875,-7.90625,1,0,0,28.79296875,-7.90625,1,0,0,1,68,228,11,1,,,,,,,,
,,,,,,,,,,,,,FF,,,,,,,,0.8486,,,,,,,,,,,,,,,,,,,,,,60fcd314736594904a0ad216,61036bf57baab5273ba77cb8,2021-07-29_23h04.02.963,Simcolourproject_2stim_asymm_v5,2020.2.10,MacIntel,60,61025ae37ef11b136ea224fe,,,,,,,,,3250,-78.85546875,29.64453125,1,0,0,response7disk,,1,0.73828125,3.109375,1,0,0,rectangle,0.73828125,3.109375,1,0,0,0.73828125,3.109375,1,0,0,1,69,229,156,1,,,,,,,,
,,,,,,,,,,,,,FF,,,,,,,,0.5484,,,,,,,,,,,,,,,,,,,,,,60fcd314736594904a0ad216,61036bf57baab5273ba77cb8,2021-07-29_23h04.02.963,Simcolourproject_2stim_asymm_v5,2020.2.10,MacIntel,60,61025ae37ef11b136ea224fe,,,,,,,,,444,-36.37890625,68.4765625,1,0,0,response7disk,,0,-23.41015625,7.3046875,1,0,0,rectangle,-23.41015625,7.3046875,1,0,0,-23.41015625,7.3046875,1,0,0,1,70,230,134,1,,,,,,,,
,,,,,,,,,,,,,FF,,,,,,,,2.5362,,,,,,,,,,,,,,,,,,,,,,60fcd314736594904a0ad216,61036bf57baab5273ba77cb8,2021-07-29_23h04.02.963,Simcolourproject_2stim_asymm_v5,2020.2.10,MacIntel,60,61025ae37ef11b136ea224fe,,,,,,,,,3607,74.953125,-34.57421875,1,0,0,response3disk,,5,-16.0625,-4.22265625,1,0,0,rectangle,-16.0625,-4.22265625,1,0,0,-16.0625,-4.22265625,1,0,0,1,71,231,14,1,,,,,,,,
,,,,,,,,,,,,,FF,,,,,,,,1.0339,,,,,,,,,,,,,,,,,,,,,,60fcd314736594904a0ad216,61036bf57baab5273ba77cb8,2021-07-29_23h04.02.963,Simcolourproject_2stim_asymm_v5,2020.2.10,MacIntel,60,61025ae37ef11b136ea224fe,,,,,,,,,1716,29.73828125,72.32421875,1,0,0,response1disk,,7,13.046875,-3.0234375,1,0,0,rectangle,13.046875,-3.0234375,1,0,0,13.046875,-3.0234375,1,0,0,1,72,232,118,1,,,,,,,,
,,,,,,,,,,,,,FF,,,,,,,,0.6905,,,,,,,,,,,,,,,,,,,,,,60fcd314736594904a0ad216,61036bf57baab5273ba77cb8,2021-07-29_23h04.02.963,Simcolourproject_2stim_asymm_v5,2020.2.10,MacIntel,60,61025ae37ef11b136ea224fe,,,,,,,,,2923,27.875,63.6875,1,0,0,response1disk,,7,17.203125,10.27734375,1,0,0,rectangle,17.203125,10.27734375,1,0,0,17.203125,10.27734375,1,0,0,1,73,233,144,1,,,,,,,,
,,,,,,,,,,,,,FF,,,,,,,,0.8172,,,,,,,,,,,,,,,,,,,,,,60fcd314736594904a0ad216,61036bf57baab5273ba77cb8,2021-07-29_23h04.02.963,Simcolourproject_2stim_asymm_v5,2020.2.10,MacIntel,60,61025ae37ef11b136ea224fe,,,,,,,,,3853,34.921875,82.7421875,1,0,0,response1disk,,7,9.234375,6.70703125,1,0,0,rectangle,9.234375,6.70703125,1,0,0,9.234375,6.70703125,1,0,0,1,74,234,39,1,,,,,,,,
,,,,,,,,,,,,,FF,,,,,,,,0.8164,,,,,,,,,,,,,,,,,,,,,,60fcd314736594904a0ad216,61036bf57baab5273ba77cb8,2021-07-29_23h04.02.963,Simcolourproject_2stim_asymm_v5,2020.2.10,MacIntel,60,61025ae37ef11b136ea224fe,,,,,,,,,2618,30.66015625,62.93359375,1,0,0,response1disk,,7,1.44140625,-5.12890625,1,0,0,rectangle,1.44140625,-5.12890625,1,0,0,1.44140625,-5.12890625,1,0,0,1,75,235,115,1,,,,,,,,
,,,,,,,,,,,,,FF,,,,,,,,0.6517,,,,,,,,,,,,,,,,,,,,,,60fcd314736594904a0ad216,61036bf57baab5273ba77cb8,2021-07-29_23h04.02.963,Simcolourproject_2stim_asymm_v5,2020.2.10,MacIntel,60,61025ae37ef11b136ea224fe,,,,,,,,,3572,46.15625,69.83984375,1,0,0,response1disk,,7,11.8671875,4.7734375,1,0,0,rectangle,11.8671875,4.7734375,1,0,0,11.8671875,4.7734375,1,0,0,1,76,236,34,1,,,,,,,,
,,,,,,,,,,,,,FF,,,,,,,,0.7687,,,,,,,,,,,,,,,,,,,,,,60fcd314736594904a0ad216,61036bf57baab5273ba77cb8,2021-07-29_23h04.02.963,Simcolourproject_2stim_asymm_v5,2020.2.10,MacIntel,60,61025ae37ef11b136ea224fe,,,,,,,,,2403,93.6953125,-45.546875,1,0,0,response3disk,,5,7.54296875,3.35546875,1,0,0,rectangle,7.54296875,3.35546875,1,0,0,7.54296875,3.35546875,1,0,0,1,77,237,5,1,,,,,,,,
,,,,,,,,,,,,,FF,,,,,,,,1.1322,,,,,,,,,,,,,,,,,,,,,,60fcd314736594904a0ad216,61036bf57baab5273ba77cb8,2021-07-29_23h04.02.963,Simcolourproject_2stim_asymm_v5,2020.2.10,MacIntel,60,61025ae37ef11b136ea224fe,,,,,,,,,2925,33.13671875,69,1,0,0,response1disk,,7,3.18359375,-8.89453125,1,0,0,rectangle,3.18359375,-8.89453125,1,0,0,3.18359375,-8.89453125,1,0,0,1,78,238,10,1,,,,,,,,
,,,,,,,,,,,,,FF,,,,,,,,0.7006,,,,,,,,,,,,,,,,,,,,,,60fcd314736594904a0ad216,61036bf57baab5273ba77cb8,2021-07-29_23h04.02.963,Simcolourproject_2stim_asymm_v5,2020.2.10,MacIntel,60,61025ae37ef11b136ea224fe,,,,,,,,,1362,30.6875,62.41015625,1,0,0,response1disk,,7,8.51171875,4.265625,1,0,0,rectangle,8.51171875,4.265625,1,0,0,8.51171875,4.265625,1,0,0,1,79,239,1,1,,,,,,,,
,,,,,,,,,,,,,FF,,,,,,,,2.0186,,,,,,,,,,,,,,,,,,,,,,60fcd314736594904a0ad216,61036bf57baab5273ba77cb8,2021-07-29_23h04.02.963,Simcolourproject_2stim_asymm_v5,2020.2.10,MacIntel,60,61025ae37ef11b136ea224fe,,,,,,,,,3028,40.10546875,-84.05078125,1,0,0,response3disk,,4,0.734375,0.27734375,1,0,0,rectangle,0.734375,0.27734375,1,0,0,0.734375,0.27734375,1,0,0,1,80,240,148,1,,,,,,,,
,,,,,,,,,,,,,FF,,,,,,,,1.2993,,,,,,,,,,,,,,,,,,,,,,60fcd314736594904a0ad216,61036bf57baab5273ba77cb8,2021-07-29_23h04.02.963,Simcolourproject_2stim_asymm_v5,2020.2.10,MacIntel,60,61025ae37ef11b136ea224fe,,,,,,,,,4105,-76.33984375,35.33984375,1,0,0,response7disk,,1,8.69921875,-2.24609375,1,0,0,rectangle,8.69921875,-2.24609375,1,0,0,8.69921875,-2.24609375,1,0,0,1,81,241,120,1,,,,,,,,
,,,,,,,,,,,,,FF,,,,,,,,0.7665,,,,,,,,,,,,,,,,,,,,,,60fcd314736594904a0ad216,61036bf57baab5273ba77cb8,2021-07-29_23h04.02.963,Simcolourproject_2stim_asymm_v5,2020.2.10,MacIntel,60,61025ae37ef11b136ea224fe,,,,,,,,,889,-65.35546875,41.51171875,1,0,0,response7disk,,1,-2.1875,14.72265625,1,0,0,rectangle,-2.1875,14.72265625,1,0,0,-2.1875,14.72265625,1,0,0,1,82,242,48,1,,,,,,,,
,,,,,,,,,,,,,FF,,,,,,,,0.5492,,,,,,,,,,,,,,,,,,,,,,60fcd314736594904a0ad216,61036bf57baab5273ba77cb8,2021-07-29_23h04.02.963,Simcolourproject_2stim_asymm_v5,2020.2.10,MacIntel,60,61025ae37ef11b136ea224fe,,,,,,,,,1608,-36.96484375,66.875,1,0,0,response7disk,,0,-11.25390625,15.0390625,1,0,0,rectangle,-11.25390625,15.0390625,1,0,0,-11.25390625,15.0390625,1,0,0,1,83,243,75,1,,,,,,,,
,,,,,,,,,,,,,FF,,,,,,,,0.9006,,,,,,,,,,,,,,,,,,,,,,60fcd314736594904a0ad216,61036bf57baab5273ba77cb8,2021-07-29_23h04.02.963,Simcolourproject_2stim_asymm_v5,2020.2.10,MacIntel,60,61025ae37ef11b136ea224fe,,,,,,,,,3033,63.73046875,34.65625,1,0,0,response1disk,,6,-10.7890625,15.28125,1,0,0,rectangle,-10.7890625,15.28125,1,0,0,-10.7890625,15.28125,1,0,0,1,84,244,17,1,,,,,,,,
,,,,,,,,,,,,,FF,,,,,,,,2.1491,,,,,,,,,,,,,,,,,,,,,,60fcd314736594904a0ad216,61036bf57baab5273ba77cb8,2021-07-29_23h04.02.963,Simcolourproject_2stim_asymm_v5,2020.2.10,MacIntel,60,61025ae37ef11b136ea224fe,,,,,,,,,3035,37.6328125,-67.22265625,1,0,0,response3disk,,4,22.171875,9.05859375,1,0,0,rectangle,22.171875,9.05859375,1,0,0,22.171875,9.05859375,1,0,0,1,85,245,137,1,,,,,,,,
,,,,,,,,,,,,,FF,,,,,,,,1.0491,,,,,,,,,,,,,,,,,,,,,,60fcd314736594904a0ad216,61036bf57baab5273ba77cb8,2021-07-29_23h04.02.963,Simcolourproject_2stim_asymm_v5,2020.2.10,MacIntel,60,61025ae37ef11b136ea224fe,,,,,,,,,4128,42.2734375,-70.51171875,1,0,0,response3disk,,4,5.0234375,2.375,1,0,0,rectangle,5.0234375,2.375,1,0,0,5.0234375,2.375,1,0,0,1,86,246,84,1,,,,,,,,
,,,,,,,,,,,,,FF,,,,,,,,1.1167,,,,,,,,,,,,,,,,,,,,,,60fcd314736594904a0ad216,61036bf57baab5273ba77cb8,2021-07-29_23h04.02.963,Simcolourproject_2stim_asymm_v5,2020.2.10,MacIntel,60,61025ae37ef11b136ea224fe,,,,,,,,,257,47.6875,-62.140625,1,0,0,response3disk,,4,4.7890625,3.5234375,1,0,0,rectangle,4.7890625,3.5234375,1,0,0,4.7890625,3.5234375,1,0,0,1,87,247,94,1,,,,,,,,
