key_resp.keys,key_resp.rt,key_resp_14.keys,key_resp_14.rt,key_resp_15.keys,key_resp_15.rt,key_resp_17.keys,key_resp_17.rt,key_resp_9.keys,key_resp_9.rt,key_resp_10.keys,key_resp_10.rt,practice_comparison,Ecc,mouse_5.x,mouse_5.y,mouse_5.leftButton,mouse_5.midButton,mouse_5.rightButton,mouse_5.clicked_name,pracsimilarity,response_time,mouse_10.x,mouse_10.y,mouse_10.leftButton,mouse_10.midButton,mouse_10.rightButton,mouse_10.clicked_name,mouse_7.x,mouse_7.y,mouse_7.leftButton,mouse_7.midButton,mouse_7.rightButton,mouse_6.x,mouse_6.y,mouse_6.leftButton,mouse_6.midButton,mouse_6.rightButton,duringprac.thisRepN,duringprac.thisTrialN,duringprac.thisN,duringprac.thisIndex,duringprac.ran,participant,session,date,expName,psychopyVersion,OS,frameRate,study_id,mouse_7.clicked_name,catchpracsimilarity,catch_response_time,catchnumberprac,catchtrialorderprac,mouse_6.clicked_name,key_resp_22.keys,key_resp_22.rt,realcomparison,mouse.x,mouse.y,mouse.leftButton,mouse.midButton,mouse.rightButton,mouse.clicked_name,Colour2,similarity,mouse_2.x,mouse_2.y,mouse_2.leftButton,mouse_2.midButton,mouse_2.rightButton,mouse_2.clicked_name,mouse_3.x,mouse_3.y,mouse_3.leftButton,mouse_3.midButton,mouse_3.rightButton,mouse_11.x,mouse_11.y,mouse_11.leftButton,mouse_11.midButton,mouse_11.rightButton,trials_2.thisRepN,trials_2.thisTrialN,trials_2.thisN,trials_2.thisIndex,trials_2.ran,Colour1,mouse_3.clicked_name,catchornah,catchsimilarity,catchnumber,catchtrialorder,catchRT,mouse_11.clicked_name
space,91.8493,space,32.7959,space,21.3786,space,18.8209,space,38.8497,space,8.0507,19,PF,-29.90625,86.1015625,1,0,0,response7disk_5,0,1.301,-4.59765625,-0.4296875,1,0,0,rectangle_8,-4.59765625,-0.4296875,1,0,0,-4.59765625,-0.4296875,1,0,0,0,0,0,2,1,60fcf17f0e7f07f8a04730da,61036ba44c468ff0f756b1ab,2021-07-29_22h02.39.111,Simcolourproject_2stim_asymm_v5,2020.2.10,MacIntel,60,61025ae37ef11b136ea224fe,,,,,,,,,,,,,,,,,,,,,,,,,,,,,,,,,,,,,,,,,,,,,,
,,,,,,,,,,,,133,PF,20.80078125,-50.9921875,1,0,0,response3disk_5,4,2.1492,2.6015625,-5.56640625,1,0,0,rectangle_8,59.09765625,46.484375,1,0,0,-6.9921875,-6.171875,1,0,0,0,1,1,4,1,60fcf17f0e7f07f8a04730da,61036ba44c468ff0f756b1ab,2021-07-29_22h02.39.111,Simcolourproject_2stim_asymm_v5,2020.2.10,MacIntel,60,61025ae37ef11b136ea224fe,response1disk_7,6,2.4524,6,"[2,5]",rectangle_4,,,,,,,,,,,,,,,,,,,,,,,,,,,,,,,,,,,,,,,,
,,,,,,,,,,,,153,PF,56.74609375,-27.71875,1,0,0,response3disk_5,5,2.1659,4.25390625,-2.078125,1,0,0,rectangle_8,4.25390625,-2.078125,1,0,0,4.25390625,-2.078125,1,0,0,0,2,2,1,1,60fcf17f0e7f07f8a04730da,61036ba44c468ff0f756b1ab,2021-07-29_22h02.39.111,Simcolourproject_2stim_asymm_v5,2020.2.10,MacIntel,60,61025ae37ef11b136ea224fe,,,,,,,,,,,,,,,,,,,,,,,,,,,,,,,,,,,,,,,,,,,,,,
,,,,,,,,,,,,2,FF,-37.1640625,71.015625,1,0,0,response7disk_5,0,1.1829,-14.64453125,7.83984375,1,0,0,rectangle_8,-14.64453125,7.83984375,1,0,0,-14.64453125,7.83984375,1,0,0,0,3,3,5,1,60fcf17f0e7f07f8a04730da,61036ba44c468ff0f756b1ab,2021-07-29_22h02.39.111,Simcolourproject_2stim_asymm_v5,2020.2.10,MacIntel,60,61025ae37ef11b136ea224fe,,,,,,,,,,,,,,,,,,,,,,,,,,,,,,,,,,,,,,,,,,,,,,
,,,,,,,,,,,,54,FF,-39.8515625,81.41015625,1,0,0,response7disk_5,0,2.8998,-3.66015625,-1.1015625,1,0,0,rectangle_8,98.64453125,41.40625,1,0,0,-1,-4.1484375,1,0,0,0,4,4,0,1,60fcf17f0e7f07f8a04730da,61036ba44c468ff0f756b1ab,2021-07-29_22h02.39.111,Simcolourproject_2stim_asymm_v5,2020.2.10,MacIntel,60,61025ae37ef11b136ea224fe,response1disk_7,6,1.9828,6,"[2,5]",rectangle_4,,,,,,,,,,,,,,,,,,,,,,,,,,,,,,,,,,,,,,,,
,,,,,,,,,,,,130,PF,-43.8359375,67.5546875,1,0,0,response7disk_5,0,1.2843,-3.9296875,-9.75390625,1,0,0,rectangle_8,-3.9296875,-9.75390625,1,0,0,-3.9296875,-9.75390625,1,0,0,0,5,5,6,1,60fcf17f0e7f07f8a04730da,61036ba44c468ff0f756b1ab,2021-07-29_22h02.39.111,Simcolourproject_2stim_asymm_v5,2020.2.10,MacIntel,60,61025ae37ef11b136ea224fe,,,,,,,,,,,,,,,,,,,,,,,,,,,,,,,,,,,,,,,,,,,,,,
,,,,,,,,,,,,148,FF,61.66796875,34.3203125,1,0,0,response1disk_5,6,2.7655,3.66015625,-0.328125,1,0,0,rectangle_8,3.66015625,-0.328125,1,0,0,3.66015625,-0.328125,1,0,0,0,6,6,3,1,60fcf17f0e7f07f8a04730da,61036ba44c468ff0f756b1ab,2021-07-29_22h02.39.111,Simcolourproject_2stim_asymm_v5,2020.2.10,MacIntel,60,61025ae37ef11b136ea224fe,,,,,,,,,,,,,,,,,,,,,,,,,,,,,,,,,,,,,,,,,,,,,,
,,,,,,,,,,,,,FF,,,,,,,,1.8336,,,,,,,,,,,,,,,,,,,,,,60fcf17f0e7f07f8a04730da,61036ba44c468ff0f756b1ab,2021-07-29_22h02.39.111,Simcolourproject_2stim_asymm_v5,2020.2.10,MacIntel,60,61025ae37ef11b136ea224fe,,,,,,,space,19.7855,1430,-30.25,70.5546875,1,0,0,response7disk,,0,-7.7109375,-1.8984375,1,0,0,rectangle,-7.7109375,-1.8984375,1,0,0,-7.7109375,-1.8984375,1,0,0,0,0,0,134,1,,,,,,,,
,,,,,,,,,,,,,FF,,,,,,,,1.7833,,,,,,,,,,,,,,,,,,,,,,60fcf17f0e7f07f8a04730da,61036ba44c468ff0f756b1ab,2021-07-29_22h02.39.111,Simcolourproject_2stim_asymm_v5,2020.2.10,MacIntel,60,61025ae37ef11b136ea224fe,,,,,,,,,2104,67.1171875,-25.640625,1,0,0,response3disk,,5,14.1875,5.765625,1,0,0,rectangle,14.1875,5.765625,1,0,0,14.1875,5.765625,1,0,0,0,1,1,102,1,,,,,,,,
,,,,,,,,,,,,,FF,,,,,,,,1.185,,,,,,,,,,,,,,,,,,,,,,60fcf17f0e7f07f8a04730da,61036ba44c468ff0f756b1ab,2021-07-29_22h02.39.111,Simcolourproject_2stim_asymm_v5,2020.2.10,MacIntel,60,61025ae37ef11b136ea224fe,,,,,,,,,792,-19.421875,70.20703125,1,0,0,response7disk,,0,2.01953125,-2.88671875,1,0,0,rectangle,2.01953125,-2.88671875,1,0,0,2.01953125,-2.88671875,1,0,0,0,2,2,108,1,,,,,,,,
,,,,,,,,,,,,,FF,,,,,,,,0.984,,,,,,,,,,,,,,,,,,,,,,60fcf17f0e7f07f8a04730da,61036ba44c468ff0f756b1ab,2021-07-29_22h02.39.111,Simcolourproject_2stim_asymm_v5,2020.2.10,MacIntel,60,61025ae37ef11b136ea224fe,,,,,,,,,750,-27.4140625,76.69140625,1,0,0,response7disk,,0,-21.44921875,3.30078125,1,0,0,rectangle,78.6953125,23.65234375,1,0,0,-5.60546875,-9.20703125,1,0,0,0,3,3,94,1,,response1disk_3,TRUE,6,6,"[90,70,111,68,227,7,145,266,43,128,148,213,272,200,226,31,239,65,258,4]",1.369,rectangle
,,,,,,,,,,,,,FF,,,,,,,,1.3161,,,,,,,,,,,,,,,,,,,,,,60fcf17f0e7f07f8a04730da,61036ba44c468ff0f756b1ab,2021-07-29_22h02.39.111,Simcolourproject_2stim_asymm_v5,2020.2.10,MacIntel,60,61025ae37ef11b136ea224fe,,,,,,,,,2744,-32.5,-72.95703125,1,0,0,response5disk,,3,-7.8671875,-7.734375,1,0,0,rectangle,-7.8671875,-7.734375,1,0,0,-7.8671875,-7.734375,1,0,0,0,4,4,70,1,,,,,,,,
,,,,,,,,,,,,,FF,,,,,,,,0.7669,,,,,,,,,,,,,,,,,,,,,,60fcf17f0e7f07f8a04730da,61036ba44c468ff0f756b1ab,2021-07-29_22h02.39.111,Simcolourproject_2stim_asymm_v5,2020.2.10,MacIntel,60,61025ae37ef11b136ea224fe,,,,,,,,,1014,-46.16796875,77.31640625,1,0,0,response7disk,,0,-18.6953125,3.2890625,1,0,0,rectangle,-18.6953125,3.2890625,1,0,0,-18.6953125,3.2890625,1,0,0,0,5,5,106,1,,,,,,,,
,,,,,,,,,,,,,FF,,,,,,,,2.0003,,,,,,,,,,,,,,,,,,,,,,60fcf17f0e7f07f8a04730da,61036ba44c468ff0f756b1ab,2021-07-29_22h02.39.111,Simcolourproject_2stim_asymm_v5,2020.2.10,MacIntel,60,61025ae37ef11b136ea224fe,,,,,,,,,4208,-64.44921875,-39.76953125,1,0,0,response5disk,,2,-5.0390625,-1.45703125,1,0,0,rectangle,-41.72265625,-82.67578125,1,0,0,1.6640625,-3.78515625,1,0,0,0,6,6,13,1,,response5disk_3,TRUE,3,3,"[90,70,111,68,227,7,145,266,43,128,148,213,272,200,226,31,239,65,258,4]",1.7333,rectangle
,,,,,,,,,,,,,FF,,,,,,,,1.9001,,,,,,,,,,,,,,,,,,,,,,60fcf17f0e7f07f8a04730da,61036ba44c468ff0f756b1ab,2021-07-29_22h02.39.111,Simcolourproject_2stim_asymm_v5,2020.2.10,MacIntel,60,61025ae37ef11b136ea224fe,,,,,,,,,4251,57.0625,74.59765625,1,0,0,response1disk,,7,-4.203125,5.67578125,1,0,0,rectangle,-4.203125,5.67578125,1,0,0,-4.203125,5.67578125,1,0,0,0,7,7,128,1,,,,,,,,
,,,,,,,,,,,,,FF,,,,,,,,0.9342,,,,,,,,,,,,,,,,,,,,,,60fcf17f0e7f07f8a04730da,61036ba44c468ff0f756b1ab,2021-07-29_22h02.39.111,Simcolourproject_2stim_asymm_v5,2020.2.10,MacIntel,60,61025ae37ef11b136ea224fe,,,,,,,,,2963,-36.875,64.92578125,1,0,0,response7disk,,0,-25.0078125,7.7734375,1,0,0,rectangle,-25.0078125,7.7734375,1,0,0,-25.0078125,7.7734375,1,0,0,0,8,8,17,1,,,,,,,,
,,,,,,,,,,,,,FF,,,,,,,,0.7158,,,,,,,,,,,,,,,,,,,,,,60fcf17f0e7f07f8a04730da,61036ba44c468ff0f756b1ab,2021-07-29_22h02.39.111,Simcolourproject_2stim_asymm_v5,2020.2.10,MacIntel,60,61025ae37ef11b136ea224fe,,,,,,,,,1640,-23.68359375,80.85546875,1,0,0,response7disk,,0,-9.16015625,5.8046875,1,0,0,rectangle,-9.16015625,5.8046875,1,0,0,-9.16015625,5.8046875,1,0,0,0,9,9,7,1,,,,,,,,
,,,,,,,,,,,,,FF,,,,,,,,0.6499,,,,,,,,,,,,,,,,,,,,,,60fcf17f0e7f07f8a04730da,61036ba44c468ff0f756b1ab,2021-07-29_22h02.39.111,Simcolourproject_2stim_asymm_v5,2020.2.10,MacIntel,60,61025ae37ef11b136ea224fe,,,,,,,,,3079,-41.61328125,89.5078125,1,0,0,response7disk,,0,-9.32421875,1.8359375,1,0,0,rectangle,-9.32421875,1.8359375,1,0,0,-9.32421875,1.8359375,1,0,0,0,10,10,141,1,,,,,,,,
,,,,,,,,,,,,,FF,,,,,,,,0.767,,,,,,,,,,,,,,,,,,,,,,60fcf17f0e7f07f8a04730da,61036ba44c468ff0f756b1ab,2021-07-29_22h02.39.111,Simcolourproject_2stim_asymm_v5,2020.2.10,MacIntel,60,61025ae37ef11b136ea224fe,,,,,,,,,2591,-21.3046875,71.93359375,1,0,0,response7disk,,0,-6.65234375,-2.86328125,1,0,0,rectangle,-6.65234375,-2.86328125,1,0,0,-6.65234375,-2.86328125,1,0,0,0,11,11,116,1,,,,,,,,
,,,,,,,,,,,,,FF,,,,,,,,1.3007,,,,,,,,,,,,,,,,,,,,,,60fcf17f0e7f07f8a04730da,61036ba44c468ff0f756b1ab,2021-07-29_22h02.39.111,Simcolourproject_2stim_asymm_v5,2020.2.10,MacIntel,60,61025ae37ef11b136ea224fe,,,,,,,,,2323,-76.08984375,35.32421875,1,0,0,response7disk,,1,7.12890625,1.98046875,1,0,0,rectangle,7.12890625,1.98046875,1,0,0,7.12890625,1.98046875,1,0,0,0,12,12,101,1,,,,,,,,
,,,,,,,,,,,,,FF,,,,,,,,0.6669,,,,,,,,,,,,,,,,,,,,,,60fcf17f0e7f07f8a04730da,61036ba44c468ff0f756b1ab,2021-07-29_22h02.39.111,Simcolourproject_2stim_asymm_v5,2020.2.10,MacIntel,60,61025ae37ef11b136ea224fe,,,,,,,,,596,-20.05859375,65.80078125,1,0,0,response7disk,,0,-2.9609375,8.109375,1,0,0,rectangle,-2.9609375,8.109375,1,0,0,-2.9609375,8.109375,1,0,0,0,13,13,59,1,,,,,,,,
,,,,,,,,,,,,,FF,,,,,,,,1.1838,,,,,,,,,,,,,,,,,,,,,,60fcf17f0e7f07f8a04730da,61036ba44c468ff0f756b1ab,2021-07-29_22h02.39.111,Simcolourproject_2stim_asymm_v5,2020.2.10,MacIntel,60,61025ae37ef11b136ea224fe,,,,,,,,,1367,-39.6015625,76.60546875,1,0,0,response7disk,,0,-12.3671875,3.7421875,1,0,0,rectangle,-12.3671875,3.7421875,1,0,0,-12.3671875,3.7421875,1,0,0,0,14,14,49,1,,,,,,,,
,,,,,,,,,,,,,FF,,,,,,,,1.5652,,,,,,,,,,,,,,,,,,,,,,60fcf17f0e7f07f8a04730da,61036ba44c468ff0f756b1ab,2021-07-29_22h02.39.111,Simcolourproject_2stim_asymm_v5,2020.2.10,MacIntel,60,61025ae37ef11b136ea224fe,,,,,,,,,3386,80.046875,38.08984375,1,0,0,response1disk,,6,19.296875,6.51953125,1,0,0,rectangle,19.296875,6.51953125,1,0,0,19.296875,6.51953125,1,0,0,0,15,15,117,1,,,,,,,,
,,,,,,,,,,,,,FF,,,,,,,,1.4011,,,,,,,,,,,,,,,,,,,,,,60fcf17f0e7f07f8a04730da,61036ba44c468ff0f756b1ab,2021-07-29_22h02.39.111,Simcolourproject_2stim_asymm_v5,2020.2.10,MacIntel,60,61025ae37ef11b136ea224fe,,,,,,,,,2806,-28.83203125,52.1796875,1,0,0,response7disk,,0,-10.015625,-8.83984375,1,0,0,rectangle,-10.015625,-8.83984375,1,0,0,-10.015625,-8.83984375,1,0,0,0,16,16,28,1,,,,,,,,
,,,,,,,,,,,,,FF,,,,,,,,0.7995,,,,,,,,,,,,,,,,,,,,,,60fcf17f0e7f07f8a04730da,61036ba44c468ff0f756b1ab,2021-07-29_22h02.39.111,Simcolourproject_2stim_asymm_v5,2020.2.10,MacIntel,60,61025ae37ef11b136ea224fe,,,,,,,,,790,-26.03515625,64.55078125,1,0,0,response7disk,,0,-6.765625,4.62109375,1,0,0,rectangle,-6.765625,4.62109375,1,0,0,-6.765625,4.62109375,1,0,0,0,17,17,2,1,,,,,,,,
,,,,,,,,,,,,,FF,,,,,,,,1.6847,,,,,,,,,,,,,,,,,,,,,,60fcf17f0e7f07f8a04730da,61036ba44c468ff0f756b1ab,2021-07-29_22h02.39.111,Simcolourproject_2stim_asymm_v5,2020.2.10,MacIntel,60,61025ae37ef11b136ea224fe,,,,,,,,,2377,-30.97265625,-65.0703125,1,0,0,response5disk,,3,-9.36328125,2.63671875,1,0,0,rectangle,-9.36328125,2.63671875,1,0,0,-9.36328125,2.63671875,1,0,0,0,18,18,112,1,,,,,,,,
,,,,,,,,,,,,,FF,,,,,,,,2.4496,,,,,,,,,,,,,,,,,,,,,,60fcf17f0e7f07f8a04730da,61036ba44c468ff0f756b1ab,2021-07-29_22h02.39.111,Simcolourproject_2stim_asymm_v5,2020.2.10,MacIntel,60,61025ae37ef11b136ea224fe,,,,,,,,,2849,-22.765625,-61.96484375,1,0,0,response5disk,,3,-10.80078125,-8.06640625,1,0,0,rectangle,-10.80078125,-8.06640625,1,0,0,-10.80078125,-8.06640625,1,0,0,0,19,19,103,1,,,,,,,,
,,,,,,,,,,,,,FF,,,,,,,,0.9003,,,,,,,,,,,,,,,,,,,,,,60fcf17f0e7f07f8a04730da,61036ba44c468ff0f756b1ab,2021-07-29_22h02.39.111,Simcolourproject_2stim_asymm_v5,2020.2.10,MacIntel,60,61025ae37ef11b136ea224fe,,,,,,,,,3148,63.83203125,42.9375,1,0,0,response1disk,,6,4.12109375,-3.66015625,1,0,0,rectangle,4.12109375,-3.66015625,1,0,0,4.12109375,-3.66015625,1,0,0,0,20,20,69,1,,,,,,,,
,,,,,,,,,,,,,FF,,,,,,,,0.5836,,,,,,,,,,,,,,,,,,,,,,60fcf17f0e7f07f8a04730da,61036ba44c468ff0f756b1ab,2021-07-29_22h02.39.111,Simcolourproject_2stim_asymm_v5,2020.2.10,MacIntel,60,61025ae37ef11b136ea224fe,,,,,,,,,474,-56.80859375,82.53125,1,0,0,response7disk,,0,-21.328125,-4.7265625,1,0,0,rectangle,-21.328125,-4.7265625,1,0,0,-21.328125,-4.7265625,1,0,0,0,21,21,12,1,,,,,,,,
,,,,,,,,,,,,,FF,,,,,,,,20.234,,,,,,,,,,,,,,,,,,,,,,60fcf17f0e7f07f8a04730da,61036ba44c468ff0f756b1ab,2021-07-29_22h02.39.111,Simcolourproject_2stim_asymm_v5,2020.2.10,MacIntel,60,61025ae37ef11b136ea224fe,,,,,,,,,484,-29.47265625,41.5078125,1,0,0,response7disk,,0,7.19921875,-5.0859375,1,0,0,rectangle,7.19921875,-5.0859375,1,0,0,7.19921875,-5.0859375,1,0,0,0,22,22,113,1,,,,,,,,
,,,,,,,,,,,,,FF,,,,,,,,0.6334,,,,,,,,,,,,,,,,,,,,,,60fcf17f0e7f07f8a04730da,61036ba44c468ff0f756b1ab,2021-07-29_22h02.39.111,Simcolourproject_2stim_asymm_v5,2020.2.10,MacIntel,60,61025ae37ef11b136ea224fe,,,,,,,,,1945,-17.95703125,61.74609375,1,0,0,response7disk,,0,-3.63671875,-4.734375,1,0,0,rectangle,-3.63671875,-4.734375,1,0,0,-3.63671875,-4.734375,1,0,0,0,23,23,153,1,,,,,,,,
,,,,,,,,,,,,,FF,,,,,,,,0.6329,,,,,,,,,,,,,,,,,,,,,,60fcf17f0e7f07f8a04730da,61036ba44c468ff0f756b1ab,2021-07-29_22h02.39.111,Simcolourproject_2stim_asymm_v5,2020.2.10,MacIntel,60,61025ae37ef11b136ea224fe,,,,,,,,,4257,-26.29296875,61.93359375,1,0,0,response7disk,,0,-15.59765625,0.54296875,1,0,0,rectangle,-15.59765625,0.54296875,1,0,0,-15.59765625,0.54296875,1,0,0,0,24,24,89,1,,,,,,,,
,,,,,,,,,,,,,FF,,,,,,,,1.1497,,,,,,,,,,,,,,,,,,,,,,60fcf17f0e7f07f8a04730da,61036ba44c468ff0f756b1ab,2021-07-29_22h02.39.111,Simcolourproject_2stim_asymm_v5,2020.2.10,MacIntel,60,61025ae37ef11b136ea224fe,,,,,,,,,1845,-19.69140625,-46.95703125,1,0,0,response5disk,,3,-4.1796875,1.6875,1,0,0,rectangle,-4.1796875,1.6875,1,0,0,-4.1796875,1.6875,1,0,0,0,25,25,64,1,,,,,,,,
,,,,,,,,,,,,,FF,,,,,,,,0.9504,,,,,,,,,,,,,,,,,,,,,,60fcf17f0e7f07f8a04730da,61036ba44c468ff0f756b1ab,2021-07-29_22h02.39.111,Simcolourproject_2stim_asymm_v5,2020.2.10,MacIntel,60,61025ae37ef11b136ea224fe,,,,,,,,,501,-21.8125,76.7578125,1,0,0,response7disk,,0,8.546875,-16.12109375,1,0,0,rectangle,8.546875,-16.12109375,1,0,0,8.546875,-16.12109375,1,0,0,0,26,26,139,1,,,,,,,,
,,,,,,,,,,,,,FF,,,,,,,,1.451,,,,,,,,,,,,,,,,,,,,,,60fcf17f0e7f07f8a04730da,61036ba44c468ff0f756b1ab,2021-07-29_22h02.39.111,Simcolourproject_2stim_asymm_v5,2020.2.10,MacIntel,60,61025ae37ef11b136ea224fe,,,,,,,,,3820,-45.02734375,61.796875,1,0,0,response7disk,,0,-1.921875,10.296875,1,0,0,rectangle,-1.921875,10.296875,1,0,0,-1.921875,10.296875,1,0,0,0,27,27,146,1,,,,,,,,
,,,,,,,,,,,,,FF,,,,,,,,1.4837,,,,,,,,,,,,,,,,,,,,,,60fcf17f0e7f07f8a04730da,61036ba44c468ff0f756b1ab,2021-07-29_22h02.39.111,Simcolourproject_2stim_asymm_v5,2020.2.10,MacIntel,60,61025ae37ef11b136ea224fe,,,,,,,,,2620,-82.81640625,35.54296875,1,0,0,response7disk,,1,-18.171875,4.54296875,1,0,0,rectangle,-18.171875,4.54296875,1,0,0,-18.171875,4.54296875,1,0,0,0,28,28,159,1,,,,,,,,
,,,,,,,,,,,,,FF,,,,,,,,0.8672,,,,,,,,,,,,,,,,,,,,,,60fcf17f0e7f07f8a04730da,61036ba44c468ff0f756b1ab,2021-07-29_22h02.39.111,Simcolourproject_2stim_asymm_v5,2020.2.10,MacIntel,60,61025ae37ef11b136ea224fe,,,,,,,,,1237,-30.25390625,89.04296875,1,0,0,response7disk,,0,-16.1640625,6.34765625,1,0,0,rectangle,-16.1640625,6.34765625,1,0,0,-16.1640625,6.34765625,1,0,0,0,29,29,1,1,,,,,,,,
,,,,,,,,,,,,,FF,,,,,,,,0.6346,,,,,,,,,,,,,,,,,,,,,,60fcf17f0e7f07f8a04730da,61036ba44c468ff0f756b1ab,2021-07-29_22h02.39.111,Simcolourproject_2stim_asymm_v5,2020.2.10,MacIntel,60,61025ae37ef11b136ea224fe,,,,,,,,,859,-38.8359375,127.7421875,1,0,0,response7disk,,0,-13.79296875,-7.76953125,1,0,0,rectangle,-33.453125,-86.90625,1,0,0,-13.890625,-0.69140625,1,0,0,0,30,30,71,1,,response5disk_3,TRUE,3,3,"[90,70,111,68,227,7,145,266,43,128,148,213,272,200,226,31,239,65,258,4]",1.8176,rectangle
,,,,,,,,,,,,,FF,,,,,,,,0.7996,,,,,,,,,,,,,,,,,,,,,,60fcf17f0e7f07f8a04730da,61036ba44c468ff0f756b1ab,2021-07-29_22h02.39.111,Simcolourproject_2stim_asymm_v5,2020.2.10,MacIntel,60,61025ae37ef11b136ea224fe,,,,,,,,,3184,-27.68359375,73.89453125,1,0,0,response7disk,,0,-7.70703125,14.2890625,1,0,0,rectangle,-7.70703125,14.2890625,1,0,0,-7.70703125,14.2890625,1,0,0,0,31,31,58,1,,,,,,,,
,,,,,,,,,,,,,FF,,,,,,,,1.1836,,,,,,,,,,,,,,,,,,,,,,60fcf17f0e7f07f8a04730da,61036ba44c468ff0f756b1ab,2021-07-29_22h02.39.111,Simcolourproject_2stim_asymm_v5,2020.2.10,MacIntel,60,61025ae37ef11b136ea224fe,,,,,,,,,2298,67.2421875,32.62890625,1,0,0,response1disk,,6,32.60546875,8.72265625,1,0,0,rectangle,32.60546875,8.72265625,1,0,0,32.60546875,8.72265625,1,0,0,0,32,32,121,1,,,,,,,,
,,,,,,,,,,,,,FF,,,,,,,,3.2323,,,,,,,,,,,,,,,,,,,,,,60fcf17f0e7f07f8a04730da,61036ba44c468ff0f756b1ab,2021-07-29_22h02.39.111,Simcolourproject_2stim_asymm_v5,2020.2.10,MacIntel,60,61025ae37ef11b136ea224fe,,,,,,,,,208,-72.7265625,38.9296875,1,0,0,response7disk,,1,-17.6484375,-11.5859375,1,0,0,rectangle,-17.6484375,-11.5859375,1,0,0,-17.6484375,-11.5859375,1,0,0,0,33,33,5,1,,,,,,,,
,,,,,,,,,,,,,FF,,,,,,,,3.2333,,,,,,,,,,,,,,,,,,,,,,60fcf17f0e7f07f8a04730da,61036ba44c468ff0f756b1ab,2021-07-29_22h02.39.111,Simcolourproject_2stim_asymm_v5,2020.2.10,MacIntel,60,61025ae37ef11b136ea224fe,,,,,,,,,2912,-25.74609375,75.40234375,1,0,0,response7disk,,0,-20.3515625,5.70703125,1,0,0,rectangle,-20.3515625,5.70703125,1,0,0,-20.3515625,5.70703125,1,0,0,0,34,34,127,1,,,,,,,,
,,,,,,,,,,,,,FF,,,,,,,,0.5993,,,,,,,,,,,,,,,,,,,,,,60fcf17f0e7f07f8a04730da,61036ba44c468ff0f756b1ab,2021-07-29_22h02.39.111,Simcolourproject_2stim_asymm_v5,2020.2.10,MacIntel,60,61025ae37ef11b136ea224fe,,,,,,,,,1353,-21.328125,103.0703125,1,0,0,response7disk,,0,-6.6171875,-7.1015625,1,0,0,rectangle,-6.6171875,-7.1015625,1,0,0,-6.6171875,-7.1015625,1,0,0,0,35,35,32,1,,,,,,,,
,,,,,,,,,,,,,FF,,,,,,,,0.6167,,,,,,,,,,,,,,,,,,,,,,60fcf17f0e7f07f8a04730da,61036ba44c468ff0f756b1ab,2021-07-29_22h02.39.111,Simcolourproject_2stim_asymm_v5,2020.2.10,MacIntel,60,61025ae37ef11b136ea224fe,,,,,,,,,1649,-22.53515625,110.8164063,1,0,0,response7disk,,0,6.7890625,4.16015625,1,0,0,rectangle,6.7890625,4.16015625,1,0,0,6.7890625,4.16015625,1,0,0,0,36,36,78,1,,,,,,,,
,,,,,,,,,,,,,FF,,,,,,,,0.6831,,,,,,,,,,,,,,,,,,,,,,60fcf17f0e7f07f8a04730da,61036ba44c468ff0f756b1ab,2021-07-29_22h02.39.111,Simcolourproject_2stim_asymm_v5,2020.2.10,MacIntel,60,61025ae37ef11b136ea224fe,,,,,,,,,1597,71.40625,30.0703125,1,0,0,response1disk,,6,10.47265625,13.015625,1,0,0,rectangle,10.47265625,13.015625,1,0,0,10.47265625,13.015625,1,0,0,0,37,37,68,1,,,,,,,,
,,,,,,,,,,,,,FF,,,,,,,,0.5993,,,,,,,,,,,,,,,,,,,,,,60fcf17f0e7f07f8a04730da,61036ba44c468ff0f756b1ab,2021-07-29_22h02.39.111,Simcolourproject_2stim_asymm_v5,2020.2.10,MacIntel,60,61025ae37ef11b136ea224fe,,,,,,,,,3947,-19.16015625,89.6484375,1,0,0,response7disk,,0,-10.78125,6.01171875,1,0,0,rectangle,-10.78125,6.01171875,1,0,0,-10.78125,6.01171875,1,0,0,0,38,38,19,1,,,,,,,,
,,,,,,,,,,,,,FF,,,,,,,,0.601,,,,,,,,,,,,,,,,,,,,,,60fcf17f0e7f07f8a04730da,61036ba44c468ff0f756b1ab,2021-07-29_22h02.39.111,Simcolourproject_2stim_asymm_v5,2020.2.10,MacIntel,60,61025ae37ef11b136ea224fe,,,,,,,,,905,-40.9921875,95.48046875,1,0,0,response7disk,,0,-13.609375,-0.9921875,1,0,0,rectangle,-13.609375,-0.9921875,1,0,0,-13.609375,-0.9921875,1,0,0,0,39,39,132,1,,,,,,,,
,,,,,,,,,,,,,FF,,,,,,,,0.5829,,,,,,,,,,,,,,,,,,,,,,60fcf17f0e7f07f8a04730da,61036ba44c468ff0f756b1ab,2021-07-29_22h02.39.111,Simcolourproject_2stim_asymm_v5,2020.2.10,MacIntel,60,61025ae37ef11b136ea224fe,,,,,,,,,1318,-28.85546875,73.3359375,1,0,0,response7disk,,0,-19.91015625,-2.87890625,1,0,0,rectangle,-19.91015625,-2.87890625,1,0,0,-19.91015625,-2.87890625,1,0,0,0,40,40,85,1,,,,,,,,
,,,,,,,,,,,,,FF,,,,,,,,1.0175,,,,,,,,,,,,,,,,,,,,,,60fcf17f0e7f07f8a04730da,61036ba44c468ff0f756b1ab,2021-07-29_22h02.39.111,Simcolourproject_2stim_asymm_v5,2020.2.10,MacIntel,60,61025ae37ef11b136ea224fe,,,,,,,,,2896,-57.16015625,-38.87109375,1,0,0,response5disk,,2,-6.3203125,-3.7265625,1,0,0,rectangle,-6.3203125,-3.7265625,1,0,0,-6.3203125,-3.7265625,1,0,0,0,41,41,144,1,,,,,,,,
,,,,,,,,,,,,,FF,,,,,,,,1.817,,,,,,,,,,,,,,,,,,,,,,60fcf17f0e7f07f8a04730da,61036ba44c468ff0f756b1ab,2021-07-29_22h02.39.111,Simcolourproject_2stim_asymm_v5,2020.2.10,MacIntel,60,61025ae37ef11b136ea224fe,,,,,,,,,1146,-24.453125,-73.265625,1,0,0,response5disk,,3,-9.12109375,11.41796875,1,0,0,rectangle,37.4140625,109.1015625,1,0,0,6.96484375,15.07421875,1,0,0,0,42,42,118,1,,response1disk_3,TRUE,7,7,"[90,70,111,68,227,7,145,266,43,128,148,213,272,200,226,31,239,65,258,4]",1.6667,rectangle
,,,,,,,,,,,,,FF,,,,,,,,1.5001,,,,,,,,,,,,,,,,,,,,,,60fcf17f0e7f07f8a04730da,61036ba44c468ff0f756b1ab,2021-07-29_22h02.39.111,Simcolourproject_2stim_asymm_v5,2020.2.10,MacIntel,60,61025ae37ef11b136ea224fe,,,,,,,,,2674,-56.7421875,-20.95703125,1,0,0,response5disk,,2,-11.578125,4.140625,1,0,0,rectangle,-11.578125,4.140625,1,0,0,-11.578125,4.140625,1,0,0,0,43,43,96,1,,,,,,,,
,,,,,,,,,,,,,FF,,,,,,,,1.0009,,,,,,,,,,,,,,,,,,,,,,60fcf17f0e7f07f8a04730da,61036ba44c468ff0f756b1ab,2021-07-29_22h02.39.111,Simcolourproject_2stim_asymm_v5,2020.2.10,MacIntel,60,61025ae37ef11b136ea224fe,,,,,,,,,1719,-41.67578125,30.93359375,1,0,0,response7disk,,1,1.58984375,-11.6484375,1,0,0,rectangle,1.58984375,-11.6484375,1,0,0,1.58984375,-11.6484375,1,0,0,0,44,44,3,1,,,,,,,,
,,,,,,,,,,,,,FF,,,,,,,,1.8674,,,,,,,,,,,,,,,,,,,,,,60fcf17f0e7f07f8a04730da,61036ba44c468ff0f756b1ab,2021-07-29_22h02.39.111,Simcolourproject_2stim_asymm_v5,2020.2.10,MacIntel,60,61025ae37ef11b136ea224fe,,,,,,,,,1225,-72.9453125,-57.43359375,1,0,0,response5disk,,2,4.484375,3.68359375,1,0,0,rectangle,4.484375,3.68359375,1,0,0,4.484375,3.68359375,1,0,0,0,45,45,147,1,,,,,,,,
,,,,,,,,,,,,,FF,,,,,,,,0.8178,,,,,,,,,,,,,,,,,,,,,,60fcf17f0e7f07f8a04730da,61036ba44c468ff0f756b1ab,2021-07-29_22h02.39.111,Simcolourproject_2stim_asymm_v5,2020.2.10,MacIntel,60,61025ae37ef11b136ea224fe,,,,,,,,,967,-17.453125,61.140625,1,0,0,response7disk,,0,-10.59765625,10.92578125,1,0,0,rectangle,-10.59765625,10.92578125,1,0,0,-10.59765625,10.92578125,1,0,0,0,46,46,80,1,,,,,,,,
,,,,,,,,,,,,,FF,,,,,,,,1.1369,,,,,,,,,,,,,,,,,,,,,,60fcf17f0e7f07f8a04730da,61036ba44c468ff0f756b1ab,2021-07-29_22h02.39.111,Simcolourproject_2stim_asymm_v5,2020.2.10,MacIntel,60,61025ae37ef11b136ea224fe,,,,,,,,,1528,53.734375,-36.23828125,1,0,0,response3disk,,5,11.484375,9.703125,1,0,0,rectangle,11.484375,9.703125,1,0,0,11.484375,9.703125,1,0,0,0,47,47,81,1,,,,,,,,
,,,,,,,,,,,,,FF,,,,,,,,0.8836,,,,,,,,,,,,,,,,,,,,,,60fcf17f0e7f07f8a04730da,61036ba44c468ff0f756b1ab,2021-07-29_22h02.39.111,Simcolourproject_2stim_asymm_v5,2020.2.10,MacIntel,60,61025ae37ef11b136ea224fe,,,,,,,,,3971,66.83984375,38.89453125,1,0,0,response1disk,,6,7.578125,-8.13671875,1,0,0,rectangle,7.578125,-8.13671875,1,0,0,7.578125,-8.13671875,1,0,0,0,48,48,40,1,,,,,,,,
,,,,,,,,,,,,,FF,,,,,,,,1.5337,,,,,,,,,,,,,,,,,,,,,,60fcf17f0e7f07f8a04730da,61036ba44c468ff0f756b1ab,2021-07-29_22h02.39.111,Simcolourproject_2stim_asymm_v5,2020.2.10,MacIntel,60,61025ae37ef11b136ea224fe,,,,,,,,,3886,-66.265625,38.515625,1,0,0,response7disk,,1,-21.9140625,8.3828125,1,0,0,rectangle,-21.9140625,8.3828125,1,0,0,-21.9140625,8.3828125,1,0,0,0,49,49,140,1,,,,,,,,
,,,,,,,,,,,,,FF,,,,,,,,0.6157,,,,,,,,,,,,,,,,,,,,,,60fcf17f0e7f07f8a04730da,61036ba44c468ff0f756b1ab,2021-07-29_22h02.39.111,Simcolourproject_2stim_asymm_v5,2020.2.10,MacIntel,60,61025ae37ef11b136ea224fe,,,,,,,,,964,-43.86328125,68.5859375,1,0,0,response7disk,,0,-24.28515625,-2.34765625,1,0,0,rectangle,-24.28515625,-2.34765625,1,0,0,-24.28515625,-2.34765625,1,0,0,0,50,50,124,1,,,,,,,,
,,,,,,,,,,,,,FF,,,,,,,,1.6166,,,,,,,,,,,,,,,,,,,,,,60fcf17f0e7f07f8a04730da,61036ba44c468ff0f756b1ab,2021-07-29_22h02.39.111,Simcolourproject_2stim_asymm_v5,2020.2.10,MacIntel,60,61025ae37ef11b136ea224fe,,,,,,,,,54,-27.7265625,67.16796875,1,0,0,response7disk,,0,-15.65234375,4.9453125,1,0,0,rectangle,-15.65234375,4.9453125,1,0,0,-15.65234375,4.9453125,1,0,0,0,51,51,22,1,,,,,,,,
,,,,,,,,,,,,,FF,,,,,,,,0.7,,,,,,,,,,,,,,,,,,,,,,60fcf17f0e7f07f8a04730da,61036ba44c468ff0f756b1ab,2021-07-29_22h02.39.111,Simcolourproject_2stim_asymm_v5,2020.2.10,MacIntel,60,61025ae37ef11b136ea224fe,,,,,,,,,357,-39.37890625,79.1171875,1,0,0,response7disk,,0,-19.9765625,7.8984375,1,0,0,rectangle,-19.9765625,7.8984375,1,0,0,-19.9765625,7.8984375,1,0,0,0,52,52,100,1,,,,,,,,
,,,,,,,,,,,,,FF,,,,,,,,0.7514,,,,,,,,,,,,,,,,,,,,,,60fcf17f0e7f07f8a04730da,61036ba44c468ff0f756b1ab,2021-07-29_22h02.39.111,Simcolourproject_2stim_asymm_v5,2020.2.10,MacIntel,60,61025ae37ef11b136ea224fe,,,,,,,,,1051,96.81640625,57.3125,1,0,0,response1disk,,6,34.41796875,12.49609375,1,0,0,rectangle,34.41796875,12.49609375,1,0,0,34.41796875,12.49609375,1,0,0,0,53,53,123,1,,,,,,,,
,,,,,,,,,,,,,FF,,,,,,,,53.599,,,,,,,,,,,,,,,,,,,,,,60fcf17f0e7f07f8a04730da,61036ba44c468ff0f756b1ab,2021-07-29_22h02.39.111,Simcolourproject_2stim_asymm_v5,2020.2.10,MacIntel,60,61025ae37ef11b136ea224fe,,,,,,,,,2810,-75.12109375,42.78515625,1,0,0,response7disk,,1,-0.36328125,10.140625,1,0,0,rectangle,-0.36328125,10.140625,1,0,0,-0.36328125,10.140625,1,0,0,0,54,54,130,1,,,,,,,,
,,,,,,,,,,,,,FF,,,,,,,,1.4832,,,,,,,,,,,,,,,,,,,,,,60fcf17f0e7f07f8a04730da,61036ba44c468ff0f756b1ab,2021-07-29_22h02.39.111,Simcolourproject_2stim_asymm_v5,2020.2.10,MacIntel,60,61025ae37ef11b136ea224fe,,,,,,,,,1901,43.04296875,-55.95703125,1,0,0,response3disk,,4,7.88671875,-3.6328125,1,0,0,rectangle,7.88671875,-3.6328125,1,0,0,7.88671875,-3.6328125,1,0,0,0,55,55,52,1,,,,,,,,
,,,,,,,,,,,,,FF,,,,,,,,1.9019,,,,,,,,,,,,,,,,,,,,,,60fcf17f0e7f07f8a04730da,61036ba44c468ff0f756b1ab,2021-07-29_22h02.39.111,Simcolourproject_2stim_asymm_v5,2020.2.10,MacIntel,60,61025ae37ef11b136ea224fe,,,,,,,,,4108,-25.6484375,-64.94140625,1,0,0,response5disk,,3,-4.87890625,8.5703125,1,0,0,rectangle,-4.87890625,8.5703125,1,0,0,-4.87890625,8.5703125,1,0,0,0,56,56,77,1,,,,,,,,
,,,,,,,,,,,,,FF,,,,,,,,0.8237,,,,,,,,,,,,,,,,,,,,,,60fcf17f0e7f07f8a04730da,61036ba44c468ff0f756b1ab,2021-07-29_22h02.39.111,Simcolourproject_2stim_asymm_v5,2020.2.10,MacIntel,60,61025ae37ef11b136ea224fe,,,,,,,,,426,-44.34765625,34.2109375,1,0,0,response7disk,,1,-6.3984375,-4.80078125,1,0,0,rectangle,-6.3984375,-4.80078125,1,0,0,-6.3984375,-4.80078125,1,0,0,0,57,57,82,1,,,,,,,,
,,,,,,,,,,,,,FF,,,,,,,,1.4675,,,,,,,,,,,,,,,,,,,,,,60fcf17f0e7f07f8a04730da,61036ba44c468ff0f756b1ab,2021-07-29_22h02.39.111,Simcolourproject_2stim_asymm_v5,2020.2.10,MacIntel,60,61025ae37ef11b136ea224fe,,,,,,,,,2270,-28.7734375,64.2890625,1,0,0,response7disk,,0,-5.59375,-3.86328125,1,0,0,rectangle,-5.59375,-3.86328125,1,0,0,-5.59375,-3.86328125,1,0,0,0,58,58,115,1,,,,,,,,
,,,,,,,,,,,,,FF,,,,,,,,1.5341,,,,,,,,,,,,,,,,,,,,,,60fcf17f0e7f07f8a04730da,61036ba44c468ff0f756b1ab,2021-07-29_22h02.39.111,Simcolourproject_2stim_asymm_v5,2020.2.10,MacIntel,60,61025ae37ef11b136ea224fe,,,,,,,,,2604,77.171875,-42.35546875,1,0,0,response3disk,,5,-12.2890625,-0.43359375,1,0,0,rectangle,-12.2890625,-0.43359375,1,0,0,-12.2890625,-0.43359375,1,0,0,0,59,59,10,1,,,,,,,,
,,,,,,,,,,,,,FF,,,,,,,,0.8678,,,,,,,,,,,,,,,,,,,,,,60fcf17f0e7f07f8a04730da,61036ba44c468ff0f756b1ab,2021-07-29_22h02.39.111,Simcolourproject_2stim_asymm_v5,2020.2.10,MacIntel,60,61025ae37ef11b136ea224fe,,,,,,,,,3938,69.84375,23.58203125,1,0,0,response1disk,,6,24.7109375,13.96484375,1,0,0,rectangle,24.7109375,13.96484375,1,0,0,24.7109375,13.96484375,1,0,0,0,60,60,150,1,,,,,,,,
,,,,,,,,,,,,,FF,,,,,,,,0.9169,,,,,,,,,,,,,,,,,,,,,,60fcf17f0e7f07f8a04730da,61036ba44c468ff0f756b1ab,2021-07-29_22h02.39.111,Simcolourproject_2stim_asymm_v5,2020.2.10,MacIntel,60,61025ae37ef11b136ea224fe,,,,,,,,,2425,62.546875,51.0859375,1,0,0,response1disk,,6,12.73046875,0.17578125,1,0,0,rectangle,12.73046875,0.17578125,1,0,0,12.73046875,0.17578125,1,0,0,0,61,61,50,1,,,,,,,,
,,,,,,,,,,,,,FF,,,,,,,,0.8668,,,,,,,,,,,,,,,,,,,,,,60fcf17f0e7f07f8a04730da,61036ba44c468ff0f756b1ab,2021-07-29_22h02.39.111,Simcolourproject_2stim_asymm_v5,2020.2.10,MacIntel,60,61025ae37ef11b136ea224fe,,,,,,,,,3247,93.64453125,29.1953125,1,0,0,response1disk,,6,22.15625,11.7734375,1,0,0,rectangle,22.15625,11.7734375,1,0,0,22.15625,11.7734375,1,0,0,0,62,62,35,1,,,,,,,,
,,,,,,,,,,,,,FF,,,,,,,,1.1328,,,,,,,,,,,,,,,,,,,,,,60fcf17f0e7f07f8a04730da,61036ba44c468ff0f756b1ab,2021-07-29_22h02.39.111,Simcolourproject_2stim_asymm_v5,2020.2.10,MacIntel,60,61025ae37ef11b136ea224fe,,,,,,,,,3899,22.42578125,-60.51171875,1,0,0,response3disk,,4,1.2734375,2.51953125,1,0,0,rectangle,1.2734375,2.51953125,1,0,0,1.2734375,2.51953125,1,0,0,0,63,63,75,1,,,,,,,,
,,,,,,,,,,,,,FF,,,,,,,,0.8661,,,,,,,,,,,,,,,,,,,,,,60fcf17f0e7f07f8a04730da,61036ba44c468ff0f756b1ab,2021-07-29_22h02.39.111,Simcolourproject_2stim_asymm_v5,2020.2.10,MacIntel,60,61025ae37ef11b136ea224fe,,,,,,,,,2321,-39.91015625,77.58203125,1,0,0,response7disk,,0,-25.84765625,-6.46875,1,0,0,rectangle,92.7265625,44.953125,1,0,0,31.21875,7.51171875,1,0,0,0,64,64,60,1,,response1disk_3,TRUE,6,6,"[90,70,111,68,227,7,145,266,43,128,148,213,272,200,226,31,239,65,258,4]",1.5343,rectangle
,,,,,,,,,,,,,FF,,,,,,,,1.6335,,,,,,,,,,,,,,,,,,,,,,60fcf17f0e7f07f8a04730da,61036ba44c468ff0f756b1ab,2021-07-29_22h02.39.111,Simcolourproject_2stim_asymm_v5,2020.2.10,MacIntel,60,61025ae37ef11b136ea224fe,,,,,,,,,1647,-32.703125,89.73046875,1,0,0,response7disk,,0,8.03515625,3.5625,1,0,0,rectangle,8.03515625,3.5625,1,0,0,8.03515625,3.5625,1,0,0,0,65,65,29,1,,,,,,,,
,,,,,,,,,,,,,FF,,,,,,,,0.7847,,,,,,,,,,,,,,,,,,,,,,60fcf17f0e7f07f8a04730da,61036ba44c468ff0f756b1ab,2021-07-29_22h02.39.111,Simcolourproject_2stim_asymm_v5,2020.2.10,MacIntel,60,61025ae37ef11b136ea224fe,,,,,,,,,3928,-19.95703125,55.28515625,1,0,0,response7disk,,0,-12.96875,7.6640625,1,0,0,rectangle,-12.96875,7.6640625,1,0,0,-12.96875,7.6640625,1,0,0,0,66,66,4,1,,,,,,,,
,,,,,,,,,,,,,FF,,,,,,,,1.0322,,,,,,,,,,,,,,,,,,,,,,60fcf17f0e7f07f8a04730da,61036ba44c468ff0f756b1ab,2021-07-29_22h02.39.111,Simcolourproject_2stim_asymm_v5,2020.2.10,MacIntel,60,61025ae37ef11b136ea224fe,,,,,,,,,3132,-31.37890625,69.640625,1,0,0,response7disk,,0,-15.1875,6.48828125,1,0,0,rectangle,-108.6523438,55.7578125,1,0,0,-0.3828125,3.3828125,1,0,0,0,67,67,37,1,,response7disk_3,TRUE,1,1,"[90,70,111,68,227,7,145,266,43,128,148,213,272,200,226,31,239,65,258,4]",1.2833,rectangle
,,,,,,,,,,,,,FF,,,,,,,,1.6832,,,,,,,,,,,,,,,,,,,,,,60fcf17f0e7f07f8a04730da,61036ba44c468ff0f756b1ab,2021-07-29_22h02.39.111,Simcolourproject_2stim_asymm_v5,2020.2.10,MacIntel,60,61025ae37ef11b136ea224fe,,,,,,,,,1685,-25.4609375,-73.23046875,1,0,0,response5disk,,3,2.77734375,6.77734375,1,0,0,rectangle,2.77734375,6.77734375,1,0,0,2.77734375,6.77734375,1,0,0,0,68,68,36,1,,,,,,,,
,,,,,,,,,,,,,FF,,,,,,,,1.1176,,,,,,,,,,,,,,,,,,,,,,60fcf17f0e7f07f8a04730da,61036ba44c468ff0f756b1ab,2021-07-29_22h02.39.111,Simcolourproject_2stim_asymm_v5,2020.2.10,MacIntel,60,61025ae37ef11b136ea224fe,,,,,,,,,3926,-62.2265625,18.60546875,1,0,0,response7disk,,1,-13.45703125,-0.26171875,1,0,0,rectangle,-83.328125,53.45703125,1,0,0,-9.546875,4.1171875,1,0,0,0,69,69,126,1,,response7disk_3,TRUE,1,1,"[90,70,111,68,227,7,145,266,43,128,148,213,272,200,226,31,239,65,258,4]",1.0171,rectangle
,,,,,,,,,,,,,FF,,,,,,,,0.8826,,,,,,,,,,,,,,,,,,,,,,60fcf17f0e7f07f8a04730da,61036ba44c468ff0f756b1ab,2021-07-29_22h02.39.111,Simcolourproject_2stim_asymm_v5,2020.2.10,MacIntel,60,61025ae37ef11b136ea224fe,,,,,,,,,2485,-43.234375,-81.734375,1,0,0,response5disk,,3,-2.06640625,-11.39453125,1,0,0,rectangle,-2.06640625,-11.39453125,1,0,0,-2.06640625,-11.39453125,1,0,0,0,70,70,84,1,,,,,,,,
,,,,,,,,,,,,,FF,,,,,,,,2.5009,,,,,,,,,,,,,,,,,,,,,,60fcf17f0e7f07f8a04730da,61036ba44c468ff0f756b1ab,2021-07-29_22h02.39.111,Simcolourproject_2stim_asymm_v5,2020.2.10,MacIntel,60,61025ae37ef11b136ea224fe,,,,,,,,,3439,-65.2578125,-19.3359375,1,0,0,response5disk,,2,-20.3046875,-10.2421875,1,0,0,rectangle,-20.3046875,-10.2421875,1,0,0,-20.3046875,-10.2421875,1,0,0,0,71,71,20,1,,,,,,,,
,,,,,,,,,,,,,FF,,,,,,,,4.5002,,,,,,,,,,,,,,,,,,,,,,60fcf17f0e7f07f8a04730da,61036ba44c468ff0f756b1ab,2021-07-29_22h02.39.111,Simcolourproject_2stim_asymm_v5,2020.2.10,MacIntel,60,61025ae37ef11b136ea224fe,,,,,,,,,429,-43.7265625,59.73046875,1,0,0,response7disk,,0,-7.9453125,-4.4140625,1,0,0,rectangle,-7.9453125,-4.4140625,1,0,0,-7.9453125,-4.4140625,1,0,0,0,72,72,91,1,,,,,,,,
,,,,,,,,,,,,,FF,,,,,,,,1.3843,,,,,,,,,,,,,,,,,,,,,,60fcf17f0e7f07f8a04730da,61036ba44c468ff0f756b1ab,2021-07-29_22h02.39.111,Simcolourproject_2stim_asymm_v5,2020.2.10,MacIntel,60,61025ae37ef11b136ea224fe,,,,,,,,,3485,-83.18359375,-16.12890625,1,0,0,response5disk,,2,-8.4453125,-8.33984375,1,0,0,rectangle,-8.4453125,-8.33984375,1,0,0,-8.4453125,-8.33984375,1,0,0,0,73,73,14,1,,,,,,,,
,,,,,,,,,,,,,FF,,,,,,,,7.4665,,,,,,,,,,,,,,,,,,,,,,60fcf17f0e7f07f8a04730da,61036ba44c468ff0f756b1ab,2021-07-29_22h02.39.111,Simcolourproject_2stim_asymm_v5,2020.2.10,MacIntel,60,61025ae37ef11b136ea224fe,,,,,,,,,2746,-39.453125,98.125,1,0,0,response7disk,,0,-10.8671875,12.7109375,1,0,0,rectangle,-10.8671875,12.7109375,1,0,0,-10.8671875,12.7109375,1,0,0,0,74,74,34,1,,,,,,,,
,,,,,,,,,,,,,FF,,,,,,,,0.7162,,,,,,,,,,,,,,,,,,,,,,60fcf17f0e7f07f8a04730da,61036ba44c468ff0f756b1ab,2021-07-29_22h02.39.111,Simcolourproject_2stim_asymm_v5,2020.2.10,MacIntel,60,61025ae37ef11b136ea224fe,,,,,,,,,887,46.234375,40.953125,1,0,0,response1disk,,6,-15.2265625,-7.59765625,1,0,0,rectangle,-15.2265625,-7.59765625,1,0,0,-15.2265625,-7.59765625,1,0,0,0,75,75,6,1,,,,,,,,
,,,,,,,,,,,,,FF,,,,,,,,1.2006,,,,,,,,,,,,,,,,,,,,,,60fcf17f0e7f07f8a04730da,61036ba44c468ff0f756b1ab,2021-07-29_22h02.39.111,Simcolourproject_2stim_asymm_v5,2020.2.10,MacIntel,60,61025ae37ef11b136ea224fe,,,,,,,,,3378,-48.4765625,-31.4609375,1,0,0,response5disk,,2,-2.0546875,11.69140625,1,0,0,rectangle,-2.0546875,11.69140625,1,0,0,-2.0546875,11.69140625,1,0,0,0,76,76,8,1,,,,,,,,
,,,,,,,,,,,,,FF,,,,,,,,0.6829,,,,,,,,,,,,,,,,,,,,,,60fcf17f0e7f07f8a04730da,61036ba44c468ff0f756b1ab,2021-07-29_22h02.39.111,Simcolourproject_2stim_asymm_v5,2020.2.10,MacIntel,60,61025ae37ef11b136ea224fe,,,,,,,,,491,-30.0546875,70.6484375,1,0,0,response7disk,,0,-5.5703125,0.98046875,1,0,0,rectangle,-5.5703125,0.98046875,1,0,0,-5.5703125,0.98046875,1,0,0,0,77,77,133,1,,,,,,,,
,,,,,,,,,,,,,FF,,,,,,,,1.2832,,,,,,,,,,,,,,,,,,,,,,60fcf17f0e7f07f8a04730da,61036ba44c468ff0f756b1ab,2021-07-29_22h02.39.111,Simcolourproject_2stim_asymm_v5,2020.2.10,MacIntel,60,61025ae37ef11b136ea224fe,,,,,,,,,1385,-34.9140625,-66.3671875,1,0,0,response5disk,,3,-3.984375,-3.140625,1,0,0,rectangle,-3.984375,-3.140625,1,0,0,-3.984375,-3.140625,1,0,0,0,78,78,86,1,,,,,,,,
,,,,,,,,,,,,,FF,,,,,,,,5.5031,,,,,,,,,,,,,,,,,,,,,,60fcf17f0e7f07f8a04730da,61036ba44c468ff0f756b1ab,2021-07-29_22h02.39.111,Simcolourproject_2stim_asymm_v5,2020.2.10,MacIntel,60,61025ae37ef11b136ea224fe,,,,,,,,,2084,-36.55859375,85.11328125,1,0,0,response7disk,,0,-0.359375,1.7734375,1,0,0,rectangle,-0.359375,1.7734375,1,0,0,-0.359375,1.7734375,1,0,0,0,79,79,92,1,,,,,,,,
,,,,,,,,,,,,,FF,,,,,,,,1.0993,,,,,,,,,,,,,,,,,,,,,,60fcf17f0e7f07f8a04730da,61036ba44c468ff0f756b1ab,2021-07-29_22h02.39.111,Simcolourproject_2stim_asymm_v5,2020.2.10,MacIntel,60,61025ae37ef11b136ea224fe,,,,,,,,,1614,41.64453125,-55.56640625,1,0,0,response3disk,,4,23.97265625,-12.203125,1,0,0,rectangle,23.97265625,-12.203125,1,0,0,23.97265625,-12.203125,1,0,0,0,80,80,74,1,,,,,,,,
,,,,,,,,,,,,,FF,,,,,,,,1.1343,,,,,,,,,,,,,,,,,,,,,,60fcf17f0e7f07f8a04730da,61036ba44c468ff0f756b1ab,2021-07-29_22h02.39.111,Simcolourproject_2stim_asymm_v5,2020.2.10,MacIntel,60,61025ae37ef11b136ea224fe,,,,,,,,,4348,-79.390625,-23.1875,1,0,0,response5disk,,2,11.51171875,-10.984375,1,0,0,rectangle,11.51171875,-10.984375,1,0,0,11.51171875,-10.984375,1,0,0,0,81,81,44,1,,,,,,,,
,,,,,,,,,,,,,FF,,,,,,,,0.668,,,,,,,,,,,,,,,,,,,,,,60fcf17f0e7f07f8a04730da,61036ba44c468ff0f756b1ab,2021-07-29_22h02.39.111,Simcolourproject_2stim_asymm_v5,2020.2.10,MacIntel,60,61025ae37ef11b136ea224fe,,,,,,,,,1707,-26.6875,69.91796875,1,0,0,response7disk,,0,-11.90234375,8.60546875,1,0,0,rectangle,-11.90234375,8.60546875,1,0,0,-11.90234375,8.60546875,1,0,0,0,82,82,53,1,,,,,,,,
,,,,,,,,,,,,,FF,,,,,,,,0.6836,,,,,,,,,,,,,,,,,,,,,,60fcf17f0e7f07f8a04730da,61036ba44c468ff0f756b1ab,2021-07-29_22h02.39.111,Simcolourproject_2stim_asymm_v5,2020.2.10,MacIntel,60,61025ae37ef11b136ea224fe,,,,,,,,,2831,65.765625,17.25390625,1,0,0,response1disk,,6,11.71484375,-9.73046875,1,0,0,rectangle,11.71484375,-9.73046875,1,0,0,11.71484375,-9.73046875,1,0,0,0,83,83,105,1,,,,,,,,
,,,,,,,,,,,,,FF,,,,,,,,1.1994,,,,,,,,,,,,,,,,,,,,,,60fcf17f0e7f07f8a04730da,61036ba44c468ff0f756b1ab,2021-07-29_22h02.39.111,Simcolourproject_2stim_asymm_v5,2020.2.10,MacIntel,60,61025ae37ef11b136ea224fe,,,,,,,,,3675,-71.61328125,51.46875,1,0,0,response7disk,,1,-26.7734375,3.86328125,1,0,0,rectangle,-26.7734375,3.86328125,1,0,0,-26.7734375,3.86328125,1,0,0,0,84,84,56,1,,,,,,,,
,,,,,,,,,,,,,FF,,,,,,,,1.6131,,,,,,,,,,,,,,,,,,,,,,60fcf17f0e7f07f8a04730da,61036ba44c468ff0f756b1ab,2021-07-29_22h02.39.111,Simcolourproject_2stim_asymm_v5,2020.2.10,MacIntel,60,61025ae37ef11b136ea224fe,,,,,,,,,2224,-61.046875,87.921875,1,0,0,response7disk,,0,-24.0625,11.9609375,1,0,0,rectangle,-24.0625,11.9609375,1,0,0,-24.0625,11.9609375,1,0,0,0,85,85,99,1,,,,,,,,
,,,,,,,,,,,,,FF,,,,,,,,0.864,,,,,,,,,,,,,,,,,,,,,,60fcf17f0e7f07f8a04730da,61036ba44c468ff0f756b1ab,2021-07-29_22h02.39.111,Simcolourproject_2stim_asymm_v5,2020.2.10,MacIntel,60,61025ae37ef11b136ea224fe,,,,,,,,,2419,65.01953125,34.265625,1,0,0,response1disk,,6,15.1640625,2,1,0,0,rectangle,15.1640625,2,1,0,0,15.1640625,2,1,0,0,0,86,86,30,1,,,,,,,,
,,,,,,,,,,,,,FF,,,,,,,,0.9331,,,,,,,,,,,,,,,,,,,,,,60fcf17f0e7f07f8a04730da,61036ba44c468ff0f756b1ab,2021-07-29_22h02.39.111,Simcolourproject_2stim_asymm_v5,2020.2.10,MacIntel,60,61025ae37ef11b136ea224fe,,,,,,,,,4118,34.13671875,75.71484375,1,0,0,response1disk,,7,19.67578125,-8.12109375,1,0,0,rectangle,19.67578125,-8.12109375,1,0,0,19.67578125,-8.12109375,1,0,0,0,87,87,129,1,,,,,,,,
,,,,,,,,,,,,,FF,,,,,,,,2.1827,,,,,,,,,,,,,,,,,,,,,,60fcf17f0e7f07f8a04730da,61036ba44c468ff0f756b1ab,2021-07-29_22h02.39.111,Simcolourproject_2stim_asymm_v5,2020.2.10,MacIntel,60,61025ae37ef11b136ea224fe,,,,,,,,,3302,-31.18359375,82.9609375,1,0,0,response7disk,,0,-12.8671875,5.8125,1,0,0,rectangle,-12.8671875,5.8125,1,0,0,-12.8671875,5.8125,1,0,0,0,88,88,51,1,,,,,,,,
,,,,,,,,,,,,,FF,,,,,,,,2.3836,,,,,,,,,,,,,,,,,,,,,,60fcf17f0e7f07f8a04730da,61036ba44c468ff0f756b1ab,2021-07-29_22h02.39.111,Simcolourproject_2stim_asymm_v5,2020.2.10,MacIntel,60,61025ae37ef11b136ea224fe,,,,,,,,,290,-34.0625,80.01953125,1,0,0,response7disk,,0,6.30859375,-3.80859375,1,0,0,rectangle,35.18359375,95.1796875,1,0,0,-6.859375,0.59765625,1,0,0,0,89,89,18,1,,response1disk_3,TRUE,7,7,"[90,70,111,68,227,7,145,266,43,128,148,213,272,200,226,31,239,65,258,4]",11.0835,rectangle
,,,,,,,,,,,,,FF,,,,,,,,1.3167,,,,,,,,,,,,,,,,,,,,,,60fcf17f0e7f07f8a04730da,61036ba44c468ff0f756b1ab,2021-07-29_22h02.39.111,Simcolourproject_2stim_asymm_v5,2020.2.10,MacIntel,60,61025ae37ef11b136ea224fe,,,,,,,,,1453,43.8359375,-33.46875,1,0,0,response3disk,,5,-1.546875,-16.078125,1,0,0,rectangle,-1.546875,-16.078125,1,0,0,-1.546875,-16.078125,1,0,0,0,90,90,142,1,,,,,,,,
,,,,,,,,,,,,,FF,,,,,,,,2.7506,,,,,,,,,,,,,,,,,,,,,,60fcf17f0e7f07f8a04730da,61036ba44c468ff0f756b1ab,2021-07-29_22h02.39.111,Simcolourproject_2stim_asymm_v5,2020.2.10,MacIntel,60,61025ae37ef11b136ea224fe,,,,,,,,,3901,37.9296875,-49.96875,1,0,0,response3disk,,4,1.92578125,3.22265625,1,0,0,rectangle,1.92578125,3.22265625,1,0,0,1.92578125,3.22265625,1,0,0,0,91,91,120,1,,,,,,,,
,,,,,,,,,,,,,FF,,,,,,,,0.9336,,,,,,,,,,,,,,,,,,,,,,60fcf17f0e7f07f8a04730da,61036ba44c468ff0f756b1ab,2021-07-29_22h02.39.111,Simcolourproject_2stim_asymm_v5,2020.2.10,MacIntel,60,61025ae37ef11b136ea224fe,,,,,,,,,3640,-49.46484375,76.62890625,1,0,0,response7disk,,0,-4.27734375,-8.7421875,1,0,0,rectangle,-4.27734375,-8.7421875,1,0,0,-4.27734375,-8.7421875,1,0,0,0,92,92,155,1,,,,,,,,
,,,,,,,,,,,,,FF,,,,,,,,5.8995,,,,,,,,,,,,,,,,,,,,,,60fcf17f0e7f07f8a04730da,61036ba44c468ff0f756b1ab,2021-07-29_22h02.39.111,Simcolourproject_2stim_asymm_v5,2020.2.10,MacIntel,60,61025ae37ef11b136ea224fe,,,,,,,,,2045,-77.49609375,-53.5234375,1,0,0,response5disk,,2,1.32421875,9.5703125,1,0,0,rectangle,1.32421875,9.5703125,1,0,0,1.32421875,9.5703125,1,0,0,0,93,93,151,1,,,,,,,,
,,,,,,,,,,,,,FF,,,,,,,,0.7498,,,,,,,,,,,,,,,,,,,,,,60fcf17f0e7f07f8a04730da,61036ba44c468ff0f756b1ab,2021-07-29_22h02.39.111,Simcolourproject_2stim_asymm_v5,2020.2.10,MacIntel,60,61025ae37ef11b136ea224fe,,,,,,,,,202,-35.2421875,92.453125,1,0,0,response7disk,,0,-5.84765625,8.54296875,1,0,0,rectangle,-5.84765625,8.54296875,1,0,0,-5.84765625,8.54296875,1,0,0,0,94,94,63,1,,,,,,,,
,,,,,,,,,,,,,FF,,,,,,,,3.9664,,,,,,,,,,,,,,,,,,,,,,60fcf17f0e7f07f8a04730da,61036ba44c468ff0f756b1ab,2021-07-29_22h02.39.111,Simcolourproject_2stim_asymm_v5,2020.2.10,MacIntel,60,61025ae37ef11b136ea224fe,,,,,,,,,2070,-27.109375,41.09375,1,0,0,response7disk,,0,-16.2265625,14.23828125,1,0,0,rectangle,-16.2265625,14.23828125,1,0,0,-16.2265625,14.23828125,1,0,0,0,95,95,143,1,,,,,,,,
,,,,,,,,,,,,,FF,,,,,,,,0.8988,,,,,,,,,,,,,,,,,,,,,,60fcf17f0e7f07f8a04730da,61036ba44c468ff0f756b1ab,2021-07-29_22h02.39.111,Simcolourproject_2stim_asymm_v5,2020.2.10,MacIntel,60,61025ae37ef11b136ea224fe,,,,,,,,,2285,27.5,-66.078125,1,0,0,response3disk,,4,14.86328125,-14.8125,1,0,0,rectangle,14.86328125,-14.8125,1,0,0,14.86328125,-14.8125,1,0,0,0,96,96,42,1,,,,,,,,
,,,,,,,,,,,,,FF,,,,,,,,0.7162,,,,,,,,,,,,,,,,,,,,,,60fcf17f0e7f07f8a04730da,61036ba44c468ff0f756b1ab,2021-07-29_22h02.39.111,Simcolourproject_2stim_asymm_v5,2020.2.10,MacIntel,60,61025ae37ef11b136ea224fe,,,,,,,,,3231,-17.484375,64.328125,1,0,0,response7disk,,0,-7.30859375,-7.31640625,1,0,0,rectangle,-7.30859375,-7.31640625,1,0,0,-7.30859375,-7.31640625,1,0,0,0,97,97,93,1,,,,,,,,
,,,,,,,,,,,,,FF,,,,,,,,1.3169,,,,,,,,,,,,,,,,,,,,,,60fcf17f0e7f07f8a04730da,61036ba44c468ff0f756b1ab,2021-07-29_22h02.39.111,Simcolourproject_2stim_asymm_v5,2020.2.10,MacIntel,60,61025ae37ef11b136ea224fe,,,,,,,,,692,-46.80859375,82.046875,1,0,0,response7disk,,0,1.2421875,-2.22265625,1,0,0,rectangle,1.2421875,-2.22265625,1,0,0,1.2421875,-2.22265625,1,0,0,0,98,98,65,1,,,,,,,,
,,,,,,,,,,,,,FF,,,,,,,,2.4836,,,,,,,,,,,,,,,,,,,,,,60fcf17f0e7f07f8a04730da,61036ba44c468ff0f756b1ab,2021-07-29_22h02.39.111,Simcolourproject_2stim_asymm_v5,2020.2.10,MacIntel,60,61025ae37ef11b136ea224fe,,,,,,,,,2566,-50.28515625,96.1328125,1,0,0,response7disk,,0,-5.08984375,7.359375,1,0,0,rectangle,-5.08984375,7.359375,1,0,0,-5.08984375,7.359375,1,0,0,0,99,99,31,1,,,,,,,,
,,,,,,,,,,,,,FF,,,,,,,,1.1289,,,,,,,,,,,,,,,,,,,,,,60fcf17f0e7f07f8a04730da,61036ba44c468ff0f756b1ab,2021-07-29_22h02.39.111,Simcolourproject_2stim_asymm_v5,2020.2.10,MacIntel,60,61025ae37ef11b136ea224fe,,,,,,,,,1664,-51.8828125,-36.34375,1,0,0,response5disk,,2,13.8125,-3.421875,1,0,0,rectangle,13.8125,-3.421875,1,0,0,13.8125,-3.421875,1,0,0,0,100,100,137,1,,,,,,,,
,,,,,,,,,,,,,FF,,,,,,,,2.5827,,,,,,,,,,,,,,,,,,,,,,60fcf17f0e7f07f8a04730da,61036ba44c468ff0f756b1ab,2021-07-29_22h02.39.111,Simcolourproject_2stim_asymm_v5,2020.2.10,MacIntel,60,61025ae37ef11b136ea224fe,,,,,,,,,2430,23.1953125,-68.00390625,1,0,0,response3disk,,4,18.99609375,4.0234375,1,0,0,rectangle,18.99609375,4.0234375,1,0,0,18.99609375,4.0234375,1,0,0,0,101,101,48,1,,,,,,,,
,,,,,,,,,,,,,FF,,,,,,,,1.2003,,,,,,,,,,,,,,,,,,,,,,60fcf17f0e7f07f8a04730da,61036ba44c468ff0f756b1ab,2021-07-29_22h02.39.111,Simcolourproject_2stim_asymm_v5,2020.2.10,MacIntel,60,61025ae37ef11b136ea224fe,,,,,,,,,3783,66.50390625,61.82421875,1,0,0,response1disk,,6,-19.4296875,15.86328125,1,0,0,rectangle,-19.4296875,15.86328125,1,0,0,-19.4296875,15.86328125,1,0,0,0,102,102,41,1,,,,,,,,
,,,,,,,,,,,,,FF,,,,,,,,1.0082,,,,,,,,,,,,,,,,,,,,,,60fcf17f0e7f07f8a04730da,61036ba44c468ff0f756b1ab,2021-07-29_22h02.39.111,Simcolourproject_2stim_asymm_v5,2020.2.10,MacIntel,60,61025ae37ef11b136ea224fe,,,,,,,,,2056,-30.19921875,44.87109375,1,0,0,response7disk,,0,-20.26171875,-13.265625,1,0,0,rectangle,-20.26171875,-13.265625,1,0,0,-20.26171875,-13.265625,1,0,0,0,103,103,76,1,,,,,,,,
,,,,,,,,,,,,,FF,,,,,,,,1.2003,,,,,,,,,,,,,,,,,,,,,,60fcf17f0e7f07f8a04730da,61036ba44c468ff0f756b1ab,2021-07-29_22h02.39.111,Simcolourproject_2stim_asymm_v5,2020.2.10,MacIntel,60,61025ae37ef11b136ea224fe,,,,,,,,,3299,-61.28125,33.84375,1,0,0,response7disk,,1,-11.69140625,2.86328125,1,0,0,rectangle,-11.69140625,2.86328125,1,0,0,-11.69140625,2.86328125,1,0,0,0,104,104,119,1,,,,,,,,
,,,,,,,,,,,,,FF,,,,,,,,1.3519,,,,,,,,,,,,,,,,,,,,,,60fcf17f0e7f07f8a04730da,61036ba44c468ff0f756b1ab,2021-07-29_22h02.39.111,Simcolourproject_2stim_asymm_v5,2020.2.10,MacIntel,60,61025ae37ef11b136ea224fe,,,,,,,,,2710,-33.6015625,-71.32421875,1,0,0,response5disk,,3,3.83203125,8.70703125,1,0,0,rectangle,3.83203125,8.70703125,1,0,0,3.83203125,8.70703125,1,0,0,0,105,105,16,1,,,,,,,,
,,,,,,,,,,,,,FF,,,,,,,,0.5342,,,,,,,,,,,,,,,,,,,,,,60fcf17f0e7f07f8a04730da,61036ba44c468ff0f756b1ab,2021-07-29_22h02.39.111,Simcolourproject_2stim_asymm_v5,2020.2.10,MacIntel,60,61025ae37ef11b136ea224fe,,,,,,,,,1634,-32.921875,85.1015625,1,0,0,response7disk,,0,-8.25,-0.37890625,1,0,0,rectangle,-8.25,-0.37890625,1,0,0,-8.25,-0.37890625,1,0,0,0,106,106,39,1,,,,,,,,
,,,,,,,,,,,,,FF,,,,,,,,1.9168,,,,,,,,,,,,,,,,,,,,,,60fcf17f0e7f07f8a04730da,61036ba44c468ff0f756b1ab,2021-07-29_22h02.39.111,Simcolourproject_2stim_asymm_v5,2020.2.10,MacIntel,60,61025ae37ef11b136ea224fe,,,,,,,,,155,-34.59375,74.77734375,1,0,0,response7disk,,0,-11.3046875,7.3984375,1,0,0,rectangle,-11.3046875,7.3984375,1,0,0,-11.3046875,7.3984375,1,0,0,0,107,107,11,1,,,,,,,,
,,,,,,,,,,,,,FF,,,,,,,,0.6006,,,,,,,,,,,,,,,,,,,,,,60fcf17f0e7f07f8a04730da,61036ba44c468ff0f756b1ab,2021-07-29_22h02.39.111,Simcolourproject_2stim_asymm_v5,2020.2.10,MacIntel,60,61025ae37ef11b136ea224fe,,,,,,,,,3011,-37.40625,81.5078125,1,0,0,response7disk,,0,-19.97265625,10.07421875,1,0,0,rectangle,-19.97265625,10.07421875,1,0,0,-19.97265625,10.07421875,1,0,0,0,108,108,131,1,,,,,,,,
,,,,,,,,,,,,,FF,,,,,,,,0.5331,,,,,,,,,,,,,,,,,,,,,,60fcf17f0e7f07f8a04730da,61036ba44c468ff0f756b1ab,2021-07-29_22h02.39.111,Simcolourproject_2stim_asymm_v5,2020.2.10,MacIntel,60,61025ae37ef11b136ea224fe,,,,,,,,,1037,-49.3828125,83.78125,1,0,0,response7disk,,0,-13.171875,12.6640625,1,0,0,rectangle,-13.171875,12.6640625,1,0,0,-13.171875,12.6640625,1,0,0,0,109,109,79,1,,,,,,,,
,,,,,,,,,,,,,FF,,,,,,,,0.8822,,,,,,,,,,,,,,,,,,,,,,60fcf17f0e7f07f8a04730da,61036ba44c468ff0f756b1ab,2021-07-29_22h02.39.111,Simcolourproject_2stim_asymm_v5,2020.2.10,MacIntel,60,61025ae37ef11b136ea224fe,,,,,,,,,2111,-37.921875,-45.3203125,1,0,0,response5disk,,3,-15.0390625,-4.0546875,1,0,0,rectangle,-99.3515625,-36.609375,1,0,0,4.25,6.73828125,1,0,0,0,110,110,110,1,,response5disk_3,TRUE,2,2,"[90,70,111,68,227,7,145,266,43,128,148,213,272,200,226,31,239,65,258,4]",1.8667,rectangle
,,,,,,,,,,,,,FF,,,,,,,,1.6846,,,,,,,,,,,,,,,,,,,,,,60fcf17f0e7f07f8a04730da,61036ba44c468ff0f756b1ab,2021-07-29_22h02.39.111,Simcolourproject_2stim_asymm_v5,2020.2.10,MacIntel,60,61025ae37ef11b136ea224fe,,,,,,,,,4232,-25.15234375,63.890625,1,0,0,response7disk,,0,-3.296875,-0.8359375,1,0,0,rectangle,-3.296875,-0.8359375,1,0,0,-3.296875,-0.8359375,1,0,0,0,111,111,0,1,,,,,,,,
,,,,,,,,,,,,,FF,,,,,,,,0.5159,,,,,,,,,,,,,,,,,,,,,,60fcf17f0e7f07f8a04730da,61036ba44c468ff0f756b1ab,2021-07-29_22h02.39.111,Simcolourproject_2stim_asymm_v5,2020.2.10,MacIntel,60,61025ae37ef11b136ea224fe,,,,,,,,,57,-48.03515625,86.1640625,1,0,0,response7disk,,0,-13.6953125,-4.79296875,1,0,0,rectangle,-13.6953125,-4.79296875,1,0,0,-13.6953125,-4.79296875,1,0,0,0,112,112,67,1,,,,,,,,
,,,,,,,,,,,,,FF,,,,,,,,0.9335,,,,,,,,,,,,,,,,,,,,,,60fcf17f0e7f07f8a04730da,61036ba44c468ff0f756b1ab,2021-07-29_22h02.39.111,Simcolourproject_2stim_asymm_v5,2020.2.10,MacIntel,60,61025ae37ef11b136ea224fe,,,,,,,,,1232,-63.828125,-47.7421875,1,0,0,response5disk,,2,19.109375,2.1796875,1,0,0,rectangle,19.109375,2.1796875,1,0,0,19.109375,2.1796875,1,0,0,0,113,113,45,1,,,,,,,,
,,,,,,,,,,,,,FF,,,,,,,,2.3509,,,,,,,,,,,,,,,,,,,,,,60fcf17f0e7f07f8a04730da,61036ba44c468ff0f756b1ab,2021-07-29_22h02.39.111,Simcolourproject_2stim_asymm_v5,2020.2.10,MacIntel,60,61025ae37ef11b136ea224fe,,,,,,,,,3829,-56.4140625,45.73046875,1,0,0,response7disk,,1,-14.86328125,0.91015625,1,0,0,rectangle,-14.86328125,0.91015625,1,0,0,-14.86328125,0.91015625,1,0,0,0,114,114,46,1,,,,,,,,
,,,,,,,,,,,,,FF,,,,,,,,1.2,,,,,,,,,,,,,,,,,,,,,,60fcf17f0e7f07f8a04730da,61036ba44c468ff0f756b1ab,2021-07-29_22h02.39.111,Simcolourproject_2stim_asymm_v5,2020.2.10,MacIntel,60,61025ae37ef11b136ea224fe,,,,,,,,,3895,-47.59375,67.078125,1,0,0,response7disk,,0,-22.98046875,2.70703125,1,0,0,rectangle,-22.98046875,2.70703125,1,0,0,-22.98046875,2.70703125,1,0,0,0,115,115,9,1,,,,,,,,
,,,,,,,,,,,,,FF,,,,,,,,1.0343,,,,,,,,,,,,,,,,,,,,,,60fcf17f0e7f07f8a04730da,61036ba44c468ff0f756b1ab,2021-07-29_22h02.39.111,Simcolourproject_2stim_asymm_v5,2020.2.10,MacIntel,60,61025ae37ef11b136ea224fe,,,,,,,,,3063,-77.0546875,21.4453125,1,0,0,response7disk,,1,-3.31640625,-2.7890625,1,0,0,rectangle,-3.31640625,-2.7890625,1,0,0,-3.31640625,-2.7890625,1,0,0,0,116,116,66,1,,,,,,,,
,,,,,,,,,,,,,FF,,,,,,,,0.8568,,,,,,,,,,,,,,,,,,,,,,60fcf17f0e7f07f8a04730da,61036ba44c468ff0f756b1ab,2021-07-29_22h02.39.111,Simcolourproject_2stim_asymm_v5,2020.2.10,MacIntel,60,61025ae37ef11b136ea224fe,,,,,,,,,334,-21.11328125,72.515625,1,0,0,response7disk,,0,-5.9609375,13.62109375,1,0,0,rectangle,-5.9609375,13.62109375,1,0,0,-5.9609375,13.62109375,1,0,0,0,117,117,72,1,,,,,,,,
,,,,,,,,,,,,,FF,,,,,,,,1.0173,,,,,,,,,,,,,,,,,,,,,,60fcf17f0e7f07f8a04730da,61036ba44c468ff0f756b1ab,2021-07-29_22h02.39.111,Simcolourproject_2stim_asymm_v5,2020.2.10,MacIntel,60,61025ae37ef11b136ea224fe,,,,,,,,,762,-51.9453125,91.28515625,1,0,0,response7disk,,0,-17.41796875,0.6484375,1,0,0,rectangle,-17.41796875,0.6484375,1,0,0,-17.41796875,0.6484375,1,0,0,0,118,118,122,1,,,,,,,,
,,,,,,,,,,,,,FF,,,,,,,,0.7006,,,,,,,,,,,,,,,,,,,,,,60fcf17f0e7f07f8a04730da,61036ba44c468ff0f756b1ab,2021-07-29_22h02.39.111,Simcolourproject_2stim_asymm_v5,2020.2.10,MacIntel,60,61025ae37ef11b136ea224fe,,,,,,,,,256,-58.49609375,35.51953125,1,0,0,response7disk,,1,-3.42578125,-8.0078125,1,0,0,rectangle,-3.42578125,-8.0078125,1,0,0,-3.42578125,-8.0078125,1,0,0,0,119,119,25,1,,,,,,,,
,,,,,,,,,,,,,FF,,,,,,,,1.3153,,,,,,,,,,,,,,,,,,,,,,60fcf17f0e7f07f8a04730da,61036ba44c468ff0f756b1ab,2021-07-29_22h02.39.111,Simcolourproject_2stim_asymm_v5,2020.2.10,MacIntel,60,61025ae37ef11b136ea224fe,,,,,,,,,1135,-52.87890625,-41.1171875,1,0,0,response5disk,,2,-2.765625,-7.9609375,1,0,0,rectangle,-2.765625,-7.9609375,1,0,0,-2.765625,-7.9609375,1,0,0,0,120,120,154,1,,,,,,,,
,,,,,,,,,,,,,FF,,,,,,,,0.5502,,,,,,,,,,,,,,,,,,,,,,60fcf17f0e7f07f8a04730da,61036ba44c468ff0f756b1ab,2021-07-29_22h02.39.111,Simcolourproject_2stim_asymm_v5,2020.2.10,MacIntel,60,61025ae37ef11b136ea224fe,,,,,,,,,489,-41.2890625,91.9453125,1,0,0,response7disk,,0,-13.4921875,9.5625,1,0,0,rectangle,-13.4921875,9.5625,1,0,0,-13.4921875,9.5625,1,0,0,0,121,121,21,1,,,,,,,,
,,,,,,,,,,,,,FF,,,,,,,,1.0839,,,,,,,,,,,,,,,,,,,,,,60fcf17f0e7f07f8a04730da,61036ba44c468ff0f756b1ab,2021-07-29_22h02.39.111,Simcolourproject_2stim_asymm_v5,2020.2.10,MacIntel,60,61025ae37ef11b136ea224fe,,,,,,,,,989,-51.59375,-67.90234375,1,0,0,response5disk,,3,-14.78515625,8.37890625,1,0,0,rectangle,-14.78515625,8.37890625,1,0,0,-14.78515625,8.37890625,1,0,0,0,122,122,43,1,,,,,,,,
,,,,,,,,,,,,,FF,,,,,,,,1.0673,,,,,,,,,,,,,,,,,,,,,,60fcf17f0e7f07f8a04730da,61036ba44c468ff0f756b1ab,2021-07-29_22h02.39.111,Simcolourproject_2stim_asymm_v5,2020.2.10,MacIntel,60,61025ae37ef11b136ea224fe,,,,,,,,,1305,35.4453125,-79.1171875,1,0,0,response3disk,,4,-4.17578125,2.33203125,1,0,0,rectangle,-4.17578125,2.33203125,1,0,0,-4.17578125,2.33203125,1,0,0,0,123,123,104,1,,,,,,,,
,,,,,,,,,,,,,FF,,,,,,,,0.8334,,,,,,,,,,,,,,,,,,,,,,60fcf17f0e7f07f8a04730da,61036ba44c468ff0f756b1ab,2021-07-29_22h02.39.111,Simcolourproject_2stim_asymm_v5,2020.2.10,MacIntel,60,61025ae37ef11b136ea224fe,,,,,,,,,2025,30.46875,73.43359375,1,0,0,response1disk,,7,14.41015625,9.91796875,1,0,0,rectangle,14.41015625,9.91796875,1,0,0,14.41015625,9.91796875,1,0,0,0,124,124,98,1,,,,,,,,
,,,,,,,,,,,,,FF,,,,,,,,0.5652,,,,,,,,,,,,,,,,,,,,,,60fcf17f0e7f07f8a04730da,61036ba44c468ff0f756b1ab,2021-07-29_22h02.39.111,Simcolourproject_2stim_asymm_v5,2020.2.10,MacIntel,60,61025ae37ef11b136ea224fe,,,,,,,,,2197,-46.4921875,90.2421875,1,0,0,response7disk,,0,-14.17578125,5.23828125,1,0,0,rectangle,-14.17578125,5.23828125,1,0,0,-14.17578125,5.23828125,1,0,0,0,125,125,136,1,,,,,,,,
,,,,,,,,,,,,,FF,,,,,,,,0.7833,,,,,,,,,,,,,,,,,,,,,,60fcf17f0e7f07f8a04730da,61036ba44c468ff0f756b1ab,2021-07-29_22h02.39.111,Simcolourproject_2stim_asymm_v5,2020.2.10,MacIntel,60,61025ae37ef11b136ea224fe,,,,,,,,,1167,-43.40625,100.6367188,1,0,0,response7disk,,0,-18.328125,12.96484375,1,0,0,rectangle,-18.328125,12.96484375,1,0,0,-18.328125,12.96484375,1,0,0,0,126,126,88,1,,,,,,,,
,,,,,,,,,,,,,FF,,,,,,,,0.9158,,,,,,,,,,,,,,,,,,,,,,60fcf17f0e7f07f8a04730da,61036ba44c468ff0f756b1ab,2021-07-29_22h02.39.111,Simcolourproject_2stim_asymm_v5,2020.2.10,MacIntel,60,61025ae37ef11b136ea224fe,,,,,,,,,4122,-49.03515625,38.07421875,1,0,0,response7disk,,1,13.05859375,7.7734375,1,0,0,rectangle,30.98046875,92.41796875,1,0,0,12.2890625,6.34375,1,0,0,0,127,127,26,1,,response1disk_3,TRUE,7,7,"[90,70,111,68,227,7,145,266,43,128,148,213,272,200,226,31,239,65,258,4]",1.1331,rectangle
,,,,,,,,,,,,,FF,,,,,,,,2.6008,,,,,,,,,,,,,,,,,,,,,,60fcf17f0e7f07f8a04730da,61036ba44c468ff0f756b1ab,2021-07-29_22h02.39.111,Simcolourproject_2stim_asymm_v5,2020.2.10,MacIntel,60,61025ae37ef11b136ea224fe,,,,,,,,,3054,-25.21484375,78.66015625,1,0,0,response7disk,,0,-6.7734375,-4.28515625,1,0,0,rectangle,-6.7734375,-4.28515625,1,0,0,-6.7734375,-4.28515625,1,0,0,0,128,128,135,1,,,,,,,,
,,,,,,,,,,,,,FF,,,,,,,,0.8013,,,,,,,,,,,,,,,,,,,,,,60fcf17f0e7f07f8a04730da,61036ba44c468ff0f756b1ab,2021-07-29_22h02.39.111,Simcolourproject_2stim_asymm_v5,2020.2.10,MacIntel,60,61025ae37ef11b136ea224fe,,,,,,,,,221,-24.50390625,61.7578125,1,0,0,response7disk,,0,-11.328125,-8.859375,1,0,0,rectangle,-11.328125,-8.859375,1,0,0,-11.328125,-8.859375,1,0,0,0,129,129,111,1,,,,,,,,
,,,,,,,,,,,,,FF,,,,,,,,0.8321,,,,,,,,,,,,,,,,,,,,,,60fcf17f0e7f07f8a04730da,61036ba44c468ff0f756b1ab,2021-07-29_22h02.39.111,Simcolourproject_2stim_asymm_v5,2020.2.10,MacIntel,60,61025ae37ef11b136ea224fe,,,,,,,,,2971,-33.76171875,81.625,1,0,0,response7disk,,0,3.71484375,-0.234375,1,0,0,rectangle,3.71484375,-0.234375,1,0,0,3.71484375,-0.234375,1,0,0,0,130,130,54,1,,,,,,,,
,,,,,,,,,,,,,FF,,,,,,,,1.0358,,,,,,,,,,,,,,,,,,,,,,60fcf17f0e7f07f8a04730da,61036ba44c468ff0f756b1ab,2021-07-29_22h02.39.111,Simcolourproject_2stim_asymm_v5,2020.2.10,MacIntel,60,61025ae37ef11b136ea224fe,,,,,,,,,3923,-75.04296875,43.57421875,1,0,0,response7disk,,1,-15.8125,3.65234375,1,0,0,rectangle,-15.8125,3.65234375,1,0,0,-15.8125,3.65234375,1,0,0,0,131,131,107,1,,,,,,,,
,,,,,,,,,,,,,FF,,,,,,,,1.7993,,,,,,,,,,,,,,,,,,,,,,60fcf17f0e7f07f8a04730da,61036ba44c468ff0f756b1ab,2021-07-29_22h02.39.111,Simcolourproject_2stim_asymm_v5,2020.2.10,MacIntel,60,61025ae37ef11b136ea224fe,,,,,,,,,2038,71.23046875,-36.45703125,1,0,0,response3disk,,5,2.84765625,-5.76953125,1,0,0,rectangle,2.84765625,-5.76953125,1,0,0,2.84765625,-5.76953125,1,0,0,0,132,132,157,1,,,,,,,,
,,,,,,,,,,,,,FF,,,,,,,,0.867,,,,,,,,,,,,,,,,,,,,,,60fcf17f0e7f07f8a04730da,61036ba44c468ff0f756b1ab,2021-07-29_22h02.39.111,Simcolourproject_2stim_asymm_v5,2020.2.10,MacIntel,60,61025ae37ef11b136ea224fe,,,,,,,,,2304,81.56640625,17.34375,1,0,0,response1disk,,6,6.109375,-3.99609375,1,0,0,rectangle,6.109375,-3.99609375,1,0,0,6.109375,-3.99609375,1,0,0,0,133,133,62,1,,,,,,,,
,,,,,,,,,,,,,FF,,,,,,,,3.5156,,,,,,,,,,,,,,,,,,,,,,60fcf17f0e7f07f8a04730da,61036ba44c468ff0f756b1ab,2021-07-29_22h02.39.111,Simcolourproject_2stim_asymm_v5,2020.2.10,MacIntel,60,61025ae37ef11b136ea224fe,,,,,,,,,1282,-47.0546875,61.5625,1,0,0,response7disk,,0,-29.23046875,3.5,1,0,0,rectangle,-29.23046875,3.5,1,0,0,-29.23046875,3.5,1,0,0,0,134,134,114,1,,,,,,,,
,,,,,,,,,,,,,FF,,,,,,,,5.1336,,,,,,,,,,,,,,,,,,,,,,60fcf17f0e7f07f8a04730da,61036ba44c468ff0f756b1ab,2021-07-29_22h02.39.111,Simcolourproject_2stim_asymm_v5,2020.2.10,MacIntel,60,61025ae37ef11b136ea224fe,,,,,,,,,4048,-58.98046875,33.13671875,1,0,0,response7disk,,1,-15.2890625,-8.11328125,1,0,0,rectangle,-15.2890625,-8.11328125,1,0,0,-15.2890625,-8.11328125,1,0,0,0,135,135,61,1,,,,,,,,
,,,,,,,,,,,,,FF,,,,,,,,1.4335,,,,,,,,,,,,,,,,,,,,,,60fcf17f0e7f07f8a04730da,61036ba44c468ff0f756b1ab,2021-07-29_22h02.39.111,Simcolourproject_2stim_asymm_v5,2020.2.10,MacIntel,60,61025ae37ef11b136ea224fe,,,,,,,,,2051,-74.6484375,31.921875,1,0,0,response7disk,,1,-13.40234375,13.2109375,1,0,0,rectangle,-13.40234375,13.2109375,1,0,0,-13.40234375,13.2109375,1,0,0,0,136,136,148,1,,,,,,,,
,,,,,,,,,,,,,FF,,,,,,,,0.9337,,,,,,,,,,,,,,,,,,,,,,60fcf17f0e7f07f8a04730da,61036ba44c468ff0f756b1ab,2021-07-29_22h02.39.111,Simcolourproject_2stim_asymm_v5,2020.2.10,MacIntel,60,61025ae37ef11b136ea224fe,,,,,,,,,606,-50.31640625,104.9492188,1,0,0,response7disk,,0,-9.25390625,5.78515625,1,0,0,rectangle,-9.25390625,5.78515625,1,0,0,-9.25390625,5.78515625,1,0,0,0,137,137,156,1,,,,,,,,
,,,,,,,,,,,,,FF,,,,,,,,1.1,,,,,,,,,,,,,,,,,,,,,,60fcf17f0e7f07f8a04730da,61036ba44c468ff0f756b1ab,2021-07-29_22h02.39.111,Simcolourproject_2stim_asymm_v5,2020.2.10,MacIntel,60,61025ae37ef11b136ea224fe,,,,,,,,,2301,51.5234375,-24.2109375,1,0,0,response3disk,,5,9.46875,-8.75390625,1,0,0,rectangle,9.46875,-8.75390625,1,0,0,9.46875,-8.75390625,1,0,0,0,138,138,145,1,,,,,,,,
,,,,,,,,,,,,,FF,,,,,,,,0.8505,,,,,,,,,,,,,,,,,,,,,,60fcf17f0e7f07f8a04730da,61036ba44c468ff0f756b1ab,2021-07-29_22h02.39.111,Simcolourproject_2stim_asymm_v5,2020.2.10,MacIntel,60,61025ae37ef11b136ea224fe,,,,,,,,,1067,38.60546875,-80.33984375,1,0,0,response3disk,,4,11.4140625,-10.296875,1,0,0,rectangle,11.4140625,-10.296875,1,0,0,11.4140625,-10.296875,1,0,0,0,139,139,27,1,,,,,,,,
,,,,,,,,,,,,,FF,,,,,,,,0.6001,,,,,,,,,,,,,,,,,,,,,,60fcf17f0e7f07f8a04730da,61036ba44c468ff0f756b1ab,2021-07-29_22h02.39.111,Simcolourproject_2stim_asymm_v5,2020.2.10,MacIntel,60,61025ae37ef11b136ea224fe,,,,,,,,,2336,-31.7578125,70.0078125,1,0,0,response7disk,,0,-5.6953125,-6.86328125,1,0,0,rectangle,-5.6953125,-6.86328125,1,0,0,-5.6953125,-6.86328125,1,0,0,0,140,140,97,1,,,,,,,,
,,,,,,,,,,,,,FF,,,,,,,,3.9506,,,,,,,,,,,,,,,,,,,,,,60fcf17f0e7f07f8a04730da,61036ba44c468ff0f756b1ab,2021-07-29_22h02.39.111,Simcolourproject_2stim_asymm_v5,2020.2.10,MacIntel,60,61025ae37ef11b136ea224fe,,,,,,,,,664,-21.26953125,66.54296875,1,0,0,response7disk,,0,-7.46484375,-9.55859375,1,0,0,rectangle,-7.46484375,-9.55859375,1,0,0,-7.46484375,-9.55859375,1,0,0,0,141,141,149,1,,,,,,,,
,,,,,,,,,,,,,FF,,,,,,,,2.2005,,,,,,,,,,,,,,,,,,,,,,60fcf17f0e7f07f8a04730da,61036ba44c468ff0f756b1ab,2021-07-29_22h02.39.111,Simcolourproject_2stim_asymm_v5,2020.2.10,MacIntel,60,61025ae37ef11b136ea224fe,,,,,,,,,356,-40.109375,59.75,1,0,0,response7disk,,0,-25.61328125,-14.31640625,1,0,0,rectangle,-25.61328125,-14.31640625,1,0,0,-25.61328125,-14.31640625,1,0,0,0,142,142,38,1,,,,,,,,
,,,,,,,,,,,,,FF,,,,,,,,0.7013,,,,,,,,,,,,,,,,,,,,,,60fcf17f0e7f07f8a04730da,61036ba44c468ff0f756b1ab,2021-07-29_22h02.39.111,Simcolourproject_2stim_asymm_v5,2020.2.10,MacIntel,60,61025ae37ef11b136ea224fe,,,,,,,,,2360,75.703125,46.3125,1,0,0,response1disk,,6,21.05859375,11.7109375,1,0,0,rectangle,21.05859375,11.7109375,1,0,0,21.05859375,11.7109375,1,0,0,0,143,143,73,1,,,,,,,,
,,,,,,,,,,,,,FF,,,,,,,,0.8187,,,,,,,,,,,,,,,,,,,,,,60fcf17f0e7f07f8a04730da,61036ba44c468ff0f756b1ab,2021-07-29_22h02.39.111,Simcolourproject_2stim_asymm_v5,2020.2.10,MacIntel,60,61025ae37ef11b136ea224fe,,,,,,,,,3627,-36.484375,93.49609375,1,0,0,response7disk,,0,-14.7734375,3.27734375,1,0,0,rectangle,-60.45703125,-37.56640625,1,0,0,-5.890625,-11.1015625,1,0,0,0,144,144,24,1,,response5disk_3,TRUE,2,2,"[90,70,111,68,227,7,145,266,43,128,148,213,272,200,226,31,239,65,258,4]",1.4838,rectangle
,,,,,,,,,,,,,FF,,,,,,,,3.0172,,,,,,,,,,,,,,,,,,,,,,60fcf17f0e7f07f8a04730da,61036ba44c468ff0f756b1ab,2021-07-29_22h02.39.111,Simcolourproject_2stim_asymm_v5,2020.2.10,MacIntel,60,61025ae37ef11b136ea224fe,,,,,,,,,3122,-21.53515625,77.9296875,1,0,0,response7disk,,0,-4.390625,5.7734375,1,0,0,rectangle,-4.390625,5.7734375,1,0,0,-4.390625,5.7734375,1,0,0,0,145,145,87,1,,,,,,,,
,,,,,,,,,,,,,FF,,,,,,,,1.018,,,,,,,,,,,,,,,,,,,,,,60fcf17f0e7f07f8a04730da,61036ba44c468ff0f756b1ab,2021-07-29_22h02.39.111,Simcolourproject_2stim_asymm_v5,2020.2.10,MacIntel,60,61025ae37ef11b136ea224fe,,,,,,,,,4095,46.05859375,73.6796875,1,0,0,response1disk,,7,-5.48046875,4.703125,1,0,0,rectangle,-5.48046875,4.703125,1,0,0,-5.48046875,4.703125,1,0,0,0,146,146,57,1,,,,,,,,
,,,,,,,,,,,,,FF,,,,,,,,0.7663,,,,,,,,,,,,,,,,,,,,,,60fcf17f0e7f07f8a04730da,61036ba44c468ff0f756b1ab,2021-07-29_22h02.39.111,Simcolourproject_2stim_asymm_v5,2020.2.10,MacIntel,60,61025ae37ef11b136ea224fe,,,,,,,,,2463,-39.25390625,67.703125,1,0,0,response7disk,,0,-22.6171875,3.890625,1,0,0,rectangle,89.078125,28.390625,1,0,0,-10.16015625,-0.62109375,1,0,0,0,147,147,95,1,,response1disk_3,TRUE,6,6,"[90,70,111,68,227,7,145,266,43,128,148,213,272,200,226,31,239,65,258,4]",1.6116,rectangle
,,,,,,,,,,,,,FF,,,,,,,,4.0337,,,,,,,,,,,,,,,,,,,,,,60fcf17f0e7f07f8a04730da,61036ba44c468ff0f756b1ab,2021-07-29_22h02.39.111,Simcolourproject_2stim_asymm_v5,2020.2.10,MacIntel,60,61025ae37ef11b136ea224fe,,,,,,,,,1958,37.36328125,-55.3125,1,0,0,response3disk,,4,-0.63671875,-8.48046875,1,0,0,rectangle,-0.63671875,-8.48046875,1,0,0,-0.63671875,-8.48046875,1,0,0,0,148,148,158,1,,,,,,,,
,,,,,,,,,,,,,FF,,,,,,,,0.9172,,,,,,,,,,,,,,,,,,,,,,60fcf17f0e7f07f8a04730da,61036ba44c468ff0f756b1ab,2021-07-29_22h02.39.111,Simcolourproject_2stim_asymm_v5,2020.2.10,MacIntel,60,61025ae37ef11b136ea224fe,,,,,,,,,3434,43.86328125,-64.71484375,1,0,0,response3disk,,4,18.609375,-15.97265625,1,0,0,rectangle,18.609375,-15.97265625,1,0,0,18.609375,-15.97265625,1,0,0,0,149,149,109,1,,,,,,,,
,,,,,,,,,,,,,FF,,,,,,,,0.5503,,,,,,,,,,,,,,,,,,,,,,60fcf17f0e7f07f8a04730da,61036ba44c468ff0f756b1ab,2021-07-29_22h02.39.111,Simcolourproject_2stim_asymm_v5,2020.2.10,MacIntel,60,61025ae37ef11b136ea224fe,,,,,,,,,3281,-38.6796875,99.2265625,1,0,0,response7disk,,0,0.3203125,-6.30859375,1,0,0,rectangle,0.3203125,-6.30859375,1,0,0,0.3203125,-6.30859375,1,0,0,0,150,150,15,1,,,,,,,,
,,,,,,,,,,,,,FF,,,,,,,,0.7677,,,,,,,,,,,,,,,,,,,,,,60fcf17f0e7f07f8a04730da,61036ba44c468ff0f756b1ab,2021-07-29_22h02.39.111,Simcolourproject_2stim_asymm_v5,2020.2.10,MacIntel,60,61025ae37ef11b136ea224fe,,,,,,,,,1912,-44.6640625,85.75,1,0,0,response7disk,,0,-27.87890625,8.12109375,1,0,0,rectangle,-27.87890625,8.12109375,1,0,0,-27.87890625,8.12109375,1,0,0,0,151,151,33,1,,,,,,,,
,,,,,,,,,,,,,FF,,,,,,,,0.6835,,,,,,,,,,,,,,,,,,,,,,60fcf17f0e7f07f8a04730da,61036ba44c468ff0f756b1ab,2021-07-29_22h02.39.111,Simcolourproject_2stim_asymm_v5,2020.2.10,MacIntel,60,61025ae37ef11b136ea224fe,,,,,,,,,3591,113.375,73.07421875,1,0,0,response1disk,,6,5.48828125,8.59765625,1,0,0,rectangle,5.48828125,8.59765625,1,0,0,5.48828125,8.59765625,1,0,0,0,152,152,90,1,,,,,,,,
,,,,,,,,,,,,,FF,,,,,,,,0.9504,,,,,,,,,,,,,,,,,,,,,,60fcf17f0e7f07f8a04730da,61036ba44c468ff0f756b1ab,2021-07-29_22h02.39.111,Simcolourproject_2stim_asymm_v5,2020.2.10,MacIntel,60,61025ae37ef11b136ea224fe,,,,,,,,,3039,37.11328125,-75.35546875,1,0,0,response3disk,,4,7.2734375,-11.375,1,0,0,rectangle,7.2734375,-11.375,1,0,0,7.2734375,-11.375,1,0,0,0,153,153,55,1,,,,,,,,
,,,,,,,,,,,,,FF,,,,,,,,0.6841,,,,,,,,,,,,,,,,,,,,,,60fcf17f0e7f07f8a04730da,61036ba44c468ff0f756b1ab,2021-07-29_22h02.39.111,Simcolourproject_2stim_asymm_v5,2020.2.10,MacIntel,60,61025ae37ef11b136ea224fe,,,,,,,,,1113,-37.59375,61.50390625,1,0,0,response7disk,,0,-23.12890625,-5.70703125,1,0,0,rectangle,-23.12890625,-5.70703125,1,0,0,-23.12890625,-5.70703125,1,0,0,0,154,154,138,1,,,,,,,,
,,,,,,,,,,,,,FF,,,,,,,,0.7675,,,,,,,,,,,,,,,,,,,,,,60fcf17f0e7f07f8a04730da,61036ba44c468ff0f756b1ab,2021-07-29_22h02.39.111,Simcolourproject_2stim_asymm_v5,2020.2.10,MacIntel,60,61025ae37ef11b136ea224fe,,,,,,,,,2749,-27.171875,76.3359375,1,0,0,response7disk,,0,-13.546875,-10.21875,1,0,0,rectangle,-13.546875,-10.21875,1,0,0,-13.546875,-10.21875,1,0,0,0,155,155,47,1,,,,,,,,
,,,,,,,,,,,,,FF,,,,,,,,0.6333,,,,,,,,,,,,,,,,,,,,,,60fcf17f0e7f07f8a04730da,61036ba44c468ff0f756b1ab,2021-07-29_22h02.39.111,Simcolourproject_2stim_asymm_v5,2020.2.10,MacIntel,60,61025ae37ef11b136ea224fe,,,,,,,,,2493,-27.76953125,98.52734375,1,0,0,response7disk,,0,-15.9375,-8.75390625,1,0,0,rectangle,-15.9375,-8.75390625,1,0,0,-15.9375,-8.75390625,1,0,0,0,156,156,125,1,,,,,,,,
,,,,,,,,,,,,,FF,,,,,,,,0.5165,,,,,,,,,,,,,,,,,,,,,,60fcf17f0e7f07f8a04730da,61036ba44c468ff0f756b1ab,2021-07-29_22h02.39.111,Simcolourproject_2stim_asymm_v5,2020.2.10,MacIntel,60,61025ae37ef11b136ea224fe,,,,,,,,,4303,-57.4609375,100.6210938,1,0,0,response7disk,,0,-9.703125,-3.72265625,1,0,0,rectangle,-9.703125,-3.72265625,1,0,0,-9.703125,-3.72265625,1,0,0,0,157,157,152,1,,,,,,,,
,,,,,,,,,,,,,FF,,,,,,,,0.9338,,,,,,,,,,,,,,,,,,,,,,60fcf17f0e7f07f8a04730da,61036ba44c468ff0f756b1ab,2021-07-29_22h02.39.111,Simcolourproject_2stim_asymm_v5,2020.2.10,MacIntel,60,61025ae37ef11b136ea224fe,,,,,,,,,3313,-23.21484375,119.6835938,1,0,0,response7disk,,0,-3.984375,2.62890625,1,0,0,rectangle,-3.984375,2.62890625,1,0,0,-3.984375,2.62890625,1,0,0,0,158,158,83,1,,,,,,,,
,,,,,,,,,,,,,FF,,,,,,,,0.6175,,,,,,,,,,,,,,,,,,,,,,60fcf17f0e7f07f8a04730da,61036ba44c468ff0f756b1ab,2021-07-29_22h02.39.111,Simcolourproject_2stim_asymm_v5,2020.2.10,MacIntel,60,61025ae37ef11b136ea224fe,,,,,,,,,4072,-45.01171875,84.74609375,1,0,0,response7disk,,0,-20.40234375,2.20703125,1,0,0,rectangle,-20.40234375,2.20703125,1,0,0,-20.40234375,2.20703125,1,0,0,0,159,159,23,1,,,,,,,,
,,,,,,,,,,,,,FF,,,,,,,,0.5658,,,,,,,,,,,,,,,,,,,,,,60fcf17f0e7f07f8a04730da,61036ba44c468ff0f756b1ab,2021-07-29_22h02.39.111,Simcolourproject_2stim_asymm_v5,2020.2.10,MacIntel,60,61025ae37ef11b136ea224fe,,,,,,,,,1430,-35.4453125,86.14453125,1,0,0,response7disk,,0,-20.36328125,-6.890625,1,0,0,rectangle,-20.36328125,-6.890625,1,0,0,-20.36328125,-6.890625,1,0,0,1,0,160,143,1,,,,,,,,
,,,,,,,,,,,,,FF,,,,,,,,1.5337,,,,,,,,,,,,,,,,,,,,,,60fcf17f0e7f07f8a04730da,61036ba44c468ff0f756b1ab,2021-07-29_22h02.39.111,Simcolourproject_2stim_asymm_v5,2020.2.10,MacIntel,60,61025ae37ef11b136ea224fe,,,,,,,,,2104,-83.74609375,-28.59765625,1,0,0,response5disk,,2,-6.61328125,-9.1328125,1,0,0,rectangle,-6.61328125,-9.1328125,1,0,0,-6.61328125,-9.1328125,1,0,0,1,1,161,69,1,,,,,,,,
,,,,,,,,,,,,,FF,,,,,,,,0.4996,,,,,,,,,,,,,,,,,,,,,,60fcf17f0e7f07f8a04730da,61036ba44c468ff0f756b1ab,2021-07-29_22h02.39.111,Simcolourproject_2stim_asymm_v5,2020.2.10,MacIntel,60,61025ae37ef11b136ea224fe,,,,,,,,,792,-32.8046875,69.78125,1,0,0,response7disk,,0,-4.0625,8.703125,1,0,0,rectangle,-4.0625,8.703125,1,0,0,-4.0625,8.703125,1,0,0,1,2,162,116,1,,,,,,,,
,,,,,,,,,,,,,FF,,,,,,,,0.799,,,,,,,,,,,,,,,,,,,,,,60fcf17f0e7f07f8a04730da,61036ba44c468ff0f756b1ab,2021-07-29_22h02.39.111,Simcolourproject_2stim_asymm_v5,2020.2.10,MacIntel,60,61025ae37ef11b136ea224fe,,,,,,,,,750,-32.5,76.6953125,1,0,0,response7disk,,0,-20.11328125,4.7578125,1,0,0,rectangle,-20.11328125,4.7578125,1,0,0,-20.11328125,4.7578125,1,0,0,1,3,163,17,1,,,,,,,,
,,,,,,,,,,,,,FF,,,,,,,,0.7666,,,,,,,,,,,,,,,,,,,,,,60fcf17f0e7f07f8a04730da,61036ba44c468ff0f756b1ab,2021-07-29_22h02.39.111,Simcolourproject_2stim_asymm_v5,2020.2.10,MacIntel,60,61025ae37ef11b136ea224fe,,,,,,,,,2744,-80.68359375,40.1875,1,0,0,response7disk,,1,4.57421875,6.34375,1,0,0,rectangle,4.57421875,6.34375,1,0,0,4.57421875,6.34375,1,0,0,1,4,164,66,1,,,,,,,,
,,,,,,,,,,,,,FF,,,,,,,,0.5333,,,,,,,,,,,,,,,,,,,,,,60fcf17f0e7f07f8a04730da,61036ba44c468ff0f756b1ab,2021-07-29_22h02.39.111,Simcolourproject_2stim_asymm_v5,2020.2.10,MacIntel,60,61025ae37ef11b136ea224fe,,,,,,,,,1014,-39.890625,121.3046875,1,0,0,response7disk,,0,-1.6796875,6.890625,1,0,0,rectangle,-1.6796875,6.890625,1,0,0,-1.6796875,6.890625,1,0,0,1,5,165,79,1,,,,,,,,
,,,,,,,,,,,,,FF,,,,,,,,1.6505,,,,,,,,,,,,,,,,,,,,,,60fcf17f0e7f07f8a04730da,61036ba44c468ff0f756b1ab,2021-07-29_22h02.39.111,Simcolourproject_2stim_asymm_v5,2020.2.10,MacIntel,60,61025ae37ef11b136ea224fe,,,,,,,,,4208,47.37890625,-85.8984375,1,0,0,response3disk,,4,-1.1171875,0.625,1,0,0,rectangle,-1.1171875,0.625,1,0,0,-1.1171875,0.625,1,0,0,1,6,166,121,1,,,,,,,,
,,,,,,,,,,,,,FF,,,,,,,,1.0169,,,,,,,,,,,,,,,,,,,,,,60fcf17f0e7f07f8a04730da,61036ba44c468ff0f756b1ab,2021-07-29_22h02.39.111,Simcolourproject_2stim_asymm_v5,2020.2.10,MacIntel,60,61025ae37ef11b136ea224fe,,,,,,,,,4251,37.64453125,62.3984375,1,0,0,response1disk,,7,8.80078125,12.40234375,1,0,0,rectangle,8.80078125,12.40234375,1,0,0,8.80078125,12.40234375,1,0,0,1,7,167,30,1,,,,,,,,
,,,,,,,,,,,,,FF,,,,,,,,0.5157,,,,,,,,,,,,,,,,,,,,,,60fcf17f0e7f07f8a04730da,61036ba44c468ff0f756b1ab,2021-07-29_22h02.39.111,Simcolourproject_2stim_asymm_v5,2020.2.10,MacIntel,60,61025ae37ef11b136ea224fe,,,,,,,,,2963,-35.27734375,90.140625,1,0,0,response7disk,,0,-9.6328125,-8.38671875,1,0,0,rectangle,-9.6328125,-8.38671875,1,0,0,-9.6328125,-8.38671875,1,0,0,1,8,168,61,1,,,,,,,,
,,,,,,,,,,,,,FF,,,,,,,,0.9337,,,,,,,,,,,,,,,,,,,,,,60fcf17f0e7f07f8a04730da,61036ba44c468ff0f756b1ab,2021-07-29_22h02.39.111,Simcolourproject_2stim_asymm_v5,2020.2.10,MacIntel,60,61025ae37ef11b136ea224fe,,,,,,,,,1640,-45.75390625,68.00390625,1,0,0,response7disk,,0,-14.69921875,10.98828125,1,0,0,rectangle,-14.69921875,10.98828125,1,0,0,-14.69921875,10.98828125,1,0,0,1,9,169,16,1,,,,,,,,
,,,,,,,,,,,,,FF,,,,,,,,1.6346,,,,,,,,,,,,,,,,,,,,,,60fcf17f0e7f07f8a04730da,61036ba44c468ff0f756b1ab,2021-07-29_22h02.39.111,Simcolourproject_2stim_asymm_v5,2020.2.10,MacIntel,60,61025ae37ef11b136ea224fe,,,,,,,,,3079,-30.265625,59.6953125,1,0,0,response7disk,,0,-16.73046875,-12.20703125,1,0,0,rectangle,-16.73046875,-12.20703125,1,0,0,-16.73046875,-12.20703125,1,0,0,1,10,170,127,1,,,,,,,,
,,,,,,,,,,,,,FF,,,,,,,,3.0665,,,,,,,,,,,,,,,,,,,,,,60fcf17f0e7f07f8a04730da,61036ba44c468ff0f756b1ab,2021-07-29_22h02.39.111,Simcolourproject_2stim_asymm_v5,2020.2.10,MacIntel,60,61025ae37ef11b136ea224fe,,,,,,,,,2591,-38.77734375,83.6484375,1,0,0,response7disk,,0,-22.0859375,-4.4296875,1,0,0,rectangle,-22.0859375,-4.4296875,1,0,0,-22.0859375,-4.4296875,1,0,0,1,11,171,103,1,,,,,,,,
,,,,,,,,,,,,,FF,,,,,,,,0.9177,,,,,,,,,,,,,,,,,,,,,,60fcf17f0e7f07f8a04730da,61036ba44c468ff0f756b1ab,2021-07-29_22h02.39.111,Simcolourproject_2stim_asymm_v5,2020.2.10,MacIntel,60,61025ae37ef11b136ea224fe,,,,,,,,,2323,-70.16796875,20.9140625,1,0,0,response7disk,,1,-25.08203125,5.97265625,1,0,0,rectangle,-25.08203125,5.97265625,1,0,0,-25.08203125,5.97265625,1,0,0,1,12,172,58,1,,,,,,,,
,,,,,,,,,,,,,FF,,,,,,,,0.5167,,,,,,,,,,,,,,,,,,,,,,60fcf17f0e7f07f8a04730da,61036ba44c468ff0f756b1ab,2021-07-29_22h02.39.111,Simcolourproject_2stim_asymm_v5,2020.2.10,MacIntel,60,61025ae37ef11b136ea224fe,,,,,,,,,596,-30.19140625,60.33203125,1,0,0,response7disk,,0,0.44140625,5.07421875,1,0,0,rectangle,0.44140625,5.07421875,1,0,0,0.44140625,5.07421875,1,0,0,1,13,173,90,1,,,,,,,,
,,,,,,,,,,,,,FF,,,,,,,,0.5502,,,,,,,,,,,,,,,,,,,,,,60fcf17f0e7f07f8a04730da,61036ba44c468ff0f756b1ab,2021-07-29_22h02.39.111,Simcolourproject_2stim_asymm_v5,2020.2.10,MacIntel,60,61025ae37ef11b136ea224fe,,,,,,,,,1367,-39.76171875,83.0703125,1,0,0,response7disk,,0,-3.80078125,11.1796875,1,0,0,rectangle,-3.80078125,11.1796875,1,0,0,-3.80078125,11.1796875,1,0,0,1,14,174,137,1,,,,,,,,
,,,,,,,,,,,,,FF,,,,,,,,1.5327,,,,,,,,,,,,,,,,,,,,,,60fcf17f0e7f07f8a04730da,61036ba44c468ff0f756b1ab,2021-07-29_22h02.39.111,Simcolourproject_2stim_asymm_v5,2020.2.10,MacIntel,60,61025ae37ef11b136ea224fe,,,,,,,,,3386,-27.64453125,-71.6015625,1,0,0,response5disk,,3,-9.46875,11.0703125,1,0,0,rectangle,-9.46875,11.0703125,1,0,0,-9.46875,11.0703125,1,0,0,1,15,175,150,1,,,,,,,,
,,,,,,,,,,,,,FF,,,,,,,,0.5661,,,,,,,,,,,,,,,,,,,,,,60fcf17f0e7f07f8a04730da,61036ba44c468ff0f756b1ab,2021-07-29_22h02.39.111,Simcolourproject_2stim_asymm_v5,2020.2.10,MacIntel,60,61025ae37ef11b136ea224fe,,,,,,,,,2806,-40.8125,82.8984375,1,0,0,response7disk,,0,-12.12890625,-1.30859375,1,0,0,rectangle,-12.12890625,-1.30859375,1,0,0,-12.12890625,-1.30859375,1,0,0,1,16,176,62,1,,,,,,,,
,,,,,,,,,,,,,FF,,,,,,,,1,,,,,,,,,,,,,,,,,,,,,,60fcf17f0e7f07f8a04730da,61036ba44c468ff0f756b1ab,2021-07-29_22h02.39.111,Simcolourproject_2stim_asymm_v5,2020.2.10,MacIntel,60,61025ae37ef11b136ea224fe,,,,,,,,,790,-18.90234375,62.328125,1,0,0,response7disk,,0,-7.90234375,8.62890625,1,0,0,rectangle,-7.90234375,8.62890625,1,0,0,-7.90234375,8.62890625,1,0,0,1,17,177,33,1,,,,,,,,
,,,,,,,,,,,,,FF,,,,,,,,1.1173,,,,,,,,,,,,,,,,,,,,,,60fcf17f0e7f07f8a04730da,61036ba44c468ff0f756b1ab,2021-07-29_22h02.39.111,Simcolourproject_2stim_asymm_v5,2020.2.10,MacIntel,60,61025ae37ef11b136ea224fe,,,,,,,,,2377,-22.84765625,-57.9453125,1,0,0,response5disk,,3,1.61328125,-9.7734375,1,0,0,rectangle,1.61328125,-9.7734375,1,0,0,1.61328125,-9.7734375,1,0,0,1,18,178,101,1,,,,,,,,
,,,,,,,,,,,,,FF,,,,,,,,0.7674,,,,,,,,,,,,,,,,,,,,,,60fcf17f0e7f07f8a04730da,61036ba44c468ff0f756b1ab,2021-07-29_22h02.39.111,Simcolourproject_2stim_asymm_v5,2020.2.10,MacIntel,60,61025ae37ef11b136ea224fe,,,,,,,,,2849,-49.15234375,24.3515625,1,0,0,response7disk,,1,-10.109375,8.94140625,1,0,0,rectangle,-10.109375,8.94140625,1,0,0,-10.109375,8.94140625,1,0,0,1,19,179,12,1,,,,,,,,
,,,,,,,,,,,,,FF,,,,,,,,0.7497,,,,,,,,,,,,,,,,,,,,,,60fcf17f0e7f07f8a04730da,61036ba44c468ff0f756b1ab,2021-07-29_22h02.39.111,Simcolourproject_2stim_asymm_v5,2020.2.10,MacIntel,60,61025ae37ef11b136ea224fe,,,,,,,,,3148,75.6484375,-38.015625,1,0,0,response3disk,,5,7.0625,-12.55859375,1,0,0,rectangle,7.0625,-12.55859375,1,0,0,7.0625,-12.55859375,1,0,0,1,20,180,124,1,,,,,,,,
,,,,,,,,,,,,,FF,,,,,,,,0.5502,,,,,,,,,,,,,,,,,,,,,,60fcf17f0e7f07f8a04730da,61036ba44c468ff0f756b1ab,2021-07-29_22h02.39.111,Simcolourproject_2stim_asymm_v5,2020.2.10,MacIntel,60,61025ae37ef11b136ea224fe,,,,,,,,,474,-26.125,52.73046875,1,0,0,response7disk,,0,-7.1796875,-15.21484375,1,0,0,rectangle,-7.1796875,-15.21484375,1,0,0,-7.1796875,-15.21484375,1,0,0,1,21,181,25,1,,,,,,,,
,,,,,,,,,,,,,FF,,,,,,,,0.6003,,,,,,,,,,,,,,,,,,,,,,60fcf17f0e7f07f8a04730da,61036ba44c468ff0f756b1ab,2021-07-29_22h02.39.111,Simcolourproject_2stim_asymm_v5,2020.2.10,MacIntel,60,61025ae37ef11b136ea224fe,,,,,,,,,484,-30.26953125,76.3828125,1,0,0,response7disk,,0,-5.85546875,7.9921875,1,0,0,rectangle,-5.85546875,7.9921875,1,0,0,-5.85546875,7.9921875,1,0,0,1,22,182,15,1,,,,,,,,
,,,,,,,,,,,,,FF,,,,,,,,0.5841,,,,,,,,,,,,,,,,,,,,,,60fcf17f0e7f07f8a04730da,61036ba44c468ff0f756b1ab,2021-07-29_22h02.39.111,Simcolourproject_2stim_asymm_v5,2020.2.10,MacIntel,60,61025ae37ef11b136ea224fe,,,,,,,,,1945,-29.39453125,69.29296875,1,0,0,response7disk,,0,1.83984375,6.84765625,1,0,0,rectangle,1.83984375,6.84765625,1,0,0,1.83984375,6.84765625,1,0,0,1,23,183,65,1,,,,,,,,
,,,,,,,,,,,,,FF,,,,,,,,0.5671,,,,,,,,,,,,,,,,,,,,,,60fcf17f0e7f07f8a04730da,61036ba44c468ff0f756b1ab,2021-07-29_22h02.39.111,Simcolourproject_2stim_asymm_v5,2020.2.10,MacIntel,60,61025ae37ef11b136ea224fe,,,,,,,,,4257,-30.54296875,93.58203125,1,0,0,response7disk,,0,-14.640625,-1.73828125,1,0,0,rectangle,-14.640625,-1.73828125,1,0,0,-14.640625,-1.73828125,1,0,0,1,24,184,47,1,,,,,,,,
,,,,,,,,,,,,,FF,,,,,,,,0.6997,,,,,,,,,,,,,,,,,,,,,,60fcf17f0e7f07f8a04730da,61036ba44c468ff0f756b1ab,2021-07-29_22h02.39.111,Simcolourproject_2stim_asymm_v5,2020.2.10,MacIntel,60,61025ae37ef11b136ea224fe,,,,,,,,,1845,-69.40234375,18.76171875,1,0,0,response7disk,,1,-16.59765625,6.51171875,1,0,0,rectangle,-16.59765625,6.51171875,1,0,0,-16.59765625,6.51171875,1,0,0,1,25,185,81,1,,,,,,,,
,,,,,,,,,,,,,FF,,,,,,,,0.5675,,,,,,,,,,,,,,,,,,,,,,60fcf17f0e7f07f8a04730da,61036ba44c468ff0f756b1ab,2021-07-29_22h02.39.111,Simcolourproject_2stim_asymm_v5,2020.2.10,MacIntel,60,61025ae37ef11b136ea224fe,,,,,,,,,501,-35.51171875,81.75,1,0,0,response7disk,,0,-4.44921875,8.33203125,1,0,0,rectangle,-4.44921875,8.33203125,1,0,0,-4.44921875,8.33203125,1,0,0,1,26,186,125,1,,,,,,,,
,,,,,,,,,,,,,FF,,,,,,,,0.5488,,,,,,,,,,,,,,,,,,,,,,60fcf17f0e7f07f8a04730da,61036ba44c468ff0f756b1ab,2021-07-29_22h02.39.111,Simcolourproject_2stim_asymm_v5,2020.2.10,MacIntel,60,61025ae37ef11b136ea224fe,,,,,,,,,3820,-30.37109375,87.44140625,1,0,0,response7disk,,0,-15.7578125,6.8203125,1,0,0,rectangle,-15.7578125,6.8203125,1,0,0,-15.7578125,6.8203125,1,0,0,1,27,187,31,1,,,,,,,,
,,,,,,,,,,,,,FF,,,,,,,,1.2501,,,,,,,,,,,,,,,,,,,,,,60fcf17f0e7f07f8a04730da,61036ba44c468ff0f756b1ab,2021-07-29_22h02.39.111,Simcolourproject_2stim_asymm_v5,2020.2.10,MacIntel,60,61025ae37ef11b136ea224fe,,,,,,,,,2620,-80.95703125,-56.4140625,1,0,0,response5disk,,2,-16.16796875,-11.94921875,1,0,0,rectangle,-16.16796875,-11.94921875,1,0,0,-16.16796875,-11.94921875,1,0,0,1,28,188,95,1,,,,,,,,
,,,,,,,,,,,,,FF,,,,,,,,0.9503,,,,,,,,,,,,,,,,,,,,,,60fcf17f0e7f07f8a04730da,61036ba44c468ff0f756b1ab,2021-07-29_22h02.39.111,Simcolourproject_2stim_asymm_v5,2020.2.10,MacIntel,60,61025ae37ef11b136ea224fe,,,,,,,,,1237,-24.87109375,49.0390625,1,0,0,response7disk,,0,0.90625,-2.7109375,1,0,0,rectangle,0.90625,-2.7109375,1,0,0,0.90625,-2.7109375,1,0,0,1,29,189,157,1,,,,,,,,
,,,,,,,,,,,,,FF,,,,,,,,0.4494,,,,,,,,,,,,,,,,,,,,,,60fcf17f0e7f07f8a04730da,61036ba44c468ff0f756b1ab,2021-07-29_22h02.39.111,Simcolourproject_2stim_asymm_v5,2020.2.10,MacIntel,60,61025ae37ef11b136ea224fe,,,,,,,,,859,-37.32421875,67.72265625,1,0,0,response7disk,,0,-15.98828125,10.8984375,1,0,0,rectangle,-15.98828125,10.8984375,1,0,0,-15.98828125,10.8984375,1,0,0,1,30,190,8,1,,,,,,,,
,,,,,,,,,,,,,FF,,,,,,,,0.6666,,,,,,,,,,,,,,,,,,,,,,60fcf17f0e7f07f8a04730da,61036ba44c468ff0f756b1ab,2021-07-29_22h02.39.111,Simcolourproject_2stim_asymm_v5,2020.2.10,MacIntel,60,61025ae37ef11b136ea224fe,,,,,,,,,3184,-62.13671875,96.3125,1,0,0,response7disk,,0,1.49609375,8.7109375,1,0,0,rectangle,1.49609375,8.7109375,1,0,0,1.49609375,8.7109375,1,0,0,1,31,191,114,1,,,,,,,,
,,,,,,,,,,,,,FF,,,,,,,,0.8169,,,,,,,,,,,,,,,,,,,,,,60fcf17f0e7f07f8a04730da,61036ba44c468ff0f756b1ab,2021-07-29_22h02.39.111,Simcolourproject_2stim_asymm_v5,2020.2.10,MacIntel,60,61025ae37ef11b136ea224fe,,,,,,,,,2298,100.4960938,-41.67578125,1,0,0,response3disk,,5,2.03515625,-9.5703125,1,0,0,rectangle,2.03515625,-9.5703125,1,0,0,2.03515625,-9.5703125,1,0,0,1,32,192,6,1,,,,,,,,
,,,,,,,,,,,,,FF,,,,,,,,0.5834,,,,,,,,,,,,,,,,,,,,,,60fcf17f0e7f07f8a04730da,61036ba44c468ff0f756b1ab,2021-07-29_22h02.39.111,Simcolourproject_2stim_asymm_v5,2020.2.10,MacIntel,60,61025ae37ef11b136ea224fe,,,,,,,,,208,-28.29296875,43.57421875,1,0,0,response7disk,,0,3.9609375,-5.3203125,1,0,0,rectangle,3.9609375,-5.3203125,1,0,0,3.9609375,-5.3203125,1,0,0,1,33,193,9,1,,,,,,,,
,,,,,,,,,,,,,FF,,,,,,,,0.5335,,,,,,,,,,,,,,,,,,,,,,60fcf17f0e7f07f8a04730da,61036ba44c468ff0f756b1ab,2021-07-29_22h02.39.111,Simcolourproject_2stim_asymm_v5,2020.2.10,MacIntel,60,61025ae37ef11b136ea224fe,,,,,,,,,2912,-43.2421875,103.03125,1,0,0,response7disk,,0,-3.26953125,4.41015625,1,0,0,rectangle,-3.26953125,4.41015625,1,0,0,-3.26953125,4.41015625,1,0,0,1,34,194,139,1,,,,,,,,
,,,,,,,,,,,,,FF,,,,,,,,0.4506,,,,,,,,,,,,,,,,,,,,,,60fcf17f0e7f07f8a04730da,61036ba44c468ff0f756b1ab,2021-07-29_22h02.39.111,Simcolourproject_2stim_asymm_v5,2020.2.10,MacIntel,60,61025ae37ef11b136ea224fe,,,,,,,,,1353,-41.68359375,74.796875,1,0,0,response7disk,,0,-18.60546875,-5.40234375,1,0,0,rectangle,-18.60546875,-5.40234375,1,0,0,-18.60546875,-5.40234375,1,0,0,1,35,195,1,1,,,,,,,,
,,,,,,,,,,,,,FF,,,,,,,,0.4499,,,,,,,,,,,,,,,,,,,,,,60fcf17f0e7f07f8a04730da,61036ba44c468ff0f756b1ab,2021-07-29_22h02.39.111,Simcolourproject_2stim_asymm_v5,2020.2.10,MacIntel,60,61025ae37ef11b136ea224fe,,,,,,,,,1649,-41.359375,94.203125,1,0,0,response7disk,,0,-7.8828125,-7.73828125,1,0,0,rectangle,-7.8828125,-7.73828125,1,0,0,-7.8828125,-7.73828125,1,0,0,1,36,196,38,1,,,,,,,,
,,,,,,,,,,,,,FF,,,,,,,,0.7505,,,,,,,,,,,,,,,,,,,,,,60fcf17f0e7f07f8a04730da,61036ba44c468ff0f756b1ab,2021-07-29_22h02.39.111,Simcolourproject_2stim_asymm_v5,2020.2.10,MacIntel,60,61025ae37ef11b136ea224fe,,,,,,,,,1597,65.51171875,35.859375,1,0,0,response1disk,,6,5.15234375,-0.8046875,1,0,0,rectangle,5.15234375,-0.8046875,1,0,0,5.15234375,-0.8046875,1,0,0,1,37,197,39,1,,,,,,,,
,,,,,,,,,,,,,FF,,,,,,,,0.4851,,,,,,,,,,,,,,,,,,,,,,60fcf17f0e7f07f8a04730da,61036ba44c468ff0f756b1ab,2021-07-29_22h02.39.111,Simcolourproject_2stim_asymm_v5,2020.2.10,MacIntel,60,61025ae37ef11b136ea224fe,,,,,,,,,3947,-41.93359375,93.15625,1,0,0,response7disk,,0,6.39453125,-7.046875,1,0,0,rectangle,6.39453125,-7.046875,1,0,0,6.39453125,-7.046875,1,0,0,1,38,198,55,1,,,,,,,,
,,,,,,,,,,,,,FF,,,,,,,,1.1,,,,,,,,,,,,,,,,,,,,,,60fcf17f0e7f07f8a04730da,61036ba44c468ff0f756b1ab,2021-07-29_22h02.39.111,Simcolourproject_2stim_asymm_v5,2020.2.10,MacIntel,60,61025ae37ef11b136ea224fe,,,,,,,,,905,-71.796875,-35.6328125,1,0,0,response5disk,,2,-9.98046875,-4.10546875,1,0,0,rectangle,19.87109375,-79.07421875,1,0,0,8.1328125,0.16015625,1,0,0,1,39,199,54,1,,response3disk_3,TRUE,4,4,"[90,70,111,68,227,7,145,266,43,128,148,213,272,200,226,31,239,65,258,4]",1.7998,rectangle
,,,,,,,,,,,,,FF,,,,,,,,1.3837,,,,,,,,,,,,,,,,,,,,,,60fcf17f0e7f07f8a04730da,61036ba44c468ff0f756b1ab,2021-07-29_22h02.39.111,Simcolourproject_2stim_asymm_v5,2020.2.10,MacIntel,60,61025ae37ef11b136ea224fe,,,,,,,,,1318,-68.8984375,-34.984375,1,0,0,response5disk,,2,-11.4375,6.7421875,1,0,0,rectangle,-11.4375,6.7421875,1,0,0,-11.4375,6.7421875,1,0,0,1,40,200,146,1,,,,,,,,
,,,,,,,,,,,,,FF,,,,,,,,1.0323,,,,,,,,,,,,,,,,,,,,,,60fcf17f0e7f07f8a04730da,61036ba44c468ff0f756b1ab,2021-07-29_22h02.39.111,Simcolourproject_2stim_asymm_v5,2020.2.10,MacIntel,60,61025ae37ef11b136ea224fe,,,,,,,,,2896,67.16015625,-37.8359375,1,0,0,response3disk,,5,29.86328125,-10.8515625,1,0,0,rectangle,29.86328125,-10.8515625,1,0,0,29.86328125,-10.8515625,1,0,0,1,41,201,0,1,,,,,,,,
,,,,,,,,,,,,,FF,,,,,,,,0.8018,,,,,,,,,,,,,,,,,,,,,,60fcf17f0e7f07f8a04730da,61036ba44c468ff0f756b1ab,2021-07-29_22h02.39.111,Simcolourproject_2stim_asymm_v5,2020.2.10,MacIntel,60,61025ae37ef11b136ea224fe,,,,,,,,,1146,-66.90234375,29.078125,1,0,0,response7disk,,1,-12.53515625,-3.01953125,1,0,0,rectangle,-12.53515625,-3.01953125,1,0,0,-12.53515625,-3.01953125,1,0,0,1,42,202,132,1,,,,,,,,
,,,,,,,,,,,,,FF,,,,,,,,0.984,,,,,,,,,,,,,,,,,,,,,,60fcf17f0e7f07f8a04730da,61036ba44c468ff0f756b1ab,2021-07-29_22h02.39.111,Simcolourproject_2stim_asymm_v5,2020.2.10,MacIntel,60,61025ae37ef11b136ea224fe,,,,,,,,,2674,-60.3359375,-30.03515625,1,0,0,response5disk,,2,0.5703125,6.3203125,1,0,0,rectangle,0.5703125,6.3203125,1,0,0,0.5703125,6.3203125,1,0,0,1,43,203,24,1,,,,,,,,
,,,,,,,,,,,,,FF,,,,,,,,0.5333,,,,,,,,,,,,,,,,,,,,,,60fcf17f0e7f07f8a04730da,61036ba44c468ff0f756b1ab,2021-07-29_22h02.39.111,Simcolourproject_2stim_asymm_v5,2020.2.10,MacIntel,60,61025ae37ef11b136ea224fe,,,,,,,,,1719,-39.52734375,75.3125,1,0,0,response7disk,,0,-3.8828125,-8.921875,1,0,0,rectangle,-3.8828125,-8.921875,1,0,0,-3.8828125,-8.921875,1,0,0,1,44,204,142,1,,,,,,,,
,,,,,,,,,,,,,FF,,,,,,,,1.0004,,,,,,,,,,,,,,,,,,,,,,60fcf17f0e7f07f8a04730da,61036ba44c468ff0f756b1ab,2021-07-29_22h02.39.111,Simcolourproject_2stim_asymm_v5,2020.2.10,MacIntel,60,61025ae37ef11b136ea224fe,,,,,,,,,1225,-81.08203125,-29.15234375,1,0,0,response5disk,,2,-19.78125,-0.58203125,1,0,0,rectangle,-19.78125,-0.58203125,1,0,0,-19.78125,-0.58203125,1,0,0,1,45,205,97,1,,,,,,,,
,,,,,,,,,,,,,FF,,,,,,,,0.5172,,,,,,,,,,,,,,,,,,,,,,60fcf17f0e7f07f8a04730da,61036ba44c468ff0f756b1ab,2021-07-29_22h02.39.111,Simcolourproject_2stim_asymm_v5,2020.2.10,MacIntel,60,61025ae37ef11b136ea224fe,,,,,,,,,967,-41.44140625,64.4296875,1,0,0,response7disk,,0,-15.77734375,-4.08984375,1,0,0,rectangle,-15.77734375,-4.08984375,1,0,0,-15.77734375,-4.08984375,1,0,0,1,46,206,60,1,,,,,,,,
,,,,,,,,,,,,,FF,,,,,,,,0.9015,,,,,,,,,,,,,,,,,,,,,,60fcf17f0e7f07f8a04730da,61036ba44c468ff0f756b1ab,2021-07-29_22h02.39.111,Simcolourproject_2stim_asymm_v5,2020.2.10,MacIntel,60,61025ae37ef11b136ea224fe,,,,,,,,,1528,46.69921875,-52.22265625,1,0,0,response3disk,,4,11.3046875,10.8984375,1,0,0,rectangle,11.3046875,10.8984375,1,0,0,11.3046875,10.8984375,1,0,0,1,47,207,104,1,,,,,,,,
,,,,,,,,,,,,,FF,,,,,,,,0.7156,,,,,,,,,,,,,,,,,,,,,,60fcf17f0e7f07f8a04730da,61036ba44c468ff0f756b1ab,2021-07-29_22h02.39.111,Simcolourproject_2stim_asymm_v5,2020.2.10,MacIntel,60,61025ae37ef11b136ea224fe,,,,,,,,,3971,59.08203125,29.2109375,1,0,0,response1disk,,6,6.859375,1.19140625,1,0,0,rectangle,6.859375,1.19140625,1,0,0,6.859375,1.19140625,1,0,0,1,48,208,128,1,,,,,,,,
,,,,,,,,,,,,,FF,,,,,,,,0.4997,,,,,,,,,,,,,,,,,,,,,,60fcf17f0e7f07f8a04730da,61036ba44c468ff0f756b1ab,2021-07-29_22h02.39.111,Simcolourproject_2stim_asymm_v5,2020.2.10,MacIntel,60,61025ae37ef11b136ea224fe,,,,,,,,,3886,-29.88671875,70.89453125,1,0,0,response7disk,,0,-8.73046875,9.703125,1,0,0,rectangle,-8.73046875,9.703125,1,0,0,-8.73046875,9.703125,1,0,0,1,49,209,156,1,,,,,,,,
,,,,,,,,,,,,,FF,,,,,,,,0.6003,,,,,,,,,,,,,,,,,,,,,,60fcf17f0e7f07f8a04730da,61036ba44c468ff0f756b1ab,2021-07-29_22h02.39.111,Simcolourproject_2stim_asymm_v5,2020.2.10,MacIntel,60,61025ae37ef11b136ea224fe,,,,,,,,,964,-31.484375,68.7578125,1,0,0,response7disk,,0,-15.94921875,9.21484375,1,0,0,rectangle,-15.94921875,9.21484375,1,0,0,-15.94921875,9.21484375,1,0,0,1,50,210,63,1,,,,,,,,
,,,,,,,,,,,,,FF,,,,,,,,0.5336,,,,,,,,,,,,,,,,,,,,,,60fcf17f0e7f07f8a04730da,61036ba44c468ff0f756b1ab,2021-07-29_22h02.39.111,Simcolourproject_2stim_asymm_v5,2020.2.10,MacIntel,60,61025ae37ef11b136ea224fe,,,,,,,,,54,-33.7890625,94.63671875,1,0,0,response7disk,,0,2.2890625,-1.69921875,1,0,0,rectangle,2.2890625,-1.69921875,1,0,0,2.2890625,-1.69921875,1,0,0,1,51,211,82,1,,,,,,,,
,,,,,,,,,,,,,FF,,,,,,,,0.4675,,,,,,,,,,,,,,,,,,,,,,60fcf17f0e7f07f8a04730da,61036ba44c468ff0f756b1ab,2021-07-29_22h02.39.111,Simcolourproject_2stim_asymm_v5,2020.2.10,MacIntel,60,61025ae37ef11b136ea224fe,,,,,,,,,357,-51.23828125,105.4140625,1,0,0,response7disk,,0,5.5625,-6.23046875,1,0,0,rectangle,40.25390625,119.6210938,1,0,0,-8.09765625,4.484375,1,0,0,1,52,212,85,1,,response1disk_3,TRUE,7,7,"[90,70,111,68,227,7,145,266,43,128,148,213,272,200,226,31,239,65,258,4]",1.2665,rectangle
,,,,,,,,,,,,,FF,,,,,,,,0.8166,,,,,,,,,,,,,,,,,,,,,,60fcf17f0e7f07f8a04730da,61036ba44c468ff0f756b1ab,2021-07-29_22h02.39.111,Simcolourproject_2stim_asymm_v5,2020.2.10,MacIntel,60,61025ae37ef11b136ea224fe,,,,,,,,,1051,68.41796875,15.33984375,1,0,0,response1disk,,6,5.4140625,-12.0546875,1,0,0,rectangle,5.4140625,-12.0546875,1,0,0,5.4140625,-12.0546875,1,0,0,1,53,213,144,1,,,,,,,,
,,,,,,,,,,,,,FF,,,,,,,,0.7332,,,,,,,,,,,,,,,,,,,,,,60fcf17f0e7f07f8a04730da,61036ba44c468ff0f756b1ab,2021-07-29_22h02.39.111,Simcolourproject_2stim_asymm_v5,2020.2.10,MacIntel,60,61025ae37ef11b136ea224fe,,,,,,,,,2810,-41.7890625,89.55859375,1,0,0,response7disk,,0,-9.30078125,-10.328125,1,0,0,rectangle,-9.30078125,-10.328125,1,0,0,-9.30078125,-10.328125,1,0,0,1,54,214,92,1,,,,,,,,
,,,,,,,,,,,,,FF,,,,,,,,1.2002,,,,,,,,,,,,,,,,,,,,,,60fcf17f0e7f07f8a04730da,61036ba44c468ff0f756b1ab,2021-07-29_22h02.39.111,Simcolourproject_2stim_asymm_v5,2020.2.10,MacIntel,60,61025ae37ef11b136ea224fe,,,,,,,,,1901,95.09375,-54.7890625,1,0,0,response3disk,,5,10.890625,0.63671875,1,0,0,rectangle,10.890625,0.63671875,1,0,0,10.890625,0.63671875,1,0,0,1,55,215,106,1,,,,,,,,
,,,,,,,,,,,,,FF,,,,,,,,0.9654,,,,,,,,,,,,,,,,,,,,,,60fcf17f0e7f07f8a04730da,61036ba44c468ff0f756b1ab,2021-07-29_22h02.39.111,Simcolourproject_2stim_asymm_v5,2020.2.10,MacIntel,60,61025ae37ef11b136ea224fe,,,,,,,,,4108,27.421875,-60.44140625,1,0,0,response3disk,,4,-1.66796875,-14.33203125,1,0,0,rectangle,-1.66796875,-14.33203125,1,0,0,-1.66796875,-14.33203125,1,0,0,1,56,216,78,1,,,,,,,,
,,,,,,,,,,,,,FF,,,,,,,,0.6346,,,,,,,,,,,,,,,,,,,,,,60fcf17f0e7f07f8a04730da,61036ba44c468ff0f756b1ab,2021-07-29_22h02.39.111,Simcolourproject_2stim_asymm_v5,2020.2.10,MacIntel,60,61025ae37ef11b136ea224fe,,,,,,,,,426,-30.171875,63.1953125,1,0,0,response7disk,,0,-7.33984375,2.5546875,1,0,0,rectangle,-7.33984375,2.5546875,1,0,0,-7.33984375,2.5546875,1,0,0,1,57,217,52,1,,,,,,,,
,,,,,,,,,,,,,FF,,,,,,,,0.4819,,,,,,,,,,,,,,,,,,,,,,60fcf17f0e7f07f8a04730da,61036ba44c468ff0f756b1ab,2021-07-29_22h02.39.111,Simcolourproject_2stim_asymm_v5,2020.2.10,MacIntel,60,61025ae37ef11b136ea224fe,,,,,,,,,2270,-46.703125,84.265625,1,0,0,response7disk,,0,-6.2421875,-4.5390625,1,0,0,rectangle,-6.2421875,-4.5390625,1,0,0,-6.2421875,-4.5390625,1,0,0,1,58,218,109,1,,,,,,,,
,,,,,,,,,,,,,FF,,,,,,,,1.8341,,,,,,,,,,,,,,,,,,,,,,60fcf17f0e7f07f8a04730da,61036ba44c468ff0f756b1ab,2021-07-29_22h02.39.111,Simcolourproject_2stim_asymm_v5,2020.2.10,MacIntel,60,61025ae37ef11b136ea224fe,,,,,,,,,2604,45.078125,-60.96875,1,0,0,response3disk,,4,22.23828125,3.39453125,1,0,0,rectangle,22.23828125,3.39453125,1,0,0,22.23828125,3.39453125,1,0,0,1,59,219,148,1,,,,,,,,
,,,,,,,,,,,,,FF,,,,,,,,0.7507,,,,,,,,,,,,,,,,,,,,,,60fcf17f0e7f07f8a04730da,61036ba44c468ff0f756b1ab,2021-07-29_22h02.39.111,Simcolourproject_2stim_asymm_v5,2020.2.10,MacIntel,60,61025ae37ef11b136ea224fe,,,,,,,,,3938,75.0546875,18.7265625,1,0,0,response1disk,,6,-16.203125,2.8125,1,0,0,rectangle,-16.203125,2.8125,1,0,0,-16.203125,2.8125,1,0,0,1,60,220,75,1,,,,,,,,
,,,,,,,,,,,,,FF,,,,,,,,1.116,,,,,,,,,,,,,,,,,,,,,,60fcf17f0e7f07f8a04730da,61036ba44c468ff0f756b1ab,2021-07-29_22h02.39.111,Simcolourproject_2stim_asymm_v5,2020.2.10,MacIntel,60,61025ae37ef11b136ea224fe,,,,,,,,,2425,89.15625,-35.421875,1,0,0,response3disk,,5,3.69921875,-0.34765625,1,0,0,rectangle,3.69921875,-0.34765625,1,0,0,3.69921875,-0.34765625,1,0,0,1,61,221,45,1,,,,,,,,
,,,,,,,,,,,,,FF,,,,,,,,1.5002,,,,,,,,,,,,,,,,,,,,,,60fcf17f0e7f07f8a04730da,61036ba44c468ff0f756b1ab,2021-07-29_22h02.39.111,Simcolourproject_2stim_asymm_v5,2020.2.10,MacIntel,60,61025ae37ef11b136ea224fe,,,,,,,,,3247,92.9140625,-65.33203125,1,0,0,response3disk,,5,1.109375,-4.94140625,1,0,0,rectangle,1.109375,-4.94140625,1,0,0,1.109375,-4.94140625,1,0,0,1,62,222,98,1,,,,,,,,
,,,,,,,,,,,,,FF,,,,,,,,0.9343,,,,,,,,,,,,,,,,,,,,,,60fcf17f0e7f07f8a04730da,61036ba44c468ff0f756b1ab,2021-07-29_22h02.39.111,Simcolourproject_2stim_asymm_v5,2020.2.10,MacIntel,60,61025ae37ef11b136ea224fe,,,,,,,,,3899,46.19921875,-73.35546875,1,0,0,response3disk,,4,1.0625,9.73828125,1,0,0,rectangle,1.0625,9.73828125,1,0,0,1.0625,9.73828125,1,0,0,1,63,223,110,1,,,,,,,,
,,,,,,,,,,,,,FF,,,,,,,,0.6656,,,,,,,,,,,,,,,,,,,,,,60fcf17f0e7f07f8a04730da,61036ba44c468ff0f756b1ab,2021-07-29_22h02.39.111,Simcolourproject_2stim_asymm_v5,2020.2.10,MacIntel,60,61025ae37ef11b136ea224fe,,,,,,,,,2321,-38.953125,68.91796875,1,0,0,response7disk,,0,-6.18359375,-2.12109375,1,0,0,rectangle,-6.18359375,-2.12109375,1,0,0,-6.18359375,-2.12109375,1,0,0,1,64,224,4,1,,,,,,,,
,,,,,,,,,,,,,FF,,,,,,,,0.4684,,,,,,,,,,,,,,,,,,,,,,60fcf17f0e7f07f8a04730da,61036ba44c468ff0f756b1ab,2021-07-29_22h02.39.111,Simcolourproject_2stim_asymm_v5,2020.2.10,MacIntel,60,61025ae37ef11b136ea224fe,,,,,,,,,1647,-41.0078125,92.08203125,1,0,0,response7disk,,0,-3.62109375,5.8046875,1,0,0,rectangle,88.25,-38.16796875,1,0,0,-11.515625,-1.171875,1,0,0,1,65,225,71,1,,response3disk_3,TRUE,5,5,"[90,70,111,68,227,7,145,266,43,128,148,213,272,200,226,31,239,65,258,4]",1.3332,rectangle
,,,,,,,,,,,,,FF,,,,,,,,0.6839,,,,,,,,,,,,,,,,,,,,,,60fcf17f0e7f07f8a04730da,61036ba44c468ff0f756b1ab,2021-07-29_22h02.39.111,Simcolourproject_2stim_asymm_v5,2020.2.10,MacIntel,60,61025ae37ef11b136ea224fe,,,,,,,,,3928,-23.48046875,86.15234375,1,0,0,response7disk,,0,2.97265625,3.41796875,1,0,0,rectangle,-41.640625,-78.72265625,1,0,0,-16.94140625,-9.65625,1,0,0,1,66,226,50,1,,response5disk_3,TRUE,3,3,"[90,70,111,68,227,7,145,266,43,128,148,213,272,200,226,31,239,65,258,4]",1.1851,rectangle
,,,,,,,,,,,,,FF,,,,,,,,0.6334,,,,,,,,,,,,,,,,,,,,,,60fcf17f0e7f07f8a04730da,61036ba44c468ff0f756b1ab,2021-07-29_22h02.39.111,Simcolourproject_2stim_asymm_v5,2020.2.10,MacIntel,60,61025ae37ef11b136ea224fe,,,,,,,,,3132,-30.1875,72.62109375,1,0,0,response7disk,,0,-12.171875,4.94921875,1,0,0,rectangle,-12.171875,4.94921875,1,0,0,-12.171875,4.94921875,1,0,0,1,67,227,149,1,,,,,,,,
,,,,,,,,,,,,,FF,,,,,,,,1.649,,,,,,,,,,,,,,,,,,,,,,60fcf17f0e7f07f8a04730da,61036ba44c468ff0f756b1ab,2021-07-29_22h02.39.111,Simcolourproject_2stim_asymm_v5,2020.2.10,MacIntel,60,61025ae37ef11b136ea224fe,,,,,,,,,1685,-41.640625,-94.03125,1,0,0,response5disk,,3,-18.1796875,0.671875,1,0,0,rectangle,-18.1796875,0.671875,1,0,0,-18.1796875,0.671875,1,0,0,1,68,228,83,1,,,,,,,,
,,,,,,,,,,,,,FF,,,,,,,,0.5498,,,,,,,,,,,,,,,,,,,,,,60fcf17f0e7f07f8a04730da,61036ba44c468ff0f756b1ab,2021-07-29_22h02.39.111,Simcolourproject_2stim_asymm_v5,2020.2.10,MacIntel,60,61025ae37ef11b136ea224fe,,,,,,,,,3926,-32.4921875,53.47265625,1,0,0,response7disk,,0,-15.03125,-2.98046875,1,0,0,rectangle,-15.03125,-2.98046875,1,0,0,-15.03125,-2.98046875,1,0,0,1,69,229,151,1,,,,,,,,
,,,,,,,,,,,,,FF,,,,,,,,0.6508,,,,,,,,,,,,,,,,,,,,,,60fcf17f0e7f07f8a04730da,61036ba44c468ff0f756b1ab,2021-07-29_22h02.39.111,Simcolourproject_2stim_asymm_v5,2020.2.10,MacIntel,60,61025ae37ef11b136ea224fe,,,,,,,,,2485,-19.15234375,-46.15625,1,0,0,response5disk,,3,2.6484375,8.80859375,1,0,0,rectangle,2.6484375,8.80859375,1,0,0,2.6484375,8.80859375,1,0,0,1,70,230,35,1,,,,,,,,
,,,,,,,,,,,,,FF,,,,,,,,1.1835,,,,,,,,,,,,,,,,,,,,,,60fcf17f0e7f07f8a04730da,61036ba44c468ff0f756b1ab,2021-07-29_22h02.39.111,Simcolourproject_2stim_asymm_v5,2020.2.10,MacIntel,60,61025ae37ef11b136ea224fe,,,,,,,,,3439,-47.4140625,58.4765625,1,0,0,response7disk,,0,-11.79296875,3.1796875,1,0,0,rectangle,-11.79296875,3.1796875,1,0,0,-11.79296875,3.1796875,1,0,0,1,71,231,115,1,,,,,,,,
,,,,,,,,,,,,,FF,,,,,,,,0.6003,,,,,,,,,,,,,,,,,,,,,,60fcf17f0e7f07f8a04730da,61036ba44c468ff0f756b1ab,2021-07-29_22h02.39.111,Simcolourproject_2stim_asymm_v5,2020.2.10,MacIntel,60,61025ae37ef11b136ea224fe,,,,,,,,,429,-36.96875,93.0859375,1,0,0,response7disk,,0,-20.44921875,13.80859375,1,0,0,rectangle,-20.44921875,13.80859375,1,0,0,-20.44921875,13.80859375,1,0,0,1,72,232,51,1,,,,,,,,
,,,,,,,,,,,,,FF,,,,,,,,0.9837,,,,,,,,,,,,,,,,,,,,,,60fcf17f0e7f07f8a04730da,61036ba44c468ff0f756b1ab,2021-07-29_22h02.39.111,Simcolourproject_2stim_asymm_v5,2020.2.10,MacIntel,60,61025ae37ef11b136ea224fe,,,,,,,,,3485,-27.80859375,73.9375,1,0,0,response7disk,,0,-5.421875,5.78515625,1,0,0,rectangle,-5.421875,5.78515625,1,0,0,-5.421875,5.78515625,1,0,0,1,73,233,34,1,,,,,,,,
,,,,,,,,,,,,,FF,,,,,,,,0.7845,,,,,,,,,,,,,,,,,,,,,,60fcf17f0e7f07f8a04730da,61036ba44c468ff0f756b1ab,2021-07-29_22h02.39.111,Simcolourproject_2stim_asymm_v5,2020.2.10,MacIntel,60,61025ae37ef11b136ea224fe,,,,,,,,,2746,-30.28125,49.9375,1,0,0,response7disk,,0,-16.58203125,13.21484375,1,0,0,rectangle,-16.58203125,13.21484375,1,0,0,-16.58203125,13.21484375,1,0,0,1,74,234,14,1,,,,,,,,
,,,,,,,,,,,,,FF,,,,,,,,1.1006,,,,,,,,,,,,,,,,,,,,,,60fcf17f0e7f07f8a04730da,61036ba44c468ff0f756b1ab,2021-07-29_22h02.39.111,Simcolourproject_2stim_asymm_v5,2020.2.10,MacIntel,60,61025ae37ef11b136ea224fe,,,,,,,,,887,78.42578125,28.51171875,1,0,0,response1disk,,6,5.1484375,12.18359375,1,0,0,rectangle,5.1484375,12.18359375,1,0,0,5.1484375,12.18359375,1,0,0,1,75,235,40,1,,,,,,,,
,,,,,,,,,,,,,FF,,,,,,,,0.473,,,,,,,,,,,,,,,,,,,,,,60fcf17f0e7f07f8a04730da,61036ba44c468ff0f756b1ab,2021-07-29_22h02.39.111,Simcolourproject_2stim_asymm_v5,2020.2.10,MacIntel,60,61025ae37ef11b136ea224fe,,,,,,,,,3378,-45.84765625,102.8359375,1,0,0,response7disk,,0,-12.953125,8.421875,1,0,0,rectangle,-12.953125,8.421875,1,0,0,-12.953125,8.421875,1,0,0,1,76,236,19,1,,,,,,,,
,,,,,,,,,,,,,FF,,,,,,,,0.5176,,,,,,,,,,,,,,,,,,,,,,60fcf17f0e7f07f8a04730da,61036ba44c468ff0f756b1ab,2021-07-29_22h02.39.111,Simcolourproject_2stim_asymm_v5,2020.2.10,MacIntel,60,61025ae37ef11b136ea224fe,,,,,,,,,491,-33.25,73.62890625,1,0,0,response7disk,,0,-12.89453125,16.796875,1,0,0,rectangle,-12.89453125,16.796875,1,0,0,-12.89453125,16.796875,1,0,0,1,77,237,2,1,,,,,,,,
,,,,,,,,,,,,,FF,,,,,,,,0.8998,,,,,,,,,,,,,,,,,,,,,,60fcf17f0e7f07f8a04730da,61036ba44c468ff0f756b1ab,2021-07-29_22h02.39.111,Simcolourproject_2stim_asymm_v5,2020.2.10,MacIntel,60,61025ae37ef11b136ea224fe,,,,,,,,,1385,76.015625,30.078125,1,0,0,response1disk,,6,15.421875,3.2265625,1,0,0,rectangle,-36.359375,-108.34375,1,0,0,-8.27734375,7.81640625,1,0,0,1,78,238,99,1,,response5disk_3,TRUE,3,3,"[90,70,111,68,227,7,145,266,43,128,148,213,272,200,226,31,239,65,258,4]",184.9479,rectangle
,,,,,,,,,,,,,FF,,,,,,,,1.3166,,,,,,,,,,,,,,,,,,,,,,60fcf17f0e7f07f8a04730da,61036ba44c468ff0f756b1ab,2021-07-29_22h02.39.111,Simcolourproject_2stim_asymm_v5,2020.2.10,MacIntel,60,61025ae37ef11b136ea224fe,,,,,,,,,2084,-57.8984375,25.22265625,1,0,0,response7disk,,1,-7.7109375,-5.125,1,0,0,rectangle,-7.7109375,-5.125,1,0,0,-7.7109375,-5.125,1,0,0,1,79,239,59,1,,,,,,,,
,,,,,,,,,,,,,FF,,,,,,,,126.6329,,,,,,,,,,,,,,,,,,,,,,60fcf17f0e7f07f8a04730da,61036ba44c468ff0f756b1ab,2021-07-29_22h02.39.111,Simcolourproject_2stim_asymm_v5,2020.2.10,MacIntel,60,61025ae37ef11b136ea224fe,,,,,,,,,1614,-24.78125,88.37109375,1,0,0,response7disk,,0,0.59375,7.35546875,1,0,0,rectangle,0.59375,7.35546875,1,0,0,0.59375,7.35546875,1,0,0,1,80,240,118,1,,,,,,,,
,,,,,,,,,,,,,FF,,,,,,,,1.0843,,,,,,,,,,,,,,,,,,,,,,60fcf17f0e7f07f8a04730da,61036ba44c468ff0f756b1ab,2021-07-29_22h02.39.111,Simcolourproject_2stim_asymm_v5,2020.2.10,MacIntel,60,61025ae37ef11b136ea224fe,,,,,,,,,4348,-74.3046875,42.9609375,1,0,0,response7disk,,1,-1.2421875,-1.54296875,1,0,0,rectangle,-1.2421875,-1.54296875,1,0,0,-1.2421875,-1.54296875,1,0,0,1,81,241,93,1,,,,,,,,
,,,,,,,,,,,,,FF,,,,,,,,1.5655,,,,,,,,,,,,,,,,,,,,,,60fcf17f0e7f07f8a04730da,61036ba44c468ff0f756b1ab,2021-07-29_22h02.39.111,Simcolourproject_2stim_asymm_v5,2020.2.10,MacIntel,60,61025ae37ef11b136ea224fe,,,,,,,,,1707,-38.52734375,92.48828125,1,0,0,response7disk,,0,-4.4765625,11.65625,1,0,0,rectangle,-4.4765625,11.65625,1,0,0,-4.4765625,11.65625,1,0,0,1,82,242,64,1,,,,,,,,
,,,,,,,,,,,,,FF,,,,,,,,1.0498,,,,,,,,,,,,,,,,,,,,,,60fcf17f0e7f07f8a04730da,61036ba44c468ff0f756b1ab,2021-07-29_22h02.39.111,Simcolourproject_2stim_asymm_v5,2020.2.10,MacIntel,60,61025ae37ef11b136ea224fe,,,,,,,,,2831,70.56640625,24.56640625,1,0,0,response1disk,,6,12.09765625,-7.5234375,1,0,0,rectangle,12.09765625,-7.5234375,1,0,0,12.09765625,-7.5234375,1,0,0,1,83,243,53,1,,,,,,,,
,,,,,,,,,,,,,FF,,,,,,,,22.7507,,,,,,,,,,,,,,,,,,,,,,60fcf17f0e7f07f8a04730da,61036ba44c468ff0f756b1ab,2021-07-29_22h02.39.111,Simcolourproject_2stim_asymm_v5,2020.2.10,MacIntel,60,61025ae37ef11b136ea224fe,,,,,,,,,3675,-25.12890625,51.33203125,1,0,0,response7disk,,0,-17.95703125,-12.52734375,1,0,0,rectangle,-17.95703125,-12.52734375,1,0,0,-17.95703125,-12.52734375,1,0,0,1,84,244,107,1,,,,,,,,
,,,,,,,,,,,,,FF,,,,,,,,0.5498,,,,,,,,,,,,,,,,,,,,,,60fcf17f0e7f07f8a04730da,61036ba44c468ff0f756b1ab,2021-07-29_22h02.39.111,Simcolourproject_2stim_asymm_v5,2020.2.10,MacIntel,60,61025ae37ef11b136ea224fe,,,,,,,,,2224,-46.421875,63.28125,1,0,0,response7disk,,0,-19.55078125,4.35546875,1,0,0,rectangle,-19.55078125,4.35546875,1,0,0,-19.55078125,4.35546875,1,0,0,1,85,245,37,1,,,,,,,,
,,,,,,,,,,,,,FF,,,,,,,,85.2431,,,,,,,,,,,,,,,,,,,,,,60fcf17f0e7f07f8a04730da,61036ba44c468ff0f756b1ab,2021-07-29_22h02.39.111,Simcolourproject_2stim_asymm_v5,2020.2.10,MacIntel,60,61025ae37ef11b136ea224fe,,,,,,,,,2419,-37.3046875,91.78125,1,0,0,response7disk,,0,-15.67578125,-0.3203125,1,0,0,rectangle,-15.67578125,-0.3203125,1,0,0,-15.67578125,-0.3203125,1,0,0,1,86,246,49,1,,,,,,,,
