key_resp.keys,key_resp.rt,key_resp_14.keys,key_resp_14.rt,key_resp_15.keys,key_resp_15.rt,key_resp_17.keys,key_resp_17.rt,key_resp_9.keys,key_resp_9.rt,key_resp_10.keys,key_resp_10.rt,practice_comparison,Ecc,mouse_5.x,mouse_5.y,mouse_5.leftButton,mouse_5.midButton,mouse_5.rightButton,mouse_5.clicked_name,pracsimilarity,response_time,mouse_10.x,mouse_10.y,mouse_10.leftButton,mouse_10.midButton,mouse_10.rightButton,mouse_10.clicked_name,mouse_7.x,mouse_7.y,mouse_7.leftButton,mouse_7.midButton,mouse_7.rightButton,mouse_6.x,mouse_6.y,mouse_6.leftButton,mouse_6.midButton,mouse_6.rightButton,duringprac.thisRepN,duringprac.thisTrialN,duringprac.thisN,duringprac.thisIndex,duringprac.ran,participant,session,date,expName,psychopyVersion,OS,frameRate,study_id,mouse_7.clicked_name,catchpracsimilarity,catch_response_time,catchnumberprac,catchtrialorderprac,mouse_6.clicked_name,key_resp_22.keys,key_resp_22.rt,realcomparison,mouse.x,mouse.y,mouse.leftButton,mouse.midButton,mouse.rightButton,mouse.clicked_name,Colour2,similarity,mouse_2.x,mouse_2.y,mouse_2.leftButton,mouse_2.midButton,mouse_2.rightButton,mouse_2.clicked_name,mouse_3.x,mouse_3.y,mouse_3.leftButton,mouse_3.midButton,mouse_3.rightButton,mouse_11.x,mouse_11.y,mouse_11.leftButton,mouse_11.midButton,mouse_11.rightButton,trials_2.thisRepN,trials_2.thisTrialN,trials_2.thisN,trials_2.thisIndex,trials_2.ran,Colour1,mouse_3.clicked_name,catchornah,catchsimilarity,catchnumber,catchtrialorder,catchRT,mouse_11.clicked_name
space,4.935,space,8.094,space,26.734,space,8.485,space,1.266,space,4.011,128,PF,-84,38,1,0,0,response7disk_5,1,7.069,2,-2,1,0,0,rectangle_8,2,-2,1,0,0,2,-2,1,0,0,0,0,0,4,1,60fc66800ccfce9c74ed4f3d,61036b3764e6c768e90c3358,2021-07-29_23h02.31.736,Simcolourproject_2stim_asymm_v5,2020.2.10,MacIntel,60,61025ae37ef11b136ea224fe,,,,,,,,,,,,,,,,,,,,,,,,,,,,,,,,,,,,,,,,,,,,,,
,,,,,,,,,,,,66,FF,-36,-68,1,0,0,response5disk_5,3,2.365,7,4,1,0,0,rectangle_8,24,-70,1,0,0,-9,5,1,0,0,0,1,1,5,1,60fc66800ccfce9c74ed4f3d,61036b3764e6c768e90c3358,2021-07-29_23h02.31.736,Simcolourproject_2stim_asymm_v5,2020.2.10,MacIntel,60,61025ae37ef11b136ea224fe,response3disk_7,4,2.232,4,"[2,5]",rectangle_4,,,,,,,,,,,,,,,,,,,,,,,,,,,,,,,,,,,,,,,,
,,,,,,,,,,,,71,PF,81,33,1,0,0,response1disk_5,6,1.715,14,3,1,0,0,rectangle_8,14,3,1,0,0,14,3,1,0,0,0,2,2,1,1,60fc66800ccfce9c74ed4f3d,61036b3764e6c768e90c3358,2021-07-29_23h02.31.736,Simcolourproject_2stim_asymm_v5,2020.2.10,MacIntel,60,61025ae37ef11b136ea224fe,,,,,,,,,,,,,,,,,,,,,,,,,,,,,,,,,,,,,,,,,,,,,,
,,,,,,,,,,,,140,FF,58,-83,1,0,0,response3disk_5,4,5.332,6,5,1,0,0,rectangle_8,6,5,1,0,0,6,5,1,0,0,0,3,3,0,1,60fc66800ccfce9c74ed4f3d,61036b3764e6c768e90c3358,2021-07-29_23h02.31.736,Simcolourproject_2stim_asymm_v5,2020.2.10,MacIntel,60,61025ae37ef11b136ea224fe,,,,,,,,,,,,,,,,,,,,,,,,,,,,,,,,,,,,,,,,,,,,,,
,,,,,,,,,,,,67,FF,-25,-79,1,0,0,response5disk_5,3,2.233,-3,-5,1,0,0,rectangle_8,38,-81,1,0,0,-1,-11,1,0,0,0,4,4,3,1,60fc66800ccfce9c74ed4f3d,61036b3764e6c768e90c3358,2021-07-29_23h02.31.736,Simcolourproject_2stim_asymm_v5,2020.2.10,MacIntel,60,61025ae37ef11b136ea224fe,response3disk_7,4,1.532,4,"[2,5]",rectangle_4,,,,,,,,,,,,,,,,,,,,,,,,,,,,,,,,,,,,,,,,
,,,,,,,,,,,,120,PF,-36,-74,1,0,0,response5disk_5,3,2.367,15,-4,1,0,0,rectangle_8,15,-4,1,0,0,15,-4,1,0,0,0,5,5,2,1,60fc66800ccfce9c74ed4f3d,61036b3764e6c768e90c3358,2021-07-29_23h02.31.736,Simcolourproject_2stim_asymm_v5,2020.2.10,MacIntel,60,61025ae37ef11b136ea224fe,,,,,,,,,,,,,,,,,,,,,,,,,,,,,,,,,,,,,,,,,,,,,,
,,,,,,,,,,,,64,PF,-35,-63,1,0,0,response5disk_5,3,1.067,1,-7,1,0,0,rectangle_8,1,-7,1,0,0,1,-7,1,0,0,0,6,6,6,1,60fc66800ccfce9c74ed4f3d,61036b3764e6c768e90c3358,2021-07-29_23h02.31.736,Simcolourproject_2stim_asymm_v5,2020.2.10,MacIntel,60,61025ae37ef11b136ea224fe,,,,,,,,,,,,,,,,,,,,,,,,,,,,,,,,,,,,,,,,,,,,,,
,,,,,,,,,,,,,FF,,,,,,,,2.069,,,,,,,,,,,,,,,,,,,,,,60fc66800ccfce9c74ed4f3d,61036b3764e6c768e90c3358,2021-07-29_23h02.31.736,Simcolourproject_2stim_asymm_v5,2020.2.10,MacIntel,60,61025ae37ef11b136ea224fe,,,,,,,space,2.831,2355,-66,-20,1,0,0,response5disk,,2,4,5,1,0,0,rectangle,4,5,1,0,0,4,5,1,0,0,0,0,0,31,1,,,,,,,,
,,,,,,,,,,,,,FF,,,,,,,,3.8,,,,,,,,,,,,,,,,,,,,,,60fc66800ccfce9c74ed4f3d,61036b3764e6c768e90c3358,2021-07-29_23h02.31.736,Simcolourproject_2stim_asymm_v5,2020.2.10,MacIntel,60,61025ae37ef11b136ea224fe,,,,,,,,,3480,-35,-84,1,0,0,response5disk,,3,5,3,1,0,0,rectangle,5,3,1,0,0,5,3,1,0,0,0,1,1,135,1,,,,,,,,
,,,,,,,,,,,,,FF,,,,,,,,1.249,,,,,,,,,,,,,,,,,,,,,,60fc66800ccfce9c74ed4f3d,61036b3764e6c768e90c3358,2021-07-29_23h02.31.736,Simcolourproject_2stim_asymm_v5,2020.2.10,MacIntel,60,61025ae37ef11b136ea224fe,,,,,,,,,814,36,-77,1,0,0,response3disk,,4,16,-2,1,0,0,rectangle,16,-2,1,0,0,16,-2,1,0,0,0,2,2,122,1,,,,,,,,
,,,,,,,,,,,,,FF,,,,,,,,2,,,,,,,,,,,,,,,,,,,,,,60fc66800ccfce9c74ed4f3d,61036b3764e6c768e90c3358,2021-07-29_23h02.31.736,Simcolourproject_2stim_asymm_v5,2020.2.10,MacIntel,60,61025ae37ef11b136ea224fe,,,,,,,,,2506,43,55,1,0,0,response1disk,,7,15,-6,1,0,0,rectangle,15,-6,1,0,0,15,-6,1,0,0,0,3,3,105,1,,,,,,,,
,,,,,,,,,,,,,FF,,,,,,,,1.433,,,,,,,,,,,,,,,,,,,,,,60fc66800ccfce9c74ed4f3d,61036b3764e6c768e90c3358,2021-07-29_23h02.31.736,Simcolourproject_2stim_asymm_v5,2020.2.10,MacIntel,60,61025ae37ef11b136ea224fe,,,,,,,,,1906,32,-89,1,0,0,response3disk,,4,-6,-12,1,0,0,rectangle,-6,-12,1,0,0,-6,-12,1,0,0,0,4,4,56,1,,,,,,,,
,,,,,,,,,,,,,FF,,,,,,,,1.1,,,,,,,,,,,,,,,,,,,,,,60fc66800ccfce9c74ed4f3d,61036b3764e6c768e90c3358,2021-07-29_23h02.31.736,Simcolourproject_2stim_asymm_v5,2020.2.10,MacIntel,60,61025ae37ef11b136ea224fe,,,,,,,,,158,50,-93,1,0,0,response3disk,,4,14,-4,1,0,0,rectangle,14,-4,1,0,0,14,-4,1,0,0,0,5,5,132,1,,,,,,,,
,,,,,,,,,,,,,FF,,,,,,,,1.6,,,,,,,,,,,,,,,,,,,,,,60fc66800ccfce9c74ed4f3d,61036b3764e6c768e90c3358,2021-07-29_23h02.31.736,Simcolourproject_2stim_asymm_v5,2020.2.10,MacIntel,60,61025ae37ef11b136ea224fe,,,,,,,,,648,-22,-63,1,0,0,response5disk,,3,-2,7,1,0,0,rectangle,-2,7,1,0,0,-2,7,1,0,0,0,6,6,24,1,,,,,,,,
,,,,,,,,,,,,,FF,,,,,,,,0.883,,,,,,,,,,,,,,,,,,,,,,60fc66800ccfce9c74ed4f3d,61036b3764e6c768e90c3358,2021-07-29_23h02.31.736,Simcolourproject_2stim_asymm_v5,2020.2.10,MacIntel,60,61025ae37ef11b136ea224fe,,,,,,,,,1691,-35,-63,1,0,0,response5disk,,3,-7,-7,1,0,0,rectangle,-36,68,1,0,0,-9,6,1,0,0,0,7,7,0,1,,response7disk_3,TRUE,0,0,"[33,149,135,260,139,48,303,8,222,63,64,141,250,307,240,23,191,218,33,44]",1.817,rectangle
,,,,,,,,,,,,,FF,,,,,,,,2.5,,,,,,,,,,,,,,,,,,,,,,60fc66800ccfce9c74ed4f3d,61036b3764e6c768e90c3358,2021-07-29_23h02.31.736,Simcolourproject_2stim_asymm_v5,2020.2.10,MacIntel,60,61025ae37ef11b136ea224fe,,,,,,,,,36,111,79,1,0,0,response1disk,,6,10,2,1,0,0,rectangle,10,2,1,0,0,10,2,1,0,0,0,8,8,14,1,,,,,,,,
,,,,,,,,,,,,,FF,,,,,,,,1.651,,,,,,,,,,,,,,,,,,,,,,60fc66800ccfce9c74ed4f3d,61036b3764e6c768e90c3358,2021-07-29_23h02.31.736,Simcolourproject_2stim_asymm_v5,2020.2.10,MacIntel,60,61025ae37ef11b136ea224fe,,,,,,,,,1629,50,80,1,0,0,response1disk,,7,10,-5,1,0,0,rectangle,10,-5,1,0,0,10,-5,1,0,0,0,9,9,134,1,,,,,,,,
,,,,,,,,,,,,,FF,,,,,,,,1.116,,,,,,,,,,,,,,,,,,,,,,60fc66800ccfce9c74ed4f3d,61036b3764e6c768e90c3358,2021-07-29_23h02.31.736,Simcolourproject_2stim_asymm_v5,2020.2.10,MacIntel,60,61025ae37ef11b136ea224fe,,,,,,,,,301,34,53,1,0,0,response1disk,,7,17,5,1,0,0,rectangle,17,5,1,0,0,17,5,1,0,0,0,10,10,159,1,,,,,,,,
,,,,,,,,,,,,,FF,,,,,,,,3.331,,,,,,,,,,,,,,,,,,,,,,60fc66800ccfce9c74ed4f3d,61036b3764e6c768e90c3358,2021-07-29_23h02.31.736,Simcolourproject_2stim_asymm_v5,2020.2.10,MacIntel,60,61025ae37ef11b136ea224fe,,,,,,,,,1131,-43,69,1,0,0,response7disk,,0,-1,0,1,0,0,rectangle,-1,0,1,0,0,-1,0,1,0,0,0,11,11,1,1,,,,,,,,
,,,,,,,,,,,,,FF,,,,,,,,1.717,,,,,,,,,,,,,,,,,,,,,,60fc66800ccfce9c74ed4f3d,61036b3764e6c768e90c3358,2021-07-29_23h02.31.736,Simcolourproject_2stim_asymm_v5,2020.2.10,MacIntel,60,61025ae37ef11b136ea224fe,,,,,,,,,3893,66,-52,1,0,0,response3disk,,5,8,4,1,0,0,rectangle,8,4,1,0,0,8,4,1,0,0,0,12,12,70,1,,,,,,,,
,,,,,,,,,,,,,FF,,,,,,,,1.049,,,,,,,,,,,,,,,,,,,,,,60fc66800ccfce9c74ed4f3d,61036b3764e6c768e90c3358,2021-07-29_23h02.31.736,Simcolourproject_2stim_asymm_v5,2020.2.10,MacIntel,60,61025ae37ef11b136ea224fe,,,,,,,,,3361,87,51,1,0,0,response1disk,,6,9,10,1,0,0,rectangle,9,10,1,0,0,9,10,1,0,0,0,13,13,127,1,,,,,,,,
,,,,,,,,,,,,,FF,,,,,,,,1.152,,,,,,,,,,,,,,,,,,,,,,60fc66800ccfce9c74ed4f3d,61036b3764e6c768e90c3358,2021-07-29_23h02.31.736,Simcolourproject_2stim_asymm_v5,2020.2.10,MacIntel,60,61025ae37ef11b136ea224fe,,,,,,,,,908,-29,-61,1,0,0,response5disk,,3,-3,9,1,0,0,rectangle,-3,9,1,0,0,-3,9,1,0,0,0,14,14,39,1,,,,,,,,
,,,,,,,,,,,,,FF,,,,,,,,0.768,,,,,,,,,,,,,,,,,,,,,,60fc66800ccfce9c74ed4f3d,61036b3764e6c768e90c3358,2021-07-29_23h02.31.736,Simcolourproject_2stim_asymm_v5,2020.2.10,MacIntel,60,61025ae37ef11b136ea224fe,,,,,,,,,1139,-33,-54,1,0,0,response5disk,,3,13,10,1,0,0,rectangle,13,10,1,0,0,13,10,1,0,0,0,15,15,130,1,,,,,,,,
,,,,,,,,,,,,,FF,,,,,,,,0.917,,,,,,,,,,,,,,,,,,,,,,60fc66800ccfce9c74ed4f3d,61036b3764e6c768e90c3358,2021-07-29_23h02.31.736,Simcolourproject_2stim_asymm_v5,2020.2.10,MacIntel,60,61025ae37ef11b136ea224fe,,,,,,,,,730,-27,-53,1,0,0,response5disk,,3,0,-3,1,0,0,rectangle,0,-3,1,0,0,0,-3,1,0,0,0,16,16,86,1,,,,,,,,
,,,,,,,,,,,,,FF,,,,,,,,1,,,,,,,,,,,,,,,,,,,,,,60fc66800ccfce9c74ed4f3d,61036b3764e6c768e90c3358,2021-07-29_23h02.31.736,Simcolourproject_2stim_asymm_v5,2020.2.10,MacIntel,60,61025ae37ef11b136ea224fe,,,,,,,,,3912,-28,-61,1,0,0,response5disk,,3,-2,-6,1,0,0,rectangle,-2,-6,1,0,0,-2,-6,1,0,0,0,17,17,54,1,,,,,,,,
,,,,,,,,,,,,,FF,,,,,,,,1.017,,,,,,,,,,,,,,,,,,,,,,60fc66800ccfce9c74ed4f3d,61036b3764e6c768e90c3358,2021-07-29_23h02.31.736,Simcolourproject_2stim_asymm_v5,2020.2.10,MacIntel,60,61025ae37ef11b136ea224fe,,,,,,,,,4362,-66,29,1,0,0,response7disk,,1,-3,10,1,0,0,rectangle,-3,10,1,0,0,-3,10,1,0,0,0,18,18,45,1,,,,,,,,
,,,,,,,,,,,,,FF,,,,,,,,1.482,,,,,,,,,,,,,,,,,,,,,,60fc66800ccfce9c74ed4f3d,61036b3764e6c768e90c3358,2021-07-29_23h02.31.736,Simcolourproject_2stim_asymm_v5,2020.2.10,MacIntel,60,61025ae37ef11b136ea224fe,,,,,,,,,2697,69,-46,1,0,0,response3disk,,5,1,-11,1,0,0,rectangle,1,-11,1,0,0,1,-11,1,0,0,0,19,19,46,1,,,,,,,,
,,,,,,,,,,,,,FF,,,,,,,,0.849,,,,,,,,,,,,,,,,,,,,,,60fc66800ccfce9c74ed4f3d,61036b3764e6c768e90c3358,2021-07-29_23h02.31.736,Simcolourproject_2stim_asymm_v5,2020.2.10,MacIntel,60,61025ae37ef11b136ea224fe,,,,,,,,,297,59,-31,1,0,0,response3disk,,5,13,-11,1,0,0,rectangle,13,-11,1,0,0,13,-11,1,0,0,0,20,20,92,1,,,,,,,,
,,,,,,,,,,,,,FF,,,,,,,,0.984,,,,,,,,,,,,,,,,,,,,,,60fc66800ccfce9c74ed4f3d,61036b3764e6c768e90c3358,2021-07-29_23h02.31.736,Simcolourproject_2stim_asymm_v5,2020.2.10,MacIntel,60,61025ae37ef11b136ea224fe,,,,,,,,,1268,81,41,1,0,0,response1disk,,6,-4,-10,1,0,0,rectangle,-4,-10,1,0,0,-4,-10,1,0,0,0,21,21,125,1,,,,,,,,
,,,,,,,,,,,,,FF,,,,,,,,1.132,,,,,,,,,,,,,,,,,,,,,,60fc66800ccfce9c74ed4f3d,61036b3764e6c768e90c3358,2021-07-29_23h02.31.736,Simcolourproject_2stim_asymm_v5,2020.2.10,MacIntel,60,61025ae37ef11b136ea224fe,,,,,,,,,712,55,-33,1,0,0,response3disk,,5,5,-15,1,0,0,rectangle,-54,-30,1,0,0,-5,-14,1,0,0,0,22,22,150,1,,response5disk_3,TRUE,2,2,"[33,149,135,260,139,48,303,8,222,63,64,141,250,307,240,23,191,218,33,44]",1.415,rectangle
,,,,,,,,,,,,,FF,,,,,,,,1.016,,,,,,,,,,,,,,,,,,,,,,60fc66800ccfce9c74ed4f3d,61036b3764e6c768e90c3358,2021-07-29_23h02.31.736,Simcolourproject_2stim_asymm_v5,2020.2.10,MacIntel,60,61025ae37ef11b136ea224fe,,,,,,,,,3734,26,-51,1,0,0,response3disk,,4,11,-7,1,0,0,rectangle,11,-7,1,0,0,11,-7,1,0,0,0,23,23,53,1,,,,,,,,
,,,,,,,,,,,,,FF,,,,,,,,0.85,,,,,,,,,,,,,,,,,,,,,,60fc66800ccfce9c74ed4f3d,61036b3764e6c768e90c3358,2021-07-29_23h02.31.736,Simcolourproject_2stim_asymm_v5,2020.2.10,MacIntel,60,61025ae37ef11b136ea224fe,,,,,,,,,3807,31,-45,1,0,0,response3disk,,4,21,-8,1,0,0,rectangle,21,-8,1,0,0,21,-8,1,0,0,0,24,24,13,1,,,,,,,,
,,,,,,,,,,,,,FF,,,,,,,,0.984,,,,,,,,,,,,,,,,,,,,,,60fc66800ccfce9c74ed4f3d,61036b3764e6c768e90c3358,2021-07-29_23h02.31.736,Simcolourproject_2stim_asymm_v5,2020.2.10,MacIntel,60,61025ae37ef11b136ea224fe,,,,,,,,,271,67,31,1,0,0,response1disk,,6,2,11,1,0,0,rectangle,2,11,1,0,0,2,11,1,0,0,0,25,25,7,1,,,,,,,,
,,,,,,,,,,,,,FF,,,,,,,,1.416,,,,,,,,,,,,,,,,,,,,,,60fc66800ccfce9c74ed4f3d,61036b3764e6c768e90c3358,2021-07-29_23h02.31.736,Simcolourproject_2stim_asymm_v5,2020.2.10,MacIntel,60,61025ae37ef11b136ea224fe,,,,,,,,,1164,70,-39,1,0,0,response3disk,,5,15,-11,1,0,0,rectangle,15,-11,1,0,0,15,-11,1,0,0,0,26,26,144,1,,,,,,,,
,,,,,,,,,,,,,FF,,,,,,,,0.732,,,,,,,,,,,,,,,,,,,,,,60fc66800ccfce9c74ed4f3d,61036b3764e6c768e90c3358,2021-07-29_23h02.31.736,Simcolourproject_2stim_asymm_v5,2020.2.10,MacIntel,60,61025ae37ef11b136ea224fe,,,,,,,,,514,65,34,1,0,0,response1disk,,6,11,-1,1,0,0,rectangle,11,-1,1,0,0,11,-1,1,0,0,0,27,27,82,1,,,,,,,,
,,,,,,,,,,,,,FF,,,,,,,,1.333,,,,,,,,,,,,,,,,,,,,,,60fc66800ccfce9c74ed4f3d,61036b3764e6c768e90c3358,2021-07-29_23h02.31.736,Simcolourproject_2stim_asymm_v5,2020.2.10,MacIntel,60,61025ae37ef11b136ea224fe,,,,,,,,,2809,36,62,1,0,0,response1disk,,7,15,5,1,0,0,rectangle,15,5,1,0,0,15,5,1,0,0,0,28,28,32,1,,,,,,,,
,,,,,,,,,,,,,FF,,,,,,,,1.067,,,,,,,,,,,,,,,,,,,,,,60fc66800ccfce9c74ed4f3d,61036b3764e6c768e90c3358,2021-07-29_23h02.31.736,Simcolourproject_2stim_asymm_v5,2020.2.10,MacIntel,60,61025ae37ef11b136ea224fe,,,,,,,,,3644,30,-62,1,0,0,response3disk,,4,16,-12,1,0,0,rectangle,16,-12,1,0,0,16,-12,1,0,0,0,29,29,60,1,,,,,,,,
,,,,,,,,,,,,,FF,,,,,,,,0.8,,,,,,,,,,,,,,,,,,,,,,60fc66800ccfce9c74ed4f3d,61036b3764e6c768e90c3358,2021-07-29_23h02.31.736,Simcolourproject_2stim_asymm_v5,2020.2.10,MacIntel,60,61025ae37ef11b136ea224fe,,,,,,,,,685,62,-35,1,0,0,response3disk,,5,1,3,1,0,0,rectangle,1,3,1,0,0,1,3,1,0,0,0,30,30,57,1,,,,,,,,
,,,,,,,,,,,,,FF,,,,,,,,1.034,,,,,,,,,,,,,,,,,,,,,,60fc66800ccfce9c74ed4f3d,61036b3764e6c768e90c3358,2021-07-29_23h02.31.736,Simcolourproject_2stim_asymm_v5,2020.2.10,MacIntel,60,61025ae37ef11b136ea224fe,,,,,,,,,3918,26,-50,1,0,0,response3disk,,4,11,-13,1,0,0,rectangle,11,-13,1,0,0,11,-13,1,0,0,0,31,31,107,1,,,,,,,,
,,,,,,,,,,,,,FF,,,,,,,,1.4,,,,,,,,,,,,,,,,,,,,,,60fc66800ccfce9c74ed4f3d,61036b3764e6c768e90c3358,2021-07-29_23h02.31.736,Simcolourproject_2stim_asymm_v5,2020.2.10,MacIntel,60,61025ae37ef11b136ea224fe,,,,,,,,,2886,-40,73,1,0,0,response7disk,,0,-19,-9,1,0,0,rectangle,42,-81,1,0,0,7,-11,1,0,0,0,32,32,47,1,,response3disk_3,TRUE,4,4,"[33,149,135,260,139,48,303,8,222,63,64,141,250,307,240,23,191,218,33,44]",1.398,rectangle
,,,,,,,,,,,,,FF,,,,,,,,2.466,,,,,,,,,,,,,,,,,,,,,,60fc66800ccfce9c74ed4f3d,61036b3764e6c768e90c3358,2021-07-29_23h02.31.736,Simcolourproject_2stim_asymm_v5,2020.2.10,MacIntel,60,61025ae37ef11b136ea224fe,,,,,,,,,3609,50,-36,1,0,0,response3disk,,5,7,-8,1,0,0,rectangle,7,-8,1,0,0,7,-8,1,0,0,0,33,33,145,1,,,,,,,,
,,,,,,,,,,,,,FF,,,,,,,,0.901,,,,,,,,,,,,,,,,,,,,,,60fc66800ccfce9c74ed4f3d,61036b3764e6c768e90c3358,2021-07-29_23h02.31.736,Simcolourproject_2stim_asymm_v5,2020.2.10,MacIntel,60,61025ae37ef11b136ea224fe,,,,,,,,,2306,-30,-63,1,0,0,response5disk,,3,0,-12,1,0,0,rectangle,0,-12,1,0,0,0,-12,1,0,0,0,34,34,141,1,,,,,,,,
,,,,,,,,,,,,,FF,,,,,,,,0.651,,,,,,,,,,,,,,,,,,,,,,60fc66800ccfce9c74ed4f3d,61036b3764e6c768e90c3358,2021-07-29_23h02.31.736,Simcolourproject_2stim_asymm_v5,2020.2.10,MacIntel,60,61025ae37ef11b136ea224fe,,,,,,,,,168,-30,-67,1,0,0,response5disk,,3,-3,-12,1,0,0,rectangle,-3,-12,1,0,0,-3,-12,1,0,0,0,35,35,63,1,,,,,,,,
,,,,,,,,,,,,,FF,,,,,,,,0.766,,,,,,,,,,,,,,,,,,,,,,60fc66800ccfce9c74ed4f3d,61036b3764e6c768e90c3358,2021-07-29_23h02.31.736,Simcolourproject_2stim_asymm_v5,2020.2.10,MacIntel,60,61025ae37ef11b136ea224fe,,,,,,,,,1851,60,-35,1,0,0,response3disk,,5,18,-3,1,0,0,rectangle,18,-3,1,0,0,18,-3,1,0,0,0,36,36,103,1,,,,,,,,
,,,,,,,,,,,,,FF,,,,,,,,1.233,,,,,,,,,,,,,,,,,,,,,,60fc66800ccfce9c74ed4f3d,61036b3764e6c768e90c3358,2021-07-29_23h02.31.736,Simcolourproject_2stim_asymm_v5,2020.2.10,MacIntel,60,61025ae37ef11b136ea224fe,,,,,,,,,3678,-68,-44,1,0,0,response5disk,,2,-11,-11,1,0,0,rectangle,-11,-11,1,0,0,-11,-11,1,0,0,0,37,37,5,1,,,,,,,,
,,,,,,,,,,,,,FF,,,,,,,,1.001,,,,,,,,,,,,,,,,,,,,,,60fc66800ccfce9c74ed4f3d,61036b3764e6c768e90c3358,2021-07-29_23h02.31.736,Simcolourproject_2stim_asymm_v5,2020.2.10,MacIntel,60,61025ae37ef11b136ea224fe,,,,,,,,,1870,65,-32,1,0,0,response3disk,,5,12,-14,1,0,0,rectangle,12,-14,1,0,0,12,-14,1,0,0,0,38,38,12,1,,,,,,,,
,,,,,,,,,,,,,FF,,,,,,,,1.017,,,,,,,,,,,,,,,,,,,,,,60fc66800ccfce9c74ed4f3d,61036b3764e6c768e90c3358,2021-07-29_23h02.31.736,Simcolourproject_2stim_asymm_v5,2020.2.10,MacIntel,60,61025ae37ef11b136ea224fe,,,,,,,,,2299,-65,-33,1,0,0,response5disk,,2,1,-2,1,0,0,rectangle,1,-2,1,0,0,1,-2,1,0,0,0,39,39,27,1,,,,,,,,
,,,,,,,,,,,,,FF,,,,,,,,0.751,,,,,,,,,,,,,,,,,,,,,,60fc66800ccfce9c74ed4f3d,61036b3764e6c768e90c3358,2021-07-29_23h02.31.736,Simcolourproject_2stim_asymm_v5,2020.2.10,MacIntel,60,61025ae37ef11b136ea224fe,,,,,,,,,2741,78,48,1,0,0,response1disk,,6,-6,-3,1,0,0,rectangle,-6,-3,1,0,0,-6,-3,1,0,0,0,40,40,81,1,,,,,,,,
,,,,,,,,,,,,,FF,,,,,,,,0.8,,,,,,,,,,,,,,,,,,,,,,60fc66800ccfce9c74ed4f3d,61036b3764e6c768e90c3358,2021-07-29_23h02.31.736,Simcolourproject_2stim_asymm_v5,2020.2.10,MacIntel,60,61025ae37ef11b136ea224fe,,,,,,,,,2274,41,53,1,0,0,response1disk,,7,17,5,1,0,0,rectangle,17,5,1,0,0,17,5,1,0,0,0,41,41,80,1,,,,,,,,
,,,,,,,,,,,,,FF,,,,,,,,1.284,,,,,,,,,,,,,,,,,,,,,,60fc66800ccfce9c74ed4f3d,61036b3764e6c768e90c3358,2021-07-29_23h02.31.736,Simcolourproject_2stim_asymm_v5,2020.2.10,MacIntel,60,61025ae37ef11b136ea224fe,,,,,,,,,684,46,79,1,0,0,response1disk,,7,5,3,1,0,0,rectangle,5,3,1,0,0,5,3,1,0,0,0,42,42,78,1,,,,,,,,
,,,,,,,,,,,,,FF,,,,,,,,1.017,,,,,,,,,,,,,,,,,,,,,,60fc66800ccfce9c74ed4f3d,61036b3764e6c768e90c3358,2021-07-29_23h02.31.736,Simcolourproject_2stim_asymm_v5,2020.2.10,MacIntel,60,61025ae37ef11b136ea224fe,,,,,,,,,3312,84,26,1,0,0,response1disk,,6,15,1,1,0,0,rectangle,-59,-23,1,0,0,-3,-3,1,0,0,0,43,43,154,1,,response5disk_3,TRUE,2,2,"[33,149,135,260,139,48,303,8,222,63,64,141,250,307,240,23,191,218,33,44]",1.333,rectangle
,,,,,,,,,,,,,FF,,,,,,,,1.184,,,,,,,,,,,,,,,,,,,,,,60fc66800ccfce9c74ed4f3d,61036b3764e6c768e90c3358,2021-07-29_23h02.31.736,Simcolourproject_2stim_asymm_v5,2020.2.10,MacIntel,60,61025ae37ef11b136ea224fe,,,,,,,,,3813,18,-51,1,0,0,response3disk,,4,6,-11,1,0,0,rectangle,6,-11,1,0,0,6,-11,1,0,0,0,44,44,8,1,,,,,,,,
,,,,,,,,,,,,,FF,,,,,,,,1.349,,,,,,,,,,,,,,,,,,,,,,60fc66800ccfce9c74ed4f3d,61036b3764e6c768e90c3358,2021-07-29_23h02.31.736,Simcolourproject_2stim_asymm_v5,2020.2.10,MacIntel,60,61025ae37ef11b136ea224fe,,,,,,,,,2030,-44,-60,1,0,0,response5disk,,3,-7,-11,1,0,0,rectangle,-7,-11,1,0,0,-7,-11,1,0,0,0,45,45,88,1,,,,,,,,
,,,,,,,,,,,,,FF,,,,,,,,0.718,,,,,,,,,,,,,,,,,,,,,,60fc66800ccfce9c74ed4f3d,61036b3764e6c768e90c3358,2021-07-29_23h02.31.736,Simcolourproject_2stim_asymm_v5,2020.2.10,MacIntel,60,61025ae37ef11b136ea224fe,,,,,,,,,2860,64,-37,1,0,0,response3disk,,5,18,-4,1,0,0,rectangle,18,-4,1,0,0,18,-4,1,0,0,0,46,46,40,1,,,,,,,,
,,,,,,,,,,,,,FF,,,,,,,,0.785,,,,,,,,,,,,,,,,,,,,,,60fc66800ccfce9c74ed4f3d,61036b3764e6c768e90c3358,2021-07-29_23h02.31.736,Simcolourproject_2stim_asymm_v5,2020.2.10,MacIntel,60,61025ae37ef11b136ea224fe,,,,,,,,,2734,-40,-64,1,0,0,response5disk,,3,-3,-1,1,0,0,rectangle,-67,-34,1,0,0,-4,-13,1,0,0,0,47,47,119,1,,response5disk_3,TRUE,2,2,"[33,149,135,260,139,48,303,8,222,63,64,141,250,307,240,23,191,218,33,44]",1.681,rectangle
,,,,,,,,,,,,,FF,,,,,,,,1.349,,,,,,,,,,,,,,,,,,,,,,60fc66800ccfce9c74ed4f3d,61036b3764e6c768e90c3358,2021-07-29_23h02.31.736,Simcolourproject_2stim_asymm_v5,2020.2.10,MacIntel,60,61025ae37ef11b136ea224fe,,,,,,,,,3691,-39,-70,1,0,0,response5disk,,3,6,10,1,0,0,rectangle,6,10,1,0,0,6,10,1,0,0,0,48,48,93,1,,,,,,,,
,,,,,,,,,,,,,FF,,,,,,,,0.8,,,,,,,,,,,,,,,,,,,,,,60fc66800ccfce9c74ed4f3d,61036b3764e6c768e90c3358,2021-07-29_23h02.31.736,Simcolourproject_2stim_asymm_v5,2020.2.10,MacIntel,60,61025ae37ef11b136ea224fe,,,,,,,,,2168,-36,-59,1,0,0,response5disk,,3,-4,-8,1,0,0,rectangle,-4,-8,1,0,0,-4,-8,1,0,0,0,49,49,85,1,,,,,,,,
,,,,,,,,,,,,,FF,,,,,,,,1.184,,,,,,,,,,,,,,,,,,,,,,60fc66800ccfce9c74ed4f3d,61036b3764e6c768e90c3358,2021-07-29_23h02.31.736,Simcolourproject_2stim_asymm_v5,2020.2.10,MacIntel,60,61025ae37ef11b136ea224fe,,,,,,,,,3277,50,82,1,0,0,response1disk,,7,18,6,1,0,0,rectangle,18,6,1,0,0,18,6,1,0,0,0,50,50,128,1,,,,,,,,
,,,,,,,,,,,,,FF,,,,,,,,0.884,,,,,,,,,,,,,,,,,,,,,,60fc66800ccfce9c74ed4f3d,61036b3764e6c768e90c3358,2021-07-29_23h02.31.736,Simcolourproject_2stim_asymm_v5,2020.2.10,MacIntel,60,61025ae37ef11b136ea224fe,,,,,,,,,1732,82,49,1,0,0,response1disk,,6,9,12,1,0,0,rectangle,9,12,1,0,0,9,12,1,0,0,0,51,51,75,1,,,,,,,,
,,,,,,,,,,,,,FF,,,,,,,,0.717,,,,,,,,,,,,,,,,,,,,,,60fc66800ccfce9c74ed4f3d,61036b3764e6c768e90c3358,2021-07-29_23h02.31.736,Simcolourproject_2stim_asymm_v5,2020.2.10,MacIntel,60,61025ae37ef11b136ea224fe,,,,,,,,,2408,65,33,1,0,0,response1disk,,6,5,0,1,0,0,rectangle,5,0,1,0,0,5,0,1,0,0,0,52,52,33,1,,,,,,,,
,,,,,,,,,,,,,FF,,,,,,,,1.016,,,,,,,,,,,,,,,,,,,,,,60fc66800ccfce9c74ed4f3d,61036b3764e6c768e90c3358,2021-07-29_23h02.31.736,Simcolourproject_2stim_asymm_v5,2020.2.10,MacIntel,60,61025ae37ef11b136ea224fe,,,,,,,,,2806,39,71,1,0,0,response1disk,,7,10,3,1,0,0,rectangle,10,3,1,0,0,10,3,1,0,0,0,53,53,41,1,,,,,,,,
,,,,,,,,,,,,,FF,,,,,,,,0.65,,,,,,,,,,,,,,,,,,,,,,60fc66800ccfce9c74ed4f3d,61036b3764e6c768e90c3358,2021-07-29_23h02.31.736,Simcolourproject_2stim_asymm_v5,2020.2.10,MacIntel,60,61025ae37ef11b136ea224fe,,,,,,,,,1103,31,64,1,0,0,response1disk,,7,-4,-11,1,0,0,rectangle,-4,-11,1,0,0,-4,-11,1,0,0,0,54,54,37,1,,,,,,,,
,,,,,,,,,,,,,FF,,,,,,,,1.35,,,,,,,,,,,,,,,,,,,,,,60fc66800ccfce9c74ed4f3d,61036b3764e6c768e90c3358,2021-07-29_23h02.31.736,Simcolourproject_2stim_asymm_v5,2020.2.10,MacIntel,60,61025ae37ef11b136ea224fe,,,,,,,,,13,58,-46,1,0,0,response3disk,,5,5,-14,1,0,0,rectangle,5,-14,1,0,0,5,-14,1,0,0,0,55,55,138,1,,,,,,,,
,,,,,,,,,,,,,FF,,,,,,,,0.999,,,,,,,,,,,,,,,,,,,,,,60fc66800ccfce9c74ed4f3d,61036b3764e6c768e90c3358,2021-07-29_23h02.31.736,Simcolourproject_2stim_asymm_v5,2020.2.10,MacIntel,60,61025ae37ef11b136ea224fe,,,,,,,,,556,32,-53,1,0,0,response3disk,,4,15,-3,1,0,0,rectangle,15,-3,1,0,0,15,-3,1,0,0,0,56,56,110,1,,,,,,,,
,,,,,,,,,,,,,FF,,,,,,,,1.017,,,,,,,,,,,,,,,,,,,,,,60fc66800ccfce9c74ed4f3d,61036b3764e6c768e90c3358,2021-07-29_23h02.31.736,Simcolourproject_2stim_asymm_v5,2020.2.10,MacIntel,60,61025ae37ef11b136ea224fe,,,,,,,,,3698,28,-86,1,0,0,response3disk,,4,9,-16,1,0,0,rectangle,9,-16,1,0,0,9,-16,1,0,0,0,57,57,6,1,,,,,,,,
,,,,,,,,,,,,,FF,,,,,,,,0.784,,,,,,,,,,,,,,,,,,,,,,60fc66800ccfce9c74ed4f3d,61036b3764e6c768e90c3358,2021-07-29_23h02.31.736,Simcolourproject_2stim_asymm_v5,2020.2.10,MacIntel,60,61025ae37ef11b136ea224fe,,,,,,,,,3148,-63,-35,1,0,0,response5disk,,2,-3,0,1,0,0,rectangle,-3,0,1,0,0,-3,0,1,0,0,0,58,58,64,1,,,,,,,,
,,,,,,,,,,,,,FF,,,,,,,,0.583,,,,,,,,,,,,,,,,,,,,,,60fc66800ccfce9c74ed4f3d,61036b3764e6c768e90c3358,2021-07-29_23h02.31.736,Simcolourproject_2stim_asymm_v5,2020.2.10,MacIntel,60,61025ae37ef11b136ea224fe,,,,,,,,,3660,-63,-31,1,0,0,response5disk,,2,-2,-5,1,0,0,rectangle,-2,-5,1,0,0,-2,-5,1,0,0,0,59,59,2,1,,,,,,,,
,,,,,,,,,,,,,FF,,,,,,,,1.049,,,,,,,,,,,,,,,,,,,,,,60fc66800ccfce9c74ed4f3d,61036b3764e6c768e90c3358,2021-07-29_23h02.31.736,Simcolourproject_2stim_asymm_v5,2020.2.10,MacIntel,60,61025ae37ef11b136ea224fe,,,,,,,,,540,38,-75,1,0,0,response3disk,,4,9,-17,1,0,0,rectangle,9,-17,1,0,0,9,-17,1,0,0,0,60,60,62,1,,,,,,,,
,,,,,,,,,,,,,FF,,,,,,,,1.6,,,,,,,,,,,,,,,,,,,,,,60fc66800ccfce9c74ed4f3d,61036b3764e6c768e90c3358,2021-07-29_23h02.31.736,Simcolourproject_2stim_asymm_v5,2020.2.10,MacIntel,60,61025ae37ef11b136ea224fe,,,,,,,,,577,-26,-62,1,0,0,response5disk,,3,3,-9,1,0,0,rectangle,3,-9,1,0,0,3,-9,1,0,0,0,61,61,139,1,,,,,,,,
,,,,,,,,,,,,,FF,,,,,,,,0.685,,,,,,,,,,,,,,,,,,,,,,60fc66800ccfce9c74ed4f3d,61036b3764e6c768e90c3358,2021-07-29_23h02.31.736,Simcolourproject_2stim_asymm_v5,2020.2.10,MacIntel,60,61025ae37ef11b136ea224fe,,,,,,,,,2952,-45,-90,1,0,0,response5disk,,3,-9,-7,1,0,0,rectangle,35,78,1,0,0,10,5,1,0,0,0,62,62,96,1,,response1disk_3,TRUE,7,7,"[33,149,135,260,139,48,303,8,222,63,64,141,250,307,240,23,191,218,33,44]",1.45,rectangle
,,,,,,,,,,,,,FF,,,,,,,,0.933,,,,,,,,,,,,,,,,,,,,,,60fc66800ccfce9c74ed4f3d,61036b3764e6c768e90c3358,2021-07-29_23h02.31.736,Simcolourproject_2stim_asymm_v5,2020.2.10,MacIntel,60,61025ae37ef11b136ea224fe,,,,,,,,,3450,85,44,1,0,0,response1disk,,6,5,7,1,0,0,rectangle,-34,90,1,0,0,-17,14,1,0,0,0,63,63,58,1,,response7disk_3,TRUE,0,0,"[33,149,135,260,139,48,303,8,222,63,64,141,250,307,240,23,191,218,33,44]",1.585,rectangle
,,,,,,,,,,,,,FF,,,,,,,,1.15,,,,,,,,,,,,,,,,,,,,,,60fc66800ccfce9c74ed4f3d,61036b3764e6c768e90c3358,2021-07-29_23h02.31.736,Simcolourproject_2stim_asymm_v5,2020.2.10,MacIntel,60,61025ae37ef11b136ea224fe,,,,,,,,,3200,-69,-33,1,0,0,response5disk,,2,0,4,1,0,0,rectangle,0,4,1,0,0,0,4,1,0,0,0,64,64,73,1,,,,,,,,
,,,,,,,,,,,,,FF,,,,,,,,0.633,,,,,,,,,,,,,,,,,,,,,,60fc66800ccfce9c74ed4f3d,61036b3764e6c768e90c3358,2021-07-29_23h02.31.736,Simcolourproject_2stim_asymm_v5,2020.2.10,MacIntel,60,61025ae37ef11b136ea224fe,,,,,,,,,4295,-82,-38,1,0,0,response5disk,,2,10,2,1,0,0,rectangle,10,2,1,0,0,10,2,1,0,0,0,65,65,26,1,,,,,,,,
,,,,,,,,,,,,,FF,,,,,,,,0.634,,,,,,,,,,,,,,,,,,,,,,60fc66800ccfce9c74ed4f3d,61036b3764e6c768e90c3358,2021-07-29_23h02.31.736,Simcolourproject_2stim_asymm_v5,2020.2.10,MacIntel,60,61025ae37ef11b136ea224fe,,,,,,,,,2163,-57,-37,1,0,0,response5disk,,2,-1,-5,1,0,0,rectangle,-1,-5,1,0,0,-1,-5,1,0,0,0,66,66,100,1,,,,,,,,
,,,,,,,,,,,,,FF,,,,,,,,0.917,,,,,,,,,,,,,,,,,,,,,,60fc66800ccfce9c74ed4f3d,61036b3764e6c768e90c3358,2021-07-29_23h02.31.736,Simcolourproject_2stim_asymm_v5,2020.2.10,MacIntel,60,61025ae37ef11b136ea224fe,,,,,,,,,1773,29,-63,1,0,0,response3disk,,4,12,-9,1,0,0,rectangle,12,-9,1,0,0,12,-9,1,0,0,0,67,67,71,1,,,,,,,,
,,,,,,,,,,,,,FF,,,,,,,,0.715,,,,,,,,,,,,,,,,,,,,,,60fc66800ccfce9c74ed4f3d,61036b3764e6c768e90c3358,2021-07-29_23h02.31.736,Simcolourproject_2stim_asymm_v5,2020.2.10,MacIntel,60,61025ae37ef11b136ea224fe,,,,,,,,,4319,36,-74,1,0,0,response3disk,,4,23,-5,1,0,0,rectangle,23,-5,1,0,0,23,-5,1,0,0,0,68,68,15,1,,,,,,,,
,,,,,,,,,,,,,FF,,,,,,,,0.95,,,,,,,,,,,,,,,,,,,,,,60fc66800ccfce9c74ed4f3d,61036b3764e6c768e90c3358,2021-07-29_23h02.31.736,Simcolourproject_2stim_asymm_v5,2020.2.10,MacIntel,60,61025ae37ef11b136ea224fe,,,,,,,,,3509,59,23,1,0,0,response1disk,,6,3,8,1,0,0,rectangle,3,8,1,0,0,3,8,1,0,0,0,69,69,151,1,,,,,,,,
,,,,,,,,,,,,,FF,,,,,,,,0.783,,,,,,,,,,,,,,,,,,,,,,60fc66800ccfce9c74ed4f3d,61036b3764e6c768e90c3358,2021-07-29_23h02.31.736,Simcolourproject_2stim_asymm_v5,2020.2.10,MacIntel,60,61025ae37ef11b136ea224fe,,,,,,,,,1088,38,71,1,0,0,response1disk,,7,16,11,1,0,0,rectangle,16,11,1,0,0,16,11,1,0,0,0,70,70,69,1,,,,,,,,
,,,,,,,,,,,,,FF,,,,,,,,0.901,,,,,,,,,,,,,,,,,,,,,,60fc66800ccfce9c74ed4f3d,61036b3764e6c768e90c3358,2021-07-29_23h02.31.736,Simcolourproject_2stim_asymm_v5,2020.2.10,MacIntel,60,61025ae37ef11b136ea224fe,,,,,,,,,2279,59,38,1,0,0,response1disk,,6,16,14,1,0,0,rectangle,16,14,1,0,0,16,14,1,0,0,0,71,71,142,1,,,,,,,,
,,,,,,,,,,,,,FF,,,,,,,,0.683,,,,,,,,,,,,,,,,,,,,,,60fc66800ccfce9c74ed4f3d,61036b3764e6c768e90c3358,2021-07-29_23h02.31.736,Simcolourproject_2stim_asymm_v5,2020.2.10,MacIntel,60,61025ae37ef11b136ea224fe,,,,,,,,,2403,62,41,1,0,0,response1disk,,6,8,7,1,0,0,rectangle,8,7,1,0,0,8,7,1,0,0,0,72,72,120,1,,,,,,,,
,,,,,,,,,,,,,FF,,,,,,,,1.234,,,,,,,,,,,,,,,,,,,,,,60fc66800ccfce9c74ed4f3d,61036b3764e6c768e90c3358,2021-07-29_23h02.31.736,Simcolourproject_2stim_asymm_v5,2020.2.10,MacIntel,60,61025ae37ef11b136ea224fe,,,,,,,,,2371,38,-88,1,0,0,response3disk,,4,13,-2,1,0,0,rectangle,13,-2,1,0,0,13,-2,1,0,0,0,73,73,99,1,,,,,,,,
,,,,,,,,,,,,,FF,,,,,,,,0.85,,,,,,,,,,,,,,,,,,,,,,60fc66800ccfce9c74ed4f3d,61036b3764e6c768e90c3358,2021-07-29_23h02.31.736,Simcolourproject_2stim_asymm_v5,2020.2.10,MacIntel,60,61025ae37ef11b136ea224fe,,,,,,,,,356,-33,-63,1,0,0,response5disk,,3,-6,5,1,0,0,rectangle,-6,5,1,0,0,-6,5,1,0,0,0,74,74,72,1,,,,,,,,
,,,,,,,,,,,,,FF,,,,,,,,1.116,,,,,,,,,,,,,,,,,,,,,,60fc66800ccfce9c74ed4f3d,61036b3764e6c768e90c3358,2021-07-29_23h02.31.736,Simcolourproject_2stim_asymm_v5,2020.2.10,MacIntel,60,61025ae37ef11b136ea224fe,,,,,,,,,2235,-71,-31,1,0,0,response5disk,,2,6,3,1,0,0,rectangle,6,3,1,0,0,6,3,1,0,0,0,75,75,111,1,,,,,,,,
,,,,,,,,,,,,,FF,,,,,,,,0.699,,,,,,,,,,,,,,,,,,,,,,60fc66800ccfce9c74ed4f3d,61036b3764e6c768e90c3358,2021-07-29_23h02.31.736,Simcolourproject_2stim_asymm_v5,2020.2.10,MacIntel,60,61025ae37ef11b136ea224fe,,,,,,,,,2421,-60,-30,1,0,0,response5disk,,2,-3,-7,1,0,0,rectangle,-3,-7,1,0,0,-3,-7,1,0,0,0,76,76,65,1,,,,,,,,
,,,,,,,,,,,,,FF,,,,,,,,1.249,,,,,,,,,,,,,,,,,,,,,,60fc66800ccfce9c74ed4f3d,61036b3764e6c768e90c3358,2021-07-29_23h02.31.736,Simcolourproject_2stim_asymm_v5,2020.2.10,MacIntel,60,61025ae37ef11b136ea224fe,,,,,,,,,1855,86,29,1,0,0,response1disk,,6,8,7,1,0,0,rectangle,8,7,1,0,0,8,7,1,0,0,0,77,77,10,1,,,,,,,,
,,,,,,,,,,,,,FF,,,,,,,,2.266,,,,,,,,,,,,,,,,,,,,,,60fc66800ccfce9c74ed4f3d,61036b3764e6c768e90c3358,2021-07-29_23h02.31.736,Simcolourproject_2stim_asymm_v5,2020.2.10,MacIntel,60,61025ae37ef11b136ea224fe,,,,,,,,,1156,-32,-73,1,0,0,response5disk,,3,7,2,1,0,0,rectangle,7,2,1,0,0,7,2,1,0,0,0,78,78,74,1,,,,,,,,
,,,,,,,,,,,,,FF,,,,,,,,0.784,,,,,,,,,,,,,,,,,,,,,,60fc66800ccfce9c74ed4f3d,61036b3764e6c768e90c3358,2021-07-29_23h02.31.736,Simcolourproject_2stim_asymm_v5,2020.2.10,MacIntel,60,61025ae37ef11b136ea224fe,,,,,,,,,4136,62,-36,1,0,0,response3disk,,5,2,-9,1,0,0,rectangle,2,-9,1,0,0,2,-9,1,0,0,0,79,79,20,1,,,,,,,,
,,,,,,,,,,,,,FF,,,,,,,,1.084,,,,,,,,,,,,,,,,,,,,,,60fc66800ccfce9c74ed4f3d,61036b3764e6c768e90c3358,2021-07-29_23h02.31.736,Simcolourproject_2stim_asymm_v5,2020.2.10,MacIntel,60,61025ae37ef11b136ea224fe,,,,,,,,,3774,-40,-44,1,0,0,response5disk,,3,-12,7,1,0,0,rectangle,-12,7,1,0,0,-12,7,1,0,0,0,80,80,112,1,,,,,,,,
,,,,,,,,,,,,,FF,,,,,,,,0.683,,,,,,,,,,,,,,,,,,,,,,60fc66800ccfce9c74ed4f3d,61036b3764e6c768e90c3358,2021-07-29_23h02.31.736,Simcolourproject_2stim_asymm_v5,2020.2.10,MacIntel,60,61025ae37ef11b136ea224fe,,,,,,,,,909,-26,-66,1,0,0,response5disk,,3,-12,-3,1,0,0,rectangle,-12,-3,1,0,0,-12,-3,1,0,0,0,81,81,91,1,,,,,,,,
,,,,,,,,,,,,,FF,,,,,,,,0.917,,,,,,,,,,,,,,,,,,,,,,60fc66800ccfce9c74ed4f3d,61036b3764e6c768e90c3358,2021-07-29_23h02.31.736,Simcolourproject_2stim_asymm_v5,2020.2.10,MacIntel,60,61025ae37ef11b136ea224fe,,,,,,,,,2644,70,39,1,0,0,response1disk,,6,7,-1,1,0,0,rectangle,7,-1,1,0,0,7,-1,1,0,0,0,82,82,68,1,,,,,,,,
,,,,,,,,,,,,,FF,,,,,,,,1.45,,,,,,,,,,,,,,,,,,,,,,60fc66800ccfce9c74ed4f3d,61036b3764e6c768e90c3358,2021-07-29_23h02.31.736,Simcolourproject_2stim_asymm_v5,2020.2.10,MacIntel,60,61025ae37ef11b136ea224fe,,,,,,,,,1325,93,53,1,0,0,response1disk,,6,9,-9,1,0,0,rectangle,9,-9,1,0,0,9,-9,1,0,0,0,83,83,43,1,,,,,,,,
,,,,,,,,,,,,,FF,,,,,,,,0.716,,,,,,,,,,,,,,,,,,,,,,60fc66800ccfce9c74ed4f3d,61036b3764e6c768e90c3358,2021-07-29_23h02.31.736,Simcolourproject_2stim_asymm_v5,2020.2.10,MacIntel,60,61025ae37ef11b136ea224fe,,,,,,,,,1802,71,37,1,0,0,response1disk,,6,21,-1,1,0,0,rectangle,21,-1,1,0,0,21,-1,1,0,0,0,84,84,155,1,,,,,,,,
,,,,,,,,,,,,,FF,,,,,,,,0.9,,,,,,,,,,,,,,,,,,,,,,60fc66800ccfce9c74ed4f3d,61036b3764e6c768e90c3358,2021-07-29_23h02.31.736,Simcolourproject_2stim_asymm_v5,2020.2.10,MacIntel,60,61025ae37ef11b136ea224fe,,,,,,,,,994,52,-35,1,0,0,response3disk,,5,4,-2,1,0,0,rectangle,4,-2,1,0,0,4,-2,1,0,0,0,85,85,108,1,,,,,,,,
,,,,,,,,,,,,,FF,,,,,,,,0.8,,,,,,,,,,,,,,,,,,,,,,60fc66800ccfce9c74ed4f3d,61036b3764e6c768e90c3358,2021-07-29_23h02.31.736,Simcolourproject_2stim_asymm_v5,2020.2.10,MacIntel,60,61025ae37ef11b136ea224fe,,,,,,,,,2357,-35,-57,1,0,0,response5disk,,3,-15,-2,1,0,0,rectangle,-15,-2,1,0,0,-15,-2,1,0,0,0,86,86,90,1,,,,,,,,
,,,,,,,,,,,,,FF,,,,,,,,1.651,,,,,,,,,,,,,,,,,,,,,,60fc66800ccfce9c74ed4f3d,61036b3764e6c768e90c3358,2021-07-29_23h02.31.736,Simcolourproject_2stim_asymm_v5,2020.2.10,MacIntel,60,61025ae37ef11b136ea224fe,,,,,,,,,1856,80,58,1,0,0,response1disk,,6,20,12,1,0,0,rectangle,20,12,1,0,0,20,12,1,0,0,0,87,87,149,1,,,,,,,,
,,,,,,,,,,,,,FF,,,,,,,,1.217,,,,,,,,,,,,,,,,,,,,,,60fc66800ccfce9c74ed4f3d,61036b3764e6c768e90c3358,2021-07-29_23h02.31.736,Simcolourproject_2stim_asymm_v5,2020.2.10,MacIntel,60,61025ae37ef11b136ea224fe,,,,,,,,,2733,-35,-64,1,0,0,response5disk,,3,-2,5,1,0,0,rectangle,-2,5,1,0,0,-2,5,1,0,0,0,88,88,21,1,,,,,,,,
,,,,,,,,,,,,,FF,,,,,,,,1.333,,,,,,,,,,,,,,,,,,,,,,60fc66800ccfce9c74ed4f3d,61036b3764e6c768e90c3358,2021-07-29_23h02.31.736,Simcolourproject_2stim_asymm_v5,2020.2.10,MacIntel,60,61025ae37ef11b136ea224fe,,,,,,,,,2542,-68,26,1,0,0,response7disk,,1,-14,-4,1,0,0,rectangle,-14,-4,1,0,0,-14,-4,1,0,0,0,89,89,98,1,,,,,,,,
,,,,,,,,,,,,,FF,,,,,,,,0.85,,,,,,,,,,,,,,,,,,,,,,60fc66800ccfce9c74ed4f3d,61036b3764e6c768e90c3358,2021-07-29_23h02.31.736,Simcolourproject_2stim_asymm_v5,2020.2.10,MacIntel,60,61025ae37ef11b136ea224fe,,,,,,,,,3028,54,-25,1,0,0,response3disk,,5,4,-4,1,0,0,rectangle,4,-4,1,0,0,4,-4,1,0,0,0,90,90,104,1,,,,,,,,
,,,,,,,,,,,,,FF,,,,,,,,1.15,,,,,,,,,,,,,,,,,,,,,,60fc66800ccfce9c74ed4f3d,61036b3764e6c768e90c3358,2021-07-29_23h02.31.736,Simcolourproject_2stim_asymm_v5,2020.2.10,MacIntel,60,61025ae37ef11b136ea224fe,,,,,,,,,2577,78,65,1,0,0,response1disk,,6,13,7,1,0,0,rectangle,13,7,1,0,0,13,7,1,0,0,0,91,91,152,1,,,,,,,,
,,,,,,,,,,,,,FF,,,,,,,,0.833,,,,,,,,,,,,,,,,,,,,,,60fc66800ccfce9c74ed4f3d,61036b3764e6c768e90c3358,2021-07-29_23h02.31.736,Simcolourproject_2stim_asymm_v5,2020.2.10,MacIntel,60,61025ae37ef11b136ea224fe,,,,,,,,,670,39,55,1,0,0,response1disk,,7,21,-3,1,0,0,rectangle,21,-3,1,0,0,21,-3,1,0,0,0,92,92,121,1,,,,,,,,
,,,,,,,,,,,,,FF,,,,,,,,1.483,,,,,,,,,,,,,,,,,,,,,,60fc66800ccfce9c74ed4f3d,61036b3764e6c768e90c3358,2021-07-29_23h02.31.736,Simcolourproject_2stim_asymm_v5,2020.2.10,MacIntel,60,61025ae37ef11b136ea224fe,,,,,,,,,2548,-56,-30,1,0,0,response5disk,,2,1,-2,1,0,0,rectangle,1,-2,1,0,0,1,-2,1,0,0,0,93,93,38,1,,,,,,,,
,,,,,,,,,,,,,FF,,,,,,,,1.151,,,,,,,,,,,,,,,,,,,,,,60fc66800ccfce9c74ed4f3d,61036b3764e6c768e90c3358,2021-07-29_23h02.31.736,Simcolourproject_2stim_asymm_v5,2020.2.10,MacIntel,60,61025ae37ef11b136ea224fe,,,,,,,,,1656,76,29,1,0,0,response1disk,,6,13,7,1,0,0,rectangle,13,7,1,0,0,13,7,1,0,0,0,94,94,114,1,,,,,,,,
,,,,,,,,,,,,,FF,,,,,,,,0.9,,,,,,,,,,,,,,,,,,,,,,60fc66800ccfce9c74ed4f3d,61036b3764e6c768e90c3358,2021-07-29_23h02.31.736,Simcolourproject_2stim_asymm_v5,2020.2.10,MacIntel,60,61025ae37ef11b136ea224fe,,,,,,,,,245,42,-68,1,0,0,response3disk,,4,11,-1,1,0,0,rectangle,11,-1,1,0,0,11,-1,1,0,0,0,95,95,118,1,,,,,,,,
,,,,,,,,,,,,,FF,,,,,,,,0.901,,,,,,,,,,,,,,,,,,,,,,60fc66800ccfce9c74ed4f3d,61036b3764e6c768e90c3358,2021-07-29_23h02.31.736,Simcolourproject_2stim_asymm_v5,2020.2.10,MacIntel,60,61025ae37ef11b136ea224fe,,,,,,,,,2765,63,41,1,0,0,response1disk,,6,-1,0,1,0,0,rectangle,-1,0,1,0,0,-1,0,1,0,0,0,96,96,3,1,,,,,,,,
,,,,,,,,,,,,,FF,,,,,,,,1.05,,,,,,,,,,,,,,,,,,,,,,60fc66800ccfce9c74ed4f3d,61036b3764e6c768e90c3358,2021-07-29_23h02.31.736,Simcolourproject_2stim_asymm_v5,2020.2.10,MacIntel,60,61025ae37ef11b136ea224fe,,,,,,,,,4060,27,-64,1,0,0,response3disk,,4,11,3,1,0,0,rectangle,11,3,1,0,0,11,3,1,0,0,0,97,97,67,1,,,,,,,,
,,,,,,,,,,,,,FF,,,,,,,,0.901,,,,,,,,,,,,,,,,,,,,,,60fc66800ccfce9c74ed4f3d,61036b3764e6c768e90c3358,2021-07-29_23h02.31.736,Simcolourproject_2stim_asymm_v5,2020.2.10,MacIntel,60,61025ae37ef11b136ea224fe,,,,,,,,,2520,63,30,1,0,0,response1disk,,6,3,-9,1,0,0,rectangle,3,-9,1,0,0,3,-9,1,0,0,0,98,98,113,1,,,,,,,,
,,,,,,,,,,,,,FF,,,,,,,,0.817,,,,,,,,,,,,,,,,,,,,,,60fc66800ccfce9c74ed4f3d,61036b3764e6c768e90c3358,2021-07-29_23h02.31.736,Simcolourproject_2stim_asymm_v5,2020.2.10,MacIntel,60,61025ae37ef11b136ea224fe,,,,,,,,,1757,-67,-32,1,0,0,response5disk,,2,-7,6,1,0,0,rectangle,-7,6,1,0,0,-7,6,1,0,0,0,99,99,9,1,,,,,,,,
,,,,,,,,,,,,,FF,,,,,,,,1.084,,,,,,,,,,,,,,,,,,,,,,60fc66800ccfce9c74ed4f3d,61036b3764e6c768e90c3358,2021-07-29_23h02.31.736,Simcolourproject_2stim_asymm_v5,2020.2.10,MacIntel,60,61025ae37ef11b136ea224fe,,,,,,,,,1671,-38,-69,1,0,0,response5disk,,3,-23,-10,1,0,0,rectangle,-23,-10,1,0,0,-23,-10,1,0,0,0,100,100,89,1,,,,,,,,
,,,,,,,,,,,,,FF,,,,,,,,1.983,,,,,,,,,,,,,,,,,,,,,,60fc66800ccfce9c74ed4f3d,61036b3764e6c768e90c3358,2021-07-29_23h02.31.736,Simcolourproject_2stim_asymm_v5,2020.2.10,MacIntel,60,61025ae37ef11b136ea224fe,,,,,,,,,4071,-71,56,1,0,0,response7disk,,1,-18,0,1,0,0,rectangle,-18,0,1,0,0,-18,0,1,0,0,0,101,101,61,1,,,,,,,,
,,,,,,,,,,,,,FF,,,,,,,,1.133,,,,,,,,,,,,,,,,,,,,,,60fc66800ccfce9c74ed4f3d,61036b3764e6c768e90c3358,2021-07-29_23h02.31.736,Simcolourproject_2stim_asymm_v5,2020.2.10,MacIntel,60,61025ae37ef11b136ea224fe,,,,,,,,,586,43,76,1,0,0,response1disk,,7,23,8,1,0,0,rectangle,23,8,1,0,0,23,8,1,0,0,0,102,102,51,1,,,,,,,,
,,,,,,,,,,,,,FF,,,,,,,,1.185,,,,,,,,,,,,,,,,,,,,,,60fc66800ccfce9c74ed4f3d,61036b3764e6c768e90c3358,2021-07-29_23h02.31.736,Simcolourproject_2stim_asymm_v5,2020.2.10,MacIntel,60,61025ae37ef11b136ea224fe,,,,,,,,,2184,27,57,1,0,0,response1disk,,7,12,2,1,0,0,rectangle,12,2,1,0,0,12,2,1,0,0,0,103,103,87,1,,,,,,,,
,,,,,,,,,,,,,FF,,,,,,,,0.899,,,,,,,,,,,,,,,,,,,,,,60fc66800ccfce9c74ed4f3d,61036b3764e6c768e90c3358,2021-07-29_23h02.31.736,Simcolourproject_2stim_asymm_v5,2020.2.10,MacIntel,60,61025ae37ef11b136ea224fe,,,,,,,,,1069,-41,-63,1,0,0,response5disk,,3,-18,10,1,0,0,rectangle,-18,10,1,0,0,-18,10,1,0,0,0,104,104,23,1,,,,,,,,
,,,,,,,,,,,,,FF,,,,,,,,0.9,,,,,,,,,,,,,,,,,,,,,,60fc66800ccfce9c74ed4f3d,61036b3764e6c768e90c3358,2021-07-29_23h02.31.736,Simcolourproject_2stim_asymm_v5,2020.2.10,MacIntel,60,61025ae37ef11b136ea224fe,,,,,,,,,2905,34,-75,1,0,0,response3disk,,4,7,-4,1,0,0,rectangle,7,-4,1,0,0,7,-4,1,0,0,0,105,105,84,1,,,,,,,,
,,,,,,,,,,,,,FF,,,,,,,,0.9,,,,,,,,,,,,,,,,,,,,,,60fc66800ccfce9c74ed4f3d,61036b3764e6c768e90c3358,2021-07-29_23h02.31.736,Simcolourproject_2stim_asymm_v5,2020.2.10,MacIntel,60,61025ae37ef11b136ea224fe,,,,,,,,,1877,33,-61,1,0,0,response3disk,,4,13,-8,1,0,0,rectangle,13,-8,1,0,0,13,-8,1,0,0,0,106,106,156,1,,,,,,,,
,,,,,,,,,,,,,FF,,,,,,,,0.933,,,,,,,,,,,,,,,,,,,,,,60fc66800ccfce9c74ed4f3d,61036b3764e6c768e90c3358,2021-07-29_23h02.31.736,Simcolourproject_2stim_asymm_v5,2020.2.10,MacIntel,60,61025ae37ef11b136ea224fe,,,,,,,,,765,31,72,1,0,0,response1disk,,7,15,5,1,0,0,rectangle,15,5,1,0,0,15,5,1,0,0,0,107,107,117,1,,,,,,,,
,,,,,,,,,,,,,FF,,,,,,,,0.8,,,,,,,,,,,,,,,,,,,,,,60fc66800ccfce9c74ed4f3d,61036b3764e6c768e90c3358,2021-07-29_23h02.31.736,Simcolourproject_2stim_asymm_v5,2020.2.10,MacIntel,60,61025ae37ef11b136ea224fe,,,,,,,,,1771,55,-34,1,0,0,response3disk,,5,16,-14,1,0,0,rectangle,16,-14,1,0,0,16,-14,1,0,0,0,108,108,79,1,,,,,,,,
,,,,,,,,,,,,,FF,,,,,,,,0.901,,,,,,,,,,,,,,,,,,,,,,60fc66800ccfce9c74ed4f3d,61036b3764e6c768e90c3358,2021-07-29_23h02.31.736,Simcolourproject_2stim_asymm_v5,2020.2.10,MacIntel,60,61025ae37ef11b136ea224fe,,,,,,,,,812,-36,-64,1,0,0,response5disk,,3,-12,-10,1,0,0,rectangle,-12,-10,1,0,0,-12,-10,1,0,0,0,109,109,36,1,,,,,,,,
,,,,,,,,,,,,,FF,,,,,,,,0.984,,,,,,,,,,,,,,,,,,,,,,60fc66800ccfce9c74ed4f3d,61036b3764e6c768e90c3358,2021-07-29_23h02.31.736,Simcolourproject_2stim_asymm_v5,2020.2.10,MacIntel,60,61025ae37ef11b136ea224fe,,,,,,,,,3398,-35,-57,1,0,0,response5disk,,3,-9,-13,1,0,0,rectangle,-9,-13,1,0,0,-9,-13,1,0,0,0,110,110,48,1,,,,,,,,
,,,,,,,,,,,,,FF,,,,,,,,0.983,,,,,,,,,,,,,,,,,,,,,,60fc66800ccfce9c74ed4f3d,61036b3764e6c768e90c3358,2021-07-29_23h02.31.736,Simcolourproject_2stim_asymm_v5,2020.2.10,MacIntel,60,61025ae37ef11b136ea224fe,,,,,,,,,1160,71,39,1,0,0,response1disk,,6,9,5,1,0,0,rectangle,9,5,1,0,0,9,5,1,0,0,0,111,111,101,1,,,,,,,,
,,,,,,,,,,,,,FF,,,,,,,,1.133,,,,,,,,,,,,,,,,,,,,,,60fc66800ccfce9c74ed4f3d,61036b3764e6c768e90c3358,2021-07-29_23h02.31.736,Simcolourproject_2stim_asymm_v5,2020.2.10,MacIntel,60,61025ae37ef11b136ea224fe,,,,,,,,,2482,-63,-40,1,0,0,response5disk,,2,-9,-17,1,0,0,rectangle,-9,-17,1,0,0,-9,-17,1,0,0,0,112,112,35,1,,,,,,,,
,,,,,,,,,,,,,FF,,,,,,,,1.032,,,,,,,,,,,,,,,,,,,,,,60fc66800ccfce9c74ed4f3d,61036b3764e6c768e90c3358,2021-07-29_23h02.31.736,Simcolourproject_2stim_asymm_v5,2020.2.10,MacIntel,60,61025ae37ef11b136ea224fe,,,,,,,,,4192,73,-22,1,0,0,response3disk,,5,2,-16,1,0,0,rectangle,2,-16,1,0,0,2,-16,1,0,0,0,113,113,129,1,,,,,,,,
,,,,,,,,,,,,,FF,,,,,,,,1.116,,,,,,,,,,,,,,,,,,,,,,60fc66800ccfce9c74ed4f3d,61036b3764e6c768e90c3358,2021-07-29_23h02.31.736,Simcolourproject_2stim_asymm_v5,2020.2.10,MacIntel,60,61025ae37ef11b136ea224fe,,,,,,,,,4157,62,-27,1,0,0,response3disk,,5,6,0,1,0,0,rectangle,6,0,1,0,0,6,0,1,0,0,0,114,114,42,1,,,,,,,,
,,,,,,,,,,,,,FF,,,,,,,,0.834,,,,,,,,,,,,,,,,,,,,,,60fc66800ccfce9c74ed4f3d,61036b3764e6c768e90c3358,2021-07-29_23h02.31.736,Simcolourproject_2stim_asymm_v5,2020.2.10,MacIntel,60,61025ae37ef11b136ea224fe,,,,,,,,,1902,-32,-55,1,0,0,response5disk,,3,0,15,1,0,0,rectangle,0,15,1,0,0,0,15,1,0,0,0,115,115,50,1,,,,,,,,
,,,,,,,,,,,,,FF,,,,,,,,0.75,,,,,,,,,,,,,,,,,,,,,,60fc66800ccfce9c74ed4f3d,61036b3764e6c768e90c3358,2021-07-29_23h02.31.736,Simcolourproject_2stim_asymm_v5,2020.2.10,MacIntel,60,61025ae37ef11b136ea224fe,,,,,,,,,4053,-32,-47,1,0,0,response5disk,,3,-13,5,1,0,0,rectangle,-13,5,1,0,0,-13,5,1,0,0,0,116,116,95,1,,,,,,,,
,,,,,,,,,,,,,FF,,,,,,,,0.97,,,,,,,,,,,,,,,,,,,,,,60fc66800ccfce9c74ed4f3d,61036b3764e6c768e90c3358,2021-07-29_23h02.31.736,Simcolourproject_2stim_asymm_v5,2020.2.10,MacIntel,60,61025ae37ef11b136ea224fe,,,,,,,,,1170,41,71,1,0,0,response1disk,,7,27,9,1,0,0,rectangle,27,9,1,0,0,27,9,1,0,0,0,117,117,11,1,,,,,,,,
,,,,,,,,,,,,,FF,,,,,,,,1.016,,,,,,,,,,,,,,,,,,,,,,60fc66800ccfce9c74ed4f3d,61036b3764e6c768e90c3358,2021-07-29_23h02.31.736,Simcolourproject_2stim_asymm_v5,2020.2.10,MacIntel,60,61025ae37ef11b136ea224fe,,,,,,,,,2436,35,56,1,0,0,response1disk,,7,23,-1,1,0,0,rectangle,23,-1,1,0,0,23,-1,1,0,0,0,118,118,17,1,,,,,,,,
,,,,,,,,,,,,,FF,,,,,,,,0.883,,,,,,,,,,,,,,,,,,,,,,60fc66800ccfce9c74ed4f3d,61036b3764e6c768e90c3358,2021-07-29_23h02.31.736,Simcolourproject_2stim_asymm_v5,2020.2.10,MacIntel,60,61025ae37ef11b136ea224fe,,,,,,,,,4200,-58,31,1,0,0,response7disk,,1,-14,3,1,0,0,rectangle,-14,3,1,0,0,-14,3,1,0,0,0,119,119,109,1,,,,,,,,
,,,,,,,,,,,,,FF,,,,,,,,1.283,,,,,,,,,,,,,,,,,,,,,,60fc66800ccfce9c74ed4f3d,61036b3764e6c768e90c3358,2021-07-29_23h02.31.736,Simcolourproject_2stim_asymm_v5,2020.2.10,MacIntel,60,61025ae37ef11b136ea224fe,,,,,,,,,1146,57,-32,1,0,0,response3disk,,5,-4,-9,1,0,0,rectangle,-4,-9,1,0,0,-4,-9,1,0,0,0,120,120,66,1,,,,,,,,
,,,,,,,,,,,,,FF,,,,,,,,1.417,,,,,,,,,,,,,,,,,,,,,,60fc66800ccfce9c74ed4f3d,61036b3764e6c768e90c3358,2021-07-29_23h02.31.736,Simcolourproject_2stim_asymm_v5,2020.2.10,MacIntel,60,61025ae37ef11b136ea224fe,,,,,,,,,2100,-58,22,1,0,0,response7disk,,1,-11,13,1,0,0,rectangle,-11,13,1,0,0,-11,13,1,0,0,0,121,121,28,1,,,,,,,,
,,,,,,,,,,,,,FF,,,,,,,,1.034,,,,,,,,,,,,,,,,,,,,,,60fc66800ccfce9c74ed4f3d,61036b3764e6c768e90c3358,2021-07-29_23h02.31.736,Simcolourproject_2stim_asymm_v5,2020.2.10,MacIntel,60,61025ae37ef11b136ea224fe,,,,,,,,,929,58,-23,1,0,0,response3disk,,5,3,9,1,0,0,rectangle,3,9,1,0,0,3,9,1,0,0,0,122,122,55,1,,,,,,,,
,,,,,,,,,,,,,FF,,,,,,,,1.016,,,,,,,,,,,,,,,,,,,,,,60fc66800ccfce9c74ed4f3d,61036b3764e6c768e90c3358,2021-07-29_23h02.31.736,Simcolourproject_2stim_asymm_v5,2020.2.10,MacIntel,60,61025ae37ef11b136ea224fe,,,,,,,,,1826,-61,-28,1,0,0,response5disk,,2,2,3,1,0,0,rectangle,2,3,1,0,0,2,3,1,0,0,0,123,123,77,1,,,,,,,,
,,,,,,,,,,,,,FF,,,,,,,,1.201,,,,,,,,,,,,,,,,,,,,,,60fc66800ccfce9c74ed4f3d,61036b3764e6c768e90c3358,2021-07-29_23h02.31.736,Simcolourproject_2stim_asymm_v5,2020.2.10,MacIntel,60,61025ae37ef11b136ea224fe,,,,,,,,,3233,26,60,1,0,0,response1disk,,7,12,4,1,0,0,rectangle,12,4,1,0,0,12,4,1,0,0,0,124,124,137,1,,,,,,,,
,,,,,,,,,,,,,FF,,,,,,,,0.75,,,,,,,,,,,,,,,,,,,,,,60fc66800ccfce9c74ed4f3d,61036b3764e6c768e90c3358,2021-07-29_23h02.31.736,Simcolourproject_2stim_asymm_v5,2020.2.10,MacIntel,60,61025ae37ef11b136ea224fe,,,,,,,,,4202,60,32,1,0,0,response1disk,,6,20,9,1,0,0,rectangle,20,9,1,0,0,20,9,1,0,0,0,125,125,52,1,,,,,,,,
,,,,,,,,,,,,,FF,,,,,,,,0.817,,,,,,,,,,,,,,,,,,,,,,60fc66800ccfce9c74ed4f3d,61036b3764e6c768e90c3358,2021-07-29_23h02.31.736,Simcolourproject_2stim_asymm_v5,2020.2.10,MacIntel,60,61025ae37ef11b136ea224fe,,,,,,,,,2261,53,29,1,0,0,response1disk,,6,12,14,1,0,0,rectangle,12,14,1,0,0,12,14,1,0,0,0,126,126,157,1,,,,,,,,
,,,,,,,,,,,,,FF,,,,,,,,0.833,,,,,,,,,,,,,,,,,,,,,,60fc66800ccfce9c74ed4f3d,61036b3764e6c768e90c3358,2021-07-29_23h02.31.736,Simcolourproject_2stim_asymm_v5,2020.2.10,MacIntel,60,61025ae37ef11b136ea224fe,,,,,,,,,1264,30,74,1,0,0,response1disk,,7,10,10,1,0,0,rectangle,10,10,1,0,0,10,10,1,0,0,0,127,127,158,1,,,,,,,,
,,,,,,,,,,,,,FF,,,,,,,,0.783,,,,,,,,,,,,,,,,,,,,,,60fc66800ccfce9c74ed4f3d,61036b3764e6c768e90c3358,2021-07-29_23h02.31.736,Simcolourproject_2stim_asymm_v5,2020.2.10,MacIntel,60,61025ae37ef11b136ea224fe,,,,,,,,,3831,68,38,1,0,0,response1disk,,6,18,2,1,0,0,rectangle,18,2,1,0,0,18,2,1,0,0,0,128,128,115,1,,,,,,,,
,,,,,,,,,,,,,FF,,,,,,,,0.999,,,,,,,,,,,,,,,,,,,,,,60fc66800ccfce9c74ed4f3d,61036b3764e6c768e90c3358,2021-07-29_23h02.31.736,Simcolourproject_2stim_asymm_v5,2020.2.10,MacIntel,60,61025ae37ef11b136ea224fe,,,,,,,,,4352,-28,-55,1,0,0,response5disk,,3,1,3,1,0,0,rectangle,1,3,1,0,0,1,3,1,0,0,0,129,129,148,1,,,,,,,,
,,,,,,,,,,,,,FF,,,,,,,,1.549,,,,,,,,,,,,,,,,,,,,,,60fc66800ccfce9c74ed4f3d,61036b3764e6c768e90c3358,2021-07-29_23h02.31.736,Simcolourproject_2stim_asymm_v5,2020.2.10,MacIntel,60,61025ae37ef11b136ea224fe,,,,,,,,,1263,44,-30,1,0,0,response3disk,,5,20,-8,1,0,0,rectangle,20,-8,1,0,0,20,-8,1,0,0,0,130,130,18,1,,,,,,,,
,,,,,,,,,,,,,FF,,,,,,,,0.583,,,,,,,,,,,,,,,,,,,,,,60fc66800ccfce9c74ed4f3d,61036b3764e6c768e90c3358,2021-07-29_23h02.31.736,Simcolourproject_2stim_asymm_v5,2020.2.10,MacIntel,60,61025ae37ef11b136ea224fe,,,,,,,,,1403,47,-37,1,0,0,response3disk,,5,23,-6,1,0,0,rectangle,23,-6,1,0,0,23,-6,1,0,0,0,131,131,97,1,,,,,,,,
,,,,,,,,,,,,,FF,,,,,,,,1.484,,,,,,,,,,,,,,,,,,,,,,60fc66800ccfce9c74ed4f3d,61036b3764e6c768e90c3358,2021-07-29_23h02.31.736,Simcolourproject_2stim_asymm_v5,2020.2.10,MacIntel,60,61025ae37ef11b136ea224fe,,,,,,,,,1194,23,-66,1,0,0,response3disk,,4,7,-10,1,0,0,rectangle,7,-10,1,0,0,7,-10,1,0,0,0,132,132,49,1,,,,,,,,
,,,,,,,,,,,,,FF,,,,,,,,0.65,,,,,,,,,,,,,,,,,,,,,,60fc66800ccfce9c74ed4f3d,61036b3764e6c768e90c3358,2021-07-29_23h02.31.736,Simcolourproject_2stim_asymm_v5,2020.2.10,MacIntel,60,61025ae37ef11b136ea224fe,,,,,,,,,3506,26,-54,1,0,0,response3disk,,4,13,-1,1,0,0,rectangle,13,-1,1,0,0,13,-1,1,0,0,0,133,133,140,1,,,,,,,,
,,,,,,,,,,,,,FF,,,,,,,,0.699,,,,,,,,,,,,,,,,,,,,,,60fc66800ccfce9c74ed4f3d,61036b3764e6c768e90c3358,2021-07-29_23h02.31.736,Simcolourproject_2stim_asymm_v5,2020.2.10,MacIntel,60,61025ae37ef11b136ea224fe,,,,,,,,,766,78,41,1,0,0,response1disk,,6,16,0,1,0,0,rectangle,52,-37,1,0,0,18,-5,1,0,0,0,134,134,102,1,,response3disk_3,TRUE,5,5,"[33,149,135,260,139,48,303,8,222,63,64,141,250,307,240,23,191,218,33,44]",1.383,rectangle
,,,,,,,,,,,,,FF,,,,,,,,1.067,,,,,,,,,,,,,,,,,,,,,,60fc66800ccfce9c74ed4f3d,61036b3764e6c768e90c3358,2021-07-29_23h02.31.736,Simcolourproject_2stim_asymm_v5,2020.2.10,MacIntel,60,61025ae37ef11b136ea224fe,,,,,,,,,1305,-60,-38,1,0,0,response5disk,,2,-22,-9,1,0,0,rectangle,-22,-9,1,0,0,-22,-9,1,0,0,0,135,135,143,1,,,,,,,,
,,,,,,,,,,,,,FF,,,,,,,,0.85,,,,,,,,,,,,,,,,,,,,,,60fc66800ccfce9c74ed4f3d,61036b3764e6c768e90c3358,2021-07-29_23h02.31.736,Simcolourproject_2stim_asymm_v5,2020.2.10,MacIntel,60,61025ae37ef11b136ea224fe,,,,,,,,,1277,54,-28,1,0,0,response3disk,,5,5,-16,1,0,0,rectangle,5,-16,1,0,0,5,-16,1,0,0,0,136,136,22,1,,,,,,,,
,,,,,,,,,,,,,FF,,,,,,,,0.767,,,,,,,,,,,,,,,,,,,,,,60fc66800ccfce9c74ed4f3d,61036b3764e6c768e90c3358,2021-07-29_23h02.31.736,Simcolourproject_2stim_asymm_v5,2020.2.10,MacIntel,60,61025ae37ef11b136ea224fe,,,,,,,,,1097,36,63,1,0,0,response1disk,,7,13,11,1,0,0,rectangle,13,11,1,0,0,13,11,1,0,0,0,137,137,30,1,,,,,,,,
,,,,,,,,,,,,,FF,,,,,,,,0.85,,,,,,,,,,,,,,,,,,,,,,60fc66800ccfce9c74ed4f3d,61036b3764e6c768e90c3358,2021-07-29_23h02.31.736,Simcolourproject_2stim_asymm_v5,2020.2.10,MacIntel,60,61025ae37ef11b136ea224fe,,,,,,,,,3283,-35,-54,1,0,0,response5disk,,3,-3,5,1,0,0,rectangle,-74,-36,1,0,0,3,-2,1,0,0,0,138,138,29,1,,response5disk_3,TRUE,2,2,"[33,149,135,260,139,48,303,8,222,63,64,141,250,307,240,23,191,218,33,44]",1.282,rectangle
,,,,,,,,,,,,,FF,,,,,,,,0.767,,,,,,,,,,,,,,,,,,,,,,60fc66800ccfce9c74ed4f3d,61036b3764e6c768e90c3358,2021-07-29_23h02.31.736,Simcolourproject_2stim_asymm_v5,2020.2.10,MacIntel,60,61025ae37ef11b136ea224fe,,,,,,,,,2365,-27,-61,1,0,0,response5disk,,3,-5,-2,1,0,0,rectangle,-5,-2,1,0,0,-5,-2,1,0,0,0,139,139,131,1,,,,,,,,
,,,,,,,,,,,,,FF,,,,,,,,1.251,,,,,,,,,,,,,,,,,,,,,,60fc66800ccfce9c74ed4f3d,61036b3764e6c768e90c3358,2021-07-29_23h02.31.736,Simcolourproject_2stim_asymm_v5,2020.2.10,MacIntel,60,61025ae37ef11b136ea224fe,,,,,,,,,762,61,-32,1,0,0,response3disk,,5,-3,8,1,0,0,rectangle,-35,71,1,0,0,-5,4,1,0,0,0,140,140,4,1,,response7disk_3,TRUE,0,0,"[33,149,135,260,139,48,303,8,222,63,64,141,250,307,240,23,191,218,33,44]",1.484,rectangle
,,,,,,,,,,,,,FF,,,,,,,,1.266,,,,,,,,,,,,,,,,,,,,,,60fc66800ccfce9c74ed4f3d,61036b3764e6c768e90c3358,2021-07-29_23h02.31.736,Simcolourproject_2stim_asymm_v5,2020.2.10,MacIntel,60,61025ae37ef11b136ea224fe,,,,,,,,,2249,31,-61,1,0,0,response3disk,,4,6,-5,1,0,0,rectangle,6,-5,1,0,0,6,-5,1,0,0,0,141,141,25,1,,,,,,,,
,,,,,,,,,,,,,FF,,,,,,,,2.117,,,,,,,,,,,,,,,,,,,,,,60fc66800ccfce9c74ed4f3d,61036b3764e6c768e90c3358,2021-07-29_23h02.31.736,Simcolourproject_2stim_asymm_v5,2020.2.10,MacIntel,60,61025ae37ef11b136ea224fe,,,,,,,,,2584,58,-29,1,0,0,response3disk,,5,23,4,1,0,0,rectangle,23,4,1,0,0,23,4,1,0,0,0,142,142,146,1,,,,,,,,
,,,,,,,,,,,,,FF,,,,,,,,1.083,,,,,,,,,,,,,,,,,,,,,,60fc66800ccfce9c74ed4f3d,61036b3764e6c768e90c3358,2021-07-29_23h02.31.736,Simcolourproject_2stim_asymm_v5,2020.2.10,MacIntel,60,61025ae37ef11b136ea224fe,,,,,,,,,544,-36,-70,1,0,0,response5disk,,3,-3,-6,1,0,0,rectangle,-3,-6,1,0,0,-3,-6,1,0,0,0,143,143,126,1,,,,,,,,
,,,,,,,,,,,,,FF,,,,,,,,1.033,,,,,,,,,,,,,,,,,,,,,,60fc66800ccfce9c74ed4f3d,61036b3764e6c768e90c3358,2021-07-29_23h02.31.736,Simcolourproject_2stim_asymm_v5,2020.2.10,MacIntel,60,61025ae37ef11b136ea224fe,,,,,,,,,171,-72,-32,1,0,0,response5disk,,2,21,4,1,0,0,rectangle,21,4,1,0,0,21,4,1,0,0,0,144,144,59,1,,,,,,,,
,,,,,,,,,,,,,FF,,,,,,,,0.65,,,,,,,,,,,,,,,,,,,,,,60fc66800ccfce9c74ed4f3d,61036b3764e6c768e90c3358,2021-07-29_23h02.31.736,Simcolourproject_2stim_asymm_v5,2020.2.10,MacIntel,60,61025ae37ef11b136ea224fe,,,,,,,,,3007,-77,-38,1,0,0,response5disk,,2,-3,-7,1,0,0,rectangle,-3,-7,1,0,0,-3,-7,1,0,0,0,145,145,83,1,,,,,,,,
,,,,,,,,,,,,,FF,,,,,,,,0.832,,,,,,,,,,,,,,,,,,,,,,60fc66800ccfce9c74ed4f3d,61036b3764e6c768e90c3358,2021-07-29_23h02.31.736,Simcolourproject_2stim_asymm_v5,2020.2.10,MacIntel,60,61025ae37ef11b136ea224fe,,,,,,,,,1339,57,-27,1,0,0,response3disk,,5,4,-6,1,0,0,rectangle,4,-6,1,0,0,4,-6,1,0,0,0,146,146,19,1,,,,,,,,
,,,,,,,,,,,,,FF,,,,,,,,1.015,,,,,,,,,,,,,,,,,,,,,,60fc66800ccfce9c74ed4f3d,61036b3764e6c768e90c3358,2021-07-29_23h02.31.736,Simcolourproject_2stim_asymm_v5,2020.2.10,MacIntel,60,61025ae37ef11b136ea224fe,,,,,,,,,935,22,-58,1,0,0,response3disk,,4,7,-12,1,0,0,rectangle,7,-12,1,0,0,7,-12,1,0,0,0,147,147,16,1,,,,,,,,
,,,,,,,,,,,,,FF,,,,,,,,0.616,,,,,,,,,,,,,,,,,,,,,,60fc66800ccfce9c74ed4f3d,61036b3764e6c768e90c3358,2021-07-29_23h02.31.736,Simcolourproject_2stim_asymm_v5,2020.2.10,MacIntel,60,61025ae37ef11b136ea224fe,,,,,,,,,3301,23,-42,1,0,0,response3disk,,4,9,-7,1,0,0,rectangle,57,30,1,0,0,12,-4,1,0,0,0,148,148,94,1,,response1disk_3,TRUE,6,6,"[33,149,135,260,139,48,303,8,222,63,64,141,250,307,240,23,191,218,33,44]",1.316,rectangle
,,,,,,,,,,,,,FF,,,,,,,,0.734,,,,,,,,,,,,,,,,,,,,,,60fc66800ccfce9c74ed4f3d,61036b3764e6c768e90c3358,2021-07-29_23h02.31.736,Simcolourproject_2stim_asymm_v5,2020.2.10,MacIntel,60,61025ae37ef11b136ea224fe,,,,,,,,,3332,-32,-54,1,0,0,response5disk,,3,7,6,1,0,0,rectangle,7,6,1,0,0,7,6,1,0,0,0,149,149,153,1,,,,,,,,
,,,,,,,,,,,,,FF,,,,,,,,0.633,,,,,,,,,,,,,,,,,,,,,,60fc66800ccfce9c74ed4f3d,61036b3764e6c768e90c3358,2021-07-29_23h02.31.736,Simcolourproject_2stim_asymm_v5,2020.2.10,MacIntel,60,61025ae37ef11b136ea224fe,,,,,,,,,2634,65,-32,1,0,0,response3disk,,5,18,2,1,0,0,rectangle,18,2,1,0,0,18,2,1,0,0,0,150,150,76,1,,,,,,,,
,,,,,,,,,,,,,FF,,,,,,,,0.949,,,,,,,,,,,,,,,,,,,,,,60fc66800ccfce9c74ed4f3d,61036b3764e6c768e90c3358,2021-07-29_23h02.31.736,Simcolourproject_2stim_asymm_v5,2020.2.10,MacIntel,60,61025ae37ef11b136ea224fe,,,,,,,,,3984,24,65,1,0,0,response1disk,,7,8,-3,1,0,0,rectangle,8,-3,1,0,0,8,-3,1,0,0,0,151,151,116,1,,,,,,,,
,,,,,,,,,,,,,FF,,,,,,,,0.766,,,,,,,,,,,,,,,,,,,,,,60fc66800ccfce9c74ed4f3d,61036b3764e6c768e90c3358,2021-07-29_23h02.31.736,Simcolourproject_2stim_asymm_v5,2020.2.10,MacIntel,60,61025ae37ef11b136ea224fe,,,,,,,,,914,43,-23,1,0,0,response3disk,,5,16,-4,1,0,0,rectangle,16,-4,1,0,0,16,-4,1,0,0,0,152,152,136,1,,,,,,,,
,,,,,,,,,,,,,FF,,,,,,,,0.617,,,,,,,,,,,,,,,,,,,,,,60fc66800ccfce9c74ed4f3d,61036b3764e6c768e90c3358,2021-07-29_23h02.31.736,Simcolourproject_2stim_asymm_v5,2020.2.10,MacIntel,60,61025ae37ef11b136ea224fe,,,,,,,,,3258,44,-40,1,0,0,response3disk,,5,15,5,1,0,0,rectangle,15,5,1,0,0,15,5,1,0,0,0,153,153,34,1,,,,,,,,
,,,,,,,,,,,,,FF,,,,,,,,0.867,,,,,,,,,,,,,,,,,,,,,,60fc66800ccfce9c74ed4f3d,61036b3764e6c768e90c3358,2021-07-29_23h02.31.736,Simcolourproject_2stim_asymm_v5,2020.2.10,MacIntel,60,61025ae37ef11b136ea224fe,,,,,,,,,2435,31,-66,1,0,0,response3disk,,4,17,-13,1,0,0,rectangle,17,-13,1,0,0,17,-13,1,0,0,0,154,154,147,1,,,,,,,,
,,,,,,,,,,,,,FF,,,,,,,,1.184,,,,,,,,,,,,,,,,,,,,,,60fc66800ccfce9c74ed4f3d,61036b3764e6c768e90c3358,2021-07-29_23h02.31.736,Simcolourproject_2stim_asymm_v5,2020.2.10,MacIntel,60,61025ae37ef11b136ea224fe,,,,,,,,,482,29,-57,1,0,0,response3disk,,4,18,-8,1,0,0,rectangle,18,-8,1,0,0,18,-8,1,0,0,0,155,155,106,1,,,,,,,,
,,,,,,,,,,,,,FF,,,,,,,,0.718,,,,,,,,,,,,,,,,,,,,,,60fc66800ccfce9c74ed4f3d,61036b3764e6c768e90c3358,2021-07-29_23h02.31.736,Simcolourproject_2stim_asymm_v5,2020.2.10,MacIntel,60,61025ae37ef11b136ea224fe,,,,,,,,,966,56,29,1,0,0,response1disk,,6,13,3,1,0,0,rectangle,13,3,1,0,0,13,3,1,0,0,0,156,156,44,1,,,,,,,,
,,,,,,,,,,,,,FF,,,,,,,,0.667,,,,,,,,,,,,,,,,,,,,,,60fc66800ccfce9c74ed4f3d,61036b3764e6c768e90c3358,2021-07-29_23h02.31.736,Simcolourproject_2stim_asymm_v5,2020.2.10,MacIntel,60,61025ae37ef11b136ea224fe,,,,,,,,,2974,59,-37,1,0,0,response3disk,,5,12,-14,1,0,0,rectangle,12,-14,1,0,0,12,-14,1,0,0,0,157,157,133,1,,,,,,,,
,,,,,,,,,,,,,FF,,,,,,,,0.999,,,,,,,,,,,,,,,,,,,,,,60fc66800ccfce9c74ed4f3d,61036b3764e6c768e90c3358,2021-07-29_23h02.31.736,Simcolourproject_2stim_asymm_v5,2020.2.10,MacIntel,60,61025ae37ef11b136ea224fe,,,,,,,,,2611,-24,-56,1,0,0,response5disk,,3,-7,-7,1,0,0,rectangle,-7,-7,1,0,0,-7,-7,1,0,0,0,158,158,124,1,,,,,,,,
,,,,,,,,,,,,,FF,,,,,,,,0.751,,,,,,,,,,,,,,,,,,,,,,60fc66800ccfce9c74ed4f3d,61036b3764e6c768e90c3358,2021-07-29_23h02.31.736,Simcolourproject_2stim_asymm_v5,2020.2.10,MacIntel,60,61025ae37ef11b136ea224fe,,,,,,,,,2524,46,-34,1,0,0,response3disk,,5,8,-4,1,0,0,rectangle,8,-4,1,0,0,8,-4,1,0,0,0,159,159,123,1,,,,,,,,
,,,,,,,,,,,,,FF,,,,,,,,0.9,,,,,,,,,,,,,,,,,,,,,,60fc66800ccfce9c74ed4f3d,61036b3764e6c768e90c3358,2021-07-29_23h02.31.736,Simcolourproject_2stim_asymm_v5,2020.2.10,MacIntel,60,61025ae37ef11b136ea224fe,,,,,,,,,2355,-47,39,1,0,0,response7disk,,1,0,4,1,0,0,rectangle,0,4,1,0,0,0,4,1,0,0,1,0,160,35,1,,,,,,,,
,,,,,,,,,,,,,FF,,,,,,,,0.884,,,,,,,,,,,,,,,,,,,,,,60fc66800ccfce9c74ed4f3d,61036b3764e6c768e90c3358,2021-07-29_23h02.31.736,Simcolourproject_2stim_asymm_v5,2020.2.10,MacIntel,60,61025ae37ef11b136ea224fe,,,,,,,,,3480,-56,-34,1,0,0,response5disk,,2,5,-4,1,0,0,rectangle,5,-4,1,0,0,5,-4,1,0,0,1,1,161,43,1,,,,,,,,
,,,,,,,,,,,,,FF,,,,,,,,0.651,,,,,,,,,,,,,,,,,,,,,,60fc66800ccfce9c74ed4f3d,61036b3764e6c768e90c3358,2021-07-29_23h02.31.736,Simcolourproject_2stim_asymm_v5,2020.2.10,MacIntel,60,61025ae37ef11b136ea224fe,,,,,,,,,814,-21,-50,1,0,0,response5disk,,3,-4,-7,1,0,0,rectangle,-4,-7,1,0,0,-4,-7,1,0,0,1,2,162,20,1,,,,,,,,
,,,,,,,,,,,,,FF,,,,,,,,0.715,,,,,,,,,,,,,,,,,,,,,,60fc66800ccfce9c74ed4f3d,61036b3764e6c768e90c3358,2021-07-29_23h02.31.736,Simcolourproject_2stim_asymm_v5,2020.2.10,MacIntel,60,61025ae37ef11b136ea224fe,,,,,,,,,2506,70,55,1,0,0,response1disk,,6,11,7,1,0,0,rectangle,11,7,1,0,0,11,7,1,0,0,1,3,163,9,1,,,,,,,,
,,,,,,,,,,,,,FF,,,,,,,,1.017,,,,,,,,,,,,,,,,,,,,,,60fc66800ccfce9c74ed4f3d,61036b3764e6c768e90c3358,2021-07-29_23h02.31.736,Simcolourproject_2stim_asymm_v5,2020.2.10,MacIntel,60,61025ae37ef11b136ea224fe,,,,,,,,,1906,29,-77,1,0,0,response3disk,,4,12,-14,1,0,0,rectangle,12,-14,1,0,0,12,-14,1,0,0,1,4,164,157,1,,,,,,,,
,,,,,,,,,,,,,FF,,,,,,,,1.151,,,,,,,,,,,,,,,,,,,,,,60fc66800ccfce9c74ed4f3d,61036b3764e6c768e90c3358,2021-07-29_23h02.31.736,Simcolourproject_2stim_asymm_v5,2020.2.10,MacIntel,60,61025ae37ef11b136ea224fe,,,,,,,,,158,31,-62,1,0,0,response3disk,,4,10,1,1,0,0,rectangle,10,1,1,0,0,10,1,1,0,0,1,5,165,145,1,,,,,,,,
,,,,,,,,,,,,,FF,,,,,,,,0.649,,,,,,,,,,,,,,,,,,,,,,60fc66800ccfce9c74ed4f3d,61036b3764e6c768e90c3358,2021-07-29_23h02.31.736,Simcolourproject_2stim_asymm_v5,2020.2.10,MacIntel,60,61025ae37ef11b136ea224fe,,,,,,,,,648,-44,-72,1,0,0,response5disk,,3,-6,-15,1,0,0,rectangle,-6,-15,1,0,0,-6,-15,1,0,0,1,6,166,74,1,,,,,,,,
,,,,,,,,,,,,,FF,,,,,,,,0.618,,,,,,,,,,,,,,,,,,,,,,60fc66800ccfce9c74ed4f3d,61036b3764e6c768e90c3358,2021-07-29_23h02.31.736,Simcolourproject_2stim_asymm_v5,2020.2.10,MacIntel,60,61025ae37ef11b136ea224fe,,,,,,,,,1691,-62,-36,1,0,0,response5disk,,2,-12,-11,1,0,0,rectangle,-12,-11,1,0,0,-12,-11,1,0,0,1,7,167,39,1,,,,,,,,
,,,,,,,,,,,,,FF,,,,,,,,1.116,,,,,,,,,,,,,,,,,,,,,,60fc66800ccfce9c74ed4f3d,61036b3764e6c768e90c3358,2021-07-29_23h02.31.736,Simcolourproject_2stim_asymm_v5,2020.2.10,MacIntel,60,61025ae37ef11b136ea224fe,,,,,,,,,36,60,-30,1,0,0,response3disk,,5,8,-8,1,0,0,rectangle,8,-8,1,0,0,8,-8,1,0,0,1,8,168,122,1,,,,,,,,
,,,,,,,,,,,,,FF,,,,,,,,0.934,,,,,,,,,,,,,,,,,,,,,,60fc66800ccfce9c74ed4f3d,61036b3764e6c768e90c3358,2021-07-29_23h02.31.736,Simcolourproject_2stim_asymm_v5,2020.2.10,MacIntel,60,61025ae37ef11b136ea224fe,,,,,,,,,1629,40,-35,1,0,0,response3disk,,5,6,-2,1,0,0,rectangle,6,-2,1,0,0,6,-2,1,0,0,1,9,169,137,1,,,,,,,,
,,,,,,,,,,,,,FF,,,,,,,,1,,,,,,,,,,,,,,,,,,,,,,60fc66800ccfce9c74ed4f3d,61036b3764e6c768e90c3358,2021-07-29_23h02.31.736,Simcolourproject_2stim_asymm_v5,2020.2.10,MacIntel,60,61025ae37ef11b136ea224fe,,,,,,,,,301,68,37,1,0,0,response1disk,,6,14,-11,1,0,0,rectangle,14,-11,1,0,0,14,-11,1,0,0,1,10,170,142,1,,,,,,,,
,,,,,,,,,,,,,FF,,,,,,,,0.734,,,,,,,,,,,,,,,,,,,,,,60fc66800ccfce9c74ed4f3d,61036b3764e6c768e90c3358,2021-07-29_23h02.31.736,Simcolourproject_2stim_asymm_v5,2020.2.10,MacIntel,60,61025ae37ef11b136ea224fe,,,,,,,,,1131,-38,54,1,0,0,response7disk,,0,-8,1,1,0,0,rectangle,-8,1,1,0,0,-8,1,1,0,0,1,11,171,49,1,,,,,,,,
,,,,,,,,,,,,,FF,,,,,,,,1.55,,,,,,,,,,,,,,,,,,,,,,60fc66800ccfce9c74ed4f3d,61036b3764e6c768e90c3358,2021-07-29_23h02.31.736,Simcolourproject_2stim_asymm_v5,2020.2.10,MacIntel,60,61025ae37ef11b136ea224fe,,,,,,,,,3893,40,66,1,0,0,response1disk,,7,24,-6,1,0,0,rectangle,24,-6,1,0,0,24,-6,1,0,0,1,12,172,88,1,,,,,,,,
,,,,,,,,,,,,,FF,,,,,,,,1.217,,,,,,,,,,,,,,,,,,,,,,60fc66800ccfce9c74ed4f3d,61036b3764e6c768e90c3358,2021-07-29_23h02.31.736,Simcolourproject_2stim_asymm_v5,2020.2.10,MacIntel,60,61025ae37ef11b136ea224fe,,,,,,,,,3361,58,26,1,0,0,response1disk,,6,20,-3,1,0,0,rectangle,20,-3,1,0,0,20,-3,1,0,0,1,13,173,58,1,,,,,,,,
,,,,,,,,,,,,,FF,,,,,,,,1.25,,,,,,,,,,,,,,,,,,,,,,60fc66800ccfce9c74ed4f3d,61036b3764e6c768e90c3358,2021-07-29_23h02.31.736,Simcolourproject_2stim_asymm_v5,2020.2.10,MacIntel,60,61025ae37ef11b136ea224fe,,,,,,,,,908,30,-64,1,0,0,response3disk,,4,13,-16,1,0,0,rectangle,13,-16,1,0,0,13,-16,1,0,0,1,14,174,123,1,,,,,,,,
,,,,,,,,,,,,,FF,,,,,,,,0.783,,,,,,,,,,,,,,,,,,,,,,60fc66800ccfce9c74ed4f3d,61036b3764e6c768e90c3358,2021-07-29_23h02.31.736,Simcolourproject_2stim_asymm_v5,2020.2.10,MacIntel,60,61025ae37ef11b136ea224fe,,,,,,,,,1139,26,-46,1,0,0,response3disk,,4,13,-9,1,0,0,rectangle,13,-9,1,0,0,13,-9,1,0,0,1,15,175,140,1,,,,,,,,
,,,,,,,,,,,,,FF,,,,,,,,0.751,,,,,,,,,,,,,,,,,,,,,,60fc66800ccfce9c74ed4f3d,61036b3764e6c768e90c3358,2021-07-29_23h02.31.736,Simcolourproject_2stim_asymm_v5,2020.2.10,MacIntel,60,61025ae37ef11b136ea224fe,,,,,,,,,730,-22,-64,1,0,0,response5disk,,3,2,-10,1,0,0,rectangle,2,-10,1,0,0,2,-10,1,0,0,1,16,176,147,1,,,,,,,,
,,,,,,,,,,,,,FF,,,,,,,,1.016,,,,,,,,,,,,,,,,,,,,,,60fc66800ccfce9c74ed4f3d,61036b3764e6c768e90c3358,2021-07-29_23h02.31.736,Simcolourproject_2stim_asymm_v5,2020.2.10,MacIntel,60,61025ae37ef11b136ea224fe,,,,,,,,,3912,25,-77,1,0,0,response3disk,,4,6,-13,1,0,0,rectangle,6,-13,1,0,0,6,-13,1,0,0,1,17,177,69,1,,,,,,,,
,,,,,,,,,,,,,FF,,,,,,,,1.399,,,,,,,,,,,,,,,,,,,,,,60fc66800ccfce9c74ed4f3d,61036b3764e6c768e90c3358,2021-07-29_23h02.31.736,Simcolourproject_2stim_asymm_v5,2020.2.10,MacIntel,60,61025ae37ef11b136ea224fe,,,,,,,,,4362,-37,56,1,0,0,response7disk,,0,-32,-12,1,0,0,rectangle,-32,-12,1,0,0,-32,-12,1,0,0,1,18,178,93,1,,,,,,,,
,,,,,,,,,,,,,FF,,,,,,,,1.133,,,,,,,,,,,,,,,,,,,,,,60fc66800ccfce9c74ed4f3d,61036b3764e6c768e90c3358,2021-07-29_23h02.31.736,Simcolourproject_2stim_asymm_v5,2020.2.10,MacIntel,60,61025ae37ef11b136ea224fe,,,,,,,,,2697,41,-70,1,0,0,response3disk,,4,21,-7,1,0,0,rectangle,21,-7,1,0,0,21,-7,1,0,0,1,19,179,102,1,,,,,,,,
,,,,,,,,,,,,,FF,,,,,,,,0.9,,,,,,,,,,,,,,,,,,,,,,60fc66800ccfce9c74ed4f3d,61036b3764e6c768e90c3358,2021-07-29_23h02.31.736,Simcolourproject_2stim_asymm_v5,2020.2.10,MacIntel,60,61025ae37ef11b136ea224fe,,,,,,,,,297,52,-29,1,0,0,response3disk,,5,8,6,1,0,0,rectangle,8,6,1,0,0,8,6,1,0,0,1,20,180,24,1,,,,,,,,
,,,,,,,,,,,,,FF,,,,,,,,0.651,,,,,,,,,,,,,,,,,,,,,,60fc66800ccfce9c74ed4f3d,61036b3764e6c768e90c3358,2021-07-29_23h02.31.736,Simcolourproject_2stim_asymm_v5,2020.2.10,MacIntel,60,61025ae37ef11b136ea224fe,,,,,,,,,1268,51,-34,1,0,0,response3disk,,5,-3,-2,1,0,0,rectangle,-3,-2,1,0,0,-3,-2,1,0,0,1,21,181,42,1,,,,,,,,
,,,,,,,,,,,,,FF,,,,,,,,0.966,,,,,,,,,,,,,,,,,,,,,,60fc66800ccfce9c74ed4f3d,61036b3764e6c768e90c3358,2021-07-29_23h02.31.736,Simcolourproject_2stim_asymm_v5,2020.2.10,MacIntel,60,61025ae37ef11b136ea224fe,,,,,,,,,712,30,-59,1,0,0,response3disk,,4,7,7,1,0,0,rectangle,7,7,1,0,0,7,7,1,0,0,1,22,182,72,1,,,,,,,,
,,,,,,,,,,,,,FF,,,,,,,,0.699,,,,,,,,,,,,,,,,,,,,,,60fc66800ccfce9c74ed4f3d,61036b3764e6c768e90c3358,2021-07-29_23h02.31.736,Simcolourproject_2stim_asymm_v5,2020.2.10,MacIntel,60,61025ae37ef11b136ea224fe,,,,,,,,,3734,27,-55,1,0,0,response3disk,,4,11,-9,1,0,0,rectangle,11,-9,1,0,0,11,-9,1,0,0,1,23,183,129,1,,,,,,,,
,,,,,,,,,,,,,FF,,,,,,,,0.701,,,,,,,,,,,,,,,,,,,,,,60fc66800ccfce9c74ed4f3d,61036b3764e6c768e90c3358,2021-07-29_23h02.31.736,Simcolourproject_2stim_asymm_v5,2020.2.10,MacIntel,60,61025ae37ef11b136ea224fe,,,,,,,,,3807,33,-58,1,0,0,response3disk,,4,12,0,1,0,0,rectangle,12,0,1,0,0,12,0,1,0,0,1,24,184,78,1,,,,,,,,
,,,,,,,,,,,,,FF,,,,,,,,1.3,,,,,,,,,,,,,,,,,,,,,,60fc66800ccfce9c74ed4f3d,61036b3764e6c768e90c3358,2021-07-29_23h02.31.736,Simcolourproject_2stim_asymm_v5,2020.2.10,MacIntel,60,61025ae37ef11b136ea224fe,,,,,,,,,271,71,-36,1,0,0,response3disk,,5,-8,-6,1,0,0,rectangle,-8,-6,1,0,0,-8,-6,1,0,0,1,25,185,141,1,,,,,,,,
,,,,,,,,,,,,,FF,,,,,,,,0.883,,,,,,,,,,,,,,,,,,,,,,60fc66800ccfce9c74ed4f3d,61036b3764e6c768e90c3358,2021-07-29_23h02.31.736,Simcolourproject_2stim_asymm_v5,2020.2.10,MacIntel,60,61025ae37ef11b136ea224fe,,,,,,,,,1164,28,-58,1,0,0,response3disk,,4,12,-14,1,0,0,rectangle,12,-14,1,0,0,12,-14,1,0,0,1,26,186,45,1,,,,,,,,
,,,,,,,,,,,,,FF,,,,,,,,0.752,,,,,,,,,,,,,,,,,,,,,,60fc66800ccfce9c74ed4f3d,61036b3764e6c768e90c3358,2021-07-29_23h02.31.736,Simcolourproject_2stim_asymm_v5,2020.2.10,MacIntel,60,61025ae37ef11b136ea224fe,,,,,,,,,514,63,43,1,0,0,response1disk,,6,12,4,1,0,0,rectangle,12,4,1,0,0,12,4,1,0,0,1,27,187,85,1,,,,,,,,
,,,,,,,,,,,,,FF,,,,,,,,0.884,,,,,,,,,,,,,,,,,,,,,,60fc66800ccfce9c74ed4f3d,61036b3764e6c768e90c3358,2021-07-29_23h02.31.736,Simcolourproject_2stim_asymm_v5,2020.2.10,MacIntel,60,61025ae37ef11b136ea224fe,,,,,,,,,2809,61,38,1,0,0,response1disk,,6,27,14,1,0,0,rectangle,27,14,1,0,0,27,14,1,0,0,1,28,188,52,1,,,,,,,,
,,,,,,,,,,,,,FF,,,,,,,,0.933,,,,,,,,,,,,,,,,,,,,,,60fc66800ccfce9c74ed4f3d,61036b3764e6c768e90c3358,2021-07-29_23h02.31.736,Simcolourproject_2stim_asymm_v5,2020.2.10,MacIntel,60,61025ae37ef11b136ea224fe,,,,,,,,,3644,40,-62,1,0,0,response3disk,,4,28,1,1,0,0,rectangle,28,1,1,0,0,28,1,1,0,0,1,29,189,31,1,,,,,,,,
,,,,,,,,,,,,,FF,,,,,,,,0.816,,,,,,,,,,,,,,,,,,,,,,60fc66800ccfce9c74ed4f3d,61036b3764e6c768e90c3358,2021-07-29_23h02.31.736,Simcolourproject_2stim_asymm_v5,2020.2.10,MacIntel,60,61025ae37ef11b136ea224fe,,,,,,,,,685,56,33,1,0,0,response1disk,,6,19,9,1,0,0,rectangle,-77,36,1,0,0,-6,16,1,0,0,1,30,190,104,1,,response7disk_3,TRUE,1,1,"[33,149,135,260,139,48,303,8,222,63,64,141,250,307,240,23,191,218,33,44]",1.182,rectangle
,,,,,,,,,,,,,FF,,,,,,,,0.816,,,,,,,,,,,,,,,,,,,,,,60fc66800ccfce9c74ed4f3d,61036b3764e6c768e90c3358,2021-07-29_23h02.31.736,Simcolourproject_2stim_asymm_v5,2020.2.10,MacIntel,60,61025ae37ef11b136ea224fe,,,,,,,,,3918,48,-32,1,0,0,response3disk,,5,1,-11,1,0,0,rectangle,1,-11,1,0,0,1,-11,1,0,0,1,31,191,154,1,,,,,,,,
,,,,,,,,,,,,,FF,,,,,,,,0.784,,,,,,,,,,,,,,,,,,,,,,60fc66800ccfce9c74ed4f3d,61036b3764e6c768e90c3358,2021-07-29_23h02.31.736,Simcolourproject_2stim_asymm_v5,2020.2.10,MacIntel,60,61025ae37ef11b136ea224fe,,,,,,,,,2886,-43,56,1,0,0,response7disk,,0,-23,-9,1,0,0,rectangle,-23,-9,1,0,0,-23,-9,1,0,0,1,32,192,48,1,,,,,,,,
,,,,,,,,,,,,,FF,,,,,,,,1.066,,,,,,,,,,,,,,,,,,,,,,60fc66800ccfce9c74ed4f3d,61036b3764e6c768e90c3358,2021-07-29_23h02.31.736,Simcolourproject_2stim_asymm_v5,2020.2.10,MacIntel,60,61025ae37ef11b136ea224fe,,,,,,,,,3609,49,-35,1,0,0,response3disk,,5,3,1,1,0,0,rectangle,3,1,1,0,0,3,1,1,0,0,1,33,193,105,1,,,,,,,,
,,,,,,,,,,,,,FF,,,,,,,,0.984,,,,,,,,,,,,,,,,,,,,,,60fc66800ccfce9c74ed4f3d,61036b3764e6c768e90c3358,2021-07-29_23h02.31.736,Simcolourproject_2stim_asymm_v5,2020.2.10,MacIntel,60,61025ae37ef11b136ea224fe,,,,,,,,,2306,28,-73,1,0,0,response3disk,,4,7,-2,1,0,0,rectangle,7,-2,1,0,0,7,-2,1,0,0,1,34,194,56,1,,,,,,,,
,,,,,,,,,,,,,FF,,,,,,,,0.567,,,,,,,,,,,,,,,,,,,,,,60fc66800ccfce9c74ed4f3d,61036b3764e6c768e90c3358,2021-07-29_23h02.31.736,Simcolourproject_2stim_asymm_v5,2020.2.10,MacIntel,60,61025ae37ef11b136ea224fe,,,,,,,,,168,38,-62,1,0,0,response3disk,,4,13,-3,1,0,0,rectangle,13,-3,1,0,0,13,-3,1,0,0,1,35,195,13,1,,,,,,,,
,,,,,,,,,,,,,FF,,,,,,,,0.818,,,,,,,,,,,,,,,,,,,,,,60fc66800ccfce9c74ed4f3d,61036b3764e6c768e90c3358,2021-07-29_23h02.31.736,Simcolourproject_2stim_asymm_v5,2020.2.10,MacIntel,60,61025ae37ef11b136ea224fe,,,,,,,,,1851,79,19,1,0,0,response1disk,,6,14,-3,1,0,0,rectangle,14,-3,1,0,0,14,-3,1,0,0,1,36,196,62,1,,,,,,,,
,,,,,,,,,,,,,FF,,,,,,,,0.666,,,,,,,,,,,,,,,,,,,,,,60fc66800ccfce9c74ed4f3d,61036b3764e6c768e90c3358,2021-07-29_23h02.31.736,Simcolourproject_2stim_asymm_v5,2020.2.10,MacIntel,60,61025ae37ef11b136ea224fe,,,,,,,,,3678,-30,-49,1,0,0,response5disk,,3,-4,-6,1,0,0,rectangle,-4,-6,1,0,0,-4,-6,1,0,0,1,37,197,61,1,,,,,,,,
,,,,,,,,,,,,,FF,,,,,,,,0.716,,,,,,,,,,,,,,,,,,,,,,60fc66800ccfce9c74ed4f3d,61036b3764e6c768e90c3358,2021-07-29_23h02.31.736,Simcolourproject_2stim_asymm_v5,2020.2.10,MacIntel,60,61025ae37ef11b136ea224fe,,,,,,,,,1870,56,31,1,0,0,response1disk,,6,14,-6,1,0,0,rectangle,14,-6,1,0,0,14,-6,1,0,0,1,38,198,108,1,,,,,,,,
,,,,,,,,,,,,,FF,,,,,,,,0.751,,,,,,,,,,,,,,,,,,,,,,60fc66800ccfce9c74ed4f3d,61036b3764e6c768e90c3358,2021-07-29_23h02.31.736,Simcolourproject_2stim_asymm_v5,2020.2.10,MacIntel,60,61025ae37ef11b136ea224fe,,,,,,,,,2299,-66,-25,1,0,0,response5disk,,2,-10,-17,1,0,0,rectangle,-10,-17,1,0,0,-10,-17,1,0,0,1,39,199,136,1,,,,,,,,
,,,,,,,,,,,,,FF,,,,,,,,0.684,,,,,,,,,,,,,,,,,,,,,,60fc66800ccfce9c74ed4f3d,61036b3764e6c768e90c3358,2021-07-29_23h02.31.736,Simcolourproject_2stim_asymm_v5,2020.2.10,MacIntel,60,61025ae37ef11b136ea224fe,,,,,,,,,2741,62,19,1,0,0,response1disk,,6,-4,-10,1,0,0,rectangle,-4,-10,1,0,0,-4,-10,1,0,0,1,40,200,131,1,,,,,,,,
,,,,,,,,,,,,,FF,,,,,,,,0.684,,,,,,,,,,,,,,,,,,,,,,60fc66800ccfce9c74ed4f3d,61036b3764e6c768e90c3358,2021-07-29_23h02.31.736,Simcolourproject_2stim_asymm_v5,2020.2.10,MacIntel,60,61025ae37ef11b136ea224fe,,,,,,,,,2274,41,66,1,0,0,response1disk,,7,23,-4,1,0,0,rectangle,23,-4,1,0,0,23,-4,1,0,0,1,41,201,149,1,,,,,,,,
,,,,,,,,,,,,,FF,,,,,,,,0.518,,,,,,,,,,,,,,,,,,,,,,60fc66800ccfce9c74ed4f3d,61036b3764e6c768e90c3358,2021-07-29_23h02.31.736,Simcolourproject_2stim_asymm_v5,2020.2.10,MacIntel,60,61025ae37ef11b136ea224fe,,,,,,,,,684,73,35,1,0,0,response1disk,,6,19,0,1,0,0,rectangle,19,0,1,0,0,19,0,1,0,0,1,42,202,84,1,,,,,,,,
,,,,,,,,,,,,,FF,,,,,,,,0.567,,,,,,,,,,,,,,,,,,,,,,60fc66800ccfce9c74ed4f3d,61036b3764e6c768e90c3358,2021-07-29_23h02.31.736,Simcolourproject_2stim_asymm_v5,2020.2.10,MacIntel,60,61025ae37ef11b136ea224fe,,,,,,,,,3312,58,-35,1,0,0,response3disk,,5,15,2,1,0,0,rectangle,15,2,1,0,0,15,2,1,0,0,1,43,203,148,1,,,,,,,,
,,,,,,,,,,,,,FF,,,,,,,,0.999,,,,,,,,,,,,,,,,,,,,,,60fc66800ccfce9c74ed4f3d,61036b3764e6c768e90c3358,2021-07-29_23h02.31.736,Simcolourproject_2stim_asymm_v5,2020.2.10,MacIntel,60,61025ae37ef11b136ea224fe,,,,,,,,,3813,32,-61,1,0,0,response3disk,,4,3,-6,1,0,0,rectangle,3,-6,1,0,0,3,-6,1,0,0,1,44,204,19,1,,,,,,,,
,,,,,,,,,,,,,FF,,,,,,,,0.9,,,,,,,,,,,,,,,,,,,,,,60fc66800ccfce9c74ed4f3d,61036b3764e6c768e90c3358,2021-07-29_23h02.31.736,Simcolourproject_2stim_asymm_v5,2020.2.10,MacIntel,60,61025ae37ef11b136ea224fe,,,,,,,,,2030,-32,-78,1,0,0,response5disk,,3,-2,15,1,0,0,rectangle,-2,15,1,0,0,-2,15,1,0,0,1,45,205,75,1,,,,,,,,
,,,,,,,,,,,,,FF,,,,,,,,0.616,,,,,,,,,,,,,,,,,,,,,,60fc66800ccfce9c74ed4f3d,61036b3764e6c768e90c3358,2021-07-29_23h02.31.736,Simcolourproject_2stim_asymm_v5,2020.2.10,MacIntel,60,61025ae37ef11b136ea224fe,,,,,,,,,2860,66,-31,1,0,0,response3disk,,5,-1,-4,1,0,0,rectangle,-1,-4,1,0,0,-1,-4,1,0,0,1,46,206,10,1,,,,,,,,
,,,,,,,,,,,,,FF,,,,,,,,0.717,,,,,,,,,,,,,,,,,,,,,,60fc66800ccfce9c74ed4f3d,61036b3764e6c768e90c3358,2021-07-29_23h02.31.736,Simcolourproject_2stim_asymm_v5,2020.2.10,MacIntel,60,61025ae37ef11b136ea224fe,,,,,,,,,2734,-37,-70,1,0,0,response5disk,,3,-6,1,1,0,0,rectangle,-6,1,1,0,0,-6,1,1,0,0,1,47,207,125,1,,,,,,,,
,,,,,,,,,,,,,FF,,,,,,,,0.816,,,,,,,,,,,,,,,,,,,,,,60fc66800ccfce9c74ed4f3d,61036b3764e6c768e90c3358,2021-07-29_23h02.31.736,Simcolourproject_2stim_asymm_v5,2020.2.10,MacIntel,60,61025ae37ef11b136ea224fe,,,,,,,,,3691,76,16,1,0,0,response1disk,,6,-7,-16,1,0,0,rectangle,-7,-16,1,0,0,-7,-16,1,0,0,1,48,208,121,1,,,,,,,,
,,,,,,,,,,,,,FF,,,,,,,,0.816,,,,,,,,,,,,,,,,,,,,,,60fc66800ccfce9c74ed4f3d,61036b3764e6c768e90c3358,2021-07-29_23h02.31.736,Simcolourproject_2stim_asymm_v5,2020.2.10,MacIntel,60,61025ae37ef11b136ea224fe,,,,,,,,,2168,23,-61,1,0,0,response3disk,,4,-2,-13,1,0,0,rectangle,-2,-13,1,0,0,-2,-13,1,0,0,1,49,209,112,1,,,,,,,,
,,,,,,,,,,,,,FF,,,,,,,,0.666,,,,,,,,,,,,,,,,,,,,,,60fc66800ccfce9c74ed4f3d,61036b3764e6c768e90c3358,2021-07-29_23h02.31.736,Simcolourproject_2stim_asymm_v5,2020.2.10,MacIntel,60,61025ae37ef11b136ea224fe,,,,,,,,,3277,45,65,1,0,0,response1disk,,7,26,12,1,0,0,rectangle,26,12,1,0,0,26,12,1,0,0,1,50,210,119,1,,,,,,,,
,,,,,,,,,,,,,FF,,,,,,,,0.701,,,,,,,,,,,,,,,,,,,,,,60fc66800ccfce9c74ed4f3d,61036b3764e6c768e90c3358,2021-07-29_23h02.31.736,Simcolourproject_2stim_asymm_v5,2020.2.10,MacIntel,60,61025ae37ef11b136ea224fe,,,,,,,,,1732,56,-25,1,0,0,response3disk,,5,1,11,1,0,0,rectangle,1,11,1,0,0,1,11,1,0,0,1,51,211,29,1,,,,,,,,
,,,,,,,,,,,,,FF,,,,,,,,0.684,,,,,,,,,,,,,,,,,,,,,,60fc66800ccfce9c74ed4f3d,61036b3764e6c768e90c3358,2021-07-29_23h02.31.736,Simcolourproject_2stim_asymm_v5,2020.2.10,MacIntel,60,61025ae37ef11b136ea224fe,,,,,,,,,2408,56,-40,1,0,0,response3disk,,5,-7,7,1,0,0,rectangle,-7,7,1,0,0,-7,7,1,0,0,1,52,212,118,1,,,,,,,,
,,,,,,,,,,,,,FF,,,,,,,,0.933,,,,,,,,,,,,,,,,,,,,,,60fc66800ccfce9c74ed4f3d,61036b3764e6c768e90c3358,2021-07-29_23h02.31.736,Simcolourproject_2stim_asymm_v5,2020.2.10,MacIntel,60,61025ae37ef11b136ea224fe,,,,,,,,,2806,58,26,1,0,0,response1disk,,6,5,3,1,0,0,rectangle,5,3,1,0,0,5,3,1,0,0,1,53,213,1,1,,,,,,,,
,,,,,,,,,,,,,FF,,,,,,,,0.9,,,,,,,,,,,,,,,,,,,,,,60fc66800ccfce9c74ed4f3d,61036b3764e6c768e90c3358,2021-07-29_23h02.31.736,Simcolourproject_2stim_asymm_v5,2020.2.10,MacIntel,60,61025ae37ef11b136ea224fe,,,,,,,,,1103,32,73,1,0,0,response1disk,,7,19,8,1,0,0,rectangle,19,8,1,0,0,19,8,1,0,0,1,54,214,155,1,,,,,,,,
,,,,,,,,,,,,,FF,,,,,,,,0.782,,,,,,,,,,,,,,,,,,,,,,60fc66800ccfce9c74ed4f3d,61036b3764e6c768e90c3358,2021-07-29_23h02.31.736,Simcolourproject_2stim_asymm_v5,2020.2.10,MacIntel,60,61025ae37ef11b136ea224fe,,,,,,,,,13,61,33,1,0,0,response1disk,,6,3,-13,1,0,0,rectangle,3,-13,1,0,0,3,-13,1,0,0,1,55,215,44,1,,,,,,,,
,,,,,,,,,,,,,FF,,,,,,,,1.149,,,,,,,,,,,,,,,,,,,,,,60fc66800ccfce9c74ed4f3d,61036b3764e6c768e90c3358,2021-07-29_23h02.31.736,Simcolourproject_2stim_asymm_v5,2020.2.10,MacIntel,60,61025ae37ef11b136ea224fe,,,,,,,,,556,-33,-72,1,0,0,response5disk,,3,-9,-16,1,0,0,rectangle,-9,-16,1,0,0,-9,-16,1,0,0,1,56,216,152,1,,,,,,,,
,,,,,,,,,,,,,FF,,,,,,,,0.8,,,,,,,,,,,,,,,,,,,,,,60fc66800ccfce9c74ed4f3d,61036b3764e6c768e90c3358,2021-07-29_23h02.31.736,Simcolourproject_2stim_asymm_v5,2020.2.10,MacIntel,60,61025ae37ef11b136ea224fe,,,,,,,,,3698,38,-64,1,0,0,response3disk,,4,1,-7,1,0,0,rectangle,-38,-76,1,0,0,-5,-10,1,0,0,1,57,217,21,1,,response5disk_3,TRUE,3,3,"[33,149,135,260,139,48,303,8,222,63,64,141,250,307,240,23,191,218,33,44]",1.584,rectangle
,,,,,,,,,,,,,FF,,,,,,,,0.982,,,,,,,,,,,,,,,,,,,,,,60fc66800ccfce9c74ed4f3d,61036b3764e6c768e90c3358,2021-07-29_23h02.31.736,Simcolourproject_2stim_asymm_v5,2020.2.10,MacIntel,60,61025ae37ef11b136ea224fe,,,,,,,,,3148,-62,-37,1,0,0,response5disk,,2,5,-6,1,0,0,rectangle,5,-6,1,0,0,5,-6,1,0,0,1,58,218,107,1,,,,,,,,
,,,,,,,,,,,,,FF,,,,,,,,0.617,,,,,,,,,,,,,,,,,,,,,,60fc66800ccfce9c74ed4f3d,61036b3764e6c768e90c3358,2021-07-29_23h02.31.736,Simcolourproject_2stim_asymm_v5,2020.2.10,MacIntel,60,61025ae37ef11b136ea224fe,,,,,,,,,3660,-72,-41,1,0,0,response5disk,,2,-16,-13,1,0,0,rectangle,-16,-13,1,0,0,-16,-13,1,0,0,1,59,219,98,1,,,,,,,,
,,,,,,,,,,,,,FF,,,,,,,,0.716,,,,,,,,,,,,,,,,,,,,,,60fc66800ccfce9c74ed4f3d,61036b3764e6c768e90c3358,2021-07-29_23h02.31.736,Simcolourproject_2stim_asymm_v5,2020.2.10,MacIntel,60,61025ae37ef11b136ea224fe,,,,,,,,,540,58,30,1,0,0,response1disk,,6,13,-1,1,0,0,rectangle,13,-1,1,0,0,13,-1,1,0,0,1,60,220,115,1,,,,,,,,
,,,,,,,,,,,,,FF,,,,,,,,0.718,,,,,,,,,,,,,,,,,,,,,,60fc66800ccfce9c74ed4f3d,61036b3764e6c768e90c3358,2021-07-29_23h02.31.736,Simcolourproject_2stim_asymm_v5,2020.2.10,MacIntel,60,61025ae37ef11b136ea224fe,,,,,,,,,577,35,-60,1,0,0,response3disk,,4,13,-1,1,0,0,rectangle,35,77,1,0,0,9,13,1,0,0,1,61,221,65,1,,response1disk_3,TRUE,7,7,"[33,149,135,260,139,48,303,8,222,63,64,141,250,307,240,23,191,218,33,44]",1.299,rectangle
,,,,,,,,,,,,,FF,,,,,,,,0.783,,,,,,,,,,,,,,,,,,,,,,60fc66800ccfce9c74ed4f3d,61036b3764e6c768e90c3358,2021-07-29_23h02.31.736,Simcolourproject_2stim_asymm_v5,2020.2.10,MacIntel,60,61025ae37ef11b136ea224fe,,,,,,,,,2952,34,-54,1,0,0,response3disk,,4,14,-4,1,0,0,rectangle,14,-4,1,0,0,14,-4,1,0,0,1,62,222,109,1,,,,,,,,
,,,,,,,,,,,,,FF,,,,,,,,0.533,,,,,,,,,,,,,,,,,,,,,,60fc66800ccfce9c74ed4f3d,61036b3764e6c768e90c3358,2021-07-29_23h02.31.736,Simcolourproject_2stim_asymm_v5,2020.2.10,MacIntel,60,61025ae37ef11b136ea224fe,,,,,,,,,3450,61,38,1,0,0,response1disk,,6,14,6,1,0,0,rectangle,14,6,1,0,0,14,6,1,0,0,1,63,223,30,1,,,,,,,,
,,,,,,,,,,,,,FF,,,,,,,,0.667,,,,,,,,,,,,,,,,,,,,,,60fc66800ccfce9c74ed4f3d,61036b3764e6c768e90c3358,2021-07-29_23h02.31.736,Simcolourproject_2stim_asymm_v5,2020.2.10,MacIntel,60,61025ae37ef11b136ea224fe,,,,,,,,,3200,-42,-72,1,0,0,response5disk,,3,-4,4,1,0,0,rectangle,-4,4,1,0,0,-4,4,1,0,0,1,64,224,27,1,,,,,,,,
,,,,,,,,,,,,,FF,,,,,,,,0.582,,,,,,,,,,,,,,,,,,,,,,60fc66800ccfce9c74ed4f3d,61036b3764e6c768e90c3358,2021-07-29_23h02.31.736,Simcolourproject_2stim_asymm_v5,2020.2.10,MacIntel,60,61025ae37ef11b136ea224fe,,,,,,,,,4295,-66,-22,1,0,0,response5disk,,2,-11,5,1,0,0,rectangle,-11,5,1,0,0,-11,5,1,0,0,1,65,225,90,1,,,,,,,,
,,,,,,,,,,,,,FF,,,,,,,,0.584,,,,,,,,,,,,,,,,,,,,,,60fc66800ccfce9c74ed4f3d,61036b3764e6c768e90c3358,2021-07-29_23h02.31.736,Simcolourproject_2stim_asymm_v5,2020.2.10,MacIntel,60,61025ae37ef11b136ea224fe,,,,,,,,,2163,-64,-36,1,0,0,response5disk,,2,-10,-9,1,0,0,rectangle,-10,-9,1,0,0,-10,-9,1,0,0,1,66,226,25,1,,,,,,,,
,,,,,,,,,,,,,FF,,,,,,,,0.783,,,,,,,,,,,,,,,,,,,,,,60fc66800ccfce9c74ed4f3d,61036b3764e6c768e90c3358,2021-07-29_23h02.31.736,Simcolourproject_2stim_asymm_v5,2020.2.10,MacIntel,60,61025ae37ef11b136ea224fe,,,,,,,,,1773,31,-61,1,0,0,response3disk,,4,-17,-1,1,0,0,rectangle,-17,-1,1,0,0,-17,-1,1,0,0,1,67,227,139,1,,,,,,,,
,,,,,,,,,,,,,FF,,,,,,,,1.101,,,,,,,,,,,,,,,,,,,,,,60fc66800ccfce9c74ed4f3d,61036b3764e6c768e90c3358,2021-07-29_23h02.31.736,Simcolourproject_2stim_asymm_v5,2020.2.10,MacIntel,60,61025ae37ef11b136ea224fe,,,,,,,,,4319,34,-57,1,0,0,response3disk,,4,7,-7,1,0,0,rectangle,7,-7,1,0,0,7,-7,1,0,0,1,68,228,86,1,,,,,,,,
,,,,,,,,,,,,,FF,,,,,,,,0.65,,,,,,,,,,,,,,,,,,,,,,60fc66800ccfce9c74ed4f3d,61036b3764e6c768e90c3358,2021-07-29_23h02.31.736,Simcolourproject_2stim_asymm_v5,2020.2.10,MacIntel,60,61025ae37ef11b136ea224fe,,,,,,,,,3509,55,-31,1,0,0,response3disk,,5,0,-6,1,0,0,rectangle,0,-6,1,0,0,0,-6,1,0,0,1,69,229,134,1,,,,,,,,
,,,,,,,,,,,,,FF,,,,,,,,0.651,,,,,,,,,,,,,,,,,,,,,,60fc66800ccfce9c74ed4f3d,61036b3764e6c768e90c3358,2021-07-29_23h02.31.736,Simcolourproject_2stim_asymm_v5,2020.2.10,MacIntel,60,61025ae37ef11b136ea224fe,,,,,,,,,1088,30,60,1,0,0,response1disk,,7,12,7,1,0,0,rectangle,12,7,1,0,0,12,7,1,0,0,1,70,230,116,1,,,,,,,,
,,,,,,,,,,,,,FF,,,,,,,,0.699,,,,,,,,,,,,,,,,,,,,,,60fc66800ccfce9c74ed4f3d,61036b3764e6c768e90c3358,2021-07-29_23h02.31.736,Simcolourproject_2stim_asymm_v5,2020.2.10,MacIntel,60,61025ae37ef11b136ea224fe,,,,,,,,,2279,50,27,1,0,0,response1disk,,6,18,-2,1,0,0,rectangle,18,-2,1,0,0,18,-2,1,0,0,1,71,231,3,1,,,,,,,,
,,,,,,,,,,,,,FF,,,,,,,,0.532,,,,,,,,,,,,,,,,,,,,,,60fc66800ccfce9c74ed4f3d,61036b3764e6c768e90c3358,2021-07-29_23h02.31.736,Simcolourproject_2stim_asymm_v5,2020.2.10,MacIntel,60,61025ae37ef11b136ea224fe,,,,,,,,,2403,54,27,1,0,0,response1disk,,6,10,2,1,0,0,rectangle,10,2,1,0,0,10,2,1,0,0,1,72,232,53,1,,,,,,,,
,,,,,,,,,,,,,FF,,,,,,,,0.983,,,,,,,,,,,,,,,,,,,,,,60fc66800ccfce9c74ed4f3d,61036b3764e6c768e90c3358,2021-07-29_23h02.31.736,Simcolourproject_2stim_asymm_v5,2020.2.10,MacIntel,60,61025ae37ef11b136ea224fe,,,,,,,,,2371,34,-69,1,0,0,response3disk,,4,25,-8,1,0,0,rectangle,25,-8,1,0,0,25,-8,1,0,0,1,73,233,33,1,,,,,,,,
,,,,,,,,,,,,,FF,,,,,,,,0.55,,,,,,,,,,,,,,,,,,,,,,60fc66800ccfce9c74ed4f3d,61036b3764e6c768e90c3358,2021-07-29_23h02.31.736,Simcolourproject_2stim_asymm_v5,2020.2.10,MacIntel,60,61025ae37ef11b136ea224fe,,,,,,,,,356,-33,-52,1,0,0,response5disk,,3,-13,-7,1,0,0,rectangle,-13,-7,1,0,0,-13,-7,1,0,0,1,74,234,70,1,,,,,,,,
,,,,,,,,,,,,,FF,,,,,,,,0.583,,,,,,,,,,,,,,,,,,,,,,60fc66800ccfce9c74ed4f3d,61036b3764e6c768e90c3358,2021-07-29_23h02.31.736,Simcolourproject_2stim_asymm_v5,2020.2.10,MacIntel,60,61025ae37ef11b136ea224fe,,,,,,,,,2235,-60,-21,1,0,0,response5disk,,2,8,-2,1,0,0,rectangle,8,-2,1,0,0,8,-2,1,0,0,1,75,235,106,1,,,,,,,,
,,,,,,,,,,,,,FF,,,,,,,,0.566,,,,,,,,,,,,,,,,,,,,,,60fc66800ccfce9c74ed4f3d,61036b3764e6c768e90c3358,2021-07-29_23h02.31.736,Simcolourproject_2stim_asymm_v5,2020.2.10,MacIntel,60,61025ae37ef11b136ea224fe,,,,,,,,,2421,-53,-29,1,0,0,response5disk,,2,-17,-14,1,0,0,rectangle,-17,-14,1,0,0,-17,-14,1,0,0,1,76,236,101,1,,,,,,,,
,,,,,,,,,,,,,FF,,,,,,,,0.649,,,,,,,,,,,,,,,,,,,,,,60fc66800ccfce9c74ed4f3d,61036b3764e6c768e90c3358,2021-07-29_23h02.31.736,Simcolourproject_2stim_asymm_v5,2020.2.10,MacIntel,60,61025ae37ef11b136ea224fe,,,,,,,,,1855,68,-37,1,0,0,response3disk,,5,9,-10,1,0,0,rectangle,9,-10,1,0,0,9,-10,1,0,0,1,77,237,55,1,,,,,,,,
,,,,,,,,,,,,,FF,,,,,,,,0.733,,,,,,,,,,,,,,,,,,,,,,60fc66800ccfce9c74ed4f3d,61036b3764e6c768e90c3358,2021-07-29_23h02.31.736,Simcolourproject_2stim_asymm_v5,2020.2.10,MacIntel,60,61025ae37ef11b136ea224fe,,,,,,,,,1156,-24,-55,1,0,0,response5disk,,3,1,3,1,0,0,rectangle,1,3,1,0,0,1,3,1,0,0,1,78,238,26,1,,,,,,,,
,,,,,,,,,,,,,FF,,,,,,,,0.899,,,,,,,,,,,,,,,,,,,,,,60fc66800ccfce9c74ed4f3d,61036b3764e6c768e90c3358,2021-07-29_23h02.31.736,Simcolourproject_2stim_asymm_v5,2020.2.10,MacIntel,60,61025ae37ef11b136ea224fe,,,,,,,,,4136,52,-30,1,0,0,response3disk,,5,17,0,1,0,0,rectangle,-68,-28,1,0,0,-18,-16,1,0,0,1,79,239,73,1,,response5disk_3,TRUE,2,2,"[33,149,135,260,139,48,303,8,222,63,64,141,250,307,240,23,191,218,33,44]",3.05,rectangle
,,,,,,,,,,,,,FF,,,,,,,,0.8,,,,,,,,,,,,,,,,,,,,,,60fc66800ccfce9c74ed4f3d,61036b3764e6c768e90c3358,2021-07-29_23h02.31.736,Simcolourproject_2stim_asymm_v5,2020.2.10,MacIntel,60,61025ae37ef11b136ea224fe,,,,,,,,,3774,-49,-30,1,0,0,response5disk,,2,-8,2,1,0,0,rectangle,-8,2,1,0,0,-8,2,1,0,0,1,80,240,2,1,,,,,,,,
,,,,,,,,,,,,,FF,,,,,,,,0.751,,,,,,,,,,,,,,,,,,,,,,60fc66800ccfce9c74ed4f3d,61036b3764e6c768e90c3358,2021-07-29_23h02.31.736,Simcolourproject_2stim_asymm_v5,2020.2.10,MacIntel,60,61025ae37ef11b136ea224fe,,,,,,,,,909,-31,-58,1,0,0,response5disk,,3,-6,1,1,0,0,rectangle,-6,1,1,0,0,-6,1,1,0,0,1,81,241,128,1,,,,,,,,
,,,,,,,,,,,,,FF,,,,,,,,0.75,,,,,,,,,,,,,,,,,,,,,,60fc66800ccfce9c74ed4f3d,61036b3764e6c768e90c3358,2021-07-29_23h02.31.736,Simcolourproject_2stim_asymm_v5,2020.2.10,MacIntel,60,61025ae37ef11b136ea224fe,,,,,,,,,2644,40,29,1,0,0,response1disk,,6,9,17,1,0,0,rectangle,9,17,1,0,0,9,17,1,0,0,1,82,242,111,1,,,,,,,,
,,,,,,,,,,,,,FF,,,,,,,,2.051,,,,,,,,,,,,,,,,,,,,,,60fc66800ccfce9c74ed4f3d,61036b3764e6c768e90c3358,2021-07-29_23h02.31.736,Simcolourproject_2stim_asymm_v5,2020.2.10,MacIntel,60,61025ae37ef11b136ea224fe,,,,,,,,,1325,66,-25,1,0,0,response3disk,,5,-1,-12,1,0,0,rectangle,-1,-12,1,0,0,-1,-12,1,0,0,1,83,243,144,1,,,,,,,,
,,,,,,,,,,,,,FF,,,,,,,,0.884,,,,,,,,,,,,,,,,,,,,,,60fc66800ccfce9c74ed4f3d,61036b3764e6c768e90c3358,2021-07-29_23h02.31.736,Simcolourproject_2stim_asymm_v5,2020.2.10,MacIntel,60,61025ae37ef11b136ea224fe,,,,,,,,,1802,75,35,1,0,0,response1disk,,6,30,1,1,0,0,rectangle,30,1,1,0,0,30,1,1,0,0,1,84,244,6,1,,,,,,,,
,,,,,,,,,,,,,FF,,,,,,,,1.033,,,,,,,,,,,,,,,,,,,,,,60fc66800ccfce9c74ed4f3d,61036b3764e6c768e90c3358,2021-07-29_23h02.31.736,Simcolourproject_2stim_asymm_v5,2020.2.10,MacIntel,60,61025ae37ef11b136ea224fe,,,,,,,,,994,63,-33,1,0,0,response3disk,,5,23,-6,1,0,0,rectangle,23,-6,1,0,0,23,-6,1,0,0,1,85,245,37,1,,,,,,,,
,,,,,,,,,,,,,FF,,,,,,,,1.416,,,,,,,,,,,,,,,,,,,,,,60fc66800ccfce9c74ed4f3d,61036b3764e6c768e90c3358,2021-07-29_23h02.31.736,Simcolourproject_2stim_asymm_v5,2020.2.10,MacIntel,60,61025ae37ef11b136ea224fe,,,,,,,,,2357,-26,-43,1,0,0,response5disk,,3,-9,-1,1,0,0,rectangle,-9,-1,1,0,0,-9,-1,1,0,0,1,86,246,76,1,,,,,,,,
,,,,,,,,,,,,,FF,,,,,,,,0.682,,,,,,,,,,,,,,,,,,,,,,60fc66800ccfce9c74ed4f3d,61036b3764e6c768e90c3358,2021-07-29_23h02.31.736,Simcolourproject_2stim_asymm_v5,2020.2.10,MacIntel,60,61025ae37ef11b136ea224fe,,,,,,,,,1856,69,-39,1,0,0,response3disk,,5,16,-5,1,0,0,rectangle,16,-5,1,0,0,16,-5,1,0,0,1,87,247,82,1,,,,,,,,
,,,,,,,,,,,,,FF,,,,,,,,0.666,,,,,,,,,,,,,,,,,,,,,,60fc66800ccfce9c74ed4f3d,61036b3764e6c768e90c3358,2021-07-29_23h02.31.736,Simcolourproject_2stim_asymm_v5,2020.2.10,MacIntel,60,61025ae37ef11b136ea224fe,,,,,,,,,2733,-34,-50,1,0,0,response5disk,,3,-7,-11,1,0,0,rectangle,-7,-11,1,0,0,-7,-11,1,0,0,1,88,248,38,1,,,,,,,,
,,,,,,,,,,,,,FF,,,,,,,,0.733,,,,,,,,,,,,,,,,,,,,,,60fc66800ccfce9c74ed4f3d,61036b3764e6c768e90c3358,2021-07-29_23h02.31.736,Simcolourproject_2stim_asymm_v5,2020.2.10,MacIntel,60,61025ae37ef11b136ea224fe,,,,,,,,,2542,-55,-18,1,0,0,response5disk,,2,-3,-6,1,0,0,rectangle,-25,-66,1,0,0,-6,-10,1,0,0,1,89,249,87,1,,response5disk_3,TRUE,3,3,"[33,149,135,260,139,48,303,8,222,63,64,141,250,307,240,23,191,218,33,44]",1.766,rectangle
,,,,,,,,,,,,,FF,,,,,,,,0.817,,,,,,,,,,,,,,,,,,,,,,60fc66800ccfce9c74ed4f3d,61036b3764e6c768e90c3358,2021-07-29_23h02.31.736,Simcolourproject_2stim_asymm_v5,2020.2.10,MacIntel,60,61025ae37ef11b136ea224fe,,,,,,,,,3028,26,-67,1,0,0,response3disk,,4,0,-10,1,0,0,rectangle,0,-10,1,0,0,0,-10,1,0,0,1,90,250,92,1,,,,,,,,
,,,,,,,,,,,,,FF,,,,,,,,1.033,,,,,,,,,,,,,,,,,,,,,,60fc66800ccfce9c74ed4f3d,61036b3764e6c768e90c3358,2021-07-29_23h02.31.736,Simcolourproject_2stim_asymm_v5,2020.2.10,MacIntel,60,61025ae37ef11b136ea224fe,,,,,,,,,2577,73,-39,1,0,0,response3disk,,5,6,-4,1,0,0,rectangle,6,-4,1,0,0,6,-4,1,0,0,1,91,251,79,1,,,,,,,,
,,,,,,,,,,,,,FF,,,,,,,,0.751,,,,,,,,,,,,,,,,,,,,,,60fc66800ccfce9c74ed4f3d,61036b3764e6c768e90c3358,2021-07-29_23h02.31.736,Simcolourproject_2stim_asymm_v5,2020.2.10,MacIntel,60,61025ae37ef11b136ea224fe,,,,,,,,,670,68,27,1,0,0,response1disk,,6,1,1,1,0,0,rectangle,1,1,1,0,0,1,1,1,0,0,1,92,252,5,1,,,,,,,,
,,,,,,,,,,,,,FF,,,,,,,,0.633,,,,,,,,,,,,,,,,,,,,,,60fc66800ccfce9c74ed4f3d,61036b3764e6c768e90c3358,2021-07-29_23h02.31.736,Simcolourproject_2stim_asymm_v5,2020.2.10,MacIntel,60,61025ae37ef11b136ea224fe,,,,,,,,,2548,-39,-53,1,0,0,response5disk,,3,-1,3,1,0,0,rectangle,-1,3,1,0,0,-1,3,1,0,0,1,93,253,66,1,,,,,,,,
,,,,,,,,,,,,,FF,,,,,,,,0.617,,,,,,,,,,,,,,,,,,,,,,60fc66800ccfce9c74ed4f3d,61036b3764e6c768e90c3358,2021-07-29_23h02.31.736,Simcolourproject_2stim_asymm_v5,2020.2.10,MacIntel,60,61025ae37ef11b136ea224fe,,,,,,,,,1656,63,-36,1,0,0,response3disk,,5,12,-11,1,0,0,rectangle,12,-11,1,0,0,12,-11,1,0,0,1,94,254,28,1,,,,,,,,
,,,,,,,,,,,,,FF,,,,,,,,0.783,,,,,,,,,,,,,,,,,,,,,,60fc66800ccfce9c74ed4f3d,61036b3764e6c768e90c3358,2021-07-29_23h02.31.736,Simcolourproject_2stim_asymm_v5,2020.2.10,MacIntel,60,61025ae37ef11b136ea224fe,,,,,,,,,245,32,-73,1,0,0,response3disk,,4,17,2,1,0,0,rectangle,17,2,1,0,0,17,2,1,0,0,1,95,255,114,1,,,,,,,,
,,,,,,,,,,,,,FF,,,,,,,,0.966,,,,,,,,,,,,,,,,,,,,,,60fc66800ccfce9c74ed4f3d,61036b3764e6c768e90c3358,2021-07-29_23h02.31.736,Simcolourproject_2stim_asymm_v5,2020.2.10,MacIntel,60,61025ae37ef11b136ea224fe,,,,,,,,,2765,76,29,1,0,0,response1disk,,6,16,0,1,0,0,rectangle,16,0,1,0,0,16,0,1,0,0,1,96,256,32,1,,,,,,,,
,,,,,,,,,,,,,FF,,,,,,,,0.716,,,,,,,,,,,,,,,,,,,,,,60fc66800ccfce9c74ed4f3d,61036b3764e6c768e90c3358,2021-07-29_23h02.31.736,Simcolourproject_2stim_asymm_v5,2020.2.10,MacIntel,60,61025ae37ef11b136ea224fe,,,,,,,,,4060,33,-54,1,0,0,response3disk,,4,19,-6,1,0,0,rectangle,19,-6,1,0,0,19,-6,1,0,0,1,97,257,99,1,,,,,,,,
,,,,,,,,,,,,,FF,,,,,,,,0.751,,,,,,,,,,,,,,,,,,,,,,60fc66800ccfce9c74ed4f3d,61036b3764e6c768e90c3358,2021-07-29_23h02.31.736,Simcolourproject_2stim_asymm_v5,2020.2.10,MacIntel,60,61025ae37ef11b136ea224fe,,,,,,,,,2520,44,72,1,0,0,response1disk,,7,19,8,1,0,0,rectangle,19,8,1,0,0,19,8,1,0,0,1,98,258,23,1,,,,,,,,
,,,,,,,,,,,,,FF,,,,,,,,0.65,,,,,,,,,,,,,,,,,,,,,,60fc66800ccfce9c74ed4f3d,61036b3764e6c768e90c3358,2021-07-29_23h02.31.736,Simcolourproject_2stim_asymm_v5,2020.2.10,MacIntel,60,61025ae37ef11b136ea224fe,,,,,,,,,1757,-71,-33,1,0,0,response5disk,,2,-16,14,1,0,0,rectangle,61,-38,1,0,0,10,-13,1,0,0,1,99,259,127,1,,response3disk_3,TRUE,5,5,"[33,149,135,260,139,48,303,8,222,63,64,141,250,307,240,23,191,218,33,44]",1.783,rectangle
,,,,,,,,,,,,,FF,,,,,,,,0.698,,,,,,,,,,,,,,,,,,,,,,60fc66800ccfce9c74ed4f3d,61036b3764e6c768e90c3358,2021-07-29_23h02.31.736,Simcolourproject_2stim_asymm_v5,2020.2.10,MacIntel,60,61025ae37ef11b136ea224fe,,,,,,,,,1671,-34,-57,1,0,0,response5disk,,3,-9,-14,1,0,0,rectangle,-9,-14,1,0,0,-9,-14,1,0,0,1,100,260,133,1,,,,,,,,
,,,,,,,,,,,,,FF,,,,,,,,0.933,,,,,,,,,,,,,,,,,,,,,,60fc66800ccfce9c74ed4f3d,61036b3764e6c768e90c3358,2021-07-29_23h02.31.736,Simcolourproject_2stim_asymm_v5,2020.2.10,MacIntel,60,61025ae37ef11b136ea224fe,,,,,,,,,4071,-41,63,1,0,0,response7disk,,0,-31,16,1,0,0,rectangle,-31,16,1,0,0,-31,16,1,0,0,1,101,261,8,1,,,,,,,,
,,,,,,,,,,,,,FF,,,,,,,,0.683,,,,,,,,,,,,,,,,,,,,,,60fc66800ccfce9c74ed4f3d,61036b3764e6c768e90c3358,2021-07-29_23h02.31.736,Simcolourproject_2stim_asymm_v5,2020.2.10,MacIntel,60,61025ae37ef11b136ea224fe,,,,,,,,,586,38,64,1,0,0,response1disk,,7,17,11,1,0,0,rectangle,17,11,1,0,0,17,11,1,0,0,1,102,262,103,1,,,,,,,,
,,,,,,,,,,,,,FF,,,,,,,,0.818,,,,,,,,,,,,,,,,,,,,,,60fc66800ccfce9c74ed4f3d,61036b3764e6c768e90c3358,2021-07-29_23h02.31.736,Simcolourproject_2stim_asymm_v5,2020.2.10,MacIntel,60,61025ae37ef11b136ea224fe,,,,,,,,,2184,26,50,1,0,0,response1disk,,7,22,7,1,0,0,rectangle,22,7,1,0,0,22,7,1,0,0,1,103,263,51,1,,,,,,,,
,,,,,,,,,,,,,FF,,,,,,,,0.899,,,,,,,,,,,,,,,,,,,,,,60fc66800ccfce9c74ed4f3d,61036b3764e6c768e90c3358,2021-07-29_23h02.31.736,Simcolourproject_2stim_asymm_v5,2020.2.10,MacIntel,60,61025ae37ef11b136ea224fe,,,,,,,,,1069,35,-53,1,0,0,response3disk,,4,27,10,1,0,0,rectangle,27,10,1,0,0,27,10,1,0,0,1,104,264,97,1,,,,,,,,
,,,,,,,,,,,,,FF,,,,,,,,0.765,,,,,,,,,,,,,,,,,,,,,,60fc66800ccfce9c74ed4f3d,61036b3764e6c768e90c3358,2021-07-29_23h02.31.736,Simcolourproject_2stim_asymm_v5,2020.2.10,MacIntel,60,61025ae37ef11b136ea224fe,,,,,,,,,2905,32,-66,1,0,0,response3disk,,4,14,2,1,0,0,rectangle,14,2,1,0,0,14,2,1,0,0,1,105,265,4,1,,,,,,,,
,,,,,,,,,,,,,FF,,,,,,,,0.766,,,,,,,,,,,,,,,,,,,,,,60fc66800ccfce9c74ed4f3d,61036b3764e6c768e90c3358,2021-07-29_23h02.31.736,Simcolourproject_2stim_asymm_v5,2020.2.10,MacIntel,60,61025ae37ef11b136ea224fe,,,,,,,,,1877,51,-27,1,0,0,response3disk,,5,6,2,1,0,0,rectangle,6,2,1,0,0,6,2,1,0,0,1,106,266,22,1,,,,,,,,
,,,,,,,,,,,,,FF,,,,,,,,0.751,,,,,,,,,,,,,,,,,,,,,,60fc66800ccfce9c74ed4f3d,61036b3764e6c768e90c3358,2021-07-29_23h02.31.736,Simcolourproject_2stim_asymm_v5,2020.2.10,MacIntel,60,61025ae37ef11b136ea224fe,,,,,,,,,765,54,32,1,0,0,response1disk,,6,-5,-8,1,0,0,rectangle,-5,-8,1,0,0,-5,-8,1,0,0,1,107,267,57,1,,,,,,,,
,,,,,,,,,,,,,FF,,,,,,,,0.884,,,,,,,,,,,,,,,,,,,,,,60fc66800ccfce9c74ed4f3d,61036b3764e6c768e90c3358,2021-07-29_23h02.31.736,Simcolourproject_2stim_asymm_v5,2020.2.10,MacIntel,60,61025ae37ef11b136ea224fe,,,,,,,,,1771,29,-52,1,0,0,response3disk,,4,2,-5,1,0,0,rectangle,2,-5,1,0,0,2,-5,1,0,0,1,108,268,12,1,,,,,,,,
,,,,,,,,,,,,,FF,,,,,,,,0.933,,,,,,,,,,,,,,,,,,,,,,60fc66800ccfce9c74ed4f3d,61036b3764e6c768e90c3358,2021-07-29_23h02.31.736,Simcolourproject_2stim_asymm_v5,2020.2.10,MacIntel,60,61025ae37ef11b136ea224fe,,,,,,,,,812,30,-58,1,0,0,response3disk,,4,7,-1,1,0,0,rectangle,7,-1,1,0,0,7,-1,1,0,0,1,109,269,68,1,,,,,,,,
,,,,,,,,,,,,,FF,,,,,,,,0.784,,,,,,,,,,,,,,,,,,,,,,60fc66800ccfce9c74ed4f3d,61036b3764e6c768e90c3358,2021-07-29_23h02.31.736,Simcolourproject_2stim_asymm_v5,2020.2.10,MacIntel,60,61025ae37ef11b136ea224fe,,,,,,,,,3398,-43,-64,1,0,0,response5disk,,3,-16,-6,1,0,0,rectangle,-16,-6,1,0,0,-16,-6,1,0,0,1,110,270,36,1,,,,,,,,
,,,,,,,,,,,,,FF,,,,,,,,1.149,,,,,,,,,,,,,,,,,,,,,,60fc66800ccfce9c74ed4f3d,61036b3764e6c768e90c3358,2021-07-29_23h02.31.736,Simcolourproject_2stim_asymm_v5,2020.2.10,MacIntel,60,61025ae37ef11b136ea224fe,,,,,,,,,1160,26,-62,1,0,0,response3disk,,4,-3,-8,1,0,0,rectangle,-3,-8,1,0,0,-3,-8,1,0,0,1,111,271,50,1,,,,,,,,
,,,,,,,,,,,,,FF,,,,,,,,0.966,,,,,,,,,,,,,,,,,,,,,,60fc66800ccfce9c74ed4f3d,61036b3764e6c768e90c3358,2021-07-29_23h02.31.736,Simcolourproject_2stim_asymm_v5,2020.2.10,MacIntel,60,61025ae37ef11b136ea224fe,,,,,,,,,2482,-74,-43,1,0,0,response5disk,,2,-6,-6,1,0,0,rectangle,-6,-6,1,0,0,-6,-6,1,0,0,1,112,272,64,1,,,,,,,,
,,,,,,,,,,,,,FF,,,,,,,,0.7,,,,,,,,,,,,,,,,,,,,,,60fc66800ccfce9c74ed4f3d,61036b3764e6c768e90c3358,2021-07-29_23h02.31.736,Simcolourproject_2stim_asymm_v5,2020.2.10,MacIntel,60,61025ae37ef11b136ea224fe,,,,,,,,,4192,-31,-60,1,0,0,response5disk,,3,-8,-4,1,0,0,rectangle,-8,-4,1,0,0,-8,-4,1,0,0,1,113,273,143,1,,,,,,,,
,,,,,,,,,,,,,FF,,,,,,,,0.85,,,,,,,,,,,,,,,,,,,,,,60fc66800ccfce9c74ed4f3d,61036b3764e6c768e90c3358,2021-07-29_23h02.31.736,Simcolourproject_2stim_asymm_v5,2020.2.10,MacIntel,60,61025ae37ef11b136ea224fe,,,,,,,,,4157,66,-36,1,0,0,response3disk,,5,8,3,1,0,0,rectangle,8,3,1,0,0,8,3,1,0,0,1,114,274,124,1,,,,,,,,
,,,,,,,,,,,,,FF,,,,,,,,0.718,,,,,,,,,,,,,,,,,,,,,,60fc66800ccfce9c74ed4f3d,61036b3764e6c768e90c3358,2021-07-29_23h02.31.736,Simcolourproject_2stim_asymm_v5,2020.2.10,MacIntel,60,61025ae37ef11b136ea224fe,,,,,,,,,1902,-47,-64,1,0,0,response5disk,,3,-18,-7,1,0,0,rectangle,-18,-7,1,0,0,-18,-7,1,0,0,1,115,275,135,1,,,,,,,,
,,,,,,,,,,,,,FF,,,,,,,,0.882,,,,,,,,,,,,,,,,,,,,,,60fc66800ccfce9c74ed4f3d,61036b3764e6c768e90c3358,2021-07-29_23h02.31.736,Simcolourproject_2stim_asymm_v5,2020.2.10,MacIntel,60,61025ae37ef11b136ea224fe,,,,,,,,,4053,-32,-53,1,0,0,response5disk,,3,-20,-8,1,0,0,rectangle,-20,-8,1,0,0,-20,-8,1,0,0,1,116,276,34,1,,,,,,,,
,,,,,,,,,,,,,FF,,,,,,,,0.717,,,,,,,,,,,,,,,,,,,,,,60fc66800ccfce9c74ed4f3d,61036b3764e6c768e90c3358,2021-07-29_23h02.31.736,Simcolourproject_2stim_asymm_v5,2020.2.10,MacIntel,60,61025ae37ef11b136ea224fe,,,,,,,,,1170,45,28,1,0,0,response1disk,,6,1,0,1,0,0,rectangle,1,0,1,0,0,1,0,1,0,0,1,117,277,150,1,,,,,,,,
,,,,,,,,,,,,,FF,,,,,,,,0.682,,,,,,,,,,,,,,,,,,,,,,60fc66800ccfce9c74ed4f3d,61036b3764e6c768e90c3358,2021-07-29_23h02.31.736,Simcolourproject_2stim_asymm_v5,2020.2.10,MacIntel,60,61025ae37ef11b136ea224fe,,,,,,,,,2436,26,58,1,0,0,response1disk,,7,9,5,1,0,0,rectangle,9,5,1,0,0,9,5,1,0,0,1,118,278,54,1,,,,,,,,
,,,,,,,,,,,,,FF,,,,,,,,0.784,,,,,,,,,,,,,,,,,,,,,,60fc66800ccfce9c74ed4f3d,61036b3764e6c768e90c3358,2021-07-29_23h02.31.736,Simcolourproject_2stim_asymm_v5,2020.2.10,MacIntel,60,61025ae37ef11b136ea224fe,,,,,,,,,4200,-60,-30,1,0,0,response5disk,,2,-16,-3,1,0,0,rectangle,-16,-3,1,0,0,-16,-3,1,0,0,1,119,279,126,1,,,,,,,,
,,,,,,,,,,,,,FF,,,,,,,,1.27,,,,,,,,,,,,,,,,,,,,,,60fc66800ccfce9c74ed4f3d,61036b3764e6c768e90c3358,2021-07-29_23h02.31.736,Simcolourproject_2stim_asymm_v5,2020.2.10,MacIntel,60,61025ae37ef11b136ea224fe,,,,,,,,,1146,41,-59,1,0,0,response3disk,,4,16,0,1,0,0,rectangle,16,0,1,0,0,16,0,1,0,0,1,120,280,11,1,,,,,,,,
,,,,,,,,,,,,,FF,,,,,,,,0.716,,,,,,,,,,,,,,,,,,,,,,60fc66800ccfce9c74ed4f3d,61036b3764e6c768e90c3358,2021-07-29_23h02.31.736,Simcolourproject_2stim_asymm_v5,2020.2.10,MacIntel,60,61025ae37ef11b136ea224fe,,,,,,,,,2100,-56,45,1,0,0,response7disk,,1,3,3,1,0,0,rectangle,3,3,1,0,0,3,3,1,0,0,1,121,281,18,1,,,,,,,,
,,,,,,,,,,,,,FF,,,,,,,,0.766,,,,,,,,,,,,,,,,,,,,,,60fc66800ccfce9c74ed4f3d,61036b3764e6c768e90c3358,2021-07-29_23h02.31.736,Simcolourproject_2stim_asymm_v5,2020.2.10,MacIntel,60,61025ae37ef11b136ea224fe,,,,,,,,,929,81,49,1,0,0,response1disk,,6,28,11,1,0,0,rectangle,28,11,1,0,0,28,11,1,0,0,1,122,282,138,1,,,,,,,,
,,,,,,,,,,,,,FF,,,,,,,,0.967,,,,,,,,,,,,,,,,,,,,,,60fc66800ccfce9c74ed4f3d,61036b3764e6c768e90c3358,2021-07-29_23h02.31.736,Simcolourproject_2stim_asymm_v5,2020.2.10,MacIntel,60,61025ae37ef11b136ea224fe,,,,,,,,,1826,-28,-49,1,0,0,response5disk,,3,-2,2,1,0,0,rectangle,-2,2,1,0,0,-2,2,1,0,0,1,123,283,59,1,,,,,,,,
,,,,,,,,,,,,,FF,,,,,,,,0.884,,,,,,,,,,,,,,,,,,,,,,60fc66800ccfce9c74ed4f3d,61036b3764e6c768e90c3358,2021-07-29_23h02.31.736,Simcolourproject_2stim_asymm_v5,2020.2.10,MacIntel,60,61025ae37ef11b136ea224fe,,,,,,,,,3233,58,-28,1,0,0,response3disk,,5,-8,-16,1,0,0,rectangle,-8,-16,1,0,0,-8,-16,1,0,0,1,124,284,110,1,,,,,,,,
,,,,,,,,,,,,,FF,,,,,,,,0.966,,,,,,,,,,,,,,,,,,,,,,60fc66800ccfce9c74ed4f3d,61036b3764e6c768e90c3358,2021-07-29_23h02.31.736,Simcolourproject_2stim_asymm_v5,2020.2.10,MacIntel,60,61025ae37ef11b136ea224fe,,,,,,,,,4202,40,-58,1,0,0,response3disk,,4,11,-11,1,0,0,rectangle,11,-11,1,0,0,11,-11,1,0,0,1,125,285,130,1,,,,,,,,
,,,,,,,,,,,,,FF,,,,,,,,0.85,,,,,,,,,,,,,,,,,,,,,,60fc66800ccfce9c74ed4f3d,61036b3764e6c768e90c3358,2021-07-29_23h02.31.736,Simcolourproject_2stim_asymm_v5,2020.2.10,MacIntel,60,61025ae37ef11b136ea224fe,,,,,,,,,2261,56,31,1,0,0,response1disk,,6,9,7,1,0,0,rectangle,9,7,1,0,0,9,7,1,0,0,1,126,286,151,1,,,,,,,,
,,,,,,,,,,,,,FF,,,,,,,,0.734,,,,,,,,,,,,,,,,,,,,,,60fc66800ccfce9c74ed4f3d,61036b3764e6c768e90c3358,2021-07-29_23h02.31.736,Simcolourproject_2stim_asymm_v5,2020.2.10,MacIntel,60,61025ae37ef11b136ea224fe,,,,,,,,,1264,46,28,1,0,0,response1disk,,6,13,12,1,0,0,rectangle,13,12,1,0,0,13,12,1,0,0,1,127,287,159,1,,,,,,,,
,,,,,,,,,,,,,FF,,,,,,,,1.016,,,,,,,,,,,,,,,,,,,,,,60fc66800ccfce9c74ed4f3d,61036b3764e6c768e90c3358,2021-07-29_23h02.31.736,Simcolourproject_2stim_asymm_v5,2020.2.10,MacIntel,60,61025ae37ef11b136ea224fe,,,,,,,,,3831,62,-18,1,0,0,response3disk,,5,13,-5,1,0,0,rectangle,13,-5,1,0,0,13,-5,1,0,0,1,128,288,117,1,,,,,,,,
,,,,,,,,,,,,,FF,,,,,,,,0.718,,,,,,,,,,,,,,,,,,,,,,60fc66800ccfce9c74ed4f3d,61036b3764e6c768e90c3358,2021-07-29_23h02.31.736,Simcolourproject_2stim_asymm_v5,2020.2.10,MacIntel,60,61025ae37ef11b136ea224fe,,,,,,,,,4352,-36,-57,1,0,0,response5disk,,3,-5,-9,1,0,0,rectangle,-5,-9,1,0,0,-5,-9,1,0,0,1,129,289,63,1,,,,,,,,
,,,,,,,,,,,,,FF,,,,,,,,0.65,,,,,,,,,,,,,,,,,,,,,,60fc66800ccfce9c74ed4f3d,61036b3764e6c768e90c3358,2021-07-29_23h02.31.736,Simcolourproject_2stim_asymm_v5,2020.2.10,MacIntel,60,61025ae37ef11b136ea224fe,,,,,,,,,1263,75,37,1,0,0,response1disk,,6,17,5,1,0,0,rectangle,17,5,1,0,0,17,5,1,0,0,1,130,290,113,1,,,,,,,,
,,,,,,,,,,,,,FF,,,,,,,,1.036,,,,,,,,,,,,,,,,,,,,,,60fc66800ccfce9c74ed4f3d,61036b3764e6c768e90c3358,2021-07-29_23h02.31.736,Simcolourproject_2stim_asymm_v5,2020.2.10,MacIntel,60,61025ae37ef11b136ea224fe,,,,,,,,,1403,65,25,1,0,0,response1disk,,6,2,-6,1,0,0,rectangle,2,-6,1,0,0,2,-6,1,0,0,1,131,291,71,1,,,,,,,,
,,,,,,,,,,,,,FF,,,,,,,,0.917,,,,,,,,,,,,,,,,,,,,,,60fc66800ccfce9c74ed4f3d,61036b3764e6c768e90c3358,2021-07-29_23h02.31.736,Simcolourproject_2stim_asymm_v5,2020.2.10,MacIntel,60,61025ae37ef11b136ea224fe,,,,,,,,,1194,54,-42,1,0,0,response3disk,,5,4,-4,1,0,0,rectangle,4,-4,1,0,0,4,-4,1,0,0,1,132,292,83,1,,,,,,,,
,,,,,,,,,,,,,FF,,,,,,,,0.716,,,,,,,,,,,,,,,,,,,,,,60fc66800ccfce9c74ed4f3d,61036b3764e6c768e90c3358,2021-07-29_23h02.31.736,Simcolourproject_2stim_asymm_v5,2020.2.10,MacIntel,60,61025ae37ef11b136ea224fe,,,,,,,,,3506,44,-32,1,0,0,response3disk,,5,-3,0,1,0,0,rectangle,-3,0,1,0,0,-3,0,1,0,0,1,133,293,0,1,,,,,,,,
,,,,,,,,,,,,,FF,,,,,,,,0.733,,,,,,,,,,,,,,,,,,,,,,60fc66800ccfce9c74ed4f3d,61036b3764e6c768e90c3358,2021-07-29_23h02.31.736,Simcolourproject_2stim_asymm_v5,2020.2.10,MacIntel,60,61025ae37ef11b136ea224fe,,,,,,,,,766,30,56,1,0,0,response1disk,,7,15,-3,1,0,0,rectangle,15,-3,1,0,0,15,-3,1,0,0,1,134,294,60,1,,,,,,,,
,,,,,,,,,,,,,FF,,,,,,,,1.033,,,,,,,,,,,,,,,,,,,,,,60fc66800ccfce9c74ed4f3d,61036b3764e6c768e90c3358,2021-07-29_23h02.31.736,Simcolourproject_2stim_asymm_v5,2020.2.10,MacIntel,60,61025ae37ef11b136ea224fe,,,,,,,,,1305,-60,-36,1,0,0,response5disk,,2,-9,5,1,0,0,rectangle,-9,5,1,0,0,-9,5,1,0,0,1,135,295,156,1,,,,,,,,
,,,,,,,,,,,,,FF,,,,,,,,0.666,,,,,,,,,,,,,,,,,,,,,,60fc66800ccfce9c74ed4f3d,61036b3764e6c768e90c3358,2021-07-29_23h02.31.736,Simcolourproject_2stim_asymm_v5,2020.2.10,MacIntel,60,61025ae37ef11b136ea224fe,,,,,,,,,1277,70,-40,1,0,0,response3disk,,5,15,0,1,0,0,rectangle,15,0,1,0,0,15,0,1,0,0,1,136,296,46,1,,,,,,,,
,,,,,,,,,,,,,FF,,,,,,,,1.252,,,,,,,,,,,,,,,,,,,,,,60fc66800ccfce9c74ed4f3d,61036b3764e6c768e90c3358,2021-07-29_23h02.31.736,Simcolourproject_2stim_asymm_v5,2020.2.10,MacIntel,60,61025ae37ef11b136ea224fe,,,,,,,,,1097,55,24,1,0,0,response1disk,,6,6,14,1,0,0,rectangle,6,14,1,0,0,6,14,1,0,0,1,137,297,132,1,,,,,,,,
,,,,,,,,,,,,,FF,,,,,,,,0.7,,,,,,,,,,,,,,,,,,,,,,60fc66800ccfce9c74ed4f3d,61036b3764e6c768e90c3358,2021-07-29_23h02.31.736,Simcolourproject_2stim_asymm_v5,2020.2.10,MacIntel,60,61025ae37ef11b136ea224fe,,,,,,,,,3283,-43,-59,1,0,0,response5disk,,3,-12,-9,1,0,0,rectangle,-12,-9,1,0,0,-12,-9,1,0,0,1,138,298,47,1,,,,,,,,
,,,,,,,,,,,,,FF,,,,,,,,0.652,,,,,,,,,,,,,,,,,,,,,,60fc66800ccfce9c74ed4f3d,61036b3764e6c768e90c3358,2021-07-29_23h02.31.736,Simcolourproject_2stim_asymm_v5,2020.2.10,MacIntel,60,61025ae37ef11b136ea224fe,,,,,,,,,2365,-62,-28,1,0,0,response5disk,,2,-22,-3,1,0,0,rectangle,-22,-3,1,0,0,-22,-3,1,0,0,1,139,299,41,1,,,,,,,,
,,,,,,,,,,,,,FF,,,,,,,,0.65,,,,,,,,,,,,,,,,,,,,,,60fc66800ccfce9c74ed4f3d,61036b3764e6c768e90c3358,2021-07-29_23h02.31.736,Simcolourproject_2stim_asymm_v5,2020.2.10,MacIntel,60,61025ae37ef11b136ea224fe,,,,,,,,,762,59,23,1,0,0,response1disk,,6,17,-5,1,0,0,rectangle,17,-5,1,0,0,17,-5,1,0,0,1,140,300,94,1,,,,,,,,
