key_resp.keys,key_resp.rt,key_resp_14.keys,key_resp_14.rt,key_resp_15.keys,key_resp_15.rt,key_resp_17.keys,key_resp_17.rt,key_resp_9.keys,key_resp_9.rt,key_resp_10.keys,key_resp_10.rt,practice_comparison,Ecc,mouse_5.x,mouse_5.y,mouse_5.leftButton,mouse_5.midButton,mouse_5.rightButton,mouse_5.clicked_name,pracsimilarity,response_time,mouse_10.x,mouse_10.y,mouse_10.leftButton,mouse_10.midButton,mouse_10.rightButton,mouse_10.clicked_name,mouse_7.x,mouse_7.y,mouse_7.leftButton,mouse_7.midButton,mouse_7.rightButton,mouse_6.x,mouse_6.y,mouse_6.leftButton,mouse_6.midButton,mouse_6.rightButton,duringprac.thisRepN,duringprac.thisTrialN,duringprac.thisN,duringprac.thisIndex,duringprac.ran,participant,session,date,expName,psychopyVersion,OS,frameRate,study_id,mouse_7.clicked_name,catchpracsimilarity,catch_response_time,catchnumberprac,catchtrialorderprac,mouse_6.clicked_name,key_resp_22.keys,key_resp_22.rt,realcomparison,mouse.x,mouse.y,mouse.leftButton,mouse.midButton,mouse.rightButton,mouse.clicked_name,Colour2,similarity,mouse_2.x,mouse_2.y,mouse_2.leftButton,mouse_2.midButton,mouse_2.rightButton,mouse_2.clicked_name,mouse_3.x,mouse_3.y,mouse_3.leftButton,mouse_3.midButton,mouse_3.rightButton,mouse_11.x,mouse_11.y,mouse_11.leftButton,mouse_11.midButton,mouse_11.rightButton,trials_2.thisRepN,trials_2.thisTrialN,trials_2.thisN,trials_2.thisIndex,trials_2.ran,Colour1,mouse_3.clicked_name,catchornah,catchsimilarity,catchnumber,catchtrialorder,catchRT,mouse_11.clicked_name
space,1.945,space,8.1928,space,23.9323,space,4.0067,space,0.8684,space,4.0504,155,PF,120.6666927,32.83331937,1,0,0,response1disk_5,6,9.3463,-7.333311141,6.166651905,1,0,0,rectangle_8,-7.333311141,6.166651905,1,0,0,-7.333311141,6.166651905,1,0,0,0,0,0,4,1,60fcb5af5bb1bfac226a48e9,610371833abb23392d268f4c,2021-07-29_23h57.00.322,Simcolourproject_2stim_asymm_v5,2020.2.10,Win32,60,61025ae37ef11b136ea224fe,,,,,,,,,,,,,,,,,,,,,,,,,,,,,,,,,,,,,,,,,,,,,,
,,,,,,,,,,,,134,PF,-40.66664547,-86.50001752,1,0,0,response5disk_5,3,3.8671,12.66668946,-3.833348393,1,0,0,rectangle_8,-29.99997848,54.83332002,1,0,0,-12.66664463,4.166651845,1,0,0,0,1,1,1,1,60fcb5af5bb1bfac226a48e9,610371833abb23392d268f4c,2021-07-29_23h57.00.322,Simcolourproject_2stim_asymm_v5,2020.2.10,Win32,60,61025ae37ef11b136ea224fe,response7disk_7,0,3.1178,0,"[2,5]",rectangle_4,,,,,,,,,,,,,,,,,,,,,,,,,,,,,,,,,,,,,,,,
,,,,,,,,,,,,14,FF,62.66669095,-95.16668445,1,0,0,response3disk_5,4,8.6005,8.666689336,-15.83338944,1,0,0,rectangle_8,8.666689336,-15.83338944,1,0,0,8.666689336,-15.83338944,1,0,0,0,2,2,0,1,60fcb5af5bb1bfac226a48e9,610371833abb23392d268f4c,2021-07-29_23h57.00.322,Simcolourproject_2stim_asymm_v5,2020.2.10,Win32,60,61025ae37ef11b136ea224fe,,,,,,,,,,,,,,,,,,,,,,,,,,,,,,,,,,,,,,,,,,,,,,
,,,,,,,,,,,,125,FF,-29.99997848,87.49998766,1,0,0,response7disk_5,0,4.4342,-15.33331138,0.833318412,1,0,0,rectangle_8,-15.33331138,0.833318412,1,0,0,-15.33331138,0.833318412,1,0,0,0,3,3,3,1,60fcb5af5bb1bfac226a48e9,610371833abb23392d268f4c,2021-07-29_23h57.00.322,Simcolourproject_2stim_asymm_v5,2020.2.10,Win32,60,61025ae37ef11b136ea224fe,,,,,,,,,,,,,,,,,,,,,,,,,,,,,,,,,,,,,,,,,,,,,,
,,,,,,,,,,,,73,FF,-79.33331329,49.49998653,1,0,0,response7disk_5,1,5.2161,-15.99997807,14.83331883,1,0,0,rectangle_8,-37.33331203,84.83332092,1,0,0,-13.99997801,-3.833348393,1,0,0,0,4,4,5,1,60fcb5af5bb1bfac226a48e9,610371833abb23392d268f4c,2021-07-29_23h57.00.322,Simcolourproject_2stim_asymm_v5,2020.2.10,Win32,60,61025ae37ef11b136ea224fe,response7disk_7,0,2.9343,0,"[2,5]",rectangle_4,,,,,,,,,,,,,,,,,,,,,,,,,,,,,,,,,,,,,,,,
,,,,,,,,,,,,101,PF,-62.66664612,42.16665298,1,0,0,response7disk_5,1,3.3507,8.00002265,-14.50001538,1,0,0,rectangle_8,8.00002265,-14.50001538,1,0,0,8.00002265,-14.50001538,1,0,0,0,5,5,6,1,60fcb5af5bb1bfac226a48e9,610371833abb23392d268f4c,2021-07-29_23h57.00.322,Simcolourproject_2stim_asymm_v5,2020.2.10,Win32,60,61025ae37ef11b136ea224fe,,,,,,,,,,,,,,,,,,,,,,,,,,,,,,,,,,,,,,,,,,,,,,
,,,,,,,,,,,,45,PF,83.33335823,-49.83339045,1,0,0,response3disk_5,5,4.2663,4.666689217,9.499985337,1,0,0,rectangle_8,4.666689217,9.499985337,1,0,0,4.666689217,9.499985337,1,0,0,0,6,6,2,1,60fcb5af5bb1bfac226a48e9,610371833abb23392d268f4c,2021-07-29_23h57.00.322,Simcolourproject_2stim_asymm_v5,2020.2.10,Win32,60,61025ae37ef11b136ea224fe,,,,,,,,,,,,,,,,,,,,,,,,,,,,,,,,,,,,,,,,,,,,,,
,,,,,,,,,,,,,FF,,,,,,,,2.5676,,,,,,,,,,,,,,,,,,,,,,60fcb5af5bb1bfac226a48e9,610371833abb23392d268f4c,2021-07-29_23h57.00.322,Simcolourproject_2stim_asymm_v5,2020.2.10,Win32,60,61025ae37ef11b136ea224fe,,,,,,,space,3.397,3097,-34.66664529,66.16665369,1,0,0,response7disk,,0,4.000022531,-10.50001526,1,0,0,rectangle,4.000022531,-10.50001526,1,0,0,4.000022531,-10.50001526,1,0,0,0,0,0,148,1,,,,,,,,
,,,,,,,,,,,,,FF,,,,,,,,6.9948,,,,,,,,,,,,,,,,,,,,,,60fcb5af5bb1bfac226a48e9,610371833abb23392d268f4c,2021-07-29_23h57.00.322,Simcolourproject_2stim_asymm_v5,2020.2.10,Win32,60,61025ae37ef11b136ea224fe,,,,,,,,,2136,-101.3333139,-49.16668308,1,0,0,response5disk,,2,2.666689157,0.166651726,1,0,0,rectangle,2.666689157,0.166651726,1,0,0,2.666689157,0.166651726,1,0,0,0,1,1,50,1,,,,,,,,
,,,,,,,,,,,,,FF,,,,,,,,1.9504,,,,,,,,,,,,,,,,,,,,,,60fcb5af5bb1bfac226a48e9,610371833abb23392d268f4c,2021-07-29_23h57.00.322,Simcolourproject_2stim_asymm_v5,2020.2.10,Win32,60,61025ae37ef11b136ea224fe,,,,,,,,,3597,-104.6666067,-44.50001627,1,0,0,response5disk,,2,-7.333311141,-2.50001502,1,0,0,rectangle,-7.333311141,-2.50001502,1,0,0,-7.333311141,-2.50001502,1,0,0,0,2,2,46,1,,,,,,,,
,,,,,,,,,,,,,FF,,,,,,,,3.8512,,,,,,,,,,,,,,,,,,,,,,60fcb5af5bb1bfac226a48e9,610371833abb23392d268f4c,2021-07-29_23h57.00.322,Simcolourproject_2stim_asymm_v5,2020.2.10,Win32,60,61025ae37ef11b136ea224fe,,,,,,,,,4011,87.33335835,-33.83338998,1,0,0,response3disk,,5,14.00002283,0.166651726,1,0,0,rectangle,14.00002283,0.166651726,1,0,0,14.00002283,0.166651726,1,0,0,0,3,3,101,1,,,,,,,,
,,,,,,,,,,,,,FF,,,,,,,,3.1005,,,,,,,,,,,,,,,,,,,,,,60fcb5af5bb1bfac226a48e9,610371833abb23392d268f4c,2021-07-29_23h57.00.322,Simcolourproject_2stim_asymm_v5,2020.2.10,Win32,60,61025ae37ef11b136ea224fe,,,,,,,,,2535,-40.66664547,-109.8333922,1,0,0,response5disk,,3,-8.666644514,-11.83338932,1,0,0,rectangle,-8.666644514,-11.83338932,1,0,0,-8.666644514,-11.83338932,1,0,0,0,4,4,104,1,,,,,,,,
,,,,,,,,,,,,,FF,,,,,,,,5.0997,,,,,,,,,,,,,,,,,,,,,,60fcb5af5bb1bfac226a48e9,610371833abb23392d268f4c,2021-07-29_23h57.00.322,Simcolourproject_2stim_asymm_v5,2020.2.10,Win32,60,61025ae37ef11b136ea224fe,,,,,,,,,4228,101.3333588,-39.16668278,1,0,0,response3disk,,5,6.666689277,-1.833348334,1,0,0,rectangle,6.666689277,-1.833348334,1,0,0,6.666689277,-1.833348334,1,0,0,0,5,5,25,1,,,,,,,,
,,,,,,,,,,,,,FF,,,,,,,,3.02,,,,,,,,,,,,,,,,,,,,,,60fcb5af5bb1bfac226a48e9,610371833abb23392d268f4c,2021-07-29_23h57.00.322,Simcolourproject_2stim_asymm_v5,2020.2.10,Win32,60,61025ae37ef11b136ea224fe,,,,,,,,,2277,95.33335859,22.16665238,1,0,0,response1disk,,6,15.3333562,-5.833348453,1,0,0,rectangle,15.3333562,-5.833348453,1,0,0,15.3333562,-5.833348453,1,0,0,0,6,6,147,1,,,,,,,,
,,,,,,,,,,,,,FF,,,,,,,,2.1657,,,,,,,,,,,,,,,,,,,,,,60fcb5af5bb1bfac226a48e9,610371833abb23392d268f4c,2021-07-29_23h57.00.322,Simcolourproject_2stim_asymm_v5,2020.2.10,Win32,60,61025ae37ef11b136ea224fe,,,,,,,,,2163,-72.66660573,-83.83339147,1,0,0,response5disk,,3,7.333355963,-0.500014961,1,0,0,rectangle,7.333355963,-0.500014961,1,0,0,7.333355963,-0.500014961,1,0,0,0,7,7,93,1,,,,,,,,
,,,,,,,,,,,,,FF,,,,,,,,2.05,,,,,,,,,,,,,,,,,,,,,,60fcb5af5bb1bfac226a48e9,610371833abb23392d268f4c,2021-07-29_23h57.00.322,Simcolourproject_2stim_asymm_v5,2020.2.10,Win32,60,61025ae37ef11b136ea224fe,,,,,,,,,1835,78.00002474,-101.1666846,1,0,0,response3disk,,4,-10.66664457,4.833318532,1,0,0,rectangle,-10.66664457,4.833318532,1,0,0,-10.66664457,4.833318532,1,0,0,0,8,8,84,1,,,,,,,,
,,,,,,,,,,,,,FF,,,,,,,,1.6844,,,,,,,,,,,,,,,,,,,,,,60fcb5af5bb1bfac226a48e9,610371833abb23392d268f4c,2021-07-29_23h57.00.322,Simcolourproject_2stim_asymm_v5,2020.2.10,Win32,60,61025ae37ef11b136ea224fe,,,,,,,,,1435,56.00002408,111.4999884,1,0,0,response1disk,,7,-11.33331126,-6.50001514,1,0,0,rectangle,-11.33331126,-6.50001514,1,0,0,-11.33331126,-6.50001514,1,0,0,0,9,9,33,1,,,,,,,,
,,,,,,,,,,,,,FF,,,,,,,,4.5839,,,,,,,,,,,,,,,,,,,,,,60fcb5af5bb1bfac226a48e9,610371833abb23392d268f4c,2021-07-29_23h57.00.322,Simcolourproject_2stim_asymm_v5,2020.2.10,Win32,60,61025ae37ef11b136ea224fe,,,,,,,,,3020,-36.66664535,-81.16668403,1,0,0,response5disk,,3,-9.3333112,6.166651905,1,0,0,rectangle,-9.3333112,6.166651905,1,0,0,-9.3333112,6.166651905,1,0,0,0,10,10,62,1,,,,,,,,
,,,,,,,,,,,,,FF,,,,,,,,2.0845,,,,,,,,,,,,,,,,,,,,,,60fcb5af5bb1bfac226a48e9,610371833abb23392d268f4c,2021-07-29_23h57.00.322,Simcolourproject_2stim_asymm_v5,2020.2.10,Win32,60,61025ae37ef11b136ea224fe,,,,,,,,,677,79.33335811,-43.83339028,1,0,0,response3disk,,5,18.00002295,0.166651726,1,0,0,rectangle,18.00002295,0.166651726,1,0,0,18.00002295,0.166651726,1,0,0,0,11,11,42,1,,,,,,,,
,,,,,,,,,,,,,FF,,,,,,,,7.6843,,,,,,,,,,,,,,,,,,,,,,60fcb5af5bb1bfac226a48e9,610371833abb23392d268f4c,2021-07-29_23h57.00.322,Simcolourproject_2stim_asymm_v5,2020.2.10,Win32,60,61025ae37ef11b136ea224fe,,,,,,,,,310,123.3333594,-54.50001657,1,0,0,response3disk,,5,34.66669011,16.1666522,1,0,0,rectangle,34.66669011,16.1666522,1,0,0,34.66669011,16.1666522,1,0,0,0,12,12,140,1,,,,,,,,
,,,,,,,,,,,,,FF,,,,,,,,2.0168,,,,,,,,,,,,,,,,,,,,,,60fcb5af5bb1bfac226a48e9,610371833abb23392d268f4c,2021-07-29_23h57.00.322,Simcolourproject_2stim_asymm_v5,2020.2.10,Win32,60,61025ae37ef11b136ea224fe,,,,,,,,,2090,55.33335739,-111.8333923,1,0,0,response3disk,,4,2.000022471,-7.833348513,1,0,0,rectangle,2.000022471,-7.833348513,1,0,0,2.000022471,-7.833348513,1,0,0,0,13,13,88,1,,,,,,,,
,,,,,,,,,,,,,FF,,,,,,,,6.7499,,,,,,,,,,,,,,,,,,,,,,60fcb5af5bb1bfac226a48e9,610371833abb23392d268f4c,2021-07-29_23h57.00.322,Simcolourproject_2stim_asymm_v5,2020.2.10,Win32,60,61025ae37ef11b136ea224fe,,,,,,,,,2321,91.33335847,-53.1666832,1,0,0,response3disk,,5,2.000022471,2.833318472,1,0,0,rectangle,2.000022471,2.833318472,1,0,0,2.000022471,2.833318472,1,0,0,0,14,14,138,1,,,,,,,,
,,,,,,,,,,,,,FF,,,,,,,,4.0659,,,,,,,,,,,,,,,,,,,,,,60fcb5af5bb1bfac226a48e9,610371833abb23392d268f4c,2021-07-29_23h57.00.322,Simcolourproject_2stim_asymm_v5,2020.2.10,Win32,60,61025ae37ef11b136ea224fe,,,,,,,,,804,-86.66660615,-43.83339028,1,0,0,response5disk,,2,-1.333310962,-1.166681647,1,0,0,rectangle,-1.333310962,-1.166681647,1,0,0,-1.333310962,-1.166681647,1,0,0,0,15,15,141,1,,,,,,,,
,,,,,,,,,,,,,FF,,,,,,,,10.1509,,,,,,,,,,,,,,,,,,,,,,60fcb5af5bb1bfac226a48e9,610371833abb23392d268f4c,2021-07-29_23h57.00.322,Simcolourproject_2stim_asymm_v5,2020.2.10,Win32,60,61025ae37ef11b136ea224fe,,,,,,,,,3519,102.0000255,-52.16668209,1,0,0,response3disk,,5,26.66668987,-1.500013918,1,0,0,rectangle,26.66668987,-1.500013918,1,0,0,26.66668987,-1.500013918,1,0,0,0,16,16,35,1,,,,,,,,
,,,,,,,,,,,,,FF,,,,,,,,2.1501,,,,,,,,,,,,,,,,,,,,,,60fcb5af5bb1bfac226a48e9,610371833abb23392d268f4c,2021-07-29_23h57.00.322,Simcolourproject_2stim_asymm_v5,2020.2.10,Win32,60,61025ae37ef11b136ea224fe,,,,,,,,,3846,-51.99997914,85.16665533,1,0,0,response7disk,,0,-4.666644394,-2.833387981,1,0,0,rectangle,-4.666644394,-2.833387981,1,0,0,-4.666644394,-2.833387981,1,0,0,0,17,17,95,1,,,,,,,,
,,,,,,,,,,,,,FF,,,,,,,,1.4332,,,,,,,,,,,,,,,,,,,,,,60fcb5af5bb1bfac226a48e9,610371833abb23392d268f4c,2021-07-29_23h57.00.322,Simcolourproject_2stim_asymm_v5,2020.2.10,Win32,60,61025ae37ef11b136ea224fe,,,,,,,,,3072,75.33335799,106.4999893,1,0,0,response1disk,,7,6.00002259,-5.500014037,1,0,0,rectangle,6.00002259,-5.500014037,1,0,0,6.00002259,-5.500014037,1,0,0,0,18,18,75,1,,,,,,,,
,,,,,,,,,,,,,FF,,,,,,,,1.7332,,,,,,,,,,,,,,,,,,,,,,60fcb5af5bb1bfac226a48e9,610371833abb23392d268f4c,2021-07-29_23h57.00.322,Simcolourproject_2stim_asymm_v5,2020.2.10,Win32,60,61025ae37ef11b136ea224fe,,,,,,,,,3073,98.00002533,21.83332011,1,0,0,response1disk,,6,28.66668993,-4.166680664,1,0,0,rectangle,28.66668993,-4.166680664,1,0,0,28.66668993,-4.166680664,1,0,0,0,19,19,135,1,,,,,,,,
,,,,,,,,,,,,,FF,,,,,,,,1.5665,,,,,,,,,,,,,,,,,,,,,,60fcb5af5bb1bfac226a48e9,610371833abb23392d268f4c,2021-07-29_23h57.00.322,Simcolourproject_2stim_asymm_v5,2020.2.10,Win32,60,61025ae37ef11b136ea224fe,,,,,,,,,3703,-53.9999792,-82.83339037,1,0,0,response5disk,,3,-11.33331126,-9.500014156,1,0,0,rectangle,-11.33331126,-9.500014156,1,0,0,-11.33331126,-9.500014156,1,0,0,0,20,20,137,1,,,,,,,,
,,,,,,,,,,,,,FF,,,,,,,,1.5002,,,,,,,,,,,,,,,,,,,,,,60fcb5af5bb1bfac226a48e9,610371833abb23392d268f4c,2021-07-29_23h57.00.322,Simcolourproject_2stim_asymm_v5,2020.2.10,Win32,60,61025ae37ef11b136ea224fe,,,,,,,,,2355,-39.99997878,79.83332184,1,0,0,response7disk,,0,7.333355963,9.833319753,1,0,0,rectangle,7.333355963,9.833319753,1,0,0,7.333355963,9.833319753,1,0,0,0,21,21,56,1,,,,,,,,
,,,,,,,,,,,,,FF,,,,,,,,2.0001,,,,,,,,,,,,,,,,,,,,,,60fcb5af5bb1bfac226a48e9,610371833abb23392d268f4c,2021-07-29_23h57.00.322,Simcolourproject_2stim_asymm_v5,2020.2.10,Win32,60,61025ae37ef11b136ea224fe,,,,,,,,,3100,-94.66660639,-35.50001493,1,0,0,response5disk,,2,-17.99997813,-17.50001439,1,0,0,rectangle,-17.99997813,-17.50001439,1,0,0,-17.99997813,-17.50001439,1,0,0,0,22,22,26,1,,,,,,,,
,,,,,,,,,,,,,FF,,,,,,,,2.3735,,,,,,,,,,,,,,,,,,,,,,60fcb5af5bb1bfac226a48e9,610371833abb23392d268f4c,2021-07-29_23h57.00.322,Simcolourproject_2stim_asymm_v5,2020.2.10,Win32,60,61025ae37ef11b136ea224fe,,,,,,,,,1480,86.66669166,-37.50001499,1,0,0,response3disk,,5,14.00002283,-4.83338804,1,0,0,rectangle,14.00002283,-4.83338804,1,0,0,14.00002283,-4.83338804,1,0,0,0,23,23,20,1,,,,,,,,
,,,,,,,,,,,,,FF,,,,,,,,3.4676,,,,,,,,,,,,,,,,,,,,,,60fcb5af5bb1bfac226a48e9,610371833abb23392d268f4c,2021-07-29_23h57.00.322,Simcolourproject_2stim_asymm_v5,2020.2.10,Win32,60,61025ae37ef11b136ea224fe,,,,,,,,,2377,-29.3333118,-87.50001648,1,0,0,response5disk,,3,15.3333562,-6.8333881,1,0,0,rectangle,15.3333562,-6.8333881,1,0,0,15.3333562,-6.8333881,1,0,0,0,24,24,69,1,,,,,,,,
,,,,,,,,,,,,,FF,,,,,,,,2.5671,,,,,,,,,,,,,,,,,,,,,,60fcb5af5bb1bfac226a48e9,610371833abb23392d268f4c,2021-07-29_23h57.00.322,Simcolourproject_2stim_asymm_v5,2020.2.10,Win32,60,61025ae37ef11b136ea224fe,,,,,,,,,1429,79.33335811,-48.16668198,1,0,0,response3disk,,5,14.00002283,-8.83338816,1,0,0,rectangle,14.00002283,-8.83338816,1,0,0,14.00002283,-8.83338816,1,0,0,0,25,25,5,1,,,,,,,,
,,,,,,,,,,,,,FF,,,,,,,,1.7168,,,,,,,,,,,,,,,,,,,,,,60fcb5af5bb1bfac226a48e9,610371833abb23392d268f4c,2021-07-29_23h57.00.322,Simcolourproject_2stim_asymm_v5,2020.2.10,Win32,60,61025ae37ef11b136ea224fe,,,,,,,,,3942,-90.66660627,57.1666545,1,0,0,response7disk,,1,-22.66664493,9.833319753,1,0,0,rectangle,-22.66664493,9.833319753,1,0,0,-22.66664493,9.833319753,1,0,0,0,26,26,115,1,,,,,,,,
,,,,,,,,,,,,,FF,,,,,,,,1.3336,,,,,,,,,,,,,,,,,,,,,,60fcb5af5bb1bfac226a48e9,610371833abb23392d268f4c,2021-07-29_23h57.00.322,Simcolourproject_2stim_asymm_v5,2020.2.10,Win32,60,61025ae37ef11b136ea224fe,,,,,,,,,2011,38.00002354,87.16665539,1,0,0,response1disk,,7,14.66668952,2.499986202,1,0,0,rectangle,14.66668952,2.499986202,1,0,0,14.66668952,2.499986202,1,0,0,0,27,27,132,1,,,,,,,,
,,,,,,,,,,,,,FF,,,,,,,,2.4405,,,,,,,,,,,,,,,,,,,,,,60fcb5af5bb1bfac226a48e9,610371833abb23392d268f4c,2021-07-29_23h57.00.322,Simcolourproject_2stim_asymm_v5,2020.2.10,Win32,60,61025ae37ef11b136ea224fe,,,,,,,,,1792,106.6666923,36.49998721,1,0,0,response1disk,,6,28.66668993,1.166612138,1,0,0,rectangle,28.66668993,1.166612138,1,0,0,28.66668993,1.166612138,1,0,0,0,28,28,154,1,,,,,,,,
,,,,,,,,,,,,,FF,,,,,,,,1.3001,,,,,,,,,,,,,,,,,,,,,,60fcb5af5bb1bfac226a48e9,610371833abb23392d268f4c,2021-07-29_23h57.00.322,Simcolourproject_2stim_asymm_v5,2020.2.10,Win32,60,61025ae37ef11b136ea224fe,,,,,,,,,98,38.66669023,-101.5000169,1,0,0,response3disk,,4,12.66668946,-7.500014096,1,0,0,rectangle,12.66668946,-7.500014096,1,0,0,12.66668946,-7.500014096,1,0,0,0,29,29,142,1,,,,,,,,
,,,,,,,,,,,,,FF,,,,,,,,1.3007,,,,,,,,,,,,,,,,,,,,,,60fcb5af5bb1bfac226a48e9,610371833abb23392d268f4c,2021-07-29_23h57.00.322,Simcolourproject_2stim_asymm_v5,2020.2.10,Win32,60,61025ae37ef11b136ea224fe,,,,,,,,,3156,-89.33331358,39.83332065,1,0,0,response7disk,,1,-5.999977767,-14.16668096,1,0,0,rectangle,-5.999977767,-14.16668096,1,0,0,-5.999977767,-14.16668096,1,0,0,0,30,30,107,1,,,,,,,,
,,,,,,,,,,,,,FF,,,,,,,,1.2189,,,,,,,,,,,,,,,,,,,,,,60fcb5af5bb1bfac226a48e9,610371833abb23392d268f4c,2021-07-29_23h57.00.322,Simcolourproject_2stim_asymm_v5,2020.2.10,Win32,60,61025ae37ef11b136ea224fe,,,,,,,,,3171,26.66668987,65.16665474,1,0,0,response1disk,,7,-8.666644514,13.83331987,1,0,0,rectangle,-28.66664511,81.16665521,1,0,0,-9.999977887,1.166612138,1,0,0,0,31,31,17,1,,response7disk_3,TRUE,0,0,"[181,110,69,215,114,84,122,118,260,125,160,133,149,232,252,258,32,59,275,318]",2.0848,rectangle
,,,,,,,,,,,,,FF,,,,,,,,1.3827,,,,,,,,,,,,,,,,,,,,,,60fcb5af5bb1bfac226a48e9,610371833abb23392d268f4c,2021-07-29_23h57.00.322,Simcolourproject_2stim_asymm_v5,2020.2.10,Win32,60,61025ae37ef11b136ea224fe,,,,,,,,,2182,22.66668975,62.49998799,1,0,0,response1disk,,7,3.333355844,7.833319694,1,0,0,rectangle,3.333355844,7.833319694,1,0,0,3.333355844,7.833319694,1,0,0,0,32,32,34,1,,,,,,,,
,,,,,,,,,,,,,FF,,,,,,,,1.5001,,,,,,,,,,,,,,,,,,,,,,60fcb5af5bb1bfac226a48e9,610371833abb23392d268f4c,2021-07-29_23h57.00.322,Simcolourproject_2stim_asymm_v5,2020.2.10,Win32,60,61025ae37ef11b136ea224fe,,,,,,,,,19,117.3333592,27.83332029,1,0,0,response1disk,,6,22.66668975,14.49998656,1,0,0,rectangle,22.66668975,14.49998656,1,0,0,22.66668975,14.49998656,1,0,0,0,33,33,158,1,,,,,,,,
,,,,,,,,,,,,,FF,,,,,,,,0.8001,,,,,,,,,,,,,,,,,,,,,,60fcb5af5bb1bfac226a48e9,610371833abb23392d268f4c,2021-07-29_23h57.00.322,Simcolourproject_2stim_asymm_v5,2020.2.10,Win32,60,61025ae37ef11b136ea224fe,,,,,,,,,3985,42.66669035,67.1666548,1,0,0,response1disk,,7,7.333355963,8.49998638,1,0,0,rectangle,7.333355963,8.49998638,1,0,0,7.333355963,8.49998638,1,0,0,0,34,34,29,1,,,,,,,,
,,,,,,,,,,,,,FF,,,,,,,,0.8173,,,,,,,,,,,,,,,,,,,,,,60fcb5af5bb1bfac226a48e9,610371833abb23392d268f4c,2021-07-29_23h57.00.322,Simcolourproject_2stim_asymm_v5,2020.2.10,Win32,60,61025ae37ef11b136ea224fe,,,,,,,,,2311,62.00002426,24.49998686,1,0,0,response1disk,,6,8.666689336,8.49998638,1,0,0,rectangle,8.666689336,8.49998638,1,0,0,8.666689336,8.49998638,1,0,0,0,35,35,114,1,,,,,,,,
,,,,,,,,,,,,,FF,,,,,,,,1.8745,,,,,,,,,,,,,,,,,,,,,,60fcb5af5bb1bfac226a48e9,610371833abb23392d268f4c,2021-07-29_23h57.00.322,Simcolourproject_2stim_asymm_v5,2020.2.10,Win32,60,61025ae37ef11b136ea224fe,,,,,,,,,2426,59.33335751,-111.5000172,1,0,0,response3disk,,4,17.33335626,13.83331987,1,0,0,rectangle,17.33335626,13.83331987,1,0,0,17.33335626,13.83331987,1,0,0,0,36,36,90,1,,,,,,,,
,,,,,,,,,,,,,FF,,,,,,,,1.0995,,,,,,,,,,,,,,,,,,,,,,60fcb5af5bb1bfac226a48e9,610371833abb23392d268f4c,2021-07-29_23h57.00.322,Simcolourproject_2stim_asymm_v5,2020.2.10,Win32,60,61025ae37ef11b136ea224fe,,,,,,,,,1799,-41.33331215,-60.83338971,1,0,0,response5disk,,3,24.00002313,-7.500014096,1,0,0,rectangle,24.00002313,-7.500014096,1,0,0,24.00002313,-7.500014096,1,0,0,0,37,37,120,1,,,,,,,,
,,,,,,,,,,,,,FF,,,,,,,,0.9332,,,,,,,,,,,,,,,,,,,,,,60fcb5af5bb1bfac226a48e9,610371833abb23392d268f4c,2021-07-29_23h57.00.322,Simcolourproject_2stim_asymm_v5,2020.2.10,Win32,60,61025ae37ef11b136ea224fe,,,,,,,,,3778,-60.66664606,38.49998727,1,0,0,response7disk,,1,-4.666644394,-3.500013977,1,0,0,rectangle,-4.666644394,-3.500013977,1,0,0,-4.666644394,-3.500013977,1,0,0,0,38,38,152,1,,,,,,,,
,,,,,,,,,,,,,FF,,,,,,,,3.7833,,,,,,,,,,,,,,,,,,,,,,60fcb5af5bb1bfac226a48e9,610371833abb23392d268f4c,2021-07-29_23h57.00.322,Simcolourproject_2stim_asymm_v5,2020.2.10,Win32,60,61025ae37ef11b136ea224fe,,,,,,,,,1313,106.6666923,-64.16668245,1,0,0,response3disk,,5,-4.666644394,-2.833387981,1,0,0,rectangle,-4.666644394,-2.833387981,1,0,0,-4.666644394,-2.833387981,1,0,0,0,39,39,113,1,,,,,,,,
,,,,,,,,,,,,,FF,,,,,,,,1.8263,,,,,,,,,,,,,,,,,,,,,,60fcb5af5bb1bfac226a48e9,610371833abb23392d268f4c,2021-07-29_23h57.00.322,Simcolourproject_2stim_asymm_v5,2020.2.10,Win32,60,61025ae37ef11b136ea224fe,,,,,,,,,1462,61.33335757,-96.83339078,1,0,0,response3disk,,4,-9.999977887,-9.500014156,1,0,0,rectangle,-9.999977887,-9.500014156,1,0,0,-9.999977887,-9.500014156,1,0,0,0,40,40,44,1,,,,,,,,
,,,,,,,,,,,,,FF,,,,,,,,4.0171,,,,,,,,,,,,,,,,,,,,,,60fcb5af5bb1bfac226a48e9,610371833abb23392d268f4c,2021-07-29_23h57.00.322,Simcolourproject_2stim_asymm_v5,2020.2.10,Win32,60,61025ae37ef11b136ea224fe,,,,,,,,,2407,76.66669136,106.4999893,1,0,0,response1disk,,7,-23.33331162,11.16661244,1,0,0,rectangle,-23.33331162,11.16661244,1,0,0,-23.33331162,11.16661244,1,0,0,0,41,41,49,1,,,,,,,,
,,,,,,,,,,,,,FF,,,,,,,,23.3245,,,,,,,,,,,,,,,,,,,,,,60fcb5af5bb1bfac226a48e9,610371833abb23392d268f4c,2021-07-29_23h57.00.322,Simcolourproject_2stim_asymm_v5,2020.2.10,Win32,60,61025ae37ef11b136ea224fe,,,,,,,,,816,37.33335686,-105.500017,1,0,0,response3disk,,4,-22.66664493,-11.50001422,1,0,0,rectangle,-22.66664493,-11.50001422,1,0,0,-22.66664493,-11.50001422,1,0,0,0,42,42,80,1,,,,,,,,
,,,,,,,,,,,,,FF,,,,,,,,1.0511,,,,,,,,,,,,,,,,,,,,,,60fcb5af5bb1bfac226a48e9,610371833abb23392d268f4c,2021-07-29_23h57.00.322,Simcolourproject_2stim_asymm_v5,2020.2.10,Win32,60,61025ae37ef11b136ea224fe,,,,,,,,,3552,-33.33331192,107.166656,1,0,0,response7disk,,0,-15.99997807,-2.833387981,1,0,0,rectangle,-15.99997807,-2.833387981,1,0,0,-15.99997807,-2.833387981,1,0,0,0,43,43,71,1,,,,,,,,
,,,,,,,,,,,,,FF,,,,,,,,1.2436,,,,,,,,,,,,,,,,,,,,,,60fcb5af5bb1bfac226a48e9,610371833abb23392d268f4c,2021-07-29_23h57.00.322,Simcolourproject_2stim_asymm_v5,2020.2.10,Win32,60,61025ae37ef11b136ea224fe,,,,,,,,,316,69.33335781,93.83332226,1,0,0,response1disk,,7,14.66668952,10.49998644,1,0,0,rectangle,14.66668952,10.49998644,1,0,0,14.66668952,10.49998644,1,0,0,0,44,44,47,1,,,,,,,,
,,,,,,,,,,,,,FF,,,,,,,,1.0349,,,,,,,,,,,,,,,,,,,,,,60fcb5af5bb1bfac226a48e9,610371833abb23392d268f4c,2021-07-29_23h57.00.322,Simcolourproject_2stim_asymm_v5,2020.2.10,Win32,60,61025ae37ef11b136ea224fe,,,,,,,,,507,37.33335686,49.83332095,1,0,0,response1disk,,7,15.3333562,7.166612317,1,0,0,rectangle,15.3333562,7.166612317,1,0,0,15.3333562,7.166612317,1,0,0,0,45,45,18,1,,,,,,,,
,,,,,,,,,,,,,FF,,,,,,,,1.5601,,,,,,,,,,,,,,,,,,,,,,60fcb5af5bb1bfac226a48e9,610371833abb23392d268f4c,2021-07-29_23h57.00.322,Simcolourproject_2stim_asymm_v5,2020.2.10,Win32,60,61025ae37ef11b136ea224fe,,,,,,,,,2994,44.00002372,-90.8333906,1,0,0,response3disk,,4,10.00002271,-15.50001433,1,0,0,rectangle,10.00002271,-15.50001433,1,0,0,10.00002271,-15.50001433,1,0,0,0,46,46,131,1,,,,,,,,
,,,,,,,,,,,,,FF,,,,,,,,2.6506,,,,,,,,,,,,,,,,,,,,,,60fcb5af5bb1bfac226a48e9,610371833abb23392d268f4c,2021-07-29_23h57.00.322,Simcolourproject_2stim_asymm_v5,2020.2.10,Win32,60,61025ae37ef11b136ea224fe,,,,,,,,,1141,86.00002497,-66.16668251,1,0,0,response3disk,,5,11.33335608,-14.83338834,1,0,0,rectangle,11.33335608,-14.83338834,1,0,0,11.33335608,-14.83338834,1,0,0,0,47,47,89,1,,,,,,,,
,,,,,,,,,,,,,FF,,,,,,,,0.8897,,,,,,,,,,,,,,,,,,,,,,60fcb5af5bb1bfac226a48e9,610371833abb23392d268f4c,2021-07-29_23h57.00.322,Simcolourproject_2stim_asymm_v5,2020.2.10,Win32,60,61025ae37ef11b136ea224fe,,,,,,,,,2409,40.0000236,67.83332148,1,0,0,response1disk,,7,16.66668957,17.83331999,1,0,0,rectangle,16.66668957,17.83331999,1,0,0,16.66668957,17.83331999,1,0,0,0,48,48,82,1,,,,,,,,
,,,,,,,,,,,,,FF,,,,,,,,1.1834,,,,,,,,,,,,,,,,,,,,,,60fcb5af5bb1bfac226a48e9,610371833abb23392d268f4c,2021-07-29_23h57.00.322,Simcolourproject_2stim_asymm_v5,2020.2.10,Win32,60,61025ae37ef11b136ea224fe,,,,,,,,,3399,69.33335781,76.49998841,1,0,0,response1disk,,7,26.66668987,15.16661256,1,0,0,rectangle,26.66668987,15.16661256,1,0,0,26.66668987,15.16661256,1,0,0,0,49,49,76,1,,,,,,,,
,,,,,,,,,,,,,FF,,,,,,,,0.9606,,,,,,,,,,,,,,,,,,,,,,60fcb5af5bb1bfac226a48e9,610371833abb23392d268f4c,2021-07-29_23h57.00.322,Simcolourproject_2stim_asymm_v5,2020.2.10,Win32,60,61025ae37ef11b136ea224fe,,,,,,,,,3602,64.00002432,30.49998704,1,0,0,response1disk,,6,28.66668993,5.166612258,1,0,0,rectangle,28.66668993,5.166612258,1,0,0,28.66668993,5.166612258,1,0,0,0,50,50,11,1,,,,,,,,
,,,,,,,,,,,,,FF,,,,,,,,1.2258,,,,,,,,,,,,,,,,,,,,,,60fcb5af5bb1bfac226a48e9,610371833abb23392d268f4c,2021-07-29_23h57.00.322,Simcolourproject_2stim_asymm_v5,2020.2.10,Win32,60,61025ae37ef11b136ea224fe,,,,,,,,,3748,36.00002348,-86.16668311,1,0,0,response3disk,,4,14.66668952,-7.500014096,1,0,0,rectangle,14.66668952,-7.500014096,1,0,0,14.66668952,-7.500014096,1,0,0,0,51,51,100,1,,,,,,,,
,,,,,,,,,,,,,FF,,,,,,,,1.0345,,,,,,,,,,,,,,,,,,,,,,60fcb5af5bb1bfac226a48e9,610371833abb23392d268f4c,2021-07-29_23h57.00.322,Simcolourproject_2stim_asymm_v5,2020.2.10,Win32,60,61025ae37ef11b136ea224fe,,,,,,,,,1667,69.33335781,31.16665372,1,0,0,response1disk,,6,26.66668987,-4.166680664,1,0,0,rectangle,26.66668987,-4.166680664,1,0,0,26.66668987,-4.166680664,1,0,0,0,52,52,23,1,,,,,,,,
,,,,,,,,,,,,,FF,,,,,,,,0.9344,,,,,,,,,,,,,,,,,,,,,,60fcb5af5bb1bfac226a48e9,610371833abb23392d268f4c,2021-07-29_23h57.00.322,Simcolourproject_2stim_asymm_v5,2020.2.10,Win32,60,61025ae37ef11b136ea224fe,,,,,,,,,412,55.33335739,34.49998716,1,0,0,response1disk,,6,31.33335668,0.499986142,1,0,0,rectangle,31.33335668,0.499986142,1,0,0,31.33335668,0.499986142,1,0,0,0,53,53,59,1,,,,,,,,
,,,,,,,,,,,,,FF,,,,,,,,1.3503,,,,,,,,,,,,,,,,,,,,,,60fcb5af5bb1bfac226a48e9,610371833abb23392d268f4c,2021-07-29_23h57.00.322,Simcolourproject_2stim_asymm_v5,2020.2.10,Win32,60,61025ae37ef11b136ea224fe,,,,,,,,,2569,88.66669172,117.833323,1,0,0,response1disk,,7,-7.333311141,6.499986321,1,0,0,rectangle,-7.333311141,6.499986321,1,0,0,-7.333311141,6.499986321,1,0,0,0,54,54,36,1,,,,,,,,
,,,,,,,,,,,,,FF,,,,,,,,1.5012,,,,,,,,,,,,,,,,,,,,,,60fcb5af5bb1bfac226a48e9,610371833abb23392d268f4c,2021-07-29_23h57.00.322,Simcolourproject_2stim_asymm_v5,2020.2.10,Win32,60,61025ae37ef11b136ea224fe,,,,,,,,,953,24.66668981,-91.5000166,1,0,0,response3disk,,4,8.00002265,-9.500014156,1,0,0,rectangle,8.00002265,-9.500014156,1,0,0,8.00002265,-9.500014156,1,0,0,0,55,55,45,1,,,,,,,,
,,,,,,,,,,,,,FF,,,,,,,,1.1336,,,,,,,,,,,,,,,,,,,,,,60fcb5af5bb1bfac226a48e9,610371833abb23392d268f4c,2021-07-29_23h57.00.322,Simcolourproject_2stim_asymm_v5,2020.2.10,Win32,60,61025ae37ef11b136ea224fe,,,,,,,,,3995,-103.9999807,21.16661273,1,0,0,response7disk,,1,-12.66664463,-0.833387921,1,0,0,rectangle,-12.66664463,-0.833387921,1,0,0,-12.66664463,-0.833387921,1,0,0,0,56,56,9,1,,,,,,,,
,,,,,,,,,,,,,FF,,,,,,,,1.6826,,,,,,,,,,,,,,,,,,,,,,60fcb5af5bb1bfac226a48e9,610371833abb23392d268f4c,2021-07-29_23h57.00.322,Simcolourproject_2stim_asymm_v5,2020.2.10,Win32,60,61025ae37ef11b136ea224fe,,,,,,,,,1376,60.0000242,28.49998698,1,0,0,response1disk,,6,2.24113E-05,1.833319515,1,0,0,rectangle,2.24113E-05,1.833319515,1,0,0,2.24113E-05,1.833319515,1,0,0,0,57,57,86,1,,,,,,,,
,,,,,,,,,,,,,FF,,,,,,,,3.0165,,,,,,,,,,,,,,,,,,,,,,60fcb5af5bb1bfac226a48e9,610371833abb23392d268f4c,2021-07-29_23h57.00.322,Simcolourproject_2stim_asymm_v5,2020.2.10,Win32,60,61025ae37ef11b136ea224fe,,,,,,,,,1516,16.00002289,41.16665402,1,0,0,response1disk,,7,12.66668946,5.166612258,1,0,0,rectangle,-55.99997926,-100.1666835,1,0,0,2.666689157,-8.166680783,1,0,0,0,58,58,150,1,,response5disk_3,TRUE,3,3,"[181,110,69,215,114,84,122,118,260,125,160,133,149,232,252,258,32,59,275,318]",4.0177,rectangle
,,,,,,,,,,,,,FF,,,,,,,,2.1509,,,,,,,,,,,,,,,,,,,,,,60fcb5af5bb1bfac226a48e9,610371833abb23392d268f4c,2021-07-29_23h57.00.322,Simcolourproject_2stim_asymm_v5,2020.2.10,Win32,60,61025ae37ef11b136ea224fe,,,,,,,,,3500,26.00002319,56.49998781,1,0,0,response1disk,,7,2.000022471,9.833319753,1,0,0,rectangle,2.000022471,9.833319753,1,0,0,2.000022471,9.833319753,1,0,0,0,59,59,4,1,,,,,,,,
,,,,,,,,,,,,,FF,,,,,,,,1.8665,,,,,,,,,,,,,,,,,,,,,,60fcb5af5bb1bfac226a48e9,610371833abb23392d268f4c,2021-07-29_23h57.00.322,Simcolourproject_2stim_asymm_v5,2020.2.10,Win32,60,61025ae37ef11b136ea224fe,,,,,,,,,3132,70.66669118,28.49998698,1,0,0,response1disk,,6,9.333356023,12.4999865,1,0,0,rectangle,9.333356023,12.4999865,1,0,0,9.333356023,12.4999865,1,0,0,0,60,60,48,1,,,,,,,,
,,,,,,,,,,,,,FF,,,,,,,,1.4496,,,,,,,,,,,,,,,,,,,,,,60fcb5af5bb1bfac226a48e9,610371833abb23392d268f4c,2021-07-29_23h57.00.322,Simcolourproject_2stim_asymm_v5,2020.2.10,Win32,60,61025ae37ef11b136ea224fe,,,,,,,,,1756,83.33335823,59.83332124,1,0,0,response1disk,,6,-3.999977708,-4.166680664,1,0,0,rectangle,-3.999977708,-4.166680664,1,0,0,-3.999977708,-4.166680664,1,0,0,0,61,61,77,1,,,,,,,,
,,,,,,,,,,,,,FF,,,,,,,,0.7855,,,,,,,,,,,,,,,,,,,,,,60fcb5af5bb1bfac226a48e9,610371833abb23392d268f4c,2021-07-29_23h57.00.322,Simcolourproject_2stim_asymm_v5,2020.2.10,Win32,60,61025ae37ef11b136ea224fe,,,,,,,,,3136,60.0000242,65.16665474,1,0,0,response1disk,,7,30.00002331,9.833319753,1,0,0,rectangle,30.00002331,9.833319753,1,0,0,30.00002331,9.833319753,1,0,0,0,62,62,70,1,,,,,,,,
,,,,,,,,,,,,,FF,,,,,,,,1.8167,,,,,,,,,,,,,,,,,,,,,,60fcb5af5bb1bfac226a48e9,610371833abb23392d268f4c,2021-07-29_23h57.00.322,Simcolourproject_2stim_asymm_v5,2020.2.10,Win32,60,61025ae37ef11b136ea224fe,,,,,,,,,778,26.66668987,-103.500017,1,0,0,response3disk,,4,14.00002283,-14.83338834,1,0,0,rectangle,14.00002283,-14.83338834,1,0,0,14.00002283,-14.83338834,1,0,0,0,63,63,127,1,,,,,,,,
,,,,,,,,,,,,,FF,,,,,,,,1.1999,,,,,,,,,,,,,,,,,,,,,,60fcb5af5bb1bfac226a48e9,610371833abb23392d268f4c,2021-07-29_23h57.00.322,Simcolourproject_2stim_asymm_v5,2020.2.10,Win32,60,61025ae37ef11b136ea224fe,,,,,,,,,3720,92.66669184,131.1666567,1,0,0,response1disk,,7,10.00002271,14.49998656,1,0,0,rectangle,10.00002271,14.49998656,1,0,0,10.00002271,14.49998656,1,0,0,0,64,64,122,1,,,,,,,,
,,,,,,,,,,,,,FF,,,,,,,,1.7836,,,,,,,,,,,,,,,,,,,,,,60fcb5af5bb1bfac226a48e9,610371833abb23392d268f4c,2021-07-29_23h57.00.322,Simcolourproject_2stim_asymm_v5,2020.2.10,Win32,60,61025ae37ef11b136ea224fe,,,,,,,,,1535,-73.33331311,-83.50001636,1,0,0,response5disk,,3,-15.33331138,-6.166680723,1,0,0,rectangle,-15.33331138,-6.166680723,1,0,0,-15.33331138,-6.166680723,1,0,0,0,65,65,79,1,,,,,,,,
,,,,,,,,,,,,,FF,,,,,,,,0.652,,,,,,,,,,,,,,,,,,,,,,60fcb5af5bb1bfac226a48e9,610371833abb23392d268f4c,2021-07-29_23h57.00.322,Simcolourproject_2stim_asymm_v5,2020.2.10,Win32,60,61025ae37ef11b136ea224fe,,,,,,,,,1500,33.33335674,27.83332029,1,0,0,response1disk,,6,17.33335626,11.83331981,1,0,0,rectangle,17.33335626,11.83331981,1,0,0,17.33335626,11.83331981,1,0,0,0,66,66,123,1,,,,,,,,
,,,,,,,,,,,,,FF,,,,,,,,1.117,,,,,,,,,,,,,,,,,,,,,,60fcb5af5bb1bfac226a48e9,610371833abb23392d268f4c,2021-07-29_23h57.00.322,Simcolourproject_2stim_asymm_v5,2020.2.10,Win32,60,61025ae37ef11b136ea224fe,,,,,,,,,2553,94.00002521,85.83332202,1,0,0,response1disk,,6,18.00002295,5.833319634,1,0,0,rectangle,18.00002295,5.833319634,1,0,0,18.00002295,5.833319634,1,0,0,0,67,67,19,1,,,,,,,,
,,,,,,,,,,,,,FF,,,,,,,,0.9186,,,,,,,,,,,,,,,,,,,,,,60fcb5af5bb1bfac226a48e9,610371833abb23392d268f4c,2021-07-29_23h57.00.322,Simcolourproject_2stim_asymm_v5,2020.2.10,Win32,60,61025ae37ef11b136ea224fe,,,,,,,,,216,96.00002527,35.16665384,1,0,0,response1disk,,6,29.33335662,7.833319694,1,0,0,rectangle,-46.66664565,-101.5000169,1,0,0,9.333356023,-11.50001422,1,0,0,0,68,68,83,1,,response5disk_3,TRUE,3,3,"[181,110,69,215,114,84,122,118,260,125,160,133,149,232,252,258,32,59,275,318]",2.2164,rectangle
,,,,,,,,,,,,,FF,,,,,,,,2.6502,,,,,,,,,,,,,,,,,,,,,,60fcb5af5bb1bfac226a48e9,610371833abb23392d268f4c,2021-07-29_23h57.00.322,Simcolourproject_2stim_asymm_v5,2020.2.10,Win32,60,61025ae37ef11b136ea224fe,,,,,,,,,2749,89.33335841,63.83332136,1,0,0,response1disk,,6,19.33335632,-8.166680783,1,0,0,rectangle,19.33335632,-8.166680783,1,0,0,19.33335632,-8.166680783,1,0,0,0,69,69,73,1,,,,,,,,
,,,,,,,,,,,,,FF,,,,,,,,4.033,,,,,,,,,,,,,,,,,,,,,,60fcb5af5bb1bfac226a48e9,610371833abb23392d268f4c,2021-07-29_23h57.00.322,Simcolourproject_2stim_asymm_v5,2020.2.10,Win32,60,61025ae37ef11b136ea224fe,,,,,,,,,1153,30.66668999,87.83332208,1,0,0,response1disk,,7,-3.333311021,10.49998644,1,0,0,rectangle,-3.333311021,10.49998644,1,0,0,-3.333311021,10.49998644,1,0,0,0,70,70,81,1,,,,,,,,
,,,,,,,,,,,,,FF,,,,,,,,0.9338,,,,,,,,,,,,,,,,,,,,,,60fcb5af5bb1bfac226a48e9,610371833abb23392d268f4c,2021-07-29_23h57.00.322,Simcolourproject_2stim_asymm_v5,2020.2.10,Win32,60,61025ae37ef11b136ea224fe,,,,,,,,,1560,118.0000259,58.49998787,1,0,0,response1disk,,6,16.66668957,-0.833387921,1,0,0,rectangle,16.66668957,-0.833387921,1,0,0,16.66668957,-0.833387921,1,0,0,0,71,71,67,1,,,,,,,,
,,,,,,,,,,,,,FF,,,,,,,,0.8831,,,,,,,,,,,,,,,,,,,,,,60fcb5af5bb1bfac226a48e9,610371833abb23392d268f4c,2021-07-29_23h57.00.322,Simcolourproject_2stim_asymm_v5,2020.2.10,Win32,60,61025ae37ef11b136ea224fe,,,,,,,,,1635,34.00002342,76.49998841,1,0,0,response1disk,,7,3.333355844,9.166612377,1,0,0,rectangle,3.333355844,9.166612377,1,0,0,3.333355844,9.166612377,1,0,0,0,72,72,146,1,,,,,,,,
,,,,,,,,,,,,,FF,,,,,,,,0.6838,,,,,,,,,,,,,,,,,,,,,,60fcb5af5bb1bfac226a48e9,610371833abb23392d268f4c,2021-07-29_23h57.00.322,Simcolourproject_2stim_asymm_v5,2020.2.10,Win32,60,61025ae37ef11b136ea224fe,,,,,,,,,1614,41.33335698,63.16665468,1,0,0,response1disk,,7,18.00002295,-0.833387921,1,0,0,rectangle,18.00002295,-0.833387921,1,0,0,18.00002295,-0.833387921,1,0,0,0,73,73,117,1,,,,,,,,
,,,,,,,,,,,,,FF,,,,,,,,1.4834,,,,,,,,,,,,,,,,,,,,,,60fcb5af5bb1bfac226a48e9,610371833abb23392d268f4c,2021-07-29_23h57.00.322,Simcolourproject_2stim_asymm_v5,2020.2.10,Win32,60,61025ae37ef11b136ea224fe,,,,,,,,,2361,-55.33331257,53.16665438,1,0,0,response7disk,,1,-27.99997842,0.499986142,1,0,0,rectangle,-27.99997842,0.499986142,1,0,0,-27.99997842,0.499986142,1,0,0,0,74,74,102,1,,,,,,,,
,,,,,,,,,,,,,FF,,,,,,,,1.5514,,,,,,,,,,,,,,,,,,,,,,60fcb5af5bb1bfac226a48e9,610371833abb23392d268f4c,2021-07-29_23h57.00.322,Simcolourproject_2stim_asymm_v5,2020.2.10,Win32,60,61025ae37ef11b136ea224fe,,,,,,,,,1417,31.33335668,-95.50001672,1,0,0,response3disk,,4,-9.999977887,-8.83338816,1,0,0,rectangle,-9.999977887,-8.83338816,1,0,0,-9.999977887,-8.83338816,1,0,0,0,75,75,121,1,,,,,,,,
,,,,,,,,,,,,,FF,,,,,,,,1.9839,,,,,,,,,,,,,,,,,,,,,,60fcb5af5bb1bfac226a48e9,610371833abb23392d268f4c,2021-07-29_23h57.00.322,Simcolourproject_2stim_asymm_v5,2020.2.10,Win32,60,61025ae37ef11b136ea224fe,,,,,,,,,2289,23.33335644,-84.83339042,1,0,0,response3disk,,4,-12.66664463,-5.500014037,1,0,0,rectangle,-12.66664463,-5.500014037,1,0,0,-12.66664463,-5.500014037,1,0,0,0,76,76,6,1,,,,,,,,
,,,,,,,,,,,,,FF,,,,,,,,0.9013,,,,,,,,,,,,,,,,,,,,,,60fcb5af5bb1bfac226a48e9,610371833abb23392d268f4c,2021-07-29_23h57.00.322,Simcolourproject_2stim_asymm_v5,2020.2.10,Win32,60,61025ae37ef11b136ea224fe,,,,,,,,,3936,-33.33331192,87.83332208,1,0,0,response7disk,,0,-21.33331156,17.83331999,1,0,0,rectangle,-21.33331156,17.83331999,1,0,0,-21.33331156,17.83331999,1,0,0,0,77,77,63,1,,,,,,,,
,,,,,,,,,,,,,FF,,,,,,,,1.1671,,,,,,,,,,,,,,,,,,,,,,60fcb5af5bb1bfac226a48e9,610371833abb23392d268f4c,2021-07-29_23h57.00.322,Simcolourproject_2stim_asymm_v5,2020.2.10,Win32,60,61025ae37ef11b136ea224fe,,,,,,,,,1987,57.33335745,111.1666561,1,0,0,response1disk,,7,6.666689277,15.83331993,1,0,0,rectangle,6.666689277,15.83331993,1,0,0,6.666689277,15.83331993,1,0,0,0,78,78,68,1,,,,,,,,
,,,,,,,,,,,,,FF,,,,,,,,0.9174,,,,,,,,,,,,,,,,,,,,,,60fcb5af5bb1bfac226a48e9,610371833abb23392d268f4c,2021-07-29_23h57.00.322,Simcolourproject_2stim_asymm_v5,2020.2.10,Win32,60,61025ae37ef11b136ea224fe,,,,,,,,,2638,54.00002402,103.8333226,1,0,0,response1disk,,7,18.00002295,-2.166680604,1,0,0,rectangle,18.00002295,-2.166680604,1,0,0,18.00002295,-2.166680604,1,0,0,0,79,79,156,1,,,,,,,,
,,,,,,,,,,,,,FF,,,,,,,,0.9164,,,,,,,,,,,,,,,,,,,,,,60fcb5af5bb1bfac226a48e9,610371833abb23392d268f4c,2021-07-29_23h57.00.322,Simcolourproject_2stim_asymm_v5,2020.2.10,Win32,60,61025ae37ef11b136ea224fe,,,,,,,,,1804,56.00002408,23.16661279,1,0,0,response1disk,,6,-5.999977767,-2.833387981,1,0,0,rectangle,-5.999977767,-2.833387981,1,0,0,-5.999977767,-2.833387981,1,0,0,0,80,80,155,1,,,,,,,,
,,,,,,,,,,,,,FF,,,,,,,,1.7835,,,,,,,,,,,,,,,,,,,,,,60fcb5af5bb1bfac226a48e9,610371833abb23392d268f4c,2021-07-29_23h57.00.322,Simcolourproject_2stim_asymm_v5,2020.2.10,Win32,60,61025ae37ef11b136ea224fe,,,,,,,,,3615,76.00002468,-35.50001493,1,0,0,response3disk,,5,27.33335656,9.166612377,1,0,0,rectangle,27.33335656,9.166612377,1,0,0,27.33335656,9.166612377,1,0,0,0,81,81,85,1,,,,,,,,
,,,,,,,,,,,,,FF,,,,,,,,0.7754,,,,,,,,,,,,,,,,,,,,,,60fcb5af5bb1bfac226a48e9,610371833abb23392d268f4c,2021-07-29_23h57.00.322,Simcolourproject_2stim_asymm_v5,2020.2.10,Win32,60,61025ae37ef11b136ea224fe,,,,,,,,,3897,62.66669095,115.1666562,1,0,0,response1disk,,7,2.24113E-05,5.833319634,1,0,0,rectangle,2.24113E-05,5.833319634,1,0,0,2.24113E-05,5.833319634,1,0,0,0,82,82,22,1,,,,,,,,
,,,,,,,,,,,,,FF,,,,,,,,1.3339,,,,,,,,,,,,,,,,,,,,,,60fcb5af5bb1bfac226a48e9,610371833abb23392d268f4c,2021-07-29_23h57.00.322,Simcolourproject_2stim_asymm_v5,2020.2.10,Win32,60,61025ae37ef11b136ea224fe,,,,,,,,,56,68.66669112,93.83332226,1,0,0,response1disk,,7,36.66669017,17.16661262,1,0,0,rectangle,-80.66660597,59.16665456,1,0,0,-28.66664511,15.83331993,1,0,0,0,83,83,55,1,,response7disk_3,TRUE,1,1,"[181,110,69,215,114,84,122,118,260,125,160,133,149,232,252,258,32,59,275,318]",2.1429,rectangle
,,,,,,,,,,,,,FF,,,,,,,,0.8672,,,,,,,,,,,,,,,,,,,,,,60fcb5af5bb1bfac226a48e9,610371833abb23392d268f4c,2021-07-29_23h57.00.322,Simcolourproject_2stim_asymm_v5,2020.2.10,Win32,60,61025ae37ef11b136ea224fe,,,,,,,,,2405,52.66669065,42.49998739,1,0,0,response1disk,,6,-10.66664457,2.499986202,1,0,0,rectangle,-10.66664457,2.499986202,1,0,0,-10.66664457,2.499986202,1,0,0,0,84,84,151,1,,,,,,,,
,,,,,,,,,,,,,FF,,,,,,,,1.1338,,,,,,,,,,,,,,,,,,,,,,60fcb5af5bb1bfac226a48e9,610371833abb23392d268f4c,2021-07-29_23h57.00.322,Simcolourproject_2stim_asymm_v5,2020.2.10,Win32,60,61025ae37ef11b136ea224fe,,,,,,,,,3114,35.3333568,73.16665497,1,0,0,response1disk,,7,-12.66664463,3.166612198,1,0,0,rectangle,-12.66664463,3.166612198,1,0,0,-12.66664463,3.166612198,1,0,0,0,85,85,66,1,,,,,,,,
,,,,,,,,,,,,,FF,,,,,,,,1.2005,,,,,,,,,,,,,,,,,,,,,,60fcb5af5bb1bfac226a48e9,610371833abb23392d268f4c,2021-07-29_23h57.00.322,Simcolourproject_2stim_asymm_v5,2020.2.10,Win32,60,61025ae37ef11b136ea224fe,,,,,,,,,2383,77.33335805,-44.83338923,1,0,0,response3disk,,5,14.00002283,7.166612317,1,0,0,rectangle,14.00002283,7.166612317,1,0,0,14.00002283,7.166612317,1,0,0,0,86,86,145,1,,,,,,,,
,,,,,,,,,,,,,FF,,,,,,,,0.8504,,,,,,,,,,,,,,,,,,,,,,60fcb5af5bb1bfac226a48e9,610371833abb23392d268f4c,2021-07-29_23h57.00.322,Simcolourproject_2stim_asymm_v5,2020.2.10,Win32,60,61025ae37ef11b136ea224fe,,,,,,,,,232,72.66669124,66.49998811,1,0,0,response1disk,,6,-3.333311021,14.49998656,1,0,0,rectangle,-3.333311021,14.49998656,1,0,0,-3.333311021,14.49998656,1,0,0,0,87,87,53,1,,,,,,,,
,,,,,,,,,,,,,FF,,,,,,,,0.9832,,,,,,,,,,,,,,,,,,,,,,60fcb5af5bb1bfac226a48e9,610371833abb23392d268f4c,2021-07-29_23h57.00.322,Simcolourproject_2stim_asymm_v5,2020.2.10,Win32,60,61025ae37ef11b136ea224fe,,,,,,,,,2235,60.0000242,-28.16668138,1,0,0,response3disk,,5,24.00002313,-6.8333881,1,0,0,rectangle,24.00002313,-6.8333881,1,0,0,24.00002313,-6.8333881,1,0,0,0,88,88,124,1,,,,,,,,
,,,,,,,,,,,,,FF,,,,,,,,2.3507,,,,,,,,,,,,,,,,,,,,,,60fcb5af5bb1bfac226a48e9,610371833abb23392d268f4c,2021-07-29_23h57.00.322,Simcolourproject_2stim_asymm_v5,2020.2.10,Win32,60,61025ae37ef11b136ea224fe,,,,,,,,,2652,-77.33331323,33.83332047,1,0,0,response7disk,,1,-16.66664475,11.83331981,1,0,0,rectangle,-16.66664475,11.83331981,1,0,0,-16.66664475,11.83331981,1,0,0,0,89,89,0,1,,,,,,,,
,,,,,,,,,,,,,FF,,,,,,,,0.7338,,,,,,,,,,,,,,,,,,,,,,60fcb5af5bb1bfac226a48e9,610371833abb23392d268f4c,2021-07-29_23h57.00.322,Simcolourproject_2stim_asymm_v5,2020.2.10,Win32,60,61025ae37ef11b136ea224fe,,,,,,,,,2400,64.66669101,119.833323,1,0,0,response1disk,,7,-32.66664523,10.49998644,1,0,0,rectangle,-32.66664523,10.49998644,1,0,0,-32.66664523,10.49998644,1,0,0,0,90,90,118,1,,,,,,,,
,,,,,,,,,,,,,FF,,,,,,,,0.8331,,,,,,,,,,,,,,,,,,,,,,60fcb5af5bb1bfac226a48e9,610371833abb23392d268f4c,2021-07-29_23h57.00.322,Simcolourproject_2stim_asymm_v5,2020.2.10,Win32,60,61025ae37ef11b136ea224fe,,,,,,,,,2936,48.66669053,-38.83338905,1,0,0,response3disk,,5,20.66668969,7.166612317,1,0,0,rectangle,20.66668969,7.166612317,1,0,0,20.66668969,7.166612317,1,0,0,0,91,91,144,1,,,,,,,,
,,,,,,,,,,,,,FF,,,,,,,,1.0502,,,,,,,,,,,,,,,,,,,,,,60fcb5af5bb1bfac226a48e9,610371833abb23392d268f4c,2021-07-29_23h57.00.322,Simcolourproject_2stim_asymm_v5,2020.2.10,Win32,60,61025ae37ef11b136ea224fe,,,,,,,,,3532,89.33335841,55.16665444,1,0,0,response1disk,,6,20.00002301,7.833319694,1,0,0,rectangle,20.00002301,7.833319694,1,0,0,20.00002301,7.833319694,1,0,0,0,92,92,10,1,,,,,,,,
,,,,,,,,,,,,,FF,,,,,,,,1.3006,,,,,,,,,,,,,,,,,,,,,,60fcb5af5bb1bfac226a48e9,610371833abb23392d268f4c,2021-07-29_23h57.00.322,Simcolourproject_2stim_asymm_v5,2020.2.10,Win32,60,61025ae37ef11b136ea224fe,,,,,,,,,4097,-58.666646,32.4999871,1,0,0,response7disk,,1,-30.66664517,0.499986142,1,0,0,rectangle,-30.66664517,0.499986142,1,0,0,-30.66664517,0.499986142,1,0,0,0,93,93,119,1,,,,,,,,
,,,,,,,,,,,,,FF,,,,,,,,1.0008,,,,,,,,,,,,,,,,,,,,,,60fcb5af5bb1bfac226a48e9,610371833abb23392d268f4c,2021-07-29_23h57.00.322,Simcolourproject_2stim_asymm_v5,2020.2.10,Win32,60,61025ae37ef11b136ea224fe,,,,,,,,,2902,-71.99997973,-37.50001499,1,0,0,response5disk,,2,-31.33331186,-5.500014037,1,0,0,rectangle,-31.33331186,-5.500014037,1,0,0,-31.33331186,-5.500014037,1,0,0,0,94,94,51,1,,,,,,,,
,,,,,,,,,,,,,FF,,,,,,,,0.7833,,,,,,,,,,,,,,,,,,,,,,60fcb5af5bb1bfac226a48e9,610371833abb23392d268f4c,2021-07-29_23h57.00.322,Simcolourproject_2stim_asymm_v5,2020.2.10,Win32,60,61025ae37ef11b136ea224fe,,,,,,,,,206,52.00002396,57.83332118,1,0,0,response1disk,,7,26.00002319,11.83331981,1,0,0,rectangle,26.00002319,11.83331981,1,0,0,26.00002319,11.83331981,1,0,0,0,95,95,78,1,,,,,,,,
,,,,,,,,,,,,,FF,,,,,,,,1.0012,,,,,,,,,,,,,,,,,,,,,,60fcb5af5bb1bfac226a48e9,610371833abb23392d268f4c,2021-07-29_23h57.00.322,Simcolourproject_2stim_asymm_v5,2020.2.10,Win32,60,61025ae37ef11b136ea224fe,,,,,,,,,1803,52.00002396,84.49998865,1,0,0,response1disk,,7,-3.333311021,14.49998656,1,0,0,rectangle,-3.333311021,14.49998656,1,0,0,-3.333311021,14.49998656,1,0,0,0,96,96,54,1,,,,,,,,
,,,,,,,,,,,,,FF,,,,,,,,0.8005,,,,,,,,,,,,,,,,,,,,,,60fcb5af5bb1bfac226a48e9,610371833abb23392d268f4c,2021-07-29_23h57.00.322,Simcolourproject_2stim_asymm_v5,2020.2.10,Win32,60,61025ae37ef11b136ea224fe,,,,,,,,,1408,45.3333571,31.83332041,1,0,0,response1disk,,6,18.00002295,9.166612377,1,0,0,rectangle,18.00002295,9.166612377,1,0,0,18.00002295,9.166612377,1,0,0,0,97,97,72,1,,,,,,,,
,,,,,,,,,,,,,FF,,,,,,,,1.1829,,,,,,,,,,,,,,,,,,,,,,60fcb5af5bb1bfac226a48e9,610371833abb23392d268f4c,2021-07-29_23h57.00.322,Simcolourproject_2stim_asymm_v5,2020.2.10,Win32,60,61025ae37ef11b136ea224fe,,,,,,,,,1125,57.33335745,31.16665372,1,0,0,response1disk,,6,17.33335626,7.833319694,1,0,0,rectangle,17.33335626,7.833319694,1,0,0,17.33335626,7.833319694,1,0,0,0,98,98,27,1,,,,,,,,
,,,,,,,,,,,,,FF,,,,,,,,1.1002,,,,,,,,,,,,,,,,,,,,,,60fcb5af5bb1bfac226a48e9,610371833abb23392d268f4c,2021-07-29_23h57.00.322,Simcolourproject_2stim_asymm_v5,2020.2.10,Win32,60,61025ae37ef11b136ea224fe,,,,,,,,,3540,65.33335769,80.49998853,1,0,0,response1disk,,7,36.66669017,13.1666125,1,0,0,rectangle,36.66669017,13.1666125,1,0,0,36.66669017,13.1666125,1,0,0,0,99,99,108,1,,,,,,,,
,,,,,,,,,,,,,FF,,,,,,,,1.3336,,,,,,,,,,,,,,,,,,,,,,60fcb5af5bb1bfac226a48e9,610371833abb23392d268f4c,2021-07-29_23h57.00.322,Simcolourproject_2stim_asymm_v5,2020.2.10,Win32,60,61025ae37ef11b136ea224fe,,,,,,,,,344,42.66669035,-25.50001463,1,0,0,response3disk,,5,16.66668957,3.166612198,1,0,0,rectangle,16.66668957,3.166612198,1,0,0,16.66668957,3.166612198,1,0,0,0,100,100,41,1,,,,,,,,
,,,,,,,,,,,,,FF,,,,,,,,1.0669,,,,,,,,,,,,,,,,,,,,,,60fcb5af5bb1bfac226a48e9,610371833abb23392d268f4c,2021-07-29_23h57.00.322,Simcolourproject_2stim_asymm_v5,2020.2.10,Win32,60,61025ae37ef11b136ea224fe,,,,,,,,,1079,-65.33331287,-95.50001672,1,0,0,response5disk,,3,-15.33331138,-13.50001428,1,0,0,rectangle,-15.33331138,-13.50001428,1,0,0,-15.33331138,-13.50001428,1,0,0,0,101,101,43,1,,,,,,,,
,,,,,,,,,,,,,FF,,,,,,,,1.4326,,,,,,,,,,,,,,,,,,,,,,60fcb5af5bb1bfac226a48e9,610371833abb23392d268f4c,2021-07-29_23h57.00.322,Simcolourproject_2stim_asymm_v5,2020.2.10,Win32,60,61025ae37ef11b136ea224fe,,,,,,,,,1524,48.00002384,63.16665468,1,0,0,response1disk,,7,2.666689157,7.166612317,1,0,0,rectangle,2.666689157,7.166612317,1,0,0,2.666689157,7.166612317,1,0,0,0,102,102,111,1,,,,,,,,
,,,,,,,,,,,,,FF,,,,,,,,0.7168,,,,,,,,,,,,,,,,,,,,,,60fcb5af5bb1bfac226a48e9,610371833abb23392d268f4c,2021-07-29_23h57.00.322,Simcolourproject_2stim_asymm_v5,2020.2.10,Win32,60,61025ae37ef11b136ea224fe,,,,,,,,,1396,52.00002396,42.49998739,1,0,0,response1disk,,6,-21.33331156,-8.83338816,1,0,0,rectangle,-21.33331156,-8.83338816,1,0,0,-21.33331156,-8.83338816,1,0,0,0,103,103,105,1,,,,,,,,
,,,,,,,,,,,,,FF,,,,,,,,1.2913,,,,,,,,,,,,,,,,,,,,,,60fcb5af5bb1bfac226a48e9,610371833abb23392d268f4c,2021-07-29_23h57.00.322,Simcolourproject_2stim_asymm_v5,2020.2.10,Win32,60,61025ae37ef11b136ea224fe,,,,,,,,,2841,82.00002486,-46.16668192,1,0,0,response3disk,,5,29.33335662,-11.50001422,1,0,0,rectangle,29.33335662,-11.50001422,1,0,0,29.33335662,-11.50001422,1,0,0,0,104,104,87,1,,,,,,,,
,,,,,,,,,,,,,FF,,,,,,,,1.2177,,,,,,,,,,,,,,,,,,,,,,60fcb5af5bb1bfac226a48e9,610371833abb23392d268f4c,2021-07-29_23h57.00.322,Simcolourproject_2stim_asymm_v5,2020.2.10,Win32,60,61025ae37ef11b136ea224fe,,,,,,,,,173,-29.99997848,91.8333222,1,0,0,response7disk,,0,-25.33331168,6.499986321,1,0,0,rectangle,-25.33331168,6.499986321,1,0,0,-25.33331168,6.499986321,1,0,0,0,105,105,57,1,,,,,,,,
,,,,,,,,,,,,,FF,,,,,,,,0.8005,,,,,,,,,,,,,,,,,,,,,,60fcb5af5bb1bfac226a48e9,610371833abb23392d268f4c,2021-07-29_23h57.00.322,Simcolourproject_2stim_asymm_v5,2020.2.10,Win32,60,61025ae37ef11b136ea224fe,,,,,,,,,4020,-25.99997836,75.16665503,1,0,0,response7disk,,0,-18.66664481,9.833319753,1,0,0,rectangle,-18.66664481,9.833319753,1,0,0,-18.66664481,9.833319753,1,0,0,0,106,106,8,1,,,,,,,,
,,,,,,,,,,,,,FF,,,,,,,,2.0169,,,,,,,,,,,,,,,,,,,,,,60fcb5af5bb1bfac226a48e9,610371833abb23392d268f4c,2021-07-29_23h57.00.322,Simcolourproject_2stim_asymm_v5,2020.2.10,Win32,60,61025ae37ef11b136ea224fe,,,,,,,,,3035,86.66669166,39.83332065,1,0,0,response1disk,,6,12.00002277,-6.166680723,1,0,0,rectangle,12.00002277,-6.166680723,1,0,0,12.00002277,-6.166680723,1,0,0,0,107,107,94,1,,,,,,,,
,,,,,,,,,,,,,FF,,,,,,,,0.8331,,,,,,,,,,,,,,,,,,,,,,60fcb5af5bb1bfac226a48e9,610371833abb23392d268f4c,2021-07-29_23h57.00.322,Simcolourproject_2stim_asymm_v5,2020.2.10,Win32,60,61025ae37ef11b136ea224fe,,,,,,,,,1679,22.00002307,54.49998775,1,0,0,response1disk,,7,3.333355844,12.4999865,1,0,0,rectangle,3.333355844,12.4999865,1,0,0,3.333355844,12.4999865,1,0,0,0,108,108,61,1,,,,,,,,
,,,,,,,,,,,,,FF,,,,,,,,0.6831,,,,,,,,,,,,,,,,,,,,,,60fcb5af5bb1bfac226a48e9,610371833abb23392d268f4c,2021-07-29_23h57.00.322,Simcolourproject_2stim_asymm_v5,2020.2.10,Win32,60,61025ae37ef11b136ea224fe,,,,,,,,,2562,21.33335638,65.83332142,1,0,0,response1disk,,7,-0.666644275,8.49998638,1,0,0,rectangle,-45.33331227,-67.50001588,1,0,0,-16.66664475,2.499986202,1,0,0,0,109,109,1,1,,response5disk_3,TRUE,3,3,"[181,110,69,215,114,84,122,118,260,125,160,133,149,232,252,258,32,59,275,318]",1.9519,rectangle
,,,,,,,,,,,,,FF,,,,,,,,1.1078,,,,,,,,,,,,,,,,,,,,,,60fcb5af5bb1bfac226a48e9,610371833abb23392d268f4c,2021-07-29_23h57.00.322,Simcolourproject_2stim_asymm_v5,2020.2.10,Win32,60,61025ae37ef11b136ea224fe,,,,,,,,,472,27.33335656,113.8333229,1,0,0,response1disk,,7,-21.33331156,10.49998644,1,0,0,rectangle,-21.33331156,10.49998644,1,0,0,-21.33331156,10.49998644,1,0,0,0,110,110,2,1,,,,,,,,
,,,,,,,,,,,,,FF,,,,,,,,1.0001,,,,,,,,,,,,,,,,,,,,,,60fcb5af5bb1bfac226a48e9,610371833abb23392d268f4c,2021-07-29_23h57.00.322,Simcolourproject_2stim_asymm_v5,2020.2.10,Win32,60,61025ae37ef11b136ea224fe,,,,,,,,,2268,36.00002348,25.83332023,1,0,0,response1disk,,6,28.66668993,-2.166680604,1,0,0,rectangle,28.66668993,-2.166680604,1,0,0,28.66668993,-2.166680604,1,0,0,0,111,111,126,1,,,,,,,,
,,,,,,,,,,,,,FF,,,,,,,,1.3359,,,,,,,,,,,,,,,,,,,,,,60fcb5af5bb1bfac226a48e9,610371833abb23392d268f4c,2021-07-29_23h57.00.322,Simcolourproject_2stim_asymm_v5,2020.2.10,Win32,60,61025ae37ef11b136ea224fe,,,,,,,,,2032,-31.33331186,-101.5000169,1,0,0,response5disk,,3,-1.999977648,3.833319575,1,0,0,rectangle,-1.999977648,3.833319575,1,0,0,-1.999977648,3.833319575,1,0,0,0,112,112,32,1,,,,,,,,
,,,,,,,,,,,,,FF,,,,,,,,0.7835,,,,,,,,,,,,,,,,,,,,,,60fcb5af5bb1bfac226a48e9,610371833abb23392d268f4c,2021-07-29_23h57.00.322,Simcolourproject_2stim_asymm_v5,2020.2.10,Win32,60,61025ae37ef11b136ea224fe,,,,,,,,,4158,60.0000242,77.83332178,1,0,0,response1disk,,7,2.24113E-05,-0.833387921,1,0,0,rectangle,54.00002402,99.83332244,1,0,0,-8.666644514,-12.1666809,1,0,0,0,113,113,136,1,,response1disk_3,TRUE,7,7,"[181,110,69,215,114,84,122,118,260,125,160,133,149,232,252,258,32,59,275,318]",5.8,rectangle
,,,,,,,,,,,,,FF,,,,,,,,0.8841,,,,,,,,,,,,,,,,,,,,,,60fcb5af5bb1bfac226a48e9,610371833abb23392d268f4c,2021-07-29_23h57.00.322,Simcolourproject_2stim_asymm_v5,2020.2.10,Win32,60,61025ae37ef11b136ea224fe,,,,,,,,,1346,109.333359,-49.50001535,1,0,0,response3disk,,5,22.66668975,8.49998638,1,0,0,rectangle,22.66668975,8.49998638,1,0,0,22.66668975,8.49998638,1,0,0,0,114,114,28,1,,,,,,,,
,,,,,,,,,,,,,FF,,,,,,,,1.1165,,,,,,,,,,,,,,,,,,,,,,60fcb5af5bb1bfac226a48e9,610371833abb23392d268f4c,2021-07-29_23h57.00.322,Simcolourproject_2stim_asymm_v5,2020.2.10,Win32,60,61025ae37ef11b136ea224fe,,,,,,,,,2395,73.33335793,27.1666536,1,0,0,response1disk,,6,17.33335626,-2.833387981,1,0,0,rectangle,17.33335626,-2.833387981,1,0,0,17.33335626,-2.833387981,1,0,0,0,115,115,74,1,,,,,,,,
,,,,,,,,,,,,,FF,,,,,,,,1.1013,,,,,,,,,,,,,,,,,,,,,,60fcb5af5bb1bfac226a48e9,610371833abb23392d268f4c,2021-07-29_23h57.00.322,Simcolourproject_2stim_asymm_v5,2020.2.10,Win32,60,61025ae37ef11b136ea224fe,,,,,,,,,103,22.66668975,-132.8333919,1,0,0,response3disk,,4,24.00002313,-6.166680723,1,0,0,rectangle,24.00002313,-6.166680723,1,0,0,24.00002313,-6.166680723,1,0,0,0,116,116,39,1,,,,,,,,
,,,,,,,,,,,,,FF,,,,,,,,1.5671,,,,,,,,,,,,,,,,,,,,,,60fcb5af5bb1bfac226a48e9,610371833abb23392d268f4c,2021-07-29_23h57.00.322,Simcolourproject_2stim_asymm_v5,2020.2.10,Win32,60,61025ae37ef11b136ea224fe,,,,,,,,,436,-62.66664612,43.16665408,1,0,0,response7disk,,1,-28.66664511,-8.83338816,1,0,0,rectangle,-37.33331203,101.1666558,1,0,0,2.24113E-05,-4.166680664,1,0,0,0,117,117,112,1,,response7disk_3,TRUE,0,0,"[181,110,69,215,114,84,122,118,260,125,160,133,149,232,252,258,32,59,275,318]",1.4651,rectangle
,,,,,,,,,,,,,FF,,,,,,,,1.9829,,,,,,,,,,,,,,,,,,,,,,60fcb5af5bb1bfac226a48e9,610371833abb23392d268f4c,2021-07-29_23h57.00.322,Simcolourproject_2stim_asymm_v5,2020.2.10,Win32,60,61025ae37ef11b136ea224fe,,,,,,,,,3845,-46.66664565,25.83332023,1,0,0,response7disk,,1,-9.999977887,-5.500014037,1,0,0,rectangle,-9.999977887,-5.500014037,1,0,0,-9.999977887,-5.500014037,1,0,0,0,118,118,65,1,,,,,,,,
,,,,,,,,,,,,,FF,,,,,,,,1.0416,,,,,,,,,,,,,,,,,,,,,,60fcb5af5bb1bfac226a48e9,610371833abb23392d268f4c,2021-07-29_23h57.00.322,Simcolourproject_2stim_asymm_v5,2020.2.10,Win32,60,61025ae37ef11b136ea224fe,,,,,,,,,3354,60.66669089,73.16665497,1,0,0,response1disk,,7,26.66668987,14.49998656,1,0,0,rectangle,26.66668987,14.49998656,1,0,0,26.66668987,14.49998656,1,0,0,0,119,119,130,1,,,,,,,,
,,,,,,,,,,,,,FF,,,,,,,,1.5339,,,,,,,,,,,,,,,,,,,,,,60fcb5af5bb1bfac226a48e9,610371833abb23392d268f4c,2021-07-29_23h57.00.322,Simcolourproject_2stim_asymm_v5,2020.2.10,Win32,60,61025ae37ef11b136ea224fe,,,,,,,,,1557,62.00002426,47.83332089,1,0,0,response1disk,,6,1.333355784,4.499986261,1,0,0,rectangle,1.333355784,4.499986261,1,0,0,1.333355784,4.499986261,1,0,0,0,120,120,7,1,,,,,,,,
,,,,,,,,,,,,,FF,,,,,,,,1.4337,,,,,,,,,,,,,,,,,,,,,,60fcb5af5bb1bfac226a48e9,610371833abb23392d268f4c,2021-07-29_23h57.00.322,Simcolourproject_2stim_asymm_v5,2020.2.10,Win32,60,61025ae37ef11b136ea224fe,,,,,,,,,1038,-33.33331192,-103.500017,1,0,0,response5disk,,3,-9.3333112,3.166612198,1,0,0,rectangle,38.00002354,83.83332196,1,0,0,9.333356023,11.83331981,1,0,0,0,121,121,97,1,,response1disk_3,TRUE,7,7,"[181,110,69,215,114,84,122,118,260,125,160,133,149,232,252,258,32,59,275,318]",1.7028,rectangle
,,,,,,,,,,,,,FF,,,,,,,,0.9658,,,,,,,,,,,,,,,,,,,,,,60fcb5af5bb1bfac226a48e9,610371833abb23392d268f4c,2021-07-29_23h57.00.322,Simcolourproject_2stim_asymm_v5,2020.2.10,Win32,60,61025ae37ef11b136ea224fe,,,,,,,,,3456,63.33335763,71.8333216,1,0,0,response1disk,,7,24.00002313,-12.1666809,1,0,0,rectangle,24.00002313,-12.1666809,1,0,0,24.00002313,-12.1666809,1,0,0,0,122,122,139,1,,,,,,,,
,,,,,,,,,,,,,FF,,,,,,,,1.4501,,,,,,,,,,,,,,,,,,,,,,60fcb5af5bb1bfac226a48e9,610371833abb23392d268f4c,2021-07-29_23h57.00.322,Simcolourproject_2stim_asymm_v5,2020.2.10,Win32,60,61025ae37ef11b136ea224fe,,,,,,,,,962,114.0000258,36.49998721,1,0,0,response1disk,,6,-27.99997842,3.166612198,1,0,0,rectangle,-27.99997842,3.166612198,1,0,0,-27.99997842,3.166612198,1,0,0,0,123,123,52,1,,,,,,,,
,,,,,,,,,,,,,FF,,,,,,,,0.9994,,,,,,,,,,,,,,,,,,,,,,60fcb5af5bb1bfac226a48e9,610371833abb23392d268f4c,2021-07-29_23h57.00.322,Simcolourproject_2stim_asymm_v5,2020.2.10,Win32,60,61025ae37ef11b136ea224fe,,,,,,,,,783,67.33335775,-46.83338929,1,0,0,response3disk,,5,22.66668975,-6.166680723,1,0,0,rectangle,59.33335751,133.8333031,1,0,0,-1.999977648,-6.8333881,1,0,0,0,124,124,133,1,,response1disk_3,TRUE,7,7,"[181,110,69,215,114,84,122,118,260,125,160,133,149,232,252,258,32,59,275,318]",1.3005,rectangle
,,,,,,,,,,,,,FF,,,,,,,,0.9672,,,,,,,,,,,,,,,,,,,,,,60fcb5af5bb1bfac226a48e9,610371833abb23392d268f4c,2021-07-29_23h57.00.322,Simcolourproject_2stim_asymm_v5,2020.2.10,Win32,60,61025ae37ef11b136ea224fe,,,,,,,,,4162,-65.33331287,37.83332059,1,0,0,response7disk,,1,-7.333311141,-12.1666809,1,0,0,rectangle,-7.333311141,-12.1666809,1,0,0,-7.333311141,-12.1666809,1,0,0,0,125,125,103,1,,,,,,,,
,,,,,,,,,,,,,FF,,,,,,,,2.8837,,,,,,,,,,,,,,,,,,,,,,60fcb5af5bb1bfac226a48e9,610371833abb23392d268f4c,2021-07-29_23h57.00.322,Simcolourproject_2stim_asymm_v5,2020.2.10,Win32,60,61025ae37ef11b136ea224fe,,,,,,,,,2784,44.66669041,-75.50001612,1,0,0,response3disk,,4,14.66668952,-18.16668108,1,0,0,rectangle,14.66668952,-18.16668108,1,0,0,14.66668952,-18.16668108,1,0,0,0,126,126,110,1,,,,,,,,
,,,,,,,,,,,,,FF,,,,,,,,2.4836,,,,,,,,,,,,,,,,,,,,,,60fcb5af5bb1bfac226a48e9,610371833abb23392d268f4c,2021-07-29_23h57.00.322,Simcolourproject_2stim_asymm_v5,2020.2.10,Win32,60,61025ae37ef11b136ea224fe,,,,,,,,,4338,30.66668999,-68.83338995,1,0,0,response3disk,,4,2.666689157,-13.50001428,1,0,0,rectangle,2.666689157,-13.50001428,1,0,0,2.666689157,-13.50001428,1,0,0,0,127,127,149,1,,,,,,,,
,,,,,,,,,,,,,FF,,,,,,,,0.7669,,,,,,,,,,,,,,,,,,,,,,60fcb5af5bb1bfac226a48e9,610371833abb23392d268f4c,2021-07-29_23h57.00.322,Simcolourproject_2stim_asymm_v5,2020.2.10,Win32,60,61025ae37ef11b136ea224fe,,,,,,,,,3426,-51.33331245,66.49998811,1,0,0,response7disk,,0,-19.3333115,13.1666125,1,0,0,rectangle,-19.3333115,13.1666125,1,0,0,-19.3333115,13.1666125,1,0,0,0,128,128,30,1,,,,,,,,
,,,,,,,,,,,,,FF,,,,,,,,1.0168,,,,,,,,,,,,,,,,,,,,,,60fcb5af5bb1bfac226a48e9,610371833abb23392d268f4c,2021-07-29_23h57.00.322,Simcolourproject_2stim_asymm_v5,2020.2.10,Win32,60,61025ae37ef11b136ea224fe,,,,,,,,,1595,28.00002325,52.49998769,1,0,0,response1disk,,7,20.66668969,13.1666125,1,0,0,rectangle,20.66668969,13.1666125,1,0,0,20.66668969,13.1666125,1,0,0,0,129,129,24,1,,,,,,,,
,,,,,,,,,,,,,FF,,,,,,,,0.7104,,,,,,,,,,,,,,,,,,,,,,60fcb5af5bb1bfac226a48e9,610371833abb23392d268f4c,2021-07-29_23h57.00.322,Simcolourproject_2stim_asymm_v5,2020.2.10,Win32,60,61025ae37ef11b136ea224fe,,,,,,,,,3468,-22.66664493,41.16665402,1,0,0,response7disk,,0,-26.66664505,2.499986202,1,0,0,rectangle,-26.66664505,2.499986202,1,0,0,-26.66664505,2.499986202,1,0,0,0,130,130,157,1,,,,,,,,
,,,,,,,,,,,,,FF,,,,,,,,0.8511,,,,,,,,,,,,,,,,,,,,,,60fcb5af5bb1bfac226a48e9,610371833abb23392d268f4c,2021-07-29_23h57.00.322,Simcolourproject_2stim_asymm_v5,2020.2.10,Win32,60,61025ae37ef11b136ea224fe,,,,,,,,,2465,65.33335769,22.4999868,1,0,0,response1disk,,6,6.00002259,15.83331993,1,0,0,rectangle,6.00002259,15.83331993,1,0,0,6.00002259,15.83331993,1,0,0,0,131,131,21,1,,,,,,,,
,,,,,,,,,,,,,FF,,,,,,,,1.7453,,,,,,,,,,,,,,,,,,,,,,60fcb5af5bb1bfac226a48e9,610371833abb23392d268f4c,2021-07-29_23h57.00.322,Simcolourproject_2stim_asymm_v5,2020.2.10,Win32,60,61025ae37ef11b136ea224fe,,,,,,,,,99,36.00002348,-88.16668317,1,0,0,response3disk,,4,-19.3333115,-4.83338804,1,0,0,rectangle,40.0000236,87.83332208,1,0,0,-25.99997836,-7.500014096,1,0,0,0,132,132,37,1,,response1disk_3,TRUE,7,7,"[181,110,69,215,114,84,122,118,260,125,160,133,149,232,252,258,32,59,275,318]",2.1168,rectangle
,,,,,,,,,,,,,FF,,,,,,,,1.058,,,,,,,,,,,,,,,,,,,,,,60fcb5af5bb1bfac226a48e9,610371833abb23392d268f4c,2021-07-29_23h57.00.322,Simcolourproject_2stim_asymm_v5,2020.2.10,Win32,60,61025ae37ef11b136ea224fe,,,,,,,,,530,-52.66664582,37.83332059,1,0,0,response7disk,,1,-11.33331126,-10.83338822,1,0,0,rectangle,-11.33331126,-10.83338822,1,0,0,-11.33331126,-10.83338822,1,0,0,0,133,133,116,1,,,,,,,,
,,,,,,,,,,,,,FF,,,,,,,,1.2317,,,,,,,,,,,,,,,,,,,,,,60fcb5af5bb1bfac226a48e9,610371833abb23392d268f4c,2021-07-29_23h57.00.322,Simcolourproject_2stim_asymm_v5,2020.2.10,Win32,60,61025ae37ef11b136ea224fe,,,,,,,,,1421,55.33335739,79.83332184,1,0,0,response1disk,,7,7.333355963,1.833319515,1,0,0,rectangle,7.333355963,1.833319515,1,0,0,7.333355963,1.833319515,1,0,0,0,134,134,3,1,,,,,,,,
,,,,,,,,,,,,,FF,,,,,,,,0.9333,,,,,,,,,,,,,,,,,,,,,,60fcb5af5bb1bfac226a48e9,610371833abb23392d268f4c,2021-07-29_23h57.00.322,Simcolourproject_2stim_asymm_v5,2020.2.10,Win32,60,61025ae37ef11b136ea224fe,,,,,,,,,3671,-47.33331233,25.16665354,1,0,0,response7disk,,1,-30.66664517,-9.500014156,1,0,0,rectangle,-30.66664517,-9.500014156,1,0,0,-30.66664517,-9.500014156,1,0,0,0,135,135,129,1,,,,,,,,
,,,,,,,,,,,,,FF,,,,,,,,0.8002,,,,,,,,,,,,,,,,,,,,,,60fcb5af5bb1bfac226a48e9,610371833abb23392d268f4c,2021-07-29_23h57.00.322,Simcolourproject_2stim_asymm_v5,2020.2.10,Win32,60,61025ae37ef11b136ea224fe,,,,,,,,,2840,-75.33331317,29.83332035,1,0,0,response7disk,,1,-15.33331138,-0.833387921,1,0,0,rectangle,-15.33331138,-0.833387921,1,0,0,-15.33331138,-0.833387921,1,0,0,0,136,136,96,1,,,,,,,,
,,,,,,,,,,,,,FF,,,,,,,,0.7172,,,,,,,,,,,,,,,,,,,,,,60fcb5af5bb1bfac226a48e9,610371833abb23392d268f4c,2021-07-29_23h57.00.322,Simcolourproject_2stim_asymm_v5,2020.2.10,Win32,60,61025ae37ef11b136ea224fe,,,,,,,,,2016,38.66669023,47.1666542,1,0,0,response1disk,,7,14.66668952,16.49998662,1,0,0,rectangle,14.66668952,16.49998662,1,0,0,14.66668952,16.49998662,1,0,0,0,137,137,143,1,,,,,,,,
,,,,,,,,,,,,,FF,,,,,,,,1.9677,,,,,,,,,,,,,,,,,,,,,,60fcb5af5bb1bfac226a48e9,610371833abb23392d268f4c,2021-07-29_23h57.00.322,Simcolourproject_2stim_asymm_v5,2020.2.10,Win32,60,61025ae37ef11b136ea224fe,,,,,,,,,746,80.66669148,71.8333216,1,0,0,response1disk,,6,15.3333562,-5.500014037,1,0,0,rectangle,15.3333562,-5.500014037,1,0,0,15.3333562,-5.500014037,1,0,0,0,138,138,98,1,,,,,,,,
,,,,,,,,,,,,,FF,,,,,,,,0.95,,,,,,,,,,,,,,,,,,,,,,60fcb5af5bb1bfac226a48e9,610371833abb23392d268f4c,2021-07-29_23h57.00.322,Simcolourproject_2stim_asymm_v5,2020.2.10,Win32,60,61025ae37ef11b136ea224fe,,,,,,,,,2128,92.66669184,25.83332023,1,0,0,response1disk,,6,26.66668987,-8.166680783,1,0,0,rectangle,26.66668987,-8.166680783,1,0,0,26.66668987,-8.166680783,1,0,0,0,139,139,159,1,,,,,,,,
,,,,,,,,,,,,,FF,,,,,,,,0.7672,,,,,,,,,,,,,,,,,,,,,,60fcb5af5bb1bfac226a48e9,610371833abb23392d268f4c,2021-07-29_23h57.00.322,Simcolourproject_2stim_asymm_v5,2020.2.10,Win32,60,61025ae37ef11b136ea224fe,,,,,,,,,1256,40.66669029,-18.83338846,1,0,0,response3disk,,5,15.3333562,-9.500014156,1,0,0,rectangle,15.3333562,-9.500014156,1,0,0,15.3333562,-9.500014156,1,0,0,0,140,140,16,1,,,,,,,,
,,,,,,,,,,,,,FF,,,,,,,,1.1171,,,,,,,,,,,,,,,,,,,,,,60fcb5af5bb1bfac226a48e9,610371833abb23392d268f4c,2021-07-29_23h57.00.322,Simcolourproject_2stim_asymm_v5,2020.2.10,Win32,60,61025ae37ef11b136ea224fe,,,,,,,,,254,-83.33331341,43.83332077,1,0,0,response7disk,,1,-17.33331144,3.166612198,1,0,0,rectangle,-17.33331144,3.166612198,1,0,0,-17.33331144,3.166612198,1,0,0,0,141,141,40,1,,,,,,,,
,,,,,,,,,,,,,FF,,,,,,,,0.8831,,,,,,,,,,,,,,,,,,,,,,60fcb5af5bb1bfac226a48e9,610371833abb23392d268f4c,2021-07-29_23h57.00.322,Simcolourproject_2stim_asymm_v5,2020.2.10,Win32,60,61025ae37ef11b136ea224fe,,,,,,,,,2662,-41.99997884,46.49998751,1,0,0,response7disk,,0,-17.99997813,10.49998644,1,0,0,rectangle,-17.99997813,10.49998644,1,0,0,-17.99997813,10.49998644,1,0,0,0,142,142,134,1,,,,,,,,
,,,,,,,,,,,,,FF,,,,,,,,1.2496,,,,,,,,,,,,,,,,,,,,,,60fcb5af5bb1bfac226a48e9,610371833abb23392d268f4c,2021-07-29_23h57.00.322,Simcolourproject_2stim_asymm_v5,2020.2.10,Win32,60,61025ae37ef11b136ea224fe,,,,,,,,,2183,66.00002438,97.83332238,1,0,0,response1disk,,7,15.3333562,-4.166680664,1,0,0,rectangle,15.3333562,-4.166680664,1,0,0,15.3333562,-4.166680664,1,0,0,0,143,143,13,1,,,,,,,,
,,,,,,,,,,,,,FF,,,,,,,,1.217,,,,,,,,,,,,,,,,,,,,,,60fcb5af5bb1bfac226a48e9,610371833abb23392d268f4c,2021-07-29_23h57.00.322,Simcolourproject_2stim_asymm_v5,2020.2.10,Win32,60,61025ae37ef11b136ea224fe,,,,,,,,,3949,-49.33331239,-118.8333914,1,0,0,response5disk,,3,6.00002259,13.83331987,1,0,0,rectangle,6.00002259,13.83331987,1,0,0,6.00002259,13.83331987,1,0,0,0,144,144,153,1,,,,,,,,
,,,,,,,,,,,,,FF,,,,,,,,0.6838,,,,,,,,,,,,,,,,,,,,,,60fcb5af5bb1bfac226a48e9,610371833abb23392d268f4c,2021-07-29_23h57.00.322,Simcolourproject_2stim_asymm_v5,2020.2.10,Win32,60,61025ae37ef11b136ea224fe,,,,,,,,,2487,86.66669166,49.83332095,1,0,0,response1disk,,6,17.33335626,-1.500013918,1,0,0,rectangle,17.33335626,-1.500013918,1,0,0,17.33335626,-1.500013918,1,0,0,0,145,145,109,1,,,,,,,,
,,,,,,,,,,,,,FF,,,,,,,,0.6834,,,,,,,,,,,,,,,,,,,,,,60fcb5af5bb1bfac226a48e9,610371833abb23392d268f4c,2021-07-29_23h57.00.322,Simcolourproject_2stim_asymm_v5,2020.2.10,Win32,60,61025ae37ef11b136ea224fe,,,,,,,,,1018,52.66669065,70.49998823,1,0,0,response1disk,,7,3.333355844,3.166612198,1,0,0,rectangle,3.333355844,3.166612198,1,0,0,3.333355844,3.166612198,1,0,0,0,146,146,92,1,,,,,,,,
,,,,,,,,,,,,,FF,,,,,,,,1.1843,,,,,,,,,,,,,,,,,,,,,,60fcb5af5bb1bfac226a48e9,610371833abb23392d268f4c,2021-07-29_23h57.00.322,Simcolourproject_2stim_asymm_v5,2020.2.10,Win32,60,61025ae37ef11b136ea224fe,,,,,,,,,1221,70.0000245,-59.50001565,1,0,0,response3disk,,5,1.333355784,-0.166680545,1,0,0,rectangle,1.333355784,-0.166680545,1,0,0,1.333355784,-0.166680545,1,0,0,0,147,147,12,1,,,,,,,,
,,,,,,,,,,,,,FF,,,,,,,,2.9991,,,,,,,,,,,,,,,,,,,,,,60fcb5af5bb1bfac226a48e9,610371833abb23392d268f4c,2021-07-29_23h57.00.322,Simcolourproject_2stim_asymm_v5,2020.2.10,Win32,60,61025ae37ef11b136ea224fe,,,,,,,,,1431,76.66669136,-57.50001559,1,0,0,response3disk,,5,20.66668969,6.499986321,1,0,0,rectangle,-26.66664505,90.49998882,1,0,0,11.33335608,-16.8333884,1,0,0,0,148,148,64,1,,response7disk_3,TRUE,0,0,"[181,110,69,215,114,84,122,118,260,125,160,133,149,232,252,258,32,59,275,318]",2.3331,rectangle
,,,,,,,,,,,,,FF,,,,,,,,2.5996,,,,,,,,,,,,,,,,,,,,,,60fcb5af5bb1bfac226a48e9,610371833abb23392d268f4c,2021-07-29_23h57.00.322,Simcolourproject_2stim_asymm_v5,2020.2.10,Win32,60,61025ae37ef11b136ea224fe,,,,,,,,,1258,58.66669083,-93.50001666,1,0,0,response3disk,,4,20.66668969,0.499986142,1,0,0,rectangle,20.66668969,0.499986142,1,0,0,20.66668969,0.499986142,1,0,0,0,149,149,125,1,,,,,,,,
,,,,,,,,,,,,,FF,,,,,,,,1.2845,,,,,,,,,,,,,,,,,,,,,,60fcb5af5bb1bfac226a48e9,610371833abb23392d268f4c,2021-07-29_23h57.00.322,Simcolourproject_2stim_asymm_v5,2020.2.10,Win32,60,61025ae37ef11b136ea224fe,,,,,,,,,2453,31.33335668,74.49998835,1,0,0,response1disk,,7,8.00002265,5.166612258,1,0,0,rectangle,8.00002265,5.166612258,1,0,0,8.00002265,5.166612258,1,0,0,0,150,150,128,1,,,,,,,,
,,,,,,,,,,,,,FF,,,,,,,,2.4074,,,,,,,,,,,,,,,,,,,,,,60fcb5af5bb1bfac226a48e9,610371833abb23392d268f4c,2021-07-29_23h57.00.322,Simcolourproject_2stim_asymm_v5,2020.2.10,Win32,60,61025ae37ef11b136ea224fe,,,,,,,,,4090,30.66668999,109.166656,1,0,0,response1disk,,7,-15.33331138,9.833319753,1,0,0,rectangle,-15.33331138,9.833319753,1,0,0,-15.33331138,9.833319753,1,0,0,0,151,151,58,1,,,,,,,,
,,,,,,,,,,,,,FF,,,,,,,,1.2255,,,,,,,,,,,,,,,,,,,,,,60fcb5af5bb1bfac226a48e9,610371833abb23392d268f4c,2021-07-29_23h57.00.322,Simcolourproject_2stim_asymm_v5,2020.2.10,Win32,60,61025ae37ef11b136ea224fe,,,,,,,,,2002,110.0000257,22.4999868,1,0,0,response1disk,,6,18.66668963,0.499986142,1,0,0,rectangle,18.66668963,0.499986142,1,0,0,18.66668963,0.499986142,1,0,0,0,152,152,99,1,,,,,,,,
,,,,,,,,,,,,,FF,,,,,,,,1.0679,,,,,,,,,,,,,,,,,,,,,,60fcb5af5bb1bfac226a48e9,610371833abb23392d268f4c,2021-07-29_23h57.00.322,Simcolourproject_2stim_asymm_v5,2020.2.10,Win32,60,61025ae37ef11b136ea224fe,,,,,,,,,3405,45.3333571,101.8333225,1,0,0,response1disk,,7,12.00002277,13.83331987,1,0,0,rectangle,12.00002277,13.83331987,1,0,0,12.00002277,13.83331987,1,0,0,0,153,153,106,1,,,,,,,,
,,,,,,,,,,,,,FF,,,,,,,,1.1833,,,,,,,,,,,,,,,,,,,,,,60fcb5af5bb1bfac226a48e9,610371833abb23392d268f4c,2021-07-29_23h57.00.322,Simcolourproject_2stim_asymm_v5,2020.2.10,Win32,60,61025ae37ef11b136ea224fe,,,,,,,,,52,40.66669029,55.16665444,1,0,0,response1disk,,7,30.00002331,16.49998662,1,0,0,rectangle,30.00002331,16.49998662,1,0,0,30.00002331,16.49998662,1,0,0,0,154,154,14,1,,,,,,,,
,,,,,,,,,,,,,FF,,,,,,,,0.7334,,,,,,,,,,,,,,,,,,,,,,60fcb5af5bb1bfac226a48e9,610371833abb23392d268f4c,2021-07-29_23h57.00.322,Simcolourproject_2stim_asymm_v5,2020.2.10,Win32,60,61025ae37ef11b136ea224fe,,,,,,,,,4153,38.66669023,75.83332172,1,0,0,response1disk,,7,18.00002295,5.833319634,1,0,0,rectangle,18.00002295,5.833319634,1,0,0,18.00002295,5.833319634,1,0,0,0,155,155,38,1,,,,,,,,
,,,,,,,,,,,,,FF,,,,,,,,1.1076,,,,,,,,,,,,,,,,,,,,,,60fcb5af5bb1bfac226a48e9,610371833abb23392d268f4c,2021-07-29_23h57.00.322,Simcolourproject_2stim_asymm_v5,2020.2.10,Win32,60,61025ae37ef11b136ea224fe,,,,,,,,,1591,47.33335716,70.49998823,1,0,0,response1disk,,7,4.666689217,5.833319634,1,0,0,rectangle,4.666689217,5.833319634,1,0,0,4.666689217,5.833319634,1,0,0,0,156,156,60,1,,,,,,,,
,,,,,,,,,,,,,FF,,,,,,,,3.0001,,,,,,,,,,,,,,,,,,,,,,60fcb5af5bb1bfac226a48e9,610371833abb23392d268f4c,2021-07-29_23h57.00.322,Simcolourproject_2stim_asymm_v5,2020.2.10,Win32,60,61025ae37ef11b136ea224fe,,,,,,,,,247,94.00002521,-54.83338953,1,0,0,response3disk,,5,-6.666644454,17.83331999,1,0,0,rectangle,-6.666644454,17.83331999,1,0,0,-6.666644454,17.83331999,1,0,0,0,157,157,31,1,,,,,,,,
,,,,,,,,,,,,,FF,,,,,,,,1.35,,,,,,,,,,,,,,,,,,,,,,60fcb5af5bb1bfac226a48e9,610371833abb23392d268f4c,2021-07-29_23h57.00.322,Simcolourproject_2stim_asymm_v5,2020.2.10,Win32,60,61025ae37ef11b136ea224fe,,,,,,,,,1777,52.00002396,44.49998745,1,0,0,response1disk,,6,20.00002301,-7.500014096,1,0,0,rectangle,20.00002301,-7.500014096,1,0,0,20.00002301,-7.500014096,1,0,0,0,158,158,15,1,,,,,,,,
,,,,,,,,,,,,,FF,,,,,,,,0.9158,,,,,,,,,,,,,,,,,,,,,,60fcb5af5bb1bfac226a48e9,610371833abb23392d268f4c,2021-07-29_23h57.00.322,Simcolourproject_2stim_asymm_v5,2020.2.10,Win32,60,61025ae37ef11b136ea224fe,,,,,,,,,1945,56.66669077,91.16665551,1,0,0,response1disk,,7,-20.66664487,-16.8333884,1,0,0,rectangle,29.33335662,91.8333222,1,0,0,-19.99997818,7.833319694,1,0,0,0,159,159,91,1,,response1disk_3,TRUE,7,7,"[181,110,69,215,114,84,122,118,260,125,160,133,149,232,252,258,32,59,275,318]",1.2168,rectangle
,,,,,,,,,,,,,FF,,,,,,,,0.9175,,,,,,,,,,,,,,,,,,,,,,60fcb5af5bb1bfac226a48e9,610371833abb23392d268f4c,2021-07-29_23h57.00.322,Simcolourproject_2stim_asymm_v5,2020.2.10,Win32,60,61025ae37ef11b136ea224fe,,,,,,,,,3097,-17.99997813,98.49998906,1,0,0,response7disk,,0,-9.3333112,-6.166680723,1,0,0,rectangle,-9.3333112,-6.166680723,1,0,0,-9.3333112,-6.166680723,1,0,0,1,0,160,64,1,,,,,,,,
,,,,,,,,,,,,,FF,,,,,,,,1.234,,,,,,,,,,,,,,,,,,,,,,60fcb5af5bb1bfac226a48e9,610371833abb23392d268f4c,2021-07-29_23h57.00.322,Simcolourproject_2stim_asymm_v5,2020.2.10,Win32,60,61025ae37ef11b136ea224fe,,,,,,,,,2136,67.33335775,76.49998841,1,0,0,response1disk,,7,9.333356023,10.49998644,1,0,0,rectangle,9.333356023,10.49998644,1,0,0,9.333356023,10.49998644,1,0,0,1,1,161,140,1,,,,,,,,
,,,,,,,,,,,,,FF,,,,,,,,1.0507,,,,,,,,,,,,,,,,,,,,,,60fcb5af5bb1bfac226a48e9,610371833abb23392d268f4c,2021-07-29_23h57.00.322,Simcolourproject_2stim_asymm_v5,2020.2.10,Win32,60,61025ae37ef11b136ea224fe,,,,,,,,,3597,69.33335781,27.1666536,1,0,0,response1disk,,6,-3.333311021,-10.83338822,1,0,0,rectangle,-3.333311021,-10.83338822,1,0,0,-3.333311021,-10.83338822,1,0,0,1,2,162,41,1,,,,,,,,
,,,,,,,,,,,,,FF,,,,,,,,0.9095,,,,,,,,,,,,,,,,,,,,,,60fcb5af5bb1bfac226a48e9,610371833abb23392d268f4c,2021-07-29_23h57.00.322,Simcolourproject_2stim_asymm_v5,2020.2.10,Win32,60,61025ae37ef11b136ea224fe,,,,,,,,,4011,26.66668987,81.8333219,1,0,0,response1disk,,7,-21.33331156,3.833319575,1,0,0,rectangle,-21.33331156,3.833319575,1,0,0,-21.33331156,3.833319575,1,0,0,1,3,163,94,1,,,,,,,,
,,,,,,,,,,,,,FF,,,,,,,,1.0246,,,,,,,,,,,,,,,,,,,,,,60fcb5af5bb1bfac226a48e9,610371833abb23392d268f4c,2021-07-29_23h57.00.322,Simcolourproject_2stim_asymm_v5,2020.2.10,Win32,60,61025ae37ef11b136ea224fe,,,,,,,,,2535,58.00002414,-38.83338905,1,0,0,response3disk,,5,-9.3333112,15.83331993,1,0,0,rectangle,-9.3333112,15.83331993,1,0,0,-9.3333112,15.83331993,1,0,0,1,4,164,109,1,,,,,,,,
,,,,,,,,,,,,,FF,,,,,,,,0.8849,,,,,,,,,,,,,,,,,,,,,,60fcb5af5bb1bfac226a48e9,610371833abb23392d268f4c,2021-07-29_23h57.00.322,Simcolourproject_2stim_asymm_v5,2020.2.10,Win32,60,61025ae37ef11b136ea224fe,,,,,,,,,4228,71.33335787,100.4999891,1,0,0,response1disk,,7,-24.66664499,1.833319515,1,0,0,rectangle,-24.66664499,1.833319515,1,0,0,-24.66664499,1.833319515,1,0,0,1,5,165,60,1,,,,,,,,
,,,,,,,,,,,,,FF,,,,,,,,0.8158,,,,,,,,,,,,,,,,,,,,,,60fcb5af5bb1bfac226a48e9,610371833abb23392d268f4c,2021-07-29_23h57.00.322,Simcolourproject_2stim_asymm_v5,2020.2.10,Win32,60,61025ae37ef11b136ea224fe,,,,,,,,,2277,32.00002337,27.83332029,1,0,0,response1disk,,6,-7.999977827,7.833319694,1,0,0,rectangle,-7.999977827,7.833319694,1,0,0,-7.999977827,7.833319694,1,0,0,1,6,166,142,1,,,,,,,,
,,,,,,,,,,,,,FF,,,,,,,,3.9755,,,,,,,,,,,,,,,,,,,,,,60fcb5af5bb1bfac226a48e9,610371833abb23392d268f4c,2021-07-29_23h57.00.322,Simcolourproject_2stim_asymm_v5,2020.2.10,Win32,60,61025ae37ef11b136ea224fe,,,,,,,,,2163,55.33335739,-36.16668162,1,0,0,response3disk,,5,6.666689277,-2.833387981,1,0,0,rectangle,6.666689277,-2.833387981,1,0,0,6.666689277,-2.833387981,1,0,0,1,7,167,139,1,,,,,,,,
,,,,,,,,,,,,,FF,,,,,,,,0.9094,,,,,,,,,,,,,,,,,,,,,,60fcb5af5bb1bfac226a48e9,610371833abb23392d268f4c,2021-07-29_23h57.00.322,Simcolourproject_2stim_asymm_v5,2020.2.10,Win32,60,61025ae37ef11b136ea224fe,,,,,,,,,1835,40.0000236,-76.83339019,1,0,0,response3disk,,4,31.33335668,-13.50001428,1,0,0,rectangle,31.33335668,-13.50001428,1,0,0,31.33335668,-13.50001428,1,0,0,1,8,168,136,1,,,,,,,,
,,,,,,,,,,,,,FF,,,,,,,,0.9313,,,,,,,,,,,,,,,,,,,,,,60fcb5af5bb1bfac226a48e9,610371833abb23392d268f4c,2021-07-29_23h57.00.322,Simcolourproject_2stim_asymm_v5,2020.2.10,Win32,60,61025ae37ef11b136ea224fe,,,,,,,,,1435,50.66669059,-46.83338929,1,0,0,response3disk,,5,20.66668969,5.166612258,1,0,0,rectangle,20.66668969,5.166612258,1,0,0,20.66668969,5.166612258,1,0,0,1,9,169,36,1,,,,,,,,
,,,,,,,,,,,,,FF,,,,,,,,1.0184,,,,,,,,,,,,,,,,,,,,,,60fcb5af5bb1bfac226a48e9,610371833abb23392d268f4c,2021-07-29_23h57.00.322,Simcolourproject_2stim_asymm_v5,2020.2.10,Win32,60,61025ae37ef11b136ea224fe,,,,,,,,,3020,42.66669035,75.16665503,1,0,0,response1disk,,7,11.33335608,-8.83338816,1,0,0,rectangle,11.33335608,-8.83338816,1,0,0,11.33335608,-8.83338816,1,0,0,1,10,170,51,1,,,,,,,,
,,,,,,,,,,,,,FF,,,,,,,,1.5824,,,,,,,,,,,,,,,,,,,,,,60fcb5af5bb1bfac226a48e9,610371833abb23392d268f4c,2021-07-29_23h57.00.322,Simcolourproject_2stim_asymm_v5,2020.2.10,Win32,60,61025ae37ef11b136ea224fe,,,,,,,,,677,64.00002432,-80.83339031,1,0,0,response3disk,,4,36.00002348,1.833319515,1,0,0,rectangle,36.00002348,1.833319515,1,0,0,36.00002348,1.833319515,1,0,0,1,11,171,62,1,,,,,,,,
,,,,,,,,,,,,,FF,,,,,,,,0.841,,,,,,,,,,,,,,,,,,,,,,60fcb5af5bb1bfac226a48e9,610371833abb23392d268f4c,2021-07-29_23h57.00.322,Simcolourproject_2stim_asymm_v5,2020.2.10,Win32,60,61025ae37ef11b136ea224fe,,,,,,,,,310,72.66669124,-44.16668186,1,0,0,response3disk,,5,22.66668975,-2.166680604,1,0,0,rectangle,22.66668975,-2.166680604,1,0,0,22.66668975,-2.166680604,1,0,0,1,12,172,95,1,,,,,,,,
,,,,,,,,,,,,,FF,,,,,,,,1.2663,,,,,,,,,,,,,,,,,,,,,,60fcb5af5bb1bfac226a48e9,610371833abb23392d268f4c,2021-07-29_23h57.00.322,Simcolourproject_2stim_asymm_v5,2020.2.10,Win32,60,61025ae37ef11b136ea224fe,,,,,,,,,2090,42.00002366,63.83332136,1,0,0,response1disk,,7,-6.666644454,-6.166680723,1,0,0,rectangle,-6.666644454,-6.166680723,1,0,0,-6.666644454,-6.166680723,1,0,0,1,13,173,99,1,,,,,,,,
,,,,,,,,,,,,,FF,,,,,,,,1.1335,,,,,,,,,,,,,,,,,,,,,,60fcb5af5bb1bfac226a48e9,610371833abb23392d268f4c,2021-07-29_23h57.00.322,Simcolourproject_2stim_asymm_v5,2020.2.10,Win32,60,61025ae37ef11b136ea224fe,,,,,,,,,2321,30.00002331,88.49998876,1,0,0,response1disk,,7,-9.3333112,3.166612198,1,0,0,rectangle,-9.3333112,3.166612198,1,0,0,-9.3333112,3.166612198,1,0,0,1,14,174,112,1,,,,,,,,
,,,,,,,,,,,,,FF,,,,,,,,2.0004,,,,,,,,,,,,,,,,,,,,,,60fcb5af5bb1bfac226a48e9,610371833abb23392d268f4c,2021-07-29_23h57.00.322,Simcolourproject_2stim_asymm_v5,2020.2.10,Win32,60,61025ae37ef11b136ea224fe,,,,,,,,,804,-97.33331382,-24.83338864,1,0,0,response5disk,,2,-14.66664469,1.833319515,1,0,0,rectangle,-14.66664469,1.833319515,1,0,0,-14.66664469,1.833319515,1,0,0,1,15,175,130,1,,,,,,,,
,,,,,,,,,,,,,FF,,,,,,,,1.1177,,,,,,,,,,,,,,,,,,,,,,60fcb5af5bb1bfac226a48e9,610371833abb23392d268f4c,2021-07-29_23h57.00.322,Simcolourproject_2stim_asymm_v5,2020.2.10,Win32,60,61025ae37ef11b136ea224fe,,,,,,,,,3519,60.0000242,-39.50001505,1,0,0,response3disk,,5,3.333355844,1.166612138,1,0,0,rectangle,3.333355844,1.166612138,1,0,0,3.333355844,1.166612138,1,0,0,1,16,176,5,1,,,,,,,,
,,,,,,,,,,,,,FF,,,,,,,,2.6737,,,,,,,,,,,,,,,,,,,,,,60fcb5af5bb1bfac226a48e9,610371833abb23392d268f4c,2021-07-29_23h57.00.322,Simcolourproject_2stim_asymm_v5,2020.2.10,Win32,60,61025ae37ef11b136ea224fe,,,,,,,,,3846,-35.33331198,-106.8333911,1,0,0,response5disk,,3,-1.333310962,-13.50001428,1,0,0,rectangle,-1.333310962,-13.50001428,1,0,0,-1.333310962,-13.50001428,1,0,0,1,17,177,131,1,,,,,,,,
,,,,,,,,,,,,,FF,,,,,,,,0.8825,,,,,,,,,,,,,,,,,,,,,,60fcb5af5bb1bfac226a48e9,610371833abb23392d268f4c,2021-07-29_23h57.00.322,Simcolourproject_2stim_asymm_v5,2020.2.10,Win32,60,61025ae37ef11b136ea224fe,,,,,,,,,3072,52.66669065,92.49998888,1,0,0,response1disk,,7,-10.66664457,-2.833387981,1,0,0,rectangle,-10.66664457,-2.833387981,1,0,0,-10.66664457,-2.833387981,1,0,0,1,18,178,31,1,,,,,,,,
,,,,,,,,,,,,,FF,,,,,,,,1.1365,,,,,,,,,,,,,,,,,,,,,,60fcb5af5bb1bfac226a48e9,610371833abb23392d268f4c,2021-07-29_23h57.00.322,Simcolourproject_2stim_asymm_v5,2020.2.10,Win32,60,61025ae37ef11b136ea224fe,,,,,,,,,3073,69.33335781,21.16661273,1,0,0,response1disk,,6,1.333355784,-5.500014037,1,0,0,rectangle,1.333355784,-5.500014037,1,0,0,1.333355784,-5.500014037,1,0,0,1,19,179,17,1,,,,,,,,
,,,,,,,,,,,,,FF,,,,,,,,2.2675,,,,,,,,,,,,,,,,,,,,,,60fcb5af5bb1bfac226a48e9,610371833abb23392d268f4c,2021-07-29_23h57.00.322,Simcolourproject_2stim_asymm_v5,2020.2.10,Win32,60,61025ae37ef11b136ea224fe,,,,,,,,,3703,41.33335698,16.49998662,1,0,0,response1disk,,6,22.66668975,15.16661256,1,0,0,rectangle,41.33335698,78.49998847,1,0,0,12.66668946,-0.833387921,1,0,0,1,20,180,89,1,,response1disk_3,TRUE,7,7,"[181,110,69,215,114,84,122,118,260,125,160,133,149,232,252,258,32,59,275,318]",5.6495,rectangle
,,,,,,,,,,,,,FF,,,,,,,,0.8513,,,,,,,,,,,,,,,,,,,,,,60fcb5af5bb1bfac226a48e9,610371833abb23392d268f4c,2021-07-29_23h57.00.322,Simcolourproject_2stim_asymm_v5,2020.2.10,Win32,60,61025ae37ef11b136ea224fe,,,,,,,,,2355,-52.66664582,85.16665533,1,0,0,response7disk,,0,-11.33331126,-8.83338816,1,0,0,rectangle,-11.33331126,-8.83338816,1,0,0,-11.33331126,-8.83338816,1,0,0,1,21,181,12,1,,,,,,,,
,,,,,,,,,,,,,FF,,,,,,,,1.7175,,,,,,,,,,,,,,,,,,,,,,60fcb5af5bb1bfac226a48e9,610371833abb23392d268f4c,2021-07-29_23h57.00.322,Simcolourproject_2stim_asymm_v5,2020.2.10,Win32,60,61025ae37ef11b136ea224fe,,,,,,,,,3100,-46.66664565,47.1666542,1,0,0,response7disk,,0,-23.9999783,-0.833387921,1,0,0,rectangle,-23.9999783,-0.833387921,1,0,0,-23.9999783,-0.833387921,1,0,0,1,22,182,126,1,,,,,,,,
,,,,,,,,,,,,,FF,,,,,,,,1.3339,,,,,,,,,,,,,,,,,,,,,,60fcb5af5bb1bfac226a48e9,610371833abb23392d268f4c,2021-07-29_23h57.00.322,Simcolourproject_2stim_asymm_v5,2020.2.10,Win32,60,61025ae37ef11b136ea224fe,,,,,,,,,1480,25.3333565,46.49998751,1,0,0,response1disk,,7,10.6666894,1.833319515,1,0,0,rectangle,10.6666894,1.833319515,1,0,0,10.6666894,1.833319515,1,0,0,1,23,183,3,1,,,,,,,,
,,,,,,,,,,,,,FF,,,,,,,,1.0672,,,,,,,,,,,,,,,,,,,,,,60fcb5af5bb1bfac226a48e9,610371833abb23392d268f4c,2021-07-29_23h57.00.322,Simcolourproject_2stim_asymm_v5,2020.2.10,Win32,60,61025ae37ef11b136ea224fe,,,,,,,,,2377,65.33335769,43.83332077,1,0,0,response1disk,,6,6.00002259,-4.83338804,1,0,0,rectangle,6.00002259,-4.83338804,1,0,0,6.00002259,-4.83338804,1,0,0,1,24,184,49,1,,,,,,,,
,,,,,,,,,,,,,FF,,,,,,,,0.8176,,,,,,,,,,,,,,,,,,,,,,60fcb5af5bb1bfac226a48e9,610371833abb23392d268f4c,2021-07-29_23h57.00.322,Simcolourproject_2stim_asymm_v5,2020.2.10,Win32,60,61025ae37ef11b136ea224fe,,,,,,,,,1429,53.33335733,-60.16668233,1,0,0,response3disk,,4,-3.333311021,-9.500014156,1,0,0,rectangle,-3.333311021,-9.500014156,1,0,0,-3.333311021,-9.500014156,1,0,0,1,25,185,100,1,,,,,,,,
,,,,,,,,,,,,,FF,,,,,,,,0.7665,,,,,,,,,,,,,,,,,,,,,,60fcb5af5bb1bfac226a48e9,610371833abb23392d268f4c,2021-07-29_23h57.00.322,Simcolourproject_2stim_asymm_v5,2020.2.10,Win32,60,61025ae37ef11b136ea224fe,,,,,,,,,3942,-67.33331293,-37.50001499,1,0,0,response5disk,,2,-8.666644514,2.499986202,1,0,0,rectangle,-8.666644514,2.499986202,1,0,0,-8.666644514,2.499986202,1,0,0,1,26,186,106,1,,,,,,,,
,,,,,,,,,,,,,FF,,,,,,,,1.2834,,,,,,,,,,,,,,,,,,,,,,60fcb5af5bb1bfac226a48e9,610371833abb23392d268f4c,2021-07-29_23h57.00.322,Simcolourproject_2stim_asymm_v5,2020.2.10,Win32,60,61025ae37ef11b136ea224fe,,,,,,,,,2011,39.33335692,99.16665575,1,0,0,response1disk,,7,6.00002259,15.83331993,1,0,0,rectangle,6.00002259,15.83331993,1,0,0,6.00002259,15.83331993,1,0,0,1,27,187,149,1,,,,,,,,
,,,,,,,,,,,,,FF,,,,,,,,0.8832,,,,,,,,,,,,,,,,,,,,,,60fcb5af5bb1bfac226a48e9,610371833abb23392d268f4c,2021-07-29_23h57.00.322,Simcolourproject_2stim_asymm_v5,2020.2.10,Win32,60,61025ae37ef11b136ea224fe,,,,,,,,,1792,70.66669118,-32.1666815,1,0,0,response3disk,,5,-25.33331168,9.833319753,1,0,0,rectangle,-25.33331168,9.833319753,1,0,0,-25.33331168,9.833319753,1,0,0,1,28,188,66,1,,,,,,,,
,,,,,,,,,,,,,FF,,,,,,,,1.751,,,,,,,,,,,,,,,,,,,,,,60fcb5af5bb1bfac226a48e9,610371833abb23392d268f4c,2021-07-29_23h57.00.322,Simcolourproject_2stim_asymm_v5,2020.2.10,Win32,60,61025ae37ef11b136ea224fe,,,,,,,,,98,38.66669023,-88.16668317,1,0,0,response3disk,,4,-13.99997801,-0.833387921,1,0,0,rectangle,-13.99997801,-0.833387921,1,0,0,-13.99997801,-0.833387921,1,0,0,1,29,189,15,1,,,,,,,,
,,,,,,,,,,,,,FF,,,,,,,,0.9833,,,,,,,,,,,,,,,,,,,,,,60fcb5af5bb1bfac226a48e9,610371833abb23392d268f4c,2021-07-29_23h57.00.322,Simcolourproject_2stim_asymm_v5,2020.2.10,Win32,60,61025ae37ef11b136ea224fe,,,,,,,,,3156,-43.9999789,74.49998835,1,0,0,response7disk,,0,-7.333311141,-0.166680545,1,0,0,rectangle,-7.333311141,-0.166680545,1,0,0,-7.333311141,-0.166680545,1,0,0,1,30,190,108,1,,,,,,,,
,,,,,,,,,,,,,FF,,,,,,,,0.9499,,,,,,,,,,,,,,,,,,,,,,60fcb5af5bb1bfac226a48e9,610371833abb23392d268f4c,2021-07-29_23h57.00.322,Simcolourproject_2stim_asymm_v5,2020.2.10,Win32,60,61025ae37ef11b136ea224fe,,,,,,,,,3171,39.33335692,46.49998751,1,0,0,response1disk,,7,-3.333311021,-9.500014156,1,0,0,rectangle,-3.333311021,-9.500014156,1,0,0,-3.333311021,-9.500014156,1,0,0,1,31,191,55,1,,,,,,,,
,,,,,,,,,,,,,FF,,,,,,,,3.3999,,,,,,,,,,,,,,,,,,,,,,60fcb5af5bb1bfac226a48e9,610371833abb23392d268f4c,2021-07-29_23h57.00.322,Simcolourproject_2stim_asymm_v5,2020.2.10,Win32,60,61025ae37ef11b136ea224fe,,,,,,,,,2182,120.000026,53.16665438,1,0,0,response1disk,,6,24.66668981,17.16661262,1,0,0,rectangle,24.66668981,17.16661262,1,0,0,24.66668981,17.16661262,1,0,0,1,32,192,11,1,,,,,,,,
,,,,,,,,,,,,,FF,,,,,,,,0.6502,,,,,,,,,,,,,,,,,,,,,,60fcb5af5bb1bfac226a48e9,610371833abb23392d268f4c,2021-07-29_23h57.00.322,Simcolourproject_2stim_asymm_v5,2020.2.10,Win32,60,61025ae37ef11b136ea224fe,,,,,,,,,19,25.3333565,57.1666545,1,0,0,response1disk,,7,8.00002265,2.499986202,1,0,0,rectangle,8.00002265,2.499986202,1,0,0,8.00002265,2.499986202,1,0,0,1,33,193,45,1,,,,,,,,
,,,,,,,,,,,,,FF,,,,,,,,0.6335,,,,,,,,,,,,,,,,,,,,,,60fcb5af5bb1bfac226a48e9,610371833abb23392d268f4c,2021-07-29_23h57.00.322,Simcolourproject_2stim_asymm_v5,2020.2.10,Win32,60,61025ae37ef11b136ea224fe,,,,,,,,,3985,38.66669023,55.16665444,1,0,0,response1disk,,7,6.666689277,-1.500013918,1,0,0,rectangle,6.666689277,-1.500013918,1,0,0,6.666689277,-1.500013918,1,0,0,1,34,194,58,1,,,,,,,,
,,,,,,,,,,,,,FF,,,,,,,,0.7508,,,,,,,,,,,,,,,,,,,,,,60fcb5af5bb1bfac226a48e9,610371833abb23392d268f4c,2021-07-29_23h57.00.322,Simcolourproject_2stim_asymm_v5,2020.2.10,Win32,60,61025ae37ef11b136ea224fe,,,,,,,,,2311,82.66669154,19.83332005,1,0,0,response1disk,,6,24.00002313,0.499986142,1,0,0,rectangle,24.00002313,0.499986142,1,0,0,24.00002313,0.499986142,1,0,0,1,35,195,159,1,,,,,,,,
,,,,,,,,,,,,,FF,,,,,,,,0.7511,,,,,,,,,,,,,,,,,,,,,,60fcb5af5bb1bfac226a48e9,610371833abb23392d268f4c,2021-07-29_23h57.00.322,Simcolourproject_2stim_asymm_v5,2020.2.10,Win32,60,61025ae37ef11b136ea224fe,,,,,,,,,2426,42.00002366,33.16665378,1,0,0,response1disk,,6,32.00002337,-6.166680723,1,0,0,rectangle,32.00002337,-6.166680723,1,0,0,32.00002337,-6.166680723,1,0,0,1,36,196,85,1,,,,,,,,
,,,,,,,,,,,,,FF,,,,,,,,13.8168,,,,,,,,,,,,,,,,,,,,,,60fcb5af5bb1bfac226a48e9,610371833abb23392d268f4c,2021-07-29_23h57.00.322,Simcolourproject_2stim_asymm_v5,2020.2.10,Win32,60,61025ae37ef11b136ea224fe,,,,,,,,,1799,112.0000257,-31.50001481,1,0,0,response3disk,,5,-19.99997818,12.4999865,1,0,0,rectangle,-19.99997818,12.4999865,1,0,0,-19.99997818,12.4999865,1,0,0,1,37,197,127,1,,,,,,,,
,,,,,,,,,,,,,FF,,,,,,,,1.2004,,,,,,,,,,,,,,,,,,,,,,60fcb5af5bb1bfac226a48e9,610371833abb23392d268f4c,2021-07-29_23h57.00.322,Simcolourproject_2stim_asymm_v5,2020.2.10,Win32,60,61025ae37ef11b136ea224fe,,,,,,,,,3778,-57.99997932,38.49998727,1,0,0,response7disk,,1,-21.33331156,3.166612198,1,0,0,rectangle,-21.33331156,3.166612198,1,0,0,-21.33331156,3.166612198,1,0,0,1,38,198,154,1,,,,,,,,
,,,,,,,,,,,,,FF,,,,,,,,1.566,,,,,,,,,,,,,,,,,,,,,,60fcb5af5bb1bfac226a48e9,610371833abb23392d268f4c,2021-07-29_23h57.00.322,Simcolourproject_2stim_asymm_v5,2020.2.10,Win32,60,61025ae37ef11b136ea224fe,,,,,,,,,1313,53.33335733,20.49998674,1,0,0,response1disk,,6,32.66669005,5.166612258,1,0,0,rectangle,32.66669005,5.166612258,1,0,0,32.66669005,5.166612258,1,0,0,1,39,199,57,1,,,,,,,,
,,,,,,,,,,,,,FF,,,,,,,,1.6805,,,,,,,,,,,,,,,,,,,,,,60fcb5af5bb1bfac226a48e9,610371833abb23392d268f4c,2021-07-29_23h57.00.322,Simcolourproject_2stim_asymm_v5,2020.2.10,Win32,60,61025ae37ef11b136ea224fe,,,,,,,,,1462,-18.66664481,-78.16668287,1,0,0,response5disk,,3,-8.666644514,-11.50001422,1,0,0,rectangle,-8.666644514,-11.50001422,1,0,0,-8.666644514,-11.50001422,1,0,0,1,40,200,42,1,,,,,,,,
,,,,,,,,,,,,,FF,,,,,,,,1.3992,,,,,,,,,,,,,,,,,,,,,,60fcb5af5bb1bfac226a48e9,610371833abb23392d268f4c,2021-07-29_23h57.00.322,Simcolourproject_2stim_asymm_v5,2020.2.10,Win32,60,61025ae37ef11b136ea224fe,,,,,,,,,2407,30.00002331,77.16665509,1,0,0,response1disk,,7,28.66668993,7.833319694,1,0,0,rectangle,28.66668993,7.833319694,1,0,0,28.66668993,7.833319694,1,0,0,1,41,201,4,1,,,,,,,,
,,,,,,,,,,,,,FF,,,,,,,,6.8174,,,,,,,,,,,,,,,,,,,,,,60fcb5af5bb1bfac226a48e9,610371833abb23392d268f4c,2021-07-29_23h57.00.322,Simcolourproject_2stim_asymm_v5,2020.2.10,Win32,60,61025ae37ef11b136ea224fe,,,,,,,,,816,29.33335662,-123.5000176,1,0,0,response3disk,,4,27.33335656,-16.16668102,1,0,0,rectangle,27.33335656,-16.16668102,1,0,0,27.33335656,-16.16668102,1,0,0,1,42,202,67,1,,,,,,,,
,,,,,,,,,,,,,FF,,,,,,,,0.8831,,,,,,,,,,,,,,,,,,,,,,60fcb5af5bb1bfac226a48e9,610371833abb23392d268f4c,2021-07-29_23h57.00.322,Simcolourproject_2stim_asymm_v5,2020.2.10,Win32,60,61025ae37ef11b136ea224fe,,,,,,,,,3552,-28.66664511,67.1666548,1,0,0,response7disk,,0,-33.9999786,-4.83338804,1,0,0,rectangle,-33.9999786,-4.83338804,1,0,0,-33.9999786,-4.83338804,1,0,0,1,43,203,151,1,,,,,,,,
,,,,,,,,,,,,,FF,,,,,,,,1.1671,,,,,,,,,,,,,,,,,,,,,,60fcb5af5bb1bfac226a48e9,610371833abb23392d268f4c,2021-07-29_23h57.00.322,Simcolourproject_2stim_asymm_v5,2020.2.10,Win32,60,61025ae37ef11b136ea224fe,,,,,,,,,316,24.66668981,61.16665462,1,0,0,response1disk,,7,10.6666894,5.833319634,1,0,0,rectangle,10.6666894,5.833319634,1,0,0,10.6666894,5.833319634,1,0,0,1,44,204,39,1,,,,,,,,
,,,,,,,,,,,,,FF,,,,,,,,1.0087,,,,,,,,,,,,,,,,,,,,,,60fcb5af5bb1bfac226a48e9,610371833abb23392d268f4c,2021-07-29_23h57.00.322,Simcolourproject_2stim_asymm_v5,2020.2.10,Win32,60,61025ae37ef11b136ea224fe,,,,,,,,,507,20.00002301,43.83332077,1,0,0,response1disk,,7,10.6666894,-1.500013918,1,0,0,rectangle,10.6666894,-1.500013918,1,0,0,10.6666894,-1.500013918,1,0,0,1,45,205,33,1,,,,,,,,
,,,,,,,,,,,,,FF,,,,,,,,0.917,,,,,,,,,,,,,,,,,,,,,,60fcb5af5bb1bfac226a48e9,610371833abb23392d268f4c,2021-07-29_23h57.00.322,Simcolourproject_2stim_asymm_v5,2020.2.10,Win32,60,61025ae37ef11b136ea224fe,,,,,,,,,2994,42.00002366,35.16665384,1,0,0,response1disk,,6,-1.333310962,-4.166680664,1,0,0,rectangle,-1.333310962,-4.166680664,1,0,0,-1.333310962,-4.166680664,1,0,0,1,46,206,76,1,,,,,,,,
,,,,,,,,,,,,,FF,,,,,,,,1.416,,,,,,,,,,,,,,,,,,,,,,60fcb5af5bb1bfac226a48e9,610371833abb23392d268f4c,2021-07-29_23h57.00.322,Simcolourproject_2stim_asymm_v5,2020.2.10,Win32,60,61025ae37ef11b136ea224fe,,,,,,,,,1141,29.33335662,55.16665444,1,0,0,response1disk,,7,2.24113E-05,-5.500014037,1,0,0,rectangle,2.24113E-05,-5.500014037,1,0,0,2.24113E-05,-5.500014037,1,0,0,1,47,207,16,1,,,,,,,,
,,,,,,,,,,,,,FF,,,,,,,,1.0334,,,,,,,,,,,,,,,,,,,,,,60fcb5af5bb1bfac226a48e9,610371833abb23392d268f4c,2021-07-29_23h57.00.322,Simcolourproject_2stim_asymm_v5,2020.2.10,Win32,60,61025ae37ef11b136ea224fe,,,,,,,,,2409,25.3333565,57.83332118,1,0,0,response1disk,,7,-5.333311081,16.49998662,1,0,0,rectangle,-5.333311081,16.49998662,1,0,0,-5.333311081,16.49998662,1,0,0,1,48,208,88,1,,,,,,,,
,,,,,,,,,,,,,FF,,,,,,,,3.1496,,,,,,,,,,,,,,,,,,,,,,60fcb5af5bb1bfac226a48e9,610371833abb23392d268f4c,2021-07-29_23h57.00.322,Simcolourproject_2stim_asymm_v5,2020.2.10,Win32,60,61025ae37ef11b136ea224fe,,,,,,,,,3399,58.66669083,-59.50001565,1,0,0,response3disk,,4,-0.666644275,-6.8333881,1,0,0,rectangle,-0.666644275,-6.8333881,1,0,0,-0.666644275,-6.8333881,1,0,0,1,49,209,129,1,,,,,,,,
,,,,,,,,,,,,,FF,,,,,,,,1.4169,,,,,,,,,,,,,,,,,,,,,,60fcb5af5bb1bfac226a48e9,610371833abb23392d268f4c,2021-07-29_23h57.00.322,Simcolourproject_2stim_asymm_v5,2020.2.10,Win32,60,61025ae37ef11b136ea224fe,,,,,,,,,3602,34.66669011,47.1666542,1,0,0,response1disk,,7,31.33335668,-5.500014037,1,0,0,rectangle,31.33335668,-5.500014037,1,0,0,31.33335668,-5.500014037,1,0,0,1,50,210,153,1,,,,,,,,
,,,,,,,,,,,,,FF,,,,,,,,0.8449,,,,,,,,,,,,,,,,,,,,,,60fcb5af5bb1bfac226a48e9,610371833abb23392d268f4c,2021-07-29_23h57.00.322,Simcolourproject_2stim_asymm_v5,2020.2.10,Win32,60,61025ae37ef11b136ea224fe,,,,,,,,,3748,53.33335733,77.16665509,1,0,0,response1disk,,7,16.00002289,-4.166680664,1,0,0,rectangle,16.00002289,-4.166680664,1,0,0,16.00002289,-4.166680664,1,0,0,1,51,211,71,1,,,,,,,,
,,,,,,,,,,,,,FF,,,,,,,,0.8169,,,,,,,,,,,,,,,,,,,,,,60fcb5af5bb1bfac226a48e9,610371833abb23392d268f4c,2021-07-29_23h57.00.322,Simcolourproject_2stim_asymm_v5,2020.2.10,Win32,60,61025ae37ef11b136ea224fe,,,,,,,,,1667,27.33335656,51.16665432,1,0,0,response1disk,,7,-13.99997801,5.166612258,1,0,0,rectangle,-13.99997801,5.166612258,1,0,0,-13.99997801,5.166612258,1,0,0,1,52,212,80,1,,,,,,,,
,,,,,,,,,,,,,FF,,,,,,,,0.9241,,,,,,,,,,,,,,,,,,,,,,60fcb5af5bb1bfac226a48e9,610371833abb23392d268f4c,2021-07-29_23h57.00.322,Simcolourproject_2stim_asymm_v5,2020.2.10,Win32,60,61025ae37ef11b136ea224fe,,,,,,,,,412,26.00002319,61.8333213,1,0,0,response1disk,,7,-5.999977767,9.833319753,1,0,0,rectangle,-5.999977767,9.833319753,1,0,0,-5.999977767,9.833319753,1,0,0,1,53,213,29,1,,,,,,,,
,,,,,,,,,,,,,FF,,,,,,,,4.9082,,,,,,,,,,,,,,,,,,,,,,60fcb5af5bb1bfac226a48e9,610371833abb23392d268f4c,2021-07-29_23h57.00.322,Simcolourproject_2stim_asymm_v5,2020.2.10,Win32,60,61025ae37ef11b136ea224fe,,,,,,,,,2569,88.00002503,109.166656,1,0,0,response1disk,,7,-18.66664481,-3.500013977,1,0,0,rectangle,94.00002521,-51.50001541,1,0,0,6.00002259,-1.500013918,1,0,0,1,54,214,50,1,,response3disk_3,TRUE,5,5,"[181,110,69,215,114,84,122,118,260,125,160,133,149,232,252,258,32,59,275,318]",3.1,rectangle
,,,,,,,,,,,,,FF,,,,,,,,2.1505,,,,,,,,,,,,,,,,,,,,,,60fcb5af5bb1bfac226a48e9,610371833abb23392d268f4c,2021-07-29_23h57.00.322,Simcolourproject_2stim_asymm_v5,2020.2.10,Win32,60,61025ae37ef11b136ea224fe,,,,,,,,,953,93.33335853,-26.16668132,1,0,0,response3disk,,5,4.666689217,-2.833387981,1,0,0,rectangle,4.666689217,-2.833387981,1,0,0,4.666689217,-2.833387981,1,0,0,1,55,215,117,1,,,,,,,,
,,,,,,,,,,,,,FF,,,,,,,,0.8176,,,,,,,,,,,,,,,,,,,,,,60fcb5af5bb1bfac226a48e9,610371833abb23392d268f4c,2021-07-29_23h57.00.322,Simcolourproject_2stim_asymm_v5,2020.2.10,Win32,60,61025ae37ef11b136ea224fe,,,,,,,,,3995,-97.99998051,42.49998739,1,0,0,response7disk,,1,-10.66664457,-7.500014096,1,0,0,rectangle,-10.66664457,-7.500014096,1,0,0,-10.66664457,-7.500014096,1,0,0,1,56,216,30,1,,,,,,,,
,,,,,,,,,,,,,FF,,,,,,,,0.7666,,,,,,,,,,,,,,,,,,,,,,60fcb5af5bb1bfac226a48e9,610371833abb23392d268f4c,2021-07-29_23h57.00.322,Simcolourproject_2stim_asymm_v5,2020.2.10,Win32,60,61025ae37ef11b136ea224fe,,,,,,,,,1376,43.33335704,64.49998805,1,0,0,response1disk,,7,22.00002307,3.166612198,1,0,0,rectangle,22.00002307,3.166612198,1,0,0,22.00002307,3.166612198,1,0,0,1,57,217,123,1,,,,,,,,
,,,,,,,,,,,,,FF,,,,,,,,0.9334,,,,,,,,,,,,,,,,,,,,,,60fcb5af5bb1bfac226a48e9,610371833abb23392d268f4c,2021-07-29_23h57.00.322,Simcolourproject_2stim_asymm_v5,2020.2.10,Win32,60,61025ae37ef11b136ea224fe,,,,,,,,,1516,78.00002474,32.4999871,1,0,0,response1disk,,6,29.33335662,-17.50001439,1,0,0,rectangle,29.33335662,-17.50001439,1,0,0,29.33335662,-17.50001439,1,0,0,1,58,218,23,1,,,,,,,,
,,,,,,,,,,,,,FF,,,,,,,,1.2333,,,,,,,,,,,,,,,,,,,,,,60fcb5af5bb1bfac226a48e9,610371833abb23392d268f4c,2021-07-29_23h57.00.322,Simcolourproject_2stim_asymm_v5,2020.2.10,Win32,60,61025ae37ef11b136ea224fe,,,,,,,,,3500,68.66669112,45.16665414,1,0,0,response1disk,,6,16.66668957,17.83331999,1,0,0,rectangle,16.66668957,17.83331999,1,0,0,16.66668957,17.83331999,1,0,0,1,59,219,9,1,,,,,,,,
,,,,,,,,,,,,,FF,,,,,,,,0.7339,,,,,,,,,,,,,,,,,,,,,,60fcb5af5bb1bfac226a48e9,610371833abb23392d268f4c,2021-07-29_23h57.00.322,Simcolourproject_2stim_asymm_v5,2020.2.10,Win32,60,61025ae37ef11b136ea224fe,,,,,,,,,3132,68.00002444,27.83332029,1,0,0,response1disk,,6,14.66668952,-10.16668084,1,0,0,rectangle,14.66668952,-10.16668084,1,0,0,14.66668952,-10.16668084,1,0,0,1,60,220,56,1,,,,,,,,
,,,,,,,,,,,,,FF,,,,,,,,1.0667,,,,,,,,,,,,,,,,,,,,,,60fcb5af5bb1bfac226a48e9,610371833abb23392d268f4c,2021-07-29_23h57.00.322,Simcolourproject_2stim_asymm_v5,2020.2.10,Win32,60,61025ae37ef11b136ea224fe,,,,,,,,,1756,67.33335775,-32.83338887,1,0,0,response3disk,,5,36.66669017,9.166612377,1,0,0,rectangle,36.66669017,9.166612377,1,0,0,36.66669017,9.166612377,1,0,0,1,61,221,107,1,,,,,,,,
,,,,,,,,,,,,,FF,,,,,,,,1.4006,,,,,,,,,,,,,,,,,,,,,,60fcb5af5bb1bfac226a48e9,610371833abb23392d268f4c,2021-07-29_23h57.00.322,Simcolourproject_2stim_asymm_v5,2020.2.10,Win32,60,61025ae37ef11b136ea224fe,,,,,,,,,3136,32.66669005,55.16665444,1,0,0,response1disk,,7,2.666689157,2.499986202,1,0,0,rectangle,2.666689157,2.499986202,1,0,0,2.666689157,2.499986202,1,0,0,1,62,222,0,1,,,,,,,,
,,,,,,,,,,,,,FF,,,,,,,,4.404,,,,,,,,,,,,,,,,,,,,,,60fcb5af5bb1bfac226a48e9,610371833abb23392d268f4c,2021-07-29_23h57.00.322,Simcolourproject_2stim_asymm_v5,2020.2.10,Win32,60,61025ae37ef11b136ea224fe,,,,,,,,,778,97.33335865,-70.83339001,1,0,0,response3disk,,5,12.00002277,0.499986142,1,0,0,rectangle,12.00002277,0.499986142,1,0,0,12.00002277,0.499986142,1,0,0,1,63,223,8,1,,,,,,,,
,,,,,,,,,,,,,FF,,,,,,,,1.6007,,,,,,,,,,,,,,,,,,,,,,60fcb5af5bb1bfac226a48e9,610371833abb23392d268f4c,2021-07-29_23h57.00.322,Simcolourproject_2stim_asymm_v5,2020.2.10,Win32,60,61025ae37ef11b136ea224fe,,,,,,,,,3720,43.33335704,-98.83339084,1,0,0,response3disk,,4,-30.66664517,6.499986321,1,0,0,rectangle,-30.66664517,6.499986321,1,0,0,-30.66664517,6.499986321,1,0,0,1,64,224,150,1,,,,,,,,
,,,,,,,,,,,,,FF,,,,,,,,1.1915,,,,,,,,,,,,,,,,,,,,,,60fcb5af5bb1bfac226a48e9,610371833abb23392d268f4c,2021-07-29_23h57.00.322,Simcolourproject_2stim_asymm_v5,2020.2.10,Win32,60,61025ae37ef11b136ea224fe,,,,,,,,,1535,-60.66664606,-46.83338929,1,0,0,response5disk,,2,-10.66664457,-4.83338804,1,0,0,rectangle,-10.66664457,-4.83338804,1,0,0,-10.66664457,-4.83338804,1,0,0,1,65,225,124,1,,,,,,,,
,,,,,,,,,,,,,FF,,,,,,,,1.3085,,,,,,,,,,,,,,,,,,,,,,60fcb5af5bb1bfac226a48e9,610371833abb23392d268f4c,2021-07-29_23h57.00.322,Simcolourproject_2stim_asymm_v5,2020.2.10,Win32,60,61025ae37ef11b136ea224fe,,,,,,,,,1500,33.33335674,95.16665563,1,0,0,response1disk,,7,12.00002277,9.166612377,1,0,0,rectangle,12.00002277,9.166612377,1,0,0,12.00002277,9.166612377,1,0,0,1,66,226,143,1,,,,,,,,
,,,,,,,,,,,,,FF,,,,,,,,0.8501,,,,,,,,,,,,,,,,,,,,,,60fcb5af5bb1bfac226a48e9,610371833abb23392d268f4c,2021-07-29_23h57.00.322,Simcolourproject_2stim_asymm_v5,2020.2.10,Win32,60,61025ae37ef11b136ea224fe,,,,,,,,,2553,53.33335733,23.83332017,1,0,0,response1disk,,6,2.000022471,-14.83338834,1,0,0,rectangle,2.000022471,-14.83338834,1,0,0,2.000022471,-14.83338834,1,0,0,1,67,227,28,1,,,,,,,,
,,,,,,,,,,,,,FF,,,,,,,,4.5339,,,,,,,,,,,,,,,,,,,,,,60fcb5af5bb1bfac226a48e9,610371833abb23392d268f4c,2021-07-29_23h57.00.322,Simcolourproject_2stim_asymm_v5,2020.2.10,Win32,60,61025ae37ef11b136ea224fe,,,,,,,,,216,51.33335727,35.16665384,1,0,0,response1disk,,6,-11.33331126,-4.83338804,1,0,0,rectangle,-11.33331126,-4.83338804,1,0,0,-11.33331126,-4.83338804,1,0,0,1,68,228,13,1,,,,,,,,
,,,,,,,,,,,,,FF,,,,,,,,1.434,,,,,,,,,,,,,,,,,,,,,,60fcb5af5bb1bfac226a48e9,610371833abb23392d268f4c,2021-07-29_23h57.00.322,Simcolourproject_2stim_asymm_v5,2020.2.10,Win32,60,61025ae37ef11b136ea224fe,,,,,,,,,2749,29.33335662,70.49998823,1,0,0,response1disk,,7,-3.999977708,-4.166680664,1,0,0,rectangle,-3.999977708,-4.166680664,1,0,0,-3.999977708,-4.166680664,1,0,0,1,69,229,125,1,,,,,,,,
,,,,,,,,,,,,,FF,,,,,,,,0.5834,,,,,,,,,,,,,,,,,,,,,,60fcb5af5bb1bfac226a48e9,610371833abb23392d268f4c,2021-07-29_23h57.00.322,Simcolourproject_2stim_asymm_v5,2020.2.10,Win32,60,61025ae37ef11b136ea224fe,,,,,,,,,1153,33.33335674,71.8333216,1,0,0,response1disk,,7,-1.333310962,-12.83338828,1,0,0,rectangle,-1.333310962,-12.83338828,1,0,0,-1.333310962,-12.83338828,1,0,0,1,70,230,119,1,,,,,,,,
,,,,,,,,,,,,,FF,,,,,,,,0.8337,,,,,,,,,,,,,,,,,,,,,,60fcb5af5bb1bfac226a48e9,610371833abb23392d268f4c,2021-07-29_23h57.00.322,Simcolourproject_2stim_asymm_v5,2020.2.10,Win32,60,61025ae37ef11b136ea224fe,,,,,,,,,1560,58.00002414,16.49998662,1,0,0,response1disk,,6,18.00002295,9.166612377,1,0,0,rectangle,-71.99997973,36.49998721,1,0,0,4.666689217,-16.8333884,1,0,0,1,71,231,21,1,,response7disk_3,TRUE,1,1,"[181,110,69,215,114,84,122,118,260,125,160,133,149,232,252,258,32,59,275,318]",2.9341,rectangle
,,,,,,,,,,,,,FF,,,,,,,,0.7177,,,,,,,,,,,,,,,,,,,,,,60fcb5af5bb1bfac226a48e9,610371833abb23392d268f4c,2021-07-29_23h57.00.322,Simcolourproject_2stim_asymm_v5,2020.2.10,Win32,60,61025ae37ef11b136ea224fe,,,,,,,,,1635,47.33335716,92.49998888,1,0,0,response1disk,,7,27.33335656,-14.83338834,1,0,0,rectangle,27.33335656,-14.83338834,1,0,0,27.33335656,-14.83338834,1,0,0,1,72,232,44,1,,,,,,,,
,,,,,,,,,,,,,FF,,,,,,,,0.9602,,,,,,,,,,,,,,,,,,,,,,60fcb5af5bb1bfac226a48e9,610371833abb23392d268f4c,2021-07-29_23h57.00.322,Simcolourproject_2stim_asymm_v5,2020.2.10,Win32,60,61025ae37ef11b136ea224fe,,,,,,,,,1614,26.00002319,105.8333226,1,0,0,response1disk,,7,23.33335644,8.49998638,1,0,0,rectangle,23.33335644,8.49998638,1,0,0,23.33335644,8.49998638,1,0,0,1,73,233,34,1,,,,,,,,
,,,,,,,,,,,,,FF,,,,,,,,3.3832,,,,,,,,,,,,,,,,,,,,,,60fcb5af5bb1bfac226a48e9,610371833abb23392d268f4c,2021-07-29_23h57.00.322,Simcolourproject_2stim_asymm_v5,2020.2.10,Win32,60,61025ae37ef11b136ea224fe,,,,,,,,,2361,-24.66664499,97.83332238,1,0,0,response7disk,,0,-5.999977767,1.166612138,1,0,0,rectangle,-5.999977767,1.166612138,1,0,0,-5.999977767,1.166612138,1,0,0,1,74,234,84,1,,,,,,,,
,,,,,,,,,,,,,FF,,,,,,,,1.0684,,,,,,,,,,,,,,,,,,,,,,60fcb5af5bb1bfac226a48e9,610371833abb23392d268f4c,2021-07-29_23h57.00.322,Simcolourproject_2stim_asymm_v5,2020.2.10,Win32,60,61025ae37ef11b136ea224fe,,,,,,,,,1417,87.33335835,42.49998739,1,0,0,response1disk,,6,27.33335656,-2.833387981,1,0,0,rectangle,27.33335656,-2.833387981,1,0,0,27.33335656,-2.833387981,1,0,0,1,75,235,78,1,,,,,,,,
,,,,,,,,,,,,,FF,,,,,,,,0.85,,,,,,,,,,,,,,,,,,,,,,60fcb5af5bb1bfac226a48e9,610371833abb23392d268f4c,2021-07-29_23h57.00.322,Simcolourproject_2stim_asymm_v5,2020.2.10,Win32,60,61025ae37ef11b136ea224fe,,,,,,,,,2289,80.0000248,-40.16668174,1,0,0,response3disk,,5,20.00002301,-0.166680545,1,0,0,rectangle,20.00002301,-0.166680545,1,0,0,20.00002301,-0.166680545,1,0,0,1,76,236,145,1,,,,,,,,
,,,,,,,,,,,,,FF,,,,,,,,1.0219,,,,,,,,,,,,,,,,,,,,,,60fcb5af5bb1bfac226a48e9,610371833abb23392d268f4c,2021-07-29_23h57.00.322,Simcolourproject_2stim_asymm_v5,2020.2.10,Win32,60,61025ae37ef11b136ea224fe,,,,,,,,,3936,-69.33331299,94.49998894,1,0,0,response7disk,,0,-25.33331168,9.833319753,1,0,0,rectangle,-25.33331168,9.833319753,1,0,0,-25.33331168,9.833319753,1,0,0,1,77,237,79,1,,,,,,,,
,,,,,,,,,,,,,FF,,,,,,,,0.8392,,,,,,,,,,,,,,,,,,,,,,60fcb5af5bb1bfac226a48e9,610371833abb23392d268f4c,2021-07-29_23h57.00.322,Simcolourproject_2stim_asymm_v5,2020.2.10,Win32,60,61025ae37ef11b136ea224fe,,,,,,,,,1987,30.66668999,57.83332118,1,0,0,response1disk,,7,26.00002319,16.49998662,1,0,0,rectangle,26.00002319,16.49998662,1,0,0,26.00002319,16.49998662,1,0,0,1,78,238,75,1,,,,,,,,
,,,,,,,,,,,,,FF,,,,,,,,1.8666,,,,,,,,,,,,,,,,,,,,,,60fcb5af5bb1bfac226a48e9,610371833abb23392d268f4c,2021-07-29_23h57.00.322,Simcolourproject_2stim_asymm_v5,2020.2.10,Win32,60,61025ae37ef11b136ea224fe,,,,,,,,,2638,-82.66660603,49.16665426,1,0,0,response7disk,,1,7.333355963,7.833319694,1,0,0,rectangle,7.333355963,7.833319694,1,0,0,7.333355963,7.833319694,1,0,0,1,79,239,133,1,,,,,,,,
,,,,,,,,,,,,,FF,,,,,,,,0.9178,,,,,,,,,,,,,,,,,,,,,,60fcb5af5bb1bfac226a48e9,610371833abb23392d268f4c,2021-07-29_23h57.00.322,Simcolourproject_2stim_asymm_v5,2020.2.10,Win32,60,61025ae37ef11b136ea224fe,,,,,,,,,1804,38.00002354,66.49998811,1,0,0,response1disk,,7,6.666689277,12.4999865,1,0,0,rectangle,6.666689277,12.4999865,1,0,0,6.666689277,12.4999865,1,0,0,1,80,240,93,1,,,,,,,,
,,,,,,,,,,,,,FF,,,,,,,,0.7508,,,,,,,,,,,,,,,,,,,,,,60fcb5af5bb1bfac226a48e9,610371833abb23392d268f4c,2021-07-29_23h57.00.322,Simcolourproject_2stim_asymm_v5,2020.2.10,Win32,60,61025ae37ef11b136ea224fe,,,,,,,,,3615,58.00002414,38.49998727,1,0,0,response1disk,,6,9.333356023,-2.166680604,1,0,0,rectangle,9.333356023,-2.166680604,1,0,0,9.333356023,-2.166680604,1,0,0,1,81,241,18,1,,,,,,,,
,,,,,,,,,,,,,FF,,,,,,,,0.6499,,,,,,,,,,,,,,,,,,,,,,60fcb5af5bb1bfac226a48e9,610371833abb23392d268f4c,2021-07-29_23h57.00.322,Simcolourproject_2stim_asymm_v5,2020.2.10,Win32,60,61025ae37ef11b136ea224fe,,,,,,,,,3897,53.33335733,83.16665527,1,0,0,response1disk,,7,29.33335662,-2.833387981,1,0,0,rectangle,29.33335662,-2.833387981,1,0,0,29.33335662,-2.833387981,1,0,0,1,82,242,70,1,,,,,,,,
,,,,,,,,,,,,,FF,,,,,,,,0.4835,,,,,,,,,,,,,,,,,,,,,,60fcb5af5bb1bfac226a48e9,610371833abb23392d268f4c,2021-07-29_23h57.00.322,Simcolourproject_2stim_asymm_v5,2020.2.10,Win32,60,61025ae37ef11b136ea224fe,,,,,,,,,56,48.66669053,65.16665474,1,0,0,response1disk,,7,-11.99997795,3.166612198,1,0,0,rectangle,-11.99997795,3.166612198,1,0,0,-11.99997795,3.166612198,1,0,0,1,83,243,26,1,,,,,,,,
