key_resp.keys,key_resp.rt,key_resp_14.keys,key_resp_14.rt,key_resp_15.keys,key_resp_15.rt,key_resp_17.keys,key_resp_17.rt,key_resp_9.keys,key_resp_9.rt,key_resp_10.keys,key_resp_10.rt,practice_comparison,Ecc,mouse_5.x,mouse_5.y,mouse_5.leftButton,mouse_5.midButton,mouse_5.rightButton,mouse_5.clicked_name,pracsimilarity,response_time,mouse_10.x,mouse_10.y,mouse_10.leftButton,mouse_10.midButton,mouse_10.rightButton,mouse_10.clicked_name,mouse_7.x,mouse_7.y,mouse_7.leftButton,mouse_7.midButton,mouse_7.rightButton,mouse_6.x,mouse_6.y,mouse_6.leftButton,mouse_6.midButton,mouse_6.rightButton,duringprac.thisRepN,duringprac.thisTrialN,duringprac.thisN,duringprac.thisIndex,duringprac.ran,participant,session,date,expName,psychopyVersion,OS,frameRate,study_id,mouse_7.clicked_name,catchpracsimilarity,catch_response_time,catchnumberprac,catchtrialorderprac,mouse_6.clicked_name,key_resp_22.keys,key_resp_22.rt,realcomparison,mouse.x,mouse.y,mouse.leftButton,mouse.midButton,mouse.rightButton,mouse.clicked_name,Colour2,similarity,mouse_2.x,mouse_2.y,mouse_2.leftButton,mouse_2.midButton,mouse_2.rightButton,mouse_2.clicked_name,mouse_3.x,mouse_3.y,mouse_3.leftButton,mouse_3.midButton,mouse_3.rightButton,mouse_3.clicked_name,catchornah,catchsimilarity,catchnumber,catchtrialorder,catchRT,mouse_11.x,mouse_11.y,mouse_11.leftButton,mouse_11.midButton,mouse_11.rightButton,mouse_11.clicked_name,trials_2.thisRepN,trials_2.thisTrialN,trials_2.thisN,trials_2.thisIndex,trials_2.ran,Colour1
space,2.4461,space,13.042,space,12.2227,space,8.7754,space,4.852,space,11.7979,146,FF,-49,100,1,0,0,response7disk_5,0,14.3723,-2,-5,1,0,0,rectangle_8,-2,-5,1,0,0,-2,-5,1,0,0,0,0,0,5,1,60fcd3ee451b8deffca413ee,61036c7484ad83fd30723a61,2021-07-29_22h06.00.299,Simcolourproject_2stim_asymm_v5,2020.2.10,Win32,60,61025ae37ef11b136ea224fe,,,,,,,,,,,,,,,,,,,,,,,,,,,,,,,,,,,,,,,,,,,,,,
,,,,,,,,,,,,36,PF,30,72,1,0,0,response1disk_5,7,3.8951,2,0,1,0,0,rectangle_8,44,91,1,0,0,-17,7,1,0,0,0,1,1,1,1,60fcd3ee451b8deffca413ee,61036c7484ad83fd30723a61,2021-07-29_22h06.00.299,Simcolourproject_2stim_asymm_v5,2020.2.10,Win32,60,61025ae37ef11b136ea224fe,response1disk_7,7,4.2627,7,"[2,5]",rectangle_4,,,,,,,,,,,,,,,,,,,,,,,,,,,,,,,,,,,,,,,,
,,,,,,,,,,,,51,PF,37,86,1,0,0,response1disk_5,7,2.8466,0,-7,1,0,0,rectangle_8,0,-7,1,0,0,0,-7,1,0,0,0,2,2,6,1,60fcd3ee451b8deffca413ee,61036c7484ad83fd30723a61,2021-07-29_22h06.00.299,Simcolourproject_2stim_asymm_v5,2020.2.10,Win32,60,61025ae37ef11b136ea224fe,,,,,,,,,,,,,,,,,,,,,,,,,,,,,,,,,,,,,,,,,,,,,,
,,,,,,,,,,,,95,FF,59,-43,1,0,0,response3disk_5,5,4.7939,2,2,1,0,0,rectangle_8,2,2,1,0,0,2,2,1,0,0,0,3,3,3,1,60fcd3ee451b8deffca413ee,61036c7484ad83fd30723a61,2021-07-29_22h06.00.299,Simcolourproject_2stim_asymm_v5,2020.2.10,Win32,60,61025ae37ef11b136ea224fe,,,,,,,,,,,,,,,,,,,,,,,,,,,,,,,,,,,,,,,,,,,,,,
,,,,,,,,,,,,36,PF,28,54,1,0,0,response1disk_5,7,1.0657,1,2,1,0,0,rectangle_8,33,82,1,0,0,14,13,1,0,0,0,4,4,4,1,60fcd3ee451b8deffca413ee,61036c7484ad83fd30723a61,2021-07-29_22h06.00.299,Simcolourproject_2stim_asymm_v5,2020.2.10,Win32,60,61025ae37ef11b136ea224fe,response1disk_7,7,1.8643,7,"[2,5]",rectangle_4,,,,,,,,,,,,,,,,,,,,,,,,,,,,,,,,,,,,,,,,
,,,,,,,,,,,,158,FF,-87,-38,1,0,0,response5disk_5,2,3.9618,-16,3,1,0,0,rectangle_8,-16,3,1,0,0,-16,3,1,0,0,0,5,5,0,1,60fcd3ee451b8deffca413ee,61036c7484ad83fd30723a61,2021-07-29_22h06.00.299,Simcolourproject_2stim_asymm_v5,2020.2.10,Win32,60,61025ae37ef11b136ea224fe,,,,,,,,,,,,,,,,,,,,,,,,,,,,,,,,,,,,,,,,,,,,,,
,,,,,,,,,,,,103,PF,53,81,1,0,0,response1disk_5,7,1.2155,-8,-5,1,0,0,rectangle_8,-8,-5,1,0,0,-8,-5,1,0,0,0,6,6,2,1,60fcd3ee451b8deffca413ee,61036c7484ad83fd30723a61,2021-07-29_22h06.00.299,Simcolourproject_2stim_asymm_v5,2020.2.10,Win32,60,61025ae37ef11b136ea224fe,,,,,,,,,,,,,,,,,,,,,,,,,,,,,,,,,,,,,,,,,,,,,,
,,,,,,,,,,,,,FF,,,,,,,,4.0131,,,,,,,,,,,,,,,,,,,,,,60fcd3ee451b8deffca413ee,61036c7484ad83fd30723a61,2021-07-29_22h06.00.299,Simcolourproject_2stim_asymm_v5,2020.2.10,Win32,60,61025ae37ef11b136ea224fe,,,,,,,space,18.7275,1767,78,26,1,0,0,response1disk,,6,-1,2,1,0,0,rectangle,43,-91,1,0,0,response3disk_3,TRUE,4,4,"[209,102,249,33,95,126,160,176,90,200,203,152,156,171,77,1,84,178,19,138]",2.8327,-2,-6,1,0,0,rectangle,0,0,0,61,1,
,,,,,,,,,,,,,FF,,,,,,,,1.102,,,,,,,,,,,,,,,,,,,,,,60fcd3ee451b8deffca413ee,61036c7484ad83fd30723a61,2021-07-29_22h06.00.299,Simcolourproject_2stim_asymm_v5,2020.2.10,Win32,60,61025ae37ef11b136ea224fe,,,,,,,,,4011,40,81,1,0,0,response1disk,,7,5,5,1,0,0,rectangle,5,5,1,0,0,,,,,,,5,5,1,0,0,,0,1,1,10,1,
,,,,,,,,,,,,,FF,,,,,,,,1.3485,,,,,,,,,,,,,,,,,,,,,,60fcd3ee451b8deffca413ee,61036c7484ad83fd30723a61,2021-07-29_22h06.00.299,Simcolourproject_2stim_asymm_v5,2020.2.10,Win32,60,61025ae37ef11b136ea224fe,,,,,,,,,4175,53,90,1,0,0,response1disk,,7,9,11,1,0,0,rectangle,9,11,1,0,0,,,,,,,9,11,1,0,0,,0,2,2,102,1,
,,,,,,,,,,,,,FF,,,,,,,,1.4321,,,,,,,,,,,,,,,,,,,,,,60fcd3ee451b8deffca413ee,61036c7484ad83fd30723a61,2021-07-29_22h06.00.299,Simcolourproject_2stim_asymm_v5,2020.2.10,Win32,60,61025ae37ef11b136ea224fe,,,,,,,,,2953,37,-60,1,0,0,response3disk,,4,3,-4,1,0,0,rectangle,3,-4,1,0,0,,,,,,,3,-4,1,0,0,,0,3,3,43,1,
,,,,,,,,,,,,,FF,,,,,,,,1.1984,,,,,,,,,,,,,,,,,,,,,,60fcd3ee451b8deffca413ee,61036c7484ad83fd30723a61,2021-07-29_22h06.00.299,Simcolourproject_2stim_asymm_v5,2020.2.10,Win32,60,61025ae37ef11b136ea224fe,,,,,,,,,514,67,51,1,0,0,response1disk,,6,11,5,1,0,0,rectangle,11,5,1,0,0,,,,,,,11,5,1,0,0,,0,4,4,47,1,
,,,,,,,,,,,,,FF,,,,,,,,0.8489,,,,,,,,,,,,,,,,,,,,,,60fcd3ee451b8deffca413ee,61036c7484ad83fd30723a61,2021-07-29_22h06.00.299,Simcolourproject_2stim_asymm_v5,2020.2.10,Win32,60,61025ae37ef11b136ea224fe,,,,,,,,,591,37,87,1,0,0,response1disk,,7,12,-5,1,0,0,rectangle,12,-5,1,0,0,,,,,,,12,-5,1,0,0,,0,5,5,63,1,
,,,,,,,,,,,,,FF,,,,,,,,12.8521,,,,,,,,,,,,,,,,,,,,,,60fcd3ee451b8deffca413ee,61036c7484ad83fd30723a61,2021-07-29_22h06.00.299,Simcolourproject_2stim_asymm_v5,2020.2.10,Win32,60,61025ae37ef11b136ea224fe,,,,,,,,,3190,44,-79,1,0,0,response3disk,,4,-6,3,1,0,0,rectangle,-6,3,1,0,0,,,,,,,-6,3,1,0,0,,0,6,6,111,1,
,,,,,,,,,,,,,FF,,,,,,,,3.6127,,,,,,,,,,,,,,,,,,,,,,60fcd3ee451b8deffca413ee,61036c7484ad83fd30723a61,2021-07-29_22h06.00.299,Simcolourproject_2stim_asymm_v5,2020.2.10,Win32,60,61025ae37ef11b136ea224fe,,,,,,,,,347,63,-36,1,0,0,response3disk,,5,0,2,1,0,0,rectangle,0,2,1,0,0,,,,,,,0,2,1,0,0,,0,7,7,48,1,
,,,,,,,,,,,,,FF,,,,,,,,1.2318,,,,,,,,,,,,,,,,,,,,,,60fcd3ee451b8deffca413ee,61036c7484ad83fd30723a61,2021-07-29_22h06.00.299,Simcolourproject_2stim_asymm_v5,2020.2.10,Win32,60,61025ae37ef11b136ea224fe,,,,,,,,,711,70,-35,1,0,0,response3disk,,5,10,-6,1,0,0,rectangle,10,-6,1,0,0,,,,,,,10,-6,1,0,0,,0,8,8,73,1,
,,,,,,,,,,,,,FF,,,,,,,,1.665,,,,,,,,,,,,,,,,,,,,,,60fcd3ee451b8deffca413ee,61036c7484ad83fd30723a61,2021-07-29_22h06.00.299,Simcolourproject_2stim_asymm_v5,2020.2.10,Win32,60,61025ae37ef11b136ea224fe,,,,,,,,,3849,-60,-38,1,0,0,response5disk,,2,3,0,1,0,0,rectangle,3,0,1,0,0,,,,,,,3,0,1,0,0,,0,9,9,126,1,
,,,,,,,,,,,,,FF,,,,,,,,0.9329,,,,,,,,,,,,,,,,,,,,,,60fcd3ee451b8deffca413ee,61036c7484ad83fd30723a61,2021-07-29_22h06.00.299,Simcolourproject_2stim_asymm_v5,2020.2.10,Win32,60,61025ae37ef11b136ea224fe,,,,,,,,,2303,28,-58,1,0,0,response3disk,,4,17,-5,1,0,0,rectangle,17,-5,1,0,0,,,,,,,17,-5,1,0,0,,0,10,10,83,1,
,,,,,,,,,,,,,FF,,,,,,,,1.369,,,,,,,,,,,,,,,,,,,,,,60fcd3ee451b8deffca413ee,61036c7484ad83fd30723a61,2021-07-29_22h06.00.299,Simcolourproject_2stim_asymm_v5,2020.2.10,Win32,60,61025ae37ef11b136ea224fe,,,,,,,,,3355,50,38,1,0,0,response1disk,,6,6,3,1,0,0,rectangle,6,3,1,0,0,,,,,,,6,3,1,0,0,,0,11,11,122,1,
,,,,,,,,,,,,,FF,,,,,,,,1.1691,,,,,,,,,,,,,,,,,,,,,,60fcd3ee451b8deffca413ee,61036c7484ad83fd30723a61,2021-07-29_22h06.00.299,Simcolourproject_2stim_asymm_v5,2020.2.10,Win32,60,61025ae37ef11b136ea224fe,,,,,,,,,3697,24,77,1,0,0,response1disk,,7,5,6,1,0,0,rectangle,5,6,1,0,0,,,,,,,5,6,1,0,0,,0,12,12,95,1,
,,,,,,,,,,,,,FF,,,,,,,,1.7318,,,,,,,,,,,,,,,,,,,,,,60fcd3ee451b8deffca413ee,61036c7484ad83fd30723a61,2021-07-29_22h06.00.299,Simcolourproject_2stim_asymm_v5,2020.2.10,Win32,60,61025ae37ef11b136ea224fe,,,,,,,,,2603,27,-68,1,0,0,response3disk,,4,2,4,1,0,0,rectangle,2,4,1,0,0,,,,,,,2,4,1,0,0,,0,13,13,66,1,
,,,,,,,,,,,,,FF,,,,,,,,1.1161,,,,,,,,,,,,,,,,,,,,,,60fcd3ee451b8deffca413ee,61036c7484ad83fd30723a61,2021-07-29_22h06.00.299,Simcolourproject_2stim_asymm_v5,2020.2.10,Win32,60,61025ae37ef11b136ea224fe,,,,,,,,,1528,-45,-52,1,0,0,response5disk,,3,-8,0,1,0,0,rectangle,-8,0,1,0,0,,,,,,,-8,0,1,0,0,,0,14,14,8,1,
,,,,,,,,,,,,,FF,,,,,,,,1.0513,,,,,,,,,,,,,,,,,,,,,,60fcd3ee451b8deffca413ee,61036c7484ad83fd30723a61,2021-07-29_22h06.00.299,Simcolourproject_2stim_asymm_v5,2020.2.10,Win32,60,61025ae37ef11b136ea224fe,,,,,,,,,546,48,-82,1,0,0,response3disk,,4,6,-2,1,0,0,rectangle,6,-2,1,0,0,,,,,,,6,-2,1,0,0,,0,15,15,90,1,
,,,,,,,,,,,,,FF,,,,,,,,1.0998,,,,,,,,,,,,,,,,,,,,,,60fcd3ee451b8deffca413ee,61036c7484ad83fd30723a61,2021-07-29_22h06.00.299,Simcolourproject_2stim_asymm_v5,2020.2.10,Win32,60,61025ae37ef11b136ea224fe,,,,,,,,,2653,76,53,1,0,0,response1disk,,6,11,5,1,0,0,rectangle,11,5,1,0,0,,,,,,,11,5,1,0,0,,0,16,16,2,1,
,,,,,,,,,,,,,FF,,,,,,,,1.4992,,,,,,,,,,,,,,,,,,,,,,60fcd3ee451b8deffca413ee,61036c7484ad83fd30723a61,2021-07-29_22h06.00.299,Simcolourproject_2stim_asymm_v5,2020.2.10,Win32,60,61025ae37ef11b136ea224fe,,,,,,,,,4222,-75,-52,1,0,0,response5disk,,2,-3,2,1,0,0,rectangle,-3,2,1,0,0,,,,,,,-3,2,1,0,0,,0,17,17,60,1,
,,,,,,,,,,,,,FF,,,,,,,,5.1279,,,,,,,,,,,,,,,,,,,,,,60fcd3ee451b8deffca413ee,61036c7484ad83fd30723a61,2021-07-29_22h06.00.299,Simcolourproject_2stim_asymm_v5,2020.2.10,Win32,60,61025ae37ef11b136ea224fe,,,,,,,,,2991,-69,-39,1,0,0,response5disk,,2,-4,-5,1,0,0,rectangle,82,-43,1,0,0,response3disk_3,TRUE,5,5,"[209,102,249,33,95,126,160,176,90,200,203,152,156,171,77,1,84,178,19,138]",22.1908,-14,0,1,0,0,rectangle,0,18,18,86,1,
,,,,,,,,,,,,,FF,,,,,,,,1.3485,,,,,,,,,,,,,,,,,,,,,,60fcd3ee451b8deffca413ee,61036c7484ad83fd30723a61,2021-07-29_22h06.00.299,Simcolourproject_2stim_asymm_v5,2020.2.10,Win32,60,61025ae37ef11b136ea224fe,,,,,,,,,340,31,-70,1,0,0,response3disk,,4,-5,-5,1,0,0,rectangle,-5,-5,1,0,0,,,,,,,-5,-5,1,0,0,,0,19,19,82,1,
,,,,,,,,,,,,,FF,,,,,,,,1.332,,,,,,,,,,,,,,,,,,,,,,60fcd3ee451b8deffca413ee,61036c7484ad83fd30723a61,2021-07-29_22h06.00.299,Simcolourproject_2stim_asymm_v5,2020.2.10,Win32,60,61025ae37ef11b136ea224fe,,,,,,,,,3056,-86,-58,1,0,0,response5disk,,2,1,4,1,0,0,rectangle,1,4,1,0,0,,,,,,,1,4,1,0,0,,0,20,20,101,1,
,,,,,,,,,,,,,FF,,,,,,,,1.5155,,,,,,,,,,,,,,,,,,,,,,60fcd3ee451b8deffca413ee,61036c7484ad83fd30723a61,2021-07-29_22h06.00.299,Simcolourproject_2stim_asymm_v5,2020.2.10,Win32,60,61025ae37ef11b136ea224fe,,,,,,,,,3125,72,-32,1,0,0,response3disk,,5,-21,3,1,0,0,rectangle,-21,3,1,0,0,,,,,,,-21,3,1,0,0,,0,21,21,54,1,
,,,,,,,,,,,,,FF,,,,,,,,1.1154,,,,,,,,,,,,,,,,,,,,,,60fcd3ee451b8deffca413ee,61036c7484ad83fd30723a61,2021-07-29_22h06.00.299,Simcolourproject_2stim_asymm_v5,2020.2.10,Win32,60,61025ae37ef11b136ea224fe,,,,,,,,,2873,67,36,1,0,0,response1disk,,6,7,-3,1,0,0,rectangle,7,-3,1,0,0,,,,,,,7,-3,1,0,0,,0,22,22,105,1,
,,,,,,,,,,,,,FF,,,,,,,,1.0493,,,,,,,,,,,,,,,,,,,,,,60fcd3ee451b8deffca413ee,61036c7484ad83fd30723a61,2021-07-29_22h06.00.299,Simcolourproject_2stim_asymm_v5,2020.2.10,Win32,60,61025ae37ef11b136ea224fe,,,,,,,,,531,-26,-57,1,0,0,response5disk,,3,-9,7,1,0,0,rectangle,-9,7,1,0,0,,,,,,,-9,7,1,0,0,,0,23,23,148,1,
,,,,,,,,,,,,,FF,,,,,,,,1.6313,,,,,,,,,,,,,,,,,,,,,,60fcd3ee451b8deffca413ee,61036c7484ad83fd30723a61,2021-07-29_22h06.00.299,Simcolourproject_2stim_asymm_v5,2020.2.10,Win32,60,61025ae37ef11b136ea224fe,,,,,,,,,3911,85,-34,1,0,0,response3disk,,5,-10,8,1,0,0,rectangle,-10,8,1,0,0,,,,,,,-10,8,1,0,0,,0,24,24,42,1,
,,,,,,,,,,,,,FF,,,,,,,,1.4817,,,,,,,,,,,,,,,,,,,,,,60fcd3ee451b8deffca413ee,61036c7484ad83fd30723a61,2021-07-29_22h06.00.299,Simcolourproject_2stim_asymm_v5,2020.2.10,Win32,60,61025ae37ef11b136ea224fe,,,,,,,,,1919,60,41,1,0,0,response1disk,,6,11,2,1,0,0,rectangle,11,2,1,0,0,,,,,,,11,2,1,0,0,,0,25,25,75,1,
,,,,,,,,,,,,,FF,,,,,,,,1.2662,,,,,,,,,,,,,,,,,,,,,,60fcd3ee451b8deffca413ee,61036c7484ad83fd30723a61,2021-07-29_22h06.00.299,Simcolourproject_2stim_asymm_v5,2020.2.10,Win32,60,61025ae37ef11b136ea224fe,,,,,,,,,2138,41,50,1,0,0,response1disk,,7,15,0,1,0,0,rectangle,15,0,1,0,0,,,,,,,15,0,1,0,0,,0,26,26,57,1,
,,,,,,,,,,,,,FF,,,,,,,,0.7496,,,,,,,,,,,,,,,,,,,,,,60fcd3ee451b8deffca413ee,61036c7484ad83fd30723a61,2021-07-29_22h06.00.299,Simcolourproject_2stim_asymm_v5,2020.2.10,Win32,60,61025ae37ef11b136ea224fe,,,,,,,,,1659,42,84,1,0,0,response1disk,,7,8,2,1,0,0,rectangle,8,2,1,0,0,,,,,,,8,2,1,0,0,,0,27,27,77,1,
,,,,,,,,,,,,,FF,,,,,,,,1.2156,,,,,,,,,,,,,,,,,,,,,,60fcd3ee451b8deffca413ee,61036c7484ad83fd30723a61,2021-07-29_22h06.00.299,Simcolourproject_2stim_asymm_v5,2020.2.10,Win32,60,61025ae37ef11b136ea224fe,,,,,,,,,3737,32,87,1,0,0,response1disk,,7,4,4,1,0,0,rectangle,4,4,1,0,0,,,,,,,4,4,1,0,0,,0,28,28,34,1,
,,,,,,,,,,,,,FF,,,,,,,,1.0489,,,,,,,,,,,,,,,,,,,,,,60fcd3ee451b8deffca413ee,61036c7484ad83fd30723a61,2021-07-29_22h06.00.299,Simcolourproject_2stim_asymm_v5,2020.2.10,Win32,60,61025ae37ef11b136ea224fe,,,,,,,,,2555,65,37,1,0,0,response1disk,,6,-4,-8,1,0,0,rectangle,-4,-8,1,0,0,,,,,,,-4,-8,1,0,0,,0,29,29,7,1,
,,,,,,,,,,,,,FF,,,,,,,,1.1155,,,,,,,,,,,,,,,,,,,,,,60fcd3ee451b8deffca413ee,61036c7484ad83fd30723a61,2021-07-29_22h06.00.299,Simcolourproject_2stim_asymm_v5,2020.2.10,Win32,60,61025ae37ef11b136ea224fe,,,,,,,,,2605,48,-76,1,0,0,response3disk,,4,-4,-1,1,0,0,rectangle,-4,-1,1,0,0,,,,,,,-4,-1,1,0,0,,0,30,30,68,1,
,,,,,,,,,,,,,FF,,,,,,,,0.9821,,,,,,,,,,,,,,,,,,,,,,60fcd3ee451b8deffca413ee,61036c7484ad83fd30723a61,2021-07-29_22h06.00.299,Simcolourproject_2stim_asymm_v5,2020.2.10,Win32,60,61025ae37ef11b136ea224fe,,,,,,,,,3557,-50,-55,1,0,0,response5disk,,3,-2,2,1,0,0,rectangle,-2,2,1,0,0,,,,,,,-2,2,1,0,0,,0,31,31,69,1,
,,,,,,,,,,,,,FF,,,,,,,,0.8492,,,,,,,,,,,,,,,,,,,,,,60fcd3ee451b8deffca413ee,61036c7484ad83fd30723a61,2021-07-29_22h06.00.299,Simcolourproject_2stim_asymm_v5,2020.2.10,Win32,60,61025ae37ef11b136ea224fe,,,,,,,,,3773,33,-76,1,0,0,response3disk,,4,-3,2,1,0,0,rectangle,-96,49,1,0,0,response7disk_3,TRUE,1,1,"[209,102,249,33,95,126,160,176,90,200,203,152,156,171,77,1,84,178,19,138]",1.9311,6,9,1,0,0,rectangle,0,32,32,64,1,
,,,,,,,,,,,,,FF,,,,,,,,1.8647,,,,,,,,,,,,,,,,,,,,,,60fcd3ee451b8deffca413ee,61036c7484ad83fd30723a61,2021-07-29_22h06.00.299,Simcolourproject_2stim_asymm_v5,2020.2.10,Win32,60,61025ae37ef11b136ea224fe,,,,,,,,,2250,44,-66,1,0,0,response3disk,,4,-2,-2,1,0,0,rectangle,-2,-2,1,0,0,,,,,,,-2,-2,1,0,0,,0,33,33,129,1,
,,,,,,,,,,,,,FF,,,,,,,,1.2652,,,,,,,,,,,,,,,,,,,,,,60fcd3ee451b8deffca413ee,61036c7484ad83fd30723a61,2021-07-29_22h06.00.299,Simcolourproject_2stim_asymm_v5,2020.2.10,Win32,60,61025ae37ef11b136ea224fe,,,,,,,,,1248,81,-46,1,0,0,response3disk,,5,-6,7,1,0,0,rectangle,-6,7,1,0,0,,,,,,,-6,7,1,0,0,,0,34,34,118,1,
,,,,,,,,,,,,,FF,,,,,,,,1.0817,,,,,,,,,,,,,,,,,,,,,,60fcd3ee451b8deffca413ee,61036c7484ad83fd30723a61,2021-07-29_22h06.00.299,Simcolourproject_2stim_asymm_v5,2020.2.10,Win32,60,61025ae37ef11b136ea224fe,,,,,,,,,1054,-54,-74,1,0,0,response5disk,,3,-23,-2,1,0,0,rectangle,-23,-2,1,0,0,,,,,,,-23,-2,1,0,0,,0,35,35,28,1,
,,,,,,,,,,,,,FF,,,,,,,,1.0656,,,,,,,,,,,,,,,,,,,,,,60fcd3ee451b8deffca413ee,61036c7484ad83fd30723a61,2021-07-29_22h06.00.299,Simcolourproject_2stim_asymm_v5,2020.2.10,Win32,60,61025ae37ef11b136ea224fe,,,,,,,,,196,45,75,1,0,0,response1disk,,7,10,9,1,0,0,rectangle,10,9,1,0,0,,,,,,,10,9,1,0,0,,0,36,36,6,1,
,,,,,,,,,,,,,FF,,,,,,,,0.7494,,,,,,,,,,,,,,,,,,,,,,60fcd3ee451b8deffca413ee,61036c7484ad83fd30723a61,2021-07-29_22h06.00.299,Simcolourproject_2stim_asymm_v5,2020.2.10,Win32,60,61025ae37ef11b136ea224fe,,,,,,,,,4178,26,92,1,0,0,response1disk,,7,1,1,1,0,0,rectangle,1,1,1,0,0,,,,,,,1,1,1,0,0,,0,37,37,115,1,
,,,,,,,,,,,,,FF,,,,,,,,1.5484,,,,,,,,,,,,,,,,,,,,,,60fcd3ee451b8deffca413ee,61036c7484ad83fd30723a61,2021-07-29_22h06.00.299,Simcolourproject_2stim_asymm_v5,2020.2.10,Win32,60,61025ae37ef11b136ea224fe,,,,,,,,,3582,31,87,1,0,0,response1disk,,7,-7,3,1,0,0,rectangle,-7,3,1,0,0,,,,,,,-7,3,1,0,0,,0,38,38,136,1,
,,,,,,,,,,,,,FF,,,,,,,,1.265,,,,,,,,,,,,,,,,,,,,,,60fcd3ee451b8deffca413ee,61036c7484ad83fd30723a61,2021-07-29_22h06.00.299,Simcolourproject_2stim_asymm_v5,2020.2.10,Win32,60,61025ae37ef11b136ea224fe,,,,,,,,,3596,70,35,1,0,0,response1disk,,6,10,-4,1,0,0,rectangle,10,-4,1,0,0,,,,,,,10,-4,1,0,0,,0,39,39,158,1,
,,,,,,,,,,,,,FF,,,,,,,,0.8656,,,,,,,,,,,,,,,,,,,,,,60fcd3ee451b8deffca413ee,61036c7484ad83fd30723a61,2021-07-29_22h06.00.299,Simcolourproject_2stim_asymm_v5,2020.2.10,Win32,60,61025ae37ef11b136ea224fe,,,,,,,,,2339,44,93,1,0,0,response1disk,,7,9,-2,1,0,0,rectangle,9,-2,1,0,0,,,,,,,9,-2,1,0,0,,0,40,40,59,1,
,,,,,,,,,,,,,FF,,,,,,,,0.8821,,,,,,,,,,,,,,,,,,,,,,60fcd3ee451b8deffca413ee,61036c7484ad83fd30723a61,2021-07-29_22h06.00.299,Simcolourproject_2stim_asymm_v5,2020.2.10,Win32,60,61025ae37ef11b136ea224fe,,,,,,,,,3560,-35,-45,1,0,0,response5disk,,3,-17,-3,1,0,0,rectangle,-17,-3,1,0,0,,,,,,,-17,-3,1,0,0,,0,41,41,103,1,
,,,,,,,,,,,,,FF,,,,,,,,1.115,,,,,,,,,,,,,,,,,,,,,,60fcd3ee451b8deffca413ee,61036c7484ad83fd30723a61,2021-07-29_22h06.00.299,Simcolourproject_2stim_asymm_v5,2020.2.10,Win32,60,61025ae37ef11b136ea224fe,,,,,,,,,4360,-73,-52,1,0,0,response5disk,,2,-1,2,1,0,0,rectangle,-1,2,1,0,0,,,,,,,-1,2,1,0,0,,0,42,42,25,1,
,,,,,,,,,,,,,FF,,,,,,,,2.2479,,,,,,,,,,,,,,,,,,,,,,60fcd3ee451b8deffca413ee,61036c7484ad83fd30723a61,2021-07-29_22h06.00.299,Simcolourproject_2stim_asymm_v5,2020.2.10,Win32,60,61025ae37ef11b136ea224fe,,,,,,,,,2049,28,-65,1,0,0,response3disk,,4,16,5,1,0,0,rectangle,16,5,1,0,0,,,,,,,16,5,1,0,0,,0,43,43,49,1,
,,,,,,,,,,,,,FF,,,,,,,,1.0648,,,,,,,,,,,,,,,,,,,,,,60fcd3ee451b8deffca413ee,61036c7484ad83fd30723a61,2021-07-29_22h06.00.299,Simcolourproject_2stim_asymm_v5,2020.2.10,Win32,60,61025ae37ef11b136ea224fe,,,,,,,,,611,50,28,1,0,0,response1disk,,6,-7,-4,1,0,0,rectangle,-7,-4,1,0,0,,,,,,,-7,-4,1,0,0,,0,44,44,120,1,
,,,,,,,,,,,,,FF,,,,,,,,0.9995,,,,,,,,,,,,,,,,,,,,,,60fcd3ee451b8deffca413ee,61036c7484ad83fd30723a61,2021-07-29_22h06.00.299,Simcolourproject_2stim_asymm_v5,2020.2.10,Win32,60,61025ae37ef11b136ea224fe,,,,,,,,,999,39,55,1,0,0,response1disk,,7,5,-6,1,0,0,rectangle,5,-6,1,0,0,,,,,,,5,-6,1,0,0,,0,45,45,91,1,
,,,,,,,,,,,,,FF,,,,,,,,1.0156,,,,,,,,,,,,,,,,,,,,,,60fcd3ee451b8deffca413ee,61036c7484ad83fd30723a61,2021-07-29_22h06.00.299,Simcolourproject_2stim_asymm_v5,2020.2.10,Win32,60,61025ae37ef11b136ea224fe,,,,,,,,,2572,20,52,1,0,0,response1disk,,7,8,9,1,0,0,rectangle,8,9,1,0,0,,,,,,,8,9,1,0,0,,0,46,46,152,1,
,,,,,,,,,,,,,FF,,,,,,,,1.6975,,,,,,,,,,,,,,,,,,,,,,60fcd3ee451b8deffca413ee,61036c7484ad83fd30723a61,2021-07-29_22h06.00.299,Simcolourproject_2stim_asymm_v5,2020.2.10,Win32,60,61025ae37ef11b136ea224fe,,,,,,,,,1242,19,58,1,0,0,response1disk,,7,7,8,1,0,0,rectangle,7,8,1,0,0,,,,,,,7,8,1,0,0,,0,47,47,149,1,
,,,,,,,,,,,,,FF,,,,,,,,0.7836,,,,,,,,,,,,,,,,,,,,,,60fcd3ee451b8deffca413ee,61036c7484ad83fd30723a61,2021-07-29_22h06.00.299,Simcolourproject_2stim_asymm_v5,2020.2.10,Win32,60,61025ae37ef11b136ea224fe,,,,,,,,,3665,20,78,1,0,0,response1disk,,7,6,2,1,0,0,rectangle,6,2,1,0,0,,,,,,,6,2,1,0,0,,0,48,48,116,1,
,,,,,,,,,,,,,FF,,,,,,,,0.949,,,,,,,,,,,,,,,,,,,,,,60fcd3ee451b8deffca413ee,61036c7484ad83fd30723a61,2021-07-29_22h06.00.299,Simcolourproject_2stim_asymm_v5,2020.2.10,Win32,60,61025ae37ef11b136ea224fe,,,,,,,,,2340,52,34,1,0,0,response1disk,,6,17,4,1,0,0,rectangle,17,4,1,0,0,,,,,,,17,4,1,0,0,,0,49,49,52,1,
,,,,,,,,,,,,,FF,,,,,,,,1.5985,,,,,,,,,,,,,,,,,,,,,,60fcd3ee451b8deffca413ee,61036c7484ad83fd30723a61,2021-07-29_22h06.00.299,Simcolourproject_2stim_asymm_v5,2020.2.10,Win32,60,61025ae37ef11b136ea224fe,,,,,,,,,220,67,23,1,0,0,response1disk,,6,23,-5,1,0,0,rectangle,23,-5,1,0,0,,,,,,,23,-5,1,0,0,,0,50,50,155,1,
,,,,,,,,,,,,,FF,,,,,,,,1.7481,,,,,,,,,,,,,,,,,,,,,,60fcd3ee451b8deffca413ee,61036c7484ad83fd30723a61,2021-07-29_22h06.00.299,Simcolourproject_2stim_asymm_v5,2020.2.10,Win32,60,61025ae37ef11b136ea224fe,,,,,,,,,833,28,71,1,0,0,response1disk,,7,-5,4,1,0,0,rectangle,-5,4,1,0,0,,,,,,,-5,4,1,0,0,,0,51,51,157,1,
,,,,,,,,,,,,,FF,,,,,,,,1.7648,,,,,,,,,,,,,,,,,,,,,,60fcd3ee451b8deffca413ee,61036c7484ad83fd30723a61,2021-07-29_22h06.00.299,Simcolourproject_2stim_asymm_v5,2020.2.10,Win32,60,61025ae37ef11b136ea224fe,,,,,,,,,3710,60,28,1,0,0,response1disk,,6,19,2,1,0,0,rectangle,19,2,1,0,0,,,,,,,19,2,1,0,0,,0,52,52,141,1,
,,,,,,,,,,,,,FF,,,,,,,,0.7496,,,,,,,,,,,,,,,,,,,,,,60fcd3ee451b8deffca413ee,61036c7484ad83fd30723a61,2021-07-29_22h06.00.299,Simcolourproject_2stim_asymm_v5,2020.2.10,Win32,60,61025ae37ef11b136ea224fe,,,,,,,,,288,36,76,1,0,0,response1disk,,7,2,1,1,0,0,rectangle,2,1,1,0,0,,,,,,,2,1,1,0,0,,0,53,53,39,1,
,,,,,,,,,,,,,FF,,,,,,,,0.9657,,,,,,,,,,,,,,,,,,,,,,60fcd3ee451b8deffca413ee,61036c7484ad83fd30723a61,2021-07-29_22h06.00.299,Simcolourproject_2stim_asymm_v5,2020.2.10,Win32,60,61025ae37ef11b136ea224fe,,,,,,,,,3650,23,46,1,0,0,response1disk,,7,3,-9,1,0,0,rectangle,3,-9,1,0,0,,,,,,,3,-9,1,0,0,,0,54,54,156,1,
,,,,,,,,,,,,,FF,,,,,,,,0.7991,,,,,,,,,,,,,,,,,,,,,,60fcd3ee451b8deffca413ee,61036c7484ad83fd30723a61,2021-07-29_22h06.00.299,Simcolourproject_2stim_asymm_v5,2020.2.10,Win32,60,61025ae37ef11b136ea224fe,,,,,,,,,1016,29,87,1,0,0,response1disk,,7,4,5,1,0,0,rectangle,4,5,1,0,0,,,,,,,4,5,1,0,0,,0,55,55,76,1,
,,,,,,,,,,,,,FF,,,,,,,,1.7982,,,,,,,,,,,,,,,,,,,,,,60fcd3ee451b8deffca413ee,61036c7484ad83fd30723a61,2021-07-29_22h06.00.299,Simcolourproject_2stim_asymm_v5,2020.2.10,Win32,60,61025ae37ef11b136ea224fe,,,,,,,,,4123,70,-43,1,0,0,response3disk,,5,10,-6,1,0,0,rectangle,10,-6,1,0,0,,,,,,,10,-6,1,0,0,,0,56,56,98,1,
,,,,,,,,,,,,,FF,,,,,,,,0.6662,,,,,,,,,,,,,,,,,,,,,,60fcd3ee451b8deffca413ee,61036c7484ad83fd30723a61,2021-07-29_22h06.00.299,Simcolourproject_2stim_asymm_v5,2020.2.10,Win32,60,61025ae37ef11b136ea224fe,,,,,,,,,4060,58,-37,1,0,0,response3disk,,5,-1,7,1,0,0,rectangle,-1,7,1,0,0,,,,,,,-1,7,1,0,0,,0,57,57,21,1,
,,,,,,,,,,,,,FF,,,,,,,,0.8825,,,,,,,,,,,,,,,,,,,,,,60fcd3ee451b8deffca413ee,61036c7484ad83fd30723a61,2021-07-29_22h06.00.299,Simcolourproject_2stim_asymm_v5,2020.2.10,Win32,60,61025ae37ef11b136ea224fe,,,,,,,,,4069,68,55,1,0,0,response1disk,,6,16,5,1,0,0,rectangle,16,5,1,0,0,,,,,,,16,5,1,0,0,,0,58,58,45,1,
,,,,,,,,,,,,,FF,,,,,,,,0.8819,,,,,,,,,,,,,,,,,,,,,,60fcd3ee451b8deffca413ee,61036c7484ad83fd30723a61,2021-07-29_22h06.00.299,Simcolourproject_2stim_asymm_v5,2020.2.10,Win32,60,61025ae37ef11b136ea224fe,,,,,,,,,968,-79,-27,1,0,0,response5disk,,2,-20,-2,1,0,0,rectangle,-20,-2,1,0,0,,,,,,,-20,-2,1,0,0,,0,59,59,3,1,
,,,,,,,,,,,,,FF,,,,,,,,0.9158,,,,,,,,,,,,,,,,,,,,,,60fcd3ee451b8deffca413ee,61036c7484ad83fd30723a61,2021-07-29_22h06.00.299,Simcolourproject_2stim_asymm_v5,2020.2.10,Win32,60,61025ae37ef11b136ea224fe,,,,,,,,,1690,-41,-51,1,0,0,response5disk,,3,6,6,1,0,0,rectangle,6,6,1,0,0,,,,,,,6,6,1,0,0,,0,60,60,79,1,
,,,,,,,,,,,,,FF,,,,,,,,1.099,,,,,,,,,,,,,,,,,,,,,,60fcd3ee451b8deffca413ee,61036c7484ad83fd30723a61,2021-07-29_22h06.00.299,Simcolourproject_2stim_asymm_v5,2020.2.10,Win32,60,61025ae37ef11b136ea224fe,,,,,,,,,2578,59,27,1,0,0,response1disk,,6,15,-9,1,0,0,rectangle,15,-9,1,0,0,,,,,,,15,-9,1,0,0,,0,61,61,14,1,
,,,,,,,,,,,,,FF,,,,,,,,1.9653,,,,,,,,,,,,,,,,,,,,,,60fcd3ee451b8deffca413ee,61036c7484ad83fd30723a61,2021-07-29_22h06.00.299,Simcolourproject_2stim_asymm_v5,2020.2.10,Win32,60,61025ae37ef11b136ea224fe,,,,,,,,,2671,93,-35,1,0,0,response3disk,,5,-32,1,1,0,0,rectangle,-32,1,1,0,0,,,,,,,-32,1,1,0,0,,0,62,62,144,1,
,,,,,,,,,,,,,FF,,,,,,,,0.816,,,,,,,,,,,,,,,,,,,,,,60fcd3ee451b8deffca413ee,61036c7484ad83fd30723a61,2021-07-29_22h06.00.299,Simcolourproject_2stim_asymm_v5,2020.2.10,Win32,60,61025ae37ef11b136ea224fe,,,,,,,,,393,57,48,1,0,0,response1disk,,6,0,-1,1,0,0,rectangle,0,-1,1,0,0,,,,,,,0,-1,1,0,0,,0,63,63,128,1,
,,,,,,,,,,,,,FF,,,,,,,,1.0153,,,,,,,,,,,,,,,,,,,,,,60fcd3ee451b8deffca413ee,61036c7484ad83fd30723a61,2021-07-29_22h06.00.299,Simcolourproject_2stim_asymm_v5,2020.2.10,Win32,60,61025ae37ef11b136ea224fe,,,,,,,,,2738,78,46,1,0,0,response1disk,,6,20,7,1,0,0,rectangle,20,7,1,0,0,,,,,,,20,7,1,0,0,,0,64,64,109,1,
,,,,,,,,,,,,,FF,,,,,,,,0.8992,,,,,,,,,,,,,,,,,,,,,,60fcd3ee451b8deffca413ee,61036c7484ad83fd30723a61,2021-07-29_22h06.00.299,Simcolourproject_2stim_asymm_v5,2020.2.10,Win32,60,61025ae37ef11b136ea224fe,,,,,,,,,4045,38,52,1,0,0,response1disk,,7,12,4,1,0,0,rectangle,12,4,1,0,0,,,,,,,12,4,1,0,0,,0,65,65,40,1,
,,,,,,,,,,,,,FF,,,,,,,,0.9825,,,,,,,,,,,,,,,,,,,,,,60fcd3ee451b8deffca413ee,61036c7484ad83fd30723a61,2021-07-29_22h06.00.299,Simcolourproject_2stim_asymm_v5,2020.2.10,Win32,60,61025ae37ef11b136ea224fe,,,,,,,,,1306,-73,16,1,0,0,response7disk,,1,-6,-6,1,0,0,rectangle,-6,-6,1,0,0,,,,,,,-6,-6,1,0,0,,0,66,66,0,1,
,,,,,,,,,,,,,FF,,,,,,,,1.2155,,,,,,,,,,,,,,,,,,,,,,60fcd3ee451b8deffca413ee,61036c7484ad83fd30723a61,2021-07-29_22h06.00.299,Simcolourproject_2stim_asymm_v5,2020.2.10,Win32,60,61025ae37ef11b136ea224fe,,,,,,,,,3743,-83,38,1,0,0,response7disk,,1,-18,8,1,0,0,rectangle,-18,8,1,0,0,,,,,,,-18,8,1,0,0,,0,67,67,131,1,
,,,,,,,,,,,,,FF,,,,,,,,1.2323,,,,,,,,,,,,,,,,,,,,,,60fcd3ee451b8deffca413ee,61036c7484ad83fd30723a61,2021-07-29_22h06.00.299,Simcolourproject_2stim_asymm_v5,2020.2.10,Win32,60,61025ae37ef11b136ea224fe,,,,,,,,,828,-50,-56,1,0,0,response5disk,,3,-14,-8,1,0,0,rectangle,-14,-8,1,0,0,,,,,,,-14,-8,1,0,0,,0,68,68,19,1,
,,,,,,,,,,,,,FF,,,,,,,,1.4814,,,,,,,,,,,,,,,,,,,,,,60fcd3ee451b8deffca413ee,61036c7484ad83fd30723a61,2021-07-29_22h06.00.299,Simcolourproject_2stim_asymm_v5,2020.2.10,Win32,60,61025ae37ef11b136ea224fe,,,,,,,,,1512,31,99,1,0,0,response1disk,,7,-1,-9,1,0,0,rectangle,-1,-9,1,0,0,,,,,,,-1,-9,1,0,0,,0,69,69,31,1,
,,,,,,,,,,,,,FF,,,,,,,,1.3318,,,,,,,,,,,,,,,,,,,,,,60fcd3ee451b8deffca413ee,61036c7484ad83fd30723a61,2021-07-29_22h06.00.299,Simcolourproject_2stim_asymm_v5,2020.2.10,Win32,60,61025ae37ef11b136ea224fe,,,,,,,,,3057,-52,-94,1,0,0,response5disk,,3,-18,-4,1,0,0,rectangle,-18,-4,1,0,0,,,,,,,-18,-4,1,0,0,,0,70,70,135,1,
,,,,,,,,,,,,,FF,,,,,,,,2.7468,,,,,,,,,,,,,,,,,,,,,,60fcd3ee451b8deffca413ee,61036c7484ad83fd30723a61,2021-07-29_22h06.00.299,Simcolourproject_2stim_asymm_v5,2020.2.10,Win32,60,61025ae37ef11b136ea224fe,,,,,,,,,1183,104,63,1,0,0,response1disk,,6,8,10,1,0,0,rectangle,8,10,1,0,0,,,,,,,8,10,1,0,0,,0,71,71,26,1,
,,,,,,,,,,,,,FF,,,,,,,,0.8825,,,,,,,,,,,,,,,,,,,,,,60fcd3ee451b8deffca413ee,61036c7484ad83fd30723a61,2021-07-29_22h06.00.299,Simcolourproject_2stim_asymm_v5,2020.2.10,Win32,60,61025ae37ef11b136ea224fe,,,,,,,,,745,-30,-87,1,0,0,response5disk,,3,-8,2,1,0,0,rectangle,-8,2,1,0,0,,,,,,,-8,2,1,0,0,,0,72,72,92,1,
,,,,,,,,,,,,,FF,,,,,,,,0.7659,,,,,,,,,,,,,,,,,,,,,,60fcd3ee451b8deffca413ee,61036c7484ad83fd30723a61,2021-07-29_22h06.00.299,Simcolourproject_2stim_asymm_v5,2020.2.10,Win32,60,61025ae37ef11b136ea224fe,,,,,,,,,1658,57,-37,1,0,0,response3disk,,5,-6,5,1,0,0,rectangle,-6,5,1,0,0,,,,,,,-6,5,1,0,0,,0,73,73,150,1,
,,,,,,,,,,,,,FF,,,,,,,,5.4102,,,,,,,,,,,,,,,,,,,,,,60fcd3ee451b8deffca413ee,61036c7484ad83fd30723a61,2021-07-29_22h06.00.299,Simcolourproject_2stim_asymm_v5,2020.2.10,Win32,60,61025ae37ef11b136ea224fe,,,,,,,,,759,72,29,1,0,0,response1disk,,6,15,10,1,0,0,rectangle,15,10,1,0,0,,,,,,,15,10,1,0,0,,0,74,74,9,1,
,,,,,,,,,,,,,FF,,,,,,,,0.9655,,,,,,,,,,,,,,,,,,,,,,60fcd3ee451b8deffca413ee,61036c7484ad83fd30723a61,2021-07-29_22h06.00.299,Simcolourproject_2stim_asymm_v5,2020.2.10,Win32,60,61025ae37ef11b136ea224fe,,,,,,,,,2486,-70,-31,1,0,0,response5disk,,2,-1,11,1,0,0,rectangle,-1,11,1,0,0,,,,,,,-1,11,1,0,0,,0,75,75,125,1,
,,,,,,,,,,,,,FF,,,,,,,,1.1985,,,,,,,,,,,,,,,,,,,,,,60fcd3ee451b8deffca413ee,61036c7484ad83fd30723a61,2021-07-29_22h06.00.299,Simcolourproject_2stim_asymm_v5,2020.2.10,Win32,60,61025ae37ef11b136ea224fe,,,,,,,,,3781,-23,-59,1,0,0,response5disk,,3,3,6,1,0,0,rectangle,30,84,1,0,0,response1disk_3,TRUE,7,7,"[209,102,249,33,95,126,160,176,90,200,203,152,156,171,77,1,84,178,19,138]",3.1968,6,6,1,0,0,rectangle,0,76,76,127,1,
,,,,,,,,,,,,,FF,,,,,,,,1.2321,,,,,,,,,,,,,,,,,,,,,,60fcd3ee451b8deffca413ee,61036c7484ad83fd30723a61,2021-07-29_22h06.00.299,Simcolourproject_2stim_asymm_v5,2020.2.10,Win32,60,61025ae37ef11b136ea224fe,,,,,,,,,4046,-52,87,1,0,0,response7disk,,0,-8,10,1,0,0,rectangle,-8,10,1,0,0,,,,,,,-8,10,1,0,0,,0,77,77,81,1,
,,,,,,,,,,,,,FF,,,,,,,,1.2653,,,,,,,,,,,,,,,,,,,,,,60fcd3ee451b8deffca413ee,61036c7484ad83fd30723a61,2021-07-29_22h06.00.299,Simcolourproject_2stim_asymm_v5,2020.2.10,Win32,60,61025ae37ef11b136ea224fe,,,,,,,,,1544,-55,-71,1,0,0,response5disk,,3,-15,0,1,0,0,rectangle,-15,0,1,0,0,,,,,,,-15,0,1,0,0,,0,78,78,44,1,
,,,,,,,,,,,,,FF,,,,,,,,1.6985,,,,,,,,,,,,,,,,,,,,,,60fcd3ee451b8deffca413ee,61036c7484ad83fd30723a61,2021-07-29_22h06.00.299,Simcolourproject_2stim_asymm_v5,2020.2.10,Win32,60,61025ae37ef11b136ea224fe,,,,,,,,,3738,69,-45,1,0,0,response3disk,,5,-4,-3,1,0,0,rectangle,-4,-3,1,0,0,,,,,,,-4,-3,1,0,0,,0,79,79,80,1,
,,,,,,,,,,,,,FF,,,,,,,,0.8989,,,,,,,,,,,,,,,,,,,,,,60fcd3ee451b8deffca413ee,61036c7484ad83fd30723a61,2021-07-29_22h06.00.299,Simcolourproject_2stim_asymm_v5,2020.2.10,Win32,60,61025ae37ef11b136ea224fe,,,,,,,,,3031,67,36,1,0,0,response1disk,,6,2,-15,1,0,0,rectangle,2,-15,1,0,0,,,,,,,2,-15,1,0,0,,0,80,80,4,1,
,,,,,,,,,,,,,FF,,,,,,,,1.299,,,,,,,,,,,,,,,,,,,,,,60fcd3ee451b8deffca413ee,61036c7484ad83fd30723a61,2021-07-29_22h06.00.299,Simcolourproject_2stim_asymm_v5,2020.2.10,Win32,60,61025ae37ef11b136ea224fe,,,,,,,,,1282,78,40,1,0,0,response1disk,,6,7,0,1,0,0,rectangle,7,0,1,0,0,,,,,,,7,0,1,0,0,,0,81,81,119,1,
,,,,,,,,,,,,,FF,,,,,,,,0.9323,,,,,,,,,,,,,,,,,,,,,,60fcd3ee451b8deffca413ee,61036c7484ad83fd30723a61,2021-07-29_22h06.00.299,Simcolourproject_2stim_asymm_v5,2020.2.10,Win32,60,61025ae37ef11b136ea224fe,,,,,,,,,1100,29,71,1,0,0,response1disk,,7,-3,4,1,0,0,rectangle,-3,4,1,0,0,,,,,,,-3,4,1,0,0,,0,82,82,20,1,
,,,,,,,,,,,,,FF,,,,,,,,7.4414,,,,,,,,,,,,,,,,,,,,,,60fcd3ee451b8deffca413ee,61036c7484ad83fd30723a61,2021-07-29_22h06.00.299,Simcolourproject_2stim_asymm_v5,2020.2.10,Win32,60,61025ae37ef11b136ea224fe,,,,,,,,,16,27,82,1,0,0,response1disk,,7,0,2,1,0,0,rectangle,76,40,1,0,0,response1disk_3,TRUE,6,6,"[209,102,249,33,95,126,160,176,90,200,203,152,156,171,77,1,84,178,19,138]",28.1343,-3,2,1,0,0,rectangle,0,83,83,33,1,
,,,,,,,,,,,,,FF,,,,,,,,1.3317,,,,,,,,,,,,,,,,,,,,,,60fcd3ee451b8deffca413ee,61036c7484ad83fd30723a61,2021-07-29_22h06.00.299,Simcolourproject_2stim_asymm_v5,2020.2.10,Win32,60,61025ae37ef11b136ea224fe,,,,,,,,,1770,71,24,1,0,0,response1disk,,6,17,5,1,0,0,rectangle,17,5,1,0,0,,,,,,,17,5,1,0,0,,0,84,84,85,1,
,,,,,,,,,,,,,FF,,,,,,,,3.7458,,,,,,,,,,,,,,,,,,,,,,60fcd3ee451b8deffca413ee,61036c7484ad83fd30723a61,2021-07-29_22h06.00.299,Simcolourproject_2stim_asymm_v5,2020.2.10,Win32,60,61025ae37ef11b136ea224fe,,,,,,,,,1140,62,-39,1,0,0,response3disk,,5,-9,0,1,0,0,rectangle,-9,0,1,0,0,,,,,,,-9,0,1,0,0,,0,85,85,153,1,
,,,,,,,,,,,,,FF,,,,,,,,0.833,,,,,,,,,,,,,,,,,,,,,,60fcd3ee451b8deffca413ee,61036c7484ad83fd30723a61,2021-07-29_22h06.00.299,Simcolourproject_2stim_asymm_v5,2020.2.10,Win32,60,61025ae37ef11b136ea224fe,,,,,,,,,435,-30,-64,1,0,0,response5disk,,3,2,1,1,0,0,rectangle,2,1,1,0,0,,,,,,,2,1,1,0,0,,0,86,86,88,1,
,,,,,,,,,,,,,FF,,,,,,,,0.7667,,,,,,,,,,,,,,,,,,,,,,60fcd3ee451b8deffca413ee,61036c7484ad83fd30723a61,2021-07-29_22h06.00.299,Simcolourproject_2stim_asymm_v5,2020.2.10,Win32,60,61025ae37ef11b136ea224fe,,,,,,,,,2192,29,87,1,0,0,response1disk,,7,-4,3,1,0,0,rectangle,-4,3,1,0,0,,,,,,,-4,3,1,0,0,,0,87,87,89,1,
,,,,,,,,,,,,,FF,,,,,,,,1.3815,,,,,,,,,,,,,,,,,,,,,,60fcd3ee451b8deffca413ee,61036c7484ad83fd30723a61,2021-07-29_22h06.00.299,Simcolourproject_2stim_asymm_v5,2020.2.10,Win32,60,61025ae37ef11b136ea224fe,,,,,,,,,3445,32,69,1,0,0,response1disk,,7,9,5,1,0,0,rectangle,9,5,1,0,0,,,,,,,9,5,1,0,0,,0,88,88,145,1,
,,,,,,,,,,,,,FF,,,,,,,,0.616,,,,,,,,,,,,,,,,,,,,,,60fcd3ee451b8deffca413ee,61036c7484ad83fd30723a61,2021-07-29_22h06.00.299,Simcolourproject_2stim_asymm_v5,2020.2.10,Win32,60,61025ae37ef11b136ea224fe,,,,,,,,,2809,34,71,1,0,0,response1disk,,7,8,-2,1,0,0,rectangle,-39,86,1,0,0,response7disk_3,TRUE,0,0,"[209,102,249,33,95,126,160,176,90,200,203,152,156,171,77,1,84,178,19,138]",50.2757,0,4,1,0,0,rectangle,0,89,89,100,1,
,,,,,,,,,,,,,FF,,,,,,,,0.9824,,,,,,,,,,,,,,,,,,,,,,60fcd3ee451b8deffca413ee,61036c7484ad83fd30723a61,2021-07-29_22h06.00.299,Simcolourproject_2stim_asymm_v5,2020.2.10,Win32,60,61025ae37ef11b136ea224fe,,,,,,,,,1222,-74,-45,1,0,0,response5disk,,2,-10,-7,1,0,0,rectangle,-10,-7,1,0,0,,,,,,,-10,-7,1,0,0,,0,90,90,50,1,
,,,,,,,,,,,,,FF,,,,,,,,1.5483,,,,,,,,,,,,,,,,,,,,,,60fcd3ee451b8deffca413ee,61036c7484ad83fd30723a61,2021-07-29_22h06.00.299,Simcolourproject_2stim_asymm_v5,2020.2.10,Win32,60,61025ae37ef11b136ea224fe,,,,,,,,,3955,37,-77,1,0,0,response3disk,,4,-4,-7,1,0,0,rectangle,-4,-7,1,0,0,,,,,,,-4,-7,1,0,0,,0,91,91,17,1,
,,,,,,,,,,,,,FF,,,,,,,,1.964,,,,,,,,,,,,,,,,,,,,,,60fcd3ee451b8deffca413ee,61036c7484ad83fd30723a61,2021-07-29_22h06.00.299,Simcolourproject_2stim_asymm_v5,2020.2.10,Win32,60,61025ae37ef11b136ea224fe,,,,,,,,,2776,-75,-34,1,0,0,response5disk,,2,7,7,1,0,0,rectangle,7,7,1,0,0,,,,,,,7,7,1,0,0,,0,92,92,138,1,
,,,,,,,,,,,,,FF,,,,,,,,1.8479,,,,,,,,,,,,,,,,,,,,,,60fcd3ee451b8deffca413ee,61036c7484ad83fd30723a61,2021-07-29_22h06.00.299,Simcolourproject_2stim_asymm_v5,2020.2.10,Win32,60,61025ae37ef11b136ea224fe,,,,,,,,,121,76,45,1,0,0,response1disk,,6,-11,-9,1,0,0,rectangle,-11,-9,1,0,0,,,,,,,-11,-9,1,0,0,,0,93,93,65,1,
,,,,,,,,,,,,,FF,,,,,,,,0.7492,,,,,,,,,,,,,,,,,,,,,,60fcd3ee451b8deffca413ee,61036c7484ad83fd30723a61,2021-07-29_22h06.00.299,Simcolourproject_2stim_asymm_v5,2020.2.10,Win32,60,61025ae37ef11b136ea224fe,,,,,,,,,3300,34,88,1,0,0,response1disk,,7,-3,9,1,0,0,rectangle,45,-77,1,0,0,response3disk_3,TRUE,4,4,"[209,102,249,33,95,126,160,176,90,200,203,152,156,171,77,1,84,178,19,138]",24.9213,-21,9,1,0,0,rectangle,0,94,94,154,1,
,,,,,,,,,,,,,FF,,,,,,,,1.2492,,,,,,,,,,,,,,,,,,,,,,60fcd3ee451b8deffca413ee,61036c7484ad83fd30723a61,2021-07-29_22h06.00.299,Simcolourproject_2stim_asymm_v5,2020.2.10,Win32,60,61025ae37ef11b136ea224fe,,,,,,,,,3846,-73,23,1,0,0,response7disk,,1,-24,9,1,0,0,rectangle,-24,9,1,0,0,,,,,,,-24,9,1,0,0,,0,95,95,137,1,
,,,,,,,,,,,,,FF,,,,,,,,0.7823,,,,,,,,,,,,,,,,,,,,,,60fcd3ee451b8deffca413ee,61036c7484ad83fd30723a61,2021-07-29_22h06.00.299,Simcolourproject_2stim_asymm_v5,2020.2.10,Win32,60,61025ae37ef11b136ea224fe,,,,,,,,,1525,-83,-35,1,0,0,response5disk,,2,2,5,1,0,0,rectangle,2,5,1,0,0,,,,,,,2,5,1,0,0,,0,96,96,37,1,
,,,,,,,,,,,,,FF,,,,,,,,0.9657,,,,,,,,,,,,,,,,,,,,,,60fcd3ee451b8deffca413ee,61036c7484ad83fd30723a61,2021-07-29_22h06.00.299,Simcolourproject_2stim_asymm_v5,2020.2.10,Win32,60,61025ae37ef11b136ea224fe,,,,,,,,,1562,41,65,1,0,0,response1disk,,7,15,11,1,0,0,rectangle,15,11,1,0,0,,,,,,,15,11,1,0,0,,0,97,97,143,1,
,,,,,,,,,,,,,FF,,,,,,,,0.5824,,,,,,,,,,,,,,,,,,,,,,60fcd3ee451b8deffca413ee,61036c7484ad83fd30723a61,2021-07-29_22h06.00.299,Simcolourproject_2stim_asymm_v5,2020.2.10,Win32,60,61025ae37ef11b136ea224fe,,,,,,,,,1010,29,76,1,0,0,response1disk,,7,4,-1,1,0,0,rectangle,4,-1,1,0,0,,,,,,,4,-1,1,0,0,,0,98,98,123,1,
,,,,,,,,,,,,,FF,,,,,,,,0.9156,,,,,,,,,,,,,,,,,,,,,,60fcd3ee451b8deffca413ee,61036c7484ad83fd30723a61,2021-07-29_22h06.00.299,Simcolourproject_2stim_asymm_v5,2020.2.10,Win32,60,61025ae37ef11b136ea224fe,,,,,,,,,1397,32,64,1,0,0,response1disk,,7,8,-4,1,0,0,rectangle,8,-4,1,0,0,,,,,,,8,-4,1,0,0,,0,99,99,114,1,
,,,,,,,,,,,,,FF,,,,,,,,2.2979,,,,,,,,,,,,,,,,,,,,,,60fcd3ee451b8deffca413ee,61036c7484ad83fd30723a61,2021-07-29_22h06.00.299,Simcolourproject_2stim_asymm_v5,2020.2.10,Win32,60,61025ae37ef11b136ea224fe,,,,,,,,,1228,61,32,1,0,0,response1disk,,6,-3,-6,1,0,0,rectangle,-3,-6,1,0,0,,,,,,,-3,-6,1,0,0,,0,100,100,27,1,
,,,,,,,,,,,,,FF,,,,,,,,0.9328,,,,,,,,,,,,,,,,,,,,,,60fcd3ee451b8deffca413ee,61036c7484ad83fd30723a61,2021-07-29_22h06.00.299,Simcolourproject_2stim_asymm_v5,2020.2.10,Win32,60,61025ae37ef11b136ea224fe,,,,,,,,,303,51,97,1,0,0,response1disk,,7,9,11,1,0,0,rectangle,-45,-73,1,0,0,response5disk_3,TRUE,3,3,"[209,102,249,33,95,126,160,176,90,200,203,152,156,171,77,1,84,178,19,138]",1.9305,-8,1,1,0,0,rectangle,0,101,101,97,1,
,,,,,,,,,,,,,FF,,,,,,,,0.9157,,,,,,,,,,,,,,,,,,,,,,60fcd3ee451b8deffca413ee,61036c7484ad83fd30723a61,2021-07-29_22h06.00.299,Simcolourproject_2stim_asymm_v5,2020.2.10,Win32,60,61025ae37ef11b136ea224fe,,,,,,,,,2409,34,60,1,0,0,response1disk,,7,1,-5,1,0,0,rectangle,1,-5,1,0,0,,,,,,,1,-5,1,0,0,,0,102,102,112,1,
,,,,,,,,,,,,,FF,,,,,,,,1.2317,,,,,,,,,,,,,,,,,,,,,,60fcd3ee451b8deffca413ee,61036c7484ad83fd30723a61,2021-07-29_22h06.00.299,Simcolourproject_2stim_asymm_v5,2020.2.10,Win32,60,61025ae37ef11b136ea224fe,,,,,,,,,1510,30,68,1,0,0,response1disk,,7,8,8,1,0,0,rectangle,8,8,1,0,0,,,,,,,8,8,1,0,0,,0,103,103,117,1,
,,,,,,,,,,,,,FF,,,,,,,,0.9655,,,,,,,,,,,,,,,,,,,,,,60fcd3ee451b8deffca413ee,61036c7484ad83fd30723a61,2021-07-29_22h06.00.299,Simcolourproject_2stim_asymm_v5,2020.2.10,Win32,60,61025ae37ef11b136ea224fe,,,,,,,,,134,52,33,1,0,0,response1disk,,6,-10,-8,1,0,0,rectangle,-10,-8,1,0,0,,,,,,,-10,-8,1,0,0,,0,104,104,74,1,
,,,,,,,,,,,,,FF,,,,,,,,0.6825,,,,,,,,,,,,,,,,,,,,,,60fcd3ee451b8deffca413ee,61036c7484ad83fd30723a61,2021-07-29_22h06.00.299,Simcolourproject_2stim_asymm_v5,2020.2.10,Win32,60,61025ae37ef11b136ea224fe,,,,,,,,,4210,16,65,1,0,0,response1disk,,7,-23,-13,1,0,0,rectangle,-23,-13,1,0,0,,,,,,,-23,-13,1,0,0,,0,105,105,159,1,
,,,,,,,,,,,,,FF,,,,,,,,0.5828,,,,,,,,,,,,,,,,,,,,,,60fcd3ee451b8deffca413ee,61036c7484ad83fd30723a61,2021-07-29_22h06.00.299,Simcolourproject_2stim_asymm_v5,2020.2.10,Win32,60,61025ae37ef11b136ea224fe,,,,,,,,,1480,27,69,1,0,0,response1disk,,7,15,5,1,0,0,rectangle,15,5,1,0,0,,,,,,,15,5,1,0,0,,0,106,106,87,1,
,,,,,,,,,,,,,FF,,,,,,,,1.1653,,,,,,,,,,,,,,,,,,,,,,60fcd3ee451b8deffca413ee,61036c7484ad83fd30723a61,2021-07-29_22h06.00.299,Simcolourproject_2stim_asymm_v5,2020.2.10,Win32,60,61025ae37ef11b136ea224fe,,,,,,,,,1892,-79,-33,1,0,0,response5disk,,2,-4,15,1,0,0,rectangle,-4,15,1,0,0,,,,,,,-4,15,1,0,0,,0,107,107,23,1,
,,,,,,,,,,,,,FF,,,,,,,,0.8991,,,,,,,,,,,,,,,,,,,,,,60fcd3ee451b8deffca413ee,61036c7484ad83fd30723a61,2021-07-29_22h06.00.299,Simcolourproject_2stim_asymm_v5,2020.2.10,Win32,60,61025ae37ef11b136ea224fe,,,,,,,,,1821,-89,44,1,0,0,response7disk,,1,-11,-2,1,0,0,rectangle,-11,-2,1,0,0,,,,,,,-11,-2,1,0,0,,0,108,108,147,1,
,,,,,,,,,,,,,FF,,,,,,,,0.866,,,,,,,,,,,,,,,,,,,,,,60fcd3ee451b8deffca413ee,61036c7484ad83fd30723a61,2021-07-29_22h06.00.299,Simcolourproject_2stim_asymm_v5,2020.2.10,Win32,60,61025ae37ef11b136ea224fe,,,,,,,,,4200,-42,80,1,0,0,response7disk,,0,-4,9,1,0,0,rectangle,-4,9,1,0,0,,,,,,,-4,9,1,0,0,,0,109,109,93,1,
,,,,,,,,,,,,,FF,,,,,,,,0.6825,,,,,,,,,,,,,,,,,,,,,,60fcd3ee451b8deffca413ee,61036c7484ad83fd30723a61,2021-07-29_22h06.00.299,Simcolourproject_2stim_asymm_v5,2020.2.10,Win32,60,61025ae37ef11b136ea224fe,,,,,,,,,1723,35,61,1,0,0,response1disk,,7,6,2,1,0,0,rectangle,6,2,1,0,0,,,,,,,6,2,1,0,0,,0,110,110,140,1,
,,,,,,,,,,,,,FF,,,,,,,,1.5152,,,,,,,,,,,,,,,,,,,,,,60fcd3ee451b8deffca413ee,61036c7484ad83fd30723a61,2021-07-29_22h06.00.299,Simcolourproject_2stim_asymm_v5,2020.2.10,Win32,60,61025ae37ef11b136ea224fe,,,,,,,,,614,47,78,1,0,0,response1disk,,7,9,12,1,0,0,rectangle,9,12,1,0,0,,,,,,,9,12,1,0,0,,0,111,111,46,1,
,,,,,,,,,,,,,FF,,,,,,,,2.131,,,,,,,,,,,,,,,,,,,,,,60fcd3ee451b8deffca413ee,61036c7484ad83fd30723a61,2021-07-29_22h06.00.299,Simcolourproject_2stim_asymm_v5,2020.2.10,Win32,60,61025ae37ef11b136ea224fe,,,,,,,,,2783,89,-32,1,0,0,response3disk,,5,-8,3,1,0,0,rectangle,-8,3,1,0,0,,,,,,,-8,3,1,0,0,,0,112,112,94,1,
,,,,,,,,,,,,,FF,,,,,,,,2.0474,,,,,,,,,,,,,,,,,,,,,,60fcd3ee451b8deffca413ee,61036c7484ad83fd30723a61,2021-07-29_22h06.00.299,Simcolourproject_2stim_asymm_v5,2020.2.10,Win32,60,61025ae37ef11b136ea224fe,,,,,,,,,279,-24,-72,1,0,0,response5disk,,3,-7,-1,1,0,0,rectangle,-7,-1,1,0,0,,,,,,,-7,-1,1,0,0,,0,113,113,78,1,
,,,,,,,,,,,,,FF,,,,,,,,1.0656,,,,,,,,,,,,,,,,,,,,,,60fcd3ee451b8deffca413ee,61036c7484ad83fd30723a61,2021-07-29_22h06.00.299,Simcolourproject_2stim_asymm_v5,2020.2.10,Win32,60,61025ae37ef11b136ea224fe,,,,,,,,,683,92,-34,1,0,0,response3disk,,5,-12,-1,1,0,0,rectangle,-12,-1,1,0,0,,,,,,,-12,-1,1,0,0,,0,114,114,41,1,
,,,,,,,,,,,,,FF,,,,,,,,0.8658,,,,,,,,,,,,,,,,,,,,,,60fcd3ee451b8deffca413ee,61036c7484ad83fd30723a61,2021-07-29_22h06.00.299,Simcolourproject_2stim_asymm_v5,2020.2.10,Win32,60,61025ae37ef11b136ea224fe,,,,,,,,,227,39,82,1,0,0,response1disk,,7,14,-5,1,0,0,rectangle,14,-5,1,0,0,,,,,,,14,-5,1,0,0,,0,115,115,99,1,
,,,,,,,,,,,,,FF,,,,,,,,0.6495,,,,,,,,,,,,,,,,,,,,,,60fcd3ee451b8deffca413ee,61036c7484ad83fd30723a61,2021-07-29_22h06.00.299,Simcolourproject_2stim_asymm_v5,2020.2.10,Win32,60,61025ae37ef11b136ea224fe,,,,,,,,,930,27,82,1,0,0,response1disk,,7,9,10,1,0,0,rectangle,9,10,1,0,0,,,,,,,9,10,1,0,0,,0,116,116,13,1,
,,,,,,,,,,,,,FF,,,,,,,,0.9321,,,,,,,,,,,,,,,,,,,,,,60fcd3ee451b8deffca413ee,61036c7484ad83fd30723a61,2021-07-29_22h06.00.299,Simcolourproject_2stim_asymm_v5,2020.2.10,Win32,60,61025ae37ef11b136ea224fe,,,,,,,,,4156,58,40,1,0,0,response1disk,,6,1,-6,1,0,0,rectangle,1,-6,1,0,0,,,,,,,1,-6,1,0,0,,0,117,117,72,1,
,,,,,,,,,,,,,FF,,,,,,,,0.7494,,,,,,,,,,,,,,,,,,,,,,60fcd3ee451b8deffca413ee,61036c7484ad83fd30723a61,2021-07-29_22h06.00.299,Simcolourproject_2stim_asymm_v5,2020.2.10,Win32,60,61025ae37ef11b136ea224fe,,,,,,,,,3336,-55,104,1,0,0,response7disk,,0,-11,4,1,0,0,rectangle,-11,4,1,0,0,,,,,,,-11,4,1,0,0,,0,118,118,130,1,
,,,,,,,,,,,,,FF,,,,,,,,1.1812,,,,,,,,,,,,,,,,,,,,,,60fcd3ee451b8deffca413ee,61036c7484ad83fd30723a61,2021-07-29_22h06.00.299,Simcolourproject_2stim_asymm_v5,2020.2.10,Win32,60,61025ae37ef11b136ea224fe,,,,,,,,,2056,71,28,1,0,0,response1disk,,6,8,9,1,0,0,rectangle,8,9,1,0,0,,,,,,,8,9,1,0,0,,0,119,119,110,1,
,,,,,,,,,,,,,FF,,,,,,,,0.9163,,,,,,,,,,,,,,,,,,,,,,60fcd3ee451b8deffca413ee,61036c7484ad83fd30723a61,2021-07-29_22h06.00.299,Simcolourproject_2stim_asymm_v5,2020.2.10,Win32,60,61025ae37ef11b136ea224fe,,,,,,,,,3135,20,77,1,0,0,response1disk,,7,-11,5,1,0,0,rectangle,-11,5,1,0,0,,,,,,,-11,5,1,0,0,,0,120,120,22,1,
,,,,,,,,,,,,,FF,,,,,,,,1.5483,,,,,,,,,,,,,,,,,,,,,,60fcd3ee451b8deffca413ee,61036c7484ad83fd30723a61,2021-07-29_22h06.00.299,Simcolourproject_2stim_asymm_v5,2020.2.10,Win32,60,61025ae37ef11b136ea224fe,,,,,,,,,2353,44,65,1,0,0,response1disk,,7,2,-3,1,0,0,rectangle,2,-3,1,0,0,,,,,,,2,-3,1,0,0,,0,121,121,55,1,
,,,,,,,,,,,,,FF,,,,,,,,0.6992,,,,,,,,,,,,,,,,,,,,,,60fcd3ee451b8deffca413ee,61036c7484ad83fd30723a61,2021-07-29_22h06.00.299,Simcolourproject_2stim_asymm_v5,2020.2.10,Win32,60,61025ae37ef11b136ea224fe,,,,,,,,,3643,31,56,1,0,0,response1disk,,7,8,-10,1,0,0,rectangle,8,-10,1,0,0,,,,,,,8,-10,1,0,0,,0,122,122,70,1,
,,,,,,,,,,,,,FF,,,,,,,,3.6794,,,,,,,,,,,,,,,,,,,,,,60fcd3ee451b8deffca413ee,61036c7484ad83fd30723a61,2021-07-29_22h06.00.299,Simcolourproject_2stim_asymm_v5,2020.2.10,Win32,60,61025ae37ef11b136ea224fe,,,,,,,,,3806,52,82,1,0,0,response1disk,,7,9,14,1,0,0,rectangle,9,14,1,0,0,,,,,,,9,14,1,0,0,,0,123,123,106,1,
,,,,,,,,,,,,,FF,,,,,,,,0.9165,,,,,,,,,,,,,,,,,,,,,,60fcd3ee451b8deffca413ee,61036c7484ad83fd30723a61,2021-07-29_22h06.00.299,Simcolourproject_2stim_asymm_v5,2020.2.10,Win32,60,61025ae37ef11b136ea224fe,,,,,,,,,1013,41,-76,1,0,0,response3disk,,4,4,-8,1,0,0,rectangle,4,-8,1,0,0,,,,,,,4,-8,1,0,0,,0,124,124,67,1,
,,,,,,,,,,,,,FF,,,,,,,,1.8982,,,,,,,,,,,,,,,,,,,,,,60fcd3ee451b8deffca413ee,61036c7484ad83fd30723a61,2021-07-29_22h06.00.299,Simcolourproject_2stim_asymm_v5,2020.2.10,Win32,60,61025ae37ef11b136ea224fe,,,,,,,,,3673,-44,-51,1,0,0,response5disk,,3,3,-1,1,0,0,rectangle,-40,84,1,0,0,response7disk_3,TRUE,0,0,"[209,102,249,33,95,126,160,176,90,200,203,152,156,171,77,1,84,178,19,138]",60.797,-16,7,1,0,0,rectangle,0,125,125,146,1,
,,,,,,,,,,,,,FF,,,,,,,,1.232,,,,,,,,,,,,,,,,,,,,,,60fcd3ee451b8deffca413ee,61036c7484ad83fd30723a61,2021-07-29_22h06.00.299,Simcolourproject_2stim_asymm_v5,2020.2.10,Win32,60,61025ae37ef11b136ea224fe,,,,,,,,,2909,59,33,1,0,0,response1disk,,6,-8,-4,1,0,0,rectangle,-8,-4,1,0,0,,,,,,,-8,-4,1,0,0,,0,126,126,12,1,
,,,,,,,,,,,,,FF,,,,,,,,0.9015,,,,,,,,,,,,,,,,,,,,,,60fcd3ee451b8deffca413ee,61036c7484ad83fd30723a61,2021-07-29_22h06.00.299,Simcolourproject_2stim_asymm_v5,2020.2.10,Win32,60,61025ae37ef11b136ea224fe,,,,,,,,,2478,23,59,1,0,0,response1disk,,7,9,10,1,0,0,rectangle,9,10,1,0,0,,,,,,,9,10,1,0,0,,0,127,127,121,1,
,,,,,,,,,,,,,FF,,,,,,,,0.75,,,,,,,,,,,,,,,,,,,,,,60fcd3ee451b8deffca413ee,61036c7484ad83fd30723a61,2021-07-29_22h06.00.299,Simcolourproject_2stim_asymm_v5,2020.2.10,Win32,60,61025ae37ef11b136ea224fe,,,,,,,,,30,56,43,1,0,0,response1disk,,6,16,-1,1,0,0,rectangle,16,-1,1,0,0,,,,,,,16,-1,1,0,0,,0,128,128,132,1,
,,,,,,,,,,,,,FF,,,,,,,,1.2516,,,,,,,,,,,,,,,,,,,,,,60fcd3ee451b8deffca413ee,61036c7484ad83fd30723a61,2021-07-29_22h06.00.299,Simcolourproject_2stim_asymm_v5,2020.2.10,Win32,60,61025ae37ef11b136ea224fe,,,,,,,,,4354,-35,-82,1,0,0,response5disk,,3,4,-6,1,0,0,rectangle,4,-6,1,0,0,,,,,,,4,-6,1,0,0,,0,129,129,107,1,
,,,,,,,,,,,,,FF,,,,,,,,1.2663,,,,,,,,,,,,,,,,,,,,,,60fcd3ee451b8deffca413ee,61036c7484ad83fd30723a61,2021-07-29_22h06.00.299,Simcolourproject_2stim_asymm_v5,2020.2.10,Win32,60,61025ae37ef11b136ea224fe,,,,,,,,,2290,65,-48,1,0,0,response3disk,,5,-1,-4,1,0,0,rectangle,-1,-4,1,0,0,,,,,,,-1,-4,1,0,0,,0,130,130,139,1,
,,,,,,,,,,,,,FF,,,,,,,,1.1995,,,,,,,,,,,,,,,,,,,,,,60fcd3ee451b8deffca413ee,61036c7484ad83fd30723a61,2021-07-29_22h06.00.299,Simcolourproject_2stim_asymm_v5,2020.2.10,Win32,60,61025ae37ef11b136ea224fe,,,,,,,,,3559,-52,-68,1,0,0,response5disk,,3,-8,-8,1,0,0,rectangle,-8,-8,1,0,0,,,,,,,-8,-8,1,0,0,,0,131,131,134,1,
,,,,,,,,,,,,,FF,,,,,,,,1.1852,,,,,,,,,,,,,,,,,,,,,,60fcd3ee451b8deffca413ee,61036c7484ad83fd30723a61,2021-07-29_22h06.00.299,Simcolourproject_2stim_asymm_v5,2020.2.10,Win32,60,61025ae37ef11b136ea224fe,,,,,,,,,2165,18,-59,1,0,0,response3disk,,4,3,-13,1,0,0,rectangle,3,-13,1,0,0,,,,,,,3,-13,1,0,0,,0,132,132,96,1,
,,,,,,,,,,,,,FF,,,,,,,,0.852,,,,,,,,,,,,,,,,,,,,,,60fcd3ee451b8deffca413ee,61036c7484ad83fd30723a61,2021-07-29_22h06.00.299,Simcolourproject_2stim_asymm_v5,2020.2.10,Win32,60,61025ae37ef11b136ea224fe,,,,,,,,,52,54,69,1,0,0,response1disk,,7,17,-3,1,0,0,rectangle,17,-3,1,0,0,,,,,,,17,-3,1,0,0,,0,133,133,56,1,
,,,,,,,,,,,,,FF,,,,,,,,0.5994,,,,,,,,,,,,,,,,,,,,,,60fcd3ee451b8deffca413ee,61036c7484ad83fd30723a61,2021-07-29_22h06.00.299,Simcolourproject_2stim_asymm_v5,2020.2.10,Win32,60,61025ae37ef11b136ea224fe,,,,,,,,,1719,28,48,1,0,0,response1disk,,7,14,-3,1,0,0,rectangle,14,-3,1,0,0,,,,,,,14,-3,1,0,0,,0,134,134,18,1,
,,,,,,,,,,,,,FF,,,,,,,,0.7355,,,,,,,,,,,,,,,,,,,,,,60fcd3ee451b8deffca413ee,61036c7484ad83fd30723a61,2021-07-29_22h06.00.299,Simcolourproject_2stim_asymm_v5,2020.2.10,Win32,60,61025ae37ef11b136ea224fe,,,,,,,,,229,73,32,1,0,0,response1disk,,6,10,-14,1,0,0,rectangle,10,-14,1,0,0,,,,,,,10,-14,1,0,0,,0,135,135,32,1,
,,,,,,,,,,,,,FF,,,,,,,,0.9859,,,,,,,,,,,,,,,,,,,,,,60fcd3ee451b8deffca413ee,61036c7484ad83fd30723a61,2021-07-29_22h06.00.299,Simcolourproject_2stim_asymm_v5,2020.2.10,Win32,60,61025ae37ef11b136ea224fe,,,,,,,,,349,-67,-39,1,0,0,response5disk,,2,10,13,1,0,0,rectangle,10,13,1,0,0,,,,,,,10,13,1,0,0,,0,136,136,142,1,
,,,,,,,,,,,,,FF,,,,,,,,0.8532,,,,,,,,,,,,,,,,,,,,,,60fcd3ee451b8deffca413ee,61036c7484ad83fd30723a61,2021-07-29_22h06.00.299,Simcolourproject_2stim_asymm_v5,2020.2.10,Win32,60,61025ae37ef11b136ea224fe,,,,,,,,,782,36,66,1,0,0,response1disk,,7,8,4,1,0,0,rectangle,87,49,1,0,0,response1disk_3,TRUE,6,6,"[209,102,249,33,95,126,160,176,90,200,203,152,156,171,77,1,84,178,19,138]",1.9656,14,12,1,0,0,rectangle,0,137,137,53,1,
,,,,,,,,,,,,,FF,,,,,,,,2.2977,,,,,,,,,,,,,,,,,,,,,,60fcd3ee451b8deffca413ee,61036c7484ad83fd30723a61,2021-07-29_22h06.00.299,Simcolourproject_2stim_asymm_v5,2020.2.10,Win32,60,61025ae37ef11b136ea224fe,,,,,,,,,3604,63,50,1,0,0,response1disk,,6,-13,7,1,0,0,rectangle,-13,7,1,0,0,,,,,,,-13,7,1,0,0,,0,138,138,38,1,
,,,,,,,,,,,,,FF,,,,,,,,0.7024,,,,,,,,,,,,,,,,,,,,,,60fcd3ee451b8deffca413ee,61036c7484ad83fd30723a61,2021-07-29_22h06.00.299,Simcolourproject_2stim_asymm_v5,2020.2.10,Win32,60,61025ae37ef11b136ea224fe,,,,,,,,,466,35,72,1,0,0,response1disk,,7,9,-1,1,0,0,rectangle,9,-1,1,0,0,,,,,,,9,-1,1,0,0,,0,139,139,108,1,
,,,,,,,,,,,,,FF,,,,,,,,0.8835,,,,,,,,,,,,,,,,,,,,,,60fcd3ee451b8deffca413ee,61036c7484ad83fd30723a61,2021-07-29_22h06.00.299,Simcolourproject_2stim_asymm_v5,2020.2.10,Win32,60,61025ae37ef11b136ea224fe,,,,,,,,,1382,-68,-42,1,0,0,response5disk,,2,17,-4,1,0,0,rectangle,17,-4,1,0,0,,,,,,,17,-4,1,0,0,,0,140,140,36,1,
,,,,,,,,,,,,,FF,,,,,,,,6.0766,,,,,,,,,,,,,,,,,,,,,,60fcd3ee451b8deffca413ee,61036c7484ad83fd30723a61,2021-07-29_22h06.00.299,Simcolourproject_2stim_asymm_v5,2020.2.10,Win32,60,61025ae37ef11b136ea224fe,,,,,,,,,3983,69,-37,1,0,0,response3disk,,5,15,-1,1,0,0,rectangle,15,-1,1,0,0,,,,,,,15,-1,1,0,0,,0,141,141,51,1,
,,,,,,,,,,,,,FF,,,,,,,,3.9321,,,,,,,,,,,,,,,,,,,,,,60fcd3ee451b8deffca413ee,61036c7484ad83fd30723a61,2021-07-29_22h06.00.299,Simcolourproject_2stim_asymm_v5,2020.2.10,Win32,60,61025ae37ef11b136ea224fe,,,,,,,,,1289,83,-31,1,0,0,response3disk,,5,-10,5,1,0,0,rectangle,-10,5,1,0,0,,,,,,,-10,5,1,0,0,,0,142,142,15,1,
,,,,,,,,,,,,,FF,,,,,,,,0.5989,,,,,,,,,,,,,,,,,,,,,,60fcd3ee451b8deffca413ee,61036c7484ad83fd30723a61,2021-07-29_22h06.00.299,Simcolourproject_2stim_asymm_v5,2020.2.10,Win32,60,61025ae37ef11b136ea224fe,,,,,,,,,596,38,85,1,0,0,response1disk,,7,7,-7,1,0,0,rectangle,7,-7,1,0,0,,,,,,,7,-7,1,0,0,,0,143,143,30,1,
,,,,,,,,,,,,,FF,,,,,,,,0.8529,,,,,,,,,,,,,,,,,,,,,,60fcd3ee451b8deffca413ee,61036c7484ad83fd30723a61,2021-07-29_22h06.00.299,Simcolourproject_2stim_asymm_v5,2020.2.10,Win32,60,61025ae37ef11b136ea224fe,,,,,,,,,4280,-49,75,1,0,0,response7disk,,0,-12,7,1,0,0,rectangle,-12,7,1,0,0,,,,,,,-12,7,1,0,0,,0,144,144,58,1,
,,,,,,,,,,,,,FF,,,,,,,,0.7858,,,,,,,,,,,,,,,,,,,,,,60fcd3ee451b8deffca413ee,61036c7484ad83fd30723a61,2021-07-29_22h06.00.299,Simcolourproject_2stim_asymm_v5,2020.2.10,Win32,60,61025ae37ef11b136ea224fe,,,,,,,,,810,-56,31,1,0,0,response7disk,,1,5,9,1,0,0,rectangle,5,9,1,0,0,,,,,,,5,9,1,0,0,,0,145,145,5,1,
,,,,,,,,,,,,,FF,,,,,,,,0.6806,,,,,,,,,,,,,,,,,,,,,,60fcd3ee451b8deffca413ee,61036c7484ad83fd30723a61,2021-07-29_22h06.00.299,Simcolourproject_2stim_asymm_v5,2020.2.10,Win32,60,61025ae37ef11b136ea224fe,,,,,,,,,2418,-33,94,1,0,0,response7disk,,0,-8,11,1,0,0,rectangle,-8,11,1,0,0,,,,,,,-8,11,1,0,0,,0,146,146,62,1,
,,,,,,,,,,,,,FF,,,,,,,,1.1979,,,,,,,,,,,,,,,,,,,,,,60fcd3ee451b8deffca413ee,61036c7484ad83fd30723a61,2021-07-29_22h06.00.299,Simcolourproject_2stim_asymm_v5,2020.2.10,Win32,60,61025ae37ef11b136ea224fe,,,,,,,,,1200,54,-29,1,0,0,response3disk,,5,18,3,1,0,0,rectangle,18,3,1,0,0,,,,,,,18,3,1,0,0,,0,147,147,29,1,
,,,,,,,,,,,,,FF,,,,,,,,0.6339,,,,,,,,,,,,,,,,,,,,,,60fcd3ee451b8deffca413ee,61036c7484ad83fd30723a61,2021-07-29_22h06.00.299,Simcolourproject_2stim_asymm_v5,2020.2.10,Win32,60,61025ae37ef11b136ea224fe,,,,,,,,,962,23,77,1,0,0,response1disk,,7,1,13,1,0,0,rectangle,1,13,1,0,0,,,,,,,1,13,1,0,0,,0,148,148,133,1,
,,,,,,,,,,,,,FF,,,,,,,,2.1985,,,,,,,,,,,,,,,,,,,,,,60fcd3ee451b8deffca413ee,61036c7484ad83fd30723a61,2021-07-29_22h06.00.299,Simcolourproject_2stim_asymm_v5,2020.2.10,Win32,60,61025ae37ef11b136ea224fe,,,,,,,,,2926,57,46,1,0,0,response1disk,,6,8,10,1,0,0,rectangle,8,10,1,0,0,,,,,,,8,10,1,0,0,,0,149,149,104,1,
,,,,,,,,,,,,,FF,,,,,,,,1.5659,,,,,,,,,,,,,,,,,,,,,,60fcd3ee451b8deffca413ee,61036c7484ad83fd30723a61,2021-07-29_22h06.00.299,Simcolourproject_2stim_asymm_v5,2020.2.10,Win32,60,61025ae37ef11b136ea224fe,,,,,,,,,1652,43,93,1,0,0,response1disk,,7,9,10,1,0,0,rectangle,9,10,1,0,0,,,,,,,9,10,1,0,0,,0,150,150,113,1,
,,,,,,,,,,,,,FF,,,,,,,,0.5697,,,,,,,,,,,,,,,,,,,,,,60fcd3ee451b8deffca413ee,61036c7484ad83fd30723a61,2021-07-29_22h06.00.299,Simcolourproject_2stim_asymm_v5,2020.2.10,Win32,60,61025ae37ef11b136ea224fe,,,,,,,,,1120,29,88,1,0,0,response1disk,,7,-5,-7,1,0,0,rectangle,-37,79,1,0,0,response7disk_3,TRUE,0,0,"[209,102,249,33,95,126,160,176,90,200,203,152,156,171,77,1,84,178,19,138]",24.5387,4,-2,1,0,0,rectangle,0,151,151,24,1,
,,,,,,,,,,,,,FF,,,,,,,,1.5159,,,,,,,,,,,,,,,,,,,,,,60fcd3ee451b8deffca413ee,61036c7484ad83fd30723a61,2021-07-29_22h06.00.299,Simcolourproject_2stim_asymm_v5,2020.2.10,Win32,60,61025ae37ef11b136ea224fe,,,,,,,,,97,-69,-41,1,0,0,response5disk,,2,4,-1,1,0,0,rectangle,4,-1,1,0,0,,,,,,,4,-1,1,0,0,,0,152,152,84,1,
,,,,,,,,,,,,,FF,,,,,,,,1.3159,,,,,,,,,,,,,,,,,,,,,,60fcd3ee451b8deffca413ee,61036c7484ad83fd30723a61,2021-07-29_22h06.00.299,Simcolourproject_2stim_asymm_v5,2020.2.10,Win32,60,61025ae37ef11b136ea224fe,,,,,,,,,3163,73,25,1,0,0,response1disk,,6,-6,1,1,0,0,rectangle,-6,1,1,0,0,,,,,,,-6,1,1,0,0,,0,153,153,124,1,
,,,,,,,,,,,,,FF,,,,,,,,1.0368,,,,,,,,,,,,,,,,,,,,,,60fcd3ee451b8deffca413ee,61036c7484ad83fd30723a61,2021-07-29_22h06.00.299,Simcolourproject_2stim_asymm_v5,2020.2.10,Win32,60,61025ae37ef11b136ea224fe,,,,,,,,,372,30,71,1,0,0,response1disk,,7,10,2,1,0,0,rectangle,10,2,1,0,0,,,,,,,10,2,1,0,0,,0,154,154,1,1,
,,,,,,,,,,,,,FF,,,,,,,,0.753,,,,,,,,,,,,,,,,,,,,,,60fcd3ee451b8deffca413ee,61036c7484ad83fd30723a61,2021-07-29_22h06.00.299,Simcolourproject_2stim_asymm_v5,2020.2.10,Win32,60,61025ae37ef11b136ea224fe,,,,,,,,,4335,-35,87,1,0,0,response7disk,,0,5,-13,1,0,0,rectangle,-38,-77,1,0,0,response5disk_3,TRUE,3,3,"[209,102,249,33,95,126,160,176,90,200,203,152,156,171,77,1,84,178,19,138]",1.6145,0,5,1,0,0,rectangle,0,155,155,11,1,
,,,,,,,,,,,,,FF,,,,,,,,1.149,,,,,,,,,,,,,,,,,,,,,,60fcd3ee451b8deffca413ee,61036c7484ad83fd30723a61,2021-07-29_22h06.00.299,Simcolourproject_2stim_asymm_v5,2020.2.10,Win32,60,61025ae37ef11b136ea224fe,,,,,,,,,1379,55,25,1,0,0,response1disk,,6,5,-13,1,0,0,rectangle,5,-13,1,0,0,,,,,,,5,-13,1,0,0,,0,156,156,16,1,
,,,,,,,,,,,,,FF,,,,,,,,0.9818,,,,,,,,,,,,,,,,,,,,,,60fcd3ee451b8deffca413ee,61036c7484ad83fd30723a61,2021-07-29_22h06.00.299,Simcolourproject_2stim_asymm_v5,2020.2.10,Win32,60,61025ae37ef11b136ea224fe,,,,,,,,,3489,40,70,1,0,0,response1disk,,7,17,8,1,0,0,rectangle,17,8,1,0,0,,,,,,,17,8,1,0,0,,0,157,157,71,1,
,,,,,,,,,,,,,FF,,,,,,,,0.786,,,,,,,,,,,,,,,,,,,,,,60fcd3ee451b8deffca413ee,61036c7484ad83fd30723a61,2021-07-29_22h06.00.299,Simcolourproject_2stim_asymm_v5,2020.2.10,Win32,60,61025ae37ef11b136ea224fe,,,,,,,,,2712,26,-61,1,0,0,response3disk,,4,-11,-3,1,0,0,rectangle,-11,-3,1,0,0,,,,,,,-11,-3,1,0,0,,0,158,158,35,1,
,,,,,,,,,,,,,FF,,,,,,,,0.8299,,,,,,,,,,,,,,,,,,,,,,60fcd3ee451b8deffca413ee,61036c7484ad83fd30723a61,2021-07-29_22h06.00.299,Simcolourproject_2stim_asymm_v5,2020.2.10,Win32,60,61025ae37ef11b136ea224fe,,,,,,,,,3476,-38,-52,1,0,0,response5disk,,3,-10,-3,1,0,0,rectangle,32,72,1,0,0,response1disk_3,TRUE,7,7,"[209,102,249,33,95,126,160,176,90,200,203,152,156,171,77,1,84,178,19,138]",37.3072,13,3,1,0,0,rectangle,0,159,159,151,1,
,,,,,,,,,,,,,FF,,,,,,,,2.1478,,,,,,,,,,,,,,,,,,,,,,60fcd3ee451b8deffca413ee,61036c7484ad83fd30723a61,2021-07-29_22h06.00.299,Simcolourproject_2stim_asymm_v5,2020.2.10,Win32,60,61025ae37ef11b136ea224fe,,,,,,,,,1767,54,-30,1,0,0,response3disk,,5,19,-1,1,0,0,rectangle,19,-1,1,0,0,,,,,,,19,-1,1,0,0,,1,0,160,64,1,
,,,,,,,,,,,,,FF,,,,,,,,0.6835,,,,,,,,,,,,,,,,,,,,,,60fcd3ee451b8deffca413ee,61036c7484ad83fd30723a61,2021-07-29_22h06.00.299,Simcolourproject_2stim_asymm_v5,2020.2.10,Win32,60,61025ae37ef11b136ea224fe,,,,,,,,,4011,44,72,1,0,0,response1disk,,7,-7,-13,1,0,0,rectangle,-7,-13,1,0,0,,,,,,,-7,-13,1,0,0,,1,1,161,24,1,
,,,,,,,,,,,,,FF,,,,,,,,2.567,,,,,,,,,,,,,,,,,,,,,,60fcd3ee451b8deffca413ee,61036c7484ad83fd30723a61,2021-07-29_22h06.00.299,Simcolourproject_2stim_asymm_v5,2020.2.10,Win32,60,61025ae37ef11b136ea224fe,,,,,,,,,4175,56,77,1,0,0,response1disk,,7,23,5,1,0,0,rectangle,23,5,1,0,0,,,,,,,23,5,1,0,0,,1,2,162,137,1,
,,,,,,,,,,,,,FF,,,,,,,,1.1983,,,,,,,,,,,,,,,,,,,,,,60fcd3ee451b8deffca413ee,61036c7484ad83fd30723a61,2021-07-29_22h06.00.299,Simcolourproject_2stim_asymm_v5,2020.2.10,Win32,60,61025ae37ef11b136ea224fe,,,,,,,,,2953,66,-34,1,0,0,response3disk,,5,0,12,1,0,0,rectangle,0,12,1,0,0,,,,,,,0,12,1,0,0,,1,3,163,95,1,
,,,,,,,,,,,,,FF,,,,,,,,0.6033,,,,,,,,,,,,,,,,,,,,,,60fcd3ee451b8deffca413ee,61036c7484ad83fd30723a61,2021-07-29_22h06.00.299,Simcolourproject_2stim_asymm_v5,2020.2.10,Win32,60,61025ae37ef11b136ea224fe,,,,,,,,,514,38,92,1,0,0,response1disk,,7,-1,14,1,0,0,rectangle,-1,14,1,0,0,,,,,,,-1,14,1,0,0,,1,4,164,91,1,
,,,,,,,,,,,,,FF,,,,,,,,1.216,,,,,,,,,,,,,,,,,,,,,,60fcd3ee451b8deffca413ee,61036c7484ad83fd30723a61,2021-07-29_22h06.00.299,Simcolourproject_2stim_asymm_v5,2020.2.10,Win32,60,61025ae37ef11b136ea224fe,,,,,,,,,591,38,88,1,0,0,response1disk,,7,8,11,1,0,0,rectangle,8,11,1,0,0,,,,,,,8,11,1,0,0,,1,5,165,130,1,
,,,,,,,,,,,,,FF,,,,,,,,0.9516,,,,,,,,,,,,,,,,,,,,,,60fcd3ee451b8deffca413ee,61036c7484ad83fd30723a61,2021-07-29_22h06.00.299,Simcolourproject_2stim_asymm_v5,2020.2.10,Win32,60,61025ae37ef11b136ea224fe,,,,,,,,,3190,20,-85,1,0,0,response3disk,,4,-7,12,1,0,0,rectangle,-7,12,1,0,0,,,,,,,-7,12,1,0,0,,1,6,166,141,1,
,,,,,,,,,,,,,FF,,,,,,,,0.9498,,,,,,,,,,,,,,,,,,,,,,60fcd3ee451b8deffca413ee,61036c7484ad83fd30723a61,2021-07-29_22h06.00.299,Simcolourproject_2stim_asymm_v5,2020.2.10,Win32,60,61025ae37ef11b136ea224fe,,,,,,,,,347,-35,-73,1,0,0,response5disk,,3,-19,-3,1,0,0,rectangle,-19,-3,1,0,0,,,,,,,-19,-3,1,0,0,,1,7,167,153,1,
,,,,,,,,,,,,,FF,,,,,,,,1.8784,,,,,,,,,,,,,,,,,,,,,,60fcd3ee451b8deffca413ee,61036c7484ad83fd30723a61,2021-07-29_22h06.00.299,Simcolourproject_2stim_asymm_v5,2020.2.10,Win32,60,61025ae37ef11b136ea224fe,,,,,,,,,711,-26,-81,1,0,0,response5disk,,3,-11,-4,1,0,0,rectangle,-11,-4,1,0,0,,,,,,,-11,-4,1,0,0,,1,8,168,44,1,
,,,,,,,,,,,,,FF,,,,,,,,1.333,,,,,,,,,,,,,,,,,,,,,,60fcd3ee451b8deffca413ee,61036c7484ad83fd30723a61,2021-07-29_22h06.00.299,Simcolourproject_2stim_asymm_v5,2020.2.10,Win32,60,61025ae37ef11b136ea224fe,,,,,,,,,3849,25,-62,1,0,0,response3disk,,4,3,-2,1,0,0,rectangle,3,-2,1,0,0,,,,,,,3,-2,1,0,0,,1,9,169,61,1,
,,,,,,,,,,,,,FF,,,,,,,,1.0991,,,,,,,,,,,,,,,,,,,,,,60fcd3ee451b8deffca413ee,61036c7484ad83fd30723a61,2021-07-29_22h06.00.299,Simcolourproject_2stim_asymm_v5,2020.2.10,Win32,60,61025ae37ef11b136ea224fe,,,,,,,,,2303,70,26,1,0,0,response1disk,,6,7,9,1,0,0,rectangle,82,-45,1,0,0,response3disk_3,TRUE,5,5,"[209,102,249,33,95,126,160,176,90,200,203,152,156,171,77,1,84,178,19,138]",1.8817,-4,4,1,0,0,rectangle,1,10,170,112,1,
,,,,,,,,,,,,,FF,,,,,,,,0.733,,,,,,,,,,,,,,,,,,,,,,60fcd3ee451b8deffca413ee,61036c7484ad83fd30723a61,2021-07-29_22h06.00.299,Simcolourproject_2stim_asymm_v5,2020.2.10,Win32,60,61025ae37ef11b136ea224fe,,,,,,,,,3355,18,57,1,0,0,response1disk,,7,-3,3,1,0,0,rectangle,-3,3,1,0,0,,,,,,,-3,3,1,0,0,,1,11,171,85,1,
,,,,,,,,,,,,,FF,,,,,,,,0.6858,,,,,,,,,,,,,,,,,,,,,,60fcd3ee451b8deffca413ee,61036c7484ad83fd30723a61,2021-07-29_22h06.00.299,Simcolourproject_2stim_asymm_v5,2020.2.10,Win32,60,61025ae37ef11b136ea224fe,,,,,,,,,3697,26,68,1,0,0,response1disk,,7,7,13,1,0,0,rectangle,7,13,1,0,0,,,,,,,7,13,1,0,0,,1,12,172,98,1,
,,,,,,,,,,,,,FF,,,,,,,,1.1351,,,,,,,,,,,,,,,,,,,,,,60fcd3ee451b8deffca413ee,61036c7484ad83fd30723a61,2021-07-29_22h06.00.299,Simcolourproject_2stim_asymm_v5,2020.2.10,Win32,60,61025ae37ef11b136ea224fe,,,,,,,,,2603,76,-26,1,0,0,response3disk,,5,5,8,1,0,0,rectangle,5,8,1,0,0,,,,,,,5,8,1,0,0,,1,13,173,25,1,
,,,,,,,,,,,,,FF,,,,,,,,1.066,,,,,,,,,,,,,,,,,,,,,,60fcd3ee451b8deffca413ee,61036c7484ad83fd30723a61,2021-07-29_22h06.00.299,Simcolourproject_2stim_asymm_v5,2020.2.10,Win32,60,61025ae37ef11b136ea224fe,,,,,,,,,1528,-87,20,1,0,0,response7disk,,1,-16,5,1,0,0,rectangle,-16,5,1,0,0,,,,,,,-16,5,1,0,0,,1,14,174,5,1,
,,,,,,,,,,,,,FF,,,,,,,,1.6347,,,,,,,,,,,,,,,,,,,,,,60fcd3ee451b8deffca413ee,61036c7484ad83fd30723a61,2021-07-29_22h06.00.299,Simcolourproject_2stim_asymm_v5,2020.2.10,Win32,60,61025ae37ef11b136ea224fe,,,,,,,,,546,38,-50,1,0,0,response3disk,,4,-16,8,1,0,0,rectangle,-42,-76,1,0,0,response5disk_3,TRUE,3,3,"[209,102,249,33,95,126,160,176,90,200,203,152,156,171,77,1,84,178,19,138]",2.1638,-9,-7,1,0,0,rectangle,1,15,175,143,1,
,,,,,,,,,,,,,FF,,,,,,,,0.9519,,,,,,,,,,,,,,,,,,,,,,60fcd3ee451b8deffca413ee,61036c7484ad83fd30723a61,2021-07-29_22h06.00.299,Simcolourproject_2stim_asymm_v5,2020.2.10,Win32,60,61025ae37ef11b136ea224fe,,,,,,,,,2653,44,46,1,0,0,response1disk,,7,7,-2,1,0,0,rectangle,7,-2,1,0,0,,,,,,,7,-2,1,0,0,,1,16,176,51,1,
,,,,,,,,,,,,,FF,,,,,,,,1.9982,,,,,,,,,,,,,,,,,,,,,,60fcd3ee451b8deffca413ee,61036c7484ad83fd30723a61,2021-07-29_22h06.00.299,Simcolourproject_2stim_asymm_v5,2020.2.10,Win32,60,61025ae37ef11b136ea224fe,,,,,,,,,4222,-40,-88,1,0,0,response5disk,,3,-8,1,1,0,0,rectangle,33,102,1,0,0,response1disk_3,TRUE,7,7,"[209,102,249,33,95,126,160,176,90,200,203,152,156,171,77,1,84,178,19,138]",3.5955,3,7,1,0,0,rectangle,1,17,177,149,1,
,,,,,,,,,,,,,FF,,,,,,,,3.3798,,,,,,,,,,,,,,,,,,,,,,60fcd3ee451b8deffca413ee,61036c7484ad83fd30723a61,2021-07-29_22h06.00.299,Simcolourproject_2stim_asymm_v5,2020.2.10,Win32,60,61025ae37ef11b136ea224fe,,,,,,,,,2991,65,30,0,0,1,response1disk,,6,3,4,1,0,0,rectangle,3,4,1,0,0,,,,,,,3,4,1,0,0,,1,18,178,59,1,
,,,,,,,,,,,,,FF,,,,,,,,1.5985,,,,,,,,,,,,,,,,,,,,,,60fcd3ee451b8deffca413ee,61036c7484ad83fd30723a61,2021-07-29_22h06.00.299,Simcolourproject_2stim_asymm_v5,2020.2.10,Win32,60,61025ae37ef11b136ea224fe,,,,,,,,,340,67,-33,1,0,0,response3disk,,5,-2,3,1,0,0,rectangle,-2,3,1,0,0,,,,,,,-2,3,1,0,0,,1,19,179,140,1,
,,,,,,,,,,,,,FF,,,,,,,,1.2325,,,,,,,,,,,,,,,,,,,,,,60fcd3ee451b8deffca413ee,61036c7484ad83fd30723a61,2021-07-29_22h06.00.299,Simcolourproject_2stim_asymm_v5,2020.2.10,Win32,60,61025ae37ef11b136ea224fe,,,,,,,,,3056,-41,-72,1,0,0,response5disk,,3,-8,-9,1,0,0,rectangle,-8,-9,1,0,0,,,,,,,-8,-9,1,0,0,,1,20,180,66,1,
,,,,,,,,,,,,,FF,,,,,,,,0.82,,,,,,,,,,,,,,,,,,,,,,60fcd3ee451b8deffca413ee,61036c7484ad83fd30723a61,2021-07-29_22h06.00.299,Simcolourproject_2stim_asymm_v5,2020.2.10,Win32,60,61025ae37ef11b136ea224fe,,,,,,,,,3125,15,53,1,0,0,response1disk,,7,-1,11,1,0,0,rectangle,-1,11,1,0,0,,,,,,,-1,11,1,0,0,,1,21,181,100,1,
,,,,,,,,,,,,,FF,,,,,,,,0.516,,,,,,,,,,,,,,,,,,,,,,60fcd3ee451b8deffca413ee,61036c7484ad83fd30723a61,2021-07-29_22h06.00.299,Simcolourproject_2stim_asymm_v5,2020.2.10,Win32,60,61025ae37ef11b136ea224fe,,,,,,,,,2873,39,65,1,0,0,response1disk,,7,14,9,1,0,0,rectangle,14,9,1,0,0,,,,,,,14,9,1,0,0,,1,22,182,113,1,
,,,,,,,,,,,,,FF,,,,,,,,0.8498,,,,,,,,,,,,,,,,,,,,,,60fcd3ee451b8deffca413ee,61036c7484ad83fd30723a61,2021-07-29_22h06.00.299,Simcolourproject_2stim_asymm_v5,2020.2.10,Win32,60,61025ae37ef11b136ea224fe,,,,,,,,,531,-61,63,1,0,0,response7disk,,0,-17,1,1,0,0,rectangle,-17,1,1,0,0,,,,,,,-17,1,1,0,0,,1,23,183,121,1,
,,,,,,,,,,,,,FF,,,,,,,,1.2978,,,,,,,,,,,,,,,,,,,,,,60fcd3ee451b8deffca413ee,61036c7484ad83fd30723a61,2021-07-29_22h06.00.299,Simcolourproject_2stim_asymm_v5,2020.2.10,Win32,60,61025ae37ef11b136ea224fe,,,,,,,,,3911,-76,36,1,0,0,response7disk,,1,-7,11,1,0,0,rectangle,-7,11,1,0,0,,,,,,,-7,11,1,0,0,,1,24,184,19,1,
,,,,,,,,,,,,,FF,,,,,,,,1.2991,,,,,,,,,,,,,,,,,,,,,,60fcd3ee451b8deffca413ee,61036c7484ad83fd30723a61,2021-07-29_22h06.00.299,Simcolourproject_2stim_asymm_v5,2020.2.10,Win32,60,61025ae37ef11b136ea224fe,,,,,,,,,1919,83,31,1,0,0,response1disk,,6,-23,-3,1,0,0,rectangle,-23,-3,1,0,0,,,,,,,-23,-3,1,0,0,,1,25,185,127,1,
,,,,,,,,,,,,,FF,,,,,,,,0.7832,,,,,,,,,,,,,,,,,,,,,,60fcd3ee451b8deffca413ee,61036c7484ad83fd30723a61,2021-07-29_22h06.00.299,Simcolourproject_2stim_asymm_v5,2020.2.10,Win32,60,61025ae37ef11b136ea224fe,,,,,,,,,2138,37,98,1,0,0,response1disk,,7,1,-1,1,0,0,rectangle,1,-1,1,0,0,,,,,,,1,-1,1,0,0,,1,26,186,142,1,
,,,,,,,,,,,,,FF,,,,,,,,0.7195,,,,,,,,,,,,,,,,,,,,,,60fcd3ee451b8deffca413ee,61036c7484ad83fd30723a61,2021-07-29_22h06.00.299,Simcolourproject_2stim_asymm_v5,2020.2.10,Win32,60,61025ae37ef11b136ea224fe,,,,,,,,,1659,27,85,1,0,0,response1disk,,7,11,7,1,0,0,rectangle,11,7,1,0,0,,,,,,,11,7,1,0,0,,1,27,187,103,1,
,,,,,,,,,,,,,FF,,,,,,,,2.2654,,,,,,,,,,,,,,,,,,,,,,60fcd3ee451b8deffca413ee,61036c7484ad83fd30723a61,2021-07-29_22h06.00.299,Simcolourproject_2stim_asymm_v5,2020.2.10,Win32,60,61025ae37ef11b136ea224fe,,,,,,,,,3737,43,103,1,0,0,response1disk,,7,3,-10,1,0,0,rectangle,3,-10,1,0,0,,,,,,,3,-10,1,0,0,,1,28,188,29,1,
,,,,,,,,,,,,,FF,,,,,,,,0.65,,,,,,,,,,,,,,,,,,,,,,60fcd3ee451b8deffca413ee,61036c7484ad83fd30723a61,2021-07-29_22h06.00.299,Simcolourproject_2stim_asymm_v5,2020.2.10,Win32,60,61025ae37ef11b136ea224fe,,,,,,,,,2555,33,85,1,0,0,response1disk,,7,3,0,1,0,0,rectangle,3,0,1,0,0,,,,,,,3,0,1,0,0,,1,29,189,52,1,
,,,,,,,,,,,,,FF,,,,,,,,1.1018,,,,,,,,,,,,,,,,,,,,,,60fcd3ee451b8deffca413ee,61036c7484ad83fd30723a61,2021-07-29_22h06.00.299,Simcolourproject_2stim_asymm_v5,2020.2.10,Win32,60,61025ae37ef11b136ea224fe,,,,,,,,,2605,-29,-50,1,0,0,response5disk,,3,-9,1,1,0,0,rectangle,-9,1,1,0,0,,,,,,,-9,1,1,0,0,,1,30,190,35,1,
,,,,,,,,,,,,,FF,,,,,,,,0.9678,,,,,,,,,,,,,,,,,,,,,,60fcd3ee451b8deffca413ee,61036c7484ad83fd30723a61,2021-07-29_22h06.00.299,Simcolourproject_2stim_asymm_v5,2020.2.10,Win32,60,61025ae37ef11b136ea224fe,,,,,,,,,3557,45,-67,1,0,0,response3disk,,4,7,-10,1,0,0,rectangle,7,-10,1,0,0,,,,,,,7,-10,1,0,0,,1,31,191,123,1,
,,,,,,,,,,,,,FF,,,,,,,,0.983,,,,,,,,,,,,,,,,,,,,,,60fcd3ee451b8deffca413ee,61036c7484ad83fd30723a61,2021-07-29_22h06.00.299,Simcolourproject_2stim_asymm_v5,2020.2.10,Win32,60,61025ae37ef11b136ea224fe,,,,,,,,,3773,66,33,1,0,0,response1disk,,6,28,14,1,0,0,rectangle,28,14,1,0,0,,,,,,,28,14,1,0,0,,1,32,192,47,1,
,,,,,,,,,,,,,FF,,,,,,,,0.6326,,,,,,,,,,,,,,,,,,,,,,60fcd3ee451b8deffca413ee,61036c7484ad83fd30723a61,2021-07-29_22h06.00.299,Simcolourproject_2stim_asymm_v5,2020.2.10,Win32,60,61025ae37ef11b136ea224fe,,,,,,,,,2250,53,73,1,0,0,response1disk,,7,14,9,1,0,0,rectangle,14,9,1,0,0,,,,,,,14,9,1,0,0,,1,33,193,76,1,
,,,,,,,,,,,,,FF,,,,,,,,0.8827,,,,,,,,,,,,,,,,,,,,,,60fcd3ee451b8deffca413ee,61036c7484ad83fd30723a61,2021-07-29_22h06.00.299,Simcolourproject_2stim_asymm_v5,2020.2.10,Win32,60,61025ae37ef11b136ea224fe,,,,,,,,,1248,39,22,1,0,0,response1disk,,6,9,2,1,0,0,rectangle,9,2,1,0,0,,,,,,,9,2,1,0,0,,1,34,194,117,1,
,,,,,,,,,,,,,FF,,,,,,,,0.8165,,,,,,,,,,,,,,,,,,,,,,60fcd3ee451b8deffca413ee,61036c7484ad83fd30723a61,2021-07-29_22h06.00.299,Simcolourproject_2stim_asymm_v5,2020.2.10,Win32,60,61025ae37ef11b136ea224fe,,,,,,,,,1054,-46,-108,1,0,0,response5disk,,3,-2,-6,1,0,0,rectangle,-2,-6,1,0,0,,,,,,,-2,-6,1,0,0,,1,35,195,14,1,
,,,,,,,,,,,,,FF,,,,,,,,1.0163,,,,,,,,,,,,,,,,,,,,,,60fcd3ee451b8deffca413ee,61036c7484ad83fd30723a61,2021-07-29_22h06.00.299,Simcolourproject_2stim_asymm_v5,2020.2.10,Win32,60,61025ae37ef11b136ea224fe,,,,,,,,,196,25,68,1,0,0,response1disk,,7,9,7,1,0,0,rectangle,9,7,1,0,0,,,,,,,9,7,1,0,0,,1,36,196,148,1,
,,,,,,,,,,,,,FF,,,,,,,,0.7527,,,,,,,,,,,,,,,,,,,,,,60fcd3ee451b8deffca413ee,61036c7484ad83fd30723a61,2021-07-29_22h06.00.299,Simcolourproject_2stim_asymm_v5,2020.2.10,Win32,60,61025ae37ef11b136ea224fe,,,,,,,,,4178,43,67,1,0,0,response1disk,,7,15,3,1,0,0,rectangle,15,3,1,0,0,,,,,,,15,3,1,0,0,,1,37,197,131,1,
,,,,,,,,,,,,,FF,,,,,,,,1.1108,,,,,,,,,,,,,,,,,,,,,,60fcd3ee451b8deffca413ee,61036c7484ad83fd30723a61,2021-07-29_22h06.00.299,Simcolourproject_2stim_asymm_v5,2020.2.10,Win32,60,61025ae37ef11b136ea224fe,,,,,,,,,3582,35,55,1,0,0,response1disk,,7,22,-6,1,0,0,rectangle,22,-6,1,0,0,,,,,,,22,-6,1,0,0,,1,38,198,49,1,
,,,,,,,,,,,,,FF,,,,,,,,0.8488,,,,,,,,,,,,,,,,,,,,,,60fcd3ee451b8deffca413ee,61036c7484ad83fd30723a61,2021-07-29_22h06.00.299,Simcolourproject_2stim_asymm_v5,2020.2.10,Win32,60,61025ae37ef11b136ea224fe,,,,,,,,,3596,49,-29,1,0,0,response3disk,,5,-7,-3,1,0,0,rectangle,-61,-26,1,0,0,response5disk_3,TRUE,2,2,"[209,102,249,33,95,126,160,176,90,200,203,152,156,171,77,1,84,178,19,138]",2.4643,-6,5,1,0,0,rectangle,1,39,199,18,1,
,,,,,,,,,,,,,FF,,,,,,,,1.0824,,,,,,,,,,,,,,,,,,,,,,60fcd3ee451b8deffca413ee,61036c7484ad83fd30723a61,2021-07-29_22h06.00.299,Simcolourproject_2stim_asymm_v5,2020.2.10,Win32,60,61025ae37ef11b136ea224fe,,,,,,,,,2339,59,-31,1,0,0,response3disk,,5,1,2,1,0,0,rectangle,1,2,1,0,0,,,,,,,1,2,1,0,0,,1,40,200,40,1,
,,,,,,,,,,,,,FF,,,,,,,,1.0494,,,,,,,,,,,,,,,,,,,,,,60fcd3ee451b8deffca413ee,61036c7484ad83fd30723a61,2021-07-29_22h06.00.299,Simcolourproject_2stim_asymm_v5,2020.2.10,Win32,60,61025ae37ef11b136ea224fe,,,,,,,,,3560,31,-59,1,0,0,response3disk,,4,-13,0,1,0,0,rectangle,-13,0,1,0,0,,,,,,,-13,0,1,0,0,,1,41,201,58,1,
,,,,,,,,,,,,,FF,,,,,,,,1.2152,,,,,,,,,,,,,,,,,,,,,,60fcd3ee451b8deffca413ee,61036c7484ad83fd30723a61,2021-07-29_22h06.00.299,Simcolourproject_2stim_asymm_v5,2020.2.10,Win32,60,61025ae37ef11b136ea224fe,,,,,,,,,4360,-36,-77,1,0,0,response5disk,,3,-3,-1,1,0,0,rectangle,100,-46,1,0,0,response3disk_3,TRUE,5,5,"[209,102,249,33,95,126,160,176,90,200,203,152,156,171,77,1,84,178,19,138]",33.1121,-4,-7,1,0,0,rectangle,1,42,202,108,1,
,,,,,,,,,,,,,FF,,,,,,,,0.866,,,,,,,,,,,,,,,,,,,,,,60fcd3ee451b8deffca413ee,61036c7484ad83fd30723a61,2021-07-29_22h06.00.299,Simcolourproject_2stim_asymm_v5,2020.2.10,Win32,60,61025ae37ef11b136ea224fe,,,,,,,,,2049,70,27,1,0,0,response1disk,,6,7,2,1,0,0,rectangle,7,2,1,0,0,,,,,,,7,2,1,0,0,,1,43,203,45,1,
,,,,,,,,,,,,,FF,,,,,,,,0.9658,,,,,,,,,,,,,,,,,,,,,,60fcd3ee451b8deffca413ee,61036c7484ad83fd30723a61,2021-07-29_22h06.00.299,Simcolourproject_2stim_asymm_v5,2020.2.10,Win32,60,61025ae37ef11b136ea224fe,,,,,,,,,611,83,46,1,0,0,response1disk,,6,12,2,1,0,0,rectangle,12,2,1,0,0,,,,,,,12,2,1,0,0,,1,44,204,50,1,
,,,,,,,,,,,,,FF,,,,,,,,0.9657,,,,,,,,,,,,,,,,,,,,,,60fcd3ee451b8deffca413ee,61036c7484ad83fd30723a61,2021-07-29_22h06.00.299,Simcolourproject_2stim_asymm_v5,2020.2.10,Win32,60,61025ae37ef11b136ea224fe,,,,,,,,,999,27,78,1,0,0,response1disk,,7,11,10,1,0,0,rectangle,11,10,1,0,0,,,,,,,11,10,1,0,0,,1,45,205,106,1,
,,,,,,,,,,,,,FF,,,,,,,,0.5825,,,,,,,,,,,,,,,,,,,,,,60fcd3ee451b8deffca413ee,61036c7484ad83fd30723a61,2021-07-29_22h06.00.299,Simcolourproject_2stim_asymm_v5,2020.2.10,Win32,60,61025ae37ef11b136ea224fe,,,,,,,,,2572,47,87,1,0,0,response1disk,,7,2,-3,1,0,0,rectangle,2,-3,1,0,0,,,,,,,2,-3,1,0,0,,1,46,206,16,1,
,,,,,,,,,,,,,FF,,,,,,,,0.8989,,,,,,,,,,,,,,,,,,,,,,60fcd3ee451b8deffca413ee,61036c7484ad83fd30723a61,2021-07-29_22h06.00.299,Simcolourproject_2stim_asymm_v5,2020.2.10,Win32,60,61025ae37ef11b136ea224fe,,,,,,,,,1242,71,28,1,0,0,response1disk,,6,17,-2,1,0,0,rectangle,17,-2,1,0,0,,,,,,,17,-2,1,0,0,,1,47,207,116,1,
,,,,,,,,,,,,,FF,,,,,,,,0.9326,,,,,,,,,,,,,,,,,,,,,,60fcd3ee451b8deffca413ee,61036c7484ad83fd30723a61,2021-07-29_22h06.00.299,Simcolourproject_2stim_asymm_v5,2020.2.10,Win32,60,61025ae37ef11b136ea224fe,,,,,,,,,3665,50,62,1,0,0,response1disk,,7,24,9,1,0,0,rectangle,35,-73,1,0,0,response3disk_3,TRUE,4,4,"[209,102,249,33,95,126,160,176,90,200,203,152,156,171,77,1,84,178,19,138]",2.1316,3,-7,1,0,0,rectangle,1,48,208,20,1,
,,,,,,,,,,,,,FF,,,,,,,,0.7657,,,,,,,,,,,,,,,,,,,,,,60fcd3ee451b8deffca413ee,61036c7484ad83fd30723a61,2021-07-29_22h06.00.299,Simcolourproject_2stim_asymm_v5,2020.2.10,Win32,60,61025ae37ef11b136ea224fe,,,,,,,,,2340,52,80,1,0,0,response1disk,,7,25,11,1,0,0,rectangle,25,11,1,0,0,,,,,,,25,11,1,0,0,,1,49,209,4,1,
,,,,,,,,,,,,,FF,,,,,,,,0.6822,,,,,,,,,,,,,,,,,,,,,,60fcd3ee451b8deffca413ee,61036c7484ad83fd30723a61,2021-07-29_22h06.00.299,Simcolourproject_2stim_asymm_v5,2020.2.10,Win32,60,61025ae37ef11b136ea224fe,,,,,,,,,220,68,42,1,0,0,response1disk,,6,21,13,1,0,0,rectangle,21,13,1,0,0,,,,,,,21,13,1,0,0,,1,50,210,53,1,
,,,,,,,,,,,,,FF,,,,,,,,0.6829,,,,,,,,,,,,,,,,,,,,,,60fcd3ee451b8deffca413ee,61036c7484ad83fd30723a61,2021-07-29_22h06.00.299,Simcolourproject_2stim_asymm_v5,2020.2.10,Win32,60,61025ae37ef11b136ea224fe,,,,,,,,,833,41,66,1,0,0,response1disk,,7,13,-3,1,0,0,rectangle,13,-3,1,0,0,,,,,,,13,-3,1,0,0,,1,51,211,150,1,
,,,,,,,,,,,,,FF,,,,,,,,1.1656,,,,,,,,,,,,,,,,,,,,,,60fcd3ee451b8deffca413ee,61036c7484ad83fd30723a61,2021-07-29_22h06.00.299,Simcolourproject_2stim_asymm_v5,2020.2.10,Win32,60,61025ae37ef11b136ea224fe,,,,,,,,,3710,22,90,1,0,0,response1disk,,7,-1,9,1,0,0,rectangle,-1,9,1,0,0,,,,,,,-1,9,1,0,0,,1,52,212,15,1,
,,,,,,,,,,,,,FF,,,,,,,,0.6496,,,,,,,,,,,,,,,,,,,,,,60fcd3ee451b8deffca413ee,61036c7484ad83fd30723a61,2021-07-29_22h06.00.299,Simcolourproject_2stim_asymm_v5,2020.2.10,Win32,60,61025ae37ef11b136ea224fe,,,,,,,,,288,57,84,1,0,0,response1disk,,7,13,-11,1,0,0,rectangle,13,-11,1,0,0,,,,,,,13,-11,1,0,0,,1,53,213,101,1,
,,,,,,,,,,,,,FF,,,,,,,,0.7164,,,,,,,,,,,,,,,,,,,,,,60fcd3ee451b8deffca413ee,61036c7484ad83fd30723a61,2021-07-29_22h06.00.299,Simcolourproject_2stim_asymm_v5,2020.2.10,Win32,60,61025ae37ef11b136ea224fe,,,,,,,,,3650,40,89,1,0,0,response1disk,,7,9,1,1,0,0,rectangle,9,1,1,0,0,,,,,,,9,1,1,0,0,,1,54,214,138,1,
,,,,,,,,,,,,,FF,,,,,,,,0.5162,,,,,,,,,,,,,,,,,,,,,,60fcd3ee451b8deffca413ee,61036c7484ad83fd30723a61,2021-07-29_22h06.00.299,Simcolourproject_2stim_asymm_v5,2020.2.10,Win32,60,61025ae37ef11b136ea224fe,,,,,,,,,1016,32,66,1,0,0,response1disk,,7,3,-4,1,0,0,rectangle,3,-4,1,0,0,,,,,,,3,-4,1,0,0,,1,55,215,152,1,
,,,,,,,,,,,,,FF,,,,,,,,0.9159,,,,,,,,,,,,,,,,,,,,,,60fcd3ee451b8deffca413ee,61036c7484ad83fd30723a61,2021-07-29_22h06.00.299,Simcolourproject_2stim_asymm_v5,2020.2.10,Win32,60,61025ae37ef11b136ea224fe,,,,,,,,,4123,23,-68,1,0,0,response3disk,,4,-8,7,1,0,0,rectangle,-8,7,1,0,0,,,,,,,-8,7,1,0,0,,1,56,216,83,1,
,,,,,,,,,,,,,FF,,,,,,,,1.3157,,,,,,,,,,,,,,,,,,,,,,60fcd3ee451b8deffca413ee,61036c7484ad83fd30723a61,2021-07-29_22h06.00.299,Simcolourproject_2stim_asymm_v5,2020.2.10,Win32,60,61025ae37ef11b136ea224fe,,,,,,,,,4060,25,-59,1,0,0,response3disk,,4,8,0,1,0,0,rectangle,8,0,1,0,0,,,,,,,8,0,1,0,0,,1,57,217,28,1,
,,,,,,,,,,,,,FF,,,,,,,,1.9482,,,,,,,,,,,,,,,,,,,,,,60fcd3ee451b8deffca413ee,61036c7484ad83fd30723a61,2021-07-29_22h06.00.299,Simcolourproject_2stim_asymm_v5,2020.2.10,Win32,60,61025ae37ef11b136ea224fe,,,,,,,,,4069,41,33,1,0,0,response1disk,,6,20,14,1,0,0,rectangle,20,14,1,0,0,,,,,,,20,14,1,0,0,,1,58,218,60,1,
,,,,,,,,,,,,,FF,,,,,,,,0.7491,,,,,,,,,,,,,,,,,,,,,,60fcd3ee451b8deffca413ee,61036c7484ad83fd30723a61,2021-07-29_22h06.00.299,Simcolourproject_2stim_asymm_v5,2020.2.10,Win32,60,61025ae37ef11b136ea224fe,,,,,,,,,968,-44,79,1,0,0,response7disk,,0,-13,9,1,0,0,rectangle,-13,9,1,0,0,,,,,,,-13,9,1,0,0,,1,59,219,36,1,
,,,,,,,,,,,,,FF,,,,,,,,2.1829,,,,,,,,,,,,,,,,,,,,,,60fcd3ee451b8deffca413ee,61036c7484ad83fd30723a61,2021-07-29_22h06.00.299,Simcolourproject_2stim_asymm_v5,2020.2.10,Win32,60,61025ae37ef11b136ea224fe,,,,,,,,,1690,-77,-36,1,0,0,response5disk,,2,-15,5,1,0,0,rectangle,-15,5,1,0,0,,,,,,,-15,5,1,0,0,,1,60,220,139,1,
,,,,,,,,,,,,,FF,,,,,,,,0.7331,,,,,,,,,,,,,,,,,,,,,,60fcd3ee451b8deffca413ee,61036c7484ad83fd30723a61,2021-07-29_22h06.00.299,Simcolourproject_2stim_asymm_v5,2020.2.10,Win32,60,61025ae37ef11b136ea224fe,,,,,,,,,2578,30,60,1,0,0,response1disk,,7,6,-7,1,0,0,rectangle,6,-7,1,0,0,,,,,,,6,-7,1,0,0,,1,61,221,22,1,
,,,,,,,,,,,,,FF,,,,,,,,0.9492,,,,,,,,,,,,,,,,,,,,,,60fcd3ee451b8deffca413ee,61036c7484ad83fd30723a61,2021-07-29_22h06.00.299,Simcolourproject_2stim_asymm_v5,2020.2.10,Win32,60,61025ae37ef11b136ea224fe,,,,,,,,,2671,96,-38,1,0,0,response3disk,,5,12,-15,1,0,0,rectangle,12,-15,1,0,0,,,,,,,12,-15,1,0,0,,1,62,222,158,1,
,,,,,,,,,,,,,FF,,,,,,,,10.9713,,,,,,,,,,,,,,,,,,,,,,60fcd3ee451b8deffca413ee,61036c7484ad83fd30723a61,2021-07-29_22h06.00.299,Simcolourproject_2stim_asymm_v5,2020.2.10,Win32,60,61025ae37ef11b136ea224fe,,,,,,,,,393,23,56,1,0,0,response1disk,,7,7,-12,1,0,0,rectangle,7,-12,1,0,0,,,,,,,7,-12,1,0,0,,1,63,223,114,1,
,,,,,,,,,,,,,FF,,,,,,,,0.8161,,,,,,,,,,,,,,,,,,,,,,60fcd3ee451b8deffca413ee,61036c7484ad83fd30723a61,2021-07-29_22h06.00.299,Simcolourproject_2stim_asymm_v5,2020.2.10,Win32,60,61025ae37ef11b136ea224fe,,,,,,,,,2738,39,73,1,0,0,response1disk,,7,16,12,1,0,0,rectangle,16,12,1,0,0,,,,,,,16,12,1,0,0,,1,64,224,147,1,
,,,,,,,,,,,,,FF,,,,,,,,0.782,,,,,,,,,,,,,,,,,,,,,,60fcd3ee451b8deffca413ee,61036c7484ad83fd30723a61,2021-07-29_22h06.00.299,Simcolourproject_2stim_asymm_v5,2020.2.10,Win32,60,61025ae37ef11b136ea224fe,,,,,,,,,4045,45,34,1,0,0,response1disk,,6,19,7,1,0,0,rectangle,19,7,1,0,0,,,,,,,19,7,1,0,0,,1,65,225,3,1,
,,,,,,,,,,,,,FF,,,,,,,,0.9654,,,,,,,,,,,,,,,,,,,,,,60fcd3ee451b8deffca413ee,61036c7484ad83fd30723a61,2021-07-29_22h06.00.299,Simcolourproject_2stim_asymm_v5,2020.2.10,Win32,60,61025ae37ef11b136ea224fe,,,,,,,,,1306,-65,39,1,0,0,response7disk,,1,0,-3,1,0,0,rectangle,0,-3,1,0,0,,,,,,,0,-3,1,0,0,,1,66,226,92,1,
,,,,,,,,,,,,,FF,,,,,,,,0.8493,,,,,,,,,,,,,,,,,,,,,,60fcd3ee451b8deffca413ee,61036c7484ad83fd30723a61,2021-07-29_22h06.00.299,Simcolourproject_2stim_asymm_v5,2020.2.10,Win32,60,61025ae37ef11b136ea224fe,,,,,,,,,3743,-78,39,1,0,0,response7disk,,1,-4,11,1,0,0,rectangle,-4,11,1,0,0,,,,,,,-4,11,1,0,0,,1,67,227,73,1,
,,,,,,,,,,,,,FF,,,,,,,,1.5315,,,,,,,,,,,,,,,,,,,,,,60fcd3ee451b8deffca413ee,61036c7484ad83fd30723a61,2021-07-29_22h06.00.299,Simcolourproject_2stim_asymm_v5,2020.2.10,Win32,60,61025ae37ef11b136ea224fe,,,,,,,,,828,45,-25,1,0,0,response3disk,,5,12,8,1,0,0,rectangle,12,8,1,0,0,,,,,,,12,8,1,0,0,,1,68,228,133,1,
,,,,,,,,,,,,,FF,,,,,,,,0.7989,,,,,,,,,,,,,,,,,,,,,,60fcd3ee451b8deffca413ee,61036c7484ad83fd30723a61,2021-07-29_22h06.00.299,Simcolourproject_2stim_asymm_v5,2020.2.10,Win32,60,61025ae37ef11b136ea224fe,,,,,,,,,1512,53,89,1,0,0,response1disk,,7,11,5,1,0,0,rectangle,11,5,1,0,0,,,,,,,11,5,1,0,0,,1,69,229,31,1,
,,,,,,,,,,,,,FF,,,,,,,,1.3154,,,,,,,,,,,,,,,,,,,,,,60fcd3ee451b8deffca413ee,61036c7484ad83fd30723a61,2021-07-29_22h06.00.299,Simcolourproject_2stim_asymm_v5,2020.2.10,Win32,60,61025ae37ef11b136ea224fe,,,,,,,,,3057,75,44,1,0,0,response1disk,,6,-5,0,1,0,0,rectangle,-5,0,1,0,0,,,,,,,-5,0,1,0,0,,1,70,230,2,1,
,,,,,,,,,,,,,FF,,,,,,,,1.5317,,,,,,,,,,,,,,,,,,,,,,60fcd3ee451b8deffca413ee,61036c7484ad83fd30723a61,2021-07-29_22h06.00.299,Simcolourproject_2stim_asymm_v5,2020.2.10,Win32,60,61025ae37ef11b136ea224fe,,,,,,,,,1183,63,74,1,0,0,response1disk,,7,22,14,1,0,0,rectangle,22,14,1,0,0,,,,,,,22,14,1,0,0,,1,71,231,146,1,
,,,,,,,,,,,,,FF,,,,,,,,0.849,,,,,,,,,,,,,,,,,,,,,,60fcd3ee451b8deffca413ee,61036c7484ad83fd30723a61,2021-07-29_22h06.00.299,Simcolourproject_2stim_asymm_v5,2020.2.10,Win32,60,61025ae37ef11b136ea224fe,,,,,,,,,745,32,57,1,0,0,response1disk,,7,19,15,1,0,0,rectangle,19,15,1,0,0,,,,,,,19,15,1,0,0,,1,72,232,99,1,
,,,,,,,,,,,,,FF,,,,,,,,0.6826,,,,,,,,,,,,,,,,,,,,,,60fcd3ee451b8deffca413ee,61036c7484ad83fd30723a61,2021-07-29_22h06.00.299,Simcolourproject_2stim_asymm_v5,2020.2.10,Win32,60,61025ae37ef11b136ea224fe,,,,,,,,,1658,41,72,1,0,0,response1disk,,7,13,-2,1,0,0,rectangle,13,-2,1,0,0,,,,,,,13,-2,1,0,0,,1,73,233,105,1,
,,,,,,,,,,,,,FF,,,,,,,,0.899,,,,,,,,,,,,,,,,,,,,,,60fcd3ee451b8deffca413ee,61036c7484ad83fd30723a61,2021-07-29_22h06.00.299,Simcolourproject_2stim_asymm_v5,2020.2.10,Win32,60,61025ae37ef11b136ea224fe,,,,,,,,,759,31,43,1,0,0,response1disk,,7,26,6,1,0,0,rectangle,26,6,1,0,0,,,,,,,26,6,1,0,0,,1,74,234,132,1,
,,,,,,,,,,,,,FF,,,,,,,,0.9326,,,,,,,,,,,,,,,,,,,,,,60fcd3ee451b8deffca413ee,61036c7484ad83fd30723a61,2021-07-29_22h06.00.299,Simcolourproject_2stim_asymm_v5,2020.2.10,Win32,60,61025ae37ef11b136ea224fe,,,,,,,,,2486,-39,-41,1,0,0,response5disk,,3,9,4,1,0,0,rectangle,9,4,1,0,0,,,,,,,9,4,1,0,0,,1,75,235,34,1,
,,,,,,,,,,,,,FF,,,,,,,,1.8482,,,,,,,,,,,,,,,,,,,,,,60fcd3ee451b8deffca413ee,61036c7484ad83fd30723a61,2021-07-29_22h06.00.299,Simcolourproject_2stim_asymm_v5,2020.2.10,Win32,60,61025ae37ef11b136ea224fe,,,,,,,,,3781,18,-49,1,0,0,response3disk,,4,-3,2,1,0,0,rectangle,-3,2,1,0,0,,,,,,,-3,2,1,0,0,,1,76,236,96,1,
,,,,,,,,,,,,,FF,,,,,,,,0.683,,,,,,,,,,,,,,,,,,,,,,60fcd3ee451b8deffca413ee,61036c7484ad83fd30723a61,2021-07-29_22h06.00.299,Simcolourproject_2stim_asymm_v5,2020.2.10,Win32,60,61025ae37ef11b136ea224fe,,,,,,,,,4046,-31,56,1,0,0,response7disk,,0,-8,6,1,0,0,rectangle,-8,6,1,0,0,,,,,,,-8,6,1,0,0,,1,77,237,10,1,
,,,,,,,,,,,,,FF,,,,,,,,0.8328,,,,,,,,,,,,,,,,,,,,,,60fcd3ee451b8deffca413ee,61036c7484ad83fd30723a61,2021-07-29_22h06.00.299,Simcolourproject_2stim_asymm_v5,2020.2.10,Win32,60,61025ae37ef11b136ea224fe,,,,,,,,,1544,58,37,1,0,0,response1disk,,6,6,2,1,0,0,rectangle,6,2,1,0,0,,,,,,,6,2,1,0,0,,1,78,238,56,1,
,,,,,,,,,,,,,FF,,,,,,,,0.8494,,,,,,,,,,,,,,,,,,,,,,60fcd3ee451b8deffca413ee,61036c7484ad83fd30723a61,2021-07-29_22h06.00.299,Simcolourproject_2stim_asymm_v5,2020.2.10,Win32,60,61025ae37ef11b136ea224fe,,,,,,,,,3738,30,64,1,0,0,response1disk,,7,13,13,1,0,0,rectangle,13,13,1,0,0,,,,,,,13,13,1,0,0,,1,79,239,97,1,
,,,,,,,,,,,,,FF,,,,,,,,0.8828,,,,,,,,,,,,,,,,,,,,,,60fcd3ee451b8deffca413ee,61036c7484ad83fd30723a61,2021-07-29_22h06.00.299,Simcolourproject_2stim_asymm_v5,2020.2.10,Win32,60,61025ae37ef11b136ea224fe,,,,,,,,,3031,26,53,1,0,0,response1disk,,7,0,-7,1,0,0,rectangle,0,-7,1,0,0,,,,,,,0,-7,1,0,0,,1,80,240,39,1,
,,,,,,,,,,,,,FF,,,,,,,,1.2987,,,,,,,,,,,,,,,,,,,,,,60fcd3ee451b8deffca413ee,61036c7484ad83fd30723a61,2021-07-29_22h06.00.299,Simcolourproject_2stim_asymm_v5,2020.2.10,Win32,60,61025ae37ef11b136ea224fe,,,,,,,,,1282,44,68,1,0,0,response1disk,,7,4,-12,1,0,0,rectangle,4,-12,1,0,0,,,,,,,4,-12,1,0,0,,1,81,241,90,1,
,,,,,,,,,,,,,FF,,,,,,,,0.6157,,,,,,,,,,,,,,,,,,,,,,60fcd3ee451b8deffca413ee,61036c7484ad83fd30723a61,2021-07-29_22h06.00.299,Simcolourproject_2stim_asymm_v5,2020.2.10,Win32,60,61025ae37ef11b136ea224fe,,,,,,,,,1100,22,80,1,0,0,response1disk,,7,4,10,1,0,0,rectangle,4,10,1,0,0,,,,,,,4,10,1,0,0,,1,82,242,8,1,
,,,,,,,,,,,,,FF,,,,,,,,1.0821,,,,,,,,,,,,,,,,,,,,,,60fcd3ee451b8deffca413ee,61036c7484ad83fd30723a61,2021-07-29_22h06.00.299,Simcolourproject_2stim_asymm_v5,2020.2.10,Win32,60,61025ae37ef11b136ea224fe,,,,,,,,,16,78,44,1,0,0,response1disk,,6,12,-1,1,0,0,rectangle,12,-1,1,0,0,,,,,,,12,-1,1,0,0,,1,83,243,32,1,
,,,,,,,,,,,,,FF,,,,,,,,0.8157,,,,,,,,,,,,,,,,,,,,,,60fcd3ee451b8deffca413ee,61036c7484ad83fd30723a61,2021-07-29_22h06.00.299,Simcolourproject_2stim_asymm_v5,2020.2.10,Win32,60,61025ae37ef11b136ea224fe,,,,,,,,,1770,26,78,1,0,0,response1disk,,7,7,4,1,0,0,rectangle,7,4,1,0,0,,,,,,,7,4,1,0,0,,1,84,244,62,1,
,,,,,,,,,,,,,FF,,,,,,,,0.6657,,,,,,,,,,,,,,,,,,,,,,60fcd3ee451b8deffca413ee,61036c7484ad83fd30723a61,2021-07-29_22h06.00.299,Simcolourproject_2stim_asymm_v5,2020.2.10,Win32,60,61025ae37ef11b136ea224fe,,,,,,,,,1140,41,82,1,0,0,response1disk,,7,11,5,1,0,0,rectangle,11,5,1,0,0,,,,,,,11,5,1,0,0,,1,85,245,17,1,
,,,,,,,,,,,,,FF,,,,,,,,1.3156,,,,,,,,,,,,,,,,,,,,,,60fcd3ee451b8deffca413ee,61036c7484ad83fd30723a61,2021-07-29_22h06.00.299,Simcolourproject_2stim_asymm_v5,2020.2.10,Win32,60,61025ae37ef11b136ea224fe,,,,,,,,,435,-53,-35,1,0,0,response5disk,,2,-7,0,1,0,0,rectangle,-7,0,1,0,0,,,,,,,-7,0,1,0,0,,1,86,246,154,1,
,,,,,,,,,,,,,FF,,,,,,,,0.8526,,,,,,,,,,,,,,,,,,,,,,60fcd3ee451b8deffca413ee,61036c7484ad83fd30723a61,2021-07-29_22h06.00.299,Simcolourproject_2stim_asymm_v5,2020.2.10,Win32,60,61025ae37ef11b136ea224fe,,,,,,,,,2192,16,86,1,0,0,response1disk,,7,-4,0,1,0,0,rectangle,-4,0,1,0,0,,,,,,,-4,0,1,0,0,,1,87,247,7,1,
,,,,,,,,,,,,,FF,,,,,,,,0.8153,,,,,,,,,,,,,,,,,,,,,,60fcd3ee451b8deffca413ee,61036c7484ad83fd30723a61,2021-07-29_22h06.00.299,Simcolourproject_2stim_asymm_v5,2020.2.10,Win32,60,61025ae37ef11b136ea224fe,,,,,,,,,3445,68,42,1,0,0,response1disk,,6,11,4,1,0,0,rectangle,-72,54,1,0,0,response7disk_3,TRUE,1,1,"[209,102,249,33,95,126,160,176,90,200,203,152,156,171,77,1,84,178,19,138]",1.6316,-5,8,1,0,0,rectangle,1,88,248,63,1,
,,,,,,,,,,,,,FF,,,,,,,,0.7325,,,,,,,,,,,,,,,,,,,,,,60fcd3ee451b8deffca413ee,61036c7484ad83fd30723a61,2021-07-29_22h06.00.299,Simcolourproject_2stim_asymm_v5,2020.2.10,Win32,60,61025ae37ef11b136ea224fe,,,,,,,,,2809,44,61,1,0,0,response1disk,,7,16,4,1,0,0,rectangle,16,4,1,0,0,,,,,,,16,4,1,0,0,,1,89,249,46,1,
,,,,,,,,,,,,,FF,,,,,,,,0.8994,,,,,,,,,,,,,,,,,,,,,,60fcd3ee451b8deffca413ee,61036c7484ad83fd30723a61,2021-07-29_22h06.00.299,Simcolourproject_2stim_asymm_v5,2020.2.10,Win32,60,61025ae37ef11b136ea224fe,,,,,,,,,1222,-56,-50,1,0,0,response5disk,,2,6,3,1,0,0,rectangle,6,3,1,0,0,,,,,,,6,3,1,0,0,,1,90,250,93,1,
,,,,,,,,,,,,,FF,,,,,,,,0.6491,,,,,,,,,,,,,,,,,,,,,,60fcd3ee451b8deffca413ee,61036c7484ad83fd30723a61,2021-07-29_22h06.00.299,Simcolourproject_2stim_asymm_v5,2020.2.10,Win32,60,61025ae37ef11b136ea224fe,,,,,,,,,3955,32,60,1,0,0,response1disk,,7,10,0,1,0,0,rectangle,10,0,1,0,0,,,,,,,10,0,1,0,0,,1,91,251,89,1,
,,,,,,,,,,,,,FF,,,,,,,,0.8164,,,,,,,,,,,,,,,,,,,,,,60fcd3ee451b8deffca413ee,61036c7484ad83fd30723a61,2021-07-29_22h06.00.299,Simcolourproject_2stim_asymm_v5,2020.2.10,Win32,60,61025ae37ef11b136ea224fe,,,,,,,,,2776,-59,-24,1,0,0,response5disk,,2,4,3,1,0,0,rectangle,4,3,1,0,0,,,,,,,4,3,1,0,0,,1,92,252,129,1,
,,,,,,,,,,,,,FF,,,,,,,,0.9824,,,,,,,,,,,,,,,,,,,,,,60fcd3ee451b8deffca413ee,61036c7484ad83fd30723a61,2021-07-29_22h06.00.299,Simcolourproject_2stim_asymm_v5,2020.2.10,Win32,60,61025ae37ef11b136ea224fe,,,,,,,,,121,50,45,1,0,0,response1disk,,6,3,6,1,0,0,rectangle,3,6,1,0,0,,,,,,,3,6,1,0,0,,1,93,253,12,1,
,,,,,,,,,,,,,FF,,,,,,,,0.9988,,,,,,,,,,,,,,,,,,,,,,60fcd3ee451b8deffca413ee,61036c7484ad83fd30723a61,2021-07-29_22h06.00.299,Simcolourproject_2stim_asymm_v5,2020.2.10,Win32,60,61025ae37ef11b136ea224fe,,,,,,,,,3300,27,70,1,0,0,response1disk,,7,10,0,1,0,0,rectangle,10,0,1,0,0,,,,,,,10,0,1,0,0,,1,94,254,126,1,
,,,,,,,,,,,,,FF,,,,,,,,1.1826,,,,,,,,,,,,,,,,,,,,,,60fcd3ee451b8deffca413ee,61036c7484ad83fd30723a61,2021-07-29_22h06.00.299,Simcolourproject_2stim_asymm_v5,2020.2.10,Win32,60,61025ae37ef11b136ea224fe,,,,,,,,,3846,-31,-58,1,0,0,response5disk,,3,-4,-4,1,0,0,rectangle,-4,-4,1,0,0,,,,,,,-4,-4,1,0,0,,1,95,255,80,1,
,,,,,,,,,,,,,FF,,,,,,,,1.2325,,,,,,,,,,,,,,,,,,,,,,60fcd3ee451b8deffca413ee,61036c7484ad83fd30723a61,2021-07-29_22h06.00.299,Simcolourproject_2stim_asymm_v5,2020.2.10,Win32,60,61025ae37ef11b136ea224fe,,,,,,,,,1525,-71,-20,1,0,0,response5disk,,2,11,7,1,0,0,rectangle,11,7,1,0,0,,,,,,,11,7,1,0,0,,1,96,256,81,1,
,,,,,,,,,,,,,FF,,,,,,,,1.1822,,,,,,,,,,,,,,,,,,,,,,60fcd3ee451b8deffca413ee,61036c7484ad83fd30723a61,2021-07-29_22h06.00.299,Simcolourproject_2stim_asymm_v5,2020.2.10,Win32,60,61025ae37ef11b136ea224fe,,,,,,,,,1562,32,57,1,0,0,response1disk,,7,6,-1,1,0,0,rectangle,6,-1,1,0,0,,,,,,,6,-1,1,0,0,,1,97,257,65,1,
,,,,,,,,,,,,,FF,,,,,,,,0.9822,,,,,,,,,,,,,,,,,,,,,,60fcd3ee451b8deffca413ee,61036c7484ad83fd30723a61,2021-07-29_22h06.00.299,Simcolourproject_2stim_asymm_v5,2020.2.10,Win32,60,61025ae37ef11b136ea224fe,,,,,,,,,1010,45,25,1,0,0,response1disk,,6,1,-1,1,0,0,rectangle,1,-1,1,0,0,,,,,,,1,-1,1,0,0,,1,98,258,37,1,
,,,,,,,,,,,,,FF,,,,,,,,1.3321,,,,,,,,,,,,,,,,,,,,,,60fcd3ee451b8deffca413ee,61036c7484ad83fd30723a61,2021-07-29_22h06.00.299,Simcolourproject_2stim_asymm_v5,2020.2.10,Win32,60,61025ae37ef11b136ea224fe,,,,,,,,,1397,33,-77,1,0,0,response3disk,,4,-8,1,1,0,0,rectangle,-8,1,1,0,0,,,,,,,-8,1,1,0,0,,1,99,259,23,1,
,,,,,,,,,,,,,FF,,,,,,,,0.8658,,,,,,,,,,,,,,,,,,,,,,60fcd3ee451b8deffca413ee,61036c7484ad83fd30723a61,2021-07-29_22h06.00.299,Simcolourproject_2stim_asymm_v5,2020.2.10,Win32,60,61025ae37ef11b136ea224fe,,,,,,,,,1228,-69,-33,1,0,0,response5disk,,2,-11,4,1,0,0,rectangle,-11,4,1,0,0,,,,,,,-11,4,1,0,0,,1,100,260,82,1,
,,,,,,,,,,,,,FF,,,,,,,,0.8159,,,,,,,,,,,,,,,,,,,,,,60fcd3ee451b8deffca413ee,61036c7484ad83fd30723a61,2021-07-29_22h06.00.299,Simcolourproject_2stim_asymm_v5,2020.2.10,Win32,60,61025ae37ef11b136ea224fe,,,,,,,,,303,59,33,1,0,0,response1disk,,6,0,-4,1,0,0,rectangle,0,-4,1,0,0,,,,,,,0,-4,1,0,0,,1,101,261,115,1,
,,,,,,,,,,,,,FF,,,,,,,,0.733,,,,,,,,,,,,,,,,,,,,,,60fcd3ee451b8deffca413ee,61036c7484ad83fd30723a61,2021-07-29_22h06.00.299,Simcolourproject_2stim_asymm_v5,2020.2.10,Win32,60,61025ae37ef11b136ea224fe,,,,,,,,,2409,41,101,1,0,0,response1disk,,7,-5,-9,1,0,0,rectangle,-5,-9,1,0,0,,,,,,,-5,-9,1,0,0,,1,102,262,75,1,
,,,,,,,,,,,,,FF,,,,,,,,0.7159,,,,,,,,,,,,,,,,,,,,,,60fcd3ee451b8deffca413ee,61036c7484ad83fd30723a61,2021-07-29_22h06.00.299,Simcolourproject_2stim_asymm_v5,2020.2.10,Win32,60,61025ae37ef11b136ea224fe,,,,,,,,,1510,33,74,1,0,0,response1disk,,7,6,9,1,0,0,rectangle,6,9,1,0,0,,,,,,,6,9,1,0,0,,1,103,263,120,1,
,,,,,,,,,,,,,FF,,,,,,,,0.7161,,,,,,,,,,,,,,,,,,,,,,60fcd3ee451b8deffca413ee,61036c7484ad83fd30723a61,2021-07-29_22h06.00.299,Simcolourproject_2stim_asymm_v5,2020.2.10,Win32,60,61025ae37ef11b136ea224fe,,,,,,,,,134,26,54,1,0,0,response1disk,,7,1,9,1,0,0,rectangle,1,9,1,0,0,,,,,,,1,9,1,0,0,,1,104,264,118,1,
,,,,,,,,,,,,,FF,,,,,,,,0.6157,,,,,,,,,,,,,,,,,,,,,,60fcd3ee451b8deffca413ee,61036c7484ad83fd30723a61,2021-07-29_22h06.00.299,Simcolourproject_2stim_asymm_v5,2020.2.10,Win32,60,61025ae37ef11b136ea224fe,,,,,,,,,4210,28,57,1,0,0,response1disk,,7,9,7,1,0,0,rectangle,9,7,1,0,0,,,,,,,9,7,1,0,0,,1,105,265,86,1,
,,,,,,,,,,,,,FF,,,,,,,,0.8992,,,,,,,,,,,,,,,,,,,,,,60fcd3ee451b8deffca413ee,61036c7484ad83fd30723a61,2021-07-29_22h06.00.299,Simcolourproject_2stim_asymm_v5,2020.2.10,Win32,60,61025ae37ef11b136ea224fe,,,,,,,,,1480,34,105,1,0,0,response1disk,,7,3,4,1,0,0,rectangle,3,4,1,0,0,,,,,,,3,4,1,0,0,,1,106,266,57,1,
,,,,,,,,,,,,,FF,,,,,,,,1.0324,,,,,,,,,,,,,,,,,,,,,,60fcd3ee451b8deffca413ee,61036c7484ad83fd30723a61,2021-07-29_22h06.00.299,Simcolourproject_2stim_asymm_v5,2020.2.10,Win32,60,61025ae37ef11b136ea224fe,,,,,,,,,1892,-80,53,1,0,0,response7disk,,1,-6,-1,1,0,0,rectangle,-6,-1,1,0,0,,,,,,,-6,-1,1,0,0,,1,107,267,72,1,
,,,,,,,,,,,,,FF,,,,,,,,1.4484,,,,,,,,,,,,,,,,,,,,,,60fcd3ee451b8deffca413ee,61036c7484ad83fd30723a61,2021-07-29_22h06.00.299,Simcolourproject_2stim_asymm_v5,2020.2.10,Win32,60,61025ae37ef11b136ea224fe,,,,,,,,,1821,22,-78,1,0,0,response3disk,,4,-6,-10,1,0,0,rectangle,-6,-10,1,0,0,,,,,,,-6,-10,1,0,0,,1,108,268,11,1,
,,,,,,,,,,,,,FF,,,,,,,,0.7492,,,,,,,,,,,,,,,,,,,,,,60fcd3ee451b8deffca413ee,61036c7484ad83fd30723a61,2021-07-29_22h06.00.299,Simcolourproject_2stim_asymm_v5,2020.2.10,Win32,60,61025ae37ef11b136ea224fe,,,,,,,,,4200,-32,67,1,0,0,response7disk,,0,2,2,1,0,0,rectangle,2,2,1,0,0,,,,,,,2,2,1,0,0,,1,109,269,9,1,
,,,,,,,,,,,,,FF,,,,,,,,1.5155,,,,,,,,,,,,,,,,,,,,,,60fcd3ee451b8deffca413ee,61036c7484ad83fd30723a61,2021-07-29_22h06.00.299,Simcolourproject_2stim_asymm_v5,2020.2.10,Win32,60,61025ae37ef11b136ea224fe,,,,,,,,,1723,24,64,1,0,0,response1disk,,7,9,2,1,0,0,rectangle,9,2,1,0,0,,,,,,,9,2,1,0,0,,1,110,270,0,1,
,,,,,,,,,,,,,FF,,,,,,,,1.2317,,,,,,,,,,,,,,,,,,,,,,60fcd3ee451b8deffca413ee,61036c7484ad83fd30723a61,2021-07-29_22h06.00.299,Simcolourproject_2stim_asymm_v5,2020.2.10,Win32,60,61025ae37ef11b136ea224fe,,,,,,,,,614,35,57,1,0,0,response1disk,,7,5,8,1,0,0,rectangle,5,8,1,0,0,,,,,,,5,8,1,0,0,,1,111,271,54,1,
,,,,,,,,,,,,,FF,,,,,,,,1.6812,,,,,,,,,,,,,,,,,,,,,,60fcd3ee451b8deffca413ee,61036c7484ad83fd30723a61,2021-07-29_22h06.00.299,Simcolourproject_2stim_asymm_v5,2020.2.10,Win32,60,61025ae37ef11b136ea224fe,,,,,,,,,2783,-41,-54,1,0,0,response5disk,,3,-6,-2,1,0,0,rectangle,-6,-2,1,0,0,,,,,,,-6,-2,1,0,0,,1,112,272,125,1,
,,,,,,,,,,,,,FF,,,,,,,,1.3989,,,,,,,,,,,,,,,,,,,,,,60fcd3ee451b8deffca413ee,61036c7484ad83fd30723a61,2021-07-29_22h06.00.299,Simcolourproject_2stim_asymm_v5,2020.2.10,Win32,60,61025ae37ef11b136ea224fe,,,,,,,,,279,73,-43,1,0,0,response3disk,,5,12,4,1,0,0,rectangle,12,4,1,0,0,,,,,,,12,4,1,0,0,,1,113,273,145,1,
,,,,,,,,,,,,,FF,,,,,,,,0.9657,,,,,,,,,,,,,,,,,,,,,,60fcd3ee451b8deffca413ee,61036c7484ad83fd30723a61,2021-07-29_22h06.00.299,Simcolourproject_2stim_asymm_v5,2020.2.10,Win32,60,61025ae37ef11b136ea224fe,,,,,,,,,683,49,49,1,0,0,response1disk,,7,2,10,1,0,0,rectangle,2,10,1,0,0,,,,,,,2,10,1,0,0,,1,114,274,77,1,
,,,,,,,,,,,,,FF,,,,,,,,2.3642,,,,,,,,,,,,,,,,,,,,,,60fcd3ee451b8deffca413ee,61036c7484ad83fd30723a61,2021-07-29_22h06.00.299,Simcolourproject_2stim_asymm_v5,2020.2.10,Win32,60,61025ae37ef11b136ea224fe,,,,,,,,,227,37,-73,1,0,0,response3disk,,4,-11,1,1,0,0,rectangle,-11,1,1,0,0,,,,,,,-11,1,1,0,0,,1,115,275,13,1,
,,,,,,,,,,,,,FF,,,,,,,,1.2157,,,,,,,,,,,,,,,,,,,,,,60fcd3ee451b8deffca413ee,61036c7484ad83fd30723a61,2021-07-29_22h06.00.299,Simcolourproject_2stim_asymm_v5,2020.2.10,Win32,60,61025ae37ef11b136ea224fe,,,,,,,,,930,39,66,1,0,0,response1disk,,7,5,7,1,0,0,rectangle,5,7,1,0,0,,,,,,,5,7,1,0,0,,1,116,276,136,1,
,,,,,,,,,,,,,FF,,,,,,,,0.8155,,,,,,,,,,,,,,,,,,,,,,60fcd3ee451b8deffca413ee,61036c7484ad83fd30723a61,2021-07-29_22h06.00.299,Simcolourproject_2stim_asymm_v5,2020.2.10,Win32,60,61025ae37ef11b136ea224fe,,,,,,,,,4156,60,27,1,0,0,response1disk,,6,7,-1,1,0,0,rectangle,7,-1,1,0,0,,,,,,,7,-1,1,0,0,,1,117,277,1,1,
,,,,,,,,,,,,,FF,,,,,,,,0.9992,,,,,,,,,,,,,,,,,,,,,,60fcd3ee451b8deffca413ee,61036c7484ad83fd30723a61,2021-07-29_22h06.00.299,Simcolourproject_2stim_asymm_v5,2020.2.10,Win32,60,61025ae37ef11b136ea224fe,,,,,,,,,3336,-30,76,1,0,0,response7disk,,0,-6,11,1,0,0,rectangle,-6,11,1,0,0,,,,,,,-6,11,1,0,0,,1,118,278,21,1,
,,,,,,,,,,,,,FF,,,,,,,,2.3799,,,,,,,,,,,,,,,,,,,,,,60fcd3ee451b8deffca413ee,61036c7484ad83fd30723a61,2021-07-29_22h06.00.299,Simcolourproject_2stim_asymm_v5,2020.2.10,Win32,60,61025ae37ef11b136ea224fe,,,,,,,,,2056,45,76,1,0,0,response1disk,,7,14,-5,1,0,0,rectangle,14,-5,1,0,0,,,,,,,14,-5,1,0,0,,1,119,279,88,1,
,,,,,,,,,,,,,FF,,,,,,,,0.5997,,,,,,,,,,,,,,,,,,,,,,60fcd3ee451b8deffca413ee,61036c7484ad83fd30723a61,2021-07-29_22h06.00.299,Simcolourproject_2stim_asymm_v5,2020.2.10,Win32,60,61025ae37ef11b136ea224fe,,,,,,,,,3135,28,73,1,0,0,response1disk,,7,7,5,1,0,0,rectangle,7,5,1,0,0,,,,,,,7,5,1,0,0,,1,120,280,87,1,
,,,,,,,,,,,,,FF,,,,,,,,0.6831,,,,,,,,,,,,,,,,,,,,,,60fcd3ee451b8deffca413ee,61036c7484ad83fd30723a61,2021-07-29_22h06.00.299,Simcolourproject_2stim_asymm_v5,2020.2.10,Win32,60,61025ae37ef11b136ea224fe,,,,,,,,,2353,24,56,1,0,0,response1disk,,7,8,6,1,0,0,rectangle,8,6,1,0,0,,,,,,,8,6,1,0,0,,1,121,281,119,1,
,,,,,,,,,,,,,FF,,,,,,,,0.9656,,,,,,,,,,,,,,,,,,,,,,60fcd3ee451b8deffca413ee,61036c7484ad83fd30723a61,2021-07-29_22h06.00.299,Simcolourproject_2stim_asymm_v5,2020.2.10,Win32,60,61025ae37ef11b136ea224fe,,,,,,,,,3643,55,26,1,0,0,response1disk,,6,13,4,1,0,0,rectangle,13,4,1,0,0,,,,,,,13,4,1,0,0,,1,122,282,67,1,
,,,,,,,,,,,,,FF,,,,,,,,0.5157,,,,,,,,,,,,,,,,,,,,,,60fcd3ee451b8deffca413ee,61036c7484ad83fd30723a61,2021-07-29_22h06.00.299,Simcolourproject_2stim_asymm_v5,2020.2.10,Win32,60,61025ae37ef11b136ea224fe,,,,,,,,,3806,35,58,1,0,0,response1disk,,7,9,-6,1,0,0,rectangle,9,-6,1,0,0,,,,,,,9,-6,1,0,0,,1,123,283,109,1,
,,,,,,,,,,,,,FF,,,,,,,,0.6329,,,,,,,,,,,,,,,,,,,,,,60fcd3ee451b8deffca413ee,61036c7484ad83fd30723a61,2021-07-29_22h06.00.299,Simcolourproject_2stim_asymm_v5,2020.2.10,Win32,60,61025ae37ef11b136ea224fe,,,,,,,,,1013,22,71,1,0,0,response1disk,,7,3,6,1,0,0,rectangle,3,6,1,0,0,,,,,,,3,6,1,0,0,,1,124,284,134,1,
,,,,,,,,,,,,,FF,,,,,,,,1.0319,,,,,,,,,,,,,,,,,,,,,,60fcd3ee451b8deffca413ee,61036c7484ad83fd30723a61,2021-07-29_22h06.00.299,Simcolourproject_2stim_asymm_v5,2020.2.10,Win32,60,61025ae37ef11b136ea224fe,,,,,,,,,3673,-25,-63,1,0,0,response5disk,,3,1,-2,1,0,0,rectangle,1,-2,1,0,0,,,,,,,1,-2,1,0,0,,1,125,285,122,1,
,,,,,,,,,,,,,FF,,,,,,,,0.9154,,,,,,,,,,,,,,,,,,,,,,60fcd3ee451b8deffca413ee,61036c7484ad83fd30723a61,2021-07-29_22h06.00.299,Simcolourproject_2stim_asymm_v5,2020.2.10,Win32,60,61025ae37ef11b136ea224fe,,,,,,,,,2909,57,57,1,0,0,response1disk,,7,3,-2,1,0,0,rectangle,3,-2,1,0,0,,,,,,,3,-2,1,0,0,,1,126,286,110,1,
,,,,,,,,,,,,,FF,,,,,,,,0.9151,,,,,,,,,,,,,,,,,,,,,,60fcd3ee451b8deffca413ee,61036c7484ad83fd30723a61,2021-07-29_22h06.00.299,Simcolourproject_2stim_asymm_v5,2020.2.10,Win32,60,61025ae37ef11b136ea224fe,,,,,,,,,2478,29,59,1,0,0,response1disk,,7,8,4,1,0,0,rectangle,8,4,1,0,0,,,,,,,8,4,1,0,0,,1,127,287,104,1,
,,,,,,,,,,,,,FF,,,,,,,,0.9993,,,,,,,,,,,,,,,,,,,,,,60fcd3ee451b8deffca413ee,61036c7484ad83fd30723a61,2021-07-29_22h06.00.299,Simcolourproject_2stim_asymm_v5,2020.2.10,Win32,60,61025ae37ef11b136ea224fe,,,,,,,,,30,31,58,1,0,0,response1disk,,7,7,3,1,0,0,rectangle,7,3,1,0,0,,,,,,,7,3,1,0,0,,1,128,288,107,1,
,,,,,,,,,,,,,FF,,,,,,,,1.4813,,,,,,,,,,,,,,,,,,,,,,60fcd3ee451b8deffca413ee,61036c7484ad83fd30723a61,2021-07-29_22h06.00.299,Simcolourproject_2stim_asymm_v5,2020.2.10,Win32,60,61025ae37ef11b136ea224fe,,,,,,,,,4354,76,18,1,0,0,response1disk,,6,20,-3,1,0,0,rectangle,20,-3,1,0,0,,,,,,,20,-3,1,0,0,,1,129,289,33,1,
,,,,,,,,,,,,,FF,,,,,,,,0.7993,,,,,,,,,,,,,,,,,,,,,,60fcd3ee451b8deffca413ee,61036c7484ad83fd30723a61,2021-07-29_22h06.00.299,Simcolourproject_2stim_asymm_v5,2020.2.10,Win32,60,61025ae37ef11b136ea224fe,,,,,,,,,2290,20,73,1,0,0,response1disk,,7,8,13,1,0,0,rectangle,8,13,1,0,0,,,,,,,8,13,1,0,0,,1,130,290,70,1,
,,,,,,,,,,,,,FF,,,,,,,,0.9158,,,,,,,,,,,,,,,,,,,,,,60fcd3ee451b8deffca413ee,61036c7484ad83fd30723a61,2021-07-29_22h06.00.299,Simcolourproject_2stim_asymm_v5,2020.2.10,Win32,60,61025ae37ef11b136ea224fe,,,,,,,,,3559,-29,-76,1,0,0,response5disk,,3,3,-2,1,0,0,rectangle,3,-2,1,0,0,,,,,,,3,-2,1,0,0,,1,131,291,71,1,
,,,,,,,,,,,,,FF,,,,,,,,4.8447,,,,,,,,,,,,,,,,,,,,,,60fcd3ee451b8deffca413ee,61036c7484ad83fd30723a61,2021-07-29_22h06.00.299,Simcolourproject_2stim_asymm_v5,2020.2.10,Win32,60,61025ae37ef11b136ea224fe,,,,,,,,,2165,107,65,1,0,0,response1disk,,6,7,-13,1,0,0,rectangle,7,-13,1,0,0,,,,,,,7,-13,1,0,0,,1,132,292,144,1,
,,,,,,,,,,,,,FF,,,,,,,,0.9319,,,,,,,,,,,,,,,,,,,,,,60fcd3ee451b8deffca413ee,61036c7484ad83fd30723a61,2021-07-29_22h06.00.299,Simcolourproject_2stim_asymm_v5,2020.2.10,Win32,60,61025ae37ef11b136ea224fe,,,,,,,,,52,36,68,1,0,0,response1disk,,7,-4,4,1,0,0,rectangle,-4,4,1,0,0,,,,,,,-4,4,1,0,0,,1,133,293,128,1,
,,,,,,,,,,,,,FF,,,,,,,,0.6997,,,,,,,,,,,,,,,,,,,,,,60fcd3ee451b8deffca413ee,61036c7484ad83fd30723a61,2021-07-29_22h06.00.299,Simcolourproject_2stim_asymm_v5,2020.2.10,Win32,60,61025ae37ef11b136ea224fe,,,,,,,,,1719,68,33,1,0,0,response1disk,,6,-6,-7,1,0,0,rectangle,-6,-7,1,0,0,,,,,,,-6,-7,1,0,0,,1,134,294,94,1,
,,,,,,,,,,,,,FF,,,,,,,,0.5824,,,,,,,,,,,,,,,,,,,,,,60fcd3ee451b8deffca413ee,61036c7484ad83fd30723a61,2021-07-29_22h06.00.299,Simcolourproject_2stim_asymm_v5,2020.2.10,Win32,60,61025ae37ef11b136ea224fe,,,,,,,,,229,28,79,1,0,0,response1disk,,7,6,-5,1,0,0,rectangle,6,-5,1,0,0,,,,,,,6,-5,1,0,0,,1,135,295,74,1,
,,,,,,,,,,,,,FF,,,,,,,,0.7991,,,,,,,,,,,,,,,,,,,,,,60fcd3ee451b8deffca413ee,61036c7484ad83fd30723a61,2021-07-29_22h06.00.299,Simcolourproject_2stim_asymm_v5,2020.2.10,Win32,60,61025ae37ef11b136ea224fe,,,,,,,,,349,-95,29,1,0,0,response7disk,,1,-9,4,1,0,0,rectangle,-9,4,1,0,0,,,,,,,-9,4,1,0,0,,1,136,296,38,1,
,,,,,,,,,,,,,FF,,,,,,,,0.9044,,,,,,,,,,,,,,,,,,,,,,60fcd3ee451b8deffca413ee,61036c7484ad83fd30723a61,2021-07-29_22h06.00.299,Simcolourproject_2stim_asymm_v5,2020.2.10,Win32,60,61025ae37ef11b136ea224fe,,,,,,,,,782,34,67,1,0,0,response1disk,,7,13,-5,1,0,0,rectangle,13,-5,1,0,0,,,,,,,13,-5,1,0,0,,1,137,297,55,1,
,,,,,,,,,,,,,FF,,,,,,,,1.0823,,,,,,,,,,,,,,,,,,,,,,60fcd3ee451b8deffca413ee,61036c7484ad83fd30723a61,2021-07-29_22h06.00.299,Simcolourproject_2stim_asymm_v5,2020.2.10,Win32,60,61025ae37ef11b136ea224fe,,,,,,,,,3604,18,59,1,0,0,response1disk,,7,13,4,1,0,0,rectangle,13,4,1,0,0,,,,,,,13,4,1,0,0,,1,138,298,155,1,
,,,,,,,,,,,,,FF,,,,,,,,0.7652,,,,,,,,,,,,,,,,,,,,,,60fcd3ee451b8deffca413ee,61036c7484ad83fd30723a61,2021-07-29_22h06.00.299,Simcolourproject_2stim_asymm_v5,2020.2.10,Win32,60,61025ae37ef11b136ea224fe,,,,,,,,,466,32,63,1,0,0,response1disk,,7,9,3,1,0,0,rectangle,9,3,1,0,0,,,,,,,9,3,1,0,0,,1,139,299,151,1,
,,,,,,,,,,,,,FF,,,,,,,,0.8491,,,,,,,,,,,,,,,,,,,,,,60fcd3ee451b8deffca413ee,61036c7484ad83fd30723a61,2021-07-29_22h06.00.299,Simcolourproject_2stim_asymm_v5,2020.2.10,Win32,60,61025ae37ef11b136ea224fe,,,,,,,,,1382,-76,-40,1,0,0,response5disk,,2,-16,-3,1,0,0,rectangle,-16,-3,1,0,0,,,,,,,-16,-3,1,0,0,,1,140,300,79,1,
,,,,,,,,,,,,,FF,,,,,,,,1.6808,,,,,,,,,,,,,,,,,,,,,,60fcd3ee451b8deffca413ee,61036c7484ad83fd30723a61,2021-07-29_22h06.00.299,Simcolourproject_2stim_asymm_v5,2020.2.10,Win32,60,61025ae37ef11b136ea224fe,,,,,,,,,3983,75,43,1,0,0,response1disk,,6,3,2,1,0,0,rectangle,3,2,1,0,0,,,,,,,3,2,1,0,0,,1,141,301,111,1,
,,,,,,,,,,,,,FF,,,,,,,,3.9623,,,,,,,,,,,,,,,,,,,,,,60fcd3ee451b8deffca413ee,61036c7484ad83fd30723a61,2021-07-29_22h06.00.299,Simcolourproject_2stim_asymm_v5,2020.2.10,Win32,60,61025ae37ef11b136ea224fe,,,,,,,,,1289,28,49,1,0,0,response1disk,,7,10,10,1,0,0,rectangle,10,10,1,0,0,,,,,,,10,10,1,0,0,,1,142,302,68,1,
