key_resp.keys,key_resp.rt,key_resp_14.keys,key_resp_14.rt,key_resp_15.keys,key_resp_15.rt,key_resp_17.keys,key_resp_17.rt,key_resp_9.keys,key_resp_9.rt,key_resp_10.keys,key_resp_10.rt,practice_comparison,Ecc,mouse_5.x,mouse_5.y,mouse_5.leftButton,mouse_5.midButton,mouse_5.rightButton,mouse_5.clicked_name,pracsimilarity,response_time,mouse_10.x,mouse_10.y,mouse_10.leftButton,mouse_10.midButton,mouse_10.rightButton,mouse_10.clicked_name,mouse_7.x,mouse_7.y,mouse_7.leftButton,mouse_7.midButton,mouse_7.rightButton,mouse_6.x,mouse_6.y,mouse_6.leftButton,mouse_6.midButton,mouse_6.rightButton,duringprac.thisRepN,duringprac.thisTrialN,duringprac.thisN,duringprac.thisIndex,duringprac.ran,participant,session,date,expName,psychopyVersion,OS,frameRate,study_id,mouse_7.clicked_name,catchpracsimilarity,catch_response_time,catchnumberprac,catchtrialorderprac,mouse_6.clicked_name,key_resp_22.keys,key_resp_22.rt,realcomparison,mouse.x,mouse.y,mouse.leftButton,mouse.midButton,mouse.rightButton,mouse.clicked_name,Colour2,similarity,mouse_2.x,mouse_2.y,mouse_2.leftButton,mouse_2.midButton,mouse_2.rightButton,mouse_2.clicked_name,mouse_3.x,mouse_3.y,mouse_3.leftButton,mouse_3.midButton,mouse_3.rightButton,mouse_11.x,mouse_11.y,mouse_11.leftButton,mouse_11.midButton,mouse_11.rightButton,trials_2.thisRepN,trials_2.thisTrialN,trials_2.thisN,trials_2.thisIndex,trials_2.ran,Colour1,mouse_3.clicked_name,catchornah,catchsimilarity,catchnumber,catchtrialorder,catchRT,mouse_11.clicked_name
space,1.7423,space,5.7954,space,36.8582,space,5.1263,space,1.5446,space,3.3155,60,PF,22,-133,1,0,0,response3disk_5,4,1.5336,-19,-3,1,0,0,rectangle_8,-19,-3,1,0,0,-19,-3,1,0,0,0,0,0,6,1,60fce1771681bdc5025b872e,61036f8066dec8e5896fc502,2021-07-29_23h19.48.420,Simcolourproject_2stim_asymm_v5,2020.2.10,Win32,60,61025ae37ef11b136ea224fe,,,,,,,,,,,,,,,,,,,,,,,,,,,,,,,,,,,,,,,,,,,,,,
,,,,,,,,,,,,128,PF,78,-39,1,0,0,response3disk_5,5,2.7169,-28,12,1,0,0,rectangle_8,89,-50,1,0,0,-16,18,1,0,0,0,1,1,4,1,60fce1771681bdc5025b872e,61036f8066dec8e5896fc502,2021-07-29_23h19.48.420,Simcolourproject_2stim_asymm_v5,2020.2.10,Win32,60,61025ae37ef11b136ea224fe,response3disk_7,5,1.3503,6,"[2,5]",rectangle_4,,,,,,,,,,,,,,,,,,,,,,,,,,,,,,,,,,,,,,,,
,,,,,,,,,,,,97,FF,62,-60,1,0,0,response3disk_5,5,1.2502,14,-1,1,0,0,rectangle_8,14,-1,1,0,0,14,-1,1,0,0,0,2,2,3,1,60fce1771681bdc5025b872e,61036f8066dec8e5896fc502,2021-07-29_23h19.48.420,Simcolourproject_2stim_asymm_v5,2020.2.10,Win32,60,61025ae37ef11b136ea224fe,,,,,,,,,,,,,,,,,,,,,,,,,,,,,,,,,,,,,,,,,,,,,,
,,,,,,,,,,,,92,PF,75,-41,1,0,0,response3disk_5,5,0.8666,18,9,1,0,0,rectangle_8,18,9,1,0,0,18,9,1,0,0,0,3,3,2,1,60fce1771681bdc5025b872e,61036f8066dec8e5896fc502,2021-07-29_23h19.48.420,Simcolourproject_2stim_asymm_v5,2020.2.10,Win32,60,61025ae37ef11b136ea224fe,,,,,,,,,,,,,,,,,,,,,,,,,,,,,,,,,,,,,,,,,,,,,,
,,,,,,,,,,,,89,FF,31,-79,1,0,0,response3disk_5,4,1.25,-5,-3,1,0,0,rectangle_8,74,76,1,0,0,-10,5,1,0,0,0,4,4,5,1,60fce1771681bdc5025b872e,61036f8066dec8e5896fc502,2021-07-29_23h19.48.420,Simcolourproject_2stim_asymm_v5,2020.2.10,Win32,60,61025ae37ef11b136ea224fe,response1disk_7,7,3.45,6,"[2,5]",rectangle_4,,,,,,,,,,,,,,,,,,,,,,,,,,,,,,,,,,,,,,,,
,,,,,,,,,,,,14,PF,61,-36,1,0,0,response3disk_5,5,1.0832,18,-2,1,0,0,rectangle_8,18,-2,1,0,0,18,-2,1,0,0,0,5,5,1,1,60fce1771681bdc5025b872e,61036f8066dec8e5896fc502,2021-07-29_23h19.48.420,Simcolourproject_2stim_asymm_v5,2020.2.10,Win32,60,61025ae37ef11b136ea224fe,,,,,,,,,,,,,,,,,,,,,,,,,,,,,,,,,,,,,,,,,,,,,,
,,,,,,,,,,,,130,FF,-76,-58,1,0,0,response5disk_5,2,1.2166,25,6,1,0,0,rectangle_8,25,6,1,0,0,25,6,1,0,0,0,6,6,0,1,60fce1771681bdc5025b872e,61036f8066dec8e5896fc502,2021-07-29_23h19.48.420,Simcolourproject_2stim_asymm_v5,2020.2.10,Win32,60,61025ae37ef11b136ea224fe,,,,,,,,,,,,,,,,,,,,,,,,,,,,,,,,,,,,,,,,,,,,,,
,,,,,,,,,,,,,FF,,,,,,,,2.1153,,,,,,,,,,,,,,,,,,,,,,60fce1771681bdc5025b872e,61036f8066dec8e5896fc502,2021-07-29_23h19.48.420,Simcolourproject_2stim_asymm_v5,2020.2.10,Win32,60,61025ae37ef11b136ea224fe,,,,,,,space,2.4276,3036,-50,-74,1,0,0,response5disk,,3,9,2,1,0,0,rectangle,9,2,1,0,0,9,2,1,0,0,0,0,0,3,1,,,,,,,,
,,,,,,,,,,,,,FF,,,,,,,,0.9825,,,,,,,,,,,,,,,,,,,,,,60fce1771681bdc5025b872e,61036f8066dec8e5896fc502,2021-07-29_23h19.48.420,Simcolourproject_2stim_asymm_v5,2020.2.10,Win32,60,61025ae37ef11b136ea224fe,,,,,,,,,1540,-32,-64,1,0,0,response5disk,,3,-28,1,1,0,0,rectangle,-28,1,1,0,0,-28,1,1,0,0,0,1,1,24,1,,,,,,,,
,,,,,,,,,,,,,FF,,,,,,,,1.7008,,,,,,,,,,,,,,,,,,,,,,60fce1771681bdc5025b872e,61036f8066dec8e5896fc502,2021-07-29_23h19.48.420,Simcolourproject_2stim_asymm_v5,2020.2.10,Win32,60,61025ae37ef11b136ea224fe,,,,,,,,,3482,31,-84,1,0,0,response3disk,,4,-13,9,1,0,0,rectangle,-13,9,1,0,0,-13,9,1,0,0,0,2,2,12,1,,,,,,,,
,,,,,,,,,,,,,FF,,,,,,,,1.3168,,,,,,,,,,,,,,,,,,,,,,60fce1771681bdc5025b872e,61036f8066dec8e5896fc502,2021-07-29_23h19.48.420,Simcolourproject_2stim_asymm_v5,2020.2.10,Win32,60,61025ae37ef11b136ea224fe,,,,,,,,,3605,-78,-59,1,0,0,response5disk,,2,-1,8,1,0,0,rectangle,-1,8,1,0,0,-1,8,1,0,0,0,3,3,120,1,,,,,,,,
,,,,,,,,,,,,,FF,,,,,,,,1.1992,,,,,,,,,,,,,,,,,,,,,,60fce1771681bdc5025b872e,61036f8066dec8e5896fc502,2021-07-29_23h19.48.420,Simcolourproject_2stim_asymm_v5,2020.2.10,Win32,60,61025ae37ef11b136ea224fe,,,,,,,,,2258,94,-57,1,0,0,response3disk,,5,1,-4,1,0,0,rectangle,1,-4,1,0,0,1,-4,1,0,0,0,4,4,26,1,,,,,,,,
,,,,,,,,,,,,,FF,,,,,,,,0.7502,,,,,,,,,,,,,,,,,,,,,,60fce1771681bdc5025b872e,61036f8066dec8e5896fc502,2021-07-29_23h19.48.420,Simcolourproject_2stim_asymm_v5,2020.2.10,Win32,60,61025ae37ef11b136ea224fe,,,,,,,,,1303,-41,-53,1,0,0,response5disk,,3,-13,5,1,0,0,rectangle,-13,5,1,0,0,-13,5,1,0,0,0,5,5,0,1,,,,,,,,
,,,,,,,,,,,,,FF,,,,,,,,1.3492,,,,,,,,,,,,,,,,,,,,,,60fce1771681bdc5025b872e,61036f8066dec8e5896fc502,2021-07-29_23h19.48.420,Simcolourproject_2stim_asymm_v5,2020.2.10,Win32,60,61025ae37ef11b136ea224fe,,,,,,,,,461,-48,-64,1,0,0,response5disk,,3,-14,-1,1,0,0,rectangle,-14,-1,1,0,0,-14,-1,1,0,0,0,6,6,80,1,,,,,,,,
,,,,,,,,,,,,,FF,,,,,,,,1.4828,,,,,,,,,,,,,,,,,,,,,,60fce1771681bdc5025b872e,61036f8066dec8e5896fc502,2021-07-29_23h19.48.420,Simcolourproject_2stim_asymm_v5,2020.2.10,Win32,60,61025ae37ef11b136ea224fe,,,,,,,,,3338,79,42,1,0,0,response1disk,,6,-6,6,1,0,0,rectangle,-6,6,1,0,0,-6,6,1,0,0,0,7,7,7,1,,,,,,,,
,,,,,,,,,,,,,FF,,,,,,,,0.9827,,,,,,,,,,,,,,,,,,,,,,60fce1771681bdc5025b872e,61036f8066dec8e5896fc502,2021-07-29_23h19.48.420,Simcolourproject_2stim_asymm_v5,2020.2.10,Win32,60,61025ae37ef11b136ea224fe,,,,,,,,,1070,-88,-61,1,0,0,response5disk,,2,-28,5,1,0,0,rectangle,-28,5,1,0,0,-28,5,1,0,0,0,8,8,87,1,,,,,,,,
,,,,,,,,,,,,,FF,,,,,,,,1.3169,,,,,,,,,,,,,,,,,,,,,,60fce1771681bdc5025b872e,61036f8066dec8e5896fc502,2021-07-29_23h19.48.420,Simcolourproject_2stim_asymm_v5,2020.2.10,Win32,60,61025ae37ef11b136ea224fe,,,,,,,,,127,68,-38,1,0,0,response3disk,,5,18,21,1,0,0,rectangle,18,21,1,0,0,18,21,1,0,0,0,9,9,61,1,,,,,,,,
,,,,,,,,,,,,,FF,,,,,,,,1.0832,,,,,,,,,,,,,,,,,,,,,,60fce1771681bdc5025b872e,61036f8066dec8e5896fc502,2021-07-29_23h19.48.420,Simcolourproject_2stim_asymm_v5,2020.2.10,Win32,60,61025ae37ef11b136ea224fe,,,,,,,,,4124,41,-99,1,0,0,response3disk,,4,37,1,1,0,0,rectangle,37,1,1,0,0,37,1,1,0,0,0,10,10,14,1,,,,,,,,
,,,,,,,,,,,,,FF,,,,,,,,1.0833,,,,,,,,,,,,,,,,,,,,,,60fce1771681bdc5025b872e,61036f8066dec8e5896fc502,2021-07-29_23h19.48.420,Simcolourproject_2stim_asymm_v5,2020.2.10,Win32,60,61025ae37ef11b136ea224fe,,,,,,,,,3526,79,-66,1,0,0,response3disk,,5,5,12,1,0,0,rectangle,5,12,1,0,0,5,12,1,0,0,0,11,11,5,1,,,,,,,,
,,,,,,,,,,,,,FF,,,,,,,,0.8827,,,,,,,,,,,,,,,,,,,,,,60fce1771681bdc5025b872e,61036f8066dec8e5896fc502,2021-07-29_23h19.48.420,Simcolourproject_2stim_asymm_v5,2020.2.10,Win32,60,61025ae37ef11b136ea224fe,,,,,,,,,1327,72,-30,1,0,0,response3disk,,5,2,2,1,0,0,rectangle,2,2,1,0,0,2,2,1,0,0,0,12,12,44,1,,,,,,,,
,,,,,,,,,,,,,FF,,,,,,,,1.1668,,,,,,,,,,,,,,,,,,,,,,60fce1771681bdc5025b872e,61036f8066dec8e5896fc502,2021-07-29_23h19.48.420,Simcolourproject_2stim_asymm_v5,2020.2.10,Win32,60,61025ae37ef11b136ea224fe,,,,,,,,,3430,60,-74,1,0,0,response3disk,,4,12,-7,1,0,0,rectangle,12,-7,1,0,0,12,-7,1,0,0,0,13,13,133,1,,,,,,,,
,,,,,,,,,,,,,FF,,,,,,,,1.1648,,,,,,,,,,,,,,,,,,,,,,60fce1771681bdc5025b872e,61036f8066dec8e5896fc502,2021-07-29_23h19.48.420,Simcolourproject_2stim_asymm_v5,2020.2.10,Win32,60,61025ae37ef11b136ea224fe,,,,,,,,,1336,108,56,1,0,0,response1disk,,6,9,6,1,0,0,rectangle,9,6,1,0,0,9,6,1,0,0,0,14,14,142,1,,,,,,,,
,,,,,,,,,,,,,FF,,,,,,,,0.5995,,,,,,,,,,,,,,,,,,,,,,60fce1771681bdc5025b872e,61036f8066dec8e5896fc502,2021-07-29_23h19.48.420,Simcolourproject_2stim_asymm_v5,2020.2.10,Win32,60,61025ae37ef11b136ea224fe,,,,,,,,,2543,-54,-65,1,0,0,response5disk,,3,-17,1,1,0,0,rectangle,-17,1,1,0,0,-17,1,1,0,0,0,15,15,139,1,,,,,,,,
,,,,,,,,,,,,,FF,,,,,,,,1.1828,,,,,,,,,,,,,,,,,,,,,,60fce1771681bdc5025b872e,61036f8066dec8e5896fc502,2021-07-29_23h19.48.420,Simcolourproject_2stim_asymm_v5,2020.2.10,Win32,60,61025ae37ef11b136ea224fe,,,,,,,,,1505,47,85,1,0,0,response1disk,,7,24,4,1,0,0,rectangle,24,4,1,0,0,24,4,1,0,0,0,16,16,132,1,,,,,,,,
,,,,,,,,,,,,,FF,,,,,,,,1.0174,,,,,,,,,,,,,,,,,,,,,,60fce1771681bdc5025b872e,61036f8066dec8e5896fc502,2021-07-29_23h19.48.420,Simcolourproject_2stim_asymm_v5,2020.2.10,Win32,60,61025ae37ef11b136ea224fe,,,,,,,,,2916,60,87,1,0,0,response1disk,,7,25,-4,1,0,0,rectangle,25,-4,1,0,0,25,-4,1,0,0,0,17,17,103,1,,,,,,,,
,,,,,,,,,,,,,FF,,,,,,,,3.6661,,,,,,,,,,,,,,,,,,,,,,60fce1771681bdc5025b872e,61036f8066dec8e5896fc502,2021-07-29_23h19.48.420,Simcolourproject_2stim_asymm_v5,2020.2.10,Win32,60,61025ae37ef11b136ea224fe,,,,,,,,,4330,97,-45,1,0,0,response3disk,,5,11,11,1,0,0,rectangle,11,11,1,0,0,11,11,1,0,0,0,18,18,131,1,,,,,,,,
,,,,,,,,,,,,,FF,,,,,,,,1.0841,,,,,,,,,,,,,,,,,,,,,,60fce1771681bdc5025b872e,61036f8066dec8e5896fc502,2021-07-29_23h19.48.420,Simcolourproject_2stim_asymm_v5,2020.2.10,Win32,60,61025ae37ef11b136ea224fe,,,,,,,,,365,61,102,1,0,0,response1disk,,7,18,-5,1,0,0,rectangle,18,-5,1,0,0,18,-5,1,0,0,0,19,19,84,1,,,,,,,,
,,,,,,,,,,,,,FF,,,,,,,,2.1006,,,,,,,,,,,,,,,,,,,,,,60fce1771681bdc5025b872e,61036f8066dec8e5896fc502,2021-07-29_23h19.48.420,Simcolourproject_2stim_asymm_v5,2020.2.10,Win32,60,61025ae37ef11b136ea224fe,,,,,,,,,699,110,-41,1,0,0,response3disk,,5,31,8,1,0,0,rectangle,31,8,1,0,0,31,8,1,0,0,0,20,20,46,1,,,,,,,,
,,,,,,,,,,,,,FF,,,,,,,,0.8832,,,,,,,,,,,,,,,,,,,,,,60fce1771681bdc5025b872e,61036f8066dec8e5896fc502,2021-07-29_23h19.48.420,Simcolourproject_2stim_asymm_v5,2020.2.10,Win32,60,61025ae37ef11b136ea224fe,,,,,,,,,4336,-89,-72,1,0,0,response5disk,,2,-14,9,1,0,0,rectangle,-14,9,1,0,0,-14,9,1,0,0,0,21,21,96,1,,,,,,,,
,,,,,,,,,,,,,FF,,,,,,,,0.7334,,,,,,,,,,,,,,,,,,,,,,60fce1771681bdc5025b872e,61036f8066dec8e5896fc502,2021-07-29_23h19.48.420,Simcolourproject_2stim_asymm_v5,2020.2.10,Win32,60,61025ae37ef11b136ea224fe,,,,,,,,,1291,-123,-62,1,0,0,response5disk,,2,-19,6,1,0,0,rectangle,-69,91,1,0,0,-9,3,1,0,0,0,22,22,149,1,,response7disk_3,TRUE,0,0,"[137,23,36,152,306,97,214,310,137,207,157,60,273,76,113,242,126,169,184,221]",3.2157,rectangle
,,,,,,,,,,,,,FF,,,,,,,,0.7826,,,,,,,,,,,,,,,,,,,,,,60fce1771681bdc5025b872e,61036f8066dec8e5896fc502,2021-07-29_23h19.48.420,Simcolourproject_2stim_asymm_v5,2020.2.10,Win32,60,61025ae37ef11b136ea224fe,,,,,,,,,305,-55,-85,1,0,0,response5disk,,3,-9,-2,1,0,0,rectangle,-9,-2,1,0,0,-9,-2,1,0,0,0,23,23,47,1,,,,,,,,
,,,,,,,,,,,,,FF,,,,,,,,1.3666,,,,,,,,,,,,,,,,,,,,,,60fce1771681bdc5025b872e,61036f8066dec8e5896fc502,2021-07-29_23h19.48.420,Simcolourproject_2stim_asymm_v5,2020.2.10,Win32,60,61025ae37ef11b136ea224fe,,,,,,,,,2898,-48,-66,1,0,0,response5disk,,3,-6,10,1,0,0,rectangle,-6,10,1,0,0,-6,10,1,0,0,0,24,24,31,1,,,,,,,,
,,,,,,,,,,,,,FF,,,,,,,,1.05,,,,,,,,,,,,,,,,,,,,,,60fce1771681bdc5025b872e,61036f8066dec8e5896fc502,2021-07-29_23h19.48.420,Simcolourproject_2stim_asymm_v5,2020.2.10,Win32,60,61025ae37ef11b136ea224fe,,,,,,,,,1015,91,-48,1,0,0,response3disk,,5,-6,10,1,0,0,rectangle,-6,10,1,0,0,-6,10,1,0,0,0,25,25,105,1,,,,,,,,
,,,,,,,,,,,,,FF,,,,,,,,2.0667,,,,,,,,,,,,,,,,,,,,,,60fce1771681bdc5025b872e,61036f8066dec8e5896fc502,2021-07-29_23h19.48.420,Simcolourproject_2stim_asymm_v5,2020.2.10,Win32,60,61025ae37ef11b136ea224fe,,,,,,,,,2415,83,-37,1,0,0,response3disk,,5,30,9,1,0,0,rectangle,30,9,1,0,0,30,9,1,0,0,0,26,26,36,1,,,,,,,,
,,,,,,,,,,,,,FF,,,,,,,,0.966,,,,,,,,,,,,,,,,,,,,,,60fce1771681bdc5025b872e,61036f8066dec8e5896fc502,2021-07-29_23h19.48.420,Simcolourproject_2stim_asymm_v5,2020.2.10,Win32,60,61025ae37ef11b136ea224fe,,,,,,,,,3599,-107,-55,1,0,0,response5disk,,2,-3,15,1,0,0,rectangle,-3,15,1,0,0,-3,15,1,0,0,0,27,27,104,1,,,,,,,,
,,,,,,,,,,,,,FF,,,,,,,,1.3165,,,,,,,,,,,,,,,,,,,,,,60fce1771681bdc5025b872e,61036f8066dec8e5896fc502,2021-07-29_23h19.48.420,Simcolourproject_2stim_asymm_v5,2020.2.10,Win32,60,61025ae37ef11b136ea224fe,,,,,,,,,3656,49,-31,1,0,0,response3disk,,5,21,-9,1,0,0,rectangle,21,-9,1,0,0,21,-9,1,0,0,0,28,28,21,1,,,,,,,,
,,,,,,,,,,,,,FF,,,,,,,,0.7168,,,,,,,,,,,,,,,,,,,,,,60fce1771681bdc5025b872e,61036f8066dec8e5896fc502,2021-07-29_23h19.48.420,Simcolourproject_2stim_asymm_v5,2020.2.10,Win32,60,61025ae37ef11b136ea224fe,,,,,,,,,791,-43,-58,1,0,0,response5disk,,3,-23,11,1,0,0,rectangle,-23,11,1,0,0,-23,11,1,0,0,0,29,29,159,1,,,,,,,,
,,,,,,,,,,,,,FF,,,,,,,,0.75,,,,,,,,,,,,,,,,,,,,,,60fce1771681bdc5025b872e,61036f8066dec8e5896fc502,2021-07-29_23h19.48.420,Simcolourproject_2stim_asymm_v5,2020.2.10,Win32,60,61025ae37ef11b136ea224fe,,,,,,,,,3023,123,-23,1,0,0,response3disk,,5,36,-3,1,0,0,rectangle,36,-3,1,0,0,36,-3,1,0,0,0,30,30,108,1,,,,,,,,
,,,,,,,,,,,,,FF,,,,,,,,0.7667,,,,,,,,,,,,,,,,,,,,,,60fce1771681bdc5025b872e,61036f8066dec8e5896fc502,2021-07-29_23h19.48.420,Simcolourproject_2stim_asymm_v5,2020.2.10,Win32,60,61025ae37ef11b136ea224fe,,,,,,,,,1711,43,-67,1,0,0,response3disk,,4,31,-2,1,0,0,rectangle,31,-2,1,0,0,31,-2,1,0,0,0,31,31,128,1,,,,,,,,
,,,,,,,,,,,,,FF,,,,,,,,0.6334,,,,,,,,,,,,,,,,,,,,,,60fce1771681bdc5025b872e,61036f8066dec8e5896fc502,2021-07-29_23h19.48.420,Simcolourproject_2stim_asymm_v5,2020.2.10,Win32,60,61025ae37ef11b136ea224fe,,,,,,,,,2033,-101,-46,1,0,0,response5disk,,2,-29,3,1,0,0,rectangle,-29,3,1,0,0,-29,3,1,0,0,0,32,32,94,1,,,,,,,,
,,,,,,,,,,,,,FF,,,,,,,,1.7168,,,,,,,,,,,,,,,,,,,,,,60fce1771681bdc5025b872e,61036f8066dec8e5896fc502,2021-07-29_23h19.48.420,Simcolourproject_2stim_asymm_v5,2020.2.10,Win32,60,61025ae37ef11b136ea224fe,,,,,,,,,2771,-41,-62,1,0,0,response5disk,,3,-13,4,1,0,0,rectangle,-13,4,1,0,0,-13,4,1,0,0,0,33,33,63,1,,,,,,,,
,,,,,,,,,,,,,FF,,,,,,,,0.6664,,,,,,,,,,,,,,,,,,,,,,60fce1771681bdc5025b872e,61036f8066dec8e5896fc502,2021-07-29_23h19.48.420,Simcolourproject_2stim_asymm_v5,2020.2.10,Win32,60,61025ae37ef11b136ea224fe,,,,,,,,,301,41,-35,1,0,0,response3disk,,5,31,-6,1,0,0,rectangle,31,-6,1,0,0,31,-6,1,0,0,0,34,34,40,1,,,,,,,,
,,,,,,,,,,,,,FF,,,,,,,,0.9162,,,,,,,,,,,,,,,,,,,,,,60fce1771681bdc5025b872e,61036f8066dec8e5896fc502,2021-07-29_23h19.48.420,Simcolourproject_2stim_asymm_v5,2020.2.10,Win32,60,61025ae37ef11b136ea224fe,,,,,,,,,328,22,90,1,0,0,response1disk,,7,36,1,1,0,0,rectangle,95,37,1,0,0,18,8,1,0,0,0,35,35,20,1,,response1disk_3,TRUE,6,6,"[137,23,36,152,306,97,214,310,137,207,157,60,273,76,113,242,126,169,184,221]",1.6832,rectangle
,,,,,,,,,,,,,FF,,,,,,,,1.3001,,,,,,,,,,,,,,,,,,,,,,60fce1771681bdc5025b872e,61036f8066dec8e5896fc502,2021-07-29_23h19.48.420,Simcolourproject_2stim_asymm_v5,2020.2.10,Win32,60,61025ae37ef11b136ea224fe,,,,,,,,,3273,69,-57,1,0,0,response3disk,,5,-5,-4,1,0,0,rectangle,-5,-4,1,0,0,-5,-4,1,0,0,0,36,36,146,1,,,,,,,,
,,,,,,,,,,,,,FF,,,,,,,,1.1166,,,,,,,,,,,,,,,,,,,,,,60fce1771681bdc5025b872e,61036f8066dec8e5896fc502,2021-07-29_23h19.48.420,Simcolourproject_2stim_asymm_v5,2020.2.10,Win32,60,61025ae37ef11b136ea224fe,,,,,,,,,1602,-88,46,1,0,0,response7disk,,1,-11,6,1,0,0,rectangle,-11,6,1,0,0,-11,6,1,0,0,0,37,37,11,1,,,,,,,,
,,,,,,,,,,,,,FF,,,,,,,,1.45,,,,,,,,,,,,,,,,,,,,,,60fce1771681bdc5025b872e,61036f8066dec8e5896fc502,2021-07-29_23h19.48.420,Simcolourproject_2stim_asymm_v5,2020.2.10,Win32,60,61025ae37ef11b136ea224fe,,,,,,,,,419,38,-65,1,0,0,response3disk,,4,8,-1,1,0,0,rectangle,8,-1,1,0,0,8,-1,1,0,0,0,38,38,107,1,,,,,,,,
,,,,,,,,,,,,,FF,,,,,,,,0.9493,,,,,,,,,,,,,,,,,,,,,,60fce1771681bdc5025b872e,61036f8066dec8e5896fc502,2021-07-29_23h19.48.420,Simcolourproject_2stim_asymm_v5,2020.2.10,Win32,60,61025ae37ef11b136ea224fe,,,,,,,,,349,-82,-90,1,0,0,response5disk,,3,-16,0,1,0,0,rectangle,-16,0,1,0,0,-16,0,1,0,0,0,39,39,119,1,,,,,,,,
,,,,,,,,,,,,,FF,,,,,,,,0.9,,,,,,,,,,,,,,,,,,,,,,60fce1771681bdc5025b872e,61036f8066dec8e5896fc502,2021-07-29_23h19.48.420,Simcolourproject_2stim_asymm_v5,2020.2.10,Win32,60,61025ae37ef11b136ea224fe,,,,,,,,,3836,60,-43,1,0,0,response3disk,,5,-1,5,1,0,0,rectangle,-1,5,1,0,0,-1,5,1,0,0,0,40,40,152,1,,,,,,,,
,,,,,,,,,,,,,FF,,,,,,,,2.0168,,,,,,,,,,,,,,,,,,,,,,60fce1771681bdc5025b872e,61036f8066dec8e5896fc502,2021-07-29_23h19.48.420,Simcolourproject_2stim_asymm_v5,2020.2.10,Win32,60,61025ae37ef11b136ea224fe,,,,,,,,,4001,-88,50,1,0,0,response7disk,,1,-28,-7,1,0,0,rectangle,-28,-7,1,0,0,-28,-7,1,0,0,0,41,41,110,1,,,,,,,,
,,,,,,,,,,,,,FF,,,,,,,,1.1337,,,,,,,,,,,,,,,,,,,,,,60fce1771681bdc5025b872e,61036f8066dec8e5896fc502,2021-07-29_23h19.48.420,Simcolourproject_2stim_asymm_v5,2020.2.10,Win32,60,61025ae37ef11b136ea224fe,,,,,,,,,1485,58,-50,1,0,0,response3disk,,5,30,3,1,0,0,rectangle,30,3,1,0,0,30,3,1,0,0,0,42,42,102,1,,,,,,,,
,,,,,,,,,,,,,FF,,,,,,,,1.1001,,,,,,,,,,,,,,,,,,,,,,60fce1771681bdc5025b872e,61036f8066dec8e5896fc502,2021-07-29_23h19.48.420,Simcolourproject_2stim_asymm_v5,2020.2.10,Win32,60,61025ae37ef11b136ea224fe,,,,,,,,,2836,-70,-89,1,0,0,response5disk,,3,-28,5,1,0,0,rectangle,-28,5,1,0,0,-28,5,1,0,0,0,43,43,95,1,,,,,,,,
,,,,,,,,,,,,,FF,,,,,,,,0.8833,,,,,,,,,,,,,,,,,,,,,,60fce1771681bdc5025b872e,61036f8066dec8e5896fc502,2021-07-29_23h19.48.420,Simcolourproject_2stim_asymm_v5,2020.2.10,Win32,60,61025ae37ef11b136ea224fe,,,,,,,,,3781,-80,35,1,0,0,response7disk,,1,-5,-2,1,0,0,rectangle,-5,-2,1,0,0,-5,-2,1,0,0,0,44,44,58,1,,,,,,,,
,,,,,,,,,,,,,FF,,,,,,,,0.8667,,,,,,,,,,,,,,,,,,,,,,60fce1771681bdc5025b872e,61036f8066dec8e5896fc502,2021-07-29_23h19.48.420,Simcolourproject_2stim_asymm_v5,2020.2.10,Win32,60,61025ae37ef11b136ea224fe,,,,,,,,,1266,47,58,1,0,0,response1disk,,7,32,-8,1,0,0,rectangle,32,-8,1,0,0,32,-8,1,0,0,0,45,45,69,1,,,,,,,,
,,,,,,,,,,,,,FF,,,,,,,,0.8333,,,,,,,,,,,,,,,,,,,,,,60fce1771681bdc5025b872e,61036f8066dec8e5896fc502,2021-07-29_23h19.48.420,Simcolourproject_2stim_asymm_v5,2020.2.10,Win32,60,61025ae37ef11b136ea224fe,,,,,,,,,3393,-64,-85,1,0,0,response5disk,,3,-29,3,1,0,0,rectangle,-29,3,1,0,0,-29,3,1,0,0,0,46,46,85,1,,,,,,,,
,,,,,,,,,,,,,FF,,,,,,,,1.1328,,,,,,,,,,,,,,,,,,,,,,60fce1771681bdc5025b872e,61036f8066dec8e5896fc502,2021-07-29_23h19.48.420,Simcolourproject_2stim_asymm_v5,2020.2.10,Win32,60,61025ae37ef11b136ea224fe,,,,,,,,,833,-81,-44,1,0,0,response5disk,,2,-16,19,1,0,0,rectangle,-16,19,1,0,0,-16,19,1,0,0,0,47,47,4,1,,,,,,,,
,,,,,,,,,,,,,FF,,,,,,,,0.6492,,,,,,,,,,,,,,,,,,,,,,60fce1771681bdc5025b872e,61036f8066dec8e5896fc502,2021-07-29_23h19.48.420,Simcolourproject_2stim_asymm_v5,2020.2.10,Win32,60,61025ae37ef11b136ea224fe,,,,,,,,,3585,-97,61,1,0,0,response7disk,,1,-40,5,1,0,0,rectangle,-40,5,1,0,0,-40,5,1,0,0,0,48,48,93,1,,,,,,,,
,,,,,,,,,,,,,FF,,,,,,,,0.6669,,,,,,,,,,,,,,,,,,,,,,60fce1771681bdc5025b872e,61036f8066dec8e5896fc502,2021-07-29_23h19.48.420,Simcolourproject_2stim_asymm_v5,2020.2.10,Win32,60,61025ae37ef11b136ea224fe,,,,,,,,,3169,-46,-65,1,0,0,response5disk,,3,-24,-3,1,0,0,rectangle,-24,-3,1,0,0,-24,-3,1,0,0,0,49,49,42,1,,,,,,,,
,,,,,,,,,,,,,FF,,,,,,,,1.1165,,,,,,,,,,,,,,,,,,,,,,60fce1771681bdc5025b872e,61036f8066dec8e5896fc502,2021-07-29_23h19.48.420,Simcolourproject_2stim_asymm_v5,2020.2.10,Win32,60,61025ae37ef11b136ea224fe,,,,,,,,,1785,58,-68,1,0,0,response3disk,,4,6,4,1,0,0,rectangle,6,4,1,0,0,6,4,1,0,0,0,50,50,76,1,,,,,,,,
,,,,,,,,,,,,,FF,,,,,,,,1.3661,,,,,,,,,,,,,,,,,,,,,,60fce1771681bdc5025b872e,61036f8066dec8e5896fc502,2021-07-29_23h19.48.420,Simcolourproject_2stim_asymm_v5,2020.2.10,Win32,60,61025ae37ef11b136ea224fe,,,,,,,,,2852,33,92,1,0,0,response1disk,,7,38,5,1,0,0,rectangle,38,5,1,0,0,38,5,1,0,0,0,51,51,140,1,,,,,,,,
,,,,,,,,,,,,,FF,,,,,,,,0.8668,,,,,,,,,,,,,,,,,,,,,,60fce1771681bdc5025b872e,61036f8066dec8e5896fc502,2021-07-29_23h19.48.420,Simcolourproject_2stim_asymm_v5,2020.2.10,Win32,60,61025ae37ef11b136ea224fe,,,,,,,,,1320,83,50,1,0,0,response1disk,,6,7,-7,1,0,0,rectangle,7,-7,1,0,0,7,-7,1,0,0,0,52,52,125,1,,,,,,,,
,,,,,,,,,,,,,FF,,,,,,,,1.1662,,,,,,,,,,,,,,,,,,,,,,60fce1771681bdc5025b872e,61036f8066dec8e5896fc502,2021-07-29_23h19.48.420,Simcolourproject_2stim_asymm_v5,2020.2.10,Win32,60,61025ae37ef11b136ea224fe,,,,,,,,,3523,-60,-99,1,0,0,response5disk,,3,-32,0,1,0,0,rectangle,-32,0,1,0,0,-32,0,1,0,0,0,53,53,154,1,,,,,,,,
,,,,,,,,,,,,,FF,,,,,,,,0.9832,,,,,,,,,,,,,,,,,,,,,,60fce1771681bdc5025b872e,61036f8066dec8e5896fc502,2021-07-29_23h19.48.420,Simcolourproject_2stim_asymm_v5,2020.2.10,Win32,60,61025ae37ef11b136ea224fe,,,,,,,,,2334,68,-97,1,0,0,response3disk,,4,20,0,1,0,0,rectangle,20,0,1,0,0,20,0,1,0,0,0,54,54,41,1,,,,,,,,
,,,,,,,,,,,,,FF,,,,,,,,1.0998,,,,,,,,,,,,,,,,,,,,,,60fce1771681bdc5025b872e,61036f8066dec8e5896fc502,2021-07-29_23h19.48.420,Simcolourproject_2stim_asymm_v5,2020.2.10,Win32,60,61025ae37ef11b136ea224fe,,,,,,,,,290,84,-68,1,0,0,response3disk,,5,25,-8,1,0,0,rectangle,25,-8,1,0,0,25,-8,1,0,0,0,55,55,52,1,,,,,,,,
,,,,,,,,,,,,,FF,,,,,,,,0.8495,,,,,,,,,,,,,,,,,,,,,,60fce1771681bdc5025b872e,61036f8066dec8e5896fc502,2021-07-29_23h19.48.420,Simcolourproject_2stim_asymm_v5,2020.2.10,Win32,60,61025ae37ef11b136ea224fe,,,,,,,,,4315,36,95,1,0,0,response1disk,,7,29,2,1,0,0,rectangle,29,2,1,0,0,29,2,1,0,0,0,56,56,129,1,,,,,,,,
,,,,,,,,,,,,,FF,,,,,,,,1.8501,,,,,,,,,,,,,,,,,,,,,,60fce1771681bdc5025b872e,61036f8066dec8e5896fc502,2021-07-29_23h19.48.420,Simcolourproject_2stim_asymm_v5,2020.2.10,Win32,60,61025ae37ef11b136ea224fe,,,,,,,,,2113,32,-84,1,0,0,response3disk,,4,-5,0,1,0,0,rectangle,-5,0,1,0,0,-5,0,1,0,0,0,57,57,117,1,,,,,,,,
,,,,,,,,,,,,,FF,,,,,,,,0.9167,,,,,,,,,,,,,,,,,,,,,,60fce1771681bdc5025b872e,61036f8066dec8e5896fc502,2021-07-29_23h19.48.420,Simcolourproject_2stim_asymm_v5,2020.2.10,Win32,60,61025ae37ef11b136ea224fe,,,,,,,,,4289,40,74,1,0,0,response1disk,,7,38,3,1,0,0,rectangle,38,3,1,0,0,38,3,1,0,0,0,58,58,59,1,,,,,,,,
,,,,,,,,,,,,,FF,,,,,,,,2.9333,,,,,,,,,,,,,,,,,,,,,,60fce1771681bdc5025b872e,61036f8066dec8e5896fc502,2021-07-29_23h19.48.420,Simcolourproject_2stim_asymm_v5,2020.2.10,Win32,60,61025ae37ef11b136ea224fe,,,,,,,,,998,59,-81,1,0,0,response3disk,,4,-11,5,1,0,0,rectangle,57,49,1,0,0,34,6,1,0,0,0,59,59,145,1,,response1disk_3,TRUE,6,6,"[137,23,36,152,306,97,214,310,137,207,157,60,273,76,113,242,126,169,184,221]",1.1491,rectangle
,,,,,,,,,,,,,FF,,,,,,,,5.3501,,,,,,,,,,,,,,,,,,,,,,60fce1771681bdc5025b872e,61036f8066dec8e5896fc502,2021-07-29_23h19.48.420,Simcolourproject_2stim_asymm_v5,2020.2.10,Win32,60,61025ae37ef11b136ea224fe,,,,,,,,,581,27,-92,1,0,0,response3disk,,4,-3,18,1,0,0,rectangle,-3,18,1,0,0,-3,18,1,0,0,0,60,60,113,1,,,,,,,,
,,,,,,,,,,,,,FF,,,,,,,,0.9665,,,,,,,,,,,,,,,,,,,,,,60fce1771681bdc5025b872e,61036f8066dec8e5896fc502,2021-07-29_23h19.48.420,Simcolourproject_2stim_asymm_v5,2020.2.10,Win32,60,61025ae37ef11b136ea224fe,,,,,,,,,2884,26,64,1,0,0,response1disk,,7,26,-8,1,0,0,rectangle,26,-8,1,0,0,26,-8,1,0,0,0,61,61,37,1,,,,,,,,
,,,,,,,,,,,,,FF,,,,,,,,0.7501,,,,,,,,,,,,,,,,,,,,,,60fce1771681bdc5025b872e,61036f8066dec8e5896fc502,2021-07-29_23h19.48.420,Simcolourproject_2stim_asymm_v5,2020.2.10,Win32,60,61025ae37ef11b136ea224fe,,,,,,,,,1143,-42,-84,1,0,0,response5disk,,3,3,13,1,0,0,rectangle,3,13,1,0,0,3,13,1,0,0,0,62,62,33,1,,,,,,,,
,,,,,,,,,,,,,FF,,,,,,,,0.8662,,,,,,,,,,,,,,,,,,,,,,60fce1771681bdc5025b872e,61036f8066dec8e5896fc502,2021-07-29_23h19.48.420,Simcolourproject_2stim_asymm_v5,2020.2.10,Win32,60,61025ae37ef11b136ea224fe,,,,,,,,,1454,-109,47,1,0,0,response7disk,,1,-7,9,1,0,0,rectangle,-7,9,1,0,0,-7,9,1,0,0,0,63,63,118,1,,,,,,,,
,,,,,,,,,,,,,FF,,,,,,,,0.7328,,,,,,,,,,,,,,,,,,,,,,60fce1771681bdc5025b872e,61036f8066dec8e5896fc502,2021-07-29_23h19.48.420,Simcolourproject_2stim_asymm_v5,2020.2.10,Win32,60,61025ae37ef11b136ea224fe,,,,,,,,,3398,-122,-43,1,0,0,response5disk,,2,-27,18,1,0,0,rectangle,-27,18,1,0,0,-27,18,1,0,0,0,64,64,121,1,,,,,,,,
,,,,,,,,,,,,,FF,,,,,,,,0.7667,,,,,,,,,,,,,,,,,,,,,,60fce1771681bdc5025b872e,61036f8066dec8e5896fc502,2021-07-29_23h19.48.420,Simcolourproject_2stim_asymm_v5,2020.2.10,Win32,60,61025ae37ef11b136ea224fe,,,,,,,,,1520,26,81,1,0,0,response1disk,,7,28,12,1,0,0,rectangle,28,12,1,0,0,28,12,1,0,0,0,65,65,1,1,,,,,,,,
,,,,,,,,,,,,,FF,,,,,,,,0.7166,,,,,,,,,,,,,,,,,,,,,,60fce1771681bdc5025b872e,61036f8066dec8e5896fc502,2021-07-29_23h19.48.420,Simcolourproject_2stim_asymm_v5,2020.2.10,Win32,60,61025ae37ef11b136ea224fe,,,,,,,,,343,-36,-61,1,0,0,response5disk,,3,-15,5,1,0,0,rectangle,-15,5,1,0,0,-15,5,1,0,0,0,66,66,6,1,,,,,,,,
,,,,,,,,,,,,,FF,,,,,,,,1.067,,,,,,,,,,,,,,,,,,,,,,60fce1771681bdc5025b872e,61036f8066dec8e5896fc502,2021-07-29_23h19.48.420,Simcolourproject_2stim_asymm_v5,2020.2.10,Win32,60,61025ae37ef11b136ea224fe,,,,,,,,,907,-89,-47,1,0,0,response5disk,,2,5,12,1,0,0,rectangle,5,12,1,0,0,5,12,1,0,0,0,67,67,48,1,,,,,,,,
,,,,,,,,,,,,,FF,,,,,,,,1.05,,,,,,,,,,,,,,,,,,,,,,60fce1771681bdc5025b872e,61036f8066dec8e5896fc502,2021-07-29_23h19.48.420,Simcolourproject_2stim_asymm_v5,2020.2.10,Win32,60,61025ae37ef11b136ea224fe,,,,,,,,,697,90,-50,1,0,0,response3disk,,5,26,-12,1,0,0,rectangle,26,-12,1,0,0,26,-12,1,0,0,0,68,68,77,1,,,,,,,,
,,,,,,,,,,,,,FF,,,,,,,,0.9333,,,,,,,,,,,,,,,,,,,,,,60fce1771681bdc5025b872e,61036f8066dec8e5896fc502,2021-07-29_23h19.48.420,Simcolourproject_2stim_asymm_v5,2020.2.10,Win32,60,61025ae37ef11b136ea224fe,,,,,,,,,2751,38,72,1,0,0,response1disk,,7,36,5,1,0,0,rectangle,36,5,1,0,0,36,5,1,0,0,0,69,69,155,1,,,,,,,,
,,,,,,,,,,,,,FF,,,,,,,,0.8,,,,,,,,,,,,,,,,,,,,,,60fce1771681bdc5025b872e,61036f8066dec8e5896fc502,2021-07-29_23h19.48.420,Simcolourproject_2stim_asymm_v5,2020.2.10,Win32,60,61025ae37ef11b136ea224fe,,,,,,,,,2164,-82,-54,1,0,0,response5disk,,2,-26,9,1,0,0,rectangle,-26,9,1,0,0,-26,9,1,0,0,0,70,70,67,1,,,,,,,,
,,,,,,,,,,,,,FF,,,,,,,,1.8,,,,,,,,,,,,,,,,,,,,,,60fce1771681bdc5025b872e,61036f8066dec8e5896fc502,2021-07-29_23h19.48.420,Simcolourproject_2stim_asymm_v5,2020.2.10,Win32,60,61025ae37ef11b136ea224fe,,,,,,,,,3877,87,-55,1,0,0,response3disk,,5,29,2,1,0,0,rectangle,29,2,1,0,0,29,2,1,0,0,0,71,71,135,1,,,,,,,,
,,,,,,,,,,,,,FF,,,,,,,,0.7168,,,,,,,,,,,,,,,,,,,,,,60fce1771681bdc5025b872e,61036f8066dec8e5896fc502,2021-07-29_23h19.48.420,Simcolourproject_2stim_asymm_v5,2020.2.10,Win32,60,61025ae37ef11b136ea224fe,,,,,,,,,1712,34,67,1,0,0,response1disk,,7,43,-2,1,0,0,rectangle,43,-2,1,0,0,43,-2,1,0,0,0,72,72,109,1,,,,,,,,
,,,,,,,,,,,,,FF,,,,,,,,0.7833,,,,,,,,,,,,,,,,,,,,,,60fce1771681bdc5025b872e,61036f8066dec8e5896fc502,2021-07-29_23h19.48.420,Simcolourproject_2stim_asymm_v5,2020.2.10,Win32,60,61025ae37ef11b136ea224fe,,,,,,,,,881,56,75,1,0,0,response1disk,,7,23,-1,1,0,0,rectangle,23,-1,1,0,0,23,-1,1,0,0,0,73,73,60,1,,,,,,,,
,,,,,,,,,,,,,FF,,,,,,,,1.3166,,,,,,,,,,,,,,,,,,,,,,60fce1771681bdc5025b872e,61036f8066dec8e5896fc502,2021-07-29_23h19.48.420,Simcolourproject_2stim_asymm_v5,2020.2.10,Win32,60,61025ae37ef11b136ea224fe,,,,,,,,,1476,70,-31,1,0,0,response3disk,,5,8,7,1,0,0,rectangle,8,7,1,0,0,8,7,1,0,0,0,74,74,126,1,,,,,,,,
,,,,,,,,,,,,,FF,,,,,,,,1.3166,,,,,,,,,,,,,,,,,,,,,,60fce1771681bdc5025b872e,61036f8066dec8e5896fc502,2021-07-29_23h19.48.420,Simcolourproject_2stim_asymm_v5,2020.2.10,Win32,60,61025ae37ef11b136ea224fe,,,,,,,,,1305,-94,-49,1,0,0,response5disk,,2,-39,-1,1,0,0,rectangle,52,92,1,0,0,33,-10,1,0,0,0,75,75,91,1,,response1disk_3,TRUE,7,7,"[137,23,36,152,306,97,214,310,137,207,157,60,273,76,113,242,126,169,184,221]",1.3,rectangle
,,,,,,,,,,,,,FF,,,,,,,,0.6668,,,,,,,,,,,,,,,,,,,,,,60fce1771681bdc5025b872e,61036f8066dec8e5896fc502,2021-07-29_23h19.48.420,Simcolourproject_2stim_asymm_v5,2020.2.10,Win32,60,61025ae37ef11b136ea224fe,,,,,,,,,2890,-107,-53,1,0,0,response5disk,,2,5,3,1,0,0,rectangle,5,3,1,0,0,5,3,1,0,0,0,76,76,51,1,,,,,,,,
,,,,,,,,,,,,,FF,,,,,,,,1.0667,,,,,,,,,,,,,,,,,,,,,,60fce1771681bdc5025b872e,61036f8066dec8e5896fc502,2021-07-29_23h19.48.420,Simcolourproject_2stim_asymm_v5,2020.2.10,Win32,60,61025ae37ef11b136ea224fe,,,,,,,,,685,53,-85,1,0,0,response3disk,,4,33,5,1,0,0,rectangle,33,5,1,0,0,33,5,1,0,0,0,77,77,18,1,,,,,,,,
,,,,,,,,,,,,,FF,,,,,,,,2.0621,,,,,,,,,,,,,,,,,,,,,,60fce1771681bdc5025b872e,61036f8066dec8e5896fc502,2021-07-29_23h19.48.420,Simcolourproject_2stim_asymm_v5,2020.2.10,Win32,60,61025ae37ef11b136ea224fe,,,,,,,,,2844,-41,-85,1,0,0,response5disk,,3,0,-2,1,0,0,rectangle,0,-2,1,0,0,0,-2,1,0,0,0,78,78,19,1,,,,,,,,
,,,,,,,,,,,,,FF,,,,,,,,1.6165,,,,,,,,,,,,,,,,,,,,,,60fce1771681bdc5025b872e,61036f8066dec8e5896fc502,2021-07-29_23h19.48.420,Simcolourproject_2stim_asymm_v5,2020.2.10,Win32,60,61025ae37ef11b136ea224fe,,,,,,,,,1789,64,80,1,0,0,response1disk,,7,41,7,1,0,0,rectangle,41,7,1,0,0,41,7,1,0,0,0,79,79,70,1,,,,,,,,
,,,,,,,,,,,,,FF,,,,,,,,1.4502,,,,,,,,,,,,,,,,,,,,,,60fce1771681bdc5025b872e,61036f8066dec8e5896fc502,2021-07-29_23h19.48.420,Simcolourproject_2stim_asymm_v5,2020.2.10,Win32,60,61025ae37ef11b136ea224fe,,,,,,,,,2109,48,-44,1,0,0,response3disk,,5,18,-6,1,0,0,rectangle,18,-6,1,0,0,18,-6,1,0,0,0,80,80,137,1,,,,,,,,
,,,,,,,,,,,,,FF,,,,,,,,0.8168,,,,,,,,,,,,,,,,,,,,,,60fce1771681bdc5025b872e,61036f8066dec8e5896fc502,2021-07-29_23h19.48.420,Simcolourproject_2stim_asymm_v5,2020.2.10,Win32,60,61025ae37ef11b136ea224fe,,,,,,,,,862,-51,-74,1,0,0,response5disk,,3,-4,2,1,0,0,rectangle,-4,2,1,0,0,-4,2,1,0,0,0,81,81,101,1,,,,,,,,
,,,,,,,,,,,,,FF,,,,,,,,1.6999,,,,,,,,,,,,,,,,,,,,,,60fce1771681bdc5025b872e,61036f8066dec8e5896fc502,2021-07-29_23h19.48.420,Simcolourproject_2stim_asymm_v5,2020.2.10,Win32,60,61025ae37ef11b136ea224fe,,,,,,,,,1511,56,-81,1,0,0,response3disk,,4,4,13,1,0,0,rectangle,4,13,1,0,0,4,13,1,0,0,0,82,82,49,1,,,,,,,,
,,,,,,,,,,,,,FF,,,,,,,,1.7834,,,,,,,,,,,,,,,,,,,,,,60fce1771681bdc5025b872e,61036f8066dec8e5896fc502,2021-07-29_23h19.48.420,Simcolourproject_2stim_asymm_v5,2020.2.10,Win32,60,61025ae37ef11b136ea224fe,,,,,,,,,3085,47,73,1,0,0,response1disk,,7,24,3,1,0,0,rectangle,24,3,1,0,0,24,3,1,0,0,0,83,83,8,1,,,,,,,,
,,,,,,,,,,,,,FF,,,,,,,,0.85,,,,,,,,,,,,,,,,,,,,,,60fce1771681bdc5025b872e,61036f8066dec8e5896fc502,2021-07-29_23h19.48.420,Simcolourproject_2stim_asymm_v5,2020.2.10,Win32,60,61025ae37ef11b136ea224fe,,,,,,,,,2314,30,73,1,0,0,response1disk,,7,30,-4,1,0,0,rectangle,30,-4,1,0,0,30,-4,1,0,0,0,84,84,28,1,,,,,,,,
,,,,,,,,,,,,,FF,,,,,,,,0.8667,,,,,,,,,,,,,,,,,,,,,,60fce1771681bdc5025b872e,61036f8066dec8e5896fc502,2021-07-29_23h19.48.420,Simcolourproject_2stim_asymm_v5,2020.2.10,Win32,60,61025ae37ef11b136ea224fe,,,,,,,,,1653,34,66,1,0,0,response1disk,,7,42,-9,1,0,0,rectangle,42,-9,1,0,0,42,-9,1,0,0,0,85,85,123,1,,,,,,,,
,,,,,,,,,,,,,FF,,,,,,,,1.1673,,,,,,,,,,,,,,,,,,,,,,60fce1771681bdc5025b872e,61036f8066dec8e5896fc502,2021-07-29_23h19.48.420,Simcolourproject_2stim_asymm_v5,2020.2.10,Win32,60,61025ae37ef11b136ea224fe,,,,,,,,,2938,58,82,1,0,0,response1disk,,7,35,-2,1,0,0,rectangle,35,-2,1,0,0,35,-2,1,0,0,0,86,86,50,1,,,,,,,,
,,,,,,,,,,,,,FF,,,,,,,,0.7162,,,,,,,,,,,,,,,,,,,,,,60fce1771681bdc5025b872e,61036f8066dec8e5896fc502,2021-07-29_23h19.48.420,Simcolourproject_2stim_asymm_v5,2020.2.10,Win32,60,61025ae37ef11b136ea224fe,,,,,,,,,108,-117,-58,1,0,0,response5disk,,2,-27,-4,1,0,0,rectangle,-27,-4,1,0,0,-27,-4,1,0,0,0,87,87,97,1,,,,,,,,
,,,,,,,,,,,,,FF,,,,,,,,0.7333,,,,,,,,,,,,,,,,,,,,,,60fce1771681bdc5025b872e,61036f8066dec8e5896fc502,2021-07-29_23h19.48.420,Simcolourproject_2stim_asymm_v5,2020.2.10,Win32,60,61025ae37ef11b136ea224fe,,,,,,,,,1217,-36,-76,1,0,0,response5disk,,3,-10,-3,1,0,0,rectangle,-10,-3,1,0,0,-10,-3,1,0,0,0,88,88,147,1,,,,,,,,
,,,,,,,,,,,,,FF,,,,,,,,1.0995,,,,,,,,,,,,,,,,,,,,,,60fce1771681bdc5025b872e,61036f8066dec8e5896fc502,2021-07-29_23h19.48.420,Simcolourproject_2stim_asymm_v5,2020.2.10,Win32,60,61025ae37ef11b136ea224fe,,,,,,,,,3179,44,-63,1,0,0,response3disk,,4,19,-16,1,0,0,rectangle,19,-16,1,0,0,19,-16,1,0,0,0,89,89,38,1,,,,,,,,
,,,,,,,,,,,,,FF,,,,,,,,0.8659,,,,,,,,,,,,,,,,,,,,,,60fce1771681bdc5025b872e,61036f8066dec8e5896fc502,2021-07-29_23h19.48.420,Simcolourproject_2stim_asymm_v5,2020.2.10,Win32,60,61025ae37ef11b136ea224fe,,,,,,,,,923,58,-33,1,0,0,response3disk,,5,10,10,1,0,0,rectangle,10,10,1,0,0,10,10,1,0,0,0,90,90,141,1,,,,,,,,
,,,,,,,,,,,,,FF,,,,,,,,0.7327,,,,,,,,,,,,,,,,,,,,,,60fce1771681bdc5025b872e,61036f8066dec8e5896fc502,2021-07-29_23h19.48.420,Simcolourproject_2stim_asymm_v5,2020.2.10,Win32,60,61025ae37ef11b136ea224fe,,,,,,,,,3297,-83,-45,1,0,0,response5disk,,2,-14,-7,1,0,0,rectangle,-14,-7,1,0,0,-14,-7,1,0,0,0,91,91,112,1,,,,,,,,
,,,,,,,,,,,,,FF,,,,,,,,1.3002,,,,,,,,,,,,,,,,,,,,,,60fce1771681bdc5025b872e,61036f8066dec8e5896fc502,2021-07-29_23h19.48.420,Simcolourproject_2stim_asymm_v5,2020.2.10,Win32,60,61025ae37ef11b136ea224fe,,,,,,,,,1028,51,67,1,0,0,response1disk,,7,26,-1,1,0,0,rectangle,26,-1,1,0,0,26,-1,1,0,0,0,92,92,98,1,,,,,,,,
,,,,,,,,,,,,,FF,,,,,,,,0.6661,,,,,,,,,,,,,,,,,,,,,,60fce1771681bdc5025b872e,61036f8066dec8e5896fc502,2021-07-29_23h19.48.420,Simcolourproject_2stim_asymm_v5,2020.2.10,Win32,60,61025ae37ef11b136ea224fe,,,,,,,,,2419,-94,-27,1,0,0,response5disk,,2,16,4,1,0,0,rectangle,16,4,1,0,0,16,4,1,0,0,0,93,93,153,1,,,,,,,,
,,,,,,,,,,,,,FF,,,,,,,,0.8332,,,,,,,,,,,,,,,,,,,,,,60fce1771681bdc5025b872e,61036f8066dec8e5896fc502,2021-07-29_23h19.48.420,Simcolourproject_2stim_asymm_v5,2020.2.10,Win32,60,61025ae37ef11b136ea224fe,,,,,,,,,282,-56,-74,1,0,0,response5disk,,3,-10,4,1,0,0,rectangle,-10,4,1,0,0,-10,4,1,0,0,0,94,94,158,1,,,,,,,,
,,,,,,,,,,,,,FF,,,,,,,,0.8495,,,,,,,,,,,,,,,,,,,,,,60fce1771681bdc5025b872e,61036f8066dec8e5896fc502,2021-07-29_23h19.48.420,Simcolourproject_2stim_asymm_v5,2020.2.10,Win32,60,61025ae37ef11b136ea224fe,,,,,,,,,2156,30,57,1,0,0,response1disk,,7,22,1,1,0,0,rectangle,22,1,1,0,0,22,1,1,0,0,0,95,95,82,1,,,,,,,,
,,,,,,,,,,,,,FF,,,,,,,,1.6168,,,,,,,,,,,,,,,,,,,,,,60fce1771681bdc5025b872e,61036f8066dec8e5896fc502,2021-07-29_23h19.48.420,Simcolourproject_2stim_asymm_v5,2020.2.10,Win32,60,61025ae37ef11b136ea224fe,,,,,,,,,3575,41,-31,1,0,0,response3disk,,5,27,-7,1,0,0,rectangle,57,-82,1,0,0,20,-7,1,0,0,0,96,96,64,1,,response3disk_3,TRUE,4,4,"[137,23,36,152,306,97,214,310,137,207,157,60,273,76,113,242,126,169,184,221]",1.4826,rectangle
,,,,,,,,,,,,,FF,,,,,,,,2.0167,,,,,,,,,,,,,,,,,,,,,,60fce1771681bdc5025b872e,61036f8066dec8e5896fc502,2021-07-29_23h19.48.420,Simcolourproject_2stim_asymm_v5,2020.2.10,Win32,60,61025ae37ef11b136ea224fe,,,,,,,,,3222,58,57,1,0,0,response1disk,,6,19,-8,1,0,0,rectangle,19,-8,1,0,0,19,-8,1,0,0,0,97,97,115,1,,,,,,,,
,,,,,,,,,,,,,FF,,,,,,,,1.2167,,,,,,,,,,,,,,,,,,,,,,60fce1771681bdc5025b872e,61036f8066dec8e5896fc502,2021-07-29_23h19.48.420,Simcolourproject_2stim_asymm_v5,2020.2.10,Win32,60,61025ae37ef11b136ea224fe,,,,,,,,,3330,-66,-81,1,0,0,response5disk,,3,5,-6,1,0,0,rectangle,5,-6,1,0,0,5,-6,1,0,0,0,98,98,79,1,,,,,,,,
,,,,,,,,,,,,,FF,,,,,,,,1.0335,,,,,,,,,,,,,,,,,,,,,,60fce1771681bdc5025b872e,61036f8066dec8e5896fc502,2021-07-29_23h19.48.420,Simcolourproject_2stim_asymm_v5,2020.2.10,Win32,60,61025ae37ef11b136ea224fe,,,,,,,,,672,78,-49,1,0,0,response3disk,,5,10,0,1,0,0,rectangle,10,0,1,0,0,10,0,1,0,0,0,99,99,53,1,,,,,,,,
,,,,,,,,,,,,,FF,,,,,,,,1.3833,,,,,,,,,,,,,,,,,,,,,,60fce1771681bdc5025b872e,61036f8066dec8e5896fc502,2021-07-29_23h19.48.420,Simcolourproject_2stim_asymm_v5,2020.2.10,Win32,60,61025ae37ef11b136ea224fe,,,,,,,,,1087,41,74,1,0,0,response1disk,,7,12,1,1,0,0,rectangle,12,1,1,0,0,12,1,1,0,0,0,100,100,27,1,,,,,,,,
,,,,,,,,,,,,,FF,,,,,,,,1.55,,,,,,,,,,,,,,,,,,,,,,60fce1771681bdc5025b872e,61036f8066dec8e5896fc502,2021-07-29_23h19.48.420,Simcolourproject_2stim_asymm_v5,2020.2.10,Win32,60,61025ae37ef11b136ea224fe,,,,,,,,,3701,163,43,1,0,0,response1disk,,6,-15,-8,1,0,0,rectangle,-15,-8,1,0,0,-15,-8,1,0,0,0,101,101,2,1,,,,,,,,
,,,,,,,,,,,,,FF,,,,,,,,1.6332,,,,,,,,,,,,,,,,,,,,,,60fce1771681bdc5025b872e,61036f8066dec8e5896fc502,2021-07-29_23h19.48.420,Simcolourproject_2stim_asymm_v5,2020.2.10,Win32,60,61025ae37ef11b136ea224fe,,,,,,,,,955,136,-36,1,0,0,response3disk,,5,26,10,1,0,0,rectangle,26,10,1,0,0,26,10,1,0,0,0,102,102,73,1,,,,,,,,
,,,,,,,,,,,,,FF,,,,,,,,0.8001,,,,,,,,,,,,,,,,,,,,,,60fce1771681bdc5025b872e,61036f8066dec8e5896fc502,2021-07-29_23h19.48.420,Simcolourproject_2stim_asymm_v5,2020.2.10,Win32,60,61025ae37ef11b136ea224fe,,,,,,,,,2611,-37,-81,1,0,0,response5disk,,3,-40,-15,1,0,0,rectangle,-40,-15,1,0,0,-40,-15,1,0,0,0,103,103,23,1,,,,,,,,
,,,,,,,,,,,,,FF,,,,,,,,1.2168,,,,,,,,,,,,,,,,,,,,,,60fce1771681bdc5025b872e,61036f8066dec8e5896fc502,2021-07-29_23h19.48.420,Simcolourproject_2stim_asymm_v5,2020.2.10,Win32,60,61025ae37ef11b136ea224fe,,,,,,,,,1883,64,-39,1,0,0,response3disk,,5,-14,-3,1,0,0,rectangle,-14,-3,1,0,0,-14,-3,1,0,0,0,104,104,81,1,,,,,,,,
,,,,,,,,,,,,,FF,,,,,,,,1.1498,,,,,,,,,,,,,,,,,,,,,,60fce1771681bdc5025b872e,61036f8066dec8e5896fc502,2021-07-29_23h19.48.420,Simcolourproject_2stim_asymm_v5,2020.2.10,Win32,60,61025ae37ef11b136ea224fe,,,,,,,,,3961,79,-29,1,0,0,response3disk,,5,18,18,1,0,0,rectangle,18,18,1,0,0,18,18,1,0,0,0,105,105,66,1,,,,,,,,
,,,,,,,,,,,,,FF,,,,,,,,1.7,,,,,,,,,,,,,,,,,,,,,,60fce1771681bdc5025b872e,61036f8066dec8e5896fc502,2021-07-29_23h19.48.420,Simcolourproject_2stim_asymm_v5,2020.2.10,Win32,60,61025ae37ef11b136ea224fe,,,,,,,,,3543,47,-63,1,0,0,response3disk,,4,29,4,1,0,0,rectangle,29,4,1,0,0,29,4,1,0,0,0,106,106,34,1,,,,,,,,
,,,,,,,,,,,,,FF,,,,,,,,1.7334,,,,,,,,,,,,,,,,,,,,,,60fce1771681bdc5025b872e,61036f8066dec8e5896fc502,2021-07-29_23h19.48.420,Simcolourproject_2stim_asymm_v5,2020.2.10,Win32,60,61025ae37ef11b136ea224fe,,,,,,,,,519,80,37,1,0,0,response1disk,,6,27,-3,1,0,0,rectangle,27,-3,1,0,0,27,-3,1,0,0,0,107,107,30,1,,,,,,,,
,,,,,,,,,,,,,FF,,,,,,,,1.0169,,,,,,,,,,,,,,,,,,,,,,60fce1771681bdc5025b872e,61036f8066dec8e5896fc502,2021-07-29_23h19.48.420,Simcolourproject_2stim_asymm_v5,2020.2.10,Win32,60,61025ae37ef11b136ea224fe,,,,,,,,,3593,-44,-71,1,0,0,response5disk,,3,-21,-6,1,0,0,rectangle,-21,-6,1,0,0,-21,-6,1,0,0,0,108,108,127,1,,,,,,,,
,,,,,,,,,,,,,FF,,,,,,,,0.9832,,,,,,,,,,,,,,,,,,,,,,60fce1771681bdc5025b872e,61036f8066dec8e5896fc502,2021-07-29_23h19.48.420,Simcolourproject_2stim_asymm_v5,2020.2.10,Win32,60,61025ae37ef11b136ea224fe,,,,,,,,,1924,68,43,1,0,0,response1disk,,6,22,-19,1,0,0,rectangle,22,-19,1,0,0,22,-19,1,0,0,0,109,109,130,1,,,,,,,,
,,,,,,,,,,,,,FF,,,,,,,,1.2499,,,,,,,,,,,,,,,,,,,,,,60fce1771681bdc5025b872e,61036f8066dec8e5896fc502,2021-07-29_23h19.48.420,Simcolourproject_2stim_asymm_v5,2020.2.10,Win32,60,61025ae37ef11b136ea224fe,,,,,,,,,4035,126,-84,1,0,0,response3disk,,5,39,-14,1,0,0,rectangle,39,-14,1,0,0,39,-14,1,0,0,0,110,110,75,1,,,,,,,,
,,,,,,,,,,,,,FF,,,,,,,,2.1499,,,,,,,,,,,,,,,,,,,,,,60fce1771681bdc5025b872e,61036f8066dec8e5896fc502,2021-07-29_23h19.48.420,Simcolourproject_2stim_asymm_v5,2020.2.10,Win32,60,61025ae37ef11b136ea224fe,,,,,,,,,849,26,56,1,0,0,response1disk,,7,28,-4,1,0,0,rectangle,28,-4,1,0,0,28,-4,1,0,0,0,111,111,56,1,,,,,,,,
,,,,,,,,,,,,,FF,,,,,,,,1.3667,,,,,,,,,,,,,,,,,,,,,,60fce1771681bdc5025b872e,61036f8066dec8e5896fc502,2021-07-29_23h19.48.420,Simcolourproject_2stim_asymm_v5,2020.2.10,Win32,60,61025ae37ef11b136ea224fe,,,,,,,,,1840,46,-73,1,0,0,response3disk,,4,11,0,1,0,0,rectangle,87,63,1,0,0,19,6,1,0,0,0,112,112,144,1,,response1disk_3,TRUE,6,6,"[137,23,36,152,306,97,214,310,137,207,157,60,273,76,113,242,126,169,184,221]",1.4,rectangle
,,,,,,,,,,,,,FF,,,,,,,,0.8166,,,,,,,,,,,,,,,,,,,,,,60fce1771681bdc5025b872e,61036f8066dec8e5896fc502,2021-07-29_23h19.48.420,Simcolourproject_2stim_asymm_v5,2020.2.10,Win32,60,61025ae37ef11b136ea224fe,,,,,,,,,1694,82,47,1,0,0,response1disk,,6,1,19,1,0,0,rectangle,1,19,1,0,0,1,19,1,0,0,0,113,113,57,1,,,,,,,,
,,,,,,,,,,,,,FF,,,,,,,,1.2333,,,,,,,,,,,,,,,,,,,,,,60fce1771681bdc5025b872e,61036f8066dec8e5896fc502,2021-07-29_23h19.48.420,Simcolourproject_2stim_asymm_v5,2020.2.10,Win32,60,61025ae37ef11b136ea224fe,,,,,,,,,3900,-74,-74,1,0,0,response5disk,,3,-40,-7,1,0,0,rectangle,-40,-7,1,0,0,-40,-7,1,0,0,0,114,114,143,1,,,,,,,,
,,,,,,,,,,,,,FF,,,,,,,,1.4006,,,,,,,,,,,,,,,,,,,,,,60fce1771681bdc5025b872e,61036f8066dec8e5896fc502,2021-07-29_23h19.48.420,Simcolourproject_2stim_asymm_v5,2020.2.10,Win32,60,61025ae37ef11b136ea224fe,,,,,,,,,3791,33,-86,1,0,0,response3disk,,4,-4,3,1,0,0,rectangle,-4,3,1,0,0,-4,3,1,0,0,0,115,115,39,1,,,,,,,,
,,,,,,,,,,,,,FF,,,,,,,,0.8492,,,,,,,,,,,,,,,,,,,,,,60fce1771681bdc5025b872e,61036f8066dec8e5896fc502,2021-07-29_23h19.48.420,Simcolourproject_2stim_asymm_v5,2020.2.10,Win32,60,61025ae37ef11b136ea224fe,,,,,,,,,3861,50,-93,1,0,0,response3disk,,4,0,3,1,0,0,rectangle,0,3,1,0,0,0,3,1,0,0,0,116,116,86,1,,,,,,,,
,,,,,,,,,,,,,FF,,,,,,,,0.8995,,,,,,,,,,,,,,,,,,,,,,60fce1771681bdc5025b872e,61036f8066dec8e5896fc502,2021-07-29_23h19.48.420,Simcolourproject_2stim_asymm_v5,2020.2.10,Win32,60,61025ae37ef11b136ea224fe,,,,,,,,,45,59,-40,1,0,0,response3disk,,5,31,-10,1,0,0,rectangle,31,-10,1,0,0,31,-10,1,0,0,0,117,117,83,1,,,,,,,,
,,,,,,,,,,,,,FF,,,,,,,,0.6835,,,,,,,,,,,,,,,,,,,,,,60fce1771681bdc5025b872e,61036f8066dec8e5896fc502,2021-07-29_23h19.48.420,Simcolourproject_2stim_asymm_v5,2020.2.10,Win32,60,61025ae37ef11b136ea224fe,,,,,,,,,4201,-99,-43,1,0,0,response5disk,,2,-5,10,1,0,0,rectangle,-5,10,1,0,0,-5,10,1,0,0,0,118,118,54,1,,,,,,,,
,,,,,,,,,,,,,FF,,,,,,,,1.15,,,,,,,,,,,,,,,,,,,,,,60fce1771681bdc5025b872e,61036f8066dec8e5896fc502,2021-07-29_23h19.48.420,Simcolourproject_2stim_asymm_v5,2020.2.10,Win32,60,61025ae37ef11b136ea224fe,,,,,,,,,59,80,-50,1,0,0,response3disk,,5,14,-16,1,0,0,rectangle,14,-16,1,0,0,14,-16,1,0,0,0,119,119,150,1,,,,,,,,
,,,,,,,,,,,,,FF,,,,,,,,0.6333,,,,,,,,,,,,,,,,,,,,,,60fce1771681bdc5025b872e,61036f8066dec8e5896fc502,2021-07-29_23h19.48.420,Simcolourproject_2stim_asymm_v5,2020.2.10,Win32,60,61025ae37ef11b136ea224fe,,,,,,,,,77,-76,51,1,0,0,response7disk,,1,-16,6,1,0,0,rectangle,-16,6,1,0,0,-16,6,1,0,0,0,120,120,15,1,,,,,,,,
,,,,,,,,,,,,,FF,,,,,,,,1.2173,,,,,,,,,,,,,,,,,,,,,,60fce1771681bdc5025b872e,61036f8066dec8e5896fc502,2021-07-29_23h19.48.420,Simcolourproject_2stim_asymm_v5,2020.2.10,Win32,60,61025ae37ef11b136ea224fe,,,,,,,,,3771,38,-78,1,0,0,response3disk,,4,-5,-6,1,0,0,rectangle,-5,-6,1,0,0,-5,-6,1,0,0,0,121,121,32,1,,,,,,,,
,,,,,,,,,,,,,FF,,,,,,,,0.634,,,,,,,,,,,,,,,,,,,,,,60fce1771681bdc5025b872e,61036f8066dec8e5896fc502,2021-07-29_23h19.48.420,Simcolourproject_2stim_asymm_v5,2020.2.10,Win32,60,61025ae37ef11b136ea224fe,,,,,,,,,1749,-29,-80,1,0,0,response5disk,,3,-10,-8,1,0,0,rectangle,-10,-8,1,0,0,-10,-8,1,0,0,0,122,122,74,1,,,,,,,,
,,,,,,,,,,,,,FF,,,,,,,,1.2162,,,,,,,,,,,,,,,,,,,,,,60fce1771681bdc5025b872e,61036f8066dec8e5896fc502,2021-07-29_23h19.48.420,Simcolourproject_2stim_asymm_v5,2020.2.10,Win32,60,61025ae37ef11b136ea224fe,,,,,,,,,4264,48,63,1,0,0,response1disk,,7,40,18,1,0,0,rectangle,40,18,1,0,0,40,18,1,0,0,0,123,123,122,1,,,,,,,,
,,,,,,,,,,,,,FF,,,,,,,,0.9,,,,,,,,,,,,,,,,,,,,,,60fce1771681bdc5025b872e,61036f8066dec8e5896fc502,2021-07-29_23h19.48.420,Simcolourproject_2stim_asymm_v5,2020.2.10,Win32,60,61025ae37ef11b136ea224fe,,,,,,,,,1003,89,43,1,0,0,response1disk,,6,24,3,1,0,0,rectangle,24,3,1,0,0,24,3,1,0,0,0,124,124,9,1,,,,,,,,
,,,,,,,,,,,,,FF,,,,,,,,0.7166,,,,,,,,,,,,,,,,,,,,,,60fce1771681bdc5025b872e,61036f8066dec8e5896fc502,2021-07-29_23h19.48.420,Simcolourproject_2stim_asymm_v5,2020.2.10,Win32,60,61025ae37ef11b136ea224fe,,,,,,,,,3602,61,-26,1,0,0,response3disk,,5,4,1,1,0,0,rectangle,36,76,1,0,0,15,12,1,0,0,0,125,125,100,1,,response1disk_3,TRUE,7,7,"[137,23,36,152,306,97,214,310,137,207,157,60,273,76,113,242,126,169,184,221]",1.0665,rectangle
,,,,,,,,,,,,,FF,,,,,,,,1.6999,,,,,,,,,,,,,,,,,,,,,,60fce1771681bdc5025b872e,61036f8066dec8e5896fc502,2021-07-29_23h19.48.420,Simcolourproject_2stim_asymm_v5,2020.2.10,Win32,60,61025ae37ef11b136ea224fe,,,,,,,,,2818,75,-51,1,0,0,response3disk,,5,36,-13,1,0,0,rectangle,36,-13,1,0,0,36,-13,1,0,0,0,126,126,25,1,,,,,,,,
,,,,,,,,,,,,,FF,,,,,,,,1.4666,,,,,,,,,,,,,,,,,,,,,,60fce1771681bdc5025b872e,61036f8066dec8e5896fc502,2021-07-29_23h19.48.420,Simcolourproject_2stim_asymm_v5,2020.2.10,Win32,60,61025ae37ef11b136ea224fe,,,,,,,,,1122,71,32,1,0,0,response1disk,,6,33,5,1,0,0,rectangle,33,5,1,0,0,33,5,1,0,0,0,127,127,45,1,,,,,,,,
,,,,,,,,,,,,,FF,,,,,,,,1.6333,,,,,,,,,,,,,,,,,,,,,,60fce1771681bdc5025b872e,61036f8066dec8e5896fc502,2021-07-29_23h19.48.420,Simcolourproject_2stim_asymm_v5,2020.2.10,Win32,60,61025ae37ef11b136ea224fe,,,,,,,,,508,100,47,1,0,0,response1disk,,6,11,-3,1,0,0,rectangle,11,-3,1,0,0,11,-3,1,0,0,0,128,128,71,1,,,,,,,,
,,,,,,,,,,,,,FF,,,,,,,,1.7504,,,,,,,,,,,,,,,,,,,,,,60fce1771681bdc5025b872e,61036f8066dec8e5896fc502,2021-07-29_23h19.48.420,Simcolourproject_2stim_asymm_v5,2020.2.10,Win32,60,61025ae37ef11b136ea224fe,,,,,,,,,1796,77,43,1,0,0,response1disk,,6,27,11,1,0,0,rectangle,27,11,1,0,0,27,11,1,0,0,0,129,129,62,1,,,,,,,,
,,,,,,,,,,,,,FF,,,,,,,,0.6,,,,,,,,,,,,,,,,,,,,,,60fce1771681bdc5025b872e,61036f8066dec8e5896fc502,2021-07-29_23h19.48.420,Simcolourproject_2stim_asymm_v5,2020.2.10,Win32,60,61025ae37ef11b136ea224fe,,,,,,,,,3815,-56,-76,1,0,0,response5disk,,3,-32,-4,1,0,0,rectangle,-32,-4,1,0,0,-32,-4,1,0,0,0,130,130,35,1,,,,,,,,
,,,,,,,,,,,,,FF,,,,,,,,0.7166,,,,,,,,,,,,,,,,,,,,,,60fce1771681bdc5025b872e,61036f8066dec8e5896fc502,2021-07-29_23h19.48.420,Simcolourproject_2stim_asymm_v5,2020.2.10,Win32,60,61025ae37ef11b136ea224fe,,,,,,,,,2845,95,-52,1,0,0,response3disk,,5,33,19,1,0,0,rectangle,33,19,1,0,0,33,19,1,0,0,0,131,131,106,1,,,,,,,,
,,,,,,,,,,,,,FF,,,,,,,,1.3166,,,,,,,,,,,,,,,,,,,,,,60fce1771681bdc5025b872e,61036f8066dec8e5896fc502,2021-07-29_23h19.48.420,Simcolourproject_2stim_asymm_v5,2020.2.10,Win32,60,61025ae37ef11b136ea224fe,,,,,,,,,2713,44,-91,1,0,0,response3disk,,4,26,4,1,0,0,rectangle,26,4,1,0,0,26,4,1,0,0,0,132,132,89,1,,,,,,,,
,,,,,,,,,,,,,FF,,,,,,,,1.1499,,,,,,,,,,,,,,,,,,,,,,60fce1771681bdc5025b872e,61036f8066dec8e5896fc502,2021-07-29_23h19.48.420,Simcolourproject_2stim_asymm_v5,2020.2.10,Win32,60,61025ae37ef11b136ea224fe,,,,,,,,,2002,60,33,1,0,0,response1disk,,6,33,-11,1,0,0,rectangle,33,-11,1,0,0,33,-11,1,0,0,0,133,133,78,1,,,,,,,,
,,,,,,,,,,,,,FF,,,,,,,,0.8499,,,,,,,,,,,,,,,,,,,,,,60fce1771681bdc5025b872e,61036f8066dec8e5896fc502,2021-07-29_23h19.48.420,Simcolourproject_2stim_asymm_v5,2020.2.10,Win32,60,61025ae37ef11b136ea224fe,,,,,,,,,1302,-82,-54,1,0,0,response5disk,,2,3,-3,1,0,0,rectangle,3,-3,1,0,0,3,-3,1,0,0,0,134,134,114,1,,,,,,,,
,,,,,,,,,,,,,FF,,,,,,,,0.9332,,,,,,,,,,,,,,,,,,,,,,60fce1771681bdc5025b872e,61036f8066dec8e5896fc502,2021-07-29_23h19.48.420,Simcolourproject_2stim_asymm_v5,2020.2.10,Win32,60,61025ae37ef11b136ea224fe,,,,,,,,,3140,-73,-36,1,0,0,response5disk,,2,27,-5,1,0,0,rectangle,27,-5,1,0,0,27,-5,1,0,0,0,135,135,55,1,,,,,,,,
,,,,,,,,,,,,,FF,,,,,,,,0.6168,,,,,,,,,,,,,,,,,,,,,,60fce1771681bdc5025b872e,61036f8066dec8e5896fc502,2021-07-29_23h19.48.420,Simcolourproject_2stim_asymm_v5,2020.2.10,Win32,60,61025ae37ef11b136ea224fe,,,,,,,,,1670,-64,39,1,0,0,response7disk,,1,-25,7,1,0,0,rectangle,57,83,1,0,0,21,12,1,0,0,0,136,136,13,1,,response1disk_3,TRUE,7,7,"[137,23,36,152,306,97,214,310,137,207,157,60,273,76,113,242,126,169,184,221]",1.2166,rectangle
,,,,,,,,,,,,,FF,,,,,,,,1.7,,,,,,,,,,,,,,,,,,,,,,60fce1771681bdc5025b872e,61036f8066dec8e5896fc502,2021-07-29_23h19.48.420,Simcolourproject_2stim_asymm_v5,2020.2.10,Win32,60,61025ae37ef11b136ea224fe,,,,,,,,,1812,73,-83,1,0,0,response3disk,,4,11,16,1,0,0,rectangle,11,16,1,0,0,11,16,1,0,0,0,137,137,43,1,,,,,,,,
,,,,,,,,,,,,,FF,,,,,,,,0.9667,,,,,,,,,,,,,,,,,,,,,,60fce1771681bdc5025b872e,61036f8066dec8e5896fc502,2021-07-29_23h19.48.420,Simcolourproject_2stim_asymm_v5,2020.2.10,Win32,60,61025ae37ef11b136ea224fe,,,,,,,,,380,-23,-94,1,0,0,response5disk,,3,-21,-3,1,0,0,rectangle,-21,-3,1,0,0,-21,-3,1,0,0,0,138,138,148,1,,,,,,,,
,,,,,,,,,,,,,FF,,,,,,,,0.9499,,,,,,,,,,,,,,,,,,,,,,60fce1771681bdc5025b872e,61036f8066dec8e5896fc502,2021-07-29_23h19.48.420,Simcolourproject_2stim_asymm_v5,2020.2.10,Win32,60,61025ae37ef11b136ea224fe,,,,,,,,,635,-47,-94,1,0,0,response5disk,,3,-19,3,1,0,0,rectangle,-19,3,1,0,0,-19,3,1,0,0,0,139,139,136,1,,,,,,,,
,,,,,,,,,,,,,FF,,,,,,,,0.8168,,,,,,,,,,,,,,,,,,,,,,60fce1771681bdc5025b872e,61036f8066dec8e5896fc502,2021-07-29_23h19.48.420,Simcolourproject_2stim_asymm_v5,2020.2.10,Win32,60,61025ae37ef11b136ea224fe,,,,,,,,,64,66,-42,1,0,0,response3disk,,5,22,4,1,0,0,rectangle,22,4,1,0,0,22,4,1,0,0,0,140,140,111,1,,,,,,,,
,,,,,,,,,,,,,FF,,,,,,,,1.2834,,,,,,,,,,,,,,,,,,,,,,60fce1771681bdc5025b872e,61036f8066dec8e5896fc502,2021-07-29_23h19.48.420,Simcolourproject_2stim_asymm_v5,2020.2.10,Win32,60,61025ae37ef11b136ea224fe,,,,,,,,,2882,61,-69,1,0,0,response3disk,,4,24,-4,1,0,0,rectangle,24,-4,1,0,0,24,-4,1,0,0,0,141,141,156,1,,,,,,,,
,,,,,,,,,,,,,FF,,,,,,,,0.7834,,,,,,,,,,,,,,,,,,,,,,60fce1771681bdc5025b872e,61036f8066dec8e5896fc502,2021-07-29_23h19.48.420,Simcolourproject_2stim_asymm_v5,2020.2.10,Win32,60,61025ae37ef11b136ea224fe,,,,,,,,,1127,45,66,1,0,0,response1disk,,7,37,11,1,0,0,rectangle,37,11,1,0,0,37,11,1,0,0,0,142,142,88,1,,,,,,,,
,,,,,,,,,,,,,FF,,,,,,,,1.5668,,,,,,,,,,,,,,,,,,,,,,60fce1771681bdc5025b872e,61036f8066dec8e5896fc502,2021-07-29_23h19.48.420,Simcolourproject_2stim_asymm_v5,2020.2.10,Win32,60,61025ae37ef11b136ea224fe,,,,,,,,,2308,97,30,1,0,0,response1disk,,6,-1,2,1,0,0,rectangle,-1,2,1,0,0,-1,2,1,0,0,0,143,143,99,1,,,,,,,,
,,,,,,,,,,,,,FF,,,,,,,,1.1666,,,,,,,,,,,,,,,,,,,,,,60fce1771681bdc5025b872e,61036f8066dec8e5896fc502,2021-07-29_23h19.48.420,Simcolourproject_2stim_asymm_v5,2020.2.10,Win32,60,61025ae37ef11b136ea224fe,,,,,,,,,3572,63,-73,1,0,0,response3disk,,4,22,15,1,0,0,rectangle,22,15,1,0,0,22,15,1,0,0,0,144,144,92,1,,,,,,,,
,,,,,,,,,,,,,FF,,,,,,,,0.7501,,,,,,,,,,,,,,,,,,,,,,60fce1771681bdc5025b872e,61036f8066dec8e5896fc502,2021-07-29_23h19.48.420,Simcolourproject_2stim_asymm_v5,2020.2.10,Win32,60,61025ae37ef11b136ea224fe,,,,,,,,,3315,41,72,1,0,0,response1disk,,7,41,12,1,0,0,rectangle,41,12,1,0,0,41,12,1,0,0,0,145,145,72,1,,,,,,,,
,,,,,,,,,,,,,FF,,,,,,,,0.6834,,,,,,,,,,,,,,,,,,,,,,60fce1771681bdc5025b872e,61036f8066dec8e5896fc502,2021-07-29_23h19.48.420,Simcolourproject_2stim_asymm_v5,2020.2.10,Win32,60,61025ae37ef11b136ea224fe,,,,,,,,,3609,45,57,1,0,0,response1disk,,7,35,9,1,0,0,rectangle,35,9,1,0,0,35,9,1,0,0,0,146,146,29,1,,,,,,,,
,,,,,,,,,,,,,FF,,,,,,,,0.6664,,,,,,,,,,,,,,,,,,,,,,60fce1771681bdc5025b872e,61036f8066dec8e5896fc502,2021-07-29_23h19.48.420,Simcolourproject_2stim_asymm_v5,2020.2.10,Win32,60,61025ae37ef11b136ea224fe,,,,,,,,,2214,44,57,1,0,0,response1disk,,7,38,-2,1,0,0,rectangle,38,-2,1,0,0,38,-2,1,0,0,0,147,147,17,1,,,,,,,,
,,,,,,,,,,,,,FF,,,,,,,,0.7834,,,,,,,,,,,,,,,,,,,,,,60fce1771681bdc5025b872e,61036f8066dec8e5896fc502,2021-07-29_23h19.48.420,Simcolourproject_2stim_asymm_v5,2020.2.10,Win32,60,61025ae37ef11b136ea224fe,,,,,,,,,1053,-108,-60,1,0,0,response5disk,,2,-40,-7,1,0,0,rectangle,-40,-7,1,0,0,-40,-7,1,0,0,0,148,148,68,1,,,,,,,,
,,,,,,,,,,,,,FF,,,,,,,,1.0998,,,,,,,,,,,,,,,,,,,,,,60fce1771681bdc5025b872e,61036f8066dec8e5896fc502,2021-07-29_23h19.48.420,Simcolourproject_2stim_asymm_v5,2020.2.10,Win32,60,61025ae37ef11b136ea224fe,,,,,,,,,1772,36,-72,1,0,0,response3disk,,4,34,-8,1,0,0,rectangle,34,-8,1,0,0,34,-8,1,0,0,0,149,149,157,1,,,,,,,,
,,,,,,,,,,,,,FF,,,,,,,,1.4002,,,,,,,,,,,,,,,,,,,,,,60fce1771681bdc5025b872e,61036f8066dec8e5896fc502,2021-07-29_23h19.48.420,Simcolourproject_2stim_asymm_v5,2020.2.10,Win32,60,61025ae37ef11b136ea224fe,,,,,,,,,3048,-74,-83,1,0,0,response5disk,,3,-34,-4,1,0,0,rectangle,-34,-4,1,0,0,-34,-4,1,0,0,0,150,150,22,1,,,,,,,,
,,,,,,,,,,,,,FF,,,,,,,,1.4834,,,,,,,,,,,,,,,,,,,,,,60fce1771681bdc5025b872e,61036f8066dec8e5896fc502,2021-07-29_23h19.48.420,Simcolourproject_2stim_asymm_v5,2020.2.10,Win32,60,61025ae37ef11b136ea224fe,,,,,,,,,3043,35,58,1,0,0,response1disk,,7,35,7,1,0,0,rectangle,64,86,1,0,0,32,-6,1,0,0,0,151,151,151,1,,response1disk_3,TRUE,7,7,"[137,23,36,152,306,97,214,310,137,207,157,60,273,76,113,242,126,169,184,221]",1.0999,rectangle
,,,,,,,,,,,,,FF,,,,,,,,0.8833,,,,,,,,,,,,,,,,,,,,,,60fce1771681bdc5025b872e,61036f8066dec8e5896fc502,2021-07-29_23h19.48.420,Simcolourproject_2stim_asymm_v5,2020.2.10,Win32,60,61025ae37ef11b136ea224fe,,,,,,,,,1641,88,-44,1,0,0,response3disk,,5,-5,8,1,0,0,rectangle,-5,8,1,0,0,-5,8,1,0,0,0,152,152,134,1,,,,,,,,
,,,,,,,,,,,,,FF,,,,,,,,0.8502,,,,,,,,,,,,,,,,,,,,,,60fce1771681bdc5025b872e,61036f8066dec8e5896fc502,2021-07-29_23h19.48.420,Simcolourproject_2stim_asymm_v5,2020.2.10,Win32,60,61025ae37ef11b136ea224fe,,,,,,,,,1586,42,-72,1,0,0,response3disk,,4,-3,4,1,0,0,rectangle,-3,4,1,0,0,-3,4,1,0,0,0,153,153,124,1,,,,,,,,
,,,,,,,,,,,,,FF,,,,,,,,0.9501,,,,,,,,,,,,,,,,,,,,,,60fce1771681bdc5025b872e,61036f8066dec8e5896fc502,2021-07-29_23h19.48.420,Simcolourproject_2stim_asymm_v5,2020.2.10,Win32,60,61025ae37ef11b136ea224fe,,,,,,,,,3634,57,65,1,0,0,response1disk,,7,35,15,1,0,0,rectangle,35,15,1,0,0,35,15,1,0,0,0,154,154,138,1,,,,,,,,
,,,,,,,,,,,,,FF,,,,,,,,0.6345,,,,,,,,,,,,,,,,,,,,,,60fce1771681bdc5025b872e,61036f8066dec8e5896fc502,2021-07-29_23h19.48.420,Simcolourproject_2stim_asymm_v5,2020.2.10,Win32,60,61025ae37ef11b136ea224fe,,,,,,,,,3363,50,67,1,0,0,response1disk,,7,46,17,1,0,0,rectangle,46,17,1,0,0,46,17,1,0,0,0,155,155,116,1,,,,,,,,
,,,,,,,,,,,,,FF,,,,,,,,0.7168,,,,,,,,,,,,,,,,,,,,,,60fce1771681bdc5025b872e,61036f8066dec8e5896fc502,2021-07-29_23h19.48.420,Simcolourproject_2stim_asymm_v5,2020.2.10,Win32,60,61025ae37ef11b136ea224fe,,,,,,,,,1813,47,44,1,0,0,response1disk,,6,35,19,1,0,0,rectangle,129,-35,1,0,0,37,-10,1,0,0,0,156,156,65,1,,response3disk_3,TRUE,5,5,"[137,23,36,152,306,97,214,310,137,207,157,60,273,76,113,242,126,169,184,221]",1.7,rectangle
,,,,,,,,,,,,,FF,,,,,,,,0.9833,,,,,,,,,,,,,,,,,,,,,,60fce1771681bdc5025b872e,61036f8066dec8e5896fc502,2021-07-29_23h19.48.420,Simcolourproject_2stim_asymm_v5,2020.2.10,Win32,60,61025ae37ef11b136ea224fe,,,,,,,,,1171,61,-37,1,0,0,response3disk,,5,36,-6,1,0,0,rectangle,36,-6,1,0,0,36,-6,1,0,0,0,157,157,16,1,,,,,,,,
,,,,,,,,,,,,,FF,,,,,,,,0.9999,,,,,,,,,,,,,,,,,,,,,,60fce1771681bdc5025b872e,61036f8066dec8e5896fc502,2021-07-29_23h19.48.420,Simcolourproject_2stim_asymm_v5,2020.2.10,Win32,60,61025ae37ef11b136ea224fe,,,,,,,,,1863,44,65,1,0,0,response1disk,,7,20,11,1,0,0,rectangle,20,11,1,0,0,20,11,1,0,0,0,158,158,10,1,,,,,,,,
,,,,,,,,,,,,,FF,,,,,,,,0.95,,,,,,,,,,,,,,,,,,,,,,60fce1771681bdc5025b872e,61036f8066dec8e5896fc502,2021-07-29_23h19.48.420,Simcolourproject_2stim_asymm_v5,2020.2.10,Win32,60,61025ae37ef11b136ea224fe,,,,,,,,,1517,55,27,1,0,0,response1disk,,6,42,2,1,0,0,rectangle,42,2,1,0,0,42,2,1,0,0,0,159,159,90,1,,,,,,,,
,,,,,,,,,,,,,FF,,,,,,,,1.1167,,,,,,,,,,,,,,,,,,,,,,60fce1771681bdc5025b872e,61036f8066dec8e5896fc502,2021-07-29_23h19.48.420,Simcolourproject_2stim_asymm_v5,2020.2.10,Win32,60,61025ae37ef11b136ea224fe,,,,,,,,,3036,70,46,1,0,0,response1disk,,6,32,10,1,0,0,rectangle,32,10,1,0,0,32,10,1,0,0,1,0,160,139,1,,,,,,,,
,,,,,,,,,,,,,FF,,,,,,,,1.2999,,,,,,,,,,,,,,,,,,,,,,60fce1771681bdc5025b872e,61036f8066dec8e5896fc502,2021-07-29_23h19.48.420,Simcolourproject_2stim_asymm_v5,2020.2.10,Win32,60,61025ae37ef11b136ea224fe,,,,,,,,,1540,74,-27,1,0,0,response3disk,,5,30,-3,1,0,0,rectangle,30,-3,1,0,0,30,-3,1,0,0,1,1,161,81,1,,,,,,,,
,,,,,,,,,,,,,FF,,,,,,,,0.8167,,,,,,,,,,,,,,,,,,,,,,60fce1771681bdc5025b872e,61036f8066dec8e5896fc502,2021-07-29_23h19.48.420,Simcolourproject_2stim_asymm_v5,2020.2.10,Win32,60,61025ae37ef11b136ea224fe,,,,,,,,,3482,37,-56,1,0,0,response3disk,,4,13,13,1,0,0,rectangle,13,13,1,0,0,13,13,1,0,0,1,2,162,60,1,,,,,,,,
,,,,,,,,,,,,,FF,,,,,,,,0.7499,,,,,,,,,,,,,,,,,,,,,,60fce1771681bdc5025b872e,61036f8066dec8e5896fc502,2021-07-29_23h19.48.420,Simcolourproject_2stim_asymm_v5,2020.2.10,Win32,60,61025ae37ef11b136ea224fe,,,,,,,,,3605,-28,-55,1,0,0,response5disk,,3,-21,6,1,0,0,rectangle,-21,6,1,0,0,-21,6,1,0,0,1,3,163,138,1,,,,,,,,
,,,,,,,,,,,,,FF,,,,,,,,0.6499,,,,,,,,,,,,,,,,,,,,,,60fce1771681bdc5025b872e,61036f8066dec8e5896fc502,2021-07-29_23h19.48.420,Simcolourproject_2stim_asymm_v5,2020.2.10,Win32,60,61025ae37ef11b136ea224fe,,,,,,,,,2258,33,-46,1,0,0,response3disk,,4,21,-2,1,0,0,rectangle,21,-2,1,0,0,21,-2,1,0,0,1,4,164,98,1,,,,,,,,
,,,,,,,,,,,,,FF,,,,,,,,0.6334,,,,,,,,,,,,,,,,,,,,,,60fce1771681bdc5025b872e,61036f8066dec8e5896fc502,2021-07-29_23h19.48.420,Simcolourproject_2stim_asymm_v5,2020.2.10,Win32,60,61025ae37ef11b136ea224fe,,,,,,,,,1303,-63,-38,1,0,0,response5disk,,2,-21,-4,1,0,0,rectangle,-21,-4,1,0,0,-21,-4,1,0,0,1,5,165,110,1,,,,,,,,
,,,,,,,,,,,,,FF,,,,,,,,0.8334,,,,,,,,,,,,,,,,,,,,,,60fce1771681bdc5025b872e,61036f8066dec8e5896fc502,2021-07-29_23h19.48.420,Simcolourproject_2stim_asymm_v5,2020.2.10,Win32,60,61025ae37ef11b136ea224fe,,,,,,,,,461,-37,-48,1,0,0,response5disk,,3,-12,-1,1,0,0,rectangle,-12,-1,1,0,0,-12,-1,1,0,0,1,6,166,27,1,,,,,,,,
,,,,,,,,,,,,,FF,,,,,,,,1.9,,,,,,,,,,,,,,,,,,,,,,60fce1771681bdc5025b872e,61036f8066dec8e5896fc502,2021-07-29_23h19.48.420,Simcolourproject_2stim_asymm_v5,2020.2.10,Win32,60,61025ae37ef11b136ea224fe,,,,,,,,,3338,-30,-84,1,0,0,response5disk,,3,4,-16,1,0,0,rectangle,4,-16,1,0,0,4,-16,1,0,0,1,7,167,115,1,,,,,,,,
,,,,,,,,,,,,,FF,,,,,,,,0.7833,,,,,,,,,,,,,,,,,,,,,,60fce1771681bdc5025b872e,61036f8066dec8e5896fc502,2021-07-29_23h19.48.420,Simcolourproject_2stim_asymm_v5,2020.2.10,Win32,60,61025ae37ef11b136ea224fe,,,,,,,,,1070,-83,-48,1,0,0,response5disk,,2,-32,-15,1,0,0,rectangle,-98,56,1,0,0,-28,-13,1,0,0,1,8,168,10,1,,response7disk_3,TRUE,1,1,"[137,23,36,152,306,97,214,310,137,207,157,60,273,76,113,242,126,169,184,221]",1.6167,rectangle
,,,,,,,,,,,,,FF,,,,,,,,1.3334,,,,,,,,,,,,,,,,,,,,,,60fce1771681bdc5025b872e,61036f8066dec8e5896fc502,2021-07-29_23h19.48.420,Simcolourproject_2stim_asymm_v5,2020.2.10,Win32,60,61025ae37ef11b136ea224fe,,,,,,,,,127,38,-108,1,0,0,response3disk,,4,-1,-2,1,0,0,rectangle,-1,-2,1,0,0,-1,-2,1,0,0,1,9,169,94,1,,,,,,,,
,,,,,,,,,,,,,FF,,,,,,,,1.4999,,,,,,,,,,,,,,,,,,,,,,60fce1771681bdc5025b872e,61036f8066dec8e5896fc502,2021-07-29_23h19.48.420,Simcolourproject_2stim_asymm_v5,2020.2.10,Win32,60,61025ae37ef11b136ea224fe,,,,,,,,,4124,27,-79,1,0,0,response3disk,,4,-6,-14,1,0,0,rectangle,-6,-14,1,0,0,-6,-14,1,0,0,1,10,170,11,1,,,,,,,,
,,,,,,,,,,,,,FF,,,,,,,,1.0834,,,,,,,,,,,,,,,,,,,,,,60fce1771681bdc5025b872e,61036f8066dec8e5896fc502,2021-07-29_23h19.48.420,Simcolourproject_2stim_asymm_v5,2020.2.10,Win32,60,61025ae37ef11b136ea224fe,,,,,,,,,3526,-38,-69,1,0,0,response5disk,,3,-20,-11,1,0,0,rectangle,-20,-11,1,0,0,-20,-11,1,0,0,1,11,171,51,1,,,,,,,,
,,,,,,,,,,,,,FF,,,,,,,,0.9502,,,,,,,,,,,,,,,,,,,,,,60fce1771681bdc5025b872e,61036f8066dec8e5896fc502,2021-07-29_23h19.48.420,Simcolourproject_2stim_asymm_v5,2020.2.10,Win32,60,61025ae37ef11b136ea224fe,,,,,,,,,1327,76,-48,1,0,0,response3disk,,5,27,-10,1,0,0,rectangle,27,-10,1,0,0,27,-10,1,0,0,1,12,172,17,1,,,,,,,,
,,,,,,,,,,,,,FF,,,,,,,,0.85,,,,,,,,,,,,,,,,,,,,,,60fce1771681bdc5025b872e,61036f8066dec8e5896fc502,2021-07-29_23h19.48.420,Simcolourproject_2stim_asymm_v5,2020.2.10,Win32,60,61025ae37ef11b136ea224fe,,,,,,,,,3430,33,-75,1,0,0,response3disk,,4,6,-13,1,0,0,rectangle,6,-13,1,0,0,6,-13,1,0,0,1,13,173,45,1,,,,,,,,
,,,,,,,,,,,,,FF,,,,,,,,1.5501,,,,,,,,,,,,,,,,,,,,,,60fce1771681bdc5025b872e,61036f8066dec8e5896fc502,2021-07-29_23h19.48.420,Simcolourproject_2stim_asymm_v5,2020.2.10,Win32,60,61025ae37ef11b136ea224fe,,,,,,,,,1336,71,-43,1,0,0,response3disk,,5,20,0,1,0,0,rectangle,20,0,1,0,0,20,0,1,0,0,1,14,174,38,1,,,,,,,,
,,,,,,,,,,,,,FF,,,,,,,,1.0665,,,,,,,,,,,,,,,,,,,,,,60fce1771681bdc5025b872e,61036f8066dec8e5896fc502,2021-07-29_23h19.48.420,Simcolourproject_2stim_asymm_v5,2020.2.10,Win32,60,61025ae37ef11b136ea224fe,,,,,,,,,2543,-53,-123,1,0,0,response5disk,,3,-30,-6,1,0,0,rectangle,-30,-6,1,0,0,-30,-6,1,0,0,1,15,175,120,1,,,,,,,,
,,,,,,,,,,,,,FF,,,,,,,,1.2833,,,,,,,,,,,,,,,,,,,,,,60fce1771681bdc5025b872e,61036f8066dec8e5896fc502,2021-07-29_23h19.48.420,Simcolourproject_2stim_asymm_v5,2020.2.10,Win32,60,61025ae37ef11b136ea224fe,,,,,,,,,1505,76,32,1,0,0,response1disk,,6,40,4,1,0,0,rectangle,40,4,1,0,0,40,4,1,0,0,1,16,176,34,1,,,,,,,,
,,,,,,,,,,,,,FF,,,,,,,,1.2332,,,,,,,,,,,,,,,,,,,,,,60fce1771681bdc5025b872e,61036f8066dec8e5896fc502,2021-07-29_23h19.48.420,Simcolourproject_2stim_asymm_v5,2020.2.10,Win32,60,61025ae37ef11b136ea224fe,,,,,,,,,2916,56,-33,1,0,0,response3disk,,5,14,2,1,0,0,rectangle,14,2,1,0,0,14,2,1,0,0,1,17,177,99,1,,,,,,,,
,,,,,,,,,,,,,FF,,,,,,,,1.1663,,,,,,,,,,,,,,,,,,,,,,60fce1771681bdc5025b872e,61036f8066dec8e5896fc502,2021-07-29_23h19.48.420,Simcolourproject_2stim_asymm_v5,2020.2.10,Win32,60,61025ae37ef11b136ea224fe,,,,,,,,,4330,76,41,1,0,0,response1disk,,6,29,13,1,0,0,rectangle,29,13,1,0,0,29,13,1,0,0,1,18,178,6,1,,,,,,,,
,,,,,,,,,,,,,FF,,,,,,,,0.7172,,,,,,,,,,,,,,,,,,,,,,60fce1771681bdc5025b872e,61036f8066dec8e5896fc502,2021-07-29_23h19.48.420,Simcolourproject_2stim_asymm_v5,2020.2.10,Win32,60,61025ae37ef11b136ea224fe,,,,,,,,,365,35,47,1,0,0,response1disk,,7,23,13,1,0,0,rectangle,23,13,1,0,0,23,13,1,0,0,1,19,179,32,1,,,,,,,,
,,,,,,,,,,,,,FF,,,,,,,,0.8495,,,,,,,,,,,,,,,,,,,,,,60fce1771681bdc5025b872e,61036f8066dec8e5896fc502,2021-07-29_23h19.48.420,Simcolourproject_2stim_asymm_v5,2020.2.10,Win32,60,61025ae37ef11b136ea224fe,,,,,,,,,699,55,39,1,0,0,response1disk,,6,35,14,1,0,0,rectangle,35,14,1,0,0,35,14,1,0,0,1,20,180,111,1,,,,,,,,
,,,,,,,,,,,,,FF,,,,,,,,1.2995,,,,,,,,,,,,,,,,,,,,,,60fce1771681bdc5025b872e,61036f8066dec8e5896fc502,2021-07-29_23h19.48.420,Simcolourproject_2stim_asymm_v5,2020.2.10,Win32,60,61025ae37ef11b136ea224fe,,,,,,,,,4336,-90,-60,1,0,0,response5disk,,2,-40,-6,1,0,0,rectangle,-40,-6,1,0,0,-40,-6,1,0,0,1,21,181,28,1,,,,,,,,
,,,,,,,,,,,,,FF,,,,,,,,0.7662,,,,,,,,,,,,,,,,,,,,,,60fce1771681bdc5025b872e,61036f8066dec8e5896fc502,2021-07-29_23h19.48.420,Simcolourproject_2stim_asymm_v5,2020.2.10,Win32,60,61025ae37ef11b136ea224fe,,,,,,,,,1291,-70,-56,1,0,0,response5disk,,2,-1,-12,1,0,0,rectangle,-1,-12,1,0,0,-1,-12,1,0,0,1,22,182,20,1,,,,,,,,
,,,,,,,,,,,,,FF,,,,,,,,0.7495,,,,,,,,,,,,,,,,,,,,,,60fce1771681bdc5025b872e,61036f8066dec8e5896fc502,2021-07-29_23h19.48.420,Simcolourproject_2stim_asymm_v5,2020.2.10,Win32,60,61025ae37ef11b136ea224fe,,,,,,,,,305,67,-32,1,0,0,response3disk,,5,18,-14,1,0,0,rectangle,27,95,1,0,0,4,13,1,0,0,1,23,183,71,1,,response1disk_3,TRUE,7,7,"[137,23,36,152,306,97,214,310,137,207,157,60,273,76,113,242,126,169,184,221]",1.7499,rectangle
,,,,,,,,,,,,,FF,,,,,,,,0.7667,,,,,,,,,,,,,,,,,,,,,,60fce1771681bdc5025b872e,61036f8066dec8e5896fc502,2021-07-29_23h19.48.420,Simcolourproject_2stim_asymm_v5,2020.2.10,Win32,60,61025ae37ef11b136ea224fe,,,,,,,,,2898,58,-21,1,0,0,response3disk,,5,21,12,1,0,0,rectangle,21,12,1,0,0,21,12,1,0,0,1,24,184,86,1,,,,,,,,
,,,,,,,,,,,,,FF,,,,,,,,1.3501,,,,,,,,,,,,,,,,,,,,,,60fce1771681bdc5025b872e,61036f8066dec8e5896fc502,2021-07-29_23h19.48.420,Simcolourproject_2stim_asymm_v5,2020.2.10,Win32,60,61025ae37ef11b136ea224fe,,,,,,,,,1015,84,-29,1,0,0,response3disk,,5,18,5,1,0,0,rectangle,18,5,1,0,0,18,5,1,0,0,1,25,185,76,1,,,,,,,,
,,,,,,,,,,,,,FF,,,,,,,,1.2661,,,,,,,,,,,,,,,,,,,,,,60fce1771681bdc5025b872e,61036f8066dec8e5896fc502,2021-07-29_23h19.48.420,Simcolourproject_2stim_asymm_v5,2020.2.10,Win32,60,61025ae37ef11b136ea224fe,,,,,,,,,2415,-87,-88,1,0,0,response5disk,,3,-36,-15,1,0,0,rectangle,-36,-15,1,0,0,-36,-15,1,0,0,1,26,186,142,1,,,,,,,,
,,,,,,,,,,,,,FF,,,,,,,,0.7161,,,,,,,,,,,,,,,,,,,,,,60fce1771681bdc5025b872e,61036f8066dec8e5896fc502,2021-07-29_23h19.48.420,Simcolourproject_2stim_asymm_v5,2020.2.10,Win32,60,61025ae37ef11b136ea224fe,,,,,,,,,3599,-80,-54,1,0,0,response5disk,,2,-24,4,1,0,0,rectangle,-24,4,1,0,0,-24,4,1,0,0,1,27,187,121,1,,,,,,,,
,,,,,,,,,,,,,FF,,,,,,,,1.8667,,,,,,,,,,,,,,,,,,,,,,60fce1771681bdc5025b872e,61036f8066dec8e5896fc502,2021-07-29_23h19.48.420,Simcolourproject_2stim_asymm_v5,2020.2.10,Win32,60,61025ae37ef11b136ea224fe,,,,,,,,,3656,81,-56,1,0,0,response3disk,,5,-27,-6,1,0,0,rectangle,-27,-6,1,0,0,-27,-6,1,0,0,1,28,188,131,1,,,,,,,,
,,,,,,,,,,,,,FF,,,,,,,,0.5832,,,,,,,,,,,,,,,,,,,,,,60fce1771681bdc5025b872e,61036f8066dec8e5896fc502,2021-07-29_23h19.48.420,Simcolourproject_2stim_asymm_v5,2020.2.10,Win32,60,61025ae37ef11b136ea224fe,,,,,,,,,791,-53,-70,1,0,0,response5disk,,3,-9,-8,1,0,0,rectangle,-9,-8,1,0,0,-9,-8,1,0,0,1,29,189,89,1,,,,,,,,
,,,,,,,,,,,,,FF,,,,,,,,1.4162,,,,,,,,,,,,,,,,,,,,,,60fce1771681bdc5025b872e,61036f8066dec8e5896fc502,2021-07-29_23h19.48.420,Simcolourproject_2stim_asymm_v5,2020.2.10,Win32,60,61025ae37ef11b136ea224fe,,,,,,,,,3023,43,79,1,0,0,response1disk,,7,19,9,1,0,0,rectangle,19,9,1,0,0,19,9,1,0,0,1,30,190,129,1,,,,,,,,
,,,,,,,,,,,,,FF,,,,,,,,0.9496,,,,,,,,,,,,,,,,,,,,,,60fce1771681bdc5025b872e,61036f8066dec8e5896fc502,2021-07-29_23h19.48.420,Simcolourproject_2stim_asymm_v5,2020.2.10,Win32,60,61025ae37ef11b136ea224fe,,,,,,,,,1711,47,66,1,0,0,response1disk,,7,32,13,1,0,0,rectangle,32,13,1,0,0,32,13,1,0,0,1,31,191,88,1,,,,,,,,
,,,,,,,,,,,,,FF,,,,,,,,1.2329,,,,,,,,,,,,,,,,,,,,,,60fce1771681bdc5025b872e,61036f8066dec8e5896fc502,2021-07-29_23h19.48.420,Simcolourproject_2stim_asymm_v5,2020.2.10,Win32,60,61025ae37ef11b136ea224fe,,,,,,,,,2033,-113,-36,1,0,0,response5disk,,2,-20,13,1,0,0,rectangle,-20,13,1,0,0,-20,13,1,0,0,1,32,192,79,1,,,,,,,,
,,,,,,,,,,,,,FF,,,,,,,,0.9828,,,,,,,,,,,,,,,,,,,,,,60fce1771681bdc5025b872e,61036f8066dec8e5896fc502,2021-07-29_23h19.48.420,Simcolourproject_2stim_asymm_v5,2020.2.10,Win32,60,61025ae37ef11b136ea224fe,,,,,,,,,2771,-43,-70,1,0,0,response5disk,,3,-11,4,1,0,0,rectangle,-11,4,1,0,0,-11,4,1,0,0,1,33,193,73,1,,,,,,,,
,,,,,,,,,,,,,FF,,,,,,,,1.6507,,,,,,,,,,,,,,,,,,,,,,60fce1771681bdc5025b872e,61036f8066dec8e5896fc502,2021-07-29_23h19.48.420,Simcolourproject_2stim_asymm_v5,2020.2.10,Win32,60,61025ae37ef11b136ea224fe,,,,,,,,,301,35,64,1,0,0,response1disk,,7,22,11,1,0,0,rectangle,22,11,1,0,0,22,11,1,0,0,1,34,194,30,1,,,,,,,,
,,,,,,,,,,,,,FF,,,,,,,,0.7827,,,,,,,,,,,,,,,,,,,,,,60fce1771681bdc5025b872e,61036f8066dec8e5896fc502,2021-07-29_23h19.48.420,Simcolourproject_2stim_asymm_v5,2020.2.10,Win32,60,61025ae37ef11b136ea224fe,,,,,,,,,328,46,90,1,0,0,response1disk,,7,34,0,1,0,0,rectangle,34,0,1,0,0,34,0,1,0,0,1,35,195,93,1,,,,,,,,
,,,,,,,,,,,,,FF,,,,,,,,0.7995,,,,,,,,,,,,,,,,,,,,,,60fce1771681bdc5025b872e,61036f8066dec8e5896fc502,2021-07-29_23h19.48.420,Simcolourproject_2stim_asymm_v5,2020.2.10,Win32,60,61025ae37ef11b136ea224fe,,,,,,,,,3273,43,69,1,0,0,response1disk,,7,15,-12,1,0,0,rectangle,15,-12,1,0,0,15,-12,1,0,0,1,36,196,7,1,,,,,,,,
,,,,,,,,,,,,,FF,,,,,,,,0.6666,,,,,,,,,,,,,,,,,,,,,,60fce1771681bdc5025b872e,61036f8066dec8e5896fc502,2021-07-29_23h19.48.420,Simcolourproject_2stim_asymm_v5,2020.2.10,Win32,60,61025ae37ef11b136ea224fe,,,,,,,,,1602,-60,-31,1,0,0,response5disk,,2,-19,5,1,0,0,rectangle,-19,5,1,0,0,-19,5,1,0,0,1,37,197,135,1,,,,,,,,
,,,,,,,,,,,,,FF,,,,,,,,1.4329,,,,,,,,,,,,,,,,,,,,,,60fce1771681bdc5025b872e,61036f8066dec8e5896fc502,2021-07-29_23h19.48.420,Simcolourproject_2stim_asymm_v5,2020.2.10,Win32,60,61025ae37ef11b136ea224fe,,,,,,,,,419,47,-51,1,0,0,response3disk,,4,39,-7,1,0,0,rectangle,39,-7,1,0,0,39,-7,1,0,0,1,38,198,124,1,,,,,,,,
,,,,,,,,,,,,,FF,,,,,,,,1.2673,,,,,,,,,,,,,,,,,,,,,,60fce1771681bdc5025b872e,61036f8066dec8e5896fc502,2021-07-29_23h19.48.420,Simcolourproject_2stim_asymm_v5,2020.2.10,Win32,60,61025ae37ef11b136ea224fe,,,,,,,,,349,-109,-28,1,0,0,response5disk,,2,-12,-1,1,0,0,rectangle,-12,-1,1,0,0,-12,-1,1,0,0,1,39,199,101,1,,,,,,,,
,,,,,,,,,,,,,FF,,,,,,,,0.8667,,,,,,,,,,,,,,,,,,,,,,60fce1771681bdc5025b872e,61036f8066dec8e5896fc502,2021-07-29_23h19.48.420,Simcolourproject_2stim_asymm_v5,2020.2.10,Win32,60,61025ae37ef11b136ea224fe,,,,,,,,,3836,-46,-60,1,0,0,response5disk,,3,-18,-1,1,0,0,rectangle,-18,-1,1,0,0,-18,-1,1,0,0,1,40,200,49,1,,,,,,,,
,,,,,,,,,,,,,FF,,,,,,,,0.8829,,,,,,,,,,,,,,,,,,,,,,60fce1771681bdc5025b872e,61036f8066dec8e5896fc502,2021-07-29_23h19.48.420,Simcolourproject_2stim_asymm_v5,2020.2.10,Win32,60,61025ae37ef11b136ea224fe,,,,,,,,,4001,-73,-45,1,0,0,response5disk,,2,-26,10,1,0,0,rectangle,-26,10,1,0,0,-26,10,1,0,0,1,41,201,154,1,,,,,,,,
,,,,,,,,,,,,,FF,,,,,,,,1.1006,,,,,,,,,,,,,,,,,,,,,,60fce1771681bdc5025b872e,61036f8066dec8e5896fc502,2021-07-29_23h19.48.420,Simcolourproject_2stim_asymm_v5,2020.2.10,Win32,60,61025ae37ef11b136ea224fe,,,,,,,,,1485,41,69,1,0,0,response1disk,,7,20,1,1,0,0,rectangle,20,1,1,0,0,20,1,1,0,0,1,42,202,23,1,,,,,,,,
,,,,,,,,,,,,,FF,,,,,,,,1.0327,,,,,,,,,,,,,,,,,,,,,,60fce1771681bdc5025b872e,61036f8066dec8e5896fc502,2021-07-29_23h19.48.420,Simcolourproject_2stim_asymm_v5,2020.2.10,Win32,60,61025ae37ef11b136ea224fe,,,,,,,,,2836,-81,-55,1,0,0,response5disk,,2,-33,-14,1,0,0,rectangle,-33,-14,1,0,0,-33,-14,1,0,0,1,43,203,5,1,,,,,,,,
,,,,,,,,,,,,,FF,,,,,,,,0.9835,,,,,,,,,,,,,,,,,,,,,,60fce1771681bdc5025b872e,61036f8066dec8e5896fc502,2021-07-29_23h19.48.420,Simcolourproject_2stim_asymm_v5,2020.2.10,Win32,60,61025ae37ef11b136ea224fe,,,,,,,,,3781,-81,38,1,0,0,response7disk,,1,-17,2,1,0,0,rectangle,-17,2,1,0,0,-17,2,1,0,0,1,44,204,54,1,,,,,,,,
,,,,,,,,,,,,,FF,,,,,,,,0.8838,,,,,,,,,,,,,,,,,,,,,,60fce1771681bdc5025b872e,61036f8066dec8e5896fc502,2021-07-29_23h19.48.420,Simcolourproject_2stim_asymm_v5,2020.2.10,Win32,60,61025ae37ef11b136ea224fe,,,,,,,,,1266,39,66,1,0,0,response1disk,,7,22,9,1,0,0,rectangle,22,9,1,0,0,22,9,1,0,0,1,45,205,2,1,,,,,,,,
,,,,,,,,,,,,,FF,,,,,,,,0.7,,,,,,,,,,,,,,,,,,,,,,60fce1771681bdc5025b872e,61036f8066dec8e5896fc502,2021-07-29_23h19.48.420,Simcolourproject_2stim_asymm_v5,2020.2.10,Win32,60,61025ae37ef11b136ea224fe,,,,,,,,,3393,-71,-37,1,0,0,response5disk,,2,-30,-7,1,0,0,rectangle,-99,-85,1,0,0,-10,-10,1,0,0,1,46,206,13,1,,response5disk_3,TRUE,2,3,"[137,23,36,152,306,97,214,310,137,207,157,60,273,76,113,242,126,169,184,221]",1.3325,rectangle
,,,,,,,,,,,,,FF,,,,,,,,2.0662,,,,,,,,,,,,,,,,,,,,,,60fce1771681bdc5025b872e,61036f8066dec8e5896fc502,2021-07-29_23h19.48.420,Simcolourproject_2stim_asymm_v5,2020.2.10,Win32,60,61025ae37ef11b136ea224fe,,,,,,,,,833,40,-68,1,0,0,response3disk,,4,2,-10,1,0,0,rectangle,2,-10,1,0,0,2,-10,1,0,0,1,47,207,12,1,,,,,,,,
,,,,,,,,,,,,,FF,,,,,,,,0.75,,,,,,,,,,,,,,,,,,,,,,60fce1771681bdc5025b872e,61036f8066dec8e5896fc502,2021-07-29_23h19.48.420,Simcolourproject_2stim_asymm_v5,2020.2.10,Win32,60,61025ae37ef11b136ea224fe,,,,,,,,,3585,-81,-55,1,0,0,response5disk,,2,-12,-9,1,0,0,rectangle,-12,-9,1,0,0,-12,-9,1,0,0,1,48,208,33,1,,,,,,,,
,,,,,,,,,,,,,FF,,,,,,,,2.5341,,,,,,,,,,,,,,,,,,,,,,60fce1771681bdc5025b872e,61036f8066dec8e5896fc502,2021-07-29_23h19.48.420,Simcolourproject_2stim_asymm_v5,2020.2.10,Win32,60,61025ae37ef11b136ea224fe,,,,,,,,,3169,36,-32,1,0,0,response3disk,,5,10,-11,1,0,0,rectangle,10,-11,1,0,0,10,-11,1,0,0,1,49,209,19,1,,,,,,,,
,,,,,,,,,,,,,FF,,,,,,,,1.1995,,,,,,,,,,,,,,,,,,,,,,60fce1771681bdc5025b872e,61036f8066dec8e5896fc502,2021-07-29_23h19.48.420,Simcolourproject_2stim_asymm_v5,2020.2.10,Win32,60,61025ae37ef11b136ea224fe,,,,,,,,,1785,38,36,1,0,0,response1disk,,6,16,17,1,0,0,rectangle,16,17,1,0,0,16,17,1,0,0,1,50,210,70,1,,,,,,,,
,,,,,,,,,,,,,FF,,,,,,,,0.6328,,,,,,,,,,,,,,,,,,,,,,60fce1771681bdc5025b872e,61036f8066dec8e5896fc502,2021-07-29_23h19.48.420,Simcolourproject_2stim_asymm_v5,2020.2.10,Win32,60,61025ae37ef11b136ea224fe,,,,,,,,,2852,29,65,1,0,0,response1disk,,7,25,16,1,0,0,rectangle,25,16,1,0,0,25,16,1,0,0,1,51,211,39,1,,,,,,,,
,,,,,,,,,,,,,FF,,,,,,,,2.4836,,,,,,,,,,,,,,,,,,,,,,60fce1771681bdc5025b872e,61036f8066dec8e5896fc502,2021-07-29_23h19.48.420,Simcolourproject_2stim_asymm_v5,2020.2.10,Win32,60,61025ae37ef11b136ea224fe,,,,,,,,,1320,51,33,1,0,0,response1disk,,6,29,13,1,0,0,rectangle,29,13,1,0,0,29,13,1,0,0,1,52,212,55,1,,,,,,,,
,,,,,,,,,,,,,FF,,,,,,,,2.3829,,,,,,,,,,,,,,,,,,,,,,60fce1771681bdc5025b872e,61036f8066dec8e5896fc502,2021-07-29_23h19.48.420,Simcolourproject_2stim_asymm_v5,2020.2.10,Win32,60,61025ae37ef11b136ea224fe,,,,,,,,,3523,-49,-21,1,0,0,response5disk,,2,9,15,1,0,0,rectangle,76,38,1,0,0,14,5,1,0,0,1,53,213,37,1,,response1disk_3,TRUE,6,6,"[137,23,36,152,306,97,214,310,137,207,157,60,273,76,113,242,126,169,184,221]",1.4824,rectangle
,,,,,,,,,,,,,FF,,,,,,,,0.8841,,,,,,,,,,,,,,,,,,,,,,60fce1771681bdc5025b872e,61036f8066dec8e5896fc502,2021-07-29_23h19.48.420,Simcolourproject_2stim_asymm_v5,2020.2.10,Win32,60,61025ae37ef11b136ea224fe,,,,,,,,,2334,27,-40,1,0,0,response3disk,,4,22,-1,1,0,0,rectangle,22,-1,1,0,0,22,-1,1,0,0,1,54,214,134,1,,,,,,,,
,,,,,,,,,,,,,FF,,,,,,,,2.4161,,,,,,,,,,,,,,,,,,,,,,60fce1771681bdc5025b872e,61036f8066dec8e5896fc502,2021-07-29_23h19.48.420,Simcolourproject_2stim_asymm_v5,2020.2.10,Win32,60,61025ae37ef11b136ea224fe,,,,,,,,,290,38,-76,1,0,0,response3disk,,4,16,6,1,0,0,rectangle,16,6,1,0,0,16,6,1,0,0,1,55,215,151,1,,,,,,,,
,,,,,,,,,,,,,FF,,,,,,,,0.5994,,,,,,,,,,,,,,,,,,,,,,60fce1771681bdc5025b872e,61036f8066dec8e5896fc502,2021-07-29_23h19.48.420,Simcolourproject_2stim_asymm_v5,2020.2.10,Win32,60,61025ae37ef11b136ea224fe,,,,,,,,,4315,31,49,1,0,0,response1disk,,7,29,1,1,0,0,rectangle,29,1,1,0,0,29,1,1,0,0,1,56,216,104,1,,,,,,,,
,,,,,,,,,,,,,FF,,,,,,,,1.0172,,,,,,,,,,,,,,,,,,,,,,60fce1771681bdc5025b872e,61036f8066dec8e5896fc502,2021-07-29_23h19.48.420,Simcolourproject_2stim_asymm_v5,2020.2.10,Win32,60,61025ae37ef11b136ea224fe,,,,,,,,,2113,70,42,1,0,0,response1disk,,6,24,9,1,0,0,rectangle,24,9,1,0,0,24,9,1,0,0,1,57,217,44,1,,,,,,,,
,,,,,,,,,,,,,FF,,,,,,,,1.2333,,,,,,,,,,,,,,,,,,,,,,60fce1771681bdc5025b872e,61036f8066dec8e5896fc502,2021-07-29_23h19.48.420,Simcolourproject_2stim_asymm_v5,2020.2.10,Win32,60,61025ae37ef11b136ea224fe,,,,,,,,,4289,40,62,1,0,0,response1disk,,7,30,18,1,0,0,rectangle,30,18,1,0,0,30,18,1,0,0,1,58,218,47,1,,,,,,,,
,,,,,,,,,,,,,FF,,,,,,,,1.4334,,,,,,,,,,,,,,,,,,,,,,60fce1771681bdc5025b872e,61036f8066dec8e5896fc502,2021-07-29_23h19.48.420,Simcolourproject_2stim_asymm_v5,2020.2.10,Win32,60,61025ae37ef11b136ea224fe,,,,,,,,,998,43,-48,1,0,0,response3disk,,4,44,-13,1,0,0,rectangle,44,-13,1,0,0,44,-13,1,0,0,1,59,219,35,1,,,,,,,,
,,,,,,,,,,,,,FF,,,,,,,,0.8001,,,,,,,,,,,,,,,,,,,,,,60fce1771681bdc5025b872e,61036f8066dec8e5896fc502,2021-07-29_23h19.48.420,Simcolourproject_2stim_asymm_v5,2020.2.10,Win32,60,61025ae37ef11b136ea224fe,,,,,,,,,581,36,-43,1,0,0,response3disk,,4,36,-5,1,0,0,rectangle,33,-63,1,0,0,19,-11,1,0,0,1,60,220,58,1,,response3disk_3,TRUE,4,4,"[137,23,36,152,306,97,214,310,137,207,157,60,273,76,113,242,126,169,184,221]",1.2004,rectangle
,,,,,,,,,,,,,FF,,,,,,,,1.6161,,,,,,,,,,,,,,,,,,,,,,60fce1771681bdc5025b872e,61036f8066dec8e5896fc502,2021-07-29_23h19.48.420,Simcolourproject_2stim_asymm_v5,2020.2.10,Win32,60,61025ae37ef11b136ea224fe,,,,,,,,,2884,35,47,1,0,0,response1disk,,7,33,14,1,0,0,rectangle,33,14,1,0,0,33,14,1,0,0,1,61,221,85,1,,,,,,,,
,,,,,,,,,,,,,FF,,,,,,,,0.7028,,,,,,,,,,,,,,,,,,,,,,60fce1771681bdc5025b872e,61036f8066dec8e5896fc502,2021-07-29_23h19.48.420,Simcolourproject_2stim_asymm_v5,2020.2.10,Win32,60,61025ae37ef11b136ea224fe,,,,,,,,,1143,-112,-62,1,0,0,response5disk,,2,-20,1,1,0,0,rectangle,-20,1,1,0,0,-20,1,1,0,0,1,62,222,156,1,,,,,,,,
,,,,,,,,,,,,,FF,,,,,,,,0.6496,,,,,,,,,,,,,,,,,,,,,,60fce1771681bdc5025b872e,61036f8066dec8e5896fc502,2021-07-29_23h19.48.420,Simcolourproject_2stim_asymm_v5,2020.2.10,Win32,60,61025ae37ef11b136ea224fe,,,,,,,,,1454,-84,45,1,0,0,response7disk,,1,-38,14,1,0,0,rectangle,-38,14,1,0,0,-38,14,1,0,0,1,63,223,22,1,,,,,,,,
,,,,,,,,,,,,,FF,,,,,,,,0.9167,,,,,,,,,,,,,,,,,,,,,,60fce1771681bdc5025b872e,61036f8066dec8e5896fc502,2021-07-29_23h19.48.420,Simcolourproject_2stim_asymm_v5,2020.2.10,Win32,60,61025ae37ef11b136ea224fe,,,,,,,,,3398,-67,-48,1,0,0,response5disk,,2,-8,-1,1,0,0,rectangle,-8,-1,1,0,0,-8,-1,1,0,0,1,64,224,96,1,,,,,,,,
,,,,,,,,,,,,,FF,,,,,,,,0.7672,,,,,,,,,,,,,,,,,,,,,,60fce1771681bdc5025b872e,61036f8066dec8e5896fc502,2021-07-29_23h19.48.420,Simcolourproject_2stim_asymm_v5,2020.2.10,Win32,60,61025ae37ef11b136ea224fe,,,,,,,,,1520,28,57,1,0,0,response1disk,,7,8,9,1,0,0,rectangle,8,9,1,0,0,8,9,1,0,0,1,65,225,105,1,,,,,,,,
,,,,,,,,,,,,,FF,,,,,,,,1.0332,,,,,,,,,,,,,,,,,,,,,,60fce1771681bdc5025b872e,61036f8066dec8e5896fc502,2021-07-29_23h19.48.420,Simcolourproject_2stim_asymm_v5,2020.2.10,Win32,60,61025ae37ef11b136ea224fe,,,,,,,,,343,-43,-60,1,0,0,response5disk,,3,-24,-8,1,0,0,rectangle,-24,-8,1,0,0,-24,-8,1,0,0,1,66,226,119,1,,,,,,,,
,,,,,,,,,,,,,FF,,,,,,,,0.6668,,,,,,,,,,,,,,,,,,,,,,60fce1771681bdc5025b872e,61036f8066dec8e5896fc502,2021-07-29_23h19.48.420,Simcolourproject_2stim_asymm_v5,2020.2.10,Win32,60,61025ae37ef11b136ea224fe,,,,,,,,,907,-79,-38,1,0,0,response5disk,,2,-46,-10,1,0,0,rectangle,-46,-10,1,0,0,-46,-10,1,0,0,1,67,227,143,1,,,,,,,,
,,,,,,,,,,,,,FF,,,,,,,,0.6835,,,,,,,,,,,,,,,,,,,,,,60fce1771681bdc5025b872e,61036f8066dec8e5896fc502,2021-07-29_23h19.48.420,Simcolourproject_2stim_asymm_v5,2020.2.10,Win32,60,61025ae37ef11b136ea224fe,,,,,,,,,697,-36,-59,1,0,0,response5disk,,3,-17,-11,1,0,0,rectangle,-17,-11,1,0,0,-17,-11,1,0,0,1,68,228,117,1,,,,,,,,
,,,,,,,,,,,,,FF,,,,,,,,0.6995,,,,,,,,,,,,,,,,,,,,,,60fce1771681bdc5025b872e,61036f8066dec8e5896fc502,2021-07-29_23h19.48.420,Simcolourproject_2stim_asymm_v5,2020.2.10,Win32,60,61025ae37ef11b136ea224fe,,,,,,,,,2751,32,50,1,0,0,response1disk,,7,14,5,1,0,0,rectangle,14,5,1,0,0,14,5,1,0,0,1,69,229,18,1,,,,,,,,
,,,,,,,,,,,,,FF,,,,,,,,0.8329,,,,,,,,,,,,,,,,,,,,,,60fce1771681bdc5025b872e,61036f8066dec8e5896fc502,2021-07-29_23h19.48.420,Simcolourproject_2stim_asymm_v5,2020.2.10,Win32,60,61025ae37ef11b136ea224fe,,,,,,,,,2164,-88,-25,1,0,0,response5disk,,2,-35,-4,1,0,0,rectangle,-35,-4,1,0,0,-35,-4,1,0,0,1,70,230,63,1,,,,,,,,
,,,,,,,,,,,,,FF,,,,,,,,1.4334,,,,,,,,,,,,,,,,,,,,,,60fce1771681bdc5025b872e,61036f8066dec8e5896fc502,2021-07-29_23h19.48.420,Simcolourproject_2stim_asymm_v5,2020.2.10,Win32,60,61025ae37ef11b136ea224fe,,,,,,,,,3877,-37,-44,1,0,0,response5disk,,3,-32,-10,1,0,0,rectangle,-32,-10,1,0,0,-32,-10,1,0,0,1,71,231,113,1,,,,,,,,
,,,,,,,,,,,,,FF,,,,,,,,0.9661,,,,,,,,,,,,,,,,,,,,,,60fce1771681bdc5025b872e,61036f8066dec8e5896fc502,2021-07-29_23h19.48.420,Simcolourproject_2stim_asymm_v5,2020.2.10,Win32,60,61025ae37ef11b136ea224fe,,,,,,,,,1712,34,52,1,0,0,response1disk,,7,14,1,1,0,0,rectangle,14,1,1,0,0,14,1,1,0,0,1,72,232,82,1,,,,,,,,
,,,,,,,,,,,,,FF,,,,,,,,0.8172,,,,,,,,,,,,,,,,,,,,,,60fce1771681bdc5025b872e,61036f8066dec8e5896fc502,2021-07-29_23h19.48.420,Simcolourproject_2stim_asymm_v5,2020.2.10,Win32,60,61025ae37ef11b136ea224fe,,,,,,,,,881,40,74,1,0,0,response1disk,,7,21,8,1,0,0,rectangle,21,8,1,0,0,21,8,1,0,0,1,73,233,145,1,,,,,,,,
,,,,,,,,,,,,,FF,,,,,,,,0.9661,,,,,,,,,,,,,,,,,,,,,,60fce1771681bdc5025b872e,61036f8066dec8e5896fc502,2021-07-29_23h19.48.420,Simcolourproject_2stim_asymm_v5,2020.2.10,Win32,60,61025ae37ef11b136ea224fe,,,,,,,,,1476,61,42,1,0,0,response1disk,,6,30,9,1,0,0,rectangle,30,9,1,0,0,30,9,1,0,0,1,74,234,132,1,,,,,,,,
,,,,,,,,,,,,,FF,,,,,,,,0.8161,,,,,,,,,,,,,,,,,,,,,,60fce1771681bdc5025b872e,61036f8066dec8e5896fc502,2021-07-29_23h19.48.420,Simcolourproject_2stim_asymm_v5,2020.2.10,Win32,60,61025ae37ef11b136ea224fe,,,,,,,,,1305,-80,-55,1,0,0,response5disk,,2,-13,9,1,0,0,rectangle,-13,9,1,0,0,-13,9,1,0,0,1,75,235,40,1,,,,,,,,
,,,,,,,,,,,,,FF,,,,,,,,0.7667,,,,,,,,,,,,,,,,,,,,,,60fce1771681bdc5025b872e,61036f8066dec8e5896fc502,2021-07-29_23h19.48.420,Simcolourproject_2stim_asymm_v5,2020.2.10,Win32,60,61025ae37ef11b136ea224fe,,,,,,,,,2890,-73,-53,1,0,0,response5disk,,2,-13,-13,1,0,0,rectangle,-13,-13,1,0,0,-13,-13,1,0,0,1,76,236,77,1,,,,,,,,
,,,,,,,,,,,,,FF,,,,,,,,1.5,,,,,,,,,,,,,,,,,,,,,,60fce1771681bdc5025b872e,61036f8066dec8e5896fc502,2021-07-29_23h19.48.420,Simcolourproject_2stim_asymm_v5,2020.2.10,Win32,60,61025ae37ef11b136ea224fe,,,,,,,,,685,50,-22,1,0,0,response3disk,,5,-6,-6,1,0,0,rectangle,-6,-6,1,0,0,-6,-6,1,0,0,1,77,237,106,1,,,,,,,,
,,,,,,,,,,,,,FF,,,,,,,,1.0168,,,,,,,,,,,,,,,,,,,,,,60fce1771681bdc5025b872e,61036f8066dec8e5896fc502,2021-07-29_23h19.48.420,Simcolourproject_2stim_asymm_v5,2020.2.10,Win32,60,61025ae37ef11b136ea224fe,,,,,,,,,2844,37,-67,1,0,0,response3disk,,4,16,-6,1,0,0,rectangle,16,-6,1,0,0,16,-6,1,0,0,1,78,238,16,1,,,,,,,,
,,,,,,,,,,,,,FF,,,,,,,,1.0494,,,,,,,,,,,,,,,,,,,,,,60fce1771681bdc5025b872e,61036f8066dec8e5896fc502,2021-07-29_23h19.48.420,Simcolourproject_2stim_asymm_v5,2020.2.10,Win32,60,61025ae37ef11b136ea224fe,,,,,,,,,1789,43,62,1,0,0,response1disk,,7,31,2,1,0,0,rectangle,31,2,1,0,0,31,2,1,0,0,1,79,239,128,1,,,,,,,,
,,,,,,,,,,,,,FF,,,,,,,,1.55,,,,,,,,,,,,,,,,,,,,,,60fce1771681bdc5025b872e,61036f8066dec8e5896fc502,2021-07-29_23h19.48.420,Simcolourproject_2stim_asymm_v5,2020.2.10,Win32,60,61025ae37ef11b136ea224fe,,,,,,,,,2109,61,28,1,0,0,response1disk,,6,17,-11,1,0,0,rectangle,17,-11,1,0,0,17,-11,1,0,0,1,80,240,123,1,,,,,,,,
,,,,,,,,,,,,,FF,,,,,,,,0.7331,,,,,,,,,,,,,,,,,,,,,,60fce1771681bdc5025b872e,61036f8066dec8e5896fc502,2021-07-29_23h19.48.420,Simcolourproject_2stim_asymm_v5,2020.2.10,Win32,60,61025ae37ef11b136ea224fe,,,,,,,,,862,-79,-39,1,0,0,response5disk,,2,-25,-9,1,0,0,rectangle,63,114,1,0,0,31,9,1,0,0,1,81,241,122,1,,response1disk_3,TRUE,7,7,"[137,23,36,152,306,97,214,310,137,207,157,60,273,76,113,242,126,169,184,221]",1.1491,rectangle
,,,,,,,,,,,,,FF,,,,,,,,1.5501,,,,,,,,,,,,,,,,,,,,,,60fce1771681bdc5025b872e,61036f8066dec8e5896fc502,2021-07-29_23h19.48.420,Simcolourproject_2stim_asymm_v5,2020.2.10,Win32,60,61025ae37ef11b136ea224fe,,,,,,,,,1511,46,-36,1,0,0,response3disk,,5,23,-6,1,0,0,rectangle,23,-6,1,0,0,23,-6,1,0,0,1,82,242,31,1,,,,,,,,
,,,,,,,,,,,,,FF,,,,,,,,0.8495,,,,,,,,,,,,,,,,,,,,,,60fce1771681bdc5025b872e,61036f8066dec8e5896fc502,2021-07-29_23h19.48.420,Simcolourproject_2stim_asymm_v5,2020.2.10,Win32,60,61025ae37ef11b136ea224fe,,,,,,,,,3085,33,87,1,0,0,response1disk,,7,39,4,1,0,0,rectangle,39,4,1,0,0,39,4,1,0,0,1,83,243,0,1,,,,,,,,
,,,,,,,,,,,,,FF,,,,,,,,0.6828,,,,,,,,,,,,,,,,,,,,,,60fce1771681bdc5025b872e,61036f8066dec8e5896fc502,2021-07-29_23h19.48.420,Simcolourproject_2stim_asymm_v5,2020.2.10,Win32,60,61025ae37ef11b136ea224fe,,,,,,,,,2314,63,33,1,0,0,response1disk,,6,31,5,1,0,0,rectangle,31,5,1,0,0,31,5,1,0,0,1,84,244,95,1,,,,,,,,
,,,,,,,,,,,,,FF,,,,,,,,0.8995,,,,,,,,,,,,,,,,,,,,,,60fce1771681bdc5025b872e,61036f8066dec8e5896fc502,2021-07-29_23h19.48.420,Simcolourproject_2stim_asymm_v5,2020.2.10,Win32,60,61025ae37ef11b136ea224fe,,,,,,,,,1653,45,60,1,0,0,response1disk,,7,19,3,1,0,0,rectangle,19,3,1,0,0,19,3,1,0,0,1,85,245,61,1,,,,,,,,
,,,,,,,,,,,,,FF,,,,,,,,0.7167,,,,,,,,,,,,,,,,,,,,,,60fce1771681bdc5025b872e,61036f8066dec8e5896fc502,2021-07-29_23h19.48.420,Simcolourproject_2stim_asymm_v5,2020.2.10,Win32,60,61025ae37ef11b136ea224fe,,,,,,,,,2938,39,55,1,0,0,response1disk,,7,15,2,1,0,0,rectangle,15,2,1,0,0,15,2,1,0,0,1,86,246,24,1,,,,,,,,
,,,,,,,,,,,,,FF,,,,,,,,0.7495,,,,,,,,,,,,,,,,,,,,,,60fce1771681bdc5025b872e,61036f8066dec8e5896fc502,2021-07-29_23h19.48.420,Simcolourproject_2stim_asymm_v5,2020.2.10,Win32,60,61025ae37ef11b136ea224fe,,,,,,,,,108,-88,-43,1,0,0,response5disk,,2,-16,-10,1,0,0,rectangle,-16,-10,1,0,0,-16,-10,1,0,0,1,87,247,108,1,,,,,,,,
,,,,,,,,,,,,,FF,,,,,,,,0.9162,,,,,,,,,,,,,,,,,,,,,,60fce1771681bdc5025b872e,61036f8066dec8e5896fc502,2021-07-29_23h19.48.420,Simcolourproject_2stim_asymm_v5,2020.2.10,Win32,60,61025ae37ef11b136ea224fe,,,,,,,,,1217,-48,-57,1,0,0,response5disk,,3,-42,-6,1,0,0,rectangle,-42,-6,1,0,0,-42,-6,1,0,0,1,88,248,146,1,,,,,,,,
,,,,,,,,,,,,,FF,,,,,,,,1.3496,,,,,,,,,,,,,,,,,,,,,,60fce1771681bdc5025b872e,61036f8066dec8e5896fc502,2021-07-29_23h19.48.420,Simcolourproject_2stim_asymm_v5,2020.2.10,Win32,60,61025ae37ef11b136ea224fe,,,,,,,,,3179,50,-34,1,0,0,response3disk,,5,26,-2,1,0,0,rectangle,26,-2,1,0,0,26,-2,1,0,0,1,89,249,41,1,,,,,,,,
,,,,,,,,,,,,,FF,,,,,,,,0.9993,,,,,,,,,,,,,,,,,,,,,,60fce1771681bdc5025b872e,61036f8066dec8e5896fc502,2021-07-29_23h19.48.420,Simcolourproject_2stim_asymm_v5,2020.2.10,Win32,60,61025ae37ef11b136ea224fe,,,,,,,,,923,54,73,1,0,0,response1disk,,7,32,5,1,0,0,rectangle,32,5,1,0,0,32,5,1,0,0,1,90,250,64,1,,,,,,,,
,,,,,,,,,,,,,FF,,,,,,,,0.6668,,,,,,,,,,,,,,,,,,,,,,60fce1771681bdc5025b872e,61036f8066dec8e5896fc502,2021-07-29_23h19.48.420,Simcolourproject_2stim_asymm_v5,2020.2.10,Win32,60,61025ae37ef11b136ea224fe,,,,,,,,,3297,-66,-45,1,0,0,response5disk,,2,-18,-16,1,0,0,rectangle,-18,-16,1,0,0,-18,-16,1,0,0,1,91,251,118,1,,,,,,,,
,,,,,,,,,,,,,FF,,,,,,,,1.4169,,,,,,,,,,,,,,,,,,,,,,60fce1771681bdc5025b872e,61036f8066dec8e5896fc502,2021-07-29_23h19.48.420,Simcolourproject_2stim_asymm_v5,2020.2.10,Win32,60,61025ae37ef11b136ea224fe,,,,,,,,,1028,45,-53,1,0,0,response3disk,,4,31,-9,1,0,0,rectangle,31,-9,1,0,0,31,-9,1,0,0,1,92,252,147,1,,,,,,,,
,,,,,,,,,,,,,FF,,,,,,,,0.6005,,,,,,,,,,,,,,,,,,,,,,60fce1771681bdc5025b872e,61036f8066dec8e5896fc502,2021-07-29_23h19.48.420,Simcolourproject_2stim_asymm_v5,2020.2.10,Win32,60,61025ae37ef11b136ea224fe,,,,,,,,,2419,-89,-23,1,0,0,response5disk,,2,-28,4,1,0,0,rectangle,-28,4,1,0,0,-28,4,1,0,0,1,93,253,1,1,,,,,,,,
,,,,,,,,,,,,,FF,,,,,,,,0.6999,,,,,,,,,,,,,,,,,,,,,,60fce1771681bdc5025b872e,61036f8066dec8e5896fc502,2021-07-29_23h19.48.420,Simcolourproject_2stim_asymm_v5,2020.2.10,Win32,60,61025ae37ef11b136ea224fe,,,,,,,,,282,-67,-53,1,0,0,response5disk,,2,-27,-8,1,0,0,rectangle,-27,-8,1,0,0,-27,-8,1,0,0,1,94,254,3,1,,,,,,,,
,,,,,,,,,,,,,FF,,,,,,,,1.1999,,,,,,,,,,,,,,,,,,,,,,60fce1771681bdc5025b872e,61036f8066dec8e5896fc502,2021-07-29_23h19.48.420,Simcolourproject_2stim_asymm_v5,2020.2.10,Win32,60,61025ae37ef11b136ea224fe,,,,,,,,,2156,53,-47,1,0,0,response3disk,,5,13,-17,1,0,0,rectangle,13,-17,1,0,0,13,-17,1,0,0,1,95,255,8,1,,,,,,,,
,,,,,,,,,,,,,FF,,,,,,,,1,,,,,,,,,,,,,,,,,,,,,,60fce1771681bdc5025b872e,61036f8066dec8e5896fc502,2021-07-29_23h19.48.420,Simcolourproject_2stim_asymm_v5,2020.2.10,Win32,60,61025ae37ef11b136ea224fe,,,,,,,,,3575,33,72,1,0,0,response1disk,,7,15,6,1,0,0,rectangle,15,6,1,0,0,15,6,1,0,0,1,96,256,107,1,,,,,,,,
,,,,,,,,,,,,,FF,,,,,,,,0.9502,,,,,,,,,,,,,,,,,,,,,,60fce1771681bdc5025b872e,61036f8066dec8e5896fc502,2021-07-29_23h19.48.420,Simcolourproject_2stim_asymm_v5,2020.2.10,Win32,60,61025ae37ef11b136ea224fe,,,,,,,,,3222,47,53,1,0,0,response1disk,,7,24,2,1,0,0,rectangle,24,2,1,0,0,24,2,1,0,0,1,97,257,14,1,,,,,,,,
,,,,,,,,,,,,,FF,,,,,,,,0.633,,,,,,,,,,,,,,,,,,,,,,60fce1771681bdc5025b872e,61036f8066dec8e5896fc502,2021-07-29_23h19.48.420,Simcolourproject_2stim_asymm_v5,2020.2.10,Win32,60,61025ae37ef11b136ea224fe,,,,,,,,,3330,-111,-59,1,0,0,response5disk,,2,-29,-5,1,0,0,rectangle,-29,-5,1,0,0,-29,-5,1,0,0,1,98,258,133,1,,,,,,,,
,,,,,,,,,,,,,FF,,,,,,,,0.9162,,,,,,,,,,,,,,,,,,,,,,60fce1771681bdc5025b872e,61036f8066dec8e5896fc502,2021-07-29_23h19.48.420,Simcolourproject_2stim_asymm_v5,2020.2.10,Win32,60,61025ae37ef11b136ea224fe,,,,,,,,,672,72,-33,1,0,0,response3disk,,5,17,-7,1,0,0,rectangle,17,-7,1,0,0,17,-7,1,0,0,1,99,259,25,1,,,,,,,,
,,,,,,,,,,,,,FF,,,,,,,,0.8493,,,,,,,,,,,,,,,,,,,,,,60fce1771681bdc5025b872e,61036f8066dec8e5896fc502,2021-07-29_23h19.48.420,Simcolourproject_2stim_asymm_v5,2020.2.10,Win32,60,61025ae37ef11b136ea224fe,,,,,,,,,1087,31,40,1,0,0,response1disk,,7,25,2,1,0,0,rectangle,25,2,1,0,0,25,2,1,0,0,1,100,260,57,1,,,,,,,,
,,,,,,,,,,,,,FF,,,,,,,,1.6496,,,,,,,,,,,,,,,,,,,,,,60fce1771681bdc5025b872e,61036f8066dec8e5896fc502,2021-07-29_23h19.48.420,Simcolourproject_2stim_asymm_v5,2020.2.10,Win32,60,61025ae37ef11b136ea224fe,,,,,,,,,3701,78,-36,1,0,0,response3disk,,5,0,12,1,0,0,rectangle,0,12,1,0,0,0,12,1,0,0,1,101,261,43,1,,,,,,,,
,,,,,,,,,,,,,FF,,,,,,,,2.6495,,,,,,,,,,,,,,,,,,,,,,60fce1771681bdc5025b872e,61036f8066dec8e5896fc502,2021-07-29_23h19.48.420,Simcolourproject_2stim_asymm_v5,2020.2.10,Win32,60,61025ae37ef11b136ea224fe,,,,,,,,,955,61,-78,1,0,0,response3disk,,4,20,-2,1,0,0,rectangle,20,-2,1,0,0,20,-2,1,0,0,1,102,262,84,1,,,,,,,,
,,,,,,,,,,,,,FF,,,,,,,,1.0334,,,,,,,,,,,,,,,,,,,,,,60fce1771681bdc5025b872e,61036f8066dec8e5896fc502,2021-07-29_23h19.48.420,Simcolourproject_2stim_asymm_v5,2020.2.10,Win32,60,61025ae37ef11b136ea224fe,,,,,,,,,2611,-36,-97,1,0,0,response5disk,,3,-34,12,1,0,0,rectangle,-34,12,1,0,0,-34,12,1,0,0,1,103,263,53,1,,,,,,,,
,,,,,,,,,,,,,FF,,,,,,,,1.25,,,,,,,,,,,,,,,,,,,,,,60fce1771681bdc5025b872e,61036f8066dec8e5896fc502,2021-07-29_23h19.48.420,Simcolourproject_2stim_asymm_v5,2020.2.10,Win32,60,61025ae37ef11b136ea224fe,,,,,,,,,1883,34,-78,1,0,0,response3disk,,4,15,5,1,0,0,rectangle,15,5,1,0,0,15,5,1,0,0,1,104,264,83,1,,,,,,,,
,,,,,,,,,,,,,FF,,,,,,,,1.05,,,,,,,,,,,,,,,,,,,,,,60fce1771681bdc5025b872e,61036f8066dec8e5896fc502,2021-07-29_23h19.48.420,Simcolourproject_2stim_asymm_v5,2020.2.10,Win32,60,61025ae37ef11b136ea224fe,,,,,,,,,3961,73,-34,1,0,0,response3disk,,5,41,-4,1,0,0,rectangle,41,-4,1,0,0,41,-4,1,0,0,1,105,265,92,1,,,,,,,,
,,,,,,,,,,,,,FF,,,,,,,,1.2172,,,,,,,,,,,,,,,,,,,,,,60fce1771681bdc5025b872e,61036f8066dec8e5896fc502,2021-07-29_23h19.48.420,Simcolourproject_2stim_asymm_v5,2020.2.10,Win32,60,61025ae37ef11b136ea224fe,,,,,,,,,3543,30,-58,1,0,0,response3disk,,4,19,-2,1,0,0,rectangle,19,-2,1,0,0,19,-2,1,0,0,1,106,266,103,1,,,,,,,,
,,,,,,,,,,,,,FF,,,,,,,,1.2834,,,,,,,,,,,,,,,,,,,,,,60fce1771681bdc5025b872e,61036f8066dec8e5896fc502,2021-07-29_23h19.48.420,Simcolourproject_2stim_asymm_v5,2020.2.10,Win32,60,61025ae37ef11b136ea224fe,,,,,,,,,519,31,53,1,0,0,response1disk,,7,17,17,1,0,0,rectangle,17,17,1,0,0,17,17,1,0,0,1,107,267,67,1,,,,,,,,
,,,,,,,,,,,,,FF,,,,,,,,0.7,,,,,,,,,,,,,,,,,,,,,,60fce1771681bdc5025b872e,61036f8066dec8e5896fc502,2021-07-29_23h19.48.420,Simcolourproject_2stim_asymm_v5,2020.2.10,Win32,60,61025ae37ef11b136ea224fe,,,,,,,,,3593,-69,-39,1,0,0,response5disk,,2,-10,-3,1,0,0,rectangle,-10,-3,1,0,0,-10,-3,1,0,0,1,108,268,56,1,,,,,,,,
,,,,,,,,,,,,,FF,,,,,,,,0.7828,,,,,,,,,,,,,,,,,,,,,,60fce1771681bdc5025b872e,61036f8066dec8e5896fc502,2021-07-29_23h19.48.420,Simcolourproject_2stim_asymm_v5,2020.2.10,Win32,60,61025ae37ef11b136ea224fe,,,,,,,,,1924,74,-43,1,0,0,response3disk,,5,19,1,1,0,0,rectangle,19,1,1,0,0,19,1,1,0,0,1,109,269,59,1,,,,,,,,
,,,,,,,,,,,,,FF,,,,,,,,1.0833,,,,,,,,,,,,,,,,,,,,,,60fce1771681bdc5025b872e,61036f8066dec8e5896fc502,2021-07-29_23h19.48.420,Simcolourproject_2stim_asymm_v5,2020.2.10,Win32,60,61025ae37ef11b136ea224fe,,,,,,,,,4035,-54,-64,1,0,0,response5disk,,3,-38,-2,1,0,0,rectangle,-38,-2,1,0,0,-38,-2,1,0,0,1,110,270,152,1,,,,,,,,
,,,,,,,,,,,,,FF,,,,,,,,0.8,,,,,,,,,,,,,,,,,,,,,,60fce1771681bdc5025b872e,61036f8066dec8e5896fc502,2021-07-29_23h19.48.420,Simcolourproject_2stim_asymm_v5,2020.2.10,Win32,60,61025ae37ef11b136ea224fe,,,,,,,,,849,42,55,1,0,0,response1disk,,7,11,4,1,0,0,rectangle,11,4,1,0,0,11,4,1,0,0,1,111,271,153,1,,,,,,,,
,,,,,,,,,,,,,FF,,,,,,,,1.033,,,,,,,,,,,,,,,,,,,,,,60fce1771681bdc5025b872e,61036f8066dec8e5896fc502,2021-07-29_23h19.48.420,Simcolourproject_2stim_asymm_v5,2020.2.10,Win32,60,61025ae37ef11b136ea224fe,,,,,,,,,1840,66,43,1,0,0,response1disk,,6,27,5,1,0,0,rectangle,-54,86,1,0,0,-11,6,1,0,0,1,112,272,125,1,,response7disk_3,TRUE,0,0,"[137,23,36,152,306,97,214,310,137,207,157,60,273,76,113,242,126,169,184,221]",1.6832,rectangle
,,,,,,,,,,,,,FF,,,,,,,,1.2327,,,,,,,,,,,,,,,,,,,,,,60fce1771681bdc5025b872e,61036f8066dec8e5896fc502,2021-07-29_23h19.48.420,Simcolourproject_2stim_asymm_v5,2020.2.10,Win32,60,61025ae37ef11b136ea224fe,,,,,,,,,1694,49,-54,1,0,0,response3disk,,4,26,-6,1,0,0,rectangle,26,-6,1,0,0,26,-6,1,0,0,1,113,273,42,1,,,,,,,,
,,,,,,,,,,,,,FF,,,,,,,,1.0829,,,,,,,,,,,,,,,,,,,,,,60fce1771681bdc5025b872e,61036f8066dec8e5896fc502,2021-07-29_23h19.48.420,Simcolourproject_2stim_asymm_v5,2020.2.10,Win32,60,61025ae37ef11b136ea224fe,,,,,,,,,3900,-56,-41,1,0,0,response5disk,,2,-18,2,1,0,0,rectangle,-18,2,1,0,0,-18,2,1,0,0,1,114,274,136,1,,,,,,,,
,,,,,,,,,,,,,FF,,,,,,,,0.683,,,,,,,,,,,,,,,,,,,,,,60fce1771681bdc5025b872e,61036f8066dec8e5896fc502,2021-07-29_23h19.48.420,Simcolourproject_2stim_asymm_v5,2020.2.10,Win32,60,61025ae37ef11b136ea224fe,,,,,,,,,3791,29,-74,1,0,0,response3disk,,4,25,-16,1,0,0,rectangle,25,-16,1,0,0,25,-16,1,0,0,1,115,275,52,1,,,,,,,,
,,,,,,,,,,,,,FF,,,,,,,,0.5999,,,,,,,,,,,,,,,,,,,,,,60fce1771681bdc5025b872e,61036f8066dec8e5896fc502,2021-07-29_23h19.48.420,Simcolourproject_2stim_asymm_v5,2020.2.10,Win32,60,61025ae37ef11b136ea224fe,,,,,,,,,3861,29,-42,1,0,0,response3disk,,4,29,-7,1,0,0,rectangle,29,-7,1,0,0,29,-7,1,0,0,1,116,276,80,1,,,,,,,,
,,,,,,,,,,,,,FF,,,,,,,,1.2167,,,,,,,,,,,,,,,,,,,,,,60fce1771681bdc5025b872e,61036f8066dec8e5896fc502,2021-07-29_23h19.48.420,Simcolourproject_2stim_asymm_v5,2020.2.10,Win32,60,61025ae37ef11b136ea224fe,,,,,,,,,45,39,61,1,0,0,response1disk,,7,13,18,1,0,0,rectangle,13,18,1,0,0,13,18,1,0,0,1,117,277,137,1,,,,,,,,
,,,,,,,,,,,,,FF,,,,,,,,0.8828,,,,,,,,,,,,,,,,,,,,,,60fce1771681bdc5025b872e,61036f8066dec8e5896fc502,2021-07-29_23h19.48.420,Simcolourproject_2stim_asymm_v5,2020.2.10,Win32,60,61025ae37ef11b136ea224fe,,,,,,,,,4201,-109,43,1,0,0,response7disk,,1,-43,13,1,0,0,rectangle,-43,13,1,0,0,-43,13,1,0,0,1,118,278,46,1,,,,,,,,
,,,,,,,,,,,,,FF,,,,,,,,0.7661,,,,,,,,,,,,,,,,,,,,,,60fce1771681bdc5025b872e,61036f8066dec8e5896fc502,2021-07-29_23h19.48.420,Simcolourproject_2stim_asymm_v5,2020.2.10,Win32,60,61025ae37ef11b136ea224fe,,,,,,,,,59,34,-57,1,0,0,response3disk,,4,30,8,1,0,0,rectangle,30,8,1,0,0,30,8,1,0,0,1,119,279,109,1,,,,,,,,
,,,,,,,,,,,,,FF,,,,,,,,0.6167,,,,,,,,,,,,,,,,,,,,,,60fce1771681bdc5025b872e,61036f8066dec8e5896fc502,2021-07-29_23h19.48.420,Simcolourproject_2stim_asymm_v5,2020.2.10,Win32,60,61025ae37ef11b136ea224fe,,,,,,,,,77,-75,62,1,0,0,response7disk,,1,-30,2,1,0,0,rectangle,-30,2,1,0,0,-30,2,1,0,0,1,120,280,75,1,,,,,,,,
,,,,,,,,,,,,,FF,,,,,,,,0.7995,,,,,,,,,,,,,,,,,,,,,,60fce1771681bdc5025b872e,61036f8066dec8e5896fc502,2021-07-29_23h19.48.420,Simcolourproject_2stim_asymm_v5,2020.2.10,Win32,60,61025ae37ef11b136ea224fe,,,,,,,,,3771,-66,-30,1,0,0,response5disk,,2,-29,-5,1,0,0,rectangle,-29,-5,1,0,0,-29,-5,1,0,0,1,121,281,15,1,,,,,,,,
,,,,,,,,,,,,,FF,,,,,,,,1.0833,,,,,,,,,,,,,,,,,,,,,,60fce1771681bdc5025b872e,61036f8066dec8e5896fc502,2021-07-29_23h19.48.420,Simcolourproject_2stim_asymm_v5,2020.2.10,Win32,60,61025ae37ef11b136ea224fe,,,,,,,,,1749,-24,-72,1,0,0,response5disk,,3,-9,-12,1,0,0,rectangle,-9,-12,1,0,0,-9,-12,1,0,0,1,122,282,62,1,,,,,,,,
,,,,,,,,,,,,,FF,,,,,,,,0.883,,,,,,,,,,,,,,,,,,,,,,60fce1771681bdc5025b872e,61036f8066dec8e5896fc502,2021-07-29_23h19.48.420,Simcolourproject_2stim_asymm_v5,2020.2.10,Win32,60,61025ae37ef11b136ea224fe,,,,,,,,,4264,46,67,1,0,0,response1disk,,7,16,-6,1,0,0,rectangle,16,-6,1,0,0,16,-6,1,0,0,1,123,283,4,1,,,,,,,,
,,,,,,,,,,,,,FF,,,,,,,,0.7496,,,,,,,,,,,,,,,,,,,,,,60fce1771681bdc5025b872e,61036f8066dec8e5896fc502,2021-07-29_23h19.48.420,Simcolourproject_2stim_asymm_v5,2020.2.10,Win32,60,61025ae37ef11b136ea224fe,,,,,,,,,1003,37,73,1,0,0,response1disk,,7,24,21,1,0,0,rectangle,24,21,1,0,0,24,21,1,0,0,1,124,284,112,1,,,,,,,,
,,,,,,,,,,,,,FF,,,,,,,,0.9167,,,,,,,,,,,,,,,,,,,,,,60fce1771681bdc5025b872e,61036f8066dec8e5896fc502,2021-07-29_23h19.48.420,Simcolourproject_2stim_asymm_v5,2020.2.10,Win32,60,61025ae37ef11b136ea224fe,,,,,,,,,3602,38,63,1,0,0,response1disk,,7,42,14,1,0,0,rectangle,42,14,1,0,0,42,14,1,0,0,1,125,285,158,1,,,,,,,,
,,,,,,,,,,,,,FF,,,,,,,,1.0828,,,,,,,,,,,,,,,,,,,,,,60fce1771681bdc5025b872e,61036f8066dec8e5896fc502,2021-07-29_23h19.48.420,Simcolourproject_2stim_asymm_v5,2020.2.10,Win32,60,61025ae37ef11b136ea224fe,,,,,,,,,2818,41,71,1,0,0,response1disk,,7,34,-4,1,0,0,rectangle,34,-4,1,0,0,34,-4,1,0,0,1,126,286,130,1,,,,,,,,
,,,,,,,,,,,,,FF,,,,,,,,0.6662,,,,,,,,,,,,,,,,,,,,,,60fce1771681bdc5025b872e,61036f8066dec8e5896fc502,2021-07-29_23h19.48.420,Simcolourproject_2stim_asymm_v5,2020.2.10,Win32,60,61025ae37ef11b136ea224fe,,,,,,,,,1122,53,38,1,0,0,response1disk,,6,21,19,1,0,0,rectangle,21,19,1,0,0,21,19,1,0,0,1,127,287,100,1,,,,,,,,
,,,,,,,,,,,,,FF,,,,,,,,2.0328,,,,,,,,,,,,,,,,,,,,,,60fce1771681bdc5025b872e,61036f8066dec8e5896fc502,2021-07-29_23h19.48.420,Simcolourproject_2stim_asymm_v5,2020.2.10,Win32,60,61025ae37ef11b136ea224fe,,,,,,,,,508,49,33,1,0,0,response1disk,,6,35,9,1,0,0,rectangle,35,9,1,0,0,35,9,1,0,0,1,128,288,78,1,,,,,,,,
,,,,,,,,,,,,,FF,,,,,,,,1.8829,,,,,,,,,,,,,,,,,,,,,,60fce1771681bdc5025b872e,61036f8066dec8e5896fc502,2021-07-29_23h19.48.420,Simcolourproject_2stim_asymm_v5,2020.2.10,Win32,60,61025ae37ef11b136ea224fe,,,,,,,,,1796,77,30,1,0,0,response1disk,,6,31,14,1,0,0,rectangle,31,14,1,0,0,31,14,1,0,0,1,129,289,68,1,,,,,,,,
,,,,,,,,,,,,,FF,,,,,,,,0.7829,,,,,,,,,,,,,,,,,,,,,,60fce1771681bdc5025b872e,61036f8066dec8e5896fc502,2021-07-29_23h19.48.420,Simcolourproject_2stim_asymm_v5,2020.2.10,Win32,60,61025ae37ef11b136ea224fe,,,,,,,,,3815,-71,-29,1,0,0,response5disk,,2,-30,1,1,0,0,rectangle,-30,1,1,0,0,-30,1,1,0,0,1,130,290,72,1,,,,,,,,
,,,,,,,,,,,,,FF,,,,,,,,0.8998,,,,,,,,,,,,,,,,,,,,,,60fce1771681bdc5025b872e,61036f8066dec8e5896fc502,2021-07-29_23h19.48.420,Simcolourproject_2stim_asymm_v5,2020.2.10,Win32,60,61025ae37ef11b136ea224fe,,,,,,,,,2845,33,-44,1,0,0,response3disk,,4,30,-6,1,0,0,rectangle,30,-6,1,0,0,30,-6,1,0,0,1,131,291,66,1,,,,,,,,
,,,,,,,,,,,,,FF,,,,,,,,1.0994,,,,,,,,,,,,,,,,,,,,,,60fce1771681bdc5025b872e,61036f8066dec8e5896fc502,2021-07-29_23h19.48.420,Simcolourproject_2stim_asymm_v5,2020.2.10,Win32,60,61025ae37ef11b136ea224fe,,,,,,,,,2713,-69,-90,1,0,0,response5disk,,3,-21,-1,1,0,0,rectangle,-21,-1,1,0,0,-21,-1,1,0,0,1,132,292,97,1,,,,,,,,
,,,,,,,,,,,,,FF,,,,,,,,1.8834,,,,,,,,,,,,,,,,,,,,,,60fce1771681bdc5025b872e,61036f8066dec8e5896fc502,2021-07-29_23h19.48.420,Simcolourproject_2stim_asymm_v5,2020.2.10,Win32,60,61025ae37ef11b136ea224fe,,,,,,,,,2002,73,28,1,0,0,response1disk,,6,23,4,1,0,0,rectangle,23,4,1,0,0,23,4,1,0,0,1,133,293,69,1,,,,,,,,
,,,,,,,,,,,,,FF,,,,,,,,0.7994,,,,,,,,,,,,,,,,,,,,,,60fce1771681bdc5025b872e,61036f8066dec8e5896fc502,2021-07-29_23h19.48.420,Simcolourproject_2stim_asymm_v5,2020.2.10,Win32,60,61025ae37ef11b136ea224fe,,,,,,,,,1302,-71,-31,1,0,0,response5disk,,2,-21,-1,1,0,0,rectangle,-21,-1,1,0,0,-21,-1,1,0,0,1,134,294,102,1,,,,,,,,
,,,,,,,,,,,,,FF,,,,,,,,1.3828,,,,,,,,,,,,,,,,,,,,,,60fce1771681bdc5025b872e,61036f8066dec8e5896fc502,2021-07-29_23h19.48.420,Simcolourproject_2stim_asymm_v5,2020.2.10,Win32,60,61025ae37ef11b136ea224fe,,,,,,,,,3140,-53,-59,1,0,0,response5disk,,3,-14,-2,1,0,0,rectangle,-14,-2,1,0,0,-14,-2,1,0,0,1,135,295,157,1,,,,,,,,
,,,,,,,,,,,,,FF,,,,,,,,0.5839,,,,,,,,,,,,,,,,,,,,,,60fce1771681bdc5025b872e,61036f8066dec8e5896fc502,2021-07-29_23h19.48.420,Simcolourproject_2stim_asymm_v5,2020.2.10,Win32,60,61025ae37ef11b136ea224fe,,,,,,,,,1670,-94,33,1,0,0,response7disk,,1,-37,1,1,0,0,rectangle,-37,1,1,0,0,-37,1,1,0,0,1,136,296,36,1,,,,,,,,
,,,,,,,,,,,,,FF,,,,,,,,0.5661,,,,,,,,,,,,,,,,,,,,,,60fce1771681bdc5025b872e,61036f8066dec8e5896fc502,2021-07-29_23h19.48.420,Simcolourproject_2stim_asymm_v5,2020.2.10,Win32,60,61025ae37ef11b136ea224fe,,,,,,,,,1812,-47,-31,1,0,0,response5disk,,2,-13,3,1,0,0,rectangle,-13,3,1,0,0,-13,3,1,0,0,1,137,297,116,1,,,,,,,,
,,,,,,,,,,,,,FF,,,,,,,,0.8835,,,,,,,,,,,,,,,,,,,,,,60fce1771681bdc5025b872e,61036f8066dec8e5896fc502,2021-07-29_23h19.48.420,Simcolourproject_2stim_asymm_v5,2020.2.10,Win32,60,61025ae37ef11b136ea224fe,,,,,,,,,380,-45,-61,1,0,0,response5disk,,3,-17,-17,1,0,0,rectangle,-17,-17,1,0,0,-17,-17,1,0,0,1,138,298,48,1,,,,,,,,
,,,,,,,,,,,,,FF,,,,,,,,0.6835,,,,,,,,,,,,,,,,,,,,,,60fce1771681bdc5025b872e,61036f8066dec8e5896fc502,2021-07-29_23h19.48.420,Simcolourproject_2stim_asymm_v5,2020.2.10,Win32,60,61025ae37ef11b136ea224fe,,,,,,,,,635,-35,-59,1,0,0,response5disk,,3,-29,4,1,0,0,rectangle,-29,4,1,0,0,-29,4,1,0,0,1,139,299,127,1,,,,,,,,
,,,,,,,,,,,,,FF,,,,,,,,1.2001,,,,,,,,,,,,,,,,,,,,,,60fce1771681bdc5025b872e,61036f8066dec8e5896fc502,2021-07-29_23h19.48.420,Simcolourproject_2stim_asymm_v5,2020.2.10,Win32,60,61025ae37ef11b136ea224fe,,,,,,,,,64,60,-81,1,0,0,response3disk,,4,6,-12,1,0,0,rectangle,6,-12,1,0,0,6,-12,1,0,0,1,140,300,140,1,,,,,,,,
,,,,,,,,,,,,,FF,,,,,,,,1.3833,,,,,,,,,,,,,,,,,,,,,,60fce1771681bdc5025b872e,61036f8066dec8e5896fc502,2021-07-29_23h19.48.420,Simcolourproject_2stim_asymm_v5,2020.2.10,Win32,60,61025ae37ef11b136ea224fe,,,,,,,,,2882,-30,-72,1,0,0,response5disk,,3,19,-4,1,0,0,rectangle,19,-4,1,0,0,19,-4,1,0,0,1,141,301,87,1,,,,,,,,
