key_resp.keys,key_resp.rt,key_resp_14.keys,key_resp_14.rt,key_resp_15.keys,key_resp_15.rt,key_resp_17.keys,key_resp_17.rt,key_resp_9.keys,key_resp_9.rt,key_resp_10.keys,key_resp_10.rt,practice_comparison,Ecc,mouse_5.x,mouse_5.y,mouse_5.leftButton,mouse_5.midButton,mouse_5.rightButton,mouse_5.clicked_name,pracsimilarity,response_time,mouse_10.x,mouse_10.y,mouse_10.leftButton,mouse_10.midButton,mouse_10.rightButton,mouse_10.clicked_name,mouse_7.x,mouse_7.y,mouse_7.leftButton,mouse_7.midButton,mouse_7.rightButton,mouse_6.x,mouse_6.y,mouse_6.leftButton,mouse_6.midButton,mouse_6.rightButton,duringprac.thisRepN,duringprac.thisTrialN,duringprac.thisN,duringprac.thisIndex,duringprac.ran,participant,session,date,expName,psychopyVersion,OS,frameRate,study_id,mouse_7.clicked_name,catchpracsimilarity,catch_response_time,catchnumberprac,catchtrialorderprac,mouse_6.clicked_name,key_resp_22.keys,key_resp_22.rt,realcomparison,mouse.x,mouse.y,mouse.leftButton,mouse.midButton,mouse.rightButton,mouse.clicked_name,Colour2,similarity,mouse_2.x,mouse_2.y,mouse_2.leftButton,mouse_2.midButton,mouse_2.rightButton,mouse_2.clicked_name,mouse_3.x,mouse_3.y,mouse_3.leftButton,mouse_3.midButton,mouse_3.rightButton,mouse_11.x,mouse_11.y,mouse_11.leftButton,mouse_11.midButton,mouse_11.rightButton,trials_2.thisRepN,trials_2.thisTrialN,trials_2.thisN,trials_2.thisIndex,trials_2.ran,Colour1,mouse_3.clicked_name,catchornah,catchsimilarity,catchnumber,catchtrialorder,catchRT,mouse_11.clicked_name
space,0.7716,space,32.2193,space,67.3654,space,19.3387,space,2.3115,space,16.6551,112,PF,43.20001209,-79.20000762,1,0,0,response3disk_5,4,3.8269,8.800011575,2.399993598,1,0,0,rectangle_8,8.800011575,2.399993598,1,0,0,8.800011575,2.399993598,1,0,0,0,0,0,6,1,60fc62bc260a350027a1432c,61036dff94779c6ddc25f943,2021-07-29_22h12.57.771,Simcolourproject_2stim_asymm_v5,2020.2.10,Win32,60,61025ae37ef11b136ea224fe,,,,,,,,,,,,,,,,,,,,,,,,,,,,,,,,,,,,,,,,,,,,,,
,,,,,,,,,,,,112,PF,41.60006089,-57.6000073,1,0,0,response3disk_5,4,1.9511,4.000011504,-1.600006461,1,0,0,rectangle_8,-101.5999901,55.9999944,1,0,0,-5.599988639,2.399993598,1,0,0,0,1,1,1,1,60fc62bc260a350027a1432c,61036dff94779c6ddc25f943,2021-07-29_22h12.57.771,Simcolourproject_2stim_asymm_v5,2020.2.10,Win32,60,61025ae37ef11b136ea224fe,response7disk_7,1,3.2637,1,"[2,5]",rectangle_4,,,,,,,,,,,,,,,,,,,,,,,,,,,,,,,,,,,,,,,,
,,,,,,,,,,,,108,PF,68.00001246,-32.80000693,1,0,0,response3disk_5,5,2.8884,-3.999988616,3.19999361,1,0,0,rectangle_8,-3.999988616,3.19999361,1,0,0,-3.999988616,3.19999361,1,0,0,0,2,2,2,1,60fc62bc260a350027a1432c,61036dff94779c6ddc25f943,2021-07-29_22h12.57.771,Simcolourproject_2stim_asymm_v5,2020.2.10,Win32,60,61025ae37ef11b136ea224fe,,,,,,,,,,,,,,,,,,,,,,,,,,,,,,,,,,,,,,,,,,,,,,
,,,,,,,,,,,,49,FF,109.6000131,-36.80000699,1,0,0,response3disk_5,5,4.0131,1.14441E-05,-6.4373E-06,1,0,0,rectangle_8,1.14441E-05,-6.4373E-06,1,0,0,1.14441E-05,-6.4373E-06,1,0,0,0,3,3,3,1,60fc62bc260a350027a1432c,61036dff94779c6ddc25f943,2021-07-29_22h12.57.771,Simcolourproject_2stim_asymm_v5,2020.2.10,Win32,60,61025ae37ef11b136ea224fe,,,,,,,,,,,,,,,,,,,,,,,,,,,,,,,,,,,,,,,,,,,,,,
,,,,,,,,,,,,98,FF,-51.19998932,-91.2000078,1,0,0,response5disk_5,3,2.6384,-4.799988627,11.19999373,1,0,0,rectangle_8,-105.5999901,43.19996979,1,0,0,-1.59998858,2.399993598,1,0,0,0,4,4,0,1,60fc62bc260a350027a1432c,61036dff94779c6ddc25f943,2021-07-29_22h12.57.771,Simcolourproject_2stim_asymm_v5,2020.2.10,Win32,60,61025ae37ef11b136ea224fe,response7disk_7,1,1.9967,1,"[2,5]",rectangle_4,,,,,,,,,,,,,,,,,,,,,,,,,,,,,,,,,,,,,,,,
,,,,,,,,,,,,135,PF,37.60006083,110.3999952,1,0,0,response1disk_5,7,2.2495,-5.599988639,-4.800006509,1,0,0,rectangle_8,-5.599988639,-4.800006509,1,0,0,-5.599988639,-4.800006509,1,0,0,0,5,5,4,1,60fc62bc260a350027a1432c,61036dff94779c6ddc25f943,2021-07-29_22h12.57.771,Simcolourproject_2stim_asymm_v5,2020.2.10,Win32,60,61025ae37ef11b136ea224fe,,,,,,,,,,,,,,,,,,,,,,,,,,,,,,,,,,,,,,,,,,,,,,
,,,,,,,,,,,,60,FF,-103.9999901,-43.20000708,1,0,0,response5disk_5,2,2.8882,-15.19998878,3.19999361,1,0,0,rectangle_8,-15.19998878,3.19999361,1,0,0,-15.19998878,3.19999361,1,0,0,0,6,6,5,1,60fc62bc260a350027a1432c,61036dff94779c6ddc25f943,2021-07-29_22h12.57.771,Simcolourproject_2stim_asymm_v5,2020.2.10,Win32,60,61025ae37ef11b136ea224fe,,,,,,,,,,,,,,,,,,,,,,,,,,,,,,,,,,,,,,,,,,,,,,
,,,,,,,,,,,,,FF,,,,,,,,2.8475,,,,,,,,,,,,,,,,,,,,,,60fc62bc260a350027a1432c,61036dff94779c6ddc25f943,2021-07-29_22h12.57.771,Simcolourproject_2stim_asymm_v5,2020.2.10,Win32,60,61025ae37ef11b136ea224fe,,,,,,,space,26.3097,3917,-95.99998999,-40.00000703,1,0,0,response5disk,,2,-6.399939823,7.19999367,1,0,0,rectangle,-6.399939823,7.19999367,1,0,0,-6.399939823,7.19999367,1,0,0,0,0,0,49,1,,,,,,,,
,,,,,,,,,,,,,FF,,,,,,,,3.52,,,,,,,,,,,,,,,,,,,,,,60fc62bc260a350027a1432c,61036dff94779c6ddc25f943,2021-07-29_22h12.57.771,Simcolourproject_2stim_asymm_v5,2020.2.10,Win32,60,61025ae37ef11b136ea224fe,,,,,,,,,563,28.80001187,-95.20000786,1,0,0,response3disk,,4,11.20001161,10.39999372,1,0,0,rectangle,11.20001161,10.39999372,1,0,0,11.20001161,10.39999372,1,0,0,0,1,1,145,1,,,,,,,,
,,,,,,,,,,,,,FF,,,,,,,,3.0451,,,,,,,,,,,,,,,,,,,,,,60fc62bc260a350027a1432c,61036dff94779c6ddc25f943,2021-07-29_22h12.57.771,Simcolourproject_2stim_asymm_v5,2020.2.10,Win32,60,61025ae37ef11b136ea224fe,,,,,,,,,927,40.00001204,113.5999953,1,0,0,response1disk,,7,3.200011492,-0.800006449,1,0,0,rectangle,3.200011492,-0.800006449,1,0,0,3.200011492,-0.800006449,1,0,0,0,2,2,35,1,,,,,,,,
,,,,,,,,,,,,,FF,,,,,,,,2.1868,,,,,,,,,,,,,,,,,,,,,,60fc62bc260a350027a1432c,61036dff94779c6ddc25f943,2021-07-29_22h12.57.771,Simcolourproject_2stim_asymm_v5,2020.2.10,Win32,60,61025ae37ef11b136ea224fe,,,,,,,,,1180,89.60001278,-36.80000699,1,0,0,response3disk,,5,-2.399939764,5.599993646,1,0,0,rectangle,-2.399939764,5.599993646,1,0,0,-2.399939764,5.599993646,1,0,0,0,3,3,47,1,,,,,,,,
,,,,,,,,,,,,,FF,,,,,,,,2.2286,,,,,,,,,,,,,,,,,,,,,,60fc62bc260a350027a1432c,61036dff94779c6ddc25f943,2021-07-29_22h12.57.771,Simcolourproject_2stim_asymm_v5,2020.2.10,Win32,60,61025ae37ef11b136ea224fe,,,,,,,,,1771,89.60001278,-46.40000713,1,0,0,response3disk,,5,-9.599988699,3.999993622,1,0,0,rectangle,-9.599988699,3.999993622,1,0,0,-9.599988699,3.999993622,1,0,0,0,4,4,132,1,,,,,,,,
,,,,,,,,,,,,,FF,,,,,,,,4.7696,,,,,,,,,,,,,,,,,,,,,,60fc62bc260a350027a1432c,61036dff94779c6ddc25f943,2021-07-29_22h12.57.771,Simcolourproject_2stim_asymm_v5,2020.2.10,Win32,60,61025ae37ef11b136ea224fe,,,,,,,,,2314,49.60006101,-101.6000568,1,0,0,response3disk,,4,-8.799988687,-15.20000666,1,0,0,rectangle,-8.799988687,-15.20000666,1,0,0,-8.799988687,-15.20000666,1,0,0,0,5,5,21,1,,,,,,,,
,,,,,,,,,,,,,FF,,,,,,,,2.4438,,,,,,,,,,,,,,,,,,,,,,60fc62bc260a350027a1432c,61036dff94779c6ddc25f943,2021-07-29_22h12.57.771,Simcolourproject_2stim_asymm_v5,2020.2.10,Win32,60,61025ae37ef11b136ea224fe,,,,,,,,,1451,-88.79998988,-40.00000703,1,0,0,response5disk,,2,16.00001168,6.399993658,1,0,0,rectangle,16.00001168,6.399993658,1,0,0,16.00001168,6.399993658,1,0,0,0,6,6,144,1,,,,,,,,
,,,,,,,,,,,,,FF,,,,,,,,1.2982,,,,,,,,,,,,,,,,,,,,,,60fc62bc260a350027a1432c,61036dff94779c6ddc25f943,2021-07-29_22h12.57.771,Simcolourproject_2stim_asymm_v5,2020.2.10,Win32,60,61025ae37ef11b136ea224fe,,,,,,,,,2251,58.40001231,-107.200008,1,0,0,response3disk,,4,-3.999988616,-3.200006485,1,0,0,rectangle,-3.999988616,-3.200006485,1,0,0,-3.999988616,-3.200006485,1,0,0,0,7,7,3,1,,,,,,,,
,,,,,,,,,,,,,FF,,,,,,,,1.3122,,,,,,,,,,,,,,,,,,,,,,60fc62bc260a350027a1432c,61036dff94779c6ddc25f943,2021-07-29_22h12.57.771,Simcolourproject_2stim_asymm_v5,2020.2.10,Win32,60,61025ae37ef11b136ea224fe,,,,,,,,,664,107.200013,51.99999434,1,0,0,response1disk,,6,-9.599988699,3.999993622,1,0,0,rectangle,-9.599988699,3.999993622,1,0,0,-9.599988699,3.999993622,1,0,0,0,8,8,94,1,,,,,,,,
,,,,,,,,,,,,,FF,,,,,,,,1.2357,,,,,,,,,,,,,,,,,,,,,,60fc62bc260a350027a1432c,61036dff94779c6ddc25f943,2021-07-29_22h12.57.771,Simcolourproject_2stim_asymm_v5,2020.2.10,Win32,60,61025ae37ef11b136ea224fe,,,,,,,,,3573,40.80001205,107.1999707,1,0,0,response1disk,,7,17.60006053,5.599993646,1,0,0,rectangle,17.60006053,5.599993646,1,0,0,17.60006053,5.599993646,1,0,0,0,9,9,102,1,,,,,,,,
,,,,,,,,,,,,,FF,,,,,,,,2.1245,,,,,,,,,,,,,,,,,,,,,,60fc62bc260a350027a1432c,61036dff94779c6ddc25f943,2021-07-29_22h12.57.771,Simcolourproject_2stim_asymm_v5,2020.2.10,Win32,60,61025ae37ef11b136ea224fe,,,,,,,,,2561,92.80001283,-32.80000693,1,0,0,response3disk,,5,-23.99998891,-4.800006509,1,0,0,rectangle,-23.99998891,-4.800006509,1,0,0,-23.99998891,-4.800006509,1,0,0,0,10,10,65,1,,,,,,,,
,,,,,,,,,,,,,FF,,,,,,,,1.3746,,,,,,,,,,,,,,,,,,,,,,60fc62bc260a350027a1432c,61036dff94779c6ddc25f943,2021-07-29_22h12.57.771,Simcolourproject_2stim_asymm_v5,2020.2.10,Win32,60,61025ae37ef11b136ea224fe,,,,,,,,,1566,107.200013,44.79999423,1,0,0,response1disk,,6,-3.999988616,-4.000006497,1,0,0,rectangle,-3.999988616,-4.000006497,1,0,0,-3.999988616,-4.000006497,1,0,0,0,11,11,114,1,,,,,,,,
,,,,,,,,,,,,,FF,,,,,,,,0.7706,,,,,,,,,,,,,,,,,,,,,,60fc62bc260a350027a1432c,61036dff94779c6ddc25f943,2021-07-29_22h12.57.771,Simcolourproject_2stim_asymm_v5,2020.2.10,Win32,60,61025ae37ef11b136ea224fe,,,,,,,,,1706,44.0000121,115.9999953,1,0,0,response1disk,,7,4.800011516,12.79999375,1,0,0,rectangle,4.800011516,12.79999375,1,0,0,4.800011516,12.79999375,1,0,0,0,12,12,9,1,,,,,,,,
,,,,,,,,,,,,,FF,,,,,,,,1.9023,,,,,,,,,,,,,,,,,,,,,,60fc62bc260a350027a1432c,61036dff94779c6ddc25f943,2021-07-29_22h12.57.771,Simcolourproject_2stim_asymm_v5,2020.2.10,Win32,60,61025ae37ef11b136ea224fe,,,,,,,,,2369,42.40001208,-103.200008,1,0,0,response3disk,,4,1.600060296,3.999993622,1,0,0,rectangle,1.600060296,3.999993622,1,0,0,1.600060296,3.999993622,1,0,0,0,13,13,77,1,,,,,,,,
,,,,,,,,,,,,,FF,,,,,,,,1.4232,,,,,,,,,,,,,,,,,,,,,,60fc62bc260a350027a1432c,61036dff94779c6ddc25f943,2021-07-29_22h12.57.771,Simcolourproject_2stim_asymm_v5,2020.2.10,Win32,60,61025ae37ef11b136ea224fe,,,,,,,,,29,106.400013,43.19996979,1,0,0,response1disk,,6,2.40001148,-6.400006533,1,0,0,rectangle,2.40001148,-6.400006533,1,0,0,2.40001148,-6.400006533,1,0,0,0,14,14,104,1,,,,,,,,
,,,,,,,,,,,,,FF,,,,,,,,2.3189,,,,,,,,,,,,,,,,,,,,,,60fc62bc260a350027a1432c,61036dff94779c6ddc25f943,2021-07-29_22h12.57.771,Simcolourproject_2stim_asymm_v5,2020.2.10,Win32,60,61025ae37ef11b136ea224fe,,,,,,,,,813,-97.59999001,-33.60000694,1,0,0,response5disk,,2,2.40001148,0.799993575,1,0,0,rectangle,2.40001148,0.799993575,1,0,0,2.40001148,0.799993575,1,0,0,0,15,15,153,1,,,,,,,,
,,,,,,,,,,,,,FF,,,,,,,,2.0135,,,,,,,,,,,,,,,,,,,,,,60fc62bc260a350027a1432c,61036dff94779c6ddc25f943,2021-07-29_22h12.57.771,Simcolourproject_2stim_asymm_v5,2020.2.10,Win32,60,61025ae37ef11b136ea224fe,,,,,,,,,44,36.80001199,100.7999951,1,0,0,response1disk,,7,-14.39993994,-8.800006568,1,0,0,rectangle,-14.39993994,-8.800006568,1,0,0,-14.39993994,-8.800006568,1,0,0,0,16,16,117,1,,,,,,,,
,,,,,,,,,,,,,FF,,,,,,,,1.1871,,,,,,,,,,,,,,,,,,,,,,60fc62bc260a350027a1432c,61036dff94779c6ddc25f943,2021-07-29_22h12.57.771,Simcolourproject_2stim_asymm_v5,2020.2.10,Win32,60,61025ae37ef11b136ea224fe,,,,,,,,,1777,40.80001205,98.39999503,1,0,0,response1disk,,7,-10.39993988,-6.400006533,1,0,0,rectangle,-10.39993988,-6.400006533,1,0,0,-10.39993988,-6.400006533,1,0,0,0,17,17,99,1,,,,,,,,
,,,,,,,,,,,,,FF,,,,,,,,1.5898,,,,,,,,,,,,,,,,,,,,,,60fc62bc260a350027a1432c,61036dff94779c6ddc25f943,2021-07-29_22h12.57.771,Simcolourproject_2stim_asymm_v5,2020.2.10,Win32,60,61025ae37ef11b136ea224fe,,,,,,,,,992,48.80001217,110.3999952,1,0,0,response1disk,,7,8.000011563,1.599993587,1,0,0,rectangle,8.000011563,1.599993587,1,0,0,8.000011563,1.599993587,1,0,0,0,18,18,97,1,,,,,,,,
,,,,,,,,,,,,,FF,,,,,,,,0.8219,,,,,,,,,,,,,,,,,,,,,,60fc62bc260a350027a1432c,61036dff94779c6ddc25f943,2021-07-29_22h12.57.771,Simcolourproject_2stim_asymm_v5,2020.2.10,Win32,60,61025ae37ef11b136ea224fe,,,,,,,,,3581,30.4000119,89.5999949,1,0,0,response1disk,,7,-6.399939823,-0.800006449,1,0,0,rectangle,-6.399939823,-0.800006449,1,0,0,-6.399939823,-0.800006449,1,0,0,0,19,19,157,1,,,,,,,,
,,,,,,,,,,,,,FF,,,,,,,,4.0268,,,,,,,,,,,,,,,,,,,,,,60fc62bc260a350027a1432c,61036dff94779c6ddc25f943,2021-07-29_22h12.57.771,Simcolourproject_2stim_asymm_v5,2020.2.10,Win32,60,61025ae37ef11b136ea224fe,,,,,,,,,157,40.00001204,-104.800008,1,0,0,response3disk,,4,-9.599988699,-12.00000662,1,0,0,rectangle,-9.599988699,-12.00000662,1,0,0,-9.599988699,-12.00000662,1,0,0,0,20,20,28,1,,,,,,,,
,,,,,,,,,,,,,FF,,,,,,,,2.7492,,,,,,,,,,,,,,,,,,,,,,60fc62bc260a350027a1432c,61036dff94779c6ddc25f943,2021-07-29_22h12.57.771,Simcolourproject_2stim_asymm_v5,2020.2.10,Win32,60,61025ae37ef11b136ea224fe,,,,,,,,,3525,116.8000132,37.59999412,1,0,0,response1disk,,6,-15.99998879,-1.600006461,1,0,0,rectangle,-15.99998879,-1.600006461,1,0,0,-15.99998879,-1.600006461,1,0,0,0,21,21,40,1,,,,,,,,
,,,,,,,,,,,,,FF,,,,,,,,2.3049,,,,,,,,,,,,,,,,,,,,,,60fc62bc260a350027a1432c,61036dff94779c6ddc25f943,2021-07-29_22h12.57.771,Simcolourproject_2stim_asymm_v5,2020.2.10,Win32,60,61025ae37ef11b136ea224fe,,,,,,,,,1581,94.40001285,-44.00000709,1,0,0,response3disk,,5,1.14441E-05,1.599993587,1,0,0,rectangle,1.14441E-05,1.599993587,1,0,0,1.14441E-05,1.599993587,1,0,0,0,22,22,149,1,,,,,,,,
,,,,,,,,,,,,,FF,,,,,,,,1.5694,,,,,,,,,,,,,,,,,,,,,,60fc62bc260a350027a1432c,61036dff94779c6ddc25f943,2021-07-29_22h12.57.771,Simcolourproject_2stim_asymm_v5,2020.2.10,Win32,60,61025ae37ef11b136ea224fe,,,,,,,,,2752,48.80001217,88.79999489,1,0,0,response1disk,,7,2.40001148,-3.200006485,1,0,0,rectangle,2.40001148,-3.200006485,1,0,0,2.40001148,-3.200006485,1,0,0,0,23,23,142,1,,,,,,,,
,,,,,,,,,,,,,FF,,,,,,,,0.7149,,,,,,,,,,,,,,,,,,,,,,60fc62bc260a350027a1432c,61036dff94779c6ddc25f943,2021-07-29_22h12.57.771,Simcolourproject_2stim_asymm_v5,2020.2.10,Win32,60,61025ae37ef11b136ea224fe,,,,,,,,,176,47.20001215,113.5999953,1,0,0,response1disk,,7,13.60006047,1.599993587,1,0,0,rectangle,13.60006047,1.599993587,1,0,0,13.60006047,1.599993587,1,0,0,0,24,24,98,1,,,,,,,,
,,,,,,,,,,,,,FF,,,,,,,,0.951,,,,,,,,,,,,,,,,,,,,,,60fc62bc260a350027a1432c,61036dff94779c6ddc25f943,2021-07-29_22h12.57.771,Simcolourproject_2stim_asymm_v5,2020.2.10,Win32,60,61025ae37ef11b136ea224fe,,,,,,,,,1271,24.80001181,100.7999951,1,0,0,response1disk,,7,-4.799988627,2.399993598,1,0,0,rectangle,-4.799988627,2.399993598,1,0,0,-4.799988627,2.399993598,1,0,0,0,25,25,61,1,,,,,,,,
,,,,,,,,,,,,,FF,,,,,,,,0.9232,,,,,,,,,,,,,,,,,,,,,,60fc62bc260a350027a1432c,61036dff94779c6ddc25f943,2021-07-29_22h12.57.771,Simcolourproject_2stim_asymm_v5,2020.2.10,Win32,60,61025ae37ef11b136ea224fe,,,,,,,,,1197,29.60006071,127.199971,1,0,0,response1disk,,7,13.60006047,5.599993646,1,0,0,rectangle,13.60006047,5.599993646,1,0,0,13.60006047,5.599993646,1,0,0,0,26,26,120,1,,,,,,,,
,,,,,,,,,,,,,FF,,,,,,,,0.9096,,,,,,,,,,,,,,,,,,,,,,60fc62bc260a350027a1432c,61036dff94779c6ddc25f943,2021-07-29_22h12.57.771,Simcolourproject_2stim_asymm_v5,2020.2.10,Win32,60,61025ae37ef11b136ea224fe,,,,,,,,,3539,43.20001209,102.3999951,1,0,0,response1disk,,7,19.20001173,1.599993587,1,0,0,rectangle,19.20001173,1.599993587,1,0,0,19.20001173,1.599993587,1,0,0,0,27,27,101,1,,,,,,,,
,,,,,,,,,,,,,FF,,,,,,,,1.9578,,,,,,,,,,,,,,,,,,,,,,60fc62bc260a350027a1432c,61036dff94779c6ddc25f943,2021-07-29_22h12.57.771,Simcolourproject_2stim_asymm_v5,2020.2.10,Win32,60,61025ae37ef11b136ea224fe,,,,,,,,,2960,99.20001292,39.19996973,1,0,0,response1disk,,6,10.4000116,15.19999379,1,0,0,rectangle,10.4000116,15.19999379,1,0,0,10.4000116,15.19999379,1,0,0,0,28,28,110,1,,,,,,,,
,,,,,,,,,,,,,FF,,,,,,,,1.6177,,,,,,,,,,,,,,,,,,,,,,60fc62bc260a350027a1432c,61036dff94779c6ddc25f943,2021-07-29_22h12.57.771,Simcolourproject_2stim_asymm_v5,2020.2.10,Win32,60,61025ae37ef11b136ea224fe,,,,,,,,,1445,-62.39994066,113.5999953,1,0,0,response7disk,,0,9.600060415,11.19999373,1,0,0,rectangle,9.600060415,11.19999373,1,0,0,9.600060415,11.19999373,1,0,0,0,29,29,159,1,,,,,,,,
,,,,,,,,,,,,,FF,,,,,,,,1.2079,,,,,,,,,,,,,,,,,,,,,,60fc62bc260a350027a1432c,61036dff94779c6ddc25f943,2021-07-29_22h12.57.771,Simcolourproject_2stim_asymm_v5,2020.2.10,Win32,60,61025ae37ef11b136ea224fe,,,,,,,,,1282,53.60001224,124.7999954,1,0,0,response1disk,,7,2.40001148,-2.400006473,1,0,0,rectangle,50.4000122,109.5999952,1,0,0,-9.599988699,-2.400006473,1,0,0,0,30,30,46,1,,response1disk_3,TRUE,7,7,"[142,58,31,226,0,214,84,184,95,163,61,307,78,107,146,50,289,112,108,269]",1.8815,rectangle
,,,,,,,,,,,,,FF,,,,,,,,3.3395,,,,,,,,,,,,,,,,,,,,,,60fc62bc260a350027a1432c,61036dff94779c6ddc25f943,2021-07-29_22h12.57.771,Simcolourproject_2stim_asymm_v5,2020.2.10,Win32,60,61025ae37ef11b136ea224fe,,,,,,,,,2906,47.20001215,-103.200008,1,0,0,response3disk,,4,4.800011516,10.39999372,1,0,0,rectangle,4.800011516,10.39999372,1,0,0,4.800011516,10.39999372,1,0,0,0,31,31,147,1,,,,,,,,
,,,,,,,,,,,,,FF,,,,,,,,1.5481,,,,,,,,,,,,,,,,,,,,,,60fc62bc260a350027a1432c,61036dff94779c6ddc25f943,2021-07-29_22h12.57.771,Simcolourproject_2stim_asymm_v5,2020.2.10,Win32,60,61025ae37ef11b136ea224fe,,,,,,,,,1414,40.00001204,110.3999952,1,0,0,response1disk,,7,-4.799988627,7.999993682,1,0,0,rectangle,-4.799988627,7.999993682,1,0,0,-4.799988627,7.999993682,1,0,0,0,32,32,73,1,,,,,,,,
,,,,,,,,,,,,,FF,,,,,,,,2.2841,,,,,,,,,,,,,,,,,,,,,,60fc62bc260a350027a1432c,61036dff94779c6ddc25f943,2021-07-29_22h12.57.771,Simcolourproject_2stim_asymm_v5,2020.2.10,Win32,60,61025ae37ef11b136ea224fe,,,,,,,,,3006,-98.39994119,-52.00000721,1,0,0,response5disk,,2,7.200011551,-6.4373E-06,1,0,0,rectangle,7.200011551,-6.4373E-06,1,0,0,7.200011551,-6.4373E-06,1,0,0,0,33,33,16,1,,,,,,,,
,,,,,,,,,,,,,FF,,,,,,,,1.1456,,,,,,,,,,,,,,,,,,,,,,60fc62bc260a350027a1432c,61036dff94779c6ddc25f943,2021-07-29_22h12.57.771,Simcolourproject_2stim_asymm_v5,2020.2.10,Win32,60,61025ae37ef11b136ea224fe,,,,,,,,,4216,40.80001205,122.3999954,1,0,0,response1disk,,7,-8.799988687,-8.800006568,1,0,0,rectangle,-8.799988687,-8.800006568,1,0,0,-8.799988687,-8.800006568,1,0,0,0,34,34,115,1,,,,,,,,
,,,,,,,,,,,,,FF,,,,,,,,0.9927,,,,,,,,,,,,,,,,,,,,,,60fc62bc260a350027a1432c,61036dff94779c6ddc25f943,2021-07-29_22h12.57.771,Simcolourproject_2stim_asymm_v5,2020.2.10,Win32,60,61025ae37ef11b136ea224fe,,,,,,,,,2353,41.60006089,122.3999954,1,0,0,response1disk,,7,3.200011492,3.999993622,1,0,0,rectangle,3.200011492,3.999993622,1,0,0,3.200011492,3.999993622,1,0,0,0,35,35,124,1,,,,,,,,
,,,,,,,,,,,,,FF,,,,,,,,1.3121,,,,,,,,,,,,,,,,,,,,,,60fc62bc260a350027a1432c,61036dff94779c6ddc25f943,2021-07-29_22h12.57.771,Simcolourproject_2stim_asymm_v5,2020.2.10,Win32,60,61025ae37ef11b136ea224fe,,,,,,,,,854,65.60001242,123.199971,1,0,0,response1disk,,7,-6.399939823,-5.600006521,1,0,0,rectangle,-6.399939823,-5.600006521,1,0,0,-6.399939823,-5.600006521,1,0,0,0,36,36,55,1,,,,,,,,
,,,,,,,,,,,,,FF,,,,,,,,2.1938,,,,,,,,,,,,,,,,,,,,,,60fc62bc260a350027a1432c,61036dff94779c6ddc25f943,2021-07-29_22h12.57.771,Simcolourproject_2stim_asymm_v5,2020.2.10,Win32,60,61025ae37ef11b136ea224fe,,,,,,,,,2901,-90.39994107,51.99999434,1,0,0,response7disk,,1,-12.79998875,-2.400006473,1,0,0,rectangle,-12.79998875,-2.400006473,1,0,0,-12.79998875,-2.400006473,1,0,0,0,37,37,148,1,,,,,,,,
,,,,,,,,,,,,,FF,,,,,,,,3.0755,,,,,,,,,,,,,,,,,,,,,,60fc62bc260a350027a1432c,61036dff94779c6ddc25f943,2021-07-29_22h12.57.771,Simcolourproject_2stim_asymm_v5,2020.2.10,Win32,60,61025ae37ef11b136ea224fe,,,,,,,,,2118,36.00001198,-90.40000778,1,0,0,response3disk,,4,6.400011539,7.19999367,1,0,0,rectangle,6.400011539,7.19999367,1,0,0,6.400011539,7.19999367,1,0,0,0,38,38,41,1,,,,,,,,
,,,,,,,,,,,,,FF,,,,,,,,1.4232,,,,,,,,,,,,,,,,,,,,,,60fc62bc260a350027a1432c,61036dff94779c6ddc25f943,2021-07-29_22h12.57.771,Simcolourproject_2stim_asymm_v5,2020.2.10,Win32,60,61025ae37ef11b136ea224fe,,,,,,,,,33,56.80001229,100.7999951,1,0,0,response1disk,,7,20.80001175,-7.200006545,1,0,0,rectangle,20.80001175,-7.200006545,1,0,0,20.80001175,-7.200006545,1,0,0,0,39,39,152,1,,,,,,,,
,,,,,,,,,,,,,FF,,,,,,,,0.694,,,,,,,,,,,,,,,,,,,,,,60fc62bc260a350027a1432c,61036dff94779c6ddc25f943,2021-07-29_22h12.57.771,Simcolourproject_2stim_asymm_v5,2020.2.10,Win32,60,61025ae37ef11b136ea224fe,,,,,,,,,2939,64.0000124,111.1999708,1,0,0,response1disk,,7,-5.599988639,-12.00000662,1,0,0,rectangle,-5.599988639,-12.00000662,1,0,0,-5.599988639,-12.00000662,1,0,0,0,40,40,93,1,,,,,,,,
,,,,,,,,,,,,,FF,,,,,,,,1.3678,,,,,,,,,,,,,,,,,,,,,,60fc62bc260a350027a1432c,61036dff94779c6ddc25f943,2021-07-29_22h12.57.771,Simcolourproject_2stim_asymm_v5,2020.2.10,Win32,60,61025ae37ef11b136ea224fe,,,,,,,,,3589,40.00001204,125.5999954,1,0,0,response1disk,,7,1.14441E-05,5.599993646,1,0,0,rectangle,1.14441E-05,5.599993646,1,0,0,1.14441E-05,5.599993646,1,0,0,0,41,41,106,1,,,,,,,,
,,,,,,,,,,,,,FF,,,,,,,,1.0068,,,,,,,,,,,,,,,,,,,,,,60fc62bc260a350027a1432c,61036dff94779c6ddc25f943,2021-07-29_22h12.57.771,Simcolourproject_2stim_asymm_v5,2020.2.10,Win32,60,61025ae37ef11b136ea224fe,,,,,,,,,1496,44.80001211,121.5999954,1,0,0,response1disk,,7,4.000011504,3.999993622,1,0,0,rectangle,4.000011504,3.999993622,1,0,0,4.000011504,3.999993622,1,0,0,0,42,42,154,1,,,,,,,,
,,,,,,,,,,,,,FF,,,,,,,,4.5476,,,,,,,,,,,,,,,,,,,,,,60fc62bc260a350027a1432c,61036dff94779c6ddc25f943,2021-07-29_22h12.57.771,Simcolourproject_2stim_asymm_v5,2020.2.10,Win32,60,61025ae37ef11b136ea224fe,,,,,,,,,2175,-31.19998902,-96.80000788,1,0,0,response5disk,,3,-3.999988616,-6.400006533,1,0,0,rectangle,-3.999988616,-6.400006533,1,0,0,-3.999988616,-6.400006533,1,0,0,0,43,43,50,1,,,,,,,,
,,,,,,,,,,,,,FF,,,,,,,,0.7705,,,,,,,,,,,,,,,,,,,,,,60fc62bc260a350027a1432c,61036dff94779c6ddc25f943,2021-07-29_22h12.57.771,Simcolourproject_2stim_asymm_v5,2020.2.10,Win32,60,61025ae37ef11b136ea224fe,,,,,,,,,2775,-42.39994036,104.7999951,1,0,0,response7disk,,0,-7.999988675,-12.80000663,1,0,0,rectangle,-7.999988675,-12.80000663,1,0,0,-7.999988675,-12.80000663,1,0,0,0,44,44,111,1,,,,,,,,
,,,,,,,,,,,,,FF,,,,,,,,1.2011,,,,,,,,,,,,,,,,,,,,,,60fc62bc260a350027a1432c,61036dff94779c6ddc25f943,2021-07-29_22h12.57.771,Simcolourproject_2stim_asymm_v5,2020.2.10,Win32,60,61025ae37ef11b136ea224fe,,,,,,,,,550,-89.59998989,40.79999417,1,0,0,response7disk,,1,0.800011456,9.599993706,1,0,0,rectangle,0.800011456,9.599993706,1,0,0,0.800011456,9.599993706,1,0,0,0,45,45,53,1,,,,,,,,
,,,,,,,,,,,,,FF,,,,,,,,1.0899,,,,,,,,,,,,,,,,,,,,,,60fc62bc260a350027a1432c,61036dff94779c6ddc25f943,2021-07-29_22h12.57.771,Simcolourproject_2stim_asymm_v5,2020.2.10,Win32,60,61025ae37ef11b136ea224fe,,,,,,,,,3668,-79.99998975,122.3999954,1,0,0,response7disk,,0,-1.59998858,13.59999377,1,0,0,rectangle,-1.59998858,13.59999377,1,0,0,-1.59998858,13.59999377,1,0,0,0,46,46,116,1,,,,,,,,
,,,,,,,,,,,,,FF,,,,,,,,1.0624,,,,,,,,,,,,,,,,,,,,,,60fc62bc260a350027a1432c,61036dff94779c6ddc25f943,2021-07-29_22h12.57.771,Simcolourproject_2stim_asymm_v5,2020.2.10,Win32,60,61025ae37ef11b136ea224fe,,,,,,,,,1753,-47.99998927,-101.6000568,1,0,0,response5disk,,3,-18.39994,-8.800006568,1,0,0,rectangle,-18.39994,-8.800006568,1,0,0,-18.39994,-8.800006568,1,0,0,0,47,47,127,1,,,,,,,,
,,,,,,,,,,,,,FF,,,,,,,,1.805,,,,,,,,,,,,,,,,,,,,,,60fc62bc260a350027a1432c,61036dff94779c6ddc25f943,2021-07-29_22h12.57.771,Simcolourproject_2stim_asymm_v5,2020.2.10,Win32,60,61025ae37ef11b136ea224fe,,,,,,,,,2189,32.80001193,114.3999953,1,0,0,response1disk,,7,-1.59998858,-1.600006461,1,0,0,rectangle,-1.59998858,-1.600006461,1,0,0,-1.59998858,-1.600006461,1,0,0,0,48,48,6,1,,,,,,,,
,,,,,,,,,,,,,FF,,,,,,,,0.9857,,,,,,,,,,,,,,,,,,,,,,60fc62bc260a350027a1432c,61036dff94779c6ddc25f943,2021-07-29_22h12.57.771,Simcolourproject_2stim_asymm_v5,2020.2.10,Win32,60,61025ae37ef11b136ea224fe,,,,,,,,,609,86.40001273,34.39999408,1,0,0,response1disk,,6,12.00001162,-1.600006461,1,0,0,rectangle,-33.59998906,-122.4000083,1,0,0,-15.19998878,7.999993682,1,0,0,0,49,49,15,1,,response5disk_3,TRUE,3,3,"[142,58,31,226,0,214,84,184,95,163,61,307,78,107,146,50,289,112,108,269]",1.9927,rectangle
,,,,,,,,,,,,,FF,,,,,,,,1.9578,,,,,,,,,,,,,,,,,,,,,,60fc62bc260a350027a1432c,61036dff94779c6ddc25f943,2021-07-29_22h12.57.771,Simcolourproject_2stim_asymm_v5,2020.2.10,Win32,60,61025ae37ef11b136ea224fe,,,,,,,,,4083,-43.99998921,-89.6000566,1,0,0,response5disk,,3,1.14441E-05,2.399993598,1,0,0,rectangle,1.14441E-05,2.399993598,1,0,0,1.14441E-05,2.399993598,1,0,0,0,50,50,133,1,,,,,,,,
,,,,,,,,,,,,,FF,,,,,,,,0.8399,,,,,,,,,,,,,,,,,,,,,,60fc62bc260a350027a1432c,61036dff94779c6ddc25f943,2021-07-29_22h12.57.771,Simcolourproject_2stim_asymm_v5,2020.2.10,Win32,60,61025ae37ef11b136ea224fe,,,,,,,,,3112,39.20001203,95.99999499,1,0,0,response1disk,,7,-4.799988627,-14.40000665,1,0,0,rectangle,-4.799988627,-14.40000665,1,0,0,-4.799988627,-14.40000665,1,0,0,0,51,51,1,1,,,,,,,,
,,,,,,,,,,,,,FF,,,,,,,,1.4927,,,,,,,,,,,,,,,,,,,,,,60fc62bc260a350027a1432c,61036dff94779c6ddc25f943,2021-07-29_22h12.57.771,Simcolourproject_2stim_asymm_v5,2020.2.10,Win32,60,61025ae37ef11b136ea224fe,,,,,,,,,59,72.00001252,96.79999501,1,0,0,response1disk,,7,-19.99998885,7.999993682,1,0,0,rectangle,-19.99998885,7.999993682,1,0,0,-19.99998885,7.999993682,1,0,0,0,52,52,118,1,,,,,,,,
,,,,,,,,,,,,,FF,,,,,,,,0.9997,,,,,,,,,,,,,,,,,,,,,,60fc62bc260a350027a1432c,61036dff94779c6ddc25f943,2021-07-29_22h12.57.771,Simcolourproject_2stim_asymm_v5,2020.2.10,Win32,60,61025ae37ef11b136ea224fe,,,,,,,,,3880,-91.99998993,-41.60000706,1,0,0,response5disk,,2,33.60006077,15.9999938,1,0,0,rectangle,33.60006077,15.9999938,1,0,0,33.60006077,15.9999938,1,0,0,0,53,53,80,1,,,,,,,,
,,,,,,,,,,,,,FF,,,,,,,,0.9718,,,,,,,,,,,,,,,,,,,,,,60fc62bc260a350027a1432c,61036dff94779c6ddc25f943,2021-07-29_22h12.57.771,Simcolourproject_2stim_asymm_v5,2020.2.10,Win32,60,61025ae37ef11b136ea224fe,,,,,,,,,3064,104.000013,35.19996967,1,0,0,response1disk,,6,-3.999988616,4.799993634,1,0,0,rectangle,-3.999988616,4.799993634,1,0,0,-3.999988616,4.799993634,1,0,0,0,54,54,140,1,,,,,,,,
,,,,,,,,,,,,,FF,,,,,,,,0.9858,,,,,,,,,,,,,,,,,,,,,,60fc62bc260a350027a1432c,61036dff94779c6ddc25f943,2021-07-29_22h12.57.771,Simcolourproject_2stim_asymm_v5,2020.2.10,Win32,60,61025ae37ef11b136ea224fe,,,,,,,,,2722,-97.59999001,56.79999441,1,0,0,response7disk,,1,-7.999988675,0.799993575,1,0,0,rectangle,-7.999988675,0.799993575,1,0,0,-7.999988675,0.799993575,1,0,0,0,55,55,7,1,,,,,,,,
,,,,,,,,,,,,,FF,,,,,,,,0.9857,,,,,,,,,,,,,,,,,,,,,,60fc62bc260a350027a1432c,61036dff94779c6ddc25f943,2021-07-29_22h12.57.771,Simcolourproject_2stim_asymm_v5,2020.2.10,Win32,60,61025ae37ef11b136ea224fe,,,,,,,,,651,62.40001237,120.7999954,1,0,0,response1disk,,7,-11.19998872,15.9999938,1,0,0,rectangle,-11.19998872,15.9999938,1,0,0,-11.19998872,15.9999938,1,0,0,0,56,56,13,1,,,,,,,,
,,,,,,,,,,,,,FF,,,,,,,,1.4578,,,,,,,,,,,,,,,,,,,,,,60fc62bc260a350027a1432c,61036dff94779c6ddc25f943,2021-07-29_22h12.57.771,Simcolourproject_2stim_asymm_v5,2020.2.10,Win32,60,61025ae37ef11b136ea224fe,,,,,,,,,1138,-112.7999902,45.59999424,1,0,0,response7disk,,1,-7.999988675,8.799993694,1,0,0,rectangle,-121.5999904,51.19996991,1,0,0,8.000011563,-6.4373E-06,1,0,0,0,57,57,14,1,,response7disk_3,TRUE,1,1,"[142,58,31,226,0,214,84,184,95,163,61,307,78,107,146,50,289,112,108,269]",1.1939,rectangle
,,,,,,,,,,,,,FF,,,,,,,,1.3677,,,,,,,,,,,,,,,,,,,,,,60fc62bc260a350027a1432c,61036dff94779c6ddc25f943,2021-07-29_22h12.57.771,Simcolourproject_2stim_asymm_v5,2020.2.10,Win32,60,61025ae37ef11b136ea224fe,,,,,,,,,1277,83.20001268,95.19997057,1,0,0,response1disk,,7,4.800011516,0.799993575,1,0,0,rectangle,4.800011516,0.799993575,1,0,0,4.800011516,0.799993575,1,0,0,0,58,58,138,1,,,,,,,,
,,,,,,,,,,,,,FF,,,,,,,,2.9785,,,,,,,,,,,,,,,,,,,,,,60fc62bc260a350027a1432c,61036dff94779c6ddc25f943,2021-07-29_22h12.57.771,Simcolourproject_2stim_asymm_v5,2020.2.10,Win32,60,61025ae37ef11b136ea224fe,,,,,,,,,2619,-36.7999891,-88.80000776,1,0,0,response5disk,,3,-8.799988687,10.39999372,1,0,0,rectangle,-8.799988687,10.39999372,1,0,0,-8.799988687,10.39999372,1,0,0,0,59,59,69,1,,,,,,,,
,,,,,,,,,,,,,FF,,,,,,,,1.1178,,,,,,,,,,,,,,,,,,,,,,60fc62bc260a350027a1432c,61036dff94779c6ddc25f943,2021-07-29_22h12.57.771,Simcolourproject_2stim_asymm_v5,2020.2.10,Win32,60,61025ae37ef11b136ea224fe,,,,,,,,,2898,-77.59998971,29.599994,1,0,0,response7disk,,1,0.800011456,-5.600006521,1,0,0,rectangle,-78.3999409,39.19996973,1,0,0,-5.599988639,-0.800006449,1,0,0,0,60,60,113,1,,response7disk_3,TRUE,1,4,"[142,58,31,226,0,214,84,184,95,163,61,307,78,107,146,50,289,112,108,269]",1.8674,rectangle
,,,,,,,,,,,,,FF,,,,,,,,1.7843,,,,,,,,,,,,,,,,,,,,,,60fc62bc260a350027a1432c,61036dff94779c6ddc25f943,2021-07-29_22h12.57.771,Simcolourproject_2stim_asymm_v5,2020.2.10,Win32,60,61025ae37ef11b136ea224fe,,,,,,,,,1666,41.60006089,-97.60005672,1,0,0,response3disk,,4,5.600060356,16.79999381,1,0,0,rectangle,5.600060356,16.79999381,1,0,0,5.600060356,16.79999381,1,0,0,0,61,61,56,1,,,,,,,,
,,,,,,,,,,,,,FF,,,,,,,,1.305,,,,,,,,,,,,,,,,,,,,,,60fc62bc260a350027a1432c,61036dff94779c6ddc25f943,2021-07-29_22h12.57.771,Simcolourproject_2stim_asymm_v5,2020.2.10,Win32,60,61025ae37ef11b136ea224fe,,,,,,,,,3556,-95.19998997,40.79999417,1,0,0,response7disk,,1,12.80001163,9.599993706,1,0,0,rectangle,12.80001163,9.599993706,1,0,0,12.80001163,9.599993706,1,0,0,0,62,62,11,1,,,,,,,,
,,,,,,,,,,,,,FF,,,,,,,,2.0689,,,,,,,,,,,,,,,,,,,,,,60fc62bc260a350027a1432c,61036dff94779c6ddc25f943,2021-07-29_22h12.57.771,Simcolourproject_2stim_asymm_v5,2020.2.10,Win32,60,61025ae37ef11b136ea224fe,,,,,,,,,1514,100.0000129,54.39999437,1,0,0,response1disk,,6,-14.39993994,-4.800006509,1,0,0,rectangle,-14.39993994,-4.800006509,1,0,0,-14.39993994,-4.800006509,1,0,0,0,63,63,156,1,,,,,,,,
,,,,,,,,,,,,,FF,,,,,,,,3.3605,,,,,,,,,,,,,,,,,,,,,,60fc62bc260a350027a1432c,61036dff94779c6ddc25f943,2021-07-29_22h12.57.771,Simcolourproject_2stim_asymm_v5,2020.2.10,Win32,60,61025ae37ef11b136ea224fe,,,,,,,,,2325,52.80001223,104.7999951,1,0,0,response1disk,,7,1.600060296,11.99999374,1,0,0,rectangle,1.600060296,11.99999374,1,0,0,1.600060296,11.99999374,1,0,0,0,64,64,25,1,,,,,,,,
,,,,,,,,,,,,,FF,,,,,,,,1.7288,,,,,,,,,,,,,,,,,,,,,,60fc62bc260a350027a1432c,61036dff94779c6ddc25f943,2021-07-29_22h12.57.771,Simcolourproject_2stim_asymm_v5,2020.2.10,Win32,60,61025ae37ef11b136ea224fe,,,,,,,,,1703,96.00001287,43.19996979,1,0,0,response1disk,,6,-10.39993988,-0.800006449,1,0,0,rectangle,-10.39993988,-0.800006449,1,0,0,-10.39993988,-0.800006449,1,0,0,0,65,65,81,1,,,,,,,,
,,,,,,,,,,,,,FF,,,,,,,,0.9303,,,,,,,,,,,,,,,,,,,,,,60fc62bc260a350027a1432c,61036dff94779c6ddc25f943,2021-07-29_22h12.57.771,Simcolourproject_2stim_asymm_v5,2020.2.10,Win32,60,61025ae37ef11b136ea224fe,,,,,,,,,36,23.20001179,128.7999955,1,0,0,response1disk,,7,2.40001148,5.599993646,1,0,0,rectangle,2.40001148,5.599993646,1,0,0,2.40001148,5.599993646,1,0,0,0,66,66,103,1,,,,,,,,
,,,,,,,,,,,,,FF,,,,,,,,1.1526,,,,,,,,,,,,,,,,,,,,,,60fc62bc260a350027a1432c,61036dff94779c6ddc25f943,2021-07-29_22h12.57.771,Simcolourproject_2stim_asymm_v5,2020.2.10,Win32,60,61025ae37ef11b136ea224fe,,,,,,,,,1373,-88.79998988,-40.00000703,1,0,0,response5disk,,2,-12.79998875,3.19999361,1,0,0,rectangle,-12.79998875,3.19999361,1,0,0,-12.79998875,3.19999361,1,0,0,0,67,67,100,1,,,,,,,,
,,,,,,,,,,,,,FF,,,,,,,,1.0066,,,,,,,,,,,,,,,,,,,,,,60fc62bc260a350027a1432c,61036dff94779c6ddc25f943,2021-07-29_22h12.57.771,Simcolourproject_2stim_asymm_v5,2020.2.10,Win32,60,61025ae37ef11b136ea224fe,,,,,,,,,1002,108.0000131,41.59999418,1,0,0,response1disk,,6,-12.79998875,-12.00000662,1,0,0,rectangle,-12.79998875,-12.00000662,1,0,0,-12.79998875,-12.00000662,1,0,0,0,68,68,121,1,,,,,,,,
,,,,,,,,,,,,,FF,,,,,,,,0.9718,,,,,,,,,,,,,,,,,,,,,,60fc62bc260a350027a1432c,61036dff94779c6ddc25f943,2021-07-29_22h12.57.771,Simcolourproject_2stim_asymm_v5,2020.2.10,Win32,60,61025ae37ef11b136ea224fe,,,,,,,,,3761,86.40001273,34.39999408,1,0,0,response1disk,,6,14.40001166,1.599993587,1,0,0,rectangle,14.40001166,1.599993587,1,0,0,14.40001166,1.599993587,1,0,0,0,69,69,75,1,,,,,,,,
,,,,,,,,,,,,,FF,,,,,,,,0.7844,,,,,,,,,,,,,,,,,,,,,,60fc62bc260a350027a1432c,61036dff94779c6ddc25f943,2021-07-29_22h12.57.771,Simcolourproject_2stim_asymm_v5,2020.2.10,Win32,60,61025ae37ef11b136ea224fe,,,,,,,,,131,35.20001197,77.59999472,1,0,0,response1disk,,7,-10.39993988,12.79999375,1,0,0,rectangle,-10.39993988,12.79999375,1,0,0,-10.39993988,12.79999375,1,0,0,0,70,70,86,1,,,,,,,,
,,,,,,,,,,,,,FF,,,,,,,,0.8817,,,,,,,,,,,,,,,,,,,,,,60fc62bc260a350027a1432c,61036dff94779c6ddc25f943,2021-07-29_22h12.57.771,Simcolourproject_2stim_asymm_v5,2020.2.10,Win32,60,61025ae37ef11b136ea224fe,,,,,,,,,2539,24.0000118,103.9999951,1,0,0,response1disk,,7,-5.599988639,11.99999374,1,0,0,rectangle,-5.599988639,11.99999374,1,0,0,-5.599988639,11.99999374,1,0,0,0,71,71,78,1,,,,,,,,
,,,,,,,,,,,,,FF,,,,,,,,0.8538,,,,,,,,,,,,,,,,,,,,,,60fc62bc260a350027a1432c,61036dff94779c6ddc25f943,2021-07-29_22h12.57.771,Simcolourproject_2stim_asymm_v5,2020.2.10,Win32,60,61025ae37ef11b136ea224fe,,,,,,,,,446,48.00001216,103.9999951,1,0,0,response1disk,,7,-10.39993988,2.399993598,1,0,0,rectangle,-10.39993988,2.399993598,1,0,0,-10.39993988,2.399993598,1,0,0,0,72,72,92,1,,,,,,,,
,,,,,,,,,,,,,FF,,,,,,,,1.9995,,,,,,,,,,,,,,,,,,,,,,60fc62bc260a350027a1432c,61036dff94779c6ddc25f943,2021-07-29_22h12.57.771,Simcolourproject_2stim_asymm_v5,2020.2.10,Win32,60,61025ae37ef11b136ea224fe,,,,,,,,,1342,125.6000133,47.99999428,1,0,0,response1disk,,6,1.600060296,-12.00000662,1,0,0,rectangle,1.600060296,-12.00000662,1,0,0,1.600060296,-12.00000662,1,0,0,0,73,73,36,1,,,,,,,,
,,,,,,,,,,,,,FF,,,,,,,,0.5553,,,,,,,,,,,,,,,,,,,,,,60fc62bc260a350027a1432c,61036dff94779c6ddc25f943,2021-07-29_22h12.57.771,Simcolourproject_2stim_asymm_v5,2020.2.10,Win32,60,61025ae37ef11b136ea224fe,,,,,,,,,2527,104.000013,43.19996979,1,0,0,response1disk,,6,5.600060356,-8.000006557,1,0,0,rectangle,5.600060356,-8.000006557,1,0,0,5.600060356,-8.000006557,1,0,0,0,74,74,119,1,,,,,,,,
,,,,,,,,,,,,,FF,,,,,,,,0.7983,,,,,,,,,,,,,,,,,,,,,,60fc62bc260a350027a1432c,61036dff94779c6ddc25f943,2021-07-29_22h12.57.771,Simcolourproject_2stim_asymm_v5,2020.2.10,Win32,60,61025ae37ef11b136ea224fe,,,,,,,,,1491,88.80001277,40.79999417,1,0,0,response1disk,,6,-7.999988675,-8.800006568,1,0,0,rectangle,-7.999988675,-8.800006568,1,0,0,-7.999988675,-8.800006568,1,0,0,0,75,75,91,1,,,,,,,,
,,,,,,,,,,,,,FF,,,,,,,,0.8953,,,,,,,,,,,,,,,,,,,,,,60fc62bc260a350027a1432c,61036dff94779c6ddc25f943,2021-07-29_22h12.57.771,Simcolourproject_2stim_asymm_v5,2020.2.10,Win32,60,61025ae37ef11b136ea224fe,,,,,,,,,2271,93.60001284,42.39999419,1,0,0,response1disk,,6,25.60006065,4.799993634,1,0,0,rectangle,25.60006065,4.799993634,1,0,0,25.60006065,4.799993634,1,0,0,0,76,76,18,1,,,,,,,,
,,,,,,,,,,,,,FF,,,,,,,,0.9791,,,,,,,,,,,,,,,,,,,,,,60fc62bc260a350027a1432c,61036dff94779c6ddc25f943,2021-07-29_22h12.57.771,Simcolourproject_2stim_asymm_v5,2020.2.10,Win32,60,61025ae37ef11b136ea224fe,,,,,,,,,2333,88.80001277,35.19996967,1,0,0,response1disk,,6,14.40001166,-2.400006473,1,0,0,rectangle,128.0000134,-58.40000731,1,0,0,-11.99998873,2.399993598,1,0,0,0,77,77,29,1,,response3disk_3,TRUE,5,5,"[142,58,31,226,0,214,84,184,95,163,61,307,78,107,146,50,289,112,108,269]",1.9098,rectangle
,,,,,,,,,,,,,FF,,,,,,,,1.2149,,,,,,,,,,,,,,,,,,,,,,60fc62bc260a350027a1432c,61036dff94779c6ddc25f943,2021-07-29_22h12.57.771,Simcolourproject_2stim_asymm_v5,2020.2.10,Win32,60,61025ae37ef11b136ea224fe,,,,,,,,,1895,-114.3999414,-88.80000776,1,0,0,response5disk,,2,4.800011516,2.399993598,1,0,0,rectangle,4.800011516,2.399993598,1,0,0,4.800011516,2.399993598,1,0,0,0,78,78,136,1,,,,,,,,
,,,,,,,,,,,,,FF,,,,,,,,0.6941,,,,,,,,,,,,,,,,,,,,,,60fc62bc260a350027a1432c,61036dff94779c6ddc25f943,2021-07-29_22h12.57.771,Simcolourproject_2stim_asymm_v5,2020.2.10,Win32,60,61025ae37ef11b136ea224fe,,,,,,,,,2863,112.8000131,47.19996985,1,0,0,response1disk,,6,-36.7999891,-6.400006533,1,0,0,rectangle,-36.7999891,-6.400006533,1,0,0,-36.7999891,-6.400006533,1,0,0,0,79,79,24,1,,,,,,,,
,,,,,,,,,,,,,FF,,,,,,,,0.7984,,,,,,,,,,,,,,,,,,,,,,60fc62bc260a350027a1432c,61036dff94779c6ddc25f943,2021-07-29_22h12.57.771,Simcolourproject_2stim_asymm_v5,2020.2.10,Win32,60,61025ae37ef11b136ea224fe,,,,,,,,,3808,26.40001184,62.39999449,1,0,0,response1disk,,7,-19.19998884,-9.60000658,1,0,0,rectangle,-19.19998884,-9.60000658,1,0,0,-19.19998884,-9.60000658,1,0,0,0,80,80,20,1,,,,,,,,
,,,,,,,,,,,,,FF,,,,,,,,1.1107,,,,,,,,,,,,,,,,,,,,,,60fc62bc260a350027a1432c,61036dff94779c6ddc25f943,2021-07-29_22h12.57.771,Simcolourproject_2stim_asymm_v5,2020.2.10,Win32,60,61025ae37ef11b136ea224fe,,,,,,,,,3213,54.40001225,78.39999473,1,0,0,response1disk,,7,-0.799988568,-15.20000666,1,0,0,rectangle,-0.799988568,-15.20000666,1,0,0,-0.799988568,-15.20000666,1,0,0,0,81,81,82,1,,,,,,,,
,,,,,,,,,,,,,FF,,,,,,,,1.2846,,,,,,,,,,,,,,,,,,,,,,60fc62bc260a350027a1432c,61036dff94779c6ddc25f943,2021-07-29_22h12.57.771,Simcolourproject_2stim_asymm_v5,2020.2.10,Win32,60,61025ae37ef11b136ea224fe,,,,,,,,,4150,-59.19998944,-90.40000778,1,0,0,response5disk,,3,3.200011492,14.39999378,1,0,0,rectangle,3.200011492,14.39999378,1,0,0,3.200011492,14.39999378,1,0,0,0,82,82,139,1,,,,,,,,
,,,,,,,,,,,,,FF,,,,,,,,2.6593,,,,,,,,,,,,,,,,,,,,,,60fc62bc260a350027a1432c,61036dff94779c6ddc25f943,2021-07-29_22h12.57.771,Simcolourproject_2stim_asymm_v5,2020.2.10,Win32,60,61025ae37ef11b136ea224fe,,,,,,,,,1590,76.00001258,46.39999425,1,0,0,response1disk,,6,-2.399939764,0.799993575,1,0,0,rectangle,57.6000123,-124.8000083,1,0,0,1.14441E-05,-5.600006521,1,0,0,0,83,83,87,1,,response3disk_3,TRUE,4,4,"[142,58,31,226,0,214,84,184,95,163,61,307,78,107,146,50,289,112,108,269]",2.7008,rectangle
,,,,,,,,,,,,,FF,,,,,,,,3.9437,,,,,,,,,,,,,,,,,,,,,,60fc62bc260a350027a1432c,61036dff94779c6ddc25f943,2021-07-29_22h12.57.771,Simcolourproject_2stim_asymm_v5,2020.2.10,Win32,60,61025ae37ef11b136ea224fe,,,,,,,,,2434,104.800013,-28.00000685,1,0,0,response3disk,,5,-34.39994024,-3.200006485,1,0,0,rectangle,-34.39994024,-3.200006485,1,0,0,-34.39994024,-3.200006485,1,0,0,0,84,84,23,1,,,,,,,,
,,,,,,,,,,,,,FF,,,,,,,,0.6039,,,,,,,,,,,,,,,,,,,,,,60fc62bc260a350027a1432c,61036dff94779c6ddc25f943,2021-07-29_22h12.57.771,Simcolourproject_2stim_asymm_v5,2020.2.10,Win32,60,61025ae37ef11b136ea224fe,,,,,,,,,3510,-58.3999406,43.19996979,1,0,0,response7disk,,1,11.20001161,2.399993598,1,0,0,rectangle,11.20001161,2.399993598,1,0,0,11.20001161,2.399993598,1,0,0,0,85,85,109,1,,,,,,,,
,,,,,,,,,,,,,FF,,,,,,,,0.9789,,,,,,,,,,,,,,,,,,,,,,60fc62bc260a350027a1432c,61036dff94779c6ddc25f943,2021-07-29_22h12.57.771,Simcolourproject_2stim_asymm_v5,2020.2.10,Win32,60,61025ae37ef11b136ea224fe,,,,,,,,,2471,47.20001215,108.7999952,1,0,0,response1disk,,7,3.200011492,0.799993575,1,0,0,rectangle,3.200011492,0.799993575,1,0,0,3.200011492,0.799993575,1,0,0,0,86,86,51,1,,,,,,,,
,,,,,,,,,,,,,FF,,,,,,,,0.8747,,,,,,,,,,,,,,,,,,,,,,60fc62bc260a350027a1432c,61036dff94779c6ddc25f943,2021-07-29_22h12.57.771,Simcolourproject_2stim_asymm_v5,2020.2.10,Win32,60,61025ae37ef11b136ea224fe,,,,,,,,,1893,-85.59998983,-56.00000727,1,0,0,response5disk,,2,3.200011492,7.19999367,1,0,0,rectangle,3.200011492,7.19999367,1,0,0,3.200011492,7.19999367,1,0,0,0,87,87,79,1,,,,,,,,
,,,,,,,,,,,,,FF,,,,,,,,0.5692,,,,,,,,,,,,,,,,,,,,,,60fc62bc260a350027a1432c,61036dff94779c6ddc25f943,2021-07-29_22h12.57.771,Simcolourproject_2stim_asymm_v5,2020.2.10,Win32,60,61025ae37ef11b136ea224fe,,,,,,,,,91,44.80001211,110.3999952,1,0,0,response1disk,,7,0.800011456,-6.400006533,1,0,0,rectangle,0.800011456,-6.400006533,1,0,0,0.800011456,-6.400006533,1,0,0,0,88,88,112,1,,,,,,,,
,,,,,,,,,,,,,FF,,,,,,,,1.1317,,,,,,,,,,,,,,,,,,,,,,60fc62bc260a350027a1432c,61036dff94779c6ddc25f943,2021-07-29_22h12.57.771,Simcolourproject_2stim_asymm_v5,2020.2.10,Win32,60,61025ae37ef11b136ea224fe,,,,,,,,,1773,34.40001196,78.39999473,1,0,0,response1disk,,7,-12.79998875,-6.4373E-06,1,0,0,rectangle,-12.79998875,-6.4373E-06,1,0,0,-12.79998875,-6.4373E-06,1,0,0,0,89,89,34,1,,,,,,,,
,,,,,,,,,,,,,FF,,,,,,,,1.3607,,,,,,,,,,,,,,,,,,,,,,60fc62bc260a350027a1432c,61036dff94779c6ddc25f943,2021-07-29_22h12.57.771,Simcolourproject_2stim_asymm_v5,2020.2.10,Win32,60,61025ae37ef11b136ea224fe,,,,,,,,,1525,96.00001287,-44.00000709,1,0,0,response3disk,,5,8.800011575,3.19999361,1,0,0,rectangle,8.800011575,3.19999361,1,0,0,8.800011575,3.19999361,1,0,0,0,90,90,70,1,,,,,,,,
,,,,,,,,,,,,,FF,,,,,,,,1.4859,,,,,,,,,,,,,,,,,,,,,,60fc62bc260a350027a1432c,61036dff94779c6ddc25f943,2021-07-29_22h12.57.771,Simcolourproject_2stim_asymm_v5,2020.2.10,Win32,60,61025ae37ef11b136ea224fe,,,,,,,,,3939,-97.59999001,-53.60000724,1,0,0,response5disk,,2,3.200011492,3.19999361,1,0,0,rectangle,3.200011492,3.19999361,1,0,0,3.200011492,3.19999361,1,0,0,0,91,91,126,1,,,,,,,,
,,,,,,,,,,,,,FF,,,,,,,,1.826,,,,,,,,,,,,,,,,,,,,,,60fc62bc260a350027a1432c,61036dff94779c6ddc25f943,2021-07-29_22h12.57.771,Simcolourproject_2stim_asymm_v5,2020.2.10,Win32,60,61025ae37ef11b136ea224fe,,,,,,,,,2961,88.00001276,43.99999422,1,0,0,response1disk,,6,-8.799988687,-11.2000066,1,0,0,rectangle,-8.799988687,-11.2000066,1,0,0,-8.799988687,-11.2000066,1,0,0,0,92,92,66,1,,,,,,,,
,,,,,,,,,,,,,FF,,,,,,,,0.8402,,,,,,,,,,,,,,,,,,,,,,60fc62bc260a350027a1432c,61036dff94779c6ddc25f943,2021-07-29_22h12.57.771,Simcolourproject_2stim_asymm_v5,2020.2.10,Win32,60,61025ae37ef11b136ea224fe,,,,,,,,,2197,32.00001192,91.99999493,1,0,0,response1disk,,7,-4.799988627,-3.200006485,1,0,0,rectangle,-4.799988627,-3.200006485,1,0,0,-4.799988627,-3.200006485,1,0,0,0,93,93,62,1,,,,,,,,
,,,,,,,,,,,,,FF,,,,,,,,0.8191,,,,,,,,,,,,,,,,,,,,,,60fc62bc260a350027a1432c,61036dff94779c6ddc25f943,2021-07-29_22h12.57.771,Simcolourproject_2stim_asymm_v5,2020.2.10,Win32,60,61025ae37ef11b136ea224fe,,,,,,,,,1425,64.0000124,104.7999951,1,0,0,response1disk,,7,6.400011539,3.19999361,1,0,0,rectangle,-98.39994119,-44.8000071,1,0,0,-6.399939823,4.799993634,1,0,0,0,94,94,125,1,,response5disk_3,TRUE,2,2,"[142,58,31,226,0,214,84,184,95,163,61,307,78,107,146,50,289,112,108,269]",1.3465,rectangle
,,,,,,,,,,,,,FF,,,,,,,,4.8045,,,,,,,,,,,,,,,,,,,,,,60fc62bc260a350027a1432c,61036dff94779c6ddc25f943,2021-07-29_22h12.57.771,Simcolourproject_2stim_asymm_v5,2020.2.10,Win32,60,61025ae37ef11b136ea224fe,,,,,,,,,755,44.80001211,99.19997063,1,0,0,response1disk,,7,-26.39994012,13.59999377,1,0,0,rectangle,-26.39994012,13.59999377,1,0,0,-26.39994012,13.59999377,1,0,0,0,95,95,83,1,,,,,,,,
,,,,,,,,,,,,,FF,,,,,,,,0.576,,,,,,,,,,,,,,,,,,,,,,60fc62bc260a350027a1432c,61036dff94779c6ddc25f943,2021-07-29_22h12.57.771,Simcolourproject_2stim_asymm_v5,2020.2.10,Win32,60,61025ae37ef11b136ea224fe,,,,,,,,,2158,68.80001247,107.9999952,1,0,0,response1disk,,7,-7.999988675,10.39999372,1,0,0,rectangle,-7.999988675,10.39999372,1,0,0,-7.999988675,10.39999372,1,0,0,0,96,96,58,1,,,,,,,,
,,,,,,,,,,,,,FF,,,,,,,,1.2981,,,,,,,,,,,,,,,,,,,,,,60fc62bc260a350027a1432c,61036dff94779c6ddc25f943,2021-07-29_22h12.57.771,Simcolourproject_2stim_asymm_v5,2020.2.10,Win32,60,61025ae37ef11b136ea224fe,,,,,,,,,198,31.20001191,-72.00000751,1,0,0,response3disk,,4,-0.799988568,-4.000006497,1,0,0,rectangle,-0.799988568,-4.000006497,1,0,0,-0.799988568,-4.000006497,1,0,0,0,97,97,19,1,,,,,,,,
,,,,,,,,,,,,,FF,,,,,,,,1.2289,,,,,,,,,,,,,,,,,,,,,,60fc62bc260a350027a1432c,61036dff94779c6ddc25f943,2021-07-29_22h12.57.771,Simcolourproject_2stim_asymm_v5,2020.2.10,Win32,60,61025ae37ef11b136ea224fe,,,,,,,,,3973,-36.7999891,-84.00000769,1,0,0,response5disk,,3,8.000011563,2.399993598,1,0,0,rectangle,8.000011563,2.399993598,1,0,0,8.000011563,2.399993598,1,0,0,0,98,98,10,1,,,,,,,,
,,,,,,,,,,,,,FF,,,,,,,,0.9723,,,,,,,,,,,,,,,,,,,,,,60fc62bc260a350027a1432c,61036dff94779c6ddc25f943,2021-07-29_22h12.57.771,Simcolourproject_2stim_asymm_v5,2020.2.10,Win32,60,61025ae37ef11b136ea224fe,,,,,,,,,2887,-88.79998988,46.39999425,1,0,0,response7disk,,1,8.000011563,5.599993646,1,0,0,rectangle,8.000011563,5.599993646,1,0,0,8.000011563,5.599993646,1,0,0,0,99,99,5,1,,,,,,,,
,,,,,,,,,,,,,FF,,,,,,,,0.8054,,,,,,,,,,,,,,,,,,,,,,60fc62bc260a350027a1432c,61036dff94779c6ddc25f943,2021-07-29_22h12.57.771,Simcolourproject_2stim_asymm_v5,2020.2.10,Win32,60,61025ae37ef11b136ea224fe,,,,,,,,,86,28.00001186,75.9999947,1,0,0,response1disk,,7,-13.59998876,5.599993646,1,0,0,rectangle,-13.59998876,5.599993646,1,0,0,-13.59998876,5.599993646,1,0,0,0,100,100,26,1,,,,,,,,
,,,,,,,,,,,,,FF,,,,,,,,0.6527,,,,,,,,,,,,,,,,,,,,,,60fc62bc260a350027a1432c,61036dff94779c6ddc25f943,2021-07-29_22h12.57.771,Simcolourproject_2stim_asymm_v5,2020.2.10,Win32,60,61025ae37ef11b136ea224fe,,,,,,,,,3570,40.80001205,64.79999453,1,0,0,response1disk,,7,-5.599988639,-8.800006568,1,0,0,rectangle,-5.599988639,-8.800006568,1,0,0,-5.599988639,-8.800006568,1,0,0,0,101,101,17,1,,,,,,,,
,,,,,,,,,,,,,FF,,,,,,,,0.6874,,,,,,,,,,,,,,,,,,,,,,60fc62bc260a350027a1432c,61036dff94779c6ddc25f943,2021-07-29_22h12.57.771,Simcolourproject_2stim_asymm_v5,2020.2.10,Win32,60,61025ae37ef11b136ea224fe,,,,,,,,,129,120.0000132,35.19996967,1,0,0,response1disk,,6,1.14441E-05,-5.600006521,1,0,0,rectangle,1.14441E-05,-5.600006521,1,0,0,1.14441E-05,-5.600006521,1,0,0,0,102,102,64,1,,,,,,,,
,,,,,,,,,,,,,FF,,,,,,,,1.7914,,,,,,,,,,,,,,,,,,,,,,60fc62bc260a350027a1432c,61036dff94779c6ddc25f943,2021-07-29_22h12.57.771,Simcolourproject_2stim_asymm_v5,2020.2.10,Win32,60,61025ae37ef11b136ea224fe,,,,,,,,,3521,78.40001261,-40.00000703,1,0,0,response3disk,,5,6.400011539,1.599993587,1,0,0,rectangle,6.400011539,1.599993587,1,0,0,6.400011539,1.599993587,1,0,0,0,103,103,74,1,,,,,,,,
,,,,,,,,,,,,,FF,,,,,,,,2.8188,,,,,,,,,,,,,,,,,,,,,,60fc62bc260a350027a1432c,61036dff94779c6ddc25f943,2021-07-29_22h12.57.771,Simcolourproject_2stim_asymm_v5,2020.2.10,Win32,60,61025ae37ef11b136ea224fe,,,,,,,,,701,-54.39994054,-70.40000749,1,0,0,response5disk,,3,-11.99998873,-3.200006485,1,0,0,rectangle,-11.99998873,-3.200006485,1,0,0,-11.99998873,-3.200006485,1,0,0,0,104,104,90,1,,,,,,,,
,,,,,,,,,,,,,FF,,,,,,,,1.2149,,,,,,,,,,,,,,,,,,,,,,60fc62bc260a350027a1432c,61036dff94779c6ddc25f943,2021-07-29_22h12.57.771,Simcolourproject_2stim_asymm_v5,2020.2.10,Win32,60,61025ae37ef11b136ea224fe,,,,,,,,,804,-104.7999901,40.79999417,1,0,0,response7disk,,1,-3.999988616,-12.80000663,1,0,0,rectangle,-3.999988616,-12.80000663,1,0,0,-3.999988616,-12.80000663,1,0,0,0,105,105,158,1,,,,,,,,
,,,,,,,,,,,,,FF,,,,,,,,0.8817,,,,,,,,,,,,,,,,,,,,,,60fc62bc260a350027a1432c,61036dff94779c6ddc25f943,2021-07-29_22h12.57.771,Simcolourproject_2stim_asymm_v5,2020.2.10,Win32,60,61025ae37ef11b136ea224fe,,,,,,,,,346,-42.39994036,-64.00000739,1,0,0,response5disk,,3,4.000011504,3.999993622,1,0,0,rectangle,46.40001214,-89.6000566,1,0,0,0.800011456,-3.200006485,1,0,0,0,106,106,39,1,,response3disk_3,TRUE,4,4,"[142,58,31,226,0,214,84,184,95,163,61,307,78,107,146,50,289,112,108,269]",1.6315,rectangle
,,,,,,,,,,,,,FF,,,,,,,,2.8189,,,,,,,,,,,,,,,,,,,,,,60fc62bc260a350027a1432c,61036dff94779c6ddc25f943,2021-07-29_22h12.57.771,Simcolourproject_2stim_asymm_v5,2020.2.10,Win32,60,61025ae37ef11b136ea224fe,,,,,,,,,2879,-30.39994018,-92.80000782,1,0,0,response5disk,,3,0.800011456,6.399993658,1,0,0,rectangle,56.80001229,-83.20000768,1,0,0,-5.599988639,-5.600006521,1,0,0,0,107,107,31,1,,response3disk_3,TRUE,4,4,"[142,58,31,226,0,214,84,184,95,163,61,307,78,107,146,50,289,112,108,269]",1.7842,rectangle
,,,,,,,,,,,,,FF,,,,,,,,7.8803,,,,,,,,,,,,,,,,,,,,,,60fc62bc260a350027a1432c,61036dff94779c6ddc25f943,2021-07-29_22h12.57.771,Simcolourproject_2stim_asymm_v5,2020.2.10,Win32,60,61025ae37ef11b136ea224fe,,,,,,,,,2411,49.60006101,-83.20000768,1,0,0,response3disk,,4,13.60006047,-5.600006521,1,0,0,rectangle,13.60006047,-5.600006521,1,0,0,13.60006047,-5.600006521,1,0,0,0,108,108,59,1,,,,,,,,
,,,,,,,,,,,,,FF,,,,,,,,0.6942,,,,,,,,,,,,,,,,,,,,,,60fc62bc260a350027a1432c,61036dff94779c6ddc25f943,2021-07-29_22h12.57.771,Simcolourproject_2stim_asymm_v5,2020.2.10,Win32,60,61025ae37ef11b136ea224fe,,,,,,,,,3545,98.40001291,50.39999431,1,0,0,response1disk,,6,24.0000118,-4.000006497,1,0,0,rectangle,24.0000118,-4.000006497,1,0,0,24.0000118,-4.000006497,1,0,0,0,109,109,68,1,,,,,,,,
,,,,,,,,,,,,,FF,,,,,,,,1.833,,,,,,,,,,,,,,,,,,,,,,60fc62bc260a350027a1432c,61036dff94779c6ddc25f943,2021-07-29_22h12.57.771,Simcolourproject_2stim_asymm_v5,2020.2.10,Win32,60,61025ae37ef11b136ea224fe,,,,,,,,,4332,36.80001199,56.79999441,1,0,0,response1disk,,7,24.0000118,-12.00000662,1,0,0,rectangle,24.0000118,-12.00000662,1,0,0,24.0000118,-12.00000662,1,0,0,0,110,110,48,1,,,,,,,,
,,,,,,,,,,,,,FF,,,,,,,,2.1662,,,,,,,,,,,,,,,,,,,,,,60fc62bc260a350027a1432c,61036dff94779c6ddc25f943,2021-07-29_22h12.57.771,Simcolourproject_2stim_asymm_v5,2020.2.10,Win32,60,61025ae37ef11b136ea224fe,,,,,,,,,1285,37.60006083,83.19997039,1,0,0,response1disk,,7,6.400011539,-5.600006521,1,0,0,rectangle,-38.3999403,-116.8000082,1,0,0,0.800011456,11.99999374,1,0,0,0,111,111,30,1,,response5disk_3,TRUE,3,3,"[142,58,31,226,0,214,84,184,95,163,61,307,78,107,146,50,289,112,108,269]",1.7631,rectangle
,,,,,,,,,,,,,FF,,,,,,,,1.2426,,,,,,,,,,,,,,,,,,,,,,60fc62bc260a350027a1432c,61036dff94779c6ddc25f943,2021-07-29_22h12.57.771,Simcolourproject_2stim_asymm_v5,2020.2.10,Win32,60,61025ae37ef11b136ea224fe,,,,,,,,,3759,43.20001209,111.1999708,1,0,0,response1disk,,7,-3.999988616,-4.800006509,1,0,0,rectangle,-3.999988616,-4.800006509,1,0,0,-3.999988616,-4.800006509,1,0,0,0,112,112,84,1,,,,,,,,
,,,,,,,,,,,,,FF,,,,,,,,1.9022,,,,,,,,,,,,,,,,,,,,,,60fc62bc260a350027a1432c,61036dff94779c6ddc25f943,2021-07-29_22h12.57.771,Simcolourproject_2stim_asymm_v5,2020.2.10,Win32,60,61025ae37ef11b136ea224fe,,,,,,,,,642,47.20001215,-82.40000767,1,0,0,response3disk,,4,12.00001162,15.9999938,1,0,0,rectangle,12.00001162,15.9999938,1,0,0,12.00001162,15.9999938,1,0,0,0,113,113,130,1,,,,,,,,
,,,,,,,,,,,,,FF,,,,,,,,0.7288,,,,,,,,,,,,,,,,,,,,,,60fc62bc260a350027a1432c,61036dff94779c6ddc25f943,2021-07-29_22h12.57.771,Simcolourproject_2stim_asymm_v5,2020.2.10,Win32,60,61025ae37ef11b136ea224fe,,,,,,,,,982,66.40001243,-93.60005666,1,0,0,response3disk,,4,2.40001148,-4.000006497,1,0,0,rectangle,2.40001148,-4.000006497,1,0,0,2.40001148,-4.000006497,1,0,0,0,114,114,33,1,,,,,,,,
,,,,,,,,,,,,,FF,,,,,,,,2.7564,,,,,,,,,,,,,,,,,,,,,,60fc62bc260a350027a1432c,61036dff94779c6ddc25f943,2021-07-29_22h12.57.771,Simcolourproject_2stim_asymm_v5,2020.2.10,Win32,60,61025ae37ef11b136ea224fe,,,,,,,,,895,36.80001199,-79.20000762,1,0,0,response3disk,,4,5.600060356,13.59999377,1,0,0,rectangle,5.600060356,13.59999377,1,0,0,5.600060356,13.59999377,1,0,0,0,115,115,63,1,,,,,,,,
,,,,,,,,,,,,,FF,,,,,,,,0.6317,,,,,,,,,,,,,,,,,,,,,,60fc62bc260a350027a1432c,61036dff94779c6ddc25f943,2021-07-29_22h12.57.771,Simcolourproject_2stim_asymm_v5,2020.2.10,Win32,60,61025ae37ef11b136ea224fe,,,,,,,,,4086,62.40001237,99.99999505,1,0,0,response1disk,,7,-5.599988639,9.599993706,1,0,0,rectangle,-5.599988639,9.599993706,1,0,0,-5.599988639,9.599993706,1,0,0,0,116,116,150,1,,,,,,,,
,,,,,,,,,,,,,FF,,,,,,,,2.3257,,,,,,,,,,,,,,,,,,,,,,60fc62bc260a350027a1432c,61036dff94779c6ddc25f943,2021-07-29_22h12.57.771,Simcolourproject_2stim_asymm_v5,2020.2.10,Win32,60,61025ae37ef11b136ea224fe,,,,,,,,,2768,42.40001208,-88.80000776,1,0,0,response3disk,,4,18.40001172,5.599993646,1,0,0,rectangle,18.40001172,5.599993646,1,0,0,18.40001172,5.599993646,1,0,0,0,117,117,96,1,,,,,,,,
,,,,,,,,,,,,,FF,,,,,,,,0.7845,,,,,,,,,,,,,,,,,,,,,,60fc62bc260a350027a1432c,61036dff94779c6ddc25f943,2021-07-29_22h12.57.771,Simcolourproject_2stim_asymm_v5,2020.2.10,Win32,60,61025ae37ef11b136ea224fe,,,,,,,,,1040,-35.99998909,-64.00000739,1,0,0,response5disk,,3,4.800011516,11.19999373,1,0,0,rectangle,4.800011516,11.19999373,1,0,0,4.800011516,11.19999373,1,0,0,0,118,118,76,1,,,,,,,,
,,,,,,,,,,,,,FF,,,,,,,,0.8815,,,,,,,,,,,,,,,,,,,,,,60fc62bc260a350027a1432c,61036dff94779c6ddc25f943,2021-07-29_22h12.57.771,Simcolourproject_2stim_asymm_v5,2020.2.10,Win32,60,61025ae37ef11b136ea224fe,,,,,,,,,459,-87.99998987,38.39999413,1,0,0,response7disk,,1,-28.79998899,-8.000006557,1,0,0,rectangle,-28.79998899,-8.000006557,1,0,0,-28.79998899,-8.000006557,1,0,0,0,119,119,57,1,,,,,,,,
,,,,,,,,,,,,,FF,,,,,,,,2.041,,,,,,,,,,,,,,,,,,,,,,60fc62bc260a350027a1432c,61036dff94779c6ddc25f943,2021-07-29_22h12.57.771,Simcolourproject_2stim_asymm_v5,2020.2.10,Win32,60,61025ae37ef11b136ea224fe,,,,,,,,,1735,-65.59998953,-50.40000719,1,0,0,response5disk,,2,4.000011504,-0.800006449,1,0,0,rectangle,4.000011504,-0.800006449,1,0,0,4.000011504,-0.800006449,1,0,0,0,120,120,88,1,,,,,,,,
,,,,,,,,,,,,,FF,,,,,,,,1.0414,,,,,,,,,,,,,,,,,,,,,,60fc62bc260a350027a1432c,61036dff94779c6ddc25f943,2021-07-29_22h12.57.771,Simcolourproject_2stim_asymm_v5,2020.2.10,Win32,60,61025ae37ef11b136ea224fe,,,,,,,,,4340,28.00001186,63.19997009,1,0,0,response1disk,,7,10.4000116,-4.000006497,1,0,0,rectangle,10.4000116,-4.000006497,1,0,0,10.4000116,-4.000006497,1,0,0,0,121,121,137,1,,,,,,,,
,,,,,,,,,,,,,FF,,,,,,,,0.833,,,,,,,,,,,,,,,,,,,,,,60fc62bc260a350027a1432c,61036dff94779c6ddc25f943,2021-07-29_22h12.57.771,Simcolourproject_2stim_asymm_v5,2020.2.10,Win32,60,61025ae37ef11b136ea224fe,,,,,,,,,1017,24.0000118,65.59999454,1,0,0,response1disk,,7,-16.79998881,-2.400006473,1,0,0,rectangle,-16.79998881,-2.400006473,1,0,0,-16.79998881,-2.400006473,1,0,0,0,122,122,146,1,,,,,,,,
,,,,,,,,,,,,,FF,,,,,,,,1.097,,,,,,,,,,,,,,,,,,,,,,60fc62bc260a350027a1432c,61036dff94779c6ddc25f943,2021-07-29_22h12.57.771,Simcolourproject_2stim_asymm_v5,2020.2.10,Win32,60,61025ae37ef11b136ea224fe,,,,,,,,,1623,63.20001239,-81.60005648,1,0,0,response3disk,,4,22.40001178,-5.600006521,1,0,0,rectangle,22.40001178,-5.600006521,1,0,0,22.40001178,-5.600006521,1,0,0,0,123,123,44,1,,,,,,,,
,,,,,,,,,,,,,FF,,,,,,,,1.5758,,,,,,,,,,,,,,,,,,,,,,60fc62bc260a350027a1432c,61036dff94779c6ddc25f943,2021-07-29_22h12.57.771,Simcolourproject_2stim_asymm_v5,2020.2.10,Win32,60,61025ae37ef11b136ea224fe,,,,,,,,,1526,-67.19998956,-105.6000568,1,0,0,response5disk,,3,-9.599988699,-16.80000669,1,0,0,rectangle,-9.599988699,-16.80000669,1,0,0,-9.599988699,-16.80000669,1,0,0,0,124,124,2,1,,,,,,,,
,,,,,,,,,,,,,FF,,,,,,,,3.402,,,,,,,,,,,,,,,,,,,,,,60fc62bc260a350027a1432c,61036dff94779c6ddc25f943,2021-07-29_22h12.57.771,Simcolourproject_2stim_asymm_v5,2020.2.10,Win32,60,61025ae37ef11b136ea224fe,,,,,,,,,2798,78.40001261,32.79999405,1,0,0,response1disk,,6,1.14441E-05,-6.4373E-06,1,0,0,rectangle,1.14441E-05,-6.4373E-06,1,0,0,1.14441E-05,-6.4373E-06,1,0,0,0,125,125,155,1,,,,,,,,
,,,,,,,,,,,,,FF,,,,,,,,1.0761,,,,,,,,,,,,,,,,,,,,,,60fc62bc260a350027a1432c,61036dff94779c6ddc25f943,2021-07-29_22h12.57.771,Simcolourproject_2stim_asymm_v5,2020.2.10,Win32,60,61025ae37ef11b136ea224fe,,,,,,,,,2026,-84.79998982,49.5999943,1,0,0,response7disk,,1,17.60006053,0.799993575,1,0,0,rectangle,17.60006053,0.799993575,1,0,0,17.60006053,0.799993575,1,0,0,0,126,126,71,1,,,,,,,,
,,,,,,,,,,,,,FF,,,,,,,,1.2149,,,,,,,,,,,,,,,,,,,,,,60fc62bc260a350027a1432c,61036dff94779c6ddc25f943,2021-07-29_22h12.57.771,Simcolourproject_2stim_asymm_v5,2020.2.10,Win32,60,61025ae37ef11b136ea224fe,,,,,,,,,89,32.80001193,103.9999951,1,0,0,response1disk,,7,-11.99998873,6.399993658,1,0,0,rectangle,-11.99998873,6.399993658,1,0,0,-11.99998873,6.399993658,1,0,0,0,127,127,108,1,,,,,,,,
,,,,,,,,,,,,,FF,,,,,,,,1.3051,,,,,,,,,,,,,,,,,,,,,,60fc62bc260a350027a1432c,61036dff94779c6ddc25f943,2021-07-29_22h12.57.771,Simcolourproject_2stim_asymm_v5,2020.2.10,Win32,60,61025ae37ef11b136ea224fe,,,,,,,,,2237,86.40001273,-39.20000702,1,0,0,response3disk,,5,21.60006059,-4.000006497,1,0,0,rectangle,21.60006059,-4.000006497,1,0,0,21.60006059,-4.000006497,1,0,0,0,128,128,37,1,,,,,,,,
,,,,,,,,,,,,,FF,,,,,,,,1.8675,,,,,,,,,,,,,,,,,,,,,,60fc62bc260a350027a1432c,61036dff94779c6ddc25f943,2021-07-29_22h12.57.771,Simcolourproject_2stim_asymm_v5,2020.2.10,Win32,60,61025ae37ef11b136ea224fe,,,,,,,,,3870,96.00001287,44.79999423,1,0,0,response1disk,,6,14.40001166,11.19999373,1,0,0,rectangle,14.40001166,11.19999373,1,0,0,14.40001166,11.19999373,1,0,0,0,129,129,105,1,,,,,,,,
,,,,,,,,,,,,,FF,,,,,,,,1.0481,,,,,,,,,,,,,,,,,,,,,,60fc62bc260a350027a1432c,61036dff94779c6ddc25f943,2021-07-29_22h12.57.771,Simcolourproject_2stim_asymm_v5,2020.2.10,Win32,60,61025ae37ef11b136ea224fe,,,,,,,,,2943,-92.79998994,30.39999402,1,0,0,response7disk,,1,-7.199988663,-4.800006509,1,0,0,rectangle,-7.199988663,-4.800006509,1,0,0,-7.199988663,-4.800006509,1,0,0,0,130,130,129,1,,,,,,,,
,,,,,,,,,,,,,FF,,,,,,,,0.9373,,,,,,,,,,,,,,,,,,,,,,60fc62bc260a350027a1432c,61036dff94779c6ddc25f943,2021-07-29_22h12.57.771,Simcolourproject_2stim_asymm_v5,2020.2.10,Win32,60,61025ae37ef11b136ea224fe,,,,,,,,,2004,40.00001204,83.19997039,1,0,0,response1disk,,7,-7.999988675,13.59999377,1,0,0,rectangle,-7.999988675,13.59999377,1,0,0,-7.999988675,13.59999377,1,0,0,0,131,131,141,1,,,,,,,,
,,,,,,,,,,,,,FF,,,,,,,,2.7077,,,,,,,,,,,,,,,,,,,,,,60fc62bc260a350027a1432c,61036dff94779c6ddc25f943,2021-07-29_22h12.57.771,Simcolourproject_2stim_asymm_v5,2020.2.10,Win32,60,61025ae37ef11b136ea224fe,,,,,,,,,1330,104.000013,-52.00000721,1,0,0,response3disk,,5,1.14441E-05,4.799993634,1,0,0,rectangle,1.14441E-05,4.799993634,1,0,0,1.14441E-05,4.799993634,1,0,0,0,132,132,42,1,,,,,,,,
,,,,,,,,,,,,,FF,,,,,,,,2.3953,,,,,,,,,,,,,,,,,,,,,,60fc62bc260a350027a1432c,61036dff94779c6ddc25f943,2021-07-29_22h12.57.771,Simcolourproject_2stim_asymm_v5,2020.2.10,Win32,60,61025ae37ef11b136ea224fe,,,,,,,,,1943,65.60001242,27.99999398,1,0,0,response1disk,,6,12.00001162,-3.200006485,1,0,0,rectangle,12.00001162,-3.200006485,1,0,0,12.00001162,-3.200006485,1,0,0,0,133,133,123,1,,,,,,,,
,,,,,,,,,,,,,FF,,,,,,,,1.0275,,,,,,,,,,,,,,,,,,,,,,60fc62bc260a350027a1432c,61036dff94779c6ddc25f943,2021-07-29_22h12.57.771,Simcolourproject_2stim_asymm_v5,2020.2.10,Win32,60,61025ae37ef11b136ea224fe,,,,,,,,,1731,79.20001262,33.59999406,1,0,0,response1disk,,6,4.000011504,-1.600006461,1,0,0,rectangle,4.000011504,-1.600006461,1,0,0,4.000011504,-1.600006461,1,0,0,0,134,134,43,1,,,,,,,,
,,,,,,,,,,,,,FF,,,,,,,,1.3469,,,,,,,,,,,,,,,,,,,,,,60fc62bc260a350027a1432c,61036dff94779c6ddc25f943,2021-07-29_22h12.57.771,Simcolourproject_2stim_asymm_v5,2020.2.10,Win32,60,61025ae37ef11b136ea224fe,,,,,,,,,3885,67.20001245,-44.00000709,1,0,0,response3disk,,5,17.60006053,-12.80000663,1,0,0,rectangle,17.60006053,-12.80000663,1,0,0,17.60006053,-12.80000663,1,0,0,0,135,135,52,1,,,,,,,,
,,,,,,,,,,,,,FF,,,,,,,,0.979,,,,,,,,,,,,,,,,,,,,,,60fc62bc260a350027a1432c,61036dff94779c6ddc25f943,2021-07-29_22h12.57.771,Simcolourproject_2stim_asymm_v5,2020.2.10,Win32,60,61025ae37ef11b136ea224fe,,,,,,,,,351,-111.9999902,34.39999408,1,0,0,response7disk,,1,-14.39993994,1.599993587,1,0,0,rectangle,-14.39993994,1.599993587,1,0,0,-14.39993994,1.599993587,1,0,0,0,136,136,54,1,,,,,,,,
,,,,,,,,,,,,,FF,,,,,,,,1.5136,,,,,,,,,,,,,,,,,,,,,,60fc62bc260a350027a1432c,61036dff94779c6ddc25f943,2021-07-29_22h12.57.771,Simcolourproject_2stim_asymm_v5,2020.2.10,Win32,60,61025ae37ef11b136ea224fe,,,,,,,,,72,-92.79998994,36.79999411,1,0,0,response7disk,,1,-11.19998872,-0.800006449,1,0,0,rectangle,-11.19998872,-0.800006449,1,0,0,-11.19998872,-0.800006449,1,0,0,0,137,137,151,1,,,,,,,,
,,,,,,,,,,,,,FF,,,,,,,,1.1178,,,,,,,,,,,,,,,,,,,,,,60fc62bc260a350027a1432c,61036dff94779c6ddc25f943,2021-07-29_22h12.57.771,Simcolourproject_2stim_asymm_v5,2020.2.10,Win32,60,61025ae37ef11b136ea224fe,,,,,,,,,1721,22.40001178,92.79999495,1,0,0,response1disk,,7,-10.39993988,-4.800006509,1,0,0,rectangle,-10.39993988,-4.800006509,1,0,0,-10.39993988,-4.800006509,1,0,0,0,138,138,85,1,,,,,,,,
,,,,,,,,,,,,,FF,,,,,,,,3.8533,,,,,,,,,,,,,,,,,,,,,,60fc62bc260a350027a1432c,61036dff94779c6ddc25f943,2021-07-29_22h12.57.771,Simcolourproject_2stim_asymm_v5,2020.2.10,Win32,60,61025ae37ef11b136ea224fe,,,,,,,,,1873,65.60001242,-116.0000082,1,0,0,response3disk,,4,-11.19998872,4.799993634,1,0,0,rectangle,-11.19998872,4.799993634,1,0,0,-11.19998872,4.799993634,1,0,0,0,139,139,107,1,,,,,,,,
,,,,,,,,,,,,,FF,,,,,,,,2.5272,,,,,,,,,,,,,,,,,,,,,,60fc62bc260a350027a1432c,61036dff94779c6ddc25f943,2021-07-29_22h12.57.771,Simcolourproject_2stim_asymm_v5,2020.2.10,Win32,60,61025ae37ef11b136ea224fe,,,,,,,,,3600,33.60006077,-68.80000746,1,0,0,response3disk,,4,12.00001162,-6.400006533,1,0,0,rectangle,12.00001162,-6.400006533,1,0,0,12.00001162,-6.400006533,1,0,0,0,140,140,135,1,,,,,,,,
,,,,,,,,,,,,,FF,,,,,,,,1.8952,,,,,,,,,,,,,,,,,,,,,,60fc62bc260a350027a1432c,61036dff94779c6ddc25f943,2021-07-29_22h12.57.771,Simcolourproject_2stim_asymm_v5,2020.2.10,Win32,60,61025ae37ef11b136ea224fe,,,,,,,,,3168,88.80001277,-39.20000702,1,0,0,response3disk,,5,-4.799988627,6.399993658,1,0,0,rectangle,107.200013,-59.20000732,1,0,0,4.000011504,3.19999361,1,0,0,0,141,141,95,1,,response3disk_3,TRUE,5,5,"[142,58,31,226,0,214,84,184,95,163,61,307,78,107,146,50,289,112,108,269]",4.0203,rectangle
,,,,,,,,,,,,,FF,,,,,,,,1.8537,,,,,,,,,,,,,,,,,,,,,,60fc62bc260a350027a1432c,61036dff94779c6ddc25f943,2021-07-29_22h12.57.771,Simcolourproject_2stim_asymm_v5,2020.2.10,Win32,60,61025ae37ef11b136ea224fe,,,,,,,,,619,-95.19998997,-28.00000685,1,0,0,response5disk,,2,13.60006047,12.79999375,1,0,0,rectangle,13.60006047,12.79999375,1,0,0,13.60006047,12.79999375,1,0,0,0,142,142,143,1,,,,,,,,
,,,,,,,,,,,,,FF,,,,,,,,1.5828,,,,,,,,,,,,,,,,,,,,,,60fc62bc260a350027a1432c,61036dff94779c6ddc25f943,2021-07-29_22h12.57.771,Simcolourproject_2stim_asymm_v5,2020.2.10,Win32,60,61025ae37ef11b136ea224fe,,,,,,,,,3724,81.60001266,35.19996967,1,0,0,response1disk,,6,0.800011456,-4.000006497,1,0,0,rectangle,0.800011456,-4.000006497,1,0,0,0.800011456,-4.000006497,1,0,0,0,143,143,12,1,,,,,,,,
,,,,,,,,,,,,,FF,,,,,,,,1.1247,,,,,,,,,,,,,,,,,,,,,,60fc62bc260a350027a1432c,61036dff94779c6ddc25f943,2021-07-29_22h12.57.771,Simcolourproject_2stim_asymm_v5,2020.2.10,Win32,60,61025ae37ef11b136ea224fe,,,,,,,,,2572,49.60006101,69.5999946,1,0,0,response1disk,,7,-3.999988616,15.9999938,1,0,0,rectangle,-3.999988616,15.9999938,1,0,0,-3.999988616,15.9999938,1,0,0,0,144,144,45,1,,,,,,,,
,,,,,,,,,,,,,FF,,,,,,,,1.9444,,,,,,,,,,,,,,,,,,,,,,60fc62bc260a350027a1432c,61036dff94779c6ddc25f943,2021-07-29_22h12.57.771,Simcolourproject_2stim_asymm_v5,2020.2.10,Win32,60,61025ae37ef11b136ea224fe,,,,,,,,,4050,-31.99998903,-87.20000774,1,0,0,response5disk,,3,10.4000116,-8.800006568,1,0,0,rectangle,-43.1999892,136.7999956,1,0,0,-7.199988663,7.999993682,1,0,0,0,145,145,60,1,,response7disk_3,TRUE,0,0,"[142,58,31,226,0,214,84,184,95,163,61,307,78,107,146,50,289,112,108,269]",1.4783,rectangle
,,,,,,,,,,,,,FF,,,,,,,,1.4024,,,,,,,,,,,,,,,,,,,,,,60fc62bc260a350027a1432c,61036dff94779c6ddc25f943,2021-07-29_22h12.57.771,Simcolourproject_2stim_asymm_v5,2020.2.10,Win32,60,61025ae37ef11b136ea224fe,,,,,,,,,644,-67.99998957,-34.40000695,1,0,0,response5disk,,2,-7.199988663,11.19999373,1,0,0,rectangle,-7.199988663,11.19999373,1,0,0,-7.199988663,11.19999373,1,0,0,0,146,146,128,1,,,,,,,,
,,,,,,,,,,,,,FF,,,,,,,,1.6733,,,,,,,,,,,,,,,,,,,,,,60fc62bc260a350027a1432c,61036dff94779c6ddc25f943,2021-07-29_22h12.57.771,Simcolourproject_2stim_asymm_v5,2020.2.10,Win32,60,61025ae37ef11b136ea224fe,,,,,,,,,2929,78.40001261,-44.00000709,1,0,0,response3disk,,5,1.600060296,-4.800006509,1,0,0,rectangle,1.600060296,-4.800006509,1,0,0,1.600060296,-4.800006509,1,0,0,0,147,147,89,1,,,,,,,,
,,,,,,,,,,,,,FF,,,,,,,,1.3538,,,,,,,,,,,,,,,,,,,,,,60fc62bc260a350027a1432c,61036dff94779c6ddc25f943,2021-07-29_22h12.57.771,Simcolourproject_2stim_asymm_v5,2020.2.10,Win32,60,61025ae37ef11b136ea224fe,,,,,,,,,2282,50.4000122,114.3999953,1,0,0,response1disk,,7,-1.59998858,-0.800006449,1,0,0,rectangle,-1.59998858,-0.800006449,1,0,0,-1.59998858,-0.800006449,1,0,0,0,148,148,38,1,,,,,,,,
,,,,,,,,,,,,,FF,,,,,,,,1.8605,,,,,,,,,,,,,,,,,,,,,,60fc62bc260a350027a1432c,61036dff94779c6ddc25f943,2021-07-29_22h12.57.771,Simcolourproject_2stim_asymm_v5,2020.2.10,Win32,60,61025ae37ef11b136ea224fe,,,,,,,,,1550,93.60001284,63.19997009,1,0,0,response1disk,,6,18.40001172,6.399993658,1,0,0,rectangle,18.40001172,6.399993658,1,0,0,18.40001172,6.399993658,1,0,0,0,149,149,134,1,,,,,,,,
,,,,,,,,,,,,,FF,,,,,,,,6.575,,,,,,,,,,,,,,,,,,,,,,60fc62bc260a350027a1432c,61036dff94779c6ddc25f943,2021-07-29_22h12.57.771,Simcolourproject_2stim_asymm_v5,2020.2.10,Win32,60,61025ae37ef11b136ea224fe,,,,,,,,,1025,100.0000129,51.99999434,1,0,0,response1disk,,6,13.60006047,8.799993694,1,0,0,rectangle,13.60006047,8.799993694,1,0,0,13.60006047,8.799993694,1,0,0,0,150,150,27,1,,,,,,,,
,,,,,,,,,,,,,FF,,,,,,,,0.9165,,,,,,,,,,,,,,,,,,,,,,60fc62bc260a350027a1432c,61036dff94779c6ddc25f943,2021-07-29_22h12.57.771,Simcolourproject_2stim_asymm_v5,2020.2.10,Win32,60,61025ae37ef11b136ea224fe,,,,,,,,,2133,115.2000132,39.99999416,1,0,0,response1disk,,6,-14.39993994,-6.4373E-06,1,0,0,rectangle,-14.39993994,-6.4373E-06,1,0,0,-14.39993994,-6.4373E-06,1,0,0,0,151,151,8,1,,,,,,,,
,,,,,,,,,,,,,FF,,,,,,,,1.3052,,,,,,,,,,,,,,,,,,,,,,60fc62bc260a350027a1432c,61036dff94779c6ddc25f943,2021-07-29_22h12.57.771,Simcolourproject_2stim_asymm_v5,2020.2.10,Win32,60,61025ae37ef11b136ea224fe,,,,,,,,,1032,50.4000122,-78.40000761,1,0,0,response3disk,,4,-2.399939764,-6.4373E-06,1,0,0,rectangle,-2.399939764,-6.4373E-06,1,0,0,-2.399939764,-6.4373E-06,1,0,0,0,152,152,4,1,,,,,,,,
,,,,,,,,,,,,,FF,,,,,,,,1.4788,,,,,,,,,,,,,,,,,,,,,,60fc62bc260a350027a1432c,61036dff94779c6ddc25f943,2021-07-29_22h12.57.771,Simcolourproject_2stim_asymm_v5,2020.2.10,Win32,60,61025ae37ef11b136ea224fe,,,,,,,,,2430,-39.99998915,-95.20000786,1,0,0,response5disk,,3,-8.799988687,-6.400006533,1,0,0,rectangle,-8.799988687,-6.400006533,1,0,0,-8.799988687,-6.400006533,1,0,0,0,153,153,122,1,,,,,,,,
,,,,,,,,,,,,,FF,,,,,,,,1.5691,,,,,,,,,,,,,,,,,,,,,,60fc62bc260a350027a1432c,61036dff94779c6ddc25f943,2021-07-29_22h12.57.771,Simcolourproject_2stim_asymm_v5,2020.2.10,Win32,60,61025ae37ef11b136ea224fe,,,,,,,,,2498,105.600013,32.79999405,1,0,0,response1disk,,6,-1.59998858,2.399993598,1,0,0,rectangle,-1.59998858,2.399993598,1,0,0,-1.59998858,2.399993598,1,0,0,0,154,154,72,1,,,,,,,,
,,,,,,,,,,,,,FF,,,,,,,,4.2456,,,,,,,,,,,,,,,,,,,,,,60fc62bc260a350027a1432c,61036dff94779c6ddc25f943,2021-07-29_22h12.57.771,Simcolourproject_2stim_asymm_v5,2020.2.10,Win32,60,61025ae37ef11b136ea224fe,,,,,,,,,3211,101.600013,-49.60000718,1,0,0,response3disk,,5,16.00001168,8.799993694,1,0,0,rectangle,16.00001168,8.799993694,1,0,0,16.00001168,8.799993694,1,0,0,0,155,155,32,1,,,,,,,,
,,,,,,,,,,,,,FF,,,,,,,,1.5179,,,,,,,,,,,,,,,,,,,,,,60fc62bc260a350027a1432c,61036dff94779c6ddc25f943,2021-07-29_22h12.57.771,Simcolourproject_2stim_asymm_v5,2020.2.10,Win32,60,61025ae37ef11b136ea224fe,,,,,,,,,1434,72.80001253,31.19996961,1,0,0,response1disk,,6,-4.799988627,-4.000006497,1,0,0,rectangle,-4.799988627,-4.000006497,1,0,0,-4.799988627,-4.000006497,1,0,0,0,156,156,22,1,,,,,,,,
,,,,,,,,,,,,,FF,,,,,,,,2.7356,,,,,,,,,,,,,,,,,,,,,,60fc62bc260a350027a1432c,61036dff94779c6ddc25f943,2021-07-29_22h12.57.771,Simcolourproject_2stim_asymm_v5,2020.2.10,Win32,60,61025ae37ef11b136ea224fe,,,,,,,,,3065,103.200013,28.79999399,1,0,0,response1disk,,6,-30.39994018,-2.400006473,1,0,0,rectangle,-30.39994018,-2.400006473,1,0,0,-30.39994018,-2.400006473,1,0,0,0,157,157,67,1,,,,,,,,
,,,,,,,,,,,,,FF,,,,,,,,1.3537,,,,,,,,,,,,,,,,,,,,,,60fc62bc260a350027a1432c,61036dff94779c6ddc25f943,2021-07-29_22h12.57.771,Simcolourproject_2stim_asymm_v5,2020.2.10,Win32,60,61025ae37ef11b136ea224fe,,,,,,,,,4312,44.80001211,102.3999951,1,0,0,response1disk,,7,4.800011516,0.799993575,1,0,0,rectangle,4.800011516,0.799993575,1,0,0,4.800011516,0.799993575,1,0,0,0,158,158,0,1,,,,,,,,
,,,,,,,,,,,,,FF,,,,,,,,1.3121,,,,,,,,,,,,,,,,,,,,,,60fc62bc260a350027a1432c,61036dff94779c6ddc25f943,2021-07-29_22h12.57.771,Simcolourproject_2stim_asymm_v5,2020.2.10,Win32,60,61025ae37ef11b136ea224fe,,,,,,,,,914,80.00001264,46.39999425,1,0,0,response1disk,,6,-6.399939823,9.599993706,1,0,0,rectangle,-6.399939823,9.599993706,1,0,0,-6.399939823,9.599993706,1,0,0,0,159,159,131,1,,,,,,,,
,,,,,,,,,,,,,FF,,,,,,,,0.9096,,,,,,,,,,,,,,,,,,,,,,60fc62bc260a350027a1432c,61036dff94779c6ddc25f943,2021-07-29_22h12.57.771,Simcolourproject_2stim_asymm_v5,2020.2.10,Win32,60,61025ae37ef11b136ea224fe,,,,,,,,,3917,-105.5999901,-40.00000703,1,0,0,response5disk,,2,-9.599988699,3.999993622,1,0,0,rectangle,-9.599988699,3.999993622,1,0,0,-9.599988699,3.999993622,1,0,0,1,0,160,138,1,,,,,,,,
,,,,,,,,,,,,,FF,,,,,,,,1.9926,,,,,,,,,,,,,,,,,,,,,,60fc62bc260a350027a1432c,61036dff94779c6ddc25f943,2021-07-29_22h12.57.771,Simcolourproject_2stim_asymm_v5,2020.2.10,Win32,60,61025ae37ef11b136ea224fe,,,,,,,,,563,36.80001199,-63.20000738,1,0,0,response3disk,,4,0.800011456,-9.60000658,1,0,0,rectangle,0.800011456,-9.60000658,1,0,0,0.800011456,-9.60000658,1,0,0,1,1,161,91,1,,,,,,,,
,,,,,,,,,,,,,FF,,,,,,,,0.9164,,,,,,,,,,,,,,,,,,,,,,60fc62bc260a350027a1432c,61036dff94779c6ddc25f943,2021-07-29_22h12.57.771,Simcolourproject_2stim_asymm_v5,2020.2.10,Win32,60,61025ae37ef11b136ea224fe,,,,,,,,,927,47.20001215,31.99999404,1,0,0,response1disk,,6,-2.399939764,1.599993587,1,0,0,rectangle,-45.59998924,101.5999951,1,0,0,14.40001166,-8.000006557,1,0,0,1,2,162,74,1,,response7disk_3,TRUE,0,0,"[142,58,31,226,0,214,84,184,95,163,61,307,78,107,146,50,289,112,108,269]",1.6043,rectangle
,,,,,,,,,,,,,FF,,,,,,,,3.2077,,,,,,,,,,,,,,,,,,,,,,60fc62bc260a350027a1432c,61036dff94779c6ddc25f943,2021-07-29_22h12.57.771,Simcolourproject_2stim_asymm_v5,2020.2.10,Win32,60,61025ae37ef11b136ea224fe,,,,,,,,,1180,90.40001279,-38.40000701,1,0,0,response3disk,,5,8.000011563,-2.400006473,1,0,0,rectangle,8.000011563,-2.400006473,1,0,0,8.000011563,-2.400006473,1,0,0,1,3,163,59,1,,,,,,,,
,,,,,,,,,,,,,FF,,,,,,,,1.5897,,,,,,,,,,,,,,,,,,,,,,60fc62bc260a350027a1432c,61036dff94779c6ddc25f943,2021-07-29_22h12.57.771,Simcolourproject_2stim_asymm_v5,2020.2.10,Win32,60,61025ae37ef11b136ea224fe,,,,,,,,,1771,69.60001248,39.19996973,1,0,0,response1disk,,6,-7.999988675,5.599993646,1,0,0,rectangle,-7.999988675,5.599993646,1,0,0,-7.999988675,5.599993646,1,0,0,1,4,164,85,1,,,,,,,,
,,,,,,,,,,,,,FF,,,,,,,,1.1317,,,,,,,,,,,,,,,,,,,,,,60fc62bc260a350027a1432c,61036dff94779c6ddc25f943,2021-07-29_22h12.57.771,Simcolourproject_2stim_asymm_v5,2020.2.10,Win32,60,61025ae37ef11b136ea224fe,,,,,,,,,2314,68.80001247,-26.40000683,1,0,0,response3disk,,5,0.800011456,-6.4373E-06,1,0,0,rectangle,0.800011456,-6.4373E-06,1,0,0,0.800011456,-6.4373E-06,1,0,0,1,5,165,127,1,,,,,,,,
,,,,,,,,,,,,,FF,,,,,,,,1.4092,,,,,,,,,,,,,,,,,,,,,,60fc62bc260a350027a1432c,61036dff94779c6ddc25f943,2021-07-29_22h12.57.771,Simcolourproject_2stim_asymm_v5,2020.2.10,Win32,60,61025ae37ef11b136ea224fe,,,,,,,,,1451,-67.19998956,-41.60000706,1,0,0,response5disk,,2,-7.999988675,-7.200006545,1,0,0,rectangle,-7.999988675,-7.200006545,1,0,0,-7.999988675,-7.200006545,1,0,0,1,6,166,30,1,,,,,,,,
,,,,,,,,,,,,,FF,,,,,,,,1.6453,,,,,,,,,,,,,,,,,,,,,,60fc62bc260a350027a1432c,61036dff94779c6ddc25f943,2021-07-29_22h12.57.771,Simcolourproject_2stim_asymm_v5,2020.2.10,Win32,60,61025ae37ef11b136ea224fe,,,,,,,,,2251,92.00001281,40.79999417,1,0,0,response1disk,,6,3.200011492,-0.800006449,1,0,0,rectangle,3.200011492,-0.800006449,1,0,0,3.200011492,-0.800006449,1,0,0,1,7,167,68,1,,,,,,,,
,,,,,,,,,,,,,FF,,,,,,,,0.7567,,,,,,,,,,,,,,,,,,,,,,60fc62bc260a350027a1432c,61036dff94779c6ddc25f943,2021-07-29_22h12.57.771,Simcolourproject_2stim_asymm_v5,2020.2.10,Win32,60,61025ae37ef11b136ea224fe,,,,,,,,,664,75.20001256,35.19996967,1,0,0,response1disk,,6,-31.99998903,7.999993682,1,0,0,rectangle,-31.99998903,7.999993682,1,0,0,-31.99998903,7.999993682,1,0,0,1,8,168,67,1,,,,,,,,
,,,,,,,,,,,,,FF,,,,,,,,0.6664,,,,,,,,,,,,,,,,,,,,,,60fc62bc260a350027a1432c,61036dff94779c6ddc25f943,2021-07-29_22h12.57.771,Simcolourproject_2stim_asymm_v5,2020.2.10,Win32,60,61025ae37ef11b136ea224fe,,,,,,,,,3573,81.60001266,42.39999419,1,0,0,response1disk,,6,-0.799988568,-1.600006461,1,0,0,rectangle,-0.799988568,-1.600006461,1,0,0,-0.799988568,-1.600006461,1,0,0,1,9,169,126,1,,,,,,,,
,,,,,,,,,,,,,FF,,,,,,,,1.93,,,,,,,,,,,,,,,,,,,,,,60fc62bc260a350027a1432c,61036dff94779c6ddc25f943,2021-07-29_22h12.57.771,Simcolourproject_2stim_asymm_v5,2020.2.10,Win32,60,61025ae37ef11b136ea224fe,,,,,,,,,2561,76.00001258,-35.20000696,1,0,0,response3disk,,5,30.4000119,-7.200006545,1,0,0,rectangle,30.4000119,-7.200006545,1,0,0,30.4000119,-7.200006545,1,0,0,1,10,170,52,1,,,,,,,,
,,,,,,,,,,,,,FF,,,,,,,,0.6941,,,,,,,,,,,,,,,,,,,,,,60fc62bc260a350027a1432c,61036dff94779c6ddc25f943,2021-07-29_22h12.57.771,Simcolourproject_2stim_asymm_v5,2020.2.10,Win32,60,61025ae37ef11b136ea224fe,,,,,,,,,1566,85.60001272,43.99999422,1,0,0,response1disk,,6,-20.79998887,1.599993587,1,0,0,rectangle,-20.79998887,1.599993587,1,0,0,-20.79998887,1.599993587,1,0,0,1,11,171,132,1,,,,,,,,
,,,,,,,,,,,,,FF,,,,,,,,0.8539,,,,,,,,,,,,,,,,,,,,,,60fc62bc260a350027a1432c,61036dff94779c6ddc25f943,2021-07-29_22h12.57.771,Simcolourproject_2stim_asymm_v5,2020.2.10,Win32,60,61025ae37ef11b136ea224fe,,,,,,,,,1706,32.00001192,63.99999452,1,0,0,response1disk,,7,2.40001148,11.19999373,1,0,0,rectangle,2.40001148,11.19999373,1,0,0,2.40001148,11.19999373,1,0,0,1,12,172,129,1,,,,,,,,
,,,,,,,,,,,,,FF,,,,,,,,0.8817,,,,,,,,,,,,,,,,,,,,,,60fc62bc260a350027a1432c,61036dff94779c6ddc25f943,2021-07-29_22h12.57.771,Simcolourproject_2stim_asymm_v5,2020.2.10,Win32,60,61025ae37ef11b136ea224fe,,,,,,,,,2369,-107.9999902,-40.00000703,1,0,0,response5disk,,2,-11.19998872,3.999993622,1,0,0,rectangle,-11.19998872,3.999993622,1,0,0,-11.19998872,3.999993622,1,0,0,1,13,173,25,1,,,,,,,,
,,,,,,,,,,,,,FF,,,,,,,,1.0969,,,,,,,,,,,,,,,,,,,,,,60fc62bc260a350027a1432c,61036dff94779c6ddc25f943,2021-07-29_22h12.57.771,Simcolourproject_2stim_asymm_v5,2020.2.10,Win32,60,61025ae37ef11b136ea224fe,,,,,,,,,29,81.60001266,51.19996991,1,0,0,response1disk,,6,11.20001161,7.999993682,1,0,0,rectangle,11.20001161,7.999993682,1,0,0,11.20001161,7.999993682,1,0,0,1,14,174,149,1,,,,,,,,
,,,,,,,,,,,,,FF,,,,,,,,1.6246,,,,,,,,,,,,,,,,,,,,,,60fc62bc260a350027a1432c,61036dff94779c6ddc25f943,2021-07-29_22h12.57.771,Simcolourproject_2stim_asymm_v5,2020.2.10,Win32,60,61025ae37ef11b136ea224fe,,,,,,,,,813,25.60006065,-76.00000757,1,0,0,response3disk,,4,-15.99998879,0.799993575,1,0,0,rectangle,-15.99998879,0.799993575,1,0,0,-15.99998879,0.799993575,1,0,0,1,15,175,156,1,,,,,,,,
,,,,,,,,,,,,,FF,,,,,,,,1.3607,,,,,,,,,,,,,,,,,,,,,,60fc62bc260a350027a1432c,61036dff94779c6ddc25f943,2021-07-29_22h12.57.771,Simcolourproject_2stim_asymm_v5,2020.2.10,Win32,60,61025ae37ef11b136ea224fe,,,,,,,,,44,125.6000133,47.19996985,1,0,0,response1disk,,6,-19.19998884,-3.200006485,1,0,0,rectangle,-19.19998884,-3.200006485,1,0,0,-19.19998884,-3.200006485,1,0,0,1,16,176,135,1,,,,,,,,
,,,,,,,,,,,,,FF,,,,,,,,0.5946,,,,,,,,,,,,,,,,,,,,,,60fc62bc260a350027a1432c,61036dff94779c6ddc25f943,2021-07-29_22h12.57.771,Simcolourproject_2stim_asymm_v5,2020.2.10,Win32,60,61025ae37ef11b136ea224fe,,,,,,,,,1777,80.00001264,39.19996973,1,0,0,response1disk,,6,-3.199988604,1.599993587,1,0,0,rectangle,-3.199988604,1.599993587,1,0,0,-3.199988604,1.599993587,1,0,0,1,17,177,141,1,,,,,,,,
,,,,,,,,,,,,,FF,,,,,,,,1.4231,,,,,,,,,,,,,,,,,,,,,,60fc62bc260a350027a1432c,61036dff94779c6ddc25f943,2021-07-29_22h12.57.771,Simcolourproject_2stim_asymm_v5,2020.2.10,Win32,60,61025ae37ef11b136ea224fe,,,,,,,,,992,84.0000127,-36.00000697,1,0,0,response3disk,,5,0.800011456,0.799993575,1,0,0,rectangle,0.800011456,0.799993575,1,0,0,0.800011456,0.799993575,1,0,0,1,18,178,90,1,,,,,,,,
,,,,,,,,,,,,,FF,,,,,,,,0.9233,,,,,,,,,,,,,,,,,,,,,,60fc62bc260a350027a1432c,61036dff94779c6ddc25f943,2021-07-29_22h12.57.771,Simcolourproject_2stim_asymm_v5,2020.2.10,Win32,60,61025ae37ef11b136ea224fe,,,,,,,,,3581,105.600013,47.19996985,1,0,0,response1disk,,6,-15.99998879,2.399993598,1,0,0,rectangle,-15.99998879,2.399993598,1,0,0,-15.99998879,2.399993598,1,0,0,1,19,179,37,1,,,,,,,,
,,,,,,,,,,,,,FF,,,,,,,,1.2426,,,,,,,,,,,,,,,,,,,,,,60fc62bc260a350027a1432c,61036dff94779c6ddc25f943,2021-07-29_22h12.57.771,Simcolourproject_2stim_asymm_v5,2020.2.10,Win32,60,61025ae37ef11b136ea224fe,,,,,,,,,157,67.20001245,-22.40000677,1,0,0,response3disk,,5,1.600060296,-6.4373E-06,1,0,0,rectangle,1.600060296,-6.4373E-06,1,0,0,1.600060296,-6.4373E-06,1,0,0,1,20,180,102,1,,,,,,,,
,,,,,,,,,,,,,FF,,,,,,,,1.7496,,,,,,,,,,,,,,,,,,,,,,60fc62bc260a350027a1432c,61036dff94779c6ddc25f943,2021-07-29_22h12.57.771,Simcolourproject_2stim_asymm_v5,2020.2.10,Win32,60,61025ae37ef11b136ea224fe,,,,,,,,,3525,67.20001245,43.99999422,1,0,0,response1disk,,6,-10.39993988,11.99999374,1,0,0,rectangle,-10.39993988,11.99999374,1,0,0,-10.39993988,11.99999374,1,0,0,1,21,181,84,1,,,,,,,,
,,,,,,,,,,,,,FF,,,,,,,,1.2497,,,,,,,,,,,,,,,,,,,,,,60fc62bc260a350027a1432c,61036dff94779c6ddc25f943,2021-07-29_22h12.57.771,Simcolourproject_2stim_asymm_v5,2020.2.10,Win32,60,61025ae37ef11b136ea224fe,,,,,,,,,1581,106.400013,-36.00000697,1,0,0,response3disk,,5,24.80001181,-3.200006485,1,0,0,rectangle,24.80001181,-3.200006485,1,0,0,24.80001181,-3.200006485,1,0,0,1,22,182,80,1,,,,,,,,
,,,,,,,,,,,,,FF,,,,,,,,0.6315,,,,,,,,,,,,,,,,,,,,,,60fc62bc260a350027a1432c,61036dff94779c6ddc25f943,2021-07-29_22h12.57.771,Simcolourproject_2stim_asymm_v5,2020.2.10,Win32,60,61025ae37ef11b136ea224fe,,,,,,,,,2752,74.40001255,-36.00000697,1,0,0,response3disk,,5,1.14441E-05,-1.600006461,1,0,0,rectangle,32.00001192,113.5999953,1,0,0,4.800011516,-10.40000659,1,0,0,1,23,183,99,1,,response1disk_3,TRUE,7,7,"[142,58,31,226,0,214,84,184,95,163,61,307,78,107,146,50,289,112,108,269]",1.7773,rectangle
,,,,,,,,,,,,,FF,,,,,,,,1.3497,,,,,,,,,,,,,,,,,,,,,,60fc62bc260a350027a1432c,61036dff94779c6ddc25f943,2021-07-29_22h12.57.771,Simcolourproject_2stim_asymm_v5,2020.2.10,Win32,60,61025ae37ef11b136ea224fe,,,,,,,,,176,68.00001246,86.39999485,1,0,0,response1disk,,7,2.40001148,-16.00000668,1,0,0,rectangle,2.40001148,-16.00000668,1,0,0,2.40001148,-16.00000668,1,0,0,1,24,184,41,1,,,,,,,,
,,,,,,,,,,,,,FF,,,,,,,,0.8122,,,,,,,,,,,,,,,,,,,,,,60fc62bc260a350027a1432c,61036dff94779c6ddc25f943,2021-07-29_22h12.57.771,Simcolourproject_2stim_asymm_v5,2020.2.10,Win32,60,61025ae37ef11b136ea224fe,,,,,,,,,1271,85.60001272,32.79999405,1,0,0,response1disk,,6,10.4000116,-10.40000659,1,0,0,rectangle,10.4000116,-10.40000659,1,0,0,10.4000116,-10.40000659,1,0,0,1,25,185,12,1,,,,,,,,
,,,,,,,,,,,,,FF,,,,,,,,1.4027,,,,,,,,,,,,,,,,,,,,,,60fc62bc260a350027a1432c,61036dff94779c6ddc25f943,2021-07-29_22h12.57.771,Simcolourproject_2stim_asymm_v5,2020.2.10,Win32,60,61025ae37ef11b136ea224fe,,,,,,,,,1197,93.60001284,-43.20000708,1,0,0,response3disk,,5,17.60006053,-3.200006485,1,0,0,rectangle,17.60006053,-3.200006485,1,0,0,17.60006053,-3.200006485,1,0,0,1,26,186,6,1,,,,,,,,
,,,,,,,,,,,,,FF,,,,,,,,1.1107,,,,,,,,,,,,,,,,,,,,,,60fc62bc260a350027a1432c,61036dff94779c6ddc25f943,2021-07-29_22h12.57.771,Simcolourproject_2stim_asymm_v5,2020.2.10,Win32,60,61025ae37ef11b136ea224fe,,,,,,,,,3539,92.80001283,33.59999406,1,0,0,response1disk,,6,19.20001173,-1.600006461,1,0,0,rectangle,19.20001173,-1.600006461,1,0,0,19.20001173,-1.600006461,1,0,0,1,27,187,121,1,,,,,,,,
,,,,,,,,,,,,,FF,,,,,,,,1.9786,,,,,,,,,,,,,,,,,,,,,,60fc62bc260a350027a1432c,61036dff94779c6ddc25f943,2021-07-29_22h12.57.771,Simcolourproject_2stim_asymm_v5,2020.2.10,Win32,60,61025ae37ef11b136ea224fe,,,,,,,,,2960,57.6000123,-89.6000566,1,0,0,response3disk,,4,0.800011456,7.19999367,1,0,0,rectangle,0.800011456,7.19999367,1,0,0,0.800011456,7.19999367,1,0,0,1,28,188,73,1,,,,,,,,
,,,,,,,,,,,,,FF,,,,,,,,0.8816,,,,,,,,,,,,,,,,,,,,,,60fc62bc260a350027a1432c,61036dff94779c6ddc25f943,2021-07-29_22h12.57.771,Simcolourproject_2stim_asymm_v5,2020.2.10,Win32,60,61025ae37ef11b136ea224fe,,,,,,,,,1445,-26.39994012,95.99999499,1,0,0,response7disk,,0,4.000011504,5.599993646,1,0,0,rectangle,4.000011504,5.599993646,1,0,0,4.000011504,5.599993646,1,0,0,1,29,189,48,1,,,,,,,,
,,,,,,,,,,,,,FF,,,,,,,,2.2354,,,,,,,,,,,,,,,,,,,,,,60fc62bc260a350027a1432c,61036dff94779c6ddc25f943,2021-07-29_22h12.57.771,Simcolourproject_2stim_asymm_v5,2020.2.10,Win32,60,61025ae37ef11b136ea224fe,,,,,,,,,1282,97.6000129,49.5999943,1,0,0,response1disk,,6,17.60006053,7.999993682,1,0,0,rectangle,17.60006053,7.999993682,1,0,0,17.60006053,7.999993682,1,0,0,1,30,190,111,1,,,,,,,,
,,,,,,,,,,,,,FF,,,,,,,,0.9024,,,,,,,,,,,,,,,,,,,,,,60fc62bc260a350027a1432c,61036dff94779c6ddc25f943,2021-07-29_22h12.57.771,Simcolourproject_2stim_asymm_v5,2020.2.10,Win32,60,61025ae37ef11b136ea224fe,,,,,,,,,2906,67.20001245,30.39999402,1,0,0,response1disk,,6,9.600060415,-6.400006533,1,0,0,rectangle,9.600060415,-6.400006533,1,0,0,9.600060415,-6.400006533,1,0,0,1,31,191,144,1,,,,,,,,
,,,,,,,,,,,,,FF,,,,,,,,0.9095,,,,,,,,,,,,,,,,,,,,,,60fc62bc260a350027a1432c,61036dff94779c6ddc25f943,2021-07-29_22h12.57.771,Simcolourproject_2stim_asymm_v5,2020.2.10,Win32,60,61025ae37ef11b136ea224fe,,,,,,,,,1414,66.40001243,-44.00000709,1,0,0,response3disk,,5,0.800011456,3.19999361,1,0,0,rectangle,0.800011456,3.19999361,1,0,0,0.800011456,3.19999361,1,0,0,1,32,192,100,1,,,,,,,,
,,,,,,,,,,,,,FF,,,,,,,,1.5621,,,,,,,,,,,,,,,,,,,,,,60fc62bc260a350027a1432c,61036dff94779c6ddc25f943,2021-07-29_22h12.57.771,Simcolourproject_2stim_asymm_v5,2020.2.10,Win32,60,61025ae37ef11b136ea224fe,,,,,,,,,3006,-41.59998918,-92.80000782,1,0,0,response5disk,,3,17.60006053,8.799993694,1,0,0,rectangle,17.60006053,8.799993694,1,0,0,17.60006053,8.799993694,1,0,0,1,33,193,28,1,,,,,,,,
,,,,,,,,,,,,,FF,,,,,,,,0.7913,,,,,,,,,,,,,,,,,,,,,,60fc62bc260a350027a1432c,61036dff94779c6ddc25f943,2021-07-29_22h12.57.771,Simcolourproject_2stim_asymm_v5,2020.2.10,Win32,60,61025ae37ef11b136ea224fe,,,,,,,,,4216,32.00001192,67.99999458,1,0,0,response1disk,,7,-16.79998881,-3.200006485,1,0,0,rectangle,-16.79998881,-3.200006485,1,0,0,-16.79998881,-3.200006485,1,0,0,1,34,194,2,1,,,,,,,,
,,,,,,,,,,,,,FF,,,,,,,,0.8053,,,,,,,,,,,,,,,,,,,,,,60fc62bc260a350027a1432c,61036dff94779c6ddc25f943,2021-07-29_22h12.57.771,Simcolourproject_2stim_asymm_v5,2020.2.10,Win32,60,61025ae37ef11b136ea224fe,,,,,,,,,2353,40.80001205,56.79999441,1,0,0,response1disk,,7,-16.79998881,-12.00000662,1,0,0,rectangle,-16.79998881,-12.00000662,1,0,0,-16.79998881,-12.00000662,1,0,0,1,35,195,46,1,,,,,,,,
,,,,,,,,,,,,,FF,,,,,,,,0.8538,,,,,,,,,,,,,,,,,,,,,,60fc62bc260a350027a1432c,61036dff94779c6ddc25f943,2021-07-29_22h12.57.771,Simcolourproject_2stim_asymm_v5,2020.2.10,Win32,60,61025ae37ef11b136ea224fe,,,,,,,,,854,52.80001223,95.99999499,1,0,0,response1disk,,7,0.800011456,-7.200006545,1,0,0,rectangle,0.800011456,-7.200006545,1,0,0,0.800011456,-7.200006545,1,0,0,1,36,196,140,1,,,,,,,,
,,,,,,,,,,,,,FF,,,,,,,,1.028,,,,,,,,,,,,,,,,,,,,,,60fc62bc260a350027a1432c,61036dff94779c6ddc25f943,2021-07-29_22h12.57.771,Simcolourproject_2stim_asymm_v5,2020.2.10,Win32,60,61025ae37ef11b136ea224fe,,,,,,,,,2901,-90.39994107,-43.20000708,1,0,0,response5disk,,2,-1.59998858,8.799993694,1,0,0,rectangle,-1.59998858,8.799993694,1,0,0,-1.59998858,8.799993694,1,0,0,1,37,197,97,1,,,,,,,,
,,,,,,,,,,,,,FF,,,,,,,,1.2775,,,,,,,,,,,,,,,,,,,,,,60fc62bc260a350027a1432c,61036dff94779c6ddc25f943,2021-07-29_22h12.57.771,Simcolourproject_2stim_asymm_v5,2020.2.10,Win32,60,61025ae37ef11b136ea224fe,,,,,,,,,2118,97.6000129,-19.20000672,1,0,0,response3disk,,5,1.600060296,7.19999367,1,0,0,rectangle,1.600060296,7.19999367,1,0,0,1.600060296,7.19999367,1,0,0,1,38,198,1,1,,,,,,,,
,,,,,,,,,,,,,FF,,,,,,,,0.8609,,,,,,,,,,,,,,,,,,,,,,60fc62bc260a350027a1432c,61036dff94779c6ddc25f943,2021-07-29_22h12.57.771,Simcolourproject_2stim_asymm_v5,2020.2.10,Win32,60,61025ae37ef11b136ea224fe,,,,,,,,,33,64.0000124,36.79999411,1,0,0,response1disk,,6,6.400011539,3.999993622,1,0,0,rectangle,6.400011539,3.999993622,1,0,0,6.400011539,3.999993622,1,0,0,1,39,199,27,1,,,,,,,,
,,,,,,,,,,,,,FF,,,,,,,,0.9302,,,,,,,,,,,,,,,,,,,,,,60fc62bc260a350027a1432c,61036dff94779c6ddc25f943,2021-07-29_22h12.57.771,Simcolourproject_2stim_asymm_v5,2020.2.10,Win32,60,61025ae37ef11b136ea224fe,,,,,,,,,2939,39.20001203,78.39999473,1,0,0,response1disk,,7,14.40001166,3.19999361,1,0,0,rectangle,14.40001166,3.19999361,1,0,0,14.40001166,3.19999361,1,0,0,1,40,200,62,1,,,,,,,,
,,,,,,,,,,,,,FF,,,,,,,,0.5483,,,,,,,,,,,,,,,,,,,,,,60fc62bc260a350027a1432c,61036dff94779c6ddc25f943,2021-07-29_22h12.57.771,Simcolourproject_2stim_asymm_v5,2020.2.10,Win32,60,61025ae37ef11b136ea224fe,,,,,,,,,3589,39.20001203,103.1999707,1,0,0,response1disk,,7,7.200011551,13.59999377,1,0,0,rectangle,7.200011551,13.59999377,1,0,0,7.200011551,13.59999377,1,0,0,1,41,201,133,1,,,,,,,,
,,,,,,,,,,,,,FF,,,,,,,,2.094,,,,,,,,,,,,,,,,,,,,,,60fc62bc260a350027a1432c,61036dff94779c6ddc25f943,2021-07-29_22h12.57.771,Simcolourproject_2stim_asymm_v5,2020.2.10,Win32,60,61025ae37ef11b136ea224fe,,,,,,,,,1496,78.40001261,25.59999394,1,0,0,response1disk,,6,3.200011492,0.799993575,1,0,0,rectangle,3.200011492,0.799993575,1,0,0,3.200011492,0.799993575,1,0,0,1,42,202,103,1,,,,,,,,
,,,,,,,,,,,,,FF,,,,,,,,0.6664,,,,,,,,,,,,,,,,,,,,,,60fc62bc260a350027a1432c,61036dff94779c6ddc25f943,2021-07-29_22h12.57.771,Simcolourproject_2stim_asymm_v5,2020.2.10,Win32,60,61025ae37ef11b136ea224fe,,,,,,,,,2175,27.20001185,78.39999473,1,0,0,response1disk,,7,-2.399939764,11.99999374,1,0,0,rectangle,-2.399939764,11.99999374,1,0,0,-2.399939764,11.99999374,1,0,0,1,43,203,49,1,,,,,,,,
,,,,,,,,,,,,,FF,,,,,,,,0.9234,,,,,,,,,,,,,,,,,,,,,,60fc62bc260a350027a1432c,61036dff94779c6ddc25f943,2021-07-29_22h12.57.771,Simcolourproject_2stim_asymm_v5,2020.2.10,Win32,60,61025ae37ef11b136ea224fe,,,,,,,,,2775,-51.99998933,75.9999947,1,0,0,response7disk,,0,-24.79998893,6.399993658,1,0,0,rectangle,-24.79998893,6.399993658,1,0,0,-24.79998893,6.399993658,1,0,0,1,44,204,95,1,,,,,,,,
,,,,,,,,,,,,,FF,,,,,,,,0.9303,,,,,,,,,,,,,,,,,,,,,,60fc62bc260a350027a1432c,61036dff94779c6ddc25f943,2021-07-29_22h12.57.771,Simcolourproject_2stim_asymm_v5,2020.2.10,Win32,60,61025ae37ef11b136ea224fe,,,,,,,,,550,-67.19998956,23.99999392,1,0,0,response7disk,,1,-0.799988568,3.999993622,1,0,0,rectangle,-0.799988568,3.999993622,1,0,0,-0.799988568,3.999993622,1,0,0,1,45,205,21,1,,,,,,,,
,,,,,,,,,,,,,FF,,,,,,,,0.8331,,,,,,,,,,,,,,,,,,,,,,60fc62bc260a350027a1432c,61036dff94779c6ddc25f943,2021-07-29_22h12.57.771,Simcolourproject_2stim_asymm_v5,2020.2.10,Win32,60,61025ae37ef11b136ea224fe,,,,,,,,,3668,-28.79998899,90.39999491,1,0,0,response7disk,,0,1.600060296,4.799993634,1,0,0,rectangle,1.600060296,4.799993634,1,0,0,1.600060296,4.799993634,1,0,0,1,46,206,125,1,,,,,,,,
,,,,,,,,,,,,,FF,,,,,,,,0.729,,,,,,,,,,,,,,,,,,,,,,60fc62bc260a350027a1432c,61036dff94779c6ddc25f943,2021-07-29_22h12.57.771,Simcolourproject_2stim_asymm_v5,2020.2.10,Win32,60,61025ae37ef11b136ea224fe,,,,,,,,,1753,-115.9999903,-46.40000713,1,0,0,response5disk,,2,-15.99998879,12.79999375,1,0,0,rectangle,-15.99998879,12.79999375,1,0,0,-15.99998879,12.79999375,1,0,0,1,47,207,117,1,,,,,,,,
,,,,,,,,,,,,,FF,,,,,,,,0.9372,,,,,,,,,,,,,,,,,,,,,,60fc62bc260a350027a1432c,61036dff94779c6ddc25f943,2021-07-29_22h12.57.771,Simcolourproject_2stim_asymm_v5,2020.2.10,Win32,60,61025ae37ef11b136ea224fe,,,,,,,,,2189,29.60006071,83.19997039,1,0,0,response1disk,,7,-6.399939823,13.59999377,1,0,0,rectangle,-6.399939823,13.59999377,1,0,0,-6.399939823,13.59999377,1,0,0,1,48,208,128,1,,,,,,,,
,,,,,,,,,,,,,FF,,,,,,,,2.2772,,,,,,,,,,,,,,,,,,,,,,60fc62bc260a350027a1432c,61036dff94779c6ddc25f943,2021-07-29_22h12.57.771,Simcolourproject_2stim_asymm_v5,2020.2.10,Win32,60,61025ae37ef11b136ea224fe,,,,,,,,,609,-96.79999,-34.40000695,1,0,0,response5disk,,2,-15.99998879,0.799993575,1,0,0,rectangle,-15.99998879,0.799993575,1,0,0,-15.99998879,0.799993575,1,0,0,1,49,209,47,1,,,,,,,,
,,,,,,,,,,,,,FF,,,,,,,,0.9165,,,,,,,,,,,,,,,,,,,,,,60fc62bc260a350027a1432c,61036dff94779c6ddc25f943,2021-07-29_22h12.57.771,Simcolourproject_2stim_asymm_v5,2020.2.10,Win32,60,61025ae37ef11b136ea224fe,,,,,,,,,4083,-27.19998896,-52.00000721,1,0,0,response5disk,,3,-8.799988687,11.19999373,1,0,0,rectangle,-8.799988687,11.19999373,1,0,0,-8.799988687,11.19999373,1,0,0,1,50,210,139,1,,,,,,,,
,,,,,,,,,,,,,FF,,,,,,,,2.1871,,,,,,,,,,,,,,,,,,,,,,60fc62bc260a350027a1432c,61036dff94779c6ddc25f943,2021-07-29_22h12.57.771,Simcolourproject_2stim_asymm_v5,2020.2.10,Win32,60,61025ae37ef11b136ea224fe,,,,,,,,,3112,84.80001271,25.59999394,1,0,0,response1disk,,6,-1.59998858,-5.600006521,1,0,0,rectangle,-1.59998858,-5.600006521,1,0,0,-1.59998858,-5.600006521,1,0,0,1,51,211,122,1,,,,,,,,
,,,,,,,,,,,,,FF,,,,,,,,0.6875,,,,,,,,,,,,,,,,,,,,,,60fc62bc260a350027a1432c,61036dff94779c6ddc25f943,2021-07-29_22h12.57.771,Simcolourproject_2stim_asymm_v5,2020.2.10,Win32,60,61025ae37ef11b136ea224fe,,,,,,,,,59,86.40001273,42.39999419,1,0,0,response1disk,,6,11.20001161,6.399993658,1,0,0,rectangle,11.20001161,6.399993658,1,0,0,11.20001161,6.399993658,1,0,0,1,52,212,101,1,,,,,,,,
,,,,,,,,,,,,,FF,,,,,,,,1.0414,,,,,,,,,,,,,,,,,,,,,,60fc62bc260a350027a1432c,61036dff94779c6ddc25f943,2021-07-29_22h12.57.771,Simcolourproject_2stim_asymm_v5,2020.2.10,Win32,60,61025ae37ef11b136ea224fe,,,,,,,,,3880,-107.9999902,-48.80000716,1,0,0,response5disk,,2,2.40001148,5.599993646,1,0,0,rectangle,105.600013,55.9999944,1,0,0,-3.199988604,-2.400006473,1,0,0,1,53,213,82,1,,response1disk_3,TRUE,6,6,"[142,58,31,226,0,214,84,184,95,163,61,307,78,107,146,50,289,112,108,269]",1.4095,rectangle
,,,,,,,,,,,,,FF,,,,,,,,0.9788,,,,,,,,,,,,,,,,,,,,,,60fc62bc260a350027a1432c,61036dff94779c6ddc25f943,2021-07-29_22h12.57.771,Simcolourproject_2stim_asymm_v5,2020.2.10,Win32,60,61025ae37ef11b136ea224fe,,,,,,,,,3064,112.8000131,38.39999413,1,0,0,response1disk,,6,-20.79998887,-12.00000662,1,0,0,rectangle,-20.79998887,-12.00000662,1,0,0,-20.79998887,-12.00000662,1,0,0,1,54,214,24,1,,,,,,,,
,,,,,,,,,,,,,FF,,,,,,,,0.7705,,,,,,,,,,,,,,,,,,,,,,60fc62bc260a350027a1432c,61036dff94779c6ddc25f943,2021-07-29_22h12.57.771,Simcolourproject_2stim_asymm_v5,2020.2.10,Win32,60,61025ae37ef11b136ea224fe,,,,,,,,,2722,-112.7999902,-48.00000715,1,0,0,response5disk,,2,-19.19998884,2.399993598,1,0,0,rectangle,-19.19998884,2.399993598,1,0,0,-19.19998884,2.399993598,1,0,0,1,55,215,38,1,,,,,,,,
,,,,,,,,,,,,,FF,,,,,,,,0.8607,,,,,,,,,,,,,,,,,,,,,,60fc62bc260a350027a1432c,61036dff94779c6ddc25f943,2021-07-29_22h12.57.771,Simcolourproject_2stim_asymm_v5,2020.2.10,Win32,60,61025ae37ef11b136ea224fe,,,,,,,,,651,100.0000129,-42.40000707,1,0,0,response3disk,,5,8.000011563,-3.200006485,1,0,0,rectangle,8.000011563,-3.200006485,1,0,0,8.000011563,-3.200006485,1,0,0,1,56,216,35,1,,,,,,,,
,,,,,,,,,,,,,FF,,,,,,,,1.2913,,,,,,,,,,,,,,,,,,,,,,60fc62bc260a350027a1432c,61036dff94779c6ddc25f943,2021-07-29_22h12.57.771,Simcolourproject_2stim_asymm_v5,2020.2.10,Win32,60,61025ae37ef11b136ea224fe,,,,,,,,,1138,-77.59998971,-34.40000695,1,0,0,response5disk,,2,-14.39993994,1.599993587,1,0,0,rectangle,-14.39993994,1.599993587,1,0,0,-14.39993994,1.599993587,1,0,0,1,57,217,98,1,,,,,,,,
,,,,,,,,,,,,,FF,,,,,,,,1.708,,,,,,,,,,,,,,,,,,,,,,60fc62bc260a350027a1432c,61036dff94779c6ddc25f943,2021-07-29_22h12.57.771,Simcolourproject_2stim_asymm_v5,2020.2.10,Win32,60,61025ae37ef11b136ea224fe,,,,,,,,,1277,96.00001287,36.79999411,1,0,0,response1disk,,6,-15.19998878,-3.200006485,1,0,0,rectangle,-15.19998878,-3.200006485,1,0,0,-15.19998878,-3.200006485,1,0,0,1,58,218,29,1,,,,,,,,
,,,,,,,,,,,,,FF,,,,,,,,0.6107,,,,,,,,,,,,,,,,,,,,,,60fc62bc260a350027a1432c,61036dff94779c6ddc25f943,2021-07-29_22h12.57.771,Simcolourproject_2stim_asymm_v5,2020.2.10,Win32,60,61025ae37ef11b136ea224fe,,,,,,,,,2619,121.6000133,37.59999412,1,0,0,response1disk,,6,-7.999988675,2.399993598,1,0,0,rectangle,-7.999988675,2.399993598,1,0,0,-7.999988675,2.399993598,1,0,0,1,59,219,70,1,,,,,,,,
,,,,,,,,,,,,,FF,,,,,,,,0.9719,,,,,,,,,,,,,,,,,,,,,,60fc62bc260a350027a1432c,61036dff94779c6ddc25f943,2021-07-29_22h12.57.771,Simcolourproject_2stim_asymm_v5,2020.2.10,Win32,60,61025ae37ef11b136ea224fe,,,,,,,,,2898,-99.19999003,-44.8000071,1,0,0,response5disk,,2,-23.1999889,2.399993598,1,0,0,rectangle,-23.1999889,2.399993598,1,0,0,-23.1999889,2.399993598,1,0,0,1,60,220,148,1,,,,,,,,
,,,,,,,,,,,,,FF,,,,,,,,1.4372,,,,,,,,,,,,,,,,,,,,,,60fc62bc260a350027a1432c,61036dff94779c6ddc25f943,2021-07-29_22h12.57.771,Simcolourproject_2stim_asymm_v5,2020.2.10,Win32,60,61025ae37ef11b136ea224fe,,,,,,,,,1666,40.00001204,66.39999455,1,0,0,response1disk,,7,1.600060296,11.99999374,1,0,0,rectangle,1.600060296,11.99999374,1,0,0,1.600060296,11.99999374,1,0,0,1,61,221,119,1,,,,,,,,
,,,,,,,,,,,,,FF,,,,,,,,0.9649,,,,,,,,,,,,,,,,,,,,,,60fc62bc260a350027a1432c,61036dff94779c6ddc25f943,2021-07-29_22h12.57.771,Simcolourproject_2stim_asymm_v5,2020.2.10,Win32,60,61025ae37ef11b136ea224fe,,,,,,,,,3556,-129.5999905,-52.80000722,1,0,0,response5disk,,2,1.600060296,5.599993646,1,0,0,rectangle,1.600060296,5.599993646,1,0,0,1.600060296,5.599993646,1,0,0,1,62,222,159,1,,,,,,,,
,,,,,,,,,,,,,FF,,,,,,,,0.8609,,,,,,,,,,,,,,,,,,,,,,60fc62bc260a350027a1432c,61036dff94779c6ddc25f943,2021-07-29_22h12.57.771,Simcolourproject_2stim_asymm_v5,2020.2.10,Win32,60,61025ae37ef11b136ea224fe,,,,,,,,,1514,51.20001221,25.59999394,1,0,0,response1disk,,6,0.800011456,-2.400006473,1,0,0,rectangle,0.800011456,-2.400006473,1,0,0,0.800011456,-2.400006473,1,0,0,1,63,223,44,1,,,,,,,,
,,,,,,,,,,,,,FF,,,,,,,,1.0346,,,,,,,,,,,,,,,,,,,,,,60fc62bc260a350027a1432c,61036dff94779c6ddc25f943,2021-07-29_22h12.57.771,Simcolourproject_2stim_asymm_v5,2020.2.10,Win32,60,61025ae37ef11b136ea224fe,,,,,,,,,2325,30.4000119,75.19997027,1,0,0,response1disk,,7,-12.79998875,1.599993587,1,0,0,rectangle,-12.79998875,1.599993587,1,0,0,-12.79998875,1.599993587,1,0,0,1,64,224,136,1,,,,,,,,
,,,,,,,,,,,,,FF,,,,,,,,1.0621,,,,,,,,,,,,,,,,,,,,,,60fc62bc260a350027a1432c,61036dff94779c6ddc25f943,2021-07-29_22h12.57.771,Simcolourproject_2stim_asymm_v5,2020.2.10,Win32,60,61025ae37ef11b136ea224fe,,,,,,,,,1703,36.00001198,31.19996961,1,0,0,response1disk,,6,-2.399939764,-6.4373E-06,1,0,0,rectangle,-23.99998891,104.7999951,1,0,0,3.200011492,-11.2000066,1,0,0,1,65,225,36,1,,response7disk_3,TRUE,0,0,"[142,58,31,226,0,214,84,184,95,163,61,307,78,107,146,50,289,112,108,269]",1.1916,rectangle
,,,,,,,,,,,,,FF,,,,,,,,2.2566,,,,,,,,,,,,,,,,,,,,,,60fc62bc260a350027a1432c,61036dff94779c6ddc25f943,2021-07-29_22h12.57.771,Simcolourproject_2stim_asymm_v5,2020.2.10,Win32,60,61025ae37ef11b136ea224fe,,,,,,,,,36,92.00001281,26.39999396,1,0,0,response1disk,,6,-5.599988639,-9.60000658,1,0,0,rectangle,-5.599988639,-9.60000658,1,0,0,-5.599988639,-9.60000658,1,0,0,1,66,226,112,1,,,,,,,,
,,,,,,,,,,,,,FF,,,,,,,,0.6109,,,,,,,,,,,,,,,,,,,,,,60fc62bc260a350027a1432c,61036dff94779c6ddc25f943,2021-07-29_22h12.57.771,Simcolourproject_2stim_asymm_v5,2020.2.10,Win32,60,61025ae37ef11b136ea224fe,,,,,,,,,1373,-111.9999902,-58.40000731,1,0,0,response5disk,,2,-23.1999889,6.399993658,1,0,0,rectangle,-23.1999889,6.399993658,1,0,0,-23.1999889,6.399993658,1,0,0,1,67,227,60,1,,,,,,,,
,,,,,,,,,,,,,FF,,,,,,,,0.8123,,,,,,,,,,,,,,,,,,,,,,60fc62bc260a350027a1432c,61036dff94779c6ddc25f943,2021-07-29_22h12.57.771,Simcolourproject_2stim_asymm_v5,2020.2.10,Win32,60,61025ae37ef11b136ea224fe,,,,,,,,,1002,108.8000131,51.99999434,1,0,0,response1disk,,6,4.000011504,-6.4373E-06,1,0,0,rectangle,4.000011504,-6.4373E-06,1,0,0,4.000011504,-6.4373E-06,1,0,0,1,68,228,106,1,,,,,,,,
,,,,,,,,,,,,,FF,,,,,,,,1.8953,,,,,,,,,,,,,,,,,,,,,,60fc62bc260a350027a1432c,61036dff94779c6ddc25f943,2021-07-29_22h12.57.771,Simcolourproject_2stim_asymm_v5,2020.2.10,Win32,60,61025ae37ef11b136ea224fe,,,,,,,,,3761,96.00001287,47.99999428,1,0,0,response1disk,,6,-3.199988604,2.399993598,1,0,0,rectangle,-3.199988604,2.399993598,1,0,0,-3.199988604,2.399993598,1,0,0,1,69,229,50,1,,,,,,,,
,,,,,,,,,,,,,FF,,,,,,,,0.9444,,,,,,,,,,,,,,,,,,,,,,60fc62bc260a350027a1432c,61036dff94779c6ddc25f943,2021-07-29_22h12.57.771,Simcolourproject_2stim_asymm_v5,2020.2.10,Win32,60,61025ae37ef11b136ea224fe,,,,,,,,,131,67.20001245,31.99999404,1,0,0,response1disk,,6,16.00001168,9.599993706,1,0,0,rectangle,16.00001168,9.599993706,1,0,0,16.00001168,9.599993706,1,0,0,1,70,230,63,1,,,,,,,,
,,,,,,,,,,,,,FF,,,,,,,,0.9372,,,,,,,,,,,,,,,,,,,,,,60fc62bc260a350027a1432c,61036dff94779c6ddc25f943,2021-07-29_22h12.57.771,Simcolourproject_2stim_asymm_v5,2020.2.10,Win32,60,61025ae37ef11b136ea224fe,,,,,,,,,2539,55.20001227,88.79999489,1,0,0,response1disk,,7,12.80001163,-8.000006557,1,0,0,rectangle,12.80001163,-8.000006557,1,0,0,12.80001163,-8.000006557,1,0,0,1,71,231,157,1,,,,,,,,
,,,,,,,,,,,,,FF,,,,,,,,0.6456,,,,,,,,,,,,,,,,,,,,,,60fc62bc260a350027a1432c,61036dff94779c6ddc25f943,2021-07-29_22h12.57.771,Simcolourproject_2stim_asymm_v5,2020.2.10,Win32,60,61025ae37ef11b136ea224fe,,,,,,,,,446,60.00001234,132.7999955,1,0,0,response1disk,,7,2.40001148,-10.40000659,1,0,0,rectangle,2.40001148,-10.40000659,1,0,0,2.40001148,-10.40000659,1,0,0,1,72,232,69,1,,,,,,,,
,,,,,,,,,,,,,FF,,,,,,,,1.0761,,,,,,,,,,,,,,,,,,,,,,60fc62bc260a350027a1432c,61036dff94779c6ddc25f943,2021-07-29_22h12.57.771,Simcolourproject_2stim_asymm_v5,2020.2.10,Win32,60,61025ae37ef11b136ea224fe,,,,,,,,,1342,41.60006089,93.59999496,1,0,0,response1disk,,7,2.40001148,2.399993598,1,0,0,rectangle,2.40001148,2.399993598,1,0,0,2.40001148,2.399993598,1,0,0,1,73,233,34,1,,,,,,,,
,,,,,,,,,,,,,FF,,,,,,,,1.208,,,,,,,,,,,,,,,,,,,,,,60fc62bc260a350027a1432c,61036dff94779c6ddc25f943,2021-07-29_22h12.57.771,Simcolourproject_2stim_asymm_v5,2020.2.10,Win32,60,61025ae37ef11b136ea224fe,,,,,,,,,2527,31.20001191,80.79999477,1,0,0,response1disk,,7,14.40001166,4.799993634,1,0,0,rectangle,14.40001166,4.799993634,1,0,0,14.40001166,4.799993634,1,0,0,1,74,234,26,1,,,,,,,,
,,,,,,,,,,,,,FF,,,,,,,,0.8955,,,,,,,,,,,,,,,,,,,,,,60fc62bc260a350027a1432c,61036dff94779c6ddc25f943,2021-07-29_22h12.57.771,Simcolourproject_2stim_asymm_v5,2020.2.10,Win32,60,61025ae37ef11b136ea224fe,,,,,,,,,1491,48.80001217,103.1999707,1,0,0,response1disk,,7,-4.799988627,-1.600006461,1,0,0,rectangle,-4.799988627,-1.600006461,1,0,0,-4.799988627,-1.600006461,1,0,0,1,75,235,96,1,,,,,,,,
,,,,,,,,,,,,,FF,,,,,,,,0.8887,,,,,,,,,,,,,,,,,,,,,,60fc62bc260a350027a1432c,61036dff94779c6ddc25f943,2021-07-29_22h12.57.771,Simcolourproject_2stim_asymm_v5,2020.2.10,Win32,60,61025ae37ef11b136ea224fe,,,,,,,,,2271,30.4000119,87.19997045,1,0,0,response1disk,,7,12.80001163,-2.400006473,1,0,0,rectangle,12.80001163,-2.400006473,1,0,0,12.80001163,-2.400006473,1,0,0,1,76,236,22,1,,,,,,,,
,,,,,,,,,,,,,FF,,,,,,,,0.7707,,,,,,,,,,,,,,,,,,,,,,60fc62bc260a350027a1432c,61036dff94779c6ddc25f943,2021-07-29_22h12.57.771,Simcolourproject_2stim_asymm_v5,2020.2.10,Win32,60,61025ae37ef11b136ea224fe,,,,,,,,,2333,33.60006077,78.39999473,1,0,0,response1disk,,7,-13.59998876,0.799993575,1,0,0,rectangle,-13.59998876,0.799993575,1,0,0,-13.59998876,0.799993575,1,0,0,1,77,237,131,1,,,,,,,,
,,,,,,,,,,,,,FF,,,,,,,,0.7429,,,,,,,,,,,,,,,,,,,,,,60fc62bc260a350027a1432c,61036dff94779c6ddc25f943,2021-07-29_22h12.57.771,Simcolourproject_2stim_asymm_v5,2020.2.10,Win32,60,61025ae37ef11b136ea224fe,,,,,,,,,1895,-77.59998971,-36.80000699,1,0,0,response5disk,,2,0.800011456,7.19999367,1,0,0,rectangle,0.800011456,7.19999367,1,0,0,0.800011456,7.19999367,1,0,0,1,78,238,86,1,,,,,,,,
,,,,,,,,,,,,,FF,,,,,,,,1.5621,,,,,,,,,,,,,,,,,,,,,,60fc62bc260a350027a1432c,61036dff94779c6ddc25f943,2021-07-29_22h12.57.771,Simcolourproject_2stim_asymm_v5,2020.2.10,Win32,60,61025ae37ef11b136ea224fe,,,,,,,,,2863,74.40001255,42.39999419,1,0,0,response1disk,,6,-19.19998884,11.19999373,1,0,0,rectangle,-19.19998884,11.19999373,1,0,0,-19.19998884,11.19999373,1,0,0,1,79,239,116,1,,,,,,,,
,,,,,,,,,,,,,FF,,,,,,,,1.9162,,,,,,,,,,,,,,,,,,,,,,60fc62bc260a350027a1432c,61036dff94779c6ddc25f943,2021-07-29_22h12.57.771,Simcolourproject_2stim_asymm_v5,2020.2.10,Win32,60,61025ae37ef11b136ea224fe,,,,,,,,,3808,46.40001214,79.19997033,1,0,0,response1disk,,7,2.40001148,-0.800006449,1,0,0,rectangle,2.40001148,-0.800006449,1,0,0,2.40001148,-0.800006449,1,0,0,1,80,240,158,1,,,,,,,,
,,,,,,,,,,,,,FF,,,,,,,,0.6316,,,,,,,,,,,,,,,,,,,,,,60fc62bc260a350027a1432c,61036dff94779c6ddc25f943,2021-07-29_22h12.57.771,Simcolourproject_2stim_asymm_v5,2020.2.10,Win32,60,61025ae37ef11b136ea224fe,,,,,,,,,3213,80.80001265,122.3999954,1,0,0,response1disk,,7,1.600060296,0.799993575,1,0,0,rectangle,1.600060296,0.799993575,1,0,0,1.600060296,0.799993575,1,0,0,1,81,241,45,1,,,,,,,,
,,,,,,,,,,,,,FF,,,,,,,,1.4095,,,,,,,,,,,,,,,,,,,,,,60fc62bc260a350027a1432c,61036dff94779c6ddc25f943,2021-07-29_22h12.57.771,Simcolourproject_2stim_asymm_v5,2020.2.10,Win32,60,61025ae37ef11b136ea224fe,,,,,,,,,4150,-107.1999902,-51.2000072,1,0,0,response5disk,,2,2.40001148,-8.000006557,1,0,0,rectangle,2.40001148,-8.000006557,1,0,0,2.40001148,-8.000006557,1,0,0,1,82,242,94,1,,,,,,,,
