key_resp.keys,key_resp.rt,key_resp_14.keys,key_resp_14.rt,key_resp_15.keys,key_resp_15.rt,key_resp_17.keys,key_resp_17.rt,key_resp_9.keys,key_resp_9.rt,key_resp_10.keys,key_resp_10.rt,practice_comparison,Ecc,mouse_5.x,mouse_5.y,mouse_5.leftButton,mouse_5.midButton,mouse_5.rightButton,mouse_5.clicked_name,pracsimilarity,response_time,mouse_10.x,mouse_10.y,mouse_10.leftButton,mouse_10.midButton,mouse_10.rightButton,mouse_10.clicked_name,mouse_7.x,mouse_7.y,mouse_7.leftButton,mouse_7.midButton,mouse_7.rightButton,mouse_6.x,mouse_6.y,mouse_6.leftButton,mouse_6.midButton,mouse_6.rightButton,duringprac.thisRepN,duringprac.thisTrialN,duringprac.thisN,duringprac.thisIndex,duringprac.ran,participant,session,date,expName,psychopyVersion,OS,frameRate,study_id,mouse_7.clicked_name,catchpracsimilarity,catch_response_time,catchnumberprac,catchtrialorderprac,mouse_6.clicked_name,key_resp_22.keys,key_resp_22.rt,realcomparison,mouse.x,mouse.y,mouse.leftButton,mouse.midButton,mouse.rightButton,mouse.clicked_name,Colour2,similarity,mouse_2.x,mouse_2.y,mouse_2.leftButton,mouse_2.midButton,mouse_2.rightButton,mouse_2.clicked_name,mouse_3.x,mouse_3.y,mouse_3.leftButton,mouse_3.midButton,mouse_3.rightButton,mouse_11.x,mouse_11.y,mouse_11.leftButton,mouse_11.midButton,mouse_11.rightButton,trials_2.thisRepN,trials_2.thisTrialN,trials_2.thisN,trials_2.thisIndex,trials_2.ran,Colour1,mouse_3.clicked_name,catchornah,catchsimilarity,catchnumber,catchtrialorder,catchRT,mouse_11.clicked_name
space,0.96211,space,14.99429,space,16.44451,space,3.78507,space,1.46876,space,5.628565,15,FF,54.43988037,-52.91174316,1,0,0,response3disk_5,5,17.4656,-8.922668457,-0.314086914,1,0,0,rectangle_8,-8.922668457,-0.314086914,1,0,0,-8.922668457,-0.314086914,1,0,0,0,0,0,3,1,60fcca515dbee0243a67c5d4,6103668583a9273083c856a8,2021-07-29_22h40.29.986,Simcolourproject_2stim_asymm_v5,2020.2.10,Linux x86_64,60,61025ae37ef11b136ea224fe,,,,,,,,,,,,,,,,,,,,,,,,,,,,,,,,,,,,,,,,,,,,,,
,,,,,,,,,,,,52,PF,58.50280762,49.10437012,1,0,0,response1disk_5,6,5.76448,1.805358887,-7.715240479,1,0,0,rectangle_8,41.25598145,63.71401978,1,0,0,-3.57611084,0.728485107,1,0,0,0,1,1,4,1,60fcca515dbee0243a67c5d4,6103668583a9273083c856a8,2021-07-29_22h40.29.986,Simcolourproject_2stim_asymm_v5,2020.2.10,Linux x86_64,60,61025ae37ef11b136ea224fe,response1disk_7,7,4.06599,7,"[2,5]",rectangle_4,,,,,,,,,,,,,,,,,,,,,,,,,,,,,,,,,,,,,,,,
,,,,,,,,,,,,33,PF,34.94488525,65.24731445,1,0,0,response1disk_5,7,5.8311,11.69177246,-4.334259033,1,0,0,rectangle_8,11.69177246,-4.334259033,1,0,0,11.69177246,-4.334259033,1,0,0,0,2,2,1,1,60fcca515dbee0243a67c5d4,6103668583a9273083c856a8,2021-07-29_22h40.29.986,Simcolourproject_2stim_asymm_v5,2020.2.10,Linux x86_64,60,61025ae37ef11b136ea224fe,,,,,,,,,,,,,,,,,,,,,,,,,,,,,,,,,,,,,,,,,,,,,,
,,,,,,,,,,,,58,PF,84.12109375,24.4753418,1,0,0,response1disk_5,6,2.866205,8.747314453,-6.828125,1,0,0,rectangle_8,8.747314453,-6.828125,1,0,0,8.747314453,-6.828125,1,0,0,0,3,3,2,1,60fcca515dbee0243a67c5d4,6103668583a9273083c856a8,2021-07-29_22h40.29.986,Simcolourproject_2stim_asymm_v5,2020.2.10,Linux x86_64,60,61025ae37ef11b136ea224fe,,,,,,,,,,,,,,,,,,,,,,,,,,,,,,,,,,,,,,,,,,,,,,
,,,,,,,,,,,,33,PF,73.01776123,22.259552,1,0,0,response1disk_5,6,5.58115,-6.130310059,-12.46862793,1,0,0,rectangle_8,31.31085205,73.14199829,1,0,0,2.313171387,-7.35836792,1,0,0,0,4,4,6,1,60fcca515dbee0243a67c5d4,6103668583a9273083c856a8,2021-07-29_22h40.29.986,Simcolourproject_2stim_asymm_v5,2020.2.10,Linux x86_64,60,61025ae37ef11b136ea224fe,response1disk_7,7,1.798915,7,"[2,5]",rectangle_4,,,,,,,,,,,,,,,,,,,,,,,,,,,,,,,,,,,,,,,,
,,,,,,,,,,,,94,FF,77.03961182,-43.64910889,1,0,0,response3disk_5,5,1.999595,1.884094238,-2.145721436,1,0,0,rectangle_8,1.884094238,-2.145721436,1,0,0,1.884094238,-2.145721436,1,0,0,0,5,5,5,1,60fcca515dbee0243a67c5d4,6103668583a9273083c856a8,2021-07-29_22h40.29.986,Simcolourproject_2stim_asymm_v5,2020.2.10,Linux x86_64,60,61025ae37ef11b136ea224fe,,,,,,,,,,,,,,,,,,,,,,,,,,,,,,,,,,,,,,,,,,,,,,
,,,,,,,,,,,,155,FF,25.72076416,54.39834595,1,0,0,response1disk_5,7,1.782735,-3.214782715,-3.275848389,1,0,0,rectangle_8,-3.214782715,-3.275848389,1,0,0,-3.214782715,-3.275848389,1,0,0,0,6,6,0,1,60fcca515dbee0243a67c5d4,6103668583a9273083c856a8,2021-07-29_22h40.29.986,Simcolourproject_2stim_asymm_v5,2020.2.10,Linux x86_64,60,61025ae37ef11b136ea224fe,,,,,,,,,,,,,,,,,,,,,,,,,,,,,,,,,,,,,,,,,,,,,,
,,,,,,,,,,,,,FF,,,,,,,,2.29978,,,,,,,,,,,,,,,,,,,,,,60fcca515dbee0243a67c5d4,6103668583a9273083c856a8,2021-07-29_22h40.29.986,Simcolourproject_2stim_asymm_v5,2020.2.10,Linux x86_64,60,61025ae37ef11b136ea224fe,,,,,,,space,2.607975,2538,85.98852539,-53.59991455,1,0,0,response3disk,,5,2.561706543,-4.159942627,1,0,0,rectangle,2.561706543,-4.159942627,1,0,0,2.561706543,-4.159942627,1,0,0,0,0,0,113,1,,,,,,,,
,,,,,,,,,,,,,FF,,,,,,,,2.482305,,,,,,,,,,,,,,,,,,,,,,60fcca515dbee0243a67c5d4,6103668583a9273083c856a8,2021-07-29_22h40.29.986,Simcolourproject_2stim_asymm_v5,2020.2.10,Linux x86_64,60,61025ae37ef11b136ea224fe,,,,,,,,,3278,77.62445068,-45.58917236,1,0,0,response3disk,,5,-13.41625977,-6.566711426,1,0,0,rectangle,-13.41625977,-6.566711426,1,0,0,-13.41625977,-6.566711426,1,0,0,0,1,1,35,1,,,,,,,,
,,,,,,,,,,,,,FF,,,,,,,,2.54903,,,,,,,,,,,,,,,,,,,,,,60fcca515dbee0243a67c5d4,6103668583a9273083c856a8,2021-07-29_22h40.29.986,Simcolourproject_2stim_asymm_v5,2020.2.10,Linux x86_64,60,61025ae37ef11b136ea224fe,,,,,,,,,3581,66.51013184,25.46463013,1,0,0,response1disk,,6,-13.97467041,2.211517334,1,0,0,rectangle,-13.97467041,2.211517334,1,0,0,-13.97467041,2.211517334,1,0,0,0,2,2,151,1,,,,,,,,
,,,,,,,,,,,,,FF,,,,,,,,5.897715,,,,,,,,,,,,,,,,,,,,,,60fcca515dbee0243a67c5d4,6103668583a9273083c856a8,2021-07-29_22h40.29.986,Simcolourproject_2stim_asymm_v5,2020.2.10,Linux x86_64,60,61025ae37ef11b136ea224fe,,,,,,,,,2861,53.52722168,-29.96990967,1,0,0,response3disk,,5,4.52734375,-0.496704102,1,0,0,rectangle,4.52734375,-0.496704102,1,0,0,4.52734375,-0.496704102,1,0,0,0,3,3,146,1,,,,,,,,
,,,,,,,,,,,,,FF,,,,,,,,5.064935,,,,,,,,,,,,,,,,,,,,,,60fcca515dbee0243a67c5d4,6103668583a9273083c856a8,2021-07-29_22h40.29.986,Simcolourproject_2stim_asymm_v5,2020.2.10,Linux x86_64,60,61025ae37ef11b136ea224fe,,,,,,,,,3574,52.10217285,-52.12637329,1,0,0,response3disk,,4,0.759765625,-0.365081787,1,0,0,rectangle,0.759765625,-0.365081787,1,0,0,0.759765625,-0.365081787,1,0,0,0,4,4,44,1,,,,,,,,
,,,,,,,,,,,,,FF,,,,,,,,2.10044,,,,,,,,,,,,,,,,,,,,,,60fcca515dbee0243a67c5d4,6103668583a9273083c856a8,2021-07-29_22h40.29.986,Simcolourproject_2stim_asymm_v5,2020.2.10,Linux x86_64,60,61025ae37ef11b136ea224fe,,,,,,,,,1140,-44.07049561,-64.99621582,1,0,0,response5disk,,3,-9.748046875,-12.34771729,1,0,0,rectangle,-9.748046875,-12.34771729,1,0,0,-9.748046875,-12.34771729,1,0,0,0,5,5,14,1,,,,,,,,
,,,,,,,,,,,,,FF,,,,,,,,1.299635,,,,,,,,,,,,,,,,,,,,,,60fcca515dbee0243a67c5d4,6103668583a9273083c856a8,2021-07-29_22h40.29.986,Simcolourproject_2stim_asymm_v5,2020.2.10,Linux x86_64,60,61025ae37ef11b136ea224fe,,,,,,,,,3118,28.15405273,-56.24899292,1,0,0,response3disk,,4,8.327331543,6.207061768,1,0,0,rectangle,-88.94458008,33.19558716,1,0,0,5.708496094,-4.676055908,1,0,0,0,6,6,106,1,,response7disk_3,TRUE,1,1,"[84,217,264,149,15,97,130,105,215,7,169,41,128,315,240,231,44,258,159,49]",1.582705,rectangle
,,,,,,,,,,,,,FF,,,,,,,,2.316555,,,,,,,,,,,,,,,,,,,,,,60fcca515dbee0243a67c5d4,6103668583a9273083c856a8,2021-07-29_22h40.29.986,Simcolourproject_2stim_asymm_v5,2020.2.10,Linux x86_64,60,61025ae37ef11b136ea224fe,,,,,,,,,3577,-44.24005127,-65.30148315,1,0,0,response5disk,,3,-7.052307129,1.254455566,1,0,0,rectangle,-7.052307129,1.254455566,1,0,0,-7.052307129,1.254455566,1,0,0,0,7,7,111,1,,,,,,,,
,,,,,,,,,,,,,FF,,,,,,,,0.949125,,,,,,,,,,,,,,,,,,,,,,60fcca515dbee0243a67c5d4,6103668583a9273083c856a8,2021-07-29_22h40.29.986,Simcolourproject_2stim_asymm_v5,2020.2.10,Linux x86_64,60,61025ae37ef11b136ea224fe,,,,,,,,,509,99.96368408,35.3616333,1,0,0,response1disk,,6,2.634765625,-3.880371094,1,0,0,rectangle,2.634765625,-3.880371094,1,0,0,2.634765625,-3.880371094,1,0,0,0,8,8,68,1,,,,,,,,
,,,,,,,,,,,,,FF,,,,,,,,1.932475,,,,,,,,,,,,,,,,,,,,,,60fcca515dbee0243a67c5d4,6103668583a9273083c856a8,2021-07-29_22h40.29.986,Simcolourproject_2stim_asymm_v5,2020.2.10,Linux x86_64,60,61025ae37ef11b136ea224fe,,,,,,,,,3879,50.59356689,-56.48309326,1,0,0,response3disk,,4,10.70739746,-4.678131104,1,0,0,rectangle,10.70739746,-4.678131104,1,0,0,10.70739746,-4.678131104,1,0,0,0,9,9,75,1,,,,,,,,
,,,,,,,,,,,,,FF,,,,,,,,1.84933,,,,,,,,,,,,,,,,,,,,,,60fcca515dbee0243a67c5d4,6103668583a9273083c856a8,2021-07-29_22h40.29.986,Simcolourproject_2stim_asymm_v5,2020.2.10,Linux x86_64,60,61025ae37ef11b136ea224fe,,,,,,,,,99,-71.85314941,-36.58267212,1,0,0,response5disk,,2,-7.359985352,-6.807403564,1,0,0,rectangle,-7.359985352,-6.807403564,1,0,0,-7.359985352,-6.807403564,1,0,0,0,10,10,102,1,,,,,,,,
,,,,,,,,,,,,,FF,,,,,,,,1.7828,,,,,,,,,,,,,,,,,,,,,,60fcca515dbee0243a67c5d4,6103668583a9273083c856a8,2021-07-29_22h40.29.986,Simcolourproject_2stim_asymm_v5,2020.2.10,Linux x86_64,60,61025ae37ef11b136ea224fe,,,,,,,,,3847,-65.37969971,-42.1913147,1,0,0,response5disk,,2,-8.104431152,-9.533203125,1,0,0,rectangle,-8.104431152,-9.533203125,1,0,0,-8.104431152,-9.533203125,1,0,0,0,11,11,78,1,,,,,,,,
,,,,,,,,,,,,,FF,,,,,,,,3.06545,,,,,,,,,,,,,,,,,,,,,,60fcca515dbee0243a67c5d4,6103668583a9273083c856a8,2021-07-29_22h40.29.986,Simcolourproject_2stim_asymm_v5,2020.2.10,Linux x86_64,60,61025ae37ef11b136ea224fe,,,,,,,,,4261,91.93536377,-45.92449951,1,0,0,response3disk,,5,-11.38922119,-3.63973999,1,0,0,rectangle,-11.38922119,-3.63973999,1,0,0,-11.38922119,-3.63973999,1,0,0,0,12,12,92,1,,,,,,,,
,,,,,,,,,,,,,FF,,,,,,,,1.099895,,,,,,,,,,,,,,,,,,,,,,60fcca515dbee0243a67c5d4,6103668583a9273083c856a8,2021-07-29_22h40.29.986,Simcolourproject_2stim_asymm_v5,2020.2.10,Linux x86_64,60,61025ae37ef11b136ea224fe,,,,,,,,,2736,36.44573975,-78.28634644,1,0,0,response3disk,,4,-7.137207031,-5.069000244,1,0,0,rectangle,-7.137207031,-5.069000244,1,0,0,-7.137207031,-5.069000244,1,0,0,0,13,13,87,1,,,,,,,,
,,,,,,,,,,,,,FF,,,,,,,,1.766395,,,,,,,,,,,,,,,,,,,,,,60fcca515dbee0243a67c5d4,6103668583a9273083c856a8,2021-07-29_22h40.29.986,Simcolourproject_2stim_asymm_v5,2020.2.10,Linux x86_64,60,61025ae37ef11b136ea224fe,,,,,,,,,1018,89.43322754,30.53152466,1,0,0,response1disk,,6,9.361083984,-8.838592529,1,0,0,rectangle,-42.09881592,67.12039185,1,0,0,-7.517333984,-3.424621582,1,0,0,0,14,14,157,1,,response7disk_3,TRUE,0,0,"[84,217,264,149,15,97,130,105,215,7,169,41,128,315,240,231,44,258,159,49]",2.148715,rectangle
,,,,,,,,,,,,,FF,,,,,,,,1.431795,,,,,,,,,,,,,,,,,,,,,,60fcca515dbee0243a67c5d4,6103668583a9273083c856a8,2021-07-29_22h40.29.986,Simcolourproject_2stim_asymm_v5,2020.2.10,Linux x86_64,60,61025ae37ef11b136ea224fe,,,,,,,,,2791,-42.15130615,-72.39920044,1,0,0,response5disk,,3,0.745788574,0.214202881,1,0,0,rectangle,0.745788574,0.214202881,1,0,0,0.745788574,0.214202881,1,0,0,0,15,15,90,1,,,,,,,,
,,,,,,,,,,,,,FF,,,,,,,,0.98193,,,,,,,,,,,,,,,,,,,,,,60fcca515dbee0243a67c5d4,6103668583a9273083c856a8,2021-07-29_22h40.29.986,Simcolourproject_2stim_asymm_v5,2020.2.10,Linux x86_64,60,61025ae37ef11b136ea224fe,,,,,,,,,1388,19.48699951,-52.64489746,1,0,0,response3disk,,4,8.353637695,8.874755859,1,0,0,rectangle,8.353637695,8.874755859,1,0,0,8.353637695,8.874755859,1,0,0,0,16,16,108,1,,,,,,,,
,,,,,,,,,,,,,FF,,,,,,,,0.951735,,,,,,,,,,,,,,,,,,,,,,60fcca515dbee0243a67c5d4,6103668583a9273083c856a8,2021-07-29_22h40.29.986,Simcolourproject_2stim_asymm_v5,2020.2.10,Linux x86_64,60,61025ae37ef11b136ea224fe,,,,,,,,,1489,45.60266113,55.36172485,1,0,0,response1disk,,7,8.328918457,-1.541320801,1,0,0,rectangle,8.328918457,-1.541320801,1,0,0,8.328918457,-1.541320801,1,0,0,0,17,17,159,1,,,,,,,,
,,,,,,,,,,,,,FF,,,,,,,,1.866435,,,,,,,,,,,,,,,,,,,,,,60fcca515dbee0243a67c5d4,6103668583a9273083c856a8,2021-07-29_22h40.29.986,Simcolourproject_2stim_asymm_v5,2020.2.10,Linux x86_64,60,61025ae37ef11b136ea224fe,,,,,,,,,3438,71.12927246,-51.84771729,1,0,0,response3disk,,5,14.36950684,-1.434051514,1,0,0,rectangle,14.36950684,-1.434051514,1,0,0,14.36950684,-1.434051514,1,0,0,0,18,18,62,1,,,,,,,,
,,,,,,,,,,,,,FF,,,,,,,,0.816855,,,,,,,,,,,,,,,,,,,,,,60fcca515dbee0243a67c5d4,6103668583a9273083c856a8,2021-07-29_22h40.29.986,Simcolourproject_2stim_asymm_v5,2020.2.10,Linux x86_64,60,61025ae37ef11b136ea224fe,,,,,,,,,1102,36.79693604,66.21414185,1,0,0,response1disk,,7,-1.073608398,3.376434326,1,0,0,rectangle,-1.073608398,3.376434326,1,0,0,-1.073608398,3.376434326,1,0,0,0,19,19,28,1,,,,,,,,
,,,,,,,,,,,,,FF,,,,,,,,1.183215,,,,,,,,,,,,,,,,,,,,,,60fcca515dbee0243a67c5d4,6103668583a9273083c856a8,2021-07-29_22h40.29.986,Simcolourproject_2stim_asymm_v5,2020.2.10,Linux x86_64,60,61025ae37ef11b136ea224fe,,,,,,,,,1482,43.67510986,-72.32443237,1,0,0,response3disk,,4,9.605163574,1.11517334,1,0,0,rectangle,9.605163574,1.11517334,1,0,0,9.605163574,1.11517334,1,0,0,0,20,20,128,1,,,,,,,,
,,,,,,,,,,,,,FF,,,,,,,,0.98308,,,,,,,,,,,,,,,,,,,,,,60fcca515dbee0243a67c5d4,6103668583a9273083c856a8,2021-07-29_22h40.29.986,Simcolourproject_2stim_asymm_v5,2020.2.10,Linux x86_64,60,61025ae37ef11b136ea224fe,,,,,,,,,408,52.82385254,-33.22183228,1,0,0,response3disk,,5,14.80810547,4.381988525,1,0,0,rectangle,14.80810547,4.381988525,1,0,0,14.80810547,4.381988525,1,0,0,0,21,21,31,1,,,,,,,,
,,,,,,,,,,,,,FF,,,,,,,,1.154465,,,,,,,,,,,,,,,,,,,,,,60fcca515dbee0243a67c5d4,6103668583a9273083c856a8,2021-07-29_22h40.29.986,Simcolourproject_2stim_asymm_v5,2020.2.10,Linux x86_64,60,61025ae37ef11b136ea224fe,,,,,,,,,3985,40.1260376,57.92950439,1,0,0,response1disk,,7,9.778930664,-3.260253906,1,0,0,rectangle,9.778930664,-3.260253906,1,0,0,9.778930664,-3.260253906,1,0,0,0,22,22,112,1,,,,,,,,
,,,,,,,,,,,,,FF,,,,,,,,1.39967,,,,,,,,,,,,,,,,,,,,,,60fcca515dbee0243a67c5d4,6103668583a9273083c856a8,2021-07-29_22h40.29.986,Simcolourproject_2stim_asymm_v5,2020.2.10,Linux x86_64,60,61025ae37ef11b136ea224fe,,,,,,,,,3675,-19.2043457,-76.7649231,1,0,0,response5disk,,3,-8.673522949,3.802124023,1,0,0,rectangle,-8.673522949,3.802124023,1,0,0,-8.673522949,3.802124023,1,0,0,0,23,23,49,1,,,,,,,,
,,,,,,,,,,,,,FF,,,,,,,,1.232895,,,,,,,,,,,,,,,,,,,,,,60fcca515dbee0243a67c5d4,6103668583a9273083c856a8,2021-07-29_22h40.29.986,Simcolourproject_2stim_asymm_v5,2020.2.10,Linux x86_64,60,61025ae37ef11b136ea224fe,,,,,,,,,54,72.97296143,-38.14379883,1,0,0,response3disk,,5,12.06335449,0.856384277,1,0,0,rectangle,12.06335449,0.856384277,1,0,0,12.06335449,0.856384277,1,0,0,0,24,24,132,1,,,,,,,,
,,,,,,,,,,,,,FF,,,,,,,,1.299775,,,,,,,,,,,,,,,,,,,,,,60fcca515dbee0243a67c5d4,6103668583a9273083c856a8,2021-07-29_22h40.29.986,Simcolourproject_2stim_asymm_v5,2020.2.10,Linux x86_64,60,61025ae37ef11b136ea224fe,,,,,,,,,3682,34.14904785,-75.98519897,1,0,0,response3disk,,4,7.345153809,-1.503326416,1,0,0,rectangle,7.345153809,-1.503326416,1,0,0,7.345153809,-1.503326416,1,0,0,0,25,25,110,1,,,,,,,,
,,,,,,,,,,,,,FF,,,,,,,,0.81685,,,,,,,,,,,,,,,,,,,,,,60fcca515dbee0243a67c5d4,6103668583a9273083c856a8,2021-07-29_22h40.29.986,Simcolourproject_2stim_asymm_v5,2020.2.10,Linux x86_64,60,61025ae37ef11b136ea224fe,,,,,,,,,2692,71.41369629,38.6388855,1,0,0,response1disk,,6,10.93609619,9.983520508,1,0,0,rectangle,10.93609619,9.983520508,1,0,0,10.93609619,9.983520508,1,0,0,0,26,26,36,1,,,,,,,,
,,,,,,,,,,,,,FF,,,,,,,,1.948875,,,,,,,,,,,,,,,,,,,,,,60fcca515dbee0243a67c5d4,6103668583a9273083c856a8,2021-07-29_22h40.29.986,Simcolourproject_2stim_asymm_v5,2020.2.10,Linux x86_64,60,61025ae37ef11b136ea224fe,,,,,,,,,2817,66.70892334,-31.15698242,1,0,0,response3disk,,5,9.02722168,-3.588165283,1,0,0,rectangle,9.02722168,-3.588165283,1,0,0,9.02722168,-3.588165283,1,0,0,0,27,27,17,1,,,,,,,,
,,,,,,,,,,,,,FF,,,,,,,,1.43323,,,,,,,,,,,,,,,,,,,,,,60fcca515dbee0243a67c5d4,6103668583a9273083c856a8,2021-07-29_22h40.29.986,Simcolourproject_2stim_asymm_v5,2020.2.10,Linux x86_64,60,61025ae37ef11b136ea224fe,,,,,,,,,1058,-46.87774658,-60.4453125,1,0,0,response5disk,,3,-10.2677002,-7.254760742,1,0,0,rectangle,-10.2677002,-7.254760742,1,0,0,-10.2677002,-7.254760742,1,0,0,0,28,28,61,1,,,,,,,,
,,,,,,,,,,,,,FF,,,,,,,,1.066395,,,,,,,,,,,,,,,,,,,,,,60fcca515dbee0243a67c5d4,6103668583a9273083c856a8,2021-07-29_22h40.29.986,Simcolourproject_2stim_asymm_v5,2020.2.10,Linux x86_64,60,61025ae37ef11b136ea224fe,,,,,,,,,1332,67.20056152,43.2868042,1,0,0,response1disk,,6,-6.703613281,-3.816558838,1,0,0,rectangle,-6.703613281,-3.816558838,1,0,0,-6.703613281,-3.816558838,1,0,0,0,29,29,158,1,,,,,,,,
,,,,,,,,,,,,,FF,,,,,,,,1.58264,,,,,,,,,,,,,,,,,,,,,,60fcca515dbee0243a67c5d4,6103668583a9273083c856a8,2021-07-29_22h40.29.986,Simcolourproject_2stim_asymm_v5,2020.2.10,Linux x86_64,60,61025ae37ef11b136ea224fe,,,,,,,,,3545,43.48120117,-54.98297119,1,0,0,response3disk,,4,9.660644531,7.594207764,1,0,0,rectangle,9.660644531,7.594207764,1,0,0,9.660644531,7.594207764,1,0,0,0,30,30,95,1,,,,,,,,
,,,,,,,,,,,,,FF,,,,,,,,2.099405,,,,,,,,,,,,,,,,,,,,,,60fcca515dbee0243a67c5d4,6103668583a9273083c856a8,2021-07-29_22h40.29.986,Simcolourproject_2stim_asymm_v5,2020.2.10,Linux x86_64,60,61025ae37ef11b136ea224fe,,,,,,,,,2110,51.86553955,-41.03436279,1,0,0,response3disk,,5,3.531738281,-8.518218994,1,0,0,rectangle,3.531738281,-8.518218994,1,0,0,3.531738281,-8.518218994,1,0,0,0,31,31,85,1,,,,,,,,
,,,,,,,,,,,,,FF,,,,,,,,1.616135,,,,,,,,,,,,,,,,,,,,,,60fcca515dbee0243a67c5d4,6103668583a9273083c856a8,2021-07-29_22h40.29.986,Simcolourproject_2stim_asymm_v5,2020.2.10,Linux x86_64,60,61025ae37ef11b136ea224fe,,,,,,,,,3830,32.980896,-55.40188599,1,0,0,response3disk,,4,10.32659912,-7.792175293,1,0,0,rectangle,10.32659912,-7.792175293,1,0,0,10.32659912,-7.792175293,1,0,0,0,32,32,81,1,,,,,,,,
,,,,,,,,,,,,,FF,,,,,,,,1.332875,,,,,,,,,,,,,,,,,,,,,,60fcca515dbee0243a67c5d4,6103668583a9273083c856a8,2021-07-29_22h40.29.986,Simcolourproject_2stim_asymm_v5,2020.2.10,Linux x86_64,60,61025ae37ef11b136ea224fe,,,,,,,,,1408,46.91210938,25.97052002,1,0,0,response1disk,,6,1.983032227,-3.468353271,1,0,0,rectangle,1.983032227,-3.468353271,1,0,0,1.983032227,-3.468353271,1,0,0,0,33,33,47,1,,,,,,,,
,,,,,,,,,,,,,FF,,,,,,,,0.96652,,,,,,,,,,,,,,,,,,,,,,60fcca515dbee0243a67c5d4,6103668583a9273083c856a8,2021-07-29_22h40.29.986,Simcolourproject_2stim_asymm_v5,2020.2.10,Linux x86_64,60,61025ae37ef11b136ea224fe,,,,,,,,,3220,54.96722412,-34.07107544,1,0,0,response3disk,,5,8.619689941,-1.971343994,1,0,0,rectangle,8.619689941,-1.971343994,1,0,0,8.619689941,-1.971343994,1,0,0,0,34,34,59,1,,,,,,,,
,,,,,,,,,,,,,FF,,,,,,,,2.76821,,,,,,,,,,,,,,,,,,,,,,60fcca515dbee0243a67c5d4,6103668583a9273083c856a8,2021-07-29_22h40.29.986,Simcolourproject_2stim_asymm_v5,2020.2.10,Linux x86_64,60,61025ae37ef11b136ea224fe,,,,,,,,,4351,30.86065674,-72.94082642,1,0,0,response3disk,,4,14.55126953,-5.152984619,1,0,0,rectangle,14.55126953,-5.152984619,1,0,0,14.55126953,-5.152984619,1,0,0,0,35,35,40,1,,,,,,,,
,,,,,,,,,,,,,FF,,,,,,,,1.383335,,,,,,,,,,,,,,,,,,,,,,60fcca515dbee0243a67c5d4,6103668583a9273083c856a8,2021-07-29_22h40.29.986,Simcolourproject_2stim_asymm_v5,2020.2.10,Linux x86_64,60,61025ae37ef11b136ea224fe,,,,,,,,,636,59.92687988,-47.49423218,1,0,0,response3disk,,5,-2.731079102,-1.034637451,1,0,0,rectangle,-2.731079102,-1.034637451,1,0,0,-2.731079102,-1.034637451,1,0,0,0,36,36,124,1,,,,,,,,
,,,,,,,,,,,,,FF,,,,,,,,0.782935,,,,,,,,,,,,,,,,,,,,,,60fcca515dbee0243a67c5d4,6103668583a9273083c856a8,2021-07-29_22h40.29.986,Simcolourproject_2stim_asymm_v5,2020.2.10,Linux x86_64,60,61025ae37ef11b136ea224fe,,,,,,,,,952,61.53973389,-28.26702881,1,0,0,response3disk,,5,3.152404785,5.793609619,1,0,0,rectangle,3.152404785,5.793609619,1,0,0,3.152404785,5.793609619,1,0,0,0,37,37,82,1,,,,,,,,
,,,,,,,,,,,,,FF,,,,,,,,3.582015,,,,,,,,,,,,,,,,,,,,,,60fcca515dbee0243a67c5d4,6103668583a9273083c856a8,2021-07-29_22h40.29.986,Simcolourproject_2stim_asymm_v5,2020.2.10,Linux x86_64,60,61025ae37ef11b136ea224fe,,,,,,,,,2315,35.72686768,-42.13137817,1,0,0,response3disk,,4,20.4095459,3.402130127,1,0,0,rectangle,20.4095459,3.402130127,1,0,0,20.4095459,3.402130127,1,0,0,0,38,38,120,1,,,,,,,,
,,,,,,,,,,,,,FF,,,,,,,,1.132625,,,,,,,,,,,,,,,,,,,,,,60fcca515dbee0243a67c5d4,6103668583a9273083c856a8,2021-07-29_22h40.29.986,Simcolourproject_2stim_asymm_v5,2020.2.10,Linux x86_64,60,61025ae37ef11b136ea224fe,,,,,,,,,1275,40.85150146,-50.87277222,1,0,0,response3disk,,4,14.9206543,-3.858825684,1,0,0,rectangle,14.9206543,-3.858825684,1,0,0,14.9206543,-3.858825684,1,0,0,0,39,39,91,1,,,,,,,,
,,,,,,,,,,,,,FF,,,,,,,,1.048945,,,,,,,,,,,,,,,,,,,,,,60fcca515dbee0243a67c5d4,6103668583a9273083c856a8,2021-07-29_22h40.29.986,Simcolourproject_2stim_asymm_v5,2020.2.10,Linux x86_64,60,61025ae37ef11b136ea224fe,,,,,,,,,2277,60.15887451,-40.02859497,1,0,0,response3disk,,5,22.49133301,-10.05255127,1,0,0,rectangle,-38.93438721,80.12234497,1,0,0,10.11920166,-7.249908447,1,0,0,0,40,40,80,1,,response7disk_3,TRUE,0,0,"[84,217,264,149,15,97,130,105,215,7,169,41,128,315,240,231,44,258,159,49]",1.649435,rectangle
,,,,,,,,,,,,,FF,,,,,,,,1.065235,,,,,,,,,,,,,,,,,,,,,,60fcca515dbee0243a67c5d4,6103668583a9273083c856a8,2021-07-29_22h40.29.986,Simcolourproject_2stim_asymm_v5,2020.2.10,Linux x86_64,60,61025ae37ef11b136ea224fe,,,,,,,,,3903,44.93365479,-32.01275635,1,0,0,response3disk,,5,21.19769287,-7.870697021,1,0,0,rectangle,21.19769287,-7.870697021,1,0,0,21.19769287,-7.870697021,1,0,0,0,41,41,6,1,,,,,,,,
,,,,,,,,,,,,,FF,,,,,,,,0.800115,,,,,,,,,,,,,,,,,,,,,,60fcca515dbee0243a67c5d4,6103668583a9273083c856a8,2021-07-29_22h40.29.986,Simcolourproject_2stim_asymm_v5,2020.2.10,Linux x86_64,60,61025ae37ef11b136ea224fe,,,,,,,,,1357,42.91418457,-29.62756348,1,0,0,response3disk,,5,-3.850219727,-0.337768555,1,0,0,rectangle,-3.850219727,-0.337768555,1,0,0,-3.850219727,-0.337768555,1,0,0,0,42,42,118,1,,,,,,,,
,,,,,,,,,,,,,FF,,,,,,,,0.80002,,,,,,,,,,,,,,,,,,,,,,60fcca515dbee0243a67c5d4,6103668583a9273083c856a8,2021-07-29_22h40.29.986,Simcolourproject_2stim_asymm_v5,2020.2.10,Linux x86_64,60,61025ae37ef11b136ea224fe,,,,,,,,,2459,42.17297363,-32.23590088,1,0,0,response3disk,,5,16.85900879,-1.889068604,1,0,0,rectangle,-32.53833008,56.37417603,1,0,0,-6.592590332,0.517425537,1,0,0,0,43,43,42,1,,response7disk_3,TRUE,0,0,"[84,217,264,149,15,97,130,105,215,7,169,41,128,315,240,231,44,258,159,49]",1.46683,rectangle
,,,,,,,,,,,,,FF,,,,,,,,1.43311,,,,,,,,,,,,,,,,,,,,,,60fcca515dbee0243a67c5d4,6103668583a9273083c856a8,2021-07-29_22h40.29.986,Simcolourproject_2stim_asymm_v5,2020.2.10,Linux x86_64,60,61025ae37ef11b136ea224fe,,,,,,,,,1583,82.50067139,69.5333252,1,0,0,response1disk,,6,4.30480957,-0.424072266,1,0,0,rectangle,4.30480957,-0.424072266,1,0,0,4.30480957,-0.424072266,1,0,0,0,44,44,33,1,,,,,,,,
,,,,,,,,,,,,,FF,,,,,,,,0.766395,,,,,,,,,,,,,,,,,,,,,,60fcca515dbee0243a67c5d4,6103668583a9273083c856a8,2021-07-29_22h40.29.986,Simcolourproject_2stim_asymm_v5,2020.2.10,Linux x86_64,60,61025ae37ef11b136ea224fe,,,,,,,,,2497,23.07250977,40.52700806,1,0,0,response1disk,,7,11.10229492,7.226531982,1,0,0,rectangle,11.10229492,7.226531982,1,0,0,11.10229492,7.226531982,1,0,0,0,45,45,71,1,,,,,,,,
,,,,,,,,,,,,,FF,,,,,,,,1.166165,,,,,,,,,,,,,,,,,,,,,,60fcca515dbee0243a67c5d4,6103668583a9273083c856a8,2021-07-29_22h40.29.986,Simcolourproject_2stim_asymm_v5,2020.2.10,Linux x86_64,60,61025ae37ef11b136ea224fe,,,,,,,,,4141,-22.98553467,-52.19189453,1,0,0,response5disk,,3,8.84197998,-1.153411865,1,0,0,rectangle,8.84197998,-1.153411865,1,0,0,8.84197998,-1.153411865,1,0,0,0,46,46,34,1,,,,,,,,
,,,,,,,,,,,,,FF,,,,,,,,0.95002,,,,,,,,,,,,,,,,,,,,,,60fcca515dbee0243a67c5d4,6103668583a9273083c856a8,2021-07-29_22h40.29.986,Simcolourproject_2stim_asymm_v5,2020.2.10,Linux x86_64,60,61025ae37ef11b136ea224fe,,,,,,,,,1217,23.69445801,-44.54364014,1,0,0,response3disk,,4,9.550415039,-2.487335205,1,0,0,rectangle,9.550415039,-2.487335205,1,0,0,9.550415039,-2.487335205,1,0,0,0,47,47,114,1,,,,,,,,
,,,,,,,,,,,,,FF,,,,,,,,0.75018,,,,,,,,,,,,,,,,,,,,,,60fcca515dbee0243a67c5d4,6103668583a9273083c856a8,2021-07-29_22h40.29.986,Simcolourproject_2stim_asymm_v5,2020.2.10,Linux x86_64,60,61025ae37ef11b136ea224fe,,,,,,,,,2750,54.16729736,-25.1265564,1,0,0,response3disk,,5,18.95330811,-2.219299316,1,0,0,rectangle,-36.08679199,-107.8125,1,0,0,4.719238281,-6.648681641,1,0,0,0,48,48,109,1,,response5disk_3,TRUE,3,3,"[84,217,264,149,15,97,130,105,215,7,169,41,128,315,240,231,44,258,159,49]",1.665935,rectangle
,,,,,,,,,,,,,FF,,,,,,,,1.266635,,,,,,,,,,,,,,,,,,,,,,60fcca515dbee0243a67c5d4,6103668583a9273083c856a8,2021-07-29_22h40.29.986,Simcolourproject_2stim_asymm_v5,2020.2.10,Linux x86_64,60,61025ae37ef11b136ea224fe,,,,,,,,,3495,47.77624512,-35.71334839,1,0,0,response3disk,,5,18.86108398,-12.43713379,1,0,0,rectangle,18.86108398,-12.43713379,1,0,0,18.86108398,-12.43713379,1,0,0,0,49,49,147,1,,,,,,,,
,,,,,,,,,,,,,FF,,,,,,,,1.48416,,,,,,,,,,,,,,,,,,,,,,60fcca515dbee0243a67c5d4,6103668583a9273083c856a8,2021-07-29_22h40.29.986,Simcolourproject_2stim_asymm_v5,2020.2.10,Linux x86_64,60,61025ae37ef11b136ea224fe,,,,,,,,,45,43.49810791,20.6171875,1,0,0,response1disk,,6,-8.900085449,-7.793182373,1,0,0,rectangle,-8.900085449,-7.793182373,1,0,0,-8.900085449,-7.793182373,1,0,0,0,50,50,32,1,,,,,,,,
,,,,,,,,,,,,,FF,,,,,,,,1.04971,,,,,,,,,,,,,,,,,,,,,,60fcca515dbee0243a67c5d4,6103668583a9273083c856a8,2021-07-29_22h40.29.986,Simcolourproject_2stim_asymm_v5,2020.2.10,Linux x86_64,60,61025ae37ef11b136ea224fe,,,,,,,,,1676,31.45251465,-53.88058472,1,0,0,response3disk,,4,0.249694824,7.764007568,1,0,0,rectangle,0.249694824,7.764007568,1,0,0,0.249694824,7.764007568,1,0,0,0,51,51,119,1,,,,,,,,
,,,,,,,,,,,,,FF,,,,,,,,0.749535,,,,,,,,,,,,,,,,,,,,,,60fcca515dbee0243a67c5d4,6103668583a9273083c856a8,2021-07-29_22h40.29.986,Simcolourproject_2stim_asymm_v5,2020.2.10,Linux x86_64,60,61025ae37ef11b136ea224fe,,,,,,,,,2625,51.13787842,18.48425293,1,0,0,response1disk,,6,6.645690918,-0.138366699,1,0,0,rectangle,6.645690918,-0.138366699,1,0,0,6.645690918,-0.138366699,1,0,0,0,52,52,10,1,,,,,,,,
,,,,,,,,,,,,,FF,,,,,,,,1.149595,,,,,,,,,,,,,,,,,,,,,,60fcca515dbee0243a67c5d4,6103668583a9273083c856a8,2021-07-29_22h40.29.986,Simcolourproject_2stim_asymm_v5,2020.2.10,Linux x86_64,60,61025ae37ef11b136ea224fe,,,,,,,,,2219,-41.91986084,-70.49041748,1,0,0,response5disk,,3,-6.963928223,1.810302734,1,0,0,rectangle,-6.963928223,1.810302734,1,0,0,-6.963928223,1.810302734,1,0,0,0,53,53,1,1,,,,,,,,
,,,,,,,,,,,,,FF,,,,,,,,0.66651,,,,,,,,,,,,,,,,,,,,,,60fcca515dbee0243a67c5d4,6103668583a9273083c856a8,2021-07-29_22h40.29.986,Simcolourproject_2stim_asymm_v5,2020.2.10,Linux x86_64,60,61025ae37ef11b136ea224fe,,,,,,,,,2534,-25.22412109,-49.63031006,1,0,0,response5disk,,3,3.379089355,8.101806641,1,0,0,rectangle,3.379089355,8.101806641,1,0,0,3.379089355,8.101806641,1,0,0,0,54,54,26,1,,,,,,,,
,,,,,,,,,,,,,FF,,,,,,,,0.93248,,,,,,,,,,,,,,,,,,,,,,60fcca515dbee0243a67c5d4,6103668583a9273083c856a8,2021-07-29_22h40.29.986,Simcolourproject_2stim_asymm_v5,2020.2.10,Linux x86_64,60,61025ae37ef11b136ea224fe,,,,,,,,,320,62.33251953,-24.90133667,1,0,0,response3disk,,5,25.27832031,-5.094482422,1,0,0,rectangle,25.27832031,-5.094482422,1,0,0,25.27832031,-5.094482422,1,0,0,0,55,55,116,1,,,,,,,,
,,,,,,,,,,,,,FF,,,,,,,,2.115855,,,,,,,,,,,,,,,,,,,,,,60fcca515dbee0243a67c5d4,6103668583a9273083c856a8,2021-07-29_22h40.29.986,Simcolourproject_2stim_asymm_v5,2020.2.10,Linux x86_64,60,61025ae37ef11b136ea224fe,,,,,,,,,160,20.66577148,-51.21777344,1,0,0,response3disk,,4,-5.057556152,-5.445098877,1,0,0,rectangle,-5.057556152,-5.445098877,1,0,0,-5.057556152,-5.445098877,1,0,0,0,56,56,4,1,,,,,,,,
,,,,,,,,,,,,,FF,,,,,,,,0.799535,,,,,,,,,,,,,,,,,,,,,,60fcca515dbee0243a67c5d4,6103668583a9273083c856a8,2021-07-29_22h40.29.986,Simcolourproject_2stim_asymm_v5,2020.2.10,Linux x86_64,60,61025ae37ef11b136ea224fe,,,,,,,,,2485,39.07507324,-45.12484741,1,0,0,response3disk,,4,18.09570313,-0.760223389,1,0,0,rectangle,18.09570313,-0.760223389,1,0,0,18.09570313,-0.760223389,1,0,0,0,57,57,41,1,,,,,,,,
,,,,,,,,,,,,,FF,,,,,,,,0.899965,,,,,,,,,,,,,,,,,,,,,,60fcca515dbee0243a67c5d4,6103668583a9273083c856a8,2021-07-29_22h40.29.986,Simcolourproject_2stim_asymm_v5,2020.2.10,Linux x86_64,60,61025ae37ef11b136ea224fe,,,,,,,,,2449,49.74645996,18.70843506,1,0,0,response1disk,,6,16.5927124,2.18157959,1,0,0,rectangle,16.5927124,2.18157959,1,0,0,16.5927124,2.18157959,1,0,0,0,58,58,39,1,,,,,,,,
,,,,,,,,,,,,,FF,,,,,,,,1.26658,,,,,,,,,,,,,,,,,,,,,,60fcca515dbee0243a67c5d4,6103668583a9273083c856a8,2021-07-29_22h40.29.986,Simcolourproject_2stim_asymm_v5,2020.2.10,Linux x86_64,60,61025ae37ef11b136ea224fe,,,,,,,,,197,32.85516357,-51.81820679,1,0,0,response3disk,,4,8.343933105,-2.290863037,1,0,0,rectangle,8.343933105,-2.290863037,1,0,0,8.343933105,-2.290863037,1,0,0,0,59,59,24,1,,,,,,,,
,,,,,,,,,,,,,FF,,,,,,,,0.98315,,,,,,,,,,,,,,,,,,,,,,60fcca515dbee0243a67c5d4,6103668583a9273083c856a8,2021-07-29_22h40.29.986,Simcolourproject_2stim_asymm_v5,2020.2.10,Linux x86_64,60,61025ae37ef11b136ea224fe,,,,,,,,,1450,-25.84643555,-46.0451355,1,0,0,response5disk,,3,0.71484375,-6.807495117,1,0,0,rectangle,0.71484375,-6.807495117,1,0,0,0.71484375,-6.807495117,1,0,0,0,60,60,74,1,,,,,,,,
,,,,,,,,,,,,,FF,,,,,,,,3.449305,,,,,,,,,,,,,,,,,,,,,,60fcca515dbee0243a67c5d4,6103668583a9273083c856a8,2021-07-29_22h40.29.986,Simcolourproject_2stim_asymm_v5,2020.2.10,Linux x86_64,60,61025ae37ef11b136ea224fe,,,,,,,,,956,-22.07568359,-47.8460083,1,0,0,response5disk,,3,1.639831543,-5.792816162,1,0,0,rectangle,1.639831543,-5.792816162,1,0,0,1.639831543,-5.792816162,1,0,0,0,61,61,23,1,,,,,,,,
,,,,,,,,,,,,,FF,,,,,,,,0.85013,,,,,,,,,,,,,,,,,,,,,,60fcca515dbee0243a67c5d4,6103668583a9273083c856a8,2021-07-29_22h40.29.986,Simcolourproject_2stim_asymm_v5,2020.2.10,Linux x86_64,60,61025ae37ef11b136ea224fe,,,,,,,,,1100,23.1685791,-53.57418823,1,0,0,response3disk,,4,7.981933594,-6.650787354,1,0,0,rectangle,7.981933594,-6.650787354,1,0,0,7.981933594,-6.650787354,1,0,0,0,62,62,30,1,,,,,,,,
,,,,,,,,,,,,,FF,,,,,,,,1.249685,,,,,,,,,,,,,,,,,,,,,,60fcca515dbee0243a67c5d4,6103668583a9273083c856a8,2021-07-29_22h40.29.986,Simcolourproject_2stim_asymm_v5,2020.2.10,Linux x86_64,60,61025ae37ef11b136ea224fe,,,,,,,,,1679,104.1877441,32.72689819,1,0,0,response1disk,,6,6.41595459,-1.338989258,1,0,0,rectangle,6.41595459,-1.338989258,1,0,0,6.41595459,-1.338989258,1,0,0,0,63,63,69,1,,,,,,,,
,,,,,,,,,,,,,FF,,,,,,,,4.29879,,,,,,,,,,,,,,,,,,,,,,60fcca515dbee0243a67c5d4,6103668583a9273083c856a8,2021-07-29_22h40.29.986,Simcolourproject_2stim_asymm_v5,2020.2.10,Linux x86_64,60,61025ae37ef11b136ea224fe,,,,,,,,,3990,43.07293701,58.10754395,1,0,0,response1disk,,7,3.214111328,-10.57571411,1,0,0,rectangle,3.214111328,-10.57571411,1,0,0,3.214111328,-10.57571411,1,0,0,0,64,64,107,1,,,,,,,,
,,,,,,,,,,,,,FF,,,,,,,,1.782555,,,,,,,,,,,,,,,,,,,,,,60fcca515dbee0243a67c5d4,6103668583a9273083c856a8,2021-07-29_22h40.29.986,Simcolourproject_2stim_asymm_v5,2020.2.10,Linux x86_64,60,61025ae37ef11b136ea224fe,,,,,,,,,2362,-64.04840088,-36.94174194,1,0,0,response5disk,,2,17.65673828,11.50726318,1,0,0,rectangle,17.65673828,11.50726318,1,0,0,17.65673828,11.50726318,1,0,0,0,65,65,65,1,,,,,,,,
,,,,,,,,,,,,,FF,,,,,,,,1.65012,,,,,,,,,,,,,,,,,,,,,,60fcca515dbee0243a67c5d4,6103668583a9273083c856a8,2021-07-29_22h40.29.986,Simcolourproject_2stim_asymm_v5,2020.2.10,Linux x86_64,60,61025ae37ef11b136ea224fe,,,,,,,,,1916,30.93969727,-64.41537476,1,0,0,response3disk,,4,12.06915283,-3.002807617,1,0,0,rectangle,12.06915283,-3.002807617,1,0,0,12.06915283,-3.002807617,1,0,0,0,66,66,12,1,,,,,,,,
,,,,,,,,,,,,,FF,,,,,,,,0.93309,,,,,,,,,,,,,,,,,,,,,,60fcca515dbee0243a67c5d4,6103668583a9273083c856a8,2021-07-29_22h40.29.986,Simcolourproject_2stim_asymm_v5,2020.2.10,Linux x86_64,60,61025ae37ef11b136ea224fe,,,,,,,,,1739,70.3838501,57.93878174,1,0,0,response1disk,,6,11.39044189,-3.483001709,1,0,0,rectangle,11.39044189,-3.483001709,1,0,0,11.39044189,-3.483001709,1,0,0,0,67,67,98,1,,,,,,,,
,,,,,,,,,,,,,FF,,,,,,,,0.933255,,,,,,,,,,,,,,,,,,,,,,60fcca515dbee0243a67c5d4,6103668583a9273083c856a8,2021-07-29_22h40.29.986,Simcolourproject_2stim_asymm_v5,2020.2.10,Linux x86_64,60,61025ae37ef11b136ea224fe,,,,,,,,,3229,48.25061035,-27.2227478,1,0,0,response3disk,,5,28.7701416,-2.909759521,1,0,0,rectangle,28.7701416,-2.909759521,1,0,0,28.7701416,-2.909759521,1,0,0,0,68,68,27,1,,,,,,,,
,,,,,,,,,,,,,FF,,,,,,,,1.248855,,,,,,,,,,,,,,,,,,,,,,60fcca515dbee0243a67c5d4,6103668583a9273083c856a8,2021-07-29_22h40.29.986,Simcolourproject_2stim_asymm_v5,2020.2.10,Linux x86_64,60,61025ae37ef11b136ea224fe,,,,,,,,,2342,67.00030518,33.78289795,1,0,0,response1disk,,6,12.82958984,-5.199951172,1,0,0,rectangle,12.82958984,-5.199951172,1,0,0,12.82958984,-5.199951172,1,0,0,0,69,69,76,1,,,,,,,,
,,,,,,,,,,,,,FF,,,,,,,,1.05204,,,,,,,,,,,,,,,,,,,,,,60fcca515dbee0243a67c5d4,6103668583a9273083c856a8,2021-07-29_22h40.29.986,Simcolourproject_2stim_asymm_v5,2020.2.10,Linux x86_64,60,61025ae37ef11b136ea224fe,,,,,,,,,992,51.99938965,-34.95739746,1,0,0,response3disk,,5,15.12097168,-4.536468506,1,0,0,rectangle,15.12097168,-4.536468506,1,0,0,15.12097168,-4.536468506,1,0,0,0,70,70,136,1,,,,,,,,
,,,,,,,,,,,,,FF,,,,,,,,1.16676,,,,,,,,,,,,,,,,,,,,,,60fcca515dbee0243a67c5d4,6103668583a9273083c856a8,2021-07-29_22h40.29.986,Simcolourproject_2stim_asymm_v5,2020.2.10,Linux x86_64,60,61025ae37ef11b136ea224fe,,,,,,,,,1160,33.13702393,62.55282593,1,0,0,response1disk,,7,6.866943359,-2.390869141,1,0,0,rectangle,6.866943359,-2.390869141,1,0,0,6.866943359,-2.390869141,1,0,0,0,71,71,117,1,,,,,,,,
,,,,,,,,,,,,,FF,,,,,,,,1.766095,,,,,,,,,,,,,,,,,,,,,,60fcca515dbee0243a67c5d4,6103668583a9273083c856a8,2021-07-29_22h40.29.986,Simcolourproject_2stim_asymm_v5,2020.2.10,Linux x86_64,60,61025ae37ef11b136ea224fe,,,,,,,,,3413,69.66986084,-31.35464478,1,0,0,response3disk,,5,3.37121582,4.246765137,1,0,0,rectangle,3.37121582,4.246765137,1,0,0,3.37121582,4.246765137,1,0,0,0,72,72,46,1,,,,,,,,
,,,,,,,,,,,,,FF,,,,,,,,0.683065,,,,,,,,,,,,,,,,,,,,,,60fcca515dbee0243a67c5d4,6103668583a9273083c856a8,2021-07-29_22h40.29.986,Simcolourproject_2stim_asymm_v5,2020.2.10,Linux x86_64,60,61025ae37ef11b136ea224fe,,,,,,,,,2060,64.29846191,-31.22015381,1,0,0,response3disk,,5,26.71221924,-6.292938232,1,0,0,rectangle,26.71221924,-6.292938232,1,0,0,26.71221924,-6.292938232,1,0,0,0,73,73,77,1,,,,,,,,
,,,,,,,,,,,,,FF,,,,,,,,0.65,,,,,,,,,,,,,,,,,,,,,,60fcca515dbee0243a67c5d4,6103668583a9273083c856a8,2021-07-29_22h40.29.986,Simcolourproject_2stim_asymm_v5,2020.2.10,Linux x86_64,60,61025ae37ef11b136ea224fe,,,,,,,,,1250,38.44134521,-21.27822876,1,0,0,response3disk,,5,14.8795166,-5.650238037,1,0,0,rectangle,14.8795166,-5.650238037,1,0,0,14.8795166,-5.650238037,1,0,0,0,74,74,103,1,,,,,,,,
,,,,,,,,,,,,,FF,,,,,,,,0.832785,,,,,,,,,,,,,,,,,,,,,,60fcca515dbee0243a67c5d4,6103668583a9273083c856a8,2021-07-29_22h40.29.986,Simcolourproject_2stim_asymm_v5,2020.2.10,Linux x86_64,60,61025ae37ef11b136ea224fe,,,,,,,,,3659,36.06750488,-26.69384766,1,0,0,response3disk,,5,9.548034668,-6.545501709,1,0,0,rectangle,9.548034668,-6.545501709,1,0,0,9.548034668,-6.545501709,1,0,0,0,75,75,84,1,,,,,,,,
,,,,,,,,,,,,,FF,,,,,,,,1.082665,,,,,,,,,,,,,,,,,,,,,,60fcca515dbee0243a67c5d4,6103668583a9273083c856a8,2021-07-29_22h40.29.986,Simcolourproject_2stim_asymm_v5,2020.2.10,Linux x86_64,60,61025ae37ef11b136ea224fe,,,,,,,,,3942,28.44641113,-75.44927979,1,0,0,response3disk,,4,11.78845215,0.067382813,1,0,0,rectangle,11.78845215,0.067382813,1,0,0,11.78845215,0.067382813,1,0,0,0,76,76,94,1,,,,,,,,
,,,,,,,,,,,,,FF,,,,,,,,0.983045,,,,,,,,,,,,,,,,,,,,,,60fcca515dbee0243a67c5d4,6103668583a9273083c856a8,2021-07-29_22h40.29.986,Simcolourproject_2stim_asymm_v5,2020.2.10,Linux x86_64,60,61025ae37ef11b136ea224fe,,,,,,,,,4329,56.81890869,-39.87994385,1,0,0,response3disk,,5,7.735290527,-4.319824219,1,0,0,rectangle,7.735290527,-4.319824219,1,0,0,7.735290527,-4.319824219,1,0,0,0,77,77,89,1,,,,,,,,
,,,,,,,,,,,,,FF,,,,,,,,1.35004,,,,,,,,,,,,,,,,,,,,,,60fcca515dbee0243a67c5d4,6103668583a9273083c856a8,2021-07-29_22h40.29.986,Simcolourproject_2stim_asymm_v5,2020.2.10,Linux x86_64,60,61025ae37ef11b136ea224fe,,,,,,,,,447,34.3458252,-54.81225586,1,0,0,response3disk,,4,12.81524658,-2.1043396,1,0,0,rectangle,12.81524658,-2.1043396,1,0,0,12.81524658,-2.1043396,1,0,0,0,78,78,20,1,,,,,,,,
,,,,,,,,,,,,,FF,,,,,,,,1.09969,,,,,,,,,,,,,,,,,,,,,,60fcca515dbee0243a67c5d4,6103668583a9273083c856a8,2021-07-29_22h40.29.986,Simcolourproject_2stim_asymm_v5,2020.2.10,Linux x86_64,60,61025ae37ef11b136ea224fe,,,,,,,,,3469,-44.07940674,-90.14276123,1,0,0,response5disk,,3,1.785766602,-6.613891602,1,0,0,rectangle,1.785766602,-6.613891602,1,0,0,1.785766602,-6.613891602,1,0,0,0,79,79,123,1,,,,,,,,
,,,,,,,,,,,,,FF,,,,,,,,1.74989,,,,,,,,,,,,,,,,,,,,,,60fcca515dbee0243a67c5d4,6103668583a9273083c856a8,2021-07-29_22h40.29.986,Simcolourproject_2stim_asymm_v5,2020.2.10,Linux x86_64,60,61025ae37ef11b136ea224fe,,,,,,,,,425,81.77984619,-56.06576538,1,0,0,response3disk,,5,22.02398682,-7.65637207,1,0,0,rectangle,22.02398682,-7.65637207,1,0,0,22.02398682,-7.65637207,1,0,0,0,80,80,58,1,,,,,,,,
,,,,,,,,,,,,,FF,,,,,,,,2.715905,,,,,,,,,,,,,,,,,,,,,,60fcca515dbee0243a67c5d4,6103668583a9273083c856a8,2021-07-29_22h40.29.986,Simcolourproject_2stim_asymm_v5,2020.2.10,Linux x86_64,60,61025ae37ef11b136ea224fe,,,,,,,,,121,53.46881104,18.33996582,1,0,0,response1disk,,6,17.36035156,2.734985352,1,0,0,rectangle,17.36035156,2.734985352,1,0,0,17.36035156,2.734985352,1,0,0,0,81,81,97,1,,,,,,,,
,,,,,,,,,,,,,FF,,,,,,,,1.099695,,,,,,,,,,,,,,,,,,,,,,60fcca515dbee0243a67c5d4,6103668583a9273083c856a8,2021-07-29_22h40.29.986,Simcolourproject_2stim_asymm_v5,2020.2.10,Linux x86_64,60,61025ae37ef11b136ea224fe,,,,,,,,,4037,31.36706543,60.14251709,1,0,0,response1disk,,7,5.56628418,2.850982666,1,0,0,rectangle,5.56628418,2.850982666,1,0,0,5.56628418,2.850982666,1,0,0,0,82,82,48,1,,,,,,,,
,,,,,,,,,,,,,FF,,,,,,,,1.81495,,,,,,,,,,,,,,,,,,,,,,60fcca515dbee0243a67c5d4,6103668583a9273083c856a8,2021-07-29_22h40.29.986,Simcolourproject_2stim_asymm_v5,2020.2.10,Linux x86_64,60,61025ae37ef11b136ea224fe,,,,,,,,,4358,30.13018799,-47.10083008,1,0,0,response3disk,,4,7.22467041,3.344085693,1,0,0,rectangle,40.99194336,-79.59533691,1,0,0,6.889709473,-8.644470215,1,0,0,0,83,83,73,1,,response3disk_3,TRUE,4,4,"[84,217,264,149,15,97,130,105,215,7,169,41,128,315,240,231,44,258,159,49]",1.565275,rectangle
,,,,,,,,,,,,,FF,,,,,,,,1.086885,,,,,,,,,,,,,,,,,,,,,,60fcca515dbee0243a67c5d4,6103668583a9273083c856a8,2021-07-29_22h40.29.986,Simcolourproject_2stim_asymm_v5,2020.2.10,Linux x86_64,60,61025ae37ef11b136ea224fe,,,,,,,,,1061,43.08825684,-28.45278931,1,0,0,response3disk,,5,10.06829834,5.801544189,1,0,0,rectangle,10.06829834,5.801544189,1,0,0,10.06829834,5.801544189,1,0,0,0,84,84,50,1,,,,,,,,
,,,,,,,,,,,,,FF,,,,,,,,1.13449,,,,,,,,,,,,,,,,,,,,,,60fcca515dbee0243a67c5d4,6103668583a9273083c856a8,2021-07-29_22h40.29.986,Simcolourproject_2stim_asymm_v5,2020.2.10,Linux x86_64,60,61025ae37ef11b136ea224fe,,,,,,,,,1418,42.24761963,26.19567871,1,0,0,response1disk,,6,20.06689453,8.213500977,1,0,0,rectangle,20.06689453,8.213500977,1,0,0,20.06689453,8.213500977,1,0,0,0,85,85,154,1,,,,,,,,
,,,,,,,,,,,,,FF,,,,,,,,1.199995,,,,,,,,,,,,,,,,,,,,,,60fcca515dbee0243a67c5d4,6103668583a9273083c856a8,2021-07-29_22h40.29.986,Simcolourproject_2stim_asymm_v5,2020.2.10,Linux x86_64,60,61025ae37ef11b136ea224fe,,,,,,,,,1478,26.98547363,40.93276978,1,0,0,response1disk,,7,10.13513184,1.218261719,1,0,0,rectangle,10.13513184,1.218261719,1,0,0,10.13513184,1.218261719,1,0,0,0,86,86,0,1,,,,,,,,
,,,,,,,,,,,,,FF,,,,,,,,0.932515,,,,,,,,,,,,,,,,,,,,,,60fcca515dbee0243a67c5d4,6103668583a9273083c856a8,2021-07-29_22h40.29.986,Simcolourproject_2stim_asymm_v5,2020.2.10,Linux x86_64,60,61025ae37ef11b136ea224fe,,,,,,,,,1319,43.33520508,-21.91958618,1,0,0,response3disk,,5,14.6652832,-1.354248047,1,0,0,rectangle,14.6652832,-1.354248047,1,0,0,14.6652832,-1.354248047,1,0,0,0,87,87,121,1,,,,,,,,
,,,,,,,,,,,,,FF,,,,,,,,1.333,,,,,,,,,,,,,,,,,,,,,,60fcca515dbee0243a67c5d4,6103668583a9273083c856a8,2021-07-29_22h40.29.986,Simcolourproject_2stim_asymm_v5,2020.2.10,Linux x86_64,60,61025ae37ef11b136ea224fe,,,,,,,,,108,56.56207275,-27.90631104,1,0,0,response3disk,,5,15.01715088,5.640411377,1,0,0,rectangle,15.01715088,5.640411377,1,0,0,15.01715088,5.640411377,1,0,0,0,88,88,16,1,,,,,,,,
,,,,,,,,,,,,,FF,,,,,,,,0.800275,,,,,,,,,,,,,,,,,,,,,,60fcca515dbee0243a67c5d4,6103668583a9273083c856a8,2021-07-29_22h40.29.986,Simcolourproject_2stim_asymm_v5,2020.2.10,Linux x86_64,60,61025ae37ef11b136ea224fe,,,,,,,,,2698,113.956604,41.93951416,1,0,0,response1disk,,6,14.45574951,-3.391906738,1,0,0,rectangle,14.45574951,-3.391906738,1,0,0,14.45574951,-3.391906738,1,0,0,0,89,89,60,1,,,,,,,,
,,,,,,,,,,,,,FF,,,,,,,,0.766605,,,,,,,,,,,,,,,,,,,,,,60fcca515dbee0243a67c5d4,6103668583a9273083c856a8,2021-07-29_22h40.29.986,Simcolourproject_2stim_asymm_v5,2020.2.10,Linux x86_64,60,61025ae37ef11b136ea224fe,,,,,,,,,1761,58.6126709,-29.965271,1,0,0,response3disk,,5,10.28845215,-0.639251709,1,0,0,rectangle,10.28845215,-0.639251709,1,0,0,10.28845215,-0.639251709,1,0,0,0,90,90,3,1,,,,,,,,
,,,,,,,,,,,,,FF,,,,,,,,0.83331,,,,,,,,,,,,,,,,,,,,,,60fcca515dbee0243a67c5d4,6103668583a9273083c856a8,2021-07-29_22h40.29.986,Simcolourproject_2stim_asymm_v5,2020.2.10,Linux x86_64,60,61025ae37ef11b136ea224fe,,,,,,,,,3766,24.67047119,48.48840332,1,0,0,response1disk,,7,8.580810547,14.54733276,1,0,0,rectangle,8.580810547,14.54733276,1,0,0,8.580810547,14.54733276,1,0,0,0,91,91,131,1,,,,,,,,
,,,,,,,,,,,,,FF,,,,,,,,0.883265,,,,,,,,,,,,,,,,,,,,,,60fcca515dbee0243a67c5d4,6103668583a9273083c856a8,2021-07-29_22h40.29.986,Simcolourproject_2stim_asymm_v5,2020.2.10,Linux x86_64,60,61025ae37ef11b136ea224fe,,,,,,,,,2501,59.3291626,20.54751587,1,0,0,response1disk,,6,26.61297607,0.072143555,1,0,0,rectangle,26.61297607,0.072143555,1,0,0,26.61297607,0.072143555,1,0,0,0,92,92,134,1,,,,,,,,
,,,,,,,,,,,,,FF,,,,,,,,0.849625,,,,,,,,,,,,,,,,,,,,,,60fcca515dbee0243a67c5d4,6103668583a9273083c856a8,2021-07-29_22h40.29.986,Simcolourproject_2stim_asymm_v5,2020.2.10,Linux x86_64,60,61025ae37ef11b136ea224fe,,,,,,,,,2426,87.74237061,-62.79492188,1,0,0,response3disk,,5,4.349365234,4.864776611,1,0,0,rectangle,4.349365234,4.864776611,1,0,0,4.349365234,4.864776611,1,0,0,0,93,93,2,1,,,,,,,,
,,,,,,,,,,,,,FF,,,,,,,,1.349815,,,,,,,,,,,,,,,,,,,,,,60fcca515dbee0243a67c5d4,6103668583a9273083c856a8,2021-07-29_22h40.29.986,Simcolourproject_2stim_asymm_v5,2020.2.10,Linux x86_64,60,61025ae37ef11b136ea224fe,,,,,,,,,3651,43.58850098,73.78729248,1,0,0,response1disk,,7,-2.44519043,6.478393555,1,0,0,rectangle,-2.44519043,6.478393555,1,0,0,-2.44519043,6.478393555,1,0,0,0,94,94,55,1,,,,,,,,
,,,,,,,,,,,,,FF,,,,,,,,0.865615,,,,,,,,,,,,,,,,,,,,,,60fcca515dbee0243a67c5d4,6103668583a9273083c856a8,2021-07-29_22h40.29.986,Simcolourproject_2stim_asymm_v5,2020.2.10,Linux x86_64,60,61025ae37ef11b136ea224fe,,,,,,,,,782,56.90106201,31.70761108,1,0,0,response1disk,,6,8.060852051,5.533630371,1,0,0,rectangle,8.060852051,5.533630371,1,0,0,8.060852051,5.533630371,1,0,0,0,95,95,129,1,,,,,,,,
,,,,,,,,,,,,,FF,,,,,,,,1.083575,,,,,,,,,,,,,,,,,,,,,,60fcca515dbee0243a67c5d4,6103668583a9273083c856a8,2021-07-29_22h40.29.986,Simcolourproject_2stim_asymm_v5,2020.2.10,Linux x86_64,60,61025ae37ef11b136ea224fe,,,,,,,,,3520,56.09100342,-33.52490234,1,0,0,response3disk,,5,10.27209473,-3.86239624,1,0,0,rectangle,84.60101318,-54.9291687,1,0,0,-2.062133789,11.6708374,1,0,0,0,96,96,156,1,,response3disk_3,TRUE,5,5,"[84,217,264,149,15,97,130,105,215,7,169,41,128,315,240,231,44,258,159,49]",2.11638,rectangle
,,,,,,,,,,,,,FF,,,,,,,,2.049025,,,,,,,,,,,,,,,,,,,,,,60fcca515dbee0243a67c5d4,6103668583a9273083c856a8,2021-07-29_22h40.29.986,Simcolourproject_2stim_asymm_v5,2020.2.10,Linux x86_64,60,61025ae37ef11b136ea224fe,,,,,,,,,4369,-30.46264648,63.7232666,1,0,0,response7disk,,0,4.674804688,8.189575195,1,0,0,rectangle,4.674804688,8.189575195,1,0,0,4.674804688,8.189575195,1,0,0,0,97,97,143,1,,,,,,,,
,,,,,,,,,,,,,FF,,,,,,,,1.149975,,,,,,,,,,,,,,,,,,,,,,60fcca515dbee0243a67c5d4,6103668583a9273083c856a8,2021-07-29_22h40.29.986,Simcolourproject_2stim_asymm_v5,2020.2.10,Linux x86_64,60,61025ae37ef11b136ea224fe,,,,,,,,,2103,25.93054199,-26.73016357,1,0,0,response3disk,,4,14.25585938,-4.965423584,1,0,0,rectangle,14.25585938,-4.965423584,1,0,0,14.25585938,-4.965423584,1,0,0,0,98,98,135,1,,,,,,,,
,,,,,,,,,,,,,FF,,,,,,,,1.532375,,,,,,,,,,,,,,,,,,,,,,60fcca515dbee0243a67c5d4,6103668583a9273083c856a8,2021-07-29_22h40.29.986,Simcolourproject_2stim_asymm_v5,2020.2.10,Linux x86_64,60,61025ae37ef11b136ea224fe,,,,,,,,,500,54.95367432,23.25616455,1,0,0,response1disk,,6,11.10577393,-5.131622314,1,0,0,rectangle,11.10577393,-5.131622314,1,0,0,11.10577393,-5.131622314,1,0,0,0,99,99,8,1,,,,,,,,
,,,,,,,,,,,,,FF,,,,,,,,1.433025,,,,,,,,,,,,,,,,,,,,,,60fcca515dbee0243a67c5d4,6103668583a9273083c856a8,2021-07-29_22h40.29.986,Simcolourproject_2stim_asymm_v5,2020.2.10,Linux x86_64,60,61025ae37ef11b136ea224fe,,,,,,,,,967,26.64971924,69.13876343,1,0,0,response1disk,,7,7.380126953,-10.14950562,1,0,0,rectangle,7.380126953,-10.14950562,1,0,0,7.380126953,-10.14950562,1,0,0,0,100,100,148,1,,,,,,,,
,,,,,,,,,,,,,FF,,,,,,,,3.18259,,,,,,,,,,,,,,,,,,,,,,60fcca515dbee0243a67c5d4,6103668583a9273083c856a8,2021-07-29_22h40.29.986,Simcolourproject_2stim_asymm_v5,2020.2.10,Linux x86_64,60,61025ae37ef11b136ea224fe,,,,,,,,,1257,45.13989258,-29.04138184,1,0,0,response3disk,,5,10.89660645,-0.010742188,1,0,0,rectangle,10.89660645,-0.010742188,1,0,0,10.89660645,-0.010742188,1,0,0,0,101,101,88,1,,,,,,,,
,,,,,,,,,,,,,FF,,,,,,,,1.199745,,,,,,,,,,,,,,,,,,,,,,60fcca515dbee0243a67c5d4,6103668583a9273083c856a8,2021-07-29_22h40.29.986,Simcolourproject_2stim_asymm_v5,2020.2.10,Linux x86_64,60,61025ae37ef11b136ea224fe,,,,,,,,,2196,34.73724365,53.10238647,1,0,0,response1disk,,7,14.95098877,9.566680908,1,0,0,rectangle,14.95098877,9.566680908,1,0,0,14.95098877,9.566680908,1,0,0,0,102,102,66,1,,,,,,,,
,,,,,,,,,,,,,FF,,,,,,,,1.01614,,,,,,,,,,,,,,,,,,,,,,60fcca515dbee0243a67c5d4,6103668583a9273083c856a8,2021-07-29_22h40.29.986,Simcolourproject_2stim_asymm_v5,2020.2.10,Linux x86_64,60,61025ae37ef11b136ea224fe,,,,,,,,,554,60.82446289,27.03448486,1,0,0,response1disk,,6,27.89593506,4.441589355,1,0,0,rectangle,27.89593506,4.441589355,1,0,0,27.89593506,4.441589355,1,0,0,0,103,103,155,1,,,,,,,,
,,,,,,,,,,,,,FF,,,,,,,,0.96646,,,,,,,,,,,,,,,,,,,,,,60fcca515dbee0243a67c5d4,6103668583a9273083c856a8,2021-07-29_22h40.29.986,Simcolourproject_2stim_asymm_v5,2020.2.10,Linux x86_64,60,61025ae37ef11b136ea224fe,,,,,,,,,1750,-45.93835449,-59.6333313,1,0,0,response5disk,,3,5.231811523,8.156524658,1,0,0,rectangle,36.40429688,67.06954956,1,0,0,7.407531738,-4.33505249,1,0,0,0,104,104,149,1,,response1disk_3,TRUE,7,7,"[84,217,264,149,15,97,130,105,215,7,169,41,128,315,240,231,44,258,159,49]",1.682565,rectangle
,,,,,,,,,,,,,FF,,,,,,,,1.2492,,,,,,,,,,,,,,,,,,,,,,60fcca515dbee0243a67c5d4,6103668583a9273083c856a8,2021-07-29_22h40.29.986,Simcolourproject_2stim_asymm_v5,2020.2.10,Linux x86_64,60,61025ae37ef11b136ea224fe,,,,,,,,,1479,42.85229492,-30.76034546,1,0,0,response3disk,,5,18.06072998,-4.96005249,1,0,0,rectangle,18.06072998,-4.96005249,1,0,0,18.06072998,-4.96005249,1,0,0,0,105,105,101,1,,,,,,,,
,,,,,,,,,,,,,FF,,,,,,,,1.716145,,,,,,,,,,,,,,,,,,,,,,60fcca515dbee0243a67c5d4,6103668583a9273083c856a8,2021-07-29_22h40.29.986,Simcolourproject_2stim_asymm_v5,2020.2.10,Linux x86_64,60,61025ae37ef11b136ea224fe,,,,,,,,,1953,47.42663574,-24.80963135,1,0,0,response3disk,,5,12.95196533,-8.757171631,1,0,0,rectangle,12.95196533,-8.757171631,1,0,0,12.95196533,-8.757171631,1,0,0,0,106,106,45,1,,,,,,,,
,,,,,,,,,,,,,FF,,,,,,,,1.24959,,,,,,,,,,,,,,,,,,,,,,60fcca515dbee0243a67c5d4,6103668583a9273083c856a8,2021-07-29_22h40.29.986,Simcolourproject_2stim_asymm_v5,2020.2.10,Linux x86_64,60,61025ae37ef11b136ea224fe,,,,,,,,,1460,-63.92889404,-35.52371216,1,0,0,response5disk,,2,16.89099121,11.61456299,1,0,0,rectangle,16.89099121,11.61456299,1,0,0,16.89099121,11.61456299,1,0,0,0,107,107,99,1,,,,,,,,
,,,,,,,,,,,,,FF,,,,,,,,2.4842,,,,,,,,,,,,,,,,,,,,,,60fcca515dbee0243a67c5d4,6103668583a9273083c856a8,2021-07-29_22h40.29.986,Simcolourproject_2stim_asymm_v5,2020.2.10,Linux x86_64,60,61025ae37ef11b136ea224fe,,,,,,,,,477,68.44006348,-41.11270142,1,0,0,response3disk,,5,19.6652832,-2.152099609,1,0,0,rectangle,19.6652832,-2.152099609,1,0,0,19.6652832,-2.152099609,1,0,0,0,108,108,127,1,,,,,,,,
,,,,,,,,,,,,,FF,,,,,,,,1.24926,,,,,,,,,,,,,,,,,,,,,,60fcca515dbee0243a67c5d4,6103668583a9273083c856a8,2021-07-29_22h40.29.986,Simcolourproject_2stim_asymm_v5,2020.2.10,Linux x86_64,60,61025ae37ef11b136ea224fe,,,,,,,,,1107,57.01629639,-30.51937866,1,0,0,response3disk,,5,32.04547119,-12.27093506,1,0,0,rectangle,32.04547119,-12.27093506,1,0,0,32.04547119,-12.27093506,1,0,0,0,109,109,29,1,,,,,,,,
,,,,,,,,,,,,,FF,,,,,,,,1.415515,,,,,,,,,,,,,,,,,,,,,,60fcca515dbee0243a67c5d4,6103668583a9273083c856a8,2021-07-29_22h40.29.986,Simcolourproject_2stim_asymm_v5,2020.2.10,Linux x86_64,60,61025ae37ef11b136ea224fe,,,,,,,,,1856,44.85949707,42.35540771,1,0,0,response1disk,,6,-1.413696289,4.07333374,1,0,0,rectangle,-1.413696289,4.07333374,1,0,0,-1.413696289,4.07333374,1,0,0,0,110,110,9,1,,,,,,,,
,,,,,,,,,,,,,FF,,,,,,,,1.11575,,,,,,,,,,,,,,,,,,,,,,60fcca515dbee0243a67c5d4,6103668583a9273083c856a8,2021-07-29_22h40.29.986,Simcolourproject_2stim_asymm_v5,2020.2.10,Linux x86_64,60,61025ae37ef11b136ea224fe,,,,,,,,,3492,48.90179443,25.07989502,1,0,0,response1disk,,6,11.32598877,6.476287842,1,0,0,rectangle,11.32598877,6.476287842,1,0,0,11.32598877,6.476287842,1,0,0,0,111,111,153,1,,,,,,,,
,,,,,,,,,,,,,FF,,,,,,,,1.24985,,,,,,,,,,,,,,,,,,,,,,60fcca515dbee0243a67c5d4,6103668583a9273083c856a8,2021-07-29_22h40.29.986,Simcolourproject_2stim_asymm_v5,2020.2.10,Linux x86_64,60,61025ae37ef11b136ea224fe,,,,,,,,,2578,47.3145752,-20.03530884,1,0,0,response3disk,,5,19.73516846,-5.091918945,1,0,0,rectangle,19.73516846,-5.091918945,1,0,0,19.73516846,-5.091918945,1,0,0,0,112,112,139,1,,,,,,,,
,,,,,,,,,,,,,FF,,,,,,,,1.182385,,,,,,,,,,,,,,,,,,,,,,60fcca515dbee0243a67c5d4,6103668583a9273083c856a8,2021-07-29_22h40.29.986,Simcolourproject_2stim_asymm_v5,2020.2.10,Linux x86_64,60,61025ae37ef11b136ea224fe,,,,,,,,,1598,-35.04675293,-47.20343018,1,0,0,response5disk,,3,18.53167725,3.650177002,1,0,0,rectangle,18.53167725,3.650177002,1,0,0,18.53167725,3.650177002,1,0,0,0,113,113,21,1,,,,,,,,
,,,,,,,,,,,,,FF,,,,,,,,1.14965,,,,,,,,,,,,,,,,,,,,,,60fcca515dbee0243a67c5d4,6103668583a9273083c856a8,2021-07-29_22h40.29.986,Simcolourproject_2stim_asymm_v5,2020.2.10,Linux x86_64,60,61025ae37ef11b136ea224fe,,,,,,,,,3845,-27.33825684,-45.72952271,1,0,0,response5disk,,3,2.320922852,-5.563354492,1,0,0,rectangle,2.320922852,-5.563354492,1,0,0,2.320922852,-5.563354492,1,0,0,0,114,114,7,1,,,,,,,,
,,,,,,,,,,,,,FF,,,,,,,,0.967625,,,,,,,,,,,,,,,,,,,,,,60fcca515dbee0243a67c5d4,6103668583a9273083c856a8,2021-07-29_22h40.29.986,Simcolourproject_2stim_asymm_v5,2020.2.10,Linux x86_64,60,61025ae37ef11b136ea224fe,,,,,,,,,232,49.90515137,27.61212158,1,0,0,response1disk,,6,13.84411621,2.650115967,1,0,0,rectangle,13.84411621,2.650115967,1,0,0,13.84411621,2.650115967,1,0,0,0,115,115,133,1,,,,,,,,
,,,,,,,,,,,,,FF,,,,,,,,1.66627,,,,,,,,,,,,,,,,,,,,,,60fcca515dbee0243a67c5d4,6103668583a9273083c856a8,2021-07-29_22h40.29.986,Simcolourproject_2stim_asymm_v5,2020.2.10,Linux x86_64,60,61025ae37ef11b136ea224fe,,,,,,,,,2123,66.67236328,38.8052063,1,0,0,response1disk,,6,18.42687988,-9.805541992,1,0,0,rectangle,18.42687988,-9.805541992,1,0,0,18.42687988,-9.805541992,1,0,0,0,116,116,137,1,,,,,,,,
,,,,,,,,,,,,,FF,,,,,,,,1.682775,,,,,,,,,,,,,,,,,,,,,,60fcca515dbee0243a67c5d4,6103668583a9273083c856a8,2021-07-29_22h40.29.986,Simcolourproject_2stim_asymm_v5,2020.2.10,Linux x86_64,60,61025ae37ef11b136ea224fe,,,,,,,,,1903,28.07452393,-54.76116943,1,0,0,response3disk,,4,4.318908691,0.686431885,1,0,0,rectangle,4.318908691,0.686431885,1,0,0,4.318908691,0.686431885,1,0,0,0,117,117,144,1,,,,,,,,
,,,,,,,,,,,,,FF,,,,,,,,1.13301,,,,,,,,,,,,,,,,,,,,,,60fcca515dbee0243a67c5d4,6103668583a9273083c856a8,2021-07-29_22h40.29.986,Simcolourproject_2stim_asymm_v5,2020.2.10,Linux x86_64,60,61025ae37ef11b136ea224fe,,,,,,,,,1001,44.41912842,-23.64294434,1,0,0,response3disk,,5,14.58050537,-3.374847412,1,0,0,rectangle,14.58050537,-3.374847412,1,0,0,14.58050537,-3.374847412,1,0,0,0,118,118,18,1,,,,,,,,
,,,,,,,,,,,,,FF,,,,,,,,1.316265,,,,,,,,,,,,,,,,,,,,,,60fcca515dbee0243a67c5d4,6103668583a9273083c856a8,2021-07-29_22h40.29.986,Simcolourproject_2stim_asymm_v5,2020.2.10,Linux x86_64,60,61025ae37ef11b136ea224fe,,,,,,,,,1495,71.26965332,25.72195435,1,0,0,response1disk,,6,13.43939209,-2.52923584,1,0,0,rectangle,13.43939209,-2.52923584,1,0,0,13.43939209,-2.52923584,1,0,0,0,119,119,19,1,,,,,,,,
,,,,,,,,,,,,,FF,,,,,,,,0.834505,,,,,,,,,,,,,,,,,,,,,,60fcca515dbee0243a67c5d4,6103668583a9273083c856a8,2021-07-29_22h40.29.986,Simcolourproject_2stim_asymm_v5,2020.2.10,Linux x86_64,60,61025ae37ef11b136ea224fe,,,,,,,,,1560,49.91864014,20.72998047,1,0,0,response1disk,,6,22.0279541,1.906829834,1,0,0,rectangle,22.0279541,1.906829834,1,0,0,22.0279541,1.906829834,1,0,0,0,120,120,152,1,,,,,,,,
,,,,,,,,,,,,,FF,,,,,,,,1.53629,,,,,,,,,,,,,,,,,,,,,,60fcca515dbee0243a67c5d4,6103668583a9273083c856a8,2021-07-29_22h40.29.986,Simcolourproject_2stim_asymm_v5,2020.2.10,Linux x86_64,60,61025ae37ef11b136ea224fe,,,,,,,,,266,67.12567139,-23.08145142,1,0,0,response3disk,,5,28.07061768,-7.456512451,1,0,0,rectangle,28.07061768,-7.456512451,1,0,0,28.07061768,-7.456512451,1,0,0,0,121,121,72,1,,,,,,,,
,,,,,,,,,,,,,FF,,,,,,,,0.96623,,,,,,,,,,,,,,,,,,,,,,60fcca515dbee0243a67c5d4,6103668583a9273083c856a8,2021-07-29_22h40.29.986,Simcolourproject_2stim_asymm_v5,2020.2.10,Linux x86_64,60,61025ae37ef11b136ea224fe,,,,,,,,,1009,70.57904053,29.82546997,1,0,0,response1disk,,6,29.30126953,2.873779297,1,0,0,rectangle,29.30126953,2.873779297,1,0,0,29.30126953,2.873779297,1,0,0,0,122,122,138,1,,,,,,,,
,,,,,,,,,,,,,FF,,,,,,,,0.966605,,,,,,,,,,,,,,,,,,,,,,60fcca515dbee0243a67c5d4,6103668583a9273083c856a8,2021-07-29_22h40.29.986,Simcolourproject_2stim_asymm_v5,2020.2.10,Linux x86_64,60,61025ae37ef11b136ea224fe,,,,,,,,,2797,40.97613525,16.42242432,1,0,0,response1disk,,6,6.115539551,0.329345703,1,0,0,rectangle,6.115539551,0.329345703,1,0,0,6.115539551,0.329345703,1,0,0,0,123,123,140,1,,,,,,,,
,,,,,,,,,,,,,FF,,,,,,,,0.96651,,,,,,,,,,,,,,,,,,,,,,60fcca515dbee0243a67c5d4,6103668583a9273083c856a8,2021-07-29_22h40.29.986,Simcolourproject_2stim_asymm_v5,2020.2.10,Linux x86_64,60,61025ae37ef11b136ea224fe,,,,,,,,,1587,48.13037109,35.19894409,1,0,0,response1disk,,6,19.59307861,1.318939209,1,0,0,rectangle,19.59307861,1.318939209,1,0,0,19.59307861,1.318939209,1,0,0,0,124,124,93,1,,,,,,,,
,,,,,,,,,,,,,FF,,,,,,,,0.944795,,,,,,,,,,,,,,,,,,,,,,60fcca515dbee0243a67c5d4,6103668583a9273083c856a8,2021-07-29_22h40.29.986,Simcolourproject_2stim_asymm_v5,2020.2.10,Linux x86_64,60,61025ae37ef11b136ea224fe,,,,,,,,,3895,55.10894775,25.90246582,1,0,0,response1disk,,6,6.566589355,-6.968505859,1,0,0,rectangle,6.566589355,-6.968505859,1,0,0,6.566589355,-6.968505859,1,0,0,0,125,125,15,1,,,,,,,,
,,,,,,,,,,,,,FF,,,,,,,,1.49883,,,,,,,,,,,,,,,,,,,,,,60fcca515dbee0243a67c5d4,6103668583a9273083c856a8,2021-07-29_22h40.29.986,Simcolourproject_2stim_asymm_v5,2020.2.10,Linux x86_64,60,61025ae37ef11b136ea224fe,,,,,,,,,700,-32.90997314,-67.10067749,1,0,0,response5disk,,3,15.39978027,0.488586426,1,0,0,rectangle,15.39978027,0.488586426,1,0,0,15.39978027,0.488586426,1,0,0,0,126,126,63,1,,,,,,,,
,,,,,,,,,,,,,FF,,,,,,,,0.81618,,,,,,,,,,,,,,,,,,,,,,60fcca515dbee0243a67c5d4,6103668583a9273083c856a8,2021-07-29_22h40.29.986,Simcolourproject_2stim_asymm_v5,2020.2.10,Linux x86_64,60,61025ae37ef11b136ea224fe,,,,,,,,,4297,42.01629639,-51.46438599,1,0,0,response3disk,,4,19.26831055,-1.712432861,1,0,0,rectangle,-41.48944092,-63.79534912,1,0,0,7.056152344,5.266326904,1,0,0,0,127,127,38,1,,response5disk_3,TRUE,3,3,"[84,217,264,149,15,97,130,105,215,7,169,41,128,315,240,231,44,258,159,49]",1.74929,rectangle
,,,,,,,,,,,,,FF,,,,,,,,0.81704,,,,,,,,,,,,,,,,,,,,,,60fcca515dbee0243a67c5d4,6103668583a9273083c856a8,2021-07-29_22h40.29.986,Simcolourproject_2stim_asymm_v5,2020.2.10,Linux x86_64,60,61025ae37ef11b136ea224fe,,,,,,,,,3713,35.39660645,-52.63793945,1,0,0,response3disk,,4,17.18499756,-7.790344238,1,0,0,rectangle,17.18499756,-7.790344238,1,0,0,17.18499756,-7.790344238,1,0,0,0,128,128,115,1,,,,,,,,
,,,,,,,,,,,,,FF,,,,,,,,1.19996,,,,,,,,,,,,,,,,,,,,,,60fcca515dbee0243a67c5d4,6103668583a9273083c856a8,2021-07-29_22h40.29.986,Simcolourproject_2stim_asymm_v5,2020.2.10,Linux x86_64,60,61025ae37ef11b136ea224fe,,,,,,,,,2325,90.69555664,30.19284058,1,0,0,response1disk,,6,23.17248535,-2.32925415,1,0,0,rectangle,30.9163208,-77.35476685,1,0,0,-9.96484375,9.429229736,1,0,0,0,129,129,67,1,,response3disk_3,TRUE,4,4,"[84,217,264,149,15,97,130,105,215,7,169,41,128,315,240,231,44,258,159,49]",1.416195,rectangle
,,,,,,,,,,,,,FF,,,,,,,,1.58303,,,,,,,,,,,,,,,,,,,,,,60fcca515dbee0243a67c5d4,6103668583a9273083c856a8,2021-07-29_22h40.29.986,Simcolourproject_2stim_asymm_v5,2020.2.10,Linux x86_64,60,61025ae37ef11b136ea224fe,,,,,,,,,3338,34.48071289,-43.41769409,1,0,0,response3disk,,4,11.98425293,-5.218414307,1,0,0,rectangle,11.98425293,-5.218414307,1,0,0,11.98425293,-5.218414307,1,0,0,0,130,130,53,1,,,,,,,,
,,,,,,,,,,,,,FF,,,,,,,,1.067435,,,,,,,,,,,,,,,,,,,,,,60fcca515dbee0243a67c5d4,6103668583a9273083c856a8,2021-07-29_22h40.29.986,Simcolourproject_2stim_asymm_v5,2020.2.10,Linux x86_64,60,61025ae37ef11b136ea224fe,,,,,,,,,670,61.42242432,-27.79376221,1,0,0,response3disk,,5,27.33984375,-9.402282715,1,0,0,rectangle,27.33984375,-9.402282715,1,0,0,27.33984375,-9.402282715,1,0,0,0,131,131,141,1,,,,,,,,
,,,,,,,,,,,,,FF,,,,,,,,0.85016,,,,,,,,,,,,,,,,,,,,,,60fcca515dbee0243a67c5d4,6103668583a9273083c856a8,2021-07-29_22h40.29.986,Simcolourproject_2stim_asymm_v5,2020.2.10,Linux x86_64,60,61025ae37ef11b136ea224fe,,,,,,,,,1248,45.06811523,-34.62619019,1,0,0,response3disk,,5,27.71466064,-8.312042236,1,0,0,rectangle,27.71466064,-8.312042236,1,0,0,27.71466064,-8.312042236,1,0,0,0,132,132,13,1,,,,,,,,
,,,,,,,,,,,,,FF,,,,,,,,0.88276,,,,,,,,,,,,,,,,,,,,,,60fcca515dbee0243a67c5d4,6103668583a9273083c856a8,2021-07-29_22h40.29.986,Simcolourproject_2stim_asymm_v5,2020.2.10,Linux x86_64,60,61025ae37ef11b136ea224fe,,,,,,,,,3580,61.43023682,22.67175293,1,0,0,response1disk,,6,10.00500488,-5.55871582,1,0,0,rectangle,10.00500488,-5.55871582,1,0,0,10.00500488,-5.55871582,1,0,0,0,133,133,5,1,,,,,,,,
,,,,,,,,,,,,,FF,,,,,,,,0.533095,,,,,,,,,,,,,,,,,,,,,,60fcca515dbee0243a67c5d4,6103668583a9273083c856a8,2021-07-29_22h40.29.986,Simcolourproject_2stim_asymm_v5,2020.2.10,Linux x86_64,60,61025ae37ef11b136ea224fe,,,,,,,,,3324,51.11950684,-31.91305542,1,0,0,response3disk,,5,26.26446533,-13.01953125,1,0,0,rectangle,26.26446533,-13.01953125,1,0,0,26.26446533,-13.01953125,1,0,0,0,134,134,22,1,,,,,,,,
,,,,,,,,,,,,,FF,,,,,,,,0.833045,,,,,,,,,,,,,,,,,,,,,,60fcca515dbee0243a67c5d4,6103668583a9273083c856a8,2021-07-29_22h40.29.986,Simcolourproject_2stim_asymm_v5,2020.2.10,Linux x86_64,60,61025ae37ef11b136ea224fe,,,,,,,,,3578,69.52563477,27.09246826,1,0,0,response1disk,,6,29.21417236,-3.807739258,1,0,0,rectangle,29.21417236,-3.807739258,1,0,0,29.21417236,-3.807739258,1,0,0,0,135,135,105,1,,,,,,,,
,,,,,,,,,,,,,FF,,,,,,,,1.149135,,,,,,,,,,,,,,,,,,,,,,60fcca515dbee0243a67c5d4,6103668583a9273083c856a8,2021-07-29_22h40.29.986,Simcolourproject_2stim_asymm_v5,2020.2.10,Linux x86_64,60,61025ae37ef11b136ea224fe,,,,,,,,,1684,28.61999512,-51.63412476,1,0,0,response3disk,,4,8.132446289,2.295257568,1,0,0,rectangle,8.132446289,2.295257568,1,0,0,8.132446289,2.295257568,1,0,0,0,136,136,100,1,,,,,,,,
,,,,,,,,,,,,,FF,,,,,,,,1.166285,,,,,,,,,,,,,,,,,,,,,,60fcca515dbee0243a67c5d4,6103668583a9273083c856a8,2021-07-29_22h40.29.986,Simcolourproject_2stim_asymm_v5,2020.2.10,Linux x86_64,60,61025ae37ef11b136ea224fe,,,,,,,,,4342,24.19006348,49.97171021,1,0,0,response1disk,,7,0.047546387,-11.97491455,1,0,0,rectangle,0.047546387,-11.97491455,1,0,0,0.047546387,-11.97491455,1,0,0,0,137,137,70,1,,,,,,,,
,,,,,,,,,,,,,FF,,,,,,,,1.09981,,,,,,,,,,,,,,,,,,,,,,60fcca515dbee0243a67c5d4,6103668583a9273083c856a8,2021-07-29_22h40.29.986,Simcolourproject_2stim_asymm_v5,2020.2.10,Linux x86_64,60,61025ae37ef11b136ea224fe,,,,,,,,,1021,72.78851318,22.63989258,1,0,0,response1disk,,6,-11.6104126,-4.042358398,1,0,0,rectangle,-11.6104126,-4.042358398,1,0,0,-11.6104126,-4.042358398,1,0,0,0,138,138,25,1,,,,,,,,
,,,,,,,,,,,,,FF,,,,,,,,1.19967,,,,,,,,,,,,,,,,,,,,,,60fcca515dbee0243a67c5d4,6103668583a9273083c856a8,2021-07-29_22h40.29.986,Simcolourproject_2stim_asymm_v5,2020.2.10,Linux x86_64,60,61025ae37ef11b136ea224fe,,,,,,,,,3802,37.79272461,73.91305542,1,0,0,response1disk,,7,-0.490783691,4.983856201,1,0,0,rectangle,-0.490783691,4.983856201,1,0,0,-0.490783691,4.983856201,1,0,0,0,139,139,57,1,,,,,,,,
,,,,,,,,,,,,,FF,,,,,,,,0.83277,,,,,,,,,,,,,,,,,,,,,,60fcca515dbee0243a67c5d4,6103668583a9273083c856a8,2021-07-29_22h40.29.986,Simcolourproject_2stim_asymm_v5,2020.2.10,Linux x86_64,60,61025ae37ef11b136ea224fe,,,,,,,,,2509,74.21472168,48.48364258,1,0,0,response1disk,,6,11.11889648,2.07611084,1,0,0,rectangle,11.11889648,2.07611084,1,0,0,11.11889648,2.07611084,1,0,0,0,140,140,145,1,,,,,,,,
,,,,,,,,,,,,,FF,,,,,,,,0.93297,,,,,,,,,,,,,,,,,,,,,,60fcca515dbee0243a67c5d4,6103668583a9273083c856a8,2021-07-29_22h40.29.986,Simcolourproject_2stim_asymm_v5,2020.2.10,Linux x86_64,60,61025ae37ef11b136ea224fe,,,,,,,,,1027,72.53991699,37.73034668,1,0,0,response1disk,,6,28.54174805,6.915496826,1,0,0,rectangle,28.54174805,6.915496826,1,0,0,28.54174805,6.915496826,1,0,0,0,141,141,52,1,,,,,,,,
,,,,,,,,,,,,,FF,,,,,,,,0.71739,,,,,,,,,,,,,,,,,,,,,,60fcca515dbee0243a67c5d4,6103668583a9273083c856a8,2021-07-29_22h40.29.986,Simcolourproject_2stim_asymm_v5,2020.2.10,Linux x86_64,60,61025ae37ef11b136ea224fe,,,,,,,,,2796,76.74127197,27.89187622,1,0,0,response1disk,,6,24.45471191,0.011138916,1,0,0,rectangle,24.45471191,0.011138916,1,0,0,24.45471191,0.011138916,1,0,0,0,142,142,96,1,,,,,,,,
,,,,,,,,,,,,,FF,,,,,,,,1.11667,,,,,,,,,,,,,,,,,,,,,,60fcca515dbee0243a67c5d4,6103668583a9273083c856a8,2021-07-29_22h40.29.986,Simcolourproject_2stim_asymm_v5,2020.2.10,Linux x86_64,60,61025ae37ef11b136ea224fe,,,,,,,,,4084,65.60925293,-23.95574951,1,0,0,response3disk,,5,28.29644775,6.837310791,1,0,0,rectangle,28.29644775,6.837310791,1,0,0,28.29644775,6.837310791,1,0,0,0,143,143,37,1,,,,,,,,
,,,,,,,,,,,,,FF,,,,,,,,0.983545,,,,,,,,,,,,,,,,,,,,,,60fcca515dbee0243a67c5d4,6103668583a9273083c856a8,2021-07-29_22h40.29.986,Simcolourproject_2stim_asymm_v5,2020.2.10,Linux x86_64,60,61025ae37ef11b136ea224fe,,,,,,,,,1331,30.22290039,54.0430603,1,0,0,response1disk,,7,5.973144531,2.797241211,1,0,0,rectangle,5.973144531,2.797241211,1,0,0,5.973144531,2.797241211,1,0,0,0,144,144,122,1,,,,,,,,
,,,,,,,,,,,,,FF,,,,,,,,1.14989,,,,,,,,,,,,,,,,,,,,,,60fcca515dbee0243a67c5d4,6103668583a9273083c856a8,2021-07-29_22h40.29.986,Simcolourproject_2stim_asymm_v5,2020.2.10,Linux x86_64,60,61025ae37ef11b136ea224fe,,,,,,,,,1373,25.72314453,-61.32650757,1,0,0,response3disk,,4,13.36047363,-4.805511475,1,0,0,rectangle,13.36047363,-4.805511475,1,0,0,13.36047363,-4.805511475,1,0,0,0,145,145,56,1,,,,,,,,
,,,,,,,,,,,,,FF,,,,,,,,1.066395,,,,,,,,,,,,,,,,,,,,,,60fcca515dbee0243a67c5d4,6103668583a9273083c856a8,2021-07-29_22h40.29.986,Simcolourproject_2stim_asymm_v5,2020.2.10,Linux x86_64,60,61025ae37ef11b136ea224fe,,,,,,,,,960,27.4229126,46.36071777,1,0,0,response1disk,,7,27.15075684,-3.299499512,1,0,0,rectangle,27.15075684,-3.299499512,1,0,0,27.15075684,-3.299499512,1,0,0,0,146,146,130,1,,,,,,,,
,,,,,,,,,,,,,FF,,,,,,,,0.882615,,,,,,,,,,,,,,,,,,,,,,60fcca515dbee0243a67c5d4,6103668583a9273083c856a8,2021-07-29_22h40.29.986,Simcolourproject_2stim_asymm_v5,2020.2.10,Linux x86_64,60,61025ae37ef11b136ea224fe,,,,,,,,,702,37.06750488,-47.08477783,1,0,0,response3disk,,4,23.37353516,-5.167114258,1,0,0,rectangle,23.37353516,-5.167114258,1,0,0,23.37353516,-5.167114258,1,0,0,0,147,147,142,1,,,,,,,,
,,,,,,,,,,,,,FF,,,,,,,,1.150185,,,,,,,,,,,,,,,,,,,,,,60fcca515dbee0243a67c5d4,6103668583a9273083c856a8,2021-07-29_22h40.29.986,Simcolourproject_2stim_asymm_v5,2020.2.10,Linux x86_64,60,61025ae37ef11b136ea224fe,,,,,,,,,1867,99.1973877,36.97515869,1,0,0,response1disk,,6,33.58447266,4.030578613,1,0,0,rectangle,-92.67321777,30.9029541,1,0,0,-5.258178711,3.115447998,1,0,0,0,148,148,51,1,,response7disk_3,TRUE,1,1,"[84,217,264,149,15,97,130,105,215,7,169,41,128,315,240,231,44,258,159,49]",1.215995,rectangle
,,,,,,,,,,,,,FF,,,,,,,,2.432535,,,,,,,,,,,,,,,,,,,,,,60fcca515dbee0243a67c5d4,6103668583a9273083c856a8,2021-07-29_22h40.29.986,Simcolourproject_2stim_asymm_v5,2020.2.10,Linux x86_64,60,61025ae37ef11b136ea224fe,,,,,,,,,1596,-37.89074707,58.6361084,1,0,0,response7disk,,0,-7.21295166,1.118560791,1,0,0,rectangle,-7.21295166,1.118560791,1,0,0,-7.21295166,1.118560791,1,0,0,0,149,149,64,1,,,,,,,,
,,,,,,,,,,,,,FF,,,,,,,,2.299635,,,,,,,,,,,,,,,,,,,,,,60fcca515dbee0243a67c5d4,6103668583a9273083c856a8,2021-07-29_22h40.29.986,Simcolourproject_2stim_asymm_v5,2020.2.10,Linux x86_64,60,61025ae37ef11b136ea224fe,,,,,,,,,1277,72.43603516,23.17889404,1,0,0,response1disk,,6,12.77209473,9.944549561,1,0,0,rectangle,12.77209473,9.944549561,1,0,0,12.77209473,9.944549561,1,0,0,0,150,150,43,1,,,,,,,,
,,,,,,,,,,,,,FF,,,,,,,,0.966395,,,,,,,,,,,,,,,,,,,,,,60fcca515dbee0243a67c5d4,6103668583a9273083c856a8,2021-07-29_22h40.29.986,Simcolourproject_2stim_asymm_v5,2020.2.10,Linux x86_64,60,61025ae37ef11b136ea224fe,,,,,,,,,3831,50.53363037,-27.44509888,1,0,0,response3disk,,5,17.33300781,-0.544219971,1,0,0,rectangle,17.33300781,-0.544219971,1,0,0,17.33300781,-0.544219971,1,0,0,0,151,151,79,1,,,,,,,,
,,,,,,,,,,,,,FF,,,,,,,,1.632455,,,,,,,,,,,,,,,,,,,,,,60fcca515dbee0243a67c5d4,6103668583a9273083c856a8,2021-07-29_22h40.29.986,Simcolourproject_2stim_asymm_v5,2020.2.10,Linux x86_64,60,61025ae37ef11b136ea224fe,,,,,,,,,4206,80.78381348,21.80725098,1,0,0,response1disk,,6,11.1295166,-2.37210083,1,0,0,rectangle,11.1295166,-2.37210083,1,0,0,11.1295166,-2.37210083,1,0,0,0,152,152,125,1,,,,,,,,
,,,,,,,,,,,,,FF,,,,,,,,0.885055,,,,,,,,,,,,,,,,,,,,,,60fcca515dbee0243a67c5d4,6103668583a9273083c856a8,2021-07-29_22h40.29.986,Simcolourproject_2stim_asymm_v5,2020.2.10,Linux x86_64,60,61025ae37ef11b136ea224fe,,,,,,,,,686,58.56304932,-29.39273071,1,0,0,response3disk,,5,18.51257324,1.258758545,1,0,0,rectangle,18.51257324,1.258758545,1,0,0,18.51257324,1.258758545,1,0,0,0,153,153,126,1,,,,,,,,
,,,,,,,,,,,,,FF,,,,,,,,1.365615,,,,,,,,,,,,,,,,,,,,,,60fcca515dbee0243a67c5d4,6103668583a9273083c856a8,2021-07-29_22h40.29.986,Simcolourproject_2stim_asymm_v5,2020.2.10,Linux x86_64,60,61025ae37ef11b136ea224fe,,,,,,,,,4157,75.62237549,51.65103149,1,0,0,response1disk,,6,3.085632324,-0.345581055,1,0,0,rectangle,3.085632324,-0.345581055,1,0,0,3.085632324,-0.345581055,1,0,0,0,154,154,104,1,,,,,,,,
,,,,,,,,,,,,,FF,,,,,,,,1.13302,,,,,,,,,,,,,,,,,,,,,,60fcca515dbee0243a67c5d4,6103668583a9273083c856a8,2021-07-29_22h40.29.986,Simcolourproject_2stim_asymm_v5,2020.2.10,Linux x86_64,60,61025ae37ef11b136ea224fe,,,,,,,,,2512,62.11517334,45.37322998,1,0,0,response1disk,,6,3.563049316,-6.016815186,1,0,0,rectangle,3.563049316,-6.016815186,1,0,0,3.563049316,-6.016815186,1,0,0,0,155,155,150,1,,,,,,,,
,,,,,,,,,,,,,FF,,,,,,,,1.515635,,,,,,,,,,,,,,,,,,,,,,60fcca515dbee0243a67c5d4,6103668583a9273083c856a8,2021-07-29_22h40.29.986,Simcolourproject_2stim_asymm_v5,2020.2.10,Linux x86_64,60,61025ae37ef11b136ea224fe,,,,,,,,,3274,68.30462646,-27.83184814,1,0,0,response3disk,,5,24.76733398,1.568145752,1,0,0,rectangle,24.76733398,1.568145752,1,0,0,24.76733398,1.568145752,1,0,0,0,156,156,86,1,,,,,,,,
,,,,,,,,,,,,,FF,,,,,,,,1.0333,,,,,,,,,,,,,,,,,,,,,,60fcca515dbee0243a67c5d4,6103668583a9273083c856a8,2021-07-29_22h40.29.986,Simcolourproject_2stim_asymm_v5,2020.2.10,Linux x86_64,60,61025ae37ef11b136ea224fe,,,,,,,,,543,-25.48583984,58.00198364,1,0,0,response7disk,,0,5.545837402,-1.926605225,1,0,0,rectangle,5.545837402,-1.926605225,1,0,0,5.545837402,-1.926605225,1,0,0,0,157,157,83,1,,,,,,,,
,,,,,,,,,,,,,FF,,,,,,,,0.96588,,,,,,,,,,,,,,,,,,,,,,60fcca515dbee0243a67c5d4,6103668583a9273083c856a8,2021-07-29_22h40.29.986,Simcolourproject_2stim_asymm_v5,2020.2.10,Linux x86_64,60,61025ae37ef11b136ea224fe,,,,,,,,,678,38.56408691,-21.09906006,1,0,0,response3disk,,5,12.32543945,-2.407928467,1,0,0,rectangle,-39.48577881,-60.00027466,1,0,0,2.058044434,-4.871917725,1,0,0,0,158,158,11,1,,response5disk_3,TRUE,3,3,"[84,217,264,149,15,97,130,105,215,7,169,41,128,315,240,231,44,258,159,49]",1.49974,rectangle
,,,,,,,,,,,,,FF,,,,,,,,1.03302,,,,,,,,,,,,,,,,,,,,,,60fcca515dbee0243a67c5d4,6103668583a9273083c856a8,2021-07-29_22h40.29.986,Simcolourproject_2stim_asymm_v5,2020.2.10,Linux x86_64,60,61025ae37ef11b136ea224fe,,,,,,,,,3340,28.78826904,-40.74441528,1,0,0,response3disk,,4,18.79907227,0.90838623,1,0,0,rectangle,18.79907227,0.90838623,1,0,0,18.79907227,0.90838623,1,0,0,0,159,159,54,1,,,,,,,,
,,,,,,,,,,,,,FF,,,,,,,,1.46584,,,,,,,,,,,,,,,,,,,,,,60fcca515dbee0243a67c5d4,6103668583a9273083c856a8,2021-07-29_22h40.29.986,Simcolourproject_2stim_asymm_v5,2020.2.10,Linux x86_64,60,61025ae37ef11b136ea224fe,,,,,,,,,2538,54.62640381,18.82315063,1,0,0,response1disk,,6,26.07720947,3.182983398,1,0,0,rectangle,26.07720947,3.182983398,1,0,0,26.07720947,3.182983398,1,0,0,1,0,160,115,1,,,,,,,,
,,,,,,,,,,,,,FF,,,,,,,,1.133235,,,,,,,,,,,,,,,,,,,,,,60fcca515dbee0243a67c5d4,6103668583a9273083c856a8,2021-07-29_22h40.29.986,Simcolourproject_2stim_asymm_v5,2020.2.10,Linux x86_64,60,61025ae37ef11b136ea224fe,,,,,,,,,3278,41.69299316,16.99865723,1,0,0,response1disk,,6,31.17120361,9.791931152,1,0,0,rectangle,31.17120361,9.791931152,1,0,0,31.17120361,9.791931152,1,0,0,1,1,161,28,1,,,,,,,,
,,,,,,,,,,,,,FF,,,,,,,,0.76616,,,,,,,,,,,,,,,,,,,,,,60fcca515dbee0243a67c5d4,6103668583a9273083c856a8,2021-07-29_22h40.29.986,Simcolourproject_2stim_asymm_v5,2020.2.10,Linux x86_64,60,61025ae37ef11b136ea224fe,,,,,,,,,3581,45.58428955,21.53881836,1,0,0,response1disk,,6,15.95227051,1.021270752,1,0,0,rectangle,15.95227051,1.021270752,1,0,0,15.95227051,1.021270752,1,0,0,1,2,162,33,1,,,,,,,,
,,,,,,,,,,,,,FF,,,,,,,,1.000255,,,,,,,,,,,,,,,,,,,,,,60fcca515dbee0243a67c5d4,6103668583a9273083c856a8,2021-07-29_22h40.29.986,Simcolourproject_2stim_asymm_v5,2020.2.10,Linux x86_64,60,61025ae37ef11b136ea224fe,,,,,,,,,2861,51.84942627,-23.42282104,1,0,0,response3disk,,5,5.956115723,6.23815918,1,0,0,rectangle,5.956115723,6.23815918,1,0,0,5.956115723,6.23815918,1,0,0,1,3,163,126,1,,,,,,,,
,,,,,,,,,,,,,FF,,,,,,,,1.38308,,,,,,,,,,,,,,,,,,,,,,60fcca515dbee0243a67c5d4,6103668583a9273083c856a8,2021-07-29_22h40.29.986,Simcolourproject_2stim_asymm_v5,2020.2.10,Linux x86_64,60,61025ae37ef11b136ea224fe,,,,,,,,,3574,43.64837646,34.05062866,1,0,0,response1disk,,6,22.76586914,3.023895264,1,0,0,rectangle,22.76586914,3.023895264,1,0,0,22.76586914,3.023895264,1,0,0,1,4,164,135,1,,,,,,,,
,,,,,,,,,,,,,FF,,,,,,,,1.649845,,,,,,,,,,,,,,,,,,,,,,60fcca515dbee0243a67c5d4,6103668583a9273083c856a8,2021-07-29_22h40.29.986,Simcolourproject_2stim_asymm_v5,2020.2.10,Linux x86_64,60,61025ae37ef11b136ea224fe,,,,,,,,,1140,51.45324707,-31.54986572,1,0,0,response3disk,,5,22.14099121,-1.89630127,1,0,0,rectangle,22.14099121,-1.89630127,1,0,0,22.14099121,-1.89630127,1,0,0,1,5,165,131,1,,,,,,,,
,,,,,,,,,,,,,FF,,,,,,,,1.399135,,,,,,,,,,,,,,,,,,,,,,60fcca515dbee0243a67c5d4,6103668583a9273083c856a8,2021-07-29_22h40.29.986,Simcolourproject_2stim_asymm_v5,2020.2.10,Linux x86_64,60,61025ae37ef11b136ea224fe,,,,,,,,,3118,46.78833008,-30.28067017,1,0,0,response3disk,,5,25.35601807,-2.422943115,1,0,0,rectangle,25.35601807,-2.422943115,1,0,0,25.35601807,-2.422943115,1,0,0,1,6,166,21,1,,,,,,,,
,,,,,,,,,,,,,FF,,,,,,,,1.316495,,,,,,,,,,,,,,,,,,,,,,60fcca515dbee0243a67c5d4,6103668583a9273083c856a8,2021-07-29_22h40.29.986,Simcolourproject_2stim_asymm_v5,2020.2.10,Linux x86_64,60,61025ae37ef11b136ea224fe,,,,,,,,,3577,54.90234375,22.5796814,1,0,0,response1disk,,6,22.72253418,0.947052002,1,0,0,rectangle,22.72253418,0.947052002,1,0,0,22.72253418,0.947052002,1,0,0,1,7,167,25,1,,,,,,,,
,,,,,,,,,,,,,FF,,,,,,,,1.03276,,,,,,,,,,,,,,,,,,,,,,60fcca515dbee0243a67c5d4,6103668583a9273083c856a8,2021-07-29_22h40.29.986,Simcolourproject_2stim_asymm_v5,2020.2.10,Linux x86_64,60,61025ae37ef11b136ea224fe,,,,,,,,,509,30.06011963,47.37799072,1,0,0,response1disk,,7,16.31274414,12.5692749,1,0,0,rectangle,57.95080566,-35.17614746,1,0,0,19.38397217,-4.332366943,1,0,0,1,8,168,13,1,,response3disk_3,TRUE,5,5,"[84,217,264,149,15,97,130,105,215,7,169,41,128,315,240,231,44,258,159,49]",1.566045,rectangle
,,,,,,,,,,,,,FF,,,,,,,,1.766525,,,,,,,,,,,,,,,,,,,,,,60fcca515dbee0243a67c5d4,6103668583a9273083c856a8,2021-07-29_22h40.29.986,Simcolourproject_2stim_asymm_v5,2020.2.10,Linux x86_64,60,61025ae37ef11b136ea224fe,,,,,,,,,3879,88.10125732,25.59701538,1,0,0,response1disk,,6,28.58837891,-3.460601807,1,0,0,rectangle,28.58837891,-3.460601807,1,0,0,28.58837891,-3.460601807,1,0,0,1,9,169,97,1,,,,,,,,
,,,,,,,,,,,,,FF,,,,,,,,0.89946,,,,,,,,,,,,,,,,,,,,,,60fcca515dbee0243a67c5d4,6103668583a9273083c856a8,2021-07-29_22h40.29.986,Simcolourproject_2stim_asymm_v5,2020.2.10,Linux x86_64,60,61025ae37ef11b136ea224fe,,,,,,,,,99,28.00506592,-33.63009644,1,0,0,response3disk,,4,13.09118652,-0.832000732,1,0,0,rectangle,13.09118652,-0.832000732,1,0,0,13.09118652,-0.832000732,1,0,0,1,10,170,22,1,,,,,,,,
,,,,,,,,,,,,,FF,,,,,,,,0.833365,,,,,,,,,,,,,,,,,,,,,,60fcca515dbee0243a67c5d4,6103668583a9273083c856a8,2021-07-29_22h40.29.986,Simcolourproject_2stim_asymm_v5,2020.2.10,Linux x86_64,60,61025ae37ef11b136ea224fe,,,,,,,,,3847,21.43566895,-40.03930664,1,0,0,response3disk,,4,17.36260986,-5.41607666,1,0,0,rectangle,17.36260986,-5.41607666,1,0,0,17.36260986,-5.41607666,1,0,0,1,11,171,50,1,,,,,,,,
,,,,,,,,,,,,,FF,,,,,,,,2.28316,,,,,,,,,,,,,,,,,,,,,,60fcca515dbee0243a67c5d4,6103668583a9273083c856a8,2021-07-29_22h40.29.986,Simcolourproject_2stim_asymm_v5,2020.2.10,Linux x86_64,60,61025ae37ef11b136ea224fe,,,,,,,,,4261,33.60699463,55.15182495,1,0,0,response1disk,,7,18.14691162,3.284484863,1,0,0,rectangle,18.14691162,3.284484863,1,0,0,18.14691162,3.284484863,1,0,0,1,12,172,129,1,,,,,,,,
,,,,,,,,,,,,,FF,,,,,,,,1.01659,,,,,,,,,,,,,,,,,,,,,,60fcca515dbee0243a67c5d4,6103668583a9273083c856a8,2021-07-29_22h40.29.986,Simcolourproject_2stim_asymm_v5,2020.2.10,Linux x86_64,60,61025ae37ef11b136ea224fe,,,,,,,,,2736,45.63305664,-20.94845581,1,0,0,response3disk,,5,28.76916504,-4.949401855,1,0,0,rectangle,28.76916504,-4.949401855,1,0,0,28.76916504,-4.949401855,1,0,0,1,13,173,27,1,,,,,,,,
,,,,,,,,,,,,,FF,,,,,,,,1.0001,,,,,,,,,,,,,,,,,,,,,,60fcca515dbee0243a67c5d4,6103668583a9273083c856a8,2021-07-29_22h40.29.986,Simcolourproject_2stim_asymm_v5,2020.2.10,Linux x86_64,60,61025ae37ef11b136ea224fe,,,,,,,,,1018,74.71484375,19.00958252,1,0,0,response1disk,,6,12.53070068,-10.19158936,1,0,0,rectangle,12.53070068,-10.19158936,1,0,0,12.53070068,-10.19158936,1,0,0,1,14,174,92,1,,,,,,,,
,,,,,,,,,,,,,FF,,,,,,,,1.316435,,,,,,,,,,,,,,,,,,,,,,60fcca515dbee0243a67c5d4,6103668583a9273083c856a8,2021-07-29_22h40.29.986,Simcolourproject_2stim_asymm_v5,2020.2.10,Linux x86_64,60,61025ae37ef11b136ea224fe,,,,,,,,,2791,51.11462402,-35.95681763,1,0,0,response3disk,,5,23.0177002,-5.976837158,1,0,0,rectangle,23.0177002,-5.976837158,1,0,0,23.0177002,-5.976837158,1,0,0,1,15,175,62,1,,,,,,,,
,,,,,,,,,,,,,FF,,,,,,,,1.083095,,,,,,,,,,,,,,,,,,,,,,60fcca515dbee0243a67c5d4,6103668583a9273083c856a8,2021-07-29_22h40.29.986,Simcolourproject_2stim_asymm_v5,2020.2.10,Linux x86_64,60,61025ae37ef11b136ea224fe,,,,,,,,,1388,42.76385498,-24.85876465,1,0,0,response3disk,,5,7.790710449,5.467773438,1,0,0,rectangle,7.790710449,5.467773438,1,0,0,7.790710449,5.467773438,1,0,0,1,16,176,71,1,,,,,,,,
,,,,,,,,,,,,,FF,,,,,,,,1.29989,,,,,,,,,,,,,,,,,,,,,,60fcca515dbee0243a67c5d4,6103668583a9273083c856a8,2021-07-29_22h40.29.986,Simcolourproject_2stim_asymm_v5,2020.2.10,Linux x86_64,60,61025ae37ef11b136ea224fe,,,,,,,,,1489,37.043396,77.35580444,1,0,0,response1disk,,7,16.11633301,10.52890015,1,0,0,rectangle,16.11633301,10.52890015,1,0,0,16.11633301,10.52890015,1,0,0,1,17,177,137,1,,,,,,,,
,,,,,,,,,,,,,FF,,,,,,,,1.29799,,,,,,,,,,,,,,,,,,,,,,60fcca515dbee0243a67c5d4,6103668583a9273083c856a8,2021-07-29_22h40.29.986,Simcolourproject_2stim_asymm_v5,2020.2.10,Linux x86_64,60,61025ae37ef11b136ea224fe,,,,,,,,,3438,21.81219482,-44.3465271,1,0,0,response3disk,,4,10.93743896,7.239044189,1,0,0,rectangle,10.93743896,7.239044189,1,0,0,10.93743896,7.239044189,1,0,0,1,18,178,87,1,,,,,,,,
,,,,,,,,,,,,,FF,,,,,,,,1.349625,,,,,,,,,,,,,,,,,,,,,,60fcca515dbee0243a67c5d4,6103668583a9273083c856a8,2021-07-29_22h40.29.986,Simcolourproject_2stim_asymm_v5,2020.2.10,Linux x86_64,60,61025ae37ef11b136ea224fe,,,,,,,,,1102,30.57702637,44.49169922,1,0,0,response1disk,,7,18.67810059,7.02835083,1,0,0,rectangle,18.67810059,7.02835083,1,0,0,18.67810059,7.02835083,1,0,0,1,19,179,56,1,,,,,,,,
,,,,,,,,,,,,,FF,,,,,,,,1.18306,,,,,,,,,,,,,,,,,,,,,,60fcca515dbee0243a67c5d4,6103668583a9273083c856a8,2021-07-29_22h40.29.986,Simcolourproject_2stim_asymm_v5,2020.2.10,Linux x86_64,60,61025ae37ef11b136ea224fe,,,,,,,,,1482,38.62585449,-17.36917114,1,0,0,response3disk,,5,25.65380859,-8.144561768,1,0,0,rectangle,25.65380859,-8.144561768,1,0,0,25.65380859,-8.144561768,1,0,0,1,20,180,155,1,,,,,,,,
,,,,,,,,,,,,,FF,,,,,,,,1.39923,,,,,,,,,,,,,,,,,,,,,,60fcca515dbee0243a67c5d4,6103668583a9273083c856a8,2021-07-29_22h40.29.986,Simcolourproject_2stim_asymm_v5,2020.2.10,Linux x86_64,60,61025ae37ef11b136ea224fe,,,,,,,,,408,51.73742676,28.49087524,1,0,0,response1disk,,6,32.42333984,11.91531372,1,0,0,rectangle,32.42333984,11.91531372,1,0,0,32.42333984,11.91531372,1,0,0,1,21,181,130,1,,,,,,,,
,,,,,,,,,,,,,FF,,,,,,,,0.81811,,,,,,,,,,,,,,,,,,,,,,60fcca515dbee0243a67c5d4,6103668583a9273083c856a8,2021-07-29_22h40.29.986,Simcolourproject_2stim_asymm_v5,2020.2.10,Linux x86_64,60,61025ae37ef11b136ea224fe,,,,,,,,,3985,21.3182373,73.11450195,1,0,0,response1disk,,7,2.276916504,0.087249756,1,0,0,rectangle,2.276916504,0.087249756,1,0,0,2.276916504,0.087249756,1,0,0,1,22,182,156,1,,,,,,,,
,,,,,,,,,,,,,FF,,,,,,,,0.883,,,,,,,,,,,,,,,,,,,,,,60fcca515dbee0243a67c5d4,6103668583a9273083c856a8,2021-07-29_22h40.29.986,Simcolourproject_2stim_asymm_v5,2020.2.10,Linux x86_64,60,61025ae37ef11b136ea224fe,,,,,,,,,3675,-29.4430542,-54.58889771,1,0,0,response5disk,,3,-3.246704102,-2.414001465,1,0,0,rectangle,-3.246704102,-2.414001465,1,0,0,-3.246704102,-2.414001465,1,0,0,1,23,183,107,1,,,,,,,,
,,,,,,,,,,,,,FF,,,,,,,,1.032875,,,,,,,,,,,,,,,,,,,,,,60fcca515dbee0243a67c5d4,6103668583a9273083c856a8,2021-07-29_22h40.29.986,Simcolourproject_2stim_asymm_v5,2020.2.10,Linux x86_64,60,61025ae37ef11b136ea224fe,,,,,,,,,54,46.56921387,-34.63421631,1,0,0,response3disk,,5,16.73583984,-2.692901611,1,0,0,rectangle,16.73583984,-2.692901611,1,0,0,16.73583984,-2.692901611,1,0,0,1,24,184,111,1,,,,,,,,
,,,,,,,,,,,,,FF,,,,,,,,1.183245,,,,,,,,,,,,,,,,,,,,,,60fcca515dbee0243a67c5d4,6103668583a9273083c856a8,2021-07-29_22h40.29.986,Simcolourproject_2stim_asymm_v5,2020.2.10,Linux x86_64,60,61025ae37ef11b136ea224fe,,,,,,,,,3682,29.05908203,-54.39782715,1,0,0,response3disk,,4,10.09802246,-3.462097168,1,0,0,rectangle,10.09802246,-3.462097168,1,0,0,10.09802246,-3.462097168,1,0,0,1,25,185,32,1,,,,,,,,
,,,,,,,,,,,,,FF,,,,,,,,1.10035,,,,,,,,,,,,,,,,,,,,,,60fcca515dbee0243a67c5d4,6103668583a9273083c856a8,2021-07-29_22h40.29.986,Simcolourproject_2stim_asymm_v5,2020.2.10,Linux x86_64,60,61025ae37ef11b136ea224fe,,,,,,,,,2692,50.60772705,-17.74050903,1,0,0,response3disk,,5,28.79779053,-2.058258057,1,0,0,rectangle,28.79779053,-2.058258057,1,0,0,28.79779053,-2.058258057,1,0,0,1,26,186,10,1,,,,,,,,
,,,,,,,,,,,,,FF,,,,,,,,0.732105,,,,,,,,,,,,,,,,,,,,,,60fcca515dbee0243a67c5d4,6103668583a9273083c856a8,2021-07-29_22h40.29.986,Simcolourproject_2stim_asymm_v5,2020.2.10,Linux x86_64,60,61025ae37ef11b136ea224fe,,,,,,,,,2817,69.58447266,31.38800049,1,0,0,response1disk,,6,5.134521484,-2.894470215,1,0,0,rectangle,5.134521484,-2.894470215,1,0,0,5.134521484,-2.894470215,1,0,0,1,27,187,12,1,,,,,,,,
,,,,,,,,,,,,,FF,,,,,,,,0.90008,,,,,,,,,,,,,,,,,,,,,,60fcca515dbee0243a67c5d4,6103668583a9273083c856a8,2021-07-29_22h40.29.986,Simcolourproject_2stim_asymm_v5,2020.2.10,Linux x86_64,60,61025ae37ef11b136ea224fe,,,,,,,,,1058,28.31933594,-46.71603394,1,0,0,response3disk,,4,13.80291748,7.354522705,1,0,0,rectangle,13.80291748,7.354522705,1,0,0,13.80291748,7.354522705,1,0,0,1,28,188,26,1,,,,,,,,
,,,,,,,,,,,,,FF,,,,,,,,0.91629,,,,,,,,,,,,,,,,,,,,,,60fcca515dbee0243a67c5d4,6103668583a9273083c856a8,2021-07-29_22h40.29.986,Simcolourproject_2stim_asymm_v5,2020.2.10,Linux x86_64,60,61025ae37ef11b136ea224fe,,,,,,,,,1332,46.0892334,16.00256348,1,0,0,response1disk,,6,22.02746582,-3.874908447,1,0,0,rectangle,22.02746582,-3.874908447,1,0,0,22.02746582,-3.874908447,1,0,0,1,29,189,133,1,,,,,,,,
,,,,,,,,,,,,,FF,,,,,,,,0.817305,,,,,,,,,,,,,,,,,,,,,,60fcca515dbee0243a67c5d4,6103668583a9273083c856a8,2021-07-29_22h40.29.986,Simcolourproject_2stim_asymm_v5,2020.2.10,Linux x86_64,60,61025ae37ef11b136ea224fe,,,,,,,,,3545,35.22772217,-41.60507202,1,0,0,response3disk,,4,17.31445313,-1.445800781,1,0,0,rectangle,17.31445313,-1.445800781,1,0,0,17.31445313,-1.445800781,1,0,0,1,30,190,121,1,,,,,,,,
,,,,,,,,,,,,,FF,,,,,,,,0.766435,,,,,,,,,,,,,,,,,,,,,,60fcca515dbee0243a67c5d4,6103668583a9273083c856a8,2021-07-29_22h40.29.986,Simcolourproject_2stim_asymm_v5,2020.2.10,Linux x86_64,60,61025ae37ef11b136ea224fe,,,,,,,,,2110,56.43286133,-25.14941406,1,0,0,response3disk,,5,28.16986084,2.756225586,1,0,0,rectangle,28.16986084,2.756225586,1,0,0,28.16986084,2.756225586,1,0,0,1,31,191,17,1,,,,,,,,
,,,,,,,,,,,,,FF,,,,,,,,0.750175,,,,,,,,,,,,,,,,,,,,,,60fcca515dbee0243a67c5d4,6103668583a9273083c856a8,2021-07-29_22h40.29.986,Simcolourproject_2stim_asymm_v5,2020.2.10,Linux x86_64,60,61025ae37ef11b136ea224fe,,,,,,,,,3830,54.2020874,14.8631897,1,0,0,response1disk,,6,23.82037354,-3.202148438,1,0,0,rectangle,23.82037354,-3.202148438,1,0,0,23.82037354,-3.202148438,1,0,0,1,32,192,91,1,,,,,,,,
,,,,,,,,,,,,,FF,,,,,,,,2.08285,,,,,,,,,,,,,,,,,,,,,,60fcca515dbee0243a67c5d4,6103668583a9273083c856a8,2021-07-29_22h40.29.986,Simcolourproject_2stim_asymm_v5,2020.2.10,Linux x86_64,60,61025ae37ef11b136ea224fe,,,,,,,,,1408,35.50097656,52.8041687,1,0,0,response1disk,,7,21.38763428,-2.225708008,1,0,0,rectangle,21.38763428,-2.225708008,1,0,0,21.38763428,-2.225708008,1,0,0,1,33,193,41,1,,,,,,,,
,,,,,,,,,,,,,FF,,,,,,,,0.699985,,,,,,,,,,,,,,,,,,,,,,60fcca515dbee0243a67c5d4,6103668583a9273083c856a8,2021-07-29_22h40.29.986,Simcolourproject_2stim_asymm_v5,2020.2.10,Linux x86_64,60,61025ae37ef11b136ea224fe,,,,,,,,,3220,44.61834717,35.55505371,1,0,0,response1disk,,6,16.52038574,6.4112854,1,0,0,rectangle,16.52038574,6.4112854,1,0,0,16.52038574,6.4112854,1,0,0,1,34,194,58,1,,,,,,,,
,,,,,,,,,,,,,FF,,,,,,,,1.115645,,,,,,,,,,,,,,,,,,,,,,60fcca515dbee0243a67c5d4,6103668583a9273083c856a8,2021-07-29_22h40.29.986,Simcolourproject_2stim_asymm_v5,2020.2.10,Linux x86_64,60,61025ae37ef11b136ea224fe,,,,,,,,,4351,26.17755127,-34.95611572,1,0,0,response3disk,,4,12.60253906,3.857940674,1,0,0,rectangle,12.60253906,3.857940674,1,0,0,12.60253906,3.857940674,1,0,0,1,35,195,80,1,,,,,,,,
,,,,,,,,,,,,,FF,,,,,,,,1.582925,,,,,,,,,,,,,,,,,,,,,,60fcca515dbee0243a67c5d4,6103668583a9273083c856a8,2021-07-29_22h40.29.986,Simcolourproject_2stim_asymm_v5,2020.2.10,Linux x86_64,60,61025ae37ef11b136ea224fe,,,,,,,,,636,23.25933838,-52.34588623,1,0,0,response3disk,,4,12.74920654,-11.50744629,1,0,0,rectangle,12.74920654,-11.50744629,1,0,0,12.74920654,-11.50744629,1,0,0,1,36,196,154,1,,,,,,,,
,,,,,,,,,,,,,FF,,,,,,,,1.599655,,,,,,,,,,,,,,,,,,,,,,60fcca515dbee0243a67c5d4,6103668583a9273083c856a8,2021-07-29_22h40.29.986,Simcolourproject_2stim_asymm_v5,2020.2.10,Linux x86_64,60,61025ae37ef11b136ea224fe,,,,,,,,,952,66.23223877,-34.35980225,1,0,0,response3disk,,5,19.50512695,-4.164337158,1,0,0,rectangle,19.50512695,-4.164337158,1,0,0,19.50512695,-4.164337158,1,0,0,1,37,197,2,1,,,,,,,,
,,,,,,,,,,,,,FF,,,,,,,,1.182925,,,,,,,,,,,,,,,,,,,,,,60fcca515dbee0243a67c5d4,6103668583a9273083c856a8,2021-07-29_22h40.29.986,Simcolourproject_2stim_asymm_v5,2020.2.10,Linux x86_64,60,61025ae37ef11b136ea224fe,,,,,,,,,2315,42.20672607,-31.09674072,1,0,0,response3disk,,5,17.47167969,-4.581878662,1,0,0,rectangle,17.47167969,-4.581878662,1,0,0,17.47167969,-4.581878662,1,0,0,1,38,198,83,1,,,,,,,,
,,,,,,,,,,,,,FF,,,,,,,,2.583945,,,,,,,,,,,,,,,,,,,,,,60fcca515dbee0243a67c5d4,6103668583a9273083c856a8,2021-07-29_22h40.29.986,Simcolourproject_2stim_asymm_v5,2020.2.10,Linux x86_64,60,61025ae37ef11b136ea224fe,,,,,,,,,1275,51.22418213,-25.68978882,1,0,0,response3disk,,5,26.69372559,0.662536621,1,0,0,rectangle,26.69372559,0.662536621,1,0,0,26.69372559,0.662536621,1,0,0,1,39,199,51,1,,,,,,,,
,,,,,,,,,,,,,FF,,,,,,,,0.71652,,,,,,,,,,,,,,,,,,,,,,60fcca515dbee0243a67c5d4,6103668583a9273083c856a8,2021-07-29_22h40.29.986,Simcolourproject_2stim_asymm_v5,2020.2.10,Linux x86_64,60,61025ae37ef11b136ea224fe,,,,,,,,,2277,61.09161377,21.19534302,1,0,0,response1disk,,6,28.2008667,0.346130371,1,0,0,rectangle,28.2008667,0.346130371,1,0,0,28.2008667,0.346130371,1,0,0,1,40,200,77,1,,,,,,,,
,,,,,,,,,,,,,FF,,,,,,,,0.766565,,,,,,,,,,,,,,,,,,,,,,60fcca515dbee0243a67c5d4,6103668583a9273083c856a8,2021-07-29_22h40.29.986,Simcolourproject_2stim_asymm_v5,2020.2.10,Linux x86_64,60,61025ae37ef11b136ea224fe,,,,,,,,,3903,49.26947021,31.46429443,1,0,0,response1disk,,6,16.64813232,7.90057373,1,0,0,rectangle,16.64813232,7.90057373,1,0,0,16.64813232,7.90057373,1,0,0,1,41,201,125,1,,,,,,,,
,,,,,,,,,,,,,FF,,,,,,,,0.833335,,,,,,,,,,,,,,,,,,,,,,60fcca515dbee0243a67c5d4,6103668583a9273083c856a8,2021-07-29_22h40.29.986,Simcolourproject_2stim_asymm_v5,2020.2.10,Linux x86_64,60,61025ae37ef11b136ea224fe,,,,,,,,,1357,23.28948975,38.49209595,1,0,0,response1disk,,7,12.69512939,9.598937988,1,0,0,rectangle,12.69512939,9.598937988,1,0,0,12.69512939,9.598937988,1,0,0,1,42,202,104,1,,,,,,,,
,,,,,,,,,,,,,FF,,,,,,,,0.848345,,,,,,,,,,,,,,,,,,,,,,60fcca515dbee0243a67c5d4,6103668583a9273083c856a8,2021-07-29_22h40.29.986,Simcolourproject_2stim_asymm_v5,2020.2.10,Linux x86_64,60,61025ae37ef11b136ea224fe,,,,,,,,,2459,23.79345703,42.02932739,1,0,0,response1disk,,7,8.914367676,-2.308990479,1,0,0,rectangle,8.914367676,-2.308990479,1,0,0,8.914367676,-2.308990479,1,0,0,1,43,203,85,1,,,,,,,,
,,,,,,,,,,,,,FF,,,,,,,,0.666305,,,,,,,,,,,,,,,,,,,,,,60fcca515dbee0243a67c5d4,6103668583a9273083c856a8,2021-07-29_22h40.29.986,Simcolourproject_2stim_asymm_v5,2020.2.10,Linux x86_64,60,61025ae37ef11b136ea224fe,,,,,,,,,1583,22.48394775,51.6361084,1,0,0,response1disk,,7,2.304443359,-5.733642578,1,0,0,rectangle,2.304443359,-5.733642578,1,0,0,2.304443359,-5.733642578,1,0,0,1,44,204,6,1,,,,,,,,
,,,,,,,,,,,,,FF,,,,,,,,1.48318,,,,,,,,,,,,,,,,,,,,,,60fcca515dbee0243a67c5d4,6103668583a9273083c856a8,2021-07-29_22h40.29.986,Simcolourproject_2stim_asymm_v5,2020.2.10,Linux x86_64,60,61025ae37ef11b136ea224fe,,,,,,,,,2497,40.12103271,30.59854126,1,0,0,response1disk,,6,15.53466797,4.190185547,1,0,0,rectangle,15.53466797,4.190185547,1,0,0,15.53466797,4.190185547,1,0,0,1,45,205,120,1,,,,,,,,
,,,,,,,,,,,,,FF,,,,,,,,0.63264,,,,,,,,,,,,,,,,,,,,,,60fcca515dbee0243a67c5d4,6103668583a9273083c856a8,2021-07-29_22h40.29.986,Simcolourproject_2stim_asymm_v5,2020.2.10,Linux x86_64,60,61025ae37ef11b136ea224fe,,,,,,,,,4141,40.84106445,32.26324463,1,0,0,response1disk,,6,17.30792236,-5.232177734,1,0,0,rectangle,17.30792236,-5.232177734,1,0,0,17.30792236,-5.232177734,1,0,0,1,46,206,148,1,,,,,,,,
,,,,,,,,,,,,,FF,,,,,,,,1.366415,,,,,,,,,,,,,,,,,,,,,,60fcca515dbee0243a67c5d4,6103668583a9273083c856a8,2021-07-29_22h40.29.986,Simcolourproject_2stim_asymm_v5,2020.2.10,Linux x86_64,60,61025ae37ef11b136ea224fe,,,,,,,,,1217,58.58874512,36.99560547,1,0,0,response1disk,,6,18.47106934,-1.938415527,1,0,0,rectangle,18.47106934,-1.938415527,1,0,0,18.47106934,-1.938415527,1,0,0,1,47,207,145,1,,,,,,,,
,,,,,,,,,,,,,FF,,,,,,,,0.983295,,,,,,,,,,,,,,,,,,,,,,60fcca515dbee0243a67c5d4,6103668583a9273083c856a8,2021-07-29_22h40.29.986,Simcolourproject_2stim_asymm_v5,2020.2.10,Linux x86_64,60,61025ae37ef11b136ea224fe,,,,,,,,,2750,25.21783447,46.23913574,1,0,0,response1disk,,7,17.71228027,11.85507202,1,0,0,rectangle,17.71228027,11.85507202,1,0,0,17.71228027,11.85507202,1,0,0,1,48,208,94,1,,,,,,,,
,,,,,,,,,,,,,FF,,,,,,,,0.648385,,,,,,,,,,,,,,,,,,,,,,60fcca515dbee0243a67c5d4,6103668583a9273083c856a8,2021-07-29_22h40.29.986,Simcolourproject_2stim_asymm_v5,2020.2.10,Linux x86_64,60,61025ae37ef11b136ea224fe,,,,,,,,,3495,32.84667969,43.49285889,1,0,0,response1disk,,7,21.75610352,4.713623047,1,0,0,rectangle,21.75610352,4.713623047,1,0,0,21.75610352,4.713623047,1,0,0,1,49,209,82,1,,,,,,,,
,,,,,,,,,,,,,FF,,,,,,,,0.66622,,,,,,,,,,,,,,,,,,,,,,60fcca515dbee0243a67c5d4,6103668583a9273083c856a8,2021-07-29_22h40.29.986,Simcolourproject_2stim_asymm_v5,2020.2.10,Linux x86_64,60,61025ae37ef11b136ea224fe,,,,,,,,,45,27.847229,48.69906616,1,0,0,response1disk,,7,18.97021484,11.22592163,1,0,0,rectangle,18.97021484,11.22592163,1,0,0,18.97021484,11.22592163,1,0,0,1,50,210,102,1,,,,,,,,
,,,,,,,,,,,,,FF,,,,,,,,0.982945,,,,,,,,,,,,,,,,,,,,,,60fcca515dbee0243a67c5d4,6103668583a9273083c856a8,2021-07-29_22h40.29.986,Simcolourproject_2stim_asymm_v5,2020.2.10,Linux x86_64,60,61025ae37ef11b136ea224fe,,,,,,,,,1676,44.25067139,-28.58493042,1,0,0,response3disk,,5,24.09069824,-1.22644043,1,0,0,rectangle,24.09069824,-1.22644043,1,0,0,24.09069824,-1.22644043,1,0,0,1,51,211,143,1,,,,,,,,
,,,,,,,,,,,,,FF,,,,,,,,0.899905,,,,,,,,,,,,,,,,,,,,,,60fcca515dbee0243a67c5d4,6103668583a9273083c856a8,2021-07-29_22h40.29.986,Simcolourproject_2stim_asymm_v5,2020.2.10,Linux x86_64,60,61025ae37ef11b136ea224fe,,,,,,,,,2625,42.97229004,27.31256104,1,0,0,response1disk,,6,23.43359375,5.976928711,1,0,0,rectangle,23.43359375,5.976928711,1,0,0,23.43359375,5.976928711,1,0,0,1,52,212,38,1,,,,,,,,
,,,,,,,,,,,,,FF,,,,,,,,1.04943,,,,,,,,,,,,,,,,,,,,,,60fcca515dbee0243a67c5d4,6103668583a9273083c856a8,2021-07-29_22h40.29.986,Simcolourproject_2stim_asymm_v5,2020.2.10,Linux x86_64,60,61025ae37ef11b136ea224fe,,,,,,,,,2219,59.2567749,-25.36877441,1,0,0,response3disk,,5,24.74121094,2.137329102,1,0,0,rectangle,24.74121094,2.137329102,1,0,0,24.74121094,2.137329102,1,0,0,1,53,213,74,1,,,,,,,,
,,,,,,,,,,,,,FF,,,,,,,,0.63497,,,,,,,,,,,,,,,,,,,,,,60fcca515dbee0243a67c5d4,6103668583a9273083c856a8,2021-07-29_22h40.29.986,Simcolourproject_2stim_asymm_v5,2020.2.10,Linux x86_64,60,61025ae37ef11b136ea224fe,,,,,,,,,2534,67.63000488,-34.39263916,1,0,0,response3disk,,5,30.22241211,-6.826385498,1,0,0,rectangle,96.24487305,47.03692627,1,0,0,30.16821289,-3.31854248,1,0,0,1,54,214,159,1,,response1disk_3,TRUE,6,6,"[84,217,264,149,15,97,130,105,215,7,169,41,128,315,240,231,44,258,159,49]",1.74948,rectangle
,,,,,,,,,,,,,FF,,,,,,,,1.03286,,,,,,,,,,,,,,,,,,,,,,60fcca515dbee0243a67c5d4,6103668583a9273083c856a8,2021-07-29_22h40.29.986,Simcolourproject_2stim_asymm_v5,2020.2.10,Linux x86_64,60,61025ae37ef11b136ea224fe,,,,,,,,,320,54.46026611,23.28762817,1,0,0,response1disk,,6,31.97509766,3.396911621,1,0,0,rectangle,31.97509766,3.396911621,1,0,0,31.97509766,3.396911621,1,0,0,1,55,215,79,1,,,,,,,,
,,,,,,,,,,,,,FF,,,,,,,,0.732625,,,,,,,,,,,,,,,,,,,,,,60fcca515dbee0243a67c5d4,6103668583a9273083c856a8,2021-07-29_22h40.29.986,Simcolourproject_2stim_asymm_v5,2020.2.10,Linux x86_64,60,61025ae37ef11b136ea224fe,,,,,,,,,160,55.47796631,39.01000977,1,0,0,response1disk,,6,17.94049072,-1.815490723,1,0,0,rectangle,-26.64001465,-47.28656006,1,0,0,4.705200195,2.368530273,1,0,0,1,56,216,20,1,,response5disk_3,TRUE,3,3,"[84,217,264,149,15,97,130,105,215,7,169,41,128,315,240,231,44,258,159,49]",1.38274,rectangle
,,,,,,,,,,,,,FF,,,,,,,,1.06659,,,,,,,,,,,,,,,,,,,,,,60fcca515dbee0243a67c5d4,6103668583a9273083c856a8,2021-07-29_22h40.29.986,Simcolourproject_2stim_asymm_v5,2020.2.10,Linux x86_64,60,61025ae37ef11b136ea224fe,,,,,,,,,2485,39.8973999,-26.71011353,1,0,0,response3disk,,5,18.49041748,-4.595214844,1,0,0,rectangle,18.49041748,-4.595214844,1,0,0,18.49041748,-4.595214844,1,0,0,1,57,217,153,1,,,,,,,,
,,,,,,,,,,,,,FF,,,,,,,,0.98346,,,,,,,,,,,,,,,,,,,,,,60fcca515dbee0243a67c5d4,6103668583a9273083c856a8,2021-07-29_22h40.29.986,Simcolourproject_2stim_asymm_v5,2020.2.10,Linux x86_64,60,61025ae37ef11b136ea224fe,,,,,,,,,2449,56.26257324,26.52542114,1,0,0,response1disk,,6,2.981323242,-14.8097229,1,0,0,rectangle,2.981323242,-14.8097229,1,0,0,2.981323242,-14.8097229,1,0,0,1,58,218,47,1,,,,,,,,
,,,,,,,,,,,,,FF,,,,,,,,1.14889,,,,,,,,,,,,,,,,,,,,,,60fcca515dbee0243a67c5d4,6103668583a9273083c856a8,2021-07-29_22h40.29.986,Simcolourproject_2stim_asymm_v5,2020.2.10,Linux x86_64,60,61025ae37ef11b136ea224fe,,,,,,,,,197,41.89691162,-26.0524292,1,0,0,response3disk,,5,24.60107422,-10.19750977,1,0,0,rectangle,24.60107422,-10.19750977,1,0,0,24.60107422,-10.19750977,1,0,0,1,59,219,118,1,,,,,,,,
,,,,,,,,,,,,,FF,,,,,,,,1.549975,,,,,,,,,,,,,,,,,,,,,,60fcca515dbee0243a67c5d4,6103668583a9273083c856a8,2021-07-29_22h40.29.986,Simcolourproject_2stim_asymm_v5,2020.2.10,Linux x86_64,60,61025ae37ef11b136ea224fe,,,,,,,,,1450,-30.12731934,-70.59188843,1,0,0,response5disk,,3,4.092834473,-8.099517822,1,0,0,rectangle,4.092834473,-8.099517822,1,0,0,4.092834473,-8.099517822,1,0,0,1,60,220,100,1,,,,,,,,
,,,,,,,,,,,,,FF,,,,,,,,0.81618,,,,,,,,,,,,,,,,,,,,,,60fcca515dbee0243a67c5d4,6103668583a9273083c856a8,2021-07-29_22h40.29.986,Simcolourproject_2stim_asymm_v5,2020.2.10,Linux x86_64,60,61025ae37ef11b136ea224fe,,,,,,,,,956,46.96044922,-24.05422974,1,0,0,response3disk,,5,18.82751465,0.934082031,1,0,0,rectangle,18.82751465,0.934082031,1,0,0,18.82751465,0.934082031,1,0,0,1,61,221,7,1,,,,,,,,
,,,,,,,,,,,,,FF,,,,,,,,0.94997,,,,,,,,,,,,,,,,,,,,,,60fcca515dbee0243a67c5d4,6103668583a9273083c856a8,2021-07-29_22h40.29.986,Simcolourproject_2stim_asymm_v5,2020.2.10,Linux x86_64,60,61025ae37ef11b136ea224fe,,,,,,,,,1100,89.67840576,32.82681274,1,0,0,response1disk,,6,31.31622314,8.502990723,1,0,0,rectangle,31.31622314,8.502990723,1,0,0,31.31622314,8.502990723,1,0,0,1,62,222,158,1,,,,,,,,
,,,,,,,,,,,,,FF,,,,,,,,1.482885,,,,,,,,,,,,,,,,,,,,,,60fcca515dbee0243a67c5d4,6103668583a9273083c856a8,2021-07-29_22h40.29.986,Simcolourproject_2stim_asymm_v5,2020.2.10,Linux x86_64,60,61025ae37ef11b136ea224fe,,,,,,,,,1679,28.34289551,-67.28085327,1,0,0,response3disk,,4,10.05053711,-6.56552124,1,0,0,rectangle,10.05053711,-6.56552124,1,0,0,10.05053711,-6.56552124,1,0,0,1,63,223,0,1,,,,,,,,
,,,,,,,,,,,,,FF,,,,,,,,0.983245,,,,,,,,,,,,,,,,,,,,,,60fcca515dbee0243a67c5d4,6103668583a9273083c856a8,2021-07-29_22h40.29.986,Simcolourproject_2stim_asymm_v5,2020.2.10,Linux x86_64,60,61025ae37ef11b136ea224fe,,,,,,,,,3990,57.52270508,45.70800781,1,0,0,response1disk,,6,29.37145996,9.880645752,1,0,0,rectangle,29.37145996,9.880645752,1,0,0,29.37145996,9.880645752,1,0,0,1,64,224,140,1,,,,,,,,
,,,,,,,,,,,,,FF,,,,,,,,1.349305,,,,,,,,,,,,,,,,,,,,,,60fcca515dbee0243a67c5d4,6103668583a9273083c856a8,2021-07-29_22h40.29.986,Simcolourproject_2stim_asymm_v5,2020.2.10,Linux x86_64,60,61025ae37ef11b136ea224fe,,,,,,,,,2362,25.43841553,-47.82446289,1,0,0,response3disk,,4,2.118652344,-8.542419434,1,0,0,rectangle,2.118652344,-8.542419434,1,0,0,2.118652344,-8.542419434,1,0,0,1,65,225,112,1,,,,,,,,
,,,,,,,,,,,,,FF,,,,,,,,2.849335,,,,,,,,,,,,,,,,,,,,,,60fcca515dbee0243a67c5d4,6103668583a9273083c856a8,2021-07-29_22h40.29.986,Simcolourproject_2stim_asymm_v5,2020.2.10,Linux x86_64,60,61025ae37ef11b136ea224fe,,,,,,,,,1916,58.43634033,-36.84829712,1,0,0,response3disk,,5,16.03796387,-2.941833496,1,0,0,rectangle,16.03796387,-2.941833496,1,0,0,16.03796387,-2.941833496,1,0,0,1,66,226,1,1,,,,,,,,
,,,,,,,,,,,,,FF,,,,,,,,1.033155,,,,,,,,,,,,,,,,,,,,,,60fcca515dbee0243a67c5d4,6103668583a9273083c856a8,2021-07-29_22h40.29.986,Simcolourproject_2stim_asymm_v5,2020.2.10,Linux x86_64,60,61025ae37ef11b136ea224fe,,,,,,,,,1739,43.46270752,30.34753418,1,0,0,response1disk,,6,22.25585938,4.218078613,1,0,0,rectangle,22.25585938,4.218078613,1,0,0,22.25585938,4.218078613,1,0,0,1,67,227,16,1,,,,,,,,
,,,,,,,,,,,,,FF,,,,,,,,1.049515,,,,,,,,,,,,,,,,,,,,,,60fcca515dbee0243a67c5d4,6103668583a9273083c856a8,2021-07-29_22h40.29.986,Simcolourproject_2stim_asymm_v5,2020.2.10,Linux x86_64,60,61025ae37ef11b136ea224fe,,,,,,,,,3229,37.3895874,-22.30282593,1,0,0,response3disk,,5,20.20996094,-6.185791016,1,0,0,rectangle,20.20996094,-6.185791016,1,0,0,20.20996094,-6.185791016,1,0,0,1,68,228,93,1,,,,,,,,
,,,,,,,,,,,,,FF,,,,,,,,1.116015,,,,,,,,,,,,,,,,,,,,,,60fcca515dbee0243a67c5d4,6103668583a9273083c856a8,2021-07-29_22h40.29.986,Simcolourproject_2stim_asymm_v5,2020.2.10,Linux x86_64,60,61025ae37ef11b136ea224fe,,,,,,,,,2342,55.14172363,18.34729004,1,0,0,response1disk,,6,19.39672852,0.721832275,1,0,0,rectangle,19.39672852,0.721832275,1,0,0,19.39672852,0.721832275,1,0,0,1,69,229,11,1,,,,,,,,
,,,,,,,,,,,,,FF,,,,,,,,1.299255,,,,,,,,,,,,,,,,,,,,,,60fcca515dbee0243a67c5d4,6103668583a9273083c856a8,2021-07-29_22h40.29.986,Simcolourproject_2stim_asymm_v5,2020.2.10,Linux x86_64,60,61025ae37ef11b136ea224fe,,,,,,,,,992,66.31311035,36.16226196,1,0,0,response1disk,,6,14.19213867,-4.549530029,1,0,0,rectangle,-18.52545166,77.49749756,1,0,0,14.99371338,-3.343231201,1,0,0,1,70,230,49,1,,response7disk_3,TRUE,0,0,"[84,217,264,149,15,97,130,105,215,7,169,41,128,315,240,231,44,258,159,49]",1.79936,rectangle
,,,,,,,,,,,,,FF,,,,,,,,1.566985,,,,,,,,,,,,,,,,,,,,,,60fcca515dbee0243a67c5d4,6103668583a9273083c856a8,2021-07-29_22h40.29.986,Simcolourproject_2stim_asymm_v5,2020.2.10,Linux x86_64,60,61025ae37ef11b136ea224fe,,,,,,,,,1160,61.38861084,42.72293091,1,0,0,response1disk,,6,26.81878662,3.906311035,1,0,0,rectangle,26.81878662,3.906311035,1,0,0,26.81878662,3.906311035,1,0,0,1,71,231,53,1,,,,,,,,
,,,,,,,,,,,,,FF,,,,,,,,2.149765,,,,,,,,,,,,,,,,,,,,,,60fcca515dbee0243a67c5d4,6103668583a9273083c856a8,2021-07-29_22h40.29.986,Simcolourproject_2stim_asymm_v5,2020.2.10,Linux x86_64,60,61025ae37ef11b136ea224fe,,,,,,,,,3413,56.44610596,17.47024536,1,0,0,response1disk,,6,30.13079834,1.927429199,1,0,0,rectangle,30.13079834,1.927429199,1,0,0,30.13079834,1.927429199,1,0,0,1,72,232,65,1,,,,,,,,
,,,,,,,,,,,,,FF,,,,,,,,0.750195,,,,,,,,,,,,,,,,,,,,,,60fcca515dbee0243a67c5d4,6103668583a9273083c856a8,2021-07-29_22h40.29.986,Simcolourproject_2stim_asymm_v5,2020.2.10,Linux x86_64,60,61025ae37ef11b136ea224fe,,,,,,,,,2060,51.62225342,-25.27453613,1,0,0,response3disk,,5,28.57373047,-5.895080566,1,0,0,rectangle,28.57373047,-5.895080566,1,0,0,28.57373047,-5.895080566,1,0,0,1,73,233,44,1,,,,,,,,
,,,,,,,,,,,,,FF,,,,,,,,0.66617,,,,,,,,,,,,,,,,,,,,,,60fcca515dbee0243a67c5d4,6103668583a9273083c856a8,2021-07-29_22h40.29.986,Simcolourproject_2stim_asymm_v5,2020.2.10,Linux x86_64,60,61025ae37ef11b136ea224fe,,,,,,,,,1250,68.36138916,22.41690063,1,0,0,response1disk,,6,28.23834229,-1.320953369,1,0,0,rectangle,28.23834229,-1.320953369,1,0,0,28.23834229,-1.320953369,1,0,0,1,74,234,45,1,,,,,,,,
,,,,,,,,,,,,,FF,,,,,,,,1.416145,,,,,,,,,,,,,,,,,,,,,,60fcca515dbee0243a67c5d4,6103668583a9273083c856a8,2021-07-29_22h40.29.986,Simcolourproject_2stim_asymm_v5,2020.2.10,Linux x86_64,60,61025ae37ef11b136ea224fe,,,,,,,,,3659,58.60577393,31.12640381,1,0,0,response1disk,,6,-0.648498535,-9.219146729,1,0,0,rectangle,-0.648498535,-9.219146729,1,0,0,-0.648498535,-9.219146729,1,0,0,1,75,235,19,1,,,,,,,,
,,,,,,,,,,,,,FF,,,,,,,,0.833315,,,,,,,,,,,,,,,,,,,,,,60fcca515dbee0243a67c5d4,6103668583a9273083c856a8,2021-07-29_22h40.29.986,Simcolourproject_2stim_asymm_v5,2020.2.10,Linux x86_64,60,61025ae37ef11b136ea224fe,,,,,,,,,3942,39.42132568,-29.10974121,1,0,0,response3disk,,5,16.93603516,-4.750793457,1,0,0,rectangle,16.93603516,-4.750793457,1,0,0,16.93603516,-4.750793457,1,0,0,1,76,236,57,1,,,,,,,,
,,,,,,,,,,,,,FF,,,,,,,,1.599585,,,,,,,,,,,,,,,,,,,,,,60fcca515dbee0243a67c5d4,6103668583a9273083c856a8,2021-07-29_22h40.29.986,Simcolourproject_2stim_asymm_v5,2020.2.10,Linux x86_64,60,61025ae37ef11b136ea224fe,,,,,,,,,4329,63.00848389,-28.56637573,1,0,0,response3disk,,5,-8.242126465,4.8175354,1,0,0,rectangle,-8.242126465,4.8175354,1,0,0,-8.242126465,4.8175354,1,0,0,1,77,237,39,1,,,,,,,,
