key_resp.keys,key_resp.rt,key_resp_14.keys,key_resp_14.rt,key_resp_15.keys,key_resp_15.rt,key_resp_17.keys,key_resp_17.rt,key_resp_9.keys,key_resp_9.rt,key_resp_10.keys,key_resp_10.rt,practice_comparison,Ecc,mouse_5.x,mouse_5.y,mouse_5.leftButton,mouse_5.midButton,mouse_5.rightButton,mouse_5.clicked_name,pracsimilarity,response_time,mouse_10.x,mouse_10.y,mouse_10.leftButton,mouse_10.midButton,mouse_10.rightButton,mouse_10.clicked_name,mouse_7.x,mouse_7.y,mouse_7.leftButton,mouse_7.midButton,mouse_7.rightButton,mouse_6.x,mouse_6.y,mouse_6.leftButton,mouse_6.midButton,mouse_6.rightButton,duringprac.thisRepN,duringprac.thisTrialN,duringprac.thisN,duringprac.thisIndex,duringprac.ran,participant,session,date,expName,psychopyVersion,OS,frameRate,study_id,mouse_7.clicked_name,catchpracsimilarity,catch_response_time,catchnumberprac,catchtrialorderprac,mouse_6.clicked_name,key_resp_22.keys,key_resp_22.rt,realcomparison,mouse.x,mouse.y,mouse.leftButton,mouse.midButton,mouse.rightButton,mouse.clicked_name,Colour2,similarity,mouse_2.x,mouse_2.y,mouse_2.leftButton,mouse_2.midButton,mouse_2.rightButton,mouse_2.clicked_name,mouse_3.x,mouse_3.y,mouse_3.leftButton,mouse_3.midButton,mouse_3.rightButton,mouse_11.x,mouse_11.y,mouse_11.leftButton,mouse_11.midButton,mouse_11.rightButton,trials_2.thisRepN,trials_2.thisTrialN,trials_2.thisN,trials_2.thisIndex,trials_2.ran,Colour1,mouse_3.clicked_name,catchornah,catchsimilarity,catchnumber,catchtrialorder,catchRT,mouse_11.clicked_name,trials_2.order
space,1.069,space,20.9625,space,15.8359,space,3.7689,space,0.6814,space,2.4954,104,FF,57.33829355,-80.79439241,1,0,0,response3disk_5,4,11.0697,-16.88075053,3.524261193,1,0,0,rectangle_8,-16.88075053,3.524261193,1,0,0,-16.88075053,3.524261193,1,0,0,0,0,0,5,1,60fcbd2e5fe1b36118174cb6,61036e9cf105adf521ac049b,2021-07-29_20h15.34.824,Simcolourproject_2stim_asymm_v5,2020.2.10,Linux x86_64,60,61025ae37ef11b136ea224fe,,,,,,,,,,,,,,,,,,,,,,,,,,,,,,,,,,,,,,,,,,,,,,,
,,,,,,,,,,,,131,FF,-67.50721612,-82.90772252,1,0,0,response5disk_5,3,7.1913,2.780822032,1.160540455,1,0,0,rectangle_8,-88.1953512,48.68480874,1,0,0,12.34444522,-2.475006474,1,0,0,0,1,1,3,1,60fcbd2e5fe1b36118174cb6,61036e9cf105adf521ac049b,2021-07-29_20h15.34.824,Simcolourproject_2stim_asymm_v5,2020.2.10,Linux x86_64,60,61025ae37ef11b136ea224fe,response7disk_7,1,4.6299,1,"[2,5]",rectangle_4,,,,,,,,,,,,,,,,,,,,,,,,,,,,,,,,,,,,,,,,,
,,,,,,,,,,,,63,PF,99.69542309,45.5995792,1,0,0,response1disk_5,6,5.3223,-29.91478392,-8.205768278,1,0,0,rectangle_8,-29.91478392,-8.205768278,1,0,0,-29.91478392,-8.205768278,1,0,0,0,2,2,2,1,60fcbd2e5fe1b36118174cb6,61036e9cf105adf521ac049b,2021-07-29_20h15.34.824,Simcolourproject_2stim_asymm_v5,2020.2.10,Linux x86_64,60,61025ae37ef11b136ea224fe,,,,,,,,,,,,,,,,,,,,,,,,,,,,,,,,,,,,,,,,,,,,,,,
,,,,,,,,,,,,83,PF,-113.2497949,-64.76978279,1,0,0,response5disk_5,2,3.5093,25.07637901,11.2127867,1,0,0,rectangle_8,25.07637901,11.2127867,1,0,0,25.07637901,11.2127867,1,0,0,0,3,3,4,1,60fcbd2e5fe1b36118174cb6,61036e9cf105adf521ac049b,2021-07-29_20h15.34.824,Simcolourproject_2stim_asymm_v5,2020.2.10,Linux x86_64,60,61025ae37ef11b136ea224fe,,,,,,,,,,,,,,,,,,,,,,,,,,,,,,,,,,,,,,,,,,,,,,,
,,,,,,,,,,,,113,PF,28.72359586,113.8759962,1,0,0,response1disk_5,7,1.5258,-24.08206899,-3.339557268,1,0,0,rectangle_8,-91.58182586,31.53346571,1,0,0,-13.65257665,1.250921316,1,0,0,0,4,4,1,1,60fcbd2e5fe1b36118174cb6,61036e9cf105adf521ac049b,2021-07-29_20h15.34.824,Simcolourproject_2stim_asymm_v5,2020.2.10,Linux x86_64,60,61025ae37ef11b136ea224fe,response7disk_7,1,2.2577,1,"[2,5]",rectangle_4,,,,,,,,,,,,,,,,,,,,,,,,,,,,,,,,,,,,,,,,,
,,,,,,,,,,,,3,PF,107.6405404,-65.94029062,1,0,0,response3disk_5,5,2.4188,-30.12147338,-2.568805304,1,0,0,rectangle_8,-30.12147338,-2.568805304,1,0,0,-30.12147338,-2.568805304,1,0,0,0,5,5,6,1,60fcbd2e5fe1b36118174cb6,61036e9cf105adf521ac049b,2021-07-29_20h15.34.824,Simcolourproject_2stim_asymm_v5,2020.2.10,Linux x86_64,60,61025ae37ef11b136ea224fe,,,,,,,,,,,,,,,,,,,,,,,,,,,,,,,,,,,,,,,,,,,,,,,
,,,,,,,,,,,,9,FF,117.1169077,29.63422252,1,0,0,response1disk_5,6,1.9306,-4.365271824,12.38807968,1,0,0,rectangle_8,-4.365271824,12.38807968,1,0,0,-4.365271824,12.38807968,1,0,0,0,6,6,0,1,60fcbd2e5fe1b36118174cb6,61036e9cf105adf521ac049b,2021-07-29_20h15.34.824,Simcolourproject_2stim_asymm_v5,2020.2.10,Linux x86_64,60,61025ae37ef11b136ea224fe,,,,,,,,,,,,,,,,,,,,,,,,,,,,,,,,,,,,,,,,,,,,,,,
,,,,,,,,,,,,,FF,,,,,,,,1.4685,,,,,,,,,,,,,,,,,,,,,,60fcbd2e5fe1b36118174cb6,61036e9cf105adf521ac049b,2021-07-29_20h15.34.824,Simcolourproject_2stim_asymm_v5,2020.2.10,Linux x86_64,60,61025ae37ef11b136ea224fe,,,,,,,space,1.7523,2158,97.19513008,49.04420816,1,0,0,response1disk,,6,9.247863144,-3.881451808,1,0,0,rectangle,9.247863144,-3.881451808,1,0,0,9.247863144,-3.881451808,1,0,0,0,0,0,41,1,,,,,,,,,
,,,,,,,,,,,,,FF,,,,,,,,3.379,,,,,,,,,,,,,,,,,,,,,,60fcbd2e5fe1b36118174cb6,61036e9cf105adf521ac049b,2021-07-29_20h15.34.824,Simcolourproject_2stim_asymm_v5,2020.2.10,Linux x86_64,60,61025ae37ef11b136ea224fe,,,,,,,,,3265,21.45137895,118.5509231,1,0,0,response1disk,,7,2.177697023,-8.120856168,1,0,0,rectangle,2.177697023,-8.120856168,1,0,0,2.177697023,-8.120856168,1,0,0,0,1,1,70,1,,,,,,,,,
,,,,,,,,,,,,,FF,,,,,,,,1.3637,,,,,,,,,,,,,,,,,,,,,,60fcbd2e5fe1b36118174cb6,61036e9cf105adf521ac049b,2021-07-29_20h15.34.824,Simcolourproject_2stim_asymm_v5,2020.2.10,Linux x86_64,60,61025ae37ef11b136ea224fe,,,,,,,,,4069,81.61876266,125.8477982,1,0,0,response1disk,,7,25.26563682,0.788470137,1,0,0,rectangle,25.26563682,0.788470137,1,0,0,25.26563682,0.788470137,1,0,0,0,2,2,101,1,,,,,,,,,
,,,,,,,,,,,,,FF,,,,,,,,1.398,,,,,,,,,,,,,,,,,,,,,,60fcbd2e5fe1b36118174cb6,61036e9cf105adf521ac049b,2021-07-29_20h15.34.824,Simcolourproject_2stim_asymm_v5,2020.2.10,Linux x86_64,60,61025ae37ef11b136ea224fe,,,,,,,,,3828,49.2457153,-87.60230266,1,0,0,response3disk,,4,-16.6249888,9.139739793,1,0,0,rectangle,-16.6249888,9.139739793,1,0,0,-16.6249888,9.139739793,1,0,0,0,3,3,47,1,,,,,,,,,
,,,,,,,,,,,,,FF,,,,,,,,2.1798,,,,,,,,,,,,,,,,,,,,,,60fcbd2e5fe1b36118174cb6,61036e9cf105adf521ac049b,2021-07-29_20h15.34.824,Simcolourproject_2stim_asymm_v5,2020.2.10,Linux x86_64,60,61025ae37ef11b136ea224fe,,,,,,,,,2097,-48.84412991,-66.02544687,1,0,0,response5disk,,3,13.30718938,15.04813832,1,0,0,rectangle,13.30718938,15.04813832,1,0,0,13.30718938,15.04813832,1,0,0,0,4,4,154,1,,,,,,,,,
,,,,,,,,,,,,,FF,,,,,,,,1.7162,,,,,,,,,,,,,,,,,,,,,,60fcbd2e5fe1b36118174cb6,61036e9cf105adf521ac049b,2021-07-29_20h15.34.824,Simcolourproject_2stim_asymm_v5,2020.2.10,Linux x86_64,60,61025ae37ef11b136ea224fe,,,,,,,,,661,108.3298959,26.67450568,1,0,0,response1disk,,6,14.8603144,9.539544486,1,0,0,rectangle,14.8603144,9.539544486,1,0,0,14.8603144,9.539544486,1,0,0,0,5,5,115,1,,,,,,,,,
,,,,,,,,,,,,,FF,,,,,,,,1.1323,,,,,,,,,,,,,,,,,,,,,,60fcbd2e5fe1b36118174cb6,61036e9cf105adf521ac049b,2021-07-29_20h15.34.824,Simcolourproject_2stim_asymm_v5,2020.2.10,Linux x86_64,60,61025ae37ef11b136ea224fe,,,,,,,,,4016,51.21446533,66.99818792,1,0,0,response1disk,,7,4.523986121,1.237249441,1,0,0,rectangle,4.523986121,1.237249441,1,0,0,4.523986121,1.237249441,1,0,0,0,6,6,75,1,,,,,,,,,
,,,,,,,,,,,,,FF,,,,,,,,1.1661,,,,,,,,,,,,,,,,,,,,,,60fcbd2e5fe1b36118174cb6,61036e9cf105adf521ac049b,2021-07-29_20h15.34.824,Simcolourproject_2stim_asymm_v5,2020.2.10,Linux x86_64,60,61025ae37ef11b136ea224fe,,,,,,,,,3975,-31.00921753,-85.31182411,1,0,0,response5disk,,3,-11.22157075,-14.52798517,1,0,0,rectangle,-11.22157075,-14.52798517,1,0,0,-11.22157075,-14.52798517,1,0,0,0,7,7,74,1,,,,,,,,,
,,,,,,,,,,,,,FF,,,,,,,,1.033,,,,,,,,,,,,,,,,,,,,,,60fcbd2e5fe1b36118174cb6,61036e9cf105adf521ac049b,2021-07-29_20h15.34.824,Simcolourproject_2stim_asymm_v5,2020.2.10,Linux x86_64,60,61025ae37ef11b136ea224fe,,,,,,,,,4030,73.6641727,42.01000395,1,0,0,response1disk,,6,25.63155479,6.555950692,1,0,0,rectangle,25.63155479,6.555950692,1,0,0,25.63155479,6.555950692,1,0,0,0,8,8,134,1,,,,,,,,,
,,,,,,,,,,,,,FF,,,,,,,,1.2495,,,,,,,,,,,,,,,,,,,,,,60fcbd2e5fe1b36118174cb6,61036e9cf105adf521ac049b,2021-07-29_20h15.34.824,Simcolourproject_2stim_asymm_v5,2020.2.10,Linux x86_64,60,61025ae37ef11b136ea224fe,,,,,,,,,743,64.01798115,30.13490612,1,0,0,response1disk,,6,16.07808786,11.30111678,1,0,0,rectangle,16.07808786,11.30111678,1,0,0,16.07808786,11.30111678,1,0,0,0,9,9,60,1,,,,,,,,,
,,,,,,,,,,,,,FF,,,,,,,,1.615,,,,,,,,,,,,,,,,,,,,,,60fcbd2e5fe1b36118174cb6,61036e9cf105adf521ac049b,2021-07-29_20h15.34.824,Simcolourproject_2stim_asymm_v5,2020.2.10,Linux x86_64,60,61025ae37ef11b136ea224fe,,,,,,,,,210,83.9843877,-30.52149127,1,0,0,response3disk,,5,20.69879105,0.969866624,1,0,0,rectangle,20.69879105,0.969866624,1,0,0,20.69879105,0.969866624,1,0,0,0,10,10,11,1,,,,,,,,,
,,,,,,,,,,,,,FF,,,,,,,,1.3171,,,,,,,,,,,,,,,,,,,,,,60fcbd2e5fe1b36118174cb6,61036e9cf105adf521ac049b,2021-07-29_20h15.34.824,Simcolourproject_2stim_asymm_v5,2020.2.10,Linux x86_64,60,61025ae37ef11b136ea224fe,,,,,,,,,2649,62.94503191,30.99586805,1,0,0,response1disk,,6,18.35474805,9.078558151,1,0,0,rectangle,18.35474805,9.078558151,1,0,0,18.35474805,9.078558151,1,0,0,0,11,11,67,1,,,,,,,,,
,,,,,,,,,,,,,FF,,,,,,,,1.3338,,,,,,,,,,,,,,,,,,,,,,60fcbd2e5fe1b36118174cb6,61036e9cf105adf521ac049b,2021-07-29_20h15.34.824,Simcolourproject_2stim_asymm_v5,2020.2.10,Linux x86_64,60,61025ae37ef11b136ea224fe,,,,,,,,,1697,29.22701383,-96.31450983,1,0,0,response3disk,,4,-3.937293302,-11.63057302,1,0,0,rectangle,-3.937293302,-11.63057302,1,0,0,-3.937293302,-11.63057302,1,0,0,0,12,12,145,1,,,,,,,,,
,,,,,,,,,,,,,FF,,,,,,,,2.1016,,,,,,,,,,,,,,,,,,,,,,60fcbd2e5fe1b36118174cb6,61036e9cf105adf521ac049b,2021-07-29_20h15.34.824,Simcolourproject_2stim_asymm_v5,2020.2.10,Linux x86_64,60,61025ae37ef11b136ea224fe,,,,,,,,,1437,64.38370381,19.30883174,1,0,0,response1disk,,6,17.89840038,8.130755403,1,0,0,rectangle,17.89840038,8.130755403,1,0,0,17.89840038,8.130755403,1,0,0,0,13,13,133,1,,,,,,,,,
,,,,,,,,,,,,,FF,,,,,,,,2.9968,,,,,,,,,,,,,,,,,,,,,,60fcbd2e5fe1b36118174cb6,61036e9cf105adf521ac049b,2021-07-29_20h15.34.824,Simcolourproject_2stim_asymm_v5,2020.2.10,Linux x86_64,60,61025ae37ef11b136ea224fe,,,,,,,,,4282,-62.52689378,72.82638625,1,0,0,response7disk,,0,3.699523218,7.07181984,1,0,0,rectangle,3.699523218,7.07181984,1,0,0,3.699523218,7.07181984,1,0,0,0,14,14,14,1,,,,,,,,,
,,,,,,,,,,,,,FF,,,,,,,,1.3988,,,,,,,,,,,,,,,,,,,,,,60fcbd2e5fe1b36118174cb6,61036e9cf105adf521ac049b,2021-07-29_20h15.34.824,Simcolourproject_2stim_asymm_v5,2020.2.10,Linux x86_64,60,61025ae37ef11b136ea224fe,,,,,,,,,1146,38.23751201,-35.10298548,1,0,0,response3disk,,5,3.258556415,13.85726916,1,0,0,rectangle,3.258556415,13.85726916,1,0,0,3.258556415,13.85726916,1,0,0,0,15,15,59,1,,,,,,,,,
,,,,,,,,,,,,,FF,,,,,,,,1.0013,,,,,,,,,,,,,,,,,,,,,,60fcbd2e5fe1b36118174cb6,61036e9cf105adf521ac049b,2021-07-29_20h15.34.824,Simcolourproject_2stim_asymm_v5,2020.2.10,Linux x86_64,60,61025ae37ef11b136ea224fe,,,,,,,,,89,124.8285289,71.83998487,1,0,0,response1disk,,6,-18.10697125,-4.508600254,1,0,0,rectangle,-18.10697125,-4.508600254,1,0,0,-18.10697125,-4.508600254,1,0,0,0,16,16,103,1,,,,,,,,,
,,,,,,,,,,,,,FF,,,,,,,,0.8663,,,,,,,,,,,,,,,,,,,,,,60fcbd2e5fe1b36118174cb6,61036e9cf105adf521ac049b,2021-07-29_20h15.34.824,Simcolourproject_2stim_asymm_v5,2020.2.10,Linux x86_64,60,61025ae37ef11b136ea224fe,,,,,,,,,2063,39.82125227,72.65138625,1,0,0,response1disk,,7,-4.271033541,-9.136090558,1,0,0,rectangle,-4.271033541,-9.136090558,1,0,0,-4.271033541,-9.136090558,1,0,0,0,17,17,63,1,,,,,,,,,
,,,,,,,,,,,,,FF,,,,,,,,1.6315,,,,,,,,,,,,,,,,,,,,,,60fcbd2e5fe1b36118174cb6,61036e9cf105adf521ac049b,2021-07-29_20h15.34.824,Simcolourproject_2stim_asymm_v5,2020.2.10,Linux x86_64,60,61025ae37ef11b136ea224fe,,,,,,,,,4087,20.62281449,-92.02827929,1,0,0,response3disk,,4,0.842980207,9.6584898,1,0,0,rectangle,0.842980207,9.6584898,1,0,0,0.842980207,9.6584898,1,0,0,0,18,18,43,1,,,,,,,,,
,,,,,,,,,,,,,FF,,,,,,,,1.0493,,,,,,,,,,,,,,,,,,,,,,60fcbd2e5fe1b36118174cb6,61036e9cf105adf521ac049b,2021-07-29_20h15.34.824,Simcolourproject_2stim_asymm_v5,2020.2.10,Linux x86_64,60,61025ae37ef11b136ea224fe,,,,,,,,,384,83.04854784,39.90394924,1,0,0,response1disk,,6,22.95259968,10.13890973,1,0,0,rectangle,22.95259968,10.13890973,1,0,0,22.95259968,10.13890973,1,0,0,0,19,19,17,1,,,,,,,,,
,,,,,,,,,,,,,FF,,,,,,,,1.0798,,,,,,,,,,,,,,,,,,,,,,60fcbd2e5fe1b36118174cb6,61036e9cf105adf521ac049b,2021-07-29_20h15.34.824,Simcolourproject_2stim_asymm_v5,2020.2.10,Linux x86_64,60,61025ae37ef11b136ea224fe,,,,,,,,,2371,66.84219994,-38.83814178,1,0,0,response3disk,,5,21.4606563,-6.400201845,1,0,0,rectangle,21.4606563,-6.400201845,1,0,0,21.4606563,-6.400201845,1,0,0,0,20,20,76,1,,,,,,,,,
,,,,,,,,,,,,,FF,,,,,,,,0.915,,,,,,,,,,,,,,,,,,,,,,60fcbd2e5fe1b36118174cb6,61036e9cf105adf521ac049b,2021-07-29_20h15.34.824,Simcolourproject_2stim_asymm_v5,2020.2.10,Linux x86_64,60,61025ae37ef11b136ea224fe,,,,,,,,,2401,56.93262948,96.77392079,1,0,0,response1disk,,7,-4.276892917,-10.92793629,1,0,0,rectangle,-4.276892917,-10.92793629,1,0,0,-4.276892917,-10.92793629,1,0,0,0,21,21,50,1,,,,,,,,,
,,,,,,,,,,,,,FF,,,,,,,,1.1882,,,,,,,,,,,,,,,,,,,,,,60fcbd2e5fe1b36118174cb6,61036e9cf105adf521ac049b,2021-07-29_20h15.34.824,Simcolourproject_2stim_asymm_v5,2020.2.10,Linux x86_64,60,61025ae37ef11b136ea224fe,,,,,,,,,3602,76.82452431,30.32142956,1,0,0,response1disk,,6,15.20049995,-11.56138356,1,0,0,rectangle,15.20049995,-11.56138356,1,0,0,15.20049995,-11.56138356,1,0,0,0,22,22,114,1,,,,,,,,,
,,,,,,,,,,,,,FF,,,,,,,,1.1823,,,,,,,,,,,,,,,,,,,,,,60fcbd2e5fe1b36118174cb6,61036e9cf105adf521ac049b,2021-07-29_20h15.34.824,Simcolourproject_2stim_asymm_v5,2020.2.10,Linux x86_64,60,61025ae37ef11b136ea224fe,,,,,,,,,2487,58.91632092,-20.66118839,1,0,0,response3disk,,5,13.75880071,4.323382299,1,0,0,rectangle,-26.78348505,75.52743609,1,0,0,-0.186316684,-1.060211531,1,0,0,0,23,23,31,1,,response7disk_3,TRUE,0,0,"[110,188,241,318,157,24,30,142,106,80,284,150,68,168,216,323,164,157,184,113]",3.1368,rectangle,
,,,,,,,,,,,,,FF,,,,,,,,1.7326,,,,,,,,,,,,,,,,,,,,,,60fcbd2e5fe1b36118174cb6,61036e9cf105adf521ac049b,2021-07-29_20h15.34.824,Simcolourproject_2stim_asymm_v5,2020.2.10,Linux x86_64,60,61025ae37ef11b136ea224fe,,,,,,,,,762,98.61319651,52.02968184,1,0,0,response1disk,,6,-12.04852389,-5.744537773,1,0,0,rectangle,-12.04852389,-5.744537773,1,0,0,-12.04852389,-5.744537773,1,0,0,0,24,24,4,1,,,,,,,,,
,,,,,,,,,,,,,FF,,,,,,,,2.6658,,,,,,,,,,,,,,,,,,,,,,60fcbd2e5fe1b36118174cb6,61036e9cf105adf521ac049b,2021-07-29_20h15.34.824,Simcolourproject_2stim_asymm_v5,2020.2.10,Linux x86_64,60,61025ae37ef11b136ea224fe,,,,,,,,,4163,-24.25267446,81.52853482,1,0,0,response7disk,,0,6.698986153,-9.848346428,1,0,0,rectangle,6.698986153,-9.848346428,1,0,0,6.698986153,-9.848346428,1,0,0,0,25,25,140,1,,,,,,,,,
,,,,,,,,,,,,,FF,,,,,,,,1.0985,,,,,,,,,,,,,,,,,,,,,,60fcbd2e5fe1b36118174cb6,61036e9cf105adf521ac049b,2021-07-29_20h15.34.824,Simcolourproject_2stim_asymm_v5,2020.2.10,Linux x86_64,60,61025ae37ef11b136ea224fe,,,,,,,,,1944,126.7343883,27.76400765,1,0,0,response1disk,,6,23.61275594,12.16586288,1,0,0,rectangle,23.61275594,12.16586288,1,0,0,23.61275594,12.16586288,1,0,0,0,26,26,97,1,,,,,,,,,
,,,,,,,,,,,,,FF,,,,,,,,0.8342,,,,,,,,,,,,,,,,,,,,,,60fcbd2e5fe1b36118174cb6,61036e9cf105adf521ac049b,2021-07-29_20h15.34.824,Simcolourproject_2stim_asymm_v5,2020.2.10,Linux x86_64,60,61025ae37ef11b136ea224fe,,,,,,,,,3866,22.98189655,49.31325113,1,0,0,response1disk,,7,6.665587715,-0.507818945,1,0,0,rectangle,6.665587715,-0.507818945,1,0,0,6.665587715,-0.507818945,1,0,0,0,27,27,19,1,,,,,,,,,
,,,,,,,,,,,,,FF,,,,,,,,1.385,,,,,,,,,,,,,,,,,,,,,,60fcbd2e5fe1b36118174cb6,61036e9cf105adf521ac049b,2021-07-29_20h15.34.824,Simcolourproject_2stim_asymm_v5,2020.2.10,Linux x86_64,60,61025ae37ef11b136ea224fe,,,,,,,,,2680,48.63160397,-38.34326873,1,0,0,response3disk,,5,22.67305866,-9.237604231,1,0,0,rectangle,22.67305866,-9.237604231,1,0,0,22.67305866,-9.237604231,1,0,0,0,28,28,38,1,,,,,,,,,
,,,,,,,,,,,,,FF,,,,,,,,1.6333,,,,,,,,,,,,,,,,,,,,,,60fcbd2e5fe1b36118174cb6,61036e9cf105adf521ac049b,2021-07-29_20h15.34.824,Simcolourproject_2stim_asymm_v5,2020.2.10,Linux x86_64,60,61025ae37ef11b136ea224fe,,,,,,,,,1267,42.54122302,-48.342097,1,0,0,response3disk,,4,12.5624628,-8.991363993,1,0,0,rectangle,-83.80125934,-30.59414752,1,0,0,-32.36185427,-5.759283867,1,0,0,0,29,29,33,1,,response5disk_3,TRUE,2,2,"[110,188,241,318,157,24,30,142,106,80,284,150,68,168,216,323,164,157,184,113]",1.6289,rectangle,
,,,,,,,,,,,,,FF,,,,,,,,1.1602,,,,,,,,,,,,,,,,,,,,,,60fcbd2e5fe1b36118174cb6,61036e9cf105adf521ac049b,2021-07-29_20h15.34.824,Simcolourproject_2stim_asymm_v5,2020.2.10,Linux x86_64,60,61025ae37ef11b136ea224fe,,,,,,,,,1230,-22.22464709,-76.6366775,1,0,0,response5disk,,3,12.13228702,2.38954438,1,0,0,rectangle,12.13228702,2.38954438,1,0,0,12.13228702,2.38954438,1,0,0,0,30,30,26,1,,,,,,,,,
,,,,,,,,,,,,,FF,,,,,,,,0.9649,,,,,,,,,,,,,,,,,,,,,,60fcbd2e5fe1b36118174cb6,61036e9cf105adf521ac049b,2021-07-29_20h15.34.824,Simcolourproject_2stim_asymm_v5,2020.2.10,Linux x86_64,60,61025ae37ef11b136ea224fe,,,,,,,,,2928,95.80255193,53.01620529,1,0,0,response1disk,,6,14.29395697,7.476067893,1,0,0,rectangle,14.29395697,7.476067893,1,0,0,14.29395697,7.476067893,1,0,0,0,31,31,122,1,,,,,,,,,
,,,,,,,,,,,,,FF,,,,,,,,4.5948,,,,,,,,,,,,,,,,,,,,,,60fcbd2e5fe1b36118174cb6,61036e9cf105adf521ac049b,2021-07-29_20h15.34.824,Simcolourproject_2stim_asymm_v5,2020.2.10,Linux x86_64,60,61025ae37ef11b136ea224fe,,,,,,,,,2211,87.67257134,-57.70161863,1,0,0,response3disk,,5,14.80367377,-2.1059635,1,0,0,rectangle,14.80367377,-2.1059635,1,0,0,14.80367377,-2.1059635,1,0,0,0,32,32,84,1,,,,,,,,,
,,,,,,,,,,,,,FF,,,,,,,,2.7647,,,,,,,,,,,,,,,,,,,,,,60fcbd2e5fe1b36118174cb6,61036e9cf105adf521ac049b,2021-07-29_20h15.34.824,Simcolourproject_2stim_asymm_v5,2020.2.10,Linux x86_64,60,61025ae37ef11b136ea224fe,,,,,,,,,1543,20.85162308,-31.68560261,1,0,0,response3disk,,4,-0.12205887,7.399456564,1,0,0,rectangle,-0.12205887,7.399456564,1,0,0,-0.12205887,7.399456564,1,0,0,0,33,33,155,1,,,,,,,,,
,,,,,,,,,,,,,FF,,,,,,,,1.0313,,,,,,,,,,,,,,,,,,,,,,60fcbd2e5fe1b36118174cb6,61036e9cf105adf521ac049b,2021-07-29_20h15.34.824,Simcolourproject_2stim_asymm_v5,2020.2.10,Linux x86_64,60,61025ae37ef11b136ea224fe,,,,,,,,,626,66.28878196,49.16139566,1,0,0,response1disk,,6,-14.27147314,-12.6445867,1,0,0,rectangle,-14.27147314,-12.6445867,1,0,0,-14.27147314,-12.6445867,1,0,0,0,34,34,24,1,,,,,,,,,
,,,,,,,,,,,,,FF,,,,,,,,1.8157,,,,,,,,,,,,,,,,,,,,,,60fcbd2e5fe1b36118174cb6,61036e9cf105adf521ac049b,2021-07-29_20h15.34.824,Simcolourproject_2stim_asymm_v5,2020.2.10,Linux x86_64,60,61025ae37ef11b136ea224fe,,,,,,,,,663,46.54498284,55.76305592,1,0,0,response1disk,,7,-1.487342094,-2.513727178,1,0,0,rectangle,-1.487342094,-2.513727178,1,0,0,-1.487342094,-2.513727178,1,0,0,0,35,35,123,1,,,,,,,,,
,,,,,,,,,,,,,FF,,,,,,,,1.7647,,,,,,,,,,,,,,,,,,,,,,60fcbd2e5fe1b36118174cb6,61036e9cf105adf521ac049b,2021-07-29_20h15.34.824,Simcolourproject_2stim_asymm_v5,2020.2.10,Linux x86_64,60,61025ae37ef11b136ea224fe,,,,,,,,,2889,-79.95526318,20.82372434,1,0,0,response7disk,,1,-12.42313327,0.139202549,1,0,0,rectangle,-12.42313327,0.139202549,1,0,0,-12.42313327,0.139202549,1,0,0,0,36,36,64,1,,,,,,,,,
,,,,,,,,,,,,,FF,,,,,,,,1.7176,,,,,,,,,,,,,,,,,,,,,,60fcbd2e5fe1b36118174cb6,61036e9cf105adf521ac049b,2021-07-29_20h15.34.824,Simcolourproject_2stim_asymm_v5,2020.2.10,Linux x86_64,60,61025ae37ef11b136ea224fe,,,,,,,,,2888,-33.63651249,106.299751,1,0,0,response7disk,,0,-6.79705897,10.84808943,1,0,0,rectangle,-6.79705897,10.84808943,1,0,0,-6.79705897,10.84808943,1,0,0,0,37,37,55,1,,,,,,,,,
,,,,,,,,,,,,,FF,,,,,,,,1.3817,,,,,,,,,,,,,,,,,,,,,,60fcbd2e5fe1b36118174cb6,61036e9cf105adf521ac049b,2021-07-29_20h15.34.824,Simcolourproject_2stim_asymm_v5,2020.2.10,Linux x86_64,60,61025ae37ef11b136ea224fe,,,,,,,,,824,29.11085172,-81.74903109,1,0,0,response3disk,,4,-13.55106298,-3.374371722,1,0,0,rectangle,-13.55106298,-3.374371722,1,0,0,-13.55106298,-3.374371722,1,0,0,0,38,38,40,1,,,,,,,,,
,,,,,,,,,,,,,FF,,,,,,,,2.6625,,,,,,,,,,,,,,,,,,,,,,60fcbd2e5fe1b36118174cb6,61036e9cf105adf521ac049b,2021-07-29_20h15.34.824,Simcolourproject_2stim_asymm_v5,2020.2.10,Linux x86_64,60,61025ae37ef11b136ea224fe,,,,,,,,,505,115.9680796,64.75705019,1,0,0,response1disk,,6,31.07286347,1.02128264,1,0,0,rectangle,31.07286347,1.02128264,1,0,0,31.07286347,1.02128264,1,0,0,0,39,39,0,1,,,,,,,,,
,,,,,,,,,,,,,FF,,,,,,,,0.8649,,,,,,,,,,,,,,,,,,,,,,60fcbd2e5fe1b36118174cb6,61036e9cf105adf521ac049b,2021-07-29_20h15.34.824,Simcolourproject_2stim_asymm_v5,2020.2.10,Linux x86_64,60,61025ae37ef11b136ea224fe,,,,,,,,,4355,43.28463123,71.15695263,1,0,0,response1disk,,7,-20.08670761,-7.526373737,1,0,0,rectangle,-20.08670761,-7.526373737,1,0,0,-20.08670761,-7.526373737,1,0,0,0,40,40,91,1,,,,,,,,,
,,,,,,,,,,,,,FF,,,,,,,,1.5345,,,,,,,,,,,,,,,,,,,,,,60fcbd2e5fe1b36118174cb6,61036e9cf105adf521ac049b,2021-07-29_20h15.34.824,Simcolourproject_2stim_asymm_v5,2020.2.10,Linux x86_64,60,61025ae37ef11b136ea224fe,,,,,,,,,1523,-33.85203984,-72.55415791,1,0,0,response5disk,,3,-3.817127285,-1.48985021,1,0,0,rectangle,-3.817127285,-1.48985021,1,0,0,-3.817127285,-1.48985021,1,0,0,0,41,41,21,1,,,,,,,,,
,,,,,,,,,,,,,FF,,,,,,,,0.9781,,,,,,,,,,,,,,,,,,,,,,60fcbd2e5fe1b36118174cb6,61036e9cf105adf521ac049b,2021-07-29_20h15.34.824,Simcolourproject_2stim_asymm_v5,2020.2.10,Linux x86_64,60,61025ae37ef11b136ea224fe,,,,,,,,,4093,37.30880106,50.98187909,1,0,0,response1disk,,7,-15.10467628,3.497991662,1,0,0,rectangle,-15.10467628,3.497991662,1,0,0,-15.10467628,3.497991662,1,0,0,0,42,42,79,1,,,,,,,,,
,,,,,,,,,,,,,FF,,,,,,,,0.8204,,,,,,,,,,,,,,,,,,,,,,60fcbd2e5fe1b36118174cb6,61036e9cf105adf521ac049b,2021-07-29_20h15.34.824,Simcolourproject_2stim_asymm_v5,2020.2.10,Linux x86_64,60,61025ae37ef11b136ea224fe,,,,,,,,,4068,40.94063705,61.78273374,1,0,0,response1disk,,7,12.7978632,3.918548309,1,0,0,rectangle,12.7978632,3.918548309,1,0,0,12.7978632,3.918548309,1,0,0,0,43,43,66,1,,,,,,,,,
,,,,,,,,,,,,,FF,,,,,,,,1.9999,,,,,,,,,,,,,,,,,,,,,,60fcbd2e5fe1b36118174cb6,61036e9cf105adf521ac049b,2021-07-29_20h15.34.824,Simcolourproject_2stim_asymm_v5,2020.2.10,Linux x86_64,60,61025ae37ef11b136ea224fe,,,,,,,,,1385,-38.75150281,-45.60342509,1,0,0,response5disk,,3,-12.0790903,-11.11865895,1,0,0,rectangle,-12.0790903,-11.11865895,1,0,0,-12.0790903,-11.11865895,1,0,0,0,44,44,52,1,,,,,,,,,
,,,,,,,,,,,,,FF,,,,,,,,2.53,,,,,,,,,,,,,,,,,,,,,,60fcbd2e5fe1b36118174cb6,61036e9cf105adf521ac049b,2021-07-29_20h15.34.824,Simcolourproject_2stim_asymm_v5,2020.2.10,Linux x86_64,60,61025ae37ef11b136ea224fe,,,,,,,,,1247,81.33184859,44.85507236,1,0,0,response1disk,,6,-14.44681494,1.178753346,1,0,0,rectangle,-14.44681494,1.178753346,1,0,0,-14.44681494,1.178753346,1,0,0,0,45,45,95,1,,,,,,,,,
,,,,,,,,,,,,,FF,,,,,,,,1.55,,,,,,,,,,,,,,,,,,,,,,60fcbd2e5fe1b36118174cb6,61036e9cf105adf521ac049b,2021-07-29_20h15.34.824,Simcolourproject_2stim_asymm_v5,2020.2.10,Linux x86_64,60,61025ae37ef11b136ea224fe,,,,,,,,,510,22.94068561,48.58497964,1,0,0,response1disk,,7,16.428332,12.67587266,1,0,0,rectangle,16.428332,12.67587266,1,0,0,16.428332,12.67587266,1,0,0,0,46,46,153,1,,,,,,,,,
,,,,,,,,,,,,,FF,,,,,,,,1.1158,,,,,,,,,,,,,,,,,,,,,,60fcbd2e5fe1b36118174cb6,61036e9cf105adf521ac049b,2021-07-29_20h15.34.824,Simcolourproject_2stim_asymm_v5,2020.2.10,Linux x86_64,60,61025ae37ef11b136ea224fe,,,,,,,,,3,-72.8094623,-51.80996815,1,0,0,response5disk,,2,1.559532952,-4.676520179,1,0,0,rectangle,1.559532952,-4.676520179,1,0,0,1.559532952,-4.676520179,1,0,0,0,47,47,116,1,,,,,,,,,
,,,,,,,,,,,,,FF,,,,,,,,0.9498,,,,,,,,,,,,,,,,,,,,,,60fcbd2e5fe1b36118174cb6,61036e9cf105adf521ac049b,2021-07-29_20h15.34.824,Simcolourproject_2stim_asymm_v5,2020.2.10,Linux x86_64,60,61025ae37ef11b136ea224fe,,,,,,,,,3275,37.96881084,39.35592677,1,0,0,response1disk,,7,-3.694519861,-10.1724187,1,0,0,rectangle,-3.694519861,-10.1724187,1,0,0,-3.694519861,-10.1724187,1,0,0,0,48,48,118,1,,,,,,,,,
,,,,,,,,,,,,,FF,,,,,,,,1.9794,,,,,,,,,,,,,,,,,,,,,,60fcbd2e5fe1b36118174cb6,61036e9cf105adf521ac049b,2021-07-29_20h15.34.824,Simcolourproject_2stim_asymm_v5,2020.2.10,Linux x86_64,60,61025ae37ef11b136ea224fe,,,,,,,,,366,-32.70985232,65.68983829,1,0,0,response7disk,,0,7.486632649,6.830462414,1,0,0,rectangle,7.486632649,6.830462414,1,0,0,7.486632649,6.830462414,1,0,0,0,49,49,98,1,,,,,,,,,
,,,,,,,,,,,,,FF,,,,,,,,1.3896,,,,,,,,,,,,,,,,,,,,,,60fcbd2e5fe1b36118174cb6,61036e9cf105adf521ac049b,2021-07-29_20h15.34.824,Simcolourproject_2stim_asymm_v5,2020.2.10,Linux x86_64,60,61025ae37ef11b136ea224fe,,,,,,,,,2798,93.99005191,36.36549703,1,0,0,response1disk,,6,26.07662316,8.392425328,1,0,0,rectangle,26.07662316,8.392425328,1,0,0,26.07662316,8.392425328,1,0,0,0,50,50,126,1,,,,,,,,,
,,,,,,,,,,,,,FF,,,,,,,,1.1154,,,,,,,,,,,,,,,,,,,,,,60fcbd2e5fe1b36118174cb6,61036e9cf105adf521ac049b,2021-07-29_20h15.34.824,Simcolourproject_2stim_asymm_v5,2020.2.10,Linux x86_64,60,61025ae37ef11b136ea224fe,,,,,,,,,1446,-59.36229413,-44.83770242,1,0,0,response5disk,,2,-1.84251788,-0.393561131,1,0,0,rectangle,-1.84251788,-0.393561131,1,0,0,-1.84251788,-0.393561131,1,0,0,0,51,51,68,1,,,,,,,,,
,,,,,,,,,,,,,FF,,,,,,,,0.9144,,,,,,,,,,,,,,,,,,,,,,60fcbd2e5fe1b36118174cb6,61036e9cf105adf521ac049b,2021-07-29_20h15.34.824,Simcolourproject_2stim_asymm_v5,2020.2.10,Linux x86_64,60,61025ae37ef11b136ea224fe,,,,,,,,,3352,22.44737506,43.17714264,1,0,0,response1disk,,7,0.83326341,9.543694877,1,0,0,rectangle,0.83326341,9.543694877,1,0,0,0.83326341,9.543694877,1,0,0,0,52,52,105,1,,,,,,,,,
,,,,,,,,,,,,,FF,,,,,,,,1.8974,,,,,,,,,,,,,,,,,,,,,,60fcbd2e5fe1b36118174cb6,61036e9cf105adf521ac049b,2021-07-29_20h15.34.824,Simcolourproject_2stim_asymm_v5,2020.2.10,Linux x86_64,60,61025ae37ef11b136ea224fe,,,,,,,,,3751,-66.87503838,-17.84517272,1,0,0,response5disk,,2,-35.55760627,-3.565777975,1,0,0,rectangle,-35.55760627,-3.565777975,1,0,0,-35.55760627,-3.565777975,1,0,0,0,53,53,82,1,,,,,,,,,
,,,,,,,,,,,,,FF,,,,,,,,1.2321,,,,,,,,,,,,,,,,,,,,,,60fcbd2e5fe1b36118174cb6,61036e9cf105adf521ac049b,2021-07-29_20h15.34.824,Simcolourproject_2stim_asymm_v5,2020.2.10,Linux x86_64,60,61025ae37ef11b136ea224fe,,,,,,,,,918,22.2050899,44.76388583,1,0,0,response1disk,,7,16.57808786,7.372942891,1,0,0,rectangle,16.57808786,7.372942891,1,0,0,16.57808786,7.372942891,1,0,0,0,54,54,9,1,,,,,,,,,
,,,,,,,,,,,,,FF,,,,,,,,0.7333,,,,,,,,,,,,,,,,,,,,,,60fcbd2e5fe1b36118174cb6,61036e9cf105adf521ac049b,2021-07-29_20h15.34.824,Simcolourproject_2stim_asymm_v5,2020.2.10,Linux x86_64,60,61025ae37ef11b136ea224fe,,,,,,,,,183,47.44527582,83.32057586,1,0,0,response1disk,,7,35.00826392,14.19076526,1,0,0,rectangle,35.00826392,14.19076526,1,0,0,35.00826392,14.19076526,1,0,0,0,55,55,22,1,,,,,,,,,
,,,,,,,,,,,,,FF,,,,,,,,1.3998,,,,,,,,,,,,,,,,,,,,,,60fcbd2e5fe1b36118174cb6,61036e9cf105adf521ac049b,2021-07-29_20h15.34.824,Simcolourproject_2stim_asymm_v5,2020.2.10,Linux x86_64,60,61025ae37ef11b136ea224fe,,,,,,,,,1391,98.31270822,-16.82110044,1,0,0,response3disk,,5,12.56612491,4.010931122,1,0,0,rectangle,12.56612491,4.010931122,1,0,0,12.56612491,4.010931122,1,0,0,0,56,56,124,1,,,,,,,,,
,,,,,,,,,,,,,FF,,,,,,,,1.3375,,,,,,,,,,,,,,,,,,,,,,60fcbd2e5fe1b36118174cb6,61036e9cf105adf521ac049b,2021-07-29_20h15.34.824,Simcolourproject_2stim_asymm_v5,2020.2.10,Linux x86_64,60,61025ae37ef11b136ea224fe,,,,,,,,,640,28.45313687,-122.5053305,1,0,0,response3disk,,4,-7.999256253,3.658294398,1,0,0,rectangle,-7.999256253,3.658294398,1,0,0,-7.999256253,3.658294398,1,0,0,0,57,57,51,1,,,,,,,,,
,,,,,,,,,,,,,FF,,,,,,,,1.3298,,,,,,,,,,,,,,,,,,,,,,60fcbd2e5fe1b36118174cb6,61036e9cf105adf521ac049b,2021-07-29_20h15.34.824,Simcolourproject_2stim_asymm_v5,2020.2.10,Linux x86_64,60,61025ae37ef11b136ea224fe,,,,,,,,,3919,47.57813715,-30.23086626,1,0,0,response3disk,,5,30.88184784,-6.377838564,1,0,0,rectangle,30.88184784,-6.377838564,1,0,0,30.88184784,-6.377838564,1,0,0,0,58,58,149,1,,,,,,,,,
,,,,,,,,,,,,,FF,,,,,,,,1.2506,,,,,,,,,,,,,,,,,,,,,,60fcbd2e5fe1b36118174cb6,61036e9cf105adf521ac049b,2021-07-29_20h15.34.824,Simcolourproject_2stim_asymm_v5,2020.2.10,Linux x86_64,60,61025ae37ef11b136ea224fe,,,,,,,,,20,42.77999255,58.39584404,1,0,0,response1disk,,7,9.886046748,-5.857184259,1,0,0,rectangle,9.886046748,-5.857184259,1,0,0,9.886046748,-5.857184259,1,0,0,0,59,59,44,1,,,,,,,,,
,,,,,,,,,,,,,FF,,,,,,,,0.9641,,,,,,,,,,,,,,,,,,,,,,60fcbd2e5fe1b36118174cb6,61036e9cf105adf521ac049b,2021-07-29_20h15.34.824,Simcolourproject_2stim_asymm_v5,2020.2.10,Linux x86_64,60,61025ae37ef11b136ea224fe,,,,,,,,,2058,23.63765828,31.35936903,1,0,0,response1disk,,7,-10.7247934,7.65590188,1,0,0,rectangle,-10.7247934,7.65590188,1,0,0,-10.7247934,7.65590188,1,0,0,0,60,60,62,1,,,,,,,,,
,,,,,,,,,,,,,FF,,,,,,,,2.6301,,,,,,,,,,,,,,,,,,,,,,60fcbd2e5fe1b36118174cb6,61036e9cf105adf521ac049b,2021-07-29_20h15.34.824,Simcolourproject_2stim_asymm_v5,2020.2.10,Linux x86_64,60,61025ae37ef11b136ea224fe,,,,,,,,,8,98.58741526,-17.15684263,1,0,0,response3disk,,5,13.46246282,17.25975944,1,0,0,rectangle,13.46246282,17.25975944,1,0,0,13.46246282,17.25975944,1,0,0,0,61,61,53,1,,,,,,,,,
,,,,,,,,,,,,,FF,,,,,,,,1.0257,,,,,,,,,,,,,,,,,,,,,,60fcbd2e5fe1b36118174cb6,61036e9cf105adf521ac049b,2021-07-29_20h15.34.824,Simcolourproject_2stim_asymm_v5,2020.2.10,Linux x86_64,60,61025ae37ef11b136ea224fe,,,,,,,,,1431,69.25128201,-22.92656928,1,0,0,response3disk,,5,8.31114438,-4.600543615,1,0,0,rectangle,8.31114438,-4.600543615,1,0,0,8.31114438,-4.600543615,1,0,0,0,62,62,142,1,,,,,,,,,
,,,,,,,,,,,,,FF,,,,,,,,1.2155,,,,,,,,,,,,,,,,,,,,,,60fcbd2e5fe1b36118174cb6,61036e9cf105adf521ac049b,2021-07-29_20h15.34.824,Simcolourproject_2stim_asymm_v5,2020.2.10,Linux x86_64,60,61025ae37ef11b136ea224fe,,,,,,,,,153,30.1083615,37.22460349,1,0,0,response1disk,,7,30.1083615,7.373284688,1,0,0,rectangle,30.1083615,7.373284688,1,0,0,30.1083615,7.373284688,1,0,0,0,63,63,18,1,,,,,,,,,
,,,,,,,,,,,,,FF,,,,,,,,1.233,,,,,,,,,,,,,,,,,,,,,,60fcbd2e5fe1b36118174cb6,61036e9cf105adf521ac049b,2021-07-29_20h15.34.824,Simcolourproject_2stim_asymm_v5,2020.2.10,Linux x86_64,60,61025ae37ef11b136ea224fe,,,,,,,,,2410,73.44522738,71.88119581,1,0,0,response1disk,,6,21.77706255,15.59716176,1,0,0,rectangle,21.77706255,15.59716176,1,0,0,21.77706255,15.59716176,1,0,0,0,64,64,36,1,,,,,,,,,
,,,,,,,,,,,,,FF,,,,,,,,2.0975,,,,,,,,,,,,,,,,,,,,,,60fcbd2e5fe1b36118174cb6,61036e9cf105adf521ac049b,2021-07-29_20h15.34.824,Simcolourproject_2stim_asymm_v5,2020.2.10,Linux x86_64,60,61025ae37ef11b136ea224fe,,,,,,,,,2779,-28.84154172,-46.76299542,1,0,0,response5disk,,3,-0.008582306,-10.63848316,1,0,0,rectangle,-0.008582306,-10.63848316,1,0,0,-0.008582306,-10.63848316,1,0,0,0,65,65,117,1,,,,,,,,,
,,,,,,,,,,,,,FF,,,,,,,,1.3194,,,,,,,,,,,,,,,,,,,,,,60fcbd2e5fe1b36118174cb6,61036e9cf105adf521ac049b,2021-07-29_20h15.34.824,Simcolourproject_2stim_asymm_v5,2020.2.10,Linux x86_64,60,61025ae37ef11b136ea224fe,,,,,,,,,1297,-35.45086799,47.88143959,1,0,0,response7disk,,0,-4.892615582,-3.144537734,1,0,0,rectangle,-4.892615582,-3.144537734,1,0,0,-4.892615582,-3.144537734,1,0,0,0,66,66,13,1,,,,,,,,,
,,,,,,,,,,,,,FF,,,,,,,,0.816,,,,,,,,,,,,,,,,,,,,,,60fcbd2e5fe1b36118174cb6,61036e9cf105adf521ac049b,2021-07-29_20h15.34.824,Simcolourproject_2stim_asymm_v5,2020.2.10,Linux x86_64,60,61025ae37ef11b136ea224fe,,,,,,,,,1702,21.69268755,48.21388588,1,0,0,response1disk,,7,1.856456784,6.051751465,1,0,0,rectangle,-25.39793815,-98.61875791,1,0,0,4.065734161,-2.38965491,1,0,0,0,67,67,144,1,,response5disk_3,TRUE,3,3,"[110,188,241,318,157,24,30,142,106,80,284,150,68,168,216,323,164,157,184,113]",2.3326,rectangle,
,,,,,,,,,,,,,FF,,,,,,,,1.2805,,,,,,,,,,,,,,,,,,,,,,60fcbd2e5fe1b36118174cb6,61036e9cf105adf521ac049b,2021-07-29_20h15.34.824,Simcolourproject_2stim_asymm_v5,2020.2.10,Linux x86_64,60,61025ae37ef11b136ea224fe,,,,,,,,,69,42.0113402,62.14594175,1,0,0,response1disk,,7,10.50679871,4.510003396,1,0,0,rectangle,10.50679871,4.510003396,1,0,0,10.50679871,4.510003396,1,0,0,0,68,68,110,1,,,,,,,,,
,,,,,,,,,,,,,FF,,,,,,,,2.1813,,,,,,,,,,,,,,,,,,,,,,60fcbd2e5fe1b36118174cb6,61036e9cf105adf521ac049b,2021-07-29_20h15.34.824,Simcolourproject_2stim_asymm_v5,2020.2.10,Linux x86_64,60,61025ae37ef11b136ea224fe,,,,,,,,,2488,30.20313689,-63.1807691,1,0,0,response3disk,,4,6.646935371,-14.57881525,1,0,0,rectangle,6.646935371,-14.57881525,1,0,0,6.646935371,-14.57881525,1,0,0,0,69,69,34,1,,,,,,,,,
,,,,,,,,,,,,,FF,,,,,,,,0.9657,,,,,,,,,,,,,,,,,,,,,,60fcbd2e5fe1b36118174cb6,61036e9cf105adf521ac049b,2021-07-29_20h15.34.824,Simcolourproject_2stim_asymm_v5,2020.2.10,Linux x86_64,60,61025ae37ef11b136ea224fe,,,,,,,,,1855,38.13912334,73.66405716,1,0,0,response1disk,,7,4.1881951,7.541106956,1,0,0,rectangle,4.1881951,7.541106956,1,0,0,4.1881951,7.541106956,1,0,0,0,70,70,96,1,,,,,,,,,
,,,,,,,,,,,,,FF,,,,,,,,1.1655,,,,,,,,,,,,,,,,,,,,,,60fcbd2e5fe1b36118174cb6,61036e9cf105adf521ac049b,2021-07-29_20h15.34.824,Simcolourproject_2stim_asymm_v5,2020.2.10,Linux x86_64,60,61025ae37ef11b136ea224fe,,,,,,,,,1676,46.83931878,30.27980358,1,0,0,response1disk,,6,-4.101355805,-0.048639251,1,0,0,rectangle,-4.101355805,-0.048639251,1,0,0,-4.101355805,-0.048639251,1,0,0,0,71,71,120,1,,,,,,,,,
,,,,,,,,,,,,,FF,,,,,,,,1.5661,,,,,,,,,,,,,,,,,,,,,,60fcbd2e5fe1b36118174cb6,61036e9cf105adf521ac049b,2021-07-29_20h15.34.824,Simcolourproject_2stim_asymm_v5,2020.2.10,Linux x86_64,60,61025ae37ef11b136ea224fe,,,,,,,,,2412,28.94171109,-79.96704864,1,0,0,response3disk,,4,-0.770545208,11.03026716,1,0,0,rectangle,-0.770545208,11.03026716,1,0,0,-0.770545208,11.03026716,1,0,0,0,72,72,30,1,,,,,,,,,
,,,,,,,,,,,,,FF,,,,,,,,1.2166,,,,,,,,,,,,,,,,,,,,,,60fcbd2e5fe1b36118174cb6,61036e9cf105adf521ac049b,2021-07-29_20h15.34.824,Simcolourproject_2stim_asymm_v5,2020.2.10,Linux x86_64,60,61025ae37ef11b136ea224fe,,,,,,,,,363,64.34796162,123.8382767,1,0,0,response1disk,,7,12.63209171,2.337200629,1,0,0,rectangle,12.63209171,2.337200629,1,0,0,12.63209171,2.337200629,1,0,0,0,73,73,54,1,,,,,,,,,
,,,,,,,,,,,,,FF,,,,,,,,2.1265,,,,,,,,,,,,,,,,,,,,,,60fcbd2e5fe1b36118174cb6,61036e9cf105adf521ac049b,2021-07-29_20h15.34.824,Simcolourproject_2stim_asymm_v5,2020.2.10,Linux x86_64,60,61025ae37ef11b136ea224fe,,,,,,,,,266,-47.62113184,-27.05708692,1,0,0,response5disk,,2,2.091759522,11.11161482,1,0,0,rectangle,2.091759522,11.11161482,1,0,0,2.091759522,11.11161482,1,0,0,0,74,74,78,1,,,,,,,,,
,,,,,,,,,,,,,FF,,,,,,,,0.9829,,,,,,,,,,,,,,,,,,,,,,60fcbd2e5fe1b36118174cb6,61036e9cf105adf521ac049b,2021-07-29_20h15.34.824,Simcolourproject_2stim_asymm_v5,2020.2.10,Linux x86_64,60,61025ae37ef11b136ea224fe,,,,,,,,,65,-63.77367115,-35.37935267,1,0,0,response5disk,,2,-8.619910559,-9.19986009,1,0,0,rectangle,-8.619910559,-9.19986009,1,0,0,-8.619910559,-9.19986009,1,0,0,0,75,75,156,1,,,,,,,,,
,,,,,,,,,,,,,FF,,,,,,,,0.7837,,,,,,,,,,,,,,,,,,,,,,60fcbd2e5fe1b36118174cb6,61036e9cf105adf521ac049b,2021-07-29_20h15.34.824,Simcolourproject_2stim_asymm_v5,2020.2.10,Linux x86_64,60,61025ae37ef11b136ea224fe,,,,,,,,,3612,48.8747192,135.444063,1,0,0,response1disk,,7,1.314220448,13.86439807,1,0,0,rectangle,1.314220448,13.86439807,1,0,0,1.314220448,13.86439807,1,0,0,0,76,76,69,1,,,,,,,,,
,,,,,,,,,,,,,FF,,,,,,,,1.2064,,,,,,,,,,,,,,,,,,,,,,60fcbd2e5fe1b36118174cb6,61036e9cf105adf521ac049b,2021-07-29_20h15.34.824,Simcolourproject_2stim_asymm_v5,2020.2.10,Linux x86_64,60,61025ae37ef11b136ea224fe,,,,,,,,,1386,126.6888805,-25.03062204,1,0,0,response3disk,,5,10.50875184,2.882561965,1,0,0,rectangle,10.50875184,2.882561965,1,0,0,10.50875184,2.882561965,1,0,0,0,77,77,35,1,,,,,,,,,
,,,,,,,,,,,,,FF,,,,,,,,1.2469,,,,,,,,,,,,,,,,,,,,,,60fcbd2e5fe1b36118174cb6,61036e9cf105adf521ac049b,2021-07-29_20h15.34.824,Simcolourproject_2stim_asymm_v5,2020.2.10,Linux x86_64,60,61025ae37ef11b136ea224fe,,,,,,,,,2837,-28.83036008,-68.78814223,1,0,0,response5disk,,3,2.216417727,1.541009211,1,0,0,rectangle,2.216417727,1.541009211,1,0,0,2.216417727,1.541009211,1,0,0,0,78,78,83,1,,,,,,,,,
,,,,,,,,,,,,,FF,,,,,,,,1.0146,,,,,,,,,,,,,,,,,,,,,,60fcbd2e5fe1b36118174cb6,61036e9cf105adf521ac049b,2021-07-29_20h15.34.824,Simcolourproject_2stim_asymm_v5,2020.2.10,Linux x86_64,60,61025ae37ef11b136ea224fe,,,,,,,,,1052,-43.70594624,-18.48013367,1,0,0,response5disk,,2,-18.43802594,-8.896393289,1,0,0,rectangle,-89.81571255,22.7975525,1,0,0,-33.27567265,1.144134205,1,0,0,0,79,79,99,1,,response7disk_3,TRUE,1,1,"[110,188,241,318,157,24,30,142,106,80,284,150,68,168,216,323,164,157,184,113]",1.2329,rectangle,
,,,,,,,,,,,,,FF,,,,,,,,0.9649,,,,,,,,,,,,,,,,,,,,,,60fcbd2e5fe1b36118174cb6,61036e9cf105adf521ac049b,2021-07-29_20h15.34.824,Simcolourproject_2stim_asymm_v5,2020.2.10,Linux x86_64,60,61025ae37ef11b136ea224fe,,,,,,,,,1130,33.66285374,86.10377903,1,0,0,response1disk,,7,5.017052534,-2.783209604,1,0,0,rectangle,5.017052534,-2.783209604,1,0,0,5.017052534,-2.783209604,1,0,0,0,80,80,143,1,,,,,,,,,
,,,,,,,,,,,,,FF,,,,,,,,1.0496,,,,,,,,,,,,,,,,,,,,,,60fcbd2e5fe1b36118174cb6,61036e9cf105adf521ac049b,2021-07-29_20h15.34.824,Simcolourproject_2stim_asymm_v5,2020.2.10,Linux x86_64,60,61025ae37ef11b136ea224fe,,,,,,,,,3932,91.97764953,65.91945255,1,0,0,response1disk,,6,-8.683631263,-12.29258475,1,0,0,rectangle,-8.683631263,-12.29258475,1,0,0,-8.683631263,-12.29258475,1,0,0,0,81,81,138,1,,,,,,,,,
,,,,,,,,,,,,,FF,,,,,,,,0.8332,,,,,,,,,,,,,,,,,,,,,,60fcbd2e5fe1b36118174cb6,61036e9cf105adf521ac049b,2021-07-29_20h15.34.824,Simcolourproject_2stim_asymm_v5,2020.2.10,Linux x86_64,60,61025ae37ef11b136ea224fe,,,,,,,,,144,33.71856663,65.19850528,1,0,0,response1disk,,7,5.399718556,-3.965240871,1,0,0,rectangle,5.399718556,-3.965240871,1,0,0,5.399718556,-3.965240871,1,0,0,0,82,82,57,1,,,,,,,,,
,,,,,,,,,,,,,FF,,,,,,,,1.1152,,,,,,,,,,,,,,,,,,,,,,60fcbd2e5fe1b36118174cb6,61036e9cf105adf521ac049b,2021-07-29_20h15.34.824,Simcolourproject_2stim_asymm_v5,2020.2.10,Linux x86_64,60,61025ae37ef11b136ea224fe,,,,,,,,,2029,-23.53260609,-48.02383528,1,0,0,response5disk,,3,2.112023194,-1.027887312,1,0,0,rectangle,2.112023194,-1.027887312,1,0,0,2.112023194,-1.027887312,1,0,0,0,83,83,72,1,,,,,,,,,
,,,,,,,,,,,,,FF,,,,,,,,1.216,,,,,,,,,,,,,,,,,,,,,,60fcbd2e5fe1b36118174cb6,61036e9cf105adf521ac049b,2021-07-29_20h15.34.824,Simcolourproject_2stim_asymm_v5,2020.2.10,Linux x86_64,60,61025ae37ef11b136ea224fe,,,,,,,,,4010,78.51983683,-33.67935264,1,0,0,response3disk,,5,33.91827367,-8.186725309,1,0,0,rectangle,33.91827367,-8.186725309,1,0,0,33.91827367,-8.186725309,1,0,0,0,84,84,6,1,,,,,,,,,
,,,,,,,,,,,,,FF,,,,,,,,0.8815,,,,,,,,,,,,,,,,,,,,,,60fcbd2e5fe1b36118174cb6,61036e9cf105adf521ac049b,2021-07-29_20h15.34.824,Simcolourproject_2stim_asymm_v5,2020.2.10,Linux x86_64,60,61025ae37ef11b136ea224fe,,,,,,,,,3865,42.61192614,69.6449653,1,0,0,response1disk,,7,13.00494328,5.061175279,1,0,0,rectangle,13.00494328,5.061175279,1,0,0,13.00494328,5.061175279,1,0,0,0,85,85,32,1,,,,,,,,,
,,,,,,,,,,,,,FF,,,,,,,,0.6152,,,,,,,,,,,,,,,,,,,,,,60fcbd2e5fe1b36118174cb6,61036e9cf105adf521ac049b,2021-07-29_20h15.34.824,Simcolourproject_2stim_asymm_v5,2020.2.10,Linux x86_64,60,61025ae37ef11b136ea224fe,,,,,,,,,837,21.82271685,47.55636634,1,0,0,response1disk,,7,-2.048133118,-8.273590545,1,0,0,rectangle,-2.048133118,-8.273590545,1,0,0,-2.048133118,-8.273590545,1,0,0,0,86,86,109,1,,,,,,,,,
,,,,,,,,,,,,,FF,,,,,,,,1.4651,,,,,,,,,,,,,,,,,,,,,,60fcbd2e5fe1b36118174cb6,61036e9cf105adf521ac049b,2021-07-29_20h15.34.824,Simcolourproject_2stim_asymm_v5,2020.2.10,Linux x86_64,60,61025ae37ef11b136ea224fe,,,,,,,,,3066,94.34151676,-55.10923577,1,0,0,response3disk,,5,24.3612911,-2.68067054,1,0,0,rectangle,24.3612911,-2.68067054,1,0,0,24.3612911,-2.68067054,1,0,0,0,87,87,39,1,,,,,,,,,
,,,,,,,,,,,,,FF,,,,,,,,0.7988,,,,,,,,,,,,,,,,,,,,,,60fcbd2e5fe1b36118174cb6,61036e9cf105adf521ac049b,2021-07-29_20h15.34.824,Simcolourproject_2stim_asymm_v5,2020.2.10,Linux x86_64,60,61025ae37ef11b136ea224fe,,,,,,,,,3614,31.70240449,45.05946689,1,0,0,response1disk,,7,10.53228699,3.436761192,1,0,0,rectangle,10.53228699,3.436761192,1,0,0,10.53228699,3.436761192,1,0,0,0,88,88,131,1,,,,,,,,,
,,,,,,,,,,,,,FF,,,,,,,,1.6217,,,,,,,,,,,,,,,,,,,,,,60fcbd2e5fe1b36118174cb6,61036e9cf105adf521ac049b,2021-07-29_20h15.34.824,Simcolourproject_2stim_asymm_v5,2020.2.10,Linux x86_64,60,61025ae37ef11b136ea224fe,,,,,,,,,745,71.05108672,129.3583939,1,0,0,response1disk,,7,16.9531367,11.32260115,1,0,0,rectangle,16.9531367,11.32260115,1,0,0,16.9531367,11.32260115,1,0,0,0,89,89,113,1,,,,,,,,,
,,,,,,,,,,,,,FF,,,,,,,,0.6827,,,,,,,,,,,,,,,,,,,,,,60fcbd2e5fe1b36118174cb6,61036e9cf105adf521ac049b,2021-07-29_20h15.34.824,Simcolourproject_2stim_asymm_v5,2020.2.10,Linux x86_64,60,61025ae37ef11b136ea224fe,,,,,,,,,4319,46.61387933,55.96334889,1,0,0,response1disk,,7,23.87618367,13.12494493,1,0,0,rectangle,23.87618367,13.12494493,1,0,0,23.87618367,13.12494493,1,0,0,0,90,90,130,1,,,,,,,,,
,,,,,,,,,,,,,FF,,,,,,,,0.9178,,,,,,,,,,,,,,,,,,,,,,60fcbd2e5fe1b36118174cb6,61036e9cf105adf521ac049b,2021-07-29_20h15.34.824,Simcolourproject_2stim_asymm_v5,2020.2.10,Linux x86_64,60,61025ae37ef11b136ea224fe,,,,,,,,,3350,68.19161402,41.48922758,1,0,0,response1disk,,6,15.20406441,-5.649127615,1,0,0,rectangle,15.20406441,-5.649127615,1,0,0,15.20406441,-5.649127615,1,0,0,0,91,91,8,1,,,,,,,,,
,,,,,,,,,,,,,FF,,,,,,,,0.866,,,,,,,,,,,,,,,,,,,,,,60fcbd2e5fe1b36118174cb6,61036e9cf105adf521ac049b,2021-07-29_20h15.34.824,Simcolourproject_2stim_asymm_v5,2020.2.10,Linux x86_64,60,61025ae37ef11b136ea224fe,,,,,,,,,4005,62.69444597,46.1884464,1,0,0,response1disk,,6,24.09468954,11.70658553,1,0,0,rectangle,24.09468954,11.70658553,1,0,0,24.09468954,11.70658553,1,0,0,0,92,92,87,1,,,,,,,,,
,,,,,,,,,,,,,FF,,,,,,,,1.2643,,,,,,,,,,,,,,,,,,,,,,60fcbd2e5fe1b36118174cb6,61036e9cf105adf521ac049b,2021-07-29_20h15.34.824,Simcolourproject_2stim_asymm_v5,2020.2.10,Linux x86_64,60,61025ae37ef11b136ea224fe,,,,,,,,,1679,67.77598902,-21.73452825,1,0,0,response3disk,,5,28.55953335,-4.661041663,1,0,0,rectangle,28.55953335,-4.661041663,1,0,0,28.55953335,-4.661041663,1,0,0,0,93,93,152,1,,,,,,,,,
,,,,,,,,,,,,,FF,,,,,,,,0.8478,,,,,,,,,,,,,,,,,,,,,,60fcbd2e5fe1b36118174cb6,61036e9cf105adf521ac049b,2021-07-29_20h15.34.824,Simcolourproject_2stim_asymm_v5,2020.2.10,Linux x86_64,60,61025ae37ef11b136ea224fe,,,,,,,,,4092,25.61690636,38.2784121,1,0,0,response1disk,,7,17.00679881,6.197308108,1,0,0,rectangle,17.00679881,6.197308108,1,0,0,17.00679881,6.197308108,1,0,0,0,94,94,20,1,,,,,,,,,
,,,,,,,,,,,,,FF,,,,,,,,0.7665,,,,,,,,,,,,,,,,,,,,,,60fcbd2e5fe1b36118174cb6,61036e9cf105adf521ac049b,2021-07-29_20h15.34.824,Simcolourproject_2stim_asymm_v5,2020.2.10,Linux x86_64,60,61025ae37ef11b136ea224fe,,,,,,,,,639,-27.29056513,-17.97754577,1,0,0,response5disk,,2,-7.527381246,10.64389021,1,0,0,rectangle,-7.527381246,10.64389021,1,0,0,-7.527381246,10.64389021,1,0,0,0,95,95,137,1,,,,,,,,,
,,,,,,,,,,,,,FF,,,,,,,,0.8172,,,,,,,,,,,,,,,,,,,,,,60fcbd2e5fe1b36118174cb6,61036e9cf105adf521ac049b,2021-07-29_20h15.34.824,Simcolourproject_2stim_asymm_v5,2020.2.10,Linux x86_64,60,61025ae37ef11b136ea224fe,,,,,,,,,139,25.50435753,62.56959899,1,0,0,response1disk,,7,11.45611513,4.204925266,1,0,0,rectangle,11.45611513,4.204925266,1,0,0,11.45611513,4.204925266,1,0,0,0,96,96,150,1,,,,,,,,,
,,,,,,,,,,,,,FF,,,,,,,,0.9483,,,,,,,,,,,,,,,,,,,,,,60fcbd2e5fe1b36118174cb6,61036e9cf105adf521ac049b,2021-07-29_20h15.34.824,Simcolourproject_2stim_asymm_v5,2020.2.10,Linux x86_64,60,61025ae37ef11b136ea224fe,,,,,,,,,572,28.66182828,30.92970594,1,0,0,response1disk,,7,16.3467402,7.793841335,1,0,0,rectangle,16.3467402,7.793841335,1,0,0,16.3467402,7.793841335,1,0,0,0,97,97,157,1,,,,,,,,,
,,,,,,,,,,,,,FF,,,,,,,,1.0302,,,,,,,,,,,,,,,,,,,,,,60fcbd2e5fe1b36118174cb6,61036e9cf105adf521ac049b,2021-07-29_20h15.34.824,Simcolourproject_2stim_asymm_v5,2020.2.10,Linux x86_64,60,61025ae37ef11b136ea224fe,,,,,,,,,1238,32.06890841,50.76386151,1,0,0,response1disk,,7,13.72711126,15.24623402,1,0,0,rectangle,13.72711126,15.24623402,1,0,0,13.72711126,15.24623402,1,0,0,0,98,98,106,1,,,,,,,,,
,,,,,,,,,,,,,FF,,,,,,,,1.3311,,,,,,,,,,,,,,,,,,,,,,60fcbd2e5fe1b36118174cb6,61036e9cf105adf521ac049b,2021-07-29_20h15.34.824,Simcolourproject_2stim_asymm_v5,2020.2.10,Linux x86_64,60,61025ae37ef11b136ea224fe,,,,,,,,,2232,24.14644735,-51.77764393,1,0,0,response3disk,,4,13.23341008,7.699261256,1,0,0,rectangle,13.23341008,7.699261256,1,0,0,13.23341008,7.699261256,1,0,0,0,99,99,135,1,,,,,,,,,
,,,,,,,,,,,,,FF,,,,,,,,1.63,,,,,,,,,,,,,,,,,,,,,,60fcbd2e5fe1b36118174cb6,61036e9cf105adf521ac049b,2021-07-29_20h15.34.824,Simcolourproject_2stim_asymm_v5,2020.2.10,Linux x86_64,60,61025ae37ef11b136ea224fe,,,,,,,,,3483,-20.80389512,-74.62949974,1,0,0,response5disk,,3,-8.368103915,-0.424225194,1,0,0,rectangle,-8.368103915,-0.424225194,1,0,0,-8.368103915,-0.424225194,1,0,0,0,100,100,23,1,,,,,,,,,
,,,,,,,,,,,,,FF,,,,,,,,2.0657,,,,,,,,,,,,,,,,,,,,,,60fcbd2e5fe1b36118174cb6,61036e9cf105adf521ac049b,2021-07-29_20h15.34.824,Simcolourproject_2stim_asymm_v5,2020.2.10,Linux x86_64,60,61025ae37ef11b136ea224fe,,,,,,,,,1842,23.87794149,91.7329295,1,0,0,response1disk,,7,13.6289179,0.070013095,1,0,0,rectangle,13.6289179,0.070013095,1,0,0,13.6289179,0.070013095,1,0,0,0,101,101,119,1,,,,,,,,,
,,,,,,,,,,,,,FF,,,,,,,,1.6482,,,,,,,,,,,,,,,,,,,,,,60fcbd2e5fe1b36118174cb6,61036e9cf105adf521ac049b,2021-07-29_20h15.34.824,Simcolourproject_2stim_asymm_v5,2020.2.10,Linux x86_64,60,61025ae37ef11b136ea224fe,,,,,,,,,4345,77.69805948,23.84376833,1,0,0,response1disk,,6,28.49630093,5.364300283,1,0,0,rectangle,28.49630093,5.364300283,1,0,0,28.49630093,5.364300283,1,0,0,0,102,102,86,1,,,,,,,,,
,,,,,,,,,,,,,FF,,,,,,,,1.0658,,,,,,,,,,,,,,,,,,,,,,60fcbd2e5fe1b36118174cb6,61036e9cf105adf521ac049b,2021-07-29_20h15.34.824,Simcolourproject_2stim_asymm_v5,2020.2.10,Linux x86_64,60,61025ae37ef11b136ea224fe,,,,,,,,,1260,52.42950441,24.52919315,1,0,0,response1disk,,6,13.10054875,4.596868631,1,0,0,rectangle,13.10054875,4.596868631,1,0,0,13.10054875,4.596868631,1,0,0,0,103,103,102,1,,,,,,,,,
,,,,,,,,,,,,,FF,,,,,,,,0.7655,,,,,,,,,,,,,,,,,,,,,,60fcbd2e5fe1b36118174cb6,61036e9cf105adf521ac049b,2021-07-29_20h15.34.824,Simcolourproject_2stim_asymm_v5,2020.2.10,Linux x86_64,60,61025ae37ef11b136ea224fe,,,,,,,,,64,31.70259981,16.38412467,1,0,0,response1disk,,6,30.12984588,-3.025006482,1,0,0,rectangle,30.12984588,-3.025006482,1,0,0,30.12984588,-3.025006482,1,0,0,0,104,104,5,1,,,,,,,,,
,,,,,,,,,,,,,FF,,,,,,,,0.9654,,,,,,,,,,,,,,,,,,,,,,60fcbd2e5fe1b36118174cb6,61036e9cf105adf521ac049b,2021-07-29_20h15.34.824,Simcolourproject_2stim_asymm_v5,2020.2.10,Linux x86_64,60,61025ae37ef11b136ea224fe,,,,,,,,,1597,-38.83011609,41.24144926,1,0,0,response7disk,,0,6.823253733,11.01781599,1,0,0,rectangle,-17.12616069,-100.3925372,1,0,0,-1.379920217,5.445062003,1,0,0,0,105,105,148,1,,response5disk_3,TRUE,3,3,"[110,188,241,318,157,24,30,142,106,80,284,150,68,168,216,323,164,157,184,113]",1.6641,rectangle,
,,,,,,,,,,,,,FF,,,,,,,,1.0364,,,,,,,,,,,,,,,,,,,,,,60fcbd2e5fe1b36118174cb6,61036e9cf105adf521ac049b,2021-07-29_20h15.34.824,Simcolourproject_2stim_asymm_v5,2020.2.10,Linux x86_64,60,61025ae37ef11b136ea224fe,,,,,,,,,4259,19.64366408,35.34725971,1,0,0,response1disk,,7,-5.274402697,-17.18418638,1,0,0,rectangle,-5.274402697,-17.18418638,1,0,0,-5.274402697,-17.18418638,1,0,0,0,106,106,48,1,,,,,,,,,
,,,,,,,,,,,,,FF,,,,,,,,0.7647,,,,,,,,,,,,,,,,,,,,,,60fcbd2e5fe1b36118174cb6,61036e9cf105adf521ac049b,2021-07-29_20h15.34.824,Simcolourproject_2stim_asymm_v5,2020.2.10,Linux x86_64,60,61025ae37ef11b136ea224fe,,,,,,,,,1737,34.77193579,48.42230874,1,0,0,response1disk,,7,1.083458726,13.24530626,1,0,0,rectangle,1.083458726,13.24530626,1,0,0,1.083458726,13.24530626,1,0,0,0,107,107,29,1,,,,,,,,,
,,,,,,,,,,,,,FF,,,,,,,,1.5989,,,,,,,,,,,,,,,,,,,,,,60fcbd2e5fe1b36118174cb6,61036e9cf105adf521ac049b,2021-07-29_20h15.34.824,Simcolourproject_2stim_asymm_v5,2020.2.10,Linux x86_64,60,61025ae37ef11b136ea224fe,,,,,,,,,2533,23.99263875,-39.96538789,1,0,0,response3disk,,4,12.24190616,-15.54009456,1,0,0,rectangle,12.24190616,-15.54009456,1,0,0,12.24190616,-15.54009456,1,0,0,0,108,108,93,1,,,,,,,,,
,,,,,,,,,,,,,FF,,,,,,,,1.114,,,,,,,,,,,,,,,,,,,,,,60fcbd2e5fe1b36118174cb6,61036e9cf105adf521ac049b,2021-07-29_20h15.34.824,Simcolourproject_2stim_asymm_v5,2020.2.10,Linux x86_64,60,61025ae37ef11b136ea224fe,,,,,,,,,732,32.63599826,-42.54312231,1,0,0,response3disk,,4,9.244103379,-11.68472341,1,0,0,rectangle,24.44918173,43.81007722,1,0,0,10.64498231,-4.968805339,1,0,0,0,109,109,81,1,,response1disk_3,TRUE,7,7,"[110,188,241,318,157,24,30,142,106,80,284,150,68,168,216,323,164,157,184,113]",1.8298,rectangle,
,,,,,,,,,,,,,FF,,,,,,,,3.3816,,,,,,,,,,,,,,,,,,,,,,60fcbd2e5fe1b36118174cb6,61036e9cf105adf521ac049b,2021-07-29_20h15.34.824,Simcolourproject_2stim_asymm_v5,2020.2.10,Linux x86_64,60,61025ae37ef11b136ea224fe,,,,,,,,,3575,31.73555879,63.71996522,1,0,0,response1disk,,7,-2.52821125,8.882659711,1,0,0,rectangle,-2.52821125,8.882659711,1,0,0,-2.52821125,8.882659711,1,0,0,0,110,110,151,1,,,,,,,,,
,,,,,,,,,,,,,FF,,,,,,,,1.0172,,,,,,,,,,,,,,,,,,,,,,60fcbd2e5fe1b36118174cb6,61036e9cf105adf521ac049b,2021-07-29_20h15.34.824,Simcolourproject_2stim_asymm_v5,2020.2.10,Linux x86_64,60,61025ae37ef11b136ea224fe,,,,,,,,,3787,38.46236553,-43.69224342,1,0,0,response3disk,,4,23.81256063,-9.530182361,1,0,0,rectangle,23.81256063,-9.530182361,1,0,0,23.81256063,-9.530182361,1,0,0,0,111,111,2,1,,,,,,,,,
,,,,,,,,,,,,,FF,,,,,,,,1.1639,,,,,,,,,,,,,,,,,,,,,,60fcbd2e5fe1b36118174cb6,61036e9cf105adf521ac049b,2021-07-29_20h15.34.824,Simcolourproject_2stim_asymm_v5,2020.2.10,Linux x86_64,60,61025ae37ef11b136ea224fe,,,,,,,,,3734,49.87764891,41.05849027,1,0,0,response1disk,,6,6.173790833,4.232122532,1,0,0,rectangle,37.496887,-108.2489827,1,0,0,-0.454627235,-5.670758475,1,0,0,0,112,112,27,1,,response3disk_3,TRUE,4,4,"[110,188,241,318,157,24,30,142,106,80,284,150,68,168,216,323,164,157,184,113]",1.9624,rectangle,
,,,,,,,,,,,,,FF,,,,,,,,1.5152,,,,,,,,,,,,,,,,,,,,,,60fcbd2e5fe1b36118174cb6,61036e9cf105adf521ac049b,2021-07-29_20h15.34.824,Simcolourproject_2stim_asymm_v5,2020.2.10,Linux x86_64,60,61025ae37ef11b136ea224fe,,,,,,,,,2221,108.5125131,47.13197669,1,0,0,response1disk,,6,-11.2426645,10.83637068,1,0,0,rectangle,-11.2426645,10.83637068,1,0,0,-11.2426645,10.83637068,1,0,0,0,113,113,89,1,,,,,,,,,
,,,,,,,,,,,,,FF,,,,,,,,0.8168,,,,,,,,,,,,,,,,,,,,,,60fcbd2e5fe1b36118174cb6,61036e9cf105adf521ac049b,2021-07-29_20h15.34.824,Simcolourproject_2stim_asymm_v5,2020.2.10,Linux x86_64,60,61025ae37ef11b136ea224fe,,,,,,,,,1988,28.48692593,54.79574633,1,0,0,response1disk,,7,22.70655475,9.952581602,1,0,0,rectangle,22.70655475,9.952581602,1,0,0,22.70655475,9.952581602,1,0,0,0,114,114,100,1,,,,,,,,,
,,,,,,,,,,,,,FF,,,,,,,,1.2318,,,,,,,,,,,,,,,,,,,,,,60fcbd2e5fe1b36118174cb6,61036e9cf105adf521ac049b,2021-07-29_20h15.34.824,Simcolourproject_2stim_asymm_v5,2020.2.10,Linux x86_64,60,61025ae37ef11b136ea224fe,,,,,,,,,3440,22.42457233,-30.9024483,1,0,0,response3disk,,4,12.40206241,-10.90078785,1,0,0,rectangle,12.40206241,-10.90078785,1,0,0,12.40206241,-10.90078785,1,0,0,0,115,115,141,1,,,,,,,,,
,,,,,,,,,,,,,FF,,,,,,,,1.9623,,,,,,,,,,,,,,,,,,,,,,60fcbd2e5fe1b36118174cb6,61036e9cf105adf521ac049b,2021-07-29_20h15.34.824,Simcolourproject_2stim_asymm_v5,2020.2.10,Linux x86_64,60,61025ae37ef11b136ea224fe,,,,,,,,,1180,93.42686831,30.19452526,1,0,0,response1disk,,6,14.21895697,-9.576276111,1,0,0,rectangle,14.21895697,-9.576276111,1,0,0,14.21895697,-9.576276111,1,0,0,0,116,116,158,1,,,,,,,,,
,,,,,,,,,,,,,FF,,,,,,,,1.1646,,,,,,,,,,,,,,,,,,,,,,60fcbd2e5fe1b36118174cb6,61036e9cf105adf521ac049b,2021-07-29_20h15.34.824,Simcolourproject_2stim_asymm_v5,2020.2.10,Linux x86_64,60,61025ae37ef11b136ea224fe,,,,,,,,,2721,-47.96161036,33.7071718,1,0,0,response7disk,,1,-15.45628761,12.95360704,1,0,0,rectangle,-15.45628761,12.95360704,1,0,0,-15.45628761,12.95360704,1,0,0,0,117,117,88,1,,,,,,,,,
,,,,,,,,,,,,,FF,,,,,,,,1.8799,,,,,,,,,,,,,,,,,,,,,,60fcbd2e5fe1b36118174cb6,61036e9cf105adf521ac049b,2021-07-29_20h15.34.824,Simcolourproject_2stim_asymm_v5,2020.2.10,Linux x86_64,60,61025ae37ef11b136ea224fe,,,,,,,,,3969,-18.39256695,-49.84654038,1,0,0,response5disk,,3,28.99215055,-10.32974292,1,0,0,rectangle,28.99215055,-10.32974292,1,0,0,28.99215055,-10.32974292,1,0,0,0,118,118,56,1,,,,,,,,,
,,,,,,,,,,,,,FF,,,,,,,,2.132,,,,,,,,,,,,,,,,,,,,,,60fcbd2e5fe1b36118174cb6,61036e9cf105adf521ac049b,2021-07-29_20h15.34.824,Simcolourproject_2stim_asymm_v5,2020.2.10,Linux x86_64,60,61025ae37ef11b136ea224fe,,,,,,,,,2032,-39.30619031,-56.71206783,1,0,0,response5disk,,3,-15.46878761,-6.289264344,1,0,0,rectangle,-15.46878761,-6.289264344,1,0,0,-15.46878761,-6.289264344,1,0,0,0,119,119,127,1,,,,,,,,,
,,,,,,,,,,,,,FF,,,,,,,,1.0336,,,,,,,,,,,,,,,,,,,,,,60fcbd2e5fe1b36118174cb6,61036e9cf105adf521ac049b,2021-07-29_20h15.34.824,Simcolourproject_2stim_asymm_v5,2020.2.10,Linux x86_64,60,61025ae37ef11b136ea224fe,,,,,,,,,392,46.39083245,80.5113473,1,0,0,response1disk,,7,-9.312928148,3.042034624,1,0,0,rectangle,-9.312928148,3.042034624,1,0,0,-9.312928148,3.042034624,1,0,0,0,120,120,121,1,,,,,,,,,
,,,,,,,,,,,,,FF,,,,,,,,1.4384,,,,,,,,,,,,,,,,,,,,,,60fcbd2e5fe1b36118174cb6,61036e9cf105adf521ac049b,2021-07-29_20h15.34.824,Simcolourproject_2stim_asymm_v5,2020.2.10,Linux x86_64,60,61025ae37ef11b136ea224fe,,,,,,,,,1974,40.71627182,-20.17500674,1,0,0,response3disk,,5,14.67598823,3.804192838,1,0,0,rectangle,14.67598823,3.804192838,1,0,0,14.67598823,3.804192838,1,0,0,0,121,121,125,1,,,,,,,,,
,,,,,,,,,,,,,FF,,,,,,,,0.9311,,,,,,,,,,,,,,,,,,,,,,60fcbd2e5fe1b36118174cb6,61036e9cf105adf521ac049b,2021-07-29_20h15.34.824,Simcolourproject_2stim_asymm_v5,2020.2.10,Linux x86_64,60,61025ae37ef11b136ea224fe,,,,,,,,,1005,31.78511934,55.29188892,1,0,0,response1disk,,7,18.70977735,-2.801617807,1,0,0,rectangle,18.70977735,-2.801617807,1,0,0,18.70977735,-2.801617807,1,0,0,0,122,122,147,1,,,,,,,,,
,,,,,,,,,,,,,FF,,,,,,,,1.2318,,,,,,,,,,,,,,,,,,,,,,60fcbd2e5fe1b36118174cb6,61036e9cf105adf521ac049b,2021-07-29_20h15.34.824,Simcolourproject_2stim_asymm_v5,2020.2.10,Linux x86_64,60,61025ae37ef11b136ea224fe,,,,,,,,,1918,20.99415238,25.78370977,1,0,0,response1disk,,7,21.28243364,11.36986678,1,0,0,rectangle,21.28243364,11.36986678,1,0,0,21.28243364,11.36986678,1,0,0,0,123,123,3,1,,,,,,,,,
,,,,,,,,,,,,,FF,,,,,,,,1.2523,,,,,,,,,,,,,,,,,,,,,,60fcbd2e5fe1b36118174cb6,61036e9cf105adf521ac049b,2021-07-29_20h15.34.824,Simcolourproject_2stim_asymm_v5,2020.2.10,Linux x86_64,60,61025ae37ef11b136ea224fe,,,,,,,,,3632,25.13184776,-31.3510323,1,0,0,response3disk,,4,11.48565615,-12.48408865,1,0,0,rectangle,11.48565615,-12.48408865,1,0,0,11.48565615,-12.48408865,1,0,0,0,124,124,139,1,,,,,,,,,
,,,,,,,,,,,,,FF,,,,,,,,0.9821,,,,,,,,,,,,,,,,,,,,,,60fcbd2e5fe1b36118174cb6,61036e9cf105adf521ac049b,2021-07-29_20h15.34.824,Simcolourproject_2stim_asymm_v5,2020.2.10,Linux x86_64,60,61025ae37ef11b136ea224fe,,,,,,,,,2576,23.31300007,55.19386646,1,0,0,response1disk,,7,22.30401568,10.20658551,1,0,0,rectangle,22.30401568,10.20658551,1,0,0,22.30401568,10.20658551,1,0,0,0,125,125,73,1,,,,,,,,,
,,,,,,,,,,,,,FF,,,,,,,,0.8812,,,,,,,,,,,,,,,,,,,,,,60fcbd2e5fe1b36118174cb6,61036e9cf105adf521ac049b,2021-07-29_20h15.34.824,Simcolourproject_2stim_asymm_v5,2020.2.10,Linux x86_64,60,61025ae37ef11b136ea224fe,,,,,,,,,1550,27.02647669,32.94867569,1,0,0,response1disk,,7,27.02647669,-16.16880551,1,0,0,rectangle,27.02647669,-16.16880551,1,0,0,27.02647669,-16.16880551,1,0,0,0,126,126,15,1,,,,,,,,,
,,,,,,,,,,,,,FF,,,,,,,,0.7679,,,,,,,,,,,,,,,,,,,,,,60fcbd2e5fe1b36118174cb6,61036e9cf105adf521ac049b,2021-07-29_20h15.34.824,Simcolourproject_2stim_asymm_v5,2020.2.10,Linux x86_64,60,61025ae37ef11b136ea224fe,,,,,,,,,1986,27.02647669,60.31422786,1,0,0,response1disk,,7,25.22701377,6.558685067,1,0,0,rectangle,25.22701377,6.558685067,1,0,0,25.22701377,6.558685067,1,0,0,0,127,127,71,1,,,,,,,,,
,,,,,,,,,,,,,FF,,,,,,,,0.7499,,,,,,,,,,,,,,,,,,,,,,60fcbd2e5fe1b36118174cb6,61036e9cf105adf521ac049b,2021-07-29_20h15.34.824,Simcolourproject_2stim_asymm_v5,2020.2.10,Linux x86_64,60,61025ae37ef11b136ea224fe,,,,,,,,,390,25.22701377,49.60241129,1,0,0,response1disk,,7,25.51534386,3.566253381,1,0,0,rectangle,25.51534386,3.566253381,1,0,0,25.51534386,3.566253381,1,0,0,0,128,128,108,1,,,,,,,,,
,,,,,,,,,,,,,FF,,,,,,,,1.68,,,,,,,,,,,,,,,,,,,,,,60fcbd2e5fe1b36118174cb6,61036e9cf105adf521ac049b,2021-07-29_20h15.34.824,Simcolourproject_2stim_asymm_v5,2020.2.10,Linux x86_64,60,61025ae37ef11b136ea224fe,,,,,,,,,1383,44.84063711,-24.60767282,1,0,0,response3disk,,5,26.68013879,-3.460846333,1,0,0,rectangle,26.68013879,-3.460846333,1,0,0,26.68013879,-3.460846333,1,0,0,0,129,129,16,1,,,,,,,,,
,,,,,,,,,,,,,FF,,,,,,,,1.2316,,,,,,,,,,,,,,,,,,,,,,60fcbd2e5fe1b36118174cb6,61036e9cf105adf521ac049b,2021-07-29_20h15.34.824,Simcolourproject_2stim_asymm_v5,2020.2.10,Linux x86_64,60,61025ae37ef11b136ea224fe,,,,,,,,,438,-50.95096588,-23.08726264,1,0,0,response5disk,,2,-7.691443749,4.008147919,1,0,0,rectangle,-7.691443749,4.008147919,1,0,0,-7.691443749,4.008147919,1,0,0,0,130,130,58,1,,,,,,,,,
,,,,,,,,,,,,,FF,,,,,,,,0.9172,,,,,,,,,,,,,,,,,,,,,,60fcbd2e5fe1b36118174cb6,61036e9cf105adf521ac049b,2021-07-29_20h15.34.824,Simcolourproject_2stim_asymm_v5,2020.2.10,Linux x86_64,60,61025ae37ef11b136ea224fe,,,,,,,,,1963,-33.2886121,43.3914737,1,0,0,response7disk,,0,-6.362586307,-1.171393174,1,0,0,rectangle,-6.362586307,-1.171393174,1,0,0,-6.362586307,-1.171393174,1,0,0,0,131,131,104,1,,,,,,,,,
,,,,,,,,,,,,,FF,,,,,,,,1.3814,,,,,,,,,,,,,,,,,,,,,,60fcbd2e5fe1b36118174cb6,61036e9cf105adf521ac049b,2021-07-29_20h15.34.824,Simcolourproject_2stim_asymm_v5,2020.2.10,Linux x86_64,60,61025ae37ef11b136ea224fe,,,,,,,,,2373,-31.20721558,-43.17959692,1,0,0,response5disk,,3,-5.235877306,-13.20454765,1,0,0,rectangle,-5.235877306,-13.20454765,1,0,0,-5.235877306,-13.20454765,1,0,0,0,132,132,159,1,,,,,,,,,
,,,,,,,,,,,,,FF,,,,,,,,2.008,,,,,,,,,,,,,,,,,,,,,,60fcbd2e5fe1b36118174cb6,61036e9cf105adf521ac049b,2021-07-29_20h15.34.824,Simcolourproject_2stim_asymm_v5,2020.2.10,Linux x86_64,60,61025ae37ef11b136ea224fe,,,,,,,,,3060,-24.65623892,-36.49859097,1,0,0,response5disk,,3,4.44844901,8.812396038,1,0,0,rectangle,4.44844901,8.812396038,1,0,0,4.44844901,8.812396038,1,0,0,0,133,133,61,1,,,,,,,,,
,,,,,,,,,,,,,FF,,,,,,,,1.4016,,,,,,,,,,,,,,,,,,,,,,60fcbd2e5fe1b36118174cb6,61036e9cf105adf521ac049b,2021-07-29_20h15.34.824,Simcolourproject_2stim_asymm_v5,2020.2.10,Linux x86_64,60,61025ae37ef11b136ea224fe,,,,,,,,,520,70.70538359,-23.0045478,1,0,0,response3disk,,5,26.73531458,-5.566754567,1,0,0,rectangle,26.73531458,-5.566754567,1,0,0,26.73531458,-5.566754567,1,0,0,0,134,134,80,1,,,,,,,,,
,,,,,,,,,,,,,FF,,,,,,,,1.0284,,,,,,,,,,,,,,,,,,,,,,60fcbd2e5fe1b36118174cb6,61036e9cf105adf521ac049b,2021-07-29_20h15.34.824,Simcolourproject_2stim_asymm_v5,2020.2.10,Linux x86_64,60,61025ae37ef11b136ea224fe,,,,,,,,,346,-21.8073131,-37.65161833,1,0,0,response5disk,,3,2.084728272,-3.550397115,1,0,0,rectangle,2.084728272,-3.550397115,1,0,0,2.084728272,-3.550397115,1,0,0,0,135,135,132,1,,,,,,,,,
,,,,,,,,,,,,,FF,,,,,,,,1.1428,,,,,,,,,,,,,,,,,,,,,,60fcbd2e5fe1b36118174cb6,61036e9cf105adf521ac049b,2021-07-29_20h15.34.824,Simcolourproject_2stim_asymm_v5,2020.2.10,Linux x86_64,60,61025ae37ef11b136ea224fe,,,,,,,,,3974,-66.72796807,18.58046259,1,0,0,response7disk,,1,-19.18895369,-8.243317107,1,0,0,rectangle,-19.18895369,-8.243317107,1,0,0,-19.18895369,-8.243317107,1,0,0,0,136,136,90,1,,,,,,,,,
,,,,,,,,,,,,,FF,,,,,,,,1.4138,,,,,,,,,,,,,,,,,,,,,,60fcbd2e5fe1b36118174cb6,61036e9cf105adf521ac049b,2021-07-29_20h15.34.824,Simcolourproject_2stim_asymm_v5,2020.2.10,Linux x86_64,60,61025ae37ef11b136ea224fe,,,,,,,,,4339,38.74908429,-20.15903994,1,0,0,response3disk,,5,20.10811721,-4.3847233,1,0,0,rectangle,20.10811721,-4.3847233,1,0,0,20.10811721,-4.3847233,1,0,0,0,137,137,92,1,,,,,,,,,
,,,,,,,,,,,,,FF,,,,,,,,0.7833,,,,,,,,,,,,,,,,,,,,,,60fcbd2e5fe1b36118174cb6,61036e9cf105adf521ac049b,2021-07-29_20h15.34.824,Simcolourproject_2stim_asymm_v5,2020.2.10,Linux x86_64,60,61025ae37ef11b136ea224fe,,,,,,,,,2207,23.15059773,79.97284632,1,0,0,response1disk,,7,5.299816211,-0.704254495,1,0,0,rectangle,5.299816211,-0.704254495,1,0,0,5.299816211,-0.704254495,1,0,0,0,138,138,42,1,,,,,,,,,
,,,,,,,,,,,,,FF,,,,,,,,0.7336,,,,,,,,,,,,,,,,,,,,,,60fcbd2e5fe1b36118174cb6,61036e9cf105adf521ac049b,2021-07-29_20h15.34.824,Simcolourproject_2stim_asymm_v5,2020.2.10,Linux x86_64,60,61025ae37ef11b136ea224fe,,,,,,,,,408,25.29883995,43.00978424,1,0,0,response1disk,,7,18.23067578,4.941155746,1,0,0,rectangle,18.23067578,4.941155746,1,0,0,18.23067578,4.941155746,1,0,0,0,139,139,65,1,,,,,,,,,
,,,,,,,,,,,,,FF,,,,,,,,1.6146,,,,,,,,,,,,,,,,,,,,,,60fcbd2e5fe1b36118174cb6,61036e9cf105adf521ac049b,2021-07-29_20h15.34.824,Simcolourproject_2stim_asymm_v5,2020.2.10,Linux x86_64,60,61025ae37ef11b136ea224fe,,,,,,,,,1534,32.08931856,-44.11118874,1,0,0,response3disk,,4,12.8994257,4.55053074,1,0,0,rectangle,12.8994257,4.55053074,1,0,0,12.8994257,4.55053074,1,0,0,0,140,140,112,1,,,,,,,,,
,,,,,,,,,,,,,FF,,,,,,,,1.3647,,,,,,,,,,,,,,,,,,,,,,60fcbd2e5fe1b36118174cb6,61036e9cf105adf521ac049b,2021-07-29_20h15.34.824,Simcolourproject_2stim_asymm_v5,2020.2.10,Linux x86_64,60,61025ae37ef11b136ea224fe,,,,,,,,,3690,59.32442639,-21.16275089,1,0,0,response3disk,,5,20.33809768,9.091985886,1,0,0,rectangle,47.99825435,-21.11104191,1,0,0,20.20308792,-2.09917639,1,0,0,0,141,141,28,1,,response3disk_3,TRUE,5,5,"[110,188,241,318,157,24,30,142,106,80,284,150,68,168,216,323,164,157,184,113]",1.9257,rectangle,
,,,,,,,,,,,,,FF,,,,,,,,0.9,,,,,,,,,,,,,,,,,,,,,,60fcbd2e5fe1b36118174cb6,61036e9cf105adf521ac049b,2021-07-29_20h15.34.824,Simcolourproject_2stim_asymm_v5,2020.2.10,Linux x86_64,60,61025ae37ef11b136ea224fe,,,,,,,,,2627,40.27637923,47.34557532,1,0,0,response1disk,,7,18.25904492,15.30385121,1,0,0,rectangle,18.25904492,15.30385121,1,0,0,18.25904492,15.30385121,1,0,0,0,142,142,136,1,,,,,,,,,
,,,,,,,,,,,,,FF,,,,,,,,0.7851,,,,,,,,,,,,,,,,,,,,,,60fcbd2e5fe1b36118174cb6,61036e9cf105adf521ac049b,2021-07-29_20h15.34.824,Simcolourproject_2stim_asymm_v5,2020.2.10,Linux x86_64,60,61025ae37ef11b136ea224fe,,,,,,,,,1637,28.16011929,43.13380768,1,0,0,response1disk,,7,19.23004103,11.66635116,1,0,0,rectangle,19.23004103,11.66635116,1,0,0,19.23004103,11.66635116,1,0,0,0,143,143,12,1,,,,,,,,,
,,,,,,,,,,,,,FF,,,,,,,,1.1189,,,,,,,,,,,,,,,,,,,,,,60fcbd2e5fe1b36118174cb6,61036e9cf105adf521ac049b,2021-07-29_20h15.34.824,Simcolourproject_2stim_asymm_v5,2020.2.10,Linux x86_64,60,61025ae37ef11b136ea224fe,,,,,,,,,3896,54.06251225,-38.56016326,1,0,0,response3disk,,5,27.87481655,-13.94937188,1,0,0,rectangle,27.87481655,-13.94937188,1,0,0,27.87481655,-13.94937188,1,0,0,0,144,144,128,1,,,,,,,,,
,,,,,,,,,,,,,FF,,,,,,,,0.8155,,,,,,,,,,,,,,,,,,,,,,60fcbd2e5fe1b36118174cb6,61036e9cf105adf521ac049b,2021-07-29_20h15.34.824,Simcolourproject_2stim_asymm_v5,2020.2.10,Linux x86_64,60,61025ae37ef11b136ea224fe,,,,,,,,,2195,20.49874222,47.09140051,1,0,0,response1disk,,7,20.49874222,2.425384224,1,0,0,rectangle,20.49874222,2.425384224,1,0,0,20.49874222,2.425384224,1,0,0,0,145,145,85,1,,,,,,,,,
,,,,,,,,,,,,,FF,,,,,,,,0.7657,,,,,,,,,,,,,,,,,,,,,,60fcbd2e5fe1b36118174cb6,61036e9cf105adf521ac049b,2021-07-29_20h15.34.824,Simcolourproject_2stim_asymm_v5,2020.2.10,Linux x86_64,60,61025ae37ef11b136ea224fe,,,,,,,,,912,35.49801002,73.22963333,1,0,0,response1disk,,7,24.61495322,16.65531608,1,0,0,rectangle,24.61495322,16.65531608,1,0,0,24.61495322,16.65531608,1,0,0,0,146,146,45,1,,,,,,,,,
,,,,,,,,,,,,,FF,,,,,,,,0.849,,,,,,,,,,,,,,,,,,,,,,60fcbd2e5fe1b36118174cb6,61036e9cf105adf521ac049b,2021-07-29_20h15.34.824,Simcolourproject_2stim_asymm_v5,2020.2.10,Linux x86_64,60,61025ae37ef11b136ea224fe,,,,,,,,,2896,33.26329319,21.70023803,1,0,0,response1disk,,6,19.86177932,0.520013102,1,0,0,rectangle,19.86177932,0.520013102,1,0,0,19.86177932,0.520013102,1,0,0,0,147,147,7,1,,,,,,,,,
,,,,,,,,,,,,,FF,,,,,,,,1.4151,,,,,,,,,,,,,,,,,,,,,,60fcbd2e5fe1b36118174cb6,61036e9cf105adf521ac049b,2021-07-29_20h15.34.824,Simcolourproject_2stim_asymm_v5,2020.2.10,Linux x86_64,60,61025ae37ef11b136ea224fe,,,,,,,,,2704,41.4768187,120.1557815,1,0,0,response1disk,,7,24.40743368,9.494866751,1,0,0,rectangle,24.40743368,9.494866751,1,0,0,24.40743368,9.494866751,1,0,0,0,148,148,46,1,,,,,,,,,
,,,,,,,,,,,,,FF,,,,,,,,1.0396,,,,,,,,,,,,,,,,,,,,,,60fcbd2e5fe1b36118174cb6,61036e9cf105adf521ac049b,2021-07-29_20h15.34.824,Simcolourproject_2stim_asymm_v5,2020.2.10,Linux x86_64,60,61025ae37ef11b136ea224fe,,,,,,,,,689,60.1079225,96.82885243,1,0,0,response1disk,,7,9.633361197,-1.956305295,1,0,0,rectangle,-114.77875,71.94679639,1,0,0,-17.08792826,14.51102894,1,0,0,0,149,149,146,1,,response7disk_3,TRUE,1,1,"[110,188,241,318,157,24,30,142,106,80,284,150,68,168,216,323,164,157,184,113]",1.6134,rectangle,
,,,,,,,,,,,,,FF,,,,,,,,1.5691,,,,,,,,,,,,,,,,,,,,,,60fcbd2e5fe1b36118174cb6,61036e9cf105adf521ac049b,2021-07-29_20h15.34.824,Simcolourproject_2stim_asymm_v5,2020.2.10,Linux x86_64,60,61025ae37ef11b136ea224fe,,,,,,,,,568,44.03101796,-32.76016318,1,0,0,response3disk,,5,22.69508014,-14.75586603,1,0,0,rectangle,22.69508014,-14.75586603,1,0,0,22.69508014,-14.75586603,1,0,0,0,150,150,37,1,,,,,,,,,
,,,,,,,,,,,,,FF,,,,,,,,1.1634,,,,,,,,,,,,,,,,,,,,,,60fcbd2e5fe1b36118174cb6,61036e9cf105adf521ac049b,2021-07-29_20h15.34.824,Simcolourproject_2stim_asymm_v5,2020.2.10,Linux x86_64,60,61025ae37ef11b136ea224fe,,,,,,,,,2746,22.67550006,67.15846624,1,0,0,response1disk,,7,21.52242387,8.471673376,1,0,0,rectangle,21.52242387,8.471673376,1,0,0,21.52242387,8.471673376,1,0,0,0,151,151,129,1,,,,,,,,,
,,,,,,,,,,,,,FF,,,,,,,,1.1141,,,,,,,,,,,,,,,,,,,,,,60fcbd2e5fe1b36118174cb6,61036e9cf105adf521ac049b,2021-07-29_20h15.34.824,Simcolourproject_2stim_asymm_v5,2020.2.10,Linux x86_64,60,61025ae37ef11b136ea224fe,,,,,,,,,1766,36.80513895,-57.82549558,1,0,0,response3disk,,4,24.34249228,12.52582383,1,0,0,rectangle,24.34249228,12.52582383,1,0,0,24.34249228,12.52582383,1,0,0,0,152,152,49,1,,,,,,,,,
,,,,,,,,,,,,,FF,,,,,,,,1.1161,,,,,,,,,,,,,,,,,,,,,,60fcbd2e5fe1b36118174cb6,61036e9cf105adf521ac049b,2021-07-29_20h15.34.824,Simcolourproject_2stim_asymm_v5,2020.2.10,Linux x86_64,60,61025ae37ef11b136ea224fe,,,,,,,,,2356,-22.99784046,-62.5181226,1,0,0,response5disk,,3,-8.736267983,-8.496686251,1,0,0,rectangle,-8.736267983,-8.496686251,1,0,0,-8.736267983,-8.496686251,1,0,0,0,153,153,25,1,,,,,,,,,
,,,,,,,,,,,,,FF,,,,,,,,,,,,,,,,,,,,,,,,,,,,,,60fcbd2e5fe1b36118174cb6,61036e9cf105adf521ac049b,2021-07-29_20h15.34.824,Simcolourproject_2stim_asymm_v5,2020.2.10,Linux x86_64,60,61025ae37ef11b136ea224fe,,,,,,,,,969,,,,,,,,,,,,,,,,,,,,,,,,,2,0,320,55,1,,,,,,,,,319
