key_resp.keys,key_resp.rt,key_resp_14.keys,key_resp_14.rt,key_resp_15.keys,key_resp_15.rt,key_resp_17.keys,key_resp_17.rt,key_resp_9.keys,key_resp_9.rt,key_resp_10.keys,key_resp_10.rt,practice_comparison,Ecc,mouse_5.x,mouse_5.y,mouse_5.leftButton,mouse_5.midButton,mouse_5.rightButton,mouse_5.clicked_name,pracsimilarity,response_time,mouse_10.x,mouse_10.y,mouse_10.leftButton,mouse_10.midButton,mouse_10.rightButton,mouse_10.clicked_name,mouse_7.x,mouse_7.y,mouse_7.leftButton,mouse_7.midButton,mouse_7.rightButton,mouse_6.x,mouse_6.y,mouse_6.leftButton,mouse_6.midButton,mouse_6.rightButton,duringprac.thisRepN,duringprac.thisTrialN,duringprac.thisN,duringprac.thisIndex,duringprac.ran,participant,session,date,expName,psychopyVersion,OS,frameRate,study_id,mouse_7.clicked_name,catchpracsimilarity,catch_response_time,catchnumberprac,catchtrialorderprac,mouse_6.clicked_name,key_resp_22.keys,key_resp_22.rt,realcomparison,mouse.x,mouse.y,mouse.leftButton,mouse.midButton,mouse.rightButton,mouse.clicked_name,Colour2,similarity,mouse_2.x,mouse_2.y,mouse_2.leftButton,mouse_2.midButton,mouse_2.rightButton,mouse_2.clicked_name,mouse_3.x,mouse_3.y,mouse_3.leftButton,mouse_3.midButton,mouse_3.rightButton,mouse_11.x,mouse_11.y,mouse_11.leftButton,mouse_11.midButton,mouse_11.rightButton,trials_2.thisRepN,trials_2.thisTrialN,trials_2.thisN,trials_2.thisIndex,trials_2.ran,Colour1,mouse_3.clicked_name,catchornah,catchsimilarity,catchnumber,catchtrialorder,catchRT,mouse_11.clicked_name
space,1.8209,space,9.8315,space,30.6503,space,2.9377,space,1.0941,space,3.2639,98,PF,39.9876709,-84.83325195,1,0,0,response3disk_5,4,10.8067,11.61151123,5.033691406,1,0,0,rectangle_8,11.61151123,5.033691406,1,0,0,11.61151123,5.033691406,1,0,0,0,0,0,1,1,60fcf1c57085de494d9f15c5,61036ec518eabf7ea66fd164,2021-07-30_13h16.09.359,Simcolourproject_2stim_asymm_v5,2020.2.10,MacIntel,60,61025ae37ef11b136ea224fe,,,,,,,,,,,,,,,,,,,,,,,,,,,,,,,,,,,,,,,,,,,,,,
,,,,,,,,,,,,69,FF,88.02490234,58.72241211,1,0,0,response1disk_5,6,6.4994,0.751342773,1.105224609,1,0,0,rectangle_8,-79.21398926,29.72116089,1,0,0,-5.737609863,2.024749756,1,0,0,0,1,1,3,1,60fcf1c57085de494d9f15c5,61036ec518eabf7ea66fd164,2021-07-30_13h16.09.359,Simcolourproject_2stim_asymm_v5,2020.2.10,MacIntel,60,61025ae37ef11b136ea224fe,response7disk_7,1,2.1679,1,"[2,5]",rectangle_4,,,,,,,,,,,,,,,,,,,,,,,,,,,,,,,,,,,,,,,,
,,,,,,,,,,,,66,FF,41.03765869,-67.40942383,1,0,0,response3disk_5,4,6.2482,-16.28039551,3.805358887,1,0,0,rectangle_8,-16.28039551,3.805358887,1,0,0,-16.28039551,3.805358887,1,0,0,0,2,2,0,1,60fcf1c57085de494d9f15c5,61036ec518eabf7ea66fd164,2021-07-30_13h16.09.359,Simcolourproject_2stim_asymm_v5,2020.2.10,MacIntel,60,61025ae37ef11b136ea224fe,,,,,,,,,,,,,,,,,,,,,,,,,,,,,,,,,,,,,,,,,,,,,,
,,,,,,,,,,,,7,PF,81.1998291,-55.47509766,1,0,0,response3disk_5,5,2.6332,8.349243164,2.030639648,1,0,0,rectangle_8,8.349243164,2.030639648,1,0,0,8.349243164,2.030639648,1,0,0,0,3,3,2,1,60fcf1c57085de494d9f15c5,61036ec518eabf7ea66fd164,2021-07-30_13h16.09.359,Simcolourproject_2stim_asymm_v5,2020.2.10,MacIntel,60,61025ae37ef11b136ea224fe,,,,,,,,,,,,,,,,,,,,,,,,,,,,,,,,,,,,,,,,,,,,,,
,,,,,,,,,,,,88,FF,105.7001343,30.61810303,1,0,0,response1disk_5,6,5.532,21.63092041,-0.162353516,1,0,0,rectangle_8,-95.31835938,50.56665039,1,0,0,-16.26635742,4.428405762,1,0,0,0,4,4,5,1,60fcf1c57085de494d9f15c5,61036ec518eabf7ea66fd164,2021-07-30_13h16.09.359,Simcolourproject_2stim_asymm_v5,2020.2.10,MacIntel,60,61025ae37ef11b136ea224fe,response7disk_7,1,1.5658,1,"[2,5]",rectangle_4,,,,,,,,,,,,,,,,,,,,,,,,,,,,,,,,,,,,,,,,
,,,,,,,,,,,,157,PF,45.95300293,-81.3046875,1,0,0,response3disk_5,4,2.5495,-6.809570313,0.735046387,1,0,0,rectangle_8,-6.809570313,0.735046387,1,0,0,-6.809570313,0.735046387,1,0,0,0,5,5,6,1,60fcf1c57085de494d9f15c5,61036ec518eabf7ea66fd164,2021-07-30_13h16.09.359,Simcolourproject_2stim_asymm_v5,2020.2.10,MacIntel,60,61025ae37ef11b136ea224fe,,,,,,,,,,,,,,,,,,,,,,,,,,,,,,,,,,,,,,,,,,,,,,
,,,,,,,,,,,,19,PF,-69.36669922,-52.04144287,1,0,0,response5disk_5,2,2.0158,-9.463806152,4.16418457,1,0,0,rectangle_8,-9.463806152,4.16418457,1,0,0,-9.463806152,4.16418457,1,0,0,0,6,6,4,1,60fcf1c57085de494d9f15c5,61036ec518eabf7ea66fd164,2021-07-30_13h16.09.359,Simcolourproject_2stim_asymm_v5,2020.2.10,MacIntel,60,61025ae37ef11b136ea224fe,,,,,,,,,,,,,,,,,,,,,,,,,,,,,,,,,,,,,,,,,,,,,,
,,,,,,,,,,,,,FF,,,,,,,,3.0482,,,,,,,,,,,,,,,,,,,,,,60fcf1c57085de494d9f15c5,61036ec518eabf7ea66fd164,2021-07-30_13h16.09.359,Simcolourproject_2stim_asymm_v5,2020.2.10,MacIntel,60,61025ae37ef11b136ea224fe,,,,,,,space,3.0801,198,39.86737061,-69.18475342,1,0,0,response3disk,,4,-1.779846191,0.930541992,1,0,0,rectangle,-1.779846191,0.930541992,1,0,0,-1.779846191,0.930541992,1,0,0,0,0,0,0,1,,,,,,,,
,,,,,,,,,,,,,FF,,,,,,,,3.7668,,,,,,,,,,,,,,,,,,,,,,60fcf1c57085de494d9f15c5,61036ec518eabf7ea66fd164,2021-07-30_13h16.09.359,Simcolourproject_2stim_asymm_v5,2020.2.10,MacIntel,60,61025ae37ef11b136ea224fe,,,,,,,,,2201,90.82275391,-35.3815918,1,0,0,response3disk,,5,-9.177246094,0.206665039,1,0,0,rectangle,-9.177246094,0.206665039,1,0,0,-9.177246094,0.206665039,1,0,0,0,1,1,119,1,,,,,,,,
,,,,,,,,,,,,,FF,,,,,,,,1.1472,,,,,,,,,,,,,,,,,,,,,,60fcf1c57085de494d9f15c5,61036ec518eabf7ea66fd164,2021-07-30_13h16.09.359,Simcolourproject_2stim_asymm_v5,2020.2.10,MacIntel,60,61025ae37ef11b136ea224fe,,,,,,,,,3713,-81.81390381,-38.05786133,1,0,0,response5disk,,2,-13.6038208,2.139648438,1,0,0,rectangle,-13.6038208,2.139648438,1,0,0,-13.6038208,2.139648438,1,0,0,0,2,2,113,1,,,,,,,,
,,,,,,,,,,,,,FF,,,,,,,,1.333,,,,,,,,,,,,,,,,,,,,,,60fcf1c57085de494d9f15c5,61036ec518eabf7ea66fd164,2021-07-30_13h16.09.359,Simcolourproject_2stim_asymm_v5,2020.2.10,MacIntel,60,61025ae37ef11b136ea224fe,,,,,,,,,3614,45.18560791,-82.73339844,1,0,0,response3disk,,4,3.114440918,-2.666625977,1,0,0,rectangle,3.114440918,-2.666625977,1,0,0,3.114440918,-2.666625977,1,0,0,0,3,3,39,1,,,,,,,,
,,,,,,,,,,,,,FF,,,,,,,,1.2156,,,,,,,,,,,,,,,,,,,,,,60fcf1c57085de494d9f15c5,61036ec518eabf7ea66fd164,2021-07-30_13h16.09.359,Simcolourproject_2stim_asymm_v5,2020.2.10,MacIntel,60,61025ae37ef11b136ea224fe,,,,,,,,,1773,-40.45556641,-75.92999268,1,0,0,response5disk,,3,-4.820800781,-9.841827393,1,0,0,rectangle,-39.44848633,92.20343018,1,0,0,6.375,-2.793579102,1,0,0,0,4,4,126,1,,response7disk_3,TRUE,0,0,"[179,78,238,5,215,72,260,192,28,58,289,256,281,211,254,20,319,251,280,82]",2.1984,rectangle
,,,,,,,,,,,,,FF,,,,,,,,1.9344,,,,,,,,,,,,,,,,,,,,,,60fcf1c57085de494d9f15c5,61036ec518eabf7ea66fd164,2021-07-30_13h16.09.359,Simcolourproject_2stim_asymm_v5,2020.2.10,MacIntel,60,61025ae37ef11b136ea224fe,,,,,,,,,2257,70.82330322,-28.1708374,1,0,0,response3disk,,5,4.061401367,5.922607422,1,0,0,rectangle,4.061401367,5.922607422,1,0,0,4.061401367,5.922607422,1,0,0,0,5,5,155,1,,,,,,,,
,,,,,,,,,,,,,FF,,,,,,,,1.0335,,,,,,,,,,,,,,,,,,,,,,60fcf1c57085de494d9f15c5,61036ec518eabf7ea66fd164,2021-07-30_13h16.09.359,Simcolourproject_2stim_asymm_v5,2020.2.10,MacIntel,60,61025ae37ef11b136ea224fe,,,,,,,,,3226,73.45379639,37.74420166,1,0,0,response1disk,,6,11.06561279,2.63684082,1,0,0,rectangle,11.06561279,2.63684082,1,0,0,11.06561279,2.63684082,1,0,0,0,6,6,76,1,,,,,,,,
,,,,,,,,,,,,,FF,,,,,,,,1.0993,,,,,,,,,,,,,,,,,,,,,,60fcf1c57085de494d9f15c5,61036ec518eabf7ea66fd164,2021-07-30_13h16.09.359,Simcolourproject_2stim_asymm_v5,2020.2.10,MacIntel,60,61025ae37ef11b136ea224fe,,,,,,,,,2438,67.56103516,-37.59338379,1,0,0,response3disk,,5,15.73815918,4.596984863,1,0,0,rectangle,15.73815918,4.596984863,1,0,0,15.73815918,4.596984863,1,0,0,0,7,7,124,1,,,,,,,,
,,,,,,,,,,,,,FF,,,,,,,,1.4001,,,,,,,,,,,,,,,,,,,,,,60fcf1c57085de494d9f15c5,61036ec518eabf7ea66fd164,2021-07-30_13h16.09.359,Simcolourproject_2stim_asymm_v5,2020.2.10,MacIntel,60,61025ae37ef11b136ea224fe,,,,,,,,,2377,-50.87054443,-78.06799316,1,0,0,response5disk,,3,-17.89849854,-4.705383301,1,0,0,rectangle,-17.89849854,-4.705383301,1,0,0,-17.89849854,-4.705383301,1,0,0,0,8,8,78,1,,,,,,,,
,,,,,,,,,,,,,FF,,,,,,,,2.4335,,,,,,,,,,,,,,,,,,,,,,60fcf1c57085de494d9f15c5,61036ec518eabf7ea66fd164,2021-07-30_13h16.09.359,Simcolourproject_2stim_asymm_v5,2020.2.10,MacIntel,60,61025ae37ef11b136ea224fe,,,,,,,,,1062,-35.05078125,-80.93994141,1,0,0,response5disk,,3,-1.867980957,11.30670166,1,0,0,rectangle,-1.867980957,11.30670166,1,0,0,-1.867980957,11.30670166,1,0,0,0,9,9,23,1,,,,,,,,
,,,,,,,,,,,,,FF,,,,,,,,0.9339,,,,,,,,,,,,,,,,,,,,,,60fcf1c57085de494d9f15c5,61036ec518eabf7ea66fd164,2021-07-30_13h16.09.359,Simcolourproject_2stim_asymm_v5,2020.2.10,MacIntel,60,61025ae37ef11b136ea224fe,,,,,,,,,3104,-35.0637207,-66.41119385,1,0,0,response5disk,,3,-8.923156738,-0.691955566,1,0,0,rectangle,-8.923156738,-0.691955566,1,0,0,-8.923156738,-0.691955566,1,0,0,0,10,10,53,1,,,,,,,,
,,,,,,,,,,,,,FF,,,,,,,,0.9664,,,,,,,,,,,,,,,,,,,,,,60fcf1c57085de494d9f15c5,61036ec518eabf7ea66fd164,2021-07-30_13h16.09.359,Simcolourproject_2stim_asymm_v5,2020.2.10,MacIntel,60,61025ae37ef11b136ea224fe,,,,,,,,,2301,53.7399292,-69.04663086,1,0,0,response3disk,,4,15.23309326,-15.14758301,1,0,0,rectangle,15.23309326,-15.14758301,1,0,0,15.23309326,-15.14758301,1,0,0,0,11,11,27,1,,,,,,,,
,,,,,,,,,,,,,FF,,,,,,,,1.0159,,,,,,,,,,,,,,,,,,,,,,60fcf1c57085de494d9f15c5,61036ec518eabf7ea66fd164,2021-07-30_13h16.09.359,Simcolourproject_2stim_asymm_v5,2020.2.10,MacIntel,60,61025ae37ef11b136ea224fe,,,,,,,,,2813,93.95880127,40.18789673,1,0,0,response1disk,,6,0.476867676,-1.723114014,1,0,0,rectangle,0.476867676,-1.723114014,1,0,0,0.476867676,-1.723114014,1,0,0,0,12,12,4,1,,,,,,,,
,,,,,,,,,,,,,FF,,,,,,,,0.8819,,,,,,,,,,,,,,,,,,,,,,60fcf1c57085de494d9f15c5,61036ec518eabf7ea66fd164,2021-07-30_13h16.09.359,Simcolourproject_2stim_asymm_v5,2020.2.10,MacIntel,60,61025ae37ef11b136ea224fe,,,,,,,,,3083,66.70800781,42.41625977,1,0,0,response1disk,,6,13.42364502,3.83215332,1,0,0,rectangle,13.42364502,3.83215332,1,0,0,13.42364502,3.83215332,1,0,0,0,13,13,71,1,,,,,,,,
,,,,,,,,,,,,,FF,,,,,,,,1.3165,,,,,,,,,,,,,,,,,,,,,,60fcf1c57085de494d9f15c5,61036ec518eabf7ea66fd164,2021-07-30_13h16.09.359,Simcolourproject_2stim_asymm_v5,2020.2.10,MacIntel,60,61025ae37ef11b136ea224fe,,,,,,,,,769,65.00848389,43.52316284,1,0,0,response1disk,,6,-1.915283203,1.604431152,1,0,0,rectangle,-1.915283203,1.604431152,1,0,0,-1.915283203,1.604431152,1,0,0,0,14,14,129,1,,,,,,,,
,,,,,,,,,,,,,FF,,,,,,,,3.4169,,,,,,,,,,,,,,,,,,,,,,60fcf1c57085de494d9f15c5,61036ec518eabf7ea66fd164,2021-07-30_13h16.09.359,Simcolourproject_2stim_asymm_v5,2020.2.10,MacIntel,60,61025ae37ef11b136ea224fe,,,,,,,,,649,47.88348389,-26.14706421,1,0,0,response3disk,,5,0.964477539,-5.13104248,1,0,0,rectangle,0.964477539,-5.13104248,1,0,0,0.964477539,-5.13104248,1,0,0,0,15,15,47,1,,,,,,,,
,,,,,,,,,,,,,FF,,,,,,,,0.8655,,,,,,,,,,,,,,,,,,,,,,60fcf1c57085de494d9f15c5,61036ec518eabf7ea66fd164,2021-07-30_13h16.09.359,Simcolourproject_2stim_asymm_v5,2020.2.10,MacIntel,60,61025ae37ef11b136ea224fe,,,,,,,,,2740,-47.01678467,-92.81298828,1,0,0,response5disk,,3,-9.874328613,-8.703186035,1,0,0,rectangle,-9.874328613,-8.703186035,1,0,0,-9.874328613,-8.703186035,1,0,0,0,16,16,88,1,,,,,,,,
,,,,,,,,,,,,,FF,,,,,,,,0.9663,,,,,,,,,,,,,,,,,,,,,,60fcf1c57085de494d9f15c5,61036ec518eabf7ea66fd164,2021-07-30_13h16.09.359,Simcolourproject_2stim_asymm_v5,2020.2.10,MacIntel,60,61025ae37ef11b136ea224fe,,,,,,,,,1919,37.7746582,-83.71600342,1,0,0,response3disk,,4,4.452697754,0.538452148,1,0,0,rectangle,4.452697754,0.538452148,1,0,0,4.452697754,0.538452148,1,0,0,0,17,17,16,1,,,,,,,,
,,,,,,,,,,,,,FF,,,,,,,,1.6321,,,,,,,,,,,,,,,,,,,,,,60fcf1c57085de494d9f15c5,61036ec518eabf7ea66fd164,2021-07-30_13h16.09.359,Simcolourproject_2stim_asymm_v5,2020.2.10,MacIntel,60,61025ae37ef11b136ea224fe,,,,,,,,,2820,75.95812988,-26.98638916,1,0,0,response3disk,,5,-3.303039551,-14.16629028,1,0,0,rectangle,-3.303039551,-14.16629028,1,0,0,-3.303039551,-14.16629028,1,0,0,0,18,18,157,1,,,,,,,,
,,,,,,,,,,,,,FF,,,,,,,,1.1318,,,,,,,,,,,,,,,,,,,,,,60fcf1c57085de494d9f15c5,61036ec518eabf7ea66fd164,2021-07-30_13h16.09.359,Simcolourproject_2stim_asymm_v5,2020.2.10,MacIntel,60,61025ae37ef11b136ea224fe,,,,,,,,,3399,-88.07519531,-44.97943115,1,0,0,response5disk,,2,-3.929504395,2.170379639,1,0,0,rectangle,96.82275391,33.29638672,1,0,0,8.182250977,0.946594238,1,0,0,0,19,19,133,1,,response1disk_3,TRUE,6,6,"[179,78,238,5,215,72,260,192,28,58,289,256,281,211,254,20,319,251,280,82]",1.6325,rectangle
,,,,,,,,,,,,,FF,,,,,,,,1.2172,,,,,,,,,,,,,,,,,,,,,,60fcf1c57085de494d9f15c5,61036ec518eabf7ea66fd164,2021-07-30_13h16.09.359,Simcolourproject_2stim_asymm_v5,2020.2.10,MacIntel,60,61025ae37ef11b136ea224fe,,,,,,,,,759,24.97906494,-50.75149536,1,0,0,response3disk,,4,-0.702575684,-1.007507324,1,0,0,rectangle,-0.702575684,-1.007507324,1,0,0,-0.702575684,-1.007507324,1,0,0,0,20,20,21,1,,,,,,,,
,,,,,,,,,,,,,FF,,,,,,,,0.751,,,,,,,,,,,,,,,,,,,,,,60fcf1c57085de494d9f15c5,61036ec518eabf7ea66fd164,2021-07-30_13h16.09.359,Simcolourproject_2stim_asymm_v5,2020.2.10,MacIntel,60,61025ae37ef11b136ea224fe,,,,,,,,,2807,88.15405273,-26.4453125,1,0,0,response3disk,,5,17.10241699,16.24041748,1,0,0,rectangle,17.10241699,16.24041748,1,0,0,17.10241699,16.24041748,1,0,0,0,21,21,145,1,,,,,,,,
,,,,,,,,,,,,,FF,,,,,,,,1.2831,,,,,,,,,,,,,,,,,,,,,,60fcf1c57085de494d9f15c5,61036ec518eabf7ea66fd164,2021-07-30_13h16.09.359,Simcolourproject_2stim_asymm_v5,2020.2.10,MacIntel,60,61025ae37ef11b136ea224fe,,,,,,,,,3327,64.34185791,37.42376709,1,0,0,response1disk,,6,1.741638184,1.806640625,1,0,0,rectangle,1.741638184,1.806640625,1,0,0,1.741638184,1.806640625,1,0,0,0,22,22,58,1,,,,,,,,
,,,,,,,,,,,,,FF,,,,,,,,2.1639,,,,,,,,,,,,,,,,,,,,,,60fcf1c57085de494d9f15c5,61036ec518eabf7ea66fd164,2021-07-30_13h16.09.359,Simcolourproject_2stim_asymm_v5,2020.2.10,MacIntel,60,61025ae37ef11b136ea224fe,,,,,,,,,2055,-76.45452881,-39.10473633,1,0,0,response5disk,,2,6.870300293,0.912384033,1,0,0,rectangle,6.870300293,0.912384033,1,0,0,6.870300293,0.912384033,1,0,0,0,23,23,54,1,,,,,,,,
,,,,,,,,,,,,,FF,,,,,,,,2.8168,,,,,,,,,,,,,,,,,,,,,,60fcf1c57085de494d9f15c5,61036ec518eabf7ea66fd164,2021-07-30_13h16.09.359,Simcolourproject_2stim_asymm_v5,2020.2.10,MacIntel,60,61025ae37ef11b136ea224fe,,,,,,,,,242,94.20544434,-31.75131226,1,0,0,response3disk,,5,8.496826172,7.17401123,1,0,0,rectangle,8.496826172,7.17401123,1,0,0,8.496826172,7.17401123,1,0,0,0,24,24,137,1,,,,,,,,
,,,,,,,,,,,,,FF,,,,,,,,0.9999,,,,,,,,,,,,,,,,,,,,,,60fcf1c57085de494d9f15c5,61036ec518eabf7ea66fd164,2021-07-30_13h16.09.359,Simcolourproject_2stim_asymm_v5,2020.2.10,MacIntel,60,61025ae37ef11b136ea224fe,,,,,,,,,2457,41.10693359,-76.78356934,1,0,0,response3disk,,4,2.862487793,-6.694641113,1,0,0,rectangle,2.862487793,-6.694641113,1,0,0,2.862487793,-6.694641113,1,0,0,0,25,25,108,1,,,,,,,,
,,,,,,,,,,,,,FF,,,,,,,,0.9643,,,,,,,,,,,,,,,,,,,,,,60fcf1c57085de494d9f15c5,61036ec518eabf7ea66fd164,2021-07-30_13h16.09.359,Simcolourproject_2stim_asymm_v5,2020.2.10,MacIntel,60,61025ae37ef11b136ea224fe,,,,,,,,,3519,-77.60998535,19.29437256,1,0,0,response7disk,,1,-19.39971924,0.784637451,1,0,0,rectangle,-19.39971924,0.784637451,1,0,0,-19.39971924,0.784637451,1,0,0,0,26,26,134,1,,,,,,,,
,,,,,,,,,,,,,FF,,,,,,,,0.9661,,,,,,,,,,,,,,,,,,,,,,60fcf1c57085de494d9f15c5,61036ec518eabf7ea66fd164,2021-07-30_13h16.09.359,Simcolourproject_2stim_asymm_v5,2020.2.10,MacIntel,60,61025ae37ef11b136ea224fe,,,,,,,,,2779,-80.79046631,28.46063232,1,0,0,response7disk,,1,-16.4932251,3.187164307,1,0,0,rectangle,-33.565979,-83.26739502,1,0,0,-1.055969238,-1.077636719,1,0,0,0,27,27,115,1,,response5disk_3,TRUE,3,3,"[179,78,238,5,215,72,260,192,28,58,289,256,281,211,254,20,319,251,280,82]",1.7492,rectangle
,,,,,,,,,,,,,FF,,,,,,,,1.2658,,,,,,,,,,,,,,,,,,,,,,60fcf1c57085de494d9f15c5,61036ec518eabf7ea66fd164,2021-07-30_13h16.09.359,Simcolourproject_2stim_asymm_v5,2020.2.10,MacIntel,60,61025ae37ef11b136ea224fe,,,,,,,,,4247,-48.83654785,-54.39682007,1,0,0,response5disk,,3,-7.052185059,-1.619506836,1,0,0,rectangle,-7.052185059,-1.619506836,1,0,0,-7.052185059,-1.619506836,1,0,0,0,28,28,144,1,,,,,,,,
,,,,,,,,,,,,,FF,,,,,,,,1.182,,,,,,,,,,,,,,,,,,,,,,60fcf1c57085de494d9f15c5,61036ec518eabf7ea66fd164,2021-07-30_13h16.09.359,Simcolourproject_2stim_asymm_v5,2020.2.10,MacIntel,60,61025ae37ef11b136ea224fe,,,,,,,,,686,-51.60931396,-60.240448,1,0,0,response5disk,,3,-17.76318359,-1.749969482,1,0,0,rectangle,-17.76318359,-1.749969482,1,0,0,-17.76318359,-1.749969482,1,0,0,0,29,29,154,1,,,,,,,,
,,,,,,,,,,,,,FF,,,,,,,,0.9826,,,,,,,,,,,,,,,,,,,,,,60fcf1c57085de494d9f15c5,61036ec518eabf7ea66fd164,2021-07-30_13h16.09.359,Simcolourproject_2stim_asymm_v5,2020.2.10,MacIntel,60,61025ae37ef11b136ea224fe,,,,,,,,,2478,43.10534668,-58.5010376,1,0,0,response3disk,,4,11.5279541,-12.63128662,1,0,0,rectangle,11.5279541,-12.63128662,1,0,0,11.5279541,-12.63128662,1,0,0,0,30,30,56,1,,,,,,,,
,,,,,,,,,,,,,FF,,,,,,,,1.7668,,,,,,,,,,,,,,,,,,,,,,60fcf1c57085de494d9f15c5,61036ec518eabf7ea66fd164,2021-07-30_13h16.09.359,Simcolourproject_2stim_asymm_v5,2020.2.10,MacIntel,60,61025ae37ef11b136ea224fe,,,,,,,,,445,-62.09295654,82.3994751,1,0,0,response7disk,,0,-11.9107666,-4.25189209,1,0,0,rectangle,-11.9107666,-4.25189209,1,0,0,-11.9107666,-4.25189209,1,0,0,0,31,31,51,1,,,,,,,,
,,,,,,,,,,,,,FF,,,,,,,,0.8315,,,,,,,,,,,,,,,,,,,,,,60fcf1c57085de494d9f15c5,61036ec518eabf7ea66fd164,2021-07-30_13h16.09.359,Simcolourproject_2stim_asymm_v5,2020.2.10,MacIntel,60,61025ae37ef11b136ea224fe,,,,,,,,,1748,-74.42266846,28.9475708,1,0,0,response7disk,,1,-24.74145508,-2.692657471,1,0,0,rectangle,-24.74145508,-2.692657471,1,0,0,-24.74145508,-2.692657471,1,0,0,0,32,32,65,1,,,,,,,,
,,,,,,,,,,,,,FF,,,,,,,,0.734,,,,,,,,,,,,,,,,,,,,,,60fcf1c57085de494d9f15c5,61036ec518eabf7ea66fd164,2021-07-30_13h16.09.359,Simcolourproject_2stim_asymm_v5,2020.2.10,MacIntel,60,61025ae37ef11b136ea224fe,,,,,,,,,723,-79.62585449,35.38946533,1,0,0,response7disk,,1,-13.62438965,-0.162902832,1,0,0,rectangle,-13.62438965,-0.162902832,1,0,0,-13.62438965,-0.162902832,1,0,0,0,33,33,140,1,,,,,,,,
,,,,,,,,,,,,,FF,,,,,,,,0.9157,,,,,,,,,,,,,,,,,,,,,,60fcf1c57085de494d9f15c5,61036ec518eabf7ea66fd164,2021-07-30_13h16.09.359,Simcolourproject_2stim_asymm_v5,2020.2.10,MacIntel,60,61025ae37ef11b136ea224fe,,,,,,,,,3499,15.33972168,-60.27218628,1,0,0,response3disk,,4,3.723144531,-6.950195313,1,0,0,rectangle,3.723144531,-6.950195313,1,0,0,3.723144531,-6.950195313,1,0,0,0,34,34,40,1,,,,,,,,
,,,,,,,,,,,,,FF,,,,,,,,0.7827,,,,,,,,,,,,,,,,,,,,,,60fcf1c57085de494d9f15c5,61036ec518eabf7ea66fd164,2021-07-30_13h16.09.359,Simcolourproject_2stim_asymm_v5,2020.2.10,MacIntel,60,61025ae37ef11b136ea224fe,,,,,,,,,1293,-80.2668457,26.22491455,1,0,0,response7disk,,1,-19.33660889,0.76776123,1,0,0,rectangle,-19.33660889,0.76776123,1,0,0,-19.33660889,0.76776123,1,0,0,0,35,35,89,1,,,,,,,,
,,,,,,,,,,,,,FF,,,,,,,,0.8989,,,,,,,,,,,,,,,,,,,,,,60fcf1c57085de494d9f15c5,61036ec518eabf7ea66fd164,2021-07-30_13h16.09.359,Simcolourproject_2stim_asymm_v5,2020.2.10,MacIntel,60,61025ae37ef11b136ea224fe,,,,,,,,,152,-36.59606934,-72.81542969,1,0,0,response5disk,,3,0.828063965,-2.075561523,1,0,0,rectangle,0.828063965,-2.075561523,1,0,0,0.828063965,-2.075561523,1,0,0,0,36,36,102,1,,,,,,,,
,,,,,,,,,,,,,FF,,,,,,,,0.7489,,,,,,,,,,,,,,,,,,,,,,60fcf1c57085de494d9f15c5,61036ec518eabf7ea66fd164,2021-07-30_13h16.09.359,Simcolourproject_2stim_asymm_v5,2020.2.10,MacIntel,60,61025ae37ef11b136ea224fe,,,,,,,,,3581,55.69750977,-31.00274658,1,0,0,response3disk,,5,-6.46875,4.433746338,1,0,0,rectangle,-6.46875,4.433746338,1,0,0,-6.46875,4.433746338,1,0,0,0,37,37,41,1,,,,,,,,
,,,,,,,,,,,,,FF,,,,,,,,0.7681,,,,,,,,,,,,,,,,,,,,,,60fcf1c57085de494d9f15c5,61036ec518eabf7ea66fd164,2021-07-30_13h16.09.359,Simcolourproject_2stim_asymm_v5,2020.2.10,MacIntel,60,61025ae37ef11b136ea224fe,,,,,,,,,3815,-68.11993408,-37.81658936,1,0,0,response5disk,,2,4.70135498,-0.016418457,1,0,0,rectangle,4.70135498,-0.016418457,1,0,0,4.70135498,-0.016418457,1,0,0,0,38,38,43,1,,,,,,,,
,,,,,,,,,,,,,FF,,,,,,,,1.2164,,,,,,,,,,,,,,,,,,,,,,60fcf1c57085de494d9f15c5,61036ec518eabf7ea66fd164,2021-07-30_13h16.09.359,Simcolourproject_2stim_asymm_v5,2020.2.10,MacIntel,60,61025ae37ef11b136ea224fe,,,,,,,,,4219,-44.58520508,-101.9823608,1,0,0,response5disk,,3,-5.242370605,12.72766113,1,0,0,rectangle,-5.242370605,12.72766113,1,0,0,-5.242370605,12.72766113,1,0,0,0,39,39,109,1,,,,,,,,
,,,,,,,,,,,,,FF,,,,,,,,1.6367,,,,,,,,,,,,,,,,,,,,,,60fcf1c57085de494d9f15c5,61036ec518eabf7ea66fd164,2021-07-30_13h16.09.359,Simcolourproject_2stim_asymm_v5,2020.2.10,MacIntel,60,61025ae37ef11b136ea224fe,,,,,,,,,3365,73.35614014,41.43518066,1,0,0,response1disk,,6,8.344726563,0.558288574,1,0,0,rectangle,8.344726563,0.558288574,1,0,0,8.344726563,0.558288574,1,0,0,0,40,40,81,1,,,,,,,,
,,,,,,,,,,,,,FF,,,,,,,,1.1832,,,,,,,,,,,,,,,,,,,,,,60fcf1c57085de494d9f15c5,61036ec518eabf7ea66fd164,2021-07-30_13h16.09.359,Simcolourproject_2stim_asymm_v5,2020.2.10,MacIntel,60,61025ae37ef11b136ea224fe,,,,,,,,,872,40.50585938,-60.04833984,1,0,0,response3disk,,4,5.599182129,-13.44665527,1,0,0,rectangle,5.599182129,-13.44665527,1,0,0,5.599182129,-13.44665527,1,0,0,0,41,41,86,1,,,,,,,,
,,,,,,,,,,,,,FF,,,,,,,,0.9154,,,,,,,,,,,,,,,,,,,,,,60fcf1c57085de494d9f15c5,61036ec518eabf7ea66fd164,2021-07-30_13h16.09.359,Simcolourproject_2stim_asymm_v5,2020.2.10,MacIntel,60,61025ae37ef11b136ea224fe,,,,,,,,,2357,-87.36401367,23.50042725,1,0,0,response7disk,,1,-19.70855713,-2.800506592,1,0,0,rectangle,-19.70855713,-2.800506592,1,0,0,-19.70855713,-2.800506592,1,0,0,0,42,42,55,1,,,,,,,,
,,,,,,,,,,,,,FF,,,,,,,,1.9491,,,,,,,,,,,,,,,,,,,,,,60fcf1c57085de494d9f15c5,61036ec518eabf7ea66fd164,2021-07-30_13h16.09.359,Simcolourproject_2stim_asymm_v5,2020.2.10,MacIntel,60,61025ae37ef11b136ea224fe,,,,,,,,,204,-51.24658203,-79.8104248,1,0,0,response5disk,,3,-2.989440918,-4.65435791,1,0,0,rectangle,-2.989440918,-4.65435791,1,0,0,-2.989440918,-4.65435791,1,0,0,0,43,43,42,1,,,,,,,,
,,,,,,,,,,,,,FF,,,,,,,,0.6489,,,,,,,,,,,,,,,,,,,,,,60fcf1c57085de494d9f15c5,61036ec518eabf7ea66fd164,2021-07-30_13h16.09.359,Simcolourproject_2stim_asymm_v5,2020.2.10,MacIntel,60,61025ae37ef11b136ea224fe,,,,,,,,,122,-47.55047607,-78.51000977,1,0,0,response5disk,,3,-12.796875,7.158508301,1,0,0,rectangle,-12.796875,7.158508301,1,0,0,-12.796875,7.158508301,1,0,0,0,44,44,111,1,,,,,,,,
,,,,,,,,,,,,,FF,,,,,,,,1.8152,,,,,,,,,,,,,,,,,,,,,,60fcf1c57085de494d9f15c5,61036ec518eabf7ea66fd164,2021-07-30_13h16.09.359,Simcolourproject_2stim_asymm_v5,2020.2.10,MacIntel,60,61025ae37ef11b136ea224fe,,,,,,,,,585,-41.97924805,-71.92163086,1,0,0,response5disk,,3,-11.94702148,13.26242065,1,0,0,rectangle,-11.94702148,13.26242065,1,0,0,-11.94702148,13.26242065,1,0,0,0,45,45,72,1,,,,,,,,
,,,,,,,,,,,,,FF,,,,,,,,1.2475,,,,,,,,,,,,,,,,,,,,,,60fcf1c57085de494d9f15c5,61036ec518eabf7ea66fd164,2021-07-30_13h16.09.359,Simcolourproject_2stim_asymm_v5,2020.2.10,MacIntel,60,61025ae37ef11b136ea224fe,,,,,,,,,3655,27.13604736,-51.52911377,1,0,0,response3disk,,4,3.872558594,-5.196105957,1,0,0,rectangle,3.872558594,-5.196105957,1,0,0,3.872558594,-5.196105957,1,0,0,0,46,46,15,1,,,,,,,,
,,,,,,,,,,,,,FF,,,,,,,,1.0602,,,,,,,,,,,,,,,,,,,,,,60fcf1c57085de494d9f15c5,61036ec518eabf7ea66fd164,2021-07-30_13h16.09.359,Simcolourproject_2stim_asymm_v5,2020.2.10,MacIntel,60,61025ae37ef11b136ea224fe,,,,,,,,,3431,-71.07879639,29.68209839,1,0,0,response7disk,,1,7.151977539,3.26953125,1,0,0,rectangle,7.151977539,3.26953125,1,0,0,7.151977539,3.26953125,1,0,0,0,47,47,87,1,,,,,,,,
,,,,,,,,,,,,,FF,,,,,,,,2.3496,,,,,,,,,,,,,,,,,,,,,,60fcf1c57085de494d9f15c5,61036ec518eabf7ea66fd164,2021-07-30_13h16.09.359,Simcolourproject_2stim_asymm_v5,2020.2.10,MacIntel,60,61025ae37ef11b136ea224fe,,,,,,,,,937,-20.30517578,-53.34680176,1,0,0,response5disk,,3,-2.916320801,2.036956787,1,0,0,rectangle,-2.916320801,2.036956787,1,0,0,-2.916320801,2.036956787,1,0,0,0,48,48,100,1,,,,,,,,
,,,,,,,,,,,,,FF,,,,,,,,1.1828,,,,,,,,,,,,,,,,,,,,,,60fcf1c57085de494d9f15c5,61036ec518eabf7ea66fd164,2021-07-30_13h16.09.359,Simcolourproject_2stim_asymm_v5,2020.2.10,MacIntel,60,61025ae37ef11b136ea224fe,,,,,,,,,4197,87.80371094,44.39315796,1,0,0,response1disk,,6,9.853820801,-8.749237061,1,0,0,rectangle,9.853820801,-8.749237061,1,0,0,9.853820801,-8.749237061,1,0,0,0,49,49,49,1,,,,,,,,
,,,,,,,,,,,,,FF,,,,,,,,1.182,,,,,,,,,,,,,,,,,,,,,,60fcf1c57085de494d9f15c5,61036ec518eabf7ea66fd164,2021-07-30_13h16.09.359,Simcolourproject_2stim_asymm_v5,2020.2.10,MacIntel,60,61025ae37ef11b136ea224fe,,,,,,,,,1585,-34.73480225,-69.57781982,1,0,0,response5disk,,3,-7.950805664,6.088439941,1,0,0,rectangle,-7.950805664,6.088439941,1,0,0,-7.950805664,6.088439941,1,0,0,0,50,50,3,1,,,,,,,,
,,,,,,,,,,,,,FF,,,,,,,,1.032,,,,,,,,,,,,,,,,,,,,,,60fcf1c57085de494d9f15c5,61036ec518eabf7ea66fd164,2021-07-30_13h16.09.359,Simcolourproject_2stim_asymm_v5,2020.2.10,MacIntel,60,61025ae37ef11b136ea224fe,,,,,,,,,644,-64.840271,-43.24975586,1,0,0,response5disk,,2,-11.53009033,-2.998901367,1,0,0,rectangle,-11.53009033,-2.998901367,1,0,0,-11.53009033,-2.998901367,1,0,0,0,51,51,14,1,,,,,,,,
,,,,,,,,,,,,,FF,,,,,,,,1.4828,,,,,,,,,,,,,,,,,,,,,,60fcf1c57085de494d9f15c5,61036ec518eabf7ea66fd164,2021-07-30_13h16.09.359,Simcolourproject_2stim_asymm_v5,2020.2.10,MacIntel,60,61025ae37ef11b136ea224fe,,,,,,,,,577,-31.78936768,-75.79058838,1,0,0,response5disk,,3,-7.422485352,16.94122314,1,0,0,rectangle,-7.422485352,16.94122314,1,0,0,-7.422485352,16.94122314,1,0,0,0,52,52,110,1,,,,,,,,
,,,,,,,,,,,,,FF,,,,,,,,0.9172,,,,,,,,,,,,,,,,,,,,,,60fcf1c57085de494d9f15c5,61036ec518eabf7ea66fd164,2021-07-30_13h16.09.359,Simcolourproject_2stim_asymm_v5,2020.2.10,MacIntel,60,61025ae37ef11b136ea224fe,,,,,,,,,1121,23.00738525,-44.70443726,1,0,0,response3disk,,4,7.651672363,0.259338379,1,0,0,rectangle,7.651672363,0.259338379,1,0,0,7.651672363,0.259338379,1,0,0,0,53,53,33,1,,,,,,,,
,,,,,,,,,,,,,FF,,,,,,,,1.0502,,,,,,,,,,,,,,,,,,,,,,60fcf1c57085de494d9f15c5,61036ec518eabf7ea66fd164,2021-07-30_13h16.09.359,Simcolourproject_2stim_asymm_v5,2020.2.10,MacIntel,60,61025ae37ef11b136ea224fe,,,,,,,,,2322,24.81469727,-62.51721191,1,0,0,response3disk,,4,7.078613281,-6.276916504,1,0,0,rectangle,7.078613281,-6.276916504,1,0,0,7.078613281,-6.276916504,1,0,0,0,54,54,148,1,,,,,,,,
,,,,,,,,,,,,,FF,,,,,,,,0.7999,,,,,,,,,,,,,,,,,,,,,,60fcf1c57085de494d9f15c5,61036ec518eabf7ea66fd164,2021-07-30_13h16.09.359,Simcolourproject_2stim_asymm_v5,2020.2.10,MacIntel,60,61025ae37ef11b136ea224fe,,,,,,,,,3395,-87.10491943,-30.41778564,1,0,0,response5disk,,2,-15.43518066,15.39559937,1,0,0,rectangle,-15.43518066,15.39559937,1,0,0,-15.43518066,15.39559937,1,0,0,0,55,55,118,1,,,,,,,,
,,,,,,,,,,,,,FF,,,,,,,,1.5654,,,,,,,,,,,,,,,,,,,,,,60fcf1c57085de494d9f15c5,61036ec518eabf7ea66fd164,2021-07-30_13h16.09.359,Simcolourproject_2stim_asymm_v5,2020.2.10,MacIntel,60,61025ae37ef11b136ea224fe,,,,,,,,,1427,-26.26367188,-61.72381592,1,0,0,response5disk,,3,-5.181152344,-9.506225586,1,0,0,rectangle,-5.181152344,-9.506225586,1,0,0,-5.181152344,-9.506225586,1,0,0,0,56,56,138,1,,,,,,,,
,,,,,,,,,,,,,FF,,,,,,,,1.2008,,,,,,,,,,,,,,,,,,,,,,60fcf1c57085de494d9f15c5,61036ec518eabf7ea66fd164,2021-07-30_13h16.09.359,Simcolourproject_2stim_asymm_v5,2020.2.10,MacIntel,60,61025ae37ef11b136ea224fe,,,,,,,,,2188,28.06158447,-72.4487915,1,0,0,response3disk,,4,5.627685547,-10.34942627,1,0,0,rectangle,-38.24536133,71.20080566,1,0,0,-4.278625488,3.516357422,1,0,0,0,57,57,149,1,,response7disk_3,TRUE,0,0,"[179,78,238,5,215,72,260,192,28,58,289,256,281,211,254,20,319,251,280,82]",1.3842,rectangle
,,,,,,,,,,,,,FF,,,,,,,,0.732,,,,,,,,,,,,,,,,,,,,,,60fcf1c57085de494d9f15c5,61036ec518eabf7ea66fd164,2021-07-30_13h16.09.359,Simcolourproject_2stim_asymm_v5,2020.2.10,MacIntel,60,61025ae37ef11b136ea224fe,,,,,,,,,335,-35.25927734,-82.73547363,1,0,0,response5disk,,3,-12.07568359,-2.663970947,1,0,0,rectangle,-12.07568359,-2.663970947,1,0,0,-12.07568359,-2.663970947,1,0,0,0,58,58,68,1,,,,,,,,
,,,,,,,,,,,,,FF,,,,,,,,1.6494,,,,,,,,,,,,,,,,,,,,,,60fcf1c57085de494d9f15c5,61036ec518eabf7ea66fd164,2021-07-30_13h16.09.359,Simcolourproject_2stim_asymm_v5,2020.2.10,MacIntel,60,61025ae37ef11b136ea224fe,,,,,,,,,3501,32.52740479,79.9262085,1,0,0,response1disk,,7,2.762756348,-0.701904297,1,0,0,rectangle,2.762756348,-0.701904297,1,0,0,2.762756348,-0.701904297,1,0,0,0,59,59,34,1,,,,,,,,
,,,,,,,,,,,,,FF,,,,,,,,1.8997,,,,,,,,,,,,,,,,,,,,,,60fcf1c57085de494d9f15c5,61036ec518eabf7ea66fd164,2021-07-30_13h16.09.359,Simcolourproject_2stim_asymm_v5,2020.2.10,MacIntel,60,61025ae37ef11b136ea224fe,,,,,,,,,1967,-68.18035889,-26.0249939,1,0,0,response5disk,,2,0.594177246,6.234985352,1,0,0,rectangle,0.594177246,6.234985352,1,0,0,0.594177246,6.234985352,1,0,0,0,60,60,73,1,,,,,,,,
,,,,,,,,,,,,,FF,,,,,,,,1.0827,,,,,,,,,,,,,,,,,,,,,,60fcf1c57085de494d9f15c5,61036ec518eabf7ea66fd164,2021-07-30_13h16.09.359,Simcolourproject_2stim_asymm_v5,2020.2.10,MacIntel,60,61025ae37ef11b136ea224fe,,,,,,,,,1811,-48.26379395,-27.32440186,1,0,0,response5disk,,2,-5.041320801,-1.994567871,1,0,0,rectangle,-5.041320801,-1.994567871,1,0,0,-5.041320801,-1.994567871,1,0,0,0,61,61,2,1,,,,,,,,
,,,,,,,,,,,,,FF,,,,,,,,1.016,,,,,,,,,,,,,,,,,,,,,,60fcf1c57085de494d9f15c5,61036ec518eabf7ea66fd164,2021-07-30_13h16.09.359,Simcolourproject_2stim_asymm_v5,2020.2.10,MacIntel,60,61025ae37ef11b136ea224fe,,,,,,,,,111,46.01318359,-75.99060059,1,0,0,response3disk,,4,-0.791381836,5.392578125,1,0,0,rectangle,-0.791381836,5.392578125,1,0,0,-0.791381836,5.392578125,1,0,0,0,62,62,94,1,,,,,,,,
,,,,,,,,,,,,,FF,,,,,,,,1.049,,,,,,,,,,,,,,,,,,,,,,60fcf1c57085de494d9f15c5,61036ec518eabf7ea66fd164,2021-07-30_13h16.09.359,Simcolourproject_2stim_asymm_v5,2020.2.10,MacIntel,60,61025ae37ef11b136ea224fe,,,,,,,,,855,70.6262207,-53.34753418,1,0,0,response3disk,,5,7.407470703,-14.78320313,1,0,0,rectangle,7.407470703,-14.78320313,1,0,0,7.407470703,-14.78320313,1,0,0,0,63,63,90,1,,,,,,,,
,,,,,,,,,,,,,FF,,,,,,,,1.7499,,,,,,,,,,,,,,,,,,,,,,60fcf1c57085de494d9f15c5,61036ec518eabf7ea66fd164,2021-07-30_13h16.09.359,Simcolourproject_2stim_asymm_v5,2020.2.10,MacIntel,60,61025ae37ef11b136ea224fe,,,,,,,,,1770,23.50994873,-71.03216553,1,0,0,response3disk,,4,-1.610839844,-3.012756348,1,0,0,rectangle,-1.610839844,-3.012756348,1,0,0,-1.610839844,-3.012756348,1,0,0,0,64,64,95,1,,,,,,,,
,,,,,,,,,,,,,FF,,,,,,,,1.015,,,,,,,,,,,,,,,,,,,,,,60fcf1c57085de494d9f15c5,61036ec518eabf7ea66fd164,2021-07-30_13h16.09.359,Simcolourproject_2stim_asymm_v5,2020.2.10,MacIntel,60,61025ae37ef11b136ea224fe,,,,,,,,,2091,72.7769165,29.77825928,1,0,0,response1disk,,6,13.22125244,-0.355255127,1,0,0,rectangle,13.22125244,-0.355255127,1,0,0,13.22125244,-0.355255127,1,0,0,0,65,65,52,1,,,,,,,,
,,,,,,,,,,,,,FF,,,,,,,,1.3479,,,,,,,,,,,,,,,,,,,,,,60fcf1c57085de494d9f15c5,61036ec518eabf7ea66fd164,2021-07-30_13h16.09.359,Simcolourproject_2stim_asymm_v5,2020.2.10,MacIntel,60,61025ae37ef11b136ea224fe,,,,,,,,,4065,74.76416016,39.04412842,1,0,0,response1disk,,6,11.0333252,-0.134613037,1,0,0,rectangle,11.0333252,-0.134613037,1,0,0,11.0333252,-0.134613037,1,0,0,0,66,66,92,1,,,,,,,,
,,,,,,,,,,,,,FF,,,,,,,,0.9646,,,,,,,,,,,,,,,,,,,,,,60fcf1c57085de494d9f15c5,61036ec518eabf7ea66fd164,2021-07-30_13h16.09.359,Simcolourproject_2stim_asymm_v5,2020.2.10,MacIntel,60,61025ae37ef11b136ea224fe,,,,,,,,,3497,68.56079102,33.65209961,1,0,0,response1disk,,6,22.68658447,7.284484863,1,0,0,rectangle,22.68658447,7.284484863,1,0,0,22.68658447,7.284484863,1,0,0,0,67,67,158,1,,,,,,,,
,,,,,,,,,,,,,FF,,,,,,,,0.9242,,,,,,,,,,,,,,,,,,,,,,60fcf1c57085de494d9f15c5,61036ec518eabf7ea66fd164,2021-07-30_13h16.09.359,Simcolourproject_2stim_asymm_v5,2020.2.10,MacIntel,60,61025ae37ef11b136ea224fe,,,,,,,,,3998,-44.15625,84.39294434,1,0,0,response7disk,,0,-0.343322754,9.815612793,1,0,0,rectangle,-0.343322754,9.815612793,1,0,0,-0.343322754,9.815612793,1,0,0,0,68,68,5,1,,,,,,,,
,,,,,,,,,,,,,FF,,,,,,,,1.0479,,,,,,,,,,,,,,,,,,,,,,60fcf1c57085de494d9f15c5,61036ec518eabf7ea66fd164,2021-07-30_13h16.09.359,Simcolourproject_2stim_asymm_v5,2020.2.10,MacIntel,60,61025ae37ef11b136ea224fe,,,,,,,,,743,59.31982422,-29.85894775,1,0,0,response3disk,,5,9.997680664,1.080047607,1,0,0,rectangle,9.997680664,1.080047607,1,0,0,9.997680664,1.080047607,1,0,0,0,69,69,38,1,,,,,,,,
,,,,,,,,,,,,,FF,,,,,,,,0.8233,,,,,,,,,,,,,,,,,,,,,,60fcf1c57085de494d9f15c5,61036ec518eabf7ea66fd164,2021-07-30_13h16.09.359,Simcolourproject_2stim_asymm_v5,2020.2.10,MacIntel,60,61025ae37ef11b136ea224fe,,,,,,,,,89,60.40057373,-33.87683105,1,0,0,response3disk,,5,11.76934814,-16.03491211,1,0,0,rectangle,11.76934814,-16.03491211,1,0,0,11.76934814,-16.03491211,1,0,0,0,70,70,97,1,,,,,,,,
,,,,,,,,,,,,,FF,,,,,,,,1.5271,,,,,,,,,,,,,,,,,,,,,,60fcf1c57085de494d9f15c5,61036ec518eabf7ea66fd164,2021-07-30_13h16.09.359,Simcolourproject_2stim_asymm_v5,2020.2.10,MacIntel,60,61025ae37ef11b136ea224fe,,,,,,,,,2089,33.68054199,-67.60668945,1,0,0,response3disk,,4,9.103027344,-5.747894287,1,0,0,rectangle,-93.46350098,49.75482178,1,0,0,-6.764587402,-5.941955566,1,0,0,0,71,71,84,1,,response7disk_3,TRUE,1,1,"[179,78,238,5,215,72,260,192,28,58,289,256,281,211,254,20,319,251,280,82]",1.5511,rectangle
,,,,,,,,,,,,,FF,,,,,,,,1.0339,,,,,,,,,,,,,,,,,,,,,,60fcf1c57085de494d9f15c5,61036ec518eabf7ea66fd164,2021-07-30_13h16.09.359,Simcolourproject_2stim_asymm_v5,2020.2.10,MacIntel,60,61025ae37ef11b136ea224fe,,,,,,,,,3812,-67.82525635,-40.68405151,1,0,0,response5disk,,2,-9.70098877,-6.038452148,1,0,0,rectangle,-9.70098877,-6.038452148,1,0,0,-9.70098877,-6.038452148,1,0,0,0,72,72,105,1,,,,,,,,
,,,,,,,,,,,,,FF,,,,,,,,0.8661,,,,,,,,,,,,,,,,,,,,,,60fcf1c57085de494d9f15c5,61036ec518eabf7ea66fd164,2021-07-30_13h16.09.359,Simcolourproject_2stim_asymm_v5,2020.2.10,MacIntel,60,61025ae37ef11b136ea224fe,,,,,,,,,1173,36.63238525,-71.07495117,1,0,0,response3disk,,4,7.787353516,-7.486938477,1,0,0,rectangle,7.787353516,-7.486938477,1,0,0,7.787353516,-7.486938477,1,0,0,0,73,73,147,1,,,,,,,,
,,,,,,,,,,,,,FF,,,,,,,,1.2824,,,,,,,,,,,,,,,,,,,,,,60fcf1c57085de494d9f15c5,61036ec518eabf7ea66fd164,2021-07-30_13h16.09.359,Simcolourproject_2stim_asymm_v5,2020.2.10,MacIntel,60,61025ae37ef11b136ea224fe,,,,,,,,,3874,-30.23309326,-69.5826416,1,0,0,response5disk,,3,-12.93170166,-12.20062256,1,0,0,rectangle,-12.93170166,-12.20062256,1,0,0,-12.93170166,-12.20062256,1,0,0,0,74,74,35,1,,,,,,,,
,,,,,,,,,,,,,FF,,,,,,,,0.8985,,,,,,,,,,,,,,,,,,,,,,60fcf1c57085de494d9f15c5,61036ec518eabf7ea66fd164,2021-07-30_13h16.09.359,Simcolourproject_2stim_asymm_v5,2020.2.10,MacIntel,60,61025ae37ef11b136ea224fe,,,,,,,,,1258,-45.76989746,-85.09790039,1,0,0,response5disk,,3,-22.23468018,2.279266357,1,0,0,rectangle,-22.23468018,2.279266357,1,0,0,-22.23468018,2.279266357,1,0,0,0,75,75,45,1,,,,,,,,
,,,,,,,,,,,,,FF,,,,,,,,0.8848,,,,,,,,,,,,,,,,,,,,,,60fcf1c57085de494d9f15c5,61036ec518eabf7ea66fd164,2021-07-30_13h16.09.359,Simcolourproject_2stim_asymm_v5,2020.2.10,MacIntel,60,61025ae37ef11b136ea224fe,,,,,,,,,1806,89.4619751,-40.99093628,1,0,0,response3disk,,5,22.65350342,-11.78222656,1,0,0,rectangle,22.65350342,-11.78222656,1,0,0,22.65350342,-11.78222656,1,0,0,0,76,76,121,1,,,,,,,,
,,,,,,,,,,,,,FF,,,,,,,,1.7667,,,,,,,,,,,,,,,,,,,,,,60fcf1c57085de494d9f15c5,61036ec518eabf7ea66fd164,2021-07-30_13h16.09.359,Simcolourproject_2stim_asymm_v5,2020.2.10,MacIntel,60,61025ae37ef11b136ea224fe,,,,,,,,,789,-74.40606689,-44.95315552,1,0,0,response5disk,,2,-13.66168213,-1.571563721,1,0,0,rectangle,-27.09326172,-89.67480469,1,0,0,-8.841796875,-4.141204834,1,0,0,0,77,77,67,1,,response5disk_3,TRUE,3,3,"[179,78,238,5,215,72,260,192,28,58,289,256,281,211,254,20,319,251,280,82]",1.5673,rectangle
,,,,,,,,,,,,,FF,,,,,,,,0.9657,,,,,,,,,,,,,,,,,,,,,,60fcf1c57085de494d9f15c5,61036ec518eabf7ea66fd164,2021-07-30_13h16.09.359,Simcolourproject_2stim_asymm_v5,2020.2.10,MacIntel,60,61025ae37ef11b136ea224fe,,,,,,,,,3552,-66.74353027,38.48217773,1,0,0,response7disk,,1,-2.240356445,4.027862549,1,0,0,rectangle,-2.240356445,4.027862549,1,0,0,-2.240356445,4.027862549,1,0,0,0,78,78,50,1,,,,,,,,
,,,,,,,,,,,,,FF,,,,,,,,2.0158,,,,,,,,,,,,,,,,,,,,,,60fcf1c57085de494d9f15c5,61036ec518eabf7ea66fd164,2021-07-30_13h16.09.359,Simcolourproject_2stim_asymm_v5,2020.2.10,MacIntel,60,61025ae37ef11b136ea224fe,,,,,,,,,1842,-44.24951172,-68.38500977,1,0,0,response5disk,,3,-14.76904297,-0.494262695,1,0,0,rectangle,-14.76904297,-0.494262695,1,0,0,-14.76904297,-0.494262695,1,0,0,0,79,79,116,1,,,,,,,,
,,,,,,,,,,,,,FF,,,,,,,,1.8826,,,,,,,,,,,,,,,,,,,,,,60fcf1c57085de494d9f15c5,61036ec518eabf7ea66fd164,2021-07-30_13h16.09.359,Simcolourproject_2stim_asymm_v5,2020.2.10,MacIntel,60,61025ae37ef11b136ea224fe,,,,,,,,,3382,-86.5559082,38.26184082,1,0,0,response7disk,,1,0.295471191,-12.08764648,1,0,0,rectangle,0.295471191,-12.08764648,1,0,0,0.295471191,-12.08764648,1,0,0,0,80,80,66,1,,,,,,,,
,,,,,,,,,,,,,FF,,,,,,,,1.4487,,,,,,,,,,,,,,,,,,,,,,60fcf1c57085de494d9f15c5,61036ec518eabf7ea66fd164,2021-07-30_13h16.09.359,Simcolourproject_2stim_asymm_v5,2020.2.10,MacIntel,60,61025ae37ef11b136ea224fe,,,,,,,,,1136,-84.10925293,39.61993408,1,0,0,response7disk,,1,-9.764099121,-1.743225098,1,0,0,rectangle,-27.43811035,-73.49359131,1,0,0,-10.83514404,-11.18267822,1,0,0,0,81,81,156,1,,response5disk_3,TRUE,3,3,"[179,78,238,5,215,72,260,192,28,58,289,256,281,211,254,20,319,251,280,82]",1.5655,rectangle
,,,,,,,,,,,,,FF,,,,,,,,1.0321,,,,,,,,,,,,,,,,,,,,,,60fcf1c57085de494d9f15c5,61036ec518eabf7ea66fd164,2021-07-30_13h16.09.359,Simcolourproject_2stim_asymm_v5,2020.2.10,MacIntel,60,61025ae37ef11b136ea224fe,,,,,,,,,2736,-71.82818604,-24.16119385,1,0,0,response5disk,,2,-10.5670166,-1.389160156,1,0,0,rectangle,-10.5670166,-1.389160156,1,0,0,-10.5670166,-1.389160156,1,0,0,0,82,82,25,1,,,,,,,,
,,,,,,,,,,,,,FF,,,,,,,,1.4146,,,,,,,,,,,,,,,,,,,,,,60fcf1c57085de494d9f15c5,61036ec518eabf7ea66fd164,2021-07-30_13h16.09.359,Simcolourproject_2stim_asymm_v5,2020.2.10,MacIntel,60,61025ae37ef11b136ea224fe,,,,,,,,,3313,73.97320557,40.47485352,1,0,0,response1disk,,6,11.72357178,0.489013672,1,0,0,rectangle,11.72357178,0.489013672,1,0,0,11.72357178,0.489013672,1,0,0,0,83,83,120,1,,,,,,,,
,,,,,,,,,,,,,FF,,,,,,,,1.3512,,,,,,,,,,,,,,,,,,,,,,60fcf1c57085de494d9f15c5,61036ec518eabf7ea66fd164,2021-07-30_13h16.09.359,Simcolourproject_2stim_asymm_v5,2020.2.10,MacIntel,60,61025ae37ef11b136ea224fe,,,,,,,,,3003,-26.57025146,-53.91043091,1,0,0,response5disk,,3,-23.51751709,0.346313477,1,0,0,rectangle,-23.51751709,0.346313477,1,0,0,-23.51751709,0.346313477,1,0,0,0,84,84,31,1,,,,,,,,
,,,,,,,,,,,,,FF,,,,,,,,1.4496,,,,,,,,,,,,,,,,,,,,,,60fcf1c57085de494d9f15c5,61036ec518eabf7ea66fd164,2021-07-30_13h16.09.359,Simcolourproject_2stim_asymm_v5,2020.2.10,MacIntel,60,61025ae37ef11b136ea224fe,,,,,,,,,3574,46.22875977,-73.29626465,1,0,0,response3disk,,4,5.638427734,-5.524902344,1,0,0,rectangle,5.638427734,-5.524902344,1,0,0,5.638427734,-5.524902344,1,0,0,0,85,85,64,1,,,,,,,,
,,,,,,,,,,,,,FF,,,,,,,,0.9473,,,,,,,,,,,,,,,,,,,,,,60fcf1c57085de494d9f15c5,61036ec518eabf7ea66fd164,2021-07-30_13h16.09.359,Simcolourproject_2stim_asymm_v5,2020.2.10,MacIntel,60,61025ae37ef11b136ea224fe,,,,,,,,,3516,-69.49804688,-33.42810059,1,0,0,response5disk,,2,-29.91094971,-2.060241699,1,0,0,rectangle,-29.91094971,-2.060241699,1,0,0,-29.91094971,-2.060241699,1,0,0,0,86,86,29,1,,,,,,,,
,,,,,,,,,,,,,FF,,,,,,,,0.8155,,,,,,,,,,,,,,,,,,,,,,60fcf1c57085de494d9f15c5,61036ec518eabf7ea66fd164,2021-07-30_13h16.09.359,Simcolourproject_2stim_asymm_v5,2020.2.10,MacIntel,60,61025ae37ef11b136ea224fe,,,,,,,,,543,-39.85290527,94.19781494,1,0,0,response7disk,,0,-9.587280273,15.22067261,1,0,0,rectangle,-9.587280273,15.22067261,1,0,0,-9.587280273,15.22067261,1,0,0,0,87,87,62,1,,,,,,,,
,,,,,,,,,,,,,FF,,,,,,,,1.0484,,,,,,,,,,,,,,,,,,,,,,60fcf1c57085de494d9f15c5,61036ec518eabf7ea66fd164,2021-07-30_13h16.09.359,Simcolourproject_2stim_asymm_v5,2020.2.10,MacIntel,60,61025ae37ef11b136ea224fe,,,,,,,,,4209,46.296875,89.07330322,1,0,0,response1disk,,7,1.263244629,3.014526367,1,0,0,rectangle,1.263244629,3.014526367,1,0,0,1.263244629,3.014526367,1,0,0,0,88,88,79,1,,,,,,,,
,,,,,,,,,,,,,FF,,,,,,,,1.2153,,,,,,,,,,,,,,,,,,,,,,60fcf1c57085de494d9f15c5,61036ec518eabf7ea66fd164,2021-07-30_13h16.09.359,Simcolourproject_2stim_asymm_v5,2020.2.10,MacIntel,60,61025ae37ef11b136ea224fe,,,,,,,,,2932,-53.47894287,-43.73736572,1,0,0,response5disk,,2,5.546875,17.05255127,1,0,0,rectangle,5.546875,17.05255127,1,0,0,5.546875,17.05255127,1,0,0,0,89,89,104,1,,,,,,,,
,,,,,,,,,,,,,FF,,,,,,,,1.7822,,,,,,,,,,,,,,,,,,,,,,60fcf1c57085de494d9f15c5,61036ec518eabf7ea66fd164,2021-07-30_13h16.09.359,Simcolourproject_2stim_asymm_v5,2020.2.10,MacIntel,60,61025ae37ef11b136ea224fe,,,,,,,,,805,-77.05395508,55.74505615,1,0,0,response7disk,,1,-11.57080078,-0.228881836,1,0,0,rectangle,-11.57080078,-0.228881836,1,0,0,-11.57080078,-0.228881836,1,0,0,0,90,90,12,1,,,,,,,,
,,,,,,,,,,,,,FF,,,,,,,,0.9321,,,,,,,,,,,,,,,,,,,,,,60fcf1c57085de494d9f15c5,61036ec518eabf7ea66fd164,2021-07-30_13h16.09.359,Simcolourproject_2stim_asymm_v5,2020.2.10,MacIntel,60,61025ae37ef11b136ea224fe,,,,,,,,,3380,43.45178223,77.42901611,1,0,0,response1disk,,7,11.0133667,6.555786133,1,0,0,rectangle,11.0133667,6.555786133,1,0,0,11.0133667,6.555786133,1,0,0,0,91,91,98,1,,,,,,,,
,,,,,,,,,,,,,FF,,,,,,,,1.0978,,,,,,,,,,,,,,,,,,,,,,60fcf1c57085de494d9f15c5,61036ec518eabf7ea66fd164,2021-07-30_13h16.09.359,Simcolourproject_2stim_asymm_v5,2020.2.10,MacIntel,60,61025ae37ef11b136ea224fe,,,,,,,,,1099,54.48583984,29.21490479,1,0,0,response1disk,,6,1.194580078,-12.1050415,1,0,0,rectangle,1.194580078,-12.1050415,1,0,0,1.194580078,-12.1050415,1,0,0,0,92,92,32,1,,,,,,,,
,,,,,,,,,,,,,FF,,,,,,,,1.0827,,,,,,,,,,,,,,,,,,,,,,60fcf1c57085de494d9f15c5,61036ec518eabf7ea66fd164,2021-07-30_13h16.09.359,Simcolourproject_2stim_asymm_v5,2020.2.10,MacIntel,60,61025ae37ef11b136ea224fe,,,,,,,,,1502,61.9786377,31.09033203,1,0,0,response1disk,,6,3.190307617,-1.893463135,1,0,0,rectangle,3.190307617,-1.893463135,1,0,0,3.190307617,-1.893463135,1,0,0,0,93,93,139,1,,,,,,,,
,,,,,,,,,,,,,FF,,,,,,,,0.7003,,,,,,,,,,,,,,,,,,,,,,60fcf1c57085de494d9f15c5,61036ec518eabf7ea66fd164,2021-07-30_13h16.09.359,Simcolourproject_2stim_asymm_v5,2020.2.10,MacIntel,60,61025ae37ef11b136ea224fe,,,,,,,,,1596,-45.04595947,98.05963135,1,0,0,response7disk,,0,-12.83746338,10.15335083,1,0,0,rectangle,-12.83746338,10.15335083,1,0,0,-12.83746338,10.15335083,1,0,0,0,94,94,93,1,,,,,,,,
,,,,,,,,,,,,,FF,,,,,,,,1.3687,,,,,,,,,,,,,,,,,,,,,,60fcf1c57085de494d9f15c5,61036ec518eabf7ea66fd164,2021-07-30_13h16.09.359,Simcolourproject_2stim_asymm_v5,2020.2.10,MacIntel,60,61025ae37ef11b136ea224fe,,,,,,,,,4039,54.58978271,-26.57662964,1,0,0,response3disk,,5,9.572509766,-5.970153809,1,0,0,rectangle,9.572509766,-5.970153809,1,0,0,9.572509766,-5.970153809,1,0,0,0,95,95,26,1,,,,,,,,
,,,,,,,,,,,,,FF,,,,,,,,0.7335,,,,,,,,,,,,,,,,,,,,,,60fcf1c57085de494d9f15c5,61036ec518eabf7ea66fd164,2021-07-30_13h16.09.359,Simcolourproject_2stim_asymm_v5,2020.2.10,MacIntel,60,61025ae37ef11b136ea224fe,,,,,,,,,533,-86.26239014,49.74969482,1,0,0,response7disk,,1,-6.756652832,6.631408691,1,0,0,rectangle,-6.756652832,6.631408691,1,0,0,-6.756652832,6.631408691,1,0,0,0,96,96,46,1,,,,,,,,
,,,,,,,,,,,,,FF,,,,,,,,1.7474,,,,,,,,,,,,,,,,,,,,,,60fcf1c57085de494d9f15c5,61036ec518eabf7ea66fd164,2021-07-30_13h16.09.359,Simcolourproject_2stim_asymm_v5,2020.2.10,MacIntel,60,61025ae37ef11b136ea224fe,,,,,,,,,1199,-38.45727539,-64.59716797,1,0,0,response5disk,,3,-6.208984375,-15.08407593,1,0,0,rectangle,-6.208984375,-15.08407593,1,0,0,-6.208984375,-15.08407593,1,0,0,0,97,97,80,1,,,,,,,,
,,,,,,,,,,,,,FF,,,,,,,,1.0002,,,,,,,,,,,,,,,,,,,,,,60fcf1c57085de494d9f15c5,61036ec518eabf7ea66fd164,2021-07-30_13h16.09.359,Simcolourproject_2stim_asymm_v5,2020.2.10,MacIntel,60,61025ae37ef11b136ea224fe,,,,,,,,,720,-77.33209229,-29.88262939,1,0,0,response5disk,,2,-11.30566406,0.808227539,1,0,0,rectangle,-11.30566406,0.808227539,1,0,0,-11.30566406,0.808227539,1,0,0,0,98,98,143,1,,,,,,,,
,,,,,,,,,,,,,FF,,,,,,,,1.0493,,,,,,,,,,,,,,,,,,,,,,60fcf1c57085de494d9f15c5,61036ec518eabf7ea66fd164,2021-07-30_13h16.09.359,Simcolourproject_2stim_asymm_v5,2020.2.10,MacIntel,60,61025ae37ef11b136ea224fe,,,,,,,,,1795,70.91522217,38.47451782,1,0,0,response1disk,,6,9.873291016,-6.880310059,1,0,0,rectangle,9.873291016,-6.880310059,1,0,0,9.873291016,-6.880310059,1,0,0,0,99,99,142,1,,,,,,,,
,,,,,,,,,,,,,FF,,,,,,,,0.9493,,,,,,,,,,,,,,,,,,,,,,60fcf1c57085de494d9f15c5,61036ec518eabf7ea66fd164,2021-07-30_13h16.09.359,Simcolourproject_2stim_asymm_v5,2020.2.10,MacIntel,60,61025ae37ef11b136ea224fe,,,,,,,,,4362,-92.48687744,39.2197876,1,0,0,response7disk,,1,-32.51690674,5.725219727,1,0,0,rectangle,-32.51690674,5.725219727,1,0,0,-32.51690674,5.725219727,1,0,0,0,100,100,123,1,,,,,,,,
,,,,,,,,,,,,,FF,,,,,,,,1.0485,,,,,,,,,,,,,,,,,,,,,,60fcf1c57085de494d9f15c5,61036ec518eabf7ea66fd164,2021-07-30_13h16.09.359,Simcolourproject_2stim_asymm_v5,2020.2.10,MacIntel,60,61025ae37ef11b136ea224fe,,,,,,,,,4239,-80.44830322,-31.72042847,1,0,0,response5disk,,2,0.575500488,-6.842163086,1,0,0,rectangle,0.575500488,-6.842163086,1,0,0,0.575500488,-6.842163086,1,0,0,0,101,101,8,1,,,,,,,,
,,,,,,,,,,,,,FF,,,,,,,,1.3675,,,,,,,,,,,,,,,,,,,,,,60fcf1c57085de494d9f15c5,61036ec518eabf7ea66fd164,2021-07-30_13h16.09.359,Simcolourproject_2stim_asymm_v5,2020.2.10,MacIntel,60,61025ae37ef11b136ea224fe,,,,,,,,,1587,-28.168396,-61.27627563,1,0,0,response5disk,,3,-12.30511475,-1.15145874,1,0,0,rectangle,-12.30511475,-1.15145874,1,0,0,-12.30511475,-1.15145874,1,0,0,0,102,102,141,1,,,,,,,,
,,,,,,,,,,,,,FF,,,,,,,,1.1999,,,,,,,,,,,,,,,,,,,,,,60fcf1c57085de494d9f15c5,61036ec518eabf7ea66fd164,2021-07-30_13h16.09.359,Simcolourproject_2stim_asymm_v5,2020.2.10,MacIntel,60,61025ae37ef11b136ea224fe,,,,,,,,,4262,27.6217041,-51.95159912,1,0,0,response3disk,,4,6.195007324,-7.303649902,1,0,0,rectangle,6.195007324,-7.303649902,1,0,0,6.195007324,-7.303649902,1,0,0,0,103,103,152,1,,,,,,,,
,,,,,,,,,,,,,FF,,,,,,,,1.7493,,,,,,,,,,,,,,,,,,,,,,60fcf1c57085de494d9f15c5,61036ec518eabf7ea66fd164,2021-07-30_13h16.09.359,Simcolourproject_2stim_asymm_v5,2020.2.10,MacIntel,60,61025ae37ef11b136ea224fe,,,,,,,,,1067,70.86547852,48.64926147,1,0,0,response1disk,,6,1.19543457,8.859649658,1,0,0,rectangle,1.19543457,8.859649658,1,0,0,1.19543457,8.859649658,1,0,0,0,104,104,61,1,,,,,,,,
,,,,,,,,,,,,,FF,,,,,,,,0.9658,,,,,,,,,,,,,,,,,,,,,,60fcf1c57085de494d9f15c5,61036ec518eabf7ea66fd164,2021-07-30_13h16.09.359,Simcolourproject_2stim_asymm_v5,2020.2.10,MacIntel,60,61025ae37ef11b136ea224fe,,,,,,,,,3850,-76.706604,-17.4822998,1,0,0,response5disk,,2,-13.08349609,-5.760528564,1,0,0,rectangle,-13.08349609,-5.760528564,1,0,0,-13.08349609,-5.760528564,1,0,0,0,105,105,19,1,,,,,,,,
,,,,,,,,,,,,,FF,,,,,,,,0.8157,,,,,,,,,,,,,,,,,,,,,,60fcf1c57085de494d9f15c5,61036ec518eabf7ea66fd164,2021-07-30_13h16.09.359,Simcolourproject_2stim_asymm_v5,2020.2.10,MacIntel,60,61025ae37ef11b136ea224fe,,,,,,,,,4355,82.64660645,-32.99987793,1,0,0,response3disk,,5,12.14373779,0.323242188,1,0,0,rectangle,12.14373779,0.323242188,1,0,0,12.14373779,0.323242188,1,0,0,0,106,106,91,1,,,,,,,,
,,,,,,,,,,,,,FF,,,,,,,,0.8141,,,,,,,,,,,,,,,,,,,,,,60fcf1c57085de494d9f15c5,61036ec518eabf7ea66fd164,2021-07-30_13h16.09.359,Simcolourproject_2stim_asymm_v5,2020.2.10,MacIntel,60,61025ae37ef11b136ea224fe,,,,,,,,,1222,-79.80908203,-32.08953857,1,0,0,response5disk,,2,-0.956054688,7.930114746,1,0,0,rectangle,-0.956054688,7.930114746,1,0,0,-0.956054688,7.930114746,1,0,0,0,107,107,36,1,,,,,,,,
,,,,,,,,,,,,,FF,,,,,,,,0.7811,,,,,,,,,,,,,,,,,,,,,,60fcf1c57085de494d9f15c5,61036ec518eabf7ea66fd164,2021-07-30_13h16.09.359,Simcolourproject_2stim_asymm_v5,2020.2.10,MacIntel,60,61025ae37ef11b136ea224fe,,,,,,,,,1303,-83.0402832,-36.71496582,1,0,0,response5disk,,2,-6.486450195,-7.201538086,1,0,0,rectangle,-6.486450195,-7.201538086,1,0,0,-6.486450195,-7.201538086,1,0,0,0,108,108,122,1,,,,,,,,
,,,,,,,,,,,,,FF,,,,,,,,2.4668,,,,,,,,,,,,,,,,,,,,,,60fcf1c57085de494d9f15c5,61036ec518eabf7ea66fd164,2021-07-30_13h16.09.359,Simcolourproject_2stim_asymm_v5,2020.2.10,MacIntel,60,61025ae37ef11b136ea224fe,,,,,,,,,229,63.4911499,-28.65698242,1,0,0,response3disk,,5,3.517822266,-17.64093018,1,0,0,rectangle,3.517822266,-17.64093018,1,0,0,3.517822266,-17.64093018,1,0,0,0,109,109,44,1,,,,,,,,
,,,,,,,,,,,,,FF,,,,,,,,1.3509,,,,,,,,,,,,,,,,,,,,,,60fcf1c57085de494d9f15c5,61036ec518eabf7ea66fd164,2021-07-30_13h16.09.359,Simcolourproject_2stim_asymm_v5,2020.2.10,MacIntel,60,61025ae37ef11b136ea224fe,,,,,,,,,3715,-41.24963379,-70.74719238,1,0,0,response5disk,,3,-2.287353516,4.478820801,1,0,0,rectangle,-2.287353516,4.478820801,1,0,0,-2.287353516,4.478820801,1,0,0,0,110,110,159,1,,,,,,,,
,,,,,,,,,,,,,FF,,,,,,,,1.0664,,,,,,,,,,,,,,,,,,,,,,60fcf1c57085de494d9f15c5,61036ec518eabf7ea66fd164,2021-07-30_13h16.09.359,Simcolourproject_2stim_asymm_v5,2020.2.10,MacIntel,60,61025ae37ef11b136ea224fe,,,,,,,,,4251,-66.42346191,51.65045166,1,0,0,response7disk,,1,-9.919921875,4.439331055,1,0,0,rectangle,-9.919921875,4.439331055,1,0,0,-9.919921875,4.439331055,1,0,0,0,111,111,1,1,,,,,,,,
,,,,,,,,,,,,,FF,,,,,,,,1.0499,,,,,,,,,,,,,,,,,,,,,,60fcf1c57085de494d9f15c5,61036ec518eabf7ea66fd164,2021-07-30_13h16.09.359,Simcolourproject_2stim_asymm_v5,2020.2.10,MacIntel,60,61025ae37ef11b136ea224fe,,,,,,,,,4136,66.94537354,37.09506226,1,0,0,response1disk,,6,26.28387451,-2.360046387,1,0,0,rectangle,26.28387451,-2.360046387,1,0,0,26.28387451,-2.360046387,1,0,0,0,112,112,48,1,,,,,,,,
,,,,,,,,,,,,,FF,,,,,,,,1.567,,,,,,,,,,,,,,,,,,,,,,60fcf1c57085de494d9f15c5,61036ec518eabf7ea66fd164,2021-07-30_13h16.09.359,Simcolourproject_2stim_asymm_v5,2020.2.10,MacIntel,60,61025ae37ef11b136ea224fe,,,,,,,,,1084,36.66052246,-76.22521973,1,0,0,response3disk,,4,3.159240723,3.343139648,1,0,0,rectangle,3.159240723,3.343139648,1,0,0,3.159240723,3.343139648,1,0,0,0,113,113,9,1,,,,,,,,
,,,,,,,,,,,,,FF,,,,,,,,0.7822,,,,,,,,,,,,,,,,,,,,,,60fcf1c57085de494d9f15c5,61036ec518eabf7ea66fd164,2021-07-30_13h16.09.359,Simcolourproject_2stim_asymm_v5,2020.2.10,MacIntel,60,61025ae37ef11b136ea224fe,,,,,,,,,1125,54.109375,-24.52185059,1,0,0,response3disk,,5,0.017028809,0.186462402,1,0,0,rectangle,0.017028809,0.186462402,1,0,0,0.017028809,0.186462402,1,0,0,0,114,114,57,1,,,,,,,,
,,,,,,,,,,,,,FF,,,,,,,,0.7831,,,,,,,,,,,,,,,,,,,,,,60fcf1c57085de494d9f15c5,61036ec518eabf7ea66fd164,2021-07-30_13h16.09.359,Simcolourproject_2stim_asymm_v5,2020.2.10,MacIntel,60,61025ae37ef11b136ea224fe,,,,,,,,,1982,63.03100586,-37.55325317,1,0,0,response3disk,,5,15.21380615,-5.364257813,1,0,0,rectangle,15.21380615,-5.364257813,1,0,0,15.21380615,-5.364257813,1,0,0,0,115,115,99,1,,,,,,,,
,,,,,,,,,,,,,FF,,,,,,,,1.7156,,,,,,,,,,,,,,,,,,,,,,60fcf1c57085de494d9f15c5,61036ec518eabf7ea66fd164,2021-07-30_13h16.09.359,Simcolourproject_2stim_asymm_v5,2020.2.10,MacIntel,60,61025ae37ef11b136ea224fe,,,,,,,,,3983,54.97149658,-29.67007446,1,0,0,response3disk,,5,10.23724365,-9.775878906,1,0,0,rectangle,10.23724365,-9.775878906,1,0,0,10.23724365,-9.775878906,1,0,0,0,116,116,101,1,,,,,,,,
,,,,,,,,,,,,,FF,,,,,,,,1.0167,,,,,,,,,,,,,,,,,,,,,,60fcf1c57085de494d9f15c5,61036ec518eabf7ea66fd164,2021-07-30_13h16.09.359,Simcolourproject_2stim_asymm_v5,2020.2.10,MacIntel,60,61025ae37ef11b136ea224fe,,,,,,,,,697,77.3581543,37.05828857,1,0,0,response1disk,,6,13.37884521,8.069885254,1,0,0,rectangle,13.37884521,8.069885254,1,0,0,13.37884521,8.069885254,1,0,0,0,117,117,63,1,,,,,,,,
,,,,,,,,,,,,,FF,,,,,,,,1.2318,,,,,,,,,,,,,,,,,,,,,,60fcf1c57085de494d9f15c5,61036ec518eabf7ea66fd164,2021-07-30_13h16.09.359,Simcolourproject_2stim_asymm_v5,2020.2.10,MacIntel,60,61025ae37ef11b136ea224fe,,,,,,,,,2495,33.67687988,66.91891479,1,0,0,response1disk,,7,11.23577881,0.094238281,1,0,0,rectangle,11.23577881,0.094238281,1,0,0,11.23577881,0.094238281,1,0,0,0,118,118,37,1,,,,,,,,
,,,,,,,,,,,,,FF,,,,,,,,1.2164,,,,,,,,,,,,,,,,,,,,,,60fcf1c57085de494d9f15c5,61036ec518eabf7ea66fd164,2021-07-30_13h16.09.359,Simcolourproject_2stim_asymm_v5,2020.2.10,MacIntel,60,61025ae37ef11b136ea224fe,,,,,,,,,1605,-78.9854126,-45.54486084,1,0,0,response5disk,,2,-5.071044922,-15.44790649,1,0,0,rectangle,-5.071044922,-15.44790649,1,0,0,-5.071044922,-15.44790649,1,0,0,0,119,119,103,1,,,,,,,,
,,,,,,,,,,,,,FF,,,,,,,,0.9154,,,,,,,,,,,,,,,,,,,,,,60fcf1c57085de494d9f15c5,61036ec518eabf7ea66fd164,2021-07-30_13h16.09.359,Simcolourproject_2stim_asymm_v5,2020.2.10,MacIntel,60,61025ae37ef11b136ea224fe,,,,,,,,,2727,-64.62811279,-26.34524536,1,0,0,response5disk,,2,-9.344726563,9.777160645,1,0,0,rectangle,-9.344726563,9.777160645,1,0,0,-9.344726563,9.777160645,1,0,0,0,120,120,82,1,,,,,,,,
,,,,,,,,,,,,,FF,,,,,,,,1.6334,,,,,,,,,,,,,,,,,,,,,,60fcf1c57085de494d9f15c5,61036ec518eabf7ea66fd164,2021-07-30_13h16.09.359,Simcolourproject_2stim_asymm_v5,2020.2.10,MacIntel,60,61025ae37ef11b136ea224fe,,,,,,,,,3934,-62.37304688,-32.9258728,1,0,0,response5disk,,2,-1.602600098,-6.698547363,1,0,0,rectangle,-1.602600098,-6.698547363,1,0,0,-1.602600098,-6.698547363,1,0,0,0,121,121,20,1,,,,,,,,
,,,,,,,,,,,,,FF,,,,,,,,1.4821,,,,,,,,,,,,,,,,,,,,,,60fcf1c57085de494d9f15c5,61036ec518eabf7ea66fd164,2021-07-30_13h16.09.359,Simcolourproject_2stim_asymm_v5,2020.2.10,MacIntel,60,61025ae37ef11b136ea224fe,,,,,,,,,3957,61.28735352,33.86660767,1,0,0,response1disk,,6,11.75445557,2.991027832,1,0,0,rectangle,11.75445557,2.991027832,1,0,0,11.75445557,2.991027832,1,0,0,0,122,122,30,1,,,,,,,,
,,,,,,,,,,,,,FF,,,,,,,,0.8955,,,,,,,,,,,,,,,,,,,,,,60fcf1c57085de494d9f15c5,61036ec518eabf7ea66fd164,2021-07-30_13h16.09.359,Simcolourproject_2stim_asymm_v5,2020.2.10,MacIntel,60,61025ae37ef11b136ea224fe,,,,,,,,,967,27.9664917,64.55218506,1,0,0,response1disk,,7,5.811279297,7.330078125,1,0,0,rectangle,5.811279297,7.330078125,1,0,0,5.811279297,7.330078125,1,0,0,0,123,123,24,1,,,,,,,,
,,,,,,,,,,,,,FF,,,,,,,,0.5654,,,,,,,,,,,,,,,,,,,,,,60fcf1c57085de494d9f15c5,61036ec518eabf7ea66fd164,2021-07-30_13h16.09.359,Simcolourproject_2stim_asymm_v5,2020.2.10,MacIntel,60,61025ae37ef11b136ea224fe,,,,,,,,,1049,32.77740479,58.64059448,1,0,0,response1disk,,7,17.09210205,11.97949219,1,0,0,rectangle,17.09210205,11.97949219,1,0,0,17.09210205,11.97949219,1,0,0,0,124,124,7,1,,,,,,,,
,,,,,,,,,,,,,FF,,,,,,,,1.0001,,,,,,,,,,,,,,,,,,,,,,60fcf1c57085de494d9f15c5,61036ec518eabf7ea66fd164,2021-07-30_13h16.09.359,Simcolourproject_2stim_asymm_v5,2020.2.10,MacIntel,60,61025ae37ef11b136ea224fe,,,,,,,,,2918,61.51281738,42.568573,1,0,0,response1disk,,6,20.45257568,8.732177734,1,0,0,rectangle,20.45257568,8.732177734,1,0,0,20.45257568,8.732177734,1,0,0,0,125,125,6,1,,,,,,,,
,,,,,,,,,,,,,FF,,,,,,,,0.9161,,,,,,,,,,,,,,,,,,,,,,60fcf1c57085de494d9f15c5,61036ec518eabf7ea66fd164,2021-07-30_13h16.09.359,Simcolourproject_2stim_asymm_v5,2020.2.10,MacIntel,60,61025ae37ef11b136ea224fe,,,,,,,,,1161,72.40240479,36.46057129,1,0,0,response1disk,,6,32.08856201,6.468444824,1,0,0,rectangle,32.08856201,6.468444824,1,0,0,32.08856201,6.468444824,1,0,0,0,126,126,11,1,,,,,,,,
,,,,,,,,,,,,,FF,,,,,,,,0.9308,,,,,,,,,,,,,,,,,,,,,,60fcf1c57085de494d9f15c5,61036ec518eabf7ea66fd164,2021-07-30_13h16.09.359,Simcolourproject_2stim_asymm_v5,2020.2.10,MacIntel,60,61025ae37ef11b136ea224fe,,,,,,,,,3041,-56.45715332,-30.12957764,1,0,0,response5disk,,2,2.598999023,6.00189209,1,0,0,rectangle,2.598999023,6.00189209,1,0,0,2.598999023,6.00189209,1,0,0,0,127,127,127,1,,,,,,,,
,,,,,,,,,,,,,FF,,,,,,,,1.2834,,,,,,,,,,,,,,,,,,,,,,60fcf1c57085de494d9f15c5,61036ec518eabf7ea66fd164,2021-07-30_13h16.09.359,Simcolourproject_2stim_asymm_v5,2020.2.10,MacIntel,60,61025ae37ef11b136ea224fe,,,,,,,,,2968,65.49493408,29.73571777,1,0,0,response1disk,,6,10.94934082,-6.136413574,1,0,0,rectangle,10.94934082,-6.136413574,1,0,0,10.94934082,-6.136413574,1,0,0,0,128,128,85,1,,,,,,,,
,,,,,,,,,,,,,FF,,,,,,,,1.9645,,,,,,,,,,,,,,,,,,,,,,60fcf1c57085de494d9f15c5,61036ec518eabf7ea66fd164,2021-07-30_13h16.09.359,Simcolourproject_2stim_asymm_v5,2020.2.10,MacIntel,60,61025ae37ef11b136ea224fe,,,,,,,,,1538,57.54266357,-33.66827393,1,0,0,response3disk,,5,13.1461792,-11.2590332,1,0,0,rectangle,13.1461792,-11.2590332,1,0,0,13.1461792,-11.2590332,1,0,0,0,129,129,106,1,,,,,,,,
,,,,,,,,,,,,,FF,,,,,,,,1.0161,,,,,,,,,,,,,,,,,,,,,,60fcf1c57085de494d9f15c5,61036ec518eabf7ea66fd164,2021-07-30_13h16.09.359,Simcolourproject_2stim_asymm_v5,2020.2.10,MacIntel,60,61025ae37ef11b136ea224fe,,,,,,,,,2707,76.07446289,41.98162842,1,0,0,response1disk,,6,10.12963867,-5.170288086,1,0,0,rectangle,10.12963867,-5.170288086,1,0,0,10.12963867,-5.170288086,1,0,0,0,130,130,136,1,,,,,,,,
,,,,,,,,,,,,,FF,,,,,,,,1.431,,,,,,,,,,,,,,,,,,,,,,60fcf1c57085de494d9f15c5,61036ec518eabf7ea66fd164,2021-07-30_13h16.09.359,Simcolourproject_2stim_asymm_v5,2020.2.10,MacIntel,60,61025ae37ef11b136ea224fe,,,,,,,,,3002,-42.26477051,-55.12374878,1,0,0,response5disk,,3,3.395874023,10.47732544,1,0,0,rectangle,3.395874023,10.47732544,1,0,0,3.395874023,10.47732544,1,0,0,0,131,131,114,1,,,,,,,,
,,,,,,,,,,,,,FF,,,,,,,,0.7998,,,,,,,,,,,,,,,,,,,,,,60fcf1c57085de494d9f15c5,61036ec518eabf7ea66fd164,2021-07-30_13h16.09.359,Simcolourproject_2stim_asymm_v5,2020.2.10,MacIntel,60,61025ae37ef11b136ea224fe,,,,,,,,,3320,87.08807373,54.42965698,1,0,0,response1disk,,6,19.86395264,3.90322876,1,0,0,rectangle,19.86395264,3.90322876,1,0,0,19.86395264,3.90322876,1,0,0,0,132,132,132,1,,,,,,,,
,,,,,,,,,,,,,FF,,,,,,,,1.4671,,,,,,,,,,,,,,,,,,,,,,60fcf1c57085de494d9f15c5,61036ec518eabf7ea66fd164,2021-07-30_13h16.09.359,Simcolourproject_2stim_asymm_v5,2020.2.10,MacIntel,60,61025ae37ef11b136ea224fe,,,,,,,,,2251,27.171875,-70.16967773,1,0,0,response3disk,,4,-0.851806641,-1.255371094,1,0,0,rectangle,-0.851806641,-1.255371094,1,0,0,-0.851806641,-1.255371094,1,0,0,0,133,133,75,1,,,,,,,,
,,,,,,,,,,,,,FF,,,,,,,,0.9323,,,,,,,,,,,,,,,,,,,,,,60fcf1c57085de494d9f15c5,61036ec518eabf7ea66fd164,2021-07-30_13h16.09.359,Simcolourproject_2stim_asymm_v5,2020.2.10,MacIntel,60,61025ae37ef11b136ea224fe,,,,,,,,,946,73.22058105,43.71749878,1,0,0,response1disk,,6,6.52532959,8.634460449,1,0,0,rectangle,6.52532959,8.634460449,1,0,0,6.52532959,8.634460449,1,0,0,0,134,134,18,1,,,,,,,,
,,,,,,,,,,,,,FF,,,,,,,,0.7329,,,,,,,,,,,,,,,,,,,,,,60fcf1c57085de494d9f15c5,61036ec518eabf7ea66fd164,2021-07-30_13h16.09.359,Simcolourproject_2stim_asymm_v5,2020.2.10,MacIntel,60,61025ae37ef11b136ea224fe,,,,,,,,,3367,73.85699463,37.88903809,1,0,0,response1disk,,6,15.92999268,-0.841125488,1,0,0,rectangle,15.92999268,-0.841125488,1,0,0,15.92999268,-0.841125488,1,0,0,0,135,135,125,1,,,,,,,,
,,,,,,,,,,,,,FF,,,,,,,,0.6653,,,,,,,,,,,,,,,,,,,,,,60fcf1c57085de494d9f15c5,61036ec518eabf7ea66fd164,2021-07-30_13h16.09.359,Simcolourproject_2stim_asymm_v5,2020.2.10,MacIntel,60,61025ae37ef11b136ea224fe,,,,,,,,,2645,34.46002197,64.22912598,1,0,0,response1disk,,7,15.19934082,3.098602295,1,0,0,rectangle,15.19934082,3.098602295,1,0,0,15.19934082,3.098602295,1,0,0,0,136,136,59,1,,,,,,,,
,,,,,,,,,,,,,FF,,,,,,,,0.7844,,,,,,,,,,,,,,,,,,,,,,60fcf1c57085de494d9f15c5,61036ec518eabf7ea66fd164,2021-07-30_13h16.09.359,Simcolourproject_2stim_asymm_v5,2020.2.10,MacIntel,60,61025ae37ef11b136ea224fe,,,,,,,,,316,39.43212891,79.51379395,1,0,0,response1disk,,7,14.55841064,6.704833984,1,0,0,rectangle,14.55841064,6.704833984,1,0,0,14.55841064,6.704833984,1,0,0,0,137,137,60,1,,,,,,,,
,,,,,,,,,,,,,FF,,,,,,,,1.3496,,,,,,,,,,,,,,,,,,,,,,60fcf1c57085de494d9f15c5,61036ec518eabf7ea66fd164,2021-07-30_13h16.09.359,Simcolourproject_2stim_asymm_v5,2020.2.10,MacIntel,60,61025ae37ef11b136ea224fe,,,,,,,,,794,23.70709229,-54.64974976,1,0,0,response3disk,,4,6.376037598,-9.323883057,1,0,0,rectangle,6.376037598,-9.323883057,1,0,0,6.376037598,-9.323883057,1,0,0,0,138,138,128,1,,,,,,,,
,,,,,,,,,,,,,FF,,,,,,,,0.8162,,,,,,,,,,,,,,,,,,,,,,60fcf1c57085de494d9f15c5,61036ec518eabf7ea66fd164,2021-07-30_13h16.09.359,Simcolourproject_2stim_asymm_v5,2020.2.10,MacIntel,60,61025ae37ef11b136ea224fe,,,,,,,,,3664,-66.40563965,-24.68328857,1,0,0,response5disk,,2,-3.482421875,4.10168457,1,0,0,rectangle,-3.482421875,4.10168457,1,0,0,-3.482421875,4.10168457,1,0,0,0,139,139,151,1,,,,,,,,
,,,,,,,,,,,,,FF,,,,,,,,1.6826,,,,,,,,,,,,,,,,,,,,,,60fcf1c57085de494d9f15c5,61036ec518eabf7ea66fd164,2021-07-30_13h16.09.359,Simcolourproject_2stim_asymm_v5,2020.2.10,MacIntel,60,61025ae37ef11b136ea224fe,,,,,,,,,2796,-52.203125,-62.46966553,1,0,0,response5disk,,3,-11.28192139,-9.035583496,1,0,0,rectangle,-11.28192139,-9.035583496,1,0,0,-11.28192139,-9.035583496,1,0,0,0,140,140,70,1,,,,,,,,
,,,,,,,,,,,,,FF,,,,,,,,1.166,,,,,,,,,,,,,,,,,,,,,,60fcf1c57085de494d9f15c5,61036ec518eabf7ea66fd164,2021-07-30_13h16.09.359,Simcolourproject_2stim_asymm_v5,2020.2.10,MacIntel,60,61025ae37ef11b136ea224fe,,,,,,,,,2174,-76.88867188,42.09100342,1,0,0,response7disk,,1,-15.38879395,4.806945801,1,0,0,rectangle,-15.38879395,4.806945801,1,0,0,-15.38879395,4.806945801,1,0,0,0,141,141,146,1,,,,,,,,
,,,,,,,,,,,,,FF,,,,,,,,1.1493,,,,,,,,,,,,,,,,,,,,,,60fcf1c57085de494d9f15c5,61036ec518eabf7ea66fd164,2021-07-30_13h16.09.359,Simcolourproject_2stim_asymm_v5,2020.2.10,MacIntel,60,61025ae37ef11b136ea224fe,,,,,,,,,938,35.5501709,70.99505615,1,0,0,response1disk,,7,13.83813477,7.879089355,1,0,0,rectangle,13.83813477,7.879089355,1,0,0,13.83813477,7.879089355,1,0,0,0,142,142,131,1,,,,,,,,
,,,,,,,,,,,,,FF,,,,,,,,2.8327,,,,,,,,,,,,,,,,,,,,,,60fcf1c57085de494d9f15c5,61036ec518eabf7ea66fd164,2021-07-30_13h16.09.359,Simcolourproject_2stim_asymm_v5,2020.2.10,MacIntel,60,61025ae37ef11b136ea224fe,,,,,,,,,4321,47.22521973,37.27175903,1,0,0,response1disk,,6,9.698181152,3.738891602,1,0,0,rectangle,9.698181152,3.738891602,1,0,0,9.698181152,3.738891602,1,0,0,0,143,143,77,1,,,,,,,,
,,,,,,,,,,,,,FF,,,,,,,,0.9178,,,,,,,,,,,,,,,,,,,,,,60fcf1c57085de494d9f15c5,61036ec518eabf7ea66fd164,2021-07-30_13h16.09.359,Simcolourproject_2stim_asymm_v5,2020.2.10,MacIntel,60,61025ae37ef11b136ea224fe,,,,,,,,,593,45.93914795,76.68048096,1,0,0,response1disk,,7,5.53302002,9.538391113,1,0,0,rectangle,5.53302002,9.538391113,1,0,0,5.53302002,9.538391113,1,0,0,0,144,144,17,1,,,,,,,,
,,,,,,,,,,,,,FF,,,,,,,,2.599,,,,,,,,,,,,,,,,,,,,,,60fcf1c57085de494d9f15c5,61036ec518eabf7ea66fd164,2021-07-30_13h16.09.359,Simcolourproject_2stim_asymm_v5,2020.2.10,MacIntel,60,61025ae37ef11b136ea224fe,,,,,,,,,385,-48.42358398,-60.95391846,1,0,0,response5disk,,3,-6.831604004,-1.569946289,1,0,0,rectangle,-6.831604004,-1.569946289,1,0,0,-6.831604004,-1.569946289,1,0,0,0,145,145,135,1,,,,,,,,
,,,,,,,,,,,,,FF,,,,,,,,0.7825,,,,,,,,,,,,,,,,,,,,,,60fcf1c57085de494d9f15c5,61036ec518eabf7ea66fd164,2021-07-30_13h16.09.359,Simcolourproject_2stim_asymm_v5,2020.2.10,MacIntel,60,61025ae37ef11b136ea224fe,,,,,,,,,261,-70.59838867,-28.31143188,1,0,0,response5disk,,2,-18.54119873,-0.686767578,1,0,0,rectangle,-18.54119873,-0.686767578,1,0,0,-18.54119873,-0.686767578,1,0,0,0,146,146,150,1,,,,,,,,
,,,,,,,,,,,,,FF,,,,,,,,2.3175,,,,,,,,,,,,,,,,,,,,,,60fcf1c57085de494d9f15c5,61036ec518eabf7ea66fd164,2021-07-30_13h16.09.359,Simcolourproject_2stim_asymm_v5,2020.2.10,MacIntel,60,61025ae37ef11b136ea224fe,,,,,,,,,382,-32.76275635,-73.0703125,1,0,0,response5disk,,3,-10.89825439,0.35144043,1,0,0,rectangle,-10.89825439,0.35144043,1,0,0,-10.89825439,0.35144043,1,0,0,0,147,147,96,1,,,,,,,,
,,,,,,,,,,,,,FF,,,,,,,,1.8665,,,,,,,,,,,,,,,,,,,,,,60fcf1c57085de494d9f15c5,61036ec518eabf7ea66fd164,2021-07-30_13h16.09.359,Simcolourproject_2stim_asymm_v5,2020.2.10,MacIntel,60,61025ae37ef11b136ea224fe,,,,,,,,,1877,88.70715332,-27.11727905,1,0,0,response3disk,,5,-5.350036621,-13.19921875,1,0,0,rectangle,-5.350036621,-13.19921875,1,0,0,-5.350036621,-13.19921875,1,0,0,0,148,148,13,1,,,,,,,,
,,,,,,,,,,,,,FF,,,,,,,,4.1839,,,,,,,,,,,,,,,,,,,,,,60fcf1c57085de494d9f15c5,61036ec518eabf7ea66fd164,2021-07-30_13h16.09.359,Simcolourproject_2stim_asymm_v5,2020.2.10,MacIntel,60,61025ae37ef11b136ea224fe,,,,,,,,,2819,30.90881348,-52.01589966,1,0,0,response3disk,,4,8.200439453,-5.526855469,1,0,0,rectangle,8.200439453,-5.526855469,1,0,0,8.200439453,-5.526855469,1,0,0,0,149,149,153,1,,,,,,,,
,,,,,,,,,,,,,FF,,,,,,,,5.0499,,,,,,,,,,,,,,,,,,,,,,60fcf1c57085de494d9f15c5,61036ec518eabf7ea66fd164,2021-07-30_13h16.09.359,Simcolourproject_2stim_asymm_v5,2020.2.10,MacIntel,60,61025ae37ef11b136ea224fe,,,,,,,,,2522,48.29766846,-56.88226318,1,0,0,response3disk,,4,19.1428833,-9.05255127,1,0,0,rectangle,19.1428833,-9.05255127,1,0,0,19.1428833,-9.05255127,1,0,0,0,150,150,112,1,,,,,,,,
,,,,,,,,,,,,,FF,,,,,,,,1.0989,,,,,,,,,,,,,,,,,,,,,,60fcf1c57085de494d9f15c5,61036ec518eabf7ea66fd164,2021-07-30_13h16.09.359,Simcolourproject_2stim_asymm_v5,2020.2.10,MacIntel,60,61025ae37ef11b136ea224fe,,,,,,,,,3598,-57.24157715,-26.83551025,1,0,0,response5disk,,2,-7.999328613,-14.71453857,1,0,0,rectangle,-7.999328613,-14.71453857,1,0,0,-7.999328613,-14.71453857,1,0,0,0,151,151,28,1,,,,,,,,
,,,,,,,,,,,,,FF,,,,,,,,2.7351,,,,,,,,,,,,,,,,,,,,,,60fcf1c57085de494d9f15c5,61036ec518eabf7ea66fd164,2021-07-30_13h16.09.359,Simcolourproject_2stim_asymm_v5,2020.2.10,MacIntel,60,61025ae37ef11b136ea224fe,,,,,,,,,2279,74.58197021,-35.13647461,1,0,0,response3disk,,5,6.182312012,-3.011077881,1,0,0,rectangle,6.182312012,-3.011077881,1,0,0,6.182312012,-3.011077881,1,0,0,0,152,152,22,1,,,,,,,,
,,,,,,,,,,,,,FF,,,,,,,,2.0155,,,,,,,,,,,,,,,,,,,,,,60fcf1c57085de494d9f15c5,61036ec518eabf7ea66fd164,2021-07-30_13h16.09.359,Simcolourproject_2stim_asymm_v5,2020.2.10,MacIntel,60,61025ae37ef11b136ea224fe,,,,,,,,,3181,-28.2355957,-58.36950684,1,0,0,response5disk,,3,-7.221374512,-11.64675903,1,0,0,rectangle,-7.221374512,-11.64675903,1,0,0,-7.221374512,-11.64675903,1,0,0,0,153,153,107,1,,,,,,,,
,,,,,,,,,,,,,FF,,,,,,,,0.7325,,,,,,,,,,,,,,,,,,,,,,60fcf1c57085de494d9f15c5,61036ec518eabf7ea66fd164,2021-07-30_13h16.09.359,Simcolourproject_2stim_asymm_v5,2020.2.10,MacIntel,60,61025ae37ef11b136ea224fe,,,,,,,,,1446,-78.21508789,-32.86444092,1,0,0,response5disk,,2,-22.82354736,-10.86425781,1,0,0,rectangle,-22.82354736,-10.86425781,1,0,0,-22.82354736,-10.86425781,1,0,0,0,154,154,130,1,,,,,,,,
,,,,,,,,,,,,,FF,,,,,,,,0.8325,,,,,,,,,,,,,,,,,,,,,,60fcf1c57085de494d9f15c5,61036ec518eabf7ea66fd164,2021-07-30_13h16.09.359,Simcolourproject_2stim_asymm_v5,2020.2.10,MacIntel,60,61025ae37ef11b136ea224fe,,,,,,,,,2950,-67.87976074,-26.29058838,1,0,0,response5disk,,2,-13.66156006,-4.506622314,1,0,0,rectangle,-13.66156006,-4.506622314,1,0,0,-13.66156006,-4.506622314,1,0,0,0,155,155,69,1,,,,,,,,
,,,,,,,,,,,,,FF,,,,,,,,1.2004,,,,,,,,,,,,,,,,,,,,,,60fcf1c57085de494d9f15c5,61036ec518eabf7ea66fd164,2021-07-30_13h16.09.359,Simcolourproject_2stim_asymm_v5,2020.2.10,MacIntel,60,61025ae37ef11b136ea224fe,,,,,,,,,1059,-34.78399658,-85.47296143,1,0,0,response5disk,,3,-3.734191895,-2.859436035,1,0,0,rectangle,-3.734191895,-2.859436035,1,0,0,-3.734191895,-2.859436035,1,0,0,0,156,156,83,1,,,,,,,,
,,,,,,,,,,,,,FF,,,,,,,,0.981,,,,,,,,,,,,,,,,,,,,,,60fcf1c57085de494d9f15c5,61036ec518eabf7ea66fd164,2021-07-30_13h16.09.359,Simcolourproject_2stim_asymm_v5,2020.2.10,MacIntel,60,61025ae37ef11b136ea224fe,,,,,,,,,1549,-41.67321777,-75.58361816,1,0,0,response5disk,,3,-9.913879395,-13.49661255,1,0,0,rectangle,-9.913879395,-13.49661255,1,0,0,-9.913879395,-13.49661255,1,0,0,0,157,157,10,1,,,,,,,,
,,,,,,,,,,,,,FF,,,,,,,,1.5996,,,,,,,,,,,,,,,,,,,,,,60fcf1c57085de494d9f15c5,61036ec518eabf7ea66fd164,2021-07-30_13h16.09.359,Simcolourproject_2stim_asymm_v5,2020.2.10,MacIntel,60,61025ae37ef11b136ea224fe,,,,,,,,,3976,87.09521484,-18.04797363,1,0,0,response3disk,,5,6.480102539,-4.016265869,1,0,0,rectangle,6.480102539,-4.016265869,1,0,0,6.480102539,-4.016265869,1,0,0,0,158,158,117,1,,,,,,,,
,,,,,,,,,,,,,FF,,,,,,,,1.8154,,,,,,,,,,,,,,,,,,,,,,60fcf1c57085de494d9f15c5,61036ec518eabf7ea66fd164,2021-07-30_13h16.09.359,Simcolourproject_2stim_asymm_v5,2020.2.10,MacIntel,60,61025ae37ef11b136ea224fe,,,,,,,,,825,-45.52612305,-72.86859131,1,0,0,response5disk,,3,1.165893555,7.617492676,1,0,0,rectangle,1.165893555,7.617492676,1,0,0,1.165893555,7.617492676,1,0,0,0,159,159,74,1,,,,,,,,
,,,,,,,,,,,,,FF,,,,,,,,0.9988,,,,,,,,,,,,,,,,,,,,,,60fcf1c57085de494d9f15c5,61036ec518eabf7ea66fd164,2021-07-30_13h16.09.359,Simcolourproject_2stim_asymm_v5,2020.2.10,MacIntel,60,61025ae37ef11b136ea224fe,,,,,,,,,198,-42.86541748,-67.98712158,1,0,0,response5disk,,3,-7.867126465,-9.853607178,1,0,0,rectangle,-7.867126465,-9.853607178,1,0,0,-7.867126465,-9.853607178,1,0,0,1,0,160,2,1,,,,,,,,
,,,,,,,,,,,,,FF,,,,,,,,1.2317,,,,,,,,,,,,,,,,,,,,,,60fcf1c57085de494d9f15c5,61036ec518eabf7ea66fd164,2021-07-30_13h16.09.359,Simcolourproject_2stim_asymm_v5,2020.2.10,MacIntel,60,61025ae37ef11b136ea224fe,,,,,,,,,2201,86.76043701,-49.21655273,1,0,0,response3disk,,5,5.774536133,1.802612305,1,0,0,rectangle,5.774536133,1.802612305,1,0,0,5.774536133,1.802612305,1,0,0,1,1,161,97,1,,,,,,,,
,,,,,,,,,,,,,FF,,,,,,,,0.9813,,,,,,,,,,,,,,,,,,,,,,60fcf1c57085de494d9f15c5,61036ec518eabf7ea66fd164,2021-07-30_13h16.09.359,Simcolourproject_2stim_asymm_v5,2020.2.10,MacIntel,60,61025ae37ef11b136ea224fe,,,,,,,,,3713,-71.67053223,-26.76535034,1,0,0,response5disk,,2,-17.84991455,3.84677124,1,0,0,rectangle,-17.84991455,3.84677124,1,0,0,-17.84991455,3.84677124,1,0,0,1,2,162,155,1,,,,,,,,
,,,,,,,,,,,,,FF,,,,,,,,1.5174,,,,,,,,,,,,,,,,,,,,,,60fcf1c57085de494d9f15c5,61036ec518eabf7ea66fd164,2021-07-30_13h16.09.359,Simcolourproject_2stim_asymm_v5,2020.2.10,MacIntel,60,61025ae37ef11b136ea224fe,,,,,,,,,3614,59.29693604,36.52801514,1,0,0,response1disk,,6,0.119628906,1.986083984,1,0,0,rectangle,0.119628906,1.986083984,1,0,0,0.119628906,1.986083984,1,0,0,1,3,163,137,1,,,,,,,,
,,,,,,,,,,,,,FF,,,,,,,,1.4998,,,,,,,,,,,,,,,,,,,,,,60fcf1c57085de494d9f15c5,61036ec518eabf7ea66fd164,2021-07-30_13h16.09.359,Simcolourproject_2stim_asymm_v5,2020.2.10,MacIntel,60,61025ae37ef11b136ea224fe,,,,,,,,,1773,-35.49261475,-72.30761719,1,0,0,response5disk,,3,-6.985290527,-12.50537109,1,0,0,rectangle,-6.985290527,-12.50537109,1,0,0,-6.985290527,-12.50537109,1,0,0,1,4,164,36,1,,,,,,,,
,,,,,,,,,,,,,FF,,,,,,,,1.1,,,,,,,,,,,,,,,,,,,,,,60fcf1c57085de494d9f15c5,61036ec518eabf7ea66fd164,2021-07-30_13h16.09.359,Simcolourproject_2stim_asymm_v5,2020.2.10,MacIntel,60,61025ae37ef11b136ea224fe,,,,,,,,,2257,40.15258789,-46.67285156,1,0,0,response3disk,,4,12.99359131,-0.258178711,1,0,0,rectangle,12.99359131,-0.258178711,1,0,0,12.99359131,-0.258178711,1,0,0,1,5,165,57,1,,,,,,,,
,,,,,,,,,,,,,FF,,,,,,,,1.2185,,,,,,,,,,,,,,,,,,,,,,60fcf1c57085de494d9f15c5,61036ec518eabf7ea66fd164,2021-07-30_13h16.09.359,Simcolourproject_2stim_asymm_v5,2020.2.10,MacIntel,60,61025ae37ef11b136ea224fe,,,,,,,,,3226,45.83288574,68.79922485,1,0,0,response1disk,,7,20.17730713,-0.585998535,1,0,0,rectangle,20.17730713,-0.585998535,1,0,0,20.17730713,-0.585998535,1,0,0,1,6,166,103,1,,,,,,,,
,,,,,,,,,,,,,FF,,,,,,,,0.7334,,,,,,,,,,,,,,,,,,,,,,60fcf1c57085de494d9f15c5,61036ec518eabf7ea66fd164,2021-07-30_13h16.09.359,Simcolourproject_2stim_asymm_v5,2020.2.10,MacIntel,60,61025ae37ef11b136ea224fe,,,,,,,,,2438,48.17633057,21.61471558,1,0,0,response1disk,,6,10.85076904,-11.95959473,1,0,0,rectangle,10.85076904,-11.95959473,1,0,0,10.85076904,-11.95959473,1,0,0,1,7,167,82,1,,,,,,,,
,,,,,,,,,,,,,FF,,,,,,,,1.4486,,,,,,,,,,,,,,,,,,,,,,60fcf1c57085de494d9f15c5,61036ec518eabf7ea66fd164,2021-07-30_13h16.09.359,Simcolourproject_2stim_asymm_v5,2020.2.10,MacIntel,60,61025ae37ef11b136ea224fe,,,,,,,,,2377,38.10467529,-53.98138428,1,0,0,response3disk,,4,-13.99993896,-10.09661865,1,0,0,rectangle,-13.99993896,-10.09661865,1,0,0,-13.99993896,-10.09661865,1,0,0,1,8,168,4,1,,,,,,,,
,,,,,,,,,,,,,FF,,,,,,,,1.5155,,,,,,,,,,,,,,,,,,,,,,60fcf1c57085de494d9f15c5,61036ec518eabf7ea66fd164,2021-07-30_13h16.09.359,Simcolourproject_2stim_asymm_v5,2020.2.10,MacIntel,60,61025ae37ef11b136ea224fe,,,,,,,,,1062,30.83496094,-74.53381348,1,0,0,response3disk,,4,-0.215393066,4.522369385,1,0,0,rectangle,-0.215393066,4.522369385,1,0,0,-0.215393066,4.522369385,1,0,0,1,9,169,141,1,,,,,,,,
,,,,,,,,,,,,,FF,,,,,,,,1.2376,,,,,,,,,,,,,,,,,,,,,,60fcf1c57085de494d9f15c5,61036ec518eabf7ea66fd164,2021-07-30_13h16.09.359,Simcolourproject_2stim_asymm_v5,2020.2.10,MacIntel,60,61025ae37ef11b136ea224fe,,,,,,,,,3104,-62.76861572,-36.08502197,1,0,0,response5disk,,2,17.44403076,1.932495117,1,0,0,rectangle,17.44403076,1.932495117,1,0,0,17.44403076,1.932495117,1,0,0,1,10,170,32,1,,,,,,,,
,,,,,,,,,,,,,FF,,,,,,,,1.8006,,,,,,,,,,,,,,,,,,,,,,60fcf1c57085de494d9f15c5,61036ec518eabf7ea66fd164,2021-07-30_13h16.09.359,Simcolourproject_2stim_asymm_v5,2020.2.10,MacIntel,60,61025ae37ef11b136ea224fe,,,,,,,,,2301,-33.03692627,-60.64886475,1,0,0,response5disk,,3,15.04052734,16.00799561,1,0,0,rectangle,15.04052734,16.00799561,1,0,0,15.04052734,16.00799561,1,0,0,1,11,171,108,1,,,,,,,,
,,,,,,,,,,,,,FF,,,,,,,,0.7992,,,,,,,,,,,,,,,,,,,,,,60fcf1c57085de494d9f15c5,61036ec518eabf7ea66fd164,2021-07-30_13h16.09.359,Simcolourproject_2stim_asymm_v5,2020.2.10,MacIntel,60,61025ae37ef11b136ea224fe,,,,,,,,,2813,66.77105713,-30.62188721,1,0,0,response3disk,,5,21.94042969,-1.361968994,1,0,0,rectangle,21.94042969,-1.361968994,1,0,0,21.94042969,-1.361968994,1,0,0,1,12,172,120,1,,,,,,,,
,,,,,,,,,,,,,FF,,,,,,,,1.9011,,,,,,,,,,,,,,,,,,,,,,60fcf1c57085de494d9f15c5,61036ec518eabf7ea66fd164,2021-07-30_13h16.09.359,Simcolourproject_2stim_asymm_v5,2020.2.10,MacIntel,60,61025ae37ef11b136ea224fe,,,,,,,,,3083,26.49938965,65.550354,1,0,0,response1disk,,7,13.52227783,14.1875,1,0,0,rectangle,13.52227783,14.1875,1,0,0,13.52227783,14.1875,1,0,0,1,13,173,59,1,,,,,,,,
,,,,,,,,,,,,,FF,,,,,,,,1.383,,,,,,,,,,,,,,,,,,,,,,60fcf1c57085de494d9f15c5,61036ec518eabf7ea66fd164,2021-07-30_13h16.09.359,Simcolourproject_2stim_asymm_v5,2020.2.10,MacIntel,60,61025ae37ef11b136ea224fe,,,,,,,,,769,-33.6975708,-55.63562012,1,0,0,response5disk,,3,2.81237793,7.072753906,1,0,0,rectangle,2.81237793,7.072753906,1,0,0,2.81237793,7.072753906,1,0,0,1,14,174,65,1,,,,,,,,
,,,,,,,,,,,,,FF,,,,,,,,1.632,,,,,,,,,,,,,,,,,,,,,,60fcf1c57085de494d9f15c5,61036ec518eabf7ea66fd164,2021-07-30_13h16.09.359,Simcolourproject_2stim_asymm_v5,2020.2.10,MacIntel,60,61025ae37ef11b136ea224fe,,,,,,,,,649,51.84564209,-31.89294434,1,0,0,response3disk,,5,23.7833252,-13.57284546,1,0,0,rectangle,23.7833252,-13.57284546,1,0,0,23.7833252,-13.57284546,1,0,0,1,15,175,60,1,,,,,,,,
,,,,,,,,,,,,,FF,,,,,,,,0.9497,,,,,,,,,,,,,,,,,,,,,,60fcf1c57085de494d9f15c5,61036ec518eabf7ea66fd164,2021-07-30_13h16.09.359,Simcolourproject_2stim_asymm_v5,2020.2.10,MacIntel,60,61025ae37ef11b136ea224fe,,,,,,,,,2740,-28.28033447,-45.64941406,1,0,0,response5disk,,3,3.178894043,-0.975585938,1,0,0,rectangle,3.178894043,-0.975585938,1,0,0,3.178894043,-0.975585938,1,0,0,1,16,176,156,1,,,,,,,,
,,,,,,,,,,,,,FF,,,,,,,,1.0673,,,,,,,,,,,,,,,,,,,,,,60fcf1c57085de494d9f15c5,61036ec518eabf7ea66fd164,2021-07-30_13h16.09.359,Simcolourproject_2stim_asymm_v5,2020.2.10,MacIntel,60,61025ae37ef11b136ea224fe,,,,,,,,,1919,81.3616333,39.59942627,1,0,0,response1disk,,6,31.33325195,4.07598877,1,0,0,rectangle,31.33325195,4.07598877,1,0,0,31.33325195,4.07598877,1,0,0,1,17,177,22,1,,,,,,,,
,,,,,,,,,,,,,FF,,,,,,,,2.4169,,,,,,,,,,,,,,,,,,,,,,60fcf1c57085de494d9f15c5,61036ec518eabf7ea66fd164,2021-07-30_13h16.09.359,Simcolourproject_2stim_asymm_v5,2020.2.10,MacIntel,60,61025ae37ef11b136ea224fe,,,,,,,,,2820,65.98852539,33.98898315,1,0,0,response1disk,,6,10.19622803,-1.327209473,1,0,0,rectangle,72.71411133,-28.79040527,1,0,0,6.506530762,-1.719207764,1,0,0,1,18,178,104,1,,response3disk_3,TRUE,5,5,"[179,78,238,5,215,72,260,192,28,58,289,256,281,211,254,20,319,251,280,82]",1.5561,rectangle
,,,,,,,,,,,,,FF,,,,,,,,1.0986,,,,,,,,,,,,,,,,,,,,,,60fcf1c57085de494d9f15c5,61036ec518eabf7ea66fd164,2021-07-30_13h16.09.359,Simcolourproject_2stim_asymm_v5,2020.2.10,MacIntel,60,61025ae37ef11b136ea224fe,,,,,,,,,3399,-19.73718262,-57.92416382,1,0,0,response5disk,,3,-7.525756836,-7.813323975,1,0,0,rectangle,-7.525756836,-7.813323975,1,0,0,-7.525756836,-7.813323975,1,0,0,1,19,179,135,1,,,,,,,,
,,,,,,,,,,,,,FF,,,,,,,,3.2847,,,,,,,,,,,,,,,,,,,,,,60fcf1c57085de494d9f15c5,61036ec518eabf7ea66fd164,2021-07-30_13h16.09.359,Simcolourproject_2stim_asymm_v5,2020.2.10,MacIntel,60,61025ae37ef11b136ea224fe,,,,,,,,,759,47.78393555,-26.7668457,1,0,0,response3disk,,5,25.14727783,-0.935791016,1,0,0,rectangle,25.14727783,-0.935791016,1,0,0,25.14727783,-0.935791016,1,0,0,1,20,180,67,1,,,,,,,,
,,,,,,,,,,,,,FF,,,,,,,,2.1816,,,,,,,,,,,,,,,,,,,,,,60fcf1c57085de494d9f15c5,61036ec518eabf7ea66fd164,2021-07-30_13h16.09.359,Simcolourproject_2stim_asymm_v5,2020.2.10,MacIntel,60,61025ae37ef11b136ea224fe,,,,,,,,,2807,29.3604126,66.11581421,1,0,0,response1disk,,7,9.898010254,-0.025085449,1,0,0,rectangle,9.898010254,-0.025085449,1,0,0,9.898010254,-0.025085449,1,0,0,1,21,181,21,1,,,,,,,,
,,,,,,,,,,,,,FF,,,,,,,,0.9486,,,,,,,,,,,,,,,,,,,,,,60fcf1c57085de494d9f15c5,61036ec518eabf7ea66fd164,2021-07-30_13h16.09.359,Simcolourproject_2stim_asymm_v5,2020.2.10,MacIntel,60,61025ae37ef11b136ea224fe,,,,,,,,,3327,28.65380859,65.99639893,1,0,0,response1disk,,7,15.47796631,1.518981934,1,0,0,rectangle,15.47796631,1.518981934,1,0,0,15.47796631,1.518981934,1,0,0,1,22,182,83,1,,,,,,,,
,,,,,,,,,,,,,FF,,,,,,,,1.2487,,,,,,,,,,,,,,,,,,,,,,60fcf1c57085de494d9f15c5,61036ec518eabf7ea66fd164,2021-07-30_13h16.09.359,Simcolourproject_2stim_asymm_v5,2020.2.10,MacIntel,60,61025ae37ef11b136ea224fe,,,,,,,,,2055,-35.73913574,-49.74645996,1,0,0,response5disk,,3,-15.31506348,-11.03387451,1,0,0,rectangle,-15.31506348,-11.03387451,1,0,0,-15.31506348,-11.03387451,1,0,0,1,23,183,16,1,,,,,,,,
,,,,,,,,,,,,,FF,,,,,,,,1.5487,,,,,,,,,,,,,,,,,,,,,,60fcf1c57085de494d9f15c5,61036ec518eabf7ea66fd164,2021-07-30_13h16.09.359,Simcolourproject_2stim_asymm_v5,2020.2.10,MacIntel,60,61025ae37ef11b136ea224fe,,,,,,,,,242,27.91601563,-60.59094238,1,0,0,response3disk,,4,10.05718994,-8.89050293,1,0,0,rectangle,10.05718994,-8.89050293,1,0,0,10.05718994,-8.89050293,1,0,0,1,24,184,77,1,,,,,,,,
,,,,,,,,,,,,,FF,,,,,,,,1.6169,,,,,,,,,,,,,,,,,,,,,,60fcf1c57085de494d9f15c5,61036ec518eabf7ea66fd164,2021-07-30_13h16.09.359,Simcolourproject_2stim_asymm_v5,2020.2.10,MacIntel,60,61025ae37ef11b136ea224fe,,,,,,,,,2457,85.63769531,-36.04312134,1,0,0,response3disk,,5,15.85693359,-6.682250977,1,0,0,rectangle,15.85693359,-6.682250977,1,0,0,15.85693359,-6.682250977,1,0,0,1,25,185,49,1,,,,,,,,
,,,,,,,,,,,,,FF,,,,,,,,0.8979,,,,,,,,,,,,,,,,,,,,,,60fcf1c57085de494d9f15c5,61036ec518eabf7ea66fd164,2021-07-30_13h16.09.359,Simcolourproject_2stim_asymm_v5,2020.2.10,MacIntel,60,61025ae37ef11b136ea224fe,,,,,,,,,3519,-23.89434814,-61.46295166,1,0,0,response5disk,,3,0.318603516,-10.44543457,1,0,0,rectangle,0.318603516,-10.44543457,1,0,0,0.318603516,-10.44543457,1,0,0,1,26,186,3,1,,,,,,,,
,,,,,,,,,,,,,FF,,,,,,,,1.8827,,,,,,,,,,,,,,,,,,,,,,60fcf1c57085de494d9f15c5,61036ec518eabf7ea66fd164,2021-07-30_13h16.09.359,Simcolourproject_2stim_asymm_v5,2020.2.10,MacIntel,60,61025ae37ef11b136ea224fe,,,,,,,,,2779,-78.42218018,37.91946411,1,0,0,response7disk,,1,15.5824585,1.517822266,1,0,0,rectangle,15.5824585,1.517822266,1,0,0,15.5824585,1.517822266,1,0,0,1,27,187,9,1,,,,,,,,
,,,,,,,,,,,,,FF,,,,,,,,1.117,,,,,,,,,,,,,,,,,,,,,,60fcf1c57085de494d9f15c5,61036ec518eabf7ea66fd164,2021-07-30_13h16.09.359,Simcolourproject_2stim_asymm_v5,2020.2.10,MacIntel,60,61025ae37ef11b136ea224fe,,,,,,,,,4247,-47.66204834,-64.95501709,1,0,0,response5disk,,3,31.18505859,2.053527832,1,0,0,rectangle,31.18505859,2.053527832,1,0,0,31.18505859,2.053527832,1,0,0,1,28,188,122,1,,,,,,,,
,,,,,,,,,,,,,FF,,,,,,,,1.1495,,,,,,,,,,,,,,,,,,,,,,60fcf1c57085de494d9f15c5,61036ec518eabf7ea66fd164,2021-07-30_13h16.09.359,Simcolourproject_2stim_asymm_v5,2020.2.10,MacIntel,60,61025ae37ef11b136ea224fe,,,,,,,,,686,54.80895996,-36.43048096,1,0,0,response3disk,,5,-5.641296387,1.881530762,1,0,0,rectangle,-5.641296387,1.881530762,1,0,0,-5.641296387,1.881530762,1,0,0,1,29,189,54,1,,,,,,,,
,,,,,,,,,,,,,FF,,,,,,,,1.6721,,,,,,,,,,,,,,,,,,,,,,60fcf1c57085de494d9f15c5,61036ec518eabf7ea66fd164,2021-07-30_13h16.09.359,Simcolourproject_2stim_asymm_v5,2020.2.10,MacIntel,60,61025ae37ef11b136ea224fe,,,,,,,,,2478,62.57385254,35.70089722,1,0,0,response1disk,,6,3.15435791,0.409545898,1,0,0,rectangle,3.15435791,0.409545898,1,0,0,3.15435791,0.409545898,1,0,0,1,30,190,84,1,,,,,,,,
,,,,,,,,,,,,,FF,,,,,,,,0.8837,,,,,,,,,,,,,,,,,,,,,,60fcf1c57085de494d9f15c5,61036ec518eabf7ea66fd164,2021-07-30_13h16.09.359,Simcolourproject_2stim_asymm_v5,2020.2.10,MacIntel,60,61025ae37ef11b136ea224fe,,,,,,,,,445,-58.92321777,32.45413208,1,0,0,response7disk,,1,4.979309082,-2.076538086,1,0,0,rectangle,-37.01501465,81.840271,1,0,0,-13.61761475,2.150177002,1,0,0,1,31,191,93,1,,response7disk_3,TRUE,0,0,"[179,78,238,5,215,72,260,192,28,58,289,256,281,211,254,20,319,251,280,82]",1.2986,rectangle
,,,,,,,,,,,,,FF,,,,,,,,1.0492,,,,,,,,,,,,,,,,,,,,,,60fcf1c57085de494d9f15c5,61036ec518eabf7ea66fd164,2021-07-30_13h16.09.359,Simcolourproject_2stim_asymm_v5,2020.2.10,MacIntel,60,61025ae37ef11b136ea224fe,,,,,,,,,1748,-60.64306641,-26.61727905,1,0,0,response5disk,,2,11.27038574,-8.041625977,1,0,0,rectangle,11.27038574,-8.041625977,1,0,0,11.27038574,-8.041625977,1,0,0,1,32,192,114,1,,,,,,,,
,,,,,,,,,,,,,FF,,,,,,,,1.1348,,,,,,,,,,,,,,,,,,,,,,60fcf1c57085de494d9f15c5,61036ec518eabf7ea66fd164,2021-07-30_13h16.09.359,Simcolourproject_2stim_asymm_v5,2020.2.10,MacIntel,60,61025ae37ef11b136ea224fe,,,,,,,,,723,-50.82427979,-26.75646973,1,0,0,response5disk,,2,-6.432128906,-10.1312561,1,0,0,rectangle,-6.432128906,-10.1312561,1,0,0,-6.432128906,-10.1312561,1,0,0,1,33,193,61,1,,,,,,,,
,,,,,,,,,,,,,FF,,,,,,,,1.1339,,,,,,,,,,,,,,,,,,,,,,60fcf1c57085de494d9f15c5,61036ec518eabf7ea66fd164,2021-07-30_13h16.09.359,Simcolourproject_2stim_asymm_v5,2020.2.10,MacIntel,60,61025ae37ef11b136ea224fe,,,,,,,,,3499,55.77697754,-37.69439697,1,0,0,response3disk,,5,5.298522949,0.095703125,1,0,0,rectangle,5.298522949,0.095703125,1,0,0,5.298522949,0.095703125,1,0,0,1,34,194,71,1,,,,,,,,
,,,,,,,,,,,,,FF,,,,,,,,1.0152,,,,,,,,,,,,,,,,,,,,,,60fcf1c57085de494d9f15c5,61036ec518eabf7ea66fd164,2021-07-30_13h16.09.359,Simcolourproject_2stim_asymm_v5,2020.2.10,MacIntel,60,61025ae37ef11b136ea224fe,,,,,,,,,1293,-70.2333374,-39.05368042,1,0,0,response5disk,,2,1.465148926,-10.05181885,1,0,0,rectangle,1.465148926,-10.05181885,1,0,0,1.465148926,-10.05181885,1,0,0,1,35,195,27,1,,,,,,,,
,,,,,,,,,,,,,FF,,,,,,,,0.9852,,,,,,,,,,,,,,,,,,,,,,60fcf1c57085de494d9f15c5,61036ec518eabf7ea66fd164,2021-07-30_13h16.09.359,Simcolourproject_2stim_asymm_v5,2020.2.10,MacIntel,60,61025ae37ef11b136ea224fe,,,,,,,,,152,26.69921875,-62.94287109,1,0,0,response3disk,,4,-4.10736084,7.573638916,1,0,0,rectangle,-4.10736084,7.573638916,1,0,0,-4.10736084,7.573638916,1,0,0,1,36,196,96,1,,,,,,,,
,,,,,,,,,,,,,FF,,,,,,,,1.3145,,,,,,,,,,,,,,,,,,,,,,60fcf1c57085de494d9f15c5,61036ec518eabf7ea66fd164,2021-07-30_13h16.09.359,Simcolourproject_2stim_asymm_v5,2020.2.10,MacIntel,60,61025ae37ef11b136ea224fe,,,,,,,,,3581,60.24847412,36.61566162,1,0,0,response1disk,,6,12.12799072,2.636535645,1,0,0,rectangle,12.12799072,2.636535645,1,0,0,12.12799072,2.636535645,1,0,0,1,37,197,130,1,,,,,,,,
,,,,,,,,,,,,,FF,,,,,,,,0.8998,,,,,,,,,,,,,,,,,,,,,,60fcf1c57085de494d9f15c5,61036ec518eabf7ea66fd164,2021-07-30_13h16.09.359,Simcolourproject_2stim_asymm_v5,2020.2.10,MacIntel,60,61025ae37ef11b136ea224fe,,,,,,,,,3815,-64.50042725,-31.53942871,1,0,0,response5disk,,2,1.306030273,10.33331299,1,0,0,rectangle,1.306030273,10.33331299,1,0,0,1.306030273,10.33331299,1,0,0,1,38,198,92,1,,,,,,,,
,,,,,,,,,,,,,FF,,,,,,,,0.9662,,,,,,,,,,,,,,,,,,,,,,60fcf1c57085de494d9f15c5,61036ec518eabf7ea66fd164,2021-07-30_13h16.09.359,Simcolourproject_2stim_asymm_v5,2020.2.10,MacIntel,60,61025ae37ef11b136ea224fe,,,,,,,,,4219,-42.3815918,-59.76156616,1,0,0,response5disk,,3,-2.106811523,-5.54498291,1,0,0,rectangle,-2.106811523,-5.54498291,1,0,0,-2.106811523,-5.54498291,1,0,0,1,39,199,51,1,,,,,,,,
,,,,,,,,,,,,,FF,,,,,,,,1.3825,,,,,,,,,,,,,,,,,,,,,,60fcf1c57085de494d9f15c5,61036ec518eabf7ea66fd164,2021-07-30_13h16.09.359,Simcolourproject_2stim_asymm_v5,2020.2.10,MacIntel,60,61025ae37ef11b136ea224fe,,,,,,,,,3365,42.73205566,90.5741272,1,0,0,response1disk,,7,15.5401001,1.904907227,1,0,0,rectangle,15.5401001,1.904907227,1,0,0,15.5401001,1.904907227,1,0,0,1,40,200,69,1,,,,,,,,
,,,,,,,,,,,,,FF,,,,,,,,1.2968,,,,,,,,,,,,,,,,,,,,,,60fcf1c57085de494d9f15c5,61036ec518eabf7ea66fd164,2021-07-30_13h16.09.359,Simcolourproject_2stim_asymm_v5,2020.2.10,MacIntel,60,61025ae37ef11b136ea224fe,,,,,,,,,872,29.15338135,-55.07925415,1,0,0,response3disk,,4,-5.484069824,-2.911621094,1,0,0,rectangle,-5.484069824,-2.911621094,1,0,0,-5.484069824,-2.911621094,1,0,0,1,41,201,81,1,,,,,,,,
,,,,,,,,,,,,,FF,,,,,,,,1.1668,,,,,,,,,,,,,,,,,,,,,,60fcf1c57085de494d9f15c5,61036ec518eabf7ea66fd164,2021-07-30_13h16.09.359,Simcolourproject_2stim_asymm_v5,2020.2.10,MacIntel,60,61025ae37ef11b136ea224fe,,,,,,,,,2357,-73.00073242,-40.03790283,1,0,0,response5disk,,2,-11.38757324,-2.482666016,1,0,0,rectangle,-11.38757324,-2.482666016,1,0,0,-11.38757324,-2.482666016,1,0,0,1,42,202,106,1,,,,,,,,
,,,,,,,,,,,,,FF,,,,,,,,1.3319,,,,,,,,,,,,,,,,,,,,,,60fcf1c57085de494d9f15c5,61036ec518eabf7ea66fd164,2021-07-30_13h16.09.359,Simcolourproject_2stim_asymm_v5,2020.2.10,MacIntel,60,61025ae37ef11b136ea224fe,,,,,,,,,204,-26.49249268,-70.70556641,1,0,0,response5disk,,3,-3.64666748,-8.878570557,1,0,0,rectangle,-3.64666748,-8.878570557,1,0,0,-3.64666748,-8.878570557,1,0,0,1,43,203,7,1,,,,,,,,
,,,,,,,,,,,,,FF,,,,,,,,0.773,,,,,,,,,,,,,,,,,,,,,,60fcf1c57085de494d9f15c5,61036ec518eabf7ea66fd164,2021-07-30_13h16.09.359,Simcolourproject_2stim_asymm_v5,2020.2.10,MacIntel,60,61025ae37ef11b136ea224fe,,,,,,,,,122,-46.25628662,-66.12121582,1,0,0,response5disk,,3,-11.42974854,-8.43963623,1,0,0,rectangle,-11.42974854,-8.43963623,1,0,0,-11.42974854,-8.43963623,1,0,0,1,44,204,33,1,,,,,,,,
,,,,,,,,,,,,,FF,,,,,,,,1.0656,,,,,,,,,,,,,,,,,,,,,,60fcf1c57085de494d9f15c5,61036ec518eabf7ea66fd164,2021-07-30_13h16.09.359,Simcolourproject_2stim_asymm_v5,2020.2.10,MacIntel,60,61025ae37ef11b136ea224fe,,,,,,,,,585,20.88183594,-55.30438232,1,0,0,response3disk,,4,4.582702637,-0.115844727,1,0,0,rectangle,4.582702637,-0.115844727,1,0,0,4.582702637,-0.115844727,1,0,0,1,45,205,95,1,,,,,,,,
,,,,,,,,,,,,,FF,,,,,,,,1.2315,,,,,,,,,,,,,,,,,,,,,,60fcf1c57085de494d9f15c5,61036ec518eabf7ea66fd164,2021-07-30_13h16.09.359,Simcolourproject_2stim_asymm_v5,2020.2.10,MacIntel,60,61025ae37ef11b136ea224fe,,,,,,,,,3655,47.4519043,72.67669678,1,0,0,response1disk,,7,8.356079102,-8.936859131,1,0,0,rectangle,8.356079102,-8.936859131,1,0,0,8.356079102,-8.936859131,1,0,0,1,46,206,73,1,,,,,,,,
,,,,,,,,,,,,,FF,,,,,,,,0.8985,,,,,,,,,,,,,,,,,,,,,,60fcf1c57085de494d9f15c5,61036ec518eabf7ea66fd164,2021-07-30_13h16.09.359,Simcolourproject_2stim_asymm_v5,2020.2.10,MacIntel,60,61025ae37ef11b136ea224fe,,,,,,,,,3431,-69.92810059,42.418396,1,0,0,response7disk,,1,-4.375061035,12.27081299,1,0,0,rectangle,-4.375061035,12.27081299,1,0,0,-4.375061035,12.27081299,1,0,0,1,47,207,159,1,,,,,,,,
,,,,,,,,,,,,,FF,,,,,,,,2.566,,,,,,,,,,,,,,,,,,,,,,60fcf1c57085de494d9f15c5,61036ec518eabf7ea66fd164,2021-07-30_13h16.09.359,Simcolourproject_2stim_asymm_v5,2020.2.10,MacIntel,60,61025ae37ef11b136ea224fe,,,,,,,,,937,72.51794434,-43.52062988,1,0,0,response3disk,,5,7.096130371,3.442260742,1,0,0,rectangle,7.096130371,3.442260742,1,0,0,7.096130371,3.442260742,1,0,0,1,48,208,17,1,,,,,,,,
,,,,,,,,,,,,,FF,,,,,,,,1.2314,,,,,,,,,,,,,,,,,,,,,,60fcf1c57085de494d9f15c5,61036ec518eabf7ea66fd164,2021-07-30_13h16.09.359,Simcolourproject_2stim_asymm_v5,2020.2.10,MacIntel,60,61025ae37ef11b136ea224fe,,,,,,,,,4197,68.48583984,30.85977173,1,0,0,response1disk,,6,14.40386963,11.25234985,1,0,0,rectangle,14.40386963,11.25234985,1,0,0,14.40386963,11.25234985,1,0,0,1,49,209,127,1,,,,,,,,
,,,,,,,,,,,,,FF,,,,,,,,1.7494,,,,,,,,,,,,,,,,,,,,,,60fcf1c57085de494d9f15c5,61036ec518eabf7ea66fd164,2021-07-30_13h16.09.359,Simcolourproject_2stim_asymm_v5,2020.2.10,MacIntel,60,61025ae37ef11b136ea224fe,,,,,,,,,1585,-32.62261963,-68.65673828,1,0,0,response5disk,,3,-22.2366333,-13.44128418,1,0,0,rectangle,-34.89770508,77.65560913,1,0,0,-18.02886963,6.444763184,1,0,0,1,50,210,94,1,,response7disk_3,TRUE,0,0,"[179,78,238,5,215,72,260,192,28,58,289,256,281,211,254,20,319,251,280,82]",1.1309,rectangle
,,,,,,,,,,,,,FF,,,,,,,,1.1991,,,,,,,,,,,,,,,,,,,,,,60fcf1c57085de494d9f15c5,61036ec518eabf7ea66fd164,2021-07-30_13h16.09.359,Simcolourproject_2stim_asymm_v5,2020.2.10,MacIntel,60,61025ae37ef11b136ea224fe,,,,,,,,,644,-77.54888916,-46.17218018,1,0,0,response5disk,,2,1.114196777,-2.506774902,1,0,0,rectangle,1.114196777,-2.506774902,1,0,0,1.114196777,-2.506774902,1,0,0,1,51,211,23,1,,,,,,,,
,,,,,,,,,,,,,FF,,,,,,,,1.2478,,,,,,,,,,,,,,,,,,,,,,60fcf1c57085de494d9f15c5,61036ec518eabf7ea66fd164,2021-07-30_13h16.09.359,Simcolourproject_2stim_asymm_v5,2020.2.10,MacIntel,60,61025ae37ef11b136ea224fe,,,,,,,,,577,28.04345703,-81.96276855,1,0,0,response3disk,,4,-5.184875488,-1.970916748,1,0,0,rectangle,-5.184875488,-1.970916748,1,0,0,-5.184875488,-1.970916748,1,0,0,1,52,212,55,1,,,,,,,,
,,,,,,,,,,,,,FF,,,,,,,,1.5001,,,,,,,,,,,,,,,,,,,,,,60fcf1c57085de494d9f15c5,61036ec518eabf7ea66fd164,2021-07-30_13h16.09.359,Simcolourproject_2stim_asymm_v5,2020.2.10,MacIntel,60,61025ae37ef11b136ea224fe,,,,,,,,,1121,-76.54400635,-30.58905029,1,0,0,response5disk,,2,-5.570617676,8.020141602,1,0,0,rectangle,-5.570617676,8.020141602,1,0,0,-5.570617676,8.020141602,1,0,0,1,53,213,20,1,,,,,,,,
,,,,,,,,,,,,,FF,,,,,,,,2.6483,,,,,,,,,,,,,,,,,,,,,,60fcf1c57085de494d9f15c5,61036ec518eabf7ea66fd164,2021-07-30_13h16.09.359,Simcolourproject_2stim_asymm_v5,2020.2.10,MacIntel,60,61025ae37ef11b136ea224fe,,,,,,,,,2322,-28.21936035,-46.1546936,1,0,0,response5disk,,3,-15.81530762,9.689758301,1,0,0,rectangle,83.01519775,34.43768311,1,0,0,0.752502441,-0.886383057,1,0,0,1,54,214,142,1,,response1disk_3,TRUE,6,6,"[179,78,238,5,215,72,260,192,28,58,289,256,281,211,254,20,319,251,280,82]",1.3817,rectangle
,,,,,,,,,,,,,FF,,,,,,,,0.8161,,,,,,,,,,,,,,,,,,,,,,60fcf1c57085de494d9f15c5,61036ec518eabf7ea66fd164,2021-07-30_13h16.09.359,Simcolourproject_2stim_asymm_v5,2020.2.10,MacIntel,60,61025ae37ef11b136ea224fe,,,,,,,,,3395,-75.87182617,-25.36834717,1,0,0,response5disk,,2,-11.00152588,7.61505127,1,0,0,rectangle,-11.00152588,7.61505127,1,0,0,-11.00152588,7.61505127,1,0,0,1,55,215,121,1,,,,,,,,
,,,,,,,,,,,,,FF,,,,,,,,2.3181,,,,,,,,,,,,,,,,,,,,,,60fcf1c57085de494d9f15c5,61036ec518eabf7ea66fd164,2021-07-30_13h16.09.359,Simcolourproject_2stim_asymm_v5,2020.2.10,MacIntel,60,61025ae37ef11b136ea224fe,,,,,,,,,1427,65.63433838,-33.66970825,1,0,0,response3disk,,5,0.305358887,8.210754395,1,0,0,rectangle,0.305358887,8.210754395,1,0,0,0.305358887,8.210754395,1,0,0,1,56,216,153,1,,,,,,,,
,,,,,,,,,,,,,FF,,,,,,,,1.1837,,,,,,,,,,,,,,,,,,,,,,60fcf1c57085de494d9f15c5,61036ec518eabf7ea66fd164,2021-07-30_13h16.09.359,Simcolourproject_2stim_asymm_v5,2020.2.10,MacIntel,60,61025ae37ef11b136ea224fe,,,,,,,,,2188,36.59387207,-58.73498535,1,0,0,response3disk,,4,4.448608398,-1.597015381,1,0,0,rectangle,4.448608398,-1.597015381,1,0,0,4.448608398,-1.597015381,1,0,0,1,57,217,64,1,,,,,,,,
,,,,,,,,,,,,,FF,,,,,,,,0.8482,,,,,,,,,,,,,,,,,,,,,,60fcf1c57085de494d9f15c5,61036ec518eabf7ea66fd164,2021-07-30_13h16.09.359,Simcolourproject_2stim_asymm_v5,2020.2.10,MacIntel,60,61025ae37ef11b136ea224fe,,,,,,,,,335,44.5713501,-65.64562988,1,0,0,response3disk,,4,9.256347656,-2.428619385,1,0,0,rectangle,9.256347656,-2.428619385,1,0,0,9.256347656,-2.428619385,1,0,0,1,58,218,118,1,,,,,,,,
,,,,,,,,,,,,,FF,,,,,,,,1.0821,,,,,,,,,,,,,,,,,,,,,,60fcf1c57085de494d9f15c5,61036ec518eabf7ea66fd164,2021-07-30_13h16.09.359,Simcolourproject_2stim_asymm_v5,2020.2.10,MacIntel,60,61025ae37ef11b136ea224fe,,,,,,,,,3501,23.32391357,68.36883545,1,0,0,response1disk,,7,6.847595215,5.989135742,1,0,0,rectangle,6.847595215,5.989135742,1,0,0,6.847595215,5.989135742,1,0,0,1,59,219,132,1,,,,,,,,
,,,,,,,,,,,,,FF,,,,,,,,1.2491,,,,,,,,,,,,,,,,,,,,,,60fcf1c57085de494d9f15c5,61036ec518eabf7ea66fd164,2021-07-30_13h16.09.359,Simcolourproject_2stim_asymm_v5,2020.2.10,MacIntel,60,61025ae37ef11b136ea224fe,,,,,,,,,1967,-106.5484619,-31.33575439,1,0,0,response5disk,,2,9.976013184,-4.928833008,1,0,0,rectangle,9.976013184,-4.928833008,1,0,0,9.976013184,-4.928833008,1,0,0,1,60,220,58,1,,,,,,,,
,,,,,,,,,,,,,FF,,,,,,,,0.8142,,,,,,,,,,,,,,,,,,,,,,60fcf1c57085de494d9f15c5,61036ec518eabf7ea66fd164,2021-07-30_13h16.09.359,Simcolourproject_2stim_asymm_v5,2020.2.10,MacIntel,60,61025ae37ef11b136ea224fe,,,,,,,,,1811,-64.26263428,-24.51971436,1,0,0,response5disk,,2,-5.742370605,0.864776611,1,0,0,rectangle,-5.742370605,0.864776611,1,0,0,-5.742370605,0.864776611,1,0,0,1,61,221,72,1,,,,,,,,
,,,,,,,,,,,,,FF,,,,,,,,0.9182,,,,,,,,,,,,,,,,,,,,,,60fcf1c57085de494d9f15c5,61036ec518eabf7ea66fd164,2021-07-30_13h16.09.359,Simcolourproject_2stim_asymm_v5,2020.2.10,MacIntel,60,61025ae37ef11b136ea224fe,,,,,,,,,111,26.00030518,-55.81738281,1,0,0,response3disk,,4,2.338317871,-9.377258301,1,0,0,rectangle,2.338317871,-9.377258301,1,0,0,2.338317871,-9.377258301,1,0,0,1,62,222,79,1,,,,,,,,
,,,,,,,,,,,,,FF,,,,,,,,0.916,,,,,,,,,,,,,,,,,,,,,,60fcf1c57085de494d9f15c5,61036ec518eabf7ea66fd164,2021-07-30_13h16.09.359,Simcolourproject_2stim_asymm_v5,2020.2.10,MacIntel,60,61025ae37ef11b136ea224fe,,,,,,,,,855,81.28430176,35.20123291,1,0,0,response1disk,,6,24.18994141,1.72668457,1,0,0,rectangle,24.18994141,1.72668457,1,0,0,24.18994141,1.72668457,1,0,0,1,63,223,48,1,,,,,,,,
,,,,,,,,,,,,,FF,,,,,,,,1.0985,,,,,,,,,,,,,,,,,,,,,,60fcf1c57085de494d9f15c5,61036ec518eabf7ea66fd164,2021-07-30_13h16.09.359,Simcolourproject_2stim_asymm_v5,2020.2.10,MacIntel,60,61025ae37ef11b136ea224fe,,,,,,,,,1770,-51.73999023,-74.30310059,1,0,0,response5disk,,3,0.855285645,-4.614685059,1,0,0,rectangle,0.855285645,-4.614685059,1,0,0,0.855285645,-4.614685059,1,0,0,1,64,224,157,1,,,,,,,,
,,,,,,,,,,,,,FF,,,,,,,,1.1339,,,,,,,,,,,,,,,,,,,,,,60fcf1c57085de494d9f15c5,61036ec518eabf7ea66fd164,2021-07-30_13h16.09.359,Simcolourproject_2stim_asymm_v5,2020.2.10,MacIntel,60,61025ae37ef11b136ea224fe,,,,,,,,,2091,70.52471924,35.20605469,1,0,0,response1disk,,6,5.305053711,-5.385498047,1,0,0,rectangle,5.305053711,-5.385498047,1,0,0,5.305053711,-5.385498047,1,0,0,1,65,225,66,1,,,,,,,,
,,,,,,,,,,,,,FF,,,,,,,,1.8336,,,,,,,,,,,,,,,,,,,,,,60fcf1c57085de494d9f15c5,61036ec518eabf7ea66fd164,2021-07-30_13h16.09.359,Simcolourproject_2stim_asymm_v5,2020.2.10,MacIntel,60,61025ae37ef11b136ea224fe,,,,,,,,,4065,84.96740723,29.50354004,1,0,0,response1disk,,6,20.31463623,-5.428710938,1,0,0,rectangle,20.31463623,-5.428710938,1,0,0,20.31463623,-5.428710938,1,0,0,1,66,226,10,1,,,,,,,,
,,,,,,,,,,,,,FF,,,,,,,,1.2662,,,,,,,,,,,,,,,,,,,,,,60fcf1c57085de494d9f15c5,61036ec518eabf7ea66fd164,2021-07-30_13h16.09.359,Simcolourproject_2stim_asymm_v5,2020.2.10,MacIntel,60,61025ae37ef11b136ea224fe,,,,,,,,,3497,75.75653076,34.01165771,1,0,0,response1disk,,6,10.04290771,-9.254302979,1,0,0,rectangle,10.04290771,-9.254302979,1,0,0,10.04290771,-9.254302979,1,0,0,1,67,227,139,1,,,,,,,,
,,,,,,,,,,,,,FF,,,,,,,,1.0177,,,,,,,,,,,,,,,,,,,,,,60fcf1c57085de494d9f15c5,61036ec518eabf7ea66fd164,2021-07-30_13h16.09.359,Simcolourproject_2stim_asymm_v5,2020.2.10,MacIntel,60,61025ae37ef11b136ea224fe,,,,,,,,,3998,-72.83068848,57.44525146,1,0,0,response7disk,,1,3.75402832,10.13845825,1,0,0,rectangle,3.75402832,10.13845825,1,0,0,3.75402832,10.13845825,1,0,0,1,68,228,146,1,,,,,,,,
,,,,,,,,,,,,,FF,,,,,,,,1.5168,,,,,,,,,,,,,,,,,,,,,,60fcf1c57085de494d9f15c5,61036ec518eabf7ea66fd164,2021-07-30_13h16.09.359,Simcolourproject_2stim_asymm_v5,2020.2.10,MacIntel,60,61025ae37ef11b136ea224fe,,,,,,,,,743,63.140625,33.92858887,1,0,0,response1disk,,6,9.878295898,16.09555054,1,0,0,rectangle,9.878295898,16.09555054,1,0,0,9.878295898,16.09555054,1,0,0,1,69,229,15,1,,,,,,,,
,,,,,,,,,,,,,FF,,,,,,,,1.266,,,,,,,,,,,,,,,,,,,,,,60fcf1c57085de494d9f15c5,61036ec518eabf7ea66fd164,2021-07-30_13h16.09.359,Simcolourproject_2stim_asymm_v5,2020.2.10,MacIntel,60,61025ae37ef11b136ea224fe,,,,,,,,,89,-32.00506592,-58.24353027,1,0,0,response5disk,,3,0.655822754,4.558685303,1,0,0,rectangle,0.655822754,4.558685303,1,0,0,0.655822754,4.558685303,1,0,0,1,70,230,148,1,,,,,,,,
,,,,,,,,,,,,,FF,,,,,,,,1.1319,,,,,,,,,,,,,,,,,,,,,,60fcf1c57085de494d9f15c5,61036ec518eabf7ea66fd164,2021-07-30_13h16.09.359,Simcolourproject_2stim_asymm_v5,2020.2.10,MacIntel,60,61025ae37ef11b136ea224fe,,,,,,,,,2089,44.44885254,-61.58309937,1,0,0,response3disk,,4,17.01843262,0.536102295,1,0,0,rectangle,17.01843262,0.536102295,1,0,0,17.01843262,0.536102295,1,0,0,1,71,231,74,1,,,,,,,,
,,,,,,,,,,,,,FF,,,,,,,,0.8167,,,,,,,,,,,,,,,,,,,,,,60fcf1c57085de494d9f15c5,61036ec518eabf7ea66fd164,2021-07-30_13h16.09.359,Simcolourproject_2stim_asymm_v5,2020.2.10,MacIntel,60,61025ae37ef11b136ea224fe,,,,,,,,,3812,-71.31048584,-33.5614624,1,0,0,response5disk,,2,-12.32366943,-3.842834473,1,0,0,rectangle,-12.32366943,-3.842834473,1,0,0,-12.32366943,-3.842834473,1,0,0,1,72,232,0,1,,,,,,,,
,,,,,,,,,,,,,FF,,,,,,,,1.2838,,,,,,,,,,,,,,,,,,,,,,60fcf1c57085de494d9f15c5,61036ec518eabf7ea66fd164,2021-07-30_13h16.09.359,Simcolourproject_2stim_asymm_v5,2020.2.10,MacIntel,60,61025ae37ef11b136ea224fe,,,,,,,,,1173,72.83575439,27.3324585,1,0,0,response1disk,,6,16.01342773,-2.472595215,1,0,0,rectangle,16.01342773,-2.472595215,1,0,0,16.01342773,-2.472595215,1,0,0,1,73,233,37,1,,,,,,,,
,,,,,,,,,,,,,FF,,,,,,,,1.0832,,,,,,,,,,,,,,,,,,,,,,60fcf1c57085de494d9f15c5,61036ec518eabf7ea66fd164,2021-07-30_13h16.09.359,Simcolourproject_2stim_asymm_v5,2020.2.10,MacIntel,60,61025ae37ef11b136ea224fe,,,,,,,,,3874,31.6854248,56.94342041,1,0,0,response1disk,,7,15.54833984,13.078125,1,0,0,rectangle,15.54833984,13.078125,1,0,0,15.54833984,13.078125,1,0,0,1,74,234,24,1,,,,,,,,
,,,,,,,,,,,,,FF,,,,,,,,2.5499,,,,,,,,,,,,,,,,,,,,,,60fcf1c57085de494d9f15c5,61036ec518eabf7ea66fd164,2021-07-30_13h16.09.359,Simcolourproject_2stim_asymm_v5,2020.2.10,MacIntel,60,61025ae37ef11b136ea224fe,,,,,,,,,1258,45.8092041,-83.41784668,1,0,0,response3disk,,4,2.244812012,3.852355957,1,0,0,rectangle,2.244812012,3.852355957,1,0,0,2.244812012,3.852355957,1,0,0,1,75,235,90,1,,,,,,,,
,,,,,,,,,,,,,FF,,,,,,,,0.8661,,,,,,,,,,,,,,,,,,,,,,60fcf1c57085de494d9f15c5,61036ec518eabf7ea66fd164,2021-07-30_13h16.09.359,Simcolourproject_2stim_asymm_v5,2020.2.10,MacIntel,60,61025ae37ef11b136ea224fe,,,,,,,,,1806,36.34533691,80.53665161,1,0,0,response1disk,,7,4.230712891,6.379089355,1,0,0,rectangle,4.230712891,6.379089355,1,0,0,4.230712891,6.379089355,1,0,0,1,76,236,30,1,,,,,,,,
,,,,,,,,,,,,,FF,,,,,,,,1.2989,,,,,,,,,,,,,,,,,,,,,,60fcf1c57085de494d9f15c5,61036ec518eabf7ea66fd164,2021-07-30_13h16.09.359,Simcolourproject_2stim_asymm_v5,2020.2.10,MacIntel,60,61025ae37ef11b136ea224fe,,,,,,,,,789,-31.29290771,-56.21478271,1,0,0,response5disk,,3,-3.528320313,2.126281738,1,0,0,rectangle,33.1829834,-76.1663208,1,0,0,0.01965332,2.642700195,1,0,0,1,77,237,128,1,,response3disk_3,TRUE,4,4,"[179,78,238,5,215,72,260,192,28,58,289,256,281,211,254,20,319,251,280,82]",1.815,rectangle
,,,,,,,,,,,,,FF,,,,,,,,0.95,,,,,,,,,,,,,,,,,,,,,,60fcf1c57085de494d9f15c5,61036ec518eabf7ea66fd164,2021-07-30_13h16.09.359,Simcolourproject_2stim_asymm_v5,2020.2.10,MacIntel,60,61025ae37ef11b136ea224fe,,,,,,,,,3552,-69.09820557,34.84771729,1,0,0,response7disk,,1,-12.85577393,5.845214844,1,0,0,rectangle,-12.85577393,5.845214844,1,0,0,-12.85577393,5.845214844,1,0,0,1,78,238,154,1,,,,,,,,
,,,,,,,,,,,,,FF,,,,,,,,1.149,,,,,,,,,,,,,,,,,,,,,,60fcf1c57085de494d9f15c5,61036ec518eabf7ea66fd164,2021-07-30_13h16.09.359,Simcolourproject_2stim_asymm_v5,2020.2.10,MacIntel,60,61025ae37ef11b136ea224fe,,,,,,,,,1842,-40.49700928,-69.49255371,1,0,0,response5disk,,3,-4.233642578,5.44342041,1,0,0,rectangle,-4.233642578,5.44342041,1,0,0,-4.233642578,5.44342041,1,0,0,1,79,239,45,1,,,,,,,,
,,,,,,,,,,,,,FF,,,,,,,,1.0165,,,,,,,,,,,,,,,,,,,,,,60fcf1c57085de494d9f15c5,61036ec518eabf7ea66fd164,2021-07-30_13h16.09.359,Simcolourproject_2stim_asymm_v5,2020.2.10,MacIntel,60,61025ae37ef11b136ea224fe,,,,,,,,,3382,-67.24853516,-30.50991821,1,0,0,response5disk,,2,-10.97564697,0.779174805,1,0,0,rectangle,-10.97564697,0.779174805,1,0,0,-10.97564697,0.779174805,1,0,0,1,80,240,47,1,,,,,,,,
,,,,,,,,,,,,,FF,,,,,,,,0.7194,,,,,,,,,,,,,,,,,,,,,,60fcf1c57085de494d9f15c5,61036ec518eabf7ea66fd164,2021-07-30_13h16.09.359,Simcolourproject_2stim_asymm_v5,2020.2.10,MacIntel,60,61025ae37ef11b136ea224fe,,,,,,,,,1136,-62.34246826,-32.947052,1,0,0,response5disk,,2,-4.554199219,-12.04867554,1,0,0,rectangle,-4.554199219,-12.04867554,1,0,0,-4.554199219,-12.04867554,1,0,0,1,81,241,113,1,,,,,,,,
