key_resp.keys,key_resp.rt,key_resp_14.keys,key_resp_14.rt,key_resp_15.keys,key_resp_15.rt,key_resp_17.keys,key_resp_17.rt,key_resp_9.keys,key_resp_9.rt,key_resp_10.keys,key_resp_10.rt,practice_comparison,Ecc,mouse_5.x,mouse_5.y,mouse_5.leftButton,mouse_5.midButton,mouse_5.rightButton,mouse_5.clicked_name,pracsimilarity,response_time,mouse_10.x,mouse_10.y,mouse_10.leftButton,mouse_10.midButton,mouse_10.rightButton,mouse_10.clicked_name,mouse_7.x,mouse_7.y,mouse_7.leftButton,mouse_7.midButton,mouse_7.rightButton,mouse_6.x,mouse_6.y,mouse_6.leftButton,mouse_6.midButton,mouse_6.rightButton,duringprac.thisRepN,duringprac.thisTrialN,duringprac.thisN,duringprac.thisIndex,duringprac.ran,participant,session,date,expName,psychopyVersion,OS,frameRate,study_id,mouse_7.clicked_name,catchpracsimilarity,catch_response_time,catchnumberprac,catchtrialorderprac,mouse_6.clicked_name,key_resp_22.keys,key_resp_22.rt,realcomparison,mouse.x,mouse.y,mouse.leftButton,mouse.midButton,mouse.rightButton,mouse.clicked_name,Colour2,similarity,mouse_2.x,mouse_2.y,mouse_2.leftButton,mouse_2.midButton,mouse_2.rightButton,mouse_2.clicked_name,mouse_3.x,mouse_3.y,mouse_3.leftButton,mouse_3.midButton,mouse_3.rightButton,mouse_11.x,mouse_11.y,mouse_11.leftButton,mouse_11.midButton,mouse_11.rightButton,trials_2.thisRepN,trials_2.thisTrialN,trials_2.thisN,trials_2.thisIndex,trials_2.ran,Colour1,mouse_3.clicked_name,catchornah,catchsimilarity,catchnumber,catchtrialorder,catchRT,mouse_11.clicked_name
space,1.3306,space,12.7256,space,42.7267,space,14.9666,space,3.2926,space,7.7464,81,PF,-33.54296875,66.8515625,1,0,0,response7disk_5,0,8.2361,-2.2890625,-2.19140625,1,0,0,rectangle_8,-2.2890625,-2.19140625,1,0,0,-2.2890625,-2.19140625,1,0,0,0,0,0,4,1,60fce1afd66e85b2f0cc4e68,61036cfe377eb09d6274ba28,2021-07-29_23h08.18.578,Simcolourproject_2stim_asymm_v5,2020.2.10,MacIntel,60,61025ae37ef11b136ea224fe,,,,,,,,,,,,,,,,,,,,,,,,,,,,,,,,,,,,,,,,,,,,,,
,,,,,,,,,,,,102,FF,42.04296875,-85.55078125,1,0,0,response3disk_5,4,10.0339,6.26171875,1.19921875,1,0,0,rectangle_8,-30.3828125,76.4765625,1,0,0,5.6953125,-1.171875,1,0,0,0,1,1,5,1,60fce1afd66e85b2f0cc4e68,61036cfe377eb09d6274ba28,2021-07-29_23h08.18.578,Simcolourproject_2stim_asymm_v5,2020.2.10,MacIntel,60,61025ae37ef11b136ea224fe,response7disk_7,0,3.4846,0,"[2,5]",rectangle_4,,,,,,,,,,,,,,,,,,,,,,,,,,,,,,,,,,,,,,,,
,,,,,,,,,,,,84,PF,-64.20703125,26.8125,1,0,0,response7disk_5,1,2.7335,11.79296875,-4.74609375,1,0,0,rectangle_8,11.79296875,-4.74609375,1,0,0,11.79296875,-4.74609375,1,0,0,0,2,2,6,1,60fce1afd66e85b2f0cc4e68,61036cfe377eb09d6274ba28,2021-07-29_23h08.18.578,Simcolourproject_2stim_asymm_v5,2020.2.10,MacIntel,60,61025ae37ef11b136ea224fe,,,,,,,,,,,,,,,,,,,,,,,,,,,,,,,,,,,,,,,,,,,,,,
,,,,,,,,,,,,102,FF,70.85546875,-35.359375,1,0,0,response3disk_5,5,1.7164,18.04296875,5.96875,1,0,0,rectangle_8,18.04296875,5.96875,1,0,0,18.04296875,5.96875,1,0,0,0,3,3,3,1,60fce1afd66e85b2f0cc4e68,61036cfe377eb09d6274ba28,2021-07-29_23h08.18.578,Simcolourproject_2stim_asymm_v5,2020.2.10,MacIntel,60,61025ae37ef11b136ea224fe,,,,,,,,,,,,,,,,,,,,,,,,,,,,,,,,,,,,,,,,,,,,,,
,,,,,,,,,,,,144,PF,-40.8515625,-71.74609375,1,0,0,response5disk_5,3,1.4487,1.45703125,-8.734375,1,0,0,rectangle_8,-33.54296875,90.4609375,1,0,0,-20.35546875,6.02734375,1,0,0,0,4,4,2,1,60fce1afd66e85b2f0cc4e68,61036cfe377eb09d6274ba28,2021-07-29_23h08.18.578,Simcolourproject_2stim_asymm_v5,2020.2.10,MacIntel,60,61025ae37ef11b136ea224fe,response7disk_7,0,2.6159,0,"[2,5]",rectangle_4,,,,,,,,,,,,,,,,,,,,,,,,,,,,,,,,,,,,,,,,
,,,,,,,,,,,,133,PF,-65.34765625,-33.28515625,1,0,0,response5disk_5,2,1.4995,-3.90625,-9.84375,1,0,0,rectangle_8,-3.90625,-9.84375,1,0,0,-3.90625,-9.84375,1,0,0,0,5,5,1,1,60fce1afd66e85b2f0cc4e68,61036cfe377eb09d6274ba28,2021-07-29_23h08.18.578,Simcolourproject_2stim_asymm_v5,2020.2.10,MacIntel,60,61025ae37ef11b136ea224fe,,,,,,,,,,,,,,,,,,,,,,,,,,,,,,,,,,,,,,,,,,,,,,
,,,,,,,,,,,,124,FF,-54.328125,-31.77734375,1,0,0,response5disk_5,2,1.8148,-8.875,-9.88671875,1,0,0,rectangle_8,-8.875,-9.88671875,1,0,0,-8.875,-9.88671875,1,0,0,0,6,6,0,1,60fce1afd66e85b2f0cc4e68,61036cfe377eb09d6274ba28,2021-07-29_23h08.18.578,Simcolourproject_2stim_asymm_v5,2020.2.10,MacIntel,60,61025ae37ef11b136ea224fe,,,,,,,,,,,,,,,,,,,,,,,,,,,,,,,,,,,,,,,,,,,,,,
,,,,,,,,,,,,,FF,,,,,,,,1.8658,,,,,,,,,,,,,,,,,,,,,,60fce1afd66e85b2f0cc4e68,61036cfe377eb09d6274ba28,2021-07-29_23h08.18.578,Simcolourproject_2stim_asymm_v5,2020.2.10,MacIntel,60,61025ae37ef11b136ea224fe,,,,,,,space,3.194,2316,69.2890625,-42.578125,1,0,0,response3disk,,5,14.23046875,-11.21484375,1,0,0,rectangle,14.23046875,-11.21484375,1,0,0,14.23046875,-11.21484375,1,0,0,0,0,0,128,1,,,,,,,,
,,,,,,,,,,,,,FF,,,,,,,,1.4664,,,,,,,,,,,,,,,,,,,,,,60fce1afd66e85b2f0cc4e68,61036cfe377eb09d6274ba28,2021-07-29_23h08.18.578,Simcolourproject_2stim_asymm_v5,2020.2.10,MacIntel,60,61025ae37ef11b136ea224fe,,,,,,,,,3789,40.8515625,-90.7734375,1,0,0,response3disk,,4,18.7109375,-0.62109375,1,0,0,rectangle,-68.5,-44.73828125,1,0,0,-11.33203125,-9.06640625,1,0,0,0,1,1,22,1,,response5disk_3,TRUE,2,2,"[63,178,164,59,12,2,90,283,57,56,316,58,48,86,311,163,93,138,212,42]",2.4961,rectangle
,,,,,,,,,,,,,FF,,,,,,,,1.8165,,,,,,,,,,,,,,,,,,,,,,60fce1afd66e85b2f0cc4e68,61036cfe377eb09d6274ba28,2021-07-29_23h08.18.578,Simcolourproject_2stim_asymm_v5,2020.2.10,MacIntel,60,61025ae37ef11b136ea224fe,,,,,,,,,239,63.18359375,-29.41796875,1,0,0,response3disk,,5,17.375,-6.4296875,1,0,0,rectangle,17.375,-6.4296875,1,0,0,17.375,-6.4296875,1,0,0,0,2,2,86,1,,,,,,,,
,,,,,,,,,,,,,FF,,,,,,,,2.1341,,,,,,,,,,,,,,,,,,,,,,60fce1afd66e85b2f0cc4e68,61036cfe377eb09d6274ba28,2021-07-29_23h08.18.578,Simcolourproject_2stim_asymm_v5,2020.2.10,MacIntel,60,61025ae37ef11b136ea224fe,,,,,,,,,2054,75.72265625,-46.6171875,1,0,0,response3disk,,5,13.21875,-10.53515625,1,0,0,rectangle,13.21875,-10.53515625,1,0,0,13.21875,-10.53515625,1,0,0,0,3,3,58,1,,,,,,,,
,,,,,,,,,,,,,FF,,,,,,,,1.3655,,,,,,,,,,,,,,,,,,,,,,60fce1afd66e85b2f0cc4e68,61036cfe377eb09d6274ba28,2021-07-29_23h08.18.578,Simcolourproject_2stim_asymm_v5,2020.2.10,MacIntel,60,61025ae37ef11b136ea224fe,,,,,,,,,3795,72.94140625,38.921875,1,0,0,response1disk,,6,30.9140625,14.12109375,1,0,0,rectangle,30.9140625,14.12109375,1,0,0,30.9140625,14.12109375,1,0,0,0,4,4,94,1,,,,,,,,
,,,,,,,,,,,,,FF,,,,,,,,2.2831,,,,,,,,,,,,,,,,,,,,,,60fce1afd66e85b2f0cc4e68,61036cfe377eb09d6274ba28,2021-07-29_23h08.18.578,Simcolourproject_2stim_asymm_v5,2020.2.10,MacIntel,60,61025ae37ef11b136ea224fe,,,,,,,,,3621,33.8828125,-72.09765625,1,0,0,response3disk,,4,18.30859375,-15.73828125,1,0,0,rectangle,18.30859375,-15.73828125,1,0,0,18.30859375,-15.73828125,1,0,0,0,5,5,47,1,,,,,,,,
,,,,,,,,,,,,,FF,,,,,,,,1.2006,,,,,,,,,,,,,,,,,,,,,,60fce1afd66e85b2f0cc4e68,61036cfe377eb09d6274ba28,2021-07-29_23h08.18.578,Simcolourproject_2stim_asymm_v5,2020.2.10,MacIntel,60,61025ae37ef11b136ea224fe,,,,,,,,,76,-23.44921875,-81.5390625,1,0,0,response5disk,,3,-10.609375,4.61328125,1,0,0,rectangle,-10.609375,4.61328125,1,0,0,-10.609375,4.61328125,1,0,0,0,6,6,103,1,,,,,,,,
,,,,,,,,,,,,,FF,,,,,,,,1.2332,,,,,,,,,,,,,,,,,,,,,,60fce1afd66e85b2f0cc4e68,61036cfe377eb09d6274ba28,2021-07-29_23h08.18.578,Simcolourproject_2stim_asymm_v5,2020.2.10,MacIntel,60,61025ae37ef11b136ea224fe,,,,,,,,,1604,-61.35546875,26.48828125,1,0,0,response7disk,,1,-2.4921875,-0.6796875,1,0,0,rectangle,-2.4921875,-0.6796875,1,0,0,-2.4921875,-0.6796875,1,0,0,0,7,7,32,1,,,,,,,,
,,,,,,,,,,,,,FF,,,,,,,,3.3665,,,,,,,,,,,,,,,,,,,,,,60fce1afd66e85b2f0cc4e68,61036cfe377eb09d6274ba28,2021-07-29_23h08.18.578,Simcolourproject_2stim_asymm_v5,2020.2.10,MacIntel,60,61025ae37ef11b136ea224fe,,,,,,,,,2315,66.3046875,-36.21484375,1,0,0,response3disk,,5,4.7265625,-5.87890625,1,0,0,rectangle,4.7265625,-5.87890625,1,0,0,4.7265625,-5.87890625,1,0,0,0,8,8,82,1,,,,,,,,
,,,,,,,,,,,,,FF,,,,,,,,1.7164,,,,,,,,,,,,,,,,,,,,,,60fce1afd66e85b2f0cc4e68,61036cfe377eb09d6274ba28,2021-07-29_23h08.18.578,Simcolourproject_2stim_asymm_v5,2020.2.10,MacIntel,60,61025ae37ef11b136ea224fe,,,,,,,,,2831,-72.11328125,31.51171875,1,0,0,response7disk,,1,9.19921875,-0.8125,1,0,0,rectangle,9.19921875,-0.8125,1,0,0,9.19921875,-0.8125,1,0,0,0,9,9,64,1,,,,,,,,
,,,,,,,,,,,,,FF,,,,,,,,1.0502,,,,,,,,,,,,,,,,,,,,,,60fce1afd66e85b2f0cc4e68,61036cfe377eb09d6274ba28,2021-07-29_23h08.18.578,Simcolourproject_2stim_asymm_v5,2020.2.10,MacIntel,60,61025ae37ef11b136ea224fe,,,,,,,,,2902,-43.4921875,-25.53515625,1,0,0,response5disk,,2,3.63671875,-1.84765625,1,0,0,rectangle,3.63671875,-1.84765625,1,0,0,3.63671875,-1.84765625,1,0,0,0,10,10,105,1,,,,,,,,
,,,,,,,,,,,,,FF,,,,,,,,1.3329,,,,,,,,,,,,,,,,,,,,,,60fce1afd66e85b2f0cc4e68,61036cfe377eb09d6274ba28,2021-07-29_23h08.18.578,Simcolourproject_2stim_asymm_v5,2020.2.10,MacIntel,60,61025ae37ef11b136ea224fe,,,,,,,,,780,75.95703125,-42.40234375,1,0,0,response3disk,,5,6.63671875,-6.09765625,1,0,0,rectangle,-71.234375,-38.46484375,1,0,0,2.609375,-1.984375,1,0,0,0,11,11,15,1,,response5disk_3,TRUE,2,2,"[63,178,164,59,12,2,90,283,57,56,316,58,48,86,311,163,93,138,212,42]",2.1506,rectangle
,,,,,,,,,,,,,FF,,,,,,,,0.998,,,,,,,,,,,,,,,,,,,,,,60fce1afd66e85b2f0cc4e68,61036cfe377eb09d6274ba28,2021-07-29_23h08.18.578,Simcolourproject_2stim_asymm_v5,2020.2.10,MacIntel,60,61025ae37ef11b136ea224fe,,,,,,,,,1674,-74.0078125,-28.953125,1,0,0,response5disk,,2,-11.44140625,-6.44921875,1,0,0,rectangle,-11.44140625,-6.44921875,1,0,0,-11.44140625,-6.44921875,1,0,0,0,12,12,110,1,,,,,,,,
,,,,,,,,,,,,,FF,,,,,,,,1.5496,,,,,,,,,,,,,,,,,,,,,,60fce1afd66e85b2f0cc4e68,61036cfe377eb09d6274ba28,2021-07-29_23h08.18.578,Simcolourproject_2stim_asymm_v5,2020.2.10,MacIntel,60,61025ae37ef11b136ea224fe,,,,,,,,,3827,24.55859375,-66.625,1,0,0,response3disk,,4,4.21484375,-12.53515625,1,0,0,rectangle,4.21484375,-12.53515625,1,0,0,4.21484375,-12.53515625,1,0,0,0,13,13,107,1,,,,,,,,
,,,,,,,,,,,,,FF,,,,,,,,1.3003,,,,,,,,,,,,,,,,,,,,,,60fce1afd66e85b2f0cc4e68,61036cfe377eb09d6274ba28,2021-07-29_23h08.18.578,Simcolourproject_2stim_asymm_v5,2020.2.10,MacIntel,60,61025ae37ef11b136ea224fe,,,,,,,,,204,67.859375,-32.01171875,1,0,0,response3disk,,5,25.10546875,-9.56640625,1,0,0,rectangle,25.10546875,-9.56640625,1,0,0,25.10546875,-9.56640625,1,0,0,0,14,14,2,1,,,,,,,,
,,,,,,,,,,,,,FF,,,,,,,,1.2661,,,,,,,,,,,,,,,,,,,,,,60fce1afd66e85b2f0cc4e68,61036cfe377eb09d6274ba28,2021-07-29_23h08.18.578,Simcolourproject_2stim_asymm_v5,2020.2.10,MacIntel,60,61025ae37ef11b136ea224fe,,,,,,,,,3861,84.59765625,-28.265625,1,0,0,response3disk,,5,20.4453125,1.89453125,1,0,0,rectangle,20.4453125,1.89453125,1,0,0,20.4453125,1.89453125,1,0,0,0,15,15,28,1,,,,,,,,
,,,,,,,,,,,,,FF,,,,,,,,1.2142,,,,,,,,,,,,,,,,,,,,,,60fce1afd66e85b2f0cc4e68,61036cfe377eb09d6274ba28,2021-07-29_23h08.18.578,Simcolourproject_2stim_asymm_v5,2020.2.10,MacIntel,60,61025ae37ef11b136ea224fe,,,,,,,,,3767,33.49609375,64.68359375,1,0,0,response1disk,,7,23.87109375,2.66015625,1,0,0,rectangle,23.87109375,2.66015625,1,0,0,23.87109375,2.66015625,1,0,0,0,16,16,133,1,,,,,,,,
,,,,,,,,,,,,,FF,,,,,,,,1.1002,,,,,,,,,,,,,,,,,,,,,,60fce1afd66e85b2f0cc4e68,61036cfe377eb09d6274ba28,2021-07-29_23h08.18.578,Simcolourproject_2stim_asymm_v5,2020.2.10,MacIntel,60,61025ae37ef11b136ea224fe,,,,,,,,,181,-22.42578125,-70.65625,1,0,0,response5disk,,3,5.72265625,0.73828125,1,0,0,rectangle,5.72265625,0.73828125,1,0,0,5.72265625,0.73828125,1,0,0,0,17,17,4,1,,,,,,,,
,,,,,,,,,,,,,FF,,,,,,,,1.5159,,,,,,,,,,,,,,,,,,,,,,60fce1afd66e85b2f0cc4e68,61036cfe377eb09d6274ba28,2021-07-29_23h08.18.578,Simcolourproject_2stim_asymm_v5,2020.2.10,MacIntel,60,61025ae37ef11b136ea224fe,,,,,,,,,690,86.0859375,-38.84375,1,0,0,response3disk,,5,11.97265625,-17.01953125,1,0,0,rectangle,11.97265625,-17.01953125,1,0,0,11.97265625,-17.01953125,1,0,0,0,18,18,27,1,,,,,,,,
,,,,,,,,,,,,,FF,,,,,,,,2.2821,,,,,,,,,,,,,,,,,,,,,,60fce1afd66e85b2f0cc4e68,61036cfe377eb09d6274ba28,2021-07-29_23h08.18.578,Simcolourproject_2stim_asymm_v5,2020.2.10,MacIntel,60,61025ae37ef11b136ea224fe,,,,,,,,,4226,-42.91796875,-71.60546875,1,0,0,response5disk,,3,11.98828125,-6.62890625,1,0,0,rectangle,11.98828125,-6.62890625,1,0,0,11.98828125,-6.62890625,1,0,0,0,19,19,71,1,,,,,,,,
,,,,,,,,,,,,,FF,,,,,,,,1.3655,,,,,,,,,,,,,,,,,,,,,,60fce1afd66e85b2f0cc4e68,61036cfe377eb09d6274ba28,2021-07-29_23h08.18.578,Simcolourproject_2stim_asymm_v5,2020.2.10,MacIntel,60,61025ae37ef11b136ea224fe,,,,,,,,,3404,39.0078125,-77.52734375,1,0,0,response3disk,,4,28.8203125,-5.625,1,0,0,rectangle,28.8203125,-5.625,1,0,0,28.8203125,-5.625,1,0,0,0,20,20,126,1,,,,,,,,
,,,,,,,,,,,,,FF,,,,,,,,1.467,,,,,,,,,,,,,,,,,,,,,,60fce1afd66e85b2f0cc4e68,61036cfe377eb09d6274ba28,2021-07-29_23h08.18.578,Simcolourproject_2stim_asymm_v5,2020.2.10,MacIntel,60,61025ae37ef11b136ea224fe,,,,,,,,,2466,74.77734375,44.6171875,1,0,0,response1disk,,6,6.8203125,6.67578125,1,0,0,rectangle,6.8203125,6.67578125,1,0,0,6.8203125,6.67578125,1,0,0,0,21,21,40,1,,,,,,,,
,,,,,,,,,,,,,FF,,,,,,,,1.8493,,,,,,,,,,,,,,,,,,,,,,60fce1afd66e85b2f0cc4e68,61036cfe377eb09d6274ba28,2021-07-29_23h08.18.578,Simcolourproject_2stim_asymm_v5,2020.2.10,MacIntel,60,61025ae37ef11b136ea224fe,,,,,,,,,3583,-29.640625,-88.109375,1,0,0,response5disk,,3,-6.3203125,5.2265625,1,0,0,rectangle,-6.3203125,5.2265625,1,0,0,-6.3203125,5.2265625,1,0,0,0,22,22,127,1,,,,,,,,
,,,,,,,,,,,,,FF,,,,,,,,1.3314,,,,,,,,,,,,,,,,,,,,,,60fce1afd66e85b2f0cc4e68,61036cfe377eb09d6274ba28,2021-07-29_23h08.18.578,Simcolourproject_2stim_asymm_v5,2020.2.10,MacIntel,60,61025ae37ef11b136ea224fe,,,,,,,,,2520,52.16015625,91.8203125,1,0,0,response1disk,,7,19.12890625,9.96484375,1,0,0,rectangle,19.12890625,9.96484375,1,0,0,19.12890625,9.96484375,1,0,0,0,23,23,50,1,,,,,,,,
,,,,,,,,,,,,,FF,,,,,,,,1.9331,,,,,,,,,,,,,,,,,,,,,,60fce1afd66e85b2f0cc4e68,61036cfe377eb09d6274ba28,2021-07-29_23h08.18.578,Simcolourproject_2stim_asymm_v5,2020.2.10,MacIntel,60,61025ae37ef11b136ea224fe,,,,,,,,,1623,88.1171875,-16.07421875,1,0,0,response3disk,,5,4.06640625,1.5390625,1,0,0,rectangle,4.06640625,1.5390625,1,0,0,4.06640625,1.5390625,1,0,0,0,24,24,56,1,,,,,,,,
,,,,,,,,,,,,,FF,,,,,,,,1.0336,,,,,,,,,,,,,,,,,,,,,,60fce1afd66e85b2f0cc4e68,61036cfe377eb09d6274ba28,2021-07-29_23h08.18.578,Simcolourproject_2stim_asymm_v5,2020.2.10,MacIntel,60,61025ae37ef11b136ea224fe,,,,,,,,,2206,34.04296875,73.8359375,1,0,0,response1disk,,7,23.1484375,10.90625,1,0,0,rectangle,23.1484375,10.90625,1,0,0,23.1484375,10.90625,1,0,0,0,25,25,53,1,,,,,,,,
,,,,,,,,,,,,,FF,,,,,,,,1.3812,,,,,,,,,,,,,,,,,,,,,,60fce1afd66e85b2f0cc4e68,61036cfe377eb09d6274ba28,2021-07-29_23h08.18.578,Simcolourproject_2stim_asymm_v5,2020.2.10,MacIntel,60,61025ae37ef11b136ea224fe,,,,,,,,,3258,42.77734375,-91.6171875,1,0,0,response3disk,,4,8.484375,-7.8046875,1,0,0,rectangle,8.484375,-7.8046875,1,0,0,8.484375,-7.8046875,1,0,0,0,26,26,39,1,,,,,,,,
,,,,,,,,,,,,,FF,,,,,,,,1.0827,,,,,,,,,,,,,,,,,,,,,,60fce1afd66e85b2f0cc4e68,61036cfe377eb09d6274ba28,2021-07-29_23h08.18.578,Simcolourproject_2stim_asymm_v5,2020.2.10,MacIntel,60,61025ae37ef11b136ea224fe,,,,,,,,,2244,-31.6484375,-79.4609375,1,0,0,response5disk,,3,-11.296875,-2.35546875,1,0,0,rectangle,-11.296875,-2.35546875,1,0,0,-11.296875,-2.35546875,1,0,0,0,27,27,8,1,,,,,,,,
,,,,,,,,,,,,,FF,,,,,,,,1.3172,,,,,,,,,,,,,,,,,,,,,,60fce1afd66e85b2f0cc4e68,61036cfe377eb09d6274ba28,2021-07-29_23h08.18.578,Simcolourproject_2stim_asymm_v5,2020.2.10,MacIntel,60,61025ae37ef11b136ea224fe,,,,,,,,,3608,58.7265625,-41.45703125,1,0,0,response3disk,,5,17.20703125,-6.65625,1,0,0,rectangle,17.20703125,-6.65625,1,0,0,17.20703125,-6.65625,1,0,0,0,28,28,30,1,,,,,,,,
,,,,,,,,,,,,,FF,,,,,,,,1.1982,,,,,,,,,,,,,,,,,,,,,,60fce1afd66e85b2f0cc4e68,61036cfe377eb09d6274ba28,2021-07-29_23h08.18.578,Simcolourproject_2stim_asymm_v5,2020.2.10,MacIntel,60,61025ae37ef11b136ea224fe,,,,,,,,,294,43.34765625,-88.0703125,1,0,0,response3disk,,4,15.5625,-7.578125,1,0,0,rectangle,15.5625,-7.578125,1,0,0,15.5625,-7.578125,1,0,0,0,29,29,99,1,,,,,,,,
,,,,,,,,,,,,,FF,,,,,,,,1.0149,,,,,,,,,,,,,,,,,,,,,,60fce1afd66e85b2f0cc4e68,61036cfe377eb09d6274ba28,2021-07-29_23h08.18.578,Simcolourproject_2stim_asymm_v5,2020.2.10,MacIntel,60,61025ae37ef11b136ea224fe,,,,,,,,,4189,-29.8046875,-80.875,1,0,0,response5disk,,3,-15.90234375,7.55078125,1,0,0,rectangle,-15.90234375,7.55078125,1,0,0,-15.90234375,7.55078125,1,0,0,0,30,30,143,1,,,,,,,,
,,,,,,,,,,,,,FF,,,,,,,,1.2499,,,,,,,,,,,,,,,,,,,,,,60fce1afd66e85b2f0cc4e68,61036cfe377eb09d6274ba28,2021-07-29_23h08.18.578,Simcolourproject_2stim_asymm_v5,2020.2.10,MacIntel,60,61025ae37ef11b136ea224fe,,,,,,,,,2338,86.04296875,-42.5703125,1,0,0,response3disk,,5,21.91796875,-3.42578125,1,0,0,rectangle,21.91796875,-3.42578125,1,0,0,21.91796875,-3.42578125,1,0,0,0,31,31,130,1,,,,,,,,
,,,,,,,,,,,,,FF,,,,,,,,1.5123,,,,,,,,,,,,,,,,,,,,,,60fce1afd66e85b2f0cc4e68,61036cfe377eb09d6274ba28,2021-07-29_23h08.18.578,Simcolourproject_2stim_asymm_v5,2020.2.10,MacIntel,60,61025ae37ef11b136ea224fe,,,,,,,,,3323,63.078125,82.74609375,1,0,0,response1disk,,7,6.671875,-15.7578125,1,0,0,rectangle,6.671875,-15.7578125,1,0,0,6.671875,-15.7578125,1,0,0,0,32,32,23,1,,,,,,,,
,,,,,,,,,,,,,FF,,,,,,,,1.2676,,,,,,,,,,,,,,,,,,,,,,60fce1afd66e85b2f0cc4e68,61036cfe377eb09d6274ba28,2021-07-29_23h08.18.578,Simcolourproject_2stim_asymm_v5,2020.2.10,MacIntel,60,61025ae37ef11b136ea224fe,,,,,,,,,3486,-26.4296875,-68.4296875,1,0,0,response5disk,,3,-19.43359375,-3.59375,1,0,0,rectangle,-19.43359375,-3.59375,1,0,0,-19.43359375,-3.59375,1,0,0,0,33,33,124,1,,,,,,,,
,,,,,,,,,,,,,FF,,,,,,,,1.5981,,,,,,,,,,,,,,,,,,,,,,60fce1afd66e85b2f0cc4e68,61036cfe377eb09d6274ba28,2021-07-29_23h08.18.578,Simcolourproject_2stim_asymm_v5,2020.2.10,MacIntel,60,61025ae37ef11b136ea224fe,,,,,,,,,1349,40.02734375,-94.8984375,1,0,0,response3disk,,4,11.015625,-8.2109375,1,0,0,rectangle,11.015625,-8.2109375,1,0,0,11.015625,-8.2109375,1,0,0,0,34,34,150,1,,,,,,,,
,,,,,,,,,,,,,FF,,,,,,,,1.0818,,,,,,,,,,,,,,,,,,,,,,60fce1afd66e85b2f0cc4e68,61036cfe377eb09d6274ba28,2021-07-29_23h08.18.578,Simcolourproject_2stim_asymm_v5,2020.2.10,MacIntel,60,61025ae37ef11b136ea224fe,,,,,,,,,1809,-35.75390625,-85.23046875,1,0,0,response5disk,,3,-15.55859375,-12.67578125,1,0,0,rectangle,-15.55859375,-12.67578125,1,0,0,-15.55859375,-12.67578125,1,0,0,0,35,35,100,1,,,,,,,,
,,,,,,,,,,,,,FF,,,,,,,,1.9164,,,,,,,,,,,,,,,,,,,,,,60fce1afd66e85b2f0cc4e68,61036cfe377eb09d6274ba28,2021-07-29_23h08.18.578,Simcolourproject_2stim_asymm_v5,2020.2.10,MacIntel,60,61025ae37ef11b136ea224fe,,,,,,,,,1345,87.69921875,24.296875,1,0,0,response1disk,,6,17.53515625,6.45703125,1,0,0,rectangle,17.53515625,6.45703125,1,0,0,17.53515625,6.45703125,1,0,0,0,36,36,147,1,,,,,,,,
,,,,,,,,,,,,,FF,,,,,,,,1.0846,,,,,,,,,,,,,,,,,,,,,,60fce1afd66e85b2f0cc4e68,61036cfe377eb09d6274ba28,2021-07-29_23h08.18.578,Simcolourproject_2stim_asymm_v5,2020.2.10,MacIntel,60,61025ae37ef11b136ea224fe,,,,,,,,,2361,-37.875,-26.79296875,1,0,0,response5disk,,2,9.0078125,-2.58984375,1,0,0,rectangle,9.0078125,-2.58984375,1,0,0,9.0078125,-2.58984375,1,0,0,0,37,37,76,1,,,,,,,,
,,,,,,,,,,,,,FF,,,,,,,,1.8349,,,,,,,,,,,,,,,,,,,,,,60fce1afd66e85b2f0cc4e68,61036cfe377eb09d6274ba28,2021-07-29_23h08.18.578,Simcolourproject_2stim_asymm_v5,2020.2.10,MacIntel,60,61025ae37ef11b136ea224fe,,,,,,,,,3895,69.234375,-31.328125,1,0,0,response3disk,,5,20.58203125,0.69140625,1,0,0,rectangle,20.58203125,0.69140625,1,0,0,20.58203125,0.69140625,1,0,0,0,38,38,117,1,,,,,,,,
,,,,,,,,,,,,,FF,,,,,,,,1.2173,,,,,,,,,,,,,,,,,,,,,,60fce1afd66e85b2f0cc4e68,61036cfe377eb09d6274ba28,2021-07-29_23h08.18.578,Simcolourproject_2stim_asymm_v5,2020.2.10,MacIntel,60,61025ae37ef11b136ea224fe,,,,,,,,,2084,-25.5234375,-78.72265625,1,0,0,response5disk,,3,12.4765625,4.19921875,1,0,0,rectangle,12.4765625,4.19921875,1,0,0,12.4765625,4.19921875,1,0,0,0,39,39,93,1,,,,,,,,
,,,,,,,,,,,,,FF,,,,,,,,1.3661,,,,,,,,,,,,,,,,,,,,,,60fce1afd66e85b2f0cc4e68,61036cfe377eb09d6274ba28,2021-07-29_23h08.18.578,Simcolourproject_2stim_asymm_v5,2020.2.10,MacIntel,60,61025ae37ef11b136ea224fe,,,,,,,,,559,-32.9375,-74.08984375,1,0,0,response5disk,,3,4.3515625,8.546875,1,0,0,rectangle,4.3515625,8.546875,1,0,0,4.3515625,8.546875,1,0,0,0,40,40,142,1,,,,,,,,
,,,,,,,,,,,,,FF,,,,,,,,1.2659,,,,,,,,,,,,,,,,,,,,,,60fce1afd66e85b2f0cc4e68,61036cfe377eb09d6274ba28,2021-07-29_23h08.18.578,Simcolourproject_2stim_asymm_v5,2020.2.10,MacIntel,60,61025ae37ef11b136ea224fe,,,,,,,,,1718,76.1484375,-44.8828125,1,0,0,response3disk,,5,19.921875,-14.5078125,1,0,0,rectangle,-25.7265625,-74.76171875,1,0,0,9.04296875,-3.390625,1,0,0,0,41,41,51,1,,response5disk_3,TRUE,3,3,"[63,178,164,59,12,2,90,283,57,56,316,58,48,86,311,163,93,138,212,42]",2.4654,rectangle
,,,,,,,,,,,,,FF,,,,,,,,1.5162,,,,,,,,,,,,,,,,,,,,,,60fce1afd66e85b2f0cc4e68,61036cfe377eb09d6274ba28,2021-07-29_23h08.18.578,Simcolourproject_2stim_asymm_v5,2020.2.10,MacIntel,60,61025ae37ef11b136ea224fe,,,,,,,,,262,-72.7109375,37.89453125,1,0,0,response7disk,,1,-8.13671875,15.8828125,1,0,0,rectangle,-8.13671875,15.8828125,1,0,0,-8.13671875,15.8828125,1,0,0,0,42,42,87,1,,,,,,,,
,,,,,,,,,,,,,FF,,,,,,,,1.1492,,,,,,,,,,,,,,,,,,,,,,60fce1afd66e85b2f0cc4e68,61036cfe377eb09d6274ba28,2021-07-29_23h08.18.578,Simcolourproject_2stim_asymm_v5,2020.2.10,MacIntel,60,61025ae37ef11b136ea224fe,,,,,,,,,3569,60.0859375,-23.828125,1,0,0,response3disk,,5,18.03515625,4.15625,1,0,0,rectangle,18.03515625,4.15625,1,0,0,18.03515625,4.15625,1,0,0,0,43,43,153,1,,,,,,,,
,,,,,,,,,,,,,FF,,,,,,,,1.3018,,,,,,,,,,,,,,,,,,,,,,60fce1afd66e85b2f0cc4e68,61036cfe377eb09d6274ba28,2021-07-29_23h08.18.578,Simcolourproject_2stim_asymm_v5,2020.2.10,MacIntel,60,61025ae37ef11b136ea224fe,,,,,,,,,1365,-24.48046875,-68.015625,1,0,0,response5disk,,3,-10.30859375,-2.5546875,1,0,0,rectangle,-10.30859375,-2.5546875,1,0,0,-10.30859375,-2.5546875,1,0,0,0,44,44,13,1,,,,,,,,
,,,,,,,,,,,,,FF,,,,,,,,1.3325,,,,,,,,,,,,,,,,,,,,,,60fce1afd66e85b2f0cc4e68,61036cfe377eb09d6274ba28,2021-07-29_23h08.18.578,Simcolourproject_2stim_asymm_v5,2020.2.10,MacIntel,60,61025ae37ef11b136ea224fe,,,,,,,,,2545,32.79296875,-63.2890625,1,0,0,response3disk,,4,16.6015625,-10.84375,1,0,0,rectangle,16.6015625,-10.84375,1,0,0,16.6015625,-10.84375,1,0,0,0,45,45,122,1,,,,,,,,
,,,,,,,,,,,,,FF,,,,,,,,1.5152,,,,,,,,,,,,,,,,,,,,,,60fce1afd66e85b2f0cc4e68,61036cfe377eb09d6274ba28,2021-07-29_23h08.18.578,Simcolourproject_2stim_asymm_v5,2020.2.10,MacIntel,60,61025ae37ef11b136ea224fe,,,,,,,,,1452,-70.4453125,-32.8125,1,0,0,response5disk,,2,-1.3359375,-2.1640625,1,0,0,rectangle,-1.3359375,-2.1640625,1,0,0,-1.3359375,-2.1640625,1,0,0,0,46,46,74,1,,,,,,,,
,,,,,,,,,,,,,FF,,,,,,,,1.4319,,,,,,,,,,,,,,,,,,,,,,60fce1afd66e85b2f0cc4e68,61036cfe377eb09d6274ba28,2021-07-29_23h08.18.578,Simcolourproject_2stim_asymm_v5,2020.2.10,MacIntel,60,61025ae37ef11b136ea224fe,,,,,,,,,498,72.48828125,-26.8515625,1,0,0,response3disk,,5,22.3828125,-4.96875,1,0,0,rectangle,-51.640625,-92.95703125,1,0,0,1.48828125,2.0625,1,0,0,0,47,47,44,1,,response5disk_3,TRUE,3,3,"[63,178,164,59,12,2,90,283,57,56,316,58,48,86,311,163,93,138,212,42]",2.2334,rectangle
,,,,,,,,,,,,,FF,,,,,,,,0.9674,,,,,,,,,,,,,,,,,,,,,,60fce1afd66e85b2f0cc4e68,61036cfe377eb09d6274ba28,2021-07-29_23h08.18.578,Simcolourproject_2stim_asymm_v5,2020.2.10,MacIntel,60,61025ae37ef11b136ea224fe,,,,,,,,,3441,-78.66796875,-48.80859375,1,0,0,response5disk,,2,-3.875,-14.2734375,1,0,0,rectangle,-3.875,-14.2734375,1,0,0,-3.875,-14.2734375,1,0,0,0,48,48,129,1,,,,,,,,
,,,,,,,,,,,,,FF,,,,,,,,1.1996,,,,,,,,,,,,,,,,,,,,,,60fce1afd66e85b2f0cc4e68,61036cfe377eb09d6274ba28,2021-07-29_23h08.18.578,Simcolourproject_2stim_asymm_v5,2020.2.10,MacIntel,60,61025ae37ef11b136ea224fe,,,,,,,,,3224,70.1953125,-38.24609375,1,0,0,response3disk,,5,32.82421875,-13.375,1,0,0,rectangle,32.82421875,-13.375,1,0,0,32.82421875,-13.375,1,0,0,0,49,49,77,1,,,,,,,,
,,,,,,,,,,,,,FF,,,,,,,,0.9504,,,,,,,,,,,,,,,,,,,,,,60fce1afd66e85b2f0cc4e68,61036cfe377eb09d6274ba28,2021-07-29_23h08.18.578,Simcolourproject_2stim_asymm_v5,2020.2.10,MacIntel,60,61025ae37ef11b136ea224fe,,,,,,,,,2424,33.6640625,-87.9921875,1,0,0,response3disk,,4,3.8828125,-11.7421875,1,0,0,rectangle,3.8828125,-11.7421875,1,0,0,3.8828125,-11.7421875,1,0,0,0,50,50,140,1,,,,,,,,
,,,,,,,,,,,,,FF,,,,,,,,1.332,,,,,,,,,,,,,,,,,,,,,,60fce1afd66e85b2f0cc4e68,61036cfe377eb09d6274ba28,2021-07-29_23h08.18.578,Simcolourproject_2stim_asymm_v5,2020.2.10,MacIntel,60,61025ae37ef11b136ea224fe,,,,,,,,,1595,45.5546875,-96.875,1,0,0,response3disk,,4,8.6875,-13.99609375,1,0,0,rectangle,8.6875,-13.99609375,1,0,0,8.6875,-13.99609375,1,0,0,0,51,51,54,1,,,,,,,,
,,,,,,,,,,,,,FF,,,,,,,,2.1491,,,,,,,,,,,,,,,,,,,,,,60fce1afd66e85b2f0cc4e68,61036cfe377eb09d6274ba28,2021-07-29_23h08.18.578,Simcolourproject_2stim_asymm_v5,2020.2.10,MacIntel,60,61025ae37ef11b136ea224fe,,,,,,,,,3525,83.16015625,-60.4609375,1,0,0,response3disk,,5,6.33984375,-3.5546875,1,0,0,rectangle,6.33984375,-3.5546875,1,0,0,6.33984375,-3.5546875,1,0,0,0,52,52,141,1,,,,,,,,
,,,,,,,,,,,,,FF,,,,,,,,1.8329,,,,,,,,,,,,,,,,,,,,,,60fce1afd66e85b2f0cc4e68,61036cfe377eb09d6274ba28,2021-07-29_23h08.18.578,Simcolourproject_2stim_asymm_v5,2020.2.10,MacIntel,60,61025ae37ef11b136ea224fe,,,,,,,,,2552,84.234375,-32.61328125,1,0,0,response3disk,,5,13.48046875,-1.51953125,1,0,0,rectangle,13.48046875,-1.51953125,1,0,0,13.48046875,-1.51953125,1,0,0,0,53,53,9,1,,,,,,,,
,,,,,,,,,,,,,FF,,,,,,,,1.3676,,,,,,,,,,,,,,,,,,,,,,60fce1afd66e85b2f0cc4e68,61036cfe377eb09d6274ba28,2021-07-29_23h08.18.578,Simcolourproject_2stim_asymm_v5,2020.2.10,MacIntel,60,61025ae37ef11b136ea224fe,,,,,,,,,4058,43.94921875,-81.8984375,1,0,0,response3disk,,4,12.36328125,12.5078125,1,0,0,rectangle,12.36328125,12.5078125,1,0,0,12.36328125,12.5078125,1,0,0,0,54,54,16,1,,,,,,,,
,,,,,,,,,,,,,FF,,,,,,,,1.7497,,,,,,,,,,,,,,,,,,,,,,60fce1afd66e85b2f0cc4e68,61036cfe377eb09d6274ba28,2021-07-29_23h08.18.578,Simcolourproject_2stim_asymm_v5,2020.2.10,MacIntel,60,61025ae37ef11b136ea224fe,,,,,,,,,2021,43.796875,-102.1015625,1,0,0,response3disk,,4,9.11328125,-7.69140625,1,0,0,rectangle,-38.671875,84.078125,1,0,0,-21.94140625,-11.53125,1,0,0,0,55,55,144,1,,response7disk_3,TRUE,0,0,"[63,178,164,59,12,2,90,283,57,56,316,58,48,86,311,163,93,138,212,42]",1.7336,rectangle
,,,,,,,,,,,,,FF,,,,,,,,0.9838,,,,,,,,,,,,,,,,,,,,,,60fce1afd66e85b2f0cc4e68,61036cfe377eb09d6274ba28,2021-07-29_23h08.18.578,Simcolourproject_2stim_asymm_v5,2020.2.10,MacIntel,60,61025ae37ef11b136ea224fe,,,,,,,,,2172,-31.55078125,-73.97265625,1,0,0,response5disk,,3,-2.2265625,-4.5390625,1,0,0,rectangle,60.77734375,-33.640625,1,0,0,14.13671875,-0.4140625,1,0,0,0,56,56,155,1,,response3disk_3,TRUE,5,5,"[63,178,164,59,12,2,90,283,57,56,316,58,48,86,311,163,93,138,212,42]",1.7829,rectangle
,,,,,,,,,,,,,FF,,,,,,,,1.5514,,,,,,,,,,,,,,,,,,,,,,60fce1afd66e85b2f0cc4e68,61036cfe377eb09d6274ba28,2021-07-29_23h08.18.578,Simcolourproject_2stim_asymm_v5,2020.2.10,MacIntel,60,61025ae37ef11b136ea224fe,,,,,,,,,1664,42.46484375,-95.41015625,1,0,0,response3disk,,4,18.93359375,12.546875,1,0,0,rectangle,85.56640625,-49.6015625,1,0,0,24.12890625,-9.24609375,1,0,0,0,57,57,84,1,,response3disk_3,TRUE,5,5,"[63,178,164,59,12,2,90,283,57,56,316,58,48,86,311,163,93,138,212,42]",1.7321,rectangle
,,,,,,,,,,,,,FF,,,,,,,,1.8795,,,,,,,,,,,,,,,,,,,,,,60fce1afd66e85b2f0cc4e68,61036cfe377eb09d6274ba28,2021-07-29_23h08.18.578,Simcolourproject_2stim_asymm_v5,2020.2.10,MacIntel,60,61025ae37ef11b136ea224fe,,,,,,,,,2195,87.828125,-47.234375,1,0,0,response3disk,,5,20.71875,-7.4296875,1,0,0,rectangle,97.66796875,39.69921875,1,0,0,31.7578125,8.640625,1,0,0,0,58,58,97,1,,response1disk_3,TRUE,6,6,"[63,178,164,59,12,2,90,283,57,56,316,58,48,86,311,163,93,138,212,42]",1.7683,rectangle
,,,,,,,,,,,,,FF,,,,,,,,1.2848,,,,,,,,,,,,,,,,,,,,,,60fce1afd66e85b2f0cc4e68,61036cfe377eb09d6274ba28,2021-07-29_23h08.18.578,Simcolourproject_2stim_asymm_v5,2020.2.10,MacIntel,60,61025ae37ef11b136ea224fe,,,,,,,,,2288,-39.2578125,-69.265625,1,0,0,response5disk,,3,-14.765625,-16.29296875,1,0,0,rectangle,-14.765625,-16.29296875,1,0,0,-14.765625,-16.29296875,1,0,0,0,59,59,125,1,,,,,,,,
,,,,,,,,,,,,,FF,,,,,,,,1.3008,,,,,,,,,,,,,,,,,,,,,,60fce1afd66e85b2f0cc4e68,61036cfe377eb09d6274ba28,2021-07-29_23h08.18.578,Simcolourproject_2stim_asymm_v5,2020.2.10,MacIntel,60,61025ae37ef11b136ea224fe,,,,,,,,,835,80.53515625,39.27734375,1,0,0,response1disk,,6,12.734375,7.50390625,1,0,0,rectangle,12.734375,7.50390625,1,0,0,12.734375,7.50390625,1,0,0,0,60,60,69,1,,,,,,,,
,,,,,,,,,,,,,FF,,,,,,,,1.6504,,,,,,,,,,,,,,,,,,,,,,60fce1afd66e85b2f0cc4e68,61036cfe377eb09d6274ba28,2021-07-29_23h08.18.578,Simcolourproject_2stim_asymm_v5,2020.2.10,MacIntel,60,61025ae37ef11b136ea224fe,,,,,,,,,1529,-34.20703125,-96.31640625,1,0,0,response5disk,,3,5.23828125,0.25390625,1,0,0,rectangle,5.23828125,0.25390625,1,0,0,5.23828125,0.25390625,1,0,0,0,61,61,59,1,,,,,,,,
,,,,,,,,,,,,,FF,,,,,,,,1.1836,,,,,,,,,,,,,,,,,,,,,,60fce1afd66e85b2f0cc4e68,61036cfe377eb09d6274ba28,2021-07-29_23h08.18.578,Simcolourproject_2stim_asymm_v5,2020.2.10,MacIntel,60,61025ae37ef11b136ea224fe,,,,,,,,,500,31.71484375,81.84375,1,0,0,response1disk,,7,29.42578125,-2.4609375,1,0,0,rectangle,33.49609375,93.890625,1,0,0,32.171875,-9.7890625,1,0,0,0,62,62,156,1,,response1disk_3,TRUE,7,7,"[63,178,164,59,12,2,90,283,57,56,316,58,48,86,311,163,93,138,212,42]",1.9508,rectangle
,,,,,,,,,,,,,FF,,,,,,,,1.1999,,,,,,,,,,,,,,,,,,,,,,60fce1afd66e85b2f0cc4e68,61036cfe377eb09d6274ba28,2021-07-29_23h08.18.578,Simcolourproject_2stim_asymm_v5,2020.2.10,MacIntel,60,61025ae37ef11b136ea224fe,,,,,,,,,2488,-39.2421875,-70.15625,1,0,0,response5disk,,3,-6.78515625,2.32421875,1,0,0,rectangle,-6.78515625,2.32421875,1,0,0,-6.78515625,2.32421875,1,0,0,0,63,63,70,1,,,,,,,,
,,,,,,,,,,,,,FF,,,,,,,,1.1837,,,,,,,,,,,,,,,,,,,,,,60fce1afd66e85b2f0cc4e68,61036cfe377eb09d6274ba28,2021-07-29_23h08.18.578,Simcolourproject_2stim_asymm_v5,2020.2.10,MacIntel,60,61025ae37ef11b136ea224fe,,,,,,,,,106,-47.18359375,-78.65234375,1,0,0,response5disk,,3,-3.484375,-9.87109375,1,0,0,rectangle,-3.484375,-9.87109375,1,0,0,-3.484375,-9.87109375,1,0,0,0,64,64,106,1,,,,,,,,
,,,,,,,,,,,,,FF,,,,,,,,1.3011,,,,,,,,,,,,,,,,,,,,,,60fce1afd66e85b2f0cc4e68,61036cfe377eb09d6274ba28,2021-07-29_23h08.18.578,Simcolourproject_2stim_asymm_v5,2020.2.10,MacIntel,60,61025ae37ef11b136ea224fe,,,,,,,,,1284,74.84765625,-28.69140625,1,0,0,response3disk,,5,26.41796875,-0.09375,1,0,0,rectangle,26.41796875,-0.09375,1,0,0,26.41796875,-0.09375,1,0,0,0,65,65,33,1,,,,,,,,
,,,,,,,,,,,,,FF,,,,,,,,1.3833,,,,,,,,,,,,,,,,,,,,,,60fce1afd66e85b2f0cc4e68,61036cfe377eb09d6274ba28,2021-07-29_23h08.18.578,Simcolourproject_2stim_asymm_v5,2020.2.10,MacIntel,60,61025ae37ef11b136ea224fe,,,,,,,,,2692,95.8046875,80.66015625,1,0,0,response1disk,,6,13.09375,-7.69140625,1,0,0,rectangle,13.09375,-7.69140625,1,0,0,13.09375,-7.69140625,1,0,0,0,66,66,43,1,,,,,,,,
,,,,,,,,,,,,,FF,,,,,,,,1.382,,,,,,,,,,,,,,,,,,,,,,60fce1afd66e85b2f0cc4e68,61036cfe377eb09d6274ba28,2021-07-29_23h08.18.578,Simcolourproject_2stim_asymm_v5,2020.2.10,MacIntel,60,61025ae37ef11b136ea224fe,,,,,,,,,3097,-60.30078125,-37.1328125,1,0,0,response5disk,,2,7.828125,-11.30859375,1,0,0,rectangle,7.828125,-11.30859375,1,0,0,7.828125,-11.30859375,1,0,0,0,67,67,79,1,,,,,,,,
,,,,,,,,,,,,,FF,,,,,,,,0.9666,,,,,,,,,,,,,,,,,,,,,,60fce1afd66e85b2f0cc4e68,61036cfe377eb09d6274ba28,2021-07-29_23h08.18.578,Simcolourproject_2stim_asymm_v5,2020.2.10,MacIntel,60,61025ae37ef11b136ea224fe,,,,,,,,,278,-67.015625,-41.171875,1,0,0,response5disk,,2,-10.59765625,-8.5,1,0,0,rectangle,-10.59765625,-8.5,1,0,0,-10.59765625,-8.5,1,0,0,0,68,68,108,1,,,,,,,,
,,,,,,,,,,,,,FF,,,,,,,,1.232,,,,,,,,,,,,,,,,,,,,,,60fce1afd66e85b2f0cc4e68,61036cfe377eb09d6274ba28,2021-07-29_23h08.18.578,Simcolourproject_2stim_asymm_v5,2020.2.10,MacIntel,60,61025ae37ef11b136ea224fe,,,,,,,,,321,51.6015625,92.28125,1,0,0,response1disk,,7,17.25390625,8.79296875,1,0,0,rectangle,17.25390625,8.79296875,1,0,0,17.25390625,8.79296875,1,0,0,0,69,69,68,1,,,,,,,,
,,,,,,,,,,,,,FF,,,,,,,,1.7511,,,,,,,,,,,,,,,,,,,,,,60fce1afd66e85b2f0cc4e68,61036cfe377eb09d6274ba28,2021-07-29_23h08.18.578,Simcolourproject_2stim_asymm_v5,2020.2.10,MacIntel,60,61025ae37ef11b136ea224fe,,,,,,,,,1662,49.73828125,-38.25,1,0,0,response3disk,,5,3.11328125,-5.8984375,1,0,0,rectangle,3.11328125,-5.8984375,1,0,0,3.11328125,-5.8984375,1,0,0,0,70,70,121,1,,,,,,,,
,,,,,,,,,,,,,FF,,,,,,,,1.1009,,,,,,,,,,,,,,,,,,,,,,60fce1afd66e85b2f0cc4e68,61036cfe377eb09d6274ba28,2021-07-29_23h08.18.578,Simcolourproject_2stim_asymm_v5,2020.2.10,MacIntel,60,61025ae37ef11b136ea224fe,,,,,,,,,4164,-45.703125,-87.8046875,1,0,0,response5disk,,3,3.26953125,8.39453125,1,0,0,rectangle,3.26953125,8.39453125,1,0,0,3.26953125,8.39453125,1,0,0,0,71,71,111,1,,,,,,,,
,,,,,,,,,,,,,FF,,,,,,,,1.4991,,,,,,,,,,,,,,,,,,,,,,60fce1afd66e85b2f0cc4e68,61036cfe377eb09d6274ba28,2021-07-29_23h08.18.578,Simcolourproject_2stim_asymm_v5,2020.2.10,MacIntel,60,61025ae37ef11b136ea224fe,,,,,,,,,4261,39.91796875,64.33984375,1,0,0,response1disk,,7,24.15234375,-2.4375,1,0,0,rectangle,24.15234375,-2.4375,1,0,0,24.15234375,-2.4375,1,0,0,0,72,72,65,1,,,,,,,,
,,,,,,,,,,,,,FF,,,,,,,,1.4669,,,,,,,,,,,,,,,,,,,,,,60fce1afd66e85b2f0cc4e68,61036cfe377eb09d6274ba28,2021-07-29_23h08.18.578,Simcolourproject_2stim_asymm_v5,2020.2.10,MacIntel,60,61025ae37ef11b136ea224fe,,,,,,,,,2065,75.2578125,-25.86328125,1,0,0,response3disk,,5,10.0625,-5.11328125,1,0,0,rectangle,10.0625,-5.11328125,1,0,0,10.0625,-5.11328125,1,0,0,0,73,73,60,1,,,,,,,,
,,,,,,,,,,,,,FF,,,,,,,,2.017,,,,,,,,,,,,,,,,,,,,,,60fce1afd66e85b2f0cc4e68,61036cfe377eb09d6274ba28,2021-07-29_23h08.18.578,Simcolourproject_2stim_asymm_v5,2020.2.10,MacIntel,60,61025ae37ef11b136ea224fe,,,,,,,,,19,96.12109375,32.6875,1,0,0,response1disk,,6,24.09765625,0.75,1,0,0,rectangle,24.09765625,0.75,1,0,0,24.09765625,0.75,1,0,0,0,74,74,112,1,,,,,,,,
,,,,,,,,,,,,,FF,,,,,,,,1.0164,,,,,,,,,,,,,,,,,,,,,,60fce1afd66e85b2f0cc4e68,61036cfe377eb09d6274ba28,2021-07-29_23h08.18.578,Simcolourproject_2stim_asymm_v5,2020.2.10,MacIntel,60,61025ae37ef11b136ea224fe,,,,,,,,,3782,-33.74609375,-93.20703125,1,0,0,response5disk,,3,6.359375,-5.3515625,1,0,0,rectangle,6.359375,-5.3515625,1,0,0,6.359375,-5.3515625,1,0,0,0,75,75,134,1,,,,,,,,
,,,,,,,,,,,,,FF,,,,,,,,0.9829,,,,,,,,,,,,,,,,,,,,,,60fce1afd66e85b2f0cc4e68,61036cfe377eb09d6274ba28,2021-07-29_23h08.18.578,Simcolourproject_2stim_asymm_v5,2020.2.10,MacIntel,60,61025ae37ef11b136ea224fe,,,,,,,,,1831,-30.16015625,-94.53515625,1,0,0,response5disk,,3,1.04296875,-11.375,1,0,0,rectangle,1.04296875,-11.375,1,0,0,1.04296875,-11.375,1,0,0,0,76,76,46,1,,,,,,,,
,,,,,,,,,,,,,FF,,,,,,,,0.9491,,,,,,,,,,,,,,,,,,,,,,60fce1afd66e85b2f0cc4e68,61036cfe377eb09d6274ba28,2021-07-29_23h08.18.578,Simcolourproject_2stim_asymm_v5,2020.2.10,MacIntel,60,61025ae37ef11b136ea224fe,,,,,,,,,3223,41.7421875,58.43359375,1,0,0,response1disk,,7,17.09375,5.125,1,0,0,rectangle,17.09375,5.125,1,0,0,17.09375,5.125,1,0,0,0,77,77,62,1,,,,,,,,
,,,,,,,,,,,,,FF,,,,,,,,1.3152,,,,,,,,,,,,,,,,,,,,,,60fce1afd66e85b2f0cc4e68,61036cfe377eb09d6274ba28,2021-07-29_23h08.18.578,Simcolourproject_2stim_asymm_v5,2020.2.10,MacIntel,60,61025ae37ef11b136ea224fe,,,,,,,,,185,-65.4296875,27.51171875,1,0,0,response7disk,,1,-17.0390625,12.125,1,0,0,rectangle,-17.0390625,12.125,1,0,0,-17.0390625,12.125,1,0,0,0,78,78,61,1,,,,,,,,
,,,,,,,,,,,,,FF,,,,,,,,3.5331,,,,,,,,,,,,,,,,,,,,,,60fce1afd66e85b2f0cc4e68,61036cfe377eb09d6274ba28,2021-07-29_23h08.18.578,Simcolourproject_2stim_asymm_v5,2020.2.10,MacIntel,60,61025ae37ef11b136ea224fe,,,,,,,,,388,30.36328125,-69.82421875,1,0,0,response3disk,,4,3.57421875,1.484375,1,0,0,rectangle,3.57421875,1.484375,1,0,0,3.57421875,1.484375,1,0,0,0,79,79,18,1,,,,,,,,
,,,,,,,,,,,,,FF,,,,,,,,1.1504,,,,,,,,,,,,,,,,,,,,,,60fce1afd66e85b2f0cc4e68,61036cfe377eb09d6274ba28,2021-07-29_23h08.18.578,Simcolourproject_2stim_asymm_v5,2020.2.10,MacIntel,60,61025ae37ef11b136ea224fe,,,,,,,,,3076,44.95703125,86,1,0,0,response1disk,,7,22.82421875,5.40625,1,0,0,rectangle,22.82421875,5.40625,1,0,0,22.82421875,5.40625,1,0,0,0,80,80,57,1,,,,,,,,
,,,,,,,,,,,,,FF,,,,,,,,1.4008,,,,,,,,,,,,,,,,,,,,,,60fce1afd66e85b2f0cc4e68,61036cfe377eb09d6274ba28,2021-07-29_23h08.18.578,Simcolourproject_2stim_asymm_v5,2020.2.10,MacIntel,60,61025ae37ef11b136ea224fe,,,,,,,,,3351,80.578125,-31.1328125,1,0,0,response3disk,,5,21.578125,-14.12109375,1,0,0,rectangle,21.578125,-14.12109375,1,0,0,21.578125,-14.12109375,1,0,0,0,81,81,139,1,,,,,,,,
,,,,,,,,,,,,,FF,,,,,,,,1.5164,,,,,,,,,,,,,,,,,,,,,,60fce1afd66e85b2f0cc4e68,61036cfe377eb09d6274ba28,2021-07-29_23h08.18.578,Simcolourproject_2stim_asymm_v5,2020.2.10,MacIntel,60,61025ae37ef11b136ea224fe,,,,,,,,,1211,-38.14453125,63.796875,1,0,0,response7disk,,0,-16.1640625,12.6484375,1,0,0,rectangle,-16.1640625,12.6484375,1,0,0,-16.1640625,12.6484375,1,0,0,0,82,82,135,1,,,,,,,,
,,,,,,,,,,,,,FF,,,,,,,,2.5671,,,,,,,,,,,,,,,,,,,,,,60fce1afd66e85b2f0cc4e68,61036cfe377eb09d6274ba28,2021-07-29_23h08.18.578,Simcolourproject_2stim_asymm_v5,2020.2.10,MacIntel,60,61025ae37ef11b136ea224fe,,,,,,,,,2457,55.29296875,-25.64453125,1,0,0,response3disk,,5,7.296875,-5.05859375,1,0,0,rectangle,7.296875,-5.05859375,1,0,0,7.296875,-5.05859375,1,0,0,0,83,83,78,1,,,,,,,,
,,,,,,,,,,,,,FF,,,,,,,,1.3664,,,,,,,,,,,,,,,,,,,,,,60fce1afd66e85b2f0cc4e68,61036cfe377eb09d6274ba28,2021-07-29_23h08.18.578,Simcolourproject_2stim_asymm_v5,2020.2.10,MacIntel,60,61025ae37ef11b136ea224fe,,,,,,,,,4351,-76.8125,28.7578125,1,0,0,response7disk,,1,-13.17578125,11.68359375,1,0,0,rectangle,-13.17578125,11.68359375,1,0,0,-13.17578125,11.68359375,1,0,0,0,84,84,114,1,,,,,,,,
,,,,,,,,,,,,,FF,,,,,,,,4.9179,,,,,,,,,,,,,,,,,,,,,,60fce1afd66e85b2f0cc4e68,61036cfe377eb09d6274ba28,2021-07-29_23h08.18.578,Simcolourproject_2stim_asymm_v5,2020.2.10,MacIntel,60,61025ae37ef11b136ea224fe,,,,,,,,,2569,80.44140625,27.9453125,1,0,0,response1disk,,6,18.515625,8.5703125,1,0,0,rectangle,76.20703125,-42.36328125,1,0,0,28.0625,-8.12890625,1,0,0,0,85,85,25,1,,response3disk_3,TRUE,5,5,"[63,178,164,59,12,2,90,283,57,56,316,58,48,86,311,163,93,138,212,42]",1.6158,rectangle
,,,,,,,,,,,,,FF,,,,,,,,2.3505,,,,,,,,,,,,,,,,,,,,,,60fce1afd66e85b2f0cc4e68,61036cfe377eb09d6274ba28,2021-07-29_23h08.18.578,Simcolourproject_2stim_asymm_v5,2020.2.10,MacIntel,60,61025ae37ef11b136ea224fe,,,,,,,,,2580,87.16796875,61.69921875,1,0,0,response1disk,,6,19.42578125,6.3984375,1,0,0,rectangle,19.42578125,6.3984375,1,0,0,19.42578125,6.3984375,1,0,0,0,86,86,136,1,,,,,,,,
,,,,,,,,,,,,,FF,,,,,,,,1.0174,,,,,,,,,,,,,,,,,,,,,,60fce1afd66e85b2f0cc4e68,61036cfe377eb09d6274ba28,2021-07-29_23h08.18.578,Simcolourproject_2stim_asymm_v5,2020.2.10,MacIntel,60,61025ae37ef11b136ea224fe,,,,,,,,,2758,83.1875,40.0625,1,0,0,response1disk,,6,21.58203125,1.23046875,1,0,0,rectangle,21.58203125,1.23046875,1,0,0,21.58203125,1.23046875,1,0,0,0,87,87,149,1,,,,,,,,
,,,,,,,,,,,,,FF,,,,,,,,1.1652,,,,,,,,,,,,,,,,,,,,,,60fce1afd66e85b2f0cc4e68,61036cfe377eb09d6274ba28,2021-07-29_23h08.18.578,Simcolourproject_2stim_asymm_v5,2020.2.10,MacIntel,60,61025ae37ef11b136ea224fe,,,,,,,,,4219,36.859375,-86.8515625,1,0,0,response3disk,,4,22.18359375,-4.734375,1,0,0,rectangle,22.18359375,-4.734375,1,0,0,22.18359375,-4.734375,1,0,0,0,88,88,102,1,,,,,,,,
,,,,,,,,,,,,,FF,,,,,,,,1.5498,,,,,,,,,,,,,,,,,,,,,,60fce1afd66e85b2f0cc4e68,61036cfe377eb09d6274ba28,2021-07-29_23h08.18.578,Simcolourproject_2stim_asymm_v5,2020.2.10,MacIntel,60,61025ae37ef11b136ea224fe,,,,,,,,,1206,85.02734375,-53.95703125,1,0,0,response3disk,,5,26.796875,-9.9375,1,0,0,rectangle,47.109375,-78.73828125,1,0,0,16.0078125,-4.33203125,1,0,0,0,89,89,98,1,,response3disk_3,TRUE,4,4,"[63,178,164,59,12,2,90,283,57,56,316,58,48,86,311,163,93,138,212,42]",1.3999,rectangle
,,,,,,,,,,,,,FF,,,,,,,,2.7341,,,,,,,,,,,,,,,,,,,,,,60fce1afd66e85b2f0cc4e68,61036cfe377eb09d6274ba28,2021-07-29_23h08.18.578,Simcolourproject_2stim_asymm_v5,2020.2.10,MacIntel,60,61025ae37ef11b136ea224fe,,,,,,,,,2383,52.80078125,-92.015625,1,0,0,response3disk,,4,23.44140625,-3.70703125,1,0,0,rectangle,23.44140625,-3.70703125,1,0,0,23.44140625,-3.70703125,1,0,0,0,90,90,85,1,,,,,,,,
,,,,,,,,,,,,,FF,,,,,,,,1.0677,,,,,,,,,,,,,,,,,,,,,,60fce1afd66e85b2f0cc4e68,61036cfe377eb09d6274ba28,2021-07-29_23h08.18.578,Simcolourproject_2stim_asymm_v5,2020.2.10,MacIntel,60,61025ae37ef11b136ea224fe,,,,,,,,,4166,-36.26171875,-76.05859375,1,0,0,response5disk,,3,-11.00390625,-9.28515625,1,0,0,rectangle,-11.00390625,-9.28515625,1,0,0,-11.00390625,-9.28515625,1,0,0,0,91,91,120,1,,,,,,,,
,,,,,,,,,,,,,FF,,,,,,,,1.7661,,,,,,,,,,,,,,,,,,,,,,60fce1afd66e85b2f0cc4e68,61036cfe377eb09d6274ba28,2021-07-29_23h08.18.578,Simcolourproject_2stim_asymm_v5,2020.2.10,MacIntel,60,61025ae37ef11b136ea224fe,,,,,,,,,17,22.6796875,96.9453125,1,0,0,response1disk,,7,-0.18359375,-4.7421875,1,0,0,rectangle,-26.9296875,77.02734375,1,0,0,-11.23828125,9.609375,1,0,0,0,92,92,3,1,,response7disk_3,TRUE,0,0,"[63,178,164,59,12,2,90,283,57,56,316,58,48,86,311,163,93,138,212,42]",3.15,rectangle
,,,,,,,,,,,,,FF,,,,,,,,1.5165,,,,,,,,,,,,,,,,,,,,,,60fce1afd66e85b2f0cc4e68,61036cfe377eb09d6274ba28,2021-07-29_23h08.18.578,Simcolourproject_2stim_asymm_v5,2020.2.10,MacIntel,60,61025ae37ef11b136ea224fe,,,,,,,,,2075,72.796875,-28.11328125,1,0,0,response3disk,,5,12.33984375,-3.703125,1,0,0,rectangle,12.33984375,-3.703125,1,0,0,12.33984375,-3.703125,1,0,0,0,93,93,20,1,,,,,,,,
,,,,,,,,,,,,,FF,,,,,,,,1.5504,,,,,,,,,,,,,,,,,,,,,,60fce1afd66e85b2f0cc4e68,61036cfe377eb09d6274ba28,2021-07-29_23h08.18.578,Simcolourproject_2stim_asymm_v5,2020.2.10,MacIntel,60,61025ae37ef11b136ea224fe,,,,,,,,,269,36.0234375,-63.5546875,1,0,0,response3disk,,4,10.75390625,2.28125,1,0,0,rectangle,10.75390625,2.28125,1,0,0,10.75390625,2.28125,1,0,0,0,94,94,41,1,,,,,,,,
,,,,,,,,,,,,,FF,,,,,,,,1.1171,,,,,,,,,,,,,,,,,,,,,,60fce1afd66e85b2f0cc4e68,61036cfe377eb09d6274ba28,2021-07-29_23h08.18.578,Simcolourproject_2stim_asymm_v5,2020.2.10,MacIntel,60,61025ae37ef11b136ea224fe,,,,,,,,,2463,36.3828125,73.01953125,1,0,0,response1disk,,7,27.92578125,0.296875,1,0,0,rectangle,27.92578125,0.296875,1,0,0,27.92578125,0.296875,1,0,0,0,95,95,48,1,,,,,,,,
,,,,,,,,,,,,,FF,,,,,,,,1.4997,,,,,,,,,,,,,,,,,,,,,,60fce1afd66e85b2f0cc4e68,61036cfe377eb09d6274ba28,2021-07-29_23h08.18.578,Simcolourproject_2stim_asymm_v5,2020.2.10,MacIntel,60,61025ae37ef11b136ea224fe,,,,,,,,,347,33.59765625,-91.2109375,1,0,0,response3disk,,4,19.23046875,-10.84765625,1,0,0,rectangle,19.23046875,-10.84765625,1,0,0,19.23046875,-10.84765625,1,0,0,0,96,96,19,1,,,,,,,,
,,,,,,,,,,,,,FF,,,,,,,,1.1505,,,,,,,,,,,,,,,,,,,,,,60fce1afd66e85b2f0cc4e68,61036cfe377eb09d6274ba28,2021-07-29_23h08.18.578,Simcolourproject_2stim_asymm_v5,2020.2.10,MacIntel,60,61025ae37ef11b136ea224fe,,,,,,,,,2790,-37.65234375,-97.91015625,1,0,0,response5disk,,3,3.95703125,-6.76171875,1,0,0,rectangle,3.95703125,-6.76171875,1,0,0,3.95703125,-6.76171875,1,0,0,0,97,97,152,1,,,,,,,,
,,,,,,,,,,,,,FF,,,,,,,,1.8495,,,,,,,,,,,,,,,,,,,,,,60fce1afd66e85b2f0cc4e68,61036cfe377eb09d6274ba28,2021-07-29_23h08.18.578,Simcolourproject_2stim_asymm_v5,2020.2.10,MacIntel,60,61025ae37ef11b136ea224fe,,,,,,,,,1657,80.4140625,34.46875,1,0,0,response1disk,,6,20.25,-1.6953125,1,0,0,rectangle,20.25,-1.6953125,1,0,0,20.25,-1.6953125,1,0,0,0,98,98,7,1,,,,,,,,
,,,,,,,,,,,,,FF,,,,,,,,1.2499,,,,,,,,,,,,,,,,,,,,,,60fce1afd66e85b2f0cc4e68,61036cfe377eb09d6274ba28,2021-07-29_23h08.18.578,Simcolourproject_2stim_asymm_v5,2020.2.10,MacIntel,60,61025ae37ef11b136ea224fe,,,,,,,,,3610,47.59375,70.1875,1,0,0,response1disk,,7,25.13671875,2.48828125,1,0,0,rectangle,25.13671875,2.48828125,1,0,0,25.13671875,2.48828125,1,0,0,0,99,99,10,1,,,,,,,,
,,,,,,,,,,,,,FF,,,,,,,,1.1495,,,,,,,,,,,,,,,,,,,,,,60fce1afd66e85b2f0cc4e68,61036cfe377eb09d6274ba28,2021-07-29_23h08.18.578,Simcolourproject_2stim_asymm_v5,2020.2.10,MacIntel,60,61025ae37ef11b136ea224fe,,,,,,,,,3496,78.7578125,29.44921875,1,0,0,response1disk,,6,22.6015625,6.84375,1,0,0,rectangle,22.6015625,6.84375,1,0,0,22.6015625,6.84375,1,0,0,0,100,100,21,1,,,,,,,,
,,,,,,,,,,,,,FF,,,,,,,,1.2163,,,,,,,,,,,,,,,,,,,,,,60fce1afd66e85b2f0cc4e68,61036cfe377eb09d6274ba28,2021-07-29_23h08.18.578,Simcolourproject_2stim_asymm_v5,2020.2.10,MacIntel,60,61025ae37ef11b136ea224fe,,,,,,,,,3542,82.78515625,37.56640625,1,0,0,response1disk,,6,-6.29296875,-1.1015625,1,0,0,rectangle,-6.29296875,-1.1015625,1,0,0,-6.29296875,-1.1015625,1,0,0,0,101,101,109,1,,,,,,,,
,,,,,,,,,,,,,FF,,,,,,,,1.9674,,,,,,,,,,,,,,,,,,,,,,60fce1afd66e85b2f0cc4e68,61036cfe377eb09d6274ba28,2021-07-29_23h08.18.578,Simcolourproject_2stim_asymm_v5,2020.2.10,MacIntel,60,61025ae37ef11b136ea224fe,,,,,,,,,3607,72.60546875,46.25390625,1,0,0,response1disk,,6,6.265625,-0.25,1,0,0,rectangle,6.265625,-0.25,1,0,0,6.265625,-0.25,1,0,0,0,102,102,12,1,,,,,,,,
,,,,,,,,,,,,,FF,,,,,,,,1.7321,,,,,,,,,,,,,,,,,,,,,,60fce1afd66e85b2f0cc4e68,61036cfe377eb09d6274ba28,2021-07-29_23h08.18.578,Simcolourproject_2stim_asymm_v5,2020.2.10,MacIntel,60,61025ae37ef11b136ea224fe,,,,,,,,,3926,50.5390625,-86.58203125,1,0,0,response3disk,,4,15.07421875,1.66796875,1,0,0,rectangle,15.07421875,1.66796875,1,0,0,15.07421875,1.66796875,1,0,0,0,103,103,26,1,,,,,,,,
,,,,,,,,,,,,,FF,,,,,,,,1.416,,,,,,,,,,,,,,,,,,,,,,60fce1afd66e85b2f0cc4e68,61036cfe377eb09d6274ba28,2021-07-29_23h08.18.578,Simcolourproject_2stim_asymm_v5,2020.2.10,MacIntel,60,61025ae37ef11b136ea224fe,,,,,,,,,1283,93.95703125,-28.53515625,1,0,0,response3disk,,5,19.625,-10.52734375,1,0,0,rectangle,19.625,-10.52734375,1,0,0,19.625,-10.52734375,1,0,0,0,104,104,157,1,,,,,,,,
,,,,,,,,,,,,,FF,,,,,,,,1.3827,,,,,,,,,,,,,,,,,,,,,,60fce1afd66e85b2f0cc4e68,61036cfe377eb09d6274ba28,2021-07-29_23h08.18.578,Simcolourproject_2stim_asymm_v5,2020.2.10,MacIntel,60,61025ae37ef11b136ea224fe,,,,,,,,,122,83.2109375,-49.50390625,1,0,0,response3disk,,5,22.3828125,-4.10546875,1,0,0,rectangle,22.3828125,-4.10546875,1,0,0,22.3828125,-4.10546875,1,0,0,0,105,105,123,1,,,,,,,,
,,,,,,,,,,,,,FF,,,,,,,,1.7322,,,,,,,,,,,,,,,,,,,,,,60fce1afd66e85b2f0cc4e68,61036cfe377eb09d6274ba28,2021-07-29_23h08.18.578,Simcolourproject_2stim_asymm_v5,2020.2.10,MacIntel,60,61025ae37ef11b136ea224fe,,,,,,,,,3887,45.7890625,-82.3125,1,0,0,response3disk,,4,16.7265625,-17.18359375,1,0,0,rectangle,16.7265625,-17.18359375,1,0,0,16.7265625,-17.18359375,1,0,0,0,106,106,35,1,,,,,,,,
,,,,,,,,,,,,,FF,,,,,,,,1.1329,,,,,,,,,,,,,,,,,,,,,,60fce1afd66e85b2f0cc4e68,61036cfe377eb09d6274ba28,2021-07-29_23h08.18.578,Simcolourproject_2stim_asymm_v5,2020.2.10,MacIntel,60,61025ae37ef11b136ea224fe,,,,,,,,,1618,55.1953125,-97.2421875,1,0,0,response3disk,,4,19.46875,-4.40625,1,0,0,rectangle,19.46875,-4.40625,1,0,0,19.46875,-4.40625,1,0,0,0,107,107,154,1,,,,,,,,
,,,,,,,,,,,,,FF,,,,,,,,0.8501,,,,,,,,,,,,,,,,,,,,,,60fce1afd66e85b2f0cc4e68,61036cfe377eb09d6274ba28,2021-07-29_23h08.18.578,Simcolourproject_2stim_asymm_v5,2020.2.10,MacIntel,60,61025ae37ef11b136ea224fe,,,,,,,,,3065,-40.66796875,-83.6328125,1,0,0,response5disk,,3,-0.39453125,1.42578125,1,0,0,rectangle,-0.39453125,1.42578125,1,0,0,-0.39453125,1.42578125,1,0,0,0,108,108,55,1,,,,,,,,
,,,,,,,,,,,,,FF,,,,,,,,2.0012,,,,,,,,,,,,,,,,,,,,,,60fce1afd66e85b2f0cc4e68,61036cfe377eb09d6274ba28,2021-07-29_23h08.18.578,Simcolourproject_2stim_asymm_v5,2020.2.10,MacIntel,60,61025ae37ef11b136ea224fe,,,,,,,,,403,53.3203125,-98.55859375,1,0,0,response3disk,,4,21.5390625,-4.46484375,1,0,0,rectangle,21.5390625,-4.46484375,1,0,0,21.5390625,-4.46484375,1,0,0,0,109,109,31,1,,,,,,,,
,,,,,,,,,,,,,FF,,,,,,,,1.9324,,,,,,,,,,,,,,,,,,,,,,60fce1afd66e85b2f0cc4e68,61036cfe377eb09d6274ba28,2021-07-29_23h08.18.578,Simcolourproject_2stim_asymm_v5,2020.2.10,MacIntel,60,61025ae37ef11b136ea224fe,,,,,,,,,4037,-64.5859375,-40.93359375,1,0,0,response5disk,,2,6.28125,-13.56640625,1,0,0,rectangle,6.28125,-13.56640625,1,0,0,6.28125,-13.56640625,1,0,0,0,110,110,29,1,,,,,,,,
,,,,,,,,,,,,,FF,,,,,,,,1.8998,,,,,,,,,,,,,,,,,,,,,,60fce1afd66e85b2f0cc4e68,61036cfe377eb09d6274ba28,2021-07-29_23h08.18.578,Simcolourproject_2stim_asymm_v5,2020.2.10,MacIntel,60,61025ae37ef11b136ea224fe,,,,,,,,,3174,83.234375,-42.9375,1,0,0,response3disk,,5,6.77734375,-1.84765625,1,0,0,rectangle,6.77734375,-1.84765625,1,0,0,6.77734375,-1.84765625,1,0,0,0,111,111,63,1,,,,,,,,
,,,,,,,,,,,,,FF,,,,,,,,1.3349,,,,,,,,,,,,,,,,,,,,,,60fce1afd66e85b2f0cc4e68,61036cfe377eb09d6274ba28,2021-07-29_23h08.18.578,Simcolourproject_2stim_asymm_v5,2020.2.10,MacIntel,60,61025ae37ef11b136ea224fe,,,,,,,,,725,-24.73828125,-94.96484375,1,0,0,response5disk,,3,16.19140625,-12.14453125,1,0,0,rectangle,16.19140625,-12.14453125,1,0,0,16.19140625,-12.14453125,1,0,0,0,112,112,24,1,,,,,,,,
,,,,,,,,,,,,,FF,,,,,,,,0.8507,,,,,,,,,,,,,,,,,,,,,,60fce1afd66e85b2f0cc4e68,61036cfe377eb09d6274ba28,2021-07-29_23h08.18.578,Simcolourproject_2stim_asymm_v5,2020.2.10,MacIntel,60,61025ae37ef11b136ea224fe,,,,,,,,,2837,-35.24609375,-84.92578125,1,0,0,response5disk,,3,0.53125,3.97265625,1,0,0,rectangle,0.53125,3.97265625,1,0,0,0.53125,3.97265625,1,0,0,0,113,113,1,1,,,,,,,,
,,,,,,,,,,,,,FF,,,,,,,,1.2995,,,,,,,,,,,,,,,,,,,,,,60fce1afd66e85b2f0cc4e68,61036cfe377eb09d6274ba28,2021-07-29_23h08.18.578,Simcolourproject_2stim_asymm_v5,2020.2.10,MacIntel,60,61025ae37ef11b136ea224fe,,,,,,,,,2143,79.67578125,45.5078125,1,0,0,response1disk,,6,12.11328125,-9.171875,1,0,0,rectangle,12.11328125,-9.171875,1,0,0,12.11328125,-9.171875,1,0,0,0,114,114,80,1,,,,,,,,
,,,,,,,,,,,,,FF,,,,,,,,1.7335,,,,,,,,,,,,,,,,,,,,,,60fce1afd66e85b2f0cc4e68,61036cfe377eb09d6274ba28,2021-07-29_23h08.18.578,Simcolourproject_2stim_asymm_v5,2020.2.10,MacIntel,60,61025ae37ef11b136ea224fe,,,,,,,,,1220,87.9765625,-33.86328125,1,0,0,response3disk,,5,4.08203125,6.3125,1,0,0,rectangle,4.08203125,6.3125,1,0,0,4.08203125,6.3125,1,0,0,0,115,115,52,1,,,,,,,,
,,,,,,,,,,,,,FF,,,,,,,,1.4989,,,,,,,,,,,,,,,,,,,,,,60fce1afd66e85b2f0cc4e68,61036cfe377eb09d6274ba28,2021-07-29_23h08.18.578,Simcolourproject_2stim_asymm_v5,2020.2.10,MacIntel,60,61025ae37ef11b136ea224fe,,,,,,,,,935,40.67578125,-97.80859375,1,0,0,response3disk,,4,30.3359375,-2.21484375,1,0,0,rectangle,30.3359375,-2.21484375,1,0,0,30.3359375,-2.21484375,1,0,0,0,116,116,104,1,,,,,,,,
,,,,,,,,,,,,,FF,,,,,,,,1.4988,,,,,,,,,,,,,,,,,,,,,,60fce1afd66e85b2f0cc4e68,61036cfe377eb09d6274ba28,2021-07-29_23h08.18.578,Simcolourproject_2stim_asymm_v5,2020.2.10,MacIntel,60,61025ae37ef11b136ea224fe,,,,,,,,,2449,84.19921875,-20.91015625,1,0,0,response3disk,,5,-2.92578125,1.7265625,1,0,0,rectangle,-2.92578125,1.7265625,1,0,0,-2.92578125,1.7265625,1,0,0,0,117,117,0,1,,,,,,,,
,,,,,,,,,,,,,FF,,,,,,,,1.8003,,,,,,,,,,,,,,,,,,,,,,60fce1afd66e85b2f0cc4e68,61036cfe377eb09d6274ba28,2021-07-29_23h08.18.578,Simcolourproject_2stim_asymm_v5,2020.2.10,MacIntel,60,61025ae37ef11b136ea224fe,,,,,,,,,2193,44.57421875,-88.18359375,1,0,0,response3disk,,4,6.9609375,-10.30859375,1,0,0,rectangle,6.9609375,-10.30859375,1,0,0,6.9609375,-10.30859375,1,0,0,0,118,118,145,1,,,,,,,,
,,,,,,,,,,,,,FF,,,,,,,,1.7496,,,,,,,,,,,,,,,,,,,,,,60fce1afd66e85b2f0cc4e68,61036cfe377eb09d6274ba28,2021-07-29_23h08.18.578,Simcolourproject_2stim_asymm_v5,2020.2.10,MacIntel,60,61025ae37ef11b136ea224fe,,,,,,,,,3256,42.1640625,-89.8671875,1,0,0,response3disk,,4,16.05859375,6.296875,1,0,0,rectangle,16.05859375,6.296875,1,0,0,16.05859375,6.296875,1,0,0,0,119,119,113,1,,,,,,,,
,,,,,,,,,,,,,FF,,,,,,,,1.4343,,,,,,,,,,,,,,,,,,,,,,60fce1afd66e85b2f0cc4e68,61036cfe377eb09d6274ba28,2021-07-29_23h08.18.578,Simcolourproject_2stim_asymm_v5,2020.2.10,MacIntel,60,61025ae37ef11b136ea224fe,,,,,,,,,66,45.33984375,-91.69921875,1,0,0,response3disk,,4,20.5234375,4.45703125,1,0,0,rectangle,20.5234375,4.45703125,1,0,0,20.5234375,4.45703125,1,0,0,0,120,120,14,1,,,,,,,,
,,,,,,,,,,,,,FF,,,,,,,,1.1331,,,,,,,,,,,,,,,,,,,,,,60fce1afd66e85b2f0cc4e68,61036cfe377eb09d6274ba28,2021-07-29_23h08.18.578,Simcolourproject_2stim_asymm_v5,2020.2.10,MacIntel,60,61025ae37ef11b136ea224fe,,,,,,,,,2676,-46.859375,-88.64453125,1,0,0,response5disk,,3,-12.46484375,-6.515625,1,0,0,rectangle,-12.46484375,-6.515625,1,0,0,-12.46484375,-6.515625,1,0,0,0,121,121,101,1,,,,,,,,
,,,,,,,,,,,,,FF,,,,,,,,1.1508,,,,,,,,,,,,,,,,,,,,,,60fce1afd66e85b2f0cc4e68,61036cfe377eb09d6274ba28,2021-07-29_23h08.18.578,Simcolourproject_2stim_asymm_v5,2020.2.10,MacIntel,60,61025ae37ef11b136ea224fe,,,,,,,,,4144,-46.9609375,-82.890625,1,0,0,response5disk,,3,6.89453125,5.7890625,1,0,0,rectangle,6.89453125,5.7890625,1,0,0,6.89453125,5.7890625,1,0,0,0,122,122,95,1,,,,,,,,
,,,,,,,,,,,,,FF,,,,,,,,0.834,,,,,,,,,,,,,,,,,,,,,,60fce1afd66e85b2f0cc4e68,61036cfe377eb09d6274ba28,2021-07-29_23h08.18.578,Simcolourproject_2stim_asymm_v5,2020.2.10,MacIntel,60,61025ae37ef11b136ea224fe,,,,,,,,,3476,-31.1953125,-87.90625,1,0,0,response5disk,,3,-8.4921875,-3.7421875,1,0,0,rectangle,-8.4921875,-3.7421875,1,0,0,-8.4921875,-3.7421875,1,0,0,0,123,123,91,1,,,,,,,,
,,,,,,,,,,,,,FF,,,,,,,,1.4828,,,,,,,,,,,,,,,,,,,,,,60fce1afd66e85b2f0cc4e68,61036cfe377eb09d6274ba28,2021-07-29_23h08.18.578,Simcolourproject_2stim_asymm_v5,2020.2.10,MacIntel,60,61025ae37ef11b136ea224fe,,,,,,,,,2935,-79.1953125,-31.390625,1,0,0,response5disk,,2,-7.2109375,-4.0625,1,0,0,rectangle,-7.2109375,-4.0625,1,0,0,-7.2109375,-4.0625,1,0,0,0,124,124,88,1,,,,,,,,
,,,,,,,,,,,,,FF,,,,,,,,0.6834,,,,,,,,,,,,,,,,,,,,,,60fce1afd66e85b2f0cc4e68,61036cfe377eb09d6274ba28,2021-07-29_23h08.18.578,Simcolourproject_2stim_asymm_v5,2020.2.10,MacIntel,60,61025ae37ef11b136ea224fe,,,,,,,,,3092,-72.75390625,-24.734375,1,0,0,response5disk,,2,-11.02734375,-14.12109375,1,0,0,rectangle,-11.02734375,-14.12109375,1,0,0,-11.02734375,-14.12109375,1,0,0,0,125,125,36,1,,,,,,,,
,,,,,,,,,,,,,FF,,,,,,,,0.9998,,,,,,,,,,,,,,,,,,,,,,60fce1afd66e85b2f0cc4e68,61036cfe377eb09d6274ba28,2021-07-29_23h08.18.578,Simcolourproject_2stim_asymm_v5,2020.2.10,MacIntel,60,61025ae37ef11b136ea224fe,,,,,,,,,4174,31.29296875,82.57421875,1,0,0,response1disk,,7,8.44921875,11.6484375,1,0,0,rectangle,8.44921875,11.6484375,1,0,0,8.44921875,11.6484375,1,0,0,0,126,126,81,1,,,,,,,,
,,,,,,,,,,,,,FF,,,,,,,,1.0997,,,,,,,,,,,,,,,,,,,,,,60fce1afd66e85b2f0cc4e68,61036cfe377eb09d6274ba28,2021-07-29_23h08.18.578,Simcolourproject_2stim_asymm_v5,2020.2.10,MacIntel,60,61025ae37ef11b136ea224fe,,,,,,,,,3779,-34.98828125,-81.3203125,1,0,0,response5disk,,3,-2.55859375,2.90625,1,0,0,rectangle,-2.55859375,2.90625,1,0,0,-2.55859375,2.90625,1,0,0,0,127,127,37,1,,,,,,,,
,,,,,,,,,,,,,FF,,,,,,,,1.2837,,,,,,,,,,,,,,,,,,,,,,60fce1afd66e85b2f0cc4e68,61036cfe377eb09d6274ba28,2021-07-29_23h08.18.578,Simcolourproject_2stim_asymm_v5,2020.2.10,MacIntel,60,61025ae37ef11b136ea224fe,,,,,,,,,1271,29.2578125,-75.70703125,1,0,0,response3disk,,4,5.0625,-2.01171875,1,0,0,rectangle,5.0625,-2.01171875,1,0,0,5.0625,-2.01171875,1,0,0,0,128,128,17,1,,,,,,,,
,,,,,,,,,,,,,FF,,,,,,,,0.9487,,,,,,,,,,,,,,,,,,,,,,60fce1afd66e85b2f0cc4e68,61036cfe377eb09d6274ba28,2021-07-29_23h08.18.578,Simcolourproject_2stim_asymm_v5,2020.2.10,MacIntel,60,61025ae37ef11b136ea224fe,,,,,,,,,3544,-31.390625,-89.21484375,1,0,0,response5disk,,3,-14.203125,1.7265625,1,0,0,rectangle,-14.203125,1.7265625,1,0,0,-14.203125,1.7265625,1,0,0,0,129,129,49,1,,,,,,,,
,,,,,,,,,,,,,FF,,,,,,,,1.0673,,,,,,,,,,,,,,,,,,,,,,60fce1afd66e85b2f0cc4e68,61036cfe377eb09d6274ba28,2021-07-29_23h08.18.578,Simcolourproject_2stim_asymm_v5,2020.2.10,MacIntel,60,61025ae37ef11b136ea224fe,,,,,,,,,788,87.34375,-59.58203125,1,0,0,response3disk,,5,26.25,-12.26171875,1,0,0,rectangle,26.25,-12.26171875,1,0,0,26.25,-12.26171875,1,0,0,0,130,130,148,1,,,,,,,,
,,,,,,,,,,,,,FF,,,,,,,,1.432,,,,,,,,,,,,,,,,,,,,,,60fce1afd66e85b2f0cc4e68,61036cfe377eb09d6274ba28,2021-07-29_23h08.18.578,Simcolourproject_2stim_asymm_v5,2020.2.10,MacIntel,60,61025ae37ef11b136ea224fe,,,,,,,,,3186,-81.109375,-49.29296875,1,0,0,response5disk,,2,-15.796875,-2.26953125,1,0,0,rectangle,-15.796875,-2.26953125,1,0,0,-15.796875,-2.26953125,1,0,0,0,131,131,137,1,,,,,,,,
,,,,,,,,,,,,,FF,,,,,,,,1.0349,,,,,,,,,,,,,,,,,,,,,,60fce1afd66e85b2f0cc4e68,61036cfe377eb09d6274ba28,2021-07-29_23h08.18.578,Simcolourproject_2stim_asymm_v5,2020.2.10,MacIntel,60,61025ae37ef11b136ea224fe,,,,,,,,,2595,-38.15234375,-88.2890625,1,0,0,response5disk,,3,0.3828125,-14.87890625,1,0,0,rectangle,0.3828125,-14.87890625,1,0,0,0.3828125,-14.87890625,1,0,0,0,132,132,89,1,,,,,,,,
,,,,,,,,,,,,,FF,,,,,,,,1.1981,,,,,,,,,,,,,,,,,,,,,,60fce1afd66e85b2f0cc4e68,61036cfe377eb09d6274ba28,2021-07-29_23h08.18.578,Simcolourproject_2stim_asymm_v5,2020.2.10,MacIntel,60,61025ae37ef11b136ea224fe,,,,,,,,,3040,-67.8671875,26.359375,1,0,0,response7disk,,1,-9.671875,5.76953125,1,0,0,rectangle,-9.671875,5.76953125,1,0,0,-9.671875,5.76953125,1,0,0,0,133,133,11,1,,,,,,,,
,,,,,,,,,,,,,FF,,,,,,,,1.0167,,,,,,,,,,,,,,,,,,,,,,60fce1afd66e85b2f0cc4e68,61036cfe377eb09d6274ba28,2021-07-29_23h08.18.578,Simcolourproject_2stim_asymm_v5,2020.2.10,MacIntel,60,61025ae37ef11b136ea224fe,,,,,,,,,1270,79.98046875,34.578125,1,0,0,response1disk,,6,10.7421875,4.62109375,1,0,0,rectangle,10.7421875,4.62109375,1,0,0,10.7421875,4.62109375,1,0,0,0,134,134,83,1,,,,,,,,
,,,,,,,,,,,,,FF,,,,,,,,1.0658,,,,,,,,,,,,,,,,,,,,,,60fce1afd66e85b2f0cc4e68,61036cfe377eb09d6274ba28,2021-07-29_23h08.18.578,Simcolourproject_2stim_asymm_v5,2020.2.10,MacIntel,60,61025ae37ef11b136ea224fe,,,,,,,,,4238,-25.58203125,-86.6953125,1,0,0,response5disk,,3,17.8671875,7.1640625,1,0,0,rectangle,17.8671875,7.1640625,1,0,0,17.8671875,7.1640625,1,0,0,0,135,135,90,1,,,,,,,,
,,,,,,,,,,,,,FF,,,,,,,,0.8346,,,,,,,,,,,,,,,,,,,,,,60fce1afd66e85b2f0cc4e68,61036cfe377eb09d6274ba28,2021-07-29_23h08.18.578,Simcolourproject_2stim_asymm_v5,2020.2.10,MacIntel,60,61025ae37ef11b136ea224fe,,,,,,,,,4004,49.10546875,-86.9921875,1,0,0,response3disk,,4,27.85546875,-4,1,0,0,rectangle,27.85546875,-4,1,0,0,27.85546875,-4,1,0,0,0,136,136,45,1,,,,,,,,
,,,,,,,,,,,,,FF,,,,,,,,1.2167,,,,,,,,,,,,,,,,,,,,,,60fce1afd66e85b2f0cc4e68,61036cfe377eb09d6274ba28,2021-07-29_23h08.18.578,Simcolourproject_2stim_asymm_v5,2020.2.10,MacIntel,60,61025ae37ef11b136ea224fe,,,,,,,,,2072,80.4140625,-52.05078125,1,0,0,response3disk,,5,23.70703125,-6.26953125,1,0,0,rectangle,-62.0625,-30.015625,1,0,0,-12.234375,-12.41796875,1,0,0,0,137,137,118,1,,response5disk_3,TRUE,2,2,"[63,178,164,59,12,2,90,283,57,56,316,58,48,86,311,163,93,138,212,42]",1.9326,rectangle
,,,,,,,,,,,,,FF,,,,,,,,0.8016,,,,,,,,,,,,,,,,,,,,,,60fce1afd66e85b2f0cc4e68,61036cfe377eb09d6274ba28,2021-07-29_23h08.18.578,Simcolourproject_2stim_asymm_v5,2020.2.10,MacIntel,60,61025ae37ef11b136ea224fe,,,,,,,,,1052,-41.66796875,-95.828125,1,0,0,response5disk,,3,7.46875,-6.80078125,1,0,0,rectangle,7.46875,-6.80078125,1,0,0,7.46875,-6.80078125,1,0,0,0,138,138,115,1,,,,,,,,
,,,,,,,,,,,,,FF,,,,,,,,0.9177,,,,,,,,,,,,,,,,,,,,,,60fce1afd66e85b2f0cc4e68,61036cfe377eb09d6274ba28,2021-07-29_23h08.18.578,Simcolourproject_2stim_asymm_v5,2020.2.10,MacIntel,60,61025ae37ef11b136ea224fe,,,,,,,,,1783,34.94921875,-88.9609375,1,0,0,response3disk,,4,8.80078125,2.00390625,1,0,0,rectangle,8.80078125,2.00390625,1,0,0,8.80078125,2.00390625,1,0,0,0,139,139,42,1,,,,,,,,
,,,,,,,,,,,,,FF,,,,,,,,0.8677,,,,,,,,,,,,,,,,,,,,,,60fce1afd66e85b2f0cc4e68,61036cfe377eb09d6274ba28,2021-07-29_23h08.18.578,Simcolourproject_2stim_asymm_v5,2020.2.10,MacIntel,60,61025ae37ef11b136ea224fe,,,,,,,,,1339,71.359375,-40.34765625,1,0,0,response3disk,,5,9.09375,-7.9296875,1,0,0,rectangle,9.09375,-7.9296875,1,0,0,9.09375,-7.9296875,1,0,0,0,140,140,159,1,,,,,,,,
,,,,,,,,,,,,,FF,,,,,,,,0.8499,,,,,,,,,,,,,,,,,,,,,,60fce1afd66e85b2f0cc4e68,61036cfe377eb09d6274ba28,2021-07-29_23h08.18.578,Simcolourproject_2stim_asymm_v5,2020.2.10,MacIntel,60,61025ae37ef11b136ea224fe,,,,,,,,,75,-46.81640625,-91.90234375,1,0,0,response5disk,,3,-12.046875,-14.38671875,1,0,0,rectangle,-12.046875,-14.38671875,1,0,0,-12.046875,-14.38671875,1,0,0,0,141,141,131,1,,,,,,,,
,,,,,,,,,,,,,FF,,,,,,,,2.2317,,,,,,,,,,,,,,,,,,,,,,60fce1afd66e85b2f0cc4e68,61036cfe377eb09d6274ba28,2021-07-29_23h08.18.578,Simcolourproject_2stim_asymm_v5,2020.2.10,MacIntel,60,61025ae37ef11b136ea224fe,,,,,,,,,3289,82.5625,-40.96484375,1,0,0,response3disk,,5,7.06640625,-10.33984375,1,0,0,rectangle,7.06640625,-10.33984375,1,0,0,7.06640625,-10.33984375,1,0,0,0,142,142,158,1,,,,,,,,
,,,,,,,,,,,,,FF,,,,,,,,1.4004,,,,,,,,,,,,,,,,,,,,,,60fce1afd66e85b2f0cc4e68,61036cfe377eb09d6274ba28,2021-07-29_23h08.18.578,Simcolourproject_2stim_asymm_v5,2020.2.10,MacIntel,60,61025ae37ef11b136ea224fe,,,,,,,,,3365,18.46484375,95.078125,1,0,0,response1disk,,7,17.984375,2.40625,1,0,0,rectangle,17.984375,2.40625,1,0,0,17.984375,2.40625,1,0,0,0,143,143,151,1,,,,,,,,
,,,,,,,,,,,,,FF,,,,,,,,1.0492,,,,,,,,,,,,,,,,,,,,,,60fce1afd66e85b2f0cc4e68,61036cfe377eb09d6274ba28,2021-07-29_23h08.18.578,Simcolourproject_2stim_asymm_v5,2020.2.10,MacIntel,60,61025ae37ef11b136ea224fe,,,,,,,,,522,-44.82421875,-82.09765625,1,0,0,response5disk,,3,-13.75390625,-2.109375,1,0,0,rectangle,-13.75390625,-2.109375,1,0,0,-13.75390625,-2.109375,1,0,0,0,144,144,73,1,,,,,,,,
,,,,,,,,,,,,,FF,,,,,,,,0.8161,,,,,,,,,,,,,,,,,,,,,,60fce1afd66e85b2f0cc4e68,61036cfe377eb09d6274ba28,2021-07-29_23h08.18.578,Simcolourproject_2stim_asymm_v5,2020.2.10,MacIntel,60,61025ae37ef11b136ea224fe,,,,,,,,,2168,-35.53515625,-88.19921875,1,0,0,response5disk,,3,-10.10546875,2.83984375,1,0,0,rectangle,-10.10546875,2.83984375,1,0,0,-10.10546875,2.83984375,1,0,0,0,145,145,75,1,,,,,,,,
,,,,,,,,,,,,,FF,,,,,,,,0.9,,,,,,,,,,,,,,,,,,,,,,60fce1afd66e85b2f0cc4e68,61036cfe377eb09d6274ba28,2021-07-29_23h08.18.578,Simcolourproject_2stim_asymm_v5,2020.2.10,MacIntel,60,61025ae37ef11b136ea224fe,,,,,,,,,917,34.6796875,-69.19921875,1,0,0,response3disk,,4,3.484375,0.03515625,1,0,0,rectangle,3.484375,0.03515625,1,0,0,3.484375,0.03515625,1,0,0,0,146,146,6,1,,,,,,,,
,,,,,,,,,,,,,FF,,,,,,,,7.5491,,,,,,,,,,,,,,,,,,,,,,60fce1afd66e85b2f0cc4e68,61036cfe377eb09d6274ba28,2021-07-29_23h08.18.578,Simcolourproject_2stim_asymm_v5,2020.2.10,MacIntel,60,61025ae37ef11b136ea224fe,,,,,,,,,3461,-25.75,-93.54296875,1,0,0,response5disk,,3,3.6875,17.8671875,1,0,0,rectangle,3.6875,17.8671875,1,0,0,3.6875,17.8671875,1,0,0,0,147,147,146,1,,,,,,,,
,,,,,,,,,,,,,FF,,,,,,,,1.7828,,,,,,,,,,,,,,,,,,,,,,60fce1afd66e85b2f0cc4e68,61036cfe377eb09d6274ba28,2021-07-29_23h08.18.578,Simcolourproject_2stim_asymm_v5,2020.2.10,MacIntel,60,61025ae37ef11b136ea224fe,,,,,,,,,317,78.07421875,-55.265625,1,0,0,response3disk,,5,-2.796875,-5.53515625,1,0,0,rectangle,-2.796875,-5.53515625,1,0,0,-2.796875,-5.53515625,1,0,0,0,148,148,116,1,,,,,,,,
,,,,,,,,,,,,,FF,,,,,,,,0.9177,,,,,,,,,,,,,,,,,,,,,,60fce1afd66e85b2f0cc4e68,61036cfe377eb09d6274ba28,2021-07-29_23h08.18.578,Simcolourproject_2stim_asymm_v5,2020.2.10,MacIntel,60,61025ae37ef11b136ea224fe,,,,,,,,,2942,-30.984375,-91.2109375,1,0,0,response5disk,,3,11.95703125,-5.9296875,1,0,0,rectangle,11.95703125,-5.9296875,1,0,0,11.95703125,-5.9296875,1,0,0,0,149,149,132,1,,,,,,,,
,,,,,,,,,,,,,FF,,,,,,,,1.016,,,,,,,,,,,,,,,,,,,,,,60fce1afd66e85b2f0cc4e68,61036cfe377eb09d6274ba28,2021-07-29_23h08.18.578,Simcolourproject_2stim_asymm_v5,2020.2.10,MacIntel,60,61025ae37ef11b136ea224fe,,,,,,,,,885,-47.55859375,85.00390625,1,0,0,response7disk,,0,-10.92578125,12.66796875,1,0,0,rectangle,-10.92578125,12.66796875,1,0,0,-10.92578125,12.66796875,1,0,0,0,150,150,5,1,,,,,,,,
,,,,,,,,,,,,,FF,,,,,,,,1.0836,,,,,,,,,,,,,,,,,,,,,,60fce1afd66e85b2f0cc4e68,61036cfe377eb09d6274ba28,2021-07-29_23h08.18.578,Simcolourproject_2stim_asymm_v5,2020.2.10,MacIntel,60,61025ae37ef11b136ea224fe,,,,,,,,,2425,-61.828125,-41.97265625,1,0,0,response5disk,,2,-7.62109375,-6.81640625,1,0,0,rectangle,-7.62109375,-6.81640625,1,0,0,-7.62109375,-6.81640625,1,0,0,0,151,151,96,1,,,,,,,,
,,,,,,,,,,,,,FF,,,,,,,,1.7178,,,,,,,,,,,,,,,,,,,,,,60fce1afd66e85b2f0cc4e68,61036cfe377eb09d6274ba28,2021-07-29_23h08.18.578,Simcolourproject_2stim_asymm_v5,2020.2.10,MacIntel,60,61025ae37ef11b136ea224fe,,,,,,,,,4324,71.453125,-33.23828125,1,0,0,response3disk,,5,14.11328125,-13.47265625,1,0,0,rectangle,14.11328125,-13.47265625,1,0,0,14.11328125,-13.47265625,1,0,0,0,152,152,66,1,,,,,,,,
,,,,,,,,,,,,,FF,,,,,,,,1.4329,,,,,,,,,,,,,,,,,,,,,,60fce1afd66e85b2f0cc4e68,61036cfe377eb09d6274ba28,2021-07-29_23h08.18.578,Simcolourproject_2stim_asymm_v5,2020.2.10,MacIntel,60,61025ae37ef11b136ea224fe,,,,,,,,,2948,-76.23046875,-47.01171875,1,0,0,response5disk,,2,14.9140625,-11.34375,1,0,0,rectangle,14.9140625,-11.34375,1,0,0,14.9140625,-11.34375,1,0,0,0,153,153,34,1,,,,,,,,
,,,,,,,,,,,,,FF,,,,,,,,1.0992,,,,,,,,,,,,,,,,,,,,,,60fce1afd66e85b2f0cc4e68,61036cfe377eb09d6274ba28,2021-07-29_23h08.18.578,Simcolourproject_2stim_asymm_v5,2020.2.10,MacIntel,60,61025ae37ef11b136ea224fe,,,,,,,,,1818,-82.703125,-20.4375,1,0,0,response5disk,,2,-18.3984375,2.30078125,1,0,0,rectangle,-18.3984375,2.30078125,1,0,0,-18.3984375,2.30078125,1,0,0,0,154,154,138,1,,,,,,,,
,,,,,,,,,,,,,FF,,,,,,,,2.1496,,,,,,,,,,,,,,,,,,,,,,60fce1afd66e85b2f0cc4e68,61036cfe377eb09d6274ba28,2021-07-29_23h08.18.578,Simcolourproject_2stim_asymm_v5,2020.2.10,MacIntel,60,61025ae37ef11b136ea224fe,,,,,,,,,2098,-85.8515625,24.73828125,1,0,0,response7disk,,1,-3.69921875,14.40234375,1,0,0,rectangle,-3.69921875,14.40234375,1,0,0,-3.69921875,14.40234375,1,0,0,0,155,155,92,1,,,,,,,,
,,,,,,,,,,,,,FF,,,,,,,,1.0165,,,,,,,,,,,,,,,,,,,,,,60fce1afd66e85b2f0cc4e68,61036cfe377eb09d6274ba28,2021-07-29_23h08.18.578,Simcolourproject_2stim_asymm_v5,2020.2.10,MacIntel,60,61025ae37ef11b136ea224fe,,,,,,,,,626,70.9453125,-36.234375,1,0,0,response3disk,,5,8.1171875,-15.734375,1,0,0,rectangle,8.1171875,-15.734375,1,0,0,8.1171875,-15.734375,1,0,0,0,156,156,119,1,,,,,,,,
,,,,,,,,,,,,,FF,,,,,,,,0.8831,,,,,,,,,,,,,,,,,,,,,,60fce1afd66e85b2f0cc4e68,61036cfe377eb09d6274ba28,2021-07-29_23h08.18.578,Simcolourproject_2stim_asymm_v5,2020.2.10,MacIntel,60,61025ae37ef11b136ea224fe,,,,,,,,,4367,-59.77734375,-34.4296875,1,0,0,response5disk,,2,16.2109375,-1.77734375,1,0,0,rectangle,16.2109375,-1.77734375,1,0,0,16.2109375,-1.77734375,1,0,0,0,157,157,72,1,,,,,,,,
,,,,,,,,,,,,,FF,,,,,,,,0.9007,,,,,,,,,,,,,,,,,,,,,,60fce1afd66e85b2f0cc4e68,61036cfe377eb09d6274ba28,2021-07-29_23h08.18.578,Simcolourproject_2stim_asymm_v5,2020.2.10,MacIntel,60,61025ae37ef11b136ea224fe,,,,,,,,,2616,-35.87890625,-61.7578125,1,0,0,response5disk,,3,16.5234375,-6.27734375,1,0,0,rectangle,16.5234375,-6.27734375,1,0,0,16.5234375,-6.27734375,1,0,0,0,158,158,67,1,,,,,,,,
,,,,,,,,,,,,,FF,,,,,,,,1.0335,,,,,,,,,,,,,,,,,,,,,,60fce1afd66e85b2f0cc4e68,61036cfe377eb09d6274ba28,2021-07-29_23h08.18.578,Simcolourproject_2stim_asymm_v5,2020.2.10,MacIntel,60,61025ae37ef11b136ea224fe,,,,,,,,,628,68.09375,34.671875,1,0,0,response1disk,,6,5.2265625,-4.6328125,1,0,0,rectangle,5.2265625,-4.6328125,1,0,0,5.2265625,-4.6328125,1,0,0,0,159,159,38,1,,,,,,,,
,,,,,,,,,,,,,FF,,,,,,,,1.0342,,,,,,,,,,,,,,,,,,,,,,60fce1afd66e85b2f0cc4e68,61036cfe377eb09d6274ba28,2021-07-29_23h08.18.578,Simcolourproject_2stim_asymm_v5,2020.2.10,MacIntel,60,61025ae37ef11b136ea224fe,,,,,,,,,2316,68.609375,42.125,1,0,0,response1disk,,6,13.04296875,6.83984375,1,0,0,rectangle,13.04296875,6.83984375,1,0,0,13.04296875,6.83984375,1,0,0,1,0,160,30,1,,,,,,,,
,,,,,,,,,,,,,FF,,,,,,,,0.8668,,,,,,,,,,,,,,,,,,,,,,60fce1afd66e85b2f0cc4e68,61036cfe377eb09d6274ba28,2021-07-29_23h08.18.578,Simcolourproject_2stim_asymm_v5,2020.2.10,MacIntel,60,61025ae37ef11b136ea224fe,,,,,,,,,3789,75.7265625,-28.4609375,1,0,0,response3disk,,5,4.84375,-2.91015625,1,0,0,rectangle,4.84375,-2.91015625,1,0,0,4.84375,-2.91015625,1,0,0,1,1,161,41,1,,,,,,,,
,,,,,,,,,,,,,FF,,,,,,,,1.3687,,,,,,,,,,,,,,,,,,,,,,60fce1afd66e85b2f0cc4e68,61036cfe377eb09d6274ba28,2021-07-29_23h08.18.578,Simcolourproject_2stim_asymm_v5,2020.2.10,MacIntel,60,61025ae37ef11b136ea224fe,,,,,,,,,239,81.2109375,-54.2109375,1,0,0,response3disk,,5,18.78515625,-11.578125,1,0,0,rectangle,-30.20703125,98.0625,1,0,0,1.39453125,-3.37890625,1,0,0,1,2,162,8,1,,response7disk_3,TRUE,0,0,"[63,178,164,59,12,2,90,283,57,56,316,58,48,86,311,163,93,138,212,42]",1.5322,rectangle
,,,,,,,,,,,,,FF,,,,,,,,3.8503,,,,,,,,,,,,,,,,,,,,,,60fce1afd66e85b2f0cc4e68,61036cfe377eb09d6274ba28,2021-07-29_23h08.18.578,Simcolourproject_2stim_asymm_v5,2020.2.10,MacIntel,60,61025ae37ef11b136ea224fe,,,,,,,,,2054,79.3671875,46.68359375,1,0,0,response1disk,,6,22.5,1.01953125,1,0,0,rectangle,92.05078125,35.2578125,1,0,0,6.375,1.55078125,1,0,0,1,3,163,140,1,,response1disk_3,TRUE,6,6,"[63,178,164,59,12,2,90,283,57,56,316,58,48,86,311,163,93,138,212,42]",1.9675,rectangle
,,,,,,,,,,,,,FF,,,,,,,,2.0163,,,,,,,,,,,,,,,,,,,,,,60fce1afd66e85b2f0cc4e68,61036cfe377eb09d6274ba28,2021-07-29_23h08.18.578,Simcolourproject_2stim_asymm_v5,2020.2.10,MacIntel,60,61025ae37ef11b136ea224fe,,,,,,,,,3795,80.06640625,-35.32421875,1,0,0,response3disk,,5,23.86328125,-10.54296875,1,0,0,rectangle,23.86328125,-10.54296875,1,0,0,23.86328125,-10.54296875,1,0,0,1,4,164,158,1,,,,,,,,
,,,,,,,,,,,,,FF,,,,,,,,1.6165,,,,,,,,,,,,,,,,,,,,,,60fce1afd66e85b2f0cc4e68,61036cfe377eb09d6274ba28,2021-07-29_23h08.18.578,Simcolourproject_2stim_asymm_v5,2020.2.10,MacIntel,60,61025ae37ef11b136ea224fe,,,,,,,,,3621,-33.08984375,-93.10546875,1,0,0,response5disk,,3,-2.3828125,-4.76953125,1,0,0,rectangle,-2.3828125,-4.76953125,1,0,0,-2.3828125,-4.76953125,1,0,0,1,5,165,89,1,,,,,,,,
,,,,,,,,,,,,,FF,,,,,,,,3.6515,,,,,,,,,,,,,,,,,,,,,,60fce1afd66e85b2f0cc4e68,61036cfe377eb09d6274ba28,2021-07-29_23h08.18.578,Simcolourproject_2stim_asymm_v5,2020.2.10,MacIntel,60,61025ae37ef11b136ea224fe,,,,,,,,,76,41.90234375,-91.05078125,1,0,0,response3disk,,4,12.5078125,-4.0625,1,0,0,rectangle,12.5078125,-4.0625,1,0,0,12.5078125,-4.0625,1,0,0,1,6,166,120,1,,,,,,,,
,,,,,,,,,,,,,FF,,,,,,,,0.9341,,,,,,,,,,,,,,,,,,,,,,60fce1afd66e85b2f0cc4e68,61036cfe377eb09d6274ba28,2021-07-29_23h08.18.578,Simcolourproject_2stim_asymm_v5,2020.2.10,MacIntel,60,61025ae37ef11b136ea224fe,,,,,,,,,1604,-29.55078125,-88.47265625,1,0,0,response5disk,,3,12.109375,-7.37109375,1,0,0,rectangle,12.109375,-7.37109375,1,0,0,12.109375,-7.37109375,1,0,0,1,7,167,112,1,,,,,,,,
,,,,,,,,,,,,,FF,,,,,,,,1.9327,,,,,,,,,,,,,,,,,,,,,,60fce1afd66e85b2f0cc4e68,61036cfe377eb09d6274ba28,2021-07-29_23h08.18.578,Simcolourproject_2stim_asymm_v5,2020.2.10,MacIntel,60,61025ae37ef11b136ea224fe,,,,,,,,,2315,-34.765625,-93.53515625,1,0,0,response5disk,,3,0.9921875,-13.078125,1,0,0,rectangle,0.9921875,-13.078125,1,0,0,0.9921875,-13.078125,1,0,0,1,8,168,35,1,,,,,,,,
,,,,,,,,,,,,,FF,,,,,,,,0.8807,,,,,,,,,,,,,,,,,,,,,,60fce1afd66e85b2f0cc4e68,61036cfe377eb09d6274ba28,2021-07-29_23h08.18.578,Simcolourproject_2stim_asymm_v5,2020.2.10,MacIntel,60,61025ae37ef11b136ea224fe,,,,,,,,,2831,-47.67578125,89.6953125,1,0,0,response7disk,,0,-17.71484375,6.4453125,1,0,0,rectangle,-17.71484375,6.4453125,1,0,0,-17.71484375,6.4453125,1,0,0,1,9,169,80,1,,,,,,,,
,,,,,,,,,,,,,FF,,,,,,,,0.9007,,,,,,,,,,,,,,,,,,,,,,60fce1afd66e85b2f0cc4e68,61036cfe377eb09d6274ba28,2021-07-29_23h08.18.578,Simcolourproject_2stim_asymm_v5,2020.2.10,MacIntel,60,61025ae37ef11b136ea224fe,,,,,,,,,2902,-64.84375,-26.7734375,1,0,0,response5disk,,2,-4.52734375,10.828125,1,0,0,rectangle,-4.52734375,10.828125,1,0,0,-4.52734375,10.828125,1,0,0,1,10,170,84,1,,,,,,,,
,,,,,,,,,,,,,FF,,,,,,,,0.8658,,,,,,,,,,,,,,,,,,,,,,60fce1afd66e85b2f0cc4e68,61036cfe377eb09d6274ba28,2021-07-29_23h08.18.578,Simcolourproject_2stim_asymm_v5,2020.2.10,MacIntel,60,61025ae37ef11b136ea224fe,,,,,,,,,780,-33.90234375,-84.921875,1,0,0,response5disk,,3,-3.3125,1.6640625,1,0,0,rectangle,-3.3125,1.6640625,1,0,0,-3.3125,1.6640625,1,0,0,1,11,171,42,1,,,,,,,,
,,,,,,,,,,,,,FF,,,,,,,,1.4012,,,,,,,,,,,,,,,,,,,,,,60fce1afd66e85b2f0cc4e68,61036cfe377eb09d6274ba28,2021-07-29_23h08.18.578,Simcolourproject_2stim_asymm_v5,2020.2.10,MacIntel,60,61025ae37ef11b136ea224fe,,,,,,,,,1674,-35.5625,-92.93359375,1,0,0,response5disk,,3,7.3203125,-6.93359375,1,0,0,rectangle,7.3203125,-6.93359375,1,0,0,7.3203125,-6.93359375,1,0,0,1,12,172,117,1,,,,,,,,
,,,,,,,,,,,,,FF,,,,,,,,0.9657,,,,,,,,,,,,,,,,,,,,,,60fce1afd66e85b2f0cc4e68,61036cfe377eb09d6274ba28,2021-07-29_23h08.18.578,Simcolourproject_2stim_asymm_v5,2020.2.10,MacIntel,60,61025ae37ef11b136ea224fe,,,,,,,,,3827,90.9765625,-34.55078125,1,0,0,response3disk,,5,24.9765625,-7.16015625,1,0,0,rectangle,24.9765625,-7.16015625,1,0,0,24.9765625,-7.16015625,1,0,0,1,13,173,57,1,,,,,,,,
,,,,,,,,,,,,,FF,,,,,,,,1.4331,,,,,,,,,,,,,,,,,,,,,,60fce1afd66e85b2f0cc4e68,61036cfe377eb09d6274ba28,2021-07-29_23h08.18.578,Simcolourproject_2stim_asymm_v5,2020.2.10,MacIntel,60,61025ae37ef11b136ea224fe,,,,,,,,,204,81.2265625,36.8984375,1,0,0,response1disk,,6,15.31640625,-0.4296875,1,0,0,rectangle,15.31640625,-0.4296875,1,0,0,15.31640625,-0.4296875,1,0,0,1,14,174,111,1,,,,,,,,
,,,,,,,,,,,,,FF,,,,,,,,0.8161,,,,,,,,,,,,,,,,,,,,,,60fce1afd66e85b2f0cc4e68,61036cfe377eb09d6274ba28,2021-07-29_23h08.18.578,Simcolourproject_2stim_asymm_v5,2020.2.10,MacIntel,60,61025ae37ef11b136ea224fe,,,,,,,,,3861,77.11328125,23.9765625,1,0,0,response1disk,,6,8.7265625,-0.37109375,1,0,0,rectangle,8.7265625,-0.37109375,1,0,0,8.7265625,-0.37109375,1,0,0,1,15,175,28,1,,,,,,,,
,,,,,,,,,,,,,FF,,,,,,,,0.8162,,,,,,,,,,,,,,,,,,,,,,60fce1afd66e85b2f0cc4e68,61036cfe377eb09d6274ba28,2021-07-29_23h08.18.578,Simcolourproject_2stim_asymm_v5,2020.2.10,MacIntel,60,61025ae37ef11b136ea224fe,,,,,,,,,3767,38.6640625,91.46875,1,0,0,response1disk,,7,27.41796875,2.21484375,1,0,0,rectangle,27.41796875,2.21484375,1,0,0,27.41796875,2.21484375,1,0,0,1,16,176,150,1,,,,,,,,
,,,,,,,,,,,,,FF,,,,,,,,1.5344,,,,,,,,,,,,,,,,,,,,,,60fce1afd66e85b2f0cc4e68,61036cfe377eb09d6274ba28,2021-07-29_23h08.18.578,Simcolourproject_2stim_asymm_v5,2020.2.10,MacIntel,60,61025ae37ef11b136ea224fe,,,,,,,,,181,82.5546875,-19.546875,1,0,0,response3disk,,5,13.49609375,-10.4921875,1,0,0,rectangle,87.62109375,35.3515625,1,0,0,26.15625,-0.66796875,1,0,0,1,17,177,67,1,,response1disk_3,TRUE,6,5,"[63,178,164,59,12,2,90,283,57,56,316,58,48,86,311,163,93,138,212,42]",1.7165,rectangle
,,,,,,,,,,,,,FF,,,,,,,,1.6668,,,,,,,,,,,,,,,,,,,,,,60fce1afd66e85b2f0cc4e68,61036cfe377eb09d6274ba28,2021-07-29_23h08.18.578,Simcolourproject_2stim_asymm_v5,2020.2.10,MacIntel,60,61025ae37ef11b136ea224fe,,,,,,,,,690,86.66015625,43.50390625,1,0,0,response1disk,,6,16.94140625,-0.234375,1,0,0,rectangle,16.94140625,-0.234375,1,0,0,16.94140625,-0.234375,1,0,0,1,18,178,100,1,,,,,,,,
,,,,,,,,,,,,,FF,,,,,,,,1.7514,,,,,,,,,,,,,,,,,,,,,,60fce1afd66e85b2f0cc4e68,61036cfe377eb09d6274ba28,2021-07-29_23h08.18.578,Simcolourproject_2stim_asymm_v5,2020.2.10,MacIntel,60,61025ae37ef11b136ea224fe,,,,,,,,,4226,91.40234375,62.03125,1,0,0,response1disk,,6,21.25,-1.16015625,1,0,0,rectangle,21.25,-1.16015625,1,0,0,21.25,-1.16015625,1,0,0,1,19,179,136,1,,,,,,,,
,,,,,,,,,,,,,FF,,,,,,,,1.9497,,,,,,,,,,,,,,,,,,,,,,60fce1afd66e85b2f0cc4e68,61036cfe377eb09d6274ba28,2021-07-29_23h08.18.578,Simcolourproject_2stim_asymm_v5,2020.2.10,MacIntel,60,61025ae37ef11b136ea224fe,,,,,,,,,3404,86.04296875,-38.91796875,1,0,0,response3disk,,5,6.16796875,-10.37109375,1,0,0,rectangle,6.16796875,-10.37109375,1,0,0,6.16796875,-10.37109375,1,0,0,1,20,180,44,1,,,,,,,,
,,,,,,,,,,,,,FF,,,,,,,,1.2653,,,,,,,,,,,,,,,,,,,,,,60fce1afd66e85b2f0cc4e68,61036cfe377eb09d6274ba28,2021-07-29_23h08.18.578,Simcolourproject_2stim_asymm_v5,2020.2.10,MacIntel,60,61025ae37ef11b136ea224fe,,,,,,,,,2466,68.77734375,18.3515625,1,0,0,response1disk,,6,-17.74609375,-17.73828125,1,0,0,rectangle,-17.74609375,-17.73828125,1,0,0,-17.74609375,-17.73828125,1,0,0,1,21,181,133,1,,,,,,,,
,,,,,,,,,,,,,FF,,,,,,,,0.9829,,,,,,,,,,,,,,,,,,,,,,60fce1afd66e85b2f0cc4e68,61036cfe377eb09d6274ba28,2021-07-29_23h08.18.578,Simcolourproject_2stim_asymm_v5,2020.2.10,MacIntel,60,61025ae37ef11b136ea224fe,,,,,,,,,3583,-27.484375,-72.8125,1,0,0,response5disk,,3,6.3359375,-7.9765625,1,0,0,rectangle,6.3359375,-7.9765625,1,0,0,6.3359375,-7.9765625,1,0,0,1,22,182,18,1,,,,,,,,
,,,,,,,,,,,,,FF,,,,,,,,1.0988,,,,,,,,,,,,,,,,,,,,,,60fce1afd66e85b2f0cc4e68,61036cfe377eb09d6274ba28,2021-07-29_23h08.18.578,Simcolourproject_2stim_asymm_v5,2020.2.10,MacIntel,60,61025ae37ef11b136ea224fe,,,,,,,,,2520,77.72265625,-29.84765625,1,0,0,response3disk,,5,14.6171875,-2.140625,1,0,0,rectangle,14.6171875,-2.140625,1,0,0,14.6171875,-2.140625,1,0,0,1,23,183,25,1,,,,,,,,
,,,,,,,,,,,,,FF,,,,,,,,1.0998,,,,,,,,,,,,,,,,,,,,,,60fce1afd66e85b2f0cc4e68,61036cfe377eb09d6274ba28,2021-07-29_23h08.18.578,Simcolourproject_2stim_asymm_v5,2020.2.10,MacIntel,60,61025ae37ef11b136ea224fe,,,,,,,,,1623,83.36328125,-33.37890625,1,0,0,response3disk,,5,27.74609375,-6.77734375,1,0,0,rectangle,27.74609375,-6.77734375,1,0,0,27.74609375,-6.77734375,1,0,0,1,24,184,102,1,,,,,,,,
,,,,,,,,,,,,,FF,,,,,,,,1.1,,,,,,,,,,,,,,,,,,,,,,60fce1afd66e85b2f0cc4e68,61036cfe377eb09d6274ba28,2021-07-29_23h08.18.578,Simcolourproject_2stim_asymm_v5,2020.2.10,MacIntel,60,61025ae37ef11b136ea224fe,,,,,,,,,2206,43.01171875,67.21484375,1,0,0,response1disk,,7,28.3828125,6.68359375,1,0,0,rectangle,28.3828125,6.68359375,1,0,0,28.3828125,6.68359375,1,0,0,1,25,185,0,1,,,,,,,,
,,,,,,,,,,,,,FF,,,,,,,,1.2323,,,,,,,,,,,,,,,,,,,,,,60fce1afd66e85b2f0cc4e68,61036cfe377eb09d6274ba28,2021-07-29_23h08.18.578,Simcolourproject_2stim_asymm_v5,2020.2.10,MacIntel,60,61025ae37ef11b136ea224fe,,,,,,,,,3258,83.83984375,-40.09765625,1,0,0,response3disk,,5,15.515625,-0.984375,1,0,0,rectangle,15.515625,-0.984375,1,0,0,15.515625,-0.984375,1,0,0,1,26,186,3,1,,,,,,,,
,,,,,,,,,,,,,FF,,,,,,,,0.9661,,,,,,,,,,,,,,,,,,,,,,60fce1afd66e85b2f0cc4e68,61036cfe377eb09d6274ba28,2021-07-29_23h08.18.578,Simcolourproject_2stim_asymm_v5,2020.2.10,MacIntel,60,61025ae37ef11b136ea224fe,,,,,,,,,2244,44.734375,-87.7109375,1,0,0,response3disk,,4,27.5859375,6.03515625,1,0,0,rectangle,27.5859375,6.03515625,1,0,0,27.5859375,6.03515625,1,0,0,1,27,187,26,1,,,,,,,,
,,,,,,,,,,,,,FF,,,,,,,,1.0826,,,,,,,,,,,,,,,,,,,,,,60fce1afd66e85b2f0cc4e68,61036cfe377eb09d6274ba28,2021-07-29_23h08.18.578,Simcolourproject_2stim_asymm_v5,2020.2.10,MacIntel,60,61025ae37ef11b136ea224fe,,,,,,,,,3608,92.546875,28.453125,1,0,0,response1disk,,6,15.25390625,7.5390625,1,0,0,rectangle,15.25390625,7.5390625,1,0,0,15.25390625,7.5390625,1,0,0,1,28,188,72,1,,,,,,,,
,,,,,,,,,,,,,FF,,,,,,,,1.1661,,,,,,,,,,,,,,,,,,,,,,60fce1afd66e85b2f0cc4e68,61036cfe377eb09d6274ba28,2021-07-29_23h08.18.578,Simcolourproject_2stim_asymm_v5,2020.2.10,MacIntel,60,61025ae37ef11b136ea224fe,,,,,,,,,294,96.32421875,-60.73046875,1,0,0,response3disk,,5,15.37109375,-1.1640625,1,0,0,rectangle,15.37109375,-1.1640625,1,0,0,15.37109375,-1.1640625,1,0,0,1,29,189,137,1,,,,,,,,
,,,,,,,,,,,,,FF,,,,,,,,1.1328,,,,,,,,,,,,,,,,,,,,,,60fce1afd66e85b2f0cc4e68,61036cfe377eb09d6274ba28,2021-07-29_23h08.18.578,Simcolourproject_2stim_asymm_v5,2020.2.10,MacIntel,60,61025ae37ef11b136ea224fe,,,,,,,,,4189,99.89453125,-48.125,1,0,0,response3disk,,5,22.01953125,-7.625,1,0,0,rectangle,22.01953125,-7.625,1,0,0,22.01953125,-7.625,1,0,0,1,30,190,97,1,,,,,,,,
,,,,,,,,,,,,,FF,,,,,,,,1.1661,,,,,,,,,,,,,,,,,,,,,,60fce1afd66e85b2f0cc4e68,61036cfe377eb09d6274ba28,2021-07-29_23h08.18.578,Simcolourproject_2stim_asymm_v5,2020.2.10,MacIntel,60,61025ae37ef11b136ea224fe,,,,,,,,,2338,100.4414063,45.80078125,1,0,0,response1disk,,6,25.1171875,8.73828125,1,0,0,rectangle,25.1171875,8.73828125,1,0,0,25.1171875,8.73828125,1,0,0,1,31,191,20,1,,,,,,,,
,,,,,,,,,,,,,FF,,,,,,,,0.7843,,,,,,,,,,,,,,,,,,,,,,60fce1afd66e85b2f0cc4e68,61036cfe377eb09d6274ba28,2021-07-29_23h08.18.578,Simcolourproject_2stim_asymm_v5,2020.2.10,MacIntel,60,61025ae37ef11b136ea224fe,,,,,,,,,3323,25.69140625,76.65625,1,0,0,response1disk,,7,5.29296875,8.24609375,1,0,0,rectangle,5.29296875,8.24609375,1,0,0,5.29296875,8.24609375,1,0,0,1,32,192,134,1,,,,,,,,
,,,,,,,,,,,,,FF,,,,,,,,0.9163,,,,,,,,,,,,,,,,,,,,,,60fce1afd66e85b2f0cc4e68,61036cfe377eb09d6274ba28,2021-07-29_23h08.18.578,Simcolourproject_2stim_asymm_v5,2020.2.10,MacIntel,60,61025ae37ef11b136ea224fe,,,,,,,,,3486,41.75,-62.984375,1,0,0,response3disk,,4,11.3125,-5.98046875,1,0,0,rectangle,11.3125,-5.98046875,1,0,0,11.3125,-5.98046875,1,0,0,1,33,193,139,1,,,,,,,,
,,,,,,,,,,,,,FF,,,,,,,,1.1002,,,,,,,,,,,,,,,,,,,,,,60fce1afd66e85b2f0cc4e68,61036cfe377eb09d6274ba28,2021-07-29_23h08.18.578,Simcolourproject_2stim_asymm_v5,2020.2.10,MacIntel,60,61025ae37ef11b136ea224fe,,,,,,,,,1349,88.30078125,42.4296875,1,0,0,response1disk,,6,23.88671875,5.6640625,1,0,0,rectangle,23.88671875,5.6640625,1,0,0,23.88671875,5.6640625,1,0,0,1,34,194,1,1,,,,,,,,
,,,,,,,,,,,,,FF,,,,,,,,1.4009,,,,,,,,,,,,,,,,,,,,,,60fce1afd66e85b2f0cc4e68,61036cfe377eb09d6274ba28,2021-07-29_23h08.18.578,Simcolourproject_2stim_asymm_v5,2020.2.10,MacIntel,60,61025ae37ef11b136ea224fe,,,,,,,,,1809,40.5078125,-85.1484375,1,0,0,response3disk,,4,17.7578125,-11.87890625,1,0,0,rectangle,17.7578125,-11.87890625,1,0,0,17.7578125,-11.87890625,1,0,0,1,35,195,103,1,,,,,,,,
,,,,,,,,,,,,,FF,,,,,,,,1.166,,,,,,,,,,,,,,,,,,,,,,60fce1afd66e85b2f0cc4e68,61036cfe377eb09d6274ba28,2021-07-29_23h08.18.578,Simcolourproject_2stim_asymm_v5,2020.2.10,MacIntel,60,61025ae37ef11b136ea224fe,,,,,,,,,1345,69.421875,-29.515625,1,0,0,response3disk,,5,31.8203125,-6.66015625,1,0,0,rectangle,31.8203125,-6.66015625,1,0,0,31.8203125,-6.66015625,1,0,0,1,36,196,17,1,,,,,,,,
,,,,,,,,,,,,,FF,,,,,,,,0.8334,,,,,,,,,,,,,,,,,,,,,,60fce1afd66e85b2f0cc4e68,61036cfe377eb09d6274ba28,2021-07-29_23h08.18.578,Simcolourproject_2stim_asymm_v5,2020.2.10,MacIntel,60,61025ae37ef11b136ea224fe,,,,,,,,,2361,-40.921875,-94.0859375,1,0,0,response5disk,,3,4.0625,-4.30859375,1,0,0,rectangle,4.0625,-4.30859375,1,0,0,4.0625,-4.30859375,1,0,0,1,37,197,36,1,,,,,,,,
,,,,,,,,,,,,,FF,,,,,,,,1.1677,,,,,,,,,,,,,,,,,,,,,,60fce1afd66e85b2f0cc4e68,61036cfe377eb09d6274ba28,2021-07-29_23h08.18.578,Simcolourproject_2stim_asymm_v5,2020.2.10,MacIntel,60,61025ae37ef11b136ea224fe,,,,,,,,,3895,86.95703125,31.4609375,1,0,0,response1disk,,6,24.0078125,8.34375,1,0,0,rectangle,24.0078125,8.34375,1,0,0,24.0078125,8.34375,1,0,0,1,38,198,27,1,,,,,,,,
,,,,,,,,,,,,,FF,,,,,,,,1.2677,,,,,,,,,,,,,,,,,,,,,,60fce1afd66e85b2f0cc4e68,61036cfe377eb09d6274ba28,2021-07-29_23h08.18.578,Simcolourproject_2stim_asymm_v5,2020.2.10,MacIntel,60,61025ae37ef11b136ea224fe,,,,,,,,,2084,52.51953125,-74.67578125,1,0,0,response3disk,,4,10.36328125,-7.4453125,1,0,0,rectangle,10.36328125,-7.4453125,1,0,0,10.36328125,-7.4453125,1,0,0,1,39,199,46,1,,,,,,,,
,,,,,,,,,,,,,FF,,,,,,,,1.3672,,,,,,,,,,,,,,,,,,,,,,60fce1afd66e85b2f0cc4e68,61036cfe377eb09d6274ba28,2021-07-29_23h08.18.578,Simcolourproject_2stim_asymm_v5,2020.2.10,MacIntel,60,61025ae37ef11b136ea224fe,,,,,,,,,559,89.70703125,-44.6484375,1,0,0,response3disk,,5,9.74609375,-1.53125,1,0,0,rectangle,9.74609375,-1.53125,1,0,0,9.74609375,-1.53125,1,0,0,1,40,200,56,1,,,,,,,,
,,,,,,,,,,,,,FF,,,,,,,,0.9834,,,,,,,,,,,,,,,,,,,,,,60fce1afd66e85b2f0cc4e68,61036cfe377eb09d6274ba28,2021-07-29_23h08.18.578,Simcolourproject_2stim_asymm_v5,2020.2.10,MacIntel,60,61025ae37ef11b136ea224fe,,,,,,,,,1718,49.31640625,73.40234375,1,0,0,response1disk,,7,26.62890625,-2.83203125,1,0,0,rectangle,26.62890625,-2.83203125,1,0,0,26.62890625,-2.83203125,1,0,0,1,41,201,29,1,,,,,,,,
,,,,,,,,,,,,,FF,,,,,,,,1.1328,,,,,,,,,,,,,,,,,,,,,,60fce1afd66e85b2f0cc4e68,61036cfe377eb09d6274ba28,2021-07-29_23h08.18.578,Simcolourproject_2stim_asymm_v5,2020.2.10,MacIntel,60,61025ae37ef11b136ea224fe,,,,,,,,,262,-35.4765625,-92.21875,1,0,0,response5disk,,3,-9.3359375,-2.171875,1,0,0,rectangle,-9.3359375,-2.171875,1,0,0,-9.3359375,-2.171875,1,0,0,1,42,202,39,1,,,,,,,,
,,,,,,,,,,,,,FF,,,,,,,,1.9846,,,,,,,,,,,,,,,,,,,,,,60fce1afd66e85b2f0cc4e68,61036cfe377eb09d6274ba28,2021-07-29_23h08.18.578,Simcolourproject_2stim_asymm_v5,2020.2.10,MacIntel,60,61025ae37ef11b136ea224fe,,,,,,,,,3569,71.85546875,-38.10546875,1,0,0,response3disk,,5,22.02734375,-3.28515625,1,0,0,rectangle,22.02734375,-3.28515625,1,0,0,22.02734375,-3.28515625,1,0,0,1,43,203,32,1,,,,,,,,
,,,,,,,,,,,,,FF,,,,,,,,0.965,,,,,,,,,,,,,,,,,,,,,,60fce1afd66e85b2f0cc4e68,61036cfe377eb09d6274ba28,2021-07-29_23h08.18.578,Simcolourproject_2stim_asymm_v5,2020.2.10,MacIntel,60,61025ae37ef11b136ea224fe,,,,,,,,,1365,36.39453125,-88.24609375,1,0,0,response3disk,,4,15.671875,1.85546875,1,0,0,rectangle,15.671875,1.85546875,1,0,0,15.671875,1.85546875,1,0,0,1,44,204,95,1,,,,,,,,
,,,,,,,,,,,,,FF,,,,,,,,0.8831,,,,,,,,,,,,,,,,,,,,,,60fce1afd66e85b2f0cc4e68,61036cfe377eb09d6274ba28,2021-07-29_23h08.18.578,Simcolourproject_2stim_asymm_v5,2020.2.10,MacIntel,60,61025ae37ef11b136ea224fe,,,,,,,,,2545,46.66015625,-89.18359375,1,0,0,response3disk,,4,19.03125,-2.3125,1,0,0,rectangle,19.03125,-2.3125,1,0,0,19.03125,-2.3125,1,0,0,1,45,205,85,1,,,,,,,,
,,,,,,,,,,,,,FF,,,,,,,,0.8662,,,,,,,,,,,,,,,,,,,,,,60fce1afd66e85b2f0cc4e68,61036cfe377eb09d6274ba28,2021-07-29_23h08.18.578,Simcolourproject_2stim_asymm_v5,2020.2.10,MacIntel,60,61025ae37ef11b136ea224fe,,,,,,,,,1452,-38.73046875,-62.86328125,1,0,0,response5disk,,3,-22.34375,0.53125,1,0,0,rectangle,-22.34375,0.53125,1,0,0,-22.34375,0.53125,1,0,0,1,46,206,115,1,,,,,,,,
,,,,,,,,,,,,,FF,,,,,,,,1.2838,,,,,,,,,,,,,,,,,,,,,,60fce1afd66e85b2f0cc4e68,61036cfe377eb09d6274ba28,2021-07-29_23h08.18.578,Simcolourproject_2stim_asymm_v5,2020.2.10,MacIntel,60,61025ae37ef11b136ea224fe,,,,,,,,,498,63.140625,33.7265625,1,0,0,response1disk,,6,16.90234375,4.67578125,1,0,0,rectangle,16.90234375,4.67578125,1,0,0,16.90234375,4.67578125,1,0,0,1,47,207,151,1,,,,,,,,
,,,,,,,,,,,,,FF,,,,,,,,0.8504,,,,,,,,,,,,,,,,,,,,,,60fce1afd66e85b2f0cc4e68,61036cfe377eb09d6274ba28,2021-07-29_23h08.18.578,Simcolourproject_2stim_asymm_v5,2020.2.10,MacIntel,60,61025ae37ef11b136ea224fe,,,,,,,,,3441,78.875,-33.828125,1,0,0,response3disk,,5,8.2890625,-9.9375,1,0,0,rectangle,8.2890625,-9.9375,1,0,0,8.2890625,-9.9375,1,0,0,1,48,208,74,1,,,,,,,,
,,,,,,,,,,,,,FF,,,,,,,,1.1162,,,,,,,,,,,,,,,,,,,,,,60fce1afd66e85b2f0cc4e68,61036cfe377eb09d6274ba28,2021-07-29_23h08.18.578,Simcolourproject_2stim_asymm_v5,2020.2.10,MacIntel,60,61025ae37ef11b136ea224fe,,,,,,,,,3224,82,43.078125,1,0,0,response1disk,,6,18.23828125,4.5546875,1,0,0,rectangle,18.23828125,4.5546875,1,0,0,18.23828125,4.5546875,1,0,0,1,49,209,65,1,,,,,,,,
,,,,,,,,,,,,,FF,,,,,,,,0.9341,,,,,,,,,,,,,,,,,,,,,,60fce1afd66e85b2f0cc4e68,61036cfe377eb09d6274ba28,2021-07-29_23h08.18.578,Simcolourproject_2stim_asymm_v5,2020.2.10,MacIntel,60,61025ae37ef11b136ea224fe,,,,,,,,,2424,36.0546875,-90.4375,1,0,0,response3disk,,4,32.04296875,-0.39453125,1,0,0,rectangle,32.04296875,-0.39453125,1,0,0,32.04296875,-0.39453125,1,0,0,1,50,210,87,1,,,,,,,,
,,,,,,,,,,,,,FF,,,,,,,,1.0495,,,,,,,,,,,,,,,,,,,,,,60fce1afd66e85b2f0cc4e68,61036cfe377eb09d6274ba28,2021-07-29_23h08.18.578,Simcolourproject_2stim_asymm_v5,2020.2.10,MacIntel,60,61025ae37ef11b136ea224fe,,,,,,,,,1595,62.96484375,-96.30859375,1,0,0,response3disk,,4,25.828125,-14.5,1,0,0,rectangle,-38.73046875,73.81640625,1,0,0,-15.67578125,3.56640625,1,0,0,1,51,211,83,1,,response7disk_3,TRUE,0,0,"[63,178,164,59,12,2,90,283,57,56,316,58,48,86,311,163,93,138,212,42]",1.399,rectangle
,,,,,,,,,,,,,FF,,,,,,,,1.9012,,,,,,,,,,,,,,,,,,,,,,60fce1afd66e85b2f0cc4e68,61036cfe377eb09d6274ba28,2021-07-29_23h08.18.578,Simcolourproject_2stim_asymm_v5,2020.2.10,MacIntel,60,61025ae37ef11b136ea224fe,,,,,,,,,3525,34.6796875,-88.09765625,1,0,0,response3disk,,4,12.8359375,-16.26953125,1,0,0,rectangle,12.8359375,-16.26953125,1,0,0,12.8359375,-16.26953125,1,0,0,1,52,212,119,1,,,,,,,,
,,,,,,,,,,,,,FF,,,,,,,,2.9504,,,,,,,,,,,,,,,,,,,,,,60fce1afd66e85b2f0cc4e68,61036cfe377eb09d6274ba28,2021-07-29_23h08.18.578,Simcolourproject_2stim_asymm_v5,2020.2.10,MacIntel,60,61025ae37ef11b136ea224fe,,,,,,,,,2552,79.59375,-40.6484375,1,0,0,response3disk,,5,2.41796875,-5.95703125,1,0,0,rectangle,2.41796875,-5.95703125,1,0,0,2.41796875,-5.95703125,1,0,0,1,53,213,149,1,,,,,,,,
,,,,,,,,,,,,,FF,,,,,,,,0.8989,,,,,,,,,,,,,,,,,,,,,,60fce1afd66e85b2f0cc4e68,61036cfe377eb09d6274ba28,2021-07-29_23h08.18.578,Simcolourproject_2stim_asymm_v5,2020.2.10,MacIntel,60,61025ae37ef11b136ea224fe,,,,,,,,,4058,98.37109375,-30.8359375,1,0,0,response3disk,,5,9.6015625,-3.49609375,1,0,0,rectangle,9.6015625,-3.49609375,1,0,0,9.6015625,-3.49609375,1,0,0,1,54,214,77,1,,,,,,,,
,,,,,,,,,,,,,FF,,,,,,,,0.9502,,,,,,,,,,,,,,,,,,,,,,60fce1afd66e85b2f0cc4e68,61036cfe377eb09d6274ba28,2021-07-29_23h08.18.578,Simcolourproject_2stim_asymm_v5,2020.2.10,MacIntel,60,61025ae37ef11b136ea224fe,,,,,,,,,2021,55.3671875,-95.3828125,1,0,0,response3disk,,4,25.359375,-2.58984375,1,0,0,rectangle,25.359375,-2.58984375,1,0,0,25.359375,-2.58984375,1,0,0,1,55,215,11,1,,,,,,,,
,,,,,,,,,,,,,FF,,,,,,,,0.7996,,,,,,,,,,,,,,,,,,,,,,60fce1afd66e85b2f0cc4e68,61036cfe377eb09d6274ba28,2021-07-29_23h08.18.578,Simcolourproject_2stim_asymm_v5,2020.2.10,MacIntel,60,61025ae37ef11b136ea224fe,,,,,,,,,2172,52.140625,-100.9414063,1,0,0,response3disk,,4,18.73828125,-4.68359375,1,0,0,rectangle,18.73828125,-4.68359375,1,0,0,18.73828125,-4.68359375,1,0,0,1,56,216,121,1,,,,,,,,
,,,,,,,,,,,,,FF,,,,,,,,0.6668,,,,,,,,,,,,,,,,,,,,,,60fce1afd66e85b2f0cc4e68,61036cfe377eb09d6274ba28,2021-07-29_23h08.18.578,Simcolourproject_2stim_asymm_v5,2020.2.10,MacIntel,60,61025ae37ef11b136ea224fe,,,,,,,,,1664,49.74609375,-80.47265625,1,0,0,response3disk,,4,22.8125,-9.7421875,1,0,0,rectangle,22.8125,-9.7421875,1,0,0,22.8125,-9.7421875,1,0,0,1,57,217,146,1,,,,,,,,
,,,,,,,,,,,,,FF,,,,,,,,0.8658,,,,,,,,,,,,,,,,,,,,,,60fce1afd66e85b2f0cc4e68,61036cfe377eb09d6274ba28,2021-07-29_23h08.18.578,Simcolourproject_2stim_asymm_v5,2020.2.10,MacIntel,60,61025ae37ef11b136ea224fe,,,,,,,,,2195,52.890625,-75.92578125,1,0,0,response3disk,,4,16.02734375,-9.55078125,1,0,0,rectangle,16.02734375,-9.55078125,1,0,0,16.02734375,-9.55078125,1,0,0,1,58,218,122,1,,,,,,,,
,,,,,,,,,,,,,FF,,,,,,,,0.8499,,,,,,,,,,,,,,,,,,,,,,60fce1afd66e85b2f0cc4e68,61036cfe377eb09d6274ba28,2021-07-29_23h08.18.578,Simcolourproject_2stim_asymm_v5,2020.2.10,MacIntel,60,61025ae37ef11b136ea224fe,,,,,,,,,2288,-35.30078125,-90.6015625,1,0,0,response5disk,,3,-11.29296875,-5.46484375,1,0,0,rectangle,-11.29296875,-5.46484375,1,0,0,-11.29296875,-5.46484375,1,0,0,1,59,219,58,1,,,,,,,,
,,,,,,,,,,,,,FF,,,,,,,,1.0495,,,,,,,,,,,,,,,,,,,,,,60fce1afd66e85b2f0cc4e68,61036cfe377eb09d6274ba28,2021-07-29_23h08.18.578,Simcolourproject_2stim_asymm_v5,2020.2.10,MacIntel,60,61025ae37ef11b136ea224fe,,,,,,,,,835,83.90234375,20.40234375,1,0,0,response1disk,,6,13.1328125,11.0390625,1,0,0,rectangle,13.1328125,11.0390625,1,0,0,13.1328125,11.0390625,1,0,0,1,60,220,51,1,,,,,,,,
,,,,,,,,,,,,,FF,,,,,,,,0.8661,,,,,,,,,,,,,,,,,,,,,,60fce1afd66e85b2f0cc4e68,61036cfe377eb09d6274ba28,2021-07-29_23h08.18.578,Simcolourproject_2stim_asymm_v5,2020.2.10,MacIntel,60,61025ae37ef11b136ea224fe,,,,,,,,,1529,76.84765625,-27.7109375,1,0,0,response3disk,,5,9.0546875,-6.12890625,1,0,0,rectangle,9.0546875,-6.12890625,1,0,0,9.0546875,-6.12890625,1,0,0,1,61,221,142,1,,,,,,,,
,,,,,,,,,,,,,FF,,,,,,,,0.9816,,,,,,,,,,,,,,,,,,,,,,60fce1afd66e85b2f0cc4e68,61036cfe377eb09d6274ba28,2021-07-29_23h08.18.578,Simcolourproject_2stim_asymm_v5,2020.2.10,MacIntel,60,61025ae37ef11b136ea224fe,,,,,,,,,500,34.1484375,79.46875,1,0,0,response1disk,,7,20.6484375,6.7421875,1,0,0,rectangle,20.6484375,6.7421875,1,0,0,20.6484375,6.7421875,1,0,0,1,62,222,16,1,,,,,,,,
,,,,,,,,,,,,,FF,,,,,,,,0.9682,,,,,,,,,,,,,,,,,,,,,,60fce1afd66e85b2f0cc4e68,61036cfe377eb09d6274ba28,2021-07-29_23h08.18.578,Simcolourproject_2stim_asymm_v5,2020.2.10,MacIntel,60,61025ae37ef11b136ea224fe,,,,,,,,,2488,85.7421875,-38.93359375,1,0,0,response3disk,,5,13.79296875,-7.14453125,1,0,0,rectangle,13.79296875,-7.14453125,1,0,0,13.79296875,-7.14453125,1,0,0,1,63,223,62,1,,,,,,,,
,,,,,,,,,,,,,FF,,,,,,,,0.8164,,,,,,,,,,,,,,,,,,,,,,60fce1afd66e85b2f0cc4e68,61036cfe377eb09d6274ba28,2021-07-29_23h08.18.578,Simcolourproject_2stim_asymm_v5,2020.2.10,MacIntel,60,61025ae37ef11b136ea224fe,,,,,,,,,106,42.71484375,-70.55859375,1,0,0,response3disk,,4,11.453125,2.19921875,1,0,0,rectangle,11.453125,2.19921875,1,0,0,11.453125,2.19921875,1,0,0,1,64,224,60,1,,,,,,,,
,,,,,,,,,,,,,FF,,,,,,,,0.7153,,,,,,,,,,,,,,,,,,,,,,60fce1afd66e85b2f0cc4e68,61036cfe377eb09d6274ba28,2021-07-29_23h08.18.578,Simcolourproject_2stim_asymm_v5,2020.2.10,MacIntel,60,61025ae37ef11b136ea224fe,,,,,,,,,1284,53.60546875,-82.56640625,1,0,0,response3disk,,4,29.60546875,-10.66015625,1,0,0,rectangle,29.60546875,-10.66015625,1,0,0,29.60546875,-10.66015625,1,0,0,1,65,225,12,1,,,,,,,,
,,,,,,,,,,,,,FF,,,,,,,,1.0316,,,,,,,,,,,,,,,,,,,,,,60fce1afd66e85b2f0cc4e68,61036cfe377eb09d6274ba28,2021-07-29_23h08.18.578,Simcolourproject_2stim_asymm_v5,2020.2.10,MacIntel,60,61025ae37ef11b136ea224fe,,,,,,,,,2692,87.76953125,-37.23828125,1,0,0,response3disk,,5,12.73046875,0.39453125,1,0,0,rectangle,12.73046875,0.39453125,1,0,0,12.73046875,0.39453125,1,0,0,1,66,226,130,1,,,,,,,,
,,,,,,,,,,,,,FF,,,,,,,,1.1504,,,,,,,,,,,,,,,,,,,,,,60fce1afd66e85b2f0cc4e68,61036cfe377eb09d6274ba28,2021-07-29_23h08.18.578,Simcolourproject_2stim_asymm_v5,2020.2.10,MacIntel,60,61025ae37ef11b136ea224fe,,,,,,,,,3097,-75.84765625,-28.46875,1,0,0,response5disk,,2,10.484375,-13.6015625,1,0,0,rectangle,10.484375,-13.6015625,1,0,0,10.484375,-13.6015625,1,0,0,1,67,227,69,1,,,,,,,,
,,,,,,,,,,,,,FF,,,,,,,,0.7344,,,,,,,,,,,,,,,,,,,,,,60fce1afd66e85b2f0cc4e68,61036cfe377eb09d6274ba28,2021-07-29_23h08.18.578,Simcolourproject_2stim_asymm_v5,2020.2.10,MacIntel,60,61025ae37ef11b136ea224fe,,,,,,,,,278,-69.8203125,-29.9375,1,0,0,response5disk,,2,5.82421875,1.87890625,1,0,0,rectangle,5.82421875,1.87890625,1,0,0,5.82421875,1.87890625,1,0,0,1,68,228,154,1,,,,,,,,
,,,,,,,,,,,,,FF,,,,,,,,1.0177,,,,,,,,,,,,,,,,,,,,,,60fce1afd66e85b2f0cc4e68,61036cfe377eb09d6274ba28,2021-07-29_23h08.18.578,Simcolourproject_2stim_asymm_v5,2020.2.10,MacIntel,60,61025ae37ef11b136ea224fe,,,,,,,,,321,93.07421875,-43.671875,1,0,0,response3disk,,5,0.42578125,-4.86328125,1,0,0,rectangle,0.42578125,-4.86328125,1,0,0,0.42578125,-4.86328125,1,0,0,1,69,229,152,1,,,,,,,,
,,,,,,,,,,,,,FF,,,,,,,,0.848,,,,,,,,,,,,,,,,,,,,,,60fce1afd66e85b2f0cc4e68,61036cfe377eb09d6274ba28,2021-07-29_23h08.18.578,Simcolourproject_2stim_asymm_v5,2020.2.10,MacIntel,60,61025ae37ef11b136ea224fe,,,,,,,,,1662,49.65625,-91.5234375,1,0,0,response3disk,,4,27.66015625,15.40234375,1,0,0,rectangle,27.66015625,15.40234375,1,0,0,27.66015625,15.40234375,1,0,0,1,70,230,22,1,,,,,,,,
,,,,,,,,,,,,,FF,,,,,,,,0.8647,,,,,,,,,,,,,,,,,,,,,,60fce1afd66e85b2f0cc4e68,61036cfe377eb09d6274ba28,2021-07-29_23h08.18.578,Simcolourproject_2stim_asymm_v5,2020.2.10,MacIntel,60,61025ae37ef11b136ea224fe,,,,,,,,,4164,34.07421875,-76.75,1,0,0,response3disk,,4,19.921875,2.2578125,1,0,0,rectangle,19.921875,2.2578125,1,0,0,19.921875,2.2578125,1,0,0,1,71,231,129,1,,,,,,,,
,,,,,,,,,,,,,FF,,,,,,,,1.8504,,,,,,,,,,,,,,,,,,,,,,60fce1afd66e85b2f0cc4e68,61036cfe377eb09d6274ba28,2021-07-29_23h08.18.578,Simcolourproject_2stim_asymm_v5,2020.2.10,MacIntel,60,61025ae37ef11b136ea224fe,,,,,,,,,4261,23.09765625,103.9492188,1,0,0,response1disk,,7,-6.609375,-0.12890625,1,0,0,rectangle,-6.609375,-0.12890625,1,0,0,-6.609375,-0.12890625,1,0,0,1,72,232,55,1,,,,,,,,
,,,,,,,,,,,,,FF,,,,,,,,2.4847,,,,,,,,,,,,,,,,,,,,,,60fce1afd66e85b2f0cc4e68,61036cfe377eb09d6274ba28,2021-07-29_23h08.18.578,Simcolourproject_2stim_asymm_v5,2020.2.10,MacIntel,60,61025ae37ef11b136ea224fe,,,,,,,,,2065,76.3359375,43.32421875,1,0,0,response1disk,,6,6.55078125,6.69140625,1,0,0,rectangle,6.55078125,6.69140625,1,0,0,6.55078125,6.69140625,1,0,0,1,73,233,61,1,,,,,,,,
,,,,,,,,,,,,,FF,,,,,,,,1.9654,,,,,,,,,,,,,,,,,,,,,,60fce1afd66e85b2f0cc4e68,61036cfe377eb09d6274ba28,2021-07-29_23h08.18.578,Simcolourproject_2stim_asymm_v5,2020.2.10,MacIntel,60,61025ae37ef11b136ea224fe,,,,,,,,,19,75.53125,40.54296875,1,0,0,response1disk,,6,8.68359375,4.015625,1,0,0,rectangle,8.68359375,4.015625,1,0,0,8.68359375,4.015625,1,0,0,1,74,234,135,1,,,,,,,,
,,,,,,,,,,,,,FF,,,,,,,,1.0177,,,,,,,,,,,,,,,,,,,,,,60fce1afd66e85b2f0cc4e68,61036cfe377eb09d6274ba28,2021-07-29_23h08.18.578,Simcolourproject_2stim_asymm_v5,2020.2.10,MacIntel,60,61025ae37ef11b136ea224fe,,,,,,,,,3782,36.78125,-67.984375,1,0,0,response3disk,,4,19.4453125,-3.79296875,1,0,0,rectangle,19.4453125,-3.79296875,1,0,0,19.4453125,-3.79296875,1,0,0,1,75,235,7,1,,,,,,,,
,,,,,,,,,,,,,FF,,,,,,,,0.6322,,,,,,,,,,,,,,,,,,,,,,60fce1afd66e85b2f0cc4e68,61036cfe377eb09d6274ba28,2021-07-29_23h08.18.578,Simcolourproject_2stim_asymm_v5,2020.2.10,MacIntel,60,61025ae37ef11b136ea224fe,,,,,,,,,1831,41.5703125,-76.9609375,1,0,0,response3disk,,4,17.625,-9.33203125,1,0,0,rectangle,17.625,-9.33203125,1,0,0,17.625,-9.33203125,1,0,0,1,76,236,76,1,,,,,,,,
,,,,,,,,,,,,,FF,,,,,,,,0.8168,,,,,,,,,,,,,,,,,,,,,,60fce1afd66e85b2f0cc4e68,61036cfe377eb09d6274ba28,2021-07-29_23h08.18.578,Simcolourproject_2stim_asymm_v5,2020.2.10,MacIntel,60,61025ae37ef11b136ea224fe,,,,,,,,,3223,32.01171875,69.67578125,1,0,0,response1disk,,7,24.95703125,7.41796875,1,0,0,rectangle,24.95703125,7.41796875,1,0,0,24.95703125,7.41796875,1,0,0,1,77,237,114,1,,,,,,,,
,,,,,,,,,,,,,FF,,,,,,,,0.8848,,,,,,,,,,,,,,,,,,,,,,60fce1afd66e85b2f0cc4e68,61036cfe377eb09d6274ba28,2021-07-29_23h08.18.578,Simcolourproject_2stim_asymm_v5,2020.2.10,MacIntel,60,61025ae37ef11b136ea224fe,,,,,,,,,185,-33.4453125,76.734375,1,0,0,response7disk,,0,-0.234375,9.69140625,1,0,0,rectangle,-0.234375,9.69140625,1,0,0,-0.234375,9.69140625,1,0,0,1,78,238,107,1,,,,,,,,
,,,,,,,,,,,,,FF,,,,,,,,1.5014,,,,,,,,,,,,,,,,,,,,,,60fce1afd66e85b2f0cc4e68,61036cfe377eb09d6274ba28,2021-07-29_23h08.18.578,Simcolourproject_2stim_asymm_v5,2020.2.10,MacIntel,60,61025ae37ef11b136ea224fe,,,,,,,,,388,98.1015625,47.97265625,1,0,0,response1disk,,6,22.95703125,5.42578125,1,0,0,rectangle,22.95703125,5.42578125,1,0,0,22.95703125,5.42578125,1,0,0,1,79,239,94,1,,,,,,,,
,,,,,,,,,,,,,FF,,,,,,,,2.6167,,,,,,,,,,,,,,,,,,,,,,60fce1afd66e85b2f0cc4e68,61036cfe377eb09d6274ba28,2021-07-29_23h08.18.578,Simcolourproject_2stim_asymm_v5,2020.2.10,MacIntel,60,61025ae37ef11b136ea224fe,,,,,,,,,3076,32.07421875,96.17578125,1,0,0,response1disk,,7,12.1484375,3.28125,1,0,0,rectangle,12.1484375,3.28125,1,0,0,12.1484375,3.28125,1,0,0,1,80,240,70,1,,,,,,,,
,,,,,,,,,,,,,FF,,,,,,,,1.3994,,,,,,,,,,,,,,,,,,,,,,60fce1afd66e85b2f0cc4e68,61036cfe377eb09d6274ba28,2021-07-29_23h08.18.578,Simcolourproject_2stim_asymm_v5,2020.2.10,MacIntel,60,61025ae37ef11b136ea224fe,,,,,,,,,3351,67.86328125,51.05859375,1,0,0,response1disk,,6,0.96875,-6.73046875,1,0,0,rectangle,0.96875,-6.73046875,1,0,0,0.96875,-6.73046875,1,0,0,1,81,241,131,1,,,,,,,,
,,,,,,,,,,,,,FF,,,,,,,,0.7844,,,,,,,,,,,,,,,,,,,,,,60fce1afd66e85b2f0cc4e68,61036cfe377eb09d6274ba28,2021-07-29_23h08.18.578,Simcolourproject_2stim_asymm_v5,2020.2.10,MacIntel,60,61025ae37ef11b136ea224fe,,,,,,,,,1211,-26.93359375,63.6328125,1,0,0,response7disk,,0,-1.47265625,-1.15234375,1,0,0,rectangle,-1.47265625,-1.15234375,1,0,0,-1.47265625,-1.15234375,1,0,0,1,82,242,79,1,,,,,,,,
,,,,,,,,,,,,,FF,,,,,,,,1.6171,,,,,,,,,,,,,,,,,,,,,,60fce1afd66e85b2f0cc4e68,61036cfe377eb09d6274ba28,2021-07-29_23h08.18.578,Simcolourproject_2stim_asymm_v5,2020.2.10,MacIntel,60,61025ae37ef11b136ea224fe,,,,,,,,,2457,43.546875,94.40625,1,0,0,response1disk,,7,13.40234375,8.35546875,1,0,0,rectangle,13.40234375,8.35546875,1,0,0,13.40234375,8.35546875,1,0,0,1,83,243,4,1,,,,,,,,
,,,,,,,,,,,,,FF,,,,,,,,1.1161,,,,,,,,,,,,,,,,,,,,,,60fce1afd66e85b2f0cc4e68,61036cfe377eb09d6274ba28,2021-07-29_23h08.18.578,Simcolourproject_2stim_asymm_v5,2020.2.10,MacIntel,60,61025ae37ef11b136ea224fe,,,,,,,,,4351,-66.5234375,41.72265625,1,0,0,response7disk,,1,-16,10.47265625,1,0,0,rectangle,-16,10.47265625,1,0,0,-16,10.47265625,1,0,0,1,84,244,40,1,,,,,,,,
,,,,,,,,,,,,,FF,,,,,,,,1.1989,,,,,,,,,,,,,,,,,,,,,,60fce1afd66e85b2f0cc4e68,61036cfe377eb09d6274ba28,2021-07-29_23h08.18.578,Simcolourproject_2stim_asymm_v5,2020.2.10,MacIntel,60,61025ae37ef11b136ea224fe,,,,,,,,,2569,82.66796875,43.95703125,1,0,0,response1disk,,6,14.078125,-3.2578125,1,0,0,rectangle,14.078125,-3.2578125,1,0,0,14.078125,-3.2578125,1,0,0,1,85,245,6,1,,,,,,,,
,,,,,,,,,,,,,FF,,,,,,,,0.9164,,,,,,,,,,,,,,,,,,,,,,60fce1afd66e85b2f0cc4e68,61036cfe377eb09d6274ba28,2021-07-29_23h08.18.578,Simcolourproject_2stim_asymm_v5,2020.2.10,MacIntel,60,61025ae37ef11b136ea224fe,,,,,,,,,2580,75.1171875,18.08984375,1,0,0,response1disk,,6,11.41015625,-1.80859375,1,0,0,rectangle,11.41015625,-1.80859375,1,0,0,11.41015625,-1.80859375,1,0,0,1,86,246,104,1,,,,,,,,
,,,,,,,,,,,,,FF,,,,,,,,1.0002,,,,,,,,,,,,,,,,,,,,,,60fce1afd66e85b2f0cc4e68,61036cfe377eb09d6274ba28,2021-07-29_23h08.18.578,Simcolourproject_2stim_asymm_v5,2020.2.10,MacIntel,60,61025ae37ef11b136ea224fe,,,,,,,,,2758,74.875,30.9453125,1,0,0,response1disk,,6,28.296875,12.234375,1,0,0,rectangle,28.296875,12.234375,1,0,0,28.296875,12.234375,1,0,0,1,87,247,37,1,,,,,,,,
