key_resp.keys,key_resp.rt,key_resp_14.keys,key_resp_14.rt,key_resp_15.keys,key_resp_15.rt,key_resp_17.keys,key_resp_17.rt,key_resp_9.keys,key_resp_9.rt,key_resp_10.keys,key_resp_10.rt,practice_comparison,Ecc,mouse_5.x,mouse_5.y,mouse_5.leftButton,mouse_5.midButton,mouse_5.rightButton,mouse_5.clicked_name,pracsimilarity,response_time,mouse_10.x,mouse_10.y,mouse_10.leftButton,mouse_10.midButton,mouse_10.rightButton,mouse_10.clicked_name,mouse_7.x,mouse_7.y,mouse_7.leftButton,mouse_7.midButton,mouse_7.rightButton,mouse_6.x,mouse_6.y,mouse_6.leftButton,mouse_6.midButton,mouse_6.rightButton,duringprac.thisRepN,duringprac.thisTrialN,duringprac.thisN,duringprac.thisIndex,duringprac.ran,participant,session,date,expName,psychopyVersion,OS,frameRate,study_id,mouse_7.clicked_name,catchpracsimilarity,catch_response_time,catchnumberprac,catchtrialorderprac,mouse_6.clicked_name,key_resp_22.keys,key_resp_22.rt,realcomparison,mouse.x,mouse.y,mouse.leftButton,mouse.midButton,mouse.rightButton,mouse.clicked_name,Colour2,similarity,mouse_2.x,mouse_2.y,mouse_2.leftButton,mouse_2.midButton,mouse_2.rightButton,mouse_2.clicked_name,mouse_3.x,mouse_3.y,mouse_3.leftButton,mouse_3.midButton,mouse_3.rightButton,mouse_11.x,mouse_11.y,mouse_11.leftButton,mouse_11.midButton,mouse_11.rightButton,trials_2.thisRepN,trials_2.thisTrialN,trials_2.thisN,trials_2.thisIndex,trials_2.ran,Colour1,mouse_3.clicked_name,catchornah,catchsimilarity,catchnumber,catchtrialorder,catchRT,mouse_11.clicked_name
space,2.192,space,16.8589,space,17.3117,space,7.5709,space,1.8177,space,5.0897,61,FF,46,118,1,0,0,response1disk_5,7,11.9698,-10,5,1,0,0,rectangle_8,-10,5,1,0,0,-10,5,1,0,0,0,0,0,5,1,60fca5d8124a760a80ff917c,61036eac19cdf417d42a878c,2021-07-29_20h19.15.934,Simcolourproject_2stim_asymm_v5,2020.2.10,Win32,60,61025ae37ef11b136ea224fe,,,,,,,,,,,,,,,,,,,,,,,,,,,,,,,,,,,,,,,,,,,,,,
,,,,,,,,,,,,132,PF,92,-58,1,0,0,response3disk_5,5,2.8463,-6,5,1,0,0,rectangle_8,-111,52,1,0,0,-5,-4,1,0,0,0,1,1,2,1,60fca5d8124a760a80ff917c,61036eac19cdf417d42a878c,2021-07-29_20h19.15.934,Simcolourproject_2stim_asymm_v5,2020.2.10,Win32,60,61025ae37ef11b136ea224fe,response7disk_7,1,4.0472,1,"[2,5]",rectangle_4,,,,,,,,,,,,,,,,,,,,,,,,,,,,,,,,,,,,,,,,
,,,,,,,,,,,,140,PF,53,-45,1,0,0,response3disk_5,5,6.8417,-10,4,1,0,0,rectangle_8,-10,4,1,0,0,-10,4,1,0,0,0,2,2,1,1,60fca5d8124a760a80ff917c,61036eac19cdf417d42a878c,2021-07-29_20h19.15.934,Simcolourproject_2stim_asymm_v5,2020.2.10,Win32,60,61025ae37ef11b136ea224fe,,,,,,,,,,,,,,,,,,,,,,,,,,,,,,,,,,,,,,,,,,,,,,
,,,,,,,,,,,,148,FF,-100,-59,1,0,0,response5disk_5,2,4.6107,3,1,1,0,0,rectangle_8,3,1,1,0,0,3,1,1,0,0,0,3,3,3,1,60fca5d8124a760a80ff917c,61036eac19cdf417d42a878c,2021-07-29_20h19.15.934,Simcolourproject_2stim_asymm_v5,2020.2.10,Win32,60,61025ae37ef11b136ea224fe,,,,,,,,,,,,,,,,,,,,,,,,,,,,,,,,,,,,,,,,,,,,,,
,,,,,,,,,,,,15,FF,93,39,1,0,0,response1disk_5,6,4.8273,-15,1,1,0,0,rectangle_8,-96,68,1,0,0,-3,3,1,0,0,0,4,4,0,1,60fca5d8124a760a80ff917c,61036eac19cdf417d42a878c,2021-07-29_20h19.15.934,Simcolourproject_2stim_asymm_v5,2020.2.10,Win32,60,61025ae37ef11b136ea224fe,response7disk_7,1,1.8975,1,"[2,5]",rectangle_4,,,,,,,,,,,,,,,,,,,,,,,,,,,,,,,,,,,,,,,,
,,,,,,,,,,,,0,PF,-42,-125,1,0,0,response5disk_5,3,4.2609,-6,-1,1,0,0,rectangle_8,-6,-1,1,0,0,-6,-1,1,0,0,0,5,5,4,1,60fca5d8124a760a80ff917c,61036eac19cdf417d42a878c,2021-07-29_20h19.15.934,Simcolourproject_2stim_asymm_v5,2020.2.10,Win32,60,61025ae37ef11b136ea224fe,,,,,,,,,,,,,,,,,,,,,,,,,,,,,,,,,,,,,,,,,,,,,,
,,,,,,,,,,,,24,PF,-93,65,1,0,0,response7disk_5,1,1.7311,-3,-3,1,0,0,rectangle_8,-3,-3,1,0,0,-3,-3,1,0,0,0,6,6,6,1,60fca5d8124a760a80ff917c,61036eac19cdf417d42a878c,2021-07-29_20h19.15.934,Simcolourproject_2stim_asymm_v5,2020.2.10,Win32,60,61025ae37ef11b136ea224fe,,,,,,,,,,,,,,,,,,,,,,,,,,,,,,,,,,,,,,,,,,,,,,
,,,,,,,,,,,,,FF,,,,,,,,3.1803,,,,,,,,,,,,,,,,,,,,,,60fca5d8124a760a80ff917c,61036eac19cdf417d42a878c,2021-07-29_20h19.15.934,Simcolourproject_2stim_asymm_v5,2020.2.10,Win32,60,61025ae37ef11b136ea224fe,,,,,,,space,4.7095,3564,-27,-89,1,0,0,response5disk,,3,-10,-2,1,0,0,rectangle,-10,-2,1,0,0,-10,-2,1,0,0,0,0,0,105,1,,,,,,,,
,,,,,,,,,,,,,FF,,,,,,,,3.2291,,,,,,,,,,,,,,,,,,,,,,60fca5d8124a760a80ff917c,61036eac19cdf417d42a878c,2021-07-29_20h19.15.934,Simcolourproject_2stim_asymm_v5,2020.2.10,Win32,60,61025ae37ef11b136ea224fe,,,,,,,,,3870,51,-74,1,0,0,response3disk,,4,1,5,1,0,0,rectangle,1,5,1,0,0,1,5,1,0,0,0,1,1,128,1,,,,,,,,
,,,,,,,,,,,,,FF,,,,,,,,3.6783,,,,,,,,,,,,,,,,,,,,,,60fca5d8124a760a80ff917c,61036eac19cdf417d42a878c,2021-07-29_20h19.15.934,Simcolourproject_2stim_asymm_v5,2020.2.10,Win32,60,61025ae37ef11b136ea224fe,,,,,,,,,1513,-37,-97,1,0,0,response5disk,,3,-7,2,1,0,0,rectangle,-7,2,1,0,0,-7,2,1,0,0,0,2,2,158,1,,,,,,,,
,,,,,,,,,,,,,FF,,,,,,,,3.8948,,,,,,,,,,,,,,,,,,,,,,60fca5d8124a760a80ff917c,61036eac19cdf417d42a878c,2021-07-29_20h19.15.934,Simcolourproject_2stim_asymm_v5,2020.2.10,Win32,60,61025ae37ef11b136ea224fe,,,,,,,,,3660,33,-88,1,0,0,response3disk,,4,-2,-1,1,0,0,rectangle,-2,-1,1,0,0,-2,-1,1,0,0,0,3,3,91,1,,,,,,,,
,,,,,,,,,,,,,FF,,,,,,,,4.477,,,,,,,,,,,,,,,,,,,,,,60fca5d8124a760a80ff917c,61036eac19cdf417d42a878c,2021-07-29_20h19.15.934,Simcolourproject_2stim_asymm_v5,2020.2.10,Win32,60,61025ae37ef11b136ea224fe,,,,,,,,,1687,-103,-33,1,0,0,response5disk,,2,-5,14,1,0,0,rectangle,-5,14,1,0,0,-5,14,1,0,0,0,4,4,43,1,,,,,,,,
,,,,,,,,,,,,,FF,,,,,,,,1.8809,,,,,,,,,,,,,,,,,,,,,,60fca5d8124a760a80ff917c,61036eac19cdf417d42a878c,2021-07-29_20h19.15.934,Simcolourproject_2stim_asymm_v5,2020.2.10,Win32,60,61025ae37ef11b136ea224fe,,,,,,,,,3954,-107,-48,1,0,0,response5disk,,2,0,0,1,0,0,rectangle,0,0,1,0,0,0,0,1,0,0,0,5,5,119,1,,,,,,,,
,,,,,,,,,,,,,FF,,,,,,,,4.2607,,,,,,,,,,,,,,,,,,,,,,60fca5d8124a760a80ff917c,61036eac19cdf417d42a878c,2021-07-29_20h19.15.934,Simcolourproject_2stim_asymm_v5,2020.2.10,Win32,60,61025ae37ef11b136ea224fe,,,,,,,,,2182,-33,-95,1,0,0,response5disk,,3,2,9,1,0,0,rectangle,2,9,1,0,0,2,9,1,0,0,0,6,6,33,1,,,,,,,,
,,,,,,,,,,,,,FF,,,,,,,,1.6978,,,,,,,,,,,,,,,,,,,,,,60fca5d8124a760a80ff917c,61036eac19cdf417d42a878c,2021-07-29_20h19.15.934,Simcolourproject_2stim_asymm_v5,2020.2.10,Win32,60,61025ae37ef11b136ea224fe,,,,,,,,,3919,62,-81,1,0,0,response3disk,,4,-11,9,1,0,0,rectangle,-11,9,1,0,0,-11,9,1,0,0,0,7,7,74,1,,,,,,,,
,,,,,,,,,,,,,FF,,,,,,,,1.2651,,,,,,,,,,,,,,,,,,,,,,60fca5d8124a760a80ff917c,61036eac19cdf417d42a878c,2021-07-29_20h19.15.934,Simcolourproject_2stim_asymm_v5,2020.2.10,Win32,60,61025ae37ef11b136ea224fe,,,,,,,,,3970,-106,58,1,0,0,response7disk,,1,-8,6,1,0,0,rectangle,-8,6,1,0,0,-8,6,1,0,0,0,8,8,96,1,,,,,,,,
,,,,,,,,,,,,,FF,,,,,,,,1.032,,,,,,,,,,,,,,,,,,,,,,60fca5d8124a760a80ff917c,61036eac19cdf417d42a878c,2021-07-29_20h19.15.934,Simcolourproject_2stim_asymm_v5,2020.2.10,Win32,60,61025ae37ef11b136ea224fe,,,,,,,,,4077,-82,41,1,0,0,response7disk,,1,-11,-2,1,0,0,rectangle,-11,-2,1,0,0,-11,-2,1,0,0,0,9,9,155,1,,,,,,,,
,,,,,,,,,,,,,FF,,,,,,,,1.4481,,,,,,,,,,,,,,,,,,,,,,60fca5d8124a760a80ff917c,61036eac19cdf417d42a878c,2021-07-29_20h19.15.934,Simcolourproject_2stim_asymm_v5,2020.2.10,Win32,60,61025ae37ef11b136ea224fe,,,,,,,,,2109,-71,-37,1,0,0,response5disk,,2,5,0,1,0,0,rectangle,5,0,1,0,0,5,0,1,0,0,0,10,10,81,1,,,,,,,,
,,,,,,,,,,,,,FF,,,,,,,,1.648,,,,,,,,,,,,,,,,,,,,,,60fca5d8124a760a80ff917c,61036eac19cdf417d42a878c,2021-07-29_20h19.15.934,Simcolourproject_2stim_asymm_v5,2020.2.10,Win32,60,61025ae37ef11b136ea224fe,,,,,,,,,2543,-86,-35,1,0,0,response5disk,,2,5,1,1,0,0,rectangle,5,1,1,0,0,5,1,1,0,0,0,11,11,13,1,,,,,,,,
,,,,,,,,,,,,,FF,,,,,,,,1.4479,,,,,,,,,,,,,,,,,,,,,,60fca5d8124a760a80ff917c,61036eac19cdf417d42a878c,2021-07-29_20h19.15.934,Simcolourproject_2stim_asymm_v5,2020.2.10,Win32,60,61025ae37ef11b136ea224fe,,,,,,,,,307,-27,-62,1,0,0,response5disk,,3,8,-4,1,0,0,rectangle,8,-4,1,0,0,8,-4,1,0,0,0,12,12,103,1,,,,,,,,
,,,,,,,,,,,,,FF,,,,,,,,1.8141,,,,,,,,,,,,,,,,,,,,,,60fca5d8124a760a80ff917c,61036eac19cdf417d42a878c,2021-07-29_20h19.15.934,Simcolourproject_2stim_asymm_v5,2020.2.10,Win32,60,61025ae37ef11b136ea224fe,,,,,,,,,2598,-71,-30,1,0,0,response5disk,,2,5,2,1,0,0,rectangle,5,2,1,0,0,5,2,1,0,0,0,13,13,107,1,,,,,,,,
,,,,,,,,,,,,,FF,,,,,,,,1.3485,,,,,,,,,,,,,,,,,,,,,,60fca5d8124a760a80ff917c,61036eac19cdf417d42a878c,2021-07-29_20h19.15.934,Simcolourproject_2stim_asymm_v5,2020.2.10,Win32,60,61025ae37ef11b136ea224fe,,,,,,,,,2509,73,-40,1,0,0,response3disk,,5,-3,1,1,0,0,rectangle,-3,1,1,0,0,-3,1,1,0,0,0,14,14,92,1,,,,,,,,
,,,,,,,,,,,,,FF,,,,,,,,1.448,,,,,,,,,,,,,,,,,,,,,,60fca5d8124a760a80ff917c,61036eac19cdf417d42a878c,2021-07-29_20h19.15.934,Simcolourproject_2stim_asymm_v5,2020.2.10,Win32,60,61025ae37ef11b136ea224fe,,,,,,,,,50,91,-38,1,0,0,response3disk,,5,-11,4,1,0,0,rectangle,-11,4,1,0,0,-11,4,1,0,0,0,15,15,71,1,,,,,,,,
,,,,,,,,,,,,,FF,,,,,,,,1.565,,,,,,,,,,,,,,,,,,,,,,60fca5d8124a760a80ff917c,61036eac19cdf417d42a878c,2021-07-29_20h19.15.934,Simcolourproject_2stim_asymm_v5,2020.2.10,Win32,60,61025ae37ef11b136ea224fe,,,,,,,,,2240,-37,120,1,0,0,response7disk,,0,-3,3,1,0,0,rectangle,-3,3,1,0,0,-3,3,1,0,0,0,16,16,95,1,,,,,,,,
,,,,,,,,,,,,,FF,,,,,,,,1.6482,,,,,,,,,,,,,,,,,,,,,,60fca5d8124a760a80ff917c,61036eac19cdf417d42a878c,2021-07-29_20h19.15.934,Simcolourproject_2stim_asymm_v5,2020.2.10,Win32,60,61025ae37ef11b136ea224fe,,,,,,,,,965,-91,-51,1,0,0,response5disk,,2,3,-2,1,0,0,rectangle,53,-87,1,0,0,-6,-4,1,0,0,0,17,17,149,1,,response3disk_3,TRUE,4,4,"[39,101,261,202,130,18,228,235,187,157,157,187,255,232,176,232,144,241,222,86]",2.0313,rectangle
,,,,,,,,,,,,,FF,,,,,,,,1.581,,,,,,,,,,,,,,,,,,,,,,60fca5d8124a760a80ff917c,61036eac19cdf417d42a878c,2021-07-29_20h19.15.934,Simcolourproject_2stim_asymm_v5,2020.2.10,Win32,60,61025ae37ef11b136ea224fe,,,,,,,,,2830,-83,-55,1,0,0,response5disk,,2,-5,6,1,0,0,rectangle,-5,6,1,0,0,-5,6,1,0,0,0,18,18,36,1,,,,,,,,
,,,,,,,,,,,,,FF,,,,,,,,1.1653,,,,,,,,,,,,,,,,,,,,,,60fca5d8124a760a80ff917c,61036eac19cdf417d42a878c,2021-07-29_20h19.15.934,Simcolourproject_2stim_asymm_v5,2020.2.10,Win32,60,61025ae37ef11b136ea224fe,,,,,,,,,556,-56,39,1,0,0,response7disk,,1,7,6,1,0,0,rectangle,7,6,1,0,0,7,6,1,0,0,0,19,19,131,1,,,,,,,,
,,,,,,,,,,,,,FF,,,,,,,,1.9643,,,,,,,,,,,,,,,,,,,,,,60fca5d8124a760a80ff917c,61036eac19cdf417d42a878c,2021-07-29_20h19.15.934,Simcolourproject_2stim_asymm_v5,2020.2.10,Win32,60,61025ae37ef11b136ea224fe,,,,,,,,,3255,43,-72,1,0,0,response3disk,,4,1,-1,1,0,0,rectangle,1,-1,1,0,0,1,-1,1,0,0,0,20,20,7,1,,,,,,,,
,,,,,,,,,,,,,FF,,,,,,,,1.1987,,,,,,,,,,,,,,,,,,,,,,60fca5d8124a760a80ff917c,61036eac19cdf417d42a878c,2021-07-29_20h19.15.934,Simcolourproject_2stim_asymm_v5,2020.2.10,Win32,60,61025ae37ef11b136ea224fe,,,,,,,,,1892,-68,64,1,0,0,response7disk,,1,3,14,1,0,0,rectangle,3,14,1,0,0,3,14,1,0,0,0,21,21,127,1,,,,,,,,
,,,,,,,,,,,,,FF,,,,,,,,1.0988,,,,,,,,,,,,,,,,,,,,,,60fca5d8124a760a80ff917c,61036eac19cdf417d42a878c,2021-07-29_20h19.15.934,Simcolourproject_2stim_asymm_v5,2020.2.10,Win32,60,61025ae37ef11b136ea224fe,,,,,,,,,871,-80,40,1,0,0,response7disk,,1,-2,7,1,0,0,rectangle,-2,7,1,0,0,-2,7,1,0,0,0,22,22,104,1,,,,,,,,
,,,,,,,,,,,,,FF,,,,,,,,2.5299,,,,,,,,,,,,,,,,,,,,,,60fca5d8124a760a80ff917c,61036eac19cdf417d42a878c,2021-07-29_20h19.15.934,Simcolourproject_2stim_asymm_v5,2020.2.10,Win32,60,61025ae37ef11b136ea224fe,,,,,,,,,4006,-41,-84,1,0,0,response5disk,,3,2,6,1,0,0,rectangle,2,6,1,0,0,2,6,1,0,0,0,23,23,116,1,,,,,,,,
,,,,,,,,,,,,,FF,,,,,,,,1.0321,,,,,,,,,,,,,,,,,,,,,,60fca5d8124a760a80ff917c,61036eac19cdf417d42a878c,2021-07-29_20h19.15.934,Simcolourproject_2stim_asymm_v5,2020.2.10,Win32,60,61025ae37ef11b136ea224fe,,,,,,,,,3971,-76,50,1,0,0,response7disk,,1,1,8,1,0,0,rectangle,1,8,1,0,0,1,8,1,0,0,0,24,24,85,1,,,,,,,,
,,,,,,,,,,,,,FF,,,,,,,,1.6977,,,,,,,,,,,,,,,,,,,,,,60fca5d8124a760a80ff917c,61036eac19cdf417d42a878c,2021-07-29_20h19.15.934,Simcolourproject_2stim_asymm_v5,2020.2.10,Win32,60,61025ae37ef11b136ea224fe,,,,,,,,,3944,-96,-59,1,0,0,response5disk,,2,-4,-5,1,0,0,rectangle,-4,-5,1,0,0,-4,-5,1,0,0,0,25,25,106,1,,,,,,,,
,,,,,,,,,,,,,FF,,,,,,,,1.4149,,,,,,,,,,,,,,,,,,,,,,60fca5d8124a760a80ff917c,61036eac19cdf417d42a878c,2021-07-29_20h19.15.934,Simcolourproject_2stim_asymm_v5,2020.2.10,Win32,60,61025ae37ef11b136ea224fe,,,,,,,,,2641,67,-31,1,0,0,response3disk,,5,-1,8,1,0,0,rectangle,-1,8,1,0,0,-1,8,1,0,0,0,26,26,88,1,,,,,,,,
,,,,,,,,,,,,,FF,,,,,,,,1.8644,,,,,,,,,,,,,,,,,,,,,,60fca5d8124a760a80ff917c,61036eac19cdf417d42a878c,2021-07-29_20h19.15.934,Simcolourproject_2stim_asymm_v5,2020.2.10,Win32,60,61025ae37ef11b136ea224fe,,,,,,,,,470,-28,-98,1,0,0,response5disk,,3,7,9,1,0,0,rectangle,7,9,1,0,0,7,9,1,0,0,0,27,27,47,1,,,,,,,,
,,,,,,,,,,,,,FF,,,,,,,,2.3804,,,,,,,,,,,,,,,,,,,,,,60fca5d8124a760a80ff917c,61036eac19cdf417d42a878c,2021-07-29_20h19.15.934,Simcolourproject_2stim_asymm_v5,2020.2.10,Win32,60,61025ae37ef11b136ea224fe,,,,,,,,,3143,-105,-54,1,0,0,response5disk,,2,13,7,1,0,0,rectangle,13,7,1,0,0,13,7,1,0,0,0,28,28,65,1,,,,,,,,
,,,,,,,,,,,,,FF,,,,,,,,1.0653,,,,,,,,,,,,,,,,,,,,,,60fca5d8124a760a80ff917c,61036eac19cdf417d42a878c,2021-07-29_20h19.15.934,Simcolourproject_2stim_asymm_v5,2020.2.10,Win32,60,61025ae37ef11b136ea224fe,,,,,,,,,1983,33,-78,1,0,0,response3disk,,4,-10,-1,1,0,0,rectangle,-10,-1,1,0,0,-10,-1,1,0,0,0,29,29,123,1,,,,,,,,
,,,,,,,,,,,,,FF,,,,,,,,1.5314,,,,,,,,,,,,,,,,,,,,,,60fca5d8124a760a80ff917c,61036eac19cdf417d42a878c,2021-07-29_20h19.15.934,Simcolourproject_2stim_asymm_v5,2020.2.10,Win32,60,61025ae37ef11b136ea224fe,,,,,,,,,1565,46,-93,1,0,0,response3disk,,4,-12,5,1,0,0,rectangle,-12,5,1,0,0,-12,5,1,0,0,0,30,30,125,1,,,,,,,,
,,,,,,,,,,,,,FF,,,,,,,,1.8144,,,,,,,,,,,,,,,,,,,,,,60fca5d8124a760a80ff917c,61036eac19cdf417d42a878c,2021-07-29_20h19.15.934,Simcolourproject_2stim_asymm_v5,2020.2.10,Win32,60,61025ae37ef11b136ea224fe,,,,,,,,,3134,86,-32,1,0,0,response3disk,,5,-8,12,1,0,0,rectangle,-8,12,1,0,0,-8,12,1,0,0,0,31,31,143,1,,,,,,,,
,,,,,,,,,,,,,FF,,,,,,,,4.1609,,,,,,,,,,,,,,,,,,,,,,60fca5d8124a760a80ff917c,61036eac19cdf417d42a878c,2021-07-29_20h19.15.934,Simcolourproject_2stim_asymm_v5,2020.2.10,Win32,60,61025ae37ef11b136ea224fe,,,,,,,,,1874,45,-113,1,0,0,response3disk,,4,-4,-2,1,0,0,rectangle,-4,-2,1,0,0,-4,-2,1,0,0,0,32,32,64,1,,,,,,,,
,,,,,,,,,,,,,FF,,,,,,,,1.032,,,,,,,,,,,,,,,,,,,,,,60fca5d8124a760a80ff917c,61036eac19cdf417d42a878c,2021-07-29_20h19.15.934,Simcolourproject_2stim_asymm_v5,2020.2.10,Win32,60,61025ae37ef11b136ea224fe,,,,,,,,,1899,-80,44,1,0,0,response7disk,,1,-9,7,1,0,0,rectangle,-9,7,1,0,0,-9,7,1,0,0,0,33,33,4,1,,,,,,,,
,,,,,,,,,,,,,FF,,,,,,,,1.4315,,,,,,,,,,,,,,,,,,,,,,60fca5d8124a760a80ff917c,61036eac19cdf417d42a878c,2021-07-29_20h19.15.934,Simcolourproject_2stim_asymm_v5,2020.2.10,Win32,60,61025ae37ef11b136ea224fe,,,,,,,,,751,-112,-30,1,0,0,response5disk,,2,-3,4,1,0,0,rectangle,-3,4,1,0,0,-3,4,1,0,0,0,34,34,135,1,,,,,,,,
,,,,,,,,,,,,,FF,,,,,,,,0.982,,,,,,,,,,,,,,,,,,,,,,60fca5d8124a760a80ff917c,61036eac19cdf417d42a878c,2021-07-29_20h19.15.934,Simcolourproject_2stim_asymm_v5,2020.2.10,Win32,60,61025ae37ef11b136ea224fe,,,,,,,,,3637,-43,101,1,0,0,response7disk,,0,-4,9,1,0,0,rectangle,-4,9,1,0,0,-4,9,1,0,0,0,35,35,46,1,,,,,,,,
,,,,,,,,,,,,,FF,,,,,,,,1.9474,,,,,,,,,,,,,,,,,,,,,,60fca5d8124a760a80ff917c,61036eac19cdf417d42a878c,2021-07-29_20h19.15.934,Simcolourproject_2stim_asymm_v5,2020.2.10,Win32,60,61025ae37ef11b136ea224fe,,,,,,,,,4074,92,54,1,0,0,response1disk,,6,-6,2,1,0,0,rectangle,-6,2,1,0,0,-6,2,1,0,0,0,36,36,61,1,,,,,,,,
,,,,,,,,,,,,,FF,,,,,,,,1.3983,,,,,,,,,,,,,,,,,,,,,,60fca5d8124a760a80ff917c,61036eac19cdf417d42a878c,2021-07-29_20h19.15.934,Simcolourproject_2stim_asymm_v5,2020.2.10,Win32,60,61025ae37ef11b136ea224fe,,,,,,,,,1725,97,38,1,0,0,response1disk,,6,1,0,1,0,0,rectangle,1,0,1,0,0,1,0,1,0,0,0,37,37,97,1,,,,,,,,
,,,,,,,,,,,,,FF,,,,,,,,1.2317,,,,,,,,,,,,,,,,,,,,,,60fca5d8124a760a80ff917c,61036eac19cdf417d42a878c,2021-07-29_20h19.15.934,Simcolourproject_2stim_asymm_v5,2020.2.10,Win32,60,61025ae37ef11b136ea224fe,,,,,,,,,820,-48,-61,1,0,0,response5disk,,3,2,3,1,0,0,rectangle,29,-84,1,0,0,-1,-10,1,0,0,0,38,38,62,1,,response3disk_3,TRUE,4,4,"[39,101,261,202,130,18,228,235,187,157,157,187,255,232,176,232,144,241,222,86]",1.7315,rectangle
,,,,,,,,,,,,,FF,,,,,,,,0.7998,,,,,,,,,,,,,,,,,,,,,,60fca5d8124a760a80ff917c,61036eac19cdf417d42a878c,2021-07-29_20h19.15.934,Simcolourproject_2stim_asymm_v5,2020.2.10,Win32,60,61025ae37ef11b136ea224fe,,,,,,,,,968,-50,87,1,0,0,response7disk,,0,1,2,1,0,0,rectangle,1,2,1,0,0,1,2,1,0,0,0,39,39,22,1,,,,,,,,
,,,,,,,,,,,,,FF,,,,,,,,2.0143,,,,,,,,,,,,,,,,,,,,,,60fca5d8124a760a80ff917c,61036eac19cdf417d42a878c,2021-07-29_20h19.15.934,Simcolourproject_2stim_asymm_v5,2020.2.10,Win32,60,61025ae37ef11b136ea224fe,,,,,,,,,2222,-90,-25,1,0,0,response5disk,,2,-1,6,1,0,0,rectangle,-1,6,1,0,0,-1,6,1,0,0,0,40,40,25,1,,,,,,,,
,,,,,,,,,,,,,FF,,,,,,,,1.4481,,,,,,,,,,,,,,,,,,,,,,60fca5d8124a760a80ff917c,61036eac19cdf417d42a878c,2021-07-29_20h19.15.934,Simcolourproject_2stim_asymm_v5,2020.2.10,Win32,60,61025ae37ef11b136ea224fe,,,,,,,,,1916,-40,-98,1,0,0,response5disk,,3,4,1,1,0,0,rectangle,4,1,1,0,0,4,1,1,0,0,0,41,41,0,1,,,,,,,,
,,,,,,,,,,,,,FF,,,,,,,,1.5313,,,,,,,,,,,,,,,,,,,,,,60fca5d8124a760a80ff917c,61036eac19cdf417d42a878c,2021-07-29_20h19.15.934,Simcolourproject_2stim_asymm_v5,2020.2.10,Win32,60,61025ae37ef11b136ea224fe,,,,,,,,,1738,-67,-41,1,0,0,response5disk,,2,14,-3,1,0,0,rectangle,14,-3,1,0,0,14,-3,1,0,0,0,42,42,40,1,,,,,,,,
,,,,,,,,,,,,,FF,,,,,,,,2.7297,,,,,,,,,,,,,,,,,,,,,,60fca5d8124a760a80ff917c,61036eac19cdf417d42a878c,2021-07-29_20h19.15.934,Simcolourproject_2stim_asymm_v5,2020.2.10,Win32,60,61025ae37ef11b136ea224fe,,,,,,,,,422,32,-68,1,0,0,response3disk,,4,-5,-6,1,0,0,rectangle,-5,-6,1,0,0,-5,-6,1,0,0,0,43,43,137,1,,,,,,,,
,,,,,,,,,,,,,FF,,,,,,,,1.7311,,,,,,,,,,,,,,,,,,,,,,60fca5d8124a760a80ff917c,61036eac19cdf417d42a878c,2021-07-29_20h19.15.934,Simcolourproject_2stim_asymm_v5,2020.2.10,Win32,60,61025ae37ef11b136ea224fe,,,,,,,,,1278,97,-48,1,0,0,response3disk,,5,-1,-5,1,0,0,rectangle,-1,-5,1,0,0,-1,-5,1,0,0,0,44,44,152,1,,,,,,,,
,,,,,,,,,,,,,FF,,,,,,,,1.2485,,,,,,,,,,,,,,,,,,,,,,60fca5d8124a760a80ff917c,61036eac19cdf417d42a878c,2021-07-29_20h19.15.934,Simcolourproject_2stim_asymm_v5,2020.2.10,Win32,60,61025ae37ef11b136ea224fe,,,,,,,,,3020,79,-35,1,0,0,response3disk,,5,-4,1,1,0,0,rectangle,-4,1,1,0,0,-4,1,1,0,0,0,45,45,156,1,,,,,,,,
,,,,,,,,,,,,,FF,,,,,,,,1.1484,,,,,,,,,,,,,,,,,,,,,,60fca5d8124a760a80ff917c,61036eac19cdf417d42a878c,2021-07-29_20h19.15.934,Simcolourproject_2stim_asymm_v5,2020.2.10,Win32,60,61025ae37ef11b136ea224fe,,,,,,,,,24,91,46,1,0,0,response1disk,,6,2,1,1,0,0,rectangle,2,1,1,0,0,2,1,1,0,0,0,46,46,153,1,,,,,,,,
,,,,,,,,,,,,,FF,,,,,,,,1.2817,,,,,,,,,,,,,,,,,,,,,,60fca5d8124a760a80ff917c,61036eac19cdf417d42a878c,2021-07-29_20h19.15.934,Simcolourproject_2stim_asymm_v5,2020.2.10,Win32,60,61025ae37ef11b136ea224fe,,,,,,,,,2365,-39,-113,1,0,0,response5disk,,3,-1,7,1,0,0,rectangle,-1,7,1,0,0,-1,7,1,0,0,0,47,47,49,1,,,,,,,,
,,,,,,,,,,,,,FF,,,,,,,,1.5979,,,,,,,,,,,,,,,,,,,,,,60fca5d8124a760a80ff917c,61036eac19cdf417d42a878c,2021-07-29_20h19.15.934,Simcolourproject_2stim_asymm_v5,2020.2.10,Win32,60,61025ae37ef11b136ea224fe,,,,,,,,,2539,72,-40,1,0,0,response3disk,,5,-9,-6,1,0,0,rectangle,-9,-6,1,0,0,-9,-6,1,0,0,0,48,48,87,1,,,,,,,,
,,,,,,,,,,,,,FF,,,,,,,,0.9986,,,,,,,,,,,,,,,,,,,,,,60fca5d8124a760a80ff917c,61036eac19cdf417d42a878c,2021-07-29_20h19.15.934,Simcolourproject_2stim_asymm_v5,2020.2.10,Win32,60,61025ae37ef11b136ea224fe,,,,,,,,,3173,89,-58,1,0,0,response3disk,,5,-5,-2,1,0,0,rectangle,-5,-2,1,0,0,-5,-2,1,0,0,0,49,49,63,1,,,,,,,,
,,,,,,,,,,,,,FF,,,,,,,,1.7132,,,,,,,,,,,,,,,,,,,,,,60fca5d8124a760a80ff917c,61036eac19cdf417d42a878c,2021-07-29_20h19.15.934,Simcolourproject_2stim_asymm_v5,2020.2.10,Win32,60,61025ae37ef11b136ea224fe,,,,,,,,,175,-59,-98,1,0,0,response5disk,,3,-1,-4,1,0,0,rectangle,-1,-4,1,0,0,-1,-4,1,0,0,0,50,50,54,1,,,,,,,,
,,,,,,,,,,,,,FF,,,,,,,,1.0817,,,,,,,,,,,,,,,,,,,,,,60fca5d8124a760a80ff917c,61036eac19cdf417d42a878c,2021-07-29_20h19.15.934,Simcolourproject_2stim_asymm_v5,2020.2.10,Win32,60,61025ae37ef11b136ea224fe,,,,,,,,,1682,-99,56,1,0,0,response7disk,,1,1,-1,1,0,0,rectangle,1,-1,1,0,0,1,-1,1,0,0,0,51,51,109,1,,,,,,,,
,,,,,,,,,,,,,FF,,,,,,,,1.6147,,,,,,,,,,,,,,,,,,,,,,60fca5d8124a760a80ff917c,61036eac19cdf417d42a878c,2021-07-29_20h19.15.934,Simcolourproject_2stim_asymm_v5,2020.2.10,Win32,60,61025ae37ef11b136ea224fe,,,,,,,,,799,50,-78,1,0,0,response3disk,,4,-9,14,1,0,0,rectangle,-9,14,1,0,0,-9,14,1,0,0,0,52,52,10,1,,,,,,,,
,,,,,,,,,,,,,FF,,,,,,,,1.1153,,,,,,,,,,,,,,,,,,,,,,60fca5d8124a760a80ff917c,61036eac19cdf417d42a878c,2021-07-29_20h19.15.934,Simcolourproject_2stim_asymm_v5,2020.2.10,Win32,60,61025ae37ef11b136ea224fe,,,,,,,,,1450,-96,40,1,0,0,response7disk,,1,-3,4,1,0,0,rectangle,-3,4,1,0,0,-3,4,1,0,0,0,53,53,2,1,,,,,,,,
,,,,,,,,,,,,,FF,,,,,,,,2.0474,,,,,,,,,,,,,,,,,,,,,,60fca5d8124a760a80ff917c,61036eac19cdf417d42a878c,2021-07-29_20h19.15.934,Simcolourproject_2stim_asymm_v5,2020.2.10,Win32,60,61025ae37ef11b136ea224fe,,,,,,,,,2806,97,47,1,0,0,response1disk,,6,-11,-5,1,0,0,rectangle,-11,-5,1,0,0,-11,-5,1,0,0,0,54,54,140,1,,,,,,,,
,,,,,,,,,,,,,FF,,,,,,,,0.9815,,,,,,,,,,,,,,,,,,,,,,60fca5d8124a760a80ff917c,61036eac19cdf417d42a878c,2021-07-29_20h19.15.934,Simcolourproject_2stim_asymm_v5,2020.2.10,Win32,60,61025ae37ef11b136ea224fe,,,,,,,,,4218,-53,93,1,0,0,response7disk,,0,-5,12,1,0,0,rectangle,-5,12,1,0,0,-5,12,1,0,0,0,55,55,102,1,,,,,,,,
,,,,,,,,,,,,,FF,,,,,,,,3.9615,,,,,,,,,,,,,,,,,,,,,,60fca5d8124a760a80ff917c,61036eac19cdf417d42a878c,2021-07-29_20h19.15.934,Simcolourproject_2stim_asymm_v5,2020.2.10,Win32,60,61025ae37ef11b136ea224fe,,,,,,,,,3068,46,-86,1,0,0,response3disk,,4,4,6,1,0,0,rectangle,4,6,1,0,0,4,6,1,0,0,0,56,56,77,1,,,,,,,,
,,,,,,,,,,,,,FF,,,,,,,,1.4317,,,,,,,,,,,,,,,,,,,,,,60fca5d8124a760a80ff917c,61036eac19cdf417d42a878c,2021-07-29_20h19.15.934,Simcolourproject_2stim_asymm_v5,2020.2.10,Win32,60,61025ae37ef11b136ea224fe,,,,,,,,,1134,-91,-48,1,0,0,response5disk,,2,4,0,1,0,0,rectangle,4,0,1,0,0,4,0,1,0,0,0,57,57,59,1,,,,,,,,
,,,,,,,,,,,,,FF,,,,,,,,1.0985,,,,,,,,,,,,,,,,,,,,,,60fca5d8124a760a80ff917c,61036eac19cdf417d42a878c,2021-07-29_20h19.15.934,Simcolourproject_2stim_asymm_v5,2020.2.10,Win32,60,61025ae37ef11b136ea224fe,,,,,,,,,3846,-98,35,1,0,0,response7disk,,1,-7,-1,1,0,0,rectangle,-7,-1,1,0,0,-7,-1,1,0,0,0,58,58,32,1,,,,,,,,
,,,,,,,,,,,,,FF,,,,,,,,1.1817,,,,,,,,,,,,,,,,,,,,,,60fca5d8124a760a80ff917c,61036eac19cdf417d42a878c,2021-07-29_20h19.15.934,Simcolourproject_2stim_asymm_v5,2020.2.10,Win32,60,61025ae37ef11b136ea224fe,,,,,,,,,638,-79,-42,1,0,0,response5disk,,2,0,4,1,0,0,rectangle,0,4,1,0,0,0,4,1,0,0,0,59,59,41,1,,,,,,,,
,,,,,,,,,,,,,FF,,,,,,,,1.1319,,,,,,,,,,,,,,,,,,,,,,60fca5d8124a760a80ff917c,61036eac19cdf417d42a878c,2021-07-29_20h19.15.934,Simcolourproject_2stim_asymm_v5,2020.2.10,Win32,60,61025ae37ef11b136ea224fe,,,,,,,,,2485,-91,-31,1,0,0,response5disk,,2,-23,10,1,0,0,rectangle,-23,10,1,0,0,-23,10,1,0,0,0,60,60,108,1,,,,,,,,
,,,,,,,,,,,,,FF,,,,,,,,1.0654,,,,,,,,,,,,,,,,,,,,,,60fca5d8124a760a80ff917c,61036eac19cdf417d42a878c,2021-07-29_20h19.15.934,Simcolourproject_2stim_asymm_v5,2020.2.10,Win32,60,61025ae37ef11b136ea224fe,,,,,,,,,3698,40,65,1,0,0,response1disk,,7,1,-1,1,0,0,rectangle,1,-1,1,0,0,1,-1,1,0,0,0,61,61,111,1,,,,,,,,
,,,,,,,,,,,,,FF,,,,,,,,1.5786,,,,,,,,,,,,,,,,,,,,,,60fca5d8124a760a80ff917c,61036eac19cdf417d42a878c,2021-07-29_20h19.15.934,Simcolourproject_2stim_asymm_v5,2020.2.10,Win32,60,61025ae37ef11b136ea224fe,,,,,,,,,2203,95,63,1,0,0,response1disk,,6,-12,-9,1,0,0,rectangle,-12,-9,1,0,0,-12,-9,1,0,0,0,62,62,18,1,,,,,,,,
,,,,,,,,,,,,,FF,,,,,,,,1.3153,,,,,,,,,,,,,,,,,,,,,,60fca5d8124a760a80ff917c,61036eac19cdf417d42a878c,2021-07-29_20h19.15.934,Simcolourproject_2stim_asymm_v5,2020.2.10,Win32,60,61025ae37ef11b136ea224fe,,,,,,,,,447,45,94,1,0,0,response1disk,,7,0,2,1,0,0,rectangle,0,2,1,0,0,0,2,1,0,0,0,63,63,6,1,,,,,,,,
,,,,,,,,,,,,,FF,,,,,,,,2.6632,,,,,,,,,,,,,,,,,,,,,,60fca5d8124a760a80ff917c,61036eac19cdf417d42a878c,2021-07-29_20h19.15.934,Simcolourproject_2stim_asymm_v5,2020.2.10,Win32,60,61025ae37ef11b136ea224fe,,,,,,,,,3784,92,34,1,0,0,response1disk,,6,-9,-2,1,0,0,rectangle,-9,-2,1,0,0,-9,-2,1,0,0,0,64,64,83,1,,,,,,,,
,,,,,,,,,,,,,FF,,,,,,,,1.7645,,,,,,,,,,,,,,,,,,,,,,60fca5d8124a760a80ff917c,61036eac19cdf417d42a878c,2021-07-29_20h19.15.934,Simcolourproject_2stim_asymm_v5,2020.2.10,Win32,60,61025ae37ef11b136ea224fe,,,,,,,,,2145,80,43,1,0,0,response1disk,,6,-3,4,1,0,0,rectangle,-3,4,1,0,0,-3,4,1,0,0,0,65,65,148,1,,,,,,,,
,,,,,,,,,,,,,FF,,,,,,,,1.5649,,,,,,,,,,,,,,,,,,,,,,60fca5d8124a760a80ff917c,61036eac19cdf417d42a878c,2021-07-29_20h19.15.934,Simcolourproject_2stim_asymm_v5,2020.2.10,Win32,60,61025ae37ef11b136ea224fe,,,,,,,,,1660,86,-61,1,0,0,response3disk,,5,2,4,1,0,0,rectangle,2,4,1,0,0,2,4,1,0,0,0,66,66,3,1,,,,,,,,
,,,,,,,,,,,,,FF,,,,,,,,3.1792,,,,,,,,,,,,,,,,,,,,,,60fca5d8124a760a80ff917c,61036eac19cdf417d42a878c,2021-07-29_20h19.15.934,Simcolourproject_2stim_asymm_v5,2020.2.10,Win32,60,61025ae37ef11b136ea224fe,,,,,,,,,180,91,-51,1,0,0,response3disk,,5,-23,-2,1,0,0,rectangle,-23,-2,1,0,0,-23,-2,1,0,0,0,67,67,28,1,,,,,,,,
,,,,,,,,,,,,,FF,,,,,,,,1.8309,,,,,,,,,,,,,,,,,,,,,,60fca5d8124a760a80ff917c,61036eac19cdf417d42a878c,2021-07-29_20h19.15.934,Simcolourproject_2stim_asymm_v5,2020.2.10,Win32,60,61025ae37ef11b136ea224fe,,,,,,,,,2309,-39,-81,1,0,0,response5disk,,3,-10,2,1,0,0,rectangle,-10,2,1,0,0,-10,2,1,0,0,0,68,68,99,1,,,,,,,,
,,,,,,,,,,,,,FF,,,,,,,,1.6145,,,,,,,,,,,,,,,,,,,,,,60fca5d8124a760a80ff917c,61036eac19cdf417d42a878c,2021-07-29_20h19.15.934,Simcolourproject_2stim_asymm_v5,2020.2.10,Win32,60,61025ae37ef11b136ea224fe,,,,,,,,,2560,45,-71,1,0,0,response3disk,,4,8,-1,1,0,0,rectangle,8,-1,1,0,0,8,-1,1,0,0,0,69,69,100,1,,,,,,,,
,,,,,,,,,,,,,FF,,,,,,,,1.5479,,,,,,,,,,,,,,,,,,,,,,60fca5d8124a760a80ff917c,61036eac19cdf417d42a878c,2021-07-29_20h19.15.934,Simcolourproject_2stim_asymm_v5,2020.2.10,Win32,60,61025ae37ef11b136ea224fe,,,,,,,,,4206,-43,-87,1,0,0,response5disk,,3,-20,-8,1,0,0,rectangle,-20,-8,1,0,0,-20,-8,1,0,0,0,70,70,78,1,,,,,,,,
,,,,,,,,,,,,,FF,,,,,,,,1.667,,,,,,,,,,,,,,,,,,,,,,60fca5d8124a760a80ff917c,61036eac19cdf417d42a878c,2021-07-29_20h19.15.934,Simcolourproject_2stim_asymm_v5,2020.2.10,Win32,60,61025ae37ef11b136ea224fe,,,,,,,,,1375,-103,-56,1,0,0,response5disk,,2,12,6,1,0,0,rectangle,12,6,1,0,0,12,6,1,0,0,0,71,71,120,1,,,,,,,,
,,,,,,,,,,,,,FF,,,,,,,,1.415,,,,,,,,,,,,,,,,,,,,,,60fca5d8124a760a80ff917c,61036eac19cdf417d42a878c,2021-07-29_20h19.15.934,Simcolourproject_2stim_asymm_v5,2020.2.10,Win32,60,61025ae37ef11b136ea224fe,,,,,,,,,117,-67,-83,1,0,0,response5disk,,3,-10,-3,1,0,0,rectangle,-10,-3,1,0,0,-10,-3,1,0,0,0,72,72,26,1,,,,,,,,
,,,,,,,,,,,,,FF,,,,,,,,1.4981,,,,,,,,,,,,,,,,,,,,,,60fca5d8124a760a80ff917c,61036eac19cdf417d42a878c,2021-07-29_20h19.15.934,Simcolourproject_2stim_asymm_v5,2020.2.10,Win32,60,61025ae37ef11b136ea224fe,,,,,,,,,3265,37,-69,1,0,0,response3disk,,4,2,-5,1,0,0,rectangle,2,-5,1,0,0,2,-5,1,0,0,0,73,73,89,1,,,,,,,,
,,,,,,,,,,,,,FF,,,,,,,,1.215,,,,,,,,,,,,,,,,,,,,,,60fca5d8124a760a80ff917c,61036eac19cdf417d42a878c,2021-07-29_20h19.15.934,Simcolourproject_2stim_asymm_v5,2020.2.10,Win32,60,61025ae37ef11b136ea224fe,,,,,,,,,2428,-68,-21,1,0,0,response5disk,,2,-20,3,1,0,0,rectangle,-20,3,1,0,0,-20,3,1,0,0,0,74,74,29,1,,,,,,,,
,,,,,,,,,,,,,FF,,,,,,,,4.5274,,,,,,,,,,,,,,,,,,,,,,60fca5d8124a760a80ff917c,61036eac19cdf417d42a878c,2021-07-29_20h19.15.934,Simcolourproject_2stim_asymm_v5,2020.2.10,Win32,60,61025ae37ef11b136ea224fe,,,,,,,,,3056,-38,-116,1,0,0,response5disk,,3,0,6,1,0,0,rectangle,0,6,1,0,0,0,6,1,0,0,0,75,75,98,1,,,,,,,,
,,,,,,,,,,,,,FF,,,,,,,,1.0322,,,,,,,,,,,,,,,,,,,,,,60fca5d8124a760a80ff917c,61036eac19cdf417d42a878c,2021-07-29_20h19.15.934,Simcolourproject_2stim_asymm_v5,2020.2.10,Win32,60,61025ae37ef11b136ea224fe,,,,,,,,,996,-33,-82,1,0,0,response5disk,,3,-9,15,1,0,0,rectangle,-9,15,1,0,0,-9,15,1,0,0,0,76,76,82,1,,,,,,,,
,,,,,,,,,,,,,FF,,,,,,,,1.0654,,,,,,,,,,,,,,,,,,,,,,60fca5d8124a760a80ff917c,61036eac19cdf417d42a878c,2021-07-29_20h19.15.934,Simcolourproject_2stim_asymm_v5,2020.2.10,Win32,60,61025ae37ef11b136ea224fe,,,,,,,,,1073,39,-84,1,0,0,response3disk,,4,-18,2,1,0,0,rectangle,-18,2,1,0,0,-18,2,1,0,0,0,77,77,68,1,,,,,,,,
,,,,,,,,,,,,,FF,,,,,,,,1.0821,,,,,,,,,,,,,,,,,,,,,,60fca5d8124a760a80ff917c,61036eac19cdf417d42a878c,2021-07-29_20h19.15.934,Simcolourproject_2stim_asymm_v5,2020.2.10,Win32,60,61025ae37ef11b136ea224fe,,,,,,,,,4139,68,83,1,0,0,response1disk,,7,31,8,1,0,0,rectangle,31,8,1,0,0,31,8,1,0,0,0,78,78,75,1,,,,,,,,
,,,,,,,,,,,,,FF,,,,,,,,2.0641,,,,,,,,,,,,,,,,,,,,,,60fca5d8124a760a80ff917c,61036eac19cdf417d42a878c,2021-07-29_20h19.15.934,Simcolourproject_2stim_asymm_v5,2020.2.10,Win32,60,61025ae37ef11b136ea224fe,,,,,,,,,2589,51,-86,1,0,0,response3disk,,4,4,-5,1,0,0,rectangle,4,-5,1,0,0,4,-5,1,0,0,0,79,79,56,1,,,,,,,,
,,,,,,,,,,,,,FF,,,,,,,,1.2985,,,,,,,,,,,,,,,,,,,,,,60fca5d8124a760a80ff917c,61036eac19cdf417d42a878c,2021-07-29_20h19.15.934,Simcolourproject_2stim_asymm_v5,2020.2.10,Win32,60,61025ae37ef11b136ea224fe,,,,,,,,,1028,102,-17,1,0,0,response3disk,,5,35,-3,1,0,0,rectangle,35,-3,1,0,0,35,-3,1,0,0,0,80,80,9,1,,,,,,,,
,,,,,,,,,,,,,FF,,,,,,,,1.3649,,,,,,,,,,,,,,,,,,,,,,60fca5d8124a760a80ff917c,61036eac19cdf417d42a878c,2021-07-29_20h19.15.934,Simcolourproject_2stim_asymm_v5,2020.2.10,Win32,60,61025ae37ef11b136ea224fe,,,,,,,,,3721,82,70,1,0,0,response1disk,,6,-2,7,1,0,0,rectangle,-2,7,1,0,0,-2,7,1,0,0,0,81,81,112,1,,,,,,,,
,,,,,,,,,,,,,FF,,,,,,,,1.1654,,,,,,,,,,,,,,,,,,,,,,60fca5d8124a760a80ff917c,61036eac19cdf417d42a878c,2021-07-29_20h19.15.934,Simcolourproject_2stim_asymm_v5,2020.2.10,Win32,60,61025ae37ef11b136ea224fe,,,,,,,,,2583,96,57,1,0,0,response1disk,,6,5,-2,1,0,0,rectangle,5,-2,1,0,0,5,-2,1,0,0,0,82,82,8,1,,,,,,,,
,,,,,,,,,,,,,FF,,,,,,,,3.5784,,,,,,,,,,,,,,,,,,,,,,60fca5d8124a760a80ff917c,61036eac19cdf417d42a878c,2021-07-29_20h19.15.934,Simcolourproject_2stim_asymm_v5,2020.2.10,Win32,60,61025ae37ef11b136ea224fe,,,,,,,,,1426,75,-60,1,0,0,response3disk,,5,3,-12,1,0,0,rectangle,3,-12,1,0,0,3,-12,1,0,0,0,83,83,154,1,,,,,,,,
,,,,,,,,,,,,,FF,,,,,,,,1.2984,,,,,,,,,,,,,,,,,,,,,,60fca5d8124a760a80ff917c,61036eac19cdf417d42a878c,2021-07-29_20h19.15.934,Simcolourproject_2stim_asymm_v5,2020.2.10,Win32,60,61025ae37ef11b136ea224fe,,,,,,,,,3023,103,46,1,0,0,response1disk,,6,20,2,1,0,0,rectangle,20,2,1,0,0,20,2,1,0,0,0,84,84,134,1,,,,,,,,
,,,,,,,,,,,,,FF,,,,,,,,1.1485,,,,,,,,,,,,,,,,,,,,,,60fca5d8124a760a80ff917c,61036eac19cdf417d42a878c,2021-07-29_20h19.15.934,Simcolourproject_2stim_asymm_v5,2020.2.10,Win32,60,61025ae37ef11b136ea224fe,,,,,,,,,2177,-35,-85,1,0,0,response5disk,,3,11,17,1,0,0,rectangle,-96,-56,1,0,0,-13,-10,1,0,0,0,85,85,45,1,,response5disk_3,TRUE,2,2,"[39,101,261,202,130,18,228,235,187,157,157,187,255,232,176,232,144,241,222,86]",2.3654,rectangle
,,,,,,,,,,,,,FF,,,,,,,,1.831,,,,,,,,,,,,,,,,,,,,,,60fca5d8124a760a80ff917c,61036eac19cdf417d42a878c,2021-07-29_20h19.15.934,Simcolourproject_2stim_asymm_v5,2020.2.10,Win32,60,61025ae37ef11b136ea224fe,,,,,,,,,983,-31,-81,1,0,0,response5disk,,3,2,-12,1,0,0,rectangle,2,-12,1,0,0,2,-12,1,0,0,0,86,86,37,1,,,,,,,,
,,,,,,,,,,,,,FF,,,,,,,,10.0531,,,,,,,,,,,,,,,,,,,,,,60fca5d8124a760a80ff917c,61036eac19cdf417d42a878c,2021-07-29_20h19.15.934,Simcolourproject_2stim_asymm_v5,2020.2.10,Win32,60,61025ae37ef11b136ea224fe,,,,,,,,,1435,-37,-63,1,0,0,response5disk,,3,-10,5,1,0,0,rectangle,-10,5,1,0,0,-10,5,1,0,0,0,87,87,93,1,,,,,,,,
,,,,,,,,,,,,,FF,,,,,,,,1.7306,,,,,,,,,,,,,,,,,,,,,,60fca5d8124a760a80ff917c,61036eac19cdf417d42a878c,2021-07-29_20h19.15.934,Simcolourproject_2stim_asymm_v5,2020.2.10,Win32,60,61025ae37ef11b136ea224fe,,,,,,,,,280,-22,-82,1,0,0,response5disk,,3,0,8,1,0,0,rectangle,0,8,1,0,0,0,8,1,0,0,0,88,88,124,1,,,,,,,,
,,,,,,,,,,,,,FF,,,,,,,,1.8474,,,,,,,,,,,,,,,,,,,,,,60fca5d8124a760a80ff917c,61036eac19cdf417d42a878c,2021-07-29_20h19.15.934,Simcolourproject_2stim_asymm_v5,2020.2.10,Win32,60,61025ae37ef11b136ea224fe,,,,,,,,,3339,-84,-41,1,0,0,response5disk,,2,-7,1,1,0,0,rectangle,-7,1,1,0,0,-7,1,1,0,0,0,89,89,23,1,,,,,,,,
,,,,,,,,,,,,,FF,,,,,,,,1.5646,,,,,,,,,,,,,,,,,,,,,,60fca5d8124a760a80ff917c,61036eac19cdf417d42a878c,2021-07-29_20h19.15.934,Simcolourproject_2stim_asymm_v5,2020.2.10,Win32,60,61025ae37ef11b136ea224fe,,,,,,,,,2383,59,-99,1,0,0,response3disk,,4,18,3,1,0,0,rectangle,18,3,1,0,0,18,3,1,0,0,0,90,90,31,1,,,,,,,,
,,,,,,,,,,,,,FF,,,,,,,,1.1152,,,,,,,,,,,,,,,,,,,,,,60fca5d8124a760a80ff917c,61036eac19cdf417d42a878c,2021-07-29_20h19.15.934,Simcolourproject_2stim_asymm_v5,2020.2.10,Win32,60,61025ae37ef11b136ea224fe,,,,,,,,,487,76,-25,1,0,0,response3disk,,5,15,4,1,0,0,rectangle,15,4,1,0,0,15,4,1,0,0,0,91,91,73,1,,,,,,,,
,,,,,,,,,,,,,FF,,,,,,,,1.0487,,,,,,,,,,,,,,,,,,,,,,60fca5d8124a760a80ff917c,61036eac19cdf417d42a878c,2021-07-29_20h19.15.934,Simcolourproject_2stim_asymm_v5,2020.2.10,Win32,60,61025ae37ef11b136ea224fe,,,,,,,,,2707,89,-53,1,0,0,response3disk,,5,4,0,1,0,0,rectangle,4,0,1,0,0,4,0,1,0,0,0,92,92,30,1,,,,,,,,
,,,,,,,,,,,,,FF,,,,,,,,1.1817,,,,,,,,,,,,,,,,,,,,,,60fca5d8124a760a80ff917c,61036eac19cdf417d42a878c,2021-07-29_20h19.15.934,Simcolourproject_2stim_asymm_v5,2020.2.10,Win32,60,61025ae37ef11b136ea224fe,,,,,,,,,287,78,-49,1,0,0,response3disk,,5,-20,-4,1,0,0,rectangle,-20,-4,1,0,0,-20,-4,1,0,0,0,93,93,16,1,,,,,,,,
,,,,,,,,,,,,,FF,,,,,,,,1.0483,,,,,,,,,,,,,,,,,,,,,,60fca5d8124a760a80ff917c,61036eac19cdf417d42a878c,2021-07-29_20h19.15.934,Simcolourproject_2stim_asymm_v5,2020.2.10,Win32,60,61025ae37ef11b136ea224fe,,,,,,,,,3449,89,33,1,0,0,response1disk,,6,-17,-3,1,0,0,rectangle,-17,-3,1,0,0,-17,-3,1,0,0,0,94,94,144,1,,,,,,,,
,,,,,,,,,,,,,FF,,,,,,,,2.0144,,,,,,,,,,,,,,,,,,,,,,60fca5d8124a760a80ff917c,61036eac19cdf417d42a878c,2021-07-29_20h19.15.934,Simcolourproject_2stim_asymm_v5,2020.2.10,Win32,60,61025ae37ef11b136ea224fe,,,,,,,,,3193,-77,56,1,0,0,response7disk,,1,-23,0,1,0,0,rectangle,-23,0,1,0,0,-23,0,1,0,0,0,95,95,117,1,,,,,,,,
,,,,,,,,,,,,,FF,,,,,,,,1.165,,,,,,,,,,,,,,,,,,,,,,60fca5d8124a760a80ff917c,61036eac19cdf417d42a878c,2021-07-29_20h19.15.934,Simcolourproject_2stim_asymm_v5,2020.2.10,Win32,60,61025ae37ef11b136ea224fe,,,,,,,,,1233,-66,-98,1,0,0,response5disk,,3,-5,-8,1,0,0,rectangle,-5,-8,1,0,0,-5,-8,1,0,0,0,96,96,136,1,,,,,,,,
,,,,,,,,,,,,,FF,,,,,,,,0.932,,,,,,,,,,,,,,,,,,,,,,60fca5d8124a760a80ff917c,61036eac19cdf417d42a878c,2021-07-29_20h19.15.934,Simcolourproject_2stim_asymm_v5,2020.2.10,Win32,60,61025ae37ef11b136ea224fe,,,,,,,,,3205,-77,-43,1,0,0,response5disk,,2,-9,-10,1,0,0,rectangle,-9,-10,1,0,0,-9,-10,1,0,0,0,97,97,94,1,,,,,,,,
,,,,,,,,,,,,,FF,,,,,,,,1.2985,,,,,,,,,,,,,,,,,,,,,,60fca5d8124a760a80ff917c,61036eac19cdf417d42a878c,2021-07-29_20h19.15.934,Simcolourproject_2stim_asymm_v5,2020.2.10,Win32,60,61025ae37ef11b136ea224fe,,,,,,,,,3850,-35,125,1,0,0,response7disk,,0,8,-18,1,0,0,rectangle,8,-18,1,0,0,8,-18,1,0,0,0,98,98,101,1,,,,,,,,
,,,,,,,,,,,,,FF,,,,,,,,1.6479,,,,,,,,,,,,,,,,,,,,,,60fca5d8124a760a80ff917c,61036eac19cdf417d42a878c,2021-07-29_20h19.15.934,Simcolourproject_2stim_asymm_v5,2020.2.10,Win32,60,61025ae37ef11b136ea224fe,,,,,,,,,2655,-34,-67,1,0,0,response5disk,,3,-5,-11,1,0,0,rectangle,-5,-11,1,0,0,-5,-11,1,0,0,0,99,99,17,1,,,,,,,,
,,,,,,,,,,,,,FF,,,,,,,,1.5653,,,,,,,,,,,,,,,,,,,,,,60fca5d8124a760a80ff917c,61036eac19cdf417d42a878c,2021-07-29_20h19.15.934,Simcolourproject_2stim_asymm_v5,2020.2.10,Win32,60,61025ae37ef11b136ea224fe,,,,,,,,,4092,64,102,1,0,0,response1disk,,7,2,15,1,0,0,rectangle,120,65,1,0,0,-1,8,1,0,0,0,100,100,27,1,,response1disk_3,TRUE,6,6,"[39,101,261,202,130,18,228,235,187,157,157,187,255,232,176,232,144,241,222,86]",1.6145,rectangle
,,,,,,,,,,,,,FF,,,,,,,,1.3018,,,,,,,,,,,,,,,,,,,,,,60fca5d8124a760a80ff917c,61036eac19cdf417d42a878c,2021-07-29_20h19.15.934,Simcolourproject_2stim_asymm_v5,2020.2.10,Win32,60,61025ae37ef11b136ea224fe,,,,,,,,,3110,84,28,1,0,0,response1disk,,6,4,-12,1,0,0,rectangle,4,-12,1,0,0,4,-12,1,0,0,0,101,101,24,1,,,,,,,,
,,,,,,,,,,,,,FF,,,,,,,,1.1983,,,,,,,,,,,,,,,,,,,,,,60fca5d8124a760a80ff917c,61036eac19cdf417d42a878c,2021-07-29_20h19.15.934,Simcolourproject_2stim_asymm_v5,2020.2.10,Win32,60,61025ae37ef11b136ea224fe,,,,,,,,,3815,-48,98,1,0,0,response7disk,,0,-7,8,1,0,0,rectangle,-7,8,1,0,0,-7,8,1,0,0,0,102,102,113,1,,,,,,,,
,,,,,,,,,,,,,FF,,,,,,,,1.5478,,,,,,,,,,,,,,,,,,,,,,60fca5d8124a760a80ff917c,61036eac19cdf417d42a878c,2021-07-29_20h19.15.934,Simcolourproject_2stim_asymm_v5,2020.2.10,Win32,60,61025ae37ef11b136ea224fe,,,,,,,,,1004,-25,-78,1,0,0,response5disk,,3,-9,-11,1,0,0,rectangle,-9,-11,1,0,0,-9,-11,1,0,0,0,103,103,67,1,,,,,,,,
,,,,,,,,,,,,,FF,,,,,,,,2.9628,,,,,,,,,,,,,,,,,,,,,,60fca5d8124a760a80ff917c,61036eac19cdf417d42a878c,2021-07-29_20h19.15.934,Simcolourproject_2stim_asymm_v5,2020.2.10,Win32,60,61025ae37ef11b136ea224fe,,,,,,,,,896,-54,-113,1,0,0,response5disk,,3,-4,7,1,0,0,rectangle,-4,7,1,0,0,-4,7,1,0,0,0,104,104,159,1,,,,,,,,
,,,,,,,,,,,,,FF,,,,,,,,1.2487,,,,,,,,,,,,,,,,,,,,,,60fca5d8124a760a80ff917c,61036eac19cdf417d42a878c,2021-07-29_20h19.15.934,Simcolourproject_2stim_asymm_v5,2020.2.10,Win32,60,61025ae37ef11b136ea224fe,,,,,,,,,1730,93,-41,1,0,0,response3disk,,5,20,1,1,0,0,rectangle,20,1,1,0,0,20,1,1,0,0,0,105,105,118,1,,,,,,,,
,,,,,,,,,,,,,FF,,,,,,,,1.932,,,,,,,,,,,,,,,,,,,,,,60fca5d8124a760a80ff917c,61036eac19cdf417d42a878c,2021-07-29_20h19.15.934,Simcolourproject_2stim_asymm_v5,2020.2.10,Win32,60,61025ae37ef11b136ea224fe,,,,,,,,,472,108,75,1,0,0,response1disk,,6,-9,-5,1,0,0,rectangle,-9,-5,1,0,0,-9,-5,1,0,0,0,106,106,70,1,,,,,,,,
,,,,,,,,,,,,,FF,,,,,,,,0.8664,,,,,,,,,,,,,,,,,,,,,,60fca5d8124a760a80ff917c,61036eac19cdf417d42a878c,2021-07-29_20h19.15.934,Simcolourproject_2stim_asymm_v5,2020.2.10,Win32,60,61025ae37ef11b136ea224fe,,,,,,,,,4086,47,101,1,0,0,response1disk,,7,8,-2,1,0,0,rectangle,8,-2,1,0,0,8,-2,1,0,0,0,107,107,55,1,,,,,,,,
,,,,,,,,,,,,,FF,,,,,,,,2.4302,,,,,,,,,,,,,,,,,,,,,,60fca5d8124a760a80ff917c,61036eac19cdf417d42a878c,2021-07-29_20h19.15.934,Simcolourproject_2stim_asymm_v5,2020.2.10,Win32,60,61025ae37ef11b136ea224fe,,,,,,,,,416,86,-24,1,0,0,response3disk,,5,17,-3,1,0,0,rectangle,17,-3,1,0,0,17,-3,1,0,0,0,108,108,122,1,,,,,,,,
,,,,,,,,,,,,,FF,,,,,,,,1.2997,,,,,,,,,,,,,,,,,,,,,,60fca5d8124a760a80ff917c,61036eac19cdf417d42a878c,2021-07-29_20h19.15.934,Simcolourproject_2stim_asymm_v5,2020.2.10,Win32,60,61025ae37ef11b136ea224fe,,,,,,,,,546,-104,21,1,0,0,response7disk,,1,-12,0,1,0,0,rectangle,-12,0,1,0,0,-12,0,1,0,0,0,109,109,110,1,,,,,,,,
,,,,,,,,,,,,,FF,,,,,,,,0.9321,,,,,,,,,,,,,,,,,,,,,,60fca5d8124a760a80ff917c,61036eac19cdf417d42a878c,2021-07-29_20h19.15.934,Simcolourproject_2stim_asymm_v5,2020.2.10,Win32,60,61025ae37ef11b136ea224fe,,,,,,,,,42,-94,-42,1,0,0,response5disk,,2,-10,11,1,0,0,rectangle,-10,11,1,0,0,-10,11,1,0,0,0,110,110,69,1,,,,,,,,
,,,,,,,,,,,,,FF,,,,,,,,0.899,,,,,,,,,,,,,,,,,,,,,,60fca5d8124a760a80ff917c,61036eac19cdf417d42a878c,2021-07-29_20h19.15.934,Simcolourproject_2stim_asymm_v5,2020.2.10,Win32,60,61025ae37ef11b136ea224fe,,,,,,,,,3628,32,71,1,0,0,response1disk,,7,-7,-2,1,0,0,rectangle,-7,-2,1,0,0,-7,-2,1,0,0,0,111,111,146,1,,,,,,,,
,,,,,,,,,,,,,FF,,,,,,,,1.5987,,,,,,,,,,,,,,,,,,,,,,60fca5d8124a760a80ff917c,61036eac19cdf417d42a878c,2021-07-29_20h19.15.934,Simcolourproject_2stim_asymm_v5,2020.2.10,Win32,60,61025ae37ef11b136ea224fe,,,,,,,,,1061,-23,-58,1,0,0,response5disk,,3,5,6,1,0,0,rectangle,5,6,1,0,0,5,6,1,0,0,0,112,112,60,1,,,,,,,,
,,,,,,,,,,,,,FF,,,,,,,,3.3789,,,,,,,,,,,,,,,,,,,,,,60fca5d8124a760a80ff917c,61036eac19cdf417d42a878c,2021-07-29_20h19.15.934,Simcolourproject_2stim_asymm_v5,2020.2.10,Win32,60,61025ae37ef11b136ea224fe,,,,,,,,,2127,94,-48,1,0,0,response3disk,,5,30,-14,1,0,0,rectangle,30,-14,1,0,0,30,-14,1,0,0,0,113,113,76,1,,,,,,,,
,,,,,,,,,,,,,FF,,,,,,,,1.1656,,,,,,,,,,,,,,,,,,,,,,60fca5d8124a760a80ff917c,61036eac19cdf417d42a878c,2021-07-29_20h19.15.934,Simcolourproject_2stim_asymm_v5,2020.2.10,Win32,60,61025ae37ef11b136ea224fe,,,,,,,,,4179,70,109,1,0,0,response1disk,,7,13,-9,1,0,0,rectangle,13,-9,1,0,0,13,-9,1,0,0,0,114,114,14,1,,,,,,,,
,,,,,,,,,,,,,FF,,,,,,,,2.963,,,,,,,,,,,,,,,,,,,,,,60fca5d8124a760a80ff917c,61036eac19cdf417d42a878c,2021-07-29_20h19.15.934,Simcolourproject_2stim_asymm_v5,2020.2.10,Win32,60,61025ae37ef11b136ea224fe,,,,,,,,,1716,54,90,1,0,0,response1disk,,7,-26,-9,1,0,0,rectangle,-26,-9,1,0,0,-26,-9,1,0,0,0,115,115,79,1,,,,,,,,
,,,,,,,,,,,,,FF,,,,,,,,1.1653,,,,,,,,,,,,,,,,,,,,,,60fca5d8124a760a80ff917c,61036eac19cdf417d42a878c,2021-07-29_20h19.15.934,Simcolourproject_2stim_asymm_v5,2020.2.10,Win32,60,61025ae37ef11b136ea224fe,,,,,,,,,940,100,38,1,0,0,response1disk,,6,13,5,1,0,0,rectangle,13,5,1,0,0,13,5,1,0,0,0,116,116,80,1,,,,,,,,
,,,,,,,,,,,,,FF,,,,,,,,2.1639,,,,,,,,,,,,,,,,,,,,,,60fca5d8124a760a80ff917c,61036eac19cdf417d42a878c,2021-07-29_20h19.15.934,Simcolourproject_2stim_asymm_v5,2020.2.10,Win32,60,61025ae37ef11b136ea224fe,,,,,,,,,2593,93,-38,1,0,0,response3disk,,5,12,3,1,0,0,rectangle,12,3,1,0,0,12,3,1,0,0,0,117,117,115,1,,,,,,,,
,,,,,,,,,,,,,FF,,,,,,,,1.4814,,,,,,,,,,,,,,,,,,,,,,60fca5d8124a760a80ff917c,61036eac19cdf417d42a878c,2021-07-29_20h19.15.934,Simcolourproject_2stim_asymm_v5,2020.2.10,Win32,60,61025ae37ef11b136ea224fe,,,,,,,,,2864,78,-29,1,0,0,response3disk,,5,29,9,1,0,0,rectangle,29,9,1,0,0,29,9,1,0,0,0,118,118,44,1,,,,,,,,
,,,,,,,,,,,,,FF,,,,,,,,1.2152,,,,,,,,,,,,,,,,,,,,,,60fca5d8124a760a80ff917c,61036eac19cdf417d42a878c,2021-07-29_20h19.15.934,Simcolourproject_2stim_asymm_v5,2020.2.10,Win32,60,61025ae37ef11b136ea224fe,,,,,,,,,4277,70,-76,1,0,0,response3disk,,4,12,-12,1,0,0,rectangle,12,-12,1,0,0,12,-12,1,0,0,0,119,119,130,1,,,,,,,,
,,,,,,,,,,,,,FF,,,,,,,,1.5147,,,,,,,,,,,,,,,,,,,,,,60fca5d8124a760a80ff917c,61036eac19cdf417d42a878c,2021-07-29_20h19.15.934,Simcolourproject_2stim_asymm_v5,2020.2.10,Win32,60,61025ae37ef11b136ea224fe,,,,,,,,,890,-97,26,1,0,0,response7disk,,1,-23,-2,1,0,0,rectangle,-23,-2,1,0,0,-23,-2,1,0,0,0,120,120,48,1,,,,,,,,
,,,,,,,,,,,,,FF,,,,,,,,0.7491,,,,,,,,,,,,,,,,,,,,,,60fca5d8124a760a80ff917c,61036eac19cdf417d42a878c,2021-07-29_20h19.15.934,Simcolourproject_2stim_asymm_v5,2020.2.10,Win32,60,61025ae37ef11b136ea224fe,,,,,,,,,2660,-20,79,1,0,0,response7disk,,0,13,0,1,0,0,rectangle,13,0,1,0,0,13,0,1,0,0,0,121,121,138,1,,,,,,,,
,,,,,,,,,,,,,FF,,,,,,,,1.0819,,,,,,,,,,,,,,,,,,,,,,60fca5d8124a760a80ff917c,61036eac19cdf417d42a878c,2021-07-29_20h19.15.934,Simcolourproject_2stim_asymm_v5,2020.2.10,Win32,60,61025ae37ef11b136ea224fe,,,,,,,,,3775,-88,-59,1,0,0,response5disk,,2,-8,-12,1,0,0,rectangle,-8,-12,1,0,0,-8,-12,1,0,0,0,122,122,53,1,,,,,,,,
,,,,,,,,,,,,,FF,,,,,,,,1.1153,,,,,,,,,,,,,,,,,,,,,,60fca5d8124a760a80ff917c,61036eac19cdf417d42a878c,2021-07-29_20h19.15.934,Simcolourproject_2stim_asymm_v5,2020.2.10,Win32,60,61025ae37ef11b136ea224fe,,,,,,,,,3831,-32,-89,1,0,0,response5disk,,3,9,16,1,0,0,rectangle,9,16,1,0,0,9,16,1,0,0,0,123,123,35,1,,,,,,,,
,,,,,,,,,,,,,FF,,,,,,,,0.8987,,,,,,,,,,,,,,,,,,,,,,60fca5d8124a760a80ff917c,61036eac19cdf417d42a878c,2021-07-29_20h19.15.934,Simcolourproject_2stim_asymm_v5,2020.2.10,Win32,60,61025ae37ef11b136ea224fe,,,,,,,,,1242,37,-65,1,0,0,response3disk,,4,-1,7,1,0,0,rectangle,-1,7,1,0,0,-1,7,1,0,0,0,124,124,21,1,,,,,,,,
,,,,,,,,,,,,,FF,,,,,,,,1.365,,,,,,,,,,,,,,,,,,,,,,60fca5d8124a760a80ff917c,61036eac19cdf417d42a878c,2021-07-29_20h19.15.934,Simcolourproject_2stim_asymm_v5,2020.2.10,Win32,60,61025ae37ef11b136ea224fe,,,,,,,,,1939,37,27,1,0,0,response1disk,,6,-19,-3,1,0,0,rectangle,-19,-3,1,0,0,-19,-3,1,0,0,0,125,125,133,1,,,,,,,,
,,,,,,,,,,,,,FF,,,,,,,,1.2486,,,,,,,,,,,,,,,,,,,,,,60fca5d8124a760a80ff917c,61036eac19cdf417d42a878c,2021-07-29_20h19.15.934,Simcolourproject_2stim_asymm_v5,2020.2.10,Win32,60,61025ae37ef11b136ea224fe,,,,,,,,,1141,-72,-38,1,0,0,response5disk,,2,1,3,1,0,0,rectangle,1,3,1,0,0,1,3,1,0,0,0,126,126,142,1,,,,,,,,
,,,,,,,,,,,,,FF,,,,,,,,1.3483,,,,,,,,,,,,,,,,,,,,,,60fca5d8124a760a80ff917c,61036eac19cdf417d42a878c,2021-07-29_20h19.15.934,Simcolourproject_2stim_asymm_v5,2020.2.10,Win32,60,61025ae37ef11b136ea224fe,,,,,,,,,1573,66,-105,1,0,0,response3disk,,4,-7,-13,1,0,0,rectangle,-7,-13,1,0,0,-7,-13,1,0,0,0,127,127,150,1,,,,,,,,
,,,,,,,,,,,,,FF,,,,,,,,1.0154,,,,,,,,,,,,,,,,,,,,,,60fca5d8124a760a80ff917c,61036eac19cdf417d42a878c,2021-07-29_20h19.15.934,Simcolourproject_2stim_asymm_v5,2020.2.10,Win32,60,61025ae37ef11b136ea224fe,,,,,,,,,2612,-42,-97,1,0,0,response5disk,,3,0,3,1,0,0,rectangle,0,3,1,0,0,0,3,1,0,0,0,128,128,126,1,,,,,,,,
,,,,,,,,,,,,,FF,,,,,,,,1.1155,,,,,,,,,,,,,,,,,,,,,,60fca5d8124a760a80ff917c,61036eac19cdf417d42a878c,2021-07-29_20h19.15.934,Simcolourproject_2stim_asymm_v5,2020.2.10,Win32,60,61025ae37ef11b136ea224fe,,,,,,,,,1422,65,-62,1,0,0,response3disk,,5,13,-7,1,0,0,rectangle,109,31,1,0,0,3,-1,1,0,0,0,129,129,12,1,,response1disk_3,TRUE,6,6,"[39,101,261,202,130,18,228,235,187,157,157,187,255,232,176,232,144,241,222,86]",1.647,rectangle
,,,,,,,,,,,,,FF,,,,,,,,1.3486,,,,,,,,,,,,,,,,,,,,,,60fca5d8124a760a80ff917c,61036eac19cdf417d42a878c,2021-07-29_20h19.15.934,Simcolourproject_2stim_asymm_v5,2020.2.10,Win32,60,61025ae37ef11b136ea224fe,,,,,,,,,1680,-43,-69,1,0,0,response5disk,,3,-10,1,1,0,0,rectangle,-10,1,1,0,0,-10,1,1,0,0,0,130,130,72,1,,,,,,,,
,,,,,,,,,,,,,FF,,,,,,,,2.3303,,,,,,,,,,,,,,,,,,,,,,60fca5d8124a760a80ff917c,61036eac19cdf417d42a878c,2021-07-29_20h19.15.934,Simcolourproject_2stim_asymm_v5,2020.2.10,Win32,60,61025ae37ef11b136ea224fe,,,,,,,,,1699,22,-75,1,0,0,response3disk,,4,7,6,1,0,0,rectangle,7,6,1,0,0,7,6,1,0,0,0,131,131,151,1,,,,,,,,
,,,,,,,,,,,,,FF,,,,,,,,1.4316,,,,,,,,,,,,,,,,,,,,,,60fca5d8124a760a80ff917c,61036eac19cdf417d42a878c,2021-07-29_20h19.15.934,Simcolourproject_2stim_asymm_v5,2020.2.10,Win32,60,61025ae37ef11b136ea224fe,,,,,,,,,3022,68,-45,1,0,0,response3disk,,5,10,5,1,0,0,rectangle,10,5,1,0,0,10,5,1,0,0,0,132,132,66,1,,,,,,,,
,,,,,,,,,,,,,FF,,,,,,,,0.9657,,,,,,,,,,,,,,,,,,,,,,60fca5d8124a760a80ff917c,61036eac19cdf417d42a878c,2021-07-29_20h19.15.934,Simcolourproject_2stim_asymm_v5,2020.2.10,Win32,60,61025ae37ef11b136ea224fe,,,,,,,,,3350,-76,42,1,0,0,response7disk,,1,-14,-2,1,0,0,rectangle,-14,-2,1,0,0,-14,-2,1,0,0,0,133,133,90,1,,,,,,,,
,,,,,,,,,,,,,FF,,,,,,,,2.6962,,,,,,,,,,,,,,,,,,,,,,60fca5d8124a760a80ff917c,61036eac19cdf417d42a878c,2021-07-29_20h19.15.934,Simcolourproject_2stim_asymm_v5,2020.2.10,Win32,60,61025ae37ef11b136ea224fe,,,,,,,,,1567,-90,-60,1,0,0,response5disk,,2,25,16,1,0,0,rectangle,25,16,1,0,0,25,16,1,0,0,0,134,134,132,1,,,,,,,,
,,,,,,,,,,,,,FF,,,,,,,,1.1988,,,,,,,,,,,,,,,,,,,,,,60fca5d8124a760a80ff917c,61036eac19cdf417d42a878c,2021-07-29_20h19.15.934,Simcolourproject_2stim_asymm_v5,2020.2.10,Win32,60,61025ae37ef11b136ea224fe,,,,,,,,,4127,-82,46,1,0,0,response7disk,,1,-10,10,1,0,0,rectangle,-10,10,1,0,0,-10,10,1,0,0,0,135,135,57,1,,,,,,,,
,,,,,,,,,,,,,FF,,,,,,,,5.3098,,,,,,,,,,,,,,,,,,,,,,60fca5d8124a760a80ff917c,61036eac19cdf417d42a878c,2021-07-29_20h19.15.934,Simcolourproject_2stim_asymm_v5,2020.2.10,Win32,60,61025ae37ef11b136ea224fe,,,,,,,,,254,-44,-82,1,0,0,response5disk,,3,0,11,1,0,0,rectangle,0,11,1,0,0,0,11,1,0,0,0,136,136,141,1,,,,,,,,
,,,,,,,,,,,,,FF,,,,,,,,1.5148,,,,,,,,,,,,,,,,,,,,,,60fca5d8124a760a80ff917c,61036eac19cdf417d42a878c,2021-07-29_20h19.15.934,Simcolourproject_2stim_asymm_v5,2020.2.10,Win32,60,61025ae37ef11b136ea224fe,,,,,,,,,3687,93,73,1,0,0,response1disk,,6,3,16,1,0,0,rectangle,3,16,1,0,0,3,16,1,0,0,0,137,137,157,1,,,,,,,,
,,,,,,,,,,,,,FF,,,,,,,,2.7296,,,,,,,,,,,,,,,,,,,,,,60fca5d8124a760a80ff917c,61036eac19cdf417d42a878c,2021-07-29_20h19.15.934,Simcolourproject_2stim_asymm_v5,2020.2.10,Win32,60,61025ae37ef11b136ea224fe,,,,,,,,,836,-88,-33,1,0,0,response5disk,,2,18,16,1,0,0,rectangle,18,16,1,0,0,18,16,1,0,0,0,138,138,84,1,,,,,,,,
,,,,,,,,,,,,,FF,,,,,,,,0.7657,,,,,,,,,,,,,,,,,,,,,,60fca5d8124a760a80ff917c,61036eac19cdf417d42a878c,2021-07-29_20h19.15.934,Simcolourproject_2stim_asymm_v5,2020.2.10,Win32,60,61025ae37ef11b136ea224fe,,,,,,,,,1745,-90,44,1,0,0,response7disk,,1,-1,-4,1,0,0,rectangle,-1,-4,1,0,0,-1,-4,1,0,0,0,139,139,20,1,,,,,,,,
,,,,,,,,,,,,,FF,,,,,,,,1.2983,,,,,,,,,,,,,,,,,,,,,,60fca5d8124a760a80ff917c,61036eac19cdf417d42a878c,2021-07-29_20h19.15.934,Simcolourproject_2stim_asymm_v5,2020.2.10,Win32,60,61025ae37ef11b136ea224fe,,,,,,,,,2803,-39,-74,1,0,0,response5disk,,3,-12,9,1,0,0,rectangle,-12,9,1,0,0,-12,9,1,0,0,0,140,140,52,1,,,,,,,,
,,,,,,,,,,,,,FF,,,,,,,,1.464,,,,,,,,,,,,,,,,,,,,,,60fca5d8124a760a80ff917c,61036eac19cdf417d42a878c,2021-07-29_20h19.15.934,Simcolourproject_2stim_asymm_v5,2020.2.10,Win32,60,61025ae37ef11b136ea224fe,,,,,,,,,2143,84,-75,1,0,0,response3disk,,5,-22,-11,1,0,0,rectangle,-22,-11,1,0,0,-22,-11,1,0,0,0,141,141,114,1,,,,,,,,
,,,,,,,,,,,,,FF,,,,,,,,0.8492,,,,,,,,,,,,,,,,,,,,,,60fca5d8124a760a80ff917c,61036eac19cdf417d42a878c,2021-07-29_20h19.15.934,Simcolourproject_2stim_asymm_v5,2020.2.10,Win32,60,61025ae37ef11b136ea224fe,,,,,,,,,2346,34,86,1,0,0,response1disk,,7,-5,3,1,0,0,rectangle,-5,3,1,0,0,-5,3,1,0,0,0,142,142,58,1,,,,,,,,
,,,,,,,,,,,,,FF,,,,,,,,0.9321,,,,,,,,,,,,,,,,,,,,,,60fca5d8124a760a80ff917c,61036eac19cdf417d42a878c,2021-07-29_20h19.15.934,Simcolourproject_2stim_asymm_v5,2020.2.10,Win32,60,61025ae37ef11b136ea224fe,,,,,,,,,3819,-65,-33,1,0,0,response5disk,,2,-21,9,1,0,0,rectangle,55,122,1,0,0,-16,-13,1,0,0,0,143,143,1,1,,response1disk_3,TRUE,7,7,"[39,101,261,202,130,18,228,235,187,157,157,187,255,232,176,232,144,241,222,86]",1.8141,rectangle
,,,,,,,,,,,,,FF,,,,,,,,0.7823,,,,,,,,,,,,,,,,,,,,,,60fca5d8124a760a80ff917c,61036eac19cdf417d42a878c,2021-07-29_20h19.15.934,Simcolourproject_2stim_asymm_v5,2020.2.10,Win32,60,61025ae37ef11b136ea224fe,,,,,,,,,534,28,57,1,0,0,response1disk,,7,-3,-8,1,0,0,rectangle,-3,-8,1,0,0,-3,-8,1,0,0,0,144,144,50,1,,,,,,,,
,,,,,,,,,,,,,FF,,,,,,,,1.0323,,,,,,,,,,,,,,,,,,,,,,60fca5d8124a760a80ff917c,61036eac19cdf417d42a878c,2021-07-29_20h19.15.934,Simcolourproject_2stim_asymm_v5,2020.2.10,Win32,60,61025ae37ef11b136ea224fe,,,,,,,,,1425,46,24,1,0,0,response1disk,,6,-11,-3,1,0,0,rectangle,-11,-3,1,0,0,-11,-3,1,0,0,0,145,145,15,1,,,,,,,,
,,,,,,,,,,,,,FF,,,,,,,,1.0651,,,,,,,,,,,,,,,,,,,,,,60fca5d8124a760a80ff917c,61036eac19cdf417d42a878c,2021-07-29_20h19.15.934,Simcolourproject_2stim_asymm_v5,2020.2.10,Win32,60,61025ae37ef11b136ea224fe,,,,,,,,,3295,-80,-36,1,0,0,response5disk,,2,-11,5,1,0,0,rectangle,-11,5,1,0,0,-11,5,1,0,0,0,146,146,42,1,,,,,,,,
,,,,,,,,,,,,,FF,,,,,,,,1.8642,,,,,,,,,,,,,,,,,,,,,,60fca5d8124a760a80ff917c,61036eac19cdf417d42a878c,2021-07-29_20h19.15.934,Simcolourproject_2stim_asymm_v5,2020.2.10,Win32,60,61025ae37ef11b136ea224fe,,,,,,,,,2683,32,-70,1,0,0,response3disk,,4,14,-12,1,0,0,rectangle,14,-12,1,0,0,14,-12,1,0,0,0,147,147,38,1,,,,,,,,
,,,,,,,,,,,,,FF,,,,,,,,1.1322,,,,,,,,,,,,,,,,,,,,,,60fca5d8124a760a80ff917c,61036eac19cdf417d42a878c,2021-07-29_20h19.15.934,Simcolourproject_2stim_asymm_v5,2020.2.10,Win32,60,61025ae37ef11b136ea224fe,,,,,,,,,737,42,-58,1,0,0,response3disk,,4,-2,-10,1,0,0,rectangle,-2,-10,1,0,0,-2,-10,1,0,0,0,148,148,51,1,,,,,,,,
,,,,,,,,,,,,,FF,,,,,,,,1.9641,,,,,,,,,,,,,,,,,,,,,,60fca5d8124a760a80ff917c,61036eac19cdf417d42a878c,2021-07-29_20h19.15.934,Simcolourproject_2stim_asymm_v5,2020.2.10,Win32,60,61025ae37ef11b136ea224fe,,,,,,,,,2992,82,29,1,0,0,response1disk,,6,-8,-8,1,0,0,rectangle,-8,-8,1,0,0,-8,-8,1,0,0,0,149,149,11,1,,,,,,,,
,,,,,,,,,,,,,FF,,,,,,,,0.799,,,,,,,,,,,,,,,,,,,,,,60fca5d8124a760a80ff917c,61036eac19cdf417d42a878c,2021-07-29_20h19.15.934,Simcolourproject_2stim_asymm_v5,2020.2.10,Win32,60,61025ae37ef11b136ea224fe,,,,,,,,,1032,34,54,1,0,0,response1disk,,7,6,-10,1,0,0,rectangle,6,-10,1,0,0,6,-10,1,0,0,0,150,150,145,1,,,,,,,,
,,,,,,,,,,,,,FF,,,,,,,,1.5148,,,,,,,,,,,,,,,,,,,,,,60fca5d8124a760a80ff917c,61036eac19cdf417d42a878c,2021-07-29_20h19.15.934,Simcolourproject_2stim_asymm_v5,2020.2.10,Win32,60,61025ae37ef11b136ea224fe,,,,,,,,,2570,80,-35,1,0,0,response3disk,,5,9,0,1,0,0,rectangle,9,0,1,0,0,9,0,1,0,0,0,151,151,86,1,,,,,,,,
,,,,,,,,,,,,,FF,,,,,,,,0.7825,,,,,,,,,,,,,,,,,,,,,,60fca5d8124a760a80ff917c,61036eac19cdf417d42a878c,2021-07-29_20h19.15.934,Simcolourproject_2stim_asymm_v5,2020.2.10,Win32,60,61025ae37ef11b136ea224fe,,,,,,,,,3591,-24,71,1,0,0,response7disk,,0,6,4,1,0,0,rectangle,6,4,1,0,0,6,4,1,0,0,0,152,152,139,1,,,,,,,,
,,,,,,,,,,,,,FF,,,,,,,,1.2817,,,,,,,,,,,,,,,,,,,,,,60fca5d8124a760a80ff917c,61036eac19cdf417d42a878c,2021-07-29_20h19.15.934,Simcolourproject_2stim_asymm_v5,2020.2.10,Win32,60,61025ae37ef11b136ea224fe,,,,,,,,,3065,26,-44,1,0,0,response3disk,,4,-6,4,1,0,0,rectangle,-6,4,1,0,0,-6,4,1,0,0,0,153,153,19,1,,,,,,,,
,,,,,,,,,,,,,FF,,,,,,,,0.8657,,,,,,,,,,,,,,,,,,,,,,60fca5d8124a760a80ff917c,61036eac19cdf417d42a878c,2021-07-29_20h19.15.934,Simcolourproject_2stim_asymm_v5,2020.2.10,Win32,60,61025ae37ef11b136ea224fe,,,,,,,,,736,25,-68,1,0,0,response3disk,,4,0,-8,1,0,0,rectangle,0,-8,1,0,0,0,-8,1,0,0,0,154,154,147,1,,,,,,,,
,,,,,,,,,,,,,FF,,,,,,,,1.5147,,,,,,,,,,,,,,,,,,,,,,60fca5d8124a760a80ff917c,61036eac19cdf417d42a878c,2021-07-29_20h19.15.934,Simcolourproject_2stim_asymm_v5,2020.2.10,Win32,60,61025ae37ef11b136ea224fe,,,,,,,,,3773,-42,-74,1,0,0,response5disk,,3,12,1,1,0,0,rectangle,12,1,1,0,0,12,1,1,0,0,0,155,155,34,1,,,,,,,,
,,,,,,,,,,,,,FF,,,,,,,,1.8808,,,,,,,,,,,,,,,,,,,,,,60fca5d8124a760a80ff917c,61036eac19cdf417d42a878c,2021-07-29_20h19.15.934,Simcolourproject_2stim_asymm_v5,2020.2.10,Win32,60,61025ae37ef11b136ea224fe,,,,,,,,,114,23,-57,1,0,0,response3disk,,4,5,-3,1,0,0,rectangle,123,-53,1,0,0,7,1,1,0,0,0,156,156,121,1,,response3disk_3,TRUE,5,5,"[39,101,261,202,130,18,228,235,187,157,157,187,255,232,176,232,144,241,222,86]",2.2302,rectangle
,,,,,,,,,,,,,FF,,,,,,,,8.6551,,,,,,,,,,,,,,,,,,,,,,60fca5d8124a760a80ff917c,61036eac19cdf417d42a878c,2021-07-29_20h19.15.934,Simcolourproject_2stim_asymm_v5,2020.2.10,Win32,60,61025ae37ef11b136ea224fe,,,,,,,,,3489,-47,-54,1,0,0,response5disk,,3,-3,17,1,0,0,rectangle,-3,17,1,0,0,-3,17,1,0,0,0,157,157,5,1,,,,,,,,
,,,,,,,,,,,,,FF,,,,,,,,1.2151,,,,,,,,,,,,,,,,,,,,,,60fca5d8124a760a80ff917c,61036eac19cdf417d42a878c,2021-07-29_20h19.15.934,Simcolourproject_2stim_asymm_v5,2020.2.10,Win32,60,61025ae37ef11b136ea224fe,,,,,,,,,2251,-46,-84,1,0,0,response5disk,,3,-6,7,1,0,0,rectangle,-6,7,1,0,0,-6,7,1,0,0,0,158,158,129,1,,,,,,,,
,,,,,,,,,,,,,FF,,,,,,,,1.5812,,,,,,,,,,,,,,,,,,,,,,60fca5d8124a760a80ff917c,61036eac19cdf417d42a878c,2021-07-29_20h19.15.934,Simcolourproject_2stim_asymm_v5,2020.2.10,Win32,60,61025ae37ef11b136ea224fe,,,,,,,,,523,-98,-17,1,0,0,response5disk,,2,9,14,1,0,0,rectangle,9,14,1,0,0,9,14,1,0,0,0,159,159,39,1,,,,,,,,
,,,,,,,,,,,,,FF,,,,,,,,0.8492,,,,,,,,,,,,,,,,,,,,,,60fca5d8124a760a80ff917c,61036eac19cdf417d42a878c,2021-07-29_20h19.15.934,Simcolourproject_2stim_asymm_v5,2020.2.10,Win32,60,61025ae37ef11b136ea224fe,,,,,,,,,3564,-76,-25,1,0,0,response5disk,,2,-19,2,1,0,0,rectangle,-19,2,1,0,0,-19,2,1,0,0,1,0,160,105,1,,,,,,,,
,,,,,,,,,,,,,FF,,,,,,,,1.0336,,,,,,,,,,,,,,,,,,,,,,60fca5d8124a760a80ff917c,61036eac19cdf417d42a878c,2021-07-29_20h19.15.934,Simcolourproject_2stim_asymm_v5,2020.2.10,Win32,60,61025ae37ef11b136ea224fe,,,,,,,,,3870,44,-55,1,0,0,response3disk,,4,-4,16,1,0,0,rectangle,-4,16,1,0,0,-4,16,1,0,0,1,1,161,134,1,,,,,,,,
,,,,,,,,,,,,,FF,,,,,,,,1.0487,,,,,,,,,,,,,,,,,,,,,,60fca5d8124a760a80ff917c,61036eac19cdf417d42a878c,2021-07-29_20h19.15.934,Simcolourproject_2stim_asymm_v5,2020.2.10,Win32,60,61025ae37ef11b136ea224fe,,,,,,,,,1513,84,46,1,0,0,response1disk,,6,-13,-2,1,0,0,rectangle,-13,-2,1,0,0,-13,-2,1,0,0,1,2,162,115,1,,,,,,,,
,,,,,,,,,,,,,FF,,,,,,,,1.4483,,,,,,,,,,,,,,,,,,,,,,60fca5d8124a760a80ff917c,61036eac19cdf417d42a878c,2021-07-29_20h19.15.934,Simcolourproject_2stim_asymm_v5,2020.2.10,Win32,60,61025ae37ef11b136ea224fe,,,,,,,,,3660,109,65,1,0,0,response1disk,,6,-11,-6,1,0,0,rectangle,-11,-6,1,0,0,-11,-6,1,0,0,1,3,163,47,1,,,,,,,,
,,,,,,,,,,,,,FF,,,,,,,,0.9655,,,,,,,,,,,,,,,,,,,,,,60fca5d8124a760a80ff917c,61036eac19cdf417d42a878c,2021-07-29_20h19.15.934,Simcolourproject_2stim_asymm_v5,2020.2.10,Win32,60,61025ae37ef11b136ea224fe,,,,,,,,,1687,-53,-62,1,0,0,response5disk,,3,17,8,1,0,0,rectangle,17,8,1,0,0,17,8,1,0,0,1,4,164,28,1,,,,,,,,
,,,,,,,,,,,,,FF,,,,,,,,0.9988,,,,,,,,,,,,,,,,,,,,,,60fca5d8124a760a80ff917c,61036eac19cdf417d42a878c,2021-07-29_20h19.15.934,Simcolourproject_2stim_asymm_v5,2020.2.10,Win32,60,61025ae37ef11b136ea224fe,,,,,,,,,3954,65,-27,1,0,0,response3disk,,5,12,13,1,0,0,rectangle,12,13,1,0,0,12,13,1,0,0,1,5,165,1,1,,,,,,,,
,,,,,,,,,,,,,FF,,,,,,,,0.9654,,,,,,,,,,,,,,,,,,,,,,60fca5d8124a760a80ff917c,61036eac19cdf417d42a878c,2021-07-29_20h19.15.934,Simcolourproject_2stim_asymm_v5,2020.2.10,Win32,60,61025ae37ef11b136ea224fe,,,,,,,,,2182,34,59,1,0,0,response1disk,,7,-9,5,1,0,0,rectangle,-9,5,1,0,0,-9,5,1,0,0,1,6,166,41,1,,,,,,,,
,,,,,,,,,,,,,FF,,,,,,,,1.9308,,,,,,,,,,,,,,,,,,,,,,60fca5d8124a760a80ff917c,61036eac19cdf417d42a878c,2021-07-29_20h19.15.934,Simcolourproject_2stim_asymm_v5,2020.2.10,Win32,60,61025ae37ef11b136ea224fe,,,,,,,,,3919,54,29,1,0,0,response1disk,,6,-7,-12,1,0,0,rectangle,-7,-12,1,0,0,-7,-12,1,0,0,1,7,167,139,1,,,,,,,,
,,,,,,,,,,,,,FF,,,,,,,,1.9974,,,,,,,,,,,,,,,,,,,,,,60fca5d8124a760a80ff917c,61036eac19cdf417d42a878c,2021-07-29_20h19.15.934,Simcolourproject_2stim_asymm_v5,2020.2.10,Win32,60,61025ae37ef11b136ea224fe,,,,,,,,,3970,-60,-31,1,0,0,response5disk,,2,21,3,1,0,0,rectangle,21,3,1,0,0,21,3,1,0,0,1,8,168,152,1,,,,,,,,
,,,,,,,,,,,,,FF,,,,,,,,1.1488,,,,,,,,,,,,,,,,,,,,,,60fca5d8124a760a80ff917c,61036eac19cdf417d42a878c,2021-07-29_20h19.15.934,Simcolourproject_2stim_asymm_v5,2020.2.10,Win32,60,61025ae37ef11b136ea224fe,,,,,,,,,4077,-103,-37,1,0,0,response5disk,,2,-13,-10,1,0,0,rectangle,-13,-10,1,0,0,-13,-10,1,0,0,1,9,169,95,1,,,,,,,,
,,,,,,,,,,,,,FF,,,,,,,,0.9322,,,,,,,,,,,,,,,,,,,,,,60fca5d8124a760a80ff917c,61036eac19cdf417d42a878c,2021-07-29_20h19.15.934,Simcolourproject_2stim_asymm_v5,2020.2.10,Win32,60,61025ae37ef11b136ea224fe,,,,,,,,,2109,-26,-62,1,0,0,response5disk,,3,-4,-7,1,0,0,rectangle,-4,-7,1,0,0,-4,-7,1,0,0,1,10,170,58,1,,,,,,,,
,,,,,,,,,,,,,FF,,,,,,,,0.7325,,,,,,,,,,,,,,,,,,,,,,60fca5d8124a760a80ff917c,61036eac19cdf417d42a878c,2021-07-29_20h19.15.934,Simcolourproject_2stim_asymm_v5,2020.2.10,Win32,60,61025ae37ef11b136ea224fe,,,,,,,,,2543,-37,-61,1,0,0,response5disk,,3,-2,-1,1,0,0,rectangle,-2,-1,1,0,0,-2,-1,1,0,0,1,11,171,51,1,,,,,,,,
,,,,,,,,,,,,,FF,,,,,,,,1.4157,,,,,,,,,,,,,,,,,,,,,,60fca5d8124a760a80ff917c,61036eac19cdf417d42a878c,2021-07-29_20h19.15.934,Simcolourproject_2stim_asymm_v5,2020.2.10,Win32,60,61025ae37ef11b136ea224fe,,,,,,,,,307,35,-50,1,0,0,response3disk,,4,11,-7,1,0,0,rectangle,11,-7,1,0,0,11,-7,1,0,0,1,12,172,111,1,,,,,,,,
,,,,,,,,,,,,,FF,,,,,,,,0.7825,,,,,,,,,,,,,,,,,,,,,,60fca5d8124a760a80ff917c,61036eac19cdf417d42a878c,2021-07-29_20h19.15.934,Simcolourproject_2stim_asymm_v5,2020.2.10,Win32,60,61025ae37ef11b136ea224fe,,,,,,,,,2598,-43,-59,1,0,0,response5disk,,3,-12,-4,1,0,0,rectangle,-12,-4,1,0,0,-12,-4,1,0,0,1,13,173,30,1,,,,,,,,
,,,,,,,,,,,,,FF,,,,,,,,0.9492,,,,,,,,,,,,,,,,,,,,,,60fca5d8124a760a80ff917c,61036eac19cdf417d42a878c,2021-07-29_20h19.15.934,Simcolourproject_2stim_asymm_v5,2020.2.10,Win32,60,61025ae37ef11b136ea224fe,,,,,,,,,2509,72,-44,1,0,0,response3disk,,5,11,-3,1,0,0,rectangle,11,-3,1,0,0,11,-3,1,0,0,1,14,174,90,1,,,,,,,,
,,,,,,,,,,,,,FF,,,,,,,,0.8822,,,,,,,,,,,,,,,,,,,,,,60fca5d8124a760a80ff917c,61036eac19cdf417d42a878c,2021-07-29_20h19.15.934,Simcolourproject_2stim_asymm_v5,2020.2.10,Win32,60,61025ae37ef11b136ea224fe,,,,,,,,,50,55,-39,1,0,0,response3disk,,5,2,-11,1,0,0,rectangle,-116,61,1,0,0,1,2,1,0,0,1,15,175,110,1,,response7disk_3,TRUE,1,1,"[39,101,261,202,130,18,228,235,187,157,157,187,255,232,176,232,144,241,222,86]",1.1987,rectangle
,,,,,,,,,,,,,FF,,,,,,,,0.9822,,,,,,,,,,,,,,,,,,,,,,60fca5d8124a760a80ff917c,61036eac19cdf417d42a878c,2021-07-29_20h19.15.934,Simcolourproject_2stim_asymm_v5,2020.2.10,Win32,60,61025ae37ef11b136ea224fe,,,,,,,,,2240,-103,69,1,0,0,response7disk,,1,3,8,1,0,0,rectangle,3,8,1,0,0,3,8,1,0,0,1,16,176,157,1,,,,,,,,
,,,,,,,,,,,,,FF,,,,,,,,1.2316,,,,,,,,,,,,,,,,,,,,,,60fca5d8124a760a80ff917c,61036eac19cdf417d42a878c,2021-07-29_20h19.15.934,Simcolourproject_2stim_asymm_v5,2020.2.10,Win32,60,61025ae37ef11b136ea224fe,,,,,,,,,965,-40,-61,1,0,0,response5disk,,3,13,0,1,0,0,rectangle,13,0,1,0,0,13,0,1,0,0,1,17,177,32,1,,,,,,,,
,,,,,,,,,,,,,FF,,,,,,,,0.7658,,,,,,,,,,,,,,,,,,,,,,60fca5d8124a760a80ff917c,61036eac19cdf417d42a878c,2021-07-29_20h19.15.934,Simcolourproject_2stim_asymm_v5,2020.2.10,Win32,60,61025ae37ef11b136ea224fe,,,,,,,,,2830,-83,-35,1,0,0,response5disk,,2,-9,14,1,0,0,rectangle,-9,14,1,0,0,-9,14,1,0,0,1,18,178,82,1,,,,,,,,
,,,,,,,,,,,,,FF,,,,,,,,0.916,,,,,,,,,,,,,,,,,,,,,,60fca5d8124a760a80ff917c,61036eac19cdf417d42a878c,2021-07-29_20h19.15.934,Simcolourproject_2stim_asymm_v5,2020.2.10,Win32,60,61025ae37ef11b136ea224fe,,,,,,,,,556,-69,-48,1,0,0,response5disk,,2,28,6,1,0,0,rectangle,28,6,1,0,0,28,6,1,0,0,1,19,179,112,1,,,,,,,,
,,,,,,,,,,,,,FF,,,,,,,,1.5809,,,,,,,,,,,,,,,,,,,,,,60fca5d8124a760a80ff917c,61036eac19cdf417d42a878c,2021-07-29_20h19.15.934,Simcolourproject_2stim_asymm_v5,2020.2.10,Win32,60,61025ae37ef11b136ea224fe,,,,,,,,,3255,-49,-72,1,0,0,response5disk,,3,5,-4,1,0,0,rectangle,5,-4,1,0,0,5,-4,1,0,0,1,20,180,21,1,,,,,,,,
,,,,,,,,,,,,,FF,,,,,,,,0.9654,,,,,,,,,,,,,,,,,,,,,,60fca5d8124a760a80ff917c,61036eac19cdf417d42a878c,2021-07-29_20h19.15.934,Simcolourproject_2stim_asymm_v5,2020.2.10,Win32,60,61025ae37ef11b136ea224fe,,,,,,,,,1892,-51,32,1,0,0,response7disk,,1,-10,13,1,0,0,rectangle,-10,13,1,0,0,-10,13,1,0,0,1,21,181,83,1,,,,,,,,
,,,,,,,,,,,,,FF,,,,,,,,1.9973,,,,,,,,,,,,,,,,,,,,,,60fca5d8124a760a80ff917c,61036eac19cdf417d42a878c,2021-07-29_20h19.15.934,Simcolourproject_2stim_asymm_v5,2020.2.10,Win32,60,61025ae37ef11b136ea224fe,,,,,,,,,871,-43,-77,1,0,0,response5disk,,3,-3,-8,1,0,0,rectangle,-3,-8,1,0,0,-3,-8,1,0,0,1,22,182,68,1,,,,,,,,
,,,,,,,,,,,,,FF,,,,,,,,1.3649,,,,,,,,,,,,,,,,,,,,,,60fca5d8124a760a80ff917c,61036eac19cdf417d42a878c,2021-07-29_20h19.15.934,Simcolourproject_2stim_asymm_v5,2020.2.10,Win32,60,61025ae37ef11b136ea224fe,,,,,,,,,4006,24,-28,1,0,0,response3disk,,4,-4,8,1,0,0,rectangle,-4,8,1,0,0,-4,8,1,0,0,1,23,183,128,1,,,,,,,,
,,,,,,,,,,,,,FF,,,,,,,,0.8157,,,,,,,,,,,,,,,,,,,,,,60fca5d8124a760a80ff917c,61036eac19cdf417d42a878c,2021-07-29_20h19.15.934,Simcolourproject_2stim_asymm_v5,2020.2.10,Win32,60,61025ae37ef11b136ea224fe,,,,,,,,,3971,-32,68,1,0,0,response7disk,,0,2,-6,1,0,0,rectangle,2,-6,1,0,0,2,-6,1,0,0,1,24,184,26,1,,,,,,,,
,,,,,,,,,,,,,FF,,,,,,,,1.1818,,,,,,,,,,,,,,,,,,,,,,60fca5d8124a760a80ff917c,61036eac19cdf417d42a878c,2021-07-29_20h19.15.934,Simcolourproject_2stim_asymm_v5,2020.2.10,Win32,60,61025ae37ef11b136ea224fe,,,,,,,,,3944,-78,-32,1,0,0,response5disk,,2,-19,-1,1,0,0,rectangle,-19,-1,1,0,0,-19,-1,1,0,0,1,25,185,159,1,,,,,,,,
,,,,,,,,,,,,,FF,,,,,,,,0.9821,,,,,,,,,,,,,,,,,,,,,,60fca5d8124a760a80ff917c,61036eac19cdf417d42a878c,2021-07-29_20h19.15.934,Simcolourproject_2stim_asymm_v5,2020.2.10,Win32,60,61025ae37ef11b136ea224fe,,,,,,,,,2641,106,-45,1,0,0,response3disk,,5,3,2,1,0,0,rectangle,-117,65,1,0,0,-21,15,1,0,0,1,26,186,9,1,,response7disk_3,TRUE,1,1,"[39,101,261,202,130,18,228,235,187,157,157,187,255,232,176,232,144,241,222,86]",1.3647,rectangle
,,,,,,,,,,,,,FF,,,,,,,,1.5647,,,,,,,,,,,,,,,,,,,,,,60fca5d8124a760a80ff917c,61036eac19cdf417d42a878c,2021-07-29_20h19.15.934,Simcolourproject_2stim_asymm_v5,2020.2.10,Win32,60,61025ae37ef11b136ea224fe,,,,,,,,,470,-49,-59,1,0,0,response5disk,,3,-11,-12,1,0,0,rectangle,-11,-12,1,0,0,-11,-12,1,0,0,1,27,187,3,1,,,,,,,,
,,,,,,,,,,,,,FF,,,,,,,,0.8157,,,,,,,,,,,,,,,,,,,,,,60fca5d8124a760a80ff917c,61036eac19cdf417d42a878c,2021-07-29_20h19.15.934,Simcolourproject_2stim_asymm_v5,2020.2.10,Win32,60,61025ae37ef11b136ea224fe,,,,,,,,,3143,-75,-39,1,0,0,response5disk,,2,-15,-10,1,0,0,rectangle,-15,-10,1,0,0,-15,-10,1,0,0,1,28,188,133,1,,,,,,,,
,,,,,,,,,,,,,FF,,,,,,,,0.9487,,,,,,,,,,,,,,,,,,,,,,60fca5d8124a760a80ff917c,61036eac19cdf417d42a878c,2021-07-29_20h19.15.934,Simcolourproject_2stim_asymm_v5,2020.2.10,Win32,60,61025ae37ef11b136ea224fe,,,,,,,,,1983,92,-26,1,0,0,response3disk,,5,-14,-1,1,0,0,rectangle,-14,-1,1,0,0,-14,-1,1,0,0,1,29,189,102,1,,,,,,,,
,,,,,,,,,,,,,FF,,,,,,,,1.1153,,,,,,,,,,,,,,,,,,,,,,60fca5d8124a760a80ff917c,61036eac19cdf417d42a878c,2021-07-29_20h19.15.934,Simcolourproject_2stim_asymm_v5,2020.2.10,Win32,60,61025ae37ef11b136ea224fe,,,,,,,,,1565,25,-22,1,0,0,response3disk,,5,-3,5,1,0,0,rectangle,-3,5,1,0,0,-3,5,1,0,0,1,30,190,24,1,,,,,,,,
,,,,,,,,,,,,,FF,,,,,,,,0.8321,,,,,,,,,,,,,,,,,,,,,,60fca5d8124a760a80ff917c,61036eac19cdf417d42a878c,2021-07-29_20h19.15.934,Simcolourproject_2stim_asymm_v5,2020.2.10,Win32,60,61025ae37ef11b136ea224fe,,,,,,,,,3134,27,-51,1,0,0,response3disk,,4,7,-11,1,0,0,rectangle,7,-11,1,0,0,7,-11,1,0,0,1,31,191,59,1,,,,,,,,
,,,,,,,,,,,,,FF,,,,,,,,0.9158,,,,,,,,,,,,,,,,,,,,,,60fca5d8124a760a80ff917c,61036eac19cdf417d42a878c,2021-07-29_20h19.15.934,Simcolourproject_2stim_asymm_v5,2020.2.10,Win32,60,61025ae37ef11b136ea224fe,,,,,,,,,1874,-19,-46,1,0,0,response5disk,,3,13,8,1,0,0,rectangle,13,8,1,0,0,13,8,1,0,0,1,32,192,91,1,,,,,,,,
,,,,,,,,,,,,,FF,,,,,,,,0.8156,,,,,,,,,,,,,,,,,,,,,,60fca5d8124a760a80ff917c,61036eac19cdf417d42a878c,2021-07-29_20h19.15.934,Simcolourproject_2stim_asymm_v5,2020.2.10,Win32,60,61025ae37ef11b136ea224fe,,,,,,,,,1899,-87,-34,1,0,0,response5disk,,2,-10,4,1,0,0,rectangle,-10,4,1,0,0,-10,4,1,0,0,1,33,193,29,1,,,,,,,,
,,,,,,,,,,,,,FF,,,,,,,,1.8309,,,,,,,,,,,,,,,,,,,,,,60fca5d8124a760a80ff917c,61036eac19cdf417d42a878c,2021-07-29_20h19.15.934,Simcolourproject_2stim_asymm_v5,2020.2.10,Win32,60,61025ae37ef11b136ea224fe,,,,,,,,,751,-39,-65,1,0,0,response5disk,,3,14,5,1,0,0,rectangle,14,5,1,0,0,14,5,1,0,0,1,34,194,62,1,,,,,,,,
,,,,,,,,,,,,,FF,,,,,,,,0.7491,,,,,,,,,,,,,,,,,,,,,,60fca5d8124a760a80ff917c,61036eac19cdf417d42a878c,2021-07-29_20h19.15.934,Simcolourproject_2stim_asymm_v5,2020.2.10,Win32,60,61025ae37ef11b136ea224fe,,,,,,,,,3637,-43,102,1,0,0,response7disk,,0,3,-4,1,0,0,rectangle,3,-4,1,0,0,3,-4,1,0,0,1,35,195,12,1,,,,,,,,
,,,,,,,,,,,,,FF,,,,,,,,2.8628,,,,,,,,,,,,,,,,,,,,,,60fca5d8124a760a80ff917c,61036eac19cdf417d42a878c,2021-07-29_20h19.15.934,Simcolourproject_2stim_asymm_v5,2020.2.10,Win32,60,61025ae37ef11b136ea224fe,,,,,,,,,4074,-49,-43,1,0,0,response5disk,,2,-12,-13,1,0,0,rectangle,-12,-13,1,0,0,-12,-13,1,0,0,1,36,196,33,1,,,,,,,,
,,,,,,,,,,,,,FF,,,,,,,,0.8657,,,,,,,,,,,,,,,,,,,,,,60fca5d8124a760a80ff917c,61036eac19cdf417d42a878c,2021-07-29_20h19.15.934,Simcolourproject_2stim_asymm_v5,2020.2.10,Win32,60,61025ae37ef11b136ea224fe,,,,,,,,,1725,72,37,1,0,0,response1disk,,6,7,3,1,0,0,rectangle,7,3,1,0,0,7,3,1,0,0,1,37,197,80,1,,,,,,,,
,,,,,,,,,,,,,FF,,,,,,,,0.949,,,,,,,,,,,,,,,,,,,,,,60fca5d8124a760a80ff917c,61036eac19cdf417d42a878c,2021-07-29_20h19.15.934,Simcolourproject_2stim_asymm_v5,2020.2.10,Win32,60,61025ae37ef11b136ea224fe,,,,,,,,,820,-28,-64,1,0,0,response5disk,,3,5,-7,1,0,0,rectangle,5,-7,1,0,0,5,-7,1,0,0,1,38,198,44,1,,,,,,,,
,,,,,,,,,,,,,FF,,,,,,,,0.9822,,,,,,,,,,,,,,,,,,,,,,60fca5d8124a760a80ff917c,61036eac19cdf417d42a878c,2021-07-29_20h19.15.934,Simcolourproject_2stim_asymm_v5,2020.2.10,Win32,60,61025ae37ef11b136ea224fe,,,,,,,,,968,-26,63,1,0,0,response7disk,,0,2,-17,1,0,0,rectangle,2,-17,1,0,0,2,-17,1,0,0,1,39,199,39,1,,,,,,,,
,,,,,,,,,,,,,FF,,,,,,,,0.949,,,,,,,,,,,,,,,,,,,,,,60fca5d8124a760a80ff917c,61036eac19cdf417d42a878c,2021-07-29_20h19.15.934,Simcolourproject_2stim_asymm_v5,2020.2.10,Win32,60,61025ae37ef11b136ea224fe,,,,,,,,,2222,-87,-45,1,0,0,response5disk,,2,-4,-4,1,0,0,rectangle,-4,-4,1,0,0,-4,-4,1,0,0,1,40,200,11,1,,,,,,,,
,,,,,,,,,,,,,FF,,,,,,,,1.4813,,,,,,,,,,,,,,,,,,,,,,60fca5d8124a760a80ff917c,61036eac19cdf417d42a878c,2021-07-29_20h19.15.934,Simcolourproject_2stim_asymm_v5,2020.2.10,Win32,60,61025ae37ef11b136ea224fe,,,,,,,,,1916,-43,-82,1,0,0,response5disk,,3,-8,-3,1,0,0,rectangle,78,-40,1,0,0,7,4,1,0,0,1,41,201,150,1,,response3disk_3,TRUE,5,5,"[39,101,261,202,130,18,228,235,187,157,157,187,255,232,176,232,144,241,222,86]",1.348,rectangle
,,,,,,,,,,,,,FF,,,,,,,,1.4483,,,,,,,,,,,,,,,,,,,,,,60fca5d8124a760a80ff917c,61036eac19cdf417d42a878c,2021-07-29_20h19.15.934,Simcolourproject_2stim_asymm_v5,2020.2.10,Win32,60,61025ae37ef11b136ea224fe,,,,,,,,,1738,-43,-93,1,0,0,response5disk,,3,31,7,1,0,0,rectangle,31,7,1,0,0,31,7,1,0,0,1,42,202,148,1,,,,,,,,
,,,,,,,,,,,,,FF,,,,,,,,1.4149,,,,,,,,,,,,,,,,,,,,,,60fca5d8124a760a80ff917c,61036eac19cdf417d42a878c,2021-07-29_20h19.15.934,Simcolourproject_2stim_asymm_v5,2020.2.10,Win32,60,61025ae37ef11b136ea224fe,,,,,,,,,422,29,-59,1,0,0,response3disk,,4,19,-9,1,0,0,rectangle,19,-9,1,0,0,19,-9,1,0,0,1,43,203,117,1,,,,,,,,
,,,,,,,,,,,,,FF,,,,,,,,0.8323,,,,,,,,,,,,,,,,,,,,,,60fca5d8124a760a80ff917c,61036eac19cdf417d42a878c,2021-07-29_20h19.15.934,Simcolourproject_2stim_asymm_v5,2020.2.10,Win32,60,61025ae37ef11b136ea224fe,,,,,,,,,1278,-34,-53,1,0,0,response5disk,,3,-21,-9,1,0,0,rectangle,-21,-9,1,0,0,-21,-9,1,0,0,1,44,204,23,1,,,,,,,,
,,,,,,,,,,,,,FF,,,,,,,,1.3149,,,,,,,,,,,,,,,,,,,,,,60fca5d8124a760a80ff917c,61036eac19cdf417d42a878c,2021-07-29_20h19.15.934,Simcolourproject_2stim_asymm_v5,2020.2.10,Win32,60,61025ae37ef11b136ea224fe,,,,,,,,,3020,91,34,1,0,0,response1disk,,6,23,-4,1,0,0,rectangle,23,-4,1,0,0,23,-4,1,0,0,1,45,205,14,1,,,,,,,,
,,,,,,,,,,,,,FF,,,,,,,,1.2819,,,,,,,,,,,,,,,,,,,,,,60fca5d8124a760a80ff917c,61036eac19cdf417d42a878c,2021-07-29_20h19.15.934,Simcolourproject_2stim_asymm_v5,2020.2.10,Win32,60,61025ae37ef11b136ea224fe,,,,,,,,,24,49,80,1,0,0,response1disk,,7,5,10,1,0,0,rectangle,5,10,1,0,0,5,10,1,0,0,1,46,206,27,1,,,,,,,,
,,,,,,,,,,,,,FF,,,,,,,,1.1491,,,,,,,,,,,,,,,,,,,,,,60fca5d8124a760a80ff917c,61036eac19cdf417d42a878c,2021-07-29_20h19.15.934,Simcolourproject_2stim_asymm_v5,2020.2.10,Win32,60,61025ae37ef11b136ea224fe,,,,,,,,,2365,-49,-78,1,0,0,response5disk,,3,-1,17,1,0,0,rectangle,-1,17,1,0,0,-1,17,1,0,0,1,47,207,0,1,,,,,,,,
,,,,,,,,,,,,,FF,,,,,,,,1.7643,,,,,,,,,,,,,,,,,,,,,,60fca5d8124a760a80ff917c,61036eac19cdf417d42a878c,2021-07-29_20h19.15.934,Simcolourproject_2stim_asymm_v5,2020.2.10,Win32,60,61025ae37ef11b136ea224fe,,,,,,,,,2539,36,-58,1,0,0,response3disk,,4,11,10,1,0,0,rectangle,11,10,1,0,0,11,10,1,0,0,1,48,208,78,1,,,,,,,,
,,,,,,,,,,,,,FF,,,,,,,,0.9489,,,,,,,,,,,,,,,,,,,,,,60fca5d8124a760a80ff917c,61036eac19cdf417d42a878c,2021-07-29_20h19.15.934,Simcolourproject_2stim_asymm_v5,2020.2.10,Win32,60,61025ae37ef11b136ea224fe,,,,,,,,,3173,53,-26,1,0,0,response3disk,,5,14,5,1,0,0,rectangle,14,5,1,0,0,14,5,1,0,0,1,49,209,19,1,,,,,,,,
,,,,,,,,,,,,,FF,,,,,,,,2.9958,,,,,,,,,,,,,,,,,,,,,,60fca5d8124a760a80ff917c,61036eac19cdf417d42a878c,2021-07-29_20h19.15.934,Simcolourproject_2stim_asymm_v5,2020.2.10,Win32,60,61025ae37ef11b136ea224fe,,,,,,,,,175,23,-60,1,0,0,response3disk,,4,3,-4,1,0,0,rectangle,3,-4,1,0,0,3,-4,1,0,0,1,50,210,92,1,,,,,,,,
,,,,,,,,,,,,,FF,,,,,,,,0.899,,,,,,,,,,,,,,,,,,,,,,60fca5d8124a760a80ff917c,61036eac19cdf417d42a878c,2021-07-29_20h19.15.934,Simcolourproject_2stim_asymm_v5,2020.2.10,Win32,60,61025ae37ef11b136ea224fe,,,,,,,,,1682,-72,-28,1,0,0,response5disk,,2,-19,7,1,0,0,rectangle,-19,7,1,0,0,-19,7,1,0,0,1,51,211,121,1,,,,,,,,
,,,,,,,,,,,,,FF,,,,,,,,1.8478,,,,,,,,,,,,,,,,,,,,,,60fca5d8124a760a80ff917c,61036eac19cdf417d42a878c,2021-07-29_20h19.15.934,Simcolourproject_2stim_asymm_v5,2020.2.10,Win32,60,61025ae37ef11b136ea224fe,,,,,,,,,799,62,-26,1,0,0,response3disk,,5,21,3,1,0,0,rectangle,21,3,1,0,0,21,3,1,0,0,1,52,212,122,1,,,,,,,,
,,,,,,,,,,,,,FF,,,,,,,,1.0985,,,,,,,,,,,,,,,,,,,,,,60fca5d8124a760a80ff917c,61036eac19cdf417d42a878c,2021-07-29_20h19.15.934,Simcolourproject_2stim_asymm_v5,2020.2.10,Win32,60,61025ae37ef11b136ea224fe,,,,,,,,,1450,-70,28,1,0,0,response7disk,,1,-29,-5,1,0,0,rectangle,-29,-5,1,0,0,-29,-5,1,0,0,1,53,213,96,1,,,,,,,,
,,,,,,,,,,,,,FF,,,,,,,,1.8643,,,,,,,,,,,,,,,,,,,,,,60fca5d8124a760a80ff917c,61036eac19cdf417d42a878c,2021-07-29_20h19.15.934,Simcolourproject_2stim_asymm_v5,2020.2.10,Win32,60,61025ae37ef11b136ea224fe,,,,,,,,,2806,87,32,1,0,0,response1disk,,6,5,-4,1,0,0,rectangle,5,-4,1,0,0,5,-4,1,0,0,1,54,214,4,1,,,,,,,,
,,,,,,,,,,,,,FF,,,,,,,,0.7159,,,,,,,,,,,,,,,,,,,,,,60fca5d8124a760a80ff917c,61036eac19cdf417d42a878c,2021-07-29_20h19.15.934,Simcolourproject_2stim_asymm_v5,2020.2.10,Win32,60,61025ae37ef11b136ea224fe,,,,,,,,,4218,-45,98,1,0,0,response7disk,,0,3,5,1,0,0,rectangle,3,5,1,0,0,3,5,1,0,0,1,55,215,25,1,,,,,,,,
,,,,,,,,,,,,,FF,,,,,,,,2.9127,,,,,,,,,,,,,,,,,,,,,,60fca5d8124a760a80ff917c,61036eac19cdf417d42a878c,2021-07-29_20h19.15.934,Simcolourproject_2stim_asymm_v5,2020.2.10,Win32,60,61025ae37ef11b136ea224fe,,,,,,,,,3068,24,-58,1,0,0,response3disk,,4,7,-9,1,0,0,rectangle,7,-9,1,0,0,7,-9,1,0,0,1,56,216,100,1,,,,,,,,
,,,,,,,,,,,,,FF,,,,,,,,1.3981,,,,,,,,,,,,,,,,,,,,,,60fca5d8124a760a80ff917c,61036eac19cdf417d42a878c,2021-07-29_20h19.15.934,Simcolourproject_2stim_asymm_v5,2020.2.10,Win32,60,61025ae37ef11b136ea224fe,,,,,,,,,1134,-73,-32,1,0,0,response5disk,,2,-13,1,1,0,0,rectangle,-13,1,1,0,0,-13,1,1,0,0,1,57,217,72,1,,,,,,,,
,,,,,,,,,,,,,FF,,,,,,,,1.1152,,,,,,,,,,,,,,,,,,,,,,60fca5d8124a760a80ff917c,61036eac19cdf417d42a878c,2021-07-29_20h19.15.934,Simcolourproject_2stim_asymm_v5,2020.2.10,Win32,60,61025ae37ef11b136ea224fe,,,,,,,,,3846,-29,-77,1,0,0,response5disk,,3,20,5,1,0,0,rectangle,20,5,1,0,0,20,5,1,0,0,1,58,218,97,1,,,,,,,,
,,,,,,,,,,,,,FF,,,,,,,,0.8988,,,,,,,,,,,,,,,,,,,,,,60fca5d8124a760a80ff917c,61036eac19cdf417d42a878c,2021-07-29_20h19.15.934,Simcolourproject_2stim_asymm_v5,2020.2.10,Win32,60,61025ae37ef11b136ea224fe,,,,,,,,,638,-61,-17,1,0,0,response5disk,,2,-13,3,1,0,0,rectangle,-13,3,1,0,0,-13,3,1,0,0,1,59,219,2,1,,,,,,,,
,,,,,,,,,,,,,FF,,,,,,,,1.2152,,,,,,,,,,,,,,,,,,,,,,60fca5d8124a760a80ff917c,61036eac19cdf417d42a878c,2021-07-29_20h19.15.934,Simcolourproject_2stim_asymm_v5,2020.2.10,Win32,60,61025ae37ef11b136ea224fe,,,,,,,,,2485,-73,-58,1,0,0,response5disk,,2,-8,-8,1,0,0,rectangle,-8,-8,1,0,0,-8,-8,1,0,0,1,60,220,87,1,,,,,,,,
,,,,,,,,,,,,,FF,,,,,,,,1.1154,,,,,,,,,,,,,,,,,,,,,,60fca5d8124a760a80ff917c,61036eac19cdf417d42a878c,2021-07-29_20h19.15.934,Simcolourproject_2stim_asymm_v5,2020.2.10,Win32,60,61025ae37ef11b136ea224fe,,,,,,,,,3698,67,46,1,0,0,response1disk,,6,-10,2,1,0,0,rectangle,98,45,1,0,0,19,-8,1,0,0,1,61,221,156,1,,response1disk_3,TRUE,6,6,"[39,101,261,202,130,18,228,235,187,157,157,187,255,232,176,232,144,241,222,86]",1.7974,rectangle
,,,,,,,,,,,,,FF,,,,,,,,1.1153,,,,,,,,,,,,,,,,,,,,,,60fca5d8124a760a80ff917c,61036eac19cdf417d42a878c,2021-07-29_20h19.15.934,Simcolourproject_2stim_asymm_v5,2020.2.10,Win32,60,61025ae37ef11b136ea224fe,,,,,,,,,2203,41,59,1,0,0,response1disk,,7,4,-7,1,0,0,rectangle,4,-7,1,0,0,4,-7,1,0,0,1,62,222,13,1,,,,,,,,
,,,,,,,,,,,,,FF,,,,,,,,1.7646,,,,,,,,,,,,,,,,,,,,,,60fca5d8124a760a80ff917c,61036eac19cdf417d42a878c,2021-07-29_20h19.15.934,Simcolourproject_2stim_asymm_v5,2020.2.10,Win32,60,61025ae37ef11b136ea224fe,,,,,,,,,447,-38,-74,1,0,0,response5disk,,3,13,6,1,0,0,rectangle,13,6,1,0,0,13,6,1,0,0,1,63,223,125,1,,,,,,,,
,,,,,,,,,,,,,FF,,,,,,,,1.0986,,,,,,,,,,,,,,,,,,,,,,60fca5d8124a760a80ff917c,61036eac19cdf417d42a878c,2021-07-29_20h19.15.934,Simcolourproject_2stim_asymm_v5,2020.2.10,Win32,60,61025ae37ef11b136ea224fe,,,,,,,,,3784,73,81,1,0,0,response1disk,,7,10,-11,1,0,0,rectangle,10,-11,1,0,0,10,-11,1,0,0,1,64,224,10,1,,,,,,,,
,,,,,,,,,,,,,FF,,,,,,,,0.8823,,,,,,,,,,,,,,,,,,,,,,60fca5d8124a760a80ff917c,61036eac19cdf417d42a878c,2021-07-29_20h19.15.934,Simcolourproject_2stim_asymm_v5,2020.2.10,Win32,60,61025ae37ef11b136ea224fe,,,,,,,,,2145,67,27,1,0,0,response1disk,,6,0,-14,1,0,0,rectangle,0,-14,1,0,0,0,-14,1,0,0,1,65,225,101,1,,,,,,,,
,,,,,,,,,,,,,FF,,,,,,,,1.3838,,,,,,,,,,,,,,,,,,,,,,60fca5d8124a760a80ff917c,61036eac19cdf417d42a878c,2021-07-29_20h19.15.934,Simcolourproject_2stim_asymm_v5,2020.2.10,Win32,60,61025ae37ef11b136ea224fe,,,,,,,,,1660,53,-24,1,0,0,response3disk,,5,6,-12,1,0,0,rectangle,6,-12,1,0,0,6,-12,1,0,0,1,66,226,147,1,,,,,,,,
,,,,,,,,,,,,,FF,,,,,,,,1.1817,,,,,,,,,,,,,,,,,,,,,,60fca5d8124a760a80ff917c,61036eac19cdf417d42a878c,2021-07-29_20h19.15.934,Simcolourproject_2stim_asymm_v5,2020.2.10,Win32,60,61025ae37ef11b136ea224fe,,,,,,,,,180,-35,-61,1,0,0,response5disk,,3,17,8,1,0,0,rectangle,63,-30,1,0,0,4,13,1,0,0,1,67,227,63,1,,response3disk_3,TRUE,5,5,"[39,101,261,202,130,18,228,235,187,157,157,187,255,232,176,232,144,241,222,86]",1.4646,rectangle
,,,,,,,,,,,,,FF,,,,,,,,2.8297,,,,,,,,,,,,,,,,,,,,,,60fca5d8124a760a80ff917c,61036eac19cdf417d42a878c,2021-07-29_20h19.15.934,Simcolourproject_2stim_asymm_v5,2020.2.10,Win32,60,61025ae37ef11b136ea224fe,,,,,,,,,2309,-38,-64,1,0,0,response5disk,,3,10,-3,1,0,0,rectangle,10,-3,1,0,0,10,-3,1,0,0,1,68,228,119,1,,,,,,,,
,,,,,,,,,,,,,FF,,,,,,,,0.9655,,,,,,,,,,,,,,,,,,,,,,60fca5d8124a760a80ff917c,61036eac19cdf417d42a878c,2021-07-29_20h19.15.934,Simcolourproject_2stim_asymm_v5,2020.2.10,Win32,60,61025ae37ef11b136ea224fe,,,,,,,,,2560,61,32,1,0,0,response1disk,,6,5,11,1,0,0,rectangle,5,11,1,0,0,5,11,1,0,0,1,69,229,70,1,,,,,,,,
,,,,,,,,,,,,,FF,,,,,,,,0.9988,,,,,,,,,,,,,,,,,,,,,,60fca5d8124a760a80ff917c,61036eac19cdf417d42a878c,2021-07-29_20h19.15.934,Simcolourproject_2stim_asymm_v5,2020.2.10,Win32,60,61025ae37ef11b136ea224fe,,,,,,,,,4206,56,-26,1,0,0,response3disk,,5,3,-6,1,0,0,rectangle,3,-6,1,0,0,3,-6,1,0,0,1,70,230,50,1,,,,,,,,
,,,,,,,,,,,,,FF,,,,,,,,0.9153,,,,,,,,,,,,,,,,,,,,,,60fca5d8124a760a80ff917c,61036eac19cdf417d42a878c,2021-07-29_20h19.15.934,Simcolourproject_2stim_asymm_v5,2020.2.10,Win32,60,61025ae37ef11b136ea224fe,,,,,,,,,1375,-104,44,1,0,0,response7disk,,1,-38,-4,1,0,0,rectangle,49,-91,1,0,0,3,-2,1,0,0,1,71,231,127,1,,response3disk_3,TRUE,4,4,"[39,101,261,202,130,18,228,235,187,157,157,187,255,232,176,232,144,241,222,86]",1.5811,rectangle
,,,,,,,,,,,,,FF,,,,,,,,2.8629,,,,,,,,,,,,,,,,,,,,,,60fca5d8124a760a80ff917c,61036eac19cdf417d42a878c,2021-07-29_20h19.15.934,Simcolourproject_2stim_asymm_v5,2020.2.10,Win32,60,61025ae37ef11b136ea224fe,,,,,,,,,117,-34,-66,1,0,0,response5disk,,3,-4,-9,1,0,0,rectangle,-4,-9,1,0,0,-4,-9,1,0,0,1,72,232,34,1,,,,,,,,
,,,,,,,,,,,,,FF,,,,,,,,0.9491,,,,,,,,,,,,,,,,,,,,,,60fca5d8124a760a80ff917c,61036eac19cdf417d42a878c,2021-07-29_20h19.15.934,Simcolourproject_2stim_asymm_v5,2020.2.10,Win32,60,61025ae37ef11b136ea224fe,,,,,,,,,3265,34,-48,1,0,0,response3disk,,4,-2,10,1,0,0,rectangle,-2,10,1,0,0,-2,10,1,0,0,1,73,233,118,1,,,,,,,,
,,,,,,,,,,,,,FF,,,,,,,,0.9987,,,,,,,,,,,,,,,,,,,,,,60fca5d8124a760a80ff917c,61036eac19cdf417d42a878c,2021-07-29_20h19.15.934,Simcolourproject_2stim_asymm_v5,2020.2.10,Win32,60,61025ae37ef11b136ea224fe,,,,,,,,,2428,-78,-35,1,0,0,response5disk,,2,-23,4,1,0,0,rectangle,-108,-57,1,0,0,-6,-4,1,0,0,1,74,234,126,1,,response5disk_3,TRUE,2,2,"[39,101,261,202,130,18,228,235,187,157,157,187,255,232,176,232,144,241,222,86]",1.1987,rectangle
,,,,,,,,,,,,,FF,,,,,,,,1.7973,,,,,,,,,,,,,,,,,,,,,,60fca5d8124a760a80ff917c,61036eac19cdf417d42a878c,2021-07-29_20h19.15.934,Simcolourproject_2stim_asymm_v5,2020.2.10,Win32,60,61025ae37ef11b136ea224fe,,,,,,,,,3056,-47,-61,1,0,0,response5disk,,3,8,16,1,0,0,rectangle,8,16,1,0,0,8,16,1,0,0,1,75,235,40,1,,,,,,,,
,,,,,,,,,,,,,FF,,,,,,,,1.0325,,,,,,,,,,,,,,,,,,,,,,60fca5d8124a760a80ff917c,61036eac19cdf417d42a878c,2021-07-29_20h19.15.934,Simcolourproject_2stim_asymm_v5,2020.2.10,Win32,60,61025ae37ef11b136ea224fe,,,,,,,,,996,-95,-34,1,0,0,response5disk,,2,-18,-6,1,0,0,rectangle,-18,-6,1,0,0,-18,-6,1,0,0,1,76,236,43,1,,,,,,,,
,,,,,,,,,,,,,FF,,,,,,,,1.8144,,,,,,,,,,,,,,,,,,,,,,60fca5d8124a760a80ff917c,61036eac19cdf417d42a878c,2021-07-29_20h19.15.934,Simcolourproject_2stim_asymm_v5,2020.2.10,Win32,60,61025ae37ef11b136ea224fe,,,,,,,,,1073,42,-51,1,0,0,response3disk,,4,-1,-3,1,0,0,rectangle,-1,-3,1,0,0,-1,-3,1,0,0,1,77,237,22,1,,,,,,,,
,,,,,,,,,,,,,FF,,,,,,,,0.9323,,,,,,,,,,,,,,,,,,,,,,60fca5d8124a760a80ff917c,61036eac19cdf417d42a878c,2021-07-29_20h19.15.934,Simcolourproject_2stim_asymm_v5,2020.2.10,Win32,60,61025ae37ef11b136ea224fe,,,,,,,,,4139,63,43,1,0,0,response1disk,,6,8,7,1,0,0,rectangle,8,7,1,0,0,8,7,1,0,0,1,78,238,141,1,,,,,,,,
,,,,,,,,,,,,,FF,,,,,,,,1.1819,,,,,,,,,,,,,,,,,,,,,,60fca5d8124a760a80ff917c,61036eac19cdf417d42a878c,2021-07-29_20h19.15.934,Simcolourproject_2stim_asymm_v5,2020.2.10,Win32,60,61025ae37ef11b136ea224fe,,,,,,,,,2589,48,-75,1,0,0,response3disk,,4,17,-8,1,0,0,rectangle,17,-8,1,0,0,17,-8,1,0,0,1,79,239,124,1,,,,,,,,
,,,,,,,,,,,,,FF,,,,,,,,2.5469,,,,,,,,,,,,,,,,,,,,,,60fca5d8124a760a80ff917c,61036eac19cdf417d42a878c,2021-07-29_20h19.15.934,Simcolourproject_2stim_asymm_v5,2020.2.10,Win32,60,61025ae37ef11b136ea224fe,,,,,,,,,1028,43,-74,1,0,0,response3disk,,4,-8,2,1,0,0,rectangle,-66,113,1,0,0,-3,4,1,0,0,1,80,240,143,1,,response7disk_3,TRUE,0,0,"[39,101,261,202,130,18,228,235,187,157,157,187,255,232,176,232,144,241,222,86]",1.631,rectangle
,,,,,,,,,,,,,FF,,,,,,,,2.0309,,,,,,,,,,,,,,,,,,,,,,60fca5d8124a760a80ff917c,61036eac19cdf417d42a878c,2021-07-29_20h19.15.934,Simcolourproject_2stim_asymm_v5,2020.2.10,Win32,60,61025ae37ef11b136ea224fe,,,,,,,,,3721,54,39,1,0,0,response1disk,,6,-22,-12,1,0,0,rectangle,-22,-12,1,0,0,-22,-12,1,0,0,1,81,241,15,1,,,,,,,,
,,,,,,,,,,,,,FF,,,,,,,,1.9973,,,,,,,,,,,,,,,,,,,,,,60fca5d8124a760a80ff917c,61036eac19cdf417d42a878c,2021-07-29_20h19.15.934,Simcolourproject_2stim_asymm_v5,2020.2.10,Win32,60,61025ae37ef11b136ea224fe,,,,,,,,,2583,69,45,1,0,0,response1disk,,6,-9,2,1,0,0,rectangle,-9,2,1,0,0,-9,2,1,0,0,1,82,242,65,1,,,,,,,,
,,,,,,,,,,,,,FF,,,,,,,,0.9485,,,,,,,,,,,,,,,,,,,,,,60fca5d8124a760a80ff917c,61036eac19cdf417d42a878c,2021-07-29_20h19.15.934,Simcolourproject_2stim_asymm_v5,2020.2.10,Win32,60,61025ae37ef11b136ea224fe,,,,,,,,,1426,-38,-65,1,0,0,response5disk,,3,5,2,1,0,0,rectangle,5,2,1,0,0,5,2,1,0,0,1,83,243,55,1,,,,,,,,
,,,,,,,,,,,,,FF,,,,,,,,1.7643,,,,,,,,,,,,,,,,,,,,,,60fca5d8124a760a80ff917c,61036eac19cdf417d42a878c,2021-07-29_20h19.15.934,Simcolourproject_2stim_asymm_v5,2020.2.10,Win32,60,61025ae37ef11b136ea224fe,,,,,,,,,3023,46,-76,1,0,0,response3disk,,4,7,14,1,0,0,rectangle,7,14,1,0,0,7,14,1,0,0,1,84,244,42,1,,,,,,,,
,,,,,,,,,,,,,FF,,,,,,,,2.4804,,,,,,,,,,,,,,,,,,,,,,60fca5d8124a760a80ff917c,61036eac19cdf417d42a878c,2021-07-29_20h19.15.934,Simcolourproject_2stim_asymm_v5,2020.2.10,Win32,60,61025ae37ef11b136ea224fe,,,,,,,,,2177,48,-42,1,0,0,response3disk,,5,4,-16,1,0,0,rectangle,4,-16,1,0,0,4,-16,1,0,0,1,85,245,56,1,,,,,,,,
,,,,,,,,,,,,,FF,,,,,,,,0.9488,,,,,,,,,,,,,,,,,,,,,,60fca5d8124a760a80ff917c,61036eac19cdf417d42a878c,2021-07-29_20h19.15.934,Simcolourproject_2stim_asymm_v5,2020.2.10,Win32,60,61025ae37ef11b136ea224fe,,,,,,,,,983,29,-73,1,0,0,response3disk,,4,-2,-17,1,0,0,rectangle,-2,-17,1,0,0,-2,-17,1,0,0,1,86,246,155,1,,,,,,,,
,,,,,,,,,,,,,FF,,,,,,,,1.1152,,,,,,,,,,,,,,,,,,,,,,60fca5d8124a760a80ff917c,61036eac19cdf417d42a878c,2021-07-29_20h19.15.934,Simcolourproject_2stim_asymm_v5,2020.2.10,Win32,60,61025ae37ef11b136ea224fe,,,,,,,,,1435,39,-59,1,0,0,response3disk,,4,11,8,1,0,0,rectangle,11,8,1,0,0,11,8,1,0,0,1,87,247,86,1,,,,,,,,
,,,,,,,,,,,,,FF,,,,,,,,1.0652,,,,,,,,,,,,,,,,,,,,,,60fca5d8124a760a80ff917c,61036eac19cdf417d42a878c,2021-07-29_20h19.15.934,Simcolourproject_2stim_asymm_v5,2020.2.10,Win32,60,61025ae37ef11b136ea224fe,,,,,,,,,280,-31,-85,1,0,0,response5disk,,3,18,-3,1,0,0,rectangle,18,-3,1,0,0,18,-3,1,0,0,1,88,248,71,1,,,,,,,,
,,,,,,,,,,,,,FF,,,,,,,,0.9488,,,,,,,,,,,,,,,,,,,,,,60fca5d8124a760a80ff917c,61036eac19cdf417d42a878c,2021-07-29_20h19.15.934,Simcolourproject_2stim_asymm_v5,2020.2.10,Win32,60,61025ae37ef11b136ea224fe,,,,,,,,,3339,-78,-58,1,0,0,response5disk,,2,21,-17,1,0,0,rectangle,21,-17,1,0,0,21,-17,1,0,0,1,89,249,158,1,,,,,,,,
,,,,,,,,,,,,,FF,,,,,,,,1.0987,,,,,,,,,,,,,,,,,,,,,,60fca5d8124a760a80ff917c,61036eac19cdf417d42a878c,2021-07-29_20h19.15.934,Simcolourproject_2stim_asymm_v5,2020.2.10,Win32,60,61025ae37ef11b136ea224fe,,,,,,,,,2383,-36,-81,1,0,0,response5disk,,3,4,7,1,0,0,rectangle,4,7,1,0,0,4,7,1,0,0,1,90,250,109,1,,,,,,,,
,,,,,,,,,,,,,FF,,,,,,,,0.8989,,,,,,,,,,,,,,,,,,,,,,60fca5d8124a760a80ff917c,61036eac19cdf417d42a878c,2021-07-29_20h19.15.934,Simcolourproject_2stim_asymm_v5,2020.2.10,Win32,60,61025ae37ef11b136ea224fe,,,,,,,,,487,94,-45,1,0,0,response3disk,,5,11,5,1,0,0,rectangle,11,5,1,0,0,11,5,1,0,0,1,91,251,36,1,,,,,,,,
,,,,,,,,,,,,,FF,,,,,,,,1.731,,,,,,,,,,,,,,,,,,,,,,60fca5d8124a760a80ff917c,61036eac19cdf417d42a878c,2021-07-29_20h19.15.934,Simcolourproject_2stim_asymm_v5,2020.2.10,Win32,60,61025ae37ef11b136ea224fe,,,,,,,,,2707,94,62,1,0,0,response1disk,,6,-1,-3,1,0,0,rectangle,-1,-3,1,0,0,-1,-3,1,0,0,1,92,252,45,1,,,,,,,,
,,,,,,,,,,,,,FF,,,,,,,,1.0823,,,,,,,,,,,,,,,,,,,,,,60fca5d8124a760a80ff917c,61036eac19cdf417d42a878c,2021-07-29_20h19.15.934,Simcolourproject_2stim_asymm_v5,2020.2.10,Win32,60,61025ae37ef11b136ea224fe,,,,,,,,,287,56,-24,1,0,0,response3disk,,5,13,-1,1,0,0,rectangle,13,-1,1,0,0,13,-1,1,0,0,1,93,253,120,1,,,,,,,,
,,,,,,,,,,,,,FF,,,,,,,,1.1487,,,,,,,,,,,,,,,,,,,,,,60fca5d8124a760a80ff917c,61036eac19cdf417d42a878c,2021-07-29_20h19.15.934,Simcolourproject_2stim_asymm_v5,2020.2.10,Win32,60,61025ae37ef11b136ea224fe,,,,,,,,,3449,63,104,1,0,0,response1disk,,7,-5,17,1,0,0,rectangle,-87,55,1,0,0,6,4,1,0,0,1,94,254,137,1,,response7disk_3,TRUE,1,1,"[39,101,261,202,130,18,228,235,187,157,157,187,255,232,176,232,144,241,222,86]",1.2151,rectangle
,,,,,,,,,,,,,FF,,,,,,,,1.132,,,,,,,,,,,,,,,,,,,,,,60fca5d8124a760a80ff917c,61036eac19cdf417d42a878c,2021-07-29_20h19.15.934,Simcolourproject_2stim_asymm_v5,2020.2.10,Win32,60,61025ae37ef11b136ea224fe,,,,,,,,,3193,-64,-62,1,0,0,response5disk,,2,33,9,1,0,0,rectangle,33,9,1,0,0,33,9,1,0,0,1,95,255,149,1,,,,,,,,
,,,,,,,,,,,,,FF,,,,,,,,0.8993,,,,,,,,,,,,,,,,,,,,,,60fca5d8124a760a80ff917c,61036eac19cdf417d42a878c,2021-07-29_20h19.15.934,Simcolourproject_2stim_asymm_v5,2020.2.10,Win32,60,61025ae37ef11b136ea224fe,,,,,,,,,1233,-67,-41,1,0,0,response5disk,,2,-17,-8,1,0,0,rectangle,-17,-8,1,0,0,-17,-8,1,0,0,1,96,256,37,1,,,,,,,,
,,,,,,,,,,,,,FF,,,,,,,,0.7324,,,,,,,,,,,,,,,,,,,,,,60fca5d8124a760a80ff917c,61036eac19cdf417d42a878c,2021-07-29_20h19.15.934,Simcolourproject_2stim_asymm_v5,2020.2.10,Win32,60,61025ae37ef11b136ea224fe,,,,,,,,,3205,-65,-34,1,0,0,response5disk,,2,-14,4,1,0,0,rectangle,-14,4,1,0,0,-14,4,1,0,0,1,97,257,77,1,,,,,,,,
,,,,,,,,,,,,,FF,,,,,,,,1.3316,,,,,,,,,,,,,,,,,,,,,,60fca5d8124a760a80ff917c,61036eac19cdf417d42a878c,2021-07-29_20h19.15.934,Simcolourproject_2stim_asymm_v5,2020.2.10,Win32,60,61025ae37ef11b136ea224fe,,,,,,,,,3850,-52,100,1,0,0,response7disk,,0,-10,10,1,0,0,rectangle,-10,10,1,0,0,-10,10,1,0,0,1,98,258,136,1,,,,,,,,
,,,,,,,,,,,,,FF,,,,,,,,1.6472,,,,,,,,,,,,,,,,,,,,,,60fca5d8124a760a80ff917c,61036eac19cdf417d42a878c,2021-07-29_20h19.15.934,Simcolourproject_2stim_asymm_v5,2020.2.10,Win32,60,61025ae37ef11b136ea224fe,,,,,,,,,2655,-92,-46,1,0,0,response5disk,,2,3,-5,1,0,0,rectangle,3,-5,1,0,0,3,-5,1,0,0,1,99,259,104,1,,,,,,,,
,,,,,,,,,,,,,FF,,,,,,,,1.0154,,,,,,,,,,,,,,,,,,,,,,60fca5d8124a760a80ff917c,61036eac19cdf417d42a878c,2021-07-29_20h19.15.934,Simcolourproject_2stim_asymm_v5,2020.2.10,Win32,60,61025ae37ef11b136ea224fe,,,,,,,,,4092,70,33,1,0,0,response1disk,,6,12,-6,1,0,0,rectangle,-56,-81,1,0,0,-32,7,1,0,0,1,100,260,138,1,,response5disk_3,TRUE,3,3,"[39,101,261,202,130,18,228,235,187,157,157,187,255,232,176,232,144,241,222,86]",1.6145,rectangle
,,,,,,,,,,,,,FF,,,,,,,,1.5147,,,,,,,,,,,,,,,,,,,,,,60fca5d8124a760a80ff917c,61036eac19cdf417d42a878c,2021-07-29_20h19.15.934,Simcolourproject_2stim_asymm_v5,2020.2.10,Win32,60,61025ae37ef11b136ea224fe,,,,,,,,,3110,52,41,1,0,0,response1disk,,6,1,5,1,0,0,rectangle,1,5,1,0,0,1,5,1,0,0,1,101,261,16,1,,,,,,,,
,,,,,,,,,,,,,FF,,,,,,,,1.0154,,,,,,,,,,,,,,,,,,,,,,60fca5d8124a760a80ff917c,61036eac19cdf417d42a878c,2021-07-29_20h19.15.934,Simcolourproject_2stim_asymm_v5,2020.2.10,Win32,60,61025ae37ef11b136ea224fe,,,,,,,,,3815,-60,-30,1,0,0,response5disk,,2,-6,-5,1,0,0,rectangle,-6,-5,1,0,0,-6,-5,1,0,0,1,102,262,106,1,,,,,,,,
,,,,,,,,,,,,,FF,,,,,,,,1.0486,,,,,,,,,,,,,,,,,,,,,,60fca5d8124a760a80ff917c,61036eac19cdf417d42a878c,2021-07-29_20h19.15.934,Simcolourproject_2stim_asymm_v5,2020.2.10,Win32,60,61025ae37ef11b136ea224fe,,,,,,,,,1004,-32,-73,1,0,0,response5disk,,3,17,-2,1,0,0,rectangle,17,-2,1,0,0,17,-2,1,0,0,1,103,263,89,1,,,,,,,,
,,,,,,,,,,,,,FF,,,,,,,,0.8988,,,,,,,,,,,,,,,,,,,,,,60fca5d8124a760a80ff917c,61036eac19cdf417d42a878c,2021-07-29_20h19.15.934,Simcolourproject_2stim_asymm_v5,2020.2.10,Win32,60,61025ae37ef11b136ea224fe,,,,,,,,,896,-49,-90,1,0,0,response5disk,,3,9,-8,1,0,0,rectangle,9,-8,1,0,0,9,-8,1,0,0,1,104,264,52,1,,,,,,,,
,,,,,,,,,,,,,FF,,,,,,,,1.803,,,,,,,,,,,,,,,,,,,,,,60fca5d8124a760a80ff917c,61036eac19cdf417d42a878c,2021-07-29_20h19.15.934,Simcolourproject_2stim_asymm_v5,2020.2.10,Win32,60,61025ae37ef11b136ea224fe,,,,,,,,,1730,86,-33,1,0,0,response3disk,,5,18,-13,1,0,0,rectangle,18,-13,1,0,0,18,-13,1,0,0,1,105,265,49,1,,,,,,,,
,,,,,,,,,,,,,FF,,,,,,,,0.9659,,,,,,,,,,,,,,,,,,,,,,60fca5d8124a760a80ff917c,61036eac19cdf417d42a878c,2021-07-29_20h19.15.934,Simcolourproject_2stim_asymm_v5,2020.2.10,Win32,60,61025ae37ef11b136ea224fe,,,,,,,,,472,87,70,1,0,0,response1disk,,6,-28,8,1,0,0,rectangle,-28,8,1,0,0,-28,8,1,0,0,1,106,266,18,1,,,,,,,,
,,,,,,,,,,,,,FF,,,,,,,,0.6658,,,,,,,,,,,,,,,,,,,,,,60fca5d8124a760a80ff917c,61036eac19cdf417d42a878c,2021-07-29_20h19.15.934,Simcolourproject_2stim_asymm_v5,2020.2.10,Win32,60,61025ae37ef11b136ea224fe,,,,,,,,,4086,24,74,1,0,0,response1disk,,7,-8,10,1,0,0,rectangle,-8,10,1,0,0,-8,10,1,0,0,1,107,267,84,1,,,,,,,,
,,,,,,,,,,,,,FF,,,,,,,,3.1959,,,,,,,,,,,,,,,,,,,,,,60fca5d8124a760a80ff917c,61036eac19cdf417d42a878c,2021-07-29_20h19.15.934,Simcolourproject_2stim_asymm_v5,2020.2.10,Win32,60,61025ae37ef11b136ea224fe,,,,,,,,,416,33,-50,1,0,0,response3disk,,4,5,12,1,0,0,rectangle,5,12,1,0,0,5,12,1,0,0,1,108,268,35,1,,,,,,,,
,,,,,,,,,,,,,FF,,,,,,,,1.1818,,,,,,,,,,,,,,,,,,,,,,60fca5d8124a760a80ff917c,61036eac19cdf417d42a878c,2021-07-29_20h19.15.934,Simcolourproject_2stim_asymm_v5,2020.2.10,Win32,60,61025ae37ef11b136ea224fe,,,,,,,,,546,-76,29,1,0,0,response7disk,,1,3,-5,1,0,0,rectangle,3,-5,1,0,0,3,-5,1,0,0,1,109,269,64,1,,,,,,,,
,,,,,,,,,,,,,FF,,,,,,,,1.1486,,,,,,,,,,,,,,,,,,,,,,60fca5d8124a760a80ff917c,61036eac19cdf417d42a878c,2021-07-29_20h19.15.934,Simcolourproject_2stim_asymm_v5,2020.2.10,Win32,60,61025ae37ef11b136ea224fe,,,,,,,,,42,-21,-52,1,0,0,response5disk,,3,0,-4,1,0,0,rectangle,0,-4,1,0,0,0,-4,1,0,0,1,110,270,108,1,,,,,,,,
,,,,,,,,,,,,,FF,,,,,,,,1.9142,,,,,,,,,,,,,,,,,,,,,,60fca5d8124a760a80ff917c,61036eac19cdf417d42a878c,2021-07-29_20h19.15.934,Simcolourproject_2stim_asymm_v5,2020.2.10,Win32,60,61025ae37ef11b136ea224fe,,,,,,,,,3628,80,42,1,0,0,response1disk,,6,6,-14,1,0,0,rectangle,6,-14,1,0,0,6,-14,1,0,0,1,111,271,93,1,,,,,,,,
,,,,,,,,,,,,,FF,,,,,,,,1.3815,,,,,,,,,,,,,,,,,,,,,,60fca5d8124a760a80ff917c,61036eac19cdf417d42a878c,2021-07-29_20h19.15.934,Simcolourproject_2stim_asymm_v5,2020.2.10,Win32,60,61025ae37ef11b136ea224fe,,,,,,,,,1061,-69,-45,1,0,0,response5disk,,2,9,-1,1,0,0,rectangle,9,-1,1,0,0,9,-1,1,0,0,1,112,272,154,1,,,,,,,,
,,,,,,,,,,,,,FF,,,,,,,,1.4475,,,,,,,,,,,,,,,,,,,,,,60fca5d8124a760a80ff917c,61036eac19cdf417d42a878c,2021-07-29_20h19.15.934,Simcolourproject_2stim_asymm_v5,2020.2.10,Win32,60,61025ae37ef11b136ea224fe,,,,,,,,,2127,42,-20,1,0,0,response3disk,,5,14,-5,1,0,0,rectangle,14,-5,1,0,0,14,-5,1,0,0,1,113,273,123,1,,,,,,,,
,,,,,,,,,,,,,FF,,,,,,,,0.9489,,,,,,,,,,,,,,,,,,,,,,60fca5d8124a760a80ff917c,61036eac19cdf417d42a878c,2021-07-29_20h19.15.934,Simcolourproject_2stim_asymm_v5,2020.2.10,Win32,60,61025ae37ef11b136ea224fe,,,,,,,,,4179,33,52,1,0,0,response1disk,,7,11,6,1,0,0,rectangle,11,6,1,0,0,11,6,1,0,0,1,114,274,48,1,,,,,,,,
,,,,,,,,,,,,,FF,,,,,,,,1.4815,,,,,,,,,,,,,,,,,,,,,,60fca5d8124a760a80ff917c,61036eac19cdf417d42a878c,2021-07-29_20h19.15.934,Simcolourproject_2stim_asymm_v5,2020.2.10,Win32,60,61025ae37ef11b136ea224fe,,,,,,,,,1716,36,71,1,0,0,response1disk,,7,11,-5,1,0,0,rectangle,11,-5,1,0,0,11,-5,1,0,0,1,115,275,98,1,,,,,,,,
,,,,,,,,,,,,,FF,,,,,,,,1.2317,,,,,,,,,,,,,,,,,,,,,,60fca5d8124a760a80ff917c,61036eac19cdf417d42a878c,2021-07-29_20h19.15.934,Simcolourproject_2stim_asymm_v5,2020.2.10,Win32,60,61025ae37ef11b136ea224fe,,,,,,,,,940,71,47,1,0,0,response1disk,,6,2,7,1,0,0,rectangle,2,7,1,0,0,2,7,1,0,0,1,116,276,79,1,,,,,,,,
,,,,,,,,,,,,,FF,,,,,,,,1.0821,,,,,,,,,,,,,,,,,,,,,,60fca5d8124a760a80ff917c,61036eac19cdf417d42a878c,2021-07-29_20h19.15.934,Simcolourproject_2stim_asymm_v5,2020.2.10,Win32,60,61025ae37ef11b136ea224fe,,,,,,,,,2593,53,-33,1,0,0,response3disk,,5,2,-11,1,0,0,rectangle,2,-11,1,0,0,2,-11,1,0,0,1,117,277,60,1,,,,,,,,
,,,,,,,,,,,,,FF,,,,,,,,0.6825,,,,,,,,,,,,,,,,,,,,,,60fca5d8124a760a80ff917c,61036eac19cdf417d42a878c,2021-07-29_20h19.15.934,Simcolourproject_2stim_asymm_v5,2020.2.10,Win32,60,61025ae37ef11b136ea224fe,,,,,,,,,2864,74,44,1,0,0,response1disk,,6,13,4,1,0,0,rectangle,13,4,1,0,0,13,4,1,0,0,1,118,278,57,1,,,,,,,,
,,,,,,,,,,,,,FF,,,,,,,,1.1485,,,,,,,,,,,,,,,,,,,,,,60fca5d8124a760a80ff917c,61036eac19cdf417d42a878c,2021-07-29_20h19.15.934,Simcolourproject_2stim_asymm_v5,2020.2.10,Win32,60,61025ae37ef11b136ea224fe,,,,,,,,,4277,-82,-66,1,0,0,response5disk,,2,-5,-2,1,0,0,rectangle,-5,-2,1,0,0,-5,-2,1,0,0,1,119,279,6,1,,,,,,,,
,,,,,,,,,,,,,FF,,,,,,,,1.4318,,,,,,,,,,,,,,,,,,,,,,60fca5d8124a760a80ff917c,61036eac19cdf417d42a878c,2021-07-29_20h19.15.934,Simcolourproject_2stim_asymm_v5,2020.2.10,Win32,60,61025ae37ef11b136ea224fe,,,,,,,,,890,-58,-34,1,0,0,response5disk,,2,-1,9,1,0,0,rectangle,-1,9,1,0,0,-1,9,1,0,0,1,120,280,131,1,,,,,,,,
,,,,,,,,,,,,,FF,,,,,,,,0.716,,,,,,,,,,,,,,,,,,,,,,60fca5d8124a760a80ff917c,61036eac19cdf417d42a878c,2021-07-29_20h19.15.934,Simcolourproject_2stim_asymm_v5,2020.2.10,Win32,60,61025ae37ef11b136ea224fe,,,,,,,,,2660,-27,75,1,0,0,response7disk,,0,0,13,1,0,0,rectangle,0,13,1,0,0,0,13,1,0,0,1,121,281,31,1,,,,,,,,
,,,,,,,,,,,,,FF,,,,,,,,1.5314,,,,,,,,,,,,,,,,,,,,,,60fca5d8124a760a80ff917c,61036eac19cdf417d42a878c,2021-07-29_20h19.15.934,Simcolourproject_2stim_asymm_v5,2020.2.10,Win32,60,61025ae37ef11b136ea224fe,,,,,,,,,3775,-84,-41,1,0,0,response5disk,,2,1,-7,1,0,0,rectangle,1,-7,1,0,0,1,-7,1,0,0,1,122,282,66,1,,,,,,,,
,,,,,,,,,,,,,FF,,,,,,,,0.9155,,,,,,,,,,,,,,,,,,,,,,60fca5d8124a760a80ff917c,61036eac19cdf417d42a878c,2021-07-29_20h19.15.934,Simcolourproject_2stim_asymm_v5,2020.2.10,Win32,60,61025ae37ef11b136ea224fe,,,,,,,,,3831,20,-40,1,0,0,response3disk,,4,-2,13,1,0,0,rectangle,-2,13,1,0,0,-2,13,1,0,0,1,123,283,113,1,,,,,,,,
,,,,,,,,,,,,,FF,,,,,,,,0.8494,,,,,,,,,,,,,,,,,,,,,,60fca5d8124a760a80ff917c,61036eac19cdf417d42a878c,2021-07-29_20h19.15.934,Simcolourproject_2stim_asymm_v5,2020.2.10,Win32,60,61025ae37ef11b136ea224fe,,,,,,,,,1242,-23,-62,1,0,0,response5disk,,3,4,0,1,0,0,rectangle,4,0,1,0,0,4,0,1,0,0,1,124,284,88,1,,,,,,,,
,,,,,,,,,,,,,FF,,,,,,,,0.8656,,,,,,,,,,,,,,,,,,,,,,60fca5d8124a760a80ff917c,61036eac19cdf417d42a878c,2021-07-29_20h19.15.934,Simcolourproject_2stim_asymm_v5,2020.2.10,Win32,60,61025ae37ef11b136ea224fe,,,,,,,,,1939,54,-33,1,0,0,response3disk,,5,10,1,1,0,0,rectangle,10,1,1,0,0,10,1,1,0,0,1,125,285,46,1,,,,,,,,
,,,,,,,,,,,,,FF,,,,,,,,1.3984,,,,,,,,,,,,,,,,,,,,,,60fca5d8124a760a80ff917c,61036eac19cdf417d42a878c,2021-07-29_20h19.15.934,Simcolourproject_2stim_asymm_v5,2020.2.10,Win32,60,61025ae37ef11b136ea224fe,,,,,,,,,1141,-51,-68,1,0,0,response5disk,,3,-3,-5,1,0,0,rectangle,-3,-5,1,0,0,-3,-5,1,0,0,1,126,286,85,1,,,,,,,,
,,,,,,,,,,,,,FF,,,,,,,,1.0652,,,,,,,,,,,,,,,,,,,,,,60fca5d8124a760a80ff917c,61036eac19cdf417d42a878c,2021-07-29_20h19.15.934,Simcolourproject_2stim_asymm_v5,2020.2.10,Win32,60,61025ae37ef11b136ea224fe,,,,,,,,,1573,23,-47,1,0,0,response3disk,,4,9,-16,1,0,0,rectangle,9,-16,1,0,0,9,-16,1,0,0,1,127,287,107,1,,,,,,,,
,,,,,,,,,,,,,FF,,,,,,,,0.8156,,,,,,,,,,,,,,,,,,,,,,60fca5d8124a760a80ff917c,61036eac19cdf417d42a878c,2021-07-29_20h19.15.934,Simcolourproject_2stim_asymm_v5,2020.2.10,Win32,60,61025ae37ef11b136ea224fe,,,,,,,,,2612,-32,-60,1,0,0,response5disk,,3,8,-5,1,0,0,rectangle,8,-5,1,0,0,8,-5,1,0,0,1,128,288,116,1,,,,,,,,
,,,,,,,,,,,,,FF,,,,,,,,0.9487,,,,,,,,,,,,,,,,,,,,,,60fca5d8124a760a80ff917c,61036eac19cdf417d42a878c,2021-07-29_20h19.15.934,Simcolourproject_2stim_asymm_v5,2020.2.10,Win32,60,61025ae37ef11b136ea224fe,,,,,,,,,1422,55,-28,1,0,0,response3disk,,5,-6,4,1,0,0,rectangle,-6,4,1,0,0,-6,4,1,0,0,1,129,289,61,1,,,,,,,,
,,,,,,,,,,,,,FF,,,,,,,,0.799,,,,,,,,,,,,,,,,,,,,,,60fca5d8124a760a80ff917c,61036eac19cdf417d42a878c,2021-07-29_20h19.15.934,Simcolourproject_2stim_asymm_v5,2020.2.10,Win32,60,61025ae37ef11b136ea224fe,,,,,,,,,1680,-70,-39,1,0,0,response5disk,,2,-13,6,1,0,0,rectangle,-13,6,1,0,0,-13,6,1,0,0,1,130,290,135,1,,,,,,,,
,,,,,,,,,,,,,FF,,,,,,,,1.2484,,,,,,,,,,,,,,,,,,,,,,60fca5d8124a760a80ff917c,61036eac19cdf417d42a878c,2021-07-29_20h19.15.934,Simcolourproject_2stim_asymm_v5,2020.2.10,Win32,60,61025ae37ef11b136ea224fe,,,,,,,,,1699,46,-54,1,0,0,response3disk,,4,-2,1,1,0,0,rectangle,-2,1,1,0,0,-2,1,1,0,0,1,131,291,153,1,,,,,,,,
,,,,,,,,,,,,,FF,,,,,,,,1.1154,,,,,,,,,,,,,,,,,,,,,,60fca5d8124a760a80ff917c,61036eac19cdf417d42a878c,2021-07-29_20h19.15.934,Simcolourproject_2stim_asymm_v5,2020.2.10,Win32,60,61025ae37ef11b136ea224fe,,,,,,,,,3022,92,29,1,0,0,response1disk,,6,16,0,1,0,0,rectangle,16,0,1,0,0,16,0,1,0,0,1,132,292,94,1,,,,,,,,
,,,,,,,,,,,,,FF,,,,,,,,0.7988,,,,,,,,,,,,,,,,,,,,,,60fca5d8124a760a80ff917c,61036eac19cdf417d42a878c,2021-07-29_20h19.15.934,Simcolourproject_2stim_asymm_v5,2020.2.10,Win32,60,61025ae37ef11b136ea224fe,,,,,,,,,3350,-86,54,1,0,0,response7disk,,1,-14,16,1,0,0,rectangle,-14,16,1,0,0,-14,16,1,0,0,1,133,293,132,1,,,,,,,,
,,,,,,,,,,,,,FF,,,,,,,,1.199,,,,,,,,,,,,,,,,,,,,,,60fca5d8124a760a80ff917c,61036eac19cdf417d42a878c,2021-07-29_20h19.15.934,Simcolourproject_2stim_asymm_v5,2020.2.10,Win32,60,61025ae37ef11b136ea224fe,,,,,,,,,1567,94,38,1,0,0,response1disk,,6,14,0,1,0,0,rectangle,14,0,1,0,0,14,0,1,0,0,1,134,294,144,1,,,,,,,,
,,,,,,,,,,,,,FF,,,,,,,,0.8486,,,,,,,,,,,,,,,,,,,,,,60fca5d8124a760a80ff917c,61036eac19cdf417d42a878c,2021-07-29_20h19.15.934,Simcolourproject_2stim_asymm_v5,2020.2.10,Win32,60,61025ae37ef11b136ea224fe,,,,,,,,,4127,-73,-35,1,0,0,response5disk,,2,-19,-7,1,0,0,rectangle,-19,-7,1,0,0,-19,-7,1,0,0,1,135,295,74,1,,,,,,,,
,,,,,,,,,,,,,FF,,,,,,,,0.8823,,,,,,,,,,,,,,,,,,,,,,60fca5d8124a760a80ff917c,61036eac19cdf417d42a878c,2021-07-29_20h19.15.934,Simcolourproject_2stim_asymm_v5,2020.2.10,Win32,60,61025ae37ef11b136ea224fe,,,,,,,,,254,-40,-55,1,0,0,response5disk,,3,-3,-8,1,0,0,rectangle,-3,-8,1,0,0,-3,-8,1,0,0,1,136,296,76,1,,,,,,,,
,,,,,,,,,,,,,FF,,,,,,,,0.8989,,,,,,,,,,,,,,,,,,,,,,60fca5d8124a760a80ff917c,61036eac19cdf417d42a878c,2021-07-29_20h19.15.934,Simcolourproject_2stim_asymm_v5,2020.2.10,Win32,60,61025ae37ef11b136ea224fe,,,,,,,,,3687,82,61,1,0,0,response1disk,,6,-4,-1,1,0,0,rectangle,-4,-1,1,0,0,-4,-1,1,0,0,1,137,297,5,1,,,,,,,,
,,,,,,,,,,,,,FF,,,,,,,,0.8823,,,,,,,,,,,,,,,,,,,,,,60fca5d8124a760a80ff917c,61036eac19cdf417d42a878c,2021-07-29_20h19.15.934,Simcolourproject_2stim_asymm_v5,2020.2.10,Win32,60,61025ae37ef11b136ea224fe,,,,,,,,,836,-56,-19,1,0,0,response5disk,,2,-18,7,1,0,0,rectangle,-18,7,1,0,0,-18,7,1,0,0,1,138,298,145,1,,,,,,,,
,,,,,,,,,,,,,FF,,,,,,,,1.3647,,,,,,,,,,,,,,,,,,,,,,60fca5d8124a760a80ff917c,61036eac19cdf417d42a878c,2021-07-29_20h19.15.934,Simcolourproject_2stim_asymm_v5,2020.2.10,Win32,60,61025ae37ef11b136ea224fe,,,,,,,,,1745,-50,29,1,0,0,response7disk,,1,-15,-4,1,0,0,rectangle,-15,-4,1,0,0,-15,-4,1,0,0,1,139,299,140,1,,,,,,,,
,,,,,,,,,,,,,FF,,,,,,,,1.032,,,,,,,,,,,,,,,,,,,,,,60fca5d8124a760a80ff917c,61036eac19cdf417d42a878c,2021-07-29_20h19.15.934,Simcolourproject_2stim_asymm_v5,2020.2.10,Win32,60,61025ae37ef11b136ea224fe,,,,,,,,,2803,-54,-76,1,0,0,response5disk,,3,11,2,1,0,0,rectangle,11,2,1,0,0,11,2,1,0,0,1,140,300,67,1,,,,,,,,
,,,,,,,,,,,,,FF,,,,,,,,0.9988,,,,,,,,,,,,,,,,,,,,,,60fca5d8124a760a80ff917c,61036eac19cdf417d42a878c,2021-07-29_20h19.15.934,Simcolourproject_2stim_asymm_v5,2020.2.10,Win32,60,61025ae37ef11b136ea224fe,,,,,,,,,2143,33,-53,1,0,0,response3disk,,4,9,-5,1,0,0,rectangle,9,-5,1,0,0,9,-5,1,0,0,1,141,301,53,1,,,,,,,,
