key_resp.keys,key_resp.rt,key_resp_14.keys,key_resp_14.rt,key_resp_15.keys,key_resp_15.rt,key_resp_17.keys,key_resp_17.rt,key_resp_9.keys,key_resp_9.rt,key_resp_10.keys,key_resp_10.rt,practice_comparison,Ecc,mouse_5.x,mouse_5.y,mouse_5.leftButton,mouse_5.midButton,mouse_5.rightButton,mouse_5.clicked_name,pracsimilarity,response_time,mouse_10.x,mouse_10.y,mouse_10.leftButton,mouse_10.midButton,mouse_10.rightButton,mouse_10.clicked_name,mouse_7.x,mouse_7.y,mouse_7.leftButton,mouse_7.midButton,mouse_7.rightButton,mouse_6.x,mouse_6.y,mouse_6.leftButton,mouse_6.midButton,mouse_6.rightButton,duringprac.thisRepN,duringprac.thisTrialN,duringprac.thisN,duringprac.thisIndex,duringprac.ran,participant,session,date,expName,psychopyVersion,OS,frameRate,study_id,mouse_7.clicked_name,catchpracsimilarity,catch_response_time,catchnumberprac,catchtrialorderprac,mouse_6.clicked_name,key_resp_22.keys,key_resp_22.rt,realcomparison,mouse.x,mouse.y,mouse.leftButton,mouse.midButton,mouse.rightButton,mouse.clicked_name,Colour2,similarity,mouse_2.x,mouse_2.y,mouse_2.leftButton,mouse_2.midButton,mouse_2.rightButton,mouse_2.clicked_name,mouse_3.x,mouse_3.y,mouse_3.leftButton,mouse_3.midButton,mouse_3.rightButton,mouse_11.x,mouse_11.y,mouse_11.leftButton,mouse_11.midButton,mouse_11.rightButton,trials_2.thisRepN,trials_2.thisTrialN,trials_2.thisN,trials_2.thisIndex,trials_2.ran,Colour1,mouse_3.clicked_name,catchornah,catchsimilarity,catchnumber,catchtrialorder,catchRT,mouse_11.clicked_name
space,5.5571,space,14.661,space,50.3962,space,10.7527,space,1.5671,space,8.9663,81,FF,-34.39994024,-103.200008,1,0,0,response5disk_5,3,14.8049,8.000011563,-0.800006449,1,0,0,rectangle_8,8.000011563,-0.800006449,1,0,0,8.000011563,-0.800006449,1,0,0,0,0,0,3,1,60fce0303eddb8283807967a,6103660bcd3244672a76e48e,2021-07-29_22h39.02.054,Simcolourproject_2stim_asymm_v5,2020.2.10,Win32,60,61025ae37ef11b136ea224fe,,,,,,,,,,,,,,,,,,,,,,,,,,,,,,,,,,,,,,,,,,,,,,
,,,,,,,,,,,,92,PF,36.80001199,99.19997063,1,0,0,response1disk_5,7,7.6829,2.40001148,6.399993658,1,0,0,rectangle_8,-47.19998926,-105.6000568,1,0,0,4.800011516,-8.800006568,1,0,0,0,1,1,1,1,60fce0303eddb8283807967a,6103660bcd3244672a76e48e,2021-07-29_22h39.02.054,Simcolourproject_2stim_asymm_v5,2020.2.10,Win32,60,61025ae37ef11b136ea224fe,response5disk_7,3,4.4513,3,"[2,5]",rectangle_4,,,,,,,,,,,,,,,,,,,,,,,,,,,,,,,,,,,,,,,,
,,,,,,,,,,,,152,PF,-94.39994113,-60.80000734,1,0,0,response5disk_5,2,9.799,8.000011563,2.399993598,1,0,0,rectangle_8,8.000011563,2.399993598,1,0,0,8.000011563,2.399993598,1,0,0,0,2,2,4,1,60fce0303eddb8283807967a,6103660bcd3244672a76e48e,2021-07-29_22h39.02.054,Simcolourproject_2stim_asymm_v5,2020.2.10,Win32,60,61025ae37ef11b136ea224fe,,,,,,,,,,,,,,,,,,,,,,,,,,,,,,,,,,,,,,,,,,,,,,
,,,,,,,,,,,,154,PF,116.8000132,40.79999417,1,0,0,response1disk_5,6,3.0496,-4.799988627,-5.600006521,1,0,0,rectangle_8,-4.799988627,-5.600006521,1,0,0,-4.799988627,-5.600006521,1,0,0,0,3,3,2,1,60fce0303eddb8283807967a,6103660bcd3244672a76e48e,2021-07-29_22h39.02.054,Simcolourproject_2stim_asymm_v5,2020.2.10,Win32,60,61025ae37ef11b136ea224fe,,,,,,,,,,,,,,,,,,,,,,,,,,,,,,,,,,,,,,,,,,,,,,
,,,,,,,,,,,,85,FF,36.80001199,-122.4000083,1,0,0,response3disk_5,4,14.9154,1.14441E-05,-12.80000663,1,0,0,rectangle_8,-53.59998935,-116.0000082,1,0,0,17.60006053,-5.600006521,1,0,0,0,4,4,5,1,60fce0303eddb8283807967a,6103660bcd3244672a76e48e,2021-07-29_22h39.02.054,Simcolourproject_2stim_asymm_v5,2020.2.10,Win32,60,61025ae37ef11b136ea224fe,response5disk_7,3,3.1163,3,"[2,5]",rectangle_4,,,,,,,,,,,,,,,,,,,,,,,,,,,,,,,,,,,,,,,,
,,,,,,,,,,,,17,PF,52.00001222,-109.6000569,1,0,0,response3disk_5,4,8.3165,18.40001172,-2.400006473,1,0,0,rectangle_8,18.40001172,-2.400006473,1,0,0,18.40001172,-2.400006473,1,0,0,0,5,5,6,1,60fce0303eddb8283807967a,6103660bcd3244672a76e48e,2021-07-29_22h39.02.054,Simcolourproject_2stim_asymm_v5,2020.2.10,Win32,60,61025ae37ef11b136ea224fe,,,,,,,,,,,,,,,,,,,,,,,,,,,,,,,,,,,,,,,,,,,,,,
,,,,,,,,,,,,75,FF,35.20001197,-109.6000569,1,0,0,response3disk_5,4,6.5781,-3.999988616,13.59999377,1,0,0,rectangle_8,-3.999988616,13.59999377,1,0,0,-3.999988616,13.59999377,1,0,0,0,6,6,0,1,60fce0303eddb8283807967a,6103660bcd3244672a76e48e,2021-07-29_22h39.02.054,Simcolourproject_2stim_asymm_v5,2020.2.10,Win32,60,61025ae37ef11b136ea224fe,,,,,,,,,,,,,,,,,,,,,,,,,,,,,,,,,,,,,,,,,,,,,,
,,,,,,,,,,,,,FF,,,,,,,,7.8006,,,,,,,,,,,,,,,,,,,,,,60fce0303eddb8283807967a,6103660bcd3244672a76e48e,2021-07-29_22h39.02.054,Simcolourproject_2stim_asymm_v5,2020.2.10,Win32,60,61025ae37ef11b136ea224fe,,,,,,,space,4.2598,200,99.20001292,-60.80000734,1,0,0,response3disk,,5,-10.39993988,-10.40000659,1,0,0,rectangle,-10.39993988,-10.40000659,1,0,0,-10.39993988,-10.40000659,1,0,0,0,0,0,54,1,,,,,,,,
,,,,,,,,,,,,,FF,,,,,,,,8.4336,,,,,,,,,,,,,,,,,,,,,,60fce0303eddb8283807967a,6103660bcd3244672a76e48e,2021-07-29_22h39.02.054,Simcolourproject_2stim_asymm_v5,2020.2.10,Win32,60,61025ae37ef11b136ea224fe,,,,,,,,,1856,108.0000131,-47.20000714,1,0,0,response3disk,,5,8.800011575,-6.4373E-06,1,0,0,rectangle,8.800011575,-6.4373E-06,1,0,0,8.800011575,-6.4373E-06,1,0,0,0,1,1,3,1,,,,,,,,
,,,,,,,,,,,,,FF,,,,,,,,2.1498,,,,,,,,,,,,,,,,,,,,,,60fce0303eddb8283807967a,6103660bcd3244672a76e48e,2021-07-29_22h39.02.054,Simcolourproject_2stim_asymm_v5,2020.2.10,Win32,60,61025ae37ef11b136ea224fe,,,,,,,,,3381,-47.99998927,112.7999952,1,0,0,response7disk,,0,-1.59998858,-4.000006497,1,0,0,rectangle,-1.59998858,-4.000006497,1,0,0,-1.59998858,-4.000006497,1,0,0,0,2,2,69,1,,,,,,,,
,,,,,,,,,,,,,FF,,,,,,,,11.6494,,,,,,,,,,,,,,,,,,,,,,60fce0303eddb8283807967a,6103660bcd3244672a76e48e,2021-07-29_22h39.02.054,Simcolourproject_2stim_asymm_v5,2020.2.10,Win32,60,61025ae37ef11b136ea224fe,,,,,,,,,1019,40.80001205,-117.600057,1,0,0,response3disk,,4,-0.799988568,-6.4373E-06,1,0,0,rectangle,-0.799988568,-6.4373E-06,1,0,0,-0.799988568,-6.4373E-06,1,0,0,0,3,3,114,1,,,,,,,,
,,,,,,,,,,,,,FF,,,,,,,,11.5831,,,,,,,,,,,,,,,,,,,,,,60fce0303eddb8283807967a,6103660bcd3244672a76e48e,2021-07-29_22h39.02.054,Simcolourproject_2stim_asymm_v5,2020.2.10,Win32,60,61025ae37ef11b136ea224fe,,,,,,,,,1565,103.200013,-77.60000759,1,0,0,response3disk,,5,27.20001185,1.599993587,1,0,0,rectangle,27.20001185,1.599993587,1,0,0,27.20001185,1.599993587,1,0,0,0,4,4,15,1,,,,,,,,
,,,,,,,,,,,,,FF,,,,,,,,2.3,,,,,,,,,,,,,,,,,,,,,,60fce0303eddb8283807967a,6103660bcd3244672a76e48e,2021-07-29_22h39.02.054,Simcolourproject_2stim_asymm_v5,2020.2.10,Win32,60,61025ae37ef11b136ea224fe,,,,,,,,,2352,108.8000131,-33.60000694,1,0,0,response3disk,,5,9.600060415,7.19999367,1,0,0,rectangle,9.600060415,7.19999367,1,0,0,9.600060415,7.19999367,1,0,0,0,5,5,136,1,,,,,,,,
,,,,,,,,,,,,,FF,,,,,,,,6.5824,,,,,,,,,,,,,,,,,,,,,,60fce0303eddb8283807967a,6103660bcd3244672a76e48e,2021-07-29_22h39.02.054,Simcolourproject_2stim_asymm_v5,2020.2.10,Win32,60,61025ae37ef11b136ea224fe,,,,,,,,,2396,40.80001205,-104.000008,1,0,0,response3disk,,4,11.20001161,-13.60000664,1,0,0,rectangle,11.20001161,-13.60000664,1,0,0,11.20001161,-13.60000664,1,0,0,0,6,6,56,1,,,,,,,,
,,,,,,,,,,,,,FF,,,,,,,,5.4831,,,,,,,,,,,,,,,,,,,,,,60fce0303eddb8283807967a,6103660bcd3244672a76e48e,2021-07-29_22h39.02.054,Simcolourproject_2stim_asymm_v5,2020.2.10,Win32,60,61025ae37ef11b136ea224fe,,,,,,,,,236,-43.1999892,-105.6000568,1,0,0,response5disk,,3,18.40001172,-6.4373E-06,1,0,0,rectangle,18.40001172,-6.4373E-06,1,0,0,18.40001172,-6.4373E-06,1,0,0,0,7,7,124,1,,,,,,,,
,,,,,,,,,,,,,FF,,,,,,,,4.4329,,,,,,,,,,,,,,,,,,,,,,60fce0303eddb8283807967a,6103660bcd3244672a76e48e,2021-07-29_22h39.02.054,Simcolourproject_2stim_asymm_v5,2020.2.10,Win32,60,61025ae37ef11b136ea224fe,,,,,,,,,2398,104.800013,51.99999434,1,0,0,response1disk,,6,9.600060415,-3.200006485,1,0,0,rectangle,9.600060415,-3.200006485,1,0,0,9.600060415,-3.200006485,1,0,0,0,8,8,17,1,,,,,,,,
,,,,,,,,,,,,,FF,,,,,,,,4.2161,,,,,,,,,,,,,,,,,,,,,,60fce0303eddb8283807967a,6103660bcd3244672a76e48e,2021-07-29_22h39.02.054,Simcolourproject_2stim_asymm_v5,2020.2.10,Win32,60,61025ae37ef11b136ea224fe,,,,,,,,,1684,-95.99998999,58.39999443,1,0,0,response7disk,,1,20.80001175,-4.800006509,1,0,0,rectangle,20.80001175,-4.800006509,1,0,0,20.80001175,-4.800006509,1,0,0,0,9,9,150,1,,,,,,,,
,,,,,,,,,,,,,FF,,,,,,,,6.3993,,,,,,,,,,,,,,,,,,,,,,60fce0303eddb8283807967a,6103660bcd3244672a76e48e,2021-07-29_22h39.02.054,Simcolourproject_2stim_asymm_v5,2020.2.10,Win32,60,61025ae37ef11b136ea224fe,,,,,,,,,3377,21.60006059,-106.400008,1,0,0,response3disk,,4,0.800011456,-8.800006568,1,0,0,rectangle,0.800011456,-8.800006568,1,0,0,0.800011456,-8.800006568,1,0,0,0,10,10,108,1,,,,,,,,
,,,,,,,,,,,,,FF,,,,,,,,6.2661,,,,,,,,,,,,,,,,,,,,,,60fce0303eddb8283807967a,6103660bcd3244672a76e48e,2021-07-29_22h39.02.054,Simcolourproject_2stim_asymm_v5,2020.2.10,Win32,60,61025ae37ef11b136ea224fe,,,,,,,,,3737,104.000013,-52.80000722,1,0,0,response3disk,,5,26.40001184,-12.00000662,1,0,0,rectangle,26.40001184,-12.00000662,1,0,0,26.40001184,-12.00000662,1,0,0,0,11,11,147,1,,,,,,,,
,,,,,,,,,,,,,FF,,,,,,,,7.6323,,,,,,,,,,,,,,,,,,,,,,60fce0303eddb8283807967a,6103660bcd3244672a76e48e,2021-07-29_22h39.02.054,Simcolourproject_2stim_asymm_v5,2020.2.10,Win32,60,61025ae37ef11b136ea224fe,,,,,,,,,3072,105.600013,-67.20000744,1,0,0,response3disk,,5,-11.99998873,-1.600006461,1,0,0,rectangle,-11.99998873,-1.600006461,1,0,0,-11.99998873,-1.600006461,1,0,0,0,12,12,103,1,,,,,,,,
,,,,,,,,,,,,,FF,,,,,,,,11.0821,,,,,,,,,,,,,,,,,,,,,,60fce0303eddb8283807967a,6103660bcd3244672a76e48e,2021-07-29_22h39.02.054,Simcolourproject_2stim_asymm_v5,2020.2.10,Win32,60,61025ae37ef11b136ea224fe,,,,,,,,,352,-99.99999005,-60.80000734,1,0,0,response5disk,,2,9.600060415,-6.400006533,1,0,0,rectangle,9.600060415,-6.400006533,1,0,0,9.600060415,-6.400006533,1,0,0,0,13,13,44,1,,,,,,,,
,,,,,,,,,,,,,FF,,,,,,,,3.4494,,,,,,,,,,,,,,,,,,,,,,60fce0303eddb8283807967a,6103660bcd3244672a76e48e,2021-07-29_22h39.02.054,Simcolourproject_2stim_asymm_v5,2020.2.10,Win32,60,61025ae37ef11b136ea224fe,,,,,,,,,1096,108.0000131,-46.40000713,1,0,0,response3disk,,5,-10.39993988,-5.600006521,1,0,0,rectangle,-10.39993988,-5.600006521,1,0,0,-10.39993988,-5.600006521,1,0,0,0,14,14,65,1,,,,,,,,
,,,,,,,,,,,,,FF,,,,,,,,3.3831,,,,,,,,,,,,,,,,,,,,,,60fce0303eddb8283807967a,6103660bcd3244672a76e48e,2021-07-29_22h39.02.054,Simcolourproject_2stim_asymm_v5,2020.2.10,Win32,60,61025ae37ef11b136ea224fe,,,,,,,,,1463,-53.59998935,-100.8000079,1,0,0,response5disk,,3,9.600060415,-11.2000066,1,0,0,rectangle,9.600060415,-11.2000066,1,0,0,9.600060415,-11.2000066,1,0,0,0,15,15,151,1,,,,,,,,
,,,,,,,,,,,,,FF,,,,,,,,4.033,,,,,,,,,,,,,,,,,,,,,,60fce0303eddb8283807967a,6103660bcd3244672a76e48e,2021-07-29_22h39.02.054,Simcolourproject_2stim_asymm_v5,2020.2.10,Win32,60,61025ae37ef11b136ea224fe,,,,,,,,,2408,118.4000132,-53.60000724,1,0,0,response3disk,,5,-4.799988627,-5.600006521,1,0,0,rectangle,-4.799988627,-5.600006521,1,0,0,-4.799988627,-5.600006521,1,0,0,0,16,16,68,1,,,,,,,,
,,,,,,,,,,,,,FF,,,,,,,,6.2999,,,,,,,,,,,,,,,,,,,,,,60fce0303eddb8283807967a,6103660bcd3244672a76e48e,2021-07-29_22h39.02.054,Simcolourproject_2stim_asymm_v5,2020.2.10,Win32,60,61025ae37ef11b136ea224fe,,,,,,,,,3190,-41.59998918,-102.400008,1,0,0,response5disk,,3,22.40001178,10.39999372,1,0,0,rectangle,22.40001178,10.39999372,1,0,0,22.40001178,10.39999372,1,0,0,0,17,17,8,1,,,,,,,,
,,,,,,,,,,,,,FF,,,,,,,,10.149,,,,,,,,,,,,,,,,,,,,,,60fce0303eddb8283807967a,6103660bcd3244672a76e48e,2021-07-29_22h39.02.054,Simcolourproject_2stim_asymm_v5,2020.2.10,Win32,60,61025ae37ef11b136ea224fe,,,,,,,,,1190,-29.599989,-108.000008,1,0,0,response5disk,,3,14.40001166,-5.600006521,1,0,0,rectangle,14.40001166,-5.600006521,1,0,0,14.40001166,-5.600006521,1,0,0,0,18,18,128,1,,,,,,,,
,,,,,,,,,,,,,FF,,,,,,,,5.833,,,,,,,,,,,,,,,,,,,,,,60fce0303eddb8283807967a,6103660bcd3244672a76e48e,2021-07-29_22h39.02.054,Simcolourproject_2stim_asymm_v5,2020.2.10,Win32,60,61025ae37ef11b136ea224fe,,,,,,,,,4191,54.40001225,-93.60005666,1,0,0,response3disk,,4,12.80001163,-8.800006568,1,0,0,rectangle,12.80001163,-8.800006568,1,0,0,12.80001163,-8.800006568,1,0,0,0,19,19,35,1,,,,,,,,
,,,,,,,,,,,,,FF,,,,,,,,4.5493,,,,,,,,,,,,,,,,,,,,,,60fce0303eddb8283807967a,6103660bcd3244672a76e48e,2021-07-29_22h39.02.054,Simcolourproject_2stim_asymm_v5,2020.2.10,Win32,60,61025ae37ef11b136ea224fe,,,,,,,,,3733,107.200013,-49.60000718,1,0,0,response3disk,,5,10.4000116,-2.400006473,1,0,0,rectangle,10.4000116,-2.400006473,1,0,0,10.4000116,-2.400006473,1,0,0,0,20,20,132,1,,,,,,,,
,,,,,,,,,,,,,FF,,,,,,,,1.5341,,,,,,,,,,,,,,,,,,,,,,60fce0303eddb8283807967a,6103660bcd3244672a76e48e,2021-07-29_22h39.02.054,Simcolourproject_2stim_asymm_v5,2020.2.10,Win32,60,61025ae37ef11b136ea224fe,,,,,,,,,1012,47.20001215,-91.2000078,1,0,0,response3disk,,4,6.400011539,0.799993575,1,0,0,rectangle,6.400011539,0.799993575,1,0,0,6.400011539,0.799993575,1,0,0,0,21,21,79,1,,,,,,,,
,,,,,,,,,,,,,FF,,,,,,,,3.85,,,,,,,,,,,,,,,,,,,,,,60fce0303eddb8283807967a,6103660bcd3244672a76e48e,2021-07-29_22h39.02.054,Simcolourproject_2stim_asymm_v5,2020.2.10,Win32,60,61025ae37ef11b136ea224fe,,,,,,,,,1850,107.200013,78.39999473,1,0,0,response1disk,,6,4.000011504,3.999993622,1,0,0,rectangle,4.000011504,3.999993622,1,0,0,4.000011504,3.999993622,1,0,0,0,22,22,110,1,,,,,,,,
,,,,,,,,,,,,,FF,,,,,,,,2.8831,,,,,,,,,,,,,,,,,,,,,,60fce0303eddb8283807967a,6103660bcd3244672a76e48e,2021-07-29_22h39.02.054,Simcolourproject_2stim_asymm_v5,2020.2.10,Win32,60,61025ae37ef11b136ea224fe,,,,,,,,,2172,-94.39994113,-68.80000746,1,0,0,response5disk,,2,1.600060296,-1.600006461,1,0,0,rectangle,1.600060296,-1.600006461,1,0,0,1.600060296,-1.600006461,1,0,0,0,23,23,28,1,,,,,,,,
,,,,,,,,,,,,,FF,,,,,,,,2.5493,,,,,,,,,,,,,,,,,,,,,,60fce0303eddb8283807967a,6103660bcd3244672a76e48e,2021-07-29_22h39.02.054,Simcolourproject_2stim_asymm_v5,2020.2.10,Win32,60,61025ae37ef11b136ea224fe,,,,,,,,,1646,107.200013,-50.40000719,1,0,0,response3disk,,5,31.20001191,4.799993634,1,0,0,rectangle,31.20001191,4.799993634,1,0,0,31.20001191,4.799993634,1,0,0,0,24,24,82,1,,,,,,,,
,,,,,,,,,,,,,FF,,,,,,,,2.4831,,,,,,,,,,,,,,,,,,,,,,60fce0303eddb8283807967a,6103660bcd3244672a76e48e,2021-07-29_22h39.02.054,Simcolourproject_2stim_asymm_v5,2020.2.10,Win32,60,61025ae37ef11b136ea224fe,,,,,,,,,251,28.00001186,-109.6000569,1,0,0,response3disk,,4,-4.799988627,0.799993575,1,0,0,rectangle,-4.799988627,0.799993575,1,0,0,-4.799988627,0.799993575,1,0,0,0,25,25,85,1,,,,,,,,
,,,,,,,,,,,,,FF,,,,,,,,3.1665,,,,,,,,,,,,,,,,,,,,,,60fce0303eddb8283807967a,6103660bcd3244672a76e48e,2021-07-29_22h39.02.054,Simcolourproject_2stim_asymm_v5,2020.2.10,Win32,60,61025ae37ef11b136ea224fe,,,,,,,,,1327,111.2000131,-56.80000728,1,0,0,response3disk,,5,13.60006047,11.99999374,1,0,0,rectangle,13.60006047,11.99999374,1,0,0,13.60006047,11.99999374,1,0,0,0,26,26,14,1,,,,,,,,
,,,,,,,,,,,,,FF,,,,,,,,1.4832,,,,,,,,,,,,,,,,,,,,,,60fce0303eddb8283807967a,6103660bcd3244672a76e48e,2021-07-29_22h39.02.054,Simcolourproject_2stim_asymm_v5,2020.2.10,Win32,60,61025ae37ef11b136ea224fe,,,,,,,,,1004,42.40001208,-104.000008,1,0,0,response3disk,,4,-5.599988639,-1.600006461,1,0,0,rectangle,-5.599988639,-1.600006461,1,0,0,-5.599988639,-1.600006461,1,0,0,0,27,27,34,1,,,,,,,,
,,,,,,,,,,,,,FF,,,,,,,,1.4497,,,,,,,,,,,,,,,,,,,,,,60fce0303eddb8283807967a,6103660bcd3244672a76e48e,2021-07-29_22h39.02.054,Simcolourproject_2stim_asymm_v5,2020.2.10,Win32,60,61025ae37ef11b136ea224fe,,,,,,,,,2555,-51.19998932,-108.000008,1,0,0,response5disk,,3,2.40001148,9.599993706,1,0,0,rectangle,2.40001148,9.599993706,1,0,0,2.40001148,9.599993706,1,0,0,0,28,28,27,1,,,,,,,,
,,,,,,,,,,,,,FF,,,,,,,,2.7164,,,,,,,,,,,,,,,,,,,,,,60fce0303eddb8283807967a,6103660bcd3244672a76e48e,2021-07-29_22h39.02.054,Simcolourproject_2stim_asymm_v5,2020.2.10,Win32,60,61025ae37ef11b136ea224fe,,,,,,,,,2572,94.40001285,-60.80000734,1,0,0,response3disk,,5,3.200011492,-4.800006509,1,0,0,rectangle,3.200011492,-4.800006509,1,0,0,3.200011492,-4.800006509,1,0,0,0,29,29,146,1,,,,,,,,
,,,,,,,,,,,,,FF,,,,,,,,1.5504,,,,,,,,,,,,,,,,,,,,,,60fce0303eddb8283807967a,6103660bcd3244672a76e48e,2021-07-29_22h39.02.054,Simcolourproject_2stim_asymm_v5,2020.2.10,Win32,60,61025ae37ef11b136ea224fe,,,,,,,,,2695,-86.39994102,-35.20000696,1,0,0,response5disk,,2,-8.799988687,10.39999372,1,0,0,rectangle,-8.799988687,10.39999372,1,0,0,-8.799988687,10.39999372,1,0,0,0,30,30,130,1,,,,,,,,
,,,,,,,,,,,,,FF,,,,,,,,1.0332,,,,,,,,,,,,,,,,,,,,,,60fce0303eddb8283807967a,6103660bcd3244672a76e48e,2021-07-29_22h39.02.054,Simcolourproject_2stim_asymm_v5,2020.2.10,Win32,60,61025ae37ef11b136ea224fe,,,,,,,,,4119,-62.39994066,60.79999447,1,0,0,response7disk,,1,16.00001168,-9.60000658,1,0,0,rectangle,16.00001168,-9.60000658,1,0,0,16.00001168,-9.60000658,1,0,0,0,31,31,42,1,,,,,,,,
,,,,,,,,,,,,,FF,,,,,,,,1.2162,,,,,,,,,,,,,,,,,,,,,,60fce0303eddb8283807967a,6103660bcd3244672a76e48e,2021-07-29_22h39.02.054,Simcolourproject_2stim_asymm_v5,2020.2.10,Win32,60,61025ae37ef11b136ea224fe,,,,,,,,,1909,-75.19998968,23.19996949,1,0,0,response7disk,,1,-4.799988627,-2.400006473,1,0,0,rectangle,-4.799988627,-2.400006473,1,0,0,-4.799988627,-2.400006473,1,0,0,0,32,32,51,1,,,,,,,,
,,,,,,,,,,,,,FF,,,,,,,,2.4332,,,,,,,,,,,,,,,,,,,,,,60fce0303eddb8283807967a,6103660bcd3244672a76e48e,2021-07-29_22h39.02.054,Simcolourproject_2stim_asymm_v5,2020.2.10,Win32,60,61025ae37ef11b136ea224fe,,,,,,,,,2589,46.40001214,-109.6000569,1,0,0,response3disk,,4,-13.59998876,4.799993634,1,0,0,rectangle,-13.59998876,4.799993634,1,0,0,-13.59998876,4.799993634,1,0,0,0,33,33,10,1,,,,,,,,
,,,,,,,,,,,,,FF,,,,,,,,1.7835,,,,,,,,,,,,,,,,,,,,,,60fce0303eddb8283807967a,6103660bcd3244672a76e48e,2021-07-29_22h39.02.054,Simcolourproject_2stim_asymm_v5,2020.2.10,Win32,60,61025ae37ef11b136ea224fe,,,,,,,,,2046,-53.59998935,-96.00000787,1,0,0,response5disk,,3,0.800011456,-8.000006557,1,0,0,rectangle,0.800011456,-8.000006557,1,0,0,0.800011456,-8.000006557,1,0,0,0,34,34,145,1,,,,,,,,
,,,,,,,,,,,,,FF,,,,,,,,4.4495,,,,,,,,,,,,,,,,,,,,,,60fce0303eddb8283807967a,6103660bcd3244672a76e48e,2021-07-29_22h39.02.054,Simcolourproject_2stim_asymm_v5,2020.2.10,Win32,60,61025ae37ef11b136ea224fe,,,,,,,,,3607,47.20001215,-96.80000788,1,0,0,response3disk,,4,-14.39993994,-2.400006473,1,0,0,rectangle,-14.39993994,-2.400006473,1,0,0,-14.39993994,-2.400006473,1,0,0,0,35,35,73,1,,,,,,,,
,,,,,,,,,,,,,FF,,,,,,,,3.8149,,,,,,,,,,,,,,,,,,,,,,60fce0303eddb8283807967a,6103660bcd3244672a76e48e,2021-07-29_22h39.02.054,Simcolourproject_2stim_asymm_v5,2020.2.10,Win32,60,61025ae37ef11b136ea224fe,,,,,,,,,3223,52.00001222,104.7999951,1,0,0,response1disk,,7,-2.399939764,-8.800006568,1,0,0,rectangle,-2.399939764,-8.800006568,1,0,0,-2.399939764,-8.800006568,1,0,0,0,36,36,127,1,,,,,,,,
,,,,,,,,,,,,,FF,,,,,,,,1.2331,,,,,,,,,,,,,,,,,,,,,,60fce0303eddb8283807967a,6103660bcd3244672a76e48e,2021-07-29_22h39.02.054,Simcolourproject_2stim_asymm_v5,2020.2.10,Win32,60,61025ae37ef11b136ea224fe,,,,,,,,,3056,-31.99998903,-97.60005672,1,0,0,response5disk,,3,0.800011456,-3.200006485,1,0,0,rectangle,0.800011456,-3.200006485,1,0,0,0.800011456,-3.200006485,1,0,0,0,37,37,57,1,,,,,,,,
,,,,,,,,,,,,,FF,,,,,,,,1.2166,,,,,,,,,,,,,,,,,,,,,,60fce0303eddb8283807967a,6103660bcd3244672a76e48e,2021-07-29_22h39.02.054,Simcolourproject_2stim_asymm_v5,2020.2.10,Win32,60,61025ae37ef11b136ea224fe,,,,,,,,,3098,-34.39994024,87.99999487,1,0,0,response7disk,,0,-3.199988604,-8.000006557,1,0,0,rectangle,-3.199988604,-8.000006557,1,0,0,-3.199988604,-8.000006557,1,0,0,0,38,38,97,1,,,,,,,,
,,,,,,,,,,,,,FF,,,,,,,,1.5004,,,,,,,,,,,,,,,,,,,,,,60fce0303eddb8283807967a,6103660bcd3244672a76e48e,2021-07-29_22h39.02.054,Simcolourproject_2stim_asymm_v5,2020.2.10,Win32,60,61025ae37ef11b136ea224fe,,,,,,,,,918,108.8000131,-56.00000727,1,0,0,response3disk,,5,18.40001172,-0.800006449,1,0,0,rectangle,18.40001172,-0.800006449,1,0,0,18.40001172,-0.800006449,1,0,0,0,39,39,107,1,,,,,,,,
,,,,,,,,,,,,,FF,,,,,,,,1.6334,,,,,,,,,,,,,,,,,,,,,,60fce0303eddb8283807967a,6103660bcd3244672a76e48e,2021-07-29_22h39.02.054,Simcolourproject_2stim_asymm_v5,2020.2.10,Win32,60,61025ae37ef11b136ea224fe,,,,,,,,,2673,50.4000122,-93.60005666,1,0,0,response3disk,,4,2.40001148,-1.600006461,1,0,0,rectangle,2.40001148,-1.600006461,1,0,0,2.40001148,-1.600006461,1,0,0,0,40,40,9,1,,,,,,,,
,,,,,,,,,,,,,FF,,,,,,,,1.5169,,,,,,,,,,,,,,,,,,,,,,60fce0303eddb8283807967a,6103660bcd3244672a76e48e,2021-07-29_22h39.02.054,Simcolourproject_2stim_asymm_v5,2020.2.10,Win32,60,61025ae37ef11b136ea224fe,,,,,,,,,3449,49.60006101,-88.80000776,1,0,0,response3disk,,4,16.00001168,3.999993622,1,0,0,rectangle,16.00001168,3.999993622,1,0,0,16.00001168,3.999993622,1,0,0,0,41,41,139,1,,,,,,,,
,,,,,,,,,,,,,FF,,,,,,,,2.1,,,,,,,,,,,,,,,,,,,,,,60fce0303eddb8283807967a,6103660bcd3244672a76e48e,2021-07-29_22h39.02.054,Simcolourproject_2stim_asymm_v5,2020.2.10,Win32,60,61025ae37ef11b136ea224fe,,,,,,,,,3209,105.600013,19.19999385,1,0,0,response1disk,,6,3.200011492,-10.40000659,1,0,0,rectangle,3.200011492,-10.40000659,1,0,0,3.200011492,-10.40000659,1,0,0,0,42,42,12,1,,,,,,,,
,,,,,,,,,,,,,FF,,,,,,,,1.3,,,,,,,,,,,,,,,,,,,,,,60fce0303eddb8283807967a,6103660bcd3244672a76e48e,2021-07-29_22h39.02.054,Simcolourproject_2stim_asymm_v5,2020.2.10,Win32,60,61025ae37ef11b136ea224fe,,,,,,,,,3315,93.60001284,-57.6000073,1,0,0,response3disk,,5,32.80001193,-1.600006461,1,0,0,rectangle,32.80001193,-1.600006461,1,0,0,32.80001193,-1.600006461,1,0,0,0,43,43,30,1,,,,,,,,
,,,,,,,,,,,,,FF,,,,,,,,1.5665,,,,,,,,,,,,,,,,,,,,,,60fce0303eddb8283807967a,6103660bcd3244672a76e48e,2021-07-29_22h39.02.054,Simcolourproject_2stim_asymm_v5,2020.2.10,Win32,60,61025ae37ef11b136ea224fe,,,,,,,,,2030,-83.99998981,-62.40000737,1,0,0,response5disk,,2,-10.39993988,-6.4373E-06,1,0,0,rectangle,-10.39993988,-6.4373E-06,1,0,0,-10.39993988,-6.4373E-06,1,0,0,0,44,44,29,1,,,,,,,,
,,,,,,,,,,,,,FF,,,,,,,,1.1998,,,,,,,,,,,,,,,,,,,,,,60fce0303eddb8283807967a,6103660bcd3244672a76e48e,2021-07-29_22h39.02.054,Simcolourproject_2stim_asymm_v5,2020.2.10,Win32,60,61025ae37ef11b136ea224fe,,,,,,,,,414,52.00001222,-92.00000781,1,0,0,response3disk,,4,-5.599988639,13.59999377,1,0,0,rectangle,-5.599988639,13.59999377,1,0,0,-5.599988639,13.59999377,1,0,0,0,45,45,74,1,,,,,,,,
,,,,,,,,,,,,,FF,,,,,,,,2.383,,,,,,,,,,,,,,,,,,,,,,60fce0303eddb8283807967a,6103660bcd3244672a76e48e,2021-07-29_22h39.02.054,Simcolourproject_2stim_asymm_v5,2020.2.10,Win32,60,61025ae37ef11b136ea224fe,,,,,,,,,1273,107.200013,-46.40000713,1,0,0,response3disk,,5,17.60006053,10.39999372,1,0,0,rectangle,17.60006053,10.39999372,1,0,0,17.60006053,10.39999372,1,0,0,0,46,46,52,1,,,,,,,,
,,,,,,,,,,,,,FF,,,,,,,,2.3829,,,,,,,,,,,,,,,,,,,,,,60fce0303eddb8283807967a,6103660bcd3244672a76e48e,2021-07-29_22h39.02.054,Simcolourproject_2stim_asymm_v5,2020.2.10,Win32,60,61025ae37ef11b136ea224fe,,,,,,,,,3204,-95.19998997,-63.20000738,1,0,0,response5disk,,2,0.800011456,5.599993646,1,0,0,rectangle,0.800011456,5.599993646,1,0,0,0.800011456,5.599993646,1,0,0,0,47,47,31,1,,,,,,,,
,,,,,,,,,,,,,FF,,,,,,,,1.0168,,,,,,,,,,,,,,,,,,,,,,60fce0303eddb8283807967a,6103660bcd3244672a76e48e,2021-07-29_22h39.02.054,Simcolourproject_2stim_asymm_v5,2020.2.10,Win32,60,61025ae37ef11b136ea224fe,,,,,,,,,1293,-59.99998945,23.99999392,1,0,0,response7disk,,1,4.000011504,-6.4373E-06,1,0,0,rectangle,95.20001286,37.59999412,1,0,0,7.200011551,-8.800006568,1,0,0,0,48,48,72,1,,response1disk_3,TRUE,6,6,"[178,307,110,49,192,93,259,307,185,66,270,214,256,56,222,265,214,200,136,105]",3.2165,rectangle
,,,,,,,,,,,,,FF,,,,,,,,3.8327,,,,,,,,,,,,,,,,,,,,,,60fce0303eddb8283807967a,6103660bcd3244672a76e48e,2021-07-29_22h39.02.054,Simcolourproject_2stim_asymm_v5,2020.2.10,Win32,60,61025ae37ef11b136ea224fe,,,,,,,,,2401,124.0000133,37.59999412,1,0,0,response1disk,,6,6.400011539,-12.00000662,1,0,0,rectangle,6.400011539,-12.00000662,1,0,0,6.400011539,-12.00000662,1,0,0,0,49,49,96,1,,,,,,,,
,,,,,,,,,,,,,FF,,,,,,,,1.7169,,,,,,,,,,,,,,,,,,,,,,60fce0303eddb8283807967a,6103660bcd3244672a76e48e,2021-07-29_22h39.02.054,Simcolourproject_2stim_asymm_v5,2020.2.10,Win32,60,61025ae37ef11b136ea224fe,,,,,,,,,1996,66.40001243,90.39999491,1,0,0,response1disk,,7,-1.59998858,-4.000006497,1,0,0,rectangle,-1.59998858,-4.000006497,1,0,0,-1.59998858,-4.000006497,1,0,0,0,50,50,119,1,,,,,,,,
,,,,,,,,,,,,,FF,,,,,,,,1.3003,,,,,,,,,,,,,,,,,,,,,,60fce0303eddb8283807967a,6103660bcd3244672a76e48e,2021-07-29_22h39.02.054,Simcolourproject_2stim_asymm_v5,2020.2.10,Win32,60,61025ae37ef11b136ea224fe,,,,,,,,,2297,-83.99998981,-56.80000728,1,0,0,response5disk,,2,-12.79998875,-7.200006545,1,0,0,rectangle,-12.79998875,-7.200006545,1,0,0,-12.79998875,-7.200006545,1,0,0,0,51,51,121,1,,,,,,,,
,,,,,,,,,,,,,FF,,,,,,,,2.5161,,,,,,,,,,,,,,,,,,,,,,60fce0303eddb8283807967a,6103660bcd3244672a76e48e,2021-07-29_22h39.02.054,Simcolourproject_2stim_asymm_v5,2020.2.10,Win32,60,61025ae37ef11b136ea224fe,,,,,,,,,1621,37.60006083,-100.0000079,1,0,0,response3disk,,4,1.14441E-05,-7.200006545,1,0,0,rectangle,1.14441E-05,-7.200006545,1,0,0,1.14441E-05,-7.200006545,1,0,0,0,52,52,5,1,,,,,,,,
,,,,,,,,,,,,,FF,,,,,,,,1.0166,,,,,,,,,,,,,,,,,,,,,,60fce0303eddb8283807967a,6103660bcd3244672a76e48e,2021-07-29_22h39.02.054,Simcolourproject_2stim_asymm_v5,2020.2.10,Win32,60,61025ae37ef11b136ea224fe,,,,,,,,,2705,45.60006095,61.59999448,1,0,0,response1disk,,7,12.00001162,-7.200006545,1,0,0,rectangle,12.00001162,-7.200006545,1,0,0,12.00001162,-7.200006545,1,0,0,0,53,53,40,1,,,,,,,,
,,,,,,,,,,,,,FF,,,,,,,,2.5163,,,,,,,,,,,,,,,,,,,,,,60fce0303eddb8283807967a,6103660bcd3244672a76e48e,2021-07-29_22h39.02.054,Simcolourproject_2stim_asymm_v5,2020.2.10,Win32,60,61025ae37ef11b136ea224fe,,,,,,,,,3286,-86.39994102,-57.6000073,1,0,0,response5disk,,2,6.400011539,-4.800006509,1,0,0,rectangle,6.400011539,-4.800006509,1,0,0,6.400011539,-4.800006509,1,0,0,0,54,54,87,1,,,,,,,,
,,,,,,,,,,,,,FF,,,,,,,,1.0335,,,,,,,,,,,,,,,,,,,,,,60fce0303eddb8283807967a,6103660bcd3244672a76e48e,2021-07-29_22h39.02.054,Simcolourproject_2stim_asymm_v5,2020.2.10,Win32,60,61025ae37ef11b136ea224fe,,,,,,,,,3866,38.40001202,66.39999455,1,0,0,response1disk,,7,12.00001162,1.599993587,1,0,0,rectangle,-59.19998944,126.3999954,1,0,0,10.4000116,-8.000006557,1,0,0,0,55,55,43,1,,response7disk_3,TRUE,0,0,"[178,307,110,49,192,93,259,307,185,66,270,214,256,56,222,265,214,200,136,105]",2.7996,rectangle
,,,,,,,,,,,,,FF,,,,,,,,1.5829,,,,,,,,,,,,,,,,,,,,,,60fce0303eddb8283807967a,6103660bcd3244672a76e48e,2021-07-29_22h39.02.054,Simcolourproject_2stim_asymm_v5,2020.2.10,Win32,60,61025ae37ef11b136ea224fe,,,,,,,,,2471,93.60001284,-37.600007,1,0,0,response3disk,,5,-1.59998858,-15.20000666,1,0,0,rectangle,-1.59998858,-15.20000666,1,0,0,-1.59998858,-15.20000666,1,0,0,0,56,56,25,1,,,,,,,,
,,,,,,,,,,,,,FF,,,,,,,,1.4846,,,,,,,,,,,,,,,,,,,,,,60fce0303eddb8283807967a,6103660bcd3244672a76e48e,2021-07-29_22h39.02.054,Simcolourproject_2stim_asymm_v5,2020.2.10,Win32,60,61025ae37ef11b136ea224fe,,,,,,,,,541,107.200013,-31.2000069,1,0,0,response3disk,,5,23.20001179,-2.400006473,1,0,0,rectangle,23.20001179,-2.400006473,1,0,0,23.20001179,-2.400006473,1,0,0,0,57,57,89,1,,,,,,,,
,,,,,,,,,,,,,FF,,,,,,,,5.734,,,,,,,,,,,,,,,,,,,,,,60fce0303eddb8283807967a,6103660bcd3244672a76e48e,2021-07-29_22h39.02.054,Simcolourproject_2stim_asymm_v5,2020.2.10,Win32,60,61025ae37ef11b136ea224fe,,,,,,,,,2596,96.00001287,-52.00000721,1,0,0,response3disk,,5,-8.799988687,13.59999377,1,0,0,rectangle,-8.799988687,13.59999377,1,0,0,-8.799988687,13.59999377,1,0,0,0,58,58,59,1,,,,,,,,
,,,,,,,,,,,,,FF,,,,,,,,1.5335,,,,,,,,,,,,,,,,,,,,,,60fce0303eddb8283807967a,6103660bcd3244672a76e48e,2021-07-29_22h39.02.054,Simcolourproject_2stim_asymm_v5,2020.2.10,Win32,60,61025ae37ef11b136ea224fe,,,,,,,,,4006,-36.7999891,-127.2000083,1,0,0,response5disk,,3,-1.59998858,6.399993658,1,0,0,rectangle,-1.59998858,6.399993658,1,0,0,-1.59998858,6.399993658,1,0,0,0,59,59,94,1,,,,,,,,
,,,,,,,,,,,,,FF,,,,,,,,1.9334,,,,,,,,,,,,,,,,,,,,,,60fce0303eddb8283807967a,6103660bcd3244672a76e48e,2021-07-29_22h39.02.054,Simcolourproject_2stim_asymm_v5,2020.2.10,Win32,60,61025ae37ef11b136ea224fe,,,,,,,,,2613,-55.19998938,-100.8000079,1,0,0,response5disk,,3,14.40001166,3.999993622,1,0,0,rectangle,14.40001166,3.999993622,1,0,0,14.40001166,3.999993622,1,0,0,0,60,60,126,1,,,,,,,,
,,,,,,,,,,,,,FF,,,,,,,,1.8,,,,,,,,,,,,,,,,,,,,,,60fce0303eddb8283807967a,6103660bcd3244672a76e48e,2021-07-29_22h39.02.054,Simcolourproject_2stim_asymm_v5,2020.2.10,Win32,60,61025ae37ef11b136ea224fe,,,,,,,,,3597,-93.59998995,-20.00000674,1,0,0,response5disk,,2,24.0000118,4.799993634,1,0,0,rectangle,24.0000118,4.799993634,1,0,0,24.0000118,4.799993634,1,0,0,0,61,61,104,1,,,,,,,,
,,,,,,,,,,,,,FF,,,,,,,,1.6166,,,,,,,,,,,,,,,,,,,,,,60fce0303eddb8283807967a,6103660bcd3244672a76e48e,2021-07-29_22h39.02.054,Simcolourproject_2stim_asymm_v5,2020.2.10,Win32,60,61025ae37ef11b136ea224fe,,,,,,,,,2750,100.8000129,-46.40000713,1,0,0,response3disk,,5,13.60006047,-10.40000659,1,0,0,rectangle,13.60006047,-10.40000659,1,0,0,13.60006047,-10.40000659,1,0,0,0,62,62,158,1,,,,,,,,
,,,,,,,,,,,,,FF,,,,,,,,1.8834,,,,,,,,,,,,,,,,,,,,,,60fce0303eddb8283807967a,6103660bcd3244672a76e48e,2021-07-29_22h39.02.054,Simcolourproject_2stim_asymm_v5,2020.2.10,Win32,60,61025ae37ef11b136ea224fe,,,,,,,,,3975,34.40001196,-121.6000571,1,0,0,response3disk,,4,1.14441E-05,-7.200006545,1,0,0,rectangle,1.14441E-05,-7.200006545,1,0,0,1.14441E-05,-7.200006545,1,0,0,0,63,63,157,1,,,,,,,,
,,,,,,,,,,,,,FF,,,,,,,,2.6334,,,,,,,,,,,,,,,,,,,,,,60fce0303eddb8283807967a,6103660bcd3244672a76e48e,2021-07-29_22h39.02.054,Simcolourproject_2stim_asymm_v5,2020.2.10,Win32,60,61025ae37ef11b136ea224fe,,,,,,,,,2531,-23.1999889,-118.4000082,1,0,0,response5disk,,3,9.600060415,7.999993682,1,0,0,rectangle,9.600060415,7.999993682,1,0,0,9.600060415,7.999993682,1,0,0,0,64,64,16,1,,,,,,,,
,,,,,,,,,,,,,FF,,,,,,,,2.1684,,,,,,,,,,,,,,,,,,,,,,60fce0303eddb8283807967a,6103660bcd3244672a76e48e,2021-07-29_22h39.02.054,Simcolourproject_2stim_asymm_v5,2020.2.10,Win32,60,61025ae37ef11b136ea224fe,,,,,,,,,3642,-38.3999403,-105.6000568,1,0,0,response5disk,,3,10.4000116,16.79999381,1,0,0,rectangle,-41.59998918,-117.600057,1,0,0,4.800011516,-4.800006509,1,0,0,0,65,65,148,1,,response5disk_3,TRUE,3,3,"[178,307,110,49,192,93,259,307,185,66,270,214,256,56,222,265,214,200,136,105]",3.1009,rectangle
,,,,,,,,,,,,,FF,,,,,,,,3.9826,,,,,,,,,,,,,,,,,,,,,,60fce0303eddb8283807967a,6103660bcd3244672a76e48e,2021-07-29_22h39.02.054,Simcolourproject_2stim_asymm_v5,2020.2.10,Win32,60,61025ae37ef11b136ea224fe,,,,,,,,,1271,-35.19998908,-94.40000784,1,0,0,response5disk,,3,1.14441E-05,-5.600006521,1,0,0,rectangle,1.14441E-05,-5.600006521,1,0,0,1.14441E-05,-5.600006521,1,0,0,0,66,66,63,1,,,,,,,,
,,,,,,,,,,,,,FF,,,,,,,,2.2833,,,,,,,,,,,,,,,,,,,,,,60fce0303eddb8283807967a,6103660bcd3244672a76e48e,2021-07-29_22h39.02.054,Simcolourproject_2stim_asymm_v5,2020.2.10,Win32,60,61025ae37ef11b136ea224fe,,,,,,,,,71,-36.7999891,-82.40000767,1,0,0,response5disk,,3,20.00001174,0.799993575,1,0,0,rectangle,20.00001174,0.799993575,1,0,0,20.00001174,0.799993575,1,0,0,0,67,67,120,1,,,,,,,,
,,,,,,,,,,,,,FF,,,,,,,,2.1685,,,,,,,,,,,,,,,,,,,,,,60fce0303eddb8283807967a,6103660bcd3244672a76e48e,2021-07-29_22h39.02.054,Simcolourproject_2stim_asymm_v5,2020.2.10,Win32,60,61025ae37ef11b136ea224fe,,,,,,,,,4070,51.20001221,-95.20000786,1,0,0,response3disk,,4,4.800011516,-6.4373E-06,1,0,0,rectangle,4.800011516,-6.4373E-06,1,0,0,4.800011516,-6.4373E-06,1,0,0,0,68,68,123,1,,,,,,,,
,,,,,,,,,,,,,FF,,,,,,,,2.25,,,,,,,,,,,,,,,,,,,,,,60fce0303eddb8283807967a,6103660bcd3244672a76e48e,2021-07-29_22h39.02.054,Simcolourproject_2stim_asymm_v5,2020.2.10,Win32,60,61025ae37ef11b136ea224fe,,,,,,,,,3760,-52.79998934,-102.400008,1,0,0,response5disk,,3,2.40001148,-16.80000669,1,0,0,rectangle,2.40001148,-16.80000669,1,0,0,2.40001148,-16.80000669,1,0,0,0,69,69,144,1,,,,,,,,
,,,,,,,,,,,,,FF,,,,,,,,3.4502,,,,,,,,,,,,,,,,,,,,,,60fce0303eddb8283807967a,6103660bcd3244672a76e48e,2021-07-29_22h39.02.054,Simcolourproject_2stim_asymm_v5,2020.2.10,Win32,60,61025ae37ef11b136ea224fe,,,,,,,,,3862,119.2000132,-30.40000689,1,0,0,response3disk,,5,3.200011492,-1.600006461,1,0,0,rectangle,3.200011492,-1.600006461,1,0,0,3.200011492,-1.600006461,1,0,0,0,70,70,20,1,,,,,,,,
,,,,,,,,,,,,,FF,,,,,,,,3.4,,,,,,,,,,,,,,,,,,,,,,60fce0303eddb8283807967a,6103660bcd3244672a76e48e,2021-07-29_22h39.02.054,Simcolourproject_2stim_asymm_v5,2020.2.10,Win32,60,61025ae37ef11b136ea224fe,,,,,,,,,2427,-92.79998994,34.39999408,1,0,0,response7disk,,1,11.20001161,-11.2000066,1,0,0,rectangle,11.20001161,-11.2000066,1,0,0,11.20001161,-11.2000066,1,0,0,0,71,71,100,1,,,,,,,,
,,,,,,,,,,,,,FF,,,,,,,,1.4339,,,,,,,,,,,,,,,,,,,,,,60fce0303eddb8283807967a,6103660bcd3244672a76e48e,2021-07-29_22h39.02.054,Simcolourproject_2stim_asymm_v5,2020.2.10,Win32,60,61025ae37ef11b136ea224fe,,,,,,,,,2899,-31.99998903,-113.600057,1,0,0,response5disk,,3,3.200011492,1.599993587,1,0,0,rectangle,3.200011492,1.599993587,1,0,0,3.200011492,1.599993587,1,0,0,0,72,72,32,1,,,,,,,,
,,,,,,,,,,,,,FF,,,,,,,,4.9007,,,,,,,,,,,,,,,,,,,,,,60fce0303eddb8283807967a,6103660bcd3244672a76e48e,2021-07-29_22h39.02.054,Simcolourproject_2stim_asymm_v5,2020.2.10,Win32,60,61025ae37ef11b136ea224fe,,,,,,,,,394,-45.59998924,-105.6000568,1,0,0,response5disk,,3,-3.999988616,-12.80000663,1,0,0,rectangle,-3.999988616,-12.80000663,1,0,0,-3.999988616,-12.80000663,1,0,0,0,73,73,46,1,,,,,,,,
,,,,,,,,,,,,,FF,,,,,,,,2.9668,,,,,,,,,,,,,,,,,,,,,,60fce0303eddb8283807967a,6103660bcd3244672a76e48e,2021-07-29_22h39.02.054,Simcolourproject_2stim_asymm_v5,2020.2.10,Win32,60,61025ae37ef11b136ea224fe,,,,,,,,,2981,34.40001196,-102.400008,1,0,0,response3disk,,4,-0.799988568,-5.600006521,1,0,0,rectangle,-0.799988568,-5.600006521,1,0,0,-0.799988568,-5.600006521,1,0,0,0,74,74,105,1,,,,,,,,
,,,,,,,,,,,,,FF,,,,,,,,2.4335,,,,,,,,,,,,,,,,,,,,,,60fce0303eddb8283807967a,6103660bcd3244672a76e48e,2021-07-29_22h39.02.054,Simcolourproject_2stim_asymm_v5,2020.2.10,Win32,60,61025ae37ef11b136ea224fe,,,,,,,,,3581,49.60006101,-106.400008,1,0,0,response3disk,,4,-14.39993994,1.599993587,1,0,0,rectangle,-14.39993994,1.599993587,1,0,0,-14.39993994,1.599993587,1,0,0,0,75,75,101,1,,,,,,,,
,,,,,,,,,,,,,FF,,,,,,,,1.083,,,,,,,,,,,,,,,,,,,,,,60fce0303eddb8283807967a,6103660bcd3244672a76e48e,2021-07-29_22h39.02.054,Simcolourproject_2stim_asymm_v5,2020.2.10,Win32,60,61025ae37ef11b136ea224fe,,,,,,,,,1400,-51.19998932,-102.400008,1,0,0,response5disk,,3,4.000011504,-4.000006497,1,0,0,rectangle,4.000011504,-4.000006497,1,0,0,4.000011504,-4.000006497,1,0,0,0,76,76,98,1,,,,,,,,
,,,,,,,,,,,,,FF,,,,,,,,1.067,,,,,,,,,,,,,,,,,,,,,,60fce0303eddb8283807967a,6103660bcd3244672a76e48e,2021-07-29_22h39.02.054,Simcolourproject_2stim_asymm_v5,2020.2.10,Win32,60,61025ae37ef11b136ea224fe,,,,,,,,,4034,-38.3999403,-96.80000788,1,0,0,response5disk,,3,8.800011575,-8.000006557,1,0,0,rectangle,8.800011575,-8.000006557,1,0,0,8.800011575,-8.000006557,1,0,0,0,77,77,92,1,,,,,,,,
,,,,,,,,,,,,,FF,,,,,,,,2.0503,,,,,,,,,,,,,,,,,,,,,,60fce0303eddb8283807967a,6103660bcd3244672a76e48e,2021-07-29_22h39.02.054,Simcolourproject_2stim_asymm_v5,2020.2.10,Win32,60,61025ae37ef11b136ea224fe,,,,,,,,,1423,44.0000121,-92.00000781,1,0,0,response3disk,,4,-6.399939823,-3.200006485,1,0,0,rectangle,-6.399939823,-3.200006485,1,0,0,-6.399939823,-3.200006485,1,0,0,0,78,78,48,1,,,,,,,,
,,,,,,,,,,,,,FF,,,,,,,,2.2497,,,,,,,,,,,,,,,,,,,,,,60fce0303eddb8283807967a,6103660bcd3244672a76e48e,2021-07-29_22h39.02.054,Simcolourproject_2stim_asymm_v5,2020.2.10,Win32,60,61025ae37ef11b136ea224fe,,,,,,,,,2128,89.60001278,47.99999428,1,0,0,response1disk,,6,14.40001166,-2.400006473,1,0,0,rectangle,14.40001166,-2.400006473,1,0,0,14.40001166,-2.400006473,1,0,0,0,79,79,113,1,,,,,,,,
,,,,,,,,,,,,,FF,,,,,,,,1.285,,,,,,,,,,,,,,,,,,,,,,60fce0303eddb8283807967a,6103660bcd3244672a76e48e,2021-07-29_22h39.02.054,Simcolourproject_2stim_asymm_v5,2020.2.10,Win32,60,61025ae37ef11b136ea224fe,,,,,,,,,3543,56.80001229,68.79999459,1,0,0,response1disk,,7,6.400011539,-7.200006545,1,0,0,rectangle,6.400011539,-7.200006545,1,0,0,6.400011539,-7.200006545,1,0,0,0,80,80,155,1,,,,,,,,
,,,,,,,,,,,,,FF,,,,,,,,1.8164,,,,,,,,,,,,,,,,,,,,,,60fce0303eddb8283807967a,6103660bcd3244672a76e48e,2021-07-29_22h39.02.054,Simcolourproject_2stim_asymm_v5,2020.2.10,Win32,60,61025ae37ef11b136ea224fe,,,,,,,,,3272,104.800013,-52.00000721,1,0,0,response3disk,,5,7.200011551,-9.60000658,1,0,0,rectangle,7.200011551,-9.60000658,1,0,0,7.200011551,-9.60000658,1,0,0,0,81,81,115,1,,,,,,,,
,,,,,,,,,,,,,FF,,,,,,,,1.9668,,,,,,,,,,,,,,,,,,,,,,60fce0303eddb8283807967a,6103660bcd3244672a76e48e,2021-07-29_22h39.02.054,Simcolourproject_2stim_asymm_v5,2020.2.10,Win32,60,61025ae37ef11b136ea224fe,,,,,,,,,992,-54.39994054,-115.2000082,1,0,0,response5disk,,3,0.800011456,-0.800006449,1,0,0,rectangle,0.800011456,-0.800006449,1,0,0,0.800011456,-0.800006449,1,0,0,0,82,82,22,1,,,,,,,,
,,,,,,,,,,,,,FF,,,,,,,,4.7497,,,,,,,,,,,,,,,,,,,,,,60fce0303eddb8283807967a,6103660bcd3244672a76e48e,2021-07-29_22h39.02.054,Simcolourproject_2stim_asymm_v5,2020.2.10,Win32,60,61025ae37ef11b136ea224fe,,,,,,,,,4245,113.6000131,-45.60000712,1,0,0,response3disk,,5,-7.999988675,-3.200006485,1,0,0,rectangle,-7.999988675,-3.200006485,1,0,0,-7.999988675,-3.200006485,1,0,0,0,83,83,111,1,,,,,,,,
,,,,,,,,,,,,,FF,,,,,,,,3.2328,,,,,,,,,,,,,,,,,,,,,,60fce0303eddb8283807967a,6103660bcd3244672a76e48e,2021-07-29_22h39.02.054,Simcolourproject_2stim_asymm_v5,2020.2.10,Win32,60,61025ae37ef11b136ea224fe,,,,,,,,,2343,113.6000131,-45.60000712,1,0,0,response3disk,,5,3.200011492,-4.000006497,1,0,0,rectangle,3.200011492,-4.000006497,1,0,0,3.200011492,-4.000006497,1,0,0,0,84,84,91,1,,,,,,,,
,,,,,,,,,,,,,FF,,,,,,,,1.8671,,,,,,,,,,,,,,,,,,,,,,60fce0303eddb8283807967a,6103660bcd3244672a76e48e,2021-07-29_22h39.02.054,Simcolourproject_2stim_asymm_v5,2020.2.10,Win32,60,61025ae37ef11b136ea224fe,,,,,,,,,1687,-102.3999413,-57.6000073,1,0,0,response5disk,,2,12.00001162,-10.40000659,1,0,0,rectangle,12.00001162,-10.40000659,1,0,0,12.00001162,-10.40000659,1,0,0,0,85,85,11,1,,,,,,,,
,,,,,,,,,,,,,FF,,,,,,,,3.0335,,,,,,,,,,,,,,,,,,,,,,60fce0303eddb8283807967a,6103660bcd3244672a76e48e,2021-07-29_22h39.02.054,Simcolourproject_2stim_asymm_v5,2020.2.10,Win32,60,61025ae37ef11b136ea224fe,,,,,,,,,538,116.0000132,-36.00000697,1,0,0,response3disk,,5,-2.399939764,7.19999367,1,0,0,rectangle,-2.399939764,7.19999367,1,0,0,-2.399939764,7.19999367,1,0,0,0,86,86,86,1,,,,,,,,
,,,,,,,,,,,,,FF,,,,,,,,2.8004,,,,,,,,,,,,,,,,,,,,,,60fce0303eddb8283807967a,6103660bcd3244672a76e48e,2021-07-29_22h39.02.054,Simcolourproject_2stim_asymm_v5,2020.2.10,Win32,60,61025ae37ef11b136ea224fe,,,,,,,,,3403,-27.99998897,-90.40000778,1,0,0,response5disk,,3,-4.799988627,-6.400006533,1,0,0,rectangle,-4.799988627,-6.400006533,1,0,0,-4.799988627,-6.400006533,1,0,0,0,87,87,1,1,,,,,,,,
,,,,,,,,,,,,,FF,,,,,,,,2.3166,,,,,,,,,,,,,,,,,,,,,,60fce0303eddb8283807967a,6103660bcd3244672a76e48e,2021-07-29_22h39.02.054,Simcolourproject_2stim_asymm_v5,2020.2.10,Win32,60,61025ae37ef11b136ea224fe,,,,,,,,,33,91.2000128,31.99999404,1,0,0,response1disk,,6,-3.199988604,6.399993658,1,0,0,rectangle,-3.199988604,6.399993658,1,0,0,-3.199988604,6.399993658,1,0,0,0,88,88,106,1,,,,,,,,
,,,,,,,,,,,,,FF,,,,,,,,1.6494,,,,,,,,,,,,,,,,,,,,,,60fce0303eddb8283807967a,6103660bcd3244672a76e48e,2021-07-29_22h39.02.054,Simcolourproject_2stim_asymm_v5,2020.2.10,Win32,60,61025ae37ef11b136ea224fe,,,,,,,,,569,-41.59998918,-86.40000772,1,0,0,response5disk,,3,5.600060356,-6.400006533,1,0,0,rectangle,5.600060356,-6.400006533,1,0,0,5.600060356,-6.400006533,1,0,0,0,89,89,71,1,,,,,,,,
,,,,,,,,,,,,,FF,,,,,,,,1.5499,,,,,,,,,,,,,,,,,,,,,,60fce0303eddb8283807967a,6103660bcd3244672a76e48e,2021-07-29_22h39.02.054,Simcolourproject_2stim_asymm_v5,2020.2.10,Win32,60,61025ae37ef11b136ea224fe,,,,,,,,,2668,-61.59998947,-35.20000696,1,0,0,response5disk,,2,-7.199988663,-12.80000663,1,0,0,rectangle,-7.199988663,-12.80000663,1,0,0,-7.199988663,-12.80000663,1,0,0,0,90,90,154,1,,,,,,,,
,,,,,,,,,,,,,FF,,,,,,,,1.6832,,,,,,,,,,,,,,,,,,,,,,60fce0303eddb8283807967a,6103660bcd3244672a76e48e,2021-07-29_22h39.02.054,Simcolourproject_2stim_asymm_v5,2020.2.10,Win32,60,61025ae37ef11b136ea224fe,,,,,,,,,69,109.6000131,24.79999393,1,0,0,response1disk,,6,-6.399939823,-12.00000662,1,0,0,rectangle,-6.399939823,-12.00000662,1,0,0,-6.399939823,-12.00000662,1,0,0,0,91,91,45,1,,,,,,,,
,,,,,,,,,,,,,FF,,,,,,,,1.0507,,,,,,,,,,,,,,,,,,,,,,60fce0303eddb8283807967a,6103660bcd3244672a76e48e,2021-07-29_22h39.02.054,Simcolourproject_2stim_asymm_v5,2020.2.10,Win32,60,61025ae37ef11b136ea224fe,,,,,,,,,3459,56.00001228,87.99999487,1,0,0,response1disk,,7,9.600060415,-0.800006449,1,0,0,rectangle,94.40001285,47.99999428,1,0,0,4.000011504,3.999993622,1,0,0,0,92,92,141,1,,response1disk_3,TRUE,6,6,"[178,307,110,49,192,93,259,307,185,66,270,214,256,56,222,265,214,200,136,105]",3.0323,rectangle
,,,,,,,,,,,,,FF,,,,,,,,2.2995,,,,,,,,,,,,,,,,,,,,,,60fce0303eddb8283807967a,6103660bcd3244672a76e48e,2021-07-29_22h39.02.054,Simcolourproject_2stim_asymm_v5,2020.2.10,Win32,60,61025ae37ef11b136ea224fe,,,,,,,,,2893,-119.1999903,38.39999413,1,0,0,response7disk,,1,3.200011492,5.599993646,1,0,0,rectangle,3.200011492,5.599993646,1,0,0,3.200011492,5.599993646,1,0,0,0,93,93,70,1,,,,,,,,
,,,,,,,,,,,,,FF,,,,,,,,1.4324,,,,,,,,,,,,,,,,,,,,,,60fce0303eddb8283807967a,6103660bcd3244672a76e48e,2021-07-29_22h39.02.054,Simcolourproject_2stim_asymm_v5,2020.2.10,Win32,60,61025ae37ef11b136ea224fe,,,,,,,,,1260,-79.19998974,-61.60000736,1,0,0,response5disk,,2,4.000011504,-7.200006545,1,0,0,rectangle,4.000011504,-7.200006545,1,0,0,4.000011504,-7.200006545,1,0,0,0,94,94,7,1,,,,,,,,
,,,,,,,,,,,,,FF,,,,,,,,2.116,,,,,,,,,,,,,,,,,,,,,,60fce0303eddb8283807967a,6103660bcd3244672a76e48e,2021-07-29_22h39.02.054,Simcolourproject_2stim_asymm_v5,2020.2.10,Win32,60,61025ae37ef11b136ea224fe,,,,,,,,,3456,90.40001279,-45.60000712,1,0,0,response3disk,,5,-1.59998858,-4.800006509,1,0,0,rectangle,-1.59998858,-4.800006509,1,0,0,-1.59998858,-4.800006509,1,0,0,0,95,95,149,1,,,,,,,,
,,,,,,,,,,,,,FF,,,,,,,,1.5336,,,,,,,,,,,,,,,,,,,,,,60fce0303eddb8283807967a,6103660bcd3244672a76e48e,2021-07-29_22h39.02.054,Simcolourproject_2stim_asymm_v5,2020.2.10,Win32,60,61025ae37ef11b136ea224fe,,,,,,,,,4229,92.80001283,36.79999411,1,0,0,response1disk,,6,4.800011516,-16.00000668,1,0,0,rectangle,4.800011516,-16.00000668,1,0,0,4.800011516,-16.00000668,1,0,0,0,96,96,156,1,,,,,,,,
,,,,,,,,,,,,,FF,,,,,,,,1.5667,,,,,,,,,,,,,,,,,,,,,,60fce0303eddb8283807967a,6103660bcd3244672a76e48e,2021-07-29_22h39.02.054,Simcolourproject_2stim_asymm_v5,2020.2.10,Win32,60,61025ae37ef11b136ea224fe,,,,,,,,,3832,97.6000129,-35.20000696,1,0,0,response3disk,,5,5.600060356,-0.800006449,1,0,0,rectangle,5.600060356,-0.800006449,1,0,0,5.600060356,-0.800006449,1,0,0,0,97,97,88,1,,,,,,,,
,,,,,,,,,,,,,FF,,,,,,,,1.5499,,,,,,,,,,,,,,,,,,,,,,60fce0303eddb8283807967a,6103660bcd3244672a76e48e,2021-07-29_22h39.02.054,Simcolourproject_2stim_asymm_v5,2020.2.10,Win32,60,61025ae37ef11b136ea224fe,,,,,,,,,1042,-33.59998906,-89.6000566,1,0,0,response5disk,,3,14.40001166,-8.800006568,1,0,0,rectangle,14.40001166,-8.800006568,1,0,0,14.40001166,-8.800006568,1,0,0,0,98,98,140,1,,,,,,,,
,,,,,,,,,,,,,FF,,,,,,,,2.95,,,,,,,,,,,,,,,,,,,,,,60fce0303eddb8283807967a,6103660bcd3244672a76e48e,2021-07-29_22h39.02.054,Simcolourproject_2stim_asymm_v5,2020.2.10,Win32,60,61025ae37ef11b136ea224fe,,,,,,,,,218,84.80001271,-44.8000071,1,0,0,response3disk,,5,12.00001162,-8.800006568,1,0,0,rectangle,12.00001162,-8.800006568,1,0,0,12.00001162,-8.800006568,1,0,0,0,99,99,112,1,,,,,,,,
,,,,,,,,,,,,,FF,,,,,,,,2.0501,,,,,,,,,,,,,,,,,,,,,,60fce0303eddb8283807967a,6103660bcd3244672a76e48e,2021-07-29_22h39.02.054,Simcolourproject_2stim_asymm_v5,2020.2.10,Win32,60,61025ae37ef11b136ea224fe,,,,,,,,,655,38.40001202,-114.4000081,1,0,0,response3disk,,4,16.00001168,1.599993587,1,0,0,rectangle,16.00001168,1.599993587,1,0,0,16.00001168,1.599993587,1,0,0,0,100,100,19,1,,,,,,,,
,,,,,,,,,,,,,FF,,,,,,,,2.8342,,,,,,,,,,,,,,,,,,,,,,60fce0303eddb8283807967a,6103660bcd3244672a76e48e,2021-07-29_22h39.02.054,Simcolourproject_2stim_asymm_v5,2020.2.10,Win32,60,61025ae37ef11b136ea224fe,,,,,,,,,564,-89.59998989,-59.20000732,1,0,0,response5disk,,2,6.400011539,-5.600006521,1,0,0,rectangle,6.400011539,-5.600006521,1,0,0,6.400011539,-5.600006521,1,0,0,0,101,101,129,1,,,,,,,,
,,,,,,,,,,,,,FF,,,,,,,,1.5333,,,,,,,,,,,,,,,,,,,,,,60fce0303eddb8283807967a,6103660bcd3244672a76e48e,2021-07-29_22h39.02.054,Simcolourproject_2stim_asymm_v5,2020.2.10,Win32,60,61025ae37ef11b136ea224fe,,,,,,,,,4014,83.20001268,31.19996961,1,0,0,response1disk,,6,16.00001168,-10.40000659,1,0,0,rectangle,16.00001168,-10.40000659,1,0,0,16.00001168,-10.40000659,1,0,0,0,102,102,21,1,,,,,,,,
,,,,,,,,,,,,,FF,,,,,,,,1.5002,,,,,,,,,,,,,,,,,,,,,,60fce0303eddb8283807967a,6103660bcd3244672a76e48e,2021-07-29_22h39.02.054,Simcolourproject_2stim_asymm_v5,2020.2.10,Win32,60,61025ae37ef11b136ea224fe,,,,,,,,,333,94.40001285,33.59999406,1,0,0,response1disk,,6,-11.19998872,-16.00000668,1,0,0,rectangle,-11.19998872,-16.00000668,1,0,0,-11.19998872,-16.00000668,1,0,0,0,103,103,95,1,,,,,,,,
,,,,,,,,,,,,,FF,,,,,,,,1.3838,,,,,,,,,,,,,,,,,,,,,,60fce0303eddb8283807967a,6103660bcd3244672a76e48e,2021-07-29_22h39.02.054,Simcolourproject_2stim_asymm_v5,2020.2.10,Win32,60,61025ae37ef11b136ea224fe,,,,,,,,,1753,-79.19998974,-33.60000694,1,0,0,response5disk,,2,8.800011575,-6.400006533,1,0,0,rectangle,50.4000122,-120.0000082,1,0,0,4.000011504,-4.800006509,1,0,0,0,104,104,159,1,,response3disk_3,TRUE,4,4,"[178,307,110,49,192,93,259,307,185,66,270,214,256,56,222,265,214,200,136,105]",2.3161,rectangle
,,,,,,,,,,,,,FF,,,,,,,,1.7672,,,,,,,,,,,,,,,,,,,,,,60fce0303eddb8283807967a,6103660bcd3244672a76e48e,2021-07-29_22h39.02.054,Simcolourproject_2stim_asymm_v5,2020.2.10,Win32,60,61025ae37ef11b136ea224fe,,,,,,,,,953,60.80001235,-96.80000788,1,0,0,response3disk,,4,0.800011456,-14.40000665,1,0,0,rectangle,0.800011456,-14.40000665,1,0,0,0.800011456,-14.40000665,1,0,0,0,105,105,102,1,,,,,,,,
,,,,,,,,,,,,,FF,,,,,,,,4.566,,,,,,,,,,,,,,,,,,,,,,60fce0303eddb8283807967a,6103660bcd3244672a76e48e,2021-07-29_22h39.02.054,Simcolourproject_2stim_asymm_v5,2020.2.10,Win32,60,61025ae37ef11b136ea224fe,,,,,,,,,1083,82.40001267,-44.00000709,1,0,0,response3disk,,5,1.14441E-05,-2.400006473,1,0,0,rectangle,1.14441E-05,-2.400006473,1,0,0,1.14441E-05,-2.400006473,1,0,0,0,106,106,133,1,,,,,,,,
,,,,,,,,,,,,,FF,,,,,,,,5.1829,,,,,,,,,,,,,,,,,,,,,,60fce0303eddb8283807967a,6103660bcd3244672a76e48e,2021-07-29_22h39.02.054,Simcolourproject_2stim_asymm_v5,2020.2.10,Win32,60,61025ae37ef11b136ea224fe,,,,,,,,,3739,25.60006065,-91.2000078,1,0,0,response3disk,,4,2.40001148,-5.600006521,1,0,0,rectangle,2.40001148,-5.600006521,1,0,0,2.40001148,-5.600006521,1,0,0,0,107,107,135,1,,,,,,,,
,,,,,,,,,,,,,FF,,,,,,,,2.95,,,,,,,,,,,,,,,,,,,,,,60fce0303eddb8283807967a,6103660bcd3244672a76e48e,2021-07-29_22h39.02.054,Simcolourproject_2stim_asymm_v5,2020.2.10,Win32,60,61025ae37ef11b136ea224fe,,,,,,,,,3563,-55.99998939,-85.60005654,1,0,0,response5disk,,3,15.20001167,0.799993575,1,0,0,rectangle,15.20001167,0.799993575,1,0,0,15.20001167,0.799993575,1,0,0,0,108,108,64,1,,,,,,,,
,,,,,,,,,,,,,FF,,,,,,,,1.3498,,,,,,,,,,,,,,,,,,,,,,60fce0303eddb8283807967a,6103660bcd3244672a76e48e,2021-07-29_22h39.02.054,Simcolourproject_2stim_asymm_v5,2020.2.10,Win32,60,61025ae37ef11b136ea224fe,,,,,,,,,4181,-36.7999891,118.3999953,1,0,0,response7disk,,0,12.00001162,-3.200006485,1,0,0,rectangle,87.20001274,-41.60000706,1,0,0,4.000011504,-8.000006557,1,0,0,0,109,109,39,1,,response3disk_3,TRUE,5,5,"[178,307,110,49,192,93,259,307,185,66,270,214,256,56,222,265,214,200,136,105]",1.9679,rectangle
,,,,,,,,,,,,,FF,,,,,,,,1.9499,,,,,,,,,,,,,,,,,,,,,,60fce0303eddb8283807967a,6103660bcd3244672a76e48e,2021-07-29_22h39.02.054,Simcolourproject_2stim_asymm_v5,2020.2.10,Win32,60,61025ae37ef11b136ea224fe,,,,,,,,,2970,95.20001286,34.39999408,1,0,0,response1disk,,6,11.20001161,-10.40000659,1,0,0,rectangle,11.20001161,-10.40000659,1,0,0,11.20001161,-10.40000659,1,0,0,0,110,110,37,1,,,,,,,,
,,,,,,,,,,,,,FF,,,,,,,,1.2832,,,,,,,,,,,,,,,,,,,,,,60fce0303eddb8283807967a,6103660bcd3244672a76e48e,2021-07-29_22h39.02.054,Simcolourproject_2stim_asymm_v5,2020.2.10,Win32,60,61025ae37ef11b136ea224fe,,,,,,,,,89,97.6000129,-60.00000733,1,0,0,response3disk,,5,-0.799988568,11.99999374,1,0,0,rectangle,-0.799988568,11.99999374,1,0,0,-0.799988568,11.99999374,1,0,0,0,111,111,2,1,,,,,,,,
,,,,,,,,,,,,,FF,,,,,,,,2.183,,,,,,,,,,,,,,,,,,,,,,60fce0303eddb8283807967a,6103660bcd3244672a76e48e,2021-07-29_22h39.02.054,Simcolourproject_2stim_asymm_v5,2020.2.10,Win32,60,61025ae37ef11b136ea224fe,,,,,,,,,3911,48.80001217,-116.8000082,1,0,0,response3disk,,4,-5.599988639,-10.40000659,1,0,0,rectangle,-5.599988639,-10.40000659,1,0,0,-5.599988639,-10.40000659,1,0,0,0,112,112,93,1,,,,,,,,
,,,,,,,,,,,,,FF,,,,,,,,2.6503,,,,,,,,,,,,,,,,,,,,,,60fce0303eddb8283807967a,6103660bcd3244672a76e48e,2021-07-29_22h39.02.054,Simcolourproject_2stim_asymm_v5,2020.2.10,Win32,60,61025ae37ef11b136ea224fe,,,,,,,,,249,103.200013,27.99999398,1,0,0,response1disk,,6,-14.39993994,-11.2000066,1,0,0,rectangle,-14.39993994,-11.2000066,1,0,0,-14.39993994,-11.2000066,1,0,0,0,113,113,131,1,,,,,,,,
,,,,,,,,,,,,,FF,,,,,,,,2.0831,,,,,,,,,,,,,,,,,,,,,,60fce0303eddb8283807967a,6103660bcd3244672a76e48e,2021-07-29_22h39.02.054,Simcolourproject_2stim_asymm_v5,2020.2.10,Win32,60,61025ae37ef11b136ea224fe,,,,,,,,,1428,39.20001203,-108.8000081,1,0,0,response3disk,,4,-3.999988616,-8.000006557,1,0,0,rectangle,-3.999988616,-8.000006557,1,0,0,-3.999988616,-8.000006557,1,0,0,0,114,114,4,1,,,,,,,,
,,,,,,,,,,,,,FF,,,,,,,,1.5334,,,,,,,,,,,,,,,,,,,,,,60fce0303eddb8283807967a,6103660bcd3244672a76e48e,2021-07-29_22h39.02.054,Simcolourproject_2stim_asymm_v5,2020.2.10,Win32,60,61025ae37ef11b136ea224fe,,,,,,,,,3846,-41.59998918,-88.80000776,1,0,0,response5disk,,3,13.60006047,-3.200006485,1,0,0,rectangle,13.60006047,-3.200006485,1,0,0,13.60006047,-3.200006485,1,0,0,0,115,115,55,1,,,,,,,,
,,,,,,,,,,,,,FF,,,,,,,,2.5177,,,,,,,,,,,,,,,,,,,,,,60fce0303eddb8283807967a,6103660bcd3244672a76e48e,2021-07-29_22h39.02.054,Simcolourproject_2stim_asymm_v5,2020.2.10,Win32,60,61025ae37ef11b136ea224fe,,,,,,,,,1431,-34.39994024,-88.80000776,1,0,0,response5disk,,3,8.000011563,8.799993694,1,0,0,rectangle,8.000011563,8.799993694,1,0,0,8.000011563,8.799993694,1,0,0,0,116,116,33,1,,,,,,,,
,,,,,,,,,,,,,FF,,,,,,,,2.6522,,,,,,,,,,,,,,,,,,,,,,60fce0303eddb8283807967a,6103660bcd3244672a76e48e,2021-07-29_22h39.02.054,Simcolourproject_2stim_asymm_v5,2020.2.10,Win32,60,61025ae37ef11b136ea224fe,,,,,,,,,3491,76.00001258,-100.8000079,1,0,0,response3disk,,4,26.40001184,-6.4373E-06,1,0,0,rectangle,26.40001184,-6.4373E-06,1,0,0,26.40001184,-6.4373E-06,1,0,0,0,117,117,81,1,,,,,,,,
,,,,,,,,,,,,,FF,,,,,,,,0.9662,,,,,,,,,,,,,,,,,,,,,,60fce0303eddb8283807967a,6103660bcd3244672a76e48e,2021-07-29_22h39.02.054,Simcolourproject_2stim_asymm_v5,2020.2.10,Win32,60,61025ae37ef11b136ea224fe,,,,,,,,,3956,40.80001205,67.99999458,1,0,0,response1disk,,7,7.200011551,-0.800006449,1,0,0,rectangle,7.200011551,-0.800006449,1,0,0,7.200011551,-0.800006449,1,0,0,0,118,118,62,1,,,,,,,,
,,,,,,,,,,,,,FF,,,,,,,,2.083,,,,,,,,,,,,,,,,,,,,,,60fce0303eddb8283807967a,6103660bcd3244672a76e48e,2021-07-29_22h39.02.054,Simcolourproject_2stim_asymm_v5,2020.2.10,Win32,60,61025ae37ef11b136ea224fe,,,,,,,,,2554,-47.19998926,-91.2000078,1,0,0,response5disk,,3,12.00001162,7.999993682,1,0,0,rectangle,12.00001162,7.999993682,1,0,0,12.00001162,7.999993682,1,0,0,0,119,119,90,1,,,,,,,,
,,,,,,,,,,,,,FF,,,,,,,,2.7333,,,,,,,,,,,,,,,,,,,,,,60fce0303eddb8283807967a,6103660bcd3244672a76e48e,2021-07-29_22h39.02.054,Simcolourproject_2stim_asymm_v5,2020.2.10,Win32,60,61025ae37ef11b136ea224fe,,,,,,,,,238,104.800013,-79.20000762,1,0,0,response3disk,,5,-2.399939764,-14.40000665,1,0,0,rectangle,-2.399939764,-14.40000665,1,0,0,-2.399939764,-14.40000665,1,0,0,0,120,120,41,1,,,,,,,,
,,,,,,,,,,,,,FF,,,,,,,,1.5674,,,,,,,,,,,,,,,,,,,,,,60fce0303eddb8283807967a,6103660bcd3244672a76e48e,2021-07-29_22h39.02.054,Simcolourproject_2stim_asymm_v5,2020.2.10,Win32,60,61025ae37ef11b136ea224fe,,,,,,,,,649,41.60006089,-104.800008,1,0,0,response3disk,,4,-6.399939823,0.799993575,1,0,0,rectangle,-6.399939823,0.799993575,1,0,0,-6.399939823,0.799993575,1,0,0,0,121,121,116,1,,,,,,,,
,,,,,,,,,,,,,FF,,,,,,,,1.2508,,,,,,,,,,,,,,,,,,,,,,60fce0303eddb8283807967a,6103660bcd3244672a76e48e,2021-07-29_22h39.02.054,Simcolourproject_2stim_asymm_v5,2020.2.10,Win32,60,61025ae37ef11b136ea224fe,,,,,,,,,1366,-47.99998927,-85.60005654,1,0,0,response5disk,,3,3.200011492,-6.4373E-06,1,0,0,rectangle,3.200011492,-6.4373E-06,1,0,0,3.200011492,-6.4373E-06,1,0,0,0,122,122,53,1,,,,,,,,
,,,,,,,,,,,,,FF,,,,,,,,1.3833,,,,,,,,,,,,,,,,,,,,,,60fce0303eddb8283807967a,6103660bcd3244672a76e48e,2021-07-29_22h39.02.054,Simcolourproject_2stim_asymm_v5,2020.2.10,Win32,60,61025ae37ef11b136ea224fe,,,,,,,,,2364,-75.99998969,-35.20000696,1,0,0,response5disk,,2,-15.99998879,-11.2000066,1,0,0,rectangle,-15.99998879,-11.2000066,1,0,0,-15.99998879,-11.2000066,1,0,0,0,123,123,84,1,,,,,,,,
,,,,,,,,,,,,,FF,,,,,,,,2.9166,,,,,,,,,,,,,,,,,,,,,,60fce0303eddb8283807967a,6103660bcd3244672a76e48e,2021-07-29_22h39.02.054,Simcolourproject_2stim_asymm_v5,2020.2.10,Win32,60,61025ae37ef11b136ea224fe,,,,,,,,,1854,79.20001262,-35.20000696,1,0,0,response3disk,,5,18.40001172,11.19999373,1,0,0,rectangle,18.40001172,11.19999373,1,0,0,18.40001172,11.19999373,1,0,0,0,124,124,117,1,,,,,,,,
,,,,,,,,,,,,,FF,,,,,,,,1.2666,,,,,,,,,,,,,,,,,,,,,,60fce0303eddb8283807967a,6103660bcd3244672a76e48e,2021-07-29_22h39.02.054,Simcolourproject_2stim_asymm_v5,2020.2.10,Win32,60,61025ae37ef11b136ea224fe,,,,,,,,,4031,44.0000121,-84.8000077,1,0,0,response3disk,,4,-10.39993988,0.799993575,1,0,0,rectangle,-10.39993988,0.799993575,1,0,0,-10.39993988,0.799993575,1,0,0,0,125,125,134,1,,,,,,,,
,,,,,,,,,,,,,FF,,,,,,,,1.6993,,,,,,,,,,,,,,,,,,,,,,60fce0303eddb8283807967a,6103660bcd3244672a76e48e,2021-07-29_22h39.02.054,Simcolourproject_2stim_asymm_v5,2020.2.10,Win32,60,61025ae37ef11b136ea224fe,,,,,,,,,3424,-89.59998989,-59.20000732,1,0,0,response5disk,,2,-7.199988663,-3.200006485,1,0,0,rectangle,-7.199988663,-3.200006485,1,0,0,-7.199988663,-3.200006485,1,0,0,0,126,126,36,1,,,,,,,,
,,,,,,,,,,,,,FF,,,,,,,,1.8834,,,,,,,,,,,,,,,,,,,,,,60fce0303eddb8283807967a,6103660bcd3244672a76e48e,2021-07-29_22h39.02.054,Simcolourproject_2stim_asymm_v5,2020.2.10,Win32,60,61025ae37ef11b136ea224fe,,,,,,,,,1276,-32.79998904,-93.60005666,1,0,0,response5disk,,3,8.800011575,-4.800006509,1,0,0,rectangle,8.800011575,-4.800006509,1,0,0,8.800011575,-4.800006509,1,0,0,0,127,127,18,1,,,,,,,,
,,,,,,,,,,,,,FF,,,,,,,,1.1997,,,,,,,,,,,,,,,,,,,,,,60fce0303eddb8283807967a,6103660bcd3244672a76e48e,2021-07-29_22h39.02.054,Simcolourproject_2stim_asymm_v5,2020.2.10,Win32,60,61025ae37ef11b136ea224fe,,,,,,,,,4103,-84.79998982,38.39999413,1,0,0,response7disk,,1,-1.59998858,-6.400006533,1,0,0,rectangle,-1.59998858,-6.400006533,1,0,0,-1.59998858,-6.400006533,1,0,0,0,128,128,137,1,,,,,,,,
,,,,,,,,,,,,,FF,,,,,,,,1.6504,,,,,,,,,,,,,,,,,,,,,,60fce0303eddb8283807967a,6103660bcd3244672a76e48e,2021-07-29_22h39.02.054,Simcolourproject_2stim_asymm_v5,2020.2.10,Win32,60,61025ae37ef11b136ea224fe,,,,,,,,,1188,57.6000123,-92.80000782,1,0,0,response3disk,,4,-13.59998876,-6.4373E-06,1,0,0,rectangle,-13.59998876,-6.4373E-06,1,0,0,-13.59998876,-6.4373E-06,1,0,0,0,129,129,61,1,,,,,,,,
,,,,,,,,,,,,,FF,,,,,,,,2.3163,,,,,,,,,,,,,,,,,,,,,,60fce0303eddb8283807967a,6103660bcd3244672a76e48e,2021-07-29_22h39.02.054,Simcolourproject_2stim_asymm_v5,2020.2.10,Win32,60,61025ae37ef11b136ea224fe,,,,,,,,,1355,99.20001292,55.9999944,1,0,0,response1disk,,6,8.800011575,0.799993575,1,0,0,rectangle,8.800011575,0.799993575,1,0,0,8.800011575,0.799993575,1,0,0,0,130,130,80,1,,,,,,,,
,,,,,,,,,,,,,FF,,,,,,,,1.6174,,,,,,,,,,,,,,,,,,,,,,60fce0303eddb8283807967a,6103660bcd3244672a76e48e,2021-07-29_22h39.02.054,Simcolourproject_2stim_asymm_v5,2020.2.10,Win32,60,61025ae37ef11b136ea224fe,,,,,,,,,4159,-90.39994107,-68.80000746,1,0,0,response5disk,,2,-2.399939764,-8.800006568,1,0,0,rectangle,-2.399939764,-8.800006568,1,0,0,-2.399939764,-8.800006568,1,0,0,0,131,131,47,1,,,,,,,,
,,,,,,,,,,,,,FF,,,,,,,,3.3497,,,,,,,,,,,,,,,,,,,,,,60fce0303eddb8283807967a,6103660bcd3244672a76e48e,2021-07-29_22h39.02.054,Simcolourproject_2stim_asymm_v5,2020.2.10,Win32,60,61025ae37ef11b136ea224fe,,,,,,,,,1268,104.800013,-50.40000719,1,0,0,response3disk,,5,3.200011492,-5.600006521,1,0,0,rectangle,3.200011492,-5.600006521,1,0,0,3.200011492,-5.600006521,1,0,0,0,132,132,49,1,,,,,,,,
,,,,,,,,,,,,,FF,,,,,,,,1.5001,,,,,,,,,,,,,,,,,,,,,,60fce0303eddb8283807967a,6103660bcd3244672a76e48e,2021-07-29_22h39.02.054,Simcolourproject_2stim_asymm_v5,2020.2.10,Win32,60,61025ae37ef11b136ea224fe,,,,,,,,,1302,-33.59998906,-117.600057,1,0,0,response5disk,,3,-15.19998878,-0.800006449,1,0,0,rectangle,-15.19998878,-0.800006449,1,0,0,-15.19998878,-0.800006449,1,0,0,0,133,133,78,1,,,,,,,,
,,,,,,,,,,,,,FF,,,,,,,,1.2665,,,,,,,,,,,,,,,,,,,,,,60fce0303eddb8283807967a,6103660bcd3244672a76e48e,2021-07-29_22h39.02.054,Simcolourproject_2stim_asymm_v5,2020.2.10,Win32,60,61025ae37ef11b136ea224fe,,,,,,,,,2190,80.00001264,50.39999431,1,0,0,response1disk,,6,-14.39993994,-4.000006497,1,0,0,rectangle,-14.39993994,-4.000006497,1,0,0,-14.39993994,-4.000006497,1,0,0,0,134,134,143,1,,,,,,,,
,,,,,,,,,,,,,FF,,,,,,,,1.1511,,,,,,,,,,,,,,,,,,,,,,60fce0303eddb8283807967a,6103660bcd3244672a76e48e,2021-07-29_22h39.02.054,Simcolourproject_2stim_asymm_v5,2020.2.10,Win32,60,61025ae37ef11b136ea224fe,,,,,,,,,688,-44.79998922,-68.00000745,1,0,0,response5disk,,3,4.800011516,-0.800006449,1,0,0,rectangle,-47.19998926,107.1999707,1,0,0,16.80001169,6.399993658,1,0,0,0,135,135,109,1,,response7disk_3,TRUE,0,0,"[178,307,110,49,192,93,259,307,185,66,270,214,256,56,222,265,214,200,136,105]",1.9662,rectangle
,,,,,,,,,,,,,FF,,,,,,,,1.1335,,,,,,,,,,,,,,,,,,,,,,60fce0303eddb8283807967a,6103660bcd3244672a76e48e,2021-07-29_22h39.02.054,Simcolourproject_2stim_asymm_v5,2020.2.10,Win32,60,61025ae37ef11b136ea224fe,,,,,,,,,1795,42.40001208,92.79999495,1,0,0,response1disk,,7,12.80001163,-1.600006461,1,0,0,rectangle,12.80001163,-1.600006461,1,0,0,12.80001163,-1.600006461,1,0,0,0,136,136,23,1,,,,,,,,
,,,,,,,,,,,,,FF,,,,,,,,3.0661,,,,,,,,,,,,,,,,,,,,,,60fce0303eddb8283807967a,6103660bcd3244672a76e48e,2021-07-29_22h39.02.054,Simcolourproject_2stim_asymm_v5,2020.2.10,Win32,60,61025ae37ef11b136ea224fe,,,,,,,,,2537,120.0000132,-89.6000566,1,0,0,response3disk,,5,0.800011456,-7.200006545,1,0,0,rectangle,0.800011456,-7.200006545,1,0,0,0.800011456,-7.200006545,1,0,0,0,137,137,76,1,,,,,,,,
,,,,,,,,,,,,,FF,,,,,,,,2.8831,,,,,,,,,,,,,,,,,,,,,,60fce0303eddb8283807967a,6103660bcd3244672a76e48e,2021-07-29_22h39.02.054,Simcolourproject_2stim_asymm_v5,2020.2.10,Win32,60,61025ae37ef11b136ea224fe,,,,,,,,,800,108.0000131,30.39999402,1,0,0,response1disk,,6,12.80001163,-12.00000662,1,0,0,rectangle,12.80001163,-12.00000662,1,0,0,12.80001163,-12.00000662,1,0,0,0,138,138,6,1,,,,,,,,
,,,,,,,,,,,,,FF,,,,,,,,1.384,,,,,,,,,,,,,,,,,,,,,,60fce0303eddb8283807967a,6103660bcd3244672a76e48e,2021-07-29_22h39.02.054,Simcolourproject_2stim_asymm_v5,2020.2.10,Win32,60,61025ae37ef11b136ea224fe,,,,,,,,,527,91.2000128,-31.2000069,1,0,0,response3disk,,5,11.20001161,-9.60000658,1,0,0,rectangle,11.20001161,-9.60000658,1,0,0,11.20001161,-9.60000658,1,0,0,0,139,139,153,1,,,,,,,,
,,,,,,,,,,,,,FF,,,,,,,,1.3337,,,,,,,,,,,,,,,,,,,,,,60fce0303eddb8283807967a,6103660bcd3244672a76e48e,2021-07-29_22h39.02.054,Simcolourproject_2stim_asymm_v5,2020.2.10,Win32,60,61025ae37ef11b136ea224fe,,,,,,,,,4215,75.20001256,38.39999413,1,0,0,response1disk,,6,-6.399939823,-4.800006509,1,0,0,rectangle,-6.399939823,-4.800006509,1,0,0,-6.399939823,-4.800006509,1,0,0,0,140,140,38,1,,,,,,,,
,,,,,,,,,,,,,FF,,,,,,,,1.7515,,,,,,,,,,,,,,,,,,,,,,60fce0303eddb8283807967a,6103660bcd3244672a76e48e,2021-07-29_22h39.02.054,Simcolourproject_2stim_asymm_v5,2020.2.10,Win32,60,61025ae37ef11b136ea224fe,,,,,,,,,1793,40.80001205,77.59999472,1,0,0,response1disk,,7,12.80001163,0.799993575,1,0,0,rectangle,12.80001163,0.799993575,1,0,0,12.80001163,0.799993575,1,0,0,0,141,141,60,1,,,,,,,,
,,,,,,,,,,,,,FF,,,,,,,,2.6167,,,,,,,,,,,,,,,,,,,,,,60fce0303eddb8283807967a,6103660bcd3244672a76e48e,2021-07-29_22h39.02.054,Simcolourproject_2stim_asymm_v5,2020.2.10,Win32,60,61025ae37ef11b136ea224fe,,,,,,,,,2084,-43.99998921,-120.8000082,1,0,0,response5disk,,3,7.200011551,13.59999377,1,0,0,rectangle,7.200011551,13.59999377,1,0,0,7.200011551,13.59999377,1,0,0,0,142,142,67,1,,,,,,,,
,,,,,,,,,,,,,FF,,,,,,,,1.2336,,,,,,,,,,,,,,,,,,,,,,60fce0303eddb8283807967a,6103660bcd3244672a76e48e,2021-07-29_22h39.02.054,Simcolourproject_2stim_asymm_v5,2020.2.10,Win32,60,61025ae37ef11b136ea224fe,,,,,,,,,2280,40.80001205,69.5999946,1,0,0,response1disk,,7,9.600060415,-3.200006485,1,0,0,rectangle,9.600060415,-3.200006485,1,0,0,9.600060415,-3.200006485,1,0,0,0,143,143,50,1,,,,,,,,
,,,,,,,,,,,,,FF,,,,,,,,2.0999,,,,,,,,,,,,,,,,,,,,,,60fce0303eddb8283807967a,6103660bcd3244672a76e48e,2021-07-29_22h39.02.054,Simcolourproject_2stim_asymm_v5,2020.2.10,Win32,60,61025ae37ef11b136ea224fe,,,,,,,,,433,-47.19998926,-112.0000081,1,0,0,response5disk,,3,1.600060296,-7.200006545,1,0,0,rectangle,1.600060296,-7.200006545,1,0,0,1.600060296,-7.200006545,1,0,0,0,144,144,138,1,,,,,,,,
,,,,,,,,,,,,,FF,,,,,,,,2.2161,,,,,,,,,,,,,,,,,,,,,,60fce0303eddb8283807967a,6103660bcd3244672a76e48e,2021-07-29_22h39.02.054,Simcolourproject_2stim_asymm_v5,2020.2.10,Win32,60,61025ae37ef11b136ea224fe,,,,,,,,,134,95.20001286,-63.20000738,1,0,0,response3disk,,5,12.00001162,1.599993587,1,0,0,rectangle,12.00001162,1.599993587,1,0,0,12.00001162,1.599993587,1,0,0,0,145,145,66,1,,,,,,,,
,,,,,,,,,,,,,FF,,,,,,,,4.6836,,,,,,,,,,,,,,,,,,,,,,60fce0303eddb8283807967a,6103660bcd3244672a76e48e,2021-07-29_22h39.02.054,Simcolourproject_2stim_asymm_v5,2020.2.10,Win32,60,61025ae37ef11b136ea224fe,,,,,,,,,2221,86.40001273,-51.2000072,1,0,0,response3disk,,5,18.40001172,-7.200006545,1,0,0,rectangle,18.40001172,-7.200006545,1,0,0,18.40001172,-7.200006545,1,0,0,0,146,146,99,1,,,,,,,,
,,,,,,,,,,,,,FF,,,,,,,,2.6168,,,,,,,,,,,,,,,,,,,,,,60fce0303eddb8283807967a,6103660bcd3244672a76e48e,2021-07-29_22h39.02.054,Simcolourproject_2stim_asymm_v5,2020.2.10,Win32,60,61025ae37ef11b136ea224fe,,,,,,,,,1644,116.8000132,-36.80000699,1,0,0,response3disk,,5,21.60006059,-6.400006533,1,0,0,rectangle,21.60006059,-6.400006533,1,0,0,21.60006059,-6.400006533,1,0,0,0,147,147,122,1,,,,,,,,
,,,,,,,,,,,,,FF,,,,,,,,1.6004,,,,,,,,,,,,,,,,,,,,,,60fce0303eddb8283807967a,6103660bcd3244672a76e48e,2021-07-29_22h39.02.054,Simcolourproject_2stim_asymm_v5,2020.2.10,Win32,60,61025ae37ef11b136ea224fe,,,,,,,,,113,43.20001209,-79.20000762,1,0,0,response3disk,,4,8.800011575,-14.40000665,1,0,0,rectangle,8.800011575,-14.40000665,1,0,0,8.800011575,-14.40000665,1,0,0,0,148,148,152,1,,,,,,,,
,,,,,,,,,,,,,FF,,,,,,,,1.1671,,,,,,,,,,,,,,,,,,,,,,60fce0303eddb8283807967a,6103660bcd3244672a76e48e,2021-07-29_22h39.02.054,Simcolourproject_2stim_asymm_v5,2020.2.10,Win32,60,61025ae37ef11b136ea224fe,,,,,,,,,975,-29.599989,107.9999952,1,0,0,response7disk,,0,11.20001161,-4.000006497,1,0,0,rectangle,11.20001161,-4.000006497,1,0,0,11.20001161,-4.000006497,1,0,0,0,149,149,58,1,,,,,,,,
,,,,,,,,,,,,,FF,,,,,,,,2.468,,,,,,,,,,,,,,,,,,,,,,60fce0303eddb8283807967a,6103660bcd3244672a76e48e,2021-07-29_22h39.02.054,Simcolourproject_2stim_asymm_v5,2020.2.10,Win32,60,61025ae37ef11b136ea224fe,,,,,,,,,2988,-55.19998938,-114.4000081,1,0,0,response5disk,,3,10.4000116,4.799993634,1,0,0,rectangle,10.4000116,4.799993634,1,0,0,10.4000116,4.799993634,1,0,0,0,150,150,13,1,,,,,,,,
,,,,,,,,,,,,,FF,,,,,,,,2.0166,,,,,,,,,,,,,,,,,,,,,,60fce0303eddb8283807967a,6103660bcd3244672a76e48e,2021-07-29_22h39.02.054,Simcolourproject_2stim_asymm_v5,2020.2.10,Win32,60,61025ae37ef11b136ea224fe,,,,,,,,,3651,-93.59998995,-43.20000708,1,0,0,response5disk,,2,-12.79998875,-16.80000669,1,0,0,rectangle,-12.79998875,-16.80000669,1,0,0,-12.79998875,-16.80000669,1,0,0,0,151,151,24,1,,,,,,,,
,,,,,,,,,,,,,FF,,,,,,,,1.9156,,,,,,,,,,,,,,,,,,,,,,60fce0303eddb8283807967a,6103660bcd3244672a76e48e,2021-07-29_22h39.02.054,Simcolourproject_2stim_asymm_v5,2020.2.10,Win32,60,61025ae37ef11b136ea224fe,,,,,,,,,3473,-59.99998945,-37.600007,1,0,0,response5disk,,2,3.200011492,7.19999367,1,0,0,rectangle,3.200011492,7.19999367,1,0,0,3.200011492,7.19999367,1,0,0,0,152,152,83,1,,,,,,,,
,,,,,,,,,,,,,FF,,,,,,,,0.9507,,,,,,,,,,,,,,,,,,,,,,60fce0303eddb8283807967a,6103660bcd3244672a76e48e,2021-07-29_22h39.02.054,Simcolourproject_2stim_asymm_v5,2020.2.10,Win32,60,61025ae37ef11b136ea224fe,,,,,,,,,1970,-79.19998974,35.19996967,1,0,0,response7disk,,1,0.800011456,-5.600006521,1,0,0,rectangle,0.800011456,-5.600006521,1,0,0,0.800011456,-5.600006521,1,0,0,0,153,153,75,1,,,,,,,,
,,,,,,,,,,,,,FF,,,,,,,,1.5669,,,,,,,,,,,,,,,,,,,,,,60fce0303eddb8283807967a,6103660bcd3244672a76e48e,2021-07-29_22h39.02.054,Simcolourproject_2stim_asymm_v5,2020.2.10,Win32,60,61025ae37ef11b136ea224fe,,,,,,,,,1137,-91.19998991,30.39999402,1,0,0,response7disk,,1,4.800011516,-13.60000664,1,0,0,rectangle,4.800011516,-13.60000664,1,0,0,4.800011516,-13.60000664,1,0,0,0,154,154,142,1,,,,,,,,
,,,,,,,,,,,,,FF,,,,,,,,1.5331,,,,,,,,,,,,,,,,,,,,,,60fce0303eddb8283807967a,6103660bcd3244672a76e48e,2021-07-29_22h39.02.054,Simcolourproject_2stim_asymm_v5,2020.2.10,Win32,60,61025ae37ef11b136ea224fe,,,,,,,,,3746,-96.79999,-64.00000739,1,0,0,response5disk,,2,3.200011492,-2.400006473,1,0,0,rectangle,3.200011492,-2.400006473,1,0,0,3.200011492,-2.400006473,1,0,0,0,155,155,26,1,,,,,,,,
,,,,,,,,,,,,,FF,,,,,,,,1.4164,,,,,,,,,,,,,,,,,,,,,,60fce0303eddb8283807967a,6103660bcd3244672a76e48e,2021-07-29_22h39.02.054,Simcolourproject_2stim_asymm_v5,2020.2.10,Win32,60,61025ae37ef11b136ea224fe,,,,,,,,,3845,98.40001291,-24.00000679,1,0,0,response3disk,,5,15.20001167,-8.800006568,1,0,0,rectangle,15.20001167,-8.800006568,1,0,0,15.20001167,-8.800006568,1,0,0,0,156,156,125,1,,,,,,,,
,,,,,,,,,,,,,FF,,,,,,,,2.2664,,,,,,,,,,,,,,,,,,,,,,60fce0303eddb8283807967a,6103660bcd3244672a76e48e,2021-07-29_22h39.02.054,Simcolourproject_2stim_asymm_v5,2020.2.10,Win32,60,61025ae37ef11b136ea224fe,,,,,,,,,2938,100.8000129,-53.60000724,1,0,0,response3disk,,5,3.200011492,-8.000006557,1,0,0,rectangle,3.200011492,-8.000006557,1,0,0,3.200011492,-8.000006557,1,0,0,0,157,157,0,1,,,,,,,,
,,,,,,,,,,,,,FF,,,,,,,,1.7169,,,,,,,,,,,,,,,,,,,,,,60fce0303eddb8283807967a,6103660bcd3244672a76e48e,2021-07-29_22h39.02.054,Simcolourproject_2stim_asymm_v5,2020.2.10,Win32,60,61025ae37ef11b136ea224fe,,,,,,,,,921,44.0000121,-88.80000776,1,0,0,response3disk,,4,4.800011516,-12.80000663,1,0,0,rectangle,4.800011516,-12.80000663,1,0,0,4.800011516,-12.80000663,1,0,0,0,158,158,118,1,,,,,,,,
,,,,,,,,,,,,,FF,,,,,,,,1.3997,,,,,,,,,,,,,,,,,,,,,,60fce0303eddb8283807967a,6103660bcd3244672a76e48e,2021-07-29_22h39.02.054,Simcolourproject_2stim_asymm_v5,2020.2.10,Win32,60,61025ae37ef11b136ea224fe,,,,,,,,,320,94.40001285,32.79999405,1,0,0,response1disk,,6,-11.99998873,-13.60000664,1,0,0,rectangle,-11.99998873,-13.60000664,1,0,0,-11.99998873,-13.60000664,1,0,0,0,159,159,77,1,,,,,,,,
,,,,,,,,,,,,,FF,,,,,,,,2.0832,,,,,,,,,,,,,,,,,,,,,,60fce0303eddb8283807967a,6103660bcd3244672a76e48e,2021-07-29_22h39.02.054,Simcolourproject_2stim_asymm_v5,2020.2.10,Win32,60,61025ae37ef11b136ea224fe,,,,,,,,,200,54.40001225,75.9999947,1,0,0,response1disk,,7,8.000011563,-7.200006545,1,0,0,rectangle,8.000011563,-7.200006545,1,0,0,8.000011563,-7.200006545,1,0,0,1,0,160,82,1,,,,,,,,
,,,,,,,,,,,,,FF,,,,,,,,1.883,,,,,,,,,,,,,,,,,,,,,,60fce0303eddb8283807967a,6103660bcd3244672a76e48e,2021-07-29_22h39.02.054,Simcolourproject_2stim_asymm_v5,2020.2.10,Win32,60,61025ae37ef11b136ea224fe,,,,,,,,,1856,108.0000131,-62.40000737,1,0,0,response3disk,,5,16.80001169,-2.400006473,1,0,0,rectangle,16.80001169,-2.400006473,1,0,0,16.80001169,-2.400006473,1,0,0,1,1,161,124,1,,,,,,,,
,,,,,,,,,,,,,FF,,,,,,,,1.4836,,,,,,,,,,,,,,,,,,,,,,60fce0303eddb8283807967a,6103660bcd3244672a76e48e,2021-07-29_22h39.02.054,Simcolourproject_2stim_asymm_v5,2020.2.10,Win32,60,61025ae37ef11b136ea224fe,,,,,,,,,3381,-87.19998986,45.59999424,1,0,0,response7disk,,1,8.000011563,-8.000006557,1,0,0,rectangle,8.000011563,-8.000006557,1,0,0,8.000011563,-8.000006557,1,0,0,1,2,162,26,1,,,,,,,,
,,,,,,,,,,,,,FF,,,,,,,,1.3332,,,,,,,,,,,,,,,,,,,,,,60fce0303eddb8283807967a,6103660bcd3244672a76e48e,2021-07-29_22h39.02.054,Simcolourproject_2stim_asymm_v5,2020.2.10,Win32,60,61025ae37ef11b136ea224fe,,,,,,,,,1019,-35.99998909,-84.8000077,1,0,0,response5disk,,3,17.60006053,-7.200006545,1,0,0,rectangle,17.60006053,-7.200006545,1,0,0,17.60006053,-7.200006545,1,0,0,1,3,163,136,1,,,,,,,,
,,,,,,,,,,,,,FF,,,,,,,,1.4337,,,,,,,,,,,,,,,,,,,,,,60fce0303eddb8283807967a,6103660bcd3244672a76e48e,2021-07-29_22h39.02.054,Simcolourproject_2stim_asymm_v5,2020.2.10,Win32,60,61025ae37ef11b136ea224fe,,,,,,,,,1565,49.60006101,-86.40000772,1,0,0,response3disk,,4,11.20001161,1.599993587,1,0,0,rectangle,11.20001161,1.599993587,1,0,0,11.20001161,1.599993587,1,0,0,1,4,164,148,1,,,,,,,,
,,,,,,,,,,,,,FF,,,,,,,,2.0834,,,,,,,,,,,,,,,,,,,,,,60fce0303eddb8283807967a,6103660bcd3244672a76e48e,2021-07-29_22h39.02.054,Simcolourproject_2stim_asymm_v5,2020.2.10,Win32,60,61025ae37ef11b136ea224fe,,,,,,,,,2352,53.60001224,-103.200008,1,0,0,response3disk,,4,-2.399939764,-0.800006449,1,0,0,rectangle,-2.399939764,-0.800006449,1,0,0,-2.399939764,-0.800006449,1,0,0,1,5,165,129,1,,,,,,,,
,,,,,,,,,,,,,FF,,,,,,,,1.0001,,,,,,,,,,,,,,,,,,,,,,60fce0303eddb8283807967a,6103660bcd3244672a76e48e,2021-07-29_22h39.02.054,Simcolourproject_2stim_asymm_v5,2020.2.10,Win32,60,61025ae37ef11b136ea224fe,,,,,,,,,2396,36.00001198,55.9999944,1,0,0,response1disk,,7,9.600060415,-10.40000659,1,0,0,rectangle,9.600060415,-10.40000659,1,0,0,9.600060415,-10.40000659,1,0,0,1,6,166,1,1,,,,,,,,
,,,,,,,,,,,,,FF,,,,,,,,1.4664,,,,,,,,,,,,,,,,,,,,,,60fce0303eddb8283807967a,6103660bcd3244672a76e48e,2021-07-29_22h39.02.054,Simcolourproject_2stim_asymm_v5,2020.2.10,Win32,60,61025ae37ef11b136ea224fe,,,,,,,,,236,39.20001203,-66.40000743,1,0,0,response3disk,,4,18.40001172,-5.600006521,1,0,0,rectangle,18.40001172,-5.600006521,1,0,0,18.40001172,-5.600006521,1,0,0,1,7,167,60,1,,,,,,,,
,,,,,,,,,,,,,FF,,,,,,,,1.0167,,,,,,,,,,,,,,,,,,,,,,60fce0303eddb8283807967a,6103660bcd3244672a76e48e,2021-07-29_22h39.02.054,Simcolourproject_2stim_asymm_v5,2020.2.10,Win32,60,61025ae37ef11b136ea224fe,,,,,,,,,2398,35.20001197,73.59999466,1,0,0,response1disk,,7,-2.399939764,5.599993646,1,0,0,rectangle,-2.399939764,5.599993646,1,0,0,-2.399939764,5.599993646,1,0,0,1,8,168,7,1,,,,,,,,
,,,,,,,,,,,,,FF,,,,,,,,1.067,,,,,,,,,,,,,,,,,,,,,,60fce0303eddb8283807967a,6103660bcd3244672a76e48e,2021-07-29_22h39.02.054,Simcolourproject_2stim_asymm_v5,2020.2.10,Win32,60,61025ae37ef11b136ea224fe,,,,,,,,,1684,-59.99998945,21.59999388,1,0,0,response7disk,,1,2.40001148,-9.60000658,1,0,0,rectangle,2.40001148,-9.60000658,1,0,0,2.40001148,-9.60000658,1,0,0,1,9,169,13,1,,,,,,,,
,,,,,,,,,,,,,FF,,,,,,,,2.2834,,,,,,,,,,,,,,,,,,,,,,60fce0303eddb8283807967a,6103660bcd3244672a76e48e,2021-07-29_22h39.02.054,Simcolourproject_2stim_asymm_v5,2020.2.10,Win32,60,61025ae37ef11b136ea224fe,,,,,,,,,3377,108.8000131,-48.00000715,1,0,0,response3disk,,5,-7.199988663,-4.000006497,1,0,0,rectangle,-7.199988663,-4.000006497,1,0,0,-7.199988663,-4.000006497,1,0,0,1,10,170,97,1,,,,,,,,
,,,,,,,,,,,,,FF,,,,,,,,0.952,,,,,,,,,,,,,,,,,,,,,,60fce0303eddb8283807967a,6103660bcd3244672a76e48e,2021-07-29_22h39.02.054,Simcolourproject_2stim_asymm_v5,2020.2.10,Win32,60,61025ae37ef11b136ea224fe,,,,,,,,,3737,32.80001193,87.99999487,1,0,0,response1disk,,7,8.800011575,-16.00000668,1,0,0,rectangle,8.800011575,-16.00000668,1,0,0,8.800011575,-16.00000668,1,0,0,1,11,171,70,1,,,,,,,,
,,,,,,,,,,,,,FF,,,,,,,,1.233,,,,,,,,,,,,,,,,,,,,,,60fce0303eddb8283807967a,6103660bcd3244672a76e48e,2021-07-29_22h39.02.054,Simcolourproject_2stim_asymm_v5,2020.2.10,Win32,60,61025ae37ef11b136ea224fe,,,,,,,,,3072,36.00001198,83.19997039,1,0,0,response1disk,,7,6.400011539,4.799993634,1,0,0,rectangle,6.400011539,4.799993634,1,0,0,6.400011539,4.799993634,1,0,0,1,12,172,83,1,,,,,,,,
,,,,,,,,,,,,,FF,,,,,,,,1.2164,,,,,,,,,,,,,,,,,,,,,,60fce0303eddb8283807967a,6103660bcd3244672a76e48e,2021-07-29_22h39.02.054,Simcolourproject_2stim_asymm_v5,2020.2.10,Win32,60,61025ae37ef11b136ea224fe,,,,,,,,,352,-79.99998975,-40.00000703,1,0,0,response5disk,,2,-3.199988604,-6.400006533,1,0,0,rectangle,-3.199988604,-6.400006533,1,0,0,-3.199988604,-6.400006533,1,0,0,1,13,173,40,1,,,,,,,,
,,,,,,,,,,,,,FF,,,,,,,,1.1835,,,,,,,,,,,,,,,,,,,,,,60fce0303eddb8283807967a,6103660bcd3244672a76e48e,2021-07-29_22h39.02.054,Simcolourproject_2stim_asymm_v5,2020.2.10,Win32,60,61025ae37ef11b136ea224fe,,,,,,,,,1096,48.00001216,77.59999472,1,0,0,response1disk,,7,10.4000116,-4.000006497,1,0,0,rectangle,10.4000116,-4.000006497,1,0,0,10.4000116,-4.000006497,1,0,0,1,14,174,73,1,,,,,,,,
,,,,,,,,,,,,,FF,,,,,,,,1.2832,,,,,,,,,,,,,,,,,,,,,,60fce0303eddb8283807967a,6103660bcd3244672a76e48e,2021-07-29_22h39.02.054,Simcolourproject_2stim_asymm_v5,2020.2.10,Win32,60,61025ae37ef11b136ea224fe,,,,,,,,,1463,-86.39994102,-36.00000697,1,0,0,response5disk,,2,-0.799988568,0.799993575,1,0,0,rectangle,-0.799988568,0.799993575,1,0,0,-0.799988568,0.799993575,1,0,0,1,15,175,57,1,,,,,,,,
,,,,,,,,,,,,,FF,,,,,,,,1.1504,,,,,,,,,,,,,,,,,,,,,,60fce0303eddb8283807967a,6103660bcd3244672a76e48e,2021-07-29_22h39.02.054,Simcolourproject_2stim_asymm_v5,2020.2.10,Win32,60,61025ae37ef11b136ea224fe,,,,,,,,,2408,36.00001198,76.79999471,1,0,0,response1disk,,7,-3.199988604,-0.800006449,1,0,0,rectangle,-3.199988604,-0.800006449,1,0,0,-3.199988604,-0.800006449,1,0,0,1,16,176,114,1,,,,,,,,
,,,,,,,,,,,,,FF,,,,,,,,1.7004,,,,,,,,,,,,,,,,,,,,,,60fce0303eddb8283807967a,6103660bcd3244672a76e48e,2021-07-29_22h39.02.054,Simcolourproject_2stim_asymm_v5,2020.2.10,Win32,60,61025ae37ef11b136ea224fe,,,,,,,,,3190,-42.39994036,-104.800008,1,0,0,response5disk,,3,16.80001169,0.799993575,1,0,0,rectangle,49.60006101,105.5999951,1,0,0,-8.799988687,-10.40000659,1,0,0,1,17,177,31,1,,response1disk_3,TRUE,7,7,"[178,307,110,49,192,93,259,307,185,66,270,214,256,56,222,265,214,200,136,105]",2.1343,rectangle
,,,,,,,,,,,,,FF,,,,,,,,1.6999,,,,,,,,,,,,,,,,,,,,,,60fce0303eddb8283807967a,6103660bcd3244672a76e48e,2021-07-29_22h39.02.054,Simcolourproject_2stim_asymm_v5,2020.2.10,Win32,60,61025ae37ef11b136ea224fe,,,,,,,,,1190,94.40001285,36.79999411,1,0,0,response1disk,,6,12.80001163,-5.600006521,1,0,0,rectangle,12.80001163,-5.600006521,1,0,0,12.80001163,-5.600006521,1,0,0,1,18,178,149,1,,,,,,,,
,,,,,,,,,,,,,FF,,,,,,,,5.6481,,,,,,,,,,,,,,,,,,,,,,60fce0303eddb8283807967a,6103660bcd3244672a76e48e,2021-07-29_22h39.02.054,Simcolourproject_2stim_asymm_v5,2020.2.10,Win32,60,61025ae37ef11b136ea224fe,,,,,,,,,4191,105.600013,51.99999434,1,0,0,response1disk,,6,10.4000116,16.79999381,1,0,0,rectangle,10.4000116,16.79999381,1,0,0,10.4000116,16.79999381,1,0,0,1,19,179,154,1,,,,,,,,
,,,,,,,,,,,,,FF,,,,,,,,2.9502,,,,,,,,,,,,,,,,,,,,,,60fce0303eddb8283807967a,6103660bcd3244672a76e48e,2021-07-29_22h39.02.054,Simcolourproject_2stim_asymm_v5,2020.2.10,Win32,60,61025ae37ef11b136ea224fe,,,,,,,,,3733,123.2000133,-41.60000706,1,0,0,response3disk,,5,7.200011551,-10.40000659,1,0,0,rectangle,7.200011551,-10.40000659,1,0,0,7.200011551,-10.40000659,1,0,0,1,20,180,56,1,,,,,,,,
,,,,,,,,,,,,,FF,,,,,,,,1.7339,,,,,,,,,,,,,,,,,,,,,,60fce0303eddb8283807967a,6103660bcd3244672a76e48e,2021-07-29_22h39.02.054,Simcolourproject_2stim_asymm_v5,2020.2.10,Win32,60,61025ae37ef11b136ea224fe,,,,,,,,,1012,28.80001187,-103.200008,1,0,0,response3disk,,4,-4.799988627,2.399993598,1,0,0,rectangle,-4.799988627,2.399993598,1,0,0,-4.799988627,2.399993598,1,0,0,1,21,181,33,1,,,,,,,,
,,,,,,,,,,,,,FF,,,,,,,,1.5169,,,,,,,,,,,,,,,,,,,,,,60fce0303eddb8283807967a,6103660bcd3244672a76e48e,2021-07-29_22h39.02.054,Simcolourproject_2stim_asymm_v5,2020.2.10,Win32,60,61025ae37ef11b136ea224fe,,,,,,,,,1850,96.00001287,43.99999422,1,0,0,response1disk,,6,-0.799988568,5.599993646,1,0,0,rectangle,-0.799988568,5.599993646,1,0,0,-0.799988568,5.599993646,1,0,0,1,22,182,61,1,,,,,,,,
,,,,,,,,,,,,,FF,,,,,,,,1.5501,,,,,,,,,,,,,,,,,,,,,,60fce0303eddb8283807967a,6103660bcd3244672a76e48e,2021-07-29_22h39.02.054,Simcolourproject_2stim_asymm_v5,2020.2.10,Win32,60,61025ae37ef11b136ea224fe,,,,,,,,,2172,-77.59998971,-35.20000696,1,0,0,response5disk,,2,-3.199988604,-5.600006521,1,0,0,rectangle,-3.199988604,-5.600006521,1,0,0,-3.199988604,-5.600006521,1,0,0,1,23,183,11,1,,,,,,,,
,,,,,,,,,,,,,FF,,,,,,,,1.8338,,,,,,,,,,,,,,,,,,,,,,60fce0303eddb8283807967a,6103660bcd3244672a76e48e,2021-07-29_22h39.02.054,Simcolourproject_2stim_asymm_v5,2020.2.10,Win32,60,61025ae37ef11b136ea224fe,,,,,,,,,1646,107.200013,-55.20000726,1,0,0,response3disk,,5,20.80001175,-4.000006497,1,0,0,rectangle,-29.599989,-116.8000082,1,0,0,1.600060296,-6.4373E-06,1,0,0,1,24,184,77,1,,response5disk_3,TRUE,3,3,"[178,307,110,49,192,93,259,307,185,66,270,214,256,56,222,265,214,200,136,105]",2.6164,rectangle
,,,,,,,,,,,,,FF,,,,,,,,2.4836,,,,,,,,,,,,,,,,,,,,,,60fce0303eddb8283807967a,6103660bcd3244672a76e48e,2021-07-29_22h39.02.054,Simcolourproject_2stim_asymm_v5,2020.2.10,Win32,60,61025ae37ef11b136ea224fe,,,,,,,,,251,115.2000132,-52.00000721,1,0,0,response3disk,,5,15.20001167,-4.000006497,1,0,0,rectangle,15.20001167,-4.000006497,1,0,0,15.20001167,-4.000006497,1,0,0,1,25,185,38,1,,,,,,,,
,,,,,,,,,,,,,FF,,,,,,,,2.297,,,,,,,,,,,,,,,,,,,,,,60fce0303eddb8283807967a,6103660bcd3244672a76e48e,2021-07-29_22h39.02.054,Simcolourproject_2stim_asymm_v5,2020.2.10,Win32,60,61025ae37ef11b136ea224fe,,,,,,,,,1327,42.40001208,-107.200008,1,0,0,response3disk,,4,-8.799988687,-5.600006521,1,0,0,rectangle,-8.799988687,-5.600006521,1,0,0,-8.799988687,-5.600006521,1,0,0,1,26,186,66,1,,,,,,,,
,,,,,,,,,,,,,FF,,,,,,,,1.267,,,,,,,,,,,,,,,,,,,,,,60fce0303eddb8283807967a,6103660bcd3244672a76e48e,2021-07-29_22h39.02.054,Simcolourproject_2stim_asymm_v5,2020.2.10,Win32,60,61025ae37ef11b136ea224fe,,,,,,,,,1004,48.80001217,-89.6000566,1,0,0,response3disk,,4,4.800011516,-9.60000658,1,0,0,rectangle,4.800011516,-9.60000658,1,0,0,4.800011516,-9.60000658,1,0,0,1,27,187,43,1,,,,,,,,
,,,,,,,,,,,,,FF,,,,,,,,2.6666,,,,,,,,,,,,,,,,,,,,,,60fce0303eddb8283807967a,6103660bcd3244672a76e48e,2021-07-29_22h39.02.054,Simcolourproject_2stim_asymm_v5,2020.2.10,Win32,60,61025ae37ef11b136ea224fe,,,,,,,,,2555,-24.79998893,-101.6000568,1,0,0,response5disk,,3,5.600060356,-6.400006533,1,0,0,rectangle,5.600060356,-6.400006533,1,0,0,5.600060356,-6.400006533,1,0,0,1,28,188,139,1,,,,,,,,
,,,,,,,,,,,,,FF,,,,,,,,1.2501,,,,,,,,,,,,,,,,,,,,,,60fce0303eddb8283807967a,6103660bcd3244672a76e48e,2021-07-29_22h39.02.054,Simcolourproject_2stim_asymm_v5,2020.2.10,Win32,60,61025ae37ef11b136ea224fe,,,,,,,,,2572,92.00001281,-48.00000715,1,0,0,response3disk,,5,11.20001161,1.599993587,1,0,0,rectangle,11.20001161,1.599993587,1,0,0,11.20001161,1.599993587,1,0,0,1,29,189,24,1,,,,,,,,
,,,,,,,,,,,,,FF,,,,,,,,1.1999,,,,,,,,,,,,,,,,,,,,,,60fce0303eddb8283807967a,6103660bcd3244672a76e48e,2021-07-29_22h39.02.054,Simcolourproject_2stim_asymm_v5,2020.2.10,Win32,60,61025ae37ef11b136ea224fe,,,,,,,,,2695,-75.99998969,-47.20000714,1,0,0,response5disk,,2,5.600060356,-3.200006485,1,0,0,rectangle,5.600060356,-3.200006485,1,0,0,5.600060356,-3.200006485,1,0,0,1,30,190,18,1,,,,,,,,
,,,,,,,,,,,,,FF,,,,,,,,2.1848,,,,,,,,,,,,,,,,,,,,,,60fce0303eddb8283807967a,6103660bcd3244672a76e48e,2021-07-29_22h39.02.054,Simcolourproject_2stim_asymm_v5,2020.2.10,Win32,60,61025ae37ef11b136ea224fe,,,,,,,,,4119,-75.99998969,-28.00000685,1,0,0,response5disk,,2,2.40001148,1.599993587,1,0,0,rectangle,-34.39994024,120.7999954,1,0,0,12.00001162,11.99999374,1,0,0,1,31,191,107,1,,response7disk_3,TRUE,0,0,"[178,307,110,49,192,93,259,307,185,66,270,214,256,56,222,265,214,200,136,105]",2.25,rectangle
,,,,,,,,,,,,,FF,,,,,,,,3.6165,,,,,,,,,,,,,,,,,,,,,,60fce0303eddb8283807967a,6103660bcd3244672a76e48e,2021-07-29_22h39.02.054,Simcolourproject_2stim_asymm_v5,2020.2.10,Win32,60,61025ae37ef11b136ea224fe,,,,,,,,,1909,-37.59998912,-78.40000761,1,0,0,response5disk,,3,15.20001167,2.399993598,1,0,0,rectangle,15.20001167,2.399993598,1,0,0,15.20001167,2.399993598,1,0,0,1,32,192,90,1,,,,,,,,
,,,,,,,,,,,,,FF,,,,,,,,4.2163,,,,,,,,,,,,,,,,,,,,,,60fce0303eddb8283807967a,6103660bcd3244672a76e48e,2021-07-29_22h39.02.054,Simcolourproject_2stim_asymm_v5,2020.2.10,Win32,60,61025ae37ef11b136ea224fe,,,,,,,,,2589,-35.99998909,-99.20000792,1,0,0,response5disk,,3,10.4000116,-7.200006545,1,0,0,rectangle,10.4000116,-7.200006545,1,0,0,10.4000116,-7.200006545,1,0,0,1,33,193,65,1,,,,,,,,
,,,,,,,,,,,,,FF,,,,,,,,1.3998,,,,,,,,,,,,,,,,,,,,,,60fce0303eddb8283807967a,6103660bcd3244672a76e48e,2021-07-29_22h39.02.054,Simcolourproject_2stim_asymm_v5,2020.2.10,Win32,60,61025ae37ef11b136ea224fe,,,,,,,,,2046,-74.39994084,-33.60000694,1,0,0,response5disk,,2,-17.59998882,-6.400006533,1,0,0,rectangle,-17.59998882,-6.400006533,1,0,0,-17.59998882,-6.400006533,1,0,0,1,34,194,2,1,,,,,,,,
,,,,,,,,,,,,,FF,,,,,,,,1.4839,,,,,,,,,,,,,,,,,,,,,,60fce0303eddb8283807967a,6103660bcd3244672a76e48e,2021-07-29_22h39.02.054,Simcolourproject_2stim_asymm_v5,2020.2.10,Win32,60,61025ae37ef11b136ea224fe,,,,,,,,,3607,41.60006089,-68.80000746,1,0,0,response3disk,,4,3.200011492,-9.60000658,1,0,0,rectangle,3.200011492,-9.60000658,1,0,0,3.200011492,-9.60000658,1,0,0,1,35,195,153,1,,,,,,,,
,,,,,,,,,,,,,FF,,,,,,,,1.3,,,,,,,,,,,,,,,,,,,,,,60fce0303eddb8283807967a,6103660bcd3244672a76e48e,2021-07-29_22h39.02.054,Simcolourproject_2stim_asymm_v5,2020.2.10,Win32,60,61025ae37ef11b136ea224fe,,,,,,,,,3223,40.80001205,66.39999455,1,0,0,response1disk,,7,6.400011539,-4.800006509,1,0,0,rectangle,6.400011539,-4.800006509,1,0,0,6.400011539,-4.800006509,1,0,0,1,36,196,8,1,,,,,,,,
,,,,,,,,,,,,,FF,,,,,,,,1.8671,,,,,,,,,,,,,,,,,,,,,,60fce0303eddb8283807967a,6103660bcd3244672a76e48e,2021-07-29_22h39.02.054,Simcolourproject_2stim_asymm_v5,2020.2.10,Win32,60,61025ae37ef11b136ea224fe,,,,,,,,,3056,127.2000133,-41.60000706,1,0,0,response3disk,,5,-11.19998872,3.999993622,1,0,0,rectangle,-11.19998872,3.999993622,1,0,0,-11.19998872,3.999993622,1,0,0,1,37,197,151,1,,,,,,,,
,,,,,,,,,,,,,FF,,,,,,,,1.2824,,,,,,,,,,,,,,,,,,,,,,60fce0303eddb8283807967a,6103660bcd3244672a76e48e,2021-07-29_22h39.02.054,Simcolourproject_2stim_asymm_v5,2020.2.10,Win32,60,61025ae37ef11b136ea224fe,,,,,,,,,3098,-84.79998982,34.39999408,1,0,0,response7disk,,1,-4.799988627,-6.4373E-06,1,0,0,rectangle,-4.799988627,-6.4373E-06,1,0,0,-4.799988627,-6.4373E-06,1,0,0,1,38,198,68,1,,,,,,,,
,,,,,,,,,,,,,FF,,,,,,,,2.9835,,,,,,,,,,,,,,,,,,,,,,60fce0303eddb8283807967a,6103660bcd3244672a76e48e,2021-07-29_22h39.02.054,Simcolourproject_2stim_asymm_v5,2020.2.10,Win32,60,61025ae37ef11b136ea224fe,,,,,,,,,918,111.2000131,-45.60000712,1,0,0,response3disk,,5,-11.19998872,0.799993575,1,0,0,rectangle,-52.79998934,92.79999495,1,0,0,8.000011563,-5.600006521,1,0,0,1,39,199,123,1,,response7disk_3,TRUE,0,0,"[178,307,110,49,192,93,259,307,185,66,270,214,256,56,222,265,214,200,136,105]",1.9841,rectangle
,,,,,,,,,,,,,FF,,,,,,,,1.8173,,,,,,,,,,,,,,,,,,,,,,60fce0303eddb8283807967a,6103660bcd3244672a76e48e,2021-07-29_22h39.02.054,Simcolourproject_2stim_asymm_v5,2020.2.10,Win32,60,61025ae37ef11b136ea224fe,,,,,,,,,2673,50.4000122,-110.4000081,1,0,0,response3disk,,4,-0.799988568,-10.40000659,1,0,0,rectangle,-0.799988568,-10.40000659,1,0,0,-0.799988568,-10.40000659,1,0,0,1,40,200,48,1,,,,,,,,
,,,,,,,,,,,,,FF,,,,,,,,4.4341,,,,,,,,,,,,,,,,,,,,,,60fce0303eddb8283807967a,6103660bcd3244672a76e48e,2021-07-29_22h39.02.054,Simcolourproject_2stim_asymm_v5,2020.2.10,Win32,60,61025ae37ef11b136ea224fe,,,,,,,,,3449,104.000013,-49.60000718,1,0,0,response3disk,,5,12.80001163,-4.800006509,1,0,0,rectangle,12.80001163,-4.800006509,1,0,0,12.80001163,-4.800006509,1,0,0,1,41,201,110,1,,,,,,,,
,,,,,,,,,,,,,FF,,,,,,,,3.6494,,,,,,,,,,,,,,,,,,,,,,60fce0303eddb8283807967a,6103660bcd3244672a76e48e,2021-07-29_22h39.02.054,Simcolourproject_2stim_asymm_v5,2020.2.10,Win32,60,61025ae37ef11b136ea224fe,,,,,,,,,3209,116.0000132,-30.40000689,1,0,0,response3disk,,5,14.40001166,-6.4373E-06,1,0,0,rectangle,14.40001166,-6.4373E-06,1,0,0,14.40001166,-6.4373E-06,1,0,0,1,42,202,128,1,,,,,,,,
,,,,,,,,,,,,,FF,,,,,,,,2.2331,,,,,,,,,,,,,,,,,,,,,,60fce0303eddb8283807967a,6103660bcd3244672a76e48e,2021-07-29_22h39.02.054,Simcolourproject_2stim_asymm_v5,2020.2.10,Win32,60,61025ae37ef11b136ea224fe,,,,,,,,,3315,120.8000132,35.9999941,1,0,0,response1disk,,6,12.80001163,-0.800006449,1,0,0,rectangle,12.80001163,-0.800006449,1,0,0,12.80001163,-0.800006449,1,0,0,1,43,203,131,1,,,,,,,,
,,,,,,,,,,,,,FF,,,,,,,,1.9167,,,,,,,,,,,,,,,,,,,,,,60fce0303eddb8283807967a,6103660bcd3244672a76e48e,2021-07-29_22h39.02.054,Simcolourproject_2stim_asymm_v5,2020.2.10,Win32,60,61025ae37ef11b136ea224fe,,,,,,,,,2030,-90.39994107,52.79999435,1,0,0,response7disk,,1,-4.799988627,2.399993598,1,0,0,rectangle,-4.799988627,2.399993598,1,0,0,-4.799988627,2.399993598,1,0,0,1,44,204,25,1,,,,,,,,
,,,,,,,,,,,,,FF,,,,,,,,1.6834,,,,,,,,,,,,,,,,,,,,,,60fce0303eddb8283807967a,6103660bcd3244672a76e48e,2021-07-29_22h39.02.054,Simcolourproject_2stim_asymm_v5,2020.2.10,Win32,60,61025ae37ef11b136ea224fe,,,,,,,,,414,85.60001272,42.39999419,1,0,0,response1disk,,6,16.00001168,-3.200006485,1,0,0,rectangle,16.00001168,-3.200006485,1,0,0,16.00001168,-3.200006485,1,0,0,1,45,205,28,1,,,,,,,,
,,,,,,,,,,,,,FF,,,,,,,,4.1999,,,,,,,,,,,,,,,,,,,,,,60fce0303eddb8283807967a,6103660bcd3244672a76e48e,2021-07-29_22h39.02.054,Simcolourproject_2stim_asymm_v5,2020.2.10,Win32,60,61025ae37ef11b136ea224fe,,,,,,,,,1273,108.0000131,-64.8000074,1,0,0,response3disk,,5,-1.59998858,-5.600006521,1,0,0,rectangle,-1.59998858,-5.600006521,1,0,0,-1.59998858,-5.600006521,1,0,0,1,46,206,126,1,,,,,,,,
,,,,,,,,,,,,,FF,,,,,,,,2.4496,,,,,,,,,,,,,,,,,,,,,,60fce0303eddb8283807967a,6103660bcd3244672a76e48e,2021-07-29_22h39.02.054,Simcolourproject_2stim_asymm_v5,2020.2.10,Win32,60,61025ae37ef11b136ea224fe,,,,,,,,,3204,-92.79998994,55.9999944,1,0,0,response7disk,,1,4.800011516,-0.800006449,1,0,0,rectangle,4.800011516,-0.800006449,1,0,0,4.800011516,-0.800006449,1,0,0,1,47,207,156,1,,,,,,,,
,,,,,,,,,,,,,FF,,,,,,,,1.0998,,,,,,,,,,,,,,,,,,,,,,60fce0303eddb8283807967a,6103660bcd3244672a76e48e,2021-07-29_22h39.02.054,Simcolourproject_2stim_asymm_v5,2020.2.10,Win32,60,61025ae37ef11b136ea224fe,,,,,,,,,1293,-69.59998959,48.79999429,1,0,0,response7disk,,1,-3.199988604,-0.800006449,1,0,0,rectangle,-3.199988604,-0.800006449,1,0,0,-3.199988604,-0.800006449,1,0,0,1,48,208,119,1,,,,,,,,
,,,,,,,,,,,,,FF,,,,,,,,1.5164,,,,,,,,,,,,,,,,,,,,,,60fce0303eddb8283807967a,6103660bcd3244672a76e48e,2021-07-29_22h39.02.054,Simcolourproject_2stim_asymm_v5,2020.2.10,Win32,60,61025ae37ef11b136ea224fe,,,,,,,,,2401,109.6000131,36.79999411,1,0,0,response1disk,,6,-6.399939823,-7.200006545,1,0,0,rectangle,-6.399939823,-7.200006545,1,0,0,-6.399939823,-7.200006545,1,0,0,1,49,209,93,1,,,,,,,,
,,,,,,,,,,,,,FF,,,,,,,,1.167,,,,,,,,,,,,,,,,,,,,,,60fce0303eddb8283807967a,6103660bcd3244672a76e48e,2021-07-29_22h39.02.054,Simcolourproject_2stim_asymm_v5,2020.2.10,Win32,60,61025ae37ef11b136ea224fe,,,,,,,,,1996,53.60001224,107.9999952,1,0,0,response1disk,,7,6.400011539,-4.800006509,1,0,0,rectangle,6.400011539,-4.800006509,1,0,0,6.400011539,-4.800006509,1,0,0,1,50,210,122,1,,,,,,,,
,,,,,,,,,,,,,FF,,,,,,,,2.8173,,,,,,,,,,,,,,,,,,,,,,60fce0303eddb8283807967a,6103660bcd3244672a76e48e,2021-07-29_22h39.02.054,Simcolourproject_2stim_asymm_v5,2020.2.10,Win32,60,61025ae37ef11b136ea224fe,,,,,,,,,2297,-92.79998994,-24.00000679,1,0,0,response5disk,,2,-10.39993988,-7.200006545,1,0,0,rectangle,-10.39993988,-7.200006545,1,0,0,-10.39993988,-7.200006545,1,0,0,1,51,211,106,1,,,,,,,,
,,,,,,,,,,,,,FF,,,,,,,,2.4854,,,,,,,,,,,,,,,,,,,,,,60fce0303eddb8283807967a,6103660bcd3244672a76e48e,2021-07-29_22h39.02.054,Simcolourproject_2stim_asymm_v5,2020.2.10,Win32,60,61025ae37ef11b136ea224fe,,,,,,,,,1621,104.800013,-30.40000689,1,0,0,response3disk,,5,11.20001161,-5.600006521,1,0,0,rectangle,11.20001161,-5.600006521,1,0,0,11.20001161,-5.600006521,1,0,0,1,52,212,21,1,,,,,,,,
,,,,,,,,,,,,,FF,,,,,,,,0.9334,,,,,,,,,,,,,,,,,,,,,,60fce0303eddb8283807967a,6103660bcd3244672a76e48e,2021-07-29_22h39.02.054,Simcolourproject_2stim_asymm_v5,2020.2.10,Win32,60,61025ae37ef11b136ea224fe,,,,,,,,,2705,36.00001198,61.59999448,1,0,0,response1disk,,7,7.200011551,1.599993587,1,0,0,rectangle,-87.99998987,37.59999412,1,0,0,-9.599988699,5.599993646,1,0,0,1,53,213,4,1,,response7disk_3,TRUE,1,1,"[178,307,110,49,192,93,259,307,185,66,270,214,256,56,222,265,214,200,136,105]",2.1328,rectangle
,,,,,,,,,,,,,FF,,,,,,,,2.95,,,,,,,,,,,,,,,,,,,,,,60fce0303eddb8283807967a,6103660bcd3244672a76e48e,2021-07-29_22h39.02.054,Simcolourproject_2stim_asymm_v5,2020.2.10,Win32,60,61025ae37ef11b136ea224fe,,,,,,,,,3286,-62.39994066,-86.40000772,1,0,0,response5disk,,3,1.14441E-05,8.799993694,1,0,0,rectangle,1.14441E-05,8.799993694,1,0,0,1.14441E-05,8.799993694,1,0,0,1,54,214,42,1,,,,,,,,
,,,,,,,,,,,,,FF,,,,,,,,2.7831,,,,,,,,,,,,,,,,,,,,,,60fce0303eddb8283807967a,6103660bcd3244672a76e48e,2021-07-29_22h39.02.054,Simcolourproject_2stim_asymm_v5,2020.2.10,Win32,60,61025ae37ef11b136ea224fe,,,,,,,,,3866,86.40001273,41.59999418,1,0,0,response1disk,,6,-1.59998858,12.79999375,1,0,0,rectangle,-1.59998858,12.79999375,1,0,0,-1.59998858,12.79999375,1,0,0,1,55,215,145,1,,,,,,,,
,,,,,,,,,,,,,FF,,,,,,,,4.434,,,,,,,,,,,,,,,,,,,,,,60fce0303eddb8283807967a,6103660bcd3244672a76e48e,2021-07-29_22h39.02.054,Simcolourproject_2stim_asymm_v5,2020.2.10,Win32,60,61025ae37ef11b136ea224fe,,,,,,,,,2471,-53.59998935,-123.2000083,1,0,0,response5disk,,3,11.20001161,-2.400006473,1,0,0,rectangle,11.20001161,-2.400006473,1,0,0,11.20001161,-2.400006473,1,0,0,1,56,216,46,1,,,,,,,,
,,,,,,,,,,,,,FF,,,,,,,,2.9662,,,,,,,,,,,,,,,,,,,,,,60fce0303eddb8283807967a,6103660bcd3244672a76e48e,2021-07-29_22h39.02.054,Simcolourproject_2stim_asymm_v5,2020.2.10,Win32,60,61025ae37ef11b136ea224fe,,,,,,,,,541,80.80001265,-31.2000069,1,0,0,response3disk,,5,-2.399939764,-4.000006497,1,0,0,rectangle,-2.399939764,-4.000006497,1,0,0,-2.399939764,-4.000006497,1,0,0,1,57,217,37,1,,,,,,,,
,,,,,,,,,,,,,FF,,,,,,,,2.4514,,,,,,,,,,,,,,,,,,,,,,60fce0303eddb8283807967a,6103660bcd3244672a76e48e,2021-07-29_22h39.02.054,Simcolourproject_2stim_asymm_v5,2020.2.10,Win32,60,61025ae37ef11b136ea224fe,,,,,,,,,2596,89.60001278,-46.40000713,1,0,0,response3disk,,5,14.40001166,1.599993587,1,0,0,rectangle,14.40001166,1.599993587,1,0,0,14.40001166,1.599993587,1,0,0,1,58,218,147,1,,,,,,,,
,,,,,,,,,,,,,FF,,,,,,,,1.15,,,,,,,,,,,,,,,,,,,,,,60fce0303eddb8283807967a,6103660bcd3244672a76e48e,2021-07-29_22h39.02.054,Simcolourproject_2stim_asymm_v5,2020.2.10,Win32,60,61025ae37ef11b136ea224fe,,,,,,,,,4006,52.80001223,-89.6000566,1,0,0,response3disk,,4,15.20001167,-12.00000662,1,0,0,rectangle,15.20001167,-12.00000662,1,0,0,15.20001167,-12.00000662,1,0,0,1,59,219,142,1,,,,,,,,
,,,,,,,,,,,,,FF,,,,,,,,1.6824,,,,,,,,,,,,,,,,,,,,,,60fce0303eddb8283807967a,6103660bcd3244672a76e48e,2021-07-29_22h39.02.054,Simcolourproject_2stim_asymm_v5,2020.2.10,Win32,60,61025ae37ef11b136ea224fe,,,,,,,,,2613,-50.39994048,-100.8000079,1,0,0,response5disk,,3,13.60006047,-4.000006497,1,0,0,rectangle,13.60006047,-4.000006497,1,0,0,13.60006047,-4.000006497,1,0,0,1,60,220,79,1,,,,,,,,
,,,,,,,,,,,,,FF,,,,,,,,0.9834,,,,,,,,,,,,,,,,,,,,,,60fce0303eddb8283807967a,6103660bcd3244672a76e48e,2021-07-29_22h39.02.054,Simcolourproject_2stim_asymm_v5,2020.2.10,Win32,60,61025ae37ef11b136ea224fe,,,,,,,,,3597,-89.59998989,-33.60000694,1,0,0,response5disk,,2,9.600060415,-4.800006509,1,0,0,rectangle,-35.99998909,95.19997057,1,0,0,4.800011516,-3.200006485,1,0,0,1,61,221,14,1,,response7disk_3,TRUE,0,0,"[178,307,110,49,192,93,259,307,185,66,270,214,256,56,222,265,214,200,136,105]",1.717,rectangle
,,,,,,,,,,,,,FF,,,,,,,,1.2998,,,,,,,,,,,,,,,,,,,,,,60fce0303eddb8283807967a,6103660bcd3244672a76e48e,2021-07-29_22h39.02.054,Simcolourproject_2stim_asymm_v5,2020.2.10,Win32,60,61025ae37ef11b136ea224fe,,,,,,,,,2750,52.80001223,87.99999487,1,0,0,response1disk,,7,1.14441E-05,-10.40000659,1,0,0,rectangle,1.14441E-05,-10.40000659,1,0,0,1.14441E-05,-10.40000659,1,0,0,1,62,222,15,1,,,,,,,,
,,,,,,,,,,,,,FF,,,,,,,,1.8497,,,,,,,,,,,,,,,,,,,,,,60fce0303eddb8283807967a,6103660bcd3244672a76e48e,2021-07-29_22h39.02.054,Simcolourproject_2stim_asymm_v5,2020.2.10,Win32,60,61025ae37ef11b136ea224fe,,,,,,,,,3975,93.60001284,-43.20000708,1,0,0,response3disk,,5,19.20001173,-8.000006557,1,0,0,rectangle,19.20001173,-8.000006557,1,0,0,19.20001173,-8.000006557,1,0,0,1,63,223,52,1,,,,,,,,
,,,,,,,,,,,,,FF,,,,,,,,1.9671,,,,,,,,,,,,,,,,,,,,,,60fce0303eddb8283807967a,6103660bcd3244672a76e48e,2021-07-29_22h39.02.054,Simcolourproject_2stim_asymm_v5,2020.2.10,Win32,60,61025ae37ef11b136ea224fe,,,,,,,,,2531,-59.19998944,-108.8000081,1,0,0,response5disk,,3,14.40001166,-3.200006485,1,0,0,rectangle,14.40001166,-3.200006485,1,0,0,14.40001166,-3.200006485,1,0,0,1,64,224,87,1,,,,,,,,
,,,,,,,,,,,,,FF,,,,,,,,1.2187,,,,,,,,,,,,,,,,,,,,,,60fce0303eddb8283807967a,6103660bcd3244672a76e48e,2021-07-29_22h39.02.054,Simcolourproject_2stim_asymm_v5,2020.2.10,Win32,60,61025ae37ef11b136ea224fe,,,,,,,,,3642,-61.59998947,-40.00000703,1,0,0,response5disk,,2,8.800011575,0.799993575,1,0,0,rectangle,8.800011575,0.799993575,1,0,0,8.800011575,0.799993575,1,0,0,1,65,225,103,1,,,,,,,,
,,,,,,,,,,,,,FF,,,,,,,,1.5666,,,,,,,,,,,,,,,,,,,,,,60fce0303eddb8283807967a,6103660bcd3244672a76e48e,2021-07-29_22h39.02.054,Simcolourproject_2stim_asymm_v5,2020.2.10,Win32,60,61025ae37ef11b136ea224fe,,,,,,,,,1271,53.60001224,-109.6000569,1,0,0,response3disk,,4,12.80001163,-9.60000658,1,0,0,rectangle,12.80001163,-9.60000658,1,0,0,12.80001163,-9.60000658,1,0,0,1,66,226,81,1,,,,,,,,
,,,,,,,,,,,,,FF,,,,,,,,1.2998,,,,,,,,,,,,,,,,,,,,,,60fce0303eddb8283807967a,6103660bcd3244672a76e48e,2021-07-29_22h39.02.054,Simcolourproject_2stim_asymm_v5,2020.2.10,Win32,60,61025ae37ef11b136ea224fe,,,,,,,,,71,-65.59998953,-56.00000727,1,0,0,response5disk,,2,-5.599988639,5.599993646,1,0,0,rectangle,-5.599988639,5.599993646,1,0,0,-5.599988639,5.599993646,1,0,0,1,67,227,32,1,,,,,,,,
,,,,,,,,,,,,,FF,,,,,,,,1.3332,,,,,,,,,,,,,,,,,,,,,,60fce0303eddb8283807967a,6103660bcd3244672a76e48e,2021-07-29_22h39.02.054,Simcolourproject_2stim_asymm_v5,2020.2.10,Win32,60,61025ae37ef11b136ea224fe,,,,,,,,,4070,41.60006089,-88.80000776,1,0,0,response3disk,,4,-6.399939823,3.19999361,1,0,0,rectangle,-6.399939823,3.19999361,1,0,0,-6.399939823,3.19999361,1,0,0,1,68,228,63,1,,,,,,,,
,,,,,,,,,,,,,FF,,,,,,,,1.7826,,,,,,,,,,,,,,,,,,,,,,60fce0303eddb8283807967a,6103660bcd3244672a76e48e,2021-07-29_22h39.02.054,Simcolourproject_2stim_asymm_v5,2020.2.10,Win32,60,61025ae37ef11b136ea224fe,,,,,,,,,3760,-23.99998891,-65.60000741,1,0,0,response5disk,,3,25.60006065,7.999993682,1,0,0,rectangle,25.60006065,7.999993682,1,0,0,25.60006065,7.999993682,1,0,0,1,69,229,59,1,,,,,,,,
,,,,,,,,,,,,,FF,,,,,,,,1.1167,,,,,,,,,,,,,,,,,,,,,,60fce0303eddb8283807967a,6103660bcd3244672a76e48e,2021-07-29_22h39.02.054,Simcolourproject_2stim_asymm_v5,2020.2.10,Win32,60,61025ae37ef11b136ea224fe,,,,,,,,,3862,32.00001192,101.5999951,1,0,0,response1disk,,7,2.40001148,0.799993575,1,0,0,rectangle,2.40001148,0.799993575,1,0,0,2.40001148,0.799993575,1,0,0,1,70,230,49,1,,,,,,,,
,,,,,,,,,,,,,FF,,,,,,,,1.5498,,,,,,,,,,,,,,,,,,,,,,60fce0303eddb8283807967a,6103660bcd3244672a76e48e,2021-07-29_22h39.02.054,Simcolourproject_2stim_asymm_v5,2020.2.10,Win32,60,61025ae37ef11b136ea224fe,,,,,,,,,2427,-80.79998976,42.39999419,1,0,0,response7disk,,1,-11.19998872,1.599993587,1,0,0,rectangle,-11.19998872,1.599993587,1,0,0,-11.19998872,1.599993587,1,0,0,1,71,231,158,1,,,,,,,,
,,,,,,,,,,,,,FF,,,,,,,,1.9167,,,,,,,,,,,,,,,,,,,,,,60fce0303eddb8283807967a,6103660bcd3244672a76e48e,2021-07-29_22h39.02.054,Simcolourproject_2stim_asymm_v5,2020.2.10,Win32,60,61025ae37ef11b136ea224fe,,,,,,,,,2899,46.40001214,-108.8000081,1,0,0,response3disk,,4,4.000011504,-8.800006568,1,0,0,rectangle,4.000011504,-8.800006568,1,0,0,4.000011504,-8.800006568,1,0,0,1,72,232,113,1,,,,,,,,
,,,,,,,,,,,,,FF,,,,,,,,1.1885,,,,,,,,,,,,,,,,,,,,,,60fce0303eddb8283807967a,6103660bcd3244672a76e48e,2021-07-29_22h39.02.054,Simcolourproject_2stim_asymm_v5,2020.2.10,Win32,60,61025ae37ef11b136ea224fe,,,,,,,,,394,40.00001204,-98.4000079,1,0,0,response3disk,,4,2.40001148,2.399993598,1,0,0,rectangle,2.40001148,2.399993598,1,0,0,2.40001148,2.399993598,1,0,0,1,73,233,51,1,,,,,,,,
,,,,,,,,,,,,,FF,,,,,,,,1.1833,,,,,,,,,,,,,,,,,,,,,,60fce0303eddb8283807967a,6103660bcd3244672a76e48e,2021-07-29_22h39.02.054,Simcolourproject_2stim_asymm_v5,2020.2.10,Win32,60,61025ae37ef11b136ea224fe,,,,,,,,,2981,53.60001224,-83.20000768,1,0,0,response3disk,,4,-1.59998858,-10.40000659,1,0,0,rectangle,-1.59998858,-10.40000659,1,0,0,-1.59998858,-10.40000659,1,0,0,1,74,234,54,1,,,,,,,,
,,,,,,,,,,,,,FF,,,,,,,,1.1159,,,,,,,,,,,,,,,,,,,,,,60fce0303eddb8283807967a,6103660bcd3244672a76e48e,2021-07-29_22h39.02.054,Simcolourproject_2stim_asymm_v5,2020.2.10,Win32,60,61025ae37ef11b136ea224fe,,,,,,,,,3581,116.0000132,-40.00000703,1,0,0,response3disk,,5,2.40001148,-6.400006533,1,0,0,rectangle,2.40001148,-6.400006533,1,0,0,2.40001148,-6.400006533,1,0,0,1,75,235,17,1,,,,,,,,
,,,,,,,,,,,,,FF,,,,,,,,4.2666,,,,,,,,,,,,,,,,,,,,,,60fce0303eddb8283807967a,6103660bcd3244672a76e48e,2021-07-29_22h39.02.054,Simcolourproject_2stim_asymm_v5,2020.2.10,Win32,60,61025ae37ef11b136ea224fe,,,,,,,,,1400,110.4000131,43.19996979,1,0,0,response1disk,,6,10.4000116,-3.200006485,1,0,0,rectangle,10.4000116,-3.200006485,1,0,0,10.4000116,-3.200006485,1,0,0,1,76,236,117,1,,,,,,,,
,,,,,,,,,,,,,FF,,,,,,,,2.2,,,,,,,,,,,,,,,,,,,,,,60fce0303eddb8283807967a,6103660bcd3244672a76e48e,2021-07-29_22h39.02.054,Simcolourproject_2stim_asymm_v5,2020.2.10,Win32,60,61025ae37ef11b136ea224fe,,,,,,,,,4034,-47.99998927,-104.800008,1,0,0,response5disk,,3,5.600060356,10.39999372,1,0,0,rectangle,5.600060356,10.39999372,1,0,0,5.600060356,10.39999372,1,0,0,1,77,237,101,1,,,,,,,,
,,,,,,,,,,,,,FF,,,,,,,,1.2999,,,,,,,,,,,,,,,,,,,,,,60fce0303eddb8283807967a,6103660bcd3244672a76e48e,2021-07-29_22h39.02.054,Simcolourproject_2stim_asymm_v5,2020.2.10,Win32,60,61025ae37ef11b136ea224fe,,,,,,,,,1423,55.20001227,-84.00000769,1,0,0,response3disk,,4,1.14441E-05,0.799993575,1,0,0,rectangle,1.14441E-05,0.799993575,1,0,0,1.14441E-05,0.799993575,1,0,0,1,78,238,58,1,,,,,,,,
,,,,,,,,,,,,,FF,,,,,,,,1.5665,,,,,,,,,,,,,,,,,,,,,,60fce0303eddb8283807967a,6103660bcd3244672a76e48e,2021-07-29_22h39.02.054,Simcolourproject_2stim_asymm_v5,2020.2.10,Win32,60,61025ae37ef11b136ea224fe,,,,,,,,,2128,108.0000131,-51.2000072,1,0,0,response3disk,,5,22.40001178,-4.000006497,1,0,0,rectangle,22.40001178,-4.000006497,1,0,0,22.40001178,-4.000006497,1,0,0,1,79,239,35,1,,,,,,,,
,,,,,,,,,,,,,FF,,,,,,,,1.0836,,,,,,,,,,,,,,,,,,,,,,60fce0303eddb8283807967a,6103660bcd3244672a76e48e,2021-07-29_22h39.02.054,Simcolourproject_2stim_asymm_v5,2020.2.10,Win32,60,61025ae37ef11b136ea224fe,,,,,,,,,3543,39.20001203,87.19997045,1,0,0,response1disk,,7,0.800011456,-1.600006461,1,0,0,rectangle,0.800011456,-1.600006461,1,0,0,0.800011456,-1.600006461,1,0,0,1,80,240,155,1,,,,,,,,
,,,,,,,,,,,,,FF,,,,,,,,1.5504,,,,,,,,,,,,,,,,,,,,,,60fce0303eddb8283807967a,6103660bcd3244672a76e48e,2021-07-29_22h39.02.054,Simcolourproject_2stim_asymm_v5,2020.2.10,Win32,60,61025ae37ef11b136ea224fe,,,,,,,,,3272,-24.79998893,-100.0000079,1,0,0,response5disk,,3,17.60006053,9.599993706,1,0,0,rectangle,17.60006053,9.599993706,1,0,0,17.60006053,9.599993706,1,0,0,1,81,241,27,1,,,,,,,,
,,,,,,,,,,,,,FF,,,,,,,,2.1997,,,,,,,,,,,,,,,,,,,,,,60fce0303eddb8283807967a,6103660bcd3244672a76e48e,2021-07-29_22h39.02.054,Simcolourproject_2stim_asymm_v5,2020.2.10,Win32,60,61025ae37ef11b136ea224fe,,,,,,,,,992,96.80001289,-65.60000741,1,0,0,response3disk,,5,16.80001169,-9.60000658,1,0,0,rectangle,16.80001169,-9.60000658,1,0,0,16.80001169,-9.60000658,1,0,0,1,82,242,45,1,,,,,,,,
,,,,,,,,,,,,,FF,,,,,,,,1.2671,,,,,,,,,,,,,,,,,,,,,,60fce0303eddb8283807967a,6103660bcd3244672a76e48e,2021-07-29_22h39.02.054,Simcolourproject_2stim_asymm_v5,2020.2.10,Win32,60,61025ae37ef11b136ea224fe,,,,,,,,,4245,-27.99998897,-96.00000787,1,0,0,response5disk,,3,16.00001168,2.399993598,1,0,0,rectangle,16.00001168,2.399993598,1,0,0,16.00001168,2.399993598,1,0,0,1,83,243,19,1,,,,,,,,
