key_resp.keys,key_resp.rt,key_resp_14.keys,key_resp_14.rt,key_resp_15.keys,key_resp_15.rt,key_resp_17.keys,key_resp_17.rt,key_resp_9.keys,key_resp_9.rt,key_resp_10.keys,key_resp_10.rt,practice_comparison,Ecc,mouse_5.x,mouse_5.y,mouse_5.leftButton,mouse_5.midButton,mouse_5.rightButton,mouse_5.clicked_name,pracsimilarity,response_time,mouse_10.x,mouse_10.y,mouse_10.leftButton,mouse_10.midButton,mouse_10.rightButton,mouse_10.clicked_name,mouse_7.x,mouse_7.y,mouse_7.leftButton,mouse_7.midButton,mouse_7.rightButton,mouse_6.x,mouse_6.y,mouse_6.leftButton,mouse_6.midButton,mouse_6.rightButton,duringprac.thisRepN,duringprac.thisTrialN,duringprac.thisN,duringprac.thisIndex,duringprac.ran,participant,session,date,expName,psychopyVersion,OS,frameRate,study_id,mouse_7.clicked_name,catchpracsimilarity,catch_response_time,catchnumberprac,catchtrialorderprac,mouse_6.clicked_name,key_resp_22.keys,key_resp_22.rt,realcomparison,mouse.x,mouse.y,mouse.leftButton,mouse.midButton,mouse.rightButton,mouse.clicked_name,Colour2,similarity,mouse_2.x,mouse_2.y,mouse_2.leftButton,mouse_2.midButton,mouse_2.rightButton,mouse_2.clicked_name,mouse_3.x,mouse_3.y,mouse_3.leftButton,mouse_3.midButton,mouse_3.rightButton,mouse_11.x,mouse_11.y,mouse_11.leftButton,mouse_11.midButton,mouse_11.rightButton,trials_2.thisRepN,trials_2.thisTrialN,trials_2.thisN,trials_2.thisIndex,trials_2.ran,Colour1,mouse_3.clicked_name,catchornah,catchsimilarity,catchnumber,catchtrialorder,catchRT,mouse_11.clicked_name
space,1.276,space,3.081,space,19.746,space,9.276,space,14.386,space,11.249,120,PF,37,69,1,0,0,response1disk_5,7,7.349,-3,-2,1,0,0,rectangle_8,-3,-2,1,0,0,-3,-2,1,0,0,0,0,0,1,1,60fc4d6e7ecc39361906af7c,61036e1ac3d9ba9972f153e6,2021-07-29_23h12.55.964,Simcolourproject_2stim_asymm_v5,2020.2.10,MacIntel,60,61025ae37ef11b136ea224fe,,,,,,,,,,,,,,,,,,,,,,,,,,,,,,,,,,,,,,,,,,,,,,
,,,,,,,,,,,,31,PF,-93,-37,1,0,0,response5disk_5,2,4.534,-11,4,1,0,0,rectangle_8,-57,-98,1,0,0,9,-8,1,0,0,0,1,1,4,1,60fc4d6e7ecc39361906af7c,61036e1ac3d9ba9972f153e6,2021-07-29_23h12.55.964,Simcolourproject_2stim_asymm_v5,2020.2.10,MacIntel,60,61025ae37ef11b136ea224fe,response5disk_7,3,3.134,3,"[2,5]",rectangle_4,,,,,,,,,,,,,,,,,,,,,,,,,,,,,,,,,,,,,,,,
,,,,,,,,,,,,62,PF,64,28,1,0,0,response1disk_5,6,3.366,-4,-4,1,0,0,rectangle_8,-4,-4,1,0,0,-4,-4,1,0,0,0,2,2,6,1,60fc4d6e7ecc39361906af7c,61036e1ac3d9ba9972f153e6,2021-07-29_23h12.55.964,Simcolourproject_2stim_asymm_v5,2020.2.10,MacIntel,60,61025ae37ef11b136ea224fe,,,,,,,,,,,,,,,,,,,,,,,,,,,,,,,,,,,,,,,,,,,,,,
,,,,,,,,,,,,149,FF,-61,-74,1,0,0,response5disk_5,3,1.901,-2,2,1,0,0,rectangle_8,-2,2,1,0,0,-2,2,1,0,0,0,3,3,0,1,60fc4d6e7ecc39361906af7c,61036e1ac3d9ba9972f153e6,2021-07-29_23h12.55.964,Simcolourproject_2stim_asymm_v5,2020.2.10,MacIntel,60,61025ae37ef11b136ea224fe,,,,,,,,,,,,,,,,,,,,,,,,,,,,,,,,,,,,,,,,,,,,,,
,,,,,,,,,,,,50,FF,34,57,1,0,0,response1disk_5,7,3.967,-10,-5,1,0,0,rectangle_8,-70,-96,1,0,0,-1,-6,1,0,0,0,4,4,3,1,60fc4d6e7ecc39361906af7c,61036e1ac3d9ba9972f153e6,2021-07-29_23h12.55.964,Simcolourproject_2stim_asymm_v5,2020.2.10,MacIntel,60,61025ae37ef11b136ea224fe,response5disk_7,3,2.516,3,"[2,5]",rectangle_4,,,,,,,,,,,,,,,,,,,,,,,,,,,,,,,,,,,,,,,,
,,,,,,,,,,,,134,PF,76,-52,1,0,0,response3disk_5,5,2.35,10,-7,1,0,0,rectangle_8,10,-7,1,0,0,10,-7,1,0,0,0,5,5,2,1,60fc4d6e7ecc39361906af7c,61036e1ac3d9ba9972f153e6,2021-07-29_23h12.55.964,Simcolourproject_2stim_asymm_v5,2020.2.10,MacIntel,60,61025ae37ef11b136ea224fe,,,,,,,,,,,,,,,,,,,,,,,,,,,,,,,,,,,,,,,,,,,,,,
,,,,,,,,,,,,19,FF,71,-38,1,0,0,response3disk_5,5,2.018,9,-1,1,0,0,rectangle_8,9,-1,1,0,0,9,-1,1,0,0,0,6,6,5,1,60fc4d6e7ecc39361906af7c,61036e1ac3d9ba9972f153e6,2021-07-29_23h12.55.964,Simcolourproject_2stim_asymm_v5,2020.2.10,MacIntel,60,61025ae37ef11b136ea224fe,,,,,,,,,,,,,,,,,,,,,,,,,,,,,,,,,,,,,,,,,,,,,,
,,,,,,,,,,,,,FF,,,,,,,,2.317,,,,,,,,,,,,,,,,,,,,,,60fc4d6e7ecc39361906af7c,61036e1ac3d9ba9972f153e6,2021-07-29_23h12.55.964,Simcolourproject_2stim_asymm_v5,2020.2.10,MacIntel,60,61025ae37ef11b136ea224fe,,,,,,,space,2.634,2407,87,46,1,0,0,response1disk,,6,19,-2,1,0,0,rectangle,19,-2,1,0,0,19,-2,1,0,0,0,0,0,141,1,,,,,,,,
,,,,,,,,,,,,,FF,,,,,,,,2.801,,,,,,,,,,,,,,,,,,,,,,60fc4d6e7ecc39361906af7c,61036e1ac3d9ba9972f153e6,2021-07-29_23h12.55.964,Simcolourproject_2stim_asymm_v5,2020.2.10,MacIntel,60,61025ae37ef11b136ea224fe,,,,,,,,,2254,67,53,1,0,0,response1disk,,6,-5,-5,1,0,0,rectangle,-5,-5,1,0,0,-5,-5,1,0,0,0,1,1,62,1,,,,,,,,
,,,,,,,,,,,,,FF,,,,,,,,0.868,,,,,,,,,,,,,,,,,,,,,,60fc4d6e7ecc39361906af7c,61036e1ac3d9ba9972f153e6,2021-07-29_23h12.55.964,Simcolourproject_2stim_asymm_v5,2020.2.10,MacIntel,60,61025ae37ef11b136ea224fe,,,,,,,,,2516,46,75,1,0,0,response1disk,,7,6,-4,1,0,0,rectangle,6,-4,1,0,0,6,-4,1,0,0,0,2,2,10,1,,,,,,,,
,,,,,,,,,,,,,FF,,,,,,,,1.25,,,,,,,,,,,,,,,,,,,,,,60fc4d6e7ecc39361906af7c,61036e1ac3d9ba9972f153e6,2021-07-29_23h12.55.964,Simcolourproject_2stim_asymm_v5,2020.2.10,MacIntel,60,61025ae37ef11b136ea224fe,,,,,,,,,304,86,23,1,0,0,response1disk,,6,22,-2,1,0,0,rectangle,22,-2,1,0,0,22,-2,1,0,0,0,3,3,120,1,,,,,,,,
,,,,,,,,,,,,,FF,,,,,,,,1.35,,,,,,,,,,,,,,,,,,,,,,60fc4d6e7ecc39361906af7c,61036e1ac3d9ba9972f153e6,2021-07-29_23h12.55.964,Simcolourproject_2stim_asymm_v5,2020.2.10,MacIntel,60,61025ae37ef11b136ea224fe,,,,,,,,,1199,37,-68,1,0,0,response3disk,,4,-10,-2,1,0,0,rectangle,-10,-2,1,0,0,-10,-2,1,0,0,0,4,4,33,1,,,,,,,,
,,,,,,,,,,,,,FF,,,,,,,,3.233,,,,,,,,,,,,,,,,,,,,,,60fc4d6e7ecc39361906af7c,61036e1ac3d9ba9972f153e6,2021-07-29_23h12.55.964,Simcolourproject_2stim_asymm_v5,2020.2.10,MacIntel,60,61025ae37ef11b136ea224fe,,,,,,,,,256,-30,-103,1,0,0,response5disk,,3,4,-8,1,0,0,rectangle,4,-8,1,0,0,4,-8,1,0,0,0,5,5,148,1,,,,,,,,
,,,,,,,,,,,,,FF,,,,,,,,1.284,,,,,,,,,,,,,,,,,,,,,,60fc4d6e7ecc39361906af7c,61036e1ac3d9ba9972f153e6,2021-07-29_23h12.55.964,Simcolourproject_2stim_asymm_v5,2020.2.10,MacIntel,60,61025ae37ef11b136ea224fe,,,,,,,,,792,44,81,1,0,0,response1disk,,7,-3,-3,1,0,0,rectangle,-3,-3,1,0,0,-3,-3,1,0,0,0,6,6,0,1,,,,,,,,
,,,,,,,,,,,,,FF,,,,,,,,1.55,,,,,,,,,,,,,,,,,,,,,,60fc4d6e7ecc39361906af7c,61036e1ac3d9ba9972f153e6,2021-07-29_23h12.55.964,Simcolourproject_2stim_asymm_v5,2020.2.10,MacIntel,60,61025ae37ef11b136ea224fe,,,,,,,,,1023,34,71,1,0,0,response1disk,,7,-1,6,1,0,0,rectangle,-1,6,1,0,0,-1,6,1,0,0,0,7,7,22,1,,,,,,,,
,,,,,,,,,,,,,FF,,,,,,,,2.084,,,,,,,,,,,,,,,,,,,,,,60fc4d6e7ecc39361906af7c,61036e1ac3d9ba9972f153e6,2021-07-29_23h12.55.964,Simcolourproject_2stim_asymm_v5,2020.2.10,MacIntel,60,61025ae37ef11b136ea224fe,,,,,,,,,1549,87,31,1,0,0,response1disk,,6,7,-5,1,0,0,rectangle,7,-5,1,0,0,7,-5,1,0,0,0,8,8,73,1,,,,,,,,
,,,,,,,,,,,,,FF,,,,,,,,1.516,,,,,,,,,,,,,,,,,,,,,,60fc4d6e7ecc39361906af7c,61036e1ac3d9ba9972f153e6,2021-07-29_23h12.55.964,Simcolourproject_2stim_asymm_v5,2020.2.10,MacIntel,60,61025ae37ef11b136ea224fe,,,,,,,,,2820,74,-37,1,0,0,response3disk,,5,18,2,1,0,0,rectangle,18,2,1,0,0,18,2,1,0,0,0,9,9,97,1,,,,,,,,
,,,,,,,,,,,,,FF,,,,,,,,4.383,,,,,,,,,,,,,,,,,,,,,,60fc4d6e7ecc39361906af7c,61036e1ac3d9ba9972f153e6,2021-07-29_23h12.55.964,Simcolourproject_2stim_asymm_v5,2020.2.10,MacIntel,60,61025ae37ef11b136ea224fe,,,,,,,,,906,61,-81,1,0,0,response3disk,,4,3,-2,1,0,0,rectangle,3,-2,1,0,0,3,-2,1,0,0,0,10,10,142,1,,,,,,,,
,,,,,,,,,,,,,FF,,,,,,,,3.016,,,,,,,,,,,,,,,,,,,,,,60fc4d6e7ecc39361906af7c,61036e1ac3d9ba9972f153e6,2021-07-29_23h12.55.964,Simcolourproject_2stim_asymm_v5,2020.2.10,MacIntel,60,61025ae37ef11b136ea224fe,,,,,,,,,1452,-73,55,1,0,0,response7disk,,1,-27,-7,1,0,0,rectangle,-27,-7,1,0,0,-27,-7,1,0,0,0,11,11,53,1,,,,,,,,
,,,,,,,,,,,,,FF,,,,,,,,2.8,,,,,,,,,,,,,,,,,,,,,,60fc4d6e7ecc39361906af7c,61036e1ac3d9ba9972f153e6,2021-07-29_23h12.55.964,Simcolourproject_2stim_asymm_v5,2020.2.10,MacIntel,60,61025ae37ef11b136ea224fe,,,,,,,,,1764,89,-21,1,0,0,response3disk,,5,11,0,1,0,0,rectangle,11,0,1,0,0,11,0,1,0,0,0,12,12,153,1,,,,,,,,
,,,,,,,,,,,,,FF,,,,,,,,1.1,,,,,,,,,,,,,,,,,,,,,,60fc4d6e7ecc39361906af7c,61036e1ac3d9ba9972f153e6,2021-07-29_23h12.55.964,Simcolourproject_2stim_asymm_v5,2020.2.10,MacIntel,60,61025ae37ef11b136ea224fe,,,,,,,,,3130,36,66,1,0,0,response1disk,,7,-5,6,1,0,0,rectangle,-5,6,1,0,0,-5,6,1,0,0,0,13,13,31,1,,,,,,,,
,,,,,,,,,,,,,FF,,,,,,,,0.966,,,,,,,,,,,,,,,,,,,,,,60fc4d6e7ecc39361906af7c,61036e1ac3d9ba9972f153e6,2021-07-29_23h12.55.964,Simcolourproject_2stim_asymm_v5,2020.2.10,MacIntel,60,61025ae37ef11b136ea224fe,,,,,,,,,794,43,72,1,0,0,response1disk,,7,19,10,1,0,0,rectangle,19,10,1,0,0,19,10,1,0,0,0,14,14,57,1,,,,,,,,
,,,,,,,,,,,,,FF,,,,,,,,1.667,,,,,,,,,,,,,,,,,,,,,,60fc4d6e7ecc39361906af7c,61036e1ac3d9ba9972f153e6,2021-07-29_23h12.55.964,Simcolourproject_2stim_asymm_v5,2020.2.10,MacIntel,60,61025ae37ef11b136ea224fe,,,,,,,,,902,33,-81,1,0,0,response3disk,,4,15,-3,1,0,0,rectangle,15,-3,1,0,0,15,-3,1,0,0,0,15,15,84,1,,,,,,,,
,,,,,,,,,,,,,FF,,,,,,,,3.634,,,,,,,,,,,,,,,,,,,,,,60fc4d6e7ecc39361906af7c,61036e1ac3d9ba9972f153e6,2021-07-29_23h12.55.964,Simcolourproject_2stim_asymm_v5,2020.2.10,MacIntel,60,61025ae37ef11b136ea224fe,,,,,,,,,2483,-25,-102,1,0,0,response5disk,,3,-12,-3,1,0,0,rectangle,-12,-3,1,0,0,-12,-3,1,0,0,0,16,16,67,1,,,,,,,,
,,,,,,,,,,,,,FF,,,,,,,,1.215,,,,,,,,,,,,,,,,,,,,,,60fc4d6e7ecc39361906af7c,61036e1ac3d9ba9972f153e6,2021-07-29_23h12.55.964,Simcolourproject_2stim_asymm_v5,2020.2.10,MacIntel,60,61025ae37ef11b136ea224fe,,,,,,,,,538,32,79,1,0,0,response1disk,,7,-2,-1,1,0,0,rectangle,-2,-1,1,0,0,-2,-1,1,0,0,0,17,17,107,1,,,,,,,,
,,,,,,,,,,,,,FF,,,,,,,,1.199,,,,,,,,,,,,,,,,,,,,,,60fc4d6e7ecc39361906af7c,61036e1ac3d9ba9972f153e6,2021-07-29_23h12.55.964,Simcolourproject_2stim_asymm_v5,2020.2.10,MacIntel,60,61025ae37ef11b136ea224fe,,,,,,,,,572,41,68,1,0,0,response1disk,,7,1,1,1,0,0,rectangle,1,1,1,0,0,1,1,1,0,0,0,18,18,88,1,,,,,,,,
,,,,,,,,,,,,,FF,,,,,,,,1.049,,,,,,,,,,,,,,,,,,,,,,60fc4d6e7ecc39361906af7c,61036e1ac3d9ba9972f153e6,2021-07-29_23h12.55.964,Simcolourproject_2stim_asymm_v5,2020.2.10,MacIntel,60,61025ae37ef11b136ea224fe,,,,,,,,,1913,51,77,1,0,0,response1disk,,7,14,2,1,0,0,rectangle,14,2,1,0,0,14,2,1,0,0,0,19,19,154,1,,,,,,,,
,,,,,,,,,,,,,FF,,,,,,,,1.649,,,,,,,,,,,,,,,,,,,,,,60fc4d6e7ecc39361906af7c,61036e1ac3d9ba9972f153e6,2021-07-29_23h12.55.964,Simcolourproject_2stim_asymm_v5,2020.2.10,MacIntel,60,61025ae37ef11b136ea224fe,,,,,,,,,3670,-72,40,1,0,0,response7disk,,1,-24,5,1,0,0,rectangle,-24,5,1,0,0,-24,5,1,0,0,0,20,20,96,1,,,,,,,,
,,,,,,,,,,,,,FF,,,,,,,,1.116,,,,,,,,,,,,,,,,,,,,,,60fc4d6e7ecc39361906af7c,61036e1ac3d9ba9972f153e6,2021-07-29_23h12.55.964,Simcolourproject_2stim_asymm_v5,2020.2.10,MacIntel,60,61025ae37ef11b136ea224fe,,,,,,,,,3276,62,70,1,0,0,response1disk,,7,20,4,1,0,0,rectangle,20,4,1,0,0,20,4,1,0,0,0,21,21,85,1,,,,,,,,
,,,,,,,,,,,,,FF,,,,,,,,0.651,,,,,,,,,,,,,,,,,,,,,,60fc4d6e7ecc39361906af7c,61036e1ac3d9ba9972f153e6,2021-07-29_23h12.55.964,Simcolourproject_2stim_asymm_v5,2020.2.10,MacIntel,60,61025ae37ef11b136ea224fe,,,,,,,,,3313,43,81,1,0,0,response1disk,,7,1,14,1,0,0,rectangle,1,14,1,0,0,1,14,1,0,0,0,22,22,79,1,,,,,,,,
,,,,,,,,,,,,,FF,,,,,,,,0.7,,,,,,,,,,,,,,,,,,,,,,60fc4d6e7ecc39361906af7c,61036e1ac3d9ba9972f153e6,2021-07-29_23h12.55.964,Simcolourproject_2stim_asymm_v5,2020.2.10,MacIntel,60,61025ae37ef11b136ea224fe,,,,,,,,,61,37,66,1,0,0,response1disk,,7,-2,7,1,0,0,rectangle,-2,7,1,0,0,-2,7,1,0,0,0,23,23,156,1,,,,,,,,
,,,,,,,,,,,,,FF,,,,,,,,0.903,,,,,,,,,,,,,,,,,,,,,,60fc4d6e7ecc39361906af7c,61036e1ac3d9ba9972f153e6,2021-07-29_23h12.55.964,Simcolourproject_2stim_asymm_v5,2020.2.10,MacIntel,60,61025ae37ef11b136ea224fe,,,,,,,,,4112,46,87,1,0,0,response1disk,,7,0,5,1,0,0,rectangle,0,5,1,0,0,0,5,1,0,0,0,24,24,6,1,,,,,,,,
,,,,,,,,,,,,,FF,,,,,,,,1.283,,,,,,,,,,,,,,,,,,,,,,60fc4d6e7ecc39361906af7c,61036e1ac3d9ba9972f153e6,2021-07-29_23h12.55.964,Simcolourproject_2stim_asymm_v5,2020.2.10,MacIntel,60,61025ae37ef11b136ea224fe,,,,,,,,,3166,70,39,1,0,0,response1disk,,6,6,8,1,0,0,rectangle,6,8,1,0,0,6,8,1,0,0,0,25,25,25,1,,,,,,,,
,,,,,,,,,,,,,FF,,,,,,,,0.551,,,,,,,,,,,,,,,,,,,,,,60fc4d6e7ecc39361906af7c,61036e1ac3d9ba9972f153e6,2021-07-29_23h12.55.964,Simcolourproject_2stim_asymm_v5,2020.2.10,MacIntel,60,61025ae37ef11b136ea224fe,,,,,,,,,2258,29,75,1,0,0,response1disk,,7,-5,11,1,0,0,rectangle,-5,11,1,0,0,-5,11,1,0,0,0,26,26,38,1,,,,,,,,
,,,,,,,,,,,,,FF,,,,,,,,1.366,,,,,,,,,,,,,,,,,,,,,,60fc4d6e7ecc39361906af7c,61036e1ac3d9ba9972f153e6,2021-07-29_23h12.55.964,Simcolourproject_2stim_asymm_v5,2020.2.10,MacIntel,60,61025ae37ef11b136ea224fe,,,,,,,,,1540,57,-25,1,0,0,response3disk,,5,3,6,1,0,0,rectangle,3,6,1,0,0,3,6,1,0,0,0,27,27,138,1,,,,,,,,
,,,,,,,,,,,,,FF,,,,,,,,0.782,,,,,,,,,,,,,,,,,,,,,,60fc4d6e7ecc39361906af7c,61036e1ac3d9ba9972f153e6,2021-07-29_23h12.55.964,Simcolourproject_2stim_asymm_v5,2020.2.10,MacIntel,60,61025ae37ef11b136ea224fe,,,,,,,,,1130,39,87,1,0,0,response1disk,,7,11,12,1,0,0,rectangle,11,12,1,0,0,11,12,1,0,0,0,28,28,19,1,,,,,,,,
,,,,,,,,,,,,,FF,,,,,,,,1.918,,,,,,,,,,,,,,,,,,,,,,60fc4d6e7ecc39361906af7c,61036e1ac3d9ba9972f153e6,2021-07-29_23h12.55.964,Simcolourproject_2stim_asymm_v5,2020.2.10,MacIntel,60,61025ae37ef11b136ea224fe,,,,,,,,,2032,42,-95,1,0,0,response3disk,,4,13,-4,1,0,0,rectangle,13,-4,1,0,0,13,-4,1,0,0,0,29,29,81,1,,,,,,,,
,,,,,,,,,,,,,FF,,,,,,,,0.883,,,,,,,,,,,,,,,,,,,,,,60fc4d6e7ecc39361906af7c,61036e1ac3d9ba9972f153e6,2021-07-29_23h12.55.964,Simcolourproject_2stim_asymm_v5,2020.2.10,MacIntel,60,61025ae37ef11b136ea224fe,,,,,,,,,623,21,65,1,0,0,response1disk,,7,-10,-1,1,0,0,rectangle,-10,-1,1,0,0,-10,-1,1,0,0,0,30,30,98,1,,,,,,,,
,,,,,,,,,,,,,FF,,,,,,,,1.033,,,,,,,,,,,,,,,,,,,,,,60fc4d6e7ecc39361906af7c,61036e1ac3d9ba9972f153e6,2021-07-29_23h12.55.964,Simcolourproject_2stim_asymm_v5,2020.2.10,MacIntel,60,61025ae37ef11b136ea224fe,,,,,,,,,443,-45,81,1,0,0,response7disk,,0,-16,14,1,0,0,rectangle,-16,14,1,0,0,-16,14,1,0,0,0,31,31,54,1,,,,,,,,
,,,,,,,,,,,,,FF,,,,,,,,0.699,,,,,,,,,,,,,,,,,,,,,,60fc4d6e7ecc39361906af7c,61036e1ac3d9ba9972f153e6,2021-07-29_23h12.55.964,Simcolourproject_2stim_asymm_v5,2020.2.10,MacIntel,60,61025ae37ef11b136ea224fe,,,,,,,,,2563,41,83,1,0,0,response1disk,,7,-3,1,1,0,0,rectangle,-3,1,1,0,0,-3,1,1,0,0,0,32,32,45,1,,,,,,,,
,,,,,,,,,,,,,FF,,,,,,,,0.55,,,,,,,,,,,,,,,,,,,,,,60fc4d6e7ecc39361906af7c,61036e1ac3d9ba9972f153e6,2021-07-29_23h12.55.964,Simcolourproject_2stim_asymm_v5,2020.2.10,MacIntel,60,61025ae37ef11b136ea224fe,,,,,,,,,1346,25,64,1,0,0,response1disk,,7,2,2,1,0,0,rectangle,2,2,1,0,0,2,2,1,0,0,0,33,33,150,1,,,,,,,,
,,,,,,,,,,,,,FF,,,,,,,,0.699,,,,,,,,,,,,,,,,,,,,,,60fc4d6e7ecc39361906af7c,61036e1ac3d9ba9972f153e6,2021-07-29_23h12.55.964,Simcolourproject_2stim_asymm_v5,2020.2.10,MacIntel,60,61025ae37ef11b136ea224fe,,,,,,,,,239,43,68,1,0,0,response1disk,,7,-3,-2,1,0,0,rectangle,-3,-2,1,0,0,-3,-2,1,0,0,0,34,34,157,1,,,,,,,,
,,,,,,,,,,,,,FF,,,,,,,,1.283,,,,,,,,,,,,,,,,,,,,,,60fc4d6e7ecc39361906af7c,61036e1ac3d9ba9972f153e6,2021-07-29_23h12.55.964,Simcolourproject_2stim_asymm_v5,2020.2.10,MacIntel,60,61025ae37ef11b136ea224fe,,,,,,,,,2489,85,-47,1,0,0,response3disk,,5,-2,-3,1,0,0,rectangle,-2,-3,1,0,0,-2,-3,1,0,0,0,35,35,115,1,,,,,,,,
,,,,,,,,,,,,,FF,,,,,,,,0.484,,,,,,,,,,,,,,,,,,,,,,60fc4d6e7ecc39361906af7c,61036e1ac3d9ba9972f153e6,2021-07-29_23h12.55.964,Simcolourproject_2stim_asymm_v5,2020.2.10,MacIntel,60,61025ae37ef11b136ea224fe,,,,,,,,,1340,47,67,1,0,0,response1disk,,7,4,4,1,0,0,rectangle,4,4,1,0,0,4,4,1,0,0,0,36,36,102,1,,,,,,,,
,,,,,,,,,,,,,FF,,,,,,,,6.216,,,,,,,,,,,,,,,,,,,,,,60fc4d6e7ecc39361906af7c,61036e1ac3d9ba9972f153e6,2021-07-29_23h12.55.964,Simcolourproject_2stim_asymm_v5,2020.2.10,MacIntel,60,61025ae37ef11b136ea224fe,,,,,,,,,2904,77,-43,1,0,0,response3disk,,5,30,13,1,0,0,rectangle,30,13,1,0,0,30,13,1,0,0,0,37,37,143,1,,,,,,,,
,,,,,,,,,,,,,FF,,,,,,,,1.567,,,,,,,,,,,,,,,,,,,,,,60fc4d6e7ecc39361906af7c,61036e1ac3d9ba9972f153e6,2021-07-29_23h12.55.964,Simcolourproject_2stim_asymm_v5,2020.2.10,MacIntel,60,61025ae37ef11b136ea224fe,,,,,,,,,3529,57,-85,1,0,0,response3disk,,4,13,3,1,0,0,rectangle,13,3,1,0,0,13,3,1,0,0,0,38,38,26,1,,,,,,,,
,,,,,,,,,,,,,FF,,,,,,,,0.55,,,,,,,,,,,,,,,,,,,,,,60fc4d6e7ecc39361906af7c,61036e1ac3d9ba9972f153e6,2021-07-29_23h12.55.964,Simcolourproject_2stim_asymm_v5,2020.2.10,MacIntel,60,61025ae37ef11b136ea224fe,,,,,,,,,3464,38,81,1,0,0,response1disk,,7,10,6,1,0,0,rectangle,10,6,1,0,0,10,6,1,0,0,0,39,39,114,1,,,,,,,,
,,,,,,,,,,,,,FF,,,,,,,,2.916,,,,,,,,,,,,,,,,,,,,,,60fc4d6e7ecc39361906af7c,61036e1ac3d9ba9972f153e6,2021-07-29_23h12.55.964,Simcolourproject_2stim_asymm_v5,2020.2.10,MacIntel,60,61025ae37ef11b136ea224fe,,,,,,,,,3661,-47,-92,1,0,0,response5disk,,3,-11,3,1,0,0,rectangle,-11,3,1,0,0,-11,3,1,0,0,0,40,40,70,1,,,,,,,,
,,,,,,,,,,,,,FF,,,,,,,,0.549,,,,,,,,,,,,,,,,,,,,,,60fc4d6e7ecc39361906af7c,61036e1ac3d9ba9972f153e6,2021-07-29_23h12.55.964,Simcolourproject_2stim_asymm_v5,2020.2.10,MacIntel,60,61025ae37ef11b136ea224fe,,,,,,,,,3601,48,79,1,0,0,response1disk,,7,7,8,1,0,0,rectangle,7,8,1,0,0,7,8,1,0,0,0,41,41,103,1,,,,,,,,
,,,,,,,,,,,,,FF,,,,,,,,0.683,,,,,,,,,,,,,,,,,,,,,,60fc4d6e7ecc39361906af7c,61036e1ac3d9ba9972f153e6,2021-07-29_23h12.55.964,Simcolourproject_2stim_asymm_v5,2020.2.10,MacIntel,60,61025ae37ef11b136ea224fe,,,,,,,,,2023,36,85,1,0,0,response1disk,,7,0,1,1,0,0,rectangle,0,1,1,0,0,0,1,1,0,0,0,42,42,40,1,,,,,,,,
,,,,,,,,,,,,,FF,,,,,,,,0.549,,,,,,,,,,,,,,,,,,,,,,60fc4d6e7ecc39361906af7c,61036e1ac3d9ba9972f153e6,2021-07-29_23h12.55.964,Simcolourproject_2stim_asymm_v5,2020.2.10,MacIntel,60,61025ae37ef11b136ea224fe,,,,,,,,,3327,34,65,1,0,0,response1disk,,7,-5,-7,1,0,0,rectangle,-5,-7,1,0,0,-5,-7,1,0,0,0,43,43,5,1,,,,,,,,
,,,,,,,,,,,,,FF,,,,,,,,0.583,,,,,,,,,,,,,,,,,,,,,,60fc4d6e7ecc39361906af7c,61036e1ac3d9ba9972f153e6,2021-07-29_23h12.55.964,Simcolourproject_2stim_asymm_v5,2020.2.10,MacIntel,60,61025ae37ef11b136ea224fe,,,,,,,,,43,30,77,1,0,0,response1disk,,7,-7,-3,1,0,0,rectangle,-7,-3,1,0,0,-7,-3,1,0,0,0,44,44,61,1,,,,,,,,
,,,,,,,,,,,,,FF,,,,,,,,0.949,,,,,,,,,,,,,,,,,,,,,,60fc4d6e7ecc39361906af7c,61036e1ac3d9ba9972f153e6,2021-07-29_23h12.55.964,Simcolourproject_2stim_asymm_v5,2020.2.10,MacIntel,60,61025ae37ef11b136ea224fe,,,,,,,,,21,57,88,1,0,0,response1disk,,7,-9,-2,1,0,0,rectangle,-9,-2,1,0,0,-9,-2,1,0,0,0,45,45,15,1,,,,,,,,
,,,,,,,,,,,,,FF,,,,,,,,1.984,,,,,,,,,,,,,,,,,,,,,,60fc4d6e7ecc39361906af7c,61036e1ac3d9ba9972f153e6,2021-07-29_23h12.55.964,Simcolourproject_2stim_asymm_v5,2020.2.10,MacIntel,60,61025ae37ef11b136ea224fe,,,,,,,,,2678,43,69,1,0,0,response1disk,,7,-14,-6,1,0,0,rectangle,-14,-6,1,0,0,-14,-6,1,0,0,0,46,46,47,1,,,,,,,,
,,,,,,,,,,,,,FF,,,,,,,,0.649,,,,,,,,,,,,,,,,,,,,,,60fc4d6e7ecc39361906af7c,61036e1ac3d9ba9972f153e6,2021-07-29_23h12.55.964,Simcolourproject_2stim_asymm_v5,2020.2.10,MacIntel,60,61025ae37ef11b136ea224fe,,,,,,,,,709,32,99,1,0,0,response1disk,,7,-16,4,1,0,0,rectangle,-16,4,1,0,0,-16,4,1,0,0,0,47,47,3,1,,,,,,,,
,,,,,,,,,,,,,FF,,,,,,,,0.617,,,,,,,,,,,,,,,,,,,,,,60fc4d6e7ecc39361906af7c,61036e1ac3d9ba9972f153e6,2021-07-29_23h12.55.964,Simcolourproject_2stim_asymm_v5,2020.2.10,MacIntel,60,61025ae37ef11b136ea224fe,,,,,,,,,3879,39,68,1,0,0,response1disk,,7,11,-4,1,0,0,rectangle,11,-4,1,0,0,11,-4,1,0,0,0,48,48,75,1,,,,,,,,
,,,,,,,,,,,,,FF,,,,,,,,0.401,,,,,,,,,,,,,,,,,,,,,,60fc4d6e7ecc39361906af7c,61036e1ac3d9ba9972f153e6,2021-07-29_23h12.55.964,Simcolourproject_2stim_asymm_v5,2020.2.10,MacIntel,60,61025ae37ef11b136ea224fe,,,,,,,,,3699,35,60,1,0,0,response1disk,,7,9,2,1,0,0,rectangle,9,2,1,0,0,9,2,1,0,0,0,49,49,147,1,,,,,,,,
,,,,,,,,,,,,,FF,,,,,,,,0.517,,,,,,,,,,,,,,,,,,,,,,60fc4d6e7ecc39361906af7c,61036e1ac3d9ba9972f153e6,2021-07-29_23h12.55.964,Simcolourproject_2stim_asymm_v5,2020.2.10,MacIntel,60,61025ae37ef11b136ea224fe,,,,,,,,,1873,35,52,1,0,0,response1disk,,7,11,4,1,0,0,rectangle,11,4,1,0,0,11,4,1,0,0,0,50,50,95,1,,,,,,,,
,,,,,,,,,,,,,FF,,,,,,,,0.417,,,,,,,,,,,,,,,,,,,,,,60fc4d6e7ecc39361906af7c,61036e1ac3d9ba9972f153e6,2021-07-29_23h12.55.964,Simcolourproject_2stim_asymm_v5,2020.2.10,MacIntel,60,61025ae37ef11b136ea224fe,,,,,,,,,2958,55,77,1,0,0,response1disk,,7,2,-4,1,0,0,rectangle,2,-4,1,0,0,2,-4,1,0,0,0,51,51,134,1,,,,,,,,
,,,,,,,,,,,,,FF,,,,,,,,0.934,,,,,,,,,,,,,,,,,,,,,,60fc4d6e7ecc39361906af7c,61036e1ac3d9ba9972f153e6,2021-07-29_23h12.55.964,Simcolourproject_2stim_asymm_v5,2020.2.10,MacIntel,60,61025ae37ef11b136ea224fe,,,,,,,,,3336,-42,73,1,0,0,response7disk,,0,-15,6,1,0,0,rectangle,44,80,1,0,0,-8,7,1,0,0,0,52,52,139,1,,response1disk_3,TRUE,7,7,"[110,217,288,123,113,73,88,163,286,225,53,257,142,266,306,72,175,175,161,259]",1.633,rectangle
,,,,,,,,,,,,,FF,,,,,,,,1.467,,,,,,,,,,,,,,,,,,,,,,60fc4d6e7ecc39361906af7c,61036e1ac3d9ba9972f153e6,2021-07-29_23h12.55.964,Simcolourproject_2stim_asymm_v5,2020.2.10,MacIntel,60,61025ae37ef11b136ea224fe,,,,,,,,,4333,-30,53,1,0,0,response7disk,,0,-17,-2,1,0,0,rectangle,-17,-2,1,0,0,-17,-2,1,0,0,0,53,53,124,1,,,,,,,,
,,,,,,,,,,,,,FF,,,,,,,,0.833,,,,,,,,,,,,,,,,,,,,,,60fc4d6e7ecc39361906af7c,61036e1ac3d9ba9972f153e6,2021-07-29_23h12.55.964,Simcolourproject_2stim_asymm_v5,2020.2.10,MacIntel,60,61025ae37ef11b136ea224fe,,,,,,,,,1983,39,71,1,0,0,response1disk,,7,32,11,1,0,0,rectangle,32,11,1,0,0,32,11,1,0,0,0,54,54,7,1,,,,,,,,
,,,,,,,,,,,,,FF,,,,,,,,0.434,,,,,,,,,,,,,,,,,,,,,,60fc4d6e7ecc39361906af7c,61036e1ac3d9ba9972f153e6,2021-07-29_23h12.55.964,Simcolourproject_2stim_asymm_v5,2020.2.10,MacIntel,60,61025ae37ef11b136ea224fe,,,,,,,,,2858,41,58,1,0,0,response1disk,,7,19,12,1,0,0,rectangle,19,12,1,0,0,19,12,1,0,0,0,55,55,78,1,,,,,,,,
,,,,,,,,,,,,,FF,,,,,,,,0.7,,,,,,,,,,,,,,,,,,,,,,60fc4d6e7ecc39361906af7c,61036e1ac3d9ba9972f153e6,2021-07-29_23h12.55.964,Simcolourproject_2stim_asymm_v5,2020.2.10,MacIntel,60,61025ae37ef11b136ea224fe,,,,,,,,,32,49,70,1,0,0,response1disk,,7,26,14,1,0,0,rectangle,26,14,1,0,0,26,14,1,0,0,0,56,56,109,1,,,,,,,,
,,,,,,,,,,,,,FF,,,,,,,,0.984,,,,,,,,,,,,,,,,,,,,,,60fc4d6e7ecc39361906af7c,61036e1ac3d9ba9972f153e6,2021-07-29_23h12.55.964,Simcolourproject_2stim_asymm_v5,2020.2.10,MacIntel,60,61025ae37ef11b136ea224fe,,,,,,,,,4224,-52,-71,1,0,0,response5disk,,3,-24,1,1,0,0,rectangle,-24,1,1,0,0,-24,1,1,0,0,0,57,57,43,1,,,,,,,,
,,,,,,,,,,,,,FF,,,,,,,,0.415,,,,,,,,,,,,,,,,,,,,,,60fc4d6e7ecc39361906af7c,61036e1ac3d9ba9972f153e6,2021-07-29_23h12.55.964,Simcolourproject_2stim_asymm_v5,2020.2.10,MacIntel,60,61025ae37ef11b136ea224fe,,,,,,,,,2257,29,86,1,0,0,response1disk,,7,-8,0,1,0,0,rectangle,-8,0,1,0,0,-8,0,1,0,0,0,58,58,118,1,,,,,,,,
,,,,,,,,,,,,,FF,,,,,,,,0.867,,,,,,,,,,,,,,,,,,,,,,60fc4d6e7ecc39361906af7c,61036e1ac3d9ba9972f153e6,2021-07-29_23h12.55.964,Simcolourproject_2stim_asymm_v5,2020.2.10,MacIntel,60,61025ae37ef11b136ea224fe,,,,,,,,,424,37,77,1,0,0,response1disk,,7,11,6,1,0,0,rectangle,11,6,1,0,0,11,6,1,0,0,0,59,59,123,1,,,,,,,,
,,,,,,,,,,,,,FF,,,,,,,,1.166,,,,,,,,,,,,,,,,,,,,,,60fc4d6e7ecc39361906af7c,61036e1ac3d9ba9972f153e6,2021-07-29_23h12.55.964,Simcolourproject_2stim_asymm_v5,2020.2.10,MacIntel,60,61025ae37ef11b136ea224fe,,,,,,,,,1409,71,42,1,0,0,response1disk,,6,-1,-11,1,0,0,rectangle,-1,-11,1,0,0,-1,-11,1,0,0,0,60,60,132,1,,,,,,,,
,,,,,,,,,,,,,FF,,,,,,,,0.782,,,,,,,,,,,,,,,,,,,,,,60fc4d6e7ecc39361906af7c,61036e1ac3d9ba9972f153e6,2021-07-29_23h12.55.964,Simcolourproject_2stim_asymm_v5,2020.2.10,MacIntel,60,61025ae37ef11b136ea224fe,,,,,,,,,133,32,61,1,0,0,response1disk,,7,-2,12,1,0,0,rectangle,-2,12,1,0,0,-2,12,1,0,0,0,61,61,105,1,,,,,,,,
,,,,,,,,,,,,,FF,,,,,,,,1.899,,,,,,,,,,,,,,,,,,,,,,60fc4d6e7ecc39361906af7c,61036e1ac3d9ba9972f153e6,2021-07-29_23h12.55.964,Simcolourproject_2stim_asymm_v5,2020.2.10,MacIntel,60,61025ae37ef11b136ea224fe,,,,,,,,,275,42,95,1,0,0,response1disk,,7,-6,9,1,0,0,rectangle,-6,9,1,0,0,-6,9,1,0,0,0,62,62,110,1,,,,,,,,
,,,,,,,,,,,,,FF,,,,,,,,1.15,,,,,,,,,,,,,,,,,,,,,,60fc4d6e7ecc39361906af7c,61036e1ac3d9ba9972f153e6,2021-07-29_23h12.55.964,Simcolourproject_2stim_asymm_v5,2020.2.10,MacIntel,60,61025ae37ef11b136ea224fe,,,,,,,,,4172,27,73,1,0,0,response1disk,,7,-4,5,1,0,0,rectangle,-4,5,1,0,0,-4,5,1,0,0,0,63,63,119,1,,,,,,,,
,,,,,,,,,,,,,FF,,,,,,,,0.966,,,,,,,,,,,,,,,,,,,,,,60fc4d6e7ecc39361906af7c,61036e1ac3d9ba9972f153e6,2021-07-29_23h12.55.964,Simcolourproject_2stim_asymm_v5,2020.2.10,MacIntel,60,61025ae37ef11b136ea224fe,,,,,,,,,1534,44,78,1,0,0,response1disk,,7,-2,11,1,0,0,rectangle,-2,11,1,0,0,-2,11,1,0,0,0,64,64,71,1,,,,,,,,
,,,,,,,,,,,,,FF,,,,,,,,1.482,,,,,,,,,,,,,,,,,,,,,,60fc4d6e7ecc39361906af7c,61036e1ac3d9ba9972f153e6,2021-07-29_23h12.55.964,Simcolourproject_2stim_asymm_v5,2020.2.10,MacIntel,60,61025ae37ef11b136ea224fe,,,,,,,,,2832,-77,-39,1,0,0,response5disk,,2,4,1,1,0,0,rectangle,4,1,1,0,0,4,1,1,0,0,0,65,65,108,1,,,,,,,,
,,,,,,,,,,,,,FF,,,,,,,,0.45,,,,,,,,,,,,,,,,,,,,,,60fc4d6e7ecc39361906af7c,61036e1ac3d9ba9972f153e6,2021-07-29_23h12.55.964,Simcolourproject_2stim_asymm_v5,2020.2.10,MacIntel,60,61025ae37ef11b136ea224fe,,,,,,,,,4007,36,69,1,0,0,response1disk,,7,20,10,1,0,0,rectangle,20,10,1,0,0,20,10,1,0,0,0,66,66,37,1,,,,,,,,
,,,,,,,,,,,,,FF,,,,,,,,1.182,,,,,,,,,,,,,,,,,,,,,,60fc4d6e7ecc39361906af7c,61036e1ac3d9ba9972f153e6,2021-07-29_23h12.55.964,Simcolourproject_2stim_asymm_v5,2020.2.10,MacIntel,60,61025ae37ef11b136ea224fe,,,,,,,,,2587,40,73,1,0,0,response1disk,,7,3,11,1,0,0,rectangle,3,11,1,0,0,3,11,1,0,0,0,67,67,99,1,,,,,,,,
,,,,,,,,,,,,,FF,,,,,,,,1,,,,,,,,,,,,,,,,,,,,,,60fc4d6e7ecc39361906af7c,61036e1ac3d9ba9972f153e6,2021-07-29_23h12.55.964,Simcolourproject_2stim_asymm_v5,2020.2.10,MacIntel,60,61025ae37ef11b136ea224fe,,,,,,,,,3710,82,35,1,0,0,response1disk,,6,-4,-12,1,0,0,rectangle,-4,-12,1,0,0,-4,-12,1,0,0,0,68,68,131,1,,,,,,,,
,,,,,,,,,,,,,FF,,,,,,,,1.165,,,,,,,,,,,,,,,,,,,,,,60fc4d6e7ecc39361906af7c,61036e1ac3d9ba9972f153e6,2021-07-29_23h12.55.964,Simcolourproject_2stim_asymm_v5,2020.2.10,MacIntel,60,61025ae37ef11b136ea224fe,,,,,,,,,1815,-35,70,1,0,0,response7disk,,0,17,-10,1,0,0,rectangle,17,-10,1,0,0,17,-10,1,0,0,0,69,69,13,1,,,,,,,,
,,,,,,,,,,,,,FF,,,,,,,,0.9,,,,,,,,,,,,,,,,,,,,,,60fc4d6e7ecc39361906af7c,61036e1ac3d9ba9972f153e6,2021-07-29_23h12.55.964,Simcolourproject_2stim_asymm_v5,2020.2.10,MacIntel,60,61025ae37ef11b136ea224fe,,,,,,,,,1338,35,78,1,0,0,response1disk,,7,-10,-10,1,0,0,rectangle,-10,-10,1,0,0,-10,-10,1,0,0,0,70,70,82,1,,,,,,,,
,,,,,,,,,,,,,FF,,,,,,,,0.967,,,,,,,,,,,,,,,,,,,,,,60fc4d6e7ecc39361906af7c,61036e1ac3d9ba9972f153e6,2021-07-29_23h12.55.964,Simcolourproject_2stim_asymm_v5,2020.2.10,MacIntel,60,61025ae37ef11b136ea224fe,,,,,,,,,2408,21,66,1,0,0,response1disk,,7,-9,16,1,0,0,rectangle,-34,91,1,0,0,-8,5,1,0,0,0,71,71,14,1,,response7disk_3,TRUE,0,0,"[110,217,288,123,113,73,88,163,286,225,53,257,142,266,306,72,175,175,161,259]",1.516,rectangle
,,,,,,,,,,,,,FF,,,,,,,,2.05,,,,,,,,,,,,,,,,,,,,,,60fc4d6e7ecc39361906af7c,61036e1ac3d9ba9972f153e6,2021-07-29_23h12.55.964,Simcolourproject_2stim_asymm_v5,2020.2.10,MacIntel,60,61025ae37ef11b136ea224fe,,,,,,,,,3422,44,-83,1,0,0,response3disk,,4,10,-1,1,0,0,rectangle,-74,42,1,0,0,-11,4,1,0,0,0,72,72,77,1,,response7disk_3,TRUE,1,1,"[110,217,288,123,113,73,88,163,286,225,53,257,142,266,306,72,175,175,161,259]",1.349,rectangle
,,,,,,,,,,,,,FF,,,,,,,,1.434,,,,,,,,,,,,,,,,,,,,,,60fc4d6e7ecc39361906af7c,61036e1ac3d9ba9972f153e6,2021-07-29_23h12.55.964,Simcolourproject_2stim_asymm_v5,2020.2.10,MacIntel,60,61025ae37ef11b136ea224fe,,,,,,,,,2892,-47,-77,1,0,0,response5disk,,3,-7,-11,1,0,0,rectangle,-7,-11,1,0,0,-7,-11,1,0,0,0,73,73,4,1,,,,,,,,
,,,,,,,,,,,,,FF,,,,,,,,1.066,,,,,,,,,,,,,,,,,,,,,,60fc4d6e7ecc39361906af7c,61036e1ac3d9ba9972f153e6,2021-07-29_23h12.55.964,Simcolourproject_2stim_asymm_v5,2020.2.10,MacIntel,60,61025ae37ef11b136ea224fe,,,,,,,,,3885,34,65,1,0,0,response1disk,,7,-14,-5,1,0,0,rectangle,-14,-5,1,0,0,-14,-5,1,0,0,0,74,74,144,1,,,,,,,,
,,,,,,,,,,,,,FF,,,,,,,,1.265,,,,,,,,,,,,,,,,,,,,,,60fc4d6e7ecc39361906af7c,61036e1ac3d9ba9972f153e6,2021-07-29_23h12.55.964,Simcolourproject_2stim_asymm_v5,2020.2.10,MacIntel,60,61025ae37ef11b136ea224fe,,,,,,,,,3440,47,-62,1,0,0,response3disk,,4,12,4,1,0,0,rectangle,12,4,1,0,0,12,4,1,0,0,0,75,75,20,1,,,,,,,,
,,,,,,,,,,,,,FF,,,,,,,,1.684,,,,,,,,,,,,,,,,,,,,,,60fc4d6e7ecc39361906af7c,61036e1ac3d9ba9972f153e6,2021-07-29_23h12.55.964,Simcolourproject_2stim_asymm_v5,2020.2.10,MacIntel,60,61025ae37ef11b136ea224fe,,,,,,,,,3208,69,-59,1,0,0,response3disk,,5,23,-3,1,0,0,rectangle,23,-3,1,0,0,23,-3,1,0,0,0,76,76,9,1,,,,,,,,
,,,,,,,,,,,,,FF,,,,,,,,2.783,,,,,,,,,,,,,,,,,,,,,,60fc4d6e7ecc39361906af7c,61036e1ac3d9ba9972f153e6,2021-07-29_23h12.55.964,Simcolourproject_2stim_asymm_v5,2020.2.10,MacIntel,60,61025ae37ef11b136ea224fe,,,,,,,,,2736,79,-62,1,0,0,response3disk,,5,6,6,1,0,0,rectangle,6,6,1,0,0,6,6,1,0,0,0,77,77,35,1,,,,,,,,
,,,,,,,,,,,,,FF,,,,,,,,0.65,,,,,,,,,,,,,,,,,,,,,,60fc4d6e7ecc39361906af7c,61036e1ac3d9ba9972f153e6,2021-07-29_23h12.55.964,Simcolourproject_2stim_asymm_v5,2020.2.10,MacIntel,60,61025ae37ef11b136ea224fe,,,,,,,,,215,18,73,1,0,0,response1disk,,7,14,-6,1,0,0,rectangle,14,-6,1,0,0,14,-6,1,0,0,0,78,78,140,1,,,,,,,,
,,,,,,,,,,,,,FF,,,,,,,,0.584,,,,,,,,,,,,,,,,,,,,,,60fc4d6e7ecc39361906af7c,61036e1ac3d9ba9972f153e6,2021-07-29_23h12.55.964,Simcolourproject_2stim_asymm_v5,2020.2.10,MacIntel,60,61025ae37ef11b136ea224fe,,,,,,,,,1718,33,79,1,0,0,response1disk,,7,12,7,1,0,0,rectangle,12,7,1,0,0,12,7,1,0,0,0,79,79,58,1,,,,,,,,
