key_resp.keys,key_resp.rt,key_resp_14.keys,key_resp_14.rt,key_resp_15.keys,key_resp_15.rt,key_resp_17.keys,key_resp_17.rt,key_resp_9.keys,key_resp_9.rt,key_resp_10.keys,key_resp_10.rt,practice_comparison,Ecc,mouse_5.x,mouse_5.y,mouse_5.leftButton,mouse_5.midButton,mouse_5.rightButton,mouse_5.clicked_name,pracsimilarity,response_time,mouse_10.x,mouse_10.y,mouse_10.leftButton,mouse_10.midButton,mouse_10.rightButton,mouse_10.clicked_name,mouse_7.x,mouse_7.y,mouse_7.leftButton,mouse_7.midButton,mouse_7.rightButton,mouse_6.x,mouse_6.y,mouse_6.leftButton,mouse_6.midButton,mouse_6.rightButton,duringprac.thisRepN,duringprac.thisTrialN,duringprac.thisN,duringprac.thisIndex,duringprac.ran,participant,session,date,expName,psychopyVersion,OS,frameRate,study_id,mouse_7.clicked_name,catchpracsimilarity,catch_response_time,catchnumberprac,catchtrialorderprac,mouse_6.clicked_name,key_resp_22.keys,key_resp_22.rt,realcomparison,mouse.x,mouse.y,mouse.leftButton,mouse.midButton,mouse.rightButton,mouse.clicked_name,Colour2,similarity,mouse_2.x,mouse_2.y,mouse_2.leftButton,mouse_2.midButton,mouse_2.rightButton,mouse_2.clicked_name,mouse_3.x,mouse_3.y,mouse_3.leftButton,mouse_3.midButton,mouse_3.rightButton,mouse_11.x,mouse_11.y,mouse_11.leftButton,mouse_11.midButton,mouse_11.rightButton,trials_2.thisRepN,trials_2.thisTrialN,trials_2.thisN,trials_2.thisIndex,trials_2.ran,Colour1,mouse_3.clicked_name,catchornah,catchsimilarity,catchnumber,catchtrialorder,catchRT,mouse_11.clicked_name
space,1.2358,space,15.0366,space,18.6764,space,4.5818,space,3.0492,space,3.4336,80,FF,67.20001245,92.79999495,1,0,0,response1disk_5,7,5.1966,-1.199988574,3.19999361,1,0,0,rectangle_8,-1.199988574,3.19999361,1,0,0,-1.199988574,3.19999361,1,0,0,0,0,0,5,1,60fcfc1aa407beaf778db045,61036deaf0989bee0bac8e33,2021-07-29_20h12.15.434,Simcolourproject_2stim_asymm_v5,2020.2.10,Win32,60,61025ae37ef11b136ea224fe,,,,,,,,,,,,,,,,,,,,,,,,,,,,,,,,,,,,,,,,,,,,,,
,,,,,,,,,,,,159,FF,39.20001203,-82.00000766,1,0,0,response3disk_5,4,6.7658,-3.199988604,6.799993664,1,0,0,rectangle_8,-76.7999897,-35.20000696,1,0,0,15.20001167,9.999993712,1,0,0,0,1,1,3,1,60fcfc1aa407beaf778db045,61036deaf0989bee0bac8e33,2021-07-29_20h12.15.434,Simcolourproject_2stim_asymm_v5,2020.2.10,Win32,60,61025ae37ef11b136ea224fe,response5disk_7,2,2.5318,2,"[2,5]",rectangle_4,,,,,,,,,,,,,,,,,,,,,,,,,,,,,,,,,,,,,,,,
,,,,,,,,,,,,22,PF,62.40001237,-97.60005672,1,0,0,response3disk_5,4,5.0165,-3.59998861,2.799993604,1,0,0,rectangle_8,-3.59998861,2.799993604,1,0,0,-3.59998861,2.799993604,1,0,0,0,2,2,1,1,60fcfc1aa407beaf778db045,61036deaf0989bee0bac8e33,2021-07-29_20h12.15.434,Simcolourproject_2stim_asymm_v5,2020.2.10,Win32,60,61025ae37ef11b136ea224fe,,,,,,,,,,,,,,,,,,,,,,,,,,,,,,,,,,,,,,,,,,,,,,
,,,,,,,,,,,,84,PF,-34.79998907,-70.40000749,1,0,0,response5disk_5,3,2.1359,2.000011474,11.19999373,1,0,0,rectangle_8,2.000011474,11.19999373,1,0,0,2.000011474,11.19999373,1,0,0,0,3,3,4,1,60fcfc1aa407beaf778db045,61036deaf0989bee0bac8e33,2021-07-29_20h12.15.434,Simcolourproject_2stim_asymm_v5,2020.2.10,Win32,60,61025ae37ef11b136ea224fe,,,,,,,,,,,,,,,,,,,,,,,,,,,,,,,,,,,,,,,,,,,,,,
,,,,,,,,,,,,33,PF,27.20001185,-77.60000759,1,0,0,response3disk_5,4,2.6323,14.80001166,-2.800006479,1,0,0,rectangle_8,-77.59998971,-32.80000693,1,0,0,-5.599988639,1.599993587,1,0,0,0,4,4,2,1,60fcfc1aa407beaf778db045,61036deaf0989bee0bac8e33,2021-07-29_20h12.15.434,Simcolourproject_2stim_asymm_v5,2020.2.10,Win32,60,61025ae37ef11b136ea224fe,response5disk_7,2,2.3332,2,"[2,5]",rectangle_4,,,,,,,,,,,,,,,,,,,,,,,,,,,,,,,,,,,,,,,,
,,,,,,,,,,,,25,PF,-69.59998959,-34.00000694,1,0,0,response5disk_5,2,2.8485,-7.199988663,-0.400006443,1,0,0,rectangle_8,-7.199988663,-0.400006443,1,0,0,-7.199988663,-0.400006443,1,0,0,0,5,5,6,1,60fcfc1aa407beaf778db045,61036deaf0989bee0bac8e33,2021-07-29_20h12.15.434,Simcolourproject_2stim_asymm_v5,2020.2.10,Win32,60,61025ae37ef11b136ea224fe,,,,,,,,,,,,,,,,,,,,,,,,,,,,,,,,,,,,,,,,,,,,,,
,,,,,,,,,,,,116,FF,-34.79998907,-78.0000076,1,0,0,response5disk_5,3,1.6506,-3.59998861,-7.600006551,1,0,0,rectangle_8,-3.59998861,-7.600006551,1,0,0,-3.59998861,-7.600006551,1,0,0,0,6,6,0,1,60fcfc1aa407beaf778db045,61036deaf0989bee0bac8e33,2021-07-29_20h12.15.434,Simcolourproject_2stim_asymm_v5,2020.2.10,Win32,60,61025ae37ef11b136ea224fe,,,,,,,,,,,,,,,,,,,,,,,,,,,,,,,,,,,,,,,,,,,,,,
,,,,,,,,,,,,,FF,,,,,,,,1.4675,,,,,,,,,,,,,,,,,,,,,,60fcfc1aa407beaf778db045,61036deaf0989bee0bac8e33,2021-07-29_20h12.15.434,Simcolourproject_2stim_asymm_v5,2020.2.10,Win32,60,61025ae37ef11b136ea224fe,,,,,,,space,2.4677,3783,-31.59998903,-68.00000745,1,0,0,response5disk,,3,11.60006045,5.599993646,1,0,0,rectangle,11.60006045,5.599993646,1,0,0,11.60006045,5.599993646,1,0,0,0,0,0,20,1,,,,,,,,
,,,,,,,,,,,,,FF,,,,,,,,2.2666,,,,,,,,,,,,,,,,,,,,,,60fcfc1aa407beaf778db045,61036deaf0989bee0bac8e33,2021-07-29_20h12.15.434,Simcolourproject_2stim_asymm_v5,2020.2.10,Win32,60,61025ae37ef11b136ea224fe,,,,,,,,,2915,71.60001251,-48.00000715,1,0,0,response3disk,,5,15.6000605,-6.4373E-06,1,0,0,rectangle,-90.79998991,-30.00000688,1,0,0,-9.999988705,-9.200006574,1,0,0,0,1,1,31,1,,response5disk_3,TRUE,2,2,"[246,310,245,267,75,278,2,257,285,66,25,53,206,186,138,186,312,298,24,97]",1.765,rectangle
,,,,,,,,,,,,,FF,,,,,,,,4.7522,,,,,,,,,,,,,,,,,,,,,,60fcfc1aa407beaf778db045,61036deaf0989bee0bac8e33,2021-07-29_20h12.15.434,Simcolourproject_2stim_asymm_v5,2020.2.10,Win32,60,61025ae37ef11b136ea224fe,,,,,,,,,3681,104.800013,-66.00000742,1,0,0,response3disk,,5,21.60006059,-8.800006568,1,0,0,rectangle,21.60006059,-8.800006568,1,0,0,21.60006059,-8.800006568,1,0,0,0,2,2,145,1,,,,,,,,
,,,,,,,,,,,,,FF,,,,,,,,1.4648,,,,,,,,,,,,,,,,,,,,,,60fcfc1aa407beaf778db045,61036deaf0989bee0bac8e33,2021-07-29_20h12.15.434,Simcolourproject_2stim_asymm_v5,2020.2.10,Win32,60,61025ae37ef11b136ea224fe,,,,,,,,,858,54.80001226,-36.40000698,1,0,0,response3disk,,5,9.200011581,-4.800006509,1,0,0,rectangle,9.200011581,-4.800006509,1,0,0,9.200011581,-4.800006509,1,0,0,0,3,3,47,1,,,,,,,,
,,,,,,,,,,,,,FF,,,,,,,,1.1979,,,,,,,,,,,,,,,,,,,,,,60fcfc1aa407beaf778db045,61036deaf0989bee0bac8e33,2021-07-29_20h12.15.434,Simcolourproject_2stim_asymm_v5,2020.2.10,Win32,60,61025ae37ef11b136ea224fe,,,,,,,,,3427,-67.99998957,30.79999402,1,0,0,response7disk,,1,-14.39993994,-6.400006533,1,0,0,rectangle,-14.39993994,-6.400006533,1,0,0,-14.39993994,-6.400006533,1,0,0,0,4,4,151,1,,,,,,,,
,,,,,,,,,,,,,FF,,,,,,,,2.1338,,,,,,,,,,,,,,,,,,,,,,60fcfc1aa407beaf778db045,61036deaf0989bee0bac8e33,2021-07-29_20h12.15.434,Simcolourproject_2stim_asymm_v5,2020.2.10,Win32,60,61025ae37ef11b136ea224fe,,,,,,,,,1809,86.40001273,-52.80000722,1,0,0,response3disk,,5,22.00001177,-10.40000659,1,0,0,rectangle,22.00001177,-10.40000659,1,0,0,22.00001177,-10.40000659,1,0,0,0,5,5,101,1,,,,,,,,
,,,,,,,,,,,,,FF,,,,,,,,1.4499,,,,,,,,,,,,,,,,,,,,,,60fcfc1aa407beaf778db045,61036deaf0989bee0bac8e33,2021-07-29_20h12.15.434,Simcolourproject_2stim_asymm_v5,2020.2.10,Win32,60,61025ae37ef11b136ea224fe,,,,,,,,,1103,42.40001208,65.19997012,1,0,0,response1disk,,7,8.400011569,7.999993682,1,0,0,rectangle,8.400011569,7.999993682,1,0,0,8.400011569,7.999993682,1,0,0,0,6,6,75,1,,,,,,,,
,,,,,,,,,,,,,FF,,,,,,,,1.1976,,,,,,,,,,,,,,,,,,,,,,60fcfc1aa407beaf778db045,61036deaf0989bee0bac8e33,2021-07-29_20h12.15.434,Simcolourproject_2stim_asymm_v5,2020.2.10,Win32,60,61025ae37ef11b136ea224fe,,,,,,,,,2228,-49.9999893,16.39999381,1,0,0,response7disk,,1,-27.19998896,9.999993712,1,0,0,rectangle,-27.19998896,9.999993712,1,0,0,-27.19998896,9.999993712,1,0,0,0,7,7,86,1,,,,,,,,
,,,,,,,,,,,,,FF,,,,,,,,1.5348,,,,,,,,,,,,,,,,,,,,,,60fcfc1aa407beaf778db045,61036deaf0989bee0bac8e33,2021-07-29_20h12.15.434,Simcolourproject_2stim_asymm_v5,2020.2.10,Win32,60,61025ae37ef11b136ea224fe,,,,,,,,,3904,61.60001236,31.99999404,1,0,0,response1disk,,6,-7.599988669,8.399993688,1,0,0,rectangle,-7.599988669,8.399993688,1,0,0,-7.599988669,8.399993688,1,0,0,0,8,8,95,1,,,,,,,,
,,,,,,,,,,,,,FF,,,,,,,,1.4486,,,,,,,,,,,,,,,,,,,,,,60fcfc1aa407beaf778db045,61036deaf0989bee0bac8e33,2021-07-29_20h12.15.434,Simcolourproject_2stim_asymm_v5,2020.2.10,Win32,60,61025ae37ef11b136ea224fe,,,,,,,,,264,-69.9999896,-49.60000718,1,0,0,response5disk,,2,3.600060326,-4.000006497,1,0,0,rectangle,3.600060326,-4.000006497,1,0,0,3.600060326,-4.000006497,1,0,0,0,9,9,111,1,,,,,,,,
,,,,,,,,,,,,,FF,,,,,,,,1.536,,,,,,,,,,,,,,,,,,,,,,60fcfc1aa407beaf778db045,61036deaf0989bee0bac8e33,2021-07-29_20h12.15.434,Simcolourproject_2stim_asymm_v5,2020.2.10,Win32,60,61025ae37ef11b136ea224fe,,,,,,,,,1087,35.20001197,46.79999426,1,0,0,response1disk,,7,6.400011539,7.19999367,1,0,0,rectangle,6.400011539,7.19999367,1,0,0,6.400011539,7.19999367,1,0,0,0,10,10,48,1,,,,,,,,
,,,,,,,,,,,,,FF,,,,,,,,1.9316,,,,,,,,,,,,,,,,,,,,,,60fcfc1aa407beaf778db045,61036deaf0989bee0bac8e33,2021-07-29_20h12.15.434,Simcolourproject_2stim_asymm_v5,2020.2.10,Win32,60,61025ae37ef11b136ea224fe,,,,,,,,,3757,34.00001195,-83.20000768,1,0,0,response3disk,,4,13.20001164,11.19999373,1,0,0,rectangle,13.20001164,11.19999373,1,0,0,13.20001164,11.19999373,1,0,0,0,11,11,84,1,,,,,,,,
,,,,,,,,,,,,,FF,,,,,,,,1.1993,,,,,,,,,,,,,,,,,,,,,,60fcfc1aa407beaf778db045,61036deaf0989bee0bac8e33,2021-07-29_20h12.15.434,Simcolourproject_2stim_asymm_v5,2020.2.10,Win32,60,61025ae37ef11b136ea224fe,,,,,,,,,3316,28.80001187,64.79999453,1,0,0,response1disk,,7,-8.399939853,3.19999361,1,0,0,rectangle,-8.399939853,3.19999361,1,0,0,-8.399939853,3.19999361,1,0,0,0,12,12,23,1,,,,,,,,
,,,,,,,,,,,,,FF,,,,,,,,1.1333,,,,,,,,,,,,,,,,,,,,,,60fcfc1aa407beaf778db045,61036deaf0989bee0bac8e33,2021-07-29_20h12.15.434,Simcolourproject_2stim_asymm_v5,2020.2.10,Win32,60,61025ae37ef11b136ea224fe,,,,,,,,,3151,-32.79998904,-48.00000715,1,0,0,response5disk,,3,-1.199988574,-3.200006485,1,0,0,rectangle,-1.199988574,-3.200006485,1,0,0,-1.199988574,-3.200006485,1,0,0,0,13,13,125,1,,,,,,,,
,,,,,,,,,,,,,FF,,,,,,,,2.4035,,,,,,,,,,,,,,,,,,,,,,60fcfc1aa407beaf778db045,61036deaf0989bee0bac8e33,2021-07-29_20h12.15.434,Simcolourproject_2stim_asymm_v5,2020.2.10,Win32,60,61025ae37ef11b136ea224fe,,,,,,,,,47,44.40001211,61.99999449,1,0,0,response1disk,,7,2.800011486,5.19999364,1,0,0,rectangle,2.800011486,5.19999364,1,0,0,2.800011486,5.19999364,1,0,0,0,14,14,103,1,,,,,,,,
,,,,,,,,,,,,,FF,,,,,,,,1.7832,,,,,,,,,,,,,,,,,,,,,,60fcfc1aa407beaf778db045,61036deaf0989bee0bac8e33,2021-07-29_20h12.15.434,Simcolourproject_2stim_asymm_v5,2020.2.10,Win32,60,61025ae37ef11b136ea224fe,,,,,,,,,3629,76.40001258,35.9999941,1,0,0,response1disk,,6,21.20001176,0.399993569,1,0,0,rectangle,21.20001176,0.399993569,1,0,0,21.20001176,0.399993569,1,0,0,0,15,15,40,1,,,,,,,,
,,,,,,,,,,,,,FF,,,,,,,,1.6666,,,,,,,,,,,,,,,,,,,,,,60fcfc1aa407beaf778db045,61036deaf0989bee0bac8e33,2021-07-29_20h12.15.434,Simcolourproject_2stim_asymm_v5,2020.2.10,Win32,60,61025ae37ef11b136ea224fe,,,,,,,,,3634,66.00001243,33.59999406,1,0,0,response1disk,,6,18.00001171,7.999993682,1,0,0,rectangle,18.00001171,7.999993682,1,0,0,18.00001171,7.999993682,1,0,0,0,16,16,32,1,,,,,,,,
,,,,,,,,,,,,,FF,,,,,,,,1.2989,,,,,,,,,,,,,,,,,,,,,,60fcfc1aa407beaf778db045,61036deaf0989bee0bac8e33,2021-07-29_20h12.15.434,Simcolourproject_2stim_asymm_v5,2020.2.10,Win32,60,61025ae37ef11b136ea224fe,,,,,,,,,2305,30.00001189,-58.40000731,1,0,0,response3disk,,4,-9.199988693,-7.600006551,1,0,0,rectangle,-9.199988693,-7.600006551,1,0,0,-9.199988693,-7.600006551,1,0,0,0,17,17,13,1,,,,,,,,
,,,,,,,,,,,,,FF,,,,,,,,2.4836,,,,,,,,,,,,,,,,,,,,,,60fcfc1aa407beaf778db045,61036deaf0989bee0bac8e33,2021-07-29_20h12.15.434,Simcolourproject_2stim_asymm_v5,2020.2.10,Win32,60,61025ae37ef11b136ea224fe,,,,,,,,,1465,32.80001193,-60.00000733,1,0,0,response3disk,,4,16.80001169,13.19999376,1,0,0,rectangle,16.80001169,13.19999376,1,0,0,16.80001169,13.19999376,1,0,0,0,18,18,121,1,,,,,,,,
,,,,,,,,,,,,,FF,,,,,,,,2.0817,,,,,,,,,,,,,,,,,,,,,,60fcfc1aa407beaf778db045,61036deaf0989bee0bac8e33,2021-07-29_20h12.15.434,Simcolourproject_2stim_asymm_v5,2020.2.10,Win32,60,61025ae37ef11b136ea224fe,,,,,,,,,38,78.80001262,24.39999393,1,0,0,response1disk,,6,19.60006056,6.399993658,1,0,0,rectangle,19.60006056,6.399993658,1,0,0,19.60006056,6.399993658,1,0,0,0,19,19,144,1,,,,,,,,
,,,,,,,,,,,,,FF,,,,,,,,1.5469,,,,,,,,,,,,,,,,,,,,,,60fcfc1aa407beaf778db045,61036deaf0989bee0bac8e33,2021-07-29_20h12.15.434,Simcolourproject_2stim_asymm_v5,2020.2.10,Win32,60,61025ae37ef11b136ea224fe,,,,,,,,,3565,-42.79998919,-87.20000774,1,0,0,response5disk,,3,1.600060296,9.1999937,1,0,0,rectangle,1.600060296,9.1999937,1,0,0,1.600060296,9.1999937,1,0,0,0,20,20,153,1,,,,,,,,
,,,,,,,,,,,,,FF,,,,,,,,1.2818,,,,,,,,,,,,,,,,,,,,,,60fcfc1aa407beaf778db045,61036deaf0989bee0bac8e33,2021-07-29_20h12.15.434,Simcolourproject_2stim_asymm_v5,2020.2.10,Win32,60,61025ae37ef11b136ea224fe,,,,,,,,,4122,-27.99998897,-52.40000722,1,0,0,response5disk,,3,-9.199988693,3.19999361,1,0,0,rectangle,-9.199988693,3.19999361,1,0,0,-9.199988693,3.19999361,1,0,0,0,21,21,5,1,,,,,,,,
,,,,,,,,,,,,,FF,,,,,,,,1.066,,,,,,,,,,,,,,,,,,,,,,60fcfc1aa407beaf778db045,61036deaf0989bee0bac8e33,2021-07-29_20h12.15.434,Simcolourproject_2stim_asymm_v5,2020.2.10,Win32,60,61025ae37ef11b136ea224fe,,,,,,,,,674,66.00001243,-35.20000696,1,0,0,response3disk,,5,22.80001178,-4.000006497,1,0,0,rectangle,22.80001178,-4.000006497,1,0,0,22.80001178,-4.000006497,1,0,0,0,22,22,91,1,,,,,,,,
,,,,,,,,,,,,,FF,,,,,,,,1.0834,,,,,,,,,,,,,,,,,,,,,,60fcfc1aa407beaf778db045,61036deaf0989bee0bac8e33,2021-07-29_20h12.15.434,Simcolourproject_2stim_asymm_v5,2020.2.10,Win32,60,61025ae37ef11b136ea224fe,,,,,,,,,2628,52.40001222,32.39999405,1,0,0,response1disk,,6,7.600060385,1.599993587,1,0,0,rectangle,35.6000608,90.79999492,1,0,0,5.600060356,1.599993587,1,0,0,0,23,23,136,1,,response1disk_3,TRUE,7,7,"[246,310,245,267,75,278,2,257,285,66,25,53,206,186,138,186,312,298,24,97]",2.1144,rectangle
,,,,,,,,,,,,,FF,,,,,,,,2.3002,,,,,,,,,,,,,,,,,,,,,,60fcfc1aa407beaf778db045,61036deaf0989bee0bac8e33,2021-07-29_20h12.15.434,Simcolourproject_2stim_asymm_v5,2020.2.10,Win32,60,61025ae37ef11b136ea224fe,,,,,,,,,1940,40.80001205,-80.40000764,1,0,0,response3disk,,4,2.000011474,-5.200006515,1,0,0,rectangle,-39.19998914,-75.20000756,1,0,0,-2.399939764,-4.800006509,1,0,0,0,24,24,9,1,,response5disk_3,TRUE,3,3,"[246,310,245,267,75,278,2,257,285,66,25,53,206,186,138,186,312,298,24,97]",1.9161,rectangle
,,,,,,,,,,,,,FF,,,,,,,,2.1496,,,,,,,,,,,,,,,,,,,,,,60fcfc1aa407beaf778db045,61036deaf0989bee0bac8e33,2021-07-29_20h12.15.434,Simcolourproject_2stim_asymm_v5,2020.2.10,Win32,60,61025ae37ef11b136ea224fe,,,,,,,,,3439,-60.39994063,-42.00000706,1,0,0,response5disk,,2,-3.999988616,-3.200006485,1,0,0,rectangle,-3.999988616,-3.200006485,1,0,0,-3.999988616,-3.200006485,1,0,0,0,25,25,66,1,,,,,,,,
,,,,,,,,,,,,,FF,,,,,,,,1.9667,,,,,,,,,,,,,,,,,,,,,,60fcfc1aa407beaf778db045,61036deaf0989bee0bac8e33,2021-07-29_20h12.15.434,Simcolourproject_2stim_asymm_v5,2020.2.10,Win32,60,61025ae37ef11b136ea224fe,,,,,,,,,3657,85.60001272,-52.80000722,1,0,0,response3disk,,5,22.80001178,-0.800006449,1,0,0,rectangle,22.80001178,-0.800006449,1,0,0,22.80001178,-0.800006449,1,0,0,0,26,26,149,1,,,,,,,,
,,,,,,,,,,,,,FF,,,,,,,,1.4998,,,,,,,,,,,,,,,,,,,,,,60fcfc1aa407beaf778db045,61036deaf0989bee0bac8e33,2021-07-29_20h12.15.434,Simcolourproject_2stim_asymm_v5,2020.2.10,Win32,60,61025ae37ef11b136ea224fe,,,,,,,,,29,75.20001256,42.7999942,1,0,0,response1disk,,6,11.20001161,5.999993652,1,0,0,rectangle,11.20001161,5.999993652,1,0,0,11.20001161,5.999993652,1,0,0,0,27,27,155,1,,,,,,,,
,,,,,,,,,,,,,FF,,,,,,,,1.4677,,,,,,,,,,,,,,,,,,,,,,60fcfc1aa407beaf778db045,61036deaf0989bee0bac8e33,2021-07-29_20h12.15.434,Simcolourproject_2stim_asymm_v5,2020.2.10,Win32,60,61025ae37ef11b136ea224fe,,,,,,,,,3748,-32.79998904,-46.00000712,1,0,0,response5disk,,3,-9.599988699,-3.200006485,1,0,0,rectangle,-9.599988699,-3.200006485,1,0,0,-9.599988699,-3.200006485,1,0,0,0,28,28,63,1,,,,,,,,
,,,,,,,,,,,,,FF,,,,,,,,1.3316,,,,,,,,,,,,,,,,,,,,,,60fcfc1aa407beaf778db045,61036deaf0989bee0bac8e33,2021-07-29_20h12.15.434,Simcolourproject_2stim_asymm_v5,2020.2.10,Win32,60,61025ae37ef11b136ea224fe,,,,,,,,,356,25.60006065,-50.80000719,1,0,0,response3disk,,4,8.000011563,-8.000006557,1,0,0,rectangle,8.000011563,-8.000006557,1,0,0,8.000011563,-8.000006557,1,0,0,0,29,29,99,1,,,,,,,,
,,,,,,,,,,,,,FF,,,,,,,,2.2508,,,,,,,,,,,,,,,,,,,,,,60fcfc1aa407beaf778db045,61036deaf0989bee0bac8e33,2021-07-29_20h12.15.434,Simcolourproject_2stim_asymm_v5,2020.2.10,Win32,60,61025ae37ef11b136ea224fe,,,,,,,,,4065,71.20001251,-23.60000679,1,0,0,response3disk,,5,11.60006045,0.799993575,1,0,0,rectangle,11.60006045,0.799993575,1,0,0,11.60006045,0.799993575,1,0,0,0,30,30,108,1,,,,,,,,
,,,,,,,,,,,,,FF,,,,,,,,1.2811,,,,,,,,,,,,,,,,,,,,,,60fcfc1aa407beaf778db045,61036deaf0989bee0bac8e33,2021-07-29_20h12.15.434,Simcolourproject_2stim_asymm_v5,2020.2.10,Win32,60,61025ae37ef11b136ea224fe,,,,,,,,,3398,-27.59998897,-69.20000747,1,0,0,response5disk,,3,3.600060326,1.199993581,1,0,0,rectangle,3.600060326,1.199993581,1,0,0,3.600060326,1.199993581,1,0,0,0,31,31,133,1,,,,,,,,
,,,,,,,,,,,,,FF,,,,,,,,0.981,,,,,,,,,,,,,,,,,,,,,,60fcfc1aa407beaf778db045,61036deaf0989bee0bac8e33,2021-07-29_20h12.15.434,Simcolourproject_2stim_asymm_v5,2020.2.10,Win32,60,61025ae37ef11b136ea224fe,,,,,,,,,3610,69.20001248,29.99999401,1,0,0,response1disk,,6,22.40001178,8.799993694,1,0,0,rectangle,22.40001178,8.799993694,1,0,0,22.40001178,8.799993694,1,0,0,0,32,32,134,1,,,,,,,,
,,,,,,,,,,,,,FF,,,,,,,,1.0035,,,,,,,,,,,,,,,,,,,,,,60fcfc1aa407beaf778db045,61036deaf0989bee0bac8e33,2021-07-29_20h12.15.434,Simcolourproject_2stim_asymm_v5,2020.2.10,Win32,60,61025ae37ef11b136ea224fe,,,,,,,,,3496,53.20001224,33.59999406,1,0,0,response1disk,,6,7.200011551,9.1999937,1,0,0,rectangle,7.200011551,9.1999937,1,0,0,7.200011551,9.1999937,1,0,0,0,33,33,60,1,,,,,,,,
,,,,,,,,,,,,,FF,,,,,,,,1.4334,,,,,,,,,,,,,,,,,,,,,,60fcfc1aa407beaf778db045,61036deaf0989bee0bac8e33,2021-07-29_20h12.15.434,Simcolourproject_2stim_asymm_v5,2020.2.10,Win32,60,61025ae37ef11b136ea224fe,,,,,,,,,3073,43.60006092,-27.60000685,1,0,0,response3disk,,5,6.000011533,-6.800006539,1,0,0,rectangle,6.000011533,-6.800006539,1,0,0,6.000011533,-6.800006539,1,0,0,0,34,34,21,1,,,,,,,,
,,,,,,,,,,,,,FF,,,,,,,,2.3293,,,,,,,,,,,,,,,,,,,,,,60fcfc1aa407beaf778db045,61036deaf0989bee0bac8e33,2021-07-29_20h12.15.434,Simcolourproject_2stim_asymm_v5,2020.2.10,Win32,60,61025ae37ef11b136ea224fe,,,,,,,,,2346,31.20001191,67.99999458,1,0,0,response1disk,,7,-5.199988633,3.19999361,1,0,0,rectangle,-5.199988633,3.19999361,1,0,0,-5.199988633,3.19999361,1,0,0,0,35,35,127,1,,,,,,,,
,,,,,,,,,,,,,FF,,,,,,,,1.1642,,,,,,,,,,,,,,,,,,,,,,60fcfc1aa407beaf778db045,61036deaf0989bee0bac8e33,2021-07-29_20h12.15.434,Simcolourproject_2stim_asymm_v5,2020.2.10,Win32,60,61025ae37ef11b136ea224fe,,,,,,,,,3337,57.6000123,29.19996958,1,0,0,response1disk,,6,8.800011575,3.19999361,1,0,0,rectangle,8.800011575,3.19999361,1,0,0,8.800011575,3.19999361,1,0,0,0,36,36,45,1,,,,,,,,
,,,,,,,,,,,,,FF,,,,,,,,1.3489,,,,,,,,,,,,,,,,,,,,,,60fcfc1aa407beaf778db045,61036deaf0989bee0bac8e33,2021-07-29_20h12.15.434,Simcolourproject_2stim_asymm_v5,2020.2.10,Win32,60,61025ae37ef11b136ea224fe,,,,,,,,,2074,57.2000123,25.99999395,1,0,0,response1disk,,6,11.20001161,-0.800006449,1,0,0,rectangle,11.20001161,-0.800006449,1,0,0,11.20001161,-0.800006449,1,0,0,0,37,37,93,1,,,,,,,,
,,,,,,,,,,,,,FF,,,,,,,,0.9334,,,,,,,,,,,,,,,,,,,,,,60fcfc1aa407beaf778db045,61036deaf0989bee0bac8e33,2021-07-29_20h12.15.434,Simcolourproject_2stim_asymm_v5,2020.2.10,Win32,60,61025ae37ef11b136ea224fe,,,,,,,,,426,53.60001224,30.39999402,1,0,0,response1disk,,6,-0.799988568,-0.400006443,1,0,0,rectangle,-0.799988568,-0.400006443,1,0,0,-0.799988568,-0.400006443,1,0,0,0,38,38,36,1,,,,,,,,
,,,,,,,,,,,,,FF,,,,,,,,1.3333,,,,,,,,,,,,,,,,,,,,,,60fcfc1aa407beaf778db045,61036deaf0989bee0bac8e33,2021-07-29_20h12.15.434,Simcolourproject_2stim_asymm_v5,2020.2.10,Win32,60,61025ae37ef11b136ea224fe,,,,,,,,,2838,66.40001243,-29.60000688,1,0,0,response3disk,,5,16.00001168,-10.00000659,1,0,0,rectangle,16.00001168,-10.00000659,1,0,0,16.00001168,-10.00000659,1,0,0,0,39,39,120,1,,,,,,,,
,,,,,,,,,,,,,FF,,,,,,,,1.5,,,,,,,,,,,,,,,,,,,,,,60fcfc1aa407beaf778db045,61036deaf0989bee0bac8e33,2021-07-29_20h12.15.434,Simcolourproject_2stim_asymm_v5,2020.2.10,Win32,60,61025ae37ef11b136ea224fe,,,,,,,,,252,45.20001212,-31.60000691,1,0,0,response3disk,,5,6.400011539,-5.600006521,1,0,0,rectangle,6.400011539,-5.600006521,1,0,0,6.400011539,-5.600006521,1,0,0,0,40,40,150,1,,,,,,,,
,,,,,,,,,,,,,FF,,,,,,,,1.7307,,,,,,,,,,,,,,,,,,,,,,60fcfc1aa407beaf778db045,61036deaf0989bee0bac8e33,2021-07-29_20h12.15.434,Simcolourproject_2stim_asymm_v5,2020.2.10,Win32,60,61025ae37ef11b136ea224fe,,,,,,,,,2353,73.60001254,32.79999405,1,0,0,response1disk,,6,6.000011533,9.599993706,1,0,0,rectangle,6.000011533,9.599993706,1,0,0,6.000011533,9.599993706,1,0,0,0,41,41,38,1,,,,,,,,
,,,,,,,,,,,,,FF,,,,,,,,1.1976,,,,,,,,,,,,,,,,,,,,,,60fcfc1aa407beaf778db045,61036deaf0989bee0bac8e33,2021-07-29_20h12.15.434,Simcolourproject_2stim_asymm_v5,2020.2.10,Win32,60,61025ae37ef11b136ea224fe,,,,,,,,,1533,33.60006077,-60.40000734,1,0,0,response3disk,,4,18.80001172,-6.400006533,1,0,0,rectangle,18.80001172,-6.400006533,1,0,0,18.80001172,-6.400006533,1,0,0,0,42,42,90,1,,,,,,,,
,,,,,,,,,,,,,FF,,,,,,,,1.0501,,,,,,,,,,,,,,,,,,,,,,60fcfc1aa407beaf778db045,61036deaf0989bee0bac8e33,2021-07-29_20h12.15.434,Simcolourproject_2stim_asymm_v5,2020.2.10,Win32,60,61025ae37ef11b136ea224fe,,,,,,,,,910,86.40001273,28.79999399,1,0,0,response1disk,,6,10.00001159,2.399993598,1,0,0,rectangle,10.00001159,2.399993598,1,0,0,10.00001159,2.399993598,1,0,0,0,43,43,116,1,,,,,,,,
,,,,,,,,,,,,,FF,,,,,,,,1.5148,,,,,,,,,,,,,,,,,,,,,,60fcfc1aa407beaf778db045,61036deaf0989bee0bac8e33,2021-07-29_20h12.15.434,Simcolourproject_2stim_asymm_v5,2020.2.10,Win32,60,61025ae37ef11b136ea224fe,,,,,,,,,2836,33.20001194,-78.0000076,1,0,0,response3disk,,4,3.200011492,1.999993593,1,0,0,rectangle,3.200011492,1.999993593,1,0,0,3.200011492,1.999993593,1,0,0,0,44,44,126,1,,,,,,,,
,,,,,,,,,,,,,FF,,,,,,,,2.8818,,,,,,,,,,,,,,,,,,,,,,60fcfc1aa407beaf778db045,61036deaf0989bee0bac8e33,2021-07-29_20h12.15.434,Simcolourproject_2stim_asymm_v5,2020.2.10,Win32,60,61025ae37ef11b136ea224fe,,,,,,,,,935,87.60001275,26.39999396,1,0,0,response1disk,,6,13.20001164,5.999993652,1,0,0,rectangle,13.20001164,5.999993652,1,0,0,13.20001164,5.999993652,1,0,0,0,45,45,14,1,,,,,,,,
,,,,,,,,,,,,,FF,,,,,,,,3.6685,,,,,,,,,,,,,,,,,,,,,,60fcfc1aa407beaf778db045,61036deaf0989bee0bac8e33,2021-07-29_20h12.15.434,Simcolourproject_2stim_asymm_v5,2020.2.10,Win32,60,61025ae37ef11b136ea224fe,,,,,,,,,2940,-45.59998924,75.59999469,1,0,0,response7disk,,0,-7.599988669,7.19999367,1,0,0,rectangle,-7.599988669,7.19999367,1,0,0,-7.599988669,7.19999367,1,0,0,0,46,46,67,1,,,,,,,,
,,,,,,,,,,,,,FF,,,,,,,,1.3477,,,,,,,,,,,,,,,,,,,,,,60fcfc1aa407beaf778db045,61036deaf0989bee0bac8e33,2021-07-29_20h12.15.434,Simcolourproject_2stim_asymm_v5,2020.2.10,Win32,60,61025ae37ef11b136ea224fe,,,,,,,,,4121,-42.39994036,-74.00000754,1,0,0,response5disk,,3,-5.199988633,5.999993652,1,0,0,rectangle,-5.199988633,5.999993652,1,0,0,-5.199988633,5.999993652,1,0,0,0,47,47,115,1,,,,,,,,
,,,,,,,,,,,,,FF,,,,,,,,1.0514,,,,,,,,,,,,,,,,,,,,,,60fcfc1aa407beaf778db045,61036deaf0989bee0bac8e33,2021-07-29_20h12.15.434,Simcolourproject_2stim_asymm_v5,2020.2.10,Win32,60,61025ae37ef11b136ea224fe,,,,,,,,,3419,75.60001257,24.39999393,1,0,0,response1disk,,6,10.00001159,-4.400006503,1,0,0,rectangle,10.00001159,-4.400006503,1,0,0,10.00001159,-4.400006503,1,0,0,0,48,48,112,1,,,,,,,,
,,,,,,,,,,,,,FF,,,,,,,,0.9464,,,,,,,,,,,,,,,,,,,,,,60fcfc1aa407beaf778db045,61036deaf0989bee0bac8e33,2021-07-29_20h12.15.434,Simcolourproject_2stim_asymm_v5,2020.2.10,Win32,60,61025ae37ef11b136ea224fe,,,,,,,,,594,35.6000608,61.99999449,1,0,0,response1disk,,7,0.40001145,9.1999937,1,0,0,rectangle,0.40001145,9.1999937,1,0,0,0.40001145,9.1999937,1,0,0,0,49,49,22,1,,,,,,,,
,,,,,,,,,,,,,FF,,,,,,,,1.1689,,,,,,,,,,,,,,,,,,,,,,60fcfc1aa407beaf778db045,61036deaf0989bee0bac8e33,2021-07-29_20h12.15.434,Simcolourproject_2stim_asymm_v5,2020.2.10,Win32,60,61025ae37ef11b136ea224fe,,,,,,,,,2326,54.40001225,29.19996958,1,0,0,response1disk,,6,3.200011492,-0.800006449,1,0,0,rectangle,3.200011492,-0.800006449,1,0,0,3.200011492,-0.800006449,1,0,0,0,50,50,33,1,,,,,,,,
,,,,,,,,,,,,,FF,,,,,,,,2.6831,,,,,,,,,,,,,,,,,,,,,,60fcfc1aa407beaf778db045,61036deaf0989bee0bac8e33,2021-07-29_20h12.15.434,Simcolourproject_2stim_asymm_v5,2020.2.10,Win32,60,61025ae37ef11b136ea224fe,,,,,,,,,1590,36.80001199,-53.60000724,1,0,0,response3disk,,4,2.800011486,9.599993706,1,0,0,rectangle,2.800011486,9.599993706,1,0,0,2.800011486,9.599993706,1,0,0,0,51,51,128,1,,,,,,,,
,,,,,,,,,,,,,FF,,,,,,,,1.5669,,,,,,,,,,,,,,,,,,,,,,60fcfc1aa407beaf778db045,61036deaf0989bee0bac8e33,2021-07-29_20h12.15.434,Simcolourproject_2stim_asymm_v5,2020.2.10,Win32,60,61025ae37ef11b136ea224fe,,,,,,,,,4115,22.40001178,-36.80000699,1,0,0,response3disk,,4,4.800011516,2.799993604,1,0,0,rectangle,41.20001206,77.1999703,1,0,0,8.400011569,2.799993604,1,0,0,0,52,52,135,1,,response1disk_3,TRUE,7,7,"[246,310,245,267,75,278,2,257,285,66,25,53,206,186,138,186,312,298,24,97]",1.7507,rectangle
,,,,,,,,,,,,,FF,,,,,,,,2.1146,,,,,,,,,,,,,,,,,,,,,,60fcfc1aa407beaf778db045,61036deaf0989bee0bac8e33,2021-07-29_20h12.15.434,Simcolourproject_2stim_asymm_v5,2020.2.10,Win32,60,61025ae37ef11b136ea224fe,,,,,,,,,3467,57.6000123,-28.80000687,1,0,0,response3disk,,5,5.600060356,3.19999361,1,0,0,rectangle,5.600060356,3.19999361,1,0,0,5.600060356,3.19999361,1,0,0,0,53,53,119,1,,,,,,,,
,,,,,,,,,,,,,FF,,,,,,,,2.0651,,,,,,,,,,,,,,,,,,,,,,60fcfc1aa407beaf778db045,61036deaf0989bee0bac8e33,2021-07-29_20h12.15.434,Simcolourproject_2stim_asymm_v5,2020.2.10,Win32,60,61025ae37ef11b136ea224fe,,,,,,,,,1670,-42.79998919,63.99999452,1,0,0,response7disk,,0,1.200011462,-6.4373E-06,1,0,0,rectangle,1.200011462,-6.4373E-06,1,0,0,1.200011462,-6.4373E-06,1,0,0,0,54,54,123,1,,,,,,,,
,,,,,,,,,,,,,FF,,,,,,,,1.0357,,,,,,,,,,,,,,,,,,,,,,60fcfc1aa407beaf778db045,61036deaf0989bee0bac8e33,2021-07-29_20h12.15.434,Simcolourproject_2stim_asymm_v5,2020.2.10,Win32,60,61025ae37ef11b136ea224fe,,,,,,,,,2117,44.40001211,72.39999464,1,0,0,response1disk,,7,-6.799988657,2.799993604,1,0,0,rectangle,-6.799988657,2.799993604,1,0,0,-6.799988657,2.799993604,1,0,0,0,55,55,54,1,,,,,,,,
,,,,,,,,,,,,,FF,,,,,,,,2.7172,,,,,,,,,,,,,,,,,,,,,,60fcfc1aa407beaf778db045,61036deaf0989bee0bac8e33,2021-07-29_20h12.15.434,Simcolourproject_2stim_asymm_v5,2020.2.10,Win32,60,61025ae37ef11b136ea224fe,,,,,,,,,37,60.40001234,-22.40000677,1,0,0,response3disk,,5,0.800011456,-6.4373E-06,1,0,0,rectangle,0.800011456,-6.4373E-06,1,0,0,0.800011456,-6.4373E-06,1,0,0,0,56,56,15,1,,,,,,,,
,,,,,,,,,,,,,FF,,,,,,,,2.5854,,,,,,,,,,,,,,,,,,,,,,60fcfc1aa407beaf778db045,61036deaf0989bee0bac8e33,2021-07-29_20h12.15.434,Simcolourproject_2stim_asymm_v5,2020.2.10,Win32,60,61025ae37ef11b136ea224fe,,,,,,,,,15,65.60001242,30.79999402,1,0,0,response1disk,,6,2.800011486,0.399993569,1,0,0,rectangle,2.800011486,0.399993569,1,0,0,2.800011486,0.399993569,1,0,0,0,57,57,89,1,,,,,,,,
,,,,,,,,,,,,,FF,,,,,,,,0.7357,,,,,,,,,,,,,,,,,,,,,,60fcfc1aa407beaf778db045,61036deaf0989bee0bac8e33,2021-07-29_20h12.15.434,Simcolourproject_2stim_asymm_v5,2020.2.10,Win32,60,61025ae37ef11b136ea224fe,,,,,,,,,1866,44.40001211,61.19997006,1,0,0,response1disk,,7,2.000011474,4.799993634,1,0,0,rectangle,2.000011474,4.799993634,1,0,0,2.000011474,4.799993634,1,0,0,0,58,58,39,1,,,,,,,,
,,,,,,,,,,,,,FF,,,,,,,,1.1305,,,,,,,,,,,,,,,,,,,,,,60fcfc1aa407beaf778db045,61036deaf0989bee0bac8e33,2021-07-29_20h12.15.434,Simcolourproject_2stim_asymm_v5,2020.2.10,Win32,60,61025ae37ef11b136ea224fe,,,,,,,,,2122,25.60006065,-45.60000712,1,0,0,response3disk,,4,-3.59998861,1.999993593,1,0,0,rectangle,-3.59998861,1.999993593,1,0,0,-3.59998861,1.999993593,1,0,0,0,59,59,25,1,,,,,,,,
,,,,,,,,,,,,,FF,,,,,,,,1.0982,,,,,,,,,,,,,,,,,,,,,,60fcfc1aa407beaf778db045,61036deaf0989bee0bac8e33,2021-07-29_20h12.15.434,Simcolourproject_2stim_asymm_v5,2020.2.10,Win32,60,61025ae37ef11b136ea224fe,,,,,,,,,4294,-29.999989,-42.40000707,1,0,0,response5disk,,3,-13.59998876,4.799993634,1,0,0,rectangle,-13.59998876,4.799993634,1,0,0,-13.59998876,4.799993634,1,0,0,0,60,60,117,1,,,,,,,,
,,,,,,,,,,,,,FF,,,,,,,,1.3334,,,,,,,,,,,,,,,,,,,,,,60fcfc1aa407beaf778db045,61036deaf0989bee0bac8e33,2021-07-29_20h12.15.434,Simcolourproject_2stim_asymm_v5,2020.2.10,Win32,60,61025ae37ef11b136ea224fe,,,,,,,,,3605,56.80001229,-26.40000683,1,0,0,response3disk,,5,7.200011551,-0.400006443,1,0,0,rectangle,7.200011551,-0.400006443,1,0,0,7.200011551,-0.400006443,1,0,0,0,61,61,124,1,,,,,,,,
,,,,,,,,,,,,,FF,,,,,,,,0.9835,,,,,,,,,,,,,,,,,,,,,,60fcfc1aa407beaf778db045,61036deaf0989bee0bac8e33,2021-07-29_20h12.15.434,Simcolourproject_2stim_asymm_v5,2020.2.10,Win32,60,61025ae37ef11b136ea224fe,,,,,,,,,1310,53.20001224,39.19996973,1,0,0,response1disk,,6,0.40001145,7.599993676,1,0,0,rectangle,0.40001145,7.599993676,1,0,0,0.40001145,7.599993676,1,0,0,0,62,62,56,1,,,,,,,,
,,,,,,,,,,,,,FF,,,,,,,,0.9182,,,,,,,,,,,,,,,,,,,,,,60fcfc1aa407beaf778db045,61036deaf0989bee0bac8e33,2021-07-29_20h12.15.434,Simcolourproject_2stim_asymm_v5,2020.2.10,Win32,60,61025ae37ef11b136ea224fe,,,,,,,,,1190,52.80001223,37.99999413,1,0,0,response1disk,,6,-0.399939734,5.599993646,1,0,0,rectangle,-0.399939734,5.599993646,1,0,0,-0.399939734,5.599993646,1,0,0,0,63,63,46,1,,,,,,,,
,,,,,,,,,,,,,FF,,,,,,,,0.9018,,,,,,,,,,,,,,,,,,,,,,60fcfc1aa407beaf778db045,61036deaf0989bee0bac8e33,2021-07-29_20h12.15.434,Simcolourproject_2stim_asymm_v5,2020.2.10,Win32,60,61025ae37ef11b136ea224fe,,,,,,,,,1410,50.00001219,23.59999391,1,0,0,response1disk,,6,2.800011486,-1.200006455,1,0,0,rectangle,2.800011486,-1.200006455,1,0,0,2.800011486,-1.200006455,1,0,0,0,64,64,82,1,,,,,,,,
,,,,,,,,,,,,,FF,,,,,,,,1.3485,,,,,,,,,,,,,,,,,,,,,,60fcfc1aa407beaf778db045,61036deaf0989bee0bac8e33,2021-07-29_20h12.15.434,Simcolourproject_2stim_asymm_v5,2020.2.10,Win32,60,61025ae37ef11b136ea224fe,,,,,,,,,1611,-61.59998947,-38.80000702,1,0,0,response5disk,,2,-7.999988675,7.999993682,1,0,0,rectangle,27.60006068,75.19997027,1,0,0,-11.59998873,2.399993598,1,0,0,0,65,65,16,1,,response1disk_3,TRUE,7,7,"[246,310,245,267,75,278,2,257,285,66,25,53,206,186,138,186,312,298,24,97]",1.5825,rectangle
,,,,,,,,,,,,,FF,,,,,,,,2.9501,,,,,,,,,,,,,,,,,,,,,,60fcfc1aa407beaf778db045,61036deaf0989bee0bac8e33,2021-07-29_20h12.15.434,Simcolourproject_2stim_asymm_v5,2020.2.10,Win32,60,61025ae37ef11b136ea224fe,,,,,,,,,3794,56.00001228,-30.8000069,1,0,0,response3disk,,5,12.00001162,-3.600006491,1,0,0,rectangle,12.00001162,-3.600006491,1,0,0,12.00001162,-3.600006491,1,0,0,0,66,66,83,1,,,,,,,,
,,,,,,,,,,,,,FF,,,,,,,,2.8998,,,,,,,,,,,,,,,,,,,,,,60fcfc1aa407beaf778db045,61036deaf0989bee0bac8e33,2021-07-29_20h12.15.434,Simcolourproject_2stim_asymm_v5,2020.2.10,Win32,60,61025ae37ef11b136ea224fe,,,,,,,,,1144,-28.79998899,-55.60000727,1,0,0,response5disk,,3,-10.39993988,1.199993581,1,0,0,rectangle,-10.39993988,1.199993581,1,0,0,-10.39993988,1.199993581,1,0,0,0,67,67,156,1,,,,,,,,
,,,,,,,,,,,,,FF,,,,,,,,2.6333,,,,,,,,,,,,,,,,,,,,,,60fcfc1aa407beaf778db045,61036deaf0989bee0bac8e33,2021-07-29_20h12.15.434,Simcolourproject_2stim_asymm_v5,2020.2.10,Win32,60,61025ae37ef11b136ea224fe,,,,,,,,,2436,71.60001251,-22.40000677,1,0,0,response3disk,,5,29.20001188,-1.600006461,1,0,0,rectangle,29.20001188,-1.600006461,1,0,0,29.20001188,-1.600006461,1,0,0,0,68,68,64,1,,,,,,,,
,,,,,,,,,,,,,FF,,,,,,,,2.3815,,,,,,,,,,,,,,,,,,,,,,60fcfc1aa407beaf778db045,61036deaf0989bee0bac8e33,2021-07-29_20h12.15.434,Simcolourproject_2stim_asymm_v5,2020.2.10,Win32,60,61025ae37ef11b136ea224fe,,,,,,,,,1040,-58.79998943,-74.40000755,1,0,0,response5disk,,3,-9.599988699,2.399993598,1,0,0,rectangle,-9.599988699,2.399993598,1,0,0,-9.599988699,2.399993598,1,0,0,0,69,69,58,1,,,,,,,,
,,,,,,,,,,,,,FF,,,,,,,,1.2167,,,,,,,,,,,,,,,,,,,,,,60fcfc1aa407beaf778db045,61036deaf0989bee0bac8e33,2021-07-29_20h12.15.434,Simcolourproject_2stim_asymm_v5,2020.2.10,Win32,60,61025ae37ef11b136ea224fe,,,,,,,,,3359,48.40001217,27.59999397,1,0,0,response1disk,,6,4.000011504,8.799993694,1,0,0,rectangle,4.000011504,8.799993694,1,0,0,4.000011504,8.799993694,1,0,0,0,70,70,34,1,,,,,,,,
,,,,,,,,,,,,,FF,,,,,,,,1.1185,,,,,,,,,,,,,,,,,,,,,,60fcfc1aa407beaf778db045,61036deaf0989bee0bac8e33,2021-07-29_20h12.15.434,Simcolourproject_2stim_asymm_v5,2020.2.10,Win32,60,61025ae37ef11b136ea224fe,,,,,,,,,968,-55.99998939,31.19996961,1,0,0,response7disk,,1,-12.79998875,5.599993646,1,0,0,rectangle,-12.79998875,5.599993646,1,0,0,-12.79998875,5.599993646,1,0,0,0,71,71,51,1,,,,,,,,
,,,,,,,,,,,,,FF,,,,,,,,2.2169,,,,,,,,,,,,,,,,,,,,,,60fcfc1aa407beaf778db045,61036deaf0989bee0bac8e33,2021-07-29_20h12.15.434,Simcolourproject_2stim_asymm_v5,2020.2.10,Win32,60,61025ae37ef11b136ea224fe,,,,,,,,,2646,24.80001181,-46.00000712,1,0,0,response3disk,,4,-5.599988639,0.799993575,1,0,0,rectangle,-5.599988639,0.799993575,1,0,0,-5.599988639,0.799993575,1,0,0,0,72,72,141,1,,,,,,,,
,,,,,,,,,,,,,FF,,,,,,,,1.2814,,,,,,,,,,,,,,,,,,,,,,60fcfc1aa407beaf778db045,61036deaf0989bee0bac8e33,2021-07-29_20h12.15.434,Simcolourproject_2stim_asymm_v5,2020.2.10,Win32,60,61025ae37ef11b136ea224fe,,,,,,,,,2207,24.40001181,-40.80000705,1,0,0,response3disk,,4,5.200011522,-9.60000658,1,0,0,rectangle,5.200011522,-9.60000658,1,0,0,5.200011522,-9.60000658,1,0,0,0,73,73,122,1,,,,,,,,
,,,,,,,,,,,,,FF,,,,,,,,1.3504,,,,,,,,,,,,,,,,,,,,,,60fcfc1aa407beaf778db045,61036deaf0989bee0bac8e33,2021-07-29_20h12.15.434,Simcolourproject_2stim_asymm_v5,2020.2.10,Win32,60,61025ae37ef11b136ea224fe,,,,,,,,,2896,24.0000118,-39.20000702,1,0,0,response3disk,,4,8.800011575,-4.000006497,1,0,0,rectangle,20.40001175,-64.4000074,1,0,0,3.200011492,2.399993598,1,0,0,0,74,74,107,1,,response3disk_3,TRUE,4,4,"[246,310,245,267,75,278,2,257,285,66,25,53,206,186,138,186,312,298,24,97]",1.6353,rectangle
,,,,,,,,,,,,,FF,,,,,,,,2.1665,,,,,,,,,,,,,,,,,,,,,,60fcfc1aa407beaf778db045,61036deaf0989bee0bac8e33,2021-07-29_20h12.15.434,Simcolourproject_2stim_asymm_v5,2020.2.10,Win32,60,61025ae37ef11b136ea224fe,,,,,,,,,3227,62.00001237,-24.00000679,1,0,0,response3disk,,5,3.200011492,6.399993658,1,0,0,rectangle,3.200011492,6.399993658,1,0,0,3.200011492,6.399993658,1,0,0,0,75,75,158,1,,,,,,,,
,,,,,,,,,,,,,FF,,,,,,,,1.1001,,,,,,,,,,,,,,,,,,,,,,60fcfc1aa407beaf778db045,61036deaf0989bee0bac8e33,2021-07-29_20h12.15.434,Simcolourproject_2stim_asymm_v5,2020.2.10,Win32,60,61025ae37ef11b136ea224fe,,,,,,,,,4032,-24.39994009,-53.20000723,1,0,0,response5disk,,3,-9.199988693,-3.200006485,1,0,0,rectangle,-9.199988693,-3.200006485,1,0,0,-9.199988693,-3.200006485,1,0,0,0,76,76,49,1,,,,,,,,
,,,,,,,,,,,,,FF,,,,,,,,1.2668,,,,,,,,,,,,,,,,,,,,,,60fcfc1aa407beaf778db045,61036deaf0989bee0bac8e33,2021-07-29_20h12.15.434,Simcolourproject_2stim_asymm_v5,2020.2.10,Win32,60,61025ae37ef11b136ea224fe,,,,,,,,,3453,38.00001201,58.79999444,1,0,0,response1disk,,7,-4.799988627,8.399993688,1,0,0,rectangle,-4.799988627,8.399993688,1,0,0,-4.799988627,8.399993688,1,0,0,0,77,77,55,1,,,,,,,,
,,,,,,,,,,,,,FF,,,,,,,,2.5499,,,,,,,,,,,,,,,,,,,,,,60fcfc1aa407beaf778db045,61036deaf0989bee0bac8e33,2021-07-29_20h12.15.434,Simcolourproject_2stim_asymm_v5,2020.2.10,Win32,60,61025ae37ef11b136ea224fe,,,,,,,,,2578,61.60001236,-27.20000684,1,0,0,response3disk,,5,1.14441E-05,2.799993604,1,0,0,rectangle,1.14441E-05,2.799993604,1,0,0,1.14441E-05,2.799993604,1,0,0,0,78,78,1,1,,,,,,,,
,,,,,,,,,,,,,FF,,,,,,,,1.6501,,,,,,,,,,,,,,,,,,,,,,60fcfc1aa407beaf778db045,61036deaf0989bee0bac8e33,2021-07-29_20h12.15.434,Simcolourproject_2stim_asymm_v5,2020.2.10,Win32,60,61025ae37ef11b136ea224fe,,,,,,,,,824,-26.39994012,-49.60000718,1,0,0,response5disk,,3,-10.39993988,0.399993569,1,0,0,rectangle,-10.39993988,0.399993569,1,0,0,-10.39993988,0.399993569,1,0,0,0,79,79,42,1,,,,,,,,
,,,,,,,,,,,,,FF,,,,,,,,1.6646,,,,,,,,,,,,,,,,,,,,,,60fcfc1aa407beaf778db045,61036deaf0989bee0bac8e33,2021-07-29_20h12.15.434,Simcolourproject_2stim_asymm_v5,2020.2.10,Win32,60,61025ae37ef11b136ea224fe,,,,,,,,,2744,44.0000121,-23.20000678,1,0,0,response3disk,,5,7.600060385,-3.200006485,1,0,0,rectangle,7.600060385,-3.200006485,1,0,0,7.600060385,-3.200006485,1,0,0,0,80,80,4,1,,,,,,,,
,,,,,,,,,,,,,FF,,,,,,,,1.7984,,,,,,,,,,,,,,,,,,,,,,60fcfc1aa407beaf778db045,61036deaf0989bee0bac8e33,2021-07-29_20h12.15.434,Simcolourproject_2stim_asymm_v5,2020.2.10,Win32,60,61025ae37ef11b136ea224fe,,,,,,,,,3244,-76.39994087,33.19996964,1,0,0,response7disk,,1,-20.39994003,9.1999937,1,0,0,rectangle,-20.39994003,9.1999937,1,0,0,-20.39994003,9.1999937,1,0,0,0,81,81,78,1,,,,,,,,
,,,,,,,,,,,,,FF,,,,,,,,1.9333,,,,,,,,,,,,,,,,,,,,,,60fcfc1aa407beaf778db045,61036deaf0989bee0bac8e33,2021-07-29_20h12.15.434,Simcolourproject_2stim_asymm_v5,2020.2.10,Win32,60,61025ae37ef11b136ea224fe,,,,,,,,,2055,-21.59998888,-46.80000713,1,0,0,response5disk,,3,-5.999988645,5.599993646,1,0,0,rectangle,-5.999988645,5.599993646,1,0,0,-5.999988645,5.599993646,1,0,0,0,82,82,157,1,,,,,,,,
,,,,,,,,,,,,,FF,,,,,,,,1.2002,,,,,,,,,,,,,,,,,,,,,,60fcfc1aa407beaf778db045,61036deaf0989bee0bac8e33,2021-07-29_20h12.15.434,Simcolourproject_2stim_asymm_v5,2020.2.10,Win32,60,61025ae37ef11b136ea224fe,,,,,,,,,2028,23.60006062,-38.40000701,1,0,0,response3disk,,4,2.800011486,-3.600006491,1,0,0,rectangle,2.800011486,-3.600006491,1,0,0,2.800011486,-3.600006491,1,0,0,0,83,83,94,1,,,,,,,,
,,,,,,,,,,,,,FF,,,,,,,,1.3533,,,,,,,,,,,,,,,,,,,,,,60fcfc1aa407beaf778db045,61036deaf0989bee0bac8e33,2021-07-29_20h12.15.434,Simcolourproject_2stim_asymm_v5,2020.2.10,Win32,60,61025ae37ef11b136ea224fe,,,,,,,,,1616,26.00001183,-37.600007,1,0,0,response3disk,,4,9.200011581,-8.400006562,1,0,0,rectangle,9.200011581,-8.400006562,1,0,0,9.200011581,-8.400006562,1,0,0,0,84,84,139,1,,,,,,,,
,,,,,,,,,,,,,FF,,,,,,,,1.6333,,,,,,,,,,,,,,,,,,,,,,60fcfc1aa407beaf778db045,61036deaf0989bee0bac8e33,2021-07-29_20h12.15.434,Simcolourproject_2stim_asymm_v5,2020.2.10,Win32,60,61025ae37ef11b136ea224fe,,,,,,,,,4041,48.00001216,-23.20000678,1,0,0,response3disk,,5,15.20001167,-5.200006515,1,0,0,rectangle,15.20001167,-5.200006515,1,0,0,15.20001167,-5.200006515,1,0,0,0,85,85,65,1,,,,,,,,
,,,,,,,,,,,,,FF,,,,,,,,0.9332,,,,,,,,,,,,,,,,,,,,,,60fcfc1aa407beaf778db045,61036deaf0989bee0bac8e33,2021-07-29_20h12.15.434,Simcolourproject_2stim_asymm_v5,2020.2.10,Win32,60,61025ae37ef11b136ea224fe,,,,,,,,,859,30.8000119,-18.40000671,1,0,0,response3disk,,5,8.400011569,-2.800006479,1,0,0,rectangle,8.400011569,-2.800006479,1,0,0,8.400011569,-2.800006479,1,0,0,0,86,86,59,1,,,,,,,,
,,,,,,,,,,,,,FF,,,,,,,,1.3981,,,,,,,,,,,,,,,,,,,,,,60fcfc1aa407beaf778db045,61036deaf0989bee0bac8e33,2021-07-29_20h12.15.434,Simcolourproject_2stim_asymm_v5,2020.2.10,Win32,60,61025ae37ef11b136ea224fe,,,,,,,,,570,-26.79998896,-73.60000753,1,0,0,response5disk,,3,-17.19998881,-6.000006527,1,0,0,rectangle,-17.19998881,-6.000006527,1,0,0,-17.19998881,-6.000006527,1,0,0,0,87,87,61,1,,,,,,,,
,,,,,,,,,,,,,FF,,,,,,,,1.2356,,,,,,,,,,,,,,,,,,,,,,60fcfc1aa407beaf778db045,61036deaf0989bee0bac8e33,2021-07-29_20h12.15.434,Simcolourproject_2stim_asymm_v5,2020.2.10,Win32,60,61025ae37ef11b136ea224fe,,,,,,,,,1686,18.40001172,-34.80000696,1,0,0,response3disk,,4,1.600060296,-3.600006491,1,0,0,rectangle,1.600060296,-3.600006491,1,0,0,1.600060296,-3.600006491,1,0,0,0,88,88,2,1,,,,,,,,
,,,,,,,,,,,,,FF,,,,,,,,1.0178,,,,,,,,,,,,,,,,,,,,,,60fcfc1aa407beaf778db045,61036deaf0989bee0bac8e33,2021-07-29_20h12.15.434,Simcolourproject_2stim_asymm_v5,2020.2.10,Win32,60,61025ae37ef11b136ea224fe,,,,,,,,,3064,48.40001217,-26.40000683,1,0,0,response3disk,,5,15.6000605,-0.800006449,1,0,0,rectangle,15.6000605,-0.800006449,1,0,0,15.6000605,-0.800006449,1,0,0,0,89,89,104,1,,,,,,,,
,,,,,,,,,,,,,FF,,,,,,,,1.5831,,,,,,,,,,,,,,,,,,,,,,60fcfc1aa407beaf778db045,61036deaf0989bee0bac8e33,2021-07-29_20h12.15.434,Simcolourproject_2stim_asymm_v5,2020.2.10,Win32,60,61025ae37ef11b136ea224fe,,,,,,,,,1490,35.6000608,-31.2000069,1,0,0,response3disk,,5,9.600060415,-3.200006485,1,0,0,rectangle,9.600060415,-3.200006485,1,0,0,9.600060415,-3.200006485,1,0,0,0,90,90,152,1,,,,,,,,
,,,,,,,,,,,,,FF,,,,,,,,1.9671,,,,,,,,,,,,,,,,,,,,,,60fcfc1aa407beaf778db045,61036deaf0989bee0bac8e33,2021-07-29_20h12.15.434,Simcolourproject_2stim_asymm_v5,2020.2.10,Win32,60,61025ae37ef11b136ea224fe,,,,,,,,,529,26.00001183,-45.60000712,1,0,0,response3disk,,4,3.200011492,5.599993646,1,0,0,rectangle,3.200011492,5.599993646,1,0,0,3.200011492,5.599993646,1,0,0,0,91,91,148,1,,,,,,,,
,,,,,,,,,,,,,FF,,,,,,,,2.2499,,,,,,,,,,,,,,,,,,,,,,60fcfc1aa407beaf778db045,61036deaf0989bee0bac8e33,2021-07-29_20h12.15.434,Simcolourproject_2stim_asymm_v5,2020.2.10,Win32,60,61025ae37ef11b136ea224fe,,,,,,,,,3340,20.80001175,-38.80000702,1,0,0,response3disk,,4,8.800011575,-8.400006562,1,0,0,rectangle,8.800011575,-8.400006562,1,0,0,8.800011575,-8.400006562,1,0,0,0,92,92,132,1,,,,,,,,
,,,,,,,,,,,,,FF,,,,,,,,1.4665,,,,,,,,,,,,,,,,,,,,,,60fcfc1aa407beaf778db045,61036deaf0989bee0bac8e33,2021-07-29_20h12.15.434,Simcolourproject_2stim_asymm_v5,2020.2.10,Win32,60,61025ae37ef11b136ea224fe,,,,,,,,,2233,-55.99998939,-29.20000687,1,0,0,response5disk,,2,-6.399939823,-0.800006449,1,0,0,rectangle,-6.399939823,-0.800006449,1,0,0,-6.399939823,-0.800006449,1,0,0,0,93,93,70,1,,,,,,,,
,,,,,,,,,,,,,FF,,,,,,,,1.8318,,,,,,,,,,,,,,,,,,,,,,60fcfc1aa407beaf778db045,61036deaf0989bee0bac8e33,2021-07-29_20h12.15.434,Simcolourproject_2stim_asymm_v5,2020.2.10,Win32,60,61025ae37ef11b136ea224fe,,,,,,,,,2715,-37.59998912,-64.00000739,1,0,0,response5disk,,3,1.600060296,4.399993628,1,0,0,rectangle,1.600060296,4.399993628,1,0,0,1.600060296,4.399993628,1,0,0,0,94,94,102,1,,,,,,,,
,,,,,,,,,,,,,FF,,,,,,,,1.5805,,,,,,,,,,,,,,,,,,,,,,60fcfc1aa407beaf778db045,61036deaf0989bee0bac8e33,2021-07-29_20h12.15.434,Simcolourproject_2stim_asymm_v5,2020.2.10,Win32,60,61025ae37ef11b136ea224fe,,,,,,,,,1741,44.80001211,-32.40000692,1,0,0,response3disk,,5,12.80001163,-6.400006533,1,0,0,rectangle,12.80001163,-6.400006533,1,0,0,12.80001163,-6.400006533,1,0,0,0,95,95,114,1,,,,,,,,
,,,,,,,,,,,,,FF,,,,,,,,1.6367,,,,,,,,,,,,,,,,,,,,,,60fcfc1aa407beaf778db045,61036deaf0989bee0bac8e33,2021-07-29_20h12.15.434,Simcolourproject_2stim_asymm_v5,2020.2.10,Win32,60,61025ae37ef11b136ea224fe,,,,,,,,,2426,27.20001185,-49.20000717,1,0,0,response3disk,,4,10.4000116,-5.600006521,1,0,0,rectangle,-71.99998963,-31.2000069,1,0,0,-9.199988693,1.999993593,1,0,0,0,96,96,81,1,,response5disk_3,TRUE,2,2,"[246,310,245,267,75,278,2,257,285,66,25,53,206,186,138,186,312,298,24,97]",1.5811,rectangle
,,,,,,,,,,,,,FF,,,,,,,,11.2496,,,,,,,,,,,,,,,,,,,,,,60fcfc1aa407beaf778db045,61036deaf0989bee0bac8e33,2021-07-29_20h12.15.434,Simcolourproject_2stim_asymm_v5,2020.2.10,Win32,60,61025ae37ef11b136ea224fe,,,,,,,,,3528,-28.39994015,-64.8000074,1,0,0,response5disk,,3,8.800011575,1.599993587,1,0,0,rectangle,8.800011575,1.599993587,1,0,0,8.800011575,1.599993587,1,0,0,0,97,97,30,1,,,,,,,,
,,,,,,,,,,,,,FF,,,,,,,,3.1831,,,,,,,,,,,,,,,,,,,,,,60fcfc1aa407beaf778db045,61036deaf0989bee0bac8e33,2021-07-29_20h12.15.434,Simcolourproject_2stim_asymm_v5,2020.2.10,Win32,60,61025ae37ef11b136ea224fe,,,,,,,,,3631,27.20001185,-58.0000073,1,0,0,response3disk,,4,7.600060385,-2.800006479,1,0,0,rectangle,7.600060385,-2.800006479,1,0,0,7.600060385,-2.800006479,1,0,0,0,98,98,24,1,,,,,,,,
,,,,,,,,,,,,,FF,,,,,,,,1.6357,,,,,,,,,,,,,,,,,,,,,,60fcfc1aa407beaf778db045,61036deaf0989bee0bac8e33,2021-07-29_20h12.15.434,Simcolourproject_2stim_asymm_v5,2020.2.10,Win32,60,61025ae37ef11b136ea224fe,,,,,,,,,1593,25.60006065,-36.40000698,1,0,0,response3disk,,4,6.400011539,0.799993575,1,0,0,rectangle,6.400011539,0.799993575,1,0,0,6.400011539,0.799993575,1,0,0,0,99,99,80,1,,,,,,,,
,,,,,,,,,,,,,FF,,,,,,,,1.6834,,,,,,,,,,,,,,,,,,,,,,60fcfc1aa407beaf778db045,61036deaf0989bee0bac8e33,2021-07-29_20h12.15.434,Simcolourproject_2stim_asymm_v5,2020.2.10,Win32,60,61025ae37ef11b136ea224fe,,,,,,,,,2548,-20.79998887,-63.60000739,1,0,0,response5disk,,3,0.40001145,-7.600006551,1,0,0,rectangle,0.40001145,-7.600006551,1,0,0,0.40001145,-7.600006551,1,0,0,0,100,100,3,1,,,,,,,,
,,,,,,,,,,,,,FF,,,,,,,,1.4668,,,,,,,,,,,,,,,,,,,,,,60fcfc1aa407beaf778db045,61036deaf0989bee0bac8e33,2021-07-29_20h12.15.434,Simcolourproject_2stim_asymm_v5,2020.2.10,Win32,60,61025ae37ef11b136ea224fe,,,,,,,,,957,22.40001178,-45.20000711,1,0,0,response3disk,,4,-1.199988574,-2.000006467,1,0,0,rectangle,-1.199988574,-2.000006467,1,0,0,-1.199988574,-2.000006467,1,0,0,0,101,101,29,1,,,,,,,,
,,,,,,,,,,,,,FF,,,,,,,,2.3667,,,,,,,,,,,,,,,,,,,,,,60fcfc1aa407beaf778db045,61036deaf0989bee0bac8e33,2021-07-29_20h12.15.434,Simcolourproject_2stim_asymm_v5,2020.2.10,Win32,60,61025ae37ef11b136ea224fe,,,,,,,,,189,-28.39994015,-60.40000734,1,0,0,response5disk,,3,10.4000116,-2.000006467,1,0,0,rectangle,10.4000116,-2.000006467,1,0,0,10.4000116,-2.000006467,1,0,0,0,102,102,19,1,,,,,,,,
,,,,,,,,,,,,,FF,,,,,,,,2.4167,,,,,,,,,,,,,,,,,,,,,,60fcfc1aa407beaf778db045,61036deaf0989bee0bac8e33,2021-07-29_20h12.15.434,Simcolourproject_2stim_asymm_v5,2020.2.10,Win32,60,61025ae37ef11b136ea224fe,,,,,,,,,3279,81.60001266,33.99999407,1,0,0,response1disk,,6,20.00001174,3.19999361,1,0,0,rectangle,20.00001174,3.19999361,1,0,0,20.00001174,3.19999361,1,0,0,0,103,103,87,1,,,,,,,,
,,,,,,,,,,,,,FF,,,,,,,,1.1003,,,,,,,,,,,,,,,,,,,,,,60fcfc1aa407beaf778db045,61036deaf0989bee0bac8e33,2021-07-29_20h12.15.434,Simcolourproject_2stim_asymm_v5,2020.2.10,Win32,60,61025ae37ef11b136ea224fe,,,,,,,,,2494,20.40001175,-54.40000725,1,0,0,response3disk,,4,-2.399939764,1.199993581,1,0,0,rectangle,-2.399939764,1.199993581,1,0,0,-2.399939764,1.199993581,1,0,0,0,104,104,12,1,,,,,,,,
,,,,,,,,,,,,,FF,,,,,,,,1.9333,,,,,,,,,,,,,,,,,,,,,,60fcfc1aa407beaf778db045,61036deaf0989bee0bac8e33,2021-07-29_20h12.15.434,Simcolourproject_2stim_asymm_v5,2020.2.10,Win32,60,61025ae37ef11b136ea224fe,,,,,,,,,3625,27.20001185,-70.40000749,1,0,0,response3disk,,4,9.600060415,-7.200006545,1,0,0,rectangle,9.600060415,-7.200006545,1,0,0,9.600060415,-7.200006545,1,0,0,0,105,105,129,1,,,,,,,,
,,,,,,,,,,,,,FF,,,,,,,,1.417,,,,,,,,,,,,,,,,,,,,,,60fcfc1aa407beaf778db045,61036deaf0989bee0bac8e33,2021-07-29_20h12.15.434,Simcolourproject_2stim_asymm_v5,2020.2.10,Win32,60,61025ae37ef11b136ea224fe,,,,,,,,,2657,69.60001248,29.99999401,1,0,0,response1disk,,6,12.80001163,-3.600006491,1,0,0,rectangle,12.80001163,-3.600006491,1,0,0,12.80001163,-3.600006491,1,0,0,0,106,106,71,1,,,,,,,,
,,,,,,,,,,,,,FF,,,,,,,,1.3001,,,,,,,,,,,,,,,,,,,,,,60fcfc1aa407beaf778db045,61036deaf0989bee0bac8e33,2021-07-29_20h12.15.434,Simcolourproject_2stim_asymm_v5,2020.2.10,Win32,60,61025ae37ef11b136ea224fe,,,,,,,,,3129,35.6000608,58.79999444,1,0,0,response1disk,,7,2.40001148,8.399993688,1,0,0,rectangle,2.40001148,8.399993688,1,0,0,2.40001148,8.399993688,1,0,0,0,107,107,77,1,,,,,,,,
,,,,,,,,,,,,,FF,,,,,,,,1.3001,,,,,,,,,,,,,,,,,,,,,,60fcfc1aa407beaf778db045,61036deaf0989bee0bac8e33,2021-07-29_20h12.15.434,Simcolourproject_2stim_asymm_v5,2020.2.10,Win32,60,61025ae37ef11b136ea224fe,,,,,,,,,2822,62.40001237,23.99999392,1,0,0,response1disk,,6,23.60006062,13.19999376,1,0,0,rectangle,23.60006062,13.19999376,1,0,0,23.60006062,13.19999376,1,0,0,0,108,108,37,1,,,,,,,,
,,,,,,,,,,,,,FF,,,,,,,,1.2328,,,,,,,,,,,,,,,,,,,,,,60fcfc1aa407beaf778db045,61036deaf0989bee0bac8e33,2021-07-29_20h12.15.434,Simcolourproject_2stim_asymm_v5,2020.2.10,Win32,60,61025ae37ef11b136ea224fe,,,,,,,,,3470,-29.999989,-52.80000722,1,0,0,response5disk,,3,-0.799988568,-8.000006557,1,0,0,rectangle,-0.799988568,-8.000006557,1,0,0,-0.799988568,-8.000006557,1,0,0,0,109,109,6,1,,,,,,,,
,,,,,,,,,,,,,FF,,,,,,,,1.1829,,,,,,,,,,,,,,,,,,,,,,60fcfc1aa407beaf778db045,61036deaf0989bee0bac8e33,2021-07-29_20h12.15.434,Simcolourproject_2stim_asymm_v5,2020.2.10,Win32,60,61025ae37ef11b136ea224fe,,,,,,,,,614,42.00001207,-71.2000075,1,0,0,response3disk,,4,4.40001151,-2.000006467,1,0,0,rectangle,4.40001151,-2.000006467,1,0,0,4.40001151,-2.000006467,1,0,0,0,110,110,62,1,,,,,,,,
,,,,,,,,,,,,,FF,,,,,,,,1.0834,,,,,,,,,,,,,,,,,,,,,,60fcfc1aa407beaf778db045,61036deaf0989bee0bac8e33,2021-07-29_20h12.15.434,Simcolourproject_2stim_asymm_v5,2020.2.10,Win32,60,61025ae37ef11b136ea224fe,,,,,,,,,1468,18.00001171,-50.80000719,1,0,0,response3disk,,4,2.000011474,-7.200006545,1,0,0,rectangle,2.000011474,-7.200006545,1,0,0,2.000011474,-7.200006545,1,0,0,0,111,111,140,1,,,,,,,,
,,,,,,,,,,,,,FF,,,,,,,,0.9978,,,,,,,,,,,,,,,,,,,,,,60fcfc1aa407beaf778db045,61036deaf0989bee0bac8e33,2021-07-29_20h12.15.434,Simcolourproject_2stim_asymm_v5,2020.2.10,Win32,60,61025ae37ef11b136ea224fe,,,,,,,,,642,30.00001189,-41.60000706,1,0,0,response3disk,,4,16.00001168,-12.00000662,1,0,0,rectangle,16.00001168,-12.00000662,1,0,0,16.00001168,-12.00000662,1,0,0,0,112,112,43,1,,,,,,,,
,,,,,,,,,,,,,FF,,,,,,,,1.6166,,,,,,,,,,,,,,,,,,,,,,60fcfc1aa407beaf778db045,61036deaf0989bee0bac8e33,2021-07-29_20h12.15.434,Simcolourproject_2stim_asymm_v5,2020.2.10,Win32,60,61025ae37ef11b136ea224fe,,,,,,,,,4022,-42.39994036,-53.20000723,1,0,0,response5disk,,3,-17.59998882,-10.40000659,1,0,0,rectangle,-17.59998882,-10.40000659,1,0,0,-17.59998882,-10.40000659,1,0,0,0,113,113,0,1,,,,,,,,
,,,,,,,,,,,,,FF,,,,,,,,1.3497,,,,,,,,,,,,,,,,,,,,,,60fcfc1aa407beaf778db045,61036deaf0989bee0bac8e33,2021-07-29_20h12.15.434,Simcolourproject_2stim_asymm_v5,2020.2.10,Win32,60,61025ae37ef11b136ea224fe,,,,,,,,,2673,57.2000123,37.59999412,1,0,0,response1disk,,6,8.800011575,3.19999361,1,0,0,rectangle,8.800011575,3.19999361,1,0,0,8.800011575,3.19999361,1,0,0,0,114,114,109,1,,,,,,,,
,,,,,,,,,,,,,FF,,,,,,,,2.1669,,,,,,,,,,,,,,,,,,,,,,60fcfc1aa407beaf778db045,61036deaf0989bee0bac8e33,2021-07-29_20h12.15.434,Simcolourproject_2stim_asymm_v5,2020.2.10,Win32,60,61025ae37ef11b136ea224fe,,,,,,,,,692,89.60001278,-29.20000687,1,0,0,response3disk,,5,14.80001166,5.599993646,1,0,0,rectangle,14.80001166,5.599993646,1,0,0,14.80001166,5.599993646,1,0,0,0,115,115,154,1,,,,,,,,
,,,,,,,,,,,,,FF,,,,,,,,1.1167,,,,,,,,,,,,,,,,,,,,,,60fcfc1aa407beaf778db045,61036deaf0989bee0bac8e33,2021-07-29_20h12.15.434,Simcolourproject_2stim_asymm_v5,2020.2.10,Win32,60,61025ae37ef11b136ea224fe,,,,,,,,,559,49.20001218,35.59999409,1,0,0,response1disk,,6,6.000011533,9.1999937,1,0,0,rectangle,6.000011533,9.1999937,1,0,0,6.000011533,9.1999937,1,0,0,0,116,116,26,1,,,,,,,,
,,,,,,,,,,,,,FF,,,,,,,,1.4829,,,,,,,,,,,,,,,,,,,,,,60fcfc1aa407beaf778db045,61036deaf0989bee0bac8e33,2021-07-29_20h12.15.434,Simcolourproject_2stim_asymm_v5,2020.2.10,Win32,60,61025ae37ef11b136ea224fe,,,,,,,,,2101,-56.39994057,-28.80000687,1,0,0,response5disk,,2,-3.199988604,-3.600006491,1,0,0,rectangle,-3.199988604,-3.600006491,1,0,0,-3.199988604,-3.600006491,1,0,0,0,117,117,98,1,,,,,,,,
,,,,,,,,,,,,,FF,,,,,,,,1.9163,,,,,,,,,,,,,,,,,,,,,,60fcfc1aa407beaf778db045,61036deaf0989bee0bac8e33,2021-07-29_20h12.15.434,Simcolourproject_2stim_asymm_v5,2020.2.10,Win32,60,61025ae37ef11b136ea224fe,,,,,,,,,875,24.40001181,-60.00000733,1,0,0,response3disk,,4,-2.799988598,0.399993569,1,0,0,rectangle,-2.799988598,0.399993569,1,0,0,-2.799988598,0.399993569,1,0,0,0,118,118,88,1,,,,,,,,
,,,,,,,,,,,,,FF,,,,,,,,1.8337,,,,,,,,,,,,,,,,,,,,,,60fcfc1aa407beaf778db045,61036deaf0989bee0bac8e33,2021-07-29_20h12.15.434,Simcolourproject_2stim_asymm_v5,2020.2.10,Win32,60,61025ae37ef11b136ea224fe,,,,,,,,,2692,44.40001211,-26.40000683,1,0,0,response3disk,,5,17.60006053,-4.800006509,1,0,0,rectangle,17.60006053,-4.800006509,1,0,0,17.60006053,-4.800006509,1,0,0,0,119,119,137,1,,,,,,,,
,,,,,,,,,,,,,FF,,,,,,,,1.0163,,,,,,,,,,,,,,,,,,,,,,60fcfc1aa407beaf778db045,61036deaf0989bee0bac8e33,2021-07-29_20h12.15.434,Simcolourproject_2stim_asymm_v5,2020.2.10,Win32,60,61025ae37ef11b136ea224fe,,,,,,,,,104,84.0000127,50.39999431,1,0,0,response1disk,,6,25.20001182,3.999993622,1,0,0,rectangle,25.20001182,3.999993622,1,0,0,25.20001182,3.999993622,1,0,0,0,120,120,105,1,,,,,,,,
,,,,,,,,,,,,,FF,,,,,,,,1.3335,,,,,,,,,,,,,,,,,,,,,,60fcfc1aa407beaf778db045,61036deaf0989bee0bac8e33,2021-07-29_20h12.15.434,Simcolourproject_2stim_asymm_v5,2020.2.10,Win32,60,61025ae37ef11b136ea224fe,,,,,,,,,2550,55.60001227,36.39999411,1,0,0,response1disk,,6,6.400011539,4.399993628,1,0,0,rectangle,6.400011539,4.399993628,1,0,0,6.400011539,4.399993628,1,0,0,0,121,121,44,1,,,,,,,,
,,,,,,,,,,,,,FF,,,,,,,,2.0164,,,,,,,,,,,,,,,,,,,,,,60fcfc1aa407beaf778db045,61036deaf0989bee0bac8e33,2021-07-29_20h12.15.434,Simcolourproject_2stim_asymm_v5,2020.2.10,Win32,60,61025ae37ef11b136ea224fe,,,,,,,,,371,53.20001224,-26.00000682,1,0,0,response3disk,,5,17.2000117,0.399993569,1,0,0,rectangle,17.2000117,0.399993569,1,0,0,17.2000117,0.399993569,1,0,0,0,122,122,69,1,,,,,,,,
,,,,,,,,,,,,,FF,,,,,,,,1.0497,,,,,,,,,,,,,,,,,,,,,,60fcfc1aa407beaf778db045,61036deaf0989bee0bac8e33,2021-07-29_20h12.15.434,Simcolourproject_2stim_asymm_v5,2020.2.10,Win32,60,61025ae37ef11b136ea224fe,,,,,,,,,2818,30.4000119,59.19997003,1,0,0,response1disk,,7,-3.59998861,-0.800006449,1,0,0,rectangle,-3.59998861,-0.800006449,1,0,0,-3.59998861,-0.800006449,1,0,0,0,123,123,85,1,,,,,,,,
,,,,,,,,,,,,,FF,,,,,,,,2.5001,,,,,,,,,,,,,,,,,,,,,,60fcfc1aa407beaf778db045,61036deaf0989bee0bac8e33,2021-07-29_20h12.15.434,Simcolourproject_2stim_asymm_v5,2020.2.10,Win32,60,61025ae37ef11b136ea224fe,,,,,,,,,604,91.2000128,-27.20000684,1,0,0,response3disk,,5,22.40001178,-2.000006467,1,0,0,rectangle,22.40001178,-2.000006467,1,0,0,22.40001178,-2.000006467,1,0,0,0,124,124,79,1,,,,,,,,
,,,,,,,,,,,,,FF,,,,,,,,2.5329,,,,,,,,,,,,,,,,,,,,,,60fcfc1aa407beaf778db045,61036deaf0989bee0bac8e33,2021-07-29_20h12.15.434,Simcolourproject_2stim_asymm_v5,2020.2.10,Win32,60,61025ae37ef11b136ea224fe,,,,,,,,,2005,68.00001246,-17.6000067,1,0,0,response3disk,,5,34.00001195,-4.400006503,1,0,0,rectangle,34.00001195,-4.400006503,1,0,0,34.00001195,-4.400006503,1,0,0,0,125,125,73,1,,,,,,,,
,,,,,,,,,,,,,FF,,,,,,,,2.2663,,,,,,,,,,,,,,,,,,,,,,60fcfc1aa407beaf778db045,61036deaf0989bee0bac8e33,2021-07-29_20h12.15.434,Simcolourproject_2stim_asymm_v5,2020.2.10,Win32,60,61025ae37ef11b136ea224fe,,,,,,,,,936,91.2000128,73.99999467,1,0,0,response1disk,,6,20.80001175,6.799993664,1,0,0,rectangle,20.80001175,6.799993664,1,0,0,20.80001175,6.799993664,1,0,0,0,126,126,92,1,,,,,,,,
,,,,,,,,,,,,,FF,,,,,,,,1.0511,,,,,,,,,,,,,,,,,,,,,,60fcfc1aa407beaf778db045,61036deaf0989bee0bac8e33,2021-07-29_20h12.15.434,Simcolourproject_2stim_asymm_v5,2020.2.10,Win32,60,61025ae37ef11b136ea224fe,,,,,,,,,3640,50.00001219,-22.40000677,1,0,0,response3disk,,5,16.40001169,-4.800006509,1,0,0,rectangle,16.40001169,-4.800006509,1,0,0,16.40001169,-4.800006509,1,0,0,0,127,127,106,1,,,,,,,,
,,,,,,,,,,,,,FF,,,,,,,,0.9331,,,,,,,,,,,,,,,,,,,,,,60fcfc1aa407beaf778db045,61036deaf0989bee0bac8e33,2021-07-29_20h12.15.434,Simcolourproject_2stim_asymm_v5,2020.2.10,Win32,60,61025ae37ef11b136ea224fe,,,,,,,,,406,39.60006086,-20.80000675,1,0,0,response3disk,,5,9.600060415,-2.000006467,1,0,0,rectangle,9.600060415,-2.000006467,1,0,0,9.600060415,-2.000006467,1,0,0,0,128,128,18,1,,,,,,,,
,,,,,,,,,,,,,FF,,,,,,,,1.1501,,,,,,,,,,,,,,,,,,,,,,60fcfc1aa407beaf778db045,61036deaf0989bee0bac8e33,2021-07-29_20h12.15.434,Simcolourproject_2stim_asymm_v5,2020.2.10,Win32,60,61025ae37ef11b136ea224fe,,,,,,,,,372,-24.39994009,-52.40000722,1,0,0,response5disk,,3,6.800011545,-10.00000659,1,0,0,rectangle,6.800011545,-10.00000659,1,0,0,6.800011545,-10.00000659,1,0,0,0,129,129,142,1,,,,,,,,
,,,,,,,,,,,,,FF,,,,,,,,1.9668,,,,,,,,,,,,,,,,,,,,,,60fcfc1aa407beaf778db045,61036deaf0989bee0bac8e33,2021-07-29_20h12.15.434,Simcolourproject_2stim_asymm_v5,2020.2.10,Win32,60,61025ae37ef11b136ea224fe,,,,,,,,,929,42.00001207,-58.80000731,1,0,0,response3disk,,4,9.600060415,-11.2000066,1,0,0,rectangle,9.600060415,-11.2000066,1,0,0,9.600060415,-11.2000066,1,0,0,0,130,130,100,1,,,,,,,,
,,,,,,,,,,,,,FF,,,,,,,,1.35,,,,,,,,,,,,,,,,,,,,,,60fcfc1aa407beaf778db045,61036deaf0989bee0bac8e33,2021-07-29_20h12.15.434,Simcolourproject_2stim_asymm_v5,2020.2.10,Win32,60,61025ae37ef11b136ea224fe,,,,,,,,,2226,-73.59998965,29.19996958,1,0,0,response7disk,,1,-27.19998896,12.39999375,1,0,0,rectangle,-27.19998896,12.39999375,1,0,0,-27.19998896,12.39999375,1,0,0,0,131,131,28,1,,,,,,,,
,,,,,,,,,,,,,FF,,,,,,,,1.5334,,,,,,,,,,,,,,,,,,,,,,60fcfc1aa407beaf778db045,61036deaf0989bee0bac8e33,2021-07-29_20h12.15.434,Simcolourproject_2stim_asymm_v5,2020.2.10,Win32,60,61025ae37ef11b136ea224fe,,,,,,,,,3703,-67.59998956,-52.40000722,1,0,0,response5disk,,2,-3.999988616,-7.200006545,1,0,0,rectangle,-3.999988616,-7.200006545,1,0,0,-3.999988616,-7.200006545,1,0,0,0,132,132,27,1,,,,,,,,
,,,,,,,,,,,,,FF,,,,,,,,1.2165,,,,,,,,,,,,,,,,,,,,,,60fcfc1aa407beaf778db045,61036deaf0989bee0bac8e33,2021-07-29_20h12.15.434,Simcolourproject_2stim_asymm_v5,2020.2.10,Win32,60,61025ae37ef11b136ea224fe,,,,,,,,,232,69.20001248,-32.00000691,1,0,0,response3disk,,5,16.00001168,9.1999937,1,0,0,rectangle,16.00001168,9.1999937,1,0,0,16.00001168,9.1999937,1,0,0,0,133,133,68,1,,,,,,,,
,,,,,,,,,,,,,FF,,,,,,,,1.2667,,,,,,,,,,,,,,,,,,,,,,60fcfc1aa407beaf778db045,61036deaf0989bee0bac8e33,2021-07-29_20h12.15.434,Simcolourproject_2stim_asymm_v5,2020.2.10,Win32,60,61025ae37ef11b136ea224fe,,,,,,,,,1346,58.00001231,39.19996973,1,0,0,response1disk,,6,5.200011522,-4.800006509,1,0,0,rectangle,5.200011522,-4.800006509,1,0,0,5.200011522,-4.800006509,1,0,0,0,134,134,138,1,,,,,,,,
,,,,,,,,,,,,,FF,,,,,,,,1.2829,,,,,,,,,,,,,,,,,,,,,,60fcfc1aa407beaf778db045,61036deaf0989bee0bac8e33,2021-07-29_20h12.15.434,Simcolourproject_2stim_asymm_v5,2020.2.10,Win32,60,61025ae37ef11b136ea224fe,,,,,,,,,1725,43.60006092,23.59999391,1,0,0,response1disk,,6,15.20001167,5.599993646,1,0,0,rectangle,15.20001167,5.599993646,1,0,0,15.20001167,5.599993646,1,0,0,0,135,135,118,1,,,,,,,,
,,,,,,,,,,,,,FF,,,,,,,,1.2833,,,,,,,,,,,,,,,,,,,,,,60fcfc1aa407beaf778db045,61036deaf0989bee0bac8e33,2021-07-29_20h12.15.434,Simcolourproject_2stim_asymm_v5,2020.2.10,Win32,60,61025ae37ef11b136ea224fe,,,,,,,,,2778,-25.59998894,-50.00000718,1,0,0,response5disk,,3,5.200011522,-3.200006485,1,0,0,rectangle,5.200011522,-3.200006485,1,0,0,5.200011522,-3.200006485,1,0,0,0,136,136,74,1,,,,,,,,
,,,,,,,,,,,,,FF,,,,,,,,1.9001,,,,,,,,,,,,,,,,,,,,,,60fcfc1aa407beaf778db045,61036deaf0989bee0bac8e33,2021-07-29_20h12.15.434,Simcolourproject_2stim_asymm_v5,2020.2.10,Win32,60,61025ae37ef11b136ea224fe,,,,,,,,,3097,-82.79998979,32.79999405,1,0,0,response7disk,,1,-2.399939764,0.799993575,1,0,0,rectangle,-39.19998914,77.99999472,1,0,0,-10.39993988,9.999993712,1,0,0,0,137,137,159,1,,response7disk_3,TRUE,0,0,"[246,310,245,267,75,278,2,257,285,66,25,53,206,186,138,186,312,298,24,97]",1.5849,rectangle
,,,,,,,,,,,,,FF,,,,,,,,1.6335,,,,,,,,,,,,,,,,,,,,,,60fcfc1aa407beaf778db045,61036deaf0989bee0bac8e33,2021-07-29_20h12.15.434,Simcolourproject_2stim_asymm_v5,2020.2.10,Win32,60,61025ae37ef11b136ea224fe,,,,,,,,,1072,-22.7999889,-46.00000712,1,0,0,response5disk,,3,4.000011504,0.399993569,1,0,0,rectangle,4.000011504,0.399993569,1,0,0,4.000011504,0.399993569,1,0,0,0,138,138,7,1,,,,,,,,
,,,,,,,,,,,,,FF,,,,,,,,1.5167,,,,,,,,,,,,,,,,,,,,,,60fcfc1aa407beaf778db045,61036deaf0989bee0bac8e33,2021-07-29_20h12.15.434,Simcolourproject_2stim_asymm_v5,2020.2.10,Win32,60,61025ae37ef11b136ea224fe,,,,,,,,,2541,-38.79998913,55.19996997,1,0,0,response7disk,,0,-6.799988657,-6.4373E-06,1,0,0,rectangle,-6.799988657,-6.4373E-06,1,0,0,-6.799988657,-6.4373E-06,1,0,0,0,139,139,72,1,,,,,,,,
,,,,,,,,,,,,,FF,,,,,,,,1.2529,,,,,,,,,,,,,,,,,,,,,,60fcfc1aa407beaf778db045,61036deaf0989bee0bac8e33,2021-07-29_20h12.15.434,Simcolourproject_2stim_asymm_v5,2020.2.10,Win32,60,61025ae37ef11b136ea224fe,,,,,,,,,4125,-51.19998932,-27.20000684,1,0,0,response5disk,,2,3.200011492,-8.000006557,1,0,0,rectangle,3.200011492,-8.000006557,1,0,0,3.200011492,-8.000006557,1,0,0,0,140,140,113,1,,,,,,,,
,,,,,,,,,,,,,FF,,,,,,,,1.1332,,,,,,,,,,,,,,,,,,,,,,60fcfc1aa407beaf778db045,61036deaf0989bee0bac8e33,2021-07-29_20h12.15.434,Simcolourproject_2stim_asymm_v5,2020.2.10,Win32,60,61025ae37ef11b136ea224fe,,,,,,,,,3636,32.40001193,-49.60000718,1,0,0,response3disk,,4,12.40001163,-5.200006515,1,0,0,rectangle,12.40001163,-5.200006515,1,0,0,12.40001163,-5.200006515,1,0,0,0,141,141,10,1,,,,,,,,
,,,,,,,,,,,,,FF,,,,,,,,1.7668,,,,,,,,,,,,,,,,,,,,,,60fcfc1aa407beaf778db045,61036deaf0989bee0bac8e33,2021-07-29_20h12.15.434,Simcolourproject_2stim_asymm_v5,2020.2.10,Win32,60,61025ae37ef11b136ea224fe,,,,,,,,,1397,37.60006083,-52.80000722,1,0,0,response3disk,,4,10.4000116,-5.200006515,1,0,0,rectangle,10.4000116,-5.200006515,1,0,0,10.4000116,-5.200006515,1,0,0,0,142,142,147,1,,,,,,,,
,,,,,,,,,,,,,FF,,,,,,,,1.2838,,,,,,,,,,,,,,,,,,,,,,60fcfc1aa407beaf778db045,61036deaf0989bee0bac8e33,2021-07-29_20h12.15.434,Simcolourproject_2stim_asymm_v5,2020.2.10,Win32,60,61025ae37ef11b136ea224fe,,,,,,,,,1062,24.0000118,-52.40000722,1,0,0,response3disk,,4,2.800011486,4.799993634,1,0,0,rectangle,2.800011486,4.799993634,1,0,0,2.800011486,4.799993634,1,0,0,0,143,143,17,1,,,,,,,,
,,,,,,,,,,,,,FF,,,,,,,,1.0504,,,,,,,,,,,,,,,,,,,,,,60fcfc1aa407beaf778db045,61036deaf0989bee0bac8e33,2021-07-29_20h12.15.434,Simcolourproject_2stim_asymm_v5,2020.2.10,Win32,60,61025ae37ef11b136ea224fe,,,,,,,,,2955,-31.99998903,-48.00000715,1,0,0,response5disk,,3,4.40001151,-6.4373E-06,1,0,0,rectangle,4.40001151,-6.4373E-06,1,0,0,4.40001151,-6.4373E-06,1,0,0,0,144,144,11,1,,,,,,,,
,,,,,,,,,,,,,FF,,,,,,,,1.1665,,,,,,,,,,,,,,,,,,,,,,60fcfc1aa407beaf778db045,61036deaf0989bee0bac8e33,2021-07-29_20h12.15.434,Simcolourproject_2stim_asymm_v5,2020.2.10,Win32,60,61025ae37ef11b136ea224fe,,,,,,,,,187,-37.99998912,-72.80000752,1,0,0,response5disk,,3,1.600060296,9.599993706,1,0,0,rectangle,1.600060296,9.599993706,1,0,0,1.600060296,9.599993706,1,0,0,0,145,145,41,1,,,,,,,,
,,,,,,,,,,,,,FF,,,,,,,,1.8522,,,,,,,,,,,,,,,,,,,,,,60fcfc1aa407beaf778db045,61036deaf0989bee0bac8e33,2021-07-29_20h12.15.434,Simcolourproject_2stim_asymm_v5,2020.2.10,Win32,60,61025ae37ef11b136ea224fe,,,,,,,,,2220,38.00001201,-60.00000733,1,0,0,response3disk,,4,4.40001151,-8.400006562,1,0,0,rectangle,4.40001151,-8.400006562,1,0,0,4.40001151,-8.400006562,1,0,0,0,146,146,96,1,,,,,,,,
,,,,,,,,,,,,,FF,,,,,,,,1.4336,,,,,,,,,,,,,,,,,,,,,,60fcfc1aa407beaf778db045,61036deaf0989bee0bac8e33,2021-07-29_20h12.15.434,Simcolourproject_2stim_asymm_v5,2020.2.10,Win32,60,61025ae37ef11b136ea224fe,,,,,,,,,2655,30.8000119,-43.60000709,1,0,0,response3disk,,4,10.00001159,-2.000006467,1,0,0,rectangle,10.00001159,-2.000006467,1,0,0,10.00001159,-2.000006467,1,0,0,0,147,147,143,1,,,,,,,,
,,,,,,,,,,,,,FF,,,,,,,,1.114,,,,,,,,,,,,,,,,,,,,,,60fcfc1aa407beaf778db045,61036deaf0989bee0bac8e33,2021-07-29_20h12.15.434,Simcolourproject_2stim_asymm_v5,2020.2.10,Win32,60,61025ae37ef11b136ea224fe,,,,,,,,,2084,40.00001204,-30.00000688,1,0,0,response3disk,,5,18.40001172,-10.40000659,1,0,0,rectangle,18.40001172,-10.40000659,1,0,0,18.40001172,-10.40000659,1,0,0,0,148,148,97,1,,,,,,,,
,,,,,,,,,,,,,FF,,,,,,,,1.3341,,,,,,,,,,,,,,,,,,,,,,60fcfc1aa407beaf778db045,61036deaf0989bee0bac8e33,2021-07-29_20h12.15.434,Simcolourproject_2stim_asymm_v5,2020.2.10,Win32,60,61025ae37ef11b136ea224fe,,,,,,,,,2455,39.60006086,-27.60000685,1,0,0,response3disk,,5,10.4000116,-1.200006455,1,0,0,rectangle,10.4000116,-1.200006455,1,0,0,10.4000116,-1.200006455,1,0,0,0,149,149,50,1,,,,,,,,
,,,,,,,,,,,,,FF,,,,,,,,1.8167,,,,,,,,,,,,,,,,,,,,,,60fcfc1aa407beaf778db045,61036deaf0989bee0bac8e33,2021-07-29_20h12.15.434,Simcolourproject_2stim_asymm_v5,2020.2.10,Win32,60,61025ae37ef11b136ea224fe,,,,,,,,,3983,57.6000123,-34.00000694,1,0,0,response3disk,,5,21.60006059,-6.400006533,1,0,0,rectangle,21.60006059,-6.400006533,1,0,0,21.60006059,-6.400006533,1,0,0,0,150,150,76,1,,,,,,,,
,,,,,,,,,,,,,FF,,,,,,,,3.4001,,,,,,,,,,,,,,,,,,,,,,60fcfc1aa407beaf778db045,61036deaf0989bee0bac8e33,2021-07-29_20h12.15.434,Simcolourproject_2stim_asymm_v5,2020.2.10,Win32,60,61025ae37ef11b136ea224fe,,,,,,,,,2938,64.0000124,-41.20000705,1,0,0,response3disk,,5,28.00001186,-9.60000658,1,0,0,rectangle,28.00001186,-9.60000658,1,0,0,28.00001186,-9.60000658,1,0,0,0,151,151,35,1,,,,,,,,
,,,,,,,,,,,,,FF,,,,,,,,1.5666,,,,,,,,,,,,,,,,,,,,,,60fcfc1aa407beaf778db045,61036deaf0989bee0bac8e33,2021-07-29_20h12.15.434,Simcolourproject_2stim_asymm_v5,2020.2.10,Win32,60,61025ae37ef11b136ea224fe,,,,,,,,,675,60.40001234,28.79999399,1,0,0,response1disk,,6,30.8000119,11.99999374,1,0,0,rectangle,30.8000119,11.99999374,1,0,0,30.8000119,11.99999374,1,0,0,0,152,152,8,1,,,,,,,,
,,,,,,,,,,,,,FF,,,,,,,,1.5349,,,,,,,,,,,,,,,,,,,,,,60fcfc1aa407beaf778db045,61036deaf0989bee0bac8e33,2021-07-29_20h12.15.434,Simcolourproject_2stim_asymm_v5,2020.2.10,Win32,60,61025ae37ef11b136ea224fe,,,,,,,,,2232,-29.599989,-62.00000736,1,0,0,response5disk,,3,16.40001169,-6.000006527,1,0,0,rectangle,16.40001169,-6.000006527,1,0,0,16.40001169,-6.000006527,1,0,0,0,153,153,57,1,,,,,,,,
,,,,,,,,,,,,,FF,,,,,,,,1.3832,,,,,,,,,,,,,,,,,,,,,,60fcfc1aa407beaf778db045,61036deaf0989bee0bac8e33,2021-07-29_20h12.15.434,Simcolourproject_2stim_asymm_v5,2020.2.10,Win32,60,61025ae37ef11b136ea224fe,,,,,,,,,703,32.80001193,-57.20000729,1,0,0,response3disk,,4,29.60006071,-14.80000666,1,0,0,rectangle,29.60006071,-14.80000666,1,0,0,29.60006071,-14.80000666,1,0,0,0,154,154,146,1,,,,,,,,
,,,,,,,,,,,,,FF,,,,,,,,1.4665,,,,,,,,,,,,,,,,,,,,,,60fcfc1aa407beaf778db045,61036deaf0989bee0bac8e33,2021-07-29_20h12.15.434,Simcolourproject_2stim_asymm_v5,2020.2.10,Win32,60,61025ae37ef11b136ea224fe,,,,,,,,,1135,-29.19998899,-61.60000736,1,0,0,response5disk,,3,15.6000605,1.999993593,1,0,0,rectangle,15.6000605,1.999993593,1,0,0,15.6000605,1.999993593,1,0,0,0,155,155,130,1,,,,,,,,
,,,,,,,,,,,,,FF,,,,,,,,1.7669,,,,,,,,,,,,,,,,,,,,,,60fcfc1aa407beaf778db045,61036deaf0989bee0bac8e33,2021-07-29_20h12.15.434,Simcolourproject_2stim_asymm_v5,2020.2.10,Win32,60,61025ae37ef11b136ea224fe,,,,,,,,,332,49.60006101,-39.20000702,1,0,0,response3disk,,5,14.80001166,-1.600006461,1,0,0,rectangle,14.80001166,-1.600006461,1,0,0,14.80001166,-1.600006461,1,0,0,0,156,156,53,1,,,,,,,,
,,,,,,,,,,,,,FF,,,,,,,,1.5498,,,,,,,,,,,,,,,,,,,,,,60fcfc1aa407beaf778db045,61036deaf0989bee0bac8e33,2021-07-29_20h12.15.434,Simcolourproject_2stim_asymm_v5,2020.2.10,Win32,60,61025ae37ef11b136ea224fe,,,,,,,,,1706,62.40001237,24.79999393,1,0,0,response1disk,,6,10.4000116,-12.00000662,1,0,0,rectangle,10.4000116,-12.00000662,1,0,0,10.4000116,-12.00000662,1,0,0,0,157,157,52,1,,,,,,,,
,,,,,,,,,,,,,FF,,,,,,,,2.4003,,,,,,,,,,,,,,,,,,,,,,60fcfc1aa407beaf778db045,61036deaf0989bee0bac8e33,2021-07-29_20h12.15.434,Simcolourproject_2stim_asymm_v5,2020.2.10,Win32,60,61025ae37ef11b136ea224fe,,,,,,,,,3490,88.80001277,-25.60000682,1,0,0,response3disk,,5,33.60006077,2.399993598,1,0,0,rectangle,33.60006077,2.399993598,1,0,0,33.60006077,2.399993598,1,0,0,0,158,158,131,1,,,,,,,,
,,,,,,,,,,,,,FF,,,,,,,,3.0002,,,,,,,,,,,,,,,,,,,,,,60fcfc1aa407beaf778db045,61036deaf0989bee0bac8e33,2021-07-29_20h12.15.434,Simcolourproject_2stim_asymm_v5,2020.2.10,Win32,60,61025ae37ef11b136ea224fe,,,,,,,,,3304,21.60006059,-57.20000729,1,0,0,response3disk,,4,10.4000116,-2.800006479,1,0,0,rectangle,10.4000116,-2.800006479,1,0,0,10.4000116,-2.800006479,1,0,0,0,159,159,110,1,,,,,,,,
,,,,,,,,,,,,,FF,,,,,,,,1.1835,,,,,,,,,,,,,,,,,,,,,,60fcfc1aa407beaf778db045,61036deaf0989bee0bac8e33,2021-07-29_20h12.15.434,Simcolourproject_2stim_asymm_v5,2020.2.10,Win32,60,61025ae37ef11b136ea224fe,,,,,,,,,3783,-29.19998899,-52.80000722,1,0,0,response5disk,,3,14.40001166,6.799993664,1,0,0,rectangle,14.40001166,6.799993664,1,0,0,14.40001166,6.799993664,1,0,0,1,0,160,82,1,,,,,,,,
,,,,,,,,,,,,,FF,,,,,,,,1.5496,,,,,,,,,,,,,,,,,,,,,,60fcfc1aa407beaf778db045,61036deaf0989bee0bac8e33,2021-07-29_20h12.15.434,Simcolourproject_2stim_asymm_v5,2020.2.10,Win32,60,61025ae37ef11b136ea224fe,,,,,,,,,2915,29.20001188,-40.00000703,1,0,0,response3disk,,4,14.40001166,-5.200006515,1,0,0,rectangle,14.40001166,-5.200006515,1,0,0,14.40001166,-5.200006515,1,0,0,1,1,161,150,1,,,,,,,,
,,,,,,,,,,,,,FF,,,,,,,,1.8169,,,,,,,,,,,,,,,,,,,,,,60fcfc1aa407beaf778db045,61036deaf0989bee0bac8e33,2021-07-29_20h12.15.434,Simcolourproject_2stim_asymm_v5,2020.2.10,Win32,60,61025ae37ef11b136ea224fe,,,,,,,,,3681,33.20001194,-27.20000684,1,0,0,response3disk,,5,14.40001166,-6.4373E-06,1,0,0,rectangle,14.40001166,-6.4373E-06,1,0,0,14.40001166,-6.4373E-06,1,0,0,1,2,162,48,1,,,,,,,,
,,,,,,,,,,,,,FF,,,,,,,,1.2335,,,,,,,,,,,,,,,,,,,,,,60fcfc1aa407beaf778db045,61036deaf0989bee0bac8e33,2021-07-29_20h12.15.434,Simcolourproject_2stim_asymm_v5,2020.2.10,Win32,60,61025ae37ef11b136ea224fe,,,,,,,,,858,44.40001211,-25.20000681,1,0,0,response3disk,,5,23.60006062,-6.000006527,1,0,0,rectangle,23.60006062,-6.000006527,1,0,0,23.60006062,-6.000006527,1,0,0,1,3,163,137,1,,,,,,,,
,,,,,,,,,,,,,FF,,,,,,,,2.5165,,,,,,,,,,,,,,,,,,,,,,60fcfc1aa407beaf778db045,61036deaf0989bee0bac8e33,2021-07-29_20h12.15.434,Simcolourproject_2stim_asymm_v5,2020.2.10,Win32,60,61025ae37ef11b136ea224fe,,,,,,,,,3427,-53.19998935,38.79999414,1,0,0,response7disk,,1,-9.999988705,7.19999367,1,0,0,rectangle,-9.999988705,7.19999367,1,0,0,-9.999988705,7.19999367,1,0,0,1,4,164,125,1,,,,,,,,
,,,,,,,,,,,,,FF,,,,,,,,1.3832,,,,,,,,,,,,,,,,,,,,,,60fcfc1aa407beaf778db045,61036deaf0989bee0bac8e33,2021-07-29_20h12.15.434,Simcolourproject_2stim_asymm_v5,2020.2.10,Win32,60,61025ae37ef11b136ea224fe,,,,,,,,,1809,52.40001222,-26.80000684,1,0,0,response3disk,,5,11.20001161,-4.800006509,1,0,0,rectangle,11.20001161,-4.800006509,1,0,0,11.20001161,-4.800006509,1,0,0,1,5,165,18,1,,,,,,,,
,,,,,,,,,,,,,FF,,,,,,,,1.7829,,,,,,,,,,,,,,,,,,,,,,60fcfc1aa407beaf778db045,61036deaf0989bee0bac8e33,2021-07-29_20h12.15.434,Simcolourproject_2stim_asymm_v5,2020.2.10,Win32,60,61025ae37ef11b136ea224fe,,,,,,,,,1103,45.20001212,-24.00000679,1,0,0,response3disk,,5,14.80001166,-4.800006509,1,0,0,rectangle,14.80001166,-4.800006509,1,0,0,14.80001166,-4.800006509,1,0,0,1,6,166,43,1,,,,,,,,
,,,,,,,,,,,,,FF,,,,,,,,1.2832,,,,,,,,,,,,,,,,,,,,,,60fcfc1aa407beaf778db045,61036deaf0989bee0bac8e33,2021-07-29_20h12.15.434,Simcolourproject_2stim_asymm_v5,2020.2.10,Win32,60,61025ae37ef11b136ea224fe,,,,,,,,,2228,-48.39994045,-25.20000681,1,0,0,response5disk,,2,-15.99998879,-8.400006562,1,0,0,rectangle,-15.99998879,-8.400006562,1,0,0,-15.99998879,-8.400006562,1,0,0,1,7,167,118,1,,,,,,,,
,,,,,,,,,,,,,FF,,,,,,,,2.3659,,,,,,,,,,,,,,,,,,,,,,60fcfc1aa407beaf778db045,61036deaf0989bee0bac8e33,2021-07-29_20h12.15.434,Simcolourproject_2stim_asymm_v5,2020.2.10,Win32,60,61025ae37ef11b136ea224fe,,,,,,,,,3904,46.40001214,-25.20000681,1,0,0,response3disk,,5,8.000011563,4.399993628,1,0,0,rectangle,8.000011563,4.399993628,1,0,0,8.000011563,4.399993628,1,0,0,1,8,168,9,1,,,,,,,,
,,,,,,,,,,,,,FF,,,,,,,,1.7032,,,,,,,,,,,,,,,,,,,,,,60fcfc1aa407beaf778db045,61036deaf0989bee0bac8e33,2021-07-29_20h12.15.434,Simcolourproject_2stim_asymm_v5,2020.2.10,Win32,60,61025ae37ef11b136ea224fe,,,,,,,,,264,-66.79998955,27.59999397,1,0,0,response7disk,,1,-18.79998884,-2.400006473,1,0,0,rectangle,-18.79998884,-2.400006473,1,0,0,-18.79998884,-2.400006473,1,0,0,1,9,169,56,1,,,,,,,,
,,,,,,,,,,,,,FF,,,,,,,,1.4336,,,,,,,,,,,,,,,,,,,,,,60fcfc1aa407beaf778db045,61036deaf0989bee0bac8e33,2021-07-29_20h12.15.434,Simcolourproject_2stim_asymm_v5,2020.2.10,Win32,60,61025ae37ef11b136ea224fe,,,,,,,,,1087,59.60001233,37.59999412,1,0,0,response1disk,,6,13.60006047,8.399993688,1,0,0,rectangle,13.60006047,8.399993688,1,0,0,13.60006047,8.399993688,1,0,0,1,10,170,53,1,,,,,,,,
,,,,,,,,,,,,,FF,,,,,,,,2.2328,,,,,,,,,,,,,,,,,,,,,,60fcfc1aa407beaf778db045,61036deaf0989bee0bac8e33,2021-07-29_20h12.15.434,Simcolourproject_2stim_asymm_v5,2020.2.10,Win32,60,61025ae37ef11b136ea224fe,,,,,,,,,3757,68.00001246,-26.40000683,1,0,0,response3disk,,5,18.40001172,-2.800006479,1,0,0,rectangle,18.40001172,-2.800006479,1,0,0,18.40001172,-2.800006479,1,0,0,1,11,171,102,1,,,,,,,,
,,,,,,,,,,,,,FF,,,,,,,,1.7666,,,,,,,,,,,,,,,,,,,,,,60fcfc1aa407beaf778db045,61036deaf0989bee0bac8e33,2021-07-29_20h12.15.434,Simcolourproject_2stim_asymm_v5,2020.2.10,Win32,60,61025ae37ef11b136ea224fe,,,,,,,,,3316,47.60006098,-24.4000068,1,0,0,response3disk,,5,19.20001173,-3.200006485,1,0,0,rectangle,19.20001173,-3.200006485,1,0,0,19.20001173,-3.200006485,1,0,0,1,12,172,158,1,,,,,,,,
,,,,,,,,,,,,,FF,,,,,,,,2.8496,,,,,,,,,,,,,,,,,,,,,,60fcfc1aa407beaf778db045,61036deaf0989bee0bac8e33,2021-07-29_20h12.15.434,Simcolourproject_2stim_asymm_v5,2020.2.10,Win32,60,61025ae37ef11b136ea224fe,,,,,,,,,3151,-54.79998937,-27.60000685,1,0,0,response5disk,,2,-12.39993991,-2.800006479,1,0,0,rectangle,-12.39993991,-2.800006479,1,0,0,-12.39993991,-2.800006479,1,0,0,1,13,173,28,1,,,,,,,,
,,,,,,,,,,,,,FF,,,,,,,,1.2668,,,,,,,,,,,,,,,,,,,,,,60fcfc1aa407beaf778db045,61036deaf0989bee0bac8e33,2021-07-29_20h12.15.434,Simcolourproject_2stim_asymm_v5,2020.2.10,Win32,60,61025ae37ef11b136ea224fe,,,,,,,,,47,63.60001239,23.59999391,1,0,0,response1disk,,6,12.40001163,-2.800006479,1,0,0,rectangle,12.40001163,-2.800006479,1,0,0,12.40001163,-2.800006479,1,0,0,1,14,174,123,1,,,,,,,,
,,,,,,,,,,,,,FF,,,,,,,,1.5165,,,,,,,,,,,,,,,,,,,,,,60fcfc1aa407beaf778db045,61036deaf0989bee0bac8e33,2021-07-29_20h12.15.434,Simcolourproject_2stim_asymm_v5,2020.2.10,Win32,60,61025ae37ef11b136ea224fe,,,,,,,,,3629,45.60006095,19.19999385,1,0,0,response1disk,,6,8.800011575,-2.800006479,1,0,0,rectangle,8.800011575,-2.800006479,1,0,0,8.800011575,-2.800006479,1,0,0,1,15,175,57,1,,,,,,,,
,,,,,,,,,,,,,FF,,,,,,,,1.2669,,,,,,,,,,,,,,,,,,,,,,60fcfc1aa407beaf778db045,61036deaf0989bee0bac8e33,2021-07-29_20h12.15.434,Simcolourproject_2stim_asymm_v5,2020.2.10,Win32,60,61025ae37ef11b136ea224fe,,,,,,,,,3634,48.40001217,19.99999386,1,0,0,response1disk,,6,19.60006056,7.19999367,1,0,0,rectangle,19.60006056,7.19999367,1,0,0,19.60006056,7.19999367,1,0,0,1,16,176,93,1,,,,,,,,
,,,,,,,,,,,,,FF,,,,,,,,1.7667,,,,,,,,,,,,,,,,,,,,,,60fcfc1aa407beaf778db045,61036deaf0989bee0bac8e33,2021-07-29_20h12.15.434,Simcolourproject_2stim_asymm_v5,2020.2.10,Win32,60,61025ae37ef11b136ea224fe,,,,,,,,,2305,-34.79998907,-49.20000717,1,0,0,response5disk,,3,7.200011551,-6.4373E-06,1,0,0,rectangle,7.200011551,-6.4373E-06,1,0,0,7.200011551,-6.4373E-06,1,0,0,1,17,177,21,1,,,,,,,,
,,,,,,,,,,,,,FF,,,,,,,,1.5499,,,,,,,,,,,,,,,,,,,,,,60fcfc1aa407beaf778db045,61036deaf0989bee0bac8e33,2021-07-29_20h12.15.434,Simcolourproject_2stim_asymm_v5,2020.2.10,Win32,60,61025ae37ef11b136ea224fe,,,,,,,,,1465,34.80001196,-54.00000724,1,0,0,response3disk,,4,6.000011533,-8.000006557,1,0,0,rectangle,6.000011533,-8.000006557,1,0,0,6.000011533,-8.000006557,1,0,0,1,18,178,135,1,,,,,,,,
,,,,,,,,,,,,,FF,,,,,,,,1.7992,,,,,,,,,,,,,,,,,,,,,,60fcfc1aa407beaf778db045,61036deaf0989bee0bac8e33,2021-07-29_20h12.15.434,Simcolourproject_2stim_asymm_v5,2020.2.10,Win32,60,61025ae37ef11b136ea224fe,,,,,,,,,38,49.20001218,-28.40000686,1,0,0,response3disk,,5,23.20001179,-6.000006527,1,0,0,rectangle,23.20001179,-6.000006527,1,0,0,23.20001179,-6.000006527,1,0,0,1,19,179,159,1,,,,,,,,
,,,,,,,,,,,,,FF,,,,,,,,2.4857,,,,,,,,,,,,,,,,,,,,,,60fcfc1aa407beaf778db045,61036deaf0989bee0bac8e33,2021-07-29_20h12.15.434,Simcolourproject_2stim_asymm_v5,2020.2.10,Win32,60,61025ae37ef11b136ea224fe,,,,,,,,,3565,-34.39994024,-63.20000738,1,0,0,response5disk,,3,16.80001169,1.199993581,1,0,0,rectangle,16.80001169,1.199993581,1,0,0,16.80001169,1.199993581,1,0,0,1,20,180,17,1,,,,,,,,
,,,,,,,,,,,,,FF,,,,,,,,1.4498,,,,,,,,,,,,,,,,,,,,,,60fcfc1aa407beaf778db045,61036deaf0989bee0bac8e33,2021-07-29_20h12.15.434,Simcolourproject_2stim_asymm_v5,2020.2.10,Win32,60,61025ae37ef11b136ea224fe,,,,,,,,,4122,-32.39994021,-53.60000724,1,0,0,response5disk,,3,6.000011533,-2.800006479,1,0,0,rectangle,6.000011533,-2.800006479,1,0,0,6.000011533,-2.800006479,1,0,0,1,21,181,92,1,,,,,,,,
,,,,,,,,,,,,,FF,,,,,,,,0.9837,,,,,,,,,,,,,,,,,,,,,,60fcfc1aa407beaf778db045,61036deaf0989bee0bac8e33,2021-07-29_20h12.15.434,Simcolourproject_2stim_asymm_v5,2020.2.10,Win32,60,61025ae37ef11b136ea224fe,,,,,,,,,674,44.0000121,-26.40000683,1,0,0,response3disk,,5,14.80001166,-4.000006497,1,0,0,rectangle,14.80001166,-4.000006497,1,0,0,14.80001166,-4.000006497,1,0,0,1,22,182,10,1,,,,,,,,
,,,,,,,,,,,,,FF,,,,,,,,1.1354,,,,,,,,,,,,,,,,,,,,,,60fcfc1aa407beaf778db045,61036deaf0989bee0bac8e33,2021-07-29_20h12.15.434,Simcolourproject_2stim_asymm_v5,2020.2.10,Win32,60,61025ae37ef11b136ea224fe,,,,,,,,,2628,59.20001233,30.39999402,1,0,0,response1disk,,6,12.80001163,2.799993604,1,0,0,rectangle,12.80001163,2.799993604,1,0,0,12.80001163,2.799993604,1,0,0,1,23,183,96,1,,,,,,,,
,,,,,,,,,,,,,FF,,,,,,,,0.9833,,,,,,,,,,,,,,,,,,,,,,60fcfc1aa407beaf778db045,61036deaf0989bee0bac8e33,2021-07-29_20h12.15.434,Simcolourproject_2stim_asymm_v5,2020.2.10,Win32,60,61025ae37ef11b136ea224fe,,,,,,,,,1940,42.80001208,-22.00000677,1,0,0,response3disk,,5,23.60006062,-9.200006574,1,0,0,rectangle,23.60006062,-9.200006574,1,0,0,23.60006062,-9.200006574,1,0,0,1,24,184,50,1,,,,,,,,
,,,,,,,,,,,,,FF,,,,,,,,1.2997,,,,,,,,,,,,,,,,,,,,,,60fcfc1aa407beaf778db045,61036deaf0989bee0bac8e33,2021-07-29_20h12.15.434,Simcolourproject_2stim_asymm_v5,2020.2.10,Win32,60,61025ae37ef11b136ea224fe,,,,,,,,,3439,-53.99998936,-33.20000693,1,0,0,response5disk,,2,-13.99998876,-3.200006485,1,0,0,rectangle,22.00001177,81.19997036,1,0,0,1.14441E-05,5.599993646,1,0,0,1,25,185,83,1,,response1disk_3,TRUE,7,7,"[246,310,245,267,75,278,2,257,285,66,25,53,206,186,138,186,312,298,24,97]",1.9009,rectangle
,,,,,,,,,,,,,FF,,,,,,,,2.2168,,,,,,,,,,,,,,,,,,,,,,60fcfc1aa407beaf778db045,61036deaf0989bee0bac8e33,2021-07-29_20h12.15.434,Simcolourproject_2stim_asymm_v5,2020.2.10,Win32,60,61025ae37ef11b136ea224fe,,,,,,,,,3657,74.40001255,-46.80000713,1,0,0,response3disk,,5,20.40001175,-5.600006521,1,0,0,rectangle,20.40001175,-5.600006521,1,0,0,20.40001175,-5.600006521,1,0,0,1,26,186,29,1,,,,,,,,
,,,,,,,,,,,,,FF,,,,,,,,8.2831,,,,,,,,,,,,,,,,,,,,,,60fcfc1aa407beaf778db045,61036deaf0989bee0bac8e33,2021-07-29_20h12.15.434,Simcolourproject_2stim_asymm_v5,2020.2.10,Win32,60,61025ae37ef11b136ea224fe,,,,,,,,,29,31.20001191,-87.20000774,1,0,0,response3disk,,4,8.800011575,1.599993587,1,0,0,rectangle,8.800011575,1.599993587,1,0,0,8.800011575,1.599993587,1,0,0,1,27,187,72,1,,,,,,,,
,,,,,,,,,,,,,FF,,,,,,,,1.316,,,,,,,,,,,,,,,,,,,,,,60fcfc1aa407beaf778db045,61036deaf0989bee0bac8e33,2021-07-29_20h12.15.434,Simcolourproject_2stim_asymm_v5,2020.2.10,Win32,60,61025ae37ef11b136ea224fe,,,,,,,,,3748,-51.99998933,-29.60000688,1,0,0,response5disk,,2,-8.799988687,-6.000006527,1,0,0,rectangle,-8.799988687,-6.000006527,1,0,0,-8.799988687,-6.000006527,1,0,0,1,28,188,70,1,,,,,,,,
,,,,,,,,,,,,,FF,,,,,,,,1.1499,,,,,,,,,,,,,,,,,,,,,,60fcfc1aa407beaf778db045,61036deaf0989bee0bac8e33,2021-07-29_20h12.15.434,Simcolourproject_2stim_asymm_v5,2020.2.10,Win32,60,61025ae37ef11b136ea224fe,,,,,,,,,356,-50.79998931,-37.600007,1,0,0,response5disk,,2,-6.799988657,-1.200006455,1,0,0,rectangle,-6.799988657,-1.200006455,1,0,0,-6.799988657,-1.200006455,1,0,0,1,29,189,36,1,,,,,,,,
,,,,,,,,,,,,,FF,,,,,,,,1.0999,,,,,,,,,,,,,,,,,,,,,,60fcfc1aa407beaf778db045,61036deaf0989bee0bac8e33,2021-07-29_20h12.15.434,Simcolourproject_2stim_asymm_v5,2020.2.10,Win32,60,61025ae37ef11b136ea224fe,,,,,,,,,4065,-32.79998904,-52.00000721,1,0,0,response5disk,,3,0.40001145,-0.400006443,1,0,0,rectangle,0.40001145,-0.400006443,1,0,0,0.40001145,-0.400006443,1,0,0,1,30,190,81,1,,,,,,,,
,,,,,,,,,,,,,FF,,,,,,,,1.0002,,,,,,,,,,,,,,,,,,,,,,60fcfc1aa407beaf778db045,61036deaf0989bee0bac8e33,2021-07-29_20h12.15.434,Simcolourproject_2stim_asymm_v5,2020.2.10,Win32,60,61025ae37ef11b136ea224fe,,,,,,,,,3398,-32.79998904,-55.20000726,1,0,0,response5disk,,3,1.14441E-05,-3.600006491,1,0,0,rectangle,1.14441E-05,-3.600006491,1,0,0,1.14441E-05,-3.600006491,1,0,0,1,31,191,71,1,,,,,,,,
,,,,,,,,,,,,,FF,,,,,,,,1.3665,,,,,,,,,,,,,,,,,,,,,,60fcfc1aa407beaf778db045,61036deaf0989bee0bac8e33,2021-07-29_20h12.15.434,Simcolourproject_2stim_asymm_v5,2020.2.10,Win32,60,61025ae37ef11b136ea224fe,,,,,,,,,3610,59.20001233,-42.40000707,1,0,0,response3disk,,5,24.40001181,-10.00000659,1,0,0,rectangle,24.40001181,-10.00000659,1,0,0,24.40001181,-10.00000659,1,0,0,1,32,192,132,1,,,,,,,,
,,,,,,,,,,,,,FF,,,,,,,,0.9836,,,,,,,,,,,,,,,,,,,,,,60fcfc1aa407beaf778db045,61036deaf0989bee0bac8e33,2021-07-29_20h12.15.434,Simcolourproject_2stim_asymm_v5,2020.2.10,Win32,60,61025ae37ef11b136ea224fe,,,,,,,,,3496,33.60006077,-17.6000067,1,0,0,response3disk,,5,21.20001176,-5.200006515,1,0,0,rectangle,21.20001176,-5.200006515,1,0,0,21.20001176,-5.200006515,1,0,0,1,33,193,8,1,,,,,,,,
,,,,,,,,,,,,,FF,,,,,,,,2.3022,,,,,,,,,,,,,,,,,,,,,,60fcfc1aa407beaf778db045,61036deaf0989bee0bac8e33,2021-07-29_20h12.15.434,Simcolourproject_2stim_asymm_v5,2020.2.10,Win32,60,61025ae37ef11b136ea224fe,,,,,,,,,3073,24.40001181,-32.80000693,1,0,0,response3disk,,4,12.80001163,1.999993593,1,0,0,rectangle,12.80001163,1.999993593,1,0,0,12.80001163,1.999993593,1,0,0,1,34,194,2,1,,,,,,,,
,,,,,,,,,,,,,FF,,,,,,,,1.7664,,,,,,,,,,,,,,,,,,,,,,60fcfc1aa407beaf778db045,61036deaf0989bee0bac8e33,2021-07-29_20h12.15.434,Simcolourproject_2stim_asymm_v5,2020.2.10,Win32,60,61025ae37ef11b136ea224fe,,,,,,,,,2346,35.6000608,-22.00000677,1,0,0,response3disk,,5,16.40001169,-1.200006455,1,0,0,rectangle,16.40001169,-1.200006455,1,0,0,16.40001169,-1.200006455,1,0,0,1,35,195,131,1,,,,,,,,
,,,,,,,,,,,,,FF,,,,,,,,2.431,,,,,,,,,,,,,,,,,,,,,,60fcfc1aa407beaf778db045,61036deaf0989bee0bac8e33,2021-07-29_20h12.15.434,Simcolourproject_2stim_asymm_v5,2020.2.10,Win32,60,61025ae37ef11b136ea224fe,,,,,,,,,3337,23.20001179,-44.8000071,1,0,0,response3disk,,4,12.40001163,2.799993604,1,0,0,rectangle,12.40001163,2.799993604,1,0,0,12.40001163,2.799993604,1,0,0,1,36,196,111,1,,,,,,,,
,,,,,,,,,,,,,FF,,,,,,,,1.1683,,,,,,,,,,,,,,,,,,,,,,60fcfc1aa407beaf778db045,61036deaf0989bee0bac8e33,2021-07-29_20h12.15.434,Simcolourproject_2stim_asymm_v5,2020.2.10,Win32,60,61025ae37ef11b136ea224fe,,,,,,,,,2074,20.00001174,-28.00000685,1,0,0,response3disk,,4,18.00001171,-5.200006515,1,0,0,rectangle,18.00001171,-5.200006515,1,0,0,18.00001171,-5.200006515,1,0,0,1,37,197,157,1,,,,,,,,
,,,,,,,,,,,,,FF,,,,,,,,2.883,,,,,,,,,,,,,,,,,,,,,,60fcfc1aa407beaf778db045,61036deaf0989bee0bac8e33,2021-07-29_20h12.15.434,Simcolourproject_2stim_asymm_v5,2020.2.10,Win32,60,61025ae37ef11b136ea224fe,,,,,,,,,426,31.20001191,-21.20000675,1,0,0,response3disk,,5,15.20001167,-6.4373E-06,1,0,0,rectangle,15.20001167,-6.4373E-06,1,0,0,15.20001167,-6.4373E-06,1,0,0,1,38,198,30,1,,,,,,,,
,,,,,,,,,,,,,FF,,,,,,,,1.3333,,,,,,,,,,,,,,,,,,,,,,60fcfc1aa407beaf778db045,61036deaf0989bee0bac8e33,2021-07-29_20h12.15.434,Simcolourproject_2stim_asymm_v5,2020.2.10,Win32,60,61025ae37ef11b136ea224fe,,,,,,,,,2838,-22.39994006,-32.80000693,1,0,0,response5disk,,3,1.14441E-05,-2.000006467,1,0,0,rectangle,1.14441E-05,-2.000006467,1,0,0,1.14441E-05,-2.000006467,1,0,0,1,39,199,77,1,,,,,,,,
,,,,,,,,,,,,,FF,,,,,,,,1.4832,,,,,,,,,,,,,,,,,,,,,,60fcfc1aa407beaf778db045,61036deaf0989bee0bac8e33,2021-07-29_20h12.15.434,Simcolourproject_2stim_asymm_v5,2020.2.10,Win32,60,61025ae37ef11b136ea224fe,,,,,,,,,252,17.60006053,-35.20000696,1,0,0,response3disk,,4,6.400011539,-4.400006503,1,0,0,rectangle,6.400011539,-4.400006503,1,0,0,6.400011539,-4.400006503,1,0,0,1,40,200,64,1,,,,,,,,
,,,,,,,,,,,,,FF,,,,,,,,2.6031,,,,,,,,,,,,,,,,,,,,,,60fcfc1aa407beaf778db045,61036deaf0989bee0bac8e33,2021-07-29_20h12.15.434,Simcolourproject_2stim_asymm_v5,2020.2.10,Win32,60,61025ae37ef11b136ea224fe,,,,,,,,,2353,22.40001178,-36.80000699,1,0,0,response3disk,,4,13.20001164,-6.400006533,1,0,0,rectangle,13.20001164,-6.400006533,1,0,0,13.20001164,-6.400006533,1,0,0,1,41,201,128,1,,,,,,,,
,,,,,,,,,,,,,FF,,,,,,,,1.4667,,,,,,,,,,,,,,,,,,,,,,60fcfc1aa407beaf778db045,61036deaf0989bee0bac8e33,2021-07-29_20h12.15.434,Simcolourproject_2stim_asymm_v5,2020.2.10,Win32,60,61025ae37ef11b136ea224fe,,,,,,,,,1533,-22.39994006,-30.8000069,1,0,0,response5disk,,3,11.60006045,1.999993593,1,0,0,rectangle,11.60006045,1.999993593,1,0,0,11.60006045,1.999993593,1,0,0,1,42,202,15,1,,,,,,,,
,,,,,,,,,,,,,FF,,,,,,,,1.2165,,,,,,,,,,,,,,,,,,,,,,60fcfc1aa407beaf778db045,61036deaf0989bee0bac8e33,2021-07-29_20h12.15.434,Simcolourproject_2stim_asymm_v5,2020.2.10,Win32,60,61025ae37ef11b136ea224fe,,,,,,,,,910,34.00001195,-23.60000679,1,0,0,response3disk,,5,18.80001172,-1.600006461,1,0,0,rectangle,18.80001172,-1.600006461,1,0,0,18.80001172,-1.600006461,1,0,0,1,43,203,78,1,,,,,,,,
,,,,,,,,,,,,,FF,,,,,,,,1.3834,,,,,,,,,,,,,,,,,,,,,,60fcfc1aa407beaf778db045,61036deaf0989bee0bac8e33,2021-07-29_20h12.15.434,Simcolourproject_2stim_asymm_v5,2020.2.10,Win32,60,61025ae37ef11b136ea224fe,,,,,,,,,2836,21.20001176,-35.20000696,1,0,0,response3disk,,4,9.600060415,-7.600006551,1,0,0,rectangle,9.600060415,-7.600006551,1,0,0,9.600060415,-7.600006551,1,0,0,1,44,204,23,1,,,,,,,,
,,,,,,,,,,,,,FF,,,,,,,,0.9497,,,,,,,,,,,,,,,,,,,,,,60fcfc1aa407beaf778db045,61036deaf0989bee0bac8e33,2021-07-29_20h12.15.434,Simcolourproject_2stim_asymm_v5,2020.2.10,Win32,60,61025ae37ef11b136ea224fe,,,,,,,,,935,35.6000608,-22.00000677,1,0,0,response3disk,,5,16.40001169,3.599993616,1,0,0,rectangle,-56.39994057,30.39999402,1,0,0,-19.99998885,0.399993569,1,0,0,1,45,205,115,1,,response7disk_3,TRUE,1,1,"[246,310,245,267,75,278,2,257,285,66,25,53,206,186,138,186,312,298,24,97]",1.5169,rectangle
,,,,,,,,,,,,,FF,,,,,,,,1.5331,,,,,,,,,,,,,,,,,,,,,,60fcfc1aa407beaf778db045,61036deaf0989bee0bac8e33,2021-07-29_20h12.15.434,Simcolourproject_2stim_asymm_v5,2020.2.10,Win32,60,61025ae37ef11b136ea224fe,,,,,,,,,2940,-36.39994027,53.19996994,1,0,0,response7disk,,0,-19.59998885,15.19999379,1,0,0,rectangle,-19.59998885,15.19999379,1,0,0,-19.59998885,15.19999379,1,0,0,1,46,206,103,1,,,,,,,,
,,,,,,,,,,,,,FF,,,,,,,,1.2999,,,,,,,,,,,,,,,,,,,,,,60fcfc1aa407beaf778db045,61036deaf0989bee0bac8e33,2021-07-29_20h12.15.434,Simcolourproject_2stim_asymm_v5,2020.2.10,Win32,60,61025ae37ef11b136ea224fe,,,,,,,,,4121,-61.19998947,-24.00000679,1,0,0,response5disk,,2,-16.79998881,-1.600006461,1,0,0,rectangle,-16.79998881,-1.600006461,1,0,0,-16.79998881,-1.600006461,1,0,0,1,47,207,124,1,,,,,,,,
,,,,,,,,,,,,,FF,,,,,,,,1.1834,,,,,,,,,,,,,,,,,,,,,,60fcfc1aa407beaf778db045,61036deaf0989bee0bac8e33,2021-07-29_20h12.15.434,Simcolourproject_2stim_asymm_v5,2020.2.10,Win32,60,61025ae37ef11b136ea224fe,,,,,,,,,3419,-19.59998885,-57.20000729,1,0,0,response5disk,,3,2.40001148,-0.800006449,1,0,0,rectangle,2.40001148,-0.800006449,1,0,0,2.40001148,-0.800006449,1,0,0,1,48,208,119,1,,,,,,,,
,,,,,,,,,,,,,FF,,,,,,,,1.8997,,,,,,,,,,,,,,,,,,,,,,60fcfc1aa407beaf778db045,61036deaf0989bee0bac8e33,2021-07-29_20h12.15.434,Simcolourproject_2stim_asymm_v5,2020.2.10,Win32,60,61025ae37ef11b136ea224fe,,,,,,,,,594,52.00001222,28.79999399,1,0,0,response1disk,,6,3.600060326,8.399993688,1,0,0,rectangle,3.600060326,8.399993688,1,0,0,3.600060326,8.399993688,1,0,0,1,49,209,37,1,,,,,,,,
,,,,,,,,,,,,,FF,,,,,,,,1,,,,,,,,,,,,,,,,,,,,,,60fcfc1aa407beaf778db045,61036deaf0989bee0bac8e33,2021-07-29_20h12.15.434,Simcolourproject_2stim_asymm_v5,2020.2.10,Win32,60,61025ae37ef11b136ea224fe,,,,,,,,,2326,48.80001217,32.79999405,1,0,0,response1disk,,6,6.000011533,8.399993688,1,0,0,rectangle,6.000011533,8.399993688,1,0,0,6.000011533,8.399993688,1,0,0,1,50,210,16,1,,,,,,,,
,,,,,,,,,,,,,FF,,,,,,,,0.8996,,,,,,,,,,,,,,,,,,,,,,60fcfc1aa407beaf778db045,61036deaf0989bee0bac8e33,2021-07-29_20h12.15.434,Simcolourproject_2stim_asymm_v5,2020.2.10,Win32,60,61025ae37ef11b136ea224fe,,,,,,,,,1590,36.00001198,-51.2000072,1,0,0,response3disk,,4,9.200011581,1.599993587,1,0,0,rectangle,9.200011581,1.599993587,1,0,0,9.200011581,1.599993587,1,0,0,1,51,211,122,1,,,,,,,,
,,,,,,,,,,,,,FF,,,,,,,,2.6498,,,,,,,,,,,,,,,,,,,,,,60fcfc1aa407beaf778db045,61036deaf0989bee0bac8e33,2021-07-29_20h12.15.434,Simcolourproject_2stim_asymm_v5,2020.2.10,Win32,60,61025ae37ef11b136ea224fe,,,,,,,,,4115,23.20001179,-46.80000713,1,0,0,response3disk,,4,7.600060385,13.19999376,1,0,0,rectangle,7.600060385,13.19999376,1,0,0,7.600060385,13.19999376,1,0,0,1,52,212,140,1,,,,,,,,
,,,,,,,,,,,,,FF,,,,,,,,1.3667,,,,,,,,,,,,,,,,,,,,,,60fcfc1aa407beaf778db045,61036deaf0989bee0bac8e33,2021-07-29_20h12.15.434,Simcolourproject_2stim_asymm_v5,2020.2.10,Win32,60,61025ae37ef11b136ea224fe,,,,,,,,,3467,42.00001207,-24.00000679,1,0,0,response3disk,,5,21.20001176,12.39999375,1,0,0,rectangle,21.20001176,12.39999375,1,0,0,21.20001176,12.39999375,1,0,0,1,53,213,74,1,,,,,,,,
,,,,,,,,,,,,,FF,,,,,,,,1.2835,,,,,,,,,,,,,,,,,,,,,,60fcfc1aa407beaf778db045,61036deaf0989bee0bac8e33,2021-07-29_20h12.15.434,Simcolourproject_2stim_asymm_v5,2020.2.10,Win32,60,61025ae37ef11b136ea224fe,,,,,,,,,1670,-59.59998944,28.39999399,1,0,0,response7disk,,1,-10.79998872,-7.200006545,1,0,0,rectangle,-10.79998872,-7.200006545,1,0,0,-10.79998872,-7.200006545,1,0,0,1,54,214,91,1,,,,,,,,
,,,,,,,,,,,,,FF,,,,,,,,1.3169,,,,,,,,,,,,,,,,,,,,,,60fcfc1aa407beaf778db045,61036deaf0989bee0bac8e33,2021-07-29_20h12.15.434,Simcolourproject_2stim_asymm_v5,2020.2.10,Win32,60,61025ae37ef11b136ea224fe,,,,,,,,,2117,34.40001196,71.19997021,1,0,0,response1disk,,7,-15.19998878,-4.400006503,1,0,0,rectangle,-15.19998878,-4.400006503,1,0,0,-15.19998878,-4.400006503,1,0,0,1,55,215,13,1,,,,,,,,
,,,,,,,,,,,,,FF,,,,,,,,1.9828,,,,,,,,,,,,,,,,,,,,,,60fcfc1aa407beaf778db045,61036deaf0989bee0bac8e33,2021-07-29_20h12.15.434,Simcolourproject_2stim_asymm_v5,2020.2.10,Win32,60,61025ae37ef11b136ea224fe,,,,,,,,,37,36.80001199,-61.20000735,1,0,0,response3disk,,4,12.80001163,-9.200006574,1,0,0,rectangle,12.80001163,-9.200006574,1,0,0,12.80001163,-9.200006574,1,0,0,1,56,216,59,1,,,,,,,,
,,,,,,,,,,,,,FF,,,,,,,,1.8334,,,,,,,,,,,,,,,,,,,,,,60fcfc1aa407beaf778db045,61036deaf0989bee0bac8e33,2021-07-29_20h12.15.434,Simcolourproject_2stim_asymm_v5,2020.2.10,Win32,60,61025ae37ef11b136ea224fe,,,,,,,,,15,27.20001185,-37.600007,1,0,0,response3disk,,4,18.40001172,-10.40000659,1,0,0,rectangle,18.40001172,-10.40000659,1,0,0,18.40001172,-10.40000659,1,0,0,1,57,217,26,1,,,,,,,,
,,,,,,,,,,,,,FF,,,,,,,,1.2332,,,,,,,,,,,,,,,,,,,,,,60fcfc1aa407beaf778db045,61036deaf0989bee0bac8e33,2021-07-29_20h12.15.434,Simcolourproject_2stim_asymm_v5,2020.2.10,Win32,60,61025ae37ef11b136ea224fe,,,,,,,,,1866,27.60006068,38.39999413,1,0,0,response1disk,,7,11.20001161,3.999993622,1,0,0,rectangle,11.20001161,3.999993622,1,0,0,11.20001161,3.999993622,1,0,0,1,58,218,6,1,,,,,,,,
,,,,,,,,,,,,,FF,,,,,,,,1.2998,,,,,,,,,,,,,,,,,,,,,,60fcfc1aa407beaf778db045,61036deaf0989bee0bac8e33,2021-07-29_20h12.15.434,Simcolourproject_2stim_asymm_v5,2020.2.10,Win32,60,61025ae37ef11b136ea224fe,,,,,,,,,2122,28.00001186,-46.00000712,1,0,0,response3disk,,4,14.00001165,-4.400006503,1,0,0,rectangle,14.00001165,-4.400006503,1,0,0,14.00001165,-4.400006503,1,0,0,1,59,219,105,1,,,,,,,,
,,,,,,,,,,,,,FF,,,,,,,,1.7163,,,,,,,,,,,,,,,,,,,,,,60fcfc1aa407beaf778db045,61036deaf0989bee0bac8e33,2021-07-29_20h12.15.434,Simcolourproject_2stim_asymm_v5,2020.2.10,Win32,60,61025ae37ef11b136ea224fe,,,,,,,,,4294,-54.79998937,24.79999393,1,0,0,response7disk,,1,-35.19998908,11.59999374,1,0,0,rectangle,-35.19998908,11.59999374,1,0,0,-35.19998908,11.59999374,1,0,0,1,60,220,84,1,,,,,,,,
,,,,,,,,,,,,,FF,,,,,,,,1.3997,,,,,,,,,,,,,,,,,,,,,,60fcfc1aa407beaf778db045,61036deaf0989bee0bac8e33,2021-07-29_20h12.15.434,Simcolourproject_2stim_asymm_v5,2020.2.10,Win32,60,61025ae37ef11b136ea224fe,,,,,,,,,3605,-28.39994015,-49.20000717,1,0,0,response5disk,,3,7.200011551,-2.800006479,1,0,0,rectangle,7.200011551,-2.800006479,1,0,0,7.200011551,-2.800006479,1,0,0,1,61,221,62,1,,,,,,,,
,,,,,,,,,,,,,FF,,,,,,,,0.983,,,,,,,,,,,,,,,,,,,,,,60fcfc1aa407beaf778db045,61036deaf0989bee0bac8e33,2021-07-29_20h12.15.434,Simcolourproject_2stim_asymm_v5,2020.2.10,Win32,60,61025ae37ef11b136ea224fe,,,,,,,,,1310,33.20001194,-42.40000707,1,0,0,response3disk,,4,20.80001175,-10.40000659,1,0,0,rectangle,20.80001175,-10.40000659,1,0,0,20.80001175,-10.40000659,1,0,0,1,62,222,32,1,,,,,,,,
,,,,,,,,,,,,,FF,,,,,,,,1.1667,,,,,,,,,,,,,,,,,,,,,,60fcfc1aa407beaf778db045,61036deaf0989bee0bac8e33,2021-07-29_20h12.15.434,Simcolourproject_2stim_asymm_v5,2020.2.10,Win32,60,61025ae37ef11b136ea224fe,,,,,,,,,1190,33.60006077,-40.40000704,1,0,0,response3disk,,4,11.60006045,12.79999375,1,0,0,rectangle,11.60006045,12.79999375,1,0,0,11.60006045,12.79999375,1,0,0,1,63,223,134,1,,,,,,,,
,,,,,,,,,,,,,FF,,,,,,,,0.9002,,,,,,,,,,,,,,,,,,,,,,60fcfc1aa407beaf778db045,61036deaf0989bee0bac8e33,2021-07-29_20h12.15.434,Simcolourproject_2stim_asymm_v5,2020.2.10,Win32,60,61025ae37ef11b136ea224fe,,,,,,,,,1410,36.00001198,-20.00000674,1,0,0,response3disk,,5,25.60006065,-7.600006551,1,0,0,rectangle,25.60006065,-7.600006551,1,0,0,25.60006065,-7.600006551,1,0,0,1,64,224,88,1,,,,,,,,
,,,,,,,,,,,,,FF,,,,,,,,1.4165,,,,,,,,,,,,,,,,,,,,,,60fcfc1aa407beaf778db045,61036deaf0989bee0bac8e33,2021-07-29_20h12.15.434,Simcolourproject_2stim_asymm_v5,2020.2.10,Win32,60,61025ae37ef11b136ea224fe,,,,,,,,,1611,-60.79998946,-34.40000695,1,0,0,response5disk,,2,-24.39994009,-6.400006533,1,0,0,rectangle,-24.39994009,-6.400006533,1,0,0,-24.39994009,-6.400006533,1,0,0,1,65,225,80,1,,,,,,,,
,,,,,,,,,,,,,FF,,,,,,,,1.1354,,,,,,,,,,,,,,,,,,,,,,60fcfc1aa407beaf778db045,61036deaf0989bee0bac8e33,2021-07-29_20h12.15.434,Simcolourproject_2stim_asymm_v5,2020.2.10,Win32,60,61025ae37ef11b136ea224fe,,,,,,,,,3794,27.60006068,-52.00000721,1,0,0,response3disk,,4,16.00001168,-9.200006574,1,0,0,rectangle,16.00001168,-9.200006574,1,0,0,16.00001168,-9.200006574,1,0,0,1,66,226,145,1,,,,,,,,
,,,,,,,,,,,,,FF,,,,,,,,1.3497,,,,,,,,,,,,,,,,,,,,,,60fcfc1aa407beaf778db045,61036deaf0989bee0bac8e33,2021-07-29_20h12.15.434,Simcolourproject_2stim_asymm_v5,2020.2.10,Win32,60,61025ae37ef11b136ea224fe,,,,,,,,,1144,-59.99998945,-26.00000682,1,0,0,response5disk,,2,-18.39994,-2.000006467,1,0,0,rectangle,-18.39994,-2.000006467,1,0,0,-18.39994,-2.000006467,1,0,0,1,67,227,151,1,,,,,,,,
,,,,,,,,,,,,,FF,,,,,,,,1.7334,,,,,,,,,,,,,,,,,,,,,,60fcfc1aa407beaf778db045,61036deaf0989bee0bac8e33,2021-07-29_20h12.15.434,Simcolourproject_2stim_asymm_v5,2020.2.10,Win32,60,61025ae37ef11b136ea224fe,,,,,,,,,2436,69.60001248,-28.40000686,1,0,0,response3disk,,5,35.20001197,-2.400006473,1,0,0,rectangle,35.20001197,-2.400006473,1,0,0,35.20001197,-2.400006473,1,0,0,1,68,228,112,1,,,,,,,,
,,,,,,,,,,,,,FF,,,,,,,,1.0833,,,,,,,,,,,,,,,,,,,,,,60fcfc1aa407beaf778db045,61036deaf0989bee0bac8e33,2021-07-29_20h12.15.434,Simcolourproject_2stim_asymm_v5,2020.2.10,Win32,60,61025ae37ef11b136ea224fe,,,,,,,,,1040,-23.59998891,-32.00000691,1,0,0,response5disk,,3,-8.799988687,-12.40000662,1,0,0,rectangle,-8.799988687,-12.40000662,1,0,0,-8.799988687,-12.40000662,1,0,0,1,69,229,100,1,,,,,,,,
,,,,,,,,,,,,,FF,,,,,,,,1.1665,,,,,,,,,,,,,,,,,,,,,,60fcfc1aa407beaf778db045,61036deaf0989bee0bac8e33,2021-07-29_20h12.15.434,Simcolourproject_2stim_asymm_v5,2020.2.10,Win32,60,61025ae37ef11b136ea224fe,,,,,,,,,3359,53.60001224,23.19996949,1,0,0,response1disk,,6,27.60006068,9.999993712,1,0,0,rectangle,27.60006068,9.999993712,1,0,0,27.60006068,9.999993712,1,0,0,1,70,230,155,1,,,,,,,,
,,,,,,,,,,,,,FF,,,,,,,,1.3831,,,,,,,,,,,,,,,,,,,,,,60fcfc1aa407beaf778db045,61036deaf0989bee0bac8e33,2021-07-29_20h12.15.434,Simcolourproject_2stim_asymm_v5,2020.2.10,Win32,60,61025ae37ef11b136ea224fe,,,,,,,,,968,-37.19998911,55.19996997,1,0,0,response7disk,,0,-23.1999889,11.59999374,1,0,0,rectangle,-23.1999889,11.59999374,1,0,0,-23.1999889,11.59999374,1,0,0,1,71,231,147,1,,,,,,,,
,,,,,,,,,,,,,FF,,,,,,,,1.8831,,,,,,,,,,,,,,,,,,,,,,60fcfc1aa407beaf778db045,61036deaf0989bee0bac8e33,2021-07-29_20h12.15.434,Simcolourproject_2stim_asymm_v5,2020.2.10,Win32,60,61025ae37ef11b136ea224fe,,,,,,,,,2646,39.60006086,-79.60000762,1,0,0,response3disk,,4,6.400011539,-6.000006527,1,0,0,rectangle,6.400011539,-6.000006527,1,0,0,6.400011539,-6.000006527,1,0,0,1,72,232,97,1,,,,,,,,
,,,,,,,,,,,,,FF,,,,,,,,1.3996,,,,,,,,,,,,,,,,,,,,,,60fcfc1aa407beaf778db045,61036deaf0989bee0bac8e33,2021-07-29_20h12.15.434,Simcolourproject_2stim_asymm_v5,2020.2.10,Win32,60,61025ae37ef11b136ea224fe,,,,,,,,,2207,28.00001186,-49.20000717,1,0,0,response3disk,,4,3.600060326,10.39999372,1,0,0,rectangle,3.600060326,10.39999372,1,0,0,3.600060326,10.39999372,1,0,0,1,73,233,110,1,,,,,,,,
,,,,,,,,,,,,,FF,,,,,,,,1.0997,,,,,,,,,,,,,,,,,,,,,,60fcfc1aa407beaf778db045,61036deaf0989bee0bac8e33,2021-07-29_20h12.15.434,Simcolourproject_2stim_asymm_v5,2020.2.10,Win32,60,61025ae37ef11b136ea224fe,,,,,,,,,2896,24.40001181,-40.80000705,1,0,0,response3disk,,4,9.200011581,-1.200006455,1,0,0,rectangle,9.200011581,-1.200006455,1,0,0,9.200011581,-1.200006455,1,0,0,1,74,234,156,1,,,,,,,,
,,,,,,,,,,,,,FF,,,,,,,,1.3024,,,,,,,,,,,,,,,,,,,,,,60fcfc1aa407beaf778db045,61036deaf0989bee0bac8e33,2021-07-29_20h12.15.434,Simcolourproject_2stim_asymm_v5,2020.2.10,Win32,60,61025ae37ef11b136ea224fe,,,,,,,,,3227,69.20001248,36.39999411,1,0,0,response1disk,,6,16.40001169,-1.600006461,1,0,0,rectangle,16.40001169,-1.600006461,1,0,0,16.40001169,-1.600006461,1,0,0,1,75,235,49,1,,,,,,,,
,,,,,,,,,,,,,FF,,,,,,,,1.1833,,,,,,,,,,,,,,,,,,,,,,60fcfc1aa407beaf778db045,61036deaf0989bee0bac8e33,2021-07-29_20h12.15.434,Simcolourproject_2stim_asymm_v5,2020.2.10,Win32,60,61025ae37ef11b136ea224fe,,,,,,,,,4032,-27.99998897,-62.40000737,1,0,0,response5disk,,3,7.200011551,-0.400006443,1,0,0,rectangle,7.200011551,-0.400006443,1,0,0,7.200011551,-0.400006443,1,0,0,1,76,236,108,1,,,,,,,,
,,,,,,,,,,,,,FF,,,,,,,,1.2333,,,,,,,,,,,,,,,,,,,,,,60fcfc1aa407beaf778db045,61036deaf0989bee0bac8e33,2021-07-29_20h12.15.434,Simcolourproject_2stim_asymm_v5,2020.2.10,Win32,60,61025ae37ef11b136ea224fe,,,,,,,,,3453,40.40001205,23.99999392,1,0,0,response1disk,,6,9.600060415,-3.600006491,1,0,0,rectangle,9.600060415,-3.600006491,1,0,0,9.600060415,-3.600006491,1,0,0,1,77,237,99,1,,,,,,,,
,,,,,,,,,,,,,FF,,,,,,,,1.5665,,,,,,,,,,,,,,,,,,,,,,60fcfc1aa407beaf778db045,61036deaf0989bee0bac8e33,2021-07-29_20h12.15.434,Simcolourproject_2stim_asymm_v5,2020.2.10,Win32,60,61025ae37ef11b136ea224fe,,,,,,,,,2578,51.20001221,19.59999385,1,0,0,response1disk,,6,13.20001164,-7.200006545,1,0,0,rectangle,13.20001164,-7.200006545,1,0,0,13.20001164,-7.200006545,1,0,0,1,78,238,24,1,,,,,,,,
,,,,,,,,,,,,,FF,,,,,,,,1.4832,,,,,,,,,,,,,,,,,,,,,,60fcfc1aa407beaf778db045,61036deaf0989bee0bac8e33,2021-07-29_20h12.15.434,Simcolourproject_2stim_asymm_v5,2020.2.10,Win32,60,61025ae37ef11b136ea224fe,,,,,,,,,824,30.00001189,-74.40000755,1,0,0,response3disk,,4,14.40001166,-8.400006562,1,0,0,rectangle,14.40001166,-8.400006562,1,0,0,14.40001166,-8.400006562,1,0,0,1,79,239,75,1,,,,,,,,
,,,,,,,,,,,,,FF,,,,,,,,1.2005,,,,,,,,,,,,,,,,,,,,,,60fcfc1aa407beaf778db045,61036deaf0989bee0bac8e33,2021-07-29_20h12.15.434,Simcolourproject_2stim_asymm_v5,2020.2.10,Win32,60,61025ae37ef11b136ea224fe,,,,,,,,,2744,35.6000608,-69.60000747,1,0,0,response3disk,,4,12.00001162,-7.200006545,1,0,0,rectangle,12.00001162,-7.200006545,1,0,0,12.00001162,-7.200006545,1,0,0,1,80,240,94,1,,,,,,,,
,,,,,,,,,,,,,FF,,,,,,,,1.1665,,,,,,,,,,,,,,,,,,,,,,60fcfc1aa407beaf778db045,61036deaf0989bee0bac8e33,2021-07-29_20h12.15.434,Simcolourproject_2stim_asymm_v5,2020.2.10,Win32,60,61025ae37ef11b136ea224fe,,,,,,,,,3244,-29.999989,27.59999397,1,0,0,response7disk,,1,-8.799988687,-3.200006485,1,0,0,rectangle,-8.799988687,-3.200006485,1,0,0,-8.799988687,-3.200006485,1,0,0,1,81,241,3,1,,,,,,,,
,,,,,,,,,,,,,FF,,,,,,,,1.9163,,,,,,,,,,,,,,,,,,,,,,60fcfc1aa407beaf778db045,61036deaf0989bee0bac8e33,2021-07-29_20h12.15.434,Simcolourproject_2stim_asymm_v5,2020.2.10,Win32,60,61025ae37ef11b136ea224fe,,,,,,,,,2055,-28.79998899,-61.20000735,1,0,0,response5disk,,3,21.20001176,1.199993581,1,0,0,rectangle,21.20001176,1.199993581,1,0,0,21.20001176,1.199993581,1,0,0,1,82,242,79,1,,,,,,,,
,,,,,,,,,,,,,FF,,,,,,,,1.0995,,,,,,,,,,,,,,,,,,,,,,60fcfc1aa407beaf778db045,61036deaf0989bee0bac8e33,2021-07-29_20h12.15.434,Simcolourproject_2stim_asymm_v5,2020.2.10,Win32,60,61025ae37ef11b136ea224fe,,,,,,,,,2028,-27.99998897,-50.40000719,1,0,0,response5disk,,3,-5.199988633,-2.400006473,1,0,0,rectangle,-5.199988633,-2.400006473,1,0,0,-5.199988633,-2.400006473,1,0,0,1,83,243,52,1,,,,,,,,
,,,,,,,,,,,,,FF,,,,,,,,0.9168,,,,,,,,,,,,,,,,,,,,,,60fcfc1aa407beaf778db045,61036deaf0989bee0bac8e33,2021-07-29_20h12.15.434,Simcolourproject_2stim_asymm_v5,2020.2.10,Win32,60,61025ae37ef11b136ea224fe,,,,,,,,,1616,28.00001186,-51.2000072,1,0,0,response3disk,,4,11.20001161,-8.400006562,1,0,0,rectangle,47.60006098,37.1999697,1,0,0,-8.799988687,-4.400006503,1,0,0,1,84,244,14,1,,response1disk_3,TRUE,6,6,"[246,310,245,267,75,278,2,257,285,66,25,53,206,186,138,186,312,298,24,97]",2.566,rectangle
