key_resp.keys,key_resp.rt,key_resp_14.keys,key_resp_14.rt,key_resp_15.keys,key_resp_15.rt,key_resp_17.keys,key_resp_17.rt,key_resp_9.keys,key_resp_9.rt,key_resp_10.keys,key_resp_10.rt,practice_comparison,Ecc,mouse_5.x,mouse_5.y,mouse_5.leftButton,mouse_5.midButton,mouse_5.rightButton,mouse_5.clicked_name,pracsimilarity,response_time,mouse_10.x,mouse_10.y,mouse_10.leftButton,mouse_10.midButton,mouse_10.rightButton,mouse_10.clicked_name,mouse_7.x,mouse_7.y,mouse_7.leftButton,mouse_7.midButton,mouse_7.rightButton,mouse_6.x,mouse_6.y,mouse_6.leftButton,mouse_6.midButton,mouse_6.rightButton,duringprac.thisRepN,duringprac.thisTrialN,duringprac.thisN,duringprac.thisIndex,duringprac.ran,participant,session,date,expName,psychopyVersion,OS,frameRate,study_id,mouse_7.clicked_name,catchpracsimilarity,catch_response_time,catchnumberprac,catchtrialorderprac,mouse_6.clicked_name,key_resp_22.keys,key_resp_22.rt,realcomparison,mouse.x,mouse.y,mouse.leftButton,mouse.midButton,mouse.rightButton,mouse.clicked_name,Colour2,similarity,mouse_2.x,mouse_2.y,mouse_2.leftButton,mouse_2.midButton,mouse_2.rightButton,mouse_2.clicked_name,mouse_3.x,mouse_3.y,mouse_3.leftButton,mouse_3.midButton,mouse_3.rightButton,mouse_11.x,mouse_11.y,mouse_11.leftButton,mouse_11.midButton,mouse_11.rightButton,trials_2.thisRepN,trials_2.thisTrialN,trials_2.thisN,trials_2.thisIndex,trials_2.ran,Colour1,mouse_3.clicked_name,catchornah,catchsimilarity,catchnumber,catchtrialorder,catchRT,mouse_11.clicked_name
space,1.3,space,6.461,space,22.896,space,9.26,space,1.78,space,6.31,37,PF,52,96,1,0,0,response1disk_5,7,7.968,10,-4,1,0,0,rectangle_8,10,-4,1,0,0,10,-4,1,0,0,0,0,0,4,1,60fcfe8185c3d7634a14dea7,61036c1dd69236241ba01f37,2021-07-29_22h05.01.347,Simcolourproject_2stim_asymm_v5,2020.2.10,MacIntel,60,61025ae37ef11b136ea224fe,,,,,,,,,,,,,,,,,,,,,,,,,,,,,,,,,,,,,,,,,,,,,,
,,,,,,,,,,,,158,FF,72,-36,1,0,0,response3disk_5,5,6.65,2,1,1,0,0,rectangle_8,95,63,1,0,0,10,-4,1,0,0,0,1,1,3,1,60fcfe8185c3d7634a14dea7,61036c1dd69236241ba01f37,2021-07-29_22h05.01.347,Simcolourproject_2stim_asymm_v5,2020.2.10,MacIntel,60,61025ae37ef11b136ea224fe,response1disk_7,6,2.65,6,"[2,5]",rectangle_4,,,,,,,,,,,,,,,,,,,,,,,,,,,,,,,,,,,,,,,,
,,,,,,,,,,,,23,FF,29,65,1,0,0,response1disk_5,7,3.919,1,-4,1,0,0,rectangle_8,1,-4,1,0,0,1,-4,1,0,0,0,2,2,0,1,60fcfe8185c3d7634a14dea7,61036c1dd69236241ba01f37,2021-07-29_22h05.01.347,Simcolourproject_2stim_asymm_v5,2020.2.10,MacIntel,60,61025ae37ef11b136ea224fe,,,,,,,,,,,,,,,,,,,,,,,,,,,,,,,,,,,,,,,,,,,,,,
,,,,,,,,,,,,84,PF,-55,-88,1,0,0,response5disk_5,3,3.334,9,-3,1,0,0,rectangle_8,9,-3,1,0,0,9,-3,1,0,0,0,3,3,2,1,60fcfe8185c3d7634a14dea7,61036c1dd69236241ba01f37,2021-07-29_22h05.01.347,Simcolourproject_2stim_asymm_v5,2020.2.10,MacIntel,60,61025ae37ef11b136ea224fe,,,,,,,,,,,,,,,,,,,,,,,,,,,,,,,,,,,,,,,,,,,,,,
,,,,,,,,,,,,85,FF,101,29,1,0,0,response1disk_5,6,2.768,0,1,1,0,0,rectangle_8,103,34,1,0,0,-2,-6,1,0,0,0,4,4,5,1,60fcfe8185c3d7634a14dea7,61036c1dd69236241ba01f37,2021-07-29_22h05.01.347,Simcolourproject_2stim_asymm_v5,2020.2.10,MacIntel,60,61025ae37ef11b136ea224fe,response1disk_7,6,2.084,6,"[2,5]",rectangle_4,,,,,,,,,,,,,,,,,,,,,,,,,,,,,,,,,,,,,,,,
,,,,,,,,,,,,146,PF,35,-86,1,0,0,response3disk_5,4,1.716,0,-4,1,0,0,rectangle_8,0,-4,1,0,0,0,-4,1,0,0,0,5,5,1,1,60fcfe8185c3d7634a14dea7,61036c1dd69236241ba01f37,2021-07-29_22h05.01.347,Simcolourproject_2stim_asymm_v5,2020.2.10,MacIntel,60,61025ae37ef11b136ea224fe,,,,,,,,,,,,,,,,,,,,,,,,,,,,,,,,,,,,,,,,,,,,,,
,,,,,,,,,,,,72,PF,82,22,1,0,0,response1disk_5,6,1.884,2,-6,1,0,0,rectangle_8,2,-6,1,0,0,2,-6,1,0,0,0,6,6,6,1,60fcfe8185c3d7634a14dea7,61036c1dd69236241ba01f37,2021-07-29_22h05.01.347,Simcolourproject_2stim_asymm_v5,2020.2.10,MacIntel,60,61025ae37ef11b136ea224fe,,,,,,,,,,,,,,,,,,,,,,,,,,,,,,,,,,,,,,,,,,,,,,
,,,,,,,,,,,,,FF,,,,,,,,2.635,,,,,,,,,,,,,,,,,,,,,,60fcfe8185c3d7634a14dea7,61036c1dd69236241ba01f37,2021-07-29_22h05.01.347,Simcolourproject_2stim_asymm_v5,2020.2.10,MacIntel,60,61025ae37ef11b136ea224fe,,,,,,,space,2.023,4156,43,81,1,0,0,response1disk,,7,-4,-1,1,0,0,rectangle,-4,-1,1,0,0,-4,-1,1,0,0,0,0,0,60,1,,,,,,,,
,,,,,,,,,,,,,FF,,,,,,,,2.717,,,,,,,,,,,,,,,,,,,,,,60fcfe8185c3d7634a14dea7,61036c1dd69236241ba01f37,2021-07-29_22h05.01.347,Simcolourproject_2stim_asymm_v5,2020.2.10,MacIntel,60,61025ae37ef11b136ea224fe,,,,,,,,,1412,63,-30,1,0,0,response3disk,,5,-8,1,1,0,0,rectangle,-8,1,1,0,0,-8,1,1,0,0,0,1,1,151,1,,,,,,,,
,,,,,,,,,,,,,FF,,,,,,,,0.916,,,,,,,,,,,,,,,,,,,,,,60fcfe8185c3d7634a14dea7,61036c1dd69236241ba01f37,2021-07-29_22h05.01.347,Simcolourproject_2stim_asymm_v5,2020.2.10,MacIntel,60,61025ae37ef11b136ea224fe,,,,,,,,,1049,58,107,1,0,0,response1disk,,7,8,-7,1,0,0,rectangle,8,-7,1,0,0,8,-7,1,0,0,0,2,2,22,1,,,,,,,,
,,,,,,,,,,,,,FF,,,,,,,,1.283,,,,,,,,,,,,,,,,,,,,,,60fcfe8185c3d7634a14dea7,61036c1dd69236241ba01f37,2021-07-29_22h05.01.347,Simcolourproject_2stim_asymm_v5,2020.2.10,MacIntel,60,61025ae37ef11b136ea224fe,,,,,,,,,3268,78,38,1,0,0,response1disk,,6,17,-4,1,0,0,rectangle,17,-4,1,0,0,17,-4,1,0,0,0,3,3,100,1,,,,,,,,
,,,,,,,,,,,,,FF,,,,,,,,1.217,,,,,,,,,,,,,,,,,,,,,,60fcfe8185c3d7634a14dea7,61036c1dd69236241ba01f37,2021-07-29_22h05.01.347,Simcolourproject_2stim_asymm_v5,2020.2.10,MacIntel,60,61025ae37ef11b136ea224fe,,,,,,,,,30,63,37,1,0,0,response1disk,,6,-3,-12,1,0,0,rectangle,-3,-12,1,0,0,-3,-12,1,0,0,0,4,4,85,1,,,,,,,,
,,,,,,,,,,,,,FF,,,,,,,,1.233,,,,,,,,,,,,,,,,,,,,,,60fcfe8185c3d7634a14dea7,61036c1dd69236241ba01f37,2021-07-29_22h05.01.347,Simcolourproject_2stim_asymm_v5,2020.2.10,MacIntel,60,61025ae37ef11b136ea224fe,,,,,,,,,3690,44,-70,1,0,0,response3disk,,4,3,-10,1,0,0,rectangle,3,-10,1,0,0,3,-10,1,0,0,0,5,5,101,1,,,,,,,,
,,,,,,,,,,,,,FF,,,,,,,,0.716,,,,,,,,,,,,,,,,,,,,,,60fcfe8185c3d7634a14dea7,61036c1dd69236241ba01f37,2021-07-29_22h05.01.347,Simcolourproject_2stim_asymm_v5,2020.2.10,MacIntel,60,61025ae37ef11b136ea224fe,,,,,,,,,755,24,73,1,0,0,response1disk,,7,7,7,1,0,0,rectangle,-34,77,1,0,0,-6,2,1,0,0,0,6,6,13,1,,response7disk_3,TRUE,0,0,"[60,91,248,7,18,267,95,287,21,99,107,11,57,170,50,26,92,79,214,176]",1.901,rectangle
,,,,,,,,,,,,,FF,,,,,,,,7.334,,,,,,,,,,,,,,,,,,,,,,60fcfe8185c3d7634a14dea7,61036c1dd69236241ba01f37,2021-07-29_22h05.01.347,Simcolourproject_2stim_asymm_v5,2020.2.10,MacIntel,60,61025ae37ef11b136ea224fe,,,,,,,,,4276,64,-42,1,0,0,response3disk,,5,2,0,1,0,0,rectangle,2,0,1,0,0,2,0,1,0,0,0,7,7,129,1,,,,,,,,
,,,,,,,,,,,,,FF,,,,,,,,1.55,,,,,,,,,,,,,,,,,,,,,,60fcfe8185c3d7634a14dea7,61036c1dd69236241ba01f37,2021-07-29_22h05.01.347,Simcolourproject_2stim_asymm_v5,2020.2.10,MacIntel,60,61025ae37ef11b136ea224fe,,,,,,,,,2915,91,56,1,0,0,response1disk,,6,-2,-15,1,0,0,rectangle,-2,-15,1,0,0,-2,-15,1,0,0,0,8,8,35,1,,,,,,,,
,,,,,,,,,,,,,FF,,,,,,,,1.55,,,,,,,,,,,,,,,,,,,,,,60fcfe8185c3d7634a14dea7,61036c1dd69236241ba01f37,2021-07-29_22h05.01.347,Simcolourproject_2stim_asymm_v5,2020.2.10,MacIntel,60,61025ae37ef11b136ea224fe,,,,,,,,,1047,62,-26,1,0,0,response3disk,,5,-10,-4,1,0,0,rectangle,-10,-4,1,0,0,-10,-4,1,0,0,0,9,9,104,1,,,,,,,,
,,,,,,,,,,,,,FF,,,,,,,,1.667,,,,,,,,,,,,,,,,,,,,,,60fcfe8185c3d7634a14dea7,61036c1dd69236241ba01f37,2021-07-29_22h05.01.347,Simcolourproject_2stim_asymm_v5,2020.2.10,MacIntel,60,61025ae37ef11b136ea224fe,,,,,,,,,2317,-45,-52,1,0,0,response5disk,,3,-16,-14,1,0,0,rectangle,-34,74,1,0,0,16,-8,1,0,0,0,10,10,38,1,,response7disk_3,TRUE,0,0,"[60,91,248,7,18,267,95,287,21,99,107,11,57,170,50,26,92,79,214,176]",3.951,rectangle
,,,,,,,,,,,,,FF,,,,,,,,2.683,,,,,,,,,,,,,,,,,,,,,,60fcfe8185c3d7634a14dea7,61036c1dd69236241ba01f37,2021-07-29_22h05.01.347,Simcolourproject_2stim_asymm_v5,2020.2.10,MacIntel,60,61025ae37ef11b136ea224fe,,,,,,,,,371,-81,33,1,0,0,response7disk,,1,-11,3,1,0,0,rectangle,-11,3,1,0,0,-11,3,1,0,0,0,11,11,34,1,,,,,,,,
,,,,,,,,,,,,,FF,,,,,,,,1.05,,,,,,,,,,,,,,,,,,,,,,60fcfe8185c3d7634a14dea7,61036c1dd69236241ba01f37,2021-07-29_22h05.01.347,Simcolourproject_2stim_asymm_v5,2020.2.10,MacIntel,60,61025ae37ef11b136ea224fe,,,,,,,,,4220,-69,32,1,0,0,response7disk,,1,0,-4,1,0,0,rectangle,0,-4,1,0,0,0,-4,1,0,0,0,12,12,42,1,,,,,,,,
,,,,,,,,,,,,,FF,,,,,,,,1.035,,,,,,,,,,,,,,,,,,,,,,60fcfe8185c3d7634a14dea7,61036c1dd69236241ba01f37,2021-07-29_22h05.01.347,Simcolourproject_2stim_asymm_v5,2020.2.10,MacIntel,60,61025ae37ef11b136ea224fe,,,,,,,,,2731,54,-23,1,0,0,response3disk,,5,10,-8,1,0,0,rectangle,10,-8,1,0,0,10,-8,1,0,0,0,13,13,116,1,,,,,,,,
,,,,,,,,,,,,,FF,,,,,,,,0.901,,,,,,,,,,,,,,,,,,,,,,60fcfe8185c3d7634a14dea7,61036c1dd69236241ba01f37,2021-07-29_22h05.01.347,Simcolourproject_2stim_asymm_v5,2020.2.10,MacIntel,60,61025ae37ef11b136ea224fe,,,,,,,,,2249,61,-34,1,0,0,response3disk,,5,17,-6,1,0,0,rectangle,17,-6,1,0,0,17,-6,1,0,0,0,14,14,4,1,,,,,,,,
,,,,,,,,,,,,,FF,,,,,,,,0.983,,,,,,,,,,,,,,,,,,,,,,60fcfe8185c3d7634a14dea7,61036c1dd69236241ba01f37,2021-07-29_22h05.01.347,Simcolourproject_2stim_asymm_v5,2020.2.10,MacIntel,60,61025ae37ef11b136ea224fe,,,,,,,,,1002,65,40,1,0,0,response1disk,,6,22,-7,1,0,0,rectangle,22,-7,1,0,0,22,-7,1,0,0,0,15,15,150,1,,,,,,,,
,,,,,,,,,,,,,FF,,,,,,,,1.083,,,,,,,,,,,,,,,,,,,,,,60fcfe8185c3d7634a14dea7,61036c1dd69236241ba01f37,2021-07-29_22h05.01.347,Simcolourproject_2stim_asymm_v5,2020.2.10,MacIntel,60,61025ae37ef11b136ea224fe,,,,,,,,,1037,-23,-71,1,0,0,response5disk,,3,-3,-14,1,0,0,rectangle,-3,-14,1,0,0,-3,-14,1,0,0,0,16,16,77,1,,,,,,,,
,,,,,,,,,,,,,FF,,,,,,,,0.834,,,,,,,,,,,,,,,,,,,,,,60fcfe8185c3d7634a14dea7,61036c1dd69236241ba01f37,2021-07-29_22h05.01.347,Simcolourproject_2stim_asymm_v5,2020.2.10,MacIntel,60,61025ae37ef11b136ea224fe,,,,,,,,,1555,74,52,1,0,0,response1disk,,6,11,1,1,0,0,rectangle,-47,64,1,0,0,-11,-4,1,0,0,0,17,17,109,1,,response7disk_3,TRUE,0,0,"[60,91,248,7,18,267,95,287,21,99,107,11,57,170,50,26,92,79,214,176]",1.533,rectangle
,,,,,,,,,,,,,FF,,,,,,,,1.549,,,,,,,,,,,,,,,,,,,,,,60fcfe8185c3d7634a14dea7,61036c1dd69236241ba01f37,2021-07-29_22h05.01.347,Simcolourproject_2stim_asymm_v5,2020.2.10,MacIntel,60,61025ae37ef11b136ea224fe,,,,,,,,,877,73,-30,1,0,0,response3disk,,5,8,-8,1,0,0,rectangle,8,-8,1,0,0,8,-8,1,0,0,0,18,18,5,1,,,,,,,,
,,,,,,,,,,,,,FF,,,,,,,,1.583,,,,,,,,,,,,,,,,,,,,,,60fcfe8185c3d7634a14dea7,61036c1dd69236241ba01f37,2021-07-29_22h05.01.347,Simcolourproject_2stim_asymm_v5,2020.2.10,MacIntel,60,61025ae37ef11b136ea224fe,,,,,,,,,3859,61,-43,1,0,0,response3disk,,5,-5,-6,1,0,0,rectangle,-5,-6,1,0,0,-5,-6,1,0,0,0,19,19,76,1,,,,,,,,
,,,,,,,,,,,,,FF,,,,,,,,1.467,,,,,,,,,,,,,,,,,,,,,,60fcfe8185c3d7634a14dea7,61036c1dd69236241ba01f37,2021-07-29_22h05.01.347,Simcolourproject_2stim_asymm_v5,2020.2.10,MacIntel,60,61025ae37ef11b136ea224fe,,,,,,,,,3121,30,-67,1,0,0,response3disk,,4,4,-6,1,0,0,rectangle,-37,55,1,0,0,-15,0,1,0,0,0,20,20,124,1,,response7disk_3,TRUE,0,0,"[60,91,248,7,18,267,95,287,21,99,107,11,57,170,50,26,92,79,214,176]",1.417,rectangle
,,,,,,,,,,,,,FF,,,,,,,,0.934,,,,,,,,,,,,,,,,,,,,,,60fcfe8185c3d7634a14dea7,61036c1dd69236241ba01f37,2021-07-29_22h05.01.347,Simcolourproject_2stim_asymm_v5,2020.2.10,MacIntel,60,61025ae37ef11b136ea224fe,,,,,,,,,3327,32,89,1,0,0,response1disk,,7,-5,1,1,0,0,rectangle,-5,1,1,0,0,-5,1,1,0,0,0,21,21,69,1,,,,,,,,
,,,,,,,,,,,,,FF,,,,,,,,1.651,,,,,,,,,,,,,,,,,,,,,,60fcfe8185c3d7634a14dea7,61036c1dd69236241ba01f37,2021-07-29_22h05.01.347,Simcolourproject_2stim_asymm_v5,2020.2.10,MacIntel,60,61025ae37ef11b136ea224fe,,,,,,,,,275,59,-34,1,0,0,response3disk,,5,5,-2,1,0,0,rectangle,5,-2,1,0,0,5,-2,1,0,0,0,22,22,17,1,,,,,,,,
,,,,,,,,,,,,,FF,,,,,,,,0.967,,,,,,,,,,,,,,,,,,,,,,60fcfe8185c3d7634a14dea7,61036c1dd69236241ba01f37,2021-07-29_22h05.01.347,Simcolourproject_2stim_asymm_v5,2020.2.10,MacIntel,60,61025ae37ef11b136ea224fe,,,,,,,,,3232,27,66,1,0,0,response1disk,,7,7,14,1,0,0,rectangle,7,14,1,0,0,7,14,1,0,0,0,23,23,107,1,,,,,,,,
,,,,,,,,,,,,,FF,,,,,,,,1.267,,,,,,,,,,,,,,,,,,,,,,60fcfe8185c3d7634a14dea7,61036c1dd69236241ba01f37,2021-07-29_22h05.01.347,Simcolourproject_2stim_asymm_v5,2020.2.10,MacIntel,60,61025ae37ef11b136ea224fe,,,,,,,,,1122,77,41,1,0,0,response1disk,,6,16,5,1,0,0,rectangle,16,5,1,0,0,16,5,1,0,0,0,24,24,159,1,,,,,,,,
,,,,,,,,,,,,,FF,,,,,,,,0.866,,,,,,,,,,,,,,,,,,,,,,60fcfe8185c3d7634a14dea7,61036c1dd69236241ba01f37,2021-07-29_22h05.01.347,Simcolourproject_2stim_asymm_v5,2020.2.10,MacIntel,60,61025ae37ef11b136ea224fe,,,,,,,,,1111,71,24,1,0,0,response1disk,,6,6,-6,1,0,0,rectangle,35,-88,1,0,0,7,-1,1,0,0,0,25,25,95,1,,response3disk_3,TRUE,4,4,"[60,91,248,7,18,267,95,287,21,99,107,11,57,170,50,26,92,79,214,176]",2.75,rectangle
,,,,,,,,,,,,,FF,,,,,,,,1.183,,,,,,,,,,,,,,,,,,,,,,60fcfe8185c3d7634a14dea7,61036c1dd69236241ba01f37,2021-07-29_22h05.01.347,Simcolourproject_2stim_asymm_v5,2020.2.10,MacIntel,60,61025ae37ef11b136ea224fe,,,,,,,,,1673,-71,40,1,0,0,response7disk,,1,3,4,1,0,0,rectangle,3,4,1,0,0,3,4,1,0,0,0,26,26,43,1,,,,,,,,
,,,,,,,,,,,,,FF,,,,,,,,2.4,,,,,,,,,,,,,,,,,,,,,,60fcfe8185c3d7634a14dea7,61036c1dd69236241ba01f37,2021-07-29_22h05.01.347,Simcolourproject_2stim_asymm_v5,2020.2.10,MacIntel,60,61025ae37ef11b136ea224fe,,,,,,,,,1481,72,25,1,0,0,response1disk,,6,4,1,1,0,0,rectangle,4,1,1,0,0,4,1,1,0,0,0,27,27,140,1,,,,,,,,
,,,,,,,,,,,,,FF,,,,,,,,1,,,,,,,,,,,,,,,,,,,,,,60fcfe8185c3d7634a14dea7,61036c1dd69236241ba01f37,2021-07-29_22h05.01.347,Simcolourproject_2stim_asymm_v5,2020.2.10,MacIntel,60,61025ae37ef11b136ea224fe,,,,,,,,,3436,-97,56,1,0,0,response7disk,,1,8,6,1,0,0,rectangle,8,6,1,0,0,8,6,1,0,0,0,28,28,28,1,,,,,,,,
,,,,,,,,,,,,,FF,,,,,,,,4,,,,,,,,,,,,,,,,,,,,,,60fcfe8185c3d7634a14dea7,61036c1dd69236241ba01f37,2021-07-29_22h05.01.347,Simcolourproject_2stim_asymm_v5,2020.2.10,MacIntel,60,61025ae37ef11b136ea224fe,,,,,,,,,4237,-90,30,1,0,0,response7disk,,1,8,-5,1,0,0,rectangle,8,-5,1,0,0,8,-5,1,0,0,0,29,29,117,1,,,,,,,,
,,,,,,,,,,,,,FF,,,,,,,,0.884,,,,,,,,,,,,,,,,,,,,,,60fcfe8185c3d7634a14dea7,61036c1dd69236241ba01f37,2021-07-29_22h05.01.347,Simcolourproject_2stim_asymm_v5,2020.2.10,MacIntel,60,61025ae37ef11b136ea224fe,,,,,,,,,2114,93,-44,1,0,0,response3disk,,5,15,-2,1,0,0,rectangle,15,-2,1,0,0,15,-2,1,0,0,0,30,30,83,1,,,,,,,,
,,,,,,,,,,,,,FF,,,,,,,,0.984,,,,,,,,,,,,,,,,,,,,,,60fcfe8185c3d7634a14dea7,61036c1dd69236241ba01f37,2021-07-29_22h05.01.347,Simcolourproject_2stim_asymm_v5,2020.2.10,MacIntel,60,61025ae37ef11b136ea224fe,,,,,,,,,3520,-62,-43,1,0,0,response5disk,,2,1,-5,1,0,0,rectangle,1,-5,1,0,0,1,-5,1,0,0,0,31,31,54,1,,,,,,,,
,,,,,,,,,,,,,FF,,,,,,,,0.751,,,,,,,,,,,,,,,,,,,,,,60fcfe8185c3d7634a14dea7,61036c1dd69236241ba01f37,2021-07-29_22h05.01.347,Simcolourproject_2stim_asymm_v5,2020.2.10,MacIntel,60,61025ae37ef11b136ea224fe,,,,,,,,,2822,40,64,1,0,0,response1disk,,7,7,11,1,0,0,rectangle,7,11,1,0,0,7,11,1,0,0,0,32,32,70,1,,,,,,,,
,,,,,,,,,,,,,FF,,,,,,,,1.2,,,,,,,,,,,,,,,,,,,,,,60fcfe8185c3d7634a14dea7,61036c1dd69236241ba01f37,2021-07-29_22h05.01.347,Simcolourproject_2stim_asymm_v5,2020.2.10,MacIntel,60,61025ae37ef11b136ea224fe,,,,,,,,,91,78,-32,1,0,0,response3disk,,5,6,-10,1,0,0,rectangle,6,-10,1,0,0,6,-10,1,0,0,0,33,33,130,1,,,,,,,,
,,,,,,,,,,,,,FF,,,,,,,,2.5,,,,,,,,,,,,,,,,,,,,,,60fcfe8185c3d7634a14dea7,61036c1dd69236241ba01f37,2021-07-29_22h05.01.347,Simcolourproject_2stim_asymm_v5,2020.2.10,MacIntel,60,61025ae37ef11b136ea224fe,,,,,,,,,1508,29,71,1,0,0,response1disk,,7,-4,1,1,0,0,rectangle,-4,1,1,0,0,-4,1,1,0,0,0,34,34,112,1,,,,,,,,
,,,,,,,,,,,,,FF,,,,,,,,0.967,,,,,,,,,,,,,,,,,,,,,,60fcfe8185c3d7634a14dea7,61036c1dd69236241ba01f37,2021-07-29_22h05.01.347,Simcolourproject_2stim_asymm_v5,2020.2.10,MacIntel,60,61025ae37ef11b136ea224fe,,,,,,,,,2982,31,71,1,0,0,response1disk,,7,7,2,1,0,0,rectangle,7,2,1,0,0,7,2,1,0,0,0,35,35,11,1,,,,,,,,
,,,,,,,,,,,,,FF,,,,,,,,2.333,,,,,,,,,,,,,,,,,,,,,,60fcfe8185c3d7634a14dea7,61036c1dd69236241ba01f37,2021-07-29_22h05.01.347,Simcolourproject_2stim_asymm_v5,2020.2.10,MacIntel,60,61025ae37ef11b136ea224fe,,,,,,,,,2327,34,71,1,0,0,response1disk,,7,1,-2,1,0,0,rectangle,1,-2,1,0,0,1,-2,1,0,0,0,36,36,91,1,,,,,,,,
,,,,,,,,,,,,,FF,,,,,,,,0.933,,,,,,,,,,,,,,,,,,,,,,60fcfe8185c3d7634a14dea7,61036c1dd69236241ba01f37,2021-07-29_22h05.01.347,Simcolourproject_2stim_asymm_v5,2020.2.10,MacIntel,60,61025ae37ef11b136ea224fe,,,,,,,,,2392,29,55,1,0,0,response1disk,,7,4,-12,1,0,0,rectangle,4,-12,1,0,0,4,-12,1,0,0,0,37,37,155,1,,,,,,,,
,,,,,,,,,,,,,FF,,,,,,,,1.116,,,,,,,,,,,,,,,,,,,,,,60fcfe8185c3d7634a14dea7,61036c1dd69236241ba01f37,2021-07-29_22h05.01.347,Simcolourproject_2stim_asymm_v5,2020.2.10,MacIntel,60,61025ae37ef11b136ea224fe,,,,,,,,,3716,-45,-78,1,0,0,response5disk,,3,-6,7,1,0,0,rectangle,-6,7,1,0,0,-6,7,1,0,0,0,38,38,57,1,,,,,,,,
,,,,,,,,,,,,,FF,,,,,,,,0.85,,,,,,,,,,,,,,,,,,,,,,60fcfe8185c3d7634a14dea7,61036c1dd69236241ba01f37,2021-07-29_22h05.01.347,Simcolourproject_2stim_asymm_v5,2020.2.10,MacIntel,60,61025ae37ef11b136ea224fe,,,,,,,,,2064,28,64,1,0,0,response1disk,,7,2,-5,1,0,0,rectangle,2,-5,1,0,0,2,-5,1,0,0,0,39,39,64,1,,,,,,,,
,,,,,,,,,,,,,FF,,,,,,,,1.435,,,,,,,,,,,,,,,,,,,,,,60fcfe8185c3d7634a14dea7,61036c1dd69236241ba01f37,2021-07-29_22h05.01.347,Simcolourproject_2stim_asymm_v5,2020.2.10,MacIntel,60,61025ae37ef11b136ea224fe,,,,,,,,,295,84,34,1,0,0,response1disk,,6,2,-4,1,0,0,rectangle,2,-4,1,0,0,2,-4,1,0,0,0,40,40,118,1,,,,,,,,
,,,,,,,,,,,,,FF,,,,,,,,0.7,,,,,,,,,,,,,,,,,,,,,,60fcfe8185c3d7634a14dea7,61036c1dd69236241ba01f37,2021-07-29_22h05.01.347,Simcolourproject_2stim_asymm_v5,2020.2.10,MacIntel,60,61025ae37ef11b136ea224fe,,,,,,,,,2588,41,86,1,0,0,response1disk,,7,1,-3,1,0,0,rectangle,1,-3,1,0,0,1,-3,1,0,0,0,41,41,157,1,,,,,,,,
,,,,,,,,,,,,,FF,,,,,,,,0.951,,,,,,,,,,,,,,,,,,,,,,60fcfe8185c3d7634a14dea7,61036c1dd69236241ba01f37,2021-07-29_22h05.01.347,Simcolourproject_2stim_asymm_v5,2020.2.10,MacIntel,60,61025ae37ef11b136ea224fe,,,,,,,,,3614,42,72,1,0,0,response1disk,,7,3,-16,1,0,0,rectangle,3,-16,1,0,0,3,-16,1,0,0,0,42,42,149,1,,,,,,,,
,,,,,,,,,,,,,FF,,,,,,,,0.767,,,,,,,,,,,,,,,,,,,,,,60fcfe8185c3d7634a14dea7,61036c1dd69236241ba01f37,2021-07-29_22h05.01.347,Simcolourproject_2stim_asymm_v5,2020.2.10,MacIntel,60,61025ae37ef11b136ea224fe,,,,,,,,,3434,-67,29,1,0,0,response7disk,,1,-22,7,1,0,0,rectangle,-22,7,1,0,0,-22,7,1,0,0,0,43,43,81,1,,,,,,,,
,,,,,,,,,,,,,FF,,,,,,,,0.72,,,,,,,,,,,,,,,,,,,,,,60fcfe8185c3d7634a14dea7,61036c1dd69236241ba01f37,2021-07-29_22h05.01.347,Simcolourproject_2stim_asymm_v5,2020.2.10,MacIntel,60,61025ae37ef11b136ea224fe,,,,,,,,,3535,52,89,1,0,0,response1disk,,7,6,-4,1,0,0,rectangle,6,-4,1,0,0,6,-4,1,0,0,0,44,44,82,1,,,,,,,,
,,,,,,,,,,,,,FF,,,,,,,,0.983,,,,,,,,,,,,,,,,,,,,,,60fcfe8185c3d7634a14dea7,61036c1dd69236241ba01f37,2021-07-29_22h05.01.347,Simcolourproject_2stim_asymm_v5,2020.2.10,MacIntel,60,61025ae37ef11b136ea224fe,,,,,,,,,4100,-18,-65,1,0,0,response5disk,,3,1,-11,1,0,0,rectangle,1,-11,1,0,0,1,-11,1,0,0,0,45,45,99,1,,,,,,,,
,,,,,,,,,,,,,FF,,,,,,,,0.699,,,,,,,,,,,,,,,,,,,,,,60fcfe8185c3d7634a14dea7,61036c1dd69236241ba01f37,2021-07-29_22h05.01.347,Simcolourproject_2stim_asymm_v5,2020.2.10,MacIntel,60,61025ae37ef11b136ea224fe,,,,,,,,,1332,30,78,1,0,0,response1disk,,7,7,10,1,0,0,rectangle,7,10,1,0,0,7,10,1,0,0,0,46,46,96,1,,,,,,,,
,,,,,,,,,,,,,FF,,,,,,,,2.317,,,,,,,,,,,,,,,,,,,,,,60fcfe8185c3d7634a14dea7,61036c1dd69236241ba01f37,2021-07-29_22h05.01.347,Simcolourproject_2stim_asymm_v5,2020.2.10,MacIntel,60,61025ae37ef11b136ea224fe,,,,,,,,,4251,-42,82,1,0,0,response7disk,,0,-4,0,1,0,0,rectangle,-4,0,1,0,0,-4,0,1,0,0,0,47,47,106,1,,,,,,,,
,,,,,,,,,,,,,FF,,,,,,,,0.885,,,,,,,,,,,,,,,,,,,,,,60fcfe8185c3d7634a14dea7,61036c1dd69236241ba01f37,2021-07-29_22h05.01.347,Simcolourproject_2stim_asymm_v5,2020.2.10,MacIntel,60,61025ae37ef11b136ea224fe,,,,,,,,,3295,-79,33,1,0,0,response7disk,,1,-8,5,1,0,0,rectangle,-8,5,1,0,0,-8,5,1,0,0,0,48,48,146,1,,,,,,,,
,,,,,,,,,,,,,FF,,,,,,,,0.767,,,,,,,,,,,,,,,,,,,,,,60fcfe8185c3d7634a14dea7,61036c1dd69236241ba01f37,2021-07-29_22h05.01.347,Simcolourproject_2stim_asymm_v5,2020.2.10,MacIntel,60,61025ae37ef11b136ea224fe,,,,,,,,,3607,30,88,1,0,0,response1disk,,7,4,6,1,0,0,rectangle,72,-48,1,0,0,18,-3,1,0,0,0,49,49,75,1,,response3disk_3,TRUE,5,5,"[60,91,248,7,18,267,95,287,21,99,107,11,57,170,50,26,92,79,214,176]",1.983,rectangle
,,,,,,,,,,,,,FF,,,,,,,,1.184,,,,,,,,,,,,,,,,,,,,,,60fcfe8185c3d7634a14dea7,61036c1dd69236241ba01f37,2021-07-29_22h05.01.347,Simcolourproject_2stim_asymm_v5,2020.2.10,MacIntel,60,61025ae37ef11b136ea224fe,,,,,,,,,3999,-35,-89,1,0,0,response5disk,,3,-4,-9,1,0,0,rectangle,-4,-9,1,0,0,-4,-9,1,0,0,0,50,50,111,1,,,,,,,,
,,,,,,,,,,,,,FF,,,,,,,,0.817,,,,,,,,,,,,,,,,,,,,,,60fcfe8185c3d7634a14dea7,61036c1dd69236241ba01f37,2021-07-29_22h05.01.347,Simcolourproject_2stim_asymm_v5,2020.2.10,MacIntel,60,61025ae37ef11b136ea224fe,,,,,,,,,3845,-38,-81,1,0,0,response5disk,,3,0,-12,1,0,0,rectangle,0,-12,1,0,0,0,-12,1,0,0,0,51,51,37,1,,,,,,,,
,,,,,,,,,,,,,FF,,,,,,,,0.684,,,,,,,,,,,,,,,,,,,,,,60fcfe8185c3d7634a14dea7,61036c1dd69236241ba01f37,2021-07-29_22h05.01.347,Simcolourproject_2stim_asymm_v5,2020.2.10,MacIntel,60,61025ae37ef11b136ea224fe,,,,,,,,,3324,25,79,1,0,0,response1disk,,7,-3,-8,1,0,0,rectangle,-3,-8,1,0,0,-3,-8,1,0,0,0,52,52,152,1,,,,,,,,
,,,,,,,,,,,,,FF,,,,,,,,0.651,,,,,,,,,,,,,,,,,,,,,,60fcfe8185c3d7634a14dea7,61036c1dd69236241ba01f37,2021-07-29_22h05.01.347,Simcolourproject_2stim_asymm_v5,2020.2.10,MacIntel,60,61025ae37ef11b136ea224fe,,,,,,,,,2390,31,62,1,0,0,response1disk,,7,2,0,1,0,0,rectangle,2,0,1,0,0,2,0,1,0,0,0,53,53,18,1,,,,,,,,
,,,,,,,,,,,,,FF,,,,,,,,0.651,,,,,,,,,,,,,,,,,,,,,,60fcfe8185c3d7634a14dea7,61036c1dd69236241ba01f37,2021-07-29_22h05.01.347,Simcolourproject_2stim_asymm_v5,2020.2.10,MacIntel,60,61025ae37ef11b136ea224fe,,,,,,,,,2265,36,81,1,0,0,response1disk,,7,8,1,1,0,0,rectangle,8,1,1,0,0,8,1,1,0,0,0,54,54,26,1,,,,,,,,
,,,,,,,,,,,,,FF,,,,,,,,0.617,,,,,,,,,,,,,,,,,,,,,,60fcfe8185c3d7634a14dea7,61036c1dd69236241ba01f37,2021-07-29_22h05.01.347,Simcolourproject_2stim_asymm_v5,2020.2.10,MacIntel,60,61025ae37ef11b136ea224fe,,,,,,,,,2224,30,71,1,0,0,response1disk,,7,-4,-14,1,0,0,rectangle,-4,-14,1,0,0,-4,-14,1,0,0,0,55,55,127,1,,,,,,,,
,,,,,,,,,,,,,FF,,,,,,,,0.55,,,,,,,,,,,,,,,,,,,,,,60fcfe8185c3d7634a14dea7,61036c1dd69236241ba01f37,2021-07-29_22h05.01.347,Simcolourproject_2stim_asymm_v5,2020.2.10,MacIntel,60,61025ae37ef11b136ea224fe,,,,,,,,,2850,43,70,1,0,0,response1disk,,7,12,9,1,0,0,rectangle,-79,42,1,0,0,10,-3,1,0,0,0,56,56,143,1,,response7disk_3,TRUE,1,1,"[60,91,248,7,18,267,95,287,21,99,107,11,57,170,50,26,92,79,214,176]",1.566,rectangle
,,,,,,,,,,,,,FF,,,,,,,,1.201,,,,,,,,,,,,,,,,,,,,,,60fcfe8185c3d7634a14dea7,61036c1dd69236241ba01f37,2021-07-29_22h05.01.347,Simcolourproject_2stim_asymm_v5,2020.2.10,MacIntel,60,61025ae37ef11b136ea224fe,,,,,,,,,285,-28,-85,1,0,0,response5disk,,3,20,0,1,0,0,rectangle,20,0,1,0,0,20,0,1,0,0,0,57,57,47,1,,,,,,,,
,,,,,,,,,,,,,FF,,,,,,,,0.951,,,,,,,,,,,,,,,,,,,,,,60fcfe8185c3d7634a14dea7,61036c1dd69236241ba01f37,2021-07-29_22h05.01.347,Simcolourproject_2stim_asymm_v5,2020.2.10,MacIntel,60,61025ae37ef11b136ea224fe,,,,,,,,,3251,-59,-32,1,0,0,response5disk,,2,-2,-8,1,0,0,rectangle,-2,-8,1,0,0,-2,-8,1,0,0,0,58,58,126,1,,,,,,,,
,,,,,,,,,,,,,FF,,,,,,,,1.75,,,,,,,,,,,,,,,,,,,,,,60fcfe8185c3d7634a14dea7,61036c1dd69236241ba01f37,2021-07-29_22h05.01.347,Simcolourproject_2stim_asymm_v5,2020.2.10,MacIntel,60,61025ae37ef11b136ea224fe,,,,,,,,,2242,45,75,1,0,0,response1disk,,7,13,3,1,0,0,rectangle,-47,-97,1,0,0,1,3,1,0,0,0,59,59,113,1,,response5disk_3,TRUE,3,3,"[60,91,248,7,18,267,95,287,21,99,107,11,57,170,50,26,92,79,214,176]",1.899,rectangle
,,,,,,,,,,,,,FF,,,,,,,,0.917,,,,,,,,,,,,,,,,,,,,,,60fcfe8185c3d7634a14dea7,61036c1dd69236241ba01f37,2021-07-29_22h05.01.347,Simcolourproject_2stim_asymm_v5,2020.2.10,MacIntel,60,61025ae37ef11b136ea224fe,,,,,,,,,4278,51,79,1,0,0,response1disk,,7,1,6,1,0,0,rectangle,1,6,1,0,0,1,6,1,0,0,0,60,60,153,1,,,,,,,,
,,,,,,,,,,,,,FF,,,,,,,,0.7,,,,,,,,,,,,,,,,,,,,,,60fcfe8185c3d7634a14dea7,61036c1dd69236241ba01f37,2021-07-29_22h05.01.347,Simcolourproject_2stim_asymm_v5,2020.2.10,MacIntel,60,61025ae37ef11b136ea224fe,,,,,,,,,599,43,83,1,0,0,response1disk,,7,0,10,1,0,0,rectangle,0,10,1,0,0,0,10,1,0,0,0,61,61,48,1,,,,,,,,
,,,,,,,,,,,,,FF,,,,,,,,0.934,,,,,,,,,,,,,,,,,,,,,,60fcfe8185c3d7634a14dea7,61036c1dd69236241ba01f37,2021-07-29_22h05.01.347,Simcolourproject_2stim_asymm_v5,2020.2.10,MacIntel,60,61025ae37ef11b136ea224fe,,,,,,,,,1389,40,63,1,0,0,response1disk,,7,1,-2,1,0,0,rectangle,1,-2,1,0,0,1,-2,1,0,0,0,62,62,145,1,,,,,,,,
,,,,,,,,,,,,,FF,,,,,,,,1.433,,,,,,,,,,,,,,,,,,,,,,60fcfe8185c3d7634a14dea7,61036c1dd69236241ba01f37,2021-07-29_22h05.01.347,Simcolourproject_2stim_asymm_v5,2020.2.10,MacIntel,60,61025ae37ef11b136ea224fe,,,,,,,,,3064,35,-70,1,0,0,response3disk,,4,-10,-7,1,0,0,rectangle,-10,-7,1,0,0,-10,-7,1,0,0,0,63,63,62,1,,,,,,,,
,,,,,,,,,,,,,FF,,,,,,,,0.617,,,,,,,,,,,,,,,,,,,,,,60fcfe8185c3d7634a14dea7,61036c1dd69236241ba01f37,2021-07-29_22h05.01.347,Simcolourproject_2stim_asymm_v5,2020.2.10,MacIntel,60,61025ae37ef11b136ea224fe,,,,,,,,,2463,43,67,1,0,0,response1disk,,7,12,13,1,0,0,rectangle,12,13,1,0,0,12,13,1,0,0,0,64,64,20,1,,,,,,,,
,,,,,,,,,,,,,FF,,,,,,,,1.734,,,,,,,,,,,,,,,,,,,,,,60fcfe8185c3d7634a14dea7,61036c1dd69236241ba01f37,2021-07-29_22h05.01.347,Simcolourproject_2stim_asymm_v5,2020.2.10,MacIntel,60,61025ae37ef11b136ea224fe,,,,,,,,,1618,-73,-49,1,0,0,response5disk,,2,3,-1,1,0,0,rectangle,3,-1,1,0,0,3,-1,1,0,0,0,65,65,120,1,,,,,,,,
,,,,,,,,,,,,,FF,,,,,,,,1.684,,,,,,,,,,,,,,,,,,,,,,60fcfe8185c3d7634a14dea7,61036c1dd69236241ba01f37,2021-07-29_22h05.01.347,Simcolourproject_2stim_asymm_v5,2020.2.10,MacIntel,60,61025ae37ef11b136ea224fe,,,,,,,,,735,29,-73,1,0,0,response3disk,,4,7,-3,1,0,0,rectangle,7,-3,1,0,0,7,-3,1,0,0,0,66,66,84,1,,,,,,,,
,,,,,,,,,,,,,FF,,,,,,,,0.767,,,,,,,,,,,,,,,,,,,,,,60fcfe8185c3d7634a14dea7,61036c1dd69236241ba01f37,2021-07-29_22h05.01.347,Simcolourproject_2stim_asymm_v5,2020.2.10,MacIntel,60,61025ae37ef11b136ea224fe,,,,,,,,,2016,39,76,1,0,0,response1disk,,7,1,9,1,0,0,rectangle,1,9,1,0,0,1,9,1,0,0,0,67,67,44,1,,,,,,,,
,,,,,,,,,,,,,FF,,,,,,,,0.683,,,,,,,,,,,,,,,,,,,,,,60fcfe8185c3d7634a14dea7,61036c1dd69236241ba01f37,2021-07-29_22h05.01.347,Simcolourproject_2stim_asymm_v5,2020.2.10,MacIntel,60,61025ae37ef11b136ea224fe,,,,,,,,,231,44,68,1,0,0,response1disk,,7,-2,0,1,0,0,rectangle,-2,0,1,0,0,-2,0,1,0,0,0,68,68,93,1,,,,,,,,
,,,,,,,,,,,,,FF,,,,,,,,0.683,,,,,,,,,,,,,,,,,,,,,,60fcfe8185c3d7634a14dea7,61036c1dd69236241ba01f37,2021-07-29_22h05.01.347,Simcolourproject_2stim_asymm_v5,2020.2.10,MacIntel,60,61025ae37ef11b136ea224fe,,,,,,,,,419,42,71,1,0,0,response1disk,,7,-3,-1,1,0,0,rectangle,-3,-1,1,0,0,-3,-1,1,0,0,0,69,69,49,1,,,,,,,,
,,,,,,,,,,,,,FF,,,,,,,,2,,,,,,,,,,,,,,,,,,,,,,60fcfe8185c3d7634a14dea7,61036c1dd69236241ba01f37,2021-07-29_22h05.01.347,Simcolourproject_2stim_asymm_v5,2020.2.10,MacIntel,60,61025ae37ef11b136ea224fe,,,,,,,,,1434,66,-41,1,0,0,response3disk,,5,7,-1,1,0,0,rectangle,7,-1,1,0,0,7,-1,1,0,0,0,70,70,23,1,,,,,,,,
,,,,,,,,,,,,,FF,,,,,,,,1.283,,,,,,,,,,,,,,,,,,,,,,60fcfe8185c3d7634a14dea7,61036c1dd69236241ba01f37,2021-07-29_22h05.01.347,Simcolourproject_2stim_asymm_v5,2020.2.10,MacIntel,60,61025ae37ef11b136ea224fe,,,,,,,,,4169,-46,-100,1,0,0,response5disk,,3,1,7,1,0,0,rectangle,1,7,1,0,0,1,7,1,0,0,0,71,71,72,1,,,,,,,,
,,,,,,,,,,,,,FF,,,,,,,,2.167,,,,,,,,,,,,,,,,,,,,,,60fcfe8185c3d7634a14dea7,61036c1dd69236241ba01f37,2021-07-29_22h05.01.347,Simcolourproject_2stim_asymm_v5,2020.2.10,MacIntel,60,61025ae37ef11b136ea224fe,,,,,,,,,390,54,28,1,0,0,response1disk,,6,4,-17,1,0,0,rectangle,4,-17,1,0,0,4,-17,1,0,0,0,72,72,78,1,,,,,,,,
,,,,,,,,,,,,,FF,,,,,,,,0.934,,,,,,,,,,,,,,,,,,,,,,60fcfe8185c3d7634a14dea7,61036c1dd69236241ba01f37,2021-07-29_22h05.01.347,Simcolourproject_2stim_asymm_v5,2020.2.10,MacIntel,60,61025ae37ef11b136ea224fe,,,,,,,,,3423,-72,36,1,0,0,response7disk,,1,8,5,1,0,0,rectangle,8,5,1,0,0,8,5,1,0,0,0,73,73,137,1,,,,,,,,
,,,,,,,,,,,,,FF,,,,,,,,0.818,,,,,,,,,,,,,,,,,,,,,,60fcfe8185c3d7634a14dea7,61036c1dd69236241ba01f37,2021-07-29_22h05.01.347,Simcolourproject_2stim_asymm_v5,2020.2.10,MacIntel,60,61025ae37ef11b136ea224fe,,,,,,,,,3667,32,82,1,0,0,response1disk,,7,10,8,1,0,0,rectangle,10,8,1,0,0,10,8,1,0,0,0,74,74,86,1,,,,,,,,
,,,,,,,,,,,,,FF,,,,,,,,1.235,,,,,,,,,,,,,,,,,,,,,,60fcfe8185c3d7634a14dea7,61036c1dd69236241ba01f37,2021-07-29_22h05.01.347,Simcolourproject_2stim_asymm_v5,2020.2.10,MacIntel,60,61025ae37ef11b136ea224fe,,,,,,,,,1322,33,56,1,0,0,response1disk,,7,8,7,1,0,0,rectangle,8,7,1,0,0,8,7,1,0,0,0,75,75,122,1,,,,,,,,
,,,,,,,,,,,,,FF,,,,,,,,1.55,,,,,,,,,,,,,,,,,,,,,,60fcfe8185c3d7634a14dea7,61036c1dd69236241ba01f37,2021-07-29_22h05.01.347,Simcolourproject_2stim_asymm_v5,2020.2.10,MacIntel,60,61025ae37ef11b136ea224fe,,,,,,,,,2107,-36,-54,1,0,0,response5disk,,3,-5,-2,1,0,0,rectangle,-5,-2,1,0,0,-5,-2,1,0,0,0,76,76,134,1,,,,,,,,
,,,,,,,,,,,,,FF,,,,,,,,1.267,,,,,,,,,,,,,,,,,,,,,,60fcfe8185c3d7634a14dea7,61036c1dd69236241ba01f37,2021-07-29_22h05.01.347,Simcolourproject_2stim_asymm_v5,2020.2.10,MacIntel,60,61025ae37ef11b136ea224fe,,,,,,,,,2622,74,39,1,0,0,response1disk,,6,11,-2,1,0,0,rectangle,11,-2,1,0,0,11,-2,1,0,0,0,77,77,53,1,,,,,,,,
,,,,,,,,,,,,,FF,,,,,,,,2.15,,,,,,,,,,,,,,,,,,,,,,60fcfe8185c3d7634a14dea7,61036c1dd69236241ba01f37,2021-07-29_22h05.01.347,Simcolourproject_2stim_asymm_v5,2020.2.10,MacIntel,60,61025ae37ef11b136ea224fe,,,,,,,,,1329,71,49,1,0,0,response1disk,,6,19,7,1,0,0,rectangle,98,35,1,0,0,-7,-7,1,0,0,0,78,78,55,1,,response1disk_3,TRUE,6,6,"[60,91,248,7,18,267,95,287,21,99,107,11,57,170,50,26,92,79,214,176]",1.633,rectangle
,,,,,,,,,,,,,FF,,,,,,,,2.367,,,,,,,,,,,,,,,,,,,,,,60fcfe8185c3d7634a14dea7,61036c1dd69236241ba01f37,2021-07-29_22h05.01.347,Simcolourproject_2stim_asymm_v5,2020.2.10,MacIntel,60,61025ae37ef11b136ea224fe,,,,,,,,,178,37,74,1,0,0,response1disk,,7,0,-6,1,0,0,rectangle,0,-6,1,0,0,0,-6,1,0,0,0,79,79,158,1,,,,,,,,
,,,,,,,,,,,,,FF,,,,,,,,0.85,,,,,,,,,,,,,,,,,,,,,,60fcfe8185c3d7634a14dea7,61036c1dd69236241ba01f37,2021-07-29_22h05.01.347,Simcolourproject_2stim_asymm_v5,2020.2.10,MacIntel,60,61025ae37ef11b136ea224fe,,,,,,,,,1888,-73,33,1,0,0,response7disk,,1,8,5,1,0,0,rectangle,8,5,1,0,0,8,5,1,0,0,0,80,80,9,1,,,,,,,,
,,,,,,,,,,,,,FF,,,,,,,,1.8,,,,,,,,,,,,,,,,,,,,,,60fcfe8185c3d7634a14dea7,61036c1dd69236241ba01f37,2021-07-29_22h05.01.347,Simcolourproject_2stim_asymm_v5,2020.2.10,MacIntel,60,61025ae37ef11b136ea224fe,,,,,,,,,825,29,-66,1,0,0,response3disk,,4,7,0,1,0,0,rectangle,7,0,1,0,0,7,0,1,0,0,0,81,81,154,1,,,,,,,,
,,,,,,,,,,,,,FF,,,,,,,,0.949,,,,,,,,,,,,,,,,,,,,,,60fcfe8185c3d7634a14dea7,61036c1dd69236241ba01f37,2021-07-29_22h05.01.347,Simcolourproject_2stim_asymm_v5,2020.2.10,MacIntel,60,61025ae37ef11b136ea224fe,,,,,,,,,2600,37,53,1,0,0,response1disk,,7,13,11,1,0,0,rectangle,13,11,1,0,0,13,11,1,0,0,0,82,82,1,1,,,,,,,,
,,,,,,,,,,,,,FF,,,,,,,,2.434,,,,,,,,,,,,,,,,,,,,,,60fcfe8185c3d7634a14dea7,61036c1dd69236241ba01f37,2021-07-29_22h05.01.347,Simcolourproject_2stim_asymm_v5,2020.2.10,MacIntel,60,61025ae37ef11b136ea224fe,,,,,,,,,3765,62,-30,1,0,0,response3disk,,5,10,-1,1,0,0,rectangle,10,-1,1,0,0,10,-1,1,0,0,0,83,83,147,1,,,,,,,,
,,,,,,,,,,,,,FF,,,,,,,,1.05,,,,,,,,,,,,,,,,,,,,,,60fcfe8185c3d7634a14dea7,61036c1dd69236241ba01f37,2021-07-29_22h05.01.347,Simcolourproject_2stim_asymm_v5,2020.2.10,MacIntel,60,61025ae37ef11b136ea224fe,,,,,,,,,1223,-26,-63,1,0,0,response5disk,,3,6,2,1,0,0,rectangle,6,2,1,0,0,6,2,1,0,0,0,84,84,21,1,,,,,,,,
,,,,,,,,,,,,,FF,,,,,,,,1.683,,,,,,,,,,,,,,,,,,,,,,60fcfe8185c3d7634a14dea7,61036c1dd69236241ba01f37,2021-07-29_22h05.01.347,Simcolourproject_2stim_asymm_v5,2020.2.10,MacIntel,60,61025ae37ef11b136ea224fe,,,,,,,,,778,83,34,1,0,0,response1disk,,6,7,-6,1,0,0,rectangle,7,-6,1,0,0,7,-6,1,0,0,0,85,85,67,1,,,,,,,,
,,,,,,,,,,,,,FF,,,,,,,,1.101,,,,,,,,,,,,,,,,,,,,,,60fcfe8185c3d7634a14dea7,61036c1dd69236241ba01f37,2021-07-29_22h05.01.347,Simcolourproject_2stim_asymm_v5,2020.2.10,MacIntel,60,61025ae37ef11b136ea224fe,,,,,,,,,3127,37,55,1,0,0,response1disk,,7,2,-5,1,0,0,rectangle,2,-5,1,0,0,2,-5,1,0,0,0,86,86,119,1,,,,,,,,
,,,,,,,,,,,,,FF,,,,,,,,1.284,,,,,,,,,,,,,,,,,,,,,,60fcfe8185c3d7634a14dea7,61036c1dd69236241ba01f37,2021-07-29_22h05.01.347,Simcolourproject_2stim_asymm_v5,2020.2.10,MacIntel,60,61025ae37ef11b136ea224fe,,,,,,,,,530,-79,-48,1,0,0,response5disk,,2,14,-7,1,0,0,rectangle,14,-7,1,0,0,14,-7,1,0,0,0,87,87,33,1,,,,,,,,
,,,,,,,,,,,,,FF,,,,,,,,1.067,,,,,,,,,,,,,,,,,,,,,,60fcfe8185c3d7634a14dea7,61036c1dd69236241ba01f37,2021-07-29_22h05.01.347,Simcolourproject_2stim_asymm_v5,2020.2.10,MacIntel,60,61025ae37ef11b136ea224fe,,,,,,,,,1516,24,75,1,0,0,response1disk,,7,0,7,1,0,0,rectangle,0,7,1,0,0,0,7,1,0,0,0,88,88,139,1,,,,,,,,
,,,,,,,,,,,,,FF,,,,,,,,2.833,,,,,,,,,,,,,,,,,,,,,,60fcfe8185c3d7634a14dea7,61036c1dd69236241ba01f37,2021-07-29_22h05.01.347,Simcolourproject_2stim_asymm_v5,2020.2.10,MacIntel,60,61025ae37ef11b136ea224fe,,,,,,,,,2595,69,27,1,0,0,response1disk,,6,0,-2,1,0,0,rectangle,0,-2,1,0,0,0,-2,1,0,0,0,89,89,135,1,,,,,,,,
,,,,,,,,,,,,,FF,,,,,,,,2.8,,,,,,,,,,,,,,,,,,,,,,60fcfe8185c3d7634a14dea7,61036c1dd69236241ba01f37,2021-07-29_22h05.01.347,Simcolourproject_2stim_asymm_v5,2020.2.10,MacIntel,60,61025ae37ef11b136ea224fe,,,,,,,,,2484,40,-62,1,0,0,response3disk,,4,12,-6,1,0,0,rectangle,-76,-35,1,0,0,11,1,1,0,0,0,90,90,25,1,,response5disk_3,TRUE,2,2,"[60,91,248,7,18,267,95,287,21,99,107,11,57,170,50,26,92,79,214,176]",1.467,rectangle
,,,,,,,,,,,,,FF,,,,,,,,0.95,,,,,,,,,,,,,,,,,,,,,,60fcfe8185c3d7634a14dea7,61036c1dd69236241ba01f37,2021-07-29_22h05.01.347,Simcolourproject_2stim_asymm_v5,2020.2.10,MacIntel,60,61025ae37ef11b136ea224fe,,,,,,,,,3917,-58,-31,1,0,0,response5disk,,2,3,-3,1,0,0,rectangle,-78,43,1,0,0,-4,4,1,0,0,0,91,91,12,1,,response7disk_3,TRUE,1,1,"[60,91,248,7,18,267,95,287,21,99,107,11,57,170,50,26,92,79,214,176]",1.217,rectangle
,,,,,,,,,,,,,FF,,,,,,,,2.366,,,,,,,,,,,,,,,,,,,,,,60fcfe8185c3d7634a14dea7,61036c1dd69236241ba01f37,2021-07-29_22h05.01.347,Simcolourproject_2stim_asymm_v5,2020.2.10,MacIntel,60,61025ae37ef11b136ea224fe,,,,,,,,,1803,48,25,1,0,0,response1disk,,6,-4,-9,1,0,0,rectangle,-4,-9,1,0,0,-4,-9,1,0,0,0,92,92,14,1,,,,,,,,
,,,,,,,,,,,,,FF,,,,,,,,1.266,,,,,,,,,,,,,,,,,,,,,,60fcfe8185c3d7634a14dea7,61036c1dd69236241ba01f37,2021-07-29_22h05.01.347,Simcolourproject_2stim_asymm_v5,2020.2.10,MacIntel,60,61025ae37ef11b136ea224fe,,,,,,,,,1655,42,62,1,0,0,response1disk,,7,10,10,1,0,0,rectangle,10,10,1,0,0,10,10,1,0,0,0,93,93,27,1,,,,,,,,
,,,,,,,,,,,,,FF,,,,,,,,0.634,,,,,,,,,,,,,,,,,,,,,,60fcfe8185c3d7634a14dea7,61036c1dd69236241ba01f37,2021-07-29_22h05.01.347,Simcolourproject_2stim_asymm_v5,2020.2.10,MacIntel,60,61025ae37ef11b136ea224fe,,,,,,,,,1091,40,76,1,0,0,response1disk,,7,2,9,1,0,0,rectangle,85,-34,1,0,0,7,-4,1,0,0,0,94,94,46,1,,response3disk_3,TRUE,5,5,"[60,91,248,7,18,267,95,287,21,99,107,11,57,170,50,26,92,79,214,176]",1.698,rectangle
,,,,,,,,,,,,,FF,,,,,,,,2.517,,,,,,,,,,,,,,,,,,,,,,60fcfe8185c3d7634a14dea7,61036c1dd69236241ba01f37,2021-07-29_22h05.01.347,Simcolourproject_2stim_asymm_v5,2020.2.10,MacIntel,60,61025ae37ef11b136ea224fe,,,,,,,,,1103,37,58,1,0,0,response1disk,,7,1,5,1,0,0,rectangle,1,5,1,0,0,1,5,1,0,0,0,95,95,131,1,,,,,,,,
,,,,,,,,,,,,,FF,,,,,,,,0.901,,,,,,,,,,,,,,,,,,,,,,60fcfe8185c3d7634a14dea7,61036c1dd69236241ba01f37,2021-07-29_22h05.01.347,Simcolourproject_2stim_asymm_v5,2020.2.10,MacIntel,60,61025ae37ef11b136ea224fe,,,,,,,,,3315,29,66,1,0,0,response1disk,,7,6,14,1,0,0,rectangle,6,14,1,0,0,6,14,1,0,0,0,96,96,56,1,,,,,,,,
,,,,,,,,,,,,,FF,,,,,,,,0.867,,,,,,,,,,,,,,,,,,,,,,60fcfe8185c3d7634a14dea7,61036c1dd69236241ba01f37,2021-07-29_22h05.01.347,Simcolourproject_2stim_asymm_v5,2020.2.10,MacIntel,60,61025ae37ef11b136ea224fe,,,,,,,,,618,-67,23,1,0,0,response7disk,,1,5,10,1,0,0,rectangle,5,10,1,0,0,5,10,1,0,0,0,97,97,156,1,,,,,,,,
,,,,,,,,,,,,,FF,,,,,,,,0.718,,,,,,,,,,,,,,,,,,,,,,60fcfe8185c3d7634a14dea7,61036c1dd69236241ba01f37,2021-07-29_22h05.01.347,Simcolourproject_2stim_asymm_v5,2020.2.10,MacIntel,60,61025ae37ef11b136ea224fe,,,,,,,,,3196,-82,34,1,0,0,response7disk,,1,8,6,1,0,0,rectangle,94,-42,1,0,0,6,-5,1,0,0,0,98,98,141,1,,response3disk_3,TRUE,5,5,"[60,91,248,7,18,267,95,287,21,99,107,11,57,170,50,26,92,79,214,176]",1.317,rectangle
,,,,,,,,,,,,,FF,,,,,,,,0.817,,,,,,,,,,,,,,,,,,,,,,60fcfe8185c3d7634a14dea7,61036c1dd69236241ba01f37,2021-07-29_22h05.01.347,Simcolourproject_2stim_asymm_v5,2020.2.10,MacIntel,60,61025ae37ef11b136ea224fe,,,,,,,,,1052,-71,41,1,0,0,response7disk,,1,-9,7,1,0,0,rectangle,-9,7,1,0,0,-9,7,1,0,0,0,99,99,136,1,,,,,,,,
,,,,,,,,,,,,,FF,,,,,,,,0.683,,,,,,,,,,,,,,,,,,,,,,60fcfe8185c3d7634a14dea7,61036c1dd69236241ba01f37,2021-07-29_22h05.01.347,Simcolourproject_2stim_asymm_v5,2020.2.10,MacIntel,60,61025ae37ef11b136ea224fe,,,,,,,,,3749,-78,36,1,0,0,response7disk,,1,3,3,1,0,0,rectangle,3,3,1,0,0,3,3,1,0,0,0,100,100,148,1,,,,,,,,
,,,,,,,,,,,,,FF,,,,,,,,3.35,,,,,,,,,,,,,,,,,,,,,,60fcfe8185c3d7634a14dea7,61036c1dd69236241ba01f37,2021-07-29_22h05.01.347,Simcolourproject_2stim_asymm_v5,2020.2.10,MacIntel,60,61025ae37ef11b136ea224fe,,,,,,,,,108,49,-111,1,0,0,response3disk,,4,-7,-3,1,0,0,rectangle,-7,-3,1,0,0,-7,-3,1,0,0,0,101,101,50,1,,,,,,,,
,,,,,,,,,,,,,FF,,,,,,,,1.068,,,,,,,,,,,,,,,,,,,,,,60fcfe8185c3d7634a14dea7,61036c1dd69236241ba01f37,2021-07-29_22h05.01.347,Simcolourproject_2stim_asymm_v5,2020.2.10,MacIntel,60,61025ae37ef11b136ea224fe,,,,,,,,,3547,-62,-27,1,0,0,response5disk,,2,0,-7,1,0,0,rectangle,0,-7,1,0,0,0,-7,1,0,0,0,102,102,24,1,,,,,,,,
,,,,,,,,,,,,,FF,,,,,,,,0.666,,,,,,,,,,,,,,,,,,,,,,60fcfe8185c3d7634a14dea7,61036c1dd69236241ba01f37,2021-07-29_22h05.01.347,Simcolourproject_2stim_asymm_v5,2020.2.10,MacIntel,60,61025ae37ef11b136ea224fe,,,,,,,,,664,34,80,1,0,0,response1disk,,7,9,6,1,0,0,rectangle,9,6,1,0,0,9,6,1,0,0,0,103,103,110,1,,,,,,,,
,,,,,,,,,,,,,FF,,,,,,,,0.833,,,,,,,,,,,,,,,,,,,,,,60fcfe8185c3d7634a14dea7,61036c1dd69236241ba01f37,2021-07-29_22h05.01.347,Simcolourproject_2stim_asymm_v5,2020.2.10,MacIntel,60,61025ae37ef11b136ea224fe,,,,,,,,,4367,-73,37,1,0,0,response7disk,,1,2,5,1,0,0,rectangle,2,5,1,0,0,2,5,1,0,0,0,104,104,92,1,,,,,,,,
,,,,,,,,,,,,,FF,,,,,,,,1.551,,,,,,,,,,,,,,,,,,,,,,60fcfe8185c3d7634a14dea7,61036c1dd69236241ba01f37,2021-07-29_22h05.01.347,Simcolourproject_2stim_asymm_v5,2020.2.10,MacIntel,60,61025ae37ef11b136ea224fe,,,,,,,,,1235,54,-25,1,0,0,response3disk,,5,3,4,1,0,0,rectangle,3,4,1,0,0,3,4,1,0,0,0,105,105,36,1,,,,,,,,
,,,,,,,,,,,,,FF,,,,,,,,0.801,,,,,,,,,,,,,,,,,,,,,,60fcfe8185c3d7634a14dea7,61036c1dd69236241ba01f37,2021-07-29_22h05.01.347,Simcolourproject_2stim_asymm_v5,2020.2.10,MacIntel,60,61025ae37ef11b136ea224fe,,,,,,,,,595,31,66,1,0,0,response1disk,,7,8,5,1,0,0,rectangle,-66,-36,1,0,0,16,-6,1,0,0,0,106,106,61,1,,response5disk_3,TRUE,2,2,"[60,91,248,7,18,267,95,287,21,99,107,11,57,170,50,26,92,79,214,176]",1.767,rectangle
,,,,,,,,,,,,,FF,,,,,,,,2.083,,,,,,,,,,,,,,,,,,,,,,60fcfe8185c3d7634a14dea7,61036c1dd69236241ba01f37,2021-07-29_22h05.01.347,Simcolourproject_2stim_asymm_v5,2020.2.10,MacIntel,60,61025ae37ef11b136ea224fe,,,,,,,,,1355,82,32,1,0,0,response1disk,,6,-3,-7,1,0,0,rectangle,-3,-7,1,0,0,-3,-7,1,0,0,0,107,107,89,1,,,,,,,,
,,,,,,,,,,,,,FF,,,,,,,,2.417,,,,,,,,,,,,,,,,,,,,,,60fcfe8185c3d7634a14dea7,61036c1dd69236241ba01f37,2021-07-29_22h05.01.347,Simcolourproject_2stim_asymm_v5,2020.2.10,MacIntel,60,61025ae37ef11b136ea224fe,,,,,,,,,2569,31,45,1,0,0,response1disk,,7,9,9,1,0,0,rectangle,9,9,1,0,0,9,9,1,0,0,0,108,108,123,1,,,,,,,,
,,,,,,,,,,,,,FF,,,,,,,,0.65,,,,,,,,,,,,,,,,,,,,,,60fcfe8185c3d7634a14dea7,61036c1dd69236241ba01f37,2021-07-29_22h05.01.347,Simcolourproject_2stim_asymm_v5,2020.2.10,MacIntel,60,61025ae37ef11b136ea224fe,,,,,,,,,937,33,55,1,0,0,response1disk,,7,11,11,1,0,0,rectangle,11,11,1,0,0,11,11,1,0,0,0,109,109,52,1,,,,,,,,
,,,,,,,,,,,,,FF,,,,,,,,1.35,,,,,,,,,,,,,,,,,,,,,,60fcfe8185c3d7634a14dea7,61036c1dd69236241ba01f37,2021-07-29_22h05.01.347,Simcolourproject_2stim_asymm_v5,2020.2.10,MacIntel,60,61025ae37ef11b136ea224fe,,,,,,,,,2990,61,33,1,0,0,response1disk,,6,4,-13,1,0,0,rectangle,4,-13,1,0,0,4,-13,1,0,0,0,110,110,88,1,,,,,,,,
,,,,,,,,,,,,,FF,,,,,,,,1.117,,,,,,,,,,,,,,,,,,,,,,60fcfe8185c3d7634a14dea7,61036c1dd69236241ba01f37,2021-07-29_22h05.01.347,Simcolourproject_2stim_asymm_v5,2020.2.10,MacIntel,60,61025ae37ef11b136ea224fe,,,,,,,,,840,26,56,1,0,0,response1disk,,7,10,4,1,0,0,rectangle,10,4,1,0,0,10,4,1,0,0,0,111,111,114,1,,,,,,,,
,,,,,,,,,,,,,FF,,,,,,,,1.45,,,,,,,,,,,,,,,,,,,,,,60fcfe8185c3d7634a14dea7,61036c1dd69236241ba01f37,2021-07-29_22h05.01.347,Simcolourproject_2stim_asymm_v5,2020.2.10,MacIntel,60,61025ae37ef11b136ea224fe,,,,,,,,,2552,20,38,1,0,0,response1disk,,7,-1,3,1,0,0,rectangle,-1,3,1,0,0,-1,3,1,0,0,0,112,112,15,1,,,,,,,,
,,,,,,,,,,,,,FF,,,,,,,,0.783,,,,,,,,,,,,,,,,,,,,,,60fcfe8185c3d7634a14dea7,61036c1dd69236241ba01f37,2021-07-29_22h05.01.347,Simcolourproject_2stim_asymm_v5,2020.2.10,MacIntel,60,61025ae37ef11b136ea224fe,,,,,,,,,3224,32,57,1,0,0,response1disk,,7,6,2,1,0,0,rectangle,6,2,1,0,0,6,2,1,0,0,0,113,113,71,1,,,,,,,,
,,,,,,,,,,,,,FF,,,,,,,,0.75,,,,,,,,,,,,,,,,,,,,,,60fcfe8185c3d7634a14dea7,61036c1dd69236241ba01f37,2021-07-29_22h05.01.347,Simcolourproject_2stim_asymm_v5,2020.2.10,MacIntel,60,61025ae37ef11b136ea224fe,,,,,,,,,525,-66,40,1,0,0,response7disk,,1,14,2,1,0,0,rectangle,14,2,1,0,0,14,2,1,0,0,0,114,114,0,1,,,,,,,,
,,,,,,,,,,,,,FF,,,,,,,,1.233,,,,,,,,,,,,,,,,,,,,,,60fcfe8185c3d7634a14dea7,61036c1dd69236241ba01f37,2021-07-29_22h05.01.347,Simcolourproject_2stim_asymm_v5,2020.2.10,MacIntel,60,61025ae37ef11b136ea224fe,,,,,,,,,1228,-66,-30,1,0,0,response5disk,,2,7,-1,1,0,0,rectangle,7,-1,1,0,0,7,-1,1,0,0,0,115,115,108,1,,,,,,,,
,,,,,,,,,,,,,FF,,,,,,,,1.567,,,,,,,,,,,,,,,,,,,,,,60fcfe8185c3d7634a14dea7,61036c1dd69236241ba01f37,2021-07-29_22h05.01.347,Simcolourproject_2stim_asymm_v5,2020.2.10,MacIntel,60,61025ae37ef11b136ea224fe,,,,,,,,,3860,-37,-87,1,0,0,response5disk,,3,-2,-10,1,0,0,rectangle,-2,-10,1,0,0,-2,-10,1,0,0,0,116,116,8,1,,,,,,,,
,,,,,,,,,,,,,FF,,,,,,,,0.884,,,,,,,,,,,,,,,,,,,,,,60fcfe8185c3d7634a14dea7,61036c1dd69236241ba01f37,2021-07-29_22h05.01.347,Simcolourproject_2stim_asymm_v5,2020.2.10,MacIntel,60,61025ae37ef11b136ea224fe,,,,,,,,,3145,35,70,1,0,0,response1disk,,7,6,1,1,0,0,rectangle,6,1,1,0,0,6,1,1,0,0,0,117,117,128,1,,,,,,,,
,,,,,,,,,,,,,FF,,,,,,,,1.034,,,,,,,,,,,,,,,,,,,,,,60fcfe8185c3d7634a14dea7,61036c1dd69236241ba01f37,2021-07-29_22h05.01.347,Simcolourproject_2stim_asymm_v5,2020.2.10,MacIntel,60,61025ae37ef11b136ea224fe,,,,,,,,,2867,35,62,1,0,0,response1disk,,7,-9,-12,1,0,0,rectangle,-9,-12,1,0,0,-9,-12,1,0,0,0,118,118,97,1,,,,,,,,
,,,,,,,,,,,,,FF,,,,,,,,1.072,,,,,,,,,,,,,,,,,,,,,,60fcfe8185c3d7634a14dea7,61036c1dd69236241ba01f37,2021-07-29_22h05.01.347,Simcolourproject_2stim_asymm_v5,2020.2.10,MacIntel,60,61025ae37ef11b136ea224fe,,,,,,,,,2777,-79,31,1,0,0,response7disk,,1,10,1,1,0,0,rectangle,10,1,1,0,0,10,1,1,0,0,0,119,119,98,1,,,,,,,,
,,,,,,,,,,,,,FF,,,,,,,,1.634,,,,,,,,,,,,,,,,,,,,,,60fcfe8185c3d7634a14dea7,61036c1dd69236241ba01f37,2021-07-29_22h05.01.347,Simcolourproject_2stim_asymm_v5,2020.2.10,MacIntel,60,61025ae37ef11b136ea224fe,,,,,,,,,674,26,-60,1,0,0,response3disk,,4,8,-5,1,0,0,rectangle,8,-5,1,0,0,8,-5,1,0,0,0,120,120,2,1,,,,,,,,
,,,,,,,,,,,,,FF,,,,,,,,1.217,,,,,,,,,,,,,,,,,,,,,,60fcfe8185c3d7634a14dea7,61036c1dd69236241ba01f37,2021-07-29_22h05.01.347,Simcolourproject_2stim_asymm_v5,2020.2.10,MacIntel,60,61025ae37ef11b136ea224fe,,,,,,,,,215,53,29,1,0,0,response1disk,,6,6,1,1,0,0,rectangle,6,1,1,0,0,6,1,1,0,0,0,121,121,80,1,,,,,,,,
,,,,,,,,,,,,,FF,,,,,,,,0.783,,,,,,,,,,,,,,,,,,,,,,60fcfe8185c3d7634a14dea7,61036c1dd69236241ba01f37,2021-07-29_22h05.01.347,Simcolourproject_2stim_asymm_v5,2020.2.10,MacIntel,60,61025ae37ef11b136ea224fe,,,,,,,,,2660,-39,105,1,0,0,response7disk,,0,4,4,1,0,0,rectangle,4,4,1,0,0,4,4,1,0,0,0,122,122,90,1,,,,,,,,
,,,,,,,,,,,,,FF,,,,,,,,1.484,,,,,,,,,,,,,,,,,,,,,,60fcfe8185c3d7634a14dea7,61036c1dd69236241ba01f37,2021-07-29_22h05.01.347,Simcolourproject_2stim_asymm_v5,2020.2.10,MacIntel,60,61025ae37ef11b136ea224fe,,,,,,,,,1129,31,56,1,0,0,response1disk,,7,10,4,1,0,0,rectangle,10,4,1,0,0,10,4,1,0,0,0,123,123,142,1,,,,,,,,
,,,,,,,,,,,,,FF,,,,,,,,0.85,,,,,,,,,,,,,,,,,,,,,,60fcfe8185c3d7634a14dea7,61036c1dd69236241ba01f37,2021-07-29_22h05.01.347,Simcolourproject_2stim_asymm_v5,2020.2.10,MacIntel,60,61025ae37ef11b136ea224fe,,,,,,,,,3118,30,55,1,0,0,response1disk,,7,9,7,1,0,0,rectangle,9,7,1,0,0,9,7,1,0,0,0,124,124,102,1,,,,,,,,
,,,,,,,,,,,,,FF,,,,,,,,0.583,,,,,,,,,,,,,,,,,,,,,,60fcfe8185c3d7634a14dea7,61036c1dd69236241ba01f37,2021-07-29_22h05.01.347,Simcolourproject_2stim_asymm_v5,2020.2.10,MacIntel,60,61025ae37ef11b136ea224fe,,,,,,,,,1496,49,67,1,0,0,response1disk,,7,17,5,1,0,0,rectangle,17,5,1,0,0,17,5,1,0,0,0,125,125,10,1,,,,,,,,
,,,,,,,,,,,,,FF,,,,,,,,0.717,,,,,,,,,,,,,,,,,,,,,,60fcfe8185c3d7634a14dea7,61036c1dd69236241ba01f37,2021-07-29_22h05.01.347,Simcolourproject_2stim_asymm_v5,2020.2.10,MacIntel,60,61025ae37ef11b136ea224fe,,,,,,,,,625,31,72,1,0,0,response1disk,,7,5,10,1,0,0,rectangle,5,10,1,0,0,5,10,1,0,0,0,126,126,68,1,,,,,,,,
,,,,,,,,,,,,,FF,,,,,,,,0.583,,,,,,,,,,,,,,,,,,,,,,60fcfe8185c3d7634a14dea7,61036c1dd69236241ba01f37,2021-07-29_22h05.01.347,Simcolourproject_2stim_asymm_v5,2020.2.10,MacIntel,60,61025ae37ef11b136ea224fe,,,,,,,,,1025,37,71,1,0,0,response1disk,,7,9,1,1,0,0,rectangle,9,1,1,0,0,9,1,1,0,0,0,127,127,32,1,,,,,,,,
,,,,,,,,,,,,,FF,,,,,,,,0.55,,,,,,,,,,,,,,,,,,,,,,60fcfe8185c3d7634a14dea7,61036c1dd69236241ba01f37,2021-07-29_22h05.01.347,Simcolourproject_2stim_asymm_v5,2020.2.10,MacIntel,60,61025ae37ef11b136ea224fe,,,,,,,,,1021,42,67,1,0,0,response1disk,,7,11,2,1,0,0,rectangle,11,2,1,0,0,11,2,1,0,0,0,128,128,74,1,,,,,,,,
,,,,,,,,,,,,,FF,,,,,,,,0.651,,,,,,,,,,,,,,,,,,,,,,60fcfe8185c3d7634a14dea7,61036c1dd69236241ba01f37,2021-07-29_22h05.01.347,Simcolourproject_2stim_asymm_v5,2020.2.10,MacIntel,60,61025ae37ef11b136ea224fe,,,,,,,,,62,37,65,1,0,0,response1disk,,7,10,14,1,0,0,rectangle,10,14,1,0,0,10,14,1,0,0,0,129,129,105,1,,,,,,,,
,,,,,,,,,,,,,FF,,,,,,,,0.55,,,,,,,,,,,,,,,,,,,,,,60fcfe8185c3d7634a14dea7,61036c1dd69236241ba01f37,2021-07-29_22h05.01.347,Simcolourproject_2stim_asymm_v5,2020.2.10,MacIntel,60,61025ae37ef11b136ea224fe,,,,,,,,,3027,49,87,1,0,0,response1disk,,7,2,-1,1,0,0,rectangle,2,-1,1,0,0,2,-1,1,0,0,0,130,130,144,1,,,,,,,,
,,,,,,,,,,,,,FF,,,,,,,,0.517,,,,,,,,,,,,,,,,,,,,,,60fcfe8185c3d7634a14dea7,61036c1dd69236241ba01f37,2021-07-29_22h05.01.347,Simcolourproject_2stim_asymm_v5,2020.2.10,MacIntel,60,61025ae37ef11b136ea224fe,,,,,,,,,24,31,53,1,0,0,response1disk,,7,0,-17,1,0,0,rectangle,0,-17,1,0,0,0,-17,1,0,0,0,131,131,58,1,,,,,,,,
,,,,,,,,,,,,,FF,,,,,,,,0.884,,,,,,,,,,,,,,,,,,,,,,60fcfe8185c3d7634a14dea7,61036c1dd69236241ba01f37,2021-07-29_22h05.01.347,Simcolourproject_2stim_asymm_v5,2020.2.10,MacIntel,60,61025ae37ef11b136ea224fe,,,,,,,,,4179,25,56,1,0,0,response1disk,,7,-7,-18,1,0,0,rectangle,-7,-18,1,0,0,-7,-18,1,0,0,0,132,132,30,1,,,,,,,,
,,,,,,,,,,,,,FF,,,,,,,,0.55,,,,,,,,,,,,,,,,,,,,,,60fcfe8185c3d7634a14dea7,61036c1dd69236241ba01f37,2021-07-29_22h05.01.347,Simcolourproject_2stim_asymm_v5,2020.2.10,MacIntel,60,61025ae37ef11b136ea224fe,,,,,,,,,1568,28,37,1,0,0,response1disk,,7,11,7,1,0,0,rectangle,11,7,1,0,0,11,7,1,0,0,0,133,133,138,1,,,,,,,,
,,,,,,,,,,,,,FF,,,,,,,,0.8,,,,,,,,,,,,,,,,,,,,,,60fcfe8185c3d7634a14dea7,61036c1dd69236241ba01f37,2021-07-29_22h05.01.347,Simcolourproject_2stim_asymm_v5,2020.2.10,MacIntel,60,61025ae37ef11b136ea224fe,,,,,,,,,261,-83,19,1,0,0,response7disk,,1,6,6,1,0,0,rectangle,6,6,1,0,0,6,6,1,0,0,0,134,134,87,1,,,,,,,,
,,,,,,,,,,,,,FF,,,,,,,,0.666,,,,,,,,,,,,,,,,,,,,,,60fcfe8185c3d7634a14dea7,61036c1dd69236241ba01f37,2021-07-29_22h05.01.347,Simcolourproject_2stim_asymm_v5,2020.2.10,MacIntel,60,61025ae37ef11b136ea224fe,,,,,,,,,2194,25,61,1,0,0,response1disk,,7,-2,9,1,0,0,rectangle,-2,9,1,0,0,-2,9,1,0,0,0,135,135,19,1,,,,,,,,
,,,,,,,,,,,,,FF,,,,,,,,0.684,,,,,,,,,,,,,,,,,,,,,,60fcfe8185c3d7634a14dea7,61036c1dd69236241ba01f37,2021-07-29_22h05.01.347,Simcolourproject_2stim_asymm_v5,2020.2.10,MacIntel,60,61025ae37ef11b136ea224fe,,,,,,,,,1910,35,72,1,0,0,response1disk,,7,8,9,1,0,0,rectangle,8,9,1,0,0,8,9,1,0,0,0,136,136,45,1,,,,,,,,
,,,,,,,,,,,,,FF,,,,,,,,0.717,,,,,,,,,,,,,,,,,,,,,,60fcfe8185c3d7634a14dea7,61036c1dd69236241ba01f37,2021-07-29_22h05.01.347,Simcolourproject_2stim_asymm_v5,2020.2.10,MacIntel,60,61025ae37ef11b136ea224fe,,,,,,,,,2215,44,76,1,0,0,response1disk,,7,7,-3,1,0,0,rectangle,7,-3,1,0,0,7,-3,1,0,0,0,137,137,51,1,,,,,,,,
,,,,,,,,,,,,,FF,,,,,,,,0.933,,,,,,,,,,,,,,,,,,,,,,60fcfe8185c3d7634a14dea7,61036c1dd69236241ba01f37,2021-07-29_22h05.01.347,Simcolourproject_2stim_asymm_v5,2020.2.10,MacIntel,60,61025ae37ef11b136ea224fe,,,,,,,,,2945,-66,30,1,0,0,response7disk,,1,22,-9,1,0,0,rectangle,22,-9,1,0,0,22,-9,1,0,0,0,138,138,40,1,,,,,,,,
,,,,,,,,,,,,,FF,,,,,,,,1.783,,,,,,,,,,,,,,,,,,,,,,60fcfe8185c3d7634a14dea7,61036c1dd69236241ba01f37,2021-07-29_22h05.01.347,Simcolourproject_2stim_asymm_v5,2020.2.10,MacIntel,60,61025ae37ef11b136ea224fe,,,,,,,,,153,55,34,1,0,0,response1disk,,6,9,8,1,0,0,rectangle,9,8,1,0,0,9,8,1,0,0,0,139,139,16,1,,,,,,,,
,,,,,,,,,,,,,FF,,,,,,,,2.6,,,,,,,,,,,,,,,,,,,,,,60fcfe8185c3d7634a14dea7,61036c1dd69236241ba01f37,2021-07-29_22h05.01.347,Simcolourproject_2stim_asymm_v5,2020.2.10,MacIntel,60,61025ae37ef11b136ea224fe,,,,,,,,,3533,46,-31,1,0,0,response3disk,,5,15,-6,1,0,0,rectangle,15,-6,1,0,0,15,-6,1,0,0,0,140,140,63,1,,,,,,,,
,,,,,,,,,,,,,FF,,,,,,,,0.867,,,,,,,,,,,,,,,,,,,,,,60fcfe8185c3d7634a14dea7,61036c1dd69236241ba01f37,2021-07-29_22h05.01.347,Simcolourproject_2stim_asymm_v5,2020.2.10,MacIntel,60,61025ae37ef11b136ea224fe,,,,,,,,,3846,-52,29,1,0,0,response7disk,,1,12,-6,1,0,0,rectangle,12,-6,1,0,0,12,-6,1,0,0,0,141,141,39,1,,,,,,,,
,,,,,,,,,,,,,FF,,,,,,,,0.917,,,,,,,,,,,,,,,,,,,,,,60fcfe8185c3d7634a14dea7,61036c1dd69236241ba01f37,2021-07-29_22h05.01.347,Simcolourproject_2stim_asymm_v5,2020.2.10,MacIntel,60,61025ae37ef11b136ea224fe,,,,,,,,,493,27,36,1,0,0,response1disk,,7,7,-6,1,0,0,rectangle,7,-6,1,0,0,7,-6,1,0,0,0,142,142,133,1,,,,,,,,
,,,,,,,,,,,,,FF,,,,,,,,0.717,,,,,,,,,,,,,,,,,,,,,,60fcfe8185c3d7634a14dea7,61036c1dd69236241ba01f37,2021-07-29_22h05.01.347,Simcolourproject_2stim_asymm_v5,2020.2.10,MacIntel,60,61025ae37ef11b136ea224fe,,,,,,,,,2274,25,50,1,0,0,response1disk,,7,8,6,1,0,0,rectangle,8,6,1,0,0,8,6,1,0,0,0,143,143,73,1,,,,,,,,
,,,,,,,,,,,,,FF,,,,,,,,1.067,,,,,,,,,,,,,,,,,,,,,,60fcfe8185c3d7634a14dea7,61036c1dd69236241ba01f37,2021-07-29_22h05.01.347,Simcolourproject_2stim_asymm_v5,2020.2.10,MacIntel,60,61025ae37ef11b136ea224fe,,,,,,,,,2604,-67,-39,1,0,0,response5disk,,2,8,9,1,0,0,rectangle,8,9,1,0,0,8,9,1,0,0,0,144,144,121,1,,,,,,,,
,,,,,,,,,,,,,FF,,,,,,,,0.75,,,,,,,,,,,,,,,,,,,,,,60fcfe8185c3d7634a14dea7,61036c1dd69236241ba01f37,2021-07-29_22h05.01.347,Simcolourproject_2stim_asymm_v5,2020.2.10,MacIntel,60,61025ae37ef11b136ea224fe,,,,,,,,,2337,21,55,1,0,0,response1disk,,7,3,6,1,0,0,rectangle,3,6,1,0,0,3,6,1,0,0,0,145,145,7,1,,,,,,,,
,,,,,,,,,,,,,FF,,,,,,,,1.767,,,,,,,,,,,,,,,,,,,,,,60fcfe8185c3d7634a14dea7,61036c1dd69236241ba01f37,2021-07-29_22h05.01.347,Simcolourproject_2stim_asymm_v5,2020.2.10,MacIntel,60,61025ae37ef11b136ea224fe,,,,,,,,,423,71,31,1,0,0,response1disk,,6,-3,-2,1,0,0,rectangle,-3,-2,1,0,0,-3,-2,1,0,0,0,146,146,66,1,,,,,,,,
,,,,,,,,,,,,,FF,,,,,,,,0.75,,,,,,,,,,,,,,,,,,,,,,60fcfe8185c3d7634a14dea7,61036c1dd69236241ba01f37,2021-07-29_22h05.01.347,Simcolourproject_2stim_asymm_v5,2020.2.10,MacIntel,60,61025ae37ef11b136ea224fe,,,,,,,,,4216,37,63,1,0,0,response1disk,,7,11,13,1,0,0,rectangle,11,13,1,0,0,11,13,1,0,0,0,147,147,132,1,,,,,,,,
,,,,,,,,,,,,,FF,,,,,,,,0.899,,,,,,,,,,,,,,,,,,,,,,60fcfe8185c3d7634a14dea7,61036c1dd69236241ba01f37,2021-07-29_22h05.01.347,Simcolourproject_2stim_asymm_v5,2020.2.10,MacIntel,60,61025ae37ef11b136ea224fe,,,,,,,,,3510,-85,45,1,0,0,response7disk,,1,4,2,1,0,0,rectangle,4,2,1,0,0,4,2,1,0,0,0,148,148,59,1,,,,,,,,
,,,,,,,,,,,,,FF,,,,,,,,5.267,,,,,,,,,,,,,,,,,,,,,,60fcfe8185c3d7634a14dea7,61036c1dd69236241ba01f37,2021-07-29_22h05.01.347,Simcolourproject_2stim_asymm_v5,2020.2.10,MacIntel,60,61025ae37ef11b136ea224fe,,,,,,,,,990,46,63,1,0,0,response1disk,,7,-12,1,1,0,0,rectangle,-12,1,1,0,0,-12,1,1,0,0,0,149,149,103,1,,,,,,,,
,,,,,,,,,,,,,FF,,,,,,,,0.85,,,,,,,,,,,,,,,,,,,,,,60fcfe8185c3d7634a14dea7,61036c1dd69236241ba01f37,2021-07-29_22h05.01.347,Simcolourproject_2stim_asymm_v5,2020.2.10,MacIntel,60,61025ae37ef11b136ea224fe,,,,,,,,,3783,-69,-33,1,0,0,response5disk,,2,-6,-10,1,0,0,rectangle,-6,-10,1,0,0,-6,-10,1,0,0,0,150,150,94,1,,,,,,,,
,,,,,,,,,,,,,FF,,,,,,,,0.733,,,,,,,,,,,,,,,,,,,,,,60fcfe8185c3d7634a14dea7,61036c1dd69236241ba01f37,2021-07-29_22h05.01.347,Simcolourproject_2stim_asymm_v5,2020.2.10,MacIntel,60,61025ae37ef11b136ea224fe,,,,,,,,,1724,17,55,1,0,0,response1disk,,7,-2,-16,1,0,0,rectangle,-2,-16,1,0,0,-2,-16,1,0,0,0,151,151,115,1,,,,,,,,
,,,,,,,,,,,,,FF,,,,,,,,0.801,,,,,,,,,,,,,,,,,,,,,,60fcfe8185c3d7634a14dea7,61036c1dd69236241ba01f37,2021-07-29_22h05.01.347,Simcolourproject_2stim_asymm_v5,2020.2.10,MacIntel,60,61025ae37ef11b136ea224fe,,,,,,,,,2537,26,62,1,0,0,response1disk,,7,13,16,1,0,0,rectangle,13,16,1,0,0,13,16,1,0,0,0,152,152,29,1,,,,,,,,
,,,,,,,,,,,,,FF,,,,,,,,2.283,,,,,,,,,,,,,,,,,,,,,,60fcfe8185c3d7634a14dea7,61036c1dd69236241ba01f37,2021-07-29_22h05.01.347,Simcolourproject_2stim_asymm_v5,2020.2.10,MacIntel,60,61025ae37ef11b136ea224fe,,,,,,,,,787,34,23,1,0,0,response1disk,,6,12,9,1,0,0,rectangle,12,9,1,0,0,12,9,1,0,0,0,153,153,6,1,,,,,,,,
,,,,,,,,,,,,,FF,,,,,,,,0.967,,,,,,,,,,,,,,,,,,,,,,60fcfe8185c3d7634a14dea7,61036c1dd69236241ba01f37,2021-07-29_22h05.01.347,Simcolourproject_2stim_asymm_v5,2020.2.10,MacIntel,60,61025ae37ef11b136ea224fe,,,,,,,,,2284,18,61,1,0,0,response1disk,,7,2,4,1,0,0,rectangle,2,4,1,0,0,2,4,1,0,0,0,154,154,31,1,,,,,,,,
,,,,,,,,,,,,,FF,,,,,,,,1.3,,,,,,,,,,,,,,,,,,,,,,60fcfe8185c3d7634a14dea7,61036c1dd69236241ba01f37,2021-07-29_22h05.01.347,Simcolourproject_2stim_asymm_v5,2020.2.10,MacIntel,60,61025ae37ef11b136ea224fe,,,,,,,,,3088,-43,-82,1,0,0,response5disk,,3,0,-5,1,0,0,rectangle,0,-5,1,0,0,0,-5,1,0,0,0,155,155,65,1,,,,,,,,
,,,,,,,,,,,,,FF,,,,,,,,0.916,,,,,,,,,,,,,,,,,,,,,,60fcfe8185c3d7634a14dea7,61036c1dd69236241ba01f37,2021-07-29_22h05.01.347,Simcolourproject_2stim_asymm_v5,2020.2.10,MacIntel,60,61025ae37ef11b136ea224fe,,,,,,,,,4343,-59,103,1,0,0,response7disk,,0,-11,5,1,0,0,rectangle,-11,5,1,0,0,-11,5,1,0,0,0,156,156,79,1,,,,,,,,
,,,,,,,,,,,,,FF,,,,,,,,0.901,,,,,,,,,,,,,,,,,,,,,,60fcfe8185c3d7634a14dea7,61036c1dd69236241ba01f37,2021-07-29_22h05.01.347,Simcolourproject_2stim_asymm_v5,2020.2.10,MacIntel,60,61025ae37ef11b136ea224fe,,,,,,,,,2490,27,67,1,0,0,response1disk,,7,7,1,1,0,0,rectangle,7,1,1,0,0,7,1,1,0,0,0,157,157,41,1,,,,,,,,
,,,,,,,,,,,,,FF,,,,,,,,0.683,,,,,,,,,,,,,,,,,,,,,,60fcfe8185c3d7634a14dea7,61036c1dd69236241ba01f37,2021-07-29_22h05.01.347,Simcolourproject_2stim_asymm_v5,2020.2.10,MacIntel,60,61025ae37ef11b136ea224fe,,,,,,,,,1557,28,65,1,0,0,response1disk,,7,10,6,1,0,0,rectangle,10,6,1,0,0,10,6,1,0,0,0,158,158,125,1,,,,,,,,
,,,,,,,,,,,,,FF,,,,,,,,0.618,,,,,,,,,,,,,,,,,,,,,,60fcfe8185c3d7634a14dea7,61036c1dd69236241ba01f37,2021-07-29_22h05.01.347,Simcolourproject_2stim_asymm_v5,2020.2.10,MacIntel,60,61025ae37ef11b136ea224fe,,,,,,,,,3655,32,67,1,0,0,response1disk,,7,8,3,1,0,0,rectangle,8,3,1,0,0,8,3,1,0,0,0,159,159,3,1,,,,,,,,
,,,,,,,,,,,,,FF,,,,,,,,1.284,,,,,,,,,,,,,,,,,,,,,,60fcfe8185c3d7634a14dea7,61036c1dd69236241ba01f37,2021-07-29_22h05.01.347,Simcolourproject_2stim_asymm_v5,2020.2.10,MacIntel,60,61025ae37ef11b136ea224fe,,,,,,,,,4156,24,44,1,0,0,response1disk,,7,4,-2,1,0,0,rectangle,4,-2,1,0,0,4,-2,1,0,0,1,0,160,134,1,,,,,,,,
,,,,,,,,,,,,,FF,,,,,,,,0.717,,,,,,,,,,,,,,,,,,,,,,60fcfe8185c3d7634a14dea7,61036c1dd69236241ba01f37,2021-07-29_22h05.01.347,Simcolourproject_2stim_asymm_v5,2020.2.10,MacIntel,60,61025ae37ef11b136ea224fe,,,,,,,,,1412,29,59,1,0,0,response1disk,,7,10,-2,1,0,0,rectangle,10,-2,1,0,0,10,-2,1,0,0,1,1,161,5,1,,,,,,,,
,,,,,,,,,,,,,FF,,,,,,,,0.567,,,,,,,,,,,,,,,,,,,,,,60fcfe8185c3d7634a14dea7,61036c1dd69236241ba01f37,2021-07-29_22h05.01.347,Simcolourproject_2stim_asymm_v5,2020.2.10,MacIntel,60,61025ae37ef11b136ea224fe,,,,,,,,,1049,40,60,1,0,0,response1disk,,7,13,-1,1,0,0,rectangle,13,-1,1,0,0,13,-1,1,0,0,1,2,162,25,1,,,,,,,,
,,,,,,,,,,,,,FF,,,,,,,,0.933,,,,,,,,,,,,,,,,,,,,,,60fcfe8185c3d7634a14dea7,61036c1dd69236241ba01f37,2021-07-29_22h05.01.347,Simcolourproject_2stim_asymm_v5,2020.2.10,MacIntel,60,61025ae37ef11b136ea224fe,,,,,,,,,3268,27,51,1,0,0,response1disk,,7,5,-5,1,0,0,rectangle,5,-5,1,0,0,5,-5,1,0,0,1,3,163,87,1,,,,,,,,
,,,,,,,,,,,,,FF,,,,,,,,0.634,,,,,,,,,,,,,,,,,,,,,,60fcfe8185c3d7634a14dea7,61036c1dd69236241ba01f37,2021-07-29_22h05.01.347,Simcolourproject_2stim_asymm_v5,2020.2.10,MacIntel,60,61025ae37ef11b136ea224fe,,,,,,,,,30,23,51,1,0,0,response1disk,,7,4,1,1,0,0,rectangle,4,1,1,0,0,4,1,1,0,0,1,4,164,1,1,,,,,,,,
,,,,,,,,,,,,,FF,,,,,,,,0.6,,,,,,,,,,,,,,,,,,,,,,60fcfe8185c3d7634a14dea7,61036c1dd69236241ba01f37,2021-07-29_22h05.01.347,Simcolourproject_2stim_asymm_v5,2020.2.10,MacIntel,60,61025ae37ef11b136ea224fe,,,,,,,,,3690,30,60,1,0,0,response1disk,,7,11,11,1,0,0,rectangle,11,11,1,0,0,11,11,1,0,0,1,5,165,62,1,,,,,,,,
,,,,,,,,,,,,,FF,,,,,,,,0.701,,,,,,,,,,,,,,,,,,,,,,60fcfe8185c3d7634a14dea7,61036c1dd69236241ba01f37,2021-07-29_22h05.01.347,Simcolourproject_2stim_asymm_v5,2020.2.10,MacIntel,60,61025ae37ef11b136ea224fe,,,,,,,,,755,31,67,1,0,0,response1disk,,7,4,1,1,0,0,rectangle,4,1,1,0,0,4,1,1,0,0,1,6,166,108,1,,,,,,,,
,,,,,,,,,,,,,FF,,,,,,,,0.7,,,,,,,,,,,,,,,,,,,,,,60fcfe8185c3d7634a14dea7,61036c1dd69236241ba01f37,2021-07-29_22h05.01.347,Simcolourproject_2stim_asymm_v5,2020.2.10,MacIntel,60,61025ae37ef11b136ea224fe,,,,,,,,,4276,24,52,1,0,0,response1disk,,7,9,-2,1,0,0,rectangle,9,-2,1,0,0,9,-2,1,0,0,1,7,167,132,1,,,,,,,,
,,,,,,,,,,,,,FF,,,,,,,,0.617,,,,,,,,,,,,,,,,,,,,,,60fcfe8185c3d7634a14dea7,61036c1dd69236241ba01f37,2021-07-29_22h05.01.347,Simcolourproject_2stim_asymm_v5,2020.2.10,MacIntel,60,61025ae37ef11b136ea224fe,,,,,,,,,2915,40,75,1,0,0,response1disk,,7,11,4,1,0,0,rectangle,11,4,1,0,0,11,4,1,0,0,1,8,168,102,1,,,,,,,,
,,,,,,,,,,,,,FF,,,,,,,,0.583,,,,,,,,,,,,,,,,,,,,,,60fcfe8185c3d7634a14dea7,61036c1dd69236241ba01f37,2021-07-29_22h05.01.347,Simcolourproject_2stim_asymm_v5,2020.2.10,MacIntel,60,61025ae37ef11b136ea224fe,,,,,,,,,1047,33,74,1,0,0,response1disk,,7,3,-2,1,0,0,rectangle,71,-35,1,0,0,12,-3,1,0,0,1,9,169,16,1,,response3disk_3,TRUE,5,5,"[60,91,248,7,18,267,95,287,21,99,107,11,57,170,50,26,92,79,214,176]",1.501,rectangle
,,,,,,,,,,,,,FF,,,,,,,,0.701,,,,,,,,,,,,,,,,,,,,,,60fcfe8185c3d7634a14dea7,61036c1dd69236241ba01f37,2021-07-29_22h05.01.347,Simcolourproject_2stim_asymm_v5,2020.2.10,MacIntel,60,61025ae37ef11b136ea224fe,,,,,,,,,2317,26,65,1,0,0,response1disk,,7,5,-6,1,0,0,rectangle,5,-6,1,0,0,5,-6,1,0,0,1,10,170,58,1,,,,,,,,
,,,,,,,,,,,,,FF,,,,,,,,1.466,,,,,,,,,,,,,,,,,,,,,,60fcfe8185c3d7634a14dea7,61036c1dd69236241ba01f37,2021-07-29_22h05.01.347,Simcolourproject_2stim_asymm_v5,2020.2.10,MacIntel,60,61025ae37ef11b136ea224fe,,,,,,,,,371,57,-41,1,0,0,response3disk,,5,9,-9,1,0,0,rectangle,9,-9,1,0,0,9,-9,1,0,0,1,11,171,34,1,,,,,,,,
,,,,,,,,,,,,,FF,,,,,,,,1.133,,,,,,,,,,,,,,,,,,,,,,60fcfe8185c3d7634a14dea7,61036c1dd69236241ba01f37,2021-07-29_22h05.01.347,Simcolourproject_2stim_asymm_v5,2020.2.10,MacIntel,60,61025ae37ef11b136ea224fe,,,,,,,,,4220,26,-70,1,0,0,response3disk,,4,8,-5,1,0,0,rectangle,8,-5,1,0,0,8,-5,1,0,0,1,12,172,117,1,,,,,,,,
,,,,,,,,,,,,,FF,,,,,,,,1.099,,,,,,,,,,,,,,,,,,,,,,60fcfe8185c3d7634a14dea7,61036c1dd69236241ba01f37,2021-07-29_22h05.01.347,Simcolourproject_2stim_asymm_v5,2020.2.10,MacIntel,60,61025ae37ef11b136ea224fe,,,,,,,,,2731,28,41,1,0,0,response1disk,,7,5,-2,1,0,0,rectangle,5,-2,1,0,0,5,-2,1,0,0,1,13,173,30,1,,,,,,,,
,,,,,,,,,,,,,FF,,,,,,,,1.1,,,,,,,,,,,,,,,,,,,,,,60fcfe8185c3d7634a14dea7,61036c1dd69236241ba01f37,2021-07-29_22h05.01.347,Simcolourproject_2stim_asymm_v5,2020.2.10,MacIntel,60,61025ae37ef11b136ea224fe,,,,,,,,,2249,49,27,1,0,0,response1disk,,6,12,2,1,0,0,rectangle,12,2,1,0,0,12,2,1,0,0,1,14,174,72,1,,,,,,,,
,,,,,,,,,,,,,FF,,,,,,,,0.817,,,,,,,,,,,,,,,,,,,,,,60fcfe8185c3d7634a14dea7,61036c1dd69236241ba01f37,2021-07-29_22h05.01.347,Simcolourproject_2stim_asymm_v5,2020.2.10,MacIntel,60,61025ae37ef11b136ea224fe,,,,,,,,,1002,24,47,1,0,0,response1disk,,7,6,-7,1,0,0,rectangle,-38,-67,1,0,0,4,-9,1,0,0,1,15,175,98,1,,response5disk_3,TRUE,3,3,"[60,91,248,7,18,267,95,287,21,99,107,11,57,170,50,26,92,79,214,176]",1.65,rectangle
,,,,,,,,,,,,,FF,,,,,,,,1.733,,,,,,,,,,,,,,,,,,,,,,60fcfe8185c3d7634a14dea7,61036c1dd69236241ba01f37,2021-07-29_22h05.01.347,Simcolourproject_2stim_asymm_v5,2020.2.10,MacIntel,60,61025ae37ef11b136ea224fe,,,,,,,,,1037,61,-34,1,0,0,response3disk,,5,17,-9,1,0,0,rectangle,17,-9,1,0,0,17,-9,1,0,0,1,16,176,96,1,,,,,,,,
,,,,,,,,,,,,,FF,,,,,,,,0.783,,,,,,,,,,,,,,,,,,,,,,60fcfe8185c3d7634a14dea7,61036c1dd69236241ba01f37,2021-07-29_22h05.01.347,Simcolourproject_2stim_asymm_v5,2020.2.10,MacIntel,60,61025ae37ef11b136ea224fe,,,,,,,,,1555,35,50,1,0,0,response1disk,,7,8,-2,1,0,0,rectangle,8,-2,1,0,0,8,-2,1,0,0,1,17,177,106,1,,,,,,,,
,,,,,,,,,,,,,FF,,,,,,,,1.4,,,,,,,,,,,,,,,,,,,,,,60fcfe8185c3d7634a14dea7,61036c1dd69236241ba01f37,2021-07-29_22h05.01.347,Simcolourproject_2stim_asymm_v5,2020.2.10,MacIntel,60,61025ae37ef11b136ea224fe,,,,,,,,,877,38,63,1,0,0,response1disk,,7,2,6,1,0,0,rectangle,2,6,1,0,0,2,6,1,0,0,1,18,178,104,1,,,,,,,,
,,,,,,,,,,,,,FF,,,,,,,,1.402,,,,,,,,,,,,,,,,,,,,,,60fcfe8185c3d7634a14dea7,61036c1dd69236241ba01f37,2021-07-29_22h05.01.347,Simcolourproject_2stim_asymm_v5,2020.2.10,MacIntel,60,61025ae37ef11b136ea224fe,,,,,,,,,3859,63,-37,1,0,0,response3disk,,5,15,0,1,0,0,rectangle,15,0,1,0,0,15,0,1,0,0,1,19,179,155,1,,,,,,,,
,,,,,,,,,,,,,FF,,,,,,,,1,,,,,,,,,,,,,,,,,,,,,,60fcfe8185c3d7634a14dea7,61036c1dd69236241ba01f37,2021-07-29_22h05.01.347,Simcolourproject_2stim_asymm_v5,2020.2.10,MacIntel,60,61025ae37ef11b136ea224fe,,,,,,,,,3121,39,66,1,0,0,response1disk,,7,8,-4,1,0,0,rectangle,8,-4,1,0,0,8,-4,1,0,0,1,20,180,11,1,,,,,,,,
,,,,,,,,,,,,,FF,,,,,,,,0.95,,,,,,,,,,,,,,,,,,,,,,60fcfe8185c3d7634a14dea7,61036c1dd69236241ba01f37,2021-07-29_22h05.01.347,Simcolourproject_2stim_asymm_v5,2020.2.10,MacIntel,60,61025ae37ef11b136ea224fe,,,,,,,,,3327,27,68,1,0,0,response1disk,,7,9,4,1,0,0,rectangle,9,4,1,0,0,9,4,1,0,0,1,21,181,7,1,,,,,,,,
,,,,,,,,,,,,,FF,,,,,,,,0.767,,,,,,,,,,,,,,,,,,,,,,60fcfe8185c3d7634a14dea7,61036c1dd69236241ba01f37,2021-07-29_22h05.01.347,Simcolourproject_2stim_asymm_v5,2020.2.10,MacIntel,60,61025ae37ef11b136ea224fe,,,,,,,,,275,23,62,1,0,0,response1disk,,7,5,1,1,0,0,rectangle,5,1,1,0,0,5,1,1,0,0,1,22,182,113,1,,,,,,,,
,,,,,,,,,,,,,FF,,,,,,,,0.551,,,,,,,,,,,,,,,,,,,,,,60fcfe8185c3d7634a14dea7,61036c1dd69236241ba01f37,2021-07-29_22h05.01.347,Simcolourproject_2stim_asymm_v5,2020.2.10,MacIntel,60,61025ae37ef11b136ea224fe,,,,,,,,,3232,32,69,1,0,0,response1disk,,7,5,-3,1,0,0,rectangle,5,-3,1,0,0,5,-3,1,0,0,1,23,183,139,1,,,,,,,,
,,,,,,,,,,,,,FF,,,,,,,,0.616,,,,,,,,,,,,,,,,,,,,,,60fcfe8185c3d7634a14dea7,61036c1dd69236241ba01f37,2021-07-29_22h05.01.347,Simcolourproject_2stim_asymm_v5,2020.2.10,MacIntel,60,61025ae37ef11b136ea224fe,,,,,,,,,1122,29,65,1,0,0,response1disk,,7,6,9,1,0,0,rectangle,6,9,1,0,0,6,9,1,0,0,1,24,184,54,1,,,,,,,,
,,,,,,,,,,,,,FF,,,,,,,,0.55,,,,,,,,,,,,,,,,,,,,,,60fcfe8185c3d7634a14dea7,61036c1dd69236241ba01f37,2021-07-29_22h05.01.347,Simcolourproject_2stim_asymm_v5,2020.2.10,MacIntel,60,61025ae37ef11b136ea224fe,,,,,,,,,1111,31,86,1,0,0,response1disk,,7,4,-1,1,0,0,rectangle,4,-1,1,0,0,4,-1,1,0,0,1,25,185,44,1,,,,,,,,
,,,,,,,,,,,,,FF,,,,,,,,1.251,,,,,,,,,,,,,,,,,,,,,,60fcfe8185c3d7634a14dea7,61036c1dd69236241ba01f37,2021-07-29_22h05.01.347,Simcolourproject_2stim_asymm_v5,2020.2.10,MacIntel,60,61025ae37ef11b136ea224fe,,,,,,,,,1673,25,-71,1,0,0,response3disk,,4,6,0,1,0,0,rectangle,6,0,1,0,0,6,0,1,0,0,1,26,186,2,1,,,,,,,,
,,,,,,,,,,,,,FF,,,,,,,,0.651,,,,,,,,,,,,,,,,,,,,,,60fcfe8185c3d7634a14dea7,61036c1dd69236241ba01f37,2021-07-29_22h05.01.347,Simcolourproject_2stim_asymm_v5,2020.2.10,MacIntel,60,61025ae37ef11b136ea224fe,,,,,,,,,1481,24,72,1,0,0,response1disk,,7,3,-4,1,0,0,rectangle,3,-4,1,0,0,3,-4,1,0,0,1,27,187,27,1,,,,,,,,
,,,,,,,,,,,,,FF,,,,,,,,0.866,,,,,,,,,,,,,,,,,,,,,,60fcfe8185c3d7634a14dea7,61036c1dd69236241ba01f37,2021-07-29_22h05.01.347,Simcolourproject_2stim_asymm_v5,2020.2.10,MacIntel,60,61025ae37ef11b136ea224fe,,,,,,,,,3436,-20,-79,1,0,0,response5disk,,3,4,2,1,0,0,rectangle,4,2,1,0,0,4,2,1,0,0,1,28,188,97,1,,,,,,,,
,,,,,,,,,,,,,FF,,,,,,,,1.567,,,,,,,,,,,,,,,,,,,,,,60fcfe8185c3d7634a14dea7,61036c1dd69236241ba01f37,2021-07-29_22h05.01.347,Simcolourproject_2stim_asymm_v5,2020.2.10,MacIntel,60,61025ae37ef11b136ea224fe,,,,,,,,,4237,-70,-30,1,0,0,response5disk,,2,-5,-1,1,0,0,rectangle,-5,-1,1,0,0,-5,-1,1,0,0,1,29,189,26,1,,,,,,,,
,,,,,,,,,,,,,FF,,,,,,,,0.716,,,,,,,,,,,,,,,,,,,,,,60fcfe8185c3d7634a14dea7,61036c1dd69236241ba01f37,2021-07-29_22h05.01.347,Simcolourproject_2stim_asymm_v5,2020.2.10,MacIntel,60,61025ae37ef11b136ea224fe,,,,,,,,,2114,21,66,1,0,0,response1disk,,7,0,-7,1,0,0,rectangle,0,-7,1,0,0,0,-7,1,0,0,1,30,190,159,1,,,,,,,,
,,,,,,,,,,,,,FF,,,,,,,,1.483,,,,,,,,,,,,,,,,,,,,,,60fcfe8185c3d7634a14dea7,61036c1dd69236241ba01f37,2021-07-29_22h05.01.347,Simcolourproject_2stim_asymm_v5,2020.2.10,MacIntel,60,61025ae37ef11b136ea224fe,,,,,,,,,3520,-34,-83,1,0,0,response5disk,,3,7,6,1,0,0,rectangle,7,6,1,0,0,7,6,1,0,0,1,31,191,136,1,,,,,,,,
,,,,,,,,,,,,,FF,,,,,,,,0.683,,,,,,,,,,,,,,,,,,,,,,60fcfe8185c3d7634a14dea7,61036c1dd69236241ba01f37,2021-07-29_22h05.01.347,Simcolourproject_2stim_asymm_v5,2020.2.10,MacIntel,60,61025ae37ef11b136ea224fe,,,,,,,,,2822,27,54,1,0,0,response1disk,,7,8,6,1,0,0,rectangle,8,6,1,0,0,8,6,1,0,0,1,32,192,154,1,,,,,,,,
,,,,,,,,,,,,,FF,,,,,,,,0.667,,,,,,,,,,,,,,,,,,,,,,60fcfe8185c3d7634a14dea7,61036c1dd69236241ba01f37,2021-07-29_22h05.01.347,Simcolourproject_2stim_asymm_v5,2020.2.10,MacIntel,60,61025ae37ef11b136ea224fe,,,,,,,,,91,31,61,1,0,0,response1disk,,7,4,-1,1,0,0,rectangle,4,-1,1,0,0,4,-1,1,0,0,1,33,193,22,1,,,,,,,,
,,,,,,,,,,,,,FF,,,,,,,,0.6,,,,,,,,,,,,,,,,,,,,,,60fcfe8185c3d7634a14dea7,61036c1dd69236241ba01f37,2021-07-29_22h05.01.347,Simcolourproject_2stim_asymm_v5,2020.2.10,MacIntel,60,61025ae37ef11b136ea224fe,,,,,,,,,1508,28,60,1,0,0,response1disk,,7,3,-3,1,0,0,rectangle,3,-3,1,0,0,3,-3,1,0,0,1,34,194,3,1,,,,,,,,
,,,,,,,,,,,,,FF,,,,,,,,0.6,,,,,,,,,,,,,,,,,,,,,,60fcfe8185c3d7634a14dea7,61036c1dd69236241ba01f37,2021-07-29_22h05.01.347,Simcolourproject_2stim_asymm_v5,2020.2.10,MacIntel,60,61025ae37ef11b136ea224fe,,,,,,,,,2982,28,71,1,0,0,response1disk,,7,3,6,1,0,0,rectangle,3,6,1,0,0,3,6,1,0,0,1,35,195,88,1,,,,,,,,
,,,,,,,,,,,,,FF,,,,,,,,0.983,,,,,,,,,,,,,,,,,,,,,,60fcfe8185c3d7634a14dea7,61036c1dd69236241ba01f37,2021-07-29_22h05.01.347,Simcolourproject_2stim_asymm_v5,2020.2.10,MacIntel,60,61025ae37ef11b136ea224fe,,,,,,,,,2327,33,74,1,0,0,response1disk,,7,-1,4,1,0,0,rectangle,-1,4,1,0,0,-1,4,1,0,0,1,36,196,142,1,,,,,,,,
,,,,,,,,,,,,,FF,,,,,,,,0.65,,,,,,,,,,,,,,,,,,,,,,60fcfe8185c3d7634a14dea7,61036c1dd69236241ba01f37,2021-07-29_22h05.01.347,Simcolourproject_2stim_asymm_v5,2020.2.10,MacIntel,60,61025ae37ef11b136ea224fe,,,,,,,,,2392,28,63,1,0,0,response1disk,,7,2,-1,1,0,0,rectangle,2,-1,1,0,0,2,-1,1,0,0,1,37,197,100,1,,,,,,,,
,,,,,,,,,,,,,FF,,,,,,,,0.9,,,,,,,,,,,,,,,,,,,,,,60fcfe8185c3d7634a14dea7,61036c1dd69236241ba01f37,2021-07-29_22h05.01.347,Simcolourproject_2stim_asymm_v5,2020.2.10,MacIntel,60,61025ae37ef11b136ea224fe,,,,,,,,,3716,-30,-74,1,0,0,response5disk,,3,-4,-7,1,0,0,rectangle,-4,-7,1,0,0,-4,-7,1,0,0,1,38,198,138,1,,,,,,,,
,,,,,,,,,,,,,FF,,,,,,,,0.649,,,,,,,,,,,,,,,,,,,,,,60fcfe8185c3d7634a14dea7,61036c1dd69236241ba01f37,2021-07-29_22h05.01.347,Simcolourproject_2stim_asymm_v5,2020.2.10,MacIntel,60,61025ae37ef11b136ea224fe,,,,,,,,,2064,26,73,1,0,0,response1disk,,7,4,10,1,0,0,rectangle,4,10,1,0,0,4,10,1,0,0,1,39,199,41,1,,,,,,,,
,,,,,,,,,,,,,FF,,,,,,,,1.118,,,,,,,,,,,,,,,,,,,,,,60fcfe8185c3d7634a14dea7,61036c1dd69236241ba01f37,2021-07-29_22h05.01.347,Simcolourproject_2stim_asymm_v5,2020.2.10,MacIntel,60,61025ae37ef11b136ea224fe,,,,,,,,,295,31,71,1,0,0,response1disk,,7,4,3,1,0,0,rectangle,4,3,1,0,0,4,3,1,0,0,1,40,200,75,1,,,,,,,,
,,,,,,,,,,,,,FF,,,,,,,,0.551,,,,,,,,,,,,,,,,,,,,,,60fcfe8185c3d7634a14dea7,61036c1dd69236241ba01f37,2021-07-29_22h05.01.347,Simcolourproject_2stim_asymm_v5,2020.2.10,MacIntel,60,61025ae37ef11b136ea224fe,,,,,,,,,2588,34,70,1,0,0,response1disk,,7,8,1,1,0,0,rectangle,8,1,1,0,0,8,1,1,0,0,1,41,201,9,1,,,,,,,,
,,,,,,,,,,,,,FF,,,,,,,,0.717,,,,,,,,,,,,,,,,,,,,,,60fcfe8185c3d7634a14dea7,61036c1dd69236241ba01f37,2021-07-29_22h05.01.347,Simcolourproject_2stim_asymm_v5,2020.2.10,MacIntel,60,61025ae37ef11b136ea224fe,,,,,,,,,3614,29,70,1,0,0,response1disk,,7,4,4,1,0,0,rectangle,4,4,1,0,0,4,4,1,0,0,1,42,202,67,1,,,,,,,,
,,,,,,,,,,,,,FF,,,,,,,,0.834,,,,,,,,,,,,,,,,,,,,,,60fcfe8185c3d7634a14dea7,61036c1dd69236241ba01f37,2021-07-29_22h05.01.347,Simcolourproject_2stim_asymm_v5,2020.2.10,MacIntel,60,61025ae37ef11b136ea224fe,,,,,,,,,3434,-65,34,1,0,0,response7disk,,1,-2,-1,1,0,0,rectangle,-2,-1,1,0,0,-2,-1,1,0,0,1,43,203,14,1,,,,,,,,
,,,,,,,,,,,,,FF,,,,,,,,1.2,,,,,,,,,,,,,,,,,,,,,,60fcfe8185c3d7634a14dea7,61036c1dd69236241ba01f37,2021-07-29_22h05.01.347,Simcolourproject_2stim_asymm_v5,2020.2.10,MacIntel,60,61025ae37ef11b136ea224fe,,,,,,,,,3535,69,30,1,0,0,response1disk,,6,3,6,1,0,0,rectangle,3,6,1,0,0,3,6,1,0,0,1,44,204,125,1,,,,,,,,
,,,,,,,,,,,,,FF,,,,,,,,1.067,,,,,,,,,,,,,,,,,,,,,,60fcfe8185c3d7634a14dea7,61036c1dd69236241ba01f37,2021-07-29_22h05.01.347,Simcolourproject_2stim_asymm_v5,2020.2.10,MacIntel,60,61025ae37ef11b136ea224fe,,,,,,,,,4100,60,-27,1,0,0,response3disk,,5,11,-9,1,0,0,rectangle,11,-9,1,0,0,11,-9,1,0,0,1,45,205,15,1,,,,,,,,
,,,,,,,,,,,,,FF,,,,,,,,0.634,,,,,,,,,,,,,,,,,,,,,,60fcfe8185c3d7634a14dea7,61036c1dd69236241ba01f37,2021-07-29_22h05.01.347,Simcolourproject_2stim_asymm_v5,2020.2.10,MacIntel,60,61025ae37ef11b136ea224fe,,,,,,,,,1332,45,80,1,0,0,response1disk,,7,2,2,1,0,0,rectangle,2,2,1,0,0,2,2,1,0,0,1,46,206,144,1,,,,,,,,
,,,,,,,,,,,,,FF,,,,,,,,0.951,,,,,,,,,,,,,,,,,,,,,,60fcfe8185c3d7634a14dea7,61036c1dd69236241ba01f37,2021-07-29_22h05.01.347,Simcolourproject_2stim_asymm_v5,2020.2.10,MacIntel,60,61025ae37ef11b136ea224fe,,,,,,,,,4251,-54,16,1,0,0,response7disk,,1,-23,5,1,0,0,rectangle,-23,5,1,0,0,-23,5,1,0,0,1,47,207,66,1,,,,,,,,
,,,,,,,,,,,,,FF,,,,,,,,1.166,,,,,,,,,,,,,,,,,,,,,,60fcfe8185c3d7634a14dea7,61036c1dd69236241ba01f37,2021-07-29_22h05.01.347,Simcolourproject_2stim_asymm_v5,2020.2.10,MacIntel,60,61025ae37ef11b136ea224fe,,,,,,,,,3295,-33,-102,1,0,0,response5disk,,3,6,-2,1,0,0,rectangle,6,-2,1,0,0,6,-2,1,0,0,1,48,208,21,1,,,,,,,,
,,,,,,,,,,,,,FF,,,,,,,,0.835,,,,,,,,,,,,,,,,,,,,,,60fcfe8185c3d7634a14dea7,61036c1dd69236241ba01f37,2021-07-29_22h05.01.347,Simcolourproject_2stim_asymm_v5,2020.2.10,MacIntel,60,61025ae37ef11b136ea224fe,,,,,,,,,3607,31,54,1,0,0,response1disk,,7,3,10,1,0,0,rectangle,3,10,1,0,0,3,10,1,0,0,1,49,209,127,1,,,,,,,,
,,,,,,,,,,,,,FF,,,,,,,,1.067,,,,,,,,,,,,,,,,,,,,,,60fcfe8185c3d7634a14dea7,61036c1dd69236241ba01f37,2021-07-29_22h05.01.347,Simcolourproject_2stim_asymm_v5,2020.2.10,MacIntel,60,61025ae37ef11b136ea224fe,,,,,,,,,3999,38,-54,1,0,0,response3disk,,4,3,8,1,0,0,rectangle,3,8,1,0,0,3,8,1,0,0,1,50,210,29,1,,,,,,,,
,,,,,,,,,,,,,FF,,,,,,,,1.301,,,,,,,,,,,,,,,,,,,,,,60fcfe8185c3d7634a14dea7,61036c1dd69236241ba01f37,2021-07-29_22h05.01.347,Simcolourproject_2stim_asymm_v5,2020.2.10,MacIntel,60,61025ae37ef11b136ea224fe,,,,,,,,,3845,-30,-83,1,0,0,response5disk,,3,-3,-9,1,0,0,rectangle,-3,-9,1,0,0,-3,-9,1,0,0,1,51,211,23,1,,,,,,,,
,,,,,,,,,,,,,FF,,,,,,,,0.683,,,,,,,,,,,,,,,,,,,,,,60fcfe8185c3d7634a14dea7,61036c1dd69236241ba01f37,2021-07-29_22h05.01.347,Simcolourproject_2stim_asymm_v5,2020.2.10,MacIntel,60,61025ae37ef11b136ea224fe,,,,,,,,,3324,24,58,1,0,0,response1disk,,7,-5,4,1,0,0,rectangle,-5,4,1,0,0,-5,4,1,0,0,1,52,212,120,1,,,,,,,,
,,,,,,,,,,,,,FF,,,,,,,,0.7,,,,,,,,,,,,,,,,,,,,,,60fcfe8185c3d7634a14dea7,61036c1dd69236241ba01f37,2021-07-29_22h05.01.347,Simcolourproject_2stim_asymm_v5,2020.2.10,MacIntel,60,61025ae37ef11b136ea224fe,,,,,,,,,2390,30,72,1,0,0,response1disk,,7,1,1,1,0,0,rectangle,33,-85,1,0,0,5,4,1,0,0,1,53,213,79,1,,response3disk_3,TRUE,4,4,"[60,91,248,7,18,267,95,287,21,99,107,11,57,170,50,26,92,79,214,176]",1.518,rectangle
,,,,,,,,,,,,,FF,,,,,,,,0.683,,,,,,,,,,,,,,,,,,,,,,60fcfe8185c3d7634a14dea7,61036c1dd69236241ba01f37,2021-07-29_22h05.01.347,Simcolourproject_2stim_asymm_v5,2020.2.10,MacIntel,60,61025ae37ef11b136ea224fe,,,,,,,,,2265,27,68,1,0,0,response1disk,,7,4,-4,1,0,0,rectangle,4,-4,1,0,0,4,-4,1,0,0,1,54,214,0,1,,,,,,,,
,,,,,,,,,,,,,FF,,,,,,,,0.616,,,,,,,,,,,,,,,,,,,,,,60fcfe8185c3d7634a14dea7,61036c1dd69236241ba01f37,2021-07-29_22h05.01.347,Simcolourproject_2stim_asymm_v5,2020.2.10,MacIntel,60,61025ae37ef11b136ea224fe,,,,,,,,,2224,23,70,1,0,0,response1disk,,7,-1,6,1,0,0,rectangle,-1,6,1,0,0,-1,6,1,0,0,1,55,215,131,1,,,,,,,,
,,,,,,,,,,,,,FF,,,,,,,,0.618,,,,,,,,,,,,,,,,,,,,,,60fcfe8185c3d7634a14dea7,61036c1dd69236241ba01f37,2021-07-29_22h05.01.347,Simcolourproject_2stim_asymm_v5,2020.2.10,MacIntel,60,61025ae37ef11b136ea224fe,,,,,,,,,2850,28,60,1,0,0,response1disk,,7,2,-4,1,0,0,rectangle,2,-4,1,0,0,2,-4,1,0,0,1,56,216,148,1,,,,,,,,
,,,,,,,,,,,,,FF,,,,,,,,0.65,,,,,,,,,,,,,,,,,,,,,,60fcfe8185c3d7634a14dea7,61036c1dd69236241ba01f37,2021-07-29_22h05.01.347,Simcolourproject_2stim_asymm_v5,2020.2.10,MacIntel,60,61025ae37ef11b136ea224fe,,,,,,,,,285,27,62,1,0,0,response1disk,,7,11,5,1,0,0,rectangle,11,5,1,0,0,11,5,1,0,0,1,57,217,126,1,,,,,,,,
,,,,,,,,,,,,,FF,,,,,,,,2.15,,,,,,,,,,,,,,,,,,,,,,60fcfe8185c3d7634a14dea7,61036c1dd69236241ba01f37,2021-07-29_22h05.01.347,Simcolourproject_2stim_asymm_v5,2020.2.10,MacIntel,60,61025ae37ef11b136ea224fe,,,,,,,,,3251,-72,-55,1,0,0,response5disk,,2,6,13,1,0,0,rectangle,6,13,1,0,0,6,13,1,0,0,1,58,218,151,1,,,,,,,,
,,,,,,,,,,,,,FF,,,,,,,,2.033,,,,,,,,,,,,,,,,,,,,,,60fcfe8185c3d7634a14dea7,61036c1dd69236241ba01f37,2021-07-29_22h05.01.347,Simcolourproject_2stim_asymm_v5,2020.2.10,MacIntel,60,61025ae37ef11b136ea224fe,,,,,,,,,2242,59,30,1,0,0,response1disk,,6,-5,0,1,0,0,rectangle,-5,0,1,0,0,-5,0,1,0,0,1,59,219,90,1,,,,,,,,
,,,,,,,,,,,,,FF,,,,,,,,0.684,,,,,,,,,,,,,,,,,,,,,,60fcfe8185c3d7634a14dea7,61036c1dd69236241ba01f37,2021-07-29_22h05.01.347,Simcolourproject_2stim_asymm_v5,2020.2.10,MacIntel,60,61025ae37ef11b136ea224fe,,,,,,,,,4278,39,81,1,0,0,response1disk,,7,3,7,1,0,0,rectangle,3,7,1,0,0,3,7,1,0,0,1,60,220,89,1,,,,,,,,
,,,,,,,,,,,,,FF,,,,,,,,1.5,,,,,,,,,,,,,,,,,,,,,,60fcfe8185c3d7634a14dea7,61036c1dd69236241ba01f37,2021-07-29_22h05.01.347,Simcolourproject_2stim_asymm_v5,2020.2.10,MacIntel,60,61025ae37ef11b136ea224fe,,,,,,,,,599,59,33,1,0,0,response1disk,,6,8,7,1,0,0,rectangle,8,7,1,0,0,8,7,1,0,0,1,61,221,83,1,,,,,,,,
,,,,,,,,,,,,,FF,,,,,,,,1.051,,,,,,,,,,,,,,,,,,,,,,60fcfe8185c3d7634a14dea7,61036c1dd69236241ba01f37,2021-07-29_22h05.01.347,Simcolourproject_2stim_asymm_v5,2020.2.10,MacIntel,60,61025ae37ef11b136ea224fe,,,,,,,,,1389,48,33,1,0,0,response1disk,,6,9,10,1,0,0,rectangle,9,10,1,0,0,9,10,1,0,0,1,62,222,28,1,,,,,,,,
,,,,,,,,,,,,,FF,,,,,,,,1.617,,,,,,,,,,,,,,,,,,,,,,60fcfe8185c3d7634a14dea7,61036c1dd69236241ba01f37,2021-07-29_22h05.01.347,Simcolourproject_2stim_asymm_v5,2020.2.10,MacIntel,60,61025ae37ef11b136ea224fe,,,,,,,,,3064,40,-25,1,0,0,response3disk,,5,2,-5,1,0,0,rectangle,2,-5,1,0,0,2,-5,1,0,0,1,63,223,153,1,,,,,,,,
,,,,,,,,,,,,,FF,,,,,,,,0.75,,,,,,,,,,,,,,,,,,,,,,60fcfe8185c3d7634a14dea7,61036c1dd69236241ba01f37,2021-07-29_22h05.01.347,Simcolourproject_2stim_asymm_v5,2020.2.10,MacIntel,60,61025ae37ef11b136ea224fe,,,,,,,,,2463,30,75,1,0,0,response1disk,,7,-6,1,1,0,0,rectangle,-6,1,1,0,0,-6,1,1,0,0,1,64,224,92,1,,,,,,,,
,,,,,,,,,,,,,FF,,,,,,,,1.767,,,,,,,,,,,,,,,,,,,,,,60fcfe8185c3d7634a14dea7,61036c1dd69236241ba01f37,2021-07-29_22h05.01.347,Simcolourproject_2stim_asymm_v5,2020.2.10,MacIntel,60,61025ae37ef11b136ea224fe,,,,,,,,,1618,-56,-28,1,0,0,response5disk,,2,1,10,1,0,0,rectangle,1,10,1,0,0,1,10,1,0,0,1,65,225,46,1,,,,,,,,
,,,,,,,,,,,,,FF,,,,,,,,1.65,,,,,,,,,,,,,,,,,,,,,,60fcfe8185c3d7634a14dea7,61036c1dd69236241ba01f37,2021-07-29_22h05.01.347,Simcolourproject_2stim_asymm_v5,2020.2.10,MacIntel,60,61025ae37ef11b136ea224fe,,,,,,,,,735,50,-33,1,0,0,response3disk,,5,-8,0,1,0,0,rectangle,-8,0,1,0,0,-8,0,1,0,0,1,66,226,61,1,,,,,,,,
,,,,,,,,,,,,,FF,,,,,,,,0.766,,,,,,,,,,,,,,,,,,,,,,60fcfe8185c3d7634a14dea7,61036c1dd69236241ba01f37,2021-07-29_22h05.01.347,Simcolourproject_2stim_asymm_v5,2020.2.10,MacIntel,60,61025ae37ef11b136ea224fe,,,,,,,,,2016,32,66,1,0,0,response1disk,,7,5,-8,1,0,0,rectangle,5,-8,1,0,0,5,-8,1,0,0,1,67,227,42,1,,,,,,,,
,,,,,,,,,,,,,FF,,,,,,,,0.85,,,,,,,,,,,,,,,,,,,,,,60fcfe8185c3d7634a14dea7,61036c1dd69236241ba01f37,2021-07-29_22h05.01.347,Simcolourproject_2stim_asymm_v5,2020.2.10,MacIntel,60,61025ae37ef11b136ea224fe,,,,,,,,,231,32,45,1,0,0,response1disk,,7,0,-9,1,0,0,rectangle,0,-9,1,0,0,0,-9,1,0,0,1,68,228,57,1,,,,,,,,
,,,,,,,,,,,,,FF,,,,,,,,1.333,,,,,,,,,,,,,,,,,,,,,,60fcfe8185c3d7634a14dea7,61036c1dd69236241ba01f37,2021-07-29_22h05.01.347,Simcolourproject_2stim_asymm_v5,2020.2.10,MacIntel,60,61025ae37ef11b136ea224fe,,,,,,,,,419,49,30,1,0,0,response1disk,,6,2,7,1,0,0,rectangle,2,7,1,0,0,2,7,1,0,0,1,69,229,133,1,,,,,,,,
,,,,,,,,,,,,,FF,,,,,,,,1.016,,,,,,,,,,,,,,,,,,,,,,60fcfe8185c3d7634a14dea7,61036c1dd69236241ba01f37,2021-07-29_22h05.01.347,Simcolourproject_2stim_asymm_v5,2020.2.10,MacIntel,60,61025ae37ef11b136ea224fe,,,,,,,,,1434,58,26,1,0,0,response1disk,,6,11,10,1,0,0,rectangle,11,10,1,0,0,11,10,1,0,0,1,70,230,128,1,,,,,,,,
,,,,,,,,,,,,,FF,,,,,,,,1.284,,,,,,,,,,,,,,,,,,,,,,60fcfe8185c3d7634a14dea7,61036c1dd69236241ba01f37,2021-07-29_22h05.01.347,Simcolourproject_2stim_asymm_v5,2020.2.10,MacIntel,60,61025ae37ef11b136ea224fe,,,,,,,,,4169,-61,-48,1,0,0,response5disk,,2,-7,-6,1,0,0,rectangle,-7,-6,1,0,0,-7,-6,1,0,0,1,71,231,114,1,,,,,,,,
,,,,,,,,,,,,,FF,,,,,,,,1.3,,,,,,,,,,,,,,,,,,,,,,60fcfe8185c3d7634a14dea7,61036c1dd69236241ba01f37,2021-07-29_22h05.01.347,Simcolourproject_2stim_asymm_v5,2020.2.10,MacIntel,60,61025ae37ef11b136ea224fe,,,,,,,,,390,55,32,1,0,0,response1disk,,6,10,4,1,0,0,rectangle,10,4,1,0,0,10,4,1,0,0,1,72,232,85,1,,,,,,,,
,,,,,,,,,,,,,FF,,,,,,,,1.249,,,,,,,,,,,,,,,,,,,,,,60fcfe8185c3d7634a14dea7,61036c1dd69236241ba01f37,2021-07-29_22h05.01.347,Simcolourproject_2stim_asymm_v5,2020.2.10,MacIntel,60,61025ae37ef11b136ea224fe,,,,,,,,,3423,-29,-66,1,0,0,response5disk,,3,6,-8,1,0,0,rectangle,6,-8,1,0,0,6,-8,1,0,0,1,73,233,81,1,,,,,,,,
,,,,,,,,,,,,,FF,,,,,,,,0.799,,,,,,,,,,,,,,,,,,,,,,60fcfe8185c3d7634a14dea7,61036c1dd69236241ba01f37,2021-07-29_22h05.01.347,Simcolourproject_2stim_asymm_v5,2020.2.10,MacIntel,60,61025ae37ef11b136ea224fe,,,,,,,,,3667,31,74,1,0,0,response1disk,,7,5,7,1,0,0,rectangle,5,7,1,0,0,5,7,1,0,0,1,74,234,63,1,,,,,,,,
,,,,,,,,,,,,,FF,,,,,,,,0.801,,,,,,,,,,,,,,,,,,,,,,60fcfe8185c3d7634a14dea7,61036c1dd69236241ba01f37,2021-07-29_22h05.01.347,Simcolourproject_2stim_asymm_v5,2020.2.10,MacIntel,60,61025ae37ef11b136ea224fe,,,,,,,,,1322,32,53,1,0,0,response1disk,,7,2,-7,1,0,0,rectangle,2,-7,1,0,0,2,-7,1,0,0,1,75,235,76,1,,,,,,,,
,,,,,,,,,,,,,FF,,,,,,,,1.25,,,,,,,,,,,,,,,,,,,,,,60fcfe8185c3d7634a14dea7,61036c1dd69236241ba01f37,2021-07-29_22h05.01.347,Simcolourproject_2stim_asymm_v5,2020.2.10,MacIntel,60,61025ae37ef11b136ea224fe,,,,,,,,,2107,-32,-68,1,0,0,response5disk,,3,2,0,1,0,0,rectangle,2,0,1,0,0,2,0,1,0,0,1,76,236,52,1,,,,,,,,
,,,,,,,,,,,,,FF,,,,,,,,1.483,,,,,,,,,,,,,,,,,,,,,,60fcfe8185c3d7634a14dea7,61036c1dd69236241ba01f37,2021-07-29_22h05.01.347,Simcolourproject_2stim_asymm_v5,2020.2.10,MacIntel,60,61025ae37ef11b136ea224fe,,,,,,,,,2622,37,23,1,0,0,response1disk,,6,-1,-4,1,0,0,rectangle,-1,-4,1,0,0,-1,-4,1,0,0,1,77,237,20,1,,,,,,,,
,,,,,,,,,,,,,FF,,,,,,,,0.983,,,,,,,,,,,,,,,,,,,,,,60fcfe8185c3d7634a14dea7,61036c1dd69236241ba01f37,2021-07-29_22h05.01.347,Simcolourproject_2stim_asymm_v5,2020.2.10,MacIntel,60,61025ae37ef11b136ea224fe,,,,,,,,,1329,28,60,1,0,0,response1disk,,7,8,4,1,0,0,rectangle,8,4,1,0,0,8,4,1,0,0,1,78,238,156,1,,,,,,,,
,,,,,,,,,,,,,FF,,,,,,,,0.802,,,,,,,,,,,,,,,,,,,,,,60fcfe8185c3d7634a14dea7,61036c1dd69236241ba01f37,2021-07-29_22h05.01.347,Simcolourproject_2stim_asymm_v5,2020.2.10,MacIntel,60,61025ae37ef11b136ea224fe,,,,,,,,,178,25,52,1,0,0,response1disk,,7,3,4,1,0,0,rectangle,3,4,1,0,0,3,4,1,0,0,1,79,239,69,1,,,,,,,,
,,,,,,,,,,,,,FF,,,,,,,,1.2,,,,,,,,,,,,,,,,,,,,,,60fcfe8185c3d7634a14dea7,61036c1dd69236241ba01f37,2021-07-29_22h05.01.347,Simcolourproject_2stim_asymm_v5,2020.2.10,MacIntel,60,61025ae37ef11b136ea224fe,,,,,,,,,1888,-59,-29,1,0,0,response5disk,,2,1,4,1,0,0,rectangle,1,4,1,0,0,1,4,1,0,0,1,80,240,68,1,,,,,,,,
,,,,,,,,,,,,,FF,,,,,,,,1.9,,,,,,,,,,,,,,,,,,,,,,60fcfe8185c3d7634a14dea7,61036c1dd69236241ba01f37,2021-07-29_22h05.01.347,Simcolourproject_2stim_asymm_v5,2020.2.10,MacIntel,60,61025ae37ef11b136ea224fe,,,,,,,,,825,25,-73,1,0,0,response3disk,,4,-1,5,1,0,0,rectangle,-1,5,1,0,0,-1,5,1,0,0,1,81,241,130,1,,,,,,,,
,,,,,,,,,,,,,FF,,,,,,,,0.901,,,,,,,,,,,,,,,,,,,,,,60fcfe8185c3d7634a14dea7,61036c1dd69236241ba01f37,2021-07-29_22h05.01.347,Simcolourproject_2stim_asymm_v5,2020.2.10,MacIntel,60,61025ae37ef11b136ea224fe,,,,,,,,,2600,22,39,1,0,0,response1disk,,7,1,3,1,0,0,rectangle,1,3,1,0,0,1,3,1,0,0,1,82,242,39,1,,,,,,,,
,,,,,,,,,,,,,FF,,,,,,,,1.667,,,,,,,,,,,,,,,,,,,,,,60fcfe8185c3d7634a14dea7,61036c1dd69236241ba01f37,2021-07-29_22h05.01.347,Simcolourproject_2stim_asymm_v5,2020.2.10,MacIntel,60,61025ae37ef11b136ea224fe,,,,,,,,,3765,43,-32,1,0,0,response3disk,,5,8,-4,1,0,0,rectangle,8,-4,1,0,0,8,-4,1,0,0,1,83,243,40,1,,,,,,,,
,,,,,,,,,,,,,FF,,,,,,,,1.1,,,,,,,,,,,,,,,,,,,,,,60fcfe8185c3d7634a14dea7,61036c1dd69236241ba01f37,2021-07-29_22h05.01.347,Simcolourproject_2stim_asymm_v5,2020.2.10,MacIntel,60,61025ae37ef11b136ea224fe,,,,,,,,,1223,28,-74,1,0,0,response3disk,,4,4,-2,1,0,0,rectangle,4,-2,1,0,0,4,-2,1,0,0,1,84,244,91,1,,,,,,,,
,,,,,,,,,,,,,FF,,,,,,,,2.55,,,,,,,,,,,,,,,,,,,,,,60fcfe8185c3d7634a14dea7,61036c1dd69236241ba01f37,2021-07-29_22h05.01.347,Simcolourproject_2stim_asymm_v5,2020.2.10,MacIntel,60,61025ae37ef11b136ea224fe,,,,,,,,,778,41,26,1,0,0,response1disk,,6,5,8,1,0,0,rectangle,5,8,1,0,0,5,8,1,0,0,1,85,245,147,1,,,,,,,,
,,,,,,,,,,,,,FF,,,,,,,,4.767,,,,,,,,,,,,,,,,,,,,,,60fcfe8185c3d7634a14dea7,61036c1dd69236241ba01f37,2021-07-29_22h05.01.347,Simcolourproject_2stim_asymm_v5,2020.2.10,MacIntel,60,61025ae37ef11b136ea224fe,,,,,,,,,3127,25,-55,1,0,0,response3disk,,4,4,-3,1,0,0,rectangle,4,-3,1,0,0,4,-3,1,0,0,1,86,246,135,1,,,,,,,,
,,,,,,,,,,,,,FF,,,,,,,,1.3,,,,,,,,,,,,,,,,,,,,,,60fcfe8185c3d7634a14dea7,61036c1dd69236241ba01f37,2021-07-29_22h05.01.347,Simcolourproject_2stim_asymm_v5,2020.2.10,MacIntel,60,61025ae37ef11b136ea224fe,,,,,,,,,530,-87,-56,1,0,0,response5disk,,2,-2,-12,1,0,0,rectangle,29,-83,1,0,0,2,-5,1,0,0,1,87,247,124,1,,response3disk_3,TRUE,4,4,"[60,91,248,7,18,267,95,287,21,99,107,11,57,170,50,26,92,79,214,176]",1.466,rectangle
,,,,,,,,,,,,,FF,,,,,,,,2.1,,,,,,,,,,,,,,,,,,,,,,60fcfe8185c3d7634a14dea7,61036c1dd69236241ba01f37,2021-07-29_22h05.01.347,Simcolourproject_2stim_asymm_v5,2020.2.10,MacIntel,60,61025ae37ef11b136ea224fe,,,,,,,,,1516,61,24,1,0,0,response1disk,,6,2,3,1,0,0,rectangle,2,3,1,0,0,2,3,1,0,0,1,88,248,157,1,,,,,,,,
,,,,,,,,,,,,,FF,,,,,,,,1.016,,,,,,,,,,,,,,,,,,,,,,60fcfe8185c3d7634a14dea7,61036c1dd69236241ba01f37,2021-07-29_22h05.01.347,Simcolourproject_2stim_asymm_v5,2020.2.10,MacIntel,60,61025ae37ef11b136ea224fe,,,,,,,,,2595,69,31,1,0,0,response1disk,,6,7,-1,1,0,0,rectangle,7,-1,1,0,0,7,-1,1,0,0,1,89,249,110,1,,,,,,,,
,,,,,,,,,,,,,FF,,,,,,,,1.583,,,,,,,,,,,,,,,,,,,,,,60fcfe8185c3d7634a14dea7,61036c1dd69236241ba01f37,2021-07-29_22h05.01.347,Simcolourproject_2stim_asymm_v5,2020.2.10,MacIntel,60,61025ae37ef11b136ea224fe,,,,,,,,,2484,37,-60,1,0,0,response3disk,,4,8,0,1,0,0,rectangle,8,0,1,0,0,8,0,1,0,0,1,90,250,84,1,,,,,,,,
,,,,,,,,,,,,,FF,,,,,,,,1.067,,,,,,,,,,,,,,,,,,,,,,60fcfe8185c3d7634a14dea7,61036c1dd69236241ba01f37,2021-07-29_22h05.01.347,Simcolourproject_2stim_asymm_v5,2020.2.10,MacIntel,60,61025ae37ef11b136ea224fe,,,,,,,,,3917,-34,-68,1,0,0,response5disk,,3,12,14,1,0,0,rectangle,12,14,1,0,0,12,14,1,0,0,1,91,251,93,1,,,,,,,,
,,,,,,,,,,,,,FF,,,,,,,,1.383,,,,,,,,,,,,,,,,,,,,,,60fcfe8185c3d7634a14dea7,61036c1dd69236241ba01f37,2021-07-29_22h05.01.347,Simcolourproject_2stim_asymm_v5,2020.2.10,MacIntel,60,61025ae37ef11b136ea224fe,,,,,,,,,1803,48,32,1,0,0,response1disk,,6,1,5,1,0,0,rectangle,1,5,1,0,0,1,5,1,0,0,1,92,252,6,1,,,,,,,,
,,,,,,,,,,,,,FF,,,,,,,,1.501,,,,,,,,,,,,,,,,,,,,,,60fcfe8185c3d7634a14dea7,61036c1dd69236241ba01f37,2021-07-29_22h05.01.347,Simcolourproject_2stim_asymm_v5,2020.2.10,MacIntel,60,61025ae37ef11b136ea224fe,,,,,,,,,1655,28,63,1,0,0,response1disk,,7,5,4,1,0,0,rectangle,5,4,1,0,0,5,4,1,0,0,1,93,253,152,1,,,,,,,,
,,,,,,,,,,,,,FF,,,,,,,,0.816,,,,,,,,,,,,,,,,,,,,,,60fcfe8185c3d7634a14dea7,61036c1dd69236241ba01f37,2021-07-29_22h05.01.347,Simcolourproject_2stim_asymm_v5,2020.2.10,MacIntel,60,61025ae37ef11b136ea224fe,,,,,,,,,1091,21,46,1,0,0,response1disk,,7,-2,-3,1,0,0,rectangle,-2,-3,1,0,0,-2,-3,1,0,0,1,94,254,13,1,,,,,,,,
,,,,,,,,,,,,,FF,,,,,,,,0.916,,,,,,,,,,,,,,,,,,,,,,60fcfe8185c3d7634a14dea7,61036c1dd69236241ba01f37,2021-07-29_22h05.01.347,Simcolourproject_2stim_asymm_v5,2020.2.10,MacIntel,60,61025ae37ef11b136ea224fe,,,,,,,,,1103,26,45,1,0,0,response1disk,,7,5,1,1,0,0,rectangle,5,1,1,0,0,5,1,1,0,0,1,95,255,119,1,,,,,,,,
,,,,,,,,,,,,,FF,,,,,,,,0.667,,,,,,,,,,,,,,,,,,,,,,60fcfe8185c3d7634a14dea7,61036c1dd69236241ba01f37,2021-07-29_22h05.01.347,Simcolourproject_2stim_asymm_v5,2020.2.10,MacIntel,60,61025ae37ef11b136ea224fe,,,,,,,,,3315,28,58,1,0,0,response1disk,,7,10,8,1,0,0,rectangle,10,8,1,0,0,10,8,1,0,0,1,96,256,78,1,,,,,,,,
,,,,,,,,,,,,,FF,,,,,,,,0.983,,,,,,,,,,,,,,,,,,,,,,60fcfe8185c3d7634a14dea7,61036c1dd69236241ba01f37,2021-07-29_22h05.01.347,Simcolourproject_2stim_asymm_v5,2020.2.10,MacIntel,60,61025ae37ef11b136ea224fe,,,,,,,,,618,-52,-17,1,0,0,response5disk,,2,6,0,1,0,0,rectangle,6,0,1,0,0,6,0,1,0,0,1,97,257,80,1,,,,,,,,
,,,,,,,,,,,,,FF,,,,,,,,2.45,,,,,,,,,,,,,,,,,,,,,,60fcfe8185c3d7634a14dea7,61036c1dd69236241ba01f37,2021-07-29_22h05.01.347,Simcolourproject_2stim_asymm_v5,2020.2.10,MacIntel,60,61025ae37ef11b136ea224fe,,,,,,,,,3196,-71,-34,1,0,0,response5disk,,2,4,7,1,0,0,rectangle,4,7,1,0,0,4,7,1,0,0,1,98,258,109,1,,,,,,,,
,,,,,,,,,,,,,FF,,,,,,,,0.834,,,,,,,,,,,,,,,,,,,,,,60fcfe8185c3d7634a14dea7,61036c1dd69236241ba01f37,2021-07-29_22h05.01.347,Simcolourproject_2stim_asymm_v5,2020.2.10,MacIntel,60,61025ae37ef11b136ea224fe,,,,,,,,,1052,-89,-48,1,0,0,response5disk,,2,-7,-2,1,0,0,rectangle,-7,-2,1,0,0,-7,-2,1,0,0,1,99,259,121,1,,,,,,,,
,,,,,,,,,,,,,FF,,,,,,,,0.934,,,,,,,,,,,,,,,,,,,,,,60fcfe8185c3d7634a14dea7,61036c1dd69236241ba01f37,2021-07-29_22h05.01.347,Simcolourproject_2stim_asymm_v5,2020.2.10,MacIntel,60,61025ae37ef11b136ea224fe,,,,,,,,,3749,-79,35,1,0,0,response7disk,,1,-1,6,1,0,0,rectangle,-1,6,1,0,0,-1,6,1,0,0,1,100,260,56,1,,,,,,,,
,,,,,,,,,,,,,FF,,,,,,,,1.216,,,,,,,,,,,,,,,,,,,,,,60fcfe8185c3d7634a14dea7,61036c1dd69236241ba01f37,2021-07-29_22h05.01.347,Simcolourproject_2stim_asymm_v5,2020.2.10,MacIntel,60,61025ae37ef11b136ea224fe,,,,,,,,,108,49,-70,1,0,0,response3disk,,4,5,-4,1,0,0,rectangle,5,-4,1,0,0,5,-4,1,0,0,1,101,261,111,1,,,,,,,,
,,,,,,,,,,,,,FF,,,,,,,,1.4,,,,,,,,,,,,,,,,,,,,,,60fcfe8185c3d7634a14dea7,61036c1dd69236241ba01f37,2021-07-29_22h05.01.347,Simcolourproject_2stim_asymm_v5,2020.2.10,MacIntel,60,61025ae37ef11b136ea224fe,,,,,,,,,3547,-30,-76,1,0,0,response5disk,,3,7,9,1,0,0,rectangle,7,9,1,0,0,7,9,1,0,0,1,102,262,116,1,,,,,,,,
,,,,,,,,,,,,,FF,,,,,,,,0.767,,,,,,,,,,,,,,,,,,,,,,60fcfe8185c3d7634a14dea7,61036c1dd69236241ba01f37,2021-07-29_22h05.01.347,Simcolourproject_2stim_asymm_v5,2020.2.10,MacIntel,60,61025ae37ef11b136ea224fe,,,,,,,,,664,48,90,1,0,0,response1disk,,7,-1,5,1,0,0,rectangle,-1,5,1,0,0,-1,5,1,0,0,1,103,263,143,1,,,,,,,,
,,,,,,,,,,,,,FF,,,,,,,,0.951,,,,,,,,,,,,,,,,,,,,,,60fcfe8185c3d7634a14dea7,61036c1dd69236241ba01f37,2021-07-29_22h05.01.347,Simcolourproject_2stim_asymm_v5,2020.2.10,MacIntel,60,61025ae37ef11b136ea224fe,,,,,,,,,4367,-94,54,1,0,0,response7disk,,1,0,-4,1,0,0,rectangle,0,-4,1,0,0,0,-4,1,0,0,1,104,264,146,1,,,,,,,,
,,,,,,,,,,,,,FF,,,,,,,,1.267,,,,,,,,,,,,,,,,,,,,,,60fcfe8185c3d7634a14dea7,61036c1dd69236241ba01f37,2021-07-29_22h05.01.347,Simcolourproject_2stim_asymm_v5,2020.2.10,MacIntel,60,61025ae37ef11b136ea224fe,,,,,,,,,1235,-72,-32,1,0,0,response5disk,,2,-12,-6,1,0,0,rectangle,-12,-6,1,0,0,-12,-6,1,0,0,1,105,265,94,1,,,,,,,,
,,,,,,,,,,,,,FF,,,,,,,,1.184,,,,,,,,,,,,,,,,,,,,,,60fcfe8185c3d7634a14dea7,61036c1dd69236241ba01f37,2021-07-29_22h05.01.347,Simcolourproject_2stim_asymm_v5,2020.2.10,MacIntel,60,61025ae37ef11b136ea224fe,,,,,,,,,595,52,24,1,0,0,response1disk,,6,2,8,1,0,0,rectangle,52,-89,1,0,0,2,0,1,0,0,1,106,266,55,1,,response3disk_3,TRUE,4,4,"[60,91,248,7,18,267,95,287,21,99,107,11,57,170,50,26,92,79,214,176]",1.366,rectangle
,,,,,,,,,,,,,FF,,,,,,,,2.3,,,,,,,,,,,,,,,,,,,,,,60fcfe8185c3d7634a14dea7,61036c1dd69236241ba01f37,2021-07-29_22h05.01.347,Simcolourproject_2stim_asymm_v5,2020.2.10,MacIntel,60,61025ae37ef11b136ea224fe,,,,,,,,,1355,55,21,1,0,0,response1disk,,6,3,5,1,0,0,rectangle,3,5,1,0,0,3,5,1,0,0,1,107,267,74,1,,,,,,,,
,,,,,,,,,,,,,FF,,,,,,,,0.918,,,,,,,,,,,,,,,,,,,,,,60fcfe8185c3d7634a14dea7,61036c1dd69236241ba01f37,2021-07-29_22h05.01.347,Simcolourproject_2stim_asymm_v5,2020.2.10,MacIntel,60,61025ae37ef11b136ea224fe,,,,,,,,,2569,17,67,1,0,0,response1disk,,7,-5,-10,1,0,0,rectangle,-5,-10,1,0,0,-5,-10,1,0,0,1,108,268,103,1,,,,,,,,
,,,,,,,,,,,,,FF,,,,,,,,0.617,,,,,,,,,,,,,,,,,,,,,,60fcfe8185c3d7634a14dea7,61036c1dd69236241ba01f37,2021-07-29_22h05.01.347,Simcolourproject_2stim_asymm_v5,2020.2.10,MacIntel,60,61025ae37ef11b136ea224fe,,,,,,,,,937,34,65,1,0,0,response1disk,,7,5,7,1,0,0,rectangle,5,7,1,0,0,5,7,1,0,0,1,109,269,24,1,,,,,,,,
,,,,,,,,,,,,,FF,,,,,,,,1.284,,,,,,,,,,,,,,,,,,,,,,60fcfe8185c3d7634a14dea7,61036c1dd69236241ba01f37,2021-07-29_22h05.01.347,Simcolourproject_2stim_asymm_v5,2020.2.10,MacIntel,60,61025ae37ef11b136ea224fe,,,,,,,,,2990,52,24,1,0,0,response1disk,,6,8,8,1,0,0,rectangle,8,8,1,0,0,8,8,1,0,0,1,110,270,37,1,,,,,,,,
,,,,,,,,,,,,,FF,,,,,,,,0.75,,,,,,,,,,,,,,,,,,,,,,60fcfe8185c3d7634a14dea7,61036c1dd69236241ba01f37,2021-07-29_22h05.01.347,Simcolourproject_2stim_asymm_v5,2020.2.10,MacIntel,60,61025ae37ef11b136ea224fe,,,,,,,,,840,27,69,1,0,0,response1disk,,7,0,11,1,0,0,rectangle,0,11,1,0,0,0,11,1,0,0,1,111,271,65,1,,,,,,,,
,,,,,,,,,,,,,FF,,,,,,,,0.982,,,,,,,,,,,,,,,,,,,,,,60fcfe8185c3d7634a14dea7,61036c1dd69236241ba01f37,2021-07-29_22h05.01.347,Simcolourproject_2stim_asymm_v5,2020.2.10,MacIntel,60,61025ae37ef11b136ea224fe,,,,,,,,,2552,61,-39,1,0,0,response3disk,,5,12,-7,1,0,0,rectangle,12,-7,1,0,0,12,-7,1,0,0,1,112,272,123,1,,,,,,,,
,,,,,,,,,,,,,FF,,,,,,,,2.984,,,,,,,,,,,,,,,,,,,,,,60fcfe8185c3d7634a14dea7,61036c1dd69236241ba01f37,2021-07-29_22h05.01.347,Simcolourproject_2stim_asymm_v5,2020.2.10,MacIntel,60,61025ae37ef11b136ea224fe,,,,,,,,,3224,31,70,1,0,0,response1disk,,7,2,3,1,0,0,rectangle,2,3,1,0,0,2,3,1,0,0,1,113,273,86,1,,,,,,,,
,,,,,,,,,,,,,FF,,,,,,,,1.134,,,,,,,,,,,,,,,,,,,,,,60fcfe8185c3d7634a14dea7,61036c1dd69236241ba01f37,2021-07-29_22h05.01.347,Simcolourproject_2stim_asymm_v5,2020.2.10,MacIntel,60,61025ae37ef11b136ea224fe,,,,,,,,,525,-72,49,1,0,0,response7disk,,1,-1,-2,1,0,0,rectangle,-1,-2,1,0,0,-1,-2,1,0,0,1,114,274,150,1,,,,,,,,
,,,,,,,,,,,,,FF,,,,,,,,0.949,,,,,,,,,,,,,,,,,,,,,,60fcfe8185c3d7634a14dea7,61036c1dd69236241ba01f37,2021-07-29_22h05.01.347,Simcolourproject_2stim_asymm_v5,2020.2.10,MacIntel,60,61025ae37ef11b136ea224fe,,,,,,,,,1228,-36,-82,1,0,0,response5disk,,3,9,4,1,0,0,rectangle,9,4,1,0,0,9,4,1,0,0,1,115,275,50,1,,,,,,,,
,,,,,,,,,,,,,FF,,,,,,,,1.001,,,,,,,,,,,,,,,,,,,,,,60fcfe8185c3d7634a14dea7,61036c1dd69236241ba01f37,2021-07-29_22h05.01.347,Simcolourproject_2stim_asymm_v5,2020.2.10,MacIntel,60,61025ae37ef11b136ea224fe,,,,,,,,,3860,48,-65,1,0,0,response3disk,,4,12,-3,1,0,0,rectangle,12,-3,1,0,0,12,-3,1,0,0,1,116,276,64,1,,,,,,,,
,,,,,,,,,,,,,FF,,,,,,,,0.768,,,,,,,,,,,,,,,,,,,,,,60fcfe8185c3d7634a14dea7,61036c1dd69236241ba01f37,2021-07-29_22h05.01.347,Simcolourproject_2stim_asymm_v5,2020.2.10,MacIntel,60,61025ae37ef11b136ea224fe,,,,,,,,,3145,31,68,1,0,0,response1disk,,7,-2,4,1,0,0,rectangle,-2,4,1,0,0,-2,4,1,0,0,1,117,277,105,1,,,,,,,,
,,,,,,,,,,,,,FF,,,,,,,,0.766,,,,,,,,,,,,,,,,,,,,,,60fcfe8185c3d7634a14dea7,61036c1dd69236241ba01f37,2021-07-29_22h05.01.347,Simcolourproject_2stim_asymm_v5,2020.2.10,MacIntel,60,61025ae37ef11b136ea224fe,,,,,,,,,2867,38,72,1,0,0,response1disk,,7,2,3,1,0,0,rectangle,2,3,1,0,0,2,3,1,0,0,1,118,278,12,1,,,,,,,,
,,,,,,,,,,,,,FF,,,,,,,,1.05,,,,,,,,,,,,,,,,,,,,,,60fcfe8185c3d7634a14dea7,61036c1dd69236241ba01f37,2021-07-29_22h05.01.347,Simcolourproject_2stim_asymm_v5,2020.2.10,MacIntel,60,61025ae37ef11b136ea224fe,,,,,,,,,2777,-34,-78,1,0,0,response5disk,,3,13,10,1,0,0,rectangle,13,10,1,0,0,13,10,1,0,0,1,119,279,129,1,,,,,,,,
,,,,,,,,,,,,,FF,,,,,,,,0.734,,,,,,,,,,,,,,,,,,,,,,60fcfe8185c3d7634a14dea7,61036c1dd69236241ba01f37,2021-07-29_22h05.01.347,Simcolourproject_2stim_asymm_v5,2020.2.10,MacIntel,60,61025ae37ef11b136ea224fe,,,,,,,,,674,50,85,1,0,0,response1disk,,7,8,2,1,0,0,rectangle,8,2,1,0,0,8,2,1,0,0,1,120,280,82,1,,,,,,,,
,,,,,,,,,,,,,FF,,,,,,,,0.917,,,,,,,,,,,,,,,,,,,,,,60fcfe8185c3d7634a14dea7,61036c1dd69236241ba01f37,2021-07-29_22h05.01.347,Simcolourproject_2stim_asymm_v5,2020.2.10,MacIntel,60,61025ae37ef11b136ea224fe,,,,,,,,,215,54,24,1,0,0,response1disk,,6,10,10,1,0,0,rectangle,10,10,1,0,0,10,10,1,0,0,1,121,281,32,1,,,,,,,,
,,,,,,,,,,,,,FF,,,,,,,,0.883,,,,,,,,,,,,,,,,,,,,,,60fcfe8185c3d7634a14dea7,61036c1dd69236241ba01f37,2021-07-29_22h05.01.347,Simcolourproject_2stim_asymm_v5,2020.2.10,MacIntel,60,61025ae37ef11b136ea224fe,,,,,,,,,2660,-31,69,1,0,0,response7disk,,0,-9,1,1,0,0,rectangle,-9,1,1,0,0,-9,1,1,0,0,1,122,282,137,1,,,,,,,,
,,,,,,,,,,,,,FF,,,,,,,,1.2,,,,,,,,,,,,,,,,,,,,,,60fcfe8185c3d7634a14dea7,61036c1dd69236241ba01f37,2021-07-29_22h05.01.347,Simcolourproject_2stim_asymm_v5,2020.2.10,MacIntel,60,61025ae37ef11b136ea224fe,,,,,,,,,1129,25,53,1,0,0,response1disk,,7,4,3,1,0,0,rectangle,4,3,1,0,0,4,3,1,0,0,1,123,283,140,1,,,,,,,,
,,,,,,,,,,,,,FF,,,,,,,,1.168,,,,,,,,,,,,,,,,,,,,,,60fcfe8185c3d7634a14dea7,61036c1dd69236241ba01f37,2021-07-29_22h05.01.347,Simcolourproject_2stim_asymm_v5,2020.2.10,MacIntel,60,61025ae37ef11b136ea224fe,,,,,,,,,3118,20,55,1,0,0,response1disk,,7,5,-3,1,0,0,rectangle,5,-3,1,0,0,5,-3,1,0,0,1,124,284,59,1,,,,,,,,
,,,,,,,,,,,,,FF,,,,,,,,0.65,,,,,,,,,,,,,,,,,,,,,,60fcfe8185c3d7634a14dea7,61036c1dd69236241ba01f37,2021-07-29_22h05.01.347,Simcolourproject_2stim_asymm_v5,2020.2.10,MacIntel,60,61025ae37ef11b136ea224fe,,,,,,,,,1496,32,72,1,0,0,response1disk,,7,5,-6,1,0,0,rectangle,5,-6,1,0,0,5,-6,1,0,0,1,125,285,38,1,,,,,,,,
,,,,,,,,,,,,,FF,,,,,,,,0.767,,,,,,,,,,,,,,,,,,,,,,60fcfe8185c3d7634a14dea7,61036c1dd69236241ba01f37,2021-07-29_22h05.01.347,Simcolourproject_2stim_asymm_v5,2020.2.10,MacIntel,60,61025ae37ef11b136ea224fe,,,,,,,,,625,34,73,1,0,0,response1disk,,7,2,-6,1,0,0,rectangle,80,30,1,0,0,3,2,1,0,0,1,126,286,158,1,,response1disk_3,TRUE,6,6,"[60,91,248,7,18,267,95,287,21,99,107,11,57,170,50,26,92,79,214,176]",1.684,rectangle
,,,,,,,,,,,,,FF,,,,,,,,2.4,,,,,,,,,,,,,,,,,,,,,,60fcfe8185c3d7634a14dea7,61036c1dd69236241ba01f37,2021-07-29_22h05.01.347,Simcolourproject_2stim_asymm_v5,2020.2.10,MacIntel,60,61025ae37ef11b136ea224fe,,,,,,,,,1025,29,47,1,0,0,response1disk,,7,-4,-8,1,0,0,rectangle,-4,-8,1,0,0,-4,-8,1,0,0,1,127,287,4,1,,,,,,,,
,,,,,,,,,,,,,FF,,,,,,,,0.651,,,,,,,,,,,,,,,,,,,,,,60fcfe8185c3d7634a14dea7,61036c1dd69236241ba01f37,2021-07-29_22h05.01.347,Simcolourproject_2stim_asymm_v5,2020.2.10,MacIntel,60,61025ae37ef11b136ea224fe,,,,,,,,,1021,28,77,1,0,0,response1disk,,7,4,12,1,0,0,rectangle,4,12,1,0,0,4,12,1,0,0,1,128,288,99,1,,,,,,,,
,,,,,,,,,,,,,FF,,,,,,,,0.782,,,,,,,,,,,,,,,,,,,,,,60fcfe8185c3d7634a14dea7,61036c1dd69236241ba01f37,2021-07-29_22h05.01.347,Simcolourproject_2stim_asymm_v5,2020.2.10,MacIntel,60,61025ae37ef11b136ea224fe,,,,,,,,,62,38,76,1,0,0,response1disk,,7,2,-2,1,0,0,rectangle,2,-2,1,0,0,2,-2,1,0,0,1,129,289,35,1,,,,,,,,
,,,,,,,,,,,,,FF,,,,,,,,0.582,,,,,,,,,,,,,,,,,,,,,,60fcfe8185c3d7634a14dea7,61036c1dd69236241ba01f37,2021-07-29_22h05.01.347,Simcolourproject_2stim_asymm_v5,2020.2.10,MacIntel,60,61025ae37ef11b136ea224fe,,,,,,,,,3027,32,83,1,0,0,response1disk,,7,-5,-7,1,0,0,rectangle,-5,-7,1,0,0,-5,-7,1,0,0,1,130,290,8,1,,,,,,,,
,,,,,,,,,,,,,FF,,,,,,,,0.583,,,,,,,,,,,,,,,,,,,,,,60fcfe8185c3d7634a14dea7,61036c1dd69236241ba01f37,2021-07-29_22h05.01.347,Simcolourproject_2stim_asymm_v5,2020.2.10,MacIntel,60,61025ae37ef11b136ea224fe,,,,,,,,,24,31,69,1,0,0,response1disk,,7,6,8,1,0,0,rectangle,6,8,1,0,0,6,8,1,0,0,1,131,291,53,1,,,,,,,,
,,,,,,,,,,,,,FF,,,,,,,,0.583,,,,,,,,,,,,,,,,,,,,,,60fcfe8185c3d7634a14dea7,61036c1dd69236241ba01f37,2021-07-29_22h05.01.347,Simcolourproject_2stim_asymm_v5,2020.2.10,MacIntel,60,61025ae37ef11b136ea224fe,,,,,,,,,4179,33,76,1,0,0,response1disk,,7,1,2,1,0,0,rectangle,1,2,1,0,0,1,2,1,0,0,1,132,292,107,1,,,,,,,,
,,,,,,,,,,,,,FF,,,,,,,,0.534,,,,,,,,,,,,,,,,,,,,,,60fcfe8185c3d7634a14dea7,61036c1dd69236241ba01f37,2021-07-29_22h05.01.347,Simcolourproject_2stim_asymm_v5,2020.2.10,MacIntel,60,61025ae37ef11b136ea224fe,,,,,,,,,1568,33,66,1,0,0,response1disk,,7,9,3,1,0,0,rectangle,9,3,1,0,0,9,3,1,0,0,1,133,293,49,1,,,,,,,,
,,,,,,,,,,,,,FF,,,,,,,,1.534,,,,,,,,,,,,,,,,,,,,,,60fcfe8185c3d7634a14dea7,61036c1dd69236241ba01f37,2021-07-29_22h05.01.347,Simcolourproject_2stim_asymm_v5,2020.2.10,MacIntel,60,61025ae37ef11b136ea224fe,,,,,,,,,261,-38,-76,1,0,0,response5disk,,3,2,2,1,0,0,rectangle,2,2,1,0,0,2,2,1,0,0,1,134,294,43,1,,,,,,,,
,,,,,,,,,,,,,FF,,,,,,,,1.017,,,,,,,,,,,,,,,,,,,,,,60fcfe8185c3d7634a14dea7,61036c1dd69236241ba01f37,2021-07-29_22h05.01.347,Simcolourproject_2stim_asymm_v5,2020.2.10,MacIntel,60,61025ae37ef11b136ea224fe,,,,,,,,,2194,29,68,1,0,0,response1disk,,7,-2,-4,1,0,0,rectangle,-2,-4,1,0,0,-2,-4,1,0,0,1,135,295,95,1,,,,,,,,
,,,,,,,,,,,,,FF,,,,,,,,1.352,,,,,,,,,,,,,,,,,,,,,,60fcfe8185c3d7634a14dea7,61036c1dd69236241ba01f37,2021-07-29_22h05.01.347,Simcolourproject_2stim_asymm_v5,2020.2.10,MacIntel,60,61025ae37ef11b136ea224fe,,,,,,,,,1910,43,30,1,0,0,response1disk,,6,4,1,1,0,0,rectangle,4,1,1,0,0,4,1,1,0,0,1,136,296,17,1,,,,,,,,
,,,,,,,,,,,,,FF,,,,,,,,1.334,,,,,,,,,,,,,,,,,,,,,,60fcfe8185c3d7634a14dea7,61036c1dd69236241ba01f37,2021-07-29_22h05.01.347,Simcolourproject_2stim_asymm_v5,2020.2.10,MacIntel,60,61025ae37ef11b136ea224fe,,,,,,,,,2215,32,66,1,0,0,response1disk,,7,7,6,1,0,0,rectangle,7,6,1,0,0,7,6,1,0,0,1,137,297,112,1,,,,,,,,
,,,,,,,,,,,,,FF,,,,,,,,1.584,,,,,,,,,,,,,,,,,,,,,,60fcfe8185c3d7634a14dea7,61036c1dd69236241ba01f37,2021-07-29_22h05.01.347,Simcolourproject_2stim_asymm_v5,2020.2.10,MacIntel,60,61025ae37ef11b136ea224fe,,,,,,,,,2945,-40,-84,1,0,0,response5disk,,3,-10,-1,1,0,0,rectangle,-10,-1,1,0,0,-10,-1,1,0,0,1,138,298,70,1,,,,,,,,
,,,,,,,,,,,,,FF,,,,,,,,1.183,,,,,,,,,,,,,,,,,,,,,,60fcfe8185c3d7634a14dea7,61036c1dd69236241ba01f37,2021-07-29_22h05.01.347,Simcolourproject_2stim_asymm_v5,2020.2.10,MacIntel,60,61025ae37ef11b136ea224fe,,,,,,,,,153,62,37,1,0,0,response1disk,,6,-5,-4,1,0,0,rectangle,-5,-4,1,0,0,-5,-4,1,0,0,1,139,299,77,1,,,,,,,,
,,,,,,,,,,,,,FF,,,,,,,,1.567,,,,,,,,,,,,,,,,,,,,,,60fcfe8185c3d7634a14dea7,61036c1dd69236241ba01f37,2021-07-29_22h05.01.347,Simcolourproject_2stim_asymm_v5,2020.2.10,MacIntel,60,61025ae37ef11b136ea224fe,,,,,,,,,3533,53,27,1,0,0,response1disk,,6,9,5,1,0,0,rectangle,9,5,1,0,0,9,5,1,0,0,1,140,300,18,1,,,,,,,,
,,,,,,,,,,,,,FF,,,,,,,,1.384,,,,,,,,,,,,,,,,,,,,,,60fcfe8185c3d7634a14dea7,61036c1dd69236241ba01f37,2021-07-29_22h05.01.347,Simcolourproject_2stim_asymm_v5,2020.2.10,MacIntel,60,61025ae37ef11b136ea224fe,,,,,,,,,3846,28,-53,1,0,0,response3disk,,4,15,1,1,0,0,rectangle,15,1,1,0,0,15,1,1,0,0,1,141,301,145,1,,,,,,,,
,,,,,,,,,,,,,FF,,,,,,,,1.684,,,,,,,,,,,,,,,,,,,,,,60fcfe8185c3d7634a14dea7,61036c1dd69236241ba01f37,2021-07-29_22h05.01.347,Simcolourproject_2stim_asymm_v5,2020.2.10,MacIntel,60,61025ae37ef11b136ea224fe,,,,,,,,,493,27,59,1,0,0,response1disk,,7,-4,-5,1,0,0,rectangle,-4,-5,1,0,0,-4,-5,1,0,0,1,142,302,118,1,,,,,,,,
