key_resp.keys,key_resp.rt,key_resp_14.keys,key_resp_14.rt,key_resp_15.keys,key_resp_15.rt,key_resp_17.keys,key_resp_17.rt,key_resp_9.keys,key_resp_9.rt,key_resp_10.keys,key_resp_10.rt,practice_comparison,Ecc,mouse_5.x,mouse_5.y,mouse_5.leftButton,mouse_5.midButton,mouse_5.rightButton,mouse_5.clicked_name,pracsimilarity,response_time,mouse_10.x,mouse_10.y,mouse_10.leftButton,mouse_10.midButton,mouse_10.rightButton,mouse_10.clicked_name,mouse_7.x,mouse_7.y,mouse_7.leftButton,mouse_7.midButton,mouse_7.rightButton,mouse_6.x,mouse_6.y,mouse_6.leftButton,mouse_6.midButton,mouse_6.rightButton,duringprac.thisRepN,duringprac.thisTrialN,duringprac.thisN,duringprac.thisIndex,duringprac.ran,participant,session,date,expName,psychopyVersion,OS,frameRate,study_id,mouse_7.clicked_name,catchpracsimilarity,catch_response_time,catchnumberprac,catchtrialorderprac,mouse_6.clicked_name,key_resp_22.keys,key_resp_22.rt,realcomparison,mouse.x,mouse.y,mouse.leftButton,mouse.midButton,mouse.rightButton,mouse.clicked_name,Colour2,similarity,mouse_2.x,mouse_2.y,mouse_2.leftButton,mouse_2.midButton,mouse_2.rightButton,mouse_2.clicked_name,mouse_3.x,mouse_3.y,mouse_3.leftButton,mouse_3.midButton,mouse_3.rightButton,mouse_11.x,mouse_11.y,mouse_11.leftButton,mouse_11.midButton,mouse_11.rightButton,trials_2.thisRepN,trials_2.thisTrialN,trials_2.thisN,trials_2.thisIndex,trials_2.ran,Colour1,mouse_3.clicked_name,catchornah,catchsimilarity,catchnumber,catchtrialorder,catchRT,mouse_11.clicked_name
space,1.212,space,14.246,space,17.0351,space,6.6987,space,1.5674,space,2.9999,148,PF,-79.33331662,-29.66667828,1,0,0,response5disk_5,2,5.0914,-3.333314359,4.99998942,1,0,0,rectangle_8,-3.333314359,4.99998942,1,0,0,-3.333314359,4.99998942,1,0,0,0,0,0,1,1,60fcd5771f8903970e9f2c7b,61036e40a0b9920bb45a69e4,2021-07-29_23h13.46.908,Simcolourproject_2stim_asymm_v5,2020.2.10,Win32,60,61025ae37ef11b136ea224fe,,,,,,,,,,,,,,,,,,,,,,,,,,,,,,,,,,,,,,,,,,,,,,
,,,,,,,,,,,,131,FF,-41.33331549,73.33330444,1,0,0,response7disk_5,0,1.7474,-3.666607012,10.66665626,1,0,0,rectangle_8,29.33339397,-69.00001279,1,0,0,-8.999981195,-3.666677505,1,0,0,0,1,1,3,1,60fcd5771f8903970e9f2c7b,61036e40a0b9920bb45a69e4,2021-07-29_23h13.46.908,Simcolourproject_2stim_asymm_v5,2020.2.10,Win32,60,61025ae37ef11b136ea224fe,response3disk_7,4,2.2998,4,"[2,5]",rectangle_4,,,,,,,,,,,,,,,,,,,,,,,,,,,,,,,,,,,,,,,,
,,,,,,,,,,,,118,PF,74.33335462,-53.00001231,1,0,0,response3disk_5,5,2.2507,13.66668615,1.999989331,1,0,0,rectangle_8,13.66668615,1.999989331,1,0,0,13.66668615,1.999989331,1,0,0,0,2,2,2,1,60fcd5771f8903970e9f2c7b,61036e40a0b9920bb45a69e4,2021-07-29_23h13.46.908,Simcolourproject_2stim_asymm_v5,2020.2.10,Win32,60,61025ae37ef11b136ea224fe,,,,,,,,,,,,,,,,,,,,,,,,,,,,,,,,,,,,,,,,,,,,,,
,,,,,,,,,,,,70,PF,43.3333537,76.66665822,1,0,0,response1disk_5,7,1.4835,12.33339346,12.99998966,1,0,0,rectangle_8,12.33339346,12.99998966,1,0,0,12.33339346,12.99998966,1,0,0,0,3,3,4,1,60fcd5771f8903970e9f2c7b,61036e40a0b9920bb45a69e4,2021-07-29_23h13.46.908,Simcolourproject_2stim_asymm_v5,2020.2.10,Win32,60,61025ae37ef11b136ea224fe,,,,,,,,,,,,,,,,,,,,,,,,,,,,,,,,,,,,,,,,,,,,,,
,,,,,,,,,,,,128,FF,76.00002134,-28.66667825,1,0,0,response3disk_5,5,1.8662,-0.33331427,1.999989331,1,0,0,rectangle_8,30.66668665,-80.00001311,1,0,0,16.00001955,0.999989301,1,0,0,0,4,4,5,1,60fcd5771f8903970e9f2c7b,61036e40a0b9920bb45a69e4,2021-07-29_23h13.46.908,Simcolourproject_2stim_asymm_v5,2020.2.10,Win32,60,61025ae37ef11b136ea224fe,response3disk_7,4,1.7497,4,"[2,5]",rectangle_4,,,,,,,,,,,,,,,,,,,,,,,,,,,,,,,,,,,,,,,,
,,,,,,,,,,,,18,FF,-26.33331504,-61.00001255,1,0,0,response5disk_5,3,2.5822,12.66668612,-1.666677445,1,0,0,rectangle_8,12.66668612,-1.666677445,1,0,0,12.66668612,-1.666677445,1,0,0,0,5,5,0,1,60fcd5771f8903970e9f2c7b,61036e40a0b9920bb45a69e4,2021-07-29_23h13.46.908,Simcolourproject_2stim_asymm_v5,2020.2.10,Win32,60,61025ae37ef11b136ea224fe,,,,,,,,,,,,,,,,,,,,,,,,,,,,,,,,,,,,,,,,,,,,,,
,,,,,,,,,,,,82,PF,-33.66660791,-59.66667917,1,0,0,response5disk_5,3,2.1834,8.333393345,2.333322674,1,0,0,rectangle_8,8.333393345,2.333322674,1,0,0,8.333393345,2.333322674,1,0,0,0,6,6,6,1,60fcd5771f8903970e9f2c7b,61036e40a0b9920bb45a69e4,2021-07-29_23h13.46.908,Simcolourproject_2stim_asymm_v5,2020.2.10,Win32,60,61025ae37ef11b136ea224fe,,,,,,,,,,,,,,,,,,,,,,,,,,,,,,,,,,,,,,,,,,,,,,
,,,,,,,,,,,,,FF,,,,,,,,3.7482,,,,,,,,,,,,,,,,,,,,,,60fcd5771f8903970e9f2c7b,61036e40a0b9920bb45a69e4,2021-07-29_23h13.46.908,Simcolourproject_2stim_asymm_v5,2020.2.10,Win32,60,61025ae37ef11b136ea224fe,,,,,,,space,2.6266,109,79.00002143,-46.33334544,1,0,0,response3disk,,5,15.33339355,-1.07288E-05,1,0,0,rectangle,15.33339355,-1.07288E-05,1,0,0,15.33339355,-1.07288E-05,1,0,0,0,0,0,133,1,,,,,,,,
,,,,,,,,,,,,,FF,,,,,,,,2.6822,,,,,,,,,,,,,,,,,,,,,,60fcd5771f8903970e9f2c7b,61036e40a0b9920bb45a69e4,2021-07-29_23h13.46.908,Simcolourproject_2stim_asymm_v5,2020.2.10,Win32,60,61025ae37ef11b136ea224fe,,,,,,,,,3460,-84.66660943,-34.00001174,1,0,0,response5disk,,2,13.33339349,9.999989569,1,0,0,rectangle,13.33339349,9.999989569,1,0,0,13.33339349,9.999989569,1,0,0,0,1,1,27,1,,,,,,,,
,,,,,,,,,,,,,FF,,,,,,,,0.9665,,,,,,,,,,,,,,,,,,,,,,60fcd5771f8903970e9f2c7b,61036e40a0b9920bb45a69e4,2021-07-29_23h13.46.908,Simcolourproject_2stim_asymm_v5,2020.2.10,Win32,60,61025ae37ef11b136ea224fe,,,,,,,,,3429,-46.66660829,27.33330307,1,0,0,response7disk,,1,-13.99998134,13.66665635,1,0,0,rectangle,-13.99998134,13.66665635,1,0,0,-13.99998134,13.66665635,1,0,0,0,2,2,38,1,,,,,,,,
,,,,,,,,,,,,,FF,,,,,,,,1.2002,,,,,,,,,,,,,,,,,,,,,,60fcd5771f8903970e9f2c7b,61036e40a0b9920bb45a69e4,2021-07-29_23h13.46.908,Simcolourproject_2stim_asymm_v5,2020.2.10,Win32,60,61025ae37ef11b136ea224fe,,,,,,,,,2406,35.00002012,-59.33334583,1,0,0,response3disk,,4,1.333393137,-2.666677475,1,0,0,rectangle,1.333393137,-2.666677475,1,0,0,1.333393137,-2.666677475,1,0,0,0,3,3,155,1,,,,,,,,
,,,,,,,,,,,,,FF,,,,,,,,0.9329,,,,,,,,,,,,,,,,,,,,,,60fcd5771f8903970e9f2c7b,61036e40a0b9920bb45a69e4,2021-07-29_23h13.46.908,Simcolourproject_2stim_asymm_v5,2020.2.10,Win32,60,61025ae37ef11b136ea224fe,,,,,,,,,1894,-39.99998212,26.33330304,1,0,0,response7disk,,1,-9.999981225,8.333322853,1,0,0,rectangle,-9.999981225,8.333322853,1,0,0,-9.999981225,8.333322853,1,0,0,0,4,4,58,1,,,,,,,,
,,,,,,,,,,,,,FF,,,,,,,,1.3007,,,,,,,,,,,,,,,,,,,,,,60fcd5771f8903970e9f2c7b,61036e40a0b9920bb45a69e4,2021-07-29_23h13.46.908,Simcolourproject_2stim_asymm_v5,2020.2.10,Win32,60,61025ae37ef11b136ea224fe,,,,,,,,,3401,-32.66660788,-57.33334577,1,0,0,response5disk,,3,11.33339343,-0.666677415,1,0,0,rectangle,11.33339343,-0.666677415,1,0,0,11.33339343,-0.666677415,1,0,0,0,5,5,142,1,,,,,,,,
,,,,,,,,,,,,,FF,,,,,,,,2.7341,,,,,,,,,,,,,,,,,,,,,,60fcd5771f8903970e9f2c7b,61036e40a0b9920bb45a69e4,2021-07-29_23h13.46.908,Simcolourproject_2stim_asymm_v5,2020.2.10,Win32,60,61025ae37ef11b136ea224fe,,,,,,,,,1866,42.33339436,74.33330447,1,0,0,response1disk,,7,12.00001943,0.999989301,1,0,0,rectangle,12.00001943,0.999989301,1,0,0,12.00001943,0.999989301,1,0,0,0,6,6,0,1,,,,,,,,
,,,,,,,,,,,,,FF,,,,,,,,1.067,,,,,,,,,,,,,,,,,,,,,,60fcd5771f8903970e9f2c7b,61036e40a0b9920bb45a69e4,2021-07-29_23h13.46.908,Simcolourproject_2stim_asymm_v5,2020.2.10,Win32,60,61025ae37ef11b136ea224fe,,,,,,,,,2927,44.00002038,75.99999154,1,0,0,response1disk,,7,6.333393286,0.333322614,1,0,0,rectangle,6.333393286,0.333322614,1,0,0,6.333393286,0.333322614,1,0,0,0,7,7,17,1,,,,,,,,
,,,,,,,,,,,,,FF,,,,,,,,1.2833,,,,,,,,,,,,,,,,,,,,,,60fcd5771f8903970e9f2c7b,61036e40a0b9920bb45a69e4,2021-07-29_23h13.46.908,Simcolourproject_2stim_asymm_v5,2020.2.10,Win32,60,61025ae37ef11b136ea224fe,,,,,,,,,4360,-37.33331537,-32.66667837,1,0,0,response5disk,,2,13.66668615,5.99998945,1,0,0,rectangle,13.66668615,5.99998945,1,0,0,13.66668615,5.99998945,1,0,0,0,8,8,33,1,,,,,,,,
,,,,,,,,,,,,,FF,,,,,,,,2.1008,,,,,,,,,,,,,,,,,,,,,,60fcd5771f8903970e9f2c7b,61036e40a0b9920bb45a69e4,2021-07-29_23h13.46.908,Simcolourproject_2stim_asymm_v5,2020.2.10,Win32,60,61025ae37ef11b136ea224fe,,,,,,,,,1315,-25.9999817,-55.66667905,1,0,0,response5disk,,3,12.00001943,-2.666677475,1,0,0,rectangle,12.00001943,-2.666677475,1,0,0,12.00001943,-2.666677475,1,0,0,0,9,9,93,1,,,,,,,,
,,,,,,,,,,,,,FF,,,,,,,,0.9533,,,,,,,,,,,,,,,,,,,,,,60fcd5771f8903970e9f2c7b,61036e40a0b9920bb45a69e4,2021-07-29_23h13.46.908,Simcolourproject_2stim_asymm_v5,2020.2.10,Win32,60,61025ae37ef11b136ea224fe,,,,,,,,,3252,-60.66660871,-38.3333452,1,0,0,response5disk,,2,-24.33331499,11.33332294,1,0,0,rectangle,-24.33331499,11.33332294,1,0,0,-24.33331499,11.33332294,1,0,0,0,10,10,77,1,,,,,,,,
,,,,,,,,,,,,,FF,,,,,,,,0.8171,,,,,,,,,,,,,,,,,,,,,,60fcd5771f8903970e9f2c7b,61036e40a0b9920bb45a69e4,2021-07-29_23h13.46.908,Simcolourproject_2stim_asymm_v5,2020.2.10,Win32,60,61025ae37ef11b136ea224fe,,,,,,,,,1959,-50.33331576,22.66665661,1,0,0,response7disk,,1,-11.66660725,2.999989361,1,0,0,rectangle,-11.66660725,2.999989361,1,0,0,-11.66660725,2.999989361,1,0,0,0,11,11,152,1,,,,,,,,
,,,,,,,,,,,,,FF,,,,,,,,1.0367,,,,,,,,,,,,,,,,,,,,,,60fcd5771f8903970e9f2c7b,61036e40a0b9920bb45a69e4,2021-07-29_23h13.46.908,Simcolourproject_2stim_asymm_v5,2020.2.10,Win32,60,61025ae37ef11b136ea224fe,,,,,,,,,2758,66.00002104,-27.00001153,1,0,0,response3disk,,5,5.666685909,-6.333344251,1,0,0,rectangle,5.666685909,-6.333344251,1,0,0,5.666685909,-6.333344251,1,0,0,0,12,12,86,1,,,,,,,,
,,,,,,,,,,,,,FF,,,,,,,,1.8853,,,,,,,,,,,,,,,,,,,,,,60fcd5771f8903970e9f2c7b,61036e40a0b9920bb45a69e4,2021-07-29_23h13.46.908,Simcolourproject_2stim_asymm_v5,2020.2.10,Win32,60,61025ae37ef11b136ea224fe,,,,,,,,,1739,-21.66660755,-41.66667864,1,0,0,response5disk,,3,-7.333314478,-1.000010759,1,0,0,rectangle,26.66668653,-52.00001228,1,0,0,4.666685879,13.66665635,1,0,0,0,13,13,14,1,,response3disk_3,TRUE,4,4,"[27,232,185,14,254,294,281,288,286,289,86,117,267,296,193,196,141,150,243,114]",1.935,rectangle
,,,,,,,,,,,,,FF,,,,,,,,1.0503,,,,,,,,,,,,,,,,,,,,,,60fcd5771f8903970e9f2c7b,61036e40a0b9920bb45a69e4,2021-07-29_23h13.46.908,Simcolourproject_2stim_asymm_v5,2020.2.10,Win32,60,61025ae37ef11b136ea224fe,,,,,,,,,1755,-49.66660838,27.66665676,1,0,0,response7disk,,1,-7.333314478,-5.333344221,1,0,0,rectangle,-7.333314478,-5.333344221,1,0,0,-7.333314478,-5.333344221,1,0,0,0,14,14,145,1,,,,,,,,
,,,,,,,,,,,,,FF,,,,,,,,1.1504,,,,,,,,,,,,,,,,,,,,,,60fcd5771f8903970e9f2c7b,61036e40a0b9920bb45a69e4,2021-07-29_23h13.46.908,Simcolourproject_2stim_asymm_v5,2020.2.10,Win32,60,61025ae37ef11b136ea224fe,,,,,,,,,2382,60.00002086,16.99998978,1,0,0,response1disk,,6,-7.999981165,3.333322704,1,0,0,rectangle,-7.999981165,3.333322704,1,0,0,-7.999981165,3.333322704,1,0,0,0,15,15,126,1,,,,,,,,
,,,,,,,,,,,,,FF,,,,,,,,0.8836,,,,,,,,,,,,,,,,,,,,,,60fcd5771f8903970e9f2c7b,61036e40a0b9920bb45a69e4,2021-07-29_23h13.46.908,Simcolourproject_2stim_asymm_v5,2020.2.10,Win32,60,61025ae37ef11b136ea224fe,,,,,,,,,3214,41.33339433,29.66665682,1,0,0,response1disk,,6,8.333393345,7.333322823,1,0,0,rectangle,8.333393345,7.333322823,1,0,0,8.333393345,7.333322823,1,0,0,0,16,16,24,1,,,,,,,,
,,,,,,,,,,,,,FF,,,,,,,,1.0666,,,,,,,,,,,,,,,,,,,,,,60fcd5771f8903970e9f2c7b,61036e40a0b9920bb45a69e4,2021-07-29_23h13.46.908,Simcolourproject_2stim_asymm_v5,2020.2.10,Win32,60,61025ae37ef11b136ea224fe,,,,,,,,,1704,-35.33331531,-25.33334482,1,0,0,response5disk,,2,7.666685969,-2.000010788,1,0,0,rectangle,7.666685969,-2.000010788,1,0,0,7.666685969,-2.000010788,1,0,0,0,17,17,137,1,,,,,,,,
,,,,,,,,,,,,,FF,,,,,,,,1.0154,,,,,,,,,,,,,,,,,,,,,,60fcd5771f8903970e9f2c7b,61036e40a0b9920bb45a69e4,2021-07-29_23h13.46.908,Simcolourproject_2stim_asymm_v5,2020.2.10,Win32,60,61025ae37ef11b136ea224fe,,,,,,,,,817,-55.33331591,-23.6666781,1,0,0,response5disk,,2,-10.66660722,-4.666677535,1,0,0,rectangle,-10.66660722,-4.666677535,1,0,0,-10.66660722,-4.666677535,1,0,0,0,18,18,131,1,,,,,,,,
,,,,,,,,,,,,,FF,,,,,,,,1.6333,,,,,,,,,,,,,,,,,,,,,,60fcd5771f8903970e9f2c7b,61036e40a0b9920bb45a69e4,2021-07-29_23h13.46.908,Simcolourproject_2stim_asymm_v5,2020.2.10,Win32,60,61025ae37ef11b136ea224fe,,,,,,,,,2019,51.33335394,-44.00001204,1,0,0,response3disk,,5,6.333393286,-9.33334434,1,0,0,rectangle,6.333393286,-9.33334434,1,0,0,6.333393286,-9.33334434,1,0,0,0,19,19,147,1,,,,,,,,
,,,,,,,,,,,,,FF,,,,,,,,1.2162,,,,,,,,,,,,,,,,,,,,,,60fcd5771f8903970e9f2c7b,61036e40a0b9920bb45a69e4,2021-07-29_23h13.46.908,Simcolourproject_2stim_asymm_v5,2020.2.10,Win32,60,61025ae37ef11b136ea224fe,,,,,,,,,118,58.33335415,-24.00001144,1,0,0,response3disk,,5,21.33339373,9.333322883,1,0,0,rectangle,21.33339373,9.333322883,1,0,0,21.33339373,9.333322883,1,0,0,0,20,20,66,1,,,,,,,,
,,,,,,,,,,,,,FF,,,,,,,,0.9533,,,,,,,,,,,,,,,,,,,,,,60fcd5771f8903970e9f2c7b,61036e40a0b9920bb45a69e4,2021-07-29_23h13.46.908,Simcolourproject_2stim_asymm_v5,2020.2.10,Win32,60,61025ae37ef11b136ea224fe,,,,,,,,,4069,46.00002044,25.6666567,1,0,0,response1disk,,6,-4.333314389,4.333322734,1,0,0,rectangle,-4.333314389,4.333322734,1,0,0,-4.333314389,4.333322734,1,0,0,0,21,21,89,1,,,,,,,,
,,,,,,,,,,,,,FF,,,,,,,,1.183,,,,,,,,,,,,,,,,,,,,,,60fcd5771f8903970e9f2c7b,61036e40a0b9920bb45a69e4,2021-07-29_23h13.46.908,Simcolourproject_2stim_asymm_v5,2020.2.10,Win32,60,61025ae37ef11b136ea224fe,,,,,,,,,508,38.66668689,74.66665816,1,0,0,response1disk,,7,2.333393166,10.9999896,1,0,0,rectangle,2.333393166,10.9999896,1,0,0,2.333393166,10.9999896,1,0,0,0,22,22,99,1,,,,,,,,
,,,,,,,,,,,,,FF,,,,,,,,0.9528,,,,,,,,,,,,,,,,,,,,,,60fcd5771f8903970e9f2c7b,61036e40a0b9920bb45a69e4,2021-07-29_23h13.46.908,Simcolourproject_2stim_asymm_v5,2020.2.10,Win32,60,61025ae37ef11b136ea224fe,,,,,,,,,3154,-32.66660788,18.33332315,1,0,0,response7disk,,1,-13.66660731,5.666656107,1,0,0,rectangle,-13.66660731,5.666656107,1,0,0,-13.66660731,5.666656107,1,0,0,0,23,23,7,1,,,,,,,,
,,,,,,,,,,,,,FF,,,,,,,,1.7362,,,,,,,,,,,,,,,,,,,,,,60fcd5771f8903970e9f2c7b,61036e40a0b9920bb45a69e4,2021-07-29_23h13.46.908,Simcolourproject_2stim_asymm_v5,2020.2.10,Win32,60,61025ae37ef11b136ea224fe,,,,,,,,,487,78.66668808,23.33330295,1,0,0,response1disk,,6,8.000019312,8.666656196,1,0,0,rectangle,8.000019312,8.666656196,1,0,0,8.000019312,8.666656196,1,0,0,0,24,24,47,1,,,,,,,,
,,,,,,,,,,,,,FF,,,,,,,,2.4666,,,,,,,,,,,,,,,,,,,,,,60fcd5771f8903970e9f2c7b,61036e40a0b9920bb45a69e4,2021-07-29_23h13.46.908,Simcolourproject_2stim_asymm_v5,2020.2.10,Win32,60,61025ae37ef11b136ea224fe,,,,,,,,,2135,31.00002,49.99999076,1,0,0,response1disk,,7,7.666685969,12.66665632,1,0,0,rectangle,7.666685969,12.66665632,1,0,0,7.666685969,12.66665632,1,0,0,0,25,25,108,1,,,,,,,,
,,,,,,,,,,,,,FF,,,,,,,,1.2502,,,,,,,,,,,,,,,,,,,,,,60fcd5771f8903970e9f2c7b,61036e40a0b9920bb45a69e4,2021-07-29_23h13.46.908,Simcolourproject_2stim_asymm_v5,2020.2.10,Win32,60,61025ae37ef11b136ea224fe,,,,,,,,,502,45.00002041,47.33330367,1,0,0,response1disk,,7,17.00001958,3.99998939,1,0,0,rectangle,88.33335504,-31.66667834,1,0,0,15.66668621,5.666656107,1,0,0,0,26,26,10,1,,response3disk_3,TRUE,5,5,"[27,232,185,14,254,294,281,288,286,289,86,117,267,296,193,196,141,150,243,114]",1.3834,rectangle
,,,,,,,,,,,,,FF,,,,,,,,0.8494,,,,,,,,,,,,,,,,,,,,,,60fcd5771f8903970e9f2c7b,61036e40a0b9920bb45a69e4,2021-07-29_23h13.46.908,Simcolourproject_2stim_asymm_v5,2020.2.10,Win32,60,61025ae37ef11b136ea224fe,,,,,,,,,1876,54.66668737,78.99999163,1,0,0,response1disk,,7,7.666685969,8.999989539,1,0,0,rectangle,7.666685969,8.999989539,1,0,0,7.666685969,8.999989539,1,0,0,0,27,27,138,1,,,,,,,,
,,,,,,,,,,,,,FF,,,,,,,,0.8167,,,,,,,,,,,,,,,,,,,,,,60fcd5771f8903970e9f2c7b,61036e40a0b9920bb45a69e4,2021-07-29_23h13.46.908,Simcolourproject_2stim_asymm_v5,2020.2.10,Win32,60,61025ae37ef11b136ea224fe,,,,,,,,,893,-53.6666085,20.33330287,1,0,0,response7disk,,1,-6.999981135,1.999989331,1,0,0,rectangle,-6.999981135,1.999989331,1,0,0,-6.999981135,1.999989331,1,0,0,0,28,28,25,1,,,,,,,,
,,,,,,,,,,,,,FF,,,,,,,,0.9002,,,,,,,,,,,,,,,,,,,,,,60fcd5771f8903970e9f2c7b,61036e40a0b9920bb45a69e4,2021-07-29_23h13.46.908,Simcolourproject_2stim_asymm_v5,2020.2.10,Win32,60,61025ae37ef11b136ea224fe,,,,,,,,,3889,46.66668713,-39.66667858,1,0,0,response3disk,,5,7.000019282,9.333322883,1,0,0,rectangle,7.000019282,9.333322883,1,0,0,7.000019282,9.333322883,1,0,0,0,29,29,80,1,,,,,,,,
,,,,,,,,,,,,,FF,,,,,,,,0.7327,,,,,,,,,,,,,,,,,,,,,,60fcd5771f8903970e9f2c7b,61036e40a0b9920bb45a69e4,2021-07-29_23h13.46.908,Simcolourproject_2stim_asymm_v5,2020.2.10,Win32,60,61025ae37ef11b136ea224fe,,,,,,,,,3510,-25.33331501,76.99999157,1,0,0,response7disk,,0,10.66668606,8.999989539,1,0,0,rectangle,10.66668606,8.999989539,1,0,0,10.66668606,8.999989539,1,0,0,0,30,30,21,1,,,,,,,,
,,,,,,,,,,,,,FF,,,,,,,,0.7485,,,,,,,,,,,,,,,,,,,,,,60fcd5771f8903970e9f2c7b,61036e40a0b9920bb45a69e4,2021-07-29_23h13.46.908,Simcolourproject_2stim_asymm_v5,2020.2.10,Win32,60,61025ae37ef11b136ea224fe,,,,,,,,,123,54.33335403,26.99999008,1,0,0,response1disk,,6,23.66668645,10.33332291,1,0,0,rectangle,23.66668645,10.33332291,1,0,0,23.66668645,10.33332291,1,0,0,0,31,31,120,1,,,,,,,,
,,,,,,,,,,,,,FF,,,,,,,,0.7533,,,,,,,,,,,,,,,,,,,,,,60fcd5771f8903970e9f2c7b,61036e40a0b9920bb45a69e4,2021-07-29_23h13.46.908,Simcolourproject_2stim_asymm_v5,2020.2.10,Win32,60,61025ae37ef11b136ea224fe,,,,,,,,,4315,38.33339424,59.66665772,1,0,0,response1disk,,7,6.000019252,7.333322823,1,0,0,rectangle,6.000019252,7.333322823,1,0,0,6.000019252,7.333322823,1,0,0,0,32,32,85,1,,,,,,,,
,,,,,,,,,,,,,FF,,,,,,,,0.6853,,,,,,,,,,,,,,,,,,,,,,60fcd5771f8903970e9f2c7b,61036e40a0b9920bb45a69e4,2021-07-29_23h13.46.908,Simcolourproject_2stim_asymm_v5,2020.2.10,Win32,60,61025ae37ef11b136ea224fe,,,,,,,,,679,28.00001991,63.33330415,1,0,0,response1disk,,7,6.333393286,8.666656196,1,0,0,rectangle,6.333393286,8.666656196,1,0,0,6.333393286,8.666656196,1,0,0,0,33,33,61,1,,,,,,,,
,,,,,,,,,,,,,FF,,,,,,,,1.1494,,,,,,,,,,,,,,,,,,,,,,60fcd5771f8903970e9f2c7b,61036e40a0b9920bb45a69e4,2021-07-29_23h13.46.908,Simcolourproject_2stim_asymm_v5,2020.2.10,Win32,60,61025ae37ef11b136ea224fe,,,,,,,,,222,51.33335394,35.99999034,1,0,0,response1disk,,6,1.66668579,9.666656226,1,0,0,rectangle,1.66668579,9.666656226,1,0,0,1.66668579,9.666656226,1,0,0,0,34,34,41,1,,,,,,,,
,,,,,,,,,,,,,FF,,,,,,,,0.9166,,,,,,,,,,,,,,,,,,,,,,60fcd5771f8903970e9f2c7b,61036e40a0b9920bb45a69e4,2021-07-29_23h13.46.908,Simcolourproject_2stim_asymm_v5,2020.2.10,Win32,60,61025ae37ef11b136ea224fe,,,,,,,,,2547,-58.333316,22.66665661,1,0,0,response7disk,,1,2.66668582,-6.666677594,1,0,0,rectangle,2.66668582,-6.666677594,1,0,0,2.66668582,-6.666677594,1,0,0,0,35,35,146,1,,,,,,,,
,,,,,,,,,,,,,FF,,,,,,,,0.6998,,,,,,,,,,,,,,,,,,,,,,60fcd5771f8903970e9f2c7b,61036e40a0b9920bb45a69e4,2021-07-29_23h13.46.908,Simcolourproject_2stim_asymm_v5,2020.2.10,Win32,60,61025ae37ef11b136ea224fe,,,,,,,,,4013,45.00002041,75.66665819,1,0,0,response1disk,,7,6.666685939,8.999989539,1,0,0,rectangle,6.666685939,8.999989539,1,0,0,6.666685939,8.999989539,1,0,0,0,36,36,116,1,,,,,,,,
,,,,,,,,,,,,,FF,,,,,,,,0.7833,,,,,,,,,,,,,,,,,,,,,,60fcd5771f8903970e9f2c7b,61036e40a0b9920bb45a69e4,2021-07-29_23h13.46.908,Simcolourproject_2stim_asymm_v5,2020.2.10,Win32,60,61025ae37ef11b136ea224fe,,,,,,,,,976,-45.33331561,19.33330284,1,0,0,response7disk,,1,-14.33331469,4.99998942,1,0,0,rectangle,-14.33331469,4.99998942,1,0,0,-14.33331469,4.99998942,1,0,0,0,37,37,130,1,,,,,,,,
,,,,,,,,,,,,,FF,,,,,,,,0.7469,,,,,,,,,,,,,,,,,,,,,,60fcd5771f8903970e9f2c7b,61036e40a0b9920bb45a69e4,2021-07-29_23h13.46.908,Simcolourproject_2stim_asymm_v5,2020.2.10,Win32,60,61025ae37ef11b136ea224fe,,,,,,,,,2637,50.66668725,17.33332312,1,0,0,response1disk,,6,0.333393107,-1.07288E-05,1,0,0,rectangle,0.333393107,-1.07288E-05,1,0,0,0.333393107,-1.07288E-05,1,0,0,0,38,38,50,1,,,,,,,,
,,,,,,,,,,,,,FF,,,,,,,,0.7501,,,,,,,,,,,,,,,,,,,,,,60fcd5771f8903970e9f2c7b,61036e40a0b9920bb45a69e4,2021-07-29_23h13.46.908,Simcolourproject_2stim_asymm_v5,2020.2.10,Win32,60,61025ae37ef11b136ea224fe,,,,,,,,,543,-40.33331546,68.66665798,1,0,0,response7disk,,0,-8.999981195,6.333322793,1,0,0,rectangle,-8.999981195,6.333322793,1,0,0,-8.999981195,6.333322793,1,0,0,0,39,39,2,1,,,,,,,,
,,,,,,,,,,,,,FF,,,,,,,,0.7501,,,,,,,,,,,,,,,,,,,,,,60fcd5771f8903970e9f2c7b,61036e40a0b9920bb45a69e4,2021-07-29_23h13.46.908,Simcolourproject_2stim_asymm_v5,2020.2.10,Win32,60,61025ae37ef11b136ea224fe,,,,,,,,,117,43.00002035,16.99998978,1,0,0,response1disk,,6,9.333393375,4.333322734,1,0,0,rectangle,9.333393375,4.333322734,1,0,0,9.333393375,4.333322734,1,0,0,0,40,40,157,1,,,,,,,,
,,,,,,,,,,,,,FF,,,,,,,,0.7828,,,,,,,,,,,,,,,,,,,,,,60fcd5771f8903970e9f2c7b,61036e40a0b9920bb45a69e4,2021-07-29_23h13.46.908,Simcolourproject_2stim_asymm_v5,2020.2.10,Win32,60,61025ae37ef11b136ea224fe,,,,,,,,,2852,59.33335418,27.33330307,1,0,0,response1disk,,6,27.33339391,11.66665629,1,0,0,rectangle,27.33339391,11.66665629,1,0,0,27.33339391,11.66665629,1,0,0,0,41,41,150,1,,,,,,,,
,,,,,,,,,,,,,FF,,,,,,,,1.5323,,,,,,,,,,,,,,,,,,,,,,60fcd5771f8903970e9f2c7b,61036e40a0b9920bb45a69e4,2021-07-29_23h13.46.908,Simcolourproject_2stim_asymm_v5,2020.2.10,Win32,60,61025ae37ef11b136ea224fe,,,,,,,,,369,-56.33331594,-34.33334509,1,0,0,response5disk,,2,-15.9999814,12.66665632,1,0,0,rectangle,-15.9999814,12.66665632,1,0,0,-15.9999814,12.66665632,1,0,0,0,42,42,129,1,,,,,,,,
,,,,,,,,,,,,,FF,,,,,,,,0.617,,,,,,,,,,,,,,,,,,,,,,60fcd5771f8903970e9f2c7b,61036e40a0b9920bb45a69e4,2021-07-29_23h13.46.908,Simcolourproject_2stim_asymm_v5,2020.2.10,Win32,60,61025ae37ef11b136ea224fe,,,,,,,,,3261,33.66668674,34.66665697,1,0,0,response1disk,,7,1.9735E-05,3.333322704,1,0,0,rectangle,1.9735E-05,3.333322704,1,0,0,1.9735E-05,3.333322704,1,0,0,0,43,43,136,1,,,,,,,,
,,,,,,,,,,,,,FF,,,,,,,,1.2673,,,,,,,,,,,,,,,,,,,,,,60fcd5771f8903970e9f2c7b,61036e40a0b9920bb45a69e4,2021-07-29_23h13.46.908,Simcolourproject_2stim_asymm_v5,2020.2.10,Win32,60,61025ae37ef11b136ea224fe,,,,,,,,,1689,-64.66660883,-35.66667846,1,0,0,response5disk,,2,6.666685939,13.66665635,1,0,0,rectangle,6.666685939,13.66665635,1,0,0,6.666685939,13.66665635,1,0,0,0,44,44,154,1,,,,,,,,
,,,,,,,,,,,,,FF,,,,,,,,0.6656,,,,,,,,,,,,,,,,,,,,,,60fcd5771f8903970e9f2c7b,61036e40a0b9920bb45a69e4,2021-07-29_23h13.46.908,Simcolourproject_2stim_asymm_v5,2020.2.10,Win32,60,61025ae37ef11b136ea224fe,,,,,,,,,241,58.33335415,33.33330325,1,0,0,response1disk,,6,-11.66660725,7.99998951,1,0,0,rectangle,-11.66660725,7.99998951,1,0,0,-11.66660725,7.99998951,1,0,0,0,45,45,118,1,,,,,,,,
,,,,,,,,,,,,,FF,,,,,,,,0.7356,,,,,,,,,,,,,,,,,,,,,,60fcd5771f8903970e9f2c7b,61036e40a0b9920bb45a69e4,2021-07-29_23h13.46.908,Simcolourproject_2stim_asymm_v5,2020.2.10,Win32,60,61025ae37ef11b136ea224fe,,,,,,,,,3339,-59.99998271,38.99999043,1,0,0,response7disk,,1,-5.999981105,1.666655988,1,0,0,rectangle,-5.999981105,1.666655988,1,0,0,-5.999981105,1.666655988,1,0,0,0,46,46,37,1,,,,,,,,
,,,,,,,,,,,,,FF,,,,,,,,0.6664,,,,,,,,,,,,,,,,,,,,,,60fcd5771f8903970e9f2c7b,61036e40a0b9920bb45a69e4,2021-07-29_23h13.46.908,Simcolourproject_2stim_asymm_v5,2020.2.10,Win32,60,61025ae37ef11b136ea224fe,,,,,,,,,1396,36.66668683,24.33330298,1,0,0,response1disk,,6,-11.66660725,3.666656047,1,0,0,rectangle,-11.66660725,3.666656047,1,0,0,-11.66660725,3.666656047,1,0,0,0,47,47,115,1,,,,,,,,
,,,,,,,,,,,,,FF,,,,,,,,0.9669,,,,,,,,,,,,,,,,,,,,,,60fcd5771f8903970e9f2c7b,61036e40a0b9920bb45a69e4,2021-07-29_23h13.46.908,Simcolourproject_2stim_asymm_v5,2020.2.10,Win32,60,61025ae37ef11b136ea224fe,,,,,,,,,4305,-66.33331624,35.99999034,1,0,0,response7disk,,1,11.66668609,-7.666677624,1,0,0,rectangle,11.66668609,-7.666677624,1,0,0,11.66668609,-7.666677624,1,0,0,0,48,48,63,1,,,,,,,,
,,,,,,,,,,,,,FF,,,,,,,,0.8674,,,,,,,,,,,,,,,,,,,,,,60fcd5771f8903970e9f2c7b,61036e40a0b9920bb45a69e4,2021-07-29_23h13.46.908,Simcolourproject_2stim_asymm_v5,2020.2.10,Win32,60,61025ae37ef11b136ea224fe,,,,,,,,,4181,-45.9999823,23.99998999,1,0,0,response7disk,,1,-11.66660725,3.333322704,1,0,0,rectangle,-11.66660725,3.333322704,1,0,0,-11.66660725,3.333322704,1,0,0,0,49,49,141,1,,,,,,,,
,,,,,,,,,,,,,FF,,,,,,,,1.2161,,,,,,,,,,,,,,,,,,,,,,60fcd5771f8903970e9f2c7b,61036e40a0b9920bb45a69e4,2021-07-29_23h13.46.908,Simcolourproject_2stim_asymm_v5,2020.2.10,Win32,60,61025ae37ef11b136ea224fe,,,,,,,,,1847,40.3333943,17.99998981,1,0,0,response1disk,,6,10.66668606,-1.07288E-05,1,0,0,rectangle,10.66668606,-1.07288E-05,1,0,0,10.66668606,-1.07288E-05,1,0,0,0,50,50,45,1,,,,,,,,
,,,,,,,,,,,,,FF,,,,,,,,0.8994,,,,,,,,,,,,,,,,,,,,,,60fcd5771f8903970e9f2c7b,61036e40a0b9920bb45a69e4,2021-07-29_23h13.46.908,Simcolourproject_2stim_asymm_v5,2020.2.10,Win32,60,61025ae37ef11b136ea224fe,,,,,,,,,2945,-69.66660898,36.33330334,1,0,0,response7disk,,1,-17.66660743,-3.666677505,1,0,0,rectangle,-17.66660743,-3.666677505,1,0,0,-17.66660743,-3.666677505,1,0,0,0,51,51,39,1,,,,,,,,
,,,,,,,,,,,,,FF,,,,,,,,0.6,,,,,,,,,,,,,,,,,,,,,,60fcd5771f8903970e9f2c7b,61036e40a0b9920bb45a69e4,2021-07-29_23h13.46.908,Simcolourproject_2stim_asymm_v5,2020.2.10,Win32,60,61025ae37ef11b136ea224fe,,,,,,,,,2925,47.00002047,30.9999902,1,0,0,response1disk,,6,9.333393375,8.333322853,1,0,0,rectangle,9.333393375,8.333322853,1,0,0,9.333393375,8.333322853,1,0,0,0,52,52,105,1,,,,,,,,
,,,,,,,,,,,,,FF,,,,,,,,0.6835,,,,,,,,,,,,,,,,,,,,,,60fcd5771f8903970e9f2c7b,61036e40a0b9920bb45a69e4,2021-07-29_23h13.46.908,Simcolourproject_2stim_asymm_v5,2020.2.10,Win32,60,61025ae37ef11b136ea224fe,,,,,,,,,4278,47.33335382,26.99999008,1,0,0,response1disk,,6,6.666685939,6.99998948,1,0,0,rectangle,6.666685939,6.99998948,1,0,0,6.666685939,6.99998948,1,0,0,0,53,53,140,1,,,,,,,,
,,,,,,,,,,,,,FF,,,,,,,,0.8009,,,,,,,,,,,,,,,,,,,,,,60fcd5771f8903970e9f2c7b,61036e40a0b9920bb45a69e4,2021-07-29_23h13.46.908,Simcolourproject_2stim_asymm_v5,2020.2.10,Win32,60,61025ae37ef11b136ea224fe,,,,,,,,,1961,-59.99998271,36.33330334,1,0,0,response7disk,,1,-24.99998167,10.66665626,1,0,0,rectangle,-24.99998167,10.66665626,1,0,0,-24.99998167,10.66665626,1,0,0,0,54,54,57,1,,,,,,,,
,,,,,,,,,,,,,FF,,,,,,,,0.5663,,,,,,,,,,,,,,,,,,,,,,60fcd5771f8903970e9f2c7b,61036e40a0b9920bb45a69e4,2021-07-29_23h13.46.908,Simcolourproject_2stim_asymm_v5,2020.2.10,Win32,60,61025ae37ef11b136ea224fe,,,,,,,,,1333,49.66668722,34.99999031,1,0,0,response1disk,,6,1.000019103,4.333322734,1,0,0,rectangle,1.000019103,4.333322734,1,0,0,1.000019103,4.333322734,1,0,0,0,55,55,98,1,,,,,,,,
,,,,,,,,,,,,,FF,,,,,,,,0.7334,,,,,,,,,,,,,,,,,,,,,,60fcd5771f8903970e9f2c7b,61036e40a0b9920bb45a69e4,2021-07-29_23h13.46.908,Simcolourproject_2stim_asymm_v5,2020.2.10,Win32,60,61025ae37ef11b136ea224fe,,,,,,,,,142,43.66668704,29.99999017,1,0,0,response1disk,,6,2.000019133,4.99998942,1,0,0,rectangle,2.000019133,4.99998942,1,0,0,2.000019133,4.99998942,1,0,0,0,56,56,43,1,,,,,,,,
,,,,,,,,,,,,,FF,,,,,,,,1.017,,,,,,,,,,,,,,,,,,,,,,60fcd5771f8903970e9f2c7b,61036e40a0b9920bb45a69e4,2021-07-29_23h13.46.908,Simcolourproject_2stim_asymm_v5,2020.2.10,Win32,60,61025ae37ef11b136ea224fe,,,,,,,,,103,-55.9999826,-28.00001156,1,0,0,response5disk,,2,-6.999981135,-13.00001112,1,0,0,rectangle,-6.999981135,-13.00001112,1,0,0,-6.999981135,-13.00001112,1,0,0,0,57,57,103,1,,,,,,,,
,,,,,,,,,,,,,FF,,,,,,,,1.3506,,,,,,,,,,,,,,,,,,,,,,60fcd5771f8903970e9f2c7b,61036e40a0b9920bb45a69e4,2021-07-29_23h13.46.908,Simcolourproject_2stim_asymm_v5,2020.2.10,Win32,60,61025ae37ef11b136ea224fe,,,,,,,,,4173,22.00001973,-78.66667974,1,0,0,response3disk,,4,-3.999981046,-11.00001106,1,0,0,rectangle,-3.999981046,-11.00001106,1,0,0,-3.999981046,-11.00001106,1,0,0,0,58,58,125,1,,,,,,,,
,,,,,,,,,,,,,FF,,,,,,,,0.8,,,,,,,,,,,,,,,,,,,,,,60fcd5771f8903970e9f2c7b,61036e40a0b9920bb45a69e4,2021-07-29_23h13.46.908,Simcolourproject_2stim_asymm_v5,2020.2.10,Win32,60,61025ae37ef11b136ea224fe,,,,,,,,,2831,-32.66660788,55.33330391,1,0,0,response7disk,,0,1.9735E-05,-7.333344281,1,0,0,rectangle,1.9735E-05,-7.333344281,1,0,0,1.9735E-05,-7.333344281,1,0,0,0,59,59,44,1,,,,,,,,
,,,,,,,,,,,,,FF,,,,,,,,0.6667,,,,,,,,,,,,,,,,,,,,,,60fcd5771f8903970e9f2c7b,61036e40a0b9920bb45a69e4,2021-07-29_23h13.46.908,Simcolourproject_2stim_asymm_v5,2020.2.10,Win32,60,61025ae37ef11b136ea224fe,,,,,,,,,2343,48.66668719,20.33330287,1,0,0,response1disk,,6,-5.999981105,-5.000010878,1,0,0,rectangle,-5.999981105,-5.000010878,1,0,0,-5.999981105,-5.000010878,1,0,0,0,60,60,134,1,,,,,,,,
,,,,,,,,,,,,,FF,,,,,,,,0.6857,,,,,,,,,,,,,,,,,,,,,,60fcd5771f8903970e9f2c7b,61036e40a0b9920bb45a69e4,2021-07-29_23h13.46.908,Simcolourproject_2stim_asymm_v5,2020.2.10,Win32,60,61025ae37ef11b136ea224fe,,,,,,,,,3630,-41.66660814,48.66665739,1,0,0,response7disk,,0,-20.66660752,-1.000010759,1,0,0,rectangle,-20.66660752,-1.000010759,1,0,0,-20.66660752,-1.000010759,1,0,0,0,61,61,1,1,,,,,,,,
,,,,,,,,,,,,,FF,,,,,,,,1.0001,,,,,,,,,,,,,,,,,,,,,,60fcd5771f8903970e9f2c7b,61036e40a0b9920bb45a69e4,2021-07-29_23h13.46.908,Simcolourproject_2stim_asymm_v5,2020.2.10,Win32,60,61025ae37ef11b136ea224fe,,,,,,,,,873,-27.66660773,-67.33334607,1,0,0,response5disk,,3,0.333393107,-7.666677624,1,0,0,rectangle,0.333393107,-7.666677624,1,0,0,0.333393107,-7.666677624,1,0,0,0,62,62,95,1,,,,,,,,
,,,,,,,,,,,,,FF,,,,,,,,1.1143,,,,,,,,,,,,,,,,,,,,,,60fcd5771f8903970e9f2c7b,61036e40a0b9920bb45a69e4,2021-07-29_23h13.46.908,Simcolourproject_2stim_asymm_v5,2020.2.10,Win32,60,61025ae37ef11b136ea224fe,,,,,,,,,3574,58.66668749,-35.00001177,1,0,0,response3disk,,5,22.66668642,9.999989569,1,0,0,rectangle,22.66668642,9.999989569,1,0,0,22.66668642,9.999989569,1,0,0,0,63,63,62,1,,,,,,,,
,,,,,,,,,,,,,FF,,,,,,,,1.0334,,,,,,,,,,,,,,,,,,,,,,60fcd5771f8903970e9f2c7b,61036e40a0b9920bb45a69e4,2021-07-29_23h13.46.908,Simcolourproject_2stim_asymm_v5,2020.2.10,Win32,60,61025ae37ef11b136ea224fe,,,,,,,,,2039,-56.66660859,-34.33334509,1,0,0,response5disk,,2,19.00001964,-0.333344072,1,0,0,rectangle,19.00001964,-0.333344072,1,0,0,19.00001964,-0.333344072,1,0,0,0,64,64,49,1,,,,,,,,
,,,,,,,,,,,,,FF,,,,,,,,0.8334,,,,,,,,,,,,,,,,,,,,,,60fcd5771f8903970e9f2c7b,61036e40a0b9920bb45a69e4,2021-07-29_23h13.46.908,Simcolourproject_2stim_asymm_v5,2020.2.10,Win32,60,61025ae37ef11b136ea224fe,,,,,,,,,3721,41.0000203,101.3333053,1,0,0,response1disk,,7,-13.99998134,-11.00001106,1,0,0,rectangle,-13.99998134,-11.00001106,1,0,0,-13.99998134,-11.00001106,1,0,0,0,65,65,68,1,,,,,,,,
,,,,,,,,,,,,,FF,,,,,,,,1.0665,,,,,,,,,,,,,,,,,,,,,,60fcd5771f8903970e9f2c7b,61036e40a0b9920bb45a69e4,2021-07-29_23h13.46.908,Simcolourproject_2stim_asymm_v5,2020.2.10,Win32,60,61025ae37ef11b136ea224fe,,,,,,,,,2489,-67.66660892,-28.00001156,1,0,0,response5disk,,2,-21.3333149,-3.000010818,1,0,0,rectangle,-21.3333149,-3.000010818,1,0,0,-21.3333149,-3.000010818,1,0,0,0,66,66,84,1,,,,,,,,
,,,,,,,,,,,,,FF,,,,,,,,1.1834,,,,,,,,,,,,,,,,,,,,,,60fcd5771f8903970e9f2c7b,61036e40a0b9920bb45a69e4,2021-07-29_23h13.46.908,Simcolourproject_2stim_asymm_v5,2020.2.10,Win32,60,61025ae37ef11b136ea224fe,,,,,,,,,4272,27.66668656,-19.0000113,1,0,0,response3disk,,5,-9.666607191,8.666656196,1,0,0,rectangle,-9.666607191,8.666656196,1,0,0,-9.666607191,8.666656196,1,0,0,0,67,67,36,1,,,,,,,,
,,,,,,,,,,,,,FF,,,,,,,,1.1501,,,,,,,,,,,,,,,,,,,,,,60fcd5771f8903970e9f2c7b,61036e40a0b9920bb45a69e4,2021-07-29_23h13.46.908,Simcolourproject_2stim_asymm_v5,2020.2.10,Win32,60,61025ae37ef11b136ea224fe,,,,,,,,,432,-59.66660868,-23.33334476,1,0,0,response5disk,,2,-18.33331481,-2.000010788,1,0,0,rectangle,-18.33331481,-2.000010788,1,0,0,-18.33331481,-2.000010788,1,0,0,0,68,68,106,1,,,,,,,,
,,,,,,,,,,,,,FF,,,,,,,,1.6836,,,,,,,,,,,,,,,,,,,,,,60fcd5771f8903970e9f2c7b,61036e40a0b9920bb45a69e4,2021-07-29_23h13.46.908,Simcolourproject_2stim_asymm_v5,2020.2.10,Win32,60,61025ae37ef11b136ea224fe,,,,,,,,,3033,50.33335391,58.66665769,1,0,0,response1disk,,7,23.66668645,13.99998969,1,0,0,rectangle,23.66668645,13.99998969,1,0,0,23.66668645,13.99998969,1,0,0,0,69,69,71,1,,,,,,,,
,,,,,,,,,,,,,FF,,,,,,,,0.7494,,,,,,,,,,,,,,,,,,,,,,60fcd5771f8903970e9f2c7b,61036e40a0b9920bb45a69e4,2021-07-29_23h13.46.908,Simcolourproject_2stim_asymm_v5,2020.2.10,Win32,60,61025ae37ef11b136ea224fe,,,,,,,,,4284,37.00002018,75.66665819,1,0,0,response1disk,,7,8.000019312,4.666656077,1,0,0,rectangle,8.000019312,4.666656077,1,0,0,8.000019312,4.666656077,1,0,0,0,70,70,74,1,,,,,,,,
,,,,,,,,,,,,,FF,,,,,,,,1.0674,,,,,,,,,,,,,,,,,,,,,,60fcd5771f8903970e9f2c7b,61036e40a0b9920bb45a69e4,2021-07-29_23h13.46.908,Simcolourproject_2stim_asymm_v5,2020.2.10,Win32,60,61025ae37ef11b136ea224fe,,,,,,,,,315,26.33339388,90.33330495,1,0,0,response1disk,,7,-13.33331466,-8.000010967,1,0,0,rectangle,-13.33331466,-8.000010967,1,0,0,-13.33331466,-8.000010967,1,0,0,0,71,71,13,1,,,,,,,,
,,,,,,,,,,,,,FF,,,,,,,,1.2336,,,,,,,,,,,,,,,,,,,,,,60fcd5771f8903970e9f2c7b,61036e40a0b9920bb45a69e4,2021-07-29_23h13.46.908,Simcolourproject_2stim_asymm_v5,2020.2.10,Win32,60,61025ae37ef11b136ea224fe,,,,,,,,,402,63.66668764,-32.00001168,1,0,0,response3disk,,5,17.00001958,11.33332294,1,0,0,rectangle,17.00001958,11.33332294,1,0,0,17.00001958,11.33332294,1,0,0,0,72,72,48,1,,,,,,,,
,,,,,,,,,,,,,FF,,,,,,,,1.2,,,,,,,,,,,,,,,,,,,,,,60fcd5771f8903970e9f2c7b,61036e40a0b9920bb45a69e4,2021-07-29_23h13.46.908,Simcolourproject_2stim_asymm_v5,2020.2.10,Win32,60,61025ae37ef11b136ea224fe,,,,,,,,,248,32.33339406,-51.33334559,1,0,0,response3disk,,4,15.33339355,-8.000010967,1,0,0,rectangle,15.33339355,-8.000010967,1,0,0,15.33339355,-8.000010967,1,0,0,0,73,73,64,1,,,,,,,,
,,,,,,,,,,,,,FF,,,,,,,,0.9989,,,,,,,,,,,,,,,,,,,,,,60fcd5771f8903970e9f2c7b,61036e40a0b9920bb45a69e4,2021-07-29_23h13.46.908,Simcolourproject_2stim_asymm_v5,2020.2.10,Win32,60,61025ae37ef11b136ea224fe,,,,,,,,,2615,-47.33331567,32.99999025,1,0,0,response7disk,,1,4.333393226,-8.666677654,1,0,0,rectangle,4.333393226,-8.666677654,1,0,0,4.333393226,-8.666677654,1,0,0,0,74,74,34,1,,,,,,,,
,,,,,,,,,,,,,FF,,,,,,,,0.9324,,,,,,,,,,,,,,,,,,,,,,60fcd5771f8903970e9f2c7b,61036e40a0b9920bb45a69e4,2021-07-29_23h13.46.908,Simcolourproject_2stim_asymm_v5,2020.2.10,Win32,60,61025ae37ef11b136ea224fe,,,,,,,,,1472,-67.33331627,-43.00001201,1,0,0,response5disk,,2,-19.33331484,-10.00001103,1,0,0,rectangle,-19.33331484,-10.00001103,1,0,0,-19.33331484,-10.00001103,1,0,0,0,75,75,18,1,,,,,,,,
,,,,,,,,,,,,,FF,,,,,,,,1.5165,,,,,,,,,,,,,,,,,,,,,,60fcd5771f8903970e9f2c7b,61036e40a0b9920bb45a69e4,2021-07-29_23h13.46.908,Simcolourproject_2stim_asymm_v5,2020.2.10,Win32,60,61025ae37ef11b136ea224fe,,,,,,,,,1582,28.33339394,-53.00001231,1,0,0,response3disk,,4,1.66668579,-13.33334446,1,0,0,rectangle,1.66668579,-13.33334446,1,0,0,1.66668579,-13.33334446,1,0,0,0,76,76,144,1,,,,,,,,
,,,,,,,,,,,,,FF,,,,,,,,0.7168,,,,,,,,,,,,,,,,,,,,,,60fcd5771f8903970e9f2c7b,61036e40a0b9920bb45a69e4,2021-07-29_23h13.46.908,Simcolourproject_2stim_asymm_v5,2020.2.10,Win32,60,61025ae37ef11b136ea224fe,,,,,,,,,306,37.33339421,-19.33334464,1,0,0,response3disk,,5,11.0000194,9.666656226,1,0,0,rectangle,11.0000194,9.666656226,1,0,0,11.0000194,9.666656226,1,0,0,0,77,77,153,1,,,,,,,,
,,,,,,,,,,,,,FF,,,,,,,,0.9176,,,,,,,,,,,,,,,,,,,,,,60fcd5771f8903970e9f2c7b,61036e40a0b9920bb45a69e4,2021-07-29_23h13.46.908,Simcolourproject_2stim_asymm_v5,2020.2.10,Win32,60,61025ae37ef11b136ea224fe,,,,,,,,,3538,56.66668743,52.66665751,1,0,0,response1disk,,6,14.66668618,6.99998948,1,0,0,rectangle,14.66668618,6.99998948,1,0,0,14.66668618,6.99998948,1,0,0,0,78,78,29,1,,,,,,,,
,,,,,,,,,,,,,FF,,,,,,,,0.8167,,,,,,,,,,,,,,,,,,,,,,60fcd5771f8903970e9f2c7b,61036e40a0b9920bb45a69e4,2021-07-29_23h13.46.908,Simcolourproject_2stim_asymm_v5,2020.2.10,Win32,60,61025ae37ef11b136ea224fe,,,,,,,,,3851,-40.66660812,-61.33334589,1,0,0,response5disk,,3,0.66668576,-9.000010997,1,0,0,rectangle,0.66668576,-9.000010997,1,0,0,0.66668576,-9.000010997,1,0,0,0,79,79,23,1,,,,,,,,
,,,,,,,,,,,,,FF,,,,,,,,0.7668,,,,,,,,,,,,,,,,,,,,,,60fcd5771f8903970e9f2c7b,61036e40a0b9920bb45a69e4,2021-07-29_23h13.46.908,Simcolourproject_2stim_asymm_v5,2020.2.10,Win32,60,61025ae37ef11b136ea224fe,,,,,,,,,317,41.33339433,30.33330316,1,0,0,response1disk,,6,7.666685969,-8.000010967,1,0,0,rectangle,7.666685969,-8.000010967,1,0,0,7.666685969,-8.000010967,1,0,0,0,80,80,159,1,,,,,,,,
,,,,,,,,,,,,,FF,,,,,,,,1.0669,,,,,,,,,,,,,,,,,,,,,,60fcd5771f8903970e9f2c7b,61036e40a0b9920bb45a69e4,2021-07-29_23h13.46.908,Simcolourproject_2stim_asymm_v5,2020.2.10,Win32,60,61025ae37ef11b136ea224fe,,,,,,,,,2438,-60.99998274,-42.66667867,1,0,0,response5disk,,2,-4.999981076,-5.666677564,1,0,0,rectangle,-4.999981076,-5.666677564,1,0,0,-4.999981076,-5.666677564,1,0,0,0,81,81,6,1,,,,,,,,
,,,,,,,,,,,,,FF,,,,,,,,0.8994,,,,,,,,,,,,,,,,,,,,,,60fcd5771f8903970e9f2c7b,61036e40a0b9920bb45a69e4,2021-07-29_23h13.46.908,Simcolourproject_2stim_asymm_v5,2020.2.10,Win32,60,61025ae37ef11b136ea224fe,,,,,,,,,3666,-71.66660904,-33.33334506,1,0,0,response5disk,,2,-8.333314508,7.333322823,1,0,0,rectangle,-8.333314508,7.333322823,1,0,0,-8.333314508,7.333322823,1,0,0,0,82,82,54,1,,,,,,,,
,,,,,,,,,,,,,FF,,,,,,,,0.8162,,,,,,,,,,,,,,,,,,,,,,60fcd5771f8903970e9f2c7b,61036e40a0b9920bb45a69e4,2021-07-29_23h13.46.908,Simcolourproject_2stim_asymm_v5,2020.2.10,Win32,60,61025ae37ef11b136ea224fe,,,,,,,,,3881,-39.66660809,-44.33334538,1,0,0,response5disk,,3,-19.99998152,-10.33334437,1,0,0,rectangle,-19.99998152,-10.33334437,1,0,0,-19.99998152,-10.33334437,1,0,0,0,83,83,79,1,,,,,,,,
,,,,,,,,,,,,,FF,,,,,,,,1.3332,,,,,,,,,,,,,,,,,,,,,,60fcd5771f8903970e9f2c7b,61036e40a0b9920bb45a69e4,2021-07-29_23h13.46.908,Simcolourproject_2stim_asymm_v5,2020.2.10,Win32,60,61025ae37ef11b136ea224fe,,,,,,,,,2929,55.00002071,26.99999008,1,0,0,response1disk,,6,-4.333314389,-2.000010788,1,0,0,rectangle,-4.333314389,-2.000010788,1,0,0,-4.333314389,-2.000010788,1,0,0,0,84,84,15,1,,,,,,,,
,,,,,,,,,,,,,FF,,,,,,,,0.8502,,,,,,,,,,,,,,,,,,,,,,60fcd5771f8903970e9f2c7b,61036e40a0b9920bb45a69e4,2021-07-29_23h13.46.908,Simcolourproject_2stim_asymm_v5,2020.2.10,Win32,60,61025ae37ef11b136ea224fe,,,,,,,,,2695,32.00002003,52.66665751,1,0,0,response1disk,,7,-1.999980986,-8.000010967,1,0,0,rectangle,77.66668805,-34.66667843,1,0,0,9.666686028,-3.333344162,1,0,0,0,85,85,112,1,,response3disk_3,TRUE,5,5,"[27,232,185,14,254,294,281,288,286,289,86,117,267,296,193,196,141,150,243,114]",1.6341,rectangle
,,,,,,,,,,,,,FF,,,,,,,,1.2166,,,,,,,,,,,,,,,,,,,,,,60fcd5771f8903970e9f2c7b,61036e40a0b9920bb45a69e4,2021-07-29_23h13.46.908,Simcolourproject_2stim_asymm_v5,2020.2.10,Win32,60,61025ae37ef11b136ea224fe,,,,,,,,,4281,-86.66660949,18.66665649,1,0,0,response7disk,,1,12.33339346,-13.33334446,1,0,0,rectangle,12.33339346,-13.33334446,1,0,0,12.33339346,-13.33334446,1,0,0,0,86,86,149,1,,,,,,,,
,,,,,,,,,,,,,FF,,,,,,,,0.7157,,,,,,,,,,,,,,,,,,,,,,60fcd5771f8903970e9f2c7b,61036e40a0b9920bb45a69e4,2021-07-29_23h13.46.908,Simcolourproject_2stim_asymm_v5,2020.2.10,Win32,60,61025ae37ef11b136ea224fe,,,,,,,,,2587,81.00002149,52.33330382,1,0,0,response1disk,,6,7.333393315,-1.07288E-05,1,0,0,rectangle,7.333393315,-1.07288E-05,1,0,0,7.333393315,-1.07288E-05,1,0,0,0,87,87,56,1,,,,,,,,
,,,,,,,,,,,,,FF,,,,,,,,1.0328,,,,,,,,,,,,,,,,,,,,,,60fcd5771f8903970e9f2c7b,61036e40a0b9920bb45a69e4,2021-07-29_23h13.46.908,Simcolourproject_2stim_asymm_v5,2020.2.10,Win32,60,61025ae37ef11b136ea224fe,,,,,,,,,1142,-61.99998277,15.99998975,1,0,0,response7disk,,1,-5.999981105,1.999989331,1,0,0,rectangle,-5.999981105,1.999989331,1,0,0,-5.999981105,1.999989331,1,0,0,0,88,88,158,1,,,,,,,,
,,,,,,,,,,,,,FF,,,,,,,,0.8655,,,,,,,,,,,,,,,,,,,,,,60fcd5771f8903970e9f2c7b,61036e40a0b9920bb45a69e4,2021-07-29_23h13.46.908,Simcolourproject_2stim_asymm_v5,2020.2.10,Win32,60,61025ae37ef11b136ea224fe,,,,,,,,,2331,29.33339397,63.99999118,1,0,0,response1disk,,7,-22.99998161,-13.33334446,1,0,0,rectangle,-22.99998161,-13.33334446,1,0,0,-22.99998161,-13.33334446,1,0,0,0,89,89,107,1,,,,,,,,
,,,,,,,,,,,,,FF,,,,,,,,0.683,,,,,,,,,,,,,,,,,,,,,,60fcd5771f8903970e9f2c7b,61036e40a0b9920bb45a69e4,2021-07-29_23h13.46.908,Simcolourproject_2stim_asymm_v5,2020.2.10,Win32,60,61025ae37ef11b136ea224fe,,,,,,,,,382,-45.9999823,-15.66667786,1,0,0,response5disk,,2,22.66668642,0.333322614,1,0,0,rectangle,22.66668642,0.333322614,1,0,0,22.66668642,0.333322614,1,0,0,0,90,90,127,1,,,,,,,,
,,,,,,,,,,,,,FF,,,,,,,,0.666,,,,,,,,,,,,,,,,,,,,,,60fcd5771f8903970e9f2c7b,61036e40a0b9920bb45a69e4,2021-07-29_23h13.46.908,Simcolourproject_2stim_asymm_v5,2020.2.10,Win32,60,61025ae37ef11b136ea224fe,,,,,,,,,1449,-65.66660886,28.66665679,1,0,0,response7disk,,1,-18.33331481,0.999989301,1,0,0,rectangle,-18.33331481,0.999989301,1,0,0,-18.33331481,0.999989301,1,0,0,0,91,91,3,1,,,,,,,,
,,,,,,,,,,,,,FF,,,,,,,,1.1828,,,,,,,,,,,,,,,,,,,,,,60fcd5771f8903970e9f2c7b,61036e40a0b9920bb45a69e4,2021-07-29_23h13.46.908,Simcolourproject_2stim_asymm_v5,2020.2.10,Win32,60,61025ae37ef11b136ea224fe,,,,,,,,,38,70.00002116,-39.33334523,1,0,0,response3disk,,5,1.66668579,-4.000010848,1,0,0,rectangle,1.66668579,-4.000010848,1,0,0,1.66668579,-4.000010848,1,0,0,0,92,92,30,1,,,,,,,,
,,,,,,,,,,,,,FF,,,,,,,,0.7523,,,,,,,,,,,,,,,,,,,,,,60fcd5771f8903970e9f2c7b,61036e40a0b9920bb45a69e4,2021-07-29_23h13.46.908,Simcolourproject_2stim_asymm_v5,2020.2.10,Win32,60,61025ae37ef11b136ea224fe,,,,,,,,,4005,-31.99998188,-29.00001159,1,0,0,response5disk,,2,-16.99998143,-2.000010788,1,0,0,rectangle,-16.99998143,-2.000010788,1,0,0,-16.99998143,-2.000010788,1,0,0,0,93,93,51,1,,,,,,,,
,,,,,,,,,,,,,FF,,,,,,,,0.9834,,,,,,,,,,,,,,,,,,,,,,60fcd5771f8903970e9f2c7b,61036e40a0b9920bb45a69e4,2021-07-29_23h13.46.908,Simcolourproject_2stim_asymm_v5,2020.2.10,Win32,60,61025ae37ef11b136ea224fe,,,,,,,,,2873,60.66668755,66.66665792,1,0,0,response1disk,,7,16.33339358,-10.33334437,1,0,0,rectangle,16.33339358,-10.33334437,1,0,0,16.33339358,-10.33334437,1,0,0,0,94,94,83,1,,,,,,,,
,,,,,,,,,,,,,FF,,,,,,,,0.8169,,,,,,,,,,,,,,,,,,,,,,60fcd5771f8903970e9f2c7b,61036e40a0b9920bb45a69e4,2021-07-29_23h13.46.908,Simcolourproject_2stim_asymm_v5,2020.2.10,Win32,60,61025ae37ef11b136ea224fe,,,,,,,,,3189,-78.66660925,49.99999076,1,0,0,response7disk,,1,-20.99998155,0.666655958,1,0,0,rectangle,-20.99998155,0.666655958,1,0,0,-20.99998155,0.666655958,1,0,0,0,95,95,73,1,,,,,,,,
,,,,,,,,,,,,,FF,,,,,,,,0.5514,,,,,,,,,,,,,,,,,,,,,,60fcd5771f8903970e9f2c7b,61036e40a0b9920bb45a69e4,2021-07-29_23h13.46.908,Simcolourproject_2stim_asymm_v5,2020.2.10,Win32,60,61025ae37ef11b136ea224fe,,,,,,,,,3430,-63.99998283,29.66665682,1,0,0,response7disk,,1,18.00001961,3.99998939,1,0,0,rectangle,18.00001961,3.99998939,1,0,0,18.00001961,3.99998939,1,0,0,0,96,96,101,1,,,,,,,,
,,,,,,,,,,,,,FF,,,,,,,,0.883,,,,,,,,,,,,,,,,,,,,,,60fcd5771f8903970e9f2c7b,61036e40a0b9920bb45a69e4,2021-07-29_23h13.46.908,Simcolourproject_2stim_asymm_v5,2020.2.10,Win32,60,61025ae37ef11b136ea224fe,,,,,,,,,3749,-59.99998271,30.33330316,1,0,0,response7disk,,1,-1.666606953,2.333322674,1,0,0,rectangle,-1.666606953,2.333322674,1,0,0,-1.666606953,2.333322674,1,0,0,0,97,97,119,1,,,,,,,,
,,,,,,,,,,,,,FF,,,,,,,,1.0309,,,,,,,,,,,,,,,,,,,,,,60fcd5771f8903970e9f2c7b,61036e40a0b9920bb45a69e4,2021-07-29_23h13.46.908,Simcolourproject_2stim_asymm_v5,2020.2.10,Win32,60,61025ae37ef11b136ea224fe,,,,,,,,,2204,39.00002024,69.33330433,1,0,0,response1disk,,7,9.333393375,-1.666677445,1,0,0,rectangle,9.333393375,-1.666677445,1,0,0,9.333393375,-1.666677445,1,0,0,0,98,98,123,1,,,,,,,,
,,,,,,,,,,,,,FF,,,,,,,,1.1683,,,,,,,,,,,,,,,,,,,,,,60fcd5771f8903970e9f2c7b,61036e40a0b9920bb45a69e4,2021-07-29_23h13.46.908,Simcolourproject_2stim_asymm_v5,2020.2.10,Win32,60,61025ae37ef11b136ea224fe,,,,,,,,,1741,-27.99998176,-64.00001264,1,0,0,response5disk,,3,7.333393315,-6.666677594,1,0,0,rectangle,7.333393315,-6.666677594,1,0,0,7.333393315,-6.666677594,1,0,0,0,99,99,117,1,,,,,,,,
,,,,,,,,,,,,,FF,,,,,,,,0.786,,,,,,,,,,,,,,,,,,,,,,60fcd5771f8903970e9f2c7b,61036e40a0b9920bb45a69e4,2021-07-29_23h13.46.908,Simcolourproject_2stim_asymm_v5,2020.2.10,Win32,60,61025ae37ef11b136ea224fe,,,,,,,,,1170,47.00002047,62.66665781,1,0,0,response1disk,,7,-30.33331516,-11.00001106,1,0,0,rectangle,-30.33331516,-11.00001106,1,0,0,-30.33331516,-11.00001106,1,0,0,0,100,100,53,1,,,,,,,,
,,,,,,,,,,,,,FF,,,,,,,,1,,,,,,,,,,,,,,,,,,,,,,60fcd5771f8903970e9f2c7b,61036e40a0b9920bb45a69e4,2021-07-29_23h13.46.908,Simcolourproject_2stim_asymm_v5,2020.2.10,Win32,60,61025ae37ef11b136ea224fe,,,,,,,,,1802,52.33335397,59.66665772,1,0,0,response1disk,,7,9.000019342,2.333322674,1,0,0,rectangle,9.000019342,2.333322674,1,0,0,9.000019342,2.333322674,1,0,0,0,101,101,72,1,,,,,,,,
,,,,,,,,,,,,,FF,,,,,,,,1.7331,,,,,,,,,,,,,,,,,,,,,,60fcd5771f8903970e9f2c7b,61036e40a0b9920bb45a69e4,2021-07-29_23h13.46.908,Simcolourproject_2stim_asymm_v5,2020.2.10,Win32,60,61025ae37ef11b136ea224fe,,,,,,,,,1733,-24.33331499,-58.66667914,1,0,0,response5disk,,3,10.3333934,-5.333344221,1,0,0,rectangle,10.3333934,-5.333344221,1,0,0,10.3333934,-5.333344221,1,0,0,0,102,102,124,1,,,,,,,,
,,,,,,,,,,,,,FF,,,,,,,,1.2834,,,,,,,,,,,,,,,,,,,,,,60fcd5771f8903970e9f2c7b,61036e40a0b9920bb45a69e4,2021-07-29_23h13.46.908,Simcolourproject_2stim_asymm_v5,2020.2.10,Win32,60,61025ae37ef11b136ea224fe,,,,,,,,,3181,56.66668743,-33.33334506,1,0,0,response3disk,,5,7.000019282,9.666656226,1,0,0,rectangle,7.000019282,9.666656226,1,0,0,7.000019282,9.666656226,1,0,0,0,103,103,42,1,,,,,,,,
,,,,,,,,,,,,,FF,,,,,,,,1.3356,,,,,,,,,,,,,,,,,,,,,,60fcd5771f8903970e9f2c7b,61036e40a0b9920bb45a69e4,2021-07-29_23h13.46.908,Simcolourproject_2stim_asymm_v5,2020.2.10,Win32,60,61025ae37ef11b136ea224fe,,,,,,,,,2112,35.6666868,-54.66667902,1,0,0,response3disk,,4,1.333393137,2.333322674,1,0,0,rectangle,1.333393137,2.333322674,1,0,0,1.333393137,2.333322674,1,0,0,0,104,104,46,1,,,,,,,,
,,,,,,,,,,,,,FF,,,,,,,,0.8493,,,,,,,,,,,,,,,,,,,,,,60fcd5771f8903970e9f2c7b,61036e40a0b9920bb45a69e4,2021-07-29_23h13.46.908,Simcolourproject_2stim_asymm_v5,2020.2.10,Win32,60,61025ae37ef11b136ea224fe,,,,,,,,,3992,38.00002021,-25.33334482,1,0,0,response3disk,,5,7.666685969,-4.000010848,1,0,0,rectangle,7.666685969,-4.000010848,1,0,0,7.666685969,-4.000010848,1,0,0,0,105,105,19,1,,,,,,,,
,,,,,,,,,,,,,FF,,,,,,,,0.9333,,,,,,,,,,,,,,,,,,,,,,60fcd5771f8903970e9f2c7b,61036e40a0b9920bb45a69e4,2021-07-29_23h13.46.908,Simcolourproject_2stim_asymm_v5,2020.2.10,Win32,60,61025ae37ef11b136ea224fe,,,,,,,,,3533,81.66668817,33.99999028,1,0,0,response1disk,,6,10.3333934,5.99998945,1,0,0,rectangle,10.3333934,5.99998945,1,0,0,10.3333934,5.99998945,1,0,0,0,106,106,26,1,,,,,,,,
,,,,,,,,,,,,,FF,,,,,,,,0.8836,,,,,,,,,,,,,,,,,,,,,,60fcd5771f8903970e9f2c7b,61036e40a0b9920bb45a69e4,2021-07-29_23h13.46.908,Simcolourproject_2stim_asymm_v5,2020.2.10,Win32,60,61025ae37ef11b136ea224fe,,,,,,,,,4032,-27.66660773,-46.66667879,1,0,0,response5disk,,3,6.000019252,10.9999896,1,0,0,rectangle,6.000019252,10.9999896,1,0,0,6.000019252,10.9999896,1,0,0,0,107,107,32,1,,,,,,,,
,,,,,,,,,,,,,FF,,,,,,,,2.15,,,,,,,,,,,,,,,,,,,,,,60fcd5771f8903970e9f2c7b,61036e40a0b9920bb45a69e4,2021-07-29_23h13.46.908,Simcolourproject_2stim_asymm_v5,2020.2.10,Win32,60,61025ae37ef11b136ea224fe,,,,,,,,,647,-35.66660797,-54.33334568,1,0,0,response5disk,,3,-6.333314449,7.99998951,1,0,0,rectangle,-6.333314449,7.99998951,1,0,0,-6.333314449,7.99998951,1,0,0,0,108,108,8,1,,,,,,,,
,,,,,,,,,,,,,FF,,,,,,,,1.0173,,,,,,,,,,,,,,,,,,,,,,60fcd5771f8903970e9f2c7b,61036e40a0b9920bb45a69e4,2021-07-29_23h13.46.908,Simcolourproject_2stim_asymm_v5,2020.2.10,Win32,60,61025ae37ef11b136ea224fe,,,,,,,,,3120,-36.99998203,-45.66667876,1,0,0,response5disk,,3,-14.33331469,-1.000010759,1,0,0,rectangle,-14.33331469,-1.000010759,1,0,0,-14.33331469,-1.000010759,1,0,0,0,109,109,87,1,,,,,,,,
,,,,,,,,,,,,,FF,,,,,,,,0.7667,,,,,,,,,,,,,,,,,,,,,,60fcd5771f8903970e9f2c7b,61036e40a0b9920bb45a69e4,2021-07-29_23h13.46.908,Simcolourproject_2stim_asymm_v5,2020.2.10,Win32,60,61025ae37ef11b136ea224fe,,,,,,,,,3475,-31.66660785,16.99998978,1,0,0,response7disk,,1,-1.666606953,-1.333344102,1,0,0,rectangle,-1.666606953,-1.333344102,1,0,0,-1.666606953,-1.333344102,1,0,0,0,110,110,113,1,,,,,,,,
,,,,,,,,,,,,,FF,,,,,,,,0.6998,,,,,,,,,,,,,,,,,,,,,,60fcd5771f8903970e9f2c7b,61036e40a0b9920bb45a69e4,2021-07-29_23h13.46.908,Simcolourproject_2stim_asymm_v5,2020.2.10,Win32,60,61025ae37ef11b136ea224fe,,,,,,,,,2442,-33.33331525,-54.66667902,1,0,0,response5disk,,3,14.66668618,13.333323,1,0,0,rectangle,14.66668618,13.333323,1,0,0,14.66668618,13.333323,1,0,0,0,111,111,156,1,,,,,,,,
,,,,,,,,,,,,,FF,,,,,,,,0.698,,,,,,,,,,,,,,,,,,,,,,60fcd5771f8903970e9f2c7b,61036e40a0b9920bb45a69e4,2021-07-29_23h13.46.908,Simcolourproject_2stim_asymm_v5,2020.2.10,Win32,60,61025ae37ef11b136ea224fe,,,,,,,,,4112,60.00002086,-29.33334494,1,0,0,response3disk,,5,18.00001961,1.666655988,1,0,0,rectangle,18.00001961,1.666655988,1,0,0,18.00001961,1.666655988,1,0,0,0,112,112,16,1,,,,,,,,
,,,,,,,,,,,,,FF,,,,,,,,1.8498,,,,,,,,,,,,,,,,,,,,,,60fcd5771f8903970e9f2c7b,61036e40a0b9920bb45a69e4,2021-07-29_23h13.46.908,Simcolourproject_2stim_asymm_v5,2020.2.10,Win32,60,61025ae37ef11b136ea224fe,,,,,,,,,2710,-67.66660892,-28.00001156,1,0,0,response5disk,,2,-10.33331457,9.666656226,1,0,0,rectangle,-26.6666077,86.33330483,1,0,0,1.333393137,12.99998966,1,0,0,0,113,113,28,1,,response7disk_3,TRUE,0,0,"[27,232,185,14,254,294,281,288,286,289,86,117,267,296,193,196,141,150,243,114]",1.7488,rectangle
,,,,,,,,,,,,,FF,,,,,,,,2.0998,,,,,,,,,,,,,,,,,,,,,,60fcd5771f8903970e9f2c7b,61036e40a0b9920bb45a69e4,2021-07-29_23h13.46.908,Simcolourproject_2stim_asymm_v5,2020.2.10,Win32,60,61025ae37ef11b136ea224fe,,,,,,,,,541,53.333354,-38.00001186,1,0,0,response3disk,,5,13.00001946,-1.333344102,1,0,0,rectangle,13.00001946,-1.333344102,1,0,0,13.00001946,-1.333344102,1,0,0,0,114,114,5,1,,,,,,,,
,,,,,,,,,,,,,FF,,,,,,,,1.5999,,,,,,,,,,,,,,,,,,,,,,60fcd5771f8903970e9f2c7b,61036e40a0b9920bb45a69e4,2021-07-29_23h13.46.908,Simcolourproject_2stim_asymm_v5,2020.2.10,Win32,60,61025ae37ef11b136ea224fe,,,,,,,,,2411,50.66668725,38.3333034,1,0,0,response1disk,,6,4.666685879,4.99998942,1,0,0,rectangle,4.666685879,4.99998942,1,0,0,4.666685879,4.99998942,1,0,0,0,115,115,104,1,,,,,,,,
,,,,,,,,,,,,,FF,,,,,,,,1.7665,,,,,,,,,,,,,,,,,,,,,,60fcd5771f8903970e9f2c7b,61036e40a0b9920bb45a69e4,2021-07-29_23h13.46.908,Simcolourproject_2stim_asymm_v5,2020.2.10,Win32,60,61025ae37ef11b136ea224fe,,,,,,,,,4051,-31.66660785,-71.66667953,1,0,0,response5disk,,3,6.666685939,5.333322763,1,0,0,rectangle,39.33339427,-83.66667989,1,0,0,-12.66660728,14.33332303,1,0,0,0,116,116,100,1,,response3disk_3,TRUE,4,4,"[27,232,185,14,254,294,281,288,286,289,86,117,267,296,193,196,141,150,243,114]",1.4835,rectangle
,,,,,,,,,,,,,FF,,,,,,,,0.8832,,,,,,,,,,,,,,,,,,,,,,60fcd5771f8903970e9f2c7b,61036e40a0b9920bb45a69e4,2021-07-29_23h13.46.908,Simcolourproject_2stim_asymm_v5,2020.2.10,Win32,60,61025ae37ef11b136ea224fe,,,,,,,,,3593,-46.33331564,28.66665679,1,0,0,response7disk,,1,-10.33331457,3.666656047,1,0,0,rectangle,-10.33331457,3.666656047,1,0,0,-10.33331457,3.666656047,1,0,0,0,117,117,35,1,,,,,,,,
,,,,,,,,,,,,,FF,,,,,,,,0.9664,,,,,,,,,,,,,,,,,,,,,,60fcd5771f8903970e9f2c7b,61036e40a0b9920bb45a69e4,2021-07-29_23h13.46.908,Simcolourproject_2stim_asymm_v5,2020.2.10,Win32,60,61025ae37ef11b136ea224fe,,,,,,,,,2313,-36.666608,-49.33334553,1,0,0,response5disk,,3,-1.3333143,-5.333344221,1,0,0,rectangle,-1.3333143,-5.333344221,1,0,0,-1.3333143,-5.333344221,1,0,0,0,118,118,135,1,,,,,,,,
,,,,,,,,,,,,,FF,,,,,,,,1.1491,,,,,,,,,,,,,,,,,,,,,,60fcd5771f8903970e9f2c7b,61036e40a0b9920bb45a69e4,2021-07-29_23h13.46.908,Simcolourproject_2stim_asymm_v5,2020.2.10,Win32,60,61025ae37ef11b136ea224fe,,,,,,,,,345,-63.6666088,-36.66667849,1,0,0,response5disk,,2,-25.9999817,-1.333344102,1,0,0,rectangle,-25.9999817,-1.333344102,1,0,0,-25.9999817,-1.333344102,1,0,0,0,119,119,12,1,,,,,,,,
,,,,,,,,,,,,,FF,,,,,,,,0.7666,,,,,,,,,,,,,,,,,,,,,,60fcd5771f8903970e9f2c7b,61036e40a0b9920bb45a69e4,2021-07-29_23h13.46.908,Simcolourproject_2stim_asymm_v5,2020.2.10,Win32,60,61025ae37ef11b136ea224fe,,,,,,,,,1340,65.6666877,-16.66667789,1,0,0,response3disk,,5,19.00001964,-4.000010848,1,0,0,rectangle,19.00001964,-4.000010848,1,0,0,19.00001964,-4.000010848,1,0,0,0,120,120,76,1,,,,,,,,
,,,,,,,,,,,,,FF,,,,,,,,0.8151,,,,,,,,,,,,,,,,,,,,,,60fcd5771f8903970e9f2c7b,61036e40a0b9920bb45a69e4,2021-07-29_23h13.46.908,Simcolourproject_2stim_asymm_v5,2020.2.10,Win32,60,61025ae37ef11b136ea224fe,,,,,,,,,598,24.00001979,-38.00001186,1,0,0,response3disk,,4,-1.999980986,-5.666677564,1,0,0,rectangle,-1.999980986,-5.666677564,1,0,0,-1.999980986,-5.666677564,1,0,0,0,121,121,94,1,,,,,,,,
,,,,,,,,,,,,,FF,,,,,,,,0.9835,,,,,,,,,,,,,,,,,,,,,,60fcd5771f8903970e9f2c7b,61036e40a0b9920bb45a69e4,2021-07-29_23h13.46.908,Simcolourproject_2stim_asymm_v5,2020.2.10,Win32,60,61025ae37ef11b136ea224fe,,,,,,,,,2646,68.0000211,25.99999005,1,0,0,response1disk,,6,2.66668582,-0.333344072,1,0,0,rectangle,2.66668582,-0.333344072,1,0,0,2.66668582,-0.333344072,1,0,0,0,122,122,111,1,,,,,,,,
,,,,,,,,,,,,,FF,,,,,,,,0.6017,,,,,,,,,,,,,,,,,,,,,,60fcd5771f8903970e9f2c7b,61036e40a0b9920bb45a69e4,2021-07-29_23h13.46.908,Simcolourproject_2stim_asymm_v5,2020.2.10,Win32,60,61025ae37ef11b136ea224fe,,,,,,,,,2004,37.33339421,30.66665685,1,0,0,response1disk,,6,-5.999981105,3.333322704,1,0,0,rectangle,-5.999981105,3.333322704,1,0,0,-5.999981105,3.333322704,1,0,0,0,123,123,122,1,,,,,,,,
,,,,,,,,,,,,,FF,,,,,,,,2.4496,,,,,,,,,,,,,,,,,,,,,,60fcd5771f8903970e9f2c7b,61036e40a0b9920bb45a69e4,2021-07-29_23h13.46.908,Simcolourproject_2stim_asymm_v5,2020.2.10,Win32,60,61025ae37ef11b136ea224fe,,,,,,,,,3028,35.33339415,40.66665715,1,0,0,response1disk,,7,-0.999980956,8.666656196,1,0,0,rectangle,-0.999980956,8.666656196,1,0,0,-0.999980956,8.666656196,1,0,0,0,124,124,151,1,,,,,,,,
,,,,,,,,,,,,,FF,,,,,,,,1.0827,,,,,,,,,,,,,,,,,,,,,,60fcd5771f8903970e9f2c7b,61036e40a0b9920bb45a69e4,2021-07-29_23h13.46.908,Simcolourproject_2stim_asymm_v5,2020.2.10,Win32,60,61025ae37ef11b136ea224fe,,,,,,,,,313,53.333354,-33.00001171,1,0,0,response3disk,,5,10.00001937,-3.000010818,1,0,0,rectangle,10.00001937,-3.000010818,1,0,0,10.00001937,-3.000010818,1,0,0,0,125,125,60,1,,,,,,,,
,,,,,,,,,,,,,FF,,,,,,,,0.8835,,,,,,,,,,,,,,,,,,,,,,60fcd5771f8903970e9f2c7b,61036e40a0b9920bb45a69e4,2021-07-29_23h13.46.908,Simcolourproject_2stim_asymm_v5,2020.2.10,Win32,60,61025ae37ef11b136ea224fe,,,,,,,,,525,-72.9999831,36.33330334,1,0,0,response7disk,,1,-18.33331481,8.333322853,1,0,0,rectangle,-18.33331481,8.333322853,1,0,0,-18.33331481,8.333322853,1,0,0,0,126,126,128,1,,,,,,,,
,,,,,,,,,,,,,FF,,,,,,,,0.9494,,,,,,,,,,,,,,,,,,,,,,60fcd5771f8903970e9f2c7b,61036e40a0b9920bb45a69e4,2021-07-29_23h13.46.908,Simcolourproject_2stim_asymm_v5,2020.2.10,Win32,60,61025ae37ef11b136ea224fe,,,,,,,,,2642,48.33335385,-48.00001216,1,0,0,response3disk,,5,-8.999981195,8.999989539,1,0,0,rectangle,-8.999981195,8.999989539,1,0,0,-8.999981195,8.999989539,1,0,0,0,127,127,121,1,,,,,,,,
,,,,,,,,,,,,,FF,,,,,,,,1.3338,,,,,,,,,,,,,,,,,,,,,,60fcd5771f8903970e9f2c7b,61036e40a0b9920bb45a69e4,2021-07-29_23h13.46.908,Simcolourproject_2stim_asymm_v5,2020.2.10,Win32,60,61025ae37ef11b136ea224fe,,,,,,,,,2491,35.6666868,-88.33334669,1,0,0,response3disk,,4,-23.33331496,0.999989301,1,0,0,rectangle,-23.33331496,0.999989301,1,0,0,-23.33331496,0.999989301,1,0,0,0,128,128,102,1,,,,,,,,
,,,,,,,,,,,,,FF,,,,,,,,1.15,,,,,,,,,,,,,,,,,,,,,,60fcd5771f8903970e9f2c7b,61036e40a0b9920bb45a69e4,2021-07-29_23h13.46.908,Simcolourproject_2stim_asymm_v5,2020.2.10,Win32,60,61025ae37ef11b136ea224fe,,,,,,,,,3858,-31.99998188,-62.33334592,1,0,0,response5disk,,3,7.666685969,-6.000010908,1,0,0,rectangle,7.666685969,-6.000010908,1,0,0,7.666685969,-6.000010908,1,0,0,0,129,129,55,1,,,,,,,,
,,,,,,,,,,,,,FF,,,,,,,,1.9825,,,,,,,,,,,,,,,,,,,,,,60fcd5771f8903970e9f2c7b,61036e40a0b9920bb45a69e4,2021-07-29_23h13.46.908,Simcolourproject_2stim_asymm_v5,2020.2.10,Win32,60,61025ae37ef11b136ea224fe,,,,,,,,,2366,-21.66660755,-42.33334532,1,0,0,response5disk,,3,29.33339397,4.99998942,1,0,0,rectangle,29.33339397,4.99998942,1,0,0,29.33339397,4.99998942,1,0,0,0,130,130,97,1,,,,,,,,
,,,,,,,,,,,,,FF,,,,,,,,0.7167,,,,,,,,,,,,,,,,,,,,,,60fcd5771f8903970e9f2c7b,61036e40a0b9920bb45a69e4,2021-07-29_23h13.46.908,Simcolourproject_2stim_asymm_v5,2020.2.10,Win32,60,61025ae37ef11b136ea224fe,,,,,,,,,3045,-18.33331481,66.33330424,1,0,0,response7disk,,0,-1.999980986,8.666656196,1,0,0,rectangle,-1.999980986,8.666656196,1,0,0,-1.999980986,8.666656196,1,0,0,0,131,131,143,1,,,,,,,,
,,,,,,,,,,,,,FF,,,,,,,,1.1665,,,,,,,,,,,,,,,,,,,,,,60fcd5771f8903970e9f2c7b,61036e40a0b9920bb45a69e4,2021-07-29_23h13.46.908,Simcolourproject_2stim_asymm_v5,2020.2.10,Win32,60,61025ae37ef11b136ea224fe,,,,,,,,,368,-54.66660853,53.33330385,1,0,0,response7disk,,1,-9.999981225,7.666656166,1,0,0,rectangle,-9.999981225,7.666656166,1,0,0,-9.999981225,7.666656166,1,0,0,0,132,132,148,1,,,,,,,,
,,,,,,,,,,,,,FF,,,,,,,,1.4661,,,,,,,,,,,,,,,,,,,,,,60fcd5771f8903970e9f2c7b,61036e40a0b9920bb45a69e4,2021-07-29_23h13.46.908,Simcolourproject_2stim_asymm_v5,2020.2.10,Win32,60,61025ae37ef11b136ea224fe,,,,,,,,,4288,63.66668764,36.33330334,1,0,0,response1disk,,6,-21.66660755,9.666656226,1,0,0,rectangle,-21.66660755,9.666656226,1,0,0,-21.66660755,9.666656226,1,0,0,0,133,133,90,1,,,,,,,,
,,,,,,,,,,,,,FF,,,,,,,,1.1829,,,,,,,,,,,,,,,,,,,,,,60fcd5771f8903970e9f2c7b,61036e40a0b9920bb45a69e4,2021-07-29_23h13.46.908,Simcolourproject_2stim_asymm_v5,2020.2.10,Win32,60,61025ae37ef11b136ea224fe,,,,,,,,,1073,61.66668758,-31.66667834,1,0,0,response3disk,,5,5.333393256,0.333322614,1,0,0,rectangle,5.333393256,0.333322614,1,0,0,5.333393256,0.333322614,1,0,0,0,134,134,20,1,,,,,,,,
,,,,,,,,,,,,,FF,,,,,,,,0.783,,,,,,,,,,,,,,,,,,,,,,60fcd5771f8903970e9f2c7b,61036e40a0b9920bb45a69e4,2021-07-29_23h13.46.908,Simcolourproject_2stim_asymm_v5,2020.2.10,Win32,60,61025ae37ef11b136ea224fe,,,,,,,,,1937,28.00001991,-53.66667899,1,0,0,response3disk,,4,1.333393137,-5.333344221,1,0,0,rectangle,1.333393137,-5.333344221,1,0,0,1.333393137,-5.333344221,1,0,0,0,135,135,81,1,,,,,,,,
,,,,,,,,,,,,,FF,,,,,,,,1.3327,,,,,,,,,,,,,,,,,,,,,,60fcd5771f8903970e9f2c7b,61036e40a0b9920bb45a69e4,2021-07-29_23h13.46.908,Simcolourproject_2stim_asymm_v5,2020.2.10,Win32,60,61025ae37ef11b136ea224fe,,,,,,,,,1668,30.333394,-59.66667917,1,0,0,response3disk,,4,-5.666607072,2.333322674,1,0,0,rectangle,-5.666607072,2.333322674,1,0,0,-5.666607072,2.333322674,1,0,0,0,136,136,9,1,,,,,,,,
,,,,,,,,,,,,,FF,,,,,,,,0.8664,,,,,,,,,,,,,,,,,,,,,,60fcd5771f8903970e9f2c7b,61036e40a0b9920bb45a69e4,2021-07-29_23h13.46.908,Simcolourproject_2stim_asymm_v5,2020.2.10,Win32,60,61025ae37ef11b136ea224fe,,,,,,,,,3712,-57.99998266,41.66665718,1,0,0,response7disk,,1,-16.99998143,6.666656137,1,0,0,rectangle,-16.99998143,6.666656137,1,0,0,-16.99998143,6.666656137,1,0,0,0,137,137,96,1,,,,,,,,
,,,,,,,,,,,,,FF,,,,,,,,0.9834,,,,,,,,,,,,,,,,,,,,,,60fcd5771f8903970e9f2c7b,61036e40a0b9920bb45a69e4,2021-07-29_23h13.46.908,Simcolourproject_2stim_asymm_v5,2020.2.10,Win32,60,61025ae37ef11b136ea224fe,,,,,,,,,3287,-38.99998209,29.66665682,1,0,0,response7disk,,1,-7.999981165,11.33332294,1,0,0,rectangle,-7.999981165,11.33332294,1,0,0,-7.999981165,11.33332294,1,0,0,0,138,138,65,1,,,,,,,,
,,,,,,,,,,,,,FF,,,,,,,,0.9166,,,,,,,,,,,,,,,,,,,,,,60fcd5771f8903970e9f2c7b,61036e40a0b9920bb45a69e4,2021-07-29_23h13.46.908,Simcolourproject_2stim_asymm_v5,2020.2.10,Win32,60,61025ae37ef11b136ea224fe,,,,,,,,,1238,30.333394,-48.3333455,1,0,0,response3disk,,4,8.000019312,-13.00001112,1,0,0,rectangle,8.000019312,-13.00001112,1,0,0,8.000019312,-13.00001112,1,0,0,0,139,139,69,1,,,,,,,,
,,,,,,,,,,,,,FF,,,,,,,,2.6163,,,,,,,,,,,,,,,,,,,,,,60fcd5771f8903970e9f2c7b,61036e40a0b9920bb45a69e4,2021-07-29_23h13.46.908,Simcolourproject_2stim_asymm_v5,2020.2.10,Win32,60,61025ae37ef11b136ea224fe,,,,,,,,,3679,-66.66660889,-47.66667882,1,0,0,response5disk,,2,-1.666606953,-10.33334437,1,0,0,rectangle,40.66668695,-93.66668019,1,0,0,-5.666607072,11.33332294,1,0,0,0,140,140,110,1,,response3disk_3,TRUE,4,4,"[27,232,185,14,254,294,281,288,286,289,86,117,267,296,193,196,141,150,243,114]",1.216,rectangle
,,,,,,,,,,,,,FF,,,,,,,,0.8997,,,,,,,,,,,,,,,,,,,,,,60fcd5771f8903970e9f2c7b,61036e40a0b9920bb45a69e4,2021-07-29_23h13.46.908,Simcolourproject_2stim_asymm_v5,2020.2.10,Win32,60,61025ae37ef11b136ea224fe,,,,,,,,,1114,-13.99998134,-30.33334497,1,0,0,response5disk,,3,-10.66660722,6.333322793,1,0,0,rectangle,-10.66660722,6.333322793,1,0,0,-10.66660722,6.333322793,1,0,0,0,141,141,70,1,,,,,,,,
,,,,,,,,,,,,,FF,,,,,,,,0.7827,,,,,,,,,,,,,,,,,,,,,,60fcd5771f8903970e9f2c7b,61036e40a0b9920bb45a69e4,2021-07-29_23h13.46.908,Simcolourproject_2stim_asymm_v5,2020.2.10,Win32,60,61025ae37ef11b136ea224fe,,,,,,,,,2920,-42.33331552,-67.33334607,1,0,0,response5disk,,3,-12.66660728,-2.000010788,1,0,0,rectangle,-12.66660728,-2.000010788,1,0,0,-12.66660728,-2.000010788,1,0,0,0,142,142,31,1,,,,,,,,
,,,,,,,,,,,,,FF,,,,,,,,0.7165,,,,,,,,,,,,,,,,,,,,,,60fcd5771f8903970e9f2c7b,61036e40a0b9920bb45a69e4,2021-07-29_23h13.46.908,Simcolourproject_2stim_asymm_v5,2020.2.10,Win32,60,61025ae37ef11b136ea224fe,,,,,,,,,1872,34.33339412,-23.6666781,1,0,0,response3disk,,5,5.000019222,-7.666677624,1,0,0,rectangle,5.000019222,-7.666677624,1,0,0,5.000019222,-7.666677624,1,0,0,0,143,143,22,1,,,,,,,,
,,,,,,,,,,,,,FF,,,,,,,,0.7308,,,,,,,,,,,,,,,,,,,,,,60fcd5771f8903970e9f2c7b,61036e40a0b9920bb45a69e4,2021-07-29_23h13.46.908,Simcolourproject_2stim_asymm_v5,2020.2.10,Win32,60,61025ae37ef11b136ea224fe,,,,,,,,,362,-26.33331504,-41.00001195,1,0,0,response5disk,,3,-8.999981195,-8.333344311,1,0,0,rectangle,-8.999981195,-8.333344311,1,0,0,-8.999981195,-8.333344311,1,0,0,0,144,144,109,1,,,,,,,,
,,,,,,,,,,,,,FF,,,,,,,,0.7999,,,,,,,,,,,,,,,,,,,,,,60fcd5771f8903970e9f2c7b,61036e40a0b9920bb45a69e4,2021-07-29_23h13.46.908,Simcolourproject_2stim_asymm_v5,2020.2.10,Win32,60,61025ae37ef11b136ea224fe,,,,,,,,,2043,-46.66660829,-18.66667795,1,0,0,response5disk,,2,-11.3333146,-3.333344162,1,0,0,rectangle,-11.3333146,-3.333344162,1,0,0,-11.3333146,-3.333344162,1,0,0,0,145,145,40,1,,,,,,,,
,,,,,,,,,,,,,FF,,,,,,,,1.0333,,,,,,,,,,,,,,,,,,,,,,60fcd5771f8903970e9f2c7b,61036e40a0b9920bb45a69e4,2021-07-29_23h13.46.908,Simcolourproject_2stim_asymm_v5,2020.2.10,Win32,60,61025ae37ef11b136ea224fe,,,,,,,,,128,61.66668758,-20.66667801,1,0,0,response3disk,,5,10.00001937,11.99998963,1,0,0,rectangle,10.00001937,11.99998963,1,0,0,10.00001937,11.99998963,1,0,0,0,146,146,4,1,,,,,,,,
,,,,,,,,,,,,,FF,,,,,,,,0.8502,,,,,,,,,,,,,,,,,,,,,,60fcd5771f8903970e9f2c7b,61036e40a0b9920bb45a69e4,2021-07-29_23h13.46.908,Simcolourproject_2stim_asymm_v5,2020.2.10,Win32,60,61025ae37ef11b136ea224fe,,,,,,,,,2488,-64.66660883,40.99999049,1,0,0,response7disk,,1,-9.666607191,10.66665626,1,0,0,rectangle,-9.666607191,10.66665626,1,0,0,-9.666607191,10.66665626,1,0,0,0,147,147,139,1,,,,,,,,
,,,,,,,,,,,,,FF,,,,,,,,0.6812,,,,,,,,,,,,,,,,,,,,,,60fcd5771f8903970e9f2c7b,61036e40a0b9920bb45a69e4,2021-07-29_23h13.46.908,Simcolourproject_2stim_asymm_v5,2020.2.10,Win32,60,61025ae37ef11b136ea224fe,,,,,,,,,3296,-50.99998245,23.99998999,1,0,0,response7disk,,1,-13.66660731,2.999989361,1,0,0,rectangle,-13.66660731,2.999989361,1,0,0,-13.66660731,2.999989361,1,0,0,0,148,148,82,1,,,,,,,,
,,,,,,,,,,,,,FF,,,,,,,,0.634,,,,,,,,,,,,,,,,,,,,,,60fcd5771f8903970e9f2c7b,61036e40a0b9920bb45a69e4,2021-07-29_23h13.46.908,Simcolourproject_2stim_asymm_v5,2020.2.10,Win32,60,61025ae37ef11b136ea224fe,,,,,,,,,1981,54.66668737,17.99998981,1,0,0,response1disk,,6,1.333393137,2.999989361,1,0,0,rectangle,-60.66660871,-59.33334583,1,0,0,-23.33331496,-0.333344072,1,0,0,0,149,149,52,1,,response5disk_3,TRUE,2,3,"[27,232,185,14,254,294,281,288,286,289,86,117,267,296,193,196,141,150,243,114]",2.5659,rectangle
,,,,,,,,,,,,,FF,,,,,,,,0.785,,,,,,,,,,,,,,,,,,,,,,60fcd5771f8903970e9f2c7b,61036e40a0b9920bb45a69e4,2021-07-29_23h13.46.908,Simcolourproject_2stim_asymm_v5,2020.2.10,Win32,60,61025ae37ef11b136ea224fe,,,,,,,,,2232,-47.66660832,-20.66667801,1,0,0,response5disk,,2,-3.666607012,2.999989361,1,0,0,rectangle,-3.666607012,2.999989361,1,0,0,-3.666607012,2.999989361,1,0,0,0,150,150,92,1,,,,,,,,
,,,,,,,,,,,,,FF,,,,,,,,0.7516,,,,,,,,,,,,,,,,,,,,,,60fcd5771f8903970e9f2c7b,61036e40a0b9920bb45a69e4,2021-07-29_23h13.46.908,Simcolourproject_2stim_asymm_v5,2020.2.10,Win32,60,61025ae37ef11b136ea224fe,,,,,,,,,400,56.66668743,-23.33334476,1,0,0,response3disk,,5,10.00001937,-4.333344191,1,0,0,rectangle,10.00001937,-4.333344191,1,0,0,10.00001937,-4.333344191,1,0,0,0,151,151,78,1,,,,,,,,
,,,,,,,,,,,,,FF,,,,,,,,0.6996,,,,,,,,,,,,,,,,,,,,,,60fcd5771f8903970e9f2c7b,61036e40a0b9920bb45a69e4,2021-07-29_23h13.46.908,Simcolourproject_2stim_asymm_v5,2020.2.10,Win32,60,61025ae37ef11b136ea224fe,,,,,,,,,2336,36.66668683,-23.00001141,1,0,0,response3disk,,5,-10.66660722,-3.333344162,1,0,0,rectangle,-10.66660722,-3.333344162,1,0,0,-10.66660722,-3.333344162,1,0,0,0,152,152,67,1,,,,,,,,
,,,,,,,,,,,,,FF,,,,,,,,0.6991,,,,,,,,,,,,,,,,,,,,,,60fcd5771f8903970e9f2c7b,61036e40a0b9920bb45a69e4,2021-07-29_23h13.46.908,Simcolourproject_2stim_asymm_v5,2020.2.10,Win32,60,61025ae37ef11b136ea224fe,,,,,,,,,178,29.66668662,-57.33334577,1,0,0,response3disk,,4,1.000019103,-8.000010967,1,0,0,rectangle,1.000019103,-8.000010967,1,0,0,1.000019103,-8.000010967,1,0,0,0,153,153,75,1,,,,,,,,
,,,,,,,,,,,,,FF,,,,,,,,0.6848,,,,,,,,,,,,,,,,,,,,,,60fcd5771f8903970e9f2c7b,61036e40a0b9920bb45a69e4,2021-07-29_23h13.46.908,Simcolourproject_2stim_asymm_v5,2020.2.10,Win32,60,61025ae37ef11b136ea224fe,,,,,,,,,3360,53.333354,30.66665685,1,0,0,response1disk,,6,1.000019103,7.99998951,1,0,0,rectangle,1.000019103,7.99998951,1,0,0,1.000019103,7.99998951,1,0,0,0,154,154,59,1,,,,,,,,
,,,,,,,,,,,,,FF,,,,,,,,0.6165,,,,,,,,,,,,,,,,,,,,,,60fcd5771f8903970e9f2c7b,61036e40a0b9920bb45a69e4,2021-07-29_23h13.46.908,Simcolourproject_2stim_asymm_v5,2020.2.10,Win32,60,61025ae37ef11b136ea224fe,,,,,,,,,3955,59.33335418,28.66665679,1,0,0,response1disk,,6,-11.99998128,0.666655958,1,0,0,rectangle,-11.99998128,0.666655958,1,0,0,-11.99998128,0.666655958,1,0,0,0,155,155,91,1,,,,,,,,
,,,,,,,,,,,,,FF,,,,,,,,0.8335,,,,,,,,,,,,,,,,,,,,,,60fcd5771f8903970e9f2c7b,61036e40a0b9920bb45a69e4,2021-07-29_23h13.46.908,Simcolourproject_2stim_asymm_v5,2020.2.10,Win32,60,61025ae37ef11b136ea224fe,,,,,,,,,1132,-72.9999831,45.33330361,1,0,0,response7disk,,1,-9.999981225,10.9999896,1,0,0,rectangle,-9.999981225,10.9999896,1,0,0,-9.999981225,10.9999896,1,0,0,0,156,156,11,1,,,,,,,,
,,,,,,,,,,,,,FF,,,,,,,,0.7833,,,,,,,,,,,,,,,,,,,,,,60fcd5771f8903970e9f2c7b,61036e40a0b9920bb45a69e4,2021-07-29_23h13.46.908,Simcolourproject_2stim_asymm_v5,2020.2.10,Win32,60,61025ae37ef11b136ea224fe,,,,,,,,,4122,-48.99998239,28.99999014,1,0,0,response7disk,,1,-18.99998149,2.333322674,1,0,0,rectangle,-18.99998149,2.333322674,1,0,0,-18.99998149,2.333322674,1,0,0,0,157,157,132,1,,,,,,,,
,,,,,,,,,,,,,FF,,,,,,,,0.6995,,,,,,,,,,,,,,,,,,,,,,60fcd5771f8903970e9f2c7b,61036e40a0b9920bb45a69e4,2021-07-29_23h13.46.908,Simcolourproject_2stim_asymm_v5,2020.2.10,Win32,60,61025ae37ef11b136ea224fe,,,,,,,,,1790,-23.99998164,-37.66667852,1,0,0,response5disk,,3,-2.333314329,-10.66667771,1,0,0,rectangle,-2.333314329,-10.66667771,1,0,0,-2.333314329,-10.66667771,1,0,0,0,158,158,114,1,,,,,,,,
,,,,,,,,,,,,,FF,,,,,,,,1.2831,,,,,,,,,,,,,,,,,,,,,,60fcd5771f8903970e9f2c7b,61036e40a0b9920bb45a69e4,2021-07-29_23h13.46.908,Simcolourproject_2stim_asymm_v5,2020.2.10,Win32,60,61025ae37ef11b136ea224fe,,,,,,,,,1077,34.66668677,-63.00001261,1,0,0,response3disk,,4,7.333393315,-1.07288E-05,1,0,0,rectangle,7.333393315,-1.07288E-05,1,0,0,7.333393315,-1.07288E-05,1,0,0,0,159,159,88,1,,,,,,,,
,,,,,,,,,,,,,FF,,,,,,,,0.6834,,,,,,,,,,,,,,,,,,,,,,60fcd5771f8903970e9f2c7b,61036e40a0b9920bb45a69e4,2021-07-29_23h13.46.908,Simcolourproject_2stim_asymm_v5,2020.2.10,Win32,60,61025ae37ef11b136ea224fe,,,,,,,,,109,48.66668719,-20.00001132,1,0,0,response3disk,,5,11.0000194,12.66665632,1,0,0,rectangle,11.0000194,12.66665632,1,0,0,11.0000194,12.66665632,1,0,0,1,0,160,140,1,,,,,,,,
,,,,,,,,,,,,,FF,,,,,,,,0.7832,,,,,,,,,,,,,,,,,,,,,,60fcd5771f8903970e9f2c7b,61036e40a0b9920bb45a69e4,2021-07-29_23h13.46.908,Simcolourproject_2stim_asymm_v5,2020.2.10,Win32,60,61025ae37ef11b136ea224fe,,,,,,,,,3460,-65.33331621,-18.66667795,1,0,0,response5disk,,2,12.00001943,-1.666677445,1,0,0,rectangle,12.00001943,-1.666677445,1,0,0,12.00001943,-1.666677445,1,0,0,1,1,161,85,1,,,,,,,,
,,,,,,,,,,,,,FF,,,,,,,,0.6663,,,,,,,,,,,,,,,,,,,,,,60fcd5771f8903970e9f2c7b,61036e40a0b9920bb45a69e4,2021-07-29_23h13.46.908,Simcolourproject_2stim_asymm_v5,2020.2.10,Win32,60,61025ae37ef11b136ea224fe,,,,,,,,,3429,-63.99998283,50.33330376,1,0,0,response7disk,,1,-1.666606953,3.333322704,1,0,0,rectangle,-1.666606953,3.333322704,1,0,0,-1.666606953,3.333322704,1,0,0,1,2,162,13,1,,,,,,,,
,,,,,,,,,,,,,FF,,,,,,,,1.3815,,,,,,,,,,,,,,,,,,,,,,60fcd5771f8903970e9f2c7b,61036e40a0b9920bb45a69e4,2021-07-29_23h13.46.908,Simcolourproject_2stim_asymm_v5,2020.2.10,Win32,60,61025ae37ef11b136ea224fe,,,,,,,,,2406,62.33335426,29.66665682,1,0,0,response1disk,,6,2.333393166,-10.00001103,1,0,0,rectangle,2.333393166,-10.00001103,1,0,0,2.333393166,-10.00001103,1,0,0,1,3,163,114,1,,,,,,,,
,,,,,,,,,,,,,FF,,,,,,,,0.7661,,,,,,,,,,,,,,,,,,,,,,60fcd5771f8903970e9f2c7b,61036e40a0b9920bb45a69e4,2021-07-29_23h13.46.908,Simcolourproject_2stim_asymm_v5,2020.2.10,Win32,60,61025ae37ef11b136ea224fe,,,,,,,,,1894,-65.99998289,42.66665721,1,0,0,response7disk,,1,-13.66660731,7.333322823,1,0,0,rectangle,-13.66660731,7.333322823,1,0,0,-13.66660731,7.333322823,1,0,0,1,4,164,73,1,,,,,,,,
,,,,,,,,,,,,,FF,,,,,,,,0.6168,,,,,,,,,,,,,,,,,,,,,,60fcd5771f8903970e9f2c7b,61036e40a0b9920bb45a69e4,2021-07-29_23h13.46.908,Simcolourproject_2stim_asymm_v5,2020.2.10,Win32,60,61025ae37ef11b136ea224fe,,,,,,,,,3401,39.33339427,14.33332303,1,0,0,response1disk,,6,5.666685909,-6.333344251,1,0,0,rectangle,5.666685909,-6.333344251,1,0,0,5.666685909,-6.333344251,1,0,0,1,5,165,101,1,,,,,,,,
,,,,,,,,,,,,,FF,,,,,,,,1.3167,,,,,,,,,,,,,,,,,,,,,,60fcd5771f8903970e9f2c7b,61036e40a0b9920bb45a69e4,2021-07-29_23h13.46.908,Simcolourproject_2stim_asymm_v5,2020.2.10,Win32,60,61025ae37ef11b136ea224fe,,,,,,,,,1866,54.33335403,74.66665816,1,0,0,response1disk,,7,16.33339358,-1.07288E-05,1,0,0,rectangle,16.33339358,-1.07288E-05,1,0,0,16.33339358,-1.07288E-05,1,0,0,1,6,166,106,1,,,,,,,,
,,,,,,,,,,,,,FF,,,,,,,,0.7166,,,,,,,,,,,,,,,,,,,,,,60fcd5771f8903970e9f2c7b,61036e40a0b9920bb45a69e4,2021-07-29_23h13.46.908,Simcolourproject_2stim_asymm_v5,2020.2.10,Win32,60,61025ae37ef11b136ea224fe,,,,,,,,,2927,78.66668808,45.33330361,1,0,0,response1disk,,6,18.33339364,-5.000010878,1,0,0,rectangle,18.33339364,-5.000010878,1,0,0,18.33339364,-5.000010878,1,0,0,1,7,167,139,1,,,,,,,,
,,,,,,,,,,,,,FF,,,,,,,,1.2318,,,,,,,,,,,,,,,,,,,,,,60fcd5771f8903970e9f2c7b,61036e40a0b9920bb45a69e4,2021-07-29_23h13.46.908,Simcolourproject_2stim_asymm_v5,2020.2.10,Win32,60,61025ae37ef11b136ea224fe,,,,,,,,,4360,-39.33331543,-65.33334601,1,0,0,response5disk,,3,15.33339355,-8.000010967,1,0,0,rectangle,15.33339355,-8.000010967,1,0,0,15.33339355,-8.000010967,1,0,0,1,8,168,142,1,,,,,,,,
,,,,,,,,,,,,,FF,,,,,,,,0.7704,,,,,,,,,,,,,,,,,,,,,,60fcd5771f8903970e9f2c7b,61036e40a0b9920bb45a69e4,2021-07-29_23h13.46.908,Simcolourproject_2stim_asymm_v5,2020.2.10,Win32,60,61025ae37ef11b136ea224fe,,,,,,,,,1315,-54.66660853,-24.00001144,1,0,0,response5disk,,2,-15.33331472,-1.333344102,1,0,0,rectangle,-15.33331472,-1.333344102,1,0,0,-15.33331472,-1.333344102,1,0,0,1,9,169,37,1,,,,,,,,
,,,,,,,,,,,,,FF,,,,,,,,0.6667,,,,,,,,,,,,,,,,,,,,,,60fcd5771f8903970e9f2c7b,61036e40a0b9920bb45a69e4,2021-07-29_23h13.46.908,Simcolourproject_2stim_asymm_v5,2020.2.10,Win32,60,61025ae37ef11b136ea224fe,,,,,,,,,3252,-36.666608,24.33330298,1,0,0,response7disk,,1,-9.666607191,11.33332294,1,0,0,rectangle,-9.666607191,11.33332294,1,0,0,-9.666607191,11.33332294,1,0,0,1,10,170,132,1,,,,,,,,
,,,,,,,,,,,,,FF,,,,,,,,0.6042,,,,,,,,,,,,,,,,,,,,,,60fcd5771f8903970e9f2c7b,61036e40a0b9920bb45a69e4,2021-07-29_23h13.46.908,Simcolourproject_2stim_asymm_v5,2020.2.10,Win32,60,61025ae37ef11b136ea224fe,,,,,,,,,1959,-47.66660832,16.99998978,1,0,0,response7disk,,1,-16.6666074,-2.333344132,1,0,0,rectangle,-16.6666074,-2.333344132,1,0,0,-16.6666074,-2.333344132,1,0,0,1,11,171,81,1,,,,,,,,
,,,,,,,,,,,,,FF,,,,,,,,0.65,,,,,,,,,,,,,,,,,,,,,,60fcd5771f8903970e9f2c7b,61036e40a0b9920bb45a69e4,2021-07-29_23h13.46.908,Simcolourproject_2stim_asymm_v5,2020.2.10,Win32,60,61025ae37ef11b136ea224fe,,,,,,,,,2758,62.66668761,22.66665661,1,0,0,response1disk,,6,-9.666607191,-10.00001103,1,0,0,rectangle,-9.666607191,-10.00001103,1,0,0,-9.666607191,-10.00001103,1,0,0,1,12,172,11,1,,,,,,,,
,,,,,,,,,,,,,FF,,,,,,,,1.1999,,,,,,,,,,,,,,,,,,,,,,60fcd5771f8903970e9f2c7b,61036e40a0b9920bb45a69e4,2021-07-29_23h13.46.908,Simcolourproject_2stim_asymm_v5,2020.2.10,Win32,60,61025ae37ef11b136ea224fe,,,,,,,,,1739,-30.33331516,-48.66667885,1,0,0,response5disk,,3,7.666685969,0.333322614,1,0,0,rectangle,7.666685969,0.333322614,1,0,0,7.666685969,0.333322614,1,0,0,1,13,173,98,1,,,,,,,,
,,,,,,,,,,,,,FF,,,,,,,,0.6352,,,,,,,,,,,,,,,,,,,,,,60fcd5771f8903970e9f2c7b,61036e40a0b9920bb45a69e4,2021-07-29_23h13.46.908,Simcolourproject_2stim_asymm_v5,2020.2.10,Win32,60,61025ae37ef11b136ea224fe,,,,,,,,,1755,-47.99998236,-17.33334458,1,0,0,response5disk,,2,-0.666606923,2.999989361,1,0,0,rectangle,-0.666606923,2.999989361,1,0,0,-0.666606923,2.999989361,1,0,0,1,14,174,21,1,,,,,,,,
,,,,,,,,,,,,,FF,,,,,,,,0.983,,,,,,,,,,,,,,,,,,,,,,60fcd5771f8903970e9f2c7b,61036e40a0b9920bb45a69e4,2021-07-29_23h13.46.908,Simcolourproject_2stim_asymm_v5,2020.2.10,Win32,60,61025ae37ef11b136ea224fe,,,,,,,,,2382,85.66668829,34.66665697,1,0,0,response1disk,,6,2.66668582,6.333322793,1,0,0,rectangle,2.66668582,6.333322793,1,0,0,2.66668582,6.333322793,1,0,0,1,15,175,93,1,,,,,,,,
,,,,,,,,,,,,,FF,,,,,,,,1.2829,,,,,,,,,,,,,,,,,,,,,,60fcd5771f8903970e9f2c7b,61036e40a0b9920bb45a69e4,2021-07-29_23h13.46.908,Simcolourproject_2stim_asymm_v5,2020.2.10,Win32,60,61025ae37ef11b136ea224fe,,,,,,,,,3214,53.00002065,-30.66667831,1,0,0,response3disk,,5,2.000019133,-2.333344132,1,0,0,rectangle,2.000019133,-2.333344132,1,0,0,2.000019133,-2.333344132,1,0,0,1,16,176,8,1,,,,,,,,
,,,,,,,,,,,,,FF,,,,,,,,0.683,,,,,,,,,,,,,,,,,,,,,,60fcd5771f8903970e9f2c7b,61036e40a0b9920bb45a69e4,2021-07-29_23h13.46.908,Simcolourproject_2stim_asymm_v5,2020.2.10,Win32,60,61025ae37ef11b136ea224fe,,,,,,,,,1704,49.66668722,-37.66667852,1,0,0,response3disk,,5,5.666685909,-4.666677535,1,0,0,rectangle,5.666685909,-4.666677535,1,0,0,5.666685909,-4.666677535,1,0,0,1,17,177,150,1,,,,,,,,
,,,,,,,,,,,,,FF,,,,,,,,1.1666,,,,,,,,,,,,,,,,,,,,,,60fcd5771f8903970e9f2c7b,61036e40a0b9920bb45a69e4,2021-07-29_23h13.46.908,Simcolourproject_2stim_asymm_v5,2020.2.10,Win32,60,61025ae37ef11b136ea224fe,,,,,,,,,817,-20.66660752,-48.3333455,1,0,0,response5disk,,3,8.333393345,5.333322763,1,0,0,rectangle,8.333393345,5.333322763,1,0,0,8.333393345,5.333322763,1,0,0,1,18,178,19,1,,,,,,,,
,,,,,,,,,,,,,FF,,,,,,,,0.6001,,,,,,,,,,,,,,,,,,,,,,60fcd5771f8903970e9f2c7b,61036e40a0b9920bb45a69e4,2021-07-29_23h13.46.908,Simcolourproject_2stim_asymm_v5,2020.2.10,Win32,60,61025ae37ef11b136ea224fe,,,,,,,,,2019,29.66668662,-36.0000118,1,0,0,response3disk,,4,10.00001937,3.333322704,1,0,0,rectangle,10.00001937,3.333322704,1,0,0,10.00001937,3.333322704,1,0,0,1,19,179,144,1,,,,,,,,
,,,,,,,,,,,,,FF,,,,,,,,1.2163,,,,,,,,,,,,,,,,,,,,,,60fcd5771f8903970e9f2c7b,61036e40a0b9920bb45a69e4,2021-07-29_23h13.46.908,Simcolourproject_2stim_asymm_v5,2020.2.10,Win32,60,61025ae37ef11b136ea224fe,,,,,,,,,118,56.00002074,43.66665724,1,0,0,response1disk,,6,-11.66660725,-8.000010967,1,0,0,rectangle,-11.66660725,-8.000010967,1,0,0,-11.66660725,-8.000010967,1,0,0,1,20,180,43,1,,,,,,,,
,,,,,,,,,,,,,FF,,,,,,,,1.2327,,,,,,,,,,,,,,,,,,,,,,60fcd5771f8903970e9f2c7b,61036e40a0b9920bb45a69e4,2021-07-29_23h13.46.908,Simcolourproject_2stim_asymm_v5,2020.2.10,Win32,60,61025ae37ef11b136ea224fe,,,,,,,,,4069,49.00002053,25.33330301,1,0,0,response1disk,,6,13.33339349,4.333322734,1,0,0,rectangle,13.33339349,4.333322734,1,0,0,13.33339349,4.333322734,1,0,0,1,21,181,149,1,,,,,,,,
,,,,,,,,,,,,,FF,,,,,,,,0.6666,,,,,,,,,,,,,,,,,,,,,,60fcd5771f8903970e9f2c7b,61036e40a0b9920bb45a69e4,2021-07-29_23h13.46.908,Simcolourproject_2stim_asymm_v5,2020.2.10,Win32,60,61025ae37ef11b136ea224fe,,,,,,,,,508,67.66668776,35.666657,1,0,0,response1disk,,6,-10.99998125,8.333322853,1,0,0,rectangle,-10.99998125,8.333322853,1,0,0,-10.99998125,8.333322853,1,0,0,1,22,182,82,1,,,,,,,,
,,,,,,,,,,,,,FF,,,,,,,,0.6168,,,,,,,,,,,,,,,,,,,,,,60fcd5771f8903970e9f2c7b,61036e40a0b9920bb45a69e4,2021-07-29_23h13.46.908,Simcolourproject_2stim_asymm_v5,2020.2.10,Win32,60,61025ae37ef11b136ea224fe,,,,,,,,,3154,-55.9999826,25.33330301,1,0,0,response7disk,,1,-14.99998137,-1.000010759,1,0,0,rectangle,-14.99998137,-1.000010759,1,0,0,-14.99998137,-1.000010759,1,0,0,1,23,183,120,1,,,,,,,,
,,,,,,,,,,,,,FF,,,,,,,,0.5336,,,,,,,,,,,,,,,,,,,,,,60fcd5771f8903970e9f2c7b,61036e40a0b9920bb45a69e4,2021-07-29_23h13.46.908,Simcolourproject_2stim_asymm_v5,2020.2.10,Win32,60,61025ae37ef11b136ea224fe,,,,,,,,,487,71.00002119,24.33330298,1,0,0,response1disk,,6,7.000019282,5.99998945,1,0,0,rectangle,-33.99998194,72.6666581,1,0,0,-12.99998131,-13.00001112,1,0,0,1,24,184,156,1,,response7disk_3,TRUE,0,0,"[27,232,185,14,254,294,281,288,286,289,86,117,267,296,193,196,141,150,243,114]",1.5679,rectangle
,,,,,,,,,,,,,FF,,,,,,,,0.5499,,,,,,,,,,,,,,,,,,,,,,60fcd5771f8903970e9f2c7b,61036e40a0b9920bb45a69e4,2021-07-29_23h13.46.908,Simcolourproject_2stim_asymm_v5,2020.2.10,Win32,60,61025ae37ef11b136ea224fe,,,,,,,,,2135,37.66668686,25.99999005,1,0,0,response1disk,,6,-2.999981016,5.666656107,1,0,0,rectangle,-2.999981016,5.666656107,1,0,0,-2.999981016,5.666656107,1,0,0,1,25,185,6,1,,,,,,,,
,,,,,,,,,,,,,FF,,,,,,,,0.7484,,,,,,,,,,,,,,,,,,,,,,60fcd5771f8903970e9f2c7b,61036e40a0b9920bb45a69e4,2021-07-29_23h13.46.908,Simcolourproject_2stim_asymm_v5,2020.2.10,Win32,60,61025ae37ef11b136ea224fe,,,,,,,,,502,49.66668722,41.99999052,1,0,0,response1disk,,6,-6.333314449,0.333322614,1,0,0,rectangle,-6.333314449,0.333322614,1,0,0,-6.333314449,0.333322614,1,0,0,1,26,186,104,1,,,,,,,,
,,,,,,,,,,,,,FF,,,,,,,,0.7499,,,,,,,,,,,,,,,,,,,,,,60fcd5771f8903970e9f2c7b,61036e40a0b9920bb45a69e4,2021-07-29_23h13.46.908,Simcolourproject_2stim_asymm_v5,2020.2.10,Win32,60,61025ae37ef11b136ea224fe,,,,,,,,,1876,49.33335388,-25.00001147,1,0,0,response3disk,,5,4.666685879,-8.000010967,1,0,0,rectangle,4.666685879,-8.000010967,1,0,0,4.666685879,-8.000010967,1,0,0,1,27,187,1,1,,,,,,,,
,,,,,,,,,,,,,FF,,,,,,,,0.6332,,,,,,,,,,,,,,,,,,,,,,60fcd5771f8903970e9f2c7b,61036e40a0b9920bb45a69e4,2021-07-29_23h13.46.908,Simcolourproject_2stim_asymm_v5,2020.2.10,Win32,60,61025ae37ef11b136ea224fe,,,,,,,,,893,-50.99998245,19.33330284,1,0,0,response7disk,,1,-24.66660764,7.333322823,1,0,0,rectangle,-24.66660764,7.333322823,1,0,0,-24.66660764,7.333322823,1,0,0,1,28,188,53,1,,,,,,,,
,,,,,,,,,,,,,FF,,,,,,,,0.5834,,,,,,,,,,,,,,,,,,,,,,60fcd5771f8903970e9f2c7b,61036e40a0b9920bb45a69e4,2021-07-29_23h13.46.908,Simcolourproject_2stim_asymm_v5,2020.2.10,Win32,60,61025ae37ef11b136ea224fe,,,,,,,,,3889,60.3333542,23.99998999,1,0,0,response1disk,,6,10.66668606,7.333322823,1,0,0,rectangle,10.66668606,7.333322823,1,0,0,10.66668606,7.333322823,1,0,0,1,29,189,15,1,,,,,,,,
,,,,,,,,,,,,,FF,,,,,,,,0.8494,,,,,,,,,,,,,,,,,,,,,,60fcd5771f8903970e9f2c7b,61036e40a0b9920bb45a69e4,2021-07-29_23h13.46.908,Simcolourproject_2stim_asymm_v5,2020.2.10,Win32,60,61025ae37ef11b136ea224fe,,,,,,,,,3510,-41.99998218,91.66665867,1,0,0,response7disk,,0,-12.99998131,-5.000010878,1,0,0,rectangle,-12.99998131,-5.000010878,1,0,0,-12.99998131,-5.000010878,1,0,0,1,30,190,7,1,,,,,,,,
,,,,,,,,,,,,,FF,,,,,,,,0.8829,,,,,,,,,,,,,,,,,,,,,,60fcd5771f8903970e9f2c7b,61036e40a0b9920bb45a69e4,2021-07-29_23h13.46.908,Simcolourproject_2stim_asymm_v5,2020.2.10,Win32,60,61025ae37ef11b136ea224fe,,,,,,,,,123,33.00002006,27.99999011,1,0,0,response1disk,,6,5.000019222,-3.000010818,1,0,0,rectangle,5.000019222,-3.000010818,1,0,0,5.000019222,-3.000010818,1,0,0,1,31,191,94,1,,,,,,,,
,,,,,,,,,,,,,FF,,,,,,,,0.8501,,,,,,,,,,,,,,,,,,,,,,60fcd5771f8903970e9f2c7b,61036e40a0b9920bb45a69e4,2021-07-29_23h13.46.908,Simcolourproject_2stim_asymm_v5,2020.2.10,Win32,60,61025ae37ef11b136ea224fe,,,,,,,,,4315,33.66668674,64.66665787,1,0,0,response1disk,,7,14.00001949,7.333322823,1,0,0,rectangle,38.00002021,88.99999192,1,0,0,2.333393166,-0.666677415,1,0,0,1,32,192,61,1,,response1disk_3,TRUE,7,7,"[27,232,185,14,254,294,281,288,286,289,86,117,267,296,193,196,141,150,243,114]",2.1449,rectangle
,,,,,,,,,,,,,FF,,,,,,,,0.6164,,,,,,,,,,,,,,,,,,,,,,60fcd5771f8903970e9f2c7b,61036e40a0b9920bb45a69e4,2021-07-29_23h13.46.908,Simcolourproject_2stim_asymm_v5,2020.2.10,Win32,60,61025ae37ef11b136ea224fe,,,,,,,,,679,54.00002068,27.99999011,1,0,0,response1disk,,6,-3.666607012,9.999989569,1,0,0,rectangle,-3.666607012,9.999989569,1,0,0,-3.666607012,9.999989569,1,0,0,1,33,193,58,1,,,,,,,,
,,,,,,,,,,,,,FF,,,,,,,,0.6495,,,,,,,,,,,,,,,,,,,,,,60fcd5771f8903970e9f2c7b,61036e40a0b9920bb45a69e4,2021-07-29_23h13.46.908,Simcolourproject_2stim_asymm_v5,2020.2.10,Win32,60,61025ae37ef11b136ea224fe,,,,,,,,,222,66.00002104,19.66665652,1,0,0,response1disk,,6,1.333393137,4.666656077,1,0,0,rectangle,1.333393137,4.666656077,1,0,0,1.333393137,4.666656077,1,0,0,1,34,194,107,1,,,,,,,,
,,,,,,,,,,,,,FF,,,,,,,,0.9666,,,,,,,,,,,,,,,,,,,,,,60fcd5771f8903970e9f2c7b,61036e40a0b9920bb45a69e4,2021-07-29_23h13.46.908,Simcolourproject_2stim_asymm_v5,2020.2.10,Win32,60,61025ae37ef11b136ea224fe,,,,,,,,,2547,-37.66660803,-53.00001231,1,0,0,response5disk,,3,8.000019312,0.333322614,1,0,0,rectangle,-61.33331609,-19.33334464,1,0,0,2.333393166,1.999989331,1,0,0,1,35,195,44,1,,response5disk_3,TRUE,2,2,"[27,232,185,14,254,294,281,288,286,289,86,117,267,296,193,196,141,150,243,114]",1.7144,rectangle
,,,,,,,,,,,,,FF,,,,,,,,0.6672,,,,,,,,,,,,,,,,,,,,,,60fcd5771f8903970e9f2c7b,61036e40a0b9920bb45a69e4,2021-07-29_23h13.46.908,Simcolourproject_2stim_asymm_v5,2020.2.10,Win32,60,61025ae37ef11b136ea224fe,,,,,,,,,4013,49.00002053,-28.66667825,1,0,0,response3disk,,5,5.666685909,-7.000010937,1,0,0,rectangle,5.666685909,-7.000010937,1,0,0,5.666685909,-7.000010937,1,0,0,1,36,196,46,1,,,,,,,,
,,,,,,,,,,,,,FF,,,,,,,,0.8517,,,,,,,,,,,,,,,,,,,,,,60fcd5771f8903970e9f2c7b,61036e40a0b9920bb45a69e4,2021-07-29_23h13.46.908,Simcolourproject_2stim_asymm_v5,2020.2.10,Win32,60,61025ae37ef11b136ea224fe,,,,,,,,,976,-45.33331561,22.33330293,1,0,0,response7disk,,1,-6.666607102,1.999989331,1,0,0,rectangle,-6.666607102,1.999989331,1,0,0,-6.666607102,1.999989331,1,0,0,1,37,197,16,1,,,,,,,,
,,,,,,,,,,,,,FF,,,,,,,,0.6847,,,,,,,,,,,,,,,,,,,,,,60fcd5771f8903970e9f2c7b,61036e40a0b9920bb45a69e4,2021-07-29_23h13.46.908,Simcolourproject_2stim_asymm_v5,2020.2.10,Win32,60,61025ae37ef11b136ea224fe,,,,,,,,,2637,48.0000205,-22.00001138,1,0,0,response3disk,,5,10.3333934,-8.333344311,1,0,0,rectangle,10.3333934,-8.333344311,1,0,0,10.3333934,-8.333344311,1,0,0,1,38,198,110,1,,,,,,,,
,,,,,,,,,,,,,FF,,,,,,,,0.6514,,,,,,,,,,,,,,,,,,,,,,60fcd5771f8903970e9f2c7b,61036e40a0b9920bb45a69e4,2021-07-29_23h13.46.908,Simcolourproject_2stim_asymm_v5,2020.2.10,Win32,60,61025ae37ef11b136ea224fe,,,,,,,,,543,-43.6666082,68.66665798,1,0,0,response7disk,,0,-4.333314389,-7.333344281,1,0,0,rectangle,-4.333314389,-7.333344281,1,0,0,-4.333314389,-7.333344281,1,0,0,1,39,199,74,1,,,,,,,,
,,,,,,,,,,,,,FF,,,,,,,,1.0685,,,,,,,,,,,,,,,,,,,,,,60fcd5771f8903970e9f2c7b,61036e40a0b9920bb45a69e4,2021-07-29_23h13.46.908,Simcolourproject_2stim_asymm_v5,2020.2.10,Win32,60,61025ae37ef11b136ea224fe,,,,,,,,,117,66.00002104,-17.33334458,1,0,0,response3disk,,5,10.3333934,2.999989361,1,0,0,rectangle,10.3333934,2.999989361,1,0,0,10.3333934,2.999989361,1,0,0,1,40,200,138,1,,,,,,,,
,,,,,,,,,,,,,FF,,,,,,,,0.8669,,,,,,,,,,,,,,,,,,,,,,60fcd5771f8903970e9f2c7b,61036e40a0b9920bb45a69e4,2021-07-29_23h13.46.908,Simcolourproject_2stim_asymm_v5,2020.2.10,Win32,60,61025ae37ef11b136ea224fe,,,,,,,,,2852,55.33335406,32.33330322,1,0,0,response1disk,,6,11.33339343,8.333322853,1,0,0,rectangle,11.33339343,8.333322853,1,0,0,11.33339343,8.333322853,1,0,0,1,41,201,71,1,,,,,,,,
,,,,,,,,,,,,,FF,,,,,,,,0.9667,,,,,,,,,,,,,,,,,,,,,,60fcd5771f8903970e9f2c7b,61036e40a0b9920bb45a69e4,2021-07-29_23h13.46.908,Simcolourproject_2stim_asymm_v5,2020.2.10,Win32,60,61025ae37ef11b136ea224fe,,,,,,,,,369,-44.66660823,-68.00001276,1,0,0,response5disk,,3,4.666685879,2.333322674,1,0,0,rectangle,4.666685879,2.333322674,1,0,0,4.666685879,2.333322674,1,0,0,1,42,202,3,1,,,,,,,,
,,,,,,,,,,,,,FF,,,,,,,,1.2335,,,,,,,,,,,,,,,,,,,,,,60fcd5771f8903970e9f2c7b,61036e40a0b9920bb45a69e4,2021-07-29_23h13.46.908,Simcolourproject_2stim_asymm_v5,2020.2.10,Win32,60,61025ae37ef11b136ea224fe,,,,,,,,,3261,45.33335376,-18.66667795,1,0,0,response3disk,,5,11.66668609,-1.333344102,1,0,0,rectangle,11.66668609,-1.333344102,1,0,0,11.66668609,-1.333344102,1,0,0,1,43,203,45,1,,,,,,,,
,,,,,,,,,,,,,FF,,,,,,,,0.7833,,,,,,,,,,,,,,,,,,,,,,60fcd5771f8903970e9f2c7b,61036e40a0b9920bb45a69e4,2021-07-29_23h13.46.908,Simcolourproject_2stim_asymm_v5,2020.2.10,Win32,60,61025ae37ef11b136ea224fe,,,,,,,,,1689,-22.66660758,-32.00001168,1,0,0,response5disk,,3,-9.666607191,-13.33334446,1,0,0,rectangle,-9.666607191,-13.33334446,1,0,0,-9.666607191,-13.33334446,1,0,0,1,44,204,141,1,,,,,,,,
,,,,,,,,,,,,,FF,,,,,,,,1.0337,,,,,,,,,,,,,,,,,,,,,,60fcd5771f8903970e9f2c7b,61036e40a0b9920bb45a69e4,2021-07-29_23h13.46.908,Simcolourproject_2stim_asymm_v5,2020.2.10,Win32,60,61025ae37ef11b136ea224fe,,,,,,,,,241,65.33335435,30.33330316,1,0,0,response1disk,,6,14.33339352,4.333322734,1,0,0,rectangle,14.33339352,4.333322734,1,0,0,14.33339352,4.333322734,1,0,0,1,45,205,29,1,,,,,,,,
,,,,,,,,,,,,,FF,,,,,,,,0.9667,,,,,,,,,,,,,,,,,,,,,,60fcd5771f8903970e9f2c7b,61036e40a0b9920bb45a69e4,2021-07-29_23h13.46.908,Simcolourproject_2stim_asymm_v5,2020.2.10,Win32,60,61025ae37ef11b136ea224fe,,,,,,,,,3339,-48.99998239,-28.33334491,1,0,0,response5disk,,2,23.33339379,-6.000010908,1,0,0,rectangle,23.33339379,-6.000010908,1,0,0,23.33339379,-6.000010908,1,0,0,1,46,206,143,1,,,,,,,,
,,,,,,,,,,,,,FF,,,,,,,,0.8334,,,,,,,,,,,,,,,,,,,,,,60fcd5771f8903970e9f2c7b,61036e40a0b9920bb45a69e4,2021-07-29_23h13.46.908,Simcolourproject_2stim_asymm_v5,2020.2.10,Win32,60,61025ae37ef11b136ea224fe,,,,,,,,,1396,52.33335397,-36.66667849,1,0,0,response3disk,,5,8.333393345,-6.000010908,1,0,0,rectangle,8.333393345,-6.000010908,1,0,0,8.333393345,-6.000010908,1,0,0,1,47,207,112,1,,,,,,,,
,,,,,,,,,,,,,FF,,,,,,,,0.9668,,,,,,,,,,,,,,,,,,,,,,60fcd5771f8903970e9f2c7b,61036e40a0b9920bb45a69e4,2021-07-29_23h13.46.908,Simcolourproject_2stim_asymm_v5,2020.2.10,Win32,60,61025ae37ef11b136ea224fe,,,,,,,,,4305,-46.66660829,38.3333034,1,0,0,response7disk,,1,5.666685909,5.666656107,1,0,0,rectangle,5.666685909,5.666656107,1,0,0,5.666685909,5.666656107,1,0,0,1,48,208,26,1,,,,,,,,
,,,,,,,,,,,,,FF,,,,,,,,0.6161,,,,,,,,,,,,,,,,,,,,,,60fcd5771f8903970e9f2c7b,61036e40a0b9920bb45a69e4,2021-07-29_23h13.46.908,Simcolourproject_2stim_asymm_v5,2020.2.10,Win32,60,61025ae37ef11b136ea224fe,,,,,,,,,4181,-22.33331493,53.99999088,1,0,0,response7disk,,0,-3.666607012,2.333322674,1,0,0,rectangle,-3.666607012,2.333322674,1,0,0,-3.666607012,2.333322674,1,0,0,1,49,209,90,1,,,,,,,,
,,,,,,,,,,,,,FF,,,,,,,,0.5646,,,,,,,,,,,,,,,,,,,,,,60fcd5771f8903970e9f2c7b,61036e40a0b9920bb45a69e4,2021-07-29_23h13.46.908,Simcolourproject_2stim_asymm_v5,2020.2.10,Win32,60,61025ae37ef11b136ea224fe,,,,,,,,,1847,55.00002071,21.66665658,1,0,0,response1disk,,6,8.000019312,1.999989331,1,0,0,rectangle,8.000019312,1.999989331,1,0,0,8.000019312,1.999989331,1,0,0,1,50,210,27,1,,,,,,,,
,,,,,,,,,,,,,FF,,,,,,,,1.8673,,,,,,,,,,,,,,,,,,,,,,60fcd5771f8903970e9f2c7b,61036e40a0b9920bb45a69e4,2021-07-29_23h13.46.908,Simcolourproject_2stim_asymm_v5,2020.2.10,Win32,60,61025ae37ef11b136ea224fe,,,,,,,,,2945,-52.33331582,24.99999002,1,0,0,response7disk,,1,-22.99998161,2.333322674,1,0,0,rectangle,-22.99998161,2.333322674,1,0,0,-22.99998161,2.333322674,1,0,0,1,51,211,18,1,,,,,,,,
,,,,,,,,,,,,,FF,,,,,,,,0.8836,,,,,,,,,,,,,,,,,,,,,,60fcd5771f8903970e9f2c7b,61036e40a0b9920bb45a69e4,2021-07-29_23h13.46.908,Simcolourproject_2stim_asymm_v5,2020.2.10,Win32,60,61025ae37ef11b136ea224fe,,,,,,,,,2925,76.00002134,44.99999061,1,0,0,response1disk,,6,-15.33331472,0.999989301,1,0,0,rectangle,-15.33331472,0.999989301,1,0,0,-15.33331472,0.999989301,1,0,0,1,52,212,152,1,,,,,,,,
,,,,,,,,,,,,,FF,,,,,,,,1.2833,,,,,,,,,,,,,,,,,,,,,,60fcd5771f8903970e9f2c7b,61036e40a0b9920bb45a69e4,2021-07-29_23h13.46.908,Simcolourproject_2stim_asymm_v5,2020.2.10,Win32,60,61025ae37ef11b136ea224fe,,,,,,,,,4278,-60.99998274,-29.00001159,1,0,0,response5disk,,2,-16.33331475,-13.00001112,1,0,0,rectangle,-16.33331475,-13.00001112,1,0,0,-16.33331475,-13.00001112,1,0,0,1,53,213,75,1,,,,,,,,
,,,,,,,,,,,,,FF,,,,,,,,0.983,,,,,,,,,,,,,,,,,,,,,,60fcd5771f8903970e9f2c7b,61036e40a0b9920bb45a69e4,2021-07-29_23h13.46.908,Simcolourproject_2stim_asymm_v5,2020.2.10,Win32,60,61025ae37ef11b136ea224fe,,,,,,,,,1961,-43.33331555,36.33330334,1,0,0,response7disk,,1,-5.333314419,0.333322614,1,0,0,rectangle,-5.333314419,0.333322614,1,0,0,-5.333314419,0.333322614,1,0,0,1,54,214,92,1,,,,,,,,
,,,,,,,,,,,,,FF,,,,,,,,1.0499,,,,,,,,,,,,,,,,,,,,,,60fcd5771f8903970e9f2c7b,61036e40a0b9920bb45a69e4,2021-07-29_23h13.46.908,Simcolourproject_2stim_asymm_v5,2020.2.10,Win32,60,61025ae37ef11b136ea224fe,,,,,,,,,1333,78.66668808,40.33330346,1,0,0,response1disk,,6,8.333393345,8.666656196,1,0,0,rectangle,8.333393345,8.666656196,1,0,0,8.333393345,8.666656196,1,0,0,1,55,215,12,1,,,,,,,,
,,,,,,,,,,,,,FF,,,,,,,,0.6837,,,,,,,,,,,,,,,,,,,,,,60fcd5771f8903970e9f2c7b,61036e40a0b9920bb45a69e4,2021-07-29_23h13.46.908,Simcolourproject_2stim_asymm_v5,2020.2.10,Win32,60,61025ae37ef11b136ea224fe,,,,,,,,,142,79.00002143,21.3333029,1,0,0,response1disk,,6,2.333393166,8.999989539,1,0,0,rectangle,2.333393166,8.999989539,1,0,0,2.333393166,8.999989539,1,0,0,1,56,216,119,1,,,,,,,,
,,,,,,,,,,,,,FF,,,,,,,,0.7669,,,,,,,,,,,,,,,,,,,,,,60fcd5771f8903970e9f2c7b,61036e40a0b9920bb45a69e4,2021-07-29_23h13.46.908,Simcolourproject_2stim_asymm_v5,2020.2.10,Win32,60,61025ae37ef11b136ea224fe,,,,,,,,,103,-60.66660871,39.33330343,1,0,0,response7disk,,1,-18.33331481,9.666656226,1,0,0,rectangle,-18.33331481,9.666656226,1,0,0,-18.33331481,9.666656226,1,0,0,1,57,217,155,1,,,,,,,,
,,,,,,,,,,,,,FF,,,,,,,,1.2667,,,,,,,,,,,,,,,,,,,,,,60fcd5771f8903970e9f2c7b,61036e40a0b9920bb45a69e4,2021-07-29_23h13.46.908,Simcolourproject_2stim_asymm_v5,2020.2.10,Win32,60,61025ae37ef11b136ea224fe,,,,,,,,,4173,58.66668749,30.9999902,1,0,0,response1disk,,6,7.666685969,5.333322763,1,0,0,rectangle,7.666685969,5.333322763,1,0,0,7.666685969,5.333322763,1,0,0,1,58,218,127,1,,,,,,,,
,,,,,,,,,,,,,FF,,,,,,,,0.7336,,,,,,,,,,,,,,,,,,,,,,60fcd5771f8903970e9f2c7b,61036e40a0b9920bb45a69e4,2021-07-29_23h13.46.908,Simcolourproject_2stim_asymm_v5,2020.2.10,Win32,60,61025ae37ef11b136ea224fe,,,,,,,,,2831,-21.99998158,47.33330367,1,0,0,response7disk,,0,-4.666607042,-1.07288E-05,1,0,0,rectangle,-4.666607042,-1.07288E-05,1,0,0,-4.666607042,-1.07288E-05,1,0,0,1,59,219,23,1,,,,,,,,
,,,,,,,,,,,,,FF,,,,,,,,0.6498,,,,,,,,,,,,,,,,,,,,,,60fcd5771f8903970e9f2c7b,61036e40a0b9920bb45a69e4,2021-07-29_23h13.46.908,Simcolourproject_2stim_asymm_v5,2020.2.10,Win32,60,61025ae37ef11b136ea224fe,,,,,,,,,2343,58.0000208,25.33330301,1,0,0,response1disk,,6,15.33339355,2.666656017,1,0,0,rectangle,15.33339355,2.666656017,1,0,0,15.33339355,2.666656017,1,0,0,1,60,220,146,1,,,,,,,,
,,,,,,,,,,,,,FF,,,,,,,,1.0001,,,,,,,,,,,,,,,,,,,,,,60fcd5771f8903970e9f2c7b,61036e40a0b9920bb45a69e4,2021-07-29_23h13.46.908,Simcolourproject_2stim_asymm_v5,2020.2.10,Win32,60,61025ae37ef11b136ea224fe,,,,,,,,,3630,-25.33331501,63.66665784,1,0,0,response7disk,,0,-3.666607012,9.666656226,1,0,0,rectangle,-3.666607012,9.666656226,1,0,0,-3.666607012,9.666656226,1,0,0,1,61,221,35,1,,,,,,,,
,,,,,,,,,,,,,FF,,,,,,,,1.95,,,,,,,,,,,,,,,,,,,,,,60fcd5771f8903970e9f2c7b,61036e40a0b9920bb45a69e4,2021-07-29_23h13.46.908,Simcolourproject_2stim_asymm_v5,2020.2.10,Win32,60,61025ae37ef11b136ea224fe,,,,,,,,,873,-48.99998239,-22.00001138,1,0,0,response5disk,,2,-14.99998137,-8.000010967,1,0,0,rectangle,-14.99998137,-8.000010967,1,0,0,-14.99998137,-8.000010967,1,0,0,1,62,222,125,1,,,,,,,,
,,,,,,,,,,,,,FF,,,,,,,,0.7996,,,,,,,,,,,,,,,,,,,,,,60fcd5771f8903970e9f2c7b,61036e40a0b9920bb45a69e4,2021-07-29_23h13.46.908,Simcolourproject_2stim_asymm_v5,2020.2.10,Win32,60,61025ae37ef11b136ea224fe,,,,,,,,,3574,58.33335415,-51.00001225,1,0,0,response3disk,,5,-19.33331484,8.666656196,1,0,0,rectangle,-19.33331484,8.666656196,1,0,0,-19.33331484,8.666656196,1,0,0,1,63,223,69,1,,,,,,,,
,,,,,,,,,,,,,FF,,,,,,,,0.8826,,,,,,,,,,,,,,,,,,,,,,60fcd5771f8903970e9f2c7b,61036e40a0b9920bb45a69e4,2021-07-29_23h13.46.908,Simcolourproject_2stim_asymm_v5,2020.2.10,Win32,60,61025ae37ef11b136ea224fe,,,,,,,,,2039,-39.99998212,17.33332312,1,0,0,response7disk,,1,-29.99998182,10.33332291,1,0,0,rectangle,-29.99998182,10.33332291,1,0,0,-29.99998182,10.33332291,1,0,0,1,64,224,122,1,,,,,,,,
,,,,,,,,,,,,,FF,,,,,,,,0.7999,,,,,,,,,,,,,,,,,,,,,,60fcd5771f8903970e9f2c7b,61036e40a0b9920bb45a69e4,2021-07-29_23h13.46.908,Simcolourproject_2stim_asymm_v5,2020.2.10,Win32,60,61025ae37ef11b136ea224fe,,,,,,,,,3721,67.33335441,29.33330313,1,0,0,response1disk,,6,11.66668609,7.666656166,1,0,0,rectangle,11.66668609,7.666656166,1,0,0,11.66668609,7.666656166,1,0,0,1,65,225,36,1,,,,,,,,
,,,,,,,,,,,,,FF,,,,,,,,0.9662,,,,,,,,,,,,,,,,,,,,,,60fcd5771f8903970e9f2c7b,61036e40a0b9920bb45a69e4,2021-07-29_23h13.46.908,Simcolourproject_2stim_asymm_v5,2020.2.10,Win32,60,61025ae37ef11b136ea224fe,,,,,,,,,2489,-41.33331549,-26.66667819,1,0,0,response5disk,,2,-2.999981016,-5.000010878,1,0,0,rectangle,-2.999981016,-5.000010878,1,0,0,-2.999981016,-5.000010878,1,0,0,1,66,226,159,1,,,,,,,,
,,,,,,,,,,,,,FF,,,,,,,,0.4833,,,,,,,,,,,,,,,,,,,,,,60fcd5771f8903970e9f2c7b,61036e40a0b9920bb45a69e4,2021-07-29_23h13.46.908,Simcolourproject_2stim_asymm_v5,2020.2.10,Win32,60,61025ae37ef11b136ea224fe,,,,,,,,,4272,48.33335385,22.99998996,1,0,0,response1disk,,6,-4.333314389,-3.333344162,1,0,0,rectangle,-4.333314389,-3.333344162,1,0,0,-4.333314389,-3.333344162,1,0,0,1,67,227,57,1,,,,,,,,
,,,,,,,,,,,,,FF,,,,,,,,0.8339,,,,,,,,,,,,,,,,,,,,,,60fcd5771f8903970e9f2c7b,61036e40a0b9920bb45a69e4,2021-07-29_23h13.46.908,Simcolourproject_2stim_asymm_v5,2020.2.10,Win32,60,61025ae37ef11b136ea224fe,,,,,,,,,432,-47.66660832,-27.00001153,1,0,0,response5disk,,2,1.66668579,-0.666677415,1,0,0,rectangle,1.66668579,-0.666677415,1,0,0,1.66668579,-0.666677415,1,0,0,1,68,228,31,1,,,,,,,,
,,,,,,,,,,,,,FF,,,,,,,,0.5165,,,,,,,,,,,,,,,,,,,,,,60fcd5771f8903970e9f2c7b,61036e40a0b9920bb45a69e4,2021-07-29_23h13.46.908,Simcolourproject_2stim_asymm_v5,2020.2.10,Win32,60,61025ae37ef11b136ea224fe,,,,,,,,,3033,63.00002095,24.99999002,1,0,0,response1disk,,6,2.000019133,3.99998939,1,0,0,rectangle,2.000019133,3.99998939,1,0,0,2.000019133,3.99998939,1,0,0,1,69,229,14,1,,,,,,,,
,,,,,,,,,,,,,FF,,,,,,,,1.1815,,,,,,,,,,,,,,,,,,,,,,60fcd5771f8903970e9f2c7b,61036e40a0b9920bb45a69e4,2021-07-29_23h13.46.908,Simcolourproject_2stim_asymm_v5,2020.2.10,Win32,60,61025ae37ef11b136ea224fe,,,,,,,,,4284,61.33335423,39.66665712,1,0,0,response1disk,,6,15.33339355,11.99998963,1,0,0,rectangle,15.33339355,11.99998963,1,0,0,15.33339355,11.99998963,1,0,0,1,70,230,99,1,,,,,,,,
,,,,,,,,,,,,,FF,,,,,,,,1.0491,,,,,,,,,,,,,,,,,,,,,,60fcd5771f8903970e9f2c7b,61036e40a0b9920bb45a69e4,2021-07-29_23h13.46.908,Simcolourproject_2stim_asymm_v5,2020.2.10,Win32,60,61025ae37ef11b136ea224fe,,,,,,,,,315,53.333354,32.33330322,1,0,0,response1disk,,6,8.666685998,5.333322763,1,0,0,rectangle,64.66668767,-42.66667867,1,0,0,-10.33331457,-3.333344162,1,0,0,1,71,231,130,1,,response3disk_3,TRUE,5,5,"[27,232,185,14,254,294,281,288,286,289,86,117,267,296,193,196,141,150,243,114]",1.3494,rectangle
,,,,,,,,,,,,,FF,,,,,,,,0.8497,,,,,,,,,,,,,,,,,,,,,,60fcd5771f8903970e9f2c7b,61036e40a0b9920bb45a69e4,2021-07-29_23h13.46.908,Simcolourproject_2stim_asymm_v5,2020.2.10,Win32,60,61025ae37ef11b136ea224fe,,,,,,,,,402,30.66668665,19.99998987,1,0,0,response1disk,,6,6.000019252,-3.000010818,1,0,0,rectangle,6.000019252,-3.000010818,1,0,0,6.000019252,-3.000010818,1,0,0,1,72,232,108,1,,,,,,,,
,,,,,,,,,,,,,FF,,,,,,,,0.548,,,,,,,,,,,,,,,,,,,,,,60fcd5771f8903970e9f2c7b,61036e40a0b9920bb45a69e4,2021-07-29_23h13.46.908,Simcolourproject_2stim_asymm_v5,2020.2.10,Win32,60,61025ae37ef11b136ea224fe,,,,,,,,,248,86.00002164,37.9999904,1,0,0,response1disk,,6,-8.666607161,-0.666677415,1,0,0,rectangle,-8.666607161,-0.666677415,1,0,0,-8.666607161,-0.666677415,1,0,0,1,73,233,70,1,,,,,,,,
,,,,,,,,,,,,,FF,,,,,,,,1.4333,,,,,,,,,,,,,,,,,,,,,,60fcd5771f8903970e9f2c7b,61036e40a0b9920bb45a69e4,2021-07-29_23h13.46.908,Simcolourproject_2stim_asymm_v5,2020.2.10,Win32,60,61025ae37ef11b136ea224fe,,,,,,,,,2615,-28.99998179,-45.66667876,1,0,0,response5disk,,3,17.66668627,-5.666677564,1,0,0,rectangle,17.66668627,-5.666677564,1,0,0,17.66668627,-5.666677564,1,0,0,1,74,234,113,1,,,,,,,,
,,,,,,,,,,,,,FF,,,,,,,,0.6501,,,,,,,,,,,,,,,,,,,,,,60fcd5771f8903970e9f2c7b,61036e40a0b9920bb45a69e4,2021-07-29_23h13.46.908,Simcolourproject_2stim_asymm_v5,2020.2.10,Win32,60,61025ae37ef11b136ea224fe,,,,,,,,,1472,17.66668627,-33.33334506,1,0,0,response3disk,,4,4.000019193,-7.333344281,1,0,0,rectangle,4.000019193,-7.333344281,1,0,0,4.000019193,-7.333344281,1,0,0,1,75,235,102,1,,,,,,,,
,,,,,,,,,,,,,FF,,,,,,,,1.7333,,,,,,,,,,,,,,,,,,,,,,60fcd5771f8903970e9f2c7b,61036e40a0b9920bb45a69e4,2021-07-29_23h13.46.908,Simcolourproject_2stim_asymm_v5,2020.2.10,Win32,60,61025ae37ef11b136ea224fe,,,,,,,,,1582,-34.99998197,-46.66667879,1,0,0,response5disk,,3,1.333393137,2.666656017,1,0,0,rectangle,1.333393137,2.666656017,1,0,0,1.333393137,2.666656017,1,0,0,1,76,236,25,1,,,,,,,,
,,,,,,,,,,,,,FF,,,,,,,,1.4497,,,,,,,,,,,,,,,,,,,,,,60fcd5771f8903970e9f2c7b,61036e40a0b9920bb45a69e4,2021-07-29_23h13.46.908,Simcolourproject_2stim_asymm_v5,2020.2.10,Win32,60,61025ae37ef11b136ea224fe,,,,,,,,,306,-35.33331531,-57.66667911,1,0,0,response5disk,,3,7.333393315,4.666656077,1,0,0,rectangle,7.333393315,4.666656077,1,0,0,7.333393315,4.666656077,1,0,0,1,77,237,123,1,,,,,,,,
,,,,,,,,,,,,,FF,,,,,,,,0.7333,,,,,,,,,,,,,,,,,,,,,,60fcd5771f8903970e9f2c7b,61036e40a0b9920bb45a69e4,2021-07-29_23h13.46.908,Simcolourproject_2stim_asymm_v5,2020.2.10,Win32,60,61025ae37ef11b136ea224fe,,,,,,,,,3538,54.00002068,22.33330293,1,0,0,response1disk,,6,7.000019282,6.333322793,1,0,0,rectangle,7.000019282,6.333322793,1,0,0,7.000019282,6.333322793,1,0,0,1,78,238,2,1,,,,,,,,
,,,,,,,,,,,,,FF,,,,,,,,1.0167,,,,,,,,,,,,,,,,,,,,,,60fcd5771f8903970e9f2c7b,61036e40a0b9920bb45a69e4,2021-07-29_23h13.46.908,Simcolourproject_2stim_asymm_v5,2020.2.10,Win32,60,61025ae37ef11b136ea224fe,,,,,,,,,3851,-22.66660758,-36.0000118,1,0,0,response5disk,,3,-0.666606923,-11.66667774,1,0,0,rectangle,-0.666606923,-11.66667774,1,0,0,-0.666606923,-11.66667774,1,0,0,1,79,239,49,1,,,,,,,,
,,,,,,,,,,,,,FF,,,,,,,,0.6161,,,,,,,,,,,,,,,,,,,,,,60fcd5771f8903970e9f2c7b,61036e40a0b9920bb45a69e4,2021-07-29_23h13.46.908,Simcolourproject_2stim_asymm_v5,2020.2.10,Win32,60,61025ae37ef11b136ea224fe,,,,,,,,,317,49.33335388,30.66665685,1,0,0,response1disk,,6,7.000019282,0.666655958,1,0,0,rectangle,7.000019282,0.666655958,1,0,0,7.000019282,0.666655958,1,0,0,1,80,240,84,1,,,,,,,,
,,,,,,,,,,,,,FF,,,,,,,,1.3305,,,,,,,,,,,,,,,,,,,,,,60fcd5771f8903970e9f2c7b,61036e40a0b9920bb45a69e4,2021-07-29_23h13.46.908,Simcolourproject_2stim_asymm_v5,2020.2.10,Win32,60,61025ae37ef11b136ea224fe,,,,,,,,,2438,-22.33331493,-51.00001225,1,0,0,response5disk,,3,6.000019252,-6.666677594,1,0,0,rectangle,6.000019252,-6.666677594,1,0,0,6.000019252,-6.666677594,1,0,0,1,81,241,80,1,,,,,,,,
,,,,,,,,,,,,,FF,,,,,,,,0.7664,,,,,,,,,,,,,,,,,,,,,,60fcd5771f8903970e9f2c7b,61036e40a0b9920bb45a69e4,2021-07-29_23h13.46.908,Simcolourproject_2stim_asymm_v5,2020.2.10,Win32,60,61025ae37ef11b136ea224fe,,,,,,,,,3666,39.00002024,-16.00001121,1,0,0,response3disk,,5,12.00001943,1.333322644,1,0,0,rectangle,68.0000211,-29.33334494,1,0,0,8.333393345,4.333322734,1,0,0,1,82,242,96,1,,response3disk_3,TRUE,5,5,"[27,232,185,14,254,294,281,288,286,289,86,117,267,296,193,196,141,150,243,114]",1.7331,rectangle
,,,,,,,,,,,,,FF,,,,,,,,0.8329,,,,,,,,,,,,,,,,,,,,,,60fcd5771f8903970e9f2c7b,61036e40a0b9920bb45a69e4,2021-07-29_23h13.46.908,Simcolourproject_2stim_asymm_v5,2020.2.10,Win32,60,61025ae37ef11b136ea224fe,,,,,,,,,3881,52.66668731,21.66665658,1,0,0,response1disk,,6,-2.999981016,-5.666677564,1,0,0,rectangle,-2.999981016,-5.666677564,1,0,0,-2.999981016,-5.666677564,1,0,0,1,83,243,136,1,,,,,,,,
