key_resp.keys,key_resp.rt,key_resp_14.keys,key_resp_14.rt,key_resp_15.keys,key_resp_15.rt,key_resp_17.keys,key_resp_17.rt,key_resp_9.keys,key_resp_9.rt,key_resp_10.keys,key_resp_10.rt,practice_comparison,Ecc,mouse_5.x,mouse_5.y,mouse_5.leftButton,mouse_5.midButton,mouse_5.rightButton,mouse_5.clicked_name,pracsimilarity,response_time,mouse_10.x,mouse_10.y,mouse_10.leftButton,mouse_10.midButton,mouse_10.rightButton,mouse_10.clicked_name,mouse_7.x,mouse_7.y,mouse_7.leftButton,mouse_7.midButton,mouse_7.rightButton,mouse_6.x,mouse_6.y,mouse_6.leftButton,mouse_6.midButton,mouse_6.rightButton,duringprac.thisRepN,duringprac.thisTrialN,duringprac.thisN,duringprac.thisIndex,duringprac.ran,participant,session,date,expName,psychopyVersion,OS,frameRate,study_id,mouse_7.clicked_name,catchpracsimilarity,catch_response_time,catchnumberprac,catchtrialorderprac,mouse_6.clicked_name,key_resp_22.keys,key_resp_22.rt,realcomparison,mouse.x,mouse.y,mouse.leftButton,mouse.midButton,mouse.rightButton,mouse.clicked_name,Colour2,similarity,mouse_2.x,mouse_2.y,mouse_2.leftButton,mouse_2.midButton,mouse_2.rightButton,mouse_2.clicked_name,mouse_3.x,mouse_3.y,mouse_3.leftButton,mouse_3.midButton,mouse_3.rightButton,mouse_11.x,mouse_11.y,mouse_11.leftButton,mouse_11.midButton,mouse_11.rightButton,trials_2.thisRepN,trials_2.thisTrialN,trials_2.thisN,trials_2.thisIndex,trials_2.ran,Colour1,mouse_3.clicked_name,catchornah,catchsimilarity,catchnumber,catchtrialorder,catchRT,mouse_11.clicked_name
space,1.286,space,3.309,space,15.274,space,11.406,space,1.412,space,4.066,111,FF,92,57,1,0,0,response1disk_5,6,3.271,14,0,1,0,0,rectangle_8,14,0,1,0,0,14,0,1,0,0,0,0,0,0,1,60fcf0589b18c268d5a2f38d,61036e9b8edf5797ea8d68b4,2021-07-29_22h15.26.875,Simcolourproject_2stim_asymm_v5,2020.2.10,MacIntel,60,61025ae37ef11b136ea224fe,,,,,,,,,,,,,,,,,,,,,,,,,,,,,,,,,,,,,,,,,,,,,,
,,,,,,,,,,,,2,PF,98,-44,1,0,0,response3disk_5,5,1.568,9,0,1,0,0,rectangle_8,-57,-91,1,0,0,13,5,1,0,0,0,1,1,2,1,60fcf0589b18c268d5a2f38d,61036e9b8edf5797ea8d68b4,2021-07-29_22h15.26.875,Simcolourproject_2stim_asymm_v5,2020.2.10,MacIntel,60,61025ae37ef11b136ea224fe,response5disk_7,3,2.584,3,"[2,5]",rectangle_4,,,,,,,,,,,,,,,,,,,,,,,,,,,,,,,,,,,,,,,,
,,,,,,,,,,,,145,FF,56,-102,1,0,0,response3disk_5,4,1.601,-4,1,1,0,0,rectangle_8,-4,1,1,0,0,-4,1,1,0,0,0,2,2,5,1,60fcf0589b18c268d5a2f38d,61036e9b8edf5797ea8d68b4,2021-07-29_22h15.26.875,Simcolourproject_2stim_asymm_v5,2020.2.10,MacIntel,60,61025ae37ef11b136ea224fe,,,,,,,,,,,,,,,,,,,,,,,,,,,,,,,,,,,,,,,,,,,,,,
,,,,,,,,,,,,151,PF,-56,-88,1,0,0,response5disk_5,3,1.951,15,0,1,0,0,rectangle_8,15,0,1,0,0,15,0,1,0,0,0,3,3,1,1,60fcf0589b18c268d5a2f38d,61036e9b8edf5797ea8d68b4,2021-07-29_22h15.26.875,Simcolourproject_2stim_asymm_v5,2020.2.10,MacIntel,60,61025ae37ef11b136ea224fe,,,,,,,,,,,,,,,,,,,,,,,,,,,,,,,,,,,,,,,,,,,,,,
,,,,,,,,,,,,31,FF,84,-34,1,0,0,response3disk_5,5,1.501,-6,3,1,0,0,rectangle_8,-56,-101,1,0,0,8,2,1,0,0,0,4,4,3,1,60fcf0589b18c268d5a2f38d,61036e9b8edf5797ea8d68b4,2021-07-29_22h15.26.875,Simcolourproject_2stim_asymm_v5,2020.2.10,MacIntel,60,61025ae37ef11b136ea224fe,response5disk_7,3,2.2,3,"[2,5]",rectangle_4,,,,,,,,,,,,,,,,,,,,,,,,,,,,,,,,,,,,,,,,
,,,,,,,,,,,,7,PF,59,-93,1,0,0,response3disk_5,4,1.401,-6,9,1,0,0,rectangle_8,-6,9,1,0,0,-6,9,1,0,0,0,5,5,6,1,60fcf0589b18c268d5a2f38d,61036e9b8edf5797ea8d68b4,2021-07-29_22h15.26.875,Simcolourproject_2stim_asymm_v5,2020.2.10,MacIntel,60,61025ae37ef11b136ea224fe,,,,,,,,,,,,,,,,,,,,,,,,,,,,,,,,,,,,,,,,,,,,,,
,,,,,,,,,,,,44,PF,-99,31,1,0,0,response7disk_5,1,1.416,0,-3,1,0,0,rectangle_8,0,-3,1,0,0,0,-3,1,0,0,0,6,6,4,1,60fcf0589b18c268d5a2f38d,61036e9b8edf5797ea8d68b4,2021-07-29_22h15.26.875,Simcolourproject_2stim_asymm_v5,2020.2.10,MacIntel,60,61025ae37ef11b136ea224fe,,,,,,,,,,,,,,,,,,,,,,,,,,,,,,,,,,,,,,,,,,,,,,
,,,,,,,,,,,,,FF,,,,,,,,1.034,,,,,,,,,,,,,,,,,,,,,,60fcf0589b18c268d5a2f38d,61036e9b8edf5797ea8d68b4,2021-07-29_22h15.26.875,Simcolourproject_2stim_asymm_v5,2020.2.10,MacIntel,60,61025ae37ef11b136ea224fe,,,,,,,space,2.571,1524,-94,-56,1,0,0,response5disk,,2,14,-1,1,0,0,rectangle,14,-1,1,0,0,14,-1,1,0,0,0,0,0,7,1,,,,,,,,
,,,,,,,,,,,,,FF,,,,,,,,1.068,,,,,,,,,,,,,,,,,,,,,,60fcf0589b18c268d5a2f38d,61036e9b8edf5797ea8d68b4,2021-07-29_22h15.26.875,Simcolourproject_2stim_asymm_v5,2020.2.10,MacIntel,60,61025ae37ef11b136ea224fe,,,,,,,,,73,-26,-94,1,0,0,response5disk,,3,1,12,1,0,0,rectangle,-69,45,1,0,0,11,-4,1,0,0,0,1,1,156,1,,response7disk_3,TRUE,1,1,"[103,70,33,313,10,225,205,156,140,237,83,189,232,242,5,125,105,216,201,2]",1.6,rectangle
,,,,,,,,,,,,,FF,,,,,,,,0.934,,,,,,,,,,,,,,,,,,,,,,60fcf0589b18c268d5a2f38d,61036e9b8edf5797ea8d68b4,2021-07-29_22h15.26.875,Simcolourproject_2stim_asymm_v5,2020.2.10,MacIntel,60,61025ae37ef11b136ea224fe,,,,,,,,,1167,98,-56,1,0,0,response3disk,,5,11,-3,1,0,0,rectangle,11,-3,1,0,0,11,-3,1,0,0,0,2,2,32,1,,,,,,,,
,,,,,,,,,,,,,FF,,,,,,,,1.017,,,,,,,,,,,,,,,,,,,,,,60fcf0589b18c268d5a2f38d,61036e9b8edf5797ea8d68b4,2021-07-29_22h15.26.875,Simcolourproject_2stim_asymm_v5,2020.2.10,MacIntel,60,61025ae37ef11b136ea224fe,,,,,,,,,1276,-41,-100,1,0,0,response5disk,,3,-6,-1,1,0,0,rectangle,-6,-1,1,0,0,-6,-1,1,0,0,0,3,3,101,1,,,,,,,,
,,,,,,,,,,,,,FF,,,,,,,,1.051,,,,,,,,,,,,,,,,,,,,,,60fcf0589b18c268d5a2f38d,61036e9b8edf5797ea8d68b4,2021-07-29_22h15.26.875,Simcolourproject_2stim_asymm_v5,2020.2.10,MacIntel,60,61025ae37ef11b136ea224fe,,,,,,,,,343,-90,35,1,0,0,response7disk,,1,-13,2,1,0,0,rectangle,-73,-30,1,0,0,1,0,1,0,0,0,4,4,110,1,,response5disk_3,TRUE,2,2,"[103,70,33,313,10,225,205,156,140,237,83,189,232,242,5,125,105,216,201,2]",1.834,rectangle
,,,,,,,,,,,,,FF,,,,,,,,1.434,,,,,,,,,,,,,,,,,,,,,,60fcf0589b18c268d5a2f38d,61036e9b8edf5797ea8d68b4,2021-07-29_22h15.26.875,Simcolourproject_2stim_asymm_v5,2020.2.10,MacIntel,60,61025ae37ef11b136ea224fe,,,,,,,,,1228,-56,-86,1,0,0,response5disk,,3,5,8,1,0,0,rectangle,5,8,1,0,0,5,8,1,0,0,0,5,5,152,1,,,,,,,,
,,,,,,,,,,,,,FF,,,,,,,,1.767,,,,,,,,,,,,,,,,,,,,,,60fcf0589b18c268d5a2f38d,61036e9b8edf5797ea8d68b4,2021-07-29_22h15.26.875,Simcolourproject_2stim_asymm_v5,2020.2.10,MacIntel,60,61025ae37ef11b136ea224fe,,,,,,,,,3699,52,-65,1,0,0,response3disk,,4,-9,1,1,0,0,rectangle,-9,1,1,0,0,-9,1,1,0,0,0,6,6,132,1,,,,,,,,
,,,,,,,,,,,,,FF,,,,,,,,1.101,,,,,,,,,,,,,,,,,,,,,,60fcf0589b18c268d5a2f38d,61036e9b8edf5797ea8d68b4,2021-07-29_22h15.26.875,Simcolourproject_2stim_asymm_v5,2020.2.10,MacIntel,60,61025ae37ef11b136ea224fe,,,,,,,,,2746,87,54,1,0,0,response1disk,,6,-13,-1,1,0,0,rectangle,-13,-1,1,0,0,-13,-1,1,0,0,0,7,7,34,1,,,,,,,,
,,,,,,,,,,,,,FF,,,,,,,,1.418,,,,,,,,,,,,,,,,,,,,,,60fcf0589b18c268d5a2f38d,61036e9b8edf5797ea8d68b4,2021-07-29_22h15.26.875,Simcolourproject_2stim_asymm_v5,2020.2.10,MacIntel,60,61025ae37ef11b136ea224fe,,,,,,,,,4090,-84,-33,1,0,0,response5disk,,2,20,5,1,0,0,rectangle,20,5,1,0,0,20,5,1,0,0,0,8,8,122,1,,,,,,,,
,,,,,,,,,,,,,FF,,,,,,,,1.184,,,,,,,,,,,,,,,,,,,,,,60fcf0589b18c268d5a2f38d,61036e9b8edf5797ea8d68b4,2021-07-29_22h15.26.875,Simcolourproject_2stim_asymm_v5,2020.2.10,MacIntel,60,61025ae37ef11b136ea224fe,,,,,,,,,4310,66,35,1,0,0,response1disk,,6,13,7,1,0,0,rectangle,-44,99,1,0,0,5,-5,1,0,0,0,9,9,62,1,,response7disk_3,TRUE,0,0,"[103,70,33,313,10,225,205,156,140,237,83,189,232,242,5,125,105,216,201,2]",1.433,rectangle
,,,,,,,,,,,,,FF,,,,,,,,1.301,,,,,,,,,,,,,,,,,,,,,,60fcf0589b18c268d5a2f38d,61036e9b8edf5797ea8d68b4,2021-07-29_22h15.26.875,Simcolourproject_2stim_asymm_v5,2020.2.10,MacIntel,60,61025ae37ef11b136ea224fe,,,,,,,,,2568,50,-67,1,0,0,response3disk,,4,14,-5,1,0,0,rectangle,14,-5,1,0,0,14,-5,1,0,0,0,10,10,149,1,,,,,,,,
,,,,,,,,,,,,,FF,,,,,,,,0.984,,,,,,,,,,,,,,,,,,,,,,60fcf0589b18c268d5a2f38d,61036e9b8edf5797ea8d68b4,2021-07-29_22h15.26.875,Simcolourproject_2stim_asymm_v5,2020.2.10,MacIntel,60,61025ae37ef11b136ea224fe,,,,,,,,,2611,-36,-99,1,0,0,response5disk,,3,8,8,1,0,0,rectangle,8,8,1,0,0,8,8,1,0,0,0,11,11,87,1,,,,,,,,
,,,,,,,,,,,,,FF,,,,,,,,1.017,,,,,,,,,,,,,,,,,,,,,,60fcf0589b18c268d5a2f38d,61036e9b8edf5797ea8d68b4,2021-07-29_22h15.26.875,Simcolourproject_2stim_asymm_v5,2020.2.10,MacIntel,60,61025ae37ef11b136ea224fe,,,,,,,,,1575,48,-82,1,0,0,response3disk,,4,2,0,1,0,0,rectangle,2,0,1,0,0,2,0,1,0,0,0,12,12,83,1,,,,,,,,
,,,,,,,,,,,,,FF,,,,,,,,0.884,,,,,,,,,,,,,,,,,,,,,,60fcf0589b18c268d5a2f38d,61036e9b8edf5797ea8d68b4,2021-07-29_22h15.26.875,Simcolourproject_2stim_asymm_v5,2020.2.10,MacIntel,60,61025ae37ef11b136ea224fe,,,,,,,,,3133,90,39,1,0,0,response1disk,,6,-6,8,1,0,0,rectangle,-6,8,1,0,0,-6,8,1,0,0,0,13,13,46,1,,,,,,,,
,,,,,,,,,,,,,FF,,,,,,,,0.918,,,,,,,,,,,,,,,,,,,,,,60fcf0589b18c268d5a2f38d,61036e9b8edf5797ea8d68b4,2021-07-29_22h15.26.875,Simcolourproject_2stim_asymm_v5,2020.2.10,MacIntel,60,61025ae37ef11b136ea224fe,,,,,,,,,3284,-97,32,1,0,0,response7disk,,1,-7,-2,1,0,0,rectangle,-7,-2,1,0,0,-7,-2,1,0,0,0,14,14,27,1,,,,,,,,
,,,,,,,,,,,,,FF,,,,,,,,0.967,,,,,,,,,,,,,,,,,,,,,,60fcf0589b18c268d5a2f38d,61036e9b8edf5797ea8d68b4,2021-07-29_22h15.26.875,Simcolourproject_2stim_asymm_v5,2020.2.10,MacIntel,60,61025ae37ef11b136ea224fe,,,,,,,,,4283,-82,34,1,0,0,response7disk,,1,-10,-4,1,0,0,rectangle,-10,-4,1,0,0,-10,-4,1,0,0,0,15,15,113,1,,,,,,,,
,,,,,,,,,,,,,FF,,,,,,,,0.868,,,,,,,,,,,,,,,,,,,,,,60fcf0589b18c268d5a2f38d,61036e9b8edf5797ea8d68b4,2021-07-29_22h15.26.875,Simcolourproject_2stim_asymm_v5,2020.2.10,MacIntel,60,61025ae37ef11b136ea224fe,,,,,,,,,227,52,-86,1,0,0,response3disk,,4,12,-1,1,0,0,rectangle,12,-1,1,0,0,12,-1,1,0,0,0,16,16,5,1,,,,,,,,
,,,,,,,,,,,,,FF,,,,,,,,0.784,,,,,,,,,,,,,,,,,,,,,,60fcf0589b18c268d5a2f38d,61036e9b8edf5797ea8d68b4,2021-07-29_22h15.26.875,Simcolourproject_2stim_asymm_v5,2020.2.10,MacIntel,60,61025ae37ef11b136ea224fe,,,,,,,,,1962,-101,-47,1,0,0,response5disk,,2,10,4,1,0,0,rectangle,10,4,1,0,0,10,4,1,0,0,0,17,17,148,1,,,,,,,,
,,,,,,,,,,,,,FF,,,,,,,,1.35,,,,,,,,,,,,,,,,,,,,,,60fcf0589b18c268d5a2f38d,61036e9b8edf5797ea8d68b4,2021-07-29_22h15.26.875,Simcolourproject_2stim_asymm_v5,2020.2.10,MacIntel,60,61025ae37ef11b136ea224fe,,,,,,,,,2823,-71,-45,1,0,0,response5disk,,2,-6,-6,1,0,0,rectangle,-6,-6,1,0,0,-6,-6,1,0,0,0,18,18,48,1,,,,,,,,
,,,,,,,,,,,,,FF,,,,,,,,1.568,,,,,,,,,,,,,,,,,,,,,,60fcf0589b18c268d5a2f38d,61036e9b8edf5797ea8d68b4,2021-07-29_22h15.26.875,Simcolourproject_2stim_asymm_v5,2020.2.10,MacIntel,60,61025ae37ef11b136ea224fe,,,,,,,,,1516,-16,-82,1,0,0,response5disk,,3,19,7,1,0,0,rectangle,19,7,1,0,0,19,7,1,0,0,0,19,19,95,1,,,,,,,,
,,,,,,,,,,,,,FF,,,,,,,,0.967,,,,,,,,,,,,,,,,,,,,,,60fcf0589b18c268d5a2f38d,61036e9b8edf5797ea8d68b4,2021-07-29_22h15.26.875,Simcolourproject_2stim_asymm_v5,2020.2.10,MacIntel,60,61025ae37ef11b136ea224fe,,,,,,,,,1406,81,-61,1,0,0,response3disk,,5,20,-7,1,0,0,rectangle,20,-7,1,0,0,20,-7,1,0,0,0,20,20,150,1,,,,,,,,
,,,,,,,,,,,,,FF,,,,,,,,1.068,,,,,,,,,,,,,,,,,,,,,,60fcf0589b18c268d5a2f38d,61036e9b8edf5797ea8d68b4,2021-07-29_22h15.26.875,Simcolourproject_2stim_asymm_v5,2020.2.10,MacIntel,60,61025ae37ef11b136ea224fe,,,,,,,,,3731,77,37,1,0,0,response1disk,,6,-5,1,1,0,0,rectangle,-5,1,1,0,0,-5,1,1,0,0,0,21,21,81,1,,,,,,,,
,,,,,,,,,,,,,FF,,,,,,,,1.251,,,,,,,,,,,,,,,,,,,,,,60fcf0589b18c268d5a2f38d,61036e9b8edf5797ea8d68b4,2021-07-29_22h15.26.875,Simcolourproject_2stim_asymm_v5,2020.2.10,MacIntel,60,61025ae37ef11b136ea224fe,,,,,,,,,2587,96,-45,1,0,0,response3disk,,5,11,-2,1,0,0,rectangle,11,-2,1,0,0,11,-2,1,0,0,0,22,22,70,1,,,,,,,,
,,,,,,,,,,,,,FF,,,,,,,,1.567,,,,,,,,,,,,,,,,,,,,,,60fcf0589b18c268d5a2f38d,61036e9b8edf5797ea8d68b4,2021-07-29_22h15.26.875,Simcolourproject_2stim_asymm_v5,2020.2.10,MacIntel,60,61025ae37ef11b136ea224fe,,,,,,,,,625,83,-50,1,0,0,response3disk,,5,6,0,1,0,0,rectangle,6,0,1,0,0,6,0,1,0,0,0,23,23,82,1,,,,,,,,
,,,,,,,,,,,,,FF,,,,,,,,0.984,,,,,,,,,,,,,,,,,,,,,,60fcf0589b18c268d5a2f38d,61036e9b8edf5797ea8d68b4,2021-07-29_22h15.26.875,Simcolourproject_2stim_asymm_v5,2020.2.10,MacIntel,60,61025ae37ef11b136ea224fe,,,,,,,,,1308,-89,38,1,0,0,response7disk,,1,-6,1,1,0,0,rectangle,-6,1,1,0,0,-6,1,1,0,0,0,24,24,146,1,,,,,,,,
,,,,,,,,,,,,,FF,,,,,,,,1.117,,,,,,,,,,,,,,,,,,,,,,60fcf0589b18c268d5a2f38d,61036e9b8edf5797ea8d68b4,2021-07-29_22h15.26.875,Simcolourproject_2stim_asymm_v5,2020.2.10,MacIntel,60,61025ae37ef11b136ea224fe,,,,,,,,,3347,48,-82,1,0,0,response3disk,,4,17,0,1,0,0,rectangle,17,0,1,0,0,17,0,1,0,0,0,25,25,25,1,,,,,,,,
,,,,,,,,,,,,,FF,,,,,,,,1.035,,,,,,,,,,,,,,,,,,,,,,60fcf0589b18c268d5a2f38d,61036e9b8edf5797ea8d68b4,2021-07-29_22h15.26.875,Simcolourproject_2stim_asymm_v5,2020.2.10,MacIntel,60,61025ae37ef11b136ea224fe,,,,,,,,,2627,78,35,1,0,0,response1disk,,6,-1,3,1,0,0,rectangle,-1,3,1,0,0,-1,3,1,0,0,0,26,26,41,1,,,,,,,,
,,,,,,,,,,,,,FF,,,,,,,,1.283,,,,,,,,,,,,,,,,,,,,,,60fcf0589b18c268d5a2f38d,61036e9b8edf5797ea8d68b4,2021-07-29_22h15.26.875,Simcolourproject_2stim_asymm_v5,2020.2.10,MacIntel,60,61025ae37ef11b136ea224fe,,,,,,,,,4003,44,-104,1,0,0,response3disk,,4,5,9,1,0,0,rectangle,5,9,1,0,0,5,9,1,0,0,0,27,27,4,1,,,,,,,,
,,,,,,,,,,,,,FF,,,,,,,,1.451,,,,,,,,,,,,,,,,,,,,,,60fcf0589b18c268d5a2f38d,61036e9b8edf5797ea8d68b4,2021-07-29_22h15.26.875,Simcolourproject_2stim_asymm_v5,2020.2.10,MacIntel,60,61025ae37ef11b136ea224fe,,,,,,,,,3545,-93,-33,1,0,0,response5disk,,2,4,-4,1,0,0,rectangle,4,-4,1,0,0,4,-4,1,0,0,0,28,28,45,1,,,,,,,,
,,,,,,,,,,,,,FF,,,,,,,,0.817,,,,,,,,,,,,,,,,,,,,,,60fcf0589b18c268d5a2f38d,61036e9b8edf5797ea8d68b4,2021-07-29_22h15.26.875,Simcolourproject_2stim_asymm_v5,2020.2.10,MacIntel,60,61025ae37ef11b136ea224fe,,,,,,,,,1399,75,-49,1,0,0,response3disk,,5,24,-2,1,0,0,rectangle,24,-2,1,0,0,24,-2,1,0,0,0,29,29,76,1,,,,,,,,
,,,,,,,,,,,,,FF,,,,,,,,1.085,,,,,,,,,,,,,,,,,,,,,,60fcf0589b18c268d5a2f38d,61036e9b8edf5797ea8d68b4,2021-07-29_22h15.26.875,Simcolourproject_2stim_asymm_v5,2020.2.10,MacIntel,60,61025ae37ef11b136ea224fe,,,,,,,,,1562,79,47,1,0,0,response1disk,,6,-5,6,1,0,0,rectangle,-5,6,1,0,0,-5,6,1,0,0,0,30,30,43,1,,,,,,,,
,,,,,,,,,,,,,FF,,,,,,,,1.15,,,,,,,,,,,,,,,,,,,,,,60fcf0589b18c268d5a2f38d,61036e9b8edf5797ea8d68b4,2021-07-29_22h15.26.875,Simcolourproject_2stim_asymm_v5,2020.2.10,MacIntel,60,61025ae37ef11b136ea224fe,,,,,,,,,3215,49,78,1,0,0,response1disk,,7,4,5,1,0,0,rectangle,4,5,1,0,0,4,5,1,0,0,0,31,31,29,1,,,,,,,,
,,,,,,,,,,,,,FF,,,,,,,,1.016,,,,,,,,,,,,,,,,,,,,,,60fcf0589b18c268d5a2f38d,61036e9b8edf5797ea8d68b4,2021-07-29_22h15.26.875,Simcolourproject_2stim_asymm_v5,2020.2.10,MacIntel,60,61025ae37ef11b136ea224fe,,,,,,,,,3807,51,-84,1,0,0,response3disk,,4,6,-1,1,0,0,rectangle,-92,-30,1,0,0,11,4,1,0,0,0,32,32,80,1,,response5disk_3,TRUE,2,2,"[103,70,33,313,10,225,205,156,140,237,83,189,232,242,5,125,105,216,201,2]",1.483,rectangle
,,,,,,,,,,,,,FF,,,,,,,,1.351,,,,,,,,,,,,,,,,,,,,,,60fcf0589b18c268d5a2f38d,61036e9b8edf5797ea8d68b4,2021-07-29_22h15.26.875,Simcolourproject_2stim_asymm_v5,2020.2.10,MacIntel,60,61025ae37ef11b136ea224fe,,,,,,,,,2167,-42,81,1,0,0,response7disk,,0,3,1,1,0,0,rectangle,3,1,1,0,0,3,1,1,0,0,0,33,33,129,1,,,,,,,,
,,,,,,,,,,,,,FF,,,,,,,,1.434,,,,,,,,,,,,,,,,,,,,,,60fcf0589b18c268d5a2f38d,61036e9b8edf5797ea8d68b4,2021-07-29_22h15.26.875,Simcolourproject_2stim_asymm_v5,2020.2.10,MacIntel,60,61025ae37ef11b136ea224fe,,,,,,,,,3757,-73,-46,1,0,0,response5disk,,2,8,6,1,0,0,rectangle,8,6,1,0,0,8,6,1,0,0,0,34,34,6,1,,,,,,,,
,,,,,,,,,,,,,FF,,,,,,,,0.885,,,,,,,,,,,,,,,,,,,,,,60fcf0589b18c268d5a2f38d,61036e9b8edf5797ea8d68b4,2021-07-29_22h15.26.875,Simcolourproject_2stim_asymm_v5,2020.2.10,MacIntel,60,61025ae37ef11b136ea224fe,,,,,,,,,3689,62,-59,1,0,0,response3disk,,5,1,-1,1,0,0,rectangle,1,-1,1,0,0,1,-1,1,0,0,0,35,35,121,1,,,,,,,,
,,,,,,,,,,,,,FF,,,,,,,,1.25,,,,,,,,,,,,,,,,,,,,,,60fcf0589b18c268d5a2f38d,61036e9b8edf5797ea8d68b4,2021-07-29_22h15.26.875,Simcolourproject_2stim_asymm_v5,2020.2.10,MacIntel,60,61025ae37ef11b136ea224fe,,,,,,,,,2776,-86,-34,1,0,0,response5disk,,2,-4,8,1,0,0,rectangle,-4,8,1,0,0,-4,8,1,0,0,0,36,36,63,1,,,,,,,,
,,,,,,,,,,,,,FF,,,,,,,,0.917,,,,,,,,,,,,,,,,,,,,,,60fcf0589b18c268d5a2f38d,61036e9b8edf5797ea8d68b4,2021-07-29_22h15.26.875,Simcolourproject_2stim_asymm_v5,2020.2.10,MacIntel,60,61025ae37ef11b136ea224fe,,,,,,,,,4146,-91,41,1,0,0,response7disk,,1,5,3,1,0,0,rectangle,5,3,1,0,0,5,3,1,0,0,0,37,37,19,1,,,,,,,,
,,,,,,,,,,,,,FF,,,,,,,,0.9,,,,,,,,,,,,,,,,,,,,,,60fcf0589b18c268d5a2f38d,61036e9b8edf5797ea8d68b4,2021-07-29_22h15.26.875,Simcolourproject_2stim_asymm_v5,2020.2.10,MacIntel,60,61025ae37ef11b136ea224fe,,,,,,,,,1647,68,-79,1,0,0,response3disk,,4,17,-2,1,0,0,rectangle,17,-2,1,0,0,17,-2,1,0,0,0,38,38,116,1,,,,,,,,
,,,,,,,,,,,,,FF,,,,,,,,1.034,,,,,,,,,,,,,,,,,,,,,,60fcf0589b18c268d5a2f38d,61036e9b8edf5797ea8d68b4,2021-07-29_22h15.26.875,Simcolourproject_2stim_asymm_v5,2020.2.10,MacIntel,60,61025ae37ef11b136ea224fe,,,,,,,,,3559,-64,-86,1,0,0,response5disk,,3,-18,-5,1,0,0,rectangle,-18,-5,1,0,0,-18,-5,1,0,0,0,39,39,99,1,,,,,,,,
,,,,,,,,,,,,,FF,,,,,,,,1.483,,,,,,,,,,,,,,,,,,,,,,60fcf0589b18c268d5a2f38d,61036e9b8edf5797ea8d68b4,2021-07-29_22h15.26.875,Simcolourproject_2stim_asymm_v5,2020.2.10,MacIntel,60,61025ae37ef11b136ea224fe,,,,,,,,,4224,-81,50,1,0,0,response7disk,,1,6,-4,1,0,0,rectangle,6,-4,1,0,0,6,-4,1,0,0,0,40,40,109,1,,,,,,,,
,,,,,,,,,,,,,FF,,,,,,,,1.001,,,,,,,,,,,,,,,,,,,,,,60fcf0589b18c268d5a2f38d,61036e9b8edf5797ea8d68b4,2021-07-29_22h15.26.875,Simcolourproject_2stim_asymm_v5,2020.2.10,MacIntel,60,61025ae37ef11b136ea224fe,,,,,,,,,4040,78,-58,1,0,0,response3disk,,5,16,2,1,0,0,rectangle,16,2,1,0,0,16,2,1,0,0,0,41,41,105,1,,,,,,,,
,,,,,,,,,,,,,FF,,,,,,,,0.966,,,,,,,,,,,,,,,,,,,,,,60fcf0589b18c268d5a2f38d,61036e9b8edf5797ea8d68b4,2021-07-29_22h15.26.875,Simcolourproject_2stim_asymm_v5,2020.2.10,MacIntel,60,61025ae37ef11b136ea224fe,,,,,,,,,3599,-91,25,1,0,0,response7disk,,1,-19,7,1,0,0,rectangle,-19,7,1,0,0,-19,7,1,0,0,0,42,42,9,1,,,,,,,,
,,,,,,,,,,,,,FF,,,,,,,,0.85,,,,,,,,,,,,,,,,,,,,,,60fcf0589b18c268d5a2f38d,61036e9b8edf5797ea8d68b4,2021-07-29_22h15.26.875,Simcolourproject_2stim_asymm_v5,2020.2.10,MacIntel,60,61025ae37ef11b136ea224fe,,,,,,,,,1833,-91,-45,1,0,0,response5disk,,2,13,7,1,0,0,rectangle,13,7,1,0,0,13,7,1,0,0,0,43,43,84,1,,,,,,,,
,,,,,,,,,,,,,FF,,,,,,,,0.834,,,,,,,,,,,,,,,,,,,,,,60fcf0589b18c268d5a2f38d,61036e9b8edf5797ea8d68b4,2021-07-29_22h15.26.875,Simcolourproject_2stim_asymm_v5,2020.2.10,MacIntel,60,61025ae37ef11b136ea224fe,,,,,,,,,2953,-78,-35,1,0,0,response5disk,,2,-5,2,1,0,0,rectangle,-5,2,1,0,0,-5,2,1,0,0,0,44,44,53,1,,,,,,,,
,,,,,,,,,,,,,FF,,,,,,,,3.134,,,,,,,,,,,,,,,,,,,,,,60fcf0589b18c268d5a2f38d,61036e9b8edf5797ea8d68b4,2021-07-29_22h15.26.875,Simcolourproject_2stim_asymm_v5,2020.2.10,MacIntel,60,61025ae37ef11b136ea224fe,,,,,,,,,3394,-84,-36,1,0,0,response5disk,,2,-12,0,1,0,0,rectangle,-12,0,1,0,0,-12,0,1,0,0,0,45,45,94,1,,,,,,,,
,,,,,,,,,,,,,FF,,,,,,,,0.968,,,,,,,,,,,,,,,,,,,,,,60fcf0589b18c268d5a2f38d,61036e9b8edf5797ea8d68b4,2021-07-29_22h15.26.875,Simcolourproject_2stim_asymm_v5,2020.2.10,MacIntel,60,61025ae37ef11b136ea224fe,,,,,,,,,984,-86,-28,1,0,0,response5disk,,2,18,9,1,0,0,rectangle,18,9,1,0,0,18,9,1,0,0,0,46,46,39,1,,,,,,,,
,,,,,,,,,,,,,FF,,,,,,,,1.033,,,,,,,,,,,,,,,,,,,,,,60fcf0589b18c268d5a2f38d,61036e9b8edf5797ea8d68b4,2021-07-29_22h15.26.875,Simcolourproject_2stim_asymm_v5,2020.2.10,MacIntel,60,61025ae37ef11b136ea224fe,,,,,,,,,4180,46,74,1,0,0,response1disk,,7,15,3,1,0,0,rectangle,15,3,1,0,0,15,3,1,0,0,0,47,47,77,1,,,,,,,,
,,,,,,,,,,,,,FF,,,,,,,,1.167,,,,,,,,,,,,,,,,,,,,,,60fcf0589b18c268d5a2f38d,61036e9b8edf5797ea8d68b4,2021-07-29_22h15.26.875,Simcolourproject_2stim_asymm_v5,2020.2.10,MacIntel,60,61025ae37ef11b136ea224fe,,,,,,,,,302,82,-34,1,0,0,response3disk,,5,5,6,1,0,0,rectangle,5,6,1,0,0,5,6,1,0,0,0,48,48,89,1,,,,,,,,
,,,,,,,,,,,,,FF,,,,,,,,1.868,,,,,,,,,,,,,,,,,,,,,,60fcf0589b18c268d5a2f38d,61036e9b8edf5797ea8d68b4,2021-07-29_22h15.26.875,Simcolourproject_2stim_asymm_v5,2020.2.10,MacIntel,60,61025ae37ef11b136ea224fe,,,,,,,,,2285,-26,-101,1,0,0,response5disk,,3,-12,8,1,0,0,rectangle,-12,8,1,0,0,-12,8,1,0,0,0,49,49,141,1,,,,,,,,
,,,,,,,,,,,,,FF,,,,,,,,0.867,,,,,,,,,,,,,,,,,,,,,,60fcf0589b18c268d5a2f38d,61036e9b8edf5797ea8d68b4,2021-07-29_22h15.26.875,Simcolourproject_2stim_asymm_v5,2020.2.10,MacIntel,60,61025ae37ef11b136ea224fe,,,,,,,,,4004,65,-42,1,0,0,response3disk,,5,-1,8,1,0,0,rectangle,-1,8,1,0,0,-1,8,1,0,0,0,50,50,8,1,,,,,,,,
,,,,,,,,,,,,,FF,,,,,,,,0.851,,,,,,,,,,,,,,,,,,,,,,60fcf0589b18c268d5a2f38d,61036e9b8edf5797ea8d68b4,2021-07-29_22h15.26.875,Simcolourproject_2stim_asymm_v5,2020.2.10,MacIntel,60,61025ae37ef11b136ea224fe,,,,,,,,,508,80,-23,1,0,0,response3disk,,5,23,1,1,0,0,rectangle,23,1,1,0,0,23,1,1,0,0,0,51,51,138,1,,,,,,,,
,,,,,,,,,,,,,FF,,,,,,,,0.717,,,,,,,,,,,,,,,,,,,,,,60fcf0589b18c268d5a2f38d,61036e9b8edf5797ea8d68b4,2021-07-29_22h15.26.875,Simcolourproject_2stim_asymm_v5,2020.2.10,MacIntel,60,61025ae37ef11b136ea224fe,,,,,,,,,2138,61,30,1,0,0,response1disk,,6,0,0,1,0,0,rectangle,0,0,1,0,0,0,0,1,0,0,0,52,52,40,1,,,,,,,,
,,,,,,,,,,,,,FF,,,,,,,,1.416,,,,,,,,,,,,,,,,,,,,,,60fcf0589b18c268d5a2f38d,61036e9b8edf5797ea8d68b4,2021-07-29_22h15.26.875,Simcolourproject_2stim_asymm_v5,2020.2.10,MacIntel,60,61025ae37ef11b136ea224fe,,,,,,,,,1783,85,26,1,0,0,response1disk,,6,10,5,1,0,0,rectangle,10,5,1,0,0,10,5,1,0,0,0,53,53,106,1,,,,,,,,
,,,,,,,,,,,,,FF,,,,,,,,0.833,,,,,,,,,,,,,,,,,,,,,,60fcf0589b18c268d5a2f38d,61036e9b8edf5797ea8d68b4,2021-07-29_22h15.26.875,Simcolourproject_2stim_asymm_v5,2020.2.10,MacIntel,60,61025ae37ef11b136ea224fe,,,,,,,,,842,95,54,1,0,0,response1disk,,6,5,2,1,0,0,rectangle,5,2,1,0,0,5,2,1,0,0,0,54,54,1,1,,,,,,,,
,,,,,,,,,,,,,FF,,,,,,,,1.585,,,,,,,,,,,,,,,,,,,,,,60fcf0589b18c268d5a2f38d,61036e9b8edf5797ea8d68b4,2021-07-29_22h15.26.875,Simcolourproject_2stim_asymm_v5,2020.2.10,MacIntel,60,61025ae37ef11b136ea224fe,,,,,,,,,2469,96,-47,1,0,0,response3disk,,5,-8,-3,1,0,0,rectangle,-8,-3,1,0,0,-8,-3,1,0,0,0,55,55,3,1,,,,,,,,
,,,,,,,,,,,,,FF,,,,,,,,0.75,,,,,,,,,,,,,,,,,,,,,,60fcf0589b18c268d5a2f38d,61036e9b8edf5797ea8d68b4,2021-07-29_22h15.26.875,Simcolourproject_2stim_asymm_v5,2020.2.10,MacIntel,60,61025ae37ef11b136ea224fe,,,,,,,,,2832,-81,34,1,0,0,response7disk,,1,1,-3,1,0,0,rectangle,1,-3,1,0,0,1,-3,1,0,0,0,56,56,55,1,,,,,,,,
,,,,,,,,,,,,,FF,,,,,,,,0.833,,,,,,,,,,,,,,,,,,,,,,60fcf0589b18c268d5a2f38d,61036e9b8edf5797ea8d68b4,2021-07-29_22h15.26.875,Simcolourproject_2stim_asymm_v5,2020.2.10,MacIntel,60,61025ae37ef11b136ea224fe,,,,,,,,,1998,75,-52,1,0,0,response3disk,,5,12,-6,1,0,0,rectangle,12,-6,1,0,0,12,-6,1,0,0,0,57,57,134,1,,,,,,,,
,,,,,,,,,,,,,FF,,,,,,,,0.935,,,,,,,,,,,,,,,,,,,,,,60fcf0589b18c268d5a2f38d,61036e9b8edf5797ea8d68b4,2021-07-29_22h15.26.875,Simcolourproject_2stim_asymm_v5,2020.2.10,MacIntel,60,61025ae37ef11b136ea224fe,,,,,,,,,4316,-55,81,1,0,0,response7disk,,0,-6,4,1,0,0,rectangle,-6,4,1,0,0,-6,4,1,0,0,0,58,58,119,1,,,,,,,,
,,,,,,,,,,,,,FF,,,,,,,,0.749,,,,,,,,,,,,,,,,,,,,,,60fcf0589b18c268d5a2f38d,61036e9b8edf5797ea8d68b4,2021-07-29_22h15.26.875,Simcolourproject_2stim_asymm_v5,2020.2.10,MacIntel,60,61025ae37ef11b136ea224fe,,,,,,,,,2398,81,45,1,0,0,response1disk,,6,-11,7,1,0,0,rectangle,-11,7,1,0,0,-11,7,1,0,0,0,59,59,68,1,,,,,,,,
,,,,,,,,,,,,,FF,,,,,,,,1.934,,,,,,,,,,,,,,,,,,,,,,60fcf0589b18c268d5a2f38d,61036e9b8edf5797ea8d68b4,2021-07-29_22h15.26.875,Simcolourproject_2stim_asymm_v5,2020.2.10,MacIntel,60,61025ae37ef11b136ea224fe,,,,,,,,,3708,-84,-39,1,0,0,response5disk,,2,-10,-10,1,0,0,rectangle,-10,-10,1,0,0,-10,-10,1,0,0,0,60,60,26,1,,,,,,,,
,,,,,,,,,,,,,FF,,,,,,,,1.118,,,,,,,,,,,,,,,,,,,,,,60fcf0589b18c268d5a2f38d,61036e9b8edf5797ea8d68b4,2021-07-29_22h15.26.875,Simcolourproject_2stim_asymm_v5,2020.2.10,MacIntel,60,61025ae37ef11b136ea224fe,,,,,,,,,2876,100,-41,1,0,0,response3disk,,5,-3,-5,1,0,0,rectangle,-3,-5,1,0,0,-3,-5,1,0,0,0,61,61,37,1,,,,,,,,
,,,,,,,,,,,,,FF,,,,,,,,1.168,,,,,,,,,,,,,,,,,,,,,,60fcf0589b18c268d5a2f38d,61036e9b8edf5797ea8d68b4,2021-07-29_22h15.26.875,Simcolourproject_2stim_asymm_v5,2020.2.10,MacIntel,60,61025ae37ef11b136ea224fe,,,,,,,,,3715,-102,-41,1,0,0,response5disk,,2,12,-2,1,0,0,rectangle,12,-2,1,0,0,12,-2,1,0,0,0,62,62,56,1,,,,,,,,
,,,,,,,,,,,,,FF,,,,,,,,5.102,,,,,,,,,,,,,,,,,,,,,,60fcf0589b18c268d5a2f38d,61036e9b8edf5797ea8d68b4,2021-07-29_22h15.26.875,Simcolourproject_2stim_asymm_v5,2020.2.10,MacIntel,60,61025ae37ef11b136ea224fe,,,,,,,,,3955,-56,-48,1,0,0,response5disk,,2,0,-1,1,0,0,rectangle,0,-1,1,0,0,0,-1,1,0,0,0,63,63,103,1,,,,,,,,
,,,,,,,,,,,,,FF,,,,,,,,0.984,,,,,,,,,,,,,,,,,,,,,,60fcf0589b18c268d5a2f38d,61036e9b8edf5797ea8d68b4,2021-07-29_22h15.26.875,Simcolourproject_2stim_asymm_v5,2020.2.10,MacIntel,60,61025ae37ef11b136ea224fe,,,,,,,,,2622,-36,-74,1,0,0,response5disk,,3,-15,-13,1,0,0,rectangle,-15,-13,1,0,0,-15,-13,1,0,0,0,64,64,65,1,,,,,,,,
,,,,,,,,,,,,,FF,,,,,,,,0.717,,,,,,,,,,,,,,,,,,,,,,60fcf0589b18c268d5a2f38d,61036e9b8edf5797ea8d68b4,2021-07-29_22h15.26.875,Simcolourproject_2stim_asymm_v5,2020.2.10,MacIntel,60,61025ae37ef11b136ea224fe,,,,,,,,,2488,-47,-74,1,0,0,response5disk,,3,-11,-6,1,0,0,rectangle,-11,-6,1,0,0,-11,-6,1,0,0,0,65,65,153,1,,,,,,,,
,,,,,,,,,,,,,FF,,,,,,,,0.8,,,,,,,,,,,,,,,,,,,,,,60fcf0589b18c268d5a2f38d,61036e9b8edf5797ea8d68b4,2021-07-29_22h15.26.875,Simcolourproject_2stim_asymm_v5,2020.2.10,MacIntel,60,61025ae37ef11b136ea224fe,,,,,,,,,911,60,-42,1,0,0,response3disk,,5,11,-10,1,0,0,rectangle,11,-10,1,0,0,11,-10,1,0,0,0,66,66,54,1,,,,,,,,
,,,,,,,,,,,,,FF,,,,,,,,0.883,,,,,,,,,,,,,,,,,,,,,,60fcf0589b18c268d5a2f38d,61036e9b8edf5797ea8d68b4,2021-07-29_22h15.26.875,Simcolourproject_2stim_asymm_v5,2020.2.10,MacIntel,60,61025ae37ef11b136ea224fe,,,,,,,,,4149,-101,-47,1,0,0,response5disk,,2,24,6,1,0,0,rectangle,24,6,1,0,0,24,6,1,0,0,0,67,67,120,1,,,,,,,,
,,,,,,,,,,,,,FF,,,,,,,,0.601,,,,,,,,,,,,,,,,,,,,,,60fcf0589b18c268d5a2f38d,61036e9b8edf5797ea8d68b4,2021-07-29_22h15.26.875,Simcolourproject_2stim_asymm_v5,2020.2.10,MacIntel,60,61025ae37ef11b136ea224fe,,,,,,,,,97,-88,35,1,0,0,response7disk,,1,-16,-15,1,0,0,rectangle,-16,-15,1,0,0,-16,-15,1,0,0,0,68,68,100,1,,,,,,,,
,,,,,,,,,,,,,FF,,,,,,,,0.836,,,,,,,,,,,,,,,,,,,,,,60fcf0589b18c268d5a2f38d,61036e9b8edf5797ea8d68b4,2021-07-29_22h15.26.875,Simcolourproject_2stim_asymm_v5,2020.2.10,MacIntel,60,61025ae37ef11b136ea224fe,,,,,,,,,2180,-32,-98,1,0,0,response5disk,,3,-28,0,1,0,0,rectangle,29,-58,1,0,0,7,-11,1,0,0,0,69,69,66,1,,response3disk_3,TRUE,4,4,"[103,70,33,313,10,225,205,156,140,237,83,189,232,242,5,125,105,216,201,2]",1.484,rectangle
,,,,,,,,,,,,,FF,,,,,,,,1.449,,,,,,,,,,,,,,,,,,,,,,60fcf0589b18c268d5a2f38d,61036e9b8edf5797ea8d68b4,2021-07-29_22h15.26.875,Simcolourproject_2stim_asymm_v5,2020.2.10,MacIntel,60,61025ae37ef11b136ea224fe,,,,,,,,,1876,93,-42,1,0,0,response3disk,,5,-4,3,1,0,0,rectangle,-4,3,1,0,0,-4,3,1,0,0,0,70,70,61,1,,,,,,,,
,,,,,,,,,,,,,FF,,,,,,,,0.799,,,,,,,,,,,,,,,,,,,,,,60fcf0589b18c268d5a2f38d,61036e9b8edf5797ea8d68b4,2021-07-29_22h15.26.875,Simcolourproject_2stim_asymm_v5,2020.2.10,MacIntel,60,61025ae37ef11b136ea224fe,,,,,,,,,1075,101,48,1,0,0,response1disk,,6,4,10,1,0,0,rectangle,4,10,1,0,0,4,10,1,0,0,0,71,71,52,1,,,,,,,,
,,,,,,,,,,,,,FF,,,,,,,,1.517,,,,,,,,,,,,,,,,,,,,,,60fcf0589b18c268d5a2f38d,61036e9b8edf5797ea8d68b4,2021-07-29_22h15.26.875,Simcolourproject_2stim_asymm_v5,2020.2.10,MacIntel,60,61025ae37ef11b136ea224fe,,,,,,,,,1819,-86,34,1,0,0,response7disk,,1,-13,14,1,0,0,rectangle,-13,14,1,0,0,-13,14,1,0,0,0,72,72,88,1,,,,,,,,
,,,,,,,,,,,,,FF,,,,,,,,0.967,,,,,,,,,,,,,,,,,,,,,,60fcf0589b18c268d5a2f38d,61036e9b8edf5797ea8d68b4,2021-07-29_22h15.26.875,Simcolourproject_2stim_asymm_v5,2020.2.10,MacIntel,60,61025ae37ef11b136ea224fe,,,,,,,,,1093,20,-80,1,0,0,response3disk,,4,16,-7,1,0,0,rectangle,16,-7,1,0,0,16,-7,1,0,0,0,73,73,147,1,,,,,,,,
,,,,,,,,,,,,,FF,,,,,,,,0.951,,,,,,,,,,,,,,,,,,,,,,60fcf0589b18c268d5a2f38d,61036e9b8edf5797ea8d68b4,2021-07-29_22h15.26.875,Simcolourproject_2stim_asymm_v5,2020.2.10,MacIntel,60,61025ae37ef11b136ea224fe,,,,,,,,,1143,-58,-66,1,0,0,response5disk,,3,-6,0,1,0,0,rectangle,-6,0,1,0,0,-6,0,1,0,0,0,74,74,96,1,,,,,,,,
,,,,,,,,,,,,,FF,,,,,,,,1.667,,,,,,,,,,,,,,,,,,,,,,60fcf0589b18c268d5a2f38d,61036e9b8edf5797ea8d68b4,2021-07-29_22h15.26.875,Simcolourproject_2stim_asymm_v5,2020.2.10,MacIntel,60,61025ae37ef11b136ea224fe,,,,,,,,,4304,45,82,1,0,0,response1disk,,7,-5,3,1,0,0,rectangle,-5,3,1,0,0,-5,3,1,0,0,0,75,75,75,1,,,,,,,,
,,,,,,,,,,,,,FF,,,,,,,,1.301,,,,,,,,,,,,,,,,,,,,,,60fcf0589b18c268d5a2f38d,61036e9b8edf5797ea8d68b4,2021-07-29_22h15.26.875,Simcolourproject_2stim_asymm_v5,2020.2.10,MacIntel,60,61025ae37ef11b136ea224fe,,,,,,,,,3021,40,-85,1,0,0,response3disk,,4,-15,4,1,0,0,rectangle,-15,4,1,0,0,-15,4,1,0,0,0,76,76,11,1,,,,,,,,
,,,,,,,,,,,,,FF,,,,,,,,1.034,,,,,,,,,,,,,,,,,,,,,,60fcf0589b18c268d5a2f38d,61036e9b8edf5797ea8d68b4,2021-07-29_22h15.26.875,Simcolourproject_2stim_asymm_v5,2020.2.10,MacIntel,60,61025ae37ef11b136ea224fe,,,,,,,,,4152,80,46,1,0,0,response1disk,,6,-6,8,1,0,0,rectangle,-6,8,1,0,0,-6,8,1,0,0,0,77,77,0,1,,,,,,,,
,,,,,,,,,,,,,FF,,,,,,,,1.066,,,,,,,,,,,,,,,,,,,,,,60fcf0589b18c268d5a2f38d,61036e9b8edf5797ea8d68b4,2021-07-29_22h15.26.875,Simcolourproject_2stim_asymm_v5,2020.2.10,MacIntel,60,61025ae37ef11b136ea224fe,,,,,,,,,3493,79,56,1,0,0,response1disk,,6,13,2,1,0,0,rectangle,13,2,1,0,0,13,2,1,0,0,0,78,78,73,1,,,,,,,,
,,,,,,,,,,,,,FF,,,,,,,,3.202,,,,,,,,,,,,,,,,,,,,,,60fcf0589b18c268d5a2f38d,61036e9b8edf5797ea8d68b4,2021-07-29_22h15.26.875,Simcolourproject_2stim_asymm_v5,2020.2.10,MacIntel,60,61025ae37ef11b136ea224fe,,,,,,,,,3933,78,-37,1,0,0,response3disk,,5,-10,7,1,0,0,rectangle,-10,7,1,0,0,-10,7,1,0,0,0,79,79,17,1,,,,,,,,
,,,,,,,,,,,,,FF,,,,,,,,0.951,,,,,,,,,,,,,,,,,,,,,,60fcf0589b18c268d5a2f38d,61036e9b8edf5797ea8d68b4,2021-07-29_22h15.26.875,Simcolourproject_2stim_asymm_v5,2020.2.10,MacIntel,60,61025ae37ef11b136ea224fe,,,,,,,,,3467,39,68,1,0,0,response1disk,,7,24,7,1,0,0,rectangle,24,7,1,0,0,24,7,1,0,0,0,80,80,158,1,,,,,,,,
,,,,,,,,,,,,,FF,,,,,,,,0.8,,,,,,,,,,,,,,,,,,,,,,60fcf0589b18c268d5a2f38d,61036e9b8edf5797ea8d68b4,2021-07-29_22h15.26.875,Simcolourproject_2stim_asymm_v5,2020.2.10,MacIntel,60,61025ae37ef11b136ea224fe,,,,,,,,,4046,-37,65,1,0,0,response7disk,,0,-16,3,1,0,0,rectangle,-16,3,1,0,0,-16,3,1,0,0,0,81,81,51,1,,,,,,,,
,,,,,,,,,,,,,FF,,,,,,,,0.835,,,,,,,,,,,,,,,,,,,,,,60fcf0589b18c268d5a2f38d,61036e9b8edf5797ea8d68b4,2021-07-29_22h15.26.875,Simcolourproject_2stim_asymm_v5,2020.2.10,MacIntel,60,61025ae37ef11b136ea224fe,,,,,,,,,685,76,-41,1,0,0,response3disk,,5,14,-3,1,0,0,rectangle,95,-43,1,0,0,19,2,1,0,0,0,82,82,118,1,,response3disk_3,TRUE,5,5,"[103,70,33,313,10,225,205,156,140,237,83,189,232,242,5,125,105,216,201,2]",1.283,rectangle
,,,,,,,,,,,,,FF,,,,,,,,2.634,,,,,,,,,,,,,,,,,,,,,,60fcf0589b18c268d5a2f38d,61036e9b8edf5797ea8d68b4,2021-07-29_22h15.26.875,Simcolourproject_2stim_asymm_v5,2020.2.10,MacIntel,60,61025ae37ef11b136ea224fe,,,,,,,,,993,-52,-80,1,0,0,response5disk,,3,-12,-2,1,0,0,rectangle,-12,-2,1,0,0,-12,-2,1,0,0,0,83,83,35,1,,,,,,,,
,,,,,,,,,,,,,FF,,,,,,,,0.751,,,,,,,,,,,,,,,,,,,,,,60fcf0589b18c268d5a2f38d,61036e9b8edf5797ea8d68b4,2021-07-29_22h15.26.875,Simcolourproject_2stim_asymm_v5,2020.2.10,MacIntel,60,61025ae37ef11b136ea224fe,,,,,,,,,4250,70,39,1,0,0,response1disk,,6,12,0,1,0,0,rectangle,12,0,1,0,0,12,0,1,0,0,0,84,84,123,1,,,,,,,,
,,,,,,,,,,,,,FF,,,,,,,,0.885,,,,,,,,,,,,,,,,,,,,,,60fcf0589b18c268d5a2f38d,61036e9b8edf5797ea8d68b4,2021-07-29_22h15.26.875,Simcolourproject_2stim_asymm_v5,2020.2.10,MacIntel,60,61025ae37ef11b136ea224fe,,,,,,,,,1862,69,43,1,0,0,response1disk,,6,3,-7,1,0,0,rectangle,3,-7,1,0,0,3,-7,1,0,0,0,85,85,38,1,,,,,,,,
,,,,,,,,,,,,,FF,,,,,,,,0.834,,,,,,,,,,,,,,,,,,,,,,60fcf0589b18c268d5a2f38d,61036e9b8edf5797ea8d68b4,2021-07-29_22h15.26.875,Simcolourproject_2stim_asymm_v5,2020.2.10,MacIntel,60,61025ae37ef11b136ea224fe,,,,,,,,,3172,86,-39,1,0,0,response3disk,,5,12,6,1,0,0,rectangle,12,6,1,0,0,12,6,1,0,0,0,86,86,154,1,,,,,,,,
,,,,,,,,,,,,,FF,,,,,,,,0.8,,,,,,,,,,,,,,,,,,,,,,60fcf0589b18c268d5a2f38d,61036e9b8edf5797ea8d68b4,2021-07-29_22h15.26.875,Simcolourproject_2stim_asymm_v5,2020.2.10,MacIntel,60,61025ae37ef11b136ea224fe,,,,,,,,,3248,-81,-40,1,0,0,response5disk,,2,0,1,1,0,0,rectangle,0,1,1,0,0,0,1,1,0,0,0,87,87,86,1,,,,,,,,
,,,,,,,,,,,,,FF,,,,,,,,0.785,,,,,,,,,,,,,,,,,,,,,,60fcf0589b18c268d5a2f38d,61036e9b8edf5797ea8d68b4,2021-07-29_22h15.26.875,Simcolourproject_2stim_asymm_v5,2020.2.10,MacIntel,60,61025ae37ef11b136ea224fe,,,,,,,,,2015,91,-44,1,0,0,response3disk,,5,18,-11,1,0,0,rectangle,18,-11,1,0,0,18,-11,1,0,0,0,88,88,111,1,,,,,,,,
,,,,,,,,,,,,,FF,,,,,,,,0.768,,,,,,,,,,,,,,,,,,,,,,60fcf0589b18c268d5a2f38d,61036e9b8edf5797ea8d68b4,2021-07-29_22h15.26.875,Simcolourproject_2stim_asymm_v5,2020.2.10,MacIntel,60,61025ae37ef11b136ea224fe,,,,,,,,,2935,-75,41,1,0,0,response7disk,,1,-19,3,1,0,0,rectangle,-19,3,1,0,0,-19,3,1,0,0,0,89,89,140,1,,,,,,,,
,,,,,,,,,,,,,FF,,,,,,,,0.766,,,,,,,,,,,,,,,,,,,,,,60fcf0589b18c268d5a2f38d,61036e9b8edf5797ea8d68b4,2021-07-29_22h15.26.875,Simcolourproject_2stim_asymm_v5,2020.2.10,MacIntel,60,61025ae37ef11b136ea224fe,,,,,,,,,4227,81,36,1,0,0,response1disk,,6,-9,6,1,0,0,rectangle,-9,6,1,0,0,-9,6,1,0,0,0,90,90,50,1,,,,,,,,
,,,,,,,,,,,,,FF,,,,,,,,0.935,,,,,,,,,,,,,,,,,,,,,,60fcf0589b18c268d5a2f38d,61036e9b8edf5797ea8d68b4,2021-07-29_22h15.26.875,Simcolourproject_2stim_asymm_v5,2020.2.10,MacIntel,60,61025ae37ef11b136ea224fe,,,,,,,,,1504,95,-28,1,0,0,response3disk,,5,4,-9,1,0,0,rectangle,4,-9,1,0,0,4,-9,1,0,0,0,91,91,151,1,,,,,,,,
,,,,,,,,,,,,,FF,,,,,,,,1.134,,,,,,,,,,,,,,,,,,,,,,60fcf0589b18c268d5a2f38d,61036e9b8edf5797ea8d68b4,2021-07-29_22h15.26.875,Simcolourproject_2stim_asymm_v5,2020.2.10,MacIntel,60,61025ae37ef11b136ea224fe,,,,,,,,,1682,-72,42,1,0,0,response7disk,,1,7,4,1,0,0,rectangle,7,4,1,0,0,7,4,1,0,0,0,92,92,33,1,,,,,,,,
,,,,,,,,,,,,,FF,,,,,,,,3.969,,,,,,,,,,,,,,,,,,,,,,60fcf0589b18c268d5a2f38d,61036e9b8edf5797ea8d68b4,2021-07-29_22h15.26.875,Simcolourproject_2stim_asymm_v5,2020.2.10,MacIntel,60,61025ae37ef11b136ea224fe,,,,,,,,,1851,-57,-90,1,0,0,response5disk,,3,-10,-5,1,0,0,rectangle,-10,-5,1,0,0,-10,-5,1,0,0,0,93,93,143,1,,,,,,,,
,,,,,,,,,,,,,FF,,,,,,,,0.767,,,,,,,,,,,,,,,,,,,,,,60fcf0589b18c268d5a2f38d,61036e9b8edf5797ea8d68b4,2021-07-29_22h15.26.875,Simcolourproject_2stim_asymm_v5,2020.2.10,MacIntel,60,61025ae37ef11b136ea224fe,,,,,,,,,2509,70,-42,1,0,0,response3disk,,5,-2,-3,1,0,0,rectangle,-2,-3,1,0,0,-2,-3,1,0,0,0,94,94,72,1,,,,,,,,
,,,,,,,,,,,,,FF,,,,,,,,0.666,,,,,,,,,,,,,,,,,,,,,,60fcf0589b18c268d5a2f38d,61036e9b8edf5797ea8d68b4,2021-07-29_22h15.26.875,Simcolourproject_2stim_asymm_v5,2020.2.10,MacIntel,60,61025ae37ef11b136ea224fe,,,,,,,,,2258,105,-55,1,0,0,response3disk,,5,12,0,1,0,0,rectangle,12,0,1,0,0,12,0,1,0,0,0,95,95,28,1,,,,,,,,
,,,,,,,,,,,,,FF,,,,,,,,0.584,,,,,,,,,,,,,,,,,,,,,,60fcf0589b18c268d5a2f38d,61036e9b8edf5797ea8d68b4,2021-07-29_22h15.26.875,Simcolourproject_2stim_asymm_v5,2020.2.10,MacIntel,60,61025ae37ef11b136ea224fe,,,,,,,,,202,75,-41,1,0,0,response3disk,,5,0,-2,1,0,0,rectangle,0,-2,1,0,0,0,-2,1,0,0,0,96,96,145,1,,,,,,,,
,,,,,,,,,,,,,FF,,,,,,,,1.034,,,,,,,,,,,,,,,,,,,,,,60fcf0589b18c268d5a2f38d,61036e9b8edf5797ea8d68b4,2021-07-29_22h15.26.875,Simcolourproject_2stim_asymm_v5,2020.2.10,MacIntel,60,61025ae37ef11b136ea224fe,,,,,,,,,2313,80,44,1,0,0,response1disk,,6,-11,4,1,0,0,rectangle,-11,4,1,0,0,-11,4,1,0,0,0,97,97,131,1,,,,,,,,
,,,,,,,,,,,,,FF,,,,,,,,1.034,,,,,,,,,,,,,,,,,,,,,,60fcf0589b18c268d5a2f38d,61036e9b8edf5797ea8d68b4,2021-07-29_22h15.26.875,Simcolourproject_2stim_asymm_v5,2020.2.10,MacIntel,60,61025ae37ef11b136ea224fe,,,,,,,,,3903,-41,-76,1,0,0,response5disk,,3,-11,-3,1,0,0,rectangle,-11,-3,1,0,0,-11,-3,1,0,0,0,98,98,144,1,,,,,,,,
,,,,,,,,,,,,,FF,,,,,,,,0.767,,,,,,,,,,,,,,,,,,,,,,60fcf0589b18c268d5a2f38d,61036e9b8edf5797ea8d68b4,2021-07-29_22h15.26.875,Simcolourproject_2stim_asymm_v5,2020.2.10,MacIntel,60,61025ae37ef11b136ea224fe,,,,,,,,,905,66,-84,1,0,0,response3disk,,4,17,0,1,0,0,rectangle,17,0,1,0,0,17,0,1,0,0,0,99,99,49,1,,,,,,,,
,,,,,,,,,,,,,FF,,,,,,,,0.768,,,,,,,,,,,,,,,,,,,,,,60fcf0589b18c268d5a2f38d,61036e9b8edf5797ea8d68b4,2021-07-29_22h15.26.875,Simcolourproject_2stim_asymm_v5,2020.2.10,MacIntel,60,61025ae37ef11b136ea224fe,,,,,,,,,3135,88,-44,1,0,0,response3disk,,5,11,0,1,0,0,rectangle,11,0,1,0,0,11,0,1,0,0,0,100,100,14,1,,,,,,,,
,,,,,,,,,,,,,FF,,,,,,,,0.9,,,,,,,,,,,,,,,,,,,,,,60fcf0589b18c268d5a2f38d,61036e9b8edf5797ea8d68b4,2021-07-29_22h15.26.875,Simcolourproject_2stim_asymm_v5,2020.2.10,MacIntel,60,61025ae37ef11b136ea224fe,,,,,,,,,623,82,43,1,0,0,response1disk,,6,-5,-12,1,0,0,rectangle,-5,-12,1,0,0,-5,-12,1,0,0,0,101,101,78,1,,,,,,,,
,,,,,,,,,,,,,FF,,,,,,,,0.784,,,,,,,,,,,,,,,,,,,,,,60fcf0589b18c268d5a2f38d,61036e9b8edf5797ea8d68b4,2021-07-29_22h15.26.875,Simcolourproject_2stim_asymm_v5,2020.2.10,MacIntel,60,61025ae37ef11b136ea224fe,,,,,,,,,2978,83,39,1,0,0,response1disk,,6,-22,-7,1,0,0,rectangle,-45,90,1,0,0,-5,0,1,0,0,0,102,102,36,1,,response7disk_3,TRUE,0,0,"[103,70,33,313,10,225,205,156,140,237,83,189,232,242,5,125,105,216,201,2]",1.25,rectangle
,,,,,,,,,,,,,FF,,,,,,,,0.884,,,,,,,,,,,,,,,,,,,,,,60fcf0589b18c268d5a2f38d,61036e9b8edf5797ea8d68b4,2021-07-29_22h15.26.875,Simcolourproject_2stim_asymm_v5,2020.2.10,MacIntel,60,61025ae37ef11b136ea224fe,,,,,,,,,3492,86,39,1,0,0,response1disk,,6,15,1,1,0,0,rectangle,15,1,1,0,0,15,1,1,0,0,0,103,103,69,1,,,,,,,,
,,,,,,,,,,,,,FF,,,,,,,,0.7,,,,,,,,,,,,,,,,,,,,,,60fcf0589b18c268d5a2f38d,61036e9b8edf5797ea8d68b4,2021-07-29_22h15.26.875,Simcolourproject_2stim_asymm_v5,2020.2.10,MacIntel,60,61025ae37ef11b136ea224fe,,,,,,,,,1943,75,47,1,0,0,response1disk,,6,-13,-3,1,0,0,rectangle,-40,83,1,0,0,-17,4,1,0,0,0,104,104,92,1,,response7disk_3,TRUE,0,0,"[103,70,33,313,10,225,205,156,140,237,83,189,232,242,5,125,105,216,201,2]",1.65,rectangle
,,,,,,,,,,,,,FF,,,,,,,,0.799,,,,,,,,,,,,,,,,,,,,,,60fcf0589b18c268d5a2f38d,61036e9b8edf5797ea8d68b4,2021-07-29_22h15.26.875,Simcolourproject_2stim_asymm_v5,2020.2.10,MacIntel,60,61025ae37ef11b136ea224fe,,,,,,,,,2581,93,44,1,0,0,response1disk,,6,-5,3,1,0,0,rectangle,-5,3,1,0,0,-5,3,1,0,0,0,105,105,74,1,,,,,,,,
,,,,,,,,,,,,,FF,,,,,,,,0.768,,,,,,,,,,,,,,,,,,,,,,60fcf0589b18c268d5a2f38d,61036e9b8edf5797ea8d68b4,2021-07-29_22h15.26.875,Simcolourproject_2stim_asymm_v5,2020.2.10,MacIntel,60,61025ae37ef11b136ea224fe,,,,,,,,,2718,-42,70,1,0,0,response7disk,,0,-18,9,1,0,0,rectangle,-18,9,1,0,0,-18,9,1,0,0,0,106,106,137,1,,,,,,,,
,,,,,,,,,,,,,FF,,,,,,,,1.167,,,,,,,,,,,,,,,,,,,,,,60fcf0589b18c268d5a2f38d,61036e9b8edf5797ea8d68b4,2021-07-29_22h15.26.875,Simcolourproject_2stim_asymm_v5,2020.2.10,MacIntel,60,61025ae37ef11b136ea224fe,,,,,,,,,1578,73,-37,1,0,0,response3disk,,5,6,-14,1,0,0,rectangle,6,-14,1,0,0,6,-14,1,0,0,0,107,107,157,1,,,,,,,,
,,,,,,,,,,,,,FF,,,,,,,,0.735,,,,,,,,,,,,,,,,,,,,,,60fcf0589b18c268d5a2f38d,61036e9b8edf5797ea8d68b4,2021-07-29_22h15.26.875,Simcolourproject_2stim_asymm_v5,2020.2.10,MacIntel,60,61025ae37ef11b136ea224fe,,,,,,,,,3622,-96,53,1,0,0,response7disk,,1,-25,8,1,0,0,rectangle,-25,8,1,0,0,-25,8,1,0,0,0,108,108,58,1,,,,,,,,
,,,,,,,,,,,,,FF,,,,,,,,0.868,,,,,,,,,,,,,,,,,,,,,,60fcf0589b18c268d5a2f38d,61036e9b8edf5797ea8d68b4,2021-07-29_22h15.26.875,Simcolourproject_2stim_asymm_v5,2020.2.10,MacIntel,60,61025ae37ef11b136ea224fe,,,,,,,,,2339,33,-78,1,0,0,response3disk,,4,2,1,1,0,0,rectangle,2,1,1,0,0,2,1,1,0,0,0,109,109,98,1,,,,,,,,
,,,,,,,,,,,,,FF,,,,,,,,0.917,,,,,,,,,,,,,,,,,,,,,,60fcf0589b18c268d5a2f38d,61036e9b8edf5797ea8d68b4,2021-07-29_22h15.26.875,Simcolourproject_2stim_asymm_v5,2020.2.10,MacIntel,60,61025ae37ef11b136ea224fe,,,,,,,,,549,-48,-79,1,0,0,response5disk,,3,-8,-5,1,0,0,rectangle,-8,-5,1,0,0,-8,-5,1,0,0,0,110,110,93,1,,,,,,,,
,,,,,,,,,,,,,FF,,,,,,,,0.768,,,,,,,,,,,,,,,,,,,,,,60fcf0589b18c268d5a2f38d,61036e9b8edf5797ea8d68b4,2021-07-29_22h15.26.875,Simcolourproject_2stim_asymm_v5,2020.2.10,MacIntel,60,61025ae37ef11b136ea224fe,,,,,,,,,2918,92,28,1,0,0,response1disk,,6,-2,1,1,0,0,rectangle,-2,1,1,0,0,-2,1,1,0,0,0,111,111,13,1,,,,,,,,
,,,,,,,,,,,,,FF,,,,,,,,0.766,,,,,,,,,,,,,,,,,,,,,,60fcf0589b18c268d5a2f38d,61036e9b8edf5797ea8d68b4,2021-07-29_22h15.26.875,Simcolourproject_2stim_asymm_v5,2020.2.10,MacIntel,60,61025ae37ef11b136ea224fe,,,,,,,,,792,35,69,1,0,0,response1disk,,7,14,2,1,0,0,rectangle,14,2,1,0,0,14,2,1,0,0,0,112,112,44,1,,,,,,,,
,,,,,,,,,,,,,FF,,,,,,,,1.034,,,,,,,,,,,,,,,,,,,,,,60fcf0589b18c268d5a2f38d,61036e9b8edf5797ea8d68b4,2021-07-29_22h15.26.875,Simcolourproject_2stim_asymm_v5,2020.2.10,MacIntel,60,61025ae37ef11b136ea224fe,,,,,,,,,1124,87,37,1,0,0,response1disk,,6,6,4,1,0,0,rectangle,6,4,1,0,0,6,4,1,0,0,0,113,113,104,1,,,,,,,,
,,,,,,,,,,,,,FF,,,,,,,,0.951,,,,,,,,,,,,,,,,,,,,,,60fcf0589b18c268d5a2f38d,61036e9b8edf5797ea8d68b4,2021-07-29_22h15.26.875,Simcolourproject_2stim_asymm_v5,2020.2.10,MacIntel,60,61025ae37ef11b136ea224fe,,,,,,,,,4260,57,41,1,0,0,response1disk,,6,13,1,1,0,0,rectangle,13,1,1,0,0,13,1,1,0,0,0,114,114,64,1,,,,,,,,
,,,,,,,,,,,,,FF,,,,,,,,0.7,,,,,,,,,,,,,,,,,,,,,,60fcf0589b18c268d5a2f38d,61036e9b8edf5797ea8d68b4,2021-07-29_22h15.26.875,Simcolourproject_2stim_asymm_v5,2020.2.10,MacIntel,60,61025ae37ef11b136ea224fe,,,,,,,,,364,33,75,1,0,0,response1disk,,7,3,1,1,0,0,rectangle,3,1,1,0,0,3,1,1,0,0,0,115,115,159,1,,,,,,,,
,,,,,,,,,,,,,FF,,,,,,,,0.884,,,,,,,,,,,,,,,,,,,,,,60fcf0589b18c268d5a2f38d,61036e9b8edf5797ea8d68b4,2021-07-29_22h15.26.875,Simcolourproject_2stim_asymm_v5,2020.2.10,MacIntel,60,61025ae37ef11b136ea224fe,,,,,,,,,4132,87,31,1,0,0,response1disk,,6,3,-1,1,0,0,rectangle,3,-1,1,0,0,3,-1,1,0,0,0,116,116,18,1,,,,,,,,
,,,,,,,,,,,,,FF,,,,,,,,0.949,,,,,,,,,,,,,,,,,,,,,,60fcf0589b18c268d5a2f38d,61036e9b8edf5797ea8d68b4,2021-07-29_22h15.26.875,Simcolourproject_2stim_asymm_v5,2020.2.10,MacIntel,60,61025ae37ef11b136ea224fe,,,,,,,,,1973,-80,-55,1,0,0,response5disk,,2,-8,-1,1,0,0,rectangle,-8,-1,1,0,0,-8,-1,1,0,0,0,117,117,42,1,,,,,,,,
,,,,,,,,,,,,,FF,,,,,,,,0.684,,,,,,,,,,,,,,,,,,,,,,60fcf0589b18c268d5a2f38d,61036e9b8edf5797ea8d68b4,2021-07-29_22h15.26.875,Simcolourproject_2stim_asymm_v5,2020.2.10,MacIntel,60,61025ae37ef11b136ea224fe,,,,,,,,,2834,-47,-89,1,0,0,response5disk,,3,-13,-1,1,0,0,rectangle,-13,-1,1,0,0,-13,-1,1,0,0,0,118,118,114,1,,,,,,,,
,,,,,,,,,,,,,FF,,,,,,,,0.784,,,,,,,,,,,,,,,,,,,,,,60fcf0589b18c268d5a2f38d,61036e9b8edf5797ea8d68b4,2021-07-29_22h15.26.875,Simcolourproject_2stim_asymm_v5,2020.2.10,MacIntel,60,61025ae37ef11b136ea224fe,,,,,,,,,1687,40,-61,1,0,0,response3disk,,4,20,14,1,0,0,rectangle,20,14,1,0,0,20,14,1,0,0,0,119,119,2,1,,,,,,,,
,,,,,,,,,,,,,FF,,,,,,,,0.7,,,,,,,,,,,,,,,,,,,,,,60fcf0589b18c268d5a2f38d,61036e9b8edf5797ea8d68b4,2021-07-29_22h15.26.875,Simcolourproject_2stim_asymm_v5,2020.2.10,MacIntel,60,61025ae37ef11b136ea224fe,,,,,,,,,1942,81,-39,1,0,0,response3disk,,5,12,2,1,0,0,rectangle,12,2,1,0,0,12,2,1,0,0,0,120,120,142,1,,,,,,,,
,,,,,,,,,,,,,FF,,,,,,,,0.751,,,,,,,,,,,,,,,,,,,,,,60fcf0589b18c268d5a2f38d,61036e9b8edf5797ea8d68b4,2021-07-29_22h15.26.875,Simcolourproject_2stim_asymm_v5,2020.2.10,MacIntel,60,61025ae37ef11b136ea224fe,,,,,,,,,3392,-77,23,1,0,0,response7disk,,1,-8,5,1,0,0,rectangle,-8,5,1,0,0,-8,5,1,0,0,0,121,121,12,1,,,,,,,,
,,,,,,,,,,,,,FF,,,,,,,,0.717,,,,,,,,,,,,,,,,,,,,,,60fcf0589b18c268d5a2f38d,61036e9b8edf5797ea8d68b4,2021-07-29_22h15.26.875,Simcolourproject_2stim_asymm_v5,2020.2.10,MacIntel,60,61025ae37ef11b136ea224fe,,,,,,,,,1614,-43,-81,1,0,0,response5disk,,3,-17,7,1,0,0,rectangle,-17,7,1,0,0,-17,7,1,0,0,0,122,122,85,1,,,,,,,,
,,,,,,,,,,,,,FF,,,,,,,,0.951,,,,,,,,,,,,,,,,,,,,,,60fcf0589b18c268d5a2f38d,61036e9b8edf5797ea8d68b4,2021-07-29_22h15.26.875,Simcolourproject_2stim_asymm_v5,2020.2.10,MacIntel,60,61025ae37ef11b136ea224fe,,,,,,,,,3698,34,-92,1,0,0,response3disk,,4,6,3,1,0,0,rectangle,6,3,1,0,0,6,3,1,0,0,0,123,123,97,1,,,,,,,,
,,,,,,,,,,,,,FF,,,,,,,,2.951,,,,,,,,,,,,,,,,,,,,,,60fcf0589b18c268d5a2f38d,61036e9b8edf5797ea8d68b4,2021-07-29_22h15.26.875,Simcolourproject_2stim_asymm_v5,2020.2.10,MacIntel,60,61025ae37ef11b136ea224fe,,,,,,,,,3369,90,30,1,0,0,response1disk,,6,19,4,1,0,0,rectangle,49,-94,1,0,0,10,-1,1,0,0,0,124,124,124,1,,response3disk_3,TRUE,4,4,"[103,70,33,313,10,225,205,156,140,237,83,189,232,242,5,125,105,216,201,2]",2.084,rectangle
,,,,,,,,,,,,,FF,,,,,,,,1.017,,,,,,,,,,,,,,,,,,,,,,60fcf0589b18c268d5a2f38d,61036e9b8edf5797ea8d68b4,2021-07-29_22h15.26.875,Simcolourproject_2stim_asymm_v5,2020.2.10,MacIntel,60,61025ae37ef11b136ea224fe,,,,,,,,,113,33,-68,1,0,0,response3disk,,4,1,7,1,0,0,rectangle,1,7,1,0,0,1,7,1,0,0,0,125,125,23,1,,,,,,,,
,,,,,,,,,,,,,FF,,,,,,,,2.618,,,,,,,,,,,,,,,,,,,,,,60fcf0589b18c268d5a2f38d,61036e9b8edf5797ea8d68b4,2021-07-29_22h15.26.875,Simcolourproject_2stim_asymm_v5,2020.2.10,MacIntel,60,61025ae37ef11b136ea224fe,,,,,,,,,1644,75,-58,1,0,0,response3disk,,5,20,-8,1,0,0,rectangle,20,-8,1,0,0,20,-8,1,0,0,0,126,126,136,1,,,,,,,,
,,,,,,,,,,,,,FF,,,,,,,,0.818,,,,,,,,,,,,,,,,,,,,,,60fcf0589b18c268d5a2f38d,61036e9b8edf5797ea8d68b4,2021-07-29_22h15.26.875,Simcolourproject_2stim_asymm_v5,2020.2.10,MacIntel,60,61025ae37ef11b136ea224fe,,,,,,,,,1374,-92,-41,1,0,0,response5disk,,2,-5,3,1,0,0,rectangle,-5,3,1,0,0,-5,3,1,0,0,0,127,127,108,1,,,,,,,,
,,,,,,,,,,,,,FF,,,,,,,,0.934,,,,,,,,,,,,,,,,,,,,,,60fcf0589b18c268d5a2f38d,61036e9b8edf5797ea8d68b4,2021-07-29_22h15.26.875,Simcolourproject_2stim_asymm_v5,2020.2.10,MacIntel,60,61025ae37ef11b136ea224fe,,,,,,,,,193,30,-88,1,0,0,response3disk,,4,-1,-11,1,0,0,rectangle,-1,-11,1,0,0,-1,-11,1,0,0,0,128,128,57,1,,,,,,,,
,,,,,,,,,,,,,FF,,,,,,,,0.867,,,,,,,,,,,,,,,,,,,,,,60fcf0589b18c268d5a2f38d,61036e9b8edf5797ea8d68b4,2021-07-29_22h15.26.875,Simcolourproject_2stim_asymm_v5,2020.2.10,MacIntel,60,61025ae37ef11b136ea224fe,,,,,,,,,1490,86,35,1,0,0,response1disk,,6,17,-7,1,0,0,rectangle,17,-7,1,0,0,17,-7,1,0,0,0,129,129,79,1,,,,,,,,
,,,,,,,,,,,,,FF,,,,,,,,0.684,,,,,,,,,,,,,,,,,,,,,,60fcf0589b18c268d5a2f38d,61036e9b8edf5797ea8d68b4,2021-07-29_22h15.26.875,Simcolourproject_2stim_asymm_v5,2020.2.10,MacIntel,60,61025ae37ef11b136ea224fe,,,,,,,,,357,33,95,1,0,0,response1disk,,7,7,3,1,0,0,rectangle,7,3,1,0,0,7,3,1,0,0,0,130,130,16,1,,,,,,,,
,,,,,,,,,,,,,FF,,,,,,,,0.784,,,,,,,,,,,,,,,,,,,,,,60fcf0589b18c268d5a2f38d,61036e9b8edf5797ea8d68b4,2021-07-29_22h15.26.875,Simcolourproject_2stim_asymm_v5,2020.2.10,MacIntel,60,61025ae37ef11b136ea224fe,,,,,,,,,1057,83,-33,1,0,0,response3disk,,5,9,12,1,0,0,rectangle,9,12,1,0,0,9,12,1,0,0,0,131,131,155,1,,,,,,,,
,,,,,,,,,,,,,FF,,,,,,,,0.665,,,,,,,,,,,,,,,,,,,,,,60fcf0589b18c268d5a2f38d,61036e9b8edf5797ea8d68b4,2021-07-29_22h15.26.875,Simcolourproject_2stim_asymm_v5,2020.2.10,MacIntel,60,61025ae37ef11b136ea224fe,,,,,,,,,2191,69,35,1,0,0,response1disk,,6,2,3,1,0,0,rectangle,2,3,1,0,0,2,3,1,0,0,0,132,132,102,1,,,,,,,,
,,,,,,,,,,,,,FF,,,,,,,,0.868,,,,,,,,,,,,,,,,,,,,,,60fcf0589b18c268d5a2f38d,61036e9b8edf5797ea8d68b4,2021-07-29_22h15.26.875,Simcolourproject_2stim_asymm_v5,2020.2.10,MacIntel,60,61025ae37ef11b136ea224fe,,,,,,,,,266,-58,-88,1,0,0,response5disk,,3,1,9,1,0,0,rectangle,1,9,1,0,0,1,9,1,0,0,0,133,133,60,1,,,,,,,,
,,,,,,,,,,,,,FF,,,,,,,,0.851,,,,,,,,,,,,,,,,,,,,,,60fcf0589b18c268d5a2f38d,61036e9b8edf5797ea8d68b4,2021-07-29_22h15.26.875,Simcolourproject_2stim_asymm_v5,2020.2.10,MacIntel,60,61025ae37ef11b136ea224fe,,,,,,,,,3350,29,-74,1,0,0,response3disk,,4,9,-11,1,0,0,rectangle,9,-11,1,0,0,9,-11,1,0,0,0,134,134,59,1,,,,,,,,
,,,,,,,,,,,,,FF,,,,,,,,2.501,,,,,,,,,,,,,,,,,,,,,,60fcf0589b18c268d5a2f38d,61036e9b8edf5797ea8d68b4,2021-07-29_22h15.26.875,Simcolourproject_2stim_asymm_v5,2020.2.10,MacIntel,60,61025ae37ef11b136ea224fe,,,,,,,,,3920,-88,-36,1,0,0,response5disk,,2,-8,5,1,0,0,rectangle,-8,5,1,0,0,-8,5,1,0,0,0,135,135,10,1,,,,,,,,
,,,,,,,,,,,,,FF,,,,,,,,1.117,,,,,,,,,,,,,,,,,,,,,,60fcf0589b18c268d5a2f38d,61036e9b8edf5797ea8d68b4,2021-07-29_22h15.26.875,Simcolourproject_2stim_asymm_v5,2020.2.10,MacIntel,60,61025ae37ef11b136ea224fe,,,,,,,,,2177,-35,-79,1,0,0,response5disk,,3,-2,-11,1,0,0,rectangle,-2,-11,1,0,0,-2,-11,1,0,0,0,136,136,31,1,,,,,,,,
,,,,,,,,,,,,,FF,,,,,,,,0.951,,,,,,,,,,,,,,,,,,,,,,60fcf0589b18c268d5a2f38d,61036e9b8edf5797ea8d68b4,2021-07-29_22h15.26.875,Simcolourproject_2stim_asymm_v5,2020.2.10,MacIntel,60,61025ae37ef11b136ea224fe,,,,,,,,,1916,-28,-85,1,0,0,response5disk,,3,0,4,1,0,0,rectangle,0,4,1,0,0,0,4,1,0,0,0,137,137,125,1,,,,,,,,
,,,,,,,,,,,,,FF,,,,,,,,0.683,,,,,,,,,,,,,,,,,,,,,,60fcf0589b18c268d5a2f38d,61036e9b8edf5797ea8d68b4,2021-07-29_22h15.26.875,Simcolourproject_2stim_asymm_v5,2020.2.10,MacIntel,60,61025ae37ef11b136ea224fe,,,,,,,,,250,34,-63,1,0,0,response3disk,,4,2,-2,1,0,0,rectangle,2,-2,1,0,0,2,-2,1,0,0,0,138,138,21,1,,,,,,,,
,,,,,,,,,,,,,FF,,,,,,,,1.283,,,,,,,,,,,,,,,,,,,,,,60fcf0589b18c268d5a2f38d,61036e9b8edf5797ea8d68b4,2021-07-29_22h15.26.875,Simcolourproject_2stim_asymm_v5,2020.2.10,MacIntel,60,61025ae37ef11b136ea224fe,,,,,,,,,3483,80,-34,1,0,0,response3disk,,5,15,-7,1,0,0,rectangle,16,-78,1,0,0,3,-4,1,0,0,0,139,139,22,1,,response3disk_3,TRUE,4,4,"[103,70,33,313,10,225,205,156,140,237,83,189,232,242,5,125,105,216,201,2]",1.649,rectangle
,,,,,,,,,,,,,FF,,,,,,,,0.951,,,,,,,,,,,,,,,,,,,,,,60fcf0589b18c268d5a2f38d,61036e9b8edf5797ea8d68b4,2021-07-29_22h15.26.875,Simcolourproject_2stim_asymm_v5,2020.2.10,MacIntel,60,61025ae37ef11b136ea224fe,,,,,,,,,255,-74,-45,1,0,0,response5disk,,2,-2,-12,1,0,0,rectangle,-2,-12,1,0,0,-2,-12,1,0,0,0,140,140,130,1,,,,,,,,
,,,,,,,,,,,,,FF,,,,,,,,0.951,,,,,,,,,,,,,,,,,,,,,,60fcf0589b18c268d5a2f38d,61036e9b8edf5797ea8d68b4,2021-07-29_22h15.26.875,Simcolourproject_2stim_asymm_v5,2020.2.10,MacIntel,60,61025ae37ef11b136ea224fe,,,,,,,,,3539,96,54,1,0,0,response1disk,,6,2,1,1,0,0,rectangle,2,1,1,0,0,2,1,1,0,0,0,141,141,47,1,,,,,,,,
,,,,,,,,,,,,,FF,,,,,,,,0.717,,,,,,,,,,,,,,,,,,,,,,60fcf0589b18c268d5a2f38d,61036e9b8edf5797ea8d68b4,2021-07-29_22h15.26.875,Simcolourproject_2stim_asymm_v5,2020.2.10,MacIntel,60,61025ae37ef11b136ea224fe,,,,,,,,,3145,48,86,1,0,0,response1disk,,7,5,0,1,0,0,rectangle,5,0,1,0,0,5,0,1,0,0,0,142,142,139,1,,,,,,,,
,,,,,,,,,,,,,FF,,,,,,,,0.734,,,,,,,,,,,,,,,,,,,,,,60fcf0589b18c268d5a2f38d,61036e9b8edf5797ea8d68b4,2021-07-29_22h15.26.875,Simcolourproject_2stim_asymm_v5,2020.2.10,MacIntel,60,61025ae37ef11b136ea224fe,,,,,,,,,1060,73,-26,1,0,0,response3disk,,5,8,-9,1,0,0,rectangle,8,-9,1,0,0,8,-9,1,0,0,0,143,143,91,1,,,,,,,,
,,,,,,,,,,,,,FF,,,,,,,,0.833,,,,,,,,,,,,,,,,,,,,,,60fcf0589b18c268d5a2f38d,61036e9b8edf5797ea8d68b4,2021-07-29_22h15.26.875,Simcolourproject_2stim_asymm_v5,2020.2.10,MacIntel,60,61025ae37ef11b136ea224fe,,,,,,,,,2349,20,-86,1,0,0,response3disk,,4,-2,1,1,0,0,rectangle,-2,1,1,0,0,-2,1,1,0,0,0,144,144,115,1,,,,,,,,
,,,,,,,,,,,,,FF,,,,,,,,0.7,,,,,,,,,,,,,,,,,,,,,,60fcf0589b18c268d5a2f38d,61036e9b8edf5797ea8d68b4,2021-07-29_22h15.26.875,Simcolourproject_2stim_asymm_v5,2020.2.10,MacIntel,60,61025ae37ef11b136ea224fe,,,,,,,,,3496,95,51,1,0,0,response1disk,,6,-4,-8,1,0,0,rectangle,-4,-8,1,0,0,-4,-8,1,0,0,0,145,145,90,1,,,,,,,,
,,,,,,,,,,,,,FF,,,,,,,,1.1,,,,,,,,,,,,,,,,,,,,,,60fcf0589b18c268d5a2f38d,61036e9b8edf5797ea8d68b4,2021-07-29_22h15.26.875,Simcolourproject_2stim_asymm_v5,2020.2.10,MacIntel,60,61025ae37ef11b136ea224fe,,,,,,,,,361,61,72,1,0,0,response1disk,,7,9,10,1,0,0,rectangle,9,10,1,0,0,9,10,1,0,0,0,146,146,128,1,,,,,,,,
,,,,,,,,,,,,,FF,,,,,,,,0.667,,,,,,,,,,,,,,,,,,,,,,60fcf0589b18c268d5a2f38d,61036e9b8edf5797ea8d68b4,2021-07-29_22h15.26.875,Simcolourproject_2stim_asymm_v5,2020.2.10,MacIntel,60,61025ae37ef11b136ea224fe,,,,,,,,,2813,69,-16,1,0,0,response3disk,,5,4,-3,1,0,0,rectangle,4,-3,1,0,0,4,-3,1,0,0,0,147,147,20,1,,,,,,,,
,,,,,,,,,,,,,FF,,,,,,,,0.734,,,,,,,,,,,,,,,,,,,,,,60fcf0589b18c268d5a2f38d,61036e9b8edf5797ea8d68b4,2021-07-29_22h15.26.875,Simcolourproject_2stim_asymm_v5,2020.2.10,MacIntel,60,61025ae37ef11b136ea224fe,,,,,,,,,3042,-57,-55,1,0,0,response5disk,,2,-2,-3,1,0,0,rectangle,-2,-3,1,0,0,-2,-3,1,0,0,0,148,148,107,1,,,,,,,,
,,,,,,,,,,,,,FF,,,,,,,,0.65,,,,,,,,,,,,,,,,,,,,,,60fcf0589b18c268d5a2f38d,61036e9b8edf5797ea8d68b4,2021-07-29_22h15.26.875,Simcolourproject_2stim_asymm_v5,2020.2.10,MacIntel,60,61025ae37ef11b136ea224fe,,,,,,,,,3175,82,32,1,0,0,response1disk,,6,-5,-6,1,0,0,rectangle,-5,-6,1,0,0,-5,-6,1,0,0,0,149,149,135,1,,,,,,,,
,,,,,,,,,,,,,FF,,,,,,,,1.101,,,,,,,,,,,,,,,,,,,,,,60fcf0589b18c268d5a2f38d,61036e9b8edf5797ea8d68b4,2021-07-29_22h15.26.875,Simcolourproject_2stim_asymm_v5,2020.2.10,MacIntel,60,61025ae37ef11b136ea224fe,,,,,,,,,4334,27,48,1,0,0,response1disk,,7,6,7,1,0,0,rectangle,6,7,1,0,0,6,7,1,0,0,0,150,150,67,1,,,,,,,,
,,,,,,,,,,,,,FF,,,,,,,,0.967,,,,,,,,,,,,,,,,,,,,,,60fcf0589b18c268d5a2f38d,61036e9b8edf5797ea8d68b4,2021-07-29_22h15.26.875,Simcolourproject_2stim_asymm_v5,2020.2.10,MacIntel,60,61025ae37ef11b136ea224fe,,,,,,,,,2175,-43,-81,1,0,0,response5disk,,3,-10,-8,1,0,0,rectangle,-10,-8,1,0,0,-10,-8,1,0,0,0,151,151,71,1,,,,,,,,
,,,,,,,,,,,,,FF,,,,,,,,0.783,,,,,,,,,,,,,,,,,,,,,,60fcf0589b18c268d5a2f38d,61036e9b8edf5797ea8d68b4,2021-07-29_22h15.26.875,Simcolourproject_2stim_asymm_v5,2020.2.10,MacIntel,60,61025ae37ef11b136ea224fe,,,,,,,,,996,88,32,1,0,0,response1disk,,6,13,3,1,0,0,rectangle,13,3,1,0,0,13,3,1,0,0,0,152,152,15,1,,,,,,,,
,,,,,,,,,,,,,FF,,,,,,,,0.751,,,,,,,,,,,,,,,,,,,,,,60fcf0589b18c268d5a2f38d,61036e9b8edf5797ea8d68b4,2021-07-29_22h15.26.875,Simcolourproject_2stim_asymm_v5,2020.2.10,MacIntel,60,61025ae37ef11b136ea224fe,,,,,,,,,4198,25,37,1,0,0,response1disk,,7,8,-7,1,0,0,rectangle,8,-7,1,0,0,8,-7,1,0,0,0,153,153,117,1,,,,,,,,
,,,,,,,,,,,,,FF,,,,,,,,0.65,,,,,,,,,,,,,,,,,,,,,,60fcf0589b18c268d5a2f38d,61036e9b8edf5797ea8d68b4,2021-07-29_22h15.26.875,Simcolourproject_2stim_asymm_v5,2020.2.10,MacIntel,60,61025ae37ef11b136ea224fe,,,,,,,,,2354,50,84,1,0,0,response1disk,,7,26,2,1,0,0,rectangle,26,2,1,0,0,26,2,1,0,0,0,154,154,126,1,,,,,,,,
,,,,,,,,,,,,,FF,,,,,,,,0.65,,,,,,,,,,,,,,,,,,,,,,60fcf0589b18c268d5a2f38d,61036e9b8edf5797ea8d68b4,2021-07-29_22h15.26.875,Simcolourproject_2stim_asymm_v5,2020.2.10,MacIntel,60,61025ae37ef11b136ea224fe,,,,,,,,,1768,23,-67,1,0,0,response3disk,,4,-1,-4,1,0,0,rectangle,-48,-95,1,0,0,-4,0,1,0,0,0,155,155,30,1,,response5disk_3,TRUE,3,3,"[103,70,33,313,10,225,205,156,140,237,83,189,232,242,5,125,105,216,201,2]",2.551,rectangle
,,,,,,,,,,,,,FF,,,,,,,,1.218,,,,,,,,,,,,,,,,,,,,,,60fcf0589b18c268d5a2f38d,61036e9b8edf5797ea8d68b4,2021-07-29_22h15.26.875,Simcolourproject_2stim_asymm_v5,2020.2.10,MacIntel,60,61025ae37ef11b136ea224fe,,,,,,,,,1532,-26,-67,1,0,0,response5disk,,3,-10,6,1,0,0,rectangle,-10,6,1,0,0,-10,6,1,0,0,0,156,156,24,1,,,,,,,,
,,,,,,,,,,,,,FF,,,,,,,,0.85,,,,,,,,,,,,,,,,,,,,,,60fcf0589b18c268d5a2f38d,61036e9b8edf5797ea8d68b4,2021-07-29_22h15.26.875,Simcolourproject_2stim_asymm_v5,2020.2.10,MacIntel,60,61025ae37ef11b136ea224fe,,,,,,,,,855,66,45,1,0,0,response1disk,,6,-9,-9,1,0,0,rectangle,-9,-9,1,0,0,-9,-9,1,0,0,0,157,157,133,1,,,,,,,,
,,,,,,,,,,,,,FF,,,,,,,,0.8,,,,,,,,,,,,,,,,,,,,,,60fcf0589b18c268d5a2f38d,61036e9b8edf5797ea8d68b4,2021-07-29_22h15.26.875,Simcolourproject_2stim_asymm_v5,2020.2.10,MacIntel,60,61025ae37ef11b136ea224fe,,,,,,,,,3471,-89,34,1,0,0,response7disk,,1,-10,8,1,0,0,rectangle,-10,8,1,0,0,-10,8,1,0,0,0,158,158,127,1,,,,,,,,
,,,,,,,,,,,,,FF,,,,,,,,0.634,,,,,,,,,,,,,,,,,,,,,,60fcf0589b18c268d5a2f38d,61036e9b8edf5797ea8d68b4,2021-07-29_22h15.26.875,Simcolourproject_2stim_asymm_v5,2020.2.10,MacIntel,60,61025ae37ef11b136ea224fe,,,,,,,,,1049,53,81,1,0,0,response1disk,,7,23,6,1,0,0,rectangle,23,6,1,0,0,23,6,1,0,0,0,159,159,112,1,,,,,,,,
,,,,,,,,,,,,,FF,,,,,,,,0.65,,,,,,,,,,,,,,,,,,,,,,60fcf0589b18c268d5a2f38d,61036e9b8edf5797ea8d68b4,2021-07-29_22h15.26.875,Simcolourproject_2stim_asymm_v5,2020.2.10,MacIntel,60,61025ae37ef11b136ea224fe,,,,,,,,,1524,81,37,1,0,0,response1disk,,6,15,14,1,0,0,rectangle,15,14,1,0,0,15,14,1,0,0,1,0,160,122,1,,,,,,,,
,,,,,,,,,,,,,FF,,,,,,,,0.85,,,,,,,,,,,,,,,,,,,,,,60fcf0589b18c268d5a2f38d,61036e9b8edf5797ea8d68b4,2021-07-29_22h15.26.875,Simcolourproject_2stim_asymm_v5,2020.2.10,MacIntel,60,61025ae37ef11b136ea224fe,,,,,,,,,73,-52,-81,1,0,0,response5disk,,3,1,3,1,0,0,rectangle,1,3,1,0,0,1,3,1,0,0,1,1,161,17,1,,,,,,,,
,,,,,,,,,,,,,FF,,,,,,,,0.7,,,,,,,,,,,,,,,,,,,,,,60fcf0589b18c268d5a2f38d,61036e9b8edf5797ea8d68b4,2021-07-29_22h15.26.875,Simcolourproject_2stim_asymm_v5,2020.2.10,MacIntel,60,61025ae37ef11b136ea224fe,,,,,,,,,1167,72,-36,1,0,0,response3disk,,5,-1,-6,1,0,0,rectangle,-1,-6,1,0,0,-1,-6,1,0,0,1,2,162,98,1,,,,,,,,
,,,,,,,,,,,,,FF,,,,,,,,0.933,,,,,,,,,,,,,,,,,,,,,,60fcf0589b18c268d5a2f38d,61036e9b8edf5797ea8d68b4,2021-07-29_22h15.26.875,Simcolourproject_2stim_asymm_v5,2020.2.10,MacIntel,60,61025ae37ef11b136ea224fe,,,,,,,,,1276,-82,-54,1,0,0,response5disk,,2,-18,-6,1,0,0,rectangle,-18,-6,1,0,0,-18,-6,1,0,0,1,3,163,11,1,,,,,,,,
,,,,,,,,,,,,,FF,,,,,,,,0.818,,,,,,,,,,,,,,,,,,,,,,60fcf0589b18c268d5a2f38d,61036e9b8edf5797ea8d68b4,2021-07-29_22h15.26.875,Simcolourproject_2stim_asymm_v5,2020.2.10,MacIntel,60,61025ae37ef11b136ea224fe,,,,,,,,,343,-35,-78,1,0,0,response5disk,,3,-7,-3,1,0,0,rectangle,-7,-3,1,0,0,-7,-3,1,0,0,1,4,164,41,1,,,,,,,,
,,,,,,,,,,,,,FF,,,,,,,,0.735,,,,,,,,,,,,,,,,,,,,,,60fcf0589b18c268d5a2f38d,61036e9b8edf5797ea8d68b4,2021-07-29_22h15.26.875,Simcolourproject_2stim_asymm_v5,2020.2.10,MacIntel,60,61025ae37ef11b136ea224fe,,,,,,,,,1228,-35,-96,1,0,0,response5disk,,3,-8,-12,1,0,0,rectangle,-8,-12,1,0,0,-8,-12,1,0,0,1,5,165,43,1,,,,,,,,
,,,,,,,,,,,,,FF,,,,,,,,1.102,,,,,,,,,,,,,,,,,,,,,,60fcf0589b18c268d5a2f38d,61036e9b8edf5797ea8d68b4,2021-07-29_22h15.26.875,Simcolourproject_2stim_asymm_v5,2020.2.10,MacIntel,60,61025ae37ef11b136ea224fe,,,,,,,,,3699,82,33,1,0,0,response1disk,,6,4,6,1,0,0,rectangle,4,6,1,0,0,4,6,1,0,0,1,6,166,153,1,,,,,,,,
,,,,,,,,,,,,,FF,,,,,,,,0.633,,,,,,,,,,,,,,,,,,,,,,60fcf0589b18c268d5a2f38d,61036e9b8edf5797ea8d68b4,2021-07-29_22h15.26.875,Simcolourproject_2stim_asymm_v5,2020.2.10,MacIntel,60,61025ae37ef11b136ea224fe,,,,,,,,,2746,71,67,1,0,0,response1disk,,6,-8,-2,1,0,0,rectangle,-8,-2,1,0,0,-8,-2,1,0,0,1,7,167,81,1,,,,,,,,
,,,,,,,,,,,,,FF,,,,,,,,1.067,,,,,,,,,,,,,,,,,,,,,,60fcf0589b18c268d5a2f38d,61036e9b8edf5797ea8d68b4,2021-07-29_22h15.26.875,Simcolourproject_2stim_asymm_v5,2020.2.10,MacIntel,60,61025ae37ef11b136ea224fe,,,,,,,,,4090,-90,-50,1,0,0,response5disk,,2,-2,-5,1,0,0,rectangle,-2,-5,1,0,0,-2,-5,1,0,0,1,8,168,7,1,,,,,,,,
,,,,,,,,,,,,,FF,,,,,,,,6.486,,,,,,,,,,,,,,,,,,,,,,60fcf0589b18c268d5a2f38d,61036e9b8edf5797ea8d68b4,2021-07-29_22h15.26.875,Simcolourproject_2stim_asymm_v5,2020.2.10,MacIntel,60,61025ae37ef11b136ea224fe,,,,,,,,,4310,85,41,1,0,0,response1disk,,6,-19,3,1,0,0,rectangle,-19,3,1,0,0,-19,3,1,0,0,1,9,169,77,1,,,,,,,,
,,,,,,,,,,,,,FF,,,,,,,,1.418,,,,,,,,,,,,,,,,,,,,,,60fcf0589b18c268d5a2f38d,61036e9b8edf5797ea8d68b4,2021-07-29_22h15.26.875,Simcolourproject_2stim_asymm_v5,2020.2.10,MacIntel,60,61025ae37ef11b136ea224fe,,,,,,,,,2568,76,-47,1,0,0,response3disk,,5,1,-9,1,0,0,rectangle,1,-9,1,0,0,1,-9,1,0,0,1,10,170,141,1,,,,,,,,
,,,,,,,,,,,,,FF,,,,,,,,0.901,,,,,,,,,,,,,,,,,,,,,,60fcf0589b18c268d5a2f38d,61036e9b8edf5797ea8d68b4,2021-07-29_22h15.26.875,Simcolourproject_2stim_asymm_v5,2020.2.10,MacIntel,60,61025ae37ef11b136ea224fe,,,,,,,,,2611,-27,-39,1,0,0,response5disk,,3,-3,-14,1,0,0,rectangle,-3,-14,1,0,0,-3,-14,1,0,0,1,11,171,35,1,,,,,,,,
,,,,,,,,,,,,,FF,,,,,,,,0.75,,,,,,,,,,,,,,,,,,,,,,60fcf0589b18c268d5a2f38d,61036e9b8edf5797ea8d68b4,2021-07-29_22h15.26.875,Simcolourproject_2stim_asymm_v5,2020.2.10,MacIntel,60,61025ae37ef11b136ea224fe,,,,,,,,,1575,108,-22,1,0,0,response3disk,,5,-19,5,1,0,0,rectangle,-19,5,1,0,0,-19,5,1,0,0,1,12,172,157,1,,,,,,,,
,,,,,,,,,,,,,FF,,,,,,,,0.6,,,,,,,,,,,,,,,,,,,,,,60fcf0589b18c268d5a2f38d,61036e9b8edf5797ea8d68b4,2021-07-29_22h15.26.875,Simcolourproject_2stim_asymm_v5,2020.2.10,MacIntel,60,61025ae37ef11b136ea224fe,,,,,,,,,3133,71,35,1,0,0,response1disk,,6,7,-3,1,0,0,rectangle,7,-3,1,0,0,7,-3,1,0,0,1,13,173,42,1,,,,,,,,
,,,,,,,,,,,,,FF,,,,,,,,0.65,,,,,,,,,,,,,,,,,,,,,,60fcf0589b18c268d5a2f38d,61036e9b8edf5797ea8d68b4,2021-07-29_22h15.26.875,Simcolourproject_2stim_asymm_v5,2020.2.10,MacIntel,60,61025ae37ef11b136ea224fe,,,,,,,,,3284,-111,-41,1,0,0,response5disk,,2,1,5,1,0,0,rectangle,1,5,1,0,0,1,5,1,0,0,1,14,174,19,1,,,,,,,,
,,,,,,,,,,,,,FF,,,,,,,,0.633,,,,,,,,,,,,,,,,,,,,,,60fcf0589b18c268d5a2f38d,61036e9b8edf5797ea8d68b4,2021-07-29_22h15.26.875,Simcolourproject_2stim_asymm_v5,2020.2.10,MacIntel,60,61025ae37ef11b136ea224fe,,,,,,,,,4283,-42,-74,1,0,0,response5disk,,3,2,-9,1,0,0,rectangle,2,-9,1,0,0,2,-9,1,0,0,1,15,175,123,1,,,,,,,,
,,,,,,,,,,,,,FF,,,,,,,,0.55,,,,,,,,,,,,,,,,,,,,,,60fcf0589b18c268d5a2f38d,61036e9b8edf5797ea8d68b4,2021-07-29_22h15.26.875,Simcolourproject_2stim_asymm_v5,2020.2.10,MacIntel,60,61025ae37ef11b136ea224fe,,,,,,,,,227,65,33,1,0,0,response1disk,,6,10,4,1,0,0,rectangle,10,4,1,0,0,10,4,1,0,0,1,16,176,70,1,,,,,,,,
,,,,,,,,,,,,,FF,,,,,,,,1.217,,,,,,,,,,,,,,,,,,,,,,60fcf0589b18c268d5a2f38d,61036e9b8edf5797ea8d68b4,2021-07-29_22h15.26.875,Simcolourproject_2stim_asymm_v5,2020.2.10,MacIntel,60,61025ae37ef11b136ea224fe,,,,,,,,,1962,-77,-61,1,0,0,response5disk,,2,-8,1,1,0,0,rectangle,-8,1,1,0,0,-8,1,1,0,0,1,17,177,92,1,,,,,,,,
,,,,,,,,,,,,,FF,,,,,,,,1.151,,,,,,,,,,,,,,,,,,,,,,60fcf0589b18c268d5a2f38d,61036e9b8edf5797ea8d68b4,2021-07-29_22h15.26.875,Simcolourproject_2stim_asymm_v5,2020.2.10,MacIntel,60,61025ae37ef11b136ea224fe,,,,,,,,,2823,-79,-51,1,0,0,response5disk,,2,-15,-2,1,0,0,rectangle,-15,-2,1,0,0,-15,-2,1,0,0,1,18,178,128,1,,,,,,,,
,,,,,,,,,,,,,FF,,,,,,,,1.017,,,,,,,,,,,,,,,,,,,,,,60fcf0589b18c268d5a2f38d,61036e9b8edf5797ea8d68b4,2021-07-29_22h15.26.875,Simcolourproject_2stim_asymm_v5,2020.2.10,MacIntel,60,61025ae37ef11b136ea224fe,,,,,,,,,1516,42,-101,1,0,0,response3disk,,4,-7,-8,1,0,0,rectangle,-7,-8,1,0,0,-7,-8,1,0,0,1,19,179,118,1,,,,,,,,
,,,,,,,,,,,,,FF,,,,,,,,1.234,,,,,,,,,,,,,,,,,,,,,,60fcf0589b18c268d5a2f38d,61036e9b8edf5797ea8d68b4,2021-07-29_22h15.26.875,Simcolourproject_2stim_asymm_v5,2020.2.10,MacIntel,60,61025ae37ef11b136ea224fe,,,,,,,,,1406,91,50,1,0,0,response1disk,,6,1,-2,1,0,0,rectangle,1,-2,1,0,0,1,-2,1,0,0,1,20,180,103,1,,,,,,,,
,,,,,,,,,,,,,FF,,,,,,,,0.8,,,,,,,,,,,,,,,,,,,,,,60fcf0589b18c268d5a2f38d,61036e9b8edf5797ea8d68b4,2021-07-29_22h15.26.875,Simcolourproject_2stim_asymm_v5,2020.2.10,MacIntel,60,61025ae37ef11b136ea224fe,,,,,,,,,3731,59,84,1,0,0,response1disk,,7,4,7,1,0,0,rectangle,4,7,1,0,0,4,7,1,0,0,1,21,181,125,1,,,,,,,,
,,,,,,,,,,,,,FF,,,,,,,,0.733,,,,,,,,,,,,,,,,,,,,,,60fcf0589b18c268d5a2f38d,61036e9b8edf5797ea8d68b4,2021-07-29_22h15.26.875,Simcolourproject_2stim_asymm_v5,2020.2.10,MacIntel,60,61025ae37ef11b136ea224fe,,,,,,,,,2587,78,-38,1,0,0,response3disk,,5,4,-9,1,0,0,rectangle,4,-9,1,0,0,4,-9,1,0,0,1,22,182,139,1,,,,,,,,
,,,,,,,,,,,,,FF,,,,,,,,0.799,,,,,,,,,,,,,,,,,,,,,,60fcf0589b18c268d5a2f38d,61036e9b8edf5797ea8d68b4,2021-07-29_22h15.26.875,Simcolourproject_2stim_asymm_v5,2020.2.10,MacIntel,60,61025ae37ef11b136ea224fe,,,,,,,,,625,110,43,1,0,0,response1disk,,6,10,8,1,0,0,rectangle,10,8,1,0,0,10,8,1,0,0,1,23,183,117,1,,,,,,,,
,,,,,,,,,,,,,FF,,,,,,,,0.768,,,,,,,,,,,,,,,,,,,,,,60fcf0589b18c268d5a2f38d,61036e9b8edf5797ea8d68b4,2021-07-29_22h15.26.875,Simcolourproject_2stim_asymm_v5,2020.2.10,MacIntel,60,61025ae37ef11b136ea224fe,,,,,,,,,1308,-52,-77,1,0,0,response5disk,,3,1,-1,1,0,0,rectangle,1,-1,1,0,0,1,-1,1,0,0,1,24,184,15,1,,,,,,,,
,,,,,,,,,,,,,FF,,,,,,,,1.117,,,,,,,,,,,,,,,,,,,,,,60fcf0589b18c268d5a2f38d,61036e9b8edf5797ea8d68b4,2021-07-29_22h15.26.875,Simcolourproject_2stim_asymm_v5,2020.2.10,MacIntel,60,61025ae37ef11b136ea224fe,,,,,,,,,3347,57,-40,1,0,0,response3disk,,5,6,-3,1,0,0,rectangle,6,-3,1,0,0,6,-3,1,0,0,1,25,185,12,1,,,,,,,,
,,,,,,,,,,,,,FF,,,,,,,,0.734,,,,,,,,,,,,,,,,,,,,,,60fcf0589b18c268d5a2f38d,61036e9b8edf5797ea8d68b4,2021-07-29_22h15.26.875,Simcolourproject_2stim_asymm_v5,2020.2.10,MacIntel,60,61025ae37ef11b136ea224fe,,,,,,,,,2627,89,51,1,0,0,response1disk,,6,-5,-7,1,0,0,rectangle,-5,-7,1,0,0,-5,-7,1,0,0,1,26,186,60,1,,,,,,,,
,,,,,,,,,,,,,FF,,,,,,,,1.117,,,,,,,,,,,,,,,,,,,,,,60fcf0589b18c268d5a2f38d,61036e9b8edf5797ea8d68b4,2021-07-29_22h15.26.875,Simcolourproject_2stim_asymm_v5,2020.2.10,MacIntel,60,61025ae37ef11b136ea224fe,,,,,,,,,4003,34,-73,1,0,0,response3disk,,4,11,9,1,0,0,rectangle,11,9,1,0,0,11,9,1,0,0,1,27,187,71,1,,,,,,,,
,,,,,,,,,,,,,FF,,,,,,,,0.8,,,,,,,,,,,,,,,,,,,,,,60fcf0589b18c268d5a2f38d,61036e9b8edf5797ea8d68b4,2021-07-29_22h15.26.875,Simcolourproject_2stim_asymm_v5,2020.2.10,MacIntel,60,61025ae37ef11b136ea224fe,,,,,,,,,3545,-51,-61,1,0,0,response5disk,,3,-12,-4,1,0,0,rectangle,84,58,1,0,0,22,7,1,0,0,1,28,188,121,1,,response1disk_3,TRUE,6,6,"[103,70,33,313,10,225,205,156,140,237,83,189,232,242,5,125,105,216,201,2]",1.833,rectangle
,,,,,,,,,,,,,FF,,,,,,,,2.251,,,,,,,,,,,,,,,,,,,,,,60fcf0589b18c268d5a2f38d,61036e9b8edf5797ea8d68b4,2021-07-29_22h15.26.875,Simcolourproject_2stim_asymm_v5,2020.2.10,MacIntel,60,61025ae37ef11b136ea224fe,,,,,,,,,1399,65,-86,1,0,0,response3disk,,4,1,-4,1,0,0,rectangle,1,-4,1,0,0,1,-4,1,0,0,1,29,189,54,1,,,,,,,,
,,,,,,,,,,,,,FF,,,,,,,,0.835,,,,,,,,,,,,,,,,,,,,,,60fcf0589b18c268d5a2f38d,61036e9b8edf5797ea8d68b4,2021-07-29_22h15.26.875,Simcolourproject_2stim_asymm_v5,2020.2.10,MacIntel,60,61025ae37ef11b136ea224fe,,,,,,,,,1562,55,-26,1,0,0,response3disk,,5,10,-2,1,0,0,rectangle,10,-2,1,0,0,10,-2,1,0,0,1,30,190,95,1,,,,,,,,
,,,,,,,,,,,,,FF,,,,,,,,0.668,,,,,,,,,,,,,,,,,,,,,,60fcf0589b18c268d5a2f38d,61036e9b8edf5797ea8d68b4,2021-07-29_22h15.26.875,Simcolourproject_2stim_asymm_v5,2020.2.10,MacIntel,60,61025ae37ef11b136ea224fe,,,,,,,,,3215,72,32,1,0,0,response1disk,,6,-5,-4,1,0,0,rectangle,-5,-4,1,0,0,-5,-4,1,0,0,1,31,191,74,1,,,,,,,,
,,,,,,,,,,,,,FF,,,,,,,,0.684,,,,,,,,,,,,,,,,,,,,,,60fcf0589b18c268d5a2f38d,61036e9b8edf5797ea8d68b4,2021-07-29_22h15.26.875,Simcolourproject_2stim_asymm_v5,2020.2.10,MacIntel,60,61025ae37ef11b136ea224fe,,,,,,,,,3807,73,-26,1,0,0,response3disk,,5,10,-9,1,0,0,rectangle,10,-9,1,0,0,10,-9,1,0,0,1,32,192,89,1,,,,,,,,
,,,,,,,,,,,,,FF,,,,,,,,0.868,,,,,,,,,,,,,,,,,,,,,,60fcf0589b18c268d5a2f38d,61036e9b8edf5797ea8d68b4,2021-07-29_22h15.26.875,Simcolourproject_2stim_asymm_v5,2020.2.10,MacIntel,60,61025ae37ef11b136ea224fe,,,,,,,,,2167,-45,75,1,0,0,response7disk,,0,-5,5,1,0,0,rectangle,-5,5,1,0,0,-5,5,1,0,0,1,33,193,53,1,,,,,,,,
,,,,,,,,,,,,,FF,,,,,,,,0.834,,,,,,,,,,,,,,,,,,,,,,60fcf0589b18c268d5a2f38d,61036e9b8edf5797ea8d68b4,2021-07-29_22h15.26.875,Simcolourproject_2stim_asymm_v5,2020.2.10,MacIntel,60,61025ae37ef11b136ea224fe,,,,,,,,,3757,46,-80,1,0,0,response3disk,,4,-11,1,1,0,0,rectangle,-11,1,1,0,0,-11,1,1,0,0,1,34,194,8,1,,,,,,,,
,,,,,,,,,,,,,FF,,,,,,,,2.084,,,,,,,,,,,,,,,,,,,,,,60fcf0589b18c268d5a2f38d,61036e9b8edf5797ea8d68b4,2021-07-29_22h15.26.875,Simcolourproject_2stim_asymm_v5,2020.2.10,MacIntel,60,61025ae37ef11b136ea224fe,,,,,,,,,3689,32,-27,1,0,0,response3disk,,5,12,1,1,0,0,rectangle,12,1,1,0,0,12,1,1,0,0,1,35,195,75,1,,,,,,,,
,,,,,,,,,,,,,FF,,,,,,,,0.934,,,,,,,,,,,,,,,,,,,,,,60fcf0589b18c268d5a2f38d,61036e9b8edf5797ea8d68b4,2021-07-29_22h15.26.875,Simcolourproject_2stim_asymm_v5,2020.2.10,MacIntel,60,61025ae37ef11b136ea224fe,,,,,,,,,2776,-66,-32,1,0,0,response5disk,,2,-8,2,1,0,0,rectangle,-8,2,1,0,0,-8,2,1,0,0,1,36,196,136,1,,,,,,,,
,,,,,,,,,,,,,FF,,,,,,,,0.717,,,,,,,,,,,,,,,,,,,,,,60fcf0589b18c268d5a2f38d,61036e9b8edf5797ea8d68b4,2021-07-29_22h15.26.875,Simcolourproject_2stim_asymm_v5,2020.2.10,MacIntel,60,61025ae37ef11b136ea224fe,,,,,,,,,4146,-72,32,1,0,0,response7disk,,1,-1,5,1,0,0,rectangle,-1,5,1,0,0,-1,5,1,0,0,1,37,197,119,1,,,,,,,,
,,,,,,,,,,,,,FF,,,,,,,,0.784,,,,,,,,,,,,,,,,,,,,,,60fcf0589b18c268d5a2f38d,61036e9b8edf5797ea8d68b4,2021-07-29_22h15.26.875,Simcolourproject_2stim_asymm_v5,2020.2.10,MacIntel,60,61025ae37ef11b136ea224fe,,,,,,,,,1647,111,26,1,0,0,response1disk,,6,4,-10,1,0,0,rectangle,4,-10,1,0,0,4,-10,1,0,0,1,38,198,126,1,,,,,,,,
,,,,,,,,,,,,,FF,,,,,,,,0.8,,,,,,,,,,,,,,,,,,,,,,60fcf0589b18c268d5a2f38d,61036e9b8edf5797ea8d68b4,2021-07-29_22h15.26.875,Simcolourproject_2stim_asymm_v5,2020.2.10,MacIntel,60,61025ae37ef11b136ea224fe,,,,,,,,,3559,-50,-54,1,0,0,response5disk,,3,-5,-2,1,0,0,rectangle,-5,-2,1,0,0,-5,-2,1,0,0,1,39,199,132,1,,,,,,,,
,,,,,,,,,,,,,FF,,,,,,,,0.701,,,,,,,,,,,,,,,,,,,,,,60fcf0589b18c268d5a2f38d,61036e9b8edf5797ea8d68b4,2021-07-29_22h15.26.875,Simcolourproject_2stim_asymm_v5,2020.2.10,MacIntel,60,61025ae37ef11b136ea224fe,,,,,,,,,4224,-86,-33,1,0,0,response5disk,,2,-10,1,1,0,0,rectangle,91,-51,1,0,0,15,-3,1,0,0,1,40,200,48,1,,response3disk_3,TRUE,5,5,"[103,70,33,313,10,225,205,156,140,237,83,189,232,242,5,125,105,216,201,2]",1.633,rectangle
,,,,,,,,,,,,,FF,,,,,,,,1.517,,,,,,,,,,,,,,,,,,,,,,60fcf0589b18c268d5a2f38d,61036e9b8edf5797ea8d68b4,2021-07-29_22h15.26.875,Simcolourproject_2stim_asymm_v5,2020.2.10,MacIntel,60,61025ae37ef11b136ea224fe,,,,,,,,,4040,35,-69,1,0,0,response3disk,,4,-4,4,1,0,0,rectangle,-4,4,1,0,0,-4,4,1,0,0,1,41,201,2,1,,,,,,,,
,,,,,,,,,,,,,FF,,,,,,,,0.983,,,,,,,,,,,,,,,,,,,,,,60fcf0589b18c268d5a2f38d,61036e9b8edf5797ea8d68b4,2021-07-29_22h15.26.875,Simcolourproject_2stim_asymm_v5,2020.2.10,MacIntel,60,61025ae37ef11b136ea224fe,,,,,,,,,3599,-66,-82,1,0,0,response5disk,,3,-11,-1,1,0,0,rectangle,-11,-1,1,0,0,-11,-1,1,0,0,1,42,202,151,1,,,,,,,,
,,,,,,,,,,,,,FF,,,,,,,,0.717,,,,,,,,,,,,,,,,,,,,,,60fcf0589b18c268d5a2f38d,61036e9b8edf5797ea8d68b4,2021-07-29_22h15.26.875,Simcolourproject_2stim_asymm_v5,2020.2.10,MacIntel,60,61025ae37ef11b136ea224fe,,,,,,,,,1833,-44,-102,1,0,0,response5disk,,3,-19,0,1,0,0,rectangle,-19,0,1,0,0,-19,0,1,0,0,1,43,203,113,1,,,,,,,,
,,,,,,,,,,,,,FF,,,,,,,,0.667,,,,,,,,,,,,,,,,,,,,,,60fcf0589b18c268d5a2f38d,61036e9b8edf5797ea8d68b4,2021-07-29_22h15.26.875,Simcolourproject_2stim_asymm_v5,2020.2.10,MacIntel,60,61025ae37ef11b136ea224fe,,,,,,,,,2953,-40,-90,1,0,0,response5disk,,3,-3,6,1,0,0,rectangle,99,-45,1,0,0,4,-9,1,0,0,1,44,204,99,1,,response3disk_3,TRUE,5,5,"[103,70,33,313,10,225,205,156,140,237,83,189,232,242,5,125,105,216,201,2]",1.185,rectangle
,,,,,,,,,,,,,FF,,,,,,,,0.733,,,,,,,,,,,,,,,,,,,,,,60fcf0589b18c268d5a2f38d,61036e9b8edf5797ea8d68b4,2021-07-29_22h15.26.875,Simcolourproject_2stim_asymm_v5,2020.2.10,MacIntel,60,61025ae37ef11b136ea224fe,,,,,,,,,3394,30,-70,1,0,0,response3disk,,4,13,-1,1,0,0,rectangle,13,-1,1,0,0,13,-1,1,0,0,1,45,205,6,1,,,,,,,,
,,,,,,,,,,,,,FF,,,,,,,,0.7,,,,,,,,,,,,,,,,,,,,,,60fcf0589b18c268d5a2f38d,61036e9b8edf5797ea8d68b4,2021-07-29_22h15.26.875,Simcolourproject_2stim_asymm_v5,2020.2.10,MacIntel,60,61025ae37ef11b136ea224fe,,,,,,,,,984,-41,-66,1,0,0,response5disk,,3,-12,-15,1,0,0,rectangle,-12,-15,1,0,0,-12,-15,1,0,0,1,46,206,91,1,,,,,,,,
,,,,,,,,,,,,,FF,,,,,,,,0.668,,,,,,,,,,,,,,,,,,,,,,60fcf0589b18c268d5a2f38d,61036e9b8edf5797ea8d68b4,2021-07-29_22h15.26.875,Simcolourproject_2stim_asymm_v5,2020.2.10,MacIntel,60,61025ae37ef11b136ea224fe,,,,,,,,,4180,39,75,1,0,0,response1disk,,7,15,9,1,0,0,rectangle,15,9,1,0,0,15,9,1,0,0,1,47,207,82,1,,,,,,,,
,,,,,,,,,,,,,FF,,,,,,,,0.801,,,,,,,,,,,,,,,,,,,,,,60fcf0589b18c268d5a2f38d,61036e9b8edf5797ea8d68b4,2021-07-29_22h15.26.875,Simcolourproject_2stim_asymm_v5,2020.2.10,MacIntel,60,61025ae37ef11b136ea224fe,,,,,,,,,302,77,-46,1,0,0,response3disk,,5,16,-2,1,0,0,rectangle,16,-2,1,0,0,16,-2,1,0,0,1,48,208,47,1,,,,,,,,
,,,,,,,,,,,,,FF,,,,,,,,0.868,,,,,,,,,,,,,,,,,,,,,,60fcf0589b18c268d5a2f38d,61036e9b8edf5797ea8d68b4,2021-07-29_22h15.26.875,Simcolourproject_2stim_asymm_v5,2020.2.10,MacIntel,60,61025ae37ef11b136ea224fe,,,,,,,,,2285,-78,-51,1,0,0,response5disk,,2,-12,6,1,0,0,rectangle,-12,6,1,0,0,-12,6,1,0,0,1,49,209,51,1,,,,,,,,
,,,,,,,,,,,,,FF,,,,,,,,1.067,,,,,,,,,,,,,,,,,,,,,,60fcf0589b18c268d5a2f38d,61036e9b8edf5797ea8d68b4,2021-07-29_22h15.26.875,Simcolourproject_2stim_asymm_v5,2020.2.10,MacIntel,60,61025ae37ef11b136ea224fe,,,,,,,,,4004,36,-61,1,0,0,response3disk,,4,12,11,1,0,0,rectangle,12,11,1,0,0,12,11,1,0,0,1,50,210,44,1,,,,,,,,
,,,,,,,,,,,,,FF,,,,,,,,0.635,,,,,,,,,,,,,,,,,,,,,,60fcf0589b18c268d5a2f38d,61036e9b8edf5797ea8d68b4,2021-07-29_22h15.26.875,Simcolourproject_2stim_asymm_v5,2020.2.10,MacIntel,60,61025ae37ef11b136ea224fe,,,,,,,,,508,105,60,1,0,0,response1disk,,6,13,10,1,0,0,rectangle,13,10,1,0,0,13,10,1,0,0,1,51,211,58,1,,,,,,,,
,,,,,,,,,,,,,FF,,,,,,,,0.717,,,,,,,,,,,,,,,,,,,,,,60fcf0589b18c268d5a2f38d,61036e9b8edf5797ea8d68b4,2021-07-29_22h15.26.875,Simcolourproject_2stim_asymm_v5,2020.2.10,MacIntel,60,61025ae37ef11b136ea224fe,,,,,,,,,2138,66,35,1,0,0,response1disk,,6,13,8,1,0,0,rectangle,13,8,1,0,0,13,8,1,0,0,1,52,212,21,1,,,,,,,,
,,,,,,,,,,,,,FF,,,,,,,,1.018,,,,,,,,,,,,,,,,,,,,,,60fcf0589b18c268d5a2f38d,61036e9b8edf5797ea8d68b4,2021-07-29_22h15.26.875,Simcolourproject_2stim_asymm_v5,2020.2.10,MacIntel,60,61025ae37ef11b136ea224fe,,,,,,,,,1783,34,-75,1,0,0,response3disk,,4,-2,5,1,0,0,rectangle,-2,5,1,0,0,-2,5,1,0,0,1,53,213,50,1,,,,,,,,
,,,,,,,,,,,,,FF,,,,,,,,0.751,,,,,,,,,,,,,,,,,,,,,,60fcf0589b18c268d5a2f38d,61036e9b8edf5797ea8d68b4,2021-07-29_22h15.26.875,Simcolourproject_2stim_asymm_v5,2020.2.10,MacIntel,60,61025ae37ef11b136ea224fe,,,,,,,,,842,101,-33,1,0,0,response3disk,,5,12,-3,1,0,0,rectangle,12,-3,1,0,0,12,-3,1,0,0,1,54,214,120,1,,,,,,,,
,,,,,,,,,,,,,FF,,,,,,,,0.9,,,,,,,,,,,,,,,,,,,,,,60fcf0589b18c268d5a2f38d,61036e9b8edf5797ea8d68b4,2021-07-29_22h15.26.875,Simcolourproject_2stim_asymm_v5,2020.2.10,MacIntel,60,61025ae37ef11b136ea224fe,,,,,,,,,2469,74,-61,1,0,0,response3disk,,5,11,-6,1,0,0,rectangle,-43,-87,1,0,0,11,5,1,0,0,1,55,215,29,1,,response5disk_3,TRUE,3,3,"[103,70,33,313,10,225,205,156,140,237,83,189,232,242,5,125,105,216,201,2]",1.284,rectangle
,,,,,,,,,,,,,FF,,,,,,,,0.766,,,,,,,,,,,,,,,,,,,,,,60fcf0589b18c268d5a2f38d,61036e9b8edf5797ea8d68b4,2021-07-29_22h15.26.875,Simcolourproject_2stim_asymm_v5,2020.2.10,MacIntel,60,61025ae37ef11b136ea224fe,,,,,,,,,2832,-58,33,1,0,0,response7disk,,1,18,12,1,0,0,rectangle,18,12,1,0,0,18,12,1,0,0,1,56,216,5,1,,,,,,,,
,,,,,,,,,,,,,FF,,,,,,,,0.717,,,,,,,,,,,,,,,,,,,,,,60fcf0589b18c268d5a2f38d,61036e9b8edf5797ea8d68b4,2021-07-29_22h15.26.875,Simcolourproject_2stim_asymm_v5,2020.2.10,MacIntel,60,61025ae37ef11b136ea224fe,,,,,,,,,1998,68,57,1,0,0,response1disk,,6,0,13,1,0,0,rectangle,0,13,1,0,0,0,13,1,0,0,1,57,217,127,1,,,,,,,,
,,,,,,,,,,,,,FF,,,,,,,,0.984,,,,,,,,,,,,,,,,,,,,,,60fcf0589b18c268d5a2f38d,61036e9b8edf5797ea8d68b4,2021-07-29_22h15.26.875,Simcolourproject_2stim_asymm_v5,2020.2.10,MacIntel,60,61025ae37ef11b136ea224fe,,,,,,,,,4316,-47,75,1,0,0,response7disk,,0,-22,6,1,0,0,rectangle,-22,6,1,0,0,-22,6,1,0,0,1,58,218,88,1,,,,,,,,
,,,,,,,,,,,,,FF,,,,,,,,0.701,,,,,,,,,,,,,,,,,,,,,,60fcf0589b18c268d5a2f38d,61036e9b8edf5797ea8d68b4,2021-07-29_22h15.26.875,Simcolourproject_2stim_asymm_v5,2020.2.10,MacIntel,60,61025ae37ef11b136ea224fe,,,,,,,,,2398,105,-35,1,0,0,response3disk,,5,9,-8,1,0,0,rectangle,9,-8,1,0,0,9,-8,1,0,0,1,59,219,39,1,,,,,,,,
,,,,,,,,,,,,,FF,,,,,,,,0.8,,,,,,,,,,,,,,,,,,,,,,60fcf0589b18c268d5a2f38d,61036e9b8edf5797ea8d68b4,2021-07-29_22h15.26.875,Simcolourproject_2stim_asymm_v5,2020.2.10,MacIntel,60,61025ae37ef11b136ea224fe,,,,,,,,,3708,-70,-26,1,0,0,response5disk,,2,-6,5,1,0,0,rectangle,-6,5,1,0,0,-6,5,1,0,0,1,60,220,144,1,,,,,,,,
,,,,,,,,,,,,,FF,,,,,,,,1.802,,,,,,,,,,,,,,,,,,,,,,60fcf0589b18c268d5a2f38d,61036e9b8edf5797ea8d68b4,2021-07-29_22h15.26.875,Simcolourproject_2stim_asymm_v5,2020.2.10,MacIntel,60,61025ae37ef11b136ea224fe,,,,,,,,,2876,95,-42,1,0,0,response3disk,,5,5,3,1,0,0,rectangle,5,3,1,0,0,5,3,1,0,0,1,61,221,94,1,,,,,,,,
,,,,,,,,,,,,,FF,,,,,,,,1.618,,,,,,,,,,,,,,,,,,,,,,60fcf0589b18c268d5a2f38d,61036e9b8edf5797ea8d68b4,2021-07-29_22h15.26.875,Simcolourproject_2stim_asymm_v5,2020.2.10,MacIntel,60,61025ae37ef11b136ea224fe,,,,,,,,,3715,-38,-82,1,0,0,response5disk,,3,-6,2,1,0,0,rectangle,-6,2,1,0,0,-6,2,1,0,0,1,62,222,155,1,,,,,,,,
,,,,,,,,,,,,,FF,,,,,,,,0.617,,,,,,,,,,,,,,,,,,,,,,60fcf0589b18c268d5a2f38d,61036e9b8edf5797ea8d68b4,2021-07-29_22h15.26.875,Simcolourproject_2stim_asymm_v5,2020.2.10,MacIntel,60,61025ae37ef11b136ea224fe,,,,,,,,,3955,81,25,1,0,0,response1disk,,6,1,2,1,0,0,rectangle,1,2,1,0,0,1,2,1,0,0,1,63,223,30,1,,,,,,,,
,,,,,,,,,,,,,FF,,,,,,,,0.817,,,,,,,,,,,,,,,,,,,,,,60fcf0589b18c268d5a2f38d,61036e9b8edf5797ea8d68b4,2021-07-29_22h15.26.875,Simcolourproject_2stim_asymm_v5,2020.2.10,MacIntel,60,61025ae37ef11b136ea224fe,,,,,,,,,2622,-78,-20,1,0,0,response5disk,,2,-5,-5,1,0,0,rectangle,-39,-84,1,0,0,-15,2,1,0,0,1,64,224,104,1,,response5disk_3,TRUE,3,3,"[103,70,33,313,10,225,205,156,140,237,83,189,232,242,5,125,105,216,201,2]",1.75,rectangle
,,,,,,,,,,,,,FF,,,,,,,,0.8,,,,,,,,,,,,,,,,,,,,,,60fcf0589b18c268d5a2f38d,61036e9b8edf5797ea8d68b4,2021-07-29_22h15.26.875,Simcolourproject_2stim_asymm_v5,2020.2.10,MacIntel,60,61025ae37ef11b136ea224fe,,,,,,,,,2488,80,-45,1,0,0,response3disk,,5,14,-6,1,0,0,rectangle,14,-6,1,0,0,14,-6,1,0,0,1,65,225,65,1,,,,,,,,
,,,,,,,,,,,,,FF,,,,,,,,0.617,,,,,,,,,,,,,,,,,,,,,,60fcf0589b18c268d5a2f38d,61036e9b8edf5797ea8d68b4,2021-07-29_22h15.26.875,Simcolourproject_2stim_asymm_v5,2020.2.10,MacIntel,60,61025ae37ef11b136ea224fe,,,,,,,,,911,72,50,1,0,0,response1disk,,6,0,7,1,0,0,rectangle,0,7,1,0,0,0,7,1,0,0,1,66,226,135,1,,,,,,,,
,,,,,,,,,,,,,FF,,,,,,,,0.851,,,,,,,,,,,,,,,,,,,,,,60fcf0589b18c268d5a2f38d,61036e9b8edf5797ea8d68b4,2021-07-29_22h15.26.875,Simcolourproject_2stim_asymm_v5,2020.2.10,MacIntel,60,61025ae37ef11b136ea224fe,,,,,,,,,4149,-96,-37,1,0,0,response5disk,,2,7,1,1,0,0,rectangle,7,1,1,0,0,7,1,1,0,0,1,67,227,130,1,,,,,,,,
,,,,,,,,,,,,,FF,,,,,,,,0.766,,,,,,,,,,,,,,,,,,,,,,60fcf0589b18c268d5a2f38d,61036e9b8edf5797ea8d68b4,2021-07-29_22h15.26.875,Simcolourproject_2stim_asymm_v5,2020.2.10,MacIntel,60,61025ae37ef11b136ea224fe,,,,,,,,,97,-25,-69,1,0,0,response5disk,,3,-2,2,1,0,0,rectangle,-2,2,1,0,0,-2,2,1,0,0,1,68,228,101,1,,,,,,,,
,,,,,,,,,,,,,FF,,,,,,,,1.117,,,,,,,,,,,,,,,,,,,,,,60fcf0589b18c268d5a2f38d,61036e9b8edf5797ea8d68b4,2021-07-29_22h15.26.875,Simcolourproject_2stim_asymm_v5,2020.2.10,MacIntel,60,61025ae37ef11b136ea224fe,,,,,,,,,2180,35,-59,1,0,0,response3disk,,4,16,4,1,0,0,rectangle,16,4,1,0,0,16,4,1,0,0,1,69,229,1,1,,,,,,,,
,,,,,,,,,,,,,FF,,,,,,,,0.651,,,,,,,,,,,,,,,,,,,,,,60fcf0589b18c268d5a2f38d,61036e9b8edf5797ea8d68b4,2021-07-29_22h15.26.875,Simcolourproject_2stim_asymm_v5,2020.2.10,MacIntel,60,61025ae37ef11b136ea224fe,,,,,,,,,1876,64,38,1,0,0,response1disk,,6,-3,10,1,0,0,rectangle,-3,10,1,0,0,-3,10,1,0,0,1,70,230,131,1,,,,,,,,
,,,,,,,,,,,,,FF,,,,,,,,0.751,,,,,,,,,,,,,,,,,,,,,,60fcf0589b18c268d5a2f38d,61036e9b8edf5797ea8d68b4,2021-07-29_22h15.26.875,Simcolourproject_2stim_asymm_v5,2020.2.10,MacIntel,60,61025ae37ef11b136ea224fe,,,,,,,,,1075,104,48,1,0,0,response1disk,,6,-3,4,1,0,0,rectangle,103,50,1,0,0,19,-2,1,0,0,1,71,231,142,1,,response1disk_3,TRUE,6,6,"[103,70,33,313,10,225,205,156,140,237,83,189,232,242,5,125,105,216,201,2]",1.533,rectangle
,,,,,,,,,,,,,FF,,,,,,,,1.718,,,,,,,,,,,,,,,,,,,,,,60fcf0589b18c268d5a2f38d,61036e9b8edf5797ea8d68b4,2021-07-29_22h15.26.875,Simcolourproject_2stim_asymm_v5,2020.2.10,MacIntel,60,61025ae37ef11b136ea224fe,,,,,,,,,1819,-70,-34,1,0,0,response5disk,,2,1,3,1,0,0,rectangle,1,3,1,0,0,1,3,1,0,0,1,72,232,34,1,,,,,,,,
,,,,,,,,,,,,,FF,,,,,,,,0.734,,,,,,,,,,,,,,,,,,,,,,60fcf0589b18c268d5a2f38d,61036e9b8edf5797ea8d68b4,2021-07-29_22h15.26.875,Simcolourproject_2stim_asymm_v5,2020.2.10,MacIntel,60,61025ae37ef11b136ea224fe,,,,,,,,,1093,85,54,1,0,0,response1disk,,6,11,5,1,0,0,rectangle,11,5,1,0,0,11,5,1,0,0,1,73,233,10,1,,,,,,,,
,,,,,,,,,,,,,FF,,,,,,,,0.818,,,,,,,,,,,,,,,,,,,,,,60fcf0589b18c268d5a2f38d,61036e9b8edf5797ea8d68b4,2021-07-29_22h15.26.875,Simcolourproject_2stim_asymm_v5,2020.2.10,MacIntel,60,61025ae37ef11b136ea224fe,,,,,,,,,1143,-86,-28,1,0,0,response5disk,,2,2,9,1,0,0,rectangle,2,9,1,0,0,2,9,1,0,0,1,74,234,138,1,,,,,,,,
,,,,,,,,,,,,,FF,,,,,,,,0.617,,,,,,,,,,,,,,,,,,,,,,60fcf0589b18c268d5a2f38d,61036e9b8edf5797ea8d68b4,2021-07-29_22h15.26.875,Simcolourproject_2stim_asymm_v5,2020.2.10,MacIntel,60,61025ae37ef11b136ea224fe,,,,,,,,,4304,30,73,1,0,0,response1disk,,7,23,6,1,0,0,rectangle,23,6,1,0,0,23,6,1,0,0,1,75,235,111,1,,,,,,,,
,,,,,,,,,,,,,FF,,,,,,,,0.85,,,,,,,,,,,,,,,,,,,,,,60fcf0589b18c268d5a2f38d,61036e9b8edf5797ea8d68b4,2021-07-29_22h15.26.875,Simcolourproject_2stim_asymm_v5,2020.2.10,MacIntel,60,61025ae37ef11b136ea224fe,,,,,,,,,3021,40,88,1,0,0,response1disk,,7,6,3,1,0,0,rectangle,77,32,1,0,0,11,1,1,0,0,1,76,236,52,1,,response1disk_3,TRUE,6,6,"[103,70,33,313,10,225,205,156,140,237,83,189,232,242,5,125,105,216,201,2]",1.35,rectangle
,,,,,,,,,,,,,FF,,,,,,,,0.634,,,,,,,,,,,,,,,,,,,,,,60fcf0589b18c268d5a2f38d,61036e9b8edf5797ea8d68b4,2021-07-29_22h15.26.875,Simcolourproject_2stim_asymm_v5,2020.2.10,MacIntel,60,61025ae37ef11b136ea224fe,,,,,,,,,4152,26,93,1,0,0,response1disk,,7,8,8,1,0,0,rectangle,8,8,1,0,0,8,8,1,0,0,1,77,237,69,1,,,,,,,,
,,,,,,,,,,,,,FF,,,,,,,,0.718,,,,,,,,,,,,,,,,,,,,,,60fcf0589b18c268d5a2f38d,61036e9b8edf5797ea8d68b4,2021-07-29_22h15.26.875,Simcolourproject_2stim_asymm_v5,2020.2.10,MacIntel,60,61025ae37ef11b136ea224fe,,,,,,,,,3493,66,-20,1,0,0,response3disk,,5,22,-5,1,0,0,rectangle,22,-5,1,0,0,22,-5,1,0,0,1,78,238,64,1,,,,,,,,
,,,,,,,,,,,,,FF,,,,,,,,1.101,,,,,,,,,,,,,,,,,,,,,,60fcf0589b18c268d5a2f38d,61036e9b8edf5797ea8d68b4,2021-07-29_22h15.26.875,Simcolourproject_2stim_asymm_v5,2020.2.10,MacIntel,60,61025ae37ef11b136ea224fe,,,,,,,,,3933,-69,-31,1,0,0,response5disk,,2,8,3,1,0,0,rectangle,8,3,1,0,0,8,3,1,0,0,1,79,239,100,1,,,,,,,,
,,,,,,,,,,,,,FF,,,,,,,,0.601,,,,,,,,,,,,,,,,,,,,,,60fcf0589b18c268d5a2f38d,61036e9b8edf5797ea8d68b4,2021-07-29_22h15.26.875,Simcolourproject_2stim_asymm_v5,2020.2.10,MacIntel,60,61025ae37ef11b136ea224fe,,,,,,,,,3467,32,55,1,0,0,response1disk,,7,24,-1,1,0,0,rectangle,24,-1,1,0,0,24,-1,1,0,0,1,80,240,150,1,,,,,,,,
,,,,,,,,,,,,,FF,,,,,,,,0.735,,,,,,,,,,,,,,,,,,,,,,60fcf0589b18c268d5a2f38d,61036e9b8edf5797ea8d68b4,2021-07-29_22h15.26.875,Simcolourproject_2stim_asymm_v5,2020.2.10,MacIntel,60,61025ae37ef11b136ea224fe,,,,,,,,,4046,-32,68,1,0,0,response7disk,,0,-7,8,1,0,0,rectangle,41,-72,1,0,0,6,-12,1,0,0,1,81,241,14,1,,response3disk_3,TRUE,4,4,"[103,70,33,313,10,225,205,156,140,237,83,189,232,242,5,125,105,216,201,2]",1.818,rectangle
,,,,,,,,,,,,,FF,,,,,,,,0.717,,,,,,,,,,,,,,,,,,,,,,60fcf0589b18c268d5a2f38d,61036e9b8edf5797ea8d68b4,2021-07-29_22h15.26.875,Simcolourproject_2stim_asymm_v5,2020.2.10,MacIntel,60,61025ae37ef11b136ea224fe,,,,,,,,,685,67,39,1,0,0,response1disk,,6,9,6,1,0,0,rectangle,9,6,1,0,0,9,6,1,0,0,1,82,242,57,1,,,,,,,,
,,,,,,,,,,,,,FF,,,,,,,,0.733,,,,,,,,,,,,,,,,,,,,,,60fcf0589b18c268d5a2f38d,61036e9b8edf5797ea8d68b4,2021-07-29_22h15.26.875,Simcolourproject_2stim_asymm_v5,2020.2.10,MacIntel,60,61025ae37ef11b136ea224fe,,,,,,,,,993,-34,-70,1,0,0,response5disk,,3,-4,1,1,0,0,rectangle,-4,1,1,0,0,-4,1,1,0,0,1,83,243,133,1,,,,,,,,
,,,,,,,,,,,,,FF,,,,,,,,2.869,,,,,,,,,,,,,,,,,,,,,,60fcf0589b18c268d5a2f38d,61036e9b8edf5797ea8d68b4,2021-07-29_22h15.26.875,Simcolourproject_2stim_asymm_v5,2020.2.10,MacIntel,60,61025ae37ef11b136ea224fe,,,,,,,,,4250,58,-63,1,0,0,response3disk,,4,19,-8,1,0,0,rectangle,19,-8,1,0,0,19,-8,1,0,0,1,84,244,28,1,,,,,,,,
,,,,,,,,,,,,,FF,,,,,,,,0.667,,,,,,,,,,,,,,,,,,,,,,60fcf0589b18c268d5a2f38d,61036e9b8edf5797ea8d68b4,2021-07-29_22h15.26.875,Simcolourproject_2stim_asymm_v5,2020.2.10,MacIntel,60,61025ae37ef11b136ea224fe,,,,,,,,,1862,58,41,1,0,0,response1disk,,6,-4,6,1,0,0,rectangle,-4,6,1,0,0,-4,6,1,0,0,1,85,245,62,1,,,,,,,,
,,,,,,,,,,,,,FF,,,,,,,,0.783,,,,,,,,,,,,,,,,,,,,,,60fcf0589b18c268d5a2f38d,61036e9b8edf5797ea8d68b4,2021-07-29_22h15.26.875,Simcolourproject_2stim_asymm_v5,2020.2.10,MacIntel,60,61025ae37ef11b136ea224fe,,,,,,,,,3172,-62,-114,1,0,0,response5disk,,3,-7,-2,1,0,0,rectangle,-7,-2,1,0,0,-7,-2,1,0,0,1,86,246,154,1,,,,,,,,
,,,,,,,,,,,,,FF,,,,,,,,0.851,,,,,,,,,,,,,,,,,,,,,,60fcf0589b18c268d5a2f38d,61036e9b8edf5797ea8d68b4,2021-07-29_22h15.26.875,Simcolourproject_2stim_asymm_v5,2020.2.10,MacIntel,60,61025ae37ef11b136ea224fe,,,,,,,,,3248,-81,41,1,0,0,response7disk,,1,1,3,1,0,0,rectangle,1,3,1,0,0,1,3,1,0,0,1,87,247,37,1,,,,,,,,
,,,,,,,,,,,,,FF,,,,,,,,0.717,,,,,,,,,,,,,,,,,,,,,,60fcf0589b18c268d5a2f38d,61036e9b8edf5797ea8d68b4,2021-07-29_22h15.26.875,Simcolourproject_2stim_asymm_v5,2020.2.10,MacIntel,60,61025ae37ef11b136ea224fe,,,,,,,,,2015,75,43,1,0,0,response1disk,,6,14,1,1,0,0,rectangle,14,1,1,0,0,14,1,1,0,0,1,88,248,143,1,,,,,,,,
,,,,,,,,,,,,,FF,,,,,,,,1.068,,,,,,,,,,,,,,,,,,,,,,60fcf0589b18c268d5a2f38d,61036e9b8edf5797ea8d68b4,2021-07-29_22h15.26.875,Simcolourproject_2stim_asymm_v5,2020.2.10,MacIntel,60,61025ae37ef11b136ea224fe,,,,,,,,,2935,-85,-23,1,0,0,response5disk,,2,12,5,1,0,0,rectangle,12,5,1,0,0,12,5,1,0,0,1,89,249,108,1,,,,,,,,
,,,,,,,,,,,,,FF,,,,,,,,0.6,,,,,,,,,,,,,,,,,,,,,,60fcf0589b18c268d5a2f38d,61036e9b8edf5797ea8d68b4,2021-07-29_22h15.26.875,Simcolourproject_2stim_asymm_v5,2020.2.10,MacIntel,60,61025ae37ef11b136ea224fe,,,,,,,,,4227,78,38,1,0,0,response1disk,,6,12,-5,1,0,0,rectangle,12,-5,1,0,0,12,-5,1,0,0,1,90,250,3,1,,,,,,,,
,,,,,,,,,,,,,FF,,,,,,,,0.6,,,,,,,,,,,,,,,,,,,,,,60fcf0589b18c268d5a2f38d,61036e9b8edf5797ea8d68b4,2021-07-29_22h15.26.875,Simcolourproject_2stim_asymm_v5,2020.2.10,MacIntel,60,61025ae37ef11b136ea224fe,,,,,,,,,1504,68,30,1,0,0,response1disk,,6,-8,-4,1,0,0,rectangle,-8,-4,1,0,0,-8,-4,1,0,0,1,91,251,4,1,,,,,,,,
,,,,,,,,,,,,,FF,,,,,,,,1.101,,,,,,,,,,,,,,,,,,,,,,60fcf0589b18c268d5a2f38d,61036e9b8edf5797ea8d68b4,2021-07-29_22h15.26.875,Simcolourproject_2stim_asymm_v5,2020.2.10,MacIntel,60,61025ae37ef11b136ea224fe,,,,,,,,,1682,-64,-45,1,0,0,response5disk,,2,-20,0,1,0,0,rectangle,-20,0,1,0,0,-20,0,1,0,0,1,92,252,156,1,,,,,,,,
,,,,,,,,,,,,,FF,,,,,,,,1.85,,,,,,,,,,,,,,,,,,,,,,60fcf0589b18c268d5a2f38d,61036e9b8edf5797ea8d68b4,2021-07-29_22h15.26.875,Simcolourproject_2stim_asymm_v5,2020.2.10,MacIntel,60,61025ae37ef11b136ea224fe,,,,,,,,,1851,88,38,1,0,0,response1disk,,6,-5,1,1,0,0,rectangle,-5,1,1,0,0,-5,1,1,0,0,1,93,253,25,1,,,,,,,,
,,,,,,,,,,,,,FF,,,,,,,,1.167,,,,,,,,,,,,,,,,,,,,,,60fcf0589b18c268d5a2f38d,61036e9b8edf5797ea8d68b4,2021-07-29_22h15.26.875,Simcolourproject_2stim_asymm_v5,2020.2.10,MacIntel,60,61025ae37ef11b136ea224fe,,,,,,,,,2509,65,41,1,0,0,response1disk,,6,18,9,1,0,0,rectangle,18,9,1,0,0,18,9,1,0,0,1,94,254,36,1,,,,,,,,
,,,,,,,,,,,,,FF,,,,,,,,0.9,,,,,,,,,,,,,,,,,,,,,,60fcf0589b18c268d5a2f38d,61036e9b8edf5797ea8d68b4,2021-07-29_22h15.26.875,Simcolourproject_2stim_asymm_v5,2020.2.10,MacIntel,60,61025ae37ef11b136ea224fe,,,,,,,,,2258,63,-22,1,0,0,response3disk,,5,11,3,1,0,0,rectangle,11,3,1,0,0,11,3,1,0,0,1,95,255,147,1,,,,,,,,
,,,,,,,,,,,,,FF,,,,,,,,0.651,,,,,,,,,,,,,,,,,,,,,,60fcf0589b18c268d5a2f38d,61036e9b8edf5797ea8d68b4,2021-07-29_22h15.26.875,Simcolourproject_2stim_asymm_v5,2020.2.10,MacIntel,60,61025ae37ef11b136ea224fe,,,,,,,,,202,84,33,1,0,0,response1disk,,6,15,4,1,0,0,rectangle,15,4,1,0,0,15,4,1,0,0,1,96,256,31,1,,,,,,,,
,,,,,,,,,,,,,FF,,,,,,,,1.05,,,,,,,,,,,,,,,,,,,,,,60fcf0589b18c268d5a2f38d,61036e9b8edf5797ea8d68b4,2021-07-29_22h15.26.875,Simcolourproject_2stim_asymm_v5,2020.2.10,MacIntel,60,61025ae37ef11b136ea224fe,,,,,,,,,2313,-32,-68,1,0,0,response5disk,,3,-7,-6,1,0,0,rectangle,-7,-6,1,0,0,-7,-6,1,0,0,1,97,257,124,1,,,,,,,,
,,,,,,,,,,,,,FF,,,,,,,,0.834,,,,,,,,,,,,,,,,,,,,,,60fcf0589b18c268d5a2f38d,61036e9b8edf5797ea8d68b4,2021-07-29_22h15.26.875,Simcolourproject_2stim_asymm_v5,2020.2.10,MacIntel,60,61025ae37ef11b136ea224fe,,,,,,,,,3903,-68,-29,1,0,0,response5disk,,2,13,9,1,0,0,rectangle,13,9,1,0,0,13,9,1,0,0,1,98,258,61,1,,,,,,,,
,,,,,,,,,,,,,FF,,,,,,,,0.784,,,,,,,,,,,,,,,,,,,,,,60fcf0589b18c268d5a2f38d,61036e9b8edf5797ea8d68b4,2021-07-29_22h15.26.875,Simcolourproject_2stim_asymm_v5,2020.2.10,MacIntel,60,61025ae37ef11b136ea224fe,,,,,,,,,905,54,-34,1,0,0,response3disk,,5,16,2,1,0,0,rectangle,16,2,1,0,0,16,2,1,0,0,1,99,259,112,1,,,,,,,,
,,,,,,,,,,,,,FF,,,,,,,,0.668,,,,,,,,,,,,,,,,,,,,,,60fcf0589b18c268d5a2f38d,61036e9b8edf5797ea8d68b4,2021-07-29_22h15.26.875,Simcolourproject_2stim_asymm_v5,2020.2.10,MacIntel,60,61025ae37ef11b136ea224fe,,,,,,,,,3135,91,42,1,0,0,response1disk,,6,6,6,1,0,0,rectangle,6,6,1,0,0,6,6,1,0,0,1,100,260,46,1,,,,,,,,
,,,,,,,,,,,,,FF,,,,,,,,0.701,,,,,,,,,,,,,,,,,,,,,,60fcf0589b18c268d5a2f38d,61036e9b8edf5797ea8d68b4,2021-07-29_22h15.26.875,Simcolourproject_2stim_asymm_v5,2020.2.10,MacIntel,60,61025ae37ef11b136ea224fe,,,,,,,,,623,92,35,1,0,0,response1disk,,6,-1,-9,1,0,0,rectangle,-1,-9,1,0,0,-1,-9,1,0,0,1,101,261,102,1,,,,,,,,
,,,,,,,,,,,,,FF,,,,,,,,0.717,,,,,,,,,,,,,,,,,,,,,,60fcf0589b18c268d5a2f38d,61036e9b8edf5797ea8d68b4,2021-07-29_22h15.26.875,Simcolourproject_2stim_asymm_v5,2020.2.10,MacIntel,60,61025ae37ef11b136ea224fe,,,,,,,,,2978,79,-35,1,0,0,response3disk,,5,12,-1,1,0,0,rectangle,12,-1,1,0,0,12,-1,1,0,0,1,102,262,76,1,,,,,,,,
,,,,,,,,,,,,,FF,,,,,,,,0.984,,,,,,,,,,,,,,,,,,,,,,60fcf0589b18c268d5a2f38d,61036e9b8edf5797ea8d68b4,2021-07-29_22h15.26.875,Simcolourproject_2stim_asymm_v5,2020.2.10,MacIntel,60,61025ae37ef11b136ea224fe,,,,,,,,,3492,89,-43,1,0,0,response3disk,,5,13,-11,1,0,0,rectangle,13,-11,1,0,0,13,-11,1,0,0,1,103,263,63,1,,,,,,,,
,,,,,,,,,,,,,FF,,,,,,,,0.884,,,,,,,,,,,,,,,,,,,,,,60fcf0589b18c268d5a2f38d,61036e9b8edf5797ea8d68b4,2021-07-29_22h15.26.875,Simcolourproject_2stim_asymm_v5,2020.2.10,MacIntel,60,61025ae37ef11b136ea224fe,,,,,,,,,1943,92,41,1,0,0,response1disk,,6,0,3,1,0,0,rectangle,0,3,1,0,0,0,3,1,0,0,1,104,264,80,1,,,,,,,,
,,,,,,,,,,,,,FF,,,,,,,,0.65,,,,,,,,,,,,,,,,,,,,,,60fcf0589b18c268d5a2f38d,61036e9b8edf5797ea8d68b4,2021-07-29_22h15.26.875,Simcolourproject_2stim_asymm_v5,2020.2.10,MacIntel,60,61025ae37ef11b136ea224fe,,,,,,,,,2581,100,44,1,0,0,response1disk,,6,-27,-10,1,0,0,rectangle,-27,-10,1,0,0,-27,-10,1,0,0,1,105,265,33,1,,,,,,,,
,,,,,,,,,,,,,FF,,,,,,,,0.7,,,,,,,,,,,,,,,,,,,,,,60fcf0589b18c268d5a2f38d,61036e9b8edf5797ea8d68b4,2021-07-29_22h15.26.875,Simcolourproject_2stim_asymm_v5,2020.2.10,MacIntel,60,61025ae37ef11b136ea224fe,,,,,,,,,2718,-38,69,1,0,0,response7disk,,0,2,3,1,0,0,rectangle,2,3,1,0,0,2,3,1,0,0,1,106,266,145,1,,,,,,,,
,,,,,,,,,,,,,FF,,,,,,,,0.849,,,,,,,,,,,,,,,,,,,,,,60fcf0589b18c268d5a2f38d,61036e9b8edf5797ea8d68b4,2021-07-29_22h15.26.875,Simcolourproject_2stim_asymm_v5,2020.2.10,MacIntel,60,61025ae37ef11b136ea224fe,,,,,,,,,1578,80,-50,1,0,0,response3disk,,5,19,-3,1,0,0,rectangle,19,-3,1,0,0,19,-3,1,0,0,1,107,267,72,1,,,,,,,,
,,,,,,,,,,,,,FF,,,,,,,,1.133,,,,,,,,,,,,,,,,,,,,,,60fcf0589b18c268d5a2f38d,61036e9b8edf5797ea8d68b4,2021-07-29_22h15.26.875,Simcolourproject_2stim_asymm_v5,2020.2.10,MacIntel,60,61025ae37ef11b136ea224fe,,,,,,,,,3622,-46,-71,1,0,0,response5disk,,3,9,-5,1,0,0,rectangle,9,-5,1,0,0,9,-5,1,0,0,1,108,268,68,1,,,,,,,,
,,,,,,,,,,,,,FF,,,,,,,,0.701,,,,,,,,,,,,,,,,,,,,,,60fcf0589b18c268d5a2f38d,61036e9b8edf5797ea8d68b4,2021-07-29_22h15.26.875,Simcolourproject_2stim_asymm_v5,2020.2.10,MacIntel,60,61025ae37ef11b136ea224fe,,,,,,,,,2339,73,-51,1,0,0,response3disk,,5,28,-1,1,0,0,rectangle,28,-1,1,0,0,28,-1,1,0,0,1,109,269,56,1,,,,,,,,
,,,,,,,,,,,,,FF,,,,,,,,0.768,,,,,,,,,,,,,,,,,,,,,,60fcf0589b18c268d5a2f38d,61036e9b8edf5797ea8d68b4,2021-07-29_22h15.26.875,Simcolourproject_2stim_asymm_v5,2020.2.10,MacIntel,60,61025ae37ef11b136ea224fe,,,,,,,,,549,-70,-43,1,0,0,response5disk,,2,-2,-8,1,0,0,rectangle,-2,-8,1,0,0,-2,-8,1,0,0,1,110,270,93,1,,,,,,,,
,,,,,,,,,,,,,FF,,,,,,,,0.617,,,,,,,,,,,,,,,,,,,,,,60fcf0589b18c268d5a2f38d,61036e9b8edf5797ea8d68b4,2021-07-29_22h15.26.875,Simcolourproject_2stim_asymm_v5,2020.2.10,MacIntel,60,61025ae37ef11b136ea224fe,,,,,,,,,2918,75,-31,1,0,0,response3disk,,5,0,4,1,0,0,rectangle,0,4,1,0,0,0,4,1,0,0,1,111,271,40,1,,,,,,,,
,,,,,,,,,,,,,FF,,,,,,,,0.683,,,,,,,,,,,,,,,,,,,,,,60fcf0589b18c268d5a2f38d,61036e9b8edf5797ea8d68b4,2021-07-29_22h15.26.875,Simcolourproject_2stim_asymm_v5,2020.2.10,MacIntel,60,61025ae37ef11b136ea224fe,,,,,,,,,792,36,75,1,0,0,response1disk,,7,1,1,1,0,0,rectangle,1,1,1,0,0,1,1,1,0,0,1,112,272,66,1,,,,,,,,
,,,,,,,,,,,,,FF,,,,,,,,1.434,,,,,,,,,,,,,,,,,,,,,,60fcf0589b18c268d5a2f38d,61036e9b8edf5797ea8d68b4,2021-07-29_22h15.26.875,Simcolourproject_2stim_asymm_v5,2020.2.10,MacIntel,60,61025ae37ef11b136ea224fe,,,,,,,,,1124,82,-34,1,0,0,response3disk,,5,-7,-3,1,0,0,rectangle,-7,-3,1,0,0,-7,-3,1,0,0,1,113,273,0,1,,,,,,,,
,,,,,,,,,,,,,FF,,,,,,,,0.901,,,,,,,,,,,,,,,,,,,,,,60fcf0589b18c268d5a2f38d,61036e9b8edf5797ea8d68b4,2021-07-29_22h15.26.875,Simcolourproject_2stim_asymm_v5,2020.2.10,MacIntel,60,61025ae37ef11b136ea224fe,,,,,,,,,4260,70,-30,1,0,0,response3disk,,5,3,-7,1,0,0,rectangle,3,-7,1,0,0,3,-7,1,0,0,1,114,274,67,1,,,,,,,,
,,,,,,,,,,,,,FF,,,,,,,,0.7,,,,,,,,,,,,,,,,,,,,,,60fcf0589b18c268d5a2f38d,61036e9b8edf5797ea8d68b4,2021-07-29_22h15.26.875,Simcolourproject_2stim_asymm_v5,2020.2.10,MacIntel,60,61025ae37ef11b136ea224fe,,,,,,,,,364,70,31,1,0,0,response1disk,,6,0,1,1,0,0,rectangle,0,1,1,0,0,0,1,1,0,0,1,115,275,73,1,,,,,,,,
,,,,,,,,,,,,,FF,,,,,,,,0.566,,,,,,,,,,,,,,,,,,,,,,60fcf0589b18c268d5a2f38d,61036e9b8edf5797ea8d68b4,2021-07-29_22h15.26.875,Simcolourproject_2stim_asymm_v5,2020.2.10,MacIntel,60,61025ae37ef11b136ea224fe,,,,,,,,,4132,55,42,1,0,0,response1disk,,6,-2,-2,1,0,0,rectangle,-2,-2,1,0,0,-2,-2,1,0,0,1,116,276,27,1,,,,,,,,
,,,,,,,,,,,,,FF,,,,,,,,0.868,,,,,,,,,,,,,,,,,,,,,,60fcf0589b18c268d5a2f38d,61036e9b8edf5797ea8d68b4,2021-07-29_22h15.26.875,Simcolourproject_2stim_asymm_v5,2020.2.10,MacIntel,60,61025ae37ef11b136ea224fe,,,,,,,,,1973,-37,-70,1,0,0,response5disk,,3,-4,-6,1,0,0,rectangle,-4,-6,1,0,0,-4,-6,1,0,0,1,117,277,106,1,,,,,,,,
,,,,,,,,,,,,,FF,,,,,,,,0.668,,,,,,,,,,,,,,,,,,,,,,60fcf0589b18c268d5a2f38d,61036e9b8edf5797ea8d68b4,2021-07-29_22h15.26.875,Simcolourproject_2stim_asymm_v5,2020.2.10,MacIntel,60,61025ae37ef11b136ea224fe,,,,,,,,,2834,-48,-37,1,0,0,response5disk,,2,-7,11,1,0,0,rectangle,-7,11,1,0,0,-7,11,1,0,0,1,118,278,159,1,,,,,,,,
,,,,,,,,,,,,,FF,,,,,,,,0.651,,,,,,,,,,,,,,,,,,,,,,60fcf0589b18c268d5a2f38d,61036e9b8edf5797ea8d68b4,2021-07-29_22h15.26.875,Simcolourproject_2stim_asymm_v5,2020.2.10,MacIntel,60,61025ae37ef11b136ea224fe,,,,,,,,,1687,-67,-80,1,0,0,response5disk,,3,3,14,1,0,0,rectangle,3,14,1,0,0,3,14,1,0,0,1,119,279,149,1,,,,,,,,
,,,,,,,,,,,,,FF,,,,,,,,0.684,,,,,,,,,,,,,,,,,,,,,,60fcf0589b18c268d5a2f38d,61036e9b8edf5797ea8d68b4,2021-07-29_22h15.26.875,Simcolourproject_2stim_asymm_v5,2020.2.10,MacIntel,60,61025ae37ef11b136ea224fe,,,,,,,,,1942,90,-47,1,0,0,response3disk,,5,-5,8,1,0,0,rectangle,-5,8,1,0,0,-5,8,1,0,0,1,120,280,148,1,,,,,,,,
,,,,,,,,,,,,,FF,,,,,,,,0.734,,,,,,,,,,,,,,,,,,,,,,60fcf0589b18c268d5a2f38d,61036e9b8edf5797ea8d68b4,2021-07-29_22h15.26.875,Simcolourproject_2stim_asymm_v5,2020.2.10,MacIntel,60,61025ae37ef11b136ea224fe,,,,,,,,,3392,-68,42,1,0,0,response7disk,,1,-9,1,1,0,0,rectangle,-9,1,1,0,0,-9,1,1,0,0,1,121,281,152,1,,,,,,,,
,,,,,,,,,,,,,FF,,,,,,,,0.651,,,,,,,,,,,,,,,,,,,,,,60fcf0589b18c268d5a2f38d,61036e9b8edf5797ea8d68b4,2021-07-29_22h15.26.875,Simcolourproject_2stim_asymm_v5,2020.2.10,MacIntel,60,61025ae37ef11b136ea224fe,,,,,,,,,1614,-30,-99,1,0,0,response5disk,,3,-4,-7,1,0,0,rectangle,-4,-7,1,0,0,-4,-7,1,0,0,1,122,282,45,1,,,,,,,,
,,,,,,,,,,,,,FF,,,,,,,,0.616,,,,,,,,,,,,,,,,,,,,,,60fcf0589b18c268d5a2f38d,61036e9b8edf5797ea8d68b4,2021-07-29_22h15.26.875,Simcolourproject_2stim_asymm_v5,2020.2.10,MacIntel,60,61025ae37ef11b136ea224fe,,,,,,,,,3698,95,-60,1,0,0,response3disk,,5,-5,-3,1,0,0,rectangle,-5,-3,1,0,0,-5,-3,1,0,0,1,123,283,26,1,,,,,,,,
,,,,,,,,,,,,,FF,,,,,,,,0.685,,,,,,,,,,,,,,,,,,,,,,60fcf0589b18c268d5a2f38d,61036e9b8edf5797ea8d68b4,2021-07-29_22h15.26.875,Simcolourproject_2stim_asymm_v5,2020.2.10,MacIntel,60,61025ae37ef11b136ea224fe,,,,,,,,,3369,94,68,1,0,0,response1disk,,6,23,10,1,0,0,rectangle,23,10,1,0,0,23,10,1,0,0,1,124,284,105,1,,,,,,,,
,,,,,,,,,,,,,FF,,,,,,,,0.668,,,,,,,,,,,,,,,,,,,,,,60fcf0589b18c268d5a2f38d,61036e9b8edf5797ea8d68b4,2021-07-29_22h15.26.875,Simcolourproject_2stim_asymm_v5,2020.2.10,MacIntel,60,61025ae37ef11b136ea224fe,,,,,,,,,113,41,-80,1,0,0,response3disk,,4,22,-6,1,0,0,rectangle,22,-6,1,0,0,22,-6,1,0,0,1,125,285,9,1,,,,,,,,
,,,,,,,,,,,,,FF,,,,,,,,0.601,,,,,,,,,,,,,,,,,,,,,,60fcf0589b18c268d5a2f38d,61036e9b8edf5797ea8d68b4,2021-07-29_22h15.26.875,Simcolourproject_2stim_asymm_v5,2020.2.10,MacIntel,60,61025ae37ef11b136ea224fe,,,,,,,,,1644,75,36,1,0,0,response1disk,,6,20,3,1,0,0,rectangle,20,3,1,0,0,20,3,1,0,0,1,126,286,84,1,,,,,,,,
,,,,,,,,,,,,,FF,,,,,,,,0.716,,,,,,,,,,,,,,,,,,,,,,60fcf0589b18c268d5a2f38d,61036e9b8edf5797ea8d68b4,2021-07-29_22h15.26.875,Simcolourproject_2stim_asymm_v5,2020.2.10,MacIntel,60,61025ae37ef11b136ea224fe,,,,,,,,,1374,-88,-62,1,0,0,response5disk,,2,-9,-7,1,0,0,rectangle,-9,-7,1,0,0,-9,-7,1,0,0,1,127,287,97,1,,,,,,,,
,,,,,,,,,,,,,FF,,,,,,,,0.9,,,,,,,,,,,,,,,,,,,,,,60fcf0589b18c268d5a2f38d,61036e9b8edf5797ea8d68b4,2021-07-29_22h15.26.875,Simcolourproject_2stim_asymm_v5,2020.2.10,MacIntel,60,61025ae37ef11b136ea224fe,,,,,,,,,193,50,-92,1,0,0,response3disk,,4,16,0,1,0,0,rectangle,16,0,1,0,0,16,0,1,0,0,1,128,288,49,1,,,,,,,,
,,,,,,,,,,,,,FF,,,,,,,,1.101,,,,,,,,,,,,,,,,,,,,,,60fcf0589b18c268d5a2f38d,61036e9b8edf5797ea8d68b4,2021-07-29_22h15.26.875,Simcolourproject_2stim_asymm_v5,2020.2.10,MacIntel,60,61025ae37ef11b136ea224fe,,,,,,,,,1490,95,48,1,0,0,response1disk,,6,-13,2,1,0,0,rectangle,-13,2,1,0,0,-13,2,1,0,0,1,129,289,110,1,,,,,,,,
,,,,,,,,,,,,,FF,,,,,,,,1.299,,,,,,,,,,,,,,,,,,,,,,60fcf0589b18c268d5a2f38d,61036e9b8edf5797ea8d68b4,2021-07-29_22h15.26.875,Simcolourproject_2stim_asymm_v5,2020.2.10,MacIntel,60,61025ae37ef11b136ea224fe,,,,,,,,,357,51,79,1,0,0,response1disk,,7,-13,-5,1,0,0,rectangle,-13,-5,1,0,0,-13,-5,1,0,0,1,130,290,90,1,,,,,,,,
,,,,,,,,,,,,,FF,,,,,,,,0.717,,,,,,,,,,,,,,,,,,,,,,60fcf0589b18c268d5a2f38d,61036e9b8edf5797ea8d68b4,2021-07-29_22h15.26.875,Simcolourproject_2stim_asymm_v5,2020.2.10,MacIntel,60,61025ae37ef11b136ea224fe,,,,,,,,,1057,-102,-47,1,0,0,response5disk,,2,-20,-13,1,0,0,rectangle,-20,-13,1,0,0,-20,-13,1,0,0,1,131,291,109,1,,,,,,,,
,,,,,,,,,,,,,FF,,,,,,,,0.667,,,,,,,,,,,,,,,,,,,,,,60fcf0589b18c268d5a2f38d,61036e9b8edf5797ea8d68b4,2021-07-29_22h15.26.875,Simcolourproject_2stim_asymm_v5,2020.2.10,MacIntel,60,61025ae37ef11b136ea224fe,,,,,,,,,2191,99,53,1,0,0,response1disk,,6,-13,3,1,0,0,rectangle,-13,3,1,0,0,-13,3,1,0,0,1,132,292,146,1,,,,,,,,
,,,,,,,,,,,,,FF,,,,,,,,0.784,,,,,,,,,,,,,,,,,,,,,,60fcf0589b18c268d5a2f38d,61036e9b8edf5797ea8d68b4,2021-07-29_22h15.26.875,Simcolourproject_2stim_asymm_v5,2020.2.10,MacIntel,60,61025ae37ef11b136ea224fe,,,,,,,,,266,-81,-44,1,0,0,response5disk,,2,12,-2,1,0,0,rectangle,12,-2,1,0,0,12,-2,1,0,0,1,133,293,13,1,,,,,,,,
,,,,,,,,,,,,,FF,,,,,,,,0.8,,,,,,,,,,,,,,,,,,,,,,60fcf0589b18c268d5a2f38d,61036e9b8edf5797ea8d68b4,2021-07-29_22h15.26.875,Simcolourproject_2stim_asymm_v5,2020.2.10,MacIntel,60,61025ae37ef11b136ea224fe,,,,,,,,,3350,-112,-57,1,0,0,response5disk,,2,-13,4,1,0,0,rectangle,-13,4,1,0,0,-13,4,1,0,0,1,134,294,114,1,,,,,,,,
,,,,,,,,,,,,,FF,,,,,,,,0.684,,,,,,,,,,,,,,,,,,,,,,60fcf0589b18c268d5a2f38d,61036e9b8edf5797ea8d68b4,2021-07-29_22h15.26.875,Simcolourproject_2stim_asymm_v5,2020.2.10,MacIntel,60,61025ae37ef11b136ea224fe,,,,,,,,,3920,35,-80,1,0,0,response3disk,,4,20,-13,1,0,0,rectangle,20,-13,1,0,0,20,-13,1,0,0,1,135,295,96,1,,,,,,,,
,,,,,,,,,,,,,FF,,,,,,,,0.749,,,,,,,,,,,,,,,,,,,,,,60fcf0589b18c268d5a2f38d,61036e9b8edf5797ea8d68b4,2021-07-29_22h15.26.875,Simcolourproject_2stim_asymm_v5,2020.2.10,MacIntel,60,61025ae37ef11b136ea224fe,,,,,,,,,2177,-70,-79,1,0,0,response5disk,,3,-1,2,1,0,0,rectangle,-1,2,1,0,0,-1,2,1,0,0,1,136,296,107,1,,,,,,,,
,,,,,,,,,,,,,FF,,,,,,,,0.834,,,,,,,,,,,,,,,,,,,,,,60fcf0589b18c268d5a2f38d,61036e9b8edf5797ea8d68b4,2021-07-29_22h15.26.875,Simcolourproject_2stim_asymm_v5,2020.2.10,MacIntel,60,61025ae37ef11b136ea224fe,,,,,,,,,1916,31,-47,1,0,0,response3disk,,4,14,-9,1,0,0,rectangle,14,-9,1,0,0,14,-9,1,0,0,1,137,297,78,1,,,,,,,,
,,,,,,,,,,,,,FF,,,,,,,,0.784,,,,,,,,,,,,,,,,,,,,,,60fcf0589b18c268d5a2f38d,61036e9b8edf5797ea8d68b4,2021-07-29_22h15.26.875,Simcolourproject_2stim_asymm_v5,2020.2.10,MacIntel,60,61025ae37ef11b136ea224fe,,,,,,,,,250,26,-70,1,0,0,response3disk,,4,7,13,1,0,0,rectangle,7,13,1,0,0,7,13,1,0,0,1,138,298,23,1,,,,,,,,
,,,,,,,,,,,,,FF,,,,,,,,0.733,,,,,,,,,,,,,,,,,,,,,,60fcf0589b18c268d5a2f38d,61036e9b8edf5797ea8d68b4,2021-07-29_22h15.26.875,Simcolourproject_2stim_asymm_v5,2020.2.10,MacIntel,60,61025ae37ef11b136ea224fe,,,,,,,,,3483,-95,-52,1,0,0,response5disk,,2,6,-9,1,0,0,rectangle,6,-9,1,0,0,6,-9,1,0,0,1,139,299,18,1,,,,,,,,
,,,,,,,,,,,,,FF,,,,,,,,0.734,,,,,,,,,,,,,,,,,,,,,,60fcf0589b18c268d5a2f38d,61036e9b8edf5797ea8d68b4,2021-07-29_22h15.26.875,Simcolourproject_2stim_asymm_v5,2020.2.10,MacIntel,60,61025ae37ef11b136ea224fe,,,,,,,,,255,-79,-32,1,0,0,response5disk,,2,-14,-6,1,0,0,rectangle,-14,-6,1,0,0,-14,-6,1,0,0,1,140,300,83,1,,,,,,,,
