key_resp.keys,key_resp.rt,key_resp_14.keys,key_resp_14.rt,key_resp_15.keys,key_resp_15.rt,key_resp_17.keys,key_resp_17.rt,key_resp_9.keys,key_resp_9.rt,key_resp_10.keys,key_resp_10.rt,practice_comparison,Ecc,mouse_5.x,mouse_5.y,mouse_5.leftButton,mouse_5.midButton,mouse_5.rightButton,mouse_5.clicked_name,pracsimilarity,response_time,mouse_10.x,mouse_10.y,mouse_10.leftButton,mouse_10.midButton,mouse_10.rightButton,mouse_10.clicked_name,mouse_7.x,mouse_7.y,mouse_7.leftButton,mouse_7.midButton,mouse_7.rightButton,mouse_6.x,mouse_6.y,mouse_6.leftButton,mouse_6.midButton,mouse_6.rightButton,duringprac.thisRepN,duringprac.thisTrialN,duringprac.thisN,duringprac.thisIndex,duringprac.ran,participant,session,date,expName,psychopyVersion,OS,frameRate,study_id,mouse_7.clicked_name,catchpracsimilarity,catch_response_time,catchnumberprac,catchtrialorderprac,mouse_6.clicked_name,key_resp_22.keys,key_resp_22.rt,realcomparison,mouse.x,mouse.y,mouse.leftButton,mouse.midButton,mouse.rightButton,mouse.clicked_name,Colour2,similarity,mouse_2.x,mouse_2.y,mouse_2.leftButton,mouse_2.midButton,mouse_2.rightButton,mouse_2.clicked_name,mouse_3.x,mouse_3.y,mouse_3.leftButton,mouse_3.midButton,mouse_3.rightButton,mouse_11.x,mouse_11.y,mouse_11.leftButton,mouse_11.midButton,mouse_11.rightButton,trials_2.thisRepN,trials_2.thisTrialN,trials_2.thisN,trials_2.thisIndex,trials_2.ran,Colour1,mouse_3.clicked_name,catchornah,catchsimilarity,catchnumber,catchtrialorder,catchRT,mouse_11.clicked_name
space,1.3071,space,3.529,space,16.8731,space,5.5664,space,1.2911,space,5.735,72,FF,36.8203125,87.58984375,1,0,0,response1disk_5,7,4.7511,6.34765625,1.06640625,1,0,0,rectangle_8,6.34765625,1.06640625,1,0,0,6.34765625,1.06640625,1,0,0,0,0,0,3,1,60fd73381530a432898654d5,61036ad4970c3c4689702f9a,2021-07-29_21h59.02.339,Simcolourproject_2stim_asymm_v5,2020.2.10,MacIntel,60,61025ae37ef11b136ea224fe,,,,,,,,,,,,,,,,,,,,,,,,,,,,,,,,,,,,,,,,,,,,,,
,,,,,,,,,,,,133,FF,25.61328125,64.05859375,1,0,0,response1disk_5,7,2.0503,-8.7734375,-6.92578125,1,0,0,rectangle_8,-36.7421875,83.46484375,1,0,0,-1.62109375,-6.6328125,1,0,0,0,1,1,5,1,60fd73381530a432898654d5,61036ad4970c3c4689702f9a,2021-07-29_21h59.02.339,Simcolourproject_2stim_asymm_v5,2020.2.10,MacIntel,60,61025ae37ef11b136ea224fe,response7disk_7,0,2.8838,0,"[2,5]",rectangle_4,,,,,,,,,,,,,,,,,,,,,,,,,,,,,,,,,,,,,,,,
,,,,,,,,,,,,105,PF,40.03125,98.4609375,1,0,0,response1disk_5,7,2.9003,-12.84765625,-8.50390625,1,0,0,rectangle_8,-12.84765625,-8.50390625,1,0,0,-12.84765625,-8.50390625,1,0,0,0,2,2,2,1,60fd73381530a432898654d5,61036ad4970c3c4689702f9a,2021-07-29_21h59.02.339,Simcolourproject_2stim_asymm_v5,2020.2.10,MacIntel,60,61025ae37ef11b136ea224fe,,,,,,,,,,,,,,,,,,,,,,,,,,,,,,,,,,,,,,,,,,,,,,
,,,,,,,,,,,,120,PF,92.703125,23.765625,1,0,0,response1disk_5,6,1.8509,11.8046875,-2.8828125,1,0,0,rectangle_8,11.8046875,-2.8828125,1,0,0,11.8046875,-2.8828125,1,0,0,0,3,3,1,1,60fd73381530a432898654d5,61036ad4970c3c4689702f9a,2021-07-29_21h59.02.339,Simcolourproject_2stim_asymm_v5,2020.2.10,MacIntel,60,61025ae37ef11b136ea224fe,,,,,,,,,,,,,,,,,,,,,,,,,,,,,,,,,,,,,,,,,,,,,,
,,,,,,,,,,,,144,PF,47.5234375,-30.66796875,1,0,0,response3disk_5,5,1.7162,3.03125,-5.40234375,1,0,0,rectangle_8,-26.28125,109.4140625,1,0,0,-12.8125,-1.796875,1,0,0,0,4,4,6,1,60fd73381530a432898654d5,61036ad4970c3c4689702f9a,2021-07-29_21h59.02.339,Simcolourproject_2stim_asymm_v5,2020.2.10,MacIntel,60,61025ae37ef11b136ea224fe,response7disk_7,0,2,0,"[2,5]",rectangle_4,,,,,,,,,,,,,,,,,,,,,,,,,,,,,,,,,,,,,,,,
,,,,,,,,,,,,88,PF,24.91015625,-65.03515625,1,0,0,response3disk_5,4,2.4174,3.34375,4.7890625,1,0,0,rectangle_8,3.34375,4.7890625,1,0,0,3.34375,4.7890625,1,0,0,0,5,5,4,1,60fd73381530a432898654d5,61036ad4970c3c4689702f9a,2021-07-29_21h59.02.339,Simcolourproject_2stim_asymm_v5,2020.2.10,MacIntel,60,61025ae37ef11b136ea224fe,,,,,,,,,,,,,,,,,,,,,,,,,,,,,,,,,,,,,,,,,,,,,,
,,,,,,,,,,,,52,FF,-39.04296875,-60.9453125,1,0,0,response5disk_5,3,1.9346,-1.90625,8.49609375,1,0,0,rectangle_8,-1.90625,8.49609375,1,0,0,-1.90625,8.49609375,1,0,0,0,6,6,0,1,60fd73381530a432898654d5,61036ad4970c3c4689702f9a,2021-07-29_21h59.02.339,Simcolourproject_2stim_asymm_v5,2020.2.10,MacIntel,60,61025ae37ef11b136ea224fe,,,,,,,,,,,,,,,,,,,,,,,,,,,,,,,,,,,,,,,,,,,,,,
,,,,,,,,,,,,,FF,,,,,,,,1.8009,,,,,,,,,,,,,,,,,,,,,,60fd73381530a432898654d5,61036ad4970c3c4689702f9a,2021-07-29_21h59.02.339,Simcolourproject_2stim_asymm_v5,2020.2.10,MacIntel,60,61025ae37ef11b136ea224fe,,,,,,,space,3.0589,1584,51.27734375,-29.10546875,1,0,0,response3disk,,5,9.6875,-4.73828125,1,0,0,rectangle,9.6875,-4.73828125,1,0,0,9.6875,-4.73828125,1,0,0,0,0,0,96,1,,,,,,,,
,,,,,,,,,,,,,FF,,,,,,,,3.951,,,,,,,,,,,,,,,,,,,,,,60fd73381530a432898654d5,61036ad4970c3c4689702f9a,2021-07-29_21h59.02.339,Simcolourproject_2stim_asymm_v5,2020.2.10,MacIntel,60,61025ae37ef11b136ea224fe,,,,,,,,,1688,-83.05078125,-35.9140625,1,0,0,response5disk,,2,6.67578125,-0.67578125,1,0,0,rectangle,6.67578125,-0.67578125,1,0,0,6.67578125,-0.67578125,1,0,0,0,1,1,9,1,,,,,,,,
,,,,,,,,,,,,,FF,,,,,,,,1.8169,,,,,,,,,,,,,,,,,,,,,,60fd73381530a432898654d5,61036ad4970c3c4689702f9a,2021-07-29_21h59.02.339,Simcolourproject_2stim_asymm_v5,2020.2.10,MacIntel,60,61025ae37ef11b136ea224fe,,,,,,,,,4042,84.41796875,50.20703125,1,0,0,response1disk,,6,3.5859375,-0.953125,1,0,0,rectangle,3.5859375,-0.953125,1,0,0,3.5859375,-0.953125,1,0,0,0,2,2,20,1,,,,,,,,
,,,,,,,,,,,,,FF,,,,,,,,3.0994,,,,,,,,,,,,,,,,,,,,,,60fd73381530a432898654d5,61036ad4970c3c4689702f9a,2021-07-29_21h59.02.339,Simcolourproject_2stim_asymm_v5,2020.2.10,MacIntel,60,61025ae37ef11b136ea224fe,,,,,,,,,3503,-44.31640625,-88.48828125,1,0,0,response5disk,,3,-1.0078125,9.72265625,1,0,0,rectangle,-28.5703125,70.59765625,1,0,0,-19.0703125,-4.0703125,1,0,0,0,3,3,16,1,,response7disk_3,TRUE,0,0,"[48,213,252,50,64,206,4,97,86,216,84,169,294,214,6,165,299,196,159,241]",1.434,rectangle
,,,,,,,,,,,,,FF,,,,,,,,1.1152,,,,,,,,,,,,,,,,,,,,,,60fd73381530a432898654d5,61036ad4970c3c4689702f9a,2021-07-29_21h59.02.339,Simcolourproject_2stim_asymm_v5,2020.2.10,MacIntel,60,61025ae37ef11b136ea224fe,,,,,,,,,1508,37.703125,89.546875,1,0,0,response1disk,,7,-3.921875,1.44140625,1,0,0,rectangle,-3.921875,1.44140625,1,0,0,-3.921875,1.44140625,1,0,0,0,4,4,4,1,,,,,,,,
,,,,,,,,,,,,,FF,,,,,,,,1.6674,,,,,,,,,,,,,,,,,,,,,,60fd73381530a432898654d5,61036ad4970c3c4689702f9a,2021-07-29_21h59.02.339,Simcolourproject_2stim_asymm_v5,2020.2.10,MacIntel,60,61025ae37ef11b136ea224fe,,,,,,,,,1711,56.07421875,-33.98046875,1,0,0,response3disk,,5,-0.890625,3.6796875,1,0,0,rectangle,49.20703125,-96.421875,1,0,0,-12.84375,-0.5703125,1,0,0,0,5,5,112,1,,response3disk_3,TRUE,4,4,"[48,213,252,50,64,206,4,97,86,216,84,169,294,214,6,165,299,196,159,241]",2.683,rectangle
,,,,,,,,,,,,,FF,,,,,,,,2.9624,,,,,,,,,,,,,,,,,,,,,,60fd73381530a432898654d5,61036ad4970c3c4689702f9a,2021-07-29_21h59.02.339,Simcolourproject_2stim_asymm_v5,2020.2.10,MacIntel,60,61025ae37ef11b136ea224fe,,,,,,,,,4245,78.875,-39.65625,1,0,0,response3disk,,5,7.99609375,15.4296875,1,0,0,rectangle,7.99609375,15.4296875,1,0,0,7.99609375,15.4296875,1,0,0,0,6,6,60,1,,,,,,,,
,,,,,,,,,,,,,FF,,,,,,,,1.6004,,,,,,,,,,,,,,,,,,,,,,60fd73381530a432898654d5,61036ad4970c3c4689702f9a,2021-07-29_21h59.02.339,Simcolourproject_2stim_asymm_v5,2020.2.10,MacIntel,60,61025ae37ef11b136ea224fe,,,,,,,,,344,36.36328125,-64.7734375,1,0,0,response3disk,,4,10.2109375,2.25390625,1,0,0,rectangle,10.2109375,2.25390625,1,0,0,10.2109375,2.25390625,1,0,0,0,7,7,87,1,,,,,,,,
,,,,,,,,,,,,,FF,,,,,,,,1.4829,,,,,,,,,,,,,,,,,,,,,,60fd73381530a432898654d5,61036ad4970c3c4689702f9a,2021-07-29_21h59.02.339,Simcolourproject_2stim_asymm_v5,2020.2.10,MacIntel,60,61025ae37ef11b136ea224fe,,,,,,,,,372,-36.5390625,-61.0546875,1,0,0,response5disk,,3,-8.37890625,-0.86328125,1,0,0,rectangle,-8.37890625,-0.86328125,1,0,0,-8.37890625,-0.86328125,1,0,0,0,8,8,155,1,,,,,,,,
,,,,,,,,,,,,,FF,,,,,,,,0.9166,,,,,,,,,,,,,,,,,,,,,,60fd73381530a432898654d5,61036ad4970c3c4689702f9a,2021-07-29_21h59.02.339,Simcolourproject_2stim_asymm_v5,2020.2.10,MacIntel,60,61025ae37ef11b136ea224fe,,,,,,,,,3964,45.18359375,92.38671875,1,0,0,response1disk,,7,-3.4765625,-10.22265625,1,0,0,rectangle,-3.4765625,-10.22265625,1,0,0,-3.4765625,-10.22265625,1,0,0,0,9,9,152,1,,,,,,,,
,,,,,,,,,,,,,FF,,,,,,,,1.4167,,,,,,,,,,,,,,,,,,,,,,60fd73381530a432898654d5,61036ad4970c3c4689702f9a,2021-07-29_21h59.02.339,Simcolourproject_2stim_asymm_v5,2020.2.10,MacIntel,60,61025ae37ef11b136ea224fe,,,,,,,,,924,40.69921875,69.34765625,1,0,0,response1disk,,7,15.01171875,3.1328125,1,0,0,rectangle,15.01171875,3.1328125,1,0,0,15.01171875,3.1328125,1,0,0,0,10,10,109,1,,,,,,,,
,,,,,,,,,,,,,FF,,,,,,,,1.5994,,,,,,,,,,,,,,,,,,,,,,60fd73381530a432898654d5,61036ad4970c3c4689702f9a,2021-07-29_21h59.02.339,Simcolourproject_2stim_asymm_v5,2020.2.10,MacIntel,60,61025ae37ef11b136ea224fe,,,,,,,,,3066,78.875,-31.05078125,1,0,0,response3disk,,5,17.71875,-9.83203125,1,0,0,rectangle,17.71875,-9.83203125,1,0,0,17.71875,-9.83203125,1,0,0,0,11,11,124,1,,,,,,,,
,,,,,,,,,,,,,FF,,,,,,,,1.5344,,,,,,,,,,,,,,,,,,,,,,60fd73381530a432898654d5,61036ad4970c3c4689702f9a,2021-07-29_21h59.02.339,Simcolourproject_2stim_asymm_v5,2020.2.10,MacIntel,60,61025ae37ef11b136ea224fe,,,,,,,,,700,-88.6015625,-22.953125,1,0,0,response5disk,,2,-14.6328125,3.91796875,1,0,0,rectangle,-14.6328125,3.91796875,1,0,0,-14.6328125,3.91796875,1,0,0,0,12,12,154,1,,,,,,,,
,,,,,,,,,,,,,FF,,,,,,,,0.9506,,,,,,,,,,,,,,,,,,,,,,60fd73381530a432898654d5,61036ad4970c3c4689702f9a,2021-07-29_21h59.02.339,Simcolourproject_2stim_asymm_v5,2020.2.10,MacIntel,60,61025ae37ef11b136ea224fe,,,,,,,,,151,36.05078125,61.26171875,1,0,0,response1disk,,7,6.296875,1.55078125,1,0,0,rectangle,6.296875,1.55078125,1,0,0,6.296875,1.55078125,1,0,0,0,13,13,81,1,,,,,,,,
,,,,,,,,,,,,,FF,,,,,,,,1.0346,,,,,,,,,,,,,,,,,,,,,,60fd73381530a432898654d5,61036ad4970c3c4689702f9a,2021-07-29_21h59.02.339,Simcolourproject_2stim_asymm_v5,2020.2.10,MacIntel,60,61025ae37ef11b136ea224fe,,,,,,,,,3530,29.1640625,66.66015625,1,0,0,response1disk,,7,10.98828125,6.69921875,1,0,0,rectangle,10.98828125,6.69921875,1,0,0,10.98828125,6.69921875,1,0,0,0,14,14,34,1,,,,,,,,
,,,,,,,,,,,,,FF,,,,,,,,3.0329,,,,,,,,,,,,,,,,,,,,,,60fd73381530a432898654d5,61036ad4970c3c4689702f9a,2021-07-29_21h59.02.339,Simcolourproject_2stim_asymm_v5,2020.2.10,MacIntel,60,61025ae37ef11b136ea224fe,,,,,,,,,3603,82.76953125,52.0859375,1,0,0,response1disk,,6,6.578125,5.8046875,1,0,0,rectangle,6.578125,5.8046875,1,0,0,6.578125,5.8046875,1,0,0,0,15,15,73,1,,,,,,,,
,,,,,,,,,,,,,FF,,,,,,,,1.834,,,,,,,,,,,,,,,,,,,,,,60fd73381530a432898654d5,61036ad4970c3c4689702f9a,2021-07-29_21h59.02.339,Simcolourproject_2stim_asymm_v5,2020.2.10,MacIntel,60,61025ae37ef11b136ea224fe,,,,,,,,,61,78.3671875,-41.5703125,1,0,0,response3disk,,5,10.33203125,-6.96484375,1,0,0,rectangle,10.33203125,-6.96484375,1,0,0,10.33203125,-6.96484375,1,0,0,0,16,16,52,1,,,,,,,,
,,,,,,,,,,,,,FF,,,,,,,,1.1165,,,,,,,,,,,,,,,,,,,,,,60fd73381530a432898654d5,61036ad4970c3c4689702f9a,2021-07-29_21h59.02.339,Simcolourproject_2stim_asymm_v5,2020.2.10,MacIntel,60,61025ae37ef11b136ea224fe,,,,,,,,,2296,-81.9296875,-28.61328125,1,0,0,response5disk,,2,1.3671875,-7.1640625,1,0,0,rectangle,1.3671875,-7.1640625,1,0,0,1.3671875,-7.1640625,1,0,0,0,17,17,91,1,,,,,,,,
,,,,,,,,,,,,,FF,,,,,,,,1.217,,,,,,,,,,,,,,,,,,,,,,60fd73381530a432898654d5,61036ad4970c3c4689702f9a,2021-07-29_21h59.02.339,Simcolourproject_2stim_asymm_v5,2020.2.10,MacIntel,60,61025ae37ef11b136ea224fe,,,,,,,,,4194,33.05859375,-70.24609375,1,0,0,response3disk,,4,19.88671875,-7.04296875,1,0,0,rectangle,19.88671875,-7.04296875,1,0,0,19.88671875,-7.04296875,1,0,0,0,18,18,114,1,,,,,,,,
,,,,,,,,,,,,,FF,,,,,,,,1.2334,,,,,,,,,,,,,,,,,,,,,,60fd73381530a432898654d5,61036ad4970c3c4689702f9a,2021-07-29_21h59.02.339,Simcolourproject_2stim_asymm_v5,2020.2.10,MacIntel,60,61025ae37ef11b136ea224fe,,,,,,,,,2644,48.6328125,74.99609375,1,0,0,response1disk,,7,-8.0234375,0.125,1,0,0,rectangle,-8.0234375,0.125,1,0,0,-8.0234375,0.125,1,0,0,0,19,19,22,1,,,,,,,,
,,,,,,,,,,,,,FF,,,,,,,,1.4166,,,,,,,,,,,,,,,,,,,,,,60fd73381530a432898654d5,61036ad4970c3c4689702f9a,2021-07-29_21h59.02.339,Simcolourproject_2stim_asymm_v5,2020.2.10,MacIntel,60,61025ae37ef11b136ea224fe,,,,,,,,,3720,72.0625,39.0625,1,0,0,response1disk,,6,13.85546875,13.671875,1,0,0,rectangle,13.85546875,13.671875,1,0,0,13.85546875,13.671875,1,0,0,0,20,20,141,1,,,,,,,,
,,,,,,,,,,,,,FF,,,,,,,,1.2504,,,,,,,,,,,,,,,,,,,,,,60fd73381530a432898654d5,61036ad4970c3c4689702f9a,2021-07-29_21h59.02.339,Simcolourproject_2stim_asymm_v5,2020.2.10,MacIntel,60,61025ae37ef11b136ea224fe,,,,,,,,,1567,67.37890625,33.73828125,1,0,0,response1disk,,6,1.8125,2.75,1,0,0,rectangle,1.8125,2.75,1,0,0,1.8125,2.75,1,0,0,0,21,21,19,1,,,,,,,,
,,,,,,,,,,,,,FF,,,,,,,,4.9846,,,,,,,,,,,,,,,,,,,,,,60fd73381530a432898654d5,61036ad4970c3c4689702f9a,2021-07-29_21h59.02.339,Simcolourproject_2stim_asymm_v5,2020.2.10,MacIntel,60,61025ae37ef11b136ea224fe,,,,,,,,,4008,67.54296875,42.953125,1,0,0,response1disk,,6,-11.125,4.2109375,1,0,0,rectangle,-11.125,4.2109375,1,0,0,-11.125,4.2109375,1,0,0,0,22,22,57,1,,,,,,,,
,,,,,,,,,,,,,FF,,,,,,,,1.9835,,,,,,,,,,,,,,,,,,,,,,60fd73381530a432898654d5,61036ad4970c3c4689702f9a,2021-07-29_21h59.02.339,Simcolourproject_2stim_asymm_v5,2020.2.10,MacIntel,60,61025ae37ef11b136ea224fe,,,,,,,,,237,48.3671875,76.53515625,1,0,0,response1disk,,7,-1.0625,2.86328125,1,0,0,rectangle,-1.0625,2.86328125,1,0,0,-1.0625,2.86328125,1,0,0,0,23,23,71,1,,,,,,,,
,,,,,,,,,,,,,FF,,,,,,,,1.1168,,,,,,,,,,,,,,,,,,,,,,60fd73381530a432898654d5,61036ad4970c3c4689702f9a,2021-07-29_21h59.02.339,Simcolourproject_2stim_asymm_v5,2020.2.10,MacIntel,60,61025ae37ef11b136ea224fe,,,,,,,,,2736,59.9921875,-34.59765625,1,0,0,response3disk,,5,3.2890625,-1.37109375,1,0,0,rectangle,3.2890625,-1.37109375,1,0,0,3.2890625,-1.37109375,1,0,0,0,24,24,135,1,,,,,,,,
,,,,,,,,,,,,,FF,,,,,,,,1.1846,,,,,,,,,,,,,,,,,,,,,,60fd73381530a432898654d5,61036ad4970c3c4689702f9a,2021-07-29_21h59.02.339,Simcolourproject_2stim_asymm_v5,2020.2.10,MacIntel,60,61025ae37ef11b136ea224fe,,,,,,,,,2392,91.85546875,36.07421875,1,0,0,response1disk,,6,-0.296875,1.8125,1,0,0,rectangle,-0.296875,1.8125,1,0,0,-0.296875,1.8125,1,0,0,0,25,25,26,1,,,,,,,,
,,,,,,,,,,,,,FF,,,,,,,,1.0165,,,,,,,,,,,,,,,,,,,,,,60fd73381530a432898654d5,61036ad4970c3c4689702f9a,2021-07-29_21h59.02.339,Simcolourproject_2stim_asymm_v5,2020.2.10,MacIntel,60,61025ae37ef11b136ea224fe,,,,,,,,,183,38.90625,93.96875,1,0,0,response1disk,,7,2.01953125,11.30078125,1,0,0,rectangle,2.01953125,11.30078125,1,0,0,2.01953125,11.30078125,1,0,0,0,26,26,2,1,,,,,,,,
,,,,,,,,,,,,,FF,,,,,,,,3.5161,,,,,,,,,,,,,,,,,,,,,,60fd73381530a432898654d5,61036ad4970c3c4689702f9a,2021-07-29_21h59.02.339,Simcolourproject_2stim_asymm_v5,2020.2.10,MacIntel,60,61025ae37ef11b136ea224fe,,,,,,,,,3828,113.140625,41.890625,1,0,0,response1disk,,6,3.1171875,1.78125,1,0,0,rectangle,3.1171875,1.78125,1,0,0,3.1171875,1.78125,1,0,0,0,27,27,15,1,,,,,,,,
,,,,,,,,,,,,,FF,,,,,,,,1.5666,,,,,,,,,,,,,,,,,,,,,,60fd73381530a432898654d5,61036ad4970c3c4689702f9a,2021-07-29_21h59.02.339,Simcolourproject_2stim_asymm_v5,2020.2.10,MacIntel,60,61025ae37ef11b136ea224fe,,,,,,,,,4098,23.2890625,-60.859375,1,0,0,response3disk,,4,-2.51953125,2.2734375,1,0,0,rectangle,-2.51953125,2.2734375,1,0,0,-2.51953125,2.2734375,1,0,0,0,28,28,116,1,,,,,,,,
,,,,,,,,,,,,,FF,,,,,,,,0.9167,,,,,,,,,,,,,,,,,,,,,,60fd73381530a432898654d5,61036ad4970c3c4689702f9a,2021-07-29_21h59.02.339,Simcolourproject_2stim_asymm_v5,2020.2.10,MacIntel,60,61025ae37ef11b136ea224fe,,,,,,,,,4240,-54.28125,-81.1875,1,0,0,response5disk,,3,-8.0625,7.8359375,1,0,0,rectangle,-8.0625,7.8359375,1,0,0,-8.0625,7.8359375,1,0,0,0,29,29,40,1,,,,,,,,
,,,,,,,,,,,,,FF,,,,,,,,1.1338,,,,,,,,,,,,,,,,,,,,,,60fd73381530a432898654d5,61036ad4970c3c4689702f9a,2021-07-29_21h59.02.339,Simcolourproject_2stim_asymm_v5,2020.2.10,MacIntel,60,61025ae37ef11b136ea224fe,,,,,,,,,3890,80.05078125,42.84375,1,0,0,response1disk,,6,-3.41796875,0.484375,1,0,0,rectangle,-3.41796875,0.484375,1,0,0,-3.41796875,0.484375,1,0,0,0,30,30,83,1,,,,,,,,
,,,,,,,,,,,,,FF,,,,,,,,2.1335,,,,,,,,,,,,,,,,,,,,,,60fd73381530a432898654d5,61036ad4970c3c4689702f9a,2021-07-29_21h59.02.339,Simcolourproject_2stim_asymm_v5,2020.2.10,MacIntel,60,61025ae37ef11b136ea224fe,,,,,,,,,2347,70.75390625,-37.1015625,1,0,0,response3disk,,5,7.19921875,4.18359375,1,0,0,rectangle,7.19921875,4.18359375,1,0,0,7.19921875,4.18359375,1,0,0,0,31,31,23,1,,,,,,,,
,,,,,,,,,,,,,FF,,,,,,,,1.0999,,,,,,,,,,,,,,,,,,,,,,60fd73381530a432898654d5,61036ad4970c3c4689702f9a,2021-07-29_21h59.02.339,Simcolourproject_2stim_asymm_v5,2020.2.10,MacIntel,60,61025ae37ef11b136ea224fe,,,,,,,,,2162,33.453125,-57.71875,1,0,0,response3disk,,4,6.56640625,-3.87109375,1,0,0,rectangle,6.56640625,-3.87109375,1,0,0,6.56640625,-3.87109375,1,0,0,0,32,32,21,1,,,,,,,,
,,,,,,,,,,,,,FF,,,,,,,,0.9503,,,,,,,,,,,,,,,,,,,,,,60fd73381530a432898654d5,61036ad4970c3c4689702f9a,2021-07-29_21h59.02.339,Simcolourproject_2stim_asymm_v5,2020.2.10,MacIntel,60,61025ae37ef11b136ea224fe,,,,,,,,,3060,69,37.5390625,1,0,0,response1disk,,6,-1.13671875,12.7578125,1,0,0,rectangle,-1.13671875,12.7578125,1,0,0,-1.13671875,12.7578125,1,0,0,0,33,33,104,1,,,,,,,,
,,,,,,,,,,,,,FF,,,,,,,,1.117,,,,,,,,,,,,,,,,,,,,,,60fd73381530a432898654d5,61036ad4970c3c4689702f9a,2021-07-29_21h59.02.339,Simcolourproject_2stim_asymm_v5,2020.2.10,MacIntel,60,61025ae37ef11b136ea224fe,,,,,,,,,1740,70.16796875,35.4765625,1,0,0,response1disk,,6,6.6953125,5.1328125,1,0,0,rectangle,6.6953125,5.1328125,1,0,0,6.6953125,5.1328125,1,0,0,0,34,34,150,1,,,,,,,,
,,,,,,,,,,,,,FF,,,,,,,,1.1168,,,,,,,,,,,,,,,,,,,,,,60fd73381530a432898654d5,61036ad4970c3c4689702f9a,2021-07-29_21h59.02.339,Simcolourproject_2stim_asymm_v5,2020.2.10,MacIntel,60,61025ae37ef11b136ea224fe,,,,,,,,,572,34.11328125,58.07421875,1,0,0,response1disk,,7,8.26171875,-0.2734375,1,0,0,rectangle,8.26171875,-0.2734375,1,0,0,8.26171875,-0.2734375,1,0,0,0,35,35,102,1,,,,,,,,
,,,,,,,,,,,,,FF,,,,,,,,1.4171,,,,,,,,,,,,,,,,,,,,,,60fd73381530a432898654d5,61036ad4970c3c4689702f9a,2021-07-29_21h59.02.339,Simcolourproject_2stim_asymm_v5,2020.2.10,MacIntel,60,61025ae37ef11b136ea224fe,,,,,,,,,3745,38.6328125,-77.47265625,1,0,0,response3disk,,4,-9.97265625,3.296875,1,0,0,rectangle,-9.97265625,3.296875,1,0,0,-9.97265625,3.296875,1,0,0,0,36,36,74,1,,,,,,,,
,,,,,,,,,,,,,FF,,,,,,,,1.4501,,,,,,,,,,,,,,,,,,,,,,60fd73381530a432898654d5,61036ad4970c3c4689702f9a,2021-07-29_21h59.02.339,Simcolourproject_2stim_asymm_v5,2020.2.10,MacIntel,60,61025ae37ef11b136ea224fe,,,,,,,,,546,-66.609375,-34.21875,1,0,0,response5disk,,2,-6.0625,-12.53125,1,0,0,rectangle,-6.0625,-12.53125,1,0,0,-6.0625,-12.53125,1,0,0,0,37,37,90,1,,,,,,,,
,,,,,,,,,,,,,FF,,,,,,,,0.9331,,,,,,,,,,,,,,,,,,,,,,60fd73381530a432898654d5,61036ad4970c3c4689702f9a,2021-07-29_21h59.02.339,Simcolourproject_2stim_asymm_v5,2020.2.10,MacIntel,60,61025ae37ef11b136ea224fe,,,,,,,,,3811,-36.52734375,67.21484375,1,0,0,response7disk,,0,-0.71484375,-4.83984375,1,0,0,rectangle,-0.71484375,-4.83984375,1,0,0,-0.71484375,-4.83984375,1,0,0,0,38,38,101,1,,,,,,,,
,,,,,,,,,,,,,FF,,,,,,,,0.9671,,,,,,,,,,,,,,,,,,,,,,60fd73381530a432898654d5,61036ad4970c3c4689702f9a,2021-07-29_21h59.02.339,Simcolourproject_2stim_asymm_v5,2020.2.10,MacIntel,60,61025ae37ef11b136ea224fe,,,,,,,,,2186,-71.4765625,-37.46484375,1,0,0,response5disk,,2,0.4921875,5.42578125,1,0,0,rectangle,0.4921875,5.42578125,1,0,0,0.4921875,5.42578125,1,0,0,0,39,39,10,1,,,,,,,,
,,,,,,,,,,,,,FF,,,,,,,,0.8835,,,,,,,,,,,,,,,,,,,,,,60fd73381530a432898654d5,61036ad4970c3c4689702f9a,2021-07-29_21h59.02.339,Simcolourproject_2stim_asymm_v5,2020.2.10,MacIntel,60,61025ae37ef11b136ea224fe,,,,,,,,,279,-84.44921875,-52.703125,1,0,0,response5disk,,2,-19.0703125,-0.09765625,1,0,0,rectangle,-19.0703125,-0.09765625,1,0,0,-19.0703125,-0.09765625,1,0,0,0,40,40,69,1,,,,,,,,
,,,,,,,,,,,,,FF,,,,,,,,1.133,,,,,,,,,,,,,,,,,,,,,,60fd73381530a432898654d5,61036ad4970c3c4689702f9a,2021-07-29_21h59.02.339,Simcolourproject_2stim_asymm_v5,2020.2.10,MacIntel,60,61025ae37ef11b136ea224fe,,,,,,,,,3115,-45.94921875,-62.38671875,1,0,0,response5disk,,3,-3.1875,-1.70703125,1,0,0,rectangle,-3.1875,-1.70703125,1,0,0,-3.1875,-1.70703125,1,0,0,0,41,41,127,1,,,,,,,,
,,,,,,,,,,,,,FF,,,,,,,,1.0012,,,,,,,,,,,,,,,,,,,,,,60fd73381530a432898654d5,61036ad4970c3c4689702f9a,2021-07-29_21h59.02.339,Simcolourproject_2stim_asymm_v5,2020.2.10,MacIntel,60,61025ae37ef11b136ea224fe,,,,,,,,,4202,-98.08203125,-38.9296875,1,0,0,response5disk,,2,-9.82421875,-6.31640625,1,0,0,rectangle,-9.82421875,-6.31640625,1,0,0,-9.82421875,-6.31640625,1,0,0,0,42,42,110,1,,,,,,,,
,,,,,,,,,,,,,FF,,,,,,,,1.3337,,,,,,,,,,,,,,,,,,,,,,60fd73381530a432898654d5,61036ad4970c3c4689702f9a,2021-07-29_21h59.02.339,Simcolourproject_2stim_asymm_v5,2020.2.10,MacIntel,60,61025ae37ef11b136ea224fe,,,,,,,,,2654,29.62109375,-61.75390625,1,0,0,response3disk,,4,9.24609375,-9.3359375,1,0,0,rectangle,9.24609375,-9.3359375,1,0,0,9.24609375,-9.3359375,1,0,0,0,43,43,17,1,,,,,,,,
,,,,,,,,,,,,,FF,,,,,,,,0.9345,,,,,,,,,,,,,,,,,,,,,,60fd73381530a432898654d5,61036ad4970c3c4689702f9a,2021-07-29_21h59.02.339,Simcolourproject_2stim_asymm_v5,2020.2.10,MacIntel,60,61025ae37ef11b136ea224fe,,,,,,,,,3211,-39.25,-66.96875,1,0,0,response5disk,,3,-16.2890625,7.4921875,1,0,0,rectangle,-16.2890625,7.4921875,1,0,0,-16.2890625,7.4921875,1,0,0,0,44,44,62,1,,,,,,,,
,,,,,,,,,,,,,FF,,,,,,,,0.9987,,,,,,,,,,,,,,,,,,,,,,60fd73381530a432898654d5,61036ad4970c3c4689702f9a,2021-07-29_21h59.02.339,Simcolourproject_2stim_asymm_v5,2020.2.10,MacIntel,60,61025ae37ef11b136ea224fe,,,,,,,,,1983,21.62890625,-60.34765625,1,0,0,response3disk,,4,-0.2734375,-8.79296875,1,0,0,rectangle,-0.2734375,-8.79296875,1,0,0,-0.2734375,-8.79296875,1,0,0,0,45,45,27,1,,,,,,,,
,,,,,,,,,,,,,FF,,,,,,,,1.6517,,,,,,,,,,,,,,,,,,,,,,60fd73381530a432898654d5,61036ad4970c3c4689702f9a,2021-07-29_21h59.02.339,Simcolourproject_2stim_asymm_v5,2020.2.10,MacIntel,60,61025ae37ef11b136ea224fe,,,,,,,,,2853,38.7421875,-68.44921875,1,0,0,response3disk,,4,13.2890625,-7.64453125,1,0,0,rectangle,13.2890625,-7.64453125,1,0,0,13.2890625,-7.64453125,1,0,0,0,46,46,103,1,,,,,,,,
,,,,,,,,,,,,,FF,,,,,,,,1.7339,,,,,,,,,,,,,,,,,,,,,,60fd73381530a432898654d5,61036ad4970c3c4689702f9a,2021-07-29_21h59.02.339,Simcolourproject_2stim_asymm_v5,2020.2.10,MacIntel,60,61025ae37ef11b136ea224fe,,,,,,,,,2584,36.9765625,-70.8671875,1,0,0,response3disk,,4,11.6796875,5.56640625,1,0,0,rectangle,-99.13671875,42.8359375,1,0,0,-8.5703125,0.578125,1,0,0,0,47,47,122,1,,response7disk_3,TRUE,1,1,"[48,213,252,50,64,206,4,97,86,216,84,169,294,214,6,165,299,196,159,241]",1.784,rectangle
,,,,,,,,,,,,,FF,,,,,,,,4.433,,,,,,,,,,,,,,,,,,,,,,60fd73381530a432898654d5,61036ad4970c3c4689702f9a,2021-07-29_21h59.02.339,Simcolourproject_2stim_asymm_v5,2020.2.10,MacIntel,60,61025ae37ef11b136ea224fe,,,,,,,,,177,60.10546875,62.16015625,1,0,0,response1disk,,7,-2.31640625,-0.0859375,1,0,0,rectangle,-2.31640625,-0.0859375,1,0,0,-2.31640625,-0.0859375,1,0,0,0,48,48,30,1,,,,,,,,
,,,,,,,,,,,,,FF,,,,,,,,1.017,,,,,,,,,,,,,,,,,,,,,,60fd73381530a432898654d5,61036ad4970c3c4689702f9a,2021-07-29_21h59.02.339,Simcolourproject_2stim_asymm_v5,2020.2.10,MacIntel,60,61025ae37ef11b136ea224fe,,,,,,,,,4107,-97.0703125,-31.3515625,1,0,0,response5disk,,2,-4.828125,-11.7734375,1,0,0,rectangle,-44.01171875,99.4140625,1,0,0,-21.13671875,5.109375,1,0,0,0,49,49,3,1,,response7disk_3,TRUE,0,0,"[48,213,252,50,64,206,4,97,86,216,84,169,294,214,6,165,299,196,159,241]",1.4494,rectangle
,,,,,,,,,,,,,FF,,,,,,,,1.3668,,,,,,,,,,,,,,,,,,,,,,60fd73381530a432898654d5,61036ad4970c3c4689702f9a,2021-07-29_21h59.02.339,Simcolourproject_2stim_asymm_v5,2020.2.10,MacIntel,60,61025ae37ef11b136ea224fe,,,,,,,,,292,-70.57421875,-44.2421875,1,0,0,response5disk,,2,-1.3828125,2.02734375,1,0,0,rectangle,-1.3828125,2.02734375,1,0,0,-1.3828125,2.02734375,1,0,0,0,50,50,32,1,,,,,,,,
,,,,,,,,,,,,,FF,,,,,,,,2.9997,,,,,,,,,,,,,,,,,,,,,,60fd73381530a432898654d5,61036ad4970c3c4689702f9a,2021-07-29_21h59.02.339,Simcolourproject_2stim_asymm_v5,2020.2.10,MacIntel,60,61025ae37ef11b136ea224fe,,,,,,,,,141,37.5078125,-54.4375,1,0,0,response3disk,,4,-1.2578125,16.93359375,1,0,0,rectangle,-1.2578125,16.93359375,1,0,0,-1.2578125,16.93359375,1,0,0,0,51,51,105,1,,,,,,,,
,,,,,,,,,,,,,FF,,,,,,,,0.8342,,,,,,,,,,,,,,,,,,,,,,60fd73381530a432898654d5,61036ad4970c3c4689702f9a,2021-07-29_21h59.02.339,Simcolourproject_2stim_asymm_v5,2020.2.10,MacIntel,60,61025ae37ef11b136ea224fe,,,,,,,,,189,-104.421875,-46.3515625,1,0,0,response5disk,,2,-18.15234375,-4.5390625,1,0,0,rectangle,-18.15234375,-4.5390625,1,0,0,-18.15234375,-4.5390625,1,0,0,0,52,52,80,1,,,,,,,,
,,,,,,,,,,,,,FF,,,,,,,,0.8013,,,,,,,,,,,,,,,,,,,,,,60fd73381530a432898654d5,61036ad4970c3c4689702f9a,2021-07-29_21h59.02.339,Simcolourproject_2stim_asymm_v5,2020.2.10,MacIntel,60,61025ae37ef11b136ea224fe,,,,,,,,,4189,-43.0546875,-74.4453125,1,0,0,response5disk,,3,-1.0859375,-2.15625,1,0,0,rectangle,-1.0859375,-2.15625,1,0,0,-1.0859375,-2.15625,1,0,0,0,53,53,6,1,,,,,,,,
,,,,,,,,,,,,,FF,,,,,,,,1.2009,,,,,,,,,,,,,,,,,,,,,,60fd73381530a432898654d5,61036ad4970c3c4689702f9a,2021-07-29_21h59.02.339,Simcolourproject_2stim_asymm_v5,2020.2.10,MacIntel,60,61025ae37ef11b136ea224fe,,,,,,,,,2504,29.30078125,86.07421875,1,0,0,response1disk,,7,-10.08203125,10.40234375,1,0,0,rectangle,-10.08203125,10.40234375,1,0,0,-10.08203125,10.40234375,1,0,0,0,54,54,47,1,,,,,,,,
,,,,,,,,,,,,,FF,,,,,,,,0.8012,,,,,,,,,,,,,,,,,,,,,,60fd73381530a432898654d5,61036ad4970c3c4689702f9a,2021-07-29_21h59.02.339,Simcolourproject_2stim_asymm_v5,2020.2.10,MacIntel,60,61025ae37ef11b136ea224fe,,,,,,,,,122,73.1796875,37.80859375,1,0,0,response1disk,,6,5.24609375,-3.91015625,1,0,0,rectangle,5.24609375,-3.91015625,1,0,0,5.24609375,-3.91015625,1,0,0,0,55,55,95,1,,,,,,,,
,,,,,,,,,,,,,FF,,,,,,,,1.0005,,,,,,,,,,,,,,,,,,,,,,60fd73381530a432898654d5,61036ad4970c3c4689702f9a,2021-07-29_21h59.02.339,Simcolourproject_2stim_asymm_v5,2020.2.10,MacIntel,60,61025ae37ef11b136ea224fe,,,,,,,,,1097,31.5625,97.09375,1,0,0,response1disk,,7,9.89453125,9.4140625,1,0,0,rectangle,9.89453125,9.4140625,1,0,0,9.89453125,9.4140625,1,0,0,0,56,56,55,1,,,,,,,,
,,,,,,,,,,,,,FF,,,,,,,,1.2504,,,,,,,,,,,,,,,,,,,,,,60fd73381530a432898654d5,61036ad4970c3c4689702f9a,2021-07-29_21h59.02.339,Simcolourproject_2stim_asymm_v5,2020.2.10,MacIntel,60,61025ae37ef11b136ea224fe,,,,,,,,,3427,-89.03125,45.76171875,1,0,0,response7disk,,1,-12.8046875,-2.73046875,1,0,0,rectangle,-12.8046875,-2.73046875,1,0,0,-12.8046875,-2.73046875,1,0,0,0,57,57,61,1,,,,,,,,
,,,,,,,,,,,,,FF,,,,,,,,1.0012,,,,,,,,,,,,,,,,,,,,,,60fd73381530a432898654d5,61036ad4970c3c4689702f9a,2021-07-29_21h59.02.339,Simcolourproject_2stim_asymm_v5,2020.2.10,MacIntel,60,61025ae37ef11b136ea224fe,,,,,,,,,314,-74.37109375,-28.796875,1,0,0,response5disk,,2,-10.921875,-3.55078125,1,0,0,rectangle,-10.921875,-3.55078125,1,0,0,-10.921875,-3.55078125,1,0,0,0,58,58,106,1,,,,,,,,
,,,,,,,,,,,,,FF,,,,,,,,1.017,,,,,,,,,,,,,,,,,,,,,,60fd73381530a432898654d5,61036ad4970c3c4689702f9a,2021-07-29_21h59.02.339,Simcolourproject_2stim_asymm_v5,2020.2.10,MacIntel,60,61025ae37ef11b136ea224fe,,,,,,,,,2652,-84.39453125,59.7578125,1,0,0,response7disk,,1,-4.79296875,-6.5625,1,0,0,rectangle,-4.79296875,-6.5625,1,0,0,-4.79296875,-6.5625,1,0,0,0,59,59,67,1,,,,,,,,
,,,,,,,,,,,,,FF,,,,,,,,0.801,,,,,,,,,,,,,,,,,,,,,,60fd73381530a432898654d5,61036ad4970c3c4689702f9a,2021-07-29_21h59.02.339,Simcolourproject_2stim_asymm_v5,2020.2.10,MacIntel,60,61025ae37ef11b136ea224fe,,,,,,,,,1303,-88.56640625,39.3046875,1,0,0,response7disk,,1,11.2421875,-0.234375,1,0,0,rectangle,11.2421875,-0.234375,1,0,0,11.2421875,-0.234375,1,0,0,0,60,60,130,1,,,,,,,,
,,,,,,,,,,,,,FF,,,,,,,,0.9174,,,,,,,,,,,,,,,,,,,,,,60fd73381530a432898654d5,61036ad4970c3c4689702f9a,2021-07-29_21h59.02.339,Simcolourproject_2stim_asymm_v5,2020.2.10,MacIntel,60,61025ae37ef11b136ea224fe,,,,,,,,,2288,-87.8359375,43.765625,1,0,0,response7disk,,1,-12.7421875,4.26953125,1,0,0,rectangle,-12.7421875,4.26953125,1,0,0,-12.7421875,4.26953125,1,0,0,0,61,61,70,1,,,,,,,,
,,,,,,,,,,,,,FF,,,,,,,,0.7499,,,,,,,,,,,,,,,,,,,,,,60fd73381530a432898654d5,61036ad4970c3c4689702f9a,2021-07-29_21h59.02.339,Simcolourproject_2stim_asymm_v5,2020.2.10,MacIntel,60,61025ae37ef11b136ea224fe,,,,,,,,,3711,-70.0546875,-22.71484375,1,0,0,response5disk,,2,-15.66015625,-5.59375,1,0,0,rectangle,-15.66015625,-5.59375,1,0,0,-15.66015625,-5.59375,1,0,0,0,62,62,148,1,,,,,,,,
,,,,,,,,,,,,,FF,,,,,,,,0.768,,,,,,,,,,,,,,,,,,,,,,60fd73381530a432898654d5,61036ad4970c3c4689702f9a,2021-07-29_21h59.02.339,Simcolourproject_2stim_asymm_v5,2020.2.10,MacIntel,60,61025ae37ef11b136ea224fe,,,,,,,,,2234,-44.140625,72.60546875,1,0,0,response7disk,,0,-9.05078125,9.40234375,1,0,0,rectangle,88.234375,-33.37890625,1,0,0,-24.41015625,9.3203125,1,0,0,0,63,63,1,1,,response3disk_3,TRUE,5,5,"[48,213,252,50,64,206,4,97,86,216,84,169,294,214,6,165,299,196,159,241]",1.8001,rectangle
,,,,,,,,,,,,,FF,,,,,,,,1.2498,,,,,,,,,,,,,,,,,,,,,,60fd73381530a432898654d5,61036ad4970c3c4689702f9a,2021-07-29_21h59.02.339,Simcolourproject_2stim_asymm_v5,2020.2.10,MacIntel,60,61025ae37ef11b136ea224fe,,,,,,,,,24,37.50390625,95.02734375,1,0,0,response1disk,,7,18.0859375,1.86328125,1,0,0,rectangle,18.0859375,1.86328125,1,0,0,18.0859375,1.86328125,1,0,0,0,64,64,119,1,,,,,,,,
,,,,,,,,,,,,,FF,,,,,,,,1.385,,,,,,,,,,,,,,,,,,,,,,60fd73381530a432898654d5,61036ad4970c3c4689702f9a,2021-07-29_21h59.02.339,Simcolourproject_2stim_asymm_v5,2020.2.10,MacIntel,60,61025ae37ef11b136ea224fe,,,,,,,,,81,-65.94921875,-29.6796875,1,0,0,response5disk,,2,-3.3125,-8.22265625,1,0,0,rectangle,-3.3125,-8.22265625,1,0,0,-3.3125,-8.22265625,1,0,0,0,65,65,38,1,,,,,,,,
,,,,,,,,,,,,,FF,,,,,,,,0.8334,,,,,,,,,,,,,,,,,,,,,,60fd73381530a432898654d5,61036ad4970c3c4689702f9a,2021-07-29_21h59.02.339,Simcolourproject_2stim_asymm_v5,2020.2.10,MacIntel,60,61025ae37ef11b136ea224fe,,,,,,,,,3144,-41.52734375,-88.05078125,1,0,0,response5disk,,3,-7.40234375,-4.515625,1,0,0,rectangle,-7.40234375,-4.515625,1,0,0,-7.40234375,-4.515625,1,0,0,0,66,66,5,1,,,,,,,,
,,,,,,,,,,,,,FF,,,,,,,,1.734,,,,,,,,,,,,,,,,,,,,,,60fd73381530a432898654d5,61036ad4970c3c4689702f9a,2021-07-29_21h59.02.339,Simcolourproject_2stim_asymm_v5,2020.2.10,MacIntel,60,61025ae37ef11b136ea224fe,,,,,,,,,1792,46.28125,-71.87109375,1,0,0,response3disk,,4,4.984375,-7.23046875,1,0,0,rectangle,4.984375,-7.23046875,1,0,0,4.984375,-7.23046875,1,0,0,0,67,67,37,1,,,,,,,,
,,,,,,,,,,,,,FF,,,,,,,,1.999,,,,,,,,,,,,,,,,,,,,,,60fd73381530a432898654d5,61036ad4970c3c4689702f9a,2021-07-29_21h59.02.339,Simcolourproject_2stim_asymm_v5,2020.2.10,MacIntel,60,61025ae37ef11b136ea224fe,,,,,,,,,3300,63.1875,38.32421875,1,0,0,response1disk,,6,0.578125,-0.64453125,1,0,0,rectangle,0.578125,-0.64453125,1,0,0,0.578125,-0.64453125,1,0,0,0,68,68,107,1,,,,,,,,
,,,,,,,,,,,,,FF,,,,,,,,0.9334,,,,,,,,,,,,,,,,,,,,,,60fd73381530a432898654d5,61036ad4970c3c4689702f9a,2021-07-29_21h59.02.339,Simcolourproject_2stim_asymm_v5,2020.2.10,MacIntel,60,61025ae37ef11b136ea224fe,,,,,,,,,3320,68.61328125,42.1484375,1,0,0,response1disk,,6,9.27734375,6.484375,1,0,0,rectangle,9.27734375,6.484375,1,0,0,9.27734375,6.484375,1,0,0,0,69,69,11,1,,,,,,,,
,,,,,,,,,,,,,FF,,,,,,,,0.7658,,,,,,,,,,,,,,,,,,,,,,60fd73381530a432898654d5,61036ad4970c3c4689702f9a,2021-07-29_21h59.02.339,Simcolourproject_2stim_asymm_v5,2020.2.10,MacIntel,60,61025ae37ef11b136ea224fe,,,,,,,,,4270,-63.79296875,-34.609375,1,0,0,response5disk,,2,-0.18359375,1.71875,1,0,0,rectangle,-0.18359375,1.71875,1,0,0,-0.18359375,1.71875,1,0,0,0,70,70,125,1,,,,,,,,
,,,,,,,,,,,,,FF,,,,,,,,1.1335,,,,,,,,,,,,,,,,,,,,,,60fd73381530a432898654d5,61036ad4970c3c4689702f9a,2021-07-29_21h59.02.339,Simcolourproject_2stim_asymm_v5,2020.2.10,MacIntel,60,61025ae37ef11b136ea224fe,,,,,,,,,894,-72.5390625,-41.54296875,1,0,0,response5disk,,2,-2.984375,1.4375,1,0,0,rectangle,-2.984375,1.4375,1,0,0,-2.984375,1.4375,1,0,0,0,71,71,79,1,,,,,,,,
,,,,,,,,,,,,,FF,,,,,,,,1.3157,,,,,,,,,,,,,,,,,,,,,,60fd73381530a432898654d5,61036ad4970c3c4689702f9a,2021-07-29_21h59.02.339,Simcolourproject_2stim_asymm_v5,2020.2.10,MacIntel,60,61025ae37ef11b136ea224fe,,,,,,,,,4138,38.81640625,-78.71484375,1,0,0,response3disk,,4,6.0703125,-8.2109375,1,0,0,rectangle,6.0703125,-8.2109375,1,0,0,6.0703125,-8.2109375,1,0,0,0,72,72,147,1,,,,,,,,
,,,,,,,,,,,,,FF,,,,,,,,1.1166,,,,,,,,,,,,,,,,,,,,,,60fd73381530a432898654d5,61036ad4970c3c4689702f9a,2021-07-29_21h59.02.339,Simcolourproject_2stim_asymm_v5,2020.2.10,MacIntel,60,61025ae37ef11b136ea224fe,,,,,,,,,3455,80.87109375,55.91015625,1,0,0,response1disk,,6,14.45703125,5.2890625,1,0,0,rectangle,14.45703125,5.2890625,1,0,0,14.45703125,5.2890625,1,0,0,0,73,73,78,1,,,,,,,,
,,,,,,,,,,,,,FF,,,,,,,,1.2837,,,,,,,,,,,,,,,,,,,,,,60fd73381530a432898654d5,61036ad4970c3c4689702f9a,2021-07-29_21h59.02.339,Simcolourproject_2stim_asymm_v5,2020.2.10,MacIntel,60,61025ae37ef11b136ea224fe,,,,,,,,,3063,49.0546875,-79.7265625,1,0,0,response3disk,,4,-3,7.03515625,1,0,0,rectangle,-3,7.03515625,1,0,0,-3,7.03515625,1,0,0,0,74,74,142,1,,,,,,,,
,,,,,,,,,,,,,FF,,,,,,,,4.2678,,,,,,,,,,,,,,,,,,,,,,60fd73381530a432898654d5,61036ad4970c3c4689702f9a,2021-07-29_21h59.02.339,Simcolourproject_2stim_asymm_v5,2020.2.10,MacIntel,60,61025ae37ef11b136ea224fe,,,,,,,,,272,90.48046875,-44.33203125,1,0,0,response3disk,,5,6.33984375,-2.171875,1,0,0,rectangle,6.33984375,-2.171875,1,0,0,6.33984375,-2.171875,1,0,0,0,75,75,97,1,,,,,,,,
,,,,,,,,,,,,,FF,,,,,,,,1.0674,,,,,,,,,,,,,,,,,,,,,,60fd73381530a432898654d5,61036ad4970c3c4689702f9a,2021-07-29_21h59.02.339,Simcolourproject_2stim_asymm_v5,2020.2.10,MacIntel,60,61025ae37ef11b136ea224fe,,,,,,,,,3808,66.375,-31.72265625,1,0,0,response3disk,,5,-1.69140625,-9.77734375,1,0,0,rectangle,-1.69140625,-9.77734375,1,0,0,-1.69140625,-9.77734375,1,0,0,0,76,76,0,1,,,,,,,,
,,,,,,,,,,,,,FF,,,,,,,,0.9341,,,,,,,,,,,,,,,,,,,,,,60fd73381530a432898654d5,61036ad4970c3c4689702f9a,2021-07-29_21h59.02.339,Simcolourproject_2stim_asymm_v5,2020.2.10,MacIntel,60,61025ae37ef11b136ea224fe,,,,,,,,,4269,-90.41015625,-42.5703125,1,0,0,response5disk,,2,-7.0546875,-1.73828125,1,0,0,rectangle,-7.0546875,-1.73828125,1,0,0,-7.0546875,-1.73828125,1,0,0,0,77,77,134,1,,,,,,,,
,,,,,,,,,,,,,FF,,,,,,,,0.8836,,,,,,,,,,,,,,,,,,,,,,60fd73381530a432898654d5,61036ad4970c3c4689702f9a,2021-07-29_21h59.02.339,Simcolourproject_2stim_asymm_v5,2020.2.10,MacIntel,60,61025ae37ef11b136ea224fe,,,,,,,,,4075,-44.69140625,-92.6171875,1,0,0,response5disk,,3,-0.51171875,8.09375,1,0,0,rectangle,-0.51171875,8.09375,1,0,0,-0.51171875,8.09375,1,0,0,0,78,78,28,1,,,,,,,,
,,,,,,,,,,,,,FF,,,,,,,,1.0166,,,,,,,,,,,,,,,,,,,,,,60fd73381530a432898654d5,61036ad4970c3c4689702f9a,2021-07-29_21h59.02.339,Simcolourproject_2stim_asymm_v5,2020.2.10,MacIntel,60,61025ae37ef11b136ea224fe,,,,,,,,,592,-56.77734375,-94.84375,1,0,0,response5disk,,3,1.2265625,2.20703125,1,0,0,rectangle,1.2265625,2.20703125,1,0,0,1.2265625,2.20703125,1,0,0,0,79,79,145,1,,,,,,,,
,,,,,,,,,,,,,FF,,,,,,,,1.5508,,,,,,,,,,,,,,,,,,,,,,60fd73381530a432898654d5,61036ad4970c3c4689702f9a,2021-07-29_21h59.02.339,Simcolourproject_2stim_asymm_v5,2020.2.10,MacIntel,60,61025ae37ef11b136ea224fe,,,,,,,,,3696,67.42578125,17.22265625,1,0,0,response1disk,,6,0.71484375,-5.76171875,1,0,0,rectangle,0.71484375,-5.76171875,1,0,0,0.71484375,-5.76171875,1,0,0,0,80,80,77,1,,,,,,,,
,,,,,,,,,,,,,FF,,,,,,,,1.5843,,,,,,,,,,,,,,,,,,,,,,60fd73381530a432898654d5,61036ad4970c3c4689702f9a,2021-07-29_21h59.02.339,Simcolourproject_2stim_asymm_v5,2020.2.10,MacIntel,60,61025ae37ef11b136ea224fe,,,,,,,,,2447,93.59375,-44.67578125,1,0,0,response3disk,,5,15.14453125,-10.07421875,1,0,0,rectangle,15.14453125,-10.07421875,1,0,0,15.14453125,-10.07421875,1,0,0,0,81,81,68,1,,,,,,,,
,,,,,,,,,,,,,FF,,,,,,,,0.8842,,,,,,,,,,,,,,,,,,,,,,60fd73381530a432898654d5,61036ad4970c3c4689702f9a,2021-07-29_21h59.02.339,Simcolourproject_2stim_asymm_v5,2020.2.10,MacIntel,60,61025ae37ef11b136ea224fe,,,,,,,,,1505,68.7734375,-31.4921875,1,0,0,response3disk,,5,-10.6484375,1.41796875,1,0,0,rectangle,-10.6484375,1.41796875,1,0,0,-10.6484375,1.41796875,1,0,0,0,82,82,51,1,,,,,,,,
,,,,,,,,,,,,,FF,,,,,,,,0.8998,,,,,,,,,,,,,,,,,,,,,,60fd73381530a432898654d5,61036ad4970c3c4689702f9a,2021-07-29_21h59.02.339,Simcolourproject_2stim_asymm_v5,2020.2.10,MacIntel,60,61025ae37ef11b136ea224fe,,,,,,,,,693,-75.71875,-50.75,1,0,0,response5disk,,2,2.43359375,13.703125,1,0,0,rectangle,-99.73828125,37.73828125,1,0,0,-6.109375,1.8828125,1,0,0,0,83,83,108,1,,response7disk_3,TRUE,1,1,"[48,213,252,50,64,206,4,97,86,216,84,169,294,214,6,165,299,196,159,241]",1.45,rectangle
,,,,,,,,,,,,,FF,,,,,,,,2.1177,,,,,,,,,,,,,,,,,,,,,,60fd73381530a432898654d5,61036ad4970c3c4689702f9a,2021-07-29_21h59.02.339,Simcolourproject_2stim_asymm_v5,2020.2.10,MacIntel,60,61025ae37ef11b136ea224fe,,,,,,,,,4197,69.26953125,36.4453125,1,0,0,response1disk,,6,7.78515625,2.26953125,1,0,0,rectangle,7.78515625,2.26953125,1,0,0,7.78515625,2.26953125,1,0,0,0,84,84,46,1,,,,,,,,
,,,,,,,,,,,,,FF,,,,,,,,1.0826,,,,,,,,,,,,,,,,,,,,,,60fd73381530a432898654d5,61036ad4970c3c4689702f9a,2021-07-29_21h59.02.339,Simcolourproject_2stim_asymm_v5,2020.2.10,MacIntel,60,61025ae37ef11b136ea224fe,,,,,,,,,2044,-77.83984375,-33.9609375,1,0,0,response5disk,,2,-5.546875,-0.828125,1,0,0,rectangle,36.02734375,-97.078125,1,0,0,-2.4453125,0.18359375,1,0,0,0,85,85,93,1,,response3disk_3,TRUE,4,4,"[48,213,252,50,64,206,4,97,86,216,84,169,294,214,6,165,299,196,159,241]",2.0994,rectangle
,,,,,,,,,,,,,FF,,,,,,,,2.7499,,,,,,,,,,,,,,,,,,,,,,60fd73381530a432898654d5,61036ad4970c3c4689702f9a,2021-07-29_21h59.02.339,Simcolourproject_2stim_asymm_v5,2020.2.10,MacIntel,60,61025ae37ef11b136ea224fe,,,,,,,,,1381,-95.2265625,-58.66015625,1,0,0,response5disk,,2,-9.64453125,-5.95703125,1,0,0,rectangle,-9.64453125,-5.95703125,1,0,0,-9.64453125,-5.95703125,1,0,0,0,86,86,151,1,,,,,,,,
,,,,,,,,,,,,,FF,,,,,,,,1.3177,,,,,,,,,,,,,,,,,,,,,,60fd73381530a432898654d5,61036ad4970c3c4689702f9a,2021-07-29_21h59.02.339,Simcolourproject_2stim_asymm_v5,2020.2.10,MacIntel,60,61025ae37ef11b136ea224fe,,,,,,,,,3646,76.91015625,-53.87109375,1,0,0,response3disk,,5,8.04296875,-2.59765625,1,0,0,rectangle,8.04296875,-2.59765625,1,0,0,8.04296875,-2.59765625,1,0,0,0,87,87,59,1,,,,,,,,
,,,,,,,,,,,,,FF,,,,,,,,2.7343,,,,,,,,,,,,,,,,,,,,,,60fd73381530a432898654d5,61036ad4970c3c4689702f9a,2021-07-29_21h59.02.339,Simcolourproject_2stim_asymm_v5,2020.2.10,MacIntel,60,61025ae37ef11b136ea224fe,,,,,,,,,4353,85.1875,-41.33984375,1,0,0,response3disk,,5,3.69140625,-1.13671875,1,0,0,rectangle,3.69140625,-1.13671875,1,0,0,3.69140625,-1.13671875,1,0,0,0,88,88,138,1,,,,,,,,
,,,,,,,,,,,,,FF,,,,,,,,1.1506,,,,,,,,,,,,,,,,,,,,,,60fd73381530a432898654d5,61036ad4970c3c4689702f9a,2021-07-29_21h59.02.339,Simcolourproject_2stim_asymm_v5,2020.2.10,MacIntel,60,61025ae37ef11b136ea224fe,,,,,,,,,3703,29.21875,-54.671875,1,0,0,response3disk,,4,-16.98046875,16.50390625,1,0,0,rectangle,-16.98046875,16.50390625,1,0,0,-16.98046875,16.50390625,1,0,0,0,89,89,63,1,,,,,,,,
,,,,,,,,,,,,,FF,,,,,,,,1.2685,,,,,,,,,,,,,,,,,,,,,,60fd73381530a432898654d5,61036ad4970c3c4689702f9a,2021-07-29_21h59.02.339,Simcolourproject_2stim_asymm_v5,2020.2.10,MacIntel,60,61025ae37ef11b136ea224fe,,,,,,,,,1628,47.65625,-38.46484375,1,0,0,response3disk,,5,-4.14453125,3.99609375,1,0,0,rectangle,-4.14453125,3.99609375,1,0,0,-4.14453125,3.99609375,1,0,0,0,90,90,85,1,,,,,,,,
,,,,,,,,,,,,,FF,,,,,,,,1.2833,,,,,,,,,,,,,,,,,,,,,,60fd73381530a432898654d5,61036ad4970c3c4689702f9a,2021-07-29_21h59.02.339,Simcolourproject_2stim_asymm_v5,2020.2.10,MacIntel,60,61025ae37ef11b136ea224fe,,,,,,,,,444,-74.65234375,-31.64453125,1,0,0,response5disk,,2,-5.46484375,2.22265625,1,0,0,rectangle,-5.46484375,2.22265625,1,0,0,-5.46484375,2.22265625,1,0,0,0,91,91,53,1,,,,,,,,
,,,,,,,,,,,,,FF,,,,,,,,1.0663,,,,,,,,,,,,,,,,,,,,,,60fd73381530a432898654d5,61036ad4970c3c4689702f9a,2021-07-29_21h59.02.339,Simcolourproject_2stim_asymm_v5,2020.2.10,MacIntel,60,61025ae37ef11b136ea224fe,,,,,,,,,4337,-69.61328125,-22.20703125,1,0,0,response5disk,,2,-10.0078125,-4.16796875,1,0,0,rectangle,-10.0078125,-4.16796875,1,0,0,-10.0078125,-4.16796875,1,0,0,0,92,92,44,1,,,,,,,,
,,,,,,,,,,,,,FF,,,,,,,,1.3168,,,,,,,,,,,,,,,,,,,,,,60fd73381530a432898654d5,61036ad4970c3c4689702f9a,2021-07-29_21h59.02.339,Simcolourproject_2stim_asymm_v5,2020.2.10,MacIntel,60,61025ae37ef11b136ea224fe,,,,,,,,,1341,65.81640625,30.6953125,1,0,0,response1disk,,6,13.5703125,15.58984375,1,0,0,rectangle,13.5703125,15.58984375,1,0,0,13.5703125,15.58984375,1,0,0,0,93,93,49,1,,,,,,,,
,,,,,,,,,,,,,FF,,,,,,,,1.9835,,,,,,,,,,,,,,,,,,,,,,60fd73381530a432898654d5,61036ad4970c3c4689702f9a,2021-07-29_21h59.02.339,Simcolourproject_2stim_asymm_v5,2020.2.10,MacIntel,60,61025ae37ef11b136ea224fe,,,,,,,,,880,104.7265625,47.3984375,1,0,0,response1disk,,6,5.953125,6.6015625,1,0,0,rectangle,5.953125,6.6015625,1,0,0,5.953125,6.6015625,1,0,0,0,94,94,88,1,,,,,,,,
,,,,,,,,,,,,,FF,,,,,,,,1.0667,,,,,,,,,,,,,,,,,,,,,,60fd73381530a432898654d5,61036ad4970c3c4689702f9a,2021-07-29_21h59.02.339,Simcolourproject_2stim_asymm_v5,2020.2.10,MacIntel,60,61025ae37ef11b136ea224fe,,,,,,,,,3620,62.921875,-39.41015625,1,0,0,response3disk,,5,0.96875,-13.65234375,1,0,0,rectangle,0.96875,-13.65234375,1,0,0,0.96875,-13.65234375,1,0,0,0,95,95,24,1,,,,,,,,
,,,,,,,,,,,,,FF,,,,,,,,0.8671,,,,,,,,,,,,,,,,,,,,,,60fd73381530a432898654d5,61036ad4970c3c4689702f9a,2021-07-29_21h59.02.339,Simcolourproject_2stim_asymm_v5,2020.2.10,MacIntel,60,61025ae37ef11b136ea224fe,,,,,,,,,4118,-47.15625,79.90625,1,0,0,response7disk,,0,-4.73828125,-6.5703125,1,0,0,rectangle,-94.33984375,38.91015625,1,0,0,-13.8359375,-0.42578125,1,0,0,0,96,96,25,1,,response7disk_3,TRUE,1,1,"[48,213,252,50,64,206,4,97,86,216,84,169,294,214,6,165,299,196,159,241]",1.2175,rectangle
,,,,,,,,,,,,,FF,,,,,,,,1.1842,,,,,,,,,,,,,,,,,,,,,,60fd73381530a432898654d5,61036ad4970c3c4689702f9a,2021-07-29_21h59.02.339,Simcolourproject_2stim_asymm_v5,2020.2.10,MacIntel,60,61025ae37ef11b136ea224fe,,,,,,,,,2796,68.10546875,22.19140625,1,0,0,response1disk,,6,-1.98046875,-0.13671875,1,0,0,rectangle,-1.98046875,-0.13671875,1,0,0,-1.98046875,-0.13671875,1,0,0,0,97,97,140,1,,,,,,,,
,,,,,,,,,,,,,FF,,,,,,,,0.8168,,,,,,,,,,,,,,,,,,,,,,60fd73381530a432898654d5,61036ad4970c3c4689702f9a,2021-07-29_21h59.02.339,Simcolourproject_2stim_asymm_v5,2020.2.10,MacIntel,60,61025ae37ef11b136ea224fe,,,,,,,,,752,-76.296875,-35.63671875,1,0,0,response5disk,,2,2.1015625,-7.5625,1,0,0,rectangle,2.1015625,-7.5625,1,0,0,2.1015625,-7.5625,1,0,0,0,98,98,82,1,,,,,,,,
,,,,,,,,,,,,,FF,,,,,,,,1.0324,,,,,,,,,,,,,,,,,,,,,,60fd73381530a432898654d5,61036ad4970c3c4689702f9a,2021-07-29_21h59.02.339,Simcolourproject_2stim_asymm_v5,2020.2.10,MacIntel,60,61025ae37ef11b136ea224fe,,,,,,,,,806,-36.0546875,70.265625,1,0,0,response7disk,,0,-9.74609375,0.08984375,1,0,0,rectangle,-9.74609375,0.08984375,1,0,0,-9.74609375,0.08984375,1,0,0,0,99,99,13,1,,,,,,,,
,,,,,,,,,,,,,FF,,,,,,,,1.9834,,,,,,,,,,,,,,,,,,,,,,60fd73381530a432898654d5,61036ad4970c3c4689702f9a,2021-07-29_21h59.02.339,Simcolourproject_2stim_asymm_v5,2020.2.10,MacIntel,60,61025ae37ef11b136ea224fe,,,,,,,,,2619,19.5,77.890625,1,0,0,response1disk,,7,11.02734375,4.8125,1,0,0,rectangle,11.02734375,4.8125,1,0,0,11.02734375,4.8125,1,0,0,0,100,100,143,1,,,,,,,,
,,,,,,,,,,,,,FF,,,,,,,,0.6663,,,,,,,,,,,,,,,,,,,,,,60fd73381530a432898654d5,61036ad4970c3c4689702f9a,2021-07-29_21h59.02.339,Simcolourproject_2stim_asymm_v5,2020.2.10,MacIntel,60,61025ae37ef11b136ea224fe,,,,,,,,,3301,40.375,77.359375,1,0,0,response1disk,,7,4.50390625,11.015625,1,0,0,rectangle,4.50390625,11.015625,1,0,0,4.50390625,11.015625,1,0,0,0,101,101,94,1,,,,,,,,
,,,,,,,,,,,,,FF,,,,,,,,1.5349,,,,,,,,,,,,,,,,,,,,,,60fd73381530a432898654d5,61036ad4970c3c4689702f9a,2021-07-29_21h59.02.339,Simcolourproject_2stim_asymm_v5,2020.2.10,MacIntel,60,61025ae37ef11b136ea224fe,,,,,,,,,362,22.4375,83.7109375,1,0,0,response1disk,,7,17.68359375,-1.12890625,1,0,0,rectangle,17.68359375,-1.12890625,1,0,0,17.68359375,-1.12890625,1,0,0,0,102,102,72,1,,,,,,,,
,,,,,,,,,,,,,FF,,,,,,,,1.7155,,,,,,,,,,,,,,,,,,,,,,60fd73381530a432898654d5,61036ad4970c3c4689702f9a,2021-07-29_21h59.02.339,Simcolourproject_2stim_asymm_v5,2020.2.10,MacIntel,60,61025ae37ef11b136ea224fe,,,,,,,,,3898,-58.60546875,-74.51171875,1,0,0,response5disk,,3,-3.84375,-9.91015625,1,0,0,rectangle,-3.84375,-9.91015625,1,0,0,-3.84375,-9.91015625,1,0,0,0,103,103,56,1,,,,,,,,
,,,,,,,,,,,,,FF,,,,,,,,1.1004,,,,,,,,,,,,,,,,,,,,,,60fd73381530a432898654d5,61036ad4970c3c4689702f9a,2021-07-29_21h59.02.339,Simcolourproject_2stim_asymm_v5,2020.2.10,MacIntel,60,61025ae37ef11b136ea224fe,,,,,,,,,3284,-86.85546875,-32.0078125,1,0,0,response5disk,,2,-10.875,3.57421875,1,0,0,rectangle,-10.875,3.57421875,1,0,0,-10.875,3.57421875,1,0,0,0,104,104,117,1,,,,,,,,
,,,,,,,,,,,,,FF,,,,,,,,1.016,,,,,,,,,,,,,,,,,,,,,,60fd73381530a432898654d5,61036ad4970c3c4689702f9a,2021-07-29_21h59.02.339,Simcolourproject_2stim_asymm_v5,2020.2.10,MacIntel,60,61025ae37ef11b136ea224fe,,,,,,,,,2814,78.03515625,-33.3984375,1,0,0,response3disk,,5,11.18359375,-10.109375,1,0,0,rectangle,11.18359375,-10.109375,1,0,0,11.18359375,-10.109375,1,0,0,0,105,105,158,1,,,,,,,,
,,,,,,,,,,,,,FF,,,,,,,,0.8833,,,,,,,,,,,,,,,,,,,,,,60fd73381530a432898654d5,61036ad4970c3c4689702f9a,2021-07-29_21h59.02.339,Simcolourproject_2stim_asymm_v5,2020.2.10,MacIntel,60,61025ae37ef11b136ea224fe,,,,,,,,,443,-84.9765625,-34.63671875,1,0,0,response5disk,,2,-7.26171875,-2.1484375,1,0,0,rectangle,-7.26171875,-2.1484375,1,0,0,-7.26171875,-2.1484375,1,0,0,0,106,106,45,1,,,,,,,,
,,,,,,,,,,,,,FF,,,,,,,,0.951,,,,,,,,,,,,,,,,,,,,,,60fd73381530a432898654d5,61036ad4970c3c4689702f9a,2021-07-29_21h59.02.339,Simcolourproject_2stim_asymm_v5,2020.2.10,MacIntel,60,61025ae37ef11b136ea224fe,,,,,,,,,2858,81.7890625,35.25,1,0,0,response1disk,,6,12.04296875,-2.41796875,1,0,0,rectangle,12.04296875,-2.41796875,1,0,0,12.04296875,-2.41796875,1,0,0,0,107,107,100,1,,,,,,,,
,,,,,,,,,,,,,FF,,,,,,,,1.1489,,,,,,,,,,,,,,,,,,,,,,60fd73381530a432898654d5,61036ad4970c3c4689702f9a,2021-07-29_21h59.02.339,Simcolourproject_2stim_asymm_v5,2020.2.10,MacIntel,60,61025ae37ef11b136ea224fe,,,,,,,,,689,32.01953125,66.75390625,1,0,0,response1disk,,7,6.54296875,-0.44140625,1,0,0,rectangle,6.54296875,-0.44140625,1,0,0,6.54296875,-0.44140625,1,0,0,0,108,108,136,1,,,,,,,,
,,,,,,,,,,,,,FF,,,,,,,,1.05,,,,,,,,,,,,,,,,,,,,,,60fd73381530a432898654d5,61036ad4970c3c4689702f9a,2021-07-29_21h59.02.339,Simcolourproject_2stim_asymm_v5,2020.2.10,MacIntel,60,61025ae37ef11b136ea224fe,,,,,,,,,3161,-34.83203125,-62.19921875,1,0,0,response5disk,,3,-9.79296875,-9.43359375,1,0,0,rectangle,-9.79296875,-9.43359375,1,0,0,-9.79296875,-9.43359375,1,0,0,0,109,109,89,1,,,,,,,,
,,,,,,,,,,,,,FF,,,,,,,,1.0157,,,,,,,,,,,,,,,,,,,,,,60fd73381530a432898654d5,61036ad4970c3c4689702f9a,2021-07-29_21h59.02.339,Simcolourproject_2stim_asymm_v5,2020.2.10,MacIntel,60,61025ae37ef11b136ea224fe,,,,,,,,,774,70.69921875,32.265625,1,0,0,response1disk,,6,14.984375,1.03515625,1,0,0,rectangle,14.984375,1.03515625,1,0,0,14.984375,1.03515625,1,0,0,0,110,110,18,1,,,,,,,,
,,,,,,,,,,,,,FF,,,,,,,,1.8493,,,,,,,,,,,,,,,,,,,,,,60fd73381530a432898654d5,61036ad4970c3c4689702f9a,2021-07-29_21h59.02.339,Simcolourproject_2stim_asymm_v5,2020.2.10,MacIntel,60,61025ae37ef11b136ea224fe,,,,,,,,,2089,70.72265625,-31.421875,1,0,0,response3disk,,5,9.53125,-5.07421875,1,0,0,rectangle,9.53125,-5.07421875,1,0,0,9.53125,-5.07421875,1,0,0,0,111,111,133,1,,,,,,,,
,,,,,,,,,,,,,FF,,,,,,,,1.217,,,,,,,,,,,,,,,,,,,,,,60fd73381530a432898654d5,61036ad4970c3c4689702f9a,2021-07-29_21h59.02.339,Simcolourproject_2stim_asymm_v5,2020.2.10,MacIntel,60,61025ae37ef11b136ea224fe,,,,,,,,,557,-53.98828125,-83.95703125,1,0,0,response5disk,,3,-6.33203125,-5.9921875,1,0,0,rectangle,-6.33203125,-5.9921875,1,0,0,-6.33203125,-5.9921875,1,0,0,0,112,112,153,1,,,,,,,,
,,,,,,,,,,,,,FF,,,,,,,,1.2834,,,,,,,,,,,,,,,,,,,,,,60fd73381530a432898654d5,61036ad4970c3c4689702f9a,2021-07-29_21h59.02.339,Simcolourproject_2stim_asymm_v5,2020.2.10,MacIntel,60,61025ae37ef11b136ea224fe,,,,,,,,,3857,31.35546875,-70.97265625,1,0,0,response3disk,,4,9.4296875,-8.7265625,1,0,0,rectangle,9.4296875,-8.7265625,1,0,0,9.4296875,-8.7265625,1,0,0,0,113,113,66,1,,,,,,,,
,,,,,,,,,,,,,FF,,,,,,,,0.9505,,,,,,,,,,,,,,,,,,,,,,60fd73381530a432898654d5,61036ad4970c3c4689702f9a,2021-07-29_21h59.02.339,Simcolourproject_2stim_asymm_v5,2020.2.10,MacIntel,60,61025ae37ef11b136ea224fe,,,,,,,,,2660,-39.79296875,89.58203125,1,0,0,response7disk,,0,-18.37109375,5.09765625,1,0,0,rectangle,-18.37109375,5.09765625,1,0,0,-18.37109375,5.09765625,1,0,0,0,114,114,99,1,,,,,,,,
,,,,,,,,,,,,,FF,,,,,,,,0.7339,,,,,,,,,,,,,,,,,,,,,,60fd73381530a432898654d5,61036ad4970c3c4689702f9a,2021-07-29_21h59.02.339,Simcolourproject_2stim_asymm_v5,2020.2.10,MacIntel,60,61025ae37ef11b136ea224fe,,,,,,,,,3413,66.40234375,27.421875,1,0,0,response1disk,,6,10,3.4375,1,0,0,rectangle,10,3.4375,1,0,0,10,3.4375,1,0,0,0,115,115,131,1,,,,,,,,
,,,,,,,,,,,,,FF,,,,,,,,1.1334,,,,,,,,,,,,,,,,,,,,,,60fd73381530a432898654d5,61036ad4970c3c4689702f9a,2021-07-29_21h59.02.339,Simcolourproject_2stim_asymm_v5,2020.2.10,MacIntel,60,61025ae37ef11b136ea224fe,,,,,,,,,707,27.45703125,89.56640625,1,0,0,response1disk,,7,3.50390625,6.10546875,1,0,0,rectangle,3.50390625,6.10546875,1,0,0,3.50390625,6.10546875,1,0,0,0,116,116,48,1,,,,,,,,
,,,,,,,,,,,,,FF,,,,,,,,0.9002,,,,,,,,,,,,,,,,,,,,,,60fd73381530a432898654d5,61036ad4970c3c4689702f9a,2021-07-29_21h59.02.339,Simcolourproject_2stim_asymm_v5,2020.2.10,MacIntel,60,61025ae37ef11b136ea224fe,,,,,,,,,1864,58.44921875,106.9140625,1,0,0,response1disk,,7,-0.9765625,8.39453125,1,0,0,rectangle,-0.9765625,8.39453125,1,0,0,-0.9765625,8.39453125,1,0,0,0,117,117,149,1,,,,,,,,
,,,,,,,,,,,,,FF,,,,,,,,1.0168,,,,,,,,,,,,,,,,,,,,,,60fd73381530a432898654d5,61036ad4970c3c4689702f9a,2021-07-29_21h59.02.339,Simcolourproject_2stim_asymm_v5,2020.2.10,MacIntel,60,61025ae37ef11b136ea224fe,,,,,,,,,164,-67.79296875,-36.4140625,1,0,0,response5disk,,2,-1.71875,-14.6640625,1,0,0,rectangle,-1.71875,-14.6640625,1,0,0,-1.71875,-14.6640625,1,0,0,0,118,118,50,1,,,,,,,,
,,,,,,,,,,,,,FF,,,,,,,,0.8661,,,,,,,,,,,,,,,,,,,,,,60fd73381530a432898654d5,61036ad4970c3c4689702f9a,2021-07-29_21h59.02.339,Simcolourproject_2stim_asymm_v5,2020.2.10,MacIntel,60,61025ae37ef11b136ea224fe,,,,,,,,,852,61.3984375,-23.36328125,1,0,0,response3disk,,5,10.1953125,-5.50390625,1,0,0,rectangle,10.1953125,-5.50390625,1,0,0,10.1953125,-5.50390625,1,0,0,0,119,119,92,1,,,,,,,,
,,,,,,,,,,,,,FF,,,,,,,,0.9668,,,,,,,,,,,,,,,,,,,,,,60fd73381530a432898654d5,61036ad4970c3c4689702f9a,2021-07-29_21h59.02.339,Simcolourproject_2stim_asymm_v5,2020.2.10,MacIntel,60,61025ae37ef11b136ea224fe,,,,,,,,,1489,76.9375,29.98828125,1,0,0,response1disk,,6,5.53125,-4.43359375,1,0,0,rectangle,5.53125,-4.43359375,1,0,0,5.53125,-4.43359375,1,0,0,0,120,120,113,1,,,,,,,,
,,,,,,,,,,,,,FF,,,,,,,,0.7507,,,,,,,,,,,,,,,,,,,,,,60fd73381530a432898654d5,61036ad4970c3c4689702f9a,2021-07-29_21h59.02.339,Simcolourproject_2stim_asymm_v5,2020.2.10,MacIntel,60,61025ae37ef11b136ea224fe,,,,,,,,,2618,58.546875,-30.984375,1,0,0,response3disk,,5,6.30859375,-13.5078125,1,0,0,rectangle,6.30859375,-13.5078125,1,0,0,6.30859375,-13.5078125,1,0,0,0,121,121,121,1,,,,,,,,
,,,,,,,,,,,,,FF,,,,,,,,1.0994,,,,,,,,,,,,,,,,,,,,,,60fd73381530a432898654d5,61036ad4970c3c4689702f9a,2021-07-29_21h59.02.339,Simcolourproject_2stim_asymm_v5,2020.2.10,MacIntel,60,61025ae37ef11b136ea224fe,,,,,,,,,1486,85.82421875,33.1484375,1,0,0,response1disk,,6,8.83203125,-0.4453125,1,0,0,rectangle,8.83203125,-0.4453125,1,0,0,8.83203125,-0.4453125,1,0,0,0,122,122,132,1,,,,,,,,
,,,,,,,,,,,,,FF,,,,,,,,0.8171,,,,,,,,,,,,,,,,,,,,,,60fd73381530a432898654d5,61036ad4970c3c4689702f9a,2021-07-29_21h59.02.339,Simcolourproject_2stim_asymm_v5,2020.2.10,MacIntel,60,61025ae37ef11b136ea224fe,,,,,,,,,2424,-83.01171875,-40.58984375,1,0,0,response5disk,,2,3.59375,1.7421875,1,0,0,rectangle,3.59375,1.7421875,1,0,0,3.59375,1.7421875,1,0,0,0,123,123,7,1,,,,,,,,
,,,,,,,,,,,,,FF,,,,,,,,2.4846,,,,,,,,,,,,,,,,,,,,,,60fd73381530a432898654d5,61036ad4970c3c4689702f9a,2021-07-29_21h59.02.339,Simcolourproject_2stim_asymm_v5,2020.2.10,MacIntel,60,61025ae37ef11b136ea224fe,,,,,,,,,496,82.02734375,-46.58984375,1,0,0,response3disk,,5,1.60546875,2.54296875,1,0,0,rectangle,1.60546875,2.54296875,1,0,0,1.60546875,2.54296875,1,0,0,0,124,124,36,1,,,,,,,,
,,,,,,,,,,,,,FF,,,,,,,,1.2833,,,,,,,,,,,,,,,,,,,,,,60fd73381530a432898654d5,61036ad4970c3c4689702f9a,2021-07-29_21h59.02.339,Simcolourproject_2stim_asymm_v5,2020.2.10,MacIntel,60,61025ae37ef11b136ea224fe,,,,,,,,,2827,-57.42578125,-67.33203125,1,0,0,response5disk,,3,-7.48828125,3.87109375,1,0,0,rectangle,-7.48828125,3.87109375,1,0,0,-7.48828125,3.87109375,1,0,0,0,125,125,115,1,,,,,,,,
,,,,,,,,,,,,,FF,,,,,,,,1.2834,,,,,,,,,,,,,,,,,,,,,,60fd73381530a432898654d5,61036ad4970c3c4689702f9a,2021-07-29_21h59.02.339,Simcolourproject_2stim_asymm_v5,2020.2.10,MacIntel,60,61025ae37ef11b136ea224fe,,,,,,,,,396,-87.7578125,-52.8671875,1,0,0,response5disk,,2,5.88671875,0.78515625,1,0,0,rectangle,5.88671875,0.78515625,1,0,0,5.88671875,0.78515625,1,0,0,0,126,126,139,1,,,,,,,,
,,,,,,,,,,,,,FF,,,,,,,,0.7829,,,,,,,,,,,,,,,,,,,,,,60fd73381530a432898654d5,61036ad4970c3c4689702f9a,2021-07-29_21h59.02.339,Simcolourproject_2stim_asymm_v5,2020.2.10,MacIntel,60,61025ae37ef11b136ea224fe,,,,,,,,,640,-79.72265625,-49.03125,1,0,0,response5disk,,2,-2.26953125,-7.34765625,1,0,0,rectangle,-2.26953125,-7.34765625,1,0,0,-2.26953125,-7.34765625,1,0,0,0,127,127,157,1,,,,,,,,
,,,,,,,,,,,,,FF,,,,,,,,1.3833,,,,,,,,,,,,,,,,,,,,,,60fd73381530a432898654d5,61036ad4970c3c4689702f9a,2021-07-29_21h59.02.339,Simcolourproject_2stim_asymm_v5,2020.2.10,MacIntel,60,61025ae37ef11b136ea224fe,,,,,,,,,1583,43.51953125,84.82421875,1,0,0,response1disk,,7,-5.12109375,-2.37890625,1,0,0,rectangle,-5.12109375,-2.37890625,1,0,0,-5.12109375,-2.37890625,1,0,0,0,128,128,33,1,,,,,,,,
,,,,,,,,,,,,,FF,,,,,,,,0.734,,,,,,,,,,,,,,,,,,,,,,60fd73381530a432898654d5,61036ad4970c3c4689702f9a,2021-07-29_21h59.02.339,Simcolourproject_2stim_asymm_v5,2020.2.10,MacIntel,60,61025ae37ef11b136ea224fe,,,,,,,,,1626,38.41796875,88.96484375,1,0,0,response1disk,,7,2.2890625,16.296875,1,0,0,rectangle,2.2890625,16.296875,1,0,0,2.2890625,16.296875,1,0,0,0,129,129,75,1,,,,,,,,
,,,,,,,,,,,,,FF,,,,,,,,0.8162,,,,,,,,,,,,,,,,,,,,,,60fd73381530a432898654d5,61036ad4970c3c4689702f9a,2021-07-29_21h59.02.339,Simcolourproject_2stim_asymm_v5,2020.2.10,MacIntel,60,61025ae37ef11b136ea224fe,,,,,,,,,1760,-81.8359375,-35.80078125,1,0,0,response5disk,,2,-10.828125,6.36328125,1,0,0,rectangle,-10.828125,6.36328125,1,0,0,-10.828125,6.36328125,1,0,0,0,130,130,12,1,,,,,,,,
,,,,,,,,,,,,,FF,,,,,,,,1.1495,,,,,,,,,,,,,,,,,,,,,,60fd73381530a432898654d5,61036ad4970c3c4689702f9a,2021-07-29_21h59.02.339,Simcolourproject_2stim_asymm_v5,2020.2.10,MacIntel,60,61025ae37ef11b136ea224fe,,,,,,,,,1959,-76.66796875,40.875,1,0,0,response7disk,,1,-9.55078125,13.6015625,1,0,0,rectangle,-9.55078125,13.6015625,1,0,0,-9.55078125,13.6015625,1,0,0,0,131,131,128,1,,,,,,,,
,,,,,,,,,,,,,FF,,,,,,,,1.332,,,,,,,,,,,,,,,,,,,,,,60fd73381530a432898654d5,61036ad4970c3c4689702f9a,2021-07-29_21h59.02.339,Simcolourproject_2stim_asymm_v5,2020.2.10,MacIntel,60,61025ae37ef11b136ea224fe,,,,,,,,,2829,43.37890625,-64.265625,1,0,0,response3disk,,4,-7.26171875,10.06640625,1,0,0,rectangle,-7.26171875,10.06640625,1,0,0,-7.26171875,10.06640625,1,0,0,0,132,132,29,1,,,,,,,,
,,,,,,,,,,,,,FF,,,,,,,,1.2337,,,,,,,,,,,,,,,,,,,,,,60fd73381530a432898654d5,61036ad4970c3c4689702f9a,2021-07-29_21h59.02.339,Simcolourproject_2stim_asymm_v5,2020.2.10,MacIntel,60,61025ae37ef11b136ea224fe,,,,,,,,,1189,86.87890625,40.17578125,1,0,0,response1disk,,6,-19.4375,10.13671875,1,0,0,rectangle,-19.4375,10.13671875,1,0,0,-19.4375,10.13671875,1,0,0,0,133,133,41,1,,,,,,,,
,,,,,,,,,,,,,FF,,,,,,,,0.6506,,,,,,,,,,,,,,,,,,,,,,60fd73381530a432898654d5,61036ad4970c3c4689702f9a,2021-07-29_21h59.02.339,Simcolourproject_2stim_asymm_v5,2020.2.10,MacIntel,60,61025ae37ef11b136ea224fe,,,,,,,,,2126,33.76953125,84.65234375,1,0,0,response1disk,,7,-1.40234375,-3.90625,1,0,0,rectangle,-1.40234375,-3.90625,1,0,0,-1.40234375,-3.90625,1,0,0,0,134,134,76,1,,,,,,,,
,,,,,,,,,,,,,FF,,,,,,,,0.8505,,,,,,,,,,,,,,,,,,,,,,60fd73381530a432898654d5,61036ad4970c3c4689702f9a,2021-07-29_21h59.02.339,Simcolourproject_2stim_asymm_v5,2020.2.10,MacIntel,60,61025ae37ef11b136ea224fe,,,,,,,,,2164,-82.05859375,-31.4140625,1,0,0,response5disk,,2,-1.2421875,4.25390625,1,0,0,rectangle,-1.2421875,4.25390625,1,0,0,-1.2421875,4.25390625,1,0,0,0,135,135,58,1,,,,,,,,
,,,,,,,,,,,,,FF,,,,,,,,1.1328,,,,,,,,,,,,,,,,,,,,,,60fd73381530a432898654d5,61036ad4970c3c4689702f9a,2021-07-29_21h59.02.339,Simcolourproject_2stim_asymm_v5,2020.2.10,MacIntel,60,61025ae37ef11b136ea224fe,,,,,,,,,2683,29.09375,-49.59765625,1,0,0,response3disk,,4,1.28515625,3.3125,1,0,0,rectangle,1.28515625,3.3125,1,0,0,1.28515625,3.3125,1,0,0,0,136,136,8,1,,,,,,,,
,,,,,,,,,,,,,FF,,,,,,,,3.9179,,,,,,,,,,,,,,,,,,,,,,60fd73381530a432898654d5,61036ad4970c3c4689702f9a,2021-07-29_21h59.02.339,Simcolourproject_2stim_asymm_v5,2020.2.10,MacIntel,60,61025ae37ef11b136ea224fe,,,,,,,,,474,68.90234375,23.85546875,1,0,0,response1disk,,6,13.16796875,-2.828125,1,0,0,rectangle,13.16796875,-2.828125,1,0,0,13.16796875,-2.828125,1,0,0,0,137,137,54,1,,,,,,,,
,,,,,,,,,,,,,FF,,,,,,,,4.4675,,,,,,,,,,,,,,,,,,,,,,60fd73381530a432898654d5,61036ad4970c3c4689702f9a,2021-07-29_21h59.02.339,Simcolourproject_2stim_asymm_v5,2020.2.10,MacIntel,60,61025ae37ef11b136ea224fe,,,,,,,,,2914,79.421875,-51.1796875,1,0,0,response3disk,,5,7.66796875,-3.68359375,1,0,0,rectangle,7.66796875,-3.68359375,1,0,0,7.66796875,-3.68359375,1,0,0,0,138,138,123,1,,,,,,,,
,,,,,,,,,,,,,FF,,,,,,,,1.467,,,,,,,,,,,,,,,,,,,,,,60fd73381530a432898654d5,61036ad4970c3c4689702f9a,2021-07-29_21h59.02.339,Simcolourproject_2stim_asymm_v5,2020.2.10,MacIntel,60,61025ae37ef11b136ea224fe,,,,,,,,,2808,49.359375,29.51171875,1,0,0,response1disk,,6,13.13671875,-12.96484375,1,0,0,rectangle,13.13671875,-12.96484375,1,0,0,13.13671875,-12.96484375,1,0,0,0,139,139,42,1,,,,,,,,
,,,,,,,,,,,,,FF,,,,,,,,1.8169,,,,,,,,,,,,,,,,,,,,,,60fd73381530a432898654d5,61036ad4970c3c4689702f9a,2021-07-29_21h59.02.339,Simcolourproject_2stim_asymm_v5,2020.2.10,MacIntel,60,61025ae37ef11b136ea224fe,,,,,,,,,2061,86.6640625,29.33203125,1,0,0,response1disk,,6,13.92578125,1.71875,1,0,0,rectangle,13.92578125,1.71875,1,0,0,13.92578125,1.71875,1,0,0,0,140,140,98,1,,,,,,,,
,,,,,,,,,,,,,FF,,,,,,,,1.1828,,,,,,,,,,,,,,,,,,,,,,60fd73381530a432898654d5,61036ad4970c3c4689702f9a,2021-07-29_21h59.02.339,Simcolourproject_2stim_asymm_v5,2020.2.10,MacIntel,60,61025ae37ef11b136ea224fe,,,,,,,,,2110,-34.0234375,-76.609375,1,0,0,response5disk,,3,3.75390625,1.7734375,1,0,0,rectangle,3.75390625,1.7734375,1,0,0,3.75390625,1.7734375,1,0,0,0,141,141,64,1,,,,,,,,
,,,,,,,,,,,,,FF,,,,,,,,1.0168,,,,,,,,,,,,,,,,,,,,,,60fd73381530a432898654d5,61036ad4970c3c4689702f9a,2021-07-29_21h59.02.339,Simcolourproject_2stim_asymm_v5,2020.2.10,MacIntel,60,61025ae37ef11b136ea224fe,,,,,,,,,271,66.50390625,-22.27734375,1,0,0,response3disk,,5,1.90625,-5.109375,1,0,0,rectangle,1.90625,-5.109375,1,0,0,1.90625,-5.109375,1,0,0,0,142,142,111,1,,,,,,,,
,,,,,,,,,,,,,FF,,,,,,,,0.9666,,,,,,,,,,,,,,,,,,,,,,60fd73381530a432898654d5,61036ad4970c3c4689702f9a,2021-07-29_21h59.02.339,Simcolourproject_2stim_asymm_v5,2020.2.10,MacIntel,60,61025ae37ef11b136ea224fe,,,,,,,,,808,-46.5234375,73.125,1,0,0,response7disk,,0,-11.1875,-9.22265625,1,0,0,rectangle,-11.1875,-9.22265625,1,0,0,-11.1875,-9.22265625,1,0,0,0,143,143,65,1,,,,,,,,
,,,,,,,,,,,,,FF,,,,,,,,0.8168,,,,,,,,,,,,,,,,,,,,,,60fd73381530a432898654d5,61036ad4970c3c4689702f9a,2021-07-29_21h59.02.339,Simcolourproject_2stim_asymm_v5,2020.2.10,MacIntel,60,61025ae37ef11b136ea224fe,,,,,,,,,4320,74.31640625,35.71484375,1,0,0,response1disk,,6,3.62890625,5.86328125,1,0,0,rectangle,3.62890625,5.86328125,1,0,0,3.62890625,5.86328125,1,0,0,0,144,144,156,1,,,,,,,,
,,,,,,,,,,,,,FF,,,,,,,,1.1,,,,,,,,,,,,,,,,,,,,,,60fd73381530a432898654d5,61036ad4970c3c4689702f9a,2021-07-29_21h59.02.339,Simcolourproject_2stim_asymm_v5,2020.2.10,MacIntel,60,61025ae37ef11b136ea224fe,,,,,,,,,3585,-48.390625,-58.58203125,1,0,0,response5disk,,3,-9.625,-13.484375,1,0,0,rectangle,-9.625,-13.484375,1,0,0,-9.625,-13.484375,1,0,0,0,145,145,14,1,,,,,,,,
,,,,,,,,,,,,,FF,,,,,,,,0.8659,,,,,,,,,,,,,,,,,,,,,,60fd73381530a432898654d5,61036ad4970c3c4689702f9a,2021-07-29_21h59.02.339,Simcolourproject_2stim_asymm_v5,2020.2.10,MacIntel,60,61025ae37ef11b136ea224fe,,,,,,,,,2508,64.984375,-37.9765625,1,0,0,response3disk,,5,7.68359375,-8.56640625,1,0,0,rectangle,7.68359375,-8.56640625,1,0,0,7.68359375,-8.56640625,1,0,0,0,146,146,43,1,,,,,,,,
,,,,,,,,,,,,,FF,,,,,,,,0.9837,,,,,,,,,,,,,,,,,,,,,,60fd73381530a432898654d5,61036ad4970c3c4689702f9a,2021-07-29_21h59.02.339,Simcolourproject_2stim_asymm_v5,2020.2.10,MacIntel,60,61025ae37ef11b136ea224fe,,,,,,,,,1851,64.44921875,46.4921875,1,0,0,response1disk,,6,9.61328125,-3.31640625,1,0,0,rectangle,9.61328125,-3.31640625,1,0,0,9.61328125,-3.31640625,1,0,0,0,147,147,39,1,,,,,,,,
,,,,,,,,,,,,,FF,,,,,,,,1.0828,,,,,,,,,,,,,,,,,,,,,,60fd73381530a432898654d5,61036ad4970c3c4689702f9a,2021-07-29_21h59.02.339,Simcolourproject_2stim_asymm_v5,2020.2.10,MacIntel,60,61025ae37ef11b136ea224fe,,,,,,,,,3073,-47.640625,-74.07421875,1,0,0,response5disk,,3,-8.5859375,-6.77734375,1,0,0,rectangle,-8.5859375,-6.77734375,1,0,0,-8.5859375,-6.77734375,1,0,0,0,148,148,129,1,,,,,,,,
,,,,,,,,,,,,,FF,,,,,,,,0.9497,,,,,,,,,,,,,,,,,,,,,,60fd73381530a432898654d5,61036ad4970c3c4689702f9a,2021-07-29_21h59.02.339,Simcolourproject_2stim_asymm_v5,2020.2.10,MacIntel,60,61025ae37ef11b136ea224fe,,,,,,,,,3263,61.265625,-34.03515625,1,0,0,response3disk,,5,1.95703125,-11.58203125,1,0,0,rectangle,1.95703125,-11.58203125,1,0,0,1.95703125,-11.58203125,1,0,0,0,149,149,84,1,,,,,,,,
,,,,,,,,,,,,,FF,,,,,,,,0.6828,,,,,,,,,,,,,,,,,,,,,,60fd73381530a432898654d5,61036ad4970c3c4689702f9a,2021-07-29_21h59.02.339,Simcolourproject_2stim_asymm_v5,2020.2.10,MacIntel,60,61025ae37ef11b136ea224fe,,,,,,,,,2783,-72.76171875,-34.35546875,1,0,0,response5disk,,2,0.77734375,-7.51171875,1,0,0,rectangle,0.77734375,-7.51171875,1,0,0,0.77734375,-7.51171875,1,0,0,0,150,150,144,1,,,,,,,,
,,,,,,,,,,,,,FF,,,,,,,,1.4326,,,,,,,,,,,,,,,,,,,,,,60fd73381530a432898654d5,61036ad4970c3c4689702f9a,2021-07-29_21h59.02.339,Simcolourproject_2stim_asymm_v5,2020.2.10,MacIntel,60,61025ae37ef11b136ea224fe,,,,,,,,,2020,42.12109375,-75.3671875,1,0,0,response3disk,,4,3.15234375,-11.1640625,1,0,0,rectangle,3.15234375,-11.1640625,1,0,0,3.15234375,-11.1640625,1,0,0,0,151,151,137,1,,,,,,,,
,,,,,,,,,,,,,FF,,,,,,,,0.9005,,,,,,,,,,,,,,,,,,,,,,60fd73381530a432898654d5,61036ad4970c3c4689702f9a,2021-07-29_21h59.02.339,Simcolourproject_2stim_asymm_v5,2020.2.10,MacIntel,60,61025ae37ef11b136ea224fe,,,,,,,,,4027,-76.296875,-49.19140625,1,0,0,response5disk,,2,-5.421875,6.96875,1,0,0,rectangle,-5.421875,6.96875,1,0,0,-5.421875,6.96875,1,0,0,0,152,152,126,1,,,,,,,,
,,,,,,,,,,,,,FF,,,,,,,,0.7995,,,,,,,,,,,,,,,,,,,,,,60fd73381530a432898654d5,61036ad4970c3c4689702f9a,2021-07-29_21h59.02.339,Simcolourproject_2stim_asymm_v5,2020.2.10,MacIntel,60,61025ae37ef11b136ea224fe,,,,,,,,,3011,61.390625,34.0546875,1,0,0,response1disk,,6,-2.0390625,-8.546875,1,0,0,rectangle,-2.0390625,-8.546875,1,0,0,-2.0390625,-8.546875,1,0,0,0,153,153,120,1,,,,,,,,
,,,,,,,,,,,,,FF,,,,,,,,0.783,,,,,,,,,,,,,,,,,,,,,,60fd73381530a432898654d5,61036ad4970c3c4689702f9a,2021-07-29_21h59.02.339,Simcolourproject_2stim_asymm_v5,2020.2.10,MacIntel,60,61025ae37ef11b136ea224fe,,,,,,,,,2676,27.33203125,-55.078125,1,0,0,response3disk,,4,12.00390625,-17.8046875,1,0,0,rectangle,12.00390625,-17.8046875,1,0,0,12.00390625,-17.8046875,1,0,0,0,154,154,31,1,,,,,,,,
,,,,,,,,,,,,,FF,,,,,,,,0.7,,,,,,,,,,,,,,,,,,,,,,60fd73381530a432898654d5,61036ad4970c3c4689702f9a,2021-07-29_21h59.02.339,Simcolourproject_2stim_asymm_v5,2020.2.10,MacIntel,60,61025ae37ef11b136ea224fe,,,,,,,,,1385,-30.57421875,-52.44921875,1,0,0,response5disk,,3,-13.7421875,1.09375,1,0,0,rectangle,-13.7421875,1.09375,1,0,0,-13.7421875,1.09375,1,0,0,0,155,155,118,1,,,,,,,,
,,,,,,,,,,,,,FF,,,,,,,,1.284,,,,,,,,,,,,,,,,,,,,,,60fd73381530a432898654d5,61036ad4970c3c4689702f9a,2021-07-29_21h59.02.339,Simcolourproject_2stim_asymm_v5,2020.2.10,MacIntel,60,61025ae37ef11b136ea224fe,,,,,,,,,578,-23.39453125,-72.74609375,1,0,0,response5disk,,3,-6.51171875,-6.45703125,1,0,0,rectangle,-6.51171875,-6.45703125,1,0,0,-6.51171875,-6.45703125,1,0,0,0,156,156,35,1,,,,,,,,
,,,,,,,,,,,,,FF,,,,,,,,1.0339,,,,,,,,,,,,,,,,,,,,,,60fd73381530a432898654d5,61036ad4970c3c4689702f9a,2021-07-29_21h59.02.339,Simcolourproject_2stim_asymm_v5,2020.2.10,MacIntel,60,61025ae37ef11b136ea224fe,,,,,,,,,661,52.09765625,-32.81640625,1,0,0,response3disk,,5,3.20703125,-16.9609375,1,0,0,rectangle,3.20703125,-16.9609375,1,0,0,3.20703125,-16.9609375,1,0,0,0,157,157,159,1,,,,,,,,
,,,,,,,,,,,,,FF,,,,,,,,2.8331,,,,,,,,,,,,,,,,,,,,,,60fd73381530a432898654d5,61036ad4970c3c4689702f9a,2021-07-29_21h59.02.339,Simcolourproject_2stim_asymm_v5,2020.2.10,MacIntel,60,61025ae37ef11b136ea224fe,,,,,,,,,1103,89.75390625,36.40625,1,0,0,response1disk,,6,-4.71875,-2.0625,1,0,0,rectangle,-36.6953125,77.22265625,1,0,0,-12.30078125,13.38671875,1,0,0,0,158,158,86,1,,response7disk_3,TRUE,0,0,"[48,213,252,50,64,206,4,97,86,216,84,169,294,214,6,165,299,196,159,241]",1.5674,rectangle
,,,,,,,,,,,,,FF,,,,,,,,1.1669,,,,,,,,,,,,,,,,,,,,,,60fd73381530a432898654d5,61036ad4970c3c4689702f9a,2021-07-29_21h59.02.339,Simcolourproject_2stim_asymm_v5,2020.2.10,MacIntel,60,61025ae37ef11b136ea224fe,,,,,,,,,1969,-75.84765625,-41.22265625,1,0,0,response5disk,,2,-20.33203125,-4.8828125,1,0,0,rectangle,-20.33203125,-4.8828125,1,0,0,-20.33203125,-4.8828125,1,0,0,0,159,159,146,1,,,,,,,,
,,,,,,,,,,,,,FF,,,,,,,,0.9012,,,,,,,,,,,,,,,,,,,,,,60fd73381530a432898654d5,61036ad4970c3c4689702f9a,2021-07-29_21h59.02.339,Simcolourproject_2stim_asymm_v5,2020.2.10,MacIntel,60,61025ae37ef11b136ea224fe,,,,,,,,,1584,-76.3359375,-30.40625,1,0,0,response5disk,,2,-19.89453125,-0.3359375,1,0,0,rectangle,-19.89453125,-0.3359375,1,0,0,-19.89453125,-0.3359375,1,0,0,1,0,160,114,1,,,,,,,,
,,,,,,,,,,,,,FF,,,,,,,,0.6003,,,,,,,,,,,,,,,,,,,,,,60fd73381530a432898654d5,61036ad4970c3c4689702f9a,2021-07-29_21h59.02.339,Simcolourproject_2stim_asymm_v5,2020.2.10,MacIntel,60,61025ae37ef11b136ea224fe,,,,,,,,,1688,-77.640625,-54.0390625,1,0,0,response5disk,,2,-21.015625,-13.00390625,1,0,0,rectangle,-21.015625,-13.00390625,1,0,0,-21.015625,-13.00390625,1,0,0,1,1,161,87,1,,,,,,,,
,,,,,,,,,,,,,FF,,,,,,,,0.9005,,,,,,,,,,,,,,,,,,,,,,60fd73381530a432898654d5,61036ad4970c3c4689702f9a,2021-07-29_21h59.02.339,Simcolourproject_2stim_asymm_v5,2020.2.10,MacIntel,60,61025ae37ef11b136ea224fe,,,,,,,,,4042,-45.7578125,-62.21484375,1,0,0,response5disk,,3,-24.45703125,-7.859375,1,0,0,rectangle,-24.45703125,-7.859375,1,0,0,-24.45703125,-7.859375,1,0,0,1,2,162,115,1,,,,,,,,
,,,,,,,,,,,,,FF,,,,,,,,0.9661,,,,,,,,,,,,,,,,,,,,,,60fd73381530a432898654d5,61036ad4970c3c4689702f9a,2021-07-29_21h59.02.339,Simcolourproject_2stim_asymm_v5,2020.2.10,MacIntel,60,61025ae37ef11b136ea224fe,,,,,,,,,3503,-63.79296875,-35.1484375,1,0,0,response5disk,,2,-16.20703125,-1.4765625,1,0,0,rectangle,-16.20703125,-1.4765625,1,0,0,-16.20703125,-1.4765625,1,0,0,1,3,163,92,1,,,,,,,,
,,,,,,,,,,,,,FF,,,,,,,,1.1166,,,,,,,,,,,,,,,,,,,,,,60fd73381530a432898654d5,61036ad4970c3c4689702f9a,2021-07-29_21h59.02.339,Simcolourproject_2stim_asymm_v5,2020.2.10,MacIntel,60,61025ae37ef11b136ea224fe,,,,,,,,,1508,20.26171875,77.5703125,1,0,0,response1disk,,7,-0.41015625,-7.18359375,1,0,0,rectangle,-94.86328125,-42.31640625,1,0,0,-8.6171875,-4.3828125,1,0,0,1,4,164,48,1,,response5disk_3,TRUE,2,2,"[48,213,252,50,64,206,4,97,86,216,84,169,294,214,6,165,299,196,159,241]",2.0664,rectangle
,,,,,,,,,,,,,FF,,,,,,,,2.2498,,,,,,,,,,,,,,,,,,,,,,60fd73381530a432898654d5,61036ad4970c3c4689702f9a,2021-07-29_21h59.02.339,Simcolourproject_2stim_asymm_v5,2020.2.10,MacIntel,60,61025ae37ef11b136ea224fe,,,,,,,,,1711,67.05078125,40.71484375,1,0,0,response1disk,,6,17.875,-1.0625,1,0,0,rectangle,17.875,-1.0625,1,0,0,17.875,-1.0625,1,0,0,1,5,165,18,1,,,,,,,,
,,,,,,,,,,,,,FF,,,,,,,,1.6838,,,,,,,,,,,,,,,,,,,,,,60fd73381530a432898654d5,61036ad4970c3c4689702f9a,2021-07-29_21h59.02.339,Simcolourproject_2stim_asymm_v5,2020.2.10,MacIntel,60,61025ae37ef11b136ea224fe,,,,,,,,,4245,72.98828125,33.3203125,1,0,0,response1disk,,6,4.03515625,-5.703125,1,0,0,rectangle,4.03515625,-5.703125,1,0,0,4.03515625,-5.703125,1,0,0,1,6,166,75,1,,,,,,,,
,,,,,,,,,,,,,FF,,,,,,,,1.3489,,,,,,,,,,,,,,,,,,,,,,60fd73381530a432898654d5,61036ad4970c3c4689702f9a,2021-07-29_21h59.02.339,Simcolourproject_2stim_asymm_v5,2020.2.10,MacIntel,60,61025ae37ef11b136ea224fe,,,,,,,,,344,-73.28515625,-38.0859375,1,0,0,response5disk,,2,-5.49609375,-1.01171875,1,0,0,rectangle,-5.49609375,-1.01171875,1,0,0,-5.49609375,-1.01171875,1,0,0,1,7,167,41,1,,,,,,,,
,,,,,,,,,,,,,FF,,,,,,,,0.733,,,,,,,,,,,,,,,,,,,,,,60fd73381530a432898654d5,61036ad4970c3c4689702f9a,2021-07-29_21h59.02.339,Simcolourproject_2stim_asymm_v5,2020.2.10,MacIntel,60,61025ae37ef11b136ea224fe,,,,,,,,,372,-86.76171875,-44.35546875,1,0,0,response5disk,,2,-21.97265625,-4.3125,1,0,0,rectangle,72.72265625,-37.56640625,1,0,0,5.890625,-17.2578125,1,0,0,1,8,168,27,1,,response3disk_3,TRUE,5,5,"[48,213,252,50,64,206,4,97,86,216,84,169,294,214,6,165,299,196,159,241]",1.7828,rectangle
,,,,,,,,,,,,,FF,,,,,,,,1.6336,,,,,,,,,,,,,,,,,,,,,,60fd73381530a432898654d5,61036ad4970c3c4689702f9a,2021-07-29_21h59.02.339,Simcolourproject_2stim_asymm_v5,2020.2.10,MacIntel,60,61025ae37ef11b136ea224fe,,,,,,,,,3964,88.15625,45.78515625,1,0,0,response1disk,,6,9.20703125,2.22265625,1,0,0,rectangle,9.20703125,2.22265625,1,0,0,9.20703125,2.22265625,1,0,0,1,9,169,58,1,,,,,,,,
,,,,,,,,,,,,,FF,,,,,,,,1.1666,,,,,,,,,,,,,,,,,,,,,,60fd73381530a432898654d5,61036ad4970c3c4689702f9a,2021-07-29_21h59.02.339,Simcolourproject_2stim_asymm_v5,2020.2.10,MacIntel,60,61025ae37ef11b136ea224fe,,,,,,,,,924,66.3515625,41.86328125,1,0,0,response1disk,,6,3.359375,6.1171875,1,0,0,rectangle,3.359375,6.1171875,1,0,0,3.359375,6.1171875,1,0,0,1,10,170,72,1,,,,,,,,
,,,,,,,,,,,,,FF,,,,,,,,1.0509,,,,,,,,,,,,,,,,,,,,,,60fd73381530a432898654d5,61036ad4970c3c4689702f9a,2021-07-29_21h59.02.339,Simcolourproject_2stim_asymm_v5,2020.2.10,MacIntel,60,61025ae37ef11b136ea224fe,,,,,,,,,3066,-36.8828125,-55.82421875,1,0,0,response5disk,,3,-12.10546875,3.83984375,1,0,0,rectangle,-12.10546875,3.83984375,1,0,0,-12.10546875,3.83984375,1,0,0,1,11,171,59,1,,,,,,,,
,,,,,,,,,,,,,FF,,,,,,,,0.7001,,,,,,,,,,,,,,,,,,,,,,60fd73381530a432898654d5,61036ad4970c3c4689702f9a,2021-07-29_21h59.02.339,Simcolourproject_2stim_asymm_v5,2020.2.10,MacIntel,60,61025ae37ef11b136ea224fe,,,,,,,,,700,-67.01171875,-37.65625,1,0,0,response5disk,,2,-6.7734375,-5.1875,1,0,0,rectangle,-6.7734375,-5.1875,1,0,0,-6.7734375,-5.1875,1,0,0,1,12,172,112,1,,,,,,,,
,,,,,,,,,,,,,FF,,,,,,,,0.9664,,,,,,,,,,,,,,,,,,,,,,60fd73381530a432898654d5,61036ad4970c3c4689702f9a,2021-07-29_21h59.02.339,Simcolourproject_2stim_asymm_v5,2020.2.10,MacIntel,60,61025ae37ef11b136ea224fe,,,,,,,,,151,72.125,-31.8046875,1,0,0,response3disk,,5,8.046875,-8.8515625,1,0,0,rectangle,8.046875,-8.8515625,1,0,0,8.046875,-8.8515625,1,0,0,1,13,173,102,1,,,,,,,,
,,,,,,,,,,,,,FF,,,,,,,,0.9007,,,,,,,,,,,,,,,,,,,,,,60fd73381530a432898654d5,61036ad4970c3c4689702f9a,2021-07-29_21h59.02.339,Simcolourproject_2stim_asymm_v5,2020.2.10,MacIntel,60,61025ae37ef11b136ea224fe,,,,,,,,,3530,73.359375,28.51171875,1,0,0,response1disk,,6,1.453125,2.80859375,1,0,0,rectangle,1.453125,2.80859375,1,0,0,1.453125,2.80859375,1,0,0,1,14,174,123,1,,,,,,,,
,,,,,,,,,,,,,FF,,,,,,,,1.1998,,,,,,,,,,,,,,,,,,,,,,60fd73381530a432898654d5,61036ad4970c3c4689702f9a,2021-07-29_21h59.02.339,Simcolourproject_2stim_asymm_v5,2020.2.10,MacIntel,60,61025ae37ef11b136ea224fe,,,,,,,,,3603,63.2890625,-32.734375,1,0,0,response3disk,,5,14.81640625,-11.21875,1,0,0,rectangle,14.81640625,-11.21875,1,0,0,14.81640625,-11.21875,1,0,0,1,15,175,64,1,,,,,,,,
,,,,,,,,,,,,,FF,,,,,,,,1.7006,,,,,,,,,,,,,,,,,,,,,,60fd73381530a432898654d5,61036ad4970c3c4689702f9a,2021-07-29_21h59.02.339,Simcolourproject_2stim_asymm_v5,2020.2.10,MacIntel,60,61025ae37ef11b136ea224fe,,,,,,,,,61,90.41015625,28.4375,1,0,0,response1disk,,6,5.10546875,4.63671875,1,0,0,rectangle,5.10546875,4.63671875,1,0,0,5.10546875,4.63671875,1,0,0,1,16,176,126,1,,,,,,,,
,,,,,,,,,,,,,FF,,,,,,,,0.9005,,,,,,,,,,,,,,,,,,,,,,60fd73381530a432898654d5,61036ad4970c3c4689702f9a,2021-07-29_21h59.02.339,Simcolourproject_2stim_asymm_v5,2020.2.10,MacIntel,60,61025ae37ef11b136ea224fe,,,,,,,,,2296,-70.79296875,-35.89453125,1,0,0,response5disk,,2,-2.75,2.4375,1,0,0,rectangle,-2.75,2.4375,1,0,0,-2.75,2.4375,1,0,0,1,17,177,46,1,,,,,,,,
,,,,,,,,,,,,,FF,,,,,,,,1.4497,,,,,,,,,,,,,,,,,,,,,,60fd73381530a432898654d5,61036ad4970c3c4689702f9a,2021-07-29_21h59.02.339,Simcolourproject_2stim_asymm_v5,2020.2.10,MacIntel,60,61025ae37ef11b136ea224fe,,,,,,,,,4194,24.23046875,-51.8515625,1,0,0,response3disk,,4,9.2578125,-13.98828125,1,0,0,rectangle,9.2578125,-13.98828125,1,0,0,9.2578125,-13.98828125,1,0,0,1,18,178,136,1,,,,,,,,
,,,,,,,,,,,,,FF,,,,,,,,1.0013,,,,,,,,,,,,,,,,,,,,,,60fd73381530a432898654d5,61036ad4970c3c4689702f9a,2021-07-29_21h59.02.339,Simcolourproject_2stim_asymm_v5,2020.2.10,MacIntel,60,61025ae37ef11b136ea224fe,,,,,,,,,2644,49.72265625,-19.3515625,1,0,0,response3disk,,5,3.26171875,-3.94140625,1,0,0,rectangle,3.26171875,-3.94140625,1,0,0,3.26171875,-3.94140625,1,0,0,1,19,179,77,1,,,,,,,,
,,,,,,,,,,,,,FF,,,,,,,,1.0494,,,,,,,,,,,,,,,,,,,,,,60fd73381530a432898654d5,61036ad4970c3c4689702f9a,2021-07-29_21h59.02.339,Simcolourproject_2stim_asymm_v5,2020.2.10,MacIntel,60,61025ae37ef11b136ea224fe,,,,,,,,,3720,57.109375,30.7734375,1,0,0,response1disk,,6,2.93359375,-2.16015625,1,0,0,rectangle,2.93359375,-2.16015625,1,0,0,2.93359375,-2.16015625,1,0,0,1,20,180,155,1,,,,,,,,
,,,,,,,,,,,,,FF,,,,,,,,1.0507,,,,,,,,,,,,,,,,,,,,,,60fd73381530a432898654d5,61036ad4970c3c4689702f9a,2021-07-29_21h59.02.339,Simcolourproject_2stim_asymm_v5,2020.2.10,MacIntel,60,61025ae37ef11b136ea224fe,,,,,,,,,1567,59.22265625,21.45703125,1,0,0,response1disk,,6,4.2421875,-2.640625,1,0,0,rectangle,4.2421875,-2.640625,1,0,0,4.2421875,-2.640625,1,0,0,1,21,181,120,1,,,,,,,,
,,,,,,,,,,,,,FF,,,,,,,,1.1836,,,,,,,,,,,,,,,,,,,,,,60fd73381530a432898654d5,61036ad4970c3c4689702f9a,2021-07-29_21h59.02.339,Simcolourproject_2stim_asymm_v5,2020.2.10,MacIntel,60,61025ae37ef11b136ea224fe,,,,,,,,,4008,26.89453125,-53.90625,1,0,0,response3disk,,4,-1.2265625,-2.6328125,1,0,0,rectangle,-1.2265625,-2.6328125,1,0,0,-1.2265625,-2.6328125,1,0,0,1,22,182,140,1,,,,,,,,
,,,,,,,,,,,,,FF,,,,,,,,0.7494,,,,,,,,,,,,,,,,,,,,,,60fd73381530a432898654d5,61036ad4970c3c4689702f9a,2021-07-29_21h59.02.339,Simcolourproject_2stim_asymm_v5,2020.2.10,MacIntel,60,61025ae37ef11b136ea224fe,,,,,,,,,237,46.0078125,-25.6328125,1,0,0,response3disk,,5,7.1640625,-11.71875,1,0,0,rectangle,7.1640625,-11.71875,1,0,0,7.1640625,-11.71875,1,0,0,1,23,183,153,1,,,,,,,,
,,,,,,,,,,,,,FF,,,,,,,,1.0176,,,,,,,,,,,,,,,,,,,,,,60fd73381530a432898654d5,61036ad4970c3c4689702f9a,2021-07-29_21h59.02.339,Simcolourproject_2stim_asymm_v5,2020.2.10,MacIntel,60,61025ae37ef11b136ea224fe,,,,,,,,,2736,-44.69921875,-60.22265625,1,0,0,response5disk,,3,-1.234375,-8.28515625,1,0,0,rectangle,-1.234375,-8.28515625,1,0,0,-1.234375,-8.28515625,1,0,0,1,24,184,143,1,,,,,,,,
,,,,,,,,,,,,,FF,,,,,,,,0.9333,,,,,,,,,,,,,,,,,,,,,,60fd73381530a432898654d5,61036ad4970c3c4689702f9a,2021-07-29_21h59.02.339,Simcolourproject_2stim_asymm_v5,2020.2.10,MacIntel,60,61025ae37ef11b136ea224fe,,,,,,,,,2392,74.66015625,29.6796875,1,0,0,response1disk,,6,14.890625,-9.77734375,1,0,0,rectangle,14.890625,-9.77734375,1,0,0,14.890625,-9.77734375,1,0,0,1,25,185,34,1,,,,,,,,
,,,,,,,,,,,,,FF,,,,,,,,0.8835,,,,,,,,,,,,,,,,,,,,,,60fd73381530a432898654d5,61036ad4970c3c4689702f9a,2021-07-29_21h59.02.339,Simcolourproject_2stim_asymm_v5,2020.2.10,MacIntel,60,61025ae37ef11b136ea224fe,,,,,,,,,183,65.81640625,38.56640625,1,0,0,response1disk,,6,13.8203125,9.5859375,1,0,0,rectangle,13.8203125,9.5859375,1,0,0,13.8203125,9.5859375,1,0,0,1,26,186,95,1,,,,,,,,
,,,,,,,,,,,,,FF,,,,,,,,0.85,,,,,,,,,,,,,,,,,,,,,,60fd73381530a432898654d5,61036ad4970c3c4689702f9a,2021-07-29_21h59.02.339,Simcolourproject_2stim_asymm_v5,2020.2.10,MacIntel,60,61025ae37ef11b136ea224fe,,,,,,,,,3828,61.40234375,48.62890625,1,0,0,response1disk,,6,-0.51953125,5.73828125,1,0,0,rectangle,-0.51953125,5.73828125,1,0,0,-0.51953125,5.73828125,1,0,0,1,27,187,33,1,,,,,,,,
,,,,,,,,,,,,,FF,,,,,,,,1.0669,,,,,,,,,,,,,,,,,,,,,,60fd73381530a432898654d5,61036ad4970c3c4689702f9a,2021-07-29_21h59.02.339,Simcolourproject_2stim_asymm_v5,2020.2.10,MacIntel,60,61025ae37ef11b136ea224fe,,,,,,,,,4098,-85.546875,-36.99609375,1,0,0,response5disk,,2,5.73046875,1.3515625,1,0,0,rectangle,5.73046875,1.3515625,1,0,0,5.73046875,1.3515625,1,0,0,1,28,188,151,1,,,,,,,,
,,,,,,,,,,,,,FF,,,,,,,,0.7338,,,,,,,,,,,,,,,,,,,,,,60fd73381530a432898654d5,61036ad4970c3c4689702f9a,2021-07-29_21h59.02.339,Simcolourproject_2stim_asymm_v5,2020.2.10,MacIntel,60,61025ae37ef11b136ea224fe,,,,,,,,,4240,-60.765625,-32.421875,1,0,0,response5disk,,2,-15.1328125,-6.875,1,0,0,rectangle,-15.1328125,-6.875,1,0,0,-15.1328125,-6.875,1,0,0,1,29,189,82,1,,,,,,,,
,,,,,,,,,,,,,FF,,,,,,,,1.1832,,,,,,,,,,,,,,,,,,,,,,60fd73381530a432898654d5,61036ad4970c3c4689702f9a,2021-07-29_21h59.02.339,Simcolourproject_2stim_asymm_v5,2020.2.10,MacIntel,60,61025ae37ef11b136ea224fe,,,,,,,,,3890,75.08203125,-46.4140625,1,0,0,response3disk,,5,7.37890625,-11.11328125,1,0,0,rectangle,7.37890625,-11.11328125,1,0,0,7.37890625,-11.11328125,1,0,0,1,30,190,69,1,,,,,,,,
,,,,,,,,,,,,,FF,,,,,,,,1.717,,,,,,,,,,,,,,,,,,,,,,60fd73381530a432898654d5,61036ad4970c3c4689702f9a,2021-07-29_21h59.02.339,Simcolourproject_2stim_asymm_v5,2020.2.10,MacIntel,60,61025ae37ef11b136ea224fe,,,,,,,,,2347,48.15234375,-99.72265625,1,0,0,response3disk,,4,8.984375,-4.5390625,1,0,0,rectangle,8.984375,-4.5390625,1,0,0,8.984375,-4.5390625,1,0,0,1,31,191,40,1,,,,,,,,
,,,,,,,,,,,,,FF,,,,,,,,0.7158,,,,,,,,,,,,,,,,,,,,,,60fd73381530a432898654d5,61036ad4970c3c4689702f9a,2021-07-29_21h59.02.339,Simcolourproject_2stim_asymm_v5,2020.2.10,MacIntel,60,61025ae37ef11b136ea224fe,,,,,,,,,2162,40.1796875,-65.1875,1,0,0,response3disk,,4,8.34375,-7.38671875,1,0,0,rectangle,8.34375,-7.38671875,1,0,0,8.34375,-7.38671875,1,0,0,1,32,192,108,1,,,,,,,,
,,,,,,,,,,,,,FF,,,,,,,,0.6822,,,,,,,,,,,,,,,,,,,,,,60fd73381530a432898654d5,61036ad4970c3c4689702f9a,2021-07-29_21h59.02.339,Simcolourproject_2stim_asymm_v5,2020.2.10,MacIntel,60,61025ae37ef11b136ea224fe,,,,,,,,,3060,98.60546875,44.078125,1,0,0,response1disk,,6,-1.19140625,1.12890625,1,0,0,rectangle,-1.19140625,1.12890625,1,0,0,-1.19140625,1.12890625,1,0,0,1,33,193,98,1,,,,,,,,
,,,,,,,,,,,,,FF,,,,,,,,0.7984,,,,,,,,,,,,,,,,,,,,,,60fd73381530a432898654d5,61036ad4970c3c4689702f9a,2021-07-29_21h59.02.339,Simcolourproject_2stim_asymm_v5,2020.2.10,MacIntel,60,61025ae37ef11b136ea224fe,,,,,,,,,1740,16.609375,-74.40625,1,0,0,response3disk,,4,8.921875,-11.73828125,1,0,0,rectangle,8.921875,-11.73828125,1,0,0,8.921875,-11.73828125,1,0,0,1,34,194,103,1,,,,,,,,
,,,,,,,,,,,,,FF,,,,,,,,0.5496,,,,,,,,,,,,,,,,,,,,,,60fd73381530a432898654d5,61036ad4970c3c4689702f9a,2021-07-29_21h59.02.339,Simcolourproject_2stim_asymm_v5,2020.2.10,MacIntel,60,61025ae37ef11b136ea224fe,,,,,,,,,572,-43.90625,-60.578125,1,0,0,response5disk,,3,-9.1171875,-5.5,1,0,0,rectangle,35.390625,86.609375,1,0,0,5.6328125,0.29296875,1,0,0,1,35,195,12,1,,response1disk_3,TRUE,7,7,"[48,213,252,50,64,206,4,97,86,216,84,169,294,214,6,165,299,196,159,241]",1.7328,rectangle
,,,,,,,,,,,,,FF,,,,,,,,4.8172,,,,,,,,,,,,,,,,,,,,,,60fd73381530a432898654d5,61036ad4970c3c4689702f9a,2021-07-29_21h59.02.339,Simcolourproject_2stim_asymm_v5,2020.2.10,MacIntel,60,61025ae37ef11b136ea224fe,,,,,,,,,3745,108.3359375,44.75390625,1,0,0,response1disk,,6,14.01953125,5.1875,1,0,0,rectangle,14.01953125,5.1875,1,0,0,14.01953125,5.1875,1,0,0,1,36,196,20,1,,,,,,,,
,,,,,,,,,,,,,FF,,,,,,,,0.8335,,,,,,,,,,,,,,,,,,,,,,60fd73381530a432898654d5,61036ad4970c3c4689702f9a,2021-07-29_21h59.02.339,Simcolourproject_2stim_asymm_v5,2020.2.10,MacIntel,60,61025ae37ef11b136ea224fe,,,,,,,,,546,-97.05078125,-44.54296875,1,0,0,response5disk,,2,9.86328125,2.421875,1,0,0,rectangle,9.86328125,2.421875,1,0,0,9.86328125,2.421875,1,0,0,1,37,197,60,1,,,,,,,,
,,,,,,,,,,,,,FF,,,,,,,,1.0673,,,,,,,,,,,,,,,,,,,,,,60fd73381530a432898654d5,61036ad4970c3c4689702f9a,2021-07-29_21h59.02.339,Simcolourproject_2stim_asymm_v5,2020.2.10,MacIntel,60,61025ae37ef11b136ea224fe,,,,,,,,,3811,-38.13671875,80.2421875,1,0,0,response7disk,,0,-14.7890625,9.40625,1,0,0,rectangle,-14.7890625,9.40625,1,0,0,-14.7890625,9.40625,1,0,0,1,38,198,128,1,,,,,,,,
,,,,,,,,,,,,,FF,,,,,,,,1.1168,,,,,,,,,,,,,,,,,,,,,,60fd73381530a432898654d5,61036ad4970c3c4689702f9a,2021-07-29_21h59.02.339,Simcolourproject_2stim_asymm_v5,2020.2.10,MacIntel,60,61025ae37ef11b136ea224fe,,,,,,,,,2186,72.87890625,32.98046875,1,0,0,response1disk,,6,13.62109375,13.59375,1,0,0,rectangle,13.62109375,13.59375,1,0,0,13.62109375,13.59375,1,0,0,1,39,199,21,1,,,,,,,,
,,,,,,,,,,,,,FF,,,,,,,,0.8177,,,,,,,,,,,,,,,,,,,,,,60fd73381530a432898654d5,61036ad4970c3c4689702f9a,2021-07-29_21h59.02.339,Simcolourproject_2stim_asymm_v5,2020.2.10,MacIntel,60,61025ae37ef11b136ea224fe,,,,,,,,,279,-82.41015625,-27.80078125,1,0,0,response5disk,,2,22.66796875,1.82421875,1,0,0,rectangle,22.66796875,1.82421875,1,0,0,22.66796875,1.82421875,1,0,0,1,40,200,26,1,,,,,,,,
,,,,,,,,,,,,,FF,,,,,,,,1.1492,,,,,,,,,,,,,,,,,,,,,,60fd73381530a432898654d5,61036ad4970c3c4689702f9a,2021-07-29_21h59.02.339,Simcolourproject_2stim_asymm_v5,2020.2.10,MacIntel,60,61025ae37ef11b136ea224fe,,,,,,,,,3115,22.56640625,-45.42578125,1,0,0,response3disk,,4,17.91796875,-10.94921875,1,0,0,rectangle,17.91796875,-10.94921875,1,0,0,17.91796875,-10.94921875,1,0,0,1,41,201,13,1,,,,,,,,
,,,,,,,,,,,,,FF,,,,,,,,1.0513,,,,,,,,,,,,,,,,,,,,,,60fd73381530a432898654d5,61036ad4970c3c4689702f9a,2021-07-29_21h59.02.339,Simcolourproject_2stim_asymm_v5,2020.2.10,MacIntel,60,61025ae37ef11b136ea224fe,,,,,,,,,4202,-78.5390625,-37.0234375,1,0,0,response5disk,,2,-11.28125,-0.0625,1,0,0,rectangle,-11.28125,-0.0625,1,0,0,-11.28125,-0.0625,1,0,0,1,42,202,38,1,,,,,,,,
,,,,,,,,,,,,,FF,,,,,,,,1.8669,,,,,,,,,,,,,,,,,,,,,,60fd73381530a432898654d5,61036ad4970c3c4689702f9a,2021-07-29_21h59.02.339,Simcolourproject_2stim_asymm_v5,2020.2.10,MacIntel,60,61025ae37ef11b136ea224fe,,,,,,,,,2654,-34.8671875,-66.1171875,1,0,0,response5disk,,3,-4.34375,1.8203125,1,0,0,rectangle,-4.34375,1.8203125,1,0,0,-4.34375,1.8203125,1,0,0,1,43,203,122,1,,,,,,,,
,,,,,,,,,,,,,FF,,,,,,,,0.9996,,,,,,,,,,,,,,,,,,,,,,60fd73381530a432898654d5,61036ad4970c3c4689702f9a,2021-07-29_21h59.02.339,Simcolourproject_2stim_asymm_v5,2020.2.10,MacIntel,60,61025ae37ef11b136ea224fe,,,,,,,,,3211,-45.0625,-71.57421875,1,0,0,response5disk,,3,-22.65625,-10.0859375,1,0,0,rectangle,-22.65625,-10.0859375,1,0,0,-22.65625,-10.0859375,1,0,0,1,44,204,156,1,,,,,,,,
,,,,,,,,,,,,,FF,,,,,,,,0.8832,,,,,,,,,,,,,,,,,,,,,,60fd73381530a432898654d5,61036ad4970c3c4689702f9a,2021-07-29_21h59.02.339,Simcolourproject_2stim_asymm_v5,2020.2.10,MacIntel,60,61025ae37ef11b136ea224fe,,,,,,,,,1983,26.0625,-53.1328125,1,0,0,response3disk,,4,8.953125,-15.40234375,1,0,0,rectangle,49.0546875,94.14453125,1,0,0,14.234375,12.10546875,1,0,0,1,45,205,7,1,,response1disk_3,TRUE,7,7,"[48,213,252,50,64,206,4,97,86,216,84,169,294,214,6,165,299,196,159,241]",1.7157,rectangle
,,,,,,,,,,,,,FF,,,,,,,,0.9658,,,,,,,,,,,,,,,,,,,,,,60fd73381530a432898654d5,61036ad4970c3c4689702f9a,2021-07-29_21h59.02.339,Simcolourproject_2stim_asymm_v5,2020.2.10,MacIntel,60,61025ae37ef11b136ea224fe,,,,,,,,,2853,73.14453125,37.05078125,1,0,0,response1disk,,6,11.7734375,3.27734375,1,0,0,rectangle,11.7734375,3.27734375,1,0,0,11.7734375,3.27734375,1,0,0,1,46,206,47,1,,,,,,,,
,,,,,,,,,,,,,FF,,,,,,,,1.0827,,,,,,,,,,,,,,,,,,,,,,60fd73381530a432898654d5,61036ad4970c3c4689702f9a,2021-07-29_21h59.02.339,Simcolourproject_2stim_asymm_v5,2020.2.10,MacIntel,60,61025ae37ef11b136ea224fe,,,,,,,,,2584,-79.078125,-36.484375,1,0,0,response5disk,,2,0.44921875,0.4765625,1,0,0,rectangle,0.44921875,0.4765625,1,0,0,0.44921875,0.4765625,1,0,0,1,47,207,31,1,,,,,,,,
,,,,,,,,,,,,,FF,,,,,,,,0.9,,,,,,,,,,,,,,,,,,,,,,60fd73381530a432898654d5,61036ad4970c3c4689702f9a,2021-07-29_21h59.02.339,Simcolourproject_2stim_asymm_v5,2020.2.10,MacIntel,60,61025ae37ef11b136ea224fe,,,,,,,,,177,59.62890625,26.5390625,1,0,0,response1disk,,6,1.5,4.19921875,1,0,0,rectangle,1.5,4.19921875,1,0,0,1.5,4.19921875,1,0,0,1,48,208,105,1,,,,,,,,
,,,,,,,,,,,,,FF,,,,,,,,0.8343,,,,,,,,,,,,,,,,,,,,,,60fd73381530a432898654d5,61036ad4970c3c4689702f9a,2021-07-29_21h59.02.339,Simcolourproject_2stim_asymm_v5,2020.2.10,MacIntel,60,61025ae37ef11b136ea224fe,,,,,,,,,4107,-64.46875,-26.43359375,1,0,0,response5disk,,2,-15.55078125,-8.484375,1,0,0,rectangle,-15.55078125,-8.484375,1,0,0,-15.55078125,-8.484375,1,0,0,1,49,209,16,1,,,,,,,,
,,,,,,,,,,,,,FF,,,,,,,,1.3515,,,,,,,,,,,,,,,,,,,,,,60fd73381530a432898654d5,61036ad4970c3c4689702f9a,2021-07-29_21h59.02.339,Simcolourproject_2stim_asymm_v5,2020.2.10,MacIntel,60,61025ae37ef11b136ea224fe,,,,,,,,,292,69.90625,-34.2578125,1,0,0,response3disk,,5,16.03515625,-16.09765625,1,0,0,rectangle,16.03515625,-16.09765625,1,0,0,16.03515625,-16.09765625,1,0,0,1,50,210,127,1,,,,,,,,
,,,,,,,,,,,,,FF,,,,,,,,0.7492,,,,,,,,,,,,,,,,,,,,,,60fd73381530a432898654d5,61036ad4970c3c4689702f9a,2021-07-29_21h59.02.339,Simcolourproject_2stim_asymm_v5,2020.2.10,MacIntel,60,61025ae37ef11b136ea224fe,,,,,,,,,141,77.67578125,24.15234375,1,0,0,response1disk,,6,10.546875,-4.1953125,1,0,0,rectangle,10.546875,-4.1953125,1,0,0,10.546875,-4.1953125,1,0,0,1,51,211,14,1,,,,,,,,
,,,,,,,,,,,,,FF,,,,,,,,0.6828,,,,,,,,,,,,,,,,,,,,,,60fd73381530a432898654d5,61036ad4970c3c4689702f9a,2021-07-29_21h59.02.339,Simcolourproject_2stim_asymm_v5,2020.2.10,MacIntel,60,61025ae37ef11b136ea224fe,,,,,,,,,189,-69.2578125,-26.49609375,1,0,0,response5disk,,2,-9.9765625,7.5078125,1,0,0,rectangle,47.28515625,-85.21875,1,0,0,12.82421875,-0.73828125,1,0,0,1,52,212,147,1,,response3disk_3,TRUE,4,4,"[48,213,252,50,64,206,4,97,86,216,84,169,294,214,6,165,299,196,159,241]",1.4663,rectangle
,,,,,,,,,,,,,FF,,,,,,,,2.0502,,,,,,,,,,,,,,,,,,,,,,60fd73381530a432898654d5,61036ad4970c3c4689702f9a,2021-07-29_21h59.02.339,Simcolourproject_2stim_asymm_v5,2020.2.10,MacIntel,60,61025ae37ef11b136ea224fe,,,,,,,,,4189,-94.5859375,-45.2109375,1,0,0,response5disk,,2,-6.046875,0.7265625,1,0,0,rectangle,-87.12109375,46.05078125,1,0,0,-21.68359375,3.4140625,1,0,0,1,53,213,89,1,,response7disk_3,TRUE,1,1,"[48,213,252,50,64,206,4,97,86,216,84,169,294,214,6,165,299,196,159,241]",1.3498,rectangle
,,,,,,,,,,,,,FF,,,,,,,,1.9674,,,,,,,,,,,,,,,,,,,,,,60fd73381530a432898654d5,61036ad4970c3c4689702f9a,2021-07-29_21h59.02.339,Simcolourproject_2stim_asymm_v5,2020.2.10,MacIntel,60,61025ae37ef11b136ea224fe,,,,,,,,,2504,79.109375,30.36328125,1,0,0,response1disk,,6,0.00390625,-8.7265625,1,0,0,rectangle,0.00390625,-8.7265625,1,0,0,0.00390625,-8.7265625,1,0,0,1,54,214,83,1,,,,,,,,
,,,,,,,,,,,,,FF,,,,,,,,1.1347,,,,,,,,,,,,,,,,,,,,,,60fd73381530a432898654d5,61036ad4970c3c4689702f9a,2021-07-29_21h59.02.339,Simcolourproject_2stim_asymm_v5,2020.2.10,MacIntel,60,61025ae37ef11b136ea224fe,,,,,,,,,122,80.51171875,-36.03125,1,0,0,response3disk,,5,7.9296875,-5.67578125,1,0,0,rectangle,95.05078125,47.2890625,1,0,0,18.91015625,2.125,1,0,0,1,55,215,158,1,,response1disk_3,TRUE,6,6,"[48,213,252,50,64,206,4,97,86,216,84,169,294,214,6,165,299,196,159,241]",1.4167,rectangle
,,,,,,,,,,,,,FF,,,,,,,,1.5999,,,,,,,,,,,,,,,,,,,,,,60fd73381530a432898654d5,61036ad4970c3c4689702f9a,2021-07-29_21h59.02.339,Simcolourproject_2stim_asymm_v5,2020.2.10,MacIntel,60,61025ae37ef11b136ea224fe,,,,,,,,,1097,28.73046875,66.70703125,1,0,0,response1disk,,7,13.25,7.53515625,1,0,0,rectangle,13.25,7.53515625,1,0,0,13.25,7.53515625,1,0,0,1,56,216,5,1,,,,,,,,
,,,,,,,,,,,,,FF,,,,,,,,0.9829,,,,,,,,,,,,,,,,,,,,,,60fd73381530a432898654d5,61036ad4970c3c4689702f9a,2021-07-29_21h59.02.339,Simcolourproject_2stim_asymm_v5,2020.2.10,MacIntel,60,61025ae37ef11b136ea224fe,,,,,,,,,3427,-39.0625,83.37109375,1,0,0,response7disk,,0,-8.34375,5.33203125,1,0,0,rectangle,-8.34375,5.33203125,1,0,0,-8.34375,5.33203125,1,0,0,1,57,217,32,1,,,,,,,,
,,,,,,,,,,,,,FF,,,,,,,,2.6167,,,,,,,,,,,,,,,,,,,,,,60fd73381530a432898654d5,61036ad4970c3c4689702f9a,2021-07-29_21h59.02.339,Simcolourproject_2stim_asymm_v5,2020.2.10,MacIntel,60,61025ae37ef11b136ea224fe,,,,,,,,,314,82.8984375,-39.21484375,1,0,0,response3disk,,5,5.0390625,-2.82421875,1,0,0,rectangle,5.0390625,-2.82421875,1,0,0,5.0390625,-2.82421875,1,0,0,1,58,218,142,1,,,,,,,,
,,,,,,,,,,,,,FF,,,,,,,,1.134,,,,,,,,,,,,,,,,,,,,,,60fd73381530a432898654d5,61036ad4970c3c4689702f9a,2021-07-29_21h59.02.339,Simcolourproject_2stim_asymm_v5,2020.2.10,MacIntel,60,61025ae37ef11b136ea224fe,,,,,,,,,2652,-28.609375,-61.125,1,0,0,response5disk,,3,-0.65234375,-1.66015625,1,0,0,rectangle,-0.65234375,-1.66015625,1,0,0,-0.65234375,-1.66015625,1,0,0,1,59,219,0,1,,,,,,,,
,,,,,,,,,,,,,FF,,,,,,,,0.817,,,,,,,,,,,,,,,,,,,,,,60fd73381530a432898654d5,61036ad4970c3c4689702f9a,2021-07-29_21h59.02.339,Simcolourproject_2stim_asymm_v5,2020.2.10,MacIntel,60,61025ae37ef11b136ea224fe,,,,,,,,,1303,-97.83203125,-39.4609375,1,0,0,response5disk,,2,-11.6953125,0.859375,1,0,0,rectangle,-11.6953125,0.859375,1,0,0,-11.6953125,0.859375,1,0,0,1,60,220,132,1,,,,,,,,
,,,,,,,,,,,,,FF,,,,,,,,1.2168,,,,,,,,,,,,,,,,,,,,,,60fd73381530a432898654d5,61036ad4970c3c4689702f9a,2021-07-29_21h59.02.339,Simcolourproject_2stim_asymm_v5,2020.2.10,MacIntel,60,61025ae37ef11b136ea224fe,,,,,,,,,2288,-40.38671875,-60.375,1,0,0,response5disk,,3,-4.22265625,-6.3125,1,0,0,rectangle,-4.22265625,-6.3125,1,0,0,-4.22265625,-6.3125,1,0,0,1,61,221,79,1,,,,,,,,
,,,,,,,,,,,,,FF,,,,,,,,0.7668,,,,,,,,,,,,,,,,,,,,,,60fd73381530a432898654d5,61036ad4970c3c4689702f9a,2021-07-29_21h59.02.339,Simcolourproject_2stim_asymm_v5,2020.2.10,MacIntel,60,61025ae37ef11b136ea224fe,,,,,,,,,3711,-74.2734375,-29.80078125,1,0,0,response5disk,,2,-11.671875,-8.66015625,1,0,0,rectangle,-11.671875,-8.66015625,1,0,0,-11.671875,-8.66015625,1,0,0,1,62,222,15,1,,,,,,,,
,,,,,,,,,,,,,FF,,,,,,,,1.1168,,,,,,,,,,,,,,,,,,,,,,60fd73381530a432898654d5,61036ad4970c3c4689702f9a,2021-07-29_21h59.02.339,Simcolourproject_2stim_asymm_v5,2020.2.10,MacIntel,60,61025ae37ef11b136ea224fe,,,,,,,,,2234,-83.8984375,35.078125,1,0,0,response7disk,,1,-18.1796875,5.63671875,1,0,0,rectangle,-18.1796875,5.63671875,1,0,0,-18.1796875,5.63671875,1,0,0,1,63,223,149,1,,,,,,,,
,,,,,,,,,,,,,FF,,,,,,,,1.2672,,,,,,,,,,,,,,,,,,,,,,60fd73381530a432898654d5,61036ad4970c3c4689702f9a,2021-07-29_21h59.02.339,Simcolourproject_2stim_asymm_v5,2020.2.10,MacIntel,60,61025ae37ef11b136ea224fe,,,,,,,,,24,66.10546875,26.30078125,1,0,0,response1disk,,6,-7.3125,-12.98828125,1,0,0,rectangle,-7.3125,-12.98828125,1,0,0,-7.3125,-12.98828125,1,0,0,1,64,224,134,1,,,,,,,,
,,,,,,,,,,,,,FF,,,,,,,,0.916,,,,,,,,,,,,,,,,,,,,,,60fd73381530a432898654d5,61036ad4970c3c4689702f9a,2021-07-29_21h59.02.339,Simcolourproject_2stim_asymm_v5,2020.2.10,MacIntel,60,61025ae37ef11b136ea224fe,,,,,,,,,81,-74.015625,-35.0859375,1,0,0,response5disk,,2,-9.703125,-2.44921875,1,0,0,rectangle,-9.703125,-2.44921875,1,0,0,-9.703125,-2.44921875,1,0,0,1,65,225,124,1,,,,,,,,
,,,,,,,,,,,,,FF,,,,,,,,1.3165,,,,,,,,,,,,,,,,,,,,,,60fd73381530a432898654d5,61036ad4970c3c4689702f9a,2021-07-29_21h59.02.339,Simcolourproject_2stim_asymm_v5,2020.2.10,MacIntel,60,61025ae37ef11b136ea224fe,,,,,,,,,3144,76.05859375,-47.77734375,1,0,0,response3disk,,5,2.3984375,-0.0390625,1,0,0,rectangle,2.3984375,-0.0390625,1,0,0,2.3984375,-0.0390625,1,0,0,1,66,226,148,1,,,,,,,,
,,,,,,,,,,,,,FF,,,,,,,,1.9996,,,,,,,,,,,,,,,,,,,,,,60fd73381530a432898654d5,61036ad4970c3c4689702f9a,2021-07-29_21h59.02.339,Simcolourproject_2stim_asymm_v5,2020.2.10,MacIntel,60,61025ae37ef11b136ea224fe,,,,,,,,,1792,41.5078125,-65.7578125,1,0,0,response3disk,,4,-2.1328125,-0.9921875,1,0,0,rectangle,-2.1328125,-0.9921875,1,0,0,-2.1328125,-0.9921875,1,0,0,1,67,227,101,1,,,,,,,,
,,,,,,,,,,,,,FF,,,,,,,,1.2839,,,,,,,,,,,,,,,,,,,,,,60fd73381530a432898654d5,61036ad4970c3c4689702f9a,2021-07-29_21h59.02.339,Simcolourproject_2stim_asymm_v5,2020.2.10,MacIntel,60,61025ae37ef11b136ea224fe,,,,,,,,,3300,111.4726563,41.0625,1,0,0,response1disk,,6,-2.12109375,3.9765625,1,0,0,rectangle,-2.12109375,3.9765625,1,0,0,-2.12109375,3.9765625,1,0,0,1,68,228,85,1,,,,,,,,
,,,,,,,,,,,,,FF,,,,,,,,0.9831,,,,,,,,,,,,,,,,,,,,,,60fd73381530a432898654d5,61036ad4970c3c4689702f9a,2021-07-29_21h59.02.339,Simcolourproject_2stim_asymm_v5,2020.2.10,MacIntel,60,61025ae37ef11b136ea224fe,,,,,,,,,3320,19.56640625,91.5,1,0,0,response1disk,,7,-0.16796875,-1.49609375,1,0,0,rectangle,-0.16796875,-1.49609375,1,0,0,-0.16796875,-1.49609375,1,0,0,1,69,229,99,1,,,,,,,,
,,,,,,,,,,,,,FF,,,,,,,,0.9503,,,,,,,,,,,,,,,,,,,,,,60fd73381530a432898654d5,61036ad4970c3c4689702f9a,2021-07-29_21h59.02.339,Simcolourproject_2stim_asymm_v5,2020.2.10,MacIntel,60,61025ae37ef11b136ea224fe,,,,,,,,,4270,-86.80078125,-38.640625,1,0,0,response5disk,,2,-9.51171875,-0.78515625,1,0,0,rectangle,-9.51171875,-0.78515625,1,0,0,-9.51171875,-0.78515625,1,0,0,1,70,230,51,1,,,,,,,,
,,,,,,,,,,,,,FF,,,,,,,,0.8842,,,,,,,,,,,,,,,,,,,,,,60fd73381530a432898654d5,61036ad4970c3c4689702f9a,2021-07-29_21h59.02.339,Simcolourproject_2stim_asymm_v5,2020.2.10,MacIntel,60,61025ae37ef11b136ea224fe,,,,,,,,,894,-68.3828125,32.703125,1,0,0,response7disk,,1,-4.87890625,5.734375,1,0,0,rectangle,-4.87890625,5.734375,1,0,0,-4.87890625,5.734375,1,0,0,1,71,231,90,1,,,,,,,,
,,,,,,,,,,,,,FF,,,,,,,,1.0156,,,,,,,,,,,,,,,,,,,,,,60fd73381530a432898654d5,61036ad4970c3c4689702f9a,2021-07-29_21h59.02.339,Simcolourproject_2stim_asymm_v5,2020.2.10,MacIntel,60,61025ae37ef11b136ea224fe,,,,,,,,,4138,36.71484375,92.56640625,1,0,0,response1disk,,7,4.07421875,-4.140625,1,0,0,rectangle,4.07421875,-4.140625,1,0,0,4.07421875,-4.140625,1,0,0,1,72,232,111,1,,,,,,,,
,,,,,,,,,,,,,FF,,,,,,,,0.7666,,,,,,,,,,,,,,,,,,,,,,60fd73381530a432898654d5,61036ad4970c3c4689702f9a,2021-07-29_21h59.02.339,Simcolourproject_2stim_asymm_v5,2020.2.10,MacIntel,60,61025ae37ef11b136ea224fe,,,,,,,,,3455,35.25390625,75.25,1,0,0,response1disk,,7,-0.8125,3.29296875,1,0,0,rectangle,-0.8125,3.29296875,1,0,0,-0.8125,3.29296875,1,0,0,1,73,233,157,1,,,,,,,,
,,,,,,,,,,,,,FF,,,,,,,,1.2833,,,,,,,,,,,,,,,,,,,,,,60fd73381530a432898654d5,61036ad4970c3c4689702f9a,2021-07-29_21h59.02.339,Simcolourproject_2stim_asymm_v5,2020.2.10,MacIntel,60,61025ae37ef11b136ea224fe,,,,,,,,,3063,75.83984375,-36.65234375,1,0,0,response3disk,,5,3.1171875,-4.1640625,1,0,0,rectangle,3.1171875,-4.1640625,1,0,0,3.1171875,-4.1640625,1,0,0,1,74,234,93,1,,,,,,,,
,,,,,,,,,,,,,FF,,,,,,,,1.0834,,,,,,,,,,,,,,,,,,,,,,60fd73381530a432898654d5,61036ad4970c3c4689702f9a,2021-07-29_21h59.02.339,Simcolourproject_2stim_asymm_v5,2020.2.10,MacIntel,60,61025ae37ef11b136ea224fe,,,,,,,,,272,82.29296875,-38.30859375,1,0,0,response3disk,,5,25.91015625,-8.69140625,1,0,0,rectangle,25.91015625,-8.69140625,1,0,0,25.91015625,-8.69140625,1,0,0,1,75,235,52,1,,,,,,,,
,,,,,,,,,,,,,FF,,,,,,,,0.8995,,,,,,,,,,,,,,,,,,,,,,60fd73381530a432898654d5,61036ad4970c3c4689702f9a,2021-07-29_21h59.02.339,Simcolourproject_2stim_asymm_v5,2020.2.10,MacIntel,60,61025ae37ef11b136ea224fe,,,,,,,,,3808,95.34765625,30.1015625,1,0,0,response1disk,,6,9.7109375,4.34375,1,0,0,rectangle,9.7109375,4.34375,1,0,0,9.7109375,4.34375,1,0,0,1,76,236,71,1,,,,,,,,
,,,,,,,,,,,,,FF,,,,,,,,0.7341,,,,,,,,,,,,,,,,,,,,,,60fd73381530a432898654d5,61036ad4970c3c4689702f9a,2021-07-29_21h59.02.339,Simcolourproject_2stim_asymm_v5,2020.2.10,MacIntel,60,61025ae37ef11b136ea224fe,,,,,,,,,4269,-68.125,-24.9765625,1,0,0,response5disk,,2,-13.08984375,-9.22265625,1,0,0,rectangle,-13.08984375,-9.22265625,1,0,0,-13.08984375,-9.22265625,1,0,0,1,77,237,29,1,,,,,,,,
,,,,,,,,,,,,,FF,,,,,,,,1.4502,,,,,,,,,,,,,,,,,,,,,,60fd73381530a432898654d5,61036ad4970c3c4689702f9a,2021-07-29_21h59.02.339,Simcolourproject_2stim_asymm_v5,2020.2.10,MacIntel,60,61025ae37ef11b136ea224fe,,,,,,,,,4075,83.19921875,-24.34375,1,0,0,response3disk,,5,-7.453125,-3.1953125,1,0,0,rectangle,-7.453125,-3.1953125,1,0,0,-7.453125,-3.1953125,1,0,0,1,78,238,110,1,,,,,,,,
,,,,,,,,,,,,,FF,,,,,,,,0.9657,,,,,,,,,,,,,,,,,,,,,,60fd73381530a432898654d5,61036ad4970c3c4689702f9a,2021-07-29_21h59.02.339,Simcolourproject_2stim_asymm_v5,2020.2.10,MacIntel,60,61025ae37ef11b136ea224fe,,,,,,,,,592,-38.62890625,-87.4296875,1,0,0,response5disk,,3,-20.48046875,-16.234375,1,0,0,rectangle,-20.48046875,-16.234375,1,0,0,-20.48046875,-16.234375,1,0,0,1,79,239,65,1,,,,,,,,
,,,,,,,,,,,,,FF,,,,,,,,1.6326,,,,,,,,,,,,,,,,,,,,,,60fd73381530a432898654d5,61036ad4970c3c4689702f9a,2021-07-29_21h59.02.339,Simcolourproject_2stim_asymm_v5,2020.2.10,MacIntel,60,61025ae37ef11b136ea224fe,,,,,,,,,3696,38.2578125,-84.1484375,1,0,0,response3disk,,4,1.01171875,-8.265625,1,0,0,rectangle,-84.4296875,-36.89453125,1,0,0,-12.94140625,-4.78515625,1,0,0,1,80,240,39,1,,response5disk_3,TRUE,2,2,"[48,213,252,50,64,206,4,97,86,216,84,169,294,214,6,165,299,196,159,241]",1.8164,rectangle
,,,,,,,,,,,,,FF,,,,,,,,2.6999,,,,,,,,,,,,,,,,,,,,,,60fd73381530a432898654d5,61036ad4970c3c4689702f9a,2021-07-29_21h59.02.339,Simcolourproject_2stim_asymm_v5,2020.2.10,MacIntel,60,61025ae37ef11b136ea224fe,,,,,,,,,2447,94.5390625,31.28515625,1,0,0,response1disk,,6,9.96875,-4.63671875,1,0,0,rectangle,9.96875,-4.63671875,1,0,0,9.96875,-4.63671875,1,0,0,1,81,241,139,1,,,,,,,,
,,,,,,,,,,,,,FF,,,,,,,,1.2848,,,,,,,,,,,,,,,,,,,,,,60fd73381530a432898654d5,61036ad4970c3c4689702f9a,2021-07-29_21h59.02.339,Simcolourproject_2stim_asymm_v5,2020.2.10,MacIntel,60,61025ae37ef11b136ea224fe,,,,,,,,,1505,67.47265625,-30.8203125,1,0,0,response3disk,,5,3.9609375,-10.9765625,1,0,0,rectangle,3.9609375,-10.9765625,1,0,0,3.9609375,-10.9765625,1,0,0,1,82,242,97,1,,,,,,,,
,,,,,,,,,,,,,FF,,,,,,,,1.0662,,,,,,,,,,,,,,,,,,,,,,60fd73381530a432898654d5,61036ad4970c3c4689702f9a,2021-07-29_21h59.02.339,Simcolourproject_2stim_asymm_v5,2020.2.10,MacIntel,60,61025ae37ef11b136ea224fe,,,,,,,,,693,-32.33203125,-90.1484375,1,0,0,response5disk,,3,-20.875,-0.359375,1,0,0,rectangle,-20.875,-0.359375,1,0,0,-20.875,-0.359375,1,0,0,1,83,243,11,1,,,,,,,,
,,,,,,,,,,,,,FF,,,,,,,,0.7837,,,,,,,,,,,,,,,,,,,,,,60fd73381530a432898654d5,61036ad4970c3c4689702f9a,2021-07-29_21h59.02.339,Simcolourproject_2stim_asymm_v5,2020.2.10,MacIntel,60,61025ae37ef11b136ea224fe,,,,,,,,,4197,39.0625,-56.9921875,1,0,0,response3disk,,4,4.57421875,-7.91015625,1,0,0,rectangle,4.57421875,-7.91015625,1,0,0,4.57421875,-7.91015625,1,0,0,1,84,244,1,1,,,,,,,,
,,,,,,,,,,,,,FF,,,,,,,,1.0175,,,,,,,,,,,,,,,,,,,,,,60fd73381530a432898654d5,61036ad4970c3c4689702f9a,2021-07-29_21h59.02.339,Simcolourproject_2stim_asymm_v5,2020.2.10,MacIntel,60,61025ae37ef11b136ea224fe,,,,,,,,,2044,-22.91015625,-82.78125,1,0,0,response5disk,,3,-1.78515625,-6.8359375,1,0,0,rectangle,-1.78515625,-6.8359375,1,0,0,-1.78515625,-6.8359375,1,0,0,1,85,245,80,1,,,,,,,,
,,,,,,,,,,,,,FF,,,,,,,,0.8841,,,,,,,,,,,,,,,,,,,,,,60fd73381530a432898654d5,61036ad4970c3c4689702f9a,2021-07-29_21h59.02.339,Simcolourproject_2stim_asymm_v5,2020.2.10,MacIntel,60,61025ae37ef11b136ea224fe,,,,,,,,,1381,-38.4609375,-70.02734375,1,0,0,response5disk,,3,-12.234375,-4.42578125,1,0,0,rectangle,-12.234375,-4.42578125,1,0,0,-12.234375,-4.42578125,1,0,0,1,86,246,22,1,,,,,,,,
,,,,,,,,,,,,,FF,,,,,,,,0.7177,,,,,,,,,,,,,,,,,,,,,,60fd73381530a432898654d5,61036ad4970c3c4689702f9a,2021-07-29_21h59.02.339,Simcolourproject_2stim_asymm_v5,2020.2.10,MacIntel,60,61025ae37ef11b136ea224fe,,,,,,,,,3646,51.4765625,-28.91796875,1,0,0,response3disk,,5,5.48828125,-6.78125,1,0,0,rectangle,5.48828125,-6.78125,1,0,0,5.48828125,-6.78125,1,0,0,1,87,247,3,1,,,,,,,,
