key_resp.keys,key_resp.rt,key_resp_14.keys,key_resp_14.rt,key_resp_15.keys,key_resp_15.rt,key_resp_17.keys,key_resp_17.rt,key_resp_9.keys,key_resp_9.rt,key_resp_10.keys,key_resp_10.rt,practice_comparison,Ecc,mouse_5.x,mouse_5.y,mouse_5.leftButton,mouse_5.midButton,mouse_5.rightButton,mouse_5.clicked_name,pracsimilarity,response_time,mouse_10.x,mouse_10.y,mouse_10.leftButton,mouse_10.midButton,mouse_10.rightButton,mouse_10.clicked_name,mouse_7.x,mouse_7.y,mouse_7.leftButton,mouse_7.midButton,mouse_7.rightButton,mouse_6.x,mouse_6.y,mouse_6.leftButton,mouse_6.midButton,mouse_6.rightButton,duringprac.thisRepN,duringprac.thisTrialN,duringprac.thisN,duringprac.thisIndex,duringprac.ran,participant,session,date,expName,psychopyVersion,OS,frameRate,study_id,mouse_7.clicked_name,catchpracsimilarity,catch_response_time,catchnumberprac,catchtrialorderprac,mouse_6.clicked_name,key_resp_22.keys,key_resp_22.rt,realcomparison,mouse.x,mouse.y,mouse.leftButton,mouse.midButton,mouse.rightButton,mouse.clicked_name,Colour2,similarity,mouse_2.x,mouse_2.y,mouse_2.leftButton,mouse_2.midButton,mouse_2.rightButton,mouse_2.clicked_name,mouse_3.x,mouse_3.y,mouse_3.leftButton,mouse_3.midButton,mouse_3.rightButton,mouse_11.x,mouse_11.y,mouse_11.leftButton,mouse_11.midButton,mouse_11.rightButton,trials_2.thisRepN,trials_2.thisTrialN,trials_2.thisN,trials_2.thisIndex,trials_2.ran,Colour1,mouse_3.clicked_name,catchornah,catchsimilarity,catchnumber,catchtrialorder,catchRT,mouse_11.clicked_name
space,1.6107,space,13.9826,space,9.1492,space,8.8343,space,4.4332,space,3.9346,48,FF,46.09765625,94.05859375,1,0,0,response1disk_5,7,3.5538,5.796875,-5.265625,1,0,0,rectangle_8,5.796875,-5.265625,1,0,0,5.796875,-5.265625,1,0,0,0,0,0,3,1,60fd530163a49887a66afdc0,61036f25d34988d5298eee86,2021-07-30_13h19.16.810,Simcolourproject_2stim_asymm_v5,2020.2.10,MacIntel,60,61025ae37ef11b136ea224fe,,,,,,,,,,,,,,,,,,,,,,,,,,,,,,,,,,,,,,,,,,,,,,
,,,,,,,,,,,,60,FF,47.6953125,101.5351563,1,0,0,response1disk_5,7,1.5019,0.5859375,-15.0859375,1,0,0,rectangle_8,-64.91015625,25.40625,1,0,0,-1.57421875,-9.79296875,1,0,0,0,1,1,0,1,60fd530163a49887a66afdc0,61036f25d34988d5298eee86,2021-07-30_13h19.16.810,Simcolourproject_2stim_asymm_v5,2020.2.10,MacIntel,60,61025ae37ef11b136ea224fe,response7disk_7,1,4.2849,1,"[2,5]",rectangle_4,,,,,,,,,,,,,,,,,,,,,,,,,,,,,,,,,,,,,,,,
,,,,,,,,,,,,38,PF,46.57421875,71.75390625,1,0,0,response1disk_5,7,1.9331,7.82421875,4.98046875,1,0,0,rectangle_8,7.82421875,4.98046875,1,0,0,7.82421875,4.98046875,1,0,0,0,2,2,2,1,60fd530163a49887a66afdc0,61036f25d34988d5298eee86,2021-07-30_13h19.16.810,Simcolourproject_2stim_asymm_v5,2020.2.10,MacIntel,60,61025ae37ef11b136ea224fe,,,,,,,,,,,,,,,,,,,,,,,,,,,,,,,,,,,,,,,,,,,,,,
,,,,,,,,,,,,5,PF,29.24609375,-99.1484375,1,0,0,response3disk_5,4,2.6662,9.31640625,5.53125,1,0,0,rectangle_8,9.31640625,5.53125,1,0,0,9.31640625,5.53125,1,0,0,0,3,3,6,1,60fd530163a49887a66afdc0,61036f25d34988d5298eee86,2021-07-30_13h19.16.810,Simcolourproject_2stim_asymm_v5,2020.2.10,MacIntel,60,61025ae37ef11b136ea224fe,,,,,,,,,,,,,,,,,,,,,,,,,,,,,,,,,,,,,,,,,,,,,,
,,,,,,,,,,,,95,FF,-28.8125,-114.4921875,1,0,0,response5disk_5,3,1.9684,1.3046875,-5.125,1,0,0,rectangle_8,-67.19140625,44.62890625,1,0,0,-10.29296875,0.11328125,1,0,0,0,4,4,5,1,60fd530163a49887a66afdc0,61036f25d34988d5298eee86,2021-07-30_13h19.16.810,Simcolourproject_2stim_asymm_v5,2020.2.10,MacIntel,60,61025ae37ef11b136ea224fe,response7disk_7,1,3.2828,1,"[2,5]",rectangle_4,,,,,,,,,,,,,,,,,,,,,,,,,,,,,,,,,,,,,,,,
,,,,,,,,,,,,58,PF,90.68359375,24.36328125,1,0,0,response1disk_5,6,1.6518,13.046875,-9.765625,1,0,0,rectangle_8,13.046875,-9.765625,1,0,0,13.046875,-9.765625,1,0,0,0,5,5,1,1,60fd530163a49887a66afdc0,61036f25d34988d5298eee86,2021-07-30_13h19.16.810,Simcolourproject_2stim_asymm_v5,2020.2.10,MacIntel,60,61025ae37ef11b136ea224fe,,,,,,,,,,,,,,,,,,,,,,,,,,,,,,,,,,,,,,,,,,,,,,
,,,,,,,,,,,,36,PF,-90.421875,-39.578125,1,0,0,response5disk_5,2,1.8524,-1.3359375,2.58984375,1,0,0,rectangle_8,-1.3359375,2.58984375,1,0,0,-1.3359375,2.58984375,1,0,0,0,6,6,4,1,60fd530163a49887a66afdc0,61036f25d34988d5298eee86,2021-07-30_13h19.16.810,Simcolourproject_2stim_asymm_v5,2020.2.10,MacIntel,60,61025ae37ef11b136ea224fe,,,,,,,,,,,,,,,,,,,,,,,,,,,,,,,,,,,,,,,,,,,,,,
,,,,,,,,,,,,,FF,,,,,,,,3.0836,,,,,,,,,,,,,,,,,,,,,,60fd530163a49887a66afdc0,61036f25d34988d5298eee86,2021-07-30_13h19.16.810,Simcolourproject_2stim_asymm_v5,2020.2.10,MacIntel,60,61025ae37ef11b136ea224fe,,,,,,,space,3.1775,3562,-32.0546875,-101.0820313,1,0,0,response5disk,,3,-1.46875,0.2578125,1,0,0,rectangle,-1.46875,0.2578125,1,0,0,-1.46875,0.2578125,1,0,0,0,0,0,13,1,,,,,,,,
,,,,,,,,,,,,,FF,,,,,,,,1.5186,,,,,,,,,,,,,,,,,,,,,,60fd530163a49887a66afdc0,61036f25d34988d5298eee86,2021-07-30_13h19.16.810,Simcolourproject_2stim_asymm_v5,2020.2.10,MacIntel,60,61025ae37ef11b136ea224fe,,,,,,,,,1634,39.3515625,70.00390625,1,0,0,response1disk,,7,-2.89453125,-4.94140625,1,0,0,rectangle,-2.89453125,-4.94140625,1,0,0,-2.89453125,-4.94140625,1,0,0,0,1,1,74,1,,,,,,,,
,,,,,,,,,,,,,FF,,,,,,,,1.4338,,,,,,,,,,,,,,,,,,,,,,60fd530163a49887a66afdc0,61036f25d34988d5298eee86,2021-07-30_13h19.16.810,Simcolourproject_2stim_asymm_v5,2020.2.10,MacIntel,60,61025ae37ef11b136ea224fe,,,,,,,,,1018,72.046875,41.12109375,1,0,0,response1disk,,6,0.3359375,-2.23046875,1,0,0,rectangle,0.3359375,-2.23046875,1,0,0,0.3359375,-2.23046875,1,0,0,0,2,2,86,1,,,,,,,,
,,,,,,,,,,,,,FF,,,,,,,,1.3008,,,,,,,,,,,,,,,,,,,,,,60fd530163a49887a66afdc0,61036f25d34988d5298eee86,2021-07-30_13h19.16.810,Simcolourproject_2stim_asymm_v5,2020.2.10,MacIntel,60,61025ae37ef11b136ea224fe,,,,,,,,,3075,50.8203125,85.05859375,1,0,0,response1disk,,7,6.37109375,1.8828125,1,0,0,rectangle,6.37109375,1.8828125,1,0,0,6.37109375,1.8828125,1,0,0,0,3,3,146,1,,,,,,,,
,,,,,,,,,,,,,FF,,,,,,,,1.1162,,,,,,,,,,,,,,,,,,,,,,60fd530163a49887a66afdc0,61036f25d34988d5298eee86,2021-07-30_13h19.16.810,Simcolourproject_2stim_asymm_v5,2020.2.10,MacIntel,60,61025ae37ef11b136ea224fe,,,,,,,,,1416,43.39453125,76.1328125,1,0,0,response1disk,,7,12.2734375,-0.50390625,1,0,0,rectangle,12.2734375,-0.50390625,1,0,0,12.2734375,-0.50390625,1,0,0,0,4,4,112,1,,,,,,,,
,,,,,,,,,,,,,FF,,,,,,,,1.2351,,,,,,,,,,,,,,,,,,,,,,60fd530163a49887a66afdc0,61036f25d34988d5298eee86,2021-07-30_13h19.16.810,Simcolourproject_2stim_asymm_v5,2020.2.10,MacIntel,60,61025ae37ef11b136ea224fe,,,,,,,,,1976,-43.4140625,-86.38671875,1,0,0,response5disk,,3,-2.125,-4.03515625,1,0,0,rectangle,-2.125,-4.03515625,1,0,0,-2.125,-4.03515625,1,0,0,0,5,5,69,1,,,,,,,,
,,,,,,,,,,,,,FF,,,,,,,,1.2475,,,,,,,,,,,,,,,,,,,,,,60fd530163a49887a66afdc0,61036f25d34988d5298eee86,2021-07-30_13h19.16.810,Simcolourproject_2stim_asymm_v5,2020.2.10,MacIntel,60,61025ae37ef11b136ea224fe,,,,,,,,,1173,-38.0234375,-84.609375,1,0,0,response5disk,,3,-6.5234375,-6.30078125,1,0,0,rectangle,-6.5234375,-6.30078125,1,0,0,-6.5234375,-6.30078125,1,0,0,0,6,6,1,1,,,,,,,,
,,,,,,,,,,,,,FF,,,,,,,,3.2168,,,,,,,,,,,,,,,,,,,,,,60fd530163a49887a66afdc0,61036f25d34988d5298eee86,2021-07-30_13h19.16.810,Simcolourproject_2stim_asymm_v5,2020.2.10,MacIntel,60,61025ae37ef11b136ea224fe,,,,,,,,,1591,91.4375,-49.06640625,1,0,0,response3disk,,5,14.66796875,-6.32421875,1,0,0,rectangle,14.66796875,-6.32421875,1,0,0,14.66796875,-6.32421875,1,0,0,0,7,7,137,1,,,,,,,,
,,,,,,,,,,,,,FF,,,,,,,,1.3333,,,,,,,,,,,,,,,,,,,,,,60fd530163a49887a66afdc0,61036f25d34988d5298eee86,2021-07-30_13h19.16.810,Simcolourproject_2stim_asymm_v5,2020.2.10,MacIntel,60,61025ae37ef11b136ea224fe,,,,,,,,,1711,29.6015625,72.59765625,1,0,0,response1disk,,7,-0.84765625,0.359375,1,0,0,rectangle,-0.84765625,0.359375,1,0,0,-0.84765625,0.359375,1,0,0,0,8,8,133,1,,,,,,,,
,,,,,,,,,,,,,FF,,,,,,,,1.1007,,,,,,,,,,,,,,,,,,,,,,60fd530163a49887a66afdc0,61036f25d34988d5298eee86,2021-07-30_13h19.16.810,Simcolourproject_2stim_asymm_v5,2020.2.10,MacIntel,60,61025ae37ef11b136ea224fe,,,,,,,,,2887,-61.65625,19.16015625,1,0,0,response7disk,,1,-17.2421875,12.74609375,1,0,0,rectangle,-17.2421875,12.74609375,1,0,0,-17.2421875,12.74609375,1,0,0,0,9,9,135,1,,,,,,,,
,,,,,,,,,,,,,FF,,,,,,,,1.7531,,,,,,,,,,,,,,,,,,,,,,60fd530163a49887a66afdc0,61036f25d34988d5298eee86,2021-07-30_13h19.16.810,Simcolourproject_2stim_asymm_v5,2020.2.10,MacIntel,60,61025ae37ef11b136ea224fe,,,,,,,,,1198,55.671875,102.3867188,1,0,0,response1disk,,7,15.73046875,15.890625,1,0,0,rectangle,107.1367188,-51.734375,1,0,0,19.80078125,-0.9296875,1,0,0,0,10,10,110,1,,response3disk_3,TRUE,5,5,"[160,33,291,238,234,101,89,58,101,83,0,23,220,262,86,95,11,315,283,21]",2.9697,rectangle
,,,,,,,,,,,,,FF,,,,,,,,1.05,,,,,,,,,,,,,,,,,,,,,,60fd530163a49887a66afdc0,61036f25d34988d5298eee86,2021-07-30_13h19.16.810,Simcolourproject_2stim_asymm_v5,2020.2.10,MacIntel,60,61025ae37ef11b136ea224fe,,,,,,,,,3621,45.25390625,84.41796875,1,0,0,response1disk,,7,10.75390625,13.18359375,1,0,0,rectangle,10.75390625,13.18359375,1,0,0,10.75390625,13.18359375,1,0,0,0,11,11,36,1,,,,,,,,
,,,,,,,,,,,,,FF,,,,,,,,1.2481,,,,,,,,,,,,,,,,,,,,,,60fd530163a49887a66afdc0,61036f25d34988d5298eee86,2021-07-30_13h19.16.810,Simcolourproject_2stim_asymm_v5,2020.2.10,MacIntel,60,61025ae37ef11b136ea224fe,,,,,,,,,3872,-42.3359375,-96.04296875,1,0,0,response5disk,,3,-3.9375,-8.25390625,1,0,0,rectangle,-3.9375,-8.25390625,1,0,0,-3.9375,-8.25390625,1,0,0,0,12,12,153,1,,,,,,,,
,,,,,,,,,,,,,FF,,,,,,,,1.7181,,,,,,,,,,,,,,,,,,,,,,60fd530163a49887a66afdc0,61036f25d34988d5298eee86,2021-07-30_13h19.16.810,Simcolourproject_2stim_asymm_v5,2020.2.10,MacIntel,60,61025ae37ef11b136ea224fe,,,,,,,,,2461,64.8515625,82.8671875,1,0,0,response1disk,,7,7.3984375,-1.32421875,1,0,0,rectangle,7.3984375,-1.32421875,1,0,0,7.3984375,-1.32421875,1,0,0,0,13,13,56,1,,,,,,,,
,,,,,,,,,,,,,FF,,,,,,,,1.1681,,,,,,,,,,,,,,,,,,,,,,60fd530163a49887a66afdc0,61036f25d34988d5298eee86,2021-07-30_13h19.16.810,Simcolourproject_2stim_asymm_v5,2020.2.10,MacIntel,60,61025ae37ef11b136ea224fe,,,,,,,,,1557,103.0078125,46.20703125,1,0,0,response1disk,,6,-2.89453125,3.50390625,1,0,0,rectangle,-2.89453125,3.50390625,1,0,0,-2.89453125,3.50390625,1,0,0,0,14,14,14,1,,,,,,,,
,,,,,,,,,,,,,FF,,,,,,,,1.3016,,,,,,,,,,,,,,,,,,,,,,60fd530163a49887a66afdc0,61036f25d34988d5298eee86,2021-07-30_13h19.16.810,Simcolourproject_2stim_asymm_v5,2020.2.10,MacIntel,60,61025ae37ef11b136ea224fe,,,,,,,,,3185,35.296875,83.5625,1,0,0,response1disk,,7,-2.5,3.27734375,1,0,0,rectangle,-2.5,3.27734375,1,0,0,-2.5,3.27734375,1,0,0,0,15,15,75,1,,,,,,,,
,,,,,,,,,,,,,FF,,,,,,,,1.1001,,,,,,,,,,,,,,,,,,,,,,60fd530163a49887a66afdc0,61036f25d34988d5298eee86,2021-07-30_13h19.16.810,Simcolourproject_2stim_asymm_v5,2020.2.10,MacIntel,60,61025ae37ef11b136ea224fe,,,,,,,,,4110,28.00390625,71.7890625,1,0,0,response1disk,,7,-13.7109375,-4.08203125,1,0,0,rectangle,-13.7109375,-4.08203125,1,0,0,-13.7109375,-4.08203125,1,0,0,0,16,16,113,1,,,,,,,,
,,,,,,,,,,,,,FF,,,,,,,,1.5489,,,,,,,,,,,,,,,,,,,,,,60fd530163a49887a66afdc0,61036f25d34988d5298eee86,2021-07-30_13h19.16.810,Simcolourproject_2stim_asymm_v5,2020.2.10,MacIntel,60,61025ae37ef11b136ea224fe,,,,,,,,,3322,45.75,79.12890625,1,0,0,response1disk,,7,14.80859375,12.41015625,1,0,0,rectangle,14.80859375,12.41015625,1,0,0,14.80859375,12.41015625,1,0,0,0,17,17,102,1,,,,,,,,
,,,,,,,,,,,,,FF,,,,,,,,0.8326,,,,,,,,,,,,,,,,,,,,,,60fd530163a49887a66afdc0,61036f25d34988d5298eee86,2021-07-30_13h19.16.810,Simcolourproject_2stim_asymm_v5,2020.2.10,MacIntel,60,61025ae37ef11b136ea224fe,,,,,,,,,483,42.33203125,75.8203125,1,0,0,response1disk,,7,7.5625,-1.34375,1,0,0,rectangle,7.5625,-1.34375,1,0,0,7.5625,-1.34375,1,0,0,0,18,18,81,1,,,,,,,,
,,,,,,,,,,,,,FF,,,,,,,,1.0167,,,,,,,,,,,,,,,,,,,,,,60fd530163a49887a66afdc0,61036f25d34988d5298eee86,2021-07-30_13h19.16.810,Simcolourproject_2stim_asymm_v5,2020.2.10,MacIntel,60,61025ae37ef11b136ea224fe,,,,,,,,,2794,-30.69921875,-92.9765625,1,0,0,response5disk,,3,5.52734375,4.62109375,1,0,0,rectangle,5.52734375,4.62109375,1,0,0,5.52734375,4.62109375,1,0,0,0,19,19,59,1,,,,,,,,
,,,,,,,,,,,,,FF,,,,,,,,1.4994,,,,,,,,,,,,,,,,,,,,,,60fd530163a49887a66afdc0,61036f25d34988d5298eee86,2021-07-30_13h19.16.810,Simcolourproject_2stim_asymm_v5,2020.2.10,MacIntel,60,61025ae37ef11b136ea224fe,,,,,,,,,1593,66.9765625,-88.08203125,1,0,0,response3disk,,4,13.328125,-2.01171875,1,0,0,rectangle,43.49609375,81.45703125,1,0,0,-2.890625,1.9921875,1,0,0,0,20,20,43,1,,response1disk_3,TRUE,7,7,"[160,33,291,238,234,101,89,58,101,83,0,23,220,262,86,95,11,315,283,21]",2.3977,rectangle
,,,,,,,,,,,,,FF,,,,,,,,0.9341,,,,,,,,,,,,,,,,,,,,,,60fd530163a49887a66afdc0,61036f25d34988d5298eee86,2021-07-30_13h19.16.810,Simcolourproject_2stim_asymm_v5,2020.2.10,MacIntel,60,61025ae37ef11b136ea224fe,,,,,,,,,328,43.94921875,88.81640625,1,0,0,response1disk,,7,-1.0859375,-6.2734375,1,0,0,rectangle,-1.0859375,-6.2734375,1,0,0,-1.0859375,-6.2734375,1,0,0,0,21,21,83,1,,,,,,,,
,,,,,,,,,,,,,FF,,,,,,,,1.2341,,,,,,,,,,,,,,,,,,,,,,60fd530163a49887a66afdc0,61036f25d34988d5298eee86,2021-07-30_13h19.16.810,Simcolourproject_2stim_asymm_v5,2020.2.10,MacIntel,60,61025ae37ef11b136ea224fe,,,,,,,,,735,-36.1796875,-95.92578125,1,0,0,response5disk,,3,1.43359375,-5.90625,1,0,0,rectangle,45.07421875,78.29296875,1,0,0,5.58203125,-1.4609375,1,0,0,0,22,22,120,1,,response1disk_3,TRUE,7,7,"[160,33,291,238,234,101,89,58,101,83,0,23,220,262,86,95,11,315,283,21]",1.916,rectangle
,,,,,,,,,,,,,FF,,,,,,,,1.0247,,,,,,,,,,,,,,,,,,,,,,60fd530163a49887a66afdc0,61036f25d34988d5298eee86,2021-07-30_13h19.16.810,Simcolourproject_2stim_asymm_v5,2020.2.10,MacIntel,60,61025ae37ef11b136ea224fe,,,,,,,,,2723,-74.984375,-34.16796875,1,0,0,response5disk,,2,-9.73828125,-4.25,1,0,0,rectangle,-9.73828125,-4.25,1,0,0,-9.73828125,-4.25,1,0,0,0,23,23,15,1,,,,,,,,
,,,,,,,,,,,,,FF,,,,,,,,1.8359,,,,,,,,,,,,,,,,,,,,,,60fd530163a49887a66afdc0,61036f25d34988d5298eee86,2021-07-30_13h19.16.810,Simcolourproject_2stim_asymm_v5,2020.2.10,MacIntel,60,61025ae37ef11b136ea224fe,,,,,,,,,1766,52.66796875,93.60546875,1,0,0,response1disk,,7,7.9375,4.17578125,1,0,0,rectangle,7.9375,4.17578125,1,0,0,7.9375,4.17578125,1,0,0,0,24,24,22,1,,,,,,,,
,,,,,,,,,,,,,FF,,,,,,,,0.9089,,,,,,,,,,,,,,,,,,,,,,60fd530163a49887a66afdc0,61036f25d34988d5298eee86,2021-07-30_13h19.16.810,Simcolourproject_2stim_asymm_v5,2020.2.10,MacIntel,60,61025ae37ef11b136ea224fe,,,,,,,,,2810,42.3203125,85.25390625,1,0,0,response1disk,,7,13.8203125,3.66796875,1,0,0,rectangle,13.8203125,3.66796875,1,0,0,13.8203125,3.66796875,1,0,0,0,25,25,3,1,,,,,,,,
,,,,,,,,,,,,,FF,,,,,,,,1.0989,,,,,,,,,,,,,,,,,,,,,,60fd530163a49887a66afdc0,61036f25d34988d5298eee86,2021-07-30_13h19.16.810,Simcolourproject_2stim_asymm_v5,2020.2.10,MacIntel,60,61025ae37ef11b136ea224fe,,,,,,,,,259,-75.40234375,-33.77734375,1,0,0,response5disk,,2,-18.5703125,-7.37109375,1,0,0,rectangle,-18.5703125,-7.37109375,1,0,0,-18.5703125,-7.37109375,1,0,0,0,26,26,96,1,,,,,,,,
,,,,,,,,,,,,,FF,,,,,,,,2.1782,,,,,,,,,,,,,,,,,,,,,,60fd530163a49887a66afdc0,61036f25d34988d5298eee86,2021-07-30_13h19.16.810,Simcolourproject_2stim_asymm_v5,2020.2.10,MacIntel,60,61025ae37ef11b136ea224fe,,,,,,,,,1233,47.56640625,-77.83984375,1,0,0,response3disk,,4,18.8046875,-4.49609375,1,0,0,rectangle,18.8046875,-4.49609375,1,0,0,18.8046875,-4.49609375,1,0,0,0,27,27,156,1,,,,,,,,
,,,,,,,,,,,,,FF,,,,,,,,0.8996,,,,,,,,,,,,,,,,,,,,,,60fd530163a49887a66afdc0,61036f25d34988d5298eee86,2021-07-30_13h19.16.810,Simcolourproject_2stim_asymm_v5,2020.2.10,MacIntel,60,61025ae37ef11b136ea224fe,,,,,,,,,2445,48.1484375,77.80078125,1,0,0,response1disk,,7,-4.15625,0.890625,1,0,0,rectangle,-4.15625,0.890625,1,0,0,-4.15625,0.890625,1,0,0,0,28,28,130,1,,,,,,,,
,,,,,,,,,,,,,FF,,,,,,,,1.8001,,,,,,,,,,,,,,,,,,,,,,60fd530163a49887a66afdc0,61036f25d34988d5298eee86,2021-07-30_13h19.16.810,Simcolourproject_2stim_asymm_v5,2020.2.10,MacIntel,60,61025ae37ef11b136ea224fe,,,,,,,,,3112,51.05859375,-71.05859375,1,0,0,response3disk,,4,15.23828125,-2.7421875,1,0,0,rectangle,15.23828125,-2.7421875,1,0,0,15.23828125,-2.7421875,1,0,0,0,29,29,91,1,,,,,,,,
,,,,,,,,,,,,,FF,,,,,,,,1.2332,,,,,,,,,,,,,,,,,,,,,,60fd530163a49887a66afdc0,61036f25d34988d5298eee86,2021-07-30_13h19.16.810,Simcolourproject_2stim_asymm_v5,2020.2.10,MacIntel,60,61025ae37ef11b136ea224fe,,,,,,,,,1888,-88.49609375,-34.2265625,1,0,0,response5disk,,2,-5.12890625,-0.13671875,1,0,0,rectangle,-5.12890625,-0.13671875,1,0,0,-5.12890625,-0.13671875,1,0,0,0,30,30,109,1,,,,,,,,
,,,,,,,,,,,,,FF,,,,,,,,0.9831,,,,,,,,,,,,,,,,,,,,,,60fd530163a49887a66afdc0,61036f25d34988d5298eee86,2021-07-30_13h19.16.810,Simcolourproject_2stim_asymm_v5,2020.2.10,MacIntel,60,61025ae37ef11b136ea224fe,,,,,,,,,3272,37.36328125,76.75,1,0,0,response1disk,,7,-4.17578125,-2.28125,1,0,0,rectangle,-4.17578125,-2.28125,1,0,0,-4.17578125,-2.28125,1,0,0,0,31,31,18,1,,,,,,,,
,,,,,,,,,,,,,FF,,,,,,,,1.6516,,,,,,,,,,,,,,,,,,,,,,60fd530163a49887a66afdc0,61036f25d34988d5298eee86,2021-07-30_13h19.16.810,Simcolourproject_2stim_asymm_v5,2020.2.10,MacIntel,60,61025ae37ef11b136ea224fe,,,,,,,,,229,41.359375,111.578125,1,0,0,response1disk,,7,-29.9375,-2.04296875,1,0,0,rectangle,103.0039063,47.18359375,1,0,0,7.9453125,-4.05078125,1,0,0,0,32,32,26,1,,response1disk_3,TRUE,6,6,"[160,33,291,238,234,101,89,58,101,83,0,23,220,262,86,95,11,315,283,21]",1.6672,rectangle
,,,,,,,,,,,,,FF,,,,,,,,2.104,,,,,,,,,,,,,,,,,,,,,,60fd530163a49887a66afdc0,61036f25d34988d5298eee86,2021-07-30_13h19.16.810,Simcolourproject_2stim_asymm_v5,2020.2.10,MacIntel,60,61025ae37ef11b136ea224fe,,,,,,,,,3092,-34.37890625,-94.8125,1,0,0,response5disk,,3,11.50390625,-4.6875,1,0,0,rectangle,11.50390625,-4.6875,1,0,0,11.50390625,-4.6875,1,0,0,0,33,33,92,1,,,,,,,,
,,,,,,,,,,,,,FF,,,,,,,,0.9,,,,,,,,,,,,,,,,,,,,,,60fd530163a49887a66afdc0,61036f25d34988d5298eee86,2021-07-30_13h19.16.810,Simcolourproject_2stim_asymm_v5,2020.2.10,MacIntel,60,61025ae37ef11b136ea224fe,,,,,,,,,923,93.1328125,31.3046875,1,0,0,response1disk,,6,5.41015625,-6.9375,1,0,0,rectangle,5.41015625,-6.9375,1,0,0,5.41015625,-6.9375,1,0,0,0,34,34,11,1,,,,,,,,
,,,,,,,,,,,,,FF,,,,,,,,1.1528,,,,,,,,,,,,,,,,,,,,,,60fd530163a49887a66afdc0,61036f25d34988d5298eee86,2021-07-30_13h19.16.810,Simcolourproject_2stim_asymm_v5,2020.2.10,MacIntel,60,61025ae37ef11b136ea224fe,,,,,,,,,3921,-44.61328125,-89.875,1,0,0,response5disk,,3,-4.94140625,-1.94921875,1,0,0,rectangle,-4.94140625,-1.94921875,1,0,0,-4.94140625,-1.94921875,1,0,0,0,35,35,0,1,,,,,,,,
,,,,,,,,,,,,,FF,,,,,,,,1.0897,,,,,,,,,,,,,,,,,,,,,,60fd530163a49887a66afdc0,61036f25d34988d5298eee86,2021-07-30_13h19.16.810,Simcolourproject_2stim_asymm_v5,2020.2.10,MacIntel,60,61025ae37ef11b136ea224fe,,,,,,,,,2603,-89.6484375,-40.9921875,1,0,0,response5disk,,2,-14.09375,3.60546875,1,0,0,rectangle,-14.09375,3.60546875,1,0,0,-14.09375,3.60546875,1,0,0,0,36,36,145,1,,,,,,,,
,,,,,,,,,,,,,FF,,,,,,,,1.0337,,,,,,,,,,,,,,,,,,,,,,60fd530163a49887a66afdc0,61036f25d34988d5298eee86,2021-07-30_13h19.16.810,Simcolourproject_2stim_asymm_v5,2020.2.10,MacIntel,60,61025ae37ef11b136ea224fe,,,,,,,,,847,35.59765625,61.74609375,1,0,0,response1disk,,7,-3.44140625,-11.328125,1,0,0,rectangle,-3.44140625,-11.328125,1,0,0,-3.44140625,-11.328125,1,0,0,0,37,37,60,1,,,,,,,,
,,,,,,,,,,,,,FF,,,,,,,,0.7492,,,,,,,,,,,,,,,,,,,,,,60fd530163a49887a66afdc0,61036f25d34988d5298eee86,2021-07-30_13h19.16.810,Simcolourproject_2stim_asymm_v5,2020.2.10,MacIntel,60,61025ae37ef11b136ea224fe,,,,,,,,,1732,49.38671875,76.0078125,1,0,0,response1disk,,7,4.59375,2.20703125,1,0,0,rectangle,4.59375,2.20703125,1,0,0,4.59375,2.20703125,1,0,0,0,38,38,136,1,,,,,,,,
,,,,,,,,,,,,,FF,,,,,,,,1.1175,,,,,,,,,,,,,,,,,,,,,,60fd530163a49887a66afdc0,61036f25d34988d5298eee86,2021-07-30_13h19.16.810,Simcolourproject_2stim_asymm_v5,2020.2.10,MacIntel,60,61025ae37ef11b136ea224fe,,,,,,,,,433,-40.16015625,-95.359375,1,0,0,response5disk,,3,-2.8046875,-3.26953125,1,0,0,rectangle,-2.8046875,-3.26953125,1,0,0,-2.8046875,-3.26953125,1,0,0,0,39,39,144,1,,,,,,,,
,,,,,,,,,,,,,FF,,,,,,,,1.0333,,,,,,,,,,,,,,,,,,,,,,60fd530163a49887a66afdc0,61036f25d34988d5298eee86,2021-07-30_13h19.16.810,Simcolourproject_2stim_asymm_v5,2020.2.10,MacIntel,60,61025ae37ef11b136ea224fe,,,,,,,,,3274,44.69921875,75.734375,1,0,0,response1disk,,7,5.3515625,-1.90234375,1,0,0,rectangle,5.3515625,-1.90234375,1,0,0,5.3515625,-1.90234375,1,0,0,0,40,40,150,1,,,,,,,,
,,,,,,,,,,,,,FF,,,,,,,,1.3667,,,,,,,,,,,,,,,,,,,,,,60fd530163a49887a66afdc0,61036f25d34988d5298eee86,2021-07-30_13h19.16.810,Simcolourproject_2stim_asymm_v5,2020.2.10,MacIntel,60,61025ae37ef11b136ea224fe,,,,,,,,,3217,94.45703125,-54.2421875,1,0,0,response3disk,,5,23.015625,-7.63671875,1,0,0,rectangle,23.015625,-7.63671875,1,0,0,23.015625,-7.63671875,1,0,0,0,41,41,33,1,,,,,,,,
,,,,,,,,,,,,,FF,,,,,,,,1.6161,,,,,,,,,,,,,,,,,,,,,,60fd530163a49887a66afdc0,61036f25d34988d5298eee86,2021-07-30_13h19.16.810,Simcolourproject_2stim_asymm_v5,2020.2.10,MacIntel,60,61025ae37ef11b136ea224fe,,,,,,,,,2301,-29.41015625,-69.73046875,1,0,0,response5disk,,3,-6.27734375,-15.73046875,1,0,0,rectangle,-6.27734375,-15.73046875,1,0,0,-6.27734375,-15.73046875,1,0,0,0,42,42,32,1,,,,,,,,
,,,,,,,,,,,,,FF,,,,,,,,1.3174,,,,,,,,,,,,,,,,,,,,,,60fd530163a49887a66afdc0,61036f25d34988d5298eee86,2021-07-30_13h19.16.810,Simcolourproject_2stim_asymm_v5,2020.2.10,MacIntel,60,61025ae37ef11b136ea224fe,,,,,,,,,2995,-75.02734375,34.45703125,1,0,0,response7disk,,1,-20.37890625,4.32421875,1,0,0,rectangle,-20.37890625,4.32421875,1,0,0,-20.37890625,4.32421875,1,0,0,0,43,43,115,1,,,,,,,,
,,,,,,,,,,,,,FF,,,,,,,,1.6457,,,,,,,,,,,,,,,,,,,,,,60fd530163a49887a66afdc0,61036f25d34988d5298eee86,2021-07-30_13h19.16.810,Simcolourproject_2stim_asymm_v5,2020.2.10,MacIntel,60,61025ae37ef11b136ea224fe,,,,,,,,,1934,50.40234375,74.703125,1,0,0,response1disk,,7,3.00390625,-6.16796875,1,0,0,rectangle,3.00390625,-6.16796875,1,0,0,3.00390625,-6.16796875,1,0,0,0,44,44,141,1,,,,,,,,
,,,,,,,,,,,,,FF,,,,,,,,1.0662,,,,,,,,,,,,,,,,,,,,,,60fd530163a49887a66afdc0,61036f25d34988d5298eee86,2021-07-30_13h19.16.810,Simcolourproject_2stim_asymm_v5,2020.2.10,MacIntel,60,61025ae37ef11b136ea224fe,,,,,,,,,2359,-80.0703125,41.94140625,1,0,0,response7disk,,1,-21.27734375,5.375,1,0,0,rectangle,-21.27734375,5.375,1,0,0,-21.27734375,5.375,1,0,0,0,45,45,25,1,,,,,,,,
,,,,,,,,,,,,,FF,,,,,,,,0.9854,,,,,,,,,,,,,,,,,,,,,,60fd530163a49887a66afdc0,61036f25d34988d5298eee86,2021-07-30_13h19.16.810,Simcolourproject_2stim_asymm_v5,2020.2.10,MacIntel,60,61025ae37ef11b136ea224fe,,,,,,,,,2946,-77.95703125,40.35546875,1,0,0,response7disk,,1,-6.484375,2.265625,1,0,0,rectangle,-6.484375,2.265625,1,0,0,-6.484375,2.265625,1,0,0,0,46,46,119,1,,,,,,,,
,,,,,,,,,,,,,FF,,,,,,,,1.433,,,,,,,,,,,,,,,,,,,,,,60fd530163a49887a66afdc0,61036f25d34988d5298eee86,2021-07-30_13h19.16.810,Simcolourproject_2stim_asymm_v5,2020.2.10,MacIntel,60,61025ae37ef11b136ea224fe,,,,,,,,,1331,50.66796875,87.01953125,1,0,0,response1disk,,7,4.4140625,3.33984375,1,0,0,rectangle,4.4140625,3.33984375,1,0,0,4.4140625,3.33984375,1,0,0,0,47,47,108,1,,,,,,,,
,,,,,,,,,,,,,FF,,,,,,,,2.6708,,,,,,,,,,,,,,,,,,,,,,60fd530163a49887a66afdc0,61036f25d34988d5298eee86,2021-07-30_13h19.16.810,Simcolourproject_2stim_asymm_v5,2020.2.10,MacIntel,60,61025ae37ef11b136ea224fe,,,,,,,,,1586,78.34765625,-46.16015625,1,0,0,response3disk,,5,19.21875,-2.65625,1,0,0,rectangle,19.21875,-2.65625,1,0,0,19.21875,-2.65625,1,0,0,0,48,48,34,1,,,,,,,,
,,,,,,,,,,,,,FF,,,,,,,,1.1186,,,,,,,,,,,,,,,,,,,,,,60fd530163a49887a66afdc0,61036f25d34988d5298eee86,2021-07-30_13h19.16.810,Simcolourproject_2stim_asymm_v5,2020.2.10,MacIntel,60,61025ae37ef11b136ea224fe,,,,,,,,,3299,-37.71484375,-85.046875,1,0,0,response5disk,,3,-5.50390625,-10.15625,1,0,0,rectangle,-5.50390625,-10.15625,1,0,0,-5.50390625,-10.15625,1,0,0,0,49,49,126,1,,,,,,,,
,,,,,,,,,,,,,FF,,,,,,,,1.0173,,,,,,,,,,,,,,,,,,,,,,60fd530163a49887a66afdc0,61036f25d34988d5298eee86,2021-07-30_13h19.16.810,Simcolourproject_2stim_asymm_v5,2020.2.10,MacIntel,60,61025ae37ef11b136ea224fe,,,,,,,,,773,75.1640625,30.75390625,1,0,0,response1disk,,6,10.71484375,0.8828125,1,0,0,rectangle,10.71484375,0.8828125,1,0,0,10.71484375,0.8828125,1,0,0,0,50,50,67,1,,,,,,,,
,,,,,,,,,,,,,FF,,,,,,,,0.9001,,,,,,,,,,,,,,,,,,,,,,60fd530163a49887a66afdc0,61036f25d34988d5298eee86,2021-07-30_13h19.16.810,Simcolourproject_2stim_asymm_v5,2020.2.10,MacIntel,60,61025ae37ef11b136ea224fe,,,,,,,,,1339,83.8125,31.765625,1,0,0,response1disk,,6,-8.3984375,-9.9375,1,0,0,rectangle,-8.3984375,-9.9375,1,0,0,-8.3984375,-9.9375,1,0,0,0,51,51,117,1,,,,,,,,
,,,,,,,,,,,,,FF,,,,,,,,1.1499,,,,,,,,,,,,,,,,,,,,,,60fd530163a49887a66afdc0,61036f25d34988d5298eee86,2021-07-30_13h19.16.810,Simcolourproject_2stim_asymm_v5,2020.2.10,MacIntel,60,61025ae37ef11b136ea224fe,,,,,,,,,176,45.3984375,102.6367188,1,0,0,response1disk,,7,1.21875,6.375,1,0,0,rectangle,1.21875,6.375,1,0,0,1.21875,6.375,1,0,0,0,52,52,16,1,,,,,,,,
,,,,,,,,,,,,,FF,,,,,,,,1.0535,,,,,,,,,,,,,,,,,,,,,,60fd530163a49887a66afdc0,61036f25d34988d5298eee86,2021-07-30_13h19.16.810,Simcolourproject_2stim_asymm_v5,2020.2.10,MacIntel,60,61025ae37ef11b136ea224fe,,,,,,,,,2573,53.6484375,89.57421875,1,0,0,response1disk,,7,2.26171875,5.33984375,1,0,0,rectangle,2.26171875,5.33984375,1,0,0,2.26171875,5.33984375,1,0,0,0,53,53,84,1,,,,,,,,
,,,,,,,,,,,,,FF,,,,,,,,1.0143,,,,,,,,,,,,,,,,,,,,,,60fd530163a49887a66afdc0,61036f25d34988d5298eee86,2021-07-30_13h19.16.810,Simcolourproject_2stim_asymm_v5,2020.2.10,MacIntel,60,61025ae37ef11b136ea224fe,,,,,,,,,803,-67.68359375,36.16015625,1,0,0,response7disk,,1,2.43359375,-1.89453125,1,0,0,rectangle,2.43359375,-1.89453125,1,0,0,2.43359375,-1.89453125,1,0,0,0,54,54,101,1,,,,,,,,
,,,,,,,,,,,,,FF,,,,,,,,0.8504,,,,,,,,,,,,,,,,,,,,,,60fd530163a49887a66afdc0,61036f25d34988d5298eee86,2021-07-30_13h19.16.810,Simcolourproject_2stim_asymm_v5,2020.2.10,MacIntel,60,61025ae37ef11b136ea224fe,,,,,,,,,3519,-73.46484375,36.55859375,1,0,0,response7disk,,1,-10.890625,-2.546875,1,0,0,rectangle,-10.890625,-2.546875,1,0,0,-10.890625,-2.546875,1,0,0,0,55,55,42,1,,,,,,,,
,,,,,,,,,,,,,FF,,,,,,,,0.9837,,,,,,,,,,,,,,,,,,,,,,60fd530163a49887a66afdc0,61036f25d34988d5298eee86,2021-07-30_13h19.16.810,Simcolourproject_2stim_asymm_v5,2020.2.10,MacIntel,60,61025ae37ef11b136ea224fe,,,,,,,,,180,74.64453125,35.8125,1,0,0,response1disk,,6,12.98046875,5.76953125,1,0,0,rectangle,12.98046875,5.76953125,1,0,0,12.98046875,5.76953125,1,0,0,0,56,56,9,1,,,,,,,,
,,,,,,,,,,,,,FF,,,,,,,,1.0507,,,,,,,,,,,,,,,,,,,,,,60fd530163a49887a66afdc0,61036f25d34988d5298eee86,2021-07-30_13h19.16.810,Simcolourproject_2stim_asymm_v5,2020.2.10,MacIntel,60,61025ae37ef11b136ea224fe,,,,,,,,,1852,49.4296875,84.99609375,1,0,0,response1disk,,7,5.77734375,-0.671875,1,0,0,rectangle,53.69921875,121.1484375,1,0,0,-1.0078125,7.28125,1,0,0,0,57,57,19,1,,response1disk_3,TRUE,7,7,"[160,33,291,238,234,101,89,58,101,83,0,23,220,262,86,95,11,315,283,21]",5.3501,rectangle
,,,,,,,,,,,,,FF,,,,,,,,0.9819,,,,,,,,,,,,,,,,,,,,,,60fd530163a49887a66afdc0,61036f25d34988d5298eee86,2021-07-30_13h19.16.810,Simcolourproject_2stim_asymm_v5,2020.2.10,MacIntel,60,61025ae37ef11b136ea224fe,,,,,,,,,1107,92.015625,54.3515625,1,0,0,response1disk,,6,9.6171875,9.64453125,1,0,0,rectangle,9.6171875,9.64453125,1,0,0,9.6171875,9.64453125,1,0,0,0,58,58,116,1,,,,,,,,
,,,,,,,,,,,,,FF,,,,,,,,1.0165,,,,,,,,,,,,,,,,,,,,,,60fd530163a49887a66afdc0,61036f25d34988d5298eee86,2021-07-30_13h19.16.810,Simcolourproject_2stim_asymm_v5,2020.2.10,MacIntel,60,61025ae37ef11b136ea224fe,,,,,,,,,3336,-35.94921875,84.07421875,1,0,0,response7disk,,0,-17.1953125,2.58203125,1,0,0,rectangle,-17.1953125,2.58203125,1,0,0,-17.1953125,2.58203125,1,0,0,0,59,59,123,1,,,,,,,,
,,,,,,,,,,,,,FF,,,,,,,,0.9157,,,,,,,,,,,,,,,,,,,,,,60fd530163a49887a66afdc0,61036f25d34988d5298eee86,2021-07-30_13h19.16.810,Simcolourproject_2stim_asymm_v5,2020.2.10,MacIntel,60,61025ae37ef11b136ea224fe,,,,,,,,,84,31.125,77.45703125,1,0,0,response1disk,,7,-4.9765625,-7.6328125,1,0,0,rectangle,-4.9765625,-7.6328125,1,0,0,-4.9765625,-7.6328125,1,0,0,0,60,60,124,1,,,,,,,,
,,,,,,,,,,,,,FF,,,,,,,,1.6174,,,,,,,,,,,,,,,,,,,,,,60fd530163a49887a66afdc0,61036f25d34988d5298eee86,2021-07-30_13h19.16.810,Simcolourproject_2stim_asymm_v5,2020.2.10,MacIntel,60,61025ae37ef11b136ea224fe,,,,,,,,,3145,47.24609375,92.375,1,0,0,response1disk,,7,-0.51953125,7.203125,1,0,0,rectangle,-0.51953125,7.203125,1,0,0,-0.51953125,7.203125,1,0,0,0,61,61,76,1,,,,,,,,
,,,,,,,,,,,,,FF,,,,,,,,1.301,,,,,,,,,,,,,,,,,,,,,,60fd530163a49887a66afdc0,61036f25d34988d5298eee86,2021-07-30_13h19.16.810,Simcolourproject_2stim_asymm_v5,2020.2.10,MacIntel,60,61025ae37ef11b136ea224fe,,,,,,,,,246,89.265625,-32.34765625,1,0,0,response3disk,,5,20.8828125,-1.453125,1,0,0,rectangle,20.8828125,-1.453125,1,0,0,20.8828125,-1.453125,1,0,0,0,62,62,5,1,,,,,,,,
,,,,,,,,,,,,,FF,,,,,,,,1.2188,,,,,,,,,,,,,,,,,,,,,,60fd530163a49887a66afdc0,61036f25d34988d5298eee86,2021-07-30_13h19.16.810,Simcolourproject_2stim_asymm_v5,2020.2.10,MacIntel,60,61025ae37ef11b136ea224fe,,,,,,,,,452,81.87109375,33.92578125,1,0,0,response1disk,,6,14.921875,1.40234375,1,0,0,rectangle,14.921875,1.40234375,1,0,0,14.921875,1.40234375,1,0,0,0,63,63,45,1,,,,,,,,
,,,,,,,,,,,,,FF,,,,,,,,0.7829,,,,,,,,,,,,,,,,,,,,,,60fd530163a49887a66afdc0,61036f25d34988d5298eee86,2021-07-30_13h19.16.810,Simcolourproject_2stim_asymm_v5,2020.2.10,MacIntel,60,61025ae37ef11b136ea224fe,,,,,,,,,145,93.7890625,39.0234375,1,0,0,response1disk,,6,12.27734375,5.328125,1,0,0,rectangle,12.27734375,5.328125,1,0,0,12.27734375,5.328125,1,0,0,0,64,64,155,1,,,,,,,,
,,,,,,,,,,,,,FF,,,,,,,,2.2669,,,,,,,,,,,,,,,,,,,,,,60fd530163a49887a66afdc0,61036f25d34988d5298eee86,2021-07-30_13h19.16.810,Simcolourproject_2stim_asymm_v5,2020.2.10,MacIntel,60,61025ae37ef11b136ea224fe,,,,,,,,,3799,18.8671875,-80.01171875,1,0,0,response3disk,,4,3.45703125,4.47265625,1,0,0,rectangle,3.45703125,4.47265625,1,0,0,3.45703125,4.47265625,1,0,0,0,65,65,128,1,,,,,,,,
,,,,,,,,,,,,,FF,,,,,,,,1.0839,,,,,,,,,,,,,,,,,,,,,,60fd530163a49887a66afdc0,61036f25d34988d5298eee86,2021-07-30_13h19.16.810,Simcolourproject_2stim_asymm_v5,2020.2.10,MacIntel,60,61025ae37ef11b136ea224fe,,,,,,,,,3287,-64.68359375,-30.62109375,1,0,0,response5disk,,2,14.2109375,4.4921875,1,0,0,rectangle,14.2109375,4.4921875,1,0,0,14.2109375,4.4921875,1,0,0,0,66,66,68,1,,,,,,,,
,,,,,,,,,,,,,FF,,,,,,,,1.0715,,,,,,,,,,,,,,,,,,,,,,60fd530163a49887a66afdc0,61036f25d34988d5298eee86,2021-07-30_13h19.16.810,Simcolourproject_2stim_asymm_v5,2020.2.10,MacIntel,60,61025ae37ef11b136ea224fe,,,,,,,,,3561,95.60546875,-28.34765625,1,0,0,response3disk,,5,8.5546875,-4.18359375,1,0,0,rectangle,8.5546875,-4.18359375,1,0,0,8.5546875,-4.18359375,1,0,0,0,67,67,111,1,,,,,,,,
,,,,,,,,,,,,,FF,,,,,,,,1.4325,,,,,,,,,,,,,,,,,,,,,,60fd530163a49887a66afdc0,61036f25d34988d5298eee86,2021-07-30_13h19.16.810,Simcolourproject_2stim_asymm_v5,2020.2.10,MacIntel,60,61025ae37ef11b136ea224fe,,,,,,,,,2700,58.08203125,76.27734375,1,0,0,response1disk,,7,-2.00390625,-6.04296875,1,0,0,rectangle,-2.00390625,-6.04296875,1,0,0,-2.00390625,-6.04296875,1,0,0,0,68,68,50,1,,,,,,,,
,,,,,,,,,,,,,FF,,,,,,,,0.9349,,,,,,,,,,,,,,,,,,,,,,60fd530163a49887a66afdc0,61036f25d34988d5298eee86,2021-07-30_13h19.16.810,Simcolourproject_2stim_asymm_v5,2020.2.10,MacIntel,60,61025ae37ef11b136ea224fe,,,,,,,,,2003,52.74609375,93.765625,1,0,0,response1disk,,7,-2.58203125,6.0078125,1,0,0,rectangle,-2.58203125,6.0078125,1,0,0,-2.58203125,6.0078125,1,0,0,0,69,69,51,1,,,,,,,,
,,,,,,,,,,,,,FF,,,,,,,,0.8007,,,,,,,,,,,,,,,,,,,,,,60fd530163a49887a66afdc0,61036f25d34988d5298eee86,2021-07-30_13h19.16.810,Simcolourproject_2stim_asymm_v5,2020.2.10,MacIntel,60,61025ae37ef11b136ea224fe,,,,,,,,,1723,35.2109375,74.74609375,1,0,0,response1disk,,7,1.9140625,0.19921875,1,0,0,rectangle,1.9140625,0.19921875,1,0,0,1.9140625,0.19921875,1,0,0,0,70,70,27,1,,,,,,,,
,,,,,,,,,,,,,FF,,,,,,,,1.2509,,,,,,,,,,,,,,,,,,,,,,60fd530163a49887a66afdc0,61036f25d34988d5298eee86,2021-07-30_13h19.16.810,Simcolourproject_2stim_asymm_v5,2020.2.10,MacIntel,60,61025ae37ef11b136ea224fe,,,,,,,,,1762,48.34765625,-91.75390625,1,0,0,response3disk,,4,12.28515625,-6.29296875,1,0,0,rectangle,12.28515625,-6.29296875,1,0,0,12.28515625,-6.29296875,1,0,0,0,71,71,122,1,,,,,,,,
,,,,,,,,,,,,,FF,,,,,,,,1.2674,,,,,,,,,,,,,,,,,,,,,,60fd530163a49887a66afdc0,61036f25d34988d5298eee86,2021-07-30_13h19.16.810,Simcolourproject_2stim_asymm_v5,2020.2.10,MacIntel,60,61025ae37ef11b136ea224fe,,,,,,,,,3398,-87.28515625,-50.93359375,1,0,0,response5disk,,2,-10.15234375,-4.09765625,1,0,0,rectangle,-10.15234375,-4.09765625,1,0,0,-10.15234375,-4.09765625,1,0,0,0,72,72,73,1,,,,,,,,
,,,,,,,,,,,,,FF,,,,,,,,1.1676,,,,,,,,,,,,,,,,,,,,,,60fd530163a49887a66afdc0,61036f25d34988d5298eee86,2021-07-30_13h19.16.810,Simcolourproject_2stim_asymm_v5,2020.2.10,MacIntel,60,61025ae37ef11b136ea224fe,,,,,,,,,1456,-83.2734375,-50.1484375,1,0,0,response5disk,,2,-4.359375,-3.01171875,1,0,0,rectangle,-4.359375,-3.01171875,1,0,0,-4.359375,-3.01171875,1,0,0,0,73,73,57,1,,,,,,,,
,,,,,,,,,,,,,FF,,,,,,,,0.9652,,,,,,,,,,,,,,,,,,,,,,60fd530163a49887a66afdc0,61036f25d34988d5298eee86,2021-07-30_13h19.16.810,Simcolourproject_2stim_asymm_v5,2020.2.10,MacIntel,60,61025ae37ef11b136ea224fe,,,,,,,,,2686,73.265625,27.19140625,1,0,0,response1disk,,6,-0.69140625,-13.98046875,1,0,0,rectangle,-0.69140625,-13.98046875,1,0,0,-0.69140625,-13.98046875,1,0,0,0,74,74,143,1,,,,,,,,
,,,,,,,,,,,,,FF,,,,,,,,2.1008,,,,,,,,,,,,,,,,,,,,,,60fd530163a49887a66afdc0,61036f25d34988d5298eee86,2021-07-30_13h19.16.810,Simcolourproject_2stim_asymm_v5,2020.2.10,MacIntel,60,61025ae37ef11b136ea224fe,,,,,,,,,884,-30.6171875,-72.0546875,1,0,0,response5disk,,3,-10.05859375,-4.265625,1,0,0,rectangle,-10.05859375,-4.265625,1,0,0,-10.05859375,-4.265625,1,0,0,0,75,75,8,1,,,,,,,,
,,,,,,,,,,,,,FF,,,,,,,,0.9829,,,,,,,,,,,,,,,,,,,,,,60fd530163a49887a66afdc0,61036f25d34988d5298eee86,2021-07-30_13h19.16.810,Simcolourproject_2stim_asymm_v5,2020.2.10,MacIntel,60,61025ae37ef11b136ea224fe,,,,,,,,,1794,52.0703125,80.90625,1,0,0,response1disk,,7,4.0234375,-0.78125,1,0,0,rectangle,4.0234375,-0.78125,1,0,0,4.0234375,-0.78125,1,0,0,0,76,76,127,1,,,,,,,,
,,,,,,,,,,,,,FF,,,,,,,,0.9684,,,,,,,,,,,,,,,,,,,,,,60fd530163a49887a66afdc0,61036f25d34988d5298eee86,2021-07-30_13h19.16.810,Simcolourproject_2stim_asymm_v5,2020.2.10,MacIntel,60,61025ae37ef11b136ea224fe,,,,,,,,,1511,38.7421875,83.16015625,1,0,0,response1disk,,7,6.58203125,-1.79296875,1,0,0,rectangle,6.58203125,-1.79296875,1,0,0,6.58203125,-1.79296875,1,0,0,0,77,77,140,1,,,,,,,,
,,,,,,,,,,,,,FF,,,,,,,,0.7202,,,,,,,,,,,,,,,,,,,,,,60fd530163a49887a66afdc0,61036f25d34988d5298eee86,2021-07-30_13h19.16.810,Simcolourproject_2stim_asymm_v5,2020.2.10,MacIntel,60,61025ae37ef11b136ea224fe,,,,,,,,,774,48.3671875,73.58984375,1,0,0,response1disk,,7,10.78125,4.5390625,1,0,0,rectangle,10.78125,4.5390625,1,0,0,10.78125,4.5390625,1,0,0,0,78,78,70,1,,,,,,,,
,,,,,,,,,,,,,FF,,,,,,,,1.7526,,,,,,,,,,,,,,,,,,,,,,60fd530163a49887a66afdc0,61036f25d34988d5298eee86,2021-07-30_13h19.16.810,Simcolourproject_2stim_asymm_v5,2020.2.10,MacIntel,60,61025ae37ef11b136ea224fe,,,,,,,,,1396,37.4765625,73.0625,1,0,0,response1disk,,7,14.59765625,7.4375,1,0,0,rectangle,14.59765625,7.4375,1,0,0,14.59765625,7.4375,1,0,0,0,79,79,71,1,,,,,,,,
,,,,,,,,,,,,,FF,,,,,,,,1.0998,,,,,,,,,,,,,,,,,,,,,,60fd530163a49887a66afdc0,61036f25d34988d5298eee86,2021-07-30_13h19.16.810,Simcolourproject_2stim_asymm_v5,2020.2.10,MacIntel,60,61025ae37ef11b136ea224fe,,,,,,,,,890,-70.62109375,-43.109375,1,0,0,response5disk,,2,-7.90625,-8.77734375,1,0,0,rectangle,-7.90625,-8.77734375,1,0,0,-7.90625,-8.77734375,1,0,0,0,80,80,88,1,,,,,,,,
,,,,,,,,,,,,,FF,,,,,,,,1.2683,,,,,,,,,,,,,,,,,,,,,,60fd530163a49887a66afdc0,61036f25d34988d5298eee86,2021-07-30_13h19.16.810,Simcolourproject_2stim_asymm_v5,2020.2.10,MacIntel,60,61025ae37ef11b136ea224fe,,,,,,,,,2623,40.66015625,-67.44921875,1,0,0,response3disk,,4,9.953125,4.03125,1,0,0,rectangle,9.953125,4.03125,1,0,0,9.953125,4.03125,1,0,0,0,81,81,61,1,,,,,,,,
,,,,,,,,,,,,,FF,,,,,,,,1.637,,,,,,,,,,,,,,,,,,,,,,60fd530163a49887a66afdc0,61036f25d34988d5298eee86,2021-07-30_13h19.16.810,Simcolourproject_2stim_asymm_v5,2020.2.10,MacIntel,60,61025ae37ef11b136ea224fe,,,,,,,,,2373,99.4765625,26.4609375,1,0,0,response1disk,,6,7.05078125,-5.7109375,1,0,0,rectangle,39.27734375,75.9609375,1,0,0,3.65234375,8.953125,1,0,0,0,82,82,114,1,,response1disk_3,TRUE,7,7,"[160,33,291,238,234,101,89,58,101,83,0,23,220,262,86,95,11,315,283,21]",1.6836,rectangle
,,,,,,,,,,,,,FF,,,,,,,,3.4165,,,,,,,,,,,,,,,,,,,,,,60fd530163a49887a66afdc0,61036f25d34988d5298eee86,2021-07-30_13h19.16.810,Simcolourproject_2stim_asymm_v5,2020.2.10,MacIntel,60,61025ae37ef11b136ea224fe,,,,,,,,,959,42.69140625,64.48828125,1,0,0,response1disk,,7,15.81640625,9.02734375,1,0,0,rectangle,15.81640625,9.02734375,1,0,0,15.81640625,9.02734375,1,0,0,0,83,83,80,1,,,,,,,,
,,,,,,,,,,,,,FF,,,,,,,,2.2876,,,,,,,,,,,,,,,,,,,,,,60fd530163a49887a66afdc0,61036f25d34988d5298eee86,2021-07-30_13h19.16.810,Simcolourproject_2stim_asymm_v5,2020.2.10,MacIntel,60,61025ae37ef11b136ea224fe,,,,,,,,,4160,90.6171875,30.0390625,1,0,0,response1disk,,6,-9.73046875,2,1,0,0,rectangle,-9.73046875,2,1,0,0,-9.73046875,2,1,0,0,0,84,84,44,1,,,,,,,,
,,,,,,,,,,,,,FF,,,,,,,,1.4985,,,,,,,,,,,,,,,,,,,,,,60fd530163a49887a66afdc0,61036f25d34988d5298eee86,2021-07-30_13h19.16.810,Simcolourproject_2stim_asymm_v5,2020.2.10,MacIntel,60,61025ae37ef11b136ea224fe,,,,,,,,,3628,44.859375,-85.421875,1,0,0,response3disk,,4,19.13671875,-1.12890625,1,0,0,rectangle,39.078125,-100.2695313,1,0,0,9.85546875,10.51953125,1,0,0,0,85,85,149,1,,response3disk_3,TRUE,4,4,"[160,33,291,238,234,101,89,58,101,83,0,23,220,262,86,95,11,315,283,21]",2.1678,rectangle
,,,,,,,,,,,,,FF,,,,,,,,1.1167,,,,,,,,,,,,,,,,,,,,,,60fd530163a49887a66afdc0,61036f25d34988d5298eee86,2021-07-30_13h19.16.810,Simcolourproject_2stim_asymm_v5,2020.2.10,MacIntel,60,61025ae37ef11b136ea224fe,,,,,,,,,4095,-29.921875,90.71875,1,0,0,response7disk,,0,-20.1171875,5,1,0,0,rectangle,-20.1171875,5,1,0,0,-20.1171875,5,1,0,0,0,86,86,23,1,,,,,,,,
,,,,,,,,,,,,,FF,,,,,,,,0.9339,,,,,,,,,,,,,,,,,,,,,,60fd530163a49887a66afdc0,61036f25d34988d5298eee86,2021-07-30_13h19.16.810,Simcolourproject_2stim_asymm_v5,2020.2.10,MacIntel,60,61025ae37ef11b136ea224fe,,,,,,,,,128,34.37890625,86.01953125,1,0,0,response1disk,,7,5.21484375,17.2265625,1,0,0,rectangle,5.21484375,17.2265625,1,0,0,5.21484375,17.2265625,1,0,0,0,87,87,79,1,,,,,,,,
,,,,,,,,,,,,,FF,,,,,,,,1.0495,,,,,,,,,,,,,,,,,,,,,,60fd530163a49887a66afdc0,61036f25d34988d5298eee86,2021-07-30_13h19.16.810,Simcolourproject_2stim_asymm_v5,2020.2.10,MacIntel,60,61025ae37ef11b136ea224fe,,,,,,,,,3902,-46.8125,-82.2265625,1,0,0,response5disk,,3,-9.67578125,-3.34375,1,0,0,rectangle,-32.8359375,109.6835938,1,0,0,-10.01953125,-9.36328125,1,0,0,0,88,88,95,1,,response7disk_3,TRUE,0,0,"[160,33,291,238,234,101,89,58,101,83,0,23,220,262,86,95,11,315,283,21]",1.9353,rectangle
,,,,,,,,,,,,,FF,,,,,,,,0.9496,,,,,,,,,,,,,,,,,,,,,,60fd530163a49887a66afdc0,61036f25d34988d5298eee86,2021-07-30_13h19.16.810,Simcolourproject_2stim_asymm_v5,2020.2.10,MacIntel,60,61025ae37ef11b136ea224fe,,,,,,,,,513,51.28125,91.54296875,1,0,0,response1disk,,7,7.046875,8.03125,1,0,0,rectangle,7.046875,8.03125,1,0,0,7.046875,8.03125,1,0,0,0,89,89,82,1,,,,,,,,
,,,,,,,,,,,,,FF,,,,,,,,1.0305,,,,,,,,,,,,,,,,,,,,,,60fd530163a49887a66afdc0,61036f25d34988d5298eee86,2021-07-30_13h19.16.810,Simcolourproject_2stim_asymm_v5,2020.2.10,MacIntel,60,61025ae37ef11b136ea224fe,,,,,,,,,2453,41.33203125,95.58984375,1,0,0,response1disk,,7,-1.390625,-1.37890625,1,0,0,rectangle,-1.390625,-1.37890625,1,0,0,-1.390625,-1.37890625,1,0,0,0,90,90,40,1,,,,,,,,
,,,,,,,,,,,,,FF,,,,,,,,1.1328,,,,,,,,,,,,,,,,,,,,,,60fd530163a49887a66afdc0,61036f25d34988d5298eee86,2021-07-30_13h19.16.810,Simcolourproject_2stim_asymm_v5,2020.2.10,MacIntel,60,61025ae37ef11b136ea224fe,,,,,,,,,899,39.83984375,-97.03515625,1,0,0,response3disk,,4,11.94921875,6.47265625,1,0,0,rectangle,11.94921875,6.47265625,1,0,0,11.94921875,6.47265625,1,0,0,0,91,91,94,1,,,,,,,,
,,,,,,,,,,,,,FF,,,,,,,,0.9337,,,,,,,,,,,,,,,,,,,,,,60fd530163a49887a66afdc0,61036f25d34988d5298eee86,2021-07-30_13h19.16.810,Simcolourproject_2stim_asymm_v5,2020.2.10,MacIntel,60,61025ae37ef11b136ea224fe,,,,,,,,,2366,-43.671875,-80.484375,1,0,0,response5disk,,3,-11.421875,1.12109375,1,0,0,rectangle,-11.421875,1.12109375,1,0,0,-11.421875,1.12109375,1,0,0,0,92,92,105,1,,,,,,,,
,,,,,,,,,,,,,FF,,,,,,,,1.5186,,,,,,,,,,,,,,,,,,,,,,60fd530163a49887a66afdc0,61036f25d34988d5298eee86,2021-07-30_13h19.16.810,Simcolourproject_2stim_asymm_v5,2020.2.10,MacIntel,60,61025ae37ef11b136ea224fe,,,,,,,,,4043,92.59765625,44.61328125,1,0,0,response1disk,,6,19.59375,2.59765625,1,0,0,rectangle,19.59375,2.59765625,1,0,0,19.59375,2.59765625,1,0,0,0,93,93,48,1,,,,,,,,
,,,,,,,,,,,,,FF,,,,,,,,0.8648,,,,,,,,,,,,,,,,,,,,,,60fd530163a49887a66afdc0,61036f25d34988d5298eee86,2021-07-30_13h19.16.810,Simcolourproject_2stim_asymm_v5,2020.2.10,MacIntel,60,61025ae37ef11b136ea224fe,,,,,,,,,1340,71.93359375,41.72265625,1,0,0,response1disk,,6,3.75,1.234375,1,0,0,rectangle,102.1523438,32.73046875,1,0,0,9.1015625,1.47265625,1,0,0,0,94,94,129,1,,response1disk_3,TRUE,6,6,"[160,33,291,238,234,101,89,58,101,83,0,23,220,262,86,95,11,315,283,21]",1.9662,rectangle
,,,,,,,,,,,,,FF,,,,,,,,1.05,,,,,,,,,,,,,,,,,,,,,,60fd530163a49887a66afdc0,61036f25d34988d5298eee86,2021-07-30_13h19.16.810,Simcolourproject_2stim_asymm_v5,2020.2.10,MacIntel,60,61025ae37ef11b136ea224fe,,,,,,,,,3678,-35.2421875,-83.29296875,1,0,0,response5disk,,3,-2.12109375,-4.23046875,1,0,0,rectangle,-2.12109375,-4.23046875,1,0,0,-2.12109375,-4.23046875,1,0,0,0,95,95,154,1,,,,,,,,
,,,,,,,,,,,,,FF,,,,,,,,1.6204,,,,,,,,,,,,,,,,,,,,,,60fd530163a49887a66afdc0,61036f25d34988d5298eee86,2021-07-30_13h19.16.810,Simcolourproject_2stim_asymm_v5,2020.2.10,MacIntel,60,61025ae37ef11b136ea224fe,,,,,,,,,2352,75.47265625,26.90234375,1,0,0,response1disk,,6,-24.09375,-6.8984375,1,0,0,rectangle,-24.09375,-6.8984375,1,0,0,-24.09375,-6.8984375,1,0,0,0,96,96,31,1,,,,,,,,
,,,,,,,,,,,,,FF,,,,,,,,2.7484,,,,,,,,,,,,,,,,,,,,,,60fd530163a49887a66afdc0,61036f25d34988d5298eee86,2021-07-30_13h19.16.810,Simcolourproject_2stim_asymm_v5,2020.2.10,MacIntel,60,61025ae37ef11b136ea224fe,,,,,,,,,1880,49.8359375,-78.94921875,1,0,0,response3disk,,4,9.8203125,-6.5234375,1,0,0,rectangle,9.8203125,-6.5234375,1,0,0,9.8203125,-6.5234375,1,0,0,0,97,97,152,1,,,,,,,,
,,,,,,,,,,,,,FF,,,,,,,,1.8493,,,,,,,,,,,,,,,,,,,,,,60fd530163a49887a66afdc0,61036f25d34988d5298eee86,2021-07-30_13h19.16.810,Simcolourproject_2stim_asymm_v5,2020.2.10,MacIntel,60,61025ae37ef11b136ea224fe,,,,,,,,,4336,-44.95703125,-82.7421875,1,0,0,response5disk,,3,-10.53515625,-4.20703125,1,0,0,rectangle,-10.53515625,-4.20703125,1,0,0,-10.53515625,-4.20703125,1,0,0,0,98,98,21,1,,,,,,,,
,,,,,,,,,,,,,FF,,,,,,,,1.2672,,,,,,,,,,,,,,,,,,,,,,60fd530163a49887a66afdc0,61036f25d34988d5298eee86,2021-07-30_13h19.16.810,Simcolourproject_2stim_asymm_v5,2020.2.10,MacIntel,60,61025ae37ef11b136ea224fe,,,,,,,,,3577,79.703125,30.90625,1,0,0,response1disk,,6,-2.0859375,-9.0390625,1,0,0,rectangle,-2.0859375,-9.0390625,1,0,0,-2.0859375,-9.0390625,1,0,0,0,99,99,28,1,,,,,,,,
,,,,,,,,,,,,,FF,,,,,,,,0.8823,,,,,,,,,,,,,,,,,,,,,,60fd530163a49887a66afdc0,61036f25d34988d5298eee86,2021-07-30_13h19.16.810,Simcolourproject_2stim_asymm_v5,2020.2.10,MacIntel,60,61025ae37ef11b136ea224fe,,,,,,,,,855,47.2578125,91.31640625,1,0,0,response1disk,,7,3.44921875,4.7265625,1,0,0,rectangle,-82.17578125,-34.3203125,1,0,0,1.68359375,4.2421875,1,0,0,0,100,100,52,1,,response5disk_3,TRUE,2,2,"[160,33,291,238,234,101,89,58,101,83,0,23,220,262,86,95,11,315,283,21]",1.5501,rectangle
,,,,,,,,,,,,,FF,,,,,,,,1.2632,,,,,,,,,,,,,,,,,,,,,,60fd530163a49887a66afdc0,61036f25d34988d5298eee86,2021-07-30_13h19.16.810,Simcolourproject_2stim_asymm_v5,2020.2.10,MacIntel,60,61025ae37ef11b136ea224fe,,,,,,,,,305,83.25390625,-39.515625,1,0,0,response3disk,,5,11.44140625,7.0625,1,0,0,rectangle,11.44140625,7.0625,1,0,0,11.44140625,7.0625,1,0,0,0,101,101,151,1,,,,,,,,
,,,,,,,,,,,,,FF,,,,,,,,1.4675,,,,,,,,,,,,,,,,,,,,,,60fd530163a49887a66afdc0,61036f25d34988d5298eee86,2021-07-30_13h19.16.810,Simcolourproject_2stim_asymm_v5,2020.2.10,MacIntel,60,61025ae37ef11b136ea224fe,,,,,,,,,1448,-49.79296875,-91.17578125,1,0,0,response5disk,,3,-1.828125,-1.69921875,1,0,0,rectangle,-1.828125,-1.69921875,1,0,0,-1.828125,-1.69921875,1,0,0,0,102,102,158,1,,,,,,,,
,,,,,,,,,,,,,FF,,,,,,,,1.4001,,,,,,,,,,,,,,,,,,,,,,60fd530163a49887a66afdc0,61036f25d34988d5298eee86,2021-07-30_13h19.16.810,Simcolourproject_2stim_asymm_v5,2020.2.10,MacIntel,60,61025ae37ef11b136ea224fe,,,,,,,,,108,35.625,-86.7578125,1,0,0,response3disk,,4,12.21875,0.40625,1,0,0,rectangle,12.21875,0.40625,1,0,0,12.21875,0.40625,1,0,0,0,103,103,77,1,,,,,,,,
,,,,,,,,,,,,,FF,,,,,,,,0.9992,,,,,,,,,,,,,,,,,,,,,,60fd530163a49887a66afdc0,61036f25d34988d5298eee86,2021-07-30_13h19.16.810,Simcolourproject_2stim_asymm_v5,2020.2.10,MacIntel,60,61025ae37ef11b136ea224fe,,,,,,,,,3937,-95.52734375,-47.1484375,1,0,0,response5disk,,2,-15.8359375,-0.91015625,1,0,0,rectangle,-15.8359375,-0.91015625,1,0,0,-15.8359375,-0.91015625,1,0,0,0,104,104,64,1,,,,,,,,
,,,,,,,,,,,,,FF,,,,,,,,0.933,,,,,,,,,,,,,,,,,,,,,,60fd530163a49887a66afdc0,61036f25d34988d5298eee86,2021-07-30_13h19.16.810,Simcolourproject_2stim_asymm_v5,2020.2.10,MacIntel,60,61025ae37ef11b136ea224fe,,,,,,,,,2873,47.41015625,95.02734375,1,0,0,response1disk,,7,-0.26953125,-2.64453125,1,0,0,rectangle,-0.26953125,-2.64453125,1,0,0,-0.26953125,-2.64453125,1,0,0,0,105,105,99,1,,,,,,,,
,,,,,,,,,,,,,FF,,,,,,,,1.1186,,,,,,,,,,,,,,,,,,,,,,60fd530163a49887a66afdc0,61036f25d34988d5298eee86,2021-07-30_13h19.16.810,Simcolourproject_2stim_asymm_v5,2020.2.10,MacIntel,60,61025ae37ef11b136ea224fe,,,,,,,,,1630,51.28515625,76.37109375,1,0,0,response1disk,,7,21.44140625,-4.40625,1,0,0,rectangle,21.44140625,-4.40625,1,0,0,21.44140625,-4.40625,1,0,0,0,106,106,147,1,,,,,,,,
,,,,,,,,,,,,,FF,,,,,,,,1.451,,,,,,,,,,,,,,,,,,,,,,60fd530163a49887a66afdc0,61036f25d34988d5298eee86,2021-07-30_13h19.16.810,Simcolourproject_2stim_asymm_v5,2020.2.10,MacIntel,60,61025ae37ef11b136ea224fe,,,,,,,,,2150,53.1640625,86.203125,1,0,0,response1disk,,7,22.4453125,2.61328125,1,0,0,rectangle,22.4453125,2.61328125,1,0,0,22.4453125,2.61328125,1,0,0,0,107,107,118,1,,,,,,,,
,,,,,,,,,,,,,FF,,,,,,,,1.5423,,,,,,,,,,,,,,,,,,,,,,60fd530163a49887a66afdc0,61036f25d34988d5298eee86,2021-07-30_13h19.16.810,Simcolourproject_2stim_asymm_v5,2020.2.10,MacIntel,60,61025ae37ef11b136ea224fe,,,,,,,,,3857,60.7265625,31.34375,1,0,0,response1disk,,6,7.74609375,-7.265625,1,0,0,rectangle,7.74609375,-7.265625,1,0,0,7.74609375,-7.265625,1,0,0,0,108,108,132,1,,,,,,,,
,,,,,,,,,,,,,FF,,,,,,,,1.1743,,,,,,,,,,,,,,,,,,,,,,60fd530163a49887a66afdc0,61036f25d34988d5298eee86,2021-07-30_13h19.16.810,Simcolourproject_2stim_asymm_v5,2020.2.10,MacIntel,60,61025ae37ef11b136ea224fe,,,,,,,,,1457,-68.66796875,22.33984375,1,0,0,response7disk,,1,-1.0859375,0.7578125,1,0,0,rectangle,-1.0859375,0.7578125,1,0,0,-1.0859375,0.7578125,1,0,0,0,109,109,134,1,,,,,,,,
,,,,,,,,,,,,,FF,,,,,,,,2.8998,,,,,,,,,,,,,,,,,,,,,,60fd530163a49887a66afdc0,61036f25d34988d5298eee86,2021-07-30_13h19.16.810,Simcolourproject_2stim_asymm_v5,2020.2.10,MacIntel,60,61025ae37ef11b136ea224fe,,,,,,,,,3725,86.75,35.43359375,1,0,0,response1disk,,6,19.953125,3.30859375,1,0,0,rectangle,19.953125,3.30859375,1,0,0,19.953125,3.30859375,1,0,0,0,110,110,142,1,,,,,,,,
,,,,,,,,,,,,,FF,,,,,,,,2.8779,,,,,,,,,,,,,,,,,,,,,,60fd530163a49887a66afdc0,61036f25d34988d5298eee86,2021-07-30_13h19.16.810,Simcolourproject_2stim_asymm_v5,2020.2.10,MacIntel,60,61025ae37ef11b136ea224fe,,,,,,,,,1100,-41.26953125,-79.21875,1,0,0,response5disk,,3,-2.03125,7.78515625,1,0,0,rectangle,-2.03125,7.78515625,1,0,0,-2.03125,7.78515625,1,0,0,0,111,111,65,1,,,,,,,,
,,,,,,,,,,,,,FF,,,,,,,,0.8852,,,,,,,,,,,,,,,,,,,,,,60fd530163a49887a66afdc0,61036f25d34988d5298eee86,2021-07-30_13h19.16.810,Simcolourproject_2stim_asymm_v5,2020.2.10,MacIntel,60,61025ae37ef11b136ea224fe,,,,,,,,,1699,49.7578125,83.52734375,1,0,0,response1disk,,7,12.0546875,-6.140625,1,0,0,rectangle,12.0546875,-6.140625,1,0,0,12.0546875,-6.140625,1,0,0,0,112,112,30,1,,,,,,,,
,,,,,,,,,,,,,FF,,,,,,,,1.0837,,,,,,,,,,,,,,,,,,,,,,60fd530163a49887a66afdc0,61036f25d34988d5298eee86,2021-07-30_13h19.16.810,Simcolourproject_2stim_asymm_v5,2020.2.10,MacIntel,60,61025ae37ef11b136ea224fe,,,,,,,,,646,35.37890625,-73.52734375,1,0,0,response3disk,,4,17.03515625,-0.53515625,1,0,0,rectangle,17.03515625,-0.53515625,1,0,0,17.03515625,-0.53515625,1,0,0,0,113,113,104,1,,,,,,,,
,,,,,,,,,,,,,FF,,,,,,,,1.1997,,,,,,,,,,,,,,,,,,,,,,60fd530163a49887a66afdc0,61036f25d34988d5298eee86,2021-07-30_13h19.16.810,Simcolourproject_2stim_asymm_v5,2020.2.10,MacIntel,60,61025ae37ef11b136ea224fe,,,,,,,,,3103,-40.515625,-88.23828125,1,0,0,response5disk,,3,-2.4609375,-11.15625,1,0,0,rectangle,-2.4609375,-11.15625,1,0,0,-2.4609375,-11.15625,1,0,0,0,114,114,2,1,,,,,,,,
,,,,,,,,,,,,,FF,,,,,,,,0.9505,,,,,,,,,,,,,,,,,,,,,,60fd530163a49887a66afdc0,61036f25d34988d5298eee86,2021-07-30_13h19.16.810,Simcolourproject_2stim_asymm_v5,2020.2.10,MacIntel,60,61025ae37ef11b136ea224fe,,,,,,,,,2204,72.51171875,36.45703125,1,0,0,response1disk,,6,20.82421875,3.26171875,1,0,0,rectangle,20.82421875,3.26171875,1,0,0,20.82421875,3.26171875,1,0,0,0,115,115,46,1,,,,,,,,
,,,,,,,,,,,,,FF,,,,,,,,1.8486,,,,,,,,,,,,,,,,,,,,,,60fd530163a49887a66afdc0,61036f25d34988d5298eee86,2021-07-30_13h19.16.810,Simcolourproject_2stim_asymm_v5,2020.2.10,MacIntel,60,61025ae37ef11b136ea224fe,,,,,,,,,1063,80.10546875,-57.8046875,1,0,0,response3disk,,5,18.55859375,-5.54296875,1,0,0,rectangle,18.55859375,-5.54296875,1,0,0,18.55859375,-5.54296875,1,0,0,0,116,116,131,1,,,,,,,,
,,,,,,,,,,,,,FF,,,,,,,,1.5665,,,,,,,,,,,,,,,,,,,,,,60fd530163a49887a66afdc0,61036f25d34988d5298eee86,2021-07-30_13h19.16.810,Simcolourproject_2stim_asymm_v5,2020.2.10,MacIntel,60,61025ae37ef11b136ea224fe,,,,,,,,,2468,37.5703125,76.46484375,1,0,0,response1disk,,7,11.80078125,11.69140625,1,0,0,rectangle,11.80078125,11.69140625,1,0,0,11.80078125,11.69140625,1,0,0,0,117,117,4,1,,,,,,,,
,,,,,,,,,,,,,FF,,,,,,,,0.8502,,,,,,,,,,,,,,,,,,,,,,60fd530163a49887a66afdc0,61036f25d34988d5298eee86,2021-07-30_13h19.16.810,Simcolourproject_2stim_asymm_v5,2020.2.10,MacIntel,60,61025ae37ef11b136ea224fe,,,,,,,,,369,34.6640625,76.8203125,1,0,0,response1disk,,7,7.61328125,1.71484375,1,0,0,rectangle,7.61328125,1.71484375,1,0,0,7.61328125,1.71484375,1,0,0,0,118,118,157,1,,,,,,,,
,,,,,,,,,,,,,FF,,,,,,,,0.8242,,,,,,,,,,,,,,,,,,,,,,60fd530163a49887a66afdc0,61036f25d34988d5298eee86,2021-07-30_13h19.16.810,Simcolourproject_2stim_asymm_v5,2020.2.10,MacIntel,60,61025ae37ef11b136ea224fe,,,,,,,,,1726,37.66015625,73.65234375,1,0,0,response1disk,,7,5.68359375,2.74609375,1,0,0,rectangle,5.68359375,2.74609375,1,0,0,5.68359375,2.74609375,1,0,0,0,119,119,24,1,,,,,,,,
,,,,,,,,,,,,,FF,,,,,,,,0.8994,,,,,,,,,,,,,,,,,,,,,,60fd530163a49887a66afdc0,61036f25d34988d5298eee86,2021-07-30_13h19.16.810,Simcolourproject_2stim_asymm_v5,2020.2.10,MacIntel,60,61025ae37ef11b136ea224fe,,,,,,,,,26,32.3046875,65.265625,1,0,0,response1disk,,7,8.19921875,-1.7265625,1,0,0,rectangle,8.19921875,-1.7265625,1,0,0,8.19921875,-1.7265625,1,0,0,0,120,120,7,1,,,,,,,,
,,,,,,,,,,,,,FF,,,,,,,,1.0157,,,,,,,,,,,,,,,,,,,,,,60fd530163a49887a66afdc0,61036f25d34988d5298eee86,2021-07-30_13h19.16.810,Simcolourproject_2stim_asymm_v5,2020.2.10,MacIntel,60,61025ae37ef11b136ea224fe,,,,,,,,,53,37.87109375,78.2890625,1,0,0,response1disk,,7,3.515625,-2.1796875,1,0,0,rectangle,3.515625,-2.1796875,1,0,0,3.515625,-2.1796875,1,0,0,0,121,121,121,1,,,,,,,,
,,,,,,,,,,,,,FF,,,,,,,,0.9831,,,,,,,,,,,,,,,,,,,,,,60fd530163a49887a66afdc0,61036f25d34988d5298eee86,2021-07-30_13h19.16.810,Simcolourproject_2stim_asymm_v5,2020.2.10,MacIntel,60,61025ae37ef11b136ea224fe,,,,,,,,,355,-31.59375,-88.4453125,1,0,0,response5disk,,3,1.18359375,-3.265625,1,0,0,rectangle,1.18359375,-3.265625,1,0,0,1.18359375,-3.265625,1,0,0,0,122,122,85,1,,,,,,,,
,,,,,,,,,,,,,FF,,,,,,,,0.8518,,,,,,,,,,,,,,,,,,,,,,60fd530163a49887a66afdc0,61036f25d34988d5298eee86,2021-07-30_13h19.16.810,Simcolourproject_2stim_asymm_v5,2020.2.10,MacIntel,60,61025ae37ef11b136ea224fe,,,,,,,,,2525,33.8984375,61.51171875,1,0,0,response1disk,,7,6.625,5.51171875,1,0,0,rectangle,6.625,5.51171875,1,0,0,6.625,5.51171875,1,0,0,0,123,123,159,1,,,,,,,,
,,,,,,,,,,,,,FF,,,,,,,,0.9219,,,,,,,,,,,,,,,,,,,,,,60fd530163a49887a66afdc0,61036f25d34988d5298eee86,2021-07-30_13h19.16.810,Simcolourproject_2stim_asymm_v5,2020.2.10,MacIntel,60,61025ae37ef11b136ea224fe,,,,,,,,,4066,92.6796875,35.8828125,1,0,0,response1disk,,6,22.52734375,3.15625,1,0,0,rectangle,22.52734375,3.15625,1,0,0,22.52734375,3.15625,1,0,0,0,124,124,87,1,,,,,,,,
,,,,,,,,,,,,,FF,,,,,,,,0.85,,,,,,,,,,,,,,,,,,,,,,60fd530163a49887a66afdc0,61036f25d34988d5298eee86,2021-07-30_13h19.16.810,Simcolourproject_2stim_asymm_v5,2020.2.10,MacIntel,60,61025ae37ef11b136ea224fe,,,,,,,,,921,72.328125,40.01171875,1,0,0,response1disk,,6,-11.140625,-0.46875,1,0,0,rectangle,-11.140625,-0.46875,1,0,0,-11.140625,-0.46875,1,0,0,0,125,125,17,1,,,,,,,,
,,,,,,,,,,,,,FF,,,,,,,,0.8519,,,,,,,,,,,,,,,,,,,,,,60fd530163a49887a66afdc0,61036f25d34988d5298eee86,2021-07-30_13h19.16.810,Simcolourproject_2stim_asymm_v5,2020.2.10,MacIntel,60,61025ae37ef11b136ea224fe,,,,,,,,,4350,-26.51953125,87.9140625,1,0,0,response7disk,,0,-5.58203125,6.5625,1,0,0,rectangle,-5.58203125,6.5625,1,0,0,-5.58203125,6.5625,1,0,0,0,126,126,90,1,,,,,,,,
,,,,,,,,,,,,,FF,,,,,,,,2.8327,,,,,,,,,,,,,,,,,,,,,,60fd530163a49887a66afdc0,61036f25d34988d5298eee86,2021-07-30_13h19.16.810,Simcolourproject_2stim_asymm_v5,2020.2.10,MacIntel,60,61025ae37ef11b136ea224fe,,,,,,,,,4120,35.12890625,-100.2695313,1,0,0,response3disk,,4,13.8203125,-4.359375,1,0,0,rectangle,13.8203125,-4.359375,1,0,0,13.8203125,-4.359375,1,0,0,0,127,127,63,1,,,,,,,,
,,,,,,,,,,,,,FF,,,,,,,,1.1142,,,,,,,,,,,,,,,,,,,,,,60fd530163a49887a66afdc0,61036f25d34988d5298eee86,2021-07-30_13h19.16.810,Simcolourproject_2stim_asymm_v5,2020.2.10,MacIntel,60,61025ae37ef11b136ea224fe,,,,,,,,,1395,79.03515625,34.76171875,1,0,0,response1disk,,6,10.7578125,-0.04296875,1,0,0,rectangle,10.7578125,-0.04296875,1,0,0,10.7578125,-0.04296875,1,0,0,0,128,128,55,1,,,,,,,,
,,,,,,,,,,,,,FF,,,,,,,,0.9361,,,,,,,,,,,,,,,,,,,,,,60fd530163a49887a66afdc0,61036f25d34988d5298eee86,2021-07-30_13h19.16.810,Simcolourproject_2stim_asymm_v5,2020.2.10,MacIntel,60,61025ae37ef11b136ea224fe,,,,,,,,,477,31.07421875,60.2734375,1,0,0,response1disk,,7,2.859375,-7.0859375,1,0,0,rectangle,2.859375,-7.0859375,1,0,0,2.859375,-7.0859375,1,0,0,0,129,129,6,1,,,,,,,,
,,,,,,,,,,,,,FF,,,,,,,,1.0023,,,,,,,,,,,,,,,,,,,,,,60fd530163a49887a66afdc0,61036f25d34988d5298eee86,2021-07-30_13h19.16.810,Simcolourproject_2stim_asymm_v5,2020.2.10,MacIntel,60,61025ae37ef11b136ea224fe,,,,,,,,,610,37.53515625,86.3203125,1,0,0,response1disk,,7,2.265625,7.42578125,1,0,0,rectangle,2.265625,7.42578125,1,0,0,2.265625,7.42578125,1,0,0,0,130,130,138,1,,,,,,,,
,,,,,,,,,,,,,FF,,,,,,,,1.5015,,,,,,,,,,,,,,,,,,,,,,60fd530163a49887a66afdc0,61036f25d34988d5298eee86,2021-07-30_13h19.16.810,Simcolourproject_2stim_asymm_v5,2020.2.10,MacIntel,60,61025ae37ef11b136ea224fe,,,,,,,,,3465,50.69921875,-56.32421875,1,0,0,response3disk,,4,16.5859375,-8.62890625,1,0,0,rectangle,16.5859375,-8.62890625,1,0,0,16.5859375,-8.62890625,1,0,0,0,131,131,97,1,,,,,,,,
,,,,,,,,,,,,,FF,,,,,,,,1.1633,,,,,,,,,,,,,,,,,,,,,,60fd530163a49887a66afdc0,61036f25d34988d5298eee86,2021-07-30_13h19.16.810,Simcolourproject_2stim_asymm_v5,2020.2.10,MacIntel,60,61025ae37ef11b136ea224fe,,,,,,,,,1296,-40.515625,-79.5390625,1,0,0,response5disk,,3,-0.5859375,4.35546875,1,0,0,rectangle,-0.5859375,4.35546875,1,0,0,-0.5859375,4.35546875,1,0,0,0,132,132,98,1,,,,,,,,
,,,,,,,,,,,,,FF,,,,,,,,2.15,,,,,,,,,,,,,,,,,,,,,,60fd530163a49887a66afdc0,61036f25d34988d5298eee86,2021-07-30_13h19.16.810,Simcolourproject_2stim_asymm_v5,2020.2.10,MacIntel,60,61025ae37ef11b136ea224fe,,,,,,,,,2354,45.59765625,-81.97265625,1,0,0,response3disk,,4,10.39453125,-1.90625,1,0,0,rectangle,10.39453125,-1.90625,1,0,0,10.39453125,-1.90625,1,0,0,0,133,133,89,1,,,,,,,,
,,,,,,,,,,,,,FF,,,,,,,,0.92,,,,,,,,,,,,,,,,,,,,,,60fd530163a49887a66afdc0,61036f25d34988d5298eee86,2021-07-30_13h19.16.810,Simcolourproject_2stim_asymm_v5,2020.2.10,MacIntel,60,61025ae37ef11b136ea224fe,,,,,,,,,3313,37.38671875,70.6328125,1,0,0,response1disk,,7,5.23046875,1.25,1,0,0,rectangle,5.23046875,1.25,1,0,0,5.23046875,1.25,1,0,0,0,134,134,62,1,,,,,,,,
,,,,,,,,,,,,,FF,,,,,,,,1.0676,,,,,,,,,,,,,,,,,,,,,,60fd530163a49887a66afdc0,61036f25d34988d5298eee86,2021-07-30_13h19.16.810,Simcolourproject_2stim_asymm_v5,2020.2.10,MacIntel,60,61025ae37ef11b136ea224fe,,,,,,,,,2742,80.69140625,38.9296875,1,0,0,response1disk,,6,11.82421875,4.3828125,1,0,0,rectangle,11.82421875,4.3828125,1,0,0,11.82421875,4.3828125,1,0,0,0,135,135,12,1,,,,,,,,
,,,,,,,,,,,,,FF,,,,,,,,1.1495,,,,,,,,,,,,,,,,,,,,,,60fd530163a49887a66afdc0,61036f25d34988d5298eee86,2021-07-30_13h19.16.810,Simcolourproject_2stim_asymm_v5,2020.2.10,MacIntel,60,61025ae37ef11b136ea224fe,,,,,,,,,1453,-86.828125,-52.609375,1,0,0,response5disk,,2,-16.00390625,1.421875,1,0,0,rectangle,-16.00390625,1.421875,1,0,0,-16.00390625,1.421875,1,0,0,0,136,136,100,1,,,,,,,,
,,,,,,,,,,,,,FF,,,,,,,,2.0031,,,,,,,,,,,,,,,,,,,,,,60fd530163a49887a66afdc0,61036f25d34988d5298eee86,2021-07-30_13h19.16.810,Simcolourproject_2stim_asymm_v5,2020.2.10,MacIntel,60,61025ae37ef11b136ea224fe,,,,,,,,,494,44.34375,91.33203125,1,0,0,response1disk,,7,2.26953125,-0.34765625,1,0,0,rectangle,2.26953125,-0.34765625,1,0,0,2.26953125,-0.34765625,1,0,0,0,137,137,148,1,,,,,,,,
,,,,,,,,,,,,,FF,,,,,,,,1.7504,,,,,,,,,,,,,,,,,,,,,,60fd530163a49887a66afdc0,61036f25d34988d5298eee86,2021-07-30_13h19.16.810,Simcolourproject_2stim_asymm_v5,2020.2.10,MacIntel,60,61025ae37ef11b136ea224fe,,,,,,,,,2334,36.0078125,77.70703125,1,0,0,response1disk,,7,4.17578125,-0.90234375,1,0,0,rectangle,4.17578125,-0.90234375,1,0,0,4.17578125,-0.90234375,1,0,0,0,138,138,72,1,,,,,,,,
,,,,,,,,,,,,,FF,,,,,,,,2.1338,,,,,,,,,,,,,,,,,,,,,,60fd530163a49887a66afdc0,61036f25d34988d5298eee86,2021-07-30_13h19.16.810,Simcolourproject_2stim_asymm_v5,2020.2.10,MacIntel,60,61025ae37ef11b136ea224fe,,,,,,,,,339,95.7265625,37.50390625,1,0,0,response1disk,,6,14.640625,-3.80078125,1,0,0,rectangle,14.640625,-3.80078125,1,0,0,14.640625,-3.80078125,1,0,0,0,139,139,58,1,,,,,,,,
,,,,,,,,,,,,,FF,,,,,,,,1.1169,,,,,,,,,,,,,,,,,,,,,,60fd530163a49887a66afdc0,61036f25d34988d5298eee86,2021-07-30_13h19.16.810,Simcolourproject_2stim_asymm_v5,2020.2.10,MacIntel,60,61025ae37ef11b136ea224fe,,,,,,,,,352,-36.65234375,-88.34375,1,0,0,response5disk,,3,13,-5.73046875,1,0,0,rectangle,13,-5.73046875,1,0,0,13,-5.73046875,1,0,0,0,140,140,20,1,,,,,,,,
,,,,,,,,,,,,,FF,,,,,,,,1.583,,,,,,,,,,,,,,,,,,,,,,60fd530163a49887a66afdc0,61036f25d34988d5298eee86,2021-07-30_13h19.16.810,Simcolourproject_2stim_asymm_v5,2020.2.10,MacIntel,60,61025ae37ef11b136ea224fe,,,,,,,,,670,67.12890625,106.0507813,1,0,0,response1disk,,7,16.3359375,-3.46875,1,0,0,rectangle,16.3359375,-3.46875,1,0,0,16.3359375,-3.46875,1,0,0,0,141,141,78,1,,,,,,,,
,,,,,,,,,,,,,FF,,,,,,,,1.3495,,,,,,,,,,,,,,,,,,,,,,60fd530163a49887a66afdc0,61036f25d34988d5298eee86,2021-07-30_13h19.16.810,Simcolourproject_2stim_asymm_v5,2020.2.10,MacIntel,60,61025ae37ef11b136ea224fe,,,,,,,,,4092,33.5390625,68.34765625,1,0,0,response1disk,,7,3.8359375,-5.21875,1,0,0,rectangle,3.8359375,-5.21875,1,0,0,3.8359375,-5.21875,1,0,0,0,142,142,107,1,,,,,,,,
,,,,,,,,,,,,,FF,,,,,,,,2.0661,,,,,,,,,,,,,,,,,,,,,,60fd530163a49887a66afdc0,61036f25d34988d5298eee86,2021-07-30_13h19.16.810,Simcolourproject_2stim_asymm_v5,2020.2.10,MacIntel,60,61025ae37ef11b136ea224fe,,,,,,,,,1217,50.49609375,-77.796875,1,0,0,response3disk,,4,1.76953125,-0.2890625,1,0,0,rectangle,1.76953125,-0.2890625,1,0,0,1.76953125,-0.2890625,1,0,0,0,143,143,53,1,,,,,,,,
,,,,,,,,,,,,,FF,,,,,,,,1.1469,,,,,,,,,,,,,,,,,,,,,,60fd530163a49887a66afdc0,61036f25d34988d5298eee86,2021-07-30_13h19.16.810,Simcolourproject_2stim_asymm_v5,2020.2.10,MacIntel,60,61025ae37ef11b136ea224fe,,,,,,,,,2493,71.35546875,35.31640625,1,0,0,response1disk,,6,20.19921875,6.0078125,1,0,0,rectangle,20.19921875,6.0078125,1,0,0,20.19921875,6.0078125,1,0,0,0,144,144,103,1,,,,,,,,
,,,,,,,,,,,,,FF,,,,,,,,1.216,,,,,,,,,,,,,,,,,,,,,,60fd530163a49887a66afdc0,61036f25d34988d5298eee86,2021-07-30_13h19.16.810,Simcolourproject_2stim_asymm_v5,2020.2.10,MacIntel,60,61025ae37ef11b136ea224fe,,,,,,,,,3192,42.11328125,-64.80078125,1,0,0,response3disk,,4,21.609375,-5.3984375,1,0,0,rectangle,21.609375,-5.3984375,1,0,0,21.609375,-5.3984375,1,0,0,0,145,145,29,1,,,,,,,,
,,,,,,,,,,,,,FF,,,,,,,,1.8829,,,,,,,,,,,,,,,,,,,,,,60fd530163a49887a66afdc0,61036f25d34988d5298eee86,2021-07-30_13h19.16.810,Simcolourproject_2stim_asymm_v5,2020.2.10,MacIntel,60,61025ae37ef11b136ea224fe,,,,,,,,,1469,70.734375,-36.86328125,1,0,0,response3disk,,5,3.73828125,2.734375,1,0,0,rectangle,3.73828125,2.734375,1,0,0,3.73828125,2.734375,1,0,0,0,146,146,66,1,,,,,,,,
,,,,,,,,,,,,,FF,,,,,,,,1,,,,,,,,,,,,,,,,,,,,,,60fd530163a49887a66afdc0,61036f25d34988d5298eee86,2021-07-30_13h19.16.810,Simcolourproject_2stim_asymm_v5,2020.2.10,MacIntel,60,61025ae37ef11b136ea224fe,,,,,,,,,4167,-83.5078125,-39.11328125,1,0,0,response5disk,,2,-14.578125,-2.9453125,1,0,0,rectangle,-14.578125,-2.9453125,1,0,0,-14.578125,-2.9453125,1,0,0,0,147,147,38,1,,,,,,,,
,,,,,,,,,,,,,FF,,,,,,,,0.8655,,,,,,,,,,,,,,,,,,,,,,60fd530163a49887a66afdc0,61036f25d34988d5298eee86,2021-07-30_13h19.16.810,Simcolourproject_2stim_asymm_v5,2020.2.10,MacIntel,60,61025ae37ef11b136ea224fe,,,,,,,,,2917,27.54296875,67.609375,1,0,0,response1disk,,7,1.671875,0.5625,1,0,0,rectangle,1.671875,0.5625,1,0,0,1.671875,0.5625,1,0,0,0,148,148,10,1,,,,,,,,
,,,,,,,,,,,,,FF,,,,,,,,1.6671,,,,,,,,,,,,,,,,,,,,,,60fd530163a49887a66afdc0,61036f25d34988d5298eee86,2021-07-30_13h19.16.810,Simcolourproject_2stim_asymm_v5,2020.2.10,MacIntel,60,61025ae37ef11b136ea224fe,,,,,,,,,1051,-62.98828125,25.8359375,1,0,0,response7disk,,1,-0.1015625,3.41796875,1,0,0,rectangle,-0.1015625,3.41796875,1,0,0,-0.1015625,3.41796875,1,0,0,0,149,149,47,1,,,,,,,,
,,,,,,,,,,,,,FF,,,,,,,,1.8643,,,,,,,,,,,,,,,,,,,,,,60fd530163a49887a66afdc0,61036f25d34988d5298eee86,2021-07-30_13h19.16.810,Simcolourproject_2stim_asymm_v5,2020.2.10,MacIntel,60,61025ae37ef11b136ea224fe,,,,,,,,,331,63.62109375,82.90234375,1,0,0,response1disk,,7,12.734375,4.8359375,1,0,0,rectangle,12.734375,4.8359375,1,0,0,12.734375,4.8359375,1,0,0,0,150,150,54,1,,,,,,,,
,,,,,,,,,,,,,FF,,,,,,,,0.8672,,,,,,,,,,,,,,,,,,,,,,60fd530163a49887a66afdc0,61036f25d34988d5298eee86,2021-07-30_13h19.16.810,Simcolourproject_2stim_asymm_v5,2020.2.10,MacIntel,60,61025ae37ef11b136ea224fe,,,,,,,,,363,44.13671875,99.30078125,1,0,0,response1disk,,7,0.1015625,-2.75390625,1,0,0,rectangle,0.1015625,-2.75390625,1,0,0,0.1015625,-2.75390625,1,0,0,0,151,151,93,1,,,,,,,,
,,,,,,,,,,,,,FF,,,,,,,,1.4082,,,,,,,,,,,,,,,,,,,,,,60fd530163a49887a66afdc0,61036f25d34988d5298eee86,2021-07-30_13h19.16.810,Simcolourproject_2stim_asymm_v5,2020.2.10,MacIntel,60,61025ae37ef11b136ea224fe,,,,,,,,,2380,73.25,-55.109375,1,0,0,response3disk,,5,9.06640625,4.0390625,1,0,0,rectangle,9.06640625,4.0390625,1,0,0,9.06640625,4.0390625,1,0,0,0,152,152,49,1,,,,,,,,
,,,,,,,,,,,,,FF,,,,,,,,1.0668,,,,,,,,,,,,,,,,,,,,,,60fd530163a49887a66afdc0,61036f25d34988d5298eee86,2021-07-30_13h19.16.810,Simcolourproject_2stim_asymm_v5,2020.2.10,MacIntel,60,61025ae37ef11b136ea224fe,,,,,,,,,1405,77.5,-41.359375,1,0,0,response3disk,,5,-0.21484375,-4.98828125,1,0,0,rectangle,-0.21484375,-4.98828125,1,0,0,-0.21484375,-4.98828125,1,0,0,0,153,153,39,1,,,,,,,,
,,,,,,,,,,,,,FF,,,,,,,,1.3488,,,,,,,,,,,,,,,,,,,,,,60fd530163a49887a66afdc0,61036f25d34988d5298eee86,2021-07-30_13h19.16.810,Simcolourproject_2stim_asymm_v5,2020.2.10,MacIntel,60,61025ae37ef11b136ea224fe,,,,,,,,,3347,80.62890625,-45.73046875,1,0,0,response3disk,,5,6.734375,-3.55859375,1,0,0,rectangle,6.734375,-3.55859375,1,0,0,6.734375,-3.55859375,1,0,0,0,154,154,37,1,,,,,,,,
,,,,,,,,,,,,,FF,,,,,,,,3.0007,,,,,,,,,,,,,,,,,,,,,,60fd530163a49887a66afdc0,61036f25d34988d5298eee86,2021-07-30_13h19.16.810,Simcolourproject_2stim_asymm_v5,2020.2.10,MacIntel,60,61025ae37ef11b136ea224fe,,,,,,,,,655,-26.16015625,-93.375,1,0,0,response5disk,,3,8.0390625,-7.91796875,1,0,0,rectangle,8.0390625,-7.91796875,1,0,0,8.0390625,-7.91796875,1,0,0,0,155,155,35,1,,,,,,,,
,,,,,,,,,,,,,FF,,,,,,,,1.1325,,,,,,,,,,,,,,,,,,,,,,60fd530163a49887a66afdc0,61036f25d34988d5298eee86,2021-07-30_13h19.16.810,Simcolourproject_2stim_asymm_v5,2020.2.10,MacIntel,60,61025ae37ef11b136ea224fe,,,,,,,,,1023,36.09375,56.5390625,1,0,0,response1disk,,7,16.0390625,-2.1640625,1,0,0,rectangle,16.0390625,-2.1640625,1,0,0,16.0390625,-2.1640625,1,0,0,0,156,156,139,1,,,,,,,,
,,,,,,,,,,,,,FF,,,,,,,,1.3344,,,,,,,,,,,,,,,,,,,,,,60fd530163a49887a66afdc0,61036f25d34988d5298eee86,2021-07-30_13h19.16.810,Simcolourproject_2stim_asymm_v5,2020.2.10,MacIntel,60,61025ae37ef11b136ea224fe,,,,,,,,,1966,-36.48828125,-88.12109375,1,0,0,response5disk,,3,-0.65234375,0.3125,1,0,0,rectangle,-0.65234375,0.3125,1,0,0,-0.65234375,0.3125,1,0,0,0,157,157,41,1,,,,,,,,
,,,,,,,,,,,,,FF,,,,,,,,1.1497,,,,,,,,,,,,,,,,,,,,,,60fd530163a49887a66afdc0,61036f25d34988d5298eee86,2021-07-30_13h19.16.810,Simcolourproject_2stim_asymm_v5,2020.2.10,MacIntel,60,61025ae37ef11b136ea224fe,,,,,,,,,1255,48.890625,77.140625,1,0,0,response1disk,,7,4.12109375,7.859375,1,0,0,rectangle,4.12109375,7.859375,1,0,0,4.12109375,7.859375,1,0,0,0,158,158,106,1,,,,,,,,
,,,,,,,,,,,,,FF,,,,,,,,0.8819,,,,,,,,,,,,,,,,,,,,,,60fd530163a49887a66afdc0,61036f25d34988d5298eee86,2021-07-30_13h19.16.810,Simcolourproject_2stim_asymm_v5,2020.2.10,MacIntel,60,61025ae37ef11b136ea224fe,,,,,,,,,1437,41.99609375,81.55859375,1,0,0,response1disk,,7,8.0703125,9.26171875,1,0,0,rectangle,91.96484375,41.38671875,1,0,0,21.51171875,5.79296875,1,0,0,0,159,159,125,1,,response1disk_3,TRUE,6,6,"[160,33,291,238,234,101,89,58,101,83,0,23,220,262,86,95,11,315,283,21]",1.967,rectangle
,,,,,,,,,,,,,FF,,,,,,,,1.4808,,,,,,,,,,,,,,,,,,,,,,60fd530163a49887a66afdc0,61036f25d34988d5298eee86,2021-07-30_13h19.16.810,Simcolourproject_2stim_asymm_v5,2020.2.10,MacIntel,60,61025ae37ef11b136ea224fe,,,,,,,,,3562,42.49609375,-80.74609375,1,0,0,response3disk,,4,9.15234375,-10.3359375,1,0,0,rectangle,9.15234375,-10.3359375,1,0,0,9.15234375,-10.3359375,1,0,0,1,0,160,157,1,,,,,,,,
,,,,,,,,,,,,,FF,,,,,,,,1.0944,,,,,,,,,,,,,,,,,,,,,,60fd530163a49887a66afdc0,61036f25d34988d5298eee86,2021-07-30_13h19.16.810,Simcolourproject_2stim_asymm_v5,2020.2.10,MacIntel,60,61025ae37ef11b136ea224fe,,,,,,,,,1634,46.01953125,88.18359375,1,0,0,response1disk,,7,7.48046875,-5.23046875,1,0,0,rectangle,7.48046875,-5.23046875,1,0,0,7.48046875,-5.23046875,1,0,0,1,1,161,6,1,,,,,,,,
,,,,,,,,,,,,,FF,,,,,,,,0.8343,,,,,,,,,,,,,,,,,,,,,,60fd530163a49887a66afdc0,61036f25d34988d5298eee86,2021-07-30_13h19.16.810,Simcolourproject_2stim_asymm_v5,2020.2.10,MacIntel,60,61025ae37ef11b136ea224fe,,,,,,,,,1018,44.875,107.203125,1,0,0,response1disk,,7,11.7890625,1.234375,1,0,0,rectangle,11.7890625,1.234375,1,0,0,11.7890625,1.234375,1,0,0,1,2,162,86,1,,,,,,,,
,,,,,,,,,,,,,FF,,,,,,,,0.7141,,,,,,,,,,,,,,,,,,,,,,60fd530163a49887a66afdc0,61036f25d34988d5298eee86,2021-07-30_13h19.16.810,Simcolourproject_2stim_asymm_v5,2020.2.10,MacIntel,60,61025ae37ef11b136ea224fe,,,,,,,,,3075,40.6171875,89.86328125,1,0,0,response1disk,,7,3.25,-3.3203125,1,0,0,rectangle,3.25,-3.3203125,1,0,0,3.25,-3.3203125,1,0,0,1,3,163,56,1,,,,,,,,
,,,,,,,,,,,,,FF,,,,,,,,1.7346,,,,,,,,,,,,,,,,,,,,,,60fd530163a49887a66afdc0,61036f25d34988d5298eee86,2021-07-30_13h19.16.810,Simcolourproject_2stim_asymm_v5,2020.2.10,MacIntel,60,61025ae37ef11b136ea224fe,,,,,,,,,1416,39.19140625,73.5546875,1,0,0,response1disk,,7,6.22265625,6.6171875,1,0,0,rectangle,6.22265625,6.6171875,1,0,0,6.22265625,6.6171875,1,0,0,1,4,164,138,1,,,,,,,,
,,,,,,,,,,,,,FF,,,,,,,,1.0338,,,,,,,,,,,,,,,,,,,,,,60fd530163a49887a66afdc0,61036f25d34988d5298eee86,2021-07-30_13h19.16.810,Simcolourproject_2stim_asymm_v5,2020.2.10,MacIntel,60,61025ae37ef11b136ea224fe,,,,,,,,,1976,69.41015625,28.140625,1,0,0,response1disk,,6,15.7578125,-7.71875,1,0,0,rectangle,15.7578125,-7.71875,1,0,0,15.7578125,-7.71875,1,0,0,1,5,165,37,1,,,,,,,,
,,,,,,,,,,,,,FF,,,,,,,,0.9178,,,,,,,,,,,,,,,,,,,,,,60fd530163a49887a66afdc0,61036f25d34988d5298eee86,2021-07-30_13h19.16.810,Simcolourproject_2stim_asymm_v5,2020.2.10,MacIntel,60,61025ae37ef11b136ea224fe,,,,,,,,,1173,25.03515625,76.97265625,1,0,0,response1disk,,7,-4.0859375,3.7421875,1,0,0,rectangle,-4.0859375,3.7421875,1,0,0,-4.0859375,3.7421875,1,0,0,1,6,166,20,1,,,,,,,,
,,,,,,,,,,,,,FF,,,,,,,,1.266,,,,,,,,,,,,,,,,,,,,,,60fd530163a49887a66afdc0,61036f25d34988d5298eee86,2021-07-30_13h19.16.810,Simcolourproject_2stim_asymm_v5,2020.2.10,MacIntel,60,61025ae37ef11b136ea224fe,,,,,,,,,1591,40.51953125,93.8984375,1,0,0,response1disk,,7,-6.44140625,-10.7109375,1,0,0,rectangle,-6.44140625,-10.7109375,1,0,0,-6.44140625,-10.7109375,1,0,0,1,7,167,43,1,,,,,,,,
,,,,,,,,,,,,,FF,,,,,,,,0.8468,,,,,,,,,,,,,,,,,,,,,,60fd530163a49887a66afdc0,61036f25d34988d5298eee86,2021-07-30_13h19.16.810,Simcolourproject_2stim_asymm_v5,2020.2.10,MacIntel,60,61025ae37ef11b136ea224fe,,,,,,,,,1711,47.640625,92.1015625,1,0,0,response1disk,,7,5.98046875,6.2890625,1,0,0,rectangle,5.98046875,6.2890625,1,0,0,5.98046875,6.2890625,1,0,0,1,8,168,137,1,,,,,,,,
,,,,,,,,,,,,,FF,,,,,,,,1.5981,,,,,,,,,,,,,,,,,,,,,,60fd530163a49887a66afdc0,61036f25d34988d5298eee86,2021-07-30_13h19.16.810,Simcolourproject_2stim_asymm_v5,2020.2.10,MacIntel,60,61025ae37ef11b136ea224fe,,,,,,,,,2887,-35.3984375,-97.62109375,1,0,0,response5disk,,3,14.83984375,-3.42578125,1,0,0,rectangle,14.83984375,-3.42578125,1,0,0,14.83984375,-3.42578125,1,0,0,1,9,169,114,1,,,,,,,,
,,,,,,,,,,,,,FF,,,,,,,,0.8169,,,,,,,,,,,,,,,,,,,,,,60fd530163a49887a66afdc0,61036f25d34988d5298eee86,2021-07-30_13h19.16.810,Simcolourproject_2stim_asymm_v5,2020.2.10,MacIntel,60,61025ae37ef11b136ea224fe,,,,,,,,,1198,39.16015625,66.5859375,1,0,0,response1disk,,7,2.93359375,-6.12109375,1,0,0,rectangle,2.93359375,-6.12109375,1,0,0,2.93359375,-6.12109375,1,0,0,1,10,170,77,1,,,,,,,,
,,,,,,,,,,,,,FF,,,,,,,,0.8336,,,,,,,,,,,,,,,,,,,,,,60fd530163a49887a66afdc0,61036f25d34988d5298eee86,2021-07-30_13h19.16.810,Simcolourproject_2stim_asymm_v5,2020.2.10,MacIntel,60,61025ae37ef11b136ea224fe,,,,,,,,,3621,35.7578125,68.6953125,1,0,0,response1disk,,7,0.984375,-3.4921875,1,0,0,rectangle,0.984375,-3.4921875,1,0,0,0.984375,-3.4921875,1,0,0,1,11,171,33,1,,,,,,,,
,,,,,,,,,,,,,FF,,,,,,,,1.4327,,,,,,,,,,,,,,,,,,,,,,60fd530163a49887a66afdc0,61036f25d34988d5298eee86,2021-07-30_13h19.16.810,Simcolourproject_2stim_asymm_v5,2020.2.10,MacIntel,60,61025ae37ef11b136ea224fe,,,,,,,,,3872,44.17578125,88.9296875,1,0,0,response1disk,,7,9.359375,2.71875,1,0,0,rectangle,9.359375,2.71875,1,0,0,9.359375,2.71875,1,0,0,1,12,172,90,1,,,,,,,,
,,,,,,,,,,,,,FF,,,,,,,,0.9348,,,,,,,,,,,,,,,,,,,,,,60fd530163a49887a66afdc0,61036f25d34988d5298eee86,2021-07-30_13h19.16.810,Simcolourproject_2stim_asymm_v5,2020.2.10,MacIntel,60,61025ae37ef11b136ea224fe,,,,,,,,,2461,41.10546875,66.13671875,1,0,0,response1disk,,7,1.26171875,-3.79296875,1,0,0,rectangle,1.26171875,-3.79296875,1,0,0,1.26171875,-3.79296875,1,0,0,1,13,173,44,1,,,,,,,,
,,,,,,,,,,,,,FF,,,,,,,,1.2177,,,,,,,,,,,,,,,,,,,,,,60fd530163a49887a66afdc0,61036f25d34988d5298eee86,2021-07-30_13h19.16.810,Simcolourproject_2stim_asymm_v5,2020.2.10,MacIntel,60,61025ae37ef11b136ea224fe,,,,,,,,,1557,34.83203125,61.6640625,1,0,0,response1disk,,7,3.3828125,-12.15625,1,0,0,rectangle,3.3828125,-12.15625,1,0,0,3.3828125,-12.15625,1,0,0,1,14,174,23,1,,,,,,,,
,,,,,,,,,,,,,FF,,,,,,,,0.7834,,,,,,,,,,,,,,,,,,,,,,60fd530163a49887a66afdc0,61036f25d34988d5298eee86,2021-07-30_13h19.16.810,Simcolourproject_2stim_asymm_v5,2020.2.10,MacIntel,60,61025ae37ef11b136ea224fe,,,,,,,,,3185,32.13671875,53.80859375,1,0,0,response1disk,,7,2.3046875,2.1796875,1,0,0,rectangle,2.3046875,2.1796875,1,0,0,2.3046875,2.1796875,1,0,0,1,15,175,15,1,,,,,,,,
,,,,,,,,,,,,,FF,,,,,,,,0.8989,,,,,,,,,,,,,,,,,,,,,,60fd530163a49887a66afdc0,61036f25d34988d5298eee86,2021-07-30_13h19.16.810,Simcolourproject_2stim_asymm_v5,2020.2.10,MacIntel,60,61025ae37ef11b136ea224fe,,,,,,,,,4110,35.50390625,72.47265625,1,0,0,response1disk,,7,8.6328125,5.359375,1,0,0,rectangle,8.6328125,5.359375,1,0,0,8.6328125,5.359375,1,0,0,1,16,176,0,1,,,,,,,,
,,,,,,,,,,,,,FF,,,,,,,,0.6819,,,,,,,,,,,,,,,,,,,,,,60fd530163a49887a66afdc0,61036f25d34988d5298eee86,2021-07-30_13h19.16.810,Simcolourproject_2stim_asymm_v5,2020.2.10,MacIntel,60,61025ae37ef11b136ea224fe,,,,,,,,,3322,36.02734375,77.5703125,1,0,0,response1disk,,7,-2.81640625,1.2578125,1,0,0,rectangle,-2.81640625,1.2578125,1,0,0,-2.81640625,1.2578125,1,0,0,1,17,177,89,1,,,,,,,,
,,,,,,,,,,,,,FF,,,,,,,,1.6339,,,,,,,,,,,,,,,,,,,,,,60fd530163a49887a66afdc0,61036f25d34988d5298eee86,2021-07-30_13h19.16.810,Simcolourproject_2stim_asymm_v5,2020.2.10,MacIntel,60,61025ae37ef11b136ea224fe,,,,,,,,,483,36.3203125,67.859375,1,0,0,response1disk,,7,5.47265625,1.1796875,1,0,0,rectangle,5.47265625,1.1796875,1,0,0,5.47265625,1.1796875,1,0,0,1,18,178,129,1,,,,,,,,
,,,,,,,,,,,,,FF,,,,,,,,0.9834,,,,,,,,,,,,,,,,,,,,,,60fd530163a49887a66afdc0,61036f25d34988d5298eee86,2021-07-30_13h19.16.810,Simcolourproject_2stim_asymm_v5,2020.2.10,MacIntel,60,61025ae37ef11b136ea224fe,,,,,,,,,2794,78.0859375,-38.54296875,1,0,0,response3disk,,5,11.421875,-6.83984375,1,0,0,rectangle,11.421875,-6.83984375,1,0,0,11.421875,-6.83984375,1,0,0,1,19,179,82,1,,,,,,,,
,,,,,,,,,,,,,FF,,,,,,,,0.9505,,,,,,,,,,,,,,,,,,,,,,60fd530163a49887a66afdc0,61036f25d34988d5298eee86,2021-07-30_13h19.16.810,Simcolourproject_2stim_asymm_v5,2020.2.10,MacIntel,60,61025ae37ef11b136ea224fe,,,,,,,,,1593,32.41015625,65.66796875,1,0,0,response1disk,,7,-0.828125,-1.33984375,1,0,0,rectangle,-0.828125,-1.33984375,1,0,0,-0.828125,-1.33984375,1,0,0,1,20,180,125,1,,,,,,,,
,,,,,,,,,,,,,FF,,,,,,,,1.3687,,,,,,,,,,,,,,,,,,,,,,60fd530163a49887a66afdc0,61036f25d34988d5298eee86,2021-07-30_13h19.16.810,Simcolourproject_2stim_asymm_v5,2020.2.10,MacIntel,60,61025ae37ef11b136ea224fe,,,,,,,,,328,28.01953125,71.125,1,0,0,response1disk,,7,2.61328125,-8.79296875,1,0,0,rectangle,2.61328125,-8.79296875,1,0,0,2.61328125,-8.79296875,1,0,0,1,21,181,60,1,,,,,,,,
,,,,,,,,,,,,,FF,,,,,,,,1.3161,,,,,,,,,,,,,,,,,,,,,,60fd530163a49887a66afdc0,61036f25d34988d5298eee86,2021-07-30_13h19.16.810,Simcolourproject_2stim_asymm_v5,2020.2.10,MacIntel,60,61025ae37ef11b136ea224fe,,,,,,,,,735,47.6328125,-83.625,1,0,0,response3disk,,4,12.33984375,3.6328125,1,0,0,rectangle,12.33984375,3.6328125,1,0,0,12.33984375,3.6328125,1,0,0,1,22,182,1,1,,,,,,,,
,,,,,,,,,,,,,FF,,,,,,,,1.3846,,,,,,,,,,,,,,,,,,,,,,60fd530163a49887a66afdc0,61036f25d34988d5298eee86,2021-07-30_13h19.16.810,Simcolourproject_2stim_asymm_v5,2020.2.10,MacIntel,60,61025ae37ef11b136ea224fe,,,,,,,,,2723,-33.7109375,-96.76171875,1,0,0,response5disk,,3,-1.515625,-3.06640625,1,0,0,rectangle,-1.515625,-3.06640625,1,0,0,-1.515625,-3.06640625,1,0,0,1,23,183,132,1,,,,,,,,
,,,,,,,,,,,,,FF,,,,,,,,0.9833,,,,,,,,,,,,,,,,,,,,,,60fd530163a49887a66afdc0,61036f25d34988d5298eee86,2021-07-30_13h19.16.810,Simcolourproject_2stim_asymm_v5,2020.2.10,MacIntel,60,61025ae37ef11b136ea224fe,,,,,,,,,1766,41.3046875,73.73046875,1,0,0,response1disk,,7,11.49609375,-10.671875,1,0,0,rectangle,11.49609375,-10.671875,1,0,0,11.49609375,-10.671875,1,0,0,1,24,184,49,1,,,,,,,,
,,,,,,,,,,,,,FF,,,,,,,,0.7828,,,,,,,,,,,,,,,,,,,,,,60fd530163a49887a66afdc0,61036f25d34988d5298eee86,2021-07-30_13h19.16.810,Simcolourproject_2stim_asymm_v5,2020.2.10,MacIntel,60,61025ae37ef11b136ea224fe,,,,,,,,,2810,36.34765625,83.0859375,1,0,0,response1disk,,7,3.3671875,0.2890625,1,0,0,rectangle,3.3671875,0.2890625,1,0,0,3.3671875,0.2890625,1,0,0,1,25,185,146,1,,,,,,,,
,,,,,,,,,,,,,FF,,,,,,,,1.271,,,,,,,,,,,,,,,,,,,,,,60fd530163a49887a66afdc0,61036f25d34988d5298eee86,2021-07-30_13h19.16.810,Simcolourproject_2stim_asymm_v5,2020.2.10,MacIntel,60,61025ae37ef11b136ea224fe,,,,,,,,,259,-31.34375,-94.2109375,1,0,0,response5disk,,3,-2.1171875,4.46484375,1,0,0,rectangle,-2.1171875,4.46484375,1,0,0,-2.1171875,4.46484375,1,0,0,1,26,186,103,1,,,,,,,,
,,,,,,,,,,,,,FF,,,,,,,,0.8346,,,,,,,,,,,,,,,,,,,,,,60fd530163a49887a66afdc0,61036f25d34988d5298eee86,2021-07-30_13h19.16.810,Simcolourproject_2stim_asymm_v5,2020.2.10,MacIntel,60,61025ae37ef11b136ea224fe,,,,,,,,,1233,33.96484375,87.8046875,1,0,0,response1disk,,7,-1.59375,-3.2109375,1,0,0,rectangle,-1.59375,-3.2109375,1,0,0,-1.59375,-3.2109375,1,0,0,1,27,187,85,1,,,,,,,,
,,,,,,,,,,,,,FF,,,,,,,,0.7838,,,,,,,,,,,,,,,,,,,,,,60fd530163a49887a66afdc0,61036f25d34988d5298eee86,2021-07-30_13h19.16.810,Simcolourproject_2stim_asymm_v5,2020.2.10,MacIntel,60,61025ae37ef11b136ea224fe,,,,,,,,,2445,54.625,92.03515625,1,0,0,response1disk,,7,1.98046875,0.51953125,1,0,0,rectangle,1.98046875,0.51953125,1,0,0,1.98046875,0.51953125,1,0,0,1,28,188,94,1,,,,,,,,
,,,,,,,,,,,,,FF,,,,,,,,1.7666,,,,,,,,,,,,,,,,,,,,,,60fd530163a49887a66afdc0,61036f25d34988d5298eee86,2021-07-30_13h19.16.810,Simcolourproject_2stim_asymm_v5,2020.2.10,MacIntel,60,61025ae37ef11b136ea224fe,,,,,,,,,3112,19.9375,-70.3671875,1,0,0,response3disk,,4,0.7578125,-1.17578125,1,0,0,rectangle,0.7578125,-1.17578125,1,0,0,0.7578125,-1.17578125,1,0,0,1,29,189,16,1,,,,,,,,
,,,,,,,,,,,,,FF,,,,,,,,1.1174,,,,,,,,,,,,,,,,,,,,,,60fd530163a49887a66afdc0,61036f25d34988d5298eee86,2021-07-30_13h19.16.810,Simcolourproject_2stim_asymm_v5,2020.2.10,MacIntel,60,61025ae37ef11b136ea224fe,,,,,,,,,1888,-92.98828125,-52.0859375,1,0,0,response5disk,,2,-14.98046875,-4.05859375,1,0,0,rectangle,-14.98046875,-4.05859375,1,0,0,-14.98046875,-4.05859375,1,0,0,1,30,190,87,1,,,,,,,,
,,,,,,,,,,,,,FF,,,,,,,,0.8814,,,,,,,,,,,,,,,,,,,,,,60fd530163a49887a66afdc0,61036f25d34988d5298eee86,2021-07-30_13h19.16.810,Simcolourproject_2stim_asymm_v5,2020.2.10,MacIntel,60,61025ae37ef11b136ea224fe,,,,,,,,,3272,31.71875,87.0390625,1,0,0,response1disk,,7,1.66796875,-2.79296875,1,0,0,rectangle,1.66796875,-2.79296875,1,0,0,1.66796875,-2.79296875,1,0,0,1,31,191,36,1,,,,,,,,
,,,,,,,,,,,,,FF,,,,,,,,0.7976,,,,,,,,,,,,,,,,,,,,,,60fd530163a49887a66afdc0,61036f25d34988d5298eee86,2021-07-30_13h19.16.810,Simcolourproject_2stim_asymm_v5,2020.2.10,MacIntel,60,61025ae37ef11b136ea224fe,,,,,,,,,229,35.15625,75.3828125,1,0,0,response1disk,,7,-1.0390625,1.75390625,1,0,0,rectangle,-1.0390625,1.75390625,1,0,0,-1.0390625,1.75390625,1,0,0,1,32,192,35,1,,,,,,,,
,,,,,,,,,,,,,FF,,,,,,,,1.1002,,,,,,,,,,,,,,,,,,,,,,60fd530163a49887a66afdc0,61036f25d34988d5298eee86,2021-07-30_13h19.16.810,Simcolourproject_2stim_asymm_v5,2020.2.10,MacIntel,60,61025ae37ef11b136ea224fe,,,,,,,,,3092,-69.953125,-42.83203125,1,0,0,response5disk,,2,-10.5078125,-6.91015625,1,0,0,rectangle,-10.5078125,-6.91015625,1,0,0,-10.5078125,-6.91015625,1,0,0,1,33,193,76,1,,,,,,,,
,,,,,,,,,,,,,FF,,,,,,,,0.701,,,,,,,,,,,,,,,,,,,,,,60fd530163a49887a66afdc0,61036f25d34988d5298eee86,2021-07-30_13h19.16.810,Simcolourproject_2stim_asymm_v5,2020.2.10,MacIntel,60,61025ae37ef11b136ea224fe,,,,,,,,,923,41.21875,77.0703125,1,0,0,response1disk,,7,5.640625,-7.69140625,1,0,0,rectangle,5.640625,-7.69140625,1,0,0,5.640625,-7.69140625,1,0,0,1,34,194,25,1,,,,,,,,
,,,,,,,,,,,,,FF,,,,,,,,0.9835,,,,,,,,,,,,,,,,,,,,,,60fd530163a49887a66afdc0,61036f25d34988d5298eee86,2021-07-30_13h19.16.810,Simcolourproject_2stim_asymm_v5,2020.2.10,MacIntel,60,61025ae37ef11b136ea224fe,,,,,,,,,3921,-33.45703125,-91.0078125,1,0,0,response5disk,,3,-0.8671875,3.9609375,1,0,0,rectangle,-0.8671875,3.9609375,1,0,0,-0.8671875,3.9609375,1,0,0,1,35,195,106,1,,,,,,,,
,,,,,,,,,,,,,FF,,,,,,,,1.0502,,,,,,,,,,,,,,,,,,,,,,60fd530163a49887a66afdc0,61036f25d34988d5298eee86,2021-07-30_13h19.16.810,Simcolourproject_2stim_asymm_v5,2020.2.10,MacIntel,60,61025ae37ef11b136ea224fe,,,,,,,,,2603,-37.0390625,-98.46484375,1,0,0,response5disk,,3,0.8984375,-5.140625,1,0,0,rectangle,0.8984375,-5.140625,1,0,0,0.8984375,-5.140625,1,0,0,1,36,196,134,1,,,,,,,,
,,,,,,,,,,,,,FF,,,,,,,,0.8669,,,,,,,,,,,,,,,,,,,,,,60fd530163a49887a66afdc0,61036f25d34988d5298eee86,2021-07-30_13h19.16.810,Simcolourproject_2stim_asymm_v5,2020.2.10,MacIntel,60,61025ae37ef11b136ea224fe,,,,,,,,,847,45.2265625,83.1796875,1,0,0,response1disk,,7,2.94140625,-0.5390625,1,0,0,rectangle,2.94140625,-0.5390625,1,0,0,2.94140625,-0.5390625,1,0,0,1,37,197,71,1,,,,,,,,
,,,,,,,,,,,,,FF,,,,,,,,0.9001,,,,,,,,,,,,,,,,,,,,,,60fd530163a49887a66afdc0,61036f25d34988d5298eee86,2021-07-30_13h19.16.810,Simcolourproject_2stim_asymm_v5,2020.2.10,MacIntel,60,61025ae37ef11b136ea224fe,,,,,,,,,1732,34.73828125,81.8828125,1,0,0,response1disk,,7,4.6328125,2.625,1,0,0,rectangle,4.6328125,2.625,1,0,0,4.6328125,2.625,1,0,0,1,38,198,46,1,,,,,,,,
,,,,,,,,,,,,,FF,,,,,,,,1.2497,,,,,,,,,,,,,,,,,,,,,,60fd530163a49887a66afdc0,61036f25d34988d5298eee86,2021-07-30_13h19.16.810,Simcolourproject_2stim_asymm_v5,2020.2.10,MacIntel,60,61025ae37ef11b136ea224fe,,,,,,,,,433,43.5546875,88.7734375,1,0,0,response1disk,,7,-2.984375,-6.40234375,1,0,0,rectangle,-2.984375,-6.40234375,1,0,0,-2.984375,-6.40234375,1,0,0,1,39,199,55,1,,,,,,,,
,,,,,,,,,,,,,FF,,,,,,,,0.8008,,,,,,,,,,,,,,,,,,,,,,60fd530163a49887a66afdc0,61036f25d34988d5298eee86,2021-07-30_13h19.16.810,Simcolourproject_2stim_asymm_v5,2020.2.10,MacIntel,60,61025ae37ef11b136ea224fe,,,,,,,,,3274,39.58984375,90.9453125,1,0,0,response1disk,,7,-1.9921875,-11.67578125,1,0,0,rectangle,-1.9921875,-11.67578125,1,0,0,-1.9921875,-11.67578125,1,0,0,1,40,200,22,1,,,,,,,,
,,,,,,,,,,,,,FF,,,,,,,,0.8804,,,,,,,,,,,,,,,,,,,,,,60fd530163a49887a66afdc0,61036f25d34988d5298eee86,2021-07-30_13h19.16.810,Simcolourproject_2stim_asymm_v5,2020.2.10,MacIntel,60,61025ae37ef11b136ea224fe,,,,,,,,,3217,54.9921875,99.63671875,1,0,0,response1disk,,7,1.87890625,1.63671875,1,0,0,rectangle,1.87890625,1.63671875,1,0,0,1.87890625,1.63671875,1,0,0,1,41,201,112,1,,,,,,,,
,,,,,,,,,,,,,FF,,,,,,,,1.2716,,,,,,,,,,,,,,,,,,,,,,60fd530163a49887a66afdc0,61036f25d34988d5298eee86,2021-07-30_13h19.16.810,Simcolourproject_2stim_asymm_v5,2020.2.10,MacIntel,60,61025ae37ef11b136ea224fe,,,,,,,,,2301,56.7109375,-55.7265625,1,0,0,response3disk,,5,-5.75390625,0.74609375,1,0,0,rectangle,-5.75390625,0.74609375,1,0,0,-5.75390625,0.74609375,1,0,0,1,42,202,107,1,,,,,,,,
,,,,,,,,,,,,,FF,,,,,,,,2.0346,,,,,,,,,,,,,,,,,,,,,,60fd530163a49887a66afdc0,61036f25d34988d5298eee86,2021-07-30_13h19.16.810,Simcolourproject_2stim_asymm_v5,2020.2.10,MacIntel,60,61025ae37ef11b136ea224fe,,,,,,,,,2995,-83.05859375,-52.859375,1,0,0,response5disk,,2,-0.95703125,-5.1796875,1,0,0,rectangle,-0.95703125,-5.1796875,1,0,0,-0.95703125,-5.1796875,1,0,0,1,43,203,96,1,,,,,,,,
,,,,,,,,,,,,,FF,,,,,,,,1.6991,,,,,,,,,,,,,,,,,,,,,,60fd530163a49887a66afdc0,61036f25d34988d5298eee86,2021-07-30_13h19.16.810,Simcolourproject_2stim_asymm_v5,2020.2.10,MacIntel,60,61025ae37ef11b136ea224fe,,,,,,,,,1934,38.87109375,72.765625,1,0,0,response1disk,,7,-3.77734375,-4.61328125,1,0,0,rectangle,-3.77734375,-4.61328125,1,0,0,-3.77734375,-4.61328125,1,0,0,1,44,204,47,1,,,,,,,,
,,,,,,,,,,,,,FF,,,,,,,,1.08,,,,,,,,,,,,,,,,,,,,,,60fd530163a49887a66afdc0,61036f25d34988d5298eee86,2021-07-30_13h19.16.810,Simcolourproject_2stim_asymm_v5,2020.2.10,MacIntel,60,61025ae37ef11b136ea224fe,,,,,,,,,2359,-46.234375,-76.109375,1,0,0,response5disk,,3,-2.93359375,11.1015625,1,0,0,rectangle,-2.93359375,11.1015625,1,0,0,-2.93359375,11.1015625,1,0,0,1,45,205,80,1,,,,,,,,
,,,,,,,,,,,,,FF,,,,,,,,0.8481,,,,,,,,,,,,,,,,,,,,,,60fd530163a49887a66afdc0,61036f25d34988d5298eee86,2021-07-30_13h19.16.810,Simcolourproject_2stim_asymm_v5,2020.2.10,MacIntel,60,61025ae37ef11b136ea224fe,,,,,,,,,2946,-88.21484375,-50.390625,1,0,0,response5disk,,2,-14.08984375,-8.58203125,1,0,0,rectangle,-14.08984375,-8.58203125,1,0,0,-14.08984375,-8.58203125,1,0,0,1,46,206,57,1,,,,,,,,
,,,,,,,,,,,,,FF,,,,,,,,0.8668,,,,,,,,,,,,,,,,,,,,,,60fd530163a49887a66afdc0,61036f25d34988d5298eee86,2021-07-30_13h19.16.810,Simcolourproject_2stim_asymm_v5,2020.2.10,MacIntel,60,61025ae37ef11b136ea224fe,,,,,,,,,1331,59.2421875,90.609375,1,0,0,response1disk,,7,4.0078125,-4.265625,1,0,0,rectangle,4.0078125,-4.265625,1,0,0,4.0078125,-4.265625,1,0,0,1,47,207,99,1,,,,,,,,
,,,,,,,,,,,,,FF,,,,,,,,1.3815,,,,,,,,,,,,,,,,,,,,,,60fd530163a49887a66afdc0,61036f25d34988d5298eee86,2021-07-30_13h19.16.810,Simcolourproject_2stim_asymm_v5,2020.2.10,MacIntel,60,61025ae37ef11b136ea224fe,,,,,,,,,1586,35.2109375,-80.33984375,1,0,0,response3disk,,4,3.359375,-4.06640625,1,0,0,rectangle,3.359375,-4.06640625,1,0,0,3.359375,-4.06640625,1,0,0,1,48,208,69,1,,,,,,,,
,,,,,,,,,,,,,FF,,,,,,,,1.3837,,,,,,,,,,,,,,,,,,,,,,60fd530163a49887a66afdc0,61036f25d34988d5298eee86,2021-07-30_13h19.16.810,Simcolourproject_2stim_asymm_v5,2020.2.10,MacIntel,60,61025ae37ef11b136ea224fe,,,,,,,,,3299,49.5703125,-85.22265625,1,0,0,response3disk,,4,1.52734375,-1.09765625,1,0,0,rectangle,1.52734375,-1.09765625,1,0,0,1.52734375,-1.09765625,1,0,0,1,49,209,159,1,,,,,,,,
,,,,,,,,,,,,,FF,,,,,,,,0.7995,,,,,,,,,,,,,,,,,,,,,,60fd530163a49887a66afdc0,61036f25d34988d5298eee86,2021-07-30_13h19.16.810,Simcolourproject_2stim_asymm_v5,2020.2.10,MacIntel,60,61025ae37ef11b136ea224fe,,,,,,,,,773,42.65625,88.70703125,1,0,0,response1disk,,7,3.68359375,-1.125,1,0,0,rectangle,3.68359375,-1.125,1,0,0,3.68359375,-1.125,1,0,0,1,50,210,101,1,,,,,,,,
,,,,,,,,,,,,,FF,,,,,,,,0.7677,,,,,,,,,,,,,,,,,,,,,,60fd530163a49887a66afdc0,61036f25d34988d5298eee86,2021-07-30_13h19.16.810,Simcolourproject_2stim_asymm_v5,2020.2.10,MacIntel,60,61025ae37ef11b136ea224fe,,,,,,,,,1339,49.53515625,90.8203125,1,0,0,response1disk,,7,7.4609375,5.421875,1,0,0,rectangle,7.4609375,5.421875,1,0,0,7.4609375,5.421875,1,0,0,1,51,211,14,1,,,,,,,,
,,,,,,,,,,,,,FF,,,,,,,,0.7999,,,,,,,,,,,,,,,,,,,,,,60fd530163a49887a66afdc0,61036f25d34988d5298eee86,2021-07-30_13h19.16.810,Simcolourproject_2stim_asymm_v5,2020.2.10,MacIntel,60,61025ae37ef11b136ea224fe,,,,,,,,,176,44.7109375,90.2890625,1,0,0,response1disk,,7,6.50390625,5.01953125,1,0,0,rectangle,6.50390625,5.01953125,1,0,0,6.50390625,5.01953125,1,0,0,1,52,212,18,1,,,,,,,,
,,,,,,,,,,,,,FF,,,,,,,,1.0993,,,,,,,,,,,,,,,,,,,,,,60fd530163a49887a66afdc0,61036f25d34988d5298eee86,2021-07-30_13h19.16.810,Simcolourproject_2stim_asymm_v5,2020.2.10,MacIntel,60,61025ae37ef11b136ea224fe,,,,,,,,,2573,50.53125,94.6171875,1,0,0,response1disk,,7,0.10546875,6.7890625,1,0,0,rectangle,0.10546875,6.7890625,1,0,0,0.10546875,6.7890625,1,0,0,1,53,213,119,1,,,,,,,,
,,,,,,,,,,,,,FF,,,,,,,,1.2489,,,,,,,,,,,,,,,,,,,,,,60fd530163a49887a66afdc0,61036f25d34988d5298eee86,2021-07-30_13h19.16.810,Simcolourproject_2stim_asymm_v5,2020.2.10,MacIntel,60,61025ae37ef11b136ea224fe,,,,,,,,,803,-76.2734375,-59.703125,1,0,0,response5disk,,2,-4.29296875,-8.96875,1,0,0,rectangle,-4.29296875,-8.96875,1,0,0,-4.29296875,-8.96875,1,0,0,1,54,214,63,1,,,,,,,,
,,,,,,,,,,,,,FF,,,,,,,,0.7665,,,,,,,,,,,,,,,,,,,,,,60fd530163a49887a66afdc0,61036f25d34988d5298eee86,2021-07-30_13h19.16.810,Simcolourproject_2stim_asymm_v5,2020.2.10,MacIntel,60,61025ae37ef11b136ea224fe,,,,,,,,,3519,-90.578125,-38.4609375,1,0,0,response5disk,,2,-4.60546875,-2.63671875,1,0,0,rectangle,-4.60546875,-2.63671875,1,0,0,-4.60546875,-2.63671875,1,0,0,1,55,215,30,1,,,,,,,,
,,,,,,,,,,,,,FF,,,,,,,,0.7846,,,,,,,,,,,,,,,,,,,,,,60fd530163a49887a66afdc0,61036f25d34988d5298eee86,2021-07-30_13h19.16.810,Simcolourproject_2stim_asymm_v5,2020.2.10,MacIntel,60,61025ae37ef11b136ea224fe,,,,,,,,,180,54.42578125,94.01171875,1,0,0,response1disk,,7,1.25,2.5703125,1,0,0,rectangle,1.25,2.5703125,1,0,0,1.25,2.5703125,1,0,0,1,56,216,52,1,,,,,,,,
,,,,,,,,,,,,,FF,,,,,,,,0.867,,,,,,,,,,,,,,,,,,,,,,60fd530163a49887a66afdc0,61036f25d34988d5298eee86,2021-07-30_13h19.16.810,Simcolourproject_2stim_asymm_v5,2020.2.10,MacIntel,60,61025ae37ef11b136ea224fe,,,,,,,,,1852,44.140625,92.80078125,1,0,0,response1disk,,7,2.62109375,3.30859375,1,0,0,rectangle,2.62109375,3.30859375,1,0,0,2.62109375,3.30859375,1,0,0,1,57,217,95,1,,,,,,,,
,,,,,,,,,,,,,FF,,,,,,,,0.7348,,,,,,,,,,,,,,,,,,,,,,60fd530163a49887a66afdc0,61036f25d34988d5298eee86,2021-07-30_13h19.16.810,Simcolourproject_2stim_asymm_v5,2020.2.10,MacIntel,60,61025ae37ef11b136ea224fe,,,,,,,,,1107,56.05859375,87.62109375,1,0,0,response1disk,,7,0.515625,-5.26953125,1,0,0,rectangle,0.515625,-5.26953125,1,0,0,0.515625,-5.26953125,1,0,0,1,58,218,92,1,,,,,,,,
,,,,,,,,,,,,,FF,,,,,,,,1.1517,,,,,,,,,,,,,,,,,,,,,,60fd530163a49887a66afdc0,61036f25d34988d5298eee86,2021-07-30_13h19.16.810,Simcolourproject_2stim_asymm_v5,2020.2.10,MacIntel,60,61025ae37ef11b136ea224fe,,,,,,,,,3336,-33.8828125,91.17578125,1,0,0,response7disk,,0,1.76953125,-3.03125,1,0,0,rectangle,-86.59765625,-40.53125,1,0,0,9,-1.6875,1,0,0,1,59,219,145,1,,response5disk_3,TRUE,2,2,"[160,33,291,238,234,101,89,58,101,83,0,23,220,262,86,95,11,315,283,21]",1.8505,rectangle
,,,,,,,,,,,,,FF,,,,,,,,1.0661,,,,,,,,,,,,,,,,,,,,,,60fd530163a49887a66afdc0,61036f25d34988d5298eee86,2021-07-30_13h19.16.810,Simcolourproject_2stim_asymm_v5,2020.2.10,MacIntel,60,61025ae37ef11b136ea224fe,,,,,,,,,84,58.80078125,96.05078125,1,0,0,response1disk,,7,2.234375,-8.6640625,1,0,0,rectangle,2.234375,-8.6640625,1,0,0,2.234375,-8.6640625,1,0,0,1,60,220,8,1,,,,,,,,
,,,,,,,,,,,,,FF,,,,,,,,0.9562,,,,,,,,,,,,,,,,,,,,,,60fd530163a49887a66afdc0,61036f25d34988d5298eee86,2021-07-30_13h19.16.810,Simcolourproject_2stim_asymm_v5,2020.2.10,MacIntel,60,61025ae37ef11b136ea224fe,,,,,,,,,3145,39.8828125,102.2890625,1,0,0,response1disk,,7,3.921875,2.875,1,0,0,rectangle,3.921875,2.875,1,0,0,3.921875,2.875,1,0,0,1,61,221,31,1,,,,,,,,
,,,,,,,,,,,,,FF,,,,,,,,1.2,,,,,,,,,,,,,,,,,,,,,,60fd530163a49887a66afdc0,61036f25d34988d5298eee86,2021-07-30_13h19.16.810,Simcolourproject_2stim_asymm_v5,2020.2.10,MacIntel,60,61025ae37ef11b136ea224fe,,,,,,,,,246,38.34765625,83.1640625,1,0,0,response1disk,,7,-0.65625,-4.87890625,1,0,0,rectangle,-0.65625,-4.87890625,1,0,0,-0.65625,-4.87890625,1,0,0,1,62,222,70,1,,,,,,,,
,,,,,,,,,,,,,FF,,,,,,,,0.8001,,,,,,,,,,,,,,,,,,,,,,60fd530163a49887a66afdc0,61036f25d34988d5298eee86,2021-07-30_13h19.16.810,Simcolourproject_2stim_asymm_v5,2020.2.10,MacIntel,60,61025ae37ef11b136ea224fe,,,,,,,,,452,42.796875,98.26171875,1,0,0,response1disk,,7,-2.421875,-0.4296875,1,0,0,rectangle,-2.421875,-0.4296875,1,0,0,-2.421875,-0.4296875,1,0,0,1,63,223,51,1,,,,,,,,
,,,,,,,,,,,,,FF,,,,,,,,0.8455,,,,,,,,,,,,,,,,,,,,,,60fd530163a49887a66afdc0,61036f25d34988d5298eee86,2021-07-30_13h19.16.810,Simcolourproject_2stim_asymm_v5,2020.2.10,MacIntel,60,61025ae37ef11b136ea224fe,,,,,,,,,145,39.41796875,82.62890625,1,0,0,response1disk,,7,-0.43359375,-3.22265625,1,0,0,rectangle,-0.43359375,-3.22265625,1,0,0,-0.43359375,-3.22265625,1,0,0,1,64,224,2,1,,,,,,,,
,,,,,,,,,,,,,FF,,,,,,,,1.449,,,,,,,,,,,,,,,,,,,,,,60fd530163a49887a66afdc0,61036f25d34988d5298eee86,2021-07-30_13h19.16.810,Simcolourproject_2stim_asymm_v5,2020.2.10,MacIntel,60,61025ae37ef11b136ea224fe,,,,,,,,,3799,95.203125,-34.55859375,1,0,0,response3disk,,5,8.36328125,-1.80078125,1,0,0,rectangle,8.36328125,-1.80078125,1,0,0,8.36328125,-1.80078125,1,0,0,1,65,225,135,1,,,,,,,,
,,,,,,,,,,,,,FF,,,,,,,,0.9732,,,,,,,,,,,,,,,,,,,,,,60fd530163a49887a66afdc0,61036f25d34988d5298eee86,2021-07-30_13h19.16.810,Simcolourproject_2stim_asymm_v5,2020.2.10,MacIntel,60,61025ae37ef11b136ea224fe,,,,,,,,,3287,-34.66015625,-85.1015625,1,0,0,response5disk,,3,-12.4921875,-0.9375,1,0,0,rectangle,-12.4921875,-0.9375,1,0,0,-12.4921875,-0.9375,1,0,0,1,66,226,34,1,,,,,,,,
,,,,,,,,,,,,,FF,,,,,,,,0.7517,,,,,,,,,,,,,,,,,,,,,,60fd530163a49887a66afdc0,61036f25d34988d5298eee86,2021-07-30_13h19.16.810,Simcolourproject_2stim_asymm_v5,2020.2.10,MacIntel,60,61025ae37ef11b136ea224fe,,,,,,,,,3561,34.29296875,91,1,0,0,response1disk,,7,-1.87890625,1.44140625,1,0,0,rectangle,-1.87890625,1.44140625,1,0,0,-1.87890625,1.44140625,1,0,0,1,67,227,102,1,,,,,,,,
,,,,,,,,,,,,,FF,,,,,,,,0.7493,,,,,,,,,,,,,,,,,,,,,,60fd530163a49887a66afdc0,61036f25d34988d5298eee86,2021-07-30_13h19.16.810,Simcolourproject_2stim_asymm_v5,2020.2.10,MacIntel,60,61025ae37ef11b136ea224fe,,,,,,,,,2700,43.64453125,93.4609375,1,0,0,response1disk,,7,3.68359375,0.77734375,1,0,0,rectangle,3.68359375,0.77734375,1,0,0,3.68359375,0.77734375,1,0,0,1,68,228,110,1,,,,,,,,
,,,,,,,,,,,,,FF,,,,,,,,7.384,,,,,,,,,,,,,,,,,,,,,,60fd530163a49887a66afdc0,61036f25d34988d5298eee86,2021-07-30_13h19.16.810,Simcolourproject_2stim_asymm_v5,2020.2.10,MacIntel,60,61025ae37ef11b136ea224fe,,,,,,,,,2003,45.515625,-87.78515625,1,0,0,response3disk,,4,8.73046875,-9.921875,1,0,0,rectangle,8.73046875,-9.921875,1,0,0,8.73046875,-9.921875,1,0,0,1,69,229,142,1,,,,,,,,
,,,,,,,,,,,,,FF,,,,,,,,0.8792,,,,,,,,,,,,,,,,,,,,,,60fd530163a49887a66afdc0,61036f25d34988d5298eee86,2021-07-30_13h19.16.810,Simcolourproject_2stim_asymm_v5,2020.2.10,MacIntel,60,61025ae37ef11b136ea224fe,,,,,,,,,1723,34.86328125,101.4414063,1,0,0,response1disk,,7,1.01953125,-1.99609375,1,0,0,rectangle,1.01953125,-1.99609375,1,0,0,1.01953125,-1.99609375,1,0,0,1,70,230,50,1,,,,,,,,
,,,,,,,,,,,,,FF,,,,,,,,1.0665,,,,,,,,,,,,,,,,,,,,,,60fd530163a49887a66afdc0,61036f25d34988d5298eee86,2021-07-30_13h19.16.810,Simcolourproject_2stim_asymm_v5,2020.2.10,MacIntel,60,61025ae37ef11b136ea224fe,,,,,,,,,1762,41.5546875,-85.859375,1,0,0,response3disk,,4,0.16015625,7.6328125,1,0,0,rectangle,0.16015625,7.6328125,1,0,0,0.16015625,7.6328125,1,0,0,1,71,231,141,1,,,,,,,,
,,,,,,,,,,,,,FF,,,,,,,,0.8167,,,,,,,,,,,,,,,,,,,,,,60fd530163a49887a66afdc0,61036f25d34988d5298eee86,2021-07-30_13h19.16.810,Simcolourproject_2stim_asymm_v5,2020.2.10,MacIntel,60,61025ae37ef11b136ea224fe,,,,,,,,,3398,-71.234375,-42.33984375,1,0,0,response5disk,,2,-8.875,-7.2578125,1,0,0,rectangle,-8.875,-7.2578125,1,0,0,-8.875,-7.2578125,1,0,0,1,72,232,149,1,,,,,,,,
,,,,,,,,,,,,,FF,,,,,,,,0.85,,,,,,,,,,,,,,,,,,,,,,60fd530163a49887a66afdc0,61036f25d34988d5298eee86,2021-07-30_13h19.16.810,Simcolourproject_2stim_asymm_v5,2020.2.10,MacIntel,60,61025ae37ef11b136ea224fe,,,,,,,,,1456,-88.34765625,-52.47265625,1,0,0,response5disk,,2,-7.84375,-3.421875,1,0,0,rectangle,-33.30859375,88.03515625,1,0,0,-2.16796875,-11.72265625,1,0,0,1,73,233,111,1,,response7disk_3,TRUE,0,0,"[160,33,291,238,234,101,89,58,101,83,0,23,220,262,86,95,11,315,283,21]",1.7684,rectangle
,,,,,,,,,,,,,FF,,,,,,,,1.3661,,,,,,,,,,,,,,,,,,,,,,60fd530163a49887a66afdc0,61036f25d34988d5298eee86,2021-07-30_13h19.16.810,Simcolourproject_2stim_asymm_v5,2020.2.10,MacIntel,60,61025ae37ef11b136ea224fe,,,,,,,,,2686,57.1640625,-81.10546875,1,0,0,response3disk,,4,11.71484375,2.515625,1,0,0,rectangle,11.71484375,2.515625,1,0,0,11.71484375,2.515625,1,0,0,1,74,234,100,1,,,,,,,,
,,,,,,,,,,,,,FF,,,,,,,,1.5818,,,,,,,,,,,,,,,,,,,,,,60fd530163a49887a66afdc0,61036f25d34988d5298eee86,2021-07-30_13h19.16.810,Simcolourproject_2stim_asymm_v5,2020.2.10,MacIntel,60,61025ae37ef11b136ea224fe,,,,,,,,,884,-43.76171875,-81.5390625,1,0,0,response5disk,,3,1.5,-4.40625,1,0,0,rectangle,1.5,-4.40625,1,0,0,1.5,-4.40625,1,0,0,1,75,235,39,1,,,,,,,,
,,,,,,,,,,,,,FF,,,,,,,,1.1562,,,,,,,,,,,,,,,,,,,,,,60fd530163a49887a66afdc0,61036f25d34988d5298eee86,2021-07-30_13h19.16.810,Simcolourproject_2stim_asymm_v5,2020.2.10,MacIntel,60,61025ae37ef11b136ea224fe,,,,,,,,,1794,46.5546875,-58.46875,1,0,0,response3disk,,4,2.42578125,-4.4453125,1,0,0,rectangle,2.42578125,-4.4453125,1,0,0,2.42578125,-4.4453125,1,0,0,1,76,236,108,1,,,,,,,,
,,,,,,,,,,,,,FF,,,,,,,,0.9725,,,,,,,,,,,,,,,,,,,,,,60fd530163a49887a66afdc0,61036f25d34988d5298eee86,2021-07-30_13h19.16.810,Simcolourproject_2stim_asymm_v5,2020.2.10,MacIntel,60,61025ae37ef11b136ea224fe,,,,,,,,,1511,80.6171875,-39.30078125,1,0,0,response3disk,,5,27.625,-1.7421875,1,0,0,rectangle,-38.8515625,102.7460938,1,0,0,-1.3125,-11.6953125,1,0,0,1,77,237,105,1,,response7disk_3,TRUE,0,0,"[160,33,291,238,234,101,89,58,101,83,0,23,220,262,86,95,11,315,283,21]",1.8834,rectangle
,,,,,,,,,,,,,FF,,,,,,,,0.8833,,,,,,,,,,,,,,,,,,,,,,60fd530163a49887a66afdc0,61036f25d34988d5298eee86,2021-07-30_13h19.16.810,Simcolourproject_2stim_asymm_v5,2020.2.10,MacIntel,60,61025ae37ef11b136ea224fe,,,,,,,,,774,30.0546875,72.25390625,1,0,0,response1disk,,7,2.3828125,0.140625,1,0,0,rectangle,2.3828125,0.140625,1,0,0,2.3828125,0.140625,1,0,0,1,78,238,38,1,,,,,,,,
,,,,,,,,,,,,,FF,,,,,,,,2.3841,,,,,,,,,,,,,,,,,,,,,,60fd530163a49887a66afdc0,61036f25d34988d5298eee86,2021-07-30_13h19.16.810,Simcolourproject_2stim_asymm_v5,2020.2.10,MacIntel,60,61025ae37ef11b136ea224fe,,,,,,,,,1396,47.70703125,91.84375,1,0,0,response1disk,,7,4.98828125,7.61328125,1,0,0,rectangle,4.98828125,7.61328125,1,0,0,4.98828125,7.61328125,1,0,0,1,79,239,124,1,,,,,,,,
,,,,,,,,,,,,,FF,,,,,,,,0.8154,,,,,,,,,,,,,,,,,,,,,,60fd530163a49887a66afdc0,61036f25d34988d5298eee86,2021-07-30_13h19.16.810,Simcolourproject_2stim_asymm_v5,2020.2.10,MacIntel,60,61025ae37ef11b136ea224fe,,,,,,,,,890,-73.56640625,-39.0234375,1,0,0,response5disk,,2,-9.48828125,-5.40234375,1,0,0,rectangle,-9.48828125,-5.40234375,1,0,0,-9.48828125,-5.40234375,1,0,0,1,80,240,28,1,,,,,,,,
,,,,,,,,,,,,,FF,,,,,,,,1.3036,,,,,,,,,,,,,,,,,,,,,,60fd530163a49887a66afdc0,61036f25d34988d5298eee86,2021-07-30_13h19.16.810,Simcolourproject_2stim_asymm_v5,2020.2.10,MacIntel,60,61025ae37ef11b136ea224fe,,,,,,,,,2623,47.20703125,-74.86328125,1,0,0,response3disk,,4,4.37890625,-0.37109375,1,0,0,rectangle,4.37890625,-0.37109375,1,0,0,4.37890625,-0.37109375,1,0,0,1,81,241,3,1,,,,,,,,
,,,,,,,,,,,,,FF,,,,,,,,2.083,,,,,,,,,,,,,,,,,,,,,,60fd530163a49887a66afdc0,61036f25d34988d5298eee86,2021-07-30_13h19.16.810,Simcolourproject_2stim_asymm_v5,2020.2.10,MacIntel,60,61025ae37ef11b136ea224fe,,,,,,,,,2373,42.74609375,83.4296875,1,0,0,response1disk,,7,2.21875,0.625,1,0,0,rectangle,2.21875,0.625,1,0,0,2.21875,0.625,1,0,0,1,82,242,115,1,,,,,,,,
,,,,,,,,,,,,,FF,,,,,,,,0.9016,,,,,,,,,,,,,,,,,,,,,,60fd530163a49887a66afdc0,61036f25d34988d5298eee86,2021-07-30_13h19.16.810,Simcolourproject_2stim_asymm_v5,2020.2.10,MacIntel,60,61025ae37ef11b136ea224fe,,,,,,,,,959,49.15234375,85.20703125,1,0,0,response1disk,,7,0.59375,-10.8203125,1,0,0,rectangle,0.59375,-10.8203125,1,0,0,0.59375,-10.8203125,1,0,0,1,83,243,68,1,,,,,,,,
,,,,,,,,,,,,,FF,,,,,,,,1.1336,,,,,,,,,,,,,,,,,,,,,,60fd530163a49887a66afdc0,61036f25d34988d5298eee86,2021-07-30_13h19.16.810,Simcolourproject_2stim_asymm_v5,2020.2.10,MacIntel,60,61025ae37ef11b136ea224fe,,,,,,,,,4160,32.34375,72.5546875,1,0,0,response1disk,,7,3.98828125,2.9453125,1,0,0,rectangle,3.98828125,2.9453125,1,0,0,3.98828125,2.9453125,1,0,0,1,84,244,148,1,,,,,,,,
,,,,,,,,,,,,,FF,,,,,,,,1.1334,,,,,,,,,,,,,,,,,,,,,,60fd530163a49887a66afdc0,61036f25d34988d5298eee86,2021-07-30_13h19.16.810,Simcolourproject_2stim_asymm_v5,2020.2.10,MacIntel,60,61025ae37ef11b136ea224fe,,,,,,,,,3628,83.9765625,-43.4375,1,0,0,response3disk,,5,0.3515625,-5.54296875,1,0,0,rectangle,0.3515625,-5.54296875,1,0,0,0.3515625,-5.54296875,1,0,0,1,85,245,144,1,,,,,,,,
,,,,,,,,,,,,,FF,,,,,,,,0.8994,,,,,,,,,,,,,,,,,,,,,,60fd530163a49887a66afdc0,61036f25d34988d5298eee86,2021-07-30_13h19.16.810,Simcolourproject_2stim_asymm_v5,2020.2.10,MacIntel,60,61025ae37ef11b136ea224fe,,,,,,,,,4095,-38.77734375,71.0625,1,0,0,response7disk,,0,-8.11328125,-1.625,1,0,0,rectangle,-8.11328125,-1.625,1,0,0,-8.11328125,-1.625,1,0,0,1,86,246,156,1,,,,,,,,
,,,,,,,,,,,,,FF,,,,,,,,0.7997,,,,,,,,,,,,,,,,,,,,,,60fd530163a49887a66afdc0,61036f25d34988d5298eee86,2021-07-30_13h19.16.810,Simcolourproject_2stim_asymm_v5,2020.2.10,MacIntel,60,61025ae37ef11b136ea224fe,,,,,,,,,128,47.5859375,88.8515625,1,0,0,response1disk,,7,1.4453125,0.1640625,1,0,0,rectangle,1.4453125,0.1640625,1,0,0,1.4453125,0.1640625,1,0,0,1,87,247,54,1,,,,,,,,
,,,,,,,,,,,,,FF,,,,,,,,1.1883,,,,,,,,,,,,,,,,,,,,,,60fd530163a49887a66afdc0,61036f25d34988d5298eee86,2021-07-30_13h19.16.810,Simcolourproject_2stim_asymm_v5,2020.2.10,MacIntel,60,61025ae37ef11b136ea224fe,,,,,,,,,3902,48.3046875,-100.8476563,1,0,0,response3disk,,4,-0.64453125,-5.921875,1,0,0,rectangle,-0.64453125,-5.921875,1,0,0,-0.64453125,-5.921875,1,0,0,1,88,248,74,1,,,,,,,,
,,,,,,,,,,,,,FF,,,,,,,,1.8838,,,,,,,,,,,,,,,,,,,,,,60fd530163a49887a66afdc0,61036f25d34988d5298eee86,2021-07-30_13h19.16.810,Simcolourproject_2stim_asymm_v5,2020.2.10,MacIntel,60,61025ae37ef11b136ea224fe,,,,,,,,,513,48.484375,84.1171875,1,0,0,response1disk,,7,-11.25,-7.6875,1,0,0,rectangle,-11.25,-7.6875,1,0,0,-11.25,-7.6875,1,0,0,1,89,249,131,1,,,,,,,,
