key_resp.keys,key_resp.rt,key_resp_14.keys,key_resp_14.rt,key_resp_15.keys,key_resp_15.rt,key_resp_17.keys,key_resp_17.rt,key_resp_9.keys,key_resp_9.rt,key_resp_10.keys,key_resp_10.rt,practice_comparison,Ecc,mouse_5.x,mouse_5.y,mouse_5.leftButton,mouse_5.midButton,mouse_5.rightButton,mouse_5.clicked_name,pracsimilarity,response_time,mouse_10.x,mouse_10.y,mouse_10.leftButton,mouse_10.midButton,mouse_10.rightButton,mouse_10.clicked_name,mouse_7.x,mouse_7.y,mouse_7.leftButton,mouse_7.midButton,mouse_7.rightButton,mouse_6.x,mouse_6.y,mouse_6.leftButton,mouse_6.midButton,mouse_6.rightButton,duringprac.thisRepN,duringprac.thisTrialN,duringprac.thisN,duringprac.thisIndex,duringprac.ran,participant,session,date,expName,psychopyVersion,OS,frameRate,study_id,mouse_7.clicked_name,catchpracsimilarity,catch_response_time,catchnumberprac,catchtrialorderprac,mouse_6.clicked_name,key_resp_22.keys,key_resp_22.rt,realcomparison,mouse.x,mouse.y,mouse.leftButton,mouse.midButton,mouse.rightButton,mouse.clicked_name,Colour2,similarity,mouse_2.x,mouse_2.y,mouse_2.leftButton,mouse_2.midButton,mouse_2.rightButton,mouse_2.clicked_name,mouse_3.x,mouse_3.y,mouse_3.leftButton,mouse_3.midButton,mouse_3.rightButton,mouse_11.x,mouse_11.y,mouse_11.leftButton,mouse_11.midButton,mouse_11.rightButton,trials_2.thisRepN,trials_2.thisTrialN,trials_2.thisN,trials_2.thisIndex,trials_2.ran,Colour1,mouse_3.clicked_name,catchornah,catchsimilarity,catchnumber,catchtrialorder,catchRT,mouse_11.clicked_name
space,1.047,space,2.413,space,17.886,space,10.144,space,1.062,space,3.906,19,PF,-39,-107,1,0,0,response5disk_5,3,5.4,3,-1,1,0,0,rectangle_8,3,-1,1,0,0,3,-1,1,0,0,0,0,0,6,1,60fdff6234e9b78c0d472d5b,610366ea73c4d05e1f484f6e,2021-07-29_22h42.46.263,Simcolourproject_2stim_asymm_v5,2020.2.10,MacIntel,60,61025ae37ef11b136ea224fe,,,,,,,,,,,,,,,,,,,,,,,,,,,,,,,,,,,,,,,,,,,,,,
,,,,,,,,,,,,2,FF,-31,73,1,0,0,response7disk_5,0,2.017,-5,6,1,0,0,rectangle_8,54,108,1,0,0,-1,-1,1,0,0,0,1,1,0,1,60fdff6234e9b78c0d472d5b,610366ea73c4d05e1f484f6e,2021-07-29_22h42.46.263,Simcolourproject_2stim_asymm_v5,2020.2.10,MacIntel,60,61025ae37ef11b136ea224fe,response1disk_7,7,2.4,7,"[2,5]",rectangle_4,,,,,,,,,,,,,,,,,,,,,,,,,,,,,,,,,,,,,,,,
,,,,,,,,,,,,139,PF,-46,-104,1,0,0,response5disk_5,3,2.668,7,13,1,0,0,rectangle_8,7,13,1,0,0,7,13,1,0,0,0,2,2,4,1,60fdff6234e9b78c0d472d5b,610366ea73c4d05e1f484f6e,2021-07-29_22h42.46.263,Simcolourproject_2stim_asymm_v5,2020.2.10,MacIntel,60,61025ae37ef11b136ea224fe,,,,,,,,,,,,,,,,,,,,,,,,,,,,,,,,,,,,,,,,,,,,,,
,,,,,,,,,,,,44,PF,58,80,1,0,0,response1disk_5,7,1.666,-5,-8,1,0,0,rectangle_8,-5,-8,1,0,0,-5,-8,1,0,0,0,3,3,1,1,60fdff6234e9b78c0d472d5b,610366ea73c4d05e1f484f6e,2021-07-29_22h42.46.263,Simcolourproject_2stim_asymm_v5,2020.2.10,MacIntel,60,61025ae37ef11b136ea224fe,,,,,,,,,,,,,,,,,,,,,,,,,,,,,,,,,,,,,,,,,,,,,,
,,,,,,,,,,,,119,FF,-42,71,1,0,0,response7disk_5,0,1.834,-15,-2,1,0,0,rectangle_8,66,98,1,0,0,4,-1,1,0,0,0,4,4,3,1,60fdff6234e9b78c0d472d5b,610366ea73c4d05e1f484f6e,2021-07-29_22h42.46.263,Simcolourproject_2stim_asymm_v5,2020.2.10,MacIntel,60,61025ae37ef11b136ea224fe,response1disk_7,7,1.85,7,"[2,5]",rectangle_4,,,,,,,,,,,,,,,,,,,,,,,,,,,,,,,,,,,,,,,,
,,,,,,,,,,,,84,PF,44,88,1,0,0,response1disk_5,7,1.366,14,8,1,0,0,rectangle_8,14,8,1,0,0,14,8,1,0,0,0,5,5,2,1,60fdff6234e9b78c0d472d5b,610366ea73c4d05e1f484f6e,2021-07-29_22h42.46.263,Simcolourproject_2stim_asymm_v5,2020.2.10,MacIntel,60,61025ae37ef11b136ea224fe,,,,,,,,,,,,,,,,,,,,,,,,,,,,,,,,,,,,,,,,,,,,,,
,,,,,,,,,,,,89,FF,-55,-96,1,0,0,response5disk_5,3,7.317,6,5,1,0,0,rectangle_8,6,5,1,0,0,6,5,1,0,0,0,6,6,5,1,60fdff6234e9b78c0d472d5b,610366ea73c4d05e1f484f6e,2021-07-29_22h42.46.263,Simcolourproject_2stim_asymm_v5,2020.2.10,MacIntel,60,61025ae37ef11b136ea224fe,,,,,,,,,,,,,,,,,,,,,,,,,,,,,,,,,,,,,,,,,,,,,,
,,,,,,,,,,,,,FF,,,,,,,,7.435,,,,,,,,,,,,,,,,,,,,,,60fdff6234e9b78c0d472d5b,610366ea73c4d05e1f484f6e,2021-07-29_22h42.46.263,Simcolourproject_2stim_asymm_v5,2020.2.10,MacIntel,60,61025ae37ef11b136ea224fe,,,,,,,space,4.269,2171,-68,-85,1,0,0,response5disk,,3,19,-2,1,0,0,rectangle,19,-2,1,0,0,19,-2,1,0,0,0,0,0,107,1,,,,,,,,
,,,,,,,,,,,,,FF,,,,,,,,2.718,,,,,,,,,,,,,,,,,,,,,,60fdff6234e9b78c0d472d5b,610366ea73c4d05e1f484f6e,2021-07-29_22h42.46.263,Simcolourproject_2stim_asymm_v5,2020.2.10,MacIntel,60,61025ae37ef11b136ea224fe,,,,,,,,,2009,44,74,1,0,0,response1disk,,7,7,11,1,0,0,rectangle,7,11,1,0,0,7,11,1,0,0,0,1,1,112,1,,,,,,,,
,,,,,,,,,,,,,FF,,,,,,,,3.367,,,,,,,,,,,,,,,,,,,,,,60fdff6234e9b78c0d472d5b,610366ea73c4d05e1f484f6e,2021-07-29_22h42.46.263,Simcolourproject_2stim_asymm_v5,2020.2.10,MacIntel,60,61025ae37ef11b136ea224fe,,,,,,,,,1880,40,91,1,0,0,response1disk,,7,5,-3,1,0,0,rectangle,5,-3,1,0,0,5,-3,1,0,0,0,2,2,6,1,,,,,,,,
,,,,,,,,,,,,,FF,,,,,,,,3.483,,,,,,,,,,,,,,,,,,,,,,60fdff6234e9b78c0d472d5b,610366ea73c4d05e1f484f6e,2021-07-29_22h42.46.263,Simcolourproject_2stim_asymm_v5,2020.2.10,MacIntel,60,61025ae37ef11b136ea224fe,,,,,,,,,2247,59,74,1,0,0,response1disk,,7,10,4,1,0,0,rectangle,10,4,1,0,0,10,4,1,0,0,0,3,3,135,1,,,,,,,,
,,,,,,,,,,,,,FF,,,,,,,,1.416,,,,,,,,,,,,,,,,,,,,,,60fdff6234e9b78c0d472d5b,610366ea73c4d05e1f484f6e,2021-07-29_22h42.46.263,Simcolourproject_2stim_asymm_v5,2020.2.10,MacIntel,60,61025ae37ef11b136ea224fe,,,,,,,,,3566,60,109,1,0,0,response1disk,,7,0,-9,1,0,0,rectangle,0,-9,1,0,0,0,-9,1,0,0,0,4,4,21,1,,,,,,,,
,,,,,,,,,,,,,FF,,,,,,,,0.799,,,,,,,,,,,,,,,,,,,,,,60fdff6234e9b78c0d472d5b,610366ea73c4d05e1f484f6e,2021-07-29_22h42.46.263,Simcolourproject_2stim_asymm_v5,2020.2.10,MacIntel,60,61025ae37ef11b136ea224fe,,,,,,,,,3941,31,65,1,0,0,response1disk,,7,22,-7,1,0,0,rectangle,22,-7,1,0,0,22,-7,1,0,0,0,5,5,15,1,,,,,,,,
,,,,,,,,,,,,,FF,,,,,,,,2.051,,,,,,,,,,,,,,,,,,,,,,60fdff6234e9b78c0d472d5b,610366ea73c4d05e1f484f6e,2021-07-29_22h42.46.263,Simcolourproject_2stim_asymm_v5,2020.2.10,MacIntel,60,61025ae37ef11b136ea224fe,,,,,,,,,3572,52,63,1,0,0,response1disk,,7,7,3,1,0,0,rectangle,7,3,1,0,0,7,3,1,0,0,0,6,6,145,1,,,,,,,,
,,,,,,,,,,,,,FF,,,,,,,,0.732,,,,,,,,,,,,,,,,,,,,,,60fdff6234e9b78c0d472d5b,610366ea73c4d05e1f484f6e,2021-07-29_22h42.46.263,Simcolourproject_2stim_asymm_v5,2020.2.10,MacIntel,60,61025ae37ef11b136ea224fe,,,,,,,,,2875,43,93,1,0,0,response1disk,,7,-1,4,1,0,0,rectangle,-1,4,1,0,0,-1,4,1,0,0,0,7,7,1,1,,,,,,,,
,,,,,,,,,,,,,FF,,,,,,,,0.85,,,,,,,,,,,,,,,,,,,,,,60fdff6234e9b78c0d472d5b,610366ea73c4d05e1f484f6e,2021-07-29_22h42.46.263,Simcolourproject_2stim_asymm_v5,2020.2.10,MacIntel,60,61025ae37ef11b136ea224fe,,,,,,,,,1417,37,64,1,0,0,response1disk,,7,-10,-3,1,0,0,rectangle,-10,-3,1,0,0,-10,-3,1,0,0,0,8,8,79,1,,,,,,,,
,,,,,,,,,,,,,FF,,,,,,,,3.7,,,,,,,,,,,,,,,,,,,,,,60fdff6234e9b78c0d472d5b,610366ea73c4d05e1f484f6e,2021-07-29_22h42.46.263,Simcolourproject_2stim_asymm_v5,2020.2.10,MacIntel,60,61025ae37ef11b136ea224fe,,,,,,,,,3719,72,56,1,0,0,response1disk,,6,-18,3,1,0,0,rectangle,-18,3,1,0,0,-18,3,1,0,0,0,9,9,90,1,,,,,,,,
,,,,,,,,,,,,,FF,,,,,,,,1.048,,,,,,,,,,,,,,,,,,,,,,60fdff6234e9b78c0d472d5b,610366ea73c4d05e1f484f6e,2021-07-29_22h42.46.263,Simcolourproject_2stim_asymm_v5,2020.2.10,MacIntel,60,61025ae37ef11b136ea224fe,,,,,,,,,2974,31,68,1,0,0,response1disk,,7,10,-8,1,0,0,rectangle,10,-8,1,0,0,10,-8,1,0,0,0,10,10,78,1,,,,,,,,
,,,,,,,,,,,,,FF,,,,,,,,2.483,,,,,,,,,,,,,,,,,,,,,,60fdff6234e9b78c0d472d5b,610366ea73c4d05e1f484f6e,2021-07-29_22h42.46.263,Simcolourproject_2stim_asymm_v5,2020.2.10,MacIntel,60,61025ae37ef11b136ea224fe,,,,,,,,,2420,-51,-66,1,0,0,response5disk,,3,9,-4,1,0,0,rectangle,9,-4,1,0,0,9,-4,1,0,0,0,11,11,136,1,,,,,,,,
,,,,,,,,,,,,,FF,,,,,,,,0.833,,,,,,,,,,,,,,,,,,,,,,60fdff6234e9b78c0d472d5b,610366ea73c4d05e1f484f6e,2021-07-29_22h42.46.263,Simcolourproject_2stim_asymm_v5,2020.2.10,MacIntel,60,61025ae37ef11b136ea224fe,,,,,,,,,3033,72,94,1,0,0,response1disk,,7,1,1,1,0,0,rectangle,1,1,1,0,0,1,1,1,0,0,0,12,12,118,1,,,,,,,,
,,,,,,,,,,,,,FF,,,,,,,,0.616,,,,,,,,,,,,,,,,,,,,,,60fdff6234e9b78c0d472d5b,610366ea73c4d05e1f484f6e,2021-07-29_22h42.46.263,Simcolourproject_2stim_asymm_v5,2020.2.10,MacIntel,60,61025ae37ef11b136ea224fe,,,,,,,,,3958,38,81,1,0,0,response1disk,,7,-7,-16,1,0,0,rectangle,-7,-16,1,0,0,-7,-16,1,0,0,0,13,13,146,1,,,,,,,,
,,,,,,,,,,,,,FF,,,,,,,,0.566,,,,,,,,,,,,,,,,,,,,,,60fdff6234e9b78c0d472d5b,610366ea73c4d05e1f484f6e,2021-07-29_22h42.46.263,Simcolourproject_2stim_asymm_v5,2020.2.10,MacIntel,60,61025ae37ef11b136ea224fe,,,,,,,,,1259,48,99,1,0,0,response1disk,,7,0,-5,1,0,0,rectangle,0,-5,1,0,0,0,-5,1,0,0,0,14,14,157,1,,,,,,,,
,,,,,,,,,,,,,FF,,,,,,,,1.117,,,,,,,,,,,,,,,,,,,,,,60fdff6234e9b78c0d472d5b,610366ea73c4d05e1f484f6e,2021-07-29_22h42.46.263,Simcolourproject_2stim_asymm_v5,2020.2.10,MacIntel,60,61025ae37ef11b136ea224fe,,,,,,,,,2158,41,59,1,0,0,response1disk,,7,8,-12,1,0,0,rectangle,8,-12,1,0,0,8,-12,1,0,0,0,15,15,94,1,,,,,,,,
,,,,,,,,,,,,,FF,,,,,,,,1.049,,,,,,,,,,,,,,,,,,,,,,60fdff6234e9b78c0d472d5b,610366ea73c4d05e1f484f6e,2021-07-29_22h42.46.263,Simcolourproject_2stim_asymm_v5,2020.2.10,MacIntel,60,61025ae37ef11b136ea224fe,,,,,,,,,3857,43,79,1,0,0,response1disk,,7,12,14,1,0,0,rectangle,12,14,1,0,0,12,14,1,0,0,0,16,16,20,1,,,,,,,,
,,,,,,,,,,,,,FF,,,,,,,,0.465,,,,,,,,,,,,,,,,,,,,,,60fdff6234e9b78c0d472d5b,610366ea73c4d05e1f484f6e,2021-07-29_22h42.46.263,Simcolourproject_2stim_asymm_v5,2020.2.10,MacIntel,60,61025ae37ef11b136ea224fe,,,,,,,,,3022,34,68,1,0,0,response1disk,,7,3,-7,1,0,0,rectangle,3,-7,1,0,0,3,-7,1,0,0,0,17,17,48,1,,,,,,,,
,,,,,,,,,,,,,FF,,,,,,,,0.565,,,,,,,,,,,,,,,,,,,,,,60fdff6234e9b78c0d472d5b,610366ea73c4d05e1f484f6e,2021-07-29_22h42.46.263,Simcolourproject_2stim_asymm_v5,2020.2.10,MacIntel,60,61025ae37ef11b136ea224fe,,,,,,,,,1938,42,76,1,0,0,response1disk,,7,7,-12,1,0,0,rectangle,7,-12,1,0,0,7,-12,1,0,0,0,18,18,53,1,,,,,,,,
,,,,,,,,,,,,,FF,,,,,,,,1.368,,,,,,,,,,,,,,,,,,,,,,60fdff6234e9b78c0d472d5b,610366ea73c4d05e1f484f6e,2021-07-29_22h42.46.263,Simcolourproject_2stim_asymm_v5,2020.2.10,MacIntel,60,61025ae37ef11b136ea224fe,,,,,,,,,1446,74,26,1,0,0,response1disk,,6,18,-14,1,0,0,rectangle,18,-14,1,0,0,18,-14,1,0,0,0,19,19,16,1,,,,,,,,
,,,,,,,,,,,,,FF,,,,,,,,2.55,,,,,,,,,,,,,,,,,,,,,,60fdff6234e9b78c0d472d5b,610366ea73c4d05e1f484f6e,2021-07-29_22h42.46.263,Simcolourproject_2stim_asymm_v5,2020.2.10,MacIntel,60,61025ae37ef11b136ea224fe,,,,,,,,,4083,79,-37,1,0,0,response3disk,,5,-8,13,1,0,0,rectangle,-8,13,1,0,0,-8,13,1,0,0,0,20,20,30,1,,,,,,,,
,,,,,,,,,,,,,FF,,,,,,,,0.7,,,,,,,,,,,,,,,,,,,,,,60fdff6234e9b78c0d472d5b,610366ea73c4d05e1f484f6e,2021-07-29_22h42.46.263,Simcolourproject_2stim_asymm_v5,2020.2.10,MacIntel,60,61025ae37ef11b136ea224fe,,,,,,,,,584,22,74,1,0,0,response1disk,,7,13,3,1,0,0,rectangle,13,3,1,0,0,13,3,1,0,0,0,21,21,153,1,,,,,,,,
,,,,,,,,,,,,,FF,,,,,,,,2.249,,,,,,,,,,,,,,,,,,,,,,60fdff6234e9b78c0d472d5b,610366ea73c4d05e1f484f6e,2021-07-29_22h42.46.263,Simcolourproject_2stim_asymm_v5,2020.2.10,MacIntel,60,61025ae37ef11b136ea224fe,,,,,,,,,3668,-87,62,1,0,0,response7disk,,1,25,7,1,0,0,rectangle,25,7,1,0,0,25,7,1,0,0,0,22,22,143,1,,,,,,,,
,,,,,,,,,,,,,FF,,,,,,,,0.716,,,,,,,,,,,,,,,,,,,,,,60fdff6234e9b78c0d472d5b,610366ea73c4d05e1f484f6e,2021-07-29_22h42.46.263,Simcolourproject_2stim_asymm_v5,2020.2.10,MacIntel,60,61025ae37ef11b136ea224fe,,,,,,,,,3349,61,100,1,0,0,response1disk,,7,10,-4,1,0,0,rectangle,10,-4,1,0,0,10,-4,1,0,0,0,23,23,144,1,,,,,,,,
,,,,,,,,,,,,,FF,,,,,,,,3.449,,,,,,,,,,,,,,,,,,,,,,60fdff6234e9b78c0d472d5b,610366ea73c4d05e1f484f6e,2021-07-29_22h42.46.263,Simcolourproject_2stim_asymm_v5,2020.2.10,MacIntel,60,61025ae37ef11b136ea224fe,,,,,,,,,2368,102,37,1,0,0,response1disk,,6,-32,-2,1,0,0,rectangle,-32,-2,1,0,0,-32,-2,1,0,0,0,24,24,81,1,,,,,,,,
,,,,,,,,,,,,,FF,,,,,,,,0.699,,,,,,,,,,,,,,,,,,,,,,60fdff6234e9b78c0d472d5b,610366ea73c4d05e1f484f6e,2021-07-29_22h42.46.263,Simcolourproject_2stim_asymm_v5,2020.2.10,MacIntel,60,61025ae37ef11b136ea224fe,,,,,,,,,1349,45,96,1,0,0,response1disk,,7,-6,8,1,0,0,rectangle,-6,8,1,0,0,-6,8,1,0,0,0,25,25,130,1,,,,,,,,
,,,,,,,,,,,,,FF,,,,,,,,0.783,,,,,,,,,,,,,,,,,,,,,,60fdff6234e9b78c0d472d5b,610366ea73c4d05e1f484f6e,2021-07-29_22h42.46.263,Simcolourproject_2stim_asymm_v5,2020.2.10,MacIntel,60,61025ae37ef11b136ea224fe,,,,,,,,,658,56,80,1,0,0,response1disk,,7,12,17,1,0,0,rectangle,12,17,1,0,0,12,17,1,0,0,0,26,26,88,1,,,,,,,,
,,,,,,,,,,,,,FF,,,,,,,,1.266,,,,,,,,,,,,,,,,,,,,,,60fdff6234e9b78c0d472d5b,610366ea73c4d05e1f484f6e,2021-07-29_22h42.46.263,Simcolourproject_2stim_asymm_v5,2020.2.10,MacIntel,60,61025ae37ef11b136ea224fe,,,,,,,,,3782,88,49,1,0,0,response1disk,,6,-8,5,1,0,0,rectangle,-8,5,1,0,0,-8,5,1,0,0,0,27,27,131,1,,,,,,,,
,,,,,,,,,,,,,FF,,,,,,,,0.433,,,,,,,,,,,,,,,,,,,,,,60fdff6234e9b78c0d472d5b,610366ea73c4d05e1f484f6e,2021-07-29_22h42.46.263,Simcolourproject_2stim_asymm_v5,2020.2.10,MacIntel,60,61025ae37ef11b136ea224fe,,,,,,,,,1174,29,60,1,0,0,response1disk,,7,1,-15,1,0,0,rectangle,1,-15,1,0,0,1,-15,1,0,0,0,28,28,26,1,,,,,,,,
,,,,,,,,,,,,,FF,,,,,,,,0.516,,,,,,,,,,,,,,,,,,,,,,60fdff6234e9b78c0d472d5b,610366ea73c4d05e1f484f6e,2021-07-29_22h42.46.263,Simcolourproject_2stim_asymm_v5,2020.2.10,MacIntel,60,61025ae37ef11b136ea224fe,,,,,,,,,1096,42,52,1,0,0,response1disk,,7,1,3,1,0,0,rectangle,1,3,1,0,0,1,3,1,0,0,0,29,29,61,1,,,,,,,,
,,,,,,,,,,,,,FF,,,,,,,,1.133,,,,,,,,,,,,,,,,,,,,,,60fdff6234e9b78c0d472d5b,610366ea73c4d05e1f484f6e,2021-07-29_22h42.46.263,Simcolourproject_2stim_asymm_v5,2020.2.10,MacIntel,60,61025ae37ef11b136ea224fe,,,,,,,,,1225,23,53,1,0,0,response1disk,,7,8,-2,1,0,0,rectangle,8,-2,1,0,0,8,-2,1,0,0,0,30,30,110,1,,,,,,,,
,,,,,,,,,,,,,FF,,,,,,,,0.516,,,,,,,,,,,,,,,,,,,,,,60fdff6234e9b78c0d472d5b,610366ea73c4d05e1f484f6e,2021-07-29_22h42.46.263,Simcolourproject_2stim_asymm_v5,2020.2.10,MacIntel,60,61025ae37ef11b136ea224fe,,,,,,,,,1733,52,63,1,0,0,response1disk,,7,19,9,1,0,0,rectangle,19,9,1,0,0,19,9,1,0,0,0,31,31,129,1,,,,,,,,
,,,,,,,,,,,,,FF,,,,,,,,1.034,,,,,,,,,,,,,,,,,,,,,,60fdff6234e9b78c0d472d5b,610366ea73c4d05e1f484f6e,2021-07-29_22h42.46.263,Simcolourproject_2stim_asymm_v5,2020.2.10,MacIntel,60,61025ae37ef11b136ea224fe,,,,,,,,,3481,66,33,1,0,0,response1disk,,6,-10,-3,1,0,0,rectangle,-10,-3,1,0,0,-10,-3,1,0,0,0,32,32,117,1,,,,,,,,
,,,,,,,,,,,,,FF,,,,,,,,0.682,,,,,,,,,,,,,,,,,,,,,,60fdff6234e9b78c0d472d5b,610366ea73c4d05e1f484f6e,2021-07-29_22h42.46.263,Simcolourproject_2stim_asymm_v5,2020.2.10,MacIntel,60,61025ae37ef11b136ea224fe,,,,,,,,,518,23,73,1,0,0,response1disk,,7,-5,8,1,0,0,rectangle,-5,8,1,0,0,-5,8,1,0,0,0,33,33,85,1,,,,,,,,
,,,,,,,,,,,,,FF,,,,,,,,1.483,,,,,,,,,,,,,,,,,,,,,,60fdff6234e9b78c0d472d5b,610366ea73c4d05e1f484f6e,2021-07-29_22h42.46.263,Simcolourproject_2stim_asymm_v5,2020.2.10,MacIntel,60,61025ae37ef11b136ea224fe,,,,,,,,,1292,82,-16,1,0,0,response3disk,,5,22,-2,1,0,0,rectangle,22,-2,1,0,0,22,-2,1,0,0,0,34,34,150,1,,,,,,,,
,,,,,,,,,,,,,FF,,,,,,,,0.601,,,,,,,,,,,,,,,,,,,,,,60fdff6234e9b78c0d472d5b,610366ea73c4d05e1f484f6e,2021-07-29_22h42.46.263,Simcolourproject_2stim_asymm_v5,2020.2.10,MacIntel,60,61025ae37ef11b136ea224fe,,,,,,,,,2144,54,106,1,0,0,response1disk,,7,5,4,1,0,0,rectangle,5,4,1,0,0,5,4,1,0,0,0,35,35,9,1,,,,,,,,
,,,,,,,,,,,,,FF,,,,,,,,0.716,,,,,,,,,,,,,,,,,,,,,,60fdff6234e9b78c0d472d5b,610366ea73c4d05e1f484f6e,2021-07-29_22h42.46.263,Simcolourproject_2stim_asymm_v5,2020.2.10,MacIntel,60,61025ae37ef11b136ea224fe,,,,,,,,,2274,33,80,1,0,0,response1disk,,7,6,-1,1,0,0,rectangle,6,-1,1,0,0,6,-1,1,0,0,0,36,36,134,1,,,,,,,,
,,,,,,,,,,,,,FF,,,,,,,,1.8,,,,,,,,,,,,,,,,,,,,,,60fdff6234e9b78c0d472d5b,610366ea73c4d05e1f484f6e,2021-07-29_22h42.46.263,Simcolourproject_2stim_asymm_v5,2020.2.10,MacIntel,60,61025ae37ef11b136ea224fe,,,,,,,,,4252,-41,-83,1,0,0,response5disk,,3,13,9,1,0,0,rectangle,13,9,1,0,0,13,9,1,0,0,0,37,37,148,1,,,,,,,,
,,,,,,,,,,,,,FF,,,,,,,,0.533,,,,,,,,,,,,,,,,,,,,,,60fdff6234e9b78c0d472d5b,610366ea73c4d05e1f484f6e,2021-07-29_22h42.46.263,Simcolourproject_2stim_asymm_v5,2020.2.10,MacIntel,60,61025ae37ef11b136ea224fe,,,,,,,,,3302,44,85,1,0,0,response1disk,,7,3,0,1,0,0,rectangle,3,0,1,0,0,3,0,1,0,0,0,38,38,105,1,,,,,,,,
,,,,,,,,,,,,,FF,,,,,,,,4.366,,,,,,,,,,,,,,,,,,,,,,60fdff6234e9b78c0d472d5b,610366ea73c4d05e1f484f6e,2021-07-29_22h42.46.263,Simcolourproject_2stim_asymm_v5,2020.2.10,MacIntel,60,61025ae37ef11b136ea224fe,,,,,,,,,4079,48,74,1,0,0,response1disk,,7,11,9,1,0,0,rectangle,11,9,1,0,0,11,9,1,0,0,0,39,39,138,1,,,,,,,,
,,,,,,,,,,,,,FF,,,,,,,,0.516,,,,,,,,,,,,,,,,,,,,,,60fdff6234e9b78c0d472d5b,610366ea73c4d05e1f484f6e,2021-07-29_22h42.46.263,Simcolourproject_2stim_asymm_v5,2020.2.10,MacIntel,60,61025ae37ef11b136ea224fe,,,,,,,,,1358,44,92,1,0,0,response1disk,,7,-1,1,1,0,0,rectangle,-1,1,1,0,0,-1,1,1,0,0,0,40,40,10,1,,,,,,,,
,,,,,,,,,,,,,FF,,,,,,,,0.999,,,,,,,,,,,,,,,,,,,,,,60fdff6234e9b78c0d472d5b,610366ea73c4d05e1f484f6e,2021-07-29_22h42.46.263,Simcolourproject_2stim_asymm_v5,2020.2.10,MacIntel,60,61025ae37ef11b136ea224fe,,,,,,,,,3422,86,39,1,0,0,response1disk,,6,15,4,1,0,0,rectangle,15,4,1,0,0,15,4,1,0,0,0,41,41,89,1,,,,,,,,
,,,,,,,,,,,,,FF,,,,,,,,0.498,,,,,,,,,,,,,,,,,,,,,,60fdff6234e9b78c0d472d5b,610366ea73c4d05e1f484f6e,2021-07-29_22h42.46.263,Simcolourproject_2stim_asymm_v5,2020.2.10,MacIntel,60,61025ae37ef11b136ea224fe,,,,,,,,,1788,54,96,1,0,0,response1disk,,7,3,16,1,0,0,rectangle,3,16,1,0,0,3,16,1,0,0,0,42,42,38,1,,,,,,,,
,,,,,,,,,,,,,FF,,,,,,,,0.866,,,,,,,,,,,,,,,,,,,,,,60fdff6234e9b78c0d472d5b,610366ea73c4d05e1f484f6e,2021-07-29_22h42.46.263,Simcolourproject_2stim_asymm_v5,2020.2.10,MacIntel,60,61025ae37ef11b136ea224fe,,,,,,,,,647,32,89,1,0,0,response1disk,,7,7,4,1,0,0,rectangle,7,4,1,0,0,7,4,1,0,0,0,43,43,14,1,,,,,,,,
,,,,,,,,,,,,,FF,,,,,,,,0.7,,,,,,,,,,,,,,,,,,,,,,60fdff6234e9b78c0d472d5b,610366ea73c4d05e1f484f6e,2021-07-29_22h42.46.263,Simcolourproject_2stim_asymm_v5,2020.2.10,MacIntel,60,61025ae37ef11b136ea224fe,,,,,,,,,2864,59,89,1,0,0,response1disk,,7,4,-4,1,0,0,rectangle,4,-4,1,0,0,4,-4,1,0,0,0,44,44,5,1,,,,,,,,
,,,,,,,,,,,,,FF,,,,,,,,1.5,,,,,,,,,,,,,,,,,,,,,,60fdff6234e9b78c0d472d5b,610366ea73c4d05e1f484f6e,2021-07-29_22h42.46.263,Simcolourproject_2stim_asymm_v5,2020.2.10,MacIntel,60,61025ae37ef11b136ea224fe,,,,,,,,,3583,41,111,1,0,0,response1disk,,7,-10,-7,1,0,0,rectangle,-10,-7,1,0,0,-10,-7,1,0,0,0,45,45,32,1,,,,,,,,
,,,,,,,,,,,,,FF,,,,,,,,1.084,,,,,,,,,,,,,,,,,,,,,,60fdff6234e9b78c0d472d5b,610366ea73c4d05e1f484f6e,2021-07-29_22h42.46.263,Simcolourproject_2stim_asymm_v5,2020.2.10,MacIntel,60,61025ae37ef11b136ea224fe,,,,,,,,,1838,51,72,1,0,0,response1disk,,7,-13,2,1,0,0,rectangle,-13,2,1,0,0,-13,2,1,0,0,0,46,46,151,1,,,,,,,,
,,,,,,,,,,,,,FF,,,,,,,,0.466,,,,,,,,,,,,,,,,,,,,,,60fdff6234e9b78c0d472d5b,610366ea73c4d05e1f484f6e,2021-07-29_22h42.46.263,Simcolourproject_2stim_asymm_v5,2020.2.10,MacIntel,60,61025ae37ef11b136ea224fe,,,,,,,,,3073,26,67,1,0,0,response1disk,,7,-5,-16,1,0,0,rectangle,-5,-16,1,0,0,-5,-16,1,0,0,0,47,47,128,1,,,,,,,,
,,,,,,,,,,,,,FF,,,,,,,,1.183,,,,,,,,,,,,,,,,,,,,,,60fdff6234e9b78c0d472d5b,610366ea73c4d05e1f484f6e,2021-07-29_22h42.46.263,Simcolourproject_2stim_asymm_v5,2020.2.10,MacIntel,60,61025ae37ef11b136ea224fe,,,,,,,,,3742,-54,48,1,0,0,response7disk,,1,15,0,1,0,0,rectangle,15,0,1,0,0,15,0,1,0,0,0,48,48,125,1,,,,,,,,
,,,,,,,,,,,,,FF,,,,,,,,1.216,,,,,,,,,,,,,,,,,,,,,,60fdff6234e9b78c0d472d5b,610366ea73c4d05e1f484f6e,2021-07-29_22h42.46.263,Simcolourproject_2stim_asymm_v5,2020.2.10,MacIntel,60,61025ae37ef11b136ea224fe,,,,,,,,,4031,-45,-93,1,0,0,response5disk,,3,3,1,1,0,0,rectangle,3,1,1,0,0,3,1,1,0,0,0,49,49,87,1,,,,,,,,
,,,,,,,,,,,,,FF,,,,,,,,0.65,,,,,,,,,,,,,,,,,,,,,,60fdff6234e9b78c0d472d5b,610366ea73c4d05e1f484f6e,2021-07-29_22h42.46.263,Simcolourproject_2stim_asymm_v5,2020.2.10,MacIntel,60,61025ae37ef11b136ea224fe,,,,,,,,,1286,52,95,1,0,0,response1disk,,7,0,4,1,0,0,rectangle,0,4,1,0,0,0,4,1,0,0,0,50,50,75,1,,,,,,,,
,,,,,,,,,,,,,FF,,,,,,,,0.633,,,,,,,,,,,,,,,,,,,,,,60fdff6234e9b78c0d472d5b,610366ea73c4d05e1f484f6e,2021-07-29_22h42.46.263,Simcolourproject_2stim_asymm_v5,2020.2.10,MacIntel,60,61025ae37ef11b136ea224fe,,,,,,,,,4194,19,75,1,0,0,response1disk,,7,14,5,1,0,0,rectangle,14,5,1,0,0,14,5,1,0,0,0,51,51,109,1,,,,,,,,
,,,,,,,,,,,,,FF,,,,,,,,0.583,,,,,,,,,,,,,,,,,,,,,,60fdff6234e9b78c0d472d5b,610366ea73c4d05e1f484f6e,2021-07-29_22h42.46.263,Simcolourproject_2stim_asymm_v5,2020.2.10,MacIntel,60,61025ae37ef11b136ea224fe,,,,,,,,,2395,45,102,1,0,0,response1disk,,7,21,9,1,0,0,rectangle,21,9,1,0,0,21,9,1,0,0,0,52,52,159,1,,,,,,,,
,,,,,,,,,,,,,FF,,,,,,,,1.333,,,,,,,,,,,,,,,,,,,,,,60fdff6234e9b78c0d472d5b,610366ea73c4d05e1f484f6e,2021-07-29_22h42.46.263,Simcolourproject_2stim_asymm_v5,2020.2.10,MacIntel,60,61025ae37ef11b136ea224fe,,,,,,,,,1304,69,33,1,0,0,response1disk,,6,-17,-10,1,0,0,rectangle,-17,-10,1,0,0,-17,-10,1,0,0,0,53,53,29,1,,,,,,,,
,,,,,,,,,,,,,FF,,,,,,,,1.399,,,,,,,,,,,,,,,,,,,,,,60fdff6234e9b78c0d472d5b,610366ea73c4d05e1f484f6e,2021-07-29_22h42.46.263,Simcolourproject_2stim_asymm_v5,2020.2.10,MacIntel,60,61025ae37ef11b136ea224fe,,,,,,,,,1818,-87,-34,1,0,0,response5disk,,2,25,-13,1,0,0,rectangle,25,-13,1,0,0,25,-13,1,0,0,0,54,54,111,1,,,,,,,,
,,,,,,,,,,,,,FF,,,,,,,,0.449,,,,,,,,,,,,,,,,,,,,,,60fdff6234e9b78c0d472d5b,610366ea73c4d05e1f484f6e,2021-07-29_22h42.46.263,Simcolourproject_2stim_asymm_v5,2020.2.10,MacIntel,60,61025ae37ef11b136ea224fe,,,,,,,,,4324,38,56,1,0,0,response1disk,,7,15,-7,1,0,0,rectangle,-79,-37,1,0,0,-6,2,1,0,0,0,55,55,139,1,,response5disk_3,TRUE,2,2,"[226,142,103,245,111,304,93,308,239,56,306,259,240,187,126,83,272,318,207,71]",2.833,rectangle
,,,,,,,,,,,,,FF,,,,,,,,1.067,,,,,,,,,,,,,,,,,,,,,,60fdff6234e9b78c0d472d5b,610366ea73c4d05e1f484f6e,2021-07-29_22h42.46.263,Simcolourproject_2stim_asymm_v5,2020.2.10,MacIntel,60,61025ae37ef11b136ea224fe,,,,,,,,,567,54,113,1,0,0,response1disk,,7,-15,4,1,0,0,rectangle,-15,4,1,0,0,-15,4,1,0,0,0,56,56,58,1,,,,,,,,
,,,,,,,,,,,,,FF,,,,,,,,1.683,,,,,,,,,,,,,,,,,,,,,,60fdff6234e9b78c0d472d5b,610366ea73c4d05e1f484f6e,2021-07-29_22h42.46.263,Simcolourproject_2stim_asymm_v5,2020.2.10,MacIntel,60,61025ae37ef11b136ea224fe,,,,,,,,,370,56,-85,1,0,0,response3disk,,4,15,-10,1,0,0,rectangle,15,-10,1,0,0,15,-10,1,0,0,0,57,57,141,1,,,,,,,,
,,,,,,,,,,,,,FF,,,,,,,,0.549,,,,,,,,,,,,,,,,,,,,,,60fdff6234e9b78c0d472d5b,610366ea73c4d05e1f484f6e,2021-07-29_22h42.46.263,Simcolourproject_2stim_asymm_v5,2020.2.10,MacIntel,60,61025ae37ef11b136ea224fe,,,,,,,,,40,35,72,1,0,0,response1disk,,7,-25,-9,1,0,0,rectangle,-25,-9,1,0,0,-25,-9,1,0,0,0,58,58,46,1,,,,,,,,
,,,,,,,,,,,,,FF,,,,,,,,1.668,,,,,,,,,,,,,,,,,,,,,,60fdff6234e9b78c0d472d5b,610366ea73c4d05e1f484f6e,2021-07-29_22h42.46.263,Simcolourproject_2stim_asymm_v5,2020.2.10,MacIntel,60,61025ae37ef11b136ea224fe,,,,,,,,,368,-100,-39,1,0,0,response5disk,,2,34,6,1,0,0,rectangle,34,6,1,0,0,34,6,1,0,0,0,59,59,34,1,,,,,,,,
,,,,,,,,,,,,,FF,,,,,,,,0.484,,,,,,,,,,,,,,,,,,,,,,60fdff6234e9b78c0d472d5b,610366ea73c4d05e1f484f6e,2021-07-29_22h42.46.263,Simcolourproject_2stim_asymm_v5,2020.2.10,MacIntel,60,61025ae37ef11b136ea224fe,,,,,,,,,3731,47,73,1,0,0,response1disk,,7,-2,15,1,0,0,rectangle,-2,15,1,0,0,-2,15,1,0,0,0,60,60,83,1,,,,,,,,
,,,,,,,,,,,,,FF,,,,,,,,0.65,,,,,,,,,,,,,,,,,,,,,,60fdff6234e9b78c0d472d5b,610366ea73c4d05e1f484f6e,2021-07-29_22h42.46.263,Simcolourproject_2stim_asymm_v5,2020.2.10,MacIntel,60,61025ae37ef11b136ea224fe,,,,,,,,,1711,26,72,1,0,0,response1disk,,7,0,-4,1,0,0,rectangle,0,-4,1,0,0,0,-4,1,0,0,0,61,61,127,1,,,,,,,,
,,,,,,,,,,,,,FF,,,,,,,,1.367,,,,,,,,,,,,,,,,,,,,,,60fdff6234e9b78c0d472d5b,610366ea73c4d05e1f484f6e,2021-07-29_22h42.46.263,Simcolourproject_2stim_asymm_v5,2020.2.10,MacIntel,60,61025ae37ef11b136ea224fe,,,,,,,,,3342,58,25,1,0,0,response1disk,,6,-20,-3,1,0,0,rectangle,-20,-3,1,0,0,-20,-3,1,0,0,0,62,62,31,1,,,,,,,,
,,,,,,,,,,,,,FF,,,,,,,,1.133,,,,,,,,,,,,,,,,,,,,,,60fdff6234e9b78c0d472d5b,610366ea73c4d05e1f484f6e,2021-07-29_22h42.46.263,Simcolourproject_2stim_asymm_v5,2020.2.10,MacIntel,60,61025ae37ef11b136ea224fe,,,,,,,,,257,87,28,1,0,0,response1disk,,6,-3,4,1,0,0,rectangle,-3,4,1,0,0,-3,4,1,0,0,0,63,63,108,1,,,,,,,,
,,,,,,,,,,,,,FF,,,,,,,,0.466,,,,,,,,,,,,,,,,,,,,,,60fdff6234e9b78c0d472d5b,610366ea73c4d05e1f484f6e,2021-07-29_22h42.46.263,Simcolourproject_2stim_asymm_v5,2020.2.10,MacIntel,60,61025ae37ef11b136ea224fe,,,,,,,,,1337,30,88,1,0,0,response1disk,,7,6,7,1,0,0,rectangle,6,7,1,0,0,6,7,1,0,0,0,64,64,63,1,,,,,,,,
,,,,,,,,,,,,,FF,,,,,,,,0.633,,,,,,,,,,,,,,,,,,,,,,60fdff6234e9b78c0d472d5b,610366ea73c4d05e1f484f6e,2021-07-29_22h42.46.263,Simcolourproject_2stim_asymm_v5,2020.2.10,MacIntel,60,61025ae37ef11b136ea224fe,,,,,,,,,3210,51,103,1,0,0,response1disk,,7,-2,4,1,0,0,rectangle,-2,4,1,0,0,-2,4,1,0,0,0,65,65,70,1,,,,,,,,
,,,,,,,,,,,,,FF,,,,,,,,1.066,,,,,,,,,,,,,,,,,,,,,,60fdff6234e9b78c0d472d5b,610366ea73c4d05e1f484f6e,2021-07-29_22h42.46.263,Simcolourproject_2stim_asymm_v5,2020.2.10,MacIntel,60,61025ae37ef11b136ea224fe,,,,,,,,,801,-69,-18,1,0,0,response5disk,,2,8,-4,1,0,0,rectangle,8,-4,1,0,0,8,-4,1,0,0,0,66,66,11,1,,,,,,,,
,,,,,,,,,,,,,FF,,,,,,,,0.55,,,,,,,,,,,,,,,,,,,,,,60fdff6234e9b78c0d472d5b,610366ea73c4d05e1f484f6e,2021-07-29_22h42.46.263,Simcolourproject_2stim_asymm_v5,2020.2.10,MacIntel,60,61025ae37ef11b136ea224fe,,,,,,,,,4320,27,70,1,0,0,response1disk,,7,12,11,1,0,0,rectangle,12,11,1,0,0,12,11,1,0,0,0,67,67,33,1,,,,,,,,
,,,,,,,,,,,,,FF,,,,,,,,1.334,,,,,,,,,,,,,,,,,,,,,,60fdff6234e9b78c0d472d5b,610366ea73c4d05e1f484f6e,2021-07-29_22h42.46.263,Simcolourproject_2stim_asymm_v5,2020.2.10,MacIntel,60,61025ae37ef11b136ea224fe,,,,,,,,,1298,-81,-27,1,0,0,response5disk,,2,17,-8,1,0,0,rectangle,17,-8,1,0,0,17,-8,1,0,0,0,68,68,39,1,,,,,,,,
,,,,,,,,,,,,,FF,,,,,,,,1.083,,,,,,,,,,,,,,,,,,,,,,60fdff6234e9b78c0d472d5b,610366ea73c4d05e1f484f6e,2021-07-29_22h42.46.263,Simcolourproject_2stim_asymm_v5,2020.2.10,MacIntel,60,61025ae37ef11b136ea224fe,,,,,,,,,720,-79,-45,1,0,0,response5disk,,2,0,-5,1,0,0,rectangle,0,-5,1,0,0,0,-5,1,0,0,0,69,69,133,1,,,,,,,,
,,,,,,,,,,,,,FF,,,,,,,,1.467,,,,,,,,,,,,,,,,,,,,,,60fdff6234e9b78c0d472d5b,610366ea73c4d05e1f484f6e,2021-07-29_22h42.46.263,Simcolourproject_2stim_asymm_v5,2020.2.10,MacIntel,60,61025ae37ef11b136ea224fe,,,,,,,,,2793,43,109,1,0,0,response1disk,,7,4,13,1,0,0,rectangle,90,-28,1,0,0,28,2,1,0,0,0,70,70,43,1,,response3disk_3,TRUE,5,5,"[226,142,103,245,111,304,93,308,239,56,306,259,240,187,126,83,272,318,207,71]",2.066,rectangle
,,,,,,,,,,,,,FF,,,,,,,,0.715,,,,,,,,,,,,,,,,,,,,,,60fdff6234e9b78c0d472d5b,610366ea73c4d05e1f484f6e,2021-07-29_22h42.46.263,Simcolourproject_2stim_asymm_v5,2020.2.10,MacIntel,60,61025ae37ef11b136ea224fe,,,,,,,,,2567,42,95,1,0,0,response1disk,,7,20,8,1,0,0,rectangle,20,8,1,0,0,20,8,1,0,0,0,71,71,106,1,,,,,,,,
,,,,,,,,,,,,,FF,,,,,,,,0.95,,,,,,,,,,,,,,,,,,,,,,60fdff6234e9b78c0d472d5b,610366ea73c4d05e1f484f6e,2021-07-29_22h42.46.263,Simcolourproject_2stim_asymm_v5,2020.2.10,MacIntel,60,61025ae37ef11b136ea224fe,,,,,,,,,2406,43,94,1,0,0,response1disk,,7,15,13,1,0,0,rectangle,15,13,1,0,0,15,13,1,0,0,0,72,72,57,1,,,,,,,,
,,,,,,,,,,,,,FF,,,,,,,,0.683,,,,,,,,,,,,,,,,,,,,,,60fdff6234e9b78c0d472d5b,610366ea73c4d05e1f484f6e,2021-07-29_22h42.46.263,Simcolourproject_2stim_asymm_v5,2020.2.10,MacIntel,60,61025ae37ef11b136ea224fe,,,,,,,,,3927,46,100,1,0,0,response1disk,,7,0,-5,1,0,0,rectangle,0,-5,1,0,0,0,-5,1,0,0,0,73,73,92,1,,,,,,,,
,,,,,,,,,,,,,FF,,,,,,,,0.733,,,,,,,,,,,,,,,,,,,,,,60fdff6234e9b78c0d472d5b,610366ea73c4d05e1f484f6e,2021-07-29_22h42.46.263,Simcolourproject_2stim_asymm_v5,2020.2.10,MacIntel,60,61025ae37ef11b136ea224fe,,,,,,,,,1284,36,87,1,0,0,response1disk,,7,18,9,1,0,0,rectangle,18,9,1,0,0,18,9,1,0,0,0,74,74,126,1,,,,,,,,
,,,,,,,,,,,,,FF,,,,,,,,0.583,,,,,,,,,,,,,,,,,,,,,,60fdff6234e9b78c0d472d5b,610366ea73c4d05e1f484f6e,2021-07-29_22h42.46.263,Simcolourproject_2stim_asymm_v5,2020.2.10,MacIntel,60,61025ae37ef11b136ea224fe,,,,,,,,,1716,47,94,1,0,0,response1disk,,7,5,3,1,0,0,rectangle,5,3,1,0,0,5,3,1,0,0,0,75,75,103,1,,,,,,,,
,,,,,,,,,,,,,FF,,,,,,,,0.601,,,,,,,,,,,,,,,,,,,,,,60fdff6234e9b78c0d472d5b,610366ea73c4d05e1f484f6e,2021-07-29_22h42.46.263,Simcolourproject_2stim_asymm_v5,2020.2.10,MacIntel,60,61025ae37ef11b136ea224fe,,,,,,,,,2518,32,77,1,0,0,response1disk,,7,2,4,1,0,0,rectangle,2,4,1,0,0,2,4,1,0,0,0,76,76,12,1,,,,,,,,
,,,,,,,,,,,,,FF,,,,,,,,0.766,,,,,,,,,,,,,,,,,,,,,,60fdff6234e9b78c0d472d5b,610366ea73c4d05e1f484f6e,2021-07-29_22h42.46.263,Simcolourproject_2stim_asymm_v5,2020.2.10,MacIntel,60,61025ae37ef11b136ea224fe,,,,,,,,,1377,-76,-25,1,0,0,response5disk,,2,13,-5,1,0,0,rectangle,13,-5,1,0,0,13,-5,1,0,0,0,77,77,142,1,,,,,,,,
,,,,,,,,,,,,,FF,,,,,,,,2.366,,,,,,,,,,,,,,,,,,,,,,60fdff6234e9b78c0d472d5b,610366ea73c4d05e1f484f6e,2021-07-29_22h42.46.263,Simcolourproject_2stim_asymm_v5,2020.2.10,MacIntel,60,61025ae37ef11b136ea224fe,,,,,,,,,3091,37,-55,1,0,0,response3disk,,4,3,10,1,0,0,rectangle,3,10,1,0,0,3,10,1,0,0,0,78,78,60,1,,,,,,,,
,,,,,,,,,,,,,FF,,,,,,,,1.616,,,,,,,,,,,,,,,,,,,,,,60fdff6234e9b78c0d472d5b,610366ea73c4d05e1f484f6e,2021-07-29_22h42.46.263,Simcolourproject_2stim_asymm_v5,2020.2.10,MacIntel,60,61025ae37ef11b136ea224fe,,,,,,,,,430,70,-27,1,0,0,response3disk,,5,-6,-1,1,0,0,rectangle,-6,-1,1,0,0,-6,-1,1,0,0,0,79,79,121,1,,,,,,,,
,,,,,,,,,,,,,FF,,,,,,,,1.433,,,,,,,,,,,,,,,,,,,,,,60fdff6234e9b78c0d472d5b,610366ea73c4d05e1f484f6e,2021-07-29_22h42.46.263,Simcolourproject_2stim_asymm_v5,2020.2.10,MacIntel,60,61025ae37ef11b136ea224fe,,,,,,,,,2825,79,37,1,0,0,response1disk,,6,-24,2,1,0,0,rectangle,-24,2,1,0,0,-24,2,1,0,0,0,80,80,59,1,,,,,,,,
,,,,,,,,,,,,,FF,,,,,,,,1.033,,,,,,,,,,,,,,,,,,,,,,60fdff6234e9b78c0d472d5b,610366ea73c4d05e1f484f6e,2021-07-29_22h42.46.263,Simcolourproject_2stim_asymm_v5,2020.2.10,MacIntel,60,61025ae37ef11b136ea224fe,,,,,,,,,4071,-90,31,1,0,0,response7disk,,1,15,0,1,0,0,rectangle,15,0,1,0,0,15,0,1,0,0,0,81,81,49,1,,,,,,,,
,,,,,,,,,,,,,FF,,,,,,,,0.849,,,,,,,,,,,,,,,,,,,,,,60fdff6234e9b78c0d472d5b,610366ea73c4d05e1f484f6e,2021-07-29_22h42.46.263,Simcolourproject_2stim_asymm_v5,2020.2.10,MacIntel,60,61025ae37ef11b136ea224fe,,,,,,,,,164,-80,-30,1,0,0,response5disk,,2,11,-5,1,0,0,rectangle,-82,-38,1,0,0,-4,11,1,0,0,0,82,82,40,1,,response5disk_3,TRUE,2,2,"[226,142,103,245,111,304,93,308,239,56,306,259,240,187,126,83,272,318,207,71]",1.866,rectangle
,,,,,,,,,,,,,FF,,,,,,,,0.734,,,,,,,,,,,,,,,,,,,,,,60fdff6234e9b78c0d472d5b,610366ea73c4d05e1f484f6e,2021-07-29_22h42.46.263,Simcolourproject_2stim_asymm_v5,2020.2.10,MacIntel,60,61025ae37ef11b136ea224fe,,,,,,,,,2043,49,90,1,0,0,response1disk,,7,11,6,1,0,0,rectangle,11,6,1,0,0,11,6,1,0,0,0,83,83,4,1,,,,,,,,
,,,,,,,,,,,,,FF,,,,,,,,0.617,,,,,,,,,,,,,,,,,,,,,,60fdff6234e9b78c0d472d5b,610366ea73c4d05e1f484f6e,2021-07-29_22h42.46.263,Simcolourproject_2stim_asymm_v5,2020.2.10,MacIntel,60,61025ae37ef11b136ea224fe,,,,,,,,,3416,40,69,1,0,0,response1disk,,7,9,-5,1,0,0,rectangle,9,-5,1,0,0,9,-5,1,0,0,0,84,84,76,1,,,,,,,,
,,,,,,,,,,,,,FF,,,,,,,,1.583,,,,,,,,,,,,,,,,,,,,,,60fdff6234e9b78c0d472d5b,610366ea73c4d05e1f484f6e,2021-07-29_22h42.46.263,Simcolourproject_2stim_asymm_v5,2020.2.10,MacIntel,60,61025ae37ef11b136ea224fe,,,,,,,,,2613,86,54,1,0,0,response1disk,,6,-21,3,1,0,0,rectangle,-21,3,1,0,0,-21,3,1,0,0,0,85,85,158,1,,,,,,,,
,,,,,,,,,,,,,FF,,,,,,,,0.517,,,,,,,,,,,,,,,,,,,,,,60fdff6234e9b78c0d472d5b,610366ea73c4d05e1f484f6e,2021-07-29_22h42.46.263,Simcolourproject_2stim_asymm_v5,2020.2.10,MacIntel,60,61025ae37ef11b136ea224fe,,,,,,,,,834,23,64,1,0,0,response1disk,,7,22,15,1,0,0,rectangle,22,15,1,0,0,22,15,1,0,0,0,86,86,80,1,,,,,,,,
,,,,,,,,,,,,,FF,,,,,,,,0.4,,,,,,,,,,,,,,,,,,,,,,60fdff6234e9b78c0d472d5b,610366ea73c4d05e1f484f6e,2021-07-29_22h42.46.263,Simcolourproject_2stim_asymm_v5,2020.2.10,MacIntel,60,61025ae37ef11b136ea224fe,,,,,,,,,2504,38,62,1,0,0,response1disk,,7,18,8,1,0,0,rectangle,18,8,1,0,0,18,8,1,0,0,0,87,87,0,1,,,,,,,,
,,,,,,,,,,,,,FF,,,,,,,,0.549,,,,,,,,,,,,,,,,,,,,,,60fdff6234e9b78c0d472d5b,610366ea73c4d05e1f484f6e,2021-07-29_22h42.46.263,Simcolourproject_2stim_asymm_v5,2020.2.10,MacIntel,60,61025ae37ef11b136ea224fe,,,,,,,,,4108,47,93,1,0,0,response1disk,,7,35,13,1,0,0,rectangle,35,13,1,0,0,35,13,1,0,0,0,88,88,147,1,,,,,,,,
,,,,,,,,,,,,,FF,,,,,,,,2.483,,,,,,,,,,,,,,,,,,,,,,60fdff6234e9b78c0d472d5b,610366ea73c4d05e1f484f6e,2021-07-29_22h42.46.263,Simcolourproject_2stim_asymm_v5,2020.2.10,MacIntel,60,61025ae37ef11b136ea224fe,,,,,,,,,4170,35,-89,1,0,0,response3disk,,4,7,6,1,0,0,rectangle,7,6,1,0,0,7,6,1,0,0,0,89,89,114,1,,,,,,,,
,,,,,,,,,,,,,FF,,,,,,,,9.084,,,,,,,,,,,,,,,,,,,,,,60fdff6234e9b78c0d472d5b,610366ea73c4d05e1f484f6e,2021-07-29_22h42.46.263,Simcolourproject_2stim_asymm_v5,2020.2.10,MacIntel,60,61025ae37ef11b136ea224fe,,,,,,,,,3170,60,123,1,0,0,response1disk,,7,8,8,1,0,0,rectangle,8,8,1,0,0,8,8,1,0,0,0,90,90,22,1,,,,,,,,
,,,,,,,,,,,,,FF,,,,,,,,0.467,,,,,,,,,,,,,,,,,,,,,,60fdff6234e9b78c0d472d5b,610366ea73c4d05e1f484f6e,2021-07-29_22h42.46.263,Simcolourproject_2stim_asymm_v5,2020.2.10,MacIntel,60,61025ae37ef11b136ea224fe,,,,,,,,,1485,49,80,1,0,0,response1disk,,7,14,11,1,0,0,rectangle,14,11,1,0,0,14,11,1,0,0,0,91,91,3,1,,,,,,,,
,,,,,,,,,,,,,FF,,,,,,,,0.7,,,,,,,,,,,,,,,,,,,,,,60fdff6234e9b78c0d472d5b,610366ea73c4d05e1f484f6e,2021-07-29_22h42.46.263,Simcolourproject_2stim_asymm_v5,2020.2.10,MacIntel,60,61025ae37ef11b136ea224fe,,,,,,,,,2683,44,85,1,0,0,response1disk,,7,1,8,1,0,0,rectangle,-57,-103,1,0,0,19,9,1,0,0,0,92,92,54,1,,response5disk_3,TRUE,3,3,"[226,142,103,245,111,304,93,308,239,56,306,259,240,187,126,83,272,318,207,71]",2.783,rectangle
,,,,,,,,,,,,,FF,,,,,,,,0.883,,,,,,,,,,,,,,,,,,,,,,60fdff6234e9b78c0d472d5b,610366ea73c4d05e1f484f6e,2021-07-29_22h42.46.263,Simcolourproject_2stim_asymm_v5,2020.2.10,MacIntel,60,61025ae37ef11b136ea224fe,,,,,,,,,2666,88,37,1,0,0,response1disk,,6,17,13,1,0,0,rectangle,17,13,1,0,0,17,13,1,0,0,0,93,93,52,1,,,,,,,,
,,,,,,,,,,,,,FF,,,,,,,,2.117,,,,,,,,,,,,,,,,,,,,,,60fdff6234e9b78c0d472d5b,610366ea73c4d05e1f484f6e,2021-07-29_22h42.46.263,Simcolourproject_2stim_asymm_v5,2020.2.10,MacIntel,60,61025ae37ef11b136ea224fe,,,,,,,,,3154,-99,-36,1,0,0,response5disk,,2,22,10,1,0,0,rectangle,22,10,1,0,0,22,10,1,0,0,0,94,94,156,1,,,,,,,,
,,,,,,,,,,,,,FF,,,,,,,,2.151,,,,,,,,,,,,,,,,,,,,,,60fdff6234e9b78c0d472d5b,610366ea73c4d05e1f484f6e,2021-07-29_22h42.46.263,Simcolourproject_2stim_asymm_v5,2020.2.10,MacIntel,60,61025ae37ef11b136ea224fe,,,,,,,,,4150,71,-96,1,0,0,response3disk,,4,0,-1,1,0,0,rectangle,0,-1,1,0,0,0,-1,1,0,0,0,95,95,47,1,,,,,,,,
,,,,,,,,,,,,,FF,,,,,,,,1.633,,,,,,,,,,,,,,,,,,,,,,60fdff6234e9b78c0d472d5b,610366ea73c4d05e1f484f6e,2021-07-29_22h42.46.263,Simcolourproject_2stim_asymm_v5,2020.2.10,MacIntel,60,61025ae37ef11b136ea224fe,,,,,,,,,1970,69,-37,1,0,0,response3disk,,5,6,-8,1,0,0,rectangle,6,-8,1,0,0,6,-8,1,0,0,0,96,96,155,1,,,,,,,,
,,,,,,,,,,,,,FF,,,,,,,,0.884,,,,,,,,,,,,,,,,,,,,,,60fdff6234e9b78c0d472d5b,610366ea73c4d05e1f484f6e,2021-07-29_22h42.46.263,Simcolourproject_2stim_asymm_v5,2020.2.10,MacIntel,60,61025ae37ef11b136ea224fe,,,,,,,,,293,43,88,1,0,0,response1disk,,7,-6,-10,1,0,0,rectangle,-6,-10,1,0,0,-6,-10,1,0,0,0,97,97,119,1,,,,,,,,
,,,,,,,,,,,,,FF,,,,,,,,0.9,,,,,,,,,,,,,,,,,,,,,,60fdff6234e9b78c0d472d5b,610366ea73c4d05e1f484f6e,2021-07-29_22h42.46.263,Simcolourproject_2stim_asymm_v5,2020.2.10,MacIntel,60,61025ae37ef11b136ea224fe,,,,,,,,,3064,47,82,1,0,0,response1disk,,7,6,-5,1,0,0,rectangle,6,-5,1,0,0,6,-5,1,0,0,0,98,98,96,1,,,,,,,,
,,,,,,,,,,,,,FF,,,,,,,,1.6,,,,,,,,,,,,,,,,,,,,,,60fdff6234e9b78c0d472d5b,610366ea73c4d05e1f484f6e,2021-07-29_22h42.46.263,Simcolourproject_2stim_asymm_v5,2020.2.10,MacIntel,60,61025ae37ef11b136ea224fe,,,,,,,,,4000,46,84,1,0,0,response1disk,,7,-4,-4,1,0,0,rectangle,-4,-4,1,0,0,-4,-4,1,0,0,0,99,99,45,1,,,,,,,,
,,,,,,,,,,,,,FF,,,,,,,,0.716,,,,,,,,,,,,,,,,,,,,,,60fdff6234e9b78c0d472d5b,610366ea73c4d05e1f484f6e,2021-07-29_22h42.46.263,Simcolourproject_2stim_asymm_v5,2020.2.10,MacIntel,60,61025ae37ef11b136ea224fe,,,,,,,,,4043,49,76,1,0,0,response1disk,,7,6,12,1,0,0,rectangle,6,12,1,0,0,6,12,1,0,0,0,100,100,91,1,,,,,,,,
,,,,,,,,,,,,,FF,,,,,,,,1.1,,,,,,,,,,,,,,,,,,,,,,60fdff6234e9b78c0d472d5b,610366ea73c4d05e1f484f6e,2021-07-29_22h42.46.263,Simcolourproject_2stim_asymm_v5,2020.2.10,MacIntel,60,61025ae37ef11b136ea224fe,,,,,,,,,1617,72,46,1,0,0,response1disk,,6,7,-1,1,0,0,rectangle,7,-1,1,0,0,7,-1,1,0,0,0,101,101,41,1,,,,,,,,
,,,,,,,,,,,,,FF,,,,,,,,0.95,,,,,,,,,,,,,,,,,,,,,,60fdff6234e9b78c0d472d5b,610366ea73c4d05e1f484f6e,2021-07-29_22h42.46.263,Simcolourproject_2stim_asymm_v5,2020.2.10,MacIntel,60,61025ae37ef11b136ea224fe,,,,,,,,,3510,-73,36,1,0,0,response7disk,,1,12,-3,1,0,0,rectangle,103,62,1,0,0,4,7,1,0,0,0,102,102,73,1,,response1disk_3,TRUE,6,6,"[226,142,103,245,111,304,93,308,239,56,306,259,240,187,126,83,272,318,207,71]",1.982,rectangle
,,,,,,,,,,,,,FF,,,,,,,,0.733,,,,,,,,,,,,,,,,,,,,,,60fdff6234e9b78c0d472d5b,610366ea73c4d05e1f484f6e,2021-07-29_22h42.46.263,Simcolourproject_2stim_asymm_v5,2020.2.10,MacIntel,60,61025ae37ef11b136ea224fe,,,,,,,,,1843,44,104,1,0,0,response1disk,,7,6,9,1,0,0,rectangle,6,9,1,0,0,6,9,1,0,0,0,103,103,68,1,,,,,,,,
,,,,,,,,,,,,,FF,,,,,,,,0.617,,,,,,,,,,,,,,,,,,,,,,60fdff6234e9b78c0d472d5b,610366ea73c4d05e1f484f6e,2021-07-29_22h42.46.263,Simcolourproject_2stim_asymm_v5,2020.2.10,MacIntel,60,61025ae37ef11b136ea224fe,,,,,,,,,2638,36,80,1,0,0,response1disk,,7,1,-6,1,0,0,rectangle,1,-6,1,0,0,1,-6,1,0,0,0,104,104,65,1,,,,,,,,
,,,,,,,,,,,,,FF,,,,,,,,1.134,,,,,,,,,,,,,,,,,,,,,,60fdff6234e9b78c0d472d5b,610366ea73c4d05e1f484f6e,2021-07-29_22h42.46.263,Simcolourproject_2stim_asymm_v5,2020.2.10,MacIntel,60,61025ae37ef11b136ea224fe,,,,,,,,,1597,-95,-36,1,0,0,response5disk,,2,31,11,1,0,0,rectangle,31,11,1,0,0,31,11,1,0,0,0,105,105,28,1,,,,,,,,
,,,,,,,,,,,,,FF,,,,,,,,1.033,,,,,,,,,,,,,,,,,,,,,,60fdff6234e9b78c0d472d5b,610366ea73c4d05e1f484f6e,2021-07-29_22h42.46.263,Simcolourproject_2stim_asymm_v5,2020.2.10,MacIntel,60,61025ae37ef11b136ea224fe,,,,,,,,,4075,77,-23,1,0,0,response3disk,,5,22,16,1,0,0,rectangle,22,16,1,0,0,22,16,1,0,0,0,106,106,104,1,,,,,,,,
,,,,,,,,,,,,,FF,,,,,,,,1.15,,,,,,,,,,,,,,,,,,,,,,60fdff6234e9b78c0d472d5b,610366ea73c4d05e1f484f6e,2021-07-29_22h42.46.263,Simcolourproject_2stim_asymm_v5,2020.2.10,MacIntel,60,61025ae37ef11b136ea224fe,,,,,,,,,1665,39,60,1,0,0,response1disk,,7,3,12,1,0,0,rectangle,3,12,1,0,0,3,12,1,0,0,0,107,107,51,1,,,,,,,,
,,,,,,,,,,,,,FF,,,,,,,,0.684,,,,,,,,,,,,,,,,,,,,,,60fdff6234e9b78c0d472d5b,610366ea73c4d05e1f484f6e,2021-07-29_22h42.46.263,Simcolourproject_2stim_asymm_v5,2020.2.10,MacIntel,60,61025ae37ef11b136ea224fe,,,,,,,,,2088,26,55,1,0,0,response1disk,,7,8,6,1,0,0,rectangle,8,6,1,0,0,8,6,1,0,0,0,108,108,98,1,,,,,,,,
,,,,,,,,,,,,,FF,,,,,,,,1.466,,,,,,,,,,,,,,,,,,,,,,60fdff6234e9b78c0d472d5b,610366ea73c4d05e1f484f6e,2021-07-29_22h42.46.263,Simcolourproject_2stim_asymm_v5,2020.2.10,MacIntel,60,61025ae37ef11b136ea224fe,,,,,,,,,656,29,60,1,0,0,response1disk,,7,10,-4,1,0,0,rectangle,10,-4,1,0,0,10,-4,1,0,0,0,109,109,13,1,,,,,,,,
,,,,,,,,,,,,,FF,,,,,,,,0.633,,,,,,,,,,,,,,,,,,,,,,60fdff6234e9b78c0d472d5b,610366ea73c4d05e1f484f6e,2021-07-29_22h42.46.263,Simcolourproject_2stim_asymm_v5,2020.2.10,MacIntel,60,61025ae37ef11b136ea224fe,,,,,,,,,2502,46,78,1,0,0,response1disk,,7,7,-9,1,0,0,rectangle,-87,32,1,0,0,-7,-6,1,0,0,0,110,110,93,1,,response7disk_3,TRUE,1,1,"[226,142,103,245,111,304,93,308,239,56,306,259,240,187,126,83,272,318,207,71]",1.649,rectangle
,,,,,,,,,,,,,FF,,,,,,,,1.101,,,,,,,,,,,,,,,,,,,,,,60fdff6234e9b78c0d472d5b,610366ea73c4d05e1f484f6e,2021-07-29_22h42.46.263,Simcolourproject_2stim_asymm_v5,2020.2.10,MacIntel,60,61025ae37ef11b136ea224fe,,,,,,,,,643,38,77,1,0,0,response1disk,,7,11,3,1,0,0,rectangle,11,3,1,0,0,11,3,1,0,0,0,111,111,100,1,,,,,,,,
,,,,,,,,,,,,,FF,,,,,,,,0.717,,,,,,,,,,,,,,,,,,,,,,60fdff6234e9b78c0d472d5b,610366ea73c4d05e1f484f6e,2021-07-29_22h42.46.263,Simcolourproject_2stim_asymm_v5,2020.2.10,MacIntel,60,61025ae37ef11b136ea224fe,,,,,,,,,1952,50,87,1,0,0,response1disk,,7,0,-1,1,0,0,rectangle,0,-1,1,0,0,0,-1,1,0,0,0,112,112,122,1,,,,,,,,
,,,,,,,,,,,,,FF,,,,,,,,0.682,,,,,,,,,,,,,,,,,,,,,,60fdff6234e9b78c0d472d5b,610366ea73c4d05e1f484f6e,2021-07-29_22h42.46.263,Simcolourproject_2stim_asymm_v5,2020.2.10,MacIntel,60,61025ae37ef11b136ea224fe,,,,,,,,,2084,41,57,1,0,0,response1disk,,7,1,-13,1,0,0,rectangle,1,-13,1,0,0,1,-13,1,0,0,0,113,113,84,1,,,,,,,,
,,,,,,,,,,,,,FF,,,,,,,,0.55,,,,,,,,,,,,,,,,,,,,,,60fdff6234e9b78c0d472d5b,610366ea73c4d05e1f484f6e,2021-07-29_22h42.46.263,Simcolourproject_2stim_asymm_v5,2020.2.10,MacIntel,60,61025ae37ef11b136ea224fe,,,,,,,,,2586,41,60,1,0,0,response1disk,,7,10,2,1,0,0,rectangle,10,2,1,0,0,10,2,1,0,0,0,114,114,35,1,,,,,,,,
,,,,,,,,,,,,,FF,,,,,,,,0.867,,,,,,,,,,,,,,,,,,,,,,60fdff6234e9b78c0d472d5b,610366ea73c4d05e1f484f6e,2021-07-29_22h42.46.263,Simcolourproject_2stim_asymm_v5,2020.2.10,MacIntel,60,61025ae37ef11b136ea224fe,,,,,,,,,2742,33,56,1,0,0,response1disk,,7,2,-4,1,0,0,rectangle,2,-4,1,0,0,2,-4,1,0,0,0,115,115,132,1,,,,,,,,
,,,,,,,,,,,,,FF,,,,,,,,0.817,,,,,,,,,,,,,,,,,,,,,,60fdff6234e9b78c0d472d5b,610366ea73c4d05e1f484f6e,2021-07-29_22h42.46.263,Simcolourproject_2stim_asymm_v5,2020.2.10,MacIntel,60,61025ae37ef11b136ea224fe,,,,,,,,,2880,30,51,1,0,0,response1disk,,7,3,-4,1,0,0,rectangle,3,-4,1,0,0,3,-4,1,0,0,0,116,116,124,1,,,,,,,,
,,,,,,,,,,,,,FF,,,,,,,,0.817,,,,,,,,,,,,,,,,,,,,,,60fdff6234e9b78c0d472d5b,610366ea73c4d05e1f484f6e,2021-07-29_22h42.46.263,Simcolourproject_2stim_asymm_v5,2020.2.10,MacIntel,60,61025ae37ef11b136ea224fe,,,,,,,,,2373,27,56,1,0,0,response1disk,,7,10,7,1,0,0,rectangle,10,7,1,0,0,10,7,1,0,0,0,117,117,77,1,,,,,,,,
,,,,,,,,,,,,,FF,,,,,,,,0.8,,,,,,,,,,,,,,,,,,,,,,60fdff6234e9b78c0d472d5b,610366ea73c4d05e1f484f6e,2021-07-29_22h42.46.263,Simcolourproject_2stim_asymm_v5,2020.2.10,MacIntel,60,61025ae37ef11b136ea224fe,,,,,,,,,1992,37,70,1,0,0,response1disk,,7,8,10,1,0,0,rectangle,8,10,1,0,0,8,10,1,0,0,0,118,118,8,1,,,,,,,,
,,,,,,,,,,,,,FF,,,,,,,,1.05,,,,,,,,,,,,,,,,,,,,,,60fdff6234e9b78c0d472d5b,610366ea73c4d05e1f484f6e,2021-07-29_22h42.46.263,Simcolourproject_2stim_asymm_v5,2020.2.10,MacIntel,60,61025ae37ef11b136ea224fe,,,,,,,,,1131,-32,91,1,0,0,response7disk,,0,14,-1,1,0,0,rectangle,14,-1,1,0,0,14,-1,1,0,0,0,119,119,137,1,,,,,,,,
,,,,,,,,,,,,,FF,,,,,,,,0.533,,,,,,,,,,,,,,,,,,,,,,60fdff6234e9b78c0d472d5b,610366ea73c4d05e1f484f6e,2021-07-29_22h42.46.263,Simcolourproject_2stim_asymm_v5,2020.2.10,MacIntel,60,61025ae37ef11b136ea224fe,,,,,,,,,1793,43,79,1,0,0,response1disk,,7,8,-11,1,0,0,rectangle,8,-11,1,0,0,8,-11,1,0,0,0,120,120,55,1,,,,,,,,
,,,,,,,,,,,,,FF,,,,,,,,0.717,,,,,,,,,,,,,,,,,,,,,,60fdff6234e9b78c0d472d5b,610366ea73c4d05e1f484f6e,2021-07-29_22h42.46.263,Simcolourproject_2stim_asymm_v5,2020.2.10,MacIntel,60,61025ae37ef11b136ea224fe,,,,,,,,,2206,26,38,1,0,0,response1disk,,7,3,-9,1,0,0,rectangle,3,-9,1,0,0,3,-9,1,0,0,0,121,121,25,1,,,,,,,,
,,,,,,,,,,,,,FF,,,,,,,,1.916,,,,,,,,,,,,,,,,,,,,,,60fdff6234e9b78c0d472d5b,610366ea73c4d05e1f484f6e,2021-07-29_22h42.46.263,Simcolourproject_2stim_asymm_v5,2020.2.10,MacIntel,60,61025ae37ef11b136ea224fe,,,,,,,,,1523,48,-63,1,0,0,response3disk,,4,15,1,1,0,0,rectangle,15,1,1,0,0,15,1,1,0,0,0,122,122,152,1,,,,,,,,
,,,,,,,,,,,,,FF,,,,,,,,1.066,,,,,,,,,,,,,,,,,,,,,,60fdff6234e9b78c0d472d5b,610366ea73c4d05e1f484f6e,2021-07-29_22h42.46.263,Simcolourproject_2stim_asymm_v5,2020.2.10,MacIntel,60,61025ae37ef11b136ea224fe,,,,,,,,,2671,40,86,1,0,0,response1disk,,7,9,0,1,0,0,rectangle,9,0,1,0,0,9,0,1,0,0,0,123,123,123,1,,,,,,,,
,,,,,,,,,,,,,FF,,,,,,,,1.4,,,,,,,,,,,,,,,,,,,,,,60fdff6234e9b78c0d472d5b,610366ea73c4d05e1f484f6e,2021-07-29_22h42.46.263,Simcolourproject_2stim_asymm_v5,2020.2.10,MacIntel,60,61025ae37ef11b136ea224fe,,,,,,,,,1055,58,38,1,0,0,response1disk,,6,-27,6,1,0,0,rectangle,-27,6,1,0,0,-27,6,1,0,0,0,124,124,23,1,,,,,,,,
,,,,,,,,,,,,,FF,,,,,,,,1.199,,,,,,,,,,,,,,,,,,,,,,60fdff6234e9b78c0d472d5b,610366ea73c4d05e1f484f6e,2021-07-29_22h42.46.263,Simcolourproject_2stim_asymm_v5,2020.2.10,MacIntel,60,61025ae37ef11b136ea224fe,,,,,,,,,793,26,49,1,0,0,response1disk,,7,26,2,1,0,0,rectangle,49,-100,1,0,0,14,0,1,0,0,0,125,125,99,1,,response3disk_3,TRUE,4,4,"[226,142,103,245,111,304,93,308,239,56,306,259,240,187,126,83,272,318,207,71]",1.799,rectangle
,,,,,,,,,,,,,FF,,,,,,,,0.916,,,,,,,,,,,,,,,,,,,,,,60fdff6234e9b78c0d472d5b,610366ea73c4d05e1f484f6e,2021-07-29_22h42.46.263,Simcolourproject_2stim_asymm_v5,2020.2.10,MacIntel,60,61025ae37ef11b136ea224fe,,,,,,,,,871,87,43,1,0,0,response1disk,,6,0,12,1,0,0,rectangle,0,12,1,0,0,0,12,1,0,0,0,126,126,71,1,,,,,,,,
,,,,,,,,,,,,,FF,,,,,,,,0.717,,,,,,,,,,,,,,,,,,,,,,60fdff6234e9b78c0d472d5b,610366ea73c4d05e1f484f6e,2021-07-29_22h42.46.263,Simcolourproject_2stim_asymm_v5,2020.2.10,MacIntel,60,61025ae37ef11b136ea224fe,,,,,,,,,388,34,67,1,0,0,response1disk,,7,0,-6,1,0,0,rectangle,0,-6,1,0,0,0,-6,1,0,0,0,127,127,27,1,,,,,,,,
,,,,,,,,,,,,,FF,,,,,,,,1.082,,,,,,,,,,,,,,,,,,,,,,60fdff6234e9b78c0d472d5b,610366ea73c4d05e1f484f6e,2021-07-29_22h42.46.263,Simcolourproject_2stim_asymm_v5,2020.2.10,MacIntel,60,61025ae37ef11b136ea224fe,,,,,,,,,1311,42,58,1,0,0,response1disk,,7,1,-4,1,0,0,rectangle,1,-4,1,0,0,1,-4,1,0,0,0,128,128,97,1,,,,,,,,
,,,,,,,,,,,,,FF,,,,,,,,0.467,,,,,,,,,,,,,,,,,,,,,,60fdff6234e9b78c0d472d5b,610366ea73c4d05e1f484f6e,2021-07-29_22h42.46.263,Simcolourproject_2stim_asymm_v5,2020.2.10,MacIntel,60,61025ae37ef11b136ea224fe,,,,,,,,,1265,42,84,1,0,0,response1disk,,7,-1,-6,1,0,0,rectangle,-1,-6,1,0,0,-1,-6,1,0,0,0,129,129,95,1,,,,,,,,
,,,,,,,,,,,,,FF,,,,,,,,0.467,,,,,,,,,,,,,,,,,,,,,,60fdff6234e9b78c0d472d5b,610366ea73c4d05e1f484f6e,2021-07-29_22h42.46.263,Simcolourproject_2stim_asymm_v5,2020.2.10,MacIntel,60,61025ae37ef11b136ea224fe,,,,,,,,,1477,28,57,1,0,0,response1disk,,7,3,-5,1,0,0,rectangle,3,-5,1,0,0,3,-5,1,0,0,0,130,130,69,1,,,,,,,,
,,,,,,,,,,,,,FF,,,,,,,,0.716,,,,,,,,,,,,,,,,,,,,,,60fdff6234e9b78c0d472d5b,610366ea73c4d05e1f484f6e,2021-07-29_22h42.46.263,Simcolourproject_2stim_asymm_v5,2020.2.10,MacIntel,60,61025ae37ef11b136ea224fe,,,,,,,,,4191,36,56,1,0,0,response1disk,,7,7,2,1,0,0,rectangle,7,2,1,0,0,7,2,1,0,0,0,131,131,82,1,,,,,,,,
,,,,,,,,,,,,,FF,,,,,,,,0.617,,,,,,,,,,,,,,,,,,,,,,60fdff6234e9b78c0d472d5b,610366ea73c4d05e1f484f6e,2021-07-29_22h42.46.263,Simcolourproject_2stim_asymm_v5,2020.2.10,MacIntel,60,61025ae37ef11b136ea224fe,,,,,,,,,1480,34,65,1,0,0,response1disk,,7,9,1,1,0,0,rectangle,9,1,1,0,0,9,1,1,0,0,0,132,132,140,1,,,,,,,,
,,,,,,,,,,,,,FF,,,,,,,,0.767,,,,,,,,,,,,,,,,,,,,,,60fdff6234e9b78c0d472d5b,610366ea73c4d05e1f484f6e,2021-07-29_22h42.46.263,Simcolourproject_2stim_asymm_v5,2020.2.10,MacIntel,60,61025ae37ef11b136ea224fe,,,,,,,,,4209,34,53,1,0,0,response1disk,,7,18,-11,1,0,0,rectangle,18,-11,1,0,0,18,-11,1,0,0,0,133,133,7,1,,,,,,,,
,,,,,,,,,,,,,FF,,,,,,,,0.566,,,,,,,,,,,,,,,,,,,,,,60fdff6234e9b78c0d472d5b,610366ea73c4d05e1f484f6e,2021-07-29_22h42.46.263,Simcolourproject_2stim_asymm_v5,2020.2.10,MacIntel,60,61025ae37ef11b136ea224fe,,,,,,,,,3278,30,58,1,0,0,response1disk,,7,-1,-10,1,0,0,rectangle,-1,-10,1,0,0,-1,-10,1,0,0,0,134,134,102,1,,,,,,,,
,,,,,,,,,,,,,FF,,,,,,,,0.6,,,,,,,,,,,,,,,,,,,,,,60fdff6234e9b78c0d472d5b,610366ea73c4d05e1f484f6e,2021-07-29_22h42.46.263,Simcolourproject_2stim_asymm_v5,2020.2.10,MacIntel,60,61025ae37ef11b136ea224fe,,,,,,,,,1779,25,74,1,0,0,response1disk,,7,12,7,1,0,0,rectangle,12,7,1,0,0,12,7,1,0,0,0,135,135,154,1,,,,,,,,
,,,,,,,,,,,,,FF,,,,,,,,0.65,,,,,,,,,,,,,,,,,,,,,,60fdff6234e9b78c0d472d5b,610366ea73c4d05e1f484f6e,2021-07-29_22h42.46.263,Simcolourproject_2stim_asymm_v5,2020.2.10,MacIntel,60,61025ae37ef11b136ea224fe,,,,,,,,,749,39,71,1,0,0,response1disk,,7,7,-7,1,0,0,rectangle,7,-7,1,0,0,7,-7,1,0,0,0,136,136,44,1,,,,,,,,
,,,,,,,,,,,,,FF,,,,,,,,0.651,,,,,,,,,,,,,,,,,,,,,,60fdff6234e9b78c0d472d5b,610366ea73c4d05e1f484f6e,2021-07-29_22h42.46.263,Simcolourproject_2stim_asymm_v5,2020.2.10,MacIntel,60,61025ae37ef11b136ea224fe,,,,,,,,,1027,41,65,1,0,0,response1disk,,7,13,3,1,0,0,rectangle,13,3,1,0,0,13,3,1,0,0,0,137,137,116,1,,,,,,,,
,,,,,,,,,,,,,FF,,,,,,,,0.55,,,,,,,,,,,,,,,,,,,,,,60fdff6234e9b78c0d472d5b,610366ea73c4d05e1f484f6e,2021-07-29_22h42.46.263,Simcolourproject_2stim_asymm_v5,2020.2.10,MacIntel,60,61025ae37ef11b136ea224fe,,,,,,,,,2012,42,79,1,0,0,response1disk,,7,16,-8,1,0,0,rectangle,16,-8,1,0,0,16,-8,1,0,0,0,138,138,24,1,,,,,,,,
,,,,,,,,,,,,,FF,,,,,,,,1.083,,,,,,,,,,,,,,,,,,,,,,60fdff6234e9b78c0d472d5b,610366ea73c4d05e1f484f6e,2021-07-29_22h42.46.263,Simcolourproject_2stim_asymm_v5,2020.2.10,MacIntel,60,61025ae37ef11b136ea224fe,,,,,,,,,1830,70,33,1,0,0,response1disk,,6,11,0,1,0,0,rectangle,11,0,1,0,0,11,0,1,0,0,0,139,139,36,1,,,,,,,,
,,,,,,,,,,,,,FF,,,,,,,,0.533,,,,,,,,,,,,,,,,,,,,,,60fdff6234e9b78c0d472d5b,610366ea73c4d05e1f484f6e,2021-07-29_22h42.46.263,Simcolourproject_2stim_asymm_v5,2020.2.10,MacIntel,60,61025ae37ef11b136ea224fe,,,,,,,,,937,34,92,1,0,0,response1disk,,7,5,6,1,0,0,rectangle,5,6,1,0,0,5,6,1,0,0,0,140,140,50,1,,,,,,,,
,,,,,,,,,,,,,FF,,,,,,,,0.733,,,,,,,,,,,,,,,,,,,,,,60fdff6234e9b78c0d472d5b,610366ea73c4d05e1f484f6e,2021-07-29_22h42.46.263,Simcolourproject_2stim_asymm_v5,2020.2.10,MacIntel,60,61025ae37ef11b136ea224fe,,,,,,,,,476,39,86,1,0,0,response1disk,,7,3,2,1,0,0,rectangle,30,79,1,0,0,-1,0,1,0,0,0,141,141,37,1,,response1disk_3,TRUE,7,7,"[226,142,103,245,111,304,93,308,239,56,306,259,240,187,126,83,272,318,207,71]",1.983,rectangle
,,,,,,,,,,,,,FF,,,,,,,,1.383,,,,,,,,,,,,,,,,,,,,,,60fdff6234e9b78c0d472d5b,610366ea73c4d05e1f484f6e,2021-07-29_22h42.46.263,Simcolourproject_2stim_asymm_v5,2020.2.10,MacIntel,60,61025ae37ef11b136ea224fe,,,,,,,,,201,39,68,1,0,0,response1disk,,7,-2,3,1,0,0,rectangle,-2,3,1,0,0,-2,3,1,0,0,0,142,142,67,1,,,,,,,,
,,,,,,,,,,,,,FF,,,,,,,,0.532,,,,,,,,,,,,,,,,,,,,,,60fdff6234e9b78c0d472d5b,610366ea73c4d05e1f484f6e,2021-07-29_22h42.46.263,Simcolourproject_2stim_asymm_v5,2020.2.10,MacIntel,60,61025ae37ef11b136ea224fe,,,,,,,,,2497,30,76,1,0,0,response1disk,,7,4,0,1,0,0,rectangle,4,0,1,0,0,4,0,1,0,0,0,143,143,86,1,,,,,,,,
,,,,,,,,,,,,,FF,,,,,,,,0.784,,,,,,,,,,,,,,,,,,,,,,60fdff6234e9b78c0d472d5b,610366ea73c4d05e1f484f6e,2021-07-29_22h42.46.263,Simcolourproject_2stim_asymm_v5,2020.2.10,MacIntel,60,61025ae37ef11b136ea224fe,,,,,,,,,453,36,73,1,0,0,response1disk,,7,7,13,1,0,0,rectangle,7,13,1,0,0,7,13,1,0,0,0,144,144,2,1,,,,,,,,
,,,,,,,,,,,,,FF,,,,,,,,1,,,,,,,,,,,,,,,,,,,,,,60fdff6234e9b78c0d472d5b,610366ea73c4d05e1f484f6e,2021-07-29_22h42.46.263,Simcolourproject_2stim_asymm_v5,2020.2.10,MacIntel,60,61025ae37ef11b136ea224fe,,,,,,,,,1893,-76,-34,1,0,0,response5disk,,2,11,0,1,0,0,rectangle,11,0,1,0,0,11,0,1,0,0,0,145,145,56,1,,,,,,,,
,,,,,,,,,,,,,FF,,,,,,,,0.984,,,,,,,,,,,,,,,,,,,,,,60fdff6234e9b78c0d472d5b,610366ea73c4d05e1f484f6e,2021-07-29_22h42.46.263,Simcolourproject_2stim_asymm_v5,2020.2.10,MacIntel,60,61025ae37ef11b136ea224fe,,,,,,,,,3096,-67,39,1,0,0,response7disk,,1,1,2,1,0,0,rectangle,1,2,1,0,0,1,2,1,0,0,0,146,146,17,1,,,,,,,,
,,,,,,,,,,,,,FF,,,,,,,,0.55,,,,,,,,,,,,,,,,,,,,,,60fdff6234e9b78c0d472d5b,610366ea73c4d05e1f484f6e,2021-07-29_22h42.46.263,Simcolourproject_2stim_asymm_v5,2020.2.10,MacIntel,60,61025ae37ef11b136ea224fe,,,,,,,,,3526,32,68,1,0,0,response1disk,,7,2,2,1,0,0,rectangle,2,2,1,0,0,2,2,1,0,0,0,147,147,64,1,,,,,,,,
,,,,,,,,,,,,,FF,,,,,,,,1.015,,,,,,,,,,,,,,,,,,,,,,60fdff6234e9b78c0d472d5b,610366ea73c4d05e1f484f6e,2021-07-29_22h42.46.263,Simcolourproject_2stim_asymm_v5,2020.2.10,MacIntel,60,61025ae37ef11b136ea224fe,,,,,,,,,2298,-73,-36,1,0,0,response5disk,,2,19,10,1,0,0,rectangle,19,10,1,0,0,19,10,1,0,0,0,148,148,72,1,,,,,,,,
,,,,,,,,,,,,,FF,,,,,,,,0.649,,,,,,,,,,,,,,,,,,,,,,60fdff6234e9b78c0d472d5b,610366ea73c4d05e1f484f6e,2021-07-29_22h42.46.263,Simcolourproject_2stim_asymm_v5,2020.2.10,MacIntel,60,61025ae37ef11b136ea224fe,,,,,,,,,2073,28,83,1,0,0,response1disk,,7,9,-3,1,0,0,rectangle,9,-3,1,0,0,9,-3,1,0,0,0,149,149,115,1,,,,,,,,
,,,,,,,,,,,,,FF,,,,,,,,1.016,,,,,,,,,,,,,,,,,,,,,,60fdff6234e9b78c0d472d5b,610366ea73c4d05e1f484f6e,2021-07-29_22h42.46.263,Simcolourproject_2stim_asymm_v5,2020.2.10,MacIntel,60,61025ae37ef11b136ea224fe,,,,,,,,,4049,-27,-73,1,0,0,response5disk,,3,4,3,1,0,0,rectangle,4,3,1,0,0,4,3,1,0,0,0,150,150,18,1,,,,,,,,
,,,,,,,,,,,,,FF,,,,,,,,1.15,,,,,,,,,,,,,,,,,,,,,,60fdff6234e9b78c0d472d5b,610366ea73c4d05e1f484f6e,2021-07-29_22h42.46.263,Simcolourproject_2stim_asymm_v5,2020.2.10,MacIntel,60,61025ae37ef11b136ea224fe,,,,,,,,,1429,35,61,1,0,0,response1disk,,7,10,5,1,0,0,rectangle,10,5,1,0,0,10,5,1,0,0,0,151,151,101,1,,,,,,,,
,,,,,,,,,,,,,FF,,,,,,,,0.816,,,,,,,,,,,,,,,,,,,,,,60fdff6234e9b78c0d472d5b,610366ea73c4d05e1f484f6e,2021-07-29_22h42.46.263,Simcolourproject_2stim_asymm_v5,2020.2.10,MacIntel,60,61025ae37ef11b136ea224fe,,,,,,,,,1160,38,78,1,0,0,response1disk,,7,-1,-3,1,0,0,rectangle,-1,-3,1,0,0,-1,-3,1,0,0,0,152,152,42,1,,,,,,,,
,,,,,,,,,,,,,FF,,,,,,,,0.682,,,,,,,,,,,,,,,,,,,,,,60fdff6234e9b78c0d472d5b,610366ea73c4d05e1f484f6e,2021-07-29_22h42.46.263,Simcolourproject_2stim_asymm_v5,2020.2.10,MacIntel,60,61025ae37ef11b136ea224fe,,,,,,,,,475,42,91,1,0,0,response1disk,,7,-2,-2,1,0,0,rectangle,-2,-2,1,0,0,-2,-2,1,0,0,0,153,153,19,1,,,,,,,,
,,,,,,,,,,,,,FF,,,,,,,,1.199,,,,,,,,,,,,,,,,,,,,,,60fdff6234e9b78c0d472d5b,610366ea73c4d05e1f484f6e,2021-07-29_22h42.46.263,Simcolourproject_2stim_asymm_v5,2020.2.10,MacIntel,60,61025ae37ef11b136ea224fe,,,,,,,,,2545,37,64,1,0,0,response1disk,,7,30,14,1,0,0,rectangle,30,14,1,0,0,30,14,1,0,0,0,154,154,74,1,,,,,,,,
,,,,,,,,,,,,,FF,,,,,,,,0.849,,,,,,,,,,,,,,,,,,,,,,60fdff6234e9b78c0d472d5b,610366ea73c4d05e1f484f6e,2021-07-29_22h42.46.263,Simcolourproject_2stim_asymm_v5,2020.2.10,MacIntel,60,61025ae37ef11b136ea224fe,,,,,,,,,4099,60,36,1,0,0,response1disk,,6,22,17,1,0,0,rectangle,22,17,1,0,0,22,17,1,0,0,0,155,155,113,1,,,,,,,,
,,,,,,,,,,,,,FF,,,,,,,,0.951,,,,,,,,,,,,,,,,,,,,,,60fdff6234e9b78c0d472d5b,610366ea73c4d05e1f484f6e,2021-07-29_22h42.46.263,Simcolourproject_2stim_asymm_v5,2020.2.10,MacIntel,60,61025ae37ef11b136ea224fe,,,,,,,,,3237,59,38,1,0,0,response1disk,,6,20,16,1,0,0,rectangle,20,16,1,0,0,20,16,1,0,0,0,156,156,120,1,,,,,,,,
,,,,,,,,,,,,,FF,,,,,,,,0.634,,,,,,,,,,,,,,,,,,,,,,60fdff6234e9b78c0d472d5b,610366ea73c4d05e1f484f6e,2021-07-29_22h42.46.263,Simcolourproject_2stim_asymm_v5,2020.2.10,MacIntel,60,61025ae37ef11b136ea224fe,,,,,,,,,2540,38,77,1,0,0,response1disk,,7,-15,-11,1,0,0,rectangle,-15,-11,1,0,0,-15,-11,1,0,0,0,157,157,66,1,,,,,,,,
,,,,,,,,,,,,,FF,,,,,,,,0.749,,,,,,,,,,,,,,,,,,,,,,60fdff6234e9b78c0d472d5b,610366ea73c4d05e1f484f6e,2021-07-29_22h42.46.263,Simcolourproject_2stim_asymm_v5,2020.2.10,MacIntel,60,61025ae37ef11b136ea224fe,,,,,,,,,988,29,73,1,0,0,response1disk,,7,-11,-5,1,0,0,rectangle,-11,-5,1,0,0,-11,-5,1,0,0,0,158,158,62,1,,,,,,,,
,,,,,,,,,,,,,FF,,,,,,,,0.6,,,,,,,,,,,,,,,,,,,,,,60fdff6234e9b78c0d472d5b,610366ea73c4d05e1f484f6e,2021-07-29_22h42.46.263,Simcolourproject_2stim_asymm_v5,2020.2.10,MacIntel,60,61025ae37ef11b136ea224fe,,,,,,,,,2876,35,67,1,0,0,response1disk,,7,7,-1,1,0,0,rectangle,7,-1,1,0,0,7,-1,1,0,0,0,159,159,149,1,,,,,,,,
,,,,,,,,,,,,,FF,,,,,,,,1.901,,,,,,,,,,,,,,,,,,,,,,60fdff6234e9b78c0d472d5b,610366ea73c4d05e1f484f6e,2021-07-29_22h42.46.263,Simcolourproject_2stim_asymm_v5,2020.2.10,MacIntel,60,61025ae37ef11b136ea224fe,,,,,,,,,2171,79,-22,1,0,0,response3disk,,5,5,-3,1,0,0,rectangle,5,-3,1,0,0,5,-3,1,0,0,1,0,160,33,1,,,,,,,,
,,,,,,,,,,,,,FF,,,,,,,,0.699,,,,,,,,,,,,,,,,,,,,,,60fdff6234e9b78c0d472d5b,610366ea73c4d05e1f484f6e,2021-07-29_22h42.46.263,Simcolourproject_2stim_asymm_v5,2020.2.10,MacIntel,60,61025ae37ef11b136ea224fe,,,,,,,,,2009,39,109,1,0,0,response1disk,,7,11,0,1,0,0,rectangle,11,0,1,0,0,11,0,1,0,0,1,1,161,41,1,,,,,,,,
,,,,,,,,,,,,,FF,,,,,,,,0.716,,,,,,,,,,,,,,,,,,,,,,60fdff6234e9b78c0d472d5b,610366ea73c4d05e1f484f6e,2021-07-29_22h42.46.263,Simcolourproject_2stim_asymm_v5,2020.2.10,MacIntel,60,61025ae37ef11b136ea224fe,,,,,,,,,1880,34,66,1,0,0,response1disk,,7,-5,3,1,0,0,rectangle,-5,3,1,0,0,-5,3,1,0,0,1,2,162,71,1,,,,,,,,
,,,,,,,,,,,,,FF,,,,,,,,0.715,,,,,,,,,,,,,,,,,,,,,,60fdff6234e9b78c0d472d5b,610366ea73c4d05e1f484f6e,2021-07-29_22h42.46.263,Simcolourproject_2stim_asymm_v5,2020.2.10,MacIntel,60,61025ae37ef11b136ea224fe,,,,,,,,,2247,23,52,1,0,0,response1disk,,7,-10,-2,1,0,0,rectangle,-10,-2,1,0,0,-10,-2,1,0,0,1,3,163,118,1,,,,,,,,
,,,,,,,,,,,,,FF,,,,,,,,0.817,,,,,,,,,,,,,,,,,,,,,,60fdff6234e9b78c0d472d5b,610366ea73c4d05e1f484f6e,2021-07-29_22h42.46.263,Simcolourproject_2stim_asymm_v5,2020.2.10,MacIntel,60,61025ae37ef11b136ea224fe,,,,,,,,,3566,24,68,1,0,0,response1disk,,7,7,-18,1,0,0,rectangle,7,-18,1,0,0,7,-18,1,0,0,1,4,164,80,1,,,,,,,,
,,,,,,,,,,,,,FF,,,,,,,,0.933,,,,,,,,,,,,,,,,,,,,,,60fdff6234e9b78c0d472d5b,610366ea73c4d05e1f484f6e,2021-07-29_22h42.46.263,Simcolourproject_2stim_asymm_v5,2020.2.10,MacIntel,60,61025ae37ef11b136ea224fe,,,,,,,,,3941,34,95,1,0,0,response1disk,,7,8,17,1,0,0,rectangle,8,17,1,0,0,8,17,1,0,0,1,5,165,52,1,,,,,,,,
,,,,,,,,,,,,,FF,,,,,,,,0.466,,,,,,,,,,,,,,,,,,,,,,60fdff6234e9b78c0d472d5b,610366ea73c4d05e1f484f6e,2021-07-29_22h42.46.263,Simcolourproject_2stim_asymm_v5,2020.2.10,MacIntel,60,61025ae37ef11b136ea224fe,,,,,,,,,3572,39,85,1,0,0,response1disk,,7,-3,0,1,0,0,rectangle,-3,0,1,0,0,-3,0,1,0,0,1,6,166,85,1,,,,,,,,
,,,,,,,,,,,,,FF,,,,,,,,0.418,,,,,,,,,,,,,,,,,,,,,,60fdff6234e9b78c0d472d5b,610366ea73c4d05e1f484f6e,2021-07-29_22h42.46.263,Simcolourproject_2stim_asymm_v5,2020.2.10,MacIntel,60,61025ae37ef11b136ea224fe,,,,,,,,,2875,27,64,1,0,0,response1disk,,7,-11,5,1,0,0,rectangle,-11,5,1,0,0,-11,5,1,0,0,1,7,167,95,1,,,,,,,,
,,,,,,,,,,,,,FF,,,,,,,,0.433,,,,,,,,,,,,,,,,,,,,,,60fdff6234e9b78c0d472d5b,610366ea73c4d05e1f484f6e,2021-07-29_22h42.46.263,Simcolourproject_2stim_asymm_v5,2020.2.10,MacIntel,60,61025ae37ef11b136ea224fe,,,,,,,,,1417,26,60,1,0,0,response1disk,,7,11,13,1,0,0,rectangle,11,13,1,0,0,11,13,1,0,0,1,8,168,109,1,,,,,,,,
,,,,,,,,,,,,,FF,,,,,,,,0.684,,,,,,,,,,,,,,,,,,,,,,60fdff6234e9b78c0d472d5b,610366ea73c4d05e1f484f6e,2021-07-29_22h42.46.263,Simcolourproject_2stim_asymm_v5,2020.2.10,MacIntel,60,61025ae37ef11b136ea224fe,,,,,,,,,3719,37,80,1,0,0,response1disk,,7,-8,-1,1,0,0,rectangle,-8,-1,1,0,0,-8,-1,1,0,0,1,9,169,88,1,,,,,,,,
,,,,,,,,,,,,,FF,,,,,,,,0.583,,,,,,,,,,,,,,,,,,,,,,60fdff6234e9b78c0d472d5b,610366ea73c4d05e1f484f6e,2021-07-29_22h42.46.263,Simcolourproject_2stim_asymm_v5,2020.2.10,MacIntel,60,61025ae37ef11b136ea224fe,,,,,,,,,2974,33,86,1,0,0,response1disk,,7,1,3,1,0,0,rectangle,1,3,1,0,0,1,3,1,0,0,1,10,170,62,1,,,,,,,,
,,,,,,,,,,,,,FF,,,,,,,,1.483,,,,,,,,,,,,,,,,,,,,,,60fdff6234e9b78c0d472d5b,610366ea73c4d05e1f484f6e,2021-07-29_22h42.46.263,Simcolourproject_2stim_asymm_v5,2020.2.10,MacIntel,60,61025ae37ef11b136ea224fe,,,,,,,,,2420,-86,-33,1,0,0,response5disk,,2,15,1,1,0,0,rectangle,15,1,1,0,0,15,1,1,0,0,1,11,171,58,1,,,,,,,,
,,,,,,,,,,,,,FF,,,,,,,,0.849,,,,,,,,,,,,,,,,,,,,,,60fdff6234e9b78c0d472d5b,610366ea73c4d05e1f484f6e,2021-07-29_22h42.46.263,Simcolourproject_2stim_asymm_v5,2020.2.10,MacIntel,60,61025ae37ef11b136ea224fe,,,,,,,,,3033,51,76,1,0,0,response1disk,,7,13,8,1,0,0,rectangle,13,8,1,0,0,13,8,1,0,0,1,12,172,30,1,,,,,,,,
,,,,,,,,,,,,,FF,,,,,,,,0.6,,,,,,,,,,,,,,,,,,,,,,60fdff6234e9b78c0d472d5b,610366ea73c4d05e1f484f6e,2021-07-29_22h42.46.263,Simcolourproject_2stim_asymm_v5,2020.2.10,MacIntel,60,61025ae37ef11b136ea224fe,,,,,,,,,3958,34,72,1,0,0,response1disk,,7,20,6,1,0,0,rectangle,20,6,1,0,0,20,6,1,0,0,1,13,173,67,1,,,,,,,,
,,,,,,,,,,,,,FF,,,,,,,,1,,,,,,,,,,,,,,,,,,,,,,60fdff6234e9b78c0d472d5b,610366ea73c4d05e1f484f6e,2021-07-29_22h42.46.263,Simcolourproject_2stim_asymm_v5,2020.2.10,MacIntel,60,61025ae37ef11b136ea224fe,,,,,,,,,1259,37,61,1,0,0,response1disk,,7,8,6,1,0,0,rectangle,8,6,1,0,0,8,6,1,0,0,1,14,174,34,1,,,,,,,,
,,,,,,,,,,,,,FF,,,,,,,,0.533,,,,,,,,,,,,,,,,,,,,,,60fdff6234e9b78c0d472d5b,610366ea73c4d05e1f484f6e,2021-07-29_22h42.46.263,Simcolourproject_2stim_asymm_v5,2020.2.10,MacIntel,60,61025ae37ef11b136ea224fe,,,,,,,,,2158,35,65,1,0,0,response1disk,,7,14,2,1,0,0,rectangle,14,2,1,0,0,14,2,1,0,0,1,15,175,110,1,,,,,,,,
,,,,,,,,,,,,,FF,,,,,,,,0.633,,,,,,,,,,,,,,,,,,,,,,60fdff6234e9b78c0d472d5b,610366ea73c4d05e1f484f6e,2021-07-29_22h42.46.263,Simcolourproject_2stim_asymm_v5,2020.2.10,MacIntel,60,61025ae37ef11b136ea224fe,,,,,,,,,3857,52,81,1,0,0,response1disk,,7,19,12,1,0,0,rectangle,19,12,1,0,0,19,12,1,0,0,1,16,176,9,1,,,,,,,,
,,,,,,,,,,,,,FF,,,,,,,,0.483,,,,,,,,,,,,,,,,,,,,,,60fdff6234e9b78c0d472d5b,610366ea73c4d05e1f484f6e,2021-07-29_22h42.46.263,Simcolourproject_2stim_asymm_v5,2020.2.10,MacIntel,60,61025ae37ef11b136ea224fe,,,,,,,,,3022,34,83,1,0,0,response1disk,,7,4,8,1,0,0,rectangle,4,8,1,0,0,4,8,1,0,0,1,17,177,148,1,,,,,,,,
,,,,,,,,,,,,,FF,,,,,,,,0.733,,,,,,,,,,,,,,,,,,,,,,60fdff6234e9b78c0d472d5b,610366ea73c4d05e1f484f6e,2021-07-29_22h42.46.263,Simcolourproject_2stim_asymm_v5,2020.2.10,MacIntel,60,61025ae37ef11b136ea224fe,,,,,,,,,1938,46,72,1,0,0,response1disk,,7,11,-1,1,0,0,rectangle,11,-1,1,0,0,11,-1,1,0,0,1,18,178,153,1,,,,,,,,
,,,,,,,,,,,,,FF,,,,,,,,0.737,,,,,,,,,,,,,,,,,,,,,,60fdff6234e9b78c0d472d5b,610366ea73c4d05e1f484f6e,2021-07-29_22h42.46.263,Simcolourproject_2stim_asymm_v5,2020.2.10,MacIntel,60,61025ae37ef11b136ea224fe,,,,,,,,,1446,84,43,1,0,0,response1disk,,6,3,0,1,0,0,rectangle,3,0,1,0,0,3,0,1,0,0,1,19,179,119,1,,,,,,,,
,,,,,,,,,,,,,FF,,,,,,,,1.317,,,,,,,,,,,,,,,,,,,,,,60fdff6234e9b78c0d472d5b,610366ea73c4d05e1f484f6e,2021-07-29_22h42.46.263,Simcolourproject_2stim_asymm_v5,2020.2.10,MacIntel,60,61025ae37ef11b136ea224fe,,,,,,,,,4083,77,-52,1,0,0,response3disk,,5,-1,12,1,0,0,rectangle,-1,12,1,0,0,-1,12,1,0,0,1,20,180,75,1,,,,,,,,
,,,,,,,,,,,,,FF,,,,,,,,0.549,,,,,,,,,,,,,,,,,,,,,,60fdff6234e9b78c0d472d5b,610366ea73c4d05e1f484f6e,2021-07-29_22h42.46.263,Simcolourproject_2stim_asymm_v5,2020.2.10,MacIntel,60,61025ae37ef11b136ea224fe,,,,,,,,,584,49,119,1,0,0,response1disk,,7,-7,-1,1,0,0,rectangle,-7,-1,1,0,0,-7,-1,1,0,0,1,21,181,70,1,,,,,,,,
,,,,,,,,,,,,,FF,,,,,,,,0.916,,,,,,,,,,,,,,,,,,,,,,60fdff6234e9b78c0d472d5b,610366ea73c4d05e1f484f6e,2021-07-29_22h42.46.263,Simcolourproject_2stim_asymm_v5,2020.2.10,MacIntel,60,61025ae37ef11b136ea224fe,,,,,,,,,3668,-71,45,1,0,0,response7disk,,1,25,-5,1,0,0,rectangle,25,-5,1,0,0,25,-5,1,0,0,1,22,182,97,1,,,,,,,,
,,,,,,,,,,,,,FF,,,,,,,,0.617,,,,,,,,,,,,,,,,,,,,,,60fdff6234e9b78c0d472d5b,610366ea73c4d05e1f484f6e,2021-07-29_22h42.46.263,Simcolourproject_2stim_asymm_v5,2020.2.10,MacIntel,60,61025ae37ef11b136ea224fe,,,,,,,,,3349,51,87,1,0,0,response1disk,,7,25,14,1,0,0,rectangle,25,14,1,0,0,25,14,1,0,0,1,23,183,86,1,,,,,,,,
,,,,,,,,,,,,,FF,,,,,,,,1.583,,,,,,,,,,,,,,,,,,,,,,60fdff6234e9b78c0d472d5b,610366ea73c4d05e1f484f6e,2021-07-29_22h42.46.263,Simcolourproject_2stim_asymm_v5,2020.2.10,MacIntel,60,61025ae37ef11b136ea224fe,,,,,,,,,2368,89,-33,1,0,0,response3disk,,5,-1,-7,1,0,0,rectangle,-1,-7,1,0,0,-1,-7,1,0,0,1,24,184,66,1,,,,,,,,
,,,,,,,,,,,,,FF,,,,,,,,0.617,,,,,,,,,,,,,,,,,,,,,,60fdff6234e9b78c0d472d5b,610366ea73c4d05e1f484f6e,2021-07-29_22h42.46.263,Simcolourproject_2stim_asymm_v5,2020.2.10,MacIntel,60,61025ae37ef11b136ea224fe,,,,,,,,,1349,27,63,1,0,0,response1disk,,7,-4,7,1,0,0,rectangle,-4,7,1,0,0,-4,7,1,0,0,1,25,185,108,1,,,,,,,,
,,,,,,,,,,,,,FF,,,,,,,,0.584,,,,,,,,,,,,,,,,,,,,,,60fdff6234e9b78c0d472d5b,610366ea73c4d05e1f484f6e,2021-07-29_22h42.46.263,Simcolourproject_2stim_asymm_v5,2020.2.10,MacIntel,60,61025ae37ef11b136ea224fe,,,,,,,,,658,34,84,1,0,0,response1disk,,7,-1,13,1,0,0,rectangle,25,-73,1,0,0,2,0,1,0,0,1,26,186,32,1,,response3disk_3,TRUE,4,4,"[226,142,103,245,111,304,93,308,239,56,306,259,240,187,126,83,272,318,207,71]",1.682,rectangle
,,,,,,,,,,,,,FF,,,,,,,,0.932,,,,,,,,,,,,,,,,,,,,,,60fdff6234e9b78c0d472d5b,610366ea73c4d05e1f484f6e,2021-07-29_22h42.46.263,Simcolourproject_2stim_asymm_v5,2020.2.10,MacIntel,60,61025ae37ef11b136ea224fe,,,,,,,,,3782,68,47,1,0,0,response1disk,,6,2,-17,1,0,0,rectangle,2,-17,1,0,0,2,-17,1,0,0,1,27,187,26,1,,,,,,,,
,,,,,,,,,,,,,FF,,,,,,,,0.583,,,,,,,,,,,,,,,,,,,,,,60fdff6234e9b78c0d472d5b,610366ea73c4d05e1f484f6e,2021-07-29_22h42.46.263,Simcolourproject_2stim_asymm_v5,2020.2.10,MacIntel,60,61025ae37ef11b136ea224fe,,,,,,,,,1174,58,118,1,0,0,response1disk,,7,3,9,1,0,0,rectangle,3,9,1,0,0,3,9,1,0,0,1,28,188,124,1,,,,,,,,
,,,,,,,,,,,,,FF,,,,,,,,0.733,,,,,,,,,,,,,,,,,,,,,,60fdff6234e9b78c0d472d5b,610366ea73c4d05e1f484f6e,2021-07-29_22h42.46.263,Simcolourproject_2stim_asymm_v5,2020.2.10,MacIntel,60,61025ae37ef11b136ea224fe,,,,,,,,,1096,33,79,1,0,0,response1disk,,7,1,6,1,0,0,rectangle,1,6,1,0,0,1,6,1,0,0,1,29,189,157,1,,,,,,,,
,,,,,,,,,,,,,FF,,,,,,,,0.549,,,,,,,,,,,,,,,,,,,,,,60fdff6234e9b78c0d472d5b,610366ea73c4d05e1f484f6e,2021-07-29_22h42.46.263,Simcolourproject_2stim_asymm_v5,2020.2.10,MacIntel,60,61025ae37ef11b136ea224fe,,,,,,,,,1225,40,79,1,0,0,response1disk,,7,8,8,1,0,0,rectangle,8,8,1,0,0,8,8,1,0,0,1,30,190,78,1,,,,,,,,
,,,,,,,,,,,,,FF,,,,,,,,0.466,,,,,,,,,,,,,,,,,,,,,,60fdff6234e9b78c0d472d5b,610366ea73c4d05e1f484f6e,2021-07-29_22h42.46.263,Simcolourproject_2stim_asymm_v5,2020.2.10,MacIntel,60,61025ae37ef11b136ea224fe,,,,,,,,,1733,40,71,1,0,0,response1disk,,7,6,-8,1,0,0,rectangle,6,-8,1,0,0,6,-8,1,0,0,1,31,191,23,1,,,,,,,,
,,,,,,,,,,,,,FF,,,,,,,,1.234,,,,,,,,,,,,,,,,,,,,,,60fdff6234e9b78c0d472d5b,610366ea73c4d05e1f484f6e,2021-07-29_22h42.46.263,Simcolourproject_2stim_asymm_v5,2020.2.10,MacIntel,60,61025ae37ef11b136ea224fe,,,,,,,,,3481,68,36,1,0,0,response1disk,,6,-14,7,1,0,0,rectangle,-14,7,1,0,0,-14,7,1,0,0,1,32,192,93,1,,,,,,,,
,,,,,,,,,,,,,FF,,,,,,,,0.366,,,,,,,,,,,,,,,,,,,,,,60fdff6234e9b78c0d472d5b,610366ea73c4d05e1f484f6e,2021-07-29_22h42.46.263,Simcolourproject_2stim_asymm_v5,2020.2.10,MacIntel,60,61025ae37ef11b136ea224fe,,,,,,,,,518,35,78,1,0,0,response1disk,,7,6,1,1,0,0,rectangle,6,1,1,0,0,6,1,1,0,0,1,33,193,63,1,,,,,,,,
,,,,,,,,,,,,,FF,,,,,,,,1,,,,,,,,,,,,,,,,,,,,,,60fdff6234e9b78c0d472d5b,610366ea73c4d05e1f484f6e,2021-07-29_22h42.46.263,Simcolourproject_2stim_asymm_v5,2020.2.10,MacIntel,60,61025ae37ef11b136ea224fe,,,,,,,,,1292,65,33,1,0,0,response1disk,,6,15,0,1,0,0,rectangle,15,0,1,0,0,15,0,1,0,0,1,34,194,107,1,,,,,,,,
,,,,,,,,,,,,,FF,,,,,,,,0.7,,,,,,,,,,,,,,,,,,,,,,60fdff6234e9b78c0d472d5b,610366ea73c4d05e1f484f6e,2021-07-29_22h42.46.263,Simcolourproject_2stim_asymm_v5,2020.2.10,MacIntel,60,61025ae37ef11b136ea224fe,,,,,,,,,2144,50,79,1,0,0,response1disk,,7,2,9,1,0,0,rectangle,2,9,1,0,0,2,9,1,0,0,1,35,195,50,1,,,,,,,,
,,,,,,,,,,,,,FF,,,,,,,,0.65,,,,,,,,,,,,,,,,,,,,,,60fdff6234e9b78c0d472d5b,610366ea73c4d05e1f484f6e,2021-07-29_22h42.46.263,Simcolourproject_2stim_asymm_v5,2020.2.10,MacIntel,60,61025ae37ef11b136ea224fe,,,,,,,,,2274,36,70,1,0,0,response1disk,,7,0,9,1,0,0,rectangle,0,9,1,0,0,0,9,1,0,0,1,36,196,35,1,,,,,,,,
,,,,,,,,,,,,,FF,,,,,,,,1.333,,,,,,,,,,,,,,,,,,,,,,60fdff6234e9b78c0d472d5b,610366ea73c4d05e1f484f6e,2021-07-29_22h42.46.263,Simcolourproject_2stim_asymm_v5,2020.2.10,MacIntel,60,61025ae37ef11b136ea224fe,,,,,,,,,4252,-55,-81,1,0,0,response5disk,,3,-14,-18,1,0,0,rectangle,-14,-18,1,0,0,-14,-18,1,0,0,1,37,197,146,1,,,,,,,,
,,,,,,,,,,,,,FF,,,,,,,,0.533,,,,,,,,,,,,,,,,,,,,,,60fdff6234e9b78c0d472d5b,610366ea73c4d05e1f484f6e,2021-07-29_22h42.46.263,Simcolourproject_2stim_asymm_v5,2020.2.10,MacIntel,60,61025ae37ef11b136ea224fe,,,,,,,,,3302,47,73,1,0,0,response1disk,,7,10,17,1,0,0,rectangle,10,17,1,0,0,10,17,1,0,0,1,38,198,77,1,,,,,,,,
,,,,,,,,,,,,,FF,,,,,,,,0.483,,,,,,,,,,,,,,,,,,,,,,60fdff6234e9b78c0d472d5b,610366ea73c4d05e1f484f6e,2021-07-29_22h42.46.263,Simcolourproject_2stim_asymm_v5,2020.2.10,MacIntel,60,61025ae37ef11b136ea224fe,,,,,,,,,4079,30,66,1,0,0,response1disk,,7,3,1,1,0,0,rectangle,3,1,1,0,0,3,1,1,0,0,1,39,199,127,1,,,,,,,,
,,,,,,,,,,,,,FF,,,,,,,,0.683,,,,,,,,,,,,,,,,,,,,,,60fdff6234e9b78c0d472d5b,610366ea73c4d05e1f484f6e,2021-07-29_22h42.46.263,Simcolourproject_2stim_asymm_v5,2020.2.10,MacIntel,60,61025ae37ef11b136ea224fe,,,,,,,,,1358,32,63,1,0,0,response1disk,,7,1,0,1,0,0,rectangle,1,0,1,0,0,1,0,1,0,0,1,40,200,55,1,,,,,,,,
,,,,,,,,,,,,,FF,,,,,,,,0.951,,,,,,,,,,,,,,,,,,,,,,60fdff6234e9b78c0d472d5b,610366ea73c4d05e1f484f6e,2021-07-29_22h42.46.263,Simcolourproject_2stim_asymm_v5,2020.2.10,MacIntel,60,61025ae37ef11b136ea224fe,,,,,,,,,3422,37,64,1,0,0,response1disk,,7,11,9,1,0,0,rectangle,11,9,1,0,0,11,9,1,0,0,1,41,201,22,1,,,,,,,,
,,,,,,,,,,,,,FF,,,,,,,,0.534,,,,,,,,,,,,,,,,,,,,,,60fdff6234e9b78c0d472d5b,610366ea73c4d05e1f484f6e,2021-07-29_22h42.46.263,Simcolourproject_2stim_asymm_v5,2020.2.10,MacIntel,60,61025ae37ef11b136ea224fe,,,,,,,,,1788,47,84,1,0,0,response1disk,,7,12,0,1,0,0,rectangle,12,0,1,0,0,12,0,1,0,0,1,42,202,60,1,,,,,,,,
,,,,,,,,,,,,,FF,,,,,,,,0.599,,,,,,,,,,,,,,,,,,,,,,60fdff6234e9b78c0d472d5b,610366ea73c4d05e1f484f6e,2021-07-29_22h42.46.263,Simcolourproject_2stim_asymm_v5,2020.2.10,MacIntel,60,61025ae37ef11b136ea224fe,,,,,,,,,647,54,76,1,0,0,response1disk,,7,12,9,1,0,0,rectangle,12,9,1,0,0,12,9,1,0,0,1,43,203,90,1,,,,,,,,
,,,,,,,,,,,,,FF,,,,,,,,0.401,,,,,,,,,,,,,,,,,,,,,,60fdff6234e9b78c0d472d5b,610366ea73c4d05e1f484f6e,2021-07-29_22h42.46.263,Simcolourproject_2stim_asymm_v5,2020.2.10,MacIntel,60,61025ae37ef11b136ea224fe,,,,,,,,,2864,46,78,1,0,0,response1disk,,7,4,4,1,0,0,rectangle,4,4,1,0,0,4,4,1,0,0,1,44,204,16,1,,,,,,,,
,,,,,,,,,,,,,FF,,,,,,,,1,,,,,,,,,,,,,,,,,,,,,,60fdff6234e9b78c0d472d5b,610366ea73c4d05e1f484f6e,2021-07-29_22h42.46.263,Simcolourproject_2stim_asymm_v5,2020.2.10,MacIntel,60,61025ae37ef11b136ea224fe,,,,,,,,,3583,95,46,1,0,0,response1disk,,6,15,10,1,0,0,rectangle,15,10,1,0,0,15,10,1,0,0,1,45,205,69,1,,,,,,,,
,,,,,,,,,,,,,FF,,,,,,,,0.85,,,,,,,,,,,,,,,,,,,,,,60fdff6234e9b78c0d472d5b,610366ea73c4d05e1f484f6e,2021-07-29_22h42.46.263,Simcolourproject_2stim_asymm_v5,2020.2.10,MacIntel,60,61025ae37ef11b136ea224fe,,,,,,,,,1838,56,77,1,0,0,response1disk,,7,14,-5,1,0,0,rectangle,-34,77,1,0,0,-11,-3,1,0,0,1,46,206,123,1,,response7disk_3,TRUE,0,0,"[226,142,103,245,111,304,93,308,239,56,306,259,240,187,126,83,272,318,207,71]",1.932,rectangle
,,,,,,,,,,,,,FF,,,,,,,,0.667,,,,,,,,,,,,,,,,,,,,,,60fdff6234e9b78c0d472d5b,610366ea73c4d05e1f484f6e,2021-07-29_22h42.46.263,Simcolourproject_2stim_asymm_v5,2020.2.10,MacIntel,60,61025ae37ef11b136ea224fe,,,,,,,,,3073,19,57,1,0,0,response1disk,,7,-7,-1,1,0,0,rectangle,-7,-1,1,0,0,-7,-1,1,0,0,1,47,207,21,1,,,,,,,,
,,,,,,,,,,,,,FF,,,,,,,,1.001,,,,,,,,,,,,,,,,,,,,,,60fdff6234e9b78c0d472d5b,610366ea73c4d05e1f484f6e,2021-07-29_22h42.46.263,Simcolourproject_2stim_asymm_v5,2020.2.10,MacIntel,60,61025ae37ef11b136ea224fe,,,,,,,,,3742,-66,-49,1,0,0,response5disk,,2,7,2,1,0,0,rectangle,7,2,1,0,0,7,2,1,0,0,1,48,208,144,1,,,,,,,,
,,,,,,,,,,,,,FF,,,,,,,,0.934,,,,,,,,,,,,,,,,,,,,,,60fdff6234e9b78c0d472d5b,610366ea73c4d05e1f484f6e,2021-07-29_22h42.46.263,Simcolourproject_2stim_asymm_v5,2020.2.10,MacIntel,60,61025ae37ef11b136ea224fe,,,,,,,,,4031,41,68,1,0,0,response1disk,,7,7,-14,1,0,0,rectangle,7,-14,1,0,0,7,-14,1,0,0,1,49,209,158,1,,,,,,,,
,,,,,,,,,,,,,FF,,,,,,,,0.666,,,,,,,,,,,,,,,,,,,,,,60fdff6234e9b78c0d472d5b,610366ea73c4d05e1f484f6e,2021-07-29_22h42.46.263,Simcolourproject_2stim_asymm_v5,2020.2.10,MacIntel,60,61025ae37ef11b136ea224fe,,,,,,,,,1286,39,76,1,0,0,response1disk,,7,11,13,1,0,0,rectangle,11,13,1,0,0,11,13,1,0,0,1,50,210,111,1,,,,,,,,
,,,,,,,,,,,,,FF,,,,,,,,0.516,,,,,,,,,,,,,,,,,,,,,,60fdff6234e9b78c0d472d5b,610366ea73c4d05e1f484f6e,2021-07-29_22h42.46.263,Simcolourproject_2stim_asymm_v5,2020.2.10,MacIntel,60,61025ae37ef11b136ea224fe,,,,,,,,,4194,41,69,1,0,0,response1disk,,7,19,8,1,0,0,rectangle,19,8,1,0,0,19,8,1,0,0,1,51,211,43,1,,,,,,,,
,,,,,,,,,,,,,FF,,,,,,,,0.616,,,,,,,,,,,,,,,,,,,,,,60fdff6234e9b78c0d472d5b,610366ea73c4d05e1f484f6e,2021-07-29_22h42.46.263,Simcolourproject_2stim_asymm_v5,2020.2.10,MacIntel,60,61025ae37ef11b136ea224fe,,,,,,,,,2395,65,104,1,0,0,response1disk,,7,11,17,1,0,0,rectangle,11,17,1,0,0,11,17,1,0,0,1,52,212,13,1,,,,,,,,
,,,,,,,,,,,,,FF,,,,,,,,0.717,,,,,,,,,,,,,,,,,,,,,,60fdff6234e9b78c0d472d5b,610366ea73c4d05e1f484f6e,2021-07-29_22h42.46.263,Simcolourproject_2stim_asymm_v5,2020.2.10,MacIntel,60,61025ae37ef11b136ea224fe,,,,,,,,,1304,56,100,1,0,0,response1disk,,7,6,3,1,0,0,rectangle,6,3,1,0,0,6,3,1,0,0,1,53,213,64,1,,,,,,,,
,,,,,,,,,,,,,FF,,,,,,,,1.2,,,,,,,,,,,,,,,,,,,,,,60fdff6234e9b78c0d472d5b,610366ea73c4d05e1f484f6e,2021-07-29_22h42.46.263,Simcolourproject_2stim_asymm_v5,2020.2.10,MacIntel,60,61025ae37ef11b136ea224fe,,,,,,,,,1818,77,-29,1,0,0,response3disk,,5,13,-2,1,0,0,rectangle,13,-2,1,0,0,13,-2,1,0,0,1,54,214,129,1,,,,,,,,
,,,,,,,,,,,,,FF,,,,,,,,0.516,,,,,,,,,,,,,,,,,,,,,,60fdff6234e9b78c0d472d5b,610366ea73c4d05e1f484f6e,2021-07-29_22h42.46.263,Simcolourproject_2stim_asymm_v5,2020.2.10,MacIntel,60,61025ae37ef11b136ea224fe,,,,,,,,,4324,53,82,1,0,0,response1disk,,7,5,10,1,0,0,rectangle,5,10,1,0,0,5,10,1,0,0,1,55,215,133,1,,,,,,,,
,,,,,,,,,,,,,FF,,,,,,,,0.7,,,,,,,,,,,,,,,,,,,,,,60fdff6234e9b78c0d472d5b,610366ea73c4d05e1f484f6e,2021-07-29_22h42.46.263,Simcolourproject_2stim_asymm_v5,2020.2.10,MacIntel,60,61025ae37ef11b136ea224fe,,,,,,,,,567,37,74,1,0,0,response1disk,,7,18,11,1,0,0,rectangle,18,11,1,0,0,18,11,1,0,0,1,56,216,121,1,,,,,,,,
,,,,,,,,,,,,,FF,,,,,,,,1.45,,,,,,,,,,,,,,,,,,,,,,60fdff6234e9b78c0d472d5b,610366ea73c4d05e1f484f6e,2021-07-29_22h42.46.263,Simcolourproject_2stim_asymm_v5,2020.2.10,MacIntel,60,61025ae37ef11b136ea224fe,,,,,,,,,370,73,-38,1,0,0,response3disk,,5,16,-6,1,0,0,rectangle,16,-6,1,0,0,16,-6,1,0,0,1,57,217,27,1,,,,,,,,
,,,,,,,,,,,,,FF,,,,,,,,0.416,,,,,,,,,,,,,,,,,,,,,,60fdff6234e9b78c0d472d5b,610366ea73c4d05e1f484f6e,2021-07-29_22h42.46.263,Simcolourproject_2stim_asymm_v5,2020.2.10,MacIntel,60,61025ae37ef11b136ea224fe,,,,,,,,,40,38,79,1,0,0,response1disk,,7,2,4,1,0,0,rectangle,2,4,1,0,0,2,4,1,0,0,1,58,218,3,1,,,,,,,,
,,,,,,,,,,,,,FF,,,,,,,,1.083,,,,,,,,,,,,,,,,,,,,,,60fdff6234e9b78c0d472d5b,610366ea73c4d05e1f484f6e,2021-07-29_22h42.46.263,Simcolourproject_2stim_asymm_v5,2020.2.10,MacIntel,60,61025ae37ef11b136ea224fe,,,,,,,,,368,-47,-90,1,0,0,response5disk,,3,3,-9,1,0,0,rectangle,3,-9,1,0,0,3,-9,1,0,0,1,59,219,125,1,,,,,,,,
,,,,,,,,,,,,,FF,,,,,,,,0.417,,,,,,,,,,,,,,,,,,,,,,60fdff6234e9b78c0d472d5b,610366ea73c4d05e1f484f6e,2021-07-29_22h42.46.263,Simcolourproject_2stim_asymm_v5,2020.2.10,MacIntel,60,61025ae37ef11b136ea224fe,,,,,,,,,3731,39,86,1,0,0,response1disk,,7,1,-2,1,0,0,rectangle,1,-2,1,0,0,1,-2,1,0,0,1,60,220,141,1,,,,,,,,
,,,,,,,,,,,,,FF,,,,,,,,0.503,,,,,,,,,,,,,,,,,,,,,,60fdff6234e9b78c0d472d5b,610366ea73c4d05e1f484f6e,2021-07-29_22h42.46.263,Simcolourproject_2stim_asymm_v5,2020.2.10,MacIntel,60,61025ae37ef11b136ea224fe,,,,,,,,,1711,32,51,1,0,0,response1disk,,7,-2,-8,1,0,0,rectangle,-2,-8,1,0,0,-2,-8,1,0,0,1,61,221,29,1,,,,,,,,
,,,,,,,,,,,,,FF,,,,,,,,0.8,,,,,,,,,,,,,,,,,,,,,,60fdff6234e9b78c0d472d5b,610366ea73c4d05e1f484f6e,2021-07-29_22h42.46.263,Simcolourproject_2stim_asymm_v5,2020.2.10,MacIntel,60,61025ae37ef11b136ea224fe,,,,,,,,,3342,77,37,1,0,0,response1disk,,6,6,7,1,0,0,rectangle,6,7,1,0,0,6,7,1,0,0,1,62,222,136,1,,,,,,,,
,,,,,,,,,,,,,FF,,,,,,,,1,,,,,,,,,,,,,,,,,,,,,,60fdff6234e9b78c0d472d5b,610366ea73c4d05e1f484f6e,2021-07-29_22h42.46.263,Simcolourproject_2stim_asymm_v5,2020.2.10,MacIntel,60,61025ae37ef11b136ea224fe,,,,,,,,,257,52,69,1,0,0,response1disk,,7,1,12,1,0,0,rectangle,1,12,1,0,0,1,12,1,0,0,1,63,223,112,1,,,,,,,,
,,,,,,,,,,,,,FF,,,,,,,,0.466,,,,,,,,,,,,,,,,,,,,,,60fdff6234e9b78c0d472d5b,610366ea73c4d05e1f484f6e,2021-07-29_22h42.46.263,Simcolourproject_2stim_asymm_v5,2020.2.10,MacIntel,60,61025ae37ef11b136ea224fe,,,,,,,,,1337,40,93,1,0,0,response1disk,,7,9,6,1,0,0,rectangle,9,6,1,0,0,9,6,1,0,0,1,64,224,96,1,,,,,,,,
,,,,,,,,,,,,,FF,,,,,,,,0.566,,,,,,,,,,,,,,,,,,,,,,60fdff6234e9b78c0d472d5b,610366ea73c4d05e1f484f6e,2021-07-29_22h42.46.263,Simcolourproject_2stim_asymm_v5,2020.2.10,MacIntel,60,61025ae37ef11b136ea224fe,,,,,,,,,3210,42,101,1,0,0,response1disk,,7,3,8,1,0,0,rectangle,-83,29,1,0,0,6,-8,1,0,0,1,65,225,4,1,,response7disk_3,TRUE,1,1,"[226,142,103,245,111,304,93,308,239,56,306,259,240,187,126,83,272,318,207,71]",1.798,rectangle
,,,,,,,,,,,,,FF,,,,,,,,1.133,,,,,,,,,,,,,,,,,,,,,,60fdff6234e9b78c0d472d5b,610366ea73c4d05e1f484f6e,2021-07-29_22h42.46.263,Simcolourproject_2stim_asymm_v5,2020.2.10,MacIntel,60,61025ae37ef11b136ea224fe,,,,,,,,,801,-69,42,1,0,0,response7disk,,1,8,-1,1,0,0,rectangle,8,-1,1,0,0,8,-1,1,0,0,1,66,226,114,1,,,,,,,,
,,,,,,,,,,,,,FF,,,,,,,,0.567,,,,,,,,,,,,,,,,,,,,,,60fdff6234e9b78c0d472d5b,610366ea73c4d05e1f484f6e,2021-07-29_22h42.46.263,Simcolourproject_2stim_asymm_v5,2020.2.10,MacIntel,60,61025ae37ef11b136ea224fe,,,,,,,,,4320,33,72,1,0,0,response1disk,,7,20,10,1,0,0,rectangle,20,10,1,0,0,20,10,1,0,0,1,67,227,98,1,,,,,,,,
,,,,,,,,,,,,,FF,,,,,,,,1.232,,,,,,,,,,,,,,,,,,,,,,60fdff6234e9b78c0d472d5b,610366ea73c4d05e1f484f6e,2021-07-29_22h42.46.263,Simcolourproject_2stim_asymm_v5,2020.2.10,MacIntel,60,61025ae37ef11b136ea224fe,,,,,,,,,1298,-82,-68,1,0,0,response5disk,,2,8,-4,1,0,0,rectangle,8,-4,1,0,0,8,-4,1,0,0,1,68,228,155,1,,,,,,,,
,,,,,,,,,,,,,FF,,,,,,,,1.133,,,,,,,,,,,,,,,,,,,,,,60fdff6234e9b78c0d472d5b,610366ea73c4d05e1f484f6e,2021-07-29_22h42.46.263,Simcolourproject_2stim_asymm_v5,2020.2.10,MacIntel,60,61025ae37ef11b136ea224fe,,,,,,,,,720,52,-62,1,0,0,response3disk,,4,20,-8,1,0,0,rectangle,20,-8,1,0,0,20,-8,1,0,0,1,69,229,131,1,,,,,,,,
,,,,,,,,,,,,,FF,,,,,,,,0.766,,,,,,,,,,,,,,,,,,,,,,60fdff6234e9b78c0d472d5b,610366ea73c4d05e1f484f6e,2021-07-29_22h42.46.263,Simcolourproject_2stim_asymm_v5,2020.2.10,MacIntel,60,61025ae37ef11b136ea224fe,,,,,,,,,2793,42,70,1,0,0,response1disk,,7,-1,-17,1,0,0,rectangle,-1,-17,1,0,0,-1,-17,1,0,0,1,70,230,47,1,,,,,,,,
,,,,,,,,,,,,,FF,,,,,,,,0.483,,,,,,,,,,,,,,,,,,,,,,60fdff6234e9b78c0d472d5b,610366ea73c4d05e1f484f6e,2021-07-29_22h42.46.263,Simcolourproject_2stim_asymm_v5,2020.2.10,MacIntel,60,61025ae37ef11b136ea224fe,,,,,,,,,2567,32,85,1,0,0,response1disk,,7,7,-12,1,0,0,rectangle,7,-12,1,0,0,7,-12,1,0,0,1,71,231,137,1,,,,,,,,
,,,,,,,,,,,,,FF,,,,,,,,0.533,,,,,,,,,,,,,,,,,,,,,,60fdff6234e9b78c0d472d5b,610366ea73c4d05e1f484f6e,2021-07-29_22h42.46.263,Simcolourproject_2stim_asymm_v5,2020.2.10,MacIntel,60,61025ae37ef11b136ea224fe,,,,,,,,,2406,39,65,1,0,0,response1disk,,7,10,11,1,0,0,rectangle,10,11,1,0,0,10,11,1,0,0,1,72,232,120,1,,,,,,,,
,,,,,,,,,,,,,FF,,,,,,,,0.415,,,,,,,,,,,,,,,,,,,,,,60fdff6234e9b78c0d472d5b,610366ea73c4d05e1f484f6e,2021-07-29_22h42.46.263,Simcolourproject_2stim_asymm_v5,2020.2.10,MacIntel,60,61025ae37ef11b136ea224fe,,,,,,,,,3927,38,73,1,0,0,response1disk,,7,7,0,1,0,0,rectangle,7,0,1,0,0,7,0,1,0,0,1,73,233,134,1,,,,,,,,
,,,,,,,,,,,,,FF,,,,,,,,0.449,,,,,,,,,,,,,,,,,,,,,,60fdff6234e9b78c0d472d5b,610366ea73c4d05e1f484f6e,2021-07-29_22h42.46.263,Simcolourproject_2stim_asymm_v5,2020.2.10,MacIntel,60,61025ae37ef11b136ea224fe,,,,,,,,,1284,51,69,1,0,0,response1disk,,7,12,3,1,0,0,rectangle,12,3,1,0,0,12,3,1,0,0,1,74,234,73,1,,,,,,,,
,,,,,,,,,,,,,FF,,,,,,,,0.465,,,,,,,,,,,,,,,,,,,,,,60fdff6234e9b78c0d472d5b,610366ea73c4d05e1f484f6e,2021-07-29_22h42.46.263,Simcolourproject_2stim_asymm_v5,2020.2.10,MacIntel,60,61025ae37ef11b136ea224fe,,,,,,,,,1716,34,59,1,0,0,response1disk,,7,9,-1,1,0,0,rectangle,9,-1,1,0,0,9,-1,1,0,0,1,75,235,0,1,,,,,,,,
,,,,,,,,,,,,,FF,,,,,,,,0.415,,,,,,,,,,,,,,,,,,,,,,60fdff6234e9b78c0d472d5b,610366ea73c4d05e1f484f6e,2021-07-29_22h42.46.263,Simcolourproject_2stim_asymm_v5,2020.2.10,MacIntel,60,61025ae37ef11b136ea224fe,,,,,,,,,2518,49,76,1,0,0,response1disk,,7,23,10,1,0,0,rectangle,23,10,1,0,0,23,10,1,0,0,1,76,236,46,1,,,,,,,,
,,,,,,,,,,,,,FF,,,,,,,,1.099,,,,,,,,,,,,,,,,,,,,,,60fdff6234e9b78c0d472d5b,610366ea73c4d05e1f484f6e,2021-07-29_22h42.46.263,Simcolourproject_2stim_asymm_v5,2020.2.10,MacIntel,60,61025ae37ef11b136ea224fe,,,,,,,,,1377,76,-52,1,0,0,response3disk,,5,12,-5,1,0,0,rectangle,12,-5,1,0,0,12,-5,1,0,0,1,77,237,138,1,,,,,,,,
,,,,,,,,,,,,,FF,,,,,,,,0.883,,,,,,,,,,,,,,,,,,,,,,60fdff6234e9b78c0d472d5b,610366ea73c4d05e1f484f6e,2021-07-29_22h42.46.263,Simcolourproject_2stim_asymm_v5,2020.2.10,MacIntel,60,61025ae37ef11b136ea224fe,,,,,,,,,3091,49,67,1,0,0,response1disk,,7,-3,-17,1,0,0,rectangle,47,95,1,0,0,-8,4,1,0,0,1,78,238,151,1,,response1disk_3,TRUE,7,7,"[226,142,103,245,111,304,93,308,239,56,306,259,240,187,126,83,272,318,207,71]",1.6,rectangle
,,,,,,,,,,,,,FF,,,,,,,,0.899,,,,,,,,,,,,,,,,,,,,,,60fdff6234e9b78c0d472d5b,610366ea73c4d05e1f484f6e,2021-07-29_22h42.46.263,Simcolourproject_2stim_asymm_v5,2020.2.10,MacIntel,60,61025ae37ef11b136ea224fe,,,,,,,,,430,54,31,1,0,0,response1disk,,6,-14,1,1,0,0,rectangle,28,72,1,0,0,4,-12,1,0,0,1,79,239,76,1,,response1disk_3,TRUE,7,7,"[226,142,103,245,111,304,93,308,239,56,306,259,240,187,126,83,272,318,207,71]",1.95,rectangle
,,,,,,,,,,,,,FF,,,,,,,,0.733,,,,,,,,,,,,,,,,,,,,,,60fdff6234e9b78c0d472d5b,610366ea73c4d05e1f484f6e,2021-07-29_22h42.46.263,Simcolourproject_2stim_asymm_v5,2020.2.10,MacIntel,60,61025ae37ef11b136ea224fe,,,,,,,,,2825,38,108,1,0,0,response1disk,,7,14,1,1,0,0,rectangle,14,1,1,0,0,14,1,1,0,0,1,80,240,24,1,,,,,,,,
,,,,,,,,,,,,,FF,,,,,,,,0.833,,,,,,,,,,,,,,,,,,,,,,60fdff6234e9b78c0d472d5b,610366ea73c4d05e1f484f6e,2021-07-29_22h42.46.263,Simcolourproject_2stim_asymm_v5,2020.2.10,MacIntel,60,61025ae37ef11b136ea224fe,,,,,,,,,4071,-68,30,1,0,0,response7disk,,1,7,3,1,0,0,rectangle,7,3,1,0,0,7,3,1,0,0,1,81,241,140,1,,,,,,,,
,,,,,,,,,,,,,FF,,,,,,,,0.983,,,,,,,,,,,,,,,,,,,,,,60fdff6234e9b78c0d472d5b,610366ea73c4d05e1f484f6e,2021-07-29_22h42.46.263,Simcolourproject_2stim_asymm_v5,2020.2.10,MacIntel,60,61025ae37ef11b136ea224fe,,,,,,,,,164,-55,-90,1,0,0,response5disk,,3,-20,-16,1,0,0,rectangle,-20,-16,1,0,0,-20,-16,1,0,0,1,82,242,92,1,,,,,,,,
,,,,,,,,,,,,,FF,,,,,,,,0.716,,,,,,,,,,,,,,,,,,,,,,60fdff6234e9b78c0d472d5b,610366ea73c4d05e1f484f6e,2021-07-29_22h42.46.263,Simcolourproject_2stim_asymm_v5,2020.2.10,MacIntel,60,61025ae37ef11b136ea224fe,,,,,,,,,2043,44,70,1,0,0,response1disk,,7,6,10,1,0,0,rectangle,6,10,1,0,0,6,10,1,0,0,1,83,243,89,1,,,,,,,,
,,,,,,,,,,,,,FF,,,,,,,,0.732,,,,,,,,,,,,,,,,,,,,,,60fdff6234e9b78c0d472d5b,610366ea73c4d05e1f484f6e,2021-07-29_22h42.46.263,Simcolourproject_2stim_asymm_v5,2020.2.10,MacIntel,60,61025ae37ef11b136ea224fe,,,,,,,,,3416,36,73,1,0,0,response1disk,,7,-5,-4,1,0,0,rectangle,-37,-89,1,0,0,-14,-8,1,0,0,1,84,244,51,1,,response5disk_3,TRUE,3,3,"[226,142,103,245,111,304,93,308,239,56,306,259,240,187,126,83,272,318,207,71]",1.749,rectangle
,,,,,,,,,,,,,FF,,,,,,,,0.648,,,,,,,,,,,,,,,,,,,,,,60fdff6234e9b78c0d472d5b,610366ea73c4d05e1f484f6e,2021-07-29_22h42.46.263,Simcolourproject_2stim_asymm_v5,2020.2.10,MacIntel,60,61025ae37ef11b136ea224fe,,,,,,,,,2613,43,95,1,0,0,response1disk,,7,23,14,1,0,0,rectangle,23,14,1,0,0,23,14,1,0,0,1,85,245,6,1,,,,,,,,
,,,,,,,,,,,,,FF,,,,,,,,0.433,,,,,,,,,,,,,,,,,,,,,,60fdff6234e9b78c0d472d5b,610366ea73c4d05e1f484f6e,2021-07-29_22h42.46.263,Simcolourproject_2stim_asymm_v5,2020.2.10,MacIntel,60,61025ae37ef11b136ea224fe,,,,,,,,,834,48,83,1,0,0,response1disk,,7,6,6,1,0,0,rectangle,6,6,1,0,0,6,6,1,0,0,1,86,246,149,1,,,,,,,,
,,,,,,,,,,,,,FF,,,,,,,,0.416,,,,,,,,,,,,,,,,,,,,,,60fdff6234e9b78c0d472d5b,610366ea73c4d05e1f484f6e,2021-07-29_22h42.46.263,Simcolourproject_2stim_asymm_v5,2020.2.10,MacIntel,60,61025ae37ef11b136ea224fe,,,,,,,,,2504,46,83,1,0,0,response1disk,,7,6,14,1,0,0,rectangle,6,14,1,0,0,6,14,1,0,0,1,87,247,145,1,,,,,,,,
,,,,,,,,,,,,,FF,,,,,,,,0.549,,,,,,,,,,,,,,,,,,,,,,60fdff6234e9b78c0d472d5b,610366ea73c4d05e1f484f6e,2021-07-29_22h42.46.263,Simcolourproject_2stim_asymm_v5,2020.2.10,MacIntel,60,61025ae37ef11b136ea224fe,,,,,,,,,4108,42,77,1,0,0,response1disk,,7,1,-9,1,0,0,rectangle,1,-9,1,0,0,1,-9,1,0,0,1,88,248,159,1,,,,,,,,
,,,,,,,,,,,,,FF,,,,,,,,1.199,,,,,,,,,,,,,,,,,,,,,,60fdff6234e9b78c0d472d5b,610366ea73c4d05e1f484f6e,2021-07-29_22h42.46.263,Simcolourproject_2stim_asymm_v5,2020.2.10,MacIntel,60,61025ae37ef11b136ea224fe,,,,,,,,,4170,56,-93,1,0,0,response3disk,,4,18,-4,1,0,0,rectangle,18,-4,1,0,0,18,-4,1,0,0,1,89,249,139,1,,,,,,,,
,,,,,,,,,,,,,FF,,,,,,,,0.401,,,,,,,,,,,,,,,,,,,,,,60fdff6234e9b78c0d472d5b,610366ea73c4d05e1f484f6e,2021-07-29_22h42.46.263,Simcolourproject_2stim_asymm_v5,2020.2.10,MacIntel,60,61025ae37ef11b136ea224fe,,,,,,,,,3170,33,88,1,0,0,response1disk,,7,5,7,1,0,0,rectangle,5,7,1,0,0,5,7,1,0,0,1,90,250,20,1,,,,,,,,
,,,,,,,,,,,,,FF,,,,,,,,0.666,,,,,,,,,,,,,,,,,,,,,,60fdff6234e9b78c0d472d5b,610366ea73c4d05e1f484f6e,2021-07-29_22h42.46.263,Simcolourproject_2stim_asymm_v5,2020.2.10,MacIntel,60,61025ae37ef11b136ea224fe,,,,,,,,,1485,34,76,1,0,0,response1disk,,7,4,10,1,0,0,rectangle,4,10,1,0,0,4,10,1,0,0,1,91,251,147,1,,,,,,,,
,,,,,,,,,,,,,FF,,,,,,,,0.583,,,,,,,,,,,,,,,,,,,,,,60fdff6234e9b78c0d472d5b,610366ea73c4d05e1f484f6e,2021-07-29_22h42.46.263,Simcolourproject_2stim_asymm_v5,2020.2.10,MacIntel,60,61025ae37ef11b136ea224fe,,,,,,,,,2683,39,83,1,0,0,response1disk,,7,7,10,1,0,0,rectangle,7,10,1,0,0,7,10,1,0,0,1,92,252,25,1,,,,,,,,
,,,,,,,,,,,,,FF,,,,,,,,0.516,,,,,,,,,,,,,,,,,,,,,,60fdff6234e9b78c0d472d5b,610366ea73c4d05e1f484f6e,2021-07-29_22h42.46.263,Simcolourproject_2stim_asymm_v5,2020.2.10,MacIntel,60,61025ae37ef11b136ea224fe,,,,,,,,,2666,55,91,1,0,0,response1disk,,7,14,8,1,0,0,rectangle,14,8,1,0,0,14,8,1,0,0,1,93,253,91,1,,,,,,,,
,,,,,,,,,,,,,FF,,,,,,,,1.017,,,,,,,,,,,,,,,,,,,,,,60fdff6234e9b78c0d472d5b,610366ea73c4d05e1f484f6e,2021-07-29_22h42.46.263,Simcolourproject_2stim_asymm_v5,2020.2.10,MacIntel,60,61025ae37ef11b136ea224fe,,,,,,,,,3154,-47,-99,1,0,0,response5disk,,3,-1,11,1,0,0,rectangle,-1,11,1,0,0,-1,11,1,0,0,1,94,254,54,1,,,,,,,,
,,,,,,,,,,,,,FF,,,,,,,,1.15,,,,,,,,,,,,,,,,,,,,,,60fdff6234e9b78c0d472d5b,610366ea73c4d05e1f484f6e,2021-07-29_22h42.46.263,Simcolourproject_2stim_asymm_v5,2020.2.10,MacIntel,60,61025ae37ef11b136ea224fe,,,,,,,,,4150,48,-55,1,0,0,response3disk,,4,15,9,1,0,0,rectangle,15,9,1,0,0,15,9,1,0,0,1,95,255,53,1,,,,,,,,
,,,,,,,,,,,,,FF,,,,,,,,1.25,,,,,,,,,,,,,,,,,,,,,,60fdff6234e9b78c0d472d5b,610366ea73c4d05e1f484f6e,2021-07-29_22h42.46.263,Simcolourproject_2stim_asymm_v5,2020.2.10,MacIntel,60,61025ae37ef11b136ea224fe,,,,,,,,,1970,-52,-74,1,0,0,response5disk,,3,3,14,1,0,0,rectangle,3,14,1,0,0,3,14,1,0,0,1,96,256,82,1,,,,,,,,
,,,,,,,,,,,,,FF,,,,,,,,0.566,,,,,,,,,,,,,,,,,,,,,,60fdff6234e9b78c0d472d5b,610366ea73c4d05e1f484f6e,2021-07-29_22h42.46.263,Simcolourproject_2stim_asymm_v5,2020.2.10,MacIntel,60,61025ae37ef11b136ea224fe,,,,,,,,,293,37,77,1,0,0,response1disk,,7,18,8,1,0,0,rectangle,18,8,1,0,0,18,8,1,0,0,1,97,257,100,1,,,,,,,,
,,,,,,,,,,,,,FF,,,,,,,,0.4,,,,,,,,,,,,,,,,,,,,,,60fdff6234e9b78c0d472d5b,610366ea73c4d05e1f484f6e,2021-07-29_22h42.46.263,Simcolourproject_2stim_asymm_v5,2020.2.10,MacIntel,60,61025ae37ef11b136ea224fe,,,,,,,,,3064,38,87,1,0,0,response1disk,,7,3,-5,1,0,0,rectangle,-82,30,1,0,0,6,-5,1,0,0,1,98,258,117,1,,response7disk_3,TRUE,1,1,"[226,142,103,245,111,304,93,308,239,56,306,259,240,187,126,83,272,318,207,71]",1.499,rectangle
,,,,,,,,,,,,,FF,,,,,,,,1.166,,,,,,,,,,,,,,,,,,,,,,60fdff6234e9b78c0d472d5b,610366ea73c4d05e1f484f6e,2021-07-29_22h42.46.263,Simcolourproject_2stim_asymm_v5,2020.2.10,MacIntel,60,61025ae37ef11b136ea224fe,,,,,,,,,4000,92,-28,1,0,0,response3disk,,5,8,1,1,0,0,rectangle,8,1,1,0,0,8,1,1,0,0,1,99,259,126,1,,,,,,,,
,,,,,,,,,,,,,FF,,,,,,,,0.565,,,,,,,,,,,,,,,,,,,,,,60fdff6234e9b78c0d472d5b,610366ea73c4d05e1f484f6e,2021-07-29_22h42.46.263,Simcolourproject_2stim_asymm_v5,2020.2.10,MacIntel,60,61025ae37ef11b136ea224fe,,,,,,,,,4043,42,86,1,0,0,response1disk,,7,11,17,1,0,0,rectangle,11,17,1,0,0,11,17,1,0,0,1,100,260,142,1,,,,,,,,
,,,,,,,,,,,,,FF,,,,,,,,0.849,,,,,,,,,,,,,,,,,,,,,,60fdff6234e9b78c0d472d5b,610366ea73c4d05e1f484f6e,2021-07-29_22h42.46.263,Simcolourproject_2stim_asymm_v5,2020.2.10,MacIntel,60,61025ae37ef11b136ea224fe,,,,,,,,,1617,52,83,1,0,0,response1disk,,7,11,5,1,0,0,rectangle,11,5,1,0,0,11,5,1,0,0,1,101,261,17,1,,,,,,,,
,,,,,,,,,,,,,FF,,,,,,,,1.015,,,,,,,,,,,,,,,,,,,,,,60fdff6234e9b78c0d472d5b,610366ea73c4d05e1f484f6e,2021-07-29_22h42.46.263,Simcolourproject_2stim_asymm_v5,2020.2.10,MacIntel,60,61025ae37ef11b136ea224fe,,,,,,,,,3510,-93,-48,1,0,0,response5disk,,2,5,6,1,0,0,rectangle,5,6,1,0,0,5,6,1,0,0,1,102,262,59,1,,,,,,,,
,,,,,,,,,,,,,FF,,,,,,,,0.434,,,,,,,,,,,,,,,,,,,,,,60fdff6234e9b78c0d472d5b,610366ea73c4d05e1f484f6e,2021-07-29_22h42.46.263,Simcolourproject_2stim_asymm_v5,2020.2.10,MacIntel,60,61025ae37ef11b136ea224fe,,,,,,,,,1843,32,72,1,0,0,response1disk,,7,16,4,1,0,0,rectangle,16,4,1,0,0,16,4,1,0,0,1,103,263,72,1,,,,,,,,
,,,,,,,,,,,,,FF,,,,,,,,0.798,,,,,,,,,,,,,,,,,,,,,,60fdff6234e9b78c0d472d5b,610366ea73c4d05e1f484f6e,2021-07-29_22h42.46.263,Simcolourproject_2stim_asymm_v5,2020.2.10,MacIntel,60,61025ae37ef11b136ea224fe,,,,,,,,,2638,49,112,1,0,0,response1disk,,7,7,6,1,0,0,rectangle,7,6,1,0,0,7,6,1,0,0,1,104,264,44,1,,,,,,,,
,,,,,,,,,,,,,FF,,,,,,,,1.083,,,,,,,,,,,,,,,,,,,,,,60fdff6234e9b78c0d472d5b,610366ea73c4d05e1f484f6e,2021-07-29_22h42.46.263,Simcolourproject_2stim_asymm_v5,2020.2.10,MacIntel,60,61025ae37ef11b136ea224fe,,,,,,,,,1597,-77,55,1,0,0,response7disk,,1,18,-9,1,0,0,rectangle,18,-9,1,0,0,18,-9,1,0,0,1,105,265,8,1,,,,,,,,
,,,,,,,,,,,,,FF,,,,,,,,1.382,,,,,,,,,,,,,,,,,,,,,,60fdff6234e9b78c0d472d5b,610366ea73c4d05e1f484f6e,2021-07-29_22h42.46.263,Simcolourproject_2stim_asymm_v5,2020.2.10,MacIntel,60,61025ae37ef11b136ea224fe,,,,,,,,,4075,85,61,1,0,0,response1disk,,6,2,11,1,0,0,rectangle,2,11,1,0,0,2,11,1,0,0,1,106,266,14,1,,,,,,,,
,,,,,,,,,,,,,FF,,,,,,,,0.465,,,,,,,,,,,,,,,,,,,,,,60fdff6234e9b78c0d472d5b,610366ea73c4d05e1f484f6e,2021-07-29_22h42.46.263,Simcolourproject_2stim_asymm_v5,2020.2.10,MacIntel,60,61025ae37ef11b136ea224fe,,,,,,,,,1665,43,80,1,0,0,response1disk,,7,-1,0,1,0,0,rectangle,-1,0,1,0,0,-1,0,1,0,0,1,107,267,7,1,,,,,,,,
,,,,,,,,,,,,,FF,,,,,,,,0.583,,,,,,,,,,,,,,,,,,,,,,60fdff6234e9b78c0d472d5b,610366ea73c4d05e1f484f6e,2021-07-29_22h42.46.263,Simcolourproject_2stim_asymm_v5,2020.2.10,MacIntel,60,61025ae37ef11b136ea224fe,,,,,,,,,2088,51,91,1,0,0,response1disk,,7,5,2,1,0,0,rectangle,5,2,1,0,0,5,2,1,0,0,1,108,268,143,1,,,,,,,,
,,,,,,,,,,,,,FF,,,,,,,,0.566,,,,,,,,,,,,,,,,,,,,,,60fdff6234e9b78c0d472d5b,610366ea73c4d05e1f484f6e,2021-07-29_22h42.46.263,Simcolourproject_2stim_asymm_v5,2020.2.10,MacIntel,60,61025ae37ef11b136ea224fe,,,,,,,,,656,49,96,1,0,0,response1disk,,7,9,0,1,0,0,rectangle,9,0,1,0,0,9,0,1,0,0,1,109,269,37,1,,,,,,,,
,,,,,,,,,,,,,FF,,,,,,,,0.599,,,,,,,,,,,,,,,,,,,,,,60fdff6234e9b78c0d472d5b,610366ea73c4d05e1f484f6e,2021-07-29_22h42.46.263,Simcolourproject_2stim_asymm_v5,2020.2.10,MacIntel,60,61025ae37ef11b136ea224fe,,,,,,,,,2502,49,84,1,0,0,response1disk,,7,11,5,1,0,0,rectangle,11,5,1,0,0,11,5,1,0,0,1,110,270,18,1,,,,,,,,
,,,,,,,,,,,,,FF,,,,,,,,0.883,,,,,,,,,,,,,,,,,,,,,,60fdff6234e9b78c0d472d5b,610366ea73c4d05e1f484f6e,2021-07-29_22h42.46.263,Simcolourproject_2stim_asymm_v5,2020.2.10,MacIntel,60,61025ae37ef11b136ea224fe,,,,,,,,,643,36,91,1,0,0,response1disk,,7,12,4,1,0,0,rectangle,-102,-48,1,0,0,-12,-7,1,0,0,1,111,271,11,1,,response5disk_3,TRUE,2,2,"[226,142,103,245,111,304,93,308,239,56,306,259,240,187,126,83,272,318,207,71]",1.765,rectangle
,,,,,,,,,,,,,FF,,,,,,,,0.683,,,,,,,,,,,,,,,,,,,,,,60fdff6234e9b78c0d472d5b,610366ea73c4d05e1f484f6e,2021-07-29_22h42.46.263,Simcolourproject_2stim_asymm_v5,2020.2.10,MacIntel,60,61025ae37ef11b136ea224fe,,,,,,,,,1952,32,66,1,0,0,response1disk,,7,-7,-6,1,0,0,rectangle,-7,-6,1,0,0,-7,-6,1,0,0,1,112,272,105,1,,,,,,,,
,,,,,,,,,,,,,FF,,,,,,,,0.5,,,,,,,,,,,,,,,,,,,,,,60fdff6234e9b78c0d472d5b,610366ea73c4d05e1f484f6e,2021-07-29_22h42.46.263,Simcolourproject_2stim_asymm_v5,2020.2.10,MacIntel,60,61025ae37ef11b136ea224fe,,,,,,,,,2084,51,90,1,0,0,response1disk,,7,2,-8,1,0,0,rectangle,2,-8,1,0,0,2,-8,1,0,0,1,113,273,68,1,,,,,,,,
,,,,,,,,,,,,,FF,,,,,,,,0.433,,,,,,,,,,,,,,,,,,,,,,60fdff6234e9b78c0d472d5b,610366ea73c4d05e1f484f6e,2021-07-29_22h42.46.263,Simcolourproject_2stim_asymm_v5,2020.2.10,MacIntel,60,61025ae37ef11b136ea224fe,,,,,,,,,2586,46,86,1,0,0,response1disk,,7,27,14,1,0,0,rectangle,27,14,1,0,0,27,14,1,0,0,1,114,274,94,1,,,,,,,,
,,,,,,,,,,,,,FF,,,,,,,,0.484,,,,,,,,,,,,,,,,,,,,,,60fdff6234e9b78c0d472d5b,610366ea73c4d05e1f484f6e,2021-07-29_22h42.46.263,Simcolourproject_2stim_asymm_v5,2020.2.10,MacIntel,60,61025ae37ef11b136ea224fe,,,,,,,,,2742,50,91,1,0,0,response1disk,,7,21,13,1,0,0,rectangle,21,13,1,0,0,21,13,1,0,0,1,115,275,40,1,,,,,,,,
,,,,,,,,,,,,,FF,,,,,,,,0.566,,,,,,,,,,,,,,,,,,,,,,60fdff6234e9b78c0d472d5b,610366ea73c4d05e1f484f6e,2021-07-29_22h42.46.263,Simcolourproject_2stim_asymm_v5,2020.2.10,MacIntel,60,61025ae37ef11b136ea224fe,,,,,,,,,2880,48,74,1,0,0,response1disk,,7,13,-4,1,0,0,rectangle,13,-4,1,0,0,13,-4,1,0,0,1,116,276,128,1,,,,,,,,
,,,,,,,,,,,,,FF,,,,,,,,0.45,,,,,,,,,,,,,,,,,,,,,,60fdff6234e9b78c0d472d5b,610366ea73c4d05e1f484f6e,2021-07-29_22h42.46.263,Simcolourproject_2stim_asymm_v5,2020.2.10,MacIntel,60,61025ae37ef11b136ea224fe,,,,,,,,,2373,48,87,1,0,0,response1disk,,7,12,-8,1,0,0,rectangle,12,-8,1,0,0,12,-8,1,0,0,1,117,277,130,1,,,,,,,,
,,,,,,,,,,,,,FF,,,,,,,,0.666,,,,,,,,,,,,,,,,,,,,,,60fdff6234e9b78c0d472d5b,610366ea73c4d05e1f484f6e,2021-07-29_22h42.46.263,Simcolourproject_2stim_asymm_v5,2020.2.10,MacIntel,60,61025ae37ef11b136ea224fe,,,,,,,,,1992,39,77,1,0,0,response1disk,,7,15,17,1,0,0,rectangle,15,17,1,0,0,15,17,1,0,0,1,118,278,74,1,,,,,,,,
,,,,,,,,,,,,,FF,,,,,,,,0.783,,,,,,,,,,,,,,,,,,,,,,60fdff6234e9b78c0d472d5b,610366ea73c4d05e1f484f6e,2021-07-29_22h42.46.263,Simcolourproject_2stim_asymm_v5,2020.2.10,MacIntel,60,61025ae37ef11b136ea224fe,,,,,,,,,1131,-28,73,1,0,0,response7disk,,0,-10,10,1,0,0,rectangle,-10,10,1,0,0,-10,10,1,0,0,1,119,279,135,1,,,,,,,,
,,,,,,,,,,,,,FF,,,,,,,,0.832,,,,,,,,,,,,,,,,,,,,,,60fdff6234e9b78c0d472d5b,610366ea73c4d05e1f484f6e,2021-07-29_22h42.46.263,Simcolourproject_2stim_asymm_v5,2020.2.10,MacIntel,60,61025ae37ef11b136ea224fe,,,,,,,,,1793,34,97,1,0,0,response1disk,,7,11,12,1,0,0,rectangle,11,12,1,0,0,11,12,1,0,0,1,120,280,57,1,,,,,,,,
,,,,,,,,,,,,,FF,,,,,,,,0.616,,,,,,,,,,,,,,,,,,,,,,60fdff6234e9b78c0d472d5b,610366ea73c4d05e1f484f6e,2021-07-29_22h42.46.263,Simcolourproject_2stim_asymm_v5,2020.2.10,MacIntel,60,61025ae37ef11b136ea224fe,,,,,,,,,2206,48,83,1,0,0,response1disk,,7,22,-1,1,0,0,rectangle,22,-1,1,0,0,22,-1,1,0,0,1,121,281,84,1,,,,,,,,
,,,,,,,,,,,,,FF,,,,,,,,1.1,,,,,,,,,,,,,,,,,,,,,,60fdff6234e9b78c0d472d5b,610366ea73c4d05e1f484f6e,2021-07-29_22h42.46.263,Simcolourproject_2stim_asymm_v5,2020.2.10,MacIntel,60,61025ae37ef11b136ea224fe,,,,,,,,,1523,-59,37,1,0,0,response7disk,,1,7,7,1,0,0,rectangle,7,7,1,0,0,7,7,1,0,0,1,122,282,38,1,,,,,,,,
,,,,,,,,,,,,,FF,,,,,,,,1.516,,,,,,,,,,,,,,,,,,,,,,60fdff6234e9b78c0d472d5b,610366ea73c4d05e1f484f6e,2021-07-29_22h42.46.263,Simcolourproject_2stim_asymm_v5,2020.2.10,MacIntel,60,61025ae37ef11b136ea224fe,,,,,,,,,2671,36,66,1,0,0,response1disk,,7,16,6,1,0,0,rectangle,16,6,1,0,0,16,6,1,0,0,1,123,283,115,1,,,,,,,,
,,,,,,,,,,,,,FF,,,,,,,,1.217,,,,,,,,,,,,,,,,,,,,,,60fdff6234e9b78c0d472d5b,610366ea73c4d05e1f484f6e,2021-07-29_22h42.46.263,Simcolourproject_2stim_asymm_v5,2020.2.10,MacIntel,60,61025ae37ef11b136ea224fe,,,,,,,,,1055,-81,-44,1,0,0,response5disk,,2,-12,-11,1,0,0,rectangle,-12,-11,1,0,0,-12,-11,1,0,0,1,124,284,19,1,,,,,,,,
,,,,,,,,,,,,,FF,,,,,,,,0.615,,,,,,,,,,,,,,,,,,,,,,60fdff6234e9b78c0d472d5b,610366ea73c4d05e1f484f6e,2021-07-29_22h42.46.263,Simcolourproject_2stim_asymm_v5,2020.2.10,MacIntel,60,61025ae37ef11b136ea224fe,,,,,,,,,793,36,86,1,0,0,response1disk,,7,19,14,1,0,0,rectangle,19,14,1,0,0,19,14,1,0,0,1,125,285,2,1,,,,,,,,
,,,,,,,,,,,,,FF,,,,,,,,1.067,,,,,,,,,,,,,,,,,,,,,,60fdff6234e9b78c0d472d5b,610366ea73c4d05e1f484f6e,2021-07-29_22h42.46.263,Simcolourproject_2stim_asymm_v5,2020.2.10,MacIntel,60,61025ae37ef11b136ea224fe,,,,,,,,,871,68,33,1,0,0,response1disk,,6,-3,8,1,0,0,rectangle,-3,8,1,0,0,-3,8,1,0,0,1,126,286,31,1,,,,,,,,
,,,,,,,,,,,,,FF,,,,,,,,0.615,,,,,,,,,,,,,,,,,,,,,,60fdff6234e9b78c0d472d5b,610366ea73c4d05e1f484f6e,2021-07-29_22h42.46.263,Simcolourproject_2stim_asymm_v5,2020.2.10,MacIntel,60,61025ae37ef11b136ea224fe,,,,,,,,,388,39,77,1,0,0,response1disk,,7,0,-4,1,0,0,rectangle,0,-4,1,0,0,0,-4,1,0,0,1,127,287,106,1,,,,,,,,
,,,,,,,,,,,,,FF,,,,,,,,0.765,,,,,,,,,,,,,,,,,,,,,,60fdff6234e9b78c0d472d5b,610366ea73c4d05e1f484f6e,2021-07-29_22h42.46.263,Simcolourproject_2stim_asymm_v5,2020.2.10,MacIntel,60,61025ae37ef11b136ea224fe,,,,,,,,,1311,31,58,1,0,0,response1disk,,7,14,14,1,0,0,rectangle,14,14,1,0,0,14,14,1,0,0,1,128,288,150,1,,,,,,,,
,,,,,,,,,,,,,FF,,,,,,,,0.4,,,,,,,,,,,,,,,,,,,,,,60fdff6234e9b78c0d472d5b,610366ea73c4d05e1f484f6e,2021-07-29_22h42.46.263,Simcolourproject_2stim_asymm_v5,2020.2.10,MacIntel,60,61025ae37ef11b136ea224fe,,,,,,,,,1265,37,70,1,0,0,response1disk,,7,2,5,1,0,0,rectangle,2,5,1,0,0,2,5,1,0,0,1,129,289,152,1,,,,,,,,
,,,,,,,,,,,,,FF,,,,,,,,0.382,,,,,,,,,,,,,,,,,,,,,,60fdff6234e9b78c0d472d5b,610366ea73c4d05e1f484f6e,2021-07-29_22h42.46.263,Simcolourproject_2stim_asymm_v5,2020.2.10,MacIntel,60,61025ae37ef11b136ea224fe,,,,,,,,,1477,31,78,1,0,0,response1disk,,7,5,1,1,0,0,rectangle,5,1,1,0,0,5,1,1,0,0,1,130,290,65,1,,,,,,,,
,,,,,,,,,,,,,FF,,,,,,,,0.45,,,,,,,,,,,,,,,,,,,,,,60fdff6234e9b78c0d472d5b,610366ea73c4d05e1f484f6e,2021-07-29_22h42.46.263,Simcolourproject_2stim_asymm_v5,2020.2.10,MacIntel,60,61025ae37ef11b136ea224fe,,,,,,,,,4191,33,52,1,0,0,response1disk,,7,6,-8,1,0,0,rectangle,6,-8,1,0,0,6,-8,1,0,0,1,131,291,122,1,,,,,,,,
,,,,,,,,,,,,,FF,,,,,,,,0.436,,,,,,,,,,,,,,,,,,,,,,60fdff6234e9b78c0d472d5b,610366ea73c4d05e1f484f6e,2021-07-29_22h42.46.263,Simcolourproject_2stim_asymm_v5,2020.2.10,MacIntel,60,61025ae37ef11b136ea224fe,,,,,,,,,1480,33,53,1,0,0,response1disk,,7,20,11,1,0,0,rectangle,20,11,1,0,0,20,11,1,0,0,1,132,292,113,1,,,,,,,,
,,,,,,,,,,,,,FF,,,,,,,,0.483,,,,,,,,,,,,,,,,,,,,,,60fdff6234e9b78c0d472d5b,610366ea73c4d05e1f484f6e,2021-07-29_22h42.46.263,Simcolourproject_2stim_asymm_v5,2020.2.10,MacIntel,60,61025ae37ef11b136ea224fe,,,,,,,,,4209,43,70,1,0,0,response1disk,,7,6,8,1,0,0,rectangle,6,8,1,0,0,6,8,1,0,0,1,133,293,45,1,,,,,,,,
,,,,,,,,,,,,,FF,,,,,,,,0.367,,,,,,,,,,,,,,,,,,,,,,60fdff6234e9b78c0d472d5b,610366ea73c4d05e1f484f6e,2021-07-29_22h42.46.263,Simcolourproject_2stim_asymm_v5,2020.2.10,MacIntel,60,61025ae37ef11b136ea224fe,,,,,,,,,3278,27,66,1,0,0,response1disk,,7,9,1,1,0,0,rectangle,9,1,1,0,0,9,1,1,0,0,1,134,294,39,1,,,,,,,,
,,,,,,,,,,,,,FF,,,,,,,,0.55,,,,,,,,,,,,,,,,,,,,,,60fdff6234e9b78c0d472d5b,610366ea73c4d05e1f484f6e,2021-07-29_22h42.46.263,Simcolourproject_2stim_asymm_v5,2020.2.10,MacIntel,60,61025ae37ef11b136ea224fe,,,,,,,,,1779,55,73,1,0,0,response1disk,,7,16,12,1,0,0,rectangle,16,12,1,0,0,16,12,1,0,0,1,135,295,61,1,,,,,,,,
,,,,,,,,,,,,,FF,,,,,,,,5.483,,,,,,,,,,,,,,,,,,,,,,60fdff6234e9b78c0d472d5b,610366ea73c4d05e1f484f6e,2021-07-29_22h42.46.263,Simcolourproject_2stim_asymm_v5,2020.2.10,MacIntel,60,61025ae37ef11b136ea224fe,,,,,,,,,749,30,70,1,0,0,response1disk,,7,-3,2,1,0,0,rectangle,-3,2,1,0,0,-3,2,1,0,0,1,136,296,12,1,,,,,,,,
,,,,,,,,,,,,,FF,,,,,,,,0.934,,,,,,,,,,,,,,,,,,,,,,60fdff6234e9b78c0d472d5b,610366ea73c4d05e1f484f6e,2021-07-29_22h42.46.263,Simcolourproject_2stim_asymm_v5,2020.2.10,MacIntel,60,61025ae37ef11b136ea224fe,,,,,,,,,1027,42,89,1,0,0,response1disk,,7,11,-3,1,0,0,rectangle,11,-3,1,0,0,11,-3,1,0,0,1,137,297,49,1,,,,,,,,
,,,,,,,,,,,,,FF,,,,,,,,0.516,,,,,,,,,,,,,,,,,,,,,,60fdff6234e9b78c0d472d5b,610366ea73c4d05e1f484f6e,2021-07-29_22h42.46.263,Simcolourproject_2stim_asymm_v5,2020.2.10,MacIntel,60,61025ae37ef11b136ea224fe,,,,,,,,,2012,41,68,1,0,0,response1disk,,7,16,16,1,0,0,rectangle,16,16,1,0,0,16,16,1,0,0,1,138,298,103,1,,,,,,,,
,,,,,,,,,,,,,FF,,,,,,,,0.833,,,,,,,,,,,,,,,,,,,,,,60fdff6234e9b78c0d472d5b,610366ea73c4d05e1f484f6e,2021-07-29_22h42.46.263,Simcolourproject_2stim_asymm_v5,2020.2.10,MacIntel,60,61025ae37ef11b136ea224fe,,,,,,,,,1830,87,35,1,0,0,response1disk,,6,16,10,1,0,0,rectangle,16,10,1,0,0,16,10,1,0,0,1,139,299,1,1,,,,,,,,
,,,,,,,,,,,,,FF,,,,,,,,0.633,,,,,,,,,,,,,,,,,,,,,,60fdff6234e9b78c0d472d5b,610366ea73c4d05e1f484f6e,2021-07-29_22h42.46.263,Simcolourproject_2stim_asymm_v5,2020.2.10,MacIntel,60,61025ae37ef11b136ea224fe,,,,,,,,,937,44,75,1,0,0,response1disk,,7,12,-3,1,0,0,rectangle,12,-3,1,0,0,12,-3,1,0,0,1,140,300,81,1,,,,,,,,
,,,,,,,,,,,,,FF,,,,,,,,0.667,,,,,,,,,,,,,,,,,,,,,,60fdff6234e9b78c0d472d5b,610366ea73c4d05e1f484f6e,2021-07-29_22h42.46.263,Simcolourproject_2stim_asymm_v5,2020.2.10,MacIntel,60,61025ae37ef11b136ea224fe,,,,,,,,,476,42,77,1,0,0,response1disk,,7,12,11,1,0,0,rectangle,12,11,1,0,0,12,11,1,0,0,1,141,301,10,1,,,,,,,,
,,,,,,,,,,,,,FF,,,,,,,,0.967,,,,,,,,,,,,,,,,,,,,,,60fdff6234e9b78c0d472d5b,610366ea73c4d05e1f484f6e,2021-07-29_22h42.46.263,Simcolourproject_2stim_asymm_v5,2020.2.10,MacIntel,60,61025ae37ef11b136ea224fe,,,,,,,,,201,38,65,1,0,0,response1disk,,7,23,1,1,0,0,rectangle,23,1,1,0,0,23,1,1,0,0,1,142,302,5,1,,,,,,,,
