key_resp.keys,key_resp.rt,key_resp_14.keys,key_resp_14.rt,key_resp_15.keys,key_resp_15.rt,key_resp_17.keys,key_resp_17.rt,key_resp_9.keys,key_resp_9.rt,key_resp_10.keys,key_resp_10.rt,practice_comparison,Ecc,mouse_5.x,mouse_5.y,mouse_5.leftButton,mouse_5.midButton,mouse_5.rightButton,mouse_5.clicked_name,pracsimilarity,response_time,mouse_10.x,mouse_10.y,mouse_10.leftButton,mouse_10.midButton,mouse_10.rightButton,mouse_10.clicked_name,mouse_7.x,mouse_7.y,mouse_7.leftButton,mouse_7.midButton,mouse_7.rightButton,mouse_6.x,mouse_6.y,mouse_6.leftButton,mouse_6.midButton,mouse_6.rightButton,duringprac.thisRepN,duringprac.thisTrialN,duringprac.thisN,duringprac.thisIndex,duringprac.ran,participant,session,date,expName,psychopyVersion,OS,frameRate,study_id,mouse_7.clicked_name,catchpracsimilarity,catch_response_time,catchnumberprac,catchtrialorderprac,mouse_6.clicked_name,key_resp_22.keys,key_resp_22.rt,realcomparison,mouse.x,mouse.y,mouse.leftButton,mouse.midButton,mouse.rightButton,mouse.clicked_name,Colour2,similarity,mouse_2.x,mouse_2.y,mouse_2.leftButton,mouse_2.midButton,mouse_2.rightButton,mouse_2.clicked_name,mouse_3.x,mouse_3.y,mouse_3.leftButton,mouse_3.midButton,mouse_3.rightButton,mouse_11.x,mouse_11.y,mouse_11.leftButton,mouse_11.midButton,mouse_11.rightButton,trials_2.thisRepN,trials_2.thisTrialN,trials_2.thisN,trials_2.thisIndex,trials_2.ran,Colour1,mouse_3.clicked_name,catchornah,catchsimilarity,catchnumber,catchtrialorder,catchRT,mouse_11.clicked_name
space,1.17,space,3.636,space,24.785,space,2.913,space,0.681,space,3.533,155,PF,-55,-56,1,0,0,response5disk_5,3,16.877,28,-7,1,0,0,rectangle_8,28,-7,1,0,0,28,-7,1,0,0,0,0,0,2,1,60fdd2cafe684291d330f316,610369ad2ef4c8c2e0f41258,2021-07-29_22h54.37.263,Simcolourproject_2stim_asymm_v5,2020.2.10,MacIntel,60,61025ae37ef11b136ea224fe,,,,,,,,,,,,,,,,,,,,,,,,,,,,,,,,,,,,,,,,,,,,,,
,,,,,,,,,,,,35,FF,46,85,1,0,0,response1disk_5,7,2.672,7,-1,1,0,0,rectangle_8,-31,80,1,0,0,7,-8,1,0,0,0,1,1,3,1,60fdd2cafe684291d330f316,610369ad2ef4c8c2e0f41258,2021-07-29_22h54.37.263,Simcolourproject_2stim_asymm_v5,2020.2.10,MacIntel,60,61025ae37ef11b136ea224fe,response7disk_7,0,3.702,0,"[2,5]",rectangle_4,,,,,,,,,,,,,,,,,,,,,,,,,,,,,,,,,,,,,,,,
,,,,,,,,,,,,97,FF,88,35,1,0,0,response1disk_5,6,4.272,1,0,1,0,0,rectangle_8,1,0,1,0,0,1,0,1,0,0,0,2,2,0,1,60fdd2cafe684291d330f316,610369ad2ef4c8c2e0f41258,2021-07-29_22h54.37.263,Simcolourproject_2stim_asymm_v5,2020.2.10,MacIntel,60,61025ae37ef11b136ea224fe,,,,,,,,,,,,,,,,,,,,,,,,,,,,,,,,,,,,,,,,,,,,,,
,,,,,,,,,,,,112,PF,100,53,1,0,0,response1disk_5,6,2.424,23,-8,1,0,0,rectangle_8,23,-8,1,0,0,23,-8,1,0,0,0,3,3,6,1,60fdd2cafe684291d330f316,610369ad2ef4c8c2e0f41258,2021-07-29_22h54.37.263,Simcolourproject_2stim_asymm_v5,2020.2.10,MacIntel,60,61025ae37ef11b136ea224fe,,,,,,,,,,,,,,,,,,,,,,,,,,,,,,,,,,,,,,,,,,,,,,
,,,,,,,,,,,,66,PF,-70,-38,1,0,0,response5disk_5,2,4.489,1,-2,1,0,0,rectangle_8,-49,67,1,0,0,-9,1,1,0,0,0,4,4,4,1,60fdd2cafe684291d330f316,610369ad2ef4c8c2e0f41258,2021-07-29_22h54.37.263,Simcolourproject_2stim_asymm_v5,2020.2.10,MacIntel,60,61025ae37ef11b136ea224fe,response7disk_7,0,3.395,0,"[2,5]",rectangle_4,,,,,,,,,,,,,,,,,,,,,,,,,,,,,,,,,,,,,,,,
,,,,,,,,,,,,31,FF,87,29,1,0,0,response1disk_5,6,2.546,20,6,1,0,0,rectangle_8,20,6,1,0,0,20,6,1,0,0,0,5,5,5,1,60fdd2cafe684291d330f316,610369ad2ef4c8c2e0f41258,2021-07-29_22h54.37.263,Simcolourproject_2stim_asymm_v5,2020.2.10,MacIntel,60,61025ae37ef11b136ea224fe,,,,,,,,,,,,,,,,,,,,,,,,,,,,,,,,,,,,,,,,,,,,,,
,,,,,,,,,,,,110,PF,94,43,1,0,0,response1disk_5,6,2.186,9,3,1,0,0,rectangle_8,9,3,1,0,0,9,3,1,0,0,0,6,6,1,1,60fdd2cafe684291d330f316,610369ad2ef4c8c2e0f41258,2021-07-29_22h54.37.263,Simcolourproject_2stim_asymm_v5,2020.2.10,MacIntel,60,61025ae37ef11b136ea224fe,,,,,,,,,,,,,,,,,,,,,,,,,,,,,,,,,,,,,,,,,,,,,,
,,,,,,,,,,,,,FF,,,,,,,,2.684,,,,,,,,,,,,,,,,,,,,,,60fdd2cafe684291d330f316,610369ad2ef4c8c2e0f41258,2021-07-29_22h54.37.263,Simcolourproject_2stim_asymm_v5,2020.2.10,MacIntel,60,61025ae37ef11b136ea224fe,,,,,,,space,2.56,1458,-61,-33,1,0,0,response5disk,,2,6,-3,1,0,0,rectangle,6,-3,1,0,0,6,-3,1,0,0,0,0,0,76,1,,,,,,,,
,,,,,,,,,,,,,FF,,,,,,,,2.544,,,,,,,,,,,,,,,,,,,,,,60fdd2cafe684291d330f316,610369ad2ef4c8c2e0f41258,2021-07-29_22h54.37.263,Simcolourproject_2stim_asymm_v5,2020.2.10,MacIntel,60,61025ae37ef11b136ea224fe,,,,,,,,,2653,-39,-78,1,0,0,response5disk,,3,-8,-12,1,0,0,rectangle,-8,-12,1,0,0,-8,-12,1,0,0,0,1,1,26,1,,,,,,,,
,,,,,,,,,,,,,FF,,,,,,,,1.309,,,,,,,,,,,,,,,,,,,,,,60fdd2cafe684291d330f316,610369ad2ef4c8c2e0f41258,2021-07-29_22h54.37.263,Simcolourproject_2stim_asymm_v5,2020.2.10,MacIntel,60,61025ae37ef11b136ea224fe,,,,,,,,,3944,-45,-78,1,0,0,response5disk,,3,-1,-11,1,0,0,rectangle,-1,-11,1,0,0,-1,-11,1,0,0,0,2,2,133,1,,,,,,,,
,,,,,,,,,,,,,FF,,,,,,,,1.973,,,,,,,,,,,,,,,,,,,,,,60fdd2cafe684291d330f316,610369ad2ef4c8c2e0f41258,2021-07-29_22h54.37.263,Simcolourproject_2stim_asymm_v5,2020.2.10,MacIntel,60,61025ae37ef11b136ea224fe,,,,,,,,,3916,41,-54,1,0,0,response3disk,,4,14,-8,1,0,0,rectangle,14,-8,1,0,0,14,-8,1,0,0,0,3,3,21,1,,,,,,,,
,,,,,,,,,,,,,FF,,,,,,,,2.722,,,,,,,,,,,,,,,,,,,,,,60fdd2cafe684291d330f316,610369ad2ef4c8c2e0f41258,2021-07-29_22h54.37.263,Simcolourproject_2stim_asymm_v5,2020.2.10,MacIntel,60,61025ae37ef11b136ea224fe,,,,,,,,,2026,-104,-54,1,0,0,response5disk,,2,9,-10,1,0,0,rectangle,9,-10,1,0,0,9,-10,1,0,0,0,4,4,147,1,,,,,,,,
,,,,,,,,,,,,,FF,,,,,,,,1.778,,,,,,,,,,,,,,,,,,,,,,60fdd2cafe684291d330f316,610369ad2ef4c8c2e0f41258,2021-07-29_22h54.37.263,Simcolourproject_2stim_asymm_v5,2020.2.10,MacIntel,60,61025ae37ef11b136ea224fe,,,,,,,,,4357,-70,-36,1,0,0,response5disk,,2,21,-1,1,0,0,rectangle,21,-1,1,0,0,21,-1,1,0,0,0,5,5,72,1,,,,,,,,
,,,,,,,,,,,,,FF,,,,,,,,1.31,,,,,,,,,,,,,,,,,,,,,,60fdd2cafe684291d330f316,610369ad2ef4c8c2e0f41258,2021-07-29_22h54.37.263,Simcolourproject_2stim_asymm_v5,2020.2.10,MacIntel,60,61025ae37ef11b136ea224fe,,,,,,,,,916,48,-68,1,0,0,response3disk,,4,30,-6,1,0,0,rectangle,30,-6,1,0,0,30,-6,1,0,0,0,6,6,140,1,,,,,,,,
,,,,,,,,,,,,,FF,,,,,,,,1.264,,,,,,,,,,,,,,,,,,,,,,60fdd2cafe684291d330f316,610369ad2ef4c8c2e0f41258,2021-07-29_22h54.37.263,Simcolourproject_2stim_asymm_v5,2020.2.10,MacIntel,60,61025ae37ef11b136ea224fe,,,,,,,,,3584,-33,-68,1,0,0,response5disk,,3,11,-10,1,0,0,rectangle,11,-10,1,0,0,11,-10,1,0,0,0,7,7,91,1,,,,,,,,
,,,,,,,,,,,,,FF,,,,,,,,1.409,,,,,,,,,,,,,,,,,,,,,,60fdd2cafe684291d330f316,610369ad2ef4c8c2e0f41258,2021-07-29_22h54.37.263,Simcolourproject_2stim_asymm_v5,2020.2.10,MacIntel,60,61025ae37ef11b136ea224fe,,,,,,,,,3358,86,62,1,0,0,response1disk,,6,6,1,1,0,0,rectangle,6,1,1,0,0,6,1,1,0,0,0,8,8,78,1,,,,,,,,
,,,,,,,,,,,,,FF,,,,,,,,1.18,,,,,,,,,,,,,,,,,,,,,,60fdd2cafe684291d330f316,610369ad2ef4c8c2e0f41258,2021-07-29_22h54.37.263,Simcolourproject_2stim_asymm_v5,2020.2.10,MacIntel,60,61025ae37ef11b136ea224fe,,,,,,,,,20,96,39,1,0,0,response1disk,,6,15,4,1,0,0,rectangle,15,4,1,0,0,15,4,1,0,0,0,9,9,70,1,,,,,,,,
,,,,,,,,,,,,,FF,,,,,,,,1.241,,,,,,,,,,,,,,,,,,,,,,60fdd2cafe684291d330f316,610369ad2ef4c8c2e0f41258,2021-07-29_22h54.37.263,Simcolourproject_2stim_asymm_v5,2020.2.10,MacIntel,60,61025ae37ef11b136ea224fe,,,,,,,,,628,72,46,1,0,0,response1disk,,6,5,8,1,0,0,rectangle,5,8,1,0,0,5,8,1,0,0,0,10,10,8,1,,,,,,,,
,,,,,,,,,,,,,FF,,,,,,,,1.248,,,,,,,,,,,,,,,,,,,,,,60fdd2cafe684291d330f316,610369ad2ef4c8c2e0f41258,2021-07-29_22h54.37.263,Simcolourproject_2stim_asymm_v5,2020.2.10,MacIntel,60,61025ae37ef11b136ea224fe,,,,,,,,,3666,33,-69,1,0,0,response3disk,,4,14,-8,1,0,0,rectangle,14,-8,1,0,0,14,-8,1,0,0,0,11,11,152,1,,,,,,,,
,,,,,,,,,,,,,FF,,,,,,,,1.619,,,,,,,,,,,,,,,,,,,,,,60fdd2cafe684291d330f316,610369ad2ef4c8c2e0f41258,2021-07-29_22h54.37.263,Simcolourproject_2stim_asymm_v5,2020.2.10,MacIntel,60,61025ae37ef11b136ea224fe,,,,,,,,,1114,59,87,1,0,0,response1disk,,7,10,6,1,0,0,rectangle,10,6,1,0,0,10,6,1,0,0,0,12,12,101,1,,,,,,,,
,,,,,,,,,,,,,FF,,,,,,,,1.055,,,,,,,,,,,,,,,,,,,,,,60fdd2cafe684291d330f316,610369ad2ef4c8c2e0f41258,2021-07-29_22h54.37.263,Simcolourproject_2stim_asymm_v5,2020.2.10,MacIntel,60,61025ae37ef11b136ea224fe,,,,,,,,,694,57,78,1,0,0,response1disk,,7,11,4,1,0,0,rectangle,11,4,1,0,0,11,4,1,0,0,0,13,13,69,1,,,,,,,,
,,,,,,,,,,,,,FF,,,,,,,,1.354,,,,,,,,,,,,,,,,,,,,,,60fdd2cafe684291d330f316,610369ad2ef4c8c2e0f41258,2021-07-29_22h54.37.263,Simcolourproject_2stim_asymm_v5,2020.2.10,MacIntel,60,61025ae37ef11b136ea224fe,,,,,,,,,1297,50,-73,1,0,0,response3disk,,4,28,-2,1,0,0,rectangle,28,-2,1,0,0,28,-2,1,0,0,0,14,14,16,1,,,,,,,,
,,,,,,,,,,,,,FF,,,,,,,,2.762,,,,,,,,,,,,,,,,,,,,,,60fdd2cafe684291d330f316,610369ad2ef4c8c2e0f41258,2021-07-29_22h54.37.263,Simcolourproject_2stim_asymm_v5,2020.2.10,MacIntel,60,61025ae37ef11b136ea224fe,,,,,,,,,1182,77,-31,1,0,0,response3disk,,5,21,-6,1,0,0,rectangle,21,-6,1,0,0,21,-6,1,0,0,0,15,15,156,1,,,,,,,,
,,,,,,,,,,,,,FF,,,,,,,,1.839,,,,,,,,,,,,,,,,,,,,,,60fdd2cafe684291d330f316,610369ad2ef4c8c2e0f41258,2021-07-29_22h54.37.263,Simcolourproject_2stim_asymm_v5,2020.2.10,MacIntel,60,61025ae37ef11b136ea224fe,,,,,,,,,1512,71,-31,1,0,0,response3disk,,5,12,3,1,0,0,rectangle,12,3,1,0,0,12,3,1,0,0,0,16,16,31,1,,,,,,,,
,,,,,,,,,,,,,FF,,,,,,,,1.197,,,,,,,,,,,,,,,,,,,,,,60fdd2cafe684291d330f316,610369ad2ef4c8c2e0f41258,2021-07-29_22h54.37.263,Simcolourproject_2stim_asymm_v5,2020.2.10,MacIntel,60,61025ae37ef11b136ea224fe,,,,,,,,,2250,54,-33,1,0,0,response3disk,,5,13,-6,1,0,0,rectangle,13,-6,1,0,0,13,-6,1,0,0,0,17,17,37,1,,,,,,,,
,,,,,,,,,,,,,FF,,,,,,,,1.219,,,,,,,,,,,,,,,,,,,,,,60fdd2cafe684291d330f316,610369ad2ef4c8c2e0f41258,2021-07-29_22h54.37.263,Simcolourproject_2stim_asymm_v5,2020.2.10,MacIntel,60,61025ae37ef11b136ea224fe,,,,,,,,,2298,-42,-54,1,0,0,response5disk,,3,15,-2,1,0,0,rectangle,15,-2,1,0,0,15,-2,1,0,0,0,18,18,80,1,,,,,,,,
,,,,,,,,,,,,,FF,,,,,,,,0.932,,,,,,,,,,,,,,,,,,,,,,60fdd2cafe684291d330f316,610369ad2ef4c8c2e0f41258,2021-07-29_22h54.37.263,Simcolourproject_2stim_asymm_v5,2020.2.10,MacIntel,60,61025ae37ef11b136ea224fe,,,,,,,,,3747,-27,-46,1,0,0,response5disk,,3,-4,-16,1,0,0,rectangle,-39,76,1,0,0,-14,6,1,0,0,0,19,19,17,1,,response7disk_3,TRUE,0,0,"[177,83,95,86,207,126,76,20,240,276,34,302,67,92,103,76,147,158,224,149]",2.123,rectangle
,,,,,,,,,,,,,FF,,,,,,,,1.16,,,,,,,,,,,,,,,,,,,,,,60fdd2cafe684291d330f316,610369ad2ef4c8c2e0f41258,2021-07-29_22h54.37.263,Simcolourproject_2stim_asymm_v5,2020.2.10,MacIntel,60,61025ae37ef11b136ea224fe,,,,,,,,,3506,-47,-53,1,0,0,response5disk,,3,-12,-6,1,0,0,rectangle,-12,-6,1,0,0,-12,-6,1,0,0,0,20,20,115,1,,,,,,,,
,,,,,,,,,,,,,FF,,,,,,,,1.159,,,,,,,,,,,,,,,,,,,,,,60fdd2cafe684291d330f316,610369ad2ef4c8c2e0f41258,2021-07-29_22h54.37.263,Simcolourproject_2stim_asymm_v5,2020.2.10,MacIntel,60,61025ae37ef11b136ea224fe,,,,,,,,,407,84,37,1,0,0,response1disk,,6,7,-3,1,0,0,rectangle,7,-3,1,0,0,7,-3,1,0,0,0,21,21,75,1,,,,,,,,
,,,,,,,,,,,,,FF,,,,,,,,0.952,,,,,,,,,,,,,,,,,,,,,,60fdd2cafe684291d330f316,610369ad2ef4c8c2e0f41258,2021-07-29_22h54.37.263,Simcolourproject_2stim_asymm_v5,2020.2.10,MacIntel,60,61025ae37ef11b136ea224fe,,,,,,,,,1941,89,37,1,0,0,response1disk,,6,-6,12,1,0,0,rectangle,-6,12,1,0,0,-6,12,1,0,0,0,22,22,100,1,,,,,,,,
,,,,,,,,,,,,,FF,,,,,,,,1.148,,,,,,,,,,,,,,,,,,,,,,60fdd2cafe684291d330f316,610369ad2ef4c8c2e0f41258,2021-07-29_22h54.37.263,Simcolourproject_2stim_asymm_v5,2020.2.10,MacIntel,60,61025ae37ef11b136ea224fe,,,,,,,,,1775,81,-32,1,0,0,response3disk,,5,-29,6,1,0,0,rectangle,-29,6,1,0,0,-29,6,1,0,0,0,23,23,135,1,,,,,,,,
,,,,,,,,,,,,,FF,,,,,,,,1.115,,,,,,,,,,,,,,,,,,,,,,60fdd2cafe684291d330f316,610369ad2ef4c8c2e0f41258,2021-07-29_22h54.37.263,Simcolourproject_2stim_asymm_v5,2020.2.10,MacIntel,60,61025ae37ef11b136ea224fe,,,,,,,,,553,-47,-67,1,0,0,response5disk,,3,-1,-10,1,0,0,rectangle,-1,-10,1,0,0,-1,-10,1,0,0,0,24,24,139,1,,,,,,,,
,,,,,,,,,,,,,FF,,,,,,,,1.081,,,,,,,,,,,,,,,,,,,,,,60fdd2cafe684291d330f316,610369ad2ef4c8c2e0f41258,2021-07-29_22h54.37.263,Simcolourproject_2stim_asymm_v5,2020.2.10,MacIntel,60,61025ae37ef11b136ea224fe,,,,,,,,,3196,-61,-36,1,0,0,response5disk,,2,-2,2,1,0,0,rectangle,-2,2,1,0,0,-2,2,1,0,0,0,25,25,67,1,,,,,,,,
,,,,,,,,,,,,,FF,,,,,,,,1.217,,,,,,,,,,,,,,,,,,,,,,60fdd2cafe684291d330f316,610369ad2ef4c8c2e0f41258,2021-07-29_22h54.37.263,Simcolourproject_2stim_asymm_v5,2020.2.10,MacIntel,60,61025ae37ef11b136ea224fe,,,,,,,,,2266,64,-32,1,0,0,response3disk,,5,19,6,1,0,0,rectangle,19,6,1,0,0,19,6,1,0,0,0,26,26,122,1,,,,,,,,
,,,,,,,,,,,,,FF,,,,,,,,1.193,,,,,,,,,,,,,,,,,,,,,,60fdd2cafe684291d330f316,610369ad2ef4c8c2e0f41258,2021-07-29_22h54.37.263,Simcolourproject_2stim_asymm_v5,2020.2.10,MacIntel,60,61025ae37ef11b136ea224fe,,,,,,,,,2156,70,-32,1,0,0,response3disk,,5,24,-9,1,0,0,rectangle,24,-9,1,0,0,24,-9,1,0,0,0,27,27,29,1,,,,,,,,
,,,,,,,,,,,,,FF,,,,,,,,1.097,,,,,,,,,,,,,,,,,,,,,,60fdd2cafe684291d330f316,610369ad2ef4c8c2e0f41258,2021-07-29_22h54.37.263,Simcolourproject_2stim_asymm_v5,2020.2.10,MacIntel,60,61025ae37ef11b136ea224fe,,,,,,,,,1439,23,-54,1,0,0,response3disk,,4,20,-10,1,0,0,rectangle,20,-10,1,0,0,20,-10,1,0,0,0,28,28,106,1,,,,,,,,
,,,,,,,,,,,,,FF,,,,,,,,1.489,,,,,,,,,,,,,,,,,,,,,,60fdd2cafe684291d330f316,610369ad2ef4c8c2e0f41258,2021-07-29_22h54.37.263,Simcolourproject_2stim_asymm_v5,2020.2.10,MacIntel,60,61025ae37ef11b136ea224fe,,,,,,,,,3382,-51,-40,1,0,0,response5disk,,2,-3,-2,1,0,0,rectangle,-3,-2,1,0,0,-3,-2,1,0,0,0,29,29,82,1,,,,,,,,
,,,,,,,,,,,,,FF,,,,,,,,1.143,,,,,,,,,,,,,,,,,,,,,,60fdd2cafe684291d330f316,610369ad2ef4c8c2e0f41258,2021-07-29_22h54.37.263,Simcolourproject_2stim_asymm_v5,2020.2.10,MacIntel,60,61025ae37ef11b136ea224fe,,,,,,,,,920,81,44,1,0,0,response1disk,,6,12,3,1,0,0,rectangle,12,3,1,0,0,12,3,1,0,0,0,30,30,59,1,,,,,,,,
,,,,,,,,,,,,,FF,,,,,,,,1.708,,,,,,,,,,,,,,,,,,,,,,60fdd2cafe684291d330f316,610369ad2ef4c8c2e0f41258,2021-07-29_22h54.37.263,Simcolourproject_2stim_asymm_v5,2020.2.10,MacIntel,60,61025ae37ef11b136ea224fe,,,,,,,,,224,55,76,1,0,0,response1disk,,7,18,-12,1,0,0,rectangle,18,-12,1,0,0,18,-12,1,0,0,0,31,31,112,1,,,,,,,,
,,,,,,,,,,,,,FF,,,,,,,,0.849,,,,,,,,,,,,,,,,,,,,,,60fdd2cafe684291d330f316,610369ad2ef4c8c2e0f41258,2021-07-29_22h54.37.263,Simcolourproject_2stim_asymm_v5,2020.2.10,MacIntel,60,61025ae37ef11b136ea224fe,,,,,,,,,324,44,58,1,0,0,response1disk,,7,16,-1,1,0,0,rectangle,16,-1,1,0,0,16,-1,1,0,0,0,32,32,142,1,,,,,,,,
,,,,,,,,,,,,,FF,,,,,,,,1.207,,,,,,,,,,,,,,,,,,,,,,60fdd2cafe684291d330f316,610369ad2ef4c8c2e0f41258,2021-07-29_22h54.37.263,Simcolourproject_2stim_asymm_v5,2020.2.10,MacIntel,60,61025ae37ef11b136ea224fe,,,,,,,,,3439,76,-51,1,0,0,response3disk,,5,26,-4,1,0,0,rectangle,67,97,1,0,0,14,13,1,0,0,0,33,33,158,1,,response1disk_3,TRUE,7,7,"[177,83,95,86,207,126,76,20,240,276,34,302,67,92,103,76,147,158,224,149]",1.891,rectangle
,,,,,,,,,,,,,FF,,,,,,,,1.442,,,,,,,,,,,,,,,,,,,,,,60fdd2cafe684291d330f316,610369ad2ef4c8c2e0f41258,2021-07-29_22h54.37.263,Simcolourproject_2stim_asymm_v5,2020.2.10,MacIntel,60,61025ae37ef11b136ea224fe,,,,,,,,,1897,-46,-70,1,0,0,response5disk,,3,4,-5,1,0,0,rectangle,4,-5,1,0,0,4,-5,1,0,0,0,34,34,98,1,,,,,,,,
,,,,,,,,,,,,,FF,,,,,,,,1.122,,,,,,,,,,,,,,,,,,,,,,60fdd2cafe684291d330f316,610369ad2ef4c8c2e0f41258,2021-07-29_22h54.37.263,Simcolourproject_2stim_asymm_v5,2020.2.10,MacIntel,60,61025ae37ef11b136ea224fe,,,,,,,,,50,76,50,1,0,0,response1disk,,6,0,16,1,0,0,rectangle,0,16,1,0,0,0,16,1,0,0,0,35,35,119,1,,,,,,,,
,,,,,,,,,,,,,FF,,,,,,,,1.205,,,,,,,,,,,,,,,,,,,,,,60fdd2cafe684291d330f316,610369ad2ef4c8c2e0f41258,2021-07-29_22h54.37.263,Simcolourproject_2stim_asymm_v5,2020.2.10,MacIntel,60,61025ae37ef11b136ea224fe,,,,,,,,,3889,81,-33,1,0,0,response3disk,,5,19,-3,1,0,0,rectangle,19,-3,1,0,0,19,-3,1,0,0,0,36,36,134,1,,,,,,,,
,,,,,,,,,,,,,FF,,,,,,,,1.178,,,,,,,,,,,,,,,,,,,,,,60fdd2cafe684291d330f316,610369ad2ef4c8c2e0f41258,2021-07-29_22h54.37.263,Simcolourproject_2stim_asymm_v5,2020.2.10,MacIntel,60,61025ae37ef11b136ea224fe,,,,,,,,,3436,39,-80,1,0,0,response3disk,,4,11,-7,1,0,0,rectangle,11,-7,1,0,0,11,-7,1,0,0,0,37,37,81,1,,,,,,,,
,,,,,,,,,,,,,FF,,,,,,,,1.696,,,,,,,,,,,,,,,,,,,,,,60fdd2cafe684291d330f316,610369ad2ef4c8c2e0f41258,2021-07-29_22h54.37.263,Simcolourproject_2stim_asymm_v5,2020.2.10,MacIntel,60,61025ae37ef11b136ea224fe,,,,,,,,,658,106,36,1,0,0,response1disk,,6,21,5,1,0,0,rectangle,21,5,1,0,0,21,5,1,0,0,0,38,38,0,1,,,,,,,,
,,,,,,,,,,,,,FF,,,,,,,,0.906,,,,,,,,,,,,,,,,,,,,,,60fdd2cafe684291d330f316,610369ad2ef4c8c2e0f41258,2021-07-29_22h54.37.263,Simcolourproject_2stim_asymm_v5,2020.2.10,MacIntel,60,61025ae37ef11b136ea224fe,,,,,,,,,579,94,39,1,0,0,response1disk,,6,12,3,1,0,0,rectangle,12,3,1,0,0,12,3,1,0,0,0,39,39,93,1,,,,,,,,
,,,,,,,,,,,,,FF,,,,,,,,1.34,,,,,,,,,,,,,,,,,,,,,,60fdd2cafe684291d330f316,610369ad2ef4c8c2e0f41258,2021-07-29_22h54.37.263,Simcolourproject_2stim_asymm_v5,2020.2.10,MacIntel,60,61025ae37ef11b136ea224fe,,,,,,,,,228,78,30,1,0,0,response1disk,,6,-25,-1,1,0,0,rectangle,-25,-1,1,0,0,-25,-1,1,0,0,0,40,40,53,1,,,,,,,,
,,,,,,,,,,,,,FF,,,,,,,,1.721,,,,,,,,,,,,,,,,,,,,,,60fdd2cafe684291d330f316,610369ad2ef4c8c2e0f41258,2021-07-29_22h54.37.263,Simcolourproject_2stim_asymm_v5,2020.2.10,MacIntel,60,61025ae37ef11b136ea224fe,,,,,,,,,873,48,-72,1,0,0,response3disk,,4,15,-1,1,0,0,rectangle,15,-1,1,0,0,15,-1,1,0,0,0,41,41,4,1,,,,,,,,
,,,,,,,,,,,,,FF,,,,,,,,1.102,,,,,,,,,,,,,,,,,,,,,,60fdd2cafe684291d330f316,610369ad2ef4c8c2e0f41258,2021-07-29_22h54.37.263,Simcolourproject_2stim_asymm_v5,2020.2.10,MacIntel,60,61025ae37ef11b136ea224fe,,,,,,,,,911,58,32,1,0,0,response1disk,,6,11,7,1,0,0,rectangle,11,7,1,0,0,11,7,1,0,0,0,42,42,148,1,,,,,,,,
,,,,,,,,,,,,,FF,,,,,,,,1.682,,,,,,,,,,,,,,,,,,,,,,60fdd2cafe684291d330f316,610369ad2ef4c8c2e0f41258,2021-07-29_22h54.37.263,Simcolourproject_2stim_asymm_v5,2020.2.10,MacIntel,60,61025ae37ef11b136ea224fe,,,,,,,,,3447,77,58,1,0,0,response1disk,,6,3,15,1,0,0,rectangle,3,15,1,0,0,3,15,1,0,0,0,43,43,155,1,,,,,,,,
,,,,,,,,,,,,,FF,,,,,,,,0.856,,,,,,,,,,,,,,,,,,,,,,60fdd2cafe684291d330f316,610369ad2ef4c8c2e0f41258,2021-07-29_22h54.37.263,Simcolourproject_2stim_asymm_v5,2020.2.10,MacIntel,60,61025ae37ef11b136ea224fe,,,,,,,,,1654,85,46,1,0,0,response1disk,,6,8,7,1,0,0,rectangle,8,7,1,0,0,8,7,1,0,0,0,44,44,62,1,,,,,,,,
,,,,,,,,,,,,,FF,,,,,,,,1.012,,,,,,,,,,,,,,,,,,,,,,60fdd2cafe684291d330f316,610369ad2ef4c8c2e0f41258,2021-07-29_22h54.37.263,Simcolourproject_2stim_asymm_v5,2020.2.10,MacIntel,60,61025ae37ef11b136ea224fe,,,,,,,,,2185,89,29,1,0,0,response1disk,,6,11,-1,1,0,0,rectangle,11,-1,1,0,0,11,-1,1,0,0,0,45,45,131,1,,,,,,,,
,,,,,,,,,,,,,FF,,,,,,,,0.841,,,,,,,,,,,,,,,,,,,,,,60fdd2cafe684291d330f316,610369ad2ef4c8c2e0f41258,2021-07-29_22h54.37.263,Simcolourproject_2stim_asymm_v5,2020.2.10,MacIntel,60,61025ae37ef11b136ea224fe,,,,,,,,,1074,84,27,1,0,0,response1disk,,6,24,-7,1,0,0,rectangle,24,-7,1,0,0,24,-7,1,0,0,0,46,46,159,1,,,,,,,,
,,,,,,,,,,,,,FF,,,,,,,,1.307,,,,,,,,,,,,,,,,,,,,,,60fdd2cafe684291d330f316,610369ad2ef4c8c2e0f41258,2021-07-29_22h54.37.263,Simcolourproject_2stim_asymm_v5,2020.2.10,MacIntel,60,61025ae37ef11b136ea224fe,,,,,,,,,3443,46,-68,1,0,0,response3disk,,4,23,2,1,0,0,rectangle,23,2,1,0,0,23,2,1,0,0,0,47,47,25,1,,,,,,,,
,,,,,,,,,,,,,FF,,,,,,,,1.047,,,,,,,,,,,,,,,,,,,,,,60fdd2cafe684291d330f316,610369ad2ef4c8c2e0f41258,2021-07-29_22h54.37.263,Simcolourproject_2stim_asymm_v5,2020.2.10,MacIntel,60,61025ae37ef11b136ea224fe,,,,,,,,,348,-59,18,1,0,0,response7disk,,1,4,3,1,0,0,rectangle,4,3,1,0,0,4,3,1,0,0,0,48,48,66,1,,,,,,,,
,,,,,,,,,,,,,FF,,,,,,,,1.363,,,,,,,,,,,,,,,,,,,,,,60fdd2cafe684291d330f316,610369ad2ef4c8c2e0f41258,2021-07-29_22h54.37.263,Simcolourproject_2stim_asymm_v5,2020.2.10,MacIntel,60,61025ae37ef11b136ea224fe,,,,,,,,,1040,-42,-47,1,0,0,response5disk,,3,2,-6,1,0,0,rectangle,2,-6,1,0,0,2,-6,1,0,0,0,49,49,84,1,,,,,,,,
,,,,,,,,,,,,,FF,,,,,,,,1.115,,,,,,,,,,,,,,,,,,,,,,60fdd2cafe684291d330f316,610369ad2ef4c8c2e0f41258,2021-07-29_22h54.37.263,Simcolourproject_2stim_asymm_v5,2020.2.10,MacIntel,60,61025ae37ef11b136ea224fe,,,,,,,,,3165,66,-34,1,0,0,response3disk,,5,21,4,1,0,0,rectangle,21,4,1,0,0,21,4,1,0,0,0,50,50,121,1,,,,,,,,
,,,,,,,,,,,,,FF,,,,,,,,1.047,,,,,,,,,,,,,,,,,,,,,,60fdd2cafe684291d330f316,610369ad2ef4c8c2e0f41258,2021-07-29_22h54.37.263,Simcolourproject_2stim_asymm_v5,2020.2.10,MacIntel,60,61025ae37ef11b136ea224fe,,,,,,,,,2369,35,-49,1,0,0,response3disk,,4,18,-9,1,0,0,rectangle,18,-9,1,0,0,18,-9,1,0,0,0,51,51,111,1,,,,,,,,
,,,,,,,,,,,,,FF,,,,,,,,1.063,,,,,,,,,,,,,,,,,,,,,,60fdd2cafe684291d330f316,610369ad2ef4c8c2e0f41258,2021-07-29_22h54.37.263,Simcolourproject_2stim_asymm_v5,2020.2.10,MacIntel,60,61025ae37ef11b136ea224fe,,,,,,,,,383,87,-43,1,0,0,response3disk,,5,21,-5,1,0,0,rectangle,21,-5,1,0,0,21,-5,1,0,0,0,52,52,13,1,,,,,,,,
,,,,,,,,,,,,,FF,,,,,,,,1.135,,,,,,,,,,,,,,,,,,,,,,60fdd2cafe684291d330f316,610369ad2ef4c8c2e0f41258,2021-07-29_22h54.37.263,Simcolourproject_2stim_asymm_v5,2020.2.10,MacIntel,60,61025ae37ef11b136ea224fe,,,,,,,,,1212,-27,-61,1,0,0,response5disk,,3,-2,-11,1,0,0,rectangle,-2,-11,1,0,0,-2,-11,1,0,0,0,53,53,144,1,,,,,,,,
,,,,,,,,,,,,,FF,,,,,,,,1.28,,,,,,,,,,,,,,,,,,,,,,60fdd2cafe684291d330f316,610369ad2ef4c8c2e0f41258,2021-07-29_22h54.37.263,Simcolourproject_2stim_asymm_v5,2020.2.10,MacIntel,60,61025ae37ef11b136ea224fe,,,,,,,,,3588,-30,-62,1,0,0,response5disk,,3,4,-2,1,0,0,rectangle,4,-2,1,0,0,4,-2,1,0,0,0,54,54,28,1,,,,,,,,
,,,,,,,,,,,,,FF,,,,,,,,1.152,,,,,,,,,,,,,,,,,,,,,,60fdd2cafe684291d330f316,610369ad2ef4c8c2e0f41258,2021-07-29_22h54.37.263,Simcolourproject_2stim_asymm_v5,2020.2.10,MacIntel,60,61025ae37ef11b136ea224fe,,,,,,,,,3683,40,-57,1,0,0,response3disk,,4,27,-1,1,0,0,rectangle,27,-1,1,0,0,27,-1,1,0,0,0,55,55,45,1,,,,,,,,
,,,,,,,,,,,,,FF,,,,,,,,0.96,,,,,,,,,,,,,,,,,,,,,,60fdd2cafe684291d330f316,610369ad2ef4c8c2e0f41258,2021-07-29_22h54.37.263,Simcolourproject_2stim_asymm_v5,2020.2.10,MacIntel,60,61025ae37ef11b136ea224fe,,,,,,,,,4012,44,84,1,0,0,response1disk,,7,14,-10,1,0,0,rectangle,14,-10,1,0,0,14,-10,1,0,0,0,56,56,107,1,,,,,,,,
,,,,,,,,,,,,,FF,,,,,,,,0.819,,,,,,,,,,,,,,,,,,,,,,60fdd2cafe684291d330f316,610369ad2ef4c8c2e0f41258,2021-07-29_22h54.37.263,Simcolourproject_2stim_asymm_v5,2020.2.10,MacIntel,60,61025ae37ef11b136ea224fe,,,,,,,,,3222,45,82,1,0,0,response1disk,,7,9,3,1,0,0,rectangle,9,3,1,0,0,9,3,1,0,0,0,57,57,83,1,,,,,,,,
,,,,,,,,,,,,,FF,,,,,,,,1.042,,,,,,,,,,,,,,,,,,,,,,60fdd2cafe684291d330f316,610369ad2ef4c8c2e0f41258,2021-07-29_22h54.37.263,Simcolourproject_2stim_asymm_v5,2020.2.10,MacIntel,60,61025ae37ef11b136ea224fe,,,,,,,,,3833,67,26,1,0,0,response1disk,,6,14,-6,1,0,0,rectangle,14,-6,1,0,0,14,-6,1,0,0,0,58,58,61,1,,,,,,,,
,,,,,,,,,,,,,FF,,,,,,,,1.548,,,,,,,,,,,,,,,,,,,,,,60fdd2cafe684291d330f316,610369ad2ef4c8c2e0f41258,2021-07-29_22h54.37.263,Simcolourproject_2stim_asymm_v5,2020.2.10,MacIntel,60,61025ae37ef11b136ea224fe,,,,,,,,,2823,102,-57,1,0,0,response3disk,,5,26,-1,1,0,0,rectangle,26,-1,1,0,0,26,-1,1,0,0,0,59,59,137,1,,,,,,,,
,,,,,,,,,,,,,FF,,,,,,,,1,,,,,,,,,,,,,,,,,,,,,,60fdd2cafe684291d330f316,610369ad2ef4c8c2e0f41258,2021-07-29_22h54.37.263,Simcolourproject_2stim_asymm_v5,2020.2.10,MacIntel,60,61025ae37ef11b136ea224fe,,,,,,,,,2996,28,-60,1,0,0,response3disk,,4,21,-13,1,0,0,rectangle,21,-13,1,0,0,21,-13,1,0,0,0,60,60,20,1,,,,,,,,
,,,,,,,,,,,,,FF,,,,,,,,1.217,,,,,,,,,,,,,,,,,,,,,,60fdd2cafe684291d330f316,610369ad2ef4c8c2e0f41258,2021-07-29_22h54.37.263,Simcolourproject_2stim_asymm_v5,2020.2.10,MacIntel,60,61025ae37ef11b136ea224fe,,,,,,,,,2478,75,46,1,0,0,response1disk,,6,0,5,1,0,0,rectangle,0,5,1,0,0,0,5,1,0,0,0,61,61,79,1,,,,,,,,
,,,,,,,,,,,,,FF,,,,,,,,0.874,,,,,,,,,,,,,,,,,,,,,,60fdd2cafe684291d330f316,610369ad2ef4c8c2e0f41258,2021-07-29_22h54.37.263,Simcolourproject_2stim_asymm_v5,2020.2.10,MacIntel,60,61025ae37ef11b136ea224fe,,,,,,,,,1117,75,52,1,0,0,response1disk,,6,10,7,1,0,0,rectangle,10,7,1,0,0,10,7,1,0,0,0,62,62,130,1,,,,,,,,
,,,,,,,,,,,,,FF,,,,,,,,0.675,,,,,,,,,,,,,,,,,,,,,,60fdd2cafe684291d330f316,610369ad2ef4c8c2e0f41258,2021-07-29_22h54.37.263,Simcolourproject_2stim_asymm_v5,2020.2.10,MacIntel,60,61025ae37ef11b136ea224fe,,,,,,,,,3893,103,47,1,0,0,response1disk,,6,10,-1,1,0,0,rectangle,10,-1,1,0,0,10,-1,1,0,0,0,63,63,50,1,,,,,,,,
,,,,,,,,,,,,,FF,,,,,,,,1.245,,,,,,,,,,,,,,,,,,,,,,60fdd2cafe684291d330f316,610369ad2ef4c8c2e0f41258,2021-07-29_22h54.37.263,Simcolourproject_2stim_asymm_v5,2020.2.10,MacIntel,60,61025ae37ef11b136ea224fe,,,,,,,,,1893,-88,-29,1,0,0,response5disk,,2,-15,-5,1,0,0,rectangle,-15,-5,1,0,0,-15,-5,1,0,0,0,64,64,10,1,,,,,,,,
,,,,,,,,,,,,,FF,,,,,,,,1.56,,,,,,,,,,,,,,,,,,,,,,60fdd2cafe684291d330f316,610369ad2ef4c8c2e0f41258,2021-07-29_22h54.37.263,Simcolourproject_2stim_asymm_v5,2020.2.10,MacIntel,60,61025ae37ef11b136ea224fe,,,,,,,,,2740,76,-28,1,0,0,response3disk,,5,13,-8,1,0,0,rectangle,13,-8,1,0,0,13,-8,1,0,0,0,65,65,35,1,,,,,,,,
,,,,,,,,,,,,,FF,,,,,,,,0.83,,,,,,,,,,,,,,,,,,,,,,60fdd2cafe684291d330f316,610369ad2ef4c8c2e0f41258,2021-07-29_22h54.37.263,Simcolourproject_2stim_asymm_v5,2020.2.10,MacIntel,60,61025ae37ef11b136ea224fe,,,,,,,,,1896,-25,-56,1,0,0,response5disk,,3,16,-2,1,0,0,rectangle,-85,49,1,0,0,-7,5,1,0,0,0,66,66,86,1,,response7disk_3,TRUE,1,1,"[177,83,95,86,207,126,76,20,240,276,34,302,67,92,103,76,147,158,224,149]",1.668,rectangle
,,,,,,,,,,,,,FF,,,,,,,,1.401,,,,,,,,,,,,,,,,,,,,,,60fdd2cafe684291d330f316,610369ad2ef4c8c2e0f41258,2021-07-29_22h54.37.263,Simcolourproject_2stim_asymm_v5,2020.2.10,MacIntel,60,61025ae37ef11b136ea224fe,,,,,,,,,374,-80,-44,1,0,0,response5disk,,2,-12,-14,1,0,0,rectangle,-12,-14,1,0,0,-12,-14,1,0,0,0,67,67,132,1,,,,,,,,
,,,,,,,,,,,,,FF,,,,,,,,1.174,,,,,,,,,,,,,,,,,,,,,,60fdd2cafe684291d330f316,610369ad2ef4c8c2e0f41258,2021-07-29_22h54.37.263,Simcolourproject_2stim_asymm_v5,2020.2.10,MacIntel,60,61025ae37ef11b136ea224fe,,,,,,,,,1255,38,-89,1,0,0,response3disk,,4,18,-5,1,0,0,rectangle,18,-5,1,0,0,18,-5,1,0,0,0,68,68,52,1,,,,,,,,
,,,,,,,,,,,,,FF,,,,,,,,1.266,,,,,,,,,,,,,,,,,,,,,,60fdd2cafe684291d330f316,610369ad2ef4c8c2e0f41258,2021-07-29_22h54.37.263,Simcolourproject_2stim_asymm_v5,2020.2.10,MacIntel,60,61025ae37ef11b136ea224fe,,,,,,,,,99,85,-41,1,0,0,response3disk,,5,29,-8,1,0,0,rectangle,29,-8,1,0,0,29,-8,1,0,0,0,69,69,9,1,,,,,,,,
,,,,,,,,,,,,,FF,,,,,,,,1.21,,,,,,,,,,,,,,,,,,,,,,60fdd2cafe684291d330f316,610369ad2ef4c8c2e0f41258,2021-07-29_22h54.37.263,Simcolourproject_2stim_asymm_v5,2020.2.10,MacIntel,60,61025ae37ef11b136ea224fe,,,,,,,,,2539,88,38,1,0,0,response1disk,,6,8,-4,1,0,0,rectangle,8,-4,1,0,0,8,-4,1,0,0,0,70,70,51,1,,,,,,,,
,,,,,,,,,,,,,FF,,,,,,,,0.906,,,,,,,,,,,,,,,,,,,,,,60fdd2cafe684291d330f316,610369ad2ef4c8c2e0f41258,2021-07-29_22h54.37.263,Simcolourproject_2stim_asymm_v5,2020.2.10,MacIntel,60,61025ae37ef11b136ea224fe,,,,,,,,,460,42,-64,1,0,0,response3disk,,4,11,0,1,0,0,rectangle,11,0,1,0,0,11,0,1,0,0,0,71,71,124,1,,,,,,,,
,,,,,,,,,,,,,FF,,,,,,,,2.756,,,,,,,,,,,,,,,,,,,,,,60fdd2cafe684291d330f316,610369ad2ef4c8c2e0f41258,2021-07-29_22h54.37.263,Simcolourproject_2stim_asymm_v5,2020.2.10,MacIntel,60,61025ae37ef11b136ea224fe,,,,,,,,,4235,-94,46,1,0,0,response7disk,,1,2,-5,1,0,0,rectangle,2,-5,1,0,0,2,-5,1,0,0,0,72,72,87,1,,,,,,,,
,,,,,,,,,,,,,FF,,,,,,,,2.829,,,,,,,,,,,,,,,,,,,,,,60fdd2cafe684291d330f316,610369ad2ef4c8c2e0f41258,2021-07-29_22h54.37.263,Simcolourproject_2stim_asymm_v5,2020.2.10,MacIntel,60,61025ae37ef11b136ea224fe,,,,,,,,,563,84,-52,1,0,0,response3disk,,5,-7,7,1,0,0,rectangle,-7,7,1,0,0,-7,7,1,0,0,0,73,73,154,1,,,,,,,,
,,,,,,,,,,,,,FF,,,,,,,,1.661,,,,,,,,,,,,,,,,,,,,,,60fdd2cafe684291d330f316,610369ad2ef4c8c2e0f41258,2021-07-29_22h54.37.263,Simcolourproject_2stim_asymm_v5,2020.2.10,MacIntel,60,61025ae37ef11b136ea224fe,,,,,,,,,174,-72,-43,1,0,0,response5disk,,2,-12,-5,1,0,0,rectangle,-12,-5,1,0,0,-12,-5,1,0,0,0,74,74,5,1,,,,,,,,
,,,,,,,,,,,,,FF,,,,,,,,1.174,,,,,,,,,,,,,,,,,,,,,,60fdd2cafe684291d330f316,610369ad2ef4c8c2e0f41258,2021-07-29_22h54.37.263,Simcolourproject_2stim_asymm_v5,2020.2.10,MacIntel,60,61025ae37ef11b136ea224fe,,,,,,,,,2169,-29,-54,1,0,0,response5disk,,3,-11,0,1,0,0,rectangle,-33,-89,1,0,0,-9,-10,1,0,0,0,75,75,138,1,,response5disk_3,TRUE,3,3,"[177,83,95,86,207,126,76,20,240,276,34,302,67,92,103,76,147,158,224,149]",1.949,rectangle
,,,,,,,,,,,,,FF,,,,,,,,1.098,,,,,,,,,,,,,,,,,,,,,,60fdd2cafe684291d330f316,610369ad2ef4c8c2e0f41258,2021-07-29_22h54.37.263,Simcolourproject_2stim_asymm_v5,2020.2.10,MacIntel,60,61025ae37ef11b136ea224fe,,,,,,,,,3603,93,-49,1,0,0,response3disk,,5,15,-8,1,0,0,rectangle,15,-8,1,0,0,15,-8,1,0,0,0,76,76,30,1,,,,,,,,
,,,,,,,,,,,,,FF,,,,,,,,0.842,,,,,,,,,,,,,,,,,,,,,,60fdd2cafe684291d330f316,610369ad2ef4c8c2e0f41258,2021-07-29_22h54.37.263,Simcolourproject_2stim_asymm_v5,2020.2.10,MacIntel,60,61025ae37ef11b136ea224fe,,,,,,,,,3353,73,-43,1,0,0,response3disk,,5,26,-8,1,0,0,rectangle,26,-8,1,0,0,26,-8,1,0,0,0,77,77,94,1,,,,,,,,
,,,,,,,,,,,,,FF,,,,,,,,0.792,,,,,,,,,,,,,,,,,,,,,,60fdd2cafe684291d330f316,610369ad2ef4c8c2e0f41258,2021-07-29_22h54.37.263,Simcolourproject_2stim_asymm_v5,2020.2.10,MacIntel,60,61025ae37ef11b136ea224fe,,,,,,,,,2705,55,80,1,0,0,response1disk,,7,5,9,1,0,0,rectangle,5,9,1,0,0,5,9,1,0,0,0,78,78,141,1,,,,,,,,
,,,,,,,,,,,,,FF,,,,,,,,1.117,,,,,,,,,,,,,,,,,,,,,,60fdd2cafe684291d330f316,610369ad2ef4c8c2e0f41258,2021-07-29_22h54.37.263,Simcolourproject_2stim_asymm_v5,2020.2.10,MacIntel,60,61025ae37ef11b136ea224fe,,,,,,,,,786,72,-44,1,0,0,response3disk,,5,9,-9,1,0,0,rectangle,9,-9,1,0,0,9,-9,1,0,0,0,79,79,129,1,,,,,,,,
,,,,,,,,,,,,,FF,,,,,,,,1.734,,,,,,,,,,,,,,,,,,,,,,60fdd2cafe684291d330f316,610369ad2ef4c8c2e0f41258,2021-07-29_22h54.37.263,Simcolourproject_2stim_asymm_v5,2020.2.10,MacIntel,60,61025ae37ef11b136ea224fe,,,,,,,,,2311,84,-58,1,0,0,response3disk,,5,4,3,1,0,0,rectangle,4,3,1,0,0,4,3,1,0,0,0,80,80,23,1,,,,,,,,
,,,,,,,,,,,,,FF,,,,,,,,1.166,,,,,,,,,,,,,,,,,,,,,,60fdd2cafe684291d330f316,610369ad2ef4c8c2e0f41258,2021-07-29_22h54.37.263,Simcolourproject_2stim_asymm_v5,2020.2.10,MacIntel,60,61025ae37ef11b136ea224fe,,,,,,,,,215,74,-48,1,0,0,response3disk,,5,-10,-12,1,0,0,rectangle,-10,-12,1,0,0,-10,-12,1,0,0,0,81,81,63,1,,,,,,,,
,,,,,,,,,,,,,FF,,,,,,,,0.699,,,,,,,,,,,,,,,,,,,,,,60fdd2cafe684291d330f316,610369ad2ef4c8c2e0f41258,2021-07-29_22h54.37.263,Simcolourproject_2stim_asymm_v5,2020.2.10,MacIntel,60,61025ae37ef11b136ea224fe,,,,,,,,,315,81,-46,1,0,0,response3disk,,5,18,-9,1,0,0,rectangle,-88,-44,1,0,0,7,1,1,0,0,0,82,82,40,1,,response5disk_3,TRUE,2,2,"[177,83,95,86,207,126,76,20,240,276,34,302,67,92,103,76,147,158,224,149]",1.728,rectangle
,,,,,,,,,,,,,FF,,,,,,,,1.086,,,,,,,,,,,,,,,,,,,,,,60fdd2cafe684291d330f316,610369ad2ef4c8c2e0f41258,2021-07-29_22h54.37.263,Simcolourproject_2stim_asymm_v5,2020.2.10,MacIntel,60,61025ae37ef11b136ea224fe,,,,,,,,,82,-45,-67,1,0,0,response5disk,,3,-8,-3,1,0,0,rectangle,-8,-3,1,0,0,-8,-3,1,0,0,0,83,83,143,1,,,,,,,,
,,,,,,,,,,,,,FF,,,,,,,,1.234,,,,,,,,,,,,,,,,,,,,,,60fdd2cafe684291d330f316,610369ad2ef4c8c2e0f41258,2021-07-29_22h54.37.263,Simcolourproject_2stim_asymm_v5,2020.2.10,MacIntel,60,61025ae37ef11b136ea224fe,,,,,,,,,1029,69,-42,1,0,0,response3disk,,5,3,-10,1,0,0,rectangle,3,-10,1,0,0,3,-10,1,0,0,0,84,84,114,1,,,,,,,,
,,,,,,,,,,,,,FF,,,,,,,,0.94,,,,,,,,,,,,,,,,,,,,,,60fdd2cafe684291d330f316,610369ad2ef4c8c2e0f41258,2021-07-29_22h54.37.263,Simcolourproject_2stim_asymm_v5,2020.2.10,MacIntel,60,61025ae37ef11b136ea224fe,,,,,,,,,725,89,-36,1,0,0,response3disk,,5,15,-7,1,0,0,rectangle,-53,90,1,0,0,-16,8,1,0,0,0,85,85,57,1,,response7disk_3,TRUE,0,0,"[177,83,95,86,207,126,76,20,240,276,34,302,67,92,103,76,147,158,224,149]",1.62,rectangle
,,,,,,,,,,,,,FF,,,,,,,,6.61,,,,,,,,,,,,,,,,,,,,,,60fdd2cafe684291d330f316,610369ad2ef4c8c2e0f41258,2021-07-29_22h54.37.263,Simcolourproject_2stim_asymm_v5,2020.2.10,MacIntel,60,61025ae37ef11b136ea224fe,,,,,,,,,1477,-37,-90,1,0,0,response5disk,,3,1,-10,1,0,0,rectangle,1,-10,1,0,0,1,-10,1,0,0,0,86,86,110,1,,,,,,,,
,,,,,,,,,,,,,FF,,,,,,,,1.823,,,,,,,,,,,,,,,,,,,,,,60fdd2cafe684291d330f316,610369ad2ef4c8c2e0f41258,2021-07-29_22h54.37.263,Simcolourproject_2stim_asymm_v5,2020.2.10,MacIntel,60,61025ae37ef11b136ea224fe,,,,,,,,,1894,-87,41,1,0,0,response7disk,,1,-9,7,1,0,0,rectangle,-9,7,1,0,0,-9,7,1,0,0,0,87,87,151,1,,,,,,,,
,,,,,,,,,,,,,FF,,,,,,,,1.234,,,,,,,,,,,,,,,,,,,,,,60fdd2cafe684291d330f316,610369ad2ef4c8c2e0f41258,2021-07-29_22h54.37.263,Simcolourproject_2stim_asymm_v5,2020.2.10,MacIntel,60,61025ae37ef11b136ea224fe,,,,,,,,,2193,119,33,1,0,0,response1disk,,6,8,2,1,0,0,rectangle,8,2,1,0,0,8,2,1,0,0,0,88,88,128,1,,,,,,,,
,,,,,,,,,,,,,FF,,,,,,,,1.722,,,,,,,,,,,,,,,,,,,,,,60fdd2cafe684291d330f316,610369ad2ef4c8c2e0f41258,2021-07-29_22h54.37.263,Simcolourproject_2stim_asymm_v5,2020.2.10,MacIntel,60,61025ae37ef11b136ea224fe,,,,,,,,,2188,32,-67,1,0,0,response3disk,,4,28,-12,1,0,0,rectangle,28,-12,1,0,0,28,-12,1,0,0,0,89,89,14,1,,,,,,,,
,,,,,,,,,,,,,FF,,,,,,,,0.874,,,,,,,,,,,,,,,,,,,,,,60fdd2cafe684291d330f316,610369ad2ef4c8c2e0f41258,2021-07-29_22h54.37.263,Simcolourproject_2stim_asymm_v5,2020.2.10,MacIntel,60,61025ae37ef11b136ea224fe,,,,,,,,,3341,22,-59,1,0,0,response3disk,,4,22,-2,1,0,0,rectangle,22,-2,1,0,0,22,-2,1,0,0,0,90,90,99,1,,,,,,,,
,,,,,,,,,,,,,FF,,,,,,,,1.082,,,,,,,,,,,,,,,,,,,,,,60fdd2cafe684291d330f316,610369ad2ef4c8c2e0f41258,2021-07-29_22h54.37.263,Simcolourproject_2stim_asymm_v5,2020.2.10,MacIntel,60,61025ae37ef11b136ea224fe,,,,,,,,,1772,76,-51,1,0,0,response3disk,,5,22,-5,1,0,0,rectangle,-40,95,1,0,0,-13,8,1,0,0,0,91,91,58,1,,response7disk_3,TRUE,0,0,"[177,83,95,86,207,126,76,20,240,276,34,302,67,92,103,76,147,158,224,149]",1.589,rectangle
,,,,,,,,,,,,,FF,,,,,,,,1.037,,,,,,,,,,,,,,,,,,,,,,60fdd2cafe684291d330f316,610369ad2ef4c8c2e0f41258,2021-07-29_22h54.37.263,Simcolourproject_2stim_asymm_v5,2020.2.10,MacIntel,60,61025ae37ef11b136ea224fe,,,,,,,,,1925,98,-71,1,0,0,response3disk,,5,23,-7,1,0,0,rectangle,23,-7,1,0,0,23,-7,1,0,0,0,92,92,95,1,,,,,,,,
,,,,,,,,,,,,,FF,,,,,,,,1.334,,,,,,,,,,,,,,,,,,,,,,60fdd2cafe684291d330f316,610369ad2ef4c8c2e0f41258,2021-07-29_22h54.37.263,Simcolourproject_2stim_asymm_v5,2020.2.10,MacIntel,60,61025ae37ef11b136ea224fe,,,,,,,,,777,46,89,1,0,0,response1disk,,7,-1,8,1,0,0,rectangle,-1,8,1,0,0,-1,8,1,0,0,0,93,93,41,1,,,,,,,,
,,,,,,,,,,,,,FF,,,,,,,,1.228,,,,,,,,,,,,,,,,,,,,,,60fdd2cafe684291d330f316,610369ad2ef4c8c2e0f41258,2021-07-29_22h54.37.263,Simcolourproject_2stim_asymm_v5,2020.2.10,MacIntel,60,61025ae37ef11b136ea224fe,,,,,,,,,1530,38,-66,1,0,0,response3disk,,4,24,-14,1,0,0,rectangle,-92,59,1,0,0,-5,11,1,0,0,0,94,94,149,1,,response7disk_3,TRUE,1,1,"[177,83,95,86,207,126,76,20,240,276,34,302,67,92,103,76,147,158,224,149]",1.459,rectangle
,,,,,,,,,,,,,FF,,,,,,,,1.169,,,,,,,,,,,,,,,,,,,,,,60fdd2cafe684291d330f316,610369ad2ef4c8c2e0f41258,2021-07-29_22h54.37.263,Simcolourproject_2stim_asymm_v5,2020.2.10,MacIntel,60,61025ae37ef11b136ea224fe,,,,,,,,,1496,27,66,1,0,0,response1disk,,7,9,3,1,0,0,rectangle,9,3,1,0,0,9,3,1,0,0,0,95,95,15,1,,,,,,,,
,,,,,,,,,,,,,FF,,,,,,,,0.982,,,,,,,,,,,,,,,,,,,,,,60fdd2cafe684291d330f316,610369ad2ef4c8c2e0f41258,2021-07-29_22h54.37.263,Simcolourproject_2stim_asymm_v5,2020.2.10,MacIntel,60,61025ae37ef11b136ea224fe,,,,,,,,,2930,56,74,1,0,0,response1disk,,7,24,13,1,0,0,rectangle,24,13,1,0,0,24,13,1,0,0,0,96,96,19,1,,,,,,,,
,,,,,,,,,,,,,FF,,,,,,,,1.725,,,,,,,,,,,,,,,,,,,,,,60fdd2cafe684291d330f316,610369ad2ef4c8c2e0f41258,2021-07-29_22h54.37.263,Simcolourproject_2stim_asymm_v5,2020.2.10,MacIntel,60,61025ae37ef11b136ea224fe,,,,,,,,,1595,86,44,1,0,0,response1disk,,6,4,9,1,0,0,rectangle,4,9,1,0,0,4,9,1,0,0,0,97,97,146,1,,,,,,,,
,,,,,,,,,,,,,FF,,,,,,,,1.038,,,,,,,,,,,,,,,,,,,,,,60fdd2cafe684291d330f316,610369ad2ef4c8c2e0f41258,2021-07-29_22h54.37.263,Simcolourproject_2stim_asymm_v5,2020.2.10,MacIntel,60,61025ae37ef11b136ea224fe,,,,,,,,,3744,-79,39,1,0,0,response7disk,,1,-30,13,1,0,0,rectangle,-30,13,1,0,0,-30,13,1,0,0,0,98,98,12,1,,,,,,,,
,,,,,,,,,,,,,FF,,,,,,,,1.065,,,,,,,,,,,,,,,,,,,,,,60fdd2cafe684291d330f316,610369ad2ef4c8c2e0f41258,2021-07-29_22h54.37.263,Simcolourproject_2stim_asymm_v5,2020.2.10,MacIntel,60,61025ae37ef11b136ea224fe,,,,,,,,,3820,-55,-61,1,0,0,response5disk,,3,-8,-13,1,0,0,rectangle,-8,-13,1,0,0,-8,-13,1,0,0,0,99,99,74,1,,,,,,,,
,,,,,,,,,,,,,FF,,,,,,,,1.011,,,,,,,,,,,,,,,,,,,,,,60fdd2cafe684291d330f316,610369ad2ef4c8c2e0f41258,2021-07-29_22h54.37.263,Simcolourproject_2stim_asymm_v5,2020.2.10,MacIntel,60,61025ae37ef11b136ea224fe,,,,,,,,,743,71,82,1,0,0,response1disk,,7,18,15,1,0,0,rectangle,18,15,1,0,0,18,15,1,0,0,0,100,100,73,1,,,,,,,,
,,,,,,,,,,,,,FF,,,,,,,,1.156,,,,,,,,,,,,,,,,,,,,,,60fdd2cafe684291d330f316,610369ad2ef4c8c2e0f41258,2021-07-29_22h54.37.263,Simcolourproject_2stim_asymm_v5,2020.2.10,MacIntel,60,61025ae37ef11b136ea224fe,,,,,,,,,2605,-31,-74,1,0,0,response5disk,,3,-5,-5,1,0,0,rectangle,-5,-5,1,0,0,-5,-5,1,0,0,0,101,101,7,1,,,,,,,,
,,,,,,,,,,,,,FF,,,,,,,,2.095,,,,,,,,,,,,,,,,,,,,,,60fdd2cafe684291d330f316,610369ad2ef4c8c2e0f41258,2021-07-29_22h54.37.263,Simcolourproject_2stim_asymm_v5,2020.2.10,MacIntel,60,61025ae37ef11b136ea224fe,,,,,,,,,3746,-79,-37,1,0,0,response5disk,,2,-11,-8,1,0,0,rectangle,-68,-33,1,0,0,-2,-8,1,0,0,0,102,102,116,1,,response5disk_3,TRUE,2,2,"[177,83,95,86,207,126,76,20,240,276,34,302,67,92,103,76,147,158,224,149]",1.628,rectangle
,,,,,,,,,,,,,FF,,,,,,,,1.558,,,,,,,,,,,,,,,,,,,,,,60fdd2cafe684291d330f316,610369ad2ef4c8c2e0f41258,2021-07-29_22h54.37.263,Simcolourproject_2stim_asymm_v5,2020.2.10,MacIntel,60,61025ae37ef11b136ea224fe,,,,,,,,,1412,93,47,1,0,0,response1disk,,6,21,6,1,0,0,rectangle,21,6,1,0,0,21,6,1,0,0,0,103,103,27,1,,,,,,,,
,,,,,,,,,,,,,FF,,,,,,,,1.136,,,,,,,,,,,,,,,,,,,,,,60fdd2cafe684291d330f316,610369ad2ef4c8c2e0f41258,2021-07-29_22h54.37.263,Simcolourproject_2stim_asymm_v5,2020.2.10,MacIntel,60,61025ae37ef11b136ea224fe,,,,,,,,,95,-53,-77,1,0,0,response5disk,,3,-8,-1,1,0,0,rectangle,-8,-1,1,0,0,-8,-1,1,0,0,0,104,104,43,1,,,,,,,,
,,,,,,,,,,,,,FF,,,,,,,,2.657,,,,,,,,,,,,,,,,,,,,,,60fdd2cafe684291d330f316,610369ad2ef4c8c2e0f41258,2021-07-29_22h54.37.263,Simcolourproject_2stim_asymm_v5,2020.2.10,MacIntel,60,61025ae37ef11b136ea224fe,,,,,,,,,2210,67,-56,1,0,0,response3disk,,5,2,-7,1,0,0,rectangle,2,-7,1,0,0,2,-7,1,0,0,0,105,105,54,1,,,,,,,,
,,,,,,,,,,,,,FF,,,,,,,,1.113,,,,,,,,,,,,,,,,,,,,,,60fdd2cafe684291d330f316,610369ad2ef4c8c2e0f41258,2021-07-29_22h54.37.263,Simcolourproject_2stim_asymm_v5,2020.2.10,MacIntel,60,61025ae37ef11b136ea224fe,,,,,,,,,279,-29,-90,1,0,0,response5disk,,3,14,-5,1,0,0,rectangle,14,-5,1,0,0,14,-5,1,0,0,0,106,106,92,1,,,,,,,,
,,,,,,,,,,,,,FF,,,,,,,,1.183,,,,,,,,,,,,,,,,,,,,,,60fdd2cafe684291d330f316,610369ad2ef4c8c2e0f41258,2021-07-29_22h54.37.263,Simcolourproject_2stim_asymm_v5,2020.2.10,MacIntel,60,61025ae37ef11b136ea224fe,,,,,,,,,1461,-83,48,1,0,0,response7disk,,1,-20,3,1,0,0,rectangle,-20,3,1,0,0,-20,3,1,0,0,0,107,107,47,1,,,,,,,,
,,,,,,,,,,,,,FF,,,,,,,,0.985,,,,,,,,,,,,,,,,,,,,,,60fdd2cafe684291d330f316,610369ad2ef4c8c2e0f41258,2021-07-29_22h54.37.263,Simcolourproject_2stim_asymm_v5,2020.2.10,MacIntel,60,61025ae37ef11b136ea224fe,,,,,,,,,3261,51,67,1,0,0,response1disk,,7,23,9,1,0,0,rectangle,23,9,1,0,0,23,9,1,0,0,0,108,108,42,1,,,,,,,,
,,,,,,,,,,,,,FF,,,,,,,,1.113,,,,,,,,,,,,,,,,,,,,,,60fdd2cafe684291d330f316,610369ad2ef4c8c2e0f41258,2021-07-29_22h54.37.263,Simcolourproject_2stim_asymm_v5,2020.2.10,MacIntel,60,61025ae37ef11b136ea224fe,,,,,,,,,616,-24,-64,1,0,0,response5disk,,3,-7,-10,1,0,0,rectangle,-7,-10,1,0,0,-7,-10,1,0,0,0,109,109,34,1,,,,,,,,
,,,,,,,,,,,,,FF,,,,,,,,1.022,,,,,,,,,,,,,,,,,,,,,,60fdd2cafe684291d330f316,610369ad2ef4c8c2e0f41258,2021-07-29_22h54.37.263,Simcolourproject_2stim_asymm_v5,2020.2.10,MacIntel,60,61025ae37ef11b136ea224fe,,,,,,,,,2499,71,28,1,0,0,response1disk,,6,21,0,1,0,0,rectangle,21,0,1,0,0,21,0,1,0,0,0,110,110,46,1,,,,,,,,
,,,,,,,,,,,,,FF,,,,,,,,1.023,,,,,,,,,,,,,,,,,,,,,,60fdd2cafe684291d330f316,610369ad2ef4c8c2e0f41258,2021-07-29_22h54.37.263,Simcolourproject_2stim_asymm_v5,2020.2.10,MacIntel,60,61025ae37ef11b136ea224fe,,,,,,,,,2876,52,77,1,0,0,response1disk,,7,14,6,1,0,0,rectangle,14,6,1,0,0,14,6,1,0,0,0,111,111,36,1,,,,,,,,
,,,,,,,,,,,,,FF,,,,,,,,1.043,,,,,,,,,,,,,,,,,,,,,,60fdd2cafe684291d330f316,610369ad2ef4c8c2e0f41258,2021-07-29_22h54.37.263,Simcolourproject_2stim_asymm_v5,2020.2.10,MacIntel,60,61025ae37ef11b136ea224fe,,,,,,,,,1093,55,87,1,0,0,response1disk,,7,7,9,1,0,0,rectangle,7,9,1,0,0,7,9,1,0,0,0,112,112,117,1,,,,,,,,
,,,,,,,,,,,,,FF,,,,,,,,0.758,,,,,,,,,,,,,,,,,,,,,,60fdd2cafe684291d330f316,610369ad2ef4c8c2e0f41258,2021-07-29_22h54.37.263,Simcolourproject_2stim_asymm_v5,2020.2.10,MacIntel,60,61025ae37ef11b136ea224fe,,,,,,,,,3223,45,82,1,0,0,response1disk,,7,11,0,1,0,0,rectangle,11,0,1,0,0,11,0,1,0,0,0,113,113,109,1,,,,,,,,
,,,,,,,,,,,,,FF,,,,,,,,1.011,,,,,,,,,,,,,,,,,,,,,,60fdd2cafe684291d330f316,610369ad2ef4c8c2e0f41258,2021-07-29_22h54.37.263,Simcolourproject_2stim_asymm_v5,2020.2.10,MacIntel,60,61025ae37ef11b136ea224fe,,,,,,,,,4337,-72,-31,1,0,0,response5disk,,2,-16,-9,1,0,0,rectangle,-16,-9,1,0,0,-16,-9,1,0,0,0,114,114,127,1,,,,,,,,
,,,,,,,,,,,,,FF,,,,,,,,0.938,,,,,,,,,,,,,,,,,,,,,,60fdd2cafe684291d330f316,610369ad2ef4c8c2e0f41258,2021-07-29_22h54.37.263,Simcolourproject_2stim_asymm_v5,2020.2.10,MacIntel,60,61025ae37ef11b136ea224fe,,,,,,,,,505,41,73,1,0,0,response1disk,,7,19,15,1,0,0,rectangle,19,15,1,0,0,19,15,1,0,0,0,115,115,120,1,,,,,,,,
,,,,,,,,,,,,,FF,,,,,,,,0.612,,,,,,,,,,,,,,,,,,,,,,60fdd2cafe684291d330f316,610369ad2ef4c8c2e0f41258,2021-07-29_22h54.37.263,Simcolourproject_2stim_asymm_v5,2020.2.10,MacIntel,60,61025ae37ef11b136ea224fe,,,,,,,,,3451,42,66,1,0,0,response1disk,,7,23,-7,1,0,0,rectangle,23,-7,1,0,0,23,-7,1,0,0,0,116,116,105,1,,,,,,,,
,,,,,,,,,,,,,FF,,,,,,,,1.182,,,,,,,,,,,,,,,,,,,,,,60fdd2cafe684291d330f316,610369ad2ef4c8c2e0f41258,2021-07-29_22h54.37.263,Simcolourproject_2stim_asymm_v5,2020.2.10,MacIntel,60,61025ae37ef11b136ea224fe,,,,,,,,,402,42,-89,1,0,0,response3disk,,4,24,3,1,0,0,rectangle,24,3,1,0,0,24,3,1,0,0,0,117,117,33,1,,,,,,,,
,,,,,,,,,,,,,FF,,,,,,,,1.255,,,,,,,,,,,,,,,,,,,,,,60fdd2cafe684291d330f316,610369ad2ef4c8c2e0f41258,2021-07-29_22h54.37.263,Simcolourproject_2stim_asymm_v5,2020.2.10,MacIntel,60,61025ae37ef11b136ea224fe,,,,,,,,,2667,-30,61,1,0,0,response7disk,,0,-27,4,1,0,0,rectangle,-27,4,1,0,0,-27,4,1,0,0,0,118,118,49,1,,,,,,,,
,,,,,,,,,,,,,FF,,,,,,,,1.448,,,,,,,,,,,,,,,,,,,,,,60fdd2cafe684291d330f316,610369ad2ef4c8c2e0f41258,2021-07-29_22h54.37.263,Simcolourproject_2stim_asymm_v5,2020.2.10,MacIntel,60,61025ae37ef11b136ea224fe,,,,,,,,,2679,-39,-67,1,0,0,response5disk,,3,-5,-9,1,0,0,rectangle,-5,-9,1,0,0,-5,-9,1,0,0,0,119,119,118,1,,,,,,,,
,,,,,,,,,,,,,FF,,,,,,,,0.843,,,,,,,,,,,,,,,,,,,,,,60fdd2cafe684291d330f316,610369ad2ef4c8c2e0f41258,2021-07-29_22h54.37.263,Simcolourproject_2stim_asymm_v5,2020.2.10,MacIntel,60,61025ae37ef11b136ea224fe,,,,,,,,,1603,-39,54,1,0,0,response7disk,,0,-14,-14,1,0,0,rectangle,-14,-14,1,0,0,-14,-14,1,0,0,0,120,120,64,1,,,,,,,,
,,,,,,,,,,,,,FF,,,,,,,,1.318,,,,,,,,,,,,,,,,,,,,,,60fdd2cafe684291d330f316,610369ad2ef4c8c2e0f41258,2021-07-29_22h54.37.263,Simcolourproject_2stim_asymm_v5,2020.2.10,MacIntel,60,61025ae37ef11b136ea224fe,,,,,,,,,1756,-32,-78,1,0,0,response5disk,,3,4,-16,1,0,0,rectangle,4,-16,1,0,0,4,-16,1,0,0,0,121,121,125,1,,,,,,,,
,,,,,,,,,,,,,FF,,,,,,,,1.58,,,,,,,,,,,,,,,,,,,,,,60fdd2cafe684291d330f316,610369ad2ef4c8c2e0f41258,2021-07-29_22h54.37.263,Simcolourproject_2stim_asymm_v5,2020.2.10,MacIntel,60,61025ae37ef11b136ea224fe,,,,,,,,,926,52,78,1,0,0,response1disk,,7,32,17,1,0,0,rectangle,32,17,1,0,0,32,17,1,0,0,0,122,122,68,1,,,,,,,,
,,,,,,,,,,,,,FF,,,,,,,,1.329,,,,,,,,,,,,,,,,,,,,,,60fdd2cafe684291d330f316,610369ad2ef4c8c2e0f41258,2021-07-29_22h54.37.263,Simcolourproject_2stim_asymm_v5,2020.2.10,MacIntel,60,61025ae37ef11b136ea224fe,,,,,,,,,67,42,-56,1,0,0,response3disk,,4,21,-8,1,0,0,rectangle,21,-8,1,0,0,21,-8,1,0,0,0,123,123,104,1,,,,,,,,
,,,,,,,,,,,,,FF,,,,,,,,5.153,,,,,,,,,,,,,,,,,,,,,,60fdd2cafe684291d330f316,610369ad2ef4c8c2e0f41258,2021-07-29_22h54.37.263,Simcolourproject_2stim_asymm_v5,2020.2.10,MacIntel,60,61025ae37ef11b136ea224fe,,,,,,,,,3104,53,-86,1,0,0,response3disk,,4,3,-3,1,0,0,rectangle,3,-3,1,0,0,3,-3,1,0,0,0,124,124,103,1,,,,,,,,
,,,,,,,,,,,,,FF,,,,,,,,1.258,,,,,,,,,,,,,,,,,,,,,,60fdd2cafe684291d330f316,610369ad2ef4c8c2e0f41258,2021-07-29_22h54.37.263,Simcolourproject_2stim_asymm_v5,2020.2.10,MacIntel,60,61025ae37ef11b136ea224fe,,,,,,,,,2643,96,31,1,0,0,response1disk,,6,1,4,1,0,0,rectangle,37,108,1,0,0,1,5,1,0,0,0,125,125,24,1,,response1disk_3,TRUE,7,7,"[177,83,95,86,207,126,76,20,240,276,34,302,67,92,103,76,147,158,224,149]",1.717,rectangle
,,,,,,,,,,,,,FF,,,,,,,,1.408,,,,,,,,,,,,,,,,,,,,,,60fdd2cafe684291d330f316,610369ad2ef4c8c2e0f41258,2021-07-29_22h54.37.263,Simcolourproject_2stim_asymm_v5,2020.2.10,MacIntel,60,61025ae37ef11b136ea224fe,,,,,,,,,1394,40,-60,1,0,0,response3disk,,4,-6,11,1,0,0,rectangle,-6,11,1,0,0,-6,11,1,0,0,0,126,126,39,1,,,,,,,,
,,,,,,,,,,,,,FF,,,,,,,,1.611,,,,,,,,,,,,,,,,,,,,,,60fdd2cafe684291d330f316,610369ad2ef4c8c2e0f41258,2021-07-29_22h54.37.263,Simcolourproject_2stim_asymm_v5,2020.2.10,MacIntel,60,61025ae37ef11b136ea224fe,,,,,,,,,1532,-45,-76,1,0,0,response5disk,,3,-2,-6,1,0,0,rectangle,-2,-6,1,0,0,-2,-6,1,0,0,0,127,127,96,1,,,,,,,,
,,,,,,,,,,,,,FF,,,,,,,,0.867,,,,,,,,,,,,,,,,,,,,,,60fdd2cafe684291d330f316,610369ad2ef4c8c2e0f41258,2021-07-29_22h54.37.263,Simcolourproject_2stim_asymm_v5,2020.2.10,MacIntel,60,61025ae37ef11b136ea224fe,,,,,,,,,2073,87,37,1,0,0,response1disk,,6,19,5,1,0,0,rectangle,19,5,1,0,0,19,5,1,0,0,0,128,128,71,1,,,,,,,,
,,,,,,,,,,,,,FF,,,,,,,,1.671,,,,,,,,,,,,,,,,,,,,,,60fdd2cafe684291d330f316,610369ad2ef4c8c2e0f41258,2021-07-29_22h54.37.263,Simcolourproject_2stim_asymm_v5,2020.2.10,MacIntel,60,61025ae37ef11b136ea224fe,,,,,,,,,2994,41,-82,1,0,0,response3disk,,4,22,0,1,0,0,rectangle,22,0,1,0,0,22,0,1,0,0,0,129,129,6,1,,,,,,,,
,,,,,,,,,,,,,FF,,,,,,,,1.25,,,,,,,,,,,,,,,,,,,,,,60fdd2cafe684291d330f316,610369ad2ef4c8c2e0f41258,2021-07-29_22h54.37.263,Simcolourproject_2stim_asymm_v5,2020.2.10,MacIntel,60,61025ae37ef11b136ea224fe,,,,,,,,,377,63,-36,1,0,0,response3disk,,5,19,-2,1,0,0,rectangle,19,-2,1,0,0,19,-2,1,0,0,0,130,130,113,1,,,,,,,,
,,,,,,,,,,,,,FF,,,,,,,,1.047,,,,,,,,,,,,,,,,,,,,,,60fdd2cafe684291d330f316,610369ad2ef4c8c2e0f41258,2021-07-29_22h54.37.263,Simcolourproject_2stim_asymm_v5,2020.2.10,MacIntel,60,61025ae37ef11b136ea224fe,,,,,,,,,3992,51,79,1,0,0,response1disk,,7,13,0,1,0,0,rectangle,13,0,1,0,0,13,0,1,0,0,0,131,131,60,1,,,,,,,,
,,,,,,,,,,,,,FF,,,,,,,,2.118,,,,,,,,,,,,,,,,,,,,,,60fdd2cafe684291d330f316,610369ad2ef4c8c2e0f41258,2021-07-29_22h54.37.263,Simcolourproject_2stim_asymm_v5,2020.2.10,MacIntel,60,61025ae37ef11b136ea224fe,,,,,,,,,1593,71,-32,1,0,0,response3disk,,5,21,-2,1,0,0,rectangle,21,-2,1,0,0,21,-2,1,0,0,0,132,132,32,1,,,,,,,,
,,,,,,,,,,,,,FF,,,,,,,,1.366,,,,,,,,,,,,,,,,,,,,,,60fdd2cafe684291d330f316,610369ad2ef4c8c2e0f41258,2021-07-29_22h54.37.263,Simcolourproject_2stim_asymm_v5,2020.2.10,MacIntel,60,61025ae37ef11b136ea224fe,,,,,,,,,2872,89,31,1,0,0,response1disk,,6,11,4,1,0,0,rectangle,11,4,1,0,0,11,4,1,0,0,0,133,133,11,1,,,,,,,,
,,,,,,,,,,,,,FF,,,,,,,,0.937,,,,,,,,,,,,,,,,,,,,,,60fdd2cafe684291d330f316,610369ad2ef4c8c2e0f41258,2021-07-29_22h54.37.263,Simcolourproject_2stim_asymm_v5,2020.2.10,MacIntel,60,61025ae37ef11b136ea224fe,,,,,,,,,2355,-35,91,1,0,0,response7disk,,0,-15,9,1,0,0,rectangle,-15,9,1,0,0,-15,9,1,0,0,0,134,134,1,1,,,,,,,,
,,,,,,,,,,,,,FF,,,,,,,,1.365,,,,,,,,,,,,,,,,,,,,,,60fdd2cafe684291d330f316,610369ad2ef4c8c2e0f41258,2021-07-29_22h54.37.263,Simcolourproject_2stim_asymm_v5,2020.2.10,MacIntel,60,61025ae37ef11b136ea224fe,,,,,,,,,114,46,79,1,0,0,response1disk,,7,10,6,1,0,0,rectangle,10,6,1,0,0,10,6,1,0,0,0,135,135,157,1,,,,,,,,
,,,,,,,,,,,,,FF,,,,,,,,0.835,,,,,,,,,,,,,,,,,,,,,,60fdd2cafe684291d330f316,610369ad2ef4c8c2e0f41258,2021-07-29_22h54.37.263,Simcolourproject_2stim_asymm_v5,2020.2.10,MacIntel,60,61025ae37ef11b136ea224fe,,,,,,,,,3929,34,71,1,0,0,response1disk,,7,19,11,1,0,0,rectangle,19,11,1,0,0,19,11,1,0,0,0,136,136,55,1,,,,,,,,
,,,,,,,,,,,,,FF,,,,,,,,1.036,,,,,,,,,,,,,,,,,,,,,,60fdd2cafe684291d330f316,610369ad2ef4c8c2e0f41258,2021-07-29_22h54.37.263,Simcolourproject_2stim_asymm_v5,2020.2.10,MacIntel,60,61025ae37ef11b136ea224fe,,,,,,,,,1470,42,76,1,0,0,response1disk,,7,23,14,1,0,0,rectangle,23,14,1,0,0,23,14,1,0,0,0,137,137,3,1,,,,,,,,
,,,,,,,,,,,,,FF,,,,,,,,1.213,,,,,,,,,,,,,,,,,,,,,,60fdd2cafe684291d330f316,610369ad2ef4c8c2e0f41258,2021-07-29_22h54.37.263,Simcolourproject_2stim_asymm_v5,2020.2.10,MacIntel,60,61025ae37ef11b136ea224fe,,,,,,,,,2734,59,-47,1,0,0,response3disk,,5,14,-2,1,0,0,rectangle,14,-2,1,0,0,14,-2,1,0,0,0,138,138,44,1,,,,,,,,
,,,,,,,,,,,,,FF,,,,,,,,1.067,,,,,,,,,,,,,,,,,,,,,,60fdd2cafe684291d330f316,610369ad2ef4c8c2e0f41258,2021-07-29_22h54.37.263,Simcolourproject_2stim_asymm_v5,2020.2.10,MacIntel,60,61025ae37ef11b136ea224fe,,,,,,,,,2844,65,43,1,0,0,response1disk,,6,11,10,1,0,0,rectangle,11,10,1,0,0,11,10,1,0,0,0,139,139,90,1,,,,,,,,
,,,,,,,,,,,,,FF,,,,,,,,1.469,,,,,,,,,,,,,,,,,,,,,,60fdd2cafe684291d330f316,610369ad2ef4c8c2e0f41258,2021-07-29_22h54.37.263,Simcolourproject_2stim_asymm_v5,2020.2.10,MacIntel,60,61025ae37ef11b136ea224fe,,,,,,,,,3743,-46,-55,1,0,0,response5disk,,3,5,-8,1,0,0,rectangle,5,-8,1,0,0,5,-8,1,0,0,0,140,140,22,1,,,,,,,,
,,,,,,,,,,,,,FF,,,,,,,,1.163,,,,,,,,,,,,,,,,,,,,,,60fdd2cafe684291d330f316,610369ad2ef4c8c2e0f41258,2021-07-29_22h54.37.263,Simcolourproject_2stim_asymm_v5,2020.2.10,MacIntel,60,61025ae37ef11b136ea224fe,,,,,,,,,4141,27,-70,1,0,0,response3disk,,4,21,-4,1,0,0,rectangle,21,-4,1,0,0,21,-4,1,0,0,0,141,141,56,1,,,,,,,,
,,,,,,,,,,,,,FF,,,,,,,,1.128,,,,,,,,,,,,,,,,,,,,,,60fdd2cafe684291d330f316,610369ad2ef4c8c2e0f41258,2021-07-29_22h54.37.263,Simcolourproject_2stim_asymm_v5,2020.2.10,MacIntel,60,61025ae37ef11b136ea224fe,,,,,,,,,2303,86,-42,1,0,0,response3disk,,5,19,-10,1,0,0,rectangle,19,-10,1,0,0,19,-10,1,0,0,0,142,142,89,1,,,,,,,,
,,,,,,,,,,,,,FF,,,,,,,,1.538,,,,,,,,,,,,,,,,,,,,,,60fdd2cafe684291d330f316,610369ad2ef4c8c2e0f41258,2021-07-29_22h54.37.263,Simcolourproject_2stim_asymm_v5,2020.2.10,MacIntel,60,61025ae37ef11b136ea224fe,,,,,,,,,3327,73,28,1,0,0,response1disk,,6,12,-2,1,0,0,rectangle,12,-2,1,0,0,12,-2,1,0,0,0,143,143,153,1,,,,,,,,
,,,,,,,,,,,,,FF,,,,,,,,1.652,,,,,,,,,,,,,,,,,,,,,,60fdd2cafe684291d330f316,610369ad2ef4c8c2e0f41258,2021-07-29_22h54.37.263,Simcolourproject_2stim_asymm_v5,2020.2.10,MacIntel,60,61025ae37ef11b136ea224fe,,,,,,,,,2658,48,93,1,0,0,response1disk,,7,24,-8,1,0,0,rectangle,24,-8,1,0,0,24,-8,1,0,0,0,144,144,126,1,,,,,,,,
,,,,,,,,,,,,,FF,,,,,,,,1.813,,,,,,,,,,,,,,,,,,,,,,60fdd2cafe684291d330f316,610369ad2ef4c8c2e0f41258,2021-07-29_22h54.37.263,Simcolourproject_2stim_asymm_v5,2020.2.10,MacIntel,60,61025ae37ef11b136ea224fe,,,,,,,,,1515,83,36,1,0,0,response1disk,,6,33,-5,1,0,0,rectangle,33,-5,1,0,0,33,-5,1,0,0,0,145,145,108,1,,,,,,,,
,,,,,,,,,,,,,FF,,,,,,,,2.228,,,,,,,,,,,,,,,,,,,,,,60fdd2cafe684291d330f316,610369ad2ef4c8c2e0f41258,2021-07-29_22h54.37.263,Simcolourproject_2stim_asymm_v5,2020.2.10,MacIntel,60,61025ae37ef11b136ea224fe,,,,,,,,,3392,-63,-38,1,0,0,response5disk,,2,-6,-7,1,0,0,rectangle,116,-43,1,0,0,7,4,1,0,0,0,146,146,150,1,,response3disk_3,TRUE,5,5,"[177,83,95,86,207,126,76,20,240,276,34,302,67,92,103,76,147,158,224,149]",1.445,rectangle
,,,,,,,,,,,,,FF,,,,,,,,2.98,,,,,,,,,,,,,,,,,,,,,,60fdd2cafe684291d330f316,610369ad2ef4c8c2e0f41258,2021-07-29_22h54.37.263,Simcolourproject_2stim_asymm_v5,2020.2.10,MacIntel,60,61025ae37ef11b136ea224fe,,,,,,,,,3193,42,-60,1,0,0,response3disk,,4,7,-2,1,0,0,rectangle,7,-2,1,0,0,7,-2,1,0,0,0,147,147,18,1,,,,,,,,
,,,,,,,,,,,,,FF,,,,,,,,6.865,,,,,,,,,,,,,,,,,,,,,,60fdd2cafe684291d330f316,610369ad2ef4c8c2e0f41258,2021-07-29_22h54.37.263,Simcolourproject_2stim_asymm_v5,2020.2.10,MacIntel,60,61025ae37ef11b136ea224fe,,,,,,,,,3335,45,-59,1,0,0,response3disk,,4,2,-6,1,0,0,rectangle,-82,44,1,0,0,-20,10,1,0,0,0,148,148,88,1,,response7disk_3,TRUE,1,1,"[177,83,95,86,207,126,76,20,240,276,34,302,67,92,103,76,147,158,224,149]",1.362,rectangle
,,,,,,,,,,,,,FF,,,,,,,,1.04,,,,,,,,,,,,,,,,,,,,,,60fdd2cafe684291d330f316,610369ad2ef4c8c2e0f41258,2021-07-29_22h54.37.263,Simcolourproject_2stim_asymm_v5,2020.2.10,MacIntel,60,61025ae37ef11b136ea224fe,,,,,,,,,3258,78,-40,1,0,0,response3disk,,5,21,-15,1,0,0,rectangle,21,-15,1,0,0,21,-15,1,0,0,0,149,149,85,1,,,,,,,,
,,,,,,,,,,,,,FF,,,,,,,,1.056,,,,,,,,,,,,,,,,,,,,,,60fdd2cafe684291d330f316,610369ad2ef4c8c2e0f41258,2021-07-29_22h54.37.263,Simcolourproject_2stim_asymm_v5,2020.2.10,MacIntel,60,61025ae37ef11b136ea224fe,,,,,,,,,2141,40,78,1,0,0,response1disk,,7,25,-7,1,0,0,rectangle,25,-7,1,0,0,25,-7,1,0,0,0,150,150,65,1,,,,,,,,
,,,,,,,,,,,,,FF,,,,,,,,0.92,,,,,,,,,,,,,,,,,,,,,,60fdd2cafe684291d330f316,610369ad2ef4c8c2e0f41258,2021-07-29_22h54.37.263,Simcolourproject_2stim_asymm_v5,2020.2.10,MacIntel,60,61025ae37ef11b136ea224fe,,,,,,,,,531,-30,-56,1,0,0,response5disk,,3,-19,-9,1,0,0,rectangle,-19,-9,1,0,0,-19,-9,1,0,0,0,151,151,102,1,,,,,,,,
,,,,,,,,,,,,,FF,,,,,,,,0.723,,,,,,,,,,,,,,,,,,,,,,60fdd2cafe684291d330f316,610369ad2ef4c8c2e0f41258,2021-07-29_22h54.37.263,Simcolourproject_2stim_asymm_v5,2020.2.10,MacIntel,60,61025ae37ef11b136ea224fe,,,,,,,,,4315,39,77,1,0,0,response1disk,,7,14,16,1,0,0,rectangle,14,16,1,0,0,14,16,1,0,0,0,152,152,38,1,,,,,,,,
,,,,,,,,,,,,,FF,,,,,,,,0.931,,,,,,,,,,,,,,,,,,,,,,60fdd2cafe684291d330f316,610369ad2ef4c8c2e0f41258,2021-07-29_22h54.37.263,Simcolourproject_2stim_asymm_v5,2020.2.10,MacIntel,60,61025ae37ef11b136ea224fe,,,,,,,,,2769,57,-64,1,0,0,response3disk,,4,26,-4,1,0,0,rectangle,26,-4,1,0,0,26,-4,1,0,0,0,153,153,77,1,,,,,,,,
,,,,,,,,,,,,,FF,,,,,,,,1.182,,,,,,,,,,,,,,,,,,,,,,60fdd2cafe684291d330f316,610369ad2ef4c8c2e0f41258,2021-07-29_22h54.37.263,Simcolourproject_2stim_asymm_v5,2020.2.10,MacIntel,60,61025ae37ef11b136ea224fe,,,,,,,,,2322,56,82,1,0,0,response1disk,,7,16,-9,1,0,0,rectangle,16,-9,1,0,0,16,-9,1,0,0,0,154,154,2,1,,,,,,,,
,,,,,,,,,,,,,FF,,,,,,,,1.915,,,,,,,,,,,,,,,,,,,,,,60fdd2cafe684291d330f316,610369ad2ef4c8c2e0f41258,2021-07-29_22h54.37.263,Simcolourproject_2stim_asymm_v5,2020.2.10,MacIntel,60,61025ae37ef11b136ea224fe,,,,,,,,,2881,71,-42,1,0,0,response3disk,,5,6,7,1,0,0,rectangle,6,7,1,0,0,6,7,1,0,0,0,155,155,48,1,,,,,,,,
,,,,,,,,,,,,,FF,,,,,,,,0.783,,,,,,,,,,,,,,,,,,,,,,60fdd2cafe684291d330f316,610369ad2ef4c8c2e0f41258,2021-07-29_22h54.37.263,Simcolourproject_2stim_asymm_v5,2020.2.10,MacIntel,60,61025ae37ef11b136ea224fe,,,,,,,,,293,33,74,1,0,0,response1disk,,7,9,11,1,0,0,rectangle,9,11,1,0,0,9,11,1,0,0,0,156,156,123,1,,,,,,,,
,,,,,,,,,,,,,FF,,,,,,,,0.687,,,,,,,,,,,,,,,,,,,,,,60fdd2cafe684291d330f316,610369ad2ef4c8c2e0f41258,2021-07-29_22h54.37.263,Simcolourproject_2stim_asymm_v5,2020.2.10,MacIntel,60,61025ae37ef11b136ea224fe,,,,,,,,,2207,37,65,1,0,0,response1disk,,7,19,10,1,0,0,rectangle,36,107,1,0,0,7,6,1,0,0,0,157,157,97,1,,response1disk_3,TRUE,7,7,"[177,83,95,86,207,126,76,20,240,276,34,302,67,92,103,76,147,158,224,149]",1.708,rectangle
,,,,,,,,,,,,,FF,,,,,,,,1.046,,,,,,,,,,,,,,,,,,,,,,60fdd2cafe684291d330f316,610369ad2ef4c8c2e0f41258,2021-07-29_22h54.37.263,Simcolourproject_2stim_asymm_v5,2020.2.10,MacIntel,60,61025ae37ef11b136ea224fe,,,,,,,,,3250,-32,-58,1,0,0,response5disk,,3,-12,-8,1,0,0,rectangle,-12,-8,1,0,0,-12,-8,1,0,0,0,158,158,145,1,,,,,,,,
,,,,,,,,,,,,,FF,,,,,,,,1.43,,,,,,,,,,,,,,,,,,,,,,60fdd2cafe684291d330f316,610369ad2ef4c8c2e0f41258,2021-07-29_22h54.37.263,Simcolourproject_2stim_asymm_v5,2020.2.10,MacIntel,60,61025ae37ef11b136ea224fe,,,,,,,,,925,53,100,1,0,0,response1disk,,7,2,9,1,0,0,rectangle,2,9,1,0,0,2,9,1,0,0,0,159,159,136,1,,,,,,,,
,,,,,,,,,,,,,FF,,,,,,,,1.071,,,,,,,,,,,,,,,,,,,,,,60fdd2cafe684291d330f316,610369ad2ef4c8c2e0f41258,2021-07-29_22h54.37.263,Simcolourproject_2stim_asymm_v5,2020.2.10,MacIntel,60,61025ae37ef11b136ea224fe,,,,,,,,,1458,44,-67,1,0,0,response3disk,,4,20,-5,1,0,0,rectangle,20,-5,1,0,0,20,-5,1,0,0,1,0,160,106,1,,,,,,,,
,,,,,,,,,,,,,FF,,,,,,,,0.833,,,,,,,,,,,,,,,,,,,,,,60fdd2cafe684291d330f316,610369ad2ef4c8c2e0f41258,2021-07-29_22h54.37.263,Simcolourproject_2stim_asymm_v5,2020.2.10,MacIntel,60,61025ae37ef11b136ea224fe,,,,,,,,,2653,31,-54,1,0,0,response3disk,,4,16,-15,1,0,0,rectangle,16,-15,1,0,0,16,-15,1,0,0,1,1,161,94,1,,,,,,,,
,,,,,,,,,,,,,FF,,,,,,,,1.035,,,,,,,,,,,,,,,,,,,,,,60fdd2cafe684291d330f316,610369ad2ef4c8c2e0f41258,2021-07-29_22h54.37.263,Simcolourproject_2stim_asymm_v5,2020.2.10,MacIntel,60,61025ae37ef11b136ea224fe,,,,,,,,,3944,76,-35,1,0,0,response3disk,,5,27,-10,1,0,0,rectangle,27,-10,1,0,0,27,-10,1,0,0,1,2,162,3,1,,,,,,,,
,,,,,,,,,,,,,FF,,,,,,,,0.832,,,,,,,,,,,,,,,,,,,,,,60fdd2cafe684291d330f316,610369ad2ef4c8c2e0f41258,2021-07-29_22h54.37.263,Simcolourproject_2stim_asymm_v5,2020.2.10,MacIntel,60,61025ae37ef11b136ea224fe,,,,,,,,,3916,63,48,1,0,0,response1disk,,6,-3,1,1,0,0,rectangle,-3,1,1,0,0,-3,1,1,0,0,1,3,163,75,1,,,,,,,,
,,,,,,,,,,,,,FF,,,,,,,,1.185,,,,,,,,,,,,,,,,,,,,,,60fdd2cafe684291d330f316,610369ad2ef4c8c2e0f41258,2021-07-29_22h54.37.263,Simcolourproject_2stim_asymm_v5,2020.2.10,MacIntel,60,61025ae37ef11b136ea224fe,,,,,,,,,2026,-38,-67,1,0,0,response5disk,,3,3,-3,1,0,0,rectangle,3,-3,1,0,0,3,-3,1,0,0,1,4,164,120,1,,,,,,,,
,,,,,,,,,,,,,FF,,,,,,,,0.875,,,,,,,,,,,,,,,,,,,,,,60fdd2cafe684291d330f316,610369ad2ef4c8c2e0f41258,2021-07-29_22h54.37.263,Simcolourproject_2stim_asymm_v5,2020.2.10,MacIntel,60,61025ae37ef11b136ea224fe,,,,,,,,,4357,-54,-30,1,0,0,response5disk,,2,-33,3,1,0,0,rectangle,-33,3,1,0,0,-33,3,1,0,0,1,5,165,5,1,,,,,,,,
,,,,,,,,,,,,,FF,,,,,,,,1.462,,,,,,,,,,,,,,,,,,,,,,60fdd2cafe684291d330f316,610369ad2ef4c8c2e0f41258,2021-07-29_22h54.37.263,Simcolourproject_2stim_asymm_v5,2020.2.10,MacIntel,60,61025ae37ef11b136ea224fe,,,,,,,,,916,63,-34,1,0,0,response3disk,,5,10,-6,1,0,0,rectangle,10,-6,1,0,0,10,-6,1,0,0,1,6,166,158,1,,,,,,,,
,,,,,,,,,,,,,FF,,,,,,,,1.064,,,,,,,,,,,,,,,,,,,,,,60fdd2cafe684291d330f316,610369ad2ef4c8c2e0f41258,2021-07-29_22h54.37.263,Simcolourproject_2stim_asymm_v5,2020.2.10,MacIntel,60,61025ae37ef11b136ea224fe,,,,,,,,,3584,-32,-62,1,0,0,response5disk,,3,-12,-14,1,0,0,rectangle,-12,-14,1,0,0,-12,-14,1,0,0,1,7,167,129,1,,,,,,,,
,,,,,,,,,,,,,FF,,,,,,,,0.781,,,,,,,,,,,,,,,,,,,,,,60fdd2cafe684291d330f316,610369ad2ef4c8c2e0f41258,2021-07-29_22h54.37.263,Simcolourproject_2stim_asymm_v5,2020.2.10,MacIntel,60,61025ae37ef11b136ea224fe,,,,,,,,,3358,39,68,1,0,0,response1disk,,7,4,-5,1,0,0,rectangle,4,-5,1,0,0,4,-5,1,0,0,1,8,168,22,1,,,,,,,,
,,,,,,,,,,,,,FF,,,,,,,,0.675,,,,,,,,,,,,,,,,,,,,,,60fdd2cafe684291d330f316,610369ad2ef4c8c2e0f41258,2021-07-29_22h54.37.263,Simcolourproject_2stim_asymm_v5,2020.2.10,MacIntel,60,61025ae37ef11b136ea224fe,,,,,,,,,20,39,80,1,0,0,response1disk,,7,17,15,1,0,0,rectangle,17,15,1,0,0,17,15,1,0,0,1,9,169,44,1,,,,,,,,
,,,,,,,,,,,,,FF,,,,,,,,0.766,,,,,,,,,,,,,,,,,,,,,,60fdd2cafe684291d330f316,610369ad2ef4c8c2e0f41258,2021-07-29_22h54.37.263,Simcolourproject_2stim_asymm_v5,2020.2.10,MacIntel,60,61025ae37ef11b136ea224fe,,,,,,,,,628,40,65,1,0,0,response1disk,,7,16,9,1,0,0,rectangle,16,9,1,0,0,16,9,1,0,0,1,10,170,131,1,,,,,,,,
,,,,,,,,,,,,,FF,,,,,,,,1.399,,,,,,,,,,,,,,,,,,,,,,60fdd2cafe684291d330f316,610369ad2ef4c8c2e0f41258,2021-07-29_22h54.37.263,Simcolourproject_2stim_asymm_v5,2020.2.10,MacIntel,60,61025ae37ef11b136ea224fe,,,,,,,,,3666,28,-49,1,0,0,response3disk,,4,17,-9,1,0,0,rectangle,17,-9,1,0,0,17,-9,1,0,0,1,11,171,35,1,,,,,,,,
,,,,,,,,,,,,,FF,,,,,,,,0.834,,,,,,,,,,,,,,,,,,,,,,60fdd2cafe684291d330f316,610369ad2ef4c8c2e0f41258,2021-07-29_22h54.37.263,Simcolourproject_2stim_asymm_v5,2020.2.10,MacIntel,60,61025ae37ef11b136ea224fe,,,,,,,,,1114,42,52,1,0,0,response1disk,,7,28,-2,1,0,0,rectangle,28,-2,1,0,0,28,-2,1,0,0,1,12,172,34,1,,,,,,,,
,,,,,,,,,,,,,FF,,,,,,,,0.678,,,,,,,,,,,,,,,,,,,,,,60fdd2cafe684291d330f316,610369ad2ef4c8c2e0f41258,2021-07-29_22h54.37.263,Simcolourproject_2stim_asymm_v5,2020.2.10,MacIntel,60,61025ae37ef11b136ea224fe,,,,,,,,,694,41,72,1,0,0,response1disk,,7,22,17,1,0,0,rectangle,22,17,1,0,0,22,17,1,0,0,1,13,173,63,1,,,,,,,,
,,,,,,,,,,,,,FF,,,,,,,,1.123,,,,,,,,,,,,,,,,,,,,,,60fdd2cafe684291d330f316,610369ad2ef4c8c2e0f41258,2021-07-29_22h54.37.263,Simcolourproject_2stim_asymm_v5,2020.2.10,MacIntel,60,61025ae37ef11b136ea224fe,,,,,,,,,1297,-58,-34,1,0,0,response5disk,,2,-14,-1,1,0,0,rectangle,-14,-1,1,0,0,-14,-1,1,0,0,1,14,174,12,1,,,,,,,,
,,,,,,,,,,,,,FF,,,,,,,,0.692,,,,,,,,,,,,,,,,,,,,,,60fdd2cafe684291d330f316,610369ad2ef4c8c2e0f41258,2021-07-29_22h54.37.263,Simcolourproject_2stim_asymm_v5,2020.2.10,MacIntel,60,61025ae37ef11b136ea224fe,,,,,,,,,1182,46,80,1,0,0,response1disk,,7,12,6,1,0,0,rectangle,12,6,1,0,0,12,6,1,0,0,1,15,175,113,1,,,,,,,,
,,,,,,,,,,,,,FF,,,,,,,,0.564,,,,,,,,,,,,,,,,,,,,,,60fdd2cafe684291d330f316,610369ad2ef4c8c2e0f41258,2021-07-29_22h54.37.263,Simcolourproject_2stim_asymm_v5,2020.2.10,MacIntel,60,61025ae37ef11b136ea224fe,,,,,,,,,1512,37,71,1,0,0,response1disk,,7,16,2,1,0,0,rectangle,101,50,1,0,0,12,0,1,0,0,1,16,176,142,1,,response1disk_3,TRUE,6,6,"[177,83,95,86,207,126,76,20,240,276,34,302,67,92,103,76,147,158,224,149]",1.602,rectangle
,,,,,,,,,,,,,FF,,,,,,,,1.582,,,,,,,,,,,,,,,,,,,,,,60fdd2cafe684291d330f316,610369ad2ef4c8c2e0f41258,2021-07-29_22h54.37.263,Simcolourproject_2stim_asymm_v5,2020.2.10,MacIntel,60,61025ae37ef11b136ea224fe,,,,,,,,,2250,34,-61,1,0,0,response3disk,,4,13,-11,1,0,0,rectangle,13,-11,1,0,0,13,-11,1,0,0,1,17,177,66,1,,,,,,,,
,,,,,,,,,,,,,FF,,,,,,,,1.03,,,,,,,,,,,,,,,,,,,,,,60fdd2cafe684291d330f316,610369ad2ef4c8c2e0f41258,2021-07-29_22h54.37.263,Simcolourproject_2stim_asymm_v5,2020.2.10,MacIntel,60,61025ae37ef11b136ea224fe,,,,,,,,,2298,-52,-31,1,0,0,response5disk,,2,-13,-5,1,0,0,rectangle,-13,-5,1,0,0,-13,-5,1,0,0,1,18,178,143,1,,,,,,,,
,,,,,,,,,,,,,FF,,,,,,,,0.806,,,,,,,,,,,,,,,,,,,,,,60fdd2cafe684291d330f316,610369ad2ef4c8c2e0f41258,2021-07-29_22h54.37.263,Simcolourproject_2stim_asymm_v5,2020.2.10,MacIntel,60,61025ae37ef11b136ea224fe,,,,,,,,,3747,-58,-29,1,0,0,response5disk,,2,-15,-8,1,0,0,rectangle,-15,-8,1,0,0,-15,-8,1,0,0,1,19,179,110,1,,,,,,,,
,,,,,,,,,,,,,FF,,,,,,,,0.83,,,,,,,,,,,,,,,,,,,,,,60fdd2cafe684291d330f316,610369ad2ef4c8c2e0f41258,2021-07-29_22h54.37.263,Simcolourproject_2stim_asymm_v5,2020.2.10,MacIntel,60,61025ae37ef11b136ea224fe,,,,,,,,,3506,-29,-62,1,0,0,response5disk,,3,-11,-12,1,0,0,rectangle,-11,-12,1,0,0,-11,-12,1,0,0,1,20,180,135,1,,,,,,,,
,,,,,,,,,,,,,FF,,,,,,,,1.167,,,,,,,,,,,,,,,,,,,,,,60fdd2cafe684291d330f316,610369ad2ef4c8c2e0f41258,2021-07-29_22h54.37.263,Simcolourproject_2stim_asymm_v5,2020.2.10,MacIntel,60,61025ae37ef11b136ea224fe,,,,,,,,,407,43,68,1,0,0,response1disk,,7,2,-4,1,0,0,rectangle,2,-4,1,0,0,2,-4,1,0,0,1,21,181,17,1,,,,,,,,
,,,,,,,,,,,,,FF,,,,,,,,1.064,,,,,,,,,,,,,,,,,,,,,,60fdd2cafe684291d330f316,610369ad2ef4c8c2e0f41258,2021-07-29_22h54.37.263,Simcolourproject_2stim_asymm_v5,2020.2.10,MacIntel,60,61025ae37ef11b136ea224fe,,,,,,,,,1941,52,114,1,0,0,response1disk,,7,9,14,1,0,0,rectangle,9,14,1,0,0,9,14,1,0,0,1,22,182,103,1,,,,,,,,
,,,,,,,,,,,,,FF,,,,,,,,1.207,,,,,,,,,,,,,,,,,,,,,,60fdd2cafe684291d330f316,610369ad2ef4c8c2e0f41258,2021-07-29_22h54.37.263,Simcolourproject_2stim_asymm_v5,2020.2.10,MacIntel,60,61025ae37ef11b136ea224fe,,,,,,,,,1775,87,27,1,0,0,response1disk,,6,25,1,1,0,0,rectangle,25,1,1,0,0,25,1,1,0,0,1,23,183,88,1,,,,,,,,
,,,,,,,,,,,,,FF,,,,,,,,1.393,,,,,,,,,,,,,,,,,,,,,,60fdd2cafe684291d330f316,610369ad2ef4c8c2e0f41258,2021-07-29_22h54.37.263,Simcolourproject_2stim_asymm_v5,2020.2.10,MacIntel,60,61025ae37ef11b136ea224fe,,,,,,,,,553,36,-73,1,0,0,response3disk,,4,29,-17,1,0,0,rectangle,29,-17,1,0,0,29,-17,1,0,0,1,24,184,140,1,,,,,,,,
,,,,,,,,,,,,,FF,,,,,,,,0.879,,,,,,,,,,,,,,,,,,,,,,60fdd2cafe684291d330f316,610369ad2ef4c8c2e0f41258,2021-07-29_22h54.37.263,Simcolourproject_2stim_asymm_v5,2020.2.10,MacIntel,60,61025ae37ef11b136ea224fe,,,,,,,,,3196,-27,-49,1,0,0,response5disk,,3,-4,-7,1,0,0,rectangle,-4,-7,1,0,0,-4,-7,1,0,0,1,25,185,89,1,,,,,,,,
,,,,,,,,,,,,,FF,,,,,,,,0.8,,,,,,,,,,,,,,,,,,,,,,60fdd2cafe684291d330f316,610369ad2ef4c8c2e0f41258,2021-07-29_22h54.37.263,Simcolourproject_2stim_asymm_v5,2020.2.10,MacIntel,60,61025ae37ef11b136ea224fe,,,,,,,,,2266,38,73,1,0,0,response1disk,,7,14,7,1,0,0,rectangle,14,7,1,0,0,14,7,1,0,0,1,26,186,72,1,,,,,,,,
,,,,,,,,,,,,,FF,,,,,,,,1.145,,,,,,,,,,,,,,,,,,,,,,60fdd2cafe684291d330f316,610369ad2ef4c8c2e0f41258,2021-07-29_22h54.37.263,Simcolourproject_2stim_asymm_v5,2020.2.10,MacIntel,60,61025ae37ef11b136ea224fe,,,,,,,,,2156,72,-37,1,0,0,response3disk,,5,31,-9,1,0,0,rectangle,31,-9,1,0,0,31,-9,1,0,0,1,27,187,100,1,,,,,,,,
,,,,,,,,,,,,,FF,,,,,,,,0.853,,,,,,,,,,,,,,,,,,,,,,60fdd2cafe684291d330f316,610369ad2ef4c8c2e0f41258,2021-07-29_22h54.37.263,Simcolourproject_2stim_asymm_v5,2020.2.10,MacIntel,60,61025ae37ef11b136ea224fe,,,,,,,,,1439,33,-69,1,0,0,response3disk,,4,27,-7,1,0,0,rectangle,27,-7,1,0,0,27,-7,1,0,0,1,28,188,144,1,,,,,,,,
,,,,,,,,,,,,,FF,,,,,,,,1.15,,,,,,,,,,,,,,,,,,,,,,60fdd2cafe684291d330f316,610369ad2ef4c8c2e0f41258,2021-07-29_22h54.37.263,Simcolourproject_2stim_asymm_v5,2020.2.10,MacIntel,60,61025ae37ef11b136ea224fe,,,,,,,,,3382,-24,58,1,0,0,response7disk,,0,-4,15,1,0,0,rectangle,-4,15,1,0,0,-4,15,1,0,0,1,29,189,27,1,,,,,,,,
,,,,,,,,,,,,,FF,,,,,,,,0.984,,,,,,,,,,,,,,,,,,,,,,60fdd2cafe684291d330f316,610369ad2ef4c8c2e0f41258,2021-07-29_22h54.37.263,Simcolourproject_2stim_asymm_v5,2020.2.10,MacIntel,60,61025ae37ef11b136ea224fe,,,,,,,,,920,33,84,1,0,0,response1disk,,7,10,12,1,0,0,rectangle,10,12,1,0,0,10,12,1,0,0,1,30,190,117,1,,,,,,,,
,,,,,,,,,,,,,FF,,,,,,,,0.588,,,,,,,,,,,,,,,,,,,,,,60fdd2cafe684291d330f316,610369ad2ef4c8c2e0f41258,2021-07-29_22h54.37.263,Simcolourproject_2stim_asymm_v5,2020.2.10,MacIntel,60,61025ae37ef11b136ea224fe,,,,,,,,,224,32,72,1,0,0,response1disk,,7,26,12,1,0,0,rectangle,26,12,1,0,0,26,12,1,0,0,1,31,191,36,1,,,,,,,,
,,,,,,,,,,,,,FF,,,,,,,,0.538,,,,,,,,,,,,,,,,,,,,,,60fdd2cafe684291d330f316,610369ad2ef4c8c2e0f41258,2021-07-29_22h54.37.263,Simcolourproject_2stim_asymm_v5,2020.2.10,MacIntel,60,61025ae37ef11b136ea224fe,,,,,,,,,324,44,84,1,0,0,response1disk,,7,27,8,1,0,0,rectangle,27,8,1,0,0,27,8,1,0,0,1,32,192,2,1,,,,,,,,
,,,,,,,,,,,,,FF,,,,,,,,1.174,,,,,,,,,,,,,,,,,,,,,,60fdd2cafe684291d330f316,610369ad2ef4c8c2e0f41258,2021-07-29_22h54.37.263,Simcolourproject_2stim_asymm_v5,2020.2.10,MacIntel,60,61025ae37ef11b136ea224fe,,,,,,,,,3439,43,-86,1,0,0,response3disk,,4,27,3,1,0,0,rectangle,27,3,1,0,0,27,3,1,0,0,1,33,193,46,1,,,,,,,,
,,,,,,,,,,,,,FF,,,,,,,,1.531,,,,,,,,,,,,,,,,,,,,,,60fdd2cafe684291d330f316,610369ad2ef4c8c2e0f41258,2021-07-29_22h54.37.263,Simcolourproject_2stim_asymm_v5,2020.2.10,MacIntel,60,61025ae37ef11b136ea224fe,,,,,,,,,1897,28,-48,1,0,0,response3disk,,4,20,-16,1,0,0,rectangle,20,-16,1,0,0,20,-16,1,0,0,1,34,194,74,1,,,,,,,,
,,,,,,,,,,,,,FF,,,,,,,,0.761,,,,,,,,,,,,,,,,,,,,,,60fdd2cafe684291d330f316,610369ad2ef4c8c2e0f41258,2021-07-29_22h54.37.263,Simcolourproject_2stim_asymm_v5,2020.2.10,MacIntel,60,61025ae37ef11b136ea224fe,,,,,,,,,50,35,97,1,0,0,response1disk,,7,11,8,1,0,0,rectangle,11,8,1,0,0,11,8,1,0,0,1,35,195,31,1,,,,,,,,
,,,,,,,,,,,,,FF,,,,,,,,1.567,,,,,,,,,,,,,,,,,,,,,,60fdd2cafe684291d330f316,610369ad2ef4c8c2e0f41258,2021-07-29_22h54.37.263,Simcolourproject_2stim_asymm_v5,2020.2.10,MacIntel,60,61025ae37ef11b136ea224fe,,,,,,,,,3889,88,39,1,0,0,response1disk,,6,12,12,1,0,0,rectangle,12,12,1,0,0,12,12,1,0,0,1,36,196,93,1,,,,,,,,
,,,,,,,,,,,,,FF,,,,,,,,1.175,,,,,,,,,,,,,,,,,,,,,,60fdd2cafe684291d330f316,610369ad2ef4c8c2e0f41258,2021-07-29_22h54.37.263,Simcolourproject_2stim_asymm_v5,2020.2.10,MacIntel,60,61025ae37ef11b136ea224fe,,,,,,,,,3436,42,-65,1,0,0,response3disk,,4,21,-10,1,0,0,rectangle,21,-10,1,0,0,21,-10,1,0,0,1,37,197,87,1,,,,,,,,
,,,,,,,,,,,,,FF,,,,,,,,1.038,,,,,,,,,,,,,,,,,,,,,,60fdd2cafe684291d330f316,610369ad2ef4c8c2e0f41258,2021-07-29_22h54.37.263,Simcolourproject_2stim_asymm_v5,2020.2.10,MacIntel,60,61025ae37ef11b136ea224fe,,,,,,,,,658,35,99,1,0,0,response1disk,,7,14,10,1,0,0,rectangle,14,10,1,0,0,14,10,1,0,0,1,38,198,71,1,,,,,,,,
,,,,,,,,,,,,,FF,,,,,,,,0.545,,,,,,,,,,,,,,,,,,,,,,60fdd2cafe684291d330f316,610369ad2ef4c8c2e0f41258,2021-07-29_22h54.37.263,Simcolourproject_2stim_asymm_v5,2020.2.10,MacIntel,60,61025ae37ef11b136ea224fe,,,,,,,,,579,43,88,1,0,0,response1disk,,7,27,13,1,0,0,rectangle,27,13,1,0,0,27,13,1,0,0,1,39,199,96,1,,,,,,,,
,,,,,,,,,,,,,FF,,,,,,,,0.85,,,,,,,,,,,,,,,,,,,,,,60fdd2cafe684291d330f316,610369ad2ef4c8c2e0f41258,2021-07-29_22h54.37.263,Simcolourproject_2stim_asymm_v5,2020.2.10,MacIntel,60,61025ae37ef11b136ea224fe,,,,,,,,,228,38,66,1,0,0,response1disk,,7,29,12,1,0,0,rectangle,29,12,1,0,0,29,12,1,0,0,1,40,200,6,1,,,,,,,,
,,,,,,,,,,,,,FF,,,,,,,,1.493,,,,,,,,,,,,,,,,,,,,,,60fdd2cafe684291d330f316,610369ad2ef4c8c2e0f41258,2021-07-29_22h54.37.263,Simcolourproject_2stim_asymm_v5,2020.2.10,MacIntel,60,61025ae37ef11b136ea224fe,,,,,,,,,873,53,-72,1,0,0,response3disk,,4,28,-11,1,0,0,rectangle,28,-11,1,0,0,28,-11,1,0,0,1,41,201,50,1,,,,,,,,
,,,,,,,,,,,,,FF,,,,,,,,1.063,,,,,,,,,,,,,,,,,,,,,,60fdd2cafe684291d330f316,610369ad2ef4c8c2e0f41258,2021-07-29_22h54.37.263,Simcolourproject_2stim_asymm_v5,2020.2.10,MacIntel,60,61025ae37ef11b136ea224fe,,,,,,,,,911,55,41,1,0,0,response1disk,,6,-5,4,1,0,0,rectangle,-5,4,1,0,0,-5,4,1,0,0,1,42,202,125,1,,,,,,,,
,,,,,,,,,,,,,FF,,,,,,,,0.542,,,,,,,,,,,,,,,,,,,,,,60fdd2cafe684291d330f316,610369ad2ef4c8c2e0f41258,2021-07-29_22h54.37.263,Simcolourproject_2stim_asymm_v5,2020.2.10,MacIntel,60,61025ae37ef11b136ea224fe,,,,,,,,,3447,27,71,1,0,0,response1disk,,7,19,-5,1,0,0,rectangle,19,-5,1,0,0,19,-5,1,0,0,1,43,203,73,1,,,,,,,,
,,,,,,,,,,,,,FF,,,,,,,,0.794,,,,,,,,,,,,,,,,,,,,,,60fdd2cafe684291d330f316,610369ad2ef4c8c2e0f41258,2021-07-29_22h54.37.263,Simcolourproject_2stim_asymm_v5,2020.2.10,MacIntel,60,61025ae37ef11b136ea224fe,,,,,,,,,1654,39,86,1,0,0,response1disk,,7,23,3,1,0,0,rectangle,23,3,1,0,0,23,3,1,0,0,1,44,204,20,1,,,,,,,,
,,,,,,,,,,,,,FF,,,,,,,,0.704,,,,,,,,,,,,,,,,,,,,,,60fdd2cafe684291d330f316,610369ad2ef4c8c2e0f41258,2021-07-29_22h54.37.263,Simcolourproject_2stim_asymm_v5,2020.2.10,MacIntel,60,61025ae37ef11b136ea224fe,,,,,,,,,2185,32,73,1,0,0,response1disk,,7,23,13,1,0,0,rectangle,23,13,1,0,0,23,13,1,0,0,1,45,205,25,1,,,,,,,,
,,,,,,,,,,,,,FF,,,,,,,,0.676,,,,,,,,,,,,,,,,,,,,,,60fdd2cafe684291d330f316,610369ad2ef4c8c2e0f41258,2021-07-29_22h54.37.263,Simcolourproject_2stim_asymm_v5,2020.2.10,MacIntel,60,61025ae37ef11b136ea224fe,,,,,,,,,1074,42,87,1,0,0,response1disk,,7,26,-1,1,0,0,rectangle,33,-96,1,0,0,15,2,1,0,0,1,46,206,32,1,,response3disk_3,TRUE,4,4,"[177,83,95,86,207,126,76,20,240,276,34,302,67,92,103,76,147,158,224,149]",1.439,rectangle
,,,,,,,,,,,,,FF,,,,,,,,1.424,,,,,,,,,,,,,,,,,,,,,,60fdd2cafe684291d330f316,610369ad2ef4c8c2e0f41258,2021-07-29_22h54.37.263,Simcolourproject_2stim_asymm_v5,2020.2.10,MacIntel,60,61025ae37ef11b136ea224fe,,,,,,,,,3443,64,-32,1,0,0,response3disk,,5,11,-8,1,0,0,rectangle,11,-8,1,0,0,11,-8,1,0,0,1,47,207,52,1,,,,,,,,
,,,,,,,,,,,,,FF,,,,,,,,0.983,,,,,,,,,,,,,,,,,,,,,,60fdd2cafe684291d330f316,610369ad2ef4c8c2e0f41258,2021-07-29_22h54.37.263,Simcolourproject_2stim_asymm_v5,2020.2.10,MacIntel,60,61025ae37ef11b136ea224fe,,,,,,,,,348,-55,27,1,0,0,response7disk,,1,6,9,1,0,0,rectangle,6,9,1,0,0,6,9,1,0,0,1,48,208,155,1,,,,,,,,
,,,,,,,,,,,,,FF,,,,,,,,0.949,,,,,,,,,,,,,,,,,,,,,,60fdd2cafe684291d330f316,610369ad2ef4c8c2e0f41258,2021-07-29_22h54.37.263,Simcolourproject_2stim_asymm_v5,2020.2.10,MacIntel,60,61025ae37ef11b136ea224fe,,,,,,,,,1040,-30,-55,1,0,0,response5disk,,3,1,-17,1,0,0,rectangle,1,-17,1,0,0,1,-17,1,0,0,1,49,209,138,1,,,,,,,,
,,,,,,,,,,,,,FF,,,,,,,,1.175,,,,,,,,,,,,,,,,,,,,,,60fdd2cafe684291d330f316,610369ad2ef4c8c2e0f41258,2021-07-29_22h54.37.263,Simcolourproject_2stim_asymm_v5,2020.2.10,MacIntel,60,61025ae37ef11b136ea224fe,,,,,,,,,3165,59,36,1,0,0,response1disk,,6,-2,-4,1,0,0,rectangle,-2,-4,1,0,0,-2,-4,1,0,0,1,50,210,81,1,,,,,,,,
,,,,,,,,,,,,,FF,,,,,,,,1.117,,,,,,,,,,,,,,,,,,,,,,60fdd2cafe684291d330f316,610369ad2ef4c8c2e0f41258,2021-07-29_22h54.37.263,Simcolourproject_2stim_asymm_v5,2020.2.10,MacIntel,60,61025ae37ef11b136ea224fe,,,,,,,,,2369,94,-35,1,0,0,response3disk,,5,12,-8,1,0,0,rectangle,12,-8,1,0,0,12,-8,1,0,0,1,51,211,7,1,,,,,,,,
,,,,,,,,,,,,,FF,,,,,,,,0.859,,,,,,,,,,,,,,,,,,,,,,60fdd2cafe684291d330f316,610369ad2ef4c8c2e0f41258,2021-07-29_22h54.37.263,Simcolourproject_2stim_asymm_v5,2020.2.10,MacIntel,60,61025ae37ef11b136ea224fe,,,,,,,,,383,81,-43,1,0,0,response3disk,,5,27,-6,1,0,0,rectangle,27,-6,1,0,0,27,-6,1,0,0,1,52,212,65,1,,,,,,,,
,,,,,,,,,,,,,FF,,,,,,,,0.83,,,,,,,,,,,,,,,,,,,,,,60fdd2cafe684291d330f316,610369ad2ef4c8c2e0f41258,2021-07-29_22h54.37.263,Simcolourproject_2stim_asymm_v5,2020.2.10,MacIntel,60,61025ae37ef11b136ea224fe,,,,,,,,,1212,-34,-57,1,0,0,response5disk,,3,-14,-14,1,0,0,rectangle,-14,-14,1,0,0,-14,-14,1,0,0,1,53,213,116,1,,,,,,,,
,,,,,,,,,,,,,FF,,,,,,,,1.395,,,,,,,,,,,,,,,,,,,,,,60fdd2cafe684291d330f316,610369ad2ef4c8c2e0f41258,2021-07-29_22h54.37.263,Simcolourproject_2stim_asymm_v5,2020.2.10,MacIntel,60,61025ae37ef11b136ea224fe,,,,,,,,,3588,-36,-55,1,0,0,response5disk,,3,-21,-2,1,0,0,rectangle,-21,-2,1,0,0,-21,-2,1,0,0,1,54,214,149,1,,,,,,,,
,,,,,,,,,,,,,FF,,,,,,,,0.913,,,,,,,,,,,,,,,,,,,,,,60fdd2cafe684291d330f316,610369ad2ef4c8c2e0f41258,2021-07-29_22h54.37.263,Simcolourproject_2stim_asymm_v5,2020.2.10,MacIntel,60,61025ae37ef11b136ea224fe,,,,,,,,,3683,75,-23,1,0,0,response3disk,,5,10,3,1,0,0,rectangle,10,3,1,0,0,10,3,1,0,0,1,55,215,29,1,,,,,,,,
,,,,,,,,,,,,,FF,,,,,,,,1.464,,,,,,,,,,,,,,,,,,,,,,60fdd2cafe684291d330f316,610369ad2ef4c8c2e0f41258,2021-07-29_22h54.37.263,Simcolourproject_2stim_asymm_v5,2020.2.10,MacIntel,60,61025ae37ef11b136ea224fe,,,,,,,,,4012,19,58,1,0,0,response1disk,,7,5,9,1,0,0,rectangle,5,9,1,0,0,5,9,1,0,0,1,56,216,47,1,,,,,,,,
,,,,,,,,,,,,,FF,,,,,,,,0.682,,,,,,,,,,,,,,,,,,,,,,60fdd2cafe684291d330f316,610369ad2ef4c8c2e0f41258,2021-07-29_22h54.37.263,Simcolourproject_2stim_asymm_v5,2020.2.10,MacIntel,60,61025ae37ef11b136ea224fe,,,,,,,,,3222,21,73,1,0,0,response1disk,,7,12,-5,1,0,0,rectangle,12,-5,1,0,0,12,-5,1,0,0,1,57,217,91,1,,,,,,,,
,,,,,,,,,,,,,FF,,,,,,,,0.568,,,,,,,,,,,,,,,,,,,,,,60fdd2cafe684291d330f316,610369ad2ef4c8c2e0f41258,2021-07-29_22h54.37.263,Simcolourproject_2stim_asymm_v5,2020.2.10,MacIntel,60,61025ae37ef11b136ea224fe,,,,,,,,,3833,38,58,1,0,0,response1disk,,7,23,9,1,0,0,rectangle,23,9,1,0,0,23,9,1,0,0,1,58,218,37,1,,,,,,,,
,,,,,,,,,,,,,FF,,,,,,,,1.02,,,,,,,,,,,,,,,,,,,,,,60fdd2cafe684291d330f316,610369ad2ef4c8c2e0f41258,2021-07-29_22h54.37.263,Simcolourproject_2stim_asymm_v5,2020.2.10,MacIntel,60,61025ae37ef11b136ea224fe,,,,,,,,,2823,38,-88,1,0,0,response3disk,,4,26,-8,1,0,0,rectangle,26,-8,1,0,0,26,-8,1,0,0,1,59,219,60,1,,,,,,,,
,,,,,,,,,,,,,FF,,,,,,,,0.884,,,,,,,,,,,,,,,,,,,,,,60fdd2cafe684291d330f316,610369ad2ef4c8c2e0f41258,2021-07-29_22h54.37.263,Simcolourproject_2stim_asymm_v5,2020.2.10,MacIntel,60,61025ae37ef11b136ea224fe,,,,,,,,,2996,-26,-68,1,0,0,response5disk,,3,-1,-8,1,0,0,rectangle,-1,-8,1,0,0,-1,-8,1,0,0,1,60,220,28,1,,,,,,,,
,,,,,,,,,,,,,FF,,,,,,,,0.937,,,,,,,,,,,,,,,,,,,,,,60fdd2cafe684291d330f316,610369ad2ef4c8c2e0f41258,2021-07-29_22h54.37.263,Simcolourproject_2stim_asymm_v5,2020.2.10,MacIntel,60,61025ae37ef11b136ea224fe,,,,,,,,,2478,38,81,1,0,0,response1disk,,7,14,7,1,0,0,rectangle,14,7,1,0,0,14,7,1,0,0,1,61,221,104,1,,,,,,,,
,,,,,,,,,,,,,FF,,,,,,,,0.714,,,,,,,,,,,,,,,,,,,,,,60fdd2cafe684291d330f316,610369ad2ef4c8c2e0f41258,2021-07-29_22h54.37.263,Simcolourproject_2stim_asymm_v5,2020.2.10,MacIntel,60,61025ae37ef11b136ea224fe,,,,,,,,,1117,41,84,1,0,0,response1disk,,7,27,-1,1,0,0,rectangle,27,-1,1,0,0,27,-1,1,0,0,1,62,222,10,1,,,,,,,,
,,,,,,,,,,,,,FF,,,,,,,,0.551,,,,,,,,,,,,,,,,,,,,,,60fdd2cafe684291d330f316,610369ad2ef4c8c2e0f41258,2021-07-29_22h54.37.263,Simcolourproject_2stim_asymm_v5,2020.2.10,MacIntel,60,61025ae37ef11b136ea224fe,,,,,,,,,3893,38,70,1,0,0,response1disk,,7,24,1,1,0,0,rectangle,-78,34,1,0,0,-4,8,1,0,0,1,63,223,84,1,,response7disk_3,TRUE,1,1,"[177,83,95,86,207,126,76,20,240,276,34,302,67,92,103,76,147,158,224,149]",1.465,rectangle
,,,,,,,,,,,,,FF,,,,,,,,1.285,,,,,,,,,,,,,,,,,,,,,,60fdd2cafe684291d330f316,610369ad2ef4c8c2e0f41258,2021-07-29_22h54.37.263,Simcolourproject_2stim_asymm_v5,2020.2.10,MacIntel,60,61025ae37ef11b136ea224fe,,,,,,,,,1893,-96,50,1,0,0,response7disk,,1,-12,7,1,0,0,rectangle,-12,7,1,0,0,-12,7,1,0,0,1,64,224,137,1,,,,,,,,
,,,,,,,,,,,,,FF,,,,,,,,1.57,,,,,,,,,,,,,,,,,,,,,,60fdd2cafe684291d330f316,610369ad2ef4c8c2e0f41258,2021-07-29_22h54.37.263,Simcolourproject_2stim_asymm_v5,2020.2.10,MacIntel,60,61025ae37ef11b136ea224fe,,,,,,,,,2740,25,64,1,0,0,response1disk,,7,3,-10,1,0,0,rectangle,3,-10,1,0,0,3,-10,1,0,0,1,65,225,102,1,,,,,,,,
,,,,,,,,,,,,,FF,,,,,,,,1.208,,,,,,,,,,,,,,,,,,,,,,60fdd2cafe684291d330f316,610369ad2ef4c8c2e0f41258,2021-07-29_22h54.37.263,Simcolourproject_2stim_asymm_v5,2020.2.10,MacIntel,60,61025ae37ef11b136ea224fe,,,,,,,,,1896,-57,-30,1,0,0,response5disk,,2,7,-8,1,0,0,rectangle,7,-8,1,0,0,7,-8,1,0,0,1,66,226,57,1,,,,,,,,
,,,,,,,,,,,,,FF,,,,,,,,0.833,,,,,,,,,,,,,,,,,,,,,,60fdd2cafe684291d330f316,610369ad2ef4c8c2e0f41258,2021-07-29_22h54.37.263,Simcolourproject_2stim_asymm_v5,2020.2.10,MacIntel,60,61025ae37ef11b136ea224fe,,,,,,,,,374,-37,-49,1,0,0,response5disk,,3,12,-3,1,0,0,rectangle,12,-3,1,0,0,12,-3,1,0,0,1,67,227,58,1,,,,,,,,
,,,,,,,,,,,,,FF,,,,,,,,0.93,,,,,,,,,,,,,,,,,,,,,,60fdd2cafe684291d330f316,610369ad2ef4c8c2e0f41258,2021-07-29_22h54.37.263,Simcolourproject_2stim_asymm_v5,2020.2.10,MacIntel,60,61025ae37ef11b136ea224fe,,,,,,,,,1255,29,70,1,0,0,response1disk,,7,14,0,1,0,0,rectangle,14,0,1,0,0,14,0,1,0,0,1,68,228,55,1,,,,,,,,
,,,,,,,,,,,,,FF,,,,,,,,1.489,,,,,,,,,,,,,,,,,,,,,,60fdd2cafe684291d330f316,610369ad2ef4c8c2e0f41258,2021-07-29_22h54.37.263,Simcolourproject_2stim_asymm_v5,2020.2.10,MacIntel,60,61025ae37ef11b136ea224fe,,,,,,,,,99,67,35,1,0,0,response1disk,,6,7,11,1,0,0,rectangle,7,11,1,0,0,7,11,1,0,0,1,69,229,121,1,,,,,,,,
,,,,,,,,,,,,,FF,,,,,,,,0.683,,,,,,,,,,,,,,,,,,,,,,60fdd2cafe684291d330f316,610369ad2ef4c8c2e0f41258,2021-07-29_22h54.37.263,Simcolourproject_2stim_asymm_v5,2020.2.10,MacIntel,60,61025ae37ef11b136ea224fe,,,,,,,,,2539,31,87,1,0,0,response1disk,,7,11,9,1,0,0,rectangle,11,9,1,0,0,11,9,1,0,0,1,70,230,107,1,,,,,,,,
,,,,,,,,,,,,,FF,,,,,,,,1.187,,,,,,,,,,,,,,,,,,,,,,60fdd2cafe684291d330f316,610369ad2ef4c8c2e0f41258,2021-07-29_22h54.37.263,Simcolourproject_2stim_asymm_v5,2020.2.10,MacIntel,60,61025ae37ef11b136ea224fe,,,,,,,,,460,74,-41,1,0,0,response3disk,,5,7,-15,1,0,0,rectangle,7,-15,1,0,0,7,-15,1,0,0,1,71,231,101,1,,,,,,,,
,,,,,,,,,,,,,FF,,,,,,,,0.902,,,,,,,,,,,,,,,,,,,,,,60fdd2cafe684291d330f316,610369ad2ef4c8c2e0f41258,2021-07-29_22h54.37.263,Simcolourproject_2stim_asymm_v5,2020.2.10,MacIntel,60,61025ae37ef11b136ea224fe,,,,,,,,,4235,-30,68,1,0,0,response7disk,,0,-3,0,1,0,0,rectangle,-3,0,1,0,0,-3,0,1,0,0,1,72,232,53,1,,,,,,,,
,,,,,,,,,,,,,FF,,,,,,,,1.253,,,,,,,,,,,,,,,,,,,,,,60fdd2cafe684291d330f316,610369ad2ef4c8c2e0f41258,2021-07-29_22h54.37.263,Simcolourproject_2stim_asymm_v5,2020.2.10,MacIntel,60,61025ae37ef11b136ea224fe,,,,,,,,,563,24,-49,1,0,0,response3disk,,4,3,-9,1,0,0,rectangle,3,-9,1,0,0,3,-9,1,0,0,1,73,233,123,1,,,,,,,,
,,,,,,,,,,,,,FF,,,,,,,,0.823,,,,,,,,,,,,,,,,,,,,,,60fdd2cafe684291d330f316,610369ad2ef4c8c2e0f41258,2021-07-29_22h54.37.263,Simcolourproject_2stim_asymm_v5,2020.2.10,MacIntel,60,61025ae37ef11b136ea224fe,,,,,,,,,174,36,-63,1,0,0,response3disk,,4,15,-13,1,0,0,rectangle,15,-13,1,0,0,15,-13,1,0,0,1,74,234,150,1,,,,,,,,
,,,,,,,,,,,,,FF,,,,,,,,1.201,,,,,,,,,,,,,,,,,,,,,,60fdd2cafe684291d330f316,610369ad2ef4c8c2e0f41258,2021-07-29_22h54.37.263,Simcolourproject_2stim_asymm_v5,2020.2.10,MacIntel,60,61025ae37ef11b136ea224fe,,,,,,,,,2169,72,-34,1,0,0,response3disk,,5,12,2,1,0,0,rectangle,12,2,1,0,0,12,2,1,0,0,1,75,235,126,1,,,,,,,,
,,,,,,,,,,,,,FF,,,,,,,,0.764,,,,,,,,,,,,,,,,,,,,,,60fdd2cafe684291d330f316,610369ad2ef4c8c2e0f41258,2021-07-29_22h54.37.263,Simcolourproject_2stim_asymm_v5,2020.2.10,MacIntel,60,61025ae37ef11b136ea224fe,,,,,,,,,3603,26,97,1,0,0,response1disk,,7,18,6,1,0,0,rectangle,18,6,1,0,0,18,6,1,0,0,1,76,236,24,1,,,,,,,,
,,,,,,,,,,,,,FF,,,,,,,,1.063,,,,,,,,,,,,,,,,,,,,,,60fdd2cafe684291d330f316,610369ad2ef4c8c2e0f41258,2021-07-29_22h54.37.263,Simcolourproject_2stim_asymm_v5,2020.2.10,MacIntel,60,61025ae37ef11b136ea224fe,,,,,,,,,3353,39,78,1,0,0,response1disk,,7,16,-7,1,0,0,rectangle,16,-7,1,0,0,16,-7,1,0,0,1,77,237,48,1,,,,,,,,
,,,,,,,,,,,,,FF,,,,,,,,1.802,,,,,,,,,,,,,,,,,,,,,,60fdd2cafe684291d330f316,610369ad2ef4c8c2e0f41258,2021-07-29_22h54.37.263,Simcolourproject_2stim_asymm_v5,2020.2.10,MacIntel,60,61025ae37ef11b136ea224fe,,,,,,,,,2705,52,67,1,0,0,response1disk,,7,14,1,1,0,0,rectangle,14,1,1,0,0,14,1,1,0,0,1,78,238,38,1,,,,,,,,
,,,,,,,,,,,,,FF,,,,,,,,0.887,,,,,,,,,,,,,,,,,,,,,,60fdd2cafe684291d330f316,610369ad2ef4c8c2e0f41258,2021-07-29_22h54.37.263,Simcolourproject_2stim_asymm_v5,2020.2.10,MacIntel,60,61025ae37ef11b136ea224fe,,,,,,,,,786,32,74,1,0,0,response1disk,,7,17,6,1,0,0,rectangle,-70,32,1,0,0,-1,5,1,0,0,1,79,239,112,1,,response7disk_3,TRUE,1,1,"[177,83,95,86,207,126,76,20,240,276,34,302,67,92,103,76,147,158,224,149]",1.314,rectangle
,,,,,,,,,,,,,FF,,,,,,,,0.843,,,,,,,,,,,,,,,,,,,,,,60fdd2cafe684291d330f316,610369ad2ef4c8c2e0f41258,2021-07-29_22h54.37.263,Simcolourproject_2stim_asymm_v5,2020.2.10,MacIntel,60,61025ae37ef11b136ea224fe,,,,,,,,,2311,24,70,1,0,0,response1disk,,7,4,-1,1,0,0,rectangle,4,-1,1,0,0,4,-1,1,0,0,1,80,240,33,1,,,,,,,,
,,,,,,,,,,,,,FF,,,,,,,,1.016,,,,,,,,,,,,,,,,,,,,,,60fdd2cafe684291d330f316,610369ad2ef4c8c2e0f41258,2021-07-29_22h54.37.263,Simcolourproject_2stim_asymm_v5,2020.2.10,MacIntel,60,61025ae37ef11b136ea224fe,,,,,,,,,215,83,35,1,0,0,response1disk,,6,5,-8,1,0,0,rectangle,5,-8,1,0,0,5,-8,1,0,0,1,81,241,148,1,,,,,,,,
,,,,,,,,,,,,,FF,,,,,,,,0.918,,,,,,,,,,,,,,,,,,,,,,60fdd2cafe684291d330f316,610369ad2ef4c8c2e0f41258,2021-07-29_22h54.37.263,Simcolourproject_2stim_asymm_v5,2020.2.10,MacIntel,60,61025ae37ef11b136ea224fe,,,,,,,,,315,42,93,1,0,0,response1disk,,7,19,15,1,0,0,rectangle,19,15,1,0,0,19,15,1,0,0,1,82,242,67,1,,,,,,,,
,,,,,,,,,,,,,FF,,,,,,,,0.986,,,,,,,,,,,,,,,,,,,,,,60fdd2cafe684291d330f316,610369ad2ef4c8c2e0f41258,2021-07-29_22h54.37.263,Simcolourproject_2stim_asymm_v5,2020.2.10,MacIntel,60,61025ae37ef11b136ea224fe,,,,,,,,,82,-25,-70,1,0,0,response5disk,,3,-2,-11,1,0,0,rectangle,-2,-11,1,0,0,-2,-11,1,0,0,1,83,243,59,1,,,,,,,,
,,,,,,,,,,,,,FF,,,,,,,,1.365,,,,,,,,,,,,,,,,,,,,,,60fdd2cafe684291d330f316,610369ad2ef4c8c2e0f41258,2021-07-29_22h54.37.263,Simcolourproject_2stim_asymm_v5,2020.2.10,MacIntel,60,61025ae37ef11b136ea224fe,,,,,,,,,1029,62,-41,1,0,0,response3disk,,5,16,-15,1,0,0,rectangle,16,-15,1,0,0,16,-15,1,0,0,1,84,244,134,1,,,,,,,,
,,,,,,,,,,,,,FF,,,,,,,,1.387,,,,,,,,,,,,,,,,,,,,,,60fdd2cafe684291d330f316,610369ad2ef4c8c2e0f41258,2021-07-29_22h54.37.263,Simcolourproject_2stim_asymm_v5,2020.2.10,MacIntel,60,61025ae37ef11b136ea224fe,,,,,,,,,725,56,-36,1,0,0,response3disk,,5,21,-4,1,0,0,rectangle,21,-4,1,0,0,21,-4,1,0,0,1,85,245,136,1,,,,,,,,
,,,,,,,,,,,,,FF,,,,,,,,0.811,,,,,,,,,,,,,,,,,,,,,,60fdd2cafe684291d330f316,610369ad2ef4c8c2e0f41258,2021-07-29_22h54.37.263,Simcolourproject_2stim_asymm_v5,2020.2.10,MacIntel,60,61025ae37ef11b136ea224fe,,,,,,,,,1477,39,63,1,0,0,response1disk,,7,24,-9,1,0,0,rectangle,24,-9,1,0,0,24,-9,1,0,0,1,86,246,122,1,,,,,,,,
,,,,,,,,,,,,,FF,,,,,,,,0.832,,,,,,,,,,,,,,,,,,,,,,60fdd2cafe684291d330f316,610369ad2ef4c8c2e0f41258,2021-07-29_22h54.37.263,Simcolourproject_2stim_asymm_v5,2020.2.10,MacIntel,60,61025ae37ef11b136ea224fe,,,,,,,,,1894,-41,-50,1,0,0,response5disk,,3,-3,-5,1,0,0,rectangle,-3,-5,1,0,0,-3,-5,1,0,0,1,87,247,115,1,,,,,,,,
,,,,,,,,,,,,,FF,,,,,,,,0.787,,,,,,,,,,,,,,,,,,,,,,60fdd2cafe684291d330f316,610369ad2ef4c8c2e0f41258,2021-07-29_22h54.37.263,Simcolourproject_2stim_asymm_v5,2020.2.10,MacIntel,60,61025ae37ef11b136ea224fe,,,,,,,,,2193,40,73,1,0,0,response1disk,,7,11,-6,1,0,0,rectangle,11,-6,1,0,0,11,-6,1,0,0,1,88,248,118,1,,,,,,,,
,,,,,,,,,,,,,FF,,,,,,,,1.287,,,,,,,,,,,,,,,,,,,,,,60fdd2cafe684291d330f316,610369ad2ef4c8c2e0f41258,2021-07-29_22h54.37.263,Simcolourproject_2stim_asymm_v5,2020.2.10,MacIntel,60,61025ae37ef11b136ea224fe,,,,,,,,,2188,60,34,1,0,0,response1disk,,6,4,-1,1,0,0,rectangle,4,-1,1,0,0,4,-1,1,0,0,1,89,249,139,1,,,,,,,,
,,,,,,,,,,,,,FF,,,,,,,,1.048,,,,,,,,,,,,,,,,,,,,,,60fdd2cafe684291d330f316,610369ad2ef4c8c2e0f41258,2021-07-29_22h54.37.263,Simcolourproject_2stim_asymm_v5,2020.2.10,MacIntel,60,61025ae37ef11b136ea224fe,,,,,,,,,3341,39,-62,1,0,0,response3disk,,4,19,-10,1,0,0,rectangle,19,-10,1,0,0,19,-10,1,0,0,1,90,250,11,1,,,,,,,,
,,,,,,,,,,,,,FF,,,,,,,,0.72,,,,,,,,,,,,,,,,,,,,,,60fdd2cafe684291d330f316,610369ad2ef4c8c2e0f41258,2021-07-29_22h54.37.263,Simcolourproject_2stim_asymm_v5,2020.2.10,MacIntel,60,61025ae37ef11b136ea224fe,,,,,,,,,1772,38,64,1,0,0,response1disk,,7,20,9,1,0,0,rectangle,20,9,1,0,0,20,9,1,0,0,1,91,251,49,1,,,,,,,,
,,,,,,,,,,,,,FF,,,,,,,,0.983,,,,,,,,,,,,,,,,,,,,,,60fdd2cafe684291d330f316,610369ad2ef4c8c2e0f41258,2021-07-29_22h54.37.263,Simcolourproject_2stim_asymm_v5,2020.2.10,MacIntel,60,61025ae37ef11b136ea224fe,,,,,,,,,1925,49,95,1,0,0,response1disk,,7,21,16,1,0,0,rectangle,21,16,1,0,0,21,16,1,0,0,1,92,252,111,1,,,,,,,,
,,,,,,,,,,,,,FF,,,,,,,,0.691,,,,,,,,,,,,,,,,,,,,,,60fdd2cafe684291d330f316,610369ad2ef4c8c2e0f41258,2021-07-29_22h54.37.263,Simcolourproject_2stim_asymm_v5,2020.2.10,MacIntel,60,61025ae37ef11b136ea224fe,,,,,,,,,777,42,82,1,0,0,response1disk,,7,26,6,1,0,0,rectangle,26,6,1,0,0,26,6,1,0,0,1,93,253,92,1,,,,,,,,
,,,,,,,,,,,,,FF,,,,,,,,0.952,,,,,,,,,,,,,,,,,,,,,,60fdd2cafe684291d330f316,610369ad2ef4c8c2e0f41258,2021-07-29_22h54.37.263,Simcolourproject_2stim_asymm_v5,2020.2.10,MacIntel,60,61025ae37ef11b136ea224fe,,,,,,,,,1530,-21,-44,1,0,0,response5disk,,3,-5,-13,1,0,0,rectangle,-5,-13,1,0,0,-5,-13,1,0,0,1,94,254,119,1,,,,,,,,
,,,,,,,,,,,,,FF,,,,,,,,0.688,,,,,,,,,,,,,,,,,,,,,,60fdd2cafe684291d330f316,610369ad2ef4c8c2e0f41258,2021-07-29_22h54.37.263,Simcolourproject_2stim_asymm_v5,2020.2.10,MacIntel,60,61025ae37ef11b136ea224fe,,,,,,,,,1496,35,66,1,0,0,response1disk,,7,10,5,1,0,0,rectangle,10,5,1,0,0,10,5,1,0,0,1,95,255,43,1,,,,,,,,
,,,,,,,,,,,,,FF,,,,,,,,0.782,,,,,,,,,,,,,,,,,,,,,,60fdd2cafe684291d330f316,610369ad2ef4c8c2e0f41258,2021-07-29_22h54.37.263,Simcolourproject_2stim_asymm_v5,2020.2.10,MacIntel,60,61025ae37ef11b136ea224fe,,,,,,,,,2930,44,97,1,0,0,response1disk,,7,14,-12,1,0,0,rectangle,14,-12,1,0,0,14,-12,1,0,0,1,96,256,76,1,,,,,,,,
,,,,,,,,,,,,,FF,,,,,,,,0.881,,,,,,,,,,,,,,,,,,,,,,60fdd2cafe684291d330f316,610369ad2ef4c8c2e0f41258,2021-07-29_22h54.37.263,Simcolourproject_2stim_asymm_v5,2020.2.10,MacIntel,60,61025ae37ef11b136ea224fe,,,,,,,,,1595,40,60,1,0,0,response1disk,,7,21,-12,1,0,0,rectangle,21,-12,1,0,0,21,-12,1,0,0,1,97,257,8,1,,,,,,,,
,,,,,,,,,,,,,FF,,,,,,,,1.401,,,,,,,,,,,,,,,,,,,,,,60fdd2cafe684291d330f316,610369ad2ef4c8c2e0f41258,2021-07-29_22h54.37.263,Simcolourproject_2stim_asymm_v5,2020.2.10,MacIntel,60,61025ae37ef11b136ea224fe,,,,,,,,,3744,-42,-64,1,0,0,response5disk,,3,-7,10,1,0,0,rectangle,-7,10,1,0,0,-7,10,1,0,0,1,98,258,15,1,,,,,,,,
,,,,,,,,,,,,,FF,,,,,,,,1.414,,,,,,,,,,,,,,,,,,,,,,60fdd2cafe684291d330f316,610369ad2ef4c8c2e0f41258,2021-07-29_22h54.37.263,Simcolourproject_2stim_asymm_v5,2020.2.10,MacIntel,60,61025ae37ef11b136ea224fe,,,,,,,,,3820,74,-38,1,0,0,response3disk,,5,5,-2,1,0,0,rectangle,5,-2,1,0,0,5,-2,1,0,0,1,99,259,21,1,,,,,,,,
,,,,,,,,,,,,,FF,,,,,,,,1.205,,,,,,,,,,,,,,,,,,,,,,60fdd2cafe684291d330f316,610369ad2ef4c8c2e0f41258,2021-07-29_22h54.37.263,Simcolourproject_2stim_asymm_v5,2020.2.10,MacIntel,60,61025ae37ef11b136ea224fe,,,,,,,,,743,49,84,1,0,0,response1disk,,7,2,-5,1,0,0,rectangle,2,-5,1,0,0,2,-5,1,0,0,1,100,260,95,1,,,,,,,,
,,,,,,,,,,,,,FF,,,,,,,,1.119,,,,,,,,,,,,,,,,,,,,,,60fdd2cafe684291d330f316,610369ad2ef4c8c2e0f41258,2021-07-29_22h54.37.263,Simcolourproject_2stim_asymm_v5,2020.2.10,MacIntel,60,61025ae37ef11b136ea224fe,,,,,,,,,2605,-35,-74,1,0,0,response5disk,,3,-6,-10,1,0,0,rectangle,-6,-10,1,0,0,-6,-10,1,0,0,1,101,261,108,1,,,,,,,,
,,,,,,,,,,,,,FF,,,,,,,,1.771,,,,,,,,,,,,,,,,,,,,,,60fdd2cafe684291d330f316,610369ad2ef4c8c2e0f41258,2021-07-29_22h54.37.263,Simcolourproject_2stim_asymm_v5,2020.2.10,MacIntel,60,61025ae37ef11b136ea224fe,,,,,,,,,3746,-56,-40,1,0,0,response5disk,,2,17,-12,1,0,0,rectangle,17,-12,1,0,0,17,-12,1,0,0,1,102,262,39,1,,,,,,,,
,,,,,,,,,,,,,FF,,,,,,,,1.291,,,,,,,,,,,,,,,,,,,,,,60fdd2cafe684291d330f316,610369ad2ef4c8c2e0f41258,2021-07-29_22h54.37.263,Simcolourproject_2stim_asymm_v5,2020.2.10,MacIntel,60,61025ae37ef11b136ea224fe,,,,,,,,,1412,30,67,1,0,0,response1disk,,7,-3,-9,1,0,0,rectangle,-3,-9,1,0,0,-3,-9,1,0,0,1,103,263,80,1,,,,,,,,
,,,,,,,,,,,,,FF,,,,,,,,0.789,,,,,,,,,,,,,,,,,,,,,,60fdd2cafe684291d330f316,610369ad2ef4c8c2e0f41258,2021-07-29_22h54.37.263,Simcolourproject_2stim_asymm_v5,2020.2.10,MacIntel,60,61025ae37ef11b136ea224fe,,,,,,,,,95,-33,-46,1,0,0,response5disk,,3,-8,0,1,0,0,rectangle,-8,0,1,0,0,-8,0,1,0,0,1,104,264,114,1,,,,,,,,
,,,,,,,,,,,,,FF,,,,,,,,0.893,,,,,,,,,,,,,,,,,,,,,,60fdd2cafe684291d330f316,610369ad2ef4c8c2e0f41258,2021-07-29_22h54.37.263,Simcolourproject_2stim_asymm_v5,2020.2.10,MacIntel,60,61025ae37ef11b136ea224fe,,,,,,,,,2210,30,64,1,0,0,response1disk,,7,9,5,1,0,0,rectangle,9,5,1,0,0,9,5,1,0,0,1,105,265,133,1,,,,,,,,
,,,,,,,,,,,,,FF,,,,,,,,0.912,,,,,,,,,,,,,,,,,,,,,,60fdd2cafe684291d330f316,610369ad2ef4c8c2e0f41258,2021-07-29_22h54.37.263,Simcolourproject_2stim_asymm_v5,2020.2.10,MacIntel,60,61025ae37ef11b136ea224fe,,,,,,,,,279,-37,-69,1,0,0,response5disk,,3,-6,-17,1,0,0,rectangle,-6,-17,1,0,0,-6,-17,1,0,0,1,106,266,69,1,,,,,,,,
,,,,,,,,,,,,,FF,,,,,,,,0.917,,,,,,,,,,,,,,,,,,,,,,60fdd2cafe684291d330f316,610369ad2ef4c8c2e0f41258,2021-07-29_22h54.37.263,Simcolourproject_2stim_asymm_v5,2020.2.10,MacIntel,60,61025ae37ef11b136ea224fe,,,,,,,,,1461,-57,32,1,0,0,response7disk,,1,0,11,1,0,0,rectangle,0,11,1,0,0,0,11,1,0,0,1,107,267,23,1,,,,,,,,
,,,,,,,,,,,,,FF,,,,,,,,0.7,,,,,,,,,,,,,,,,,,,,,,60fdd2cafe684291d330f316,610369ad2ef4c8c2e0f41258,2021-07-29_22h54.37.263,Simcolourproject_2stim_asymm_v5,2020.2.10,MacIntel,60,61025ae37ef11b136ea224fe,,,,,,,,,3261,45,76,1,0,0,response1disk,,7,8,9,1,0,0,rectangle,8,9,1,0,0,8,9,1,0,0,1,108,268,9,1,,,,,,,,
,,,,,,,,,,,,,FF,,,,,,,,1.074,,,,,,,,,,,,,,,,,,,,,,60fdd2cafe684291d330f316,610369ad2ef4c8c2e0f41258,2021-07-29_22h54.37.263,Simcolourproject_2stim_asymm_v5,2020.2.10,MacIntel,60,61025ae37ef11b136ea224fe,,,,,,,,,616,28,-60,1,0,0,response3disk,,4,7,4,1,0,0,rectangle,7,4,1,0,0,7,4,1,0,0,1,109,269,141,1,,,,,,,,
,,,,,,,,,,,,,FF,,,,,,,,0.675,,,,,,,,,,,,,,,,,,,,,,60fdd2cafe684291d330f316,610369ad2ef4c8c2e0f41258,2021-07-29_22h54.37.263,Simcolourproject_2stim_asymm_v5,2020.2.10,MacIntel,60,61025ae37ef11b136ea224fe,,,,,,,,,2499,31,62,1,0,0,response1disk,,7,19,15,1,0,0,rectangle,19,15,1,0,0,19,15,1,0,0,1,110,270,157,1,,,,,,,,
,,,,,,,,,,,,,FF,,,,,,,,0.761,,,,,,,,,,,,,,,,,,,,,,60fdd2cafe684291d330f316,610369ad2ef4c8c2e0f41258,2021-07-29_22h54.37.263,Simcolourproject_2stim_asymm_v5,2020.2.10,MacIntel,60,61025ae37ef11b136ea224fe,,,,,,,,,2876,43,83,1,0,0,response1disk,,7,19,11,1,0,0,rectangle,19,11,1,0,0,19,11,1,0,0,1,111,271,83,1,,,,,,,,
,,,,,,,,,,,,,FF,,,,,,,,1.265,,,,,,,,,,,,,,,,,,,,,,60fdd2cafe684291d330f316,610369ad2ef4c8c2e0f41258,2021-07-29_22h54.37.263,Simcolourproject_2stim_asymm_v5,2020.2.10,MacIntel,60,61025ae37ef11b136ea224fe,,,,,,,,,1093,22,52,1,0,0,response1disk,,7,13,4,1,0,0,rectangle,13,4,1,0,0,13,4,1,0,0,1,112,272,154,1,,,,,,,,
,,,,,,,,,,,,,FF,,,,,,,,0.63,,,,,,,,,,,,,,,,,,,,,,60fdd2cafe684291d330f316,610369ad2ef4c8c2e0f41258,2021-07-29_22h54.37.263,Simcolourproject_2stim_asymm_v5,2020.2.10,MacIntel,60,61025ae37ef11b136ea224fe,,,,,,,,,3223,40,81,1,0,0,response1disk,,7,16,2,1,0,0,rectangle,16,2,1,0,0,16,2,1,0,0,1,113,273,13,1,,,,,,,,
,,,,,,,,,,,,,FF,,,,,,,,1.759,,,,,,,,,,,,,,,,,,,,,,60fdd2cafe684291d330f316,610369ad2ef4c8c2e0f41258,2021-07-29_22h54.37.263,Simcolourproject_2stim_asymm_v5,2020.2.10,MacIntel,60,61025ae37ef11b136ea224fe,,,,,,,,,4337,-75,-30,1,0,0,response5disk,,2,28,11,1,0,0,rectangle,28,11,1,0,0,28,11,1,0,0,1,114,274,16,1,,,,,,,,
,,,,,,,,,,,,,FF,,,,,,,,1.31,,,,,,,,,,,,,,,,,,,,,,60fdd2cafe684291d330f316,610369ad2ef4c8c2e0f41258,2021-07-29_22h54.37.263,Simcolourproject_2stim_asymm_v5,2020.2.10,MacIntel,60,61025ae37ef11b136ea224fe,,,,,,,,,505,71,32,1,0,0,response1disk,,6,7,-6,1,0,0,rectangle,76,-50,1,0,0,24,-2,1,0,0,1,115,275,147,1,,response3disk_3,TRUE,5,5,"[177,83,95,86,207,126,76,20,240,276,34,302,67,92,103,76,147,158,224,149]",1.532,rectangle
,,,,,,,,,,,,,FF,,,,,,,,0.974,,,,,,,,,,,,,,,,,,,,,,60fdd2cafe684291d330f316,610369ad2ef4c8c2e0f41258,2021-07-29_22h54.37.263,Simcolourproject_2stim_asymm_v5,2020.2.10,MacIntel,60,61025ae37ef11b136ea224fe,,,,,,,,,3451,18,68,1,0,0,response1disk,,7,3,2,1,0,0,rectangle,3,2,1,0,0,3,2,1,0,0,1,116,276,4,1,,,,,,,,
,,,,,,,,,,,,,FF,,,,,,,,1.107,,,,,,,,,,,,,,,,,,,,,,60fdd2cafe684291d330f316,610369ad2ef4c8c2e0f41258,2021-07-29_22h54.37.263,Simcolourproject_2stim_asymm_v5,2020.2.10,MacIntel,60,61025ae37ef11b136ea224fe,,,,,,,,,402,94,19,1,0,0,response1disk,,6,6,-1,1,0,0,rectangle,6,-1,1,0,0,6,-1,1,0,0,1,117,277,26,1,,,,,,,,
,,,,,,,,,,,,,FF,,,,,,,,1.011,,,,,,,,,,,,,,,,,,,,,,60fdd2cafe684291d330f316,610369ad2ef4c8c2e0f41258,2021-07-29_22h54.37.263,Simcolourproject_2stim_asymm_v5,2020.2.10,MacIntel,60,61025ae37ef11b136ea224fe,,,,,,,,,2667,-51,-31,1,0,0,response5disk,,2,-1,-4,1,0,0,rectangle,-1,-4,1,0,0,-1,-4,1,0,0,1,118,278,42,1,,,,,,,,
,,,,,,,,,,,,,FF,,,,,,,,1.19,,,,,,,,,,,,,,,,,,,,,,60fdd2cafe684291d330f316,610369ad2ef4c8c2e0f41258,2021-07-29_22h54.37.263,Simcolourproject_2stim_asymm_v5,2020.2.10,MacIntel,60,61025ae37ef11b136ea224fe,,,,,,,,,2679,-32,-58,1,0,0,response5disk,,3,-2,-7,1,0,0,rectangle,-2,-7,1,0,0,-2,-7,1,0,0,1,119,279,82,1,,,,,,,,
,,,,,,,,,,,,,FF,,,,,,,,1.266,,,,,,,,,,,,,,,,,,,,,,60fdd2cafe684291d330f316,610369ad2ef4c8c2e0f41258,2021-07-29_22h54.37.263,Simcolourproject_2stim_asymm_v5,2020.2.10,MacIntel,60,61025ae37ef11b136ea224fe,,,,,,,,,1603,-74,-43,1,0,0,response5disk,,2,-8,0,1,0,0,rectangle,-8,0,1,0,0,-8,0,1,0,0,1,120,280,109,1,,,,,,,,
,,,,,,,,,,,,,FF,,,,,,,,0.901,,,,,,,,,,,,,,,,,,,,,,60fdd2cafe684291d330f316,610369ad2ef4c8c2e0f41258,2021-07-29_22h54.37.263,Simcolourproject_2stim_asymm_v5,2020.2.10,MacIntel,60,61025ae37ef11b136ea224fe,,,,,,,,,1756,33,-64,1,0,0,response3disk,,4,11,-14,1,0,0,rectangle,11,-14,1,0,0,11,-14,1,0,0,1,121,281,156,1,,,,,,,,
,,,,,,,,,,,,,FF,,,,,,,,1.288,,,,,,,,,,,,,,,,,,,,,,60fdd2cafe684291d330f316,610369ad2ef4c8c2e0f41258,2021-07-29_22h54.37.263,Simcolourproject_2stim_asymm_v5,2020.2.10,MacIntel,60,61025ae37ef11b136ea224fe,,,,,,,,,926,39,69,1,0,0,response1disk,,7,12,-2,1,0,0,rectangle,12,-2,1,0,0,12,-2,1,0,0,1,122,282,152,1,,,,,,,,
,,,,,,,,,,,,,FF,,,,,,,,0.99,,,,,,,,,,,,,,,,,,,,,,60fdd2cafe684291d330f316,610369ad2ef4c8c2e0f41258,2021-07-29_22h54.37.263,Simcolourproject_2stim_asymm_v5,2020.2.10,MacIntel,60,61025ae37ef11b136ea224fe,,,,,,,,,67,90,48,1,0,0,response1disk,,6,13,-7,1,0,0,rectangle,13,-7,1,0,0,13,-7,1,0,0,1,123,283,40,1,,,,,,,,
,,,,,,,,,,,,,FF,,,,,,,,1.062,,,,,,,,,,,,,,,,,,,,,,60fdd2cafe684291d330f316,610369ad2ef4c8c2e0f41258,2021-07-29_22h54.37.263,Simcolourproject_2stim_asymm_v5,2020.2.10,MacIntel,60,61025ae37ef11b136ea224fe,,,,,,,,,3104,25,-56,1,0,0,response3disk,,4,4,2,1,0,0,rectangle,4,2,1,0,0,4,2,1,0,0,1,124,284,105,1,,,,,,,,
,,,,,,,,,,,,,FF,,,,,,,,0.836,,,,,,,,,,,,,,,,,,,,,,60fdd2cafe684291d330f316,610369ad2ef4c8c2e0f41258,2021-07-29_22h54.37.263,Simcolourproject_2stim_asymm_v5,2020.2.10,MacIntel,60,61025ae37ef11b136ea224fe,,,,,,,,,2643,28,62,1,0,0,response1disk,,7,13,7,1,0,0,rectangle,13,7,1,0,0,13,7,1,0,0,1,125,285,79,1,,,,,,,,
,,,,,,,,,,,,,FF,,,,,,,,1.408,,,,,,,,,,,,,,,,,,,,,,60fdd2cafe684291d330f316,610369ad2ef4c8c2e0f41258,2021-07-29_22h54.37.263,Simcolourproject_2stim_asymm_v5,2020.2.10,MacIntel,60,61025ae37ef11b136ea224fe,,,,,,,,,1394,22,80,1,0,0,response1disk,,7,10,5,1,0,0,rectangle,10,5,1,0,0,10,5,1,0,0,1,126,286,68,1,,,,,,,,
,,,,,,,,,,,,,FF,,,,,,,,0.947,,,,,,,,,,,,,,,,,,,,,,60fdd2cafe684291d330f316,610369ad2ef4c8c2e0f41258,2021-07-29_22h54.37.263,Simcolourproject_2stim_asymm_v5,2020.2.10,MacIntel,60,61025ae37ef11b136ea224fe,,,,,,,,,1532,87,35,1,0,0,response1disk,,6,7,-3,1,0,0,rectangle,7,-3,1,0,0,7,-3,1,0,0,1,127,287,78,1,,,,,,,,
,,,,,,,,,,,,,FF,,,,,,,,0.876,,,,,,,,,,,,,,,,,,,,,,60fdd2cafe684291d330f316,610369ad2ef4c8c2e0f41258,2021-07-29_22h54.37.263,Simcolourproject_2stim_asymm_v5,2020.2.10,MacIntel,60,61025ae37ef11b136ea224fe,,,,,,,,,2073,21,58,1,0,0,response1disk,,7,9,2,1,0,0,rectangle,9,2,1,0,0,9,2,1,0,0,1,128,288,0,1,,,,,,,,
,,,,,,,,,,,,,FF,,,,,,,,0.938,,,,,,,,,,,,,,,,,,,,,,60fdd2cafe684291d330f316,610369ad2ef4c8c2e0f41258,2021-07-29_22h54.37.263,Simcolourproject_2stim_asymm_v5,2020.2.10,MacIntel,60,61025ae37ef11b136ea224fe,,,,,,,,,2994,35,-73,1,0,0,response3disk,,4,18,-15,1,0,0,rectangle,18,-15,1,0,0,18,-15,1,0,0,1,129,289,90,1,,,,,,,,
,,,,,,,,,,,,,FF,,,,,,,,1.799,,,,,,,,,,,,,,,,,,,,,,60fdd2cafe684291d330f316,610369ad2ef4c8c2e0f41258,2021-07-29_22h54.37.263,Simcolourproject_2stim_asymm_v5,2020.2.10,MacIntel,60,61025ae37ef11b136ea224fe,,,,,,,,,377,61,-45,1,0,0,response3disk,,5,8,-14,1,0,0,rectangle,8,-14,1,0,0,8,-14,1,0,0,1,130,290,130,1,,,,,,,,
,,,,,,,,,,,,,FF,,,,,,,,1.82,,,,,,,,,,,,,,,,,,,,,,60fdd2cafe684291d330f316,610369ad2ef4c8c2e0f41258,2021-07-29_22h54.37.263,Simcolourproject_2stim_asymm_v5,2020.2.10,MacIntel,60,61025ae37ef11b136ea224fe,,,,,,,,,3992,30,70,1,0,0,response1disk,,7,6,1,1,0,0,rectangle,6,1,1,0,0,6,1,1,0,0,1,131,291,146,1,,,,,,,,
,,,,,,,,,,,,,FF,,,,,,,,1.054,,,,,,,,,,,,,,,,,,,,,,60fdd2cafe684291d330f316,610369ad2ef4c8c2e0f41258,2021-07-29_22h54.37.263,Simcolourproject_2stim_asymm_v5,2020.2.10,MacIntel,60,61025ae37ef11b136ea224fe,,,,,,,,,1593,60,-28,1,0,0,response3disk,,5,17,4,1,0,0,rectangle,17,4,1,0,0,17,4,1,0,0,1,132,292,51,1,,,,,,,,
,,,,,,,,,,,,,FF,,,,,,,,0.698,,,,,,,,,,,,,,,,,,,,,,60fdd2cafe684291d330f316,610369ad2ef4c8c2e0f41258,2021-07-29_22h54.37.263,Simcolourproject_2stim_asymm_v5,2020.2.10,MacIntel,60,61025ae37ef11b136ea224fe,,,,,,,,,2872,33,69,1,0,0,response1disk,,7,10,6,1,0,0,rectangle,10,6,1,0,0,10,6,1,0,0,1,133,293,1,1,,,,,,,,
,,,,,,,,,,,,,FF,,,,,,,,0.839,,,,,,,,,,,,,,,,,,,,,,60fdd2cafe684291d330f316,610369ad2ef4c8c2e0f41258,2021-07-29_22h54.37.263,Simcolourproject_2stim_asymm_v5,2020.2.10,MacIntel,60,61025ae37ef11b136ea224fe,,,,,,,,,2355,-45,78,1,0,0,response7disk,,0,-17,13,1,0,0,rectangle,-17,13,1,0,0,-17,13,1,0,0,1,134,294,132,1,,,,,,,,
,,,,,,,,,,,,,FF,,,,,,,,1.278,,,,,,,,,,,,,,,,,,,,,,60fdd2cafe684291d330f316,610369ad2ef4c8c2e0f41258,2021-07-29_22h54.37.263,Simcolourproject_2stim_asymm_v5,2020.2.10,MacIntel,60,61025ae37ef11b136ea224fe,,,,,,,,,114,65,41,1,0,0,response1disk,,6,15,11,1,0,0,rectangle,15,11,1,0,0,15,11,1,0,0,1,135,295,85,1,,,,,,,,
,,,,,,,,,,,,,FF,,,,,,,,1.221,,,,,,,,,,,,,,,,,,,,,,60fdd2cafe684291d330f316,610369ad2ef4c8c2e0f41258,2021-07-29_22h54.37.263,Simcolourproject_2stim_asymm_v5,2020.2.10,MacIntel,60,61025ae37ef11b136ea224fe,,,,,,,,,3929,35,88,1,0,0,response1disk,,7,5,3,1,0,0,rectangle,5,3,1,0,0,5,3,1,0,0,1,136,296,64,1,,,,,,,,
,,,,,,,,,,,,,FF,,,,,,,,1.221,,,,,,,,,,,,,,,,,,,,,,60fdd2cafe684291d330f316,610369ad2ef4c8c2e0f41258,2021-07-29_22h54.37.263,Simcolourproject_2stim_asymm_v5,2020.2.10,MacIntel,60,61025ae37ef11b136ea224fe,,,,,,,,,1470,67,33,1,0,0,response1disk,,6,10,-5,1,0,0,rectangle,10,-5,1,0,0,10,-5,1,0,0,1,137,297,41,1,,,,,,,,
,,,,,,,,,,,,,FF,,,,,,,,0.931,,,,,,,,,,,,,,,,,,,,,,60fdd2cafe684291d330f316,610369ad2ef4c8c2e0f41258,2021-07-29_22h54.37.263,Simcolourproject_2stim_asymm_v5,2020.2.10,MacIntel,60,61025ae37ef11b136ea224fe,,,,,,,,,2734,58,-21,1,0,0,response3disk,,5,22,0,1,0,0,rectangle,22,0,1,0,0,22,0,1,0,0,1,138,298,99,1,,,,,,,,
,,,,,,,,,,,,,FF,,,,,,,,1.358,,,,,,,,,,,,,,,,,,,,,,60fdd2cafe684291d330f316,610369ad2ef4c8c2e0f41258,2021-07-29_22h54.37.263,Simcolourproject_2stim_asymm_v5,2020.2.10,MacIntel,60,61025ae37ef11b136ea224fe,,,,,,,,,2844,66,44,1,0,0,response1disk,,6,18,0,1,0,0,rectangle,18,0,1,0,0,18,0,1,0,0,1,139,299,19,1,,,,,,,,
,,,,,,,,,,,,,FF,,,,,,,,0.918,,,,,,,,,,,,,,,,,,,,,,60fdd2cafe684291d330f316,610369ad2ef4c8c2e0f41258,2021-07-29_22h54.37.263,Simcolourproject_2stim_asymm_v5,2020.2.10,MacIntel,60,61025ae37ef11b136ea224fe,,,,,,,,,3743,-55,21,1,0,0,response7disk,,1,-4,14,1,0,0,rectangle,-4,14,1,0,0,-4,14,1,0,0,1,140,300,54,1,,,,,,,,
