key_resp.keys,key_resp.rt,key_resp_14.keys,key_resp_14.rt,key_resp_15.keys,key_resp_15.rt,key_resp_17.keys,key_resp_17.rt,key_resp_9.keys,key_resp_9.rt,key_resp_10.keys,key_resp_10.rt,practice_comparison,Ecc,mouse_5.x,mouse_5.y,mouse_5.leftButton,mouse_5.midButton,mouse_5.rightButton,mouse_5.clicked_name,pracsimilarity,response_time,mouse_10.x,mouse_10.y,mouse_10.leftButton,mouse_10.midButton,mouse_10.rightButton,mouse_10.clicked_name,mouse_7.x,mouse_7.y,mouse_7.leftButton,mouse_7.midButton,mouse_7.rightButton,mouse_6.x,mouse_6.y,mouse_6.leftButton,mouse_6.midButton,mouse_6.rightButton,duringprac.thisRepN,duringprac.thisTrialN,duringprac.thisN,duringprac.thisIndex,duringprac.ran,participant,session,date,expName,psychopyVersion,OS,frameRate,study_id,mouse_7.clicked_name,catchpracsimilarity,catch_response_time,catchnumberprac,catchtrialorderprac,mouse_6.clicked_name,key_resp_22.keys,key_resp_22.rt,realcomparison,mouse.x,mouse.y,mouse.leftButton,mouse.midButton,mouse.rightButton,mouse.clicked_name,Colour2,similarity,mouse_2.x,mouse_2.y,mouse_2.leftButton,mouse_2.midButton,mouse_2.rightButton,mouse_2.clicked_name,mouse_3.x,mouse_3.y,mouse_3.leftButton,mouse_3.midButton,mouse_3.rightButton,mouse_11.x,mouse_11.y,mouse_11.leftButton,mouse_11.midButton,mouse_11.rightButton,trials_2.thisRepN,trials_2.thisTrialN,trials_2.thisN,trials_2.thisIndex,trials_2.ran,Colour1,mouse_3.clicked_name,catchornah,catchsimilarity,catchnumber,catchtrialorder,catchRT,mouse_11.clicked_name
space,1.154,space,29.4385,space,26.3878,space,16.2608,space,1.961099999,space,5.9147,143,PF,-50.390625,121.8515625,1,0,0,response7disk_5,0,7.0566,-3.65625,-8.40625,1,0,0,rectangle_8,-3.65625,-8.40625,1,0,0,-3.65625,-8.40625,1,0,0,0,0,0,2,1,60fddd15f7f160155121ae9e,61036b3723a23dcf36216c90,2021-07-29_20h01.01.694,Simcolourproject_2stim_asymm_v5,2020.2.10,MacIntel,60,61025ae37ef11b136ea224fe,,,,,,,,,,,,,,,,,,,,,,,,,,,,,,,,,,,,,,,,,,,,,,
,,,,,,,,,,,,155,FF,35.921875,-75.07421875,1,0,0,response3disk_5,4,4.528,-4.7578125,-2.6953125,1,0,0,rectangle_8,38.0078125,64.92578125,1,0,0,9.98046875,2.546875,1,0,0,0,1,1,5,1,60fddd15f7f160155121ae9e,61036b3723a23dcf36216c90,2021-07-29_20h01.01.694,Simcolourproject_2stim_asymm_v5,2020.2.10,MacIntel,60,61025ae37ef11b136ea224fe,response1disk_7,7,4.2615,7,"[2,5]",rectangle_4,,,,,,,,,,,,,,,,,,,,,,,,,,,,,,,,,,,,,,,,
,,,,,,,,,,,,150,FF,41.88671875,-83.1953125,1,0,0,response3disk_5,4,3.6406,5.1953125,-3.8828125,1,0,0,rectangle_8,5.1953125,-3.8828125,1,0,0,5.1953125,-3.8828125,1,0,0,0,2,2,0,1,60fddd15f7f160155121ae9e,61036b3723a23dcf36216c90,2021-07-29_20h01.01.694,Simcolourproject_2stim_asymm_v5,2020.2.10,MacIntel,60,61025ae37ef11b136ea224fe,,,,,,,,,,,,,,,,,,,,,,,,,,,,,,,,,,,,,,,,,,,,,,
,,,,,,,,,,,,141,PF,-17.65234375,-58.5390625,1,0,0,response5disk_5,3,3.968400001,-1.2578125,6.453125,1,0,0,rectangle_8,-1.2578125,6.453125,1,0,0,-1.2578125,6.453125,1,0,0,0,3,3,6,1,60fddd15f7f160155121ae9e,61036b3723a23dcf36216c90,2021-07-29_20h01.01.694,Simcolourproject_2stim_asymm_v5,2020.2.10,MacIntel,60,61025ae37ef11b136ea224fe,,,,,,,,,,,,,,,,,,,,,,,,,,,,,,,,,,,,,,,,,,,,,,
,,,,,,,,,,,,143,FF,-42.92578125,-19.56640625,1,0,0,response5disk_5,2,1.788599999,12.875,7.73828125,1,0,0,rectangle_8,35.74609375,68.2265625,1,0,0,13.3515625,-13.125,1,0,0,0,4,4,3,1,60fddd15f7f160155121ae9e,61036b3723a23dcf36216c90,2021-07-29_20h01.01.694,Simcolourproject_2stim_asymm_v5,2020.2.10,MacIntel,60,61025ae37ef11b136ea224fe,response1disk_7,7,1.9865,7,"[2,5]",rectangle_4,,,,,,,,,,,,,,,,,,,,,,,,,,,,,,,,,,,,,,,,
,,,,,,,,,,,,76,PF,-30.97265625,-70.4453125,1,0,0,response5disk_5,3,4.7962,-11.40625,2.0390625,1,0,0,rectangle_8,-11.40625,2.0390625,1,0,0,-11.40625,2.0390625,1,0,0,0,5,5,4,1,60fddd15f7f160155121ae9e,61036b3723a23dcf36216c90,2021-07-29_20h01.01.694,Simcolourproject_2stim_asymm_v5,2020.2.10,MacIntel,60,61025ae37ef11b136ea224fe,,,,,,,,,,,,,,,,,,,,,,,,,,,,,,,,,,,,,,,,,,,,,,
,,,,,,,,,,,,155,PF,41.375,-27.55078125,1,0,0,response3disk_5,5,1.6383,22.8515625,-12.24609375,1,0,0,rectangle_8,22.8515625,-12.24609375,1,0,0,22.8515625,-12.24609375,1,0,0,0,6,6,1,1,60fddd15f7f160155121ae9e,61036b3723a23dcf36216c90,2021-07-29_20h01.01.694,Simcolourproject_2stim_asymm_v5,2020.2.10,MacIntel,60,61025ae37ef11b136ea224fe,,,,,,,,,,,,,,,,,,,,,,,,,,,,,,,,,,,,,,,,,,,,,,
,,,,,,,,,,,,,FF,,,,,,,,1.787700001,,,,,,,,,,,,,,,,,,,,,,60fddd15f7f160155121ae9e,61036b3723a23dcf36216c90,2021-07-29_20h01.01.694,Simcolourproject_2stim_asymm_v5,2020.2.10,MacIntel,60,61025ae37ef11b136ea224fe,,,,,,,space,5.2813,3105,30.11328125,-76.05859375,1,0,0,response3disk,,4,-13.02734375,4.8359375,1,0,0,rectangle,-13.02734375,4.8359375,1,0,0,-13.02734375,4.8359375,1,0,0,0,0,0,124,1,,,,,,,,
,,,,,,,,,,,,,FF,,,,,,,,2.9564,,,,,,,,,,,,,,,,,,,,,,60fddd15f7f160155121ae9e,61036b3723a23dcf36216c90,2021-07-29_20h01.01.694,Simcolourproject_2stim_asymm_v5,2020.2.10,MacIntel,60,61025ae37ef11b136ea224fe,,,,,,,,,4054,38.05078125,-29.01171875,1,0,0,response3disk,,5,27.046875,-13.91015625,1,0,0,rectangle,27.046875,-13.91015625,1,0,0,27.046875,-13.91015625,1,0,0,0,1,1,112,1,,,,,,,,
,,,,,,,,,,,,,FF,,,,,,,,2.557,,,,,,,,,,,,,,,,,,,,,,60fddd15f7f160155121ae9e,61036b3723a23dcf36216c90,2021-07-29_20h01.01.694,Simcolourproject_2stim_asymm_v5,2020.2.10,MacIntel,60,61025ae37ef11b136ea224fe,,,,,,,,,3951,28.3359375,-37.45703125,1,0,0,response3disk,,4,21.51953125,-1.18359375,1,0,0,rectangle,21.51953125,-1.18359375,1,0,0,21.51953125,-1.18359375,1,0,0,0,2,2,108,1,,,,,,,,
,,,,,,,,,,,,,FF,,,,,,,,1.6052,,,,,,,,,,,,,,,,,,,,,,60fddd15f7f160155121ae9e,61036b3723a23dcf36216c90,2021-07-29_20h01.01.694,Simcolourproject_2stim_asymm_v5,2020.2.10,MacIntel,60,61025ae37ef11b136ea224fe,,,,,,,,,3698,75.78515625,23.51171875,1,0,0,response1disk,,6,13.375,8.6015625,1,0,0,rectangle,13.375,8.6015625,1,0,0,13.375,8.6015625,1,0,0,0,3,3,33,1,,,,,,,,
,,,,,,,,,,,,,FF,,,,,,,,1.705400001,,,,,,,,,,,,,,,,,,,,,,60fddd15f7f160155121ae9e,61036b3723a23dcf36216c90,2021-07-29_20h01.01.694,Simcolourproject_2stim_asymm_v5,2020.2.10,MacIntel,60,61025ae37ef11b136ea224fe,,,,,,,,,1651,53.08984375,28.25,1,0,0,response1disk,,6,15.421875,9.82421875,1,0,0,rectangle,15.421875,9.82421875,1,0,0,15.421875,9.82421875,1,0,0,0,4,4,153,1,,,,,,,,
,,,,,,,,,,,,,FF,,,,,,,,1.102900001,,,,,,,,,,,,,,,,,,,,,,60fddd15f7f160155121ae9e,61036b3723a23dcf36216c90,2021-07-29_20h01.01.694,Simcolourproject_2stim_asymm_v5,2020.2.10,MacIntel,60,61025ae37ef11b136ea224fe,,,,,,,,,3868,45.19921875,-25.5078125,1,0,0,response3disk,,5,20.4921875,-14.12109375,1,0,0,rectangle,20.4921875,-14.12109375,1,0,0,20.4921875,-14.12109375,1,0,0,0,5,5,103,1,,,,,,,,
,,,,,,,,,,,,,FF,,,,,,,,1.0862,,,,,,,,,,,,,,,,,,,,,,60fddd15f7f160155121ae9e,61036b3723a23dcf36216c90,2021-07-29_20h01.01.694,Simcolourproject_2stim_asymm_v5,2020.2.10,MacIntel,60,61025ae37ef11b136ea224fe,,,,,,,,,2510,57.53125,23.87890625,1,0,0,response1disk,,6,27.18359375,6.91796875,1,0,0,rectangle,27.18359375,6.91796875,1,0,0,27.18359375,6.91796875,1,0,0,0,6,6,57,1,,,,,,,,
,,,,,,,,,,,,,FF,,,,,,,,0.969,,,,,,,,,,,,,,,,,,,,,,60fddd15f7f160155121ae9e,61036b3723a23dcf36216c90,2021-07-29_20h01.01.694,Simcolourproject_2stim_asymm_v5,2020.2.10,MacIntel,60,61025ae37ef11b136ea224fe,,,,,,,,,942,42.78125,-31.1640625,1,0,0,response3disk,,5,10.19921875,2.84765625,1,0,0,rectangle,10.19921875,2.84765625,1,0,0,10.19921875,2.84765625,1,0,0,0,7,7,99,1,,,,,,,,
,,,,,,,,,,,,,FF,,,,,,,,0.8854,,,,,,,,,,,,,,,,,,,,,,60fddd15f7f160155121ae9e,61036b3723a23dcf36216c90,2021-07-29_20h01.01.694,Simcolourproject_2stim_asymm_v5,2020.2.10,MacIntel,60,61025ae37ef11b136ea224fe,,,,,,,,,1448,-30.2421875,-59.8515625,1,0,0,response5disk,,3,0.91796875,-3.75390625,1,0,0,rectangle,0.91796875,-3.75390625,1,0,0,0.91796875,-3.75390625,1,0,0,0,8,8,46,1,,,,,,,,
,,,,,,,,,,,,,FF,,,,,,,,1.018,,,,,,,,,,,,,,,,,,,,,,60fddd15f7f160155121ae9e,61036b3723a23dcf36216c90,2021-07-29_20h01.01.694,Simcolourproject_2stim_asymm_v5,2020.2.10,MacIntel,60,61025ae37ef11b136ea224fe,,,,,,,,,3750,-28.73828125,-59.015625,1,0,0,response5disk,,3,-12.42578125,-6.203125,1,0,0,rectangle,-12.42578125,-6.203125,1,0,0,-12.42578125,-6.203125,1,0,0,0,9,9,105,1,,,,,,,,
,,,,,,,,,,,,,FF,,,,,,,,0.868599999,,,,,,,,,,,,,,,,,,,,,,60fddd15f7f160155121ae9e,61036b3723a23dcf36216c90,2021-07-29_20h01.01.694,Simcolourproject_2stim_asymm_v5,2020.2.10,MacIntel,60,61025ae37ef11b136ea224fe,,,,,,,,,3402,-28.4921875,-42.70703125,1,0,0,response5disk,,3,-22.24609375,4.12890625,1,0,0,rectangle,-22.24609375,4.12890625,1,0,0,-22.24609375,4.12890625,1,0,0,0,10,10,17,1,,,,,,,,
,,,,,,,,,,,,,FF,,,,,,,,0.9688,,,,,,,,,,,,,,,,,,,,,,60fddd15f7f160155121ae9e,61036b3723a23dcf36216c90,2021-07-29_20h01.01.694,Simcolourproject_2stim_asymm_v5,2020.2.10,MacIntel,60,61025ae37ef11b136ea224fe,,,,,,,,,541,52.8203125,-28.53125,1,0,0,response3disk,,5,14.81640625,-13.91015625,1,0,0,rectangle,14.81640625,-13.91015625,1,0,0,14.81640625,-13.91015625,1,0,0,0,11,11,45,1,,,,,,,,
,,,,,,,,,,,,,FF,,,,,,,,1.2363,,,,,,,,,,,,,,,,,,,,,,60fddd15f7f160155121ae9e,61036b3723a23dcf36216c90,2021-07-29_20h01.01.694,Simcolourproject_2stim_asymm_v5,2020.2.10,MacIntel,60,61025ae37ef11b136ea224fe,,,,,,,,,1267,68.234375,-25.97265625,1,0,0,response3disk,,5,8.8125,-13.890625,1,0,0,rectangle,8.8125,-13.890625,1,0,0,8.8125,-13.890625,1,0,0,0,12,12,141,1,,,,,,,,
,,,,,,,,,,,,,FF,,,,,,,,1.7391,,,,,,,,,,,,,,,,,,,,,,60fddd15f7f160155121ae9e,61036b3723a23dcf36216c90,2021-07-29_20h01.01.694,Simcolourproject_2stim_asymm_v5,2020.2.10,MacIntel,60,61025ae37ef11b136ea224fe,,,,,,,,,2826,27.3125,-54.6171875,1,0,0,response3disk,,4,23.01953125,-12.9921875,1,0,0,rectangle,23.01953125,-12.9921875,1,0,0,23.01953125,-12.9921875,1,0,0,0,13,13,95,1,,,,,,,,
,,,,,,,,,,,,,FF,,,,,,,,1.0308,,,,,,,,,,,,,,,,,,,,,,60fddd15f7f160155121ae9e,61036b3723a23dcf36216c90,2021-07-29_20h01.01.694,Simcolourproject_2stim_asymm_v5,2020.2.10,MacIntel,60,61025ae37ef11b136ea224fe,,,,,,,,,36,59.4921875,-46.50390625,1,0,0,response3disk,,5,4.27734375,-8.12890625,1,0,0,rectangle,4.27734375,-8.12890625,1,0,0,4.27734375,-8.12890625,1,0,0,0,14,14,110,1,,,,,,,,
,,,,,,,,,,,,,FF,,,,,,,,1.168700001,,,,,,,,,,,,,,,,,,,,,,60fddd15f7f160155121ae9e,61036b3723a23dcf36216c90,2021-07-29_20h01.01.694,Simcolourproject_2stim_asymm_v5,2020.2.10,MacIntel,60,61025ae37ef11b136ea224fe,,,,,,,,,3432,-33.59375,-50.90625,1,0,0,response5disk,,3,-15.00390625,-10.76953125,1,0,0,rectangle,-15.00390625,-10.76953125,1,0,0,-15.00390625,-10.76953125,1,0,0,0,15,15,89,1,,,,,,,,
,,,,,,,,,,,,,FF,,,,,,,,1.904900001,,,,,,,,,,,,,,,,,,,,,,60fddd15f7f160155121ae9e,61036b3723a23dcf36216c90,2021-07-29_20h01.01.694,Simcolourproject_2stim_asymm_v5,2020.2.10,MacIntel,60,61025ae37ef11b136ea224fe,,,,,,,,,4076,27.16015625,-57.96875,1,0,0,response3disk,,4,5.3046875,9.24609375,1,0,0,rectangle,5.3046875,9.24609375,1,0,0,5.3046875,9.24609375,1,0,0,0,16,16,71,1,,,,,,,,
,,,,,,,,,,,,,FF,,,,,,,,0.769099999,,,,,,,,,,,,,,,,,,,,,,60fddd15f7f160155121ae9e,61036b3723a23dcf36216c90,2021-07-29_20h01.01.694,Simcolourproject_2stim_asymm_v5,2020.2.10,MacIntel,60,61025ae37ef11b136ea224fe,,,,,,,,,1659,61.05859375,29.453125,1,0,0,response1disk,,6,21.1796875,0.5390625,1,0,0,rectangle,21.1796875,0.5390625,1,0,0,21.1796875,0.5390625,1,0,0,0,17,17,145,1,,,,,,,,
,,,,,,,,,,,,,FF,,,,,,,,3.0755,,,,,,,,,,,,,,,,,,,,,,60fddd15f7f160155121ae9e,61036b3723a23dcf36216c90,2021-07-29_20h01.01.694,Simcolourproject_2stim_asymm_v5,2020.2.10,MacIntel,60,61025ae37ef11b136ea224fe,,,,,,,,,3056,-39.67578125,-65.5546875,1,0,0,response5disk,,3,10.46875,-10.92578125,1,0,0,rectangle,10.46875,-10.92578125,1,0,0,10.46875,-10.92578125,1,0,0,0,18,18,55,1,,,,,,,,
,,,,,,,,,,,,,FF,,,,,,,,0.7015,,,,,,,,,,,,,,,,,,,,,,60fddd15f7f160155121ae9e,61036b3723a23dcf36216c90,2021-07-29_20h01.01.694,Simcolourproject_2stim_asymm_v5,2020.2.10,MacIntel,60,61025ae37ef11b136ea224fe,,,,,,,,,4276,26.55078125,-54.77734375,1,0,0,response3disk,,4,13.7265625,1.59375,1,0,0,rectangle,13.7265625,1.59375,1,0,0,13.7265625,1.59375,1,0,0,0,19,19,100,1,,,,,,,,
,,,,,,,,,,,,,FF,,,,,,,,0.935599999,,,,,,,,,,,,,,,,,,,,,,60fddd15f7f160155121ae9e,61036b3723a23dcf36216c90,2021-07-29_20h01.01.694,Simcolourproject_2stim_asymm_v5,2020.2.10,MacIntel,60,61025ae37ef11b136ea224fe,,,,,,,,,2920,38.4453125,-30.9453125,1,0,0,response3disk,,5,5.15625,-6.31640625,1,0,0,rectangle,5.15625,-6.31640625,1,0,0,5.15625,-6.31640625,1,0,0,0,20,20,40,1,,,,,,,,
,,,,,,,,,,,,,FF,,,,,,,,0.686599999,,,,,,,,,,,,,,,,,,,,,,60fddd15f7f160155121ae9e,61036b3723a23dcf36216c90,2021-07-29_20h01.01.694,Simcolourproject_2stim_asymm_v5,2020.2.10,MacIntel,60,61025ae37ef11b136ea224fe,,,,,,,,,1170,69.09765625,35.48046875,1,0,0,response1disk,,6,25.46484375,10.30078125,1,0,0,rectangle,25.46484375,10.30078125,1,0,0,25.46484375,10.30078125,1,0,0,0,21,21,52,1,,,,,,,,
,,,,,,,,,,,,,FF,,,,,,,,1.2535,,,,,,,,,,,,,,,,,,,,,,60fddd15f7f160155121ae9e,61036b3723a23dcf36216c90,2021-07-29_20h01.01.694,Simcolourproject_2stim_asymm_v5,2020.2.10,MacIntel,60,61025ae37ef11b136ea224fe,,,,,,,,,2730,31.83203125,-23.609375,1,0,0,response3disk,,5,-12.51171875,-5.296875,1,0,0,rectangle,-12.51171875,-5.296875,1,0,0,-12.51171875,-5.296875,1,0,0,0,22,22,49,1,,,,,,,,
,,,,,,,,,,,,,FF,,,,,,,,0.7011,,,,,,,,,,,,,,,,,,,,,,60fddd15f7f160155121ae9e,61036b3723a23dcf36216c90,2021-07-29_20h01.01.694,Simcolourproject_2stim_asymm_v5,2020.2.10,MacIntel,60,61025ae37ef11b136ea224fe,,,,,,,,,2781,-35.4921875,-72.92578125,1,0,0,response5disk,,3,-14.81640625,-6.40625,1,0,0,rectangle,-73.8984375,99.7421875,1,0,0,1.30859375,8.3359375,1,0,0,0,23,23,90,1,,response7disk_3,TRUE,0,0,"[83,84,279,75,149,290,69,28,88,196,24,60,225,197,139,31,0,197,41,131]",2.2548,rectangle
,,,,,,,,,,,,,FF,,,,,,,,1.154200001,,,,,,,,,,,,,,,,,,,,,,60fddd15f7f160155121ae9e,61036b3723a23dcf36216c90,2021-07-29_20h01.01.694,Simcolourproject_2stim_asymm_v5,2020.2.10,MacIntel,60,61025ae37ef11b136ea224fe,,,,,,,,,1192,68.75390625,29.95703125,1,0,0,response1disk,,6,19.82421875,-3.99609375,1,0,0,rectangle,19.82421875,-3.99609375,1,0,0,19.82421875,-3.99609375,1,0,0,0,24,24,131,1,,,,,,,,
,,,,,,,,,,,,,FF,,,,,,,,0.636299999,,,,,,,,,,,,,,,,,,,,,,60fddd15f7f160155121ae9e,61036b3723a23dcf36216c90,2021-07-29_20h01.01.694,Simcolourproject_2stim_asymm_v5,2020.2.10,MacIntel,60,61025ae37ef11b136ea224fe,,,,,,,,,782,42.51953125,-35.67578125,1,0,0,response3disk,,5,21.00390625,-9.359375,1,0,0,rectangle,21.00390625,-9.359375,1,0,0,21.00390625,-9.359375,1,0,0,0,25,25,72,1,,,,,,,,
,,,,,,,,,,,,,FF,,,,,,,,0.6855,,,,,,,,,,,,,,,,,,,,,,60fddd15f7f160155121ae9e,61036b3723a23dcf36216c90,2021-07-29_20h01.01.694,Simcolourproject_2stim_asymm_v5,2020.2.10,MacIntel,60,61025ae37ef11b136ea224fe,,,,,,,,,4036,37.58203125,-29.87109375,1,0,0,response3disk,,5,17.37109375,-8.91796875,1,0,0,rectangle,17.37109375,-8.91796875,1,0,0,17.37109375,-8.91796875,1,0,0,0,26,26,140,1,,,,,,,,
,,,,,,,,,,,,,FF,,,,,,,,1.1033,,,,,,,,,,,,,,,,,,,,,,60fddd15f7f160155121ae9e,61036b3723a23dcf36216c90,2021-07-29_20h01.01.694,Simcolourproject_2stim_asymm_v5,2020.2.10,MacIntel,60,61025ae37ef11b136ea224fe,,,,,,,,,1963,-71.75390625,-29.54296875,1,0,0,response5disk,,2,-5.53125,-7.82421875,1,0,0,rectangle,77.05859375,33.34375,1,0,0,10.203125,-10.03125,1,0,0,0,27,27,92,1,,response1disk_3,TRUE,6,6,"[83,84,279,75,149,290,69,28,88,196,24,60,225,197,139,31,0,197,41,131]",1.569799999,rectangle
,,,,,,,,,,,,,FF,,,,,,,,0.6343,,,,,,,,,,,,,,,,,,,,,,60fddd15f7f160155121ae9e,61036b3723a23dcf36216c90,2021-07-29_20h01.01.694,Simcolourproject_2stim_asymm_v5,2020.2.10,MacIntel,60,61025ae37ef11b136ea224fe,,,,,,,,,665,37.4921875,-57.62109375,1,0,0,response3disk,,4,9.33203125,-0.09765625,1,0,0,rectangle,9.33203125,-0.09765625,1,0,0,9.33203125,-0.09765625,1,0,0,0,28,28,128,1,,,,,,,,
,,,,,,,,,,,,,FF,,,,,,,,1.1361,,,,,,,,,,,,,,,,,,,,,,60fddd15f7f160155121ae9e,61036b3723a23dcf36216c90,2021-07-29_20h01.01.694,Simcolourproject_2stim_asymm_v5,2020.2.10,MacIntel,60,61025ae37ef11b136ea224fe,,,,,,,,,1274,30.4375,-55.61328125,1,0,0,response3disk,,4,30.4375,2,1,0,0,rectangle,30.4375,2,1,0,0,30.4375,2,1,0,0,0,29,29,123,1,,,,,,,,
,,,,,,,,,,,,,FF,,,,,,,,0.6336,,,,,,,,,,,,,,,,,,,,,,60fddd15f7f160155121ae9e,61036b3723a23dcf36216c90,2021-07-29_20h01.01.694,Simcolourproject_2stim_asymm_v5,2020.2.10,MacIntel,60,61025ae37ef11b136ea224fe,,,,,,,,,1487,46.57421875,-22.08203125,1,0,0,response3disk,,5,14.609375,-14.44921875,1,0,0,rectangle,31.94140625,95.9453125,1,0,0,29.91796875,-0.4375,1,0,0,0,30,30,27,1,,response1disk_3,TRUE,7,7,"[83,84,279,75,149,290,69,28,88,196,24,60,225,197,139,31,0,197,41,131]",1.3191,rectangle
,,,,,,,,,,,,,FF,,,,,,,,1.103,,,,,,,,,,,,,,,,,,,,,,60fddd15f7f160155121ae9e,61036b3723a23dcf36216c90,2021-07-29_20h01.01.694,Simcolourproject_2stim_asymm_v5,2020.2.10,MacIntel,60,61025ae37ef11b136ea224fe,,,,,,,,,1180,34.42578125,-26.92578125,1,0,0,response3disk,,5,-5.11328125,-4.2578125,1,0,0,rectangle,-5.11328125,-4.2578125,1,0,0,-5.11328125,-4.2578125,1,0,0,0,31,31,26,1,,,,,,,,
,,,,,,,,,,,,,FF,,,,,,,,0.969700001,,,,,,,,,,,,,,,,,,,,,,60fddd15f7f160155121ae9e,61036b3723a23dcf36216c90,2021-07-29_20h01.01.694,Simcolourproject_2stim_asymm_v5,2020.2.10,MacIntel,60,61025ae37ef11b136ea224fe,,,,,,,,,3250,27.26953125,-79.140625,1,0,0,response3disk,,4,3.4296875,-8.33984375,1,0,0,rectangle,3.4296875,-8.33984375,1,0,0,3.4296875,-8.33984375,1,0,0,0,32,32,6,1,,,,,,,,
,,,,,,,,,,,,,FF,,,,,,,,1.0032,,,,,,,,,,,,,,,,,,,,,,60fddd15f7f160155121ae9e,61036b3723a23dcf36216c90,2021-07-29_20h01.01.694,Simcolourproject_2stim_asymm_v5,2020.2.10,MacIntel,60,61025ae37ef11b136ea224fe,,,,,,,,,3254,64.50390625,29.8203125,1,0,0,response1disk,,6,25.35546875,10.25390625,1,0,0,rectangle,25.35546875,10.25390625,1,0,0,25.35546875,10.25390625,1,0,0,0,33,33,29,1,,,,,,,,
,,,,,,,,,,,,,FF,,,,,,,,0.8183,,,,,,,,,,,,,,,,,,,,,,60fddd15f7f160155121ae9e,61036b3723a23dcf36216c90,2021-07-29_20h01.01.694,Simcolourproject_2stim_asymm_v5,2020.2.10,MacIntel,60,61025ae37ef11b136ea224fe,,,,,,,,,2522,48.3671875,-33.8828125,1,0,0,response3disk,,5,11.02734375,-14.41015625,1,0,0,rectangle,11.02734375,-14.41015625,1,0,0,11.02734375,-14.41015625,1,0,0,0,34,34,147,1,,,,,,,,
,,,,,,,,,,,,,FF,,,,,,,,0.7515,,,,,,,,,,,,,,,,,,,,,,60fddd15f7f160155121ae9e,61036b3723a23dcf36216c90,2021-07-29_20h01.01.694,Simcolourproject_2stim_asymm_v5,2020.2.10,MacIntel,60,61025ae37ef11b136ea224fe,,,,,,,,,2814,44.03125,-24.9375,1,0,0,response3disk,,5,16.81640625,-10.19140625,1,0,0,rectangle,16.81640625,-10.19140625,1,0,0,16.81640625,-10.19140625,1,0,0,0,35,35,106,1,,,,,,,,
,,,,,,,,,,,,,FF,,,,,,,,0.5014,,,,,,,,,,,,,,,,,,,,,,60fddd15f7f160155121ae9e,61036b3723a23dcf36216c90,2021-07-29_20h01.01.694,Simcolourproject_2stim_asymm_v5,2020.2.10,MacIntel,60,61025ae37ef11b136ea224fe,,,,,,,,,816,59.24609375,-40.0234375,1,0,0,response3disk,,5,4.85546875,-0.546875,1,0,0,rectangle,4.85546875,-0.546875,1,0,0,4.85546875,-0.546875,1,0,0,0,36,36,148,1,,,,,,,,
,,,,,,,,,,,,,FF,,,,,,,,0.977900001,,,,,,,,,,,,,,,,,,,,,,60fddd15f7f160155121ae9e,61036b3723a23dcf36216c90,2021-07-29_20h01.01.694,Simcolourproject_2stim_asymm_v5,2020.2.10,MacIntel,60,61025ae37ef11b136ea224fe,,,,,,,,,998,45.56640625,-31.125,1,0,0,response3disk,,5,13.83984375,0.109375,1,0,0,rectangle,13.83984375,0.109375,1,0,0,13.83984375,0.109375,1,0,0,0,37,37,116,1,,,,,,,,
,,,,,,,,,,,,,FF,,,,,,,,0.7673,,,,,,,,,,,,,,,,,,,,,,60fddd15f7f160155121ae9e,61036b3723a23dcf36216c90,2021-07-29_20h01.01.694,Simcolourproject_2stim_asymm_v5,2020.2.10,MacIntel,60,61025ae37ef11b136ea224fe,,,,,,,,,3107,-37.3828125,-53.96875,1,0,0,response5disk,,3,-5.6484375,-4.85546875,1,0,0,rectangle,-5.6484375,-4.85546875,1,0,0,-5.6484375,-4.85546875,1,0,0,0,38,38,93,1,,,,,,,,
,,,,,,,,,,,,,FF,,,,,,,,0.7011,,,,,,,,,,,,,,,,,,,,,,60fddd15f7f160155121ae9e,61036b3723a23dcf36216c90,2021-07-29_20h01.01.694,Simcolourproject_2stim_asymm_v5,2020.2.10,MacIntel,60,61025ae37ef11b136ea224fe,,,,,,,,,646,64.421875,-34.99609375,1,0,0,response3disk,,5,11.01171875,4.1484375,1,0,0,rectangle,11.01171875,4.1484375,1,0,0,11.01171875,4.1484375,1,0,0,0,39,39,0,1,,,,,,,,
,,,,,,,,,,,,,FF,,,,,,,,0.8354,,,,,,,,,,,,,,,,,,,,,,60fddd15f7f160155121ae9e,61036b3723a23dcf36216c90,2021-07-29_20h01.01.694,Simcolourproject_2stim_asymm_v5,2020.2.10,MacIntel,60,61025ae37ef11b136ea224fe,,,,,,,,,2645,101.2265625,26.30859375,1,0,0,response1disk,,6,19.4375,4.57421875,1,0,0,rectangle,-38.69140625,87.9765625,1,0,0,22.65234375,-3.72265625,1,0,0,0,40,40,73,1,,response7disk_3,TRUE,0,0,"[83,84,279,75,149,290,69,28,88,196,24,60,225,197,139,31,0,197,41,131]",1.421400001,rectangle
,,,,,,,,,,,,,FF,,,,,,,,0.850400001,,,,,,,,,,,,,,,,,,,,,,60fddd15f7f160155121ae9e,61036b3723a23dcf36216c90,2021-07-29_20h01.01.694,Simcolourproject_2stim_asymm_v5,2020.2.10,MacIntel,60,61025ae37ef11b136ea224fe,,,,,,,,,1216,60.96875,-34.609375,1,0,0,response3disk,,5,16.4375,3.55859375,1,0,0,rectangle,16.4375,3.55859375,1,0,0,16.4375,3.55859375,1,0,0,0,41,41,159,1,,,,,,,,
,,,,,,,,,,,,,FF,,,,,,,,0.5353,,,,,,,,,,,,,,,,,,,,,,60fddd15f7f160155121ae9e,61036b3723a23dcf36216c90,2021-07-29_20h01.01.694,Simcolourproject_2stim_asymm_v5,2020.2.10,MacIntel,60,61025ae37ef11b136ea224fe,,,,,,,,,1500,63.5703125,33.31640625,1,0,0,response1disk,,6,6.44140625,5.578125,1,0,0,rectangle,6.44140625,5.578125,1,0,0,6.44140625,5.578125,1,0,0,0,42,42,44,1,,,,,,,,
,,,,,,,,,,,,,FF,,,,,,,,0.6359,,,,,,,,,,,,,,,,,,,,,,60fddd15f7f160155121ae9e,61036b3723a23dcf36216c90,2021-07-29_20h01.01.694,Simcolourproject_2stim_asymm_v5,2020.2.10,MacIntel,60,61025ae37ef11b136ea224fe,,,,,,,,,463,80.61328125,21.7421875,1,0,0,response1disk,,6,23.28515625,4.66015625,1,0,0,rectangle,23.28515625,4.66015625,1,0,0,23.28515625,4.66015625,1,0,0,0,43,43,126,1,,,,,,,,
,,,,,,,,,,,,,FF,,,,,,,,1.2687,,,,,,,,,,,,,,,,,,,,,,60fddd15f7f160155121ae9e,61036b3723a23dcf36216c90,2021-07-29_20h01.01.694,Simcolourproject_2stim_asymm_v5,2020.2.10,MacIntel,60,61025ae37ef11b136ea224fe,,,,,,,,,2766,35.09765625,89.9296875,1,0,0,response1disk,,7,26.87109375,5.5,1,0,0,rectangle,26.87109375,5.5,1,0,0,26.87109375,5.5,1,0,0,0,44,44,7,1,,,,,,,,
,,,,,,,,,,,,,FF,,,,,,,,0.5852,,,,,,,,,,,,,,,,,,,,,,60fddd15f7f160155121ae9e,61036b3723a23dcf36216c90,2021-07-29_20h01.01.694,Simcolourproject_2stim_asymm_v5,2020.2.10,MacIntel,60,61025ae37ef11b136ea224fe,,,,,,,,,2839,33.41015625,-37.87890625,1,0,0,response3disk,,4,22.59375,-8.625,1,0,0,rectangle,22.59375,-8.625,1,0,0,22.59375,-8.625,1,0,0,0,45,45,149,1,,,,,,,,
,,,,,,,,,,,,,FF,,,,,,,,0.8251,,,,,,,,,,,,,,,,,,,,,,60fddd15f7f160155121ae9e,61036b3723a23dcf36216c90,2021-07-29_20h01.01.694,Simcolourproject_2stim_asymm_v5,2020.2.10,MacIntel,60,61025ae37ef11b136ea224fe,,,,,,,,,1919,45.2421875,-29.6484375,1,0,0,response3disk,,5,10.625,-17.625,1,0,0,rectangle,10.625,-17.625,1,0,0,10.625,-17.625,1,0,0,0,46,46,30,1,,,,,,,,
,,,,,,,,,,,,,FF,,,,,,,,1.052700001,,,,,,,,,,,,,,,,,,,,,,60fddd15f7f160155121ae9e,61036b3723a23dcf36216c90,2021-07-29_20h01.01.694,Simcolourproject_2stim_asymm_v5,2020.2.10,MacIntel,60,61025ae37ef11b136ea224fe,,,,,,,,,773,23.9453125,-60.6640625,1,0,0,response3disk,,4,23.68359375,-0.9140625,1,0,0,rectangle,23.68359375,-0.9140625,1,0,0,23.68359375,-0.9140625,1,0,0,0,47,47,98,1,,,,,,,,
,,,,,,,,,,,,,FF,,,,,,,,0.7344,,,,,,,,,,,,,,,,,,,,,,60fddd15f7f160155121ae9e,61036b3723a23dcf36216c90,2021-07-29_20h01.01.694,Simcolourproject_2stim_asymm_v5,2020.2.10,MacIntel,60,61025ae37ef11b136ea224fe,,,,,,,,,2838,21.53515625,-52.5078125,1,0,0,response3disk,,4,0.6953125,11.3359375,1,0,0,rectangle,0.6953125,11.3359375,1,0,0,0.6953125,11.3359375,1,0,0,0,48,48,111,1,,,,,,,,
,,,,,,,,,,,,,FF,,,,,,,,0.5029,,,,,,,,,,,,,,,,,,,,,,60fddd15f7f160155121ae9e,61036b3723a23dcf36216c90,2021-07-29_20h01.01.694,Simcolourproject_2stim_asymm_v5,2020.2.10,MacIntel,60,61025ae37ef11b136ea224fe,,,,,,,,,570,66.15625,-28.98828125,1,0,0,response3disk,,5,5.6328125,7.0390625,1,0,0,rectangle,5.6328125,7.0390625,1,0,0,5.6328125,7.0390625,1,0,0,0,49,49,41,1,,,,,,,,
,,,,,,,,,,,,,FF,,,,,,,,0.7526,,,,,,,,,,,,,,,,,,,,,,60fddd15f7f160155121ae9e,61036b3723a23dcf36216c90,2021-07-29_20h01.01.694,Simcolourproject_2stim_asymm_v5,2020.2.10,MacIntel,60,61025ae37ef11b136ea224fe,,,,,,,,,4362,-50.83203125,30.30078125,1,0,0,response7disk,,1,4.6875,8.04296875,1,0,0,rectangle,4.6875,8.04296875,1,0,0,4.6875,8.04296875,1,0,0,0,50,50,11,1,,,,,,,,
,,,,,,,,,,,,,FF,,,,,,,,2.64,,,,,,,,,,,,,,,,,,,,,,60fddd15f7f160155121ae9e,61036b3723a23dcf36216c90,2021-07-29_20h01.01.694,Simcolourproject_2stim_asymm_v5,2020.2.10,MacIntel,60,61025ae37ef11b136ea224fe,,,,,,,,,2595,61.8359375,-21.5390625,1,0,0,response3disk,,5,25.19921875,-7.13671875,1,0,0,rectangle,25.19921875,-7.13671875,1,0,0,25.19921875,-7.13671875,1,0,0,0,51,51,38,1,,,,,,,,
,,,,,,,,,,,,,FF,,,,,,,,0.8687,,,,,,,,,,,,,,,,,,,,,,60fddd15f7f160155121ae9e,61036b3723a23dcf36216c90,2021-07-29_20h01.01.694,Simcolourproject_2stim_asymm_v5,2020.2.10,MacIntel,60,61025ae37ef11b136ea224fe,,,,,,,,,819,50.25,33.0234375,1,0,0,response1disk,,6,4.16796875,-0.765625,1,0,0,rectangle,4.16796875,-0.765625,1,0,0,4.16796875,-0.765625,1,0,0,0,52,52,75,1,,,,,,,,
,,,,,,,,,,,,,FF,,,,,,,,0.5515,,,,,,,,,,,,,,,,,,,,,,60fddd15f7f160155121ae9e,61036b3723a23dcf36216c90,2021-07-29_20h01.01.694,Simcolourproject_2stim_asymm_v5,2020.2.10,MacIntel,60,61025ae37ef11b136ea224fe,,,,,,,,,429,57.2890625,-26.09765625,1,0,0,response3disk,,5,6.51171875,-14.9140625,1,0,0,rectangle,6.51171875,-14.9140625,1,0,0,6.51171875,-14.9140625,1,0,0,0,53,53,125,1,,,,,,,,
,,,,,,,,,,,,,FF,,,,,,,,0.4847,,,,,,,,,,,,,,,,,,,,,,60fddd15f7f160155121ae9e,61036b3723a23dcf36216c90,2021-07-29_20h01.01.694,Simcolourproject_2stim_asymm_v5,2020.2.10,MacIntel,60,61025ae37ef11b136ea224fe,,,,,,,,,131,76.27734375,-36.7890625,1,0,0,response3disk,,5,14.44140625,-7.53515625,1,0,0,rectangle,14.44140625,-7.53515625,1,0,0,14.44140625,-7.53515625,1,0,0,0,54,54,127,1,,,,,,,,
,,,,,,,,,,,,,FF,,,,,,,,0.7517,,,,,,,,,,,,,,,,,,,,,,60fddd15f7f160155121ae9e,61036b3723a23dcf36216c90,2021-07-29_20h01.01.694,Simcolourproject_2stim_asymm_v5,2020.2.10,MacIntel,60,61025ae37ef11b136ea224fe,,,,,,,,,4167,35.87890625,-26.10546875,1,0,0,response3disk,,5,-8.25390625,-1.390625,1,0,0,rectangle,-8.25390625,-1.390625,1,0,0,-8.25390625,-1.390625,1,0,0,0,55,55,9,1,,,,,,,,
,,,,,,,,,,,,,FF,,,,,,,,0.6853,,,,,,,,,,,,,,,,,,,,,,60fddd15f7f160155121ae9e,61036b3723a23dcf36216c90,2021-07-29_20h01.01.694,Simcolourproject_2stim_asymm_v5,2020.2.10,MacIntel,60,61025ae37ef11b136ea224fe,,,,,,,,,1510,79.796875,27.35546875,1,0,0,response1disk,,6,18.1875,6.51171875,1,0,0,rectangle,18.1875,6.51171875,1,0,0,18.1875,6.51171875,1,0,0,0,56,56,66,1,,,,,,,,
,,,,,,,,,,,,,FF,,,,,,,,0.8028,,,,,,,,,,,,,,,,,,,,,,60fddd15f7f160155121ae9e,61036b3723a23dcf36216c90,2021-07-29_20h01.01.694,Simcolourproject_2stim_asymm_v5,2020.2.10,MacIntel,60,61025ae37ef11b136ea224fe,,,,,,,,,196,41.3515625,-27.26171875,1,0,0,response3disk,,5,3.71875,-2.4765625,1,0,0,rectangle,3.71875,-2.4765625,1,0,0,3.71875,-2.4765625,1,0,0,0,57,57,139,1,,,,,,,,
,,,,,,,,,,,,,FF,,,,,,,,0.8358,,,,,,,,,,,,,,,,,,,,,,60fddd15f7f160155121ae9e,61036b3723a23dcf36216c90,2021-07-29_20h01.01.694,Simcolourproject_2stim_asymm_v5,2020.2.10,MacIntel,60,61025ae37ef11b136ea224fe,,,,,,,,,4130,44.9921875,-31.05859375,1,0,0,response3disk,,5,6.72265625,-10.92578125,1,0,0,rectangle,6.72265625,-10.92578125,1,0,0,6.72265625,-10.92578125,1,0,0,0,58,58,16,1,,,,,,,,
,,,,,,,,,,,,,FF,,,,,,,,0.8841,,,,,,,,,,,,,,,,,,,,,,60fddd15f7f160155121ae9e,61036b3723a23dcf36216c90,2021-07-29_20h01.01.694,Simcolourproject_2stim_asymm_v5,2020.2.10,MacIntel,60,61025ae37ef11b136ea224fe,,,,,,,,,1610,27.7890625,-63.13671875,1,0,0,response3disk,,4,17.890625,-9.19140625,1,0,0,rectangle,27.2890625,-74.63671875,1,0,0,-15.40234375,3.265625,1,0,0,0,59,59,25,1,,response3disk_3,TRUE,4,4,"[83,84,279,75,149,290,69,28,88,196,24,60,225,197,139,31,0,197,41,131]",1.923200001,rectangle
,,,,,,,,,,,,,FF,,,,,,,,1.0032,,,,,,,,,,,,,,,,,,,,,,60fddd15f7f160155121ae9e,61036b3723a23dcf36216c90,2021-07-29_20h01.01.694,Simcolourproject_2stim_asymm_v5,2020.2.10,MacIntel,60,61025ae37ef11b136ea224fe,,,,,,,,,1532,65.57421875,33.15625,1,0,0,response1disk,,6,4.9375,6.76171875,1,0,0,rectangle,4.9375,6.76171875,1,0,0,4.9375,6.76171875,1,0,0,0,60,60,150,1,,,,,,,,
,,,,,,,,,,,,,FF,,,,,,,,0.9027,,,,,,,,,,,,,,,,,,,,,,60fddd15f7f160155121ae9e,61036b3723a23dcf36216c90,2021-07-29_20h01.01.694,Simcolourproject_2stim_asymm_v5,2020.2.10,MacIntel,60,61025ae37ef11b136ea224fe,,,,,,,,,1354,58.69921875,39.32421875,1,0,0,response1disk,,6,-6.51953125,-3.6875,1,0,0,rectangle,-6.51953125,-3.6875,1,0,0,-6.51953125,-3.6875,1,0,0,0,61,61,50,1,,,,,,,,
,,,,,,,,,,,,,FF,,,,,,,,0.617799999,,,,,,,,,,,,,,,,,,,,,,60fddd15f7f160155121ae9e,61036b3723a23dcf36216c90,2021-07-29_20h01.01.694,Simcolourproject_2stim_asymm_v5,2020.2.10,MacIntel,60,61025ae37ef11b136ea224fe,,,,,,,,,2003,44.1328125,19.11328125,1,0,0,response1disk,,6,0.01171875,-11.49609375,1,0,0,rectangle,0.01171875,-11.49609375,1,0,0,0.01171875,-11.49609375,1,0,0,0,62,62,14,1,,,,,,,,
,,,,,,,,,,,,,FF,,,,,,,,0.5012,,,,,,,,,,,,,,,,,,,,,,60fddd15f7f160155121ae9e,61036b3723a23dcf36216c90,2021-07-29_20h01.01.694,Simcolourproject_2stim_asymm_v5,2020.2.10,MacIntel,60,61025ae37ef11b136ea224fe,,,,,,,,,2756,59.3671875,-23.98828125,1,0,0,response3disk,,5,7.875,-16.90234375,1,0,0,rectangle,7.875,-16.90234375,1,0,0,7.875,-16.90234375,1,0,0,0,63,63,121,1,,,,,,,,
,,,,,,,,,,,,,FF,,,,,,,,0.4158,,,,,,,,,,,,,,,,,,,,,,60fddd15f7f160155121ae9e,61036b3723a23dcf36216c90,2021-07-29_20h01.01.694,Simcolourproject_2stim_asymm_v5,2020.2.10,MacIntel,60,61025ae37ef11b136ea224fe,,,,,,,,,2315,45,-59.59375,1,0,0,response3disk,,4,21.31640625,-5.4921875,1,0,0,rectangle,21.31640625,-5.4921875,1,0,0,21.31640625,-5.4921875,1,0,0,0,64,64,60,1,,,,,,,,
,,,,,,,,,,,,,FF,,,,,,,,0.484400001,,,,,,,,,,,,,,,,,,,,,,60fddd15f7f160155121ae9e,61036b3723a23dcf36216c90,2021-07-29_20h01.01.694,Simcolourproject_2stim_asymm_v5,2020.2.10,MacIntel,60,61025ae37ef11b136ea224fe,,,,,,,,,1352,44.0703125,-25.37109375,1,0,0,response3disk,,5,9.29296875,-11.2265625,1,0,0,rectangle,9.29296875,-11.2265625,1,0,0,9.29296875,-11.2265625,1,0,0,0,65,65,157,1,,,,,,,,
,,,,,,,,,,,,,FF,,,,,,,,0.9353,,,,,,,,,,,,,,,,,,,,,,60fddd15f7f160155121ae9e,61036b3723a23dcf36216c90,2021-07-29_20h01.01.694,Simcolourproject_2stim_asymm_v5,2020.2.10,MacIntel,60,61025ae37ef11b136ea224fe,,,,,,,,,71,21.265625,-61.046875,1,0,0,response3disk,,4,12.94140625,-14.27734375,1,0,0,rectangle,12.94140625,-14.27734375,1,0,0,12.94140625,-14.27734375,1,0,0,0,66,66,39,1,,,,,,,,
,,,,,,,,,,,,,FF,,,,,,,,0.835,,,,,,,,,,,,,,,,,,,,,,60fddd15f7f160155121ae9e,61036b3723a23dcf36216c90,2021-07-29_20h01.01.694,Simcolourproject_2stim_asymm_v5,2020.2.10,MacIntel,60,61025ae37ef11b136ea224fe,,,,,,,,,564,65.8046875,23.3671875,1,0,0,response1disk,,6,6.33984375,13.578125,1,0,0,rectangle,6.33984375,13.578125,1,0,0,6.33984375,13.578125,1,0,0,0,67,67,86,1,,,,,,,,
,,,,,,,,,,,,,FF,,,,,,,,0.7841,,,,,,,,,,,,,,,,,,,,,,60fddd15f7f160155121ae9e,61036b3723a23dcf36216c90,2021-07-29_20h01.01.694,Simcolourproject_2stim_asymm_v5,2020.2.10,MacIntel,60,61025ae37ef11b136ea224fe,,,,,,,,,533,-33.0625,-64.328125,1,0,0,response5disk,,3,-22.140625,3.78515625,1,0,0,rectangle,31.94921875,99.76953125,1,0,0,26.69921875,-3.3359375,1,0,0,0,68,68,133,1,,response1disk_3,TRUE,7,7,"[83,84,279,75,149,290,69,28,88,196,24,60,225,197,139,31,0,197,41,131]",1.4043,rectangle
,,,,,,,,,,,,,FF,,,,,,,,0.919,,,,,,,,,,,,,,,,,,,,,,60fddd15f7f160155121ae9e,61036b3723a23dcf36216c90,2021-07-29_20h01.01.694,Simcolourproject_2stim_asymm_v5,2020.2.10,MacIntel,60,61025ae37ef11b136ea224fe,,,,,,,,,4317,47.12890625,-37.68359375,1,0,0,response3disk,,5,-2.66015625,12.09375,1,0,0,rectangle,-2.66015625,12.09375,1,0,0,-2.66015625,12.09375,1,0,0,0,69,69,109,1,,,,,,,,
,,,,,,,,,,,,,FF,,,,,,,,1.036,,,,,,,,,,,,,,,,,,,,,,60fddd15f7f160155121ae9e,61036b3723a23dcf36216c90,2021-07-29_20h01.01.694,Simcolourproject_2stim_asymm_v5,2020.2.10,MacIntel,60,61025ae37ef11b136ea224fe,,,,,,,,,2219,32.3671875,-70.03515625,1,0,0,response3disk,,4,17.30078125,-11.9765625,1,0,0,rectangle,17.30078125,-11.9765625,1,0,0,17.30078125,-11.9765625,1,0,0,0,70,70,68,1,,,,,,,,
,,,,,,,,,,,,,FF,,,,,,,,0.4505,,,,,,,,,,,,,,,,,,,,,,60fddd15f7f160155121ae9e,61036b3723a23dcf36216c90,2021-07-29_20h01.01.694,Simcolourproject_2stim_asymm_v5,2020.2.10,MacIntel,60,61025ae37ef11b136ea224fe,,,,,,,,,4269,-38.609375,-53.015625,1,0,0,response5disk,,3,-0.96484375,5.55078125,1,0,0,rectangle,-0.96484375,5.55078125,1,0,0,-0.96484375,5.55078125,1,0,0,0,71,71,137,1,,,,,,,,
,,,,,,,,,,,,,FF,,,,,,,,0.818,,,,,,,,,,,,,,,,,,,,,,60fddd15f7f160155121ae9e,61036b3723a23dcf36216c90,2021-07-29_20h01.01.694,Simcolourproject_2stim_asymm_v5,2020.2.10,MacIntel,60,61025ae37ef11b136ea224fe,,,,,,,,,540,62.5703125,27.65625,1,0,0,response1disk,,6,9.58203125,15.0390625,1,0,0,rectangle,9.58203125,15.0390625,1,0,0,9.58203125,15.0390625,1,0,0,0,72,72,120,1,,,,,,,,
,,,,,,,,,,,,,FF,,,,,,,,0.9853,,,,,,,,,,,,,,,,,,,,,,60fddd15f7f160155121ae9e,61036b3723a23dcf36216c90,2021-07-29_20h01.01.694,Simcolourproject_2stim_asymm_v5,2020.2.10,MacIntel,60,61025ae37ef11b136ea224fe,,,,,,,,,468,35.63671875,-56.9296875,1,0,0,response3disk,,4,5.96484375,0.81640625,1,0,0,rectangle,5.96484375,0.81640625,1,0,0,5.96484375,0.81640625,1,0,0,0,73,73,104,1,,,,,,,,
,,,,,,,,,,,,,FF,,,,,,,,0.984700001,,,,,,,,,,,,,,,,,,,,,,60fddd15f7f160155121ae9e,61036b3723a23dcf36216c90,2021-07-29_20h01.01.694,Simcolourproject_2stim_asymm_v5,2020.2.10,MacIntel,60,61025ae37ef11b136ea224fe,,,,,,,,,2655,90.8203125,-23.4921875,1,0,0,response3disk,,5,7.71484375,-8.4765625,1,0,0,rectangle,61.32421875,-33.7578125,1,0,0,14.53125,-14.1484375,1,0,0,0,74,74,83,1,,response3disk_3,TRUE,5,5,"[83,84,279,75,149,290,69,28,88,196,24,60,225,197,139,31,0,197,41,131]",1.4887,rectangle
,,,,,,,,,,,,,FF,,,,,,,,0.601,,,,,,,,,,,,,,,,,,,,,,60fddd15f7f160155121ae9e,61036b3723a23dcf36216c90,2021-07-29_20h01.01.694,Simcolourproject_2stim_asymm_v5,2020.2.10,MacIntel,60,61025ae37ef11b136ea224fe,,,,,,,,,1588,41.859375,-26.73828125,1,0,0,response3disk,,5,2.3359375,-12.80859375,1,0,0,rectangle,2.3359375,-12.80859375,1,0,0,2.3359375,-12.80859375,1,0,0,0,75,75,18,1,,,,,,,,
,,,,,,,,,,,,,FF,,,,,,,,1.4543,,,,,,,,,,,,,,,,,,,,,,60fddd15f7f160155121ae9e,61036b3723a23dcf36216c90,2021-07-29_20h01.01.694,Simcolourproject_2stim_asymm_v5,2020.2.10,MacIntel,60,61025ae37ef11b136ea224fe,,,,,,,,,4135,48.5078125,-33.9921875,1,0,0,response3disk,,5,7.24609375,-10.70703125,1,0,0,rectangle,7.24609375,-10.70703125,1,0,0,7.24609375,-10.70703125,1,0,0,0,76,76,144,1,,,,,,,,
,,,,,,,,,,,,,FF,,,,,,,,1.1856,,,,,,,,,,,,,,,,,,,,,,60fddd15f7f160155121ae9e,61036b3723a23dcf36216c90,2021-07-29_20h01.01.694,Simcolourproject_2stim_asymm_v5,2020.2.10,MacIntel,60,61025ae37ef11b136ea224fe,,,,,,,,,4335,-54.73046875,-26.90234375,1,0,0,response5disk,,2,-7.61328125,-11.4296875,1,0,0,rectangle,-7.61328125,-11.4296875,1,0,0,-7.61328125,-11.4296875,1,0,0,0,77,77,19,1,,,,,,,,
,,,,,,,,,,,,,FF,,,,,,,,0.7186,,,,,,,,,,,,,,,,,,,,,,60fddd15f7f160155121ae9e,61036b3723a23dcf36216c90,2021-07-29_20h01.01.694,Simcolourproject_2stim_asymm_v5,2020.2.10,MacIntel,60,61025ae37ef11b136ea224fe,,,,,,,,,2262,-36.26171875,-58.63671875,1,0,0,response5disk,,3,-0.62890625,-9.359375,1,0,0,rectangle,-0.62890625,-9.359375,1,0,0,-0.62890625,-9.359375,1,0,0,0,78,78,56,1,,,,,,,,
,,,,,,,,,,,,,FF,,,,,,,,0.689599999,,,,,,,,,,,,,,,,,,,,,,60fddd15f7f160155121ae9e,61036b3723a23dcf36216c90,2021-07-29_20h01.01.694,Simcolourproject_2stim_asymm_v5,2020.2.10,MacIntel,60,61025ae37ef11b136ea224fe,,,,,,,,,4013,48.953125,-36.1328125,1,0,0,response3disk,,5,-14.14453125,3.1015625,1,0,0,rectangle,-14.14453125,3.1015625,1,0,0,-14.14453125,3.1015625,1,0,0,0,79,79,132,1,,,,,,,,
,,,,,,,,,,,,,FF,,,,,,,,0.8852,,,,,,,,,,,,,,,,,,,,,,60fddd15f7f160155121ae9e,61036b3723a23dcf36216c90,2021-07-29_20h01.01.694,Simcolourproject_2stim_asymm_v5,2020.2.10,MacIntel,60,61025ae37ef11b136ea224fe,,,,,,,,,4033,67.18359375,21.73828125,1,0,0,response1disk,,6,7.02734375,10.2265625,1,0,0,rectangle,7.02734375,10.2265625,1,0,0,7.02734375,10.2265625,1,0,0,0,80,80,8,1,,,,,,,,
,,,,,,,,,,,,,FF,,,,,,,,0.735599999,,,,,,,,,,,,,,,,,,,,,,60fddd15f7f160155121ae9e,61036b3723a23dcf36216c90,2021-07-29_20h01.01.694,Simcolourproject_2stim_asymm_v5,2020.2.10,MacIntel,60,61025ae37ef11b136ea224fe,,,,,,,,,560,47.984375,-26.79296875,1,0,0,response3disk,,5,-3.421875,-16.7421875,1,0,0,rectangle,-3.421875,-16.7421875,1,0,0,-3.421875,-16.7421875,1,0,0,0,81,81,47,1,,,,,,,,
,,,,,,,,,,,,,FF,,,,,,,,1.2507,,,,,,,,,,,,,,,,,,,,,,60fddd15f7f160155121ae9e,61036b3723a23dcf36216c90,2021-07-29_20h01.01.694,Simcolourproject_2stim_asymm_v5,2020.2.10,MacIntel,60,61025ae37ef11b136ea224fe,,,,,,,,,300,67.453125,25.37890625,1,0,0,response1disk,,6,31.84375,7.671875,1,0,0,rectangle,22.46484375,-68.41015625,1,0,0,24.28515625,-2.09765625,1,0,0,0,82,82,115,1,,response3disk_3,TRUE,4,4,"[83,84,279,75,149,290,69,28,88,196,24,60,225,197,139,31,0,197,41,131]",1.8399,rectangle
,,,,,,,,,,,,,FF,,,,,,,,0.734700001,,,,,,,,,,,,,,,,,,,,,,60fddd15f7f160155121ae9e,61036b3723a23dcf36216c90,2021-07-29_20h01.01.694,Simcolourproject_2stim_asymm_v5,2020.2.10,MacIntel,60,61025ae37ef11b136ea224fe,,,,,,,,,508,47.1953125,-30.05078125,1,0,0,response3disk,,5,4.578125,-13.34375,1,0,0,rectangle,64.203125,-37.7734375,1,0,0,-5.58203125,-8.25,1,0,0,0,83,83,59,1,,response3disk_3,TRUE,5,5,"[83,84,279,75,149,290,69,28,88,196,24,60,225,197,139,31,0,197,41,131]",1.5032,rectangle
,,,,,,,,,,,,,FF,,,,,,,,0.801799999,,,,,,,,,,,,,,,,,,,,,,60fddd15f7f160155121ae9e,61036b3723a23dcf36216c90,2021-07-29_20h01.01.694,Simcolourproject_2stim_asymm_v5,2020.2.10,MacIntel,60,61025ae37ef11b136ea224fe,,,,,,,,,874,42.53125,-65.46484375,1,0,0,response3disk,,4,20.48828125,-11.40234375,1,0,0,rectangle,20.48828125,-11.40234375,1,0,0,20.48828125,-11.40234375,1,0,0,0,84,84,28,1,,,,,,,,
,,,,,,,,,,,,,FF,,,,,,,,0.4838,,,,,,,,,,,,,,,,,,,,,,60fddd15f7f160155121ae9e,61036b3723a23dcf36216c90,2021-07-29_20h01.01.694,Simcolourproject_2stim_asymm_v5,2020.2.10,MacIntel,60,61025ae37ef11b136ea224fe,,,,,,,,,1872,56.29296875,-35.03515625,1,0,0,response3disk,,5,-2.1953125,-1.53515625,1,0,0,rectangle,-2.1953125,-1.53515625,1,0,0,-2.1953125,-1.53515625,1,0,0,0,85,85,42,1,,,,,,,,
,,,,,,,,,,,,,FF,,,,,,,,0.8363,,,,,,,,,,,,,,,,,,,,,,60fddd15f7f160155121ae9e,61036b3723a23dcf36216c90,2021-07-29_20h01.01.694,Simcolourproject_2stim_asymm_v5,2020.2.10,MacIntel,60,61025ae37ef11b136ea224fe,,,,,,,,,3044,50.0078125,22.87890625,1,0,0,response1disk,,6,-0.5625,-0.33203125,1,0,0,rectangle,-0.5625,-0.33203125,1,0,0,-0.5625,-0.33203125,1,0,0,0,86,86,136,1,,,,,,,,
,,,,,,,,,,,,,FF,,,,,,,,0.5188,,,,,,,,,,,,,,,,,,,,,,60fddd15f7f160155121ae9e,61036b3723a23dcf36216c90,2021-07-29_20h01.01.694,Simcolourproject_2stim_asymm_v5,2020.2.10,MacIntel,60,61025ae37ef11b136ea224fe,,,,,,,,,990,44.609375,-33.5546875,1,0,0,response3disk,,5,6.5703125,-0.18359375,1,0,0,rectangle,97.578125,46.703125,1,0,0,18.19140625,12.51953125,1,0,0,0,87,87,5,1,,response1disk_3,TRUE,6,6,"[83,84,279,75,149,290,69,28,88,196,24,60,225,197,139,31,0,197,41,131]",1.271099999,rectangle
,,,,,,,,,,,,,FF,,,,,,,,0.5354,,,,,,,,,,,,,,,,,,,,,,60fddd15f7f160155121ae9e,61036b3723a23dcf36216c90,2021-07-29_20h01.01.694,Simcolourproject_2stim_asymm_v5,2020.2.10,MacIntel,60,61025ae37ef11b136ea224fe,,,,,,,,,1950,57.33203125,-33.94921875,1,0,0,response3disk,,5,12.16796875,-2.26953125,1,0,0,rectangle,12.16796875,-2.26953125,1,0,0,12.16796875,-2.26953125,1,0,0,0,88,88,64,1,,,,,,,,
,,,,,,,,,,,,,FF,,,,,,,,0.5003,,,,,,,,,,,,,,,,,,,,,,60fddd15f7f160155121ae9e,61036b3723a23dcf36216c90,2021-07-29_20h01.01.694,Simcolourproject_2stim_asymm_v5,2020.2.10,MacIntel,60,61025ae37ef11b136ea224fe,,,,,,,,,1339,35.2421875,-56.921875,1,0,0,response3disk,,4,20.7578125,5.28125,1,0,0,rectangle,20.7578125,5.28125,1,0,0,20.7578125,5.28125,1,0,0,0,89,89,96,1,,,,,,,,
,,,,,,,,,,,,,FF,,,,,,,,0.8532,,,,,,,,,,,,,,,,,,,,,,60fddd15f7f160155121ae9e,61036b3723a23dcf36216c90,2021-07-29_20h01.01.694,Simcolourproject_2stim_asymm_v5,2020.2.10,MacIntel,60,61025ae37ef11b136ea224fe,,,,,,,,,2088,76.04296875,-39.203125,1,0,0,response3disk,,5,18.31640625,-9.49609375,1,0,0,rectangle,18.31640625,-9.49609375,1,0,0,18.31640625,-9.49609375,1,0,0,0,90,90,43,1,,,,,,,,
,,,,,,,,,,,,,FF,,,,,,,,0.6034,,,,,,,,,,,,,,,,,,,,,,60fddd15f7f160155121ae9e,61036b3723a23dcf36216c90,2021-07-29_20h01.01.694,Simcolourproject_2stim_asymm_v5,2020.2.10,MacIntel,60,61025ae37ef11b136ea224fe,,,,,,,,,2758,35.58203125,-63.80078125,1,0,0,response3disk,,4,2.36328125,3.08984375,1,0,0,rectangle,2.36328125,3.08984375,1,0,0,2.36328125,3.08984375,1,0,0,0,91,91,58,1,,,,,,,,
,,,,,,,,,,,,,FF,,,,,,,,0.516599999,,,,,,,,,,,,,,,,,,,,,,60fddd15f7f160155121ae9e,61036b3723a23dcf36216c90,2021-07-29_20h01.01.694,Simcolourproject_2stim_asymm_v5,2020.2.10,MacIntel,60,61025ae37ef11b136ea224fe,,,,,,,,,2564,67.00390625,-36.74609375,1,0,0,response3disk,,5,13.51953125,-12.2734375,1,0,0,rectangle,13.51953125,-12.2734375,1,0,0,13.51953125,-12.2734375,1,0,0,0,92,92,20,1,,,,,,,,
,,,,,,,,,,,,,FF,,,,,,,,0.4658,,,,,,,,,,,,,,,,,,,,,,60fddd15f7f160155121ae9e,61036b3723a23dcf36216c90,2021-07-29_20h01.01.694,Simcolourproject_2stim_asymm_v5,2020.2.10,MacIntel,60,61025ae37ef11b136ea224fe,,,,,,,,,2344,56.796875,-32.421875,1,0,0,response3disk,,5,11.3203125,-3.2890625,1,0,0,rectangle,11.3203125,-3.2890625,1,0,0,11.3203125,-3.2890625,1,0,0,0,93,93,22,1,,,,,,,,
,,,,,,,,,,,,,FF,,,,,,,,0.6841,,,,,,,,,,,,,,,,,,,,,,60fddd15f7f160155121ae9e,61036b3723a23dcf36216c90,2021-07-29_20h01.01.694,Simcolourproject_2stim_asymm_v5,2020.2.10,MacIntel,60,61025ae37ef11b136ea224fe,,,,,,,,,3772,33.125,-57.84375,1,0,0,response3disk,,4,14.22265625,-0.74609375,1,0,0,rectangle,14.22265625,-0.74609375,1,0,0,14.22265625,-0.74609375,1,0,0,0,94,94,97,1,,,,,,,,
,,,,,,,,,,,,,FF,,,,,,,,0.4855,,,,,,,,,,,,,,,,,,,,,,60fddd15f7f160155121ae9e,61036b3723a23dcf36216c90,2021-07-29_20h01.01.694,Simcolourproject_2stim_asymm_v5,2020.2.10,MacIntel,60,61025ae37ef11b136ea224fe,,,,,,,,,3486,55.9140625,-30.26171875,1,0,0,response3disk,,5,9.77734375,-4.75,1,0,0,rectangle,9.77734375,-4.75,1,0,0,9.77734375,-4.75,1,0,0,0,95,95,152,1,,,,,,,,
,,,,,,,,,,,,,FF,,,,,,,,0.6292,,,,,,,,,,,,,,,,,,,,,,60fddd15f7f160155121ae9e,61036b3723a23dcf36216c90,2021-07-29_20h01.01.694,Simcolourproject_2stim_asymm_v5,2020.2.10,MacIntel,60,61025ae37ef11b136ea224fe,,,,,,,,,2773,88.4140625,-33.7734375,1,0,0,response3disk,,5,19.80859375,-2.6015625,1,0,0,rectangle,19.80859375,-2.6015625,1,0,0,19.80859375,-2.6015625,1,0,0,0,96,96,118,1,,,,,,,,
,,,,,,,,,,,,,FF,,,,,,,,0.6351,,,,,,,,,,,,,,,,,,,,,,60fddd15f7f160155121ae9e,61036b3723a23dcf36216c90,2021-07-29_20h01.01.694,Simcolourproject_2stim_asymm_v5,2020.2.10,MacIntel,60,61025ae37ef11b136ea224fe,,,,,,,,,3596,26.8046875,-50.28515625,1,0,0,response3disk,,4,20.41796875,-6.05859375,1,0,0,rectangle,20.41796875,-6.05859375,1,0,0,20.41796875,-6.05859375,1,0,0,0,97,97,2,1,,,,,,,,
,,,,,,,,,,,,,FF,,,,,,,,0.7523,,,,,,,,,,,,,,,,,,,,,,60fddd15f7f160155121ae9e,61036b3723a23dcf36216c90,2021-07-29_20h01.01.694,Simcolourproject_2stim_asymm_v5,2020.2.10,MacIntel,60,61025ae37ef11b136ea224fe,,,,,,,,,1458,30.0859375,-46.8125,1,0,0,response3disk,,4,13.75390625,-3.1171875,1,0,0,rectangle,13.75390625,-3.1171875,1,0,0,13.75390625,-3.1171875,1,0,0,0,98,98,85,1,,,,,,,,
,,,,,,,,,,,,,FF,,,,,,,,0.8025,,,,,,,,,,,,,,,,,,,,,,60fddd15f7f160155121ae9e,61036b3723a23dcf36216c90,2021-07-29_20h01.01.694,Simcolourproject_2stim_asymm_v5,2020.2.10,MacIntel,60,61025ae37ef11b136ea224fe,,,,,,,,,1668,67.06640625,27.35546875,1,0,0,response1disk,,6,26.3203125,10.63671875,1,0,0,rectangle,26.3203125,10.63671875,1,0,0,26.3203125,10.63671875,1,0,0,0,99,99,13,1,,,,,,,,
,,,,,,,,,,,,,FF,,,,,,,,0.7021,,,,,,,,,,,,,,,,,,,,,,60fddd15f7f160155121ae9e,61036b3723a23dcf36216c90,2021-07-29_20h01.01.694,Simcolourproject_2stim_asymm_v5,2020.2.10,MacIntel,60,61025ae37ef11b136ea224fe,,,,,,,,,4,43.1328125,-36.265625,1,0,0,response3disk,,5,2.7265625,0.98046875,1,0,0,rectangle,2.7265625,0.98046875,1,0,0,2.7265625,0.98046875,1,0,0,0,100,100,65,1,,,,,,,,
,,,,,,,,,,,,,FF,,,,,,,,0.651799999,,,,,,,,,,,,,,,,,,,,,,60fddd15f7f160155121ae9e,61036b3723a23dcf36216c90,2021-07-29_20h01.01.694,Simcolourproject_2stim_asymm_v5,2020.2.10,MacIntel,60,61025ae37ef11b136ea224fe,,,,,,,,,134,42.25,-53.88671875,1,0,0,response3disk,,4,22.97265625,-2.93359375,1,0,0,rectangle,22.97265625,-2.93359375,1,0,0,22.97265625,-2.93359375,1,0,0,0,101,101,4,1,,,,,,,,
,,,,,,,,,,,,,FF,,,,,,,,0.5172,,,,,,,,,,,,,,,,,,,,,,60fddd15f7f160155121ae9e,61036b3723a23dcf36216c90,2021-07-29_20h01.01.694,Simcolourproject_2stim_asymm_v5,2020.2.10,MacIntel,60,61025ae37ef11b136ea224fe,,,,,,,,,3174,68.984375,-47.24609375,1,0,0,response3disk,,5,29.80859375,-5.4375,1,0,0,rectangle,29.80859375,-5.4375,1,0,0,29.80859375,-5.4375,1,0,0,0,102,102,51,1,,,,,,,,
,,,,,,,,,,,,,FF,,,,,,,,0.618,,,,,,,,,,,,,,,,,,,,,,60fddd15f7f160155121ae9e,61036b3723a23dcf36216c90,2021-07-29_20h01.01.694,Simcolourproject_2stim_asymm_v5,2020.2.10,MacIntel,60,61025ae37ef11b136ea224fe,,,,,,,,,55,45.58203125,-29.20703125,1,0,0,response3disk,,5,-1.0390625,-10.984375,1,0,0,rectangle,-1.0390625,-10.984375,1,0,0,-1.0390625,-10.984375,1,0,0,0,103,103,119,1,,,,,,,,
,,,,,,,,,,,,,FF,,,,,,,,0.786299999,,,,,,,,,,,,,,,,,,,,,,60fddd15f7f160155121ae9e,61036b3723a23dcf36216c90,2021-07-29_20h01.01.694,Simcolourproject_2stim_asymm_v5,2020.2.10,MacIntel,60,61025ae37ef11b136ea224fe,,,,,,,,,3335,63.8671875,31.4453125,1,0,0,response1disk,,6,20.15234375,6.73828125,1,0,0,rectangle,20.15234375,6.73828125,1,0,0,20.15234375,6.73828125,1,0,0,0,104,104,24,1,,,,,,,,
,,,,,,,,,,,,,FF,,,,,,,,0.686099999,,,,,,,,,,,,,,,,,,,,,,60fddd15f7f160155121ae9e,61036b3723a23dcf36216c90,2021-07-29_20h01.01.694,Simcolourproject_2stim_asymm_v5,2020.2.10,MacIntel,60,61025ae37ef11b136ea224fe,,,,,,,,,90,42.95703125,-59.9921875,1,0,0,response3disk,,4,29.7734375,10.2890625,1,0,0,rectangle,29.7734375,10.2890625,1,0,0,29.7734375,10.2890625,1,0,0,0,105,105,101,1,,,,,,,,
,,,,,,,,,,,,,FF,,,,,,,,0.617,,,,,,,,,,,,,,,,,,,,,,60fddd15f7f160155121ae9e,61036b3723a23dcf36216c90,2021-07-29_20h01.01.694,Simcolourproject_2stim_asymm_v5,2020.2.10,MacIntel,60,61025ae37ef11b136ea224fe,,,,,,,,,182,58.0234375,-36.4140625,1,0,0,response3disk,,5,6.6328125,-5.234375,1,0,0,rectangle,6.6328125,-5.234375,1,0,0,6.6328125,-5.234375,1,0,0,0,106,106,91,1,,,,,,,,
,,,,,,,,,,,,,FF,,,,,,,,0.6538,,,,,,,,,,,,,,,,,,,,,,60fddd15f7f160155121ae9e,61036b3723a23dcf36216c90,2021-07-29_20h01.01.694,Simcolourproject_2stim_asymm_v5,2020.2.10,MacIntel,60,61025ae37ef11b136ea224fe,,,,,,,,,1840,64.6875,32.2734375,1,0,0,response1disk,,6,35.875,15.46875,1,0,0,rectangle,35.875,15.46875,1,0,0,35.875,15.46875,1,0,0,0,107,107,77,1,,,,,,,,
,,,,,,,,,,,,,FF,,,,,,,,0.584,,,,,,,,,,,,,,,,,,,,,,60fddd15f7f160155121ae9e,61036b3723a23dcf36216c90,2021-07-29_20h01.01.694,Simcolourproject_2stim_asymm_v5,2020.2.10,MacIntel,60,61025ae37ef11b136ea224fe,,,,,,,,,3412,57.8984375,-30.13671875,1,0,0,response3disk,,5,-1.34375,-11.5078125,1,0,0,rectangle,-1.34375,-11.5078125,1,0,0,-1.34375,-11.5078125,1,0,0,0,108,108,156,1,,,,,,,,
,,,,,,,,,,,,,FF,,,,,,,,0.5673,,,,,,,,,,,,,,,,,,,,,,60fddd15f7f160155121ae9e,61036b3723a23dcf36216c90,2021-07-29_20h01.01.694,Simcolourproject_2stim_asymm_v5,2020.2.10,MacIntel,60,61025ae37ef11b136ea224fe,,,,,,,,,1386,50.65625,25.60546875,1,0,0,response1disk,,6,29.8046875,10.3828125,1,0,0,rectangle,29.8046875,10.3828125,1,0,0,29.8046875,10.3828125,1,0,0,0,109,109,88,1,,,,,,,,
,,,,,,,,,,,,,FF,,,,,,,,0.6697,,,,,,,,,,,,,,,,,,,,,,60fddd15f7f160155121ae9e,61036b3723a23dcf36216c90,2021-07-29_20h01.01.694,Simcolourproject_2stim_asymm_v5,2020.2.10,MacIntel,60,61025ae37ef11b136ea224fe,,,,,,,,,1073,67.44140625,-28.16015625,1,0,0,response3disk,,5,5.96875,4.43359375,1,0,0,rectangle,5.96875,4.43359375,1,0,0,5.96875,4.43359375,1,0,0,0,110,110,84,1,,,,,,,,
,,,,,,,,,,,,,FF,,,,,,,,0.8194,,,,,,,,,,,,,,,,,,,,,,60fddd15f7f160155121ae9e,61036b3723a23dcf36216c90,2021-07-29_20h01.01.694,Simcolourproject_2stim_asymm_v5,2020.2.10,MacIntel,60,61025ae37ef11b136ea224fe,,,,,,,,,2281,50.45703125,25.34375,1,0,0,response1disk,,6,30.21875,-6.0234375,1,0,0,rectangle,30.21875,-6.0234375,1,0,0,30.21875,-6.0234375,1,0,0,0,111,111,114,1,,,,,,,,
,,,,,,,,,,,,,FF,,,,,,,,0.718400001,,,,,,,,,,,,,,,,,,,,,,60fddd15f7f160155121ae9e,61036b3723a23dcf36216c90,2021-07-29_20h01.01.694,Simcolourproject_2stim_asymm_v5,2020.2.10,MacIntel,60,61025ae37ef11b136ea224fe,,,,,,,,,925,56.1484375,38.86328125,1,0,0,response1disk,,6,15.53125,-5.36328125,1,0,0,rectangle,15.53125,-5.36328125,1,0,0,15.53125,-5.36328125,1,0,0,0,112,112,48,1,,,,,,,,
,,,,,,,,,,,,,FF,,,,,,,,0.7348,,,,,,,,,,,,,,,,,,,,,,60fddd15f7f160155121ae9e,61036b3723a23dcf36216c90,2021-07-29_20h01.01.694,Simcolourproject_2stim_asymm_v5,2020.2.10,MacIntel,60,61025ae37ef11b136ea224fe,,,,,,,,,4052,25.765625,-57.58203125,1,0,0,response3disk,,4,5.9296875,-1.22265625,1,0,0,rectangle,5.9296875,-1.22265625,1,0,0,5.9296875,-1.22265625,1,0,0,0,113,113,78,1,,,,,,,,
,,,,,,,,,,,,,FF,,,,,,,,0.518099999,,,,,,,,,,,,,,,,,,,,,,60fddd15f7f160155121ae9e,61036b3723a23dcf36216c90,2021-07-29_20h01.01.694,Simcolourproject_2stim_asymm_v5,2020.2.10,MacIntel,60,61025ae37ef11b136ea224fe,,,,,,,,,220,74.9765625,-31.5703125,1,0,0,response3disk,,5,16.140625,-2.7734375,1,0,0,rectangle,16.140625,-2.7734375,1,0,0,16.140625,-2.7734375,1,0,0,0,114,114,142,1,,,,,,,,
,,,,,,,,,,,,,FF,,,,,,,,1.0192,,,,,,,,,,,,,,,,,,,,,,60fddd15f7f160155121ae9e,61036b3723a23dcf36216c90,2021-07-29_20h01.01.694,Simcolourproject_2stim_asymm_v5,2020.2.10,MacIntel,60,61025ae37ef11b136ea224fe,,,,,,,,,3430,27.59765625,-52.39453125,1,0,0,response3disk,,4,21.84765625,13.9765625,1,0,0,rectangle,21.84765625,13.9765625,1,0,0,21.84765625,13.9765625,1,0,0,0,115,115,35,1,,,,,,,,
,,,,,,,,,,,,,FF,,,,,,,,0.6345,,,,,,,,,,,,,,,,,,,,,,60fddd15f7f160155121ae9e,61036b3723a23dcf36216c90,2021-07-29_20h01.01.694,Simcolourproject_2stim_asymm_v5,2020.2.10,MacIntel,60,61025ae37ef11b136ea224fe,,,,,,,,,1241,46.53515625,-26.9140625,1,0,0,response3disk,,5,10.46484375,-8.55078125,1,0,0,rectangle,10.46484375,-8.55078125,1,0,0,10.46484375,-8.55078125,1,0,0,0,116,116,155,1,,,,,,,,
,,,,,,,,,,,,,FF,,,,,,,,0.9197,,,,,,,,,,,,,,,,,,,,,,60fddd15f7f160155121ae9e,61036b3723a23dcf36216c90,2021-07-29_20h01.01.694,Simcolourproject_2stim_asymm_v5,2020.2.10,MacIntel,60,61025ae37ef11b136ea224fe,,,,,,,,,58,-26.5625,-67.26953125,1,0,0,response5disk,,3,-9.60546875,16.39453125,1,0,0,rectangle,-9.60546875,16.39453125,1,0,0,-9.60546875,16.39453125,1,0,0,0,117,117,79,1,,,,,,,,
,,,,,,,,,,,,,FF,,,,,,,,0.5505,,,,,,,,,,,,,,,,,,,,,,60fddd15f7f160155121ae9e,61036b3723a23dcf36216c90,2021-07-29_20h01.01.694,Simcolourproject_2stim_asymm_v5,2020.2.10,MacIntel,60,61025ae37ef11b136ea224fe,,,,,,,,,3461,26.80859375,-32.3515625,1,0,0,response3disk,,4,22.421875,-7.69140625,1,0,0,rectangle,22.421875,-7.69140625,1,0,0,22.421875,-7.69140625,1,0,0,0,118,118,113,1,,,,,,,,
,,,,,,,,,,,,,FF,,,,,,,,0.4852,,,,,,,,,,,,,,,,,,,,,,60fddd15f7f160155121ae9e,61036b3723a23dcf36216c90,2021-07-29_20h01.01.694,Simcolourproject_2stim_asymm_v5,2020.2.10,MacIntel,60,61025ae37ef11b136ea224fe,,,,,,,,,2932,63.99609375,-26.37109375,1,0,0,response3disk,,5,10.1015625,-4.16015625,1,0,0,rectangle,10.1015625,-4.16015625,1,0,0,10.1015625,-4.16015625,1,0,0,0,119,119,130,1,,,,,,,,
,,,,,,,,,,,,,FF,,,,,,,,0.5849,,,,,,,,,,,,,,,,,,,,,,60fddd15f7f160155121ae9e,61036b3723a23dcf36216c90,2021-07-29_20h01.01.694,Simcolourproject_2stim_asymm_v5,2020.2.10,MacIntel,60,61025ae37ef11b136ea224fe,,,,,,,,,2821,70.27734375,-38.94921875,1,0,0,response3disk,,5,14.765625,-9.421875,1,0,0,rectangle,14.765625,-9.421875,1,0,0,14.765625,-9.421875,1,0,0,0,120,120,146,1,,,,,,,,
,,,,,,,,,,,,,FF,,,,,,,,0.4529,,,,,,,,,,,,,,,,,,,,,,60fddd15f7f160155121ae9e,61036b3723a23dcf36216c90,2021-07-29_20h01.01.694,Simcolourproject_2stim_asymm_v5,2020.2.10,MacIntel,60,61025ae37ef11b136ea224fe,,,,,,,,,1009,48.1953125,-23.85546875,1,0,0,response3disk,,5,-3.015625,-1.91015625,1,0,0,rectangle,-3.015625,-1.91015625,1,0,0,-3.015625,-1.91015625,1,0,0,0,121,121,81,1,,,,,,,,
,,,,,,,,,,,,,FF,,,,,,,,0.399299999,,,,,,,,,,,,,,,,,,,,,,60fddd15f7f160155121ae9e,61036b3723a23dcf36216c90,2021-07-29_20h01.01.694,Simcolourproject_2stim_asymm_v5,2020.2.10,MacIntel,60,61025ae37ef11b136ea224fe,,,,,,,,,472,59.58984375,-36.81640625,1,0,0,response3disk,,5,15.71484375,-9.82421875,1,0,0,rectangle,15.71484375,-9.82421875,1,0,0,15.71484375,-9.82421875,1,0,0,0,122,122,1,1,,,,,,,,
,,,,,,,,,,,,,FF,,,,,,,,0.886099999,,,,,,,,,,,,,,,,,,,,,,60fddd15f7f160155121ae9e,61036b3723a23dcf36216c90,2021-07-29_20h01.01.694,Simcolourproject_2stim_asymm_v5,2020.2.10,MacIntel,60,61025ae37ef11b136ea224fe,,,,,,,,,1601,-42.37109375,-73.8359375,1,0,0,response5disk,,3,-5.73828125,-10.60546875,1,0,0,rectangle,-5.73828125,-10.60546875,1,0,0,-5.73828125,-10.60546875,1,0,0,0,123,123,151,1,,,,,,,,
,,,,,,,,,,,,,FF,,,,,,,,0.602400001,,,,,,,,,,,,,,,,,,,,,,60fddd15f7f160155121ae9e,61036b3723a23dcf36216c90,2021-07-29_20h01.01.694,Simcolourproject_2stim_asymm_v5,2020.2.10,MacIntel,60,61025ae37ef11b136ea224fe,,,,,,,,,3384,-29.25390625,-38.57421875,1,0,0,response5disk,,3,-23.45703125,-10.84765625,1,0,0,rectangle,-23.45703125,-10.84765625,1,0,0,-23.45703125,-10.84765625,1,0,0,0,124,124,53,1,,,,,,,,
,,,,,,,,,,,,,FF,,,,,,,,0.8537,,,,,,,,,,,,,,,,,,,,,,60fddd15f7f160155121ae9e,61036b3723a23dcf36216c90,2021-07-29_20h01.01.694,Simcolourproject_2stim_asymm_v5,2020.2.10,MacIntel,60,61025ae37ef11b136ea224fe,,,,,,,,,3775,75.2734375,37.09765625,1,0,0,response1disk,,6,27.33984375,3.09765625,1,0,0,rectangle,27.33984375,3.09765625,1,0,0,27.33984375,3.09765625,1,0,0,0,125,125,3,1,,,,,,,,
,,,,,,,,,,,,,FF,,,,,,,,0.6355,,,,,,,,,,,,,,,,,,,,,,60fddd15f7f160155121ae9e,61036b3723a23dcf36216c90,2021-07-29_20h01.01.694,Simcolourproject_2stim_asymm_v5,2020.2.10,MacIntel,60,61025ae37ef11b136ea224fe,,,,,,,,,2619,35.90234375,34.63671875,1,0,0,response1disk,,6,26.25390625,1.59375,1,0,0,rectangle,26.25390625,1.59375,1,0,0,26.25390625,1.59375,1,0,0,0,126,126,102,1,,,,,,,,
,,,,,,,,,,,,,FF,,,,,,,,0.667,,,,,,,,,,,,,,,,,,,,,,60fddd15f7f160155121ae9e,61036b3723a23dcf36216c90,2021-07-29_20h01.01.694,Simcolourproject_2stim_asymm_v5,2020.2.10,MacIntel,60,61025ae37ef11b136ea224fe,,,,,,,,,1258,68.1171875,-30.40234375,1,0,0,response3disk,,5,23.5390625,-3.42578125,1,0,0,rectangle,23.5390625,-3.42578125,1,0,0,23.5390625,-3.42578125,1,0,0,0,127,127,67,1,,,,,,,,
,,,,,,,,,,,,,FF,,,,,,,,0.668900001,,,,,,,,,,,,,,,,,,,,,,60fddd15f7f160155121ae9e,61036b3723a23dcf36216c90,2021-07-29_20h01.01.694,Simcolourproject_2stim_asymm_v5,2020.2.10,MacIntel,60,61025ae37ef11b136ea224fe,,,,,,,,,3,21.91796875,-46.015625,1,0,0,response3disk,,4,19.70703125,5.8671875,1,0,0,rectangle,19.70703125,5.8671875,1,0,0,19.70703125,5.8671875,1,0,0,0,128,128,23,1,,,,,,,,
,,,,,,,,,,,,,FF,,,,,,,,0.8178,,,,,,,,,,,,,,,,,,,,,,60fddd15f7f160155121ae9e,61036b3723a23dcf36216c90,2021-07-29_20h01.01.694,Simcolourproject_2stim_asymm_v5,2020.2.10,MacIntel,60,61025ae37ef11b136ea224fe,,,,,,,,,3437,71.98046875,-39.0546875,1,0,0,response3disk,,5,15.68359375,-2.0859375,1,0,0,rectangle,15.68359375,-2.0859375,1,0,0,15.68359375,-2.0859375,1,0,0,0,129,129,87,1,,,,,,,,
,,,,,,,,,,,,,FF,,,,,,,,1.988900001,,,,,,,,,,,,,,,,,,,,,,60fddd15f7f160155121ae9e,61036b3723a23dcf36216c90,2021-07-29_20h01.01.694,Simcolourproject_2stim_asymm_v5,2020.2.10,MacIntel,60,61025ae37ef11b136ea224fe,,,,,,,,,1430,67.92578125,-27.67578125,1,0,0,response3disk,,5,7.2421875,-1.90234375,1,0,0,rectangle,24.98828125,-73.79296875,1,0,0,11.1171875,-7.3203125,1,0,0,0,130,130,34,1,,response3disk_3,TRUE,4,4,"[83,84,279,75,149,290,69,28,88,196,24,60,225,197,139,31,0,197,41,131]",1.8723,rectangle
,,,,,,,,,,,,,FF,,,,,,,,0.619,,,,,,,,,,,,,,,,,,,,,,60fddd15f7f160155121ae9e,61036b3723a23dcf36216c90,2021-07-29_20h01.01.694,Simcolourproject_2stim_asymm_v5,2020.2.10,MacIntel,60,61025ae37ef11b136ea224fe,,,,,,,,,941,52.12109375,-35.51953125,1,0,0,response3disk,,5,-5.18359375,-17.3359375,1,0,0,rectangle,-5.18359375,-17.3359375,1,0,0,-5.18359375,-17.3359375,1,0,0,0,131,131,63,1,,,,,,,,
,,,,,,,,,,,,,FF,,,,,,,,0.8358,,,,,,,,,,,,,,,,,,,,,,60fddd15f7f160155121ae9e,61036b3723a23dcf36216c90,2021-07-29_20h01.01.694,Simcolourproject_2stim_asymm_v5,2020.2.10,MacIntel,60,61025ae37ef11b136ea224fe,,,,,,,,,633,37.5703125,-37.11328125,1,0,0,response3disk,,5,10.06640625,11.46875,1,0,0,rectangle,10.06640625,11.46875,1,0,0,10.06640625,11.46875,1,0,0,0,132,132,107,1,,,,,,,,
,,,,,,,,,,,,,FF,,,,,,,,0.5527,,,,,,,,,,,,,,,,,,,,,,60fddd15f7f160155121ae9e,61036b3723a23dcf36216c90,2021-07-29_20h01.01.694,Simcolourproject_2stim_asymm_v5,2020.2.10,MacIntel,60,61025ae37ef11b136ea224fe,,,,,,,,,112,30.79296875,-49.23828125,1,0,0,response3disk,,4,7.66015625,4.62109375,1,0,0,rectangle,7.66015625,4.62109375,1,0,0,7.66015625,4.62109375,1,0,0,0,133,133,31,1,,,,,,,,
,,,,,,,,,,,,,FF,,,,,,,,0.518,,,,,,,,,,,,,,,,,,,,,,60fddd15f7f160155121ae9e,61036b3723a23dcf36216c90,2021-07-29_20h01.01.694,Simcolourproject_2stim_asymm_v5,2020.2.10,MacIntel,60,61025ae37ef11b136ea224fe,,,,,,,,,2650,48.09765625,-28.20703125,1,0,0,response3disk,,5,-13.78125,10.30859375,1,0,0,rectangle,-13.78125,10.30859375,1,0,0,-13.78125,10.30859375,1,0,0,0,134,134,135,1,,,,,,,,
,,,,,,,,,,,,,FF,,,,,,,,0.6352,,,,,,,,,,,,,,,,,,,,,,60fddd15f7f160155121ae9e,61036b3723a23dcf36216c90,2021-07-29_20h01.01.694,Simcolourproject_2stim_asymm_v5,2020.2.10,MacIntel,60,61025ae37ef11b136ea224fe,,,,,,,,,3866,47.33203125,32.25390625,1,0,0,response1disk,,6,-0.87890625,0.4765625,1,0,0,rectangle,-0.87890625,0.4765625,1,0,0,-0.87890625,0.4765625,1,0,0,0,135,135,154,1,,,,,,,,
,,,,,,,,,,,,,FF,,,,,,,,0.7358,,,,,,,,,,,,,,,,,,,,,,60fddd15f7f160155121ae9e,61036b3723a23dcf36216c90,2021-07-29_20h01.01.694,Simcolourproject_2stim_asymm_v5,2020.2.10,MacIntel,60,61025ae37ef11b136ea224fe,,,,,,,,,2601,-49.93359375,33.375,1,0,0,response7disk,,1,5.69140625,-6.51171875,1,0,0,rectangle,5.69140625,-6.51171875,1,0,0,5.69140625,-6.51171875,1,0,0,0,136,136,32,1,,,,,,,,
,,,,,,,,,,,,,FF,,,,,,,,0.5866,,,,,,,,,,,,,,,,,,,,,,60fddd15f7f160155121ae9e,61036b3723a23dcf36216c90,2021-07-29_20h01.01.694,Simcolourproject_2stim_asymm_v5,2020.2.10,MacIntel,60,61025ae37ef11b136ea224fe,,,,,,,,,387,65.99609375,40.37109375,1,0,0,response1disk,,6,5.09375,-0.77734375,1,0,0,rectangle,5.09375,-0.77734375,1,0,0,5.09375,-0.77734375,1,0,0,0,137,137,134,1,,,,,,,,
,,,,,,,,,,,,,FF,,,,,,,,0.7177,,,,,,,,,,,,,,,,,,,,,,60fddd15f7f160155121ae9e,61036b3723a23dcf36216c90,2021-07-29_20h01.01.694,Simcolourproject_2stim_asymm_v5,2020.2.10,MacIntel,60,61025ae37ef11b136ea224fe,,,,,,,,,3326,56.296875,21.25390625,1,0,0,response1disk,,6,9.06640625,5.8046875,1,0,0,rectangle,71.421875,30.70703125,1,0,0,21.29296875,10.30859375,1,0,0,0,138,138,21,1,,response1disk_3,TRUE,6,6,"[83,84,279,75,149,290,69,28,88,196,24,60,225,197,139,31,0,197,41,131]",1.2702,rectangle
,,,,,,,,,,,,,FF,,,,,,,,0.9356,,,,,,,,,,,,,,,,,,,,,,60fddd15f7f160155121ae9e,61036b3723a23dcf36216c90,2021-07-29_20h01.01.694,Simcolourproject_2stim_asymm_v5,2020.2.10,MacIntel,60,61025ae37ef11b136ea224fe,,,,,,,,,1953,36.83984375,-33.75,1,0,0,response3disk,,5,14.37109375,-8.4765625,1,0,0,rectangle,14.37109375,-8.4765625,1,0,0,14.37109375,-8.4765625,1,0,0,0,139,139,94,1,,,,,,,,
,,,,,,,,,,,,,FF,,,,,,,,1.3189,,,,,,,,,,,,,,,,,,,,,,60fddd15f7f160155121ae9e,61036b3723a23dcf36216c90,2021-07-29_20h01.01.694,Simcolourproject_2stim_asymm_v5,2020.2.10,MacIntel,60,61025ae37ef11b136ea224fe,,,,,,,,,652,42.55078125,-18.2109375,1,0,0,response3disk,,5,32.375,-5.890625,1,0,0,rectangle,32.375,-5.890625,1,0,0,32.375,-5.890625,1,0,0,0,140,140,36,1,,,,,,,,
,,,,,,,,,,,,,FF,,,,,,,,0.518400001,,,,,,,,,,,,,,,,,,,,,,60fddd15f7f160155121ae9e,61036b3723a23dcf36216c90,2021-07-29_20h01.01.694,Simcolourproject_2stim_asymm_v5,2020.2.10,MacIntel,60,61025ae37ef11b136ea224fe,,,,,,,,,563,64.01171875,-29.765625,1,0,0,response3disk,,5,11.67578125,3.375,1,0,0,rectangle,11.67578125,3.375,1,0,0,11.67578125,3.375,1,0,0,0,141,141,15,1,,,,,,,,
,,,,,,,,,,,,,FF,,,,,,,,0.5187,,,,,,,,,,,,,,,,,,,,,,60fddd15f7f160155121ae9e,61036b3723a23dcf36216c90,2021-07-29_20h01.01.694,Simcolourproject_2stim_asymm_v5,2020.2.10,MacIntel,60,61025ae37ef11b136ea224fe,,,,,,,,,1621,42.6953125,-21.6328125,1,0,0,response3disk,,5,17.96875,-14.71484375,1,0,0,rectangle,17.96875,-14.71484375,1,0,0,17.96875,-14.71484375,1,0,0,0,142,142,82,1,,,,,,,,
,,,,,,,,,,,,,FF,,,,,,,,0.885900001,,,,,,,,,,,,,,,,,,,,,,60fddd15f7f160155121ae9e,61036b3723a23dcf36216c90,2021-07-29_20h01.01.694,Simcolourproject_2stim_asymm_v5,2020.2.10,MacIntel,60,61025ae37ef11b136ea224fe,,,,,,,,,0,-44.55859375,34.7265625,1,0,0,response7disk,,1,10.1640625,-2.1171875,1,0,0,rectangle,10.1640625,-2.1171875,1,0,0,10.1640625,-2.1171875,1,0,0,0,143,143,61,1,,,,,,,,
,,,,,,,,,,,,,FF,,,,,,,,0.7922,,,,,,,,,,,,,,,,,,,,,,60fddd15f7f160155121ae9e,61036b3723a23dcf36216c90,2021-07-29_20h01.01.694,Simcolourproject_2stim_asymm_v5,2020.2.10,MacIntel,60,61025ae37ef11b136ea224fe,,,,,,,,,3495,69.30859375,27.78515625,1,0,0,response1disk,,6,20.20703125,12.78125,1,0,0,rectangle,20.20703125,12.78125,1,0,0,20.20703125,12.78125,1,0,0,0,144,144,37,1,,,,,,,,
,,,,,,,,,,,,,FF,,,,,,,,0.6532,,,,,,,,,,,,,,,,,,,,,,60fddd15f7f160155121ae9e,61036b3723a23dcf36216c90,2021-07-29_20h01.01.694,Simcolourproject_2stim_asymm_v5,2020.2.10,MacIntel,60,61025ae37ef11b136ea224fe,,,,,,,,,856,54.61328125,-29.1640625,1,0,0,response3disk,,5,26.625,-10.484375,1,0,0,rectangle,26.625,-10.484375,1,0,0,26.625,-10.484375,1,0,0,0,145,145,80,1,,,,,,,,
,,,,,,,,,,,,,FF,,,,,,,,0.533900001,,,,,,,,,,,,,,,,,,,,,,60fddd15f7f160155121ae9e,61036b3723a23dcf36216c90,2021-07-29_20h01.01.694,Simcolourproject_2stim_asymm_v5,2020.2.10,MacIntel,60,61025ae37ef11b136ea224fe,,,,,,,,,590,40.53515625,-28.02734375,1,0,0,response3disk,,5,7.78125,-14.19140625,1,0,0,rectangle,7.78125,-14.19140625,1,0,0,7.78125,-14.19140625,1,0,0,0,146,146,117,1,,,,,,,,
,,,,,,,,,,,,,FF,,,,,,,,0.5508,,,,,,,,,,,,,,,,,,,,,,60fddd15f7f160155121ae9e,61036b3723a23dcf36216c90,2021-07-29_20h01.01.694,Simcolourproject_2stim_asymm_v5,2020.2.10,MacIntel,60,61025ae37ef11b136ea224fe,,,,,,,,,1490,40.93359375,-29.6953125,1,0,0,response3disk,,5,-12.80078125,4.74609375,1,0,0,rectangle,-12.80078125,4.74609375,1,0,0,-12.80078125,4.74609375,1,0,0,0,147,147,143,1,,,,,,,,
,,,,,,,,,,,,,FF,,,,,,,,1.235,,,,,,,,,,,,,,,,,,,,,,60fddd15f7f160155121ae9e,61036b3723a23dcf36216c90,2021-07-29_20h01.01.694,Simcolourproject_2stim_asymm_v5,2020.2.10,MacIntel,60,61025ae37ef11b136ea224fe,,,,,,,,,724,41.38671875,-35.11328125,1,0,0,response3disk,,5,7.42578125,-3.51953125,1,0,0,rectangle,-41,98.65234375,1,0,0,-4.41015625,0.1796875,1,0,0,0,148,148,12,1,,response7disk_3,TRUE,0,0,"[83,84,279,75,149,290,69,28,88,196,24,60,225,197,139,31,0,197,41,131]",1.8046,rectangle
,,,,,,,,,,,,,FF,,,,,,,,0.718099999,,,,,,,,,,,,,,,,,,,,,,60fddd15f7f160155121ae9e,61036b3723a23dcf36216c90,2021-07-29_20h01.01.694,Simcolourproject_2stim_asymm_v5,2020.2.10,MacIntel,60,61025ae37ef11b136ea224fe,,,,,,,,,3877,46.0546875,-33.015625,1,0,0,response3disk,,5,-17.9375,3.97265625,1,0,0,rectangle,-17.9375,3.97265625,1,0,0,-17.9375,3.97265625,1,0,0,0,149,149,70,1,,,,,,,,
,,,,,,,,,,,,,FF,,,,,,,,0.7179,,,,,,,,,,,,,,,,,,,,,,60fddd15f7f160155121ae9e,61036b3723a23dcf36216c90,2021-07-29_20h01.01.694,Simcolourproject_2stim_asymm_v5,2020.2.10,MacIntel,60,61025ae37ef11b136ea224fe,,,,,,,,,1909,30.09765625,-48.4296875,1,0,0,response3disk,,4,-1.3828125,-1.5,1,0,0,rectangle,-1.3828125,-1.5,1,0,0,-1.3828125,-1.5,1,0,0,0,150,150,74,1,,,,,,,,
,,,,,,,,,,,,,FF,,,,,,,,0.6356,,,,,,,,,,,,,,,,,,,,,,60fddd15f7f160155121ae9e,61036b3723a23dcf36216c90,2021-07-29_20h01.01.694,Simcolourproject_2stim_asymm_v5,2020.2.10,MacIntel,60,61025ae37ef11b136ea224fe,,,,,,,,,1311,39.2890625,-28.77734375,1,0,0,response3disk,,5,-16.37109375,1.57421875,1,0,0,rectangle,-16.37109375,1.57421875,1,0,0,-16.37109375,1.57421875,1,0,0,0,151,151,54,1,,,,,,,,
,,,,,,,,,,,,,FF,,,,,,,,0.6029,,,,,,,,,,,,,,,,,,,,,,60fddd15f7f160155121ae9e,61036b3723a23dcf36216c90,2021-07-29_20h01.01.694,Simcolourproject_2stim_asymm_v5,2020.2.10,MacIntel,60,61025ae37ef11b136ea224fe,,,,,,,,,1331,65.9609375,-25.9296875,1,0,0,response3disk,,5,-0.328125,4.828125,1,0,0,rectangle,-0.328125,4.828125,1,0,0,-0.328125,4.828125,1,0,0,0,152,152,129,1,,,,,,,,
,,,,,,,,,,,,,FF,,,,,,,,0.418,,,,,,,,,,,,,,,,,,,,,,60fddd15f7f160155121ae9e,61036b3723a23dcf36216c90,2021-07-29_20h01.01.694,Simcolourproject_2stim_asymm_v5,2020.2.10,MacIntel,60,61025ae37ef11b136ea224fe,,,,,,,,,770,33.8671875,-44.4453125,1,0,0,response3disk,,4,12.8203125,14.34765625,1,0,0,rectangle,12.8203125,14.34765625,1,0,0,12.8203125,14.34765625,1,0,0,0,153,153,158,1,,,,,,,,
,,,,,,,,,,,,,FF,,,,,,,,0.600599999,,,,,,,,,,,,,,,,,,,,,,60fddd15f7f160155121ae9e,61036b3723a23dcf36216c90,2021-07-29_20h01.01.694,Simcolourproject_2stim_asymm_v5,2020.2.10,MacIntel,60,61025ae37ef11b136ea224fe,,,,,,,,,2368,-36.9296875,-45.8671875,1,0,0,response5disk,,3,-0.87890625,5.68359375,1,0,0,rectangle,-0.87890625,5.68359375,1,0,0,-0.87890625,5.68359375,1,0,0,0,154,154,76,1,,,,,,,,
,,,,,,,,,,,,,FF,,,,,,,,0.5337,,,,,,,,,,,,,,,,,,,,,,60fddd15f7f160155121ae9e,61036b3723a23dcf36216c90,2021-07-29_20h01.01.694,Simcolourproject_2stim_asymm_v5,2020.2.10,MacIntel,60,61025ae37ef11b136ea224fe,,,,,,,,,1321,50.53125,-21.9140625,1,0,0,response3disk,,5,7.76953125,4.0234375,1,0,0,rectangle,7.76953125,4.0234375,1,0,0,7.76953125,4.0234375,1,0,0,0,155,155,138,1,,,,,,,,
,,,,,,,,,,,,,FF,,,,,,,,0.518099999,,,,,,,,,,,,,,,,,,,,,,60fddd15f7f160155121ae9e,61036b3723a23dcf36216c90,2021-07-29_20h01.01.694,Simcolourproject_2stim_asymm_v5,2020.2.10,MacIntel,60,61025ae37ef11b136ea224fe,,,,,,,,,772,49.90625,-29.23046875,1,0,0,response3disk,,5,10.34375,-0.01953125,1,0,0,rectangle,10.34375,-0.01953125,1,0,0,10.34375,-0.01953125,1,0,0,0,156,156,10,1,,,,,,,,
,,,,,,,,,,,,,FF,,,,,,,,0.7872,,,,,,,,,,,,,,,,,,,,,,60fddd15f7f160155121ae9e,61036b3723a23dcf36216c90,2021-07-29_20h01.01.694,Simcolourproject_2stim_asymm_v5,2020.2.10,MacIntel,60,61025ae37ef11b136ea224fe,,,,,,,,,2481,-19.51953125,-44.26953125,1,0,0,response5disk,,3,1.45703125,0.44140625,1,0,0,rectangle,1.45703125,0.44140625,1,0,0,1.45703125,0.44140625,1,0,0,0,157,157,62,1,,,,,,,,
,,,,,,,,,,,,,FF,,,,,,,,0.8853,,,,,,,,,,,,,,,,,,,,,,60fddd15f7f160155121ae9e,61036b3723a23dcf36216c90,2021-07-29_20h01.01.694,Simcolourproject_2stim_asymm_v5,2020.2.10,MacIntel,60,61025ae37ef11b136ea224fe,,,,,,,,,3988,78.40234375,21.5,1,0,0,response1disk,,6,14.9609375,0.71875,1,0,0,rectangle,14.9609375,0.71875,1,0,0,14.9609375,0.71875,1,0,0,0,158,158,122,1,,,,,,,,
,,,,,,,,,,,,,FF,,,,,,,,0.7674,,,,,,,,,,,,,,,,,,,,,,60fddd15f7f160155121ae9e,61036b3723a23dcf36216c90,2021-07-29_20h01.01.694,Simcolourproject_2stim_asymm_v5,2020.2.10,MacIntel,60,61025ae37ef11b136ea224fe,,,,,,,,,3372,66.62109375,29.8203125,1,0,0,response1disk,,6,-4.37890625,-13.859375,1,0,0,rectangle,-4.37890625,-13.859375,1,0,0,-4.37890625,-13.859375,1,0,0,0,159,159,69,1,,,,,,,,
,,,,,,,,,,,,,FF,,,,,,,,0.6687,,,,,,,,,,,,,,,,,,,,,,60fddd15f7f160155121ae9e,61036b3723a23dcf36216c90,2021-07-29_20h01.01.694,Simcolourproject_2stim_asymm_v5,2020.2.10,MacIntel,60,61025ae37ef11b136ea224fe,,,,,,,,,3105,36.78125,-25.29296875,1,0,0,response3disk,,5,-16.08984375,-7.18359375,1,0,0,rectangle,-16.08984375,-7.18359375,1,0,0,-16.08984375,-7.18359375,1,0,0,1,0,160,80,1,,,,,,,,
,,,,,,,,,,,,,FF,,,,,,,,0.5336,,,,,,,,,,,,,,,,,,,,,,60fddd15f7f160155121ae9e,61036b3723a23dcf36216c90,2021-07-29_20h01.01.694,Simcolourproject_2stim_asymm_v5,2020.2.10,MacIntel,60,61025ae37ef11b136ea224fe,,,,,,,,,4054,-20.24609375,-33.86328125,1,0,0,response5disk,,3,7.26171875,4.74609375,1,0,0,rectangle,7.26171875,4.74609375,1,0,0,7.26171875,4.74609375,1,0,0,1,1,161,146,1,,,,,,,,
,,,,,,,,,,,,,FF,,,,,,,,0.6861,,,,,,,,,,,,,,,,,,,,,,60fddd15f7f160155121ae9e,61036b3723a23dcf36216c90,2021-07-29_20h01.01.694,Simcolourproject_2stim_asymm_v5,2020.2.10,MacIntel,60,61025ae37ef11b136ea224fe,,,,,,,,,3951,54.0703125,-30.265625,1,0,0,response3disk,,5,-0.83984375,-0.96484375,1,0,0,rectangle,-0.83984375,-0.96484375,1,0,0,-0.83984375,-0.96484375,1,0,0,1,2,162,19,1,,,,,,,,
,,,,,,,,,,,,,FF,,,,,,,,0.6029,,,,,,,,,,,,,,,,,,,,,,60fddd15f7f160155121ae9e,61036b3723a23dcf36216c90,2021-07-29_20h01.01.694,Simcolourproject_2stim_asymm_v5,2020.2.10,MacIntel,60,61025ae37ef11b136ea224fe,,,,,,,,,3698,63.390625,29.80078125,1,0,0,response1disk,,6,10.43359375,-6.46484375,1,0,0,rectangle,10.43359375,-6.46484375,1,0,0,10.43359375,-6.46484375,1,0,0,1,3,163,73,1,,,,,,,,
,,,,,,,,,,,,,FF,,,,,,,,0.585299999,,,,,,,,,,,,,,,,,,,,,,60fddd15f7f160155121ae9e,61036b3723a23dcf36216c90,2021-07-29_20h01.01.694,Simcolourproject_2stim_asymm_v5,2020.2.10,MacIntel,60,61025ae37ef11b136ea224fe,,,,,,,,,1651,55.1015625,19.87109375,1,0,0,response1disk,,6,1.62890625,-6.44921875,1,0,0,rectangle,1.62890625,-6.44921875,1,0,0,1.62890625,-6.44921875,1,0,0,1,4,164,90,1,,,,,,,,
,,,,,,,,,,,,,FF,,,,,,,,0.6005,,,,,,,,,,,,,,,,,,,,,,60fddd15f7f160155121ae9e,61036b3723a23dcf36216c90,2021-07-29_20h01.01.694,Simcolourproject_2stim_asymm_v5,2020.2.10,MacIntel,60,61025ae37ef11b136ea224fe,,,,,,,,,3868,66.84375,24.04296875,1,0,0,response1disk,,6,5.79296875,-9.7578125,1,0,0,rectangle,5.79296875,-9.7578125,1,0,0,5.79296875,-9.7578125,1,0,0,1,5,165,144,1,,,,,,,,
,,,,,,,,,,,,,FF,,,,,,,,0.5179,,,,,,,,,,,,,,,,,,,,,,60fddd15f7f160155121ae9e,61036b3723a23dcf36216c90,2021-07-29_20h01.01.694,Simcolourproject_2stim_asymm_v5,2020.2.10,MacIntel,60,61025ae37ef11b136ea224fe,,,,,,,,,2510,64.33203125,33.00390625,1,0,0,response1disk,,6,6.734375,-3.0703125,1,0,0,rectangle,6.734375,-3.0703125,1,0,0,6.734375,-3.0703125,1,0,0,1,6,166,114,1,,,,,,,,
,,,,,,,,,,,,,FF,,,,,,,,0.5681,,,,,,,,,,,,,,,,,,,,,,60fddd15f7f160155121ae9e,61036b3723a23dcf36216c90,2021-07-29_20h01.01.694,Simcolourproject_2stim_asymm_v5,2020.2.10,MacIntel,60,61025ae37ef11b136ea224fe,,,,,,,,,942,71.40625,30.9296875,1,0,0,response1disk,,6,4.27734375,-9.45703125,1,0,0,rectangle,4.27734375,-9.45703125,1,0,0,4.27734375,-9.45703125,1,0,0,1,7,167,127,1,,,,,,,,
,,,,,,,,,,,,,FF,,,,,,,,0.8533,,,,,,,,,,,,,,,,,,,,,,60fddd15f7f160155121ae9e,61036b3723a23dcf36216c90,2021-07-29_20h01.01.694,Simcolourproject_2stim_asymm_v5,2020.2.10,MacIntel,60,61025ae37ef11b136ea224fe,,,,,,,,,1448,-24.87890625,-37.125,1,0,0,response5disk,,3,-13.75,15.1953125,1,0,0,rectangle,-13.75,15.1953125,1,0,0,-13.75,15.1953125,1,0,0,1,8,168,37,1,,,,,,,,
,,,,,,,,,,,,,FF,,,,,,,,0.485200001,,,,,,,,,,,,,,,,,,,,,,60fddd15f7f160155121ae9e,61036b3723a23dcf36216c90,2021-07-29_20h01.01.694,Simcolourproject_2stim_asymm_v5,2020.2.10,MacIntel,60,61025ae37ef11b136ea224fe,,,,,,,,,3750,64.6015625,19.07421875,1,0,0,response1disk,,6,4.57421875,-0.45703125,1,0,0,rectangle,4.57421875,-0.45703125,1,0,0,4.57421875,-0.45703125,1,0,0,1,9,169,147,1,,,,,,,,
,,,,,,,,,,,,,FF,,,,,,,,0.7358,,,,,,,,,,,,,,,,,,,,,,60fddd15f7f160155121ae9e,61036b3723a23dcf36216c90,2021-07-29_20h01.01.694,Simcolourproject_2stim_asymm_v5,2020.2.10,MacIntel,60,61025ae37ef11b136ea224fe,,,,,,,,,3402,58.79296875,-27.28515625,1,0,0,response3disk,,5,1.3671875,-0.78515625,1,0,0,rectangle,1.3671875,-0.78515625,1,0,0,1.3671875,-0.78515625,1,0,0,1,10,170,87,1,,,,,,,,
,,,,,,,,,,,,,FF,,,,,,,,0.7522,,,,,,,,,,,,,,,,,,,,,,60fddd15f7f160155121ae9e,61036b3723a23dcf36216c90,2021-07-29_20h01.01.694,Simcolourproject_2stim_asymm_v5,2020.2.10,MacIntel,60,61025ae37ef11b136ea224fe,,,,,,,,,541,48.6640625,24.97265625,1,0,0,response1disk,,6,0.24609375,-9.46484375,1,0,0,rectangle,0.24609375,-9.46484375,1,0,0,0.24609375,-9.46484375,1,0,0,1,11,171,153,1,,,,,,,,
,,,,,,,,,,,,,FF,,,,,,,,1.6377,,,,,,,,,,,,,,,,,,,,,,60fddd15f7f160155121ae9e,61036b3723a23dcf36216c90,2021-07-29_20h01.01.694,Simcolourproject_2stim_asymm_v5,2020.2.10,MacIntel,60,61025ae37ef11b136ea224fe,,,,,,,,,1267,62.66015625,23.91796875,1,0,0,response1disk,,6,11.41796875,-10.234375,1,0,0,rectangle,11.41796875,-10.234375,1,0,0,11.41796875,-10.234375,1,0,0,1,12,172,120,1,,,,,,,,
,,,,,,,,,,,,,FF,,,,,,,,0.8861,,,,,,,,,,,,,,,,,,,,,,60fddd15f7f160155121ae9e,61036b3723a23dcf36216c90,2021-07-29_20h01.01.694,Simcolourproject_2stim_asymm_v5,2020.2.10,MacIntel,60,61025ae37ef11b136ea224fe,,,,,,,,,2826,58.74609375,22.7265625,1,0,0,response1disk,,6,13.609375,-3.96484375,1,0,0,rectangle,13.609375,-3.96484375,1,0,0,13.609375,-3.96484375,1,0,0,1,13,173,63,1,,,,,,,,
,,,,,,,,,,,,,FF,,,,,,,,1.3874,,,,,,,,,,,,,,,,,,,,,,60fddd15f7f160155121ae9e,61036b3723a23dcf36216c90,2021-07-29_20h01.01.694,Simcolourproject_2stim_asymm_v5,2020.2.10,MacIntel,60,61025ae37ef11b136ea224fe,,,,,,,,,36,63.62890625,31.4140625,1,0,0,response1disk,,6,18.87109375,4.60546875,1,0,0,rectangle,18.87109375,4.60546875,1,0,0,18.87109375,4.60546875,1,0,0,1,14,174,68,1,,,,,,,,
,,,,,,,,,,,,,FF,,,,,,,,0.7021,,,,,,,,,,,,,,,,,,,,,,60fddd15f7f160155121ae9e,61036b3723a23dcf36216c90,2021-07-29_20h01.01.694,Simcolourproject_2stim_asymm_v5,2020.2.10,MacIntel,60,61025ae37ef11b136ea224fe,,,,,,,,,3432,-18.37109375,-31.578125,1,0,0,response5disk,,3,-1.46484375,2.91015625,1,0,0,rectangle,-1.46484375,2.91015625,1,0,0,-1.46484375,2.91015625,1,0,0,1,15,175,123,1,,,,,,,,
,,,,,,,,,,,,,FF,,,,,,,,0.818900001,,,,,,,,,,,,,,,,,,,,,,60fddd15f7f160155121ae9e,61036b3723a23dcf36216c90,2021-07-29_20h01.01.694,Simcolourproject_2stim_asymm_v5,2020.2.10,MacIntel,60,61025ae37ef11b136ea224fe,,,,,,,,,4076,-20.73828125,-32.12109375,1,0,0,response5disk,,3,-8.51953125,-5.1796875,1,0,0,rectangle,-8.51953125,-5.1796875,1,0,0,-8.51953125,-5.1796875,1,0,0,1,16,176,86,1,,,,,,,,
,,,,,,,,,,,,,FF,,,,,,,,0.7505,,,,,,,,,,,,,,,,,,,,,,60fddd15f7f160155121ae9e,61036b3723a23dcf36216c90,2021-07-29_20h01.01.694,Simcolourproject_2stim_asymm_v5,2020.2.10,MacIntel,60,61025ae37ef11b136ea224fe,,,,,,,,,1659,80.125,26.63671875,1,0,0,response1disk,,6,-0.3984375,-12.390625,1,0,0,rectangle,-0.3984375,-12.390625,1,0,0,-0.3984375,-12.390625,1,0,0,1,17,177,97,1,,,,,,,,
,,,,,,,,,,,,,FF,,,,,,,,0.67,,,,,,,,,,,,,,,,,,,,,,60fddd15f7f160155121ae9e,61036b3723a23dcf36216c90,2021-07-29_20h01.01.694,Simcolourproject_2stim_asymm_v5,2020.2.10,MacIntel,60,61025ae37ef11b136ea224fe,,,,,,,,,3056,-19.453125,-35.6328125,1,0,0,response5disk,,3,-12.52734375,-1.60546875,1,0,0,rectangle,-12.52734375,-1.60546875,1,0,0,-12.52734375,-1.60546875,1,0,0,1,18,178,104,1,,,,,,,,
,,,,,,,,,,,,,FF,,,,,,,,0.4845,,,,,,,,,,,,,,,,,,,,,,60fddd15f7f160155121ae9e,61036b3723a23dcf36216c90,2021-07-29_20h01.01.694,Simcolourproject_2stim_asymm_v5,2020.2.10,MacIntel,60,61025ae37ef11b136ea224fe,,,,,,,,,4276,48.36328125,-29.69140625,1,0,0,response3disk,,5,-4.65625,5.59765625,1,0,0,rectangle,-4.65625,5.59765625,1,0,0,-4.65625,5.59765625,1,0,0,1,19,179,22,1,,,,,,,,
,,,,,,,,,,,,,FF,,,,,,,,0.736599999,,,,,,,,,,,,,,,,,,,,,,60fddd15f7f160155121ae9e,61036b3723a23dcf36216c90,2021-07-29_20h01.01.694,Simcolourproject_2stim_asymm_v5,2020.2.10,MacIntel,60,61025ae37ef11b136ea224fe,,,,,,,,,2920,51.86328125,31.58984375,1,0,0,response1disk,,6,6.02734375,2.98046875,1,0,0,rectangle,6.02734375,2.98046875,1,0,0,6.02734375,2.98046875,1,0,0,1,20,180,67,1,,,,,,,,
,,,,,,,,,,,,,FF,,,,,,,,0.6352,,,,,,,,,,,,,,,,,,,,,,60fddd15f7f160155121ae9e,61036b3723a23dcf36216c90,2021-07-29_20h01.01.694,Simcolourproject_2stim_asymm_v5,2020.2.10,MacIntel,60,61025ae37ef11b136ea224fe,,,,,,,,,1170,54.08984375,-33.58203125,1,0,0,response3disk,,5,8.546875,-0.53515625,1,0,0,rectangle,8.546875,-0.53515625,1,0,0,8.546875,-0.53515625,1,0,0,1,21,181,8,1,,,,,,,,
,,,,,,,,,,,,,FF,,,,,,,,0.603599999,,,,,,,,,,,,,,,,,,,,,,60fddd15f7f160155121ae9e,61036b3723a23dcf36216c90,2021-07-29_20h01.01.694,Simcolourproject_2stim_asymm_v5,2020.2.10,MacIntel,60,61025ae37ef11b136ea224fe,,,,,,,,,2730,57.03515625,27.3046875,1,0,0,response1disk,,6,12.54296875,-5.78125,1,0,0,rectangle,12.54296875,-5.78125,1,0,0,12.54296875,-5.78125,1,0,0,1,22,182,77,1,,,,,,,,
,,,,,,,,,,,,,FF,,,,,,,,0.702599999,,,,,,,,,,,,,,,,,,,,,,60fddd15f7f160155121ae9e,61036b3723a23dcf36216c90,2021-07-29_20h01.01.694,Simcolourproject_2stim_asymm_v5,2020.2.10,MacIntel,60,61025ae37ef11b136ea224fe,,,,,,,,,2781,-25.00390625,-38.32421875,1,0,0,response5disk,,3,17.859375,7.8359375,1,0,0,rectangle,17.859375,7.8359375,1,0,0,17.859375,7.8359375,1,0,0,1,23,183,103,1,,,,,,,,
,,,,,,,,,,,,,FF,,,,,,,,0.502200001,,,,,,,,,,,,,,,,,,,,,,60fddd15f7f160155121ae9e,61036b3723a23dcf36216c90,2021-07-29_20h01.01.694,Simcolourproject_2stim_asymm_v5,2020.2.10,MacIntel,60,61025ae37ef11b136ea224fe,,,,,,,,,1192,61.80859375,27.6640625,1,0,0,response1disk,,6,-9.6328125,-13.68359375,1,0,0,rectangle,-9.6328125,-13.68359375,1,0,0,-9.6328125,-13.68359375,1,0,0,1,24,184,10,1,,,,,,,,
,,,,,,,,,,,,,FF,,,,,,,,0.769299999,,,,,,,,,,,,,,,,,,,,,,60fddd15f7f160155121ae9e,61036b3723a23dcf36216c90,2021-07-29_20h01.01.694,Simcolourproject_2stim_asymm_v5,2020.2.10,MacIntel,60,61025ae37ef11b136ea224fe,,,,,,,,,782,62.4921875,-22.2265625,1,0,0,response3disk,,5,6.57421875,1.40234375,1,0,0,rectangle,6.57421875,1.40234375,1,0,0,6.57421875,1.40234375,1,0,0,1,25,185,94,1,,,,,,,,
,,,,,,,,,,,,,FF,,,,,,,,1.036,,,,,,,,,,,,,,,,,,,,,,60fddd15f7f160155121ae9e,61036b3723a23dcf36216c90,2021-07-29_20h01.01.694,Simcolourproject_2stim_asymm_v5,2020.2.10,MacIntel,60,61025ae37ef11b136ea224fe,,,,,,,,,4036,-18.2265625,-34.16796875,1,0,0,response5disk,,3,-0.7578125,-2.46875,1,0,0,rectangle,-0.7578125,-2.46875,1,0,0,-0.7578125,-2.46875,1,0,0,1,26,186,31,1,,,,,,,,
,,,,,,,,,,,,,FF,,,,,,,,1.1188,,,,,,,,,,,,,,,,,,,,,,60fddd15f7f160155121ae9e,61036b3723a23dcf36216c90,2021-07-29_20h01.01.694,Simcolourproject_2stim_asymm_v5,2020.2.10,MacIntel,60,61025ae37ef11b136ea224fe,,,,,,,,,1963,-30.27734375,47.3828125,1,0,0,response7disk,,0,-10.93359375,14.35546875,1,0,0,rectangle,-10.93359375,14.35546875,1,0,0,-10.93359375,14.35546875,1,0,0,1,27,187,6,1,,,,,,,,
,,,,,,,,,,,,,FF,,,,,,,,0.5846,,,,,,,,,,,,,,,,,,,,,,60fddd15f7f160155121ae9e,61036b3723a23dcf36216c90,2021-07-29_20h01.01.694,Simcolourproject_2stim_asymm_v5,2020.2.10,MacIntel,60,61025ae37ef11b136ea224fe,,,,,,,,,665,66.890625,30.1640625,1,0,0,response1disk,,6,34.6953125,10.1015625,1,0,0,rectangle,34.6953125,10.1015625,1,0,0,34.6953125,10.1015625,1,0,0,1,28,188,9,1,,,,,,,,
,,,,,,,,,,,,,FF,,,,,,,,0.8848,,,,,,,,,,,,,,,,,,,,,,60fddd15f7f160155121ae9e,61036b3723a23dcf36216c90,2021-07-29_20h01.01.694,Simcolourproject_2stim_asymm_v5,2020.2.10,MacIntel,60,61025ae37ef11b136ea224fe,,,,,,,,,1274,-19.20703125,-51.85546875,1,0,0,response5disk,,3,-10.1015625,-5.72265625,1,0,0,rectangle,-10.1015625,-5.72265625,1,0,0,-10.1015625,-5.72265625,1,0,0,1,29,189,83,1,,,,,,,,
,,,,,,,,,,,,,FF,,,,,,,,0.6363,,,,,,,,,,,,,,,,,,,,,,60fddd15f7f160155121ae9e,61036b3723a23dcf36216c90,2021-07-29_20h01.01.694,Simcolourproject_2stim_asymm_v5,2020.2.10,MacIntel,60,61025ae37ef11b136ea224fe,,,,,,,,,1487,49.1171875,43.0859375,1,0,0,response1disk,,6,28.14453125,0.6640625,1,0,0,rectangle,28.14453125,0.6640625,1,0,0,28.14453125,0.6640625,1,0,0,1,30,190,76,1,,,,,,,,
,,,,,,,,,,,,,FF,,,,,,,,0.684900001,,,,,,,,,,,,,,,,,,,,,,60fddd15f7f160155121ae9e,61036b3723a23dcf36216c90,2021-07-29_20h01.01.694,Simcolourproject_2stim_asymm_v5,2020.2.10,MacIntel,60,61025ae37ef11b136ea224fe,,,,,,,,,1180,63.73046875,-23.3515625,1,0,0,response3disk,,5,31.640625,-9.3984375,1,0,0,rectangle,31.640625,-9.3984375,1,0,0,31.640625,-9.3984375,1,0,0,1,31,191,139,1,,,,,,,,
,,,,,,,,,,,,,FF,,,,,,,,0.6025,,,,,,,,,,,,,,,,,,,,,,60fddd15f7f160155121ae9e,61036b3723a23dcf36216c90,2021-07-29_20h01.01.694,Simcolourproject_2stim_asymm_v5,2020.2.10,MacIntel,60,61025ae37ef11b136ea224fe,,,,,,,,,3250,24.5,-47.34765625,1,0,0,response3disk,,4,13.11328125,-6.328125,1,0,0,rectangle,13.11328125,-6.328125,1,0,0,13.11328125,-6.328125,1,0,0,1,32,192,61,1,,,,,,,,
,,,,,,,,,,,,,FF,,,,,,,,0.6339,,,,,,,,,,,,,,,,,,,,,,60fddd15f7f160155121ae9e,61036b3723a23dcf36216c90,2021-07-29_20h01.01.694,Simcolourproject_2stim_asymm_v5,2020.2.10,MacIntel,60,61025ae37ef11b136ea224fe,,,,,,,,,3254,45.53125,-22.46484375,1,0,0,response3disk,,5,29.78515625,-9.640625,1,0,0,rectangle,29.78515625,-9.640625,1,0,0,29.78515625,-9.640625,1,0,0,1,33,193,36,1,,,,,,,,
,,,,,,,,,,,,,FF,,,,,,,,0.5343,,,,,,,,,,,,,,,,,,,,,,60fddd15f7f160155121ae9e,61036b3723a23dcf36216c90,2021-07-29_20h01.01.694,Simcolourproject_2stim_asymm_v5,2020.2.10,MacIntel,60,61025ae37ef11b136ea224fe,,,,,,,,,2522,64.60546875,-25.59765625,1,0,0,response3disk,,5,4.09375,1.93359375,1,0,0,rectangle,4.09375,1.93359375,1,0,0,4.09375,1.93359375,1,0,0,1,34,194,20,1,,,,,,,,
,,,,,,,,,,,,,FF,,,,,,,,0.502,,,,,,,,,,,,,,,,,,,,,,60fddd15f7f160155121ae9e,61036b3723a23dcf36216c90,2021-07-29_20h01.01.694,Simcolourproject_2stim_asymm_v5,2020.2.10,MacIntel,60,61025ae37ef11b136ea224fe,,,,,,,,,2814,51.3984375,-23.23828125,1,0,0,response3disk,,5,9.9453125,12.4921875,1,0,0,rectangle,-21.11328125,-65.23828125,1,0,0,-3.21875,-2.41796875,1,0,0,1,35,195,2,1,,response5disk_3,TRUE,3,3,"[83,84,279,75,149,290,69,28,88,196,24,60,225,197,139,31,0,197,41,131]",2.1389,rectangle
,,,,,,,,,,,,,FF,,,,,,,,1.0522,,,,,,,,,,,,,,,,,,,,,,60fddd15f7f160155121ae9e,61036b3723a23dcf36216c90,2021-07-29_20h01.01.694,Simcolourproject_2stim_asymm_v5,2020.2.10,MacIntel,60,61025ae37ef11b136ea224fe,,,,,,,,,816,43.9609375,18.3125,1,0,0,response1disk,,6,6.03125,-9.078125,1,0,0,rectangle,39.78125,-82.328125,1,0,0,15.25390625,16.75,1,0,0,1,36,196,137,1,,response3disk_3,TRUE,4,4,"[83,84,279,75,149,290,69,28,88,196,24,60,225,197,139,31,0,197,41,131]",2.0702,rectangle
,,,,,,,,,,,,,FF,,,,,,,,0.818099999,,,,,,,,,,,,,,,,,,,,,,60fddd15f7f160155121ae9e,61036b3723a23dcf36216c90,2021-07-29_20h01.01.694,Simcolourproject_2stim_asymm_v5,2020.2.10,MacIntel,60,61025ae37ef11b136ea224fe,,,,,,,,,998,44.984375,-30.05859375,1,0,0,response3disk,,5,0.9375,-3.23828125,1,0,0,rectangle,0.9375,-3.23828125,1,0,0,0.9375,-3.23828125,1,0,0,1,37,197,50,1,,,,,,,,
,,,,,,,,,,,,,FF,,,,,,,,1.4209,,,,,,,,,,,,,,,,,,,,,,60fddd15f7f160155121ae9e,61036b3723a23dcf36216c90,2021-07-29_20h01.01.694,Simcolourproject_2stim_asymm_v5,2020.2.10,MacIntel,60,61025ae37ef11b136ea224fe,,,,,,,,,3107,-23.265625,-39.2265625,1,0,0,response5disk,,3,-1.2734375,2.09765625,1,0,0,rectangle,-1.2734375,2.09765625,1,0,0,-1.2734375,2.09765625,1,0,0,1,38,198,143,1,,,,,,,,
,,,,,,,,,,,,,FF,,,,,,,,0.7845,,,,,,,,,,,,,,,,,,,,,,60fddd15f7f160155121ae9e,61036b3723a23dcf36216c90,2021-07-29_20h01.01.694,Simcolourproject_2stim_asymm_v5,2020.2.10,MacIntel,60,61025ae37ef11b136ea224fe,,,,,,,,,646,45.84765625,-21.12890625,1,0,0,response3disk,,5,6.2890625,-4.95703125,1,0,0,rectangle,6.2890625,-4.95703125,1,0,0,6.2890625,-4.95703125,1,0,0,1,39,199,64,1,,,,,,,,
,,,,,,,,,,,,,FF,,,,,,,,0.7695,,,,,,,,,,,,,,,,,,,,,,60fddd15f7f160155121ae9e,61036b3723a23dcf36216c90,2021-07-29_20h01.01.694,Simcolourproject_2stim_asymm_v5,2020.2.10,MacIntel,60,61025ae37ef11b136ea224fe,,,,,,,,,2645,48.1640625,-33.05859375,1,0,0,response3disk,,5,-0.796875,-9.1875,1,0,0,rectangle,-0.796875,-9.1875,1,0,0,-0.796875,-9.1875,1,0,0,1,40,200,81,1,,,,,,,,
,,,,,,,,,,,,,FF,,,,,,,,0.9363,,,,,,,,,,,,,,,,,,,,,,60fddd15f7f160155121ae9e,61036b3723a23dcf36216c90,2021-07-29_20h01.01.694,Simcolourproject_2stim_asymm_v5,2020.2.10,MacIntel,60,61025ae37ef11b136ea224fe,,,,,,,,,1216,37.078125,-32.80078125,1,0,0,response3disk,,5,-5.20703125,-4.1328125,1,0,0,rectangle,-5.20703125,-4.1328125,1,0,0,-5.20703125,-4.1328125,1,0,0,1,41,201,59,1,,,,,,,,
,,,,,,,,,,,,,FF,,,,,,,,0.720400001,,,,,,,,,,,,,,,,,,,,,,60fddd15f7f160155121ae9e,61036b3723a23dcf36216c90,2021-07-29_20h01.01.694,Simcolourproject_2stim_asymm_v5,2020.2.10,MacIntel,60,61025ae37ef11b136ea224fe,,,,,,,,,1500,61.15625,-29.33203125,1,0,0,response3disk,,5,10.57421875,-1.49609375,1,0,0,rectangle,10.57421875,-1.49609375,1,0,0,10.57421875,-1.49609375,1,0,0,1,42,202,98,1,,,,,,,,
,,,,,,,,,,,,,FF,,,,,,,,1.103700001,,,,,,,,,,,,,,,,,,,,,,60fddd15f7f160155121ae9e,61036b3723a23dcf36216c90,2021-07-29_20h01.01.694,Simcolourproject_2stim_asymm_v5,2020.2.10,MacIntel,60,61025ae37ef11b136ea224fe,,,,,,,,,463,-25.26953125,-70.9765625,1,0,0,response5disk,,3,19.03515625,-9.14453125,1,0,0,rectangle,19.03515625,-9.14453125,1,0,0,19.03515625,-9.14453125,1,0,0,1,43,203,105,1,,,,,,,,
,,,,,,,,,,,,,FF,,,,,,,,0.7033,,,,,,,,,,,,,,,,,,,,,,60fddd15f7f160155121ae9e,61036b3723a23dcf36216c90,2021-07-29_20h01.01.694,Simcolourproject_2stim_asymm_v5,2020.2.10,MacIntel,60,61025ae37ef11b136ea224fe,,,,,,,,,2766,68.66796875,36.62109375,1,0,0,response1disk,,6,0.79296875,-17.05078125,1,0,0,rectangle,0.79296875,-17.05078125,1,0,0,0.79296875,-17.05078125,1,0,0,1,44,204,132,1,,,,,,,,
,,,,,,,,,,,,,FF,,,,,,,,0.8024,,,,,,,,,,,,,,,,,,,,,,60fddd15f7f160155121ae9e,61036b3723a23dcf36216c90,2021-07-29_20h01.01.694,Simcolourproject_2stim_asymm_v5,2020.2.10,MacIntel,60,61025ae37ef11b136ea224fe,,,,,,,,,2839,35.80078125,-39.5703125,1,0,0,response3disk,,4,1.53125,-3.1171875,1,0,0,rectangle,1.53125,-3.1171875,1,0,0,1.53125,-3.1171875,1,0,0,1,45,205,101,1,,,,,,,,
,,,,,,,,,,,,,FF,,,,,,,,0.9354,,,,,,,,,,,,,,,,,,,,,,60fddd15f7f160155121ae9e,61036b3723a23dcf36216c90,2021-07-29_20h01.01.694,Simcolourproject_2stim_asymm_v5,2020.2.10,MacIntel,60,61025ae37ef11b136ea224fe,,,,,,,,,1919,53.58203125,36.21875,1,0,0,response1disk,,6,-1.70703125,-10.49609375,1,0,0,rectangle,-1.70703125,-10.49609375,1,0,0,-1.70703125,-10.49609375,1,0,0,1,46,206,93,1,,,,,,,,
,,,,,,,,,,,,,FF,,,,,,,,0.6694,,,,,,,,,,,,,,,,,,,,,,60fddd15f7f160155121ae9e,61036b3723a23dcf36216c90,2021-07-29_20h01.01.694,Simcolourproject_2stim_asymm_v5,2020.2.10,MacIntel,60,61025ae37ef11b136ea224fe,,,,,,,,,773,51.66015625,17.96875,1,0,0,response1disk,,6,16.44140625,-3.421875,1,0,0,rectangle,16.44140625,-3.421875,1,0,0,16.44140625,-3.421875,1,0,0,1,47,207,51,1,,,,,,,,
,,,,,,,,,,,,,FF,,,,,,,,0.7017,,,,,,,,,,,,,,,,,,,,,,60fddd15f7f160155121ae9e,61036b3723a23dcf36216c90,2021-07-29_20h01.01.694,Simcolourproject_2stim_asymm_v5,2020.2.10,MacIntel,60,61025ae37ef11b136ea224fe,,,,,,,,,2838,38.51953125,-34.5078125,1,0,0,response3disk,,5,12.34765625,-3.16796875,1,0,0,rectangle,12.34765625,-3.16796875,1,0,0,12.34765625,-3.16796875,1,0,0,1,48,208,100,1,,,,,,,,
,,,,,,,,,,,,,FF,,,,,,,,0.7853,,,,,,,,,,,,,,,,,,,,,,60fddd15f7f160155121ae9e,61036b3723a23dcf36216c90,2021-07-29_20h01.01.694,Simcolourproject_2stim_asymm_v5,2020.2.10,MacIntel,60,61025ae37ef11b136ea224fe,,,,,,,,,570,48.91796875,29.24609375,1,0,0,response1disk,,6,11.6796875,3.5703125,1,0,0,rectangle,11.6796875,3.5703125,1,0,0,11.6796875,3.5703125,1,0,0,1,49,209,155,1,,,,,,,,
,,,,,,,,,,,,,FF,,,,,,,,0.9683,,,,,,,,,,,,,,,,,,,,,,60fddd15f7f160155121ae9e,61036b3723a23dcf36216c90,2021-07-29_20h01.01.694,Simcolourproject_2stim_asymm_v5,2020.2.10,MacIntel,60,61025ae37ef11b136ea224fe,,,,,,,,,4362,-35.5,55.08203125,1,0,0,response7disk,,0,-1.08984375,-9.51171875,1,0,0,rectangle,-1.08984375,-9.51171875,1,0,0,-1.08984375,-9.51171875,1,0,0,1,50,210,116,1,,,,,,,,
,,,,,,,,,,,,,FF,,,,,,,,0.757599999,,,,,,,,,,,,,,,,,,,,,,60fddd15f7f160155121ae9e,61036b3723a23dcf36216c90,2021-07-29_20h01.01.694,Simcolourproject_2stim_asymm_v5,2020.2.10,MacIntel,60,61025ae37ef11b136ea224fe,,,,,,,,,2595,60.375,28.08984375,1,0,0,response1disk,,6,24.80859375,11.0703125,1,0,0,rectangle,24.80859375,11.0703125,1,0,0,24.80859375,11.0703125,1,0,0,1,51,211,13,1,,,,,,,,
,,,,,,,,,,,,,FF,,,,,,,,0.551,,,,,,,,,,,,,,,,,,,,,,60fddd15f7f160155121ae9e,61036b3723a23dcf36216c90,2021-07-29_20h01.01.694,Simcolourproject_2stim_asymm_v5,2020.2.10,MacIntel,60,61025ae37ef11b136ea224fe,,,,,,,,,819,65.88671875,32.93359375,1,0,0,response1disk,,6,25.55859375,9.26171875,1,0,0,rectangle,25.55859375,9.26171875,1,0,0,25.55859375,9.26171875,1,0,0,1,52,212,33,1,,,,,,,,
,,,,,,,,,,,,,FF,,,,,,,,1.0686,,,,,,,,,,,,,,,,,,,,,,60fddd15f7f160155121ae9e,61036b3723a23dcf36216c90,2021-07-29_20h01.01.694,Simcolourproject_2stim_asymm_v5,2020.2.10,MacIntel,60,61025ae37ef11b136ea224fe,,,,,,,,,429,59.390625,-38.5078125,1,0,0,response3disk,,5,14.81640625,3.96484375,1,0,0,rectangle,14.81640625,3.96484375,1,0,0,14.81640625,3.96484375,1,0,0,1,53,213,82,1,,,,,,,,
,,,,,,,,,,,,,FF,,,,,,,,0.6674,,,,,,,,,,,,,,,,,,,,,,60fddd15f7f160155121ae9e,61036b3723a23dcf36216c90,2021-07-29_20h01.01.694,Simcolourproject_2stim_asymm_v5,2020.2.10,MacIntel,60,61025ae37ef11b136ea224fe,,,,,,,,,131,51.09375,24.58203125,1,0,0,response1disk,,6,3.09765625,-9.8125,1,0,0,rectangle,3.09765625,-9.8125,1,0,0,3.09765625,-9.8125,1,0,0,1,54,214,126,1,,,,,,,,
,,,,,,,,,,,,,FF,,,,,,,,0.7527,,,,,,,,,,,,,,,,,,,,,,60fddd15f7f160155121ae9e,61036b3723a23dcf36216c90,2021-07-29_20h01.01.694,Simcolourproject_2stim_asymm_v5,2020.2.10,MacIntel,60,61025ae37ef11b136ea224fe,,,,,,,,,4167,26.87109375,-47.0625,1,0,0,response3disk,,4,13.01171875,-8.48046875,1,0,0,rectangle,13.01171875,-8.48046875,1,0,0,13.01171875,-8.48046875,1,0,0,1,55,215,45,1,,,,,,,,
,,,,,,,,,,,,,FF,,,,,,,,0.9688,,,,,,,,,,,,,,,,,,,,,,60fddd15f7f160155121ae9e,61036b3723a23dcf36216c90,2021-07-29_20h01.01.694,Simcolourproject_2stim_asymm_v5,2020.2.10,MacIntel,60,61025ae37ef11b136ea224fe,,,,,,,,,1510,57.90234375,19.78125,1,0,0,response1disk,,6,12.20703125,-8.69921875,1,0,0,rectangle,12.20703125,-8.69921875,1,0,0,12.20703125,-8.69921875,1,0,0,1,56,216,106,1,,,,,,,,
,,,,,,,,,,,,,FF,,,,,,,,0.433,,,,,,,,,,,,,,,,,,,,,,60fddd15f7f160155121ae9e,61036b3723a23dcf36216c90,2021-07-29_20h01.01.694,Simcolourproject_2stim_asymm_v5,2020.2.10,MacIntel,60,61025ae37ef11b136ea224fe,,,,,,,,,196,65.32421875,33.0546875,1,0,0,response1disk,,6,10.4765625,-13.60546875,1,0,0,rectangle,10.4765625,-13.60546875,1,0,0,10.4765625,-13.60546875,1,0,0,1,57,217,134,1,,,,,,,,
,,,,,,,,,,,,,FF,,,,,,,,0.5848,,,,,,,,,,,,,,,,,,,,,,60fddd15f7f160155121ae9e,61036b3723a23dcf36216c90,2021-07-29_20h01.01.694,Simcolourproject_2stim_asymm_v5,2020.2.10,MacIntel,60,61025ae37ef11b136ea224fe,,,,,,,,,4130,51.3046875,-36.6015625,1,0,0,response3disk,,5,6.47265625,-7.3359375,1,0,0,rectangle,6.47265625,-7.3359375,1,0,0,6.47265625,-7.3359375,1,0,0,1,58,218,32,1,,,,,,,,
,,,,,,,,,,,,,FF,,,,,,,,0.918700001,,,,,,,,,,,,,,,,,,,,,,60fddd15f7f160155121ae9e,61036b3723a23dcf36216c90,2021-07-29_20h01.01.694,Simcolourproject_2stim_asymm_v5,2020.2.10,MacIntel,60,61025ae37ef11b136ea224fe,,,,,,,,,1610,-29.5546875,-35.578125,1,0,0,response5disk,,3,-20.2890625,-3.45703125,1,0,0,rectangle,-20.2890625,-3.45703125,1,0,0,-20.2890625,-3.45703125,1,0,0,1,59,219,148,1,,,,,,,,
,,,,,,,,,,,,,FF,,,,,,,,0.4502,,,,,,,,,,,,,,,,,,,,,,60fddd15f7f160155121ae9e,61036b3723a23dcf36216c90,2021-07-29_20h01.01.694,Simcolourproject_2stim_asymm_v5,2020.2.10,MacIntel,60,61025ae37ef11b136ea224fe,,,,,,,,,1532,56.828125,-40.35546875,1,0,0,response3disk,,5,19.203125,2.5234375,1,0,0,rectangle,19.203125,2.5234375,1,0,0,19.203125,2.5234375,1,0,0,1,60,220,113,1,,,,,,,,
,,,,,,,,,,,,,FF,,,,,,,,0.584700001,,,,,,,,,,,,,,,,,,,,,,60fddd15f7f160155121ae9e,61036b3723a23dcf36216c90,2021-07-29_20h01.01.694,Simcolourproject_2stim_asymm_v5,2020.2.10,MacIntel,60,61025ae37ef11b136ea224fe,,,,,,,,,1354,61.58203125,-40.29296875,1,0,0,response3disk,,5,22.3515625,-2.18359375,1,0,0,rectangle,22.3515625,-2.18359375,1,0,0,22.3515625,-2.18359375,1,0,0,1,61,221,79,1,,,,,,,,
,,,,,,,,,,,,,FF,,,,,,,,0.7188,,,,,,,,,,,,,,,,,,,,,,60fddd15f7f160155121ae9e,61036b3723a23dcf36216c90,2021-07-29_20h01.01.694,Simcolourproject_2stim_asymm_v5,2020.2.10,MacIntel,60,61025ae37ef11b136ea224fe,,,,,,,,,2003,50.8046875,27.359375,1,0,0,response1disk,,6,21.20703125,-5.41015625,1,0,0,rectangle,21.20703125,-5.41015625,1,0,0,21.20703125,-5.41015625,1,0,0,1,62,222,151,1,,,,,,,,
,,,,,,,,,,,,,FF,,,,,,,,0.567599999,,,,,,,,,,,,,,,,,,,,,,60fddd15f7f160155121ae9e,61036b3723a23dcf36216c90,2021-07-29_20h01.01.694,Simcolourproject_2stim_asymm_v5,2020.2.10,MacIntel,60,61025ae37ef11b136ea224fe,,,,,,,,,2756,66.8359375,-47.57421875,1,0,0,response3disk,,5,19.82421875,9.0078125,1,0,0,rectangle,19.82421875,9.0078125,1,0,0,19.82421875,9.0078125,1,0,0,1,63,223,3,1,,,,,,,,
,,,,,,,,,,,,,FF,,,,,,,,0.634,,,,,,,,,,,,,,,,,,,,,,60fddd15f7f160155121ae9e,61036b3723a23dcf36216c90,2021-07-29_20h01.01.694,Simcolourproject_2stim_asymm_v5,2020.2.10,MacIntel,60,61025ae37ef11b136ea224fe,,,,,,,,,2315,58.421875,30.00390625,1,0,0,response1disk,,6,9.015625,-3.3984375,1,0,0,rectangle,70.1171875,36.37890625,1,0,0,2.875,3.18359375,1,0,0,1,64,224,72,1,,response1disk_3,TRUE,6,6,"[83,84,279,75,149,290,69,28,88,196,24,60,225,197,139,31,0,197,41,131]",1.519700001,rectangle
,,,,,,,,,,,,,FF,,,,,,,,0.719,,,,,,,,,,,,,,,,,,,,,,60fddd15f7f160155121ae9e,61036b3723a23dcf36216c90,2021-07-29_20h01.01.694,Simcolourproject_2stim_asymm_v5,2020.2.10,MacIntel,60,61025ae37ef11b136ea224fe,,,,,,,,,1352,45.359375,-27.8828125,1,0,0,response3disk,,5,3.15234375,7.9609375,1,0,0,rectangle,3.15234375,7.9609375,1,0,0,3.15234375,7.9609375,1,0,0,1,65,225,109,1,,,,,,,,
,,,,,,,,,,,,,FF,,,,,,,,0.6511,,,,,,,,,,,,,,,,,,,,,,60fddd15f7f160155121ae9e,61036b3723a23dcf36216c90,2021-07-29_20h01.01.694,Simcolourproject_2stim_asymm_v5,2020.2.10,MacIntel,60,61025ae37ef11b136ea224fe,,,,,,,,,71,26.94140625,-46.61328125,1,0,0,response3disk,,4,10.98828125,-0.890625,1,0,0,rectangle,10.98828125,-0.890625,1,0,0,10.98828125,-0.890625,1,0,0,1,66,226,133,1,,,,,,,,
,,,,,,,,,,,,,FF,,,,,,,,0.535,,,,,,,,,,,,,,,,,,,,,,60fddd15f7f160155121ae9e,61036b3723a23dcf36216c90,2021-07-29_20h01.01.694,Simcolourproject_2stim_asymm_v5,2020.2.10,MacIntel,60,61025ae37ef11b136ea224fe,,,,,,,,,564,67.1875,30.9453125,1,0,0,response1disk,,6,12.53125,-1.109375,1,0,0,rectangle,12.53125,-1.109375,1,0,0,12.53125,-1.109375,1,0,0,1,67,227,108,1,,,,,,,,
,,,,,,,,,,,,,FF,,,,,,,,0.8362,,,,,,,,,,,,,,,,,,,,,,60fddd15f7f160155121ae9e,61036b3723a23dcf36216c90,2021-07-29_20h01.01.694,Simcolourproject_2stim_asymm_v5,2020.2.10,MacIntel,60,61025ae37ef11b136ea224fe,,,,,,,,,533,-41.39453125,-39.48828125,1,0,0,response5disk,,2,5.90625,-4.2578125,1,0,0,rectangle,5.90625,-4.2578125,1,0,0,5.90625,-4.2578125,1,0,0,1,68,228,129,1,,,,,,,,
,,,,,,,,,,,,,FF,,,,,,,,1.1366,,,,,,,,,,,,,,,,,,,,,,60fddd15f7f160155121ae9e,61036b3723a23dcf36216c90,2021-07-29_20h01.01.694,Simcolourproject_2stim_asymm_v5,2020.2.10,MacIntel,60,61025ae37ef11b136ea224fe,,,,,,,,,4317,-29.32421875,-50.45703125,1,0,0,response5disk,,3,-6.36328125,2.796875,1,0,0,rectangle,-6.36328125,2.796875,1,0,0,-6.36328125,2.796875,1,0,0,1,69,229,1,1,,,,,,,,
,,,,,,,,,,,,,FF,,,,,,,,0.602900001,,,,,,,,,,,,,,,,,,,,,,60fddd15f7f160155121ae9e,61036b3723a23dcf36216c90,2021-07-29_20h01.01.694,Simcolourproject_2stim_asymm_v5,2020.2.10,MacIntel,60,61025ae37ef11b136ea224fe,,,,,,,,,2219,66.65625,24.8828125,1,0,0,response1disk,,6,2.328125,-8.97265625,1,0,0,rectangle,2.328125,-8.97265625,1,0,0,2.328125,-8.97265625,1,0,0,1,70,230,41,1,,,,,,,,
,,,,,,,,,,,,,FF,,,,,,,,0.8682,,,,,,,,,,,,,,,,,,,,,,60fddd15f7f160155121ae9e,61036b3723a23dcf36216c90,2021-07-29_20h01.01.694,Simcolourproject_2stim_asymm_v5,2020.2.10,MacIntel,60,61025ae37ef11b136ea224fe,,,,,,,,,4269,-48.34375,-30.6640625,1,0,0,response5disk,,2,0.83203125,-2.546875,1,0,0,rectangle,0.83203125,-2.546875,1,0,0,0.83203125,-2.546875,1,0,0,1,71,231,28,1,,,,,,,,
,,,,,,,,,,,,,FF,,,,,,,,0.586,,,,,,,,,,,,,,,,,,,,,,60fddd15f7f160155121ae9e,61036b3723a23dcf36216c90,2021-07-29_20h01.01.694,Simcolourproject_2stim_asymm_v5,2020.2.10,MacIntel,60,61025ae37ef11b136ea224fe,,,,,,,,,540,26.078125,-35.484375,1,0,0,response3disk,,4,13.7109375,0.703125,1,0,0,rectangle,13.7109375,0.703125,1,0,0,13.7109375,0.703125,1,0,0,1,72,232,111,1,,,,,,,,
,,,,,,,,,,,,,FF,,,,,,,,1.237,,,,,,,,,,,,,,,,,,,,,,60fddd15f7f160155121ae9e,61036b3723a23dcf36216c90,2021-07-29_20h01.01.694,Simcolourproject_2stim_asymm_v5,2020.2.10,MacIntel,60,61025ae37ef11b136ea224fe,,,,,,,,,468,-28.7265625,-62.671875,1,0,0,response5disk,,3,-1.37890625,9.0390625,1,0,0,rectangle,-1.37890625,9.0390625,1,0,0,-1.37890625,9.0390625,1,0,0,1,73,233,135,1,,,,,,,,
,,,,,,,,,,,,,FF,,,,,,,,0.6682,,,,,,,,,,,,,,,,,,,,,,60fddd15f7f160155121ae9e,61036b3723a23dcf36216c90,2021-07-29_20h01.01.694,Simcolourproject_2stim_asymm_v5,2020.2.10,MacIntel,60,61025ae37ef11b136ea224fe,,,,,,,,,2655,45.34375,27.26171875,1,0,0,response1disk,,6,0.95703125,-0.3125,1,0,0,rectangle,0.95703125,-0.3125,1,0,0,0.95703125,-0.3125,1,0,0,1,74,234,11,1,,,,,,,,
,,,,,,,,,,,,,FF,,,,,,,,0.635799999,,,,,,,,,,,,,,,,,,,,,,60fddd15f7f160155121ae9e,61036b3723a23dcf36216c90,2021-07-29_20h01.01.694,Simcolourproject_2stim_asymm_v5,2020.2.10,MacIntel,60,61025ae37ef11b136ea224fe,,,,,,,,,1588,47.66796875,-34.22265625,1,0,0,response3disk,,5,9.2578125,-1.8046875,1,0,0,rectangle,9.2578125,-1.8046875,1,0,0,9.2578125,-1.8046875,1,0,0,1,75,235,145,1,,,,,,,,
,,,,,,,,,,,,,FF,,,,,,,,0.8018,,,,,,,,,,,,,,,,,,,,,,60fddd15f7f160155121ae9e,61036b3723a23dcf36216c90,2021-07-29_20h01.01.694,Simcolourproject_2stim_asymm_v5,2020.2.10,MacIntel,60,61025ae37ef11b136ea224fe,,,,,,,,,4135,55.54296875,26.15625,1,0,0,response1disk,,6,6.33203125,-2.16796875,1,0,0,rectangle,6.33203125,-2.16796875,1,0,0,6.33203125,-2.16796875,1,0,0,1,76,236,118,1,,,,,,,,
,,,,,,,,,,,,,FF,,,,,,,,0.6855,,,,,,,,,,,,,,,,,,,,,,60fddd15f7f160155121ae9e,61036b3723a23dcf36216c90,2021-07-29_20h01.01.694,Simcolourproject_2stim_asymm_v5,2020.2.10,MacIntel,60,61025ae37ef11b136ea224fe,,,,,,,,,4335,-27.76953125,56.6640625,1,0,0,response7disk,,0,5.328125,-15.5390625,1,0,0,rectangle,5.328125,-15.5390625,1,0,0,5.328125,-15.5390625,1,0,0,1,77,237,142,1,,,,,,,,
,,,,,,,,,,,,,FF,,,,,,,,0.601099999,,,,,,,,,,,,,,,,,,,,,,60fddd15f7f160155121ae9e,61036b3723a23dcf36216c90,2021-07-29_20h01.01.694,Simcolourproject_2stim_asymm_v5,2020.2.10,MacIntel,60,61025ae37ef11b136ea224fe,,,,,,,,,2262,59.62109375,28.80859375,1,0,0,response1disk,,6,11.98046875,-9.95703125,1,0,0,rectangle,11.98046875,-9.95703125,1,0,0,11.98046875,-9.95703125,1,0,0,1,78,238,56,1,,,,,,,,
,,,,,,,,,,,,,FF,,,,,,,,0.5192,,,,,,,,,,,,,,,,,,,,,,60fddd15f7f160155121ae9e,61036b3723a23dcf36216c90,2021-07-29_20h01.01.694,Simcolourproject_2stim_asymm_v5,2020.2.10,MacIntel,60,61025ae37ef11b136ea224fe,,,,,,,,,4013,64.78515625,30.8828125,1,0,0,response1disk,,6,13.22265625,-12.9765625,1,0,0,rectangle,13.22265625,-12.9765625,1,0,0,13.22265625,-12.9765625,1,0,0,1,79,239,34,1,,,,,,,,
,,,,,,,,,,,,,FF,,,,,,,,0.6017,,,,,,,,,,,,,,,,,,,,,,60fddd15f7f160155121ae9e,61036b3723a23dcf36216c90,2021-07-29_20h01.01.694,Simcolourproject_2stim_asymm_v5,2020.2.10,MacIntel,60,61025ae37ef11b136ea224fe,,,,,,,,,4033,22.23828125,-38.09375,1,0,0,response3disk,,4,3.76953125,-5.51953125,1,0,0,rectangle,3.76953125,-5.51953125,1,0,0,3.76953125,-5.51953125,1,0,0,1,80,240,78,1,,,,,,,,
,,,,,,,,,,,,,FF,,,,,,,,0.651700001,,,,,,,,,,,,,,,,,,,,,,60fddd15f7f160155121ae9e,61036b3723a23dcf36216c90,2021-07-29_20h01.01.694,Simcolourproject_2stim_asymm_v5,2020.2.10,MacIntel,60,61025ae37ef11b136ea224fe,,,,,,,,,560,57.76171875,31.9140625,1,0,0,response1disk,,6,2.21484375,-6.078125,1,0,0,rectangle,2.21484375,-6.078125,1,0,0,2.21484375,-6.078125,1,0,0,1,81,241,40,1,,,,,,,,
,,,,,,,,,,,,,FF,,,,,,,,0.4658,,,,,,,,,,,,,,,,,,,,,,60fddd15f7f160155121ae9e,61036b3723a23dcf36216c90,2021-07-29_20h01.01.694,Simcolourproject_2stim_asymm_v5,2020.2.10,MacIntel,60,61025ae37ef11b136ea224fe,,,,,,,,,300,58.1796875,34.40234375,1,0,0,response1disk,,6,11.69921875,5.44921875,1,0,0,rectangle,11.69921875,5.44921875,1,0,0,11.69921875,5.44921875,1,0,0,1,82,242,16,1,,,,,,,,
,,,,,,,,,,,,,FF,,,,,,,,0.4863,,,,,,,,,,,,,,,,,,,,,,60fddd15f7f160155121ae9e,61036b3723a23dcf36216c90,2021-07-29_20h01.01.694,Simcolourproject_2stim_asymm_v5,2020.2.10,MacIntel,60,61025ae37ef11b136ea224fe,,,,,,,,,508,60.27734375,27.54296875,1,0,0,response1disk,,6,11.69140625,-4.25,1,0,0,rectangle,11.69140625,-4.25,1,0,0,11.69140625,-4.25,1,0,0,1,83,243,107,1,,,,,,,,
,,,,,,,,,,,,,FF,,,,,,,,0.4513,,,,,,,,,,,,,,,,,,,,,,60fddd15f7f160155121ae9e,61036b3723a23dcf36216c90,2021-07-29_20h01.01.694,Simcolourproject_2stim_asymm_v5,2020.2.10,MacIntel,60,61025ae37ef11b136ea224fe,,,,,,,,,874,72.04296875,37.2109375,1,0,0,response1disk,,6,10.05078125,-1.234375,1,0,0,rectangle,10.05078125,-1.234375,1,0,0,10.05078125,-1.234375,1,0,0,1,84,244,27,1,,,,,,,,
,,,,,,,,,,,,,FF,,,,,,,,0.4335,,,,,,,,,,,,,,,,,,,,,,60fddd15f7f160155121ae9e,61036b3723a23dcf36216c90,2021-07-29_20h01.01.694,Simcolourproject_2stim_asymm_v5,2020.2.10,MacIntel,60,61025ae37ef11b136ea224fe,,,,,,,,,1872,72.328125,32.88671875,1,0,0,response1disk,,6,8.171875,-4.60546875,1,0,0,rectangle,8.171875,-4.60546875,1,0,0,8.171875,-4.60546875,1,0,0,1,85,245,18,1,,,,,,,,
,,,,,,,,,,,,,FF,,,,,,,,0.5863,,,,,,,,,,,,,,,,,,,,,,60fddd15f7f160155121ae9e,61036b3723a23dcf36216c90,2021-07-29_20h01.01.694,Simcolourproject_2stim_asymm_v5,2020.2.10,MacIntel,60,61025ae37ef11b136ea224fe,,,,,,,,,3044,50.81640625,23.04296875,1,0,0,response1disk,,6,-5.6953125,0.609375,1,0,0,rectangle,-5.6953125,0.609375,1,0,0,-5.6953125,0.609375,1,0,0,1,86,246,140,1,,,,,,,,
