key_resp.keys,key_resp.rt,key_resp_14.keys,key_resp_14.rt,key_resp_15.keys,key_resp_15.rt,key_resp_17.keys,key_resp_17.rt,key_resp_9.keys,key_resp_9.rt,key_resp_10.keys,key_resp_10.rt,practice_comparison,Ecc,mouse_5.x,mouse_5.y,mouse_5.leftButton,mouse_5.midButton,mouse_5.rightButton,mouse_5.clicked_name,pracsimilarity,response_time,mouse_10.x,mouse_10.y,mouse_10.leftButton,mouse_10.midButton,mouse_10.rightButton,mouse_10.clicked_name,mouse_7.x,mouse_7.y,mouse_7.leftButton,mouse_7.midButton,mouse_7.rightButton,mouse_6.x,mouse_6.y,mouse_6.leftButton,mouse_6.midButton,mouse_6.rightButton,duringprac.thisRepN,duringprac.thisTrialN,duringprac.thisN,duringprac.thisIndex,duringprac.ran,participant,session,date,expName,psychopyVersion,OS,frameRate,study_id,mouse_7.clicked_name,catchpracsimilarity,catch_response_time,catchnumberprac,catchtrialorderprac,mouse_6.clicked_name,key_resp_22.keys,key_resp_22.rt,realcomparison,mouse.x,mouse.y,mouse.leftButton,mouse.midButton,mouse.rightButton,mouse.clicked_name,Colour2,similarity,mouse_2.x,mouse_2.y,mouse_2.leftButton,mouse_2.midButton,mouse_2.rightButton,mouse_2.clicked_name,mouse_3.x,mouse_3.y,mouse_3.leftButton,mouse_3.midButton,mouse_3.rightButton,mouse_11.x,mouse_11.y,mouse_11.leftButton,mouse_11.midButton,mouse_11.rightButton,trials_2.thisRepN,trials_2.thisTrialN,trials_2.thisN,trials_2.thisIndex,trials_2.ran,Colour1,mouse_3.clicked_name,catchornah,catchsimilarity,catchnumber,catchtrialorder,catchRT,mouse_11.clicked_name
space,1.3434,space,16.4886,space,19.8551,space,5.6123,space,2.532,space,2.6017,80,FF,-41,-81,1,0,0,response5disk_5,3,7.3649,2,-2,1,0,0,rectangle_8,2,-2,1,0,0,2,-2,1,0,0,0,0,0,3,1,60fdd20d5832a81323b3c8f9,61036ee77388e7c156ebdc33,2021-07-29_23h18.40.295,Simcolourproject_2stim_asymm_v5,2020.2.10,Win32,60,61025ae37ef11b136ea224fe,,,,,,,,,,,,,,,,,,,,,,,,,,,,,,,,,,,,,,,,,,,,,,
,,,,,,,,,,,,29,FF,51,79,1,0,0,response1disk_5,7,2.3957,15,-8,1,0,0,rectangle_8,-81,44,1,0,0,-2,-2,1,0,0,0,1,1,5,1,60fdd20d5832a81323b3c8f9,61036ee77388e7c156ebdc33,2021-07-29_23h18.40.295,Simcolourproject_2stim_asymm_v5,2020.2.10,Win32,60,61025ae37ef11b136ea224fe,response7disk_7,1,3.5537,1,"[2,5]",rectangle_4,,,,,,,,,,,,,,,,,,,,,,,,,,,,,,,,,,,,,,,,
,,,,,,,,,,,,7,PF,54,-75,1,0,0,response3disk_5,4,4.2476,9,4,1,0,0,rectangle_8,9,4,1,0,0,9,4,1,0,0,0,2,2,6,1,60fdd20d5832a81323b3c8f9,61036ee77388e7c156ebdc33,2021-07-29_23h18.40.295,Simcolourproject_2stim_asymm_v5,2020.2.10,Win32,60,61025ae37ef11b136ea224fe,,,,,,,,,,,,,,,,,,,,,,,,,,,,,,,,,,,,,,,,,,,,,,
,,,,,,,,,,,,89,PF,71,-47,1,0,0,response3disk_5,5,3.117,-7,0,1,0,0,rectangle_8,-7,0,1,0,0,-7,0,1,0,0,0,3,3,1,1,60fdd20d5832a81323b3c8f9,61036ee77388e7c156ebdc33,2021-07-29_23h18.40.295,Simcolourproject_2stim_asymm_v5,2020.2.10,Win32,60,61025ae37ef11b136ea224fe,,,,,,,,,,,,,,,,,,,,,,,,,,,,,,,,,,,,,,,,,,,,,,
,,,,,,,,,,,,119,PF,-84,-24,1,0,0,response5disk_5,2,3.7836,5,1,1,0,0,rectangle_8,-96,49,1,0,0,-2,5,1,0,0,0,4,4,4,1,60fdd20d5832a81323b3c8f9,61036ee77388e7c156ebdc33,2021-07-29_23h18.40.295,Simcolourproject_2stim_asymm_v5,2020.2.10,Win32,60,61025ae37ef11b136ea224fe,response7disk_7,1,3.0173,1,"[2,5]",rectangle_4,,,,,,,,,,,,,,,,,,,,,,,,,,,,,,,,,,,,,,,,
,,,,,,,,,,,,107,PF,63,48,1,0,0,response1disk_5,6,1.5003,4,-1,1,0,0,rectangle_8,4,-1,1,0,0,4,-1,1,0,0,0,5,5,2,1,60fdd20d5832a81323b3c8f9,61036ee77388e7c156ebdc33,2021-07-29_23h18.40.295,Simcolourproject_2stim_asymm_v5,2020.2.10,Win32,60,61025ae37ef11b136ea224fe,,,,,,,,,,,,,,,,,,,,,,,,,,,,,,,,,,,,,,,,,,,,,,
,,,,,,,,,,,,115,FF,68,44,1,0,0,response1disk_5,6,2.8671,-2,-5,1,0,0,rectangle_8,-2,-5,1,0,0,-2,-5,1,0,0,0,6,6,0,1,60fdd20d5832a81323b3c8f9,61036ee77388e7c156ebdc33,2021-07-29_23h18.40.295,Simcolourproject_2stim_asymm_v5,2020.2.10,Win32,60,61025ae37ef11b136ea224fe,,,,,,,,,,,,,,,,,,,,,,,,,,,,,,,,,,,,,,,,,,,,,,
,,,,,,,,,,,,,FF,,,,,,,,4.103,,,,,,,,,,,,,,,,,,,,,,60fdd20d5832a81323b3c8f9,61036ee77388e7c156ebdc33,2021-07-29_23h18.40.295,Simcolourproject_2stim_asymm_v5,2020.2.10,Win32,60,61025ae37ef11b136ea224fe,,,,,,,space,4.1655,2351,-70,-27,1,0,0,response5disk,,2,-4,2,1,0,0,rectangle,-4,2,1,0,0,-4,2,1,0,0,0,0,0,155,1,,,,,,,,
,,,,,,,,,,,,,FF,,,,,,,,2.5507,,,,,,,,,,,,,,,,,,,,,,60fdd20d5832a81323b3c8f9,61036ee77388e7c156ebdc33,2021-07-29_23h18.40.295,Simcolourproject_2stim_asymm_v5,2020.2.10,Win32,60,61025ae37ef11b136ea224fe,,,,,,,,,451,83,-24,1,0,0,response3disk,,5,-1,-1,1,0,0,rectangle,-1,-1,1,0,0,-1,-1,1,0,0,0,1,1,152,1,,,,,,,,
,,,,,,,,,,,,,FF,,,,,,,,2.2833,,,,,,,,,,,,,,,,,,,,,,60fdd20d5832a81323b3c8f9,61036ee77388e7c156ebdc33,2021-07-29_23h18.40.295,Simcolourproject_2stim_asymm_v5,2020.2.10,Win32,60,61025ae37ef11b136ea224fe,,,,,,,,,2465,46,85,1,0,0,response1disk,,7,-1,5,1,0,0,rectangle,-75,-46,1,0,0,0,0,1,0,0,0,2,2,108,1,,response5disk_3,TRUE,2,2,"[230,61,262,322,152,251,5,187,204,3,269,158,218,158,112,6,125,265,50,25]",2.3672,rectangle
,,,,,,,,,,,,,FF,,,,,,,,3.0051,,,,,,,,,,,,,,,,,,,,,,60fdd20d5832a81323b3c8f9,61036ee77388e7c156ebdc33,2021-07-29_23h18.40.295,Simcolourproject_2stim_asymm_v5,2020.2.10,Win32,60,61025ae37ef11b136ea224fe,,,,,,,,,1163,50,71,1,0,0,response1disk,,7,-6,-2,1,0,0,rectangle,-6,-2,1,0,0,-6,-2,1,0,0,0,3,3,140,1,,,,,,,,
,,,,,,,,,,,,,FF,,,,,,,,1.9172,,,,,,,,,,,,,,,,,,,,,,60fdd20d5832a81323b3c8f9,61036ee77388e7c156ebdc33,2021-07-29_23h18.40.295,Simcolourproject_2stim_asymm_v5,2020.2.10,Win32,60,61025ae37ef11b136ea224fe,,,,,,,,,3389,-89,39,1,0,0,response7disk,,1,-1,3,1,0,0,rectangle,-86,-49,1,0,0,-2,2,1,0,0,0,4,4,105,1,,response5disk_3,TRUE,2,2,"[230,61,262,322,152,251,5,187,204,3,269,158,218,158,112,6,125,265,50,25]",2.2999,rectangle
,,,,,,,,,,,,,FF,,,,,,,,4.767,,,,,,,,,,,,,,,,,,,,,,60fdd20d5832a81323b3c8f9,61036ee77388e7c156ebdc33,2021-07-29_23h18.40.295,Simcolourproject_2stim_asymm_v5,2020.2.10,Win32,60,61025ae37ef11b136ea224fe,,,,,,,,,2710,81,-25,1,0,0,response3disk,,5,0,-2,1,0,0,rectangle,-60,41,1,0,0,-2,-3,1,0,0,0,5,5,53,1,,response7disk_3,TRUE,1,1,"[230,61,262,322,152,251,5,187,204,3,269,158,218,158,112,6,125,265,50,25]",1.7332,rectangle
,,,,,,,,,,,,,FF,,,,,,,,3.2503,,,,,,,,,,,,,,,,,,,,,,60fdd20d5832a81323b3c8f9,61036ee77388e7c156ebdc33,2021-07-29_23h18.40.295,Simcolourproject_2stim_asymm_v5,2020.2.10,Win32,60,61025ae37ef11b136ea224fe,,,,,,,,,4345,-61,-40,1,0,0,response5disk,,2,-2,1,1,0,0,rectangle,-2,1,1,0,0,-2,1,1,0,0,0,6,6,119,1,,,,,,,,
,,,,,,,,,,,,,FF,,,,,,,,3.3339,,,,,,,,,,,,,,,,,,,,,,60fdd20d5832a81323b3c8f9,61036ee77388e7c156ebdc33,2021-07-29_23h18.40.295,Simcolourproject_2stim_asymm_v5,2020.2.10,Win32,60,61025ae37ef11b136ea224fe,,,,,,,,,3303,26,-84,1,0,0,response3disk,,4,1,-2,1,0,0,rectangle,1,-2,1,0,0,1,-2,1,0,0,0,7,7,81,1,,,,,,,,
,,,,,,,,,,,,,FF,,,,,,,,4.7142,,,,,,,,,,,,,,,,,,,,,,60fdd20d5832a81323b3c8f9,61036ee77388e7c156ebdc33,2021-07-29_23h18.40.295,Simcolourproject_2stim_asymm_v5,2020.2.10,Win32,60,61025ae37ef11b136ea224fe,,,,,,,,,796,37,-68,1,0,0,response3disk,,4,2,-5,1,0,0,rectangle,2,-5,1,0,0,2,-5,1,0,0,0,8,8,65,1,,,,,,,,
,,,,,,,,,,,,,FF,,,,,,,,2.3008,,,,,,,,,,,,,,,,,,,,,,60fdd20d5832a81323b3c8f9,61036ee77388e7c156ebdc33,2021-07-29_23h18.40.295,Simcolourproject_2stim_asymm_v5,2020.2.10,Win32,60,61025ae37ef11b136ea224fe,,,,,,,,,2534,77,-28,1,0,0,response3disk,,5,-6,-3,1,0,0,rectangle,-6,-3,1,0,0,-6,-3,1,0,0,0,9,9,137,1,,,,,,,,
,,,,,,,,,,,,,FF,,,,,,,,4.3005,,,,,,,,,,,,,,,,,,,,,,60fdd20d5832a81323b3c8f9,61036ee77388e7c156ebdc33,2021-07-29_23h18.40.295,Simcolourproject_2stim_asymm_v5,2020.2.10,Win32,60,61025ae37ef11b136ea224fe,,,,,,,,,1412,52,90,1,0,0,response1disk,,7,-6,2,1,0,0,rectangle,-6,2,1,0,0,-6,2,1,0,0,0,10,10,39,1,,,,,,,,
,,,,,,,,,,,,,FF,,,,,,,,1.6669,,,,,,,,,,,,,,,,,,,,,,60fdd20d5832a81323b3c8f9,61036ee77388e7c156ebdc33,2021-07-29_23h18.40.295,Simcolourproject_2stim_asymm_v5,2020.2.10,Win32,60,61025ae37ef11b136ea224fe,,,,,,,,,1962,-52,-75,1,0,0,response5disk,,3,2,-3,1,0,0,rectangle,2,-3,1,0,0,2,-3,1,0,0,0,11,11,22,1,,,,,,,,
,,,,,,,,,,,,,FF,,,,,,,,1.9506,,,,,,,,,,,,,,,,,,,,,,60fdd20d5832a81323b3c8f9,61036ee77388e7c156ebdc33,2021-07-29_23h18.40.295,Simcolourproject_2stim_asymm_v5,2020.2.10,Win32,60,61025ae37ef11b136ea224fe,,,,,,,,,2159,47,25,1,0,0,response1disk,,6,10,4,1,0,0,rectangle,10,4,1,0,0,10,4,1,0,0,0,12,12,138,1,,,,,,,,
,,,,,,,,,,,,,FF,,,,,,,,1.4169,,,,,,,,,,,,,,,,,,,,,,60fdd20d5832a81323b3c8f9,61036ee77388e7c156ebdc33,2021-07-29_23h18.40.295,Simcolourproject_2stim_asymm_v5,2020.2.10,Win32,60,61025ae37ef11b136ea224fe,,,,,,,,,3865,36,57,1,0,0,response1disk,,7,-6,-5,1,0,0,rectangle,-6,-5,1,0,0,-6,-5,1,0,0,0,13,13,83,1,,,,,,,,
,,,,,,,,,,,,,FF,,,,,,,,1.2838,,,,,,,,,,,,,,,,,,,,,,60fdd20d5832a81323b3c8f9,61036ee77388e7c156ebdc33,2021-07-29_23h18.40.295,Simcolourproject_2stim_asymm_v5,2020.2.10,Win32,60,61025ae37ef11b136ea224fe,,,,,,,,,4069,28,55,1,0,0,response1disk,,7,-4,0,1,0,0,rectangle,-4,0,1,0,0,-4,0,1,0,0,0,14,14,128,1,,,,,,,,
,,,,,,,,,,,,,FF,,,,,,,,4.7169,,,,,,,,,,,,,,,,,,,,,,60fdd20d5832a81323b3c8f9,61036ee77388e7c156ebdc33,2021-07-29_23h18.40.295,Simcolourproject_2stim_asymm_v5,2020.2.10,Win32,60,61025ae37ef11b136ea224fe,,,,,,,,,3420,46,-66,1,0,0,response3disk,,4,3,-6,1,0,0,rectangle,3,-6,1,0,0,3,-6,1,0,0,0,15,15,55,1,,,,,,,,
,,,,,,,,,,,,,FF,,,,,,,,1.5171,,,,,,,,,,,,,,,,,,,,,,60fdd20d5832a81323b3c8f9,61036ee77388e7c156ebdc33,2021-07-29_23h18.40.295,Simcolourproject_2stim_asymm_v5,2020.2.10,Win32,60,61025ae37ef11b136ea224fe,,,,,,,,,2698,69,53,1,0,0,response1disk,,6,-7,-1,1,0,0,rectangle,-7,-1,1,0,0,-7,-1,1,0,0,0,16,16,78,1,,,,,,,,
,,,,,,,,,,,,,FF,,,,,,,,0.7839,,,,,,,,,,,,,,,,,,,,,,60fdd20d5832a81323b3c8f9,61036ee77388e7c156ebdc33,2021-07-29_23h18.40.295,Simcolourproject_2stim_asymm_v5,2020.2.10,Win32,60,61025ae37ef11b136ea224fe,,,,,,,,,2973,44,80,1,0,0,response1disk,,7,1,4,1,0,0,rectangle,1,4,1,0,0,1,4,1,0,0,0,17,17,154,1,,,,,,,,
,,,,,,,,,,,,,FF,,,,,,,,2.1508,,,,,,,,,,,,,,,,,,,,,,60fdd20d5832a81323b3c8f9,61036ee77388e7c156ebdc33,2021-07-29_23h18.40.295,Simcolourproject_2stim_asymm_v5,2020.2.10,Win32,60,61025ae37ef11b136ea224fe,,,,,,,,,792,32,65,1,0,0,response1disk,,7,-15,1,1,0,0,rectangle,-15,1,1,0,0,-15,1,1,0,0,0,18,18,5,1,,,,,,,,
,,,,,,,,,,,,,FF,,,,,,,,2.4994,,,,,,,,,,,,,,,,,,,,,,60fdd20d5832a81323b3c8f9,61036ee77388e7c156ebdc33,2021-07-29_23h18.40.295,Simcolourproject_2stim_asymm_v5,2020.2.10,Win32,60,61025ae37ef11b136ea224fe,,,,,,,,,3742,-76,23,1,0,0,response7disk,,1,-3,2,1,0,0,rectangle,-3,2,1,0,0,-3,2,1,0,0,0,19,19,117,1,,,,,,,,
,,,,,,,,,,,,,FF,,,,,,,,1.5006,,,,,,,,,,,,,,,,,,,,,,60fdd20d5832a81323b3c8f9,61036ee77388e7c156ebdc33,2021-07-29_23h18.40.295,Simcolourproject_2stim_asymm_v5,2020.2.10,Win32,60,61025ae37ef11b136ea224fe,,,,,,,,,424,-41,-75,1,0,0,response5disk,,3,-4,-6,1,0,0,rectangle,-4,-6,1,0,0,-4,-6,1,0,0,0,20,20,69,1,,,,,,,,
,,,,,,,,,,,,,FF,,,,,,,,1.6999,,,,,,,,,,,,,,,,,,,,,,60fdd20d5832a81323b3c8f9,61036ee77388e7c156ebdc33,2021-07-29_23h18.40.295,Simcolourproject_2stim_asymm_v5,2020.2.10,Win32,60,61025ae37ef11b136ea224fe,,,,,,,,,1982,79,31,1,0,0,response1disk,,6,5,1,1,0,0,rectangle,5,1,1,0,0,5,1,1,0,0,0,21,21,147,1,,,,,,,,
,,,,,,,,,,,,,FF,,,,,,,,2.3334,,,,,,,,,,,,,,,,,,,,,,60fdd20d5832a81323b3c8f9,61036ee77388e7c156ebdc33,2021-07-29_23h18.40.295,Simcolourproject_2stim_asymm_v5,2020.2.10,Win32,60,61025ae37ef11b136ea224fe,,,,,,,,,173,-91,-48,1,0,0,response5disk,,2,1,1,1,0,0,rectangle,1,1,1,0,0,1,1,1,0,0,0,22,22,134,1,,,,,,,,
,,,,,,,,,,,,,FF,,,,,,,,1.0844,,,,,,,,,,,,,,,,,,,,,,60fdd20d5832a81323b3c8f9,61036ee77388e7c156ebdc33,2021-07-29_23h18.40.295,Simcolourproject_2stim_asymm_v5,2020.2.10,Win32,60,61025ae37ef11b136ea224fe,,,,,,,,,3016,45,71,1,0,0,response1disk,,7,-5,6,1,0,0,rectangle,-5,6,1,0,0,-5,6,1,0,0,0,23,23,63,1,,,,,,,,
,,,,,,,,,,,,,FF,,,,,,,,1.7332,,,,,,,,,,,,,,,,,,,,,,60fdd20d5832a81323b3c8f9,61036ee77388e7c156ebdc33,2021-07-29_23h18.40.295,Simcolourproject_2stim_asymm_v5,2020.2.10,Win32,60,61025ae37ef11b136ea224fe,,,,,,,,,4121,-79,-33,1,0,0,response5disk,,2,0,1,1,0,0,rectangle,-66,-40,1,0,0,1,-1,1,0,0,0,24,24,150,1,,response5disk_3,TRUE,2,2,"[230,61,262,322,152,251,5,187,204,3,269,158,218,158,112,6,125,265,50,25]",1.85,rectangle
,,,,,,,,,,,,,FF,,,,,,,,1.8346,,,,,,,,,,,,,,,,,,,,,,60fdd20d5832a81323b3c8f9,61036ee77388e7c156ebdc33,2021-07-29_23h18.40.295,Simcolourproject_2stim_asymm_v5,2020.2.10,Win32,60,61025ae37ef11b136ea224fe,,,,,,,,,1313,-36,-65,1,0,0,response5disk,,3,1,-5,1,0,0,rectangle,1,-5,1,0,0,1,-5,1,0,0,0,25,25,103,1,,,,,,,,
,,,,,,,,,,,,,FF,,,,,,,,1.2507,,,,,,,,,,,,,,,,,,,,,,60fdd20d5832a81323b3c8f9,61036ee77388e7c156ebdc33,2021-07-29_23h18.40.295,Simcolourproject_2stim_asymm_v5,2020.2.10,Win32,60,61025ae37ef11b136ea224fe,,,,,,,,,3993,-54,37,1,0,0,response7disk,,1,7,0,1,0,0,rectangle,7,0,1,0,0,7,0,1,0,0,0,26,26,97,1,,,,,,,,
,,,,,,,,,,,,,FF,,,,,,,,0.8182,,,,,,,,,,,,,,,,,,,,,,60fdd20d5832a81323b3c8f9,61036ee77388e7c156ebdc33,2021-07-29_23h18.40.295,Simcolourproject_2stim_asymm_v5,2020.2.10,Win32,60,61025ae37ef11b136ea224fe,,,,,,,,,4369,-31,57,1,0,0,response7disk,,0,-2,0,1,0,0,rectangle,-2,0,1,0,0,-2,0,1,0,0,0,27,27,71,1,,,,,,,,
,,,,,,,,,,,,,FF,,,,,,,,1.397,,,,,,,,,,,,,,,,,,,,,,60fdd20d5832a81323b3c8f9,61036ee77388e7c156ebdc33,2021-07-29_23h18.40.295,Simcolourproject_2stim_asymm_v5,2020.2.10,Win32,60,61025ae37ef11b136ea224fe,,,,,,,,,311,74,25,1,0,0,response1disk,,6,1,3,1,0,0,rectangle,1,3,1,0,0,1,3,1,0,0,0,28,28,153,1,,,,,,,,
,,,,,,,,,,,,,FF,,,,,,,,2.6676,,,,,,,,,,,,,,,,,,,,,,60fdd20d5832a81323b3c8f9,61036ee77388e7c156ebdc33,2021-07-29_23h18.40.295,Simcolourproject_2stim_asymm_v5,2020.2.10,Win32,60,61025ae37ef11b136ea224fe,,,,,,,,,2896,76,-31,1,0,0,response3disk,,5,-3,1,1,0,0,rectangle,-3,1,1,0,0,-3,1,1,0,0,0,29,29,30,1,,,,,,,,
,,,,,,,,,,,,,FF,,,,,,,,1.5838,,,,,,,,,,,,,,,,,,,,,,60fdd20d5832a81323b3c8f9,61036ee77388e7c156ebdc33,2021-07-29_23h18.40.295,Simcolourproject_2stim_asymm_v5,2020.2.10,Win32,60,61025ae37ef11b136ea224fe,,,,,,,,,2359,-33,-66,1,0,0,response5disk,,3,-1,2,1,0,0,rectangle,-1,2,1,0,0,-1,2,1,0,0,0,30,30,26,1,,,,,,,,
,,,,,,,,,,,,,FF,,,,,,,,1.795,,,,,,,,,,,,,,,,,,,,,,60fdd20d5832a81323b3c8f9,61036ee77388e7c156ebdc33,2021-07-29_23h18.40.295,Simcolourproject_2stim_asymm_v5,2020.2.10,Win32,60,61025ae37ef11b136ea224fe,,,,,,,,,2284,-33,-55,1,0,0,response5disk,,3,0,2,1,0,0,rectangle,0,2,1,0,0,0,2,1,0,0,0,31,31,14,1,,,,,,,,
,,,,,,,,,,,,,FF,,,,,,,,3.2829,,,,,,,,,,,,,,,,,,,,,,60fdd20d5832a81323b3c8f9,61036ee77388e7c156ebdc33,2021-07-29_23h18.40.295,Simcolourproject_2stim_asymm_v5,2020.2.10,Win32,60,61025ae37ef11b136ea224fe,,,,,,,,,4114,24,-60,1,0,0,response3disk,,4,-1,-5,1,0,0,rectangle,-1,-5,1,0,0,-1,-5,1,0,0,0,32,32,29,1,,,,,,,,
,,,,,,,,,,,,,FF,,,,,,,,1.7173,,,,,,,,,,,,,,,,,,,,,,60fdd20d5832a81323b3c8f9,61036ee77388e7c156ebdc33,2021-07-29_23h18.40.295,Simcolourproject_2stim_asymm_v5,2020.2.10,Win32,60,61025ae37ef11b136ea224fe,,,,,,,,,975,-30,-56,1,0,0,response5disk,,3,1,-1,1,0,0,rectangle,1,-1,1,0,0,1,-1,1,0,0,0,33,33,94,1,,,,,,,,
,,,,,,,,,,,,,FF,,,,,,,,1.7004,,,,,,,,,,,,,,,,,,,,,,60fdd20d5832a81323b3c8f9,61036ee77388e7c156ebdc33,2021-07-29_23h18.40.295,Simcolourproject_2stim_asymm_v5,2020.2.10,Win32,60,61025ae37ef11b136ea224fe,,,,,,,,,4298,-32,-57,1,0,0,response5disk,,3,6,9,1,0,0,rectangle,6,9,1,0,0,6,9,1,0,0,0,34,34,106,1,,,,,,,,
,,,,,,,,,,,,,FF,,,,,,,,2.4664,,,,,,,,,,,,,,,,,,,,,,60fdd20d5832a81323b3c8f9,61036ee77388e7c156ebdc33,2021-07-29_23h18.40.295,Simcolourproject_2stim_asymm_v5,2020.2.10,Win32,60,61025ae37ef11b136ea224fe,,,,,,,,,270,35,-69,1,0,0,response3disk,,4,-1,1,1,0,0,rectangle,-1,1,1,0,0,-1,1,1,0,0,0,35,35,159,1,,,,,,,,
,,,,,,,,,,,,,FF,,,,,,,,2.7338,,,,,,,,,,,,,,,,,,,,,,60fdd20d5832a81323b3c8f9,61036ee77388e7c156ebdc33,2021-07-29_23h18.40.295,Simcolourproject_2stim_asymm_v5,2020.2.10,Win32,60,61025ae37ef11b136ea224fe,,,,,,,,,160,73,-30,1,0,0,response3disk,,5,-4,4,1,0,0,rectangle,-4,4,1,0,0,-4,4,1,0,0,0,36,36,32,1,,,,,,,,
,,,,,,,,,,,,,FF,,,,,,,,1.3338,,,,,,,,,,,,,,,,,,,,,,60fdd20d5832a81323b3c8f9,61036ee77388e7c156ebdc33,2021-07-29_23h18.40.295,Simcolourproject_2stim_asymm_v5,2020.2.10,Win32,60,61025ae37ef11b136ea224fe,,,,,,,,,163,94,-38,1,0,0,response3disk,,5,0,3,1,0,0,rectangle,0,3,1,0,0,0,3,1,0,0,0,37,37,43,1,,,,,,,,
,,,,,,,,,,,,,FF,,,,,,,,1.0173,,,,,,,,,,,,,,,,,,,,,,60fdd20d5832a81323b3c8f9,61036ee77388e7c156ebdc33,2021-07-29_23h18.40.295,Simcolourproject_2stim_asymm_v5,2020.2.10,Win32,60,61025ae37ef11b136ea224fe,,,,,,,,,3500,60,42,1,0,0,response1disk,,6,0,-3,1,0,0,rectangle,0,-3,1,0,0,0,-3,1,0,0,0,38,38,42,1,,,,,,,,
,,,,,,,,,,,,,FF,,,,,,,,1.163,,,,,,,,,,,,,,,,,,,,,,60fdd20d5832a81323b3c8f9,61036ee77388e7c156ebdc33,2021-07-29_23h18.40.295,Simcolourproject_2stim_asymm_v5,2020.2.10,Win32,60,61025ae37ef11b136ea224fe,,,,,,,,,3148,-64,25,1,0,0,response7disk,,1,0,-2,1,0,0,rectangle,0,-2,1,0,0,0,-2,1,0,0,0,39,39,133,1,,,,,,,,
,,,,,,,,,,,,,FF,,,,,,,,2.1476,,,,,,,,,,,,,,,,,,,,,,60fdd20d5832a81323b3c8f9,61036ee77388e7c156ebdc33,2021-07-29_23h18.40.295,Simcolourproject_2stim_asymm_v5,2020.2.10,Win32,60,61025ae37ef11b136ea224fe,,,,,,,,,3687,58,51,1,0,0,response1disk,,6,12,8,1,0,0,rectangle,12,8,1,0,0,12,8,1,0,0,0,40,40,16,1,,,,,,,,
,,,,,,,,,,,,,FF,,,,,,,,1.2177,,,,,,,,,,,,,,,,,,,,,,60fdd20d5832a81323b3c8f9,61036ee77388e7c156ebdc33,2021-07-29_23h18.40.295,Simcolourproject_2stim_asymm_v5,2020.2.10,Win32,60,61025ae37ef11b136ea224fe,,,,,,,,,4362,-30,49,1,0,0,response7disk,,0,2,-4,1,0,0,rectangle,2,-4,1,0,0,2,-4,1,0,0,0,41,41,84,1,,,,,,,,
,,,,,,,,,,,,,FF,,,,,,,,1.0178,,,,,,,,,,,,,,,,,,,,,,60fdd20d5832a81323b3c8f9,61036ee77388e7c156ebdc33,2021-07-29_23h18.40.295,Simcolourproject_2stim_asymm_v5,2020.2.10,Win32,60,61025ae37ef11b136ea224fe,,,,,,,,,3032,40,68,1,0,0,response1disk,,7,-10,-3,1,0,0,rectangle,-10,-3,1,0,0,-10,-3,1,0,0,0,42,42,112,1,,,,,,,,
,,,,,,,,,,,,,FF,,,,,,,,1.4032,,,,,,,,,,,,,,,,,,,,,,60fdd20d5832a81323b3c8f9,61036ee77388e7c156ebdc33,2021-07-29_23h18.40.295,Simcolourproject_2stim_asymm_v5,2020.2.10,Win32,60,61025ae37ef11b136ea224fe,,,,,,,,,726,-63,-30,1,0,0,response5disk,,2,-13,-1,1,0,0,rectangle,-13,-1,1,0,0,-13,-1,1,0,0,0,43,43,3,1,,,,,,,,
,,,,,,,,,,,,,FF,,,,,,,,1.764,,,,,,,,,,,,,,,,,,,,,,60fdd20d5832a81323b3c8f9,61036ee77388e7c156ebdc33,2021-07-29_23h18.40.295,Simcolourproject_2stim_asymm_v5,2020.2.10,Win32,60,61025ae37ef11b136ea224fe,,,,,,,,,3277,52,67,1,0,0,response1disk,,7,0,5,1,0,0,rectangle,0,5,1,0,0,0,5,1,0,0,0,44,44,0,1,,,,,,,,
,,,,,,,,,,,,,FF,,,,,,,,0.9822,,,,,,,,,,,,,,,,,,,,,,60fdd20d5832a81323b3c8f9,61036ee77388e7c156ebdc33,2021-07-29_23h18.40.295,Simcolourproject_2stim_asymm_v5,2020.2.10,Win32,60,61025ae37ef11b136ea224fe,,,,,,,,,3705,-22,53,1,0,0,response7disk,,0,1,7,1,0,0,rectangle,1,7,1,0,0,1,7,1,0,0,0,45,45,139,1,,,,,,,,
,,,,,,,,,,,,,FF,,,,,,,,2.3012,,,,,,,,,,,,,,,,,,,,,,60fdd20d5832a81323b3c8f9,61036ee77388e7c156ebdc33,2021-07-29_23h18.40.295,Simcolourproject_2stim_asymm_v5,2020.2.10,Win32,60,61025ae37ef11b136ea224fe,,,,,,,,,3051,30,-56,1,0,0,response3disk,,4,0,-2,1,0,0,rectangle,0,-2,1,0,0,0,-2,1,0,0,0,46,46,31,1,,,,,,,,
,,,,,,,,,,,,,FF,,,,,,,,1.6717,,,,,,,,,,,,,,,,,,,,,,60fdd20d5832a81323b3c8f9,61036ee77388e7c156ebdc33,2021-07-29_23h18.40.295,Simcolourproject_2stim_asymm_v5,2020.2.10,Win32,60,61025ae37ef11b136ea224fe,,,,,,,,,869,34,-52,1,0,0,response3disk,,4,9,-1,1,0,0,rectangle,9,-1,1,0,0,9,-1,1,0,0,0,47,47,74,1,,,,,,,,
,,,,,,,,,,,,,FF,,,,,,,,1.6118,,,,,,,,,,,,,,,,,,,,,,60fdd20d5832a81323b3c8f9,61036ee77388e7c156ebdc33,2021-07-29_23h18.40.295,Simcolourproject_2stim_asymm_v5,2020.2.10,Win32,60,61025ae37ef11b136ea224fe,,,,,,,,,369,-32,-77,1,0,0,response5disk,,3,-6,3,1,0,0,rectangle,-6,3,1,0,0,-6,3,1,0,0,0,48,48,35,1,,,,,,,,
,,,,,,,,,,,,,FF,,,,,,,,1.7842,,,,,,,,,,,,,,,,,,,,,,60fdd20d5832a81323b3c8f9,61036ee77388e7c156ebdc33,2021-07-29_23h18.40.295,Simcolourproject_2stim_asymm_v5,2020.2.10,Win32,60,61025ae37ef11b136ea224fe,,,,,,,,,3067,69,-38,1,0,0,response3disk,,5,0,1,1,0,0,rectangle,90,40,1,0,0,-2,-3,1,0,0,0,49,49,24,1,,response1disk_3,TRUE,6,6,"[230,61,262,322,152,251,5,187,204,3,269,158,218,158,112,6,125,265,50,25]",2.0014,rectangle
,,,,,,,,,,,,,FF,,,,,,,,2.167,,,,,,,,,,,,,,,,,,,,,,60fdd20d5832a81323b3c8f9,61036ee77388e7c156ebdc33,2021-07-29_23h18.40.295,Simcolourproject_2stim_asymm_v5,2020.2.10,Win32,60,61025ae37ef11b136ea224fe,,,,,,,,,1032,59,50,1,0,0,response1disk,,6,5,3,1,0,0,rectangle,5,3,1,0,0,5,3,1,0,0,0,50,50,92,1,,,,,,,,
,,,,,,,,,,,,,FF,,,,,,,,1.5672,,,,,,,,,,,,,,,,,,,,,,60fdd20d5832a81323b3c8f9,61036ee77388e7c156ebdc33,2021-07-29_23h18.40.295,Simcolourproject_2stim_asymm_v5,2020.2.10,Win32,60,61025ae37ef11b136ea224fe,,,,,,,,,915,-27,-52,1,0,0,response5disk,,3,3,1,1,0,0,rectangle,3,1,1,0,0,3,1,1,0,0,0,51,51,104,1,,,,,,,,
,,,,,,,,,,,,,FF,,,,,,,,1.3378,,,,,,,,,,,,,,,,,,,,,,60fdd20d5832a81323b3c8f9,61036ee77388e7c156ebdc33,2021-07-29_23h18.40.295,Simcolourproject_2stim_asymm_v5,2020.2.10,Win32,60,61025ae37ef11b136ea224fe,,,,,,,,,2026,-50,-30,1,0,0,response5disk,,2,0,5,1,0,0,rectangle,0,5,1,0,0,0,5,1,0,0,0,52,52,33,1,,,,,,,,
,,,,,,,,,,,,,FF,,,,,,,,1.4472,,,,,,,,,,,,,,,,,,,,,,60fdd20d5832a81323b3c8f9,61036ee77388e7c156ebdc33,2021-07-29_23h18.40.295,Simcolourproject_2stim_asymm_v5,2020.2.10,Win32,60,61025ae37ef11b136ea224fe,,,,,,,,,2053,45,-79,1,0,0,response3disk,,4,-2,-3,1,0,0,rectangle,-2,-3,1,0,0,-2,-3,1,0,0,0,53,53,99,1,,,,,,,,
,,,,,,,,,,,,,FF,,,,,,,,1.551,,,,,,,,,,,,,,,,,,,,,,60fdd20d5832a81323b3c8f9,61036ee77388e7c156ebdc33,2021-07-29_23h18.40.295,Simcolourproject_2stim_asymm_v5,2020.2.10,Win32,60,61025ae37ef11b136ea224fe,,,,,,,,,1021,41,68,1,0,0,response1disk,,7,-6,-1,1,0,0,rectangle,-6,-1,1,0,0,-6,-1,1,0,0,0,54,54,59,1,,,,,,,,
,,,,,,,,,,,,,FF,,,,,,,,1.6172,,,,,,,,,,,,,,,,,,,,,,60fdd20d5832a81323b3c8f9,61036ee77388e7c156ebdc33,2021-07-29_23h18.40.295,Simcolourproject_2stim_asymm_v5,2020.2.10,Win32,60,61025ae37ef11b136ea224fe,,,,,,,,,435,83,23,1,0,0,response1disk,,6,-3,4,1,0,0,rectangle,-3,4,1,0,0,-3,4,1,0,0,0,55,55,98,1,,,,,,,,
,,,,,,,,,,,,,FF,,,,,,,,1.0504,,,,,,,,,,,,,,,,,,,,,,60fdd20d5832a81323b3c8f9,61036ee77388e7c156ebdc33,2021-07-29_23h18.40.295,Simcolourproject_2stim_asymm_v5,2020.2.10,Win32,60,61025ae37ef11b136ea224fe,,,,,,,,,723,-32,-60,1,0,0,response5disk,,3,-1,-5,1,0,0,rectangle,-1,-5,1,0,0,-1,-5,1,0,0,0,56,56,34,1,,,,,,,,
,,,,,,,,,,,,,FF,,,,,,,,1.1005,,,,,,,,,,,,,,,,,,,,,,60fdd20d5832a81323b3c8f9,61036ee77388e7c156ebdc33,2021-07-29_23h18.40.295,Simcolourproject_2stim_asymm_v5,2020.2.10,Win32,60,61025ae37ef11b136ea224fe,,,,,,,,,2300,-55,-24,1,0,0,response5disk,,2,-4,1,1,0,0,rectangle,-4,1,1,0,0,-4,1,1,0,0,0,57,57,148,1,,,,,,,,
,,,,,,,,,,,,,FF,,,,,,,,1.5502,,,,,,,,,,,,,,,,,,,,,,60fdd20d5832a81323b3c8f9,61036ee77388e7c156ebdc33,2021-07-29_23h18.40.295,Simcolourproject_2stim_asymm_v5,2020.2.10,Win32,60,61025ae37ef11b136ea224fe,,,,,,,,,3415,42,56,1,0,0,response1disk,,7,7,2,1,0,0,rectangle,7,2,1,0,0,7,2,1,0,0,0,58,58,132,1,,,,,,,,
,,,,,,,,,,,,,FF,,,,,,,,2.0672,,,,,,,,,,,,,,,,,,,,,,60fdd20d5832a81323b3c8f9,61036ee77388e7c156ebdc33,2021-07-29_23h18.40.295,Simcolourproject_2stim_asymm_v5,2020.2.10,Win32,60,61025ae37ef11b136ea224fe,,,,,,,,,287,38,-58,1,0,0,response3disk,,4,-4,0,1,0,0,rectangle,-4,0,1,0,0,-4,0,1,0,0,0,59,59,107,1,,,,,,,,
,,,,,,,,,,,,,FF,,,,,,,,3.6338,,,,,,,,,,,,,,,,,,,,,,60fdd20d5832a81323b3c8f9,61036ee77388e7c156ebdc33,2021-07-29_23h18.40.295,Simcolourproject_2stim_asymm_v5,2020.2.10,Win32,60,61025ae37ef11b136ea224fe,,,,,,,,,1975,68,-34,1,0,0,response3disk,,5,-1,1,1,0,0,rectangle,61,-40,1,0,0,4,-3,1,0,0,0,60,60,135,1,,response3disk_3,TRUE,5,5,"[230,61,262,322,152,251,5,187,204,3,269,158,218,158,112,6,125,265,50,25]",1.7647,rectangle
,,,,,,,,,,,,,FF,,,,,,,,4.9672,,,,,,,,,,,,,,,,,,,,,,60fdd20d5832a81323b3c8f9,61036ee77388e7c156ebdc33,2021-07-29_23h18.40.295,Simcolourproject_2stim_asymm_v5,2020.2.10,Win32,60,61025ae37ef11b136ea224fe,,,,,,,,,4224,-21,-79,1,0,0,response5disk,,3,4,0,1,0,0,rectangle,4,0,1,0,0,4,0,1,0,0,0,61,61,21,1,,,,,,,,
,,,,,,,,,,,,,FF,,,,,,,,1.6014,,,,,,,,,,,,,,,,,,,,,,60fdd20d5832a81323b3c8f9,61036ee77388e7c156ebdc33,2021-07-29_23h18.40.295,Simcolourproject_2stim_asymm_v5,2020.2.10,Win32,60,61025ae37ef11b136ea224fe,,,,,,,,,1873,40,47,1,0,0,response1disk,,7,-5,0,1,0,0,rectangle,-5,0,1,0,0,-5,0,1,0,0,0,62,62,157,1,,,,,,,,
,,,,,,,,,,,,,FF,,,,,,,,2.2008,,,,,,,,,,,,,,,,,,,,,,60fdd20d5832a81323b3c8f9,61036ee77388e7c156ebdc33,2021-07-29_23h18.40.295,Simcolourproject_2stim_asymm_v5,2020.2.10,Win32,60,61025ae37ef11b136ea224fe,,,,,,,,,3401,-53,-86,1,0,0,response5disk,,3,3,4,1,0,0,rectangle,3,4,1,0,0,3,4,1,0,0,0,63,63,100,1,,,,,,,,
,,,,,,,,,,,,,FF,,,,,,,,1.535,,,,,,,,,,,,,,,,,,,,,,60fdd20d5832a81323b3c8f9,61036ee77388e7c156ebdc33,2021-07-29_23h18.40.295,Simcolourproject_2stim_asymm_v5,2020.2.10,Win32,60,61025ae37ef11b136ea224fe,,,,,,,,,1052,-70,-34,1,0,0,response5disk,,2,-8,-6,1,0,0,rectangle,-8,-6,1,0,0,-8,-6,1,0,0,0,64,64,51,1,,,,,,,,
,,,,,,,,,,,,,FF,,,,,,,,4.4508,,,,,,,,,,,,,,,,,,,,,,60fdd20d5832a81323b3c8f9,61036ee77388e7c156ebdc33,2021-07-29_23h18.40.295,Simcolourproject_2stim_asymm_v5,2020.2.10,Win32,60,61025ae37ef11b136ea224fe,,,,,,,,,127,77,32,1,0,0,response1disk,,6,14,7,1,0,0,rectangle,14,7,1,0,0,14,7,1,0,0,0,65,65,87,1,,,,,,,,
,,,,,,,,,,,,,FF,,,,,,,,1.7339,,,,,,,,,,,,,,,,,,,,,,60fdd20d5832a81323b3c8f9,61036ee77388e7c156ebdc33,2021-07-29_23h18.40.295,Simcolourproject_2stim_asymm_v5,2020.2.10,Win32,60,61025ae37ef11b136ea224fe,,,,,,,,,2825,-69,26,1,0,0,response7disk,,1,5,-2,1,0,0,rectangle,5,-2,1,0,0,5,-2,1,0,0,0,66,66,122,1,,,,,,,,
,,,,,,,,,,,,,FF,,,,,,,,1.4869,,,,,,,,,,,,,,,,,,,,,,60fdd20d5832a81323b3c8f9,61036ee77388e7c156ebdc33,2021-07-29_23h18.40.295,Simcolourproject_2stim_asymm_v5,2020.2.10,Win32,60,61025ae37ef11b136ea224fe,,,,,,,,,1986,74,-28,1,0,0,response3disk,,5,-1,2,1,0,0,rectangle,-1,2,1,0,0,-1,2,1,0,0,0,67,67,86,1,,,,,,,,
,,,,,,,,,,,,,FF,,,,,,,,1.7008,,,,,,,,,,,,,,,,,,,,,,60fdd20d5832a81323b3c8f9,61036ee77388e7c156ebdc33,2021-07-29_23h18.40.295,Simcolourproject_2stim_asymm_v5,2020.2.10,Win32,60,61025ae37ef11b136ea224fe,,,,,,,,,2595,77,-31,1,0,0,response3disk,,5,6,-2,1,0,0,rectangle,6,-2,1,0,0,6,-2,1,0,0,0,68,68,52,1,,,,,,,,
,,,,,,,,,,,,,FF,,,,,,,,1.3674,,,,,,,,,,,,,,,,,,,,,,60fdd20d5832a81323b3c8f9,61036ee77388e7c156ebdc33,2021-07-29_23h18.40.295,Simcolourproject_2stim_asymm_v5,2020.2.10,Win32,60,61025ae37ef11b136ea224fe,,,,,,,,,399,-35,-68,1,0,0,response5disk,,3,-1,-4,1,0,0,rectangle,-1,-4,1,0,0,-1,-4,1,0,0,0,69,69,7,1,,,,,,,,
,,,,,,,,,,,,,FF,,,,,,,,1.417,,,,,,,,,,,,,,,,,,,,,,60fdd20d5832a81323b3c8f9,61036ee77388e7c156ebdc33,2021-07-29_23h18.40.295,Simcolourproject_2stim_asymm_v5,2020.2.10,Win32,60,61025ae37ef11b136ea224fe,,,,,,,,,774,54,38,1,0,0,response1disk,,6,10,2,1,0,0,rectangle,10,2,1,0,0,10,2,1,0,0,0,70,70,15,1,,,,,,,,
,,,,,,,,,,,,,FF,,,,,,,,1.5176,,,,,,,,,,,,,,,,,,,,,,60fdd20d5832a81323b3c8f9,61036ee77388e7c156ebdc33,2021-07-29_23h18.40.295,Simcolourproject_2stim_asymm_v5,2020.2.10,Win32,60,61025ae37ef11b136ea224fe,,,,,,,,,2935,-39,-71,1,0,0,response5disk,,3,-4,-3,1,0,0,rectangle,-4,-3,1,0,0,-4,-3,1,0,0,0,71,71,82,1,,,,,,,,
,,,,,,,,,,,,,FF,,,,,,,,1.7677,,,,,,,,,,,,,,,,,,,,,,60fdd20d5832a81323b3c8f9,61036ee77388e7c156ebdc33,2021-07-29_23h18.40.295,Simcolourproject_2stim_asymm_v5,2020.2.10,Win32,60,61025ae37ef11b136ea224fe,,,,,,,,,3021,48,-79,1,0,0,response3disk,,4,3,-4,1,0,0,rectangle,3,-4,1,0,0,3,-4,1,0,0,0,72,72,146,1,,,,,,,,
,,,,,,,,,,,,,FF,,,,,,,,1.4012,,,,,,,,,,,,,,,,,,,,,,60fdd20d5832a81323b3c8f9,61036ee77388e7c156ebdc33,2021-07-29_23h18.40.295,Simcolourproject_2stim_asymm_v5,2020.2.10,Win32,60,61025ae37ef11b136ea224fe,,,,,,,,,326,53,31,1,0,0,response1disk,,6,-2,-4,1,0,0,rectangle,-2,-4,1,0,0,-2,-4,1,0,0,0,73,73,9,1,,,,,,,,
,,,,,,,,,,,,,FF,,,,,,,,1.4006,,,,,,,,,,,,,,,,,,,,,,60fdd20d5832a81323b3c8f9,61036ee77388e7c156ebdc33,2021-07-29_23h18.40.295,Simcolourproject_2stim_asymm_v5,2020.2.10,Win32,60,61025ae37ef11b136ea224fe,,,,,,,,,2941,-52,30,1,0,0,response7disk,,1,-12,2,1,0,0,rectangle,-12,2,1,0,0,-12,2,1,0,0,0,74,74,48,1,,,,,,,,
,,,,,,,,,,,,,FF,,,,,,,,1.1509,,,,,,,,,,,,,,,,,,,,,,60fdd20d5832a81323b3c8f9,61036ee77388e7c156ebdc33,2021-07-29_23h18.40.295,Simcolourproject_2stim_asymm_v5,2020.2.10,Win32,60,61025ae37ef11b136ea224fe,,,,,,,,,323,44,63,1,0,0,response1disk,,7,4,9,1,0,0,rectangle,4,9,1,0,0,4,9,1,0,0,0,75,75,85,1,,,,,,,,
,,,,,,,,,,,,,FF,,,,,,,,2.1506,,,,,,,,,,,,,,,,,,,,,,60fdd20d5832a81323b3c8f9,61036ee77388e7c156ebdc33,2021-07-29_23h18.40.295,Simcolourproject_2stim_asymm_v5,2020.2.10,Win32,60,61025ae37ef11b136ea224fe,,,,,,,,,3594,-27,-42,1,0,0,response5disk,,3,-8,1,1,0,0,rectangle,-8,1,1,0,0,-8,1,1,0,0,0,76,76,38,1,,,,,,,,
,,,,,,,,,,,,,FF,,,,,,,,0.8835,,,,,,,,,,,,,,,,,,,,,,60fdd20d5832a81323b3c8f9,61036ee77388e7c156ebdc33,2021-07-29_23h18.40.295,Simcolourproject_2stim_asymm_v5,2020.2.10,Win32,60,61025ae37ef11b136ea224fe,,,,,,,,,2215,36,61,1,0,0,response1disk,,7,9,0,1,0,0,rectangle,9,0,1,0,0,9,0,1,0,0,0,77,77,143,1,,,,,,,,
,,,,,,,,,,,,,FF,,,,,,,,1.6764,,,,,,,,,,,,,,,,,,,,,,60fdd20d5832a81323b3c8f9,61036ee77388e7c156ebdc33,2021-07-29_23h18.40.295,Simcolourproject_2stim_asymm_v5,2020.2.10,Win32,60,61025ae37ef11b136ea224fe,,,,,,,,,83,-27,-47,1,0,0,response5disk,,3,-1,-3,1,0,0,rectangle,-1,-3,1,0,0,-1,-3,1,0,0,0,78,78,131,1,,,,,,,,
,,,,,,,,,,,,,FF,,,,,,,,1.6003,,,,,,,,,,,,,,,,,,,,,,60fdd20d5832a81323b3c8f9,61036ee77388e7c156ebdc33,2021-07-29_23h18.40.295,Simcolourproject_2stim_asymm_v5,2020.2.10,Win32,60,61025ae37ef11b136ea224fe,,,,,,,,,2419,-61,-28,1,0,0,response5disk,,2,4,5,1,0,0,rectangle,4,5,1,0,0,4,5,1,0,0,0,79,79,13,1,,,,,,,,
,,,,,,,,,,,,,FF,,,,,,,,0.9679,,,,,,,,,,,,,,,,,,,,,,60fdd20d5832a81323b3c8f9,61036ee77388e7c156ebdc33,2021-07-29_23h18.40.295,Simcolourproject_2stim_asymm_v5,2020.2.10,Win32,60,61025ae37ef11b136ea224fe,,,,,,,,,3047,-54,27,1,0,0,response7disk,,1,-5,-1,1,0,0,rectangle,-5,-1,1,0,0,-5,-1,1,0,0,0,80,80,116,1,,,,,,,,
,,,,,,,,,,,,,FF,,,,,,,,1.6006,,,,,,,,,,,,,,,,,,,,,,60fdd20d5832a81323b3c8f9,61036ee77388e7c156ebdc33,2021-07-29_23h18.40.295,Simcolourproject_2stim_asymm_v5,2020.2.10,Win32,60,61025ae37ef11b136ea224fe,,,,,,,,,2382,45,-65,1,0,0,response3disk,,4,1,2,1,0,0,rectangle,1,2,1,0,0,1,2,1,0,0,0,81,81,91,1,,,,,,,,
,,,,,,,,,,,,,FF,,,,,,,,1.6004,,,,,,,,,,,,,,,,,,,,,,60fdd20d5832a81323b3c8f9,61036ee77388e7c156ebdc33,2021-07-29_23h18.40.295,Simcolourproject_2stim_asymm_v5,2020.2.10,Win32,60,61025ae37ef11b136ea224fe,,,,,,,,,4337,-59,-42,1,0,0,response5disk,,2,-3,-1,1,0,0,rectangle,-3,-1,1,0,0,-3,-1,1,0,0,0,82,82,151,1,,,,,,,,
,,,,,,,,,,,,,FF,,,,,,,,1.2501,,,,,,,,,,,,,,,,,,,,,,60fdd20d5832a81323b3c8f9,61036ee77388e7c156ebdc33,2021-07-29_23h18.40.295,Simcolourproject_2stim_asymm_v5,2020.2.10,Win32,60,61025ae37ef11b136ea224fe,,,,,,,,,2539,66,32,1,0,0,response1disk,,6,9,1,1,0,0,rectangle,9,1,1,0,0,9,1,1,0,0,0,83,83,76,1,,,,,,,,
,,,,,,,,,,,,,FF,,,,,,,,1.5846,,,,,,,,,,,,,,,,,,,,,,60fdd20d5832a81323b3c8f9,61036ee77388e7c156ebdc33,2021-07-29_23h18.40.295,Simcolourproject_2stim_asymm_v5,2020.2.10,Win32,60,61025ae37ef11b136ea224fe,,,,,,,,,2636,35,63,1,0,0,response1disk,,7,-14,-5,1,0,0,rectangle,-14,-5,1,0,0,-14,-5,1,0,0,0,84,84,114,1,,,,,,,,
,,,,,,,,,,,,,FF,,,,,,,,2.2005,,,,,,,,,,,,,,,,,,,,,,60fdd20d5832a81323b3c8f9,61036ee77388e7c156ebdc33,2021-07-29_23h18.40.295,Simcolourproject_2stim_asymm_v5,2020.2.10,Win32,60,61025ae37ef11b136ea224fe,,,,,,,,,1067,64,-45,1,0,0,response3disk,,5,-1,2,1,0,0,rectangle,-1,2,1,0,0,-1,2,1,0,0,0,85,85,79,1,,,,,,,,
,,,,,,,,,,,,,FF,,,,,,,,3.268,,,,,,,,,,,,,,,,,,,,,,60fdd20d5832a81323b3c8f9,61036ee77388e7c156ebdc33,2021-07-29_23h18.40.295,Simcolourproject_2stim_asymm_v5,2020.2.10,Win32,60,61025ae37ef11b136ea224fe,,,,,,,,,1558,66,-44,1,0,0,response3disk,,5,17,-5,1,0,0,rectangle,17,-5,1,0,0,17,-5,1,0,0,0,86,86,49,1,,,,,,,,
,,,,,,,,,,,,,FF,,,,,,,,1.5504,,,,,,,,,,,,,,,,,,,,,,60fdd20d5832a81323b3c8f9,61036ee77388e7c156ebdc33,2021-07-29_23h18.40.295,Simcolourproject_2stim_asymm_v5,2020.2.10,Win32,60,61025ae37ef11b136ea224fe,,,,,,,,,2457,39,-59,1,0,0,response3disk,,4,2,-3,1,0,0,rectangle,2,-3,1,0,0,2,-3,1,0,0,0,87,87,61,1,,,,,,,,
,,,,,,,,,,,,,FF,,,,,,,,1.6502,,,,,,,,,,,,,,,,,,,,,,60fdd20d5832a81323b3c8f9,61036ee77388e7c156ebdc33,2021-07-29_23h18.40.295,Simcolourproject_2stim_asymm_v5,2020.2.10,Win32,60,61025ae37ef11b136ea224fe,,,,,,,,,2327,63,-37,1,0,0,response3disk,,5,0,1,1,0,0,rectangle,0,1,1,0,0,0,1,1,0,0,0,88,88,158,1,,,,,,,,
,,,,,,,,,,,,,FF,,,,,,,,2.2501,,,,,,,,,,,,,,,,,,,,,,60fdd20d5832a81323b3c8f9,61036ee77388e7c156ebdc33,2021-07-29_23h18.40.295,Simcolourproject_2stim_asymm_v5,2020.2.10,Win32,60,61025ae37ef11b136ea224fe,,,,,,,,,3717,67,-31,1,0,0,response3disk,,5,7,4,1,0,0,rectangle,7,4,1,0,0,7,4,1,0,0,0,89,89,102,1,,,,,,,,
,,,,,,,,,,,,,FF,,,,,,,,2.7833,,,,,,,,,,,,,,,,,,,,,,60fdd20d5832a81323b3c8f9,61036ee77388e7c156ebdc33,2021-07-29_23h18.40.295,Simcolourproject_2stim_asymm_v5,2020.2.10,Win32,60,61025ae37ef11b136ea224fe,,,,,,,,,3674,59,-39,1,0,0,response3disk,,5,9,-3,1,0,0,rectangle,9,-3,1,0,0,9,-3,1,0,0,0,90,90,62,1,,,,,,,,
,,,,,,,,,,,,,FF,,,,,,,,3.0843,,,,,,,,,,,,,,,,,,,,,,60fdd20d5832a81323b3c8f9,61036ee77388e7c156ebdc33,2021-07-29_23h18.40.295,Simcolourproject_2stim_asymm_v5,2020.2.10,Win32,60,61025ae37ef11b136ea224fe,,,,,,,,,2978,75,27,1,0,0,response1disk,,6,-2,-1,1,0,0,rectangle,-2,-1,1,0,0,-2,-1,1,0,0,0,91,91,27,1,,,,,,,,
,,,,,,,,,,,,,FF,,,,,,,,1.9345,,,,,,,,,,,,,,,,,,,,,,60fdd20d5832a81323b3c8f9,61036ee77388e7c156ebdc33,2021-07-29_23h18.40.295,Simcolourproject_2stim_asymm_v5,2020.2.10,Win32,60,61025ae37ef11b136ea224fe,,,,,,,,,2052,82,-26,1,0,0,response3disk,,5,10,0,1,0,0,rectangle,10,0,1,0,0,10,0,1,0,0,0,92,92,70,1,,,,,,,,
,,,,,,,,,,,,,FF,,,,,,,,1.8175,,,,,,,,,,,,,,,,,,,,,,60fdd20d5832a81323b3c8f9,61036ee77388e7c156ebdc33,2021-07-29_23h18.40.295,Simcolourproject_2stim_asymm_v5,2020.2.10,Win32,60,61025ae37ef11b136ea224fe,,,,,,,,,3602,80,-34,1,0,0,response3disk,,5,4,-4,1,0,0,rectangle,4,-4,1,0,0,4,-4,1,0,0,0,93,93,149,1,,,,,,,,
,,,,,,,,,,,,,FF,,,,,,,,1.617,,,,,,,,,,,,,,,,,,,,,,60fdd20d5832a81323b3c8f9,61036ee77388e7c156ebdc33,2021-07-29_23h18.40.295,Simcolourproject_2stim_asymm_v5,2020.2.10,Win32,60,61025ae37ef11b136ea224fe,,,,,,,,,3918,39,-86,1,0,0,response3disk,,4,3,-7,1,0,0,rectangle,3,-7,1,0,0,3,-7,1,0,0,0,94,94,6,1,,,,,,,,
,,,,,,,,,,,,,FF,,,,,,,,0.8837,,,,,,,,,,,,,,,,,,,,,,60fdd20d5832a81323b3c8f9,61036ee77388e7c156ebdc33,2021-07-29_23h18.40.295,Simcolourproject_2stim_asymm_v5,2020.2.10,Win32,60,61025ae37ef11b136ea224fe,,,,,,,,,1599,-35,-75,1,0,0,response5disk,,3,1,2,1,0,0,rectangle,1,2,1,0,0,1,2,1,0,0,0,95,95,57,1,,,,,,,,
,,,,,,,,,,,,,FF,,,,,,,,1.0502,,,,,,,,,,,,,,,,,,,,,,60fdd20d5832a81323b3c8f9,61036ee77388e7c156ebdc33,2021-07-29_23h18.40.295,Simcolourproject_2stim_asymm_v5,2020.2.10,Win32,60,61025ae37ef11b136ea224fe,,,,,,,,,4096,-41,-25,1,0,0,response5disk,,2,0,8,1,0,0,rectangle,0,8,1,0,0,0,8,1,0,0,0,96,96,72,1,,,,,,,,
,,,,,,,,,,,,,FF,,,,,,,,1.3476,,,,,,,,,,,,,,,,,,,,,,60fdd20d5832a81323b3c8f9,61036ee77388e7c156ebdc33,2021-07-29_23h18.40.295,Simcolourproject_2stim_asymm_v5,2020.2.10,Win32,60,61025ae37ef11b136ea224fe,,,,,,,,,4187,-30,-68,1,0,0,response5disk,,3,1,3,1,0,0,rectangle,1,3,1,0,0,1,3,1,0,0,0,97,97,12,1,,,,,,,,
,,,,,,,,,,,,,FF,,,,,,,,1.7345,,,,,,,,,,,,,,,,,,,,,,60fdd20d5832a81323b3c8f9,61036ee77388e7c156ebdc33,2021-07-29_23h18.40.295,Simcolourproject_2stim_asymm_v5,2020.2.10,Win32,60,61025ae37ef11b136ea224fe,,,,,,,,,3396,-38,-73,1,0,0,response5disk,,3,-10,-5,1,0,0,rectangle,-10,-5,1,0,0,-10,-5,1,0,0,0,98,98,77,1,,,,,,,,
,,,,,,,,,,,,,FF,,,,,,,,1.5882,,,,,,,,,,,,,,,,,,,,,,60fdd20d5832a81323b3c8f9,61036ee77388e7c156ebdc33,2021-07-29_23h18.40.295,Simcolourproject_2stim_asymm_v5,2020.2.10,Win32,60,61025ae37ef11b136ea224fe,,,,,,,,,191,-68,-29,1,0,0,response5disk,,2,-8,-6,1,0,0,rectangle,-8,-6,1,0,0,-8,-6,1,0,0,0,99,99,46,1,,,,,,,,
,,,,,,,,,,,,,FF,,,,,,,,1.0541,,,,,,,,,,,,,,,,,,,,,,60fdd20d5832a81323b3c8f9,61036ee77388e7c156ebdc33,2021-07-29_23h18.40.295,Simcolourproject_2stim_asymm_v5,2020.2.10,Win32,60,61025ae37ef11b136ea224fe,,,,,,,,,3881,-64,25,1,0,0,response7disk,,1,-4,-1,1,0,0,rectangle,-4,-1,1,0,0,-4,-1,1,0,0,0,100,100,145,1,,,,,,,,
,,,,,,,,,,,,,FF,,,,,,,,0.8498,,,,,,,,,,,,,,,,,,,,,,60fdd20d5832a81323b3c8f9,61036ee77388e7c156ebdc33,2021-07-29_23h18.40.295,Simcolourproject_2stim_asymm_v5,2020.2.10,Win32,60,61025ae37ef11b136ea224fe,,,,,,,,,1290,-41,67,1,0,0,response7disk,,0,4,3,1,0,0,rectangle,4,3,1,0,0,4,3,1,0,0,0,101,101,136,1,,,,,,,,
,,,,,,,,,,,,,FF,,,,,,,,1.1729,,,,,,,,,,,,,,,,,,,,,,60fdd20d5832a81323b3c8f9,61036ee77388e7c156ebdc33,2021-07-29_23h18.40.295,Simcolourproject_2stim_asymm_v5,2020.2.10,Win32,60,61025ae37ef11b136ea224fe,,,,,,,,,1994,74,-38,1,0,0,response3disk,,5,7,3,1,0,0,rectangle,7,3,1,0,0,7,3,1,0,0,0,102,102,45,1,,,,,,,,
,,,,,,,,,,,,,FF,,,,,,,,1.1798,,,,,,,,,,,,,,,,,,,,,,60fdd20d5832a81323b3c8f9,61036ee77388e7c156ebdc33,2021-07-29_23h18.40.295,Simcolourproject_2stim_asymm_v5,2020.2.10,Win32,60,61025ae37ef11b136ea224fe,,,,,,,,,1288,-31,-56,1,0,0,response5disk,,3,8,-3,1,0,0,rectangle,8,-3,1,0,0,8,-3,1,0,0,0,103,103,156,1,,,,,,,,
,,,,,,,,,,,,,FF,,,,,,,,0.8174,,,,,,,,,,,,,,,,,,,,,,60fdd20d5832a81323b3c8f9,61036ee77388e7c156ebdc33,2021-07-29_23h18.40.295,Simcolourproject_2stim_asymm_v5,2020.2.10,Win32,60,61025ae37ef11b136ea224fe,,,,,,,,,1233,-60,-29,1,0,0,response5disk,,2,-10,4,1,0,0,rectangle,-10,4,1,0,0,-10,4,1,0,0,0,104,104,17,1,,,,,,,,
,,,,,,,,,,,,,FF,,,,,,,,2.0676,,,,,,,,,,,,,,,,,,,,,,60fdd20d5832a81323b3c8f9,61036ee77388e7c156ebdc33,2021-07-29_23h18.40.295,Simcolourproject_2stim_asymm_v5,2020.2.10,Win32,60,61025ae37ef11b136ea224fe,,,,,,,,,110,33,-86,1,0,0,response3disk,,4,-2,7,1,0,0,rectangle,-2,7,1,0,0,-2,7,1,0,0,0,105,105,18,1,,,,,,,,
,,,,,,,,,,,,,FF,,,,,,,,1.8355,,,,,,,,,,,,,,,,,,,,,,60fdd20d5832a81323b3c8f9,61036ee77388e7c156ebdc33,2021-07-29_23h18.40.295,Simcolourproject_2stim_asymm_v5,2020.2.10,Win32,60,61025ae37ef11b136ea224fe,,,,,,,,,2729,-30,-75,1,0,0,response5disk,,3,-2,0,1,0,0,rectangle,-2,0,1,0,0,-2,0,1,0,0,0,106,106,1,1,,,,,,,,
,,,,,,,,,,,,,FF,,,,,,,,1.9337,,,,,,,,,,,,,,,,,,,,,,60fdd20d5832a81323b3c8f9,61036ee77388e7c156ebdc33,2021-07-29_23h18.40.295,Simcolourproject_2stim_asymm_v5,2020.2.10,Win32,60,61025ae37ef11b136ea224fe,,,,,,,,,1227,-68,-38,1,0,0,response5disk,,2,-1,-4,1,0,0,rectangle,-1,-4,1,0,0,-1,-4,1,0,0,0,107,107,11,1,,,,,,,,
,,,,,,,,,,,,,FF,,,,,,,,1.8686,,,,,,,,,,,,,,,,,,,,,,60fdd20d5832a81323b3c8f9,61036ee77388e7c156ebdc33,2021-07-29_23h18.40.295,Simcolourproject_2stim_asymm_v5,2020.2.10,Win32,60,61025ae37ef11b136ea224fe,,,,,,,,,4144,51,-64,1,0,0,response3disk,,4,4,-1,1,0,0,rectangle,4,-1,1,0,0,4,-1,1,0,0,0,108,108,90,1,,,,,,,,
,,,,,,,,,,,,,FF,,,,,,,,1.5814,,,,,,,,,,,,,,,,,,,,,,60fdd20d5832a81323b3c8f9,61036ee77388e7c156ebdc33,2021-07-29_23h18.40.295,Simcolourproject_2stim_asymm_v5,2020.2.10,Win32,60,61025ae37ef11b136ea224fe,,,,,,,,,4110,51,31,1,0,0,response1disk,,6,3,-2,1,0,0,rectangle,3,-2,1,0,0,3,-2,1,0,0,0,109,109,109,1,,,,,,,,
,,,,,,,,,,,,,FF,,,,,,,,0.9013,,,,,,,,,,,,,,,,,,,,,,60fdd20d5832a81323b3c8f9,61036ee77388e7c156ebdc33,2021-07-29_23h18.40.295,Simcolourproject_2stim_asymm_v5,2020.2.10,Win32,60,61025ae37ef11b136ea224fe,,,,,,,,,2500,49,79,1,0,0,response1disk,,7,-1,1,1,0,0,rectangle,-1,1,1,0,0,-1,1,1,0,0,0,110,110,75,1,,,,,,,,
,,,,,,,,,,,,,FF,,,,,,,,1.2144,,,,,,,,,,,,,,,,,,,,,,60fdd20d5832a81323b3c8f9,61036ee77388e7c156ebdc33,2021-07-29_23h18.40.295,Simcolourproject_2stim_asymm_v5,2020.2.10,Win32,60,61025ae37ef11b136ea224fe,,,,,,,,,143,60,28,1,0,0,response1disk,,6,11,0,1,0,0,rectangle,44,-93,1,0,0,-1,-1,1,0,0,0,111,111,73,1,,response3disk_3,TRUE,4,4,"[230,61,262,322,152,251,5,187,204,3,269,158,218,158,112,6,125,265,50,25]",2.3719,rectangle
,,,,,,,,,,,,,FF,,,,,,,,1.1166,,,,,,,,,,,,,,,,,,,,,,60fdd20d5832a81323b3c8f9,61036ee77388e7c156ebdc33,2021-07-29_23h18.40.295,Simcolourproject_2stim_asymm_v5,2020.2.10,Win32,60,61025ae37ef11b136ea224fe,,,,,,,,,1963,-40,61,1,0,0,response7disk,,0,13,0,1,0,0,rectangle,13,0,1,0,0,13,0,1,0,0,0,112,112,89,1,,,,,,,,
,,,,,,,,,,,,,FF,,,,,,,,1.5641,,,,,,,,,,,,,,,,,,,,,,60fdd20d5832a81323b3c8f9,61036ee77388e7c156ebdc33,2021-07-29_23h18.40.295,Simcolourproject_2stim_asymm_v5,2020.2.10,Win32,60,61025ae37ef11b136ea224fe,,,,,,,,,1261,63,-51,1,0,0,response3disk,,5,-3,6,1,0,0,rectangle,-3,6,1,0,0,-3,6,1,0,0,0,113,113,115,1,,,,,,,,
,,,,,,,,,,,,,FF,,,,,,,,1.4166,,,,,,,,,,,,,,,,,,,,,,60fdd20d5832a81323b3c8f9,61036ee77388e7c156ebdc33,2021-07-29_23h18.40.295,Simcolourproject_2stim_asymm_v5,2020.2.10,Win32,60,61025ae37ef11b136ea224fe,,,,,,,,,1374,-42,-73,1,0,0,response5disk,,3,1,1,1,0,0,rectangle,1,1,1,0,0,1,1,1,0,0,0,114,114,8,1,,,,,,,,
,,,,,,,,,,,,,FF,,,,,,,,1.1205,,,,,,,,,,,,,,,,,,,,,,60fdd20d5832a81323b3c8f9,61036ee77388e7c156ebdc33,2021-07-29_23h18.40.295,Simcolourproject_2stim_asymm_v5,2020.2.10,Win32,60,61025ae37ef11b136ea224fe,,,,,,,,,2361,-49,-29,1,0,0,response5disk,,2,-12,-2,1,0,0,rectangle,-12,-2,1,0,0,-12,-2,1,0,0,0,115,115,113,1,,,,,,,,
,,,,,,,,,,,,,FF,,,,,,,,1.0341,,,,,,,,,,,,,,,,,,,,,,60fdd20d5832a81323b3c8f9,61036ee77388e7c156ebdc33,2021-07-29_23h18.40.295,Simcolourproject_2stim_asymm_v5,2020.2.10,Win32,60,61025ae37ef11b136ea224fe,,,,,,,,,1780,52,-72,1,0,0,response3disk,,4,-1,1,1,0,0,rectangle,-1,1,1,0,0,-1,1,1,0,0,0,116,116,25,1,,,,,,,,
,,,,,,,,,,,,,FF,,,,,,,,1.8833,,,,,,,,,,,,,,,,,,,,,,60fdd20d5832a81323b3c8f9,61036ee77388e7c156ebdc33,2021-07-29_23h18.40.295,Simcolourproject_2stim_asymm_v5,2020.2.10,Win32,60,61025ae37ef11b136ea224fe,,,,,,,,,2621,78,-26,1,0,0,response3disk,,5,4,-2,1,0,0,rectangle,4,-2,1,0,0,4,-2,1,0,0,0,117,117,47,1,,,,,,,,
,,,,,,,,,,,,,FF,,,,,,,,1.1503,,,,,,,,,,,,,,,,,,,,,,60fdd20d5832a81323b3c8f9,61036ee77388e7c156ebdc33,2021-07-29_23h18.40.295,Simcolourproject_2stim_asymm_v5,2020.2.10,Win32,60,61025ae37ef11b136ea224fe,,,,,,,,,1532,39,-74,1,0,0,response3disk,,4,-2,-7,1,0,0,rectangle,-2,-7,1,0,0,-2,-7,1,0,0,0,118,118,80,1,,,,,,,,
,,,,,,,,,,,,,FF,,,,,,,,1.8306,,,,,,,,,,,,,,,,,,,,,,60fdd20d5832a81323b3c8f9,61036ee77388e7c156ebdc33,2021-07-29_23h18.40.295,Simcolourproject_2stim_asymm_v5,2020.2.10,Win32,60,61025ae37ef11b136ea224fe,,,,,,,,,3673,32,-70,1,0,0,response3disk,,4,4,-5,1,0,0,rectangle,4,-5,1,0,0,4,-5,1,0,0,0,119,119,2,1,,,,,,,,
,,,,,,,,,,,,,FF,,,,,,,,0.9009,,,,,,,,,,,,,,,,,,,,,,60fdd20d5832a81323b3c8f9,61036ee77388e7c156ebdc33,2021-07-29_23h18.40.295,Simcolourproject_2stim_asymm_v5,2020.2.10,Win32,60,61025ae37ef11b136ea224fe,,,,,,,,,263,-38,-67,1,0,0,response5disk,,3,4,-1,1,0,0,rectangle,4,-1,1,0,0,4,-1,1,0,0,0,120,120,64,1,,,,,,,,
,,,,,,,,,,,,,FF,,,,,,,,1.3004,,,,,,,,,,,,,,,,,,,,,,60fdd20d5832a81323b3c8f9,61036ee77388e7c156ebdc33,2021-07-29_23h18.40.295,Simcolourproject_2stim_asymm_v5,2020.2.10,Win32,60,61025ae37ef11b136ea224fe,,,,,,,,,4256,73,-40,1,0,0,response3disk,,5,11,-5,1,0,0,rectangle,11,-5,1,0,0,11,-5,1,0,0,0,121,121,67,1,,,,,,,,
,,,,,,,,,,,,,FF,,,,,,,,1.3339,,,,,,,,,,,,,,,,,,,,,,60fdd20d5832a81323b3c8f9,61036ee77388e7c156ebdc33,2021-07-29_23h18.40.295,Simcolourproject_2stim_asymm_v5,2020.2.10,Win32,60,61025ae37ef11b136ea224fe,,,,,,,,,3645,34,72,1,0,0,response1disk,,7,-2,-1,1,0,0,rectangle,-2,-1,1,0,0,-2,-1,1,0,0,0,122,122,40,1,,,,,,,,
,,,,,,,,,,,,,FF,,,,,,,,1.067,,,,,,,,,,,,,,,,,,,,,,60fdd20d5832a81323b3c8f9,61036ee77388e7c156ebdc33,2021-07-29_23h18.40.295,Simcolourproject_2stim_asymm_v5,2020.2.10,Win32,60,61025ae37ef11b136ea224fe,,,,,,,,,276,-37,-50,1,0,0,response5disk,,3,2,4,1,0,0,rectangle,2,4,1,0,0,2,4,1,0,0,0,123,123,120,1,,,,,,,,
,,,,,,,,,,,,,FF,,,,,,,,2.4004,,,,,,,,,,,,,,,,,,,,,,60fdd20d5832a81323b3c8f9,61036ee77388e7c156ebdc33,2021-07-29_23h18.40.295,Simcolourproject_2stim_asymm_v5,2020.2.10,Win32,60,61025ae37ef11b136ea224fe,,,,,,,,,1851,56,-40,1,0,0,response3disk,,5,1,-2,1,0,0,rectangle,-49,-28,1,0,0,-7,-3,1,0,0,0,124,124,23,1,,response5disk_3,TRUE,2,2,"[230,61,262,322,152,251,5,187,204,3,269,158,218,158,112,6,125,265,50,25]",1.4499,rectangle
,,,,,,,,,,,,,FF,,,,,,,,1.6672,,,,,,,,,,,,,,,,,,,,,,60fdd20d5832a81323b3c8f9,61036ee77388e7c156ebdc33,2021-07-29_23h18.40.295,Simcolourproject_2stim_asymm_v5,2020.2.10,Win32,60,61025ae37ef11b136ea224fe,,,,,,,,,496,44,67,1,0,0,response1disk,,7,0,5,1,0,0,rectangle,0,5,1,0,0,0,5,1,0,0,0,125,125,110,1,,,,,,,,
,,,,,,,,,,,,,FF,,,,,,,,0.9842,,,,,,,,,,,,,,,,,,,,,,60fdd20d5832a81323b3c8f9,61036ee77388e7c156ebdc33,2021-07-29_23h18.40.295,Simcolourproject_2stim_asymm_v5,2020.2.10,Win32,60,61025ae37ef11b136ea224fe,,,,,,,,,337,68,32,1,0,0,response1disk,,6,7,8,1,0,0,rectangle,7,8,1,0,0,7,8,1,0,0,0,126,126,68,1,,,,,,,,
,,,,,,,,,,,,,FF,,,,,,,,1.4175,,,,,,,,,,,,,,,,,,,,,,60fdd20d5832a81323b3c8f9,61036ee77388e7c156ebdc33,2021-07-29_23h18.40.295,Simcolourproject_2stim_asymm_v5,2020.2.10,Win32,60,61025ae37ef11b136ea224fe,,,,,,,,,2264,50,24,1,0,0,response1disk,,6,-4,-4,1,0,0,rectangle,-4,-4,1,0,0,-4,-4,1,0,0,0,127,127,36,1,,,,,,,,
,,,,,,,,,,,,,FF,,,,,,,,1.1171,,,,,,,,,,,,,,,,,,,,,,60fdd20d5832a81323b3c8f9,61036ee77388e7c156ebdc33,2021-07-29_23h18.40.295,Simcolourproject_2stim_asymm_v5,2020.2.10,Win32,60,61025ae37ef11b136ea224fe,,,,,,,,,3142,31,-60,1,0,0,response3disk,,4,2,-4,1,0,0,rectangle,2,-4,1,0,0,2,-4,1,0,0,0,128,128,124,1,,,,,,,,
,,,,,,,,,,,,,FF,,,,,,,,1.7345,,,,,,,,,,,,,,,,,,,,,,60fdd20d5832a81323b3c8f9,61036ee77388e7c156ebdc33,2021-07-29_23h18.40.295,Simcolourproject_2stim_asymm_v5,2020.2.10,Win32,60,61025ae37ef11b136ea224fe,,,,,,,,,2952,78,-28,1,0,0,response3disk,,5,17,0,1,0,0,rectangle,17,0,1,0,0,17,0,1,0,0,0,129,129,28,1,,,,,,,,
,,,,,,,,,,,,,FF,,,,,,,,1.3337,,,,,,,,,,,,,,,,,,,,,,60fdd20d5832a81323b3c8f9,61036ee77388e7c156ebdc33,2021-07-29_23h18.40.295,Simcolourproject_2stim_asymm_v5,2020.2.10,Win32,60,61025ae37ef11b136ea224fe,,,,,,,,,209,56,-40,1,0,0,response3disk,,5,1,-3,1,0,0,rectangle,1,-3,1,0,0,1,-3,1,0,0,0,130,130,66,1,,,,,,,,
,,,,,,,,,,,,,FF,,,,,,,,1.1996,,,,,,,,,,,,,,,,,,,,,,60fdd20d5832a81323b3c8f9,61036ee77388e7c156ebdc33,2021-07-29_23h18.40.295,Simcolourproject_2stim_asymm_v5,2020.2.10,Win32,60,61025ae37ef11b136ea224fe,,,,,,,,,678,40,-60,1,0,0,response3disk,,4,6,-5,1,0,0,rectangle,6,-5,1,0,0,6,-5,1,0,0,0,131,131,127,1,,,,,,,,
,,,,,,,,,,,,,FF,,,,,,,,1.8998,,,,,,,,,,,,,,,,,,,,,,60fdd20d5832a81323b3c8f9,61036ee77388e7c156ebdc33,2021-07-29_23h18.40.295,Simcolourproject_2stim_asymm_v5,2020.2.10,Win32,60,61025ae37ef11b136ea224fe,,,,,,,,,3556,-34,-66,1,0,0,response5disk,,3,-7,-3,1,0,0,rectangle,-7,-3,1,0,0,-7,-3,1,0,0,0,132,132,101,1,,,,,,,,
,,,,,,,,,,,,,FF,,,,,,,,1.3169,,,,,,,,,,,,,,,,,,,,,,60fdd20d5832a81323b3c8f9,61036ee77388e7c156ebdc33,2021-07-29_23h18.40.295,Simcolourproject_2stim_asymm_v5,2020.2.10,Win32,60,61025ae37ef11b136ea224fe,,,,,,,,,2493,53,19,1,0,0,response1disk,,6,3,2,1,0,0,rectangle,3,2,1,0,0,3,2,1,0,0,0,133,133,44,1,,,,,,,,
,,,,,,,,,,,,,FF,,,,,,,,1.267,,,,,,,,,,,,,,,,,,,,,,60fdd20d5832a81323b3c8f9,61036ee77388e7c156ebdc33,2021-07-29_23h18.40.295,Simcolourproject_2stim_asymm_v5,2020.2.10,Win32,60,61025ae37ef11b136ea224fe,,,,,,,,,2455,43,70,1,0,0,response1disk,,7,5,6,1,0,0,rectangle,5,6,1,0,0,5,6,1,0,0,0,134,134,88,1,,,,,,,,
,,,,,,,,,,,,,FF,,,,,,,,1.2506,,,,,,,,,,,,,,,,,,,,,,60fdd20d5832a81323b3c8f9,61036ee77388e7c156ebdc33,2021-07-29_23h18.40.295,Simcolourproject_2stim_asymm_v5,2020.2.10,Win32,60,61025ae37ef11b136ea224fe,,,,,,,,,600,78,-38,1,0,0,response3disk,,5,11,-4,1,0,0,rectangle,11,-4,1,0,0,11,-4,1,0,0,0,135,135,123,1,,,,,,,,
,,,,,,,,,,,,,FF,,,,,,,,1.6839,,,,,,,,,,,,,,,,,,,,,,60fdd20d5832a81323b3c8f9,61036ee77388e7c156ebdc33,2021-07-29_23h18.40.295,Simcolourproject_2stim_asymm_v5,2020.2.10,Win32,60,61025ae37ef11b136ea224fe,,,,,,,,,4194,55,-40,1,0,0,response3disk,,5,4,-3,1,0,0,rectangle,4,-3,1,0,0,4,-3,1,0,0,0,136,136,50,1,,,,,,,,
,,,,,,,,,,,,,FF,,,,,,,,1.7507,,,,,,,,,,,,,,,,,,,,,,60fdd20d5832a81323b3c8f9,61036ee77388e7c156ebdc33,2021-07-29_23h18.40.295,Simcolourproject_2stim_asymm_v5,2020.2.10,Win32,60,61025ae37ef11b136ea224fe,,,,,,,,,3140,-32,-73,1,0,0,response5disk,,3,2,-8,1,0,0,rectangle,2,-8,1,0,0,2,-8,1,0,0,0,137,137,54,1,,,,,,,,
,,,,,,,,,,,,,FF,,,,,,,,0.8672,,,,,,,,,,,,,,,,,,,,,,60fdd20d5832a81323b3c8f9,61036ee77388e7c156ebdc33,2021-07-29_23h18.40.295,Simcolourproject_2stim_asymm_v5,2020.2.10,Win32,60,61025ae37ef11b136ea224fe,,,,,,,,,1886,-34,44,1,0,0,response7disk,,0,-6,11,1,0,0,rectangle,-6,11,1,0,0,-6,11,1,0,0,0,138,138,20,1,,,,,,,,
,,,,,,,,,,,,,FF,,,,,,,,2.519,,,,,,,,,,,,,,,,,,,,,,60fdd20d5832a81323b3c8f9,61036ee77388e7c156ebdc33,2021-07-29_23h18.40.295,Simcolourproject_2stim_asymm_v5,2020.2.10,Win32,60,61025ae37ef11b136ea224fe,,,,,,,,,2751,61,-53,1,0,0,response3disk,,5,1,1,1,0,0,rectangle,1,1,1,0,0,1,1,1,0,0,0,139,139,60,1,,,,,,,,
,,,,,,,,,,,,,FF,,,,,,,,1.5469,,,,,,,,,,,,,,,,,,,,,,60fdd20d5832a81323b3c8f9,61036ee77388e7c156ebdc33,2021-07-29_23h18.40.295,Simcolourproject_2stim_asymm_v5,2020.2.10,Win32,60,61025ae37ef11b136ea224fe,,,,,,,,,2615,77,52,1,0,0,response1disk,,6,19,4,1,0,0,rectangle,19,4,1,0,0,19,4,1,0,0,0,140,140,125,1,,,,,,,,
,,,,,,,,,,,,,FF,,,,,,,,1.9508,,,,,,,,,,,,,,,,,,,,,,60fdd20d5832a81323b3c8f9,61036ee77388e7c156ebdc33,2021-07-29_23h18.40.295,Simcolourproject_2stim_asymm_v5,2020.2.10,Win32,60,61025ae37ef11b136ea224fe,,,,,,,,,4107,62,-31,1,0,0,response3disk,,5,6,0,1,0,0,rectangle,6,0,1,0,0,6,0,1,0,0,0,141,141,142,1,,,,,,,,
,,,,,,,,,,,,,FF,,,,,,,,0.9209,,,,,,,,,,,,,,,,,,,,,,60fdd20d5832a81323b3c8f9,61036ee77388e7c156ebdc33,2021-07-29_23h18.40.295,Simcolourproject_2stim_asymm_v5,2020.2.10,Win32,60,61025ae37ef11b136ea224fe,,,,,,,,,3232,30,57,1,0,0,response1disk,,7,-3,-2,1,0,0,rectangle,-3,-2,1,0,0,-3,-2,1,0,0,0,142,142,144,1,,,,,,,,
,,,,,,,,,,,,,FF,,,,,,,,3.5466,,,,,,,,,,,,,,,,,,,,,,60fdd20d5832a81323b3c8f9,61036ee77388e7c156ebdc33,2021-07-29_23h18.40.295,Simcolourproject_2stim_asymm_v5,2020.2.10,Win32,60,61025ae37ef11b136ea224fe,,,,,,,,,4230,35,-51,1,0,0,response3disk,,4,7,-1,1,0,0,rectangle,7,-1,1,0,0,7,-1,1,0,0,0,143,143,93,1,,,,,,,,
,,,,,,,,,,,,,FF,,,,,,,,1.0173,,,,,,,,,,,,,,,,,,,,,,60fdd20d5832a81323b3c8f9,61036ee77388e7c156ebdc33,2021-07-29_23h18.40.295,Simcolourproject_2stim_asymm_v5,2020.2.10,Win32,60,61025ae37ef11b136ea224fe,,,,,,,,,1177,42,82,1,0,0,response1disk,,7,5,4,1,0,0,rectangle,5,4,1,0,0,5,4,1,0,0,0,144,144,58,1,,,,,,,,
,,,,,,,,,,,,,FF,,,,,,,,2.3173,,,,,,,,,,,,,,,,,,,,,,60fdd20d5832a81323b3c8f9,61036ee77388e7c156ebdc33,2021-07-29_23h18.40.295,Simcolourproject_2stim_asymm_v5,2020.2.10,Win32,60,61025ae37ef11b136ea224fe,,,,,,,,,1378,-74,-40,1,0,0,response5disk,,2,2,1,1,0,0,rectangle,2,1,1,0,0,2,1,1,0,0,0,145,145,141,1,,,,,,,,
,,,,,,,,,,,,,FF,,,,,,,,1.7217,,,,,,,,,,,,,,,,,,,,,,60fdd20d5832a81323b3c8f9,61036ee77388e7c156ebdc33,2021-07-29_23h18.40.295,Simcolourproject_2stim_asymm_v5,2020.2.10,Win32,60,61025ae37ef11b136ea224fe,,,,,,,,,211,29,-61,1,0,0,response3disk,,4,-1,-4,1,0,0,rectangle,-1,-4,1,0,0,-1,-4,1,0,0,0,146,146,129,1,,,,,,,,
,,,,,,,,,,,,,FF,,,,,,,,1.9877,,,,,,,,,,,,,,,,,,,,,,60fdd20d5832a81323b3c8f9,61036ee77388e7c156ebdc33,2021-07-29_23h18.40.295,Simcolourproject_2stim_asymm_v5,2020.2.10,Win32,60,61025ae37ef11b136ea224fe,,,,,,,,,868,51,-59,1,0,0,response3disk,,4,6,-7,1,0,0,rectangle,6,-7,1,0,0,6,-7,1,0,0,0,147,147,4,1,,,,,,,,
,,,,,,,,,,,,,FF,,,,,,,,0.9836,,,,,,,,,,,,,,,,,,,,,,60fdd20d5832a81323b3c8f9,61036ee77388e7c156ebdc33,2021-07-29_23h18.40.295,Simcolourproject_2stim_asymm_v5,2020.2.10,Win32,60,61025ae37ef11b136ea224fe,,,,,,,,,3480,-27,-65,1,0,0,response5disk,,3,-3,-7,1,0,0,rectangle,-3,-7,1,0,0,-3,-7,1,0,0,0,148,148,56,1,,,,,,,,
,,,,,,,,,,,,,FF,,,,,,,,0.9838,,,,,,,,,,,,,,,,,,,,,,60fdd20d5832a81323b3c8f9,61036ee77388e7c156ebdc33,2021-07-29_23h18.40.295,Simcolourproject_2stim_asymm_v5,2020.2.10,Win32,60,61025ae37ef11b136ea224fe,,,,,,,,,2412,-62,-26,1,0,0,response5disk,,2,-9,2,1,0,0,rectangle,-9,2,1,0,0,-9,2,1,0,0,0,149,149,10,1,,,,,,,,
,,,,,,,,,,,,,FF,,,,,,,,1.3338,,,,,,,,,,,,,,,,,,,,,,60fdd20d5832a81323b3c8f9,61036ee77388e7c156ebdc33,2021-07-29_23h18.40.295,Simcolourproject_2stim_asymm_v5,2020.2.10,Win32,60,61025ae37ef11b136ea224fe,,,,,,,,,3538,63,44,1,0,0,response1disk,,6,3,5,1,0,0,rectangle,3,5,1,0,0,3,5,1,0,0,0,150,150,130,1,,,,,,,,
,,,,,,,,,,,,,FF,,,,,,,,1.3843,,,,,,,,,,,,,,,,,,,,,,60fdd20d5832a81323b3c8f9,61036ee77388e7c156ebdc33,2021-07-29_23h18.40.295,Simcolourproject_2stim_asymm_v5,2020.2.10,Win32,60,61025ae37ef11b136ea224fe,,,,,,,,,4093,70,32,1,0,0,response1disk,,6,7,0,1,0,0,rectangle,91,37,1,0,0,-7,0,1,0,0,0,151,151,19,1,,response1disk_3,TRUE,6,6,"[230,61,262,322,152,251,5,187,204,3,269,158,218,158,112,6,125,265,50,25]",1.983,rectangle
,,,,,,,,,,,,,FF,,,,,,,,0.9175,,,,,,,,,,,,,,,,,,,,,,60fdd20d5832a81323b3c8f9,61036ee77388e7c156ebdc33,2021-07-29_23h18.40.295,Simcolourproject_2stim_asymm_v5,2020.2.10,Win32,60,61025ae37ef11b136ea224fe,,,,,,,,,3542,35,62,1,0,0,response1disk,,7,1,0,1,0,0,rectangle,1,0,1,0,0,1,0,1,0,0,0,152,152,118,1,,,,,,,,
,,,,,,,,,,,,,FF,,,,,,,,1.4339,,,,,,,,,,,,,,,,,,,,,,60fdd20d5832a81323b3c8f9,61036ee77388e7c156ebdc33,2021-07-29_23h18.40.295,Simcolourproject_2stim_asymm_v5,2020.2.10,Win32,60,61025ae37ef11b136ea224fe,,,,,,,,,881,45,-66,1,0,0,response3disk,,4,-5,-1,1,0,0,rectangle,-5,-1,1,0,0,-5,-1,1,0,0,0,153,153,111,1,,,,,,,,
,,,,,,,,,,,,,FF,,,,,,,,0.8344,,,,,,,,,,,,,,,,,,,,,,60fdd20d5832a81323b3c8f9,61036ee77388e7c156ebdc33,2021-07-29_23h18.40.295,Simcolourproject_2stim_asymm_v5,2020.2.10,Win32,60,61025ae37ef11b136ea224fe,,,,,,,,,3473,-53,-30,1,0,0,response5disk,,2,-1,0,1,0,0,rectangle,-1,0,1,0,0,-1,0,1,0,0,0,154,154,95,1,,,,,,,,
,,,,,,,,,,,,,FF,,,,,,,,1.1337,,,,,,,,,,,,,,,,,,,,,,60fdd20d5832a81323b3c8f9,61036ee77388e7c156ebdc33,2021-07-29_23h18.40.295,Simcolourproject_2stim_asymm_v5,2020.2.10,Win32,60,61025ae37ef11b136ea224fe,,,,,,,,,872,67,-38,1,0,0,response3disk,,5,4,-6,1,0,0,rectangle,4,-6,1,0,0,4,-6,1,0,0,0,155,155,41,1,,,,,,,,
,,,,,,,,,,,,,FF,,,,,,,,1.0499,,,,,,,,,,,,,,,,,,,,,,60fdd20d5832a81323b3c8f9,61036ee77388e7c156ebdc33,2021-07-29_23h18.40.295,Simcolourproject_2stim_asymm_v5,2020.2.10,Win32,60,61025ae37ef11b136ea224fe,,,,,,,,,1847,81,50,1,0,0,response1disk,,6,-11,2,1,0,0,rectangle,-11,2,1,0,0,-11,2,1,0,0,0,156,156,126,1,,,,,,,,
,,,,,,,,,,,,,FF,,,,,,,,0.983,,,,,,,,,,,,,,,,,,,,,,60fdd20d5832a81323b3c8f9,61036ee77388e7c156ebdc33,2021-07-29_23h18.40.295,Simcolourproject_2stim_asymm_v5,2020.2.10,Win32,60,61025ae37ef11b136ea224fe,,,,,,,,,158,64,36,1,0,0,response1disk,,6,0,3,1,0,0,rectangle,42,-90,1,0,0,3,-7,1,0,0,0,157,157,96,1,,response3disk_3,TRUE,4,4,"[230,61,262,322,152,251,5,187,204,3,269,158,218,158,112,6,125,265,50,25]",1.6329,rectangle
,,,,,,,,,,,,,FF,,,,,,,,2.9171,,,,,,,,,,,,,,,,,,,,,,60fdd20d5832a81323b3c8f9,61036ee77388e7c156ebdc33,2021-07-29_23h18.40.295,Simcolourproject_2stim_asymm_v5,2020.2.10,Win32,60,61025ae37ef11b136ea224fe,,,,,,,,,2672,31,-70,1,0,0,response3disk,,4,-2,-10,1,0,0,rectangle,-2,-10,1,0,0,-2,-10,1,0,0,0,158,158,37,1,,,,,,,,
,,,,,,,,,,,,,FF,,,,,,,,1.2003,,,,,,,,,,,,,,,,,,,,,,60fdd20d5832a81323b3c8f9,61036ee77388e7c156ebdc33,2021-07-29_23h18.40.295,Simcolourproject_2stim_asymm_v5,2020.2.10,Win32,60,61025ae37ef11b136ea224fe,,,,,,,,,289,-41,-75,1,0,0,response5disk,,3,5,-2,1,0,0,rectangle,5,-2,1,0,0,5,-2,1,0,0,0,159,159,121,1,,,,,,,,
,,,,,,,,,,,,,FF,,,,,,,,1.6853,,,,,,,,,,,,,,,,,,,,,,60fdd20d5832a81323b3c8f9,61036ee77388e7c156ebdc33,2021-07-29_23h18.40.295,Simcolourproject_2stim_asymm_v5,2020.2.10,Win32,60,61025ae37ef11b136ea224fe,,,,,,,,,2351,-21,-70,1,0,0,response5disk,,3,12,0,1,0,0,rectangle,12,0,1,0,0,12,0,1,0,0,1,0,160,65,1,,,,,,,,
,,,,,,,,,,,,,FF,,,,,,,,1.2837,,,,,,,,,,,,,,,,,,,,,,60fdd20d5832a81323b3c8f9,61036ee77388e7c156ebdc33,2021-07-29_23h18.40.295,Simcolourproject_2stim_asymm_v5,2020.2.10,Win32,60,61025ae37ef11b136ea224fe,,,,,,,,,451,-61,-37,1,0,0,response5disk,,2,-5,-7,1,0,0,rectangle,-5,-7,1,0,0,-5,-7,1,0,0,1,1,161,76,1,,,,,,,,
,,,,,,,,,,,,,FF,,,,,,,,1.6844,,,,,,,,,,,,,,,,,,,,,,60fdd20d5832a81323b3c8f9,61036ee77388e7c156ebdc33,2021-07-29_23h18.40.295,Simcolourproject_2stim_asymm_v5,2020.2.10,Win32,60,61025ae37ef11b136ea224fe,,,,,,,,,2465,62,-39,1,0,0,response3disk,,5,6,-8,1,0,0,rectangle,6,-8,1,0,0,6,-8,1,0,0,1,2,162,152,1,,,,,,,,
,,,,,,,,,,,,,FF,,,,,,,,1.1013,,,,,,,,,,,,,,,,,,,,,,60fdd20d5832a81323b3c8f9,61036ee77388e7c156ebdc33,2021-07-29_23h18.40.295,Simcolourproject_2stim_asymm_v5,2020.2.10,Win32,60,61025ae37ef11b136ea224fe,,,,,,,,,1163,66,30,1,0,0,response1disk,,6,-7,2,1,0,0,rectangle,-7,2,1,0,0,-7,2,1,0,0,1,3,163,93,1,,,,,,,,
,,,,,,,,,,,,,FF,,,,,,,,1.4506,,,,,,,,,,,,,,,,,,,,,,60fdd20d5832a81323b3c8f9,61036ee77388e7c156ebdc33,2021-07-29_23h18.40.295,Simcolourproject_2stim_asymm_v5,2020.2.10,Win32,60,61025ae37ef11b136ea224fe,,,,,,,,,3389,-62,25,1,0,0,response7disk,,1,-12,-4,1,0,0,rectangle,-12,-4,1,0,0,-12,-4,1,0,0,1,4,164,49,1,,,,,,,,
,,,,,,,,,,,,,FF,,,,,,,,2.4333,,,,,,,,,,,,,,,,,,,,,,60fdd20d5832a81323b3c8f9,61036ee77388e7c156ebdc33,2021-07-29_23h18.40.295,Simcolourproject_2stim_asymm_v5,2020.2.10,Win32,60,61025ae37ef11b136ea224fe,,,,,,,,,2710,77,-34,1,0,0,response3disk,,5,5,0,1,0,0,rectangle,5,0,1,0,0,5,0,1,0,0,1,5,165,116,1,,,,,,,,
,,,,,,,,,,,,,FF,,,,,,,,1.1502,,,,,,,,,,,,,,,,,,,,,,60fdd20d5832a81323b3c8f9,61036ee77388e7c156ebdc33,2021-07-29_23h18.40.295,Simcolourproject_2stim_asymm_v5,2020.2.10,Win32,60,61025ae37ef11b136ea224fe,,,,,,,,,4345,-50,33,1,0,0,response7disk,,1,-26,8,1,0,0,rectangle,-26,8,1,0,0,-26,8,1,0,0,1,6,166,3,1,,,,,,,,
,,,,,,,,,,,,,FF,,,,,,,,2.5173,,,,,,,,,,,,,,,,,,,,,,60fdd20d5832a81323b3c8f9,61036ee77388e7c156ebdc33,2021-07-29_23h18.40.295,Simcolourproject_2stim_asymm_v5,2020.2.10,Win32,60,61025ae37ef11b136ea224fe,,,,,,,,,3303,27,-82,1,0,0,response3disk,,4,-6,-6,1,0,0,rectangle,-6,-6,1,0,0,-6,-6,1,0,0,1,7,167,78,1,,,,,,,,
,,,,,,,,,,,,,FF,,,,,,,,1.5838,,,,,,,,,,,,,,,,,,,,,,60fdd20d5832a81323b3c8f9,61036ee77388e7c156ebdc33,2021-07-29_23h18.40.295,Simcolourproject_2stim_asymm_v5,2020.2.10,Win32,60,61025ae37ef11b136ea224fe,,,,,,,,,796,31,-67,1,0,0,response3disk,,4,5,-10,1,0,0,rectangle,5,-10,1,0,0,5,-10,1,0,0,1,8,168,23,1,,,,,,,,
,,,,,,,,,,,,,FF,,,,,,,,1.6169,,,,,,,,,,,,,,,,,,,,,,60fdd20d5832a81323b3c8f9,61036ee77388e7c156ebdc33,2021-07-29_23h18.40.295,Simcolourproject_2stim_asymm_v5,2020.2.10,Win32,60,61025ae37ef11b136ea224fe,,,,,,,,,2534,89,-27,1,0,0,response3disk,,5,4,-2,1,0,0,rectangle,4,-2,1,0,0,4,-2,1,0,0,1,9,169,107,1,,,,,,,,
,,,,,,,,,,,,,FF,,,,,,,,1.1667,,,,,,,,,,,,,,,,,,,,,,60fdd20d5832a81323b3c8f9,61036ee77388e7c156ebdc33,2021-07-29_23h18.40.295,Simcolourproject_2stim_asymm_v5,2020.2.10,Win32,60,61025ae37ef11b136ea224fe,,,,,,,,,1412,64,24,1,0,0,response1disk,,6,10,-2,1,0,0,rectangle,10,-2,1,0,0,10,-2,1,0,0,1,10,170,126,1,,,,,,,,
,,,,,,,,,,,,,FF,,,,,,,,1.6507,,,,,,,,,,,,,,,,,,,,,,60fdd20d5832a81323b3c8f9,61036ee77388e7c156ebdc33,2021-07-29_23h18.40.295,Simcolourproject_2stim_asymm_v5,2020.2.10,Win32,60,61025ae37ef11b136ea224fe,,,,,,,,,1962,-54,-38,1,0,0,response5disk,,2,-10,-12,1,0,0,rectangle,-10,-12,1,0,0,-10,-12,1,0,0,1,11,171,156,1,,,,,,,,
,,,,,,,,,,,,,FF,,,,,,,,1.1339,,,,,,,,,,,,,,,,,,,,,,60fdd20d5832a81323b3c8f9,61036ee77388e7c156ebdc33,2021-07-29_23h18.40.295,Simcolourproject_2stim_asymm_v5,2020.2.10,Win32,60,61025ae37ef11b136ea224fe,,,,,,,,,2159,44,70,1,0,0,response1disk,,7,-1,6,1,0,0,rectangle,-1,6,1,0,0,-1,6,1,0,0,1,12,172,154,1,,,,,,,,
,,,,,,,,,,,,,FF,,,,,,,,2.6335,,,,,,,,,,,,,,,,,,,,,,60fdd20d5832a81323b3c8f9,61036ee77388e7c156ebdc33,2021-07-29_23h18.40.295,Simcolourproject_2stim_asymm_v5,2020.2.10,Win32,60,61025ae37ef11b136ea224fe,,,,,,,,,3865,36,65,1,0,0,response1disk,,7,3,7,1,0,0,rectangle,3,7,1,0,0,3,7,1,0,0,1,13,173,102,1,,,,,,,,
,,,,,,,,,,,,,FF,,,,,,,,1.1339,,,,,,,,,,,,,,,,,,,,,,60fdd20d5832a81323b3c8f9,61036ee77388e7c156ebdc33,2021-07-29_23h18.40.295,Simcolourproject_2stim_asymm_v5,2020.2.10,Win32,60,61025ae37ef11b136ea224fe,,,,,,,,,4069,42,69,1,0,0,response1disk,,7,1,4,1,0,0,rectangle,1,4,1,0,0,1,4,1,0,0,1,14,174,84,1,,,,,,,,
,,,,,,,,,,,,,FF,,,,,,,,1.4012,,,,,,,,,,,,,,,,,,,,,,60fdd20d5832a81323b3c8f9,61036ee77388e7c156ebdc33,2021-07-29_23h18.40.295,Simcolourproject_2stim_asymm_v5,2020.2.10,Win32,60,61025ae37ef11b136ea224fe,,,,,,,,,3420,-43,-34,1,0,0,response5disk,,2,20,0,1,0,0,rectangle,20,0,1,0,0,20,0,1,0,0,1,15,175,131,1,,,,,,,,
,,,,,,,,,,,,,FF,,,,,,,,0.9506,,,,,,,,,,,,,,,,,,,,,,60fdd20d5832a81323b3c8f9,61036ee77388e7c156ebdc33,2021-07-29_23h18.40.295,Simcolourproject_2stim_asymm_v5,2020.2.10,Win32,60,61025ae37ef11b136ea224fe,,,,,,,,,2698,63,-34,1,0,0,response3disk,,5,-3,6,1,0,0,rectangle,-3,6,1,0,0,-3,6,1,0,0,1,16,176,138,1,,,,,,,,
,,,,,,,,,,,,,FF,,,,,,,,1.4008,,,,,,,,,,,,,,,,,,,,,,60fdd20d5832a81323b3c8f9,61036ee77388e7c156ebdc33,2021-07-29_23h18.40.295,Simcolourproject_2stim_asymm_v5,2020.2.10,Win32,60,61025ae37ef11b136ea224fe,,,,,,,,,2973,51,76,1,0,0,response1disk,,7,0,-1,1,0,0,rectangle,0,-1,1,0,0,0,-1,1,0,0,1,17,177,48,1,,,,,,,,
,,,,,,,,,,,,,FF,,,,,,,,1.0334,,,,,,,,,,,,,,,,,,,,,,60fdd20d5832a81323b3c8f9,61036ee77388e7c156ebdc33,2021-07-29_23h18.40.295,Simcolourproject_2stim_asymm_v5,2020.2.10,Win32,60,61025ae37ef11b136ea224fe,,,,,,,,,792,20,59,1,0,0,response1disk,,7,-15,8,1,0,0,rectangle,-15,8,1,0,0,-15,8,1,0,0,1,18,178,133,1,,,,,,,,
,,,,,,,,,,,,,FF,,,,,,,,1.1499,,,,,,,,,,,,,,,,,,,,,,60fdd20d5832a81323b3c8f9,61036ee77388e7c156ebdc33,2021-07-29_23h18.40.295,Simcolourproject_2stim_asymm_v5,2020.2.10,Win32,60,61025ae37ef11b136ea224fe,,,,,,,,,3742,-58,-36,1,0,0,response5disk,,2,-5,2,1,0,0,rectangle,-5,2,1,0,0,-5,2,1,0,0,1,19,179,54,1,,,,,,,,
,,,,,,,,,,,,,FF,,,,,,,,1.2842,,,,,,,,,,,,,,,,,,,,,,60fdd20d5832a81323b3c8f9,61036ee77388e7c156ebdc33,2021-07-29_23h18.40.295,Simcolourproject_2stim_asymm_v5,2020.2.10,Win32,60,61025ae37ef11b136ea224fe,,,,,,,,,424,54,-35,1,0,0,response3disk,,5,-2,3,1,0,0,rectangle,-2,3,1,0,0,-2,3,1,0,0,1,20,180,146,1,,,,,,,,
,,,,,,,,,,,,,FF,,,,,,,,1.2169,,,,,,,,,,,,,,,,,,,,,,60fdd20d5832a81323b3c8f9,61036ee77388e7c156ebdc33,2021-07-29_23h18.40.295,Simcolourproject_2stim_asymm_v5,2020.2.10,Win32,60,61025ae37ef11b136ea224fe,,,,,,,,,1982,51,30,1,0,0,response1disk,,6,-9,-5,1,0,0,rectangle,-9,-5,1,0,0,-9,-5,1,0,0,1,21,181,64,1,,,,,,,,
,,,,,,,,,,,,,FF,,,,,,,,1.9502,,,,,,,,,,,,,,,,,,,,,,60fdd20d5832a81323b3c8f9,61036ee77388e7c156ebdc33,2021-07-29_23h18.40.295,Simcolourproject_2stim_asymm_v5,2020.2.10,Win32,60,61025ae37ef11b136ea224fe,,,,,,,,,173,-39,-47,1,0,0,response5disk,,3,14,4,1,0,0,rectangle,14,4,1,0,0,14,4,1,0,0,1,22,182,24,1,,,,,,,,
,,,,,,,,,,,,,FF,,,,,,,,1.901,,,,,,,,,,,,,,,,,,,,,,60fdd20d5832a81323b3c8f9,61036ee77388e7c156ebdc33,2021-07-29_23h18.40.295,Simcolourproject_2stim_asymm_v5,2020.2.10,Win32,60,61025ae37ef11b136ea224fe,,,,,,,,,3016,70,45,1,0,0,response1disk,,6,1,-8,1,0,0,rectangle,1,-8,1,0,0,1,-8,1,0,0,1,23,183,31,1,,,,,,,,
,,,,,,,,,,,,,FF,,,,,,,,1.4001,,,,,,,,,,,,,,,,,,,,,,60fdd20d5832a81323b3c8f9,61036ee77388e7c156ebdc33,2021-07-29_23h18.40.295,Simcolourproject_2stim_asymm_v5,2020.2.10,Win32,60,61025ae37ef11b136ea224fe,,,,,,,,,4121,-28,-56,1,0,0,response5disk,,3,-8,-11,1,0,0,rectangle,-8,-11,1,0,0,-8,-11,1,0,0,1,24,184,158,1,,,,,,,,
,,,,,,,,,,,,,FF,,,,,,,,2.6836,,,,,,,,,,,,,,,,,,,,,,60fdd20d5832a81323b3c8f9,61036ee77388e7c156ebdc33,2021-07-29_23h18.40.295,Simcolourproject_2stim_asymm_v5,2020.2.10,Win32,60,61025ae37ef11b136ea224fe,,,,,,,,,1313,27,-60,1,0,0,response3disk,,4,2,0,1,0,0,rectangle,2,0,1,0,0,2,0,1,0,0,1,25,185,51,1,,,,,,,,
,,,,,,,,,,,,,FF,,,,,,,,1.0834,,,,,,,,,,,,,,,,,,,,,,60fdd20d5832a81323b3c8f9,61036ee77388e7c156ebdc33,2021-07-29_23h18.40.295,Simcolourproject_2stim_asymm_v5,2020.2.10,Win32,60,61025ae37ef11b136ea224fe,,,,,,,,,3993,-52,-31,1,0,0,response5disk,,2,-1,3,1,0,0,rectangle,82,-39,1,0,0,-10,6,1,0,0,1,26,186,36,1,,response3disk_3,TRUE,5,5,"[230,61,262,322,152,251,5,187,204,3,269,158,218,158,112,6,125,265,50,25]",1.7333,rectangle
,,,,,,,,,,,,,FF,,,,,,,,0.9837,,,,,,,,,,,,,,,,,,,,,,60fdd20d5832a81323b3c8f9,61036ee77388e7c156ebdc33,2021-07-29_23h18.40.295,Simcolourproject_2stim_asymm_v5,2020.2.10,Win32,60,61025ae37ef11b136ea224fe,,,,,,,,,4369,-41,104,1,0,0,response7disk,,0,-5,5,1,0,0,rectangle,-5,5,1,0,0,-5,5,1,0,0,1,27,187,151,1,,,,,,,,
,,,,,,,,,,,,,FF,,,,,,,,1.2504,,,,,,,,,,,,,,,,,,,,,,60fdd20d5832a81323b3c8f9,61036ee77388e7c156ebdc33,2021-07-29_23h18.40.295,Simcolourproject_2stim_asymm_v5,2020.2.10,Win32,60,61025ae37ef11b136ea224fe,,,,,,,,,311,43,71,1,0,0,response1disk,,7,5,5,1,0,0,rectangle,5,5,1,0,0,5,5,1,0,0,1,28,188,92,1,,,,,,,,
,,,,,,,,,,,,,FF,,,,,,,,3.0841,,,,,,,,,,,,,,,,,,,,,,60fdd20d5832a81323b3c8f9,61036ee77388e7c156ebdc33,2021-07-29_23h18.40.295,Simcolourproject_2stim_asymm_v5,2020.2.10,Win32,60,61025ae37ef11b136ea224fe,,,,,,,,,2896,40,-69,1,0,0,response3disk,,4,-4,-7,1,0,0,rectangle,-4,-7,1,0,0,-4,-7,1,0,0,1,29,189,114,1,,,,,,,,
,,,,,,,,,,,,,FF,,,,,,,,1.2013,,,,,,,,,,,,,,,,,,,,,,60fdd20d5832a81323b3c8f9,61036ee77388e7c156ebdc33,2021-07-29_23h18.40.295,Simcolourproject_2stim_asymm_v5,2020.2.10,Win32,60,61025ae37ef11b136ea224fe,,,,,,,,,2359,21,-39,1,0,0,response3disk,,4,2,-2,1,0,0,rectangle,2,-2,1,0,0,2,-2,1,0,0,1,30,190,111,1,,,,,,,,
,,,,,,,,,,,,,FF,,,,,,,,1.3338,,,,,,,,,,,,,,,,,,,,,,60fdd20d5832a81323b3c8f9,61036ee77388e7c156ebdc33,2021-07-29_23h18.40.295,Simcolourproject_2stim_asymm_v5,2020.2.10,Win32,60,61025ae37ef11b136ea224fe,,,,,,,,,2284,-45,-90,1,0,0,response5disk,,3,-24,3,1,0,0,rectangle,-24,3,1,0,0,-24,3,1,0,0,1,31,191,81,1,,,,,,,,
,,,,,,,,,,,,,FF,,,,,,,,1.5173,,,,,,,,,,,,,,,,,,,,,,60fdd20d5832a81323b3c8f9,61036ee77388e7c156ebdc33,2021-07-29_23h18.40.295,Simcolourproject_2stim_asymm_v5,2020.2.10,Win32,60,61025ae37ef11b136ea224fe,,,,,,,,,4114,-66,-39,1,0,0,response5disk,,2,7,-4,1,0,0,rectangle,7,-4,1,0,0,7,-4,1,0,0,1,32,192,137,1,,,,,,,,
,,,,,,,,,,,,,FF,,,,,,,,1.6173,,,,,,,,,,,,,,,,,,,,,,60fdd20d5832a81323b3c8f9,61036ee77388e7c156ebdc33,2021-07-29_23h18.40.295,Simcolourproject_2stim_asymm_v5,2020.2.10,Win32,60,61025ae37ef11b136ea224fe,,,,,,,,,975,-77,-49,1,0,0,response5disk,,2,-1,8,1,0,0,rectangle,-1,8,1,0,0,-1,8,1,0,0,1,33,193,132,1,,,,,,,,
,,,,,,,,,,,,,FF,,,,,,,,2.8668,,,,,,,,,,,,,,,,,,,,,,60fdd20d5832a81323b3c8f9,61036ee77388e7c156ebdc33,2021-07-29_23h18.40.295,Simcolourproject_2stim_asymm_v5,2020.2.10,Win32,60,61025ae37ef11b136ea224fe,,,,,,,,,4298,-18,-73,1,0,0,response5disk,,3,0,8,1,0,0,rectangle,0,8,1,0,0,0,8,1,0,0,1,34,194,128,1,,,,,,,,
,,,,,,,,,,,,,FF,,,,,,,,2.4509,,,,,,,,,,,,,,,,,,,,,,60fdd20d5832a81323b3c8f9,61036ee77388e7c156ebdc33,2021-07-29_23h18.40.295,Simcolourproject_2stim_asymm_v5,2020.2.10,Win32,60,61025ae37ef11b136ea224fe,,,,,,,,,270,-18,-64,1,0,0,response5disk,,3,-2,-2,1,0,0,rectangle,-2,-2,1,0,0,-2,-2,1,0,0,1,35,195,30,1,,,,,,,,
,,,,,,,,,,,,,FF,,,,,,,,1.4502,,,,,,,,,,,,,,,,,,,,,,60fdd20d5832a81323b3c8f9,61036ee77388e7c156ebdc33,2021-07-29_23h18.40.295,Simcolourproject_2stim_asymm_v5,2020.2.10,Win32,60,61025ae37ef11b136ea224fe,,,,,,,,,160,59,-48,1,0,0,response3disk,,5,9,-11,1,0,0,rectangle,9,-11,1,0,0,9,-11,1,0,0,1,36,196,60,1,,,,,,,,
,,,,,,,,,,,,,FF,,,,,,,,1.1001,,,,,,,,,,,,,,,,,,,,,,60fdd20d5832a81323b3c8f9,61036ee77388e7c156ebdc33,2021-07-29_23h18.40.295,Simcolourproject_2stim_asymm_v5,2020.2.10,Win32,60,61025ae37ef11b136ea224fe,,,,,,,,,163,73,-25,1,0,0,response3disk,,5,6,-4,1,0,0,rectangle,6,-4,1,0,0,6,-4,1,0,0,1,37,197,145,1,,,,,,,,
,,,,,,,,,,,,,FF,,,,,,,,1.167,,,,,,,,,,,,,,,,,,,,,,60fdd20d5832a81323b3c8f9,61036ee77388e7c156ebdc33,2021-07-29_23h18.40.295,Simcolourproject_2stim_asymm_v5,2020.2.10,Win32,60,61025ae37ef11b136ea224fe,,,,,,,,,3500,60,24,1,0,0,response1disk,,6,4,0,1,0,0,rectangle,4,0,1,0,0,4,0,1,0,0,1,38,198,91,1,,,,,,,,
,,,,,,,,,,,,,FF,,,,,,,,1.2506,,,,,,,,,,,,,,,,,,,,,,60fdd20d5832a81323b3c8f9,61036ee77388e7c156ebdc33,2021-07-29_23h18.40.295,Simcolourproject_2stim_asymm_v5,2020.2.10,Win32,60,61025ae37ef11b136ea224fe,,,,,,,,,3148,-37,-52,1,0,0,response5disk,,3,5,0,1,0,0,rectangle,5,0,1,0,0,5,0,1,0,0,1,39,199,38,1,,,,,,,,
,,,,,,,,,,,,,FF,,,,,,,,1.9174,,,,,,,,,,,,,,,,,,,,,,60fdd20d5832a81323b3c8f9,61036ee77388e7c156ebdc33,2021-07-29_23h18.40.295,Simcolourproject_2stim_asymm_v5,2020.2.10,Win32,60,61025ae37ef11b136ea224fe,,,,,,,,,3687,79,54,1,0,0,response1disk,,6,-3,-3,1,0,0,rectangle,-3,-3,1,0,0,-3,-3,1,0,0,1,40,200,5,1,,,,,,,,
,,,,,,,,,,,,,FF,,,,,,,,0.9507,,,,,,,,,,,,,,,,,,,,,,60fdd20d5832a81323b3c8f9,61036ee77388e7c156ebdc33,2021-07-29_23h18.40.295,Simcolourproject_2stim_asymm_v5,2020.2.10,Win32,60,61025ae37ef11b136ea224fe,,,,,,,,,4362,-59,34,1,0,0,response7disk,,1,-12,7,1,0,0,rectangle,-12,7,1,0,0,-12,7,1,0,0,1,41,201,15,1,,,,,,,,
,,,,,,,,,,,,,FF,,,,,,,,1.017,,,,,,,,,,,,,,,,,,,,,,60fdd20d5832a81323b3c8f9,61036ee77388e7c156ebdc33,2021-07-29_23h18.40.295,Simcolourproject_2stim_asymm_v5,2020.2.10,Win32,60,61025ae37ef11b136ea224fe,,,,,,,,,3032,55,85,1,0,0,response1disk,,7,-3,1,1,0,0,rectangle,-3,1,1,0,0,-3,1,1,0,0,1,42,202,62,1,,,,,,,,
,,,,,,,,,,,,,FF,,,,,,,,2.6509,,,,,,,,,,,,,,,,,,,,,,60fdd20d5832a81323b3c8f9,61036ee77388e7c156ebdc33,2021-07-29_23h18.40.295,Simcolourproject_2stim_asymm_v5,2020.2.10,Win32,60,61025ae37ef11b136ea224fe,,,,,,,,,726,-70,-51,1,0,0,response5disk,,2,5,-1,1,0,0,rectangle,-80,-48,1,0,0,3,-6,1,0,0,1,43,203,148,1,,response5disk_3,TRUE,2,2,"[230,61,262,322,152,251,5,187,204,3,269,158,218,158,112,6,125,265,50,25]",2.1837,rectangle
,,,,,,,,,,,,,FF,,,,,,,,1.0337,,,,,,,,,,,,,,,,,,,,,,60fdd20d5832a81323b3c8f9,61036ee77388e7c156ebdc33,2021-07-29_23h18.40.295,Simcolourproject_2stim_asymm_v5,2020.2.10,Win32,60,61025ae37ef11b136ea224fe,,,,,,,,,3277,59,45,1,0,0,response1disk,,6,-4,-6,1,0,0,rectangle,-4,-6,1,0,0,-4,-6,1,0,0,1,44,204,10,1,,,,,,,,
,,,,,,,,,,,,,FF,,,,,,,,1.117,,,,,,,,,,,,,,,,,,,,,,60fdd20d5832a81323b3c8f9,61036ee77388e7c156ebdc33,2021-07-29_23h18.40.295,Simcolourproject_2stim_asymm_v5,2020.2.10,Win32,60,61025ae37ef11b136ea224fe,,,,,,,,,3705,-49,24,1,0,0,response7disk,,1,-6,0,1,0,0,rectangle,-6,0,1,0,0,-6,0,1,0,0,1,45,205,149,1,,,,,,,,
,,,,,,,,,,,,,FF,,,,,,,,1.4507,,,,,,,,,,,,,,,,,,,,,,60fdd20d5832a81323b3c8f9,61036ee77388e7c156ebdc33,2021-07-29_23h18.40.295,Simcolourproject_2stim_asymm_v5,2020.2.10,Win32,60,61025ae37ef11b136ea224fe,,,,,,,,,3051,-16,-87,1,0,0,response5disk,,3,0,-9,1,0,0,rectangle,0,-9,1,0,0,0,-9,1,0,0,1,46,206,26,1,,,,,,,,
,,,,,,,,,,,,,FF,,,,,,,,1.0339,,,,,,,,,,,,,,,,,,,,,,60fdd20d5832a81323b3c8f9,61036ee77388e7c156ebdc33,2021-07-29_23h18.40.295,Simcolourproject_2stim_asymm_v5,2020.2.10,Win32,60,61025ae37ef11b136ea224fe,,,,,,,,,869,50,-57,1,0,0,response3disk,,4,1,2,1,0,0,rectangle,1,2,1,0,0,1,2,1,0,0,1,47,207,98,1,,,,,,,,
,,,,,,,,,,,,,FF,,,,,,,,1.6338,,,,,,,,,,,,,,,,,,,,,,60fdd20d5832a81323b3c8f9,61036ee77388e7c156ebdc33,2021-07-29_23h18.40.295,Simcolourproject_2stim_asymm_v5,2020.2.10,Win32,60,61025ae37ef11b136ea224fe,,,,,,,,,369,25,-64,1,0,0,response3disk,,4,-4,-5,1,0,0,rectangle,-4,-5,1,0,0,-4,-5,1,0,0,1,48,208,22,1,,,,,,,,
,,,,,,,,,,,,,FF,,,,,,,,1.5174,,,,,,,,,,,,,,,,,,,,,,60fdd20d5832a81323b3c8f9,61036ee77388e7c156ebdc33,2021-07-29_23h18.40.295,Simcolourproject_2stim_asymm_v5,2020.2.10,Win32,60,61025ae37ef11b136ea224fe,,,,,,,,,3067,77,38,1,0,0,response1disk,,6,6,2,1,0,0,rectangle,6,2,1,0,0,6,2,1,0,0,1,49,209,21,1,,,,,,,,
,,,,,,,,,,,,,FF,,,,,,,,1.5674,,,,,,,,,,,,,,,,,,,,,,60fdd20d5832a81323b3c8f9,61036ee77388e7c156ebdc33,2021-07-29_23h18.40.295,Simcolourproject_2stim_asymm_v5,2020.2.10,Win32,60,61025ae37ef11b136ea224fe,,,,,,,,,1032,63,29,1,0,0,response1disk,,6,14,-1,1,0,0,rectangle,14,-1,1,0,0,14,-1,1,0,0,1,50,210,66,1,,,,,,,,
,,,,,,,,,,,,,FF,,,,,,,,2.0503,,,,,,,,,,,,,,,,,,,,,,60fdd20d5832a81323b3c8f9,61036ee77388e7c156ebdc33,2021-07-29_23h18.40.295,Simcolourproject_2stim_asymm_v5,2020.2.10,Win32,60,61025ae37ef11b136ea224fe,,,,,,,,,915,66,19,1,0,0,response1disk,,6,2,-1,1,0,0,rectangle,2,-1,1,0,0,2,-1,1,0,0,1,51,211,74,1,,,,,,,,
,,,,,,,,,,,,,FF,,,,,,,,1.167,,,,,,,,,,,,,,,,,,,,,,60fdd20d5832a81323b3c8f9,61036ee77388e7c156ebdc33,2021-07-29_23h18.40.295,Simcolourproject_2stim_asymm_v5,2020.2.10,Win32,60,61025ae37ef11b136ea224fe,,,,,,,,,2026,-29,-64,1,0,0,response5disk,,3,0,3,1,0,0,rectangle,0,3,1,0,0,0,3,1,0,0,1,52,212,143,1,,,,,,,,
,,,,,,,,,,,,,FF,,,,,,,,2.1175,,,,,,,,,,,,,,,,,,,,,,60fdd20d5832a81323b3c8f9,61036ee77388e7c156ebdc33,2021-07-29_23h18.40.295,Simcolourproject_2stim_asymm_v5,2020.2.10,Win32,60,61025ae37ef11b136ea224fe,,,,,,,,,2053,72,-57,1,0,0,response3disk,,5,5,-5,1,0,0,rectangle,5,-5,1,0,0,5,-5,1,0,0,1,53,213,19,1,,,,,,,,
,,,,,,,,,,,,,FF,,,,,,,,1.7083,,,,,,,,,,,,,,,,,,,,,,60fdd20d5832a81323b3c8f9,61036ee77388e7c156ebdc33,2021-07-29_23h18.40.295,Simcolourproject_2stim_asymm_v5,2020.2.10,Win32,60,61025ae37ef11b136ea224fe,,,,,,,,,1021,43,68,1,0,0,response1disk,,7,-3,-7,1,0,0,rectangle,-3,-7,1,0,0,-3,-7,1,0,0,1,54,214,118,1,,,,,,,,
,,,,,,,,,,,,,FF,,,,,,,,1.4831,,,,,,,,,,,,,,,,,,,,,,60fdd20d5832a81323b3c8f9,61036ee77388e7c156ebdc33,2021-07-29_23h18.40.295,Simcolourproject_2stim_asymm_v5,2020.2.10,Win32,60,61025ae37ef11b136ea224fe,,,,,,,,,435,40,-28,1,0,0,response3disk,,5,11,-5,1,0,0,rectangle,11,-5,1,0,0,11,-5,1,0,0,1,55,215,157,1,,,,,,,,
,,,,,,,,,,,,,FF,,,,,,,,1.7336,,,,,,,,,,,,,,,,,,,,,,60fdd20d5832a81323b3c8f9,61036ee77388e7c156ebdc33,2021-07-29_23h18.40.295,Simcolourproject_2stim_asymm_v5,2020.2.10,Win32,60,61025ae37ef11b136ea224fe,,,,,,,,,723,31,-66,1,0,0,response3disk,,4,-1,4,1,0,0,rectangle,-1,4,1,0,0,-1,4,1,0,0,1,56,216,89,1,,,,,,,,
,,,,,,,,,,,,,FF,,,,,,,,0.9837,,,,,,,,,,,,,,,,,,,,,,60fdd20d5832a81323b3c8f9,61036ee77388e7c156ebdc33,2021-07-29_23h18.40.295,Simcolourproject_2stim_asymm_v5,2020.2.10,Win32,60,61025ae37ef11b136ea224fe,,,,,,,,,2300,-35,-66,1,0,0,response5disk,,3,-13,-4,1,0,0,rectangle,39,-83,1,0,0,3,-1,1,0,0,1,57,217,119,1,,response3disk_3,TRUE,4,4,"[230,61,262,322,152,251,5,187,204,3,269,158,218,158,112,6,125,265,50,25]",1.6838,rectangle
,,,,,,,,,,,,,FF,,,,,,,,1.3503,,,,,,,,,,,,,,,,,,,,,,60fdd20d5832a81323b3c8f9,61036ee77388e7c156ebdc33,2021-07-29_23h18.40.295,Simcolourproject_2stim_asymm_v5,2020.2.10,Win32,60,61025ae37ef11b136ea224fe,,,,,,,,,3415,46,64,1,0,0,response1disk,,7,-8,3,1,0,0,rectangle,-8,3,1,0,0,-8,3,1,0,0,1,58,218,35,1,,,,,,,,
,,,,,,,,,,,,,FF,,,,,,,,1.4131,,,,,,,,,,,,,,,,,,,,,,60fdd20d5832a81323b3c8f9,61036ee77388e7c156ebdc33,2021-07-29_23h18.40.295,Simcolourproject_2stim_asymm_v5,2020.2.10,Win32,60,61025ae37ef11b136ea224fe,,,,,,,,,287,37,-58,1,0,0,response3disk,,4,-6,-9,1,0,0,rectangle,-6,-9,1,0,0,-6,-9,1,0,0,1,59,219,155,1,,,,,,,,
,,,,,,,,,,,,,FF,,,,,,,,0.9699,,,,,,,,,,,,,,,,,,,,,,60fdd20d5832a81323b3c8f9,61036ee77388e7c156ebdc33,2021-07-29_23h18.40.295,Simcolourproject_2stim_asymm_v5,2020.2.10,Win32,60,61025ae37ef11b136ea224fe,,,,,,,,,1975,-27,-57,1,0,0,response5disk,,3,-9,-8,1,0,0,rectangle,-9,-8,1,0,0,-9,-8,1,0,0,1,60,220,80,1,,,,,,,,
,,,,,,,,,,,,,FF,,,,,,,,1.5305,,,,,,,,,,,,,,,,,,,,,,60fdd20d5832a81323b3c8f9,61036ee77388e7c156ebdc33,2021-07-29_23h18.40.295,Simcolourproject_2stim_asymm_v5,2020.2.10,Win32,60,61025ae37ef11b136ea224fe,,,,,,,,,4224,-46,-62,1,0,0,response5disk,,3,-5,7,1,0,0,rectangle,-5,7,1,0,0,-5,7,1,0,0,1,61,221,43,1,,,,,,,,
,,,,,,,,,,,,,FF,,,,,,,,1.8337,,,,,,,,,,,,,,,,,,,,,,60fdd20d5832a81323b3c8f9,61036ee77388e7c156ebdc33,2021-07-29_23h18.40.295,Simcolourproject_2stim_asymm_v5,2020.2.10,Win32,60,61025ae37ef11b136ea224fe,,,,,,,,,1873,65,-26,1,0,0,response3disk,,5,-1,-4,1,0,0,rectangle,-1,-4,1,0,0,-1,-4,1,0,0,1,62,222,134,1,,,,,,,,
,,,,,,,,,,,,,FF,,,,,,,,1.2215,,,,,,,,,,,,,,,,,,,,,,60fdd20d5832a81323b3c8f9,61036ee77388e7c156ebdc33,2021-07-29_23h18.40.295,Simcolourproject_2stim_asymm_v5,2020.2.10,Win32,60,61025ae37ef11b136ea224fe,,,,,,,,,3401,53,-24,1,0,0,response3disk,,5,-2,2,1,0,0,rectangle,-2,2,1,0,0,-2,2,1,0,0,1,63,223,108,1,,,,,,,,
,,,,,,,,,,,,,FF,,,,,,,,1.6337,,,,,,,,,,,,,,,,,,,,,,60fdd20d5832a81323b3c8f9,61036ee77388e7c156ebdc33,2021-07-29_23h18.40.295,Simcolourproject_2stim_asymm_v5,2020.2.10,Win32,60,61025ae37ef11b136ea224fe,,,,,,,,,1052,-36,-82,1,0,0,response5disk,,3,5,3,1,0,0,rectangle,5,3,1,0,0,5,3,1,0,0,1,64,224,94,1,,,,,,,,
,,,,,,,,,,,,,FF,,,,,,,,1.7,,,,,,,,,,,,,,,,,,,,,,60fdd20d5832a81323b3c8f9,61036ee77388e7c156ebdc33,2021-07-29_23h18.40.295,Simcolourproject_2stim_asymm_v5,2020.2.10,Win32,60,61025ae37ef11b136ea224fe,,,,,,,,,127,51,-21,1,0,0,response3disk,,5,13,-2,1,0,0,rectangle,13,-2,1,0,0,13,-2,1,0,0,1,65,225,110,1,,,,,,,,
,,,,,,,,,,,,,FF,,,,,,,,2.9673,,,,,,,,,,,,,,,,,,,,,,60fdd20d5832a81323b3c8f9,61036ee77388e7c156ebdc33,2021-07-29_23h18.40.295,Simcolourproject_2stim_asymm_v5,2020.2.10,Win32,60,61025ae37ef11b136ea224fe,,,,,,,,,2825,36,-89,1,0,0,response3disk,,4,-3,-7,1,0,0,rectangle,-3,-7,1,0,0,-3,-7,1,0,0,1,66,226,100,1,,,,,,,,
,,,,,,,,,,,,,FF,,,,,,,,1.4335,,,,,,,,,,,,,,,,,,,,,,60fdd20d5832a81323b3c8f9,61036ee77388e7c156ebdc33,2021-07-29_23h18.40.295,Simcolourproject_2stim_asymm_v5,2020.2.10,Win32,60,61025ae37ef11b136ea224fe,,,,,,,,,1986,78,33,1,0,0,response1disk,,6,13,1,1,0,0,rectangle,13,1,1,0,0,13,1,1,0,0,1,67,227,12,1,,,,,,,,
,,,,,,,,,,,,,FF,,,,,,,,1.9368,,,,,,,,,,,,,,,,,,,,,,60fdd20d5832a81323b3c8f9,61036ee77388e7c156ebdc33,2021-07-29_23h18.40.295,Simcolourproject_2stim_asymm_v5,2020.2.10,Win32,60,61025ae37ef11b136ea224fe,,,,,,,,,2595,61,-20,1,0,0,response3disk,,5,9,-6,1,0,0,rectangle,9,-6,1,0,0,9,-6,1,0,0,1,68,228,11,1,,,,,,,,
,,,,,,,,,,,,,FF,,,,,,,,2.0338,,,,,,,,,,,,,,,,,,,,,,60fdd20d5832a81323b3c8f9,61036ee77388e7c156ebdc33,2021-07-29_23h18.40.295,Simcolourproject_2stim_asymm_v5,2020.2.10,Win32,60,61025ae37ef11b136ea224fe,,,,,,,,,399,44,-26,1,0,0,response3disk,,5,4,-8,1,0,0,rectangle,-74,31,1,0,0,-8,4,1,0,0,1,69,229,123,1,,response7disk_3,TRUE,1,1,"[230,61,262,322,152,251,5,187,204,3,269,158,218,158,112,6,125,265,50,25]",1.6996,rectangle
,,,,,,,,,,,,,FF,,,,,,,,1.767,,,,,,,,,,,,,,,,,,,,,,60fdd20d5832a81323b3c8f9,61036ee77388e7c156ebdc33,2021-07-29_23h18.40.295,Simcolourproject_2stim_asymm_v5,2020.2.10,Win32,60,61025ae37ef11b136ea224fe,,,,,,,,,774,32,51,1,0,0,response1disk,,7,-3,-4,1,0,0,rectangle,-3,-4,1,0,0,-3,-4,1,0,0,1,70,230,45,1,,,,,,,,
,,,,,,,,,,,,,FF,,,,,,,,1.0672,,,,,,,,,,,,,,,,,,,,,,60fdd20d5832a81323b3c8f9,61036ee77388e7c156ebdc33,2021-07-29_23h18.40.295,Simcolourproject_2stim_asymm_v5,2020.2.10,Win32,60,61025ae37ef11b136ea224fe,,,,,,,,,2935,-38,-26,1,0,0,response5disk,,2,-2,-3,1,0,0,rectangle,-2,-3,1,0,0,-2,-3,1,0,0,1,71,231,33,1,,,,,,,,
,,,,,,,,,,,,,FF,,,,,,,,1.8326,,,,,,,,,,,,,,,,,,,,,,60fdd20d5832a81323b3c8f9,61036ee77388e7c156ebdc33,2021-07-29_23h18.40.295,Simcolourproject_2stim_asymm_v5,2020.2.10,Win32,60,61025ae37ef11b136ea224fe,,,,,,,,,3021,61,60,1,0,0,response1disk,,6,16,10,1,0,0,rectangle,16,10,1,0,0,16,10,1,0,0,1,72,232,112,1,,,,,,,,
,,,,,,,,,,,,,FF,,,,,,,,1.0125,,,,,,,,,,,,,,,,,,,,,,60fdd20d5832a81323b3c8f9,61036ee77388e7c156ebdc33,2021-07-29_23h18.40.295,Simcolourproject_2stim_asymm_v5,2020.2.10,Win32,60,61025ae37ef11b136ea224fe,,,,,,,,,326,55,19,1,0,0,response1disk,,6,-2,-12,1,0,0,rectangle,-2,-12,1,0,0,-2,-12,1,0,0,1,73,233,9,1,,,,,,,,
,,,,,,,,,,,,,FF,,,,,,,,1.3336,,,,,,,,,,,,,,,,,,,,,,60fdd20d5832a81323b3c8f9,61036ee77388e7c156ebdc33,2021-07-29_23h18.40.295,Simcolourproject_2stim_asymm_v5,2020.2.10,Win32,60,61025ae37ef11b136ea224fe,,,,,,,,,2941,-57,-38,1,0,0,response5disk,,2,6,1,1,0,0,rectangle,6,1,1,0,0,6,1,1,0,0,1,74,234,129,1,,,,,,,,
,,,,,,,,,,,,,FF,,,,,,,,1.4468,,,,,,,,,,,,,,,,,,,,,,60fdd20d5832a81323b3c8f9,61036ee77388e7c156ebdc33,2021-07-29_23h18.40.295,Simcolourproject_2stim_asymm_v5,2020.2.10,Win32,60,61025ae37ef11b136ea224fe,,,,,,,,,323,51,75,1,0,0,response1disk,,7,-5,-5,1,0,0,rectangle,-5,-5,1,0,0,-5,-5,1,0,0,1,75,235,50,1,,,,,,,,
,,,,,,,,,,,,,FF,,,,,,,,1.5144,,,,,,,,,,,,,,,,,,,,,,60fdd20d5832a81323b3c8f9,61036ee77388e7c156ebdc33,2021-07-29_23h18.40.295,Simcolourproject_2stim_asymm_v5,2020.2.10,Win32,60,61025ae37ef11b136ea224fe,,,,,,,,,3594,62,-38,1,0,0,response3disk,,5,13,-10,1,0,0,rectangle,13,-10,1,0,0,13,-10,1,0,0,1,76,236,68,1,,,,,,,,
,,,,,,,,,,,,,FF,,,,,,,,1.0021,,,,,,,,,,,,,,,,,,,,,,60fdd20d5832a81323b3c8f9,61036ee77388e7c156ebdc33,2021-07-29_23h18.40.295,Simcolourproject_2stim_asymm_v5,2020.2.10,Win32,60,61025ae37ef11b136ea224fe,,,,,,,,,2215,36,64,1,0,0,response1disk,,7,3,5,1,0,0,rectangle,3,5,1,0,0,3,5,1,0,0,1,77,237,37,1,,,,,,,,
,,,,,,,,,,,,,FF,,,,,,,,2.07,,,,,,,,,,,,,,,,,,,,,,60fdd20d5832a81323b3c8f9,61036ee77388e7c156ebdc33,2021-07-29_23h18.40.295,Simcolourproject_2stim_asymm_v5,2020.2.10,Win32,60,61025ae37ef11b136ea224fe,,,,,,,,,83,33,-75,1,0,0,response3disk,,4,-2,-4,1,0,0,rectangle,-2,-4,1,0,0,-2,-4,1,0,0,1,78,238,117,1,,,,,,,,
,,,,,,,,,,,,,FF,,,,,,,,2.014,,,,,,,,,,,,,,,,,,,,,,60fdd20d5832a81323b3c8f9,61036ee77388e7c156ebdc33,2021-07-29_23h18.40.295,Simcolourproject_2stim_asymm_v5,2020.2.10,Win32,60,61025ae37ef11b136ea224fe,,,,,,,,,2419,-24,-47,1,0,0,response5disk,,3,2,8,1,0,0,rectangle,2,8,1,0,0,2,8,1,0,0,1,79,239,41,1,,,,,,,,
,,,,,,,,,,,,,FF,,,,,,,,1.9663,,,,,,,,,,,,,,,,,,,,,,60fdd20d5832a81323b3c8f9,61036ee77388e7c156ebdc33,2021-07-29_23h18.40.295,Simcolourproject_2stim_asymm_v5,2020.2.10,Win32,60,61025ae37ef11b136ea224fe,,,,,,,,,3047,-96,-44,1,0,0,response5disk,,2,-7,-8,1,0,0,rectangle,-7,-8,1,0,0,-7,-8,1,0,0,1,80,240,99,1,,,,,,,,
,,,,,,,,,,,,,FF,,,,,,,,1.1498,,,,,,,,,,,,,,,,,,,,,,60fdd20d5832a81323b3c8f9,61036ee77388e7c156ebdc33,2021-07-29_23h18.40.295,Simcolourproject_2stim_asymm_v5,2020.2.10,Win32,60,61025ae37ef11b136ea224fe,,,,,,,,,2382,60,-29,1,0,0,response3disk,,5,10,9,1,0,0,rectangle,10,9,1,0,0,10,9,1,0,0,1,81,241,6,1,,,,,,,,
,,,,,,,,,,,,,FF,,,,,,,,0.9172,,,,,,,,,,,,,,,,,,,,,,60fdd20d5832a81323b3c8f9,61036ee77388e7c156ebdc33,2021-07-29_23h18.40.295,Simcolourproject_2stim_asymm_v5,2020.2.10,Win32,60,61025ae37ef11b136ea224fe,,,,,,,,,4337,-59,-43,1,0,0,response5disk,,2,1,-1,1,0,0,rectangle,1,-1,1,0,0,1,-1,1,0,0,1,82,242,83,1,,,,,,,,
,,,,,,,,,,,,,FF,,,,,,,,0.9839,,,,,,,,,,,,,,,,,,,,,,60fdd20d5832a81323b3c8f9,61036ee77388e7c156ebdc33,2021-07-29_23h18.40.295,Simcolourproject_2stim_asymm_v5,2020.2.10,Win32,60,61025ae37ef11b136ea224fe,,,,,,,,,2539,66,26,1,0,0,response1disk,,6,1,1,1,0,0,rectangle,1,1,1,0,0,1,1,1,0,0,1,83,243,90,1,,,,,,,,
,,,,,,,,,,,,,FF,,,,,,,,1.4835,,,,,,,,,,,,,,,,,,,,,,60fdd20d5832a81323b3c8f9,61036ee77388e7c156ebdc33,2021-07-29_23h18.40.295,Simcolourproject_2stim_asymm_v5,2020.2.10,Win32,60,61025ae37ef11b136ea224fe,,,,,,,,,2636,58,19,1,0,0,response1disk,,6,7,3,1,0,0,rectangle,7,3,1,0,0,7,3,1,0,0,1,84,244,125,1,,,,,,,,
,,,,,,,,,,,,,FF,,,,,,,,1.5168,,,,,,,,,,,,,,,,,,,,,,60fdd20d5832a81323b3c8f9,61036ee77388e7c156ebdc33,2021-07-29_23h18.40.295,Simcolourproject_2stim_asymm_v5,2020.2.10,Win32,60,61025ae37ef11b136ea224fe,,,,,,,,,1067,52,-31,1,0,0,response3disk,,5,1,5,1,0,0,rectangle,1,5,1,0,0,1,5,1,0,0,1,85,245,2,1,,,,,,,,
,,,,,,,,,,,,,FF,,,,,,,,2.4507,,,,,,,,,,,,,,,,,,,,,,60fdd20d5832a81323b3c8f9,61036ee77388e7c156ebdc33,2021-07-29_23h18.40.295,Simcolourproject_2stim_asymm_v5,2020.2.10,Win32,60,61025ae37ef11b136ea224fe,,,,,,,,,1558,56,-21,1,0,0,response3disk,,5,13,-1,1,0,0,rectangle,13,-1,1,0,0,13,-1,1,0,0,1,86,246,130,1,,,,,,,,
,,,,,,,,,,,,,FF,,,,,,,,1.5302,,,,,,,,,,,,,,,,,,,,,,60fdd20d5832a81323b3c8f9,61036ee77388e7c156ebdc33,2021-07-29_23h18.40.295,Simcolourproject_2stim_asymm_v5,2020.2.10,Win32,60,61025ae37ef11b136ea224fe,,,,,,,,,2457,61,29,1,0,0,response1disk,,6,7,-3,1,0,0,rectangle,7,-3,1,0,0,7,-3,1,0,0,1,87,247,14,1,,,,,,,,
,,,,,,,,,,,,,FF,,,,,,,,2.0169,,,,,,,,,,,,,,,,,,,,,,60fdd20d5832a81323b3c8f9,61036ee77388e7c156ebdc33,2021-07-29_23h18.40.295,Simcolourproject_2stim_asymm_v5,2020.2.10,Win32,60,61025ae37ef11b136ea224fe,,,,,,,,,2327,52,24,1,0,0,response1disk,,6,16,1,1,0,0,rectangle,16,1,1,0,0,16,1,1,0,0,1,88,248,18,1,,,,,,,,
,,,,,,,,,,,,,FF,,,,,,,,1.2974,,,,,,,,,,,,,,,,,,,,,,60fdd20d5832a81323b3c8f9,61036ee77388e7c156ebdc33,2021-07-29_23h18.40.295,Simcolourproject_2stim_asymm_v5,2020.2.10,Win32,60,61025ae37ef11b136ea224fe,,,,,,,,,3717,27,-55,1,0,0,response3disk,,4,2,-2,1,0,0,rectangle,2,-2,1,0,0,2,-2,1,0,0,1,89,249,73,1,,,,,,,,
,,,,,,,,,,,,,FF,,,,,,,,1.05,,,,,,,,,,,,,,,,,,,,,,60fdd20d5832a81323b3c8f9,61036ee77388e7c156ebdc33,2021-07-29_23h18.40.295,Simcolourproject_2stim_asymm_v5,2020.2.10,Win32,60,61025ae37ef11b136ea224fe,,,,,,,,,3674,-30,-63,1,0,0,response5disk,,3,-8,8,1,0,0,rectangle,82,53,1,0,0,4,-1,1,0,0,1,90,250,139,1,,response1disk_3,TRUE,6,6,"[230,61,262,322,152,251,5,187,204,3,269,158,218,158,112,6,125,265,50,25]",2.0829,rectangle
,,,,,,,,,,,,,FF,,,,,,,,1.217,,,,,,,,,,,,,,,,,,,,,,60fdd20d5832a81323b3c8f9,61036ee77388e7c156ebdc33,2021-07-29_23h18.40.295,Simcolourproject_2stim_asymm_v5,2020.2.10,Win32,60,61025ae37ef11b136ea224fe,,,,,,,,,2978,62,33,1,0,0,response1disk,,6,15,7,1,0,0,rectangle,15,7,1,0,0,15,7,1,0,0,1,91,251,87,1,,,,,,,,
,,,,,,,,,,,,,FF,,,,,,,,1.1173,,,,,,,,,,,,,,,,,,,,,,60fdd20d5832a81323b3c8f9,61036ee77388e7c156ebdc33,2021-07-29_23h18.40.295,Simcolourproject_2stim_asymm_v5,2020.2.10,Win32,60,61025ae37ef11b136ea224fe,,,,,,,,,2052,61,-50,1,0,0,response3disk,,5,-3,-3,1,0,0,rectangle,-3,-3,1,0,0,-3,-3,1,0,0,1,92,252,79,1,,,,,,,,
,,,,,,,,,,,,,FF,,,,,,,,1.2331,,,,,,,,,,,,,,,,,,,,,,60fdd20d5832a81323b3c8f9,61036ee77388e7c156ebdc33,2021-07-29_23h18.40.295,Simcolourproject_2stim_asymm_v5,2020.2.10,Win32,60,61025ae37ef11b136ea224fe,,,,,,,,,3602,60,-33,1,0,0,response3disk,,5,-12,11,1,0,0,rectangle,-12,11,1,0,0,-12,11,1,0,0,1,93,253,70,1,,,,,,,,
,,,,,,,,,,,,,FF,,,,,,,,1.6004,,,,,,,,,,,,,,,,,,,,,,60fdd20d5832a81323b3c8f9,61036ee77388e7c156ebdc33,2021-07-29_23h18.40.295,Simcolourproject_2stim_asymm_v5,2020.2.10,Win32,60,61025ae37ef11b136ea224fe,,,,,,,,,3918,75,26,1,0,0,response1disk,,6,9,-2,1,0,0,rectangle,9,-2,1,0,0,9,-2,1,0,0,1,94,254,88,1,,,,,,,,
,,,,,,,,,,,,,FF,,,,,,,,1.0331,,,,,,,,,,,,,,,,,,,,,,60fdd20d5832a81323b3c8f9,61036ee77388e7c156ebdc33,2021-07-29_23h18.40.295,Simcolourproject_2stim_asymm_v5,2020.2.10,Win32,60,61025ae37ef11b136ea224fe,,,,,,,,,1599,-21,-51,1,0,0,response5disk,,3,-5,1,1,0,0,rectangle,-5,1,1,0,0,-5,1,1,0,0,1,95,255,29,1,,,,,,,,
,,,,,,,,,,,,,FF,,,,,,,,1.7835,,,,,,,,,,,,,,,,,,,,,,60fdd20d5832a81323b3c8f9,61036ee77388e7c156ebdc33,2021-07-29_23h18.40.295,Simcolourproject_2stim_asymm_v5,2020.2.10,Win32,60,61025ae37ef11b136ea224fe,,,,,,,,,4096,-66,-44,1,0,0,response5disk,,2,-7,-8,1,0,0,rectangle,-7,-8,1,0,0,-7,-8,1,0,0,1,96,256,150,1,,,,,,,,
,,,,,,,,,,,,,FF,,,,,,,,1.0503,,,,,,,,,,,,,,,,,,,,,,60fdd20d5832a81323b3c8f9,61036ee77388e7c156ebdc33,2021-07-29_23h18.40.295,Simcolourproject_2stim_asymm_v5,2020.2.10,Win32,60,61025ae37ef11b136ea224fe,,,,,,,,,4187,-43,-85,1,0,0,response5disk,,3,6,1,1,0,0,rectangle,6,1,1,0,0,6,1,1,0,0,1,97,257,32,1,,,,,,,,
,,,,,,,,,,,,,FF,,,,,,,,1.867,,,,,,,,,,,,,,,,,,,,,,60fdd20d5832a81323b3c8f9,61036ee77388e7c156ebdc33,2021-07-29_23h18.40.295,Simcolourproject_2stim_asymm_v5,2020.2.10,Win32,60,61025ae37ef11b136ea224fe,,,,,,,,,3396,-32,-79,1,0,0,response5disk,,3,-12,-6,1,0,0,rectangle,-12,-6,1,0,0,-12,-6,1,0,0,1,98,258,85,1,,,,,,,,
,,,,,,,,,,,,,FF,,,,,,,,1.5004,,,,,,,,,,,,,,,,,,,,,,60fdd20d5832a81323b3c8f9,61036ee77388e7c156ebdc33,2021-07-29_23h18.40.295,Simcolourproject_2stim_asymm_v5,2020.2.10,Win32,60,61025ae37ef11b136ea224fe,,,,,,,,,191,-36,-52,1,0,0,response5disk,,3,-2,6,1,0,0,rectangle,-2,6,1,0,0,-2,6,1,0,0,1,99,259,121,1,,,,,,,,
,,,,,,,,,,,,,FF,,,,,,,,1.284,,,,,,,,,,,,,,,,,,,,,,60fdd20d5832a81323b3c8f9,61036ee77388e7c156ebdc33,2021-07-29_23h18.40.295,Simcolourproject_2stim_asymm_v5,2020.2.10,Win32,60,61025ae37ef11b136ea224fe,,,,,,,,,3881,-60,-34,1,0,0,response5disk,,2,-3,2,1,0,0,rectangle,-3,2,1,0,0,-3,2,1,0,0,1,100,260,142,1,,,,,,,,
,,,,,,,,,,,,,FF,,,,,,,,0.884,,,,,,,,,,,,,,,,,,,,,,60fdd20d5832a81323b3c8f9,61036ee77388e7c156ebdc33,2021-07-29_23h18.40.295,Simcolourproject_2stim_asymm_v5,2020.2.10,Win32,60,61025ae37ef11b136ea224fe,,,,,,,,,1290,-65,26,1,0,0,response7disk,,1,-6,4,1,0,0,rectangle,-73,42,1,0,0,-8,3,1,0,0,1,101,261,147,1,,response7disk_3,TRUE,1,1,"[230,61,262,322,152,251,5,187,204,3,269,158,218,158,112,6,125,265,50,25]",1.6322,rectangle
,,,,,,,,,,,,,FF,,,,,,,,1.7338,,,,,,,,,,,,,,,,,,,,,,60fdd20d5832a81323b3c8f9,61036ee77388e7c156ebdc33,2021-07-29_23h18.40.295,Simcolourproject_2stim_asymm_v5,2020.2.10,Win32,60,61025ae37ef11b136ea224fe,,,,,,,,,1994,66,-45,1,0,0,response3disk,,5,1,-3,1,0,0,rectangle,1,-3,1,0,0,1,-3,1,0,0,1,102,262,46,1,,,,,,,,
,,,,,,,,,,,,,FF,,,,,,,,1.5498,,,,,,,,,,,,,,,,,,,,,,60fdd20d5832a81323b3c8f9,61036ee77388e7c156ebdc33,2021-07-29_23h18.40.295,Simcolourproject_2stim_asymm_v5,2020.2.10,Win32,60,61025ae37ef11b136ea224fe,,,,,,,,,1288,-65,-38,1,0,0,response5disk,,2,-10,0,1,0,0,rectangle,-10,0,1,0,0,-10,0,1,0,0,1,103,263,97,1,,,,,,,,
,,,,,,,,,,,,,FF,,,,,,,,1.0669,,,,,,,,,,,,,,,,,,,,,,60fdd20d5832a81323b3c8f9,61036ee77388e7c156ebdc33,2021-07-29_23h18.40.295,Simcolourproject_2stim_asymm_v5,2020.2.10,Win32,60,61025ae37ef11b136ea224fe,,,,,,,,,1233,-69,-40,1,0,0,response5disk,,2,-4,2,1,0,0,rectangle,-65,49,1,0,0,-5,4,1,0,0,1,104,264,106,1,,response7disk_3,TRUE,1,1,"[230,61,262,322,152,251,5,187,204,3,269,158,218,158,112,6,125,265,50,25]",1.5339,rectangle
,,,,,,,,,,,,,FF,,,,,,,,2.6504,,,,,,,,,,,,,,,,,,,,,,60fdd20d5832a81323b3c8f9,61036ee77388e7c156ebdc33,2021-07-29_23h18.40.295,Simcolourproject_2stim_asymm_v5,2020.2.10,Win32,60,61025ae37ef11b136ea224fe,,,,,,,,,110,45,-56,1,0,0,response3disk,,4,1,-2,1,0,0,rectangle,1,-2,1,0,0,1,-2,1,0,0,1,105,265,47,1,,,,,,,,
,,,,,,,,,,,,,FF,,,,,,,,1.4507,,,,,,,,,,,,,,,,,,,,,,60fdd20d5832a81323b3c8f9,61036ee77388e7c156ebdc33,2021-07-29_23h18.40.295,Simcolourproject_2stim_asymm_v5,2020.2.10,Win32,60,61025ae37ef11b136ea224fe,,,,,,,,,2729,56,-27,1,0,0,response3disk,,5,2,2,1,0,0,rectangle,2,2,1,0,0,2,2,1,0,0,1,106,266,55,1,,,,,,,,
,,,,,,,,,,,,,FF,,,,,,,,0.9164,,,,,,,,,,,,,,,,,,,,,,60fdd20d5832a81323b3c8f9,61036ee77388e7c156ebdc33,2021-07-29_23h18.40.295,Simcolourproject_2stim_asymm_v5,2020.2.10,Win32,60,61025ae37ef11b136ea224fe,,,,,,,,,1227,-33,-60,1,0,0,response5disk,,3,1,2,1,0,0,rectangle,1,2,1,0,0,1,2,1,0,0,1,107,267,69,1,,,,,,,,
,,,,,,,,,,,,,FF,,,,,,,,1.3008,,,,,,,,,,,,,,,,,,,,,,60fdd20d5832a81323b3c8f9,61036ee77388e7c156ebdc33,2021-07-29_23h18.40.295,Simcolourproject_2stim_asymm_v5,2020.2.10,Win32,60,61025ae37ef11b136ea224fe,,,,,,,,,4144,26,-72,1,0,0,response3disk,,4,-3,1,1,0,0,rectangle,42,-72,1,0,0,0,-6,1,0,0,1,108,268,59,1,,response3disk_3,TRUE,4,4,"[230,61,262,322,152,251,5,187,204,3,269,158,218,158,112,6,125,265,50,25]",1.8662,rectangle
,,,,,,,,,,,,,FF,,,,,,,,1.1335,,,,,,,,,,,,,,,,,,,,,,60fdd20d5832a81323b3c8f9,61036ee77388e7c156ebdc33,2021-07-29_23h18.40.295,Simcolourproject_2stim_asymm_v5,2020.2.10,Win32,60,61025ae37ef11b136ea224fe,,,,,,,,,4110,26,62,1,0,0,response1disk,,7,-14,-9,1,0,0,rectangle,-14,-9,1,0,0,-14,-9,1,0,0,1,109,269,115,1,,,,,,,,
,,,,,,,,,,,,,FF,,,,,,,,0.8667,,,,,,,,,,,,,,,,,,,,,,60fdd20d5832a81323b3c8f9,61036ee77388e7c156ebdc33,2021-07-29_23h18.40.295,Simcolourproject_2stim_asymm_v5,2020.2.10,Win32,60,61025ae37ef11b136ea224fe,,,,,,,,,2500,74,28,1,0,0,response1disk,,6,16,0,1,0,0,rectangle,16,0,1,0,0,16,0,1,0,0,1,110,270,104,1,,,,,,,,
,,,,,,,,,,,,,FF,,,,,,,,1.1504,,,,,,,,,,,,,,,,,,,,,,60fdd20d5832a81323b3c8f9,61036ee77388e7c156ebdc33,2021-07-29_23h18.40.295,Simcolourproject_2stim_asymm_v5,2020.2.10,Win32,60,61025ae37ef11b136ea224fe,,,,,,,,,143,50,-31,1,0,0,response3disk,,5,10,6,1,0,0,rectangle,10,6,1,0,0,10,6,1,0,0,1,111,271,124,1,,,,,,,,
,,,,,,,,,,,,,FF,,,,,,,,1.6167,,,,,,,,,,,,,,,,,,,,,,60fdd20d5832a81323b3c8f9,61036ee77388e7c156ebdc33,2021-07-29_23h18.40.295,Simcolourproject_2stim_asymm_v5,2020.2.10,Win32,60,61025ae37ef11b136ea224fe,,,,,,,,,1963,-30,73,1,0,0,response7disk,,0,0,-2,1,0,0,rectangle,0,-2,1,0,0,0,-2,1,0,0,1,112,272,27,1,,,,,,,,
,,,,,,,,,,,,,FF,,,,,,,,1.3168,,,,,,,,,,,,,,,,,,,,,,60fdd20d5832a81323b3c8f9,61036ee77388e7c156ebdc33,2021-07-29_23h18.40.295,Simcolourproject_2stim_asymm_v5,2020.2.10,Win32,60,61025ae37ef11b136ea224fe,,,,,,,,,1261,34,-59,1,0,0,response3disk,,4,-2,-3,1,0,0,rectangle,-2,-3,1,0,0,-2,-3,1,0,0,1,113,273,136,1,,,,,,,,
,,,,,,,,,,,,,FF,,,,,,,,0.8672,,,,,,,,,,,,,,,,,,,,,,60fdd20d5832a81323b3c8f9,61036ee77388e7c156ebdc33,2021-07-29_23h18.40.295,Simcolourproject_2stim_asymm_v5,2020.2.10,Win32,60,61025ae37ef11b136ea224fe,,,,,,,,,1374,-20,-55,1,0,0,response5disk,,3,-6,-1,1,0,0,rectangle,-6,-1,1,0,0,-6,-1,1,0,0,1,114,274,122,1,,,,,,,,
,,,,,,,,,,,,,FF,,,,,,,,1.55,,,,,,,,,,,,,,,,,,,,,,60fdd20d5832a81323b3c8f9,61036ee77388e7c156ebdc33,2021-07-29_23h18.40.295,Simcolourproject_2stim_asymm_v5,2020.2.10,Win32,60,61025ae37ef11b136ea224fe,,,,,,,,,2361,-75,-48,1,0,0,response5disk,,2,-15,-9,1,0,0,rectangle,-15,-9,1,0,0,-15,-9,1,0,0,1,115,275,140,1,,,,,,,,
,,,,,,,,,,,,,FF,,,,,,,,1.0838,,,,,,,,,,,,,,,,,,,,,,60fdd20d5832a81323b3c8f9,61036ee77388e7c156ebdc33,2021-07-29_23h18.40.295,Simcolourproject_2stim_asymm_v5,2020.2.10,Win32,60,61025ae37ef11b136ea224fe,,,,,,,,,1780,27,-53,1,0,0,response3disk,,4,-13,6,1,0,0,rectangle,-13,6,1,0,0,-13,6,1,0,0,1,116,276,61,1,,,,,,,,
,,,,,,,,,,,,,FF,,,,,,,,1.014,,,,,,,,,,,,,,,,,,,,,,60fdd20d5832a81323b3c8f9,61036ee77388e7c156ebdc33,2021-07-29_23h18.40.295,Simcolourproject_2stim_asymm_v5,2020.2.10,Win32,60,61025ae37ef11b136ea224fe,,,,,,,,,2621,70,27,1,0,0,response1disk,,6,-3,-5,1,0,0,rectangle,-3,-5,1,0,0,-3,-5,1,0,0,1,117,277,7,1,,,,,,,,
,,,,,,,,,,,,,FF,,,,,,,,1.4037,,,,,,,,,,,,,,,,,,,,,,60fdd20d5832a81323b3c8f9,61036ee77388e7c156ebdc33,2021-07-29_23h18.40.295,Simcolourproject_2stim_asymm_v5,2020.2.10,Win32,60,61025ae37ef11b136ea224fe,,,,,,,,,1532,-37,-59,1,0,0,response5disk,,3,4,2,1,0,0,rectangle,4,2,1,0,0,4,2,1,0,0,1,118,278,113,1,,,,,,,,
,,,,,,,,,,,,,FF,,,,,,,,1.617,,,,,,,,,,,,,,,,,,,,,,60fdd20d5832a81323b3c8f9,61036ee77388e7c156ebdc33,2021-07-29_23h18.40.295,Simcolourproject_2stim_asymm_v5,2020.2.10,Win32,60,61025ae37ef11b136ea224fe,,,,,,,,,3673,-51,-35,1,0,0,response5disk,,2,-7,0,1,0,0,rectangle,-7,0,1,0,0,-7,0,1,0,0,1,119,279,53,1,,,,,,,,
,,,,,,,,,,,,,FF,,,,,,,,1.4301,,,,,,,,,,,,,,,,,,,,,,60fdd20d5832a81323b3c8f9,61036ee77388e7c156ebdc33,2021-07-29_23h18.40.295,Simcolourproject_2stim_asymm_v5,2020.2.10,Win32,60,61025ae37ef11b136ea224fe,,,,,,,,,263,-18,-77,1,0,0,response5disk,,3,9,-3,1,0,0,rectangle,9,-3,1,0,0,9,-3,1,0,0,1,120,280,103,1,,,,,,,,
,,,,,,,,,,,,,FF,,,,,,,,1.0041,,,,,,,,,,,,,,,,,,,,,,60fdd20d5832a81323b3c8f9,61036ee77388e7c156ebdc33,2021-07-29_23h18.40.295,Simcolourproject_2stim_asymm_v5,2020.2.10,Win32,60,61025ae37ef11b136ea224fe,,,,,,,,,4256,40,-36,1,0,0,response3disk,,5,2,3,1,0,0,rectangle,2,3,1,0,0,2,3,1,0,0,1,121,281,42,1,,,,,,,,
,,,,,,,,,,,,,FF,,,,,,,,1.2044,,,,,,,,,,,,,,,,,,,,,,60fdd20d5832a81323b3c8f9,61036ee77388e7c156ebdc33,2021-07-29_23h18.40.295,Simcolourproject_2stim_asymm_v5,2020.2.10,Win32,60,61025ae37ef11b136ea224fe,,,,,,,,,3645,26,53,1,0,0,response1disk,,7,-9,0,1,0,0,rectangle,-9,0,1,0,0,-9,0,1,0,0,1,122,282,105,1,,,,,,,,
,,,,,,,,,,,,,FF,,,,,,,,1.1336,,,,,,,,,,,,,,,,,,,,,,60fdd20d5832a81323b3c8f9,61036ee77388e7c156ebdc33,2021-07-29_23h18.40.295,Simcolourproject_2stim_asymm_v5,2020.2.10,Win32,60,61025ae37ef11b136ea224fe,,,,,,,,,276,-54,-29,1,0,0,response5disk,,2,-7,-4,1,0,0,rectangle,-7,-4,1,0,0,-7,-4,1,0,0,1,123,283,72,1,,,,,,,,
,,,,,,,,,,,,,FF,,,,,,,,1.2543,,,,,,,,,,,,,,,,,,,,,,60fdd20d5832a81323b3c8f9,61036ee77388e7c156ebdc33,2021-07-29_23h18.40.295,Simcolourproject_2stim_asymm_v5,2020.2.10,Win32,60,61025ae37ef11b136ea224fe,,,,,,,,,1851,27,-55,1,0,0,response3disk,,4,-3,-2,1,0,0,rectangle,-3,-2,1,0,0,-3,-2,1,0,0,1,124,284,13,1,,,,,,,,
,,,,,,,,,,,,,FF,,,,,,,,1.0975,,,,,,,,,,,,,,,,,,,,,,60fdd20d5832a81323b3c8f9,61036ee77388e7c156ebdc33,2021-07-29_23h18.40.295,Simcolourproject_2stim_asymm_v5,2020.2.10,Win32,60,61025ae37ef11b136ea224fe,,,,,,,,,496,66,32,1,0,0,response1disk,,6,-7,-1,1,0,0,rectangle,-7,-1,1,0,0,-7,-1,1,0,0,1,125,285,144,1,,,,,,,,
,,,,,,,,,,,,,FF,,,,,,,,1.8982,,,,,,,,,,,,,,,,,,,,,,60fdd20d5832a81323b3c8f9,61036ee77388e7c156ebdc33,2021-07-29_23h18.40.295,Simcolourproject_2stim_asymm_v5,2020.2.10,Win32,60,61025ae37ef11b136ea224fe,,,,,,,,,337,64,51,1,0,0,response1disk,,6,1,-5,1,0,0,rectangle,1,-5,1,0,0,1,-5,1,0,0,1,126,286,52,1,,,,,,,,
,,,,,,,,,,,,,FF,,,,,,,,1.2498,,,,,,,,,,,,,,,,,,,,,,60fdd20d5832a81323b3c8f9,61036ee77388e7c156ebdc33,2021-07-29_23h18.40.295,Simcolourproject_2stim_asymm_v5,2020.2.10,Win32,60,61025ae37ef11b136ea224fe,,,,,,,,,2264,50,58,1,0,0,response1disk,,7,6,10,1,0,0,rectangle,6,10,1,0,0,6,10,1,0,0,1,127,287,141,1,,,,,,,,
,,,,,,,,,,,,,FF,,,,,,,,0.9145,,,,,,,,,,,,,,,,,,,,,,60fdd20d5832a81323b3c8f9,61036ee77388e7c156ebdc33,2021-07-29_23h18.40.295,Simcolourproject_2stim_asymm_v5,2020.2.10,Win32,60,61025ae37ef11b136ea224fe,,,,,,,,,3142,-22,-39,1,0,0,response5disk,,3,-3,-2,1,0,0,rectangle,-3,-2,1,0,0,-3,-2,1,0,0,1,128,288,135,1,,,,,,,,
,,,,,,,,,,,,,FF,,,,,,,,1.1834,,,,,,,,,,,,,,,,,,,,,,60fdd20d5832a81323b3c8f9,61036ee77388e7c156ebdc33,2021-07-29_23h18.40.295,Simcolourproject_2stim_asymm_v5,2020.2.10,Win32,60,61025ae37ef11b136ea224fe,,,,,,,,,2952,48,68,1,0,0,response1disk,,7,-4,-2,1,0,0,rectangle,-4,-2,1,0,0,-4,-2,1,0,0,1,129,289,67,1,,,,,,,,
,,,,,,,,,,,,,FF,,,,,,,,1.7668,,,,,,,,,,,,,,,,,,,,,,60fdd20d5832a81323b3c8f9,61036ee77388e7c156ebdc33,2021-07-29_23h18.40.295,Simcolourproject_2stim_asymm_v5,2020.2.10,Win32,60,61025ae37ef11b136ea224fe,,,,,,,,,209,85,43,1,0,0,response1disk,,6,-2,-3,1,0,0,rectangle,-2,-3,1,0,0,-2,-3,1,0,0,1,130,290,101,1,,,,,,,,
,,,,,,,,,,,,,FF,,,,,,,,1.2499,,,,,,,,,,,,,,,,,,,,,,60fdd20d5832a81323b3c8f9,61036ee77388e7c156ebdc33,2021-07-29_23h18.40.295,Simcolourproject_2stim_asymm_v5,2020.2.10,Win32,60,61025ae37ef11b136ea224fe,,,,,,,,,678,53,-39,1,0,0,response3disk,,5,6,2,1,0,0,rectangle,6,2,1,0,0,6,2,1,0,0,1,131,291,57,1,,,,,,,,
,,,,,,,,,,,,,FF,,,,,,,,1.0171,,,,,,,,,,,,,,,,,,,,,,60fdd20d5832a81323b3c8f9,61036ee77388e7c156ebdc33,2021-07-29_23h18.40.295,Simcolourproject_2stim_asymm_v5,2020.2.10,Win32,60,61025ae37ef11b136ea224fe,,,,,,,,,3556,26,-43,1,0,0,response3disk,,4,2,-7,1,0,0,rectangle,2,-7,1,0,0,2,-7,1,0,0,1,132,292,109,1,,,,,,,,
,,,,,,,,,,,,,FF,,,,,,,,1.0845,,,,,,,,,,,,,,,,,,,,,,60fdd20d5832a81323b3c8f9,61036ee77388e7c156ebdc33,2021-07-29_23h18.40.295,Simcolourproject_2stim_asymm_v5,2020.2.10,Win32,60,61025ae37ef11b136ea224fe,,,,,,,,,2493,49,-28,1,0,0,response3disk,,5,5,6,1,0,0,rectangle,5,6,1,0,0,5,6,1,0,0,1,133,293,77,1,,,,,,,,
,,,,,,,,,,,,,FF,,,,,,,,1.014,,,,,,,,,,,,,,,,,,,,,,60fdd20d5832a81323b3c8f9,61036ee77388e7c156ebdc33,2021-07-29_23h18.40.295,Simcolourproject_2stim_asymm_v5,2020.2.10,Win32,60,61025ae37ef11b136ea224fe,,,,,,,,,2455,74,46,1,0,0,response1disk,,6,13,7,1,0,0,rectangle,13,7,1,0,0,13,7,1,0,0,1,134,294,159,1,,,,,,,,
,,,,,,,,,,,,,FF,,,,,,,,1.3836,,,,,,,,,,,,,,,,,,,,,,60fdd20d5832a81323b3c8f9,61036ee77388e7c156ebdc33,2021-07-29_23h18.40.295,Simcolourproject_2stim_asymm_v5,2020.2.10,Win32,60,61025ae37ef11b136ea224fe,,,,,,,,,600,42,66,1,0,0,response1disk,,7,-10,-10,1,0,0,rectangle,-10,-10,1,0,0,-10,-10,1,0,0,1,135,295,95,1,,,,,,,,
,,,,,,,,,,,,,FF,,,,,,,,1.1343,,,,,,,,,,,,,,,,,,,,,,60fdd20d5832a81323b3c8f9,61036ee77388e7c156ebdc33,2021-07-29_23h18.40.295,Simcolourproject_2stim_asymm_v5,2020.2.10,Win32,60,61025ae37ef11b136ea224fe,,,,,,,,,4194,51,17,1,0,0,response1disk,,6,2,-9,1,0,0,rectangle,2,-9,1,0,0,2,-9,1,0,0,1,136,296,127,1,,,,,,,,
,,,,,,,,,,,,,FF,,,,,,,,1.7003,,,,,,,,,,,,,,,,,,,,,,60fdd20d5832a81323b3c8f9,61036ee77388e7c156ebdc33,2021-07-29_23h18.40.295,Simcolourproject_2stim_asymm_v5,2020.2.10,Win32,60,61025ae37ef11b136ea224fe,,,,,,,,,3140,50,-27,1,0,0,response3disk,,5,-4,0,1,0,0,rectangle,-4,0,1,0,0,-4,0,1,0,0,1,137,297,75,1,,,,,,,,
,,,,,,,,,,,,,FF,,,,,,,,1.2707,,,,,,,,,,,,,,,,,,,,,,60fdd20d5832a81323b3c8f9,61036ee77388e7c156ebdc33,2021-07-29_23h18.40.295,Simcolourproject_2stim_asymm_v5,2020.2.10,Win32,60,61025ae37ef11b136ea224fe,,,,,,,,,1886,-63,46,1,0,0,response7disk,,1,-9,6,1,0,0,rectangle,-9,6,1,0,0,-9,6,1,0,0,1,138,298,4,1,,,,,,,,
,,,,,,,,,,,,,FF,,,,,,,,3.3785,,,,,,,,,,,,,,,,,,,,,,60fdd20d5832a81323b3c8f9,61036ee77388e7c156ebdc33,2021-07-29_23h18.40.295,Simcolourproject_2stim_asymm_v5,2020.2.10,Win32,60,61025ae37ef11b136ea224fe,,,,,,,,,2751,82,46,1,0,0,response1disk,,6,3,1,1,0,0,rectangle,3,1,1,0,0,3,1,1,0,0,1,139,299,17,1,,,,,,,,
,,,,,,,,,,,,,FF,,,,,,,,1.9838,,,,,,,,,,,,,,,,,,,,,,60fdd20d5832a81323b3c8f9,61036ee77388e7c156ebdc33,2021-07-29_23h18.40.295,Simcolourproject_2stim_asymm_v5,2020.2.10,Win32,60,61025ae37ef11b136ea224fe,,,,,,,,,2615,77,-38,1,0,0,response3disk,,5,-15,5,1,0,0,rectangle,-15,5,1,0,0,-15,5,1,0,0,1,140,300,44,1,,,,,,,,
,,,,,,,,,,,,,FF,,,,,,,,2.0002,,,,,,,,,,,,,,,,,,,,,,60fdd20d5832a81323b3c8f9,61036ee77388e7c156ebdc33,2021-07-29_23h18.40.295,Simcolourproject_2stim_asymm_v5,2020.2.10,Win32,60,61025ae37ef11b136ea224fe,,,,,,,,,4107,-39,-56,1,0,0,response5disk,,3,-2,-6,1,0,0,rectangle,-2,-6,1,0,0,-2,-6,1,0,0,1,141,301,20,1,,,,,,,,
,,,,,,,,,,,,,FF,,,,,,,,1.6007,,,,,,,,,,,,,,,,,,,,,,60fdd20d5832a81323b3c8f9,61036ee77388e7c156ebdc33,2021-07-29_23h18.40.295,Simcolourproject_2stim_asymm_v5,2020.2.10,Win32,60,61025ae37ef11b136ea224fe,,,,,,,,,3232,33,71,1,0,0,response1disk,,7,7,0,1,0,0,rectangle,7,0,1,0,0,7,0,1,0,0,1,142,302,86,1,,,,,,,,
,,,,,,,,,,,,,FF,,,,,,,,1.0835,,,,,,,,,,,,,,,,,,,,,,60fdd20d5832a81323b3c8f9,61036ee77388e7c156ebdc33,2021-07-29_23h18.40.295,Simcolourproject_2stim_asymm_v5,2020.2.10,Win32,60,61025ae37ef11b136ea224fe,,,,,,,,,4230,69,-42,1,0,0,response3disk,,5,6,-4,1,0,0,rectangle,6,-4,1,0,0,6,-4,1,0,0,1,143,303,8,1,,,,,,,,
