key_resp.keys,key_resp.rt,key_resp_14.keys,key_resp_14.rt,key_resp_15.keys,key_resp_15.rt,key_resp_17.keys,key_resp_17.rt,key_resp_9.keys,key_resp_9.rt,key_resp_10.keys,key_resp_10.rt,practice_comparison,Ecc,mouse_5.x,mouse_5.y,mouse_5.leftButton,mouse_5.midButton,mouse_5.rightButton,mouse_5.clicked_name,pracsimilarity,response_time,mouse_10.x,mouse_10.y,mouse_10.leftButton,mouse_10.midButton,mouse_10.rightButton,mouse_10.clicked_name,mouse_7.x,mouse_7.y,mouse_7.leftButton,mouse_7.midButton,mouse_7.rightButton,mouse_6.x,mouse_6.y,mouse_6.leftButton,mouse_6.midButton,mouse_6.rightButton,duringprac.thisRepN,duringprac.thisTrialN,duringprac.thisN,duringprac.thisIndex,duringprac.ran,participant,session,date,expName,psychopyVersion,OS,frameRate,study_id,mouse_7.clicked_name,catchpracsimilarity,catch_response_time,catchnumberprac,catchtrialorderprac,mouse_6.clicked_name,key_resp_22.keys,key_resp_22.rt,realcomparison,mouse.x,mouse.y,mouse.leftButton,mouse.midButton,mouse.rightButton,mouse.clicked_name,Colour2,similarity,mouse_2.x,mouse_2.y,mouse_2.leftButton,mouse_2.midButton,mouse_2.rightButton,mouse_2.clicked_name,mouse_3.x,mouse_3.y,mouse_3.leftButton,mouse_3.midButton,mouse_3.rightButton,mouse_11.x,mouse_11.y,mouse_11.leftButton,mouse_11.midButton,mouse_11.rightButton,trials_2.thisRepN,trials_2.thisTrialN,trials_2.thisN,trials_2.thisIndex,trials_2.ran,Colour1,mouse_3.clicked_name,catchornah,catchsimilarity,catchnumber,catchtrialorder,catchRT,mouse_11.clicked_name
space,1.0601,space,1.8626,space,21.3355,space,27.6418,space,1.5678,space,3.4203,58,PF,46,91.5,1,0,0,response1disk_5,7,8.1229,7.5,1,1,0,0,rectangle_8,7.5,1,1,0,0,7.5,1,1,0,0,0,0,0,4,1,60fd8dadd1d25db7a23b0425,61037983a2fda81102253079,2021-07-29_21h05.34.341,Simcolourproject_2stim_asymm_v5,2020.2.10,Win32,60,61025ae37ef11b136ea224fe,,,,,,,,,,,,,,,,,,,,,,,,,,,,,,,,,,,,,,,,,,,,,,
,,,,,,,,,,,,70,FF,-43,-91.5,1,0,0,response5disk_5,3,2.1843,9.5,18.5,1,0,0,rectangle_8,-52.5,111,1,0,0,1,-6,1,0,0,0,1,1,0,1,60fd8dadd1d25db7a23b0425,61037983a2fda81102253079,2021-07-29_21h05.34.341,Simcolourproject_2stim_asymm_v5,2020.2.10,Win32,60,61025ae37ef11b136ea224fe,response7disk_7,0,3.6693,0,"[2,5]",rectangle_4,,,,,,,,,,,,,,,,,,,,,,,,,,,,,,,,,,,,,,,,
,,,,,,,,,,,,10,FF,40.5,90,1,0,0,response1disk_5,7,1.2173,11.5,2.5,1,0,0,rectangle_8,11.5,2.5,1,0,0,11.5,2.5,1,0,0,0,2,2,3,1,60fd8dadd1d25db7a23b0425,61037983a2fda81102253079,2021-07-29_21h05.34.341,Simcolourproject_2stim_asymm_v5,2020.2.10,Win32,60,61025ae37ef11b136ea224fe,,,,,,,,,,,,,,,,,,,,,,,,,,,,,,,,,,,,,,,,,,,,,,
,,,,,,,,,,,,117,FF,23,80,1,0,0,response1disk_5,7,0.9336,5,-5.5,1,0,0,rectangle_8,5,-5.5,1,0,0,5,-5.5,1,0,0,0,3,3,5,1,60fd8dadd1d25db7a23b0425,61037983a2fda81102253079,2021-07-29_21h05.34.341,Simcolourproject_2stim_asymm_v5,2020.2.10,Win32,60,61025ae37ef11b136ea224fe,,,,,,,,,,,,,,,,,,,,,,,,,,,,,,,,,,,,,,,,,,,,,,
,,,,,,,,,,,,97,PF,107.5,40,1,0,0,response1disk_5,6,1.4668,-14.5,0,1,0,0,rectangle_8,-45,97,1,0,0,16,-10,1,0,0,0,4,4,1,1,60fd8dadd1d25db7a23b0425,61037983a2fda81102253079,2021-07-29_21h05.34.341,Simcolourproject_2stim_asymm_v5,2020.2.10,Win32,60,61025ae37ef11b136ea224fe,response7disk_7,0,1.7677,0,"[2,5]",rectangle_4,,,,,,,,,,,,,,,,,,,,,,,,,,,,,,,,,,,,,,,,
,,,,,,,,,,,,69,PF,-41,86,1,0,0,response7disk_5,0,1.1676,2,-16.5,1,0,0,rectangle_8,2,-16.5,1,0,0,2,-16.5,1,0,0,0,5,5,2,1,60fd8dadd1d25db7a23b0425,61037983a2fda81102253079,2021-07-29_21h05.34.341,Simcolourproject_2stim_asymm_v5,2020.2.10,Win32,60,61025ae37ef11b136ea224fe,,,,,,,,,,,,,,,,,,,,,,,,,,,,,,,,,,,,,,,,,,,,,,
,,,,,,,,,,,,2,PF,65,96.5,1,0,0,response1disk_5,7,1.0501,16.5,7.5,1,0,0,rectangle_8,16.5,7.5,1,0,0,16.5,7.5,1,0,0,0,6,6,6,1,60fd8dadd1d25db7a23b0425,61037983a2fda81102253079,2021-07-29_21h05.34.341,Simcolourproject_2stim_asymm_v5,2020.2.10,Win32,60,61025ae37ef11b136ea224fe,,,,,,,,,,,,,,,,,,,,,,,,,,,,,,,,,,,,,,,,,,,,,,
,,,,,,,,,,,,,FF,,,,,,,,2.6084,,,,,,,,,,,,,,,,,,,,,,60fd8dadd1d25db7a23b0425,61037983a2fda81102253079,2021-07-29_21h05.34.341,Simcolourproject_2stim_asymm_v5,2020.2.10,Win32,60,61025ae37ef11b136ea224fe,,,,,,,space,3.9607,3477,-48,-97,1,0,0,response5disk,,3,10.5,3.5,1,0,0,rectangle,10.5,3.5,1,0,0,10.5,3.5,1,0,0,0,0,0,123,1,,,,,,,,
,,,,,,,,,,,,,FF,,,,,,,,0.9839,,,,,,,,,,,,,,,,,,,,,,60fd8dadd1d25db7a23b0425,61037983a2fda81102253079,2021-07-29_21h05.34.341,Simcolourproject_2stim_asymm_v5,2020.2.10,Win32,60,61025ae37ef11b136ea224fe,,,,,,,,,3502,49.5,-83,1,0,0,response3disk,,4,10,-1.5,1,0,0,rectangle,10,-1.5,1,0,0,10,-1.5,1,0,0,0,1,1,150,1,,,,,,,,
,,,,,,,,,,,,,FF,,,,,,,,0.7169,,,,,,,,,,,,,,,,,,,,,,60fd8dadd1d25db7a23b0425,61037983a2fda81102253079,2021-07-29_21h05.34.341,Simcolourproject_2stim_asymm_v5,2020.2.10,Win32,60,61025ae37ef11b136ea224fe,,,,,,,,,407,39,73,1,0,0,response1disk,,7,12.5,-5.5,1,0,0,rectangle,12.5,-5.5,1,0,0,12.5,-5.5,1,0,0,0,2,2,58,1,,,,,,,,
,,,,,,,,,,,,,FF,,,,,,,,0.6833,,,,,,,,,,,,,,,,,,,,,,60fd8dadd1d25db7a23b0425,61037983a2fda81102253079,2021-07-29_21h05.34.341,Simcolourproject_2stim_asymm_v5,2020.2.10,Win32,60,61025ae37ef11b136ea224fe,,,,,,,,,2394,39,74,1,0,0,response1disk,,7,9,-0.5,1,0,0,rectangle,9,-0.5,1,0,0,9,-0.5,1,0,0,0,3,3,136,1,,,,,,,,
,,,,,,,,,,,,,FF,,,,,,,,0.7498,,,,,,,,,,,,,,,,,,,,,,60fd8dadd1d25db7a23b0425,61037983a2fda81102253079,2021-07-29_21h05.34.341,Simcolourproject_2stim_asymm_v5,2020.2.10,Win32,60,61025ae37ef11b136ea224fe,,,,,,,,,940,41,99.5,1,0,0,response1disk,,7,3.5,1,1,0,0,rectangle,3.5,1,1,0,0,3.5,1,1,0,0,0,4,4,114,1,,,,,,,,
,,,,,,,,,,,,,FF,,,,,,,,0.9005,,,,,,,,,,,,,,,,,,,,,,60fd8dadd1d25db7a23b0425,61037983a2fda81102253079,2021-07-29_21h05.34.341,Simcolourproject_2stim_asymm_v5,2020.2.10,Win32,60,61025ae37ef11b136ea224fe,,,,,,,,,4054,-40,-92,1,0,0,response5disk,,3,16,-4,1,0,0,rectangle,16,-4,1,0,0,16,-4,1,0,0,0,5,5,55,1,,,,,,,,
,,,,,,,,,,,,,FF,,,,,,,,1.017,,,,,,,,,,,,,,,,,,,,,,60fd8dadd1d25db7a23b0425,61037983a2fda81102253079,2021-07-29_21h05.34.341,Simcolourproject_2stim_asymm_v5,2020.2.10,Win32,60,61025ae37ef11b136ea224fe,,,,,,,,,3626,-58,-109.5,1,0,0,response5disk,,3,17.5,-6.5,1,0,0,rectangle,17.5,-6.5,1,0,0,17.5,-6.5,1,0,0,0,6,6,135,1,,,,,,,,
,,,,,,,,,,,,,FF,,,,,,,,0.6841,,,,,,,,,,,,,,,,,,,,,,60fd8dadd1d25db7a23b0425,61037983a2fda81102253079,2021-07-29_21h05.34.341,Simcolourproject_2stim_asymm_v5,2020.2.10,Win32,60,61025ae37ef11b136ea224fe,,,,,,,,,927,47,93,1,0,0,response1disk,,7,5.5,-10,1,0,0,rectangle,5.5,-10,1,0,0,5.5,-10,1,0,0,0,7,7,30,1,,,,,,,,
,,,,,,,,,,,,,FF,,,,,,,,1.2337,,,,,,,,,,,,,,,,,,,,,,60fd8dadd1d25db7a23b0425,61037983a2fda81102253079,2021-07-29_21h05.34.341,Simcolourproject_2stim_asymm_v5,2020.2.10,Win32,60,61025ae37ef11b136ea224fe,,,,,,,,,2294,-36.5,-74.5,1,0,0,response5disk,,3,15.5,5,1,0,0,rectangle,15.5,5,1,0,0,15.5,5,1,0,0,0,8,8,19,1,,,,,,,,
,,,,,,,,,,,,,FF,,,,,,,,2.3,,,,,,,,,,,,,,,,,,,,,,60fd8dadd1d25db7a23b0425,61037983a2fda81102253079,2021-07-29_21h05.34.341,Simcolourproject_2stim_asymm_v5,2020.2.10,Win32,60,61025ae37ef11b136ea224fe,,,,,,,,,2050,73.5,122.5,1,0,0,response1disk,,7,2.5,-12.5,1,0,0,rectangle,2.5,-12.5,1,0,0,2.5,-12.5,1,0,0,0,9,9,81,1,,,,,,,,
,,,,,,,,,,,,,FF,,,,,,,,1.0005,,,,,,,,,,,,,,,,,,,,,,60fd8dadd1d25db7a23b0425,61037983a2fda81102253079,2021-07-29_21h05.34.341,Simcolourproject_2stim_asymm_v5,2020.2.10,Win32,60,61025ae37ef11b136ea224fe,,,,,,,,,2643,79.5,70.5,1,0,0,response1disk,,6,24,12,1,0,0,rectangle,24,12,1,0,0,24,12,1,0,0,0,10,10,6,1,,,,,,,,
,,,,,,,,,,,,,FF,,,,,,,,0.8768,,,,,,,,,,,,,,,,,,,,,,60fd8dadd1d25db7a23b0425,61037983a2fda81102253079,2021-07-29_21h05.34.341,Simcolourproject_2stim_asymm_v5,2020.2.10,Win32,60,61025ae37ef11b136ea224fe,,,,,,,,,3317,62,31,1,0,0,response1disk,,6,3.5,-1.5,1,0,0,rectangle,3.5,-1.5,1,0,0,3.5,-1.5,1,0,0,0,11,11,80,1,,,,,,,,
,,,,,,,,,,,,,FF,,,,,,,,1.1164,,,,,,,,,,,,,,,,,,,,,,60fd8dadd1d25db7a23b0425,61037983a2fda81102253079,2021-07-29_21h05.34.341,Simcolourproject_2stim_asymm_v5,2020.2.10,Win32,60,61025ae37ef11b136ea224fe,,,,,,,,,978,102,-31.5,1,0,0,response3disk,,5,28,1,1,0,0,rectangle,-85.5,45.5,1,0,0,-21,-5,1,0,0,0,12,12,137,1,,response7disk_3,TRUE,1,1,"[35,13,150,148,298,174,256,85,321,198,13,322,253,176,75,61,40,241,91,70]",1.8175,rectangle
,,,,,,,,,,,,,FF,,,,,,,,1.1789,,,,,,,,,,,,,,,,,,,,,,60fd8dadd1d25db7a23b0425,61037983a2fda81102253079,2021-07-29_21h05.34.341,Simcolourproject_2stim_asymm_v5,2020.2.10,Win32,60,61025ae37ef11b136ea224fe,,,,,,,,,1783,106.5,48,1,0,0,response1disk,,6,20,-3.5,1,0,0,rectangle,20,-3.5,1,0,0,20,-3.5,1,0,0,0,13,13,145,1,,,,,,,,
,,,,,,,,,,,,,FF,,,,,,,,1.8182,,,,,,,,,,,,,,,,,,,,,,60fd8dadd1d25db7a23b0425,61037983a2fda81102253079,2021-07-29_21h05.34.341,Simcolourproject_2stim_asymm_v5,2020.2.10,Win32,60,61025ae37ef11b136ea224fe,,,,,,,,,1100,83.5,41.5,1,0,0,response1disk,,6,22.5,11,1,0,0,rectangle,22.5,11,1,0,0,22.5,11,1,0,0,0,14,14,15,1,,,,,,,,
,,,,,,,,,,,,,FF,,,,,,,,1.8249,,,,,,,,,,,,,,,,,,,,,,60fd8dadd1d25db7a23b0425,61037983a2fda81102253079,2021-07-29_21h05.34.341,Simcolourproject_2stim_asymm_v5,2020.2.10,Win32,60,61025ae37ef11b136ea224fe,,,,,,,,,601,57.5,95,1,0,0,response1disk,,7,-4.5,-3,1,0,0,rectangle,-4.5,-3,1,0,0,-4.5,-3,1,0,0,0,15,15,142,1,,,,,,,,
,,,,,,,,,,,,,FF,,,,,,,,0.9007,,,,,,,,,,,,,,,,,,,,,,60fd8dadd1d25db7a23b0425,61037983a2fda81102253079,2021-07-29_21h05.34.341,Simcolourproject_2stim_asymm_v5,2020.2.10,Win32,60,61025ae37ef11b136ea224fe,,,,,,,,,1109,52.5,74.5,1,0,0,response1disk,,7,23.5,6,1,0,0,rectangle,23.5,6,1,0,0,23.5,6,1,0,0,0,16,16,100,1,,,,,,,,
,,,,,,,,,,,,,FF,,,,,,,,0.8671,,,,,,,,,,,,,,,,,,,,,,60fd8dadd1d25db7a23b0425,61037983a2fda81102253079,2021-07-29_21h05.34.341,Simcolourproject_2stim_asymm_v5,2020.2.10,Win32,60,61025ae37ef11b136ea224fe,,,,,,,,,1982,46,88.5,1,0,0,response1disk,,7,13,-7.5,1,0,0,rectangle,13,-7.5,1,0,0,13,-7.5,1,0,0,0,17,17,115,1,,,,,,,,
,,,,,,,,,,,,,FF,,,,,,,,0.8864,,,,,,,,,,,,,,,,,,,,,,60fd8dadd1d25db7a23b0425,61037983a2fda81102253079,2021-07-29_21h05.34.341,Simcolourproject_2stim_asymm_v5,2020.2.10,Win32,60,61025ae37ef11b136ea224fe,,,,,,,,,1498,63,97,1,0,0,response1disk,,7,11.5,-8.5,1,0,0,rectangle,11.5,-8.5,1,0,0,11.5,-8.5,1,0,0,0,18,18,23,1,,,,,,,,
,,,,,,,,,,,,,FF,,,,,,,,0.9001,,,,,,,,,,,,,,,,,,,,,,60fd8dadd1d25db7a23b0425,61037983a2fda81102253079,2021-07-29_21h05.34.341,Simcolourproject_2stim_asymm_v5,2020.2.10,Win32,60,61025ae37ef11b136ea224fe,,,,,,,,,2551,48,80.5,1,0,0,response1disk,,7,2.5,4.5,1,0,0,rectangle,2.5,4.5,1,0,0,2.5,4.5,1,0,0,0,19,19,129,1,,,,,,,,
,,,,,,,,,,,,,FF,,,,,,,,1.3511,,,,,,,,,,,,,,,,,,,,,,60fd8dadd1d25db7a23b0425,61037983a2fda81102253079,2021-07-29_21h05.34.341,Simcolourproject_2stim_asymm_v5,2020.2.10,Win32,60,61025ae37ef11b136ea224fe,,,,,,,,,2436,51,97.5,1,0,0,response1disk,,7,11,-2.5,1,0,0,rectangle,11,-2.5,1,0,0,11,-2.5,1,0,0,0,20,20,147,1,,,,,,,,
,,,,,,,,,,,,,FF,,,,,,,,1.5672,,,,,,,,,,,,,,,,,,,,,,60fd8dadd1d25db7a23b0425,61037983a2fda81102253079,2021-07-29_21h05.34.341,Simcolourproject_2stim_asymm_v5,2020.2.10,Win32,60,61025ae37ef11b136ea224fe,,,,,,,,,3003,31,-97,1,0,0,response3disk,,4,14,-11,1,0,0,rectangle,14,-11,1,0,0,14,-11,1,0,0,0,21,21,133,1,,,,,,,,
,,,,,,,,,,,,,FF,,,,,,,,1.3672,,,,,,,,,,,,,,,,,,,,,,60fd8dadd1d25db7a23b0425,61037983a2fda81102253079,2021-07-29_21h05.34.341,Simcolourproject_2stim_asymm_v5,2020.2.10,Win32,60,61025ae37ef11b136ea224fe,,,,,,,,,1502,119,50,1,0,0,response1disk,,6,13.5,8,1,0,0,rectangle,13.5,8,1,0,0,13.5,8,1,0,0,0,22,22,106,1,,,,,,,,
,,,,,,,,,,,,,FF,,,,,,,,0.9174,,,,,,,,,,,,,,,,,,,,,,60fd8dadd1d25db7a23b0425,61037983a2fda81102253079,2021-07-29_21h05.34.341,Simcolourproject_2stim_asymm_v5,2020.2.10,Win32,60,61025ae37ef11b136ea224fe,,,,,,,,,1544,86.5,33.5,1,0,0,response1disk,,6,-4,4,1,0,0,rectangle,-4,4,1,0,0,-4,4,1,0,0,0,23,23,9,1,,,,,,,,
,,,,,,,,,,,,,FF,,,,,,,,1.3009,,,,,,,,,,,,,,,,,,,,,,60fd8dadd1d25db7a23b0425,61037983a2fda81102253079,2021-07-29_21h05.34.341,Simcolourproject_2stim_asymm_v5,2020.2.10,Win32,60,61025ae37ef11b136ea224fe,,,,,,,,,1146,82.5,-39.5,1,0,0,response3disk,,5,-10.5,8.5,1,0,0,rectangle,-10.5,8.5,1,0,0,-10.5,8.5,1,0,0,0,24,24,35,1,,,,,,,,
,,,,,,,,,,,,,FF,,,,,,,,1.334,,,,,,,,,,,,,,,,,,,,,,60fd8dadd1d25db7a23b0425,61037983a2fda81102253079,2021-07-29_21h05.34.341,Simcolourproject_2stim_asymm_v5,2020.2.10,Win32,60,61025ae37ef11b136ea224fe,,,,,,,,,4261,91.5,-36.5,1,0,0,response3disk,,5,-6,5.5,1,0,0,rectangle,-6,5.5,1,0,0,-6,5.5,1,0,0,0,25,25,74,1,,,,,,,,
,,,,,,,,,,,,,FF,,,,,,,,1.2002,,,,,,,,,,,,,,,,,,,,,,60fd8dadd1d25db7a23b0425,61037983a2fda81102253079,2021-07-29_21h05.34.341,Simcolourproject_2stim_asymm_v5,2020.2.10,Win32,60,61025ae37ef11b136ea224fe,,,,,,,,,329,-31.5,-80,1,0,0,response5disk,,3,1.5,-1,1,0,0,rectangle,1.5,-1,1,0,0,1.5,-1,1,0,0,0,26,26,116,1,,,,,,,,
,,,,,,,,,,,,,FF,,,,,,,,1.0999,,,,,,,,,,,,,,,,,,,,,,60fd8dadd1d25db7a23b0425,61037983a2fda81102253079,2021-07-29_21h05.34.341,Simcolourproject_2stim_asymm_v5,2020.2.10,Win32,60,61025ae37ef11b136ea224fe,,,,,,,,,2713,-36.5,-82.5,1,0,0,response5disk,,3,10.5,2.5,1,0,0,rectangle,10.5,2.5,1,0,0,10.5,2.5,1,0,0,0,27,27,47,1,,,,,,,,
,,,,,,,,,,,,,FF,,,,,,,,0.8111,,,,,,,,,,,,,,,,,,,,,,60fd8dadd1d25db7a23b0425,61037983a2fda81102253079,2021-07-29_21h05.34.341,Simcolourproject_2stim_asymm_v5,2020.2.10,Win32,60,61025ae37ef11b136ea224fe,,,,,,,,,1623,57,-66,1,0,0,response3disk,,4,-7,4.5,1,0,0,rectangle,-7,4.5,1,0,0,-7,4.5,1,0,0,0,28,28,107,1,,,,,,,,
,,,,,,,,,,,,,FF,,,,,,,,1.1102,,,,,,,,,,,,,,,,,,,,,,60fd8dadd1d25db7a23b0425,61037983a2fda81102253079,2021-07-29_21h05.34.341,Simcolourproject_2stim_asymm_v5,2020.2.10,Win32,60,61025ae37ef11b136ea224fe,,,,,,,,,3918,91.5,-50,1,0,0,response3disk,,5,2.5,11.5,1,0,0,rectangle,2.5,11.5,1,0,0,2.5,11.5,1,0,0,0,29,29,67,1,,,,,,,,
,,,,,,,,,,,,,FF,,,,,,,,0.7334,,,,,,,,,,,,,,,,,,,,,,60fd8dadd1d25db7a23b0425,61037983a2fda81102253079,2021-07-29_21h05.34.341,Simcolourproject_2stim_asymm_v5,2020.2.10,Win32,60,61025ae37ef11b136ea224fe,,,,,,,,,2025,-35.5,59.5,1,0,0,response7disk,,0,10.5,-9,1,0,0,rectangle,10.5,-9,1,0,0,10.5,-9,1,0,0,0,30,30,32,1,,,,,,,,
,,,,,,,,,,,,,FF,,,,,,,,1.0007,,,,,,,,,,,,,,,,,,,,,,60fd8dadd1d25db7a23b0425,61037983a2fda81102253079,2021-07-29_21h05.34.341,Simcolourproject_2stim_asymm_v5,2020.2.10,Win32,60,61025ae37ef11b136ea224fe,,,,,,,,,2744,85.5,-60,1,0,0,response3disk,,5,8,-1,1,0,0,rectangle,8,-1,1,0,0,8,-1,1,0,0,0,31,31,159,1,,,,,,,,
,,,,,,,,,,,,,FF,,,,,,,,0.7838,,,,,,,,,,,,,,,,,,,,,,60fd8dadd1d25db7a23b0425,61037983a2fda81102253079,2021-07-29_21h05.34.341,Simcolourproject_2stim_asymm_v5,2020.2.10,Win32,60,61025ae37ef11b136ea224fe,,,,,,,,,1999,71.5,94.5,1,0,0,response1disk,,7,3,-1.5,1,0,0,rectangle,3,-1.5,1,0,0,3,-1.5,1,0,0,0,32,32,17,1,,,,,,,,
,,,,,,,,,,,,,FF,,,,,,,,0.7842,,,,,,,,,,,,,,,,,,,,,,60fd8dadd1d25db7a23b0425,61037983a2fda81102253079,2021-07-29_21h05.34.341,Simcolourproject_2stim_asymm_v5,2020.2.10,Win32,60,61025ae37ef11b136ea224fe,,,,,,,,,1357,21,50,1,0,0,response1disk,,7,-11,-8.5,1,0,0,rectangle,-11,-8.5,1,0,0,-11,-8.5,1,0,0,0,33,33,36,1,,,,,,,,
,,,,,,,,,,,,,FF,,,,,,,,5.3514,,,,,,,,,,,,,,,,,,,,,,60fd8dadd1d25db7a23b0425,61037983a2fda81102253079,2021-07-29_21h05.34.341,Simcolourproject_2stim_asymm_v5,2020.2.10,Win32,60,61025ae37ef11b136ea224fe,,,,,,,,,3901,-24,-86,1,0,0,response5disk,,3,20,3.5,1,0,0,rectangle,-44.5,-96.5,1,0,0,-6.5,2,1,0,0,0,34,34,61,1,,response5disk_3,TRUE,3,3,"[35,13,150,148,298,174,256,85,321,198,13,322,253,176,75,61,40,241,91,70]",1.6691,rectangle
,,,,,,,,,,,,,FF,,,,,,,,1.2338,,,,,,,,,,,,,,,,,,,,,,60fd8dadd1d25db7a23b0425,61037983a2fda81102253079,2021-07-29_21h05.34.341,Simcolourproject_2stim_asymm_v5,2020.2.10,Win32,60,61025ae37ef11b136ea224fe,,,,,,,,,2727,-70,-50,1,0,0,response5disk,,2,5.5,-7.5,1,0,0,rectangle,5.5,-7.5,1,0,0,5.5,-7.5,1,0,0,0,35,35,43,1,,,,,,,,
,,,,,,,,,,,,,FF,,,,,,,,0.8171,,,,,,,,,,,,,,,,,,,,,,60fd8dadd1d25db7a23b0425,61037983a2fda81102253079,2021-07-29_21h05.34.341,Simcolourproject_2stim_asymm_v5,2020.2.10,Win32,60,61025ae37ef11b136ea224fe,,,,,,,,,1368,-34.5,73,1,0,0,response7disk,,0,13.5,15,1,0,0,rectangle,13.5,15,1,0,0,13.5,15,1,0,0,0,36,36,56,1,,,,,,,,
,,,,,,,,,,,,,FF,,,,,,,,0.8245,,,,,,,,,,,,,,,,,,,,,,60fd8dadd1d25db7a23b0425,61037983a2fda81102253079,2021-07-29_21h05.34.341,Simcolourproject_2stim_asymm_v5,2020.2.10,Win32,60,61025ae37ef11b136ea224fe,,,,,,,,,2799,48.5,-82,1,0,0,response3disk,,4,-1.5,6.5,1,0,0,rectangle,-1.5,6.5,1,0,0,-1.5,6.5,1,0,0,0,37,37,113,1,,,,,,,,
,,,,,,,,,,,,,FF,,,,,,,,1.5749,,,,,,,,,,,,,,,,,,,,,,60fd8dadd1d25db7a23b0425,61037983a2fda81102253079,2021-07-29_21h05.34.341,Simcolourproject_2stim_asymm_v5,2020.2.10,Win32,60,61025ae37ef11b136ea224fe,,,,,,,,,4276,85.5,63.5,1,0,0,response1disk,,6,-7,8,1,0,0,rectangle,-7,8,1,0,0,-7,8,1,0,0,0,38,38,72,1,,,,,,,,
,,,,,,,,,,,,,FF,,,,,,,,0.6759,,,,,,,,,,,,,,,,,,,,,,60fd8dadd1d25db7a23b0425,61037983a2fda81102253079,2021-07-29_21h05.34.341,Simcolourproject_2stim_asymm_v5,2020.2.10,Win32,60,61025ae37ef11b136ea224fe,,,,,,,,,3025,29.5,70.5,1,0,0,response1disk,,7,-7.5,4,1,0,0,rectangle,-41,69.5,1,0,0,-2.5,-4,1,0,0,0,39,39,111,1,,response7disk_3,TRUE,0,0,"[35,13,150,148,298,174,256,85,321,198,13,322,253,176,75,61,40,241,91,70]",1.4002,rectangle
,,,,,,,,,,,,,FF,,,,,,,,0.9505,,,,,,,,,,,,,,,,,,,,,,60fd8dadd1d25db7a23b0425,61037983a2fda81102253079,2021-07-29_21h05.34.341,Simcolourproject_2stim_asymm_v5,2020.2.10,Win32,60,61025ae37ef11b136ea224fe,,,,,,,,,3252,-82,27,1,0,0,response7disk,,1,-16,-7,1,0,0,rectangle,-16,-7,1,0,0,-16,-7,1,0,0,0,40,40,33,1,,,,,,,,
,,,,,,,,,,,,,FF,,,,,,,,1.0001,,,,,,,,,,,,,,,,,,,,,,60fd8dadd1d25db7a23b0425,61037983a2fda81102253079,2021-07-29_21h05.34.341,Simcolourproject_2stim_asymm_v5,2020.2.10,Win32,60,61025ae37ef11b136ea224fe,,,,,,,,,4339,-39,-84,1,0,0,response5disk,,3,31,12.5,1,0,0,rectangle,31,12.5,1,0,0,31,12.5,1,0,0,0,41,41,44,1,,,,,,,,
,,,,,,,,,,,,,FF,,,,,,,,0.7836,,,,,,,,,,,,,,,,,,,,,,60fd8dadd1d25db7a23b0425,61037983a2fda81102253079,2021-07-29_21h05.34.341,Simcolourproject_2stim_asymm_v5,2020.2.10,Win32,60,61025ae37ef11b136ea224fe,,,,,,,,,1690,-47,-96.5,1,0,0,response5disk,,3,1,10.5,1,0,0,rectangle,1,10.5,1,0,0,1,10.5,1,0,0,0,42,42,11,1,,,,,,,,
,,,,,,,,,,,,,FF,,,,,,,,0.95,,,,,,,,,,,,,,,,,,,,,,60fd8dadd1d25db7a23b0425,61037983a2fda81102253079,2021-07-29_21h05.34.341,Simcolourproject_2stim_asymm_v5,2020.2.10,Win32,60,61025ae37ef11b136ea224fe,,,,,,,,,412,83,63.5,1,0,0,response1disk,,6,-11,-8.5,1,0,0,rectangle,-11,-8.5,1,0,0,-11,-8.5,1,0,0,0,43,43,112,1,,,,,,,,
,,,,,,,,,,,,,FF,,,,,,,,1.4832,,,,,,,,,,,,,,,,,,,,,,60fd8dadd1d25db7a23b0425,61037983a2fda81102253079,2021-07-29_21h05.34.341,Simcolourproject_2stim_asymm_v5,2020.2.10,Win32,60,61025ae37ef11b136ea224fe,,,,,,,,,570,71.5,42.5,1,0,0,response1disk,,6,10,-1.5,1,0,0,rectangle,10,-1.5,1,0,0,10,-1.5,1,0,0,0,44,44,48,1,,,,,,,,
,,,,,,,,,,,,,FF,,,,,,,,0.7673,,,,,,,,,,,,,,,,,,,,,,60fd8dadd1d25db7a23b0425,61037983a2fda81102253079,2021-07-29_21h05.34.341,Simcolourproject_2stim_asymm_v5,2020.2.10,Win32,60,61025ae37ef11b136ea224fe,,,,,,,,,821,94,55,1,0,0,response1disk,,6,7,-3,1,0,0,rectangle,7,-3,1,0,0,7,-3,1,0,0,0,45,45,126,1,,,,,,,,
,,,,,,,,,,,,,FF,,,,,,,,0.6003,,,,,,,,,,,,,,,,,,,,,,60fd8dadd1d25db7a23b0425,61037983a2fda81102253079,2021-07-29_21h05.34.341,Simcolourproject_2stim_asymm_v5,2020.2.10,Win32,60,61025ae37ef11b136ea224fe,,,,,,,,,2466,30.5,68,1,0,0,response1disk,,7,-7.5,-10,1,0,0,rectangle,-7.5,-10,1,0,0,-7.5,-10,1,0,0,0,46,46,8,1,,,,,,,,
,,,,,,,,,,,,,FF,,,,,,,,1.05,,,,,,,,,,,,,,,,,,,,,,60fd8dadd1d25db7a23b0425,61037983a2fda81102253079,2021-07-29_21h05.34.341,Simcolourproject_2stim_asymm_v5,2020.2.10,Win32,60,61025ae37ef11b136ea224fe,,,,,,,,,3385,-69.5,40,1,0,0,response7disk,,1,15,3,1,0,0,rectangle,15,3,1,0,0,15,3,1,0,0,0,47,47,151,1,,,,,,,,
,,,,,,,,,,,,,FF,,,,,,,,1.0841,,,,,,,,,,,,,,,,,,,,,,60fd8dadd1d25db7a23b0425,61037983a2fda81102253079,2021-07-29_21h05.34.341,Simcolourproject_2stim_asymm_v5,2020.2.10,Win32,60,61025ae37ef11b136ea224fe,,,,,,,,,479,91,-61.5,1,0,0,response3disk,,5,3.5,-11,1,0,0,rectangle,3.5,-11,1,0,0,3.5,-11,1,0,0,0,48,48,120,1,,,,,,,,
,,,,,,,,,,,,,FF,,,,,,,,2.5173,,,,,,,,,,,,,,,,,,,,,,60fd8dadd1d25db7a23b0425,61037983a2fda81102253079,2021-07-29_21h05.34.341,Simcolourproject_2stim_asymm_v5,2020.2.10,Win32,60,61025ae37ef11b136ea224fe,,,,,,,,,3902,70.5,-43.5,0,0,1,response3disk,,5,-1,2,1,0,0,rectangle,-1,2,1,0,0,-1,2,1,0,0,0,49,49,77,1,,,,,,,,
,,,,,,,,,,,,,FF,,,,,,,,0.9337,,,,,,,,,,,,,,,,,,,,,,60fd8dadd1d25db7a23b0425,61037983a2fda81102253079,2021-07-29_21h05.34.341,Simcolourproject_2stim_asymm_v5,2020.2.10,Win32,60,61025ae37ef11b136ea224fe,,,,,,,,,1144,126,54,1,0,0,response1disk,,6,14,-5.5,1,0,0,rectangle,14,-5.5,1,0,0,14,-5.5,1,0,0,0,50,50,4,1,,,,,,,,
,,,,,,,,,,,,,FF,,,,,,,,0.8082,,,,,,,,,,,,,,,,,,,,,,60fd8dadd1d25db7a23b0425,61037983a2fda81102253079,2021-07-29_21h05.34.341,Simcolourproject_2stim_asymm_v5,2020.2.10,Win32,60,61025ae37ef11b136ea224fe,,,,,,,,,2432,51,100.5,1,0,0,response1disk,,7,8.5,-15.5,1,0,0,rectangle,8.5,-15.5,1,0,0,8.5,-15.5,1,0,0,0,51,51,49,1,,,,,,,,
,,,,,,,,,,,,,FF,,,,,,,,0.7666,,,,,,,,,,,,,,,,,,,,,,60fd8dadd1d25db7a23b0425,61037983a2fda81102253079,2021-07-29_21h05.34.341,Simcolourproject_2stim_asymm_v5,2020.2.10,Win32,60,61025ae37ef11b136ea224fe,,,,,,,,,1519,60.5,98,1,0,0,response1disk,,7,-0.5,-6.5,1,0,0,rectangle,-0.5,-6.5,1,0,0,-0.5,-6.5,1,0,0,0,52,52,144,1,,,,,,,,
,,,,,,,,,,,,,FF,,,,,,,,1.2675,,,,,,,,,,,,,,,,,,,,,,60fd8dadd1d25db7a23b0425,61037983a2fda81102253079,2021-07-29_21h05.34.341,Simcolourproject_2stim_asymm_v5,2020.2.10,Win32,60,61025ae37ef11b136ea224fe,,,,,,,,,4098,-57.5,-90,1,0,0,response5disk,,3,0.5,-9,1,0,0,rectangle,0.5,-9,1,0,0,0.5,-9,1,0,0,0,53,53,16,1,,,,,,,,
,,,,,,,,,,,,,FF,,,,,,,,0.8331,,,,,,,,,,,,,,,,,,,,,,60fd8dadd1d25db7a23b0425,61037983a2fda81102253079,2021-07-29_21h05.34.341,Simcolourproject_2stim_asymm_v5,2020.2.10,Win32,60,61025ae37ef11b136ea224fe,,,,,,,,,3483,56,-102,1,0,0,response3disk,,4,-2.5,4.5,1,0,0,rectangle,-2.5,4.5,1,0,0,-2.5,4.5,1,0,0,0,54,54,46,1,,,,,,,,
,,,,,,,,,,,,,FF,,,,,,,,1.4676,,,,,,,,,,,,,,,,,,,,,,60fd8dadd1d25db7a23b0425,61037983a2fda81102253079,2021-07-29_21h05.34.341,Simcolourproject_2stim_asymm_v5,2020.2.10,Win32,60,61025ae37ef11b136ea224fe,,,,,,,,,62,106.5,-53.5,1,0,0,response3disk,,5,3.5,-1,1,0,0,rectangle,3.5,-1,1,0,0,3.5,-1,1,0,0,0,55,55,65,1,,,,,,,,
,,,,,,,,,,,,,FF,,,,,,,,0.7844,,,,,,,,,,,,,,,,,,,,,,60fd8dadd1d25db7a23b0425,61037983a2fda81102253079,2021-07-29_21h05.34.341,Simcolourproject_2stim_asymm_v5,2020.2.10,Win32,60,61025ae37ef11b136ea224fe,,,,,,,,,212,51,75,1,0,0,response1disk,,7,0.5,-19,1,0,0,rectangle,0.5,-19,1,0,0,0.5,-19,1,0,0,0,56,56,110,1,,,,,,,,
,,,,,,,,,,,,,FF,,,,,,,,0.8177,,,,,,,,,,,,,,,,,,,,,,60fd8dadd1d25db7a23b0425,61037983a2fda81102253079,2021-07-29_21h05.34.341,Simcolourproject_2stim_asymm_v5,2020.2.10,Win32,60,61025ae37ef11b136ea224fe,,,,,,,,,4201,-68.5,39,1,0,0,response7disk,,1,3,2,1,0,0,rectangle,3,2,1,0,0,3,2,1,0,0,0,57,57,2,1,,,,,,,,
,,,,,,,,,,,,,FF,,,,,,,,0.7005,,,,,,,,,,,,,,,,,,,,,,60fd8dadd1d25db7a23b0425,61037983a2fda81102253079,2021-07-29_21h05.34.341,Simcolourproject_2stim_asymm_v5,2020.2.10,Win32,60,61025ae37ef11b136ea224fe,,,,,,,,,2469,72,124.5,1,0,0,response1disk,,7,1.5,5.5,1,0,0,rectangle,1.5,5.5,1,0,0,1.5,5.5,1,0,0,0,58,58,95,1,,,,,,,,
,,,,,,,,,,,,,FF,,,,,,,,0.8003,,,,,,,,,,,,,,,,,,,,,,60fd8dadd1d25db7a23b0425,61037983a2fda81102253079,2021-07-29_21h05.34.341,Simcolourproject_2stim_asymm_v5,2020.2.10,Win32,60,61025ae37ef11b136ea224fe,,,,,,,,,1578,50.5,77,1,0,0,response1disk,,7,-3,-12.5,1,0,0,rectangle,-3,-12.5,1,0,0,-3,-12.5,1,0,0,0,59,59,25,1,,,,,,,,
,,,,,,,,,,,,,FF,,,,,,,,1.2169,,,,,,,,,,,,,,,,,,,,,,60fd8dadd1d25db7a23b0425,61037983a2fda81102253079,2021-07-29_21h05.34.341,Simcolourproject_2stim_asymm_v5,2020.2.10,Win32,60,61025ae37ef11b136ea224fe,,,,,,,,,2897,93,61.5,1,0,0,response1disk,,6,6,10,1,0,0,rectangle,-76.5,-38.5,1,0,0,2.5,5,1,0,0,0,60,60,42,1,,response5disk_3,TRUE,2,2,"[35,13,150,148,298,174,256,85,321,198,13,322,253,176,75,61,40,241,91,70]",1.4671,rectangle
,,,,,,,,,,,,,FF,,,,,,,,1.3171,,,,,,,,,,,,,,,,,,,,,,60fd8dadd1d25db7a23b0425,61037983a2fda81102253079,2021-07-29_21h05.34.341,Simcolourproject_2stim_asymm_v5,2020.2.10,Win32,60,61025ae37ef11b136ea224fe,,,,,,,,,688,43.5,-96,1,0,0,response3disk,,4,12.5,-7,1,0,0,rectangle,12.5,-7,1,0,0,12.5,-7,1,0,0,0,61,61,13,1,,,,,,,,
,,,,,,,,,,,,,FF,,,,,,,,1.0337,,,,,,,,,,,,,,,,,,,,,,60fd8dadd1d25db7a23b0425,61037983a2fda81102253079,2021-07-29_21h05.34.341,Simcolourproject_2stim_asymm_v5,2020.2.10,Win32,60,61025ae37ef11b136ea224fe,,,,,,,,,954,35,-90,1,0,0,response3disk,,4,4,0,1,0,0,rectangle,4,0,1,0,0,4,0,1,0,0,0,62,62,50,1,,,,,,,,
,,,,,,,,,,,,,FF,,,,,,,,0.7334,,,,,,,,,,,,,,,,,,,,,,60fd8dadd1d25db7a23b0425,61037983a2fda81102253079,2021-07-29_21h05.34.341,Simcolourproject_2stim_asymm_v5,2020.2.10,Win32,60,61025ae37ef11b136ea224fe,,,,,,,,,3312,65,89.5,1,0,0,response1disk,,7,3.5,-2.5,1,0,0,rectangle,3.5,-2.5,1,0,0,3.5,-2.5,1,0,0,0,63,63,148,1,,,,,,,,
,,,,,,,,,,,,,FF,,,,,,,,0.55,,,,,,,,,,,,,,,,,,,,,,60fd8dadd1d25db7a23b0425,61037983a2fda81102253079,2021-07-29_21h05.34.341,Simcolourproject_2stim_asymm_v5,2020.2.10,Win32,60,61025ae37ef11b136ea224fe,,,,,,,,,1636,31.5,88.5,1,0,0,response1disk,,7,-7,6.5,1,0,0,rectangle,-7,6.5,1,0,0,-7,6.5,1,0,0,0,64,64,101,1,,,,,,,,
,,,,,,,,,,,,,FF,,,,,,,,0.5837,,,,,,,,,,,,,,,,,,,,,,60fd8dadd1d25db7a23b0425,61037983a2fda81102253079,2021-07-29_21h05.34.341,Simcolourproject_2stim_asymm_v5,2020.2.10,Win32,60,61025ae37ef11b136ea224fe,,,,,,,,,2520,23.5,64.5,1,0,0,response1disk,,7,4,1.5,1,0,0,rectangle,4,1.5,1,0,0,4,1.5,1,0,0,0,65,65,109,1,,,,,,,,
,,,,,,,,,,,,,FF,,,,,,,,0.8834,,,,,,,,,,,,,,,,,,,,,,60fd8dadd1d25db7a23b0425,61037983a2fda81102253079,2021-07-29_21h05.34.341,Simcolourproject_2stim_asymm_v5,2020.2.10,Win32,60,61025ae37ef11b136ea224fe,,,,,,,,,1376,87,34,1,0,0,response1disk,,6,17,-6,1,0,0,rectangle,17,-6,1,0,0,17,-6,1,0,0,0,66,66,88,1,,,,,,,,
,,,,,,,,,,,,,FF,,,,,,,,0.6503,,,,,,,,,,,,,,,,,,,,,,60fd8dadd1d25db7a23b0425,61037983a2fda81102253079,2021-07-29_21h05.34.341,Simcolourproject_2stim_asymm_v5,2020.2.10,Win32,60,61025ae37ef11b136ea224fe,,,,,,,,,313,47,90.5,1,0,0,response1disk,,7,-10.5,-1,1,0,0,rectangle,-10.5,-1,1,0,0,-10.5,-1,1,0,0,0,67,67,91,1,,,,,,,,
,,,,,,,,,,,,,FF,,,,,,,,0.9589,,,,,,,,,,,,,,,,,,,,,,60fd8dadd1d25db7a23b0425,61037983a2fda81102253079,2021-07-29_21h05.34.341,Simcolourproject_2stim_asymm_v5,2020.2.10,Win32,60,61025ae37ef11b136ea224fe,,,,,,,,,4295,-106.5,-64,1,0,0,response5disk,,2,-17,2,1,0,0,rectangle,-17,2,1,0,0,-17,2,1,0,0,0,68,68,122,1,,,,,,,,
,,,,,,,,,,,,,FF,,,,,,,,0.5758,,,,,,,,,,,,,,,,,,,,,,60fd8dadd1d25db7a23b0425,61037983a2fda81102253079,2021-07-29_21h05.34.341,Simcolourproject_2stim_asymm_v5,2020.2.10,Win32,60,61025ae37ef11b136ea224fe,,,,,,,,,3965,-47,76.5,1,0,0,response7disk,,0,12,9,1,0,0,rectangle,-102,-40,1,0,0,3.5,-19,1,0,0,0,69,69,143,1,,response5disk_3,TRUE,2,2,"[35,13,150,148,298,174,256,85,321,198,13,322,253,176,75,61,40,241,91,70]",1.1331,rectangle
,,,,,,,,,,,,,FF,,,,,,,,1.0916,,,,,,,,,,,,,,,,,,,,,,60fd8dadd1d25db7a23b0425,61037983a2fda81102253079,2021-07-29_21h05.34.341,Simcolourproject_2stim_asymm_v5,2020.2.10,Win32,60,61025ae37ef11b136ea224fe,,,,,,,,,4123,-64.5,-112,1,0,0,response5disk,,3,6,8,1,0,0,rectangle,6,8,1,0,0,6,8,1,0,0,0,70,70,92,1,,,,,,,,
,,,,,,,,,,,,,FF,,,,,,,,0.5366,,,,,,,,,,,,,,,,,,,,,,60fd8dadd1d25db7a23b0425,61037983a2fda81102253079,2021-07-29_21h05.34.341,Simcolourproject_2stim_asymm_v5,2020.2.10,Win32,60,61025ae37ef11b136ea224fe,,,,,,,,,640,48.5,81.5,1,0,0,response1disk,,7,0.5,-11,1,0,0,rectangle,0.5,-11,1,0,0,0.5,-11,1,0,0,0,71,71,31,1,,,,,,,,
,,,,,,,,,,,,,FF,,,,,,,,0.6006,,,,,,,,,,,,,,,,,,,,,,60fd8dadd1d25db7a23b0425,61037983a2fda81102253079,2021-07-29_21h05.34.341,Simcolourproject_2stim_asymm_v5,2020.2.10,Win32,60,61025ae37ef11b136ea224fe,,,,,,,,,3215,54.5,75.5,1,0,0,response1disk,,7,6.5,6.5,1,0,0,rectangle,6.5,6.5,1,0,0,6.5,6.5,1,0,0,0,72,72,103,1,,,,,,,,
,,,,,,,,,,,,,FF,,,,,,,,0.8001,,,,,,,,,,,,,,,,,,,,,,60fd8dadd1d25db7a23b0425,61037983a2fda81102253079,2021-07-29_21h05.34.341,Simcolourproject_2stim_asymm_v5,2020.2.10,Win32,60,61025ae37ef11b136ea224fe,,,,,,,,,1150,-47,-90.5,1,0,0,response5disk,,3,-3.5,-17.5,1,0,0,rectangle,-3.5,-17.5,1,0,0,-3.5,-17.5,1,0,0,0,73,73,40,1,,,,,,,,
,,,,,,,,,,,,,FF,,,,,,,,1.0169,,,,,,,,,,,,,,,,,,,,,,60fd8dadd1d25db7a23b0425,61037983a2fda81102253079,2021-07-29_21h05.34.341,Simcolourproject_2stim_asymm_v5,2020.2.10,Win32,60,61025ae37ef11b136ea224fe,,,,,,,,,510,31.5,-66,1,0,0,response3disk,,4,-4,-1.5,1,0,0,rectangle,108.5,-59,1,0,0,0,1,1,0,0,0,74,74,117,1,,response3disk_3,TRUE,5,5,"[35,13,150,148,298,174,256,85,321,198,13,322,253,176,75,61,40,241,91,70]",1.5335,rectangle
,,,,,,,,,,,,,FF,,,,,,,,1.0331,,,,,,,,,,,,,,,,,,,,,,60fd8dadd1d25db7a23b0425,61037983a2fda81102253079,2021-07-29_21h05.34.341,Simcolourproject_2stim_asymm_v5,2020.2.10,Win32,60,61025ae37ef11b136ea224fe,,,,,,,,,945,48.5,-92,1,0,0,response3disk,,4,-2.5,-8,1,0,0,rectangle,-2.5,-8,1,0,0,-2.5,-8,1,0,0,0,75,75,69,1,,,,,,,,
,,,,,,,,,,,,,FF,,,,,,,,0.5259,,,,,,,,,,,,,,,,,,,,,,60fd8dadd1d25db7a23b0425,61037983a2fda81102253079,2021-07-29_21h05.34.341,Simcolourproject_2stim_asymm_v5,2020.2.10,Win32,60,61025ae37ef11b136ea224fe,,,,,,,,,3020,39.5,78,1,0,0,response1disk,,7,-1.5,-4,1,0,0,rectangle,-1.5,-4,1,0,0,-1.5,-4,1,0,0,0,76,76,21,1,,,,,,,,
,,,,,,,,,,,,,FF,,,,,,,,0.5669,,,,,,,,,,,,,,,,,,,,,,60fd8dadd1d25db7a23b0425,61037983a2fda81102253079,2021-07-29_21h05.34.341,Simcolourproject_2stim_asymm_v5,2020.2.10,Win32,60,61025ae37ef11b136ea224fe,,,,,,,,,3366,29.5,64.5,1,0,0,response1disk,,7,8.5,-0.5,1,0,0,rectangle,8.5,-0.5,1,0,0,8.5,-0.5,1,0,0,0,77,77,158,1,,,,,,,,
,,,,,,,,,,,,,FF,,,,,,,,0.634,,,,,,,,,,,,,,,,,,,,,,60fd8dadd1d25db7a23b0425,61037983a2fda81102253079,2021-07-29_21h05.34.341,Simcolourproject_2stim_asymm_v5,2020.2.10,Win32,60,61025ae37ef11b136ea224fe,,,,,,,,,1945,38,88.5,1,0,0,response1disk,,7,5,8,1,0,0,rectangle,5,8,1,0,0,5,8,1,0,0,0,78,78,12,1,,,,,,,,
,,,,,,,,,,,,,FF,,,,,,,,0.9086,,,,,,,,,,,,,,,,,,,,,,60fd8dadd1d25db7a23b0425,61037983a2fda81102253079,2021-07-29_21h05.34.341,Simcolourproject_2stim_asymm_v5,2020.2.10,Win32,60,61025ae37ef11b136ea224fe,,,,,,,,,3960,52,79,1,0,0,response1disk,,7,13.5,6,1,0,0,rectangle,13.5,6,1,0,0,13.5,6,1,0,0,0,79,79,22,1,,,,,,,,
,,,,,,,,,,,,,FF,,,,,,,,0.6175,,,,,,,,,,,,,,,,,,,,,,60fd8dadd1d25db7a23b0425,61037983a2fda81102253079,2021-07-29_21h05.34.341,Simcolourproject_2stim_asymm_v5,2020.2.10,Win32,60,61025ae37ef11b136ea224fe,,,,,,,,,1355,45.5,74,1,0,0,response1disk,,7,3.5,3,1,0,0,rectangle,3.5,3,1,0,0,3.5,3,1,0,0,0,80,80,93,1,,,,,,,,
,,,,,,,,,,,,,FF,,,,,,,,0.675,,,,,,,,,,,,,,,,,,,,,,60fd8dadd1d25db7a23b0425,61037983a2fda81102253079,2021-07-29_21h05.34.341,Simcolourproject_2stim_asymm_v5,2020.2.10,Win32,60,61025ae37ef11b136ea224fe,,,,,,,,,3501,23,70.5,1,0,0,response1disk,,7,-1.5,1.5,1,0,0,rectangle,-1.5,1.5,1,0,0,-1.5,1.5,1,0,0,0,81,81,64,1,,,,,,,,
,,,,,,,,,,,,,FF,,,,,,,,0.825,,,,,,,,,,,,,,,,,,,,,,60fd8dadd1d25db7a23b0425,61037983a2fda81102253079,2021-07-29_21h05.34.341,Simcolourproject_2stim_asymm_v5,2020.2.10,Win32,60,61025ae37ef11b136ea224fe,,,,,,,,,1725,48,103,1,0,0,response1disk,,7,9,-3.5,1,0,0,rectangle,9,-3.5,1,0,0,9,-3.5,1,0,0,0,82,82,60,1,,,,,,,,
,,,,,,,,,,,,,FF,,,,,,,,1.4504,,,,,,,,,,,,,,,,,,,,,,60fd8dadd1d25db7a23b0425,61037983a2fda81102253079,2021-07-29_21h05.34.341,Simcolourproject_2stim_asymm_v5,2020.2.10,Win32,60,61025ae37ef11b136ea224fe,,,,,,,,,4,-52,-60,1,0,0,response5disk,,3,-5,4,1,0,0,rectangle,-5,4,1,0,0,-5,4,1,0,0,0,83,83,52,1,,,,,,,,
,,,,,,,,,,,,,FF,,,,,,,,0.7252,,,,,,,,,,,,,,,,,,,,,,60fd8dadd1d25db7a23b0425,61037983a2fda81102253079,2021-07-29_21h05.34.341,Simcolourproject_2stim_asymm_v5,2020.2.10,Win32,60,61025ae37ef11b136ea224fe,,,,,,,,,3534,24.5,80.5,1,0,0,response1disk,,7,0,-6,1,0,0,rectangle,100.5,50.5,1,0,0,-13,-11,1,0,0,0,84,84,97,1,,response1disk_3,TRUE,6,6,"[35,13,150,148,298,174,256,85,321,198,13,322,253,176,75,61,40,241,91,70]",1.8329,rectangle
,,,,,,,,,,,,,FF,,,,,,,,0.8253,,,,,,,,,,,,,,,,,,,,,,60fd8dadd1d25db7a23b0425,61037983a2fda81102253079,2021-07-29_21h05.34.341,Simcolourproject_2stim_asymm_v5,2020.2.10,Win32,60,61025ae37ef11b136ea224fe,,,,,,,,,3472,-64.5,34,1,0,0,response7disk,,1,-0.5,5.5,1,0,0,rectangle,-0.5,5.5,1,0,0,-0.5,5.5,1,0,0,0,85,85,79,1,,,,,,,,
,,,,,,,,,,,,,FF,,,,,,,,0.7674,,,,,,,,,,,,,,,,,,,,,,60fd8dadd1d25db7a23b0425,61037983a2fda81102253079,2021-07-29_21h05.34.341,Simcolourproject_2stim_asymm_v5,2020.2.10,Win32,60,61025ae37ef11b136ea224fe,,,,,,,,,69,20,69.5,1,0,0,response1disk,,7,1,3.5,1,0,0,rectangle,1,3.5,1,0,0,1,3.5,1,0,0,0,86,86,86,1,,,,,,,,
,,,,,,,,,,,,,FF,,,,,,,,0.6079,,,,,,,,,,,,,,,,,,,,,,60fd8dadd1d25db7a23b0425,61037983a2fda81102253079,2021-07-29_21h05.34.341,Simcolourproject_2stim_asymm_v5,2020.2.10,Win32,60,61025ae37ef11b136ea224fe,,,,,,,,,317,47.5,73.5,1,0,0,response1disk,,7,11.5,4,1,0,0,rectangle,11.5,4,1,0,0,11.5,4,1,0,0,0,87,87,71,1,,,,,,,,
,,,,,,,,,,,,,FF,,,,,,,,1.3094,,,,,,,,,,,,,,,,,,,,,,60fd8dadd1d25db7a23b0425,61037983a2fda81102253079,2021-07-29_21h05.34.341,Simcolourproject_2stim_asymm_v5,2020.2.10,Win32,60,61025ae37ef11b136ea224fe,,,,,,,,,852,117.5,66,1,0,0,response1disk,,6,12.5,-0.5,1,0,0,rectangle,12.5,-0.5,1,0,0,12.5,-0.5,1,0,0,0,88,88,70,1,,,,,,,,
,,,,,,,,,,,,,FF,,,,,,,,1.0005,,,,,,,,,,,,,,,,,,,,,,60fd8dadd1d25db7a23b0425,61037983a2fda81102253079,2021-07-29_21h05.34.341,Simcolourproject_2stim_asymm_v5,2020.2.10,Win32,60,61025ae37ef11b136ea224fe,,,,,,,,,3529,60,97.5,1,0,0,response1disk,,7,-2,4,1,0,0,rectangle,-2,4,1,0,0,-2,4,1,0,0,0,89,89,124,1,,,,,,,,
,,,,,,,,,,,,,FF,,,,,,,,0.5833,,,,,,,,,,,,,,,,,,,,,,60fd8dadd1d25db7a23b0425,61037983a2fda81102253079,2021-07-29_21h05.34.341,Simcolourproject_2stim_asymm_v5,2020.2.10,Win32,60,61025ae37ef11b136ea224fe,,,,,,,,,1642,25.5,67.5,1,0,0,response1disk,,7,-7.5,5.5,1,0,0,rectangle,-95.5,-43,1,0,0,10.5,8,1,0,0,0,90,90,98,1,,response5disk_3,TRUE,2,2,"[35,13,150,148,298,174,256,85,321,198,13,322,253,176,75,61,40,241,91,70]",0.9921,rectangle
,,,,,,,,,,,,,FF,,,,,,,,0.8504,,,,,,,,,,,,,,,,,,,,,,60fd8dadd1d25db7a23b0425,61037983a2fda81102253079,2021-07-29_21h05.34.341,Simcolourproject_2stim_asymm_v5,2020.2.10,Win32,60,61025ae37ef11b136ea224fe,,,,,,,,,4079,55.5,76.5,1,0,0,response1disk,,7,-5.5,-11.5,1,0,0,rectangle,-5.5,-11.5,1,0,0,-5.5,-11.5,1,0,0,0,91,91,127,1,,,,,,,,
,,,,,,,,,,,,,FF,,,,,,,,1.2758,,,,,,,,,,,,,,,,,,,,,,60fd8dadd1d25db7a23b0425,61037983a2fda81102253079,2021-07-29_21h05.34.341,Simcolourproject_2stim_asymm_v5,2020.2.10,Win32,60,61025ae37ef11b136ea224fe,,,,,,,,,1001,77.5,41,1,0,0,response1disk,,6,-2,-4,1,0,0,rectangle,-2,-4,1,0,0,-2,-4,1,0,0,0,92,92,83,1,,,,,,,,
,,,,,,,,,,,,,FF,,,,,,,,0.7499,,,,,,,,,,,,,,,,,,,,,,60fd8dadd1d25db7a23b0425,61037983a2fda81102253079,2021-07-29_21h05.34.341,Simcolourproject_2stim_asymm_v5,2020.2.10,Win32,60,61025ae37ef11b136ea224fe,,,,,,,,,2099,-84.5,35,1,0,0,response7disk,,1,3,-2.5,1,0,0,rectangle,3,-2.5,1,0,0,3,-2.5,1,0,0,0,93,93,82,1,,,,,,,,
,,,,,,,,,,,,,FF,,,,,,,,1.0423,,,,,,,,,,,,,,,,,,,,,,60fd8dadd1d25db7a23b0425,61037983a2fda81102253079,2021-07-29_21h05.34.341,Simcolourproject_2stim_asymm_v5,2020.2.10,Win32,60,61025ae37ef11b136ea224fe,,,,,,,,,4001,-89.5,-67.5,1,0,0,response5disk,,2,-5,7,1,0,0,rectangle,-5,7,1,0,0,-5,7,1,0,0,0,94,94,84,1,,,,,,,,
,,,,,,,,,,,,,FF,,,,,,,,0.9836,,,,,,,,,,,,,,,,,,,,,,60fd8dadd1d25db7a23b0425,61037983a2fda81102253079,2021-07-29_21h05.34.341,Simcolourproject_2stim_asymm_v5,2020.2.10,Win32,60,61025ae37ef11b136ea224fe,,,,,,,,,2677,40,73.5,1,0,0,response1disk,,7,-2.5,14,1,0,0,rectangle,-2.5,14,1,0,0,-2.5,14,1,0,0,0,95,95,29,1,,,,,,,,
,,,,,,,,,,,,,FF,,,,,,,,2.5038,,,,,,,,,,,,,,,,,,,,,,60fd8dadd1d25db7a23b0425,61037983a2fda81102253079,2021-07-29_21h05.34.341,Simcolourproject_2stim_asymm_v5,2020.2.10,Win32,60,61025ae37ef11b136ea224fe,,,,,,,,,2204,65.5,85.5,1,0,0,response1disk,,7,-5,6,1,0,0,rectangle,-5,6,1,0,0,-5,6,1,0,0,0,96,96,130,1,,,,,,,,
,,,,,,,,,,,,,FF,,,,,,,,0.9669,,,,,,,,,,,,,,,,,,,,,,60fd8dadd1d25db7a23b0425,61037983a2fda81102253079,2021-07-29_21h05.34.341,Simcolourproject_2stim_asymm_v5,2020.2.10,Win32,60,61025ae37ef11b136ea224fe,,,,,,,,,3258,59,33.5,1,0,0,response1disk,,6,-5,-11,1,0,0,rectangle,-5,-11,1,0,0,-5,-11,1,0,0,0,97,97,10,1,,,,,,,,
,,,,,,,,,,,,,FF,,,,,,,,1.3833,,,,,,,,,,,,,,,,,,,,,,60fd8dadd1d25db7a23b0425,61037983a2fda81102253079,2021-07-29_21h05.34.341,Simcolourproject_2stim_asymm_v5,2020.2.10,Win32,60,61025ae37ef11b136ea224fe,,,,,,,,,551,-49.5,-107,1,0,0,response5disk,,3,0.5,5,1,0,0,rectangle,0.5,5,1,0,0,0.5,5,1,0,0,0,98,98,3,1,,,,,,,,
,,,,,,,,,,,,,FF,,,,,,,,0.917,,,,,,,,,,,,,,,,,,,,,,60fd8dadd1d25db7a23b0425,61037983a2fda81102253079,2021-07-29_21h05.34.341,Simcolourproject_2stim_asymm_v5,2020.2.10,Win32,60,61025ae37ef11b136ea224fe,,,,,,,,,1858,59,96.5,1,0,0,response1disk,,7,-8,-13,1,0,0,rectangle,-8,-13,1,0,0,-8,-13,1,0,0,0,99,99,37,1,,,,,,,,
,,,,,,,,,,,,,FF,,,,,,,,0.7173,,,,,,,,,,,,,,,,,,,,,,60fd8dadd1d25db7a23b0425,61037983a2fda81102253079,2021-07-29_21h05.34.341,Simcolourproject_2stim_asymm_v5,2020.2.10,Win32,60,61025ae37ef11b136ea224fe,,,,,,,,,1517,27.5,79.5,1,0,0,response1disk,,7,-6.5,2,1,0,0,rectangle,-6.5,2,1,0,0,-6.5,2,1,0,0,0,100,100,51,1,,,,,,,,
,,,,,,,,,,,,,FF,,,,,,,,1.1503,,,,,,,,,,,,,,,,,,,,,,60fd8dadd1d25db7a23b0425,61037983a2fda81102253079,2021-07-29_21h05.34.341,Simcolourproject_2stim_asymm_v5,2020.2.10,Win32,60,61025ae37ef11b136ea224fe,,,,,,,,,618,-80,-28,1,0,0,response5disk,,2,-2,12.5,1,0,0,rectangle,-2,12.5,1,0,0,-2,12.5,1,0,0,0,101,101,78,1,,,,,,,,
,,,,,,,,,,,,,FF,,,,,,,,1.6835,,,,,,,,,,,,,,,,,,,,,,60fd8dadd1d25db7a23b0425,61037983a2fda81102253079,2021-07-29_21h05.34.341,Simcolourproject_2stim_asymm_v5,2020.2.10,Win32,60,61025ae37ef11b136ea224fe,,,,,,,,,1158,40,-102.5,1,0,0,response3disk,,4,17.5,3,1,0,0,rectangle,17.5,3,1,0,0,17.5,3,1,0,0,0,102,102,41,1,,,,,,,,
,,,,,,,,,,,,,FF,,,,,,,,1.5173,,,,,,,,,,,,,,,,,,,,,,60fd8dadd1d25db7a23b0425,61037983a2fda81102253079,2021-07-29_21h05.34.341,Simcolourproject_2stim_asymm_v5,2020.2.10,Win32,60,61025ae37ef11b136ea224fe,,,,,,,,,2990,76,-33.5,1,0,0,response3disk,,5,22,0.5,1,0,0,rectangle,22,0.5,1,0,0,22,0.5,1,0,0,0,103,103,121,1,,,,,,,,
,,,,,,,,,,,,,FF,,,,,,,,0.6501,,,,,,,,,,,,,,,,,,,,,,60fd8dadd1d25db7a23b0425,61037983a2fda81102253079,2021-07-29_21h05.34.341,Simcolourproject_2stim_asymm_v5,2020.2.10,Win32,60,61025ae37ef11b136ea224fe,,,,,,,,,1666,69.5,72,1,0,0,response1disk,,7,9.5,7.5,1,0,0,rectangle,9.5,7.5,1,0,0,9.5,7.5,1,0,0,0,104,104,139,1,,,,,,,,
,,,,,,,,,,,,,FF,,,,,,,,1.4671,,,,,,,,,,,,,,,,,,,,,,60fd8dadd1d25db7a23b0425,61037983a2fda81102253079,2021-07-29_21h05.34.341,Simcolourproject_2stim_asymm_v5,2020.2.10,Win32,60,61025ae37ef11b136ea224fe,,,,,,,,,892,88.5,-62,1,0,0,response3disk,,5,4,-2.5,1,0,0,rectangle,4,-2.5,1,0,0,4,-2.5,1,0,0,0,105,105,132,1,,,,,,,,
,,,,,,,,,,,,,FF,,,,,,,,0.6834,,,,,,,,,,,,,,,,,,,,,,60fd8dadd1d25db7a23b0425,61037983a2fda81102253079,2021-07-29_21h05.34.341,Simcolourproject_2stim_asymm_v5,2020.2.10,Win32,60,61025ae37ef11b136ea224fe,,,,,,,,,129,27.5,85,1,0,0,response1disk,,7,12.5,-10,1,0,0,rectangle,12.5,-10,1,0,0,12.5,-10,1,0,0,0,106,106,149,1,,,,,,,,
,,,,,,,,,,,,,FF,,,,,,,,0.7005,,,,,,,,,,,,,,,,,,,,,,60fd8dadd1d25db7a23b0425,61037983a2fda81102253079,2021-07-29_21h05.34.341,Simcolourproject_2stim_asymm_v5,2020.2.10,Win32,60,61025ae37ef11b136ea224fe,,,,,,,,,301,48,87.5,1,0,0,response1disk,,7,-5.5,-2,1,0,0,rectangle,-5.5,-2,1,0,0,-5.5,-2,1,0,0,0,107,107,128,1,,,,,,,,
,,,,,,,,,,,,,FF,,,,,,,,0.6834,,,,,,,,,,,,,,,,,,,,,,60fd8dadd1d25db7a23b0425,61037983a2fda81102253079,2021-07-29_21h05.34.341,Simcolourproject_2stim_asymm_v5,2020.2.10,Win32,60,61025ae37ef11b136ea224fe,,,,,,,,,1761,56.5,110.5,1,0,0,response1disk,,7,-10,-5,1,0,0,rectangle,-10,-5,1,0,0,-10,-5,1,0,0,0,108,108,54,1,,,,,,,,
,,,,,,,,,,,,,FF,,,,,,,,1.2176,,,,,,,,,,,,,,,,,,,,,,60fd8dadd1d25db7a23b0425,61037983a2fda81102253079,2021-07-29_21h05.34.341,Simcolourproject_2stim_asymm_v5,2020.2.10,Win32,60,61025ae37ef11b136ea224fe,,,,,,,,,2803,42.5,96.5,1,0,0,response1disk,,7,5.5,3.5,1,0,0,rectangle,5.5,3.5,1,0,0,5.5,3.5,1,0,0,0,109,109,155,1,,,,,,,,
,,,,,,,,,,,,,FF,,,,,,,,1.1509,,,,,,,,,,,,,,,,,,,,,,60fd8dadd1d25db7a23b0425,61037983a2fda81102253079,2021-07-29_21h05.34.341,Simcolourproject_2stim_asymm_v5,2020.2.10,Win32,60,61025ae37ef11b136ea224fe,,,,,,,,,4085,31.5,-75.5,1,0,0,response3disk,,4,8,0,1,0,0,rectangle,8,0,1,0,0,8,0,1,0,0,0,110,110,102,1,,,,,,,,
,,,,,,,,,,,,,FF,,,,,,,,1.1171,,,,,,,,,,,,,,,,,,,,,,60fd8dadd1d25db7a23b0425,61037983a2fda81102253079,2021-07-29_21h05.34.341,Simcolourproject_2stim_asymm_v5,2020.2.10,Win32,60,61025ae37ef11b136ea224fe,,,,,,,,,4032,94.5,-34.5,1,0,0,response3disk,,5,-4.5,9,1,0,0,rectangle,-4.5,9,1,0,0,-4.5,9,1,0,0,0,111,111,157,1,,,,,,,,
,,,,,,,,,,,,,FF,,,,,,,,0.8336,,,,,,,,,,,,,,,,,,,,,,60fd8dadd1d25db7a23b0425,61037983a2fda81102253079,2021-07-29_21h05.34.341,Simcolourproject_2stim_asymm_v5,2020.2.10,Win32,60,61025ae37ef11b136ea224fe,,,,,,,,,2484,49.5,76.5,1,0,0,response1disk,,7,7,-3.5,1,0,0,rectangle,7,-3.5,1,0,0,7,-3.5,1,0,0,0,112,112,26,1,,,,,,,,
,,,,,,,,,,,,,FF,,,,,,,,1.7509,,,,,,,,,,,,,,,,,,,,,,60fd8dadd1d25db7a23b0425,61037983a2fda81102253079,2021-07-29_21h05.34.341,Simcolourproject_2stim_asymm_v5,2020.2.10,Win32,60,61025ae37ef11b136ea224fe,,,,,,,,,1736,72,52.5,1,0,0,response1disk,,6,16.5,16,1,0,0,rectangle,16.5,16,1,0,0,16.5,16,1,0,0,0,113,113,131,1,,,,,,,,
,,,,,,,,,,,,,FF,,,,,,,,1.1505,,,,,,,,,,,,,,,,,,,,,,60fd8dadd1d25db7a23b0425,61037983a2fda81102253079,2021-07-29_21h05.34.341,Simcolourproject_2stim_asymm_v5,2020.2.10,Win32,60,61025ae37ef11b136ea224fe,,,,,,,,,402,37.5,77,1,0,0,response1disk,,7,0,4,1,0,0,rectangle,0,4,1,0,0,0,4,1,0,0,0,114,114,125,1,,,,,,,,
,,,,,,,,,,,,,FF,,,,,,,,0.6002,,,,,,,,,,,,,,,,,,,,,,60fd8dadd1d25db7a23b0425,61037983a2fda81102253079,2021-07-29_21h05.34.341,Simcolourproject_2stim_asymm_v5,2020.2.10,Win32,60,61025ae37ef11b136ea224fe,,,,,,,,,2569,39,68.5,1,0,0,response1disk,,7,-7,-12,1,0,0,rectangle,-7,-12,1,0,0,-7,-12,1,0,0,0,115,115,154,1,,,,,,,,
,,,,,,,,,,,,,FF,,,,,,,,0.6506,,,,,,,,,,,,,,,,,,,,,,60fd8dadd1d25db7a23b0425,61037983a2fda81102253079,2021-07-29_21h05.34.341,Simcolourproject_2stim_asymm_v5,2020.2.10,Win32,60,61025ae37ef11b136ea224fe,,,,,,,,,4134,42.5,102.5,1,0,0,response1disk,,7,-2,11,1,0,0,rectangle,-2,11,1,0,0,-2,11,1,0,0,0,116,116,134,1,,,,,,,,
,,,,,,,,,,,,,FF,,,,,,,,0.6839,,,,,,,,,,,,,,,,,,,,,,60fd8dadd1d25db7a23b0425,61037983a2fda81102253079,2021-07-29_21h05.34.341,Simcolourproject_2stim_asymm_v5,2020.2.10,Win32,60,61025ae37ef11b136ea224fe,,,,,,,,,1041,25,79.5,1,0,0,response1disk,,7,-6.5,11,1,0,0,rectangle,-6.5,11,1,0,0,-6.5,11,1,0,0,0,117,117,0,1,,,,,,,,
,,,,,,,,,,,,,FF,,,,,,,,0.8671,,,,,,,,,,,,,,,,,,,,,,60fd8dadd1d25db7a23b0425,61037983a2fda81102253079,2021-07-29_21h05.34.341,Simcolourproject_2stim_asymm_v5,2020.2.10,Win32,60,61025ae37ef11b136ea224fe,,,,,,,,,869,77,34.5,1,0,0,response1disk,,6,4.5,-4,1,0,0,rectangle,4.5,-4,1,0,0,4.5,-4,1,0,0,0,118,118,7,1,,,,,,,,
,,,,,,,,,,,,,FF,,,,,,,,0.6489,,,,,,,,,,,,,,,,,,,,,,60fd8dadd1d25db7a23b0425,61037983a2fda81102253079,2021-07-29_21h05.34.341,Simcolourproject_2stim_asymm_v5,2020.2.10,Win32,60,61025ae37ef11b136ea224fe,,,,,,,,,2600,41.5,98,1,0,0,response1disk,,7,10.5,12.5,1,0,0,rectangle,10.5,12.5,1,0,0,10.5,12.5,1,0,0,0,119,119,28,1,,,,,,,,
,,,,,,,,,,,,,FF,,,,,,,,0.9173,,,,,,,,,,,,,,,,,,,,,,60fd8dadd1d25db7a23b0425,61037983a2fda81102253079,2021-07-29_21h05.34.341,Simcolourproject_2stim_asymm_v5,2020.2.10,Win32,60,61025ae37ef11b136ea224fe,,,,,,,,,4013,53,97,1,0,0,response1disk,,7,16,0.5,1,0,0,rectangle,16,0.5,1,0,0,16,0.5,1,0,0,0,120,120,76,1,,,,,,,,
,,,,,,,,,,,,,FF,,,,,,,,0.5171,,,,,,,,,,,,,,,,,,,,,,60fd8dadd1d25db7a23b0425,61037983a2fda81102253079,2021-07-29_21h05.34.341,Simcolourproject_2stim_asymm_v5,2020.2.10,Win32,60,61025ae37ef11b136ea224fe,,,,,,,,,1703,40,65.5,1,0,0,response1disk,,7,3.5,5.5,1,0,0,rectangle,3.5,5.5,1,0,0,3.5,5.5,1,0,0,0,121,121,68,1,,,,,,,,
,,,,,,,,,,,,,FF,,,,,,,,0.7832,,,,,,,,,,,,,,,,,,,,,,60fd8dadd1d25db7a23b0425,61037983a2fda81102253079,2021-07-29_21h05.34.341,Simcolourproject_2stim_asymm_v5,2020.2.10,Win32,60,61025ae37ef11b136ea224fe,,,,,,,,,3738,41.5,98,1,0,0,response1disk,,7,-1.5,-5.5,1,0,0,rectangle,-1.5,-5.5,1,0,0,-1.5,-5.5,1,0,0,0,122,122,140,1,,,,,,,,
,,,,,,,,,,,,,FF,,,,,,,,0.7335,,,,,,,,,,,,,,,,,,,,,,60fd8dadd1d25db7a23b0425,61037983a2fda81102253079,2021-07-29_21h05.34.341,Simcolourproject_2stim_asymm_v5,2020.2.10,Win32,60,61025ae37ef11b136ea224fe,,,,,,,,,2069,41.5,77,1,0,0,response1disk,,7,6,11.5,1,0,0,rectangle,6,11.5,1,0,0,6,11.5,1,0,0,0,123,123,20,1,,,,,,,,
,,,,,,,,,,,,,FF,,,,,,,,1.8679,,,,,,,,,,,,,,,,,,,,,,60fd8dadd1d25db7a23b0425,61037983a2fda81102253079,2021-07-29_21h05.34.341,Simcolourproject_2stim_asymm_v5,2020.2.10,Win32,60,61025ae37ef11b136ea224fe,,,,,,,,,3994,-42.5,-108.5,1,0,0,response5disk,,3,-5.5,-13.5,1,0,0,rectangle,-5.5,-13.5,1,0,0,-5.5,-13.5,1,0,0,0,124,124,105,1,,,,,,,,
,,,,,,,,,,,,,FF,,,,,,,,1.0846,,,,,,,,,,,,,,,,,,,,,,60fd8dadd1d25db7a23b0425,61037983a2fda81102253079,2021-07-29_21h05.34.341,Simcolourproject_2stim_asymm_v5,2020.2.10,Win32,60,61025ae37ef11b136ea224fe,,,,,,,,,822,45.5,91.5,1,0,0,response1disk,,7,0.5,18,1,0,0,rectangle,0.5,18,1,0,0,0.5,18,1,0,0,0,125,125,118,1,,,,,,,,
,,,,,,,,,,,,,FF,,,,,,,,0.6095,,,,,,,,,,,,,,,,,,,,,,60fd8dadd1d25db7a23b0425,61037983a2fda81102253079,2021-07-29_21h05.34.341,Simcolourproject_2stim_asymm_v5,2020.2.10,Win32,60,61025ae37ef11b136ea224fe,,,,,,,,,794,44,70,1,0,0,response1disk,,7,16.5,-5,1,0,0,rectangle,16.5,-5,1,0,0,16.5,-5,1,0,0,0,126,126,66,1,,,,,,,,
,,,,,,,,,,,,,FF,,,,,,,,0.5999,,,,,,,,,,,,,,,,,,,,,,60fd8dadd1d25db7a23b0425,61037983a2fda81102253079,2021-07-29_21h05.34.341,Simcolourproject_2stim_asymm_v5,2020.2.10,Win32,60,61025ae37ef11b136ea224fe,,,,,,,,,2992,44,52,1,0,0,response1disk,,7,6.5,-10,1,0,0,rectangle,6.5,-10,1,0,0,6.5,-10,1,0,0,0,127,127,138,1,,,,,,,,
,,,,,,,,,,,,,FF,,,,,,,,1.3179,,,,,,,,,,,,,,,,,,,,,,60fd8dadd1d25db7a23b0425,61037983a2fda81102253079,2021-07-29_21h05.34.341,Simcolourproject_2stim_asymm_v5,2020.2.10,Win32,60,61025ae37ef11b136ea224fe,,,,,,,,,522,-88,-51,1,0,0,response5disk,,2,-2,3.5,1,0,0,rectangle,-2,3.5,1,0,0,-2,3.5,1,0,0,0,128,128,27,1,,,,,,,,
,,,,,,,,,,,,,FF,,,,,,,,0.983,,,,,,,,,,,,,,,,,,,,,,60fd8dadd1d25db7a23b0425,61037983a2fda81102253079,2021-07-29_21h05.34.341,Simcolourproject_2stim_asymm_v5,2020.2.10,Win32,60,61025ae37ef11b136ea224fe,,,,,,,,,171,-59,36.5,1,0,0,response7disk,,1,7.5,11.5,1,0,0,rectangle,7.5,11.5,1,0,0,7.5,11.5,1,0,0,0,129,129,141,1,,,,,,,,
,,,,,,,,,,,,,FF,,,,,,,,1.9177,,,,,,,,,,,,,,,,,,,,,,60fd8dadd1d25db7a23b0425,61037983a2fda81102253079,2021-07-29_21h05.34.341,Simcolourproject_2stim_asymm_v5,2020.2.10,Win32,60,61025ae37ef11b136ea224fe,,,,,,,,,4178,-48,-90,1,0,0,response5disk,,3,-2,-10.5,1,0,0,rectangle,-2,-10.5,1,0,0,-2,-10.5,1,0,0,0,130,130,34,1,,,,,,,,
,,,,,,,,,,,,,FF,,,,,,,,0.9504,,,,,,,,,,,,,,,,,,,,,,60fd8dadd1d25db7a23b0425,61037983a2fda81102253079,2021-07-29_21h05.34.341,Simcolourproject_2stim_asymm_v5,2020.2.10,Win32,60,61025ae37ef11b136ea224fe,,,,,,,,,2287,46,96,1,0,0,response1disk,,7,15,12,1,0,0,rectangle,15,12,1,0,0,15,12,1,0,0,0,131,131,63,1,,,,,,,,
,,,,,,,,,,,,,FF,,,,,,,,1.017,,,,,,,,,,,,,,,,,,,,,,60fd8dadd1d25db7a23b0425,61037983a2fda81102253079,2021-07-29_21h05.34.341,Simcolourproject_2stim_asymm_v5,2020.2.10,Win32,60,61025ae37ef11b136ea224fe,,,,,,,,,3202,-91,19,1,0,0,response7disk,,1,-26,-3,1,0,0,rectangle,-26,-3,1,0,0,-26,-3,1,0,0,0,132,132,5,1,,,,,,,,
,,,,,,,,,,,,,FF,,,,,,,,0.8913,,,,,,,,,,,,,,,,,,,,,,60fd8dadd1d25db7a23b0425,61037983a2fda81102253079,2021-07-29_21h05.34.341,Simcolourproject_2stim_asymm_v5,2020.2.10,Win32,60,61025ae37ef11b136ea224fe,,,,,,,,,1905,-37,-66.5,1,0,0,response5disk,,3,12,0.5,1,0,0,rectangle,12,0.5,1,0,0,12,0.5,1,0,0,0,133,133,94,1,,,,,,,,
,,,,,,,,,,,,,FF,,,,,,,,2.8177,,,,,,,,,,,,,,,,,,,,,,60fd8dadd1d25db7a23b0425,61037983a2fda81102253079,2021-07-29_21h05.34.341,Simcolourproject_2stim_asymm_v5,2020.2.10,Win32,60,61025ae37ef11b136ea224fe,,,,,,,,,3997,87.5,-43,1,0,0,response3disk,,5,3,4.5,1,0,0,rectangle,3,4.5,1,0,0,3,4.5,1,0,0,0,134,134,45,1,,,,,,,,
,,,,,,,,,,,,,FF,,,,,,,,1.317,,,,,,,,,,,,,,,,,,,,,,60fd8dadd1d25db7a23b0425,61037983a2fda81102253079,2021-07-29_21h05.34.341,Simcolourproject_2stim_asymm_v5,2020.2.10,Win32,60,61025ae37ef11b136ea224fe,,,,,,,,,1037,90.5,63,1,0,0,response1disk,,6,11.5,1.5,1,0,0,rectangle,11.5,1.5,1,0,0,11.5,1.5,1,0,0,0,135,135,87,1,,,,,,,,
,,,,,,,,,,,,,FF,,,,,,,,0.9169,,,,,,,,,,,,,,,,,,,,,,60fd8dadd1d25db7a23b0425,61037983a2fda81102253079,2021-07-29_21h05.34.341,Simcolourproject_2stim_asymm_v5,2020.2.10,Win32,60,61025ae37ef11b136ea224fe,,,,,,,,,2236,-109,-33.5,1,0,0,response5disk,,2,-1,3,1,0,0,rectangle,-1,3,1,0,0,-1,3,1,0,0,0,136,136,57,1,,,,,,,,
,,,,,,,,,,,,,FF,,,,,,,,1.0007,,,,,,,,,,,,,,,,,,,,,,60fd8dadd1d25db7a23b0425,61037983a2fda81102253079,2021-07-29_21h05.34.341,Simcolourproject_2stim_asymm_v5,2020.2.10,Win32,60,61025ae37ef11b136ea224fe,,,,,,,,,1532,60.5,-90,1,0,0,response3disk,,4,-11.5,-2,1,0,0,rectangle,-11.5,-2,1,0,0,-11.5,-2,1,0,0,0,137,137,89,1,,,,,,,,
,,,,,,,,,,,,,FF,,,,,,,,1.075,,,,,,,,,,,,,,,,,,,,,,60fd8dadd1d25db7a23b0425,61037983a2fda81102253079,2021-07-29_21h05.34.341,Simcolourproject_2stim_asymm_v5,2020.2.10,Win32,60,61025ae37ef11b136ea224fe,,,,,,,,,3092,90.5,-20,1,0,0,response3disk,,5,6,19.5,1,0,0,rectangle,6,19.5,1,0,0,6,19.5,1,0,0,0,138,138,108,1,,,,,,,,
,,,,,,,,,,,,,FF,,,,,,,,0.9006,,,,,,,,,,,,,,,,,,,,,,60fd8dadd1d25db7a23b0425,61037983a2fda81102253079,2021-07-29_21h05.34.341,Simcolourproject_2stim_asymm_v5,2020.2.10,Win32,60,61025ae37ef11b136ea224fe,,,,,,,,,2200,52.5,102,1,0,0,response1disk,,7,-1,-17.5,1,0,0,rectangle,-1,-17.5,1,0,0,-1,-17.5,1,0,0,0,139,139,18,1,,,,,,,,
,,,,,,,,,,,,,FF,,,,,,,,0.7837,,,,,,,,,,,,,,,,,,,,,,60fd8dadd1d25db7a23b0425,61037983a2fda81102253079,2021-07-29_21h05.34.341,Simcolourproject_2stim_asymm_v5,2020.2.10,Win32,60,61025ae37ef11b136ea224fe,,,,,,,,,1200,94.5,43,1,0,0,response1disk,,6,5.5,6.5,1,0,0,rectangle,5.5,6.5,1,0,0,5.5,6.5,1,0,0,0,140,140,1,1,,,,,,,,
,,,,,,,,,,,,,FF,,,,,,,,1.0169,,,,,,,,,,,,,,,,,,,,,,60fd8dadd1d25db7a23b0425,61037983a2fda81102253079,2021-07-29_21h05.34.341,Simcolourproject_2stim_asymm_v5,2020.2.10,Win32,60,61025ae37ef11b136ea224fe,,,,,,,,,709,33,97.5,1,0,0,response1disk,,7,5,-4.5,1,0,0,rectangle,5,-4.5,1,0,0,5,-4.5,1,0,0,0,141,141,156,1,,,,,,,,
,,,,,,,,,,,,,FF,,,,,,,,0.7835,,,,,,,,,,,,,,,,,,,,,,60fd8dadd1d25db7a23b0425,61037983a2fda81102253079,2021-07-29_21h05.34.341,Simcolourproject_2stim_asymm_v5,2020.2.10,Win32,60,61025ae37ef11b136ea224fe,,,,,,,,,462,58,93,1,0,0,response1disk,,7,2,7.5,1,0,0,rectangle,2,7.5,1,0,0,2,7.5,1,0,0,0,142,142,104,1,,,,,,,,
,,,,,,,,,,,,,FF,,,,,,,,1.4334,,,,,,,,,,,,,,,,,,,,,,60fd8dadd1d25db7a23b0425,61037983a2fda81102253079,2021-07-29_21h05.34.341,Simcolourproject_2stim_asymm_v5,2020.2.10,Win32,60,61025ae37ef11b136ea224fe,,,,,,,,,2182,43.5,91,1,0,0,response1disk,,7,-3,5,1,0,0,rectangle,-3,5,1,0,0,-3,5,1,0,0,0,143,143,38,1,,,,,,,,
,,,,,,,,,,,,,FF,,,,,,,,0.7841,,,,,,,,,,,,,,,,,,,,,,60fd8dadd1d25db7a23b0425,61037983a2fda81102253079,2021-07-29_21h05.34.341,Simcolourproject_2stim_asymm_v5,2020.2.10,Win32,60,61025ae37ef11b136ea224fe,,,,,,,,,552,81,45,1,0,0,response1disk,,6,-1.5,-2.5,1,0,0,rectangle,-1.5,-2.5,1,0,0,-1.5,-2.5,1,0,0,0,144,144,152,1,,,,,,,,
,,,,,,,,,,,,,FF,,,,,,,,1.1502,,,,,,,,,,,,,,,,,,,,,,60fd8dadd1d25db7a23b0425,61037983a2fda81102253079,2021-07-29_21h05.34.341,Simcolourproject_2stim_asymm_v5,2020.2.10,Win32,60,61025ae37ef11b136ea224fe,,,,,,,,,712,38.5,89.5,1,0,0,response1disk,,7,4.5,-4,1,0,0,rectangle,4.5,-4,1,0,0,4.5,-4,1,0,0,0,145,145,85,1,,,,,,,,
,,,,,,,,,,,,,FF,,,,,,,,0.4668,,,,,,,,,,,,,,,,,,,,,,60fd8dadd1d25db7a23b0425,61037983a2fda81102253079,2021-07-29_21h05.34.341,Simcolourproject_2stim_asymm_v5,2020.2.10,Win32,60,61025ae37ef11b136ea224fe,,,,,,,,,2014,32.5,68.5,1,0,0,response1disk,,7,-9,3,1,0,0,rectangle,-9,3,1,0,0,-9,3,1,0,0,0,146,146,119,1,,,,,,,,
,,,,,,,,,,,,,FF,,,,,,,,0.4669,,,,,,,,,,,,,,,,,,,,,,60fd8dadd1d25db7a23b0425,61037983a2fda81102253079,2021-07-29_21h05.34.341,Simcolourproject_2stim_asymm_v5,2020.2.10,Win32,60,61025ae37ef11b136ea224fe,,,,,,,,,300,31.5,77.5,1,0,0,response1disk,,7,-1.5,-0.5,1,0,0,rectangle,95.5,-22.5,1,0,0,24,3,1,0,0,0,147,147,90,1,,response3disk_3,TRUE,5,5,"[35,13,150,148,298,174,256,85,321,198,13,322,253,176,75,61,40,241,91,70]",1.1505,rectangle
,,,,,,,,,,,,,FF,,,,,,,,1.0173,,,,,,,,,,,,,,,,,,,,,,60fd8dadd1d25db7a23b0425,61037983a2fda81102253079,2021-07-29_21h05.34.341,Simcolourproject_2stim_asymm_v5,2020.2.10,Win32,60,61025ae37ef11b136ea224fe,,,,,,,,,133,28,108,1,0,0,response1disk,,7,0,11.5,1,0,0,rectangle,0,11.5,1,0,0,0,11.5,1,0,0,0,148,148,39,1,,,,,,,,
,,,,,,,,,,,,,FF,,,,,,,,0.8175,,,,,,,,,,,,,,,,,,,,,,60fd8dadd1d25db7a23b0425,61037983a2fda81102253079,2021-07-29_21h05.34.341,Simcolourproject_2stim_asymm_v5,2020.2.10,Win32,60,61025ae37ef11b136ea224fe,,,,,,,,,298,23.5,65.5,1,0,0,response1disk,,7,3.5,-12.5,1,0,0,rectangle,77,28,1,0,0,11,-4,1,0,0,0,149,149,99,1,,response1disk_3,TRUE,6,6,"[35,13,150,148,298,174,256,85,321,198,13,322,253,176,75,61,40,241,91,70]",1.9502,rectangle
,,,,,,,,,,,,,FF,,,,,,,,1.1171,,,,,,,,,,,,,,,,,,,,,,60fd8dadd1d25db7a23b0425,61037983a2fda81102253079,2021-07-29_21h05.34.341,Simcolourproject_2stim_asymm_v5,2020.2.10,Win32,60,61025ae37ef11b136ea224fe,,,,,,,,,1470,96,36.5,1,0,0,response1disk,,6,15.5,-5.5,1,0,0,rectangle,15.5,-5.5,1,0,0,15.5,-5.5,1,0,0,0,150,150,62,1,,,,,,,,
,,,,,,,,,,,,,FF,,,,,,,,1.0171,,,,,,,,,,,,,,,,,,,,,,60fd8dadd1d25db7a23b0425,61037983a2fda81102253079,2021-07-29_21h05.34.341,Simcolourproject_2stim_asymm_v5,2020.2.10,Win32,60,61025ae37ef11b136ea224fe,,,,,,,,,1553,53.5,82.5,1,0,0,response1disk,,7,-3.5,-4.5,1,0,0,rectangle,-3.5,-4.5,1,0,0,-3.5,-4.5,1,0,0,0,151,151,153,1,,,,,,,,
,,,,,,,,,,,,,FF,,,,,,,,2.3843,,,,,,,,,,,,,,,,,,,,,,60fd8dadd1d25db7a23b0425,61037983a2fda81102253079,2021-07-29_21h05.34.341,Simcolourproject_2stim_asymm_v5,2020.2.10,Win32,60,61025ae37ef11b136ea224fe,,,,,,,,,914,65.5,37,1,0,0,response1disk,,6,10.5,7.5,1,0,0,rectangle,10.5,7.5,1,0,0,10.5,7.5,1,0,0,0,152,152,146,1,,,,,,,,
,,,,,,,,,,,,,FF,,,,,,,,0.9676,,,,,,,,,,,,,,,,,,,,,,60fd8dadd1d25db7a23b0425,61037983a2fda81102253079,2021-07-29_21h05.34.341,Simcolourproject_2stim_asymm_v5,2020.2.10,Win32,60,61025ae37ef11b136ea224fe,,,,,,,,,1456,-34,-83,1,0,0,response5disk,,3,3.5,-7.5,1,0,0,rectangle,3.5,-7.5,1,0,0,3.5,-7.5,1,0,0,0,153,153,73,1,,,,,,,,
,,,,,,,,,,,,,FF,,,,,,,,1.1674,,,,,,,,,,,,,,,,,,,,,,60fd8dadd1d25db7a23b0425,61037983a2fda81102253079,2021-07-29_21h05.34.341,Simcolourproject_2stim_asymm_v5,2020.2.10,Win32,60,61025ae37ef11b136ea224fe,,,,,,,,,2501,89,42,1,0,0,response1disk,,6,7.5,-4,1,0,0,rectangle,7.5,-4,1,0,0,7.5,-4,1,0,0,0,154,154,59,1,,,,,,,,
,,,,,,,,,,,,,FF,,,,,,,,1.2337,,,,,,,,,,,,,,,,,,,,,,60fd8dadd1d25db7a23b0425,61037983a2fda81102253079,2021-07-29_21h05.34.341,Simcolourproject_2stim_asymm_v5,2020.2.10,Win32,60,61025ae37ef11b136ea224fe,,,,,,,,,2384,47,100.5,1,0,0,response1disk,,7,-8,10.5,1,0,0,rectangle,-8,10.5,1,0,0,-8,10.5,1,0,0,0,155,155,96,1,,,,,,,,
,,,,,,,,,,,,,FF,,,,,,,,1.5346,,,,,,,,,,,,,,,,,,,,,,60fd8dadd1d25db7a23b0425,61037983a2fda81102253079,2021-07-29_21h05.34.341,Simcolourproject_2stim_asymm_v5,2020.2.10,Win32,60,61025ae37ef11b136ea224fe,,,,,,,,,3699,97.5,-41.5,1,0,0,response3disk,,5,1.5,1.5,1,0,0,rectangle,1.5,1.5,1,0,0,1.5,1.5,1,0,0,0,156,156,75,1,,,,,,,,
,,,,,,,,,,,,,FF,,,,,,,,1.4009,,,,,,,,,,,,,,,,,,,,,,60fd8dadd1d25db7a23b0425,61037983a2fda81102253079,2021-07-29_21h05.34.341,Simcolourproject_2stim_asymm_v5,2020.2.10,Win32,60,61025ae37ef11b136ea224fe,,,,,,,,,237,43,72.5,1,0,0,response1disk,,7,-1.5,0,1,0,0,rectangle,-1.5,0,1,0,0,-1.5,0,1,0,0,0,157,157,14,1,,,,,,,,
,,,,,,,,,,,,,FF,,,,,,,,0.65,,,,,,,,,,,,,,,,,,,,,,60fd8dadd1d25db7a23b0425,61037983a2fda81102253079,2021-07-29_21h05.34.341,Simcolourproject_2stim_asymm_v5,2020.2.10,Win32,60,61025ae37ef11b136ea224fe,,,,,,,,,3173,30,88,1,0,0,response1disk,,7,-4,13,1,0,0,rectangle,-4,13,1,0,0,-4,13,1,0,0,0,158,158,53,1,,,,,,,,
,,,,,,,,,,,,,FF,,,,,,,,0.5504,,,,,,,,,,,,,,,,,,,,,,60fd8dadd1d25db7a23b0425,61037983a2fda81102253079,2021-07-29_21h05.34.341,Simcolourproject_2stim_asymm_v5,2020.2.10,Win32,60,61025ae37ef11b136ea224fe,,,,,,,,,1566,52.5,88,1,0,0,response1disk,,7,-4,4.5,1,0,0,rectangle,-4,4.5,1,0,0,-4,4.5,1,0,0,0,159,159,24,1,,,,,,,,
,,,,,,,,,,,,,FF,,,,,,,,0.9501,,,,,,,,,,,,,,,,,,,,,,60fd8dadd1d25db7a23b0425,61037983a2fda81102253079,2021-07-29_21h05.34.341,Simcolourproject_2stim_asymm_v5,2020.2.10,Win32,60,61025ae37ef11b136ea224fe,,,,,,,,,3477,-81.5,-50,1,0,0,response5disk,,2,5,12,1,0,0,rectangle,5,12,1,0,0,5,12,1,0,0,1,0,160,132,1,,,,,,,,
,,,,,,,,,,,,,FF,,,,,,,,1.2009,,,,,,,,,,,,,,,,,,,,,,60fd8dadd1d25db7a23b0425,61037983a2fda81102253079,2021-07-29_21h05.34.341,Simcolourproject_2stim_asymm_v5,2020.2.10,Win32,60,61025ae37ef11b136ea224fe,,,,,,,,,3502,68.5,-99.5,1,0,0,response3disk,,4,-5.5,-0.5,1,0,0,rectangle,-5.5,-0.5,1,0,0,-5.5,-0.5,1,0,0,1,1,161,82,1,,,,,,,,
,,,,,,,,,,,,,FF,,,,,,,,0.8676,,,,,,,,,,,,,,,,,,,,,,60fd8dadd1d25db7a23b0425,61037983a2fda81102253079,2021-07-29_21h05.34.341,Simcolourproject_2stim_asymm_v5,2020.2.10,Win32,60,61025ae37ef11b136ea224fe,,,,,,,,,407,33.5,98,1,0,0,response1disk,,7,-5.5,11,1,0,0,rectangle,-5.5,11,1,0,0,-5.5,11,1,0,0,1,2,162,67,1,,,,,,,,
,,,,,,,,,,,,,FF,,,,,,,,0.5501,,,,,,,,,,,,,,,,,,,,,,60fd8dadd1d25db7a23b0425,61037983a2fda81102253079,2021-07-29_21h05.34.341,Simcolourproject_2stim_asymm_v5,2020.2.10,Win32,60,61025ae37ef11b136ea224fe,,,,,,,,,2394,31.5,91,1,0,0,response1disk,,7,4.5,-1,1,0,0,rectangle,4.5,-1,1,0,0,4.5,-1,1,0,0,1,3,163,157,1,,,,,,,,
,,,,,,,,,,,,,FF,,,,,,,,0.8503,,,,,,,,,,,,,,,,,,,,,,60fd8dadd1d25db7a23b0425,61037983a2fda81102253079,2021-07-29_21h05.34.341,Simcolourproject_2stim_asymm_v5,2020.2.10,Win32,60,61025ae37ef11b136ea224fe,,,,,,,,,940,80,41,1,0,0,response1disk,,6,4,2.5,1,0,0,rectangle,4,2.5,1,0,0,4,2.5,1,0,0,1,4,164,60,1,,,,,,,,
,,,,,,,,,,,,,FF,,,,,,,,2.1174,,,,,,,,,,,,,,,,,,,,,,60fd8dadd1d25db7a23b0425,61037983a2fda81102253079,2021-07-29_21h05.34.341,Simcolourproject_2stim_asymm_v5,2020.2.10,Win32,60,61025ae37ef11b136ea224fe,,,,,,,,,4054,-33,-75,1,0,0,response5disk,,3,-2,-8.5,1,0,0,rectangle,-2,-8.5,1,0,0,-2,-8.5,1,0,0,1,5,165,26,1,,,,,,,,
,,,,,,,,,,,,,FF,,,,,,,,0.7174,,,,,,,,,,,,,,,,,,,,,,60fd8dadd1d25db7a23b0425,61037983a2fda81102253079,2021-07-29_21h05.34.341,Simcolourproject_2stim_asymm_v5,2020.2.10,Win32,60,61025ae37ef11b136ea224fe,,,,,,,,,3626,31,82.5,1,0,0,response1disk,,7,-1,-8.5,1,0,0,rectangle,-1,-8.5,1,0,0,-1,-8.5,1,0,0,1,6,166,146,1,,,,,,,,
,,,,,,,,,,,,,FF,,,,,,,,0.5501,,,,,,,,,,,,,,,,,,,,,,60fd8dadd1d25db7a23b0425,61037983a2fda81102253079,2021-07-29_21h05.34.341,Simcolourproject_2stim_asymm_v5,2020.2.10,Win32,60,61025ae37ef11b136ea224fe,,,,,,,,,927,26.5,84,1,0,0,response1disk,,7,4.5,4.5,1,0,0,rectangle,4.5,4.5,1,0,0,4.5,4.5,1,0,0,1,7,167,138,1,,,,,,,,
,,,,,,,,,,,,,FF,,,,,,,,1.8834,,,,,,,,,,,,,,,,,,,,,,60fd8dadd1d25db7a23b0425,61037983a2fda81102253079,2021-07-29_21h05.34.341,Simcolourproject_2stim_asymm_v5,2020.2.10,Win32,60,61025ae37ef11b136ea224fe,,,,,,,,,2294,-35.5,-86,1,0,0,response5disk,,3,11.5,3,1,0,0,rectangle,11.5,3,1,0,0,11.5,3,1,0,0,1,8,168,148,1,,,,,,,,
,,,,,,,,,,,,,FF,,,,,,,,0.7673,,,,,,,,,,,,,,,,,,,,,,60fd8dadd1d25db7a23b0425,61037983a2fda81102253079,2021-07-29_21h05.34.341,Simcolourproject_2stim_asymm_v5,2020.2.10,Win32,60,61025ae37ef11b136ea224fe,,,,,,,,,2050,69,97.5,1,0,0,response1disk,,7,-1.5,0,1,0,0,rectangle,-1.5,0,1,0,0,-1.5,0,1,0,0,1,9,169,129,1,,,,,,,,
,,,,,,,,,,,,,FF,,,,,,,,0.8337,,,,,,,,,,,,,,,,,,,,,,60fd8dadd1d25db7a23b0425,61037983a2fda81102253079,2021-07-29_21h05.34.341,Simcolourproject_2stim_asymm_v5,2020.2.10,Win32,60,61025ae37ef11b136ea224fe,,,,,,,,,2643,83,49.5,1,0,0,response1disk,,6,-5,3.5,1,0,0,rectangle,-5,3.5,1,0,0,-5,3.5,1,0,0,1,10,170,155,1,,,,,,,,
,,,,,,,,,,,,,FF,,,,,,,,0.6835,,,,,,,,,,,,,,,,,,,,,,60fd8dadd1d25db7a23b0425,61037983a2fda81102253079,2021-07-29_21h05.34.341,Simcolourproject_2stim_asymm_v5,2020.2.10,Win32,60,61025ae37ef11b136ea224fe,,,,,,,,,3317,34,55,1,0,0,response1disk,,7,10.5,8.5,1,0,0,rectangle,10.5,8.5,1,0,0,10.5,8.5,1,0,0,1,11,171,35,1,,,,,,,,
,,,,,,,,,,,,,FF,,,,,,,,1.0503,,,,,,,,,,,,,,,,,,,,,,60fd8dadd1d25db7a23b0425,61037983a2fda81102253079,2021-07-29_21h05.34.341,Simcolourproject_2stim_asymm_v5,2020.2.10,Win32,60,61025ae37ef11b136ea224fe,,,,,,,,,978,59,-97.5,1,0,0,response3disk,,4,21.5,-1,1,0,0,rectangle,21.5,-1,1,0,0,21.5,-1,1,0,0,1,12,172,147,1,,,,,,,,
,,,,,,,,,,,,,FF,,,,,,,,1.6,,,,,,,,,,,,,,,,,,,,,,60fd8dadd1d25db7a23b0425,61037983a2fda81102253079,2021-07-29_21h05.34.341,Simcolourproject_2stim_asymm_v5,2020.2.10,Win32,60,61025ae37ef11b136ea224fe,,,,,,,,,1783,63.5,83.5,1,0,0,response1disk,,7,2,-4,1,0,0,rectangle,-96,-25,1,0,0,-2,-8,1,0,0,1,13,173,85,1,,response5disk_3,TRUE,2,2,"[35,13,150,148,298,174,256,85,321,198,13,322,253,176,75,61,40,241,91,70]",1.1497,rectangle
,,,,,,,,,,,,,FF,,,,,,,,0.8674,,,,,,,,,,,,,,,,,,,,,,60fd8dadd1d25db7a23b0425,61037983a2fda81102253079,2021-07-29_21h05.34.341,Simcolourproject_2stim_asymm_v5,2020.2.10,Win32,60,61025ae37ef11b136ea224fe,,,,,,,,,1100,33,67.5,1,0,0,response1disk,,7,0,-0.5,1,0,0,rectangle,0,-0.5,1,0,0,0,-0.5,1,0,0,1,14,174,68,1,,,,,,,,
,,,,,,,,,,,,,FF,,,,,,,,1.0004,,,,,,,,,,,,,,,,,,,,,,60fd8dadd1d25db7a23b0425,61037983a2fda81102253079,2021-07-29_21h05.34.341,Simcolourproject_2stim_asymm_v5,2020.2.10,Win32,60,61025ae37ef11b136ea224fe,,,,,,,,,601,86,62,1,0,0,response1disk,,6,2,-7.5,1,0,0,rectangle,54,-87.5,1,0,0,-5.5,-1,1,0,0,1,15,175,28,1,,response3disk_3,TRUE,4,4,"[35,13,150,148,298,174,256,85,321,198,13,322,253,176,75,61,40,241,91,70]",1.0169,rectangle
,,,,,,,,,,,,,FF,,,,,,,,0.7004,,,,,,,,,,,,,,,,,,,,,,60fd8dadd1d25db7a23b0425,61037983a2fda81102253079,2021-07-29_21h05.34.341,Simcolourproject_2stim_asymm_v5,2020.2.10,Win32,60,61025ae37ef11b136ea224fe,,,,,,,,,1109,43.5,95.5,1,0,0,response1disk,,7,1,5.5,1,0,0,rectangle,1,5.5,1,0,0,1,5.5,1,0,0,1,16,176,19,1,,,,,,,,
,,,,,,,,,,,,,FF,,,,,,,,6.752,,,,,,,,,,,,,,,,,,,,,,60fd8dadd1d25db7a23b0425,61037983a2fda81102253079,2021-07-29_21h05.34.341,Simcolourproject_2stim_asymm_v5,2020.2.10,Win32,60,61025ae37ef11b136ea224fe,,,,,,,,,1982,50,114.5,1,0,0,response1disk,,7,-0.5,7,1,0,0,rectangle,-0.5,7,1,0,0,-0.5,7,1,0,0,1,17,177,107,1,,,,,,,,
,,,,,,,,,,,,,FF,,,,,,,,0.75,,,,,,,,,,,,,,,,,,,,,,60fd8dadd1d25db7a23b0425,61037983a2fda81102253079,2021-07-29_21h05.34.341,Simcolourproject_2stim_asymm_v5,2020.2.10,Win32,60,61025ae37ef11b136ea224fe,,,,,,,,,1498,54,86,1,0,0,response1disk,,7,5.5,3.5,1,0,0,rectangle,5.5,3.5,1,0,0,5.5,3.5,1,0,0,1,18,178,17,1,,,,,,,,
,,,,,,,,,,,,,FF,,,,,,,,1.1002,,,,,,,,,,,,,,,,,,,,,,60fd8dadd1d25db7a23b0425,61037983a2fda81102253079,2021-07-29_21h05.34.341,Simcolourproject_2stim_asymm_v5,2020.2.10,Win32,60,61025ae37ef11b136ea224fe,,,,,,,,,2551,-67,-83.5,1,0,0,response5disk,,3,10,-2.5,1,0,0,rectangle,10,-2.5,1,0,0,10,-2.5,1,0,0,1,19,179,61,1,,,,,,,,
,,,,,,,,,,,,,FF,,,,,,,,0.6336,,,,,,,,,,,,,,,,,,,,,,60fd8dadd1d25db7a23b0425,61037983a2fda81102253079,2021-07-29_21h05.34.341,Simcolourproject_2stim_asymm_v5,2020.2.10,Win32,60,61025ae37ef11b136ea224fe,,,,,,,,,2436,48.5,88.5,1,0,0,response1disk,,7,2,-4,1,0,0,rectangle,2,-4,1,0,0,2,-4,1,0,0,1,20,180,88,1,,,,,,,,
,,,,,,,,,,,,,FF,,,,,,,,1.3337,,,,,,,,,,,,,,,,,,,,,,60fd8dadd1d25db7a23b0425,61037983a2fda81102253079,2021-07-29_21h05.34.341,Simcolourproject_2stim_asymm_v5,2020.2.10,Win32,60,61025ae37ef11b136ea224fe,,,,,,,,,3003,-101,-55,1,0,0,response5disk,,2,-15.5,7.5,1,0,0,rectangle,-15.5,7.5,1,0,0,-15.5,7.5,1,0,0,1,21,181,122,1,,,,,,,,
,,,,,,,,,,,,,FF,,,,,,,,1.0841,,,,,,,,,,,,,,,,,,,,,,60fd8dadd1d25db7a23b0425,61037983a2fda81102253079,2021-07-29_21h05.34.341,Simcolourproject_2stim_asymm_v5,2020.2.10,Win32,60,61025ae37ef11b136ea224fe,,,,,,,,,1502,50.5,73.5,1,0,0,response1disk,,7,6.5,1,1,0,0,rectangle,6.5,1,1,0,0,6.5,1,1,0,0,1,22,182,29,1,,,,,,,,
,,,,,,,,,,,,,FF,,,,,,,,0.7664,,,,,,,,,,,,,,,,,,,,,,60fd8dadd1d25db7a23b0425,61037983a2fda81102253079,2021-07-29_21h05.34.341,Simcolourproject_2stim_asymm_v5,2020.2.10,Win32,60,61025ae37ef11b136ea224fe,,,,,,,,,1544,48.5,83,1,0,0,response1disk,,7,-2.5,9,1,0,0,rectangle,-2.5,9,1,0,0,-2.5,9,1,0,0,1,23,183,123,1,,,,,,,,
,,,,,,,,,,,,,FF,,,,,,,,1.2334,,,,,,,,,,,,,,,,,,,,,,60fd8dadd1d25db7a23b0425,61037983a2fda81102253079,2021-07-29_21h05.34.341,Simcolourproject_2stim_asymm_v5,2020.2.10,Win32,60,61025ae37ef11b136ea224fe,,,,,,,,,1146,57,81,1,0,0,response1disk,,7,21.5,0,1,0,0,rectangle,21.5,0,1,0,0,21.5,0,1,0,0,1,24,184,83,1,,,,,,,,
,,,,,,,,,,,,,FF,,,,,,,,0.9502,,,,,,,,,,,,,,,,,,,,,,60fd8dadd1d25db7a23b0425,61037983a2fda81102253079,2021-07-29_21h05.34.341,Simcolourproject_2stim_asymm_v5,2020.2.10,Win32,60,61025ae37ef11b136ea224fe,,,,,,,,,4261,65.5,88,1,0,0,response1disk,,7,11,5.5,1,0,0,rectangle,11,5.5,1,0,0,11,5.5,1,0,0,1,25,185,18,1,,,,,,,,
,,,,,,,,,,,,,FF,,,,,,,,0.6339,,,,,,,,,,,,,,,,,,,,,,60fd8dadd1d25db7a23b0425,61037983a2fda81102253079,2021-07-29_21h05.34.341,Simcolourproject_2stim_asymm_v5,2020.2.10,Win32,60,61025ae37ef11b136ea224fe,,,,,,,,,329,43,95.5,1,0,0,response1disk,,7,-0.5,5,1,0,0,rectangle,-0.5,5,1,0,0,-0.5,5,1,0,0,1,26,186,36,1,,,,,,,,
,,,,,,,,,,,,,FF,,,,,,,,0.6509,,,,,,,,,,,,,,,,,,,,,,60fd8dadd1d25db7a23b0425,61037983a2fda81102253079,2021-07-29_21h05.34.341,Simcolourproject_2stim_asymm_v5,2020.2.10,Win32,60,61025ae37ef11b136ea224fe,,,,,,,,,2713,35.5,88.5,1,0,0,response1disk,,7,-10.5,-11.5,1,0,0,rectangle,-10.5,-11.5,1,0,0,-10.5,-11.5,1,0,0,1,27,187,150,1,,,,,,,,
,,,,,,,,,,,,,FF,,,,,,,,0.6841,,,,,,,,,,,,,,,,,,,,,,60fd8dadd1d25db7a23b0425,61037983a2fda81102253079,2021-07-29_21h05.34.341,Simcolourproject_2stim_asymm_v5,2020.2.10,Win32,60,61025ae37ef11b136ea224fe,,,,,,,,,1623,80,52.5,1,0,0,response1disk,,6,-7,-7,1,0,0,rectangle,-7,-7,1,0,0,-7,-7,1,0,0,1,28,188,124,1,,,,,,,,
,,,,,,,,,,,,,FF,,,,,,,,0.7667,,,,,,,,,,,,,,,,,,,,,,60fd8dadd1d25db7a23b0425,61037983a2fda81102253079,2021-07-29_21h05.34.341,Simcolourproject_2stim_asymm_v5,2020.2.10,Win32,60,61025ae37ef11b136ea224fe,,,,,,,,,3918,61,108.5,1,0,0,response1disk,,7,-2.5,0.5,1,0,0,rectangle,-2.5,0.5,1,0,0,-2.5,0.5,1,0,0,1,29,189,127,1,,,,,,,,
,,,,,,,,,,,,,FF,,,,,,,,0.7841,,,,,,,,,,,,,,,,,,,,,,60fd8dadd1d25db7a23b0425,61037983a2fda81102253079,2021-07-29_21h05.34.341,Simcolourproject_2stim_asymm_v5,2020.2.10,Win32,60,61025ae37ef11b136ea224fe,,,,,,,,,2025,-26.5,75.5,1,0,0,response7disk,,0,10,0,1,0,0,rectangle,10,0,1,0,0,10,0,1,0,0,1,30,190,149,1,,,,,,,,
,,,,,,,,,,,,,FF,,,,,,,,0.7672,,,,,,,,,,,,,,,,,,,,,,60fd8dadd1d25db7a23b0425,61037983a2fda81102253079,2021-07-29_21h05.34.341,Simcolourproject_2stim_asymm_v5,2020.2.10,Win32,60,61025ae37ef11b136ea224fe,,,,,,,,,2744,60,71.5,1,0,0,response1disk,,7,9,-19,1,0,0,rectangle,9,-19,1,0,0,9,-19,1,0,0,1,31,191,141,1,,,,,,,,
,,,,,,,,,,,,,FF,,,,,,,,0.8503,,,,,,,,,,,,,,,,,,,,,,60fd8dadd1d25db7a23b0425,61037983a2fda81102253079,2021-07-29_21h05.34.341,Simcolourproject_2stim_asymm_v5,2020.2.10,Win32,60,61025ae37ef11b136ea224fe,,,,,,,,,1999,34.5,103,1,0,0,response1disk,,7,-7.5,9.5,1,0,0,rectangle,-7.5,9.5,1,0,0,-7.5,9.5,1,0,0,1,32,192,11,1,,,,,,,,
,,,,,,,,,,,,,FF,,,,,,,,0.8833,,,,,,,,,,,,,,,,,,,,,,60fd8dadd1d25db7a23b0425,61037983a2fda81102253079,2021-07-29_21h05.34.341,Simcolourproject_2stim_asymm_v5,2020.2.10,Win32,60,61025ae37ef11b136ea224fe,,,,,,,,,1357,28.5,71.5,1,0,0,response1disk,,7,2.5,-12.5,1,0,0,rectangle,2.5,-12.5,1,0,0,2.5,-12.5,1,0,0,1,33,193,42,1,,,,,,,,
,,,,,,,,,,,,,FF,,,,,,,,1.0837,,,,,,,,,,,,,,,,,,,,,,60fd8dadd1d25db7a23b0425,61037983a2fda81102253079,2021-07-29_21h05.34.341,Simcolourproject_2stim_asymm_v5,2020.2.10,Win32,60,61025ae37ef11b136ea224fe,,,,,,,,,3901,-36,-71.5,1,0,0,response5disk,,3,7.5,7.5,1,0,0,rectangle,7.5,7.5,1,0,0,7.5,7.5,1,0,0,1,34,194,117,1,,,,,,,,
,,,,,,,,,,,,,FF,,,,,,,,1.2503,,,,,,,,,,,,,,,,,,,,,,60fd8dadd1d25db7a23b0425,61037983a2fda81102253079,2021-07-29_21h05.34.341,Simcolourproject_2stim_asymm_v5,2020.2.10,Win32,60,61025ae37ef11b136ea224fe,,,,,,,,,2727,-85,-50.5,1,0,0,response5disk,,2,-20.5,0,1,0,0,rectangle,-20.5,0,1,0,0,-20.5,0,1,0,0,1,35,195,80,1,,,,,,,,
,,,,,,,,,,,,,FF,,,,,,,,0.6673,,,,,,,,,,,,,,,,,,,,,,60fd8dadd1d25db7a23b0425,61037983a2fda81102253079,2021-07-29_21h05.34.341,Simcolourproject_2stim_asymm_v5,2020.2.10,Win32,60,61025ae37ef11b136ea224fe,,,,,,,,,1368,-42,79,1,0,0,response7disk,,0,-8.5,6.5,1,0,0,rectangle,-8.5,6.5,1,0,0,-8.5,6.5,1,0,0,1,36,196,86,1,,,,,,,,
,,,,,,,,,,,,,FF,,,,,,,,0.5336,,,,,,,,,,,,,,,,,,,,,,60fd8dadd1d25db7a23b0425,61037983a2fda81102253079,2021-07-29_21h05.34.341,Simcolourproject_2stim_asymm_v5,2020.2.10,Win32,60,61025ae37ef11b136ea224fe,,,,,,,,,2799,54,94.5,1,0,0,response1disk,,7,6,2,1,0,0,rectangle,-78.5,50.5,1,0,0,-9,8.5,1,0,0,1,37,197,153,1,,response7disk_3,TRUE,1,1,"[35,13,150,148,298,174,256,85,321,198,13,322,253,176,75,61,40,241,91,70]",1.2844,rectangle
,,,,,,,,,,,,,FF,,,,,,,,0.8677,,,,,,,,,,,,,,,,,,,,,,60fd8dadd1d25db7a23b0425,61037983a2fda81102253079,2021-07-29_21h05.34.341,Simcolourproject_2stim_asymm_v5,2020.2.10,Win32,60,61025ae37ef11b136ea224fe,,,,,,,,,4276,69.5,103.5,1,0,0,response1disk,,7,3.5,7,1,0,0,rectangle,3.5,7,1,0,0,3.5,7,1,0,0,1,38,198,69,1,,,,,,,,
,,,,,,,,,,,,,FF,,,,,,,,0.6835,,,,,,,,,,,,,,,,,,,,,,60fd8dadd1d25db7a23b0425,61037983a2fda81102253079,2021-07-29_21h05.34.341,Simcolourproject_2stim_asymm_v5,2020.2.10,Win32,60,61025ae37ef11b136ea224fe,,,,,,,,,3025,29.5,82.5,1,0,0,response1disk,,7,-1,3,1,0,0,rectangle,-1,3,1,0,0,-1,3,1,0,0,1,39,199,133,1,,,,,,,,
,,,,,,,,,,,,,FF,,,,,,,,0.9841,,,,,,,,,,,,,,,,,,,,,,60fd8dadd1d25db7a23b0425,61037983a2fda81102253079,2021-07-29_21h05.34.341,Simcolourproject_2stim_asymm_v5,2020.2.10,Win32,60,61025ae37ef11b136ea224fe,,,,,,,,,3252,-97,40,1,0,0,response7disk,,1,-5.5,-10,1,0,0,rectangle,-5.5,-10,1,0,0,-5.5,-10,1,0,0,1,40,200,84,1,,,,,,,,
,,,,,,,,,,,,,FF,,,,,,,,1.1171,,,,,,,,,,,,,,,,,,,,,,60fd8dadd1d25db7a23b0425,61037983a2fda81102253079,2021-07-29_21h05.34.341,Simcolourproject_2stim_asymm_v5,2020.2.10,Win32,60,61025ae37ef11b136ea224fe,,,,,,,,,4339,-96.5,-50.5,1,0,0,response5disk,,2,-6,-2,1,0,0,rectangle,-6,-2,1,0,0,-6,-2,1,0,0,1,41,201,131,1,,,,,,,,
,,,,,,,,,,,,,FF,,,,,,,,0.8499,,,,,,,,,,,,,,,,,,,,,,60fd8dadd1d25db7a23b0425,61037983a2fda81102253079,2021-07-29_21h05.34.341,Simcolourproject_2stim_asymm_v5,2020.2.10,Win32,60,61025ae37ef11b136ea224fe,,,,,,,,,1690,-79,-55.5,1,0,0,response5disk,,2,-1,9.5,1,0,0,rectangle,-1,9.5,1,0,0,-1,9.5,1,0,0,1,42,202,111,1,,,,,,,,
,,,,,,,,,,,,,FF,,,,,,,,0.701,,,,,,,,,,,,,,,,,,,,,,60fd8dadd1d25db7a23b0425,61037983a2fda81102253079,2021-07-29_21h05.34.341,Simcolourproject_2stim_asymm_v5,2020.2.10,Win32,60,61025ae37ef11b136ea224fe,,,,,,,,,412,50.5,82,1,0,0,response1disk,,7,-5.5,7.5,1,0,0,rectangle,-5.5,7.5,1,0,0,-5.5,7.5,1,0,0,1,43,203,91,1,,,,,,,,
,,,,,,,,,,,,,FF,,,,,,,,0.7342,,,,,,,,,,,,,,,,,,,,,,60fd8dadd1d25db7a23b0425,61037983a2fda81102253079,2021-07-29_21h05.34.341,Simcolourproject_2stim_asymm_v5,2020.2.10,Win32,60,61025ae37ef11b136ea224fe,,,,,,,,,570,34.5,95.5,1,0,0,response1disk,,7,1.5,12.5,1,0,0,rectangle,1.5,12.5,1,0,0,1.5,12.5,1,0,0,1,44,204,144,1,,,,,,,,
,,,,,,,,,,,,,FF,,,,,,,,0.6341,,,,,,,,,,,,,,,,,,,,,,60fd8dadd1d25db7a23b0425,61037983a2fda81102253079,2021-07-29_21h05.34.341,Simcolourproject_2stim_asymm_v5,2020.2.10,Win32,60,61025ae37ef11b136ea224fe,,,,,,,,,821,39.5,81,1,0,0,response1disk,,7,4,13,1,0,0,rectangle,4,13,1,0,0,4,13,1,0,0,1,45,205,90,1,,,,,,,,
,,,,,,,,,,,,,FF,,,,,,,,0.6171,,,,,,,,,,,,,,,,,,,,,,60fd8dadd1d25db7a23b0425,61037983a2fda81102253079,2021-07-29_21h05.34.341,Simcolourproject_2stim_asymm_v5,2020.2.10,Win32,60,61025ae37ef11b136ea224fe,,,,,,,,,2466,51,97,1,0,0,response1disk,,7,2,1.5,1,0,0,rectangle,2,1.5,1,0,0,2,1.5,1,0,0,1,46,206,143,1,,,,,,,,
,,,,,,,,,,,,,FF,,,,,,,,0.7503,,,,,,,,,,,,,,,,,,,,,,60fd8dadd1d25db7a23b0425,61037983a2fda81102253079,2021-07-29_21h05.34.341,Simcolourproject_2stim_asymm_v5,2020.2.10,Win32,60,61025ae37ef11b136ea224fe,,,,,,,,,3385,-81.5,28,1,0,0,response7disk,,1,-10,-2,1,0,0,rectangle,-10,-2,1,0,0,-10,-2,1,0,0,1,47,207,53,1,,,,,,,,
,,,,,,,,,,,,,FF,,,,,,,,0.5501,,,,,,,,,,,,,,,,,,,,,,60fd8dadd1d25db7a23b0425,61037983a2fda81102253079,2021-07-29_21h05.34.341,Simcolourproject_2stim_asymm_v5,2020.2.10,Win32,60,61025ae37ef11b136ea224fe,,,,,,,,,479,33.5,106.5,1,0,0,response1disk,,7,-4.5,1,1,0,0,rectangle,-4.5,1,1,0,0,-4.5,1,1,0,0,1,48,208,49,1,,,,,,,,
,,,,,,,,,,,,,FF,,,,,,,,1.3506,,,,,,,,,,,,,,,,,,,,,,60fd8dadd1d25db7a23b0425,61037983a2fda81102253079,2021-07-29_21h05.34.341,Simcolourproject_2stim_asymm_v5,2020.2.10,Win32,60,61025ae37ef11b136ea224fe,,,,,,,,,3902,25,-114,1,0,0,response3disk,,4,10.5,4,1,0,0,rectangle,10.5,4,1,0,0,10.5,4,1,0,0,1,49,209,8,1,,,,,,,,
,,,,,,,,,,,,,FF,,,,,,,,0.9507,,,,,,,,,,,,,,,,,,,,,,60fd8dadd1d25db7a23b0425,61037983a2fda81102253079,2021-07-29_21h05.34.341,Simcolourproject_2stim_asymm_v5,2020.2.10,Win32,60,61025ae37ef11b136ea224fe,,,,,,,,,1144,49,-63.5,1,0,0,response3disk,,4,17.5,9.5,1,0,0,rectangle,17.5,9.5,1,0,0,17.5,9.5,1,0,0,1,50,210,9,1,,,,,,,,
,,,,,,,,,,,,,FF,,,,,,,,0.5837,,,,,,,,,,,,,,,,,,,,,,60fd8dadd1d25db7a23b0425,61037983a2fda81102253079,2021-07-29_21h05.34.341,Simcolourproject_2stim_asymm_v5,2020.2.10,Win32,60,61025ae37ef11b136ea224fe,,,,,,,,,2432,61.5,90,1,0,0,response1disk,,7,14.5,6.5,1,0,0,rectangle,14.5,6.5,1,0,0,14.5,6.5,1,0,0,1,51,211,7,1,,,,,,,,
,,,,,,,,,,,,,FF,,,,,,,,0.7506,,,,,,,,,,,,,,,,,,,,,,60fd8dadd1d25db7a23b0425,61037983a2fda81102253079,2021-07-29_21h05.34.341,Simcolourproject_2stim_asymm_v5,2020.2.10,Win32,60,61025ae37ef11b136ea224fe,,,,,,,,,1519,33,93.5,1,0,0,response1disk,,7,-5.5,10.5,1,0,0,rectangle,-5.5,10.5,1,0,0,-5.5,10.5,1,0,0,1,52,212,128,1,,,,,,,,
,,,,,,,,,,,,,FF,,,,,,,,1.2837,,,,,,,,,,,,,,,,,,,,,,60fd8dadd1d25db7a23b0425,61037983a2fda81102253079,2021-07-29_21h05.34.341,Simcolourproject_2stim_asymm_v5,2020.2.10,Win32,60,61025ae37ef11b136ea224fe,,,,,,,,,4098,-28.5,-97,1,0,0,response5disk,,3,16.5,4.5,1,0,0,rectangle,16.5,4.5,1,0,0,16.5,4.5,1,0,0,1,53,213,121,1,,,,,,,,
,,,,,,,,,,,,,FF,,,,,,,,1.0847,,,,,,,,,,,,,,,,,,,,,,60fd8dadd1d25db7a23b0425,61037983a2fda81102253079,2021-07-29_21h05.34.341,Simcolourproject_2stim_asymm_v5,2020.2.10,Win32,60,61025ae37ef11b136ea224fe,,,,,,,,,3483,94,-47,1,0,0,response3disk,,5,-4,12.5,1,0,0,rectangle,-4,12.5,1,0,0,-4,12.5,1,0,0,1,54,214,32,1,,,,,,,,
,,,,,,,,,,,,,FF,,,,,,,,0.784,,,,,,,,,,,,,,,,,,,,,,60fd8dadd1d25db7a23b0425,61037983a2fda81102253079,2021-07-29_21h05.34.341,Simcolourproject_2stim_asymm_v5,2020.2.10,Win32,60,61025ae37ef11b136ea224fe,,,,,,,,,62,35,96,1,0,0,response1disk,,7,-2,7.5,1,0,0,rectangle,-2,7.5,1,0,0,-2,7.5,1,0,0,1,55,215,10,1,,,,,,,,
,,,,,,,,,,,,,FF,,,,,,,,0.6337,,,,,,,,,,,,,,,,,,,,,,60fd8dadd1d25db7a23b0425,61037983a2fda81102253079,2021-07-29_21h05.34.341,Simcolourproject_2stim_asymm_v5,2020.2.10,Win32,60,61025ae37ef11b136ea224fe,,,,,,,,,212,38,99.5,1,0,0,response1disk,,7,-2,-4.5,1,0,0,rectangle,-2,-4.5,1,0,0,-2,-4.5,1,0,0,1,56,216,41,1,,,,,,,,
,,,,,,,,,,,,,FF,,,,,,,,1.1004,,,,,,,,,,,,,,,,,,,,,,60fd8dadd1d25db7a23b0425,61037983a2fda81102253079,2021-07-29_21h05.34.341,Simcolourproject_2stim_asymm_v5,2020.2.10,Win32,60,61025ae37ef11b136ea224fe,,,,,,,,,4201,-74,-43.5,1,0,0,response5disk,,2,-2,8,1,0,0,rectangle,-2,8,1,0,0,-2,8,1,0,0,1,57,217,71,1,,,,,,,,
,,,,,,,,,,,,,FF,,,,,,,,0.4756,,,,,,,,,,,,,,,,,,,,,,60fd8dadd1d25db7a23b0425,61037983a2fda81102253079,2021-07-29_21h05.34.341,Simcolourproject_2stim_asymm_v5,2020.2.10,Win32,60,61025ae37ef11b136ea224fe,,,,,,,,,2469,29.5,63.5,1,0,0,response1disk,,7,8,-6.5,1,0,0,rectangle,8,-6.5,1,0,0,8,-6.5,1,0,0,1,58,218,46,1,,,,,,,,
,,,,,,,,,,,,,FF,,,,,,,,0.6506,,,,,,,,,,,,,,,,,,,,,,60fd8dadd1d25db7a23b0425,61037983a2fda81102253079,2021-07-29_21h05.34.341,Simcolourproject_2stim_asymm_v5,2020.2.10,Win32,60,61025ae37ef11b136ea224fe,,,,,,,,,1578,47,100,1,0,0,response1disk,,7,7,14,1,0,0,rectangle,7,14,1,0,0,7,14,1,0,0,1,59,219,64,1,,,,,,,,
,,,,,,,,,,,,,FF,,,,,,,,1.1963,,,,,,,,,,,,,,,,,,,,,,60fd8dadd1d25db7a23b0425,61037983a2fda81102253079,2021-07-29_21h05.34.341,Simcolourproject_2stim_asymm_v5,2020.2.10,Win32,60,61025ae37ef11b136ea224fe,,,,,,,,,2897,88.5,-68.5,1,0,0,response3disk,,5,-4,-1.5,1,0,0,rectangle,-4,-1.5,1,0,0,-4,-1.5,1,0,0,1,60,220,34,1,,,,,,,,
,,,,,,,,,,,,,FF,,,,,,,,1.3999,,,,,,,,,,,,,,,,,,,,,,60fd8dadd1d25db7a23b0425,61037983a2fda81102253079,2021-07-29_21h05.34.341,Simcolourproject_2stim_asymm_v5,2020.2.10,Win32,60,61025ae37ef11b136ea224fe,,,,,,,,,688,103,-38.5,1,0,0,response3disk,,5,13,9,1,0,0,rectangle,13,9,1,0,0,13,9,1,0,0,1,61,221,125,1,,,,,,,,
,,,,,,,,,,,,,FF,,,,,,,,1.2004,,,,,,,,,,,,,,,,,,,,,,60fd8dadd1d25db7a23b0425,61037983a2fda81102253079,2021-07-29_21h05.34.341,Simcolourproject_2stim_asymm_v5,2020.2.10,Win32,60,61025ae37ef11b136ea224fe,,,,,,,,,954,83.5,-41,1,0,0,response3disk,,5,-1.5,-1,1,0,0,rectangle,-1.5,-1,1,0,0,-1.5,-1,1,0,0,1,62,222,0,1,,,,,,,,
,,,,,,,,,,,,,FF,,,,,,,,0.5336,,,,,,,,,,,,,,,,,,,,,,60fd8dadd1d25db7a23b0425,61037983a2fda81102253079,2021-07-29_21h05.34.341,Simcolourproject_2stim_asymm_v5,2020.2.10,Win32,60,61025ae37ef11b136ea224fe,,,,,,,,,3312,56.5,91,1,0,0,response1disk,,7,-5.5,-14,1,0,0,rectangle,-5.5,-14,1,0,0,-5.5,-14,1,0,0,1,63,223,27,1,,,,,,,,
,,,,,,,,,,,,,FF,,,,,,,,0.5664,,,,,,,,,,,,,,,,,,,,,,60fd8dadd1d25db7a23b0425,61037983a2fda81102253079,2021-07-29_21h05.34.341,Simcolourproject_2stim_asymm_v5,2020.2.10,Win32,60,61025ae37ef11b136ea224fe,,,,,,,,,1636,61.5,89.5,1,0,0,response1disk,,7,11,0,1,0,0,rectangle,11,0,1,0,0,11,0,1,0,0,1,64,224,4,1,,,,,,,,
,,,,,,,,,,,,,FF,,,,,,,,1.1722,,,,,,,,,,,,,,,,,,,,,,60fd8dadd1d25db7a23b0425,61037983a2fda81102253079,2021-07-29_21h05.34.341,Simcolourproject_2stim_asymm_v5,2020.2.10,Win32,60,61025ae37ef11b136ea224fe,,,,,,,,,2520,51,92,1,0,0,response1disk,,7,4.5,12,1,0,0,rectangle,4.5,12,1,0,0,4.5,12,1,0,0,1,65,225,96,1,,,,,,,,
,,,,,,,,,,,,,FF,,,,,,,,1.4673,,,,,,,,,,,,,,,,,,,,,,60fd8dadd1d25db7a23b0425,61037983a2fda81102253079,2021-07-29_21h05.34.341,Simcolourproject_2stim_asymm_v5,2020.2.10,Win32,60,61025ae37ef11b136ea224fe,,,,,,,,,1376,110.5,51,1,0,0,response1disk,,6,10,9.5,1,0,0,rectangle,10,9.5,1,0,0,10,9.5,1,0,0,1,66,226,77,1,,,,,,,,
,,,,,,,,,,,,,FF,,,,,,,,0.5168,,,,,,,,,,,,,,,,,,,,,,60fd8dadd1d25db7a23b0425,61037983a2fda81102253079,2021-07-29_21h05.34.341,Simcolourproject_2stim_asymm_v5,2020.2.10,Win32,60,61025ae37ef11b136ea224fe,,,,,,,,,313,58,89.5,1,0,0,response1disk,,7,3,10,1,0,0,rectangle,3,10,1,0,0,3,10,1,0,0,1,67,227,156,1,,,,,,,,
,,,,,,,,,,,,,FF,,,,,,,,1.2174,,,,,,,,,,,,,,,,,,,,,,60fd8dadd1d25db7a23b0425,61037983a2fda81102253079,2021-07-29_21h05.34.341,Simcolourproject_2stim_asymm_v5,2020.2.10,Win32,60,61025ae37ef11b136ea224fe,,,,,,,,,4295,-75,-51.5,1,0,0,response5disk,,2,-11,-2.5,1,0,0,rectangle,-11,-2.5,1,0,0,-11,-2.5,1,0,0,1,68,228,70,1,,,,,,,,
,,,,,,,,,,,,,FF,,,,,,,,0.8666,,,,,,,,,,,,,,,,,,,,,,60fd8dadd1d25db7a23b0425,61037983a2fda81102253079,2021-07-29_21h05.34.341,Simcolourproject_2stim_asymm_v5,2020.2.10,Win32,60,61025ae37ef11b136ea224fe,,,,,,,,,3965,-43.5,72.5,1,0,0,response7disk,,0,5,19.5,1,0,0,rectangle,5,19.5,1,0,0,5,19.5,1,0,0,1,69,229,38,1,,,,,,,,
,,,,,,,,,,,,,FF,,,,,,,,3.0173,,,,,,,,,,,,,,,,,,,,,,60fd8dadd1d25db7a23b0425,61037983a2fda81102253079,2021-07-29_21h05.34.341,Simcolourproject_2stim_asymm_v5,2020.2.10,Win32,60,61025ae37ef11b136ea224fe,,,,,,,,,4123,-35.5,-79,1,0,0,response5disk,,3,15,-12.5,1,0,0,rectangle,15,-12.5,1,0,0,15,-12.5,1,0,0,1,70,230,59,1,,,,,,,,
,,,,,,,,,,,,,FF,,,,,,,,0.6514,,,,,,,,,,,,,,,,,,,,,,60fd8dadd1d25db7a23b0425,61037983a2fda81102253079,2021-07-29_21h05.34.341,Simcolourproject_2stim_asymm_v5,2020.2.10,Win32,60,61025ae37ef11b136ea224fe,,,,,,,,,640,36.5,87,1,0,0,response1disk,,7,-20.5,-1,1,0,0,rectangle,-20.5,-1,1,0,0,-20.5,-1,1,0,0,1,71,231,137,1,,,,,,,,
,,,,,,,,,,,,,FF,,,,,,,,0.5108,,,,,,,,,,,,,,,,,,,,,,60fd8dadd1d25db7a23b0425,61037983a2fda81102253079,2021-07-29_21h05.34.341,Simcolourproject_2stim_asymm_v5,2020.2.10,Win32,60,61025ae37ef11b136ea224fe,,,,,,,,,3215,57.5,103,1,0,0,response1disk,,7,-3.5,-2,1,0,0,rectangle,-3.5,-2,1,0,0,-3.5,-2,1,0,0,1,72,232,56,1,,,,,,,,
,,,,,,,,,,,,,FF,,,,,,,,1.1616,,,,,,,,,,,,,,,,,,,,,,60fd8dadd1d25db7a23b0425,61037983a2fda81102253079,2021-07-29_21h05.34.341,Simcolourproject_2stim_asymm_v5,2020.2.10,Win32,60,61025ae37ef11b136ea224fe,,,,,,,,,1150,-56.5,-95.5,1,0,0,response5disk,,3,0,-9,1,0,0,rectangle,0,-9,1,0,0,0,-9,1,0,0,1,73,233,104,1,,,,,,,,
,,,,,,,,,,,,,FF,,,,,,,,0.7003,,,,,,,,,,,,,,,,,,,,,,60fd8dadd1d25db7a23b0425,61037983a2fda81102253079,2021-07-29_21h05.34.341,Simcolourproject_2stim_asymm_v5,2020.2.10,Win32,60,61025ae37ef11b136ea224fe,,,,,,,,,510,48,105.5,1,0,0,response1disk,,7,5,-7.5,1,0,0,rectangle,5,-7.5,1,0,0,5,-7.5,1,0,0,1,74,234,47,1,,,,,,,,
,,,,,,,,,,,,,FF,,,,,,,,0.917,,,,,,,,,,,,,,,,,,,,,,60fd8dadd1d25db7a23b0425,61037983a2fda81102253079,2021-07-29_21h05.34.341,Simcolourproject_2stim_asymm_v5,2020.2.10,Win32,60,61025ae37ef11b136ea224fe,,,,,,,,,945,43.5,113,1,0,0,response1disk,,7,13,4.5,1,0,0,rectangle,13,4.5,1,0,0,13,4.5,1,0,0,1,75,235,43,1,,,,,,,,
,,,,,,,,,,,,,FF,,,,,,,,0.501,,,,,,,,,,,,,,,,,,,,,,60fd8dadd1d25db7a23b0425,61037983a2fda81102253079,2021-07-29_21h05.34.341,Simcolourproject_2stim_asymm_v5,2020.2.10,Win32,60,61025ae37ef11b136ea224fe,,,,,,,,,3020,63.5,79.5,1,0,0,response1disk,,7,1,-13.5,1,0,0,rectangle,1,-13.5,1,0,0,1,-13.5,1,0,0,1,76,236,39,1,,,,,,,,
,,,,,,,,,,,,,FF,,,,,,,,0.5669,,,,,,,,,,,,,,,,,,,,,,60fd8dadd1d25db7a23b0425,61037983a2fda81102253079,2021-07-29_21h05.34.341,Simcolourproject_2stim_asymm_v5,2020.2.10,Win32,60,61025ae37ef11b136ea224fe,,,,,,,,,3366,24,83,1,0,0,response1disk,,7,-13,-15,1,0,0,rectangle,-13,-15,1,0,0,-13,-15,1,0,0,1,77,237,50,1,,,,,,,,
,,,,,,,,,,,,,FF,,,,,,,,0.6336,,,,,,,,,,,,,,,,,,,,,,60fd8dadd1d25db7a23b0425,61037983a2fda81102253079,2021-07-29_21h05.34.341,Simcolourproject_2stim_asymm_v5,2020.2.10,Win32,60,61025ae37ef11b136ea224fe,,,,,,,,,1945,46,103,1,0,0,response1disk,,7,0,9.5,1,0,0,rectangle,0,9.5,1,0,0,0,9.5,1,0,0,1,78,238,22,1,,,,,,,,
,,,,,,,,,,,,,FF,,,,,,,,0.8836,,,,,,,,,,,,,,,,,,,,,,60fd8dadd1d25db7a23b0425,61037983a2fda81102253079,2021-07-29_21h05.34.341,Simcolourproject_2stim_asymm_v5,2020.2.10,Win32,60,61025ae37ef11b136ea224fe,,,,,,,,,3960,43.5,105,1,0,0,response1disk,,7,19.5,7.5,1,0,0,rectangle,19.5,7.5,1,0,0,19.5,7.5,1,0,0,1,79,239,136,1,,,,,,,,
,,,,,,,,,,,,,FF,,,,,,,,0.5578,,,,,,,,,,,,,,,,,,,,,,60fd8dadd1d25db7a23b0425,61037983a2fda81102253079,2021-07-29_21h05.34.341,Simcolourproject_2stim_asymm_v5,2020.2.10,Win32,60,61025ae37ef11b136ea224fe,,,,,,,,,1355,50,90.5,1,0,0,response1disk,,7,-9.5,-8,1,0,0,rectangle,-100.5,26,1,0,0,-36.5,-0.5,1,0,0,1,80,240,51,1,,response7disk_3,TRUE,1,1,"[35,13,150,148,298,174,256,85,321,198,13,322,253,176,75,61,40,241,91,70]",1.0658,rectangle
,,,,,,,,,,,,,FF,,,,,,,,0.6505,,,,,,,,,,,,,,,,,,,,,,60fd8dadd1d25db7a23b0425,61037983a2fda81102253079,2021-07-29_21h05.34.341,Simcolourproject_2stim_asymm_v5,2020.2.10,Win32,60,61025ae37ef11b136ea224fe,,,,,,,,,3501,50,86.5,1,0,0,response1disk,,7,14,-9,1,0,0,rectangle,14,-9,1,0,0,14,-9,1,0,0,1,81,241,115,1,,,,,,,,
,,,,,,,,,,,,,FF,,,,,,,,0.7006,,,,,,,,,,,,,,,,,,,,,,60fd8dadd1d25db7a23b0425,61037983a2fda81102253079,2021-07-29_21h05.34.341,Simcolourproject_2stim_asymm_v5,2020.2.10,Win32,60,61025ae37ef11b136ea224fe,,,,,,,,,1725,44,61,1,0,0,response1disk,,7,9.5,3,1,0,0,rectangle,9.5,3,1,0,0,9.5,3,1,0,0,1,82,242,33,1,,,,,,,,
,,,,,,,,,,,,,FF,,,,,,,,1.4669,,,,,,,,,,,,,,,,,,,,,,60fd8dadd1d25db7a23b0425,61037983a2fda81102253079,2021-07-29_21h05.34.341,Simcolourproject_2stim_asymm_v5,2020.2.10,Win32,60,61025ae37ef11b136ea224fe,,,,,,,,,4,-37,-108,1,0,0,response5disk,,3,4.5,-15.5,1,0,0,rectangle,4.5,-15.5,1,0,0,4.5,-15.5,1,0,0,1,83,243,100,1,,,,,,,,
,,,,,,,,,,,,,FF,,,,,,,,0.6008,,,,,,,,,,,,,,,,,,,,,,60fd8dadd1d25db7a23b0425,61037983a2fda81102253079,2021-07-29_21h05.34.341,Simcolourproject_2stim_asymm_v5,2020.2.10,Win32,60,61025ae37ef11b136ea224fe,,,,,,,,,3534,30,90.5,1,0,0,response1disk,,7,-5.5,6,1,0,0,rectangle,-5.5,6,1,0,0,-5.5,6,1,0,0,1,84,244,116,1,,,,,,,,
,,,,,,,,,,,,,FF,,,,,,,,1.0844,,,,,,,,,,,,,,,,,,,,,,60fd8dadd1d25db7a23b0425,61037983a2fda81102253079,2021-07-29_21h05.34.341,Simcolourproject_2stim_asymm_v5,2020.2.10,Win32,60,61025ae37ef11b136ea224fe,,,,,,,,,3472,-73,-48,1,0,0,response5disk,,2,1.5,-5.5,1,0,0,rectangle,1.5,-5.5,1,0,0,1.5,-5.5,1,0,0,1,85,245,159,1,,,,,,,,
,,,,,,,,,,,,,FF,,,,,,,,0.6175,,,,,,,,,,,,,,,,,,,,,,60fd8dadd1d25db7a23b0425,61037983a2fda81102253079,2021-07-29_21h05.34.341,Simcolourproject_2stim_asymm_v5,2020.2.10,Win32,60,61025ae37ef11b136ea224fe,,,,,,,,,69,57,117,1,0,0,response1disk,,7,-2,12,1,0,0,rectangle,-2,12,1,0,0,-2,12,1,0,0,1,86,246,101,1,,,,,,,,
,,,,,,,,,,,,,FF,,,,,,,,0.8513,,,,,,,,,,,,,,,,,,,,,,60fd8dadd1d25db7a23b0425,61037983a2fda81102253079,2021-07-29_21h05.34.341,Simcolourproject_2stim_asymm_v5,2020.2.10,Win32,60,61025ae37ef11b136ea224fe,,,,,,,,,317,19,90.5,1,0,0,response1disk,,7,0.5,4,1,0,0,rectangle,0.5,4,1,0,0,0.5,4,1,0,0,1,87,247,30,1,,,,,,,,
,,,,,,,,,,,,,FF,,,,,,,,0.8515,,,,,,,,,,,,,,,,,,,,,,60fd8dadd1d25db7a23b0425,61037983a2fda81102253079,2021-07-29_21h05.34.341,Simcolourproject_2stim_asymm_v5,2020.2.10,Win32,60,61025ae37ef11b136ea224fe,,,,,,,,,852,55.5,78,1,0,0,response1disk,,7,21,-2,1,0,0,rectangle,21,-2,1,0,0,21,-2,1,0,0,1,88,248,72,1,,,,,,,,
,,,,,,,,,,,,,FF,,,,,,,,1.2674,,,,,,,,,,,,,,,,,,,,,,60fd8dadd1d25db7a23b0425,61037983a2fda81102253079,2021-07-29_21h05.34.341,Simcolourproject_2stim_asymm_v5,2020.2.10,Win32,60,61025ae37ef11b136ea224fe,,,,,,,,,3529,37.5,88,1,0,0,response1disk,,7,10.5,15,1,0,0,rectangle,10.5,15,1,0,0,10.5,15,1,0,0,1,89,249,55,1,,,,,,,,
,,,,,,,,,,,,,FF,,,,,,,,0.8342,,,,,,,,,,,,,,,,,,,,,,60fd8dadd1d25db7a23b0425,61037983a2fda81102253079,2021-07-29_21h05.34.341,Simcolourproject_2stim_asymm_v5,2020.2.10,Win32,60,61025ae37ef11b136ea224fe,,,,,,,,,1642,40.5,94.5,1,0,0,response1disk,,7,4,2,1,0,0,rectangle,4,2,1,0,0,4,2,1,0,0,1,90,250,52,1,,,,,,,,
,,,,,,,,,,,,,FF,,,,,,,,0.7171,,,,,,,,,,,,,,,,,,,,,,60fd8dadd1d25db7a23b0425,61037983a2fda81102253079,2021-07-29_21h05.34.341,Simcolourproject_2stim_asymm_v5,2020.2.10,Win32,60,61025ae37ef11b136ea224fe,,,,,,,,,4079,69.5,83.5,1,0,0,response1disk,,7,16.5,-1,1,0,0,rectangle,16.5,-1,1,0,0,16.5,-1,1,0,0,1,91,251,87,1,,,,,,,,
,,,,,,,,,,,,,FF,,,,,,,,0.7506,,,,,,,,,,,,,,,,,,,,,,60fd8dadd1d25db7a23b0425,61037983a2fda81102253079,2021-07-29_21h05.34.341,Simcolourproject_2stim_asymm_v5,2020.2.10,Win32,60,61025ae37ef11b136ea224fe,,,,,,,,,1001,57,85.5,1,0,0,response1disk,,7,6,2.5,1,0,0,rectangle,99,38.5,1,0,0,9,-4.5,1,0,0,1,92,252,142,1,,response1disk_3,TRUE,6,6,"[35,13,150,148,298,174,256,85,321,198,13,322,253,176,75,61,40,241,91,70]",1.6,rectangle
,,,,,,,,,,,,,FF,,,,,,,,1.0338,,,,,,,,,,,,,,,,,,,,,,60fd8dadd1d25db7a23b0425,61037983a2fda81102253079,2021-07-29_21h05.34.341,Simcolourproject_2stim_asymm_v5,2020.2.10,Win32,60,61025ae37ef11b136ea224fe,,,,,,,,,2099,-87.5,52,1,0,0,response7disk,,1,6.5,15.5,1,0,0,rectangle,6.5,15.5,1,0,0,6.5,15.5,1,0,0,1,93,253,15,1,,,,,,,,
,,,,,,,,,,,,,FF,,,,,,,,1.1503,,,,,,,,,,,,,,,,,,,,,,60fd8dadd1d25db7a23b0425,61037983a2fda81102253079,2021-07-29_21h05.34.341,Simcolourproject_2stim_asymm_v5,2020.2.10,Win32,60,61025ae37ef11b136ea224fe,,,,,,,,,4001,-84,-51.5,1,0,0,response5disk,,2,-6,-7.5,1,0,0,rectangle,-6,-7.5,1,0,0,-6,-7.5,1,0,0,1,94,254,75,1,,,,,,,,
,,,,,,,,,,,,,FF,,,,,,,,1.0005,,,,,,,,,,,,,,,,,,,,,,60fd8dadd1d25db7a23b0425,61037983a2fda81102253079,2021-07-29_21h05.34.341,Simcolourproject_2stim_asymm_v5,2020.2.10,Win32,60,61025ae37ef11b136ea224fe,,,,,,,,,2677,99,42.5,1,0,0,response1disk,,6,18,-4,1,0,0,rectangle,-93,39,1,0,0,-16,-1.5,1,0,0,1,95,255,89,1,,response7disk_3,TRUE,1,1,"[35,13,150,148,298,174,256,85,321,198,13,322,253,176,75,61,40,241,91,70]",1.2165,rectangle
,,,,,,,,,,,,,FF,,,,,,,,0.8334,,,,,,,,,,,,,,,,,,,,,,60fd8dadd1d25db7a23b0425,61037983a2fda81102253079,2021-07-29_21h05.34.341,Simcolourproject_2stim_asymm_v5,2020.2.10,Win32,60,61025ae37ef11b136ea224fe,,,,,,,,,2204,42,106.5,1,0,0,response1disk,,7,-2.5,-4.5,1,0,0,rectangle,-2.5,-4.5,1,0,0,-2.5,-4.5,1,0,0,1,96,256,152,1,,,,,,,,
,,,,,,,,,,,,,FF,,,,,,,,1.3239,,,,,,,,,,,,,,,,,,,,,,60fd8dadd1d25db7a23b0425,61037983a2fda81102253079,2021-07-29_21h05.34.341,Simcolourproject_2stim_asymm_v5,2020.2.10,Win32,60,61025ae37ef11b136ea224fe,,,,,,,,,3258,107,-44.5,1,0,0,response3disk,,5,1,-2,1,0,0,rectangle,1,-2,1,0,0,1,-2,1,0,0,1,97,257,135,1,,,,,,,,
,,,,,,,,,,,,,FF,,,,,,,,1.7341,,,,,,,,,,,,,,,,,,,,,,60fd8dadd1d25db7a23b0425,61037983a2fda81102253079,2021-07-29_21h05.34.341,Simcolourproject_2stim_asymm_v5,2020.2.10,Win32,60,61025ae37ef11b136ea224fe,,,,,,,,,551,35.5,-101.5,1,0,0,response3disk,,4,-1,-3,1,0,0,rectangle,-1,-3,1,0,0,-1,-3,1,0,0,1,98,258,13,1,,,,,,,,
,,,,,,,,,,,,,FF,,,,,,,,0.7501,,,,,,,,,,,,,,,,,,,,,,60fd8dadd1d25db7a23b0425,61037983a2fda81102253079,2021-07-29_21h05.34.341,Simcolourproject_2stim_asymm_v5,2020.2.10,Win32,60,61025ae37ef11b136ea224fe,,,,,,,,,1858,58.5,105.5,1,0,0,response1disk,,7,7.5,12.5,1,0,0,rectangle,7.5,12.5,1,0,0,7.5,12.5,1,0,0,1,99,259,62,1,,,,,,,,
,,,,,,,,,,,,,FF,,,,,,,,0.7338,,,,,,,,,,,,,,,,,,,,,,60fd8dadd1d25db7a23b0425,61037983a2fda81102253079,2021-07-29_21h05.34.341,Simcolourproject_2stim_asymm_v5,2020.2.10,Win32,60,61025ae37ef11b136ea224fe,,,,,,,,,1517,29.5,94,1,0,0,response1disk,,7,-8.5,7,1,0,0,rectangle,-8.5,7,1,0,0,-8.5,7,1,0,0,1,100,260,139,1,,,,,,,,
,,,,,,,,,,,,,FF,,,,,,,,1.2506,,,,,,,,,,,,,,,,,,,,,,60fd8dadd1d25db7a23b0425,61037983a2fda81102253079,2021-07-29_21h05.34.341,Simcolourproject_2stim_asymm_v5,2020.2.10,Win32,60,61025ae37ef11b136ea224fe,,,,,,,,,618,-85.5,-41.5,1,0,0,response5disk,,2,14,12.5,1,0,0,rectangle,14,12.5,1,0,0,14,12.5,1,0,0,1,101,261,92,1,,,,,,,,
,,,,,,,,,,,,,FF,,,,,,,,1.1007,,,,,,,,,,,,,,,,,,,,,,60fd8dadd1d25db7a23b0425,61037983a2fda81102253079,2021-07-29_21h05.34.341,Simcolourproject_2stim_asymm_v5,2020.2.10,Win32,60,61025ae37ef11b136ea224fe,,,,,,,,,1158,97.5,39.5,1,0,0,response1disk,,6,-5,1,1,0,0,rectangle,-5,1,1,0,0,-5,1,1,0,0,1,102,262,23,1,,,,,,,,
,,,,,,,,,,,,,FF,,,,,,,,0.9336,,,,,,,,,,,,,,,,,,,,,,60fd8dadd1d25db7a23b0425,61037983a2fda81102253079,2021-07-29_21h05.34.341,Simcolourproject_2stim_asymm_v5,2020.2.10,Win32,60,61025ae37ef11b136ea224fe,,,,,,,,,2990,36,66,1,0,0,response1disk,,7,5.5,7.5,1,0,0,rectangle,5.5,7.5,1,0,0,5.5,7.5,1,0,0,1,103,263,95,1,,,,,,,,
,,,,,,,,,,,,,FF,,,,,,,,0.5165,,,,,,,,,,,,,,,,,,,,,,60fd8dadd1d25db7a23b0425,61037983a2fda81102253079,2021-07-29_21h05.34.341,Simcolourproject_2stim_asymm_v5,2020.2.10,Win32,60,61025ae37ef11b136ea224fe,,,,,,,,,1666,39.5,94,1,0,0,response1disk,,7,13,17,1,0,0,rectangle,13,17,1,0,0,13,17,1,0,0,1,104,264,140,1,,,,,,,,
,,,,,,,,,,,,,FF,,,,,,,,0.9005,,,,,,,,,,,,,,,,,,,,,,60fd8dadd1d25db7a23b0425,61037983a2fda81102253079,2021-07-29_21h05.34.341,Simcolourproject_2stim_asymm_v5,2020.2.10,Win32,60,61025ae37ef11b136ea224fe,,,,,,,,,892,73,46.5,1,0,0,response1disk,,6,8,3.5,1,0,0,rectangle,8,3.5,1,0,0,8,3.5,1,0,0,1,105,265,106,1,,,,,,,,
,,,,,,,,,,,,,FF,,,,,,,,0.5502,,,,,,,,,,,,,,,,,,,,,,60fd8dadd1d25db7a23b0425,61037983a2fda81102253079,2021-07-29_21h05.34.341,Simcolourproject_2stim_asymm_v5,2020.2.10,Win32,60,61025ae37ef11b136ea224fe,,,,,,,,,129,44,93.5,1,0,0,response1disk,,7,-5.5,5,1,0,0,rectangle,-5.5,5,1,0,0,-5.5,5,1,0,0,1,106,266,158,1,,,,,,,,
,,,,,,,,,,,,,FF,,,,,,,,0.5833,,,,,,,,,,,,,,,,,,,,,,60fd8dadd1d25db7a23b0425,61037983a2fda81102253079,2021-07-29_21h05.34.341,Simcolourproject_2stim_asymm_v5,2020.2.10,Win32,60,61025ae37ef11b136ea224fe,,,,,,,,,301,46.5,75,1,0,0,response1disk,,7,-2.5,4,1,0,0,rectangle,-2.5,4,1,0,0,-2.5,4,1,0,0,1,107,267,58,1,,,,,,,,
,,,,,,,,,,,,,FF,,,,,,,,1.0835,,,,,,,,,,,,,,,,,,,,,,60fd8dadd1d25db7a23b0425,61037983a2fda81102253079,2021-07-29_21h05.34.341,Simcolourproject_2stim_asymm_v5,2020.2.10,Win32,60,61025ae37ef11b136ea224fe,,,,,,,,,1761,-33.5,-53.5,1,0,0,response5disk,,3,2.5,15,1,0,0,rectangle,2.5,15,1,0,0,2.5,15,1,0,0,1,108,268,25,1,,,,,,,,
,,,,,,,,,,,,,FF,,,,,,,,0.8163,,,,,,,,,,,,,,,,,,,,,,60fd8dadd1d25db7a23b0425,61037983a2fda81102253079,2021-07-29_21h05.34.341,Simcolourproject_2stim_asymm_v5,2020.2.10,Win32,60,61025ae37ef11b136ea224fe,,,,,,,,,2803,42.5,81.5,1,0,0,response1disk,,7,6,2.5,1,0,0,rectangle,6,2.5,1,0,0,6,2.5,1,0,0,1,109,269,48,1,,,,,,,,
,,,,,,,,,,,,,FF,,,,,,,,1.0168,,,,,,,,,,,,,,,,,,,,,,60fd8dadd1d25db7a23b0425,61037983a2fda81102253079,2021-07-29_21h05.34.341,Simcolourproject_2stim_asymm_v5,2020.2.10,Win32,60,61025ae37ef11b136ea224fe,,,,,,,,,4085,-88.5,-53,1,0,0,response5disk,,2,-4.5,7,1,0,0,rectangle,-4.5,7,1,0,0,-4.5,7,1,0,0,1,110,270,110,1,,,,,,,,
,,,,,,,,,,,,,FF,,,,,,,,0.9844,,,,,,,,,,,,,,,,,,,,,,60fd8dadd1d25db7a23b0425,61037983a2fda81102253079,2021-07-29_21h05.34.341,Simcolourproject_2stim_asymm_v5,2020.2.10,Win32,60,61025ae37ef11b136ea224fe,,,,,,,,,4032,31.5,-65,1,0,0,response3disk,,4,-2.5,-0.5,1,0,0,rectangle,-2.5,-0.5,1,0,0,-2.5,-0.5,1,0,0,1,111,271,120,1,,,,,,,,
,,,,,,,,,,,,,FF,,,,,,,,1.7839,,,,,,,,,,,,,,,,,,,,,,60fd8dadd1d25db7a23b0425,61037983a2fda81102253079,2021-07-29_21h05.34.341,Simcolourproject_2stim_asymm_v5,2020.2.10,Win32,60,61025ae37ef11b136ea224fe,,,,,,,,,2484,84,-58,1,0,0,response3disk,,5,-5,8.5,1,0,0,rectangle,-5,8.5,1,0,0,-5,8.5,1,0,0,1,112,272,94,1,,,,,,,,
,,,,,,,,,,,,,FF,,,,,,,,1.6671,,,,,,,,,,,,,,,,,,,,,,60fd8dadd1d25db7a23b0425,61037983a2fda81102253079,2021-07-29_21h05.34.341,Simcolourproject_2stim_asymm_v5,2020.2.10,Win32,60,61025ae37ef11b136ea224fe,,,,,,,,,1736,29.5,-59.5,1,0,0,response3disk,,4,-12,-6.5,1,0,0,rectangle,-12,-6.5,1,0,0,-12,-6.5,1,0,0,1,113,273,73,1,,,,,,,,
,,,,,,,,,,,,,FF,,,,,,,,0.8005,,,,,,,,,,,,,,,,,,,,,,60fd8dadd1d25db7a23b0425,61037983a2fda81102253079,2021-07-29_21h05.34.341,Simcolourproject_2stim_asymm_v5,2020.2.10,Win32,60,61025ae37ef11b136ea224fe,,,,,,,,,402,87,42,1,0,0,response1disk,,6,7,8,1,0,0,rectangle,7,8,1,0,0,7,8,1,0,0,1,114,274,20,1,,,,,,,,
,,,,,,,,,,,,,FF,,,,,,,,0.6504,,,,,,,,,,,,,,,,,,,,,,60fd8dadd1d25db7a23b0425,61037983a2fda81102253079,2021-07-29_21h05.34.341,Simcolourproject_2stim_asymm_v5,2020.2.10,Win32,60,61025ae37ef11b136ea224fe,,,,,,,,,2569,45,74,1,0,0,response1disk,,7,5.5,1.5,1,0,0,rectangle,5.5,1.5,1,0,0,5.5,1.5,1,0,0,1,115,275,97,1,,,,,,,,
,,,,,,,,,,,,,FF,,,,,,,,0.6771,,,,,,,,,,,,,,,,,,,,,,60fd8dadd1d25db7a23b0425,61037983a2fda81102253079,2021-07-29_21h05.34.341,Simcolourproject_2stim_asymm_v5,2020.2.10,Win32,60,61025ae37ef11b136ea224fe,,,,,,,,,4134,27,73.5,1,0,0,response1disk,,7,-3.5,11.5,1,0,0,rectangle,-3.5,11.5,1,0,0,-3.5,11.5,1,0,0,1,116,276,12,1,,,,,,,,
,,,,,,,,,,,,,FF,,,,,,,,0.6923,,,,,,,,,,,,,,,,,,,,,,60fd8dadd1d25db7a23b0425,61037983a2fda81102253079,2021-07-29_21h05.34.341,Simcolourproject_2stim_asymm_v5,2020.2.10,Win32,60,61025ae37ef11b136ea224fe,,,,,,,,,1041,29,113.5,1,0,0,response1disk,,7,-1.5,9,1,0,0,rectangle,-1.5,9,1,0,0,-1.5,9,1,0,0,1,117,277,54,1,,,,,,,,
,,,,,,,,,,,,,FF,,,,,,,,1.0998,,,,,,,,,,,,,,,,,,,,,,60fd8dadd1d25db7a23b0425,61037983a2fda81102253079,2021-07-29_21h05.34.341,Simcolourproject_2stim_asymm_v5,2020.2.10,Win32,60,61025ae37ef11b136ea224fe,,,,,,,,,869,-47.5,-70.5,1,0,0,response5disk,,3,2,-2.5,1,0,0,rectangle,2,-2.5,1,0,0,2,-2.5,1,0,0,1,118,278,113,1,,,,,,,,
,,,,,,,,,,,,,FF,,,,,,,,0.4996,,,,,,,,,,,,,,,,,,,,,,60fd8dadd1d25db7a23b0425,61037983a2fda81102253079,2021-07-29_21h05.34.341,Simcolourproject_2stim_asymm_v5,2020.2.10,Win32,60,61025ae37ef11b136ea224fe,,,,,,,,,2600,33,86.5,1,0,0,response1disk,,7,8,11.5,1,0,0,rectangle,8,11.5,1,0,0,8,11.5,1,0,0,1,119,279,114,1,,,,,,,,
,,,,,,,,,,,,,FF,,,,,,,,0.5833,,,,,,,,,,,,,,,,,,,,,,60fd8dadd1d25db7a23b0425,61037983a2fda81102253079,2021-07-29_21h05.34.341,Simcolourproject_2stim_asymm_v5,2020.2.10,Win32,60,61025ae37ef11b136ea224fe,,,,,,,,,4013,43,73.5,1,0,0,response1disk,,7,11,-1,1,0,0,rectangle,11,-1,1,0,0,11,-1,1,0,0,1,120,280,93,1,,,,,,,,
,,,,,,,,,,,,,FF,,,,,,,,0.4834,,,,,,,,,,,,,,,,,,,,,,60fd8dadd1d25db7a23b0425,61037983a2fda81102253079,2021-07-29_21h05.34.341,Simcolourproject_2stim_asymm_v5,2020.2.10,Win32,60,61025ae37ef11b136ea224fe,,,,,,,,,1703,38.5,74,1,0,0,response1disk,,7,10.5,0.5,1,0,0,rectangle,10.5,0.5,1,0,0,10.5,0.5,1,0,0,1,121,281,103,1,,,,,,,,
,,,,,,,,,,,,,FF,,,,,,,,1.2839,,,,,,,,,,,,,,,,,,,,,,60fd8dadd1d25db7a23b0425,61037983a2fda81102253079,2021-07-29_21h05.34.341,Simcolourproject_2stim_asymm_v5,2020.2.10,Win32,60,61025ae37ef11b136ea224fe,,,,,,,,,3738,65,27.5,1,0,0,response1disk,,6,17,-0.5,1,0,0,rectangle,17,-0.5,1,0,0,17,-0.5,1,0,0,1,122,282,74,1,,,,,,,,
,,,,,,,,,,,,,FF,,,,,,,,0.6011,,,,,,,,,,,,,,,,,,,,,,60fd8dadd1d25db7a23b0425,61037983a2fda81102253079,2021-07-29_21h05.34.341,Simcolourproject_2stim_asymm_v5,2020.2.10,Win32,60,61025ae37ef11b136ea224fe,,,,,,,,,2069,47,68.5,1,0,0,response1disk,,7,-9.5,13.5,1,0,0,rectangle,-9.5,13.5,1,0,0,-9.5,13.5,1,0,0,1,123,283,16,1,,,,,,,,
,,,,,,,,,,,,,FF,,,,,,,,0.9999,,,,,,,,,,,,,,,,,,,,,,60fd8dadd1d25db7a23b0425,61037983a2fda81102253079,2021-07-29_21h05.34.341,Simcolourproject_2stim_asymm_v5,2020.2.10,Win32,60,61025ae37ef11b136ea224fe,,,,,,,,,3994,-92.5,-35.5,1,0,0,response5disk,,2,-4.5,6.5,1,0,0,rectangle,-4.5,6.5,1,0,0,-4.5,6.5,1,0,0,1,124,284,109,1,,,,,,,,
,,,,,,,,,,,,,FF,,,,,,,,1.3675,,,,,,,,,,,,,,,,,,,,,,60fd8dadd1d25db7a23b0425,61037983a2fda81102253079,2021-07-29_21h05.34.341,Simcolourproject_2stim_asymm_v5,2020.2.10,Win32,60,61025ae37ef11b136ea224fe,,,,,,,,,822,39.5,-99,1,0,0,response3disk,,4,-3.5,18,1,0,0,rectangle,-3.5,18,1,0,0,-3.5,18,1,0,0,1,125,285,154,1,,,,,,,,
,,,,,,,,,,,,,FF,,,,,,,,0.9668,,,,,,,,,,,,,,,,,,,,,,60fd8dadd1d25db7a23b0425,61037983a2fda81102253079,2021-07-29_21h05.34.341,Simcolourproject_2stim_asymm_v5,2020.2.10,Win32,60,61025ae37ef11b136ea224fe,,,,,,,,,794,33,104.5,1,0,0,response1disk,,7,-4.5,6.5,1,0,0,rectangle,-4.5,6.5,1,0,0,-4.5,6.5,1,0,0,1,126,286,81,1,,,,,,,,
,,,,,,,,,,,,,FF,,,,,,,,0.5504,,,,,,,,,,,,,,,,,,,,,,60fd8dadd1d25db7a23b0425,61037983a2fda81102253079,2021-07-29_21h05.34.341,Simcolourproject_2stim_asymm_v5,2020.2.10,Win32,60,61025ae37ef11b136ea224fe,,,,,,,,,2992,43,66.5,1,0,0,response1disk,,7,4,7,1,0,0,rectangle,4,7,1,0,0,4,7,1,0,0,1,127,287,45,1,,,,,,,,
,,,,,,,,,,,,,FF,,,,,,,,1.3839,,,,,,,,,,,,,,,,,,,,,,60fd8dadd1d25db7a23b0425,61037983a2fda81102253079,2021-07-29_21h05.34.341,Simcolourproject_2stim_asymm_v5,2020.2.10,Win32,60,61025ae37ef11b136ea224fe,,,,,,,,,522,-74.5,-54.5,1,0,0,response5disk,,2,16.5,4,1,0,0,rectangle,16.5,4,1,0,0,16.5,4,1,0,0,1,128,288,78,1,,,,,,,,
,,,,,,,,,,,,,FF,,,,,,,,0.7832,,,,,,,,,,,,,,,,,,,,,,60fd8dadd1d25db7a23b0425,61037983a2fda81102253079,2021-07-29_21h05.34.341,Simcolourproject_2stim_asymm_v5,2020.2.10,Win32,60,61025ae37ef11b136ea224fe,,,,,,,,,171,-83,29.5,1,0,0,response7disk,,1,-12.5,16,1,0,0,rectangle,-12.5,16,1,0,0,-12.5,16,1,0,0,1,129,289,3,1,,,,,,,,
,,,,,,,,,,,,,FF,,,,,,,,0.9596,,,,,,,,,,,,,,,,,,,,,,60fd8dadd1d25db7a23b0425,61037983a2fda81102253079,2021-07-29_21h05.34.341,Simcolourproject_2stim_asymm_v5,2020.2.10,Win32,60,61025ae37ef11b136ea224fe,,,,,,,,,4178,38,86.5,1,0,0,response1disk,,7,-21.5,-12,1,0,0,rectangle,-21.5,-12,1,0,0,-21.5,-12,1,0,0,1,130,290,40,1,,,,,,,,
,,,,,,,,,,,,,FF,,,,,,,,1.2002,,,,,,,,,,,,,,,,,,,,,,60fd8dadd1d25db7a23b0425,61037983a2fda81102253079,2021-07-29_21h05.34.341,Simcolourproject_2stim_asymm_v5,2020.2.10,Win32,60,61025ae37ef11b136ea224fe,,,,,,,,,2287,119,43,1,0,0,response1disk,,6,13.5,10.5,1,0,0,rectangle,13.5,10.5,1,0,0,13.5,10.5,1,0,0,1,131,291,5,1,,,,,,,,
,,,,,,,,,,,,,FF,,,,,,,,0.8344,,,,,,,,,,,,,,,,,,,,,,60fd8dadd1d25db7a23b0425,61037983a2fda81102253079,2021-07-29_21h05.34.341,Simcolourproject_2stim_asymm_v5,2020.2.10,Win32,60,61025ae37ef11b136ea224fe,,,,,,,,,3202,-71.5,29,1,0,0,response7disk,,1,3.5,-8,1,0,0,rectangle,3.5,-8,1,0,0,3.5,-8,1,0,0,1,132,292,14,1,,,,,,,,
,,,,,,,,,,,,,FF,,,,,,,,0.876,,,,,,,,,,,,,,,,,,,,,,60fd8dadd1d25db7a23b0425,61037983a2fda81102253079,2021-07-29_21h05.34.341,Simcolourproject_2stim_asymm_v5,2020.2.10,Win32,60,61025ae37ef11b136ea224fe,,,,,,,,,1905,-29,-80,1,0,0,response5disk,,3,26.5,3,1,0,0,rectangle,26.5,3,1,0,0,26.5,3,1,0,0,1,133,293,1,1,,,,,,,,
,,,,,,,,,,,,,FF,,,,,,,,0.8839,,,,,,,,,,,,,,,,,,,,,,60fd8dadd1d25db7a23b0425,61037983a2fda81102253079,2021-07-29_21h05.34.341,Simcolourproject_2stim_asymm_v5,2020.2.10,Win32,60,61025ae37ef11b136ea224fe,,,,,,,,,3997,-40,-72,1,0,0,response5disk,,3,3.5,13,1,0,0,rectangle,3.5,13,1,0,0,3.5,13,1,0,0,1,134,294,108,1,,,,,,,,
,,,,,,,,,,,,,FF,,,,,,,,1.0428,,,,,,,,,,,,,,,,,,,,,,60fd8dadd1d25db7a23b0425,61037983a2fda81102253079,2021-07-29_21h05.34.341,Simcolourproject_2stim_asymm_v5,2020.2.10,Win32,60,61025ae37ef11b136ea224fe,,,,,,,,,1037,76,22.5,1,0,0,response1disk,,6,5,-3,1,0,0,rectangle,5,-3,1,0,0,5,-3,1,0,0,1,135,295,21,1,,,,,,,,
