key_resp.keys,key_resp.rt,key_resp_14.keys,key_resp_14.rt,key_resp_15.keys,key_resp_15.rt,key_resp_17.keys,key_resp_17.rt,key_resp_9.keys,key_resp_9.rt,key_resp_10.keys,key_resp_10.rt,practice_comparison,Ecc,mouse_5.x,mouse_5.y,mouse_5.leftButton,mouse_5.midButton,mouse_5.rightButton,mouse_5.clicked_name,pracsimilarity,response_time,mouse_10.x,mouse_10.y,mouse_10.leftButton,mouse_10.midButton,mouse_10.rightButton,mouse_10.clicked_name,mouse_7.x,mouse_7.y,mouse_7.leftButton,mouse_7.midButton,mouse_7.rightButton,mouse_6.x,mouse_6.y,mouse_6.leftButton,mouse_6.midButton,mouse_6.rightButton,duringprac.thisRepN,duringprac.thisTrialN,duringprac.thisN,duringprac.thisIndex,duringprac.ran,participant,session,date,expName,psychopyVersion,OS,frameRate,study_id,mouse_7.clicked_name,catchpracsimilarity,catch_response_time,catchnumberprac,catchtrialorderprac,mouse_6.clicked_name,key_resp_22.keys,key_resp_22.rt,realcomparison,mouse.x,mouse.y,mouse.leftButton,mouse.midButton,mouse.rightButton,mouse.clicked_name,Colour2,similarity,mouse_2.x,mouse_2.y,mouse_2.leftButton,mouse_2.midButton,mouse_2.rightButton,mouse_2.clicked_name,mouse_3.x,mouse_3.y,mouse_3.leftButton,mouse_3.midButton,mouse_3.rightButton,mouse_11.x,mouse_11.y,mouse_11.leftButton,mouse_11.midButton,mouse_11.rightButton,trials_2.thisRepN,trials_2.thisTrialN,trials_2.thisN,trials_2.thisIndex,trials_2.ran,Colour1,mouse_3.clicked_name,catchornah,catchsimilarity,catchnumber,catchtrialorder,catchRT,mouse_11.clicked_name
space,2.3335,space,27.6509,space,46.0898,space,12.5741,space,1.5012,space,3.1188,30,FF,56,-88,1,0,0,response3disk_5,4,5.2962,11,0,1,0,0,rectangle_8,11,0,1,0,0,11,0,1,0,0,0,0,0,3,1,60fdd48b2407045088f348b4,610371e183734d6ba413c992,2021-07-30_00h01.52.146,Simcolourproject_2stim_asymm_v5,2020.2.10,Win32,60,61025ae37ef11b136ea224fe,,,,,,,,,,,,,,,,,,,,,,,,,,,,,,,,,,,,,,,,,,,,,,
,,,,,,,,,,,,45,PF,35,77,1,0,0,response1disk_5,7,1.5762,7,-1,1,0,0,rectangle_8,84,-43,1,0,0,22,1,1,0,0,0,1,1,1,1,60fdd48b2407045088f348b4,610371e183734d6ba413c992,2021-07-30_00h01.52.146,Simcolourproject_2stim_asymm_v5,2020.2.10,Win32,60,61025ae37ef11b136ea224fe,response3disk_7,5,2.6781,5,"[2,5]",rectangle_4,,,,,,,,,,,,,,,,,,,,,,,,,,,,,,,,,,,,,,,,
,,,,,,,,,,,,92,FF,35,64,1,0,0,response1disk_5,7,1.9765,15,10,1,0,0,rectangle_8,15,10,1,0,0,15,10,1,0,0,0,2,2,0,1,60fdd48b2407045088f348b4,610371e183734d6ba413c992,2021-07-30_00h01.52.146,Simcolourproject_2stim_asymm_v5,2020.2.10,Win32,60,61025ae37ef11b136ea224fe,,,,,,,,,,,,,,,,,,,,,,,,,,,,,,,,,,,,,,,,,,,,,,
,,,,,,,,,,,,112,PF,83,39,1,0,0,response1disk_5,6,1.9987,1,-6,1,0,0,rectangle_8,1,-6,1,0,0,1,-6,1,0,0,0,3,3,2,1,60fdd48b2407045088f348b4,610371e183734d6ba413c992,2021-07-30_00h01.52.146,Simcolourproject_2stim_asymm_v5,2020.2.10,Win32,60,61025ae37ef11b136ea224fe,,,,,,,,,,,,,,,,,,,,,,,,,,,,,,,,,,,,,,,,,,,,,,
,,,,,,,,,,,,143,PF,95,36,1,0,0,response1disk_5,6,2.1468,12,2,1,0,0,rectangle_8,62,-34,1,0,0,26,1,1,0,0,0,4,4,6,1,60fdd48b2407045088f348b4,610371e183734d6ba413c992,2021-07-30_00h01.52.146,Simcolourproject_2stim_asymm_v5,2020.2.10,Win32,60,61025ae37ef11b136ea224fe,response3disk_7,5,2.4943,5,"[2,5]",rectangle_4,,,,,,,,,,,,,,,,,,,,,,,,,,,,,,,,,,,,,,,,
,,,,,,,,,,,,140,FF,-81,-43,1,0,0,response5disk_5,2,3.2931,-9,3,1,0,0,rectangle_8,-9,3,1,0,0,-9,3,1,0,0,0,5,5,5,1,60fdd48b2407045088f348b4,610371e183734d6ba413c992,2021-07-30_00h01.52.146,Simcolourproject_2stim_asymm_v5,2020.2.10,Win32,60,61025ae37ef11b136ea224fe,,,,,,,,,,,,,,,,,,,,,,,,,,,,,,,,,,,,,,,,,,,,,,
,,,,,,,,,,,,151,PF,41,86,1,0,0,response1disk_5,7,1.5475,-3,-7,1,0,0,rectangle_8,-3,-7,1,0,0,-3,-7,1,0,0,0,6,6,4,1,60fdd48b2407045088f348b4,610371e183734d6ba413c992,2021-07-30_00h01.52.146,Simcolourproject_2stim_asymm_v5,2020.2.10,Win32,60,61025ae37ef11b136ea224fe,,,,,,,,,,,,,,,,,,,,,,,,,,,,,,,,,,,,,,,,,,,,,,
,,,,,,,,,,,,,FF,,,,,,,,1.2704,,,,,,,,,,,,,,,,,,,,,,60fdd48b2407045088f348b4,610371e183734d6ba413c992,2021-07-30_00h01.52.146,Simcolourproject_2stim_asymm_v5,2020.2.10,Win32,60,61025ae37ef11b136ea224fe,,,,,,,space,3.6918,1435,39,81,1,0,0,response1disk,,7,-3,8,1,0,0,rectangle,-3,8,1,0,0,-3,8,1,0,0,0,0,0,135,1,,,,,,,,
,,,,,,,,,,,,,FF,,,,,,,,1.8966,,,,,,,,,,,,,,,,,,,,,,60fdd48b2407045088f348b4,610371e183734d6ba413c992,2021-07-30_00h01.52.146,Simcolourproject_2stim_asymm_v5,2020.2.10,Win32,60,61025ae37ef11b136ea224fe,,,,,,,,,4089,39,77,1,0,0,response1disk,,7,-9,3,1,0,0,rectangle,-9,3,1,0,0,-9,3,1,0,0,0,1,1,28,1,,,,,,,,
,,,,,,,,,,,,,FF,,,,,,,,0.9722,,,,,,,,,,,,,,,,,,,,,,60fdd48b2407045088f348b4,610371e183734d6ba413c992,2021-07-30_00h01.52.146,Simcolourproject_2stim_asymm_v5,2020.2.10,Win32,60,61025ae37ef11b136ea224fe,,,,,,,,,2637,30,66,1,0,0,response1disk,,7,7,13,1,0,0,rectangle,7,13,1,0,0,7,13,1,0,0,0,2,2,81,1,,,,,,,,
,,,,,,,,,,,,,FF,,,,,,,,1.1717,,,,,,,,,,,,,,,,,,,,,,60fdd48b2407045088f348b4,610371e183734d6ba413c992,2021-07-30_00h01.52.146,Simcolourproject_2stim_asymm_v5,2020.2.10,Win32,60,61025ae37ef11b136ea224fe,,,,,,,,,1445,-40,55,1,0,0,response7disk,,0,-17,13,1,0,0,rectangle,-17,13,1,0,0,-17,13,1,0,0,0,3,3,4,1,,,,,,,,
,,,,,,,,,,,,,FF,,,,,,,,1.8963,,,,,,,,,,,,,,,,,,,,,,60fdd48b2407045088f348b4,610371e183734d6ba413c992,2021-07-30_00h01.52.146,Simcolourproject_2stim_asymm_v5,2020.2.10,Win32,60,61025ae37ef11b136ea224fe,,,,,,,,,2791,67,-50,1,0,0,response3disk,,5,12,-1,1,0,0,rectangle,38,54,1,0,0,12,11,1,0,0,0,4,4,68,1,,response1disk_3,TRUE,7,7,"[92,5,87,295,160,273,169,201,93,220,214,309,125,184,51,221,236,21,118,220]",2.1412,rectangle
,,,,,,,,,,,,,FF,,,,,,,,1.5501,,,,,,,,,,,,,,,,,,,,,,60fdd48b2407045088f348b4,610371e183734d6ba413c992,2021-07-30_00h01.52.146,Simcolourproject_2stim_asymm_v5,2020.2.10,Win32,60,61025ae37ef11b136ea224fe,,,,,,,,,2308,88,-48,1,0,0,response3disk,,5,22,-6,1,0,0,rectangle,22,-6,1,0,0,22,-6,1,0,0,0,5,5,98,1,,,,,,,,
,,,,,,,,,,,,,FF,,,,,,,,1.0749,,,,,,,,,,,,,,,,,,,,,,60fdd48b2407045088f348b4,610371e183734d6ba413c992,2021-07-30_00h01.52.146,Simcolourproject_2stim_asymm_v5,2020.2.10,Win32,60,61025ae37ef11b136ea224fe,,,,,,,,,2142,29,82,1,0,0,response1disk,,7,-6,-2,1,0,0,rectangle,-6,-2,1,0,0,-6,-2,1,0,0,0,6,6,85,1,,,,,,,,
,,,,,,,,,,,,,FF,,,,,,,,1.7211,,,,,,,,,,,,,,,,,,,,,,60fdd48b2407045088f348b4,610371e183734d6ba413c992,2021-07-30_00h01.52.146,Simcolourproject_2stim_asymm_v5,2020.2.10,Win32,60,61025ae37ef11b136ea224fe,,,,,,,,,3950,44,-53,1,0,0,response3disk,,4,13,-3,1,0,0,rectangle,13,-3,1,0,0,13,-3,1,0,0,0,7,7,138,1,,,,,,,,
,,,,,,,,,,,,,FF,,,,,,,,1.3683,,,,,,,,,,,,,,,,,,,,,,60fdd48b2407045088f348b4,610371e183734d6ba413c992,2021-07-30_00h01.52.146,Simcolourproject_2stim_asymm_v5,2020.2.10,Win32,60,61025ae37ef11b136ea224fe,,,,,,,,,3400,28,-53,1,0,0,response3disk,,4,13,-1,1,0,0,rectangle,13,-1,1,0,0,13,-1,1,0,0,0,8,8,132,1,,,,,,,,
,,,,,,,,,,,,,FF,,,,,,,,1.6711,,,,,,,,,,,,,,,,,,,,,,60fdd48b2407045088f348b4,610371e183734d6ba413c992,2021-07-30_00h01.52.146,Simcolourproject_2stim_asymm_v5,2020.2.10,Win32,60,61025ae37ef11b136ea224fe,,,,,,,,,2260,41,66,1,0,0,response1disk,,7,8,7,1,0,0,rectangle,8,7,1,0,0,8,7,1,0,0,0,9,9,114,1,,,,,,,,
,,,,,,,,,,,,,FF,,,,,,,,1.3892,,,,,,,,,,,,,,,,,,,,,,60fdd48b2407045088f348b4,610371e183734d6ba413c992,2021-07-30_00h01.52.146,Simcolourproject_2stim_asymm_v5,2020.2.10,Win32,60,61025ae37ef11b136ea224fe,,,,,,,,,2495,64,40,1,0,0,response1disk,,6,22,0,1,0,0,rectangle,22,0,1,0,0,22,0,1,0,0,0,10,10,149,1,,,,,,,,
,,,,,,,,,,,,,FF,,,,,,,,1.347,,,,,,,,,,,,,,,,,,,,,,60fdd48b2407045088f348b4,610371e183734d6ba413c992,2021-07-30_00h01.52.146,Simcolourproject_2stim_asymm_v5,2020.2.10,Win32,60,61025ae37ef11b136ea224fe,,,,,,,,,3471,-51,-76,1,0,0,response5disk,,3,8,5,1,0,0,rectangle,8,5,1,0,0,8,5,1,0,0,0,11,11,33,1,,,,,,,,
,,,,,,,,,,,,,FF,,,,,,,,1.9207,,,,,,,,,,,,,,,,,,,,,,60fdd48b2407045088f348b4,610371e183734d6ba413c992,2021-07-30_00h01.52.146,Simcolourproject_2stim_asymm_v5,2020.2.10,Win32,60,61025ae37ef11b136ea224fe,,,,,,,,,4275,73,-32,1,0,0,response3disk,,5,28,0,1,0,0,rectangle,28,0,1,0,0,28,0,1,0,0,0,12,12,70,1,,,,,,,,
,,,,,,,,,,,,,FF,,,,,,,,1.1233,,,,,,,,,,,,,,,,,,,,,,60fdd48b2407045088f348b4,610371e183734d6ba413c992,2021-07-30_00h01.52.146,Simcolourproject_2stim_asymm_v5,2020.2.10,Win32,60,61025ae37ef11b136ea224fe,,,,,,,,,315,28,66,1,0,0,response1disk,,7,0,10,1,0,0,rectangle,0,10,1,0,0,0,10,1,0,0,0,13,13,35,1,,,,,,,,
,,,,,,,,,,,,,FF,,,,,,,,1.8204,,,,,,,,,,,,,,,,,,,,,,60fdd48b2407045088f348b4,610371e183734d6ba413c992,2021-07-30_00h01.52.146,Simcolourproject_2stim_asymm_v5,2020.2.10,Win32,60,61025ae37ef11b136ea224fe,,,,,,,,,4034,71,-29,1,0,0,response3disk,,5,25,-4,1,0,0,rectangle,25,-4,1,0,0,25,-4,1,0,0,0,14,14,117,1,,,,,,,,
,,,,,,,,,,,,,FF,,,,,,,,1.3473,,,,,,,,,,,,,,,,,,,,,,60fdd48b2407045088f348b4,610371e183734d6ba413c992,2021-07-30_00h01.52.146,Simcolourproject_2stim_asymm_v5,2020.2.10,Win32,60,61025ae37ef11b136ea224fe,,,,,,,,,3934,27,-40,1,0,0,response3disk,,4,8,5,1,0,0,rectangle,8,5,1,0,0,8,5,1,0,0,0,15,15,51,1,,,,,,,,
,,,,,,,,,,,,,FF,,,,,,,,1.3024,,,,,,,,,,,,,,,,,,,,,,60fdd48b2407045088f348b4,610371e183734d6ba413c992,2021-07-30_00h01.52.146,Simcolourproject_2stim_asymm_v5,2020.2.10,Win32,60,61025ae37ef11b136ea224fe,,,,,,,,,2796,46,80,1,0,0,response1disk,,7,10,6,1,0,0,rectangle,10,6,1,0,0,10,6,1,0,0,0,16,16,111,1,,,,,,,,
,,,,,,,,,,,,,FF,,,,,,,,0.8495,,,,,,,,,,,,,,,,,,,,,,60fdd48b2407045088f348b4,610371e183734d6ba413c992,2021-07-30_00h01.52.146,Simcolourproject_2stim_asymm_v5,2020.2.10,Win32,60,61025ae37ef11b136ea224fe,,,,,,,,,2972,27,46,1,0,0,response1disk,,7,9,9,1,0,0,rectangle,9,9,1,0,0,9,9,1,0,0,0,17,17,119,1,,,,,,,,
,,,,,,,,,,,,,FF,,,,,,,,2.3507,,,,,,,,,,,,,,,,,,,,,,60fdd48b2407045088f348b4,610371e183734d6ba413c992,2021-07-30_00h01.52.146,Simcolourproject_2stim_asymm_v5,2020.2.10,Win32,60,61025ae37ef11b136ea224fe,,,,,,,,,1392,82,35,1,0,0,response1disk,,6,4,2,1,0,0,rectangle,4,2,1,0,0,4,2,1,0,0,0,18,18,23,1,,,,,,,,
,,,,,,,,,,,,,FF,,,,,,,,1.8007,,,,,,,,,,,,,,,,,,,,,,60fdd48b2407045088f348b4,610371e183734d6ba413c992,2021-07-30_00h01.52.146,Simcolourproject_2stim_asymm_v5,2020.2.10,Win32,60,61025ae37ef11b136ea224fe,,,,,,,,,3762,-47,-85,1,0,0,response5disk,,3,19,-3,1,0,0,rectangle,19,-3,1,0,0,19,-3,1,0,0,0,19,19,43,1,,,,,,,,
,,,,,,,,,,,,,FF,,,,,,,,1.2167,,,,,,,,,,,,,,,,,,,,,,60fdd48b2407045088f348b4,610371e183734d6ba413c992,2021-07-30_00h01.52.146,Simcolourproject_2stim_asymm_v5,2020.2.10,Win32,60,61025ae37ef11b136ea224fe,,,,,,,,,1119,43,31,1,0,0,response1disk,,6,0,-7,1,0,0,rectangle,80,35,1,0,0,-1,-3,1,0,0,0,20,20,30,1,,response1disk_3,TRUE,6,6,"[92,5,87,295,160,273,169,201,93,220,214,309,125,184,51,221,236,21,118,220]",1.8705,rectangle
,,,,,,,,,,,,,FF,,,,,,,,1.6693,,,,,,,,,,,,,,,,,,,,,,60fdd48b2407045088f348b4,610371e183734d6ba413c992,2021-07-30_00h01.52.146,Simcolourproject_2stim_asymm_v5,2020.2.10,Win32,60,61025ae37ef11b136ea224fe,,,,,,,,,3576,78,-26,1,0,0,response3disk,,5,18,7,1,0,0,rectangle,18,7,1,0,0,18,7,1,0,0,0,21,21,52,1,,,,,,,,
,,,,,,,,,,,,,FF,,,,,,,,1.3966,,,,,,,,,,,,,,,,,,,,,,60fdd48b2407045088f348b4,610371e183734d6ba413c992,2021-07-30_00h01.52.146,Simcolourproject_2stim_asymm_v5,2020.2.10,Win32,60,61025ae37ef11b136ea224fe,,,,,,,,,3289,37,79,1,0,0,response1disk,,7,7,5,1,0,0,rectangle,7,5,1,0,0,7,5,1,0,0,0,22,22,93,1,,,,,,,,
,,,,,,,,,,,,,FF,,,,,,,,2.6687,,,,,,,,,,,,,,,,,,,,,,60fdd48b2407045088f348b4,610371e183734d6ba413c992,2021-07-30_00h01.52.146,Simcolourproject_2stim_asymm_v5,2020.2.10,Win32,60,61025ae37ef11b136ea224fe,,,,,,,,,1827,33,-54,1,0,0,response3disk,,4,14,-2,1,0,0,rectangle,14,-2,1,0,0,14,-2,1,0,0,0,23,23,148,1,,,,,,,,
,,,,,,,,,,,,,FF,,,,,,,,1.3502,,,,,,,,,,,,,,,,,,,,,,60fdd48b2407045088f348b4,610371e183734d6ba413c992,2021-07-30_00h01.52.146,Simcolourproject_2stim_asymm_v5,2020.2.10,Win32,60,61025ae37ef11b136ea224fe,,,,,,,,,2916,67,46,1,0,0,response1disk,,6,5,0,1,0,0,rectangle,5,0,1,0,0,5,0,1,0,0,0,24,24,2,1,,,,,,,,
,,,,,,,,,,,,,FF,,,,,,,,1.296,,,,,,,,,,,,,,,,,,,,,,60fdd48b2407045088f348b4,610371e183734d6ba413c992,2021-07-30_00h01.52.146,Simcolourproject_2stim_asymm_v5,2020.2.10,Win32,60,61025ae37ef11b136ea224fe,,,,,,,,,120,48,28,1,0,0,response1disk,,6,10,5,1,0,0,rectangle,10,5,1,0,0,10,5,1,0,0,0,25,25,121,1,,,,,,,,
,,,,,,,,,,,,,FF,,,,,,,,1.2474,,,,,,,,,,,,,,,,,,,,,,60fdd48b2407045088f348b4,610371e183734d6ba413c992,2021-07-30_00h01.52.146,Simcolourproject_2stim_asymm_v5,2020.2.10,Win32,60,61025ae37ef11b136ea224fe,,,,,,,,,3589,48,20,1,0,0,response1disk,,6,13,-5,1,0,0,rectangle,13,-5,1,0,0,13,-5,1,0,0,0,26,26,143,1,,,,,,,,
,,,,,,,,,,,,,FF,,,,,,,,2.0204,,,,,,,,,,,,,,,,,,,,,,60fdd48b2407045088f348b4,610371e183734d6ba413c992,2021-07-30_00h01.52.146,Simcolourproject_2stim_asymm_v5,2020.2.10,Win32,60,61025ae37ef11b136ea224fe,,,,,,,,,3626,70,-52,1,0,0,response3disk,,5,-1,-3,1,0,0,rectangle,-1,-3,1,0,0,-1,-3,1,0,0,0,27,27,134,1,,,,,,,,
,,,,,,,,,,,,,FF,,,,,,,,1.5973,,,,,,,,,,,,,,,,,,,,,,60fdd48b2407045088f348b4,610371e183734d6ba413c992,2021-07-30_00h01.52.146,Simcolourproject_2stim_asymm_v5,2020.2.10,Win32,60,61025ae37ef11b136ea224fe,,,,,,,,,3157,54,-53,1,0,0,response3disk,,5,16,6,1,0,0,rectangle,16,6,1,0,0,16,6,1,0,0,0,28,28,100,1,,,,,,,,
,,,,,,,,,,,,,FF,,,,,,,,1.2773,,,,,,,,,,,,,,,,,,,,,,60fdd48b2407045088f348b4,610371e183734d6ba413c992,2021-07-30_00h01.52.146,Simcolourproject_2stim_asymm_v5,2020.2.10,Win32,60,61025ae37ef11b136ea224fe,,,,,,,,,3954,56,52,1,0,0,response1disk,,6,5,0,1,0,0,rectangle,5,0,1,0,0,5,0,1,0,0,0,29,29,40,1,,,,,,,,
,,,,,,,,,,,,,FF,,,,,,,,1.5237,,,,,,,,,,,,,,,,,,,,,,60fdd48b2407045088f348b4,610371e183734d6ba413c992,2021-07-30_00h01.52.146,Simcolourproject_2stim_asymm_v5,2020.2.10,Win32,60,61025ae37ef11b136ea224fe,,,,,,,,,3392,-33,-61,1,0,0,response5disk,,3,2,-3,1,0,0,rectangle,2,-3,1,0,0,2,-3,1,0,0,0,30,30,21,1,,,,,,,,
,,,,,,,,,,,,,FF,,,,,,,,1.1731,,,,,,,,,,,,,,,,,,,,,,60fdd48b2407045088f348b4,610371e183734d6ba413c992,2021-07-30_00h01.52.146,Simcolourproject_2stim_asymm_v5,2020.2.10,Win32,60,61025ae37ef11b136ea224fe,,,,,,,,,903,66,53,1,0,0,response1disk,,6,12,0,1,0,0,rectangle,12,0,1,0,0,12,0,1,0,0,0,31,31,41,1,,,,,,,,
,,,,,,,,,,,,,FF,,,,,,,,1.0975,,,,,,,,,,,,,,,,,,,,,,60fdd48b2407045088f348b4,610371e183734d6ba413c992,2021-07-30_00h01.52.146,Simcolourproject_2stim_asymm_v5,2020.2.10,Win32,60,61025ae37ef11b136ea224fe,,,,,,,,,1271,24,69,1,0,0,response1disk,,7,4,6,1,0,0,rectangle,4,6,1,0,0,4,6,1,0,0,0,32,32,39,1,,,,,,,,
,,,,,,,,,,,,,FF,,,,,,,,1.1474,,,,,,,,,,,,,,,,,,,,,,60fdd48b2407045088f348b4,610371e183734d6ba413c992,2021-07-30_00h01.52.146,Simcolourproject_2stim_asymm_v5,2020.2.10,Win32,60,61025ae37ef11b136ea224fe,,,,,,,,,3177,26,68,1,0,0,response1disk,,7,7,2,1,0,0,rectangle,7,2,1,0,0,7,2,1,0,0,0,33,33,75,1,,,,,,,,
,,,,,,,,,,,,,FF,,,,,,,,1.8197,,,,,,,,,,,,,,,,,,,,,,60fdd48b2407045088f348b4,610371e183734d6ba413c992,2021-07-30_00h01.52.146,Simcolourproject_2stim_asymm_v5,2020.2.10,Win32,60,61025ae37ef11b136ea224fe,,,,,,,,,4298,77,-29,1,0,0,response3disk,,5,9,-1,1,0,0,rectangle,9,-1,1,0,0,9,-1,1,0,0,0,34,34,46,1,,,,,,,,
,,,,,,,,,,,,,FF,,,,,,,,1.7823,,,,,,,,,,,,,,,,,,,,,,60fdd48b2407045088f348b4,610371e183734d6ba413c992,2021-07-30_00h01.52.146,Simcolourproject_2stim_asymm_v5,2020.2.10,Win32,60,61025ae37ef11b136ea224fe,,,,,,,,,3915,-45,-70,1,0,0,response5disk,,3,9,3,1,0,0,rectangle,9,3,1,0,0,9,3,1,0,0,0,35,35,155,1,,,,,,,,
,,,,,,,,,,,,,FF,,,,,,,,0.8993,,,,,,,,,,,,,,,,,,,,,,60fdd48b2407045088f348b4,610371e183734d6ba413c992,2021-07-30_00h01.52.146,Simcolourproject_2stim_asymm_v5,2020.2.10,Win32,60,61025ae37ef11b136ea224fe,,,,,,,,,1357,29,59,1,0,0,response1disk,,7,6,6,1,0,0,rectangle,6,6,1,0,0,6,6,1,0,0,0,36,36,84,1,,,,,,,,
,,,,,,,,,,,,,FF,,,,,,,,0.8521,,,,,,,,,,,,,,,,,,,,,,60fdd48b2407045088f348b4,610371e183734d6ba413c992,2021-07-30_00h01.52.146,Simcolourproject_2stim_asymm_v5,2020.2.10,Win32,60,61025ae37ef11b136ea224fe,,,,,,,,,4215,29,60,1,0,0,response1disk,,7,1,1,1,0,0,rectangle,1,1,1,0,0,1,1,1,0,0,0,37,37,53,1,,,,,,,,
,,,,,,,,,,,,,FF,,,,,,,,1.1488,,,,,,,,,,,,,,,,,,,,,,60fdd48b2407045088f348b4,610371e183734d6ba413c992,2021-07-30_00h01.52.146,Simcolourproject_2stim_asymm_v5,2020.2.10,Win32,60,61025ae37ef11b136ea224fe,,,,,,,,,1925,26,54,1,0,0,response1disk,,7,5,6,1,0,0,rectangle,5,6,1,0,0,5,6,1,0,0,0,38,38,125,1,,,,,,,,
,,,,,,,,,,,,,FF,,,,,,,,0.9742,,,,,,,,,,,,,,,,,,,,,,60fdd48b2407045088f348b4,610371e183734d6ba413c992,2021-07-30_00h01.52.146,Simcolourproject_2stim_asymm_v5,2020.2.10,Win32,60,61025ae37ef11b136ea224fe,,,,,,,,,2971,27,55,1,0,0,response1disk,,7,2,4,1,0,0,rectangle,2,4,1,0,0,2,4,1,0,0,0,39,39,88,1,,,,,,,,
,,,,,,,,,,,,,FF,,,,,,,,0.8437,,,,,,,,,,,,,,,,,,,,,,60fdd48b2407045088f348b4,610371e183734d6ba413c992,2021-07-30_00h01.52.146,Simcolourproject_2stim_asymm_v5,2020.2.10,Win32,60,61025ae37ef11b136ea224fe,,,,,,,,,2957,35,61,1,0,0,response1disk,,7,4,3,1,0,0,rectangle,4,3,1,0,0,4,3,1,0,0,0,40,40,63,1,,,,,,,,
,,,,,,,,,,,,,FF,,,,,,,,1.804,,,,,,,,,,,,,,,,,,,,,,60fdd48b2407045088f348b4,610371e183734d6ba413c992,2021-07-30_00h01.52.146,Simcolourproject_2stim_asymm_v5,2020.2.10,Win32,60,61025ae37ef11b136ea224fe,,,,,,,,,3840,30,-44,1,0,0,response3disk,,4,7,-1,1,0,0,rectangle,7,-1,1,0,0,7,-1,1,0,0,0,41,41,115,1,,,,,,,,
,,,,,,,,,,,,,FF,,,,,,,,1.0467,,,,,,,,,,,,,,,,,,,,,,60fdd48b2407045088f348b4,610371e183734d6ba413c992,2021-07-30_00h01.52.146,Simcolourproject_2stim_asymm_v5,2020.2.10,Win32,60,61025ae37ef11b136ea224fe,,,,,,,,,2521,30,65,1,0,0,response1disk,,7,-4,-1,1,0,0,rectangle,-4,-1,1,0,0,-4,-1,1,0,0,0,42,42,65,1,,,,,,,,
,,,,,,,,,,,,,FF,,,,,,,,0.7771,,,,,,,,,,,,,,,,,,,,,,60fdd48b2407045088f348b4,610371e183734d6ba413c992,2021-07-30_00h01.52.146,Simcolourproject_2stim_asymm_v5,2020.2.10,Win32,60,61025ae37ef11b136ea224fe,,,,,,,,,541,30,56,1,0,0,response1disk,,7,-3,-6,1,0,0,rectangle,-3,-6,1,0,0,-3,-6,1,0,0,0,43,43,8,1,,,,,,,,
,,,,,,,,,,,,,FF,,,,,,,,0.8496,,,,,,,,,,,,,,,,,,,,,,60fdd48b2407045088f348b4,610371e183734d6ba413c992,2021-07-30_00h01.52.146,Simcolourproject_2stim_asymm_v5,2020.2.10,Win32,60,61025ae37ef11b136ea224fe,,,,,,,,,3730,32,60,1,0,0,response1disk,,7,7,10,1,0,0,rectangle,7,10,1,0,0,7,10,1,0,0,0,44,44,62,1,,,,,,,,
,,,,,,,,,,,,,FF,,,,,,,,0.7478,,,,,,,,,,,,,,,,,,,,,,60fdd48b2407045088f348b4,610371e183734d6ba413c992,2021-07-30_00h01.52.146,Simcolourproject_2stim_asymm_v5,2020.2.10,Win32,60,61025ae37ef11b136ea224fe,,,,,,,,,3531,30,49,1,0,0,response1disk,,7,3,-6,1,0,0,rectangle,3,-6,1,0,0,3,-6,1,0,0,0,45,45,44,1,,,,,,,,
,,,,,,,,,,,,,FF,,,,,,,,0.9463,,,,,,,,,,,,,,,,,,,,,,60fdd48b2407045088f348b4,610371e183734d6ba413c992,2021-07-30_00h01.52.146,Simcolourproject_2stim_asymm_v5,2020.2.10,Win32,60,61025ae37ef11b136ea224fe,,,,,,,,,4310,32,66,1,0,0,response1disk,,7,-2,7,1,0,0,rectangle,-2,7,1,0,0,-2,7,1,0,0,0,46,46,118,1,,,,,,,,
,,,,,,,,,,,,,FF,,,,,,,,1.097,,,,,,,,,,,,,,,,,,,,,,60fdd48b2407045088f348b4,610371e183734d6ba413c992,2021-07-30_00h01.52.146,Simcolourproject_2stim_asymm_v5,2020.2.10,Win32,60,61025ae37ef11b136ea224fe,,,,,,,,,2587,22,57,1,0,0,response1disk,,7,-3,3,1,0,0,rectangle,-3,3,1,0,0,-3,3,1,0,0,0,47,47,102,1,,,,,,,,
,,,,,,,,,,,,,FF,,,,,,,,2.1203,,,,,,,,,,,,,,,,,,,,,,60fdd48b2407045088f348b4,610371e183734d6ba413c992,2021-07-30_00h01.52.146,Simcolourproject_2stim_asymm_v5,2020.2.10,Win32,60,61025ae37ef11b136ea224fe,,,,,,,,,4348,61,-71,1,0,0,response3disk,,4,4,5,1,0,0,rectangle,4,5,1,0,0,4,5,1,0,0,0,48,48,104,1,,,,,,,,
,,,,,,,,,,,,,FF,,,,,,,,0.8474,,,,,,,,,,,,,,,,,,,,,,60fdd48b2407045088f348b4,610371e183734d6ba413c992,2021-07-30_00h01.52.146,Simcolourproject_2stim_asymm_v5,2020.2.10,Win32,60,61025ae37ef11b136ea224fe,,,,,,,,,2470,40,79,1,0,0,response1disk,,7,3,1,1,0,0,rectangle,3,1,1,0,0,3,1,1,0,0,0,49,49,106,1,,,,,,,,
,,,,,,,,,,,,,FF,,,,,,,,1.4713,,,,,,,,,,,,,,,,,,,,,,60fdd48b2407045088f348b4,610371e183734d6ba413c992,2021-07-30_00h01.52.146,Simcolourproject_2stim_asymm_v5,2020.2.10,Win32,60,61025ae37ef11b136ea224fe,,,,,,,,,2369,-29,-56,1,0,0,response5disk,,3,3,3,1,0,0,rectangle,84,-33,1,0,0,13,9,1,0,0,0,50,50,103,1,,response3disk_3,TRUE,5,5,"[92,5,87,295,160,273,169,201,93,220,214,309,125,184,51,221,236,21,118,220]",2.0711,rectangle
,,,,,,,,,,,,,FF,,,,,,,,1.6463,,,,,,,,,,,,,,,,,,,,,,60fdd48b2407045088f348b4,610371e183734d6ba413c992,2021-07-30_00h01.52.146,Simcolourproject_2stim_asymm_v5,2020.2.10,Win32,60,61025ae37ef11b136ea224fe,,,,,,,,,825,83,-32,1,0,0,response3disk,,5,14,2,1,0,0,rectangle,14,2,1,0,0,14,2,1,0,0,0,51,51,34,1,,,,,,,,
,,,,,,,,,,,,,FF,,,,,,,,1.4963,,,,,,,,,,,,,,,,,,,,,,60fdd48b2407045088f348b4,610371e183734d6ba413c992,2021-07-30_00h01.52.146,Simcolourproject_2stim_asymm_v5,2020.2.10,Win32,60,61025ae37ef11b136ea224fe,,,,,,,,,817,20,-63,1,0,0,response3disk,,4,3,-6,1,0,0,rectangle,3,-6,1,0,0,3,-6,1,0,0,0,52,52,129,1,,,,,,,,
,,,,,,,,,,,,,FF,,,,,,,,1.7495,,,,,,,,,,,,,,,,,,,,,,60fdd48b2407045088f348b4,610371e183734d6ba413c992,2021-07-30_00h01.52.146,Simcolourproject_2stim_asymm_v5,2020.2.10,Win32,60,61025ae37ef11b136ea224fe,,,,,,,,,1059,25,-53,1,0,0,response3disk,,4,13,1,1,0,0,rectangle,13,1,1,0,0,13,1,1,0,0,0,53,53,29,1,,,,,,,,
,,,,,,,,,,,,,FF,,,,,,,,1.4437,,,,,,,,,,,,,,,,,,,,,,60fdd48b2407045088f348b4,610371e183734d6ba413c992,2021-07-30_00h01.52.146,Simcolourproject_2stim_asymm_v5,2020.2.10,Win32,60,61025ae37ef11b136ea224fe,,,,,,,,,4088,55,-34,1,0,0,response3disk,,5,2,2,1,0,0,rectangle,2,2,1,0,0,2,2,1,0,0,0,54,54,18,1,,,,,,,,
,,,,,,,,,,,,,FF,,,,,,,,1.198,,,,,,,,,,,,,,,,,,,,,,60fdd48b2407045088f348b4,610371e183734d6ba413c992,2021-07-30_00h01.52.146,Simcolourproject_2stim_asymm_v5,2020.2.10,Win32,60,61025ae37ef11b136ea224fe,,,,,,,,,2596,39,67,1,0,0,response1disk,,7,-1,-6,1,0,0,rectangle,-1,-6,1,0,0,-1,-6,1,0,0,0,55,55,94,1,,,,,,,,
,,,,,,,,,,,,,FF,,,,,,,,2.021,,,,,,,,,,,,,,,,,,,,,,60fdd48b2407045088f348b4,610371e183734d6ba413c992,2021-07-30_00h01.52.146,Simcolourproject_2stim_asymm_v5,2020.2.10,Win32,60,61025ae37ef11b136ea224fe,,,,,,,,,1944,81,-28,1,0,0,response3disk,,5,16,-6,1,0,0,rectangle,16,-6,1,0,0,16,-6,1,0,0,0,56,56,7,1,,,,,,,,
,,,,,,,,,,,,,FF,,,,,,,,1.0719,,,,,,,,,,,,,,,,,,,,,,60fdd48b2407045088f348b4,610371e183734d6ba413c992,2021-07-30_00h01.52.146,Simcolourproject_2stim_asymm_v5,2020.2.10,Win32,60,61025ae37ef11b136ea224fe,,,,,,,,,105,31,69,1,0,0,response1disk,,7,7,12,1,0,0,rectangle,7,12,1,0,0,7,12,1,0,0,0,57,57,60,1,,,,,,,,
,,,,,,,,,,,,,FF,,,,,,,,0.9532,,,,,,,,,,,,,,,,,,,,,,60fdd48b2407045088f348b4,610371e183734d6ba413c992,2021-07-30_00h01.52.146,Simcolourproject_2stim_asymm_v5,2020.2.10,Win32,60,61025ae37ef11b136ea224fe,,,,,,,,,1573,21,52,1,0,0,response1disk,,7,1,7,1,0,0,rectangle,1,7,1,0,0,1,7,1,0,0,0,58,58,79,1,,,,,,,,
,,,,,,,,,,,,,FF,,,,,,,,1.3252,,,,,,,,,,,,,,,,,,,,,,60fdd48b2407045088f348b4,610371e183734d6ba413c992,2021-07-30_00h01.52.146,Simcolourproject_2stim_asymm_v5,2020.2.10,Win32,60,61025ae37ef11b136ea224fe,,,,,,,,,4146,-58,35,1,0,0,response7disk,,1,-3,2,1,0,0,rectangle,-3,2,1,0,0,-3,2,1,0,0,0,59,59,124,1,,,,,,,,
,,,,,,,,,,,,,FF,,,,,,,,1.5014,,,,,,,,,,,,,,,,,,,,,,60fdd48b2407045088f348b4,610371e183734d6ba413c992,2021-07-30_00h01.52.146,Simcolourproject_2stim_asymm_v5,2020.2.10,Win32,60,61025ae37ef11b136ea224fe,,,,,,,,,1439,41,-83,1,0,0,response3disk,,4,-2,1,1,0,0,rectangle,-2,1,1,0,0,-2,1,1,0,0,0,60,60,78,1,,,,,,,,
,,,,,,,,,,,,,FF,,,,,,,,1.1985,,,,,,,,,,,,,,,,,,,,,,60fdd48b2407045088f348b4,610371e183734d6ba413c992,2021-07-30_00h01.52.146,Simcolourproject_2stim_asymm_v5,2020.2.10,Win32,60,61025ae37ef11b136ea224fe,,,,,,,,,3221,49,39,1,0,0,response1disk,,6,3,-9,1,0,0,rectangle,3,-9,1,0,0,3,-9,1,0,0,0,61,61,61,1,,,,,,,,
,,,,,,,,,,,,,FF,,,,,,,,0.9537,,,,,,,,,,,,,,,,,,,,,,60fdd48b2407045088f348b4,610371e183734d6ba413c992,2021-07-30_00h01.52.146,Simcolourproject_2stim_asymm_v5,2020.2.10,Win32,60,61025ae37ef11b136ea224fe,,,,,,,,,2118,32,81,1,0,0,response1disk,,7,-1,10,1,0,0,rectangle,-1,10,1,0,0,-1,10,1,0,0,0,62,62,153,1,,,,,,,,
,,,,,,,,,,,,,FF,,,,,,,,1.4212,,,,,,,,,,,,,,,,,,,,,,60fdd48b2407045088f348b4,610371e183734d6ba413c992,2021-07-30_00h01.52.146,Simcolourproject_2stim_asymm_v5,2020.2.10,Win32,60,61025ae37ef11b136ea224fe,,,,,,,,,744,62,45,1,0,0,response1disk,,6,3,7,1,0,0,rectangle,3,7,1,0,0,3,7,1,0,0,0,63,63,12,1,,,,,,,,
,,,,,,,,,,,,,FF,,,,,,,,1.5736,,,,,,,,,,,,,,,,,,,,,,60fdd48b2407045088f348b4,610371e183734d6ba413c992,2021-07-30_00h01.52.146,Simcolourproject_2stim_asymm_v5,2020.2.10,Win32,60,61025ae37ef11b136ea224fe,,,,,,,,,51,32,-70,1,0,0,response3disk,,4,6,0,1,0,0,rectangle,6,0,1,0,0,6,0,1,0,0,0,64,64,157,1,,,,,,,,
,,,,,,,,,,,,,FF,,,,,,,,1.8263,,,,,,,,,,,,,,,,,,,,,,60fdd48b2407045088f348b4,610371e183734d6ba413c992,2021-07-30_00h01.52.146,Simcolourproject_2stim_asymm_v5,2020.2.10,Win32,60,61025ae37ef11b136ea224fe,,,,,,,,,24,79,42,1,0,0,response1disk,,6,6,1,1,0,0,rectangle,6,1,1,0,0,6,1,1,0,0,0,65,65,49,1,,,,,,,,
,,,,,,,,,,,,,FF,,,,,,,,0.8743,,,,,,,,,,,,,,,,,,,,,,60fdd48b2407045088f348b4,610371e183734d6ba413c992,2021-07-30_00h01.52.146,Simcolourproject_2stim_asymm_v5,2020.2.10,Win32,60,61025ae37ef11b136ea224fe,,,,,,,,,3137,26,61,1,0,0,response1disk,,7,-4,0,1,0,0,rectangle,-4,0,1,0,0,-4,0,1,0,0,0,66,66,137,1,,,,,,,,
,,,,,,,,,,,,,FF,,,,,,,,1.6401,,,,,,,,,,,,,,,,,,,,,,60fdd48b2407045088f348b4,610371e183734d6ba413c992,2021-07-30_00h01.52.146,Simcolourproject_2stim_asymm_v5,2020.2.10,Win32,60,61025ae37ef11b136ea224fe,,,,,,,,,2655,27,41,1,0,0,response1disk,,7,7,-10,1,0,0,rectangle,7,-10,1,0,0,7,-10,1,0,0,0,67,67,36,1,,,,,,,,
,,,,,,,,,,,,,FF,,,,,,,,1.1231,,,,,,,,,,,,,,,,,,,,,,60fdd48b2407045088f348b4,610371e183734d6ba413c992,2021-07-30_00h01.52.146,Simcolourproject_2stim_asymm_v5,2020.2.10,Win32,60,61025ae37ef11b136ea224fe,,,,,,,,,2245,70,43,1,0,0,response1disk,,6,25,0,1,0,0,rectangle,25,0,1,0,0,25,0,1,0,0,0,68,68,113,1,,,,,,,,
,,,,,,,,,,,,,FF,,,,,,,,0.9988,,,,,,,,,,,,,,,,,,,,,,60fdd48b2407045088f348b4,610371e183734d6ba413c992,2021-07-30_00h01.52.146,Simcolourproject_2stim_asymm_v5,2020.2.10,Win32,60,61025ae37ef11b136ea224fe,,,,,,,,,678,27,44,1,0,0,response1disk,,7,4,-2,1,0,0,rectangle,4,-2,1,0,0,4,-2,1,0,0,0,69,69,24,1,,,,,,,,
,,,,,,,,,,,,,FF,,,,,,,,1.6229,,,,,,,,,,,,,,,,,,,,,,60fdd48b2407045088f348b4,610371e183734d6ba413c992,2021-07-30_00h01.52.146,Simcolourproject_2stim_asymm_v5,2020.2.10,Win32,60,61025ae37ef11b136ea224fe,,,,,,,,,243,64,21,1,0,0,response1disk,,6,16,0,1,0,0,rectangle,16,0,1,0,0,16,0,1,0,0,0,70,70,11,1,,,,,,,,
,,,,,,,,,,,,,FF,,,,,,,,1.0228,,,,,,,,,,,,,,,,,,,,,,60fdd48b2407045088f348b4,610371e183734d6ba413c992,2021-07-30_00h01.52.146,Simcolourproject_2stim_asymm_v5,2020.2.10,Win32,60,61025ae37ef11b136ea224fe,,,,,,,,,28,31,47,1,0,0,response1disk,,7,6,7,1,0,0,rectangle,6,7,1,0,0,6,7,1,0,0,0,71,71,147,1,,,,,,,,
,,,,,,,,,,,,,FF,,,,,,,,1.7144,,,,,,,,,,,,,,,,,,,,,,60fdd48b2407045088f348b4,610371e183734d6ba413c992,2021-07-30_00h01.52.146,Simcolourproject_2stim_asymm_v5,2020.2.10,Win32,60,61025ae37ef11b136ea224fe,,,,,,,,,4224,27,-55,1,0,0,response3disk,,4,8,-4,1,0,0,rectangle,8,-4,1,0,0,8,-4,1,0,0,0,72,72,69,1,,,,,,,,
,,,,,,,,,,,,,FF,,,,,,,,1.3858,,,,,,,,,,,,,,,,,,,,,,60fdd48b2407045088f348b4,610371e183734d6ba413c992,2021-07-30_00h01.52.146,Simcolourproject_2stim_asymm_v5,2020.2.10,Win32,60,61025ae37ef11b136ea224fe,,,,,,,,,1302,26,-41,1,0,0,response3disk,,4,6,3,1,0,0,rectangle,6,3,1,0,0,6,3,1,0,0,0,73,73,150,1,,,,,,,,
,,,,,,,,,,,,,FF,,,,,,,,1.5729,,,,,,,,,,,,,,,,,,,,,,60fdd48b2407045088f348b4,610371e183734d6ba413c992,2021-07-30_00h01.52.146,Simcolourproject_2stim_asymm_v5,2020.2.10,Win32,60,61025ae37ef11b136ea224fe,,,,,,,,,2044,71,-18,1,0,0,response3disk,,5,13,-5,1,0,0,rectangle,13,-5,1,0,0,13,-5,1,0,0,0,74,74,110,1,,,,,,,,
,,,,,,,,,,,,,FF,,,,,,,,1.571,,,,,,,,,,,,,,,,,,,,,,60fdd48b2407045088f348b4,610371e183734d6ba413c992,2021-07-30_00h01.52.146,Simcolourproject_2stim_asymm_v5,2020.2.10,Win32,60,61025ae37ef11b136ea224fe,,,,,,,,,2614,56,-21,1,0,0,response3disk,,5,9,-1,1,0,0,rectangle,9,-1,1,0,0,9,-1,1,0,0,0,75,75,139,1,,,,,,,,
,,,,,,,,,,,,,FF,,,,,,,,1.8721,,,,,,,,,,,,,,,,,,,,,,60fdd48b2407045088f348b4,610371e183734d6ba413c992,2021-07-30_00h01.52.146,Simcolourproject_2stim_asymm_v5,2020.2.10,Win32,60,61025ae37ef11b136ea224fe,,,,,,,,,1662,-44,-84,1,0,0,response5disk,,3,10,2,1,0,0,rectangle,10,2,1,0,0,10,2,1,0,0,0,76,76,77,1,,,,,,,,
,,,,,,,,,,,,,FF,,,,,,,,1.1946,,,,,,,,,,,,,,,,,,,,,,60fdd48b2407045088f348b4,610371e183734d6ba413c992,2021-07-30_00h01.52.146,Simcolourproject_2stim_asymm_v5,2020.2.10,Win32,60,61025ae37ef11b136ea224fe,,,,,,,,,3855,45,92,1,0,0,response1disk,,7,0,-3,1,0,0,rectangle,0,-3,1,0,0,0,-3,1,0,0,0,77,77,71,1,,,,,,,,
,,,,,,,,,,,,,FF,,,,,,,,1.5232,,,,,,,,,,,,,,,,,,,,,,60fdd48b2407045088f348b4,610371e183734d6ba413c992,2021-07-30_00h01.52.146,Simcolourproject_2stim_asymm_v5,2020.2.10,Win32,60,61025ae37ef11b136ea224fe,,,,,,,,,3780,-76,-25,1,0,0,response5disk,,2,-1,0,1,0,0,rectangle,-1,0,1,0,0,-1,0,1,0,0,0,78,78,131,1,,,,,,,,
,,,,,,,,,,,,,FF,,,,,,,,1.5209,,,,,,,,,,,,,,,,,,,,,,60fdd48b2407045088f348b4,610371e183734d6ba413c992,2021-07-30_00h01.52.146,Simcolourproject_2stim_asymm_v5,2020.2.10,Win32,60,61025ae37ef11b136ea224fe,,,,,,,,,3674,30,-72,1,0,0,response3disk,,4,18,-5,1,0,0,rectangle,18,-5,1,0,0,18,-5,1,0,0,0,79,79,14,1,,,,,,,,
,,,,,,,,,,,,,FF,,,,,,,,0.9464,,,,,,,,,,,,,,,,,,,,,,60fdd48b2407045088f348b4,610371e183734d6ba413c992,2021-07-30_00h01.52.146,Simcolourproject_2stim_asymm_v5,2020.2.10,Win32,60,61025ae37ef11b136ea224fe,,,,,,,,,2446,29,67,1,0,0,response1disk,,7,3,10,1,0,0,rectangle,3,10,1,0,0,3,10,1,0,0,0,80,80,107,1,,,,,,,,
,,,,,,,,,,,,,FF,,,,,,,,1.0245,,,,,,,,,,,,,,,,,,,,,,60fdd48b2407045088f348b4,610371e183734d6ba413c992,2021-07-30_00h01.52.146,Simcolourproject_2stim_asymm_v5,2020.2.10,Win32,60,61025ae37ef11b136ea224fe,,,,,,,,,4322,21,55,1,0,0,response1disk,,7,-13,-4,1,0,0,rectangle,-13,-4,1,0,0,-13,-4,1,0,0,0,81,81,151,1,,,,,,,,
,,,,,,,,,,,,,FF,,,,,,,,1.6786,,,,,,,,,,,,,,,,,,,,,,60fdd48b2407045088f348b4,610371e183734d6ba413c992,2021-07-30_00h01.52.146,Simcolourproject_2stim_asymm_v5,2020.2.10,Win32,60,61025ae37ef11b136ea224fe,,,,,,,,,4084,61,-31,1,0,0,response3disk,,5,13,0,1,0,0,rectangle,13,0,1,0,0,13,0,1,0,0,0,82,82,10,1,,,,,,,,
,,,,,,,,,,,,,FF,,,,,,,,1.6549,,,,,,,,,,,,,,,,,,,,,,60fdd48b2407045088f348b4,610371e183734d6ba413c992,2021-07-30_00h01.52.146,Simcolourproject_2stim_asymm_v5,2020.2.10,Win32,60,61025ae37ef11b136ea224fe,,,,,,,,,3094,-52,-88,1,0,0,response5disk,,3,9,2,1,0,0,rectangle,9,2,1,0,0,9,2,1,0,0,0,83,83,38,1,,,,,,,,
,,,,,,,,,,,,,FF,,,,,,,,1.1009,,,,,,,,,,,,,,,,,,,,,,60fdd48b2407045088f348b4,610371e183734d6ba413c992,2021-07-30_00h01.52.146,Simcolourproject_2stim_asymm_v5,2020.2.10,Win32,60,61025ae37ef11b136ea224fe,,,,,,,,,1957,-60,23,1,0,0,response7disk,,1,-12,4,1,0,0,rectangle,-12,4,1,0,0,-12,4,1,0,0,0,84,84,48,1,,,,,,,,
,,,,,,,,,,,,,FF,,,,,,,,1.3949,,,,,,,,,,,,,,,,,,,,,,60fdd48b2407045088f348b4,610371e183734d6ba413c992,2021-07-30_00h01.52.146,Simcolourproject_2stim_asymm_v5,2020.2.10,Win32,60,61025ae37ef11b136ea224fe,,,,,,,,,162,-56,-73,1,0,0,response5disk,,3,1,-2,1,0,0,rectangle,1,-2,1,0,0,1,-2,1,0,0,0,85,85,76,1,,,,,,,,
,,,,,,,,,,,,,FF,,,,,,,,1.0748,,,,,,,,,,,,,,,,,,,,,,60fdd48b2407045088f348b4,610371e183734d6ba413c992,2021-07-30_00h01.52.146,Simcolourproject_2stim_asymm_v5,2020.2.10,Win32,60,61025ae37ef11b136ea224fe,,,,,,,,,1330,51,26,1,0,0,response1disk,,6,6,-7,1,0,0,rectangle,-42,-59,1,0,0,-3,1,1,0,0,0,86,86,83,1,,response5disk_3,TRUE,3,3,"[92,5,87,295,160,273,169,201,93,220,214,309,125,184,51,221,236,21,118,220]",1.6463,rectangle
,,,,,,,,,,,,,FF,,,,,,,,1.0436,,,,,,,,,,,,,,,,,,,,,,60fdd48b2407045088f348b4,610371e183734d6ba413c992,2021-07-30_00h01.52.146,Simcolourproject_2stim_asymm_v5,2020.2.10,Win32,60,61025ae37ef11b136ea224fe,,,,,,,,,2393,25,71,1,0,0,response1disk,,7,-3,-2,1,0,0,rectangle,-3,-2,1,0,0,-3,-2,1,0,0,0,87,87,45,1,,,,,,,,
,,,,,,,,,,,,,FF,,,,,,,,0.7749,,,,,,,,,,,,,,,,,,,,,,60fdd48b2407045088f348b4,610371e183734d6ba413c992,2021-07-30_00h01.52.146,Simcolourproject_2stim_asymm_v5,2020.2.10,Win32,60,61025ae37ef11b136ea224fe,,,,,,,,,3347,35,66,1,0,0,response1disk,,7,-7,1,1,0,0,rectangle,-7,1,1,0,0,-7,1,1,0,0,0,88,88,101,1,,,,,,,,
,,,,,,,,,,,,,FF,,,,,,,,1.3477,,,,,,,,,,,,,,,,,,,,,,60fdd48b2407045088f348b4,610371e183734d6ba413c992,2021-07-30_00h01.52.146,Simcolourproject_2stim_asymm_v5,2020.2.10,Win32,60,61025ae37ef11b136ea224fe,,,,,,,,,4185,33,-63,1,0,0,response3disk,,4,14,6,1,0,0,rectangle,14,6,1,0,0,14,6,1,0,0,0,89,89,1,1,,,,,,,,
,,,,,,,,,,,,,FF,,,,,,,,1.3496,,,,,,,,,,,,,,,,,,,,,,60fdd48b2407045088f348b4,610371e183734d6ba413c992,2021-07-30_00h01.52.146,Simcolourproject_2stim_asymm_v5,2020.2.10,Win32,60,61025ae37ef11b136ea224fe,,,,,,,,,3537,52,77,1,0,0,response1disk,,7,-6,-3,1,0,0,rectangle,-6,-3,1,0,0,-6,-3,1,0,0,0,90,90,58,1,,,,,,,,
,,,,,,,,,,,,,FF,,,,,,,,1.0476,,,,,,,,,,,,,,,,,,,,,,60fdd48b2407045088f348b4,610371e183734d6ba413c992,2021-07-30_00h01.52.146,Simcolourproject_2stim_asymm_v5,2020.2.10,Win32,60,61025ae37ef11b136ea224fe,,,,,,,,,1635,24,46,1,0,0,response1disk,,7,-1,2,1,0,0,rectangle,66,-29,1,0,0,12,2,1,0,0,0,91,91,26,1,,response3disk_3,TRUE,5,5,"[92,5,87,295,160,273,169,201,93,220,214,309,125,184,51,221,236,21,118,220]",1.5716,rectangle
,,,,,,,,,,,,,FF,,,,,,,,0.8988,,,,,,,,,,,,,,,,,,,,,,60fdd48b2407045088f348b4,610371e183734d6ba413c992,2021-07-30_00h01.52.146,Simcolourproject_2stim_asymm_v5,2020.2.10,Win32,60,61025ae37ef11b136ea224fe,,,,,,,,,1008,31,49,1,0,0,response1disk,,7,-10,-7,1,0,0,rectangle,69,47,1,0,0,6,-2,1,0,0,0,92,92,74,1,,response1disk_3,TRUE,6,6,"[92,5,87,295,160,273,169,201,93,220,214,309,125,184,51,221,236,21,118,220]",1.5704,rectangle
,,,,,,,,,,,,,FF,,,,,,,,0.928,,,,,,,,,,,,,,,,,,,,,,60fdd48b2407045088f348b4,610371e183734d6ba413c992,2021-07-30_00h01.52.146,Simcolourproject_2stim_asymm_v5,2020.2.10,Win32,60,61025ae37ef11b136ea224fe,,,,,,,,,671,33,75,1,0,0,response1disk,,7,0,5,1,0,0,rectangle,0,5,1,0,0,0,5,1,0,0,0,93,93,22,1,,,,,,,,
,,,,,,,,,,,,,FF,,,,,,,,0.9477,,,,,,,,,,,,,,,,,,,,,,60fdd48b2407045088f348b4,610371e183734d6ba413c992,2021-07-30_00h01.52.146,Simcolourproject_2stim_asymm_v5,2020.2.10,Win32,60,61025ae37ef11b136ea224fe,,,,,,,,,4139,39,67,1,0,0,response1disk,,7,-4,-9,1,0,0,rectangle,-4,-9,1,0,0,-4,-9,1,0,0,0,94,94,95,1,,,,,,,,
,,,,,,,,,,,,,FF,,,,,,,,0.8226,,,,,,,,,,,,,,,,,,,,,,60fdd48b2407045088f348b4,610371e183734d6ba413c992,2021-07-30_00h01.52.146,Simcolourproject_2stim_asymm_v5,2020.2.10,Win32,60,61025ae37ef11b136ea224fe,,,,,,,,,488,43,62,1,0,0,response1disk,,7,3,2,1,0,0,rectangle,3,2,1,0,0,3,2,1,0,0,0,95,95,90,1,,,,,,,,
,,,,,,,,,,,,,FF,,,,,,,,0.8236,,,,,,,,,,,,,,,,,,,,,,60fdd48b2407045088f348b4,610371e183734d6ba413c992,2021-07-30_00h01.52.146,Simcolourproject_2stim_asymm_v5,2020.2.10,Win32,60,61025ae37ef11b136ea224fe,,,,,,,,,2700,36,66,1,0,0,response1disk,,7,-17,-12,1,0,0,rectangle,-17,-12,1,0,0,-17,-12,1,0,0,0,96,96,57,1,,,,,,,,
,,,,,,,,,,,,,FF,,,,,,,,0.7228,,,,,,,,,,,,,,,,,,,,,,60fdd48b2407045088f348b4,610371e183734d6ba413c992,2021-07-30_00h01.52.146,Simcolourproject_2stim_asymm_v5,2020.2.10,Win32,60,61025ae37ef11b136ea224fe,,,,,,,,,584,28,51,1,0,0,response1disk,,7,-3,2,1,0,0,rectangle,-3,2,1,0,0,-3,2,1,0,0,0,97,97,42,1,,,,,,,,
,,,,,,,,,,,,,FF,,,,,,,,1.3722,,,,,,,,,,,,,,,,,,,,,,60fdd48b2407045088f348b4,610371e183734d6ba413c992,2021-07-30_00h01.52.146,Simcolourproject_2stim_asymm_v5,2020.2.10,Win32,60,61025ae37ef11b136ea224fe,,,,,,,,,3932,58,-43,1,0,0,response3disk,,5,11,1,1,0,0,rectangle,11,1,1,0,0,11,1,1,0,0,0,98,98,31,1,,,,,,,,
,,,,,,,,,,,,,FF,,,,,,,,0.774,,,,,,,,,,,,,,,,,,,,,,60fdd48b2407045088f348b4,610371e183734d6ba413c992,2021-07-30_00h01.52.146,Simcolourproject_2stim_asymm_v5,2020.2.10,Win32,60,61025ae37ef11b136ea224fe,,,,,,,,,756,39,64,1,0,0,response1disk,,7,6,9,1,0,0,rectangle,6,9,1,0,0,6,9,1,0,0,0,99,99,87,1,,,,,,,,
,,,,,,,,,,,,,FF,,,,,,,,1.5726,,,,,,,,,,,,,,,,,,,,,,60fdd48b2407045088f348b4,610371e183734d6ba413c992,2021-07-30_00h01.52.146,Simcolourproject_2stim_asymm_v5,2020.2.10,Win32,60,61025ae37ef11b136ea224fe,,,,,,,,,1837,67,-50,1,0,0,response3disk,,5,8,1,1,0,0,rectangle,8,1,1,0,0,8,1,1,0,0,0,100,100,56,1,,,,,,,,
,,,,,,,,,,,,,FF,,,,,,,,1.2745,,,,,,,,,,,,,,,,,,,,,,60fdd48b2407045088f348b4,610371e183734d6ba413c992,2021-07-30_00h01.52.146,Simcolourproject_2stim_asymm_v5,2020.2.10,Win32,60,61025ae37ef11b136ea224fe,,,,,,,,,1755,-30,-84,1,0,0,response5disk,,3,20,-3,1,0,0,rectangle,20,-3,1,0,0,20,-3,1,0,0,0,101,101,108,1,,,,,,,,
,,,,,,,,,,,,,FF,,,,,,,,1.047,,,,,,,,,,,,,,,,,,,,,,60fdd48b2407045088f348b4,610371e183734d6ba413c992,2021-07-30_00h01.52.146,Simcolourproject_2stim_asymm_v5,2020.2.10,Win32,60,61025ae37ef11b136ea224fe,,,,,,,,,2301,-25,-53,1,0,0,response5disk,,3,8,5,1,0,0,rectangle,8,5,1,0,0,8,5,1,0,0,0,102,102,120,1,,,,,,,,
,,,,,,,,,,,,,FF,,,,,,,,1.6731,,,,,,,,,,,,,,,,,,,,,,60fdd48b2407045088f348b4,610371e183734d6ba413c992,2021-07-30_00h01.52.146,Simcolourproject_2stim_asymm_v5,2020.2.10,Win32,60,61025ae37ef11b136ea224fe,,,,,,,,,1431,16,-49,1,0,0,response3disk,,4,13,-7,1,0,0,rectangle,13,-7,1,0,0,13,-7,1,0,0,0,103,103,154,1,,,,,,,,
,,,,,,,,,,,,,FF,,,,,,,,1.1729,,,,,,,,,,,,,,,,,,,,,,60fdd48b2407045088f348b4,610371e183734d6ba413c992,2021-07-30_00h01.52.146,Simcolourproject_2stim_asymm_v5,2020.2.10,Win32,60,61025ae37ef11b136ea224fe,,,,,,,,,2079,17,-33,1,0,0,response3disk,,4,6,-3,1,0,0,rectangle,6,-3,1,0,0,6,-3,1,0,0,0,104,104,16,1,,,,,,,,
,,,,,,,,,,,,,FF,,,,,,,,1.2235,,,,,,,,,,,,,,,,,,,,,,60fdd48b2407045088f348b4,610371e183734d6ba413c992,2021-07-30_00h01.52.146,Simcolourproject_2stim_asymm_v5,2020.2.10,Win32,60,61025ae37ef11b136ea224fe,,,,,,,,,4344,-77,-22,1,0,0,response5disk,,2,5,12,1,0,0,rectangle,5,12,1,0,0,5,12,1,0,0,0,105,105,55,1,,,,,,,,
,,,,,,,,,,,,,FF,,,,,,,,0.9741,,,,,,,,,,,,,,,,,,,,,,60fdd48b2407045088f348b4,610371e183734d6ba413c992,2021-07-30_00h01.52.146,Simcolourproject_2stim_asymm_v5,2020.2.10,Win32,60,61025ae37ef11b136ea224fe,,,,,,,,,2665,-84,-44,1,0,0,response5disk,,2,2,6,1,0,0,rectangle,2,6,1,0,0,2,6,1,0,0,0,106,106,47,1,,,,,,,,
,,,,,,,,,,,,,FF,,,,,,,,1.4981,,,,,,,,,,,,,,,,,,,,,,60fdd48b2407045088f348b4,610371e183734d6ba413c992,2021-07-30_00h01.52.146,Simcolourproject_2stim_asymm_v5,2020.2.10,Win32,60,61025ae37ef11b136ea224fe,,,,,,,,,2106,33,-54,1,0,0,response3disk,,4,18,-10,1,0,0,rectangle,18,-10,1,0,0,18,-10,1,0,0,0,107,107,32,1,,,,,,,,
,,,,,,,,,,,,,FF,,,,,,,,1.2966,,,,,,,,,,,,,,,,,,,,,,60fdd48b2407045088f348b4,610371e183734d6ba413c992,2021-07-30_00h01.52.146,Simcolourproject_2stim_asymm_v5,2020.2.10,Win32,60,61025ae37ef11b136ea224fe,,,,,,,,,3214,29,-18,1,0,0,response3disk,,5,8,-6,1,0,0,rectangle,8,-6,1,0,0,8,-6,1,0,0,0,108,108,145,1,,,,,,,,
,,,,,,,,,,,,,FF,,,,,,,,1.6468,,,,,,,,,,,,,,,,,,,,,,60fdd48b2407045088f348b4,610371e183734d6ba413c992,2021-07-30_00h01.52.146,Simcolourproject_2stim_asymm_v5,2020.2.10,Win32,60,61025ae37ef11b136ea224fe,,,,,,,,,2048,53,-22,1,0,0,response3disk,,5,2,5,1,0,0,rectangle,2,5,1,0,0,2,5,1,0,0,0,109,109,141,1,,,,,,,,
,,,,,,,,,,,,,FF,,,,,,,,1.2921,,,,,,,,,,,,,,,,,,,,,,60fdd48b2407045088f348b4,610371e183734d6ba413c992,2021-07-30_00h01.52.146,Simcolourproject_2stim_asymm_v5,2020.2.10,Win32,60,61025ae37ef11b136ea224fe,,,,,,,,,2993,-86,-38,1,0,0,response5disk,,2,-3,7,1,0,0,rectangle,-3,7,1,0,0,-3,7,1,0,0,0,110,110,5,1,,,,,,,,
,,,,,,,,,,,,,FF,,,,,,,,1.3488,,,,,,,,,,,,,,,,,,,,,,60fdd48b2407045088f348b4,610371e183734d6ba413c992,2021-07-30_00h01.52.146,Simcolourproject_2stim_asymm_v5,2020.2.10,Win32,60,61025ae37ef11b136ea224fe,,,,,,,,,2769,-59,-94,1,0,0,response5disk,,3,15,7,1,0,0,rectangle,15,7,1,0,0,15,7,1,0,0,0,111,111,130,1,,,,,,,,
,,,,,,,,,,,,,FF,,,,,,,,1.5962,,,,,,,,,,,,,,,,,,,,,,60fdd48b2407045088f348b4,610371e183734d6ba413c992,2021-07-30_00h01.52.146,Simcolourproject_2stim_asymm_v5,2020.2.10,Win32,60,61025ae37ef11b136ea224fe,,,,,,,,,1514,65,-48,1,0,0,response3disk,,5,3,9,1,0,0,rectangle,3,9,1,0,0,3,9,1,0,0,0,112,112,13,1,,,,,,,,
,,,,,,,,,,,,,FF,,,,,,,,1.6658,,,,,,,,,,,,,,,,,,,,,,60fdd48b2407045088f348b4,610371e183734d6ba413c992,2021-07-30_00h01.52.146,Simcolourproject_2stim_asymm_v5,2020.2.10,Win32,60,61025ae37ef11b136ea224fe,,,,,,,,,3568,64,-22,1,0,0,response3disk,,5,9,-3,1,0,0,rectangle,9,-3,1,0,0,9,-3,1,0,0,0,113,113,159,1,,,,,,,,
,,,,,,,,,,,,,FF,,,,,,,,1.2701,,,,,,,,,,,,,,,,,,,,,,60fdd48b2407045088f348b4,610371e183734d6ba413c992,2021-07-30_00h01.52.146,Simcolourproject_2stim_asymm_v5,2020.2.10,Win32,60,61025ae37ef11b136ea224fe,,,,,,,,,2375,60,49,1,0,0,response1disk,,6,-2,-10,1,0,0,rectangle,-2,-10,1,0,0,-2,-10,1,0,0,0,114,114,156,1,,,,,,,,
,,,,,,,,,,,,,FF,,,,,,,,1.2449,,,,,,,,,,,,,,,,,,,,,,60fdd48b2407045088f348b4,610371e183734d6ba413c992,2021-07-30_00h01.52.146,Simcolourproject_2stim_asymm_v5,2020.2.10,Win32,60,61025ae37ef11b136ea224fe,,,,,,,,,2105,-50,-78,1,0,0,response5disk,,3,-9,5,1,0,0,rectangle,-9,5,1,0,0,-9,5,1,0,0,0,115,115,19,1,,,,,,,,
,,,,,,,,,,,,,FF,,,,,,,,1.3041,,,,,,,,,,,,,,,,,,,,,,60fdd48b2407045088f348b4,610371e183734d6ba413c992,2021-07-30_00h01.52.146,Simcolourproject_2stim_asymm_v5,2020.2.10,Win32,60,61025ae37ef11b136ea224fe,,,,,,,,,2573,56,35,1,0,0,response1disk,,6,18,-9,1,0,0,rectangle,18,-9,1,0,0,18,-9,1,0,0,0,116,116,86,1,,,,,,,,
,,,,,,,,,,,,,FF,,,,,,,,1.2476,,,,,,,,,,,,,,,,,,,,,,60fdd48b2407045088f348b4,610371e183734d6ba413c992,2021-07-30_00h01.52.146,Simcolourproject_2stim_asymm_v5,2020.2.10,Win32,60,61025ae37ef11b136ea224fe,,,,,,,,,3759,35,57,1,0,0,response1disk,,7,11,10,1,0,0,rectangle,-74,39,1,0,0,-17,7,1,0,0,0,117,117,37,1,,response7disk_3,TRUE,1,1,"[92,5,87,295,160,273,169,201,93,220,214,309,125,184,51,221,236,21,118,220]",1.6283,rectangle
,,,,,,,,,,,,,FF,,,,,,,,1.3406,,,,,,,,,,,,,,,,,,,,,,60fdd48b2407045088f348b4,610371e183734d6ba413c992,2021-07-30_00h01.52.146,Simcolourproject_2stim_asymm_v5,2020.2.10,Win32,60,61025ae37ef11b136ea224fe,,,,,,,,,3430,-25,-44,1,0,0,response5disk,,3,0,8,1,0,0,rectangle,0,8,1,0,0,0,8,1,0,0,0,118,118,128,1,,,,,,,,
,,,,,,,,,,,,,FF,,,,,,,,0.8216,,,,,,,,,,,,,,,,,,,,,,60fdd48b2407045088f348b4,610371e183734d6ba413c992,2021-07-30_00h01.52.146,Simcolourproject_2stim_asymm_v5,2020.2.10,Win32,60,61025ae37ef11b136ea224fe,,,,,,,,,1722,38,78,1,0,0,response1disk,,7,-1,4,1,0,0,rectangle,-1,4,1,0,0,-1,4,1,0,0,0,119,119,66,1,,,,,,,,
,,,,,,,,,,,,,FF,,,,,,,,1.3702,,,,,,,,,,,,,,,,,,,,,,60fdd48b2407045088f348b4,610371e183734d6ba413c992,2021-07-30_00h01.52.146,Simcolourproject_2stim_asymm_v5,2020.2.10,Win32,60,61025ae37ef11b136ea224fe,,,,,,,,,2846,53,28,1,0,0,response1disk,,6,6,-6,1,0,0,rectangle,6,-6,1,0,0,6,-6,1,0,0,0,120,120,3,1,,,,,,,,
,,,,,,,,,,,,,FF,,,,,,,,1.1999,,,,,,,,,,,,,,,,,,,,,,60fdd48b2407045088f348b4,610371e183734d6ba413c992,2021-07-30_00h01.52.146,Simcolourproject_2stim_asymm_v5,2020.2.10,Win32,60,61025ae37ef11b136ea224fe,,,,,,,,,4157,44,30,1,0,0,response1disk,,6,1,6,1,0,0,rectangle,1,6,1,0,0,1,6,1,0,0,0,121,121,64,1,,,,,,,,
,,,,,,,,,,,,,FF,,,,,,,,1.1443,,,,,,,,,,,,,,,,,,,,,,60fdd48b2407045088f348b4,610371e183734d6ba413c992,2021-07-30_00h01.52.146,Simcolourproject_2stim_asymm_v5,2020.2.10,Win32,60,61025ae37ef11b136ea224fe,,,,,,,,,1823,-61,22,1,0,0,response7disk,,1,-18,7,1,0,0,rectangle,-18,7,1,0,0,-18,7,1,0,0,0,122,122,73,1,,,,,,,,
,,,,,,,,,,,,,FF,,,,,,,,1.441,,,,,,,,,,,,,,,,,,,,,,60fdd48b2407045088f348b4,610371e183734d6ba413c992,2021-07-30_00h01.52.146,Simcolourproject_2stim_asymm_v5,2020.2.10,Win32,60,61025ae37ef11b136ea224fe,,,,,,,,,519,38,76,1,0,0,response1disk,,7,-18,-2,1,0,0,rectangle,-18,-2,1,0,0,-18,-2,1,0,0,0,123,123,54,1,,,,,,,,
,,,,,,,,,,,,,FF,,,,,,,,1.5943,,,,,,,,,,,,,,,,,,,,,,60fdd48b2407045088f348b4,610371e183734d6ba413c992,2021-07-30_00h01.52.146,Simcolourproject_2stim_asymm_v5,2020.2.10,Win32,60,61025ae37ef11b136ea224fe,,,,,,,,,283,49,-19,1,0,0,response3disk,,5,13,-15,1,0,0,rectangle,63,24,1,0,0,18,0,1,0,0,0,124,124,109,1,,response1disk_3,TRUE,6,6,"[92,5,87,295,160,273,169,201,93,220,214,309,125,184,51,221,236,21,118,220]",1.522,rectangle
,,,,,,,,,,,,,FF,,,,,,,,1.2467,,,,,,,,,,,,,,,,,,,,,,60fdd48b2407045088f348b4,610371e183734d6ba413c992,2021-07-30_00h01.52.146,Simcolourproject_2stim_asymm_v5,2020.2.10,Win32,60,61025ae37ef11b136ea224fe,,,,,,,,,4053,58,34,1,0,0,response1disk,,6,1,-8,1,0,0,rectangle,1,-8,1,0,0,1,-8,1,0,0,0,125,125,136,1,,,,,,,,
,,,,,,,,,,,,,FF,,,,,,,,1.1468,,,,,,,,,,,,,,,,,,,,,,60fdd48b2407045088f348b4,610371e183734d6ba413c992,2021-07-30_00h01.52.146,Simcolourproject_2stim_asymm_v5,2020.2.10,Win32,60,61025ae37ef11b136ea224fe,,,,,,,,,941,42,65,1,0,0,response1disk,,7,7,2,1,0,0,rectangle,7,2,1,0,0,7,2,1,0,0,0,126,126,15,1,,,,,,,,
,,,,,,,,,,,,,FF,,,,,,,,1.1684,,,,,,,,,,,,,,,,,,,,,,60fdd48b2407045088f348b4,610371e183734d6ba413c992,2021-07-30_00h01.52.146,Simcolourproject_2stim_asymm_v5,2020.2.10,Win32,60,61025ae37ef11b136ea224fe,,,,,,,,,774,42,32,1,0,0,response1disk,,6,6,8,1,0,0,rectangle,6,8,1,0,0,6,8,1,0,0,0,127,127,140,1,,,,,,,,
,,,,,,,,,,,,,FF,,,,,,,,1.1214,,,,,,,,,,,,,,,,,,,,,,60fdd48b2407045088f348b4,610371e183734d6ba413c992,2021-07-30_00h01.52.146,Simcolourproject_2stim_asymm_v5,2020.2.10,Win32,60,61025ae37ef11b136ea224fe,,,,,,,,,1332,56,34,1,0,0,response1disk,,6,18,5,1,0,0,rectangle,18,5,1,0,0,18,5,1,0,0,0,128,128,123,1,,,,,,,,
,,,,,,,,,,,,,FF,,,,,,,,1.1062,,,,,,,,,,,,,,,,,,,,,,60fdd48b2407045088f348b4,610371e183734d6ba413c992,2021-07-30_00h01.52.146,Simcolourproject_2stim_asymm_v5,2020.2.10,Win32,60,61025ae37ef11b136ea224fe,,,,,,,,,784,25,43,1,0,0,response1disk,,7,-10,-12,1,0,0,rectangle,-10,-12,1,0,0,-10,-12,1,0,0,0,129,129,146,1,,,,,,,,
,,,,,,,,,,,,,FF,,,,,,,,0.904,,,,,,,,,,,,,,,,,,,,,,60fdd48b2407045088f348b4,610371e183734d6ba413c992,2021-07-30_00h01.52.146,Simcolourproject_2stim_asymm_v5,2020.2.10,Win32,60,61025ae37ef11b136ea224fe,,,,,,,,,4297,22,49,1,0,0,response1disk,,7,-3,10,1,0,0,rectangle,-3,10,1,0,0,-3,10,1,0,0,0,130,130,72,1,,,,,,,,
,,,,,,,,,,,,,FF,,,,,,,,0.9232,,,,,,,,,,,,,,,,,,,,,,60fdd48b2407045088f348b4,610371e183734d6ba413c992,2021-07-30_00h01.52.146,Simcolourproject_2stim_asymm_v5,2020.2.10,Win32,60,61025ae37ef11b136ea224fe,,,,,,,,,2221,34,65,1,0,0,response1disk,,7,6,11,1,0,0,rectangle,6,11,1,0,0,6,11,1,0,0,0,131,131,158,1,,,,,,,,
,,,,,,,,,,,,,FF,,,,,,,,1.4012,,,,,,,,,,,,,,,,,,,,,,60fdd48b2407045088f348b4,610371e183734d6ba413c992,2021-07-30_00h01.52.146,Simcolourproject_2stim_asymm_v5,2020.2.10,Win32,60,61025ae37ef11b136ea224fe,,,,,,,,,4274,52,-28,1,0,0,response3disk,,5,11,0,1,0,0,rectangle,11,0,1,0,0,11,0,1,0,0,0,132,132,127,1,,,,,,,,
,,,,,,,,,,,,,FF,,,,,,,,1.0495,,,,,,,,,,,,,,,,,,,,,,60fdd48b2407045088f348b4,610371e183734d6ba413c992,2021-07-30_00h01.52.146,Simcolourproject_2stim_asymm_v5,2020.2.10,Win32,60,61025ae37ef11b136ea224fe,,,,,,,,,1374,-33,-58,1,0,0,response5disk,,3,19,14,1,0,0,rectangle,19,14,1,0,0,19,14,1,0,0,0,133,133,59,1,,,,,,,,
,,,,,,,,,,,,,FF,,,,,,,,1.0005,,,,,,,,,,,,,,,,,,,,,,60fdd48b2407045088f348b4,610371e183734d6ba413c992,2021-07-30_00h01.52.146,Simcolourproject_2stim_asymm_v5,2020.2.10,Win32,60,61025ae37ef11b136ea224fe,,,,,,,,,2487,-30,-46,1,0,0,response5disk,,3,3,6,1,0,0,rectangle,3,6,1,0,0,3,6,1,0,0,0,134,134,80,1,,,,,,,,
,,,,,,,,,,,,,FF,,,,,,,,1.4721,,,,,,,,,,,,,,,,,,,,,,60fdd48b2407045088f348b4,610371e183734d6ba413c992,2021-07-30_00h01.52.146,Simcolourproject_2stim_asymm_v5,2020.2.10,Win32,60,61025ae37ef11b136ea224fe,,,,,,,,,4022,-50,-18,1,0,0,response5disk,,2,-9,2,1,0,0,rectangle,-9,2,1,0,0,-9,2,1,0,0,0,135,135,0,1,,,,,,,,
,,,,,,,,,,,,,FF,,,,,,,,0.7964,,,,,,,,,,,,,,,,,,,,,,60fdd48b2407045088f348b4,610371e183734d6ba413c992,2021-07-30_00h01.52.146,Simcolourproject_2stim_asymm_v5,2020.2.10,Win32,60,61025ae37ef11b136ea224fe,,,,,,,,,4160,35,80,1,0,0,response1disk,,7,3,11,1,0,0,rectangle,3,11,1,0,0,3,11,1,0,0,0,136,136,126,1,,,,,,,,
,,,,,,,,,,,,,FF,,,,,,,,0.7477,,,,,,,,,,,,,,,,,,,,,,60fdd48b2407045088f348b4,610371e183734d6ba413c992,2021-07-30_00h01.52.146,Simcolourproject_2stim_asymm_v5,2020.2.10,Win32,60,61025ae37ef11b136ea224fe,,,,,,,,,3405,31,54,1,0,0,response1disk,,7,-1,3,1,0,0,rectangle,-1,3,1,0,0,-1,3,1,0,0,0,137,137,97,1,,,,,,,,
,,,,,,,,,,,,,FF,,,,,,,,1.0968,,,,,,,,,,,,,,,,,,,,,,60fdd48b2407045088f348b4,610371e183734d6ba413c992,2021-07-30_00h01.52.146,Simcolourproject_2stim_asymm_v5,2020.2.10,Win32,60,61025ae37ef11b136ea224fe,,,,,,,,,3476,-26,-42,1,0,0,response5disk,,3,11,7,1,0,0,rectangle,11,7,1,0,0,11,7,1,0,0,0,138,138,99,1,,,,,,,,
,,,,,,,,,,,,,FF,,,,,,,,0.7973,,,,,,,,,,,,,,,,,,,,,,60fdd48b2407045088f348b4,610371e183734d6ba413c992,2021-07-30_00h01.52.146,Simcolourproject_2stim_asymm_v5,2020.2.10,Win32,60,61025ae37ef11b136ea224fe,,,,,,,,,2248,33,60,1,0,0,response1disk,,7,3,3,1,0,0,rectangle,3,3,1,0,0,3,3,1,0,0,0,139,139,133,1,,,,,,,,
,,,,,,,,,,,,,FF,,,,,,,,1.2472,,,,,,,,,,,,,,,,,,,,,,60fdd48b2407045088f348b4,610371e183734d6ba413c992,2021-07-30_00h01.52.146,Simcolourproject_2stim_asymm_v5,2020.2.10,Win32,60,61025ae37ef11b136ea224fe,,,,,,,,,1299,-55,-33,1,0,0,response5disk,,2,-10,6,1,0,0,rectangle,-10,6,1,0,0,-10,6,1,0,0,0,140,140,50,1,,,,,,,,
,,,,,,,,,,,,,FF,,,,,,,,1.5522,,,,,,,,,,,,,,,,,,,,,,60fdd48b2407045088f348b4,610371e183734d6ba413c992,2021-07-30_00h01.52.146,Simcolourproject_2stim_asymm_v5,2020.2.10,Win32,60,61025ae37ef11b136ea224fe,,,,,,,,,1775,24,-40,1,0,0,response3disk,,4,-4,-11,1,0,0,rectangle,-4,-11,1,0,0,-4,-11,1,0,0,0,141,141,144,1,,,,,,,,
,,,,,,,,,,,,,FF,,,,,,,,0.7987,,,,,,,,,,,,,,,,,,,,,,60fdd48b2407045088f348b4,610371e183734d6ba413c992,2021-07-30_00h01.52.146,Simcolourproject_2stim_asymm_v5,2020.2.10,Win32,60,61025ae37ef11b136ea224fe,,,,,,,,,1102,31,69,1,0,0,response1disk,,7,-1,13,1,0,0,rectangle,-1,13,1,0,0,-1,13,1,0,0,0,142,142,152,1,,,,,,,,
,,,,,,,,,,,,,FF,,,,,,,,1.2974,,,,,,,,,,,,,,,,,,,,,,60fdd48b2407045088f348b4,610371e183734d6ba413c992,2021-07-30_00h01.52.146,Simcolourproject_2stim_asymm_v5,2020.2.10,Win32,60,61025ae37ef11b136ea224fe,,,,,,,,,3969,84,-31,1,0,0,response3disk,,5,16,-2,1,0,0,rectangle,16,-2,1,0,0,16,-2,1,0,0,0,143,143,9,1,,,,,,,,
,,,,,,,,,,,,,FF,,,,,,,,1.3473,,,,,,,,,,,,,,,,,,,,,,60fdd48b2407045088f348b4,610371e183734d6ba413c992,2021-07-30_00h01.52.146,Simcolourproject_2stim_asymm_v5,2020.2.10,Win32,60,61025ae37ef11b136ea224fe,,,,,,,,,1674,-43,-54,1,0,0,response5disk,,3,0,-3,1,0,0,rectangle,0,-3,1,0,0,0,-3,1,0,0,0,144,144,6,1,,,,,,,,
,,,,,,,,,,,,,FF,,,,,,,,1.3734,,,,,,,,,,,,,,,,,,,,,,60fdd48b2407045088f348b4,610371e183734d6ba413c992,2021-07-30_00h01.52.146,Simcolourproject_2stim_asymm_v5,2020.2.10,Win32,60,61025ae37ef11b136ea224fe,,,,,,,,,3777,-68,-26,1,0,0,response5disk,,2,3,7,1,0,0,rectangle,3,7,1,0,0,3,7,1,0,0,0,145,145,91,1,,,,,,,,
,,,,,,,,,,,,,FF,,,,,,,,1.2508,,,,,,,,,,,,,,,,,,,,,,60fdd48b2407045088f348b4,610371e183734d6ba413c992,2021-07-30_00h01.52.146,Simcolourproject_2stim_asymm_v5,2020.2.10,Win32,60,61025ae37ef11b136ea224fe,,,,,,,,,3509,20,-38,1,0,0,response3disk,,4,5,5,1,0,0,rectangle,5,5,1,0,0,5,5,1,0,0,0,146,146,112,1,,,,,,,,
,,,,,,,,,,,,,FF,,,,,,,,1.298,,,,,,,,,,,,,,,,,,,,,,60fdd48b2407045088f348b4,610371e183734d6ba413c992,2021-07-30_00h01.52.146,Simcolourproject_2stim_asymm_v5,2020.2.10,Win32,60,61025ae37ef11b136ea224fe,,,,,,,,,3349,40,28,1,0,0,response1disk,,6,10,9,1,0,0,rectangle,10,9,1,0,0,10,9,1,0,0,0,147,147,20,1,,,,,,,,
,,,,,,,,,,,,,FF,,,,,,,,0.9198,,,,,,,,,,,,,,,,,,,,,,60fdd48b2407045088f348b4,610371e183734d6ba413c992,2021-07-30_00h01.52.146,Simcolourproject_2stim_asymm_v5,2020.2.10,Win32,60,61025ae37ef11b136ea224fe,,,,,,,,,2462,28,48,1,0,0,response1disk,,7,4,9,1,0,0,rectangle,4,9,1,0,0,4,9,1,0,0,0,148,148,89,1,,,,,,,,
,,,,,,,,,,,,,FF,,,,,,,,1.095,,,,,,,,,,,,,,,,,,,,,,60fdd48b2407045088f348b4,610371e183734d6ba413c992,2021-07-30_00h01.52.146,Simcolourproject_2stim_asymm_v5,2020.2.10,Win32,60,61025ae37ef11b136ea224fe,,,,,,,,,3937,-37,-48,1,0,0,response5disk,,3,-2,-8,1,0,0,rectangle,-2,-8,1,0,0,-2,-8,1,0,0,0,149,149,82,1,,,,,,,,
,,,,,,,,,,,,,FF,,,,,,,,0.9469,,,,,,,,,,,,,,,,,,,,,,60fdd48b2407045088f348b4,610371e183734d6ba413c992,2021-07-30_00h01.52.146,Simcolourproject_2stim_asymm_v5,2020.2.10,Win32,60,61025ae37ef11b136ea224fe,,,,,,,,,1364,27,55,1,0,0,response1disk,,7,0,11,1,0,0,rectangle,0,11,1,0,0,0,11,1,0,0,0,150,150,67,1,,,,,,,,
,,,,,,,,,,,,,FF,,,,,,,,1.4479,,,,,,,,,,,,,,,,,,,,,,60fdd48b2407045088f348b4,610371e183734d6ba413c992,2021-07-30_00h01.52.146,Simcolourproject_2stim_asymm_v5,2020.2.10,Win32,60,61025ae37ef11b136ea224fe,,,,,,,,,796,37,28,1,0,0,response1disk,,6,0,-1,1,0,0,rectangle,0,-1,1,0,0,0,-1,1,0,0,0,151,151,92,1,,,,,,,,
,,,,,,,,,,,,,FF,,,,,,,,1.3485,,,,,,,,,,,,,,,,,,,,,,60fdd48b2407045088f348b4,610371e183734d6ba413c992,2021-07-30_00h01.52.146,Simcolourproject_2stim_asymm_v5,2020.2.10,Win32,60,61025ae37ef11b136ea224fe,,,,,,,,,1197,46,28,1,0,0,response1disk,,6,3,-8,1,0,0,rectangle,3,-8,1,0,0,3,-8,1,0,0,0,152,152,122,1,,,,,,,,
,,,,,,,,,,,,,FF,,,,,,,,1.1207,,,,,,,,,,,,,,,,,,,,,,60fdd48b2407045088f348b4,610371e183734d6ba413c992,2021-07-30_00h01.52.146,Simcolourproject_2stim_asymm_v5,2020.2.10,Win32,60,61025ae37ef11b136ea224fe,,,,,,,,,4058,61,37,1,0,0,response1disk,,6,-6,-15,1,0,0,rectangle,-6,-15,1,0,0,-6,-15,1,0,0,0,153,153,17,1,,,,,,,,
,,,,,,,,,,,,,FF,,,,,,,,1.297,,,,,,,,,,,,,,,,,,,,,,60fdd48b2407045088f348b4,610371e183734d6ba413c992,2021-07-30_00h01.52.146,Simcolourproject_2stim_asymm_v5,2020.2.10,Win32,60,61025ae37ef11b136ea224fe,,,,,,,,,1897,-21,-50,1,0,0,response5disk,,3,6,2,1,0,0,rectangle,6,2,1,0,0,6,2,1,0,0,0,154,154,96,1,,,,,,,,
,,,,,,,,,,,,,FF,,,,,,,,1.6208,,,,,,,,,,,,,,,,,,,,,,60fdd48b2407045088f348b4,610371e183734d6ba413c992,2021-07-30_00h01.52.146,Simcolourproject_2stim_asymm_v5,2020.2.10,Win32,60,61025ae37ef11b136ea224fe,,,,,,,,,342,54,-24,1,0,0,response3disk,,5,20,-6,1,0,0,rectangle,20,-6,1,0,0,20,-6,1,0,0,0,155,155,27,1,,,,,,,,
,,,,,,,,,,,,,FF,,,,,,,,1.3221,,,,,,,,,,,,,,,,,,,,,,60fdd48b2407045088f348b4,610371e183734d6ba413c992,2021-07-30_00h01.52.146,Simcolourproject_2stim_asymm_v5,2020.2.10,Win32,60,61025ae37ef11b136ea224fe,,,,,,,,,4241,39,-17,1,0,0,response3disk,,5,8,-4,1,0,0,rectangle,8,-4,1,0,0,8,-4,1,0,0,0,156,156,105,1,,,,,,,,
,,,,,,,,,,,,,FF,,,,,,,,1.1726,,,,,,,,,,,,,,,,,,,,,,60fdd48b2407045088f348b4,610371e183734d6ba413c992,2021-07-30_00h01.52.146,Simcolourproject_2stim_asymm_v5,2020.2.10,Win32,60,61025ae37ef11b136ea224fe,,,,,,,,,4025,26,-40,1,0,0,response3disk,,4,7,-1,1,0,0,rectangle,7,-1,1,0,0,7,-1,1,0,0,0,157,157,142,1,,,,,,,,
,,,,,,,,,,,,,FF,,,,,,,,1.1449,,,,,,,,,,,,,,,,,,,,,,60fdd48b2407045088f348b4,610371e183734d6ba413c992,2021-07-30_00h01.52.146,Simcolourproject_2stim_asymm_v5,2020.2.10,Win32,60,61025ae37ef11b136ea224fe,,,,,,,,,1305,-28,-34,1,0,0,response5disk,,3,-11,-7,1,0,0,rectangle,-11,-7,1,0,0,-11,-7,1,0,0,0,158,158,25,1,,,,,,,,
,,,,,,,,,,,,,FF,,,,,,,,0.8522,,,,,,,,,,,,,,,,,,,,,,60fdd48b2407045088f348b4,610371e183734d6ba413c992,2021-07-30_00h01.52.146,Simcolourproject_2stim_asymm_v5,2020.2.10,Win32,60,61025ae37ef11b136ea224fe,,,,,,,,,1927,31,64,1,0,0,response1disk,,7,-5,-4,1,0,0,rectangle,-38,-49,1,0,0,-10,9,1,0,0,0,159,159,116,1,,response5disk_3,TRUE,3,3,"[92,5,87,295,160,273,169,201,93,220,214,309,125,184,51,221,236,21,118,220]",1.5214,rectangle
,,,,,,,,,,,,,FF,,,,,,,,1.1231,,,,,,,,,,,,,,,,,,,,,,60fdd48b2407045088f348b4,610371e183734d6ba413c992,2021-07-30_00h01.52.146,Simcolourproject_2stim_asymm_v5,2020.2.10,Win32,60,61025ae37ef11b136ea224fe,,,,,,,,,1435,42,41,1,0,0,response1disk,,6,-9,-9,1,0,0,rectangle,-9,-9,1,0,0,-9,-9,1,0,0,1,0,160,104,1,,,,,,,,
,,,,,,,,,,,,,FF,,,,,,,,1.2479,,,,,,,,,,,,,,,,,,,,,,60fdd48b2407045088f348b4,610371e183734d6ba413c992,2021-07-30_00h01.52.146,Simcolourproject_2stim_asymm_v5,2020.2.10,Win32,60,61025ae37ef11b136ea224fe,,,,,,,,,4089,52,-33,1,0,0,response3disk,,5,1,5,1,0,0,rectangle,1,5,1,0,0,1,5,1,0,0,1,1,161,145,1,,,,,,,,
,,,,,,,,,,,,,FF,,,,,,,,0.826,,,,,,,,,,,,,,,,,,,,,,60fdd48b2407045088f348b4,610371e183734d6ba413c992,2021-07-30_00h01.52.146,Simcolourproject_2stim_asymm_v5,2020.2.10,Win32,60,61025ae37ef11b136ea224fe,,,,,,,,,2637,31,61,1,0,0,response1disk,,7,-8,4,1,0,0,rectangle,-8,4,1,0,0,-8,4,1,0,0,1,2,162,121,1,,,,,,,,
,,,,,,,,,,,,,FF,,,,,,,,1.0726,,,,,,,,,,,,,,,,,,,,,,60fdd48b2407045088f348b4,610371e183734d6ba413c992,2021-07-30_00h01.52.146,Simcolourproject_2stim_asymm_v5,2020.2.10,Win32,60,61025ae37ef11b136ea224fe,,,,,,,,,1445,-55,17,1,0,0,response7disk,,1,-20,6,1,0,0,rectangle,-20,6,1,0,0,-20,6,1,0,0,1,3,163,156,1,,,,,,,,
,,,,,,,,,,,,,FF,,,,,,,,1.5737,,,,,,,,,,,,,,,,,,,,,,60fdd48b2407045088f348b4,610371e183734d6ba413c992,2021-07-30_00h01.52.146,Simcolourproject_2stim_asymm_v5,2020.2.10,Win32,60,61025ae37ef11b136ea224fe,,,,,,,,,2791,22,-35,1,0,0,response3disk,,4,0,10,1,0,0,rectangle,0,10,1,0,0,0,10,1,0,0,1,4,164,74,1,,,,,,,,
,,,,,,,,,,,,,FF,,,,,,,,0.9969,,,,,,,,,,,,,,,,,,,,,,60fdd48b2407045088f348b4,610371e183734d6ba413c992,2021-07-30_00h01.52.146,Simcolourproject_2stim_asymm_v5,2020.2.10,Win32,60,61025ae37ef11b136ea224fe,,,,,,,,,2308,27,-40,1,0,0,response3disk,,4,3,8,1,0,0,rectangle,3,8,1,0,0,3,8,1,0,0,1,5,165,148,1,,,,,,,,
,,,,,,,,,,,,,FF,,,,,,,,0.7729,,,,,,,,,,,,,,,,,,,,,,60fdd48b2407045088f348b4,610371e183734d6ba413c992,2021-07-30_00h01.52.146,Simcolourproject_2stim_asymm_v5,2020.2.10,Win32,60,61025ae37ef11b136ea224fe,,,,,,,,,2142,33,70,1,0,0,response1disk,,7,-9,-5,1,0,0,rectangle,-9,-5,1,0,0,-9,-5,1,0,0,1,6,166,18,1,,,,,,,,
,,,,,,,,,,,,,FF,,,,,,,,1.7244,,,,,,,,,,,,,,,,,,,,,,60fdd48b2407045088f348b4,610371e183734d6ba413c992,2021-07-30_00h01.52.146,Simcolourproject_2stim_asymm_v5,2020.2.10,Win32,60,61025ae37ef11b136ea224fe,,,,,,,,,3950,51,-20,1,0,0,response3disk,,5,9,0,1,0,0,rectangle,9,0,1,0,0,9,0,1,0,0,1,7,167,76,1,,,,,,,,
,,,,,,,,,,,,,FF,,,,,,,,1.0743,,,,,,,,,,,,,,,,,,,,,,60fdd48b2407045088f348b4,610371e183734d6ba413c992,2021-07-30_00h01.52.146,Simcolourproject_2stim_asymm_v5,2020.2.10,Win32,60,61025ae37ef11b136ea224fe,,,,,,,,,3400,39,-29,1,0,0,response3disk,,5,4,4,1,0,0,rectangle,-61,18,1,0,0,-3,-2,1,0,0,1,8,168,112,1,,response7disk_3,TRUE,1,1,"[92,5,87,295,160,273,169,201,93,220,214,309,125,184,51,221,236,21,118,220]",1.4747,rectangle
,,,,,,,,,,,,,FF,,,,,,,,0.9993,,,,,,,,,,,,,,,,,,,,,,60fdd48b2407045088f348b4,610371e183734d6ba413c992,2021-07-30_00h01.52.146,Simcolourproject_2stim_asymm_v5,2020.2.10,Win32,60,61025ae37ef11b136ea224fe,,,,,,,,,2260,23,59,1,0,0,response1disk,,7,2,15,1,0,0,rectangle,2,15,1,0,0,2,15,1,0,0,1,9,169,129,1,,,,,,,,
,,,,,,,,,,,,,FF,,,,,,,,1.2426,,,,,,,,,,,,,,,,,,,,,,60fdd48b2407045088f348b4,610371e183734d6ba413c992,2021-07-30_00h01.52.146,Simcolourproject_2stim_asymm_v5,2020.2.10,Win32,60,61025ae37ef11b136ea224fe,,,,,,,,,2495,39,28,1,0,0,response1disk,,6,11,4,1,0,0,rectangle,11,4,1,0,0,11,4,1,0,0,1,10,170,96,1,,,,,,,,
,,,,,,,,,,,,,FF,,,,,,,,1.2228,,,,,,,,,,,,,,,,,,,,,,60fdd48b2407045088f348b4,610371e183734d6ba413c992,2021-07-30_00h01.52.146,Simcolourproject_2stim_asymm_v5,2020.2.10,Win32,60,61025ae37ef11b136ea224fe,,,,,,,,,3471,-27,-57,1,0,0,response5disk,,3,4,-1,1,0,0,rectangle,4,-1,1,0,0,4,-1,1,0,0,1,11,171,142,1,,,,,,,,
,,,,,,,,,,,,,FF,,,,,,,,2.0191,,,,,,,,,,,,,,,,,,,,,,60fdd48b2407045088f348b4,610371e183734d6ba413c992,2021-07-30_00h01.52.146,Simcolourproject_2stim_asymm_v5,2020.2.10,Win32,60,61025ae37ef11b136ea224fe,,,,,,,,,4275,61,18,1,0,0,response1disk,,6,15,7,1,0,0,rectangle,15,7,1,0,0,15,7,1,0,0,1,12,172,33,1,,,,,,,,
,,,,,,,,,,,,,FF,,,,,,,,3.0446,,,,,,,,,,,,,,,,,,,,,,60fdd48b2407045088f348b4,610371e183734d6ba413c992,2021-07-30_00h01.52.146,Simcolourproject_2stim_asymm_v5,2020.2.10,Win32,60,61025ae37ef11b136ea224fe,,,,,,,,,315,36,-18,1,0,0,response3disk,,5,17,-3,1,0,0,rectangle,17,-3,1,0,0,17,-3,1,0,0,1,13,173,97,1,,,,,,,,
,,,,,,,,,,,,,FF,,,,,,,,2.1701,,,,,,,,,,,,,,,,,,,,,,60fdd48b2407045088f348b4,610371e183734d6ba413c992,2021-07-30_00h01.52.146,Simcolourproject_2stim_asymm_v5,2020.2.10,Win32,60,61025ae37ef11b136ea224fe,,,,,,,,,4034,25,-55,1,0,0,response3disk,,4,10,-6,1,0,0,rectangle,10,-6,1,0,0,10,-6,1,0,0,1,14,174,87,1,,,,,,,,
,,,,,,,,,,,,,FF,,,,,,,,1.1233,,,,,,,,,,,,,,,,,,,,,,60fdd48b2407045088f348b4,610371e183734d6ba413c992,2021-07-30_00h01.52.146,Simcolourproject_2stim_asymm_v5,2020.2.10,Win32,60,61025ae37ef11b136ea224fe,,,,,,,,,3934,29,-49,1,0,0,response3disk,,4,16,15,1,0,0,rectangle,16,15,1,0,0,16,15,1,0,0,1,15,175,54,1,,,,,,,,
,,,,,,,,,,,,,FF,,,,,,,,0.9525,,,,,,,,,,,,,,,,,,,,,,60fdd48b2407045088f348b4,610371e183734d6ba413c992,2021-07-30_00h01.52.146,Simcolourproject_2stim_asymm_v5,2020.2.10,Win32,60,61025ae37ef11b136ea224fe,,,,,,,,,2796,31,-43,1,0,0,response3disk,,4,6,3,1,0,0,rectangle,6,3,1,0,0,6,3,1,0,0,1,16,176,85,1,,,,,,,,
,,,,,,,,,,,,,FF,,,,,,,,0.8242,,,,,,,,,,,,,,,,,,,,,,60fdd48b2407045088f348b4,610371e183734d6ba413c992,2021-07-30_00h01.52.146,Simcolourproject_2stim_asymm_v5,2020.2.10,Win32,60,61025ae37ef11b136ea224fe,,,,,,,,,2972,45,74,1,0,0,response1disk,,7,-6,-9,1,0,0,rectangle,-6,-9,1,0,0,-6,-9,1,0,0,1,17,177,62,1,,,,,,,,
,,,,,,,,,,,,,FF,,,,,,,,1.2685,,,,,,,,,,,,,,,,,,,,,,60fdd48b2407045088f348b4,610371e183734d6ba413c992,2021-07-30_00h01.52.146,Simcolourproject_2stim_asymm_v5,2020.2.10,Win32,60,61025ae37ef11b136ea224fe,,,,,,,,,1392,33,-52,1,0,0,response3disk,,4,6,6,1,0,0,rectangle,6,6,1,0,0,6,6,1,0,0,1,18,178,111,1,,,,,,,,
,,,,,,,,,,,,,FF,,,,,,,,1.3217,,,,,,,,,,,,,,,,,,,,,,60fdd48b2407045088f348b4,610371e183734d6ba413c992,2021-07-30_00h01.52.146,Simcolourproject_2stim_asymm_v5,2020.2.10,Win32,60,61025ae37ef11b136ea224fe,,,,,,,,,3762,20,-38,1,0,0,response3disk,,4,-6,-2,1,0,0,rectangle,-6,-2,1,0,0,-6,-2,1,0,0,1,19,179,92,1,,,,,,,,
,,,,,,,,,,,,,FF,,,,,,,,1.6465,,,,,,,,,,,,,,,,,,,,,,60fdd48b2407045088f348b4,610371e183734d6ba413c992,2021-07-30_00h01.52.146,Simcolourproject_2stim_asymm_v5,2020.2.10,Win32,60,61025ae37ef11b136ea224fe,,,,,,,,,1119,25,-37,1,0,0,response3disk,,4,5,-4,1,0,0,rectangle,5,-4,1,0,0,5,-4,1,0,0,1,20,180,95,1,,,,,,,,
,,,,,,,,,,,,,FF,,,,,,,,1.0977,,,,,,,,,,,,,,,,,,,,,,60fdd48b2407045088f348b4,610371e183734d6ba413c992,2021-07-30_00h01.52.146,Simcolourproject_2stim_asymm_v5,2020.2.10,Win32,60,61025ae37ef11b136ea224fe,,,,,,,,,3576,62,50,1,0,0,response1disk,,6,12,2,1,0,0,rectangle,12,2,1,0,0,12,2,1,0,0,1,21,181,72,1,,,,,,,,
,,,,,,,,,,,,,FF,,,,,,,,1.2716,,,,,,,,,,,,,,,,,,,,,,60fdd48b2407045088f348b4,610371e183734d6ba413c992,2021-07-30_00h01.52.146,Simcolourproject_2stim_asymm_v5,2020.2.10,Win32,60,61025ae37ef11b136ea224fe,,,,,,,,,3289,50,61,1,0,0,response1disk,,7,10,9,1,0,0,rectangle,10,9,1,0,0,10,9,1,0,0,1,22,182,79,1,,,,,,,,
,,,,,,,,,,,,,FF,,,,,,,,1.4009,,,,,,,,,,,,,,,,,,,,,,60fdd48b2407045088f348b4,610371e183734d6ba413c992,2021-07-30_00h01.52.146,Simcolourproject_2stim_asymm_v5,2020.2.10,Win32,60,61025ae37ef11b136ea224fe,,,,,,,,,1827,-53,-35,1,0,0,response5disk,,2,-1,10,1,0,0,rectangle,-54,-17,1,0,0,-18,-1,1,0,0,1,23,183,130,1,,response5disk_3,TRUE,2,2,"[92,5,87,295,160,273,169,201,93,220,214,309,125,184,51,221,236,21,118,220]",1.4956,rectangle
,,,,,,,,,,,,,FF,,,,,,,,1.0001,,,,,,,,,,,,,,,,,,,,,,60fdd48b2407045088f348b4,610371e183734d6ba413c992,2021-07-30_00h01.52.146,Simcolourproject_2stim_asymm_v5,2020.2.10,Win32,60,61025ae37ef11b136ea224fe,,,,,,,,,2916,28,58,1,0,0,response1disk,,7,1,10,1,0,0,rectangle,1,10,1,0,0,1,10,1,0,0,1,24,184,25,1,,,,,,,,
,,,,,,,,,,,,,FF,,,,,,,,0.8565,,,,,,,,,,,,,,,,,,,,,,60fdd48b2407045088f348b4,610371e183734d6ba413c992,2021-07-30_00h01.52.146,Simcolourproject_2stim_asymm_v5,2020.2.10,Win32,60,61025ae37ef11b136ea224fe,,,,,,,,,120,35,56,1,0,0,response1disk,,7,-3,6,1,0,0,rectangle,-3,6,1,0,0,-3,6,1,0,0,1,25,185,86,1,,,,,,,,
,,,,,,,,,,,,,FF,,,,,,,,1.3998,,,,,,,,,,,,,,,,,,,,,,60fdd48b2407045088f348b4,610371e183734d6ba413c992,2021-07-30_00h01.52.146,Simcolourproject_2stim_asymm_v5,2020.2.10,Win32,60,61025ae37ef11b136ea224fe,,,,,,,,,3589,23,44,1,0,0,response1disk,,7,-5,6,1,0,0,rectangle,-5,6,1,0,0,-5,6,1,0,0,1,26,186,58,1,,,,,,,,
,,,,,,,,,,,,,FF,,,,,,,,1.5969,,,,,,,,,,,,,,,,,,,,,,60fdd48b2407045088f348b4,610371e183734d6ba413c992,2021-07-30_00h01.52.146,Simcolourproject_2stim_asymm_v5,2020.2.10,Win32,60,61025ae37ef11b136ea224fe,,,,,,,,,3626,47,36,1,0,0,response1disk,,6,1,3,1,0,0,rectangle,1,3,1,0,0,1,3,1,0,0,1,27,187,106,1,,,,,,,,
,,,,,,,,,,,,,FF,,,,,,,,1.0482,,,,,,,,,,,,,,,,,,,,,,60fdd48b2407045088f348b4,610371e183734d6ba413c992,2021-07-30_00h01.52.146,Simcolourproject_2stim_asymm_v5,2020.2.10,Win32,60,61025ae37ef11b136ea224fe,,,,,,,,,3157,-72,-46,1,0,0,response5disk,,2,-10,-12,1,0,0,rectangle,-10,-12,1,0,0,-10,-12,1,0,0,1,28,188,103,1,,,,,,,,
,,,,,,,,,,,,,FF,,,,,,,,1.7469,,,,,,,,,,,,,,,,,,,,,,60fdd48b2407045088f348b4,610371e183734d6ba413c992,2021-07-30_00h01.52.146,Simcolourproject_2stim_asymm_v5,2020.2.10,Win32,60,61025ae37ef11b136ea224fe,,,,,,,,,3954,72,44,1,0,0,response1disk,,6,15,10,1,0,0,rectangle,15,10,1,0,0,15,10,1,0,0,1,29,189,99,1,,,,,,,,
,,,,,,,,,,,,,FF,,,,,,,,1.0193,,,,,,,,,,,,,,,,,,,,,,60fdd48b2407045088f348b4,610371e183734d6ba413c992,2021-07-30_00h01.52.146,Simcolourproject_2stim_asymm_v5,2020.2.10,Win32,60,61025ae37ef11b136ea224fe,,,,,,,,,3392,-69,-32,1,0,0,response5disk,,2,-15,5,1,0,0,rectangle,-15,5,1,0,0,-15,5,1,0,0,1,30,190,134,1,,,,,,,,
,,,,,,,,,,,,,FF,,,,,,,,1.4212,,,,,,,,,,,,,,,,,,,,,,60fdd48b2407045088f348b4,610371e183734d6ba413c992,2021-07-30_00h01.52.146,Simcolourproject_2stim_asymm_v5,2020.2.10,Win32,60,61025ae37ef11b136ea224fe,,,,,,,,,903,27,-50,1,0,0,response3disk,,4,8,9,1,0,0,rectangle,8,9,1,0,0,8,9,1,0,0,1,31,191,11,1,,,,,,,,
,,,,,,,,,,,,,FF,,,,,,,,1.5225,,,,,,,,,,,,,,,,,,,,,,60fdd48b2407045088f348b4,610371e183734d6ba413c992,2021-07-30_00h01.52.146,Simcolourproject_2stim_asymm_v5,2020.2.10,Win32,60,61025ae37ef11b136ea224fe,,,,,,,,,1271,65,-30,1,0,0,response3disk,,5,10,-9,1,0,0,rectangle,10,-9,1,0,0,10,-9,1,0,0,1,32,192,98,1,,,,,,,,
,,,,,,,,,,,,,FF,,,,,,,,0.7473,,,,,,,,,,,,,,,,,,,,,,60fdd48b2407045088f348b4,610371e183734d6ba413c992,2021-07-30_00h01.52.146,Simcolourproject_2stim_asymm_v5,2020.2.10,Win32,60,61025ae37ef11b136ea224fe,,,,,,,,,3177,35,45,1,0,0,response1disk,,7,1,-14,1,0,0,rectangle,1,-14,1,0,0,1,-14,1,0,0,1,33,193,56,1,,,,,,,,
,,,,,,,,,,,,,FF,,,,,,,,1.0699,,,,,,,,,,,,,,,,,,,,,,60fdd48b2407045088f348b4,610371e183734d6ba413c992,2021-07-30_00h01.52.146,Simcolourproject_2stim_asymm_v5,2020.2.10,Win32,60,61025ae37ef11b136ea224fe,,,,,,,,,4298,71,43,1,0,0,response1disk,,6,17,7,1,0,0,rectangle,17,7,1,0,0,17,7,1,0,0,1,34,194,155,1,,,,,,,,
,,,,,,,,,,,,,FF,,,,,,,,1.1887,,,,,,,,,,,,,,,,,,,,,,60fdd48b2407045088f348b4,610371e183734d6ba413c992,2021-07-30_00h01.52.146,Simcolourproject_2stim_asymm_v5,2020.2.10,Win32,60,61025ae37ef11b136ea224fe,,,,,,,,,3915,-59,-42,1,0,0,response5disk,,2,-10,-5,1,0,0,rectangle,-10,-5,1,0,0,-10,-5,1,0,0,1,35,195,91,1,,,,,,,,
,,,,,,,,,,,,,FF,,,,,,,,0.8779,,,,,,,,,,,,,,,,,,,,,,60fdd48b2407045088f348b4,610371e183734d6ba413c992,2021-07-30_00h01.52.146,Simcolourproject_2stim_asymm_v5,2020.2.10,Win32,60,61025ae37ef11b136ea224fe,,,,,,,,,1357,38,63,1,0,0,response1disk,,7,0,5,1,0,0,rectangle,0,5,1,0,0,0,5,1,0,0,1,36,196,117,1,,,,,,,,
,,,,,,,,,,,,,FF,,,,,,,,0.9747,,,,,,,,,,,,,,,,,,,,,,60fdd48b2407045088f348b4,610371e183734d6ba413c992,2021-07-30_00h01.52.146,Simcolourproject_2stim_asymm_v5,2020.2.10,Win32,60,61025ae37ef11b136ea224fe,,,,,,,,,4215,22,43,1,0,0,response1disk,,7,-1,4,1,0,0,rectangle,-1,4,1,0,0,-1,4,1,0,0,1,37,197,147,1,,,,,,,,
,,,,,,,,,,,,,FF,,,,,,,,1.3759,,,,,,,,,,,,,,,,,,,,,,60fdd48b2407045088f348b4,610371e183734d6ba413c992,2021-07-30_00h01.52.146,Simcolourproject_2stim_asymm_v5,2020.2.10,Win32,60,61025ae37ef11b136ea224fe,,,,,,,,,1925,57,25,1,0,0,response1disk,,6,20,2,1,0,0,rectangle,20,2,1,0,0,20,2,1,0,0,1,38,198,5,1,,,,,,,,
,,,,,,,,,,,,,FF,,,,,,,,1.0042,,,,,,,,,,,,,,,,,,,,,,60fdd48b2407045088f348b4,610371e183734d6ba413c992,2021-07-30_00h01.52.146,Simcolourproject_2stim_asymm_v5,2020.2.10,Win32,60,61025ae37ef11b136ea224fe,,,,,,,,,2971,22,45,1,0,0,response1disk,,7,4,1,1,0,0,rectangle,4,1,1,0,0,4,1,1,0,0,1,39,199,108,1,,,,,,,,
,,,,,,,,,,,,,FF,,,,,,,,0.8664,,,,,,,,,,,,,,,,,,,,,,60fdd48b2407045088f348b4,610371e183734d6ba413c992,2021-07-30_00h01.52.146,Simcolourproject_2stim_asymm_v5,2020.2.10,Win32,60,61025ae37ef11b136ea224fe,,,,,,,,,2957,27,43,1,0,0,response1disk,,7,-4,-1,1,0,0,rectangle,20,-84,1,0,0,10,-4,1,0,0,1,40,200,84,1,,response3disk_3,TRUE,4,4,"[92,5,87,295,160,273,169,201,93,220,214,309,125,184,51,221,236,21,118,220]",1.5411,rectangle
,,,,,,,,,,,,,FF,,,,,,,,1.5741,,,,,,,,,,,,,,,,,,,,,,60fdd48b2407045088f348b4,610371e183734d6ba413c992,2021-07-30_00h01.52.146,Simcolourproject_2stim_asymm_v5,2020.2.10,Win32,60,61025ae37ef11b136ea224fe,,,,,,,,,3840,23,-35,1,0,0,response3disk,,4,6,-2,1,0,0,rectangle,6,-2,1,0,0,6,-2,1,0,0,1,41,201,8,1,,,,,,,,
,,,,,,,,,,,,,FF,,,,,,,,0.9245,,,,,,,,,,,,,,,,,,,,,,60fdd48b2407045088f348b4,610371e183734d6ba413c992,2021-07-30_00h01.52.146,Simcolourproject_2stim_asymm_v5,2020.2.10,Win32,60,61025ae37ef11b136ea224fe,,,,,,,,,2521,26,46,1,0,0,response1disk,,7,-7,1,1,0,0,rectangle,-7,1,1,0,0,-7,1,1,0,0,1,42,202,48,1,,,,,,,,
,,,,,,,,,,,,,FF,,,,,,,,0.8465,,,,,,,,,,,,,,,,,,,,,,60fdd48b2407045088f348b4,610371e183734d6ba413c992,2021-07-30_00h01.52.146,Simcolourproject_2stim_asymm_v5,2020.2.10,Win32,60,61025ae37ef11b136ea224fe,,,,,,,,,541,34,50,1,0,0,response1disk,,7,7,8,1,0,0,rectangle,7,8,1,0,0,7,8,1,0,0,1,43,203,126,1,,,,,,,,
,,,,,,,,,,,,,FF,,,,,,,,0.823,,,,,,,,,,,,,,,,,,,,,,60fdd48b2407045088f348b4,610371e183734d6ba413c992,2021-07-30_00h01.52.146,Simcolourproject_2stim_asymm_v5,2020.2.10,Win32,60,61025ae37ef11b136ea224fe,,,,,,,,,3730,32,45,1,0,0,response1disk,,7,10,6,1,0,0,rectangle,10,6,1,0,0,10,6,1,0,0,1,44,204,115,1,,,,,,,,
,,,,,,,,,,,,,FF,,,,,,,,0.8768,,,,,,,,,,,,,,,,,,,,,,60fdd48b2407045088f348b4,610371e183734d6ba413c992,2021-07-30_00h01.52.146,Simcolourproject_2stim_asymm_v5,2020.2.10,Win32,60,61025ae37ef11b136ea224fe,,,,,,,,,3531,27,41,1,0,0,response1disk,,7,6,-1,1,0,0,rectangle,6,-1,1,0,0,6,-1,1,0,0,1,45,205,12,1,,,,,,,,
,,,,,,,,,,,,,FF,,,,,,,,1.002,,,,,,,,,,,,,,,,,,,,,,60fdd48b2407045088f348b4,610371e183734d6ba413c992,2021-07-30_00h01.52.146,Simcolourproject_2stim_asymm_v5,2020.2.10,Win32,60,61025ae37ef11b136ea224fe,,,,,,,,,4310,26,48,1,0,0,response1disk,,7,8,15,1,0,0,rectangle,8,15,1,0,0,8,15,1,0,0,1,46,206,69,1,,,,,,,,
,,,,,,,,,,,,,FF,,,,,,,,1.093,,,,,,,,,,,,,,,,,,,,,,60fdd48b2407045088f348b4,610371e183734d6ba413c992,2021-07-30_00h01.52.146,Simcolourproject_2stim_asymm_v5,2020.2.10,Win32,60,61025ae37ef11b136ea224fe,,,,,,,,,2587,22,47,1,0,0,response1disk,,7,2,5,1,0,0,rectangle,2,5,1,0,0,2,5,1,0,0,1,47,207,89,1,,,,,,,,
,,,,,,,,,,,,,FF,,,,,,,,1.4735,,,,,,,,,,,,,,,,,,,,,,60fdd48b2407045088f348b4,610371e183734d6ba413c992,2021-07-30_00h01.52.146,Simcolourproject_2stim_asymm_v5,2020.2.10,Win32,60,61025ae37ef11b136ea224fe,,,,,,,,,4348,50,-25,1,0,0,response3disk,,5,-5,8,1,0,0,rectangle,-5,8,1,0,0,-5,8,1,0,0,1,48,208,41,1,,,,,,,,
,,,,,,,,,,,,,FF,,,,,,,,0.7999,,,,,,,,,,,,,,,,,,,,,,60fdd48b2407045088f348b4,610371e183734d6ba413c992,2021-07-30_00h01.52.146,Simcolourproject_2stim_asymm_v5,2020.2.10,Win32,60,61025ae37ef11b136ea224fe,,,,,,,,,2470,36,64,1,0,0,response1disk,,7,-3,3,1,0,0,rectangle,-3,3,1,0,0,-3,3,1,0,0,1,49,209,141,1,,,,,,,,
,,,,,,,,,,,,,FF,,,,,,,,1.1442,,,,,,,,,,,,,,,,,,,,,,60fdd48b2407045088f348b4,610371e183734d6ba413c992,2021-07-30_00h01.52.146,Simcolourproject_2stim_asymm_v5,2020.2.10,Win32,60,61025ae37ef11b136ea224fe,,,,,,,,,2369,43,-23,1,0,0,response3disk,,5,11,3,1,0,0,rectangle,11,3,1,0,0,11,3,1,0,0,1,50,210,32,1,,,,,,,,
,,,,,,,,,,,,,FF,,,,,,,,1.5656,,,,,,,,,,,,,,,,,,,,,,60fdd48b2407045088f348b4,610371e183734d6ba413c992,2021-07-30_00h01.52.146,Simcolourproject_2stim_asymm_v5,2020.2.10,Win32,60,61025ae37ef11b136ea224fe,,,,,,,,,825,34,-18,1,0,0,response3disk,,5,1,4,1,0,0,rectangle,1,4,1,0,0,1,4,1,0,0,1,51,211,44,1,,,,,,,,
,,,,,,,,,,,,,FF,,,,,,,,1.1232,,,,,,,,,,,,,,,,,,,,,,60fdd48b2407045088f348b4,610371e183734d6ba413c992,2021-07-30_00h01.52.146,Simcolourproject_2stim_asymm_v5,2020.2.10,Win32,60,61025ae37ef11b136ea224fe,,,,,,,,,817,36,-22,1,0,0,response3disk,,5,3,11,1,0,0,rectangle,3,11,1,0,0,3,11,1,0,0,1,52,212,101,1,,,,,,,,
,,,,,,,,,,,,,FF,,,,,,,,1.5788,,,,,,,,,,,,,,,,,,,,,,60fdd48b2407045088f348b4,610371e183734d6ba413c992,2021-07-30_00h01.52.146,Simcolourproject_2stim_asymm_v5,2020.2.10,Win32,60,61025ae37ef11b136ea224fe,,,,,,,,,1059,42,-22,1,0,0,response3disk,,5,9,-2,1,0,0,rectangle,-23,53,1,0,0,-8,4,1,0,0,1,53,213,42,1,,response7disk_3,TRUE,0,0,"[92,5,87,295,160,273,169,201,93,220,214,309,125,184,51,221,236,21,118,220]",1.7997,rectangle
,,,,,,,,,,,,,FF,,,,,,,,1.8466,,,,,,,,,,,,,,,,,,,,,,60fdd48b2407045088f348b4,610371e183734d6ba413c992,2021-07-30_00h01.52.146,Simcolourproject_2stim_asymm_v5,2020.2.10,Win32,60,61025ae37ef11b136ea224fe,,,,,,,,,4088,26,-36,1,0,0,response3disk,,4,0,-1,1,0,0,rectangle,0,-1,1,0,0,0,-1,1,0,0,1,54,214,4,1,,,,,,,,
,,,,,,,,,,,,,FF,,,,,,,,1.0618,,,,,,,,,,,,,,,,,,,,,,60fdd48b2407045088f348b4,610371e183734d6ba413c992,2021-07-30_00h01.52.146,Simcolourproject_2stim_asymm_v5,2020.2.10,Win32,60,61025ae37ef11b136ea224fe,,,,,,,,,2596,24,47,1,0,0,response1disk,,7,5,2,1,0,0,rectangle,5,2,1,0,0,5,2,1,0,0,1,55,215,105,1,,,,,,,,
,,,,,,,,,,,,,FF,,,,,,,,1.105,,,,,,,,,,,,,,,,,,,,,,60fdd48b2407045088f348b4,610371e183734d6ba413c992,2021-07-30_00h01.52.146,Simcolourproject_2stim_asymm_v5,2020.2.10,Win32,60,61025ae37ef11b136ea224fe,,,,,,,,,1944,35,-26,1,0,0,response3disk,,5,-4,3,1,0,0,rectangle,-4,3,1,0,0,-4,3,1,0,0,1,56,216,21,1,,,,,,,,
,,,,,,,,,,,,,FF,,,,,,,,1.1484,,,,,,,,,,,,,,,,,,,,,,60fdd48b2407045088f348b4,610371e183734d6ba413c992,2021-07-30_00h01.52.146,Simcolourproject_2stim_asymm_v5,2020.2.10,Win32,60,61025ae37ef11b136ea224fe,,,,,,,,,105,38,63,1,0,0,response1disk,,7,11,8,1,0,0,rectangle,11,8,1,0,0,11,8,1,0,0,1,57,217,15,1,,,,,,,,
,,,,,,,,,,,,,FF,,,,,,,,0.9479,,,,,,,,,,,,,,,,,,,,,,60fdd48b2407045088f348b4,610371e183734d6ba413c992,2021-07-30_00h01.52.146,Simcolourproject_2stim_asymm_v5,2020.2.10,Win32,60,61025ae37ef11b136ea224fe,,,,,,,,,1573,23,42,1,0,0,response1disk,,7,6,3,1,0,0,rectangle,6,3,1,0,0,6,3,1,0,0,1,58,218,66,1,,,,,,,,
,,,,,,,,,,,,,FF,,,,,,,,1.368,,,,,,,,,,,,,,,,,,,,,,60fdd48b2407045088f348b4,610371e183734d6ba413c992,2021-07-30_00h01.52.146,Simcolourproject_2stim_asymm_v5,2020.2.10,Win32,60,61025ae37ef11b136ea224fe,,,,,,,,,4146,-51,-31,1,0,0,response5disk,,2,-15,-3,1,0,0,rectangle,-46,-28,1,0,0,-24,-7,1,0,0,1,59,219,149,1,,response5disk_3,TRUE,2,2,"[92,5,87,295,160,273,169,201,93,220,214,309,125,184,51,221,236,21,118,220]",1.4491,rectangle
,,,,,,,,,,,,,FF,,,,,,,,1.4482,,,,,,,,,,,,,,,,,,,,,,60fdd48b2407045088f348b4,610371e183734d6ba413c992,2021-07-30_00h01.52.146,Simcolourproject_2stim_asymm_v5,2020.2.10,Win32,60,61025ae37ef11b136ea224fe,,,,,,,,,1439,-32,-34,1,0,0,response5disk,,3,-3,10,1,0,0,rectangle,-42,-49,1,0,0,-13,4,1,0,0,1,60,220,127,1,,response5disk_3,TRUE,3,3,"[92,5,87,295,160,273,169,201,93,220,214,309,125,184,51,221,236,21,118,220]",1.6939,rectangle
,,,,,,,,,,,,,FF,,,,,,,,1.0016,,,,,,,,,,,,,,,,,,,,,,60fdd48b2407045088f348b4,610371e183734d6ba413c992,2021-07-30_00h01.52.146,Simcolourproject_2stim_asymm_v5,2020.2.10,Win32,60,61025ae37ef11b136ea224fe,,,,,,,,,3221,25,56,1,0,0,response1disk,,7,-7,2,1,0,0,rectangle,-7,2,1,0,0,-7,2,1,0,0,1,61,221,60,1,,,,,,,,
,,,,,,,,,,,,,FF,,,,,,,,0.9266,,,,,,,,,,,,,,,,,,,,,,60fdd48b2407045088f348b4,610371e183734d6ba413c992,2021-07-30_00h01.52.146,Simcolourproject_2stim_asymm_v5,2020.2.10,Win32,60,61025ae37ef11b136ea224fe,,,,,,,,,2118,29,52,1,0,0,response1disk,,7,6,14,1,0,0,rectangle,6,14,1,0,0,6,14,1,0,0,1,62,222,71,1,,,,,,,,
,,,,,,,,,,,,,FF,,,,,,,,1.7721,,,,,,,,,,,,,,,,,,,,,,60fdd48b2407045088f348b4,610371e183734d6ba413c992,2021-07-30_00h01.52.146,Simcolourproject_2stim_asymm_v5,2020.2.10,Win32,60,61025ae37ef11b136ea224fe,,,,,,,,,744,47,20,1,0,0,response1disk,,6,-3,-1,1,0,0,rectangle,-3,-1,1,0,0,-3,-1,1,0,0,1,63,223,153,1,,,,,,,,
,,,,,,,,,,,,,FF,,,,,,,,1.4731,,,,,,,,,,,,,,,,,,,,,,60fdd48b2407045088f348b4,610371e183734d6ba413c992,2021-07-30_00h01.52.146,Simcolourproject_2stim_asymm_v5,2020.2.10,Win32,60,61025ae37ef11b136ea224fe,,,,,,,,,51,21,-32,1,0,0,response3disk,,4,-2,-1,1,0,0,rectangle,-2,-1,1,0,0,-2,-1,1,0,0,1,64,224,138,1,,,,,,,,
,,,,,,,,,,,,,FF,,,,,,,,1.1475,,,,,,,,,,,,,,,,,,,,,,60fdd48b2407045088f348b4,610371e183734d6ba413c992,2021-07-30_00h01.52.146,Simcolourproject_2stim_asymm_v5,2020.2.10,Win32,60,61025ae37ef11b136ea224fe,,,,,,,,,24,43,32,1,0,0,response1disk,,6,-12,-6,1,0,0,rectangle,-12,-6,1,0,0,-12,-6,1,0,0,1,65,225,14,1,,,,,,,,
,,,,,,,,,,,,,FF,,,,,,,,0.7729,,,,,,,,,,,,,,,,,,,,,,60fdd48b2407045088f348b4,610371e183734d6ba413c992,2021-07-30_00h01.52.146,Simcolourproject_2stim_asymm_v5,2020.2.10,Win32,60,61025ae37ef11b136ea224fe,,,,,,,,,3137,36,62,1,0,0,response1disk,,7,2,0,1,0,0,rectangle,2,0,1,0,0,2,0,1,0,0,1,66,226,151,1,,,,,,,,
,,,,,,,,,,,,,FF,,,,,,,,1.0971,,,,,,,,,,,,,,,,,,,,,,60fdd48b2407045088f348b4,610371e183734d6ba413c992,2021-07-30_00h01.52.146,Simcolourproject_2stim_asymm_v5,2020.2.10,Win32,60,61025ae37ef11b136ea224fe,,,,,,,,,2655,31,47,1,0,0,response1disk,,7,-1,-3,1,0,0,rectangle,-1,-3,1,0,0,-1,-3,1,0,0,1,67,227,81,1,,,,,,,,
,,,,,,,,,,,,,FF,,,,,,,,1.3723,,,,,,,,,,,,,,,,,,,,,,60fdd48b2407045088f348b4,610371e183734d6ba413c992,2021-07-30_00h01.52.146,Simcolourproject_2stim_asymm_v5,2020.2.10,Win32,60,61025ae37ef11b136ea224fe,,,,,,,,,2245,33,-23,1,0,0,response3disk,,5,-2,3,1,0,0,rectangle,-2,3,1,0,0,-2,3,1,0,0,1,68,228,143,1,,,,,,,,
,,,,,,,,,,,,,FF,,,,,,,,0.8542,,,,,,,,,,,,,,,,,,,,,,60fdd48b2407045088f348b4,610371e183734d6ba413c992,2021-07-30_00h01.52.146,Simcolourproject_2stim_asymm_v5,2020.2.10,Win32,60,61025ae37ef11b136ea224fe,,,,,,,,,678,34,59,1,0,0,response1disk,,7,2,7,1,0,0,rectangle,2,7,1,0,0,2,7,1,0,0,1,69,229,100,1,,,,,,,,
,,,,,,,,,,,,,FF,,,,,,,,1.0761,,,,,,,,,,,,,,,,,,,,,,60fdd48b2407045088f348b4,610371e183734d6ba413c992,2021-07-30_00h01.52.146,Simcolourproject_2stim_asymm_v5,2020.2.10,Win32,60,61025ae37ef11b136ea224fe,,,,,,,,,243,36,-19,1,0,0,response3disk,,5,-6,3,1,0,0,rectangle,-6,3,1,0,0,-6,3,1,0,0,1,70,230,73,1,,,,,,,,
,,,,,,,,,,,,,FF,,,,,,,,0.9232,,,,,,,,,,,,,,,,,,,,,,60fdd48b2407045088f348b4,610371e183734d6ba413c992,2021-07-30_00h01.52.146,Simcolourproject_2stim_asymm_v5,2020.2.10,Win32,60,61025ae37ef11b136ea224fe,,,,,,,,,28,28,-18,1,0,0,response3disk,,5,5,-2,1,0,0,rectangle,5,-2,1,0,0,5,-2,1,0,0,1,71,231,64,1,,,,,,,,
,,,,,,,,,,,,,FF,,,,,,,,1.2468,,,,,,,,,,,,,,,,,,,,,,60fdd48b2407045088f348b4,610371e183734d6ba413c992,2021-07-30_00h01.52.146,Simcolourproject_2stim_asymm_v5,2020.2.10,Win32,60,61025ae37ef11b136ea224fe,,,,,,,,,4224,-18,-26,1,0,0,response5disk,,3,2,10,1,0,0,rectangle,2,10,1,0,0,2,10,1,0,0,1,72,232,144,1,,,,,,,,
,,,,,,,,,,,,,FF,,,,,,,,1.0235,,,,,,,,,,,,,,,,,,,,,,60fdd48b2407045088f348b4,610371e183734d6ba413c992,2021-07-30_00h01.52.146,Simcolourproject_2stim_asymm_v5,2020.2.10,Win32,60,61025ae37ef11b136ea224fe,,,,,,,,,1302,-28,-35,1,0,0,response5disk,,3,-11,-8,1,0,0,rectangle,-11,-8,1,0,0,-11,-8,1,0,0,1,73,233,46,1,,,,,,,,
,,,,,,,,,,,,,FF,,,,,,,,1.7232,,,,,,,,,,,,,,,,,,,,,,60fdd48b2407045088f348b4,610371e183734d6ba413c992,2021-07-30_00h01.52.146,Simcolourproject_2stim_asymm_v5,2020.2.10,Win32,60,61025ae37ef11b136ea224fe,,,,,,,,,2044,21,-31,1,0,0,response3disk,,4,4,-5,1,0,0,rectangle,4,-5,1,0,0,4,-5,1,0,0,1,74,234,109,1,,,,,,,,
,,,,,,,,,,,,,FF,,,,,,,,1.748,,,,,,,,,,,,,,,,,,,,,,60fdd48b2407045088f348b4,610371e183734d6ba413c992,2021-07-30_00h01.52.146,Simcolourproject_2stim_asymm_v5,2020.2.10,Win32,60,61025ae37ef11b136ea224fe,,,,,,,,,2614,22,-34,1,0,0,response3disk,,4,8,-5,1,0,0,rectangle,-33,66,1,0,0,-8,-4,1,0,0,1,75,235,137,1,,response7disk_3,TRUE,0,0,"[92,5,87,295,160,273,169,201,93,220,214,309,125,184,51,221,236,21,118,220]",1.6023,rectangle
,,,,,,,,,,,,,FF,,,,,,,,1.1478,,,,,,,,,,,,,,,,,,,,,,60fdd48b2407045088f348b4,610371e183734d6ba413c992,2021-07-30_00h01.52.146,Simcolourproject_2stim_asymm_v5,2020.2.10,Win32,60,61025ae37ef11b136ea224fe,,,,,,,,,1662,-20,-32,1,0,0,response5disk,,3,-9,-2,1,0,0,rectangle,-9,-2,1,0,0,-9,-2,1,0,0,1,76,236,116,1,,,,,,,,
,,,,,,,,,,,,,FF,,,,,,,,1.3233,,,,,,,,,,,,,,,,,,,,,,60fdd48b2407045088f348b4,610371e183734d6ba413c992,2021-07-30_00h01.52.146,Simcolourproject_2stim_asymm_v5,2020.2.10,Win32,60,61025ae37ef11b136ea224fe,,,,,,,,,3855,32,-18,1,0,0,response3disk,,5,7,6,1,0,0,rectangle,7,6,1,0,0,7,6,1,0,0,1,77,237,43,1,,,,,,,,
,,,,,,,,,,,,,FF,,,,,,,,1.0725,,,,,,,,,,,,,,,,,,,,,,60fdd48b2407045088f348b4,610371e183734d6ba413c992,2021-07-30_00h01.52.146,Simcolourproject_2stim_asymm_v5,2020.2.10,Win32,60,61025ae37ef11b136ea224fe,,,,,,,,,3780,-24,-31,1,0,0,response5disk,,3,-10,-15,1,0,0,rectangle,-10,-15,1,0,0,-10,-15,1,0,0,1,78,238,146,1,,,,,,,,
,,,,,,,,,,,,,FF,,,,,,,,0.8976,,,,,,,,,,,,,,,,,,,,,,60fdd48b2407045088f348b4,610371e183734d6ba413c992,2021-07-30_00h01.52.146,Simcolourproject_2stim_asymm_v5,2020.2.10,Win32,60,61025ae37ef11b136ea224fe,,,,,,,,,3674,-29,-40,1,0,0,response5disk,,3,-5,-1,1,0,0,rectangle,-5,-1,1,0,0,-5,-1,1,0,0,1,79,239,27,1,,,,,,,,
,,,,,,,,,,,,,FF,,,,,,,,0.8546,,,,,,,,,,,,,,,,,,,,,,60fdd48b2407045088f348b4,610371e183734d6ba413c992,2021-07-30_00h01.52.146,Simcolourproject_2stim_asymm_v5,2020.2.10,Win32,60,61025ae37ef11b136ea224fe,,,,,,,,,2446,35,45,1,0,0,response1disk,,7,14,14,1,0,0,rectangle,14,14,1,0,0,14,14,1,0,0,1,80,240,23,1,,,,,,,,
,,,,,,,,,,,,,FF,,,,,,,,0.7981,,,,,,,,,,,,,,,,,,,,,,60fdd48b2407045088f348b4,610371e183734d6ba413c992,2021-07-30_00h01.52.146,Simcolourproject_2stim_asymm_v5,2020.2.10,Win32,60,61025ae37ef11b136ea224fe,,,,,,,,,4322,22,30,1,0,0,response1disk,,7,9,7,1,0,0,rectangle,9,7,1,0,0,9,7,1,0,0,1,81,241,77,1,,,,,,,,
,,,,,,,,,,,,,FF,,,,,,,,1.0495,,,,,,,,,,,,,,,,,,,,,,60fdd48b2407045088f348b4,610371e183734d6ba413c992,2021-07-30_00h01.52.146,Simcolourproject_2stim_asymm_v5,2020.2.10,Win32,60,61025ae37ef11b136ea224fe,,,,,,,,,4084,33,18,1,0,0,response1disk,,6,14,10,1,0,0,rectangle,14,10,1,0,0,14,10,1,0,0,1,82,242,0,1,,,,,,,,
,,,,,,,,,,,,,FF,,,,,,,,1.2744,,,,,,,,,,,,,,,,,,,,,,60fdd48b2407045088f348b4,610371e183734d6ba413c992,2021-07-30_00h01.52.146,Simcolourproject_2stim_asymm_v5,2020.2.10,Win32,60,61025ae37ef11b136ea224fe,,,,,,,,,3094,-40,-53,1,0,0,response5disk,,3,-3,0,1,0,0,rectangle,-3,0,1,0,0,-3,0,1,0,0,1,83,243,135,1,,,,,,,,
,,,,,,,,,,,,,FF,,,,,,,,1.1468,,,,,,,,,,,,,,,,,,,,,,60fdd48b2407045088f348b4,610371e183734d6ba413c992,2021-07-30_00h01.52.146,Simcolourproject_2stim_asymm_v5,2020.2.10,Win32,60,61025ae37ef11b136ea224fe,,,,,,,,,1957,-47,24,1,0,0,response7disk,,1,-10,10,1,0,0,rectangle,-10,10,1,0,0,-10,10,1,0,0,1,84,244,2,1,,,,,,,,
,,,,,,,,,,,,,FF,,,,,,,,0.977,,,,,,,,,,,,,,,,,,,,,,60fdd48b2407045088f348b4,610371e183734d6ba413c992,2021-07-30_00h01.52.146,Simcolourproject_2stim_asymm_v5,2020.2.10,Win32,60,61025ae37ef11b136ea224fe,,,,,,,,,162,-39,21,1,0,0,response7disk,,1,-12,9,1,0,0,rectangle,-12,9,1,0,0,-12,9,1,0,0,1,85,245,139,1,,,,,,,,
,,,,,,,,,,,,,FF,,,,,,,,1.1982,,,,,,,,,,,,,,,,,,,,,,60fdd48b2407045088f348b4,610371e183734d6ba413c992,2021-07-30_00h01.52.146,Simcolourproject_2stim_asymm_v5,2020.2.10,Win32,60,61025ae37ef11b136ea224fe,,,,,,,,,1330,29,-19,1,0,0,response3disk,,5,4,14,1,0,0,rectangle,4,14,1,0,0,4,14,1,0,0,1,86,246,119,1,,,,,,,,
,,,,,,,,,,,,,FF,,,,,,,,1.7531,,,,,,,,,,,,,,,,,,,,,,60fdd48b2407045088f348b4,610371e183734d6ba413c992,2021-07-30_00h01.52.146,Simcolourproject_2stim_asymm_v5,2020.2.10,Win32,60,61025ae37ef11b136ea224fe,,,,,,,,,2393,39,16,1,0,0,response1disk,,6,14,13,1,0,0,rectangle,14,13,1,0,0,14,13,1,0,0,1,87,247,80,1,,,,,,,,
,,,,,,,,,,,,,FF,,,,,,,,0.9471,,,,,,,,,,,,,,,,,,,,,,60fdd48b2407045088f348b4,610371e183734d6ba413c992,2021-07-30_00h01.52.146,Simcolourproject_2stim_asymm_v5,2020.2.10,Win32,60,61025ae37ef11b136ea224fe,,,,,,,,,3347,22,36,1,0,0,response1disk,,7,0,-1,1,0,0,rectangle,0,-1,1,0,0,0,-1,1,0,0,1,88,248,65,1,,,,,,,,
,,,,,,,,,,,,,FF,,,,,,,,1.4217,,,,,,,,,,,,,,,,,,,,,,60fdd48b2407045088f348b4,610371e183734d6ba413c992,2021-07-30_00h01.52.146,Simcolourproject_2stim_asymm_v5,2020.2.10,Win32,60,61025ae37ef11b136ea224fe,,,,,,,,,4185,-22,-33,1,0,0,response5disk,,3,5,9,1,0,0,rectangle,5,9,1,0,0,5,9,1,0,0,1,89,249,124,1,,,,,,,,
,,,,,,,,,,,,,FF,,,,,,,,1.2287,,,,,,,,,,,,,,,,,,,,,,60fdd48b2407045088f348b4,610371e183734d6ba413c992,2021-07-30_00h01.52.146,Simcolourproject_2stim_asymm_v5,2020.2.10,Win32,60,61025ae37ef11b136ea224fe,,,,,,,,,3537,27,43,1,0,0,response1disk,,7,-4,1,1,0,0,rectangle,-4,1,1,0,0,-4,1,1,0,0,1,90,250,29,1,,,,,,,,
,,,,,,,,,,,,,FF,,,,,,,,0.9231,,,,,,,,,,,,,,,,,,,,,,60fdd48b2407045088f348b4,610371e183734d6ba413c992,2021-07-30_00h01.52.146,Simcolourproject_2stim_asymm_v5,2020.2.10,Win32,60,61025ae37ef11b136ea224fe,,,,,,,,,1635,23,44,1,0,0,response1disk,,7,1,11,1,0,0,rectangle,1,11,1,0,0,1,11,1,0,0,1,91,251,93,1,,,,,,,,
,,,,,,,,,,,,,FF,,,,,,,,1.621,,,,,,,,,,,,,,,,,,,,,,60fdd48b2407045088f348b4,610371e183734d6ba413c992,2021-07-30_00h01.52.146,Simcolourproject_2stim_asymm_v5,2020.2.10,Win32,60,61025ae37ef11b136ea224fe,,,,,,,,,1008,38,28,1,0,0,response1disk,,6,3,9,1,0,0,rectangle,3,9,1,0,0,3,9,1,0,0,1,92,252,55,1,,,,,,,,
,,,,,,,,,,,,,FF,,,,,,,,1.071,,,,,,,,,,,,,,,,,,,,,,60fdd48b2407045088f348b4,610371e183734d6ba413c992,2021-07-30_00h01.52.146,Simcolourproject_2stim_asymm_v5,2020.2.10,Win32,60,61025ae37ef11b136ea224fe,,,,,,,,,671,37,28,1,0,0,response1disk,,6,-1,0,1,0,0,rectangle,-1,0,1,0,0,-1,0,1,0,0,1,93,253,24,1,,,,,,,,
,,,,,,,,,,,,,FF,,,,,,,,0.7967,,,,,,,,,,,,,,,,,,,,,,60fdd48b2407045088f348b4,610371e183734d6ba413c992,2021-07-30_00h01.52.146,Simcolourproject_2stim_asymm_v5,2020.2.10,Win32,60,61025ae37ef11b136ea224fe,,,,,,,,,4139,24,40,1,0,0,response1disk,,7,-4,5,1,0,0,rectangle,-4,5,1,0,0,-4,5,1,0,0,1,94,254,63,1,,,,,,,,
,,,,,,,,,,,,,FF,,,,,,,,1.4026,,,,,,,,,,,,,,,,,,,,,,60fdd48b2407045088f348b4,610371e183734d6ba413c992,2021-07-30_00h01.52.146,Simcolourproject_2stim_asymm_v5,2020.2.10,Win32,60,61025ae37ef11b136ea224fe,,,,,,,,,488,36,23,1,0,0,response1disk,,6,2,6,1,0,0,rectangle,2,6,1,0,0,2,6,1,0,0,1,95,255,20,1,,,,,,,,
,,,,,,,,,,,,,FF,,,,,,,,0.825,,,,,,,,,,,,,,,,,,,,,,60fdd48b2407045088f348b4,610371e183734d6ba413c992,2021-07-30_00h01.52.146,Simcolourproject_2stim_asymm_v5,2020.2.10,Win32,60,61025ae37ef11b136ea224fe,,,,,,,,,2700,21,46,1,0,0,response1disk,,7,-1,2,1,0,0,rectangle,-1,2,1,0,0,-1,2,1,0,0,1,96,256,31,1,,,,,,,,
,,,,,,,,,,,,,FF,,,,,,,,0.8926,,,,,,,,,,,,,,,,,,,,,,60fdd48b2407045088f348b4,610371e183734d6ba413c992,2021-07-30_00h01.52.146,Simcolourproject_2stim_asymm_v5,2020.2.10,Win32,60,61025ae37ef11b136ea224fe,,,,,,,,,584,23,39,1,0,0,response1disk,,7,4,7,1,0,0,rectangle,4,7,1,0,0,4,7,1,0,0,1,97,257,22,1,,,,,,,,
,,,,,,,,,,,,,FF,,,,,,,,1.8717,,,,,,,,,,,,,,,,,,,,,,60fdd48b2407045088f348b4,610371e183734d6ba413c992,2021-07-30_00h01.52.146,Simcolourproject_2stim_asymm_v5,2020.2.10,Win32,60,61025ae37ef11b136ea224fe,,,,,,,,,3932,-28,-33,1,0,0,response5disk,,3,5,8,1,0,0,rectangle,5,8,1,0,0,5,8,1,0,0,1,98,258,107,1,,,,,,,,
,,,,,,,,,,,,,FF,,,,,,,,1.5208,,,,,,,,,,,,,,,,,,,,,,60fdd48b2407045088f348b4,610371e183734d6ba413c992,2021-07-30_00h01.52.146,Simcolourproject_2stim_asymm_v5,2020.2.10,Win32,60,61025ae37ef11b136ea224fe,,,,,,,,,756,36,20,1,0,0,response1disk,,6,-1,-1,1,0,0,rectangle,-1,-1,1,0,0,-1,-1,1,0,0,1,99,259,125,1,,,,,,,,
,,,,,,,,,,,,,FF,,,,,,,,2.0207,,,,,,,,,,,,,,,,,,,,,,60fdd48b2407045088f348b4,610371e183734d6ba413c992,2021-07-30_00h01.52.146,Simcolourproject_2stim_asymm_v5,2020.2.10,Win32,60,61025ae37ef11b136ea224fe,,,,,,,,,1837,25,-32,1,0,0,response3disk,,4,3,5,1,0,0,rectangle,3,5,1,0,0,3,5,1,0,0,1,100,260,94,1,,,,,,,,
,,,,,,,,,,,,,FF,,,,,,,,1.2541,,,,,,,,,,,,,,,,,,,,,,60fdd48b2407045088f348b4,610371e183734d6ba413c992,2021-07-30_00h01.52.146,Simcolourproject_2stim_asymm_v5,2020.2.10,Win32,60,61025ae37ef11b136ea224fe,,,,,,,,,1755,-56,-28,1,0,0,response5disk,,2,3,9,1,0,0,rectangle,3,9,1,0,0,3,9,1,0,0,1,101,261,26,1,,,,,,,,
,,,,,,,,,,,,,FF,,,,,,,,0.9509,,,,,,,,,,,,,,,,,,,,,,60fdd48b2407045088f348b4,610371e183734d6ba413c992,2021-07-30_00h01.52.146,Simcolourproject_2stim_asymm_v5,2020.2.10,Win32,60,61025ae37ef11b136ea224fe,,,,,,,,,2301,-35,-15,1,0,0,response5disk,,2,-10,4,1,0,0,rectangle,-10,4,1,0,0,-10,4,1,0,0,1,102,262,82,1,,,,,,,,
,,,,,,,,,,,,,FF,,,,,,,,0.9773,,,,,,,,,,,,,,,,,,,,,,60fdd48b2407045088f348b4,610371e183734d6ba413c992,2021-07-30_00h01.52.146,Simcolourproject_2stim_asymm_v5,2020.2.10,Win32,60,61025ae37ef11b136ea224fe,,,,,,,,,1431,-49,-29,1,0,0,response5disk,,2,-9,12,1,0,0,rectangle,-9,12,1,0,0,-9,12,1,0,0,1,103,263,13,1,,,,,,,,
,,,,,,,,,,,,,FF,,,,,,,,1.3203,,,,,,,,,,,,,,,,,,,,,,60fdd48b2407045088f348b4,610371e183734d6ba413c992,2021-07-30_00h01.52.146,Simcolourproject_2stim_asymm_v5,2020.2.10,Win32,60,61025ae37ef11b136ea224fe,,,,,,,,,2079,15,-27,1,0,0,response3disk,,4,3,-1,1,0,0,rectangle,3,-1,1,0,0,3,-1,1,0,0,1,104,264,6,1,,,,,,,,
,,,,,,,,,,,,,FF,,,,,,,,1.1981,,,,,,,,,,,,,,,,,,,,,,60fdd48b2407045088f348b4,610371e183734d6ba413c992,2021-07-30_00h01.52.146,Simcolourproject_2stim_asymm_v5,2020.2.10,Win32,60,61025ae37ef11b136ea224fe,,,,,,,,,4344,-33,-15,1,0,0,response5disk,,2,-7,8,1,0,0,rectangle,-7,8,1,0,0,-7,8,1,0,0,1,105,265,78,1,,,,,,,,
,,,,,,,,,,,,,FF,,,,,,,,1.1479,,,,,,,,,,,,,,,,,,,,,,60fdd48b2407045088f348b4,610371e183734d6ba413c992,2021-07-30_00h01.52.146,Simcolourproject_2stim_asymm_v5,2020.2.10,Win32,60,61025ae37ef11b136ea224fe,,,,,,,,,2665,-24,-28,1,0,0,response5disk,,3,-1,15,1,0,0,rectangle,-1,15,1,0,0,-1,15,1,0,0,1,106,266,90,1,,,,,,,,
,,,,,,,,,,,,,FF,,,,,,,,0.9002,,,,,,,,,,,,,,,,,,,,,,60fdd48b2407045088f348b4,610371e183734d6ba413c992,2021-07-30_00h01.52.146,Simcolourproject_2stim_asymm_v5,2020.2.10,Win32,60,61025ae37ef11b136ea224fe,,,,,,,,,2106,-18,-25,1,0,0,response5disk,,3,-7,1,1,0,0,rectangle,-7,1,1,0,0,-7,1,1,0,0,1,107,267,133,1,,,,,,,,
,,,,,,,,,,,,,FF,,,,,,,,0.9023,,,,,,,,,,,,,,,,,,,,,,60fdd48b2407045088f348b4,610371e183734d6ba413c992,2021-07-30_00h01.52.146,Simcolourproject_2stim_asymm_v5,2020.2.10,Win32,60,61025ae37ef11b136ea224fe,,,,,,,,,3214,22,44,1,0,0,response1disk,,7,0,5,1,0,0,rectangle,0,5,1,0,0,0,5,1,0,0,1,108,268,152,1,,,,,,,,
,,,,,,,,,,,,,FF,,,,,,,,1.3988,,,,,,,,,,,,,,,,,,,,,,60fdd48b2407045088f348b4,610371e183734d6ba413c992,2021-07-30_00h01.52.146,Simcolourproject_2stim_asymm_v5,2020.2.10,Win32,60,61025ae37ef11b136ea224fe,,,,,,,,,2048,30,-16,1,0,0,response3disk,,5,7,-2,1,0,0,rectangle,7,-2,1,0,0,7,-2,1,0,0,1,109,269,45,1,,,,,,,,
,,,,,,,,,,,,,FF,,,,,,,,1.2724,,,,,,,,,,,,,,,,,,,,,,60fdd48b2407045088f348b4,610371e183734d6ba413c992,2021-07-30_00h01.52.146,Simcolourproject_2stim_asymm_v5,2020.2.10,Win32,60,61025ae37ef11b136ea224fe,,,,,,,,,2993,-35,-18,1,0,0,response5disk,,2,-14,-6,1,0,0,rectangle,-14,-6,1,0,0,-14,-6,1,0,0,1,110,270,35,1,,,,,,,,
,,,,,,,,,,,,,FF,,,,,,,,1.122,,,,,,,,,,,,,,,,,,,,,,60fdd48b2407045088f348b4,610371e183734d6ba413c992,2021-07-30_00h01.52.146,Simcolourproject_2stim_asymm_v5,2020.2.10,Win32,60,61025ae37ef11b136ea224fe,,,,,,,,,2769,-20,-31,1,0,0,response5disk,,3,-5,3,1,0,0,rectangle,-5,3,1,0,0,-5,3,1,0,0,1,111,271,7,1,,,,,,,,
,,,,,,,,,,,,,FF,,,,,,,,1.3474,,,,,,,,,,,,,,,,,,,,,,60fdd48b2407045088f348b4,610371e183734d6ba413c992,2021-07-30_00h01.52.146,Simcolourproject_2stim_asymm_v5,2020.2.10,Win32,60,61025ae37ef11b136ea224fe,,,,,,,,,1514,29,-18,1,0,0,response3disk,,5,2,6,1,0,0,rectangle,57,37,1,0,0,11,7,1,0,0,1,112,272,136,1,,response1disk_3,TRUE,6,6,"[92,5,87,295,160,273,169,201,93,220,214,309,125,184,51,221,236,21,118,220]",1.6449,rectangle
,,,,,,,,,,,,,FF,,,,,,,,1.4477,,,,,,,,,,,,,,,,,,,,,,60fdd48b2407045088f348b4,610371e183734d6ba413c992,2021-07-30_00h01.52.146,Simcolourproject_2stim_asymm_v5,2020.2.10,Win32,60,61025ae37ef11b136ea224fe,,,,,,,,,3568,38,29,1,0,0,response1disk,,6,2,3,1,0,0,rectangle,2,3,1,0,0,2,3,1,0,0,1,113,273,113,1,,,,,,,,
,,,,,,,,,,,,,FF,,,,,,,,1.1482,,,,,,,,,,,,,,,,,,,,,,60fdd48b2407045088f348b4,610371e183734d6ba413c992,2021-07-30_00h01.52.146,Simcolourproject_2stim_asymm_v5,2020.2.10,Win32,60,61025ae37ef11b136ea224fe,,,,,,,,,2375,40,24,1,0,0,response1disk,,6,12,5,1,0,0,rectangle,12,5,1,0,0,12,5,1,0,0,1,114,274,122,1,,,,,,,,
,,,,,,,,,,,,,FF,,,,,,,,1.1475,,,,,,,,,,,,,,,,,,,,,,60fdd48b2407045088f348b4,610371e183734d6ba413c992,2021-07-30_00h01.52.146,Simcolourproject_2stim_asymm_v5,2020.2.10,Win32,60,61025ae37ef11b136ea224fe,,,,,,,,,2105,-47,-30,1,0,0,response5disk,,2,-14,-3,1,0,0,rectangle,-14,-3,1,0,0,-14,-3,1,0,0,1,115,275,59,1,,,,,,,,
,,,,,,,,,,,,,FF,,,,,,,,2.2262,,,,,,,,,,,,,,,,,,,,,,60fdd48b2407045088f348b4,610371e183734d6ba413c992,2021-07-30_00h01.52.146,Simcolourproject_2stim_asymm_v5,2020.2.10,Win32,60,61025ae37ef11b136ea224fe,,,,,,,,,2573,28,41,1,0,0,response1disk,,7,0,0,1,0,0,rectangle,0,0,1,0,0,0,0,1,0,0,1,116,276,150,1,,,,,,,,
,,,,,,,,,,,,,FF,,,,,,,,1.2984,,,,,,,,,,,,,,,,,,,,,,60fdd48b2407045088f348b4,610371e183734d6ba413c992,2021-07-30_00h01.52.146,Simcolourproject_2stim_asymm_v5,2020.2.10,Win32,60,61025ae37ef11b136ea224fe,,,,,,,,,3759,22,50,1,0,0,response1disk,,7,3,12,1,0,0,rectangle,3,12,1,0,0,3,12,1,0,0,1,117,277,88,1,,,,,,,,
,,,,,,,,,,,,,FF,,,,,,,,1.7707,,,,,,,,,,,,,,,,,,,,,,60fdd48b2407045088f348b4,610371e183734d6ba413c992,2021-07-30_00h01.52.146,Simcolourproject_2stim_asymm_v5,2020.2.10,Win32,60,61025ae37ef11b136ea224fe,,,,,,,,,3430,23,-31,1,0,0,response3disk,,4,3,1,1,0,0,rectangle,3,1,1,0,0,3,1,1,0,0,1,118,278,9,1,,,,,,,,
,,,,,,,,,,,,,FF,,,,,,,,0.9503,,,,,,,,,,,,,,,,,,,,,,60fdd48b2407045088f348b4,610371e183734d6ba413c992,2021-07-30_00h01.52.146,Simcolourproject_2stim_asymm_v5,2020.2.10,Win32,60,61025ae37ef11b136ea224fe,,,,,,,,,1722,15,30,1,0,0,response1disk,,7,5,8,1,0,0,rectangle,5,8,1,0,0,5,8,1,0,0,1,119,279,118,1,,,,,,,,
,,,,,,,,,,,,,FF,,,,,,,,2.3956,,,,,,,,,,,,,,,,,,,,,,60fdd48b2407045088f348b4,610371e183734d6ba413c992,2021-07-30_00h01.52.146,Simcolourproject_2stim_asymm_v5,2020.2.10,Win32,60,61025ae37ef11b136ea224fe,,,,,,,,,2846,23,-30,1,0,0,response3disk,,4,8,-1,1,0,0,rectangle,8,-1,1,0,0,8,-1,1,0,0,1,120,280,128,1,,,,,,,,
,,,,,,,,,,,,,FF,,,,,,,,1.4977,,,,,,,,,,,,,,,,,,,,,,60fdd48b2407045088f348b4,610371e183734d6ba413c992,2021-07-30_00h01.52.146,Simcolourproject_2stim_asymm_v5,2020.2.10,Win32,60,61025ae37ef11b136ea224fe,,,,,,,,,4157,17,-25,1,0,0,response3disk,,4,-3,4,1,0,0,rectangle,-3,4,1,0,0,-3,4,1,0,0,1,121,281,49,1,,,,,,,,
,,,,,,,,,,,,,FF,,,,,,,,1.9704,,,,,,,,,,,,,,,,,,,,,,60fdd48b2407045088f348b4,610371e183734d6ba413c992,2021-07-30_00h01.52.146,Simcolourproject_2stim_asymm_v5,2020.2.10,Win32,60,61025ae37ef11b136ea224fe,,,,,,,,,1823,-50,-30,1,0,0,response5disk,,2,1,-2,1,0,0,rectangle,1,-2,1,0,0,1,-2,1,0,0,1,122,282,75,1,,,,,,,,
,,,,,,,,,,,,,FF,,,,,,,,1.123,,,,,,,,,,,,,,,,,,,,,,60fdd48b2407045088f348b4,610371e183734d6ba413c992,2021-07-30_00h01.52.146,Simcolourproject_2stim_asymm_v5,2020.2.10,Win32,60,61025ae37ef11b136ea224fe,,,,,,,,,519,-40,-25,1,0,0,response5disk,,2,-6,9,1,0,0,rectangle,-6,9,1,0,0,-6,9,1,0,0,1,123,283,110,1,,,,,,,,
,,,,,,,,,,,,,FF,,,,,,,,1.9686,,,,,,,,,,,,,,,,,,,,,,60fdd48b2407045088f348b4,610371e183734d6ba413c992,2021-07-30_00h01.52.146,Simcolourproject_2stim_asymm_v5,2020.2.10,Win32,60,61025ae37ef11b136ea224fe,,,,,,,,,283,21,-37,1,0,0,response3disk,,4,3,4,1,0,0,rectangle,3,4,1,0,0,3,4,1,0,0,1,124,284,68,1,,,,,,,,
,,,,,,,,,,,,,FF,,,,,,,,1.217,,,,,,,,,,,,,,,,,,,,,,60fdd48b2407045088f348b4,610371e183734d6ba413c992,2021-07-30_00h01.52.146,Simcolourproject_2stim_asymm_v5,2020.2.10,Win32,60,61025ae37ef11b136ea224fe,,,,,,,,,4053,-25,-30,1,0,0,response5disk,,3,-4,6,1,0,0,rectangle,-4,6,1,0,0,-4,6,1,0,0,1,125,285,3,1,,,,,,,,
,,,,,,,,,,,,,FF,,,,,,,,1.0237,,,,,,,,,,,,,,,,,,,,,,60fdd48b2407045088f348b4,610371e183734d6ba413c992,2021-07-30_00h01.52.146,Simcolourproject_2stim_asymm_v5,2020.2.10,Win32,60,61025ae37ef11b136ea224fe,,,,,,,,,941,29,39,1,0,0,response1disk,,7,4,2,1,0,0,rectangle,4,2,1,0,0,4,2,1,0,0,1,126,286,19,1,,,,,,,,
,,,,,,,,,,,,,FF,,,,,,,,0.9472,,,,,,,,,,,,,,,,,,,,,,60fdd48b2407045088f348b4,610371e183734d6ba413c992,2021-07-30_00h01.52.146,Simcolourproject_2stim_asymm_v5,2020.2.10,Win32,60,61025ae37ef11b136ea224fe,,,,,,,,,774,22,31,1,0,0,response1disk,,7,5,6,1,0,0,rectangle,5,6,1,0,0,5,6,1,0,0,1,127,287,51,1,,,,,,,,
,,,,,,,,,,,,,FF,,,,,,,,0.8726,,,,,,,,,,,,,,,,,,,,,,60fdd48b2407045088f348b4,610371e183734d6ba413c992,2021-07-30_00h01.52.146,Simcolourproject_2stim_asymm_v5,2020.2.10,Win32,60,61025ae37ef11b136ea224fe,,,,,,,,,1332,31,54,1,0,0,response1disk,,7,-8,-3,1,0,0,rectangle,-8,-3,1,0,0,-8,-3,1,0,0,1,128,288,16,1,,,,,,,,
,,,,,,,,,,,,,FF,,,,,,,,0.7799,,,,,,,,,,,,,,,,,,,,,,60fdd48b2407045088f348b4,610371e183734d6ba413c992,2021-07-30_00h01.52.146,Simcolourproject_2stim_asymm_v5,2020.2.10,Win32,60,61025ae37ef11b136ea224fe,,,,,,,,,784,21,38,1,0,0,response1disk,,7,3,10,1,0,0,rectangle,3,10,1,0,0,3,10,1,0,0,1,129,289,102,1,,,,,,,,
,,,,,,,,,,,,,FF,,,,,,,,1.2261,,,,,,,,,,,,,,,,,,,,,,60fdd48b2407045088f348b4,610371e183734d6ba413c992,2021-07-30_00h01.52.146,Simcolourproject_2stim_asymm_v5,2020.2.10,Win32,60,61025ae37ef11b136ea224fe,,,,,,,,,4297,33,17,1,0,0,response1disk,,6,2,5,1,0,0,rectangle,2,5,1,0,0,2,5,1,0,0,1,130,290,17,1,,,,,,,,
,,,,,,,,,,,,,FF,,,,,,,,1.0739,,,,,,,,,,,,,,,,,,,,,,60fdd48b2407045088f348b4,610371e183734d6ba413c992,2021-07-30_00h01.52.146,Simcolourproject_2stim_asymm_v5,2020.2.10,Win32,60,61025ae37ef11b136ea224fe,,,,,,,,,2221,24,57,1,0,0,response1disk,,7,-3,9,1,0,0,rectangle,-3,9,1,0,0,-3,9,1,0,0,1,131,291,83,1,,,,,,,,
,,,,,,,,,,,,,FF,,,,,,,,1.522,,,,,,,,,,,,,,,,,,,,,,60fdd48b2407045088f348b4,610371e183734d6ba413c992,2021-07-30_00h01.52.146,Simcolourproject_2stim_asymm_v5,2020.2.10,Win32,60,61025ae37ef11b136ea224fe,,,,,,,,,4274,28,-17,1,0,0,response3disk,,5,8,-3,1,0,0,rectangle,8,-3,1,0,0,8,-3,1,0,0,1,132,292,114,1,,,,,,,,
,,,,,,,,,,,,,FF,,,,,,,,1.2733,,,,,,,,,,,,,,,,,,,,,,60fdd48b2407045088f348b4,610371e183734d6ba413c992,2021-07-30_00h01.52.146,Simcolourproject_2stim_asymm_v5,2020.2.10,Win32,60,61025ae37ef11b136ea224fe,,,,,,,,,1374,-38,-24,1,0,0,response5disk,,2,-15,-8,1,0,0,rectangle,-15,-8,1,0,0,-15,-8,1,0,0,1,133,293,158,1,,,,,,,,
,,,,,,,,,,,,,FF,,,,,,,,0.998,,,,,,,,,,,,,,,,,,,,,,60fdd48b2407045088f348b4,610371e183734d6ba413c992,2021-07-30_00h01.52.146,Simcolourproject_2stim_asymm_v5,2020.2.10,Win32,60,61025ae37ef11b136ea224fe,,,,,,,,,2487,-24,-31,1,0,0,response5disk,,3,-4,13,1,0,0,rectangle,-19,57,1,0,0,-11,6,1,0,0,1,134,294,10,1,,response7disk_3,TRUE,0,0,"[92,5,87,295,160,273,169,201,93,220,214,309,125,184,51,221,236,21,118,220]",1.4469,rectangle
,,,,,,,,,,,,,FF,,,,,,,,1.0986,,,,,,,,,,,,,,,,,,,,,,60fdd48b2407045088f348b4,610371e183734d6ba413c992,2021-07-30_00h01.52.146,Simcolourproject_2stim_asymm_v5,2020.2.10,Win32,60,61025ae37ef11b136ea224fe,,,,,,,,,4022,-43,18,1,0,0,response7disk,,1,-16,4,1,0,0,rectangle,-16,4,1,0,0,-16,4,1,0,0,1,135,295,123,1,,,,,,,,
,,,,,,,,,,,,,FF,,,,,,,,0.8969,,,,,,,,,,,,,,,,,,,,,,60fdd48b2407045088f348b4,610371e183734d6ba413c992,2021-07-30_00h01.52.146,Simcolourproject_2stim_asymm_v5,2020.2.10,Win32,60,61025ae37ef11b136ea224fe,,,,,,,,,4160,32,59,1,0,0,response1disk,,7,-5,3,1,0,0,rectangle,-5,3,1,0,0,-5,3,1,0,0,1,136,296,52,1,,,,,,,,
,,,,,,,,,,,,,FF,,,,,,,,0.8342,,,,,,,,,,,,,,,,,,,,,,60fdd48b2407045088f348b4,610371e183734d6ba413c992,2021-07-30_00h01.52.146,Simcolourproject_2stim_asymm_v5,2020.2.10,Win32,60,61025ae37ef11b136ea224fe,,,,,,,,,3405,22,44,1,0,0,response1disk,,7,5,11,1,0,0,rectangle,5,11,1,0,0,5,11,1,0,0,1,137,297,159,1,,,,,,,,
,,,,,,,,,,,,,FF,,,,,,,,1.1227,,,,,,,,,,,,,,,,,,,,,,60fdd48b2407045088f348b4,610371e183734d6ba413c992,2021-07-30_00h01.52.146,Simcolourproject_2stim_asymm_v5,2020.2.10,Win32,60,61025ae37ef11b136ea224fe,,,,,,,,,3476,-48,-30,1,0,0,response5disk,,2,-3,13,1,0,0,rectangle,-3,13,1,0,0,-3,13,1,0,0,1,138,298,57,1,,,,,,,,
,,,,,,,,,,,,,FF,,,,,,,,1.4435,,,,,,,,,,,,,,,,,,,,,,60fdd48b2407045088f348b4,610371e183734d6ba413c992,2021-07-30_00h01.52.146,Simcolourproject_2stim_asymm_v5,2020.2.10,Win32,60,61025ae37ef11b136ea224fe,,,,,,,,,2248,39,27,1,0,0,response1disk,,6,3,-2,1,0,0,rectangle,3,-2,1,0,0,3,-2,1,0,0,1,139,299,36,1,,,,,,,,
,,,,,,,,,,,,,FF,,,,,,,,0.9732,,,,,,,,,,,,,,,,,,,,,,60fdd48b2407045088f348b4,610371e183734d6ba413c992,2021-07-30_00h01.52.146,Simcolourproject_2stim_asymm_v5,2020.2.10,Win32,60,61025ae37ef11b136ea224fe,,,,,,,,,1299,-41,-19,1,0,0,response5disk,,2,-10,7,1,0,0,rectangle,-10,7,1,0,0,-10,7,1,0,0,1,140,300,120,1,,,,,,,,
,,,,,,,,,,,,,FF,,,,,,,,1.4967,,,,,,,,,,,,,,,,,,,,,,60fdd48b2407045088f348b4,610371e183734d6ba413c992,2021-07-30_00h01.52.146,Simcolourproject_2stim_asymm_v5,2020.2.10,Win32,60,61025ae37ef11b136ea224fe,,,,,,,,,1775,37,-20,1,0,0,response3disk,,5,13,-6,1,0,0,rectangle,13,-6,1,0,0,13,-6,1,0,0,1,141,301,28,1,,,,,,,,
,,,,,,,,,,,,,FF,,,,,,,,0.9034,,,,,,,,,,,,,,,,,,,,,,60fdd48b2407045088f348b4,610371e183734d6ba413c992,2021-07-30_00h01.52.146,Simcolourproject_2stim_asymm_v5,2020.2.10,Win32,60,61025ae37ef11b136ea224fe,,,,,,,,,1102,19,25,1,0,0,response1disk,,7,12,11,1,0,0,rectangle,12,11,1,0,0,12,11,1,0,0,1,142,302,67,1,,,,,,,,
,,,,,,,,,,,,,FF,,,,,,,,1.4769,,,,,,,,,,,,,,,,,,,,,,60fdd48b2407045088f348b4,610371e183734d6ba413c992,2021-07-30_00h01.52.146,Simcolourproject_2stim_asymm_v5,2020.2.10,Win32,60,61025ae37ef11b136ea224fe,,,,,,,,,3969,-19,-43,1,0,0,response5disk,,3,-2,2,1,0,0,rectangle,-2,2,1,0,0,-2,2,1,0,0,1,143,303,70,1,,,,,,,,
