key_resp.keys,key_resp.rt,key_resp_14.keys,key_resp_14.rt,key_resp_15.keys,key_resp_15.rt,key_resp_17.keys,key_resp_17.rt,key_resp_9.keys,key_resp_9.rt,key_resp_10.keys,key_resp_10.rt,practice_comparison,Ecc,mouse_5.x,mouse_5.y,mouse_5.leftButton,mouse_5.midButton,mouse_5.rightButton,mouse_5.clicked_name,pracsimilarity,response_time,mouse_10.x,mouse_10.y,mouse_10.leftButton,mouse_10.midButton,mouse_10.rightButton,mouse_10.clicked_name,mouse_7.x,mouse_7.y,mouse_7.leftButton,mouse_7.midButton,mouse_7.rightButton,mouse_6.x,mouse_6.y,mouse_6.leftButton,mouse_6.midButton,mouse_6.rightButton,duringprac.thisRepN,duringprac.thisTrialN,duringprac.thisN,duringprac.thisIndex,duringprac.ran,participant,session,date,expName,psychopyVersion,OS,frameRate,study_id,mouse_7.clicked_name,catchpracsimilarity,catch_response_time,catchnumberprac,catchtrialorderprac,mouse_6.clicked_name,key_resp_22.keys,key_resp_22.rt,realcomparison,mouse.x,mouse.y,mouse.leftButton,mouse.midButton,mouse.rightButton,mouse.clicked_name,Colour2,similarity,mouse_2.x,mouse_2.y,mouse_2.leftButton,mouse_2.midButton,mouse_2.rightButton,mouse_2.clicked_name,mouse_3.x,mouse_3.y,mouse_3.leftButton,mouse_3.midButton,mouse_3.rightButton,mouse_3.clicked_name,catchornah,catchsimilarity,catchnumber,catchtrialorder,catchRT,mouse_11.x,mouse_11.y,mouse_11.leftButton,mouse_11.midButton,mouse_11.rightButton,mouse_11.clicked_name,trials_2.thisRepN,trials_2.thisTrialN,trials_2.thisN,trials_2.thisIndex,trials_2.ran,Colour1
space,1.9991,space,24.2498,space,32.0839,space,9.4824,space,5.1549,space,4.1733,67,PF,58,33.5,1,0,0,response1disk_5,6,13.5457,-12,-1,1,0,0,rectangle_8,-12,-1,1,0,0,-12,-1,1,0,0,0,0,0,1,1,60fd82694f2472bc8efe5f20,61036de82fb01a04f2fa7b2d,2021-07-29_23h12.43.177,Simcolourproject_2stim_asymm_v5,2020.2.10,Win32,60,61025ae37ef11b136ea224fe,,,,,,,,,,,,,,,,,,,,,,,,,,,,,,,,,,,,,,,,,,,,,,
,,,,,,,,,,,,126,PF,-38,-45,1,0,0,response5disk_5,3,2.4858,-0.5,1,1,0,0,rectangle_8,-32,-71.5,1,0,0,-0.5,2,1,0,0,0,1,1,2,1,60fd82694f2472bc8efe5f20,61036de82fb01a04f2fa7b2d,2021-07-29_23h12.43.177,Simcolourproject_2stim_asymm_v5,2020.2.10,Win32,60,61025ae37ef11b136ea224fe,response5disk_7,3,3.9054,3,"[2,5]",rectangle_4,,,,,,,,,,,,,,,,,,,,,,,,,,,,,,,,,,,,,,,,
,,,,,,,,,,,,156,FF,-48.5,-58.5,1,0,0,response5disk_5,3,3.6527,-8.5,-8,1,0,0,rectangle_8,-8.5,-8,1,0,0,-8.5,-8,1,0,0,0,2,2,5,1,60fd82694f2472bc8efe5f20,61036de82fb01a04f2fa7b2d,2021-07-29_23h12.43.177,Simcolourproject_2stim_asymm_v5,2020.2.10,Win32,60,61025ae37ef11b136ea224fe,,,,,,,,,,,,,,,,,,,,,,,,,,,,,,,,,,,,,,,,,,,,,,
,,,,,,,,,,,,44,PF,64.5,32.5,1,0,0,response1disk_5,6,1.7847,-4.5,-1.5,1,0,0,rectangle_8,-4.5,-1.5,1,0,0,-4.5,-1.5,1,0,0,0,3,3,4,1,60fd82694f2472bc8efe5f20,61036de82fb01a04f2fa7b2d,2021-07-29_23h12.43.177,Simcolourproject_2stim_asymm_v5,2020.2.10,Win32,60,61025ae37ef11b136ea224fe,,,,,,,,,,,,,,,,,,,,,,,,,,,,,,,,,,,,,,,,,,,,,,
,,,,,,,,,,,,69,FF,33,-45,1,0,0,response3disk_5,4,2.9857,21,8,1,0,0,rectangle_8,-24,-52.5,1,0,0,-5.5,-6.5,1,0,0,0,4,4,0,1,60fd82694f2472bc8efe5f20,61036de82fb01a04f2fa7b2d,2021-07-29_23h12.43.177,Simcolourproject_2stim_asymm_v5,2020.2.10,Win32,60,61025ae37ef11b136ea224fe,response5disk_7,3,1.9007,3,"[2,5]",rectangle_4,,,,,,,,,,,,,,,,,,,,,,,,,,,,,,,,,,,,,,,,
,,,,,,,,,,,,110,FF,-42,-58.5,1,0,0,response5disk_5,3,2.0018,-2,0,1,0,0,rectangle_8,-2,0,1,0,0,-2,0,1,0,0,0,5,5,3,1,60fd82694f2472bc8efe5f20,61036de82fb01a04f2fa7b2d,2021-07-29_23h12.43.177,Simcolourproject_2stim_asymm_v5,2020.2.10,Win32,60,61025ae37ef11b136ea224fe,,,,,,,,,,,,,,,,,,,,,,,,,,,,,,,,,,,,,,,,,,,,,,
,,,,,,,,,,,,113,PF,-70,-35.5,1,0,0,response5disk_5,2,1.0682,-2.5,-2,1,0,0,rectangle_8,-2.5,-2,1,0,0,-2.5,-2,1,0,0,0,6,6,6,1,60fd82694f2472bc8efe5f20,61036de82fb01a04f2fa7b2d,2021-07-29_23h12.43.177,Simcolourproject_2stim_asymm_v5,2020.2.10,Win32,60,61025ae37ef11b136ea224fe,,,,,,,,,,,,,,,,,,,,,,,,,,,,,,,,,,,,,,,,,,,,,,
,,,,,,,,,,,,,FF,,,,,,,,1.702,,,,,,,,,,,,,,,,,,,,,,60fd82694f2472bc8efe5f20,61036de82fb01a04f2fa7b2d,2021-07-29_23h12.43.177,Simcolourproject_2stim_asymm_v5,2020.2.10,Win32,60,61025ae37ef11b136ea224fe,,,,,,,space,3.282,4117,42.5,33.5,1,0,0,response1disk,,6,-6.5,-11,1,0,0,rectangle,22.5,58.5,1,0,0,response1disk_3,TRUE,7,7,"[298,103,142,201,251,1,166,5,288,176,167,5,177,93,320,56,194,17,193,120]",2.9042,-8,2.5,1,0,0,rectangle,0,0,0,22,1,
,,,,,,,,,,,,,FF,,,,,,,,7.0391,,,,,,,,,,,,,,,,,,,,,,60fd82694f2472bc8efe5f20,61036de82fb01a04f2fa7b2d,2021-07-29_23h12.43.177,Simcolourproject_2stim_asymm_v5,2020.2.10,Win32,60,61025ae37ef11b136ea224fe,,,,,,,,,1400,31.5,70.5,1,0,0,response1disk,,7,-2.5,-4.5,1,0,0,rectangle,-2.5,-4.5,1,0,0,,,,,,,-2.5,-4.5,1,0,0,,0,1,1,124,1,
,,,,,,,,,,,,,FF,,,,,,,,1.4843,,,,,,,,,,,,,,,,,,,,,,60fd82694f2472bc8efe5f20,61036de82fb01a04f2fa7b2d,2021-07-29_23h12.43.177,Simcolourproject_2stim_asymm_v5,2020.2.10,Win32,60,61025ae37ef11b136ea224fe,,,,,,,,,363,50.5,33,1,0,0,response1disk,,6,-9,-8,1,0,0,rectangle,-9,-8,1,0,0,,,,,,,-9,-8,1,0,0,,0,2,2,128,1,
,,,,,,,,,,,,,FF,,,,,,,,1.0842,,,,,,,,,,,,,,,,,,,,,,60fd82694f2472bc8efe5f20,61036de82fb01a04f2fa7b2d,2021-07-29_23h12.43.177,Simcolourproject_2stim_asymm_v5,2020.2.10,Win32,60,61025ae37ef11b136ea224fe,,,,,,,,,4045,38,93,1,0,0,response1disk,,7,-5,-3.5,1,0,0,rectangle,-5,-3.5,1,0,0,,,,,,,-5,-3.5,1,0,0,,0,3,3,23,1,
,,,,,,,,,,,,,FF,,,,,,,,1.9514,,,,,,,,,,,,,,,,,,,,,,60fd82694f2472bc8efe5f20,61036de82fb01a04f2fa7b2d,2021-07-29_23h12.43.177,Simcolourproject_2stim_asymm_v5,2020.2.10,Win32,60,61025ae37ef11b136ea224fe,,,,,,,,,4022,-53,-30.5,1,0,0,response5disk,,2,-10.5,3,1,0,0,rectangle,69,-47.5,1,0,0,response3disk_3,TRUE,5,5,"[298,103,142,201,251,1,166,5,288,176,167,5,177,93,320,56,194,17,193,120]",1.8676,10.5,-4.5,1,0,0,rectangle,0,4,4,32,1,
,,,,,,,,,,,,,FF,,,,,,,,2.4524,,,,,,,,,,,,,,,,,,,,,,60fd82694f2472bc8efe5f20,61036de82fb01a04f2fa7b2d,2021-07-29_23h12.43.177,Simcolourproject_2stim_asymm_v5,2020.2.10,Win32,60,61025ae37ef11b136ea224fe,,,,,,,,,2256,46,57.5,1,0,0,response1disk,,7,-6,-1,1,0,0,rectangle,-6,-1,1,0,0,,,,,,,-6,-1,1,0,0,,0,5,5,136,1,
,,,,,,,,,,,,,FF,,,,,,,,3.5192,,,,,,,,,,,,,,,,,,,,,,60fd82694f2472bc8efe5f20,61036de82fb01a04f2fa7b2d,2021-07-29_23h12.43.177,Simcolourproject_2stim_asymm_v5,2020.2.10,Win32,60,61025ae37ef11b136ea224fe,,,,,,,,,3115,-29,-43,1,0,0,response5disk,,3,0.5,-2.5,1,0,0,rectangle,0.5,-2.5,1,0,0,,,,,,,0.5,-2.5,1,0,0,,0,6,6,9,1,
,,,,,,,,,,,,,FF,,,,,,,,1.1013,,,,,,,,,,,,,,,,,,,,,,60fd82694f2472bc8efe5f20,61036de82fb01a04f2fa7b2d,2021-07-29_23h12.43.177,Simcolourproject_2stim_asymm_v5,2020.2.10,Win32,60,61025ae37ef11b136ea224fe,,,,,,,,,884,19.5,63,1,0,0,response1disk,,7,-2.5,-4,1,0,0,rectangle,-2.5,-4,1,0,0,,,,,,,-2.5,-4,1,0,0,,0,7,7,112,1,
,,,,,,,,,,,,,FF,,,,,,,,1.4125,,,,,,,,,,,,,,,,,,,,,,60fd82694f2472bc8efe5f20,61036de82fb01a04f2fa7b2d,2021-07-29_23h12.43.177,Simcolourproject_2stim_asymm_v5,2020.2.10,Win32,60,61025ae37ef11b136ea224fe,,,,,,,,,1547,56.5,28.5,1,0,0,response1disk,,6,-1.5,11,1,0,0,rectangle,-1.5,11,1,0,0,,,,,,,-1.5,11,1,0,0,,0,8,8,148,1,
,,,,,,,,,,,,,FF,,,,,,,,1.9685,,,,,,,,,,,,,,,,,,,,,,60fd82694f2472bc8efe5f20,61036de82fb01a04f2fa7b2d,2021-07-29_23h12.43.177,Simcolourproject_2stim_asymm_v5,2020.2.10,Win32,60,61025ae37ef11b136ea224fe,,,,,,,,,3978,-30,-39.5,1,0,0,response5disk,,3,-1.5,1.5,1,0,0,rectangle,-1.5,1.5,1,0,0,,,,,,,-1.5,1.5,1,0,0,,0,9,9,82,1,
,,,,,,,,,,,,,FF,,,,,,,,2.7524,,,,,,,,,,,,,,,,,,,,,,60fd82694f2472bc8efe5f20,61036de82fb01a04f2fa7b2d,2021-07-29_23h12.43.177,Simcolourproject_2stim_asymm_v5,2020.2.10,Win32,60,61025ae37ef11b136ea224fe,,,,,,,,,3725,79.5,24.5,1,0,0,response1disk,,6,19,-0.5,1,0,0,rectangle,19,-0.5,1,0,0,,,,,,,19,-0.5,1,0,0,,0,10,10,35,1,
,,,,,,,,,,,,,FF,,,,,,,,1.5184,,,,,,,,,,,,,,,,,,,,,,60fd82694f2472bc8efe5f20,61036de82fb01a04f2fa7b2d,2021-07-29_23h12.43.177,Simcolourproject_2stim_asymm_v5,2020.2.10,Win32,60,61025ae37ef11b136ea224fe,,,,,,,,,80,-59,-38.5,1,0,0,response5disk,,2,0,-0.5,1,0,0,rectangle,0,-0.5,1,0,0,,,,,,,0,-0.5,1,0,0,,0,11,11,99,1,
,,,,,,,,,,,,,FF,,,,,,,,0.9845,,,,,,,,,,,,,,,,,,,,,,60fd82694f2472bc8efe5f20,61036de82fb01a04f2fa7b2d,2021-07-29_23h12.43.177,Simcolourproject_2stim_asymm_v5,2020.2.10,Win32,60,61025ae37ef11b136ea224fe,,,,,,,,,2987,-53.5,-35,1,0,0,response5disk,,2,9.5,-5.5,1,0,0,rectangle,9.5,-5.5,1,0,0,,,,,,,9.5,-5.5,1,0,0,,0,12,12,113,1,
,,,,,,,,,,,,,FF,,,,,,,,6.6034,,,,,,,,,,,,,,,,,,,,,,60fd82694f2472bc8efe5f20,61036de82fb01a04f2fa7b2d,2021-07-29_23h12.43.177,Simcolourproject_2stim_asymm_v5,2020.2.10,Win32,60,61025ae37ef11b136ea224fe,,,,,,,,,3386,-73.5,-44,1,0,0,response5disk,,2,21.5,-0.5,1,0,0,rectangle,21.5,-0.5,1,0,0,,,,,,,21.5,-0.5,1,0,0,,0,13,13,103,1,
,,,,,,,,,,,,,FF,,,,,,,,0.716,,,,,,,,,,,,,,,,,,,,,,60fd82694f2472bc8efe5f20,61036de82fb01a04f2fa7b2d,2021-07-29_23h12.43.177,Simcolourproject_2stim_asymm_v5,2020.2.10,Win32,60,61025ae37ef11b136ea224fe,,,,,,,,,3946,-88.5,-45.5,1,0,0,response5disk,,2,1.5,3,1,0,0,rectangle,1.5,3,1,0,0,,,,,,,1.5,3,1,0,0,,0,14,14,14,1,
,,,,,,,,,,,,,FF,,,,,,,,4.5853,,,,,,,,,,,,,,,,,,,,,,60fd82694f2472bc8efe5f20,61036de82fb01a04f2fa7b2d,2021-07-29_23h12.43.177,Simcolourproject_2stim_asymm_v5,2020.2.10,Win32,60,61025ae37ef11b136ea224fe,,,,,,,,,411,-43.5,-102,1,0,0,response5disk,,3,0.5,-12,1,0,0,rectangle,0.5,-12,1,0,0,,,,,,,0.5,-12,1,0,0,,0,15,15,8,1,
,,,,,,,,,,,,,FF,,,,,,,,1.2844,,,,,,,,,,,,,,,,,,,,,,60fd82694f2472bc8efe5f20,61036de82fb01a04f2fa7b2d,2021-07-29_23h12.43.177,Simcolourproject_2stim_asymm_v5,2020.2.10,Win32,60,61025ae37ef11b136ea224fe,,,,,,,,,783,-37,-80,1,0,0,response5disk,,3,11.5,-4.5,1,0,0,rectangle,88,31.5,1,0,0,response1disk_3,TRUE,6,6,"[298,103,142,201,251,1,166,5,288,176,167,5,177,93,320,56,194,17,193,120]",1.6834,11,5.5,1,0,0,rectangle,0,16,16,0,1,
,,,,,,,,,,,,,FF,,,,,,,,2.9674,,,,,,,,,,,,,,,,,,,,,,60fd82694f2472bc8efe5f20,61036de82fb01a04f2fa7b2d,2021-07-29_23h12.43.177,Simcolourproject_2stim_asymm_v5,2020.2.10,Win32,60,61025ae37ef11b136ea224fe,,,,,,,,,421,88.5,-72.5,1,0,0,response3disk,,5,-3,0.5,1,0,0,rectangle,-3,0.5,1,0,0,,,,,,,-3,0.5,1,0,0,,0,17,17,77,1,
,,,,,,,,,,,,,FF,,,,,,,,0.9883,,,,,,,,,,,,,,,,,,,,,,60fd82694f2472bc8efe5f20,61036de82fb01a04f2fa7b2d,2021-07-29_23h12.43.177,Simcolourproject_2stim_asymm_v5,2020.2.10,Win32,60,61025ae37ef11b136ea224fe,,,,,,,,,1605,-61.5,-35,1,0,0,response5disk,,2,12,-1,1,0,0,rectangle,12,-1,1,0,0,,,,,,,12,-1,1,0,0,,0,18,18,70,1,
,,,,,,,,,,,,,FF,,,,,,,,1.4838,,,,,,,,,,,,,,,,,,,,,,60fd82694f2472bc8efe5f20,61036de82fb01a04f2fa7b2d,2021-07-29_23h12.43.177,Simcolourproject_2stim_asymm_v5,2020.2.10,Win32,60,61025ae37ef11b136ea224fe,,,,,,,,,539,99,33.5,1,0,0,response1disk,,6,2.5,-12.5,1,0,0,rectangle,2.5,-12.5,1,0,0,,,,,,,2.5,-12.5,1,0,0,,0,19,19,28,1,
,,,,,,,,,,,,,FF,,,,,,,,0.8502,,,,,,,,,,,,,,,,,,,,,,60fd82694f2472bc8efe5f20,61036de82fb01a04f2fa7b2d,2021-07-29_23h12.43.177,Simcolourproject_2stim_asymm_v5,2020.2.10,Win32,60,61025ae37ef11b136ea224fe,,,,,,,,,2633,42.5,100,1,0,0,response1disk,,7,7,-3,1,0,0,rectangle,7,-3,1,0,0,,,,,,,7,-3,1,0,0,,0,20,20,40,1,
,,,,,,,,,,,,,FF,,,,,,,,1.1507,,,,,,,,,,,,,,,,,,,,,,60fd82694f2472bc8efe5f20,61036de82fb01a04f2fa7b2d,2021-07-29_23h12.43.177,Simcolourproject_2stim_asymm_v5,2020.2.10,Win32,60,61025ae37ef11b136ea224fe,,,,,,,,,4099,-21,-96.5,1,0,0,response5disk,,3,19,-6,1,0,0,rectangle,19,-6,1,0,0,,,,,,,19,-6,1,0,0,,0,21,21,137,1,
,,,,,,,,,,,,,FF,,,,,,,,1.0008,,,,,,,,,,,,,,,,,,,,,,60fd82694f2472bc8efe5f20,61036de82fb01a04f2fa7b2d,2021-07-29_23h12.43.177,Simcolourproject_2stim_asymm_v5,2020.2.10,Win32,60,61025ae37ef11b136ea224fe,,,,,,,,,2681,83.5,26.5,1,0,0,response1disk,,6,6,-8,1,0,0,rectangle,6,-8,1,0,0,,,,,,,6,-8,1,0,0,,0,22,22,95,1,
,,,,,,,,,,,,,FF,,,,,,,,1.6002,,,,,,,,,,,,,,,,,,,,,,60fd82694f2472bc8efe5f20,61036de82fb01a04f2fa7b2d,2021-07-29_23h12.43.177,Simcolourproject_2stim_asymm_v5,2020.2.10,Win32,60,61025ae37ef11b136ea224fe,,,,,,,,,1883,-30,-84.5,1,0,0,response5disk,,3,0,-0.5,1,0,0,rectangle,0,-0.5,1,0,0,,,,,,,0,-0.5,1,0,0,,0,23,23,93,1,
,,,,,,,,,,,,,FF,,,,,,,,0.8671,,,,,,,,,,,,,,,,,,,,,,60fd82694f2472bc8efe5f20,61036de82fb01a04f2fa7b2d,2021-07-29_23h12.43.177,Simcolourproject_2stim_asymm_v5,2020.2.10,Win32,60,61025ae37ef11b136ea224fe,,,,,,,,,84,40,88.5,1,0,0,response1disk,,7,4.5,-10.5,1,0,0,rectangle,4.5,-10.5,1,0,0,,,,,,,4.5,-10.5,1,0,0,,0,24,24,67,1,
,,,,,,,,,,,,,FF,,,,,,,,0.7162,,,,,,,,,,,,,,,,,,,,,,60fd82694f2472bc8efe5f20,61036de82fb01a04f2fa7b2d,2021-07-29_23h12.43.177,Simcolourproject_2stim_asymm_v5,2020.2.10,Win32,60,61025ae37ef11b136ea224fe,,,,,,,,,226,39,75,1,0,0,response1disk,,7,-2.5,-3,1,0,0,rectangle,-2.5,-3,1,0,0,,,,,,,-2.5,-3,1,0,0,,0,25,25,4,1,
,,,,,,,,,,,,,FF,,,,,,,,1.2677,,,,,,,,,,,,,,,,,,,,,,60fd82694f2472bc8efe5f20,61036de82fb01a04f2fa7b2d,2021-07-29_23h12.43.177,Simcolourproject_2stim_asymm_v5,2020.2.10,Win32,60,61025ae37ef11b136ea224fe,,,,,,,,,1304,-51.5,-71.5,1,0,0,response5disk,,3,3,5.5,1,0,0,rectangle,3,5.5,1,0,0,,,,,,,3,5.5,1,0,0,,0,26,26,134,1,
,,,,,,,,,,,,,FF,,,,,,,,1.1842,,,,,,,,,,,,,,,,,,,,,,60fd82694f2472bc8efe5f20,61036de82fb01a04f2fa7b2d,2021-07-29_23h12.43.177,Simcolourproject_2stim_asymm_v5,2020.2.10,Win32,60,61025ae37ef11b136ea224fe,,,,,,,,,2915,84,42.5,1,0,0,response1disk,,6,9,-4.5,1,0,0,rectangle,9,-4.5,1,0,0,,,,,,,9,-4.5,1,0,0,,0,27,27,26,1,
,,,,,,,,,,,,,FF,,,,,,,,0.8165,,,,,,,,,,,,,,,,,,,,,,60fd82694f2472bc8efe5f20,61036de82fb01a04f2fa7b2d,2021-07-29_23h12.43.177,Simcolourproject_2stim_asymm_v5,2020.2.10,Win32,60,61025ae37ef11b136ea224fe,,,,,,,,,3415,42.5,89.5,1,0,0,response1disk,,7,5,-3,1,0,0,rectangle,5,-3,1,0,0,,,,,,,5,-3,1,0,0,,0,28,28,141,1,
,,,,,,,,,,,,,FF,,,,,,,,1.0672,,,,,,,,,,,,,,,,,,,,,,60fd82694f2472bc8efe5f20,61036de82fb01a04f2fa7b2d,2021-07-29_23h12.43.177,Simcolourproject_2stim_asymm_v5,2020.2.10,Win32,60,61025ae37ef11b136ea224fe,,,,,,,,,560,36.5,-82,1,0,0,response3disk,,4,3,17.5,1,0,0,rectangle,3,17.5,1,0,0,,,,,,,3,17.5,1,0,0,,0,29,29,13,1,
,,,,,,,,,,,,,FF,,,,,,,,1.6175,,,,,,,,,,,,,,,,,,,,,,60fd82694f2472bc8efe5f20,61036de82fb01a04f2fa7b2d,2021-07-29_23h12.43.177,Simcolourproject_2stim_asymm_v5,2020.2.10,Win32,60,61025ae37ef11b136ea224fe,,,,,,,,,2405,85,36.5,1,0,0,response1disk,,6,4.5,-0.5,1,0,0,rectangle,4.5,-0.5,1,0,0,,,,,,,4.5,-0.5,1,0,0,,0,30,30,73,1,
,,,,,,,,,,,,,FF,,,,,,,,1.4015,,,,,,,,,,,,,,,,,,,,,,60fd82694f2472bc8efe5f20,61036de82fb01a04f2fa7b2d,2021-07-29_23h12.43.177,Simcolourproject_2stim_asymm_v5,2020.2.10,Win32,60,61025ae37ef11b136ea224fe,,,,,,,,,2905,-39.5,-104,1,0,0,response5disk,,3,10,-5,1,0,0,rectangle,10,-5,1,0,0,,,,,,,10,-5,1,0,0,,0,31,31,49,1,
,,,,,,,,,,,,,FF,,,,,,,,0.5843,,,,,,,,,,,,,,,,,,,,,,60fd82694f2472bc8efe5f20,61036de82fb01a04f2fa7b2d,2021-07-29_23h12.43.177,Simcolourproject_2stim_asymm_v5,2020.2.10,Win32,60,61025ae37ef11b136ea224fe,,,,,,,,,4265,34,100.5,1,0,0,response1disk,,7,-2,-13,1,0,0,rectangle,-2,-13,1,0,0,,,,,,,-2,-13,1,0,0,,0,32,32,157,1,
,,,,,,,,,,,,,FF,,,,,,,,0.9506,,,,,,,,,,,,,,,,,,,,,,60fd82694f2472bc8efe5f20,61036de82fb01a04f2fa7b2d,2021-07-29_23h12.43.177,Simcolourproject_2stim_asymm_v5,2020.2.10,Win32,60,61025ae37ef11b136ea224fe,,,,,,,,,924,27.5,91.5,1,0,0,response1disk,,7,-10.5,-14.5,1,0,0,rectangle,-10.5,-14.5,1,0,0,,,,,,,-10.5,-14.5,1,0,0,,0,33,33,1,1,
,,,,,,,,,,,,,FF,,,,,,,,1.0501,,,,,,,,,,,,,,,,,,,,,,60fd82694f2472bc8efe5f20,61036de82fb01a04f2fa7b2d,2021-07-29_23h12.43.177,Simcolourproject_2stim_asymm_v5,2020.2.10,Win32,60,61025ae37ef11b136ea224fe,,,,,,,,,4360,-73,-43.5,1,0,0,response5disk,,2,-2,-2.5,1,0,0,rectangle,-2,-2.5,1,0,0,,,,,,,-2,-2.5,1,0,0,,0,34,34,55,1,
,,,,,,,,,,,,,FF,,,,,,,,1.4334,,,,,,,,,,,,,,,,,,,,,,60fd82694f2472bc8efe5f20,61036de82fb01a04f2fa7b2d,2021-07-29_23h12.43.177,Simcolourproject_2stim_asymm_v5,2020.2.10,Win32,60,61025ae37ef11b136ea224fe,,,,,,,,,1534,-26.5,-73.5,1,0,0,response5disk,,3,9,-1.5,1,0,0,rectangle,9,-1.5,1,0,0,,,,,,,9,-1.5,1,0,0,,0,35,35,108,1,
,,,,,,,,,,,,,FF,,,,,,,,0.8835,,,,,,,,,,,,,,,,,,,,,,60fd82694f2472bc8efe5f20,61036de82fb01a04f2fa7b2d,2021-07-29_23h12.43.177,Simcolourproject_2stim_asymm_v5,2020.2.10,Win32,60,61025ae37ef11b136ea224fe,,,,,,,,,1430,-39.5,-89,1,0,0,response5disk,,3,18.5,5,1,0,0,rectangle,18.5,5,1,0,0,,,,,,,18.5,5,1,0,0,,0,36,36,130,1,
,,,,,,,,,,,,,FF,,,,,,,,0.8498,,,,,,,,,,,,,,,,,,,,,,60fd82694f2472bc8efe5f20,61036de82fb01a04f2fa7b2d,2021-07-29_23h12.43.177,Simcolourproject_2stim_asymm_v5,2020.2.10,Win32,60,61025ae37ef11b136ea224fe,,,,,,,,,2271,89.5,37.5,1,0,0,response1disk,,6,1.5,-1.5,1,0,0,rectangle,1.5,-1.5,1,0,0,,,,,,,1.5,-1.5,1,0,0,,0,37,37,80,1,
,,,,,,,,,,,,,FF,,,,,,,,0.7497,,,,,,,,,,,,,,,,,,,,,,60fd82694f2472bc8efe5f20,61036de82fb01a04f2fa7b2d,2021-07-29_23h12.43.177,Simcolourproject_2stim_asymm_v5,2020.2.10,Win32,60,61025ae37ef11b136ea224fe,,,,,,,,,1336,98,-41,1,0,0,response3disk,,5,-12,0.5,1,0,0,rectangle,-12,0.5,1,0,0,,,,,,,-12,0.5,1,0,0,,0,38,38,24,1,
,,,,,,,,,,,,,FF,,,,,,,,1.8669,,,,,,,,,,,,,,,,,,,,,,60fd82694f2472bc8efe5f20,61036de82fb01a04f2fa7b2d,2021-07-29_23h12.43.177,Simcolourproject_2stim_asymm_v5,2020.2.10,Win32,60,61025ae37ef11b136ea224fe,,,,,,,,,1667,83.5,-32,1,0,0,response3disk,,5,22,-3,1,0,0,rectangle,22,-3,1,0,0,,,,,,,22,-3,1,0,0,,0,39,39,76,1,
,,,,,,,,,,,,,FF,,,,,,,,1.2007,,,,,,,,,,,,,,,,,,,,,,60fd82694f2472bc8efe5f20,61036de82fb01a04f2fa7b2d,2021-07-29_23h12.43.177,Simcolourproject_2stim_asymm_v5,2020.2.10,Win32,60,61025ae37ef11b136ea224fe,,,,,,,,,1890,-86.5,-31.5,1,0,0,response5disk,,2,1,-1,1,0,0,rectangle,1,-1,1,0,0,,,,,,,1,-1,1,0,0,,0,40,40,87,1,
,,,,,,,,,,,,,FF,,,,,,,,0.6169,,,,,,,,,,,,,,,,,,,,,,60fd82694f2472bc8efe5f20,61036de82fb01a04f2fa7b2d,2021-07-29_23h12.43.177,Simcolourproject_2stim_asymm_v5,2020.2.10,Win32,60,61025ae37ef11b136ea224fe,,,,,,,,,3058,-75,-29.5,1,0,0,response5disk,,2,16,8.5,1,0,0,rectangle,16,8.5,1,0,0,,,,,,,16,8.5,1,0,0,,0,41,41,71,1,
,,,,,,,,,,,,,FF,,,,,,,,2.2015,,,,,,,,,,,,,,,,,,,,,,60fd82694f2472bc8efe5f20,61036de82fb01a04f2fa7b2d,2021-07-29_23h12.43.177,Simcolourproject_2stim_asymm_v5,2020.2.10,Win32,60,61025ae37ef11b136ea224fe,,,,,,,,,152,81,-57.5,1,0,0,response3disk,,5,1,0,1,0,0,rectangle,1,0,1,0,0,,,,,,,1,0,1,0,0,,0,42,42,59,1,
,,,,,,,,,,,,,FF,,,,,,,,0.8503,,,,,,,,,,,,,,,,,,,,,,60fd82694f2472bc8efe5f20,61036de82fb01a04f2fa7b2d,2021-07-29_23h12.43.177,Simcolourproject_2stim_asymm_v5,2020.2.10,Win32,60,61025ae37ef11b136ea224fe,,,,,,,,,1800,70.5,-40.5,1,0,0,response3disk,,5,-1,-1,1,0,0,rectangle,-1,-1,1,0,0,,,,,,,-1,-1,1,0,0,,0,43,43,117,1,
,,,,,,,,,,,,,FF,,,,,,,,0.8503,,,,,,,,,,,,,,,,,,,,,,60fd82694f2472bc8efe5f20,61036de82fb01a04f2fa7b2d,2021-07-29_23h12.43.177,Simcolourproject_2stim_asymm_v5,2020.2.10,Win32,60,61025ae37ef11b136ea224fe,,,,,,,,,2021,75.5,-43,1,0,0,response3disk,,5,5.5,-7,1,0,0,rectangle,5.5,-7,1,0,0,,,,,,,5.5,-7,1,0,0,,0,44,44,88,1,
,,,,,,,,,,,,,FF,,,,,,,,0.8669,,,,,,,,,,,,,,,,,,,,,,60fd82694f2472bc8efe5f20,61036de82fb01a04f2fa7b2d,2021-07-29_23h12.43.177,Simcolourproject_2stim_asymm_v5,2020.2.10,Win32,60,61025ae37ef11b136ea224fe,,,,,,,,,2140,77.5,56.5,1,0,0,response1disk,,6,22,-0.5,1,0,0,rectangle,22,-0.5,1,0,0,,,,,,,22,-0.5,1,0,0,,0,45,45,65,1,
,,,,,,,,,,,,,FF,,,,,,,,1.5839,,,,,,,,,,,,,,,,,,,,,,60fd82694f2472bc8efe5f20,61036de82fb01a04f2fa7b2d,2021-07-29_23h12.43.177,Simcolourproject_2stim_asymm_v5,2020.2.10,Win32,60,61025ae37ef11b136ea224fe,,,,,,,,,2489,30.5,-95,1,0,0,response3disk,,4,-7,1,1,0,0,rectangle,-7,1,1,0,0,,,,,,,-7,1,1,0,0,,0,46,46,78,1,
,,,,,,,,,,,,,FF,,,,,,,,1.4334,,,,,,,,,,,,,,,,,,,,,,60fd82694f2472bc8efe5f20,61036de82fb01a04f2fa7b2d,2021-07-29_23h12.43.177,Simcolourproject_2stim_asymm_v5,2020.2.10,Win32,60,61025ae37ef11b136ea224fe,,,,,,,,,3736,-74.5,-113,1,0,0,response5disk,,3,-2,3.5,1,0,0,rectangle,-2,3.5,1,0,0,,,,,,,-2,3.5,1,0,0,,0,47,47,31,1,
,,,,,,,,,,,,,FF,,,,,,,,2.4845,,,,,,,,,,,,,,,,,,,,,,60fd82694f2472bc8efe5f20,61036de82fb01a04f2fa7b2d,2021-07-29_23h12.43.177,Simcolourproject_2stim_asymm_v5,2020.2.10,Win32,60,61025ae37ef11b136ea224fe,,,,,,,,,2484,52,-88.5,1,0,0,response3disk,,4,-1,5,1,0,0,rectangle,-1,5,1,0,0,,,,,,,-1,5,1,0,0,,0,48,48,97,1,
,,,,,,,,,,,,,FF,,,,,,,,2.1677,,,,,,,,,,,,,,,,,,,,,,60fd82694f2472bc8efe5f20,61036de82fb01a04f2fa7b2d,2021-07-29_23h12.43.177,Simcolourproject_2stim_asymm_v5,2020.2.10,Win32,60,61025ae37ef11b136ea224fe,,,,,,,,,3311,105,40,1,0,0,response1disk,,6,-4,-2.5,1,0,0,rectangle,-4,-2.5,1,0,0,,,,,,,-4,-2.5,1,0,0,,0,49,49,92,1,
,,,,,,,,,,,,,FF,,,,,,,,0.9178,,,,,,,,,,,,,,,,,,,,,,60fd82694f2472bc8efe5f20,61036de82fb01a04f2fa7b2d,2021-07-29_23h12.43.177,Simcolourproject_2stim_asymm_v5,2020.2.10,Win32,60,61025ae37ef11b136ea224fe,,,,,,,,,3887,-62.5,-36,1,0,0,response5disk,,2,10,3,1,0,0,rectangle,10,3,1,0,0,,,,,,,10,3,1,0,0,,0,50,50,84,1,
,,,,,,,,,,,,,FF,,,,,,,,1.6174,,,,,,,,,,,,,,,,,,,,,,60fd82694f2472bc8efe5f20,61036de82fb01a04f2fa7b2d,2021-07-29_23h12.43.177,Simcolourproject_2stim_asymm_v5,2020.2.10,Win32,60,61025ae37ef11b136ea224fe,,,,,,,,,1285,80,-44.5,1,0,0,response3disk,,5,-15,-6,1,0,0,rectangle,-15,-6,1,0,0,,,,,,,-15,-6,1,0,0,,0,51,51,106,1,
,,,,,,,,,,,,,FF,,,,,,,,2.1675,,,,,,,,,,,,,,,,,,,,,,60fd82694f2472bc8efe5f20,61036de82fb01a04f2fa7b2d,2021-07-29_23h12.43.177,Simcolourproject_2stim_asymm_v5,2020.2.10,Win32,60,61025ae37ef11b136ea224fe,,,,,,,,,2990,-49,-105,1,0,0,response5disk,,3,13,1,1,0,0,rectangle,13,1,1,0,0,,,,,,,13,1,1,0,0,,0,52,52,39,1,
,,,,,,,,,,,,,FF,,,,,,,,1.0169,,,,,,,,,,,,,,,,,,,,,,60fd82694f2472bc8efe5f20,61036de82fb01a04f2fa7b2d,2021-07-29_23h12.43.177,Simcolourproject_2stim_asymm_v5,2020.2.10,Win32,60,61025ae37ef11b136ea224fe,,,,,,,,,3082,91.5,44.5,1,0,0,response1disk,,6,0,-12.5,1,0,0,rectangle,0,-12.5,1,0,0,,,,,,,0,-12.5,1,0,0,,0,53,53,90,1,
,,,,,,,,,,,,,FF,,,,,,,,1.6681,,,,,,,,,,,,,,,,,,,,,,60fd82694f2472bc8efe5f20,61036de82fb01a04f2fa7b2d,2021-07-29_23h12.43.177,Simcolourproject_2stim_asymm_v5,2020.2.10,Win32,60,61025ae37ef11b136ea224fe,,,,,,,,,2542,-98.5,32.5,1,0,0,response7disk,,1,7,-0.5,1,0,0,rectangle,7,-0.5,1,0,0,,,,,,,7,-0.5,1,0,0,,0,54,54,110,1,
,,,,,,,,,,,,,FF,,,,,,,,2.7012,,,,,,,,,,,,,,,,,,,,,,60fd82694f2472bc8efe5f20,61036de82fb01a04f2fa7b2d,2021-07-29_23h12.43.177,Simcolourproject_2stim_asymm_v5,2020.2.10,Win32,60,61025ae37ef11b136ea224fe,,,,,,,,,1843,50,-104,1,0,0,response3disk,,4,1,-2.5,1,0,0,rectangle,41,-87,1,0,0,response3disk_3,TRUE,4,4,"[298,103,142,201,251,1,166,5,288,176,167,5,177,93,320,56,194,17,193,120]",1.4849,11.5,11,1,0,0,rectangle,0,55,55,37,1,
,,,,,,,,,,,,,FF,,,,,,,,0.6664,,,,,,,,,,,,,,,,,,,,,,60fd82694f2472bc8efe5f20,61036de82fb01a04f2fa7b2d,2021-07-29_23h12.43.177,Simcolourproject_2stim_asymm_v5,2020.2.10,Win32,60,61025ae37ef11b136ea224fe,,,,,,,,,1298,-88.5,39.5,1,0,0,response7disk,,1,6.5,-11,1,0,0,rectangle,6.5,-11,1,0,0,,,,,,,6.5,-11,1,0,0,,0,56,56,89,1,
,,,,,,,,,,,,,FF,,,,,,,,1.1673,,,,,,,,,,,,,,,,,,,,,,60fd82694f2472bc8efe5f20,61036de82fb01a04f2fa7b2d,2021-07-29_23h12.43.177,Simcolourproject_2stim_asymm_v5,2020.2.10,Win32,60,61025ae37ef11b136ea224fe,,,,,,,,,244,43.5,88,1,0,0,response1disk,,7,15,12,1,0,0,rectangle,15,12,1,0,0,,,,,,,15,12,1,0,0,,0,57,57,36,1,
,,,,,,,,,,,,,FF,,,,,,,,1.167,,,,,,,,,,,,,,,,,,,,,,60fd82694f2472bc8efe5f20,61036de82fb01a04f2fa7b2d,2021-07-29_23h12.43.177,Simcolourproject_2stim_asymm_v5,2020.2.10,Win32,60,61025ae37ef11b136ea224fe,,,,,,,,,3714,-85.5,-45,1,0,0,response5disk,,2,-2,-17,1,0,0,rectangle,-2,-17,1,0,0,,,,,,,-2,-17,1,0,0,,0,58,58,61,1,
,,,,,,,,,,,,,FF,,,,,,,,2.0175,,,,,,,,,,,,,,,,,,,,,,60fd82694f2472bc8efe5f20,61036de82fb01a04f2fa7b2d,2021-07-29_23h12.43.177,Simcolourproject_2stim_asymm_v5,2020.2.10,Win32,60,61025ae37ef11b136ea224fe,,,,,,,,,1808,43,-105.5,1,0,0,response3disk,,4,-3.5,-0.5,1,0,0,rectangle,-3.5,-0.5,1,0,0,,,,,,,-3.5,-0.5,1,0,0,,0,59,59,41,1,
,,,,,,,,,,,,,FF,,,,,,,,1.2504,,,,,,,,,,,,,,,,,,,,,,60fd82694f2472bc8efe5f20,61036de82fb01a04f2fa7b2d,2021-07-29_23h12.43.177,Simcolourproject_2stim_asymm_v5,2020.2.10,Win32,60,61025ae37ef11b136ea224fe,,,,,,,,,812,-75.5,-44.5,1,0,0,response5disk,,2,13,13,1,0,0,rectangle,13,13,1,0,0,,,,,,,13,13,1,0,0,,0,60,60,10,1,
,,,,,,,,,,,,,FF,,,,,,,,0.7335,,,,,,,,,,,,,,,,,,,,,,60fd82694f2472bc8efe5f20,61036de82fb01a04f2fa7b2d,2021-07-29_23h12.43.177,Simcolourproject_2stim_asymm_v5,2020.2.10,Win32,60,61025ae37ef11b136ea224fe,,,,,,,,,2980,43.5,93,1,0,0,response1disk,,7,-3.5,2,1,0,0,rectangle,-3.5,2,1,0,0,,,,,,,-3.5,2,1,0,0,,0,61,61,159,1,
,,,,,,,,,,,,,FF,,,,,,,,1.0668,,,,,,,,,,,,,,,,,,,,,,60fd82694f2472bc8efe5f20,61036de82fb01a04f2fa7b2d,2021-07-29_23h12.43.177,Simcolourproject_2stim_asymm_v5,2020.2.10,Win32,60,61025ae37ef11b136ea224fe,,,,,,,,,1900,-52,-90.5,1,0,0,response5disk,,3,3,-5.5,1,0,0,rectangle,3,-5.5,1,0,0,,,,,,,3,-5.5,1,0,0,,0,62,62,123,1,
,,,,,,,,,,,,,FF,,,,,,,,1.534,,,,,,,,,,,,,,,,,,,,,,60fd82694f2472bc8efe5f20,61036de82fb01a04f2fa7b2d,2021-07-29_23h12.43.177,Simcolourproject_2stim_asymm_v5,2020.2.10,Win32,60,61025ae37ef11b136ea224fe,,,,,,,,,26,48,83,1,0,0,response1disk,,7,12.5,-7,1,0,0,rectangle,12.5,-7,1,0,0,,,,,,,12.5,-7,1,0,0,,0,63,63,85,1,
,,,,,,,,,,,,,FF,,,,,,,,3.2181,,,,,,,,,,,,,,,,,,,,,,60fd82694f2472bc8efe5f20,61036de82fb01a04f2fa7b2d,2021-07-29_23h12.43.177,Simcolourproject_2stim_asymm_v5,2020.2.10,Win32,60,61025ae37ef11b136ea224fe,,,,,,,,,1420,29.5,88,1,0,0,response1disk,,7,5,-5,1,0,0,rectangle,5,-5,1,0,0,,,,,,,5,-5,1,0,0,,0,64,64,143,1,
,,,,,,,,,,,,,FF,,,,,,,,2.6852,,,,,,,,,,,,,,,,,,,,,,60fd82694f2472bc8efe5f20,61036de82fb01a04f2fa7b2d,2021-07-29_23h12.43.177,Simcolourproject_2stim_asymm_v5,2020.2.10,Win32,60,61025ae37ef11b136ea224fe,,,,,,,,,1913,70.5,35.5,1,0,0,response1disk,,6,8.5,0.5,1,0,0,rectangle,8.5,0.5,1,0,0,,,,,,,8.5,0.5,1,0,0,,0,65,65,72,1,
,,,,,,,,,,,,,FF,,,,,,,,2.8517,,,,,,,,,,,,,,,,,,,,,,60fd82694f2472bc8efe5f20,61036de82fb01a04f2fa7b2d,2021-07-29_23h12.43.177,Simcolourproject_2stim_asymm_v5,2020.2.10,Win32,60,61025ae37ef11b136ea224fe,,,,,,,,,788,49,105,1,0,0,response1disk,,7,0,7,1,0,0,rectangle,0,7,1,0,0,,,,,,,0,7,1,0,0,,0,66,66,21,1,
,,,,,,,,,,,,,FF,,,,,,,,1.1838,,,,,,,,,,,,,,,,,,,,,,60fd82694f2472bc8efe5f20,61036de82fb01a04f2fa7b2d,2021-07-29_23h12.43.177,Simcolourproject_2stim_asymm_v5,2020.2.10,Win32,60,61025ae37ef11b136ea224fe,,,,,,,,,3014,-49,-86,1,0,0,response5disk,,3,10,-8,1,0,0,rectangle,10,-8,1,0,0,,,,,,,10,-8,1,0,0,,0,67,67,131,1,
,,,,,,,,,,,,,FF,,,,,,,,0.8171,,,,,,,,,,,,,,,,,,,,,,60fd82694f2472bc8efe5f20,61036de82fb01a04f2fa7b2d,2021-07-29_23h12.43.177,Simcolourproject_2stim_asymm_v5,2020.2.10,Win32,60,61025ae37ef11b136ea224fe,,,,,,,,,1759,-68,-32,1,0,0,response5disk,,2,8.5,-1.5,1,0,0,rectangle,8.5,-1.5,1,0,0,,,,,,,8.5,-1.5,1,0,0,,0,68,68,115,1,
,,,,,,,,,,,,,FF,,,,,,,,0.7671,,,,,,,,,,,,,,,,,,,,,,60fd82694f2472bc8efe5f20,61036de82fb01a04f2fa7b2d,2021-07-29_23h12.43.177,Simcolourproject_2stim_asymm_v5,2020.2.10,Win32,60,61025ae37ef11b136ea224fe,,,,,,,,,1227,-82,-37.5,1,0,0,response5disk,,2,-2,-5.5,1,0,0,rectangle,-2,-5.5,1,0,0,,,,,,,-2,-5.5,1,0,0,,0,69,69,44,1,
,,,,,,,,,,,,,FF,,,,,,,,1.718,,,,,,,,,,,,,,,,,,,,,,60fd82694f2472bc8efe5f20,61036de82fb01a04f2fa7b2d,2021-07-29_23h12.43.177,Simcolourproject_2stim_asymm_v5,2020.2.10,Win32,60,61025ae37ef11b136ea224fe,,,,,,,,,3312,84,51,1,0,0,response1disk,,6,7,-3,1,0,0,rectangle,7,-3,1,0,0,,,,,,,7,-3,1,0,0,,0,70,70,56,1,
,,,,,,,,,,,,,FF,,,,,,,,1.734,,,,,,,,,,,,,,,,,,,,,,60fd82694f2472bc8efe5f20,61036de82fb01a04f2fa7b2d,2021-07-29_23h12.43.177,Simcolourproject_2stim_asymm_v5,2020.2.10,Win32,60,61025ae37ef11b136ea224fe,,,,,,,,,161,-41,-94.5,1,0,0,response5disk,,3,21,0,1,0,0,rectangle,21,0,1,0,0,,,,,,,21,0,1,0,0,,0,71,71,74,1,
,,,,,,,,,,,,,FF,,,,,,,,0.8502,,,,,,,,,,,,,,,,,,,,,,60fd82694f2472bc8efe5f20,61036de82fb01a04f2fa7b2d,2021-07-29_23h12.43.177,Simcolourproject_2stim_asymm_v5,2020.2.10,Win32,60,61025ae37ef11b136ea224fe,,,,,,,,,926,37.5,79.5,1,0,0,response1disk,,7,-3.5,-17,1,0,0,rectangle,-3.5,-17,1,0,0,,,,,,,-3.5,-17,1,0,0,,0,72,72,11,1,
,,,,,,,,,,,,,FF,,,,,,,,1.6169,,,,,,,,,,,,,,,,,,,,,,60fd82694f2472bc8efe5f20,61036de82fb01a04f2fa7b2d,2021-07-29_23h12.43.177,Simcolourproject_2stim_asymm_v5,2020.2.10,Win32,60,61025ae37ef11b136ea224fe,,,,,,,,,1645,44,97,1,0,0,response1disk,,7,1,-2.5,1,0,0,rectangle,1,-2.5,1,0,0,,,,,,,1,-2.5,1,0,0,,0,73,73,52,1,
,,,,,,,,,,,,,FF,,,,,,,,0.6343,,,,,,,,,,,,,,,,,,,,,,60fd82694f2472bc8efe5f20,61036de82fb01a04f2fa7b2d,2021-07-29_23h12.43.177,Simcolourproject_2stim_asymm_v5,2020.2.10,Win32,60,61025ae37ef11b136ea224fe,,,,,,,,,2959,45.5,95,1,0,0,response1disk,,7,0,0.5,1,0,0,rectangle,0,0.5,1,0,0,,,,,,,0,0.5,1,0,0,,0,74,74,119,1,
,,,,,,,,,,,,,FF,,,,,,,,1.7666,,,,,,,,,,,,,,,,,,,,,,60fd82694f2472bc8efe5f20,61036de82fb01a04f2fa7b2d,2021-07-29_23h12.43.177,Simcolourproject_2stim_asymm_v5,2020.2.10,Win32,60,61025ae37ef11b136ea224fe,,,,,,,,,4133,30.5,91.5,1,0,0,response1disk,,7,-4,-4,1,0,0,rectangle,-4,-4,1,0,0,,,,,,,-4,-4,1,0,0,,0,75,75,94,1,
,,,,,,,,,,,,,FF,,,,,,,,1.9338,,,,,,,,,,,,,,,,,,,,,,60fd82694f2472bc8efe5f20,61036de82fb01a04f2fa7b2d,2021-07-29_23h12.43.177,Simcolourproject_2stim_asymm_v5,2020.2.10,Win32,60,61025ae37ef11b136ea224fe,,,,,,,,,463,-41,-89.5,1,0,0,response5disk,,3,1,5,1,0,0,rectangle,1,5,1,0,0,,,,,,,1,5,1,0,0,,0,76,76,96,1,
,,,,,,,,,,,,,FF,,,,,,,,0.8336,,,,,,,,,,,,,,,,,,,,,,60fd82694f2472bc8efe5f20,61036de82fb01a04f2fa7b2d,2021-07-29_23h12.43.177,Simcolourproject_2stim_asymm_v5,2020.2.10,Win32,60,61025ae37ef11b136ea224fe,,,,,,,,,564,-42,-82,1,0,0,response5disk,,3,6,-0.5,1,0,0,rectangle,6,-0.5,1,0,0,,,,,,,6,-0.5,1,0,0,,0,77,77,155,1,
,,,,,,,,,,,,,FF,,,,,,,,0.8004,,,,,,,,,,,,,,,,,,,,,,60fd82694f2472bc8efe5f20,61036de82fb01a04f2fa7b2d,2021-07-29_23h12.43.177,Simcolourproject_2stim_asymm_v5,2020.2.10,Win32,60,61025ae37ef11b136ea224fe,,,,,,,,,1295,-83.5,-45.5,1,0,0,response5disk,,2,7.5,-7,1,0,0,rectangle,7.5,-7,1,0,0,,,,,,,7.5,-7,1,0,0,,0,78,78,98,1,
,,,,,,,,,,,,,FF,,,,,,,,0.8498,,,,,,,,,,,,,,,,,,,,,,60fd82694f2472bc8efe5f20,61036de82fb01a04f2fa7b2d,2021-07-29_23h12.43.177,Simcolourproject_2stim_asymm_v5,2020.2.10,Win32,60,61025ae37ef11b136ea224fe,,,,,,,,,2077,85,35.5,1,0,0,response1disk,,6,3,-17.5,1,0,0,rectangle,3,-17.5,1,0,0,,,,,,,3,-17.5,1,0,0,,0,79,79,60,1,
,,,,,,,,,,,,,FF,,,,,,,,0.9332,,,,,,,,,,,,,,,,,,,,,,60fd82694f2472bc8efe5f20,61036de82fb01a04f2fa7b2d,2021-07-29_23h12.43.177,Simcolourproject_2stim_asymm_v5,2020.2.10,Win32,60,61025ae37ef11b136ea224fe,,,,,,,,,2494,76,26,1,0,0,response1disk,,6,2,-3.5,1,0,0,rectangle,2,-3.5,1,0,0,,,,,,,2,-3.5,1,0,0,,0,80,80,3,1,
,,,,,,,,,,,,,FF,,,,,,,,1.4842,,,,,,,,,,,,,,,,,,,,,,60fd82694f2472bc8efe5f20,61036de82fb01a04f2fa7b2d,2021-07-29_23h12.43.177,Simcolourproject_2stim_asymm_v5,2020.2.10,Win32,60,61025ae37ef11b136ea224fe,,,,,,,,,940,33.5,81,1,0,0,response1disk,,7,-6,-6,1,0,0,rectangle,-6,-6,1,0,0,,,,,,,-6,-6,1,0,0,,0,81,81,122,1,
,,,,,,,,,,,,,FF,,,,,,,,2.0845,,,,,,,,,,,,,,,,,,,,,,60fd82694f2472bc8efe5f20,61036de82fb01a04f2fa7b2d,2021-07-29_23h12.43.177,Simcolourproject_2stim_asymm_v5,2020.2.10,Win32,60,61025ae37ef11b136ea224fe,,,,,,,,,1412,86,50,1,0,0,response1disk,,6,6.5,5.5,1,0,0,rectangle,6.5,5.5,1,0,0,,,,,,,6.5,5.5,1,0,0,,0,82,82,102,1,
,,,,,,,,,,,,,FF,,,,,,,,1.5011,,,,,,,,,,,,,,,,,,,,,,60fd82694f2472bc8efe5f20,61036de82fb01a04f2fa7b2d,2021-07-29_23h12.43.177,Simcolourproject_2stim_asymm_v5,2020.2.10,Win32,60,61025ae37ef11b136ea224fe,,,,,,,,,1678,84.5,-39.5,1,0,0,response3disk,,5,1.5,6.5,1,0,0,rectangle,1.5,6.5,1,0,0,,,,,,,1.5,6.5,1,0,0,,0,83,83,62,1,
,,,,,,,,,,,,,FF,,,,,,,,0.9335,,,,,,,,,,,,,,,,,,,,,,60fd82694f2472bc8efe5f20,61036de82fb01a04f2fa7b2d,2021-07-29_23h12.43.177,Simcolourproject_2stim_asymm_v5,2020.2.10,Win32,60,61025ae37ef11b136ea224fe,,,,,,,,,2539,44,88,1,0,0,response1disk,,7,6,5,1,0,0,rectangle,6,5,1,0,0,,,,,,,6,5,1,0,0,,0,84,84,111,1,
,,,,,,,,,,,,,FF,,,,,,,,0.7672,,,,,,,,,,,,,,,,,,,,,,60fd82694f2472bc8efe5f20,61036de82fb01a04f2fa7b2d,2021-07-29_23h12.43.177,Simcolourproject_2stim_asymm_v5,2020.2.10,Win32,60,61025ae37ef11b136ea224fe,,,,,,,,,2929,44.5,99,1,0,0,response1disk,,7,-2.5,-8.5,1,0,0,rectangle,-2.5,-8.5,1,0,0,,,,,,,-2.5,-8.5,1,0,0,,0,85,85,29,1,
,,,,,,,,,,,,,FF,,,,,,,,0.783,,,,,,,,,,,,,,,,,,,,,,60fd82694f2472bc8efe5f20,61036de82fb01a04f2fa7b2d,2021-07-29_23h12.43.177,Simcolourproject_2stim_asymm_v5,2020.2.10,Win32,60,61025ae37ef11b136ea224fe,,,,,,,,,3123,25,86,1,0,0,response1disk,,7,7,-1,1,0,0,rectangle,7,-1,1,0,0,,,,,,,7,-1,1,0,0,,0,86,86,83,1,
,,,,,,,,,,,,,FF,,,,,,,,1.0335,,,,,,,,,,,,,,,,,,,,,,60fd82694f2472bc8efe5f20,61036de82fb01a04f2fa7b2d,2021-07-29_23h12.43.177,Simcolourproject_2stim_asymm_v5,2020.2.10,Win32,60,61025ae37ef11b136ea224fe,,,,,,,,,3503,-45,-98.5,1,0,0,response5disk,,3,4,-3.5,1,0,0,rectangle,4,-3.5,1,0,0,,,,,,,4,-3.5,1,0,0,,0,87,87,107,1,
,,,,,,,,,,,,,FF,,,,,,,,0.6668,,,,,,,,,,,,,,,,,,,,,,60fd82694f2472bc8efe5f20,61036de82fb01a04f2fa7b2d,2021-07-29_23h12.43.177,Simcolourproject_2stim_asymm_v5,2020.2.10,Win32,60,61025ae37ef11b136ea224fe,,,,,,,,,2529,42.5,85.5,1,0,0,response1disk,,7,-13,-15.5,1,0,0,rectangle,-13,-15.5,1,0,0,,,,,,,-13,-15.5,1,0,0,,0,88,88,86,1,
,,,,,,,,,,,,,FF,,,,,,,,1.0673,,,,,,,,,,,,,,,,,,,,,,60fd82694f2472bc8efe5f20,61036de82fb01a04f2fa7b2d,2021-07-29_23h12.43.177,Simcolourproject_2stim_asymm_v5,2020.2.10,Win32,60,61025ae37ef11b136ea224fe,,,,,,,,,3818,-68,-39.5,1,0,0,response5disk,,2,16.5,2.5,1,0,0,rectangle,16.5,2.5,1,0,0,,,,,,,16.5,2.5,1,0,0,,0,89,89,25,1,
,,,,,,,,,,,,,FF,,,,,,,,1.8176,,,,,,,,,,,,,,,,,,,,,,60fd82694f2472bc8efe5f20,61036de82fb01a04f2fa7b2d,2021-07-29_23h12.43.177,Simcolourproject_2stim_asymm_v5,2020.2.10,Win32,60,61025ae37ef11b136ea224fe,,,,,,,,,1657,-27,-84,1,0,0,response5disk,,3,11,1.5,1,0,0,rectangle,11,1.5,1,0,0,,,,,,,11,1.5,1,0,0,,0,90,90,58,1,
,,,,,,,,,,,,,FF,,,,,,,,0.8507,,,,,,,,,,,,,,,,,,,,,,60fd82694f2472bc8efe5f20,61036de82fb01a04f2fa7b2d,2021-07-29_23h12.43.177,Simcolourproject_2stim_asymm_v5,2020.2.10,Win32,60,61025ae37ef11b136ea224fe,,,,,,,,,4269,-99.5,-34.5,1,0,0,response5disk,,2,0,5,1,0,0,rectangle,0,5,1,0,0,,,,,,,0,5,1,0,0,,0,91,91,120,1,
,,,,,,,,,,,,,FF,,,,,,,,1.2174,,,,,,,,,,,,,,,,,,,,,,60fd82694f2472bc8efe5f20,61036de82fb01a04f2fa7b2d,2021-07-29_23h12.43.177,Simcolourproject_2stim_asymm_v5,2020.2.10,Win32,60,61025ae37ef11b136ea224fe,,,,,,,,,2466,101.5,46,1,0,0,response1disk,,6,12.5,-6.5,1,0,0,rectangle,-76,-31,1,0,0,response5disk_3,TRUE,2,2,"[298,103,142,201,251,1,166,5,288,176,167,5,177,93,320,56,194,17,193,120]",1.8338,12,-2,1,0,0,rectangle,0,92,92,48,1,
,,,,,,,,,,,,,FF,,,,,,,,1.1841,,,,,,,,,,,,,,,,,,,,,,60fd82694f2472bc8efe5f20,61036de82fb01a04f2fa7b2d,2021-07-29_23h12.43.177,Simcolourproject_2stim_asymm_v5,2020.2.10,Win32,60,61025ae37ef11b136ea224fe,,,,,,,,,386,86,37,1,0,0,response1disk,,6,9,-11,1,0,0,rectangle,9,-11,1,0,0,,,,,,,9,-11,1,0,0,,0,93,93,91,1,
,,,,,,,,,,,,,FF,,,,,,,,1.1841,,,,,,,,,,,,,,,,,,,,,,60fd82694f2472bc8efe5f20,61036de82fb01a04f2fa7b2d,2021-07-29_23h12.43.177,Simcolourproject_2stim_asymm_v5,2020.2.10,Win32,60,61025ae37ef11b136ea224fe,,,,,,,,,2944,-78.5,-19,1,0,0,response5disk,,2,-4.5,-6.5,1,0,0,rectangle,-4.5,-6.5,1,0,0,,,,,,,-4.5,-6.5,1,0,0,,0,94,94,100,1,
,,,,,,,,,,,,,FF,,,,,,,,0.9004,,,,,,,,,,,,,,,,,,,,,,60fd82694f2472bc8efe5f20,61036de82fb01a04f2fa7b2d,2021-07-29_23h12.43.177,Simcolourproject_2stim_asymm_v5,2020.2.10,Win32,60,61025ae37ef11b136ea224fe,,,,,,,,,2607,-78.5,-35.5,1,0,0,response5disk,,2,17.5,15,1,0,0,rectangle,17.5,15,1,0,0,,,,,,,17.5,15,1,0,0,,0,95,95,140,1,
,,,,,,,,,,,,,FF,,,,,,,,0.6506,,,,,,,,,,,,,,,,,,,,,,60fd82694f2472bc8efe5f20,61036de82fb01a04f2fa7b2d,2021-07-29_23h12.43.177,Simcolourproject_2stim_asymm_v5,2020.2.10,Win32,60,61025ae37ef11b136ea224fe,,,,,,,,,4123,-101.5,-41.5,1,0,0,response5disk,,2,-5,-2,1,0,0,rectangle,-5,-2,1,0,0,,,,,,,-5,-2,1,0,0,,0,96,96,18,1,
,,,,,,,,,,,,,FF,,,,,,,,0.7339,,,,,,,,,,,,,,,,,,,,,,60fd82694f2472bc8efe5f20,61036de82fb01a04f2fa7b2d,2021-07-29_23h12.43.177,Simcolourproject_2stim_asymm_v5,2020.2.10,Win32,60,61025ae37ef11b136ea224fe,,,,,,,,,201,-81.5,-46,1,0,0,response5disk,,2,11.5,5,1,0,0,rectangle,11.5,5,1,0,0,,,,,,,11.5,5,1,0,0,,0,97,97,114,1,
,,,,,,,,,,,,,FF,,,,,,,,0.9502,,,,,,,,,,,,,,,,,,,,,,60fd82694f2472bc8efe5f20,61036de82fb01a04f2fa7b2d,2021-07-29_23h12.43.177,Simcolourproject_2stim_asymm_v5,2020.2.10,Win32,60,61025ae37ef11b136ea224fe,,,,,,,,,2675,-29,-80.5,1,0,0,response5disk,,3,21.5,-5.5,1,0,0,rectangle,21.5,-5.5,1,0,0,,,,,,,21.5,-5.5,1,0,0,,0,98,98,127,1,
,,,,,,,,,,,,,FF,,,,,,,,0.7669,,,,,,,,,,,,,,,,,,,,,,60fd82694f2472bc8efe5f20,61036de82fb01a04f2fa7b2d,2021-07-29_23h12.43.177,Simcolourproject_2stim_asymm_v5,2020.2.10,Win32,60,61025ae37ef11b136ea224fe,,,,,,,,,2296,-36.5,-112,1,0,0,response5disk,,3,0.5,-3.5,1,0,0,rectangle,0.5,-3.5,1,0,0,,,,,,,0.5,-3.5,1,0,0,,0,99,99,142,1,
,,,,,,,,,,,,,FF,,,,,,,,0.8167,,,,,,,,,,,,,,,,,,,,,,60fd82694f2472bc8efe5f20,61036de82fb01a04f2fa7b2d,2021-07-29_23h12.43.177,Simcolourproject_2stim_asymm_v5,2020.2.10,Win32,60,61025ae37ef11b136ea224fe,,,,,,,,,4319,105.5,-33,1,0,0,response3disk,,5,-1,7.5,1,0,0,rectangle,-1,7.5,1,0,0,,,,,,,-1,7.5,1,0,0,,0,100,100,15,1,
,,,,,,,,,,,,,FF,,,,,,,,0.8006,,,,,,,,,,,,,,,,,,,,,,60fd82694f2472bc8efe5f20,61036de82fb01a04f2fa7b2d,2021-07-29_23h12.43.177,Simcolourproject_2stim_asymm_v5,2020.2.10,Win32,60,61025ae37ef11b136ea224fe,,,,,,,,,3970,-75.5,-41,1,0,0,response5disk,,2,16.5,2.5,1,0,0,rectangle,16.5,2.5,1,0,0,,,,,,,16.5,2.5,1,0,0,,0,101,101,12,1,
,,,,,,,,,,,,,FF,,,,,,,,1.0178,,,,,,,,,,,,,,,,,,,,,,60fd82694f2472bc8efe5f20,61036de82fb01a04f2fa7b2d,2021-07-29_23h12.43.177,Simcolourproject_2stim_asymm_v5,2020.2.10,Win32,60,61025ae37ef11b136ea224fe,,,,,,,,,3820,-81,-41.5,1,0,0,response5disk,,2,5,-2.5,1,0,0,rectangle,-85.5,34,1,0,0,response7disk_3,TRUE,1,1,"[298,103,142,201,251,1,166,5,288,176,167,5,177,93,320,56,194,17,193,120]",1.3665,-2.5,-10,1,0,0,rectangle,0,102,102,135,1,
,,,,,,,,,,,,,FF,,,,,,,,0.7172,,,,,,,,,,,,,,,,,,,,,,60fd82694f2472bc8efe5f20,61036de82fb01a04f2fa7b2d,2021-07-29_23h12.43.177,Simcolourproject_2stim_asymm_v5,2020.2.10,Win32,60,61025ae37ef11b136ea224fe,,,,,,,,,4049,-82.5,43,1,0,0,response7disk,,1,4.5,-9.5,1,0,0,rectangle,4.5,-9.5,1,0,0,,,,,,,4.5,-9.5,1,0,0,,0,103,103,34,1,
,,,,,,,,,,,,,FF,,,,,,,,1.6338,,,,,,,,,,,,,,,,,,,,,,60fd82694f2472bc8efe5f20,61036de82fb01a04f2fa7b2d,2021-07-29_23h12.43.177,Simcolourproject_2stim_asymm_v5,2020.2.10,Win32,60,61025ae37ef11b136ea224fe,,,,,,,,,2450,47,89.5,1,0,0,response1disk,,7,10.5,-8,1,0,0,rectangle,10.5,-8,1,0,0,,,,,,,10.5,-8,1,0,0,,0,104,104,27,1,
,,,,,,,,,,,,,FF,,,,,,,,0.9177,,,,,,,,,,,,,,,,,,,,,,60fd82694f2472bc8efe5f20,61036de82fb01a04f2fa7b2d,2021-07-29_23h12.43.177,Simcolourproject_2stim_asymm_v5,2020.2.10,Win32,60,61025ae37ef11b136ea224fe,,,,,,,,,3860,90,39.5,1,0,0,response1disk,,6,-1,-11.5,1,0,0,rectangle,-1,-11.5,1,0,0,,,,,,,-1,-11.5,1,0,0,,0,105,105,81,1,
,,,,,,,,,,,,,FF,,,,,,,,0.9507,,,,,,,,,,,,,,,,,,,,,,60fd82694f2472bc8efe5f20,61036de82fb01a04f2fa7b2d,2021-07-29_23h12.43.177,Simcolourproject_2stim_asymm_v5,2020.2.10,Win32,60,61025ae37ef11b136ea224fe,,,,,,,,,3851,-37.5,-85.5,1,0,0,response5disk,,3,5,-1,1,0,0,rectangle,5,-1,1,0,0,,,,,,,5,-1,1,0,0,,0,106,106,109,1,
,,,,,,,,,,,,,FF,,,,,,,,1.2836,,,,,,,,,,,,,,,,,,,,,,60fd82694f2472bc8efe5f20,61036de82fb01a04f2fa7b2d,2021-07-29_23h12.43.177,Simcolourproject_2stim_asymm_v5,2020.2.10,Win32,60,61025ae37ef11b136ea224fe,,,,,,,,,667,94.5,46.5,1,0,0,response1disk,,6,5,0,1,0,0,rectangle,5,0,1,0,0,,,,,,,5,0,1,0,0,,0,107,107,5,1,
,,,,,,,,,,,,,FF,,,,,,,,0.8835,,,,,,,,,,,,,,,,,,,,,,60fd82694f2472bc8efe5f20,61036de82fb01a04f2fa7b2d,2021-07-29_23h12.43.177,Simcolourproject_2stim_asymm_v5,2020.2.10,Win32,60,61025ae37ef11b136ea224fe,,,,,,,,,3928,46,107,1,0,0,response1disk,,7,-15.5,-17.5,1,0,0,rectangle,-15.5,-17.5,1,0,0,,,,,,,-15.5,-17.5,1,0,0,,0,108,108,132,1,
,,,,,,,,,,,,,FF,,,,,,,,1.3008,,,,,,,,,,,,,,,,,,,,,,60fd82694f2472bc8efe5f20,61036de82fb01a04f2fa7b2d,2021-07-29_23h12.43.177,Simcolourproject_2stim_asymm_v5,2020.2.10,Win32,60,61025ae37ef11b136ea224fe,,,,,,,,,3916,-63.5,-88.5,1,0,0,response5disk,,3,5,-15,1,0,0,rectangle,5,-15,1,0,0,,,,,,,5,-15,1,0,0,,0,109,109,151,1,
,,,,,,,,,,,,,FF,,,,,,,,1.1333,,,,,,,,,,,,,,,,,,,,,,60fd82694f2472bc8efe5f20,61036de82fb01a04f2fa7b2d,2021-07-29_23h12.43.177,Simcolourproject_2stim_asymm_v5,2020.2.10,Win32,60,61025ae37ef11b136ea224fe,,,,,,,,,2180,102,34.5,1,0,0,response1disk,,6,5.5,1,1,0,0,rectangle,5.5,1,1,0,0,,,,,,,5.5,1,1,0,0,,0,110,110,129,1,
,,,,,,,,,,,,,FF,,,,,,,,1.2849,,,,,,,,,,,,,,,,,,,,,,60fd82694f2472bc8efe5f20,61036de82fb01a04f2fa7b2d,2021-07-29_23h12.43.177,Simcolourproject_2stim_asymm_v5,2020.2.10,Win32,60,61025ae37ef11b136ea224fe,,,,,,,,,1311,93,35.5,1,0,0,response1disk,,6,-7,-15,1,0,0,rectangle,-7,-15,1,0,0,,,,,,,-7,-15,1,0,0,,0,111,111,118,1,
,,,,,,,,,,,,,FF,,,,,,,,2.6022,,,,,,,,,,,,,,,,,,,,,,60fd82694f2472bc8efe5f20,61036de82fb01a04f2fa7b2d,2021-07-29_23h12.43.177,Simcolourproject_2stim_asymm_v5,2020.2.10,Win32,60,61025ae37ef11b136ea224fe,,,,,,,,,1878,45,-91.5,1,0,0,response3disk,,4,-20.5,-1.5,1,0,0,rectangle,-20.5,-1.5,1,0,0,,,,,,,-20.5,-1.5,1,0,0,,0,112,112,7,1,
,,,,,,,,,,,,,FF,,,,,,,,2.1009,,,,,,,,,,,,,,,,,,,,,,60fd82694f2472bc8efe5f20,61036de82fb01a04f2fa7b2d,2021-07-29_23h12.43.177,Simcolourproject_2stim_asymm_v5,2020.2.10,Win32,60,61025ae37ef11b136ea224fe,,,,,,,,,2037,-42,-102.5,1,0,0,response5disk,,3,5,5,1,0,0,rectangle,5,5,1,0,0,,,,,,,5,5,1,0,0,,0,113,113,79,1,
,,,,,,,,,,,,,FF,,,,,,,,0.5718,,,,,,,,,,,,,,,,,,,,,,60fd82694f2472bc8efe5f20,61036de82fb01a04f2fa7b2d,2021-07-29_23h12.43.177,Simcolourproject_2stim_asymm_v5,2020.2.10,Win32,60,61025ae37ef11b136ea224fe,,,,,,,,,2226,-71.5,50.5,1,0,0,response7disk,,1,2.5,-2.5,1,0,0,rectangle,2.5,-2.5,1,0,0,,,,,,,2.5,-2.5,1,0,0,,0,114,114,149,1,
,,,,,,,,,,,,,FF,,,,,,,,0.8173,,,,,,,,,,,,,,,,,,,,,,60fd82694f2472bc8efe5f20,61036de82fb01a04f2fa7b2d,2021-07-29_23h12.43.177,Simcolourproject_2stim_asymm_v5,2020.2.10,Win32,60,61025ae37ef11b136ea224fe,,,,,,,,,2597,104,42,1,0,0,response1disk,,6,7.5,-1.5,1,0,0,rectangle,7.5,-1.5,1,0,0,,,,,,,7.5,-1.5,1,0,0,,0,115,115,33,1,
,,,,,,,,,,,,,FF,,,,,,,,1.1831,,,,,,,,,,,,,,,,,,,,,,60fd82694f2472bc8efe5f20,61036de82fb01a04f2fa7b2d,2021-07-29_23h12.43.177,Simcolourproject_2stim_asymm_v5,2020.2.10,Win32,60,61025ae37ef11b136ea224fe,,,,,,,,,3990,85.5,42,1,0,0,response1disk,,6,1,0,1,0,0,rectangle,1,0,1,0,0,,,,,,,1,0,1,0,0,,0,116,116,42,1,
,,,,,,,,,,,,,FF,,,,,,,,3.3021,,,,,,,,,,,,,,,,,,,,,,60fd82694f2472bc8efe5f20,61036de82fb01a04f2fa7b2d,2021-07-29_23h12.43.177,Simcolourproject_2stim_asymm_v5,2020.2.10,Win32,60,61025ae37ef11b136ea224fe,,,,,,,,,3750,-93,-30,1,0,0,response5disk,,2,6,1,1,0,0,rectangle,6,1,1,0,0,,,,,,,6,1,1,0,0,,0,117,117,16,1,
,,,,,,,,,,,,,FF,,,,,,,,0.7835,,,,,,,,,,,,,,,,,,,,,,60fd82694f2472bc8efe5f20,61036de82fb01a04f2fa7b2d,2021-07-29_23h12.43.177,Simcolourproject_2stim_asymm_v5,2020.2.10,Win32,60,61025ae37ef11b136ea224fe,,,,,,,,,3405,49,102.5,1,0,0,response1disk,,7,-4.5,7,1,0,0,rectangle,-4.5,7,1,0,0,,,,,,,-4.5,7,1,0,0,,0,118,118,150,1,
,,,,,,,,,,,,,FF,,,,,,,,1.0499,,,,,,,,,,,,,,,,,,,,,,60fd82694f2472bc8efe5f20,61036de82fb01a04f2fa7b2d,2021-07-29_23h12.43.177,Simcolourproject_2stim_asymm_v5,2020.2.10,Win32,60,61025ae37ef11b136ea224fe,,,,,,,,,2559,56.5,80,1,0,0,response1disk,,7,2,-7.5,1,0,0,rectangle,-34.5,86.5,1,0,0,response7disk_3,TRUE,0,0,"[298,103,142,201,251,1,166,5,288,176,167,5,177,93,320,56,194,17,193,120]",2.5174,6.5,-4,1,0,0,rectangle,0,119,119,152,1,
,,,,,,,,,,,,,FF,,,,,,,,1.6171,,,,,,,,,,,,,,,,,,,,,,60fd82694f2472bc8efe5f20,61036de82fb01a04f2fa7b2d,2021-07-29_23h12.43.177,Simcolourproject_2stim_asymm_v5,2020.2.10,Win32,60,61025ae37ef11b136ea224fe,,,,,,,,,3728,84,37.5,1,0,0,response1disk,,6,1,3.5,1,0,0,rectangle,1,3.5,1,0,0,,,,,,,1,3.5,1,0,0,,0,120,120,20,1,
,,,,,,,,,,,,,FF,,,,,,,,2.184,,,,,,,,,,,,,,,,,,,,,,60fd82694f2472bc8efe5f20,61036de82fb01a04f2fa7b2d,2021-07-29_23h12.43.177,Simcolourproject_2stim_asymm_v5,2020.2.10,Win32,60,61025ae37ef11b136ea224fe,,,,,,,,,28,46.5,106,1,0,0,response1disk,,7,7.5,1.5,1,0,0,rectangle,7.5,1.5,1,0,0,,,,,,,7.5,1.5,1,0,0,,0,121,121,154,1,
,,,,,,,,,,,,,FF,,,,,,,,1.3343,,,,,,,,,,,,,,,,,,,,,,60fd82694f2472bc8efe5f20,61036de82fb01a04f2fa7b2d,2021-07-29_23h12.43.177,Simcolourproject_2stim_asymm_v5,2020.2.10,Win32,60,61025ae37ef11b136ea224fe,,,,,,,,,3997,-80.5,-52.5,1,0,0,response5disk,,2,-5,-2,1,0,0,rectangle,-5,-2,1,0,0,,,,,,,-5,-2,1,0,0,,0,122,122,156,1,
,,,,,,,,,,,,,FF,,,,,,,,1.234,,,,,,,,,,,,,,,,,,,,,,60fd82694f2472bc8efe5f20,61036de82fb01a04f2fa7b2d,2021-07-29_23h12.43.177,Simcolourproject_2stim_asymm_v5,2020.2.10,Win32,60,61025ae37ef11b136ea224fe,,,,,,,,,2792,62,-84,1,0,0,response3disk,,4,-5,13,1,0,0,rectangle,-5,13,1,0,0,,,,,,,-5,13,1,0,0,,0,123,123,68,1,
,,,,,,,,,,,,,FF,,,,,,,,1.0017,,,,,,,,,,,,,,,,,,,,,,60fd82694f2472bc8efe5f20,61036de82fb01a04f2fa7b2d,2021-07-29_23h12.43.177,Simcolourproject_2stim_asymm_v5,2020.2.10,Win32,60,61025ae37ef11b136ea224fe,,,,,,,,,3024,48,92,1,0,0,response1disk,,7,0,1,1,0,0,rectangle,0,1,1,0,0,,,,,,,0,1,1,0,0,,0,124,124,139,1,
,,,,,,,,,,,,,FF,,,,,,,,0.6337,,,,,,,,,,,,,,,,,,,,,,60fd82694f2472bc8efe5f20,61036de82fb01a04f2fa7b2d,2021-07-29_23h12.43.177,Simcolourproject_2stim_asymm_v5,2020.2.10,Win32,60,61025ae37ef11b136ea224fe,,,,,,,,,2457,37,86.5,1,0,0,response1disk,,7,-4.5,2.5,1,0,0,rectangle,-4.5,2.5,1,0,0,,,,,,,-4.5,2.5,1,0,0,,0,125,125,69,1,
,,,,,,,,,,,,,FF,,,,,,,,0.6504,,,,,,,,,,,,,,,,,,,,,,60fd82694f2472bc8efe5f20,61036de82fb01a04f2fa7b2d,2021-07-29_23h12.43.177,Simcolourproject_2stim_asymm_v5,2020.2.10,Win32,60,61025ae37ef11b136ea224fe,,,,,,,,,369,91.5,45,1,0,0,response1disk,,6,19.5,0,1,0,0,rectangle,19.5,0,1,0,0,,,,,,,19.5,0,1,0,0,,0,126,126,43,1,
,,,,,,,,,,,,,FF,,,,,,,,0.8004,,,,,,,,,,,,,,,,,,,,,,60fd82694f2472bc8efe5f20,61036de82fb01a04f2fa7b2d,2021-07-29_23h12.43.177,Simcolourproject_2stim_asymm_v5,2020.2.10,Win32,60,61025ae37ef11b136ea224fe,,,,,,,,,590,24.5,82.5,1,0,0,response1disk,,7,-3.5,-8.5,1,0,0,rectangle,-3.5,-8.5,1,0,0,,,,,,,-3.5,-8.5,1,0,0,,0,127,127,147,1,
,,,,,,,,,,,,,FF,,,,,,,,1.785,,,,,,,,,,,,,,,,,,,,,,60fd82694f2472bc8efe5f20,61036de82fb01a04f2fa7b2d,2021-07-29_23h12.43.177,Simcolourproject_2stim_asymm_v5,2020.2.10,Win32,60,61025ae37ef11b136ea224fe,,,,,,,,,1639,99,-42.5,1,0,0,response3disk,,5,0.5,2.5,1,0,0,rectangle,0.5,2.5,1,0,0,,,,,,,0.5,2.5,1,0,0,,0,128,128,50,1,
,,,,,,,,,,,,,FF,,,,,,,,0.867,,,,,,,,,,,,,,,,,,,,,,60fd82694f2472bc8efe5f20,61036de82fb01a04f2fa7b2d,2021-07-29_23h12.43.177,Simcolourproject_2stim_asymm_v5,2020.2.10,Win32,60,61025ae37ef11b136ea224fe,,,,,,,,,3432,-82.5,39,1,0,0,response7disk,,1,5,-0.5,1,0,0,rectangle,5,-0.5,1,0,0,,,,,,,5,-0.5,1,0,0,,0,129,129,125,1,
,,,,,,,,,,,,,FF,,,,,,,,1.3011,,,,,,,,,,,,,,,,,,,,,,60fd82694f2472bc8efe5f20,61036de82fb01a04f2fa7b2d,2021-07-29_23h12.43.177,Simcolourproject_2stim_asymm_v5,2020.2.10,Win32,60,61025ae37ef11b136ea224fe,,,,,,,,,381,105,37,1,0,0,response1disk,,6,-4.5,-2.5,1,0,0,rectangle,-4.5,-2.5,1,0,0,,,,,,,-4.5,-2.5,1,0,0,,0,130,130,2,1,
,,,,,,,,,,,,,FF,,,,,,,,0.6505,,,,,,,,,,,,,,,,,,,,,,60fd82694f2472bc8efe5f20,61036de82fb01a04f2fa7b2d,2021-07-29_23h12.43.177,Simcolourproject_2stim_asymm_v5,2020.2.10,Win32,60,61025ae37ef11b136ea224fe,,,,,,,,,2262,37.5,100.5,1,0,0,response1disk,,7,-4.5,-3.5,1,0,0,rectangle,-4.5,-3.5,1,0,0,,,,,,,-4.5,-3.5,1,0,0,,0,131,131,101,1,
,,,,,,,,,,,,,FF,,,,,,,,0.884,,,,,,,,,,,,,,,,,,,,,,60fd82694f2472bc8efe5f20,61036de82fb01a04f2fa7b2d,2021-07-29_23h12.43.177,Simcolourproject_2stim_asymm_v5,2020.2.10,Win32,60,61025ae37ef11b136ea224fe,,,,,,,,,2808,32,89.5,1,0,0,response1disk,,7,7,-10.5,1,0,0,rectangle,7,-10.5,1,0,0,,,,,,,7,-10.5,1,0,0,,0,132,132,126,1,
,,,,,,,,,,,,,FF,,,,,,,,0.5167,,,,,,,,,,,,,,,,,,,,,,60fd82694f2472bc8efe5f20,61036de82fb01a04f2fa7b2d,2021-07-29_23h12.43.177,Simcolourproject_2stim_asymm_v5,2020.2.10,Win32,60,61025ae37ef11b136ea224fe,,,,,,,,,2320,44.5,95.5,1,0,0,response1disk,,7,6.5,-18,1,0,0,rectangle,6.5,-18,1,0,0,,,,,,,6.5,-18,1,0,0,,0,133,133,105,1,
,,,,,,,,,,,,,FF,,,,,,,,0.8669,,,,,,,,,,,,,,,,,,,,,,60fd82694f2472bc8efe5f20,61036de82fb01a04f2fa7b2d,2021-07-29_23h12.43.177,Simcolourproject_2stim_asymm_v5,2020.2.10,Win32,60,61025ae37ef11b136ea224fe,,,,,,,,,1499,104.5,47.5,1,0,0,response1disk,,6,5,-12.5,1,0,0,rectangle,5,-12.5,1,0,0,,,,,,,5,-12.5,1,0,0,,0,134,134,133,1,
,,,,,,,,,,,,,FF,,,,,,,,1.4341,,,,,,,,,,,,,,,,,,,,,,60fd82694f2472bc8efe5f20,61036de82fb01a04f2fa7b2d,2021-07-29_23h12.43.177,Simcolourproject_2stim_asymm_v5,2020.2.10,Win32,60,61025ae37ef11b136ea224fe,,,,,,,,,1613,46.5,-93,1,0,0,response3disk,,4,0,-15.5,1,0,0,rectangle,0,-15.5,1,0,0,,,,,,,0,-15.5,1,0,0,,0,135,135,144,1,
,,,,,,,,,,,,,FF,,,,,,,,0.8004,,,,,,,,,,,,,,,,,,,,,,60fd82694f2472bc8efe5f20,61036de82fb01a04f2fa7b2d,2021-07-29_23h12.43.177,Simcolourproject_2stim_asymm_v5,2020.2.10,Win32,60,61025ae37ef11b136ea224fe,,,,,,,,,102,55,-102,1,0,0,response3disk,,4,-2,13,1,0,0,rectangle,-2,13,1,0,0,,,,,,,-2,13,1,0,0,,0,136,136,104,1,
,,,,,,,,,,,,,FF,,,,,,,,1.4341,,,,,,,,,,,,,,,,,,,,,,60fd82694f2472bc8efe5f20,61036de82fb01a04f2fa7b2d,2021-07-29_23h12.43.177,Simcolourproject_2stim_asymm_v5,2020.2.10,Win32,60,61025ae37ef11b136ea224fe,,,,,,,,,1551,22.5,86,1,0,0,response1disk,,7,18,4,1,0,0,rectangle,18,4,1,0,0,,,,,,,18,4,1,0,0,,0,137,137,145,1,
,,,,,,,,,,,,,FF,,,,,,,,0.7672,,,,,,,,,,,,,,,,,,,,,,60fd82694f2472bc8efe5f20,61036de82fb01a04f2fa7b2d,2021-07-29_23h12.43.177,Simcolourproject_2stim_asymm_v5,2020.2.10,Win32,60,61025ae37ef11b136ea224fe,,,,,,,,,502,30,101.5,1,0,0,response1disk,,7,5,-5,1,0,0,rectangle,5,-5,1,0,0,,,,,,,5,-5,1,0,0,,0,138,138,38,1,
,,,,,,,,,,,,,FF,,,,,,,,0.4834,,,,,,,,,,,,,,,,,,,,,,60fd82694f2472bc8efe5f20,61036de82fb01a04f2fa7b2d,2021-07-29_23h12.43.177,Simcolourproject_2stim_asymm_v5,2020.2.10,Win32,60,61025ae37ef11b136ea224fe,,,,,,,,,3324,44.5,94,1,0,0,response1disk,,7,10,-14,1,0,0,rectangle,10,-14,1,0,0,,,,,,,10,-14,1,0,0,,0,139,139,17,1,
,,,,,,,,,,,,,FF,,,,,,,,0.584,,,,,,,,,,,,,,,,,,,,,,60fd82694f2472bc8efe5f20,61036de82fb01a04f2fa7b2d,2021-07-29_23h12.43.177,Simcolourproject_2stim_asymm_v5,2020.2.10,Win32,60,61025ae37ef11b136ea224fe,,,,,,,,,2160,-71.5,42.5,1,0,0,response7disk,,1,8,-5.5,1,0,0,rectangle,8,-5.5,1,0,0,,,,,,,8,-5.5,1,0,0,,0,140,140,64,1,
,,,,,,,,,,,,,FF,,,,,,,,1.0837,,,,,,,,,,,,,,,,,,,,,,60fd82694f2472bc8efe5f20,61036de82fb01a04f2fa7b2d,2021-07-29_23h12.43.177,Simcolourproject_2stim_asymm_v5,2020.2.10,Win32,60,61025ae37ef11b136ea224fe,,,,,,,,,2882,-36.5,-84.5,1,0,0,response5disk,,3,7,6,1,0,0,rectangle,39,92.5,1,0,0,response1disk_3,TRUE,7,7,"[298,103,142,201,251,1,166,5,288,176,167,5,177,93,320,56,194,17,193,120]",1.4676,1.5,17,1,0,0,rectangle,0,141,141,153,1,
,,,,,,,,,,,,,FF,,,,,,,,1.2679,,,,,,,,,,,,,,,,,,,,,,60fd82694f2472bc8efe5f20,61036de82fb01a04f2fa7b2d,2021-07-29_23h12.43.177,Simcolourproject_2stim_asymm_v5,2020.2.10,Win32,60,61025ae37ef11b136ea224fe,,,,,,,,,747,27,84,1,0,0,response1disk,,7,1,-5,1,0,0,rectangle,1,-5,1,0,0,,,,,,,1,-5,1,0,0,,0,142,142,116,1,
,,,,,,,,,,,,,FF,,,,,,,,0.7002,,,,,,,,,,,,,,,,,,,,,,60fd82694f2472bc8efe5f20,61036de82fb01a04f2fa7b2d,2021-07-29_23h12.43.177,Simcolourproject_2stim_asymm_v5,2020.2.10,Win32,60,61025ae37ef11b136ea224fe,,,,,,,,,2822,35.5,93,1,0,0,response1disk,,7,-0.5,3.5,1,0,0,rectangle,-0.5,3.5,1,0,0,,,,,,,-0.5,3.5,1,0,0,,0,143,143,54,1,
,,,,,,,,,,,,,FF,,,,,,,,0.9179,,,,,,,,,,,,,,,,,,,,,,60fd82694f2472bc8efe5f20,61036de82fb01a04f2fa7b2d,2021-07-29_23h12.43.177,Simcolourproject_2stim_asymm_v5,2020.2.10,Win32,60,61025ae37ef11b136ea224fe,,,,,,,,,789,32.5,89,1,0,0,response1disk,,7,1.5,-6,1,0,0,rectangle,1.5,-6,1,0,0,,,,,,,1.5,-6,1,0,0,,0,144,144,47,1,
,,,,,,,,,,,,,FF,,,,,,,,0.8175,,,,,,,,,,,,,,,,,,,,,,60fd82694f2472bc8efe5f20,61036de82fb01a04f2fa7b2d,2021-07-29_23h12.43.177,Simcolourproject_2stim_asymm_v5,2020.2.10,Win32,60,61025ae37ef11b136ea224fe,,,,,,,,,366,-86.5,-51,1,0,0,response5disk,,2,2,-1.5,1,0,0,rectangle,2,-1.5,1,0,0,,,,,,,2,-1.5,1,0,0,,0,145,145,45,1,
,,,,,,,,,,,,,FF,,,,,,,,2.0016,,,,,,,,,,,,,,,,,,,,,,60fd82694f2472bc8efe5f20,61036de82fb01a04f2fa7b2d,2021-07-29_23h12.43.177,Simcolourproject_2stim_asymm_v5,2020.2.10,Win32,60,61025ae37ef11b136ea224fe,,,,,,,,,3605,44,-87.5,1,0,0,response3disk,,4,-0.5,2.5,1,0,0,rectangle,-0.5,2.5,1,0,0,,,,,,,-0.5,2.5,1,0,0,,0,146,146,146,1,
,,,,,,,,,,,,,FF,,,,,,,,0.8675,,,,,,,,,,,,,,,,,,,,,,60fd82694f2472bc8efe5f20,61036de82fb01a04f2fa7b2d,2021-07-29_23h12.43.177,Simcolourproject_2stim_asymm_v5,2020.2.10,Win32,60,61025ae37ef11b136ea224fe,,,,,,,,,2913,49,78,1,0,0,response1disk,,7,6.5,-4,1,0,0,rectangle,6.5,-4,1,0,0,,,,,,,6.5,-4,1,0,0,,0,147,147,66,1,
,,,,,,,,,,,,,FF,,,,,,,,0.8674,,,,,,,,,,,,,,,,,,,,,,60fd82694f2472bc8efe5f20,61036de82fb01a04f2fa7b2d,2021-07-29_23h12.43.177,Simcolourproject_2stim_asymm_v5,2020.2.10,Win32,60,61025ae37ef11b136ea224fe,,,,,,,,,3105,-85,-41,1,0,0,response5disk,,2,-3.5,-2.5,1,0,0,rectangle,-3.5,-2.5,1,0,0,,,,,,,-3.5,-2.5,1,0,0,,0,148,148,30,1,
,,,,,,,,,,,,,FF,,,,,,,,0.7674,,,,,,,,,,,,,,,,,,,,,,60fd82694f2472bc8efe5f20,61036de82fb01a04f2fa7b2d,2021-07-29_23h12.43.177,Simcolourproject_2stim_asymm_v5,2020.2.10,Win32,60,61025ae37ef11b136ea224fe,,,,,,,,,2688,46.5,-87.5,1,0,0,response3disk,,4,-0.5,1,1,0,0,rectangle,-0.5,1,1,0,0,,,,,,,-0.5,1,1,0,0,,0,149,149,57,1,
,,,,,,,,,,,,,FF,,,,,,,,2.6685,,,,,,,,,,,,,,,,,,,,,,60fd82694f2472bc8efe5f20,61036de82fb01a04f2fa7b2d,2021-07-29_23h12.43.177,Simcolourproject_2stim_asymm_v5,2020.2.10,Win32,60,61025ae37ef11b136ea224fe,,,,,,,,,2825,-89.5,-44.5,1,0,0,response5disk,,2,-4,10,1,0,0,rectangle,-4,10,1,0,0,,,,,,,-4,10,1,0,0,,0,150,150,46,1,
,,,,,,,,,,,,,FF,,,,,,,,0.8503,,,,,,,,,,,,,,,,,,,,,,60fd82694f2472bc8efe5f20,61036de82fb01a04f2fa7b2d,2021-07-29_23h12.43.177,Simcolourproject_2stim_asymm_v5,2020.2.10,Win32,60,61025ae37ef11b136ea224fe,,,,,,,,,675,32.5,78,1,0,0,response1disk,,7,4,6.5,1,0,0,rectangle,4,6.5,1,0,0,,,,,,,4,6.5,1,0,0,,0,151,151,138,1,
,,,,,,,,,,,,,FF,,,,,,,,0.4168,,,,,,,,,,,,,,,,,,,,,,60fd82694f2472bc8efe5f20,61036de82fb01a04f2fa7b2d,2021-07-29_23h12.43.177,Simcolourproject_2stim_asymm_v5,2020.2.10,Win32,60,61025ae37ef11b136ea224fe,,,,,,,,,3083,37,71.5,1,0,0,response1disk,,7,17,1,1,0,0,rectangle,17,1,1,0,0,,,,,,,17,1,1,0,0,,0,152,152,63,1,
,,,,,,,,,,,,,FF,,,,,,,,0.533,,,,,,,,,,,,,,,,,,,,,,60fd82694f2472bc8efe5f20,61036de82fb01a04f2fa7b2d,2021-07-29_23h12.43.177,Simcolourproject_2stim_asymm_v5,2020.2.10,Win32,60,61025ae37ef11b136ea224fe,,,,,,,,,1540,28.5,89.5,1,0,0,response1disk,,7,-1,2,1,0,0,rectangle,-1,2,1,0,0,,,,,,,-1,2,1,0,0,,0,153,153,121,1,
,,,,,,,,,,,,,FF,,,,,,,,1.8013,,,,,,,,,,,,,,,,,,,,,,60fd82694f2472bc8efe5f20,61036de82fb01a04f2fa7b2d,2021-07-29_23h12.43.177,Simcolourproject_2stim_asymm_v5,2020.2.10,Win32,60,61025ae37ef11b136ea224fe,,,,,,,,,2288,-48,-90.5,1,0,0,response5disk,,3,6,-4,1,0,0,rectangle,6,-4,1,0,0,,,,,,,6,-4,1,0,0,,0,154,154,6,1,
,,,,,,,,,,,,,FF,,,,,,,,0.617,,,,,,,,,,,,,,,,,,,,,,60fd82694f2472bc8efe5f20,61036de82fb01a04f2fa7b2d,2021-07-29_23h12.43.177,Simcolourproject_2stim_asymm_v5,2020.2.10,Win32,60,61025ae37ef11b136ea224fe,,,,,,,,,493,30,78,1,0,0,response1disk,,7,-1.5,-1.5,1,0,0,rectangle,-1.5,-1.5,1,0,0,,,,,,,-1.5,-1.5,1,0,0,,0,155,155,75,1,
,,,,,,,,,,,,,FF,,,,,,,,0.8337,,,,,,,,,,,,,,,,,,,,,,60fd82694f2472bc8efe5f20,61036de82fb01a04f2fa7b2d,2021-07-29_23h12.43.177,Simcolourproject_2stim_asymm_v5,2020.2.10,Win32,60,61025ae37ef11b136ea224fe,,,,,,,,,3749,-43.5,-83.5,1,0,0,response5disk,,3,16,-9,1,0,0,rectangle,16,-9,1,0,0,,,,,,,16,-9,1,0,0,,0,156,156,51,1,
,,,,,,,,,,,,,FF,,,,,,,,0.7335,,,,,,,,,,,,,,,,,,,,,,60fd82694f2472bc8efe5f20,61036de82fb01a04f2fa7b2d,2021-07-29_23h12.43.177,Simcolourproject_2stim_asymm_v5,2020.2.10,Win32,60,61025ae37ef11b136ea224fe,,,,,,,,,1331,17,95,1,0,0,response1disk,,7,28,4.5,1,0,0,rectangle,28,4.5,1,0,0,,,,,,,28,4.5,1,0,0,,0,157,157,53,1,
,,,,,,,,,,,,,FF,,,,,,,,1.3835,,,,,,,,,,,,,,,,,,,,,,60fd82694f2472bc8efe5f20,61036de82fb01a04f2fa7b2d,2021-07-29_23h12.43.177,Simcolourproject_2stim_asymm_v5,2020.2.10,Win32,60,61025ae37ef11b136ea224fe,,,,,,,,,354,-55.5,-103,1,0,0,response5disk,,3,1.5,-2,1,0,0,rectangle,1.5,-2,1,0,0,,,,,,,1.5,-2,1,0,0,,0,158,158,158,1,
,,,,,,,,,,,,,FF,,,,,,,,0.8162,,,,,,,,,,,,,,,,,,,,,,60fd82694f2472bc8efe5f20,61036de82fb01a04f2fa7b2d,2021-07-29_23h12.43.177,Simcolourproject_2stim_asymm_v5,2020.2.10,Win32,60,61025ae37ef11b136ea224fe,,,,,,,,,3341,-83.5,-25.5,1,0,0,response5disk,,2,-1.5,-1,1,0,0,rectangle,-1.5,-1,1,0,0,,,,,,,-1.5,-1,1,0,0,,0,159,159,19,1,
,,,,,,,,,,,,,FF,,,,,,,,1.6178,,,,,,,,,,,,,,,,,,,,,,60fd82694f2472bc8efe5f20,61036de82fb01a04f2fa7b2d,2021-07-29_23h12.43.177,Simcolourproject_2stim_asymm_v5,2020.2.10,Win32,60,61025ae37ef11b136ea224fe,,,,,,,,,4117,-35.5,-110,1,0,0,response5disk,,3,6.5,-10,1,0,0,rectangle,6.5,-10,1,0,0,,,,,,,6.5,-10,1,0,0,,1,0,160,79,1,
,,,,,,,,,,,,,FF,,,,,,,,0.6165,,,,,,,,,,,,,,,,,,,,,,60fd82694f2472bc8efe5f20,61036de82fb01a04f2fa7b2d,2021-07-29_23h12.43.177,Simcolourproject_2stim_asymm_v5,2020.2.10,Win32,60,61025ae37ef11b136ea224fe,,,,,,,,,1400,23,76.5,1,0,0,response1disk,,7,8.5,-4,1,0,0,rectangle,8.5,-4,1,0,0,,,,,,,8.5,-4,1,0,0,,1,1,161,70,1,
,,,,,,,,,,,,,FF,,,,,,,,0.5665,,,,,,,,,,,,,,,,,,,,,,60fd82694f2472bc8efe5f20,61036de82fb01a04f2fa7b2d,2021-07-29_23h12.43.177,Simcolourproject_2stim_asymm_v5,2020.2.10,Win32,60,61025ae37ef11b136ea224fe,,,,,,,,,363,41.5,81.5,1,0,0,response1disk,,7,5.5,-12.5,1,0,0,rectangle,5.5,-12.5,1,0,0,,,,,,,5.5,-12.5,1,0,0,,1,2,162,117,1,
,,,,,,,,,,,,,FF,,,,,,,,0.5829,,,,,,,,,,,,,,,,,,,,,,60fd82694f2472bc8efe5f20,61036de82fb01a04f2fa7b2d,2021-07-29_23h12.43.177,Simcolourproject_2stim_asymm_v5,2020.2.10,Win32,60,61025ae37ef11b136ea224fe,,,,,,,,,4045,44.5,92.5,1,0,0,response1disk,,7,2,10,1,0,0,rectangle,2,10,1,0,0,,,,,,,2,10,1,0,0,,1,3,163,64,1,
,,,,,,,,,,,,,FF,,,,,,,,1.2171,,,,,,,,,,,,,,,,,,,,,,60fd82694f2472bc8efe5f20,61036de82fb01a04f2fa7b2d,2021-07-29_23h12.43.177,Simcolourproject_2stim_asymm_v5,2020.2.10,Win32,60,61025ae37ef11b136ea224fe,,,,,,,,,4022,-87.5,-40,1,0,0,response5disk,,2,-2.5,-6,1,0,0,rectangle,-2.5,-6,1,0,0,,,,,,,-2.5,-6,1,0,0,,1,4,164,26,1,
,,,,,,,,,,,,,FF,,,,,,,,0.6334,,,,,,,,,,,,,,,,,,,,,,60fd82694f2472bc8efe5f20,61036de82fb01a04f2fa7b2d,2021-07-29_23h12.43.177,Simcolourproject_2stim_asymm_v5,2020.2.10,Win32,60,61025ae37ef11b136ea224fe,,,,,,,,,2256,29.5,86.5,1,0,0,response1disk,,7,5,-8.5,1,0,0,rectangle,100,39,1,0,0,response1disk_3,TRUE,6,6,"[298,103,142,201,251,1,166,5,288,176,167,5,177,93,320,56,194,17,193,120]",1.4336,6,-2.5,1,0,0,rectangle,1,5,165,6,1,
,,,,,,,,,,,,,FF,,,,,,,,1.0674,,,,,,,,,,,,,,,,,,,,,,60fd82694f2472bc8efe5f20,61036de82fb01a04f2fa7b2d,2021-07-29_23h12.43.177,Simcolourproject_2stim_asymm_v5,2020.2.10,Win32,60,61025ae37ef11b136ea224fe,,,,,,,,,3115,-45,-89,1,0,0,response5disk,,3,-3.5,3.5,1,0,0,rectangle,82.5,38,1,0,0,response1disk_3,TRUE,6,6,"[298,103,142,201,251,1,166,5,288,176,167,5,177,93,320,56,194,17,193,120]",1.6349,-4,-14.5,1,0,0,rectangle,1,6,166,59,1,
,,,,,,,,,,,,,FF,,,,,,,,1.6339,,,,,,,,,,,,,,,,,,,,,,60fd82694f2472bc8efe5f20,61036de82fb01a04f2fa7b2d,2021-07-29_23h12.43.177,Simcolourproject_2stim_asymm_v5,2020.2.10,Win32,60,61025ae37ef11b136ea224fe,,,,,,,,,884,101,37,1,0,0,response1disk,,6,4,3.5,1,0,0,rectangle,4,3.5,1,0,0,,,,,,,4,3.5,1,0,0,,1,7,167,7,1,
,,,,,,,,,,,,,FF,,,,,,,,1.1164,,,,,,,,,,,,,,,,,,,,,,60fd82694f2472bc8efe5f20,61036de82fb01a04f2fa7b2d,2021-07-29_23h12.43.177,Simcolourproject_2stim_asymm_v5,2020.2.10,Win32,60,61025ae37ef11b136ea224fe,,,,,,,,,1547,24,65,1,0,0,response1disk,,7,-2,-13.5,1,0,0,rectangle,-2,-13.5,1,0,0,,,,,,,-2,-13.5,1,0,0,,1,8,168,15,1,
,,,,,,,,,,,,,FF,,,,,,,,0.8336,,,,,,,,,,,,,,,,,,,,,,60fd82694f2472bc8efe5f20,61036de82fb01a04f2fa7b2d,2021-07-29_23h12.43.177,Simcolourproject_2stim_asymm_v5,2020.2.10,Win32,60,61025ae37ef11b136ea224fe,,,,,,,,,3978,-35,-93.5,1,0,0,response5disk,,3,7,-4.5,1,0,0,rectangle,7,-4.5,1,0,0,,,,,,,7,-4.5,1,0,0,,1,9,169,81,1,
,,,,,,,,,,,,,FF,,,,,,,,1.484,,,,,,,,,,,,,,,,,,,,,,60fd82694f2472bc8efe5f20,61036de82fb01a04f2fa7b2d,2021-07-29_23h12.43.177,Simcolourproject_2stim_asymm_v5,2020.2.10,Win32,60,61025ae37ef11b136ea224fe,,,,,,,,,3725,-42.5,-98,1,0,0,response5disk,,3,2,2,1,0,0,rectangle,2,2,1,0,0,,,,,,,2,2,1,0,0,,1,10,170,40,1,
,,,,,,,,,,,,,FF,,,,,,,,0.617,,,,,,,,,,,,,,,,,,,,,,60fd82694f2472bc8efe5f20,61036de82fb01a04f2fa7b2d,2021-07-29_23h12.43.177,Simcolourproject_2stim_asymm_v5,2020.2.10,Win32,60,61025ae37ef11b136ea224fe,,,,,,,,,80,-89.5,-41.5,1,0,0,response5disk,,2,1.5,4.5,1,0,0,rectangle,1.5,4.5,1,0,0,,,,,,,1.5,4.5,1,0,0,,1,11,171,53,1,
,,,,,,,,,,,,,FF,,,,,,,,1.8007,,,,,,,,,,,,,,,,,,,,,,60fd82694f2472bc8efe5f20,61036de82fb01a04f2fa7b2d,2021-07-29_23h12.43.177,Simcolourproject_2stim_asymm_v5,2020.2.10,Win32,60,61025ae37ef11b136ea224fe,,,,,,,,,2987,-108,-45,1,0,0,response5disk,,2,5,-1.5,1,0,0,rectangle,5,-1.5,1,0,0,,,,,,,5,-1.5,1,0,0,,1,12,172,13,1,
,,,,,,,,,,,,,FF,,,,,,,,0.6504,,,,,,,,,,,,,,,,,,,,,,60fd82694f2472bc8efe5f20,61036de82fb01a04f2fa7b2d,2021-07-29_23h12.43.177,Simcolourproject_2stim_asymm_v5,2020.2.10,Win32,60,61025ae37ef11b136ea224fe,,,,,,,,,3386,-97,-42,1,0,0,response5disk,,2,1,4,1,0,0,rectangle,1,4,1,0,0,,,,,,,1,4,1,0,0,,1,13,173,150,1,
,,,,,,,,,,,,,FF,,,,,,,,0.6002,,,,,,,,,,,,,,,,,,,,,,60fd82694f2472bc8efe5f20,61036de82fb01a04f2fa7b2d,2021-07-29_23h12.43.177,Simcolourproject_2stim_asymm_v5,2020.2.10,Win32,60,61025ae37ef11b136ea224fe,,,,,,,,,3946,-86.5,-54.5,1,0,0,response5disk,,2,17,13.5,1,0,0,rectangle,17,13.5,1,0,0,,,,,,,17,13.5,1,0,0,,1,14,174,5,1,
,,,,,,,,,,,,,FF,,,,,,,,0.8502,,,,,,,,,,,,,,,,,,,,,,60fd82694f2472bc8efe5f20,61036de82fb01a04f2fa7b2d,2021-07-29_23h12.43.177,Simcolourproject_2stim_asymm_v5,2020.2.10,Win32,60,61025ae37ef11b136ea224fe,,,,,,,,,411,86.5,36,1,0,0,response1disk,,6,14,3,1,0,0,rectangle,105,-52.5,1,0,0,response3disk_3,TRUE,5,5,"[298,103,142,201,251,1,166,5,288,176,167,5,177,93,320,56,194,17,193,120]",1.7675,6,12.5,1,0,0,rectangle,1,15,175,134,1,
,,,,,,,,,,,,,FF,,,,,,,,0.6335,,,,,,,,,,,,,,,,,,,,,,60fd82694f2472bc8efe5f20,61036de82fb01a04f2fa7b2d,2021-07-29_23h12.43.177,Simcolourproject_2stim_asymm_v5,2020.2.10,Win32,60,61025ae37ef11b136ea224fe,,,,,,,,,783,86,-63.5,1,0,0,response3disk,,5,13.5,5,1,0,0,rectangle,-86,27.5,1,0,0,response7disk_3,TRUE,1,1,"[298,103,142,201,251,1,166,5,288,176,167,5,177,93,320,56,194,17,193,120]",1.4496,-2,-17.5,1,0,0,rectangle,1,16,176,25,1,
,,,,,,,,,,,,,FF,,,,,,,,0.817,,,,,,,,,,,,,,,,,,,,,,60fd82694f2472bc8efe5f20,61036de82fb01a04f2fa7b2d,2021-07-29_23h12.43.177,Simcolourproject_2stim_asymm_v5,2020.2.10,Win32,60,61025ae37ef11b136ea224fe,,,,,,,,,421,32,81.5,1,0,0,response1disk,,7,3.5,1,1,0,0,rectangle,3.5,1,1,0,0,,,,,,,3.5,1,1,0,0,,1,17,177,75,1,
,,,,,,,,,,,,,FF,,,,,,,,0.6998,,,,,,,,,,,,,,,,,,,,,,60fd82694f2472bc8efe5f20,61036de82fb01a04f2fa7b2d,2021-07-29_23h12.43.177,Simcolourproject_2stim_asymm_v5,2020.2.10,Win32,60,61025ae37ef11b136ea224fe,,,,,,,,,1605,-86.5,-46.5,1,0,0,response5disk,,2,10.5,-13.5,1,0,0,rectangle,10.5,-13.5,1,0,0,,,,,,,10.5,-13.5,1,0,0,,1,18,178,113,1,
,,,,,,,,,,,,,FF,,,,,,,,0.6997,,,,,,,,,,,,,,,,,,,,,,60fd82694f2472bc8efe5f20,61036de82fb01a04f2fa7b2d,2021-07-29_23h12.43.177,Simcolourproject_2stim_asymm_v5,2020.2.10,Win32,60,61025ae37ef11b136ea224fe,,,,,,,,,539,40.5,59.5,1,0,0,response1disk,,7,5.5,-1.5,1,0,0,rectangle,5.5,-1.5,1,0,0,,,,,,,5.5,-1.5,1,0,0,,1,19,179,43,1,
,,,,,,,,,,,,,FF,,,,,,,,0.5504,,,,,,,,,,,,,,,,,,,,,,60fd82694f2472bc8efe5f20,61036de82fb01a04f2fa7b2d,2021-07-29_23h12.43.177,Simcolourproject_2stim_asymm_v5,2020.2.10,Win32,60,61025ae37ef11b136ea224fe,,,,,,,,,2633,23,89.5,1,0,0,response1disk,,7,-11,-9,1,0,0,rectangle,-11,-9,1,0,0,,,,,,,-11,-9,1,0,0,,1,20,180,122,1,
,,,,,,,,,,,,,FF,,,,,,,,0.8002,,,,,,,,,,,,,,,,,,,,,,60fd82694f2472bc8efe5f20,61036de82fb01a04f2fa7b2d,2021-07-29_23h12.43.177,Simcolourproject_2stim_asymm_v5,2020.2.10,Win32,60,61025ae37ef11b136ea224fe,,,,,,,,,4099,-38,-110,1,0,0,response5disk,,3,-3.5,-5.5,1,0,0,rectangle,-3.5,-5.5,1,0,0,,,,,,,-3.5,-5.5,1,0,0,,1,21,181,151,1,
,,,,,,,,,,,,,FF,,,,,,,,1.7177,,,,,,,,,,,,,,,,,,,,,,60fd82694f2472bc8efe5f20,61036de82fb01a04f2fa7b2d,2021-07-29_23h12.43.177,Simcolourproject_2stim_asymm_v5,2020.2.10,Win32,60,61025ae37ef11b136ea224fe,,,,,,,,,2681,69,49,1,0,0,response1disk,,6,-4,0.5,1,0,0,rectangle,-4,0.5,1,0,0,,,,,,,-4,0.5,1,0,0,,1,22,182,76,1,
,,,,,,,,,,,,,FF,,,,,,,,1.351,,,,,,,,,,,,,,,,,,,,,,60fd82694f2472bc8efe5f20,61036de82fb01a04f2fa7b2d,2021-07-29_23h12.43.177,Simcolourproject_2stim_asymm_v5,2020.2.10,Win32,60,61025ae37ef11b136ea224fe,,,,,,,,,1883,103,-53.5,1,0,0,response3disk,,5,6.5,-2.5,1,0,0,rectangle,6.5,-2.5,1,0,0,,,,,,,6.5,-2.5,1,0,0,,1,23,183,96,1,
,,,,,,,,,,,,,FF,,,,,,,,1.3003,,,,,,,,,,,,,,,,,,,,,,60fd82694f2472bc8efe5f20,61036de82fb01a04f2fa7b2d,2021-07-29_23h12.43.177,Simcolourproject_2stim_asymm_v5,2020.2.10,Win32,60,61025ae37ef11b136ea224fe,,,,,,,,,84,41.5,68.5,1,0,0,response1disk,,7,-2,-8.5,1,0,0,rectangle,-2,-8.5,1,0,0,,,,,,,-2,-8.5,1,0,0,,1,24,184,34,1,
,,,,,,,,,,,,,FF,,,,,,,,0.6836,,,,,,,,,,,,,,,,,,,,,,60fd82694f2472bc8efe5f20,61036de82fb01a04f2fa7b2d,2021-07-29_23h12.43.177,Simcolourproject_2stim_asymm_v5,2020.2.10,Win32,60,61025ae37ef11b136ea224fe,,,,,,,,,226,39.5,85.5,1,0,0,response1disk,,7,-1.5,4,1,0,0,rectangle,-1.5,4,1,0,0,,,,,,,-1.5,4,1,0,0,,1,25,185,140,1,
,,,,,,,,,,,,,FF,,,,,,,,1.4168,,,,,,,,,,,,,,,,,,,,,,60fd82694f2472bc8efe5f20,61036de82fb01a04f2fa7b2d,2021-07-29_23h12.43.177,Simcolourproject_2stim_asymm_v5,2020.2.10,Win32,60,61025ae37ef11b136ea224fe,,,,,,,,,1304,-45.5,-91.5,1,0,0,response5disk,,3,5.5,-1,1,0,0,rectangle,5.5,-1,1,0,0,,,,,,,5.5,-1,1,0,0,,1,26,186,35,1,
,,,,,,,,,,,,,FF,,,,,,,,0.7671,,,,,,,,,,,,,,,,,,,,,,60fd82694f2472bc8efe5f20,61036de82fb01a04f2fa7b2d,2021-07-29_23h12.43.177,Simcolourproject_2stim_asymm_v5,2020.2.10,Win32,60,61025ae37ef11b136ea224fe,,,,,,,,,2915,63,95,1,0,0,response1disk,,7,2,6.5,1,0,0,rectangle,2,6.5,1,0,0,,,,,,,2,6.5,1,0,0,,1,27,187,156,1,
,,,,,,,,,,,,,FF,,,,,,,,0.5494,,,,,,,,,,,,,,,,,,,,,,60fd82694f2472bc8efe5f20,61036de82fb01a04f2fa7b2d,2021-07-29_23h12.43.177,Simcolourproject_2stim_asymm_v5,2020.2.10,Win32,60,61025ae37ef11b136ea224fe,,,,,,,,,3415,41,100.5,1,0,0,response1disk,,7,6,-2.5,1,0,0,rectangle,6,-2.5,1,0,0,,,,,,,6,-2.5,1,0,0,,1,28,188,99,1,
,,,,,,,,,,,,,FF,,,,,,,,0.5835,,,,,,,,,,,,,,,,,,,,,,60fd82694f2472bc8efe5f20,61036de82fb01a04f2fa7b2d,2021-07-29_23h12.43.177,Simcolourproject_2stim_asymm_v5,2020.2.10,Win32,60,61025ae37ef11b136ea224fe,,,,,,,,,560,33,84.5,1,0,0,response1disk,,7,5,-16.5,1,0,0,rectangle,5,-16.5,1,0,0,,,,,,,5,-16.5,1,0,0,,1,29,189,92,1,
,,,,,,,,,,,,,FF,,,,,,,,0.6837,,,,,,,,,,,,,,,,,,,,,,60fd82694f2472bc8efe5f20,61036de82fb01a04f2fa7b2d,2021-07-29_23h12.43.177,Simcolourproject_2stim_asymm_v5,2020.2.10,Win32,60,61025ae37ef11b136ea224fe,,,,,,,,,2405,89,32.5,1,0,0,response1disk,,6,-2.5,-4.5,1,0,0,rectangle,-2.5,-4.5,1,0,0,,,,,,,-2.5,-4.5,1,0,0,,1,30,190,0,1,
,,,,,,,,,,,,,FF,,,,,,,,1.2518,,,,,,,,,,,,,,,,,,,,,,60fd82694f2472bc8efe5f20,61036de82fb01a04f2fa7b2d,2021-07-29_23h12.43.177,Simcolourproject_2stim_asymm_v5,2020.2.10,Win32,60,61025ae37ef11b136ea224fe,,,,,,,,,2905,47.5,-105,1,0,0,response3disk,,4,2,-7.5,1,0,0,rectangle,2,-7.5,1,0,0,,,,,,,2,-7.5,1,0,0,,1,31,191,132,1,
,,,,,,,,,,,,,FF,,,,,,,,0.7167,,,,,,,,,,,,,,,,,,,,,,60fd82694f2472bc8efe5f20,61036de82fb01a04f2fa7b2d,2021-07-29_23h12.43.177,Simcolourproject_2stim_asymm_v5,2020.2.10,Win32,60,61025ae37ef11b136ea224fe,,,,,,,,,4265,33,86,1,0,0,response1disk,,7,-7,-2,1,0,0,rectangle,83,-48,1,0,0,response3disk_3,TRUE,5,5,"[298,103,142,201,251,1,166,5,288,176,167,5,177,93,320,56,194,17,193,120]",1.0343,24.5,6,1,0,0,rectangle,1,32,192,116,1,
,,,,,,,,,,,,,FF,,,,,,,,0.7,,,,,,,,,,,,,,,,,,,,,,60fd82694f2472bc8efe5f20,61036de82fb01a04f2fa7b2d,2021-07-29_23h12.43.177,Simcolourproject_2stim_asymm_v5,2020.2.10,Win32,60,61025ae37ef11b136ea224fe,,,,,,,,,924,47,91.5,1,0,0,response1disk,,7,0.5,-11.5,1,0,0,rectangle,48.5,69,1,0,0,response1disk_3,TRUE,7,7,"[298,103,142,201,251,1,166,5,288,176,167,5,177,93,320,56,194,17,193,120]",1.8657,10,-2.5,1,0,0,rectangle,1,33,193,54,1,
,,,,,,,,,,,,,FF,,,,,,,,1.7006,,,,,,,,,,,,,,,,,,,,,,60fd82694f2472bc8efe5f20,61036de82fb01a04f2fa7b2d,2021-07-29_23h12.43.177,Simcolourproject_2stim_asymm_v5,2020.2.10,Win32,60,61025ae37ef11b136ea224fe,,,,,,,,,4360,-92.5,-42,1,0,0,response5disk,,2,2.5,-1,1,0,0,rectangle,2.5,-1,1,0,0,,,,,,,2.5,-1,1,0,0,,1,34,194,48,1,
,,,,,,,,,,,,,FF,,,,,,,,1.7675,,,,,,,,,,,,,,,,,,,,,,60fd82694f2472bc8efe5f20,61036de82fb01a04f2fa7b2d,2021-07-29_23h12.43.177,Simcolourproject_2stim_asymm_v5,2020.2.10,Win32,60,61025ae37ef11b136ea224fe,,,,,,,,,1534,-43,-100.5,1,0,0,response5disk,,3,0.5,3,1,0,0,rectangle,0.5,3,1,0,0,,,,,,,0.5,3,1,0,0,,1,35,195,119,1,
,,,,,,,,,,,,,FF,,,,,,,,1.6512,,,,,,,,,,,,,,,,,,,,,,60fd82694f2472bc8efe5f20,61036de82fb01a04f2fa7b2d,2021-07-29_23h12.43.177,Simcolourproject_2stim_asymm_v5,2020.2.10,Win32,60,61025ae37ef11b136ea224fe,,,,,,,,,1430,92,-40.5,1,0,0,response3disk,,5,-3.5,7,1,0,0,rectangle,-3.5,7,1,0,0,,,,,,,-3.5,7,1,0,0,,1,36,196,17,1,
,,,,,,,,,,,,,FF,,,,,,,,0.6668,,,,,,,,,,,,,,,,,,,,,,60fd82694f2472bc8efe5f20,61036de82fb01a04f2fa7b2d,2021-07-29_23h12.43.177,Simcolourproject_2stim_asymm_v5,2020.2.10,Win32,60,61025ae37ef11b136ea224fe,,,,,,,,,2271,33.5,89.5,1,0,0,response1disk,,7,11.5,-2.5,1,0,0,rectangle,11.5,-2.5,1,0,0,,,,,,,11.5,-2.5,1,0,0,,1,37,197,46,1,
,,,,,,,,,,,,,FF,,,,,,,,0.4842,,,,,,,,,,,,,,,,,,,,,,60fd82694f2472bc8efe5f20,61036de82fb01a04f2fa7b2d,2021-07-29_23h12.43.177,Simcolourproject_2stim_asymm_v5,2020.2.10,Win32,60,61025ae37ef11b136ea224fe,,,,,,,,,1336,36.5,80,1,0,0,response1disk,,7,-5,12.5,1,0,0,rectangle,-5,12.5,1,0,0,,,,,,,-5,12.5,1,0,0,,1,38,198,78,1,
,,,,,,,,,,,,,FF,,,,,,,,1.1194,,,,,,,,,,,,,,,,,,,,,,60fd82694f2472bc8efe5f20,61036de82fb01a04f2fa7b2d,2021-07-29_23h12.43.177,Simcolourproject_2stim_asymm_v5,2020.2.10,Win32,60,61025ae37ef11b136ea224fe,,,,,,,,,1667,40.5,87,1,0,0,response1disk,,7,1,-17,1,0,0,rectangle,1,-17,1,0,0,,,,,,,1,-17,1,0,0,,1,39,199,63,1,
,,,,,,,,,,,,,FF,,,,,,,,1.5018,,,,,,,,,,,,,,,,,,,,,,60fd82694f2472bc8efe5f20,61036de82fb01a04f2fa7b2d,2021-07-29_23h12.43.177,Simcolourproject_2stim_asymm_v5,2020.2.10,Win32,60,61025ae37ef11b136ea224fe,,,,,,,,,1890,48.5,-96,1,0,0,response3disk,,4,-8.5,1.5,1,0,0,rectangle,-40.5,-102.5,1,0,0,response5disk_3,TRUE,3,3,"[298,103,142,201,251,1,166,5,288,176,167,5,177,93,320,56,194,17,193,120]",1.8502,12,8,1,0,0,rectangle,1,40,200,10,1,
,,,,,,,,,,,,,FF,,,,,,,,1.634,,,,,,,,,,,,,,,,,,,,,,60fd82694f2472bc8efe5f20,61036de82fb01a04f2fa7b2d,2021-07-29_23h12.43.177,Simcolourproject_2stim_asymm_v5,2020.2.10,Win32,60,61025ae37ef11b136ea224fe,,,,,,,,,3058,-93,-40,1,0,0,response5disk,,2,0,-1,1,0,0,rectangle,0,-1,1,0,0,,,,,,,0,-1,1,0,0,,1,41,201,49,1,
,,,,,,,,,,,,,FF,,,,,,,,1.5179,,,,,,,,,,,,,,,,,,,,,,60fd82694f2472bc8efe5f20,61036de82fb01a04f2fa7b2d,2021-07-29_23h12.43.177,Simcolourproject_2stim_asymm_v5,2020.2.10,Win32,60,61025ae37ef11b136ea224fe,,,,,,,,,152,39.5,89.5,1,0,0,response1disk,,7,0,-1.5,1,0,0,rectangle,0,-1.5,1,0,0,,,,,,,0,-1.5,1,0,0,,1,42,202,109,1,
,,,,,,,,,,,,,FF,,,,,,,,4.0023,,,,,,,,,,,,,,,,,,,,,,60fd82694f2472bc8efe5f20,61036de82fb01a04f2fa7b2d,2021-07-29_23h12.43.177,Simcolourproject_2stim_asymm_v5,2020.2.10,Win32,60,61025ae37ef11b136ea224fe,,,,,,,,,1800,30.5,68.5,1,0,0,response1disk,,7,4,-9,1,0,0,rectangle,4,-9,1,0,0,,,,,,,4,-9,1,0,0,,1,43,203,42,1,
,,,,,,,,,,,,,FF,,,,,,,,1.3839,,,,,,,,,,,,,,,,,,,,,,60fd82694f2472bc8efe5f20,61036de82fb01a04f2fa7b2d,2021-07-29_23h12.43.177,Simcolourproject_2stim_asymm_v5,2020.2.10,Win32,60,61025ae37ef11b136ea224fe,,,,,,,,,2021,-41.5,-97.5,1,0,0,response5disk,,3,-8.5,-16.5,1,0,0,rectangle,-8.5,-16.5,1,0,0,,,,,,,-8.5,-16.5,1,0,0,,1,44,204,86,1,
,,,,,,,,,,,,,FF,,,,,,,,1.1334,,,,,,,,,,,,,,,,,,,,,,60fd82694f2472bc8efe5f20,61036de82fb01a04f2fa7b2d,2021-07-29_23h12.43.177,Simcolourproject_2stim_asymm_v5,2020.2.10,Win32,60,61025ae37ef11b136ea224fe,,,,,,,,,2140,21,96.5,1,0,0,response1disk,,7,-2.5,-9.5,1,0,0,rectangle,-2.5,-9.5,1,0,0,,,,,,,-2.5,-9.5,1,0,0,,1,45,205,16,1,
,,,,,,,,,,,,,FF,,,,,,,,1.3676,,,,,,,,,,,,,,,,,,,,,,60fd82694f2472bc8efe5f20,61036de82fb01a04f2fa7b2d,2021-07-29_23h12.43.177,Simcolourproject_2stim_asymm_v5,2020.2.10,Win32,60,61025ae37ef11b136ea224fe,,,,,,,,,2489,31.5,-90,1,0,0,response3disk,,4,1.5,2,1,0,0,rectangle,1.5,2,1,0,0,,,,,,,1.5,2,1,0,0,,1,46,206,145,1,
,,,,,,,,,,,,,FF,,,,,,,,1.2838,,,,,,,,,,,,,,,,,,,,,,60fd82694f2472bc8efe5f20,61036de82fb01a04f2fa7b2d,2021-07-29_23h12.43.177,Simcolourproject_2stim_asymm_v5,2020.2.10,Win32,60,61025ae37ef11b136ea224fe,,,,,,,,,3736,-37,-89,1,0,0,response5disk,,3,-1,-3.5,1,0,0,rectangle,-1,-3.5,1,0,0,,,,,,,-1,-3.5,1,0,0,,1,47,207,115,1,
,,,,,,,,,,,,,FF,,,,,,,,0.7671,,,,,,,,,,,,,,,,,,,,,,60fd82694f2472bc8efe5f20,61036de82fb01a04f2fa7b2d,2021-07-29_23h12.43.177,Simcolourproject_2stim_asymm_v5,2020.2.10,Win32,60,61025ae37ef11b136ea224fe,,,,,,,,,2484,-38.5,-93,1,0,0,response5disk,,3,1.5,11.5,1,0,0,rectangle,1.5,11.5,1,0,0,,,,,,,1.5,11.5,1,0,0,,1,48,208,112,1,
,,,,,,,,,,,,,FF,,,,,,,,0.6838,,,,,,,,,,,,,,,,,,,,,,60fd82694f2472bc8efe5f20,61036de82fb01a04f2fa7b2d,2021-07-29_23h12.43.177,Simcolourproject_2stim_asymm_v5,2020.2.10,Win32,60,61025ae37ef11b136ea224fe,,,,,,,,,3311,44.5,96,1,0,0,response1disk,,7,18,4,1,0,0,rectangle,18,4,1,0,0,,,,,,,18,4,1,0,0,,1,49,209,97,1,
,,,,,,,,,,,,,FF,,,,,,,,1.1005,,,,,,,,,,,,,,,,,,,,,,60fd82694f2472bc8efe5f20,61036de82fb01a04f2fa7b2d,2021-07-29_23h12.43.177,Simcolourproject_2stim_asymm_v5,2020.2.10,Win32,60,61025ae37ef11b136ea224fe,,,,,,,,,3887,-82,39,1,0,0,response7disk,,1,3.5,-4.5,1,0,0,rectangle,3.5,-4.5,1,0,0,,,,,,,3.5,-4.5,1,0,0,,1,50,210,159,1,
,,,,,,,,,,,,,FF,,,,,,,,0.9501,,,,,,,,,,,,,,,,,,,,,,60fd82694f2472bc8efe5f20,61036de82fb01a04f2fa7b2d,2021-07-29_23h12.43.177,Simcolourproject_2stim_asymm_v5,2020.2.10,Win32,60,61025ae37ef11b136ea224fe,,,,,,,,,1285,-40,-101,1,0,0,response5disk,,3,2,-16,1,0,0,rectangle,2,-16,1,0,0,,,,,,,2,-16,1,0,0,,1,51,211,95,1,
,,,,,,,,,,,,,FF,,,,,,,,0.6666,,,,,,,,,,,,,,,,,,,,,,60fd82694f2472bc8efe5f20,61036de82fb01a04f2fa7b2d,2021-07-29_23h12.43.177,Simcolourproject_2stim_asymm_v5,2020.2.10,Win32,60,61025ae37ef11b136ea224fe,,,,,,,,,2990,-40.5,-97.5,1,0,0,response5disk,,3,4,-18,1,0,0,rectangle,4,-18,1,0,0,,,,,,,4,-18,1,0,0,,1,52,212,18,1,
,,,,,,,,,,,,,FF,,,,,,,,0.6497,,,,,,,,,,,,,,,,,,,,,,60fd82694f2472bc8efe5f20,61036de82fb01a04f2fa7b2d,2021-07-29_23h12.43.177,Simcolourproject_2stim_asymm_v5,2020.2.10,Win32,60,61025ae37ef11b136ea224fe,,,,,,,,,3082,35.5,86.5,1,0,0,response1disk,,7,5.5,-0.5,1,0,0,rectangle,5.5,-0.5,1,0,0,,,,,,,5.5,-0.5,1,0,0,,1,53,213,84,1,
,,,,,,,,,,,,,FF,,,,,,,,0.5839,,,,,,,,,,,,,,,,,,,,,,60fd82694f2472bc8efe5f20,61036de82fb01a04f2fa7b2d,2021-07-29_23h12.43.177,Simcolourproject_2stim_asymm_v5,2020.2.10,Win32,60,61025ae37ef11b136ea224fe,,,,,,,,,2542,-78,38,1,0,0,response7disk,,1,23,-1,1,0,0,rectangle,23,-1,1,0,0,,,,,,,23,-1,1,0,0,,1,54,214,138,1,
,,,,,,,,,,,,,FF,,,,,,,,1.0165,,,,,,,,,,,,,,,,,,,,,,60fd82694f2472bc8efe5f20,61036de82fb01a04f2fa7b2d,2021-07-29_23h12.43.177,Simcolourproject_2stim_asymm_v5,2020.2.10,Win32,60,61025ae37ef11b136ea224fe,,,,,,,,,1843,93.5,37.5,1,0,0,response1disk,,6,-0.5,-1.5,1,0,0,rectangle,-0.5,-1.5,1,0,0,,,,,,,-0.5,-1.5,1,0,0,,1,55,215,72,1,
,,,,,,,,,,,,,FF,,,,,,,,0.5163,,,,,,,,,,,,,,,,,,,,,,60fd82694f2472bc8efe5f20,61036de82fb01a04f2fa7b2d,2021-07-29_23h12.43.177,Simcolourproject_2stim_asymm_v5,2020.2.10,Win32,60,61025ae37ef11b136ea224fe,,,,,,,,,1298,-88.5,24.5,1,0,0,response7disk,,1,16,-18,1,0,0,rectangle,16,-18,1,0,0,,,,,,,16,-18,1,0,0,,1,56,216,20,1,
,,,,,,,,,,,,,FF,,,,,,,,0.8668,,,,,,,,,,,,,,,,,,,,,,60fd82694f2472bc8efe5f20,61036de82fb01a04f2fa7b2d,2021-07-29_23h12.43.177,Simcolourproject_2stim_asymm_v5,2020.2.10,Win32,60,61025ae37ef11b136ea224fe,,,,,,,,,244,88,39,1,0,0,response1disk,,6,-7,-17,1,0,0,rectangle,-7,-17,1,0,0,,,,,,,-7,-17,1,0,0,,1,57,217,11,1,
,,,,,,,,,,,,,FF,,,,,,,,1.1835,,,,,,,,,,,,,,,,,,,,,,60fd82694f2472bc8efe5f20,61036de82fb01a04f2fa7b2d,2021-07-29_23h12.43.177,Simcolourproject_2stim_asymm_v5,2020.2.10,Win32,60,61025ae37ef11b136ea224fe,,,,,,,,,3714,-37.5,-90,1,0,0,response5disk,,3,14.5,6.5,1,0,0,rectangle,14.5,6.5,1,0,0,,,,,,,14.5,6.5,1,0,0,,1,58,218,61,1,
,,,,,,,,,,,,,FF,,,,,,,,0.6504,,,,,,,,,,,,,,,,,,,,,,60fd82694f2472bc8efe5f20,61036de82fb01a04f2fa7b2d,2021-07-29_23h12.43.177,Simcolourproject_2stim_asymm_v5,2020.2.10,Win32,60,61025ae37ef11b136ea224fe,,,,,,,,,1808,59.5,-111,1,0,0,response3disk,,4,7,-1,1,0,0,rectangle,7,-1,1,0,0,,,,,,,7,-1,1,0,0,,1,59,219,91,1,
,,,,,,,,,,,,,FF,,,,,,,,1.0999,,,,,,,,,,,,,,,,,,,,,,60fd82694f2472bc8efe5f20,61036de82fb01a04f2fa7b2d,2021-07-29_23h12.43.177,Simcolourproject_2stim_asymm_v5,2020.2.10,Win32,60,61025ae37ef11b136ea224fe,,,,,,,,,812,44.5,-92.5,1,0,0,response3disk,,4,1,2,1,0,0,rectangle,1,2,1,0,0,,,,,,,1,2,1,0,0,,1,60,220,157,1,
,,,,,,,,,,,,,FF,,,,,,,,3.1874,,,,,,,,,,,,,,,,,,,,,,60fd82694f2472bc8efe5f20,61036de82fb01a04f2fa7b2d,2021-07-29_23h12.43.177,Simcolourproject_2stim_asymm_v5,2020.2.10,Win32,60,61025ae37ef11b136ea224fe,,,,,,,,,2980,86.5,42.5,1,0,0,response1disk,,6,-18,-0.5,1,0,0,rectangle,-18,-0.5,1,0,0,,,,,,,-18,-0.5,1,0,0,,1,61,221,158,1,
,,,,,,,,,,,,,FF,,,,,,,,0.7505,,,,,,,,,,,,,,,,,,,,,,60fd82694f2472bc8efe5f20,61036de82fb01a04f2fa7b2d,2021-07-29_23h12.43.177,Simcolourproject_2stim_asymm_v5,2020.2.10,Win32,60,61025ae37ef11b136ea224fe,,,,,,,,,1900,-48,-86,1,0,0,response5disk,,3,3,-1,1,0,0,rectangle,3,-1,1,0,0,,,,,,,3,-1,1,0,0,,1,62,222,114,1,
,,,,,,,,,,,,,FF,,,,,,,,1.8513,,,,,,,,,,,,,,,,,,,,,,60fd82694f2472bc8efe5f20,61036de82fb01a04f2fa7b2d,2021-07-29_23h12.43.177,Simcolourproject_2stim_asymm_v5,2020.2.10,Win32,60,61025ae37ef11b136ea224fe,,,,,,,,,26,66,40.5,1,0,0,response1disk,,6,-9.5,-3.5,1,0,0,rectangle,-9.5,-3.5,1,0,0,,,,,,,-9.5,-3.5,1,0,0,,1,63,223,73,1,
,,,,,,,,,,,,,FF,,,,,,,,0.65,,,,,,,,,,,,,,,,,,,,,,60fd82694f2472bc8efe5f20,61036de82fb01a04f2fa7b2d,2021-07-29_23h12.43.177,Simcolourproject_2stim_asymm_v5,2020.2.10,Win32,60,61025ae37ef11b136ea224fe,,,,,,,,,1420,82.5,39.5,1,0,0,response1disk,,6,3.5,3.5,1,0,0,rectangle,3.5,3.5,1,0,0,,,,,,,3.5,3.5,1,0,0,,1,64,224,126,1,
,,,,,,,,,,,,,FF,,,,,,,,0.9999,,,,,,,,,,,,,,,,,,,,,,60fd82694f2472bc8efe5f20,61036de82fb01a04f2fa7b2d,2021-07-29_23h12.43.177,Simcolourproject_2stim_asymm_v5,2020.2.10,Win32,60,61025ae37ef11b136ea224fe,,,,,,,,,1913,45,94,1,0,0,response1disk,,7,2,1,1,0,0,rectangle,2,1,1,0,0,,,,,,,2,1,1,0,0,,1,65,225,27,1,
,,,,,,,,,,,,,FF,,,,,,,,0.4495,,,,,,,,,,,,,,,,,,,,,,60fd82694f2472bc8efe5f20,61036de82fb01a04f2fa7b2d,2021-07-29_23h12.43.177,Simcolourproject_2stim_asymm_v5,2020.2.10,Win32,60,61025ae37ef11b136ea224fe,,,,,,,,,788,37.5,84,1,0,0,response1disk,,7,-3.5,-16,1,0,0,rectangle,-3.5,-16,1,0,0,,,,,,,-3.5,-16,1,0,0,,1,66,226,67,1,
,,,,,,,,,,,,,FF,,,,,,,,1.268,,,,,,,,,,,,,,,,,,,,,,60fd82694f2472bc8efe5f20,61036de82fb01a04f2fa7b2d,2021-07-29_23h12.43.177,Simcolourproject_2stim_asymm_v5,2020.2.10,Win32,60,61025ae37ef11b136ea224fe,,,,,,,,,3014,-40.5,-87,1,0,0,response5disk,,3,1,-11.5,1,0,0,rectangle,1,-11.5,1,0,0,,,,,,,1,-11.5,1,0,0,,1,67,227,94,1,
,,,,,,,,,,,,,FF,,,,,,,,0.7169,,,,,,,,,,,,,,,,,,,,,,60fd82694f2472bc8efe5f20,61036de82fb01a04f2fa7b2d,2021-07-29_23h12.43.177,Simcolourproject_2stim_asymm_v5,2020.2.10,Win32,60,61025ae37ef11b136ea224fe,,,,,,,,,1759,-45.5,-94,1,0,0,response5disk,,3,2,-8,1,0,0,rectangle,2,-8,1,0,0,,,,,,,2,-8,1,0,0,,1,68,228,37,1,
,,,,,,,,,,,,,FF,,,,,,,,0.867,,,,,,,,,,,,,,,,,,,,,,60fd82694f2472bc8efe5f20,61036de82fb01a04f2fa7b2d,2021-07-29_23h12.43.177,Simcolourproject_2stim_asymm_v5,2020.2.10,Win32,60,61025ae37ef11b136ea224fe,,,,,,,,,1227,40.5,-99.5,1,0,0,response3disk,,4,2,-13,1,0,0,rectangle,2,-13,1,0,0,,,,,,,2,-13,1,0,0,,1,69,229,123,1,
,,,,,,,,,,,,,FF,,,,,,,,0.7169,,,,,,,,,,,,,,,,,,,,,,60fd82694f2472bc8efe5f20,61036de82fb01a04f2fa7b2d,2021-07-29_23h12.43.177,Simcolourproject_2stim_asymm_v5,2020.2.10,Win32,60,61025ae37ef11b136ea224fe,,,,,,,,,3312,103,-53,1,0,0,response3disk,,5,3.5,-2.5,1,0,0,rectangle,3.5,-2.5,1,0,0,,,,,,,3.5,-2.5,1,0,0,,1,70,230,65,1,
,,,,,,,,,,,,,FF,,,,,,,,1.3673,,,,,,,,,,,,,,,,,,,,,,60fd82694f2472bc8efe5f20,61036de82fb01a04f2fa7b2d,2021-07-29_23h12.43.177,Simcolourproject_2stim_asymm_v5,2020.2.10,Win32,60,61025ae37ef11b136ea224fe,,,,,,,,,161,103.5,52.5,1,0,0,response1disk,,6,2,-13.5,1,0,0,rectangle,2,-13.5,1,0,0,,,,,,,2,-13.5,1,0,0,,1,71,231,143,1,
,,,,,,,,,,,,,FF,,,,,,,,0.6835,,,,,,,,,,,,,,,,,,,,,,60fd82694f2472bc8efe5f20,61036de82fb01a04f2fa7b2d,2021-07-29_23h12.43.177,Simcolourproject_2stim_asymm_v5,2020.2.10,Win32,60,61025ae37ef11b136ea224fe,,,,,,,,,926,33.5,92.5,1,0,0,response1disk,,7,-3,-0.5,1,0,0,rectangle,-3,-0.5,1,0,0,,,,,,,-3,-0.5,1,0,0,,1,72,232,28,1,
,,,,,,,,,,,,,FF,,,,,,,,0.4499,,,,,,,,,,,,,,,,,,,,,,60fd82694f2472bc8efe5f20,61036de82fb01a04f2fa7b2d,2021-07-29_23h12.43.177,Simcolourproject_2stim_asymm_v5,2020.2.10,Win32,60,61025ae37ef11b136ea224fe,,,,,,,,,1645,39,77,1,0,0,response1disk,,7,-14,8.5,1,0,0,rectangle,-14,8.5,1,0,0,,,,,,,-14,8.5,1,0,0,,1,73,233,60,1,
,,,,,,,,,,,,,FF,,,,,,,,0.4835,,,,,,,,,,,,,,,,,,,,,,60fd82694f2472bc8efe5f20,61036de82fb01a04f2fa7b2d,2021-07-29_23h12.43.177,Simcolourproject_2stim_asymm_v5,2020.2.10,Win32,60,61025ae37ef11b136ea224fe,,,,,,,,,2959,28,90.5,1,0,0,response1disk,,7,5,-3.5,1,0,0,rectangle,5,-3.5,1,0,0,,,,,,,5,-3.5,1,0,0,,1,74,234,131,1,
,,,,,,,,,,,,,FF,,,,,,,,0.5997,,,,,,,,,,,,,,,,,,,,,,60fd82694f2472bc8efe5f20,61036de82fb01a04f2fa7b2d,2021-07-29_23h12.43.177,Simcolourproject_2stim_asymm_v5,2020.2.10,Win32,60,61025ae37ef11b136ea224fe,,,,,,,,,4133,17.5,105.5,1,0,0,response1disk,,7,-0.5,-13.5,1,0,0,rectangle,-0.5,-13.5,1,0,0,,,,,,,-0.5,-13.5,1,0,0,,1,75,235,24,1,
,,,,,,,,,,,,,FF,,,,,,,,0.7161,,,,,,,,,,,,,,,,,,,,,,60fd82694f2472bc8efe5f20,61036de82fb01a04f2fa7b2d,2021-07-29_23h12.43.177,Simcolourproject_2stim_asymm_v5,2020.2.10,Win32,60,61025ae37ef11b136ea224fe,,,,,,,,,463,-49.5,-95,1,0,0,response5disk,,3,-2,-13,1,0,0,rectangle,-2,-13,1,0,0,,,,,,,-2,-13,1,0,0,,1,76,236,141,1,
,,,,,,,,,,,,,FF,,,,,,,,1.4509,,,,,,,,,,,,,,,,,,,,,,60fd82694f2472bc8efe5f20,61036de82fb01a04f2fa7b2d,2021-07-29_23h12.43.177,Simcolourproject_2stim_asymm_v5,2020.2.10,Win32,60,61025ae37ef11b136ea224fe,,,,,,,,,564,-44,-102,1,0,0,response5disk,,3,33.5,-3,1,0,0,rectangle,33.5,-3,1,0,0,,,,,,,33.5,-3,1,0,0,,1,77,237,144,1,
,,,,,,,,,,,,,FF,,,,,,,,1.0002,,,,,,,,,,,,,,,,,,,,,,60fd82694f2472bc8efe5f20,61036de82fb01a04f2fa7b2d,2021-07-29_23h12.43.177,Simcolourproject_2stim_asymm_v5,2020.2.10,Win32,60,61025ae37ef11b136ea224fe,,,,,,,,,1295,-44.5,-88.5,1,0,0,response5disk,,3,9.5,8,1,0,0,rectangle,9.5,8,1,0,0,,,,,,,9.5,8,1,0,0,,1,78,238,103,1,
,,,,,,,,,,,,,FF,,,,,,,,1.6508,,,,,,,,,,,,,,,,,,,,,,60fd82694f2472bc8efe5f20,61036de82fb01a04f2fa7b2d,2021-07-29_23h12.43.177,Simcolourproject_2stim_asymm_v5,2020.2.10,Win32,60,61025ae37ef11b136ea224fe,,,,,,,,,2077,94.5,-52,1,0,0,response3disk,,5,19.5,-1.5,1,0,0,rectangle,19.5,-1.5,1,0,0,,,,,,,19.5,-1.5,1,0,0,,1,79,239,82,1,
,,,,,,,,,,,,,FF,,,,,,,,0.9841,,,,,,,,,,,,,,,,,,,,,,60fd82694f2472bc8efe5f20,61036de82fb01a04f2fa7b2d,2021-07-29_23h12.43.177,Simcolourproject_2stim_asymm_v5,2020.2.10,Win32,60,61025ae37ef11b136ea224fe,,,,,,,,,2494,34.5,86,1,0,0,response1disk,,7,5,-8.5,1,0,0,rectangle,5,-8.5,1,0,0,,,,,,,5,-8.5,1,0,0,,1,80,240,41,1,
,,,,,,,,,,,,,FF,,,,,,,,0.983,,,,,,,,,,,,,,,,,,,,,,60fd82694f2472bc8efe5f20,61036de82fb01a04f2fa7b2d,2021-07-29_23h12.43.177,Simcolourproject_2stim_asymm_v5,2020.2.10,Win32,60,61025ae37ef11b136ea224fe,,,,,,,,,940,35,89,1,0,0,response1disk,,7,10.5,-1,1,0,0,rectangle,10.5,-1,1,0,0,,,,,,,10.5,-1,1,0,0,,1,81,241,68,1,
,,,,,,,,,,,,,FF,,,,,,,,1.0168,,,,,,,,,,,,,,,,,,,,,,60fd82694f2472bc8efe5f20,61036de82fb01a04f2fa7b2d,2021-07-29_23h12.43.177,Simcolourproject_2stim_asymm_v5,2020.2.10,Win32,60,61025ae37ef11b136ea224fe,,,,,,,,,1412,96.5,36.5,1,0,0,response1disk,,6,16,-17,1,0,0,rectangle,16,-17,1,0,0,,,,,,,16,-17,1,0,0,,1,82,242,106,1,
,,,,,,,,,,,,,FF,,,,,,,,1.9675,,,,,,,,,,,,,,,,,,,,,,60fd82694f2472bc8efe5f20,61036de82fb01a04f2fa7b2d,2021-07-29_23h12.43.177,Simcolourproject_2stim_asymm_v5,2020.2.10,Win32,60,61025ae37ef11b136ea224fe,,,,,,,,,1678,94,25,1,0,0,response1disk,,6,5.5,-6,1,0,0,rectangle,5.5,-6,1,0,0,,,,,,,5.5,-6,1,0,0,,1,83,243,146,1,
,,,,,,,,,,,,,FF,,,,,,,,1.3342,,,,,,,,,,,,,,,,,,,,,,60fd82694f2472bc8efe5f20,61036de82fb01a04f2fa7b2d,2021-07-29_23h12.43.177,Simcolourproject_2stim_asymm_v5,2020.2.10,Win32,60,61025ae37ef11b136ea224fe,,,,,,,,,2539,55,80,1,0,0,response1disk,,7,14.5,-18,1,0,0,rectangle,14.5,-18,1,0,0,,,,,,,14.5,-18,1,0,0,,1,84,244,133,1,
,,,,,,,,,,,,,FF,,,,,,,,0.9336,,,,,,,,,,,,,,,,,,,,,,60fd82694f2472bc8efe5f20,61036de82fb01a04f2fa7b2d,2021-07-29_23h12.43.177,Simcolourproject_2stim_asymm_v5,2020.2.10,Win32,60,61025ae37ef11b136ea224fe,,,,,,,,,2929,100.5,47.5,1,0,0,response1disk,,6,21,-1,1,0,0,rectangle,21,-1,1,0,0,,,,,,,21,-1,1,0,0,,1,85,245,127,1,
,,,,,,,,,,,,,FF,,,,,,,,9.9226,,,,,,,,,,,,,,,,,,,,,,60fd82694f2472bc8efe5f20,61036de82fb01a04f2fa7b2d,2021-07-29_23h12.43.177,Simcolourproject_2stim_asymm_v5,2020.2.10,Win32,60,61025ae37ef11b136ea224fe,,,,,,,,,3123,34.5,81.5,1,0,0,response1disk,,7,13,2,1,0,0,rectangle,13,2,1,0,0,,,,,,,13,2,1,0,0,,1,86,246,55,1,
,,,,,,,,,,,,,FF,,,,,,,,0.817,,,,,,,,,,,,,,,,,,,,,,60fd82694f2472bc8efe5f20,61036de82fb01a04f2fa7b2d,2021-07-29_23h12.43.177,Simcolourproject_2stim_asymm_v5,2020.2.10,Win32,60,61025ae37ef11b136ea224fe,,,,,,,,,3503,-88.5,-50.5,1,0,0,response5disk,,2,16,-1,1,0,0,rectangle,16,-1,1,0,0,,,,,,,16,-1,1,0,0,,1,87,247,9,1,
,,,,,,,,,,,,,FF,,,,,,,,0.7389,,,,,,,,,,,,,,,,,,,,,,60fd82694f2472bc8efe5f20,61036de82fb01a04f2fa7b2d,2021-07-29_23h12.43.177,Simcolourproject_2stim_asymm_v5,2020.2.10,Win32,60,61025ae37ef11b136ea224fe,,,,,,,,,2529,95,-41.5,1,0,0,response3disk,,5,-7.5,2.5,1,0,0,rectangle,-7.5,2.5,1,0,0,,,,,,,-7.5,2.5,1,0,0,,1,88,248,47,1,
,,,,,,,,,,,,,FF,,,,,,,,0.8667,,,,,,,,,,,,,,,,,,,,,,60fd82694f2472bc8efe5f20,61036de82fb01a04f2fa7b2d,2021-07-29_23h12.43.177,Simcolourproject_2stim_asymm_v5,2020.2.10,Win32,60,61025ae37ef11b136ea224fe,,,,,,,,,3818,-62,-42,1,0,0,response5disk,,2,10.5,-8.5,1,0,0,rectangle,10.5,-8.5,1,0,0,,,,,,,10.5,-8.5,1,0,0,,1,89,249,51,1,
,,,,,,,,,,,,,FF,,,,,,,,1.4501,,,,,,,,,,,,,,,,,,,,,,60fd82694f2472bc8efe5f20,61036de82fb01a04f2fa7b2d,2021-07-29_23h12.43.177,Simcolourproject_2stim_asymm_v5,2020.2.10,Win32,60,61025ae37ef11b136ea224fe,,,,,,,,,1657,39.5,83.5,1,0,0,response1disk,,7,9.5,-2.5,1,0,0,rectangle,44,-92.5,1,0,0,response3disk_3,TRUE,4,4,"[298,103,142,201,251,1,166,5,288,176,167,5,177,93,320,56,194,17,193,120]",1.1489,6.5,12.5,1,0,0,rectangle,1,90,250,147,1,
,,,,,,,,,,,,,FF,,,,,,,,1.6676,,,,,,,,,,,,,,,,,,,,,,60fd82694f2472bc8efe5f20,61036de82fb01a04f2fa7b2d,2021-07-29_23h12.43.177,Simcolourproject_2stim_asymm_v5,2020.2.10,Win32,60,61025ae37ef11b136ea224fe,,,,,,,,,4269,-88,-74,1,0,0,response5disk,,2,3,1,1,0,0,rectangle,3,1,1,0,0,,,,,,,3,1,1,0,0,,1,91,251,90,1,
,,,,,,,,,,,,,FF,,,,,,,,1.3839,,,,,,,,,,,,,,,,,,,,,,60fd82694f2472bc8efe5f20,61036de82fb01a04f2fa7b2d,2021-07-29_23h12.43.177,Simcolourproject_2stim_asymm_v5,2020.2.10,Win32,60,61025ae37ef11b136ea224fe,,,,,,,,,2466,26.5,85.5,1,0,0,response1disk,,7,-9,-0.5,1,0,0,rectangle,-9,-0.5,1,0,0,,,,,,,-9,-0.5,1,0,0,,1,92,252,152,1,
,,,,,,,,,,,,,FF,,,,,,,,0.5498,,,,,,,,,,,,,,,,,,,,,,60fd82694f2472bc8efe5f20,61036de82fb01a04f2fa7b2d,2021-07-29_23h12.43.177,Simcolourproject_2stim_asymm_v5,2020.2.10,Win32,60,61025ae37ef11b136ea224fe,,,,,,,,,386,34.5,81.5,1,0,0,response1disk,,7,24.5,1.5,1,0,0,rectangle,24.5,1.5,1,0,0,,,,,,,24.5,1.5,1,0,0,,1,93,253,69,1,
,,,,,,,,,,,,,FF,,,,,,,,0.8506,,,,,,,,,,,,,,,,,,,,,,60fd82694f2472bc8efe5f20,61036de82fb01a04f2fa7b2d,2021-07-29_23h12.43.177,Simcolourproject_2stim_asymm_v5,2020.2.10,Win32,60,61025ae37ef11b136ea224fe,,,,,,,,,2944,-84,-38.5,1,0,0,response5disk,,2,24,3,1,0,0,rectangle,24,3,1,0,0,,,,,,,24,3,1,0,0,,1,94,254,33,1,
,,,,,,,,,,,,,FF,,,,,,,,0.967,,,,,,,,,,,,,,,,,,,,,,60fd82694f2472bc8efe5f20,61036de82fb01a04f2fa7b2d,2021-07-29_23h12.43.177,Simcolourproject_2stim_asymm_v5,2020.2.10,Win32,60,61025ae37ef11b136ea224fe,,,,,,,,,2607,-76.5,27.5,1,0,0,response7disk,,1,22,-4.5,1,0,0,rectangle,22,-4.5,1,0,0,,,,,,,22,-4.5,1,0,0,,1,95,255,2,1,
,,,,,,,,,,,,,FF,,,,,,,,0.8173,,,,,,,,,,,,,,,,,,,,,,60fd82694f2472bc8efe5f20,61036de82fb01a04f2fa7b2d,2021-07-29_23h12.43.177,Simcolourproject_2stim_asymm_v5,2020.2.10,Win32,60,61025ae37ef11b136ea224fe,,,,,,,,,4123,-86.5,-47,1,0,0,response5disk,,2,2,-4.5,1,0,0,rectangle,2,-4.5,1,0,0,,,,,,,2,-4.5,1,0,0,,1,96,256,87,1,
,,,,,,,,,,,,,FF,,,,,,,,1.0002,,,,,,,,,,,,,,,,,,,,,,60fd82694f2472bc8efe5f20,61036de82fb01a04f2fa7b2d,2021-07-29_23h12.43.177,Simcolourproject_2stim_asymm_v5,2020.2.10,Win32,60,61025ae37ef11b136ea224fe,,,,,,,,,201,93.5,-44.5,1,0,0,response3disk,,5,1.5,-2,1,0,0,rectangle,1.5,-2,1,0,0,,,,,,,1.5,-2,1,0,0,,1,97,257,128,1,
,,,,,,,,,,,,,FF,,,,,,,,0.7496,,,,,,,,,,,,,,,,,,,,,,60fd82694f2472bc8efe5f20,61036de82fb01a04f2fa7b2d,2021-07-29_23h12.43.177,Simcolourproject_2stim_asymm_v5,2020.2.10,Win32,60,61025ae37ef11b136ea224fe,,,,,,,,,2675,93.5,-51,1,0,0,response3disk,,5,-13,-4.5,1,0,0,rectangle,-13,-4.5,1,0,0,,,,,,,-13,-4.5,1,0,0,,1,98,258,3,1,
,,,,,,,,,,,,,FF,,,,,,,,0.6835,,,,,,,,,,,,,,,,,,,,,,60fd82694f2472bc8efe5f20,61036de82fb01a04f2fa7b2d,2021-07-29_23h12.43.177,Simcolourproject_2stim_asymm_v5,2020.2.10,Win32,60,61025ae37ef11b136ea224fe,,,,,,,,,2296,-38.5,-98.5,1,0,0,response5disk,,3,10,10,1,0,0,rectangle,10,10,1,0,0,,,,,,,10,10,1,0,0,,1,99,259,8,1,
,,,,,,,,,,,,,FF,,,,,,,,2.4682,,,,,,,,,,,,,,,,,,,,,,60fd82694f2472bc8efe5f20,61036de82fb01a04f2fa7b2d,2021-07-29_23h12.43.177,Simcolourproject_2stim_asymm_v5,2020.2.10,Win32,60,61025ae37ef11b136ea224fe,,,,,,,,,4319,103.5,47,1,0,0,response1disk,,6,8,-4.5,1,0,0,rectangle,8,-4.5,1,0,0,,,,,,,8,-4.5,1,0,0,,1,100,260,100,1,
,,,,,,,,,,,,,FF,,,,,,,,0.9506,,,,,,,,,,,,,,,,,,,,,,60fd82694f2472bc8efe5f20,61036de82fb01a04f2fa7b2d,2021-07-29_23h12.43.177,Simcolourproject_2stim_asymm_v5,2020.2.10,Win32,60,61025ae37ef11b136ea224fe,,,,,,,,,3970,-111,-46,1,0,0,response5disk,,2,3,0.5,1,0,0,rectangle,3,0.5,1,0,0,,,,,,,3,0.5,1,0,0,,1,101,261,102,1,
,,,,,,,,,,,,,FF,,,,,,,,0.9506,,,,,,,,,,,,,,,,,,,,,,60fd82694f2472bc8efe5f20,61036de82fb01a04f2fa7b2d,2021-07-29_23h12.43.177,Simcolourproject_2stim_asymm_v5,2020.2.10,Win32,60,61025ae37ef11b136ea224fe,,,,,,,,,3820,-84,-43.5,1,0,0,response5disk,,2,-2.5,5.5,1,0,0,rectangle,-2.5,5.5,1,0,0,,,,,,,-2.5,5.5,1,0,0,,1,102,262,36,1,
,,,,,,,,,,,,,FF,,,,,,,,0.5996,,,,,,,,,,,,,,,,,,,,,,60fd82694f2472bc8efe5f20,61036de82fb01a04f2fa7b2d,2021-07-29_23h12.43.177,Simcolourproject_2stim_asymm_v5,2020.2.10,Win32,60,61025ae37ef11b136ea224fe,,,,,,,,,4049,-89,38,1,0,0,response7disk,,1,9.5,3,1,0,0,rectangle,9.5,3,1,0,0,,,,,,,9.5,3,1,0,0,,1,103,263,98,1,
,,,,,,,,,,,,,FF,,,,,,,,1.1335,,,,,,,,,,,,,,,,,,,,,,60fd82694f2472bc8efe5f20,61036de82fb01a04f2fa7b2d,2021-07-29_23h12.43.177,Simcolourproject_2stim_asymm_v5,2020.2.10,Win32,60,61025ae37ef11b136ea224fe,,,,,,,,,2450,40,76,1,0,0,response1disk,,7,15,-1,1,0,0,rectangle,15,-1,1,0,0,,,,,,,15,-1,1,0,0,,1,104,264,29,1,
,,,,,,,,,,,,,FF,,,,,,,,1.0556,,,,,,,,,,,,,,,,,,,,,,60fd82694f2472bc8efe5f20,61036de82fb01a04f2fa7b2d,2021-07-29_23h12.43.177,Simcolourproject_2stim_asymm_v5,2020.2.10,Win32,60,61025ae37ef11b136ea224fe,,,,,,,,,3860,24.5,84.5,1,0,0,response1disk,,7,13,0,1,0,0,rectangle,13,0,1,0,0,,,,,,,13,0,1,0,0,,1,105,265,149,1,
,,,,,,,,,,,,,FF,,,,,,,,1.5176,,,,,,,,,,,,,,,,,,,,,,60fd82694f2472bc8efe5f20,61036de82fb01a04f2fa7b2d,2021-07-29_23h12.43.177,Simcolourproject_2stim_asymm_v5,2020.2.10,Win32,60,61025ae37ef11b136ea224fe,,,,,,,,,3851,52.5,-97,1,0,0,response3disk,,4,-14.5,-3,1,0,0,rectangle,-14.5,-3,1,0,0,,,,,,,-14.5,-3,1,0,0,,1,106,266,14,1,
,,,,,,,,,,,,,FF,,,,,,,,1.2004,,,,,,,,,,,,,,,,,,,,,,60fd82694f2472bc8efe5f20,61036de82fb01a04f2fa7b2d,2021-07-29_23h12.43.177,Simcolourproject_2stim_asymm_v5,2020.2.10,Win32,60,61025ae37ef11b136ea224fe,,,,,,,,,667,96.5,-53.5,1,0,0,response3disk,,5,-5,12.5,1,0,0,rectangle,-5,12.5,1,0,0,,,,,,,-5,12.5,1,0,0,,1,107,267,74,1,
,,,,,,,,,,,,,FF,,,,,,,,0.7836,,,,,,,,,,,,,,,,,,,,,,60fd82694f2472bc8efe5f20,61036de82fb01a04f2fa7b2d,2021-07-29_23h12.43.177,Simcolourproject_2stim_asymm_v5,2020.2.10,Win32,60,61025ae37ef11b136ea224fe,,,,,,,,,3928,60,-117,1,0,0,response3disk,,4,-9.5,4,1,0,0,rectangle,-9.5,4,1,0,0,,,,,,,-9.5,4,1,0,0,,1,108,268,1,1,
,,,,,,,,,,,,,FF,,,,,,,,0.7171,,,,,,,,,,,,,,,,,,,,,,60fd82694f2472bc8efe5f20,61036de82fb01a04f2fa7b2d,2021-07-29_23h12.43.177,Simcolourproject_2stim_asymm_v5,2020.2.10,Win32,60,61025ae37ef11b136ea224fe,,,,,,,,,3916,43.5,86,1,0,0,response1disk,,7,11.5,-6,1,0,0,rectangle,11.5,-6,1,0,0,,,,,,,11.5,-6,1,0,0,,1,109,269,89,1,
,,,,,,,,,,,,,FF,,,,,,,,0.9838,,,,,,,,,,,,,,,,,,,,,,60fd82694f2472bc8efe5f20,61036de82fb01a04f2fa7b2d,2021-07-29_23h12.43.177,Simcolourproject_2stim_asymm_v5,2020.2.10,Win32,60,61025ae37ef11b136ea224fe,,,,,,,,,2180,49,-111,1,0,0,response3disk,,4,0.5,-1.5,1,0,0,rectangle,0.5,-1.5,1,0,0,,,,,,,0.5,-1.5,1,0,0,,1,110,270,153,1,
,,,,,,,,,,,,,FF,,,,,,,,0.867,,,,,,,,,,,,,,,,,,,,,,60fd82694f2472bc8efe5f20,61036de82fb01a04f2fa7b2d,2021-07-29_23h12.43.177,Simcolourproject_2stim_asymm_v5,2020.2.10,Win32,60,61025ae37ef11b136ea224fe,,,,,,,,,1311,51,-101.5,1,0,0,response3disk,,4,-10.5,-7,1,0,0,rectangle,-10.5,-7,1,0,0,,,,,,,-10.5,-7,1,0,0,,1,111,271,32,1,
,,,,,,,,,,,,,FF,,,,,,,,2.6683,,,,,,,,,,,,,,,,,,,,,,60fd82694f2472bc8efe5f20,61036de82fb01a04f2fa7b2d,2021-07-29_23h12.43.177,Simcolourproject_2stim_asymm_v5,2020.2.10,Win32,60,61025ae37ef11b136ea224fe,,,,,,,,,1878,98.5,38.5,1,0,0,response1disk,,6,-5,5,1,0,0,rectangle,-5,5,1,0,0,,,,,,,-5,5,1,0,0,,1,112,272,22,1,
,,,,,,,,,,,,,FF,,,,,,,,2.4013,,,,,,,,,,,,,,,,,,,,,,60fd82694f2472bc8efe5f20,61036de82fb01a04f2fa7b2d,2021-07-29_23h12.43.177,Simcolourproject_2stim_asymm_v5,2020.2.10,Win32,60,61025ae37ef11b136ea224fe,,,,,,,,,2037,112,50.5,1,0,0,response1disk,,6,2,-2,1,0,0,rectangle,2,-2,1,0,0,,,,,,,2,-2,1,0,0,,1,113,273,101,1,
,,,,,,,,,,,,,FF,,,,,,,,1.0832,,,,,,,,,,,,,,,,,,,,,,60fd82694f2472bc8efe5f20,61036de82fb01a04f2fa7b2d,2021-07-29_23h12.43.177,Simcolourproject_2stim_asymm_v5,2020.2.10,Win32,60,61025ae37ef11b136ea224fe,,,,,,,,,2226,-93.5,36,1,0,0,response7disk,,1,10,-6,1,0,0,rectangle,10,-6,1,0,0,,,,,,,10,-6,1,0,0,,1,114,274,104,1,
,,,,,,,,,,,,,FF,,,,,,,,13.4751,,,,,,,,,,,,,,,,,,,,,,60fd82694f2472bc8efe5f20,61036de82fb01a04f2fa7b2d,2021-07-29_23h12.43.177,Simcolourproject_2stim_asymm_v5,2020.2.10,Win32,60,61025ae37ef11b136ea224fe,,,,,,,,,2597,99,63,1,0,0,response1disk,,6,2,7,1,0,0,rectangle,2,7,1,0,0,,,,,,,2,7,1,0,0,,1,115,275,23,1,
,,,,,,,,,,,,,FF,,,,,,,,1.5173,,,,,,,,,,,,,,,,,,,,,,60fd82694f2472bc8efe5f20,61036de82fb01a04f2fa7b2d,2021-07-29_23h12.43.177,Simcolourproject_2stim_asymm_v5,2020.2.10,Win32,60,61025ae37ef11b136ea224fe,,,,,,,,,3990,111.5,47.5,1,0,0,response1disk,,6,7.5,-6.5,1,0,0,rectangle,7.5,-6.5,1,0,0,,,,,,,7.5,-6.5,1,0,0,,1,116,276,31,1,
,,,,,,,,,,,,,FF,,,,,,,,0.7833,,,,,,,,,,,,,,,,,,,,,,60fd82694f2472bc8efe5f20,61036de82fb01a04f2fa7b2d,2021-07-29_23h12.43.177,Simcolourproject_2stim_asymm_v5,2020.2.10,Win32,60,61025ae37ef11b136ea224fe,,,,,,,,,3750,-107,32,1,0,0,response7disk,,1,3,3.5,1,0,0,rectangle,3,3.5,1,0,0,,,,,,,3,3.5,1,0,0,,1,117,277,62,1,
,,,,,,,,,,,,,FF,,,,,,,,0.6165,,,,,,,,,,,,,,,,,,,,,,60fd82694f2472bc8efe5f20,61036de82fb01a04f2fa7b2d,2021-07-29_23h12.43.177,Simcolourproject_2stim_asymm_v5,2020.2.10,Win32,60,61025ae37ef11b136ea224fe,,,,,,,,,3405,49,82.5,1,0,0,response1disk,,7,15.5,-18,1,0,0,rectangle,15.5,-18,1,0,0,,,,,,,15.5,-18,1,0,0,,1,118,278,120,1,
,,,,,,,,,,,,,FF,,,,,,,,0.6502,,,,,,,,,,,,,,,,,,,,,,60fd82694f2472bc8efe5f20,61036de82fb01a04f2fa7b2d,2021-07-29_23h12.43.177,Simcolourproject_2stim_asymm_v5,2020.2.10,Win32,60,61025ae37ef11b136ea224fe,,,,,,,,,2559,93,56.5,1,0,0,response1disk,,6,-3.5,-0.5,1,0,0,rectangle,-3.5,-0.5,1,0,0,,,,,,,-3.5,-0.5,1,0,0,,1,119,279,45,1,
,,,,,,,,,,,,,FF,,,,,,,,0.6838,,,,,,,,,,,,,,,,,,,,,,60fd82694f2472bc8efe5f20,61036de82fb01a04f2fa7b2d,2021-07-29_23h12.43.177,Simcolourproject_2stim_asymm_v5,2020.2.10,Win32,60,61025ae37ef11b136ea224fe,,,,,,,,,3728,97,37,1,0,0,response1disk,,6,5.5,1,1,0,0,rectangle,5.5,1,1,0,0,,,,,,,5.5,1,1,0,0,,1,120,280,154,1,
,,,,,,,,,,,,,FF,,,,,,,,1.4507,,,,,,,,,,,,,,,,,,,,,,60fd82694f2472bc8efe5f20,61036de82fb01a04f2fa7b2d,2021-07-29_23h12.43.177,Simcolourproject_2stim_asymm_v5,2020.2.10,Win32,60,61025ae37ef11b136ea224fe,,,,,,,,,28,111.5,-37.5,1,0,0,response3disk,,5,0,-2,1,0,0,rectangle,0,-2,1,0,0,,,,,,,0,-2,1,0,0,,1,121,281,85,1,
,,,,,,,,,,,,,FF,,,,,,,,0.8334,,,,,,,,,,,,,,,,,,,,,,60fd82694f2472bc8efe5f20,61036de82fb01a04f2fa7b2d,2021-07-29_23h12.43.177,Simcolourproject_2stim_asymm_v5,2020.2.10,Win32,60,61025ae37ef11b136ea224fe,,,,,,,,,3997,-65.5,26,1,0,0,response7disk,,1,7,-16.5,1,0,0,rectangle,7,-16.5,1,0,0,,,,,,,7,-16.5,1,0,0,,1,122,282,118,1,
,,,,,,,,,,,,,FF,,,,,,,,0.9335,,,,,,,,,,,,,,,,,,,,,,60fd82694f2472bc8efe5f20,61036de82fb01a04f2fa7b2d,2021-07-29_23h12.43.177,Simcolourproject_2stim_asymm_v5,2020.2.10,Win32,60,61025ae37ef11b136ea224fe,,,,,,,,,2792,44.5,86,1,0,0,response1disk,,7,-1.5,-5.5,1,0,0,rectangle,-1.5,-5.5,1,0,0,,,,,,,-1.5,-5.5,1,0,0,,1,123,283,56,1,
,,,,,,,,,,,,,FF,,,,,,,,0.6828,,,,,,,,,,,,,,,,,,,,,,60fd82694f2472bc8efe5f20,61036de82fb01a04f2fa7b2d,2021-07-29_23h12.43.177,Simcolourproject_2stim_asymm_v5,2020.2.10,Win32,60,61025ae37ef11b136ea224fe,,,,,,,,,3024,32.5,68,1,0,0,response1disk,,7,-1,-1.5,1,0,0,rectangle,-1,-1.5,1,0,0,,,,,,,-1,-1.5,1,0,0,,1,124,284,93,1,
,,,,,,,,,,,,,FF,,,,,,,,0.5658,,,,,,,,,,,,,,,,,,,,,,60fd82694f2472bc8efe5f20,61036de82fb01a04f2fa7b2d,2021-07-29_23h12.43.177,Simcolourproject_2stim_asymm_v5,2020.2.10,Win32,60,61025ae37ef11b136ea224fe,,,,,,,,,2457,39,88,1,0,0,response1disk,,7,3.5,6,1,0,0,rectangle,3.5,6,1,0,0,,,,,,,3.5,6,1,0,0,,1,125,285,124,1,
,,,,,,,,,,,,,FF,,,,,,,,1.117,,,,,,,,,,,,,,,,,,,,,,60fd82694f2472bc8efe5f20,61036de82fb01a04f2fa7b2d,2021-07-29_23h12.43.177,Simcolourproject_2stim_asymm_v5,2020.2.10,Win32,60,61025ae37ef11b136ea224fe,,,,,,,,,369,-92.5,-52,1,0,0,response5disk,,2,-13,-11.5,1,0,0,rectangle,-13,-11.5,1,0,0,,,,,,,-13,-11.5,1,0,0,,1,126,286,83,1,
,,,,,,,,,,,,,FF,,,,,,,,0.8006,,,,,,,,,,,,,,,,,,,,,,60fd82694f2472bc8efe5f20,61036de82fb01a04f2fa7b2d,2021-07-29_23h12.43.177,Simcolourproject_2stim_asymm_v5,2020.2.10,Win32,60,61025ae37ef11b136ea224fe,,,,,,,,,590,45,91.5,1,0,0,response1disk,,7,5.5,-2,1,0,0,rectangle,43.5,100,1,0,0,response1disk_3,TRUE,7,7,"[298,103,142,201,251,1,166,5,288,176,167,5,177,93,320,56,194,17,193,120]",1.534,-6,0,1,0,0,rectangle,1,127,287,111,1,
,,,,,,,,,,,,,FF,,,,,,,,0.6159,,,,,,,,,,,,,,,,,,,,,,60fd82694f2472bc8efe5f20,61036de82fb01a04f2fa7b2d,2021-07-29_23h12.43.177,Simcolourproject_2stim_asymm_v5,2020.2.10,Win32,60,61025ae37ef11b136ea224fe,,,,,,,,,1639,46,109,1,0,0,response1disk,,7,1.5,-9.5,1,0,0,rectangle,1.5,-9.5,1,0,0,,,,,,,1.5,-9.5,1,0,0,,1,128,288,71,1,
,,,,,,,,,,,,,FF,,,,,,,,0.6832,,,,,,,,,,,,,,,,,,,,,,60fd82694f2472bc8efe5f20,61036de82fb01a04f2fa7b2d,2021-07-29_23h12.43.177,Simcolourproject_2stim_asymm_v5,2020.2.10,Win32,60,61025ae37ef11b136ea224fe,,,,,,,,,3432,-39.5,85,1,0,0,response7disk,,0,11.5,0,1,0,0,rectangle,11.5,0,1,0,0,,,,,,,11.5,0,1,0,0,,1,129,289,110,1,
,,,,,,,,,,,,,FF,,,,,,,,1.9676,,,,,,,,,,,,,,,,,,,,,,60fd82694f2472bc8efe5f20,61036de82fb01a04f2fa7b2d,2021-07-29_23h12.43.177,Simcolourproject_2stim_asymm_v5,2020.2.10,Win32,60,61025ae37ef11b136ea224fe,,,,,,,,,381,94.5,60.5,1,0,0,response1disk,,6,4,2,1,0,0,rectangle,4,2,1,0,0,,,,,,,4,2,1,0,0,,1,130,290,30,1,
,,,,,,,,,,,,,FF,,,,,,,,1.0502,,,,,,,,,,,,,,,,,,,,,,60fd82694f2472bc8efe5f20,61036de82fb01a04f2fa7b2d,2021-07-29_23h12.43.177,Simcolourproject_2stim_asymm_v5,2020.2.10,Win32,60,61025ae37ef11b136ea224fe,,,,,,,,,2262,98,38,1,0,0,response1disk,,6,4,5,1,0,0,rectangle,4,5,1,0,0,,,,,,,4,5,1,0,0,,1,131,291,57,1,
,,,,,,,,,,,,,FF,,,,,,,,0.8999,,,,,,,,,,,,,,,,,,,,,,60fd82694f2472bc8efe5f20,61036de82fb01a04f2fa7b2d,2021-07-29_23h12.43.177,Simcolourproject_2stim_asymm_v5,2020.2.10,Win32,60,61025ae37ef11b136ea224fe,,,,,,,,,2808,35.5,89.5,1,0,0,response1disk,,7,5.5,-1,1,0,0,rectangle,5.5,-1,1,0,0,,,,,,,5.5,-1,1,0,0,,1,132,292,44,1,
,,,,,,,,,,,,,FF,,,,,,,,0.5829,,,,,,,,,,,,,,,,,,,,,,60fd82694f2472bc8efe5f20,61036de82fb01a04f2fa7b2d,2021-07-29_23h12.43.177,Simcolourproject_2stim_asymm_v5,2020.2.10,Win32,60,61025ae37ef11b136ea224fe,,,,,,,,,2320,38.5,82,1,0,0,response1disk,,7,16,-12.5,1,0,0,rectangle,16,-12.5,1,0,0,,,,,,,16,-12.5,1,0,0,,1,133,293,58,1,
,,,,,,,,,,,,,FF,,,,,,,,0.5333,,,,,,,,,,,,,,,,,,,,,,60fd82694f2472bc8efe5f20,61036de82fb01a04f2fa7b2d,2021-07-29_23h12.43.177,Simcolourproject_2stim_asymm_v5,2020.2.10,Win32,60,61025ae37ef11b136ea224fe,,,,,,,,,1499,36.5,84,1,0,0,response1disk,,7,17.5,-3,1,0,0,rectangle,17.5,-3,1,0,0,,,,,,,17.5,-3,1,0,0,,1,134,294,19,1,
,,,,,,,,,,,,,FF,,,,,,,,1.3506,,,,,,,,,,,,,,,,,,,,,,60fd82694f2472bc8efe5f20,61036de82fb01a04f2fa7b2d,2021-07-29_23h12.43.177,Simcolourproject_2stim_asymm_v5,2020.2.10,Win32,60,61025ae37ef11b136ea224fe,,,,,,,,,1613,-44.5,-104.5,1,0,0,response5disk,,3,10.5,-7.5,1,0,0,rectangle,10.5,-7.5,1,0,0,,,,,,,10.5,-7.5,1,0,0,,1,135,295,52,1,
