key_resp.keys,key_resp.rt,key_resp_14.keys,key_resp_14.rt,key_resp_15.keys,key_resp_15.rt,key_resp_17.keys,key_resp_17.rt,key_resp_9.keys,key_resp_9.rt,key_resp_10.keys,key_resp_10.rt,practice_comparison,Ecc,mouse_5.x,mouse_5.y,mouse_5.leftButton,mouse_5.midButton,mouse_5.rightButton,mouse_5.clicked_name,pracsimilarity,response_time,mouse_10.x,mouse_10.y,mouse_10.leftButton,mouse_10.midButton,mouse_10.rightButton,mouse_10.clicked_name,mouse_7.x,mouse_7.y,mouse_7.leftButton,mouse_7.midButton,mouse_7.rightButton,mouse_6.x,mouse_6.y,mouse_6.leftButton,mouse_6.midButton,mouse_6.rightButton,duringprac.thisRepN,duringprac.thisTrialN,duringprac.thisN,duringprac.thisIndex,duringprac.ran,participant,session,date,expName,psychopyVersion,OS,frameRate,study_id,mouse_7.clicked_name,catchpracsimilarity,catch_response_time,catchnumberprac,catchtrialorderprac,mouse_6.clicked_name,key_resp_22.keys,key_resp_22.rt,realcomparison,mouse.x,mouse.y,mouse.leftButton,mouse.midButton,mouse.rightButton,mouse.clicked_name,Colour2,similarity,mouse_2.x,mouse_2.y,mouse_2.leftButton,mouse_2.midButton,mouse_2.rightButton,mouse_2.clicked_name,mouse_3.x,mouse_3.y,mouse_3.leftButton,mouse_3.midButton,mouse_3.rightButton,mouse_11.x,mouse_11.y,mouse_11.leftButton,mouse_11.midButton,mouse_11.rightButton,trials_2.thisRepN,trials_2.thisTrialN,trials_2.thisN,trials_2.thisIndex,trials_2.ran,Colour1,mouse_3.clicked_name,catchornah,catchsimilarity,catchnumber,catchtrialorder,catchRT,mouse_11.clicked_name
space,2.048,space,10.74,space,24.072,space,10.117,space,2.862,space,6.404,30,PF,75,-87,1,0,0,response3disk_5,4,16.318,12,-11,1,0,0,rectangle_8,12,-11,1,0,0,12,-11,1,0,0,0,0,0,1,1,60fde3fa7d68fa07e124b8cf,61036da65f5639875a03cf2a,2021-07-29_23h11.26.353,Simcolourproject_2stim_asymm_v5,2020.2.10,MacIntel,60,61025ae37ef11b136ea224fe,,,,,,,,,,,,,,,,,,,,,,,,,,,,,,,,,,,,,,,,,,,,,,
,,,,,,,,,,,,10,PF,85,74,1,0,0,response1disk_5,6,4.016,13,4,1,0,0,rectangle_8,72,75,1,0,0,21,6,1,0,0,0,1,1,6,1,60fde3fa7d68fa07e124b8cf,61036da65f5639875a03cf2a,2021-07-29_23h11.26.353,Simcolourproject_2stim_asymm_v5,2020.2.10,MacIntel,60,61025ae37ef11b136ea224fe,response1disk_7,7,5.599,7,"[2,5]",rectangle_4,,,,,,,,,,,,,,,,,,,,,,,,,,,,,,,,,,,,,,,,
,,,,,,,,,,,,6,PF,99,-83,1,0,0,response3disk_5,5,17.532,20,12,1,0,0,rectangle_8,20,12,1,0,0,20,12,1,0,0,0,2,2,2,1,60fde3fa7d68fa07e124b8cf,61036da65f5639875a03cf2a,2021-07-29_23h11.26.353,Simcolourproject_2stim_asymm_v5,2020.2.10,MacIntel,60,61025ae37ef11b136ea224fe,,,,,,,,,,,,,,,,,,,,,,,,,,,,,,,,,,,,,,,,,,,,,,
,,,,,,,,,,,,94,FF,-78,69,1,0,0,response7disk_5,1,1.667,21,-7,1,0,0,rectangle_8,21,-7,1,0,0,21,-7,1,0,0,0,3,3,5,1,60fde3fa7d68fa07e124b8cf,61036da65f5639875a03cf2a,2021-07-29_23h11.26.353,Simcolourproject_2stim_asymm_v5,2020.2.10,MacIntel,60,61025ae37ef11b136ea224fe,,,,,,,,,,,,,,,,,,,,,,,,,,,,,,,,,,,,,,,,,,,,,,
,,,,,,,,,,,,77,FF,80,-74,1,0,0,response3disk_5,5,2.7,13,-9,1,0,0,rectangle_8,52,47,1,0,0,21,0,1,0,0,0,4,4,3,1,60fde3fa7d68fa07e124b8cf,61036da65f5639875a03cf2a,2021-07-29_23h11.26.353,Simcolourproject_2stim_asymm_v5,2020.2.10,MacIntel,60,61025ae37ef11b136ea224fe,response1disk_7,6,2.816,7,"[2,5]",rectangle_4,,,,,,,,,,,,,,,,,,,,,,,,,,,,,,,,,,,,,,,,
,,,,,,,,,,,,115,FF,64,51,1,0,0,response1disk_5,6,3.099,10,2,1,0,0,rectangle_8,10,2,1,0,0,10,2,1,0,0,0,5,5,0,1,60fde3fa7d68fa07e124b8cf,61036da65f5639875a03cf2a,2021-07-29_23h11.26.353,Simcolourproject_2stim_asymm_v5,2020.2.10,MacIntel,60,61025ae37ef11b136ea224fe,,,,,,,,,,,,,,,,,,,,,,,,,,,,,,,,,,,,,,,,,,,,,,
,,,,,,,,,,,,78,PF,45,-55,1,0,0,response3disk_5,4,1.817,5,3,1,0,0,rectangle_8,5,3,1,0,0,5,3,1,0,0,0,6,6,4,1,60fde3fa7d68fa07e124b8cf,61036da65f5639875a03cf2a,2021-07-29_23h11.26.353,Simcolourproject_2stim_asymm_v5,2020.2.10,MacIntel,60,61025ae37ef11b136ea224fe,,,,,,,,,,,,,,,,,,,,,,,,,,,,,,,,,,,,,,,,,,,,,,
,,,,,,,,,,,,,FF,,,,,,,,1.6,,,,,,,,,,,,,,,,,,,,,,60fde3fa7d68fa07e124b8cf,61036da65f5639875a03cf2a,2021-07-29_23h11.26.353,Simcolourproject_2stim_asymm_v5,2020.2.10,MacIntel,60,61025ae37ef11b136ea224fe,,,,,,,space,2.937,165,-71,73,1,0,0,response7disk,,0,4,6,1,0,0,rectangle,4,6,1,0,0,4,6,1,0,0,0,0,0,90,1,,,,,,,,
,,,,,,,,,,,,,FF,,,,,,,,2.183,,,,,,,,,,,,,,,,,,,,,,60fde3fa7d68fa07e124b8cf,61036da65f5639875a03cf2a,2021-07-29_23h11.26.353,Simcolourproject_2stim_asymm_v5,2020.2.10,MacIntel,60,61025ae37ef11b136ea224fe,,,,,,,,,3299,-38,-36,1,0,0,response5disk,,2,-15,-4,1,0,0,rectangle,-15,-4,1,0,0,-15,-4,1,0,0,0,1,1,70,1,,,,,,,,
,,,,,,,,,,,,,FF,,,,,,,,1.75,,,,,,,,,,,,,,,,,,,,,,60fde3fa7d68fa07e124b8cf,61036da65f5639875a03cf2a,2021-07-29_23h11.26.353,Simcolourproject_2stim_asymm_v5,2020.2.10,MacIntel,60,61025ae37ef11b136ea224fe,,,,,,,,,4288,43,46,1,0,0,response1disk,,7,14,-3,1,0,0,rectangle,14,-3,1,0,0,14,-3,1,0,0,0,2,2,35,1,,,,,,,,
,,,,,,,,,,,,,FF,,,,,,,,2.133,,,,,,,,,,,,,,,,,,,,,,60fde3fa7d68fa07e124b8cf,61036da65f5639875a03cf2a,2021-07-29_23h11.26.353,Simcolourproject_2stim_asymm_v5,2020.2.10,MacIntel,60,61025ae37ef11b136ea224fe,,,,,,,,,4209,76,67,1,0,0,response1disk,,6,23,7,1,0,0,rectangle,23,7,1,0,0,23,7,1,0,0,0,3,3,155,1,,,,,,,,
,,,,,,,,,,,,,FF,,,,,,,,1.184,,,,,,,,,,,,,,,,,,,,,,60fde3fa7d68fa07e124b8cf,61036da65f5639875a03cf2a,2021-07-29_23h11.26.353,Simcolourproject_2stim_asymm_v5,2020.2.10,MacIntel,60,61025ae37ef11b136ea224fe,,,,,,,,,3320,58,60,1,0,0,response1disk,,7,2,0,1,0,0,rectangle,2,0,1,0,0,2,0,1,0,0,0,4,4,60,1,,,,,,,,
,,,,,,,,,,,,,FF,,,,,,,,1.399,,,,,,,,,,,,,,,,,,,,,,60fde3fa7d68fa07e124b8cf,61036da65f5639875a03cf2a,2021-07-29_23h11.26.353,Simcolourproject_2stim_asymm_v5,2020.2.10,MacIntel,60,61025ae37ef11b136ea224fe,,,,,,,,,3425,-43,42,1,0,0,response7disk,,1,10,-4,1,0,0,rectangle,10,-4,1,0,0,10,-4,1,0,0,0,5,5,76,1,,,,,,,,
,,,,,,,,,,,,,FF,,,,,,,,2.282,,,,,,,,,,,,,,,,,,,,,,60fde3fa7d68fa07e124b8cf,61036da65f5639875a03cf2a,2021-07-29_23h11.26.353,Simcolourproject_2stim_asymm_v5,2020.2.10,MacIntel,60,61025ae37ef11b136ea224fe,,,,,,,,,2383,39,-65,1,0,0,response3disk,,4,8,-5,1,0,0,rectangle,8,-5,1,0,0,8,-5,1,0,0,0,6,6,43,1,,,,,,,,
,,,,,,,,,,,,,FF,,,,,,,,1.133,,,,,,,,,,,,,,,,,,,,,,60fde3fa7d68fa07e124b8cf,61036da65f5639875a03cf2a,2021-07-29_23h11.26.353,Simcolourproject_2stim_asymm_v5,2020.2.10,MacIntel,60,61025ae37ef11b136ea224fe,,,,,,,,,533,-37,40,1,0,0,response7disk,,0,0,0,1,0,0,rectangle,0,0,1,0,0,0,0,1,0,0,0,7,7,142,1,,,,,,,,
,,,,,,,,,,,,,FF,,,,,,,,1.4,,,,,,,,,,,,,,,,,,,,,,60fde3fa7d68fa07e124b8cf,61036da65f5639875a03cf2a,2021-07-29_23h11.26.353,Simcolourproject_2stim_asymm_v5,2020.2.10,MacIntel,60,61025ae37ef11b136ea224fe,,,,,,,,,13,-28,-54,1,0,0,response5disk,,3,11,3,1,0,0,rectangle,11,3,1,0,0,11,3,1,0,0,0,8,8,21,1,,,,,,,,
,,,,,,,,,,,,,FF,,,,,,,,1.533,,,,,,,,,,,,,,,,,,,,,,60fde3fa7d68fa07e124b8cf,61036da65f5639875a03cf2a,2021-07-29_23h11.26.353,Simcolourproject_2stim_asymm_v5,2020.2.10,MacIntel,60,61025ae37ef11b136ea224fe,,,,,,,,,3379,-46,-47,1,0,0,response5disk,,3,-7,-7,1,0,0,rectangle,-7,-7,1,0,0,-7,-7,1,0,0,0,9,9,51,1,,,,,,,,
,,,,,,,,,,,,,FF,,,,,,,,0.717,,,,,,,,,,,,,,,,,,,,,,60fde3fa7d68fa07e124b8cf,61036da65f5639875a03cf2a,2021-07-29_23h11.26.353,Simcolourproject_2stim_asymm_v5,2020.2.10,MacIntel,60,61025ae37ef11b136ea224fe,,,,,,,,,167,-62,-66,1,0,0,response5disk,,3,-5,-5,1,0,0,rectangle,-5,-5,1,0,0,-5,-5,1,0,0,0,10,10,98,1,,,,,,,,
,,,,,,,,,,,,,FF,,,,,,,,0.766,,,,,,,,,,,,,,,,,,,,,,60fde3fa7d68fa07e124b8cf,61036da65f5639875a03cf2a,2021-07-29_23h11.26.353,Simcolourproject_2stim_asymm_v5,2020.2.10,MacIntel,60,61025ae37ef11b136ea224fe,,,,,,,,,2541,-51,44,1,0,0,response7disk,,1,3,5,1,0,0,rectangle,3,5,1,0,0,3,5,1,0,0,0,11,11,6,1,,,,,,,,
,,,,,,,,,,,,,FF,,,,,,,,1.233,,,,,,,,,,,,,,,,,,,,,,60fde3fa7d68fa07e124b8cf,61036da65f5639875a03cf2a,2021-07-29_23h11.26.353,Simcolourproject_2stim_asymm_v5,2020.2.10,MacIntel,60,61025ae37ef11b136ea224fe,,,,,,,,,2838,-38,32,1,0,0,response7disk,,1,-5,1,1,0,0,rectangle,-5,1,1,0,0,-5,1,1,0,0,0,12,12,13,1,,,,,,,,
,,,,,,,,,,,,,FF,,,,,,,,2.066,,,,,,,,,,,,,,,,,,,,,,60fde3fa7d68fa07e124b8cf,61036da65f5639875a03cf2a,2021-07-29_23h11.26.353,Simcolourproject_2stim_asymm_v5,2020.2.10,MacIntel,60,61025ae37ef11b136ea224fe,,,,,,,,,724,-44,41,1,0,0,response7disk,,1,14,-3,1,0,0,rectangle,14,-3,1,0,0,14,-3,1,0,0,0,13,13,129,1,,,,,,,,
,,,,,,,,,,,,,FF,,,,,,,,1.518,,,,,,,,,,,,,,,,,,,,,,60fde3fa7d68fa07e124b8cf,61036da65f5639875a03cf2a,2021-07-29_23h11.26.353,Simcolourproject_2stim_asymm_v5,2020.2.10,MacIntel,60,61025ae37ef11b136ea224fe,,,,,,,,,2675,-41,-21,1,0,0,response5disk,,2,-15,2,1,0,0,rectangle,-15,2,1,0,0,-15,2,1,0,0,0,14,14,95,1,,,,,,,,
,,,,,,,,,,,,,FF,,,,,,,,0.766,,,,,,,,,,,,,,,,,,,,,,60fde3fa7d68fa07e124b8cf,61036da65f5639875a03cf2a,2021-07-29_23h11.26.353,Simcolourproject_2stim_asymm_v5,2020.2.10,MacIntel,60,61025ae37ef11b136ea224fe,,,,,,,,,4141,-37,-43,1,0,0,response5disk,,3,-1,2,1,0,0,rectangle,-1,2,1,0,0,-1,2,1,0,0,0,15,15,40,1,,,,,,,,
,,,,,,,,,,,,,FF,,,,,,,,1.299,,,,,,,,,,,,,,,,,,,,,,60fde3fa7d68fa07e124b8cf,61036da65f5639875a03cf2a,2021-07-29_23h11.26.353,Simcolourproject_2stim_asymm_v5,2020.2.10,MacIntel,60,61025ae37ef11b136ea224fe,,,,,,,,,676,31,53,1,0,0,response1disk,,7,-2,-2,1,0,0,rectangle,-2,-2,1,0,0,-2,-2,1,0,0,0,16,16,11,1,,,,,,,,
,,,,,,,,,,,,,FF,,,,,,,,1.35,,,,,,,,,,,,,,,,,,,,,,60fde3fa7d68fa07e124b8cf,61036da65f5639875a03cf2a,2021-07-29_23h11.26.353,Simcolourproject_2stim_asymm_v5,2020.2.10,MacIntel,60,61025ae37ef11b136ea224fe,,,,,,,,,1632,21,-29,1,0,0,response3disk,,4,12,4,1,0,0,rectangle,12,4,1,0,0,12,4,1,0,0,0,17,17,151,1,,,,,,,,
,,,,,,,,,,,,,FF,,,,,,,,0.984,,,,,,,,,,,,,,,,,,,,,,60fde3fa7d68fa07e124b8cf,61036da65f5639875a03cf2a,2021-07-29_23h11.26.353,Simcolourproject_2stim_asymm_v5,2020.2.10,MacIntel,60,61025ae37ef11b136ea224fe,,,,,,,,,3097,-42,-41,1,0,0,response5disk,,2,-15,-7,1,0,0,rectangle,-15,-7,1,0,0,-15,-7,1,0,0,0,18,18,4,1,,,,,,,,
,,,,,,,,,,,,,FF,,,,,,,,1.766,,,,,,,,,,,,,,,,,,,,,,60fde3fa7d68fa07e124b8cf,61036da65f5639875a03cf2a,2021-07-29_23h11.26.353,Simcolourproject_2stim_asymm_v5,2020.2.10,MacIntel,60,61025ae37ef11b136ea224fe,,,,,,,,,3686,-44,-46,1,0,0,response5disk,,3,0,10,1,0,0,rectangle,0,10,1,0,0,0,10,1,0,0,0,19,19,150,1,,,,,,,,
,,,,,,,,,,,,,FF,,,,,,,,0.866,,,,,,,,,,,,,,,,,,,,,,60fde3fa7d68fa07e124b8cf,61036da65f5639875a03cf2a,2021-07-29_23h11.26.353,Simcolourproject_2stim_asymm_v5,2020.2.10,MacIntel,60,61025ae37ef11b136ea224fe,,,,,,,,,3745,-37,-33,1,0,0,response5disk,,2,-10,12,1,0,0,rectangle,-10,12,1,0,0,-10,12,1,0,0,0,20,20,55,1,,,,,,,,
,,,,,,,,,,,,,FF,,,,,,,,0.732,,,,,,,,,,,,,,,,,,,,,,60fde3fa7d68fa07e124b8cf,61036da65f5639875a03cf2a,2021-07-29_23h11.26.353,Simcolourproject_2stim_asymm_v5,2020.2.10,MacIntel,60,61025ae37ef11b136ea224fe,,,,,,,,,954,-45,-46,1,0,0,response5disk,,3,-22,-5,1,0,0,rectangle,-22,-5,1,0,0,-22,-5,1,0,0,0,21,21,100,1,,,,,,,,
,,,,,,,,,,,,,FF,,,,,,,,0.866,,,,,,,,,,,,,,,,,,,,,,60fde3fa7d68fa07e124b8cf,61036da65f5639875a03cf2a,2021-07-29_23h11.26.353,Simcolourproject_2stim_asymm_v5,2020.2.10,MacIntel,60,61025ae37ef11b136ea224fe,,,,,,,,,3297,-33,-29,1,0,0,response5disk,,2,-17,0,1,0,0,rectangle,-65,-40,1,0,0,18,16,1,0,0,0,22,22,104,1,,response5disk_3,TRUE,2,2,"[164,259,168,299,195,138,224,135,23,211,115,150,220,30,31,289,318,170,101,132]",3.249,rectangle
,,,,,,,,,,,,,FF,,,,,,,,2.049,,,,,,,,,,,,,,,,,,,,,,60fde3fa7d68fa07e124b8cf,61036da65f5639875a03cf2a,2021-07-29_23h11.26.353,Simcolourproject_2stim_asymm_v5,2020.2.10,MacIntel,60,61025ae37ef11b136ea224fe,,,,,,,,,762,30,100,1,0,0,response1disk,,7,-5,13,1,0,0,rectangle,-5,13,1,0,0,-5,13,1,0,0,0,23,23,75,1,,,,,,,,
,,,,,,,,,,,,,FF,,,,,,,,1.267,,,,,,,,,,,,,,,,,,,,,,60fde3fa7d68fa07e124b8cf,61036da65f5639875a03cf2a,2021-07-29_23h11.26.353,Simcolourproject_2stim_asymm_v5,2020.2.10,MacIntel,60,61025ae37ef11b136ea224fe,,,,,,,,,281,35,-30,1,0,0,response3disk,,5,8,15,1,0,0,rectangle,8,15,1,0,0,8,15,1,0,0,0,24,24,103,1,,,,,,,,
,,,,,,,,,,,,,FF,,,,,,,,0.566,,,,,,,,,,,,,,,,,,,,,,60fde3fa7d68fa07e124b8cf,61036da65f5639875a03cf2a,2021-07-29_23h11.26.353,Simcolourproject_2stim_asymm_v5,2020.2.10,MacIntel,60,61025ae37ef11b136ea224fe,,,,,,,,,790,35,-49,1,0,0,response3disk,,4,5,-9,1,0,0,rectangle,5,-9,1,0,0,5,-9,1,0,0,0,25,25,63,1,,,,,,,,
,,,,,,,,,,,,,FF,,,,,,,,1.116,,,,,,,,,,,,,,,,,,,,,,60fde3fa7d68fa07e124b8cf,61036da65f5639875a03cf2a,2021-07-29_23h11.26.353,Simcolourproject_2stim_asymm_v5,2020.2.10,MacIntel,60,61025ae37ef11b136ea224fe,,,,,,,,,3540,48,42,1,0,0,response1disk,,6,19,-8,1,0,0,rectangle,19,-8,1,0,0,19,-8,1,0,0,0,26,26,93,1,,,,,,,,
,,,,,,,,,,,,,FF,,,,,,,,1.232,,,,,,,,,,,,,,,,,,,,,,60fde3fa7d68fa07e124b8cf,61036da65f5639875a03cf2a,2021-07-29_23h11.26.353,Simcolourproject_2stim_asymm_v5,2020.2.10,MacIntel,60,61025ae37ef11b136ea224fe,,,,,,,,,1777,28,-28,1,0,0,response3disk,,5,4,-7,1,0,0,rectangle,4,-7,1,0,0,4,-7,1,0,0,0,27,27,79,1,,,,,,,,
,,,,,,,,,,,,,FF,,,,,,,,0.582,,,,,,,,,,,,,,,,,,,,,,60fde3fa7d68fa07e124b8cf,61036da65f5639875a03cf2a,2021-07-29_23h11.26.353,Simcolourproject_2stim_asymm_v5,2020.2.10,MacIntel,60,61025ae37ef11b136ea224fe,,,,,,,,,2363,-51,-57,1,0,0,response5disk,,3,0,8,1,0,0,rectangle,0,8,1,0,0,0,8,1,0,0,0,28,28,5,1,,,,,,,,
,,,,,,,,,,,,,FF,,,,,,,,0.649,,,,,,,,,,,,,,,,,,,,,,60fde3fa7d68fa07e124b8cf,61036da65f5639875a03cf2a,2021-07-29_23h11.26.353,Simcolourproject_2stim_asymm_v5,2020.2.10,MacIntel,60,61025ae37ef11b136ea224fe,,,,,,,,,1231,-70,-63,1,0,0,response5disk,,2,-1,-2,1,0,0,rectangle,-78,-40,1,0,0,-2,3,1,0,0,0,29,29,152,1,,response5disk_3,TRUE,2,2,"[164,259,168,299,195,138,224,135,23,211,115,150,220,30,31,289,318,170,101,132]",2.033,rectangle
,,,,,,,,,,,,,FF,,,,,,,,1.232,,,,,,,,,,,,,,,,,,,,,,60fde3fa7d68fa07e124b8cf,61036da65f5639875a03cf2a,2021-07-29_23h11.26.353,Simcolourproject_2stim_asymm_v5,2020.2.10,MacIntel,60,61025ae37ef11b136ea224fe,,,,,,,,,2256,91,-83,1,0,0,response3disk,,5,14,12,1,0,0,rectangle,-41,37,1,0,0,-20,2,1,0,0,0,30,30,116,1,,response7disk_3,TRUE,1,1,"[164,259,168,299,195,138,224,135,23,211,115,150,220,30,31,289,318,170,101,132]",1.848,rectangle
,,,,,,,,,,,,,FF,,,,,,,,1.883,,,,,,,,,,,,,,,,,,,,,,60fde3fa7d68fa07e124b8cf,61036da65f5639875a03cf2a,2021-07-29_23h11.26.353,Simcolourproject_2stim_asymm_v5,2020.2.10,MacIntel,60,61025ae37ef11b136ea224fe,,,,,,,,,2587,124,-99,1,0,0,response3disk,,5,-10,2,1,0,0,rectangle,-10,2,1,0,0,-10,2,1,0,0,0,31,31,19,1,,,,,,,,
,,,,,,,,,,,,,FF,,,,,,,,1.317,,,,,,,,,,,,,,,,,,,,,,60fde3fa7d68fa07e124b8cf,61036da65f5639875a03cf2a,2021-07-29_23h11.26.353,Simcolourproject_2stim_asymm_v5,2020.2.10,MacIntel,60,61025ae37ef11b136ea224fe,,,,,,,,,3857,-42,-43,1,0,0,response5disk,,3,-19,7,1,0,0,rectangle,-19,7,1,0,0,-19,7,1,0,0,0,32,32,52,1,,,,,,,,
,,,,,,,,,,,,,FF,,,,,,,,0.9,,,,,,,,,,,,,,,,,,,,,,60fde3fa7d68fa07e124b8cf,61036da65f5639875a03cf2a,2021-07-29_23h11.26.353,Simcolourproject_2stim_asymm_v5,2020.2.10,MacIntel,60,61025ae37ef11b136ea224fe,,,,,,,,,3446,49,67,1,0,0,response1disk,,7,12,3,1,0,0,rectangle,12,3,1,0,0,12,3,1,0,0,0,33,33,44,1,,,,,,,,
,,,,,,,,,,,,,FF,,,,,,,,0.95,,,,,,,,,,,,,,,,,,,,,,60fde3fa7d68fa07e124b8cf,61036da65f5639875a03cf2a,2021-07-29_23h11.26.353,Simcolourproject_2stim_asymm_v5,2020.2.10,MacIntel,60,61025ae37ef11b136ea224fe,,,,,,,,,11,44,-51,1,0,0,response3disk,,4,14,6,1,0,0,rectangle,14,6,1,0,0,14,6,1,0,0,0,34,34,121,1,,,,,,,,
,,,,,,,,,,,,,FF,,,,,,,,1.367,,,,,,,,,,,,,,,,,,,,,,60fde3fa7d68fa07e124b8cf,61036da65f5639875a03cf2a,2021-07-29_23h11.26.353,Simcolourproject_2stim_asymm_v5,2020.2.10,MacIntel,60,61025ae37ef11b136ea224fe,,,,,,,,,3541,49,57,1,0,0,response1disk,,7,6,12,1,0,0,rectangle,6,12,1,0,0,6,12,1,0,0,0,35,35,24,1,,,,,,,,
,,,,,,,,,,,,,FF,,,,,,,,1.083,,,,,,,,,,,,,,,,,,,,,,60fde3fa7d68fa07e124b8cf,61036da65f5639875a03cf2a,2021-07-29_23h11.26.353,Simcolourproject_2stim_asymm_v5,2020.2.10,MacIntel,60,61025ae37ef11b136ea224fe,,,,,,,,,1120,42,-35,1,0,0,response3disk,,5,0,0,1,0,0,rectangle,0,0,1,0,0,0,0,1,0,0,0,36,36,81,1,,,,,,,,
,,,,,,,,,,,,,FF,,,,,,,,0.716,,,,,,,,,,,,,,,,,,,,,,60fde3fa7d68fa07e124b8cf,61036da65f5639875a03cf2a,2021-07-29_23h11.26.353,Simcolourproject_2stim_asymm_v5,2020.2.10,MacIntel,60,61025ae37ef11b136ea224fe,,,,,,,,,2661,-48,-43,1,0,0,response5disk,,2,-23,-9,1,0,0,rectangle,-23,-9,1,0,0,-23,-9,1,0,0,0,37,37,91,1,,,,,,,,
,,,,,,,,,,,,,FF,,,,,,,,0.666,,,,,,,,,,,,,,,,,,,,,,60fde3fa7d68fa07e124b8cf,61036da65f5639875a03cf2a,2021-07-29_23h11.26.353,Simcolourproject_2stim_asymm_v5,2020.2.10,MacIntel,60,61025ae37ef11b136ea224fe,,,,,,,,,2728,-46,-48,1,0,0,response5disk,,3,-3,4,1,0,0,rectangle,-3,4,1,0,0,-3,4,1,0,0,0,38,38,27,1,,,,,,,,
,,,,,,,,,,,,,FF,,,,,,,,1.082,,,,,,,,,,,,,,,,,,,,,,60fde3fa7d68fa07e124b8cf,61036da65f5639875a03cf2a,2021-07-29_23h11.26.353,Simcolourproject_2stim_asymm_v5,2020.2.10,MacIntel,60,61025ae37ef11b136ea224fe,,,,,,,,,1011,58,70,1,0,0,response1disk,,7,-9,-14,1,0,0,rectangle,-9,-14,1,0,0,-9,-14,1,0,0,0,39,39,125,1,,,,,,,,
,,,,,,,,,,,,,FF,,,,,,,,1,,,,,,,,,,,,,,,,,,,,,,60fde3fa7d68fa07e124b8cf,61036da65f5639875a03cf2a,2021-07-29_23h11.26.353,Simcolourproject_2stim_asymm_v5,2020.2.10,MacIntel,60,61025ae37ef11b136ea224fe,,,,,,,,,639,-32,-26,1,0,0,response5disk,,2,-7,-6,1,0,0,rectangle,-7,-6,1,0,0,-7,-6,1,0,0,0,40,40,0,1,,,,,,,,
,,,,,,,,,,,,,FF,,,,,,,,0.949,,,,,,,,,,,,,,,,,,,,,,60fde3fa7d68fa07e124b8cf,61036da65f5639875a03cf2a,2021-07-29_23h11.26.353,Simcolourproject_2stim_asymm_v5,2020.2.10,MacIntel,60,61025ae37ef11b136ea224fe,,,,,,,,,3193,20,-38,1,0,0,response3disk,,4,2,-12,1,0,0,rectangle,2,-12,1,0,0,2,-12,1,0,0,0,41,41,3,1,,,,,,,,
,,,,,,,,,,,,,FF,,,,,,,,0.966,,,,,,,,,,,,,,,,,,,,,,60fde3fa7d68fa07e124b8cf,61036da65f5639875a03cf2a,2021-07-29_23h11.26.353,Simcolourproject_2stim_asymm_v5,2020.2.10,MacIntel,60,61025ae37ef11b136ea224fe,,,,,,,,,2059,71,75,1,0,0,response1disk,,7,-4,3,1,0,0,rectangle,-4,3,1,0,0,-4,3,1,0,0,0,42,42,107,1,,,,,,,,
,,,,,,,,,,,,,FF,,,,,,,,1.766,,,,,,,,,,,,,,,,,,,,,,60fde3fa7d68fa07e124b8cf,61036da65f5639875a03cf2a,2021-07-29_23h11.26.353,Simcolourproject_2stim_asymm_v5,2020.2.10,MacIntel,60,61025ae37ef11b136ea224fe,,,,,,,,,3258,52,-19,1,0,0,response3disk,,5,17,-1,1,0,0,rectangle,17,-1,1,0,0,17,-1,1,0,0,0,43,43,127,1,,,,,,,,
,,,,,,,,,,,,,FF,,,,,,,,1.549,,,,,,,,,,,,,,,,,,,,,,60fde3fa7d68fa07e124b8cf,61036da65f5639875a03cf2a,2021-07-29_23h11.26.353,Simcolourproject_2stim_asymm_v5,2020.2.10,MacIntel,60,61025ae37ef11b136ea224fe,,,,,,,,,868,35,-25,1,0,0,response3disk,,5,-2,13,1,0,0,rectangle,-2,13,1,0,0,-2,13,1,0,0,0,44,44,153,1,,,,,,,,
,,,,,,,,,,,,,FF,,,,,,,,0.615,,,,,,,,,,,,,,,,,,,,,,60fde3fa7d68fa07e124b8cf,61036da65f5639875a03cf2a,2021-07-29_23h11.26.353,Simcolourproject_2stim_asymm_v5,2020.2.10,MacIntel,60,61025ae37ef11b136ea224fe,,,,,,,,,42,58,68,1,0,0,response1disk,,7,8,4,1,0,0,rectangle,8,4,1,0,0,8,4,1,0,0,0,45,45,86,1,,,,,,,,
,,,,,,,,,,,,,FF,,,,,,,,1.5,,,,,,,,,,,,,,,,,,,,,,60fde3fa7d68fa07e124b8cf,61036da65f5639875a03cf2a,2021-07-29_23h11.26.353,Simcolourproject_2stim_asymm_v5,2020.2.10,MacIntel,60,61025ae37ef11b136ea224fe,,,,,,,,,2792,53,-61,1,0,0,response3disk,,4,9,-1,1,0,0,rectangle,9,-1,1,0,0,9,-1,1,0,0,0,46,46,57,1,,,,,,,,
,,,,,,,,,,,,,FF,,,,,,,,0.633,,,,,,,,,,,,,,,,,,,,,,60fde3fa7d68fa07e124b8cf,61036da65f5639875a03cf2a,2021-07-29_23h11.26.353,Simcolourproject_2stim_asymm_v5,2020.2.10,MacIntel,60,61025ae37ef11b136ea224fe,,,,,,,,,2042,68,-77,1,0,0,response3disk,,4,8,2,1,0,0,rectangle,8,2,1,0,0,8,2,1,0,0,0,47,47,140,1,,,,,,,,
,,,,,,,,,,,,,FF,,,,,,,,0.767,,,,,,,,,,,,,,,,,,,,,,60fde3fa7d68fa07e124b8cf,61036da65f5639875a03cf2a,2021-07-29_23h11.26.353,Simcolourproject_2stim_asymm_v5,2020.2.10,MacIntel,60,61025ae37ef11b136ea224fe,,,,,,,,,16,46,-42,1,0,0,response3disk,,5,5,-1,1,0,0,rectangle,5,-1,1,0,0,5,-1,1,0,0,0,48,48,12,1,,,,,,,,
,,,,,,,,,,,,,FF,,,,,,,,0.533,,,,,,,,,,,,,,,,,,,,,,60fde3fa7d68fa07e124b8cf,61036da65f5639875a03cf2a,2021-07-29_23h11.26.353,Simcolourproject_2stim_asymm_v5,2020.2.10,MacIntel,60,61025ae37ef11b136ea224fe,,,,,,,,,824,48,-46,1,0,0,response3disk,,5,2,-3,1,0,0,rectangle,2,-3,1,0,0,2,-3,1,0,0,0,49,49,106,1,,,,,,,,
,,,,,,,,,,,,,FF,,,,,,,,0.682,,,,,,,,,,,,,,,,,,,,,,60fde3fa7d68fa07e124b8cf,61036da65f5639875a03cf2a,2021-07-29_23h11.26.353,Simcolourproject_2stim_asymm_v5,2020.2.10,MacIntel,60,61025ae37ef11b136ea224fe,,,,,,,,,3062,49,-62,1,0,0,response3disk,,4,2,-10,1,0,0,rectangle,2,-10,1,0,0,2,-10,1,0,0,0,50,50,1,1,,,,,,,,
,,,,,,,,,,,,,FF,,,,,,,,0.866,,,,,,,,,,,,,,,,,,,,,,60fde3fa7d68fa07e124b8cf,61036da65f5639875a03cf2a,2021-07-29_23h11.26.353,Simcolourproject_2stim_asymm_v5,2020.2.10,MacIntel,60,61025ae37ef11b136ea224fe,,,,,,,,,1571,35,25,1,0,0,response1disk,,6,5,13,1,0,0,rectangle,5,13,1,0,0,5,13,1,0,0,0,51,51,99,1,,,,,,,,
,,,,,,,,,,,,,FF,,,,,,,,0.849,,,,,,,,,,,,,,,,,,,,,,60fde3fa7d68fa07e124b8cf,61036da65f5639875a03cf2a,2021-07-29_23h11.26.353,Simcolourproject_2stim_asymm_v5,2020.2.10,MacIntel,60,61025ae37ef11b136ea224fe,,,,,,,,,2403,44,85,1,0,0,response1disk,,7,1,4,1,0,0,rectangle,1,4,1,0,0,1,4,1,0,0,0,52,52,122,1,,,,,,,,
,,,,,,,,,,,,,FF,,,,,,,,0.882,,,,,,,,,,,,,,,,,,,,,,60fde3fa7d68fa07e124b8cf,61036da65f5639875a03cf2a,2021-07-29_23h11.26.353,Simcolourproject_2stim_asymm_v5,2020.2.10,MacIntel,60,61025ae37ef11b136ea224fe,,,,,,,,,1319,40,67,1,0,0,response1disk,,7,9,8,1,0,0,rectangle,9,8,1,0,0,9,8,1,0,0,0,53,53,54,1,,,,,,,,
,,,,,,,,,,,,,FF,,,,,,,,0.567,,,,,,,,,,,,,,,,,,,,,,60fde3fa7d68fa07e124b8cf,61036da65f5639875a03cf2a,2021-07-29_23h11.26.353,Simcolourproject_2stim_asymm_v5,2020.2.10,MacIntel,60,61025ae37ef11b136ea224fe,,,,,,,,,1083,39,53,1,0,0,response1disk,,7,4,12,1,0,0,rectangle,4,12,1,0,0,4,12,1,0,0,0,54,54,72,1,,,,,,,,
,,,,,,,,,,,,,FF,,,,,,,,0.5,,,,,,,,,,,,,,,,,,,,,,60fde3fa7d68fa07e124b8cf,61036da65f5639875a03cf2a,2021-07-29_23h11.26.353,Simcolourproject_2stim_asymm_v5,2020.2.10,MacIntel,60,61025ae37ef11b136ea224fe,,,,,,,,,1945,54,38,1,0,0,response1disk,,6,17,16,1,0,0,rectangle,17,16,1,0,0,17,16,1,0,0,0,55,55,58,1,,,,,,,,
,,,,,,,,,,,,,FF,,,,,,,,0.817,,,,,,,,,,,,,,,,,,,,,,60fde3fa7d68fa07e124b8cf,61036da65f5639875a03cf2a,2021-07-29_23h11.26.353,Simcolourproject_2stim_asymm_v5,2020.2.10,MacIntel,60,61025ae37ef11b136ea224fe,,,,,,,,,3100,-69,-51,1,0,0,response5disk,,2,-22,4,1,0,0,rectangle,-22,4,1,0,0,-22,4,1,0,0,0,56,56,115,1,,,,,,,,
,,,,,,,,,,,,,FF,,,,,,,,0.55,,,,,,,,,,,,,,,,,,,,,,60fde3fa7d68fa07e124b8cf,61036da65f5639875a03cf2a,2021-07-29_23h11.26.353,Simcolourproject_2stim_asymm_v5,2020.2.10,MacIntel,60,61025ae37ef11b136ea224fe,,,,,,,,,1896,-61,-40,1,0,0,response5disk,,2,-3,-5,1,0,0,rectangle,-3,-5,1,0,0,-3,-5,1,0,0,0,57,57,45,1,,,,,,,,
,,,,,,,,,,,,,FF,,,,,,,,0.683,,,,,,,,,,,,,,,,,,,,,,60fde3fa7d68fa07e124b8cf,61036da65f5639875a03cf2a,2021-07-29_23h11.26.353,Simcolourproject_2stim_asymm_v5,2020.2.10,MacIntel,60,61025ae37ef11b136ea224fe,,,,,,,,,1974,49,-46,1,0,0,response3disk,,5,18,-9,1,0,0,rectangle,18,-9,1,0,0,18,-9,1,0,0,0,58,58,149,1,,,,,,,,
,,,,,,,,,,,,,FF,,,,,,,,0.766,,,,,,,,,,,,,,,,,,,,,,60fde3fa7d68fa07e124b8cf,61036da65f5639875a03cf2a,2021-07-29_23h11.26.353,Simcolourproject_2stim_asymm_v5,2020.2.10,MacIntel,60,61025ae37ef11b136ea224fe,,,,,,,,,1451,-54,-35,1,0,0,response5disk,,2,-4,-12,1,0,0,rectangle,-4,-12,1,0,0,-4,-12,1,0,0,0,59,59,14,1,,,,,,,,
,,,,,,,,,,,,,FF,,,,,,,,0.883,,,,,,,,,,,,,,,,,,,,,,60fde3fa7d68fa07e124b8cf,61036da65f5639875a03cf2a,2021-07-29_23h11.26.353,Simcolourproject_2stim_asymm_v5,2020.2.10,MacIntel,60,61025ae37ef11b136ea224fe,,,,,,,,,220,40,75,1,0,0,response1disk,,7,10,11,1,0,0,rectangle,10,11,1,0,0,10,11,1,0,0,0,60,60,154,1,,,,,,,,
,,,,,,,,,,,,,FF,,,,,,,,0.749,,,,,,,,,,,,,,,,,,,,,,60fde3fa7d68fa07e124b8cf,61036da65f5639875a03cf2a,2021-07-29_23h11.26.353,Simcolourproject_2stim_asymm_v5,2020.2.10,MacIntel,60,61025ae37ef11b136ea224fe,,,,,,,,,1329,41,55,1,0,0,response1disk,,7,15,9,1,0,0,rectangle,15,9,1,0,0,15,9,1,0,0,0,61,61,66,1,,,,,,,,
,,,,,,,,,,,,,FF,,,,,,,,0.649,,,,,,,,,,,,,,,,,,,,,,60fde3fa7d68fa07e124b8cf,61036da65f5639875a03cf2a,2021-07-29_23h11.26.353,Simcolourproject_2stim_asymm_v5,2020.2.10,MacIntel,60,61025ae37ef11b136ea224fe,,,,,,,,,4157,42,43,1,0,0,response1disk,,7,7,10,1,0,0,rectangle,7,10,1,0,0,7,10,1,0,0,0,62,62,38,1,,,,,,,,
,,,,,,,,,,,,,FF,,,,,,,,0.699,,,,,,,,,,,,,,,,,,,,,,60fde3fa7d68fa07e124b8cf,61036da65f5639875a03cf2a,2021-07-29_23h11.26.353,Simcolourproject_2stim_asymm_v5,2020.2.10,MacIntel,60,61025ae37ef11b136ea224fe,,,,,,,,,864,41,53,1,0,0,response1disk,,7,7,-3,1,0,0,rectangle,7,-3,1,0,0,7,-3,1,0,0,0,63,63,159,1,,,,,,,,
,,,,,,,,,,,,,FF,,,,,,,,0.949,,,,,,,,,,,,,,,,,,,,,,60fde3fa7d68fa07e124b8cf,61036da65f5639875a03cf2a,2021-07-29_23h11.26.353,Simcolourproject_2stim_asymm_v5,2020.2.10,MacIntel,60,61025ae37ef11b136ea224fe,,,,,,,,,818,50,-52,1,0,0,response3disk,,4,17,1,1,0,0,rectangle,17,1,1,0,0,17,1,1,0,0,0,64,64,89,1,,,,,,,,
,,,,,,,,,,,,,FF,,,,,,,,1.333,,,,,,,,,,,,,,,,,,,,,,60fde3fa7d68fa07e124b8cf,61036da65f5639875a03cf2a,2021-07-29_23h11.26.353,Simcolourproject_2stim_asymm_v5,2020.2.10,MacIntel,60,61025ae37ef11b136ea224fe,,,,,,,,,3901,44,-42,1,0,0,response3disk,,5,11,-13,1,0,0,rectangle,11,-13,1,0,0,11,-13,1,0,0,0,65,65,111,1,,,,,,,,
,,,,,,,,,,,,,FF,,,,,,,,0.7,,,,,,,,,,,,,,,,,,,,,,60fde3fa7d68fa07e124b8cf,61036da65f5639875a03cf2a,2021-07-29_23h11.26.353,Simcolourproject_2stim_asymm_v5,2020.2.10,MacIntel,60,61025ae37ef11b136ea224fe,,,,,,,,,1419,60,54,1,0,0,response1disk,,6,19,13,1,0,0,rectangle,19,13,1,0,0,19,13,1,0,0,0,66,66,8,1,,,,,,,,
,,,,,,,,,,,,,FF,,,,,,,,0.982,,,,,,,,,,,,,,,,,,,,,,60fde3fa7d68fa07e124b8cf,61036da65f5639875a03cf2a,2021-07-29_23h11.26.353,Simcolourproject_2stim_asymm_v5,2020.2.10,MacIntel,60,61025ae37ef11b136ea224fe,,,,,,,,,1388,33,-34,1,0,0,response3disk,,4,4,1,1,0,0,rectangle,4,1,1,0,0,4,1,1,0,0,0,67,67,25,1,,,,,,,,
,,,,,,,,,,,,,FF,,,,,,,,0.666,,,,,,,,,,,,,,,,,,,,,,60fde3fa7d68fa07e124b8cf,61036da65f5639875a03cf2a,2021-07-29_23h11.26.353,Simcolourproject_2stim_asymm_v5,2020.2.10,MacIntel,60,61025ae37ef11b136ea224fe,,,,,,,,,689,36,50,1,0,0,response1disk,,7,-17,-5,1,0,0,rectangle,-17,-5,1,0,0,-17,-5,1,0,0,0,68,68,39,1,,,,,,,,
,,,,,,,,,,,,,FF,,,,,,,,0.633,,,,,,,,,,,,,,,,,,,,,,60fde3fa7d68fa07e124b8cf,61036da65f5639875a03cf2a,2021-07-29_23h11.26.353,Simcolourproject_2stim_asymm_v5,2020.2.10,MacIntel,60,61025ae37ef11b136ea224fe,,,,,,,,,2550,-33,-33,1,0,0,response5disk,,3,-4,-10,1,0,0,rectangle,-4,-10,1,0,0,-4,-10,1,0,0,0,69,69,131,1,,,,,,,,
,,,,,,,,,,,,,FF,,,,,,,,0.831,,,,,,,,,,,,,,,,,,,,,,60fde3fa7d68fa07e124b8cf,61036da65f5639875a03cf2a,2021-07-29_23h11.26.353,Simcolourproject_2stim_asymm_v5,2020.2.10,MacIntel,60,61025ae37ef11b136ea224fe,,,,,,,,,3866,59,58,1,0,0,response1disk,,6,27,6,1,0,0,rectangle,27,6,1,0,0,27,6,1,0,0,0,70,70,68,1,,,,,,,,
,,,,,,,,,,,,,FF,,,,,,,,0.717,,,,,,,,,,,,,,,,,,,,,,60fde3fa7d68fa07e124b8cf,61036da65f5639875a03cf2a,2021-07-29_23h11.26.353,Simcolourproject_2stim_asymm_v5,2020.2.10,MacIntel,60,61025ae37ef11b136ea224fe,,,,,,,,,2749,54,57,1,0,0,response1disk,,7,12,15,1,0,0,rectangle,12,15,1,0,0,12,15,1,0,0,0,71,71,139,1,,,,,,,,
,,,,,,,,,,,,,FF,,,,,,,,0.966,,,,,,,,,,,,,,,,,,,,,,60fde3fa7d68fa07e124b8cf,61036da65f5639875a03cf2a,2021-07-29_23h11.26.353,Simcolourproject_2stim_asymm_v5,2020.2.10,MacIntel,60,61025ae37ef11b136ea224fe,,,,,,,,,2143,35,50,1,0,0,response1disk,,7,11,-8,1,0,0,rectangle,11,-8,1,0,0,11,-8,1,0,0,0,72,72,128,1,,,,,,,,
,,,,,,,,,,,,,FF,,,,,,,,0.733,,,,,,,,,,,,,,,,,,,,,,60fde3fa7d68fa07e124b8cf,61036da65f5639875a03cf2a,2021-07-29_23h11.26.353,Simcolourproject_2stim_asymm_v5,2020.2.10,MacIntel,60,61025ae37ef11b136ea224fe,,,,,,,,,1454,-39,32,1,0,0,response7disk,,1,-8,0,1,0,0,rectangle,-8,0,1,0,0,-8,0,1,0,0,0,73,73,46,1,,,,,,,,
,,,,,,,,,,,,,FF,,,,,,,,1.316,,,,,,,,,,,,,,,,,,,,,,60fde3fa7d68fa07e124b8cf,61036da65f5639875a03cf2a,2021-07-29_23h11.26.353,Simcolourproject_2stim_asymm_v5,2020.2.10,MacIntel,60,61025ae37ef11b136ea224fe,,,,,,,,,3325,63,80,1,0,0,response1disk,,7,2,5,1,0,0,rectangle,2,5,1,0,0,2,5,1,0,0,0,74,74,96,1,,,,,,,,
,,,,,,,,,,,,,FF,,,,,,,,1.333,,,,,,,,,,,,,,,,,,,,,,60fde3fa7d68fa07e124b8cf,61036da65f5639875a03cf2a,2021-07-29_23h11.26.353,Simcolourproject_2stim_asymm_v5,2020.2.10,MacIntel,60,61025ae37ef11b136ea224fe,,,,,,,,,3472,53,-61,1,0,0,response3disk,,4,5,-14,1,0,0,rectangle,5,-14,1,0,0,5,-14,1,0,0,0,75,75,29,1,,,,,,,,
,,,,,,,,,,,,,FF,,,,,,,,0.784,,,,,,,,,,,,,,,,,,,,,,60fde3fa7d68fa07e124b8cf,61036da65f5639875a03cf2a,2021-07-29_23h11.26.353,Simcolourproject_2stim_asymm_v5,2020.2.10,MacIntel,60,61025ae37ef11b136ea224fe,,,,,,,,,1056,59,-58,1,0,0,response3disk,,5,11,1,1,0,0,rectangle,11,1,1,0,0,11,1,1,0,0,0,76,76,144,1,,,,,,,,
,,,,,,,,,,,,,FF,,,,,,,,0.767,,,,,,,,,,,,,,,,,,,,,,60fde3fa7d68fa07e124b8cf,61036da65f5639875a03cf2a,2021-07-29_23h11.26.353,Simcolourproject_2stim_asymm_v5,2020.2.10,MacIntel,60,61025ae37ef11b136ea224fe,,,,,,,,,1180,61,81,1,0,0,response1disk,,7,7,-5,1,0,0,rectangle,7,-5,1,0,0,7,-5,1,0,0,0,77,77,137,1,,,,,,,,
,,,,,,,,,,,,,FF,,,,,,,,0.499,,,,,,,,,,,,,,,,,,,,,,60fde3fa7d68fa07e124b8cf,61036da65f5639875a03cf2a,2021-07-29_23h11.26.353,Simcolourproject_2stim_asymm_v5,2020.2.10,MacIntel,60,61025ae37ef11b136ea224fe,,,,,,,,,3590,66,49,1,0,0,response1disk,,6,2,3,1,0,0,rectangle,2,3,1,0,0,2,3,1,0,0,0,78,78,143,1,,,,,,,,
,,,,,,,,,,,,,FF,,,,,,,,0.433,,,,,,,,,,,,,,,,,,,,,,60fde3fa7d68fa07e124b8cf,61036da65f5639875a03cf2a,2021-07-29_23h11.26.353,Simcolourproject_2stim_asymm_v5,2020.2.10,MacIntel,60,61025ae37ef11b136ea224fe,,,,,,,,,135,59,84,1,0,0,response1disk,,7,-3,-12,1,0,0,rectangle,-3,-12,1,0,0,-3,-12,1,0,0,0,79,79,31,1,,,,,,,,
,,,,,,,,,,,,,FF,,,,,,,,0.449,,,,,,,,,,,,,,,,,,,,,,60fde3fa7d68fa07e124b8cf,61036da65f5639875a03cf2a,2021-07-29_23h11.26.353,Simcolourproject_2stim_asymm_v5,2020.2.10,MacIntel,60,61025ae37ef11b136ea224fe,,,,,,,,,606,62,37,1,0,0,response1disk,,6,15,0,1,0,0,rectangle,15,0,1,0,0,15,0,1,0,0,0,80,80,135,1,,,,,,,,
,,,,,,,,,,,,,FF,,,,,,,,0.417,,,,,,,,,,,,,,,,,,,,,,60fde3fa7d68fa07e124b8cf,61036da65f5639875a03cf2a,2021-07-29_23h11.26.353,Simcolourproject_2stim_asymm_v5,2020.2.10,MacIntel,60,61025ae37ef11b136ea224fe,,,,,,,,,1081,66,63,1,0,0,response1disk,,6,-2,10,1,0,0,rectangle,-2,10,1,0,0,-2,10,1,0,0,0,81,81,28,1,,,,,,,,
,,,,,,,,,,,,,FF,,,,,,,,0.4,,,,,,,,,,,,,,,,,,,,,,60fde3fa7d68fa07e124b8cf,61036da65f5639875a03cf2a,2021-07-29_23h11.26.353,Simcolourproject_2stim_asymm_v5,2020.2.10,MacIntel,60,61025ae37ef11b136ea224fe,,,,,,,,,2951,47,52,1,0,0,response1disk,,7,2,-4,1,0,0,rectangle,2,-4,1,0,0,2,-4,1,0,0,0,82,82,2,1,,,,,,,,
,,,,,,,,,,,,,FF,,,,,,,,0.482,,,,,,,,,,,,,,,,,,,,,,60fde3fa7d68fa07e124b8cf,61036da65f5639875a03cf2a,2021-07-29_23h11.26.353,Simcolourproject_2stim_asymm_v5,2020.2.10,MacIntel,60,61025ae37ef11b136ea224fe,,,,,,,,,2220,38,-50,1,0,0,response3disk,,4,0,-2,1,0,0,rectangle,0,-2,1,0,0,0,-2,1,0,0,0,83,83,73,1,,,,,,,,
,,,,,,,,,,,,,FF,,,,,,,,0.466,,,,,,,,,,,,,,,,,,,,,,60fde3fa7d68fa07e124b8cf,61036da65f5639875a03cf2a,2021-07-29_23h11.26.353,Simcolourproject_2stim_asymm_v5,2020.2.10,MacIntel,60,61025ae37ef11b136ea224fe,,,,,,,,,302,34,50,1,0,0,response1disk,,7,7,5,1,0,0,rectangle,7,5,1,0,0,7,5,1,0,0,0,84,84,118,1,,,,,,,,
,,,,,,,,,,,,,FF,,,,,,,,0.466,,,,,,,,,,,,,,,,,,,,,,60fde3fa7d68fa07e124b8cf,61036da65f5639875a03cf2a,2021-07-29_23h11.26.353,Simcolourproject_2stim_asymm_v5,2020.2.10,MacIntel,60,61025ae37ef11b136ea224fe,,,,,,,,,236,46,67,1,0,0,response1disk,,7,7,17,1,0,0,rectangle,7,17,1,0,0,7,17,1,0,0,0,85,85,18,1,,,,,,,,
,,,,,,,,,,,,,FF,,,,,,,,0.75,,,,,,,,,,,,,,,,,,,,,,60fde3fa7d68fa07e124b8cf,61036da65f5639875a03cf2a,2021-07-29_23h11.26.353,Simcolourproject_2stim_asymm_v5,2020.2.10,MacIntel,60,61025ae37ef11b136ea224fe,,,,,,,,,3972,46,-41,1,0,0,response3disk,,5,4,-1,1,0,0,rectangle,4,-1,1,0,0,4,-1,1,0,0,0,86,86,23,1,,,,,,,,
,,,,,,,,,,,,,FF,,,,,,,,0.565,,,,,,,,,,,,,,,,,,,,,,60fde3fa7d68fa07e124b8cf,61036da65f5639875a03cf2a,2021-07-29_23h11.26.353,Simcolourproject_2stim_asymm_v5,2020.2.10,MacIntel,60,61025ae37ef11b136ea224fe,,,,,,,,,814,31,36,1,0,0,response1disk,,7,-9,-14,1,0,0,rectangle,-9,-14,1,0,0,-9,-14,1,0,0,0,87,87,136,1,,,,,,,,
,,,,,,,,,,,,,FF,,,,,,,,0.651,,,,,,,,,,,,,,,,,,,,,,60fde3fa7d68fa07e124b8cf,61036da65f5639875a03cf2a,2021-07-29_23h11.26.353,Simcolourproject_2stim_asymm_v5,2020.2.10,MacIntel,60,61025ae37ef11b136ea224fe,,,,,,,,,2372,30,-40,1,0,0,response3disk,,4,8,-14,1,0,0,rectangle,8,-14,1,0,0,8,-14,1,0,0,0,88,88,10,1,,,,,,,,
,,,,,,,,,,,,,FF,,,,,,,,0.549,,,,,,,,,,,,,,,,,,,,,,60fde3fa7d68fa07e124b8cf,61036da65f5639875a03cf2a,2021-07-29_23h11.26.353,Simcolourproject_2stim_asymm_v5,2020.2.10,MacIntel,60,61025ae37ef11b136ea224fe,,,,,,,,,1996,60,68,1,0,0,response1disk,,7,0,-1,1,0,0,rectangle,0,-1,1,0,0,0,-1,1,0,0,0,89,89,85,1,,,,,,,,
,,,,,,,,,,,,,FF,,,,,,,,0.583,,,,,,,,,,,,,,,,,,,,,,60fde3fa7d68fa07e124b8cf,61036da65f5639875a03cf2a,2021-07-29_23h11.26.353,Simcolourproject_2stim_asymm_v5,2020.2.10,MacIntel,60,61025ae37ef11b136ea224fe,,,,,,,,,3734,30,51,1,0,0,response1disk,,7,4,7,1,0,0,rectangle,4,7,1,0,0,4,7,1,0,0,0,90,90,37,1,,,,,,,,
,,,,,,,,,,,,,FF,,,,,,,,0.617,,,,,,,,,,,,,,,,,,,,,,60fde3fa7d68fa07e124b8cf,61036da65f5639875a03cf2a,2021-07-29_23h11.26.353,Simcolourproject_2stim_asymm_v5,2020.2.10,MacIntel,60,61025ae37ef11b136ea224fe,,,,,,,,,1487,35,54,1,0,0,response1disk,,7,0,1,1,0,0,rectangle,0,1,1,0,0,0,1,1,0,0,0,91,91,123,1,,,,,,,,
,,,,,,,,,,,,,FF,,,,,,,,0.416,,,,,,,,,,,,,,,,,,,,,,60fde3fa7d68fa07e124b8cf,61036da65f5639875a03cf2a,2021-07-29_23h11.26.353,Simcolourproject_2stim_asymm_v5,2020.2.10,MacIntel,60,61025ae37ef11b136ea224fe,,,,,,,,,1016,51,68,1,0,0,response1disk,,7,11,-12,1,0,0,rectangle,11,-12,1,0,0,11,-12,1,0,0,0,92,92,84,1,,,,,,,,
,,,,,,,,,,,,,FF,,,,,,,,0.931,,,,,,,,,,,,,,,,,,,,,,60fde3fa7d68fa07e124b8cf,61036da65f5639875a03cf2a,2021-07-29_23h11.26.353,Simcolourproject_2stim_asymm_v5,2020.2.10,MacIntel,60,61025ae37ef11b136ea224fe,,,,,,,,,3714,51,-54,1,0,0,response3disk,,4,8,4,1,0,0,rectangle,8,4,1,0,0,8,4,1,0,0,0,93,93,130,1,,,,,,,,
,,,,,,,,,,,,,FF,,,,,,,,0.533,,,,,,,,,,,,,,,,,,,,,,60fde3fa7d68fa07e124b8cf,61036da65f5639875a03cf2a,2021-07-29_23h11.26.353,Simcolourproject_2stim_asymm_v5,2020.2.10,MacIntel,60,61025ae37ef11b136ea224fe,,,,,,,,,2314,24,-27,1,0,0,response3disk,,4,-5,-5,1,0,0,rectangle,-5,-5,1,0,0,-5,-5,1,0,0,0,94,94,30,1,,,,,,,,
,,,,,,,,,,,,,FF,,,,,,,,0.383,,,,,,,,,,,,,,,,,,,,,,60fde3fa7d68fa07e124b8cf,61036da65f5639875a03cf2a,2021-07-29_23h11.26.353,Simcolourproject_2stim_asymm_v5,2020.2.10,MacIntel,60,61025ae37ef11b136ea224fe,,,,,,,,,3999,35,-40,1,0,0,response3disk,,4,-16,6,1,0,0,rectangle,-16,6,1,0,0,-16,6,1,0,0,0,95,95,82,1,,,,,,,,
,,,,,,,,,,,,,FF,,,,,,,,0.55,,,,,,,,,,,,,,,,,,,,,,60fde3fa7d68fa07e124b8cf,61036da65f5639875a03cf2a,2021-07-29_23h11.26.353,Simcolourproject_2stim_asymm_v5,2020.2.10,MacIntel,60,61025ae37ef11b136ea224fe,,,,,,,,,3414,37,39,1,0,0,response1disk,,7,12,14,1,0,0,rectangle,12,14,1,0,0,12,14,1,0,0,0,96,96,109,1,,,,,,,,
,,,,,,,,,,,,,FF,,,,,,,,0.433,,,,,,,,,,,,,,,,,,,,,,60fde3fa7d68fa07e124b8cf,61036da65f5639875a03cf2a,2021-07-29_23h11.26.353,Simcolourproject_2stim_asymm_v5,2020.2.10,MacIntel,60,61025ae37ef11b136ea224fe,,,,,,,,,1805,45,42,1,0,0,response1disk,,6,13,10,1,0,0,rectangle,13,10,1,0,0,13,10,1,0,0,0,97,97,80,1,,,,,,,,
,,,,,,,,,,,,,FF,,,,,,,,0.399,,,,,,,,,,,,,,,,,,,,,,60fde3fa7d68fa07e124b8cf,61036da65f5639875a03cf2a,2021-07-29_23h11.26.353,Simcolourproject_2stim_asymm_v5,2020.2.10,MacIntel,60,61025ae37ef11b136ea224fe,,,,,,,,,1304,51,-46,1,0,0,response3disk,,5,18,-11,1,0,0,rectangle,18,-11,1,0,0,18,-11,1,0,0,0,98,98,112,1,,,,,,,,
,,,,,,,,,,,,,FF,,,,,,,,0.482,,,,,,,,,,,,,,,,,,,,,,60fde3fa7d68fa07e124b8cf,61036da65f5639875a03cf2a,2021-07-29_23h11.26.353,Simcolourproject_2stim_asymm_v5,2020.2.10,MacIntel,60,61025ae37ef11b136ea224fe,,,,,,,,,514,42,-42,1,0,0,response3disk,,5,13,-17,1,0,0,rectangle,13,-17,1,0,0,13,-17,1,0,0,0,99,99,146,1,,,,,,,,
,,,,,,,,,,,,,FF,,,,,,,,0.567,,,,,,,,,,,,,,,,,,,,,,60fde3fa7d68fa07e124b8cf,61036da65f5639875a03cf2a,2021-07-29_23h11.26.353,Simcolourproject_2stim_asymm_v5,2020.2.10,MacIntel,60,61025ae37ef11b136ea224fe,,,,,,,,,1855,42,43,1,0,0,response1disk,,7,-3,-5,1,0,0,rectangle,53,65,1,0,0,3,-15,1,0,0,0,100,100,141,1,,response1disk_3,TRUE,7,7,"[164,259,168,299,195,138,224,135,23,211,115,150,220,30,31,289,318,170,101,132]",1.965,rectangle
,,,,,,,,,,,,,FF,,,,,,,,0.617,,,,,,,,,,,,,,,,,,,,,,60fde3fa7d68fa07e124b8cf,61036da65f5639875a03cf2a,2021-07-29_23h11.26.353,Simcolourproject_2stim_asymm_v5,2020.2.10,MacIntel,60,61025ae37ef11b136ea224fe,,,,,,,,,2629,64,56,1,0,0,response1disk,,6,14,0,1,0,0,rectangle,14,0,1,0,0,14,0,1,0,0,0,101,101,47,1,,,,,,,,
,,,,,,,,,,,,,FF,,,,,,,,0.8,,,,,,,,,,,,,,,,,,,,,,60fde3fa7d68fa07e124b8cf,61036da65f5639875a03cf2a,2021-07-29_23h11.26.353,Simcolourproject_2stim_asymm_v5,2020.2.10,MacIntel,60,61025ae37ef11b136ea224fe,,,,,,,,,1117,80,-83,1,0,0,response3disk,,4,24,4,1,0,0,rectangle,24,4,1,0,0,24,4,1,0,0,0,102,102,158,1,,,,,,,,
,,,,,,,,,,,,,FF,,,,,,,,0.484,,,,,,,,,,,,,,,,,,,,,,60fde3fa7d68fa07e124b8cf,61036da65f5639875a03cf2a,2021-07-29_23h11.26.353,Simcolourproject_2stim_asymm_v5,2020.2.10,MacIntel,60,61025ae37ef11b136ea224fe,,,,,,,,,3231,46,56,1,0,0,response1disk,,7,12,11,1,0,0,rectangle,12,11,1,0,0,12,11,1,0,0,0,103,103,138,1,,,,,,,,
,,,,,,,,,,,,,FF,,,,,,,,0.949,,,,,,,,,,,,,,,,,,,,,,60fde3fa7d68fa07e124b8cf,61036da65f5639875a03cf2a,2021-07-29_23h11.26.353,Simcolourproject_2stim_asymm_v5,2020.2.10,MacIntel,60,61025ae37ef11b136ea224fe,,,,,,,,,3298,-68,-57,1,0,0,response5disk,,2,-1,7,1,0,0,rectangle,-1,7,1,0,0,-1,7,1,0,0,0,104,104,48,1,,,,,,,,
,,,,,,,,,,,,,FF,,,,,,,,1.066,,,,,,,,,,,,,,,,,,,,,,60fde3fa7d68fa07e124b8cf,61036da65f5639875a03cf2a,2021-07-29_23h11.26.353,Simcolourproject_2stim_asymm_v5,2020.2.10,MacIntel,60,61025ae37ef11b136ea224fe,,,,,,,,,317,50,47,1,0,0,response1disk,,6,4,-3,1,0,0,rectangle,4,-3,1,0,0,4,-3,1,0,0,0,105,105,134,1,,,,,,,,
,,,,,,,,,,,,,FF,,,,,,,,0.466,,,,,,,,,,,,,,,,,,,,,,60fde3fa7d68fa07e124b8cf,61036da65f5639875a03cf2a,2021-07-29_23h11.26.353,Simcolourproject_2stim_asymm_v5,2020.2.10,MacIntel,60,61025ae37ef11b136ea224fe,,,,,,,,,2206,51,65,1,0,0,response1disk,,7,5,5,1,0,0,rectangle,5,5,1,0,0,5,5,1,0,0,0,106,106,71,1,,,,,,,,
,,,,,,,,,,,,,FF,,,,,,,,0.417,,,,,,,,,,,,,,,,,,,,,,60fde3fa7d68fa07e124b8cf,61036da65f5639875a03cf2a,2021-07-29_23h11.26.353,Simcolourproject_2stim_asymm_v5,2020.2.10,MacIntel,60,61025ae37ef11b136ea224fe,,,,,,,,,184,56,74,1,0,0,response1disk,,7,23,3,1,0,0,rectangle,23,3,1,0,0,23,3,1,0,0,0,107,107,33,1,,,,,,,,
,,,,,,,,,,,,,FF,,,,,,,,0.6,,,,,,,,,,,,,,,,,,,,,,60fde3fa7d68fa07e124b8cf,61036da65f5639875a03cf2a,2021-07-29_23h11.26.353,Simcolourproject_2stim_asymm_v5,2020.2.10,MacIntel,60,61025ae37ef11b136ea224fe,,,,,,,,,3769,53,50,1,0,0,response1disk,,6,2,-5,1,0,0,rectangle,2,-5,1,0,0,2,-5,1,0,0,0,108,108,119,1,,,,,,,,
,,,,,,,,,,,,,FF,,,,,,,,0.467,,,,,,,,,,,,,,,,,,,,,,60fde3fa7d68fa07e124b8cf,61036da65f5639875a03cf2a,2021-07-29_23h11.26.353,Simcolourproject_2stim_asymm_v5,2020.2.10,MacIntel,60,61025ae37ef11b136ea224fe,,,,,,,,,619,41,-53,1,0,0,response3disk,,4,9,-3,1,0,0,rectangle,9,-3,1,0,0,9,-3,1,0,0,0,109,109,41,1,,,,,,,,
,,,,,,,,,,,,,FF,,,,,,,,0.918,,,,,,,,,,,,,,,,,,,,,,60fde3fa7d68fa07e124b8cf,61036da65f5639875a03cf2a,2021-07-29_23h11.26.353,Simcolourproject_2stim_asymm_v5,2020.2.10,MacIntel,60,61025ae37ef11b136ea224fe,,,,,,,,,49,41,46,1,0,0,response1disk,,7,20,16,1,0,0,rectangle,20,16,1,0,0,20,16,1,0,0,0,110,110,78,1,,,,,,,,
,,,,,,,,,,,,,FF,,,,,,,,0.498,,,,,,,,,,,,,,,,,,,,,,60fde3fa7d68fa07e124b8cf,61036da65f5639875a03cf2a,2021-07-29_23h11.26.353,Simcolourproject_2stim_asymm_v5,2020.2.10,MacIntel,60,61025ae37ef11b136ea224fe,,,,,,,,,876,29,35,1,0,0,response1disk,,7,1,13,1,0,0,rectangle,1,13,1,0,0,1,13,1,0,0,0,111,111,62,1,,,,,,,,
,,,,,,,,,,,,,FF,,,,,,,,0.449,,,,,,,,,,,,,,,,,,,,,,60fde3fa7d68fa07e124b8cf,61036da65f5639875a03cf2a,2021-07-29_23h11.26.353,Simcolourproject_2stim_asymm_v5,2020.2.10,MacIntel,60,61025ae37ef11b136ea224fe,,,,,,,,,1312,33,-30,1,0,0,response3disk,,5,-3,-2,1,0,0,rectangle,-3,-2,1,0,0,-3,-2,1,0,0,0,112,112,88,1,,,,,,,,
,,,,,,,,,,,,,FF,,,,,,,,0.666,,,,,,,,,,,,,,,,,,,,,,60fde3fa7d68fa07e124b8cf,61036da65f5639875a03cf2a,2021-07-29_23h11.26.353,Simcolourproject_2stim_asymm_v5,2020.2.10,MacIntel,60,61025ae37ef11b136ea224fe,,,,,,,,,3966,-40,-21,1,0,0,response5disk,,2,-4,8,1,0,0,rectangle,-4,8,1,0,0,-4,8,1,0,0,0,113,113,156,1,,,,,,,,
,,,,,,,,,,,,,FF,,,,,,,,0.766,,,,,,,,,,,,,,,,,,,,,,60fde3fa7d68fa07e124b8cf,61036da65f5639875a03cf2a,2021-07-29_23h11.26.353,Simcolourproject_2stim_asymm_v5,2020.2.10,MacIntel,60,61025ae37ef11b136ea224fe,,,,,,,,,3941,35,41,1,0,0,response1disk,,7,7,-12,1,0,0,rectangle,-79,-70,1,0,0,0,7,1,0,0,0,114,114,36,1,,response5disk_3,TRUE,2,3,"[164,259,168,299,195,138,224,135,23,211,115,150,220,30,31,289,318,170,101,132]",2.132,rectangle
,,,,,,,,,,,,,FF,,,,,,,,1.316,,,,,,,,,,,,,,,,,,,,,,60fde3fa7d68fa07e124b8cf,61036da65f5639875a03cf2a,2021-07-29_23h11.26.353,Simcolourproject_2stim_asymm_v5,2020.2.10,MacIntel,60,61025ae37ef11b136ea224fe,,,,,,,,,273,37,-36,1,0,0,response3disk,,5,1,-4,1,0,0,rectangle,1,-4,1,0,0,1,-4,1,0,0,0,115,115,64,1,,,,,,,,
,,,,,,,,,,,,,FF,,,,,,,,0.766,,,,,,,,,,,,,,,,,,,,,,60fde3fa7d68fa07e124b8cf,61036da65f5639875a03cf2a,2021-07-29_23h11.26.353,Simcolourproject_2stim_asymm_v5,2020.2.10,MacIntel,60,61025ae37ef11b136ea224fe,,,,,,,,,4188,-89,-94,1,0,0,response5disk,,3,-12,-18,1,0,0,rectangle,-12,-18,1,0,0,-12,-18,1,0,0,0,116,116,53,1,,,,,,,,
,,,,,,,,,,,,,FF,,,,,,,,0.549,,,,,,,,,,,,,,,,,,,,,,60fde3fa7d68fa07e124b8cf,61036da65f5639875a03cf2a,2021-07-29_23h11.26.353,Simcolourproject_2stim_asymm_v5,2020.2.10,MacIntel,60,61025ae37ef11b136ea224fe,,,,,,,,,3192,32,-53,1,0,0,response3disk,,4,4,-3,1,0,0,rectangle,4,-3,1,0,0,4,-3,1,0,0,0,117,117,117,1,,,,,,,,
,,,,,,,,,,,,,FF,,,,,,,,0.484,,,,,,,,,,,,,,,,,,,,,,60fde3fa7d68fa07e124b8cf,61036da65f5639875a03cf2a,2021-07-29_23h11.26.353,Simcolourproject_2stim_asymm_v5,2020.2.10,MacIntel,60,61025ae37ef11b136ea224fe,,,,,,,,,1581,39,53,1,0,0,response1disk,,7,5,4,1,0,0,rectangle,5,4,1,0,0,5,4,1,0,0,0,118,118,20,1,,,,,,,,
,,,,,,,,,,,,,FF,,,,,,,,0.883,,,,,,,,,,,,,,,,,,,,,,60fde3fa7d68fa07e124b8cf,61036da65f5639875a03cf2a,2021-07-29_23h11.26.353,Simcolourproject_2stim_asymm_v5,2020.2.10,MacIntel,60,61025ae37ef11b136ea224fe,,,,,,,,,4005,63,-68,1,0,0,response3disk,,4,21,-8,1,0,0,rectangle,21,-8,1,0,0,21,-8,1,0,0,0,119,119,50,1,,,,,,,,
,,,,,,,,,,,,,FF,,,,,,,,0.632,,,,,,,,,,,,,,,,,,,,,,60fde3fa7d68fa07e124b8cf,61036da65f5639875a03cf2a,2021-07-29_23h11.26.353,Simcolourproject_2stim_asymm_v5,2020.2.10,MacIntel,60,61025ae37ef11b136ea224fe,,,,,,,,,1647,44,39,1,0,0,response1disk,,6,-16,-11,1,0,0,rectangle,-16,-11,1,0,0,-16,-11,1,0,0,0,120,120,65,1,,,,,,,,
,,,,,,,,,,,,,FF,,,,,,,,0.634,,,,,,,,,,,,,,,,,,,,,,60fde3fa7d68fa07e124b8cf,61036da65f5639875a03cf2a,2021-07-29_23h11.26.353,Simcolourproject_2stim_asymm_v5,2020.2.10,MacIntel,60,61025ae37ef11b136ea224fe,,,,,,,,,1837,52,-55,1,0,0,response3disk,,4,13,-15,1,0,0,rectangle,13,-15,1,0,0,13,-15,1,0,0,0,121,121,61,1,,,,,,,,
,,,,,,,,,,,,,FF,,,,,,,,0.649,,,,,,,,,,,,,,,,,,,,,,60fde3fa7d68fa07e124b8cf,61036da65f5639875a03cf2a,2021-07-29_23h11.26.353,Simcolourproject_2stim_asymm_v5,2020.2.10,MacIntel,60,61025ae37ef11b136ea224fe,,,,,,,,,2325,47,46,1,0,0,response1disk,,6,23,3,1,0,0,rectangle,23,3,1,0,0,23,3,1,0,0,0,122,122,94,1,,,,,,,,
,,,,,,,,,,,,,FF,,,,,,,,0.549,,,,,,,,,,,,,,,,,,,,,,60fde3fa7d68fa07e124b8cf,61036da65f5639875a03cf2a,2021-07-29_23h11.26.353,Simcolourproject_2stim_asymm_v5,2020.2.10,MacIntel,60,61025ae37ef11b136ea224fe,,,,,,,,,2535,60,-49,1,0,0,response3disk,,5,4,9,1,0,0,rectangle,4,9,1,0,0,4,9,1,0,0,0,123,123,26,1,,,,,,,,
,,,,,,,,,,,,,FF,,,,,,,,0.549,,,,,,,,,,,,,,,,,,,,,,60fde3fa7d68fa07e124b8cf,61036da65f5639875a03cf2a,2021-07-29_23h11.26.353,Simcolourproject_2stim_asymm_v5,2020.2.10,MacIntel,60,61025ae37ef11b136ea224fe,,,,,,,,,1446,30,-37,1,0,0,response3disk,,4,8,-8,1,0,0,rectangle,8,-8,1,0,0,8,-8,1,0,0,0,124,124,77,1,,,,,,,,
,,,,,,,,,,,,,FF,,,,,,,,0.783,,,,,,,,,,,,,,,,,,,,,,60fde3fa7d68fa07e124b8cf,61036da65f5639875a03cf2a,2021-07-29_23h11.26.353,Simcolourproject_2stim_asymm_v5,2020.2.10,MacIntel,60,61025ae37ef11b136ea224fe,,,,,,,,,2406,66,51,1,0,0,response1disk,,6,13,-1,1,0,0,rectangle,13,-1,1,0,0,13,-1,1,0,0,0,125,125,32,1,,,,,,,,
,,,,,,,,,,,,,FF,,,,,,,,0.516,,,,,,,,,,,,,,,,,,,,,,60fde3fa7d68fa07e124b8cf,61036da65f5639875a03cf2a,2021-07-29_23h11.26.353,Simcolourproject_2stim_asymm_v5,2020.2.10,MacIntel,60,61025ae37ef11b136ea224fe,,,,,,,,,2425,54,-65,1,0,0,response3disk,,4,6,-9,1,0,0,rectangle,6,-9,1,0,0,6,-9,1,0,0,0,126,126,126,1,,,,,,,,
,,,,,,,,,,,,,FF,,,,,,,,0.582,,,,,,,,,,,,,,,,,,,,,,60fde3fa7d68fa07e124b8cf,61036da65f5639875a03cf2a,2021-07-29_23h11.26.353,Simcolourproject_2stim_asymm_v5,2020.2.10,MacIntel,60,61025ae37ef11b136ea224fe,,,,,,,,,693,57,70,1,0,0,response1disk,,7,8,8,1,0,0,rectangle,8,8,1,0,0,8,8,1,0,0,0,127,127,148,1,,,,,,,,
,,,,,,,,,,,,,FF,,,,,,,,0.517,,,,,,,,,,,,,,,,,,,,,,60fde3fa7d68fa07e124b8cf,61036da65f5639875a03cf2a,2021-07-29_23h11.26.353,Simcolourproject_2stim_asymm_v5,2020.2.10,MacIntel,60,61025ae37ef11b136ea224fe,,,,,,,,,151,50,57,1,0,0,response1disk,,7,12,4,1,0,0,rectangle,12,4,1,0,0,12,4,1,0,0,0,128,128,110,1,,,,,,,,
,,,,,,,,,,,,,FF,,,,,,,,0.466,,,,,,,,,,,,,,,,,,,,,,60fde3fa7d68fa07e124b8cf,61036da65f5639875a03cf2a,2021-07-29_23h11.26.353,Simcolourproject_2stim_asymm_v5,2020.2.10,MacIntel,60,61025ae37ef11b136ea224fe,,,,,,,,,3246,44,-40,1,0,0,response3disk,,5,18,-7,1,0,0,rectangle,18,-7,1,0,0,18,-7,1,0,0,0,129,129,114,1,,,,,,,,
,,,,,,,,,,,,,FF,,,,,,,,0.466,,,,,,,,,,,,,,,,,,,,,,60fde3fa7d68fa07e124b8cf,61036da65f5639875a03cf2a,2021-07-29_23h11.26.353,Simcolourproject_2stim_asymm_v5,2020.2.10,MacIntel,60,61025ae37ef11b136ea224fe,,,,,,,,,66,69,47,1,0,0,response1disk,,6,8,3,1,0,0,rectangle,8,3,1,0,0,8,3,1,0,0,0,130,130,69,1,,,,,,,,
,,,,,,,,,,,,,FF,,,,,,,,0.582,,,,,,,,,,,,,,,,,,,,,,60fde3fa7d68fa07e124b8cf,61036da65f5639875a03cf2a,2021-07-29_23h11.26.353,Simcolourproject_2stim_asymm_v5,2020.2.10,MacIntel,60,61025ae37ef11b136ea224fe,,,,,,,,,1430,71,75,1,0,0,response1disk,,7,13,16,1,0,0,rectangle,32,-32,1,0,0,2,3,1,0,0,0,131,131,34,1,,response3disk_3,TRUE,5,5,"[164,259,168,299,195,138,224,135,23,211,115,150,220,30,31,289,318,170,101,132]",1.916,rectangle
,,,,,,,,,,,,,FF,,,,,,,,0.832,,,,,,,,,,,,,,,,,,,,,,60fde3fa7d68fa07e124b8cf,61036da65f5639875a03cf2a,2021-07-29_23h11.26.353,Simcolourproject_2stim_asymm_v5,2020.2.10,MacIntel,60,61025ae37ef11b136ea224fe,,,,,,,,,368,94,-84,1,0,0,response3disk,,5,18,7,1,0,0,rectangle,18,7,1,0,0,18,7,1,0,0,0,132,132,22,1,,,,,,,,
,,,,,,,,,,,,,FF,,,,,,,,0.484,,,,,,,,,,,,,,,,,,,,,,60fde3fa7d68fa07e124b8cf,61036da65f5639875a03cf2a,2021-07-29_23h11.26.353,Simcolourproject_2stim_asymm_v5,2020.2.10,MacIntel,60,61025ae37ef11b136ea224fe,,,,,,,,,3227,45,45,1,0,0,response1disk,,7,-2,1,1,0,0,rectangle,-2,1,1,0,0,-2,1,1,0,0,0,133,133,113,1,,,,,,,,
,,,,,,,,,,,,,FF,,,,,,,,0.783,,,,,,,,,,,,,,,,,,,,,,60fde3fa7d68fa07e124b8cf,61036da65f5639875a03cf2a,2021-07-29_23h11.26.353,Simcolourproject_2stim_asymm_v5,2020.2.10,MacIntel,60,61025ae37ef11b136ea224fe,,,,,,,,,2510,38,48,1,0,0,response1disk,,7,8,1,1,0,0,rectangle,-67,46,1,0,0,5,4,1,0,0,0,134,134,101,1,,response7disk_3,TRUE,1,1,"[164,259,168,299,195,138,224,135,23,211,115,150,220,30,31,289,318,170,101,132]",2.116,rectangle
,,,,,,,,,,,,,FF,,,,,,,,0.533,,,,,,,,,,,,,,,,,,,,,,60fde3fa7d68fa07e124b8cf,61036da65f5639875a03cf2a,2021-07-29_23h11.26.353,Simcolourproject_2stim_asymm_v5,2020.2.10,MacIntel,60,61025ae37ef11b136ea224fe,,,,,,,,,2213,50,55,1,0,0,response1disk,,7,-9,-2,1,0,0,rectangle,-9,-2,1,0,0,-9,-2,1,0,0,0,135,135,120,1,,,,,,,,
,,,,,,,,,,,,,FF,,,,,,,,0.566,,,,,,,,,,,,,,,,,,,,,,60fde3fa7d68fa07e124b8cf,61036da65f5639875a03cf2a,2021-07-29_23h11.26.353,Simcolourproject_2stim_asymm_v5,2020.2.10,MacIntel,60,61025ae37ef11b136ea224fe,,,,,,,,,491,47,42,1,0,0,response1disk,,6,9,-6,1,0,0,rectangle,9,-6,1,0,0,9,-6,1,0,0,0,136,136,145,1,,,,,,,,
,,,,,,,,,,,,,FF,,,,,,,,0.6,,,,,,,,,,,,,,,,,,,,,,60fde3fa7d68fa07e124b8cf,61036da65f5639875a03cf2a,2021-07-29_23h11.26.353,Simcolourproject_2stim_asymm_v5,2020.2.10,MacIntel,60,61025ae37ef11b136ea224fe,,,,,,,,,1306,48,-64,1,0,0,response3disk,,4,-4,7,1,0,0,rectangle,103,46,1,0,0,32,4,1,0,0,0,137,137,132,1,,response1disk_3,TRUE,6,6,"[164,259,168,299,195,138,224,135,23,211,115,150,220,30,31,289,318,170,101,132]",1.633,rectangle
,,,,,,,,,,,,,FF,,,,,,,,0.7,,,,,,,,,,,,,,,,,,,,,,60fde3fa7d68fa07e124b8cf,61036da65f5639875a03cf2a,2021-07-29_23h11.26.353,Simcolourproject_2stim_asymm_v5,2020.2.10,MacIntel,60,61025ae37ef11b136ea224fe,,,,,,,,,2381,49,44,1,0,0,response1disk,,6,4,0,1,0,0,rectangle,4,0,1,0,0,4,0,1,0,0,0,138,138,87,1,,,,,,,,
,,,,,,,,,,,,,FF,,,,,,,,0.517,,,,,,,,,,,,,,,,,,,,,,60fde3fa7d68fa07e124b8cf,61036da65f5639875a03cf2a,2021-07-29_23h11.26.353,Simcolourproject_2stim_asymm_v5,2020.2.10,MacIntel,60,61025ae37ef11b136ea224fe,,,,,,,,,2485,47,67,1,0,0,response1disk,,7,17,7,1,0,0,rectangle,17,7,1,0,0,17,7,1,0,0,0,139,139,17,1,,,,,,,,
,,,,,,,,,,,,,FF,,,,,,,,0.433,,,,,,,,,,,,,,,,,,,,,,60fde3fa7d68fa07e124b8cf,61036da65f5639875a03cf2a,2021-07-29_23h11.26.353,Simcolourproject_2stim_asymm_v5,2020.2.10,MacIntel,60,61025ae37ef11b136ea224fe,,,,,,,,,783,62,-56,1,0,0,response3disk,,5,-5,11,1,0,0,rectangle,-5,11,1,0,0,-5,11,1,0,0,0,140,140,147,1,,,,,,,,
,,,,,,,,,,,,,FF,,,,,,,,0.333,,,,,,,,,,,,,,,,,,,,,,60fde3fa7d68fa07e124b8cf,61036da65f5639875a03cf2a,2021-07-29_23h11.26.353,Simcolourproject_2stim_asymm_v5,2020.2.10,MacIntel,60,61025ae37ef11b136ea224fe,,,,,,,,,901,43,-35,1,0,0,response3disk,,5,-4,0,1,0,0,rectangle,-4,0,1,0,0,-4,0,1,0,0,0,141,141,56,1,,,,,,,,
,,,,,,,,,,,,,FF,,,,,,,,0.582,,,,,,,,,,,,,,,,,,,,,,60fde3fa7d68fa07e124b8cf,61036da65f5639875a03cf2a,2021-07-29_23h11.26.353,Simcolourproject_2stim_asymm_v5,2020.2.10,MacIntel,60,61025ae37ef11b136ea224fe,,,,,,,,,1022,48,45,1,0,0,response1disk,,6,12,4,1,0,0,rectangle,12,4,1,0,0,12,4,1,0,0,0,142,142,59,1,,,,,,,,
,,,,,,,,,,,,,FF,,,,,,,,0.565,,,,,,,,,,,,,,,,,,,,,,60fde3fa7d68fa07e124b8cf,61036da65f5639875a03cf2a,2021-07-29_23h11.26.353,Simcolourproject_2stim_asymm_v5,2020.2.10,MacIntel,60,61025ae37ef11b136ea224fe,,,,,,,,,629,48,46,1,0,0,response1disk,,6,13,9,1,0,0,rectangle,13,9,1,0,0,13,9,1,0,0,0,143,143,102,1,,,,,,,,
,,,,,,,,,,,,,FF,,,,,,,,0.433,,,,,,,,,,,,,,,,,,,,,,60fde3fa7d68fa07e124b8cf,61036da65f5639875a03cf2a,2021-07-29_23h11.26.353,Simcolourproject_2stim_asymm_v5,2020.2.10,MacIntel,60,61025ae37ef11b136ea224fe,,,,,,,,,3327,39,46,1,0,0,response1disk,,7,18,12,1,0,0,rectangle,18,12,1,0,0,18,12,1,0,0,0,144,144,105,1,,,,,,,,
,,,,,,,,,,,,,FF,,,,,,,,0.716,,,,,,,,,,,,,,,,,,,,,,60fde3fa7d68fa07e124b8cf,61036da65f5639875a03cf2a,2021-07-29_23h11.26.353,Simcolourproject_2stim_asymm_v5,2020.2.10,MacIntel,60,61025ae37ef11b136ea224fe,,,,,,,,,1821,42,-49,1,0,0,response3disk,,4,-12,15,1,0,0,rectangle,-12,15,1,0,0,-12,15,1,0,0,0,145,145,157,1,,,,,,,,
,,,,,,,,,,,,,FF,,,,,,,,0.484,,,,,,,,,,,,,,,,,,,,,,60fde3fa7d68fa07e124b8cf,61036da65f5639875a03cf2a,2021-07-29_23h11.26.353,Simcolourproject_2stim_asymm_v5,2020.2.10,MacIntel,60,61025ae37ef11b136ea224fe,,,,,,,,,2756,39,-42,1,0,0,response3disk,,4,0,-3,1,0,0,rectangle,0,-3,1,0,0,0,-3,1,0,0,0,146,146,42,1,,,,,,,,
,,,,,,,,,,,,,FF,,,,,,,,0.783,,,,,,,,,,,,,,,,,,,,,,60fde3fa7d68fa07e124b8cf,61036da65f5639875a03cf2a,2021-07-29_23h11.26.353,Simcolourproject_2stim_asymm_v5,2020.2.10,MacIntel,60,61025ae37ef11b136ea224fe,,,,,,,,,3104,-59,-49,1,0,0,response5disk,,2,-17,16,1,0,0,rectangle,-17,16,1,0,0,-17,16,1,0,0,0,147,147,83,1,,,,,,,,
,,,,,,,,,,,,,FF,,,,,,,,0.883,,,,,,,,,,,,,,,,,,,,,,60fde3fa7d68fa07e124b8cf,61036da65f5639875a03cf2a,2021-07-29_23h11.26.353,Simcolourproject_2stim_asymm_v5,2020.2.10,MacIntel,60,61025ae37ef11b136ea224fe,,,,,,,,,1900,-41,-41,1,0,0,response5disk,,3,-4,0,1,0,0,rectangle,-4,0,1,0,0,-4,0,1,0,0,0,148,148,67,1,,,,,,,,
,,,,,,,,,,,,,FF,,,,,,,,0.5,,,,,,,,,,,,,,,,,,,,,,60fde3fa7d68fa07e124b8cf,61036da65f5639875a03cf2a,2021-07-29_23h11.26.353,Simcolourproject_2stim_asymm_v5,2020.2.10,MacIntel,60,61025ae37ef11b136ea224fe,,,,,,,,,2072,39,-52,1,0,0,response3disk,,4,5,-5,1,0,0,rectangle,75,-64,1,0,0,-4,-7,1,0,0,0,149,149,7,1,,response3disk_3,TRUE,5,5,"[164,259,168,299,195,138,224,135,23,211,115,150,220,30,31,289,318,170,101,132]",2.048,rectangle
,,,,,,,,,,,,,FF,,,,,,,,1.366,,,,,,,,,,,,,,,,,,,,,,60fde3fa7d68fa07e124b8cf,61036da65f5639875a03cf2a,2021-07-29_23h11.26.353,Simcolourproject_2stim_asymm_v5,2020.2.10,MacIntel,60,61025ae37ef11b136ea224fe,,,,,,,,,4146,-51,-30,1,0,0,response5disk,,2,-3,-15,1,0,0,rectangle,-3,-15,1,0,0,-3,-15,1,0,0,0,150,150,108,1,,,,,,,,
,,,,,,,,,,,,,FF,,,,,,,,0.515,,,,,,,,,,,,,,,,,,,,,,60fde3fa7d68fa07e124b8cf,61036da65f5639875a03cf2a,2021-07-29_23h11.26.353,Simcolourproject_2stim_asymm_v5,2020.2.10,MacIntel,60,61025ae37ef11b136ea224fe,,,,,,,,,3453,59,-70,1,0,0,response3disk,,4,11,-12,1,0,0,rectangle,11,-12,1,0,0,11,-12,1,0,0,0,151,151,16,1,,,,,,,,
,,,,,,,,,,,,,FF,,,,,,,,0.733,,,,,,,,,,,,,,,,,,,,,,60fde3fa7d68fa07e124b8cf,61036da65f5639875a03cf2a,2021-07-29_23h11.26.353,Simcolourproject_2stim_asymm_v5,2020.2.10,MacIntel,60,61025ae37ef11b136ea224fe,,,,,,,,,3600,33,-44,1,0,0,response3disk,,4,19,-12,1,0,0,rectangle,19,-12,1,0,0,19,-12,1,0,0,0,152,152,74,1,,,,,,,,
,,,,,,,,,,,,,FF,,,,,,,,0.516,,,,,,,,,,,,,,,,,,,,,,60fde3fa7d68fa07e124b8cf,61036da65f5639875a03cf2a,2021-07-29_23h11.26.353,Simcolourproject_2stim_asymm_v5,2020.2.10,MacIntel,60,61025ae37ef11b136ea224fe,,,,,,,,,1880,51,-48,1,0,0,response3disk,,5,0,5,1,0,0,rectangle,0,5,1,0,0,0,5,1,0,0,0,153,153,49,1,,,,,,,,
,,,,,,,,,,,,,FF,,,,,,,,0.567,,,,,,,,,,,,,,,,,,,,,,60fde3fa7d68fa07e124b8cf,61036da65f5639875a03cf2a,2021-07-29_23h11.26.353,Simcolourproject_2stim_asymm_v5,2020.2.10,MacIntel,60,61025ae37ef11b136ea224fe,,,,,,,,,1253,36,44,1,0,0,response1disk,,7,9,8,1,0,0,rectangle,9,8,1,0,0,9,8,1,0,0,0,154,154,92,1,,,,,,,,
,,,,,,,,,,,,,FF,,,,,,,,0.766,,,,,,,,,,,,,,,,,,,,,,60fde3fa7d68fa07e124b8cf,61036da65f5639875a03cf2a,2021-07-29_23h11.26.353,Simcolourproject_2stim_asymm_v5,2020.2.10,MacIntel,60,61025ae37ef11b136ea224fe,,,,,,,,,1661,59,-59,1,0,0,response3disk,,5,9,0,1,0,0,rectangle,9,0,1,0,0,9,0,1,0,0,0,155,155,124,1,,,,,,,,
,,,,,,,,,,,,,FF,,,,,,,,0.449,,,,,,,,,,,,,,,,,,,,,,60fde3fa7d68fa07e124b8cf,61036da65f5639875a03cf2a,2021-07-29_23h11.26.353,Simcolourproject_2stim_asymm_v5,2020.2.10,MacIntel,60,61025ae37ef11b136ea224fe,,,,,,,,,3137,61,37,1,0,0,response1disk,,6,15,3,1,0,0,rectangle,15,3,1,0,0,15,3,1,0,0,0,156,156,9,1,,,,,,,,
,,,,,,,,,,,,,FF,,,,,,,,0.433,,,,,,,,,,,,,,,,,,,,,,60fde3fa7d68fa07e124b8cf,61036da65f5639875a03cf2a,2021-07-29_23h11.26.353,Simcolourproject_2stim_asymm_v5,2020.2.10,MacIntel,60,61025ae37ef11b136ea224fe,,,,,,,,,150,68,52,1,0,0,response1disk,,6,1,10,1,0,0,rectangle,1,10,1,0,0,1,10,1,0,0,0,157,157,97,1,,,,,,,,
,,,,,,,,,,,,,FF,,,,,,,,0.499,,,,,,,,,,,,,,,,,,,,,,60fde3fa7d68fa07e124b8cf,61036da65f5639875a03cf2a,2021-07-29_23h11.26.353,Simcolourproject_2stim_asymm_v5,2020.2.10,MacIntel,60,61025ae37ef11b136ea224fe,,,,,,,,,2038,27,-16,1,0,0,response3disk,,5,24,-16,1,0,0,rectangle,24,-16,1,0,0,24,-16,1,0,0,0,158,158,15,1,,,,,,,,
,,,,,,,,,,,,,FF,,,,,,,,0.583,,,,,,,,,,,,,,,,,,,,,,60fde3fa7d68fa07e124b8cf,61036da65f5639875a03cf2a,2021-07-29_23h11.26.353,Simcolourproject_2stim_asymm_v5,2020.2.10,MacIntel,60,61025ae37ef11b136ea224fe,,,,,,,,,3349,64,59,1,0,0,response1disk,,6,11,-5,1,0,0,rectangle,11,-5,1,0,0,11,-5,1,0,0,0,159,159,133,1,,,,,,,,
,,,,,,,,,,,,,FF,,,,,,,,0.751,,,,,,,,,,,,,,,,,,,,,,60fde3fa7d68fa07e124b8cf,61036da65f5639875a03cf2a,2021-07-29_23h11.26.353,Simcolourproject_2stim_asymm_v5,2020.2.10,MacIntel,60,61025ae37ef11b136ea224fe,,,,,,,,,165,33,-45,1,0,0,response3disk,,4,-14,2,1,0,0,rectangle,-14,2,1,0,0,-14,2,1,0,0,1,0,160,70,1,,,,,,,,
,,,,,,,,,,,,,FF,,,,,,,,0.533,,,,,,,,,,,,,,,,,,,,,,60fde3fa7d68fa07e124b8cf,61036da65f5639875a03cf2a,2021-07-29_23h11.26.353,Simcolourproject_2stim_asymm_v5,2020.2.10,MacIntel,60,61025ae37ef11b136ea224fe,,,,,,,,,3299,50,60,1,0,0,response1disk,,7,-3,-16,1,0,0,rectangle,-3,-16,1,0,0,-3,-16,1,0,0,1,1,161,8,1,,,,,,,,
,,,,,,,,,,,,,FF,,,,,,,,1.483,,,,,,,,,,,,,,,,,,,,,,60fde3fa7d68fa07e124b8cf,61036da65f5639875a03cf2a,2021-07-29_23h11.26.353,Simcolourproject_2stim_asymm_v5,2020.2.10,MacIntel,60,61025ae37ef11b136ea224fe,,,,,,,,,4288,68,55,1,0,0,response1disk,,6,11,16,1,0,0,rectangle,11,16,1,0,0,11,16,1,0,0,1,2,162,73,1,,,,,,,,
,,,,,,,,,,,,,FF,,,,,,,,0.482,,,,,,,,,,,,,,,,,,,,,,60fde3fa7d68fa07e124b8cf,61036da65f5639875a03cf2a,2021-07-29_23h11.26.353,Simcolourproject_2stim_asymm_v5,2020.2.10,MacIntel,60,61025ae37ef11b136ea224fe,,,,,,,,,4209,35,48,1,0,0,response1disk,,7,6,13,1,0,0,rectangle,99,48,1,0,0,-4,2,1,0,0,1,3,163,75,1,,response1disk_3,TRUE,6,6,"[164,259,168,299,195,138,224,135,23,211,115,150,220,30,31,289,318,170,101,132]",1.949,rectangle
,,,,,,,,,,,,,FF,,,,,,,,0.75,,,,,,,,,,,,,,,,,,,,,,60fde3fa7d68fa07e124b8cf,61036da65f5639875a03cf2a,2021-07-29_23h11.26.353,Simcolourproject_2stim_asymm_v5,2020.2.10,MacIntel,60,61025ae37ef11b136ea224fe,,,,,,,,,3320,54,63,1,0,0,response1disk,,7,4,-9,1,0,0,rectangle,4,-9,1,0,0,4,-9,1,0,0,1,4,164,140,1,,,,,,,,
,,,,,,,,,,,,,FF,,,,,,,,0.767,,,,,,,,,,,,,,,,,,,,,,60fde3fa7d68fa07e124b8cf,61036da65f5639875a03cf2a,2021-07-29_23h11.26.353,Simcolourproject_2stim_asymm_v5,2020.2.10,MacIntel,60,61025ae37ef11b136ea224fe,,,,,,,,,3425,-47,-48,1,0,0,response5disk,,3,0,6,1,0,0,rectangle,0,6,1,0,0,0,6,1,0,0,1,5,165,131,1,,,,,,,,
,,,,,,,,,,,,,FF,,,,,,,,0.517,,,,,,,,,,,,,,,,,,,,,,60fde3fa7d68fa07e124b8cf,61036da65f5639875a03cf2a,2021-07-29_23h11.26.353,Simcolourproject_2stim_asymm_v5,2020.2.10,MacIntel,60,61025ae37ef11b136ea224fe,,,,,,,,,2383,70,78,1,0,0,response1disk,,7,24,2,1,0,0,rectangle,24,2,1,0,0,24,2,1,0,0,1,6,166,113,1,,,,,,,,
,,,,,,,,,,,,,FF,,,,,,,,0.75,,,,,,,,,,,,,,,,,,,,,,60fde3fa7d68fa07e124b8cf,61036da65f5639875a03cf2a,2021-07-29_23h11.26.353,Simcolourproject_2stim_asymm_v5,2020.2.10,MacIntel,60,61025ae37ef11b136ea224fe,,,,,,,,,533,-34,-30,1,0,0,response5disk,,2,-21,-15,1,0,0,rectangle,53,72,1,0,0,10,7,1,0,0,1,7,167,156,1,,response1disk_3,TRUE,7,7,"[164,259,168,299,195,138,224,135,23,211,115,150,220,30,31,289,318,170,101,132]",1.633,rectangle
,,,,,,,,,,,,,FF,,,,,,,,1.067,,,,,,,,,,,,,,,,,,,,,,60fde3fa7d68fa07e124b8cf,61036da65f5639875a03cf2a,2021-07-29_23h11.26.353,Simcolourproject_2stim_asymm_v5,2020.2.10,MacIntel,60,61025ae37ef11b136ea224fe,,,,,,,,,13,30,-21,1,0,0,response3disk,,5,1,10,1,0,0,rectangle,1,10,1,0,0,1,10,1,0,0,1,8,168,62,1,,,,,,,,
,,,,,,,,,,,,,FF,,,,,,,,0.584,,,,,,,,,,,,,,,,,,,,,,60fde3fa7d68fa07e124b8cf,61036da65f5639875a03cf2a,2021-07-29_23h11.26.353,Simcolourproject_2stim_asymm_v5,2020.2.10,MacIntel,60,61025ae37ef11b136ea224fe,,,,,,,,,3379,65,70,1,0,0,response1disk,,7,15,0,1,0,0,rectangle,93,-35,1,0,0,-1,-4,1,0,0,1,9,169,95,1,,response3disk_3,TRUE,5,5,"[164,259,168,299,195,138,224,135,23,211,115,150,220,30,31,289,318,170,101,132]",2.413,rectangle
,,,,,,,,,,,,,FF,,,,,,,,0.95,,,,,,,,,,,,,,,,,,,,,,60fde3fa7d68fa07e124b8cf,61036da65f5639875a03cf2a,2021-07-29_23h11.26.353,Simcolourproject_2stim_asymm_v5,2020.2.10,MacIntel,60,61025ae37ef11b136ea224fe,,,,,,,,,167,59,-58,1,0,0,response3disk,,5,4,-8,1,0,0,rectangle,4,-8,1,0,0,4,-8,1,0,0,1,10,170,4,1,,,,,,,,
,,,,,,,,,,,,,FF,,,,,,,,0.748,,,,,,,,,,,,,,,,,,,,,,60fde3fa7d68fa07e124b8cf,61036da65f5639875a03cf2a,2021-07-29_23h11.26.353,Simcolourproject_2stim_asymm_v5,2020.2.10,MacIntel,60,61025ae37ef11b136ea224fe,,,,,,,,,2541,-42,46,1,0,0,response7disk,,0,-5,8,1,0,0,rectangle,-5,8,1,0,0,-5,8,1,0,0,1,11,171,31,1,,,,,,,,
,,,,,,,,,,,,,FF,,,,,,,,0.816,,,,,,,,,,,,,,,,,,,,,,60fde3fa7d68fa07e124b8cf,61036da65f5639875a03cf2a,2021-07-29_23h11.26.353,Simcolourproject_2stim_asymm_v5,2020.2.10,MacIntel,60,61025ae37ef11b136ea224fe,,,,,,,,,2838,-39,-37,1,0,0,response5disk,,2,-7,1,1,0,0,rectangle,-7,1,1,0,0,-7,1,1,0,0,1,12,172,77,1,,,,,,,,
,,,,,,,,,,,,,FF,,,,,,,,0.766,,,,,,,,,,,,,,,,,,,,,,60fde3fa7d68fa07e124b8cf,61036da65f5639875a03cf2a,2021-07-29_23h11.26.353,Simcolourproject_2stim_asymm_v5,2020.2.10,MacIntel,60,61025ae37ef11b136ea224fe,,,,,,,,,724,-38,-36,1,0,0,response5disk,,2,-18,-10,1,0,0,rectangle,-18,-10,1,0,0,-18,-10,1,0,0,1,13,173,57,1,,,,,,,,
,,,,,,,,,,,,,FF,,,,,,,,0.85,,,,,,,,,,,,,,,,,,,,,,60fde3fa7d68fa07e124b8cf,61036da65f5639875a03cf2a,2021-07-29_23h11.26.353,Simcolourproject_2stim_asymm_v5,2020.2.10,MacIntel,60,61025ae37ef11b136ea224fe,,,,,,,,,2675,-45,-42,1,0,0,response5disk,,2,-28,-8,1,0,0,rectangle,-28,-8,1,0,0,-28,-8,1,0,0,1,14,174,99,1,,,,,,,,
,,,,,,,,,,,,,FF,,,,,,,,0.666,,,,,,,,,,,,,,,,,,,,,,60fde3fa7d68fa07e124b8cf,61036da65f5639875a03cf2a,2021-07-29_23h11.26.353,Simcolourproject_2stim_asymm_v5,2020.2.10,MacIntel,60,61025ae37ef11b136ea224fe,,,,,,,,,4141,-43,-50,1,0,0,response5disk,,3,-18,-4,1,0,0,rectangle,-18,-4,1,0,0,-18,-4,1,0,0,1,15,175,129,1,,,,,,,,
,,,,,,,,,,,,,FF,,,,,,,,0.483,,,,,,,,,,,,,,,,,,,,,,60fde3fa7d68fa07e124b8cf,61036da65f5639875a03cf2a,2021-07-29_23h11.26.353,Simcolourproject_2stim_asymm_v5,2020.2.10,MacIntel,60,61025ae37ef11b136ea224fe,,,,,,,,,676,42,-46,1,0,0,response3disk,,4,10,0,1,0,0,rectangle,10,0,1,0,0,10,0,1,0,0,1,16,176,89,1,,,,,,,,
,,,,,,,,,,,,,FF,,,,,,,,1.117,,,,,,,,,,,,,,,,,,,,,,60fde3fa7d68fa07e124b8cf,61036da65f5639875a03cf2a,2021-07-29_23h11.26.353,Simcolourproject_2stim_asymm_v5,2020.2.10,MacIntel,60,61025ae37ef11b136ea224fe,,,,,,,,,1632,65,-58,1,0,0,response3disk,,5,18,-16,1,0,0,rectangle,18,-16,1,0,0,18,-16,1,0,0,1,17,177,84,1,,,,,,,,
,,,,,,,,,,,,,FF,,,,,,,,0.816,,,,,,,,,,,,,,,,,,,,,,60fde3fa7d68fa07e124b8cf,61036da65f5639875a03cf2a,2021-07-29_23h11.26.353,Simcolourproject_2stim_asymm_v5,2020.2.10,MacIntel,60,61025ae37ef11b136ea224fe,,,,,,,,,3097,-66,-50,1,0,0,response5disk,,2,-13,-2,1,0,0,rectangle,-13,-2,1,0,0,-13,-2,1,0,0,1,18,178,20,1,,,,,,,,
,,,,,,,,,,,,,FF,,,,,,,,0.683,,,,,,,,,,,,,,,,,,,,,,60fde3fa7d68fa07e124b8cf,61036da65f5639875a03cf2a,2021-07-29_23h11.26.353,Simcolourproject_2stim_asymm_v5,2020.2.10,MacIntel,60,61025ae37ef11b136ea224fe,,,,,,,,,3686,47,48,1,0,0,response1disk,,7,0,2,1,0,0,rectangle,0,2,1,0,0,0,2,1,0,0,1,19,179,103,1,,,,,,,,
,,,,,,,,,,,,,FF,,,,,,,,0.833,,,,,,,,,,,,,,,,,,,,,,60fde3fa7d68fa07e124b8cf,61036da65f5639875a03cf2a,2021-07-29_23h11.26.353,Simcolourproject_2stim_asymm_v5,2020.2.10,MacIntel,60,61025ae37ef11b136ea224fe,,,,,,,,,3745,64,-70,1,0,0,response3disk,,4,5,13,1,0,0,rectangle,5,13,1,0,0,5,13,1,0,0,1,20,180,100,1,,,,,,,,
,,,,,,,,,,,,,FF,,,,,,,,0.882,,,,,,,,,,,,,,,,,,,,,,60fde3fa7d68fa07e124b8cf,61036da65f5639875a03cf2a,2021-07-29_23h11.26.353,Simcolourproject_2stim_asymm_v5,2020.2.10,MacIntel,60,61025ae37ef11b136ea224fe,,,,,,,,,954,59,-57,1,0,0,response3disk,,5,23,-1,1,0,0,rectangle,23,-1,1,0,0,23,-1,1,0,0,1,21,181,109,1,,,,,,,,
,,,,,,,,,,,,,FF,,,,,,,,0.85,,,,,,,,,,,,,,,,,,,,,,60fde3fa7d68fa07e124b8cf,61036da65f5639875a03cf2a,2021-07-29_23h11.26.353,Simcolourproject_2stim_asymm_v5,2020.2.10,MacIntel,60,61025ae37ef11b136ea224fe,,,,,,,,,3297,-43,-39,1,0,0,response5disk,,2,-25,-15,1,0,0,rectangle,-25,-15,1,0,0,-25,-15,1,0,0,1,22,182,104,1,,,,,,,,
,,,,,,,,,,,,,FF,,,,,,,,0.751,,,,,,,,,,,,,,,,,,,,,,60fde3fa7d68fa07e124b8cf,61036da65f5639875a03cf2a,2021-07-29_23h11.26.353,Simcolourproject_2stim_asymm_v5,2020.2.10,MacIntel,60,61025ae37ef11b136ea224fe,,,,,,,,,762,41,46,1,0,0,response1disk,,7,20,4,1,0,0,rectangle,20,4,1,0,0,20,4,1,0,0,1,23,183,120,1,,,,,,,,
,,,,,,,,,,,,,FF,,,,,,,,0.882,,,,,,,,,,,,,,,,,,,,,,60fde3fa7d68fa07e124b8cf,61036da65f5639875a03cf2a,2021-07-29_23h11.26.353,Simcolourproject_2stim_asymm_v5,2020.2.10,MacIntel,60,61025ae37ef11b136ea224fe,,,,,,,,,281,-36,-36,1,0,0,response5disk,,3,-1,6,1,0,0,rectangle,-1,6,1,0,0,-1,6,1,0,0,1,24,184,157,1,,,,,,,,
,,,,,,,,,,,,,FF,,,,,,,,0.649,,,,,,,,,,,,,,,,,,,,,,60fde3fa7d68fa07e124b8cf,61036da65f5639875a03cf2a,2021-07-29_23h11.26.353,Simcolourproject_2stim_asymm_v5,2020.2.10,MacIntel,60,61025ae37ef11b136ea224fe,,,,,,,,,790,-57,-53,1,0,0,response5disk,,2,-20,-10,1,0,0,rectangle,-20,-10,1,0,0,-20,-10,1,0,0,1,25,185,82,1,,,,,,,,
,,,,,,,,,,,,,FF,,,,,,,,0.666,,,,,,,,,,,,,,,,,,,,,,60fde3fa7d68fa07e124b8cf,61036da65f5639875a03cf2a,2021-07-29_23h11.26.353,Simcolourproject_2stim_asymm_v5,2020.2.10,MacIntel,60,61025ae37ef11b136ea224fe,,,,,,,,,3540,45,80,1,0,0,response1disk,,7,7,3,1,0,0,rectangle,7,3,1,0,0,7,3,1,0,0,1,26,186,151,1,,,,,,,,
,,,,,,,,,,,,,FF,,,,,,,,0.867,,,,,,,,,,,,,,,,,,,,,,60fde3fa7d68fa07e124b8cf,61036da65f5639875a03cf2a,2021-07-29_23h11.26.353,Simcolourproject_2stim_asymm_v5,2020.2.10,MacIntel,60,61025ae37ef11b136ea224fe,,,,,,,,,1777,55,-58,1,0,0,response3disk,,4,17,-8,1,0,0,rectangle,17,-8,1,0,0,17,-8,1,0,0,1,27,187,71,1,,,,,,,,
,,,,,,,,,,,,,FF,,,,,,,,0.916,,,,,,,,,,,,,,,,,,,,,,60fde3fa7d68fa07e124b8cf,61036da65f5639875a03cf2a,2021-07-29_23h11.26.353,Simcolourproject_2stim_asymm_v5,2020.2.10,MacIntel,60,61025ae37ef11b136ea224fe,,,,,,,,,2363,-45,-59,1,0,0,response5disk,,3,-14,-13,1,0,0,rectangle,-14,-13,1,0,0,-14,-13,1,0,0,1,28,188,90,1,,,,,,,,
,,,,,,,,,,,,,FF,,,,,,,,0.982,,,,,,,,,,,,,,,,,,,,,,60fde3fa7d68fa07e124b8cf,61036da65f5639875a03cf2a,2021-07-29_23h11.26.353,Simcolourproject_2stim_asymm_v5,2020.2.10,MacIntel,60,61025ae37ef11b136ea224fe,,,,,,,,,1231,-56,-65,1,0,0,response5disk,,3,-14,5,1,0,0,rectangle,-14,5,1,0,0,-14,5,1,0,0,1,29,189,41,1,,,,,,,,
,,,,,,,,,,,,,FF,,,,,,,,0.582,,,,,,,,,,,,,,,,,,,,,,60fde3fa7d68fa07e124b8cf,61036da65f5639875a03cf2a,2021-07-29_23h11.26.353,Simcolourproject_2stim_asymm_v5,2020.2.10,MacIntel,60,61025ae37ef11b136ea224fe,,,,,,,,,2256,87,-70,1,0,0,response3disk,,5,26,-16,1,0,0,rectangle,26,-16,1,0,0,26,-16,1,0,0,1,30,190,92,1,,,,,,,,
,,,,,,,,,,,,,FF,,,,,,,,1.067,,,,,,,,,,,,,,,,,,,,,,60fde3fa7d68fa07e124b8cf,61036da65f5639875a03cf2a,2021-07-29_23h11.26.353,Simcolourproject_2stim_asymm_v5,2020.2.10,MacIntel,60,61025ae37ef11b136ea224fe,,,,,,,,,2587,26,-16,1,0,0,response3disk,,5,7,5,1,0,0,rectangle,7,5,1,0,0,7,5,1,0,0,1,31,191,86,1,,,,,,,,
,,,,,,,,,,,,,FF,,,,,,,,0.882,,,,,,,,,,,,,,,,,,,,,,60fde3fa7d68fa07e124b8cf,61036da65f5639875a03cf2a,2021-07-29_23h11.26.353,Simcolourproject_2stim_asymm_v5,2020.2.10,MacIntel,60,61025ae37ef11b136ea224fe,,,,,,,,,3857,85,75,1,0,0,response1disk,,6,24,10,1,0,0,rectangle,24,10,1,0,0,24,10,1,0,0,1,32,192,55,1,,,,,,,,
,,,,,,,,,,,,,FF,,,,,,,,0.416,,,,,,,,,,,,,,,,,,,,,,60fde3fa7d68fa07e124b8cf,61036da65f5639875a03cf2a,2021-07-29_23h11.26.353,Simcolourproject_2stim_asymm_v5,2020.2.10,MacIntel,60,61025ae37ef11b136ea224fe,,,,,,,,,3446,60,56,1,0,0,response1disk,,6,20,-7,1,0,0,rectangle,20,-7,1,0,0,20,-7,1,0,0,1,33,193,66,1,,,,,,,,
,,,,,,,,,,,,,FF,,,,,,,,0.933,,,,,,,,,,,,,,,,,,,,,,60fde3fa7d68fa07e124b8cf,61036da65f5639875a03cf2a,2021-07-29_23h11.26.353,Simcolourproject_2stim_asymm_v5,2020.2.10,MacIntel,60,61025ae37ef11b136ea224fe,,,,,,,,,11,37,-46,1,0,0,response3disk,,4,-5,-1,1,0,0,rectangle,-42,-72,1,0,0,-13,3,1,0,0,1,34,194,139,1,,response5disk_3,TRUE,3,3,"[164,259,168,299,195,138,224,135,23,211,115,150,220,30,31,289,318,170,101,132]",2.049,rectangle
,,,,,,,,,,,,,FF,,,,,,,,0.617,,,,,,,,,,,,,,,,,,,,,,60fde3fa7d68fa07e124b8cf,61036da65f5639875a03cf2a,2021-07-29_23h11.26.353,Simcolourproject_2stim_asymm_v5,2020.2.10,MacIntel,60,61025ae37ef11b136ea224fe,,,,,,,,,3541,48,72,1,0,0,response1disk,,7,12,13,1,0,0,rectangle,12,13,1,0,0,12,13,1,0,0,1,35,195,9,1,,,,,,,,
,,,,,,,,,,,,,FF,,,,,,,,0.9,,,,,,,,,,,,,,,,,,,,,,60fde3fa7d68fa07e124b8cf,61036da65f5639875a03cf2a,2021-07-29_23h11.26.353,Simcolourproject_2stim_asymm_v5,2020.2.10,MacIntel,60,61025ae37ef11b136ea224fe,,,,,,,,,1120,43,41,1,0,0,response1disk,,6,16,8,1,0,0,rectangle,16,8,1,0,0,16,8,1,0,0,1,36,196,125,1,,,,,,,,
,,,,,,,,,,,,,FF,,,,,,,,1.166,,,,,,,,,,,,,,,,,,,,,,60fde3fa7d68fa07e124b8cf,61036da65f5639875a03cf2a,2021-07-29_23h11.26.353,Simcolourproject_2stim_asymm_v5,2020.2.10,MacIntel,60,61025ae37ef11b136ea224fe,,,,,,,,,2661,27,48,1,0,0,response1disk,,7,6,-4,1,0,0,rectangle,6,-4,1,0,0,6,-4,1,0,0,1,37,197,142,1,,,,,,,,
,,,,,,,,,,,,,FF,,,,,,,,1.749,,,,,,,,,,,,,,,,,,,,,,60fde3fa7d68fa07e124b8cf,61036da65f5639875a03cf2a,2021-07-29_23h11.26.353,Simcolourproject_2stim_asymm_v5,2020.2.10,MacIntel,60,61025ae37ef11b136ea224fe,,,,,,,,,2728,-46,-36,1,0,0,response5disk,,2,-13,0,1,0,0,rectangle,-13,0,1,0,0,-13,0,1,0,0,1,38,198,50,1,,,,,,,,
,,,,,,,,,,,,,FF,,,,,,,,0.932,,,,,,,,,,,,,,,,,,,,,,60fde3fa7d68fa07e124b8cf,61036da65f5639875a03cf2a,2021-07-29_23h11.26.353,Simcolourproject_2stim_asymm_v5,2020.2.10,MacIntel,60,61025ae37ef11b136ea224fe,,,,,,,,,1011,51,90,1,0,0,response1disk,,7,12,10,1,0,0,rectangle,12,10,1,0,0,12,10,1,0,0,1,39,199,108,1,,,,,,,,
,,,,,,,,,,,,,FF,,,,,,,,2.716,,,,,,,,,,,,,,,,,,,,,,60fde3fa7d68fa07e124b8cf,61036da65f5639875a03cf2a,2021-07-29_23h11.26.353,Simcolourproject_2stim_asymm_v5,2020.2.10,MacIntel,60,61025ae37ef11b136ea224fe,,,,,,,,,639,68,-22,1,0,0,response3disk,,5,-8,4,1,0,0,rectangle,-8,4,1,0,0,-8,4,1,0,0,1,40,200,67,1,,,,,,,,
,,,,,,,,,,,,,FF,,,,,,,,0.9,,,,,,,,,,,,,,,,,,,,,,60fde3fa7d68fa07e124b8cf,61036da65f5639875a03cf2a,2021-07-29_23h11.26.353,Simcolourproject_2stim_asymm_v5,2020.2.10,MacIntel,60,61025ae37ef11b136ea224fe,,,,,,,,,3193,42,-32,1,0,0,response3disk,,5,-6,-2,1,0,0,rectangle,-6,-2,1,0,0,-6,-2,1,0,0,1,41,201,121,1,,,,,,,,
,,,,,,,,,,,,,FF,,,,,,,,0.866,,,,,,,,,,,,,,,,,,,,,,60fde3fa7d68fa07e124b8cf,61036da65f5639875a03cf2a,2021-07-29_23h11.26.353,Simcolourproject_2stim_asymm_v5,2020.2.10,MacIntel,60,61025ae37ef11b136ea224fe,,,,,,,,,2059,43,88,1,0,0,response1disk,,7,14,1,1,0,0,rectangle,14,1,1,0,0,14,1,1,0,0,1,42,202,61,1,,,,,,,,
,,,,,,,,,,,,,FF,,,,,,,,0.733,,,,,,,,,,,,,,,,,,,,,,60fde3fa7d68fa07e124b8cf,61036da65f5639875a03cf2a,2021-07-29_23h11.26.353,Simcolourproject_2stim_asymm_v5,2020.2.10,MacIntel,60,61025ae37ef11b136ea224fe,,,,,,,,,3258,66,33,1,0,0,response1disk,,6,27,13,1,0,0,rectangle,27,13,1,0,0,27,13,1,0,0,1,43,203,60,1,,,,,,,,
,,,,,,,,,,,,,FF,,,,,,,,1.633,,,,,,,,,,,,,,,,,,,,,,60fde3fa7d68fa07e124b8cf,61036da65f5639875a03cf2a,2021-07-29_23h11.26.353,Simcolourproject_2stim_asymm_v5,2020.2.10,MacIntel,60,61025ae37ef11b136ea224fe,,,,,,,,,868,-37,-85,1,0,0,response5disk,,3,5,14,1,0,0,rectangle,5,14,1,0,0,5,14,1,0,0,1,44,204,152,1,,,,,,,,
,,,,,,,,,,,,,FF,,,,,,,,4.1,,,,,,,,,,,,,,,,,,,,,,60fde3fa7d68fa07e124b8cf,61036da65f5639875a03cf2a,2021-07-29_23h11.26.353,Simcolourproject_2stim_asymm_v5,2020.2.10,MacIntel,60,61025ae37ef11b136ea224fe,,,,,,,,,42,-45,-42,1,0,0,response5disk,,2,-5,-7,1,0,0,rectangle,-5,-7,1,0,0,-5,-7,1,0,0,1,45,205,29,1,,,,,,,,
,,,,,,,,,,,,,FF,,,,,,,,3.351,,,,,,,,,,,,,,,,,,,,,,60fde3fa7d68fa07e124b8cf,61036da65f5639875a03cf2a,2021-07-29_23h11.26.353,Simcolourproject_2stim_asymm_v5,2020.2.10,MacIntel,60,61025ae37ef11b136ea224fe,,,,,,,,,2792,-74,-56,1,0,0,response5disk,,2,-26,-1,1,0,0,rectangle,-26,-1,1,0,0,-26,-1,1,0,0,1,46,206,51,1,,,,,,,,
,,,,,,,,,,,,,FF,,,,,,,,1.25,,,,,,,,,,,,,,,,,,,,,,60fde3fa7d68fa07e124b8cf,61036da65f5639875a03cf2a,2021-07-29_23h11.26.353,Simcolourproject_2stim_asymm_v5,2020.2.10,MacIntel,60,61025ae37ef11b136ea224fe,,,,,,,,,2042,23,-53,1,0,0,response3disk,,4,-12,-3,1,0,0,rectangle,-12,-3,1,0,0,-12,-3,1,0,0,1,47,207,83,1,,,,,,,,
,,,,,,,,,,,,,FF,,,,,,,,1.116,,,,,,,,,,,,,,,,,,,,,,60fde3fa7d68fa07e124b8cf,61036da65f5639875a03cf2a,2021-07-29_23h11.26.353,Simcolourproject_2stim_asymm_v5,2020.2.10,MacIntel,60,61025ae37ef11b136ea224fe,,,,,,,,,16,-40,-63,1,0,0,response5disk,,3,-8,0,1,0,0,rectangle,-8,0,1,0,0,-8,0,1,0,0,1,48,208,14,1,,,,,,,,
,,,,,,,,,,,,,FF,,,,,,,,0.599,,,,,,,,,,,,,,,,,,,,,,60fde3fa7d68fa07e124b8cf,61036da65f5639875a03cf2a,2021-07-29_23h11.26.353,Simcolourproject_2stim_asymm_v5,2020.2.10,MacIntel,60,61025ae37ef11b136ea224fe,,,,,,,,,824,-25,-51,1,0,0,response5disk,,3,-13,8,1,0,0,rectangle,-13,8,1,0,0,-13,8,1,0,0,1,49,209,93,1,,,,,,,,
,,,,,,,,,,,,,FF,,,,,,,,0.9,,,,,,,,,,,,,,,,,,,,,,60fde3fa7d68fa07e124b8cf,61036da65f5639875a03cf2a,2021-07-29_23h11.26.353,Simcolourproject_2stim_asymm_v5,2020.2.10,MacIntel,60,61025ae37ef11b136ea224fe,,,,,,,,,3062,-38,-51,1,0,0,response5disk,,3,-20,-2,1,0,0,rectangle,-40,73,1,0,0,-5,-6,1,0,0,1,50,210,74,1,,response7disk_3,TRUE,0,0,"[164,259,168,299,195,138,224,135,23,211,115,150,220,30,31,289,318,170,101,132]",2.148,rectangle
,,,,,,,,,,,,,FF,,,,,,,,0.9,,,,,,,,,,,,,,,,,,,,,,60fde3fa7d68fa07e124b8cf,61036da65f5639875a03cf2a,2021-07-29_23h11.26.353,Simcolourproject_2stim_asymm_v5,2020.2.10,MacIntel,60,61025ae37ef11b136ea224fe,,,,,,,,,1571,23,53,1,0,0,response1disk,,7,-5,-13,1,0,0,rectangle,-5,-13,1,0,0,-5,-13,1,0,0,1,51,211,130,1,,,,,,,,
,,,,,,,,,,,,,FF,,,,,,,,0.8,,,,,,,,,,,,,,,,,,,,,,60fde3fa7d68fa07e124b8cf,61036da65f5639875a03cf2a,2021-07-29_23h11.26.353,Simcolourproject_2stim_asymm_v5,2020.2.10,MacIntel,60,61025ae37ef11b136ea224fe,,,,,,,,,2403,43,75,1,0,0,response1disk,,7,11,15,1,0,0,rectangle,11,15,1,0,0,11,15,1,0,0,1,52,212,97,1,,,,,,,,
,,,,,,,,,,,,,FF,,,,,,,,1.483,,,,,,,,,,,,,,,,,,,,,,60fde3fa7d68fa07e124b8cf,61036da65f5639875a03cf2a,2021-07-29_23h11.26.353,Simcolourproject_2stim_asymm_v5,2020.2.10,MacIntel,60,61025ae37ef11b136ea224fe,,,,,,,,,1319,-48,-77,1,0,0,response5disk,,3,-27,-6,1,0,0,rectangle,-27,-6,1,0,0,-27,-6,1,0,0,1,53,213,39,1,,,,,,,,
,,,,,,,,,,,,,FF,,,,,,,,0.833,,,,,,,,,,,,,,,,,,,,,,60fde3fa7d68fa07e124b8cf,61036da65f5639875a03cf2a,2021-07-29_23h11.26.353,Simcolourproject_2stim_asymm_v5,2020.2.10,MacIntel,60,61025ae37ef11b136ea224fe,,,,,,,,,1083,38,75,1,0,0,response1disk,,7,3,8,1,0,0,rectangle,3,8,1,0,0,3,8,1,0,0,1,54,214,150,1,,,,,,,,
,,,,,,,,,,,,,FF,,,,,,,,0.916,,,,,,,,,,,,,,,,,,,,,,60fde3fa7d68fa07e124b8cf,61036da65f5639875a03cf2a,2021-07-29_23h11.26.353,Simcolourproject_2stim_asymm_v5,2020.2.10,MacIntel,60,61025ae37ef11b136ea224fe,,,,,,,,,1945,31,69,1,0,0,response1disk,,7,20,1,1,0,0,rectangle,20,1,1,0,0,20,1,1,0,0,1,55,215,106,1,,,,,,,,
,,,,,,,,,,,,,FF,,,,,,,,1.033,,,,,,,,,,,,,,,,,,,,,,60fde3fa7d68fa07e124b8cf,61036da65f5639875a03cf2a,2021-07-29_23h11.26.353,Simcolourproject_2stim_asymm_v5,2020.2.10,MacIntel,60,61025ae37ef11b136ea224fe,,,,,,,,,3100,-55,-42,1,0,0,response5disk,,2,-4,1,1,0,0,rectangle,-4,1,1,0,0,-4,1,1,0,0,1,56,216,43,1,,,,,,,,
,,,,,,,,,,,,,FF,,,,,,,,1,,,,,,,,,,,,,,,,,,,,,,60fde3fa7d68fa07e124b8cf,61036da65f5639875a03cf2a,2021-07-29_23h11.26.353,Simcolourproject_2stim_asymm_v5,2020.2.10,MacIntel,60,61025ae37ef11b136ea224fe,,,,,,,,,1896,-75,-35,1,0,0,response5disk,,2,-11,-1,1,0,0,rectangle,-11,-1,1,0,0,-11,-1,1,0,0,1,57,217,147,1,,,,,,,,
,,,,,,,,,,,,,FF,,,,,,,,1.366,,,,,,,,,,,,,,,,,,,,,,60fde3fa7d68fa07e124b8cf,61036da65f5639875a03cf2a,2021-07-29_23h11.26.353,Simcolourproject_2stim_asymm_v5,2020.2.10,MacIntel,60,61025ae37ef11b136ea224fe,,,,,,,,,1974,-19,-43,1,0,0,response5disk,,3,0,-3,1,0,0,rectangle,0,-3,1,0,0,0,-3,1,0,0,1,58,218,117,1,,,,,,,,
,,,,,,,,,,,,,FF,,,,,,,,1.267,,,,,,,,,,,,,,,,,,,,,,60fde3fa7d68fa07e124b8cf,61036da65f5639875a03cf2a,2021-07-29_23h11.26.353,Simcolourproject_2stim_asymm_v5,2020.2.10,MacIntel,60,61025ae37ef11b136ea224fe,,,,,,,,,1451,-71,-27,1,0,0,response5disk,,2,-23,-14,1,0,0,rectangle,47,100,1,0,0,17,9,1,0,0,1,59,219,148,1,,response1disk_3,TRUE,7,7,"[164,259,168,299,195,138,224,135,23,211,115,150,220,30,31,289,318,170,101,132]",1.831,rectangle
,,,,,,,,,,,,,FF,,,,,,,,0.866,,,,,,,,,,,,,,,,,,,,,,60fde3fa7d68fa07e124b8cf,61036da65f5639875a03cf2a,2021-07-29_23h11.26.353,Simcolourproject_2stim_asymm_v5,2020.2.10,MacIntel,60,61025ae37ef11b136ea224fe,,,,,,,,,220,36,81,1,0,0,response1disk,,7,1,-6,1,0,0,rectangle,1,-6,1,0,0,1,-6,1,0,0,1,60,220,132,1,,,,,,,,
,,,,,,,,,,,,,FF,,,,,,,,0.449,,,,,,,,,,,,,,,,,,,,,,60fde3fa7d68fa07e124b8cf,61036da65f5639875a03cf2a,2021-07-29_23h11.26.353,Simcolourproject_2stim_asymm_v5,2020.2.10,MacIntel,60,61025ae37ef11b136ea224fe,,,,,,,,,1329,42,73,1,0,0,response1disk,,7,18,10,1,0,0,rectangle,18,10,1,0,0,18,10,1,0,0,1,61,221,23,1,,,,,,,,
,,,,,,,,,,,,,FF,,,,,,,,1.117,,,,,,,,,,,,,,,,,,,,,,60fde3fa7d68fa07e124b8cf,61036da65f5639875a03cf2a,2021-07-29_23h11.26.353,Simcolourproject_2stim_asymm_v5,2020.2.10,MacIntel,60,61025ae37ef11b136ea224fe,,,,,,,,,4157,65,-33,1,0,0,response3disk,,5,5,1,1,0,0,rectangle,5,1,1,0,0,5,1,1,0,0,1,62,222,24,1,,,,,,,,
,,,,,,,,,,,,,FF,,,,,,,,0.733,,,,,,,,,,,,,,,,,,,,,,60fde3fa7d68fa07e124b8cf,61036da65f5639875a03cf2a,2021-07-29_23h11.26.353,Simcolourproject_2stim_asymm_v5,2020.2.10,MacIntel,60,61025ae37ef11b136ea224fe,,,,,,,,,864,53,-31,1,0,0,response3disk,,5,5,-5,1,0,0,rectangle,-112,55,1,0,0,10,-8,1,0,0,1,63,223,10,1,,response7disk_3,TRUE,1,1,"[164,259,168,299,195,138,224,135,23,211,115,150,220,30,31,289,318,170,101,132]",1.583,rectangle
,,,,,,,,,,,,,FF,,,,,,,,1.316,,,,,,,,,,,,,,,,,,,,,,60fde3fa7d68fa07e124b8cf,61036da65f5639875a03cf2a,2021-07-29_23h11.26.353,Simcolourproject_2stim_asymm_v5,2020.2.10,MacIntel,60,61025ae37ef11b136ea224fe,,,,,,,,,818,-68,-45,1,0,0,response5disk,,2,-7,-16,1,0,0,rectangle,-7,-16,1,0,0,-7,-16,1,0,0,1,64,224,52,1,,,,,,,,
,,,,,,,,,,,,,FF,,,,,,,,1.583,,,,,,,,,,,,,,,,,,,,,,60fde3fa7d68fa07e124b8cf,61036da65f5639875a03cf2a,2021-07-29_23h11.26.353,Simcolourproject_2stim_asymm_v5,2020.2.10,MacIntel,60,61025ae37ef11b136ea224fe,,,,,,,,,3901,-26,-54,1,0,0,response5disk,,3,-12,-2,1,0,0,rectangle,-12,-2,1,0,0,-12,-2,1,0,0,1,65,225,58,1,,,,,,,,
,,,,,,,,,,,,,FF,,,,,,,,1.35,,,,,,,,,,,,,,,,,,,,,,60fde3fa7d68fa07e124b8cf,61036da65f5639875a03cf2a,2021-07-29_23h11.26.353,Simcolourproject_2stim_asymm_v5,2020.2.10,MacIntel,60,61025ae37ef11b136ea224fe,,,,,,,,,1419,65,29,1,0,0,response1disk,,6,4,5,1,0,0,rectangle,4,5,1,0,0,4,5,1,0,0,1,66,226,91,1,,,,,,,,
,,,,,,,,,,,,,FF,,,,,,,,1.05,,,,,,,,,,,,,,,,,,,,,,60fde3fa7d68fa07e124b8cf,61036da65f5639875a03cf2a,2021-07-29_23h11.26.353,Simcolourproject_2stim_asymm_v5,2020.2.10,MacIntel,60,61025ae37ef11b136ea224fe,,,,,,,,,1388,-16,-63,1,0,0,response5disk,,3,15,-8,1,0,0,rectangle,15,-8,1,0,0,15,-8,1,0,0,1,67,227,63,1,,,,,,,,
,,,,,,,,,,,,,FF,,,,,,,,0.834,,,,,,,,,,,,,,,,,,,,,,60fde3fa7d68fa07e124b8cf,61036da65f5639875a03cf2a,2021-07-29_23h11.26.353,Simcolourproject_2stim_asymm_v5,2020.2.10,MacIntel,60,61025ae37ef11b136ea224fe,,,,,,,,,689,28,43,1,0,0,response1disk,,7,5,-3,1,0,0,rectangle,5,-3,1,0,0,5,-3,1,0,0,1,68,228,155,1,,,,,,,,
,,,,,,,,,,,,,FF,,,,,,,,0.833,,,,,,,,,,,,,,,,,,,,,,60fde3fa7d68fa07e124b8cf,61036da65f5639875a03cf2a,2021-07-29_23h11.26.353,Simcolourproject_2stim_asymm_v5,2020.2.10,MacIntel,60,61025ae37ef11b136ea224fe,,,,,,,,,2550,-67,-31,1,0,0,response5disk,,2,-15,2,1,0,0,rectangle,-15,2,1,0,0,-15,2,1,0,0,1,69,229,124,1,,,,,,,,
,,,,,,,,,,,,,FF,,,,,,,,0.55,,,,,,,,,,,,,,,,,,,,,,60fde3fa7d68fa07e124b8cf,61036da65f5639875a03cf2a,2021-07-29_23h11.26.353,Simcolourproject_2stim_asymm_v5,2020.2.10,MacIntel,60,61025ae37ef11b136ea224fe,,,,,,,,,3866,46,64,1,0,0,response1disk,,7,7,-6,1,0,0,rectangle,7,-6,1,0,0,7,-6,1,0,0,1,70,230,18,1,,,,,,,,
,,,,,,,,,,,,,FF,,,,,,,,0.65,,,,,,,,,,,,,,,,,,,,,,60fde3fa7d68fa07e124b8cf,61036da65f5639875a03cf2a,2021-07-29_23h11.26.353,Simcolourproject_2stim_asymm_v5,2020.2.10,MacIntel,60,61025ae37ef11b136ea224fe,,,,,,,,,2749,36,61,1,0,0,response1disk,,7,8,-5,1,0,0,rectangle,8,-5,1,0,0,8,-5,1,0,0,1,71,231,11,1,,,,,,,,
,,,,,,,,,,,,,FF,,,,,,,,0.751,,,,,,,,,,,,,,,,,,,,,,60fde3fa7d68fa07e124b8cf,61036da65f5639875a03cf2a,2021-07-29_23h11.26.353,Simcolourproject_2stim_asymm_v5,2020.2.10,MacIntel,60,61025ae37ef11b136ea224fe,,,,,,,,,2143,41,79,1,0,0,response1disk,,7,16,-5,1,0,0,rectangle,16,-5,1,0,0,16,-5,1,0,0,1,72,232,36,1,,,,,,,,
,,,,,,,,,,,,,FF,,,,,,,,1.35,,,,,,,,,,,,,,,,,,,,,,60fde3fa7d68fa07e124b8cf,61036da65f5639875a03cf2a,2021-07-29_23h11.26.353,Simcolourproject_2stim_asymm_v5,2020.2.10,MacIntel,60,61025ae37ef11b136ea224fe,,,,,,,,,1454,-82,30,1,0,0,response7disk,,1,0,8,1,0,0,rectangle,0,8,1,0,0,0,8,1,0,0,1,73,233,138,1,,,,,,,,
,,,,,,,,,,,,,FF,,,,,,,,1.467,,,,,,,,,,,,,,,,,,,,,,60fde3fa7d68fa07e124b8cf,61036da65f5639875a03cf2a,2021-07-29_23h11.26.353,Simcolourproject_2stim_asymm_v5,2020.2.10,MacIntel,60,61025ae37ef11b136ea224fe,,,,,,,,,3325,32,47,1,0,0,response1disk,,7,-32,7,1,0,0,rectangle,-32,7,1,0,0,-32,7,1,0,0,1,74,234,65,1,,,,,,,,
,,,,,,,,,,,,,FF,,,,,,,,0.95,,,,,,,,,,,,,,,,,,,,,,60fde3fa7d68fa07e124b8cf,61036da65f5639875a03cf2a,2021-07-29_23h11.26.353,Simcolourproject_2stim_asymm_v5,2020.2.10,MacIntel,60,61025ae37ef11b136ea224fe,,,,,,,,,3472,-49,-40,1,0,0,response5disk,,2,-3,-7,1,0,0,rectangle,-3,-7,1,0,0,-3,-7,1,0,0,1,75,235,114,1,,,,,,,,
,,,,,,,,,,,,,FF,,,,,,,,0.899,,,,,,,,,,,,,,,,,,,,,,60fde3fa7d68fa07e124b8cf,61036da65f5639875a03cf2a,2021-07-29_23h11.26.353,Simcolourproject_2stim_asymm_v5,2020.2.10,MacIntel,60,61025ae37ef11b136ea224fe,,,,,,,,,1056,-56,-28,1,0,0,response5disk,,2,-8,4,1,0,0,rectangle,-8,4,1,0,0,-8,4,1,0,0,1,76,236,144,1,,,,,,,,
,,,,,,,,,,,,,FF,,,,,,,,0.766,,,,,,,,,,,,,,,,,,,,,,60fde3fa7d68fa07e124b8cf,61036da65f5639875a03cf2a,2021-07-29_23h11.26.353,Simcolourproject_2stim_asymm_v5,2020.2.10,MacIntel,60,61025ae37ef11b136ea224fe,,,,,,,,,1180,32,57,1,0,0,response1disk,,7,7,9,1,0,0,rectangle,7,9,1,0,0,7,9,1,0,0,1,77,237,72,1,,,,,,,,
,,,,,,,,,,,,,FF,,,,,,,,0.749,,,,,,,,,,,,,,,,,,,,,,60fde3fa7d68fa07e124b8cf,61036da65f5639875a03cf2a,2021-07-29_23h11.26.353,Simcolourproject_2stim_asymm_v5,2020.2.10,MacIntel,60,61025ae37ef11b136ea224fe,,,,,,,,,3590,33,54,1,0,0,response1disk,,7,17,14,1,0,0,rectangle,17,14,1,0,0,17,14,1,0,0,1,78,238,69,1,,,,,,,,
,,,,,,,,,,,,,FF,,,,,,,,0.417,,,,,,,,,,,,,,,,,,,,,,60fde3fa7d68fa07e124b8cf,61036da65f5639875a03cf2a,2021-07-29_23h11.26.353,Simcolourproject_2stim_asymm_v5,2020.2.10,MacIntel,60,61025ae37ef11b136ea224fe,,,,,,,,,135,47,65,1,0,0,response1disk,,7,14,13,1,0,0,rectangle,14,13,1,0,0,14,13,1,0,0,1,79,239,145,1,,,,,,,,
,,,,,,,,,,,,,FF,,,,,,,,0.983,,,,,,,,,,,,,,,,,,,,,,60fde3fa7d68fa07e124b8cf,61036da65f5639875a03cf2a,2021-07-29_23h11.26.353,Simcolourproject_2stim_asymm_v5,2020.2.10,MacIntel,60,61025ae37ef11b136ea224fe,,,,,,,,,606,-30,-67,1,0,0,response5disk,,3,7,7,1,0,0,rectangle,7,7,1,0,0,7,7,1,0,0,1,80,240,17,1,,,,,,,,
,,,,,,,,,,,,,FF,,,,,,,,0.65,,,,,,,,,,,,,,,,,,,,,,60fde3fa7d68fa07e124b8cf,61036da65f5639875a03cf2a,2021-07-29_23h11.26.353,Simcolourproject_2stim_asymm_v5,2020.2.10,MacIntel,60,61025ae37ef11b136ea224fe,,,,,,,,,1081,41,65,1,0,0,response1disk,,7,6,10,1,0,0,rectangle,6,10,1,0,0,6,10,1,0,0,1,81,241,127,1,,,,,,,,
,,,,,,,,,,,,,FF,,,,,,,,1.132,,,,,,,,,,,,,,,,,,,,,,60fde3fa7d68fa07e124b8cf,61036da65f5639875a03cf2a,2021-07-29_23h11.26.353,Simcolourproject_2stim_asymm_v5,2020.2.10,MacIntel,60,61025ae37ef11b136ea224fe,,,,,,,,,2951,-77,-60,1,0,0,response5disk,,2,-12,-4,1,0,0,rectangle,-12,-4,1,0,0,-12,-4,1,0,0,1,82,242,76,1,,,,,,,,
,,,,,,,,,,,,,FF,,,,,,,,1.233,,,,,,,,,,,,,,,,,,,,,,60fde3fa7d68fa07e124b8cf,61036da65f5639875a03cf2a,2021-07-29_23h11.26.353,Simcolourproject_2stim_asymm_v5,2020.2.10,MacIntel,60,61025ae37ef11b136ea224fe,,,,,,,,,2220,26,-57,1,0,0,response3disk,,4,10,5,1,0,0,rectangle,10,5,1,0,0,10,5,1,0,0,1,83,243,80,1,,,,,,,,
,,,,,,,,,,,,,FF,,,,,,,,0.898,,,,,,,,,,,,,,,,,,,,,,60fde3fa7d68fa07e124b8cf,61036da65f5639875a03cf2a,2021-07-29_23h11.26.353,Simcolourproject_2stim_asymm_v5,2020.2.10,MacIntel,60,61025ae37ef11b136ea224fe,,,,,,,,,302,33,42,1,0,0,response1disk,,7,14,6,1,0,0,rectangle,14,6,1,0,0,14,6,1,0,0,1,84,244,25,1,,,,,,,,
,,,,,,,,,,,,,FF,,,,,,,,0.516,,,,,,,,,,,,,,,,,,,,,,60fde3fa7d68fa07e124b8cf,61036da65f5639875a03cf2a,2021-07-29_23h11.26.353,Simcolourproject_2stim_asymm_v5,2020.2.10,MacIntel,60,61025ae37ef11b136ea224fe,,,,,,,,,236,36,43,1,0,0,response1disk,,7,13,15,1,0,0,rectangle,13,15,1,0,0,13,15,1,0,0,1,85,245,81,1,,,,,,,,
,,,,,,,,,,,,,FF,,,,,,,,0.867,,,,,,,,,,,,,,,,,,,,,,60fde3fa7d68fa07e124b8cf,61036da65f5639875a03cf2a,2021-07-29_23h11.26.353,Simcolourproject_2stim_asymm_v5,2020.2.10,MacIntel,60,61025ae37ef11b136ea224fe,,,,,,,,,3972,-75,-53,1,0,0,response5disk,,2,-19,-7,1,0,0,rectangle,-19,-7,1,0,0,-19,-7,1,0,0,1,86,246,143,1,,,,,,,,
,,,,,,,,,,,,,FF,,,,,,,,1.033,,,,,,,,,,,,,,,,,,,,,,60fde3fa7d68fa07e124b8cf,61036da65f5639875a03cf2a,2021-07-29_23h11.26.353,Simcolourproject_2stim_asymm_v5,2020.2.10,MacIntel,60,61025ae37ef11b136ea224fe,,,,,,,,,814,-50,-34,1,0,0,response5disk,,2,-17,-5,1,0,0,rectangle,-17,-5,1,0,0,-17,-5,1,0,0,1,87,247,107,1,,,,,,,,
,,,,,,,,,,,,,FF,,,,,,,,0.75,,,,,,,,,,,,,,,,,,,,,,60fde3fa7d68fa07e124b8cf,61036da65f5639875a03cf2a,2021-07-29_23h11.26.353,Simcolourproject_2stim_asymm_v5,2020.2.10,MacIntel,60,61025ae37ef11b136ea224fe,,,,,,,,,2372,-37,-53,1,0,0,response5disk,,3,-16,-4,1,0,0,rectangle,-16,-4,1,0,0,-16,-4,1,0,0,1,88,248,22,1,,,,,,,,
,,,,,,,,,,,,,FF,,,,,,,,0.784,,,,,,,,,,,,,,,,,,,,,,60fde3fa7d68fa07e124b8cf,61036da65f5639875a03cf2a,2021-07-29_23h11.26.353,Simcolourproject_2stim_asymm_v5,2020.2.10,MacIntel,60,61025ae37ef11b136ea224fe,,,,,,,,,1996,36,71,1,0,0,response1disk,,7,6,6,1,0,0,rectangle,6,6,1,0,0,6,6,1,0,0,1,89,249,128,1,,,,,,,,
,,,,,,,,,,,,,FF,,,,,,,,0.766,,,,,,,,,,,,,,,,,,,,,,60fde3fa7d68fa07e124b8cf,61036da65f5639875a03cf2a,2021-07-29_23h11.26.353,Simcolourproject_2stim_asymm_v5,2020.2.10,MacIntel,60,61025ae37ef11b136ea224fe,,,,,,,,,3734,49,81,1,0,0,response1disk,,7,22,9,1,0,0,rectangle,22,9,1,0,0,22,9,1,0,0,1,90,250,98,1,,,,,,,,
,,,,,,,,,,,,,FF,,,,,,,,0.634,,,,,,,,,,,,,,,,,,,,,,60fde3fa7d68fa07e124b8cf,61036da65f5639875a03cf2a,2021-07-29_23h11.26.353,Simcolourproject_2stim_asymm_v5,2020.2.10,MacIntel,60,61025ae37ef11b136ea224fe,,,,,,,,,1487,43,58,1,0,0,response1disk,,7,12,-8,1,0,0,rectangle,12,-8,1,0,0,12,-8,1,0,0,1,91,251,122,1,,,,,,,,
,,,,,,,,,,,,,FF,,,,,,,,0.516,,,,,,,,,,,,,,,,,,,,,,60fde3fa7d68fa07e124b8cf,61036da65f5639875a03cf2a,2021-07-29_23h11.26.353,Simcolourproject_2stim_asymm_v5,2020.2.10,MacIntel,60,61025ae37ef11b136ea224fe,,,,,,,,,1016,36,63,1,0,0,response1disk,,7,4,-18,1,0,0,rectangle,4,-18,1,0,0,4,-18,1,0,0,1,92,252,146,1,,,,,,,,
,,,,,,,,,,,,,FF,,,,,,,,1.05,,,,,,,,,,,,,,,,,,,,,,60fde3fa7d68fa07e124b8cf,61036da65f5639875a03cf2a,2021-07-29_23h11.26.353,Simcolourproject_2stim_asymm_v5,2020.2.10,MacIntel,60,61025ae37ef11b136ea224fe,,,,,,,,,3714,-45,-37,1,0,0,response5disk,,2,-3,-8,1,0,0,rectangle,-3,-8,1,0,0,-3,-8,1,0,0,1,93,253,45,1,,,,,,,,
,,,,,,,,,,,,,FF,,,,,,,,0.849,,,,,,,,,,,,,,,,,,,,,,60fde3fa7d68fa07e124b8cf,61036da65f5639875a03cf2a,2021-07-29_23h11.26.353,Simcolourproject_2stim_asymm_v5,2020.2.10,MacIntel,60,61025ae37ef11b136ea224fe,,,,,,,,,2314,-34,-55,1,0,0,response5disk,,3,-19,1,1,0,0,rectangle,-19,1,1,0,0,-19,1,1,0,0,1,94,254,19,1,,,,,,,,
,,,,,,,,,,,,,FF,,,,,,,,0.849,,,,,,,,,,,,,,,,,,,,,,60fde3fa7d68fa07e124b8cf,61036da65f5639875a03cf2a,2021-07-29_23h11.26.353,Simcolourproject_2stim_asymm_v5,2020.2.10,MacIntel,60,61025ae37ef11b136ea224fe,,,,,,,,,3999,-41,-58,1,0,0,response5disk,,3,-18,-5,1,0,0,rectangle,-18,-5,1,0,0,-18,-5,1,0,0,1,95,255,88,1,,,,,,,,
,,,,,,,,,,,,,FF,,,,,,,,1.317,,,,,,,,,,,,,,,,,,,,,,60fde3fa7d68fa07e124b8cf,61036da65f5639875a03cf2a,2021-07-29_23h11.26.353,Simcolourproject_2stim_asymm_v5,2020.2.10,MacIntel,60,61025ae37ef11b136ea224fe,,,,,,,,,3414,70,33,1,0,0,response1disk,,6,16,8,1,0,0,rectangle,16,8,1,0,0,16,8,1,0,0,1,96,256,59,1,,,,,,,,
,,,,,,,,,,,,,FF,,,,,,,,0.733,,,,,,,,,,,,,,,,,,,,,,60fde3fa7d68fa07e124b8cf,61036da65f5639875a03cf2a,2021-07-29_23h11.26.353,Simcolourproject_2stim_asymm_v5,2020.2.10,MacIntel,60,61025ae37ef11b136ea224fe,,,,,,,,,1805,72,44,1,0,0,response1disk,,6,28,9,1,0,0,rectangle,28,9,1,0,0,28,9,1,0,0,1,97,257,149,1,,,,,,,,
,,,,,,,,,,,,,FF,,,,,,,,0.816,,,,,,,,,,,,,,,,,,,,,,60fde3fa7d68fa07e124b8cf,61036da65f5639875a03cf2a,2021-07-29_23h11.26.353,Simcolourproject_2stim_asymm_v5,2020.2.10,MacIntel,60,61025ae37ef11b136ea224fe,,,,,,,,,1304,-52,-31,1,0,0,response5disk,,2,-18,-14,1,0,0,rectangle,-33,-74,1,0,0,9,5,1,0,0,1,98,258,30,1,,response5disk_3,TRUE,3,3,"[164,259,168,299,195,138,224,135,23,211,115,150,220,30,31,289,318,170,101,132]",2.349,rectangle
,,,,,,,,,,,,,FF,,,,,,,,1.55,,,,,,,,,,,,,,,,,,,,,,60fde3fa7d68fa07e124b8cf,61036da65f5639875a03cf2a,2021-07-29_23h11.26.353,Simcolourproject_2stim_asymm_v5,2020.2.10,MacIntel,60,61025ae37ef11b136ea224fe,,,,,,,,,514,40,-56,1,0,0,response3disk,,4,17,-14,1,0,0,rectangle,17,-14,1,0,0,17,-14,1,0,0,1,99,259,34,1,,,,,,,,
,,,,,,,,,,,,,FF,,,,,,,,0.916,,,,,,,,,,,,,,,,,,,,,,60fde3fa7d68fa07e124b8cf,61036da65f5639875a03cf2a,2021-07-29_23h11.26.353,Simcolourproject_2stim_asymm_v5,2020.2.10,MacIntel,60,61025ae37ef11b136ea224fe,,,,,,,,,1855,56,-25,1,0,0,response3disk,,5,-9,4,1,0,0,rectangle,-9,4,1,0,0,-9,4,1,0,0,1,100,260,33,1,,,,,,,,
,,,,,,,,,,,,,FF,,,,,,,,1.05,,,,,,,,,,,,,,,,,,,,,,60fde3fa7d68fa07e124b8cf,61036da65f5639875a03cf2a,2021-07-29_23h11.26.353,Simcolourproject_2stim_asymm_v5,2020.2.10,MacIntel,60,61025ae37ef11b136ea224fe,,,,,,,,,2629,51,-29,1,0,0,response3disk,,5,21,3,1,0,0,rectangle,21,3,1,0,0,21,3,1,0,0,1,101,261,40,1,,,,,,,,
,,,,,,,,,,,,,FF,,,,,,,,0.816,,,,,,,,,,,,,,,,,,,,,,60fde3fa7d68fa07e124b8cf,61036da65f5639875a03cf2a,2021-07-29_23h11.26.353,Simcolourproject_2stim_asymm_v5,2020.2.10,MacIntel,60,61025ae37ef11b136ea224fe,,,,,,,,,1117,-46,-27,1,0,0,response5disk,,2,-12,-10,1,0,0,rectangle,-12,-10,1,0,0,-12,-10,1,0,0,1,102,262,35,1,,,,,,,,
,,,,,,,,,,,,,FF,,,,,,,,0.833,,,,,,,,,,,,,,,,,,,,,,60fde3fa7d68fa07e124b8cf,61036da65f5639875a03cf2a,2021-07-29_23h11.26.353,Simcolourproject_2stim_asymm_v5,2020.2.10,MacIntel,60,61025ae37ef11b136ea224fe,,,,,,,,,3231,65,75,1,0,0,response1disk,,7,-6,-12,1,0,0,rectangle,-6,-12,1,0,0,-6,-12,1,0,0,1,103,263,6,1,,,,,,,,
,,,,,,,,,,,,,FF,,,,,,,,1.15,,,,,,,,,,,,,,,,,,,,,,60fde3fa7d68fa07e124b8cf,61036da65f5639875a03cf2a,2021-07-29_23h11.26.353,Simcolourproject_2stim_asymm_v5,2020.2.10,MacIntel,60,61025ae37ef11b136ea224fe,,,,,,,,,3298,-57,37,1,0,0,response7disk,,1,-4,6,1,0,0,rectangle,-4,6,1,0,0,-4,6,1,0,0,1,104,264,102,1,,,,,,,,
,,,,,,,,,,,,,FF,,,,,,,,0.716,,,,,,,,,,,,,,,,,,,,,,60fde3fa7d68fa07e124b8cf,61036da65f5639875a03cf2a,2021-07-29_23h11.26.353,Simcolourproject_2stim_asymm_v5,2020.2.10,MacIntel,60,61025ae37ef11b136ea224fe,,,,,,,,,317,50,99,1,0,0,response1disk,,7,11,10,1,0,0,rectangle,11,10,1,0,0,11,10,1,0,0,1,105,265,42,1,,,,,,,,
,,,,,,,,,,,,,FF,,,,,,,,0.566,,,,,,,,,,,,,,,,,,,,,,60fde3fa7d68fa07e124b8cf,61036da65f5639875a03cf2a,2021-07-29_23h11.26.353,Simcolourproject_2stim_asymm_v5,2020.2.10,MacIntel,60,61025ae37ef11b136ea224fe,,,,,,,,,2206,40,83,1,0,0,response1disk,,7,22,16,1,0,0,rectangle,22,16,1,0,0,22,16,1,0,0,1,106,266,85,1,,,,,,,,
,,,,,,,,,,,,,FF,,,,,,,,0.417,,,,,,,,,,,,,,,,,,,,,,60fde3fa7d68fa07e124b8cf,61036da65f5639875a03cf2a,2021-07-29_23h11.26.353,Simcolourproject_2stim_asymm_v5,2020.2.10,MacIntel,60,61025ae37ef11b136ea224fe,,,,,,,,,184,43,66,1,0,0,response1disk,,7,21,3,1,0,0,rectangle,21,3,1,0,0,21,3,1,0,0,1,107,267,15,1,,,,,,,,
,,,,,,,,,,,,,FF,,,,,,,,1.232,,,,,,,,,,,,,,,,,,,,,,60fde3fa7d68fa07e124b8cf,61036da65f5639875a03cf2a,2021-07-29_23h11.26.353,Simcolourproject_2stim_asymm_v5,2020.2.10,MacIntel,60,61025ae37ef11b136ea224fe,,,,,,,,,3769,66,35,1,0,0,response1disk,,6,14,5,1,0,0,rectangle,14,5,1,0,0,14,5,1,0,0,1,108,268,68,1,,,,,,,,
,,,,,,,,,,,,,FF,,,,,,,,1.116,,,,,,,,,,,,,,,,,,,,,,60fde3fa7d68fa07e124b8cf,61036da65f5639875a03cf2a,2021-07-29_23h11.26.353,Simcolourproject_2stim_asymm_v5,2020.2.10,MacIntel,60,61025ae37ef11b136ea224fe,,,,,,,,,619,-20,-62,1,0,0,response5disk,,3,8,3,1,0,0,rectangle,8,3,1,0,0,8,3,1,0,0,1,109,269,49,1,,,,,,,,
,,,,,,,,,,,,,FF,,,,,,,,1.083,,,,,,,,,,,,,,,,,,,,,,60fde3fa7d68fa07e124b8cf,61036da65f5639875a03cf2a,2021-07-29_23h11.26.353,Simcolourproject_2stim_asymm_v5,2020.2.10,MacIntel,60,61025ae37ef11b136ea224fe,,,,,,,,,49,58,61,1,0,0,response1disk,,7,32,2,1,0,0,rectangle,32,2,1,0,0,32,2,1,0,0,1,110,270,153,1,,,,,,,,
,,,,,,,,,,,,,FF,,,,,,,,0.816,,,,,,,,,,,,,,,,,,,,,,60fde3fa7d68fa07e124b8cf,61036da65f5639875a03cf2a,2021-07-29_23h11.26.353,Simcolourproject_2stim_asymm_v5,2020.2.10,MacIntel,60,61025ae37ef11b136ea224fe,,,,,,,,,876,61,29,1,0,0,response1disk,,6,8,-8,1,0,0,rectangle,8,-8,1,0,0,8,-8,1,0,0,1,111,271,21,1,,,,,,,,
,,,,,,,,,,,,,FF,,,,,,,,0.832,,,,,,,,,,,,,,,,,,,,,,60fde3fa7d68fa07e124b8cf,61036da65f5639875a03cf2a,2021-07-29_23h11.26.353,Simcolourproject_2stim_asymm_v5,2020.2.10,MacIntel,60,61025ae37ef11b136ea224fe,,,,,,,,,1312,-63,-38,1,0,0,response5disk,,2,-7,-12,1,0,0,rectangle,-7,-12,1,0,0,-7,-12,1,0,0,1,112,272,13,1,,,,,,,,
,,,,,,,,,,,,,FF,,,,,,,,0.733,,,,,,,,,,,,,,,,,,,,,,60fde3fa7d68fa07e124b8cf,61036da65f5639875a03cf2a,2021-07-29_23h11.26.353,Simcolourproject_2stim_asymm_v5,2020.2.10,MacIntel,60,61025ae37ef11b136ea224fe,,,,,,,,,3966,-71,-44,1,0,0,response5disk,,2,-21,-14,1,0,0,rectangle,-21,-14,1,0,0,-21,-14,1,0,0,1,113,273,115,1,,,,,,,,
,,,,,,,,,,,,,FF,,,,,,,,0.867,,,,,,,,,,,,,,,,,,,,,,60fde3fa7d68fa07e124b8cf,61036da65f5639875a03cf2a,2021-07-29_23h11.26.353,Simcolourproject_2stim_asymm_v5,2020.2.10,MacIntel,60,61025ae37ef11b136ea224fe,,,,,,,,,3941,-57,25,1,0,0,response7disk,,1,-23,-1,1,0,0,rectangle,-23,-1,1,0,0,-23,-1,1,0,0,1,114,274,53,1,,,,,,,,
,,,,,,,,,,,,,FF,,,,,,,,1.2,,,,,,,,,,,,,,,,,,,,,,60fde3fa7d68fa07e124b8cf,61036da65f5639875a03cf2a,2021-07-29_23h11.26.353,Simcolourproject_2stim_asymm_v5,2020.2.10,MacIntel,60,61025ae37ef11b136ea224fe,,,,,,,,,273,42,77,1,0,0,response1disk,,7,4,2,1,0,0,rectangle,4,2,1,0,0,4,2,1,0,0,1,115,275,137,1,,,,,,,,
,,,,,,,,,,,,,FF,,,,,,,,0.782,,,,,,,,,,,,,,,,,,,,,,60fde3fa7d68fa07e124b8cf,61036da65f5639875a03cf2a,2021-07-29_23h11.26.353,Simcolourproject_2stim_asymm_v5,2020.2.10,MacIntel,60,61025ae37ef11b136ea224fe,,,,,,,,,4188,26,51,1,0,0,response1disk,,7,19,9,1,0,0,rectangle,19,9,1,0,0,19,9,1,0,0,1,116,276,7,1,,,,,,,,
,,,,,,,,,,,,,FF,,,,,,,,1.066,,,,,,,,,,,,,,,,,,,,,,60fde3fa7d68fa07e124b8cf,61036da65f5639875a03cf2a,2021-07-29_23h11.26.353,Simcolourproject_2stim_asymm_v5,2020.2.10,MacIntel,60,61025ae37ef11b136ea224fe,,,,,,,,,3192,-49,-83,1,0,0,response5disk,,3,-16,-10,1,0,0,rectangle,-16,-10,1,0,0,-16,-10,1,0,0,1,117,277,123,1,,,,,,,,
,,,,,,,,,,,,,FF,,,,,,,,0.599,,,,,,,,,,,,,,,,,,,,,,60fde3fa7d68fa07e124b8cf,61036da65f5639875a03cf2a,2021-07-29_23h11.26.353,Simcolourproject_2stim_asymm_v5,2020.2.10,MacIntel,60,61025ae37ef11b136ea224fe,,,,,,,,,1581,-37,-69,1,0,0,response5disk,,3,-17,-1,1,0,0,rectangle,-17,-1,1,0,0,-17,-1,1,0,0,1,118,278,47,1,,,,,,,,
,,,,,,,,,,,,,FF,,,,,,,,0.616,,,,,,,,,,,,,,,,,,,,,,60fde3fa7d68fa07e124b8cf,61036da65f5639875a03cf2a,2021-07-29_23h11.26.353,Simcolourproject_2stim_asymm_v5,2020.2.10,MacIntel,60,61025ae37ef11b136ea224fe,,,,,,,,,4005,-32,-46,1,0,0,response5disk,,3,-9,1,1,0,0,rectangle,-9,1,1,0,0,-9,1,1,0,0,1,119,279,135,1,,,,,,,,
,,,,,,,,,,,,,FF,,,,,,,,0.783,,,,,,,,,,,,,,,,,,,,,,60fde3fa7d68fa07e124b8cf,61036da65f5639875a03cf2a,2021-07-29_23h11.26.353,Simcolourproject_2stim_asymm_v5,2020.2.10,MacIntel,60,61025ae37ef11b136ea224fe,,,,,,,,,1647,42,52,1,0,0,response1disk,,7,14,4,1,0,0,rectangle,14,4,1,0,0,14,4,1,0,0,1,120,280,154,1,,,,,,,,
,,,,,,,,,,,,,FF,,,,,,,,1.384,,,,,,,,,,,,,,,,,,,,,,60fde3fa7d68fa07e124b8cf,61036da65f5639875a03cf2a,2021-07-29_23h11.26.353,Simcolourproject_2stim_asymm_v5,2020.2.10,MacIntel,60,61025ae37ef11b136ea224fe,,,,,,,,,1837,-70,-43,1,0,0,response5disk,,2,-26,1,1,0,0,rectangle,-26,1,1,0,0,-26,1,1,0,0,1,121,281,2,1,,,,,,,,
,,,,,,,,,,,,,FF,,,,,,,,0.967,,,,,,,,,,,,,,,,,,,,,,60fde3fa7d68fa07e124b8cf,61036da65f5639875a03cf2a,2021-07-29_23h11.26.353,Simcolourproject_2stim_asymm_v5,2020.2.10,MacIntel,60,61025ae37ef11b136ea224fe,,,,,,,,,2325,25,-52,1,0,0,response3disk,,4,-1,-1,1,0,0,rectangle,-1,-1,1,0,0,-1,-1,1,0,0,1,122,282,46,1,,,,,,,,
,,,,,,,,,,,,,FF,,,,,,,,0.767,,,,,,,,,,,,,,,,,,,,,,60fde3fa7d68fa07e124b8cf,61036da65f5639875a03cf2a,2021-07-29_23h11.26.353,Simcolourproject_2stim_asymm_v5,2020.2.10,MacIntel,60,61025ae37ef11b136ea224fe,,,,,,,,,2535,-57,-68,1,0,0,response5disk,,3,-8,0,1,0,0,rectangle,-8,0,1,0,0,-8,0,1,0,0,1,123,283,3,1,,,,,,,,
,,,,,,,,,,,,,FF,,,,,,,,0.983,,,,,,,,,,,,,,,,,,,,,,60fde3fa7d68fa07e124b8cf,61036da65f5639875a03cf2a,2021-07-29_23h11.26.353,Simcolourproject_2stim_asymm_v5,2020.2.10,MacIntel,60,61025ae37ef11b136ea224fe,,,,,,,,,1446,-65,-43,1,0,0,response5disk,,2,-24,-9,1,0,0,rectangle,-24,-9,1,0,0,-24,-9,1,0,0,1,124,284,44,1,,,,,,,,
,,,,,,,,,,,,,FF,,,,,,,,0.632,,,,,,,,,,,,,,,,,,,,,,60fde3fa7d68fa07e124b8cf,61036da65f5639875a03cf2a,2021-07-29_23h11.26.353,Simcolourproject_2stim_asymm_v5,2020.2.10,MacIntel,60,61025ae37ef11b136ea224fe,,,,,,,,,2406,29,71,1,0,0,response1disk,,7,1,-11,1,0,0,rectangle,1,-11,1,0,0,1,-11,1,0,0,1,125,285,56,1,,,,,,,,
,,,,,,,,,,,,,FF,,,,,,,,0.815,,,,,,,,,,,,,,,,,,,,,,60fde3fa7d68fa07e124b8cf,61036da65f5639875a03cf2a,2021-07-29_23h11.26.353,Simcolourproject_2stim_asymm_v5,2020.2.10,MacIntel,60,61025ae37ef11b136ea224fe,,,,,,,,,2425,-47,36,1,0,0,response7disk,,1,6,2,1,0,0,rectangle,6,2,1,0,0,6,2,1,0,0,1,126,286,119,1,,,,,,,,
,,,,,,,,,,,,,FF,,,,,,,,0.582,,,,,,,,,,,,,,,,,,,,,,60fde3fa7d68fa07e124b8cf,61036da65f5639875a03cf2a,2021-07-29_23h11.26.353,Simcolourproject_2stim_asymm_v5,2020.2.10,MacIntel,60,61025ae37ef11b136ea224fe,,,,,,,,,693,38,52,1,0,0,response1disk,,7,7,4,1,0,0,rectangle,7,4,1,0,0,7,4,1,0,0,1,127,287,32,1,,,,,,,,
,,,,,,,,,,,,,FF,,,,,,,,0.683,,,,,,,,,,,,,,,,,,,,,,60fde3fa7d68fa07e124b8cf,61036da65f5639875a03cf2a,2021-07-29_23h11.26.353,Simcolourproject_2stim_asymm_v5,2020.2.10,MacIntel,60,61025ae37ef11b136ea224fe,,,,,,,,,151,46,83,1,0,0,response1disk,,7,19,-4,1,0,0,rectangle,35,-88,1,0,0,14,10,1,0,0,1,128,288,112,1,,response3disk_3,TRUE,4,4,"[164,259,168,299,195,138,224,135,23,211,115,150,220,30,31,289,318,170,101,132]",2.431,rectangle
,,,,,,,,,,,,,FF,,,,,,,,0.815,,,,,,,,,,,,,,,,,,,,,,60fde3fa7d68fa07e124b8cf,61036da65f5639875a03cf2a,2021-07-29_23h11.26.353,Simcolourproject_2stim_asymm_v5,2020.2.10,MacIntel,60,61025ae37ef11b136ea224fe,,,,,,,,,3246,-67,-51,1,0,0,response5disk,,2,-17,2,1,0,0,rectangle,-17,2,1,0,0,-17,2,1,0,0,1,129,289,116,1,,,,,,,,
,,,,,,,,,,,,,FF,,,,,,,,0.715,,,,,,,,,,,,,,,,,,,,,,60fde3fa7d68fa07e124b8cf,61036da65f5639875a03cf2a,2021-07-29_23h11.26.353,Simcolourproject_2stim_asymm_v5,2020.2.10,MacIntel,60,61025ae37ef11b136ea224fe,,,,,,,,,66,33,43,1,0,0,response1disk,,7,7,-13,1,0,0,rectangle,7,-13,1,0,0,7,-13,1,0,0,1,130,290,105,1,,,,,,,,
,,,,,,,,,,,,,FF,,,,,,,,0.617,,,,,,,,,,,,,,,,,,,,,,60fde3fa7d68fa07e124b8cf,61036da65f5639875a03cf2a,2021-07-29_23h11.26.353,Simcolourproject_2stim_asymm_v5,2020.2.10,MacIntel,60,61025ae37ef11b136ea224fe,,,,,,,,,1430,37,38,1,0,0,response1disk,,7,7,-14,1,0,0,rectangle,7,-14,1,0,0,7,-14,1,0,0,1,131,291,16,1,,,,,,,,
,,,,,,,,,,,,,FF,,,,,,,,0.75,,,,,,,,,,,,,,,,,,,,,,60fde3fa7d68fa07e124b8cf,61036da65f5639875a03cf2a,2021-07-29_23h11.26.353,Simcolourproject_2stim_asymm_v5,2020.2.10,MacIntel,60,61025ae37ef11b136ea224fe,,,,,,,,,368,-44,44,1,0,0,response7disk,,1,18,-4,1,0,0,rectangle,18,-4,1,0,0,18,-4,1,0,0,1,132,292,38,1,,,,,,,,
,,,,,,,,,,,,,FF,,,,,,,,0.633,,,,,,,,,,,,,,,,,,,,,,60fde3fa7d68fa07e124b8cf,61036da65f5639875a03cf2a,2021-07-29_23h11.26.353,Simcolourproject_2stim_asymm_v5,2020.2.10,MacIntel,60,61025ae37ef11b136ea224fe,,,,,,,,,3227,31,61,1,0,0,response1disk,,7,2,-16,1,0,0,rectangle,2,-16,1,0,0,2,-16,1,0,0,1,133,293,5,1,,,,,,,,
,,,,,,,,,,,,,FF,,,,,,,,0.666,,,,,,,,,,,,,,,,,,,,,,60fde3fa7d68fa07e124b8cf,61036da65f5639875a03cf2a,2021-07-29_23h11.26.353,Simcolourproject_2stim_asymm_v5,2020.2.10,MacIntel,60,61025ae37ef11b136ea224fe,,,,,,,,,2510,46,52,1,0,0,response1disk,,7,29,12,1,0,0,rectangle,29,12,1,0,0,29,12,1,0,0,1,134,294,136,1,,,,,,,,
,,,,,,,,,,,,,FF,,,,,,,,0.5,,,,,,,,,,,,,,,,,,,,,,60fde3fa7d68fa07e124b8cf,61036da65f5639875a03cf2a,2021-07-29_23h11.26.353,Simcolourproject_2stim_asymm_v5,2020.2.10,MacIntel,60,61025ae37ef11b136ea224fe,,,,,,,,,2213,35,51,1,0,0,response1disk,,7,7,-6,1,0,0,rectangle,7,-6,1,0,0,7,-6,1,0,0,1,135,295,134,1,,,,,,,,
,,,,,,,,,,,,,FF,,,,,,,,0.55,,,,,,,,,,,,,,,,,,,,,,60fde3fa7d68fa07e124b8cf,61036da65f5639875a03cf2a,2021-07-29_23h11.26.353,Simcolourproject_2stim_asymm_v5,2020.2.10,MacIntel,60,61025ae37ef11b136ea224fe,,,,,,,,,491,50,69,1,0,0,response1disk,,7,19,2,1,0,0,rectangle,19,2,1,0,0,19,2,1,0,0,1,136,296,126,1,,,,,,,,
,,,,,,,,,,,,,FF,,,,,,,,0.866,,,,,,,,,,,,,,,,,,,,,,60fde3fa7d68fa07e124b8cf,61036da65f5639875a03cf2a,2021-07-29_23h11.26.353,Simcolourproject_2stim_asymm_v5,2020.2.10,MacIntel,60,61025ae37ef11b136ea224fe,,,,,,,,,1306,-52,-34,1,0,0,response5disk,,2,14,-7,1,0,0,rectangle,14,-7,1,0,0,14,-7,1,0,0,1,137,297,118,1,,,,,,,,
,,,,,,,,,,,,,FF,,,,,,,,1.232,,,,,,,,,,,,,,,,,,,,,,60fde3fa7d68fa07e124b8cf,61036da65f5639875a03cf2a,2021-07-29_23h11.26.353,Simcolourproject_2stim_asymm_v5,2020.2.10,MacIntel,60,61025ae37ef11b136ea224fe,,,,,,,,,2381,78,-43,1,0,0,response3disk,,5,-6,1,1,0,0,rectangle,-38,60,1,0,0,0,0,1,0,0,1,138,298,0,1,,response7disk_3,TRUE,0,0,"[164,259,168,299,195,138,224,135,23,211,115,150,220,30,31,289,318,170,101,132]",1.482,rectangle
,,,,,,,,,,,,,FF,,,,,,,,0.816,,,,,,,,,,,,,,,,,,,,,,60fde3fa7d68fa07e124b8cf,61036da65f5639875a03cf2a,2021-07-29_23h11.26.353,Simcolourproject_2stim_asymm_v5,2020.2.10,MacIntel,60,61025ae37ef11b136ea224fe,,,,,,,,,2485,-37,-56,1,0,0,response5disk,,3,-17,-1,1,0,0,rectangle,-17,-1,1,0,0,-17,-1,1,0,0,1,139,299,12,1,,,,,,,,
