key_resp.keys,key_resp.rt,key_resp_14.keys,key_resp_14.rt,key_resp_15.keys,key_resp_15.rt,key_resp_17.keys,key_resp_17.rt,key_resp_9.keys,key_resp_9.rt,key_resp_10.keys,key_resp_10.rt,practice_comparison,Ecc,mouse_5.x,mouse_5.y,mouse_5.leftButton,mouse_5.midButton,mouse_5.rightButton,mouse_5.clicked_name,pracsimilarity,response_time,mouse_10.x,mouse_10.y,mouse_10.leftButton,mouse_10.midButton,mouse_10.rightButton,mouse_10.clicked_name,mouse_7.x,mouse_7.y,mouse_7.leftButton,mouse_7.midButton,mouse_7.rightButton,mouse_6.x,mouse_6.y,mouse_6.leftButton,mouse_6.midButton,mouse_6.rightButton,duringprac.thisRepN,duringprac.thisTrialN,duringprac.thisN,duringprac.thisIndex,duringprac.ran,participant,session,date,expName,psychopyVersion,OS,frameRate,study_id,mouse_7.clicked_name,catchpracsimilarity,catch_response_time,catchnumberprac,catchtrialorderprac,mouse_6.clicked_name,key_resp_22.keys,key_resp_22.rt,realcomparison,mouse.x,mouse.y,mouse.leftButton,mouse.midButton,mouse.rightButton,mouse.clicked_name,Colour2,similarity,mouse_2.x,mouse_2.y,mouse_2.leftButton,mouse_2.midButton,mouse_2.rightButton,mouse_2.clicked_name,mouse_3.x,mouse_3.y,mouse_3.leftButton,mouse_3.midButton,mouse_3.rightButton,mouse_11.x,mouse_11.y,mouse_11.leftButton,mouse_11.midButton,mouse_11.rightButton,trials_2.thisRepN,trials_2.thisTrialN,trials_2.thisN,trials_2.thisIndex,trials_2.ran,Colour1,mouse_3.clicked_name,catchornah,catchsimilarity,catchnumber,catchtrialorder,catchRT,mouse_11.clicked_name
space,1.1866,space,2.431,space,41.5055,space,2.6051,space,0.9445,space,3.3489,110,FF,-33.28515625,-73.88671875,1,0,0,response5disk_5,3,3.2399,-3.1640625,1.234375,1,0,0,rectangle_8,-3.1640625,1.234375,1,0,0,-3.1640625,1.234375,1,0,0,0,0,0,5,1,60fdcf5f7303ef309710dbf6,61036b9c3c6d86eda699d88d,2021-07-29_21h02.42.340,Simcolourproject_2stim_asymm_v5,2020.2.10,MacIntel,60,61025ae37ef11b136ea224fe,,,,,,,,,,,,,,,,,,,,,,,,,,,,,,,,,,,,,,,,,,,,,,
,,,,,,,,,,,,32,PF,52.9921875,83.34375,1,0,0,response1disk_5,7,2.3353,2.25390625,0.8984375,1,0,0,rectangle_8,-59.71484375,24.63671875,1,0,0,7.578125,3.09375,1,0,0,0,1,1,2,1,60fdcf5f7303ef309710dbf6,61036b9c3c6d86eda699d88d,2021-07-29_21h02.42.340,Simcolourproject_2stim_asymm_v5,2020.2.10,MacIntel,60,61025ae37ef11b136ea224fe,response7disk_7,1,2.052,1,"[2,5]",rectangle_4,,,,,,,,,,,,,,,,,,,,,,,,,,,,,,,,,,,,,,,,
,,,,,,,,,,,,79,FF,-30.96484375,-57.48828125,1,0,0,response5disk_5,3,2.8856,-1.125,-9.5234375,1,0,0,rectangle_8,-1.125,-9.5234375,1,0,0,-1.125,-9.5234375,1,0,0,0,2,2,3,1,60fdcf5f7303ef309710dbf6,61036b9c3c6d86eda699d88d,2021-07-29_21h02.42.340,Simcolourproject_2stim_asymm_v5,2020.2.10,MacIntel,60,61025ae37ef11b136ea224fe,,,,,,,,,,,,,,,,,,,,,,,,,,,,,,,,,,,,,,,,,,,,,,
,,,,,,,,,,,,157,PF,-61.78515625,-47.46484375,1,0,0,response5disk_5,2,1.3838,4.7734375,3.75,1,0,0,rectangle_8,4.7734375,3.75,1,0,0,4.7734375,3.75,1,0,0,0,3,3,6,1,60fdcf5f7303ef309710dbf6,61036b9c3c6d86eda699d88d,2021-07-29_21h02.42.340,Simcolourproject_2stim_asymm_v5,2020.2.10,MacIntel,60,61025ae37ef11b136ea224fe,,,,,,,,,,,,,,,,,,,,,,,,,,,,,,,,,,,,,,,,,,,,,,
,,,,,,,,,,,,45,PF,-56.62109375,37.56640625,1,0,0,response7disk_5,1,3.1017,18.8359375,-6.0078125,1,0,0,rectangle_8,-54.7421875,34.7578125,1,0,0,-3.34375,3.32421875,1,0,0,0,4,4,4,1,60fdcf5f7303ef309710dbf6,61036b9c3c6d86eda699d88d,2021-07-29_21h02.42.340,Simcolourproject_2stim_asymm_v5,2020.2.10,MacIntel,60,61025ae37ef11b136ea224fe,response7disk_7,1,1.7504,1,"[2,5]",rectangle_4,,,,,,,,,,,,,,,,,,,,,,,,,,,,,,,,,,,,,,,,
,,,,,,,,,,,,66,FF,-33.6640625,-48.546875,1,0,0,response5disk_5,3,1.2509,-8.48046875,-14.32421875,1,0,0,rectangle_8,-8.48046875,-14.32421875,1,0,0,-8.48046875,-14.32421875,1,0,0,0,5,5,0,1,60fdcf5f7303ef309710dbf6,61036b9c3c6d86eda699d88d,2021-07-29_21h02.42.340,Simcolourproject_2stim_asymm_v5,2020.2.10,MacIntel,60,61025ae37ef11b136ea224fe,,,,,,,,,,,,,,,,,,,,,,,,,,,,,,,,,,,,,,,,,,,,,,
,,,,,,,,,,,,11,PF,30.046875,52.1328125,1,0,0,response1disk_5,7,1.1677,23.34765625,-3.3671875,1,0,0,rectangle_8,23.34765625,-3.3671875,1,0,0,23.34765625,-3.3671875,1,0,0,0,6,6,1,1,60fdcf5f7303ef309710dbf6,61036b9c3c6d86eda699d88d,2021-07-29_21h02.42.340,Simcolourproject_2stim_asymm_v5,2020.2.10,MacIntel,60,61025ae37ef11b136ea224fe,,,,,,,,,,,,,,,,,,,,,,,,,,,,,,,,,,,,,,,,,,,,,,
,,,,,,,,,,,,,FF,,,,,,,,1.2833,,,,,,,,,,,,,,,,,,,,,,60fdcf5f7303ef309710dbf6,61036b9c3c6d86eda699d88d,2021-07-29_21h02.42.340,Simcolourproject_2stim_asymm_v5,2020.2.10,MacIntel,60,61025ae37ef11b136ea224fe,,,,,,,space,1.3164,2466,27.87890625,45.0234375,1,0,0,response1disk,,7,16.36328125,1.36328125,1,0,0,rectangle,16.36328125,1.36328125,1,0,0,16.36328125,1.36328125,1,0,0,0,0,0,47,1,,,,,,,,
,,,,,,,,,,,,,FF,,,,,,,,0.6996,,,,,,,,,,,,,,,,,,,,,,60fdcf5f7303ef309710dbf6,61036b9c3c6d86eda699d88d,2021-07-29_21h02.42.340,Simcolourproject_2stim_asymm_v5,2020.2.10,MacIntel,60,61025ae37ef11b136ea224fe,,,,,,,,,3322,43.4375,49.51171875,1,0,0,response1disk,,7,26.6171875,6.875,1,0,0,rectangle,26.6171875,6.875,1,0,0,26.6171875,6.875,1,0,0,0,1,1,49,1,,,,,,,,
,,,,,,,,,,,,,FF,,,,,,,,1.0005,,,,,,,,,,,,,,,,,,,,,,60fdcf5f7303ef309710dbf6,61036b9c3c6d86eda699d88d,2021-07-29_21h02.42.340,Simcolourproject_2stim_asymm_v5,2020.2.10,MacIntel,60,61025ae37ef11b136ea224fe,,,,,,,,,1773,-38.2109375,-75.0546875,1,0,0,response5disk,,3,-8.2421875,-0.89453125,1,0,0,rectangle,-8.2421875,-0.89453125,1,0,0,-8.2421875,-0.89453125,1,0,0,0,2,2,50,1,,,,,,,,
,,,,,,,,,,,,,FF,,,,,,,,1.0674,,,,,,,,,,,,,,,,,,,,,,60fdcf5f7303ef309710dbf6,61036b9c3c6d86eda699d88d,2021-07-29_21h02.42.340,Simcolourproject_2stim_asymm_v5,2020.2.10,MacIntel,60,61025ae37ef11b136ea224fe,,,,,,,,,539,40.5546875,-43.89453125,1,0,0,response3disk,,4,14.58203125,-13.0625,1,0,0,rectangle,14.58203125,-13.0625,1,0,0,14.58203125,-13.0625,1,0,0,0,3,3,157,1,,,,,,,,
,,,,,,,,,,,,,FF,,,,,,,,0.7818,,,,,,,,,,,,,,,,,,,,,,60fdcf5f7303ef309710dbf6,61036b9c3c6d86eda699d88d,2021-07-29_21h02.42.340,Simcolourproject_2stim_asymm_v5,2020.2.10,MacIntel,60,61025ae37ef11b136ea224fe,,,,,,,,,1876,45.0546875,65.38671875,1,0,0,response1disk,,7,17.33203125,-2.7890625,1,0,0,rectangle,17.33203125,-2.7890625,1,0,0,17.33203125,-2.7890625,1,0,0,0,4,4,101,1,,,,,,,,
,,,,,,,,,,,,,FF,,,,,,,,0.667,,,,,,,,,,,,,,,,,,,,,,60fdcf5f7303ef309710dbf6,61036b9c3c6d86eda699d88d,2021-07-29_21h02.42.340,Simcolourproject_2stim_asymm_v5,2020.2.10,MacIntel,60,61025ae37ef11b136ea224fe,,,,,,,,,3526,35.9296875,47.8046875,1,0,0,response1disk,,7,8.93359375,-2.3046875,1,0,0,rectangle,8.93359375,-2.3046875,1,0,0,8.93359375,-2.3046875,1,0,0,0,5,5,154,1,,,,,,,,
,,,,,,,,,,,,,FF,,,,,,,,1.034,,,,,,,,,,,,,,,,,,,,,,60fdcf5f7303ef309710dbf6,61036b9c3c6d86eda699d88d,2021-07-29_21h02.42.340,Simcolourproject_2stim_asymm_v5,2020.2.10,MacIntel,60,61025ae37ef11b136ea224fe,,,,,,,,,1796,18.6015625,-47.59375,1,0,0,response3disk,,4,-2.2578125,-0.17578125,1,0,0,rectangle,-2.2578125,-0.17578125,1,0,0,-2.2578125,-0.17578125,1,0,0,0,6,6,93,1,,,,,,,,
,,,,,,,,,,,,,FF,,,,,,,,1.2656,,,,,,,,,,,,,,,,,,,,,,60fdcf5f7303ef309710dbf6,61036b9c3c6d86eda699d88d,2021-07-29_21h02.42.340,Simcolourproject_2stim_asymm_v5,2020.2.10,MacIntel,60,61025ae37ef11b136ea224fe,,,,,,,,,3993,-24.36328125,55.16015625,1,0,0,response7disk,,0,-1.55859375,-6.75390625,1,0,0,rectangle,-1.55859375,-6.75390625,1,0,0,-1.55859375,-6.75390625,1,0,0,0,7,7,77,1,,,,,,,,
,,,,,,,,,,,,,FF,,,,,,,,0.9752,,,,,,,,,,,,,,,,,,,,,,60fdcf5f7303ef309710dbf6,61036b9c3c6d86eda699d88d,2021-07-29_21h02.42.340,Simcolourproject_2stim_asymm_v5,2020.2.10,MacIntel,60,61025ae37ef11b136ea224fe,,,,,,,,,623,-45.640625,22.11328125,1,0,0,response7disk,,1,-3.6171875,-7.38671875,1,0,0,rectangle,-3.6171875,-7.38671875,1,0,0,-3.6171875,-7.38671875,1,0,0,0,8,8,61,1,,,,,,,,
,,,,,,,,,,,,,FF,,,,,,,,0.7847,,,,,,,,,,,,,,,,,,,,,,60fdcf5f7303ef309710dbf6,61036b9c3c6d86eda699d88d,2021-07-29_21h02.42.340,Simcolourproject_2stim_asymm_v5,2020.2.10,MacIntel,60,61025ae37ef11b136ea224fe,,,,,,,,,176,36.3828125,67.140625,1,0,0,response1disk,,7,22.796875,-11.10546875,1,0,0,rectangle,22.796875,-11.10546875,1,0,0,22.796875,-11.10546875,1,0,0,0,9,9,140,1,,,,,,,,
,,,,,,,,,,,,,FF,,,,,,,,0.6524,,,,,,,,,,,,,,,,,,,,,,60fdcf5f7303ef309710dbf6,61036b9c3c6d86eda699d88d,2021-07-29_21h02.42.340,Simcolourproject_2stim_asymm_v5,2020.2.10,MacIntel,60,61025ae37ef11b136ea224fe,,,,,,,,,2956,29.20703125,46.81640625,1,0,0,response1disk,,7,17.6796875,-4.65625,1,0,0,rectangle,17.6796875,-4.65625,1,0,0,17.6796875,-4.65625,1,0,0,0,10,10,67,1,,,,,,,,
,,,,,,,,,,,,,FF,,,,,,,,0.7342,,,,,,,,,,,,,,,,,,,,,,60fdcf5f7303ef309710dbf6,61036b9c3c6d86eda699d88d,2021-07-29_21h02.42.340,Simcolourproject_2stim_asymm_v5,2020.2.10,MacIntel,60,61025ae37ef11b136ea224fe,,,,,,,,,2965,56.9453125,36.6171875,1,0,0,response1disk,,6,10.94921875,-5.1953125,1,0,0,rectangle,10.94921875,-5.1953125,1,0,0,10.94921875,-5.1953125,1,0,0,0,11,11,7,1,,,,,,,,
,,,,,,,,,,,,,FF,,,,,,,,0.8187,,,,,,,,,,,,,,,,,,,,,,60fdcf5f7303ef309710dbf6,61036b9c3c6d86eda699d88d,2021-07-29_21h02.42.340,Simcolourproject_2stim_asymm_v5,2020.2.10,MacIntel,60,61025ae37ef11b136ea224fe,,,,,,,,,3115,25.9921875,-41.06640625,1,0,0,response3disk,,4,11.90234375,11.34375,1,0,0,rectangle,45.359375,-86.27734375,1,0,0,4.82421875,-4.18359375,1,0,0,0,12,12,151,1,,response3disk_3,TRUE,4,4,"[182,36,304,71,270,89,181,280,64,312,298,293,137,13,293,280,19,94,157,196]",3.0687,rectangle
,,,,,,,,,,,,,FF,,,,,,,,1.0487,,,,,,,,,,,,,,,,,,,,,,60fdcf5f7303ef309710dbf6,61036b9c3c6d86eda699d88d,2021-07-29_21h02.42.340,Simcolourproject_2stim_asymm_v5,2020.2.10,MacIntel,60,61025ae37ef11b136ea224fe,,,,,,,,,1454,-42.765625,27.328125,1,0,0,response7disk,,1,-17.71484375,7.30078125,1,0,0,rectangle,-17.71484375,7.30078125,1,0,0,-17.71484375,7.30078125,1,0,0,0,13,13,147,1,,,,,,,,
,,,,,,,,,,,,,FF,,,,,,,,0.7832,,,,,,,,,,,,,,,,,,,,,,60fdcf5f7303ef309710dbf6,61036b9c3c6d86eda699d88d,2021-07-29_21h02.42.340,Simcolourproject_2stim_asymm_v5,2020.2.10,MacIntel,60,61025ae37ef11b136ea224fe,,,,,,,,,2493,-30.2265625,-53.4296875,1,0,0,response5disk,,3,-4.12890625,-9.515625,1,0,0,rectangle,-4.12890625,-9.515625,1,0,0,-4.12890625,-9.515625,1,0,0,0,14,14,57,1,,,,,,,,
,,,,,,,,,,,,,FF,,,,,,,,0.7187,,,,,,,,,,,,,,,,,,,,,,60fdcf5f7303ef309710dbf6,61036b9c3c6d86eda699d88d,2021-07-29_21h02.42.340,Simcolourproject_2stim_asymm_v5,2020.2.10,MacIntel,60,61025ae37ef11b136ea224fe,,,,,,,,,4134,37.27734375,-17.546875,1,0,0,response3disk,,5,9.84375,3.1640625,1,0,0,rectangle,9.84375,3.1640625,1,0,0,9.84375,3.1640625,1,0,0,0,15,15,75,1,,,,,,,,
,,,,,,,,,,,,,FF,,,,,,,,1.6016,,,,,,,,,,,,,,,,,,,,,,60fdcf5f7303ef309710dbf6,61036b9c3c6d86eda699d88d,2021-07-29_21h02.42.340,Simcolourproject_2stim_asymm_v5,2020.2.10,MacIntel,60,61025ae37ef11b136ea224fe,,,,,,,,,2774,-34.5234375,-69.01171875,1,0,0,response5disk,,3,-3.82421875,-10.6796875,1,0,0,rectangle,-3.82421875,-10.6796875,1,0,0,-3.82421875,-10.6796875,1,0,0,0,16,16,94,1,,,,,,,,
,,,,,,,,,,,,,FF,,,,,,,,0.7005,,,,,,,,,,,,,,,,,,,,,,60fdcf5f7303ef309710dbf6,61036b9c3c6d86eda699d88d,2021-07-29_21h02.42.340,Simcolourproject_2stim_asymm_v5,2020.2.10,MacIntel,60,61025ae37ef11b136ea224fe,,,,,,,,,3165,-41.890625,-24.13671875,1,0,0,response5disk,,2,3.63671875,-12.5703125,1,0,0,rectangle,3.63671875,-12.5703125,1,0,0,3.63671875,-12.5703125,1,0,0,0,17,17,139,1,,,,,,,,
,,,,,,,,,,,,,FF,,,,,,,,0.5988,,,,,,,,,,,,,,,,,,,,,,60fdcf5f7303ef309710dbf6,61036b9c3c6d86eda699d88d,2021-07-29_21h02.42.340,Simcolourproject_2stim_asymm_v5,2020.2.10,MacIntel,60,61025ae37ef11b136ea224fe,,,,,,,,,1558,-18.53515625,-53.30078125,1,0,0,response5disk,,3,7.08984375,-3.28125,1,0,0,rectangle,69.24609375,15.86328125,1,0,0,6.43359375,0.28125,1,0,0,0,18,18,23,1,,response1disk_3,TRUE,6,6,"[182,36,304,71,270,89,181,280,64,312,298,293,137,13,293,280,19,94,157,196]",2.1677,rectangle
,,,,,,,,,,,,,FF,,,,,,,,1.1489,,,,,,,,,,,,,,,,,,,,,,60fdcf5f7303ef309710dbf6,61036b9c3c6d86eda699d88d,2021-07-29_21h02.42.340,Simcolourproject_2stim_asymm_v5,2020.2.10,MacIntel,60,61025ae37ef11b136ea224fe,,,,,,,,,2222,-75.43359375,-30.9921875,1,0,0,response5disk,,2,0.53125,1.203125,1,0,0,rectangle,0.53125,1.203125,1,0,0,0.53125,1.203125,1,0,0,0,19,19,91,1,,,,,,,,
,,,,,,,,,,,,,FF,,,,,,,,0.7674,,,,,,,,,,,,,,,,,,,,,,60fdcf5f7303ef309710dbf6,61036b9c3c6d86eda699d88d,2021-07-29_21h02.42.340,Simcolourproject_2stim_asymm_v5,2020.2.10,MacIntel,60,61025ae37ef11b136ea224fe,,,,,,,,,965,-27.96875,-56.2109375,1,0,0,response5disk,,3,5.1640625,-0.328125,1,0,0,rectangle,5.1640625,-0.328125,1,0,0,5.1640625,-0.328125,1,0,0,0,20,20,106,1,,,,,,,,
,,,,,,,,,,,,,FF,,,,,,,,0.7508,,,,,,,,,,,,,,,,,,,,,,60fdcf5f7303ef309710dbf6,61036b9c3c6d86eda699d88d,2021-07-29_21h02.42.340,Simcolourproject_2stim_asymm_v5,2020.2.10,MacIntel,60,61025ae37ef11b136ea224fe,,,,,,,,,3688,33.921875,-44.74609375,1,0,0,response3disk,,4,11.63671875,-3.328125,1,0,0,rectangle,11.63671875,-3.328125,1,0,0,11.63671875,-3.328125,1,0,0,0,21,21,155,1,,,,,,,,
,,,,,,,,,,,,,FF,,,,,,,,0.8839,,,,,,,,,,,,,,,,,,,,,,60fdcf5f7303ef309710dbf6,61036b9c3c6d86eda699d88d,2021-07-29_21h02.42.340,Simcolourproject_2stim_asymm_v5,2020.2.10,MacIntel,60,61025ae37ef11b136ea224fe,,,,,,,,,2268,-45.171875,21.8359375,1,0,0,response7disk,,1,-2.2265625,-5.71484375,1,0,0,rectangle,-2.2265625,-5.71484375,1,0,0,-2.2265625,-5.71484375,1,0,0,0,22,22,30,1,,,,,,,,
,,,,,,,,,,,,,FF,,,,,,,,0.9845,,,,,,,,,,,,,,,,,,,,,,60fdcf5f7303ef309710dbf6,61036b9c3c6d86eda699d88d,2021-07-29_21h02.42.340,Simcolourproject_2stim_asymm_v5,2020.2.10,MacIntel,60,61025ae37ef11b136ea224fe,,,,,,,,,1052,-29.5390625,-56.1953125,1,0,0,response5disk,,3,-4.16015625,3.875,1,0,0,rectangle,-4.16015625,3.875,1,0,0,-4.16015625,3.875,1,0,0,0,23,23,0,1,,,,,,,,
,,,,,,,,,,,,,FF,,,,,,,,0.9667,,,,,,,,,,,,,,,,,,,,,,60fdcf5f7303ef309710dbf6,61036b9c3c6d86eda699d88d,2021-07-29_21h02.42.340,Simcolourproject_2stim_asymm_v5,2020.2.10,MacIntel,60,61025ae37ef11b136ea224fe,,,,,,,,,385,-64.765625,-29.61328125,1,0,0,response5disk,,2,-5.90234375,0.06640625,1,0,0,rectangle,-5.90234375,0.06640625,1,0,0,-5.90234375,0.06640625,1,0,0,0,24,24,97,1,,,,,,,,
,,,,,,,,,,,,,FF,,,,,,,,1.0169,,,,,,,,,,,,,,,,,,,,,,60fdcf5f7303ef309710dbf6,61036b9c3c6d86eda699d88d,2021-07-29_21h02.42.340,Simcolourproject_2stim_asymm_v5,2020.2.10,MacIntel,60,61025ae37ef11b136ea224fe,,,,,,,,,2926,-62.0859375,-56.87109375,1,0,0,response5disk,,2,-3.44921875,-4.2265625,1,0,0,rectangle,-3.44921875,-4.2265625,1,0,0,-3.44921875,-4.2265625,1,0,0,0,25,25,27,1,,,,,,,,
,,,,,,,,,,,,,FF,,,,,,,,1.3511,,,,,,,,,,,,,,,,,,,,,,60fdcf5f7303ef309710dbf6,61036b9c3c6d86eda699d88d,2021-07-29_21h02.42.340,Simcolourproject_2stim_asymm_v5,2020.2.10,MacIntel,60,61025ae37ef11b136ea224fe,,,,,,,,,728,35.34375,-74.76953125,1,0,0,response3disk,,4,6.24609375,3.48828125,1,0,0,rectangle,6.24609375,3.48828125,1,0,0,6.24609375,3.48828125,1,0,0,0,26,26,117,1,,,,,,,,
,,,,,,,,,,,,,FF,,,,,,,,0.834,,,,,,,,,,,,,,,,,,,,,,60fdcf5f7303ef309710dbf6,61036b9c3c6d86eda699d88d,2021-07-29_21h02.42.340,Simcolourproject_2stim_asymm_v5,2020.2.10,MacIntel,60,61025ae37ef11b136ea224fe,,,,,,,,,3437,-45.796875,-74.6484375,1,0,0,response5disk,,3,8.28125,12.078125,1,0,0,rectangle,8.28125,12.078125,1,0,0,8.28125,12.078125,1,0,0,0,27,27,122,1,,,,,,,,
,,,,,,,,,,,,,FF,,,,,,,,3.0174,,,,,,,,,,,,,,,,,,,,,,60fdcf5f7303ef309710dbf6,61036b9c3c6d86eda699d88d,2021-07-29_21h02.42.340,Simcolourproject_2stim_asymm_v5,2020.2.10,MacIntel,60,61025ae37ef11b136ea224fe,,,,,,,,,2902,-20.62109375,-50.31640625,1,0,0,response5disk,,3,0.34375,-7.3125,1,0,0,rectangle,0.34375,-7.3125,1,0,0,0.34375,-7.3125,1,0,0,0,28,28,14,1,,,,,,,,
,,,,,,,,,,,,,FF,,,,,,,,0.7834,,,,,,,,,,,,,,,,,,,,,,60fdcf5f7303ef309710dbf6,61036b9c3c6d86eda699d88d,2021-07-29_21h02.42.340,Simcolourproject_2stim_asymm_v5,2020.2.10,MacIntel,60,61025ae37ef11b136ea224fe,,,,,,,,,2001,40.890625,25.58203125,1,0,0,response1disk,,6,4.33984375,-8.640625,1,0,0,rectangle,4.33984375,-8.640625,1,0,0,4.33984375,-8.640625,1,0,0,0,29,29,1,1,,,,,,,,
,,,,,,,,,,,,,FF,,,,,,,,0.6334,,,,,,,,,,,,,,,,,,,,,,60fdcf5f7303ef309710dbf6,61036b9c3c6d86eda699d88d,2021-07-29_21h02.42.340,Simcolourproject_2stim_asymm_v5,2020.2.10,MacIntel,60,61025ae37ef11b136ea224fe,,,,,,,,,2659,30.45703125,34.13671875,1,0,0,response1disk,,7,16.546875,6.1171875,1,0,0,rectangle,16.546875,6.1171875,1,0,0,16.546875,6.1171875,1,0,0,0,30,30,144,1,,,,,,,,
,,,,,,,,,,,,,FF,,,,,,,,0.7835,,,,,,,,,,,,,,,,,,,,,,60fdcf5f7303ef309710dbf6,61036b9c3c6d86eda699d88d,2021-07-29_21h02.42.340,Simcolourproject_2stim_asymm_v5,2020.2.10,MacIntel,60,61025ae37ef11b136ea224fe,,,,,,,,,605,43.35546875,26.62890625,1,0,0,response1disk,,6,-10.3828125,-14.12890625,1,0,0,rectangle,-10.3828125,-14.12890625,1,0,0,-10.3828125,-14.12890625,1,0,0,0,31,31,42,1,,,,,,,,
,,,,,,,,,,,,,FF,,,,,,,,0.8174,,,,,,,,,,,,,,,,,,,,,,60fdcf5f7303ef309710dbf6,61036b9c3c6d86eda699d88d,2021-07-29_21h02.42.340,Simcolourproject_2stim_asymm_v5,2020.2.10,MacIntel,60,61025ae37ef11b136ea224fe,,,,,,,,,47,19.16015625,-43.1875,1,0,0,response3disk,,4,5.546875,-9.01171875,1,0,0,rectangle,5.546875,-9.01171875,1,0,0,5.546875,-9.01171875,1,0,0,0,32,32,98,1,,,,,,,,
,,,,,,,,,,,,,FF,,,,,,,,0.4146,,,,,,,,,,,,,,,,,,,,,,60fdcf5f7303ef309710dbf6,61036b9c3c6d86eda699d88d,2021-07-29_21h02.42.340,Simcolourproject_2stim_asymm_v5,2020.2.10,MacIntel,60,61025ae37ef11b136ea224fe,,,,,,,,,940,20.09765625,-27.23828125,1,0,0,response3disk,,4,8.94921875,-1.46875,1,0,0,rectangle,8.94921875,-1.46875,1,0,0,8.94921875,-1.46875,1,0,0,0,33,33,119,1,,,,,,,,
,,,,,,,,,,,,,FF,,,,,,,,0.4163,,,,,,,,,,,,,,,,,,,,,,60fdcf5f7303ef309710dbf6,61036b9c3c6d86eda699d88d,2021-07-29_21h02.42.340,Simcolourproject_2stim_asymm_v5,2020.2.10,MacIntel,60,61025ae37ef11b136ea224fe,,,,,,,,,446,20.22265625,-31.578125,1,0,0,response3disk,,4,7.140625,0.79296875,1,0,0,rectangle,7.140625,0.79296875,1,0,0,7.140625,0.79296875,1,0,0,0,34,34,108,1,,,,,,,,
,,,,,,,,,,,,,FF,,,,,,,,0.6773,,,,,,,,,,,,,,,,,,,,,,60fdcf5f7303ef309710dbf6,61036b9c3c6d86eda699d88d,2021-07-29_21h02.42.340,Simcolourproject_2stim_asymm_v5,2020.2.10,MacIntel,60,61025ae37ef11b136ea224fe,,,,,,,,,1573,55.4765625,45.828125,1,0,0,response1disk,,6,0.20703125,8.22265625,1,0,0,rectangle,-29.640625,-60.0078125,1,0,0,7.6015625,0.01171875,1,0,0,0,35,35,60,1,,response5disk_3,TRUE,3,3,"[182,36,304,71,270,89,181,280,64,312,298,293,137,13,293,280,19,94,157,196]",1.7676,rectangle
,,,,,,,,,,,,,FF,,,,,,,,0.55,,,,,,,,,,,,,,,,,,,,,,60fdcf5f7303ef309710dbf6,61036b9c3c6d86eda699d88d,2021-07-29_21h02.42.340,Simcolourproject_2stim_asymm_v5,2020.2.10,MacIntel,60,61025ae37ef11b136ea224fe,,,,,,,,,2656,-36.76171875,-47.48046875,1,0,0,response5disk,,3,6.41796875,-12.53125,1,0,0,rectangle,6.41796875,-12.53125,1,0,0,6.41796875,-12.53125,1,0,0,0,36,36,59,1,,,,,,,,
,,,,,,,,,,,,,FF,,,,,,,,0.4502,,,,,,,,,,,,,,,,,,,,,,60fdcf5f7303ef309710dbf6,61036b9c3c6d86eda699d88d,2021-07-29_21h02.42.340,Simcolourproject_2stim_asymm_v5,2020.2.10,MacIntel,60,61025ae37ef11b136ea224fe,,,,,,,,,4270,-37.73828125,-15.91015625,1,0,0,response5disk,,2,3.34765625,-1.25,1,0,0,rectangle,3.34765625,-1.25,1,0,0,3.34765625,-1.25,1,0,0,0,37,37,116,1,,,,,,,,
,,,,,,,,,,,,,FF,,,,,,,,0.433,,,,,,,,,,,,,,,,,,,,,,60fdcf5f7303ef309710dbf6,61036b9c3c6d86eda699d88d,2021-07-29_21h02.42.340,Simcolourproject_2stim_asymm_v5,2020.2.10,MacIntel,60,61025ae37ef11b136ea224fe,,,,,,,,,1373,24.6328125,-36.546875,1,0,0,response3disk,,4,-21.11328125,13.83203125,1,0,0,rectangle,-21.11328125,13.83203125,1,0,0,-21.11328125,13.83203125,1,0,0,0,38,38,18,1,,,,,,,,
,,,,,,,,,,,,,FF,,,,,,,,0.4831,,,,,,,,,,,,,,,,,,,,,,60fdcf5f7303ef309710dbf6,61036b9c3c6d86eda699d88d,2021-07-29_21h02.42.340,Simcolourproject_2stim_asymm_v5,2020.2.10,MacIntel,60,61025ae37ef11b136ea224fe,,,,,,,,,4234,-39.12890625,-20.578125,1,0,0,response5disk,,2,12.93359375,-2.265625,1,0,0,rectangle,12.93359375,-2.265625,1,0,0,12.93359375,-2.265625,1,0,0,0,39,39,136,1,,,,,,,,
,,,,,,,,,,,,,FF,,,,,,,,0.4341,,,,,,,,,,,,,,,,,,,,,,60fdcf5f7303ef309710dbf6,61036b9c3c6d86eda699d88d,2021-07-29_21h02.42.340,Simcolourproject_2stim_asymm_v5,2020.2.10,MacIntel,60,61025ae37ef11b136ea224fe,,,,,,,,,3269,-21.94921875,-59.38671875,1,0,0,response5disk,,3,-1.83984375,1.671875,1,0,0,rectangle,-1.83984375,1.671875,1,0,0,-1.83984375,1.671875,1,0,0,0,40,40,112,1,,,,,,,,
,,,,,,,,,,,,,FF,,,,,,,,0.9629,,,,,,,,,,,,,,,,,,,,,,60fdcf5f7303ef309710dbf6,61036b9c3c6d86eda699d88d,2021-07-29_21h02.42.340,Simcolourproject_2stim_asymm_v5,2020.2.10,MacIntel,60,61025ae37ef11b136ea224fe,,,,,,,,,1899,-64.9296875,34.64453125,1,0,0,response7disk,,1,-21.41015625,4.453125,1,0,0,rectangle,-21.41015625,4.453125,1,0,0,-21.41015625,4.453125,1,0,0,0,41,41,85,1,,,,,,,,
,,,,,,,,,,,,,FF,,,,,,,,0.5804,,,,,,,,,,,,,,,,,,,,,,60fdcf5f7303ef309710dbf6,61036b9c3c6d86eda699d88d,2021-07-29_21h02.42.340,Simcolourproject_2stim_asymm_v5,2020.2.10,MacIntel,60,61025ae37ef11b136ea224fe,,,,,,,,,75,-26.2578125,36,1,0,0,response7disk,,0,-11.953125,0.00390625,1,0,0,rectangle,-11.953125,0.00390625,1,0,0,-11.953125,0.00390625,1,0,0,0,42,42,56,1,,,,,,,,
,,,,,,,,,,,,,FF,,,,,,,,0.5368,,,,,,,,,,,,,,,,,,,,,,60fdcf5f7303ef309710dbf6,61036b9c3c6d86eda699d88d,2021-07-29_21h02.42.340,Simcolourproject_2stim_asymm_v5,2020.2.10,MacIntel,60,61025ae37ef11b136ea224fe,,,,,,,,,3532,-31.203125,-34.953125,1,0,0,response5disk,,3,-10.328125,-11.7890625,1,0,0,rectangle,-10.328125,-11.7890625,1,0,0,-10.328125,-11.7890625,1,0,0,0,43,43,6,1,,,,,,,,
,,,,,,,,,,,,,FF,,,,,,,,0.517,,,,,,,,,,,,,,,,,,,,,,60fdcf5f7303ef309710dbf6,61036b9c3c6d86eda699d88d,2021-07-29_21h02.42.340,Simcolourproject_2stim_asymm_v5,2020.2.10,MacIntel,60,61025ae37ef11b136ea224fe,,,,,,,,,2453,-47.33203125,-34.46484375,1,0,0,response5disk,,2,-0.23828125,-8.1953125,1,0,0,rectangle,-0.23828125,-8.1953125,1,0,0,-0.23828125,-8.1953125,1,0,0,0,44,44,152,1,,,,,,,,
,,,,,,,,,,,,,FF,,,,,,,,0.5005,,,,,,,,,,,,,,,,,,,,,,60fdcf5f7303ef309710dbf6,61036b9c3c6d86eda699d88d,2021-07-29_21h02.42.340,Simcolourproject_2stim_asymm_v5,2020.2.10,MacIntel,60,61025ae37ef11b136ea224fe,,,,,,,,,1288,-53.03515625,-52.8125,1,0,0,response5disk,,2,-3.65234375,-6.5234375,1,0,0,rectangle,-3.65234375,-6.5234375,1,0,0,-3.65234375,-6.5234375,1,0,0,0,45,45,105,1,,,,,,,,
,,,,,,,,,,,,,FF,,,,,,,,1.0001,,,,,,,,,,,,,,,,,,,,,,60fdcf5f7303ef309710dbf6,61036b9c3c6d86eda699d88d,2021-07-29_21h02.42.340,Simcolourproject_2stim_asymm_v5,2020.2.10,MacIntel,60,61025ae37ef11b136ea224fe,,,,,,,,,2918,69.99609375,49.93359375,1,0,0,response1disk,,6,23.5625,6.86328125,1,0,0,rectangle,23.5625,6.86328125,1,0,0,23.5625,6.86328125,1,0,0,0,46,46,45,1,,,,,,,,
,,,,,,,,,,,,,FF,,,,,,,,0.8169,,,,,,,,,,,,,,,,,,,,,,60fdcf5f7303ef309710dbf6,61036b9c3c6d86eda699d88d,2021-07-29_21h02.42.340,Simcolourproject_2stim_asymm_v5,2020.2.10,MacIntel,60,61025ae37ef11b136ea224fe,,,,,,,,,1069,-49.3671875,-54.0234375,1,0,0,response5disk,,3,-8.0234375,-3.39453125,1,0,0,rectangle,-8.0234375,-3.39453125,1,0,0,-8.0234375,-3.39453125,1,0,0,0,47,47,102,1,,,,,,,,
,,,,,,,,,,,,,FF,,,,,,,,1.0362,,,,,,,,,,,,,,,,,,,,,,60fdcf5f7303ef309710dbf6,61036b9c3c6d86eda699d88d,2021-07-29_21h02.42.340,Simcolourproject_2stim_asymm_v5,2020.2.10,MacIntel,60,61025ae37ef11b136ea224fe,,,,,,,,,391,39.18359375,-43.5546875,1,0,0,response3disk,,4,-1.203125,7.390625,1,0,0,rectangle,-1.203125,7.390625,1,0,0,-1.203125,7.390625,1,0,0,0,48,48,8,1,,,,,,,,
,,,,,,,,,,,,,FF,,,,,,,,1.1336,,,,,,,,,,,,,,,,,,,,,,60fdcf5f7303ef309710dbf6,61036b9c3c6d86eda699d88d,2021-07-29_21h02.42.340,Simcolourproject_2stim_asymm_v5,2020.2.10,MacIntel,60,61025ae37ef11b136ea224fe,,,,,,,,,4170,-55.20703125,15.6484375,1,0,0,response7disk,,1,-18.46875,0.32421875,1,0,0,rectangle,-18.46875,0.32421875,1,0,0,-18.46875,0.32421875,1,0,0,0,49,49,43,1,,,,,,,,
,,,,,,,,,,,,,FF,,,,,,,,0.5513,,,,,,,,,,,,,,,,,,,,,,60fdcf5f7303ef309710dbf6,61036b9c3c6d86eda699d88d,2021-07-29_21h02.42.340,Simcolourproject_2stim_asymm_v5,2020.2.10,MacIntel,60,61025ae37ef11b136ea224fe,,,,,,,,,3281,-23.54296875,-47.79296875,1,0,0,response5disk,,3,11.23828125,15.74609375,1,0,0,rectangle,11.23828125,15.74609375,1,0,0,11.23828125,15.74609375,1,0,0,0,50,50,24,1,,,,,,,,
,,,,,,,,,,,,,FF,,,,,,,,0.6336,,,,,,,,,,,,,,,,,,,,,,60fdcf5f7303ef309710dbf6,61036b9c3c6d86eda699d88d,2021-07-29_21h02.42.340,Simcolourproject_2stim_asymm_v5,2020.2.10,MacIntel,60,61025ae37ef11b136ea224fe,,,,,,,,,229,-15.68359375,-18.359375,1,0,0,response5disk,,3,-1.6796875,0.25390625,1,0,0,rectangle,-1.6796875,0.25390625,1,0,0,-1.6796875,0.25390625,1,0,0,0,51,51,53,1,,,,,,,,
,,,,,,,,,,,,,FF,,,,,,,,0.6841,,,,,,,,,,,,,,,,,,,,,,60fdcf5f7303ef309710dbf6,61036b9c3c6d86eda699d88d,2021-07-29_21h02.42.340,Simcolourproject_2stim_asymm_v5,2020.2.10,MacIntel,60,61025ae37ef11b136ea224fe,,,,,,,,,636,-27.65234375,-46.7109375,1,0,0,response5disk,,3,-2.265625,-5.69921875,1,0,0,rectangle,-2.265625,-5.69921875,1,0,0,-2.265625,-5.69921875,1,0,0,0,52,52,40,1,,,,,,,,
,,,,,,,,,,,,,FF,,,,,,,,1.1841,,,,,,,,,,,,,,,,,,,,,,60fdcf5f7303ef309710dbf6,61036b9c3c6d86eda699d88d,2021-07-29_21h02.42.340,Simcolourproject_2stim_asymm_v5,2020.2.10,MacIntel,60,61025ae37ef11b136ea224fe,,,,,,,,,303,39.3515625,-62.35546875,1,0,0,response3disk,,4,10.578125,-10.5078125,1,0,0,rectangle,10.578125,-10.5078125,1,0,0,10.578125,-10.5078125,1,0,0,0,53,53,65,1,,,,,,,,
,,,,,,,,,,,,,FF,,,,,,,,0.4998,,,,,,,,,,,,,,,,,,,,,,60fdcf5f7303ef309710dbf6,61036b9c3c6d86eda699d88d,2021-07-29_21h02.42.340,Simcolourproject_2stim_asymm_v5,2020.2.10,MacIntel,60,61025ae37ef11b136ea224fe,,,,,,,,,2205,36.41015625,-30.6015625,1,0,0,response3disk,,5,-13.7734375,3.4453125,1,0,0,rectangle,-13.7734375,3.4453125,1,0,0,-13.7734375,3.4453125,1,0,0,0,54,54,9,1,,,,,,,,
,,,,,,,,,,,,,FF,,,,,,,,0.7007,,,,,,,,,,,,,,,,,,,,,,60fdcf5f7303ef309710dbf6,61036b9c3c6d86eda699d88d,2021-07-29_21h02.42.340,Simcolourproject_2stim_asymm_v5,2020.2.10,MacIntel,60,61025ae37ef11b136ea224fe,,,,,,,,,4297,52.1015625,-22.0703125,1,0,0,response3disk,,5,11.32421875,-6.3359375,1,0,0,rectangle,11.32421875,-6.3359375,1,0,0,11.32421875,-6.3359375,1,0,0,0,55,55,86,1,,,,,,,,
,,,,,,,,,,,,,FF,,,,,,,,0.6986,,,,,,,,,,,,,,,,,,,,,,60fdcf5f7303ef309710dbf6,61036b9c3c6d86eda699d88d,2021-07-29_21h02.42.340,Simcolourproject_2stim_asymm_v5,2020.2.10,MacIntel,60,61025ae37ef11b136ea224fe,,,,,,,,,3832,48.703125,-42.36328125,1,0,0,response3disk,,5,5.76171875,-9.7890625,1,0,0,rectangle,5.76171875,-9.7890625,1,0,0,5.76171875,-9.7890625,1,0,0,0,56,56,35,1,,,,,,,,
,,,,,,,,,,,,,FF,,,,,,,,0.6921,,,,,,,,,,,,,,,,,,,,,,60fdcf5f7303ef309710dbf6,61036b9c3c6d86eda699d88d,2021-07-29_21h02.42.340,Simcolourproject_2stim_asymm_v5,2020.2.10,MacIntel,60,61025ae37ef11b136ea224fe,,,,,,,,,1094,32.921875,-43.55078125,1,0,0,response3disk,,4,17.87109375,-15.375,1,0,0,rectangle,17.87109375,-15.375,1,0,0,17.87109375,-15.375,1,0,0,0,57,57,10,1,,,,,,,,
,,,,,,,,,,,,,FF,,,,,,,,0.6496,,,,,,,,,,,,,,,,,,,,,,60fdcf5f7303ef309710dbf6,61036b9c3c6d86eda699d88d,2021-07-29_21h02.42.340,Simcolourproject_2stim_asymm_v5,2020.2.10,MacIntel,60,61025ae37ef11b136ea224fe,,,,,,,,,4177,19.265625,-36.31640625,1,0,0,response3disk,,4,-0.69140625,-12.328125,1,0,0,rectangle,-0.69140625,-12.328125,1,0,0,-0.69140625,-12.328125,1,0,0,0,58,58,129,1,,,,,,,,
,,,,,,,,,,,,,FF,,,,,,,,1.3496,,,,,,,,,,,,,,,,,,,,,,60fdcf5f7303ef309710dbf6,61036b9c3c6d86eda699d88d,2021-07-29_21h02.42.340,Simcolourproject_2stim_asymm_v5,2020.2.10,MacIntel,60,61025ae37ef11b136ea224fe,,,,,,,,,2606,-56.6875,-18.3984375,1,0,0,response5disk,,2,8.75,-12.08203125,1,0,0,rectangle,8.75,-12.08203125,1,0,0,8.75,-12.08203125,1,0,0,0,59,59,69,1,,,,,,,,
,,,,,,,,,,,,,FF,,,,,,,,1.1357,,,,,,,,,,,,,,,,,,,,,,60fdcf5f7303ef309710dbf6,61036b9c3c6d86eda699d88d,2021-07-29_21h02.42.340,Simcolourproject_2stim_asymm_v5,2020.2.10,MacIntel,60,61025ae37ef11b136ea224fe,,,,,,,,,3646,65.140625,34.65625,1,0,0,response1disk,,6,0.71484375,15.5,1,0,0,rectangle,0.71484375,15.5,1,0,0,0.71484375,15.5,1,0,0,0,60,60,142,1,,,,,,,,
,,,,,,,,,,,,,FF,,,,,,,,1.0838,,,,,,,,,,,,,,,,,,,,,,60fdcf5f7303ef309710dbf6,61036b9c3c6d86eda699d88d,2021-07-29_21h02.42.340,Simcolourproject_2stim_asymm_v5,2020.2.10,MacIntel,60,61025ae37ef11b136ea224fe,,,,,,,,,3098,-47.953125,15.88671875,1,0,0,response7disk,,1,-1.9765625,4.890625,1,0,0,rectangle,-1.9765625,4.890625,1,0,0,-1.9765625,4.890625,1,0,0,0,61,61,149,1,,,,,,,,
,,,,,,,,,,,,,FF,,,,,,,,1.1344,,,,,,,,,,,,,,,,,,,,,,60fdcf5f7303ef309710dbf6,61036b9c3c6d86eda699d88d,2021-07-29_21h02.42.340,Simcolourproject_2stim_asymm_v5,2020.2.10,MacIntel,60,61025ae37ef11b136ea224fe,,,,,,,,,350,-36.4765625,-22.5234375,1,0,0,response5disk,,2,8.6796875,1.22265625,1,0,0,rectangle,8.6796875,1.22265625,1,0,0,8.6796875,1.22265625,1,0,0,0,62,62,104,1,,,,,,,,
,,,,,,,,,,,,,FF,,,,,,,,1.0513,,,,,,,,,,,,,,,,,,,,,,60fdcf5f7303ef309710dbf6,61036b9c3c6d86eda699d88d,2021-07-29_21h02.42.340,Simcolourproject_2stim_asymm_v5,2020.2.10,MacIntel,60,61025ae37ef11b136ea224fe,,,,,,,,,3415,33.82421875,82.0234375,1,0,0,response1disk,,7,9.80078125,7.64453125,1,0,0,rectangle,-76.51171875,-41.3046875,1,0,0,7.44921875,-4.04296875,1,0,0,0,63,63,76,1,,response5disk_3,TRUE,2,2,"[182,36,304,71,270,89,181,280,64,312,298,293,137,13,293,280,19,94,157,196]",1.6845,rectangle
,,,,,,,,,,,,,FF,,,,,,,,1.2027,,,,,,,,,,,,,,,,,,,,,,60fdcf5f7303ef309710dbf6,61036b9c3c6d86eda699d88d,2021-07-29_21h02.42.340,Simcolourproject_2stim_asymm_v5,2020.2.10,MacIntel,60,61025ae37ef11b136ea224fe,,,,,,,,,2024,66.3359375,-46.05859375,1,0,0,response3disk,,5,2.91796875,0.02734375,1,0,0,rectangle,2.91796875,0.02734375,1,0,0,2.91796875,0.02734375,1,0,0,0,64,64,79,1,,,,,,,,
,,,,,,,,,,,,,FF,,,,,,,,0.8004,,,,,,,,,,,,,,,,,,,,,,60fdcf5f7303ef309710dbf6,61036b9c3c6d86eda699d88d,2021-07-29_21h02.42.340,Simcolourproject_2stim_asymm_v5,2020.2.10,MacIntel,60,61025ae37ef11b136ea224fe,,,,,,,,,3171,27.203125,22.58203125,1,0,0,response1disk,,6,9.5078125,-9.21484375,1,0,0,rectangle,9.5078125,-9.21484375,1,0,0,9.5078125,-9.21484375,1,0,0,0,65,65,81,1,,,,,,,,
,,,,,,,,,,,,,FF,,,,,,,,0.4337,,,,,,,,,,,,,,,,,,,,,,60fdcf5f7303ef309710dbf6,61036b9c3c6d86eda699d88d,2021-07-29_21h02.42.340,Simcolourproject_2stim_asymm_v5,2020.2.10,MacIntel,60,61025ae37ef11b136ea224fe,,,,,,,,,302,16.65625,54.61328125,1,0,0,response1disk,,7,12.80859375,15.1328125,1,0,0,rectangle,12.80859375,15.1328125,1,0,0,12.80859375,15.1328125,1,0,0,0,66,66,148,1,,,,,,,,
,,,,,,,,,,,,,FF,,,,,,,,0.4325,,,,,,,,,,,,,,,,,,,,,,60fdcf5f7303ef309710dbf6,61036b9c3c6d86eda699d88d,2021-07-29_21h02.42.340,Simcolourproject_2stim_asymm_v5,2020.2.10,MacIntel,60,61025ae37ef11b136ea224fe,,,,,,,,,1080,30.05078125,55.39453125,1,0,0,response1disk,,7,19.4609375,7.6953125,1,0,0,rectangle,19.4609375,7.6953125,1,0,0,19.4609375,7.6953125,1,0,0,0,67,67,2,1,,,,,,,,
,,,,,,,,,,,,,FF,,,,,,,,0.5177,,,,,,,,,,,,,,,,,,,,,,60fdcf5f7303ef309710dbf6,61036b9c3c6d86eda699d88d,2021-07-29_21h02.42.340,Simcolourproject_2stim_asymm_v5,2020.2.10,MacIntel,60,61025ae37ef11b136ea224fe,,,,,,,,,205,25.80078125,44.328125,1,0,0,response1disk,,7,-0.49609375,0.58984375,1,0,0,rectangle,-0.49609375,0.58984375,1,0,0,-0.49609375,0.58984375,1,0,0,0,68,68,87,1,,,,,,,,
,,,,,,,,,,,,,FF,,,,,,,,0.6002,,,,,,,,,,,,,,,,,,,,,,60fdcf5f7303ef309710dbf6,61036b9c3c6d86eda699d88d,2021-07-29_21h02.42.340,Simcolourproject_2stim_asymm_v5,2020.2.10,MacIntel,60,61025ae37ef11b136ea224fe,,,,,,,,,1447,-23.69140625,-32.640625,1,0,0,response5disk,,3,-0.69140625,6.7421875,1,0,0,rectangle,-0.69140625,6.7421875,1,0,0,-0.69140625,6.7421875,1,0,0,0,69,69,3,1,,,,,,,,
,,,,,,,,,,,,,FF,,,,,,,,0.7333,,,,,,,,,,,,,,,,,,,,,,60fdcf5f7303ef309710dbf6,61036b9c3c6d86eda699d88d,2021-07-29_21h02.42.340,Simcolourproject_2stim_asymm_v5,2020.2.10,MacIntel,60,61025ae37ef11b136ea224fe,,,,,,,,,1168,-63.6328125,-27.2265625,1,0,0,response5disk,,2,0.34765625,-2.8203125,1,0,0,rectangle,-47.578125,27.21875,1,0,0,7.55078125,4.0078125,1,0,0,0,70,70,111,1,,response7disk_3,TRUE,1,6,"[182,36,304,71,270,89,181,280,64,312,298,293,137,13,293,280,19,94,157,196]",0.6336,rectangle
,,,,,,,,,,,,,FF,,,,,,,,7.9046,,,,,,,,,,,,,,,,,,,,,,60fdcf5f7303ef309710dbf6,61036b9c3c6d86eda699d88d,2021-07-29_21h02.42.340,Simcolourproject_2stim_asymm_v5,2020.2.10,MacIntel,60,61025ae37ef11b136ea224fe,,,,,,,,,3411,-58.765625,-33.078125,1,0,0,response5disk,,2,-1.09375,-6.1796875,1,0,0,rectangle,-1.09375,-6.1796875,1,0,0,-1.09375,-6.1796875,1,0,0,0,71,71,22,1,,,,,,,,
,,,,,,,,,,,,,FF,,,,,,,,1.5685,,,,,,,,,,,,,,,,,,,,,,60fdcf5f7303ef309710dbf6,61036b9c3c6d86eda699d88d,2021-07-29_21h02.42.340,Simcolourproject_2stim_asymm_v5,2020.2.10,MacIntel,60,61025ae37ef11b136ea224fe,,,,,,,,,3249,-69.07421875,-52.1484375,1,0,0,response5disk,,2,-4.52734375,15.28515625,1,0,0,rectangle,-4.52734375,15.28515625,1,0,0,-4.52734375,15.28515625,1,0,0,0,72,72,137,1,,,,,,,,
,,,,,,,,,,,,,FF,,,,,,,,0.5335,,,,,,,,,,,,,,,,,,,,,,60fdcf5f7303ef309710dbf6,61036b9c3c6d86eda699d88d,2021-07-29_21h02.42.340,Simcolourproject_2stim_asymm_v5,2020.2.10,MacIntel,60,61025ae37ef11b136ea224fe,,,,,,,,,2175,-27.6171875,-59.109375,1,0,0,response5disk,,3,2.39453125,6.95703125,1,0,0,rectangle,2.39453125,6.95703125,1,0,0,2.39453125,6.95703125,1,0,0,0,73,73,99,1,,,,,,,,
,,,,,,,,,,,,,FF,,,,,,,,0.7344,,,,,,,,,,,,,,,,,,,,,,60fdcf5f7303ef309710dbf6,61036b9c3c6d86eda699d88d,2021-07-29_21h02.42.340,Simcolourproject_2stim_asymm_v5,2020.2.10,MacIntel,60,61025ae37ef11b136ea224fe,,,,,,,,,9,-69.26171875,30.734375,1,0,0,response7disk,,1,-7.4765625,-1.10546875,1,0,0,rectangle,-7.4765625,-1.10546875,1,0,0,-7.4765625,-1.10546875,1,0,0,0,74,74,34,1,,,,,,,,
,,,,,,,,,,,,,FF,,,,,,,,0.5992,,,,,,,,,,,,,,,,,,,,,,60fdcf5f7303ef309710dbf6,61036b9c3c6d86eda699d88d,2021-07-29_21h02.42.340,Simcolourproject_2stim_asymm_v5,2020.2.10,MacIntel,60,61025ae37ef11b136ea224fe,,,,,,,,,2945,-46.30078125,-38.1796875,1,0,0,response5disk,,2,-4.984375,-1.39453125,1,0,0,rectangle,-4.984375,-1.39453125,1,0,0,-4.984375,-1.39453125,1,0,0,0,75,75,17,1,,,,,,,,
,,,,,,,,,,,,,FF,,,,,,,,0.9342,,,,,,,,,,,,,,,,,,,,,,60fdcf5f7303ef309710dbf6,61036b9c3c6d86eda699d88d,2021-07-29_21h02.42.340,Simcolourproject_2stim_asymm_v5,2020.2.10,MacIntel,60,61025ae37ef11b136ea224fe,,,,,,,,,4095,-32.37890625,57.140625,1,0,0,response7disk,,0,-3.24609375,-1.98046875,1,0,0,rectangle,-3.24609375,-1.98046875,1,0,0,-3.24609375,-1.98046875,1,0,0,0,76,76,118,1,,,,,,,,
,,,,,,,,,,,,,FF,,,,,,,,0.835,,,,,,,,,,,,,,,,,,,,,,60fdcf5f7303ef309710dbf6,61036b9c3c6d86eda699d88d,2021-07-29_21h02.42.340,Simcolourproject_2stim_asymm_v5,2020.2.10,MacIntel,60,61025ae37ef11b136ea224fe,,,,,,,,,3085,70.20703125,77.265625,1,0,0,response1disk,,7,0.27734375,-8.109375,1,0,0,rectangle,0.27734375,-8.109375,1,0,0,0.27734375,-8.109375,1,0,0,0,77,77,88,1,,,,,,,,
,,,,,,,,,,,,,FF,,,,,,,,0.9502,,,,,,,,,,,,,,,,,,,,,,60fdcf5f7303ef309710dbf6,61036b9c3c6d86eda699d88d,2021-07-29_21h02.42.340,Simcolourproject_2stim_asymm_v5,2020.2.10,MacIntel,60,61025ae37ef11b136ea224fe,,,,,,,,,3204,-79.96875,-32.96875,1,0,0,response5disk,,2,-16.1484375,-3.515625,1,0,0,rectangle,-16.1484375,-3.515625,1,0,0,-16.1484375,-3.515625,1,0,0,0,78,78,48,1,,,,,,,,
,,,,,,,,,,,,,FF,,,,,,,,0.5495,,,,,,,,,,,,,,,,,,,,,,60fdcf5f7303ef309710dbf6,61036b9c3c6d86eda699d88d,2021-07-29_21h02.42.340,Simcolourproject_2stim_asymm_v5,2020.2.10,MacIntel,60,61025ae37ef11b136ea224fe,,,,,,,,,1383,-58.546875,36.97265625,1,0,0,response7disk,,1,-22.52734375,3.9375,1,0,0,rectangle,-22.52734375,3.9375,1,0,0,-22.52734375,3.9375,1,0,0,0,79,79,33,1,,,,,,,,
,,,,,,,,,,,,,FF,,,,,,,,0.5225,,,,,,,,,,,,,,,,,,,,,,60fdcf5f7303ef309710dbf6,61036b9c3c6d86eda699d88d,2021-07-29_21h02.42.340,Simcolourproject_2stim_asymm_v5,2020.2.10,MacIntel,60,61025ae37ef11b136ea224fe,,,,,,,,,1961,-55.4609375,20.97265625,1,0,0,response7disk,,1,-26.9765625,11.25,1,0,0,rectangle,-26.9765625,11.25,1,0,0,-26.9765625,11.25,1,0,0,0,80,80,125,1,,,,,,,,
,,,,,,,,,,,,,FF,,,,,,,,0.6168,,,,,,,,,,,,,,,,,,,,,,60fdcf5f7303ef309710dbf6,61036b9c3c6d86eda699d88d,2021-07-29_21h02.42.340,Simcolourproject_2stim_asymm_v5,2020.2.10,MacIntel,60,61025ae37ef11b136ea224fe,,,,,,,,,3432,-55.6640625,-31.5078125,1,0,0,response5disk,,2,0.36328125,-2.2265625,1,0,0,rectangle,0.36328125,-2.2265625,1,0,0,0.36328125,-2.2265625,1,0,0,0,81,81,123,1,,,,,,,,
,,,,,,,,,,,,,FF,,,,,,,,0.6662,,,,,,,,,,,,,,,,,,,,,,60fdcf5f7303ef309710dbf6,61036b9c3c6d86eda699d88d,2021-07-29_21h02.42.340,Simcolourproject_2stim_asymm_v5,2020.2.10,MacIntel,60,61025ae37ef11b136ea224fe,,,,,,,,,3744,-56.8125,20.8046875,1,0,0,response7disk,,1,-18.3203125,8.48828125,1,0,0,rectangle,-18.3203125,8.48828125,1,0,0,-18.3203125,8.48828125,1,0,0,0,82,82,38,1,,,,,,,,
,,,,,,,,,,,,,FF,,,,,,,,1.0176,,,,,,,,,,,,,,,,,,,,,,60fdcf5f7303ef309710dbf6,61036b9c3c6d86eda699d88d,2021-07-29_21h02.42.340,Simcolourproject_2stim_asymm_v5,2020.2.10,MacIntel,60,61025ae37ef11b136ea224fe,,,,,,,,,494,70.1796875,24.1015625,1,0,0,response1disk,,6,-5.6171875,-0.69921875,1,0,0,rectangle,-5.6171875,-0.69921875,1,0,0,-5.6171875,-0.69921875,1,0,0,0,83,83,96,1,,,,,,,,
,,,,,,,,,,,,,FF,,,,,,,,1.0487,,,,,,,,,,,,,,,,,,,,,,60fdcf5f7303ef309710dbf6,61036b9c3c6d86eda699d88d,2021-07-29_21h02.42.340,Simcolourproject_2stim_asymm_v5,2020.2.10,MacIntel,60,61025ae37ef11b136ea224fe,,,,,,,,,3625,-61.81640625,-36.55859375,1,0,0,response5disk,,2,-5.56640625,-9.23046875,1,0,0,rectangle,-5.56640625,-9.23046875,1,0,0,-5.56640625,-9.23046875,1,0,0,0,84,84,153,1,,,,,,,,
,,,,,,,,,,,,,FF,,,,,,,,1.0849,,,,,,,,,,,,,,,,,,,,,,60fdcf5f7303ef309710dbf6,61036b9c3c6d86eda699d88d,2021-07-29_21h02.42.340,Simcolourproject_2stim_asymm_v5,2020.2.10,MacIntel,60,61025ae37ef11b136ea224fe,,,,,,,,,3068,-18.8828125,-60.20703125,1,0,0,response5disk,,3,2.77734375,6.26171875,1,0,0,rectangle,2.77734375,6.26171875,1,0,0,2.77734375,6.26171875,1,0,0,0,85,85,46,1,,,,,,,,
,,,,,,,,,,,,,FF,,,,,,,,1.0673,,,,,,,,,,,,,,,,,,,,,,60fdcf5f7303ef309710dbf6,61036b9c3c6d86eda699d88d,2021-07-29_21h02.42.340,Simcolourproject_2stim_asymm_v5,2020.2.10,MacIntel,60,61025ae37ef11b136ea224fe,,,,,,,,,552,49.73828125,81.9140625,1,0,0,response1disk,,7,13.33984375,5.3203125,1,0,0,rectangle,13.33984375,5.3203125,1,0,0,13.33984375,5.3203125,1,0,0,0,86,86,143,1,,,,,,,,
,,,,,,,,,,,,,FF,,,,,,,,0.4859,,,,,,,,,,,,,,,,,,,,,,60fdcf5f7303ef309710dbf6,61036b9c3c6d86eda699d88d,2021-07-29_21h02.42.340,Simcolourproject_2stim_asymm_v5,2020.2.10,MacIntel,60,61025ae37ef11b136ea224fe,,,,,,,,,4172,36.55859375,58.25,1,0,0,response1disk,,7,8.74609375,-7.3984375,1,0,0,rectangle,8.74609375,-7.3984375,1,0,0,8.74609375,-7.3984375,1,0,0,0,87,87,16,1,,,,,,,,
,,,,,,,,,,,,,FF,,,,,,,,0.6025,,,,,,,,,,,,,,,,,,,,,,60fdcf5f7303ef309710dbf6,61036b9c3c6d86eda699d88d,2021-07-29_21h02.42.340,Simcolourproject_2stim_asymm_v5,2020.2.10,MacIntel,60,61025ae37ef11b136ea224fe,,,,,,,,,3247,35.26171875,32.94921875,1,0,0,response1disk,,6,-2.4296875,-1.8671875,1,0,0,rectangle,46.1796875,47.140625,1,0,0,10.6328125,-1.22265625,1,0,0,0,88,88,36,1,,response1disk_3,TRUE,7,6,"[182,36,304,71,270,89,181,280,64,312,298,293,137,13,293,280,19,94,157,196]",0.4826,rectangle
,,,,,,,,,,,,,FF,,,,,,,,1.2172,,,,,,,,,,,,,,,,,,,,,,60fdcf5f7303ef309710dbf6,61036b9c3c6d86eda699d88d,2021-07-29_21h02.42.340,Simcolourproject_2stim_asymm_v5,2020.2.10,MacIntel,60,61025ae37ef11b136ea224fe,,,,,,,,,3732,55.015625,-31.58984375,1,0,0,response3disk,,5,-14.08203125,-5.71875,1,0,0,rectangle,-14.08203125,-5.71875,1,0,0,-14.08203125,-5.71875,1,0,0,0,89,89,156,1,,,,,,,,
,,,,,,,,,,,,,FF,,,,,,,,0.4759,,,,,,,,,,,,,,,,,,,,,,60fdcf5f7303ef309710dbf6,61036b9c3c6d86eda699d88d,2021-07-29_21h02.42.340,Simcolourproject_2stim_asymm_v5,2020.2.10,MacIntel,60,61025ae37ef11b136ea224fe,,,,,,,,,3789,34.63671875,-55.296875,1,0,0,response3disk,,4,1.16015625,7.0859375,1,0,0,rectangle,1.16015625,7.0859375,1,0,0,1.16015625,7.0859375,1,0,0,0,90,90,130,1,,,,,,,,
,,,,,,,,,,,,,FF,,,,,,,,0.5335,,,,,,,,,,,,,,,,,,,,,,60fdcf5f7303ef309710dbf6,61036b9c3c6d86eda699d88d,2021-07-29_21h02.42.340,Simcolourproject_2stim_asymm_v5,2020.2.10,MacIntel,60,61025ae37ef11b136ea224fe,,,,,,,,,2207,-49.90234375,-43.296875,1,0,0,response5disk,,2,7.515625,2.453125,1,0,0,rectangle,7.515625,2.453125,1,0,0,7.515625,2.453125,1,0,0,0,91,91,109,1,,,,,,,,
,,,,,,,,,,,,,FF,,,,,,,,0.4178,,,,,,,,,,,,,,,,,,,,,,60fdcf5f7303ef309710dbf6,61036b9c3c6d86eda699d88d,2021-07-29_21h02.42.340,Simcolourproject_2stim_asymm_v5,2020.2.10,MacIntel,60,61025ae37ef11b136ea224fe,,,,,,,,,650,-13.78125,-53.28515625,1,0,0,response5disk,,3,6.1875,8.5703125,1,0,0,rectangle,6.1875,8.5703125,1,0,0,6.1875,8.5703125,1,0,0,0,92,92,13,1,,,,,,,,
,,,,,,,,,,,,,FF,,,,,,,,0.4335,,,,,,,,,,,,,,,,,,,,,,60fdcf5f7303ef309710dbf6,61036b9c3c6d86eda699d88d,2021-07-29_21h02.42.340,Simcolourproject_2stim_asymm_v5,2020.2.10,MacIntel,60,61025ae37ef11b136ea224fe,,,,,,,,,1840,-48.62890625,-23.39453125,1,0,0,response5disk,,2,8.53515625,-9.37109375,1,0,0,rectangle,-47.0234375,-48.68359375,1,0,0,-23.73046875,-15.41015625,1,0,0,0,93,93,64,1,,response5disk_3,TRUE,3,2,"[182,36,304,71,270,89,181,280,64,312,298,293,137,13,293,280,19,94,157,196]",0.4494,rectangle
,,,,,,,,,,,,,FF,,,,,,,,0.5675,,,,,,,,,,,,,,,,,,,,,,60fdcf5f7303ef309710dbf6,61036b9c3c6d86eda699d88d,2021-07-29_21h02.42.340,Simcolourproject_2stim_asymm_v5,2020.2.10,MacIntel,60,61025ae37ef11b136ea224fe,,,,,,,,,718,-24.94140625,-57.06640625,1,0,0,response5disk,,3,-2.9296875,-11.5859375,1,0,0,rectangle,-2.9296875,-11.5859375,1,0,0,-2.9296875,-11.5859375,1,0,0,0,94,94,95,1,,,,,,,,
,,,,,,,,,,,,,FF,,,,,,,,0.7018,,,,,,,,,,,,,,,,,,,,,,60fdcf5f7303ef309710dbf6,61036b9c3c6d86eda699d88d,2021-07-29_21h02.42.340,Simcolourproject_2stim_asymm_v5,2020.2.10,MacIntel,60,61025ae37ef11b136ea224fe,,,,,,,,,3205,-37.11328125,19.8203125,1,0,0,response7disk,,1,-3.8984375,-0.29296875,1,0,0,rectangle,-3.8984375,-0.29296875,1,0,0,-3.8984375,-0.29296875,1,0,0,0,95,95,84,1,,,,,,,,
,,,,,,,,,,,,,FF,,,,,,,,0.4344,,,,,,,,,,,,,,,,,,,,,,60fdcf5f7303ef309710dbf6,61036b9c3c6d86eda699d88d,2021-07-29_21h02.42.340,Simcolourproject_2stim_asymm_v5,2020.2.10,MacIntel,60,61025ae37ef11b136ea224fe,,,,,,,,,1800,-17.77734375,-41.90625,1,0,0,response5disk,,3,-1.91796875,-10.4921875,1,0,0,rectangle,-1.91796875,-10.4921875,1,0,0,-1.91796875,-10.4921875,1,0,0,0,96,96,20,1,,,,,,,,
,,,,,,,,,,,,,FF,,,,,,,,0.3481,,,,,,,,,,,,,,,,,,,,,,60fdcf5f7303ef309710dbf6,61036b9c3c6d86eda699d88d,2021-07-29_21h02.42.340,Simcolourproject_2stim_asymm_v5,2020.2.10,MacIntel,60,61025ae37ef11b136ea224fe,,,,,,,,,3453,-38.3671875,-45.1171875,1,0,0,response5disk,,3,2.89453125,-4.8125,1,0,0,rectangle,2.89453125,-4.8125,1,0,0,2.89453125,-4.8125,1,0,0,0,97,97,12,1,,,,,,,,
,,,,,,,,,,,,,FF,,,,,,,,0.4003,,,,,,,,,,,,,,,,,,,,,,60fdcf5f7303ef309710dbf6,61036b9c3c6d86eda699d88d,2021-07-29_21h02.42.340,Simcolourproject_2stim_asymm_v5,2020.2.10,MacIntel,60,61025ae37ef11b136ea224fe,,,,,,,,,1965,-27.56640625,-35.87890625,1,0,0,response5disk,,3,13.0625,0.453125,1,0,0,rectangle,13.0625,0.453125,1,0,0,13.0625,0.453125,1,0,0,0,98,98,5,1,,,,,,,,
,,,,,,,,,,,,,FF,,,,,,,,0.3675,,,,,,,,,,,,,,,,,,,,,,60fdcf5f7303ef309710dbf6,61036b9c3c6d86eda699d88d,2021-07-29_21h02.42.340,Simcolourproject_2stim_asymm_v5,2020.2.10,MacIntel,60,61025ae37ef11b136ea224fe,,,,,,,,,49,-57.3984375,-27.6875,1,0,0,response5disk,,2,1.3125,-7.51953125,1,0,0,rectangle,1.3125,-7.51953125,1,0,0,1.3125,-7.51953125,1,0,0,0,99,99,100,1,,,,,,,,
,,,,,,,,,,,,,FF,,,,,,,,0.6502,,,,,,,,,,,,,,,,,,,,,,60fdcf5f7303ef309710dbf6,61036b9c3c6d86eda699d88d,2021-07-29_21h02.42.340,Simcolourproject_2stim_asymm_v5,2020.2.10,MacIntel,60,61025ae37ef11b136ea224fe,,,,,,,,,2856,57.609375,-49.91796875,1,0,0,response3disk,,5,0.36328125,-12.04296875,1,0,0,rectangle,0.36328125,-12.04296875,1,0,0,0.36328125,-12.04296875,1,0,0,0,100,100,131,1,,,,,,,,
,,,,,,,,,,,,,FF,,,,,,,,0.5502,,,,,,,,,,,,,,,,,,,,,,60fdcf5f7303ef309710dbf6,61036b9c3c6d86eda699d88d,2021-07-29_21h02.42.340,Simcolourproject_2stim_asymm_v5,2020.2.10,MacIntel,60,61025ae37ef11b136ea224fe,,,,,,,,,1627,19.4921875,-37.41796875,1,0,0,response3disk,,4,-0.51171875,-5.953125,1,0,0,rectangle,-0.51171875,-5.953125,1,0,0,-0.51171875,-5.953125,1,0,0,0,101,101,72,1,,,,,,,,
,,,,,,,,,,,,,FF,,,,,,,,0.7027,,,,,,,,,,,,,,,,,,,,,,60fdcf5f7303ef309710dbf6,61036b9c3c6d86eda699d88d,2021-07-29_21h02.42.340,Simcolourproject_2stim_asymm_v5,2020.2.10,MacIntel,60,61025ae37ef11b136ea224fe,,,,,,,,,1041,55.375,-39.078125,1,0,0,response3disk,,5,10.640625,-8.5078125,1,0,0,rectangle,10.640625,-8.5078125,1,0,0,10.640625,-8.5078125,1,0,0,0,102,102,63,1,,,,,,,,
,,,,,,,,,,,,,FF,,,,,,,,0.8673,,,,,,,,,,,,,,,,,,,,,,60fdcf5f7303ef309710dbf6,61036b9c3c6d86eda699d88d,2021-07-29_21h02.42.340,Simcolourproject_2stim_asymm_v5,2020.2.10,MacIntel,60,61025ae37ef11b136ea224fe,,,,,,,,,968,-42.68359375,54.7109375,1,0,0,response7disk,,0,-26.109375,12.91796875,1,0,0,rectangle,-26.109375,12.91796875,1,0,0,-26.109375,12.91796875,1,0,0,0,103,103,54,1,,,,,,,,
,,,,,,,,,,,,,FF,,,,,,,,0.9849,,,,,,,,,,,,,,,,,,,,,,60fdcf5f7303ef309710dbf6,61036b9c3c6d86eda699d88d,2021-07-29_21h02.42.340,Simcolourproject_2stim_asymm_v5,2020.2.10,MacIntel,60,61025ae37ef11b136ea224fe,,,,,,,,,2371,-55.91015625,-64.515625,1,0,0,response5disk,,3,18.0703125,0.6015625,1,0,0,rectangle,18.0703125,0.6015625,1,0,0,18.0703125,0.6015625,1,0,0,0,104,104,83,1,,,,,,,,
,,,,,,,,,,,,,FF,,,,,,,,0.4336,,,,,,,,,,,,,,,,,,,,,,60fdcf5f7303ef309710dbf6,61036b9c3c6d86eda699d88d,2021-07-29_21h02.42.340,Simcolourproject_2stim_asymm_v5,2020.2.10,MacIntel,60,61025ae37ef11b136ea224fe,,,,,,,,,2147,32.7109375,-41.03515625,1,0,0,response3disk,,4,11.96875,15.328125,1,0,0,rectangle,11.96875,15.328125,1,0,0,11.96875,15.328125,1,0,0,0,105,105,89,1,,,,,,,,
,,,,,,,,,,,,,FF,,,,,,,,0.6999,,,,,,,,,,,,,,,,,,,,,,60fdcf5f7303ef309710dbf6,61036b9c3c6d86eda699d88d,2021-07-29_21h02.42.340,Simcolourproject_2stim_asymm_v5,2020.2.10,MacIntel,60,61025ae37ef11b136ea224fe,,,,,,,,,3311,38.61328125,-47.4609375,1,0,0,response3disk,,4,2.7421875,-14.24609375,1,0,0,rectangle,2.7421875,-14.24609375,1,0,0,2.7421875,-14.24609375,1,0,0,0,106,106,41,1,,,,,,,,
,,,,,,,,,,,,,FF,,,,,,,,0.3666,,,,,,,,,,,,,,,,,,,,,,60fdcf5f7303ef309710dbf6,61036b9c3c6d86eda699d88d,2021-07-29_21h02.42.340,Simcolourproject_2stim_asymm_v5,2020.2.10,MacIntel,60,61025ae37ef11b136ea224fe,,,,,,,,,2680,-70.015625,-15.90234375,1,0,0,response5disk,,2,7.09765625,-15.90234375,1,0,0,rectangle,7.09765625,-15.90234375,1,0,0,7.09765625,-15.90234375,1,0,0,0,107,107,66,1,,,,,,,,
,,,,,,,,,,,,,FF,,,,,,,,0.4688,,,,,,,,,,,,,,,,,,,,,,60fdcf5f7303ef309710dbf6,61036b9c3c6d86eda699d88d,2021-07-29_21h02.42.340,Simcolourproject_2stim_asymm_v5,2020.2.10,MacIntel,60,61025ae37ef11b136ea224fe,,,,,,,,,2618,60.1484375,-53.6328125,1,0,0,response3disk,,5,10.296875,-13.47265625,1,0,0,rectangle,10.296875,-13.47265625,1,0,0,10.296875,-13.47265625,1,0,0,0,108,108,120,1,,,,,,,,
,,,,,,,,,,,,,FF,,,,,,,,0.4505,,,,,,,,,,,,,,,,,,,,,,60fdcf5f7303ef309710dbf6,61036b9c3c6d86eda699d88d,2021-07-29_21h02.42.340,Simcolourproject_2stim_asymm_v5,2020.2.10,MacIntel,60,61025ae37ef11b136ea224fe,,,,,,,,,2028,-39.59765625,-45.21875,1,0,0,response5disk,,3,0.62109375,-0.81640625,1,0,0,rectangle,0.62109375,-0.81640625,1,0,0,0.62109375,-0.81640625,1,0,0,0,109,109,74,1,,,,,,,,
,,,,,,,,,,,,,FF,,,,,,,,0.731,,,,,,,,,,,,,,,,,,,,,,60fdcf5f7303ef309710dbf6,61036b9c3c6d86eda699d88d,2021-07-29_21h02.42.340,Simcolourproject_2stim_asymm_v5,2020.2.10,MacIntel,60,61025ae37ef11b136ea224fe,,,,,,,,,3000,-30.84765625,60.01171875,1,0,0,response7disk,,0,-15.3671875,9.46484375,1,0,0,rectangle,-15.3671875,9.46484375,1,0,0,-15.3671875,9.46484375,1,0,0,0,110,110,58,1,,,,,,,,
,,,,,,,,,,,,,FF,,,,,,,,0.8514,,,,,,,,,,,,,,,,,,,,,,60fdcf5f7303ef309710dbf6,61036b9c3c6d86eda699d88d,2021-07-29_21h02.42.340,Simcolourproject_2stim_asymm_v5,2020.2.10,MacIntel,60,61025ae37ef11b136ea224fe,,,,,,,,,2877,50.28125,34.51171875,1,0,0,response1disk,,6,-6.99609375,-2.17578125,1,0,0,rectangle,-6.99609375,-2.17578125,1,0,0,-6.99609375,-2.17578125,1,0,0,0,111,111,110,1,,,,,,,,
,,,,,,,,,,,,,FF,,,,,,,,0.8345,,,,,,,,,,,,,,,,,,,,,,60fdcf5f7303ef309710dbf6,61036b9c3c6d86eda699d88d,2021-07-29_21h02.42.340,Simcolourproject_2stim_asymm_v5,2020.2.10,MacIntel,60,61025ae37ef11b136ea224fe,,,,,,,,,1972,28.2734375,51.5390625,1,0,0,response1disk,,7,15.8046875,11.59375,1,0,0,rectangle,15.8046875,11.59375,1,0,0,15.8046875,11.59375,1,0,0,0,112,112,114,1,,,,,,,,
,,,,,,,,,,,,,FF,,,,,,,,0.469,,,,,,,,,,,,,,,,,,,,,,60fdcf5f7303ef309710dbf6,61036b9c3c6d86eda699d88d,2021-07-29_21h02.42.340,Simcolourproject_2stim_asymm_v5,2020.2.10,MacIntel,60,61025ae37ef11b136ea224fe,,,,,,,,,735,36.9921875,60.16015625,1,0,0,response1disk,,7,22.80859375,4.5078125,1,0,0,rectangle,22.80859375,4.5078125,1,0,0,22.80859375,4.5078125,1,0,0,0,113,113,159,1,,,,,,,,
,,,,,,,,,,,,,FF,,,,,,,,0.403,,,,,,,,,,,,,,,,,,,,,,60fdcf5f7303ef309710dbf6,61036b9c3c6d86eda699d88d,2021-07-29_21h02.42.340,Simcolourproject_2stim_asymm_v5,2020.2.10,MacIntel,60,61025ae37ef11b136ea224fe,,,,,,,,,1450,35.55859375,30.72265625,1,0,0,response1disk,,6,11.203125,0.05859375,1,0,0,rectangle,11.203125,0.05859375,1,0,0,11.203125,0.05859375,1,0,0,0,114,114,141,1,,,,,,,,
,,,,,,,,,,,,,FF,,,,,,,,0.7836,,,,,,,,,,,,,,,,,,,,,,60fdcf5f7303ef309710dbf6,61036b9c3c6d86eda699d88d,2021-07-29_21h02.42.340,Simcolourproject_2stim_asymm_v5,2020.2.10,MacIntel,60,61025ae37ef11b136ea224fe,,,,,,,,,3080,15.3984375,-55.0546875,1,0,0,response3disk,,4,1.25390625,-5.2265625,1,0,0,rectangle,1.25390625,-5.2265625,1,0,0,1.25390625,-5.2265625,1,0,0,0,115,115,51,1,,,,,,,,
,,,,,,,,,,,,,FF,,,,,,,,0.4341,,,,,,,,,,,,,,,,,,,,,,60fdcf5f7303ef309710dbf6,61036b9c3c6d86eda699d88d,2021-07-29_21h02.42.340,Simcolourproject_2stim_asymm_v5,2020.2.10,MacIntel,60,61025ae37ef11b136ea224fe,,,,,,,,,3989,23.84375,-41.32421875,1,0,0,response3disk,,4,2.109375,-3.9375,1,0,0,rectangle,2.109375,-3.9375,1,0,0,2.109375,-3.9375,1,0,0,0,116,116,26,1,,,,,,,,
,,,,,,,,,,,,,FF,,,,,,,,0.6353,,,,,,,,,,,,,,,,,,,,,,60fdcf5f7303ef309710dbf6,61036b9c3c6d86eda699d88d,2021-07-29_21h02.42.340,Simcolourproject_2stim_asymm_v5,2020.2.10,MacIntel,60,61025ae37ef11b136ea224fe,,,,,,,,,2723,32.9609375,-41.24609375,1,0,0,response3disk,,4,17.96875,-2.25390625,1,0,0,rectangle,17.96875,-2.25390625,1,0,0,17.96875,-2.25390625,1,0,0,0,117,117,158,1,,,,,,,,
,,,,,,,,,,,,,FF,,,,,,,,0.6012,,,,,,,,,,,,,,,,,,,,,,60fdcf5f7303ef309710dbf6,61036b9c3c6d86eda699d88d,2021-07-29_21h02.42.340,Simcolourproject_2stim_asymm_v5,2020.2.10,MacIntel,60,61025ae37ef11b136ea224fe,,,,,,,,,275,-36.40625,-48.98046875,1,0,0,response5disk,,3,-3.91796875,-8.0625,1,0,0,rectangle,-3.91796875,-8.0625,1,0,0,-3.91796875,-8.0625,1,0,0,0,118,118,126,1,,,,,,,,
,,,,,,,,,,,,,FF,,,,,,,,0.3657,,,,,,,,,,,,,,,,,,,,,,60fdcf5f7303ef309710dbf6,61036b9c3c6d86eda699d88d,2021-07-29_21h02.42.340,Simcolourproject_2stim_asymm_v5,2020.2.10,MacIntel,60,61025ae37ef11b136ea224fe,,,,,,,,,2297,-48.546875,-41.078125,1,0,0,response5disk,,2,15.55859375,-13.47265625,1,0,0,rectangle,15.55859375,-13.47265625,1,0,0,15.55859375,-13.47265625,1,0,0,0,119,119,71,1,,,,,,,,
,,,,,,,,,,,,,FF,,,,,,,,0.417,,,,,,,,,,,,,,,,,,,,,,60fdcf5f7303ef309710dbf6,61036b9c3c6d86eda699d88d,2021-07-29_21h02.42.340,Simcolourproject_2stim_asymm_v5,2020.2.10,MacIntel,60,61025ae37ef11b136ea224fe,,,,,,,,,1379,-36.2890625,-75.4140625,1,0,0,response5disk,,3,-25.12109375,-7.5703125,1,0,0,rectangle,-25.12109375,-7.5703125,1,0,0,-25.12109375,-7.5703125,1,0,0,0,120,120,121,1,,,,,,,,
,,,,,,,,,,,,,FF,,,,,,,,0.3676,,,,,,,,,,,,,,,,,,,,,,60fdcf5f7303ef309710dbf6,61036b9c3c6d86eda699d88d,2021-07-29_21h02.42.340,Simcolourproject_2stim_asymm_v5,2020.2.10,MacIntel,60,61025ae37ef11b136ea224fe,,,,,,,,,2641,54.109375,-30.55078125,1,0,0,response3disk,,5,4.7421875,-7.5078125,1,0,0,rectangle,4.7421875,-7.5078125,1,0,0,4.7421875,-7.5078125,1,0,0,0,121,121,70,1,,,,,,,,
,,,,,,,,,,,,,FF,,,,,,,,0.5672,,,,,,,,,,,,,,,,,,,,,,60fdcf5f7303ef309710dbf6,61036b9c3c6d86eda699d88d,2021-07-29_21h02.42.340,Simcolourproject_2stim_asymm_v5,2020.2.10,MacIntel,60,61025ae37ef11b136ea224fe,,,,,,,,,3325,-43.171875,-30.609375,1,0,0,response5disk,,2,-11.0703125,-11.94921875,1,0,0,rectangle,-11.0703125,-11.94921875,1,0,0,-11.0703125,-11.94921875,1,0,0,0,122,122,92,1,,,,,,,,
,,,,,,,,,,,,,FF,,,,,,,,0.3822,,,,,,,,,,,,,,,,,,,,,,60fdcf5f7303ef309710dbf6,61036b9c3c6d86eda699d88d,2021-07-29_21h02.42.340,Simcolourproject_2stim_asymm_v5,2020.2.10,MacIntel,60,61025ae37ef11b136ea224fe,,,,,,,,,3494,24.72265625,-59.52734375,1,0,0,response3disk,,4,10.46484375,-12.203125,1,0,0,rectangle,10.46484375,-12.203125,1,0,0,10.46484375,-12.203125,1,0,0,0,123,123,134,1,,,,,,,,
,,,,,,,,,,,,,FF,,,,,,,,0.3749,,,,,,,,,,,,,,,,,,,,,,60fdcf5f7303ef309710dbf6,61036b9c3c6d86eda699d88d,2021-07-29_21h02.42.340,Simcolourproject_2stim_asymm_v5,2020.2.10,MacIntel,60,61025ae37ef11b136ea224fe,,,,,,,,,1554,29.56640625,-43.23828125,1,0,0,response3disk,,4,14.82421875,1.7734375,1,0,0,rectangle,14.82421875,1.7734375,1,0,0,14.82421875,1.7734375,1,0,0,0,124,124,19,1,,,,,,,,
,,,,,,,,,,,,,FF,,,,,,,,0.6515,,,,,,,,,,,,,,,,,,,,,,60fdcf5f7303ef309710dbf6,61036b9c3c6d86eda699d88d,2021-07-29_21h02.42.340,Simcolourproject_2stim_asymm_v5,2020.2.10,MacIntel,60,61025ae37ef11b136ea224fe,,,,,,,,,2982,49.45703125,54.09765625,1,0,0,response1disk,,7,-0.36328125,-8.09765625,1,0,0,rectangle,-0.36328125,-8.09765625,1,0,0,-0.36328125,-8.09765625,1,0,0,0,125,125,32,1,,,,,,,,
,,,,,,,,,,,,,FF,,,,,,,,0.8005,,,,,,,,,,,,,,,,,,,,,,60fdcf5f7303ef309710dbf6,61036b9c3c6d86eda699d88d,2021-07-29_21h02.42.340,Simcolourproject_2stim_asymm_v5,2020.2.10,MacIntel,60,61025ae37ef11b136ea224fe,,,,,,,,,4361,-41.54296875,58.52734375,1,0,0,response7disk,,0,-21.69140625,-0.87890625,1,0,0,rectangle,-21.69140625,-0.87890625,1,0,0,-21.69140625,-0.87890625,1,0,0,0,126,126,52,1,,,,,,,,
,,,,,,,,,,,,,FF,,,,,,,,0.4323,,,,,,,,,,,,,,,,,,,,,,60fdcf5f7303ef309710dbf6,61036b9c3c6d86eda699d88d,2021-07-29_21h02.42.340,Simcolourproject_2stim_asymm_v5,2020.2.10,MacIntel,60,61025ae37ef11b136ea224fe,,,,,,,,,3448,24.52734375,45.33984375,1,0,0,response1disk,,7,15.91796875,2.79296875,1,0,0,rectangle,15.91796875,2.79296875,1,0,0,15.91796875,2.79296875,1,0,0,0,127,127,80,1,,,,,,,,
,,,,,,,,,,,,,FF,,,,,,,,0.45,,,,,,,,,,,,,,,,,,,,,,60fdcf5f7303ef309710dbf6,61036b9c3c6d86eda699d88d,2021-07-29_21h02.42.340,Simcolourproject_2stim_asymm_v5,2020.2.10,MacIntel,60,61025ae37ef11b136ea224fe,,,,,,,,,4123,41.30078125,32.4296875,1,0,0,response1disk,,6,24.28125,-2.875,1,0,0,rectangle,24.28125,-2.875,1,0,0,24.28125,-2.875,1,0,0,0,128,128,78,1,,,,,,,,
,,,,,,,,,,,,,FF,,,,,,,,1.1666,,,,,,,,,,,,,,,,,,,,,,60fdcf5f7303ef309710dbf6,61036b9c3c6d86eda699d88d,2021-07-29_21h02.42.340,Simcolourproject_2stim_asymm_v5,2020.2.10,MacIntel,60,61025ae37ef11b136ea224fe,,,,,,,,,1137,45.77734375,-65.34375,1,0,0,response3disk,,4,1.98046875,0.20703125,1,0,0,rectangle,1.98046875,0.20703125,1,0,0,1.98046875,0.20703125,1,0,0,0,129,129,68,1,,,,,,,,
,,,,,,,,,,,,,FF,,,,,,,,0.6495,,,,,,,,,,,,,,,,,,,,,,60fdcf5f7303ef309710dbf6,61036b9c3c6d86eda699d88d,2021-07-29_21h02.42.340,Simcolourproject_2stim_asymm_v5,2020.2.10,MacIntel,60,61025ae37ef11b136ea224fe,,,,,,,,,1497,14.55078125,-32.19921875,1,0,0,response3disk,,4,2.86328125,-2.265625,1,0,0,rectangle,2.86328125,-2.265625,1,0,0,2.86328125,-2.265625,1,0,0,0,130,130,138,1,,,,,,,,
,,,,,,,,,,,,,FF,,,,,,,,0.45,,,,,,,,,,,,,,,,,,,,,,60fdcf5f7303ef309710dbf6,61036b9c3c6d86eda699d88d,2021-07-29_21h02.42.340,Simcolourproject_2stim_asymm_v5,2020.2.10,MacIntel,60,61025ae37ef11b136ea224fe,,,,,,,,,661,15.32421875,-32.7109375,1,0,0,response3disk,,4,6.953125,0.5390625,1,0,0,rectangle,6.953125,0.5390625,1,0,0,6.953125,0.5390625,1,0,0,0,131,131,113,1,,,,,,,,
,,,,,,,,,,,,,FF,,,,,,,,0.4495,,,,,,,,,,,,,,,,,,,,,,60fdcf5f7303ef309710dbf6,61036b9c3c6d86eda699d88d,2021-07-29_21h02.42.340,Simcolourproject_2stim_asymm_v5,2020.2.10,MacIntel,60,61025ae37ef11b136ea224fe,,,,,,,,,2675,32.65625,-36.140625,1,0,0,response3disk,,4,20.6171875,-12.01953125,1,0,0,rectangle,20.6171875,-12.01953125,1,0,0,20.6171875,-12.01953125,1,0,0,0,132,132,4,1,,,,,,,,
,,,,,,,,,,,,,FF,,,,,,,,0.518,,,,,,,,,,,,,,,,,,,,,,60fdcf5f7303ef309710dbf6,61036b9c3c6d86eda699d88d,2021-07-29_21h02.42.340,Simcolourproject_2stim_asymm_v5,2020.2.10,MacIntel,60,61025ae37ef11b136ea224fe,,,,,,,,,2832,17.33984375,-68.0546875,1,0,0,response3disk,,4,6.73046875,-2.828125,1,0,0,rectangle,6.73046875,-2.828125,1,0,0,6.73046875,-2.828125,1,0,0,0,133,133,28,1,,,,,,,,
,,,,,,,,,,,,,FF,,,,,,,,0.8003,,,,,,,,,,,,,,,,,,,,,,60fdcf5f7303ef309710dbf6,61036b9c3c6d86eda699d88d,2021-07-29_21h02.42.340,Simcolourproject_2stim_asymm_v5,2020.2.10,MacIntel,60,61025ae37ef11b136ea224fe,,,,,,,,,3148,-82.4375,-23.484375,1,0,0,response5disk,,2,-9.6796875,-12.07421875,1,0,0,rectangle,-9.6796875,-12.07421875,1,0,0,-9.6796875,-12.07421875,1,0,0,0,134,134,127,1,,,,,,,,
,,,,,,,,,,,,,FF,,,,,,,,0.7171,,,,,,,,,,,,,,,,,,,,,,60fdcf5f7303ef309710dbf6,61036b9c3c6d86eda699d88d,2021-07-29_21h02.42.340,Simcolourproject_2stim_asymm_v5,2020.2.10,MacIntel,60,61025ae37ef11b136ea224fe,,,,,,,,,1472,-53.9375,-30.125,1,0,0,response5disk,,2,-7.2734375,-4.46484375,1,0,0,rectangle,-7.2734375,-4.46484375,1,0,0,-7.2734375,-4.46484375,1,0,0,0,135,135,55,1,,,,,,,,
,,,,,,,,,,,,,FF,,,,,,,,3.9512,,,,,,,,,,,,,,,,,,,,,,60fdcf5f7303ef309710dbf6,61036b9c3c6d86eda699d88d,2021-07-29_21h02.42.340,Simcolourproject_2stim_asymm_v5,2020.2.10,MacIntel,60,61025ae37ef11b136ea224fe,,,,,,,,,806,-70.890625,-23.19921875,1,0,0,response5disk,,2,-13.02734375,-10.54296875,1,0,0,rectangle,56.16015625,26.328125,1,0,0,-9.6796875,5.88671875,1,0,0,0,136,136,73,1,,response1disk_3,TRUE,6,6,"[182,36,304,71,270,89,181,280,64,312,298,293,137,13,293,280,19,94,157,196]",2.2571,rectangle
,,,,,,,,,,,,,FF,,,,,,,,0.5654,,,,,,,,,,,,,,,,,,,,,,60fdcf5f7303ef309710dbf6,61036b9c3c6d86eda699d88d,2021-07-29_21h02.42.340,Simcolourproject_2stim_asymm_v5,2020.2.10,MacIntel,60,61025ae37ef11b136ea224fe,,,,,,,,,3237,-36.46484375,-30.03125,1,0,0,response5disk,,2,-16.8828125,-12.1171875,1,0,0,rectangle,-16.8828125,-12.1171875,1,0,0,-16.8828125,-12.1171875,1,0,0,0,137,137,132,1,,,,,,,,
,,,,,,,,,,,,,FF,,,,,,,,0.0999,,,,,,,,,,,,,,,,,,,,,,60fdcf5f7303ef309710dbf6,61036b9c3c6d86eda699d88d,2021-07-29_21h02.42.340,Simcolourproject_2stim_asymm_v5,2020.2.10,MacIntel,60,61025ae37ef11b136ea224fe,,,,,,,,,3687,-73.66015625,-42.76953125,1,0,0,response5disk,,2,-9.796875,4.578125,1,0,0,rectangle,-9.796875,4.578125,1,0,0,-9.796875,4.578125,1,0,0,0,138,138,135,1,,,,,,,,
,,,,,,,,,,,,,FF,,,,,,,,0.0829,,,,,,,,,,,,,,,,,,,,,,60fdcf5f7303ef309710dbf6,61036b9c3c6d86eda699d88d,2021-07-29_21h02.42.340,Simcolourproject_2stim_asymm_v5,2020.2.10,MacIntel,60,61025ae37ef11b136ea224fe,,,,,,,,,3647,-15.12109375,-54.4296875,1,0,0,response5disk,,3,0.44921875,3.40625,1,0,0,rectangle,0.44921875,3.40625,1,0,0,0.44921875,3.40625,1,0,0,0,139,139,82,1,,,,,,,,
,,,,,,,,,,,,,FF,,,,,,,,0.2827,,,,,,,,,,,,,,,,,,,,,,60fdcf5f7303ef309710dbf6,61036b9c3c6d86eda699d88d,2021-07-29_21h02.42.340,Simcolourproject_2stim_asymm_v5,2020.2.10,MacIntel,60,61025ae37ef11b136ea224fe,,,,,,,,,3539,59.6171875,-33.13671875,1,0,0,response3disk,,5,-10.43359375,-11.30078125,1,0,0,rectangle,-10.43359375,-11.30078125,1,0,0,-10.43359375,-11.30078125,1,0,0,0,140,140,31,1,,,,,,,,
,,,,,,,,,,,,,FF,,,,,,,,0.317,,,,,,,,,,,,,,,,,,,,,,60fdcf5f7303ef309710dbf6,61036b9c3c6d86eda699d88d,2021-07-29_21h02.42.340,Simcolourproject_2stim_asymm_v5,2020.2.10,MacIntel,60,61025ae37ef11b136ea224fe,,,,,,,,,2219,51.9609375,-60.1953125,1,0,0,response3disk,,4,7.8671875,6.59765625,1,0,0,rectangle,7.8671875,6.59765625,1,0,0,7.8671875,6.59765625,1,0,0,0,141,141,62,1,,,,,,,,
,,,,,,,,,,,,,FF,,,,,,,,0.3503,,,,,,,,,,,,,,,,,,,,,,60fdcf5f7303ef309710dbf6,61036b9c3c6d86eda699d88d,2021-07-29_21h02.42.340,Simcolourproject_2stim_asymm_v5,2020.2.10,MacIntel,60,61025ae37ef11b136ea224fe,,,,,,,,,1807,-23.98046875,-36.12890625,1,0,0,response5disk,,3,-7.98046875,11.8671875,1,0,0,rectangle,-7.98046875,11.8671875,1,0,0,-7.98046875,11.8671875,1,0,0,0,142,142,21,1,,,,,,,,
,,,,,,,,,,,,,FF,,,,,,,,0.3674,,,,,,,,,,,,,,,,,,,,,,60fdcf5f7303ef309710dbf6,61036b9c3c6d86eda699d88d,2021-07-29_21h02.42.340,Simcolourproject_2stim_asymm_v5,2020.2.10,MacIntel,60,61025ae37ef11b136ea224fe,,,,,,,,,2495,24.48046875,32.16796875,1,0,0,response1disk,,7,14.23828125,-14.96875,1,0,0,rectangle,14.23828125,-14.96875,1,0,0,14.23828125,-14.96875,1,0,0,0,143,143,150,1,,,,,,,,
,,,,,,,,,,,,,FF,,,,,,,,0.3509,,,,,,,,,,,,,,,,,,,,,,60fdcf5f7303ef309710dbf6,61036b9c3c6d86eda699d88d,2021-07-29_21h02.42.340,Simcolourproject_2stim_asymm_v5,2020.2.10,MacIntel,60,61025ae37ef11b136ea224fe,,,,,,,,,667,42.60546875,37.0546875,1,0,0,response1disk,,6,16.75390625,-0.37890625,1,0,0,rectangle,16.75390625,-0.37890625,1,0,0,16.75390625,-0.37890625,1,0,0,0,144,144,128,1,,,,,,,,
,,,,,,,,,,,,,FF,,,,,,,,0.4877,,,,,,,,,,,,,,,,,,,,,,60fdcf5f7303ef309710dbf6,61036b9c3c6d86eda699d88d,2021-07-29_21h02.42.340,Simcolourproject_2stim_asymm_v5,2020.2.10,MacIntel,60,61025ae37ef11b136ea224fe,,,,,,,,,4214,49.28515625,33.41015625,1,0,0,response1disk,,6,6.96484375,10.53125,1,0,0,rectangle,6.96484375,10.53125,1,0,0,6.96484375,10.53125,1,0,0,0,145,145,124,1,,,,,,,,
,,,,,,,,,,,,,FF,,,,,,,,0.1668,,,,,,,,,,,,,,,,,,,,,,60fdcf5f7303ef309710dbf6,61036b9c3c6d86eda699d88d,2021-07-29_21h02.42.340,Simcolourproject_2stim_asymm_v5,2020.2.10,MacIntel,60,61025ae37ef11b136ea224fe,,,,,,,,,3521,60.5625,33.7265625,1,0,0,response1disk,,6,-14.94140625,-15.36328125,1,0,0,rectangle,-14.94140625,-15.36328125,1,0,0,-14.94140625,-15.36328125,1,0,0,0,146,146,37,1,,,,,,,,
,,,,,,,,,,,,,FF,,,,,,,,0.3823,,,,,,,,,,,,,,,,,,,,,,60fdcf5f7303ef309710dbf6,61036b9c3c6d86eda699d88d,2021-07-29_21h02.42.340,Simcolourproject_2stim_asymm_v5,2020.2.10,MacIntel,60,61025ae37ef11b136ea224fe,,,,,,,,,3543,63.15625,20.578125,1,0,0,response1disk,,6,-7.08203125,-2.56640625,1,0,0,rectangle,-7.08203125,-2.56640625,1,0,0,-7.08203125,-2.56640625,1,0,0,0,147,147,133,1,,,,,,,,
,,,,,,,,,,,,,FF,,,,,,,,0.3999,,,,,,,,,,,,,,,,,,,,,,60fdcf5f7303ef309710dbf6,61036b9c3c6d86eda699d88d,2021-07-29_21h02.42.340,Simcolourproject_2stim_asymm_v5,2020.2.10,MacIntel,60,61025ae37ef11b136ea224fe,,,,,,,,,2586,58.6796875,24.20703125,1,0,0,response1disk,,6,3.30078125,6.203125,1,0,0,rectangle,3.30078125,6.203125,1,0,0,3.30078125,6.203125,1,0,0,0,148,148,107,1,,,,,,,,
,,,,,,,,,,,,,FF,,,,,,,,0.436,,,,,,,,,,,,,,,,,,,,,,60fdcf5f7303ef309710dbf6,61036b9c3c6d86eda699d88d,2021-07-29_21h02.42.340,Simcolourproject_2stim_asymm_v5,2020.2.10,MacIntel,60,61025ae37ef11b136ea224fe,,,,,,,,,1699,61.3671875,27.32421875,1,0,0,response1disk,,6,3.80859375,1.74609375,1,0,0,rectangle,3.80859375,1.74609375,1,0,0,3.80859375,1.74609375,1,0,0,0,149,149,90,1,,,,,,,,
,,,,,,,,,,,,,FF,,,,,,,,0.4659,,,,,,,,,,,,,,,,,,,,,,60fdcf5f7303ef309710dbf6,61036b9c3c6d86eda699d88d,2021-07-29_21h02.42.340,Simcolourproject_2stim_asymm_v5,2020.2.10,MacIntel,60,61025ae37ef11b136ea224fe,,,,,,,,,1426,24.02734375,48.2421875,1,0,0,response1disk,,7,16.35546875,6.0078125,1,0,0,rectangle,16.35546875,6.0078125,1,0,0,16.35546875,6.0078125,1,0,0,0,150,150,146,1,,,,,,,,
,,,,,,,,,,,,,FF,,,,,,,,1.0042,,,,,,,,,,,,,,,,,,,,,,60fdcf5f7303ef309710dbf6,61036b9c3c6d86eda699d88d,2021-07-29_21h02.42.340,Simcolourproject_2stim_asymm_v5,2020.2.10,MacIntel,60,61025ae37ef11b136ea224fe,,,,,,,,,135,24.08984375,-49.390625,1,0,0,response3disk,,4,5.1328125,-6.73828125,1,0,0,rectangle,5.1328125,-6.73828125,1,0,0,5.1328125,-6.73828125,1,0,0,0,151,151,145,1,,,,,,,,
,,,,,,,,,,,,,FF,,,,,,,,0.9177,,,,,,,,,,,,,,,,,,,,,,60fdcf5f7303ef309710dbf6,61036b9c3c6d86eda699d88d,2021-07-29_21h02.42.340,Simcolourproject_2stim_asymm_v5,2020.2.10,MacIntel,60,61025ae37ef11b136ea224fe,,,,,,,,,4059,-26.6953125,-69.3828125,1,0,0,response5disk,,3,1.0859375,-10.75390625,1,0,0,rectangle,1.0859375,-10.75390625,1,0,0,1.0859375,-10.75390625,1,0,0,0,152,152,44,1,,,,,,,,
,,,,,,,,,,,,,FF,,,,,,,,0.8371,,,,,,,,,,,,,,,,,,,,,,60fdcf5f7303ef309710dbf6,61036b9c3c6d86eda699d88d,2021-07-29_21h02.42.340,Simcolourproject_2stim_asymm_v5,2020.2.10,MacIntel,60,61025ae37ef11b136ea224fe,,,,,,,,,793,77.66015625,-25.9375,1,0,0,response3disk,,5,5.5234375,2.1875,1,0,0,rectangle,5.5234375,2.1875,1,0,0,5.5234375,2.1875,1,0,0,0,153,153,115,1,,,,,,,,
,,,,,,,,,,,,,FF,,,,,,,,0.7832,,,,,,,,,,,,,,,,,,,,,,60fdcf5f7303ef309710dbf6,61036b9c3c6d86eda699d88d,2021-07-29_21h02.42.340,Simcolourproject_2stim_asymm_v5,2020.2.10,MacIntel,60,61025ae37ef11b136ea224fe,,,,,,,,,676,-47.9609375,-28.05078125,1,0,0,response5disk,,2,3.64453125,0.58984375,1,0,0,rectangle,3.64453125,0.58984375,1,0,0,3.64453125,0.58984375,1,0,0,0,154,154,25,1,,,,,,,,
,,,,,,,,,,,,,FF,,,,,,,,4.0355,,,,,,,,,,,,,,,,,,,,,,60fdcf5f7303ef309710dbf6,61036b9c3c6d86eda699d88d,2021-07-29_21h02.42.340,Simcolourproject_2stim_asymm_v5,2020.2.10,MacIntel,60,61025ae37ef11b136ea224fe,,,,,,,,,1109,-17.94921875,26.83984375,1,0,0,response7disk,,0,3.546875,-4.10546875,1,0,0,rectangle,3.546875,-4.10546875,1,0,0,3.546875,-4.10546875,1,0,0,0,155,155,15,1,,,,,,,,
,,,,,,,,,,,,,FF,,,,,,,,0.7387,,,,,,,,,,,,,,,,,,,,,,60fdcf5f7303ef309710dbf6,61036b9c3c6d86eda699d88d,2021-07-29_21h02.42.340,Simcolourproject_2stim_asymm_v5,2020.2.10,MacIntel,60,61025ae37ef11b136ea224fe,,,,,,,,,3062,38.30859375,-30.6171875,1,0,0,response3disk,,5,3.04296875,-6.76171875,1,0,0,rectangle,45.52734375,81.3515625,1,0,0,5.1171875,-3.36328125,1,0,0,0,156,156,29,1,,response1disk_3,TRUE,7,7,"[182,36,304,71,270,89,181,280,64,312,298,293,137,13,293,280,19,94,157,196]",1.9009,rectangle
,,,,,,,,,,,,,FF,,,,,,,,0.4329,,,,,,,,,,,,,,,,,,,,,,60fdcf5f7303ef309710dbf6,61036b9c3c6d86eda699d88d,2021-07-29_21h02.42.340,Simcolourproject_2stim_asymm_v5,2020.2.10,MacIntel,60,61025ae37ef11b136ea224fe,,,,,,,,,2246,37.5390625,-34.71484375,1,0,0,response3disk,,5,16.2890625,-15.58984375,1,0,0,rectangle,16.2890625,-15.58984375,1,0,0,16.2890625,-15.58984375,1,0,0,0,157,157,39,1,,,,,,,,
,,,,,,,,,,,,,FF,,,,,,,,0.3665,,,,,,,,,,,,,,,,,,,,,,60fdcf5f7303ef309710dbf6,61036b9c3c6d86eda699d88d,2021-07-29_21h02.42.340,Simcolourproject_2stim_asymm_v5,2020.2.10,MacIntel,60,61025ae37ef11b136ea224fe,,,,,,,,,3645,17.1015625,-50.50390625,1,0,0,response3disk,,4,13.41015625,11.4765625,1,0,0,rectangle,13.41015625,11.4765625,1,0,0,13.41015625,11.4765625,1,0,0,0,158,158,103,1,,,,,,,,
,,,,,,,,,,,,,FF,,,,,,,,0.2854,,,,,,,,,,,,,,,,,,,,,,60fdcf5f7303ef309710dbf6,61036b9c3c6d86eda699d88d,2021-07-29_21h02.42.340,Simcolourproject_2stim_asymm_v5,2020.2.10,MacIntel,60,61025ae37ef11b136ea224fe,,,,,,,,,1782,-53.53125,-69.55078125,1,0,0,response5disk,,3,4.9296875,-0.65625,1,0,0,rectangle,4.9296875,-0.65625,1,0,0,4.9296875,-0.65625,1,0,0,0,159,159,11,1,,,,,,,,
,,,,,,,,,,,,,FF,,,,,,,,0.3334,,,,,,,,,,,,,,,,,,,,,,60fdcf5f7303ef309710dbf6,61036b9c3c6d86eda699d88d,2021-07-29_21h02.42.340,Simcolourproject_2stim_asymm_v5,2020.2.10,MacIntel,60,61025ae37ef11b136ea224fe,,,,,,,,,2466,-45.828125,-24.046875,1,0,0,response5disk,,2,8.734375,-8.4375,1,0,0,rectangle,8.734375,-8.4375,1,0,0,8.734375,-8.4375,1,0,0,1,0,160,149,1,,,,,,,,
,,,,,,,,,,,,,FF,,,,,,,,0.3498,,,,,,,,,,,,,,,,,,,,,,60fdcf5f7303ef309710dbf6,61036b9c3c6d86eda699d88d,2021-07-29_21h02.42.340,Simcolourproject_2stim_asymm_v5,2020.2.10,MacIntel,60,61025ae37ef11b136ea224fe,,,,,,,,,3322,63.71484375,-41.6171875,1,0,0,response3disk,,5,-12.76171875,-11.45703125,1,0,0,rectangle,-12.76171875,-11.45703125,1,0,0,-12.76171875,-11.45703125,1,0,0,1,1,161,121,1,,,,,,,,
,,,,,,,,,,,,,FF,,,,,,,,0.4001,,,,,,,,,,,,,,,,,,,,,,60fdcf5f7303ef309710dbf6,61036b9c3c6d86eda699d88d,2021-07-29_21h02.42.340,Simcolourproject_2stim_asymm_v5,2020.2.10,MacIntel,60,61025ae37ef11b136ea224fe,,,,,,,,,1773,73.10546875,24.578125,1,0,0,response1disk,,6,11.12109375,-2.26953125,1,0,0,rectangle,11.12109375,-2.26953125,1,0,0,11.12109375,-2.26953125,1,0,0,1,2,162,25,1,,,,,,,,
,,,,,,,,,,,,,FF,,,,,,,,0.4672,,,,,,,,,,,,,,,,,,,,,,60fdcf5f7303ef309710dbf6,61036b9c3c6d86eda699d88d,2021-07-29_21h02.42.340,Simcolourproject_2stim_asymm_v5,2020.2.10,MacIntel,60,61025ae37ef11b136ea224fe,,,,,,,,,539,-35.41015625,19.33203125,1,0,0,response7disk,,1,-1.84765625,9.15234375,1,0,0,rectangle,-1.84765625,9.15234375,1,0,0,-1.84765625,9.15234375,1,0,0,1,3,163,26,1,,,,,,,,
,,,,,,,,,,,,,FF,,,,,,,,0.3159,,,,,,,,,,,,,,,,,,,,,,60fdcf5f7303ef309710dbf6,61036b9c3c6d86eda699d88d,2021-07-29_21h02.42.340,Simcolourproject_2stim_asymm_v5,2020.2.10,MacIntel,60,61025ae37ef11b136ea224fe,,,,,,,,,1876,60.23046875,51.796875,1,0,0,response1disk,,6,28.37109375,7.10546875,1,0,0,rectangle,28.37109375,7.10546875,1,0,0,28.37109375,7.10546875,1,0,0,1,4,164,143,1,,,,,,,,
,,,,,,,,,,,,,FF,,,,,,,,0.3665,,,,,,,,,,,,,,,,,,,,,,60fdcf5f7303ef309710dbf6,61036b9c3c6d86eda699d88d,2021-07-29_21h02.42.340,Simcolourproject_2stim_asymm_v5,2020.2.10,MacIntel,60,61025ae37ef11b136ea224fe,,,,,,,,,3526,72.71484375,14.03125,1,0,0,response1disk,,6,4.48046875,-1.09765625,1,0,0,rectangle,4.48046875,-1.09765625,1,0,0,4.48046875,-1.09765625,1,0,0,1,5,165,139,1,,,,,,,,
,,,,,,,,,,,,,FF,,,,,,,,0.3161,,,,,,,,,,,,,,,,,,,,,,60fdcf5f7303ef309710dbf6,61036b9c3c6d86eda699d88d,2021-07-29_21h02.42.340,Simcolourproject_2stim_asymm_v5,2020.2.10,MacIntel,60,61025ae37ef11b136ea224fe,,,,,,,,,1796,59.62890625,63.97265625,1,0,0,response1disk,,7,17.37890625,-2.14453125,1,0,0,rectangle,17.37890625,-2.14453125,1,0,0,17.37890625,-2.14453125,1,0,0,1,6,166,140,1,,,,,,,,
,,,,,,,,,,,,,FF,,,,,,,,0.8333,,,,,,,,,,,,,,,,,,,,,,60fdcf5f7303ef309710dbf6,61036b9c3c6d86eda699d88d,2021-07-29_21h02.42.340,Simcolourproject_2stim_asymm_v5,2020.2.10,MacIntel,60,61025ae37ef11b136ea224fe,,,,,,,,,3993,-30.91796875,64.92578125,1,0,0,response7disk,,0,-15.47265625,4.6796875,1,0,0,rectangle,-15.47265625,4.6796875,1,0,0,-15.47265625,4.6796875,1,0,0,1,7,167,133,1,,,,,,,,
,,,,,,,,,,,,,FF,,,,,,,,0.434,,,,,,,,,,,,,,,,,,,,,,60fdcf5f7303ef309710dbf6,61036b9c3c6d86eda699d88d,2021-07-29_21h02.42.340,Simcolourproject_2stim_asymm_v5,2020.2.10,MacIntel,60,61025ae37ef11b136ea224fe,,,,,,,,,623,-42.58203125,-24.11328125,1,0,0,response5disk,,2,16.03515625,-0.80859375,1,0,0,rectangle,16.03515625,-0.80859375,1,0,0,16.03515625,-0.80859375,1,0,0,1,8,168,47,1,,,,,,,,
,,,,,,,,,,,,,FF,,,,,,,,0.3353,,,,,,,,,,,,,,,,,,,,,,60fdcf5f7303ef309710dbf6,61036b9c3c6d86eda699d88d,2021-07-29_21h02.42.340,Simcolourproject_2stim_asymm_v5,2020.2.10,MacIntel,60,61025ae37ef11b136ea224fe,,,,,,,,,176,-32.85546875,-70.98046875,1,0,0,response5disk,,3,-0.6015625,-7.9296875,1,0,0,rectangle,-0.6015625,-7.9296875,1,0,0,-0.6015625,-7.9296875,1,0,0,1,9,169,94,1,,,,,,,,
,,,,,,,,,,,,,FF,,,,,,,,0.3995,,,,,,,,,,,,,,,,,,,,,,60fdcf5f7303ef309710dbf6,61036b9c3c6d86eda699d88d,2021-07-29_21h02.42.340,Simcolourproject_2stim_asymm_v5,2020.2.10,MacIntel,60,61025ae37ef11b136ea224fe,,,,,,,,,2956,25.62109375,-44.49609375,1,0,0,response3disk,,4,11.0546875,-1.14453125,1,0,0,rectangle,11.0546875,-1.14453125,1,0,0,11.0546875,-1.14453125,1,0,0,1,10,170,111,1,,,,,,,,
,,,,,,,,,,,,,FF,,,,,,,,0.4838,,,,,,,,,,,,,,,,,,,,,,60fdcf5f7303ef309710dbf6,61036b9c3c6d86eda699d88d,2021-07-29_21h02.42.340,Simcolourproject_2stim_asymm_v5,2020.2.10,MacIntel,60,61025ae37ef11b136ea224fe,,,,,,,,,2965,-45.6328125,-25.7890625,1,0,0,response5disk,,2,3.1796875,-7.34375,1,0,0,rectangle,3.1796875,-7.34375,1,0,0,3.1796875,-7.34375,1,0,0,1,11,171,147,1,,,,,,,,
,,,,,,,,,,,,,FF,,,,,,,,0.4163,,,,,,,,,,,,,,,,,,,,,,60fdcf5f7303ef309710dbf6,61036b9c3c6d86eda699d88d,2021-07-29_21h02.42.340,Simcolourproject_2stim_asymm_v5,2020.2.10,MacIntel,60,61025ae37ef11b136ea224fe,,,,,,,,,3115,19.96484375,-35.9453125,1,0,0,response3disk,,4,11.1796875,2.2578125,1,0,0,rectangle,11.1796875,2.2578125,1,0,0,11.1796875,2.2578125,1,0,0,1,12,172,48,1,,,,,,,,
,,,,,,,,,,,,,FF,,,,,,,,1.2498,,,,,,,,,,,,,,,,,,,,,,60fdcf5f7303ef309710dbf6,61036b9c3c6d86eda699d88d,2021-07-29_21h02.42.340,Simcolourproject_2stim_asymm_v5,2020.2.10,MacIntel,60,61025ae37ef11b136ea224fe,,,,,,,,,1454,-40.37890625,28.40234375,1,0,0,response7disk,,1,-1.55859375,9.83984375,1,0,0,rectangle,-1.55859375,9.83984375,1,0,0,-1.55859375,9.83984375,1,0,0,1,13,173,4,1,,,,,,,,
,,,,,,,,,,,,,FF,,,,,,,,0.737,,,,,,,,,,,,,,,,,,,,,,60fdcf5f7303ef309710dbf6,61036b9c3c6d86eda699d88d,2021-07-29_21h02.42.340,Simcolourproject_2stim_asymm_v5,2020.2.10,MacIntel,60,61025ae37ef11b136ea224fe,,,,,,,,,2493,48.859375,-41.3125,1,0,0,response3disk,,5,10.453125,4.1953125,1,0,0,rectangle,10.453125,4.1953125,1,0,0,10.453125,4.1953125,1,0,0,1,14,174,82,1,,,,,,,,
,,,,,,,,,,,,,FF,,,,,,,,0.4821,,,,,,,,,,,,,,,,,,,,,,60fdcf5f7303ef309710dbf6,61036b9c3c6d86eda699d88d,2021-07-29_21h02.42.340,Simcolourproject_2stim_asymm_v5,2020.2.10,MacIntel,60,61025ae37ef11b136ea224fe,,,,,,,,,4134,55.23828125,-33.046875,1,0,0,response3disk,,5,-0.3671875,-3.90625,1,0,0,rectangle,-0.3671875,-3.90625,1,0,0,-0.3671875,-3.90625,1,0,0,1,15,175,35,1,,,,,,,,
,,,,,,,,,,,,,FF,,,,,,,,0.6169,,,,,,,,,,,,,,,,,,,,,,60fdcf5f7303ef309710dbf6,61036b9c3c6d86eda699d88d,2021-07-29_21h02.42.340,Simcolourproject_2stim_asymm_v5,2020.2.10,MacIntel,60,61025ae37ef11b136ea224fe,,,,,,,,,2774,44.23828125,-27.26953125,1,0,0,response3disk,,5,19.41796875,-6.5625,1,0,0,rectangle,19.41796875,-6.5625,1,0,0,19.41796875,-6.5625,1,0,0,1,16,176,5,1,,,,,,,,
,,,,,,,,,,,,,FF,,,,,,,,0.8161,,,,,,,,,,,,,,,,,,,,,,60fdcf5f7303ef309710dbf6,61036b9c3c6d86eda699d88d,2021-07-29_21h02.42.340,Simcolourproject_2stim_asymm_v5,2020.2.10,MacIntel,60,61025ae37ef11b136ea224fe,,,,,,,,,3165,75.5625,26.29296875,1,0,0,response1disk,,6,7.28515625,-4.92578125,1,0,0,rectangle,7.28515625,-4.92578125,1,0,0,7.28515625,-4.92578125,1,0,0,1,17,177,95,1,,,,,,,,
,,,,,,,,,,,,,FF,,,,,,,,0.6172,,,,,,,,,,,,,,,,,,,,,,60fdcf5f7303ef309710dbf6,61036b9c3c6d86eda699d88d,2021-07-29_21h02.42.340,Simcolourproject_2stim_asymm_v5,2020.2.10,MacIntel,60,61025ae37ef11b136ea224fe,,,,,,,,,1558,51.55859375,49.03515625,1,0,0,response1disk,,6,-0.2265625,-3.875,1,0,0,rectangle,-0.2265625,-3.875,1,0,0,-0.2265625,-3.875,1,0,0,1,18,178,141,1,,,,,,,,
,,,,,,,,,,,,,FF,,,,,,,,0.3,,,,,,,,,,,,,,,,,,,,,,60fdcf5f7303ef309710dbf6,61036b9c3c6d86eda699d88d,2021-07-29_21h02.42.340,Simcolourproject_2stim_asymm_v5,2020.2.10,MacIntel,60,61025ae37ef11b136ea224fe,,,,,,,,,2222,-45.80078125,-41.30078125,1,0,0,response5disk,,2,9.98828125,2.87890625,1,0,0,rectangle,9.98828125,2.87890625,1,0,0,9.98828125,2.87890625,1,0,0,1,19,179,58,1,,,,,,,,
,,,,,,,,,,,,,FF,,,,,,,,0.4006,,,,,,,,,,,,,,,,,,,,,,60fdcf5f7303ef309710dbf6,61036b9c3c6d86eda699d88d,2021-07-29_21h02.42.340,Simcolourproject_2stim_asymm_v5,2020.2.10,MacIntel,60,61025ae37ef11b136ea224fe,,,,,,,,,965,30.3359375,-27.484375,1,0,0,response3disk,,5,14.0703125,-6.95703125,1,0,0,rectangle,66.32421875,22.5,1,0,0,10.51953125,-6.26953125,1,0,0,1,20,180,101,1,,response1disk_3,TRUE,6,6,"[182,36,304,71,270,89,181,280,64,312,298,293,137,13,293,280,19,94,157,196]",1.8678,rectangle
,,,,,,,,,,,,,FF,,,,,,,,0.1006,,,,,,,,,,,,,,,,,,,,,,60fdcf5f7303ef309710dbf6,61036b9c3c6d86eda699d88d,2021-07-29_21h02.42.340,Simcolourproject_2stim_asymm_v5,2020.2.10,MacIntel,60,61025ae37ef11b136ea224fe,,,,,,,,,3688,48.2109375,-16.45703125,1,0,0,response3disk,,5,29.125,-9.30078125,1,0,0,rectangle,-59.890625,-46.07421875,1,0,0,-0.86328125,-8.0234375,1,0,0,1,21,181,31,1,,response5disk_3,TRUE,2,2,"[182,36,304,71,270,89,181,280,64,312,298,293,137,13,293,280,19,94,157,196]",1.8668,rectangle
,,,,,,,,,,,,,FF,,,,,,,,0.899,,,,,,,,,,,,,,,,,,,,,,60fdcf5f7303ef309710dbf6,61036b9c3c6d86eda699d88d,2021-07-29_21h02.42.340,Simcolourproject_2stim_asymm_v5,2020.2.10,MacIntel,60,61025ae37ef11b136ea224fe,,,,,,,,,2268,-54.2109375,-31.26171875,1,0,0,response5disk,,2,4.328125,-10.328125,1,0,0,rectangle,4.328125,-10.328125,1,0,0,4.328125,-10.328125,1,0,0,1,22,182,44,1,,,,,,,,
,,,,,,,,,,,,,FF,,,,,,,,1.383,,,,,,,,,,,,,,,,,,,,,,60fdcf5f7303ef309710dbf6,61036b9c3c6d86eda699d88d,2021-07-29_21h02.42.340,Simcolourproject_2stim_asymm_v5,2020.2.10,MacIntel,60,61025ae37ef11b136ea224fe,,,,,,,,,1052,-79.58203125,-35.89453125,1,0,0,response5disk,,2,9.42578125,-7.62890625,1,0,0,rectangle,9.42578125,-7.62890625,1,0,0,9.42578125,-7.62890625,1,0,0,1,23,183,36,1,,,,,,,,
,,,,,,,,,,,,,FF,,,,,,,,0.4493,,,,,,,,,,,,,,,,,,,,,,60fdcf5f7303ef309710dbf6,61036b9c3c6d86eda699d88d,2021-07-29_21h02.42.340,Simcolourproject_2stim_asymm_v5,2020.2.10,MacIntel,60,61025ae37ef11b136ea224fe,,,,,,,,,385,-26.61328125,-71.40234375,1,0,0,response5disk,,3,4.53125,0.17578125,1,0,0,rectangle,4.53125,0.17578125,1,0,0,4.53125,0.17578125,1,0,0,1,24,184,78,1,,,,,,,,
,,,,,,,,,,,,,FF,,,,,,,,1.334,,,,,,,,,,,,,,,,,,,,,,60fdcf5f7303ef309710dbf6,61036b9c3c6d86eda699d88d,2021-07-29_21h02.42.340,Simcolourproject_2stim_asymm_v5,2020.2.10,MacIntel,60,61025ae37ef11b136ea224fe,,,,,,,,,2926,-78.55078125,-26.28515625,1,0,0,response5disk,,2,-0.2109375,4.42578125,1,0,0,rectangle,-0.2109375,4.42578125,1,0,0,-0.2109375,4.42578125,1,0,0,1,25,185,40,1,,,,,,,,
,,,,,,,,,,,,,FF,,,,,,,,0.3833,,,,,,,,,,,,,,,,,,,,,,60fdcf5f7303ef309710dbf6,61036b9c3c6d86eda699d88d,2021-07-29_21h02.42.340,Simcolourproject_2stim_asymm_v5,2020.2.10,MacIntel,60,61025ae37ef11b136ea224fe,,,,,,,,,728,63.7890625,40.046875,1,0,0,response1disk,,6,7.640625,0.0703125,1,0,0,rectangle,7.640625,0.0703125,1,0,0,7.640625,0.0703125,1,0,0,1,26,186,17,1,,,,,,,,
,,,,,,,,,,,,,FF,,,,,,,,0.3315,,,,,,,,,,,,,,,,,,,,,,60fdcf5f7303ef309710dbf6,61036b9c3c6d86eda699d88d,2021-07-29_21h02.42.340,Simcolourproject_2stim_asymm_v5,2020.2.10,MacIntel,60,61025ae37ef11b136ea224fe,,,,,,,,,3437,40.984375,49.171875,1,0,0,response1disk,,7,22.29296875,-3.5859375,1,0,0,rectangle,22.29296875,-3.5859375,1,0,0,22.29296875,-3.5859375,1,0,0,1,27,187,38,1,,,,,,,,
,,,,,,,,,,,,,FF,,,,,,,,0.3491,,,,,,,,,,,,,,,,,,,,,,60fdcf5f7303ef309710dbf6,61036b9c3c6d86eda699d88d,2021-07-29_21h02.42.340,Simcolourproject_2stim_asymm_v5,2020.2.10,MacIntel,60,61025ae37ef11b136ea224fe,,,,,,,,,2902,50.13671875,-28.33203125,1,0,0,response3disk,,5,13.51171875,-7.2890625,1,0,0,rectangle,13.51171875,-7.2890625,1,0,0,13.51171875,-7.2890625,1,0,0,1,28,188,64,1,,,,,,,,
,,,,,,,,,,,,,FF,,,,,,,,0.3735,,,,,,,,,,,,,,,,,,,,,,60fdcf5f7303ef309710dbf6,61036b9c3c6d86eda699d88d,2021-07-29_21h02.42.340,Simcolourproject_2stim_asymm_v5,2020.2.10,MacIntel,60,61025ae37ef11b136ea224fe,,,,,,,,,2001,36.046875,-63.00390625,1,0,0,response3disk,,4,5.0546875,-4.90625,1,0,0,rectangle,5.0546875,-4.90625,1,0,0,5.0546875,-4.90625,1,0,0,1,29,189,32,1,,,,,,,,
,,,,,,,,,,,,,FF,,,,,,,,0.335,,,,,,,,,,,,,,,,,,,,,,60fdcf5f7303ef309710dbf6,61036b9c3c6d86eda699d88d,2021-07-29_21h02.42.340,Simcolourproject_2stim_asymm_v5,2020.2.10,MacIntel,60,61025ae37ef11b136ea224fe,,,,,,,,,2659,-38.0859375,-71.73828125,1,0,0,response5disk,,3,-7.921875,-14.43359375,1,0,0,rectangle,-7.921875,-14.43359375,1,0,0,-7.921875,-14.43359375,1,0,0,1,30,190,71,1,,,,,,,,
,,,,,,,,,,,,,FF,,,,,,,,0.2822,,,,,,,,,,,,,,,,,,,,,,60fdcf5f7303ef309710dbf6,61036b9c3c6d86eda699d88d,2021-07-29_21h02.42.340,Simcolourproject_2stim_asymm_v5,2020.2.10,MacIntel,60,61025ae37ef11b136ea224fe,,,,,,,,,605,-68.76171875,-31.75,1,0,0,response5disk,,2,1.3046875,2.58203125,1,0,0,rectangle,1.3046875,2.58203125,1,0,0,1.3046875,2.58203125,1,0,0,1,31,191,79,1,,,,,,,,
,,,,,,,,,,,,,FF,,,,,,,,0.4999,,,,,,,,,,,,,,,,,,,,,,60fdcf5f7303ef309710dbf6,61036b9c3c6d86eda699d88d,2021-07-29_21h02.42.340,Simcolourproject_2stim_asymm_v5,2020.2.10,MacIntel,60,61025ae37ef11b136ea224fe,,,,,,,,,47,51.1640625,28.83984375,1,0,0,response1disk,,6,24.02734375,-1.58203125,1,0,0,rectangle,24.02734375,-1.58203125,1,0,0,24.02734375,-1.58203125,1,0,0,1,32,192,70,1,,,,,,,,
,,,,,,,,,,,,,FF,,,,,,,,0.3619,,,,,,,,,,,,,,,,,,,,,,60fdcf5f7303ef309710dbf6,61036b9c3c6d86eda699d88d,2021-07-29_21h02.42.340,Simcolourproject_2stim_asymm_v5,2020.2.10,MacIntel,60,61025ae37ef11b136ea224fe,,,,,,,,,940,56.72265625,65.31640625,1,0,0,response1disk,,7,2.7734375,-5.46875,1,0,0,rectangle,2.7734375,-5.46875,1,0,0,2.7734375,-5.46875,1,0,0,1,33,193,68,1,,,,,,,,
,,,,,,,,,,,,,FF,,,,,,,,0.3172,,,,,,,,,,,,,,,,,,,,,,60fdcf5f7303ef309710dbf6,61036b9c3c6d86eda699d88d,2021-07-29_21h02.42.340,Simcolourproject_2stim_asymm_v5,2020.2.10,MacIntel,60,61025ae37ef11b136ea224fe,,,,,,,,,446,34.85546875,57.8359375,1,0,0,response1disk,,7,13.28125,3.3359375,1,0,0,rectangle,13.28125,3.3359375,1,0,0,13.28125,3.3359375,1,0,0,1,34,194,46,1,,,,,,,,
,,,,,,,,,,,,,FF,,,,,,,,0.2146,,,,,,,,,,,,,,,,,,,,,,60fdcf5f7303ef309710dbf6,61036b9c3c6d86eda699d88d,2021-07-29_21h02.42.340,Simcolourproject_2stim_asymm_v5,2020.2.10,MacIntel,60,61025ae37ef11b136ea224fe,,,,,,,,,1573,55.87109375,33.91015625,1,0,0,response1disk,,6,23.76171875,-15.20703125,1,0,0,rectangle,53.52734375,68.48046875,1,0,0,25.84765625,3.80859375,1,0,0,1,35,195,12,1,,response1disk_3,TRUE,7,7,"[182,36,304,71,270,89,181,280,64,312,298,293,137,13,293,280,19,94,157,196]",1.1693,rectangle
,,,,,,,,,,,,,FF,,,,,,,,0.9171,,,,,,,,,,,,,,,,,,,,,,60fdcf5f7303ef309710dbf6,61036b9c3c6d86eda699d88d,2021-07-29_21h02.42.340,Simcolourproject_2stim_asymm_v5,2020.2.10,MacIntel,60,61025ae37ef11b136ea224fe,,,,,,,,,2656,45.578125,-32.13671875,1,0,0,response3disk,,5,0.35546875,7.19140625,1,0,0,rectangle,0.35546875,7.19140625,1,0,0,0.35546875,7.19140625,1,0,0,1,36,196,50,1,,,,,,,,
,,,,,,,,,,,,,FF,,,,,,,,0.6831,,,,,,,,,,,,,,,,,,,,,,60fdcf5f7303ef309710dbf6,61036b9c3c6d86eda699d88d,2021-07-29_21h02.42.340,Simcolourproject_2stim_asymm_v5,2020.2.10,MacIntel,60,61025ae37ef11b136ea224fe,,,,,,,,,4270,-27.5234375,-38.03515625,1,0,0,response5disk,,3,-13.26953125,6.5546875,1,0,0,rectangle,-13.26953125,6.5546875,1,0,0,-13.26953125,6.5546875,1,0,0,1,37,197,130,1,,,,,,,,
,,,,,,,,,,,,,FF,,,,,,,,0.517,,,,,,,,,,,,,,,,,,,,,,60fdcf5f7303ef309710dbf6,61036b9c3c6d86eda699d88d,2021-07-29_21h02.42.340,Simcolourproject_2stim_asymm_v5,2020.2.10,MacIntel,60,61025ae37ef11b136ea224fe,,,,,,,,,1373,-47.109375,-17.70703125,1,0,0,response5disk,,2,-19.46484375,-4.890625,1,0,0,rectangle,-19.46484375,-4.890625,1,0,0,-19.46484375,-4.890625,1,0,0,1,38,198,115,1,,,,,,,,
,,,,,,,,,,,,,FF,,,,,,,,0.6508,,,,,,,,,,,,,,,,,,,,,,60fdcf5f7303ef309710dbf6,61036b9c3c6d86eda699d88d,2021-07-29_21h02.42.340,Simcolourproject_2stim_asymm_v5,2020.2.10,MacIntel,60,61025ae37ef11b136ea224fe,,,,,,,,,4234,-51.71875,-27.8515625,1,0,0,response5disk,,2,29.3671875,7.2265625,1,0,0,rectangle,29.3671875,7.2265625,1,0,0,29.3671875,7.2265625,1,0,0,1,39,199,144,1,,,,,,,,
,,,,,,,,,,,,,FF,,,,,,,,0.4008,,,,,,,,,,,,,,,,,,,,,,60fdcf5f7303ef309710dbf6,61036b9c3c6d86eda699d88d,2021-07-29_21h02.42.340,Simcolourproject_2stim_asymm_v5,2020.2.10,MacIntel,60,61025ae37ef11b136ea224fe,,,,,,,,,3269,-31.50390625,-41.30078125,1,0,0,response5disk,,3,-1.328125,-8.3203125,1,0,0,rectangle,-1.328125,-8.3203125,1,0,0,-1.328125,-8.3203125,1,0,0,1,40,200,66,1,,,,,,,,
,,,,,,,,,,,,,FF,,,,,,,,0.3328,,,,,,,,,,,,,,,,,,,,,,60fdcf5f7303ef309710dbf6,61036b9c3c6d86eda699d88d,2021-07-29_21h02.42.340,Simcolourproject_2stim_asymm_v5,2020.2.10,MacIntel,60,61025ae37ef11b136ea224fe,,,,,,,,,1899,67.58203125,-32.6328125,1,0,0,response3disk,,5,-4.9296875,14.17578125,1,0,0,rectangle,-4.9296875,14.17578125,1,0,0,-4.9296875,14.17578125,1,0,0,1,41,201,127,1,,,,,,,,
,,,,,,,,,,,,,FF,,,,,,,,1.2018,,,,,,,,,,,,,,,,,,,,,,60fdcf5f7303ef309710dbf6,61036b9c3c6d86eda699d88d,2021-07-29_21h02.42.340,Simcolourproject_2stim_asymm_v5,2020.2.10,MacIntel,60,61025ae37ef11b136ea224fe,,,,,,,,,75,64.35546875,25.3984375,1,0,0,response1disk,,6,20.7109375,1.08984375,1,0,0,rectangle,20.7109375,1.08984375,1,0,0,20.7109375,1.08984375,1,0,0,1,42,202,91,1,,,,,,,,
,,,,,,,,,,,,,FF,,,,,,,,0.4672,,,,,,,,,,,,,,,,,,,,,,60fdcf5f7303ef309710dbf6,61036b9c3c6d86eda699d88d,2021-07-29_21h02.42.340,Simcolourproject_2stim_asymm_v5,2020.2.10,MacIntel,60,61025ae37ef11b136ea224fe,,,,,,,,,3532,-50.69140625,-69.6015625,1,0,0,response5disk,,3,13.53125,7.78515625,1,0,0,rectangle,13.53125,7.78515625,1,0,0,13.53125,7.78515625,1,0,0,1,43,203,118,1,,,,,,,,
,,,,,,,,,,,,,FF,,,,,,,,0.4829,,,,,,,,,,,,,,,,,,,,,,60fdcf5f7303ef309710dbf6,61036b9c3c6d86eda699d88d,2021-07-29_21h02.42.340,Simcolourproject_2stim_asymm_v5,2020.2.10,MacIntel,60,61025ae37ef11b136ea224fe,,,,,,,,,2453,24.18359375,30.51953125,1,0,0,response1disk,,7,9.66796875,-7.015625,1,0,0,rectangle,9.66796875,-7.015625,1,0,0,9.66796875,-7.015625,1,0,0,1,44,204,106,1,,,,,,,,
,,,,,,,,,,,,,FF,,,,,,,,0.3838,,,,,,,,,,,,,,,,,,,,,,60fdcf5f7303ef309710dbf6,61036b9c3c6d86eda699d88d,2021-07-29_21h02.42.340,Simcolourproject_2stim_asymm_v5,2020.2.10,MacIntel,60,61025ae37ef11b136ea224fe,,,,,,,,,1288,85.8125,23.4296875,1,0,0,response1disk,,6,19.3828125,9.8203125,1,0,0,rectangle,19.3828125,9.8203125,1,0,0,19.3828125,9.8203125,1,0,0,1,45,205,98,1,,,,,,,,
,,,,,,,,,,,,,FF,,,,,,,,0.5335,,,,,,,,,,,,,,,,,,,,,,60fdcf5f7303ef309710dbf6,61036b9c3c6d86eda699d88d,2021-07-29_21h02.42.340,Simcolourproject_2stim_asymm_v5,2020.2.10,MacIntel,60,61025ae37ef11b136ea224fe,,,,,,,,,2918,40.76171875,22.70703125,1,0,0,response1disk,,6,14.0703125,7.4453125,1,0,0,rectangle,14.0703125,7.4453125,1,0,0,14.0703125,7.4453125,1,0,0,1,46,206,125,1,,,,,,,,
,,,,,,,,,,,,,FF,,,,,,,,0.5342,,,,,,,,,,,,,,,,,,,,,,60fdcf5f7303ef309710dbf6,61036b9c3c6d86eda699d88d,2021-07-29_21h02.42.340,Simcolourproject_2stim_asymm_v5,2020.2.10,MacIntel,60,61025ae37ef11b136ea224fe,,,,,,,,,1069,55.02734375,36.10546875,1,0,0,response1disk,,6,13.79296875,15.171875,1,0,0,rectangle,13.79296875,15.171875,1,0,0,13.79296875,15.171875,1,0,0,1,47,207,146,1,,,,,,,,
,,,,,,,,,,,,,FF,,,,,,,,0.3839,,,,,,,,,,,,,,,,,,,,,,60fdcf5f7303ef309710dbf6,61036b9c3c6d86eda699d88d,2021-07-29_21h02.42.340,Simcolourproject_2stim_asymm_v5,2020.2.10,MacIntel,60,61025ae37ef11b136ea224fe,,,,,,,,,391,29.1875,61.88671875,1,0,0,response1disk,,7,21.66015625,3.94140625,1,0,0,rectangle,21.66015625,3.94140625,1,0,0,21.66015625,3.94140625,1,0,0,1,48,208,103,1,,,,,,,,
,,,,,,,,,,,,,FF,,,,,,,,1.0171,,,,,,,,,,,,,,,,,,,,,,60fdcf5f7303ef309710dbf6,61036b9c3c6d86eda699d88d,2021-07-29_21h02.42.340,Simcolourproject_2stim_asymm_v5,2020.2.10,MacIntel,60,61025ae37ef11b136ea224fe,,,,,,,,,4170,-62.22265625,-21.3984375,1,0,0,response5disk,,2,5.95703125,-5.20703125,1,0,0,rectangle,5.95703125,-5.20703125,1,0,0,5.95703125,-5.20703125,1,0,0,1,49,209,83,1,,,,,,,,
,,,,,,,,,,,,,FF,,,,,,,,0.8336,,,,,,,,,,,,,,,,,,,,,,60fdcf5f7303ef309710dbf6,61036b9c3c6d86eda699d88d,2021-07-29_21h02.42.340,Simcolourproject_2stim_asymm_v5,2020.2.10,MacIntel,60,61025ae37ef11b136ea224fe,,,,,,,,,3281,-28.4921875,-45.18359375,1,0,0,response5disk,,3,-3.8671875,-13.6484375,1,0,0,rectangle,-3.8671875,-13.6484375,1,0,0,-3.8671875,-13.6484375,1,0,0,1,50,210,61,1,,,,,,,,
,,,,,,,,,,,,,FF,,,,,,,,1.6511,,,,,,,,,,,,,,,,,,,,,,60fdcf5f7303ef309710dbf6,61036b9c3c6d86eda699d88d,2021-07-29_21h02.42.340,Simcolourproject_2stim_asymm_v5,2020.2.10,MacIntel,60,61025ae37ef11b136ea224fe,,,,,,,,,229,-80.1796875,-37.97265625,1,0,0,response5disk,,2,1.30078125,-12.30078125,1,0,0,rectangle,1.30078125,-12.30078125,1,0,0,1.30078125,-12.30078125,1,0,0,1,51,211,156,1,,,,,,,,
,,,,,,,,,,,,,FF,,,,,,,,0.7168,,,,,,,,,,,,,,,,,,,,,,60fdcf5f7303ef309710dbf6,61036b9c3c6d86eda699d88d,2021-07-29_21h02.42.340,Simcolourproject_2stim_asymm_v5,2020.2.10,MacIntel,60,61025ae37ef11b136ea224fe,,,,,,,,,636,-45.90234375,-50.828125,1,0,0,response5disk,,3,5.84765625,-7.109375,1,0,0,rectangle,5.84765625,-7.109375,1,0,0,5.84765625,-7.109375,1,0,0,1,52,212,6,1,,,,,,,,
,,,,,,,,,,,,,FF,,,,,,,,0.9507,,,,,,,,,,,,,,,,,,,,,,60fdcf5f7303ef309710dbf6,61036b9c3c6d86eda699d88d,2021-07-29_21h02.42.340,Simcolourproject_2stim_asymm_v5,2020.2.10,MacIntel,60,61025ae37ef11b136ea224fe,,,,,,,,,303,65.23828125,-30.984375,1,0,0,response3disk,,5,16.31640625,1.64453125,1,0,0,rectangle,16.31640625,1.64453125,1,0,0,16.31640625,1.64453125,1,0,0,1,53,213,112,1,,,,,,,,
,,,,,,,,,,,,,FF,,,,,,,,0.3501,,,,,,,,,,,,,,,,,,,,,,60fdcf5f7303ef309710dbf6,61036b9c3c6d86eda699d88d,2021-07-29_21h02.42.340,Simcolourproject_2stim_asymm_v5,2020.2.10,MacIntel,60,61025ae37ef11b136ea224fe,,,,,,,,,2205,52.50390625,-52.31640625,1,0,0,response3disk,,5,3.375,-6.09375,1,0,0,rectangle,3.375,-6.09375,1,0,0,3.375,-6.09375,1,0,0,1,54,214,124,1,,,,,,,,
,,,,,,,,,,,,,FF,,,,,,,,0.3169,,,,,,,,,,,,,,,,,,,,,,60fdcf5f7303ef309710dbf6,61036b9c3c6d86eda699d88d,2021-07-29_21h02.42.340,Simcolourproject_2stim_asymm_v5,2020.2.10,MacIntel,60,61025ae37ef11b136ea224fe,,,,,,,,,4297,38.01171875,-58.484375,1,0,0,response3disk,,4,16.03125,0.56640625,1,0,0,rectangle,16.03125,0.56640625,1,0,0,16.03125,0.56640625,1,0,0,1,55,215,69,1,,,,,,,,
,,,,,,,,,,,,,FF,,,,,,,,0.2995,,,,,,,,,,,,,,,,,,,,,,60fdcf5f7303ef309710dbf6,61036b9c3c6d86eda699d88d,2021-07-29_21h02.42.340,Simcolourproject_2stim_asymm_v5,2020.2.10,MacIntel,60,61025ae37ef11b136ea224fe,,,,,,,,,3832,-25.89453125,-48.31640625,1,0,0,response5disk,,3,9.91796875,-4.68359375,1,0,0,rectangle,9.91796875,-4.68359375,1,0,0,9.91796875,-4.68359375,1,0,0,1,56,216,104,1,,,,,,,,
,,,,,,,,,,,,,FF,,,,,,,,0.3337,,,,,,,,,,,,,,,,,,,,,,60fdcf5f7303ef309710dbf6,61036b9c3c6d86eda699d88d,2021-07-29_21h02.42.340,Simcolourproject_2stim_asymm_v5,2020.2.10,MacIntel,60,61025ae37ef11b136ea224fe,,,,,,,,,1094,51.60546875,20.76171875,1,0,0,response1disk,,6,18.140625,7.13671875,1,0,0,rectangle,18.140625,7.13671875,1,0,0,18.140625,7.13671875,1,0,0,1,57,217,105,1,,,,,,,,
,,,,,,,,,,,,,FF,,,,,,,,0.3826,,,,,,,,,,,,,,,,,,,,,,60fdcf5f7303ef309710dbf6,61036b9c3c6d86eda699d88d,2021-07-29_21h02.42.340,Simcolourproject_2stim_asymm_v5,2020.2.10,MacIntel,60,61025ae37ef11b136ea224fe,,,,,,,,,4177,56.734375,50.77734375,1,0,0,response1disk,,6,-1.9921875,-2.4453125,1,0,0,rectangle,-1.9921875,-2.4453125,1,0,0,-1.9921875,-2.4453125,1,0,0,1,58,218,142,1,,,,,,,,
,,,,,,,,,,,,,FF,,,,,,,,0.8828,,,,,,,,,,,,,,,,,,,,,,60fdcf5f7303ef309710dbf6,61036b9c3c6d86eda699d88d,2021-07-29_21h02.42.340,Simcolourproject_2stim_asymm_v5,2020.2.10,MacIntel,60,61025ae37ef11b136ea224fe,,,,,,,,,2606,-62.515625,-47.14453125,1,0,0,response5disk,,2,-5.4296875,-13.34765625,1,0,0,rectangle,-5.4296875,-13.34765625,1,0,0,-5.4296875,-13.34765625,1,0,0,1,59,219,117,1,,,,,,,,
,,,,,,,,,,,,,FF,,,,,,,,0.334,,,,,,,,,,,,,,,,,,,,,,60fdcf5f7303ef309710dbf6,61036b9c3c6d86eda699d88d,2021-07-29_21h02.42.340,Simcolourproject_2stim_asymm_v5,2020.2.10,MacIntel,60,61025ae37ef11b136ea224fe,,,,,,,,,3646,-41.43359375,-56.94921875,1,0,0,response5disk,,3,5.40625,-12.52734375,1,0,0,rectangle,5.40625,-12.52734375,1,0,0,5.40625,-12.52734375,1,0,0,1,60,220,28,1,,,,,,,,
,,,,,,,,,,,,,FF,,,,,,,,0.7197,,,,,,,,,,,,,,,,,,,,,,60fdcf5f7303ef309710dbf6,61036b9c3c6d86eda699d88d,2021-07-29_21h02.42.340,Simcolourproject_2stim_asymm_v5,2020.2.10,MacIntel,60,61025ae37ef11b136ea224fe,,,,,,,,,3098,-48.4375,23.98046875,1,0,0,response7disk,,1,5.22265625,8.90625,1,0,0,rectangle,5.22265625,8.90625,1,0,0,5.22265625,8.90625,1,0,0,1,61,221,155,1,,,,,,,,
,,,,,,,,,,,,,FF,,,,,,,,0.8007,,,,,,,,,,,,,,,,,,,,,,60fdcf5f7303ef309710dbf6,61036b9c3c6d86eda699d88d,2021-07-29_21h02.42.340,Simcolourproject_2stim_asymm_v5,2020.2.10,MacIntel,60,61025ae37ef11b136ea224fe,,,,,,,,,350,42.78515625,-29.36328125,1,0,0,response3disk,,5,-15.7421875,8.125,1,0,0,rectangle,-15.7421875,8.125,1,0,0,-15.7421875,8.125,1,0,0,1,62,222,148,1,,,,,,,,
,,,,,,,,,,,,,FF,,,,,,,,0.7499,,,,,,,,,,,,,,,,,,,,,,60fdcf5f7303ef309710dbf6,61036b9c3c6d86eda699d88d,2021-07-29_21h02.42.340,Simcolourproject_2stim_asymm_v5,2020.2.10,MacIntel,60,61025ae37ef11b136ea224fe,,,,,,,,,3415,43.91796875,38.48046875,1,0,0,response1disk,,6,12.59765625,-11.25,1,0,0,rectangle,12.59765625,-11.25,1,0,0,12.59765625,-11.25,1,0,0,1,63,223,7,1,,,,,,,,
,,,,,,,,,,,,,FF,,,,,,,,0.6671,,,,,,,,,,,,,,,,,,,,,,60fdcf5f7303ef309710dbf6,61036b9c3c6d86eda699d88d,2021-07-29_21h02.42.340,Simcolourproject_2stim_asymm_v5,2020.2.10,MacIntel,60,61025ae37ef11b136ea224fe,,,,,,,,,2024,21.73828125,34.6171875,1,0,0,response1disk,,7,19.34765625,-1.96484375,1,0,0,rectangle,19.34765625,-1.96484375,1,0,0,19.34765625,-1.96484375,1,0,0,1,64,224,158,1,,,,,,,,
,,,,,,,,,,,,,FF,,,,,,,,0.6418,,,,,,,,,,,,,,,,,,,,,,60fdcf5f7303ef309710dbf6,61036b9c3c6d86eda699d88d,2021-07-29_21h02.42.340,Simcolourproject_2stim_asymm_v5,2020.2.10,MacIntel,60,61025ae37ef11b136ea224fe,,,,,,,,,3171,36.11328125,19.26953125,1,0,0,response1disk,,6,4.359375,-14.3671875,1,0,0,rectangle,4.359375,-14.3671875,1,0,0,4.359375,-14.3671875,1,0,0,1,65,225,116,1,,,,,,,,
,,,,,,,,,,,,,FF,,,,,,,,0.3826,,,,,,,,,,,,,,,,,,,,,,60fdcf5f7303ef309710dbf6,61036b9c3c6d86eda699d88d,2021-07-29_21h02.42.340,Simcolourproject_2stim_asymm_v5,2020.2.10,MacIntel,60,61025ae37ef11b136ea224fe,,,,,,,,,302,50.73828125,48.71484375,1,0,0,response1disk,,6,13.69140625,6.8515625,1,0,0,rectangle,13.69140625,6.8515625,1,0,0,13.69140625,6.8515625,1,0,0,1,66,226,76,1,,,,,,,,
,,,,,,,,,,,,,FF,,,,,,,,0.3165,,,,,,,,,,,,,,,,,,,,,,60fdcf5f7303ef309710dbf6,61036b9c3c6d86eda699d88d,2021-07-29_21h02.42.340,Simcolourproject_2stim_asymm_v5,2020.2.10,MacIntel,60,61025ae37ef11b136ea224fe,,,,,,,,,1080,40.71875,43.9609375,1,0,0,response1disk,,7,17.3046875,7.1640625,1,0,0,rectangle,17.3046875,7.1640625,1,0,0,17.3046875,7.1640625,1,0,0,1,67,227,23,1,,,,,,,,
,,,,,,,,,,,,,FF,,,,,,,,0.4161,,,,,,,,,,,,,,,,,,,,,,60fdcf5f7303ef309710dbf6,61036b9c3c6d86eda699d88d,2021-07-29_21h02.42.340,Simcolourproject_2stim_asymm_v5,2020.2.10,MacIntel,60,61025ae37ef11b136ea224fe,,,,,,,,,205,48.51953125,60.48046875,1,0,0,response1disk,,7,17.19140625,0.765625,1,0,0,rectangle,17.19140625,0.765625,1,0,0,17.19140625,0.765625,1,0,0,1,68,228,42,1,,,,,,,,
,,,,,,,,,,,,,FF,,,,,,,,0.7508,,,,,,,,,,,,,,,,,,,,,,60fdcf5f7303ef309710dbf6,61036b9c3c6d86eda699d88d,2021-07-29_21h02.42.340,Simcolourproject_2stim_asymm_v5,2020.2.10,MacIntel,60,61025ae37ef11b136ea224fe,,,,,,,,,1447,-39.62890625,34.61328125,1,0,0,response7disk,,1,-11.734375,0.94921875,1,0,0,rectangle,-11.734375,0.94921875,1,0,0,-11.734375,0.94921875,1,0,0,1,69,229,54,1,,,,,,,,
,,,,,,,,,,,,,FF,,,,,,,,2.6346,,,,,,,,,,,,,,,,,,,,,,60fdcf5f7303ef309710dbf6,61036b9c3c6d86eda699d88d,2021-07-29_21h02.42.340,Simcolourproject_2stim_asymm_v5,2020.2.10,MacIntel,60,61025ae37ef11b136ea224fe,,,,,,,,,1168,-27.453125,24.66015625,1,0,0,response7disk,,1,-7.83203125,-3.6171875,1,0,0,rectangle,-7.83203125,-3.6171875,1,0,0,-7.83203125,-3.6171875,1,0,0,1,70,230,86,1,,,,,,,,
,,,,,,,,,,,,,FF,,,,,,,,0.0667,,,,,,,,,,,,,,,,,,,,,,60fdcf5f7303ef309710dbf6,61036b9c3c6d86eda699d88d,2021-07-29_21h02.42.340,Simcolourproject_2stim_asymm_v5,2020.2.10,MacIntel,60,61025ae37ef11b136ea224fe,,,,,,,,,3411,62.48828125,68.4453125,1,0,0,response1disk,,7,22.625,-12.40234375,1,0,0,rectangle,22.625,-12.40234375,1,0,0,22.625,-12.40234375,1,0,0,1,71,231,45,1,,,,,,,,
,,,,,,,,,,,,,FF,,,,,,,,0.0491,,,,,,,,,,,,,,,,,,,,,,60fdcf5f7303ef309710dbf6,61036b9c3c6d86eda699d88d,2021-07-29_21h02.42.340,Simcolourproject_2stim_asymm_v5,2020.2.10,MacIntel,60,61025ae37ef11b136ea224fe,,,,,,,,,3249,54.1953125,84.46484375,1,0,0,response1disk,,7,17.3046875,1.89453125,1,0,0,rectangle,17.3046875,1.89453125,1,0,0,17.3046875,1.89453125,1,0,0,1,72,232,85,1,,,,,,,,
,,,,,,,,,,,,,FF,,,,,,,,0.0835,,,,,,,,,,,,,,,,,,,,,,60fdcf5f7303ef309710dbf6,61036b9c3c6d86eda699d88d,2021-07-29_21h02.42.340,Simcolourproject_2stim_asymm_v5,2020.2.10,MacIntel,60,61025ae37ef11b136ea224fe,,,,,,,,,2175,93.8828125,46.3125,1,0,0,response1disk,,6,27.9765625,9.48828125,1,0,0,rectangle,27.9765625,9.48828125,1,0,0,27.9765625,9.48828125,1,0,0,1,73,233,33,1,,,,,,,,
,,,,,,,,,,,,,FF,,,,,,,,0.9341,,,,,,,,,,,,,,,,,,,,,,60fdcf5f7303ef309710dbf6,61036b9c3c6d86eda699d88d,2021-07-29_21h02.42.340,Simcolourproject_2stim_asymm_v5,2020.2.10,MacIntel,60,61025ae37ef11b136ea224fe,,,,,,,,,9,-80.12109375,-52.3125,1,0,0,response5disk,,2,1.59765625,-2.67578125,1,0,0,rectangle,1.59765625,-2.67578125,1,0,0,1.59765625,-2.67578125,1,0,0,1,74,234,41,1,,,,,,,,
,,,,,,,,,,,,,FF,,,,,,,,0.5008,,,,,,,,,,,,,,,,,,,,,,60fdcf5f7303ef309710dbf6,61036b9c3c6d86eda699d88d,2021-07-29_21h02.42.340,Simcolourproject_2stim_asymm_v5,2020.2.10,MacIntel,60,61025ae37ef11b136ea224fe,,,,,,,,,2945,-43.0859375,-78.46484375,1,0,0,response5disk,,3,26.90234375,12.55859375,1,0,0,rectangle,26.90234375,12.55859375,1,0,0,26.90234375,12.55859375,1,0,0,1,75,235,128,1,,,,,,,,
,,,,,,,,,,,,,FF,,,,,,,,0.7176,,,,,,,,,,,,,,,,,,,,,,60fdcf5f7303ef309710dbf6,61036b9c3c6d86eda699d88d,2021-07-29_21h02.42.340,Simcolourproject_2stim_asymm_v5,2020.2.10,MacIntel,60,61025ae37ef11b136ea224fe,,,,,,,,,4095,-24.0546875,47.41796875,1,0,0,response7disk,,0,-6.015625,2.41015625,1,0,0,rectangle,-6.015625,2.41015625,1,0,0,-6.015625,2.41015625,1,0,0,1,76,236,107,1,,,,,,,,
,,,,,,,,,,,,,FF,,,,,,,,0.4494,,,,,,,,,,,,,,,,,,,,,,60fdcf5f7303ef309710dbf6,61036b9c3c6d86eda699d88d,2021-07-29_21h02.42.340,Simcolourproject_2stim_asymm_v5,2020.2.10,MacIntel,60,61025ae37ef11b136ea224fe,,,,,,,,,3085,-43.45703125,45.48828125,1,0,0,response7disk,,0,4.01171875,-11.3359375,1,0,0,rectangle,4.01171875,-11.3359375,1,0,0,4.01171875,-11.3359375,1,0,0,1,77,237,159,1,,,,,,,,
,,,,,,,,,,,,,FF,,,,,,,,0.3495,,,,,,,,,,,,,,,,,,,,,,60fdcf5f7303ef309710dbf6,61036b9c3c6d86eda699d88d,2021-07-29_21h02.42.340,Simcolourproject_2stim_asymm_v5,2020.2.10,MacIntel,60,61025ae37ef11b136ea224fe,,,,,,,,,3204,46.74609375,-38.765625,1,0,0,response3disk,,5,-18.26171875,1.3359375,1,0,0,rectangle,-18.26171875,1.3359375,1,0,0,-18.26171875,1.3359375,1,0,0,1,78,238,27,1,,,,,,,,
,,,,,,,,,,,,,FF,,,,,,,,0.3738,,,,,,,,,,,,,,,,,,,,,,60fdcf5f7303ef309710dbf6,61036b9c3c6d86eda699d88d,2021-07-29_21h02.42.340,Simcolourproject_2stim_asymm_v5,2020.2.10,MacIntel,60,61025ae37ef11b136ea224fe,,,,,,,,,1383,45.01171875,-66.546875,1,0,0,response3disk,,4,3.71484375,7.45703125,1,0,0,rectangle,3.71484375,7.45703125,1,0,0,3.71484375,7.45703125,1,0,0,1,79,239,84,1,,,,,,,,
,,,,,,,,,,,,,FF,,,,,,,,0.3143,,,,,,,,,,,,,,,,,,,,,,60fdcf5f7303ef309710dbf6,61036b9c3c6d86eda699d88d,2021-07-29_21h02.42.340,Simcolourproject_2stim_asymm_v5,2020.2.10,MacIntel,60,61025ae37ef11b136ea224fe,,,,,,,,,1961,-33.12890625,-47.390625,1,0,0,response5disk,,3,4.265625,9.99609375,1,0,0,rectangle,4.265625,9.99609375,1,0,0,4.265625,9.99609375,1,0,0,1,80,240,77,1,,,,,,,,
,,,,,,,,,,,,,FF,,,,,,,,0.4363,,,,,,,,,,,,,,,,,,,,,,60fdcf5f7303ef309710dbf6,61036b9c3c6d86eda699d88d,2021-07-29_21h02.42.340,Simcolourproject_2stim_asymm_v5,2020.2.10,MacIntel,60,61025ae37ef11b136ea224fe,,,,,,,,,3432,-36.51171875,-15.30078125,1,0,0,response5disk,,2,22.95703125,-0.3671875,1,0,0,rectangle,22.95703125,-0.3671875,1,0,0,22.95703125,-0.3671875,1,0,0,1,81,241,57,1,,,,,,,,
,,,,,,,,,,,,,FF,,,,,,,,0.5167,,,,,,,,,,,,,,,,,,,,,,60fdcf5f7303ef309710dbf6,61036b9c3c6d86eda699d88d,2021-07-29_21h02.42.340,Simcolourproject_2stim_asymm_v5,2020.2.10,MacIntel,60,61025ae37ef11b136ea224fe,,,,,,,,,3744,-54.73046875,18.4375,1,0,0,response7disk,,1,-0.78125,8.16015625,1,0,0,rectangle,-0.78125,8.16015625,1,0,0,-0.78125,8.16015625,1,0,0,1,82,242,97,1,,,,,,,,
,,,,,,,,,,,,,FF,,,,,,,,0.5822,,,,,,,,,,,,,,,,,,,,,,60fdcf5f7303ef309710dbf6,61036b9c3c6d86eda699d88d,2021-07-29_21h02.42.340,Simcolourproject_2stim_asymm_v5,2020.2.10,MacIntel,60,61025ae37ef11b136ea224fe,,,,,,,,,494,45.9453125,36.0546875,1,0,0,response1disk,,6,6.296875,1.38671875,1,0,0,rectangle,6.296875,1.38671875,1,0,0,6.296875,1.38671875,1,0,0,1,83,243,137,1,,,,,,,,
,,,,,,,,,,,,,FF,,,,,,,,1.4015,,,,,,,,,,,,,,,,,,,,,,60fdcf5f7303ef309710dbf6,61036b9c3c6d86eda699d88d,2021-07-29_21h02.42.340,Simcolourproject_2stim_asymm_v5,2020.2.10,MacIntel,60,61025ae37ef11b136ea224fe,,,,,,,,,3625,-57.91796875,-24.78125,1,0,0,response5disk,,2,-3.23046875,4.01953125,1,0,0,rectangle,-3.23046875,4.01953125,1,0,0,-3.23046875,4.01953125,1,0,0,1,84,244,9,1,,,,,,,,
,,,,,,,,,,,,,FF,,,,,,,,0.8668,,,,,,,,,,,,,,,,,,,,,,60fdcf5f7303ef309710dbf6,61036b9c3c6d86eda699d88d,2021-07-29_21h02.42.340,Simcolourproject_2stim_asymm_v5,2020.2.10,MacIntel,60,61025ae37ef11b136ea224fe,,,,,,,,,3068,26.76171875,35.671875,1,0,0,response1disk,,7,5.54296875,-4.1875,1,0,0,rectangle,5.54296875,-4.1875,1,0,0,5.54296875,-4.1875,1,0,0,1,85,245,134,1,,,,,,,,
,,,,,,,,,,,,,FF,,,,,,,,0.6186,,,,,,,,,,,,,,,,,,,,,,60fdcf5f7303ef309710dbf6,61036b9c3c6d86eda699d88d,2021-07-29_21h02.42.340,Simcolourproject_2stim_asymm_v5,2020.2.10,MacIntel,60,61025ae37ef11b136ea224fe,,,,,,,,,552,52.7734375,76.74609375,1,0,0,response1disk,,7,8.68359375,-6.67578125,1,0,0,rectangle,8.68359375,-6.67578125,1,0,0,8.68359375,-6.67578125,1,0,0,1,86,246,145,1,,,,,,,,
,,,,,,,,,,,,,FF,,,,,,,,0.6657,,,,,,,,,,,,,,,,,,,,,,60fdcf5f7303ef309710dbf6,61036b9c3c6d86eda699d88d,2021-07-29_21h02.42.340,Simcolourproject_2stim_asymm_v5,2020.2.10,MacIntel,60,61025ae37ef11b136ea224fe,,,,,,,,,4172,16.671875,-54.0234375,1,0,0,response3disk,,4,2.2734375,-1.0390625,1,0,0,rectangle,2.2734375,-1.0390625,1,0,0,2.2734375,-1.0390625,1,0,0,1,87,247,19,1,,,,,,,,
,,,,,,,,,,,,,FF,,,,,,,,0.6009,,,,,,,,,,,,,,,,,,,,,,60fdcf5f7303ef309710dbf6,61036b9c3c6d86eda699d88d,2021-07-29_21h02.42.340,Simcolourproject_2stim_asymm_v5,2020.2.10,MacIntel,60,61025ae37ef11b136ea224fe,,,,,,,,,3247,39.52734375,-25.66015625,1,0,0,response3disk,,5,17.5234375,-9.69140625,1,0,0,rectangle,17.5234375,-9.69140625,1,0,0,17.5234375,-9.69140625,1,0,0,1,88,248,22,1,,,,,,,,
