key_resp.keys,key_resp.rt,key_resp_14.keys,key_resp_14.rt,key_resp_15.keys,key_resp_15.rt,key_resp_17.keys,key_resp_17.rt,key_resp_9.keys,key_resp_9.rt,key_resp_10.keys,key_resp_10.rt,practice_comparison,Ecc,mouse_5.x,mouse_5.y,mouse_5.leftButton,mouse_5.midButton,mouse_5.rightButton,mouse_5.clicked_name,pracsimilarity,response_time,mouse_10.x,mouse_10.y,mouse_10.leftButton,mouse_10.midButton,mouse_10.rightButton,mouse_10.clicked_name,mouse_7.x,mouse_7.y,mouse_7.leftButton,mouse_7.midButton,mouse_7.rightButton,mouse_6.x,mouse_6.y,mouse_6.leftButton,mouse_6.midButton,mouse_6.rightButton,duringprac.thisRepN,duringprac.thisTrialN,duringprac.thisN,duringprac.thisIndex,duringprac.ran,participant,session,date,expName,psychopyVersion,OS,frameRate,study_id,mouse_7.clicked_name,catchpracsimilarity,catch_response_time,catchnumberprac,catchtrialorderprac,mouse_6.clicked_name,key_resp_22.keys,key_resp_22.rt,realcomparison,mouse.x,mouse.y,mouse.leftButton,mouse.midButton,mouse.rightButton,mouse.clicked_name,Colour2,similarity,mouse_2.x,mouse_2.y,mouse_2.leftButton,mouse_2.midButton,mouse_2.rightButton,mouse_2.clicked_name,mouse_3.x,mouse_3.y,mouse_3.leftButton,mouse_3.midButton,mouse_3.rightButton,mouse_11.x,mouse_11.y,mouse_11.leftButton,mouse_11.midButton,mouse_11.rightButton,trials_2.thisRepN,trials_2.thisTrialN,trials_2.thisN,trials_2.thisIndex,trials_2.ran,Colour1,mouse_3.clicked_name,catchornah,catchsimilarity,catchnumber,catchtrialorder,catchRT,mouse_11.clicked_name
space,3.1959,space,30.3062,space,21.8142,space,14.2476,space,0.8501,space,3.0146,88,FF,-58.80078125,-31.16796875,1,0,0,response5disk_5,2,7.9031,-15.359375,5.9296875,1,0,0,rectangle_8,-15.359375,5.9296875,1,0,0,-15.359375,5.9296875,1,0,0,0,0,0,5,1,60fd62affd3d7f977a27fc6b,61036e3ff1dd5187a7b63c6e,2021-07-29_23h14.00.701,Simcolourproject_2stim_asymm_v5,2020.2.10,MacIntel,60,61025ae37ef11b136ea224fe,,,,,,,,,,,,,,,,,,,,,,,,,,,,,,,,,,,,,,,,,,,,,,
,,,,,,,,,,,,136,PF,27.73046875,66.546875,1,0,0,response1disk_5,7,4.4851,5.6484375,6.58984375,1,0,0,rectangle_8,57.1015625,-34.23828125,1,0,0,2.546875,4.95703125,1,0,0,0,1,1,2,1,60fd62affd3d7f977a27fc6b,61036e3ff1dd5187a7b63c6e,2021-07-29_23h14.00.701,Simcolourproject_2stim_asymm_v5,2020.2.10,MacIntel,60,61025ae37ef11b136ea224fe,response3disk_7,5,3.0331,6,"[2,5]",rectangle_4,,,,,,,,,,,,,,,,,,,,,,,,,,,,,,,,,,,,,,,,
,,,,,,,,,,,,81,FF,-60.92578125,-29.34765625,1,0,0,response5disk_5,2,2.2493,-14.87109375,-5.01953125,1,0,0,rectangle_8,-14.87109375,-5.01953125,1,0,0,-14.87109375,-5.01953125,1,0,0,0,2,2,3,1,60fd62affd3d7f977a27fc6b,61036e3ff1dd5187a7b63c6e,2021-07-29_23h14.00.701,Simcolourproject_2stim_asymm_v5,2020.2.10,MacIntel,60,61025ae37ef11b136ea224fe,,,,,,,,,,,,,,,,,,,,,,,,,,,,,,,,,,,,,,,,,,,,,,
,,,,,,,,,,,,4,FF,58.74609375,41.87109375,1,0,0,response1disk_5,6,2.2652,4.37109375,0.375,1,0,0,rectangle_8,4.37109375,0.375,1,0,0,4.37109375,0.375,1,0,0,0,3,3,0,1,60fd62affd3d7f977a27fc6b,61036e3ff1dd5187a7b63c6e,2021-07-29_23h14.00.701,Simcolourproject_2stim_asymm_v5,2020.2.10,MacIntel,60,61025ae37ef11b136ea224fe,,,,,,,,,,,,,,,,,,,,,,,,,,,,,,,,,,,,,,,,,,,,,,
,,,,,,,,,,,,129,PF,-54.765625,-21.65625,1,0,0,response5disk_5,2,3.4501,-5.47265625,8.8046875,1,0,0,rectangle_8,75.8359375,28.6875,1,0,0,-2.640625,-3.76953125,1,0,0,0,4,4,6,1,60fd62affd3d7f977a27fc6b,61036e3ff1dd5187a7b63c6e,2021-07-29_23h14.00.701,Simcolourproject_2stim_asymm_v5,2020.2.10,MacIntel,60,61025ae37ef11b136ea224fe,response1disk_7,6,2.8512,6,"[2,5]",rectangle_4,,,,,,,,,,,,,,,,,,,,,,,,,,,,,,,,,,,,,,,,
,,,,,,,,,,,,73,PF,96.05859375,34.30859375,1,0,0,response1disk_5,6,2.0838,17.23828125,4.78515625,1,0,0,rectangle_8,17.23828125,4.78515625,1,0,0,17.23828125,4.78515625,1,0,0,0,5,5,4,1,60fd62affd3d7f977a27fc6b,61036e3ff1dd5187a7b63c6e,2021-07-29_23h14.00.701,Simcolourproject_2stim_asymm_v5,2020.2.10,MacIntel,60,61025ae37ef11b136ea224fe,,,,,,,,,,,,,,,,,,,,,,,,,,,,,,,,,,,,,,,,,,,,,,
,,,,,,,,,,,,113,PF,90.140625,-70.7734375,1,0,0,response3disk_5,5,2.7829,16.46875,-11.08203125,1,0,0,rectangle_8,16.46875,-11.08203125,1,0,0,16.46875,-11.08203125,1,0,0,0,6,6,1,1,60fd62affd3d7f977a27fc6b,61036e3ff1dd5187a7b63c6e,2021-07-29_23h14.00.701,Simcolourproject_2stim_asymm_v5,2020.2.10,MacIntel,60,61025ae37ef11b136ea224fe,,,,,,,,,,,,,,,,,,,,,,,,,,,,,,,,,,,,,,,,,,,,,,
,,,,,,,,,,,,,FF,,,,,,,,2.9852,,,,,,,,,,,,,,,,,,,,,,60fd62affd3d7f977a27fc6b,61036e3ff1dd5187a7b63c6e,2021-07-29_23h14.00.701,Simcolourproject_2stim_asymm_v5,2020.2.10,MacIntel,60,61025ae37ef11b136ea224fe,,,,,,,space,4.3531,181,73.265625,35.1796875,1,0,0,response1disk,,6,10.0234375,5.859375,1,0,0,rectangle,10.0234375,5.859375,1,0,0,10.0234375,5.859375,1,0,0,0,0,0,118,1,,,,,,,,
,,,,,,,,,,,,,FF,,,,,,,,3.035,,,,,,,,,,,,,,,,,,,,,,60fd62affd3d7f977a27fc6b,61036e3ff1dd5187a7b63c6e,2021-07-29_23h14.00.701,Simcolourproject_2stim_asymm_v5,2020.2.10,MacIntel,60,61025ae37ef11b136ea224fe,,,,,,,,,2544,41.87109375,-83.40625,1,0,0,response3disk,,4,7.625,-5.71484375,1,0,0,rectangle,7.625,-5.71484375,1,0,0,7.625,-5.71484375,1,0,0,0,1,1,116,1,,,,,,,,
,,,,,,,,,,,,,FF,,,,,,,,2.9155,,,,,,,,,,,,,,,,,,,,,,60fd62affd3d7f977a27fc6b,61036e3ff1dd5187a7b63c6e,2021-07-29_23h14.00.701,Simcolourproject_2stim_asymm_v5,2020.2.10,MacIntel,60,61025ae37ef11b136ea224fe,,,,,,,,,1606,36.00390625,-85.8671875,1,0,0,response3disk,,4,4.23046875,3.22265625,1,0,0,rectangle,91.76953125,-71.640625,1,0,0,10.75,11.74609375,1,0,0,0,2,2,74,1,,response3disk_3,TRUE,5,3,"[278,200,279,203,214,71,63,35,148,25,236,78,73,104,100,275,152,38,226,3]",2.2504,rectangle
,,,,,,,,,,,,,FF,,,,,,,,2.0999,,,,,,,,,,,,,,,,,,,,,,60fd62affd3d7f977a27fc6b,61036e3ff1dd5187a7b63c6e,2021-07-29_23h14.00.701,Simcolourproject_2stim_asymm_v5,2020.2.10,MacIntel,60,61025ae37ef11b136ea224fe,,,,,,,,,2819,71.70703125,63.3515625,1,0,0,response1disk,,6,6.70703125,-0.359375,1,0,0,rectangle,6.70703125,-0.359375,1,0,0,6.70703125,-0.359375,1,0,0,0,3,3,134,1,,,,,,,,
,,,,,,,,,,,,,FF,,,,,,,,1.9331,,,,,,,,,,,,,,,,,,,,,,60fd62affd3d7f977a27fc6b,61036e3ff1dd5187a7b63c6e,2021-07-29_23h14.00.701,Simcolourproject_2stim_asymm_v5,2020.2.10,MacIntel,60,61025ae37ef11b136ea224fe,,,,,,,,,843,87.140625,37.11328125,1,0,0,response1disk,,6,19.29296875,0.73046875,1,0,0,rectangle,19.29296875,0.73046875,1,0,0,19.29296875,0.73046875,1,0,0,0,4,4,75,1,,,,,,,,
,,,,,,,,,,,,,FF,,,,,,,,1.4497,,,,,,,,,,,,,,,,,,,,,,60fd62affd3d7f977a27fc6b,61036e3ff1dd5187a7b63c6e,2021-07-29_23h14.00.701,Simcolourproject_2stim_asymm_v5,2020.2.10,MacIntel,60,61025ae37ef11b136ea224fe,,,,,,,,,3138,36.16015625,50.140625,1,0,0,response1disk,,7,13.078125,12.40625,1,0,0,rectangle,13.078125,12.40625,1,0,0,13.078125,12.40625,1,0,0,0,5,5,102,1,,,,,,,,
,,,,,,,,,,,,,FF,,,,,,,,1.2655,,,,,,,,,,,,,,,,,,,,,,60fd62affd3d7f977a27fc6b,61036e3ff1dd5187a7b63c6e,2021-07-29_23h14.00.701,Simcolourproject_2stim_asymm_v5,2020.2.10,MacIntel,60,61025ae37ef11b136ea224fe,,,,,,,,,1486,26.26953125,49.421875,1,0,0,response1disk,,7,12.3515625,6.4453125,1,0,0,rectangle,12.3515625,6.4453125,1,0,0,12.3515625,6.4453125,1,0,0,0,6,6,95,1,,,,,,,,
,,,,,,,,,,,,,FF,,,,,,,,1.1497,,,,,,,,,,,,,,,,,,,,,,60fd62affd3d7f977a27fc6b,61036e3ff1dd5187a7b63c6e,2021-07-29_23h14.00.701,Simcolourproject_2stim_asymm_v5,2020.2.10,MacIntel,60,61025ae37ef11b136ea224fe,,,,,,,,,2176,32.29296875,43.0859375,1,0,0,response1disk,,7,22.44921875,0.44921875,1,0,0,rectangle,22.44921875,0.44921875,1,0,0,22.44921875,0.44921875,1,0,0,0,7,7,98,1,,,,,,,,
,,,,,,,,,,,,,FF,,,,,,,,1.8836,,,,,,,,,,,,,,,,,,,,,,60fd62affd3d7f977a27fc6b,61036e3ff1dd5187a7b63c6e,2021-07-29_23h14.00.701,Simcolourproject_2stim_asymm_v5,2020.2.10,MacIntel,60,61025ae37ef11b136ea224fe,,,,,,,,,1507,77.85546875,53.1171875,1,0,0,response1disk,,6,19.171875,10.1640625,1,0,0,rectangle,19.171875,10.1640625,1,0,0,19.171875,10.1640625,1,0,0,0,8,8,62,1,,,,,,,,
,,,,,,,,,,,,,FF,,,,,,,,1.4987,,,,,,,,,,,,,,,,,,,,,,60fd62affd3d7f977a27fc6b,61036e3ff1dd5187a7b63c6e,2021-07-29_23h14.00.701,Simcolourproject_2stim_asymm_v5,2020.2.10,MacIntel,60,61025ae37ef11b136ea224fe,,,,,,,,,77,-34.578125,59.4765625,1,0,0,response7disk,,0,-1.328125,5.16796875,1,0,0,rectangle,-1.328125,5.16796875,1,0,0,-1.328125,5.16796875,1,0,0,0,9,9,91,1,,,,,,,,
,,,,,,,,,,,,,FF,,,,,,,,3.0187,,,,,,,,,,,,,,,,,,,,,,60fd62affd3d7f977a27fc6b,61036e3ff1dd5187a7b63c6e,2021-07-29_23h14.00.701,Simcolourproject_2stim_asymm_v5,2020.2.10,MacIntel,60,61025ae37ef11b136ea224fe,,,,,,,,,4219,107.4257813,-38.38671875,1,0,0,response3disk,,5,16.00390625,0.15234375,1,0,0,rectangle,16.00390625,0.15234375,1,0,0,16.00390625,0.15234375,1,0,0,0,10,10,111,1,,,,,,,,
,,,,,,,,,,,,,FF,,,,,,,,1.1832,,,,,,,,,,,,,,,,,,,,,,60fd62affd3d7f977a27fc6b,61036e3ff1dd5187a7b63c6e,2021-07-29_23h14.00.701,Simcolourproject_2stim_asymm_v5,2020.2.10,MacIntel,60,61025ae37ef11b136ea224fe,,,,,,,,,2223,68.47265625,35.3828125,1,0,0,response1disk,,6,10.15625,-13.23828125,1,0,0,rectangle,10.15625,-13.23828125,1,0,0,10.15625,-13.23828125,1,0,0,0,11,11,38,1,,,,,,,,
,,,,,,,,,,,,,FF,,,,,,,,1.336,,,,,,,,,,,,,,,,,,,,,,60fd62affd3d7f977a27fc6b,61036e3ff1dd5187a7b63c6e,2021-07-29_23h14.00.701,Simcolourproject_2stim_asymm_v5,2020.2.10,MacIntel,60,61025ae37ef11b136ea224fe,,,,,,,,,3911,-75.1015625,-27.4921875,1,0,0,response5disk,,2,-11.97265625,-5.234375,1,0,0,rectangle,-11.97265625,-5.234375,1,0,0,-11.97265625,-5.234375,1,0,0,0,12,12,133,1,,,,,,,,
,,,,,,,,,,,,,FF,,,,,,,,2.6663,,,,,,,,,,,,,,,,,,,,,,60fd62affd3d7f977a27fc6b,61036e3ff1dd5187a7b63c6e,2021-07-29_23h14.00.701,Simcolourproject_2stim_asymm_v5,2020.2.10,MacIntel,60,61025ae37ef11b136ea224fe,,,,,,,,,1971,-75.53125,-38.1640625,1,0,0,response5disk,,2,-17.046875,-9.55078125,1,0,0,rectangle,-17.046875,-9.55078125,1,0,0,-17.046875,-9.55078125,1,0,0,0,13,13,96,1,,,,,,,,
,,,,,,,,,,,,,FF,,,,,,,,1.8166,,,,,,,,,,,,,,,,,,,,,,60fd62affd3d7f977a27fc6b,61036e3ff1dd5187a7b63c6e,2021-07-29_23h14.00.701,Simcolourproject_2stim_asymm_v5,2020.2.10,MacIntel,60,61025ae37ef11b136ea224fe,,,,,,,,,3795,49.9921875,-81.5546875,1,0,0,response3disk,,4,19.01953125,-11.109375,1,0,0,rectangle,19.01953125,-11.109375,1,0,0,19.01953125,-11.109375,1,0,0,0,14,14,109,1,,,,,,,,
,,,,,,,,,,,,,FF,,,,,,,,2.484,,,,,,,,,,,,,,,,,,,,,,60fd62affd3d7f977a27fc6b,61036e3ff1dd5187a7b63c6e,2021-07-29_23h14.00.701,Simcolourproject_2stim_asymm_v5,2020.2.10,MacIntel,60,61025ae37ef11b136ea224fe,,,,,,,,,865,-37.78125,-88.171875,1,0,0,response5disk,,3,-13.84375,3.5625,1,0,0,rectangle,-13.84375,3.5625,1,0,0,-13.84375,3.5625,1,0,0,0,15,15,153,1,,,,,,,,
,,,,,,,,,,,,,FF,,,,,,,,2.1681,,,,,,,,,,,,,,,,,,,,,,60fd62affd3d7f977a27fc6b,61036e3ff1dd5187a7b63c6e,2021-07-29_23h14.00.701,Simcolourproject_2stim_asymm_v5,2020.2.10,MacIntel,60,61025ae37ef11b136ea224fe,,,,,,,,,894,-83.4765625,-34.88671875,1,0,0,response5disk,,2,-7.453125,-0.11328125,1,0,0,rectangle,-7.453125,-0.11328125,1,0,0,-7.453125,-0.11328125,1,0,0,0,16,16,55,1,,,,,,,,
,,,,,,,,,,,,,FF,,,,,,,,1.5487,,,,,,,,,,,,,,,,,,,,,,60fd62affd3d7f977a27fc6b,61036e3ff1dd5187a7b63c6e,2021-07-29_23h14.00.701,Simcolourproject_2stim_asymm_v5,2020.2.10,MacIntel,60,61025ae37ef11b136ea224fe,,,,,,,,,196,-32.25,-74.05078125,1,0,0,response5disk,,3,-9.4609375,2.83203125,1,0,0,rectangle,-9.4609375,2.83203125,1,0,0,-9.4609375,2.83203125,1,0,0,0,17,17,117,1,,,,,,,,
,,,,,,,,,,,,,FF,,,,,,,,3.5998,,,,,,,,,,,,,,,,,,,,,,60fd62affd3d7f977a27fc6b,61036e3ff1dd5187a7b63c6e,2021-07-29_23h14.00.701,Simcolourproject_2stim_asymm_v5,2020.2.10,MacIntel,60,61025ae37ef11b136ea224fe,,,,,,,,,3285,47.12890625,-91.8046875,1,0,0,response3disk,,4,1.390625,-6.58203125,1,0,0,rectangle,1.390625,-6.58203125,1,0,0,1.390625,-6.58203125,1,0,0,0,18,18,67,1,,,,,,,,
,,,,,,,,,,,,,FF,,,,,,,,1.0493,,,,,,,,,,,,,,,,,,,,,,60fd62affd3d7f977a27fc6b,61036e3ff1dd5187a7b63c6e,2021-07-29_23h14.00.701,Simcolourproject_2stim_asymm_v5,2020.2.10,MacIntel,60,61025ae37ef11b136ea224fe,,,,,,,,,9,-28.83203125,-65.56640625,1,0,0,response5disk,,3,-10.6171875,-4.15625,1,0,0,rectangle,-10.6171875,-4.15625,1,0,0,-10.6171875,-4.15625,1,0,0,0,19,19,100,1,,,,,,,,
,,,,,,,,,,,,,FF,,,,,,,,1.2168,,,,,,,,,,,,,,,,,,,,,,60fd62affd3d7f977a27fc6b,61036e3ff1dd5187a7b63c6e,2021-07-29_23h14.00.701,Simcolourproject_2stim_asymm_v5,2020.2.10,MacIntel,60,61025ae37ef11b136ea224fe,,,,,,,,,2908,53.43359375,-72.6953125,1,0,0,response3disk,,4,14.2578125,2.40625,1,0,0,rectangle,14.2578125,2.40625,1,0,0,14.2578125,2.40625,1,0,0,0,20,20,46,1,,,,,,,,
,,,,,,,,,,,,,FF,,,,,,,,1.8824,,,,,,,,,,,,,,,,,,,,,,60fd62affd3d7f977a27fc6b,61036e3ff1dd5187a7b63c6e,2021-07-29_23h14.00.701,Simcolourproject_2stim_asymm_v5,2020.2.10,MacIntel,60,61025ae37ef11b136ea224fe,,,,,,,,,1115,74.27734375,-45.17578125,1,0,0,response3disk,,5,3.56640625,-5.7265625,1,0,0,rectangle,3.56640625,-5.7265625,1,0,0,3.56640625,-5.7265625,1,0,0,0,21,21,123,1,,,,,,,,
,,,,,,,,,,,,,FF,,,,,,,,1.7842,,,,,,,,,,,,,,,,,,,,,,60fd62affd3d7f977a27fc6b,61036e3ff1dd5187a7b63c6e,2021-07-29_23h14.00.701,Simcolourproject_2stim_asymm_v5,2020.2.10,MacIntel,60,61025ae37ef11b136ea224fe,,,,,,,,,4333,52.3359375,73.28125,1,0,0,response1disk,,7,26.40234375,-3.3046875,1,0,0,rectangle,26.40234375,-3.3046875,1,0,0,26.40234375,-3.3046875,1,0,0,0,22,22,32,1,,,,,,,,
,,,,,,,,,,,,,FF,,,,,,,,1.4164,,,,,,,,,,,,,,,,,,,,,,60fd62affd3d7f977a27fc6b,61036e3ff1dd5187a7b63c6e,2021-07-29_23h14.00.701,Simcolourproject_2stim_asymm_v5,2020.2.10,MacIntel,60,61025ae37ef11b136ea224fe,,,,,,,,,4097,-36.51171875,-61.44921875,1,0,0,response5disk,,3,-2.30859375,10.01171875,1,0,0,rectangle,-2.30859375,10.01171875,1,0,0,-2.30859375,10.01171875,1,0,0,0,23,23,43,1,,,,,,,,
,,,,,,,,,,,,,FF,,,,,,,,1.9169,,,,,,,,,,,,,,,,,,,,,,60fd62affd3d7f977a27fc6b,61036e3ff1dd5187a7b63c6e,2021-07-29_23h14.00.701,Simcolourproject_2stim_asymm_v5,2020.2.10,MacIntel,60,61025ae37ef11b136ea224fe,,,,,,,,,1788,72.9609375,-59.359375,1,0,0,response3disk,,5,9.74609375,-9.62890625,1,0,0,rectangle,-82.65234375,-36.67578125,1,0,0,-3.7109375,-2.171875,1,0,0,0,24,24,122,1,,response5disk_3,TRUE,2,1,"[278,200,279,203,214,71,63,35,148,25,236,78,73,104,100,275,152,38,226,3]",2.8996,rectangle
,,,,,,,,,,,,,FF,,,,,,,,1.6166,,,,,,,,,,,,,,,,,,,,,,60fd62affd3d7f977a27fc6b,61036e3ff1dd5187a7b63c6e,2021-07-29_23h14.00.701,Simcolourproject_2stim_asymm_v5,2020.2.10,MacIntel,60,61025ae37ef11b136ea224fe,,,,,,,,,3987,76.08984375,28.78125,1,0,0,response1disk,,6,6.8359375,3.19140625,1,0,0,rectangle,6.8359375,3.19140625,1,0,0,6.8359375,3.19140625,1,0,0,0,25,25,1,1,,,,,,,,
,,,,,,,,,,,,,FF,,,,,,,,1.4671,,,,,,,,,,,,,,,,,,,,,,60fd62affd3d7f977a27fc6b,61036e3ff1dd5187a7b63c6e,2021-07-29_23h14.00.701,Simcolourproject_2stim_asymm_v5,2020.2.10,MacIntel,60,61025ae37ef11b136ea224fe,,,,,,,,,1347,-38.70703125,-54,1,0,0,response5disk,,3,-9.12109375,-3.40234375,1,0,0,rectangle,-9.12109375,-3.40234375,1,0,0,-9.12109375,-3.40234375,1,0,0,0,26,26,41,1,,,,,,,,
,,,,,,,,,,,,,FF,,,,,,,,1.6013,,,,,,,,,,,,,,,,,,,,,,60fd62affd3d7f977a27fc6b,61036e3ff1dd5187a7b63c6e,2021-07-29_23h14.00.701,Simcolourproject_2stim_asymm_v5,2020.2.10,MacIntel,60,61025ae37ef11b136ea224fe,,,,,,,,,4329,55.734375,-87.29296875,1,0,0,response3disk,,4,17.203125,-0.11328125,1,0,0,rectangle,17.203125,-0.11328125,1,0,0,17.203125,-0.11328125,1,0,0,0,27,27,54,1,,,,,,,,
,,,,,,,,,,,,,FF,,,,,,,,1.133,,,,,,,,,,,,,,,,,,,,,,60fd62affd3d7f977a27fc6b,61036e3ff1dd5187a7b63c6e,2021-07-29_23h14.00.701,Simcolourproject_2stim_asymm_v5,2020.2.10,MacIntel,60,61025ae37ef11b136ea224fe,,,,,,,,,3538,43.85546875,86.1875,1,0,0,response1disk,,7,-2.82421875,-6.13671875,1,0,0,rectangle,-2.82421875,-6.13671875,1,0,0,-2.82421875,-6.13671875,1,0,0,0,28,28,73,1,,,,,,,,
,,,,,,,,,,,,,FF,,,,,,,,1.5823,,,,,,,,,,,,,,,,,,,,,,60fd62affd3d7f977a27fc6b,61036e3ff1dd5187a7b63c6e,2021-07-29_23h14.00.701,Simcolourproject_2stim_asymm_v5,2020.2.10,MacIntel,60,61025ae37ef11b136ea224fe,,,,,,,,,4218,-68.9375,-52.4140625,1,0,0,response5disk,,2,-8.2265625,-9.3671875,1,0,0,rectangle,-8.2265625,-9.3671875,1,0,0,-8.2265625,-9.3671875,1,0,0,0,29,29,83,1,,,,,,,,
,,,,,,,,,,,,,FF,,,,,,,,1.2322,,,,,,,,,,,,,,,,,,,,,,60fd62affd3d7f977a27fc6b,61036e3ff1dd5187a7b63c6e,2021-07-29_23h14.00.701,Simcolourproject_2stim_asymm_v5,2020.2.10,MacIntel,60,61025ae37ef11b136ea224fe,,,,,,,,,2584,73.30859375,-47.15625,1,0,0,response3disk,,5,21.7421875,-10.46484375,1,0,0,rectangle,21.7421875,-10.46484375,1,0,0,21.7421875,-10.46484375,1,0,0,0,30,30,87,1,,,,,,,,
,,,,,,,,,,,,,FF,,,,,,,,1.1836,,,,,,,,,,,,,,,,,,,,,,60fd62affd3d7f977a27fc6b,61036e3ff1dd5187a7b63c6e,2021-07-29_23h14.00.701,Simcolourproject_2stim_asymm_v5,2020.2.10,MacIntel,60,61025ae37ef11b136ea224fe,,,,,,,,,1368,-65.8046875,39.5,1,0,0,response7disk,,1,-10.484375,5.30859375,1,0,0,rectangle,-10.484375,5.30859375,1,0,0,-10.484375,5.30859375,1,0,0,0,31,31,101,1,,,,,,,,
,,,,,,,,,,,,,FF,,,,,,,,1.6322,,,,,,,,,,,,,,,,,,,,,,60fd62affd3d7f977a27fc6b,61036e3ff1dd5187a7b63c6e,2021-07-29_23h14.00.701,Simcolourproject_2stim_asymm_v5,2020.2.10,MacIntel,60,61025ae37ef11b136ea224fe,,,,,,,,,3252,-39.4765625,-87.828125,1,0,0,response5disk,,3,-8.4453125,-0.26171875,1,0,0,rectangle,-8.4453125,-0.26171875,1,0,0,-8.4453125,-0.26171875,1,0,0,0,32,32,19,1,,,,,,,,
,,,,,,,,,,,,,FF,,,,,,,,2.2171,,,,,,,,,,,,,,,,,,,,,,60fd62affd3d7f977a27fc6b,61036e3ff1dd5187a7b63c6e,2021-07-29_23h14.00.701,Simcolourproject_2stim_asymm_v5,2020.2.10,MacIntel,60,61025ae37ef11b136ea224fe,,,,,,,,,3469,-78.72265625,-38.359375,1,0,0,response5disk,,2,-24.5078125,-11.359375,1,0,0,rectangle,-24.5078125,-11.359375,1,0,0,-24.5078125,-11.359375,1,0,0,0,33,33,35,1,,,,,,,,
,,,,,,,,,,,,,FF,,,,,,,,2.5337,,,,,,,,,,,,,,,,,,,,,,60fd62affd3d7f977a27fc6b,61036e3ff1dd5187a7b63c6e,2021-07-29_23h14.00.701,Simcolourproject_2stim_asymm_v5,2020.2.10,MacIntel,60,61025ae37ef11b136ea224fe,,,,,,,,,62,89.33203125,26.88671875,1,0,0,response1disk,,6,15.48828125,-3.66796875,1,0,0,rectangle,-74.6328125,55.38671875,1,0,0,-1.46875,-5.0234375,1,0,0,0,34,34,49,1,,response7disk_3,TRUE,1,0,"[278,200,279,203,214,71,63,35,148,25,236,78,73,104,100,275,152,38,226,3]",1.8842,rectangle
,,,,,,,,,,,,,FF,,,,,,,,1.6163,,,,,,,,,,,,,,,,,,,,,,60fd62affd3d7f977a27fc6b,61036e3ff1dd5187a7b63c6e,2021-07-29_23h14.00.701,Simcolourproject_2stim_asymm_v5,2020.2.10,MacIntel,60,61025ae37ef11b136ea224fe,,,,,,,,,702,-69.8359375,-48.55078125,1,0,0,response5disk,,2,-1.1484375,-2.25390625,1,0,0,rectangle,-1.1484375,-2.25390625,1,0,0,-1.1484375,-2.25390625,1,0,0,0,35,35,155,1,,,,,,,,
,,,,,,,,,,,,,FF,,,,,,,,1.166,,,,,,,,,,,,,,,,,,,,,,60fd62affd3d7f977a27fc6b,61036e3ff1dd5187a7b63c6e,2021-07-29_23h14.00.701,Simcolourproject_2stim_asymm_v5,2020.2.10,MacIntel,60,61025ae37ef11b136ea224fe,,,,,,,,,2849,52.22265625,-68.06640625,1,0,0,response3disk,,4,3.3515625,8.4921875,1,0,0,rectangle,3.3515625,8.4921875,1,0,0,3.3515625,8.4921875,1,0,0,0,36,36,159,1,,,,,,,,
,,,,,,,,,,,,,FF,,,,,,,,1.1509,,,,,,,,,,,,,,,,,,,,,,60fd62affd3d7f977a27fc6b,61036e3ff1dd5187a7b63c6e,2021-07-29_23h14.00.701,Simcolourproject_2stim_asymm_v5,2020.2.10,MacIntel,60,61025ae37ef11b136ea224fe,,,,,,,,,3772,65.1640625,-17.3203125,1,0,0,response3disk,,5,-1.60546875,3.37890625,1,0,0,rectangle,-58.8828125,41.7890625,1,0,0,16.36328125,-2.4765625,1,0,0,0,37,37,30,1,,response7disk_3,TRUE,1,6,"[278,200,279,203,214,71,63,35,148,25,236,78,73,104,100,275,152,38,226,3]",1.7327,rectangle
,,,,,,,,,,,,,FF,,,,,,,,1.0828,,,,,,,,,,,,,,,,,,,,,,60fd62affd3d7f977a27fc6b,61036e3ff1dd5187a7b63c6e,2021-07-29_23h14.00.701,Simcolourproject_2stim_asymm_v5,2020.2.10,MacIntel,60,61025ae37ef11b136ea224fe,,,,,,,,,1968,69.10546875,-41.46484375,1,0,0,response3disk,,5,22.53125,-7.125,1,0,0,rectangle,22.53125,-7.125,1,0,0,22.53125,-7.125,1,0,0,0,38,38,137,1,,,,,,,,
,,,,,,,,,,,,,FF,,,,,,,,1.0323,,,,,,,,,,,,,,,,,,,,,,60fd62affd3d7f977a27fc6b,61036e3ff1dd5187a7b63c6e,2021-07-29_23h14.00.701,Simcolourproject_2stim_asymm_v5,2020.2.10,MacIntel,60,61025ae37ef11b136ea224fe,,,,,,,,,727,42.5703125,-96.75,1,0,0,response3disk,,4,6.36328125,-10.40234375,1,0,0,rectangle,6.36328125,-10.40234375,1,0,0,6.36328125,-10.40234375,1,0,0,0,39,39,115,1,,,,,,,,
,,,,,,,,,,,,,FF,,,,,,,,1.7169,,,,,,,,,,,,,,,,,,,,,,60fd62affd3d7f977a27fc6b,61036e3ff1dd5187a7b63c6e,2021-07-29_23h14.00.701,Simcolourproject_2stim_asymm_v5,2020.2.10,MacIntel,60,61025ae37ef11b136ea224fe,,,,,,,,,2664,35.76953125,-88.91015625,1,0,0,response3disk,,4,7.01171875,-2.5546875,1,0,0,rectangle,7.01171875,-2.5546875,1,0,0,7.01171875,-2.5546875,1,0,0,0,40,40,157,1,,,,,,,,
,,,,,,,,,,,,,FF,,,,,,,,1.0167,,,,,,,,,,,,,,,,,,,,,,60fd62affd3d7f977a27fc6b,61036e3ff1dd5187a7b63c6e,2021-07-29_23h14.00.701,Simcolourproject_2stim_asymm_v5,2020.2.10,MacIntel,60,61025ae37ef11b136ea224fe,,,,,,,,,745,-27.8515625,-67.75390625,1,0,0,response5disk,,3,-4.375,-10.2109375,1,0,0,rectangle,-4.375,-10.2109375,1,0,0,-4.375,-10.2109375,1,0,0,0,41,41,158,1,,,,,,,,
,,,,,,,,,,,,,FF,,,,,,,,1.0835,,,,,,,,,,,,,,,,,,,,,,60fd62affd3d7f977a27fc6b,61036e3ff1dd5187a7b63c6e,2021-07-29_23h14.00.701,Simcolourproject_2stim_asymm_v5,2020.2.10,MacIntel,60,61025ae37ef11b136ea224fe,,,,,,,,,3162,-40.4765625,-51.64453125,1,0,0,response5disk,,3,4.03515625,5.3828125,1,0,0,rectangle,4.03515625,5.3828125,1,0,0,4.03515625,5.3828125,1,0,0,0,42,42,8,1,,,,,,,,
,,,,,,,,,,,,,FF,,,,,,,,1.0338,,,,,,,,,,,,,,,,,,,,,,60fd62affd3d7f977a27fc6b,61036e3ff1dd5187a7b63c6e,2021-07-29_23h14.00.701,Simcolourproject_2stim_asymm_v5,2020.2.10,MacIntel,60,61025ae37ef11b136ea224fe,,,,,,,,,1857,82.87890625,-28.40625,1,0,0,response3disk,,5,20.69140625,-5.26171875,1,0,0,rectangle,20.69140625,-5.26171875,1,0,0,20.69140625,-5.26171875,1,0,0,0,43,43,12,1,,,,,,,,
,,,,,,,,,,,,,FF,,,,,,,,1.6827,,,,,,,,,,,,,,,,,,,,,,60fd62affd3d7f977a27fc6b,61036e3ff1dd5187a7b63c6e,2021-07-29_23h14.00.701,Simcolourproject_2stim_asymm_v5,2020.2.10,MacIntel,60,61025ae37ef11b136ea224fe,,,,,,,,,3579,40.88671875,-70.890625,1,0,0,response3disk,,4,14.6875,-3.46484375,1,0,0,rectangle,14.6875,-3.46484375,1,0,0,14.6875,-3.46484375,1,0,0,0,44,44,140,1,,,,,,,,
,,,,,,,,,,,,,FF,,,,,,,,1.6835,,,,,,,,,,,,,,,,,,,,,,60fd62affd3d7f977a27fc6b,61036e3ff1dd5187a7b63c6e,2021-07-29_23h14.00.701,Simcolourproject_2stim_asymm_v5,2020.2.10,MacIntel,60,61025ae37ef11b136ea224fe,,,,,,,,,142,-35.83203125,-76.77734375,1,0,0,response5disk,,3,12.26953125,-3.4453125,1,0,0,rectangle,12.26953125,-3.4453125,1,0,0,12.26953125,-3.4453125,1,0,0,0,45,45,50,1,,,,,,,,
,,,,,,,,,,,,,FF,,,,,,,,1.7157,,,,,,,,,,,,,,,,,,,,,,60fd62affd3d7f977a27fc6b,61036e3ff1dd5187a7b63c6e,2021-07-29_23h14.00.701,Simcolourproject_2stim_asymm_v5,2020.2.10,MacIntel,60,61025ae37ef11b136ea224fe,,,,,,,,,1777,95.140625,24.76171875,1,0,0,response1disk,,6,10.41796875,4.1953125,1,0,0,rectangle,10.41796875,4.1953125,1,0,0,10.41796875,4.1953125,1,0,0,0,46,46,15,1,,,,,,,,
,,,,,,,,,,,,,FF,,,,,,,,1.0665,,,,,,,,,,,,,,,,,,,,,,60fd62affd3d7f977a27fc6b,61036e3ff1dd5187a7b63c6e,2021-07-29_23h14.00.701,Simcolourproject_2stim_asymm_v5,2020.2.10,MacIntel,60,61025ae37ef11b136ea224fe,,,,,,,,,328,68.3046875,31.5234375,1,0,0,response1disk,,6,25.2734375,-5.87109375,1,0,0,rectangle,25.2734375,-5.87109375,1,0,0,25.2734375,-5.87109375,1,0,0,0,47,47,5,1,,,,,,,,
,,,,,,,,,,,,,FF,,,,,,,,1.2852,,,,,,,,,,,,,,,,,,,,,,60fd62affd3d7f977a27fc6b,61036e3ff1dd5187a7b63c6e,2021-07-29_23h14.00.701,Simcolourproject_2stim_asymm_v5,2020.2.10,MacIntel,60,61025ae37ef11b136ea224fe,,,,,,,,,553,76.78125,-69.07421875,1,0,0,response3disk,,5,23.75,-12.98828125,1,0,0,rectangle,23.75,-12.98828125,1,0,0,23.75,-12.98828125,1,0,0,0,48,48,146,1,,,,,,,,
,,,,,,,,,,,,,FF,,,,,,,,1.2174,,,,,,,,,,,,,,,,,,,,,,60fd62affd3d7f977a27fc6b,61036e3ff1dd5187a7b63c6e,2021-07-29_23h14.00.701,Simcolourproject_2stim_asymm_v5,2020.2.10,MacIntel,60,61025ae37ef11b136ea224fe,,,,,,,,,4080,49.91015625,85.890625,1,0,0,response1disk,,7,22.52734375,7.859375,1,0,0,rectangle,22.52734375,7.859375,1,0,0,22.52734375,7.859375,1,0,0,0,49,49,81,1,,,,,,,,
,,,,,,,,,,,,,FF,,,,,,,,1.2327,,,,,,,,,,,,,,,,,,,,,,60fd62affd3d7f977a27fc6b,61036e3ff1dd5187a7b63c6e,2021-07-29_23h14.00.701,Simcolourproject_2stim_asymm_v5,2020.2.10,MacIntel,60,61025ae37ef11b136ea224fe,,,,,,,,,2079,71.62109375,-50.91015625,1,0,0,response3disk,,5,11.3046875,-1.63671875,1,0,0,rectangle,11.3046875,-1.63671875,1,0,0,11.3046875,-1.63671875,1,0,0,0,50,50,58,1,,,,,,,,
,,,,,,,,,,,,,FF,,,,,,,,1.4671,,,,,,,,,,,,,,,,,,,,,,60fd62affd3d7f977a27fc6b,61036e3ff1dd5187a7b63c6e,2021-07-29_23h14.00.701,Simcolourproject_2stim_asymm_v5,2020.2.10,MacIntel,60,61025ae37ef11b136ea224fe,,,,,,,,,468,-42.96484375,-83.98046875,1,0,0,response5disk,,3,-9.66015625,-9.08984375,1,0,0,rectangle,-9.66015625,-9.08984375,1,0,0,-9.66015625,-9.08984375,1,0,0,0,51,51,103,1,,,,,,,,
,,,,,,,,,,,,,FF,,,,,,,,0.9845,,,,,,,,,,,,,,,,,,,,,,60fd62affd3d7f977a27fc6b,61036e3ff1dd5187a7b63c6e,2021-07-29_23h14.00.701,Simcolourproject_2stim_asymm_v5,2020.2.10,MacIntel,60,61025ae37ef11b136ea224fe,,,,,,,,,482,47.80859375,-84.51953125,1,0,0,response3disk,,4,18.03515625,-2.98828125,1,0,0,rectangle,18.03515625,-2.98828125,1,0,0,18.03515625,-2.98828125,1,0,0,0,52,52,34,1,,,,,,,,
,,,,,,,,,,,,,FF,,,,,,,,1.7506,,,,,,,,,,,,,,,,,,,,,,60fd62affd3d7f977a27fc6b,61036e3ff1dd5187a7b63c6e,2021-07-29_23h14.00.701,Simcolourproject_2stim_asymm_v5,2020.2.10,MacIntel,60,61025ae37ef11b136ea224fe,,,,,,,,,3753,-32.95703125,-60.8125,1,0,0,response5disk,,3,-11.125,-4.10546875,1,0,0,rectangle,-11.125,-4.10546875,1,0,0,-11.125,-4.10546875,1,0,0,0,53,53,99,1,,,,,,,,
,,,,,,,,,,,,,FF,,,,,,,,1.4008,,,,,,,,,,,,,,,,,,,,,,60fd62affd3d7f977a27fc6b,61036e3ff1dd5187a7b63c6e,2021-07-29_23h14.00.701,Simcolourproject_2stim_asymm_v5,2020.2.10,MacIntel,60,61025ae37ef11b136ea224fe,,,,,,,,,519,87.63671875,29.12890625,1,0,0,response1disk,,6,18.3515625,3.578125,1,0,0,rectangle,18.3515625,3.578125,1,0,0,18.3515625,3.578125,1,0,0,0,54,54,2,1,,,,,,,,
,,,,,,,,,,,,,FF,,,,,,,,0.884,,,,,,,,,,,,,,,,,,,,,,60fd62affd3d7f977a27fc6b,61036e3ff1dd5187a7b63c6e,2021-07-29_23h14.00.701,Simcolourproject_2stim_asymm_v5,2020.2.10,MacIntel,60,61025ae37ef11b136ea224fe,,,,,,,,,1487,31.66015625,61.13671875,1,0,0,response1disk,,7,8.36328125,5.72265625,1,0,0,rectangle,8.36328125,5.72265625,1,0,0,8.36328125,5.72265625,1,0,0,0,55,55,84,1,,,,,,,,
,,,,,,,,,,,,,FF,,,,,,,,1.6681,,,,,,,,,,,,,,,,,,,,,,60fd62affd3d7f977a27fc6b,61036e3ff1dd5187a7b63c6e,2021-07-29_23h14.00.701,Simcolourproject_2stim_asymm_v5,2020.2.10,MacIntel,60,61025ae37ef11b136ea224fe,,,,,,,,,3105,-27.1328125,-80.16015625,1,0,0,response5disk,,3,-9.3046875,-4.0234375,1,0,0,rectangle,-9.3046875,-4.0234375,1,0,0,-9.3046875,-4.0234375,1,0,0,0,56,56,130,1,,,,,,,,
,,,,,,,,,,,,,FF,,,,,,,,1.0001,,,,,,,,,,,,,,,,,,,,,,60fd62affd3d7f977a27fc6b,61036e3ff1dd5187a7b63c6e,2021-07-29_23h14.00.701,Simcolourproject_2stim_asymm_v5,2020.2.10,MacIntel,60,61025ae37ef11b136ea224fe,,,,,,,,,2760,40.484375,95.875,1,0,0,response1disk,,7,-5.33984375,-0.75,1,0,0,rectangle,-5.33984375,-0.75,1,0,0,-5.33984375,-0.75,1,0,0,0,57,57,89,1,,,,,,,,
,,,,,,,,,,,,,FF,,,,,,,,1.1183,,,,,,,,,,,,,,,,,,,,,,60fd62affd3d7f977a27fc6b,61036e3ff1dd5187a7b63c6e,2021-07-29_23h14.00.701,Simcolourproject_2stim_asymm_v5,2020.2.10,MacIntel,60,61025ae37ef11b136ea224fe,,,,,,,,,200,72.90234375,35.8359375,1,0,0,response1disk,,6,24.26953125,-6.421875,1,0,0,rectangle,24.26953125,-6.421875,1,0,0,24.26953125,-6.421875,1,0,0,0,58,58,104,1,,,,,,,,
,,,,,,,,,,,,,FF,,,,,,,,0.8834,,,,,,,,,,,,,,,,,,,,,,60fd62affd3d7f977a27fc6b,61036e3ff1dd5187a7b63c6e,2021-07-29_23h14.00.701,Simcolourproject_2stim_asymm_v5,2020.2.10,MacIntel,60,61025ae37ef11b136ea224fe,,,,,,,,,4106,62.48828125,-44.30078125,1,0,0,response3disk,,5,10.28515625,-0.6171875,1,0,0,rectangle,10.28515625,-0.6171875,1,0,0,10.28515625,-0.6171875,1,0,0,0,59,59,6,1,,,,,,,,
,,,,,,,,,,,,,FF,,,,,,,,0.9988,,,,,,,,,,,,,,,,,,,,,,60fd62affd3d7f977a27fc6b,61036e3ff1dd5187a7b63c6e,2021-07-29_23h14.00.701,Simcolourproject_2stim_asymm_v5,2020.2.10,MacIntel,60,61025ae37ef11b136ea224fe,,,,,,,,,3010,59.45703125,72.234375,1,0,0,response1disk,,7,-4.3203125,-13.171875,1,0,0,rectangle,-4.3203125,-13.171875,1,0,0,-4.3203125,-13.171875,1,0,0,0,60,60,126,1,,,,,,,,
,,,,,,,,,,,,,FF,,,,,,,,0.8669,,,,,,,,,,,,,,,,,,,,,,60fd62affd3d7f977a27fc6b,61036e3ff1dd5187a7b63c6e,2021-07-29_23h14.00.701,Simcolourproject_2stim_asymm_v5,2020.2.10,MacIntel,60,61025ae37ef11b136ea224fe,,,,,,,,,1118,41.4296875,73.13671875,1,0,0,response1disk,,7,16.20703125,0.0078125,1,0,0,rectangle,16.20703125,0.0078125,1,0,0,16.20703125,0.0078125,1,0,0,0,61,61,37,1,,,,,,,,
,,,,,,,,,,,,,FF,,,,,,,,1.0673,,,,,,,,,,,,,,,,,,,,,,60fd62affd3d7f977a27fc6b,61036e3ff1dd5187a7b63c6e,2021-07-29_23h14.00.701,Simcolourproject_2stim_asymm_v5,2020.2.10,MacIntel,60,61025ae37ef11b136ea224fe,,,,,,,,,1854,70.21875,32.90625,1,0,0,response1disk,,6,17.53515625,-0.42578125,1,0,0,rectangle,-76.77734375,-24.71875,1,0,0,3.390625,-13.2265625,1,0,0,0,62,62,64,1,,response5disk_3,TRUE,2,2,"[278,200,279,203,214,71,63,35,148,25,236,78,73,104,100,275,152,38,226,3]",2.6666,rectangle
,,,,,,,,,,,,,FF,,,,,,,,1.0342,,,,,,,,,,,,,,,,,,,,,,60fd62affd3d7f977a27fc6b,61036e3ff1dd5187a7b63c6e,2021-07-29_23h14.00.701,Simcolourproject_2stim_asymm_v5,2020.2.10,MacIntel,60,61025ae37ef11b136ea224fe,,,,,,,,,3212,69.7109375,-33.57421875,1,0,0,response3disk,,5,18.19140625,-4.55078125,1,0,0,rectangle,18.19140625,-4.55078125,1,0,0,18.19140625,-4.55078125,1,0,0,0,63,63,110,1,,,,,,,,
,,,,,,,,,,,,,FF,,,,,,,,4.0176,,,,,,,,,,,,,,,,,,,,,,60fd62affd3d7f977a27fc6b,61036e3ff1dd5187a7b63c6e,2021-07-29_23h14.00.701,Simcolourproject_2stim_asymm_v5,2020.2.10,MacIntel,60,61025ae37ef11b136ea224fe,,,,,,,,,3435,-80.1640625,-53.1171875,1,0,0,response5disk,,2,1.83203125,-2.78125,1,0,0,rectangle,1.83203125,-2.78125,1,0,0,1.83203125,-2.78125,1,0,0,0,64,64,105,1,,,,,,,,
,,,,,,,,,,,,,FF,,,,,,,,1.2152,,,,,,,,,,,,,,,,,,,,,,60fd62affd3d7f977a27fc6b,61036e3ff1dd5187a7b63c6e,2021-07-29_23h14.00.701,Simcolourproject_2stim_asymm_v5,2020.2.10,MacIntel,60,61025ae37ef11b136ea224fe,,,,,,,,,1621,78.23828125,-40.5234375,1,0,0,response3disk,,5,22.48828125,-3.33203125,1,0,0,rectangle,22.48828125,-3.33203125,1,0,0,22.48828125,-3.33203125,1,0,0,0,65,65,4,1,,,,,,,,
,,,,,,,,,,,,,FF,,,,,,,,0.9001,,,,,,,,,,,,,,,,,,,,,,60fd62affd3d7f977a27fc6b,61036e3ff1dd5187a7b63c6e,2021-07-29_23h14.00.701,Simcolourproject_2stim_asymm_v5,2020.2.10,MacIntel,60,61025ae37ef11b136ea224fe,,,,,,,,,3617,62.515625,31.03515625,1,0,0,response1disk,,6,-4.36328125,-1.12109375,1,0,0,rectangle,-4.36328125,-1.12109375,1,0,0,-4.36328125,-1.12109375,1,0,0,0,66,66,48,1,,,,,,,,
,,,,,,,,,,,,,FF,,,,,,,,2.2684,,,,,,,,,,,,,,,,,,,,,,60fd62affd3d7f977a27fc6b,61036e3ff1dd5187a7b63c6e,2021-07-29_23h14.00.701,Simcolourproject_2stim_asymm_v5,2020.2.10,MacIntel,60,61025ae37ef11b136ea224fe,,,,,,,,,1224,75.1875,-40.2265625,1,0,0,response3disk,,5,13.8984375,-7.171875,1,0,0,rectangle,13.8984375,-7.171875,1,0,0,13.8984375,-7.171875,1,0,0,0,67,67,36,1,,,,,,,,
,,,,,,,,,,,,,FF,,,,,,,,0.9012,,,,,,,,,,,,,,,,,,,,,,60fd62affd3d7f977a27fc6b,61036e3ff1dd5187a7b63c6e,2021-07-29_23h14.00.701,Simcolourproject_2stim_asymm_v5,2020.2.10,MacIntel,60,61025ae37ef11b136ea224fe,,,,,,,,,1485,25.90234375,74.3046875,1,0,0,response1disk,,7,10.62890625,2.7421875,1,0,0,rectangle,10.62890625,2.7421875,1,0,0,10.62890625,2.7421875,1,0,0,0,68,68,119,1,,,,,,,,
,,,,,,,,,,,,,FF,,,,,,,,1.5991,,,,,,,,,,,,,,,,,,,,,,60fd62affd3d7f977a27fc6b,61036e3ff1dd5187a7b63c6e,2021-07-29_23h14.00.701,Simcolourproject_2stim_asymm_v5,2020.2.10,MacIntel,60,61025ae37ef11b136ea224fe,,,,,,,,,4269,81.03125,24.8671875,1,0,0,response1disk,,6,16.546875,-1.23828125,1,0,0,rectangle,16.546875,-1.23828125,1,0,0,16.546875,-1.23828125,1,0,0,0,69,69,68,1,,,,,,,,
,,,,,,,,,,,,,FF,,,,,,,,1.6663,,,,,,,,,,,,,,,,,,,,,,60fd62affd3d7f977a27fc6b,61036e3ff1dd5187a7b63c6e,2021-07-29_23h14.00.701,Simcolourproject_2stim_asymm_v5,2020.2.10,MacIntel,60,61025ae37ef11b136ea224fe,,,,,,,,,3881,-46.40234375,-79.05859375,1,0,0,response5disk,,3,3.7109375,3.4921875,1,0,0,rectangle,-80.21484375,-29.69140625,1,0,0,7.828125,-8.140625,1,0,0,0,70,70,90,1,,response5disk_3,TRUE,2,3,"[278,200,279,203,214,71,63,35,148,25,236,78,73,104,100,275,152,38,226,3]",2.8161,rectangle
,,,,,,,,,,,,,FF,,,,,,,,1.6844,,,,,,,,,,,,,,,,,,,,,,60fd62affd3d7f977a27fc6b,61036e3ff1dd5187a7b63c6e,2021-07-29_23h14.00.701,Simcolourproject_2stim_asymm_v5,2020.2.10,MacIntel,60,61025ae37ef11b136ea224fe,,,,,,,,,1599,47.8046875,-68.65234375,1,0,0,response3disk,,4,15.359375,-0.203125,1,0,0,rectangle,15.359375,-0.203125,1,0,0,15.359375,-0.203125,1,0,0,0,71,71,76,1,,,,,,,,
,,,,,,,,,,,,,FF,,,,,,,,1.3166,,,,,,,,,,,,,,,,,,,,,,60fd62affd3d7f977a27fc6b,61036e3ff1dd5187a7b63c6e,2021-07-29_23h14.00.701,Simcolourproject_2stim_asymm_v5,2020.2.10,MacIntel,60,61025ae37ef11b136ea224fe,,,,,,,,,2694,48.71875,76.765625,1,0,0,response1disk,,7,20.46875,7.1953125,1,0,0,rectangle,-37.890625,-79.31640625,1,0,0,-18.2578125,-6.3515625,1,0,0,0,72,72,21,1,,response5disk_3,TRUE,3,7,"[278,200,279,203,214,71,63,35,148,25,236,78,73,104,100,275,152,38,226,3]",1.7842,rectangle
,,,,,,,,,,,,,FF,,,,,,,,1.6678,,,,,,,,,,,,,,,,,,,,,,60fd62affd3d7f977a27fc6b,61036e3ff1dd5187a7b63c6e,2021-07-29_23h14.00.701,Simcolourproject_2stim_asymm_v5,2020.2.10,MacIntel,60,61025ae37ef11b136ea224fe,,,,,,,,,2985,35.7109375,-60.26953125,1,0,0,response3disk,,4,5.9609375,4.58203125,1,0,0,rectangle,5.9609375,4.58203125,1,0,0,5.9609375,4.58203125,1,0,0,0,73,73,131,1,,,,,,,,
,,,,,,,,,,,,,FF,,,,,,,,1.6824,,,,,,,,,,,,,,,,,,,,,,60fd62affd3d7f977a27fc6b,61036e3ff1dd5187a7b63c6e,2021-07-29_23h14.00.701,Simcolourproject_2stim_asymm_v5,2020.2.10,MacIntel,60,61025ae37ef11b136ea224fe,,,,,,,,,3595,59.85546875,-39.84765625,1,0,0,response3disk,,5,-12.359375,-6.44140625,1,0,0,rectangle,-12.359375,-6.44140625,1,0,0,-12.359375,-6.44140625,1,0,0,0,74,74,88,1,,,,,,,,
,,,,,,,,,,,,,FF,,,,,,,,1.3668,,,,,,,,,,,,,,,,,,,,,,60fd62affd3d7f977a27fc6b,61036e3ff1dd5187a7b63c6e,2021-07-29_23h14.00.701,Simcolourproject_2stim_asymm_v5,2020.2.10,MacIntel,60,61025ae37ef11b136ea224fe,,,,,,,,,3875,-49.64453125,64.46875,1,0,0,response7disk,,0,-19.75,8.8515625,1,0,0,rectangle,-19.75,8.8515625,1,0,0,-19.75,8.8515625,1,0,0,0,75,75,141,1,,,,,,,,
,,,,,,,,,,,,,FF,,,,,,,,1.7658,,,,,,,,,,,,,,,,,,,,,,60fd62affd3d7f977a27fc6b,61036e3ff1dd5187a7b63c6e,2021-07-29_23h14.00.701,Simcolourproject_2stim_asymm_v5,2020.2.10,MacIntel,60,61025ae37ef11b136ea224fe,,,,,,,,,446,69.93359375,32.0546875,1,0,0,response1disk,,6,24.23828125,5.6640625,1,0,0,rectangle,24.23828125,5.6640625,1,0,0,24.23828125,5.6640625,1,0,0,0,76,76,114,1,,,,,,,,
,,,,,,,,,,,,,FF,,,,,,,,1.3345,,,,,,,,,,,,,,,,,,,,,,60fd62affd3d7f977a27fc6b,61036e3ff1dd5187a7b63c6e,2021-07-29_23h14.00.701,Simcolourproject_2stim_asymm_v5,2020.2.10,MacIntel,60,61025ae37ef11b136ea224fe,,,,,,,,,4149,70.3828125,-48.57421875,1,0,0,response3disk,,5,16.28515625,1.73046875,1,0,0,rectangle,-77.3828125,-37.12890625,1,0,0,-12.08203125,-6.9375,1,0,0,0,77,77,128,1,,response5disk_3,TRUE,2,5,"[278,200,279,203,214,71,63,35,148,25,236,78,73,104,100,275,152,38,226,3]",2.1323,rectangle
,,,,,,,,,,,,,FF,,,,,,,,1.4825,,,,,,,,,,,,,,,,,,,,,,60fd62affd3d7f977a27fc6b,61036e3ff1dd5187a7b63c6e,2021-07-29_23h14.00.701,Simcolourproject_2stim_asymm_v5,2020.2.10,MacIntel,60,61025ae37ef11b136ea224fe,,,,,,,,,2001,58.87890625,81.34375,1,0,0,response1disk,,7,5.265625,-9.5390625,1,0,0,rectangle,5.265625,-9.5390625,1,0,0,5.265625,-9.5390625,1,0,0,0,78,78,53,1,,,,,,,,
,,,,,,,,,,,,,FF,,,,,,,,1.5677,,,,,,,,,,,,,,,,,,,,,,60fd62affd3d7f977a27fc6b,61036e3ff1dd5187a7b63c6e,2021-07-29_23h14.00.701,Simcolourproject_2stim_asymm_v5,2020.2.10,MacIntel,60,61025ae37ef11b136ea224fe,,,,,,,,,4133,56.8984375,23.984375,1,0,0,response1disk,,6,19.16796875,-11.71875,1,0,0,rectangle,19.16796875,-11.71875,1,0,0,19.16796875,-11.71875,1,0,0,0,79,79,51,1,,,,,,,,
,,,,,,,,,,,,,FF,,,,,,,,1.3169,,,,,,,,,,,,,,,,,,,,,,60fd62affd3d7f977a27fc6b,61036e3ff1dd5187a7b63c6e,2021-07-29_23h14.00.701,Simcolourproject_2stim_asymm_v5,2020.2.10,MacIntel,60,61025ae37ef11b136ea224fe,,,,,,,,,1171,54.97265625,23.73046875,1,0,0,response1disk,,6,21.72265625,2.22265625,1,0,0,rectangle,21.72265625,2.22265625,1,0,0,21.72265625,2.22265625,1,0,0,0,80,80,132,1,,,,,,,,
,,,,,,,,,,,,,FF,,,,,,,,1.2848,,,,,,,,,,,,,,,,,,,,,,60fd62affd3d7f977a27fc6b,61036e3ff1dd5187a7b63c6e,2021-07-29_23h14.00.701,Simcolourproject_2stim_asymm_v5,2020.2.10,MacIntel,60,61025ae37ef11b136ea224fe,,,,,,,,,3403,73.0078125,-45.890625,1,0,0,response3disk,,5,12.02734375,-5.67578125,1,0,0,rectangle,12.02734375,-5.67578125,1,0,0,12.02734375,-5.67578125,1,0,0,0,81,81,56,1,,,,,,,,
,,,,,,,,,,,,,FF,,,,,,,,1.6814,,,,,,,,,,,,,,,,,,,,,,60fd62affd3d7f977a27fc6b,61036e3ff1dd5187a7b63c6e,2021-07-29_23h14.00.701,Simcolourproject_2stim_asymm_v5,2020.2.10,MacIntel,60,61025ae37ef11b136ea224fe,,,,,,,,,706,72.44140625,-30.9765625,1,0,0,response3disk,,5,22.8359375,-6.3984375,1,0,0,rectangle,22.8359375,-6.3984375,1,0,0,22.8359375,-6.3984375,1,0,0,0,82,82,26,1,,,,,,,,
,,,,,,,,,,,,,FF,,,,,,,,1.1503,,,,,,,,,,,,,,,,,,,,,,60fd62affd3d7f977a27fc6b,61036e3ff1dd5187a7b63c6e,2021-07-29_23h14.00.701,Simcolourproject_2stim_asymm_v5,2020.2.10,MacIntel,60,61025ae37ef11b136ea224fe,,,,,,,,,401,61.50390625,-34.92578125,1,0,0,response3disk,,5,22.625,-8.64453125,1,0,0,rectangle,22.625,-8.64453125,1,0,0,22.625,-8.64453125,1,0,0,0,83,83,150,1,,,,,,,,
,,,,,,,,,,,,,FF,,,,,,,,3.6843,,,,,,,,,,,,,,,,,,,,,,60fd62affd3d7f977a27fc6b,61036e3ff1dd5187a7b63c6e,2021-07-29_23h14.00.701,Simcolourproject_2stim_asymm_v5,2020.2.10,MacIntel,60,61025ae37ef11b136ea224fe,,,,,,,,,528,79.58984375,18.1015625,1,0,0,response1disk,,6,18.99609375,2.296875,1,0,0,rectangle,18.99609375,2.296875,1,0,0,18.99609375,2.296875,1,0,0,0,84,84,144,1,,,,,,,,
,,,,,,,,,,,,,FF,,,,,,,,1.0323,,,,,,,,,,,,,,,,,,,,,,60fd62affd3d7f977a27fc6b,61036e3ff1dd5187a7b63c6e,2021-07-29_23h14.00.701,Simcolourproject_2stim_asymm_v5,2020.2.10,MacIntel,60,61025ae37ef11b136ea224fe,,,,,,,,,329,37.20703125,59.71875,1,0,0,response1disk,,7,10.78515625,-4.12890625,1,0,0,rectangle,10.78515625,-4.12890625,1,0,0,10.78515625,-4.12890625,1,0,0,0,85,85,10,1,,,,,,,,
,,,,,,,,,,,,,FF,,,,,,,,1.118,,,,,,,,,,,,,,,,,,,,,,60fd62affd3d7f977a27fc6b,61036e3ff1dd5187a7b63c6e,2021-07-29_23h14.00.701,Simcolourproject_2stim_asymm_v5,2020.2.10,MacIntel,60,61025ae37ef11b136ea224fe,,,,,,,,,3722,42.1015625,92.97265625,1,0,0,response1disk,,7,13.16796875,4.58984375,1,0,0,rectangle,13.16796875,4.58984375,1,0,0,13.16796875,4.58984375,1,0,0,0,86,86,60,1,,,,,,,,
,,,,,,,,,,,,,FF,,,,,,,,1.0007,,,,,,,,,,,,,,,,,,,,,,60fd62affd3d7f977a27fc6b,61036e3ff1dd5187a7b63c6e,2021-07-29_23h14.00.701,Simcolourproject_2stim_asymm_v5,2020.2.10,MacIntel,60,61025ae37ef11b136ea224fe,,,,,,,,,2210,40.35546875,61.75,1,0,0,response1disk,,7,15.61328125,3.10546875,1,0,0,rectangle,15.61328125,3.10546875,1,0,0,15.61328125,3.10546875,1,0,0,0,87,87,112,1,,,,,,,,
,,,,,,,,,,,,,FF,,,,,,,,1.8172,,,,,,,,,,,,,,,,,,,,,,60fd62affd3d7f977a27fc6b,61036e3ff1dd5187a7b63c6e,2021-07-29_23h14.00.701,Simcolourproject_2stim_asymm_v5,2020.2.10,MacIntel,60,61025ae37ef11b136ea224fe,,,,,,,,,3343,-62.2578125,-54.14453125,1,0,0,response5disk,,2,-4.7890625,-9.9453125,1,0,0,rectangle,-4.7890625,-9.9453125,1,0,0,-4.7890625,-9.9453125,1,0,0,0,88,88,106,1,,,,,,,,
,,,,,,,,,,,,,FF,,,,,,,,2.1324,,,,,,,,,,,,,,,,,,,,,,60fd62affd3d7f977a27fc6b,61036e3ff1dd5187a7b63c6e,2021-07-29_23h14.00.701,Simcolourproject_2stim_asymm_v5,2020.2.10,MacIntel,60,61025ae37ef11b136ea224fe,,,,,,,,,1921,64.38671875,38.1796875,1,0,0,response1disk,,6,24.1796875,7.8515625,1,0,0,rectangle,24.1796875,7.8515625,1,0,0,24.1796875,7.8515625,1,0,0,0,89,89,86,1,,,,,,,,
,,,,,,,,,,,,,FF,,,,,,,,1.0662,,,,,,,,,,,,,,,,,,,,,,60fd62affd3d7f977a27fc6b,61036e3ff1dd5187a7b63c6e,2021-07-29_23h14.00.701,Simcolourproject_2stim_asymm_v5,2020.2.10,MacIntel,60,61025ae37ef11b136ea224fe,,,,,,,,,1379,74.109375,-48.50390625,1,0,0,response3disk,,5,4.54296875,-4.0625,1,0,0,rectangle,4.54296875,-4.0625,1,0,0,4.54296875,-4.0625,1,0,0,0,90,90,145,1,,,,,,,,
,,,,,,,,,,,,,FF,,,,,,,,1.75,,,,,,,,,,,,,,,,,,,,,,60fd62affd3d7f977a27fc6b,61036e3ff1dd5187a7b63c6e,2021-07-29_23h14.00.701,Simcolourproject_2stim_asymm_v5,2020.2.10,MacIntel,60,61025ae37ef11b136ea224fe,,,,,,,,,3805,70.41796875,-33.4296875,1,0,0,response3disk,,5,17.73828125,-1.01953125,1,0,0,rectangle,17.73828125,-1.01953125,1,0,0,17.73828125,-1.01953125,1,0,0,0,91,91,7,1,,,,,,,,
,,,,,,,,,,,,,FF,,,,,,,,1.0489,,,,,,,,,,,,,,,,,,,,,,60fd62affd3d7f977a27fc6b,61036e3ff1dd5187a7b63c6e,2021-07-29_23h14.00.701,Simcolourproject_2stim_asymm_v5,2020.2.10,MacIntel,60,61025ae37ef11b136ea224fe,,,,,,,,,614,76.046875,-33.5234375,1,0,0,response3disk,,5,14.25,-10.27734375,1,0,0,rectangle,14.25,-10.27734375,1,0,0,14.25,-10.27734375,1,0,0,0,92,92,135,1,,,,,,,,
,,,,,,,,,,,,,FF,,,,,,,,1.7003,,,,,,,,,,,,,,,,,,,,,,60fd62affd3d7f977a27fc6b,61036e3ff1dd5187a7b63c6e,2021-07-29_23h14.00.701,Simcolourproject_2stim_asymm_v5,2020.2.10,MacIntel,60,61025ae37ef11b136ea224fe,,,,,,,,,1964,-60.01953125,-87.1953125,1,0,0,response5disk,,3,-7.51953125,0.80859375,1,0,0,rectangle,-7.51953125,0.80859375,1,0,0,-7.51953125,0.80859375,1,0,0,0,93,93,59,1,,,,,,,,
,,,,,,,,,,,,,FF,,,,,,,,1.3167,,,,,,,,,,,,,,,,,,,,,,60fd62affd3d7f977a27fc6b,61036e3ff1dd5187a7b63c6e,2021-07-29_23h14.00.701,Simcolourproject_2stim_asymm_v5,2020.2.10,MacIntel,60,61025ae37ef11b136ea224fe,,,,,,,,,2802,91.44140625,25.3359375,1,0,0,response1disk,,6,22.2578125,1.82421875,1,0,0,rectangle,22.2578125,1.82421875,1,0,0,22.2578125,1.82421875,1,0,0,0,94,94,149,1,,,,,,,,
,,,,,,,,,,,,,FF,,,,,,,,1.6333,,,,,,,,,,,,,,,,,,,,,,60fd62affd3d7f977a27fc6b,61036e3ff1dd5187a7b63c6e,2021-07-29_23h14.00.701,Simcolourproject_2stim_asymm_v5,2020.2.10,MacIntel,60,61025ae37ef11b136ea224fe,,,,,,,,,212,43.171875,-90.6875,1,0,0,response3disk,,4,11.50390625,-5.921875,1,0,0,rectangle,11.50390625,-5.921875,1,0,0,11.50390625,-5.921875,1,0,0,0,95,95,80,1,,,,,,,,
,,,,,,,,,,,,,FF,,,,,,,,1.315,,,,,,,,,,,,,,,,,,,,,,60fd62affd3d7f977a27fc6b,61036e3ff1dd5187a7b63c6e,2021-07-29_23h14.00.701,Simcolourproject_2stim_asymm_v5,2020.2.10,MacIntel,60,61025ae37ef11b136ea224fe,,,,,,,,,4302,63.953125,-35.421875,1,0,0,response3disk,,5,27.78515625,-8.6484375,1,0,0,rectangle,27.78515625,-8.6484375,1,0,0,27.78515625,-8.6484375,1,0,0,0,96,96,82,1,,,,,,,,
,,,,,,,,,,,,,FF,,,,,,,,1.7015,,,,,,,,,,,,,,,,,,,,,,60fd62affd3d7f977a27fc6b,61036e3ff1dd5187a7b63c6e,2021-07-29_23h14.00.701,Simcolourproject_2stim_asymm_v5,2020.2.10,MacIntel,60,61025ae37ef11b136ea224fe,,,,,,,,,3165,-60.7109375,-68.1875,1,0,0,response5disk,,3,1.91796875,1.20703125,1,0,0,rectangle,1.91796875,1.20703125,1,0,0,1.91796875,1.20703125,1,0,0,0,97,97,79,1,,,,,,,,
,,,,,,,,,,,,,FF,,,,,,,,0.9005,,,,,,,,,,,,,,,,,,,,,,60fd62affd3d7f977a27fc6b,61036e3ff1dd5187a7b63c6e,2021-07-29_23h14.00.701,Simcolourproject_2stim_asymm_v5,2020.2.10,MacIntel,60,61025ae37ef11b136ea224fe,,,,,,,,,3119,50.7109375,64.9296875,1,0,0,response1disk,,7,14.5,4.87890625,1,0,0,rectangle,14.5,4.87890625,1,0,0,14.5,4.87890625,1,0,0,0,98,98,0,1,,,,,,,,
,,,,,,,,,,,,,FF,,,,,,,,1.0175,,,,,,,,,,,,,,,,,,,,,,60fd62affd3d7f977a27fc6b,61036e3ff1dd5187a7b63c6e,2021-07-29_23h14.00.701,Simcolourproject_2stim_asymm_v5,2020.2.10,MacIntel,60,61025ae37ef11b136ea224fe,,,,,,,,,2612,65.1484375,-40.8125,1,0,0,response3disk,,5,14.59375,1.13671875,1,0,0,rectangle,-88.84765625,-43.59765625,1,0,0,-3.69921875,-8.38671875,1,0,0,0,99,99,139,1,,response5disk_3,TRUE,2,2,"[278,200,279,203,214,71,63,35,148,25,236,78,73,104,100,275,152,38,226,3]",1.9491,rectangle
,,,,,,,,,,,,,FF,,,,,,,,1.616,,,,,,,,,,,,,,,,,,,,,,60fd62affd3d7f977a27fc6b,61036e3ff1dd5187a7b63c6e,2021-07-29_23h14.00.701,Simcolourproject_2stim_asymm_v5,2020.2.10,MacIntel,60,61025ae37ef11b136ea224fe,,,,,,,,,2676,94.8515625,-47.953125,1,0,0,response3disk,,5,8.8984375,-7.66015625,1,0,0,rectangle,8.8984375,-7.66015625,1,0,0,8.8984375,-7.66015625,1,0,0,0,100,100,138,1,,,,,,,,
,,,,,,,,,,,,,FF,,,,,,,,1.5341,,,,,,,,,,,,,,,,,,,,,,60fd62affd3d7f977a27fc6b,61036e3ff1dd5187a7b63c6e,2021-07-29_23h14.00.701,Simcolourproject_2stim_asymm_v5,2020.2.10,MacIntel,60,61025ae37ef11b136ea224fe,,,,,,,,,1482,55.6015625,67.90234375,1,0,0,response1disk,,7,15.7578125,8.21484375,1,0,0,rectangle,15.7578125,8.21484375,1,0,0,15.7578125,8.21484375,1,0,0,0,101,101,94,1,,,,,,,,
,,,,,,,,,,,,,FF,,,,,,,,1.383,,,,,,,,,,,,,,,,,,,,,,60fd62affd3d7f977a27fc6b,61036e3ff1dd5187a7b63c6e,2021-07-29_23h14.00.701,Simcolourproject_2stim_asymm_v5,2020.2.10,MacIntel,60,61025ae37ef11b136ea224fe,,,,,,,,,4358,-71.85546875,-42.4921875,1,0,0,response5disk,,2,-21.16015625,5.4453125,1,0,0,rectangle,-21.16015625,5.4453125,1,0,0,-21.16015625,5.4453125,1,0,0,0,102,102,27,1,,,,,,,,
,,,,,,,,,,,,,FF,,,,,,,,1.0337,,,,,,,,,,,,,,,,,,,,,,60fd62affd3d7f977a27fc6b,61036e3ff1dd5187a7b63c6e,2021-07-29_23h14.00.701,Simcolourproject_2stim_asymm_v5,2020.2.10,MacIntel,60,61025ae37ef11b136ea224fe,,,,,,,,,2793,73.4375,-30.1640625,1,0,0,response3disk,,5,30.59765625,3.26953125,1,0,0,rectangle,84.11328125,-53.54296875,1,0,0,21.66796875,-9.10546875,1,0,0,0,103,103,127,1,,response3disk_3,TRUE,5,5,"[278,200,279,203,214,71,63,35,148,25,236,78,73,104,100,275,152,38,226,3]",2.7505,rectangle
,,,,,,,,,,,,,FF,,,,,,,,1.2657,,,,,,,,,,,,,,,,,,,,,,60fd62affd3d7f977a27fc6b,61036e3ff1dd5187a7b63c6e,2021-07-29_23h14.00.701,Simcolourproject_2stim_asymm_v5,2020.2.10,MacIntel,60,61025ae37ef11b136ea224fe,,,,,,,,,2158,46.51953125,58.8125,1,0,0,response1disk,,7,20.3828125,7.3359375,1,0,0,rectangle,20.3828125,7.3359375,1,0,0,20.3828125,7.3359375,1,0,0,0,104,104,52,1,,,,,,,,
,,,,,,,,,,,,,FF,,,,,,,,1.6504,,,,,,,,,,,,,,,,,,,,,,60fd62affd3d7f977a27fc6b,61036e3ff1dd5187a7b63c6e,2021-07-29_23h14.00.701,Simcolourproject_2stim_asymm_v5,2020.2.10,MacIntel,60,61025ae37ef11b136ea224fe,,,,,,,,,2619,90.125,-32.09765625,1,0,0,response3disk,,5,27.671875,3.63671875,1,0,0,rectangle,27.671875,3.63671875,1,0,0,27.671875,3.63671875,1,0,0,0,105,105,72,1,,,,,,,,
,,,,,,,,,,,,,FF,,,,,,,,2.1492,,,,,,,,,,,,,,,,,,,,,,60fd62affd3d7f977a27fc6b,61036e3ff1dd5187a7b63c6e,2021-07-29_23h14.00.701,Simcolourproject_2stim_asymm_v5,2020.2.10,MacIntel,60,61025ae37ef11b136ea224fe,,,,,,,,,4288,103.0546875,43.29296875,1,0,0,response1disk,,6,12.25390625,12.08984375,1,0,0,rectangle,12.25390625,12.08984375,1,0,0,12.25390625,12.08984375,1,0,0,0,106,106,13,1,,,,,,,,
,,,,,,,,,,,,,FF,,,,,,,,1.1171,,,,,,,,,,,,,,,,,,,,,,60fd62affd3d7f977a27fc6b,61036e3ff1dd5187a7b63c6e,2021-07-29_23h14.00.701,Simcolourproject_2stim_asymm_v5,2020.2.10,MacIntel,60,61025ae37ef11b136ea224fe,,,,,,,,,948,58.38671875,68.4921875,1,0,0,response1disk,,7,-1.91015625,-8.67578125,1,0,0,rectangle,-1.91015625,-8.67578125,1,0,0,-1.91015625,-8.67578125,1,0,0,0,107,107,129,1,,,,,,,,
,,,,,,,,,,,,,FF,,,,,,,,1.5013,,,,,,,,,,,,,,,,,,,,,,60fd62affd3d7f977a27fc6b,61036e3ff1dd5187a7b63c6e,2021-07-29_23h14.00.701,Simcolourproject_2stim_asymm_v5,2020.2.10,MacIntel,60,61025ae37ef11b136ea224fe,,,,,,,,,2041,41.36328125,-70.69140625,1,0,0,response3disk,,4,15.7890625,1.7265625,1,0,0,rectangle,15.7890625,1.7265625,1,0,0,15.7890625,1.7265625,1,0,0,0,108,108,45,1,,,,,,,,
,,,,,,,,,,,,,FF,,,,,,,,1.0359,,,,,,,,,,,,,,,,,,,,,,60fd62affd3d7f977a27fc6b,61036e3ff1dd5187a7b63c6e,2021-07-29_23h14.00.701,Simcolourproject_2stim_asymm_v5,2020.2.10,MacIntel,60,61025ae37ef11b136ea224fe,,,,,,,,,1238,38.40625,-62.0703125,1,0,0,response3disk,,4,15.20703125,0.65625,1,0,0,rectangle,15.20703125,0.65625,1,0,0,15.20703125,0.65625,1,0,0,0,109,109,125,1,,,,,,,,
,,,,,,,,,,,,,FF,,,,,,,,1.1339,,,,,,,,,,,,,,,,,,,,,,60fd62affd3d7f977a27fc6b,61036e3ff1dd5187a7b63c6e,2021-07-29_23h14.00.701,Simcolourproject_2stim_asymm_v5,2020.2.10,MacIntel,60,61025ae37ef11b136ea224fe,,,,,,,,,3132,77.71484375,-42.6875,1,0,0,response3disk,,5,17.25390625,-11.16015625,1,0,0,rectangle,17.25390625,-11.16015625,1,0,0,17.25390625,-11.16015625,1,0,0,0,110,110,147,1,,,,,,,,
,,,,,,,,,,,,,FF,,,,,,,,0.8843,,,,,,,,,,,,,,,,,,,,,,60fd62affd3d7f977a27fc6b,61036e3ff1dd5187a7b63c6e,2021-07-29_23h14.00.701,Simcolourproject_2stim_asymm_v5,2020.2.10,MacIntel,60,61025ae37ef11b136ea224fe,,,,,,,,,3768,30.7265625,73.58203125,1,0,0,response1disk,,7,9.52734375,8.36328125,1,0,0,rectangle,9.52734375,8.36328125,1,0,0,9.52734375,8.36328125,1,0,0,0,111,111,40,1,,,,,,,,
,,,,,,,,,,,,,FF,,,,,,,,0.8825,,,,,,,,,,,,,,,,,,,,,,60fd62affd3d7f977a27fc6b,61036e3ff1dd5187a7b63c6e,2021-07-29_23h14.00.701,Simcolourproject_2stim_asymm_v5,2020.2.10,MacIntel,60,61025ae37ef11b136ea224fe,,,,,,,,,1345,59.84765625,-42.89453125,1,0,0,response3disk,,5,16.29296875,-4.421875,1,0,0,rectangle,16.29296875,-4.421875,1,0,0,16.29296875,-4.421875,1,0,0,0,112,112,93,1,,,,,,,,
,,,,,,,,,,,,,FF,,,,,,,,1.2166,,,,,,,,,,,,,,,,,,,,,,60fd62affd3d7f977a27fc6b,61036e3ff1dd5187a7b63c6e,2021-07-29_23h14.00.701,Simcolourproject_2stim_asymm_v5,2020.2.10,MacIntel,60,61025ae37ef11b136ea224fe,,,,,,,,,2729,76.58984375,-32.55078125,1,0,0,response3disk,,5,17.2421875,3.58984375,1,0,0,rectangle,17.2421875,3.58984375,1,0,0,17.2421875,3.58984375,1,0,0,0,113,113,148,1,,,,,,,,
,,,,,,,,,,,,,FF,,,,,,,,1.3162,,,,,,,,,,,,,,,,,,,,,,60fd62affd3d7f977a27fc6b,61036e3ff1dd5187a7b63c6e,2021-07-29_23h14.00.701,Simcolourproject_2stim_asymm_v5,2020.2.10,MacIntel,60,61025ae37ef11b136ea224fe,,,,,,,,,1419,40.33984375,-103.9023438,1,0,0,response3disk,,4,-2.4375,3.5078125,1,0,0,rectangle,-2.4375,3.5078125,1,0,0,-2.4375,3.5078125,1,0,0,0,114,114,44,1,,,,,,,,
,,,,,,,,,,,,,FF,,,,,,,,1.2825,,,,,,,,,,,,,,,,,,,,,,60fd62affd3d7f977a27fc6b,61036e3ff1dd5187a7b63c6e,2021-07-29_23h14.00.701,Simcolourproject_2stim_asymm_v5,2020.2.10,MacIntel,60,61025ae37ef11b136ea224fe,,,,,,,,,3970,-81.9921875,-46.515625,1,0,0,response5disk,,2,-9.41015625,-4.0546875,1,0,0,rectangle,-9.41015625,-4.0546875,1,0,0,-9.41015625,-4.0546875,1,0,0,0,115,115,142,1,,,,,,,,
,,,,,,,,,,,,,FF,,,,,,,,1.1168,,,,,,,,,,,,,,,,,,,,,,60fd62affd3d7f977a27fc6b,61036e3ff1dd5187a7b63c6e,2021-07-29_23h14.00.701,Simcolourproject_2stim_asymm_v5,2020.2.10,MacIntel,60,61025ae37ef11b136ea224fe,,,,,,,,,1391,72.08203125,-42.75390625,1,0,0,response3disk,,5,17.3828125,3.79296875,1,0,0,rectangle,17.3828125,3.79296875,1,0,0,17.3828125,3.79296875,1,0,0,0,116,116,42,1,,,,,,,,
,,,,,,,,,,,,,FF,,,,,,,,0.9501,,,,,,,,,,,,,,,,,,,,,,60fd62affd3d7f977a27fc6b,61036e3ff1dd5187a7b63c6e,2021-07-29_23h14.00.701,Simcolourproject_2stim_asymm_v5,2020.2.10,MacIntel,60,61025ae37ef11b136ea224fe,,,,,,,,,2408,69.203125,34.71875,1,0,0,response1disk,,6,21.4609375,6.703125,1,0,0,rectangle,21.4609375,6.703125,1,0,0,21.4609375,6.703125,1,0,0,0,117,117,18,1,,,,,,,,
,,,,,,,,,,,,,FF,,,,,,,,1.3837,,,,,,,,,,,,,,,,,,,,,,60fd62affd3d7f977a27fc6b,61036e3ff1dd5187a7b63c6e,2021-07-29_23h14.00.701,Simcolourproject_2stim_asymm_v5,2020.2.10,MacIntel,60,61025ae37ef11b136ea224fe,,,,,,,,,3518,-35.92578125,-88.4765625,1,0,0,response5disk,,3,1.73046875,-3.05078125,1,0,0,rectangle,1.73046875,-3.05078125,1,0,0,1.73046875,-3.05078125,1,0,0,0,118,118,121,1,,,,,,,,
,,,,,,,,,,,,,FF,,,,,,,,1.134,,,,,,,,,,,,,,,,,,,,,,60fd62affd3d7f977a27fc6b,61036e3ff1dd5187a7b63c6e,2021-07-29_23h14.00.701,Simcolourproject_2stim_asymm_v5,2020.2.10,MacIntel,60,61025ae37ef11b136ea224fe,,,,,,,,,3090,27.9375,-73.1328125,1,0,0,response3disk,,4,17.64453125,-7.76953125,1,0,0,rectangle,17.64453125,-7.76953125,1,0,0,17.64453125,-7.76953125,1,0,0,0,119,119,9,1,,,,,,,,
,,,,,,,,,,,,,FF,,,,,,,,0.9335,,,,,,,,,,,,,,,,,,,,,,60fd62affd3d7f977a27fc6b,61036e3ff1dd5187a7b63c6e,2021-07-29_23h14.00.701,Simcolourproject_2stim_asymm_v5,2020.2.10,MacIntel,60,61025ae37ef11b136ea224fe,,,,,,,,,1372,66.9765625,-33.6796875,1,0,0,response3disk,,5,23.1796875,-0.50390625,1,0,0,rectangle,23.1796875,-0.50390625,1,0,0,23.1796875,-0.50390625,1,0,0,0,120,120,151,1,,,,,,,,
,,,,,,,,,,,,,FF,,,,,,,,1.8161,,,,,,,,,,,,,,,,,,,,,,60fd62affd3d7f977a27fc6b,61036e3ff1dd5187a7b63c6e,2021-07-29_23h14.00.701,Simcolourproject_2stim_asymm_v5,2020.2.10,MacIntel,60,61025ae37ef11b136ea224fe,,,,,,,,,1887,69.046875,-91.671875,1,0,0,response3disk,,4,19.93359375,-7.59765625,1,0,0,rectangle,19.93359375,-7.59765625,1,0,0,19.93359375,-7.59765625,1,0,0,0,121,121,143,1,,,,,,,,
,,,,,,,,,,,,,FF,,,,,,,,0.9484,,,,,,,,,,,,,,,,,,,,,,60fd62affd3d7f977a27fc6b,61036e3ff1dd5187a7b63c6e,2021-07-29_23h14.00.701,Simcolourproject_2stim_asymm_v5,2020.2.10,MacIntel,60,61025ae37ef11b136ea224fe,,,,,,,,,3567,58.56640625,36.98828125,1,0,0,response1disk,,6,22.375,4.875,1,0,0,rectangle,22.375,4.875,1,0,0,22.375,4.875,1,0,0,0,122,122,17,1,,,,,,,,
,,,,,,,,,,,,,FF,,,,,,,,1.2995,,,,,,,,,,,,,,,,,,,,,,60fd62affd3d7f977a27fc6b,61036e3ff1dd5187a7b63c6e,2021-07-29_23h14.00.701,Simcolourproject_2stim_asymm_v5,2020.2.10,MacIntel,60,61025ae37ef11b136ea224fe,,,,,,,,,2727,77.98046875,-50.04296875,1,0,0,response3disk,,5,9.34375,-6.7578125,1,0,0,rectangle,9.34375,-6.7578125,1,0,0,9.34375,-6.7578125,1,0,0,0,123,123,152,1,,,,,,,,
,,,,,,,,,,,,,FF,,,,,,,,2.0015,,,,,,,,,,,,,,,,,,,,,,60fd62affd3d7f977a27fc6b,61036e3ff1dd5187a7b63c6e,2021-07-29_23h14.00.701,Simcolourproject_2stim_asymm_v5,2020.2.10,MacIntel,60,61025ae37ef11b136ea224fe,,,,,,,,,2304,83.31640625,-40.546875,1,0,0,response3disk,,5,12.07421875,-1.01953125,1,0,0,rectangle,12.07421875,-1.01953125,1,0,0,12.07421875,-1.01953125,1,0,0,0,124,124,92,1,,,,,,,,
,,,,,,,,,,,,,FF,,,,,,,,2.3844,,,,,,,,,,,,,,,,,,,,,,60fd62affd3d7f977a27fc6b,61036e3ff1dd5187a7b63c6e,2021-07-29_23h14.00.701,Simcolourproject_2stim_asymm_v5,2020.2.10,MacIntel,60,61025ae37ef11b136ea224fe,,,,,,,,,4122,23.4921875,-94.72265625,1,0,0,response3disk,,4,4.19140625,-3.921875,1,0,0,rectangle,4.19140625,-3.921875,1,0,0,4.19140625,-3.921875,1,0,0,0,125,125,20,1,,,,,,,,
,,,,,,,,,,,,,FF,,,,,,,,0.8327,,,,,,,,,,,,,,,,,,,,,,60fd62affd3d7f977a27fc6b,61036e3ff1dd5187a7b63c6e,2021-07-29_23h14.00.701,Simcolourproject_2stim_asymm_v5,2020.2.10,MacIntel,60,61025ae37ef11b136ea224fe,,,,,,,,,2346,26.80078125,47.8125,1,0,0,response1disk,,7,14.5234375,-0.60546875,1,0,0,rectangle,14.5234375,-0.60546875,1,0,0,14.5234375,-0.60546875,1,0,0,0,126,126,156,1,,,,,,,,
,,,,,,,,,,,,,FF,,,,,,,,1.466,,,,,,,,,,,,,,,,,,,,,,60fd62affd3d7f977a27fc6b,61036e3ff1dd5187a7b63c6e,2021-07-29_23h14.00.701,Simcolourproject_2stim_asymm_v5,2020.2.10,MacIntel,60,61025ae37ef11b136ea224fe,,,,,,,,,2043,27.140625,63.56640625,1,0,0,response1disk,,7,13.65625,12.58984375,1,0,0,rectangle,13.65625,12.58984375,1,0,0,13.65625,12.58984375,1,0,0,0,127,127,78,1,,,,,,,,
,,,,,,,,,,,,,FF,,,,,,,,0.9983,,,,,,,,,,,,,,,,,,,,,,60fd62affd3d7f977a27fc6b,61036e3ff1dd5187a7b63c6e,2021-07-29_23h14.00.701,Simcolourproject_2stim_asymm_v5,2020.2.10,MacIntel,60,61025ae37ef11b136ea224fe,,,,,,,,,2843,24.70703125,40.71484375,1,0,0,response1disk,,7,10.68359375,-1.91015625,1,0,0,rectangle,10.68359375,-1.91015625,1,0,0,10.68359375,-1.91015625,1,0,0,0,128,128,63,1,,,,,,,,
,,,,,,,,,,,,,FF,,,,,,,,0.9173,,,,,,,,,,,,,,,,,,,,,,60fd62affd3d7f977a27fc6b,61036e3ff1dd5187a7b63c6e,2021-07-29_23h14.00.701,Simcolourproject_2stim_asymm_v5,2020.2.10,MacIntel,60,61025ae37ef11b136ea224fe,,,,,,,,,108,41.76171875,23.60546875,1,0,0,response1disk,,6,14.24609375,1.30859375,1,0,0,rectangle,14.24609375,1.30859375,1,0,0,14.24609375,1.30859375,1,0,0,0,129,129,120,1,,,,,,,,
,,,,,,,,,,,,,FF,,,,,,,,2.1167,,,,,,,,,,,,,,,,,,,,,,60fd62affd3d7f977a27fc6b,61036e3ff1dd5187a7b63c6e,2021-07-29_23h14.00.701,Simcolourproject_2stim_asymm_v5,2020.2.10,MacIntel,60,61025ae37ef11b136ea224fe,,,,,,,,,610,53.85546875,-75.4765625,1,0,0,response3disk,,4,17.30078125,-10.63671875,1,0,0,rectangle,17.30078125,-10.63671875,1,0,0,17.30078125,-10.63671875,1,0,0,0,130,130,124,1,,,,,,,,
,,,,,,,,,,,,,FF,,,,,,,,1.051,,,,,,,,,,,,,,,,,,,,,,60fd62affd3d7f977a27fc6b,61036e3ff1dd5187a7b63c6e,2021-07-29_23h14.00.701,Simcolourproject_2stim_asymm_v5,2020.2.10,MacIntel,60,61025ae37ef11b136ea224fe,,,,,,,,,336,34.3125,74.515625,1,0,0,response1disk,,7,15.07421875,8.00390625,1,0,0,rectangle,15.07421875,8.00390625,1,0,0,15.07421875,8.00390625,1,0,0,0,131,131,57,1,,,,,,,,
,,,,,,,,,,,,,FF,,,,,,,,1.7835,,,,,,,,,,,,,,,,,,,,,,60fd62affd3d7f977a27fc6b,61036e3ff1dd5187a7b63c6e,2021-07-29_23h14.00.701,Simcolourproject_2stim_asymm_v5,2020.2.10,MacIntel,60,61025ae37ef11b136ea224fe,,,,,,,,,97,29.37890625,-82.0546875,1,0,0,response3disk,,4,9.88671875,-1.07421875,1,0,0,rectangle,9.88671875,-1.07421875,1,0,0,9.88671875,-1.07421875,1,0,0,0,132,132,3,1,,,,,,,,
,,,,,,,,,,,,,FF,,,,,,,,1.1155,,,,,,,,,,,,,,,,,,,,,,60fd62affd3d7f977a27fc6b,61036e3ff1dd5187a7b63c6e,2021-07-29_23h14.00.701,Simcolourproject_2stim_asymm_v5,2020.2.10,MacIntel,60,61025ae37ef11b136ea224fe,,,,,,,,,3210,58.92578125,-44.58203125,1,0,0,response3disk,,5,-3.1640625,4.81640625,1,0,0,rectangle,-3.1640625,4.81640625,1,0,0,-3.1640625,4.81640625,1,0,0,0,133,133,66,1,,,,,,,,
,,,,,,,,,,,,,FF,,,,,,,,2.7321,,,,,,,,,,,,,,,,,,,,,,60fd62affd3d7f977a27fc6b,61036e3ff1dd5187a7b63c6e,2021-07-29_23h14.00.701,Simcolourproject_2stim_asymm_v5,2020.2.10,MacIntel,60,61025ae37ef11b136ea224fe,,,,,,,,,611,47.671875,-83.94140625,1,0,0,response3disk,,4,17.73046875,-10.6953125,1,0,0,rectangle,17.73046875,-10.6953125,1,0,0,17.73046875,-10.6953125,1,0,0,0,134,134,16,1,,,,,,,,
,,,,,,,,,,,,,FF,,,,,,,,1.0173,,,,,,,,,,,,,,,,,,,,,,60fd62affd3d7f977a27fc6b,61036e3ff1dd5187a7b63c6e,2021-07-29_23h14.00.701,Simcolourproject_2stim_asymm_v5,2020.2.10,MacIntel,60,61025ae37ef11b136ea224fe,,,,,,,,,3429,-51.796875,-61.5234375,1,0,0,response5disk,,3,-9.76171875,-0.64453125,1,0,0,rectangle,-9.76171875,-0.64453125,1,0,0,-9.76171875,-0.64453125,1,0,0,0,135,135,22,1,,,,,,,,
,,,,,,,,,,,,,FF,,,,,,,,1.6329,,,,,,,,,,,,,,,,,,,,,,60fd62affd3d7f977a27fc6b,61036e3ff1dd5187a7b63c6e,2021-07-29_23h14.00.701,Simcolourproject_2stim_asymm_v5,2020.2.10,MacIntel,60,61025ae37ef11b136ea224fe,,,,,,,,,3698,82.03125,28.41796875,1,0,0,response1disk,,6,25.2734375,-1.2265625,1,0,0,rectangle,25.2734375,-1.2265625,1,0,0,25.2734375,-1.2265625,1,0,0,0,136,136,61,1,,,,,,,,
,,,,,,,,,,,,,FF,,,,,,,,1.8659,,,,,,,,,,,,,,,,,,,,,,60fd62affd3d7f977a27fc6b,61036e3ff1dd5187a7b63c6e,2021-07-29_23h14.00.701,Simcolourproject_2stim_asymm_v5,2020.2.10,MacIntel,60,61025ae37ef11b136ea224fe,,,,,,,,,1924,72.8125,-48.36328125,1,0,0,response3disk,,5,13.0625,-7.30859375,1,0,0,rectangle,13.0625,-7.30859375,1,0,0,13.0625,-7.30859375,1,0,0,0,137,137,136,1,,,,,,,,
,,,,,,,,,,,,,FF,,,,,,,,2.0346,,,,,,,,,,,,,,,,,,,,,,60fd62affd3d7f977a27fc6b,61036e3ff1dd5187a7b63c6e,2021-07-29_23h14.00.701,Simcolourproject_2stim_asymm_v5,2020.2.10,MacIntel,60,61025ae37ef11b136ea224fe,,,,,,,,,2532,-53.37109375,-88.34765625,1,0,0,response5disk,,3,-0.73046875,-4.578125,1,0,0,rectangle,-0.73046875,-4.578125,1,0,0,-0.73046875,-4.578125,1,0,0,0,138,138,77,1,,,,,,,,
,,,,,,,,,,,,,FF,,,,,,,,0.9499,,,,,,,,,,,,,,,,,,,,,,60fd62affd3d7f977a27fc6b,61036e3ff1dd5187a7b63c6e,2021-07-29_23h14.00.701,Simcolourproject_2stim_asymm_v5,2020.2.10,MacIntel,60,61025ae37ef11b136ea224fe,,,,,,,,,2130,44.91015625,79.80859375,1,0,0,response1disk,,7,25.6640625,-0.6796875,1,0,0,rectangle,25.6640625,-0.6796875,1,0,0,25.6640625,-0.6796875,1,0,0,0,139,139,29,1,,,,,,,,
,,,,,,,,,,,,,FF,,,,,,,,1.0335,,,,,,,,,,,,,,,,,,,,,,60fd62affd3d7f977a27fc6b,61036e3ff1dd5187a7b63c6e,2021-07-29_23h14.00.701,Simcolourproject_2stim_asymm_v5,2020.2.10,MacIntel,60,61025ae37ef11b136ea224fe,,,,,,,,,1210,25.640625,46.3046875,1,0,0,response1disk,,7,2.9296875,-3.54296875,1,0,0,rectangle,2.9296875,-3.54296875,1,0,0,2.9296875,-3.54296875,1,0,0,0,140,140,14,1,,,,,,,,
,,,,,,,,,,,,,FF,,,,,,,,1.2674,,,,,,,,,,,,,,,,,,,,,,60fd62affd3d7f977a27fc6b,61036e3ff1dd5187a7b63c6e,2021-07-29_23h14.00.701,Simcolourproject_2stim_asymm_v5,2020.2.10,MacIntel,60,61025ae37ef11b136ea224fe,,,,,,,,,608,25.0390625,61.16796875,1,0,0,response1disk,,7,10.5703125,9.03125,1,0,0,rectangle,10.5703125,9.03125,1,0,0,10.5703125,9.03125,1,0,0,0,141,141,69,1,,,,,,,,
,,,,,,,,,,,,,FF,,,,,,,,0.9659,,,,,,,,,,,,,,,,,,,,,,60fd62affd3d7f977a27fc6b,61036e3ff1dd5187a7b63c6e,2021-07-29_23h14.00.701,Simcolourproject_2stim_asymm_v5,2020.2.10,MacIntel,60,61025ae37ef11b136ea224fe,,,,,,,,,1006,31.8984375,66.15625,1,0,0,response1disk,,7,11.078125,1.234375,1,0,0,rectangle,11.078125,1.234375,1,0,0,11.078125,1.234375,1,0,0,0,142,142,47,1,,,,,,,,
,,,,,,,,,,,,,FF,,,,,,,,0.9487,,,,,,,,,,,,,,,,,,,,,,60fd62affd3d7f977a27fc6b,61036e3ff1dd5187a7b63c6e,2021-07-29_23h14.00.701,Simcolourproject_2stim_asymm_v5,2020.2.10,MacIntel,60,61025ae37ef11b136ea224fe,,,,,,,,,3464,38.15625,48.89453125,1,0,0,response1disk,,7,22.515625,2.1796875,1,0,0,rectangle,22.515625,2.1796875,1,0,0,22.515625,2.1796875,1,0,0,0,143,143,108,1,,,,,,,,
,,,,,,,,,,,,,FF,,,,,,,,1.1512,,,,,,,,,,,,,,,,,,,,,,60fd62affd3d7f977a27fc6b,61036e3ff1dd5187a7b63c6e,2021-07-29_23h14.00.701,Simcolourproject_2stim_asymm_v5,2020.2.10,MacIntel,60,61025ae37ef11b136ea224fe,,,,,,,,,1215,19.03515625,-82.95703125,1,0,0,response3disk,,4,-0.07421875,-10.4375,1,0,0,rectangle,-0.07421875,-10.4375,1,0,0,-0.07421875,-10.4375,1,0,0,0,144,144,97,1,,,,,,,,
,,,,,,,,,,,,,FF,,,,,,,,2.4002,,,,,,,,,,,,,,,,,,,,,,60fd62affd3d7f977a27fc6b,61036e3ff1dd5187a7b63c6e,2021-07-29_23h14.00.701,Simcolourproject_2stim_asymm_v5,2020.2.10,MacIntel,60,61025ae37ef11b136ea224fe,,,,,,,,,616,42.38671875,-90.8984375,1,0,0,response3disk,,4,19.6875,-7.0078125,1,0,0,rectangle,19.6875,-7.0078125,1,0,0,19.6875,-7.0078125,1,0,0,0,145,145,24,1,,,,,,,,
,,,,,,,,,,,,,FF,,,,,,,,1.7678,,,,,,,,,,,,,,,,,,,,,,60fd62affd3d7f977a27fc6b,61036e3ff1dd5187a7b63c6e,2021-07-29_23h14.00.701,Simcolourproject_2stim_asymm_v5,2020.2.10,MacIntel,60,61025ae37ef11b136ea224fe,,,,,,,,,3700,64.01171875,41.8359375,1,0,0,response1disk,,6,31.65625,3.7890625,1,0,0,rectangle,31.65625,3.7890625,1,0,0,31.65625,3.7890625,1,0,0,0,146,146,85,1,,,,,,,,
,,,,,,,,,,,,,FF,,,,,,,,1.0847,,,,,,,,,,,,,,,,,,,,,,60fd62affd3d7f977a27fc6b,61036e3ff1dd5187a7b63c6e,2021-07-29_23h14.00.701,Simcolourproject_2stim_asymm_v5,2020.2.10,MacIntel,60,61025ae37ef11b136ea224fe,,,,,,,,,1298,-69.20703125,-46.23828125,1,0,0,response5disk,,2,-13.04296875,-5.1640625,1,0,0,rectangle,-59.11328125,-28.1875,1,0,0,2.25,1.2890625,1,0,0,0,147,147,39,1,,response5disk_3,TRUE,2,5,"[278,200,279,203,214,71,63,35,148,25,236,78,73,104,100,275,152,38,226,3]",1.5675,rectangle
,,,,,,,,,,,,,FF,,,,,,,,1.9333,,,,,,,,,,,,,,,,,,,,,,60fd62affd3d7f977a27fc6b,61036e3ff1dd5187a7b63c6e,2021-07-29_23h14.00.701,Simcolourproject_2stim_asymm_v5,2020.2.10,MacIntel,60,61025ae37ef11b136ea224fe,,,,,,,,,1645,42.2109375,58.29296875,1,0,0,response1disk,,7,7.01953125,3.2265625,1,0,0,rectangle,7.01953125,3.2265625,1,0,0,7.01953125,3.2265625,1,0,0,0,148,148,65,1,,,,,,,,
,,,,,,,,,,,,,FF,,,,,,,,1.5838,,,,,,,,,,,,,,,,,,,,,,60fd62affd3d7f977a27fc6b,61036e3ff1dd5187a7b63c6e,2021-07-29_23h14.00.701,Simcolourproject_2stim_asymm_v5,2020.2.10,MacIntel,60,61025ae37ef11b136ea224fe,,,,,,,,,192,31.64453125,-66.515625,1,0,0,response3disk,,4,11.6640625,10.4453125,1,0,0,rectangle,11.6640625,10.4453125,1,0,0,11.6640625,10.4453125,1,0,0,0,149,149,23,1,,,,,,,,
,,,,,,,,,,,,,FF,,,,,,,,1.1004,,,,,,,,,,,,,,,,,,,,,,60fd62affd3d7f977a27fc6b,61036e3ff1dd5187a7b63c6e,2021-07-29_23h14.00.701,Simcolourproject_2stim_asymm_v5,2020.2.10,MacIntel,60,61025ae37ef11b136ea224fe,,,,,,,,,3206,71.7109375,-25.05859375,1,0,0,response3disk,,5,9.58984375,-1.1328125,1,0,0,rectangle,9.58984375,-1.1328125,1,0,0,9.58984375,-1.1328125,1,0,0,0,150,150,70,1,,,,,,,,
,,,,,,,,,,,,,FF,,,,,,,,1.0835,,,,,,,,,,,,,,,,,,,,,,60fd62affd3d7f977a27fc6b,61036e3ff1dd5187a7b63c6e,2021-07-29_23h14.00.701,Simcolourproject_2stim_asymm_v5,2020.2.10,MacIntel,60,61025ae37ef11b136ea224fe,,,,,,,,,748,58.40625,42.28125,1,0,0,response1disk,,6,22.6875,10.71484375,1,0,0,rectangle,66.43359375,31.09375,1,0,0,18.83984375,7.01953125,1,0,0,0,151,151,113,1,,response1disk_3,TRUE,6,0,"[278,200,279,203,214,71,63,35,148,25,236,78,73,104,100,275,152,38,226,3]",3.2153,rectangle
,,,,,,,,,,,,,FF,,,,,,,,1.5833,,,,,,,,,,,,,,,,,,,,,,60fd62affd3d7f977a27fc6b,61036e3ff1dd5187a7b63c6e,2021-07-29_23h14.00.701,Simcolourproject_2stim_asymm_v5,2020.2.10,MacIntel,60,61025ae37ef11b136ea224fe,,,,,,,,,2074,63.24609375,-88.88671875,1,0,0,response3disk,,4,14.01171875,-7.640625,1,0,0,rectangle,14.01171875,-7.640625,1,0,0,14.01171875,-7.640625,1,0,0,0,152,152,71,1,,,,,,,,
,,,,,,,,,,,,,FF,,,,,,,,1.1339,,,,,,,,,,,,,,,,,,,,,,60fd62affd3d7f977a27fc6b,61036e3ff1dd5187a7b63c6e,2021-07-29_23h14.00.701,Simcolourproject_2stim_asymm_v5,2020.2.10,MacIntel,60,61025ae37ef11b136ea224fe,,,,,,,,,2343,37.7734375,74.08203125,1,0,0,response1disk,,7,18.96484375,9.4375,1,0,0,rectangle,18.96484375,9.4375,1,0,0,18.96484375,9.4375,1,0,0,0,153,153,28,1,,,,,,,,
,,,,,,,,,,,,,FF,,,,,,,,1.2499,,,,,,,,,,,,,,,,,,,,,,60fd62affd3d7f977a27fc6b,61036e3ff1dd5187a7b63c6e,2021-07-29_23h14.00.701,Simcolourproject_2stim_asymm_v5,2020.2.10,MacIntel,60,61025ae37ef11b136ea224fe,,,,,,,,,3819,62.50390625,34.27734375,1,0,0,response1disk,,6,24.1875,-1.8125,1,0,0,rectangle,24.1875,-1.8125,1,0,0,24.1875,-1.8125,1,0,0,0,154,154,11,1,,,,,,,,
,,,,,,,,,,,,,FF,,,,,,,,1.2658,,,,,,,,,,,,,,,,,,,,,,60fd62affd3d7f977a27fc6b,61036e3ff1dd5187a7b63c6e,2021-07-29_23h14.00.701,Simcolourproject_2stim_asymm_v5,2020.2.10,MacIntel,60,61025ae37ef11b136ea224fe,,,,,,,,,2384,54.3046875,34.98046875,1,0,0,response1disk,,6,10.69921875,11.02734375,1,0,0,rectangle,10.69921875,11.02734375,1,0,0,10.69921875,11.02734375,1,0,0,0,155,155,107,1,,,,,,,,
,,,,,,,,,,,,,FF,,,,,,,,1.1998,,,,,,,,,,,,,,,,,,,,,,60fd62affd3d7f977a27fc6b,61036e3ff1dd5187a7b63c6e,2021-07-29_23h14.00.701,Simcolourproject_2stim_asymm_v5,2020.2.10,MacIntel,60,61025ae37ef11b136ea224fe,,,,,,,,,2348,29.88671875,46.81640625,1,0,0,response1disk,,7,17.87109375,9.80859375,1,0,0,rectangle,17.87109375,9.80859375,1,0,0,17.87109375,9.80859375,1,0,0,0,156,156,25,1,,,,,,,,
,,,,,,,,,,,,,FF,,,,,,,,0.8016,,,,,,,,,,,,,,,,,,,,,,60fd62affd3d7f977a27fc6b,61036e3ff1dd5187a7b63c6e,2021-07-29_23h14.00.701,Simcolourproject_2stim_asymm_v5,2020.2.10,MacIntel,60,61025ae37ef11b136ea224fe,,,,,,,,,934,25.234375,41.19140625,1,0,0,response1disk,,7,12.62890625,9.328125,1,0,0,rectangle,12.62890625,9.328125,1,0,0,12.62890625,9.328125,1,0,0,0,157,157,154,1,,,,,,,,
,,,,,,,,,,,,,FF,,,,,,,,0.8683,,,,,,,,,,,,,,,,,,,,,,60fd62affd3d7f977a27fc6b,61036e3ff1dd5187a7b63c6e,2021-07-29_23h14.00.701,Simcolourproject_2stim_asymm_v5,2020.2.10,MacIntel,60,61025ae37ef11b136ea224fe,,,,,,,,,309,20.44140625,33.91796875,1,0,0,response1disk,,7,12.31640625,12.1640625,1,0,0,rectangle,12.31640625,12.1640625,1,0,0,12.31640625,12.1640625,1,0,0,0,158,158,31,1,,,,,,,,
,,,,,,,,,,,,,FF,,,,,,,,1.3671,,,,,,,,,,,,,,,,,,,,,,60fd62affd3d7f977a27fc6b,61036e3ff1dd5187a7b63c6e,2021-07-29_23h14.00.701,Simcolourproject_2stim_asymm_v5,2020.2.10,MacIntel,60,61025ae37ef11b136ea224fe,,,,,,,,,1901,52.8828125,-77.17578125,1,0,0,response3disk,,4,27.61328125,-3.26953125,1,0,0,rectangle,27.61328125,-3.26953125,1,0,0,27.61328125,-3.26953125,1,0,0,0,159,159,33,1,,,,,,,,
,,,,,,,,,,,,,FF,,,,,,,,1.3496,,,,,,,,,,,,,,,,,,,,,,60fd62affd3d7f977a27fc6b,61036e3ff1dd5187a7b63c6e,2021-07-29_23h14.00.701,Simcolourproject_2stim_asymm_v5,2020.2.10,MacIntel,60,61025ae37ef11b136ea224fe,,,,,,,,,181,69.39453125,-33.84765625,1,0,0,response3disk,,5,20.34375,-9.6640625,1,0,0,rectangle,20.34375,-9.6640625,1,0,0,20.34375,-9.6640625,1,0,0,1,0,160,75,1,,,,,,,,
,,,,,,,,,,,,,FF,,,,,,,,1.3332,,,,,,,,,,,,,,,,,,,,,,60fd62affd3d7f977a27fc6b,61036e3ff1dd5187a7b63c6e,2021-07-29_23h14.00.701,Simcolourproject_2stim_asymm_v5,2020.2.10,MacIntel,60,61025ae37ef11b136ea224fe,,,,,,,,,2544,53.27734375,21.08203125,1,0,0,response1disk,,6,18.70703125,3.8671875,1,0,0,rectangle,18.70703125,3.8671875,1,0,0,18.70703125,3.8671875,1,0,0,1,1,161,2,1,,,,,,,,
,,,,,,,,,,,,,FF,,,,,,,,1.3007,,,,,,,,,,,,,,,,,,,,,,60fd62affd3d7f977a27fc6b,61036e3ff1dd5187a7b63c6e,2021-07-29_23h14.00.701,Simcolourproject_2stim_asymm_v5,2020.2.10,MacIntel,60,61025ae37ef11b136ea224fe,,,,,,,,,1606,68.86328125,-39.62890625,1,0,0,response3disk,,5,10.59765625,-9.02734375,1,0,0,rectangle,10.59765625,-9.02734375,1,0,0,10.59765625,-9.02734375,1,0,0,1,2,162,65,1,,,,,,,,
,,,,,,,,,,,,,FF,,,,,,,,1.4173,,,,,,,,,,,,,,,,,,,,,,60fd62affd3d7f977a27fc6b,61036e3ff1dd5187a7b63c6e,2021-07-29_23h14.00.701,Simcolourproject_2stim_asymm_v5,2020.2.10,MacIntel,60,61025ae37ef11b136ea224fe,,,,,,,,,2819,39.40234375,45.8203125,1,0,0,response1disk,,7,11.30078125,-1.01953125,1,0,0,rectangle,11.30078125,-1.01953125,1,0,0,11.30078125,-1.01953125,1,0,0,1,3,163,77,1,,,,,,,,
,,,,,,,,,,,,,FF,,,,,,,,0.8837,,,,,,,,,,,,,,,,,,,,,,60fd62affd3d7f977a27fc6b,61036e3ff1dd5187a7b63c6e,2021-07-29_23h14.00.701,Simcolourproject_2stim_asymm_v5,2020.2.10,MacIntel,60,61025ae37ef11b136ea224fe,,,,,,,,,843,29.14453125,36.12890625,1,0,0,response1disk,,7,18.40625,1.88671875,1,0,0,rectangle,18.40625,1.88671875,1,0,0,18.40625,1.88671875,1,0,0,1,4,164,95,1,,,,,,,,
,,,,,,,,,,,,,FF,,,,,,,,0.8653,,,,,,,,,,,,,,,,,,,,,,60fd62affd3d7f977a27fc6b,61036e3ff1dd5187a7b63c6e,2021-07-29_23h14.00.701,Simcolourproject_2stim_asymm_v5,2020.2.10,MacIntel,60,61025ae37ef11b136ea224fe,,,,,,,,,3138,29.28125,41.7109375,1,0,0,response1disk,,7,18.9375,10.7578125,1,0,0,rectangle,18.9375,10.7578125,1,0,0,18.9375,10.7578125,1,0,0,1,5,165,134,1,,,,,,,,
,,,,,,,,,,,,,FF,,,,,,,,0.7335,,,,,,,,,,,,,,,,,,,,,,60fd62affd3d7f977a27fc6b,61036e3ff1dd5187a7b63c6e,2021-07-29_23h14.00.701,Simcolourproject_2stim_asymm_v5,2020.2.10,MacIntel,60,61025ae37ef11b136ea224fe,,,,,,,,,1486,29.41015625,45.91015625,1,0,0,response1disk,,7,14.8125,14.9609375,1,0,0,rectangle,14.8125,14.9609375,1,0,0,14.8125,14.9609375,1,0,0,1,6,166,83,1,,,,,,,,
,,,,,,,,,,,,,FF,,,,,,,,0.6655,,,,,,,,,,,,,,,,,,,,,,60fd62affd3d7f977a27fc6b,61036e3ff1dd5187a7b63c6e,2021-07-29_23h14.00.701,Simcolourproject_2stim_asymm_v5,2020.2.10,MacIntel,60,61025ae37ef11b136ea224fe,,,,,,,,,2176,28.01953125,43.96875,1,0,0,response1disk,,7,12.65625,6.55078125,1,0,0,rectangle,12.65625,6.55078125,1,0,0,12.65625,6.55078125,1,0,0,1,7,167,115,1,,,,,,,,
,,,,,,,,,,,,,FF,,,,,,,,0.9508,,,,,,,,,,,,,,,,,,,,,,60fd62affd3d7f977a27fc6b,61036e3ff1dd5187a7b63c6e,2021-07-29_23h14.00.701,Simcolourproject_2stim_asymm_v5,2020.2.10,MacIntel,60,61025ae37ef11b136ea224fe,,,,,,,,,1507,34.6171875,45.5078125,1,0,0,response1disk,,7,16.65625,7.58203125,1,0,0,rectangle,16.65625,7.58203125,1,0,0,16.65625,7.58203125,1,0,0,1,8,168,4,1,,,,,,,,
,,,,,,,,,,,,,FF,,,,,,,,1.4164,,,,,,,,,,,,,,,,,,,,,,60fd62affd3d7f977a27fc6b,61036e3ff1dd5187a7b63c6e,2021-07-29_23h14.00.701,Simcolourproject_2stim_asymm_v5,2020.2.10,MacIntel,60,61025ae37ef11b136ea224fe,,,,,,,,,77,-43.27734375,64.90625,1,0,0,response7disk,,0,11.1015625,0.703125,1,0,0,rectangle,11.1015625,0.703125,1,0,0,11.1015625,0.703125,1,0,0,1,9,169,87,1,,,,,,,,
,,,,,,,,,,,,,FF,,,,,,,,3.1,,,,,,,,,,,,,,,,,,,,,,60fd62affd3d7f977a27fc6b,61036e3ff1dd5187a7b63c6e,2021-07-29_23h14.00.701,Simcolourproject_2stim_asymm_v5,2020.2.10,MacIntel,60,61025ae37ef11b136ea224fe,,,,,,,,,4219,88.57421875,25.14453125,1,0,0,response1disk,,6,29.27734375,-1.5546875,1,0,0,rectangle,29.27734375,-1.5546875,1,0,0,29.27734375,-1.5546875,1,0,0,1,10,170,22,1,,,,,,,,
,,,,,,,,,,,,,FF,,,,,,,,0.9171,,,,,,,,,,,,,,,,,,,,,,60fd62affd3d7f977a27fc6b,61036e3ff1dd5187a7b63c6e,2021-07-29_23h14.00.701,Simcolourproject_2stim_asymm_v5,2020.2.10,MacIntel,60,61025ae37ef11b136ea224fe,,,,,,,,,2223,31.20703125,58.375,1,0,0,response1disk,,7,5.36328125,5.44140625,1,0,0,rectangle,5.36328125,5.44140625,1,0,0,5.36328125,5.44140625,1,0,0,1,11,171,45,1,,,,,,,,
,,,,,,,,,,,,,FF,,,,,,,,1.2509,,,,,,,,,,,,,,,,,,,,,,60fd62affd3d7f977a27fc6b,61036e3ff1dd5187a7b63c6e,2021-07-29_23h14.00.701,Simcolourproject_2stim_asymm_v5,2020.2.10,MacIntel,60,61025ae37ef11b136ea224fe,,,,,,,,,3911,60.97265625,36.07421875,1,0,0,response1disk,,6,17.38671875,3.0546875,1,0,0,rectangle,17.38671875,3.0546875,1,0,0,17.38671875,3.0546875,1,0,0,1,12,172,27,1,,,,,,,,
,,,,,,,,,,,,,FF,,,,,,,,0.9324,,,,,,,,,,,,,,,,,,,,,,60fd62affd3d7f977a27fc6b,61036e3ff1dd5187a7b63c6e,2021-07-29_23h14.00.701,Simcolourproject_2stim_asymm_v5,2020.2.10,MacIntel,60,61025ae37ef11b136ea224fe,,,,,,,,,1971,47.35546875,-32.26171875,1,0,0,response3disk,,5,23.51953125,-1.8125,1,0,0,rectangle,23.51953125,-1.8125,1,0,0,23.51953125,-1.8125,1,0,0,1,13,173,61,1,,,,,,,,
,,,,,,,,,,,,,FF,,,,,,,,1.4326,,,,,,,,,,,,,,,,,,,,,,60fd62affd3d7f977a27fc6b,61036e3ff1dd5187a7b63c6e,2021-07-29_23h14.00.701,Simcolourproject_2stim_asymm_v5,2020.2.10,MacIntel,60,61025ae37ef11b136ea224fe,,,,,,,,,3795,41.390625,57.58203125,1,0,0,response1disk,,7,13.1328125,7.95703125,1,0,0,rectangle,13.1328125,7.95703125,1,0,0,13.1328125,7.95703125,1,0,0,1,14,174,17,1,,,,,,,,
,,,,,,,,,,,,,FF,,,,,,,,1.0173,,,,,,,,,,,,,,,,,,,,,,60fd62affd3d7f977a27fc6b,61036e3ff1dd5187a7b63c6e,2021-07-29_23h14.00.701,Simcolourproject_2stim_asymm_v5,2020.2.10,MacIntel,60,61025ae37ef11b136ea224fe,,,,,,,,,865,22.375,39.2578125,1,0,0,response1disk,,7,14.40625,0.6953125,1,0,0,rectangle,14.40625,0.6953125,1,0,0,14.40625,0.6953125,1,0,0,1,15,175,142,1,,,,,,,,
,,,,,,,,,,,,,FF,,,,,,,,0.9657,,,,,,,,,,,,,,,,,,,,,,60fd62affd3d7f977a27fc6b,61036e3ff1dd5187a7b63c6e,2021-07-29_23h14.00.701,Simcolourproject_2stim_asymm_v5,2020.2.10,MacIntel,60,61025ae37ef11b136ea224fe,,,,,,,,,894,58.83984375,-32.9140625,1,0,0,response3disk,,5,21.84765625,0.27734375,1,0,0,rectangle,21.84765625,0.27734375,1,0,0,21.84765625,0.27734375,1,0,0,1,16,176,34,1,,,,,,,,
,,,,,,,,,,,,,FF,,,,,,,,0.9838,,,,,,,,,,,,,,,,,,,,,,60fd62affd3d7f977a27fc6b,61036e3ff1dd5187a7b63c6e,2021-07-29_23h14.00.701,Simcolourproject_2stim_asymm_v5,2020.2.10,MacIntel,60,61025ae37ef11b136ea224fe,,,,,,,,,196,71.484375,33.94921875,1,0,0,response1disk,,6,17.578125,7.984375,1,0,0,rectangle,17.578125,7.984375,1,0,0,17.578125,7.984375,1,0,0,1,17,177,85,1,,,,,,,,
,,,,,,,,,,,,,FF,,,,,,,,1.0168,,,,,,,,,,,,,,,,,,,,,,60fd62affd3d7f977a27fc6b,61036e3ff1dd5187a7b63c6e,2021-07-29_23h14.00.701,Simcolourproject_2stim_asymm_v5,2020.2.10,MacIntel,60,61025ae37ef11b136ea224fe,,,,,,,,,3285,31.34375,48.10546875,1,0,0,response1disk,,7,12.6875,2.03125,1,0,0,rectangle,12.6875,2.03125,1,0,0,12.6875,2.03125,1,0,0,1,18,178,141,1,,,,,,,,
,,,,,,,,,,,,,FF,,,,,,,,1.2998,,,,,,,,,,,,,,,,,,,,,,60fd62affd3d7f977a27fc6b,61036e3ff1dd5187a7b63c6e,2021-07-29_23h14.00.701,Simcolourproject_2stim_asymm_v5,2020.2.10,MacIntel,60,61025ae37ef11b136ea224fe,,,,,,,,,9,69.828125,33.5859375,1,0,0,response1disk,,6,28.30859375,4.1875,1,0,0,rectangle,28.30859375,4.1875,1,0,0,28.30859375,4.1875,1,0,0,1,19,179,36,1,,,,,,,,
,,,,,,,,,,,,,FF,,,,,,,,0.6991,,,,,,,,,,,,,,,,,,,,,,60fd62affd3d7f977a27fc6b,61036e3ff1dd5187a7b63c6e,2021-07-29_23h14.00.701,Simcolourproject_2stim_asymm_v5,2020.2.10,MacIntel,60,61025ae37ef11b136ea224fe,,,,,,,,,2908,61.83203125,-35.3671875,1,0,0,response3disk,,5,26.015625,-8.6796875,1,0,0,rectangle,26.015625,-8.6796875,1,0,0,26.015625,-8.6796875,1,0,0,1,20,180,46,1,,,,,,,,
,,,,,,,,,,,,,FF,,,,,,,,0.7674,,,,,,,,,,,,,,,,,,,,,,60fd62affd3d7f977a27fc6b,61036e3ff1dd5187a7b63c6e,2021-07-29_23h14.00.701,Simcolourproject_2stim_asymm_v5,2020.2.10,MacIntel,60,61025ae37ef11b136ea224fe,,,,,,,,,1115,52.5625,34.25,1,0,0,response1disk,,6,14.25,5.6640625,1,0,0,rectangle,14.25,5.6640625,1,0,0,14.25,5.6640625,1,0,0,1,21,181,118,1,,,,,,,,
,,,,,,,,,,,,,FF,,,,,,,,0.9003,,,,,,,,,,,,,,,,,,,,,,60fd62affd3d7f977a27fc6b,61036e3ff1dd5187a7b63c6e,2021-07-29_23h14.00.701,Simcolourproject_2stim_asymm_v5,2020.2.10,MacIntel,60,61025ae37ef11b136ea224fe,,,,,,,,,4333,32.63671875,55.3359375,1,0,0,response1disk,,7,14.8671875,8.47265625,1,0,0,rectangle,14.8671875,8.47265625,1,0,0,14.8671875,8.47265625,1,0,0,1,22,182,94,1,,,,,,,,
,,,,,,,,,,,,,FF,,,,,,,,1.1492,,,,,,,,,,,,,,,,,,,,,,60fd62affd3d7f977a27fc6b,61036e3ff1dd5187a7b63c6e,2021-07-29_23h14.00.701,Simcolourproject_2stim_asymm_v5,2020.2.10,MacIntel,60,61025ae37ef11b136ea224fe,,,,,,,,,4097,-37.79296875,-75.03125,1,0,0,response5disk,,3,-7.1796875,-4.8359375,1,0,0,rectangle,-7.1796875,-4.8359375,1,0,0,-7.1796875,-4.8359375,1,0,0,1,23,183,78,1,,,,,,,,
,,,,,,,,,,,,,FF,,,,,,,,1.8487,,,,,,,,,,,,,,,,,,,,,,60fd62affd3d7f977a27fc6b,61036e3ff1dd5187a7b63c6e,2021-07-29_23h14.00.701,Simcolourproject_2stim_asymm_v5,2020.2.10,MacIntel,60,61025ae37ef11b136ea224fe,,,,,,,,,1788,99.640625,44.91796875,1,0,0,response1disk,,6,26.3125,1.43359375,1,0,0,rectangle,26.3125,1.43359375,1,0,0,26.3125,1.43359375,1,0,0,1,24,184,116,1,,,,,,,,
,,,,,,,,,,,,,FF,,,,,,,,1.6677,,,,,,,,,,,,,,,,,,,,,,60fd62affd3d7f977a27fc6b,61036e3ff1dd5187a7b63c6e,2021-07-29_23h14.00.701,Simcolourproject_2stim_asymm_v5,2020.2.10,MacIntel,60,61025ae37ef11b136ea224fe,,,,,,,,,3987,60.015625,21.6796875,1,0,0,response1disk,,6,-7.33203125,-3.1796875,1,0,0,rectangle,-7.33203125,-3.1796875,1,0,0,-7.33203125,-3.1796875,1,0,0,1,25,185,55,1,,,,,,,,
,,,,,,,,,,,,,FF,,,,,,,,1.2842,,,,,,,,,,,,,,,,,,,,,,60fd62affd3d7f977a27fc6b,61036e3ff1dd5187a7b63c6e,2021-07-29_23h14.00.701,Simcolourproject_2stim_asymm_v5,2020.2.10,MacIntel,60,61025ae37ef11b136ea224fe,,,,,,,,,1347,52.12109375,29.15234375,1,0,0,response1disk,,6,-12.65625,-0.0625,1,0,0,rectangle,-12.65625,-0.0625,1,0,0,-12.65625,-0.0625,1,0,0,1,26,186,91,1,,,,,,,,
,,,,,,,,,,,,,FF,,,,,,,,2.5504,,,,,,,,,,,,,,,,,,,,,,60fd62affd3d7f977a27fc6b,61036e3ff1dd5187a7b63c6e,2021-07-29_23h14.00.701,Simcolourproject_2stim_asymm_v5,2020.2.10,MacIntel,60,61025ae37ef11b136ea224fe,,,,,,,,,4329,84.609375,-47.41796875,1,0,0,response3disk,,5,18.5078125,-1.11328125,1,0,0,rectangle,18.5078125,-1.11328125,1,0,0,18.5078125,-1.11328125,1,0,0,1,27,187,143,1,,,,,,,,
,,,,,,,,,,,,,FF,,,,,,,,1.8003,,,,,,,,,,,,,,,,,,,,,,60fd62affd3d7f977a27fc6b,61036e3ff1dd5187a7b63c6e,2021-07-29_23h14.00.701,Simcolourproject_2stim_asymm_v5,2020.2.10,MacIntel,60,61025ae37ef11b136ea224fe,,,,,,,,,3538,91.76953125,26.171875,1,0,0,response1disk,,6,12.0546875,-8.0546875,1,0,0,rectangle,12.0546875,-8.0546875,1,0,0,12.0546875,-8.0546875,1,0,0,1,28,188,159,1,,,,,,,,
,,,,,,,,,,,,,FF,,,,,,,,1.5498,,,,,,,,,,,,,,,,,,,,,,60fd62affd3d7f977a27fc6b,61036e3ff1dd5187a7b63c6e,2021-07-29_23h14.00.701,Simcolourproject_2stim_asymm_v5,2020.2.10,MacIntel,60,61025ae37ef11b136ea224fe,,,,,,,,,4218,-46.22265625,-34.44921875,1,0,0,response5disk,,2,11.62109375,12.078125,1,0,0,rectangle,11.62109375,12.078125,1,0,0,11.62109375,12.078125,1,0,0,1,29,189,14,1,,,,,,,,
,,,,,,,,,,,,,FF,,,,,,,,0.9668,,,,,,,,,,,,,,,,,,,,,,60fd62affd3d7f977a27fc6b,61036e3ff1dd5187a7b63c6e,2021-07-29_23h14.00.701,Simcolourproject_2stim_asymm_v5,2020.2.10,MacIntel,60,61025ae37ef11b136ea224fe,,,,,,,,,2584,43.5859375,-71.73828125,1,0,0,response3disk,,4,14.03515625,-5.0546875,1,0,0,rectangle,14.03515625,-5.0546875,1,0,0,14.03515625,-5.0546875,1,0,0,1,30,190,66,1,,,,,,,,
,,,,,,,,,,,,,FF,,,,,,,,1.3001,,,,,,,,,,,,,,,,,,,,,,60fd62affd3d7f977a27fc6b,61036e3ff1dd5187a7b63c6e,2021-07-29_23h14.00.701,Simcolourproject_2stim_asymm_v5,2020.2.10,MacIntel,60,61025ae37ef11b136ea224fe,,,,,,,,,1368,-43.109375,75.37109375,1,0,0,response7disk,,0,25.3046875,-4.05859375,1,0,0,rectangle,25.3046875,-4.05859375,1,0,0,25.3046875,-4.05859375,1,0,0,1,31,191,35,1,,,,,,,,
,,,,,,,,,,,,,FF,,,,,,,,1.2339,,,,,,,,,,,,,,,,,,,,,,60fd62affd3d7f977a27fc6b,61036e3ff1dd5187a7b63c6e,2021-07-29_23h14.00.701,Simcolourproject_2stim_asymm_v5,2020.2.10,MacIntel,60,61025ae37ef11b136ea224fe,,,,,,,,,3252,59.4921875,-59.3203125,1,0,0,response3disk,,5,8.625,0.71875,1,0,0,rectangle,8.625,0.71875,1,0,0,8.625,0.71875,1,0,0,1,32,192,53,1,,,,,,,,
,,,,,,,,,,,,,FF,,,,,,,,1.016,,,,,,,,,,,,,,,,,,,,,,60fd62affd3d7f977a27fc6b,61036e3ff1dd5187a7b63c6e,2021-07-29_23h14.00.701,Simcolourproject_2stim_asymm_v5,2020.2.10,MacIntel,60,61025ae37ef11b136ea224fe,,,,,,,,,3469,-51.234375,-38.76953125,1,0,0,response5disk,,2,-12.42578125,-11.50390625,1,0,0,rectangle,-12.42578125,-11.50390625,1,0,0,-12.42578125,-11.50390625,1,0,0,1,33,193,99,1,,,,,,,,
,,,,,,,,,,,,,FF,,,,,,,,1.8161,,,,,,,,,,,,,,,,,,,,,,60fd62affd3d7f977a27fc6b,61036e3ff1dd5187a7b63c6e,2021-07-29_23h14.00.701,Simcolourproject_2stim_asymm_v5,2020.2.10,MacIntel,60,61025ae37ef11b136ea224fe,,,,,,,,,62,37.43359375,62.0703125,1,0,0,response1disk,,7,13.140625,-0.12890625,1,0,0,rectangle,13.140625,-0.12890625,1,0,0,13.140625,-0.12890625,1,0,0,1,34,194,7,1,,,,,,,,
,,,,,,,,,,,,,FF,,,,,,,,2.0161,,,,,,,,,,,,,,,,,,,,,,60fd62affd3d7f977a27fc6b,61036e3ff1dd5187a7b63c6e,2021-07-29_23h14.00.701,Simcolourproject_2stim_asymm_v5,2020.2.10,MacIntel,60,61025ae37ef11b136ea224fe,,,,,,,,,702,35.046875,-57.1484375,1,0,0,response3disk,,4,20.16015625,-1.6640625,1,0,0,rectangle,20.16015625,-1.6640625,1,0,0,20.16015625,-1.6640625,1,0,0,1,35,195,124,1,,,,,,,,
,,,,,,,,,,,,,FF,,,,,,,,1.4177,,,,,,,,,,,,,,,,,,,,,,60fd62affd3d7f977a27fc6b,61036e3ff1dd5187a7b63c6e,2021-07-29_23h14.00.701,Simcolourproject_2stim_asymm_v5,2020.2.10,MacIntel,60,61025ae37ef11b136ea224fe,,,,,,,,,2849,35.9609375,38.39453125,1,0,0,response1disk,,7,11.87890625,-5.78125,1,0,0,rectangle,11.87890625,-5.78125,1,0,0,11.87890625,-5.78125,1,0,0,1,36,196,9,1,,,,,,,,
,,,,,,,,,,,,,FF,,,,,,,,1.0335,,,,,,,,,,,,,,,,,,,,,,60fd62affd3d7f977a27fc6b,61036e3ff1dd5187a7b63c6e,2021-07-29_23h14.00.701,Simcolourproject_2stim_asymm_v5,2020.2.10,MacIntel,60,61025ae37ef11b136ea224fe,,,,,,,,,3772,25.11328125,47.1640625,1,0,0,response1disk,,7,7.80078125,9.6328125,1,0,0,rectangle,7.80078125,9.6328125,1,0,0,7.80078125,9.6328125,1,0,0,1,37,197,125,1,,,,,,,,
,,,,,,,,,,,,,FF,,,,,,,,1.0159,,,,,,,,,,,,,,,,,,,,,,60fd62affd3d7f977a27fc6b,61036e3ff1dd5187a7b63c6e,2021-07-29_23h14.00.701,Simcolourproject_2stim_asymm_v5,2020.2.10,MacIntel,60,61025ae37ef11b136ea224fe,,,,,,,,,1968,74.94140625,-55.50390625,1,0,0,response3disk,,5,14.20703125,7.5859375,1,0,0,rectangle,14.20703125,7.5859375,1,0,0,14.20703125,7.5859375,1,0,0,1,38,198,144,1,,,,,,,,
,,,,,,,,,,,,,FF,,,,,,,,0.9006,,,,,,,,,,,,,,,,,,,,,,60fd62affd3d7f977a27fc6b,61036e3ff1dd5187a7b63c6e,2021-07-29_23h14.00.701,Simcolourproject_2stim_asymm_v5,2020.2.10,MacIntel,60,61025ae37ef11b136ea224fe,,,,,,,,,727,57.00390625,-33.0625,1,0,0,response3disk,,5,21.77734375,-11.4375,1,0,0,rectangle,54.1328125,-24.18359375,1,0,0,14.82421875,-1.53125,1,0,0,1,39,199,48,1,,response3disk_3,TRUE,5,6,"[278,200,279,203,214,71,63,35,148,25,236,78,73,104,100,275,152,38,226,3]",1.15,rectangle
,,,,,,,,,,,,,FF,,,,,,,,0.967,,,,,,,,,,,,,,,,,,,,,,60fd62affd3d7f977a27fc6b,61036e3ff1dd5187a7b63c6e,2021-07-29_23h14.00.701,Simcolourproject_2stim_asymm_v5,2020.2.10,MacIntel,60,61025ae37ef11b136ea224fe,,,,,,,,,2664,69.6796875,-37.69921875,1,0,0,response3disk,,5,18.56640625,-7.03515625,1,0,0,rectangle,18.56640625,-7.03515625,1,0,0,18.56640625,-7.03515625,1,0,0,1,40,200,28,1,,,,,,,,
,,,,,,,,,,,,,FF,,,,,,,,1.2,,,,,,,,,,,,,,,,,,,,,,60fd62affd3d7f977a27fc6b,61036e3ff1dd5187a7b63c6e,2021-07-29_23h14.00.701,Simcolourproject_2stim_asymm_v5,2020.2.10,MacIntel,60,61025ae37ef11b136ea224fe,,,,,,,,,745,74.4609375,39.41796875,1,0,0,response1disk,,6,24.10546875,6.33203125,1,0,0,rectangle,24.10546875,6.33203125,1,0,0,24.10546875,6.33203125,1,0,0,1,41,201,86,1,,,,,,,,
,,,,,,,,,,,,,FF,,,,,,,,2.1991,,,,,,,,,,,,,,,,,,,,,,60fd62affd3d7f977a27fc6b,61036e3ff1dd5187a7b63c6e,2021-07-29_23h14.00.701,Simcolourproject_2stim_asymm_v5,2020.2.10,MacIntel,60,61025ae37ef11b136ea224fe,,,,,,,,,3162,83.3203125,-44.16015625,1,0,0,response3disk,,5,13.37109375,-5.03515625,1,0,0,rectangle,-32.17578125,-91.97265625,1,0,0,-5.91015625,-2.3046875,1,0,0,1,42,202,158,1,,response5disk_3,TRUE,3,3,"[278,200,279,203,214,71,63,35,148,25,236,78,73,104,100,275,152,38,226,3]",4.8139,rectangle
,,,,,,,,,,,,,FF,,,,,,,,1.2514,,,,,,,,,,,,,,,,,,,,,,60fd62affd3d7f977a27fc6b,61036e3ff1dd5187a7b63c6e,2021-07-29_23h14.00.701,Simcolourproject_2stim_asymm_v5,2020.2.10,MacIntel,60,61025ae37ef11b136ea224fe,,,,,,,,,1857,78.06640625,-21.66015625,1,0,0,response3disk,,5,5.53125,-0.58984375,1,0,0,rectangle,5.53125,-0.58984375,1,0,0,5.53125,-0.58984375,1,0,0,1,43,203,113,1,,,,,,,,
,,,,,,,,,,,,,FF,,,,,,,,1.7334,,,,,,,,,,,,,,,,,,,,,,60fd62affd3d7f977a27fc6b,61036e3ff1dd5187a7b63c6e,2021-07-29_23h14.00.701,Simcolourproject_2stim_asymm_v5,2020.2.10,MacIntel,60,61025ae37ef11b136ea224fe,,,,,,,,,3579,66.25390625,25.33203125,1,0,0,response1disk,,6,4.66796875,-0.625,1,0,0,rectangle,4.66796875,-0.625,1,0,0,4.66796875,-0.625,1,0,0,1,44,204,101,1,,,,,,,,
,,,,,,,,,,,,,FF,,,,,,,,2.5513,,,,,,,,,,,,,,,,,,,,,,60fd62affd3d7f977a27fc6b,61036e3ff1dd5187a7b63c6e,2021-07-29_23h14.00.701,Simcolourproject_2stim_asymm_v5,2020.2.10,MacIntel,60,61025ae37ef11b136ea224fe,,,,,,,,,142,28.359375,80.36328125,1,0,0,response1disk,,7,8.5234375,3.94921875,1,0,0,rectangle,8.5234375,3.94921875,1,0,0,8.5234375,3.94921875,1,0,0,1,45,205,31,1,,,,,,,,
,,,,,,,,,,,,,FF,,,,,,,,4.0326,,,,,,,,,,,,,,,,,,,,,,60fd62affd3d7f977a27fc6b,61036e3ff1dd5187a7b63c6e,2021-07-29_23h14.00.701,Simcolourproject_2stim_asymm_v5,2020.2.10,MacIntel,60,61025ae37ef11b136ea224fe,,,,,,,,,1777,96.26953125,48.1875,1,0,0,response1disk,,6,24.12890625,10.390625,1,0,0,rectangle,24.12890625,10.390625,1,0,0,24.12890625,10.390625,1,0,0,1,46,206,12,1,,,,,,,,
,,,,,,,,,,,,,FF,,,,,,,,1.383,,,,,,,,,,,,,,,,,,,,,,60fd62affd3d7f977a27fc6b,61036e3ff1dd5187a7b63c6e,2021-07-29_23h14.00.701,Simcolourproject_2stim_asymm_v5,2020.2.10,MacIntel,60,61025ae37ef11b136ea224fe,,,,,,,,,328,54.69921875,22.70703125,1,0,0,response1disk,,6,7.37890625,0.3359375,1,0,0,rectangle,7.37890625,0.3359375,1,0,0,7.37890625,0.3359375,1,0,0,1,47,207,135,1,,,,,,,,
,,,,,,,,,,,,,FF,,,,,,,,1.7501,,,,,,,,,,,,,,,,,,,,,,60fd62affd3d7f977a27fc6b,61036e3ff1dd5187a7b63c6e,2021-07-29_23h14.00.701,Simcolourproject_2stim_asymm_v5,2020.2.10,MacIntel,60,61025ae37ef11b136ea224fe,,,,,,,,,553,83.328125,-56.08203125,1,0,0,response3disk,,5,6.99609375,-0.63671875,1,0,0,rectangle,6.99609375,-0.63671875,1,0,0,6.99609375,-0.63671875,1,0,0,1,48,208,69,1,,,,,,,,
,,,,,,,,,,,,,FF,,,,,,,,1.8657,,,,,,,,,,,,,,,,,,,,,,60fd62affd3d7f977a27fc6b,61036e3ff1dd5187a7b63c6e,2021-07-29_23h14.00.701,Simcolourproject_2stim_asymm_v5,2020.2.10,MacIntel,60,61025ae37ef11b136ea224fe,,,,,,,,,4080,69.7109375,47.9453125,1,0,0,response1disk,,6,15.87109375,11.50390625,1,0,0,rectangle,15.87109375,11.50390625,1,0,0,15.87109375,11.50390625,1,0,0,1,49,209,149,1,,,,,,,,
,,,,,,,,,,,,,FF,,,,,,,,1.8183,,,,,,,,,,,,,,,,,,,,,,60fd62affd3d7f977a27fc6b,61036e3ff1dd5187a7b63c6e,2021-07-29_23h14.00.701,Simcolourproject_2stim_asymm_v5,2020.2.10,MacIntel,60,61025ae37ef11b136ea224fe,,,,,,,,,2079,33.2421875,53.00390625,1,0,0,response1disk,,7,11.70703125,4.54296875,1,0,0,rectangle,11.70703125,4.54296875,1,0,0,11.70703125,4.54296875,1,0,0,1,50,210,153,1,,,,,,,,
,,,,,,,,,,,,,FF,,,,,,,,2.4831,,,,,,,,,,,,,,,,,,,,,,60fd62affd3d7f977a27fc6b,61036e3ff1dd5187a7b63c6e,2021-07-29_23h14.00.701,Simcolourproject_2stim_asymm_v5,2020.2.10,MacIntel,60,61025ae37ef11b136ea224fe,,,,,,,,,468,101.6328125,24.64453125,1,0,0,response1disk,,6,13.4375,4.00390625,1,0,0,rectangle,13.4375,4.00390625,1,0,0,13.4375,4.00390625,1,0,0,1,51,211,79,1,,,,,,,,
,,,,,,,,,,,,,FF,,,,,,,,1.0656,,,,,,,,,,,,,,,,,,,,,,60fd62affd3d7f977a27fc6b,61036e3ff1dd5187a7b63c6e,2021-07-29_23h14.00.701,Simcolourproject_2stim_asymm_v5,2020.2.10,MacIntel,60,61025ae37ef11b136ea224fe,,,,,,,,,482,54.68359375,23.25,1,0,0,response1disk,,6,26.11328125,10.015625,1,0,0,rectangle,26.11328125,10.015625,1,0,0,26.11328125,10.015625,1,0,0,1,52,212,40,1,,,,,,,,
,,,,,,,,,,,,,FF,,,,,,,,1.3334,,,,,,,,,,,,,,,,,,,,,,60fd62affd3d7f977a27fc6b,61036e3ff1dd5187a7b63c6e,2021-07-29_23h14.00.701,Simcolourproject_2stim_asymm_v5,2020.2.10,MacIntel,60,61025ae37ef11b136ea224fe,,,,,,,,,3753,36.63671875,-84.890625,1,0,0,response3disk,,4,9.51171875,5.578125,1,0,0,rectangle,-40.1328125,81.546875,1,0,0,7.8515625,-11.4609375,1,0,0,1,53,213,52,1,,response7disk_3,TRUE,0,0,"[278,200,279,203,214,71,63,35,148,25,236,78,73,104,100,275,152,38,226,3]",2.6508,rectangle
,,,,,,,,,,,,,FF,,,,,,,,1.3003,,,,,,,,,,,,,,,,,,,,,,60fd62affd3d7f977a27fc6b,61036e3ff1dd5187a7b63c6e,2021-07-29_23h14.00.701,Simcolourproject_2stim_asymm_v5,2020.2.10,MacIntel,60,61025ae37ef11b136ea224fe,,,,,,,,,519,77.84765625,-29.98828125,1,0,0,response3disk,,5,15.28125,-7.9453125,1,0,0,rectangle,15.28125,-7.9453125,1,0,0,15.28125,-7.9453125,1,0,0,1,54,214,0,1,,,,,,,,
,,,,,,,,,,,,,FF,,,,,,,,1.016,,,,,,,,,,,,,,,,,,,,,,60fd62affd3d7f977a27fc6b,61036e3ff1dd5187a7b63c6e,2021-07-29_23h14.00.701,Simcolourproject_2stim_asymm_v5,2020.2.10,MacIntel,60,61025ae37ef11b136ea224fe,,,,,,,,,1487,45.7890625,72.03515625,1,0,0,response1disk,,7,17.28515625,4.73828125,1,0,0,rectangle,17.28515625,4.73828125,1,0,0,17.28515625,4.73828125,1,0,0,1,55,215,60,1,,,,,,,,
,,,,,,,,,,,,,FF,,,,,,,,1.3827,,,,,,,,,,,,,,,,,,,,,,60fd62affd3d7f977a27fc6b,61036e3ff1dd5187a7b63c6e,2021-07-29_23h14.00.701,Simcolourproject_2stim_asymm_v5,2020.2.10,MacIntel,60,61025ae37ef11b136ea224fe,,,,,,,,,3105,40.51171875,-62.84765625,1,0,0,response3disk,,4,19.859375,-1.5546875,1,0,0,rectangle,19.859375,-1.5546875,1,0,0,19.859375,-1.5546875,1,0,0,1,56,216,128,1,,,,,,,,
,,,,,,,,,,,,,FF,,,,,,,,1.0669,,,,,,,,,,,,,,,,,,,,,,60fd62affd3d7f977a27fc6b,61036e3ff1dd5187a7b63c6e,2021-07-29_23h14.00.701,Simcolourproject_2stim_asymm_v5,2020.2.10,MacIntel,60,61025ae37ef11b136ea224fe,,,,,,,,,2760,71.828125,49.17578125,1,0,0,response1disk,,6,12.9609375,1.5078125,1,0,0,rectangle,12.9609375,1.5078125,1,0,0,12.9609375,1.5078125,1,0,0,1,57,217,11,1,,,,,,,,
,,,,,,,,,,,,,FF,,,,,,,,0.9839,,,,,,,,,,,,,,,,,,,,,,60fd62affd3d7f977a27fc6b,61036e3ff1dd5187a7b63c6e,2021-07-29_23h14.00.701,Simcolourproject_2stim_asymm_v5,2020.2.10,MacIntel,60,61025ae37ef11b136ea224fe,,,,,,,,,200,24.953125,50.45703125,1,0,0,response1disk,,7,10.07421875,9,1,0,0,rectangle,10.07421875,9,1,0,0,10.07421875,9,1,0,0,1,58,218,71,1,,,,,,,,
,,,,,,,,,,,,,FF,,,,,,,,1.9988,,,,,,,,,,,,,,,,,,,,,,60fd62affd3d7f977a27fc6b,61036e3ff1dd5187a7b63c6e,2021-07-29_23h14.00.701,Simcolourproject_2stim_asymm_v5,2020.2.10,MacIntel,60,61025ae37ef11b136ea224fe,,,,,,,,,4106,47.18359375,25.08203125,1,0,0,response1disk,,6,21.17578125,2.35546875,1,0,0,rectangle,21.17578125,2.35546875,1,0,0,21.17578125,2.35546875,1,0,0,1,59,219,74,1,,,,,,,,
,,,,,,,,,,,,,FF,,,,,,,,1.0492,,,,,,,,,,,,,,,,,,,,,,60fd62affd3d7f977a27fc6b,61036e3ff1dd5187a7b63c6e,2021-07-29_23h14.00.701,Simcolourproject_2stim_asymm_v5,2020.2.10,MacIntel,60,61025ae37ef11b136ea224fe,,,,,,,,,3010,40.578125,67.55078125,1,0,0,response1disk,,7,11.0390625,-1.13671875,1,0,0,rectangle,11.0390625,-1.13671875,1,0,0,11.0390625,-1.13671875,1,0,0,1,60,220,96,1,,,,,,,,
,,,,,,,,,,,,,FF,,,,,,,,1.0173,,,,,,,,,,,,,,,,,,,,,,60fd62affd3d7f977a27fc6b,61036e3ff1dd5187a7b63c6e,2021-07-29_23h14.00.701,Simcolourproject_2stim_asymm_v5,2020.2.10,MacIntel,60,61025ae37ef11b136ea224fe,,,,,,,,,1118,44.7109375,23.9765625,1,0,0,response1disk,,6,20.83203125,2.87109375,1,0,0,rectangle,20.83203125,2.87109375,1,0,0,20.83203125,2.87109375,1,0,0,1,61,221,84,1,,,,,,,,
,,,,,,,,,,,,,FF,,,,,,,,0.9333,,,,,,,,,,,,,,,,,,,,,,60fd62affd3d7f977a27fc6b,61036e3ff1dd5187a7b63c6e,2021-07-29_23h14.00.701,Simcolourproject_2stim_asymm_v5,2020.2.10,MacIntel,60,61025ae37ef11b136ea224fe,,,,,,,,,1854,43.3203125,78.70703125,1,0,0,response1disk,,7,12.58203125,8.7890625,1,0,0,rectangle,12.58203125,8.7890625,1,0,0,12.58203125,8.7890625,1,0,0,1,62,222,8,1,,,,,,,,
,,,,,,,,,,,,,FF,,,,,,,,0.8334,,,,,,,,,,,,,,,,,,,,,,60fd62affd3d7f977a27fc6b,61036e3ff1dd5187a7b63c6e,2021-07-29_23h14.00.701,Simcolourproject_2stim_asymm_v5,2020.2.10,MacIntel,60,61025ae37ef11b136ea224fe,,,,,,,,,3212,31.96484375,51.5234375,1,0,0,response1disk,,7,16.83203125,8.5390625,1,0,0,rectangle,16.83203125,8.5390625,1,0,0,16.83203125,8.5390625,1,0,0,1,63,223,15,1,,,,,,,,
,,,,,,,,,,,,,FF,,,,,,,,1.2033,,,,,,,,,,,,,,,,,,,,,,60fd62affd3d7f977a27fc6b,61036e3ff1dd5187a7b63c6e,2021-07-29_23h14.00.701,Simcolourproject_2stim_asymm_v5,2020.2.10,MacIntel,60,61025ae37ef11b136ea224fe,,,,,,,,,3435,47.29296875,-83.8671875,1,0,0,response3disk,,4,3.4609375,-7.3125,1,0,0,rectangle,3.4609375,-7.3125,1,0,0,3.4609375,-7.3125,1,0,0,1,64,224,104,1,,,,,,,,
,,,,,,,,,,,,,FF,,,,,,,,0.9015,,,,,,,,,,,,,,,,,,,,,,60fd62affd3d7f977a27fc6b,61036e3ff1dd5187a7b63c6e,2021-07-29_23h14.00.701,Simcolourproject_2stim_asymm_v5,2020.2.10,MacIntel,60,61025ae37ef11b136ea224fe,,,,,,,,,1621,29.54296875,56.578125,1,0,0,response1disk,,7,13.859375,9.78515625,1,0,0,rectangle,-67.59375,-29.53125,1,0,0,-1.23828125,-2.8515625,1,0,0,1,65,225,26,1,,response5disk_3,TRUE,2,2,"[278,200,279,203,214,71,63,35,148,25,236,78,73,104,100,275,152,38,226,3]",2.2329,rectangle
,,,,,,,,,,,,,FF,,,,,,,,1.6671,,,,,,,,,,,,,,,,,,,,,,60fd62affd3d7f977a27fc6b,61036e3ff1dd5187a7b63c6e,2021-07-29_23h14.00.701,Simcolourproject_2stim_asymm_v5,2020.2.10,MacIntel,60,61025ae37ef11b136ea224fe,,,,,,,,,3617,46.4375,65.98046875,1,0,0,response1disk,,7,12.87109375,5.640625,1,0,0,rectangle,12.87109375,5.640625,1,0,0,12.87109375,5.640625,1,0,0,1,66,226,80,1,,,,,,,,
,,,,,,,,,,,,,FF,,,,,,,,1.1672,,,,,,,,,,,,,,,,,,,,,,60fd62affd3d7f977a27fc6b,61036e3ff1dd5187a7b63c6e,2021-07-29_23h14.00.701,Simcolourproject_2stim_asymm_v5,2020.2.10,MacIntel,60,61025ae37ef11b136ea224fe,,,,,,,,,1224,31.34375,51.71484375,1,0,0,response1disk,,7,5.44140625,5.078125,1,0,0,rectangle,5.44140625,5.078125,1,0,0,5.44140625,5.078125,1,0,0,1,67,227,146,1,,,,,,,,
,,,,,,,,,,,,,FF,,,,,,,,1.0172,,,,,,,,,,,,,,,,,,,,,,60fd62affd3d7f977a27fc6b,61036e3ff1dd5187a7b63c6e,2021-07-29_23h14.00.701,Simcolourproject_2stim_asymm_v5,2020.2.10,MacIntel,60,61025ae37ef11b136ea224fe,,,,,,,,,1485,23.41796875,36.75,1,0,0,response1disk,,7,4.7109375,0.82421875,1,0,0,rectangle,4.7109375,0.82421875,1,0,0,4.7109375,0.82421875,1,0,0,1,68,228,56,1,,,,,,,,
,,,,,,,,,,,,,FF,,,,,,,,1.0327,,,,,,,,,,,,,,,,,,,,,,60fd62affd3d7f977a27fc6b,61036e3ff1dd5187a7b63c6e,2021-07-29_23h14.00.701,Simcolourproject_2stim_asymm_v5,2020.2.10,MacIntel,60,61025ae37ef11b136ea224fe,,,,,,,,,4269,56.30078125,-35.234375,1,0,0,response3disk,,5,14.80078125,-2.3359375,1,0,0,rectangle,14.80078125,-2.3359375,1,0,0,14.80078125,-2.3359375,1,0,0,1,69,229,93,1,,,,,,,,
,,,,,,,,,,,,,FF,,,,,,,,1.2832,,,,,,,,,,,,,,,,,,,,,,60fd62affd3d7f977a27fc6b,61036e3ff1dd5187a7b63c6e,2021-07-29_23h14.00.701,Simcolourproject_2stim_asymm_v5,2020.2.10,MacIntel,60,61025ae37ef11b136ea224fe,,,,,,,,,3881,31.33203125,-76.39453125,1,0,0,response3disk,,4,-3.58984375,-8.48046875,1,0,0,rectangle,-3.58984375,-8.48046875,1,0,0,-3.58984375,-8.48046875,1,0,0,1,70,230,20,1,,,,,,,,
,,,,,,,,,,,,,FF,,,,,,,,0.983,,,,,,,,,,,,,,,,,,,,,,60fd62affd3d7f977a27fc6b,61036e3ff1dd5187a7b63c6e,2021-07-29_23h14.00.701,Simcolourproject_2stim_asymm_v5,2020.2.10,MacIntel,60,61025ae37ef11b136ea224fe,,,,,,,,,1599,25.75,-63.03125,1,0,0,response3disk,,4,5.9375,-0.13671875,1,0,0,rectangle,5.9375,-0.13671875,1,0,0,5.9375,-0.13671875,1,0,0,1,71,231,3,1,,,,,,,,
,,,,,,,,,,,,,FF,,,,,,,,1.0835,,,,,,,,,,,,,,,,,,,,,,60fd62affd3d7f977a27fc6b,61036e3ff1dd5187a7b63c6e,2021-07-29_23h14.00.701,Simcolourproject_2stim_asymm_v5,2020.2.10,MacIntel,60,61025ae37ef11b136ea224fe,,,,,,,,,2694,25.3828125,43.52734375,1,0,0,response1disk,,7,3.7109375,-1.2734375,1,0,0,rectangle,3.7109375,-1.2734375,1,0,0,3.7109375,-1.2734375,1,0,0,1,72,232,111,1,,,,,,,,
,,,,,,,,,,,,,FF,,,,,,,,1.3907,,,,,,,,,,,,,,,,,,,,,,60fd62affd3d7f977a27fc6b,61036e3ff1dd5187a7b63c6e,2021-07-29_23h14.00.701,Simcolourproject_2stim_asymm_v5,2020.2.10,MacIntel,60,61025ae37ef11b136ea224fe,,,,,,,,,2985,65.828125,25.2421875,1,0,0,response1disk,,6,11.62109375,-2.3828125,1,0,0,rectangle,11.62109375,-2.3828125,1,0,0,11.62109375,-2.3828125,1,0,0,1,73,233,107,1,,,,,,,,
,,,,,,,,,,,,,FF,,,,,,,,1.6831,,,,,,,,,,,,,,,,,,,,,,60fd62affd3d7f977a27fc6b,61036e3ff1dd5187a7b63c6e,2021-07-29_23h14.00.701,Simcolourproject_2stim_asymm_v5,2020.2.10,MacIntel,60,61025ae37ef11b136ea224fe,,,,,,,,,3595,19.953125,67.890625,1,0,0,response1disk,,7,4.30078125,11.328125,1,0,0,rectangle,4.30078125,11.328125,1,0,0,4.30078125,11.328125,1,0,0,1,74,234,72,1,,,,,,,,
,,,,,,,,,,,,,FF,,,,,,,,1.6173,,,,,,,,,,,,,,,,,,,,,,60fd62affd3d7f977a27fc6b,61036e3ff1dd5187a7b63c6e,2021-07-29_23h14.00.701,Simcolourproject_2stim_asymm_v5,2020.2.10,MacIntel,60,61025ae37ef11b136ea224fe,,,,,,,,,3875,-83.3828125,60.23828125,1,0,0,response7disk,,1,4.46875,-4.12109375,1,0,0,rectangle,-71.3359375,35.93359375,1,0,0,7.8359375,5.875,1,0,0,1,75,235,152,1,,response7disk_3,TRUE,1,1,"[278,200,279,203,214,71,63,35,148,25,236,78,73,104,100,275,152,38,226,3]",1.9341,rectangle
,,,,,,,,,,,,,FF,,,,,,,,0.8494,,,,,,,,,,,,,,,,,,,,,,60fd62affd3d7f977a27fc6b,61036e3ff1dd5187a7b63c6e,2021-07-29_23h14.00.701,Simcolourproject_2stim_asymm_v5,2020.2.10,MacIntel,60,61025ae37ef11b136ea224fe,,,,,,,,,446,36.01171875,63.171875,1,0,0,response1disk,,7,9.5703125,2.5546875,1,0,0,rectangle,9.5703125,2.5546875,1,0,0,9.5703125,2.5546875,1,0,0,1,76,236,119,1,,,,,,,,
,,,,,,,,,,,,,FF,,,,,,,,1.4166,,,,,,,,,,,,,,,,,,,,,,60fd62affd3d7f977a27fc6b,61036e3ff1dd5187a7b63c6e,2021-07-29_23h14.00.701,Simcolourproject_2stim_asymm_v5,2020.2.10,MacIntel,60,61025ae37ef11b136ea224fe,,,,,,,,,4149,37.703125,46.640625,1,0,0,response1disk,,7,12.51171875,4.53125,1,0,0,rectangle,12.51171875,4.53125,1,0,0,12.51171875,4.53125,1,0,0,1,77,237,13,1,,,,,,,,
,,,,,,,,,,,,,FF,,,,,,,,0.867,,,,,,,,,,,,,,,,,,,,,,60fd62affd3d7f977a27fc6b,61036e3ff1dd5187a7b63c6e,2021-07-29_23h14.00.701,Simcolourproject_2stim_asymm_v5,2020.2.10,MacIntel,60,61025ae37ef11b136ea224fe,,,,,,,,,2001,29.078125,40.2265625,1,0,0,response1disk,,7,3.86328125,-7.61328125,1,0,0,rectangle,3.86328125,-7.61328125,1,0,0,3.86328125,-7.61328125,1,0,0,1,78,238,130,1,,,,,,,,
,,,,,,,,,,,,,FF,,,,,,,,0.8835,,,,,,,,,,,,,,,,,,,,,,60fd62affd3d7f977a27fc6b,61036e3ff1dd5187a7b63c6e,2021-07-29_23h14.00.701,Simcolourproject_2stim_asymm_v5,2020.2.10,MacIntel,60,61025ae37ef11b136ea224fe,,,,,,,,,4133,27.25390625,57.9375,1,0,0,response1disk,,7,6.31640625,10.80859375,1,0,0,rectangle,6.31640625,10.80859375,1,0,0,6.31640625,10.80859375,1,0,0,1,79,239,108,1,,,,,,,,
,,,,,,,,,,,,,FF,,,,,,,,0.7678,,,,,,,,,,,,,,,,,,,,,,60fd62affd3d7f977a27fc6b,61036e3ff1dd5187a7b63c6e,2021-07-29_23h14.00.701,Simcolourproject_2stim_asymm_v5,2020.2.10,MacIntel,60,61025ae37ef11b136ea224fe,,,,,,,,,1171,40.49609375,72.16796875,1,0,0,response1disk,,7,7.90625,9.625,1,0,0,rectangle,7.90625,9.625,1,0,0,7.90625,9.625,1,0,0,1,80,240,10,1,,,,,,,,
,,,,,,,,,,,,,FF,,,,,,,,1.0326,,,,,,,,,,,,,,,,,,,,,,60fd62affd3d7f977a27fc6b,61036e3ff1dd5187a7b63c6e,2021-07-29_23h14.00.701,Simcolourproject_2stim_asymm_v5,2020.2.10,MacIntel,60,61025ae37ef11b136ea224fe,,,,,,,,,3403,21.2109375,32.9921875,1,0,0,response1disk,,7,-0.0703125,-2.33984375,1,0,0,rectangle,-0.0703125,-2.33984375,1,0,0,-0.0703125,-2.33984375,1,0,0,1,81,241,89,1,,,,,,,,
,,,,,,,,,,,,,FF,,,,,,,,0.7998,,,,,,,,,,,,,,,,,,,,,,60fd62affd3d7f977a27fc6b,61036e3ff1dd5187a7b63c6e,2021-07-29_23h14.00.701,Simcolourproject_2stim_asymm_v5,2020.2.10,MacIntel,60,61025ae37ef11b136ea224fe,,,,,,,,,706,35.22265625,52.984375,1,0,0,response1disk,,7,13.1484375,8.640625,1,0,0,rectangle,13.1484375,8.640625,1,0,0,13.1484375,8.640625,1,0,0,1,82,242,59,1,,,,,,,,
,,,,,,,,,,,,,FF,,,,,,,,0.9997,,,,,,,,,,,,,,,,,,,,,,60fd62affd3d7f977a27fc6b,61036e3ff1dd5187a7b63c6e,2021-07-29_23h14.00.701,Simcolourproject_2stim_asymm_v5,2020.2.10,MacIntel,60,61025ae37ef11b136ea224fe,,,,,,,,,401,48.0390625,33.17578125,1,0,0,response1disk,,6,14.25390625,7.19140625,1,0,0,rectangle,14.25390625,7.19140625,1,0,0,14.25390625,7.19140625,1,0,0,1,83,243,133,1,,,,,,,,
,,,,,,,,,,,,,FF,,,,,,,,0.9181,,,,,,,,,,,,,,,,,,,,,,60fd62affd3d7f977a27fc6b,61036e3ff1dd5187a7b63c6e,2021-07-29_23h14.00.701,Simcolourproject_2stim_asymm_v5,2020.2.10,MacIntel,60,61025ae37ef11b136ea224fe,,,,,,,,,528,17.9921875,47.421875,1,0,0,response1disk,,7,-10.75390625,-9.76953125,1,0,0,rectangle,-10.75390625,-9.76953125,1,0,0,-10.75390625,-9.76953125,1,0,0,1,84,244,121,1,,,,,,,,
,,,,,,,,,,,,,FF,,,,,,,,1.3494,,,,,,,,,,,,,,,,,,,,,,60fd62affd3d7f977a27fc6b,61036e3ff1dd5187a7b63c6e,2021-07-29_23h14.00.701,Simcolourproject_2stim_asymm_v5,2020.2.10,MacIntel,60,61025ae37ef11b136ea224fe,,,,,,,,,329,37.22265625,54.390625,1,0,0,response1disk,,7,11.87109375,-8.68359375,1,0,0,rectangle,11.87109375,-8.68359375,1,0,0,11.87109375,-8.68359375,1,0,0,1,85,245,140,1,,,,,,,,
,,,,,,,,,,,,,FF,,,,,,,,0.8501,,,,,,,,,,,,,,,,,,,,,,60fd62affd3d7f977a27fc6b,61036e3ff1dd5187a7b63c6e,2021-07-29_23h14.00.701,Simcolourproject_2stim_asymm_v5,2020.2.10,MacIntel,60,61025ae37ef11b136ea224fe,,,,,,,,,3722,29.65234375,45.328125,1,0,0,response1disk,,7,7.1484375,0.6015625,1,0,0,rectangle,7.1484375,0.6015625,1,0,0,7.1484375,0.6015625,1,0,0,1,86,246,82,1,,,,,,,,
,,,,,,,,,,,,,FF,,,,,,,,0.7485,,,,,,,,,,,,,,,,,,,,,,60fd62affd3d7f977a27fc6b,61036e3ff1dd5187a7b63c6e,2021-07-29_23h14.00.701,Simcolourproject_2stim_asymm_v5,2020.2.10,MacIntel,60,61025ae37ef11b136ea224fe,,,,,,,,,2210,27.921875,50.71484375,1,0,0,response1disk,,7,3.8359375,6.69921875,1,0,0,rectangle,3.8359375,6.69921875,1,0,0,3.8359375,6.69921875,1,0,0,1,87,247,117,1,,,,,,,,
,,,,,,,,,,,,,FF,,,,,,,,1.4668,,,,,,,,,,,,,,,,,,,,,,60fd62affd3d7f977a27fc6b,61036e3ff1dd5187a7b63c6e,2021-07-29_23h14.00.701,Simcolourproject_2stim_asymm_v5,2020.2.10,MacIntel,60,61025ae37ef11b136ea224fe,,,,,,,,,3343,25.0390625,-76.0390625,1,0,0,response3disk,,4,3.671875,9.11328125,1,0,0,rectangle,3.671875,9.11328125,1,0,0,3.671875,9.11328125,1,0,0,1,88,248,58,1,,,,,,,,
