key_resp.keys,key_resp.rt,key_resp_14.keys,key_resp_14.rt,key_resp_15.keys,key_resp_15.rt,key_resp_17.keys,key_resp_17.rt,key_resp_9.keys,key_resp_9.rt,key_resp_10.keys,key_resp_10.rt,practice_comparison,Ecc,mouse_5.x,mouse_5.y,mouse_5.leftButton,mouse_5.midButton,mouse_5.rightButton,mouse_5.clicked_name,pracsimilarity,response_time,mouse_10.x,mouse_10.y,mouse_10.leftButton,mouse_10.midButton,mouse_10.rightButton,mouse_10.clicked_name,mouse_7.x,mouse_7.y,mouse_7.leftButton,mouse_7.midButton,mouse_7.rightButton,mouse_6.x,mouse_6.y,mouse_6.leftButton,mouse_6.midButton,mouse_6.rightButton,duringprac.thisRepN,duringprac.thisTrialN,duringprac.thisN,duringprac.thisIndex,duringprac.ran,participant,session,date,expName,psychopyVersion,OS,frameRate,study_id,mouse_7.clicked_name,catchpracsimilarity,catch_response_time,catchnumberprac,catchtrialorderprac,mouse_6.clicked_name,key_resp_22.keys,key_resp_22.rt,realcomparison,mouse.x,mouse.y,mouse.leftButton,mouse.midButton,mouse.rightButton,mouse.clicked_name,Colour2,similarity,mouse_2.x,mouse_2.y,mouse_2.leftButton,mouse_2.midButton,mouse_2.rightButton,mouse_2.clicked_name,mouse_3.x,mouse_3.y,mouse_3.leftButton,mouse_3.midButton,mouse_3.rightButton,mouse_11.x,mouse_11.y,mouse_11.leftButton,mouse_11.midButton,mouse_11.rightButton,trials_2.thisRepN,trials_2.thisTrialN,trials_2.thisN,trials_2.thisIndex,trials_2.ran,Colour1,mouse_3.clicked_name,catchornah,catchsimilarity,catchnumber,catchtrialorder,catchRT,mouse_11.clicked_name
space,1.591,space,15.9521,space,15.6995,space,13.9427,space,1.5435,space,6.8771,16,PF,-50,130,1,0,0,response7disk_5,0,5.3891,7,0,1,0,0,rectangle_8,7,0,1,0,0,7,0,1,0,0,0,0,0,4,1,60fddb267c21d1162b2c3476,61036eba3c1a05ecd7f32626,2021-07-29_22h18.56.266,Simcolourproject_2stim_asymm_v5,2020.2.10,Win32,60,61025ae37ef11b136ea224fe,,,,,,,,,,,,,,,,,,,,,,,,,,,,,,,,,,,,,,,,,,,,,,
,,,,,,,,,,,,95,FF,-57,-104,1,0,0,response5disk_5,3,40.1129,5,1,1,0,0,rectangle_8,109,-53,1,0,0,19,6,1,0,0,0,1,1,3,1,60fddb267c21d1162b2c3476,61036eba3c1a05ecd7f32626,2021-07-29_22h18.56.266,Simcolourproject_2stim_asymm_v5,2020.2.10,Win32,60,61025ae37ef11b136ea224fe,response3disk_7,5,2.736,5,"[2,5]",rectangle_4,,,,,,,,,,,,,,,,,,,,,,,,,,,,,,,,,,,,,,,,
,,,,,,,,,,,,160,FF,-46,-99,1,0,0,response5disk_5,3,16.699,-11,2,1,0,0,rectangle_8,-11,2,1,0,0,-11,2,1,0,0,0,2,2,0,1,60fddb267c21d1162b2c3476,61036eba3c1a05ecd7f32626,2021-07-29_22h18.56.266,Simcolourproject_2stim_asymm_v5,2020.2.10,Win32,60,61025ae37ef11b136ea224fe,,,,,,,,,,,,,,,,,,,,,,,,,,,,,,,,,,,,,,,,,,,,,,
,,,,,,,,,,,,71,PF,-61,-104,1,0,0,response5disk_5,3,2.7576,-7,3,1,0,0,rectangle_8,-7,3,1,0,0,-7,3,1,0,0,0,3,3,1,1,60fddb267c21d1162b2c3476,61036eba3c1a05ecd7f32626,2021-07-29_22h18.56.266,Simcolourproject_2stim_asymm_v5,2020.2.10,Win32,60,61025ae37ef11b136ea224fe,,,,,,,,,,,,,,,,,,,,,,,,,,,,,,,,,,,,,,,,,,,,,,
,,,,,,,,,,,,149,PF,-106,-40,1,0,0,response5disk_5,2,1.4788,5,-15,1,0,0,rectangle_8,100,-55,1,0,0,-5,-13,1,0,0,0,4,4,6,1,60fddb267c21d1162b2c3476,61036eba3c1a05ecd7f32626,2021-07-29_22h18.56.266,Simcolourproject_2stim_asymm_v5,2020.2.10,Win32,60,61025ae37ef11b136ea224fe,response3disk_7,5,1.93,5,"[2,5]",rectangle_4,,,,,,,,,,,,,,,,,,,,,,,,,,,,,,,,,,,,,,,,
,,,,,,,,,,,,128,PF,62,-100,1,0,0,response3disk_5,4,2.0345,8,2,1,0,0,rectangle_8,8,2,1,0,0,8,2,1,0,0,0,5,5,2,1,60fddb267c21d1162b2c3476,61036eba3c1a05ecd7f32626,2021-07-29_22h18.56.266,Simcolourproject_2stim_asymm_v5,2020.2.10,Win32,60,61025ae37ef11b136ea224fe,,,,,,,,,,,,,,,,,,,,,,,,,,,,,,,,,,,,,,,,,,,,,,
,,,,,,,,,,,,2,FF,-54,93,1,0,0,response7disk_5,0,1.3469,-15,12,1,0,0,rectangle_8,-15,12,1,0,0,-15,12,1,0,0,0,6,6,5,1,60fddb267c21d1162b2c3476,61036eba3c1a05ecd7f32626,2021-07-29_22h18.56.266,Simcolourproject_2stim_asymm_v5,2020.2.10,Win32,60,61025ae37ef11b136ea224fe,,,,,,,,,,,,,,,,,,,,,,,,,,,,,,,,,,,,,,,,,,,,,,
,,,,,,,,,,,,,FF,,,,,,,,6.0972,,,,,,,,,,,,,,,,,,,,,,60fddb267c21d1162b2c3476,61036eba3c1a05ecd7f32626,2021-07-29_22h18.56.266,Simcolourproject_2stim_asymm_v5,2020.2.10,Win32,60,61025ae37ef11b136ea224fe,,,,,,,space,4.7048,2628,121,-57,1,0,0,response3disk,,5,5,-10,1,0,0,rectangle,5,-10,1,0,0,5,-10,1,0,0,0,0,0,66,1,,,,,,,,
,,,,,,,,,,,,,FF,,,,,,,,1.1525,,,,,,,,,,,,,,,,,,,,,,60fddb267c21d1162b2c3476,61036eba3c1a05ecd7f32626,2021-07-29_22h18.56.266,Simcolourproject_2stim_asymm_v5,2020.2.10,Win32,60,61025ae37ef11b136ea224fe,,,,,,,,,3531,105,-46,1,0,0,response3disk,,5,33,-7,1,0,0,rectangle,33,-7,1,0,0,33,-7,1,0,0,0,1,1,87,1,,,,,,,,
,,,,,,,,,,,,,FF,,,,,,,,0.8816,,,,,,,,,,,,,,,,,,,,,,60fddb267c21d1162b2c3476,61036eba3c1a05ecd7f32626,2021-07-29_22h18.56.266,Simcolourproject_2stim_asymm_v5,2020.2.10,Win32,60,61025ae37ef11b136ea224fe,,,,,,,,,3097,-96,48,1,0,0,response7disk,,1,9,-8,1,0,0,rectangle,9,-8,1,0,0,9,-8,1,0,0,0,2,2,59,1,,,,,,,,
,,,,,,,,,,,,,FF,,,,,,,,1.7914,,,,,,,,,,,,,,,,,,,,,,60fddb267c21d1162b2c3476,61036eba3c1a05ecd7f32626,2021-07-29_22h18.56.266,Simcolourproject_2stim_asymm_v5,2020.2.10,Win32,60,61025ae37ef11b136ea224fe,,,,,,,,,1503,45,107,1,0,0,response1disk,,7,21,-13,1,0,0,rectangle,21,-13,1,0,0,21,-13,1,0,0,0,3,3,95,1,,,,,,,,
,,,,,,,,,,,,,FF,,,,,,,,1.9096,,,,,,,,,,,,,,,,,,,,,,60fddb267c21d1162b2c3476,61036eba3c1a05ecd7f32626,2021-07-29_22h18.56.266,Simcolourproject_2stim_asymm_v5,2020.2.10,Win32,60,61025ae37ef11b136ea224fe,,,,,,,,,124,95,-85,1,0,0,response3disk,,5,4,-9,1,0,0,rectangle,4,-9,1,0,0,4,-9,1,0,0,0,4,4,128,1,,,,,,,,
,,,,,,,,,,,,,FF,,,,,,,,1.8885,,,,,,,,,,,,,,,,,,,,,,60fddb267c21d1162b2c3476,61036eba3c1a05ecd7f32626,2021-07-29_22h18.56.266,Simcolourproject_2stim_asymm_v5,2020.2.10,Win32,60,61025ae37ef11b136ea224fe,,,,,,,,,1216,47,-120,1,0,0,response3disk,,4,0,0,1,0,0,rectangle,0,0,1,0,0,0,0,1,0,0,0,5,5,24,1,,,,,,,,
,,,,,,,,,,,,,FF,,,,,,,,1.7707,,,,,,,,,,,,,,,,,,,,,,60fddb267c21d1162b2c3476,61036eba3c1a05ecd7f32626,2021-07-29_22h18.56.266,Simcolourproject_2stim_asymm_v5,2020.2.10,Win32,60,61025ae37ef11b136ea224fe,,,,,,,,,2599,112,-43,1,0,0,response3disk,,5,7,-10,1,0,0,rectangle,7,-10,1,0,0,7,-10,1,0,0,0,6,6,154,1,,,,,,,,
,,,,,,,,,,,,,FF,,,,,,,,1.2428,,,,,,,,,,,,,,,,,,,,,,60fddb267c21d1162b2c3476,61036eba3c1a05ecd7f32626,2021-07-29_22h18.56.266,Simcolourproject_2stim_asymm_v5,2020.2.10,Win32,60,61025ae37ef11b136ea224fe,,,,,,,,,861,103,-61,1,0,0,response3disk,,5,-17,-4,1,0,0,rectangle,-17,-4,1,0,0,-17,-4,1,0,0,0,7,7,151,1,,,,,,,,
,,,,,,,,,,,,,FF,,,,,,,,1.1872,,,,,,,,,,,,,,,,,,,,,,60fddb267c21d1162b2c3476,61036eba3c1a05ecd7f32626,2021-07-29_22h18.56.266,Simcolourproject_2stim_asymm_v5,2020.2.10,Win32,60,61025ae37ef11b136ea224fe,,,,,,,,,199,-114,-54,1,0,0,response5disk,,2,1,10,1,0,0,rectangle,1,10,1,0,0,1,10,1,0,0,0,8,8,40,1,,,,,,,,
,,,,,,,,,,,,,FF,,,,,,,,1.1596,,,,,,,,,,,,,,,,,,,,,,60fddb267c21d1162b2c3476,61036eba3c1a05ecd7f32626,2021-07-29_22h18.56.266,Simcolourproject_2stim_asymm_v5,2020.2.10,Win32,60,61025ae37ef11b136ea224fe,,,,,,,,,3978,-56,-89,1,0,0,response5disk,,3,-22,-15,1,0,0,rectangle,-22,-15,1,0,0,-22,-15,1,0,0,0,9,9,134,1,,,,,,,,
,,,,,,,,,,,,,FF,,,,,,,,1.0556,,,,,,,,,,,,,,,,,,,,,,60fddb267c21d1162b2c3476,61036eba3c1a05ecd7f32626,2021-07-29_22h18.56.266,Simcolourproject_2stim_asymm_v5,2020.2.10,Win32,60,61025ae37ef11b136ea224fe,,,,,,,,,2848,57,-90,1,0,0,response3disk,,4,13,-5,1,0,0,rectangle,13,-5,1,0,0,13,-5,1,0,0,0,10,10,84,1,,,,,,,,
,,,,,,,,,,,,,FF,,,,,,,,0.8818,,,,,,,,,,,,,,,,,,,,,,60fddb267c21d1162b2c3476,61036eba3c1a05ecd7f32626,2021-07-29_22h18.56.266,Simcolourproject_2stim_asymm_v5,2020.2.10,Win32,60,61025ae37ef11b136ea224fe,,,,,,,,,185,-55,117,1,0,0,response7disk,,0,0,18,1,0,0,rectangle,-58,105,1,0,0,10,-3,1,0,0,0,11,11,27,1,,response7disk_3,TRUE,0,0,"[159,84,162,243,227,172,309,132,306,12,142,79,50,249,232,307,82,61,259,307]",1.9999,rectangle
,,,,,,,,,,,,,FF,,,,,,,,3.7425,,,,,,,,,,,,,,,,,,,,,,60fddb267c21d1162b2c3476,61036eba3c1a05ecd7f32626,2021-07-29_22h18.56.266,Simcolourproject_2stim_asymm_v5,2020.2.10,Win32,60,61025ae37ef11b136ea224fe,,,,,,,,,50,112,52,1,0,0,response1disk,,6,22,1,1,0,0,rectangle,22,1,1,0,0,22,1,1,0,0,0,12,12,121,1,,,,,,,,
,,,,,,,,,,,,,FF,,,,,,,,0.6247,,,,,,,,,,,,,,,,,,,,,,60fddb267c21d1162b2c3476,61036eba3c1a05ecd7f32626,2021-07-29_22h18.56.266,Simcolourproject_2stim_asymm_v5,2020.2.10,Win32,60,61025ae37ef11b136ea224fe,,,,,,,,,3741,-55,119,1,0,0,response7disk,,0,-7,20,1,0,0,rectangle,-7,20,1,0,0,-7,20,1,0,0,0,13,13,62,1,,,,,,,,
,,,,,,,,,,,,,FF,,,,,,,,1.0275,,,,,,,,,,,,,,,,,,,,,,60fddb267c21d1162b2c3476,61036eba3c1a05ecd7f32626,2021-07-29_22h18.56.266,Simcolourproject_2stim_asymm_v5,2020.2.10,Win32,60,61025ae37ef11b136ea224fe,,,,,,,,,81,-82,-40,1,0,0,response5disk,,2,-18,-10,1,0,0,rectangle,-18,-10,1,0,0,-18,-10,1,0,0,0,14,14,43,1,,,,,,,,
,,,,,,,,,,,,,FF,,,,,,,,1.1387,,,,,,,,,,,,,,,,,,,,,,60fddb267c21d1162b2c3476,61036eba3c1a05ecd7f32626,2021-07-29_22h18.56.266,Simcolourproject_2stim_asymm_v5,2020.2.10,Win32,60,61025ae37ef11b136ea224fe,,,,,,,,,1962,45,-130,1,0,0,response3disk,,4,14,-13,1,0,0,rectangle,14,-13,1,0,0,14,-13,1,0,0,0,15,15,21,1,,,,,,,,
,,,,,,,,,,,,,FF,,,,,,,,1.0901,,,,,,,,,,,,,,,,,,,,,,60fddb267c21d1162b2c3476,61036eba3c1a05ecd7f32626,2021-07-29_22h18.56.266,Simcolourproject_2stim_asymm_v5,2020.2.10,Win32,60,61025ae37ef11b136ea224fe,,,,,,,,,2571,116,45,1,0,0,response1disk,,6,17,-3,1,0,0,rectangle,17,-3,1,0,0,17,-3,1,0,0,0,16,16,116,1,,,,,,,,
,,,,,,,,,,,,,FF,,,,,,,,0.6596,,,,,,,,,,,,,,,,,,,,,,60fddb267c21d1162b2c3476,61036eba3c1a05ecd7f32626,2021-07-29_22h18.56.266,Simcolourproject_2stim_asymm_v5,2020.2.10,Win32,60,61025ae37ef11b136ea224fe,,,,,,,,,1996,44,103,1,0,0,response1disk,,7,14,1,1,0,0,rectangle,14,1,1,0,0,14,1,1,0,0,0,17,17,129,1,,,,,,,,
,,,,,,,,,,,,,FF,,,,,,,,1.0485,,,,,,,,,,,,,,,,,,,,,,60fddb267c21d1162b2c3476,61036eba3c1a05ecd7f32626,2021-07-29_22h18.56.266,Simcolourproject_2stim_asymm_v5,2020.2.10,Win32,60,61025ae37ef11b136ea224fe,,,,,,,,,2037,-47,-99,1,0,0,response5disk,,3,-2,5,1,0,0,rectangle,-2,5,1,0,0,-2,5,1,0,0,0,18,18,29,1,,,,,,,,
,,,,,,,,,,,,,FF,,,,,,,,2.076,,,,,,,,,,,,,,,,,,,,,,60fddb267c21d1162b2c3476,61036eba3c1a05ecd7f32626,2021-07-29_22h18.56.266,Simcolourproject_2stim_asymm_v5,2020.2.10,Win32,60,61025ae37ef11b136ea224fe,,,,,,,,,2593,55,-105,1,0,0,response3disk,,4,-4,-4,1,0,0,rectangle,-4,-4,1,0,0,-4,-4,1,0,0,0,19,19,152,1,,,,,,,,
,,,,,,,,,,,,,FF,,,,,,,,1.5275,,,,,,,,,,,,,,,,,,,,,,60fddb267c21d1162b2c3476,61036eba3c1a05ecd7f32626,2021-07-29_22h18.56.266,Simcolourproject_2stim_asymm_v5,2020.2.10,Win32,60,61025ae37ef11b136ea224fe,,,,,,,,,2790,30,-113,1,0,0,response3disk,,4,-8,8,1,0,0,rectangle,-8,8,1,0,0,-8,8,1,0,0,0,20,20,100,1,,,,,,,,
,,,,,,,,,,,,,FF,,,,,,,,1.0623,,,,,,,,,,,,,,,,,,,,,,60fddb267c21d1162b2c3476,61036eba3c1a05ecd7f32626,2021-07-29_22h18.56.266,Simcolourproject_2stim_asymm_v5,2020.2.10,Win32,60,61025ae37ef11b136ea224fe,,,,,,,,,3618,-69,-99,1,0,0,response5disk,,3,-7,-2,1,0,0,rectangle,-7,-2,1,0,0,-7,-2,1,0,0,0,21,21,117,1,,,,,,,,
,,,,,,,,,,,,,FF,,,,,,,,0.9372,,,,,,,,,,,,,,,,,,,,,,60fddb267c21d1162b2c3476,61036eba3c1a05ecd7f32626,2021-07-29_22h18.56.266,Simcolourproject_2stim_asymm_v5,2020.2.10,Win32,60,61025ae37ef11b136ea224fe,,,,,,,,,2585,109,-46,1,0,0,response3disk,,5,23,7,1,0,0,rectangle,23,7,1,0,0,23,7,1,0,0,0,22,22,141,1,,,,,,,,
,,,,,,,,,,,,,FF,,,,,,,,0.9857,,,,,,,,,,,,,,,,,,,,,,60fddb267c21d1162b2c3476,61036eba3c1a05ecd7f32626,2021-07-29_22h18.56.266,Simcolourproject_2stim_asymm_v5,2020.2.10,Win32,60,61025ae37ef11b136ea224fe,,,,,,,,,2823,-74,-46,1,0,0,response5disk,,2,0,1,1,0,0,rectangle,0,1,1,0,0,0,1,1,0,0,0,23,23,73,1,,,,,,,,
,,,,,,,,,,,,,FF,,,,,,,,0.7707,,,,,,,,,,,,,,,,,,,,,,60fddb267c21d1162b2c3476,61036eba3c1a05ecd7f32626,2021-07-29_22h18.56.266,Simcolourproject_2stim_asymm_v5,2020.2.10,Win32,60,61025ae37ef11b136ea224fe,,,,,,,,,3748,-84,-38,1,0,0,response5disk,,2,-10,-2,1,0,0,rectangle,-10,-2,1,0,0,-10,-2,1,0,0,0,24,24,17,1,,,,,,,,
,,,,,,,,,,,,,FF,,,,,,,,0.965,,,,,,,,,,,,,,,,,,,,,,60fddb267c21d1162b2c3476,61036eba3c1a05ecd7f32626,2021-07-29_22h18.56.266,Simcolourproject_2stim_asymm_v5,2020.2.10,Win32,60,61025ae37ef11b136ea224fe,,,,,,,,,3563,-50,-75,1,0,0,response5disk,,3,-9,-5,1,0,0,rectangle,-9,-5,1,0,0,-9,-5,1,0,0,0,25,25,34,1,,,,,,,,
,,,,,,,,,,,,,FF,,,,,,,,1.1597,,,,,,,,,,,,,,,,,,,,,,60fddb267c21d1162b2c3476,61036eba3c1a05ecd7f32626,2021-07-29_22h18.56.266,Simcolourproject_2stim_asymm_v5,2020.2.10,Win32,60,61025ae37ef11b136ea224fe,,,,,,,,,3220,-56,-87,1,0,0,response5disk,,3,7,0,1,0,0,rectangle,7,0,1,0,0,7,0,1,0,0,0,26,26,80,1,,,,,,,,
,,,,,,,,,,,,,FF,,,,,,,,0.743,,,,,,,,,,,,,,,,,,,,,,60fddb267c21d1162b2c3476,61036eba3c1a05ecd7f32626,2021-07-29_22h18.56.266,Simcolourproject_2stim_asymm_v5,2020.2.10,Win32,60,61025ae37ef11b136ea224fe,,,,,,,,,1853,-51,-83,1,0,0,response5disk,,3,-8,5,1,0,0,rectangle,-8,5,1,0,0,-8,5,1,0,0,0,27,27,98,1,,,,,,,,
,,,,,,,,,,,,,FF,,,,,,,,2.1799,,,,,,,,,,,,,,,,,,,,,,60fddb267c21d1162b2c3476,61036eba3c1a05ecd7f32626,2021-07-29_22h18.56.266,Simcolourproject_2stim_asymm_v5,2020.2.10,Win32,60,61025ae37ef11b136ea224fe,,,,,,,,,2489,66,-102,1,0,0,response3disk,,4,-5,7,1,0,0,rectangle,-5,7,1,0,0,-5,7,1,0,0,0,28,28,57,1,,,,,,,,
,,,,,,,,,,,,,FF,,,,,,,,1.9231,,,,,,,,,,,,,,,,,,,,,,60fddb267c21d1162b2c3476,61036eba3c1a05ecd7f32626,2021-07-29_22h18.56.266,Simcolourproject_2stim_asymm_v5,2020.2.10,Win32,60,61025ae37ef11b136ea224fe,,,,,,,,,2698,128,49,1,0,0,response1disk,,6,12,5,1,0,0,rectangle,12,5,1,0,0,12,5,1,0,0,0,29,29,61,1,,,,,,,,
,,,,,,,,,,,,,FF,,,,,,,,1.7221,,,,,,,,,,,,,,,,,,,,,,60fddb267c21d1162b2c3476,61036eba3c1a05ecd7f32626,2021-07-29_22h18.56.266,Simcolourproject_2stim_asymm_v5,2020.2.10,Win32,60,61025ae37ef11b136ea224fe,,,,,,,,,3977,-59,-103,1,0,0,response5disk,,3,-8,-6,1,0,0,rectangle,-8,-6,1,0,0,-8,-6,1,0,0,0,30,30,52,1,,,,,,,,
,,,,,,,,,,,,,FF,,,,,,,,0.847,,,,,,,,,,,,,,,,,,,,,,60fddb267c21d1162b2c3476,61036eba3c1a05ecd7f32626,2021-07-29_22h18.56.266,Simcolourproject_2stim_asymm_v5,2020.2.10,Win32,60,61025ae37ef11b136ea224fe,,,,,,,,,1650,54,122,1,0,0,response1disk,,7,12,20,1,0,0,rectangle,12,20,1,0,0,12,20,1,0,0,0,31,31,38,1,,,,,,,,
,,,,,,,,,,,,,FF,,,,,,,,1.4719,,,,,,,,,,,,,,,,,,,,,,60fddb267c21d1162b2c3476,61036eba3c1a05ecd7f32626,2021-07-29_22h18.56.266,Simcolourproject_2stim_asymm_v5,2020.2.10,Win32,60,61025ae37ef11b136ea224fe,,,,,,,,,1228,68,-47,1,0,0,response3disk,,5,19,-3,1,0,0,rectangle,19,-3,1,0,0,19,-3,1,0,0,0,32,32,13,1,,,,,,,,
,,,,,,,,,,,,,FF,,,,,,,,1.1596,,,,,,,,,,,,,,,,,,,,,,60fddb267c21d1162b2c3476,61036eba3c1a05ecd7f32626,2021-07-29_22h18.56.266,Simcolourproject_2stim_asymm_v5,2020.2.10,Win32,60,61025ae37ef11b136ea224fe,,,,,,,,,1495,56,-86,1,0,0,response3disk,,4,6,6,1,0,0,rectangle,6,6,1,0,0,6,6,1,0,0,0,33,33,153,1,,,,,,,,
,,,,,,,,,,,,,FF,,,,,,,,1.125,,,,,,,,,,,,,,,,,,,,,,60fddb267c21d1162b2c3476,61036eba3c1a05ecd7f32626,2021-07-29_22h18.56.266,Simcolourproject_2stim_asymm_v5,2020.2.10,Win32,60,61025ae37ef11b136ea224fe,,,,,,,,,2452,107,-51,1,0,0,response3disk,,5,7,0,1,0,0,rectangle,7,0,1,0,0,7,0,1,0,0,0,34,34,135,1,,,,,,,,
,,,,,,,,,,,,,FF,,,,,,,,2.562,,,,,,,,,,,,,,,,,,,,,,60fddb267c21d1162b2c3476,61036eba3c1a05ecd7f32626,2021-07-29_22h18.56.266,Simcolourproject_2stim_asymm_v5,2020.2.10,Win32,60,61025ae37ef11b136ea224fe,,,,,,,,,1664,111,-46,1,0,0,response3disk,,5,-7,0,1,0,0,rectangle,-7,0,1,0,0,-7,0,1,0,0,0,35,35,103,1,,,,,,,,
,,,,,,,,,,,,,FF,,,,,,,,1.1039,,,,,,,,,,,,,,,,,,,,,,60fddb267c21d1162b2c3476,61036eba3c1a05ecd7f32626,2021-07-29_22h18.56.266,Simcolourproject_2stim_asymm_v5,2020.2.10,Win32,60,61025ae37ef11b136ea224fe,,,,,,,,,3557,-59,-85,1,0,0,response5disk,,3,-18,5,1,0,0,rectangle,-18,5,1,0,0,-18,5,1,0,0,0,36,36,12,1,,,,,,,,
,,,,,,,,,,,,,FF,,,,,,,,1.5484,,,,,,,,,,,,,,,,,,,,,,60fddb267c21d1162b2c3476,61036eba3c1a05ecd7f32626,2021-07-29_22h18.56.266,Simcolourproject_2stim_asymm_v5,2020.2.10,Win32,60,61025ae37ef11b136ea224fe,,,,,,,,,2522,117,-54,1,0,0,response3disk,,5,11,10,1,0,0,rectangle,11,10,1,0,0,11,10,1,0,0,0,37,37,96,1,,,,,,,,
,,,,,,,,,,,,,FF,,,,,,,,1.0622,,,,,,,,,,,,,,,,,,,,,,60fddb267c21d1162b2c3476,61036eba3c1a05ecd7f32626,2021-07-29_22h18.56.266,Simcolourproject_2stim_asymm_v5,2020.2.10,Win32,60,61025ae37ef11b136ea224fe,,,,,,,,,1404,60,-89,1,0,0,response3disk,,4,3,2,1,0,0,rectangle,3,2,1,0,0,3,2,1,0,0,0,38,38,39,1,,,,,,,,
,,,,,,,,,,,,,FF,,,,,,,,1.0276,,,,,,,,,,,,,,,,,,,,,,60fddb267c21d1162b2c3476,61036eba3c1a05ecd7f32626,2021-07-29_22h18.56.266,Simcolourproject_2stim_asymm_v5,2020.2.10,Win32,60,61025ae37ef11b136ea224fe,,,,,,,,,12,72,112,1,0,0,response1disk,,7,21,-4,1,0,0,rectangle,21,-4,1,0,0,21,-4,1,0,0,0,39,39,144,1,,,,,,,,
,,,,,,,,,,,,,FF,,,,,,,,0.7986,,,,,,,,,,,,,,,,,,,,,,60fddb267c21d1162b2c3476,61036eba3c1a05ecd7f32626,2021-07-29_22h18.56.266,Simcolourproject_2stim_asymm_v5,2020.2.10,Win32,60,61025ae37ef11b136ea224fe,,,,,,,,,4116,106,-68,1,0,0,response3disk,,5,9,-9,1,0,0,rectangle,9,-9,1,0,0,9,-9,1,0,0,0,40,40,126,1,,,,,,,,
,,,,,,,,,,,,,FF,,,,,,,,0.972,,,,,,,,,,,,,,,,,,,,,,60fddb267c21d1162b2c3476,61036eba3c1a05ecd7f32626,2021-07-29_22h18.56.266,Simcolourproject_2stim_asymm_v5,2020.2.10,Win32,60,61025ae37ef11b136ea224fe,,,,,,,,,1975,107,42,1,0,0,response1disk,,6,9,-5,1,0,0,rectangle,9,-5,1,0,0,9,-5,1,0,0,0,41,41,127,1,,,,,,,,
,,,,,,,,,,,,,FF,,,,,,,,0.639,,,,,,,,,,,,,,,,,,,,,,60fddb267c21d1162b2c3476,61036eba3c1a05ecd7f32626,2021-07-29_22h18.56.266,Simcolourproject_2stim_asymm_v5,2020.2.10,Win32,60,61025ae37ef11b136ea224fe,,,,,,,,,2167,-58,106,1,0,0,response7disk,,0,-23,6,1,0,0,rectangle,-23,6,1,0,0,-23,6,1,0,0,0,42,42,32,1,,,,,,,,
,,,,,,,,,,,,,FF,,,,,,,,1.0275,,,,,,,,,,,,,,,,,,,,,,60fddb267c21d1162b2c3476,61036eba3c1a05ecd7f32626,2021-07-29_22h18.56.266,Simcolourproject_2stim_asymm_v5,2020.2.10,Win32,60,61025ae37ef11b136ea224fe,,,,,,,,,4352,-107,44,1,0,0,response7disk,,1,-41,2,1,0,0,rectangle,-41,2,1,0,0,-41,2,1,0,0,0,43,43,82,1,,,,,,,,
,,,,,,,,,,,,,FF,,,,,,,,1.472,,,,,,,,,,,,,,,,,,,,,,60fddb267c21d1162b2c3476,61036eba3c1a05ecd7f32626,2021-07-29_22h18.56.266,Simcolourproject_2stim_asymm_v5,2020.2.10,Win32,60,61025ae37ef11b136ea224fe,,,,,,,,,263,-117,-56,1,0,0,response5disk,,2,-5,4,1,0,0,rectangle,-5,4,1,0,0,-5,4,1,0,0,0,44,44,75,1,,,,,,,,
,,,,,,,,,,,,,FF,,,,,,,,0.8402,,,,,,,,,,,,,,,,,,,,,,60fddb267c21d1162b2c3476,61036eba3c1a05ecd7f32626,2021-07-29_22h18.56.266,Simcolourproject_2stim_asymm_v5,2020.2.10,Win32,60,61025ae37ef11b136ea224fe,,,,,,,,,680,82,49,1,0,0,response1disk,,6,11,2,1,0,0,rectangle,11,2,1,0,0,11,2,1,0,0,0,45,45,108,1,,,,,,,,
,,,,,,,,,,,,,FF,,,,,,,,3.1523,,,,,,,,,,,,,,,,,,,,,,60fddb267c21d1162b2c3476,61036eba3c1a05ecd7f32626,2021-07-29_22h18.56.266,Simcolourproject_2stim_asymm_v5,2020.2.10,Win32,60,61025ae37ef11b136ea224fe,,,,,,,,,1928,49,-90,1,0,0,response3disk,,4,-20,-6,1,0,0,rectangle,-20,-6,1,0,0,-20,-6,1,0,0,0,46,46,92,1,,,,,,,,
,,,,,,,,,,,,,FF,,,,,,,,0.8123,,,,,,,,,,,,,,,,,,,,,,60fddb267c21d1162b2c3476,61036eba3c1a05ecd7f32626,2021-07-29_22h18.56.266,Simcolourproject_2stim_asymm_v5,2020.2.10,Win32,60,61025ae37ef11b136ea224fe,,,,,,,,,3677,-95,-44,1,0,0,response5disk,,2,-7,-1,1,0,0,rectangle,-7,-1,1,0,0,-7,-1,1,0,0,0,47,47,30,1,,,,,,,,
,,,,,,,,,,,,,FF,,,,,,,,1.1525,,,,,,,,,,,,,,,,,,,,,,60fddb267c21d1162b2c3476,61036eba3c1a05ecd7f32626,2021-07-29_22h18.56.266,Simcolourproject_2stim_asymm_v5,2020.2.10,Win32,60,61025ae37ef11b136ea224fe,,,,,,,,,3529,-55,-108,1,0,0,response5disk,,3,-1,3,1,0,0,rectangle,-1,3,1,0,0,-1,3,1,0,0,0,48,48,63,1,,,,,,,,
,,,,,,,,,,,,,FF,,,,,,,,4.1661,,,,,,,,,,,,,,,,,,,,,,60fddb267c21d1162b2c3476,61036eba3c1a05ecd7f32626,2021-07-29_22h18.56.266,Simcolourproject_2stim_asymm_v5,2020.2.10,Win32,60,61025ae37ef11b136ea224fe,,,,,,,,,4108,58,-101,1,0,0,response3disk,,4,6,-6,1,0,0,rectangle,-119,49,1,0,0,-17,-4,1,0,0,0,49,49,56,1,,response7disk_3,TRUE,1,1,"[159,84,162,243,227,172,309,132,306,12,142,79,50,249,232,307,82,61,259,307]",1.3961,rectangle
,,,,,,,,,,,,,FF,,,,,,,,1.2984,,,,,,,,,,,,,,,,,,,,,,60fddb267c21d1162b2c3476,61036eba3c1a05ecd7f32626,2021-07-29_22h18.56.266,Simcolourproject_2stim_asymm_v5,2020.2.10,Win32,60,61025ae37ef11b136ea224fe,,,,,,,,,326,-58,-111,1,0,0,response5disk,,3,-4,15,1,0,0,rectangle,-4,15,1,0,0,-4,15,1,0,0,0,50,50,133,1,,,,,,,,
,,,,,,,,,,,,,FF,,,,,,,,1.2062,,,,,,,,,,,,,,,,,,,,,,60fddb267c21d1162b2c3476,61036eba3c1a05ecd7f32626,2021-07-29_22h18.56.266,Simcolourproject_2stim_asymm_v5,2020.2.10,Win32,60,61025ae37ef11b136ea224fe,,,,,,,,,3883,50,-81,1,0,0,response3disk,,4,8,-3,1,0,0,rectangle,8,-3,1,0,0,8,-3,1,0,0,0,51,51,110,1,,,,,,,,
,,,,,,,,,,,,,FF,,,,,,,,1.0067,,,,,,,,,,,,,,,,,,,,,,60fddb267c21d1162b2c3476,61036eba3c1a05ecd7f32626,2021-07-29_22h18.56.266,Simcolourproject_2stim_asymm_v5,2020.2.10,Win32,60,61025ae37ef11b136ea224fe,,,,,,,,,2322,41,-92,1,0,0,response3disk,,4,-6,12,1,0,0,rectangle,-6,12,1,0,0,-6,12,1,0,0,0,52,52,67,1,,,,,,,,
,,,,,,,,,,,,,FF,,,,,,,,1.2427,,,,,,,,,,,,,,,,,,,,,,60fddb267c21d1162b2c3476,61036eba3c1a05ecd7f32626,2021-07-29_22h18.56.266,Simcolourproject_2stim_asymm_v5,2020.2.10,Win32,60,61025ae37ef11b136ea224fe,,,,,,,,,2231,-68,-98,1,0,0,response5disk,,3,-5,-11,1,0,0,rectangle,-5,-11,1,0,0,-5,-11,1,0,0,0,53,53,142,1,,,,,,,,
,,,,,,,,,,,,,FF,,,,,,,,0.8401,,,,,,,,,,,,,,,,,,,,,,60fddb267c21d1162b2c3476,61036eba3c1a05ecd7f32626,2021-07-29_22h18.56.266,Simcolourproject_2stim_asymm_v5,2020.2.10,Win32,60,61025ae37ef11b136ea224fe,,,,,,,,,2822,101,-60,1,0,0,response3disk,,5,24,14,1,0,0,rectangle,24,14,1,0,0,24,14,1,0,0,0,54,54,124,1,,,,,,,,
,,,,,,,,,,,,,FF,,,,,,,,1.0555,,,,,,,,,,,,,,,,,,,,,,60fddb267c21d1162b2c3476,61036eba3c1a05ecd7f32626,2021-07-29_22h18.56.266,Simcolourproject_2stim_asymm_v5,2020.2.10,Win32,60,61025ae37ef11b136ea224fe,,,,,,,,,384,63,-99,1,0,0,response3disk,,4,19,2,1,0,0,rectangle,19,2,1,0,0,19,2,1,0,0,0,55,55,90,1,,,,,,,,
,,,,,,,,,,,,,FF,,,,,,,,0.7915,,,,,,,,,,,,,,,,,,,,,,60fddb267c21d1162b2c3476,61036eba3c1a05ecd7f32626,2021-07-29_22h18.56.266,Simcolourproject_2stim_asymm_v5,2020.2.10,Win32,60,61025ae37ef11b136ea224fe,,,,,,,,,2971,88,41,1,0,0,response1disk,,6,13,-3,1,0,0,rectangle,13,-3,1,0,0,13,-3,1,0,0,0,56,56,94,1,,,,,,,,
,,,,,,,,,,,,,FF,,,,,,,,0.611,,,,,,,,,,,,,,,,,,,,,,60fddb267c21d1162b2c3476,61036eba3c1a05ecd7f32626,2021-07-29_22h18.56.266,Simcolourproject_2stim_asymm_v5,2020.2.10,Win32,60,61025ae37ef11b136ea224fe,,,,,,,,,1131,-44,99,1,0,0,response7disk,,0,6,-9,1,0,0,rectangle,6,-9,1,0,0,6,-9,1,0,0,0,57,57,79,1,,,,,,,,
,,,,,,,,,,,,,FF,,,,,,,,1.7013,,,,,,,,,,,,,,,,,,,,,,60fddb267c21d1162b2c3476,61036eba3c1a05ecd7f32626,2021-07-29_22h18.56.266,Simcolourproject_2stim_asymm_v5,2020.2.10,Win32,60,61025ae37ef11b136ea224fe,,,,,,,,,221,-67,-109,1,0,0,response5disk,,3,-20,0,1,0,0,rectangle,-20,0,1,0,0,-20,0,1,0,0,0,58,58,47,1,,,,,,,,
,,,,,,,,,,,,,FF,,,,,,,,0.7849,,,,,,,,,,,,,,,,,,,,,,60fddb267c21d1162b2c3476,61036eba3c1a05ecd7f32626,2021-07-29_22h18.56.266,Simcolourproject_2stim_asymm_v5,2020.2.10,Win32,60,61025ae37ef11b136ea224fe,,,,,,,,,2892,-80,42,1,0,0,response7disk,,1,4,-4,1,0,0,rectangle,4,-4,1,0,0,4,-4,1,0,0,0,59,59,122,1,,,,,,,,
,,,,,,,,,,,,,FF,,,,,,,,1.5762,,,,,,,,,,,,,,,,,,,,,,60fddb267c21d1162b2c3476,61036eba3c1a05ecd7f32626,2021-07-29_22h18.56.266,Simcolourproject_2stim_asymm_v5,2020.2.10,Win32,60,61025ae37ef11b136ea224fe,,,,,,,,,1871,99,-39,1,0,0,response3disk,,5,16,-3,1,0,0,rectangle,118,60,1,0,0,-5,-7,1,0,0,0,60,60,155,1,,response1disk_3,TRUE,6,6,"[159,84,162,243,227,172,309,132,306,12,142,79,50,249,232,307,82,61,259,307]",1.3604,rectangle
,,,,,,,,,,,,,FF,,,,,,,,1.4703,,,,,,,,,,,,,,,,,,,,,,60fddb267c21d1162b2c3476,61036eba3c1a05ecd7f32626,2021-07-29_22h18.56.266,Simcolourproject_2stim_asymm_v5,2020.2.10,Win32,60,61025ae37ef11b136ea224fe,,,,,,,,,3010,-37,-89,1,0,0,response5disk,,3,7,-4,1,0,0,rectangle,7,-4,1,0,0,7,-4,1,0,0,0,61,61,16,1,,,,,,,,
,,,,,,,,,,,,,FF,,,,,,,,1.4997,,,,,,,,,,,,,,,,,,,,,,60fddb267c21d1162b2c3476,61036eba3c1a05ecd7f32626,2021-07-29_22h18.56.266,Simcolourproject_2stim_asymm_v5,2020.2.10,Win32,60,61025ae37ef11b136ea224fe,,,,,,,,,2596,111,-42,1,0,0,response3disk,,5,-3,7,1,0,0,rectangle,-3,7,1,0,0,-3,7,1,0,0,0,62,62,150,1,,,,,,,,
,,,,,,,,,,,,,FF,,,,,,,,1.1525,,,,,,,,,,,,,,,,,,,,,,60fddb267c21d1162b2c3476,61036eba3c1a05ecd7f32626,2021-07-29_22h18.56.266,Simcolourproject_2stim_asymm_v5,2020.2.10,Win32,60,61025ae37ef11b136ea224fe,,,,,,,,,196,52,-82,1,0,0,response3disk,,4,16,0,1,0,0,rectangle,16,0,1,0,0,16,0,1,0,0,0,63,63,111,1,,,,,,,,
,,,,,,,,,,,,,FF,,,,,,,,1.4858,,,,,,,,,,,,,,,,,,,,,,60fddb267c21d1162b2c3476,61036eba3c1a05ecd7f32626,2021-07-29_22h18.56.266,Simcolourproject_2stim_asymm_v5,2020.2.10,Win32,60,61025ae37ef11b136ea224fe,,,,,,,,,1877,69,97,1,0,0,response1disk,,7,22,11,1,0,0,rectangle,22,11,1,0,0,22,11,1,0,0,0,64,64,115,1,,,,,,,,
,,,,,,,,,,,,,FF,,,,,,,,0.882,,,,,,,,,,,,,,,,,,,,,,60fddb267c21d1162b2c3476,61036eba3c1a05ecd7f32626,2021-07-29_22h18.56.266,Simcolourproject_2stim_asymm_v5,2020.2.10,Win32,60,61025ae37ef11b136ea224fe,,,,,,,,,3311,91,61,1,0,0,response1disk,,6,17,5,1,0,0,rectangle,17,5,1,0,0,17,5,1,0,0,0,65,65,78,1,,,,,,,,
,,,,,,,,,,,,,FF,,,,,,,,0.8608,,,,,,,,,,,,,,,,,,,,,,60fddb267c21d1162b2c3476,61036eba3c1a05ecd7f32626,2021-07-29_22h18.56.266,Simcolourproject_2stim_asymm_v5,2020.2.10,Win32,60,61025ae37ef11b136ea224fe,,,,,,,,,1569,95,-45,1,0,0,response3disk,,5,5,-14,1,0,0,rectangle,5,-14,1,0,0,5,-14,1,0,0,0,66,66,148,1,,,,,,,,
,,,,,,,,,,,,,FF,,,,,,,,1.8127,,,,,,,,,,,,,,,,,,,,,,60fddb267c21d1162b2c3476,61036eba3c1a05ecd7f32626,2021-07-29_22h18.56.266,Simcolourproject_2stim_asymm_v5,2020.2.10,Win32,60,61025ae37ef11b136ea224fe,,,,,,,,,1916,-54,-114,1,0,0,response5disk,,3,0,15,1,0,0,rectangle,0,15,1,0,0,0,15,1,0,0,0,67,67,50,1,,,,,,,,
,,,,,,,,,,,,,FF,,,,,,,,1.4373,,,,,,,,,,,,,,,,,,,,,,60fddb267c21d1162b2c3476,61036eba3c1a05ecd7f32626,2021-07-29_22h18.56.266,Simcolourproject_2stim_asymm_v5,2020.2.10,Win32,60,61025ae37ef11b136ea224fe,,,,,,,,,4064,65,-88,1,0,0,response3disk,,4,-4,10,1,0,0,rectangle,-4,10,1,0,0,-4,10,1,0,0,0,68,68,44,1,,,,,,,,
,,,,,,,,,,,,,FF,,,,,,,,0.9165,,,,,,,,,,,,,,,,,,,,,,60fddb267c21d1162b2c3476,61036eba3c1a05ecd7f32626,2021-07-29_22h18.56.266,Simcolourproject_2stim_asymm_v5,2020.2.10,Win32,60,61025ae37ef11b136ea224fe,,,,,,,,,2390,-53,-92,1,0,0,response5disk,,3,-17,-1,1,0,0,rectangle,-17,-1,1,0,0,-17,-1,1,0,0,0,69,69,123,1,,,,,,,,
,,,,,,,,,,,,,FF,,,,,,,,1.7427,,,,,,,,,,,,,,,,,,,,,,60fddb267c21d1162b2c3476,61036eba3c1a05ecd7f32626,2021-07-29_22h18.56.266,Simcolourproject_2stim_asymm_v5,2020.2.10,Win32,60,61025ae37ef11b136ea224fe,,,,,,,,,415,49,-99,1,0,0,response3disk,,4,-1,1,1,0,0,rectangle,-1,1,1,0,0,-1,1,1,0,0,0,70,70,132,1,,,,,,,,
,,,,,,,,,,,,,FF,,,,,,,,1.6108,,,,,,,,,,,,,,,,,,,,,,60fddb267c21d1162b2c3476,61036eba3c1a05ecd7f32626,2021-07-29_22h18.56.266,Simcolourproject_2stim_asymm_v5,2020.2.10,Win32,60,61025ae37ef11b136ea224fe,,,,,,,,,3714,-109,-46,1,0,0,response5disk,,2,4,7,1,0,0,rectangle,4,7,1,0,0,4,7,1,0,0,0,71,71,156,1,,,,,,,,
,,,,,,,,,,,,,FF,,,,,,,,1.3331,,,,,,,,,,,,,,,,,,,,,,60fddb267c21d1162b2c3476,61036eba3c1a05ecd7f32626,2021-07-29_22h18.56.266,Simcolourproject_2stim_asymm_v5,2020.2.10,Win32,60,61025ae37ef11b136ea224fe,,,,,,,,,1952,-83,-47,1,0,0,response5disk,,2,-7,3,1,0,0,rectangle,-7,3,1,0,0,-7,3,1,0,0,0,72,72,31,1,,,,,,,,
,,,,,,,,,,,,,FF,,,,,,,,0.9441,,,,,,,,,,,,,,,,,,,,,,60fddb267c21d1162b2c3476,61036eba3c1a05ecd7f32626,2021-07-29_22h18.56.266,Simcolourproject_2stim_asymm_v5,2020.2.10,Win32,60,61025ae37ef11b136ea224fe,,,,,,,,,623,52,-91,1,0,0,response3disk,,4,13,-3,1,0,0,rectangle,13,-3,1,0,0,13,-3,1,0,0,0,73,73,120,1,,,,,,,,
,,,,,,,,,,,,,FF,,,,,,,,0.8611,,,,,,,,,,,,,,,,,,,,,,60fddb267c21d1162b2c3476,61036eba3c1a05ecd7f32626,2021-07-29_22h18.56.266,Simcolourproject_2stim_asymm_v5,2020.2.10,Win32,60,61025ae37ef11b136ea224fe,,,,,,,,,834,48,-78,1,0,0,response3disk,,4,15,-7,1,0,0,rectangle,15,-7,1,0,0,15,-7,1,0,0,0,74,74,45,1,,,,,,,,
,,,,,,,,,,,,,FF,,,,,,,,0.7359,,,,,,,,,,,,,,,,,,,,,,60fddb267c21d1162b2c3476,61036eba3c1a05ecd7f32626,2021-07-29_22h18.56.266,Simcolourproject_2stim_asymm_v5,2020.2.10,Win32,60,61025ae37ef11b136ea224fe,,,,,,,,,1020,85,-43,1,0,0,response3disk,,5,-5,1,1,0,0,rectangle,-5,1,1,0,0,-5,1,1,0,0,0,75,75,5,1,,,,,,,,
,,,,,,,,,,,,,FF,,,,,,,,1.1318,,,,,,,,,,,,,,,,,,,,,,60fddb267c21d1162b2c3476,61036eba3c1a05ecd7f32626,2021-07-29_22h18.56.266,Simcolourproject_2stim_asymm_v5,2020.2.10,Win32,60,61025ae37ef11b136ea224fe,,,,,,,,,2862,74,-61,1,0,0,response3disk,,5,-1,-10,1,0,0,rectangle,-1,-10,1,0,0,-1,-10,1,0,0,0,76,76,48,1,,,,,,,,
,,,,,,,,,,,,,FF,,,,,,,,1.7498,,,,,,,,,,,,,,,,,,,,,,60fddb267c21d1162b2c3476,61036eba3c1a05ecd7f32626,2021-07-29_22h18.56.266,Simcolourproject_2stim_asymm_v5,2020.2.10,Win32,60,61025ae37ef11b136ea224fe,,,,,,,,,4287,110,48,1,0,0,response1disk,,6,13,-2,1,0,0,rectangle,13,-2,1,0,0,13,-2,1,0,0,0,77,77,85,1,,,,,,,,
,,,,,,,,,,,,,FF,,,,,,,,1.6168,,,,,,,,,,,,,,,,,,,,,,60fddb267c21d1162b2c3476,61036eba3c1a05ecd7f32626,2021-07-29_22h18.56.266,Simcolourproject_2stim_asymm_v5,2020.2.10,Win32,60,61025ae37ef11b136ea224fe,,,,,,,,,2928,51,-103,1,0,0,response3disk,,4,18,0,1,0,0,rectangle,-97,44,1,0,0,5,-12,1,0,0,0,78,78,159,1,,response7disk_3,TRUE,1,1,"[159,84,162,243,227,172,309,132,306,12,142,79,50,249,232,307,82,61,259,307]",1.2153,rectangle
,,,,,,,,,,,,,FF,,,,,,,,3.5207,,,,,,,,,,,,,,,,,,,,,,60fddb267c21d1162b2c3476,61036eba3c1a05ecd7f32626,2021-07-29_22h18.56.266,Simcolourproject_2stim_asymm_v5,2020.2.10,Win32,60,61025ae37ef11b136ea224fe,,,,,,,,,2163,53,-88,1,0,0,response3disk,,4,12,-6,1,0,0,rectangle,12,-6,1,0,0,12,-6,1,0,0,0,79,79,36,1,,,,,,,,
,,,,,,,,,,,,,FF,,,,,,,,2.0413,,,,,,,,,,,,,,,,,,,,,,60fddb267c21d1162b2c3476,61036eba3c1a05ecd7f32626,2021-07-29_22h18.56.266,Simcolourproject_2stim_asymm_v5,2020.2.10,Win32,60,61025ae37ef11b136ea224fe,,,,,,,,,1948,-57,-89,1,0,0,response5disk,,3,-17,-3,1,0,0,rectangle,-17,-3,1,0,0,-17,-3,1,0,0,0,80,80,105,1,,,,,,,,
,,,,,,,,,,,,,FF,,,,,,,,0.9024,,,,,,,,,,,,,,,,,,,,,,60fddb267c21d1162b2c3476,61036eba3c1a05ecd7f32626,2021-07-29_22h18.56.266,Simcolourproject_2stim_asymm_v5,2020.2.10,Win32,60,61025ae37ef11b136ea224fe,,,,,,,,,3629,-109,-36,1,0,0,response5disk,,2,-21,6,1,0,0,rectangle,-45,-108,1,0,0,1,-7,1,0,0,0,81,81,81,1,,response5disk_3,TRUE,3,3,"[159,84,162,243,227,172,309,132,306,12,142,79,50,249,232,307,82,61,259,307]",2.2146,rectangle
,,,,,,,,,,,,,FF,,,,,,,,4.0547,,,,,,,,,,,,,,,,,,,,,,60fddb267c21d1162b2c3476,61036eba3c1a05ecd7f32626,2021-07-29_22h18.56.266,Simcolourproject_2stim_asymm_v5,2020.2.10,Win32,60,61025ae37ef11b136ea224fe,,,,,,,,,4173,84,68,1,0,0,response1disk,,6,14,4,1,0,0,rectangle,14,4,1,0,0,14,4,1,0,0,0,82,82,74,1,,,,,,,,
,,,,,,,,,,,,,FF,,,,,,,,1.2077,,,,,,,,,,,,,,,,,,,,,,60fddb267c21d1162b2c3476,61036eba3c1a05ecd7f32626,2021-07-29_22h18.56.266,Simcolourproject_2stim_asymm_v5,2020.2.10,Win32,60,61025ae37ef11b136ea224fe,,,,,,,,,4239,-100,47,1,0,0,response7disk,,1,-9,6,1,0,0,rectangle,42,104,1,0,0,7,8,1,0,0,0,83,83,138,1,,response1disk_3,TRUE,7,7,"[159,84,162,243,227,172,309,132,306,12,142,79,50,249,232,307,82,61,259,307]",2.402,rectangle
,,,,,,,,,,,,,FF,,,,,,,,0.618,,,,,,,,,,,,,,,,,,,,,,60fddb267c21d1162b2c3476,61036eba3c1a05ecd7f32626,2021-07-29_22h18.56.266,Simcolourproject_2stim_asymm_v5,2020.2.10,Win32,60,61025ae37ef11b136ea224fe,,,,,,,,,2292,-84,134,1,0,0,response7disk,,0,-8,8,1,0,0,rectangle,-8,8,1,0,0,-8,8,1,0,0,0,84,84,54,1,,,,,,,,
,,,,,,,,,,,,,FF,,,,,,,,1.4579,,,,,,,,,,,,,,,,,,,,,,60fddb267c21d1162b2c3476,61036eba3c1a05ecd7f32626,2021-07-29_22h18.56.266,Simcolourproject_2stim_asymm_v5,2020.2.10,Win32,60,61025ae37ef11b136ea224fe,,,,,,,,,1602,-94,-39,1,0,0,response5disk,,2,0,0,1,0,0,rectangle,0,0,1,0,0,0,0,1,0,0,0,85,85,7,1,,,,,,,,
,,,,,,,,,,,,,FF,,,,,,,,1.4025,,,,,,,,,,,,,,,,,,,,,,60fddb267c21d1162b2c3476,61036eba3c1a05ecd7f32626,2021-07-29_22h18.56.266,Simcolourproject_2stim_asymm_v5,2020.2.10,Win32,60,61025ae37ef11b136ea224fe,,,,,,,,,402,-51,-101,1,0,0,response5disk,,3,-3,-20,1,0,0,rectangle,-3,-20,1,0,0,-3,-20,1,0,0,0,86,86,112,1,,,,,,,,
,,,,,,,,,,,,,FF,,,,,,,,1.0831,,,,,,,,,,,,,,,,,,,,,,60fddb267c21d1162b2c3476,61036eba3c1a05ecd7f32626,2021-07-29_22h18.56.266,Simcolourproject_2stim_asymm_v5,2020.2.10,Win32,60,61025ae37ef11b136ea224fe,,,,,,,,,3982,110,33,1,0,0,response1disk,,6,28,2,1,0,0,rectangle,28,2,1,0,0,28,2,1,0,0,0,87,87,114,1,,,,,,,,
,,,,,,,,,,,,,FF,,,,,,,,0.8541,,,,,,,,,,,,,,,,,,,,,,60fddb267c21d1162b2c3476,61036eba3c1a05ecd7f32626,2021-07-29_22h18.56.266,Simcolourproject_2stim_asymm_v5,2020.2.10,Win32,60,61025ae37ef11b136ea224fe,,,,,,,,,3884,44,100,1,0,0,response1disk,,7,8,-2,1,0,0,rectangle,8,-2,1,0,0,8,-2,1,0,0,0,88,88,113,1,,,,,,,,
,,,,,,,,,,,,,FF,,,,,,,,0.694,,,,,,,,,,,,,,,,,,,,,,60fddb267c21d1162b2c3476,61036eba3c1a05ecd7f32626,2021-07-29_22h18.56.266,Simcolourproject_2stim_asymm_v5,2020.2.10,Win32,60,61025ae37ef11b136ea224fe,,,,,,,,,595,82,-61,1,0,0,response3disk,,5,5,-1,1,0,0,rectangle,5,-1,1,0,0,5,-1,1,0,0,0,89,89,2,1,,,,,,,,
,,,,,,,,,,,,,FF,,,,,,,,1.1315,,,,,,,,,,,,,,,,,,,,,,60fddb267c21d1162b2c3476,61036eba3c1a05ecd7f32626,2021-07-29_22h18.56.266,Simcolourproject_2stim_asymm_v5,2020.2.10,Win32,60,61025ae37ef11b136ea224fe,,,,,,,,,373,-47,-80,1,0,0,response5disk,,3,-3,-7,1,0,0,rectangle,-3,-7,1,0,0,-3,-7,1,0,0,0,90,90,109,1,,,,,,,,
,,,,,,,,,,,,,FF,,,,,,,,1.1666,,,,,,,,,,,,,,,,,,,,,,60fddb267c21d1162b2c3476,61036eba3c1a05ecd7f32626,2021-07-29_22h18.56.266,Simcolourproject_2stim_asymm_v5,2020.2.10,Win32,60,61025ae37ef11b136ea224fe,,,,,,,,,2990,46,-105,1,0,0,response3disk,,4,6,-10,1,0,0,rectangle,6,-10,1,0,0,6,-10,1,0,0,0,91,91,53,1,,,,,,,,
,,,,,,,,,,,,,FF,,,,,,,,1.3749,,,,,,,,,,,,,,,,,,,,,,60fddb267c21d1162b2c3476,61036eba3c1a05ecd7f32626,2021-07-29_22h18.56.266,Simcolourproject_2stim_asymm_v5,2020.2.10,Win32,60,61025ae37ef11b136ea224fe,,,,,,,,,2088,95,-55,1,0,0,response3disk,,5,38,-3,1,0,0,rectangle,38,-3,1,0,0,38,-3,1,0,0,0,92,92,125,1,,,,,,,,
,,,,,,,,,,,,,FF,,,,,,,,1.1735,,,,,,,,,,,,,,,,,,,,,,60fddb267c21d1162b2c3476,61036eba3c1a05ecd7f32626,2021-07-29_22h18.56.266,Simcolourproject_2stim_asymm_v5,2020.2.10,Win32,60,61025ae37ef11b136ea224fe,,,,,,,,,3404,-49,-71,1,0,0,response5disk,,3,-17,-3,1,0,0,rectangle,-17,-3,1,0,0,-17,-3,1,0,0,0,93,93,4,1,,,,,,,,
,,,,,,,,,,,,,FF,,,,,,,,1.451,,,,,,,,,,,,,,,,,,,,,,60fddb267c21d1162b2c3476,61036eba3c1a05ecd7f32626,2021-07-29_22h18.56.266,Simcolourproject_2stim_asymm_v5,2020.2.10,Win32,60,61025ae37ef11b136ea224fe,,,,,,,,,174,41,-94,1,0,0,response3disk,,4,10,3,1,0,0,rectangle,10,3,1,0,0,10,3,1,0,0,0,94,94,106,1,,,,,,,,
,,,,,,,,,,,,,FF,,,,,,,,1.0277,,,,,,,,,,,,,,,,,,,,,,60fddb267c21d1162b2c3476,61036eba3c1a05ecd7f32626,2021-07-29_22h18.56.266,Simcolourproject_2stim_asymm_v5,2020.2.10,Win32,60,61025ae37ef11b136ea224fe,,,,,,,,,3494,-44,-96,1,0,0,response5disk,,3,4,2,1,0,0,rectangle,4,2,1,0,0,4,2,1,0,0,0,95,95,26,1,,,,,,,,
,,,,,,,,,,,,,FF,,,,,,,,1.9163,,,,,,,,,,,,,,,,,,,,,,60fddb267c21d1162b2c3476,61036eba3c1a05ecd7f32626,2021-07-29_22h18.56.266,Simcolourproject_2stim_asymm_v5,2020.2.10,Win32,60,61025ae37ef11b136ea224fe,,,,,,,,,376,33,-85,1,0,0,response3disk,,4,-6,4,1,0,0,rectangle,-6,4,1,0,0,-6,4,1,0,0,0,96,96,23,1,,,,,,,,
,,,,,,,,,,,,,FF,,,,,,,,2.5552,,,,,,,,,,,,,,,,,,,,,,60fddb267c21d1162b2c3476,61036eba3c1a05ecd7f32626,2021-07-29_22h18.56.266,Simcolourproject_2stim_asymm_v5,2020.2.10,Win32,60,61025ae37ef11b136ea224fe,,,,,,,,,236,40,-103,1,0,0,response3disk,,4,0,4,1,0,0,rectangle,0,4,1,0,0,0,4,1,0,0,0,97,97,97,1,,,,,,,,
,,,,,,,,,,,,,FF,,,,,,,,0.7568,,,,,,,,,,,,,,,,,,,,,,60fddb267c21d1162b2c3476,61036eba3c1a05ecd7f32626,2021-07-29_22h18.56.266,Simcolourproject_2stim_asymm_v5,2020.2.10,Win32,60,61025ae37ef11b136ea224fe,,,,,,,,,1744,-89,46,1,0,0,response7disk,,1,14,-3,1,0,0,rectangle,14,-3,1,0,0,14,-3,1,0,0,0,98,98,18,1,,,,,,,,
,,,,,,,,,,,,,FF,,,,,,,,1.7775,,,,,,,,,,,,,,,,,,,,,,60fddb267c21d1162b2c3476,61036eba3c1a05ecd7f32626,2021-07-29_22h18.56.266,Simcolourproject_2stim_asymm_v5,2020.2.10,Win32,60,61025ae37ef11b136ea224fe,,,,,,,,,1622,35,-113,1,0,0,response3disk,,4,5,-2,1,0,0,rectangle,5,-2,1,0,0,5,-2,1,0,0,0,99,99,35,1,,,,,,,,
,,,,,,,,,,,,,FF,,,,,,,,1.5762,,,,,,,,,,,,,,,,,,,,,,60fddb267c21d1162b2c3476,61036eba3c1a05ecd7f32626,2021-07-29_22h18.56.266,Simcolourproject_2stim_asymm_v5,2020.2.10,Win32,60,61025ae37ef11b136ea224fe,,,,,,,,,3332,-35,-77,1,0,0,response5disk,,3,4,7,1,0,0,rectangle,4,7,1,0,0,4,7,1,0,0,0,100,100,99,1,,,,,,,,
,,,,,,,,,,,,,FF,,,,,,,,0.7638,,,,,,,,,,,,,,,,,,,,,,60fddb267c21d1162b2c3476,61036eba3c1a05ecd7f32626,2021-07-29_22h18.56.266,Simcolourproject_2stim_asymm_v5,2020.2.10,Win32,60,61025ae37ef11b136ea224fe,,,,,,,,,1113,61,117,1,0,0,response1disk,,7,12,2,1,0,0,rectangle,12,2,1,0,0,12,2,1,0,0,0,101,101,46,1,,,,,,,,
,,,,,,,,,,,,,FF,,,,,,,,1.9164,,,,,,,,,,,,,,,,,,,,,,60fddb267c21d1162b2c3476,61036eba3c1a05ecd7f32626,2021-07-29_22h18.56.266,Simcolourproject_2stim_asymm_v5,2020.2.10,Win32,60,61025ae37ef11b136ea224fe,,,,,,,,,3296,-97,-63,1,0,0,response5disk,,2,-13,14,1,0,0,rectangle,-13,14,1,0,0,-13,14,1,0,0,0,102,102,15,1,,,,,,,,
,,,,,,,,,,,,,FF,,,,,,,,1.1597,,,,,,,,,,,,,,,,,,,,,,60fddb267c21d1162b2c3476,61036eba3c1a05ecd7f32626,2021-07-29_22h18.56.266,Simcolourproject_2stim_asymm_v5,2020.2.10,Win32,60,61025ae37ef11b136ea224fe,,,,,,,,,4241,98,-56,1,0,0,response3disk,,5,-1,-8,1,0,0,rectangle,-1,-8,1,0,0,-1,-8,1,0,0,0,103,103,68,1,,,,,,,,
,,,,,,,,,,,,,FF,,,,,,,,1.826,,,,,,,,,,,,,,,,,,,,,,60fddb267c21d1162b2c3476,61036eba3c1a05ecd7f32626,2021-07-29_22h18.56.266,Simcolourproject_2stim_asymm_v5,2020.2.10,Win32,60,61025ae37ef11b136ea224fe,,,,,,,,,1340,30,-101,1,0,0,response3disk,,4,-3,1,1,0,0,rectangle,-3,1,1,0,0,-3,1,1,0,0,0,104,104,20,1,,,,,,,,
,,,,,,,,,,,,,FF,,,,,,,,3.0484,,,,,,,,,,,,,,,,,,,,,,60fddb267c21d1162b2c3476,61036eba3c1a05ecd7f32626,2021-07-29_22h18.56.266,Simcolourproject_2stim_asymm_v5,2020.2.10,Win32,60,61025ae37ef11b136ea224fe,,,,,,,,,1483,64,-117,1,0,0,response3disk,,4,-13,20,1,0,0,rectangle,-13,20,1,0,0,-13,20,1,0,0,0,105,105,158,1,,,,,,,,
,,,,,,,,,,,,,FF,,,,,,,,3.8606,,,,,,,,,,,,,,,,,,,,,,60fddb267c21d1162b2c3476,61036eba3c1a05ecd7f32626,2021-07-29_22h18.56.266,Simcolourproject_2stim_asymm_v5,2020.2.10,Win32,60,61025ae37ef11b136ea224fe,,,,,,,,,3665,-68,-115,1,0,0,response5disk,,3,-8,-12,1,0,0,rectangle,-8,-12,1,0,0,-8,-12,1,0,0,0,106,106,8,1,,,,,,,,
,,,,,,,,,,,,,FF,,,,,,,,1.3122,,,,,,,,,,,,,,,,,,,,,,60fddb267c21d1162b2c3476,61036eba3c1a05ecd7f32626,2021-07-29_22h18.56.266,Simcolourproject_2stim_asymm_v5,2020.2.10,Win32,60,61025ae37ef11b136ea224fe,,,,,,,,,3358,120,-35,1,0,0,response3disk,,5,11,-2,1,0,0,rectangle,11,-2,1,0,0,11,-2,1,0,0,0,107,107,130,1,,,,,,,,
,,,,,,,,,,,,,FF,,,,,,,,0.6387,,,,,,,,,,,,,,,,,,,,,,60fddb267c21d1162b2c3476,61036eba3c1a05ecd7f32626,2021-07-29_22h18.56.266,Simcolourproject_2stim_asymm_v5,2020.2.10,Win32,60,61025ae37ef11b136ea224fe,,,,,,,,,2579,47,109,1,0,0,response1disk,,7,7,4,1,0,0,rectangle,7,4,1,0,0,7,4,1,0,0,0,108,108,37,1,,,,,,,,
,,,,,,,,,,,,,FF,,,,,,,,0.8679,,,,,,,,,,,,,,,,,,,,,,60fddb267c21d1162b2c3476,61036eba3c1a05ecd7f32626,2021-07-29_22h18.56.266,Simcolourproject_2stim_asymm_v5,2020.2.10,Win32,60,61025ae37ef11b136ea224fe,,,,,,,,,4101,102,34,1,0,0,response1disk,,6,-9,-9,1,0,0,rectangle,-9,-9,1,0,0,-9,-9,1,0,0,0,109,109,77,1,,,,,,,,
,,,,,,,,,,,,,FF,,,,,,,,0.7707,,,,,,,,,,,,,,,,,,,,,,60fddb267c21d1162b2c3476,61036eba3c1a05ecd7f32626,2021-07-29_22h18.56.266,Simcolourproject_2stim_asymm_v5,2020.2.10,Win32,60,61025ae37ef11b136ea224fe,,,,,,,,,514,57,95,1,0,0,response1disk,,7,9,2,1,0,0,rectangle,9,2,1,0,0,9,2,1,0,0,0,110,110,1,1,,,,,,,,
,,,,,,,,,,,,,FF,,,,,,,,0.6109,,,,,,,,,,,,,,,,,,,,,,60fddb267c21d1162b2c3476,61036eba3c1a05ecd7f32626,2021-07-29_22h18.56.266,Simcolourproject_2stim_asymm_v5,2020.2.10,Win32,60,61025ae37ef11b136ea224fe,,,,,,,,,2117,43,93,1,0,0,response1disk,,7,12,6,1,0,0,rectangle,12,6,1,0,0,12,6,1,0,0,0,111,111,28,1,,,,,,,,
,,,,,,,,,,,,,FF,,,,,,,,4.2495,,,,,,,,,,,,,,,,,,,,,,60fddb267c21d1162b2c3476,61036eba3c1a05ecd7f32626,2021-07-29_22h18.56.266,Simcolourproject_2stim_asymm_v5,2020.2.10,Win32,60,61025ae37ef11b136ea224fe,,,,,,,,,318,107,-40,1,0,0,response3disk,,5,31,5,1,0,0,rectangle,31,5,1,0,0,31,5,1,0,0,0,112,112,86,1,,,,,,,,
,,,,,,,,,,,,,FF,,,,,,,,1.1179,,,,,,,,,,,,,,,,,,,,,,60fddb267c21d1162b2c3476,61036eba3c1a05ecd7f32626,2021-07-29_22h18.56.266,Simcolourproject_2stim_asymm_v5,2020.2.10,Win32,60,61025ae37ef11b136ea224fe,,,,,,,,,106,42,-81,1,0,0,response3disk,,4,11,4,1,0,0,rectangle,11,4,1,0,0,11,4,1,0,0,0,113,113,42,1,,,,,,,,
,,,,,,,,,,,,,FF,,,,,,,,1.8124,,,,,,,,,,,,,,,,,,,,,,60fddb267c21d1162b2c3476,61036eba3c1a05ecd7f32626,2021-07-29_22h18.56.266,Simcolourproject_2stim_asymm_v5,2020.2.10,Win32,60,61025ae37ef11b136ea224fe,,,,,,,,,209,-31,-102,1,0,0,response5disk,,3,-7,10,1,0,0,rectangle,-7,10,1,0,0,-7,10,1,0,0,0,114,114,10,1,,,,,,,,
,,,,,,,,,,,,,FF,,,,,,,,0.9999,,,,,,,,,,,,,,,,,,,,,,60fddb267c21d1162b2c3476,61036eba3c1a05ecd7f32626,2021-07-29_22h18.56.266,Simcolourproject_2stim_asymm_v5,2020.2.10,Win32,60,61025ae37ef11b136ea224fe,,,,,,,,,2425,-95,-50,1,0,0,response5disk,,2,-25,15,1,0,0,rectangle,-25,15,1,0,0,-25,15,1,0,0,0,115,115,3,1,,,,,,,,
,,,,,,,,,,,,,FF,,,,,,,,3.6938,,,,,,,,,,,,,,,,,,,,,,60fddb267c21d1162b2c3476,61036eba3c1a05ecd7f32626,2021-07-29_22h18.56.266,Simcolourproject_2stim_asymm_v5,2020.2.10,Win32,60,61025ae37ef11b136ea224fe,,,,,,,,,1168,129,49,1,0,0,response1disk,,6,20,8,1,0,0,rectangle,20,8,1,0,0,20,8,1,0,0,0,116,116,14,1,,,,,,,,
,,,,,,,,,,,,,FF,,,,,,,,1.7427,,,,,,,,,,,,,,,,,,,,,,60fddb267c21d1162b2c3476,61036eba3c1a05ecd7f32626,2021-07-29_22h18.56.266,Simcolourproject_2stim_asymm_v5,2020.2.10,Win32,60,61025ae37ef11b136ea224fe,,,,,,,,,2922,111,45,1,0,0,response1disk,,6,14,9,1,0,0,rectangle,14,9,1,0,0,14,9,1,0,0,0,117,117,55,1,,,,,,,,
,,,,,,,,,,,,,FF,,,,,,,,1.2218,,,,,,,,,,,,,,,,,,,,,,60fddb267c21d1162b2c3476,61036eba3c1a05ecd7f32626,2021-07-29_22h18.56.266,Simcolourproject_2stim_asymm_v5,2020.2.10,Win32,60,61025ae37ef11b136ea224fe,,,,,,,,,406,-45,-116,1,0,0,response5disk,,3,2,1,1,0,0,rectangle,2,1,1,0,0,2,1,1,0,0,0,118,118,58,1,,,,,,,,
,,,,,,,,,,,,,FF,,,,,,,,1.6248,,,,,,,,,,,,,,,,,,,,,,60fddb267c21d1162b2c3476,61036eba3c1a05ecd7f32626,2021-07-29_22h18.56.266,Simcolourproject_2stim_asymm_v5,2020.2.10,Win32,60,61025ae37ef11b136ea224fe,,,,,,,,,128,-51,-110,1,0,0,response5disk,,3,1,5,1,0,0,rectangle,1,5,1,0,0,1,5,1,0,0,0,119,119,49,1,,,,,,,,
,,,,,,,,,,,,,FF,,,,,,,,1.1663,,,,,,,,,,,,,,,,,,,,,,60fddb267c21d1162b2c3476,61036eba3c1a05ecd7f32626,2021-07-29_22h18.56.266,Simcolourproject_2stim_asymm_v5,2020.2.10,Win32,60,61025ae37ef11b136ea224fe,,,,,,,,,1286,-115,-76,1,0,0,response5disk,,2,-7,10,1,0,0,rectangle,-7,10,1,0,0,-7,10,1,0,0,0,120,120,93,1,,,,,,,,
,,,,,,,,,,,,,FF,,,,,,,,1.7983,,,,,,,,,,,,,,,,,,,,,,60fddb267c21d1162b2c3476,61036eba3c1a05ecd7f32626,2021-07-29_22h18.56.266,Simcolourproject_2stim_asymm_v5,2020.2.10,Win32,60,61025ae37ef11b136ea224fe,,,,,,,,,4321,61,-98,1,0,0,response3disk,,4,0,6,1,0,0,rectangle,0,6,1,0,0,0,6,1,0,0,0,121,121,137,1,,,,,,,,
,,,,,,,,,,,,,FF,,,,,,,,1.0069,,,,,,,,,,,,,,,,,,,,,,60fddb267c21d1162b2c3476,61036eba3c1a05ecd7f32626,2021-07-29_22h18.56.266,Simcolourproject_2stim_asymm_v5,2020.2.10,Win32,60,61025ae37ef11b136ea224fe,,,,,,,,,3868,-50,-92,1,0,0,response5disk,,3,-8,-2,1,0,0,rectangle,-8,-2,1,0,0,-8,-2,1,0,0,0,122,122,65,1,,,,,,,,
,,,,,,,,,,,,,FF,,,,,,,,0.6527,,,,,,,,,,,,,,,,,,,,,,60fddb267c21d1162b2c3476,61036eba3c1a05ecd7f32626,2021-07-29_22h18.56.266,Simcolourproject_2stim_asymm_v5,2020.2.10,Win32,60,61025ae37ef11b136ea224fe,,,,,,,,,3916,78,38,1,0,0,response1disk,,6,27,11,1,0,0,rectangle,27,11,1,0,0,27,11,1,0,0,0,123,123,119,1,,,,,,,,
,,,,,,,,,,,,,FF,,,,,,,,0.7569,,,,,,,,,,,,,,,,,,,,,,60fddb267c21d1162b2c3476,61036eba3c1a05ecd7f32626,2021-07-29_22h18.56.266,Simcolourproject_2stim_asymm_v5,2020.2.10,Win32,60,61025ae37ef11b136ea224fe,,,,,,,,,55,43,100,1,0,0,response1disk,,7,31,-2,1,0,0,rectangle,31,-2,1,0,0,31,-2,1,0,0,0,124,124,71,1,,,,,,,,
,,,,,,,,,,,,,FF,,,,,,,,0.8679,,,,,,,,,,,,,,,,,,,,,,60fddb267c21d1162b2c3476,61036eba3c1a05ecd7f32626,2021-07-29_22h18.56.266,Simcolourproject_2stim_asymm_v5,2020.2.10,Win32,60,61025ae37ef11b136ea224fe,,,,,,,,,1905,-37,-89,1,0,0,response5disk,,3,8,-4,1,0,0,rectangle,8,-4,1,0,0,8,-4,1,0,0,0,125,125,136,1,,,,,,,,
,,,,,,,,,,,,,FF,,,,,,,,1.2082,,,,,,,,,,,,,,,,,,,,,,60fddb267c21d1162b2c3476,61036eba3c1a05ecd7f32626,2021-07-29_22h18.56.266,Simcolourproject_2stim_asymm_v5,2020.2.10,Win32,60,61025ae37ef11b136ea224fe,,,,,,,,,3787,38,-109,1,0,0,response3disk,,4,-6,0,1,0,0,rectangle,-6,0,1,0,0,-6,0,1,0,0,0,126,126,101,1,,,,,,,,
,,,,,,,,,,,,,FF,,,,,,,,1.3889,,,,,,,,,,,,,,,,,,,,,,60fddb267c21d1162b2c3476,61036eba3c1a05ecd7f32626,2021-07-29_22h18.56.266,Simcolourproject_2stim_asymm_v5,2020.2.10,Win32,60,61025ae37ef11b136ea224fe,,,,,,,,,1638,90,-46,1,0,0,response3disk,,5,36,-5,1,0,0,rectangle,36,-5,1,0,0,36,-5,1,0,0,0,127,127,76,1,,,,,,,,
,,,,,,,,,,,,,FF,,,,,,,,0.9302,,,,,,,,,,,,,,,,,,,,,,60fddb267c21d1162b2c3476,61036eba3c1a05ecd7f32626,2021-07-29_22h18.56.266,Simcolourproject_2stim_asymm_v5,2020.2.10,Win32,60,61025ae37ef11b136ea224fe,,,,,,,,,3304,58,-91,1,0,0,response3disk,,4,2,-1,1,0,0,rectangle,2,-1,1,0,0,2,-1,1,0,0,0,128,128,131,1,,,,,,,,
,,,,,,,,,,,,,FF,,,,,,,,1.1318,,,,,,,,,,,,,,,,,,,,,,60fddb267c21d1162b2c3476,61036eba3c1a05ecd7f32626,2021-07-29_22h18.56.266,Simcolourproject_2stim_asymm_v5,2020.2.10,Win32,60,61025ae37ef11b136ea224fe,,,,,,,,,3027,30,-104,1,0,0,response3disk,,4,-15,2,1,0,0,rectangle,-15,2,1,0,0,-15,2,1,0,0,0,129,129,145,1,,,,,,,,
,,,,,,,,,,,,,FF,,,,,,,,1.5066,,,,,,,,,,,,,,,,,,,,,,60fddb267c21d1162b2c3476,61036eba3c1a05ecd7f32626,2021-07-29_22h18.56.266,Simcolourproject_2stim_asymm_v5,2020.2.10,Win32,60,61025ae37ef11b136ea224fe,,,,,,,,,1236,-54,-92,1,0,0,response5disk,,3,6,-2,1,0,0,rectangle,6,-2,1,0,0,6,-2,1,0,0,0,130,130,51,1,,,,,,,,
,,,,,,,,,,,,,FF,,,,,,,,1.6525,,,,,,,,,,,,,,,,,,,,,,60fddb267c21d1162b2c3476,61036eba3c1a05ecd7f32626,2021-07-29_22h18.56.266,Simcolourproject_2stim_asymm_v5,2020.2.10,Win32,60,61025ae37ef11b136ea224fe,,,,,,,,,3772,-37,-72,1,0,0,response5disk,,3,-12,2,1,0,0,rectangle,44,140,1,0,0,-4,-6,1,0,0,0,131,131,19,1,,response1disk_3,TRUE,7,7,"[159,84,162,243,227,172,309,132,306,12,142,79,50,249,232,307,82,61,259,307]",1.2365,rectangle
,,,,,,,,,,,,,FF,,,,,,,,2.1124,,,,,,,,,,,,,,,,,,,,,,60fddb267c21d1162b2c3476,61036eba3c1a05ecd7f32626,2021-07-29_22h18.56.266,Simcolourproject_2stim_asymm_v5,2020.2.10,Win32,60,61025ae37ef11b136ea224fe,,,,,,,,,4264,-45,-84,1,0,0,response5disk,,3,-7,14,1,0,0,rectangle,-7,14,1,0,0,-7,14,1,0,0,0,132,132,6,1,,,,,,,,
,,,,,,,,,,,,,FF,,,,,,,,0.9236,,,,,,,,,,,,,,,,,,,,,,60fddb267c21d1162b2c3476,61036eba3c1a05ecd7f32626,2021-07-29_22h18.56.266,Simcolourproject_2stim_asymm_v5,2020.2.10,Win32,60,61025ae37ef11b136ea224fe,,,,,,,,,316,44,-105,1,0,0,response3disk,,4,10,-3,1,0,0,rectangle,10,-3,1,0,0,10,-3,1,0,0,0,133,133,9,1,,,,,,,,
,,,,,,,,,,,,,FF,,,,,,,,3.9367,,,,,,,,,,,,,,,,,,,,,,60fddb267c21d1162b2c3476,61036eba3c1a05ecd7f32626,2021-07-29_22h18.56.266,Simcolourproject_2stim_asymm_v5,2020.2.10,Win32,60,61025ae37ef11b136ea224fe,,,,,,,,,2642,119,-39,1,0,0,response3disk,,5,25,17,1,0,0,rectangle,25,17,1,0,0,25,17,1,0,0,0,134,134,102,1,,,,,,,,
,,,,,,,,,,,,,FF,,,,,,,,2.8604,,,,,,,,,,,,,,,,,,,,,,60fddb267c21d1162b2c3476,61036eba3c1a05ecd7f32626,2021-07-29_22h18.56.266,Simcolourproject_2stim_asymm_v5,2020.2.10,Win32,60,61025ae37ef11b136ea224fe,,,,,,,,,3,-41,-93,1,0,0,response5disk,,3,2,5,1,0,0,rectangle,2,5,1,0,0,2,5,1,0,0,0,135,135,149,1,,,,,,,,
,,,,,,,,,,,,,FF,,,,,,,,1.0483,,,,,,,,,,,,,,,,,,,,,,60fddb267c21d1162b2c3476,61036eba3c1a05ecd7f32626,2021-07-29_22h18.56.266,Simcolourproject_2stim_asymm_v5,2020.2.10,Win32,60,61025ae37ef11b136ea224fe,,,,,,,,,3733,71,111,1,0,0,response1disk,,7,17,-6,1,0,0,rectangle,17,-6,1,0,0,17,-6,1,0,0,0,136,136,70,1,,,,,,,,
,,,,,,,,,,,,,FF,,,,,,,,0.6459,,,,,,,,,,,,,,,,,,,,,,60fddb267c21d1162b2c3476,61036eba3c1a05ecd7f32626,2021-07-29_22h18.56.266,Simcolourproject_2stim_asymm_v5,2020.2.10,Win32,60,61025ae37ef11b136ea224fe,,,,,,,,,2831,-46,96,1,0,0,response7disk,,0,-17,6,1,0,0,rectangle,-17,6,1,0,0,-17,6,1,0,0,0,137,137,11,1,,,,,,,,
,,,,,,,,,,,,,FF,,,,,,,,5.6796,,,,,,,,,,,,,,,,,,,,,,60fddb267c21d1162b2c3476,61036eba3c1a05ecd7f32626,2021-07-29_22h18.56.266,Simcolourproject_2stim_asymm_v5,2020.2.10,Win32,60,61025ae37ef11b136ea224fe,,,,,,,,,3405,123,-66,1,0,0,response3disk,,5,11,-4,1,0,0,rectangle,11,-4,1,0,0,11,-4,1,0,0,0,138,138,140,1,,,,,,,,
,,,,,,,,,,,,,FF,,,,,,,,0.8611,,,,,,,,,,,,,,,,,,,,,,60fddb267c21d1162b2c3476,61036eba3c1a05ecd7f32626,2021-07-29_22h18.56.266,Simcolourproject_2stim_asymm_v5,2020.2.10,Win32,60,61025ae37ef11b136ea224fe,,,,,,,,,2067,39,-96,1,0,0,response3disk,,4,6,-10,1,0,0,rectangle,6,-10,1,0,0,6,-10,1,0,0,0,139,139,33,1,,,,,,,,
,,,,,,,,,,,,,FF,,,,,,,,1.2289,,,,,,,,,,,,,,,,,,,,,,60fddb267c21d1162b2c3476,61036eba3c1a05ecd7f32626,2021-07-29_22h18.56.266,Simcolourproject_2stim_asymm_v5,2020.2.10,Win32,60,61025ae37ef11b136ea224fe,,,,,,,,,736,-46,-96,1,0,0,response5disk,,3,-11,1,1,0,0,rectangle,-11,1,1,0,0,-11,1,1,0,0,0,140,140,0,1,,,,,,,,
,,,,,,,,,,,,,FF,,,,,,,,0.6527,,,,,,,,,,,,,,,,,,,,,,60fddb267c21d1162b2c3476,61036eba3c1a05ecd7f32626,2021-07-29_22h18.56.266,Simcolourproject_2stim_asymm_v5,2020.2.10,Win32,60,61025ae37ef11b136ea224fe,,,,,,,,,113,-49,-85,1,0,0,response5disk,,3,6,-3,1,0,0,rectangle,-39,-105,1,0,0,9,0,1,0,0,0,141,141,118,1,,response5disk_3,TRUE,3,3,"[159,84,162,243,227,172,309,132,306,12,142,79,50,249,232,307,82,61,259,307]",1.9855,rectangle
,,,,,,,,,,,,,FF,,,,,,,,6.1936,,,,,,,,,,,,,,,,,,,,,,60fddb267c21d1162b2c3476,61036eba3c1a05ecd7f32626,2021-07-29_22h18.56.266,Simcolourproject_2stim_asymm_v5,2020.2.10,Win32,60,61025ae37ef11b136ea224fe,,,,,,,,,3648,91,47,1,0,0,response1disk,,6,29,5,1,0,0,rectangle,29,5,1,0,0,29,5,1,0,0,0,142,142,41,1,,,,,,,,
,,,,,,,,,,,,,FF,,,,,,,,1.2635,,,,,,,,,,,,,,,,,,,,,,60fddb267c21d1162b2c3476,61036eba3c1a05ecd7f32626,2021-07-29_22h18.56.266,Simcolourproject_2stim_asymm_v5,2020.2.10,Win32,60,61025ae37ef11b136ea224fe,,,,,,,,,528,-32,-97,1,0,0,response5disk,,3,16,0,1,0,0,rectangle,16,0,1,0,0,16,0,1,0,0,0,143,143,83,1,,,,,,,,
,,,,,,,,,,,,,FF,,,,,,,,1.8677,,,,,,,,,,,,,,,,,,,,,,60fddb267c21d1162b2c3476,61036eba3c1a05ecd7f32626,2021-07-29_22h18.56.266,Simcolourproject_2stim_asymm_v5,2020.2.10,Win32,60,61025ae37ef11b136ea224fe,,,,,,,,,588,98,-59,1,0,0,response3disk,,5,22,-9,1,0,0,rectangle,22,-9,1,0,0,22,-9,1,0,0,0,144,144,139,1,,,,,,,,
,,,,,,,,,,,,,FF,,,,,,,,1.3539,,,,,,,,,,,,,,,,,,,,,,60fddb267c21d1162b2c3476,61036eba3c1a05ecd7f32626,2021-07-29_22h18.56.266,Simcolourproject_2stim_asymm_v5,2020.2.10,Win32,60,61025ae37ef11b136ea224fe,,,,,,,,,2225,99,46,1,0,0,response1disk,,6,21,-1,1,0,0,rectangle,21,-1,1,0,0,21,-1,1,0,0,0,145,145,107,1,,,,,,,,
,,,,,,,,,,,,,FF,,,,,,,,1.2429,,,,,,,,,,,,,,,,,,,,,,60fddb267c21d1162b2c3476,61036eba3c1a05ecd7f32626,2021-07-29_22h18.56.266,Simcolourproject_2stim_asymm_v5,2020.2.10,Win32,60,61025ae37ef11b136ea224fe,,,,,,,,,4220,-91,-49,1,0,0,response5disk,,2,6,3,1,0,0,rectangle,6,3,1,0,0,6,3,1,0,0,0,146,146,22,1,,,,,,,,
,,,,,,,,,,,,,FF,,,,,,,,1.2566,,,,,,,,,,,,,,,,,,,,,,60fddb267c21d1162b2c3476,61036eba3c1a05ecd7f32626,2021-07-29_22h18.56.266,Simcolourproject_2stim_asymm_v5,2020.2.10,Win32,60,61025ae37ef11b136ea224fe,,,,,,,,,469,104,48,1,0,0,response1disk,,6,36,13,1,0,0,rectangle,36,13,1,0,0,36,13,1,0,0,0,147,147,147,1,,,,,,,,
,,,,,,,,,,,,,FF,,,,,,,,1.076,,,,,,,,,,,,,,,,,,,,,,60fddb267c21d1162b2c3476,61036eba3c1a05ecd7f32626,2021-07-29_22h18.56.266,Simcolourproject_2stim_asymm_v5,2020.2.10,Win32,60,61025ae37ef11b136ea224fe,,,,,,,,,1171,66,-39,1,0,0,response3disk,,5,14,-10,1,0,0,rectangle,14,-10,1,0,0,14,-10,1,0,0,0,148,148,64,1,,,,,,,,
,,,,,,,,,,,,,FF,,,,,,,,1.4998,,,,,,,,,,,,,,,,,,,,,,60fddb267c21d1162b2c3476,61036eba3c1a05ecd7f32626,2021-07-29_22h18.56.266,Simcolourproject_2stim_asymm_v5,2020.2.10,Win32,60,61025ae37ef11b136ea224fe,,,,,,,,,3901,-36,-67,1,0,0,response5disk,,3,15,-5,1,0,0,rectangle,15,-5,1,0,0,15,-5,1,0,0,0,149,149,25,1,,,,,,,,
,,,,,,,,,,,,,FF,,,,,,,,1.0692,,,,,,,,,,,,,,,,,,,,,,60fddb267c21d1162b2c3476,61036eba3c1a05ecd7f32626,2021-07-29_22h18.56.266,Simcolourproject_2stim_asymm_v5,2020.2.10,Win32,60,61025ae37ef11b136ea224fe,,,,,,,,,1177,44,99,1,0,0,response1disk,,7,-8,-1,1,0,0,rectangle,-8,-1,1,0,0,-8,-1,1,0,0,0,150,150,88,1,,,,,,,,
,,,,,,,,,,,,,FF,,,,,,,,1.2708,,,,,,,,,,,,,,,,,,,,,,60fddb267c21d1162b2c3476,61036eba3c1a05ecd7f32626,2021-07-29_22h18.56.266,Simcolourproject_2stim_asymm_v5,2020.2.10,Win32,60,61025ae37ef11b136ea224fe,,,,,,,,,897,111,42,1,0,0,response1disk,,6,28,-11,1,0,0,rectangle,28,-11,1,0,0,28,-11,1,0,0,0,151,151,89,1,,,,,,,,
,,,,,,,,,,,,,FF,,,,,,,,0.7985,,,,,,,,,,,,,,,,,,,,,,60fddb267c21d1162b2c3476,61036eba3c1a05ecd7f32626,2021-07-29_22h18.56.266,Simcolourproject_2stim_asymm_v5,2020.2.10,Win32,60,61025ae37ef11b136ea224fe,,,,,,,,,839,67,-43,1,0,0,response3disk,,5,21,0,1,0,0,rectangle,21,0,1,0,0,21,0,1,0,0,0,152,152,143,1,,,,,,,,
,,,,,,,,,,,,,FF,,,,,,,,0.8263,,,,,,,,,,,,,,,,,,,,,,60fddb267c21d1162b2c3476,61036eba3c1a05ecd7f32626,2021-07-29_22h18.56.266,Simcolourproject_2stim_asymm_v5,2020.2.10,Win32,60,61025ae37ef11b136ea224fe,,,,,,,,,962,52,-98,1,0,0,response3disk,,4,11,-13,1,0,0,rectangle,11,-13,1,0,0,11,-13,1,0,0,0,153,153,72,1,,,,,,,,
,,,,,,,,,,,,,FF,,,,,,,,1.5274,,,,,,,,,,,,,,,,,,,,,,60fddb267c21d1162b2c3476,61036eba3c1a05ecd7f32626,2021-07-29_22h18.56.266,Simcolourproject_2stim_asymm_v5,2020.2.10,Win32,60,61025ae37ef11b136ea224fe,,,,,,,,,2232,-57,-94,1,0,0,response5disk,,3,-10,-17,1,0,0,rectangle,-10,-17,1,0,0,-10,-17,1,0,0,0,154,154,91,1,,,,,,,,
,,,,,,,,,,,,,FF,,,,,,,,3.1731,,,,,,,,,,,,,,,,,,,,,,60fddb267c21d1162b2c3476,61036eba3c1a05ecd7f32626,2021-07-29_22h18.56.266,Simcolourproject_2stim_asymm_v5,2020.2.10,Win32,60,61025ae37ef11b136ea224fe,,,,,,,,,3723,90,39,1,0,0,response1disk,,6,19,-1,1,0,0,rectangle,19,-1,1,0,0,19,-1,1,0,0,0,155,155,146,1,,,,,,,,
,,,,,,,,,,,,,FF,,,,,,,,1.3121,,,,,,,,,,,,,,,,,,,,,,60fddb267c21d1162b2c3476,61036eba3c1a05ecd7f32626,2021-07-29_22h18.56.266,Simcolourproject_2stim_asymm_v5,2020.2.10,Win32,60,61025ae37ef11b136ea224fe,,,,,,,,,2743,46,-98,1,0,0,response3disk,,4,18,-7,1,0,0,rectangle,18,-7,1,0,0,18,-7,1,0,0,0,156,156,69,1,,,,,,,,
,,,,,,,,,,,,,FF,,,,,,,,4.1524,,,,,,,,,,,,,,,,,,,,,,60fddb267c21d1162b2c3476,61036eba3c1a05ecd7f32626,2021-07-29_22h18.56.266,Simcolourproject_2stim_asymm_v5,2020.2.10,Win32,60,61025ae37ef11b136ea224fe,,,,,,,,,2456,89,-41,1,0,0,response3disk,,5,35,-5,1,0,0,rectangle,35,-5,1,0,0,35,-5,1,0,0,0,157,157,104,1,,,,,,,,
,,,,,,,,,,,,,FF,,,,,,,,2.0551,,,,,,,,,,,,,,,,,,,,,,60fddb267c21d1162b2c3476,61036eba3c1a05ecd7f32626,2021-07-29_22h18.56.266,Simcolourproject_2stim_asymm_v5,2020.2.10,Win32,60,61025ae37ef11b136ea224fe,,,,,,,,,49,-91,-59,1,0,0,response5disk,,2,-14,-1,1,0,0,rectangle,-102,-44,1,0,0,-3,0,1,0,0,0,158,158,157,1,,response5disk_3,TRUE,2,2,"[159,84,162,243,227,172,309,132,306,12,142,79,50,249,232,307,82,61,259,307]",2.2985,rectangle
,,,,,,,,,,,,,FF,,,,,,,,1.472,,,,,,,,,,,,,,,,,,,,,,60fddb267c21d1162b2c3476,61036eba3c1a05ecd7f32626,2021-07-29_22h18.56.266,Simcolourproject_2stim_asymm_v5,2020.2.10,Win32,60,61025ae37ef11b136ea224fe,,,,,,,,,7,-101,34,1,0,0,response7disk,,1,-1,0,1,0,0,rectangle,-1,0,1,0,0,-1,0,1,0,0,0,159,159,60,1,,,,,,,,
,,,,,,,,,,,,,FF,,,,,,,,5.0755,,,,,,,,,,,,,,,,,,,,,,60fddb267c21d1162b2c3476,61036eba3c1a05ecd7f32626,2021-07-29_22h18.56.266,Simcolourproject_2stim_asymm_v5,2020.2.10,Win32,60,61025ae37ef11b136ea224fe,,,,,,,,,2628,56,-97,1,0,0,response3disk,,4,7,2,1,0,0,rectangle,7,2,1,0,0,7,2,1,0,0,1,0,160,91,1,,,,,,,,
,,,,,,,,,,,,,FF,,,,,,,,2.555,,,,,,,,,,,,,,,,,,,,,,60fddb267c21d1162b2c3476,61036eba3c1a05ecd7f32626,2021-07-29_22h18.56.266,Simcolourproject_2stim_asymm_v5,2020.2.10,Win32,60,61025ae37ef11b136ea224fe,,,,,,,,,3531,63,123,1,0,0,response1disk,,7,14,-3,1,0,0,rectangle,132,-62,1,0,0,5,4,1,0,0,1,1,161,12,1,,response3disk_3,TRUE,5,5,"[159,84,162,243,227,172,309,132,306,12,142,79,50,249,232,307,82,61,259,307]",2.2498,rectangle
,,,,,,,,,,,,,FF,,,,,,,,0.9237,,,,,,,,,,,,,,,,,,,,,,60fddb267c21d1162b2c3476,61036eba3c1a05ecd7f32626,2021-07-29_22h18.56.266,Simcolourproject_2stim_asymm_v5,2020.2.10,Win32,60,61025ae37ef11b136ea224fe,,,,,,,,,3097,-116,54,1,0,0,response7disk,,1,-12,1,1,0,0,rectangle,-12,1,1,0,0,-12,1,1,0,0,1,2,162,118,1,,,,,,,,
,,,,,,,,,,,,,FF,,,,,,,,1.1108,,,,,,,,,,,,,,,,,,,,,,60fddb267c21d1162b2c3476,61036eba3c1a05ecd7f32626,2021-07-29_22h18.56.266,Simcolourproject_2stim_asymm_v5,2020.2.10,Win32,60,61025ae37ef11b136ea224fe,,,,,,,,,1503,60,116,1,0,0,response1disk,,7,15,7,1,0,0,rectangle,15,7,1,0,0,15,7,1,0,0,1,3,163,156,1,,,,,,,,
,,,,,,,,,,,,,FF,,,,,,,,1.1872,,,,,,,,,,,,,,,,,,,,,,60fddb267c21d1162b2c3476,61036eba3c1a05ecd7f32626,2021-07-29_22h18.56.266,Simcolourproject_2stim_asymm_v5,2020.2.10,Win32,60,61025ae37ef11b136ea224fe,,,,,,,,,124,115,47,1,0,0,response1disk,,6,15,4,1,0,0,rectangle,15,4,1,0,0,15,4,1,0,0,1,4,164,6,1,,,,,,,,
,,,,,,,,,,,,,FF,,,,,,,,1.4512,,,,,,,,,,,,,,,,,,,,,,60fddb267c21d1162b2c3476,61036eba3c1a05ecd7f32626,2021-07-29_22h18.56.266,Simcolourproject_2stim_asymm_v5,2020.2.10,Win32,60,61025ae37ef11b136ea224fe,,,,,,,,,1216,-89,-61,1,0,0,response5disk,,2,6,-4,1,0,0,rectangle,6,-4,1,0,0,6,-4,1,0,0,1,5,165,70,1,,,,,,,,
,,,,,,,,,,,,,FF,,,,,,,,1.6317,,,,,,,,,,,,,,,,,,,,,,60fddb267c21d1162b2c3476,61036eba3c1a05ecd7f32626,2021-07-29_22h18.56.266,Simcolourproject_2stim_asymm_v5,2020.2.10,Win32,60,61025ae37ef11b136ea224fe,,,,,,,,,2599,53,-94,1,0,0,response3disk,,4,13,-4,1,0,0,rectangle,13,-4,1,0,0,13,-4,1,0,0,1,6,166,154,1,,,,,,,,
,,,,,,,,,,,,,FF,,,,,,,,2.3262,,,,,,,,,,,,,,,,,,,,,,60fddb267c21d1162b2c3476,61036eba3c1a05ecd7f32626,2021-07-29_22h18.56.266,Simcolourproject_2stim_asymm_v5,2020.2.10,Win32,60,61025ae37ef11b136ea224fe,,,,,,,,,861,-43,-104,1,0,0,response5disk,,3,11,-1,1,0,0,rectangle,11,-1,1,0,0,11,-1,1,0,0,1,7,167,155,1,,,,,,,,
,,,,,,,,,,,,,FF,,,,,,,,1.1595,,,,,,,,,,,,,,,,,,,,,,60fddb267c21d1162b2c3476,61036eba3c1a05ecd7f32626,2021-07-29_22h18.56.266,Simcolourproject_2stim_asymm_v5,2020.2.10,Win32,60,61025ae37ef11b136ea224fe,,,,,,,,,199,-103,-53,1,0,0,response5disk,,2,-23,-2,1,0,0,rectangle,-23,-2,1,0,0,-23,-2,1,0,0,1,8,168,25,1,,,,,,,,
,,,,,,,,,,,,,FF,,,,,,,,1.5415,,,,,,,,,,,,,,,,,,,,,,60fddb267c21d1162b2c3476,61036eba3c1a05ecd7f32626,2021-07-29_22h18.56.266,Simcolourproject_2stim_asymm_v5,2020.2.10,Win32,60,61025ae37ef11b136ea224fe,,,,,,,,,3978,-87,-54,1,0,0,response5disk,,2,-7,5,1,0,0,rectangle,-7,5,1,0,0,-7,5,1,0,0,1,9,169,22,1,,,,,,,,
,,,,,,,,,,,,,FF,,,,,,,,1.7289,,,,,,,,,,,,,,,,,,,,,,60fddb267c21d1162b2c3476,61036eba3c1a05ecd7f32626,2021-07-29_22h18.56.266,Simcolourproject_2stim_asymm_v5,2020.2.10,Win32,60,61025ae37ef11b136ea224fe,,,,,,,,,2848,-50,-104,1,0,0,response5disk,,3,10,8,1,0,0,rectangle,10,8,1,0,0,10,8,1,0,0,1,10,170,77,1,,,,,,,,
,,,,,,,,,,,,,FF,,,,,,,,0.7222,,,,,,,,,,,,,,,,,,,,,,60fddb267c21d1162b2c3476,61036eba3c1a05ecd7f32626,2021-07-29_22h18.56.266,Simcolourproject_2stim_asymm_v5,2020.2.10,Win32,60,61025ae37ef11b136ea224fe,,,,,,,,,185,-52,125,1,0,0,response7disk,,0,6,-2,1,0,0,rectangle,-47,116,1,0,0,0,-2,1,0,0,1,11,171,114,1,,response7disk_3,TRUE,0,0,"[159,84,162,243,227,172,309,132,306,12,142,79,50,249,232,307,82,61,259,307]",1.9647,rectangle
,,,,,,,,,,,,,FF,,,,,,,,6.7978,,,,,,,,,,,,,,,,,,,,,,60fddb267c21d1162b2c3476,61036eba3c1a05ecd7f32626,2021-07-29_22h18.56.266,Simcolourproject_2stim_asymm_v5,2020.2.10,Win32,60,61025ae37ef11b136ea224fe,,,,,,,,,50,-42,-83,1,0,0,response5disk,,3,-7,-1,1,0,0,rectangle,-7,-1,1,0,0,-7,-1,1,0,0,1,12,172,92,1,,,,,,,,
,,,,,,,,,,,,,FF,,,,,,,,0.6318,,,,,,,,,,,,,,,,,,,,,,60fddb267c21d1162b2c3476,61036eba3c1a05ecd7f32626,2021-07-29_22h18.56.266,Simcolourproject_2stim_asymm_v5,2020.2.10,Win32,60,61025ae37ef11b136ea224fe,,,,,,,,,3741,-48,98,1,0,0,response7disk,,0,-10,-2,1,0,0,rectangle,-10,-2,1,0,0,-10,-2,1,0,0,1,13,173,20,1,,,,,,,,
,,,,,,,,,,,,,FF,,,,,,,,0.8333,,,,,,,,,,,,,,,,,,,,,,60fddb267c21d1162b2c3476,61036eba3c1a05ecd7f32626,2021-07-29_22h18.56.266,Simcolourproject_2stim_asymm_v5,2020.2.10,Win32,60,61025ae37ef11b136ea224fe,,,,,,,,,81,-92,-56,1,0,0,response5disk,,2,-22,7,1,0,0,rectangle,-22,7,1,0,0,-22,7,1,0,0,1,14,174,4,1,,,,,,,,
,,,,,,,,,,,,,FF,,,,,,,,1.0692,,,,,,,,,,,,,,,,,,,,,,60fddb267c21d1162b2c3476,61036eba3c1a05ecd7f32626,2021-07-29_22h18.56.266,Simcolourproject_2stim_asymm_v5,2020.2.10,Win32,60,61025ae37ef11b136ea224fe,,,,,,,,,1962,-43,-106,1,0,0,response5disk,,3,16,1,1,0,0,rectangle,16,1,1,0,0,16,1,1,0,0,1,15,175,101,1,,,,,,,,
,,,,,,,,,,,,,FF,,,,,,,,0.9372,,,,,,,,,,,,,,,,,,,,,,60fddb267c21d1162b2c3476,61036eba3c1a05ecd7f32626,2021-07-29_22h18.56.266,Simcolourproject_2stim_asymm_v5,2020.2.10,Win32,60,61025ae37ef11b136ea224fe,,,,,,,,,2571,84,54,1,0,0,response1disk,,6,2,-3,1,0,0,rectangle,2,-3,1,0,0,2,-3,1,0,0,1,16,176,150,1,,,,,,,,
,,,,,,,,,,,,,FF,,,,,,,,0.6458,,,,,,,,,,,,,,,,,,,,,,60fddb267c21d1162b2c3476,61036eba3c1a05ecd7f32626,2021-07-29_22h18.56.266,Simcolourproject_2stim_asymm_v5,2020.2.10,Win32,60,61025ae37ef11b136ea224fe,,,,,,,,,1996,41,108,1,0,0,response1disk,,7,-7,-4,1,0,0,rectangle,-7,-4,1,0,0,-7,-4,1,0,0,1,17,177,124,1,,,,,,,,
,,,,,,,,,,,,,FF,,,,,,,,1.4218,,,,,,,,,,,,,,,,,,,,,,60fddb267c21d1162b2c3476,61036eba3c1a05ecd7f32626,2021-07-29_22h18.56.266,Simcolourproject_2stim_asymm_v5,2020.2.10,Win32,60,61025ae37ef11b136ea224fe,,,,,,,,,2037,-105,-56,1,0,0,response5disk,,2,-5,-5,1,0,0,rectangle,-5,-5,1,0,0,-5,-5,1,0,0,1,18,178,39,1,,,,,,,,
,,,,,,,,,,,,,FF,,,,,,,,1.3264,,,,,,,,,,,,,,,,,,,,,,60fddb267c21d1162b2c3476,61036eba3c1a05ecd7f32626,2021-07-29_22h18.56.266,Simcolourproject_2stim_asymm_v5,2020.2.10,Win32,60,61025ae37ef11b136ea224fe,,,,,,,,,2593,54,-101,1,0,0,response3disk,,4,25,-10,1,0,0,rectangle,25,-10,1,0,0,25,-10,1,0,0,1,19,179,72,1,,,,,,,,
,,,,,,,,,,,,,FF,,,,,,,,0.9996,,,,,,,,,,,,,,,,,,,,,,60fddb267c21d1162b2c3476,61036eba3c1a05ecd7f32626,2021-07-29_22h18.56.266,Simcolourproject_2stim_asymm_v5,2020.2.10,Win32,60,61025ae37ef11b136ea224fe,,,,,,,,,2790,-33,-78,1,0,0,response5disk,,3,3,-4,1,0,0,rectangle,3,-4,1,0,0,3,-4,1,0,0,1,20,180,52,1,,,,,,,,
,,,,,,,,,,,,,FF,,,,,,,,1.8189,,,,,,,,,,,,,,,,,,,,,,60fddb267c21d1162b2c3476,61036eba3c1a05ecd7f32626,2021-07-29_22h18.56.266,Simcolourproject_2stim_asymm_v5,2020.2.10,Win32,60,61025ae37ef11b136ea224fe,,,,,,,,,3618,90,-43,1,0,0,response3disk,,5,19,10,1,0,0,rectangle,19,10,1,0,0,19,10,1,0,0,1,21,181,86,1,,,,,,,,
,,,,,,,,,,,,,FF,,,,,,,,0.8731,,,,,,,,,,,,,,,,,,,,,,60fddb267c21d1162b2c3476,61036eba3c1a05ecd7f32626,2021-07-29_22h18.56.266,Simcolourproject_2stim_asymm_v5,2020.2.10,Win32,60,61025ae37ef11b136ea224fe,,,,,,,,,2585,82,60,1,0,0,response1disk,,6,10,0,1,0,0,rectangle,10,0,1,0,0,10,0,1,0,0,1,22,182,122,1,,,,,,,,
,,,,,,,,,,,,,FF,,,,,,,,0.8954,,,,,,,,,,,,,,,,,,,,,,60fddb267c21d1162b2c3476,61036eba3c1a05ecd7f32626,2021-07-29_22h18.56.266,Simcolourproject_2stim_asymm_v5,2020.2.10,Win32,60,61025ae37ef11b136ea224fe,,,,,,,,,2823,-49,-78,1,0,0,response5disk,,3,-10,-10,1,0,0,rectangle,-10,-10,1,0,0,-10,-10,1,0,0,1,23,183,37,1,,,,,,,,
,,,,,,,,,,,,,FF,,,,,,,,0.7777,,,,,,,,,,,,,,,,,,,,,,60fddb267c21d1162b2c3476,61036eba3c1a05ecd7f32626,2021-07-29_22h18.56.266,Simcolourproject_2stim_asymm_v5,2020.2.10,Win32,60,61025ae37ef11b136ea224fe,,,,,,,,,3748,-93,49,1,0,0,response7disk,,1,-1,4,1,0,0,rectangle,-1,4,1,0,0,-1,4,1,0,0,1,24,184,151,1,,,,,,,,
,,,,,,,,,,,,,FF,,,,,,,,0.9378,,,,,,,,,,,,,,,,,,,,,,60fddb267c21d1162b2c3476,61036eba3c1a05ecd7f32626,2021-07-29_22h18.56.266,Simcolourproject_2stim_asymm_v5,2020.2.10,Win32,60,61025ae37ef11b136ea224fe,,,,,,,,,3563,-84,-52,1,0,0,response5disk,,2,-13,-2,1,0,0,rectangle,-13,-2,1,0,0,-13,-2,1,0,0,1,25,185,95,1,,,,,,,,
,,,,,,,,,,,,,FF,,,,,,,,2.187,,,,,,,,,,,,,,,,,,,,,,60fddb267c21d1162b2c3476,61036eba3c1a05ecd7f32626,2021-07-29_22h18.56.266,Simcolourproject_2stim_asymm_v5,2020.2.10,Win32,60,61025ae37ef11b136ea224fe,,,,,,,,,3220,-58,-101,1,0,0,response5disk,,3,-2,-7,1,0,0,rectangle,-2,-7,1,0,0,-2,-7,1,0,0,1,26,186,38,1,,,,,,,,
,,,,,,,,,,,,,FF,,,,,,,,1.0001,,,,,,,,,,,,,,,,,,,,,,60fddb267c21d1162b2c3476,61036eba3c1a05ecd7f32626,2021-07-29_22h18.56.266,Simcolourproject_2stim_asymm_v5,2020.2.10,Win32,60,61025ae37ef11b136ea224fe,,,,,,,,,1853,109,-54,1,0,0,response3disk,,5,31,6,1,0,0,rectangle,31,6,1,0,0,31,6,1,0,0,1,27,187,1,1,,,,,,,,
,,,,,,,,,,,,,FF,,,,,,,,0.9719,,,,,,,,,,,,,,,,,,,,,,60fddb267c21d1162b2c3476,61036eba3c1a05ecd7f32626,2021-07-29_22h18.56.266,Simcolourproject_2stim_asymm_v5,2020.2.10,Win32,60,61025ae37ef11b136ea224fe,,,,,,,,,2489,-49,-81,1,0,0,response5disk,,3,-9,-2,1,0,0,rectangle,-9,-2,1,0,0,-9,-2,1,0,0,1,28,188,149,1,,,,,,,,
,,,,,,,,,,,,,FF,,,,,,,,1.0551,,,,,,,,,,,,,,,,,,,,,,60fddb267c21d1162b2c3476,61036eba3c1a05ecd7f32626,2021-07-29_22h18.56.266,Simcolourproject_2stim_asymm_v5,2020.2.10,Win32,60,61025ae37ef11b136ea224fe,,,,,,,,,2698,48,-88,1,0,0,response3disk,,4,11,2,1,0,0,rectangle,11,2,1,0,0,11,2,1,0,0,1,29,189,60,1,,,,,,,,
,,,,,,,,,,,,,FF,,,,,,,,1.0206,,,,,,,,,,,,,,,,,,,,,,60fddb267c21d1162b2c3476,61036eba3c1a05ecd7f32626,2021-07-29_22h18.56.266,Simcolourproject_2stim_asymm_v5,2020.2.10,Win32,60,61025ae37ef11b136ea224fe,,,,,,,,,3977,-82,-46,1,0,0,response5disk,,2,-7,1,1,0,0,rectangle,-7,1,1,0,0,-7,1,1,0,0,1,30,190,144,1,,,,,,,,
,,,,,,,,,,,,,FF,,,,,,,,0.6941,,,,,,,,,,,,,,,,,,,,,,60fddb267c21d1162b2c3476,61036eba3c1a05ecd7f32626,2021-07-29_22h18.56.266,Simcolourproject_2stim_asymm_v5,2020.2.10,Win32,60,61025ae37ef11b136ea224fe,,,,,,,,,1650,77,133,1,0,0,response1disk,,7,3,0,1,0,0,rectangle,3,0,1,0,0,3,0,1,0,0,1,31,191,2,1,,,,,,,,
,,,,,,,,,,,,,FF,,,,,,,,3.6802,,,,,,,,,,,,,,,,,,,,,,60fddb267c21d1162b2c3476,61036eba3c1a05ecd7f32626,2021-07-29_22h18.56.266,Simcolourproject_2stim_asymm_v5,2020.2.10,Win32,60,61025ae37ef11b136ea224fe,,,,,,,,,1228,-84,-41,1,0,0,response5disk,,2,-24,-6,1,0,0,rectangle,-24,-6,1,0,0,-24,-6,1,0,0,1,32,192,137,1,,,,,,,,
,,,,,,,,,,,,,FF,,,,,,,,4.6868,,,,,,,,,,,,,,,,,,,,,,60fddb267c21d1162b2c3476,61036eba3c1a05ecd7f32626,2021-07-29_22h18.56.266,Simcolourproject_2stim_asymm_v5,2020.2.10,Win32,60,61025ae37ef11b136ea224fe,,,,,,,,,1495,86,-46,1,0,0,response3disk,,5,-1,-8,1,0,0,rectangle,-1,-8,1,0,0,-1,-8,1,0,0,1,33,193,89,1,,,,,,,,
,,,,,,,,,,,,,FF,,,,,,,,1.5274,,,,,,,,,,,,,,,,,,,,,,60fddb267c21d1162b2c3476,61036eba3c1a05ecd7f32626,2021-07-29_22h18.56.266,Simcolourproject_2stim_asymm_v5,2020.2.10,Win32,60,61025ae37ef11b136ea224fe,,,,,,,,,2452,113,34,1,0,0,response1disk,,6,4,-9,1,0,0,rectangle,4,-9,1,0,0,4,-9,1,0,0,1,34,194,106,1,,,,,,,,
,,,,,,,,,,,,,FF,,,,,,,,1.1175,,,,,,,,,,,,,,,,,,,,,,60fddb267c21d1162b2c3476,61036eba3c1a05ecd7f32626,2021-07-29_22h18.56.266,Simcolourproject_2stim_asymm_v5,2020.2.10,Win32,60,61025ae37ef11b136ea224fe,,,,,,,,,1664,-39,-85,1,0,0,response5disk,,3,8,-10,1,0,0,rectangle,8,-10,1,0,0,8,-10,1,0,0,1,35,195,19,1,,,,,,,,
,,,,,,,,,,,,,FF,,,,,,,,1.0552,,,,,,,,,,,,,,,,,,,,,,60fddb267c21d1162b2c3476,61036eba3c1a05ecd7f32626,2021-07-29_22h18.56.266,Simcolourproject_2stim_asymm_v5,2020.2.10,Win32,60,61025ae37ef11b136ea224fe,,,,,,,,,3557,-44,-78,1,0,0,response5disk,,3,-8,-16,1,0,0,rectangle,-8,-16,1,0,0,-8,-16,1,0,0,1,36,196,98,1,,,,,,,,
,,,,,,,,,,,,,FF,,,,,,,,1.0069,,,,,,,,,,,,,,,,,,,,,,60fddb267c21d1162b2c3476,61036eba3c1a05ecd7f32626,2021-07-29_22h18.56.266,Simcolourproject_2stim_asymm_v5,2020.2.10,Win32,60,61025ae37ef11b136ea224fe,,,,,,,,,2522,34,-84,1,0,0,response3disk,,4,6,-13,1,0,0,rectangle,6,-13,1,0,0,6,-13,1,0,0,1,37,197,130,1,,,,,,,,
,,,,,,,,,,,,,FF,,,,,,,,3.4787,,,,,,,,,,,,,,,,,,,,,,60fddb267c21d1162b2c3476,61036eba3c1a05ecd7f32626,2021-07-29_22h18.56.266,Simcolourproject_2stim_asymm_v5,2020.2.10,Win32,60,61025ae37ef11b136ea224fe,,,,,,,,,1404,49,-74,1,0,0,response3disk,,4,18,-8,1,0,0,rectangle,18,-8,1,0,0,18,-8,1,0,0,1,38,198,32,1,,,,,,,,
,,,,,,,,,,,,,FF,,,,,,,,0.951,,,,,,,,,,,,,,,,,,,,,,60fddb267c21d1162b2c3476,61036eba3c1a05ecd7f32626,2021-07-29_22h18.56.266,Simcolourproject_2stim_asymm_v5,2020.2.10,Win32,60,61025ae37ef11b136ea224fe,,,,,,,,,12,-52,-95,1,0,0,response5disk,,3,1,-10,1,0,0,rectangle,1,-10,1,0,0,1,-10,1,0,0,1,39,199,90,1,,,,,,,,
,,,,,,,,,,,,,FF,,,,,,,,1.4444,,,,,,,,,,,,,,,,,,,,,,60fddb267c21d1162b2c3476,61036eba3c1a05ecd7f32626,2021-07-29_22h18.56.266,Simcolourproject_2stim_asymm_v5,2020.2.10,Win32,60,61025ae37ef11b136ea224fe,,,,,,,,,4116,-45,-93,1,0,0,response5disk,,3,-11,7,1,0,0,rectangle,-11,7,1,0,0,-11,7,1,0,0,1,40,200,50,1,,,,,,,,
,,,,,,,,,,,,,FF,,,,,,,,1.2282,,,,,,,,,,,,,,,,,,,,,,60fddb267c21d1162b2c3476,61036eba3c1a05ecd7f32626,2021-07-29_22h18.56.266,Simcolourproject_2stim_asymm_v5,2020.2.10,Win32,60,61025ae37ef11b136ea224fe,,,,,,,,,1975,-34,-88,1,0,0,response5disk,,3,10,0,1,0,0,rectangle,10,0,1,0,0,10,0,1,0,0,1,41,201,121,1,,,,,,,,
,,,,,,,,,,,,,FF,,,,,,,,0.9724,,,,,,,,,,,,,,,,,,,,,,60fddb267c21d1162b2c3476,61036eba3c1a05ecd7f32626,2021-07-29_22h18.56.266,Simcolourproject_2stim_asymm_v5,2020.2.10,Win32,60,61025ae37ef11b136ea224fe,,,,,,,,,2167,-109,53,1,0,0,response7disk,,1,-22,1,1,0,0,rectangle,-22,1,1,0,0,-22,1,1,0,0,1,42,202,82,1,,,,,,,,
,,,,,,,,,,,,,FF,,,,,,,,0.7708,,,,,,,,,,,,,,,,,,,,,,60fddb267c21d1162b2c3476,61036eba3c1a05ecd7f32626,2021-07-29_22h18.56.266,Simcolourproject_2stim_asymm_v5,2020.2.10,Win32,60,61025ae37ef11b136ea224fe,,,,,,,,,4352,-118,51,1,0,0,response7disk,,1,3,-2,1,0,0,rectangle,3,-2,1,0,0,3,-2,1,0,0,1,43,203,16,1,,,,,,,,
,,,,,,,,,,,,,FF,,,,,,,,0.8264,,,,,,,,,,,,,,,,,,,,,,60fddb267c21d1162b2c3476,61036eba3c1a05ecd7f32626,2021-07-29_22h18.56.266,Simcolourproject_2stim_asymm_v5,2020.2.10,Win32,60,61025ae37ef11b136ea224fe,,,,,,,,,263,-90,-46,1,0,0,response5disk,,2,8,8,1,0,0,rectangle,8,8,1,0,0,8,8,1,0,0,1,44,204,139,1,,,,,,,,
,,,,,,,,,,,,,FF,,,,,,,,1.8122,,,,,,,,,,,,,,,,,,,,,,60fddb267c21d1162b2c3476,61036eba3c1a05ecd7f32626,2021-07-29_22h18.56.266,Simcolourproject_2stim_asymm_v5,2020.2.10,Win32,60,61025ae37ef11b136ea224fe,,,,,,,,,680,110,-54,1,0,0,response3disk,,5,19,-1,1,0,0,rectangle,19,-1,1,0,0,19,-1,1,0,0,1,45,205,48,1,,,,,,,,
,,,,,,,,,,,,,FF,,,,,,,,1.1805,,,,,,,,,,,,,,,,,,,,,,60fddb267c21d1162b2c3476,61036eba3c1a05ecd7f32626,2021-07-29_22h18.56.266,Simcolourproject_2stim_asymm_v5,2020.2.10,Win32,60,61025ae37ef11b136ea224fe,,,,,,,,,1928,-45,-104,1,0,0,response5disk,,3,0,15,1,0,0,rectangle,0,15,1,0,0,0,15,1,0,0,1,46,206,54,1,,,,,,,,
,,,,,,,,,,,,,FF,,,,,,,,0.9653,,,,,,,,,,,,,,,,,,,,,,60fddb267c21d1162b2c3476,61036eba3c1a05ecd7f32626,2021-07-29_22h18.56.266,Simcolourproject_2stim_asymm_v5,2020.2.10,Win32,60,61025ae37ef11b136ea224fe,,,,,,,,,3677,-89,63,1,0,0,response7disk,,1,-4,-2,1,0,0,rectangle,-4,-2,1,0,0,-4,-2,1,0,0,1,47,207,49,1,,,,,,,,
,,,,,,,,,,,,,FF,,,,,,,,0.9601,,,,,,,,,,,,,,,,,,,,,,60fddb267c21d1162b2c3476,61036eba3c1a05ecd7f32626,2021-07-29_22h18.56.266,Simcolourproject_2stim_asymm_v5,2020.2.10,Win32,60,61025ae37ef11b136ea224fe,,,,,,,,,3529,-52,-104,1,0,0,response5disk,,3,-4,-1,1,0,0,rectangle,-4,-1,1,0,0,-4,-1,1,0,0,1,48,208,47,1,,,,,,,,
,,,,,,,,,,,,,FF,,,,,,,,1.2146,,,,,,,,,,,,,,,,,,,,,,60fddb267c21d1162b2c3476,61036eba3c1a05ecd7f32626,2021-07-29_22h18.56.266,Simcolourproject_2stim_asymm_v5,2020.2.10,Win32,60,61025ae37ef11b136ea224fe,,,,,,,,,4108,-38,-106,1,0,0,response5disk,,3,-3,13,1,0,0,rectangle,-3,13,1,0,0,-3,13,1,0,0,1,49,209,136,1,,,,,,,,
,,,,,,,,,,,,,FF,,,,,,,,0.9932,,,,,,,,,,,,,,,,,,,,,,60fddb267c21d1162b2c3476,61036eba3c1a05ecd7f32626,2021-07-29_22h18.56.266,Simcolourproject_2stim_asymm_v5,2020.2.10,Win32,60,61025ae37ef11b136ea224fe,,,,,,,,,326,111,-69,1,0,0,response3disk,,5,12,-1,1,0,0,rectangle,12,-1,1,0,0,12,-1,1,0,0,1,50,210,107,1,,,,,,,,
,,,,,,,,,,,,,FF,,,,,,,,1.375,,,,,,,,,,,,,,,,,,,,,,60fddb267c21d1162b2c3476,61036eba3c1a05ecd7f32626,2021-07-29_22h18.56.266,Simcolourproject_2stim_asymm_v5,2020.2.10,Win32,60,61025ae37ef11b136ea224fe,,,,,,,,,3883,39,-103,1,0,0,response3disk,,4,6,-9,1,0,0,rectangle,6,-9,1,0,0,6,-9,1,0,0,1,51,211,129,1,,,,,,,,
,,,,,,,,,,,,,FF,,,,,,,,0.9303,,,,,,,,,,,,,,,,,,,,,,60fddb267c21d1162b2c3476,61036eba3c1a05ecd7f32626,2021-07-29_22h18.56.266,Simcolourproject_2stim_asymm_v5,2020.2.10,Win32,60,61025ae37ef11b136ea224fe,,,,,,,,,2322,96,-36,1,0,0,response3disk,,5,13,0,1,0,0,rectangle,13,0,1,0,0,13,0,1,0,0,1,52,212,104,1,,,,,,,,
,,,,,,,,,,,,,FF,,,,,,,,1.7078,,,,,,,,,,,,,,,,,,,,,,60fddb267c21d1162b2c3476,61036eba3c1a05ecd7f32626,2021-07-29_22h18.56.266,Simcolourproject_2stim_asymm_v5,2020.2.10,Win32,60,61025ae37ef11b136ea224fe,,,,,,,,,2231,-97,-49,1,0,0,response5disk,,2,-14,11,1,0,0,rectangle,-14,11,1,0,0,-14,11,1,0,0,1,53,213,11,1,,,,,,,,
,,,,,,,,,,,,,FF,,,,,,,,3.0484,,,,,,,,,,,,,,,,,,,,,,60fddb267c21d1162b2c3476,61036eba3c1a05ecd7f32626,2021-07-29_22h18.56.266,Simcolourproject_2stim_asymm_v5,2020.2.10,Win32,60,61025ae37ef11b136ea224fe,,,,,,,,,2822,101,-45,1,0,0,response3disk,,5,17,6,1,0,0,rectangle,17,6,1,0,0,17,6,1,0,0,1,54,214,74,1,,,,,,,,
,,,,,,,,,,,,,FF,,,,,,,,1.4162,,,,,,,,,,,,,,,,,,,,,,60fddb267c21d1162b2c3476,61036eba3c1a05ecd7f32626,2021-07-29_22h18.56.266,Simcolourproject_2stim_asymm_v5,2020.2.10,Win32,60,61025ae37ef11b136ea224fe,,,,,,,,,384,104,36,1,0,0,response1disk,,6,34,-2,1,0,0,rectangle,34,-2,1,0,0,34,-2,1,0,0,1,55,215,40,1,,,,,,,,
,,,,,,,,,,,,,FF,,,,,,,,0.7987,,,,,,,,,,,,,,,,,,,,,,60fddb267c21d1162b2c3476,61036eba3c1a05ecd7f32626,2021-07-29_22h18.56.266,Simcolourproject_2stim_asymm_v5,2020.2.10,Win32,60,61025ae37ef11b136ea224fe,,,,,,,,,2971,115,34,1,0,0,response1disk,,6,-4,-15,1,0,0,rectangle,-4,-15,1,0,0,-4,-15,1,0,0,1,56,216,100,1,,,,,,,,
,,,,,,,,,,,,,FF,,,,,,,,0.6314,,,,,,,,,,,,,,,,,,,,,,60fddb267c21d1162b2c3476,61036eba3c1a05ecd7f32626,2021-07-29_22h18.56.266,Simcolourproject_2stim_asymm_v5,2020.2.10,Win32,60,61025ae37ef11b136ea224fe,,,,,,,,,1131,-72,131,1,0,0,response7disk,,0,14,12,1,0,0,rectangle,14,12,1,0,0,14,12,1,0,0,1,57,217,80,1,,,,,,,,
,,,,,,,,,,,,,FF,,,,,,,,1.3593,,,,,,,,,,,,,,,,,,,,,,60fddb267c21d1162b2c3476,61036eba3c1a05ecd7f32626,2021-07-29_22h18.56.266,Simcolourproject_2stim_asymm_v5,2020.2.10,Win32,60,61025ae37ef11b136ea224fe,,,,,,,,,221,-119,-80,1,0,0,response5disk,,2,7,-10,1,0,0,rectangle,7,-10,1,0,0,7,-10,1,0,0,1,58,218,67,1,,,,,,,,
,,,,,,,,,,,,,FF,,,,,,,,0.9789,,,,,,,,,,,,,,,,,,,,,,60fddb267c21d1162b2c3476,61036eba3c1a05ecd7f32626,2021-07-29_22h18.56.266,Simcolourproject_2stim_asymm_v5,2020.2.10,Win32,60,61025ae37ef11b136ea224fe,,,,,,,,,2892,-133,60,1,0,0,response7disk,,1,-13,3,1,0,0,rectangle,-13,3,1,0,0,-13,3,1,0,0,1,59,219,88,1,,,,,,,,
,,,,,,,,,,,,,FF,,,,,,,,2.6383,,,,,,,,,,,,,,,,,,,,,,60fddb267c21d1162b2c3476,61036eba3c1a05ecd7f32626,2021-07-29_22h18.56.266,Simcolourproject_2stim_asymm_v5,2020.2.10,Win32,60,61025ae37ef11b136ea224fe,,,,,,,,,1871,-52,-113,1,0,0,response5disk,,3,-16,6,1,0,0,rectangle,-16,6,1,0,0,-16,6,1,0,0,1,60,220,111,1,,,,,,,,
,,,,,,,,,,,,,FF,,,,,,,,1.472,,,,,,,,,,,,,,,,,,,,,,60fddb267c21d1162b2c3476,61036eba3c1a05ecd7f32626,2021-07-29_22h18.56.266,Simcolourproject_2stim_asymm_v5,2020.2.10,Win32,60,61025ae37ef11b136ea224fe,,,,,,,,,3010,102,-82,1,0,0,response3disk,,5,-4,9,1,0,0,rectangle,-4,9,1,0,0,-4,9,1,0,0,1,61,221,56,1,,,,,,,,
,,,,,,,,,,,,,FF,,,,,,,,0.9722,,,,,,,,,,,,,,,,,,,,,,60fddb267c21d1162b2c3476,61036eba3c1a05ecd7f32626,2021-07-29_22h18.56.266,Simcolourproject_2stim_asymm_v5,2020.2.10,Win32,60,61025ae37ef11b136ea224fe,,,,,,,,,2596,-49,-84,1,0,0,response5disk,,3,-1,-6,1,0,0,rectangle,-1,-6,1,0,0,-1,-6,1,0,0,1,62,222,15,1,,,,,,,,
,,,,,,,,,,,,,FF,,,,,,,,1.063,,,,,,,,,,,,,,,,,,,,,,60fddb267c21d1162b2c3476,61036eba3c1a05ecd7f32626,2021-07-29_22h18.56.266,Simcolourproject_2stim_asymm_v5,2020.2.10,Win32,60,61025ae37ef11b136ea224fe,,,,,,,,,196,-56,-128,1,0,0,response5disk,,3,9,1,1,0,0,rectangle,9,1,1,0,0,9,1,1,0,0,1,63,223,135,1,,,,,,,,
,,,,,,,,,,,,,FF,,,,,,,,0.9856,,,,,,,,,,,,,,,,,,,,,,60fddb267c21d1162b2c3476,61036eba3c1a05ecd7f32626,2021-07-29_22h18.56.266,Simcolourproject_2stim_asymm_v5,2020.2.10,Win32,60,61025ae37ef11b136ea224fe,,,,,,,,,1877,78,-102,1,0,0,response3disk,,4,-19,18,1,0,0,rectangle,-19,18,1,0,0,-19,18,1,0,0,1,64,224,46,1,,,,,,,,
,,,,,,,,,,,,,FF,,,,,,,,0.7639,,,,,,,,,,,,,,,,,,,,,,60fddb267c21d1162b2c3476,61036eba3c1a05ecd7f32626,2021-07-29_22h18.56.266,Simcolourproject_2stim_asymm_v5,2020.2.10,Win32,60,61025ae37ef11b136ea224fe,,,,,,,,,3311,95,-53,1,0,0,response3disk,,5,16,-5,1,0,0,rectangle,16,-5,1,0,0,16,-5,1,0,0,1,65,225,61,1,,,,,,,,
,,,,,,,,,,,,,FF,,,,,,,,0.7844,,,,,,,,,,,,,,,,,,,,,,60fddb267c21d1162b2c3476,61036eba3c1a05ecd7f32626,2021-07-29_22h18.56.266,Simcolourproject_2stim_asymm_v5,2020.2.10,Win32,60,61025ae37ef11b136ea224fe,,,,,,,,,1569,88,-55,1,0,0,response3disk,,5,16,-18,1,0,0,rectangle,122,-61,1,0,0,-28,10,1,0,0,1,66,226,41,1,,response3disk_3,TRUE,5,5,"[159,84,162,243,227,172,309,132,306,12,142,79,50,249,232,307,82,61,259,307]",1.5207,rectangle
,,,,,,,,,,,,,FF,,,,,,,,3.4847,,,,,,,,,,,,,,,,,,,,,,60fddb267c21d1162b2c3476,61036eba3c1a05ecd7f32626,2021-07-29_22h18.56.266,Simcolourproject_2stim_asymm_v5,2020.2.10,Win32,60,61025ae37ef11b136ea224fe,,,,,,,,,1916,-55,-112,1,0,0,response5disk,,3,-4,0,1,0,0,rectangle,-4,0,1,0,0,-4,0,1,0,0,1,67,227,10,1,,,,,,,,
,,,,,,,,,,,,,FF,,,,,,,,2.9092,,,,,,,,,,,,,,,,,,,,,,60fddb267c21d1162b2c3476,61036eba3c1a05ecd7f32626,2021-07-29_22h18.56.266,Simcolourproject_2stim_asymm_v5,2020.2.10,Win32,60,61025ae37ef11b136ea224fe,,,,,,,,,4064,47,-112,1,0,0,response3disk,,4,-7,-18,1,0,0,rectangle,-7,-18,1,0,0,-7,-18,1,0,0,1,68,228,141,1,,,,,,,,
,,,,,,,,,,,,,FF,,,,,,,,1.1661,,,,,,,,,,,,,,,,,,,,,,60fddb267c21d1162b2c3476,61036eba3c1a05ecd7f32626,2021-07-29_22h18.56.266,Simcolourproject_2stim_asymm_v5,2020.2.10,Win32,60,61025ae37ef11b136ea224fe,,,,,,,,,2390,72,-57,1,0,0,response3disk,,5,-15,9,1,0,0,rectangle,-15,9,1,0,0,-15,9,1,0,0,1,69,229,26,1,,,,,,,,
,,,,,,,,,,,,,FF,,,,,,,,1.7429,,,,,,,,,,,,,,,,,,,,,,60fddb267c21d1162b2c3476,61036eba3c1a05ecd7f32626,2021-07-29_22h18.56.266,Simcolourproject_2stim_asymm_v5,2020.2.10,Win32,60,61025ae37ef11b136ea224fe,,,,,,,,,415,-39,-87,1,0,0,response5disk,,3,3,2,1,0,0,rectangle,3,2,1,0,0,3,2,1,0,0,1,70,230,152,1,,,,,,,,
,,,,,,,,,,,,,FF,,,,,,,,0.7232,,,,,,,,,,,,,,,,,,,,,,60fddb267c21d1162b2c3476,61036eba3c1a05ecd7f32626,2021-07-29_22h18.56.266,Simcolourproject_2stim_asymm_v5,2020.2.10,Win32,60,61025ae37ef11b136ea224fe,,,,,,,,,3714,-82,49,1,0,0,response7disk,,1,-2,9,1,0,0,rectangle,-49,-113,1,0,0,-4,-3,1,0,0,1,71,231,13,1,,response5disk_3,TRUE,3,3,"[159,84,162,243,227,172,309,132,306,12,142,79,50,249,232,307,82,61,259,307]",2.069,rectangle
,,,,,,,,,,,,,FF,,,,,,,,0.9584,,,,,,,,,,,,,,,,,,,,,,60fddb267c21d1162b2c3476,61036eba3c1a05ecd7f32626,2021-07-29_22h18.56.266,Simcolourproject_2stim_asymm_v5,2020.2.10,Win32,60,61025ae37ef11b136ea224fe,,,,,,,,,1952,-46,-90,1,0,0,response5disk,,3,9,-1,1,0,0,rectangle,9,-1,1,0,0,9,-1,1,0,0,1,72,232,125,1,,,,,,,,
,,,,,,,,,,,,,FF,,,,,,,,7.5965,,,,,,,,,,,,,,,,,,,,,,60fddb267c21d1162b2c3476,61036eba3c1a05ecd7f32626,2021-07-29_22h18.56.266,Simcolourproject_2stim_asymm_v5,2020.2.10,Win32,60,61025ae37ef11b136ea224fe,,,,,,,,,623,70,-83,1,0,0,response3disk,,4,1,-5,1,0,0,rectangle,1,-5,1,0,0,1,-5,1,0,0,1,73,233,140,1,,,,,,,,
,,,,,,,,,,,,,FF,,,,,,,,2.847,,,,,,,,,,,,,,,,,,,,,,60fddb267c21d1162b2c3476,61036eba3c1a05ecd7f32626,2021-07-29_22h18.56.266,Simcolourproject_2stim_asymm_v5,2020.2.10,Win32,60,61025ae37ef11b136ea224fe,,,,,,,,,834,103,-44,1,0,0,response3disk,,5,26,15,1,0,0,rectangle,26,15,1,0,0,26,15,1,0,0,1,74,234,146,1,,,,,,,,
,,,,,,,,,,,,,FF,,,,,,,,4.6799,,,,,,,,,,,,,,,,,,,,,,60fddb267c21d1162b2c3476,61036eba3c1a05ecd7f32626,2021-07-29_22h18.56.266,Simcolourproject_2stim_asymm_v5,2020.2.10,Win32,60,61025ae37ef11b136ea224fe,,,,,,,,,1020,65,-51,1,0,0,response3disk,,5,3,2,1,0,0,rectangle,3,2,1,0,0,3,2,1,0,0,1,75,235,30,1,,,,,,,,
,,,,,,,,,,,,,FF,,,,,,,,0.8398,,,,,,,,,,,,,,,,,,,,,,60fddb267c21d1162b2c3476,61036eba3c1a05ecd7f32626,2021-07-29_22h18.56.266,Simcolourproject_2stim_asymm_v5,2020.2.10,Win32,60,61025ae37ef11b136ea224fe,,,,,,,,,2862,101,-33,1,0,0,response3disk,,5,6,-6,1,0,0,rectangle,6,-6,1,0,0,6,-6,1,0,0,1,76,236,24,1,,,,,,,,
,,,,,,,,,,,,,FF,,,,,,,,1.6941,,,,,,,,,,,,,,,,,,,,,,60fddb267c21d1162b2c3476,61036eba3c1a05ecd7f32626,2021-07-29_22h18.56.266,Simcolourproject_2stim_asymm_v5,2020.2.10,Win32,60,61025ae37ef11b136ea224fe,,,,,,,,,4287,76,-103,1,0,0,response3disk,,4,35,8,1,0,0,rectangle,35,8,1,0,0,35,8,1,0,0,1,77,237,142,1,,,,,,,,
,,,,,,,,,,,,,FF,,,,,,,,0.8265,,,,,,,,,,,,,,,,,,,,,,60fddb267c21d1162b2c3476,61036eba3c1a05ecd7f32626,2021-07-29_22h18.56.266,Simcolourproject_2stim_asymm_v5,2020.2.10,Win32,60,61025ae37ef11b136ea224fe,,,,,,,,,2928,-52,-92,1,0,0,response5disk,,3,-5,0,1,0,0,rectangle,-5,0,1,0,0,-5,0,1,0,0,1,78,238,5,1,,,,,,,,
,,,,,,,,,,,,,FF,,,,,,,,1.2082,,,,,,,,,,,,,,,,,,,,,,60fddb267c21d1162b2c3476,61036eba3c1a05ecd7f32626,2021-07-29_22h18.56.266,Simcolourproject_2stim_asymm_v5,2020.2.10,Win32,60,61025ae37ef11b136ea224fe,,,,,,,,,2163,-67,-78,1,0,0,response5disk,,3,-28,5,1,0,0,rectangle,-28,5,1,0,0,-28,5,1,0,0,1,79,239,64,1,,,,,,,,
,,,,,,,,,,,,,FF,,,,,,,,3.2703,,,,,,,,,,,,,,,,,,,,,,60fddb267c21d1162b2c3476,61036eba3c1a05ecd7f32626,2021-07-29_22h18.56.266,Simcolourproject_2stim_asymm_v5,2020.2.10,Win32,60,61025ae37ef11b136ea224fe,,,,,,,,,1948,123,-53,1,0,0,response3disk,,5,7,0,1,0,0,rectangle,7,0,1,0,0,7,0,1,0,0,1,80,240,66,1,,,,,,,,
,,,,,,,,,,,,,FF,,,,,,,,1.2915,,,,,,,,,,,,,,,,,,,,,,60fddb267c21d1162b2c3476,61036eba3c1a05ecd7f32626,2021-07-29_22h18.56.266,Simcolourproject_2stim_asymm_v5,2020.2.10,Win32,60,61025ae37ef11b136ea224fe,,,,,,,,,3629,76,-49,1,0,0,response3disk,,5,13,-5,1,0,0,rectangle,13,-5,1,0,0,13,-5,1,0,0,1,81,241,138,1,,,,,,,,
,,,,,,,,,,,,,FF,,,,,,,,0.7081,,,,,,,,,,,,,,,,,,,,,,60fddb267c21d1162b2c3476,61036eba3c1a05ecd7f32626,2021-07-29_22h18.56.266,Simcolourproject_2stim_asymm_v5,2020.2.10,Win32,60,61025ae37ef11b136ea224fe,,,,,,,,,4173,94,44,1,0,0,response1disk,,6,21,-2,1,0,0,rectangle,44,-117,1,0,0,0,1,1,0,0,1,82,242,102,1,,response3disk_3,TRUE,4,4,"[159,84,162,243,227,172,309,132,306,12,142,79,50,249,232,307,82,61,259,307]",1.5486,rectangle
,,,,,,,,,,,,,FF,,,,,,,,0.9929,,,,,,,,,,,,,,,,,,,,,,60fddb267c21d1162b2c3476,61036eba3c1a05ecd7f32626,2021-07-29_22h18.56.266,Simcolourproject_2stim_asymm_v5,2020.2.10,Win32,60,61025ae37ef11b136ea224fe,,,,,,,,,4239,-95,-33,1,0,0,response5disk,,2,2,8,1,0,0,rectangle,2,8,1,0,0,2,8,1,0,0,1,83,243,33,1,,,,,,,,
,,,,,,,,,,,,,FF,,,,,,,,0.9998,,,,,,,,,,,,,,,,,,,,,,60fddb267c21d1162b2c3476,61036eba3c1a05ecd7f32626,2021-07-29_22h18.56.266,Simcolourproject_2stim_asymm_v5,2020.2.10,Win32,60,61025ae37ef11b136ea224fe,,,,,,,,,2292,-105,57,1,0,0,response7disk,,1,2,-2,1,0,0,rectangle,2,-2,1,0,0,2,-2,1,0,0,1,84,244,105,1,,,,,,,,
,,,,,,,,,,,,,FF,,,,,,,,0.731,,,,,,,,,,,,,,,,,,,,,,60fddb267c21d1162b2c3476,61036eba3c1a05ecd7f32626,2021-07-29_22h18.56.266,Simcolourproject_2stim_asymm_v5,2020.2.10,Win32,60,61025ae37ef11b136ea224fe,,,,,,,,,1602,-101,62,1,0,0,response7disk,,1,-15,-3,1,0,0,rectangle,-15,-3,1,0,0,-15,-3,1,0,0,1,85,245,42,1,,,,,,,,
,,,,,,,,,,,,,FF,,,,,,,,1.5066,,,,,,,,,,,,,,,,,,,,,,60fddb267c21d1162b2c3476,61036eba3c1a05ecd7f32626,2021-07-29_22h18.56.266,Simcolourproject_2stim_asymm_v5,2020.2.10,Win32,60,61025ae37ef11b136ea224fe,,,,,,,,,402,58,-100,1,0,0,response3disk,,4,20,-3,1,0,0,rectangle,20,-3,1,0,0,20,-3,1,0,0,1,86,246,109,1,,,,,,,,
,,,,,,,,,,,,,FF,,,,,,,,1.4928,,,,,,,,,,,,,,,,,,,,,,60fddb267c21d1162b2c3476,61036eba3c1a05ecd7f32626,2021-07-29_22h18.56.266,Simcolourproject_2stim_asymm_v5,2020.2.10,Win32,60,61025ae37ef11b136ea224fe,,,,,,,,,3982,63,-110,1,0,0,response3disk,,4,16,2,1,0,0,rectangle,16,2,1,0,0,16,2,1,0,0,1,87,247,148,1,,,,,,,,
,,,,,,,,,,,,,FF,,,,,,,,0.8537,,,,,,,,,,,,,,,,,,,,,,60fddb267c21d1162b2c3476,61036eba3c1a05ecd7f32626,2021-07-29_22h18.56.266,Simcolourproject_2stim_asymm_v5,2020.2.10,Win32,60,61025ae37ef11b136ea224fe,,,,,,,,,3884,85,-46,1,0,0,response3disk,,5,6,5,1,0,0,rectangle,136,-50,1,0,0,-10,4,1,0,0,1,88,248,31,1,,response3disk_3,TRUE,5,5,"[159,84,162,243,227,172,309,132,306,12,142,79,50,249,232,307,82,61,259,307]",1.5059,rectangle
,,,,,,,,,,,,,FF,,,,,,,,2.2567,,,,,,,,,,,,,,,,,,,,,,60fddb267c21d1162b2c3476,61036eba3c1a05ecd7f32626,2021-07-29_22h18.56.266,Simcolourproject_2stim_asymm_v5,2020.2.10,Win32,60,61025ae37ef11b136ea224fe,,,,,,,,,595,110,55,1,0,0,response1disk,,6,7,-8,1,0,0,rectangle,7,-8,1,0,0,7,-8,1,0,0,1,89,249,76,1,,,,,,,,
,,,,,,,,,,,,,FF,,,,,,,,1.125,,,,,,,,,,,,,,,,,,,,,,60fddb267c21d1162b2c3476,61036eba3c1a05ecd7f32626,2021-07-29_22h18.56.266,Simcolourproject_2stim_asymm_v5,2020.2.10,Win32,60,61025ae37ef11b136ea224fe,,,,,,,,,373,-101,-44,1,0,0,response5disk,,2,-3,-8,1,0,0,rectangle,-3,-8,1,0,0,-3,-8,1,0,0,1,90,250,108,1,,,,,,,,
,,,,,,,,,,,,,FF,,,,,,,,1.0344,,,,,,,,,,,,,,,,,,,,,,60fddb267c21d1162b2c3476,61036eba3c1a05ecd7f32626,2021-07-29_22h18.56.266,Simcolourproject_2stim_asymm_v5,2020.2.10,Win32,60,61025ae37ef11b136ea224fe,,,,,,,,,2990,-104,-40,1,0,0,response5disk,,2,6,1,1,0,0,rectangle,6,1,1,0,0,6,1,1,0,0,1,91,251,97,1,,,,,,,,
,,,,,,,,,,,,,FF,,,,,,,,1.8885,,,,,,,,,,,,,,,,,,,,,,60fddb267c21d1162b2c3476,61036eba3c1a05ecd7f32626,2021-07-29_22h18.56.266,Simcolourproject_2stim_asymm_v5,2020.2.10,Win32,60,61025ae37ef11b136ea224fe,,,,,,,,,2088,-50,-116,1,0,0,response5disk,,3,-1,0,1,0,0,rectangle,-1,0,1,0,0,-1,0,1,0,0,1,92,252,57,1,,,,,,,,
,,,,,,,,,,,,,FF,,,,,,,,0.8608,,,,,,,,,,,,,,,,,,,,,,60fddb267c21d1162b2c3476,61036eba3c1a05ecd7f32626,2021-07-29_22h18.56.266,Simcolourproject_2stim_asymm_v5,2020.2.10,Win32,60,61025ae37ef11b136ea224fe,,,,,,,,,3404,-36,-85,1,0,0,response5disk,,3,20,2,1,0,0,rectangle,20,2,1,0,0,20,2,1,0,0,1,93,253,69,1,,,,,,,,
,,,,,,,,,,,,,FF,,,,,,,,0.6246,,,,,,,,,,,,,,,,,,,,,,60fddb267c21d1162b2c3476,61036eba3c1a05ecd7f32626,2021-07-29_22h18.56.266,Simcolourproject_2stim_asymm_v5,2020.2.10,Win32,60,61025ae37ef11b136ea224fe,,,,,,,,,174,-44,-62,1,0,0,response5disk,,3,-1,9,1,0,0,rectangle,-1,9,1,0,0,-1,9,1,0,0,1,94,254,34,1,,,,,,,,
,,,,,,,,,,,,,FF,,,,,,,,1.5344,,,,,,,,,,,,,,,,,,,,,,60fddb267c21d1162b2c3476,61036eba3c1a05ecd7f32626,2021-07-29_22h18.56.266,Simcolourproject_2stim_asymm_v5,2020.2.10,Win32,60,61025ae37ef11b136ea224fe,,,,,,,,,3494,69,-104,1,0,0,response3disk,,4,20,11,1,0,0,rectangle,20,11,1,0,0,20,11,1,0,0,1,95,255,58,1,,,,,,,,
,,,,,,,,,,,,,FF,,,,,,,,3.375,,,,,,,,,,,,,,,,,,,,,,60fddb267c21d1162b2c3476,61036eba3c1a05ecd7f32626,2021-07-29_22h18.56.266,Simcolourproject_2stim_asymm_v5,2020.2.10,Win32,60,61025ae37ef11b136ea224fe,,,,,,,,,376,50,-85,1,0,0,response3disk,,4,16,-3,1,0,0,rectangle,16,-3,1,0,0,16,-3,1,0,0,1,96,256,143,1,,,,,,,,
,,,,,,,,,,,,,FF,,,,,,,,2.4788,,,,,,,,,,,,,,,,,,,,,,60fddb267c21d1162b2c3476,61036eba3c1a05ecd7f32626,2021-07-29_22h18.56.266,Simcolourproject_2stim_asymm_v5,2020.2.10,Win32,60,61025ae37ef11b136ea224fe,,,,,,,,,236,126,-66,1,0,0,response3disk,,5,16,5,1,0,0,rectangle,16,5,1,0,0,16,5,1,0,0,1,97,257,85,1,,,,,,,,
,,,,,,,,,,,,,FF,,,,,,,,0.7914,,,,,,,,,,,,,,,,,,,,,,60fddb267c21d1162b2c3476,61036eba3c1a05ecd7f32626,2021-07-29_22h18.56.266,Simcolourproject_2stim_asymm_v5,2020.2.10,Win32,60,61025ae37ef11b136ea224fe,,,,,,,,,1744,-106,46,1,0,0,response7disk,,1,-29,12,1,0,0,rectangle,-59,120,1,0,0,-7,-2,1,0,0,1,98,258,0,1,,response7disk_3,TRUE,0,0,"[159,84,162,243,227,172,309,132,306,12,142,79,50,249,232,307,82,61,259,307]",1.8664,rectangle
,,,,,,,,,,,,,FF,,,,,,,,9.2556,,,,,,,,,,,,,,,,,,,,,,60fddb267c21d1162b2c3476,61036eba3c1a05ecd7f32626,2021-07-29_22h18.56.266,Simcolourproject_2stim_asymm_v5,2020.2.10,Win32,60,61025ae37ef11b136ea224fe,,,,,,,,,1622,51,-78,1,0,0,response3disk,,4,13,8,1,0,0,rectangle,13,8,1,0,0,13,8,1,0,0,1,99,259,18,1,,,,,,,,
,,,,,,,,,,,,,FF,,,,,,,,1.6455,,,,,,,,,,,,,,,,,,,,,,60fddb267c21d1162b2c3476,61036eba3c1a05ecd7f32626,2021-07-29_22h18.56.266,Simcolourproject_2stim_asymm_v5,2020.2.10,Win32,60,61025ae37ef11b136ea224fe,,,,,,,,,3332,-49,-98,1,0,0,response5disk,,3,-3,2,1,0,0,rectangle,-3,2,1,0,0,-3,2,1,0,0,1,100,260,127,1,,,,,,,,
,,,,,,,,,,,,,FF,,,,,,,,1.368,,,,,,,,,,,,,,,,,,,,,,60fddb267c21d1162b2c3476,61036eba3c1a05ecd7f32626,2021-07-29_22h18.56.266,Simcolourproject_2stim_asymm_v5,2020.2.10,Win32,60,61025ae37ef11b136ea224fe,,,,,,,,,1113,110,63,1,0,0,response1disk,,6,43,11,1,0,0,rectangle,43,11,1,0,0,43,11,1,0,0,1,101,261,7,1,,,,,,,,
,,,,,,,,,,,,,FF,,,,,,,,1.3263,,,,,,,,,,,,,,,,,,,,,,60fddb267c21d1162b2c3476,61036eba3c1a05ecd7f32626,2021-07-29_22h18.56.266,Simcolourproject_2stim_asymm_v5,2020.2.10,Win32,60,61025ae37ef11b136ea224fe,,,,,,,,,3296,-87,60,1,0,0,response7disk,,1,-17,5,1,0,0,rectangle,-17,5,1,0,0,-17,5,1,0,0,1,102,262,78,1,,,,,,,,
,,,,,,,,,,,,,FF,,,,,,,,1.9095,,,,,,,,,,,,,,,,,,,,,,60fddb267c21d1162b2c3476,61036eba3c1a05ecd7f32626,2021-07-29_22h18.56.266,Simcolourproject_2stim_asymm_v5,2020.2.10,Win32,60,61025ae37ef11b136ea224fe,,,,,,,,,4241,-65,-116,1,0,0,response5disk,,3,-5,-8,1,0,0,rectangle,-5,-8,1,0,0,-5,-8,1,0,0,1,103,263,43,1,,,,,,,,
,,,,,,,,,,,,,FF,,,,,,,,1.4719,,,,,,,,,,,,,,,,,,,,,,60fddb267c21d1162b2c3476,61036eba3c1a05ecd7f32626,2021-07-29_22h18.56.266,Simcolourproject_2stim_asymm_v5,2020.2.10,Win32,60,61025ae37ef11b136ea224fe,,,,,,,,,1340,90,-40,1,0,0,response3disk,,5,15,4,1,0,0,rectangle,15,4,1,0,0,15,4,1,0,0,1,104,264,93,1,,,,,,,,
,,,,,,,,,,,,,FF,,,,,,,,0.8407,,,,,,,,,,,,,,,,,,,,,,60fddb267c21d1162b2c3476,61036eba3c1a05ecd7f32626,2021-07-29_22h18.56.266,Simcolourproject_2stim_asymm_v5,2020.2.10,Win32,60,61025ae37ef11b136ea224fe,,,,,,,,,1483,101,80,1,0,0,response1disk,,6,14,10,1,0,0,rectangle,14,10,1,0,0,14,10,1,0,0,1,105,265,159,1,,,,,,,,
,,,,,,,,,,,,,FF,,,,,,,,2.0967,,,,,,,,,,,,,,,,,,,,,,60fddb267c21d1162b2c3476,61036eba3c1a05ecd7f32626,2021-07-29_22h18.56.266,Simcolourproject_2stim_asymm_v5,2020.2.10,Win32,60,61025ae37ef11b136ea224fe,,,,,,,,,3665,-41,-88,1,0,0,response5disk,,3,-32,11,1,0,0,rectangle,-32,11,1,0,0,-32,11,1,0,0,1,106,266,157,1,,,,,,,,
,,,,,,,,,,,,,FF,,,,,,,,5.5339,,,,,,,,,,,,,,,,,,,,,,60fddb267c21d1162b2c3476,61036eba3c1a05ecd7f32626,2021-07-29_22h18.56.266,Simcolourproject_2stim_asymm_v5,2020.2.10,Win32,60,61025ae37ef11b136ea224fe,,,,,,,,,3358,-69,-97,1,0,0,response5disk,,3,-21,-2,1,0,0,rectangle,-21,-2,1,0,0,-21,-2,1,0,0,1,107,267,28,1,,,,,,,,
,,,,,,,,,,,,,FF,,,,,,,,1.0342,,,,,,,,,,,,,,,,,,,,,,60fddb267c21d1162b2c3476,61036eba3c1a05ecd7f32626,2021-07-29_22h18.56.266,Simcolourproject_2stim_asymm_v5,2020.2.10,Win32,60,61025ae37ef11b136ea224fe,,,,,,,,,2579,103,76,1,0,0,response1disk,,6,12,-13,1,0,0,rectangle,12,-13,1,0,0,12,-13,1,0,0,1,108,268,71,1,,,,,,,,
,,,,,,,,,,,,,FF,,,,,,,,1.7428,,,,,,,,,,,,,,,,,,,,,,60fddb267c21d1162b2c3476,61036eba3c1a05ecd7f32626,2021-07-29_22h18.56.266,Simcolourproject_2stim_asymm_v5,2020.2.10,Win32,60,61025ae37ef11b136ea224fe,,,,,,,,,4101,97,-38,1,0,0,response3disk,,5,31,2,1,0,0,rectangle,31,2,1,0,0,31,2,1,0,0,1,109,269,9,1,,,,,,,,
,,,,,,,,,,,,,FF,,,,,,,,1.368,,,,,,,,,,,,,,,,,,,,,,60fddb267c21d1162b2c3476,61036eba3c1a05ecd7f32626,2021-07-29_22h18.56.266,Simcolourproject_2stim_asymm_v5,2020.2.10,Win32,60,61025ae37ef11b136ea224fe,,,,,,,,,514,64,108,1,0,0,response1disk,,7,21,-2,1,0,0,rectangle,21,-2,1,0,0,21,-2,1,0,0,1,110,270,36,1,,,,,,,,
,,,,,,,,,,,,,FF,,,,,,,,0.8956,,,,,,,,,,,,,,,,,,,,,,60fddb267c21d1162b2c3476,61036eba3c1a05ecd7f32626,2021-07-29_22h18.56.266,Simcolourproject_2stim_asymm_v5,2020.2.10,Win32,60,61025ae37ef11b136ea224fe,,,,,,,,,2117,106,44,1,0,0,response1disk,,6,31,6,1,0,0,rectangle,31,6,1,0,0,31,6,1,0,0,1,111,271,81,1,,,,,,,,
,,,,,,,,,,,,,FF,,,,,,,,1.4099,,,,,,,,,,,,,,,,,,,,,,60fddb267c21d1162b2c3476,61036eba3c1a05ecd7f32626,2021-07-29_22h18.56.266,Simcolourproject_2stim_asymm_v5,2020.2.10,Win32,60,61025ae37ef11b136ea224fe,,,,,,,,,318,108,80,1,0,0,response1disk,,6,25,-1,1,0,0,rectangle,25,-1,1,0,0,25,-1,1,0,0,1,112,272,29,1,,,,,,,,
,,,,,,,,,,,,,FF,,,,,,,,1.7841,,,,,,,,,,,,,,,,,,,,,,60fddb267c21d1162b2c3476,61036eba3c1a05ecd7f32626,2021-07-29_22h18.56.266,Simcolourproject_2stim_asymm_v5,2020.2.10,Win32,60,61025ae37ef11b136ea224fe,,,,,,,,,106,-51,-115,1,0,0,response5disk,,3,3,-14,1,0,0,rectangle,3,-14,1,0,0,3,-14,1,0,0,1,113,273,59,1,,,,,,,,
,,,,,,,,,,,,,FF,,,,,,,,3.9021,,,,,,,,,,,,,,,,,,,,,,60fddb267c21d1162b2c3476,61036eba3c1a05ecd7f32626,2021-07-29_22h18.56.266,Simcolourproject_2stim_asymm_v5,2020.2.10,Win32,60,61025ae37ef11b136ea224fe,,,,,,,,,209,126,-62,1,0,0,response3disk,,5,14,-3,1,0,0,rectangle,14,-3,1,0,0,14,-3,1,0,0,1,114,274,134,1,,,,,,,,
,,,,,,,,,,,,,FF,,,,,,,,1.1739,,,,,,,,,,,,,,,,,,,,,,60fddb267c21d1162b2c3476,61036eba3c1a05ecd7f32626,2021-07-29_22h18.56.266,Simcolourproject_2stim_asymm_v5,2020.2.10,Win32,60,61025ae37ef11b136ea224fe,,,,,,,,,2425,-96,-50,1,0,0,response5disk,,2,-5,-3,1,0,0,rectangle,-5,-3,1,0,0,-5,-3,1,0,0,1,115,275,21,1,,,,,,,,
,,,,,,,,,,,,,FF,,,,,,,,4.2212,,,,,,,,,,,,,,,,,,,,,,60fddb267c21d1162b2c3476,61036eba3c1a05ecd7f32626,2021-07-29_22h18.56.266,Simcolourproject_2stim_asymm_v5,2020.2.10,Win32,60,61025ae37ef11b136ea224fe,,,,,,,,,1168,124,-59,1,0,0,response3disk,,5,14,-14,1,0,0,rectangle,14,-14,1,0,0,14,-14,1,0,0,1,116,276,131,1,,,,,,,,
,,,,,,,,,,,,,FF,,,,,,,,1.0968,,,,,,,,,,,,,,,,,,,,,,60fddb267c21d1162b2c3476,61036eba3c1a05ecd7f32626,2021-07-29_22h18.56.266,Simcolourproject_2stim_asymm_v5,2020.2.10,Win32,60,61025ae37ef11b136ea224fe,,,,,,,,,2922,96,53,1,0,0,response1disk,,6,17,3,1,0,0,rectangle,17,3,1,0,0,17,3,1,0,0,1,117,277,27,1,,,,,,,,
,,,,,,,,,,,,,FF,,,,,,,,1.5344,,,,,,,,,,,,,,,,,,,,,,60fddb267c21d1162b2c3476,61036eba3c1a05ecd7f32626,2021-07-29_22h18.56.266,Simcolourproject_2stim_asymm_v5,2020.2.10,Win32,60,61025ae37ef11b136ea224fe,,,,,,,,,406,-99,-54,1,0,0,response5disk,,2,-16,0,1,0,0,rectangle,-16,0,1,0,0,-16,0,1,0,0,1,118,278,75,1,,,,,,,,
,,,,,,,,,,,,,FF,,,,,,,,0.8055,,,,,,,,,,,,,,,,,,,,,,60fddb267c21d1162b2c3476,61036eba3c1a05ecd7f32626,2021-07-29_22h18.56.266,Simcolourproject_2stim_asymm_v5,2020.2.10,Win32,60,61025ae37ef11b136ea224fe,,,,,,,,,128,-75,-31,1,0,0,response5disk,,2,-5,2,1,0,0,rectangle,-5,2,1,0,0,-5,2,1,0,0,1,119,279,123,1,,,,,,,,
,,,,,,,,,,,,,FF,,,,,,,,0.8055,,,,,,,,,,,,,,,,,,,,,,60fddb267c21d1162b2c3476,61036eba3c1a05ecd7f32626,2021-07-29_22h18.56.266,Simcolourproject_2stim_asymm_v5,2020.2.10,Win32,60,61025ae37ef11b136ea224fe,,,,,,,,,1286,-67,-40,1,0,0,response5disk,,2,3,6,1,0,0,rectangle,3,6,1,0,0,3,6,1,0,0,1,120,280,17,1,,,,,,,,
,,,,,,,,,,,,,FF,,,,,,,,0.9303,,,,,,,,,,,,,,,,,,,,,,60fddb267c21d1162b2c3476,61036eba3c1a05ecd7f32626,2021-07-29_22h18.56.266,Simcolourproject_2stim_asymm_v5,2020.2.10,Win32,60,61025ae37ef11b136ea224fe,,,,,,,,,4321,-39,-73,1,0,0,response5disk,,3,33,12,1,0,0,rectangle,33,12,1,0,0,33,12,1,0,0,1,121,281,45,1,,,,,,,,
,,,,,,,,,,,,,FF,,,,,,,,1.0692,,,,,,,,,,,,,,,,,,,,,,60fddb267c21d1162b2c3476,61036eba3c1a05ecd7f32626,2021-07-29_22h18.56.266,Simcolourproject_2stim_asymm_v5,2020.2.10,Win32,60,61025ae37ef11b136ea224fe,,,,,,,,,3868,-22,-91,1,0,0,response5disk,,3,9,-12,1,0,0,rectangle,9,-12,1,0,0,9,-12,1,0,0,1,122,282,113,1,,,,,,,,
,,,,,,,,,,,,,FF,,,,,,,,2.1177,,,,,,,,,,,,,,,,,,,,,,60fddb267c21d1162b2c3476,61036eba3c1a05ecd7f32626,2021-07-29_22h18.56.266,Simcolourproject_2stim_asymm_v5,2020.2.10,Win32,60,61025ae37ef11b136ea224fe,,,,,,,,,3916,90,-61,1,0,0,response3disk,,5,36,-10,1,0,0,rectangle,36,-10,1,0,0,36,-10,1,0,0,1,123,283,115,1,,,,,,,,
,,,,,,,,,,,,,FF,,,,,,,,0.8471,,,,,,,,,,,,,,,,,,,,,,60fddb267c21d1162b2c3476,61036eba3c1a05ecd7f32626,2021-07-29_22h18.56.266,Simcolourproject_2stim_asymm_v5,2020.2.10,Win32,60,61025ae37ef11b136ea224fe,,,,,,,,,55,89,-47,1,0,0,response3disk,,5,11,5,1,0,0,rectangle,11,5,1,0,0,11,5,1,0,0,1,124,284,147,1,,,,,,,,
,,,,,,,,,,,,,FF,,,,,,,,0.9375,,,,,,,,,,,,,,,,,,,,,,60fddb267c21d1162b2c3476,61036eba3c1a05ecd7f32626,2021-07-29_22h18.56.266,Simcolourproject_2stim_asymm_v5,2020.2.10,Win32,60,61025ae37ef11b136ea224fe,,,,,,,,,1905,-39,-79,1,0,0,response5disk,,3,14,7,1,0,0,rectangle,14,7,1,0,0,14,7,1,0,0,1,125,285,132,1,,,,,,,,
,,,,,,,,,,,,,FF,,,,,,,,1.1249,,,,,,,,,,,,,,,,,,,,,,60fddb267c21d1162b2c3476,61036eba3c1a05ecd7f32626,2021-07-29_22h18.56.266,Simcolourproject_2stim_asymm_v5,2020.2.10,Win32,60,61025ae37ef11b136ea224fe,,,,,,,,,3787,58,-78,1,0,0,response3disk,,4,16,10,1,0,0,rectangle,16,10,1,0,0,16,10,1,0,0,1,126,286,63,1,,,,,,,,
,,,,,,,,,,,,,FF,,,,,,,,0.8262,,,,,,,,,,,,,,,,,,,,,,60fddb267c21d1162b2c3476,61036eba3c1a05ecd7f32626,2021-07-29_22h18.56.266,Simcolourproject_2stim_asymm_v5,2020.2.10,Win32,60,61025ae37ef11b136ea224fe,,,,,,,,,1638,102,44,1,0,0,response1disk,,6,16,-7,1,0,0,rectangle,16,-7,1,0,0,16,-7,1,0,0,1,127,287,126,1,,,,,,,,
,,,,,,,,,,,,,FF,,,,,,,,1.2775,,,,,,,,,,,,,,,,,,,,,,60fddb267c21d1162b2c3476,61036eba3c1a05ecd7f32626,2021-07-29_22h18.56.266,Simcolourproject_2stim_asymm_v5,2020.2.10,Win32,60,61025ae37ef11b136ea224fe,,,,,,,,,3304,83,47,1,0,0,response1disk,,6,15,7,1,0,0,rectangle,15,7,1,0,0,15,7,1,0,0,1,128,288,94,1,,,,,,,,
,,,,,,,,,,,,,FF,,,,,,,,0.5135,,,,,,,,,,,,,,,,,,,,,,60fddb267c21d1162b2c3476,61036eba3c1a05ecd7f32626,2021-07-29_22h18.56.266,Simcolourproject_2stim_asymm_v5,2020.2.10,Win32,60,61025ae37ef11b136ea224fe,,,,,,,,,3027,43,121,1,0,0,response1disk,,7,14,14,1,0,0,rectangle,14,14,1,0,0,14,14,1,0,0,1,129,289,23,1,,,,,,,,
,,,,,,,,,,,,,FF,,,,,,,,2.687,,,,,,,,,,,,,,,,,,,,,,60fddb267c21d1162b2c3476,61036eba3c1a05ecd7f32626,2021-07-29_22h18.56.266,Simcolourproject_2stim_asymm_v5,2020.2.10,Win32,60,61025ae37ef11b136ea224fe,,,,,,,,,1236,-67,-87,1,0,0,response5disk,,3,-17,11,1,0,0,rectangle,-17,11,1,0,0,-17,11,1,0,0,1,130,290,87,1,,,,,,,,
,,,,,,,,,,,,,FF,,,,,,,,1.7008,,,,,,,,,,,,,,,,,,,,,,60fddb267c21d1162b2c3476,61036eba3c1a05ecd7f32626,2021-07-29_22h18.56.266,Simcolourproject_2stim_asymm_v5,2020.2.10,Win32,60,61025ae37ef11b136ea224fe,,,,,,,,,3772,51,-92,1,0,0,response3disk,,4,-11,4,1,0,0,rectangle,-11,4,1,0,0,-11,4,1,0,0,1,131,291,35,1,,,,,,,,
,,,,,,,,,,,,,FF,,,,,,,,1.3193,,,,,,,,,,,,,,,,,,,,,,60fddb267c21d1162b2c3476,61036eba3c1a05ecd7f32626,2021-07-29_22h18.56.266,Simcolourproject_2stim_asymm_v5,2020.2.10,Win32,60,61025ae37ef11b136ea224fe,,,,,,,,,4264,118,51,1,0,0,response1disk,,6,9,1,1,0,0,rectangle,9,1,1,0,0,9,1,1,0,0,1,132,292,128,1,,,,,,,,
,,,,,,,,,,,,,FF,,,,,,,,1.097,,,,,,,,,,,,,,,,,,,,,,60fddb267c21d1162b2c3476,61036eba3c1a05ecd7f32626,2021-07-29_22h18.56.266,Simcolourproject_2stim_asymm_v5,2020.2.10,Win32,60,61025ae37ef11b136ea224fe,,,,,,,,,316,104,45,1,0,0,response1disk,,6,6,-3,1,0,0,rectangle,6,-3,1,0,0,6,-3,1,0,0,1,133,293,68,1,,,,,,,,
,,,,,,,,,,,,,FF,,,,,,,,1.3748,,,,,,,,,,,,,,,,,,,,,,60fddb267c21d1162b2c3476,61036eba3c1a05ecd7f32626,2021-07-29_22h18.56.266,Simcolourproject_2stim_asymm_v5,2020.2.10,Win32,60,61025ae37ef11b136ea224fe,,,,,,,,,2642,53,93,1,0,0,response1disk,,7,7,10,1,0,0,rectangle,7,10,1,0,0,7,10,1,0,0,1,134,294,14,1,,,,,,,,
,,,,,,,,,,,,,FF,,,,,,,,2.0206,,,,,,,,,,,,,,,,,,,,,,60fddb267c21d1162b2c3476,61036eba3c1a05ecd7f32626,2021-07-29_22h18.56.266,Simcolourproject_2stim_asymm_v5,2020.2.10,Win32,60,61025ae37ef11b136ea224fe,,,,,,,,,3,45,-109,1,0,0,response3disk,,4,11,-5,1,0,0,rectangle,11,-5,1,0,0,11,-5,1,0,0,1,135,295,51,1,,,,,,,,
,,,,,,,,,,,,,FF,,,,,,,,1.722,,,,,,,,,,,,,,,,,,,,,,60fddb267c21d1162b2c3476,61036eba3c1a05ecd7f32626,2021-07-29_22h18.56.266,Simcolourproject_2stim_asymm_v5,2020.2.10,Win32,60,61025ae37ef11b136ea224fe,,,,,,,,,3733,99,-57,1,0,0,response3disk,,5,19,4,1,0,0,rectangle,19,4,1,0,0,19,4,1,0,0,1,136,296,103,1,,,,,,,,
,,,,,,,,,,,,,FF,,,,,,,,0.7011,,,,,,,,,,,,,,,,,,,,,,60fddb267c21d1162b2c3476,61036eba3c1a05ecd7f32626,2021-07-29_22h18.56.266,Simcolourproject_2stim_asymm_v5,2020.2.10,Win32,60,61025ae37ef11b136ea224fe,,,,,,,,,2831,-68,111,1,0,0,response7disk,,0,-14,-10,1,0,0,rectangle,-14,-10,1,0,0,-14,-10,1,0,0,1,137,297,8,1,,,,,,,,
,,,,,,,,,,,,,FF,,,,,,,,2.9024,,,,,,,,,,,,,,,,,,,,,,60fddb267c21d1162b2c3476,61036eba3c1a05ecd7f32626,2021-07-29_22h18.56.266,Simcolourproject_2stim_asymm_v5,2020.2.10,Win32,60,61025ae37ef11b136ea224fe,,,,,,,,,3405,98,-28,1,0,0,response3disk,,5,1,14,1,0,0,rectangle,1,14,1,0,0,1,14,1,0,0,1,138,298,112,1,,,,,,,,
,,,,,,,,,,,,,FF,,,,,,,,3.7007,,,,,,,,,,,,,,,,,,,,,,60fddb267c21d1162b2c3476,61036eba3c1a05ecd7f32626,2021-07-29_22h18.56.266,Simcolourproject_2stim_asymm_v5,2020.2.10,Win32,60,61025ae37ef11b136ea224fe,,,,,,,,,2067,92,-46,1,0,0,response3disk,,5,-1,13,1,0,0,rectangle,-1,13,1,0,0,-1,13,1,0,0,1,139,299,99,1,,,,,,,,
,,,,,,,,,,,,,FF,,,,,,,,2.451,,,,,,,,,,,,,,,,,,,,,,60fddb267c21d1162b2c3476,61036eba3c1a05ecd7f32626,2021-07-29_22h18.56.266,Simcolourproject_2stim_asymm_v5,2020.2.10,Win32,60,61025ae37ef11b136ea224fe,,,,,,,,,736,-38,-92,1,0,0,response5disk,,3,-7,-14,1,0,0,rectangle,-7,-14,1,0,0,-7,-14,1,0,0,1,140,300,62,1,,,,,,,,
,,,,,,,,,,,,,FF,,,,,,,,2.0206,,,,,,,,,,,,,,,,,,,,,,60fddb267c21d1162b2c3476,61036eba3c1a05ecd7f32626,2021-07-29_22h18.56.266,Simcolourproject_2stim_asymm_v5,2020.2.10,Win32,60,61025ae37ef11b136ea224fe,,,,,,,,,113,-39,-92,1,0,0,response5disk,,3,14,-2,1,0,0,rectangle,14,-2,1,0,0,14,-2,1,0,0,1,141,301,110,1,,,,,,,,
,,,,,,,,,,,,,FF,,,,,,,,4.0411,,,,,,,,,,,,,,,,,,,,,,60fddb267c21d1162b2c3476,61036eba3c1a05ecd7f32626,2021-07-29_22h18.56.266,Simcolourproject_2stim_asymm_v5,2020.2.10,Win32,60,61025ae37ef11b136ea224fe,,,,,,,,,3648,47,-89,1,0,0,response3disk,,4,7,-2,1,0,0,rectangle,7,-2,1,0,0,7,-2,1,0,0,1,142,302,73,1,,,,,,,,
