key_resp.keys,key_resp.rt,key_resp_14.keys,key_resp_14.rt,key_resp_15.keys,key_resp_15.rt,key_resp_17.keys,key_resp_17.rt,key_resp_9.keys,key_resp_9.rt,key_resp_10.keys,key_resp_10.rt,practice_comparison,Ecc,mouse_5.x,mouse_5.y,mouse_5.leftButton,mouse_5.midButton,mouse_5.rightButton,mouse_5.clicked_name,pracsimilarity,response_time,mouse_10.x,mouse_10.y,mouse_10.leftButton,mouse_10.midButton,mouse_10.rightButton,mouse_10.clicked_name,mouse_7.x,mouse_7.y,mouse_7.leftButton,mouse_7.midButton,mouse_7.rightButton,mouse_6.x,mouse_6.y,mouse_6.leftButton,mouse_6.midButton,mouse_6.rightButton,duringprac.thisRepN,duringprac.thisTrialN,duringprac.thisN,duringprac.thisIndex,duringprac.ran,participant,session,date,expName,psychopyVersion,OS,frameRate,study_id,mouse_7.clicked_name,catchpracsimilarity,catch_response_time,catchnumberprac,catchtrialorderprac,mouse_6.clicked_name,key_resp_22.keys,key_resp_22.rt,realcomparison,mouse.x,mouse.y,mouse.leftButton,mouse.midButton,mouse.rightButton,mouse.clicked_name,Colour2,similarity,mouse_2.x,mouse_2.y,mouse_2.leftButton,mouse_2.midButton,mouse_2.rightButton,mouse_2.clicked_name,mouse_3.x,mouse_3.y,mouse_3.leftButton,mouse_3.midButton,mouse_3.rightButton,mouse_11.x,mouse_11.y,mouse_11.leftButton,mouse_11.midButton,mouse_11.rightButton,trials_2.thisRepN,trials_2.thisTrialN,trials_2.thisN,trials_2.thisIndex,trials_2.ran,Colour1,mouse_3.clicked_name,catchornah,catchsimilarity,catchnumber,catchtrialorder,catchRT,mouse_11.clicked_name
space,1.3231,space,9.8594,space,24.6831,space,11.9631,space,28.033,space,6.7948,84,PF,-84.16796875,50.625,1,0,0,response7disk_5,1,13.0027,-11.4140625,-1.84765625,1,0,0,rectangle_8,-11.4140625,-1.84765625,1,0,0,-11.4140625,-1.84765625,1,0,0,0,0,0,1,1,60fd9e57a0308edae3e23991,610368a738a3fada71e272b2,2021-07-29_22h49.53.224,Simcolourproject_2stim_asymm_v5,2020.2.10,MacIntel,60,61025ae37ef11b136ea224fe,,,,,,,,,,,,,,,,,,,,,,,,,,,,,,,,,,,,,,,,,,,,,,
,,,,,,,,,,,,106,FF,45.4921875,74.03125,1,0,0,response1disk_5,7,2.4326,9.671875,4.27734375,1,0,0,rectangle_8,-56.21875,-90.91015625,1,0,0,-7.17578125,14.5703125,1,0,0,0,1,1,0,1,60fd9e57a0308edae3e23991,610368a738a3fada71e272b2,2021-07-29_22h49.53.224,Simcolourproject_2stim_asymm_v5,2020.2.10,MacIntel,60,61025ae37ef11b136ea224fe,response5disk_7,3,5.9682,3,"[2,5]",rectangle_4,,,,,,,,,,,,,,,,,,,,,,,,,,,,,,,,,,,,,,,,
,,,,,,,,,,,,94,PF,60.453125,111.0195313,1,0,0,response1disk_5,7,4.0181,3.2421875,5.19140625,1,0,0,rectangle_8,3.2421875,5.19140625,1,0,0,3.2421875,5.19140625,1,0,0,0,2,2,2,1,60fd9e57a0308edae3e23991,610368a738a3fada71e272b2,2021-07-29_22h49.53.224,Simcolourproject_2stim_asymm_v5,2020.2.10,MacIntel,60,61025ae37ef11b136ea224fe,,,,,,,,,,,,,,,,,,,,,,,,,,,,,,,,,,,,,,,,,,,,,,
,,,,,,,,,,,,93,PF,36.4921875,89.44921875,1,0,0,response1disk_5,7,1.7349,3.3671875,-4.18359375,1,0,0,rectangle_8,3.3671875,-4.18359375,1,0,0,3.3671875,-4.18359375,1,0,0,0,3,3,4,1,60fd9e57a0308edae3e23991,610368a738a3fada71e272b2,2021-07-29_22h49.53.224,Simcolourproject_2stim_asymm_v5,2020.2.10,MacIntel,60,61025ae37ef11b136ea224fe,,,,,,,,,,,,,,,,,,,,,,,,,,,,,,,,,,,,,,,,,,,,,,
,,,,,,,,,,,,64,FF,43.6484375,-106.6601563,1,0,0,response3disk_5,4,7.4007,5.1015625,-5.6953125,1,0,0,rectangle_8,-38.56640625,-100.453125,1,0,0,0.32421875,0.1640625,1,0,0,0,4,4,3,1,60fd9e57a0308edae3e23991,610368a738a3fada71e272b2,2021-07-29_22h49.53.224,Simcolourproject_2stim_asymm_v5,2020.2.10,MacIntel,60,61025ae37ef11b136ea224fe,response5disk_7,3,5.6831,3,"[2,5]",rectangle_4,,,,,,,,,,,,,,,,,,,,,,,,,,,,,,,,,,,,,,,,
,,,,,,,,,,,,35,PF,-29.19140625,-77.8828125,1,0,0,response5disk_5,3,2.1516,7.39453125,6.4140625,1,0,0,rectangle_8,7.39453125,6.4140625,1,0,0,7.39453125,6.4140625,1,0,0,0,5,5,6,1,60fd9e57a0308edae3e23991,610368a738a3fada71e272b2,2021-07-29_22h49.53.224,Simcolourproject_2stim_asymm_v5,2020.2.10,MacIntel,60,61025ae37ef11b136ea224fe,,,,,,,,,,,,,,,,,,,,,,,,,,,,,,,,,,,,,,,,,,,,,,
,,,,,,,,,,,,82,FF,85.09375,-46.28125,1,0,0,response3disk_5,5,2.0662,-3.71484375,-2.91796875,1,0,0,rectangle_8,-3.71484375,-2.91796875,1,0,0,-3.71484375,-2.91796875,1,0,0,0,6,6,5,1,60fd9e57a0308edae3e23991,610368a738a3fada71e272b2,2021-07-29_22h49.53.224,Simcolourproject_2stim_asymm_v5,2020.2.10,MacIntel,60,61025ae37ef11b136ea224fe,,,,,,,,,,,,,,,,,,,,,,,,,,,,,,,,,,,,,,,,,,,,,,
,,,,,,,,,,,,,FF,,,,,,,,2.0513,,,,,,,,,,,,,,,,,,,,,,60fd9e57a0308edae3e23991,610368a738a3fada71e272b2,2021-07-29_22h49.53.224,Simcolourproject_2stim_asymm_v5,2020.2.10,MacIntel,60,61025ae37ef11b136ea224fe,,,,,,,space,14.0742,4263,62.0390625,76.8203125,1,0,0,response1disk,,7,4.4375,-4.55859375,1,0,0,rectangle,4.4375,-4.55859375,1,0,0,4.4375,-4.55859375,1,0,0,0,0,0,33,1,,,,,,,,
,,,,,,,,,,,,,FF,,,,,,,,1.3665,,,,,,,,,,,,,,,,,,,,,,60fd9e57a0308edae3e23991,610368a738a3fada71e272b2,2021-07-29_22h49.53.224,Simcolourproject_2stim_asymm_v5,2020.2.10,MacIntel,60,61025ae37ef11b136ea224fe,,,,,,,,,1200,33.2578125,66.890625,1,0,0,response1disk,,7,2.0078125,-2.55859375,1,0,0,rectangle,2.0078125,-2.55859375,1,0,0,2.0078125,-2.55859375,1,0,0,0,1,1,1,1,,,,,,,,
,,,,,,,,,,,,,FF,,,,,,,,1.7835,,,,,,,,,,,,,,,,,,,,,,60fd9e57a0308edae3e23991,610368a738a3fada71e272b2,2021-07-29_22h49.53.224,Simcolourproject_2stim_asymm_v5,2020.2.10,MacIntel,60,61025ae37ef11b136ea224fe,,,,,,,,,3887,82.26171875,44.3203125,1,0,0,response1disk,,6,2.08984375,-5.03125,1,0,0,rectangle,2.08984375,-5.03125,1,0,0,2.08984375,-5.03125,1,0,0,0,2,2,95,1,,,,,,,,
,,,,,,,,,,,,,FF,,,,,,,,1.1336,,,,,,,,,,,,,,,,,,,,,,60fd9e57a0308edae3e23991,610368a738a3fada71e272b2,2021-07-29_22h49.53.224,Simcolourproject_2stim_asymm_v5,2020.2.10,MacIntel,60,61025ae37ef11b136ea224fe,,,,,,,,,2451,41.67578125,88.68359375,1,0,0,response1disk,,7,5.33984375,-6.765625,1,0,0,rectangle,5.33984375,-6.765625,1,0,0,5.33984375,-6.765625,1,0,0,0,3,3,8,1,,,,,,,,
,,,,,,,,,,,,,FF,,,,,,,,1.9508,,,,,,,,,,,,,,,,,,,,,,60fd9e57a0308edae3e23991,610368a738a3fada71e272b2,2021-07-29_22h49.53.224,Simcolourproject_2stim_asymm_v5,2020.2.10,MacIntel,60,61025ae37ef11b136ea224fe,,,,,,,,,1936,32.6484375,76.53125,1,0,0,response1disk,,7,1.8671875,-6.07421875,1,0,0,rectangle,-42.578125,92.50390625,1,0,0,12.28515625,-9.80859375,1,0,0,0,4,4,90,1,,response7disk_3,TRUE,0,0,"[18,138,318,48,177,64,87,282,242,68,226,273,165,221,13,21,5,170,244,130]",3.633,rectangle
,,,,,,,,,,,,,FF,,,,,,,,2.217,,,,,,,,,,,,,,,,,,,,,,60fd9e57a0308edae3e23991,610368a738a3fada71e272b2,2021-07-29_22h49.53.224,Simcolourproject_2stim_asymm_v5,2020.2.10,MacIntel,60,61025ae37ef11b136ea224fe,,,,,,,,,1497,45.2734375,109.6015625,1,0,0,response1disk,,7,3.9921875,-0.30859375,1,0,0,rectangle,3.9921875,-0.30859375,1,0,0,3.9921875,-0.30859375,1,0,0,0,5,5,61,1,,,,,,,,
,,,,,,,,,,,,,FF,,,,,,,,2.1169,,,,,,,,,,,,,,,,,,,,,,60fd9e57a0308edae3e23991,610368a738a3fada71e272b2,2021-07-29_22h49.53.224,Simcolourproject_2stim_asymm_v5,2020.2.10,MacIntel,60,61025ae37ef11b136ea224fe,,,,,,,,,2652,84.4296875,-64.2421875,1,0,0,response3disk,,5,0.48046875,-11.15625,1,0,0,rectangle,0.48046875,-11.15625,1,0,0,0.48046875,-11.15625,1,0,0,0,6,6,71,1,,,,,,,,
,,,,,,,,,,,,,FF,,,,,,,,2.7835,,,,,,,,,,,,,,,,,,,,,,60fd9e57a0308edae3e23991,610368a738a3fada71e272b2,2021-07-29_22h49.53.224,Simcolourproject_2stim_asymm_v5,2020.2.10,MacIntel,60,61025ae37ef11b136ea224fe,,,,,,,,,3488,55.87109375,84.640625,1,0,0,response1disk,,7,-1.7734375,8.63671875,1,0,0,rectangle,-1.7734375,8.63671875,1,0,0,-1.7734375,8.63671875,1,0,0,0,7,7,96,1,,,,,,,,
,,,,,,,,,,,,,FF,,,,,,,,1.3503,,,,,,,,,,,,,,,,,,,,,,60fd9e57a0308edae3e23991,610368a738a3fada71e272b2,2021-07-29_22h49.53.224,Simcolourproject_2stim_asymm_v5,2020.2.10,MacIntel,60,61025ae37ef11b136ea224fe,,,,,,,,,2585,35.078125,98.1015625,1,0,0,response1disk,,7,-11.453125,3.3046875,1,0,0,rectangle,-11.453125,3.3046875,1,0,0,-11.453125,3.3046875,1,0,0,0,8,8,39,1,,,,,,,,
,,,,,,,,,,,,,FF,,,,,,,,2.4327,,,,,,,,,,,,,,,,,,,,,,60fd9e57a0308edae3e23991,610368a738a3fada71e272b2,2021-07-29_22h49.53.224,Simcolourproject_2stim_asymm_v5,2020.2.10,MacIntel,60,61025ae37ef11b136ea224fe,,,,,,,,,3419,36.3828125,-97.09375,1,0,0,response3disk,,4,12.89453125,-3.7265625,1,0,0,rectangle,12.89453125,-3.7265625,1,0,0,12.89453125,-3.7265625,1,0,0,0,9,9,102,1,,,,,,,,
,,,,,,,,,,,,,FF,,,,,,,,2.7179,,,,,,,,,,,,,,,,,,,,,,60fd9e57a0308edae3e23991,610368a738a3fada71e272b2,2021-07-29_22h49.53.224,Simcolourproject_2stim_asymm_v5,2020.2.10,MacIntel,60,61025ae37ef11b136ea224fe,,,,,,,,,910,44.80078125,82.65625,1,0,0,response1disk,,7,1.4375,-7.7109375,1,0,0,rectangle,1.4375,-7.7109375,1,0,0,1.4375,-7.7109375,1,0,0,0,10,10,2,1,,,,,,,,
,,,,,,,,,,,,,FF,,,,,,,,1.0497,,,,,,,,,,,,,,,,,,,,,,60fd9e57a0308edae3e23991,610368a738a3fada71e272b2,2021-07-29_22h49.53.224,Simcolourproject_2stim_asymm_v5,2020.2.10,MacIntel,60,61025ae37ef11b136ea224fe,,,,,,,,,1259,42.06640625,63.4296875,1,0,0,response1disk,,7,1.82421875,-0.50390625,1,0,0,rectangle,1.82421875,-0.50390625,1,0,0,1.82421875,-0.50390625,1,0,0,0,11,11,40,1,,,,,,,,
,,,,,,,,,,,,,FF,,,,,,,,1.6507,,,,,,,,,,,,,,,,,,,,,,60fd9e57a0308edae3e23991,610368a738a3fada71e272b2,2021-07-29_22h49.53.224,Simcolourproject_2stim_asymm_v5,2020.2.10,MacIntel,60,61025ae37ef11b136ea224fe,,,,,,,,,2428,46.62109375,-84.1484375,1,0,0,response3disk,,4,5.9921875,-0.93359375,1,0,0,rectangle,-92.27734375,47.6796875,1,0,0,10.1171875,-6.40625,1,0,0,0,12,12,86,1,,response7disk_3,TRUE,1,1,"[18,138,318,48,177,64,87,282,242,68,226,273,165,221,13,21,5,170,244,130]",2.417,rectangle
,,,,,,,,,,,,,FF,,,,,,,,2.4821,,,,,,,,,,,,,,,,,,,,,,60fd9e57a0308edae3e23991,610368a738a3fada71e272b2,2021-07-29_22h49.53.224,Simcolourproject_2stim_asymm_v5,2020.2.10,MacIntel,60,61025ae37ef11b136ea224fe,,,,,,,,,752,99.6640625,48.0703125,1,0,0,response1disk,,6,-11.7578125,-5.05859375,1,0,0,rectangle,-11.7578125,-5.05859375,1,0,0,-11.7578125,-5.05859375,1,0,0,0,13,13,44,1,,,,,,,,
,,,,,,,,,,,,,FF,,,,,,,,2.8651,,,,,,,,,,,,,,,,,,,,,,60fd9e57a0308edae3e23991,610368a738a3fada71e272b2,2021-07-29_22h49.53.224,Simcolourproject_2stim_asymm_v5,2020.2.10,MacIntel,60,61025ae37ef11b136ea224fe,,,,,,,,,2042,66.71875,-53.4921875,1,0,0,response3disk,,5,2.171875,4.0234375,1,0,0,rectangle,2.171875,4.0234375,1,0,0,2.171875,4.0234375,1,0,0,0,14,14,34,1,,,,,,,,
,,,,,,,,,,,,,FF,,,,,,,,2.1338,,,,,,,,,,,,,,,,,,,,,,60fd9e57a0308edae3e23991,610368a738a3fada71e272b2,2021-07-29_22h49.53.224,Simcolourproject_2stim_asymm_v5,2020.2.10,MacIntel,60,61025ae37ef11b136ea224fe,,,,,,,,,4089,54.9140625,-85.30078125,1,0,0,response3disk,,4,-0.30078125,-0.046875,1,0,0,rectangle,-0.30078125,-0.046875,1,0,0,-0.30078125,-0.046875,1,0,0,0,15,15,41,1,,,,,,,,
,,,,,,,,,,,,,FF,,,,,,,,2.1495,,,,,,,,,,,,,,,,,,,,,,60fd9e57a0308edae3e23991,610368a738a3fada71e272b2,2021-07-29_22h49.53.224,Simcolourproject_2stim_asymm_v5,2020.2.10,MacIntel,60,61025ae37ef11b136ea224fe,,,,,,,,,2403,25.35546875,75.1796875,1,0,0,response1disk,,7,2.1328125,-6.37890625,1,0,0,rectangle,2.1328125,-6.37890625,1,0,0,2.1328125,-6.37890625,1,0,0,0,16,16,30,1,,,,,,,,
,,,,,,,,,,,,,FF,,,,,,,,1.0678,,,,,,,,,,,,,,,,,,,,,,60fd9e57a0308edae3e23991,610368a738a3fada71e272b2,2021-07-29_22h49.53.224,Simcolourproject_2stim_asymm_v5,2020.2.10,MacIntel,60,61025ae37ef11b136ea224fe,,,,,,,,,653,41.71875,88.02734375,1,0,0,response1disk,,7,14.328125,8.37109375,1,0,0,rectangle,-92.9296875,-44.41015625,1,0,0,4.08984375,-7.64453125,1,0,0,0,17,17,116,1,,response5disk_3,TRUE,2,2,"[18,138,318,48,177,64,87,282,242,68,226,273,165,221,13,21,5,170,244,130]",2.7836,rectangle
,,,,,,,,,,,,,FF,,,,,,,,1.8174,,,,,,,,,,,,,,,,,,,,,,60fd9e57a0308edae3e23991,610368a738a3fada71e272b2,2021-07-29_22h49.53.224,Simcolourproject_2stim_asymm_v5,2020.2.10,MacIntel,60,61025ae37ef11b136ea224fe,,,,,,,,,432,26.23046875,-115.2460938,1,0,0,response3disk,,4,-5.37109375,-3.8671875,1,0,0,rectangle,-5.37109375,-3.8671875,1,0,0,-5.37109375,-3.8671875,1,0,0,0,18,18,7,1,,,,,,,,
,,,,,,,,,,,,,FF,,,,,,,,1.2331,,,,,,,,,,,,,,,,,,,,,,60fd9e57a0308edae3e23991,610368a738a3fada71e272b2,2021-07-29_22h49.53.224,Simcolourproject_2stim_asymm_v5,2020.2.10,MacIntel,60,61025ae37ef11b136ea224fe,,,,,,,,,1449,45.28515625,-78.1328125,1,0,0,response3disk,,4,6.4375,3.0390625,1,0,0,rectangle,6.4375,3.0390625,1,0,0,6.4375,3.0390625,1,0,0,0,19,19,50,1,,,,,,,,
,,,,,,,,,,,,,FF,,,,,,,,1.5165,,,,,,,,,,,,,,,,,,,,,,60fd9e57a0308edae3e23991,610368a738a3fada71e272b2,2021-07-29_22h49.53.224,Simcolourproject_2stim_asymm_v5,2020.2.10,MacIntel,60,61025ae37ef11b136ea224fe,,,,,,,,,322,41.5078125,96.75390625,1,0,0,response1disk,,7,-3.6328125,-11.89453125,1,0,0,rectangle,76.49609375,-55.64453125,1,0,0,-0.16015625,-9.1171875,1,0,0,0,20,20,0,1,,response3disk_3,TRUE,5,5,"[18,138,318,48,177,64,87,282,242,68,226,273,165,221,13,21,5,170,244,130]",2.2491,rectangle
,,,,,,,,,,,,,FF,,,,,,,,2.5514,,,,,,,,,,,,,,,,,,,,,,60fd9e57a0308edae3e23991,610368a738a3fada71e272b2,2021-07-29_22h49.53.224,Simcolourproject_2stim_asymm_v5,2020.2.10,MacIntel,60,61025ae37ef11b136ea224fe,,,,,,,,,2144,36.60546875,76.875,1,0,0,response1disk,,7,-4.0234375,0.6484375,1,0,0,rectangle,-4.0234375,0.6484375,1,0,0,-4.0234375,0.6484375,1,0,0,0,21,21,84,1,,,,,,,,
,,,,,,,,,,,,,FF,,,,,,,,1.7507,,,,,,,,,,,,,,,,,,,,,,60fd9e57a0308edae3e23991,610368a738a3fada71e272b2,2021-07-29_22h49.53.224,Simcolourproject_2stim_asymm_v5,2020.2.10,MacIntel,60,61025ae37ef11b136ea224fe,,,,,,,,,4068,50.1484375,108.3359375,1,0,0,response1disk,,7,9.91015625,-3.73828125,1,0,0,rectangle,9.91015625,-3.73828125,1,0,0,9.91015625,-3.73828125,1,0,0,0,22,22,117,1,,,,,,,,
,,,,,,,,,,,,,FF,,,,,,,,1.1985,,,,,,,,,,,,,,,,,,,,,,60fd9e57a0308edae3e23991,610368a738a3fada71e272b2,2021-07-29_22h49.53.224,Simcolourproject_2stim_asymm_v5,2020.2.10,MacIntel,60,61025ae37ef11b136ea224fe,,,,,,,,,254,34.828125,52.51171875,1,0,0,response1disk,,7,24.1484375,-2.30859375,1,0,0,rectangle,24.1484375,-2.30859375,1,0,0,24.1484375,-2.30859375,1,0,0,0,23,23,67,1,,,,,,,,
,,,,,,,,,,,,,FF,,,,,,,,1.2168,,,,,,,,,,,,,,,,,,,,,,60fd9e57a0308edae3e23991,610368a738a3fada71e272b2,2021-07-29_22h49.53.224,Simcolourproject_2stim_asymm_v5,2020.2.10,MacIntel,60,61025ae37ef11b136ea224fe,,,,,,,,,2910,40.8125,93.05859375,1,0,0,response1disk,,7,4.35546875,-14.46484375,1,0,0,rectangle,4.35546875,-14.46484375,1,0,0,4.35546875,-14.46484375,1,0,0,0,24,24,97,1,,,,,,,,
,,,,,,,,,,,,,FF,,,,,,,,1.3492,,,,,,,,,,,,,,,,,,,,,,60fd9e57a0308edae3e23991,610368a738a3fada71e272b2,2021-07-29_22h49.53.224,Simcolourproject_2stim_asymm_v5,2020.2.10,MacIntel,60,61025ae37ef11b136ea224fe,,,,,,,,,2546,56.3984375,-81.05078125,1,0,0,response3disk,,4,15.078125,0.859375,1,0,0,rectangle,15.078125,0.859375,1,0,0,15.078125,0.859375,1,0,0,0,25,25,63,1,,,,,,,,
,,,,,,,,,,,,,FF,,,,,,,,0.8168,,,,,,,,,,,,,,,,,,,,,,60fd9e57a0308edae3e23991,610368a738a3fada71e272b2,2021-07-29_22h49.53.224,Simcolourproject_2stim_asymm_v5,2020.2.10,MacIntel,60,61025ae37ef11b136ea224fe,,,,,,,,,3176,41.46875,97.265625,1,0,0,response1disk,,7,-7.83984375,-4.55859375,1,0,0,rectangle,-7.83984375,-4.55859375,1,0,0,-7.83984375,-4.55859375,1,0,0,0,26,26,128,1,,,,,,,,
,,,,,,,,,,,,,FF,,,,,,,,0.8322,,,,,,,,,,,,,,,,,,,,,,60fd9e57a0308edae3e23991,610368a738a3fada71e272b2,2021-07-29_22h49.53.224,Simcolourproject_2stim_asymm_v5,2020.2.10,MacIntel,60,61025ae37ef11b136ea224fe,,,,,,,,,2308,41.7734375,89.11328125,1,0,0,response1disk,,7,15.3828125,1.69140625,1,0,0,rectangle,15.3828125,1.69140625,1,0,0,15.3828125,1.69140625,1,0,0,0,27,27,155,1,,,,,,,,
,,,,,,,,,,,,,FF,,,,,,,,1.3504,,,,,,,,,,,,,,,,,,,,,,60fd9e57a0308edae3e23991,610368a738a3fada71e272b2,2021-07-29_22h49.53.224,Simcolourproject_2stim_asymm_v5,2020.2.10,MacIntel,60,61025ae37ef11b136ea224fe,,,,,,,,,1881,34.1328125,77.61328125,1,0,0,response1disk,,7,-4.71484375,-6.296875,1,0,0,rectangle,-4.71484375,-6.296875,1,0,0,-4.71484375,-6.296875,1,0,0,0,28,28,133,1,,,,,,,,
,,,,,,,,,,,,,FF,,,,,,,,1.2005,,,,,,,,,,,,,,,,,,,,,,60fd9e57a0308edae3e23991,610368a738a3fada71e272b2,2021-07-29_22h49.53.224,Simcolourproject_2stim_asymm_v5,2020.2.10,MacIntel,60,61025ae37ef11b136ea224fe,,,,,,,,,798,45.28515625,89.84765625,1,0,0,response1disk,,7,12.6875,-5.78125,1,0,0,rectangle,12.6875,-5.78125,1,0,0,12.6875,-5.78125,1,0,0,0,29,29,37,1,,,,,,,,
,,,,,,,,,,,,,FF,,,,,,,,0.8489,,,,,,,,,,,,,,,,,,,,,,60fd9e57a0308edae3e23991,610368a738a3fada71e272b2,2021-07-29_22h49.53.224,Simcolourproject_2stim_asymm_v5,2020.2.10,MacIntel,60,61025ae37ef11b136ea224fe,,,,,,,,,316,42.8984375,56.63671875,1,0,0,response1disk,,7,26.96484375,3.59375,1,0,0,rectangle,26.96484375,3.59375,1,0,0,26.96484375,3.59375,1,0,0,0,30,30,111,1,,,,,,,,
,,,,,,,,,,,,,FF,,,,,,,,0.9,,,,,,,,,,,,,,,,,,,,,,60fd9e57a0308edae3e23991,610368a738a3fada71e272b2,2021-07-29_22h49.53.224,Simcolourproject_2stim_asymm_v5,2020.2.10,MacIntel,60,61025ae37ef11b136ea224fe,,,,,,,,,681,36.34375,110.4179688,1,0,0,response1disk,,7,8.21484375,2.203125,1,0,0,rectangle,8.21484375,2.203125,1,0,0,8.21484375,2.203125,1,0,0,0,31,31,3,1,,,,,,,,
,,,,,,,,,,,,,FF,,,,,,,,1.3656,,,,,,,,,,,,,,,,,,,,,,60fd9e57a0308edae3e23991,610368a738a3fada71e272b2,2021-07-29_22h49.53.224,Simcolourproject_2stim_asymm_v5,2020.2.10,MacIntel,60,61025ae37ef11b136ea224fe,,,,,,,,,193,26.578125,84.0703125,1,0,0,response1disk,,7,-1.203125,-0.9609375,1,0,0,rectangle,-1.203125,-0.9609375,1,0,0,-1.203125,-0.9609375,1,0,0,0,32,32,52,1,,,,,,,,
,,,,,,,,,,,,,FF,,,,,,,,0.7836,,,,,,,,,,,,,,,,,,,,,,60fd9e57a0308edae3e23991,610368a738a3fada71e272b2,2021-07-29_22h49.53.224,Simcolourproject_2stim_asymm_v5,2020.2.10,MacIntel,60,61025ae37ef11b136ea224fe,,,,,,,,,203,30.3984375,87.54296875,1,0,0,response1disk,,7,13.73046875,15.87109375,1,0,0,rectangle,13.73046875,15.87109375,1,0,0,13.73046875,15.87109375,1,0,0,0,33,33,130,1,,,,,,,,
,,,,,,,,,,,,,FF,,,,,,,,0.8155,,,,,,,,,,,,,,,,,,,,,,60fd9e57a0308edae3e23991,610368a738a3fada71e272b2,2021-07-29_22h49.53.224,Simcolourproject_2stim_asymm_v5,2020.2.10,MacIntel,60,61025ae37ef11b136ea224fe,,,,,,,,,1344,46.0234375,66.4453125,1,0,0,response1disk,,7,18.58984375,5.37109375,1,0,0,rectangle,18.58984375,5.37109375,1,0,0,18.58984375,5.37109375,1,0,0,0,34,34,31,1,,,,,,,,
,,,,,,,,,,,,,FF,,,,,,,,1.3837,,,,,,,,,,,,,,,,,,,,,,60fd9e57a0308edae3e23991,610368a738a3fada71e272b2,2021-07-29_22h49.53.224,Simcolourproject_2stim_asymm_v5,2020.2.10,MacIntel,60,61025ae37ef11b136ea224fe,,,,,,,,,2988,-40.3984375,-112.9960938,1,0,0,response5disk,,3,-18.5234375,-0.921875,1,0,0,rectangle,-18.5234375,-0.921875,1,0,0,-18.5234375,-0.921875,1,0,0,0,35,35,113,1,,,,,,,,
,,,,,,,,,,,,,FF,,,,,,,,0.8502,,,,,,,,,,,,,,,,,,,,,,60fd9e57a0308edae3e23991,610368a738a3fada71e272b2,2021-07-29_22h49.53.224,Simcolourproject_2stim_asymm_v5,2020.2.10,MacIntel,60,61025ae37ef11b136ea224fe,,,,,,,,,2416,33.91015625,58.0703125,1,0,0,response1disk,,7,13.76953125,0.59375,1,0,0,rectangle,13.76953125,0.59375,1,0,0,13.76953125,0.59375,1,0,0,0,36,36,5,1,,,,,,,,
,,,,,,,,,,,,,FF,,,,,,,,1.1156,,,,,,,,,,,,,,,,,,,,,,60fd9e57a0308edae3e23991,610368a738a3fada71e272b2,2021-07-29_22h49.53.224,Simcolourproject_2stim_asymm_v5,2020.2.10,MacIntel,60,61025ae37ef11b136ea224fe,,,,,,,,,3906,-75.81640625,50.6796875,1,0,0,response7disk,,1,-11.66015625,7.19140625,1,0,0,rectangle,-11.66015625,7.19140625,1,0,0,-11.66015625,7.19140625,1,0,0,0,37,37,103,1,,,,,,,,
,,,,,,,,,,,,,FF,,,,,,,,0.9329,,,,,,,,,,,,,,,,,,,,,,60fd9e57a0308edae3e23991,610368a738a3fada71e272b2,2021-07-29_22h49.53.224,Simcolourproject_2stim_asymm_v5,2020.2.10,MacIntel,60,61025ae37ef11b136ea224fe,,,,,,,,,918,43.55078125,116.1445313,1,0,0,response1disk,,7,-4.71484375,-5.046875,1,0,0,rectangle,-4.71484375,-5.046875,1,0,0,-4.71484375,-5.046875,1,0,0,0,38,38,21,1,,,,,,,,
,,,,,,,,,,,,,FF,,,,,,,,1.0008,,,,,,,,,,,,,,,,,,,,,,60fd9e57a0308edae3e23991,610368a738a3fada71e272b2,2021-07-29_22h49.53.224,Simcolourproject_2stim_asymm_v5,2020.2.10,MacIntel,60,61025ae37ef11b136ea224fe,,,,,,,,,1091,36.953125,56.6796875,1,0,0,response1disk,,7,26.2734375,4.94140625,1,0,0,rectangle,26.2734375,4.94140625,1,0,0,26.2734375,4.94140625,1,0,0,0,39,39,134,1,,,,,,,,
,,,,,,,,,,,,,FF,,,,,,,,0.7517,,,,,,,,,,,,,,,,,,,,,,60fd9e57a0308edae3e23991,610368a738a3fada71e272b2,2021-07-29_22h49.53.224,Simcolourproject_2stim_asymm_v5,2020.2.10,MacIntel,60,61025ae37ef11b136ea224fe,,,,,,,,,1981,41.16015625,89.54296875,1,0,0,response1disk,,7,0.2265625,5.24609375,1,0,0,rectangle,0.2265625,5.24609375,1,0,0,0.2265625,5.24609375,1,0,0,0,40,40,62,1,,,,,,,,
,,,,,,,,,,,,,FF,,,,,,,,1.4835,,,,,,,,,,,,,,,,,,,,,,60fd9e57a0308edae3e23991,610368a738a3fada71e272b2,2021-07-29_22h49.53.224,Simcolourproject_2stim_asymm_v5,2020.2.10,MacIntel,60,61025ae37ef11b136ea224fe,,,,,,,,,850,75.234375,31.1640625,1,0,0,response1disk,,6,2.48046875,-0.30859375,1,0,0,rectangle,2.48046875,-0.30859375,1,0,0,2.48046875,-0.30859375,1,0,0,0,41,41,4,1,,,,,,,,
,,,,,,,,,,,,,FF,,,,,,,,0.882,,,,,,,,,,,,,,,,,,,,,,60fd9e57a0308edae3e23991,610368a738a3fada71e272b2,2021-07-29_22h49.53.224,Simcolourproject_2stim_asymm_v5,2020.2.10,MacIntel,60,61025ae37ef11b136ea224fe,,,,,,,,,2335,55.953125,85.765625,1,0,0,response1disk,,7,3.5625,-6.90625,1,0,0,rectangle,3.5625,-6.90625,1,0,0,3.5625,-6.90625,1,0,0,0,42,42,110,1,,,,,,,,
,,,,,,,,,,,,,FF,,,,,,,,0.9167,,,,,,,,,,,,,,,,,,,,,,60fd9e57a0308edae3e23991,610368a738a3fada71e272b2,2021-07-29_22h49.53.224,Simcolourproject_2stim_asymm_v5,2020.2.10,MacIntel,60,61025ae37ef11b136ea224fe,,,,,,,,,210,34.46875,101.7382813,1,0,0,response1disk,,7,-1.60546875,10.5390625,1,0,0,rectangle,-1.60546875,10.5390625,1,0,0,-1.60546875,10.5390625,1,0,0,0,43,43,20,1,,,,,,,,
,,,,,,,,,,,,,FF,,,,,,,,1.9018,,,,,,,,,,,,,,,,,,,,,,60fd9e57a0308edae3e23991,610368a738a3fada71e272b2,2021-07-29_22h49.53.224,Simcolourproject_2stim_asymm_v5,2020.2.10,MacIntel,60,61025ae37ef11b136ea224fe,,,,,,,,,1952,95.234375,-42.98046875,1,0,0,response3disk,,5,11.28515625,1.46875,1,0,0,rectangle,11.28515625,1.46875,1,0,0,11.28515625,1.46875,1,0,0,0,44,44,56,1,,,,,,,,
,,,,,,,,,,,,,FF,,,,,,,,2.217,,,,,,,,,,,,,,,,,,,,,,60fd9e57a0308edae3e23991,610368a738a3fada71e272b2,2021-07-29_22h49.53.224,Simcolourproject_2stim_asymm_v5,2020.2.10,MacIntel,60,61025ae37ef11b136ea224fe,,,,,,,,,702,44.703125,-100.9257813,1,0,0,response3disk,,4,1.3828125,-0.0859375,1,0,0,rectangle,1.3828125,-0.0859375,1,0,0,1.3828125,-0.0859375,1,0,0,0,45,45,36,1,,,,,,,,
,,,,,,,,,,,,,FF,,,,,,,,0.7834,,,,,,,,,,,,,,,,,,,,,,60fd9e57a0308edae3e23991,610368a738a3fada71e272b2,2021-07-29_22h49.53.224,Simcolourproject_2stim_asymm_v5,2020.2.10,MacIntel,60,61025ae37ef11b136ea224fe,,,,,,,,,3793,31.59375,65.5,1,0,0,response1disk,,7,6.6328125,-1.4765625,1,0,0,rectangle,6.6328125,-1.4765625,1,0,0,6.6328125,-1.4765625,1,0,0,0,46,46,154,1,,,,,,,,
,,,,,,,,,,,,,FF,,,,,,,,1.4671,,,,,,,,,,,,,,,,,,,,,,60fd9e57a0308edae3e23991,610368a738a3fada71e272b2,2021-07-29_22h49.53.224,Simcolourproject_2stim_asymm_v5,2020.2.10,MacIntel,60,61025ae37ef11b136ea224fe,,,,,,,,,2603,93.4453125,-50.08984375,1,0,0,response3disk,,5,16.08984375,-1.171875,1,0,0,rectangle,51.078125,-100.09375,1,0,0,15.3125,-12.28125,1,0,0,0,47,47,6,1,,response3disk_3,TRUE,4,4,"[18,138,318,48,177,64,87,282,242,68,226,273,165,221,13,21,5,170,244,130]",2.6503,rectangle
,,,,,,,,,,,,,FF,,,,,,,,1.1004,,,,,,,,,,,,,,,,,,,,,,60fd9e57a0308edae3e23991,610368a738a3fada71e272b2,2021-07-29_22h49.53.224,Simcolourproject_2stim_asymm_v5,2020.2.10,MacIntel,60,61025ae37ef11b136ea224fe,,,,,,,,,765,41.35546875,79.3046875,1,0,0,response1disk,,7,12.1875,10.63671875,1,0,0,rectangle,12.1875,10.63671875,1,0,0,12.1875,10.63671875,1,0,0,0,48,48,29,1,,,,,,,,
,,,,,,,,,,,,,FF,,,,,,,,1.2828,,,,,,,,,,,,,,,,,,,,,,60fd9e57a0308edae3e23991,610368a738a3fada71e272b2,2021-07-29_22h49.53.224,Simcolourproject_2stim_asymm_v5,2020.2.10,MacIntel,60,61025ae37ef11b136ea224fe,,,,,,,,,3005,50.34375,-83.03515625,1,0,0,response3disk,,4,16.35546875,0.60546875,1,0,0,rectangle,16.35546875,0.60546875,1,0,0,16.35546875,0.60546875,1,0,0,0,49,49,125,1,,,,,,,,
,,,,,,,,,,,,,FF,,,,,,,,0.7993,,,,,,,,,,,,,,,,,,,,,,60fd9e57a0308edae3e23991,610368a738a3fada71e272b2,2021-07-29_22h49.53.224,Simcolourproject_2stim_asymm_v5,2020.2.10,MacIntel,60,61025ae37ef11b136ea224fe,,,,,,,,,1729,35.453125,71.70703125,1,0,0,response1disk,,7,9.453125,-4.90625,1,0,0,rectangle,9.453125,-4.90625,1,0,0,9.453125,-4.90625,1,0,0,0,50,50,148,1,,,,,,,,
,,,,,,,,,,,,,FF,,,,,,,,0.6824,,,,,,,,,,,,,,,,,,,,,,60fd9e57a0308edae3e23991,610368a738a3fada71e272b2,2021-07-29_22h49.53.224,Simcolourproject_2stim_asymm_v5,2020.2.10,MacIntel,60,61025ae37ef11b136ea224fe,,,,,,,,,217,38.96875,89.0703125,1,0,0,response1disk,,7,2.16015625,4.078125,1,0,0,rectangle,2.16015625,4.078125,1,0,0,2.16015625,4.078125,1,0,0,0,51,51,25,1,,,,,,,,
,,,,,,,,,,,,,FF,,,,,,,,1.4653,,,,,,,,,,,,,,,,,,,,,,60fd9e57a0308edae3e23991,610368a738a3fada71e272b2,2021-07-29_22h49.53.224,Simcolourproject_2stim_asymm_v5,2020.2.10,MacIntel,60,61025ae37ef11b136ea224fe,,,,,,,,,3451,37.578125,119.671875,1,0,0,response1disk,,7,-9.30078125,-8.7265625,1,0,0,rectangle,-9.30078125,-8.7265625,1,0,0,-9.30078125,-8.7265625,1,0,0,0,52,52,126,1,,,,,,,,
,,,,,,,,,,,,,FF,,,,,,,,1.0832,,,,,,,,,,,,,,,,,,,,,,60fd9e57a0308edae3e23991,610368a738a3fada71e272b2,2021-07-29_22h49.53.224,Simcolourproject_2stim_asymm_v5,2020.2.10,MacIntel,60,61025ae37ef11b136ea224fe,,,,,,,,,2155,34.10546875,83.2109375,1,0,0,response1disk,,7,13.2734375,-6.8671875,1,0,0,rectangle,13.2734375,-6.8671875,1,0,0,13.2734375,-6.8671875,1,0,0,0,53,53,100,1,,,,,,,,
,,,,,,,,,,,,,FF,,,,,,,,0.6341,,,,,,,,,,,,,,,,,,,,,,60fd9e57a0308edae3e23991,610368a738a3fada71e272b2,2021-07-29_22h49.53.224,Simcolourproject_2stim_asymm_v5,2020.2.10,MacIntel,60,61025ae37ef11b136ea224fe,,,,,,,,,182,46.26171875,96.8359375,1,0,0,response1disk,,7,25.42578125,12.1484375,1,0,0,rectangle,25.42578125,12.1484375,1,0,0,25.42578125,12.1484375,1,0,0,0,54,54,106,1,,,,,,,,
,,,,,,,,,,,,,FF,,,,,,,,1.2987,,,,,,,,,,,,,,,,,,,,,,60fd9e57a0308edae3e23991,610368a738a3fada71e272b2,2021-07-29_22h49.53.224,Simcolourproject_2stim_asymm_v5,2020.2.10,MacIntel,60,61025ae37ef11b136ea224fe,,,,,,,,,3900,108.4179688,-34.7265625,1,0,0,response3disk,,5,-17.28515625,11.109375,1,0,0,rectangle,-17.28515625,11.109375,1,0,0,-17.28515625,11.109375,1,0,0,0,55,55,135,1,,,,,,,,
,,,,,,,,,,,,,FF,,,,,,,,0.7837,,,,,,,,,,,,,,,,,,,,,,60fd9e57a0308edae3e23991,610368a738a3fada71e272b2,2021-07-29_22h49.53.224,Simcolourproject_2stim_asymm_v5,2020.2.10,MacIntel,60,61025ae37ef11b136ea224fe,,,,,,,,,1027,29.55078125,79.16796875,1,0,0,response1disk,,7,2.8125,-3.4765625,1,0,0,rectangle,2.8125,-3.4765625,1,0,0,2.8125,-3.4765625,1,0,0,0,56,56,10,1,,,,,,,,
,,,,,,,,,,,,,FF,,,,,,,,1.4509,,,,,,,,,,,,,,,,,,,,,,60fd9e57a0308edae3e23991,610368a738a3fada71e272b2,2021-07-29_22h49.53.224,Simcolourproject_2stim_asymm_v5,2020.2.10,MacIntel,60,61025ae37ef11b136ea224fe,,,,,,,,,2783,93.09765625,37.33203125,1,0,0,response1disk,,6,-11.9921875,-16.4921875,1,0,0,rectangle,-11.9921875,-16.4921875,1,0,0,-11.9921875,-16.4921875,1,0,0,0,57,57,146,1,,,,,,,,
,,,,,,,,,,,,,FF,,,,,,,,0.8844,,,,,,,,,,,,,,,,,,,,,,60fd9e57a0308edae3e23991,610368a738a3fada71e272b2,2021-07-29_22h49.53.224,Simcolourproject_2stim_asymm_v5,2020.2.10,MacIntel,60,61025ae37ef11b136ea224fe,,,,,,,,,3193,34.5390625,85.515625,1,0,0,response1disk,,7,12.66015625,12.37109375,1,0,0,rectangle,12.66015625,12.37109375,1,0,0,12.66015625,12.37109375,1,0,0,0,58,58,92,1,,,,,,,,
,,,,,,,,,,,,,FF,,,,,,,,0.6996,,,,,,,,,,,,,,,,,,,,,,60fd9e57a0308edae3e23991,610368a738a3fada71e272b2,2021-07-29_22h49.53.224,Simcolourproject_2stim_asymm_v5,2020.2.10,MacIntel,60,61025ae37ef11b136ea224fe,,,,,,,,,826,39.3984375,112.9882813,1,0,0,response1disk,,7,9.53515625,4.69140625,1,0,0,rectangle,9.53515625,4.69140625,1,0,0,9.53515625,4.69140625,1,0,0,0,59,59,23,1,,,,,,,,
,,,,,,,,,,,,,FF,,,,,,,,0.7662,,,,,,,,,,,,,,,,,,,,,,60fd9e57a0308edae3e23991,610368a738a3fada71e272b2,2021-07-29_22h49.53.224,Simcolourproject_2stim_asymm_v5,2020.2.10,MacIntel,60,61025ae37ef11b136ea224fe,,,,,,,,,73,31.41015625,62.9453125,1,0,0,response1disk,,7,-6.35546875,2.953125,1,0,0,rectangle,-6.35546875,2.953125,1,0,0,-6.35546875,2.953125,1,0,0,0,60,60,127,1,,,,,,,,
,,,,,,,,,,,,,FF,,,,,,,,1.7671,,,,,,,,,,,,,,,,,,,,,,60fd9e57a0308edae3e23991,610368a738a3fada71e272b2,2021-07-29_22h49.53.224,Simcolourproject_2stim_asymm_v5,2020.2.10,MacIntel,60,61025ae37ef11b136ea224fe,,,,,,,,,1757,84.625,-47.828125,1,0,0,response3disk,,5,11.05078125,-0.6015625,1,0,0,rectangle,11.05078125,-0.6015625,1,0,0,11.05078125,-0.6015625,1,0,0,0,61,61,123,1,,,,,,,,
,,,,,,,,,,,,,FF,,,,,,,,0.8332,,,,,,,,,,,,,,,,,,,,,,60fd9e57a0308edae3e23991,610368a738a3fada71e272b2,2021-07-29_22h49.53.224,Simcolourproject_2stim_asymm_v5,2020.2.10,MacIntel,60,61025ae37ef11b136ea224fe,,,,,,,,,1658,42.26171875,62.25,1,0,0,response1disk,,7,19.8125,7.51171875,1,0,0,rectangle,19.8125,7.51171875,1,0,0,19.8125,7.51171875,1,0,0,0,62,62,119,1,,,,,,,,
,,,,,,,,,,,,,FF,,,,,,,,1.4842,,,,,,,,,,,,,,,,,,,,,,60fd9e57a0308edae3e23991,610368a738a3fada71e272b2,2021-07-29_22h49.53.224,Simcolourproject_2stim_asymm_v5,2020.2.10,MacIntel,60,61025ae37ef11b136ea224fe,,,,,,,,,3675,74.33203125,25.87109375,1,0,0,response1disk,,6,3.92578125,0.9140625,1,0,0,rectangle,89.609375,-46.3125,1,0,0,18.12109375,2.6484375,1,0,0,0,63,63,89,1,,response3disk_3,TRUE,5,5,"[18,138,318,48,177,64,87,282,242,68,226,273,165,221,13,21,5,170,244,130]",2.5666,rectangle
,,,,,,,,,,,,,FF,,,,,,,,1.4994,,,,,,,,,,,,,,,,,,,,,,60fd9e57a0308edae3e23991,610368a738a3fada71e272b2,2021-07-29_22h49.53.224,Simcolourproject_2stim_asymm_v5,2020.2.10,MacIntel,60,61025ae37ef11b136ea224fe,,,,,,,,,1536,59.44140625,76.40234375,1,0,0,response1disk,,7,19.59375,-8.2421875,1,0,0,rectangle,19.59375,-8.2421875,1,0,0,19.59375,-8.2421875,1,0,0,0,64,64,58,1,,,,,,,,
,,,,,,,,,,,,,FF,,,,,,,,1.6169,,,,,,,,,,,,,,,,,,,,,,60fd9e57a0308edae3e23991,610368a738a3fada71e272b2,2021-07-29_22h49.53.224,Simcolourproject_2stim_asymm_v5,2020.2.10,MacIntel,60,61025ae37ef11b136ea224fe,,,,,,,,,2098,-26.98046875,-84.8984375,1,0,0,response5disk,,3,1.83984375,-4.07421875,1,0,0,rectangle,1.83984375,-4.07421875,1,0,0,1.83984375,-4.07421875,1,0,0,0,65,65,131,1,,,,,,,,
,,,,,,,,,,,,,FF,,,,,,,,0.8496,,,,,,,,,,,,,,,,,,,,,,60fd9e57a0308edae3e23991,610368a738a3fada71e272b2,2021-07-29_22h49.53.224,Simcolourproject_2stim_asymm_v5,2020.2.10,MacIntel,60,61025ae37ef11b136ea224fe,,,,,,,,,3681,30.6640625,81.61328125,1,0,0,response1disk,,7,-4.0625,-11.71484375,1,0,0,rectangle,-4.0625,-11.71484375,1,0,0,-4.0625,-11.71484375,1,0,0,0,66,66,122,1,,,,,,,,
,,,,,,,,,,,,,FF,,,,,,,,1.0337,,,,,,,,,,,,,,,,,,,,,,60fd9e57a0308edae3e23991,610368a738a3fada71e272b2,2021-07-29_22h49.53.224,Simcolourproject_2stim_asymm_v5,2020.2.10,MacIntel,60,61025ae37ef11b136ea224fe,,,,,,,,,1738,37.60546875,66.33203125,1,0,0,response1disk,,7,16.46875,2.30078125,1,0,0,rectangle,-70.99609375,31.46875,1,0,0,-7.83984375,1.56640625,1,0,0,0,67,67,93,1,,response7disk_3,TRUE,1,1,"[18,138,318,48,177,64,87,282,242,68,226,273,165,221,13,21,5,170,244,130]",1.9661,rectangle
,,,,,,,,,,,,,FF,,,,,,,,1.002,,,,,,,,,,,,,,,,,,,,,,60fd9e57a0308edae3e23991,610368a738a3fada71e272b2,2021-07-29_22h49.53.224,Simcolourproject_2stim_asymm_v5,2020.2.10,MacIntel,60,61025ae37ef11b136ea224fe,,,,,,,,,1075,31.0078125,89.68359375,1,0,0,response1disk,,7,2.1875,-1.51953125,1,0,0,rectangle,2.1875,-1.51953125,1,0,0,2.1875,-1.51953125,1,0,0,0,68,68,101,1,,,,,,,,
,,,,,,,,,,,,,FF,,,,,,,,1.4685,,,,,,,,,,,,,,,,,,,,,,60fd9e57a0308edae3e23991,610368a738a3fada71e272b2,2021-07-29_22h49.53.224,Simcolourproject_2stim_asymm_v5,2020.2.10,MacIntel,60,61025ae37ef11b136ea224fe,,,,,,,,,172,28.8828125,81.390625,1,0,0,response1disk,,7,0.41015625,3.60546875,1,0,0,rectangle,0.41015625,3.60546875,1,0,0,0.41015625,3.60546875,1,0,0,0,69,69,76,1,,,,,,,,
,,,,,,,,,,,,,FF,,,,,,,,0.9997,,,,,,,,,,,,,,,,,,,,,,60fd9e57a0308edae3e23991,610368a738a3fada71e272b2,2021-07-29_22h49.53.224,Simcolourproject_2stim_asymm_v5,2020.2.10,MacIntel,60,61025ae37ef11b136ea224fe,,,,,,,,,1337,38.953125,84,1,0,0,response1disk,,7,14.3828125,1.703125,1,0,0,rectangle,14.3828125,1.703125,1,0,0,14.3828125,1.703125,1,0,0,0,70,70,9,1,,,,,,,,
,,,,,,,,,,,,,FF,,,,,,,,0.7821,,,,,,,,,,,,,,,,,,,,,,60fd9e57a0308edae3e23991,610368a738a3fada71e272b2,2021-07-29_22h49.53.224,Simcolourproject_2stim_asymm_v5,2020.2.10,MacIntel,60,61025ae37ef11b136ea224fe,,,,,,,,,1781,40.7734375,86.77734375,1,0,0,response1disk,,7,21.37109375,10.42578125,1,0,0,rectangle,21.37109375,10.42578125,1,0,0,21.37109375,10.42578125,1,0,0,0,71,71,98,1,,,,,,,,
,,,,,,,,,,,,,FF,,,,,,,,0.6169,,,,,,,,,,,,,,,,,,,,,,60fd9e57a0308edae3e23991,610368a738a3fada71e272b2,2021-07-29_22h49.53.224,Simcolourproject_2stim_asymm_v5,2020.2.10,MacIntel,60,61025ae37ef11b136ea224fe,,,,,,,,,2001,50.19140625,85,1,0,0,response1disk,,7,4.05078125,-6.46484375,1,0,0,rectangle,4.05078125,-6.46484375,1,0,0,4.05078125,-6.46484375,1,0,0,0,72,72,87,1,,,,,,,,
,,,,,,,,,,,,,FF,,,,,,,,0.7167,,,,,,,,,,,,,,,,,,,,,,60fd9e57a0308edae3e23991,610368a738a3fada71e272b2,2021-07-29_22h49.53.224,Simcolourproject_2stim_asymm_v5,2020.2.10,MacIntel,60,61025ae37ef11b136ea224fe,,,,,,,,,4109,40.859375,102.1835938,1,0,0,response1disk,,7,12.73046875,5.51171875,1,0,0,rectangle,12.73046875,5.51171875,1,0,0,12.73046875,5.51171875,1,0,0,0,73,73,108,1,,,,,,,,
,,,,,,,,,,,,,FF,,,,,,,,1.4326,,,,,,,,,,,,,,,,,,,,,,60fd9e57a0308edae3e23991,610368a738a3fada71e272b2,2021-07-29_22h49.53.224,Simcolourproject_2stim_asymm_v5,2020.2.10,MacIntel,60,61025ae37ef11b136ea224fe,,,,,,,,,3503,-37.49609375,-82.30078125,1,0,0,response5disk,,3,-20.1328125,-0.73828125,1,0,0,rectangle,-20.1328125,-0.73828125,1,0,0,-20.1328125,-0.73828125,1,0,0,0,74,74,13,1,,,,,,,,
,,,,,,,,,,,,,FF,,,,,,,,0.8334,,,,,,,,,,,,,,,,,,,,,,60fd9e57a0308edae3e23991,610368a738a3fada71e272b2,2021-07-29_22h49.53.224,Simcolourproject_2stim_asymm_v5,2020.2.10,MacIntel,60,61025ae37ef11b136ea224fe,,,,,,,,,428,19.80078125,82.59765625,1,0,0,response1disk,,7,7.30078125,4.328125,1,0,0,rectangle,7.30078125,4.328125,1,0,0,7.30078125,4.328125,1,0,0,0,75,75,69,1,,,,,,,,
,,,,,,,,,,,,,FF,,,,,,,,0.6339,,,,,,,,,,,,,,,,,,,,,,60fd9e57a0308edae3e23991,610368a738a3fada71e272b2,2021-07-29_22h49.53.224,Simcolourproject_2stim_asymm_v5,2020.2.10,MacIntel,60,61025ae37ef11b136ea224fe,,,,,,,,,2976,39.24609375,75.125,1,0,0,response1disk,,7,6.30078125,-0.7109375,1,0,0,rectangle,6.30078125,-0.7109375,1,0,0,6.30078125,-0.7109375,1,0,0,0,76,76,143,1,,,,,,,,
,,,,,,,,,,,,,FF,,,,,,,,1.2665,,,,,,,,,,,,,,,,,,,,,,60fd9e57a0308edae3e23991,610368a738a3fada71e272b2,2021-07-29_22h49.53.224,Simcolourproject_2stim_asymm_v5,2020.2.10,MacIntel,60,61025ae37ef11b136ea224fe,,,,,,,,,2654,67.76171875,28.45703125,1,0,0,response1disk,,6,13.6328125,-3.1015625,1,0,0,rectangle,13.6328125,-3.1015625,1,0,0,13.6328125,-3.1015625,1,0,0,0,77,77,28,1,,,,,,,,
,,,,,,,,,,,,,FF,,,,,,,,0.6995,,,,,,,,,,,,,,,,,,,,,,60fd9e57a0308edae3e23991,610368a738a3fada71e272b2,2021-07-29_22h49.53.224,Simcolourproject_2stim_asymm_v5,2020.2.10,MacIntel,60,61025ae37ef11b136ea224fe,,,,,,,,,1616,37.94140625,76.72265625,1,0,0,response1disk,,7,15.71875,7.96875,1,0,0,rectangle,15.71875,7.96875,1,0,0,15.71875,7.96875,1,0,0,0,78,78,43,1,,,,,,,,
,,,,,,,,,,,,,FF,,,,,,,,1.2165,,,,,,,,,,,,,,,,,,,,,,60fd9e57a0308edae3e23991,610368a738a3fada71e272b2,2021-07-29_22h49.53.224,Simcolourproject_2stim_asymm_v5,2020.2.10,MacIntel,60,61025ae37ef11b136ea224fe,,,,,,,,,4326,-55.7734375,90.61328125,1,0,0,response7disk,,0,4.6484375,1.37109375,1,0,0,rectangle,4.6484375,1.37109375,1,0,0,4.6484375,1.37109375,1,0,0,0,79,79,124,1,,,,,,,,
,,,,,,,,,,,,,FF,,,,,,,,0.816,,,,,,,,,,,,,,,,,,,,,,60fd9e57a0308edae3e23991,610368a738a3fada71e272b2,2021-07-29_22h49.53.224,Simcolourproject_2stim_asymm_v5,2020.2.10,MacIntel,60,61025ae37ef11b136ea224fe,,,,,,,,,846,46.31640625,76.640625,1,0,0,response1disk,,7,17.5390625,4.49609375,1,0,0,rectangle,17.5390625,4.49609375,1,0,0,17.5390625,4.49609375,1,0,0,0,80,80,79,1,,,,,,,,
,,,,,,,,,,,,,FF,,,,,,,,0.801,,,,,,,,,,,,,,,,,,,,,,60fd9e57a0308edae3e23991,610368a738a3fada71e272b2,2021-07-29_22h49.53.224,Simcolourproject_2stim_asymm_v5,2020.2.10,MacIntel,60,61025ae37ef11b136ea224fe,,,,,,,,,378,33.859375,64.140625,1,0,0,response1disk,,7,26.21875,-4.796875,1,0,0,rectangle,26.21875,-4.796875,1,0,0,26.21875,-4.796875,1,0,0,0,81,81,72,1,,,,,,,,
,,,,,,,,,,,,,FF,,,,,,,,0.6169,,,,,,,,,,,,,,,,,,,,,,60fd9e57a0308edae3e23991,610368a738a3fada71e272b2,2021-07-29_22h49.53.224,Simcolourproject_2stim_asymm_v5,2020.2.10,MacIntel,60,61025ae37ef11b136ea224fe,,,,,,,,,1068,40.109375,77.41796875,1,0,0,response1disk,,7,13.80078125,3.2734375,1,0,0,rectangle,13.80078125,3.2734375,1,0,0,13.80078125,3.2734375,1,0,0,0,82,82,59,1,,,,,,,,
,,,,,,,,,,,,,FF,,,,,,,,1.2668,,,,,,,,,,,,,,,,,,,,,,60fd9e57a0308edae3e23991,610368a738a3fada71e272b2,2021-07-29_22h49.53.224,Simcolourproject_2stim_asymm_v5,2020.2.10,MacIntel,60,61025ae37ef11b136ea224fe,,,,,,,,,3967,-61.46875,-42.5625,1,0,0,response5disk,,2,2.3828125,-7.87890625,1,0,0,rectangle,2.3828125,-7.87890625,1,0,0,2.3828125,-7.87890625,1,0,0,0,83,83,68,1,,,,,,,,
,,,,,,,,,,,,,FF,,,,,,,,0.717,,,,,,,,,,,,,,,,,,,,,,60fd9e57a0308edae3e23991,610368a738a3fada71e272b2,2021-07-29_22h49.53.224,Simcolourproject_2stim_asymm_v5,2020.2.10,MacIntel,60,61025ae37ef11b136ea224fe,,,,,,,,,1398,46.484375,84.75390625,1,0,0,response1disk,,7,13.5390625,8.26171875,1,0,0,rectangle,13.5390625,8.26171875,1,0,0,13.5390625,8.26171875,1,0,0,0,84,84,139,1,,,,,,,,
,,,,,,,,,,,,,FF,,,,,,,,1.499,,,,,,,,,,,,,,,,,,,,,,60fd9e57a0308edae3e23991,610368a738a3fada71e272b2,2021-07-29_22h49.53.224,Simcolourproject_2stim_asymm_v5,2020.2.10,MacIntel,60,61025ae37ef11b136ea224fe,,,,,,,,,2999,-48.49609375,-78.42578125,1,0,0,response5disk,,3,-16.9375,4.44140625,1,0,0,rectangle,-16.9375,4.44140625,1,0,0,-16.9375,4.44140625,1,0,0,0,85,85,17,1,,,,,,,,
,,,,,,,,,,,,,FF,,,,,,,,0.6323,,,,,,,,,,,,,,,,,,,,,,60fd9e57a0308edae3e23991,610368a738a3fada71e272b2,2021-07-29_22h49.53.224,Simcolourproject_2stim_asymm_v5,2020.2.10,MacIntel,60,61025ae37ef11b136ea224fe,,,,,,,,,2344,34.80078125,94.2109375,1,0,0,response1disk,,7,3.8984375,7.56640625,1,0,0,rectangle,69.1796875,34.3046875,1,0,0,-3.26953125,-10.796875,1,0,0,0,86,86,75,1,,response1disk_3,TRUE,6,6,"[18,138,318,48,177,64,87,282,242,68,226,273,165,221,13,21,5,170,244,130]",2.6488,rectangle
,,,,,,,,,,,,,FF,,,,,,,,1.7017,,,,,,,,,,,,,,,,,,,,,,60fd9e57a0308edae3e23991,610368a738a3fada71e272b2,2021-07-29_22h49.53.224,Simcolourproject_2stim_asymm_v5,2020.2.10,MacIntel,60,61025ae37ef11b136ea224fe,,,,,,,,,1971,55.375,-66.703125,1,0,0,response3disk,,4,23.12109375,-9.796875,1,0,0,rectangle,23.12109375,-9.796875,1,0,0,23.12109375,-9.796875,1,0,0,0,87,87,48,1,,,,,,,,
,,,,,,,,,,,,,FF,,,,,,,,1.7159,,,,,,,,,,,,,,,,,,,,,,60fd9e57a0308edae3e23991,610368a738a3fada71e272b2,2021-07-29_22h49.53.224,Simcolourproject_2stim_asymm_v5,2020.2.10,MacIntel,60,61025ae37ef11b136ea224fe,,,,,,,,,3012,68.1796875,41.984375,1,0,0,response1disk,,6,20.30078125,-6.5859375,1,0,0,rectangle,20.30078125,-6.5859375,1,0,0,20.30078125,-6.5859375,1,0,0,0,88,88,35,1,,,,,,,,
,,,,,,,,,,,,,FF,,,,,,,,0.6669,,,,,,,,,,,,,,,,,,,,,,60fd9e57a0308edae3e23991,610368a738a3fada71e272b2,2021-07-29_22h49.53.224,Simcolourproject_2stim_asymm_v5,2020.2.10,MacIntel,60,61025ae37ef11b136ea224fe,,,,,,,,,867,33.84375,55.83203125,1,0,0,response1disk,,7,6.7578125,-9.7109375,1,0,0,rectangle,6.7578125,-9.7109375,1,0,0,6.7578125,-9.7109375,1,0,0,0,89,89,136,1,,,,,,,,
,,,,,,,,,,,,,FF,,,,,,,,0.6986,,,,,,,,,,,,,,,,,,,,,,60fd9e57a0308edae3e23991,610368a738a3fada71e272b2,2021-07-29_22h49.53.224,Simcolourproject_2stim_asymm_v5,2020.2.10,MacIntel,60,61025ae37ef11b136ea224fe,,,,,,,,,3416,38.70703125,98.50390625,1,0,0,response1disk,,7,7.1484375,-0.7265625,1,0,0,rectangle,7.1484375,-0.7265625,1,0,0,7.1484375,-0.7265625,1,0,0,0,90,90,27,1,,,,,,,,
,,,,,,,,,,,,,FF,,,,,,,,0.9995,,,,,,,,,,,,,,,,,,,,,,60fd9e57a0308edae3e23991,610368a738a3fada71e272b2,2021-07-29_22h49.53.224,Simcolourproject_2stim_asymm_v5,2020.2.10,MacIntel,60,61025ae37ef11b136ea224fe,,,,,,,,,3104,92.79296875,34,1,0,0,response1disk,,6,23.7734375,0.6640625,1,0,0,rectangle,23.7734375,0.6640625,1,0,0,23.7734375,0.6640625,1,0,0,0,91,91,49,1,,,,,,,,
,,,,,,,,,,,,,FF,,,,,,,,1.0671,,,,,,,,,,,,,,,,,,,,,,60fd9e57a0308edae3e23991,610368a738a3fada71e272b2,2021-07-29_22h49.53.224,Simcolourproject_2stim_asymm_v5,2020.2.10,MacIntel,60,61025ae37ef11b136ea224fe,,,,,,,,,1131,-42.1171875,61.77734375,1,0,0,response7disk,,0,-7.39453125,9.734375,1,0,0,rectangle,-7.39453125,9.734375,1,0,0,-7.39453125,9.734375,1,0,0,0,92,92,82,1,,,,,,,,
,,,,,,,,,,,,,FF,,,,,,,,0.7498,,,,,,,,,,,,,,,,,,,,,,60fd9e57a0308edae3e23991,610368a738a3fada71e272b2,2021-07-29_22h49.53.224,Simcolourproject_2stim_asymm_v5,2020.2.10,MacIntel,60,61025ae37ef11b136ea224fe,,,,,,,,,138,43.87109375,85.30859375,1,0,0,response1disk,,7,0.46875,11.4296875,1,0,0,rectangle,0.46875,11.4296875,1,0,0,0.46875,11.4296875,1,0,0,0,93,93,149,1,,,,,,,,
,,,,,,,,,,,,,FF,,,,,,,,0.7498,,,,,,,,,,,,,,,,,,,,,,60fd9e57a0308edae3e23991,610368a738a3fada71e272b2,2021-07-29_22h49.53.224,Simcolourproject_2stim_asymm_v5,2020.2.10,MacIntel,60,61025ae37ef11b136ea224fe,,,,,,,,,3318,39.01171875,87.43359375,1,0,0,response1disk,,7,13.6640625,8.0390625,1,0,0,rectangle,13.6640625,8.0390625,1,0,0,13.6640625,8.0390625,1,0,0,0,94,94,150,1,,,,,,,,
,,,,,,,,,,,,,FF,,,,,,,,0.7154,,,,,,,,,,,,,,,,,,,,,,60fd9e57a0308edae3e23991,610368a738a3fada71e272b2,2021-07-29_22h49.53.224,Simcolourproject_2stim_asymm_v5,2020.2.10,MacIntel,60,61025ae37ef11b136ea224fe,,,,,,,,,183,49.4296875,92.3359375,1,0,0,response1disk,,7,15.3984375,-0.9453125,1,0,0,rectangle,15.3984375,-0.9453125,1,0,0,15.3984375,-0.9453125,1,0,0,0,95,95,32,1,,,,,,,,
,,,,,,,,,,,,,FF,,,,,,,,1.0997,,,,,,,,,,,,,,,,,,,,,,60fd9e57a0308edae3e23991,610368a738a3fada71e272b2,2021-07-29_22h49.53.224,Simcolourproject_2stim_asymm_v5,2020.2.10,MacIntel,60,61025ae37ef11b136ea224fe,,,,,,,,,3059,31.328125,82.30859375,1,0,0,response1disk,,7,1.85546875,-17.26953125,1,0,0,rectangle,1.85546875,-17.26953125,1,0,0,1.85546875,-17.26953125,1,0,0,0,96,96,142,1,,,,,,,,
,,,,,,,,,,,,,FF,,,,,,,,0.601,,,,,,,,,,,,,,,,,,,,,,60fd9e57a0308edae3e23991,610368a738a3fada71e272b2,2021-07-29_22h49.53.224,Simcolourproject_2stim_asymm_v5,2020.2.10,MacIntel,60,61025ae37ef11b136ea224fe,,,,,,,,,2259,35.19140625,76.8359375,1,0,0,response1disk,,7,9.49609375,-1.515625,1,0,0,rectangle,9.49609375,-1.515625,1,0,0,9.49609375,-1.515625,1,0,0,0,97,97,121,1,,,,,,,,
,,,,,,,,,,,,,FF,,,,,,,,0.6507,,,,,,,,,,,,,,,,,,,,,,60fd9e57a0308edae3e23991,610368a738a3fada71e272b2,2021-07-29_22h49.53.224,Simcolourproject_2stim_asymm_v5,2020.2.10,MacIntel,60,61025ae37ef11b136ea224fe,,,,,,,,,17,54.984375,119.3242188,1,0,0,response1disk,,7,-5.00390625,-1.86328125,1,0,0,rectangle,-5.00390625,-1.86328125,1,0,0,-5.00390625,-1.86328125,1,0,0,0,98,98,138,1,,,,,,,,
,,,,,,,,,,,,,FF,,,,,,,,0.7321,,,,,,,,,,,,,,,,,,,,,,60fd9e57a0308edae3e23991,610368a738a3fada71e272b2,2021-07-29_22h49.53.224,Simcolourproject_2stim_asymm_v5,2020.2.10,MacIntel,60,61025ae37ef11b136ea224fe,,,,,,,,,2636,41.13671875,59.25,1,0,0,response1disk,,7,15.44140625,5.12109375,1,0,0,rectangle,15.44140625,5.12109375,1,0,0,15.44140625,5.12109375,1,0,0,0,99,99,85,1,,,,,,,,
,,,,,,,,,,,,,FF,,,,,,,,1.4827,,,,,,,,,,,,,,,,,,,,,,60fd9e57a0308edae3e23991,610368a738a3fada71e272b2,2021-07-29_22h49.53.224,Simcolourproject_2stim_asymm_v5,2020.2.10,MacIntel,60,61025ae37ef11b136ea224fe,,,,,,,,,3202,82.02734375,29.77734375,1,0,0,response1disk,,6,23.42578125,5.12109375,1,0,0,rectangle,23.42578125,5.12109375,1,0,0,23.42578125,5.12109375,1,0,0,0,100,100,81,1,,,,,,,,
,,,,,,,,,,,,,FF,,,,,,,,1.0332,,,,,,,,,,,,,,,,,,,,,,60fd9e57a0308edae3e23991,610368a738a3fada71e272b2,2021-07-29_22h49.53.224,Simcolourproject_2stim_asymm_v5,2020.2.10,MacIntel,60,61025ae37ef11b136ea224fe,,,,,,,,,4086,36.96875,56.0859375,1,0,0,response1disk,,7,8.5390625,-4.6015625,1,0,0,rectangle,8.5390625,-4.6015625,1,0,0,8.5390625,-4.6015625,1,0,0,0,101,101,88,1,,,,,,,,
,,,,,,,,,,,,,FF,,,,,,,,1.0832,,,,,,,,,,,,,,,,,,,,,,60fd9e57a0308edae3e23991,610368a738a3fada71e272b2,2021-07-29_22h49.53.224,Simcolourproject_2stim_asymm_v5,2020.2.10,MacIntel,60,61025ae37ef11b136ea224fe,,,,,,,,,2963,49.77734375,84.29296875,1,0,0,response1disk,,7,13.31640625,4.5546875,1,0,0,rectangle,13.31640625,4.5546875,1,0,0,13.31640625,4.5546875,1,0,0,0,102,102,38,1,,,,,,,,
,,,,,,,,,,,,,FF,,,,,,,,0.9667,,,,,,,,,,,,,,,,,,,,,,60fd9e57a0308edae3e23991,610368a738a3fada71e272b2,2021-07-29_22h49.53.224,Simcolourproject_2stim_asymm_v5,2020.2.10,MacIntel,60,61025ae37ef11b136ea224fe,,,,,,,,,2711,32.06640625,71.18359375,1,0,0,response1disk,,7,14.05078125,-1.6953125,1,0,0,rectangle,14.05078125,-1.6953125,1,0,0,14.05078125,-1.6953125,1,0,0,0,103,103,12,1,,,,,,,,
,,,,,,,,,,,,,FF,,,,,,,,0.8997,,,,,,,,,,,,,,,,,,,,,,60fd9e57a0308edae3e23991,610368a738a3fada71e272b2,2021-07-29_22h49.53.224,Simcolourproject_2stim_asymm_v5,2020.2.10,MacIntel,60,61025ae37ef11b136ea224fe,,,,,,,,,3146,-33.78515625,63.5859375,1,0,0,response7disk,,0,-7.78515625,8.5,1,0,0,rectangle,-7.78515625,8.5,1,0,0,-7.78515625,8.5,1,0,0,0,104,104,54,1,,,,,,,,
,,,,,,,,,,,,,FF,,,,,,,,0.6659,,,,,,,,,,,,,,,,,,,,,,60fd9e57a0308edae3e23991,610368a738a3fada71e272b2,2021-07-29_22h49.53.224,Simcolourproject_2stim_asymm_v5,2020.2.10,MacIntel,60,61025ae37ef11b136ea224fe,,,,,,,,,513,26.59375,91.44921875,1,0,0,response1disk,,7,13.74609375,4.71875,1,0,0,rectangle,13.74609375,4.71875,1,0,0,13.74609375,4.71875,1,0,0,0,105,105,77,1,,,,,,,,
,,,,,,,,,,,,,FF,,,,,,,,0.6845,,,,,,,,,,,,,,,,,,,,,,60fd9e57a0308edae3e23991,610368a738a3fada71e272b2,2021-07-29_22h49.53.224,Simcolourproject_2stim_asymm_v5,2020.2.10,MacIntel,60,61025ae37ef11b136ea224fe,,,,,,,,,3985,27.2890625,61.5859375,1,0,0,response1disk,,7,11.31640625,6.19140625,1,0,0,rectangle,11.31640625,6.19140625,1,0,0,11.31640625,6.19140625,1,0,0,0,106,106,145,1,,,,,,,,
,,,,,,,,,,,,,FF,,,,,,,,0.6664,,,,,,,,,,,,,,,,,,,,,,60fd9e57a0308edae3e23991,610368a738a3fada71e272b2,2021-07-29_22h49.53.224,Simcolourproject_2stim_asymm_v5,2020.2.10,MacIntel,60,61025ae37ef11b136ea224fe,,,,,,,,,4122,32.1484375,71.8203125,1,0,0,response1disk,,7,15.48046875,-4.53125,1,0,0,rectangle,15.48046875,-4.53125,1,0,0,15.48046875,-4.53125,1,0,0,0,107,107,26,1,,,,,,,,
,,,,,,,,,,,,,FF,,,,,,,,1.6496,,,,,,,,,,,,,,,,,,,,,,60fd9e57a0308edae3e23991,610368a738a3fada71e272b2,2021-07-29_22h49.53.224,Simcolourproject_2stim_asymm_v5,2020.2.10,MacIntel,60,61025ae37ef11b136ea224fe,,,,,,,,,1524,50.5546875,63.79296875,1,0,0,response1disk,,7,14.5234375,-0.23828125,1,0,0,rectangle,14.5234375,-0.23828125,1,0,0,14.5234375,-0.23828125,1,0,0,0,108,108,18,1,,,,,,,,
,,,,,,,,,,,,,FF,,,,,,,,0.6834,,,,,,,,,,,,,,,,,,,,,,60fd9e57a0308edae3e23991,610368a738a3fada71e272b2,2021-07-29_22h49.53.224,Simcolourproject_2stim_asymm_v5,2020.2.10,MacIntel,60,61025ae37ef11b136ea224fe,,,,,,,,,842,40.56640625,91.39453125,1,0,0,response1disk,,7,11.74609375,14.16796875,1,0,0,rectangle,11.74609375,14.16796875,1,0,0,11.74609375,14.16796875,1,0,0,0,109,109,65,1,,,,,,,,
,,,,,,,,,,,,,FF,,,,,,,,0.5988,,,,,,,,,,,,,,,,,,,,,,60fd9e57a0308edae3e23991,610368a738a3fada71e272b2,2021-07-29_22h49.53.224,Simcolourproject_2stim_asymm_v5,2020.2.10,MacIntel,60,61025ae37ef11b136ea224fe,,,,,,,,,3484,52.71875,102.671875,1,0,0,response1disk,,7,27.76171875,3.1796875,1,0,0,rectangle,27.76171875,3.1796875,1,0,0,27.76171875,3.1796875,1,0,0,0,110,110,22,1,,,,,,,,
,,,,,,,,,,,,,FF,,,,,,,,0.6516,,,,,,,,,,,,,,,,,,,,,,60fd9e57a0308edae3e23991,610368a738a3fada71e272b2,2021-07-29_22h49.53.224,Simcolourproject_2stim_asymm_v5,2020.2.10,MacIntel,60,61025ae37ef11b136ea224fe,,,,,,,,,2788,33.6640625,78.40625,1,0,0,response1disk,,7,-3.4921875,-14.65625,1,0,0,rectangle,-3.4921875,-14.65625,1,0,0,-3.4921875,-14.65625,1,0,0,0,111,111,140,1,,,,,,,,
,,,,,,,,,,,,,FF,,,,,,,,0.5997,,,,,,,,,,,,,,,,,,,,,,60fd9e57a0308edae3e23991,610368a738a3fada71e272b2,2021-07-29_22h49.53.224,Simcolourproject_2stim_asymm_v5,2020.2.10,MacIntel,60,61025ae37ef11b136ea224fe,,,,,,,,,2056,25.328125,51.23828125,1,0,0,response1disk,,7,16.30078125,-1.4609375,1,0,0,rectangle,16.30078125,-1.4609375,1,0,0,16.30078125,-1.4609375,1,0,0,0,112,112,64,1,,,,,,,,
,,,,,,,,,,,,,FF,,,,,,,,0.6325,,,,,,,,,,,,,,,,,,,,,,60fd9e57a0308edae3e23991,610368a738a3fada71e272b2,2021-07-29_22h49.53.224,Simcolourproject_2stim_asymm_v5,2020.2.10,MacIntel,60,61025ae37ef11b136ea224fe,,,,,,,,,3123,34.01171875,69.3359375,1,0,0,response1disk,,7,15.30078125,3.09765625,1,0,0,rectangle,15.30078125,3.09765625,1,0,0,15.30078125,3.09765625,1,0,0,0,113,113,16,1,,,,,,,,
,,,,,,,,,,,,,FF,,,,,,,,0.9319,,,,,,,,,,,,,,,,,,,,,,60fd9e57a0308edae3e23991,610368a738a3fada71e272b2,2021-07-29_22h49.53.224,Simcolourproject_2stim_asymm_v5,2020.2.10,MacIntel,60,61025ae37ef11b136ea224fe,,,,,,,,,3038,71.125,36.4296875,1,0,0,response1disk,,6,20.1640625,2.75,1,0,0,rectangle,20.1640625,2.75,1,0,0,20.1640625,2.75,1,0,0,0,114,114,105,1,,,,,,,,
,,,,,,,,,,,,,FF,,,,,,,,1.4655,,,,,,,,,,,,,,,,,,,,,,60fd9e57a0308edae3e23991,610368a738a3fada71e272b2,2021-07-29_22h49.53.224,Simcolourproject_2stim_asymm_v5,2020.2.10,MacIntel,60,61025ae37ef11b136ea224fe,,,,,,,,,1682,43.0390625,-87.83984375,1,0,0,response3disk,,4,5.23046875,-2.11328125,1,0,0,rectangle,5.23046875,-2.11328125,1,0,0,5.23046875,-2.11328125,1,0,0,0,115,115,51,1,,,,,,,,
,,,,,,,,,,,,,FF,,,,,,,,0.7503,,,,,,,,,,,,,,,,,,,,,,60fd9e57a0308edae3e23991,610368a738a3fada71e272b2,2021-07-29_22h49.53.224,Simcolourproject_2stim_asymm_v5,2020.2.10,MacIntel,60,61025ae37ef11b136ea224fe,,,,,,,,,1979,29.88671875,57.09765625,1,0,0,response1disk,,7,16.0390625,1.6640625,1,0,0,rectangle,16.0390625,1.6640625,1,0,0,16.0390625,1.6640625,1,0,0,0,116,116,152,1,,,,,,,,
,,,,,,,,,,,,,FF,,,,,,,,0.7656,,,,,,,,,,,,,,,,,,,,,,60fd9e57a0308edae3e23991,610368a738a3fada71e272b2,2021-07-29_22h49.53.224,Simcolourproject_2stim_asymm_v5,2020.2.10,MacIntel,60,61025ae37ef11b136ea224fe,,,,,,,,,3886,31.6640625,77.671875,1,0,0,response1disk,,7,6.6640625,7.3046875,1,0,0,rectangle,6.6640625,7.3046875,1,0,0,6.6640625,7.3046875,1,0,0,0,117,117,118,1,,,,,,,,
,,,,,,,,,,,,,FF,,,,,,,,0.8002,,,,,,,,,,,,,,,,,,,,,,60fd9e57a0308edae3e23991,610368a738a3fada71e272b2,2021-07-29_22h49.53.224,Simcolourproject_2stim_asymm_v5,2020.2.10,MacIntel,60,61025ae37ef11b136ea224fe,,,,,,,,,1945,34.7890625,68.37890625,1,0,0,response1disk,,7,14.99609375,8.51171875,1,0,0,rectangle,14.99609375,8.51171875,1,0,0,14.99609375,8.51171875,1,0,0,0,118,118,53,1,,,,,,,,
,,,,,,,,,,,,,FF,,,,,,,,0.581,,,,,,,,,,,,,,,,,,,,,,60fd9e57a0308edae3e23991,610368a738a3fada71e272b2,2021-07-29_22h49.53.224,Simcolourproject_2stim_asymm_v5,2020.2.10,MacIntel,60,61025ae37ef11b136ea224fe,,,,,,,,,552,43.12109375,79.26953125,1,0,0,response1disk,,7,15.69140625,10.6796875,1,0,0,rectangle,15.69140625,10.6796875,1,0,0,15.69140625,10.6796875,1,0,0,0,119,119,42,1,,,,,,,,
,,,,,,,,,,,,,FF,,,,,,,,0.7827,,,,,,,,,,,,,,,,,,,,,,60fd9e57a0308edae3e23991,610368a738a3fada71e272b2,2021-07-29_22h49.53.224,Simcolourproject_2stim_asymm_v5,2020.2.10,MacIntel,60,61025ae37ef11b136ea224fe,,,,,,,,,2875,32.01171875,60.98828125,1,0,0,response1disk,,7,7.0078125,-2.125,1,0,0,rectangle,7.0078125,-2.125,1,0,0,7.0078125,-2.125,1,0,0,0,120,120,45,1,,,,,,,,
,,,,,,,,,,,,,FF,,,,,,,,1.4325,,,,,,,,,,,,,,,,,,,,,,60fd9e57a0308edae3e23991,610368a738a3fada71e272b2,2021-07-29_22h49.53.224,Simcolourproject_2stim_asymm_v5,2020.2.10,MacIntel,60,61025ae37ef11b136ea224fe,,,,,,,,,4318,63.7890625,43.05859375,1,0,0,response1disk,,6,25.67578125,10.45703125,1,0,0,rectangle,25.67578125,10.45703125,1,0,0,25.67578125,10.45703125,1,0,0,0,121,121,157,1,,,,,,,,
,,,,,,,,,,,,,FF,,,,,,,,0.7512,,,,,,,,,,,,,,,,,,,,,,60fd9e57a0308edae3e23991,610368a738a3fada71e272b2,2021-07-29_22h49.53.224,Simcolourproject_2stim_asymm_v5,2020.2.10,MacIntel,60,61025ae37ef11b136ea224fe,,,,,,,,,4233,29.1484375,95.83984375,1,0,0,response1disk,,7,12.48046875,16.140625,1,0,0,rectangle,12.48046875,16.140625,1,0,0,12.48046875,16.140625,1,0,0,0,122,122,158,1,,,,,,,,
,,,,,,,,,,,,,FF,,,,,,,,0.616,,,,,,,,,,,,,,,,,,,,,,60fd9e57a0308edae3e23991,610368a738a3fada71e272b2,2021-07-29_22h49.53.224,Simcolourproject_2stim_asymm_v5,2020.2.10,MacIntel,60,61025ae37ef11b136ea224fe,,,,,,,,,974,29.1484375,66.40625,1,0,0,response1disk,,7,3.49609375,0.5546875,1,0,0,rectangle,3.49609375,0.5546875,1,0,0,3.49609375,0.5546875,1,0,0,0,123,123,99,1,,,,,,,,
,,,,,,,,,,,,,FF,,,,,,,,0.7504,,,,,,,,,,,,,,,,,,,,,,60fd9e57a0308edae3e23991,610368a738a3fada71e272b2,2021-07-29_22h49.53.224,Simcolourproject_2stim_asymm_v5,2020.2.10,MacIntel,60,61025ae37ef11b136ea224fe,,,,,,,,,1481,31.2734375,65.40625,1,0,0,response1disk,,7,17.38671875,10.70703125,1,0,0,rectangle,17.38671875,10.70703125,1,0,0,17.38671875,10.70703125,1,0,0,0,124,124,156,1,,,,,,,,
,,,,,,,,,,,,,FF,,,,,,,,0.7667,,,,,,,,,,,,,,,,,,,,,,60fd9e57a0308edae3e23991,610368a738a3fada71e272b2,2021-07-29_22h49.53.224,Simcolourproject_2stim_asymm_v5,2020.2.10,MacIntel,60,61025ae37ef11b136ea224fe,,,,,,,,,1412,35.7890625,81.46484375,1,0,0,response1disk,,7,9.05078125,0.984375,1,0,0,rectangle,9.05078125,0.984375,1,0,0,9.05078125,0.984375,1,0,0,0,125,125,47,1,,,,,,,,
,,,,,,,,,,,,,FF,,,,,,,,0.7003,,,,,,,,,,,,,,,,,,,,,,60fd9e57a0308edae3e23991,610368a738a3fada71e272b2,2021-07-29_22h49.53.224,Simcolourproject_2stim_asymm_v5,2020.2.10,MacIntel,60,61025ae37ef11b136ea224fe,,,,,,,,,675,23.2890625,52.3359375,1,0,0,response1disk,,7,5.92578125,0.984375,1,0,0,rectangle,5.92578125,0.984375,1,0,0,5.92578125,0.984375,1,0,0,0,126,126,46,1,,,,,,,,
,,,,,,,,,,,,,FF,,,,,,,,0.618,,,,,,,,,,,,,,,,,,,,,,60fd9e57a0308edae3e23991,610368a738a3fada71e272b2,2021-07-29_22h49.53.224,Simcolourproject_2stim_asymm_v5,2020.2.10,MacIntel,60,61025ae37ef11b136ea224fe,,,,,,,,,454,34.0546875,65.48828125,1,0,0,response1disk,,7,17.0390625,-3.91796875,1,0,0,rectangle,17.0390625,-3.91796875,1,0,0,17.0390625,-3.91796875,1,0,0,0,127,127,151,1,,,,,,,,
,,,,,,,,,,,,,FF,,,,,,,,0.7335,,,,,,,,,,,,,,,,,,,,,,60fd9e57a0308edae3e23991,610368a738a3fada71e272b2,2021-07-29_22h49.53.224,Simcolourproject_2stim_asymm_v5,2020.2.10,MacIntel,60,61025ae37ef11b136ea224fe,,,,,,,,,2860,29.19140625,68.61328125,1,0,0,response1disk,,7,1.41015625,-10.16796875,1,0,0,rectangle,1.41015625,-10.16796875,1,0,0,1.41015625,-10.16796875,1,0,0,0,128,128,60,1,,,,,,,,
,,,,,,,,,,,,,FF,,,,,,,,0.8012,,,,,,,,,,,,,,,,,,,,,,60fd9e57a0308edae3e23991,610368a738a3fada71e272b2,2021-07-29_22h49.53.224,Simcolourproject_2stim_asymm_v5,2020.2.10,MacIntel,60,61025ae37ef11b136ea224fe,,,,,,,,,3299,25.0234375,54.68359375,1,0,0,response1disk,,7,7.35546875,3.41796875,1,0,0,rectangle,-83.84375,-34.12890625,1,0,0,9.7890625,-0.83203125,1,0,0,0,129,129,144,1,,response5disk_3,TRUE,2,2,"[18,138,318,48,177,64,87,282,242,68,226,273,165,221,13,21,5,170,244,130]",2.0154,rectangle
,,,,,,,,,,,,,FF,,,,,,,,1.8336,,,,,,,,,,,,,,,,,,,,,,60fd9e57a0308edae3e23991,610368a738a3fada71e272b2,2021-07-29_22h49.53.224,Simcolourproject_2stim_asymm_v5,2020.2.10,MacIntel,60,61025ae37ef11b136ea224fe,,,,,,,,,3246,38.21875,-79.921875,1,0,0,response3disk,,4,16.34375,-6.73828125,1,0,0,rectangle,16.34375,-6.73828125,1,0,0,16.34375,-6.73828125,1,0,0,0,130,130,94,1,,,,,,,,
,,,,,,,,,,,,,FF,,,,,,,,0.9005,,,,,,,,,,,,,,,,,,,,,,60fd9e57a0308edae3e23991,610368a738a3fada71e272b2,2021-07-29_22h49.53.224,Simcolourproject_2stim_asymm_v5,2020.2.10,MacIntel,60,61025ae37ef11b136ea224fe,,,,,,,,,2801,19.12109375,45.65625,1,0,0,response1disk,,7,-3.796875,-1.140625,1,0,0,rectangle,-3.796875,-1.140625,1,0,0,-3.796875,-1.140625,1,0,0,0,131,131,14,1,,,,,,,,
,,,,,,,,,,,,,FF,,,,,,,,0.6326,,,,,,,,,,,,,,,,,,,,,,60fd9e57a0308edae3e23991,610368a738a3fada71e272b2,2021-07-29_22h49.53.224,Simcolourproject_2stim_asymm_v5,2020.2.10,MacIntel,60,61025ae37ef11b136ea224fe,,,,,,,,,2928,22.24609375,83.2421875,1,0,0,response1disk,,7,5.96875,8.0546875,1,0,0,rectangle,5.96875,8.0546875,1,0,0,5.96875,8.0546875,1,0,0,0,132,132,159,1,,,,,,,,
,,,,,,,,,,,,,FF,,,,,,,,0.7834,,,,,,,,,,,,,,,,,,,,,,60fd9e57a0308edae3e23991,610368a738a3fada71e272b2,2021-07-29_22h49.53.224,Simcolourproject_2stim_asymm_v5,2020.2.10,MacIntel,60,61025ae37ef11b136ea224fe,,,,,,,,,4005,57.70703125,72.25390625,1,0,0,response1disk,,7,27.92578125,6.66796875,1,0,0,rectangle,27.92578125,6.66796875,1,0,0,27.92578125,6.66796875,1,0,0,0,133,133,57,1,,,,,,,,
,,,,,,,,,,,,,FF,,,,,,,,0.7519,,,,,,,,,,,,,,,,,,,,,,60fd9e57a0308edae3e23991,610368a738a3fada71e272b2,2021-07-29_22h49.53.224,Simcolourproject_2stim_asymm_v5,2020.2.10,MacIntel,60,61025ae37ef11b136ea224fe,,,,,,,,,1767,36.26171875,71.51953125,1,0,0,response1disk,,7,4.35546875,-2.4453125,1,0,0,rectangle,4.35546875,-2.4453125,1,0,0,4.35546875,-2.4453125,1,0,0,0,134,134,55,1,,,,,,,,
,,,,,,,,,,,,,FF,,,,,,,,0.7164,,,,,,,,,,,,,,,,,,,,,,60fd9e57a0308edae3e23991,610368a738a3fada71e272b2,2021-07-29_22h49.53.224,Simcolourproject_2stim_asymm_v5,2020.2.10,MacIntel,60,61025ae37ef11b136ea224fe,,,,,,,,,3379,25.5390625,58.62890625,1,0,0,response1disk,,7,13.38671875,14.22265625,1,0,0,rectangle,13.38671875,14.22265625,1,0,0,13.38671875,14.22265625,1,0,0,0,135,135,74,1,,,,,,,,
,,,,,,,,,,,,,FF,,,,,,,,1.9163,,,,,,,,,,,,,,,,,,,,,,60fd9e57a0308edae3e23991,610368a738a3fada71e272b2,2021-07-29_22h49.53.224,Simcolourproject_2stim_asymm_v5,2020.2.10,MacIntel,60,61025ae37ef11b136ea224fe,,,,,,,,,72,42.90234375,-79.40625,1,0,0,response3disk,,4,14.8984375,9.140625,1,0,0,rectangle,14.8984375,9.140625,1,0,0,14.8984375,9.140625,1,0,0,0,136,136,132,1,,,,,,,,
,,,,,,,,,,,,,FF,,,,,,,,0.6838,,,,,,,,,,,,,,,,,,,,,,60fd9e57a0308edae3e23991,610368a738a3fada71e272b2,2021-07-29_22h49.53.224,Simcolourproject_2stim_asymm_v5,2020.2.10,MacIntel,60,61025ae37ef11b136ea224fe,,,,,,,,,3527,42.6796875,66.046875,1,0,0,response1disk,,7,13.51171875,1.625,1,0,0,rectangle,-80.24609375,32.87890625,1,0,0,-16.82421875,-1.0703125,1,0,0,0,137,137,15,1,,response7disk_3,TRUE,1,1,"[18,138,318,48,177,64,87,282,242,68,226,273,165,221,13,21,5,170,244,130]",3.1853,rectangle
,,,,,,,,,,,,,FF,,,,,,,,1.2343,,,,,,,,,,,,,,,,,,,,,,60fd9e57a0308edae3e23991,610368a738a3fada71e272b2,2021-07-29_22h49.53.224,Simcolourproject_2stim_asymm_v5,2020.2.10,MacIntel,60,61025ae37ef11b136ea224fe,,,,,,,,,1,-22.7265625,-75.37890625,1,0,0,response5disk,,3,-11.96484375,9.9609375,1,0,0,rectangle,-11.96484375,9.9609375,1,0,0,-11.96484375,9.9609375,1,0,0,0,138,138,78,1,,,,,,,,
,,,,,,,,,,,,,FF,,,,,,,,1.15,,,,,,,,,,,,,,,,,,,,,,60fd9e57a0308edae3e23991,610368a738a3fada71e272b2,2021-07-29_22h49.53.224,Simcolourproject_2stim_asymm_v5,2020.2.10,MacIntel,60,61025ae37ef11b136ea224fe,,,,,,,,,3728,16.7734375,62.30859375,1,0,0,response1disk,,7,0.453125,-7.79296875,1,0,0,rectangle,0.453125,-7.79296875,1,0,0,0.453125,-7.79296875,1,0,0,0,139,139,70,1,,,,,,,,
,,,,,,,,,,,,,FF,,,,,,,,0.784,,,,,,,,,,,,,,,,,,,,,,60fd9e57a0308edae3e23991,610368a738a3fada71e272b2,2021-07-29_22h49.53.224,Simcolourproject_2stim_asymm_v5,2020.2.10,MacIntel,60,61025ae37ef11b136ea224fe,,,,,,,,,4354,24.4140625,50.80859375,1,0,0,response1disk,,7,12.26171875,4.3203125,1,0,0,rectangle,12.26171875,4.3203125,1,0,0,12.26171875,4.3203125,1,0,0,0,140,140,66,1,,,,,,,,
,,,,,,,,,,,,,FF,,,,,,,,0.6335,,,,,,,,,,,,,,,,,,,,,,60fd9e57a0308edae3e23991,610368a738a3fada71e272b2,2021-07-29_22h49.53.224,Simcolourproject_2stim_asymm_v5,2020.2.10,MacIntel,60,61025ae37ef11b136ea224fe,,,,,,,,,905,40.38671875,68.4765625,1,0,0,response1disk,,7,18.59375,13.515625,1,0,0,rectangle,18.59375,13.515625,1,0,0,18.59375,13.515625,1,0,0,0,141,141,129,1,,,,,,,,
,,,,,,,,,,,,,FF,,,,,,,,0.8656,,,,,,,,,,,,,,,,,,,,,,60fd9e57a0308edae3e23991,610368a738a3fada71e272b2,2021-07-29_22h49.53.224,Simcolourproject_2stim_asymm_v5,2020.2.10,MacIntel,60,61025ae37ef11b136ea224fe,,,,,,,,,2849,34.21875,61.43359375,1,0,0,response1disk,,7,8.5234375,-1.45703125,1,0,0,rectangle,8.5234375,-1.45703125,1,0,0,8.5234375,-1.45703125,1,0,0,0,142,142,141,1,,,,,,,,
,,,,,,,,,,,,,FF,,,,,,,,0.6169,,,,,,,,,,,,,,,,,,,,,,60fd9e57a0308edae3e23991,610368a738a3fada71e272b2,2021-07-29_22h49.53.224,Simcolourproject_2stim_asymm_v5,2020.2.10,MacIntel,60,61025ae37ef11b136ea224fe,,,,,,,,,3500,44.63671875,81.83984375,1,0,0,response1disk,,7,20.0234375,1.70703125,1,0,0,rectangle,20.0234375,1.70703125,1,0,0,20.0234375,1.70703125,1,0,0,0,143,143,137,1,,,,,,,,
,,,,,,,,,,,,,FF,,,,,,,,0.7988,,,,,,,,,,,,,,,,,,,,,,60fd9e57a0308edae3e23991,610368a738a3fada71e272b2,2021-07-29_22h49.53.224,Simcolourproject_2stim_asymm_v5,2020.2.10,MacIntel,60,61025ae37ef11b136ea224fe,,,,,,,,,4222,32.87109375,70.421875,1,0,0,response1disk,,7,9.69140625,4.61328125,1,0,0,rectangle,9.69140625,4.61328125,1,0,0,9.69140625,4.61328125,1,0,0,0,144,144,83,1,,,,,,,,
,,,,,,,,,,,,,FF,,,,,,,,0.7503,,,,,,,,,,,,,,,,,,,,,,60fd9e57a0308edae3e23991,610368a738a3fada71e272b2,2021-07-29_22h49.53.224,Simcolourproject_2stim_asymm_v5,2020.2.10,MacIntel,60,61025ae37ef11b136ea224fe,,,,,,,,,3119,35.34375,73.19921875,1,0,0,response1disk,,7,15.59375,10.98828125,1,0,0,rectangle,15.59375,10.98828125,1,0,0,15.59375,10.98828125,1,0,0,0,145,145,115,1,,,,,,,,
,,,,,,,,,,,,,FF,,,,,,,,0.6009,,,,,,,,,,,,,,,,,,,,,,60fd9e57a0308edae3e23991,610368a738a3fada71e272b2,2021-07-29_22h49.53.224,Simcolourproject_2stim_asymm_v5,2020.2.10,MacIntel,60,61025ae37ef11b136ea224fe,,,,,,,,,498,31.21875,70.9765625,1,0,0,response1disk,,7,10.7734375,4.0859375,1,0,0,rectangle,10.7734375,4.0859375,1,0,0,10.7734375,4.0859375,1,0,0,0,146,146,147,1,,,,,,,,
,,,,,,,,,,,,,FF,,,,,,,,0.5833,,,,,,,,,,,,,,,,,,,,,,60fd9e57a0308edae3e23991,610368a738a3fada71e272b2,2021-07-29_22h49.53.224,Simcolourproject_2stim_asymm_v5,2020.2.10,MacIntel,60,61025ae37ef11b136ea224fe,,,,,,,,,1859,27.7890625,58.55859375,1,0,0,response1disk,,7,13.94140625,7.3359375,1,0,0,rectangle,13.94140625,7.3359375,1,0,0,13.94140625,7.3359375,1,0,0,0,147,147,153,1,,,,,,,,
,,,,,,,,,,,,,FF,,,,,,,,1.3005,,,,,,,,,,,,,,,,,,,,,,60fd9e57a0308edae3e23991,610368a738a3fada71e272b2,2021-07-29_22h49.53.224,Simcolourproject_2stim_asymm_v5,2020.2.10,MacIntel,60,61025ae37ef11b136ea224fe,,,,,,,,,2174,82.61328125,28.8203125,1,0,0,response1disk,,6,11.859375,5.90234375,1,0,0,rectangle,11.859375,5.90234375,1,0,0,11.859375,5.90234375,1,0,0,0,148,148,19,1,,,,,,,,
,,,,,,,,,,,,,FF,,,,,,,,1.333,,,,,,,,,,,,,,,,,,,,,,60fd9e57a0308edae3e23991,610368a738a3fada71e272b2,2021-07-29_22h49.53.224,Simcolourproject_2stim_asymm_v5,2020.2.10,MacIntel,60,61025ae37ef11b136ea224fe,,,,,,,,,3338,77.70703125,-46.48828125,1,0,0,response3disk,,5,-8.1015625,3.5703125,1,0,0,rectangle,-8.1015625,3.5703125,1,0,0,-8.1015625,3.5703125,1,0,0,0,149,149,73,1,,,,,,,,
,,,,,,,,,,,,,FF,,,,,,,,1.0661,,,,,,,,,,,,,,,,,,,,,,60fd9e57a0308edae3e23991,610368a738a3fada71e272b2,2021-07-29_22h49.53.224,Simcolourproject_2stim_asymm_v5,2020.2.10,MacIntel,60,61025ae37ef11b136ea224fe,,,,,,,,,2714,21.4140625,65.64453125,1,0,0,response1disk,,7,5.09375,12.02734375,1,0,0,rectangle,5.09375,12.02734375,1,0,0,5.09375,12.02734375,1,0,0,0,150,150,120,1,,,,,,,,
,,,,,,,,,,,,,FF,,,,,,,,0.6825,,,,,,,,,,,,,,,,,,,,,,60fd9e57a0308edae3e23991,610368a738a3fada71e272b2,2021-07-29_22h49.53.224,Simcolourproject_2stim_asymm_v5,2020.2.10,MacIntel,60,61025ae37ef11b136ea224fe,,,,,,,,,3698,32.1796875,69.9765625,1,0,0,response1disk,,7,9.34375,3.390625,1,0,0,rectangle,9.34375,3.390625,1,0,0,9.34375,3.390625,1,0,0,0,151,151,24,1,,,,,,,,
,,,,,,,,,,,,,FF,,,,,,,,0.6001,,,,,,,,,,,,,,,,,,,,,,60fd9e57a0308edae3e23991,610368a738a3fada71e272b2,2021-07-29_22h49.53.224,Simcolourproject_2stim_asymm_v5,2020.2.10,MacIntel,60,61025ae37ef11b136ea224fe,,,,,,,,,758,34.6953125,58.171875,1,0,0,response1disk,,7,18.4140625,-9.15234375,1,0,0,rectangle,18.4140625,-9.15234375,1,0,0,18.4140625,-9.15234375,1,0,0,0,152,152,91,1,,,,,,,,
,,,,,,,,,,,,,FF,,,,,,,,0.9828,,,,,,,,,,,,,,,,,,,,,,60fd9e57a0308edae3e23991,610368a738a3fada71e272b2,2021-07-29_22h49.53.224,Simcolourproject_2stim_asymm_v5,2020.2.10,MacIntel,60,61025ae37ef11b136ea224fe,,,,,,,,,3237,74.890625,-52.2109375,1,0,0,response3disk,,5,4.9140625,-7.41796875,1,0,0,rectangle,4.9140625,-7.41796875,1,0,0,4.9140625,-7.41796875,1,0,0,0,153,153,112,1,,,,,,,,
,,,,,,,,,,,,,FF,,,,,,,,0.7332,,,,,,,,,,,,,,,,,,,,,,60fd9e57a0308edae3e23991,610368a738a3fada71e272b2,2021-07-29_22h49.53.224,Simcolourproject_2stim_asymm_v5,2020.2.10,MacIntel,60,61025ae37ef11b136ea224fe,,,,,,,,,589,48.66796875,86.9921875,1,0,0,response1disk,,7,16.02734375,6.515625,1,0,0,rectangle,16.02734375,6.515625,1,0,0,16.02734375,6.515625,1,0,0,0,154,154,104,1,,,,,,,,
,,,,,,,,,,,,,FF,,,,,,,,0.8158,,,,,,,,,,,,,,,,,,,,,,60fd9e57a0308edae3e23991,610368a738a3fada71e272b2,2021-07-29_22h49.53.224,Simcolourproject_2stim_asymm_v5,2020.2.10,MacIntel,60,61025ae37ef11b136ea224fe,,,,,,,,,1917,33.04296875,78.69921875,1,0,0,response1disk,,7,8.38671875,4.16796875,1,0,0,rectangle,8.38671875,4.16796875,1,0,0,8.38671875,4.16796875,1,0,0,0,155,155,114,1,,,,,,,,
,,,,,,,,,,,,,FF,,,,,,,,2.0007,,,,,,,,,,,,,,,,,,,,,,60fd9e57a0308edae3e23991,610368a738a3fada71e272b2,2021-07-29_22h49.53.224,Simcolourproject_2stim_asymm_v5,2020.2.10,MacIntel,60,61025ae37ef11b136ea224fe,,,,,,,,,4097,-46.08984375,-106.2578125,1,0,0,response5disk,,3,-9.62890625,5.16796875,1,0,0,rectangle,-9.62890625,5.16796875,1,0,0,-9.62890625,5.16796875,1,0,0,0,156,156,11,1,,,,,,,,
,,,,,,,,,,,,,FF,,,,,,,,1.267,,,,,,,,,,,,,,,,,,,,,,60fd9e57a0308edae3e23991,610368a738a3fada71e272b2,2021-07-29_22h49.53.224,Simcolourproject_2stim_asymm_v5,2020.2.10,MacIntel,60,61025ae37ef11b136ea224fe,,,,,,,,,548,-50.8671875,-97.6171875,1,0,0,response5disk,,3,-10.5859375,-12.97265625,1,0,0,rectangle,-10.5859375,-12.97265625,1,0,0,-10.5859375,-12.97265625,1,0,0,0,157,157,107,1,,,,,,,,
,,,,,,,,,,,,,FF,,,,,,,,1.183,,,,,,,,,,,,,,,,,,,,,,60fd9e57a0308edae3e23991,610368a738a3fada71e272b2,2021-07-29_22h49.53.224,Simcolourproject_2stim_asymm_v5,2020.2.10,MacIntel,60,61025ae37ef11b136ea224fe,,,,,,,,,3624,-49.4375,-75.4765625,1,0,0,response5disk,,3,-9.50390625,-6.8046875,1,0,0,rectangle,-9.50390625,-6.8046875,1,0,0,-9.50390625,-6.8046875,1,0,0,0,158,158,80,1,,,,,,,,
,,,,,,,,,,,,,FF,,,,,,,,0.7004,,,,,,,,,,,,,,,,,,,,,,60fd9e57a0308edae3e23991,610368a738a3fada71e272b2,2021-07-29_22h49.53.224,Simcolourproject_2stim_asymm_v5,2020.2.10,MacIntel,60,61025ae37ef11b136ea224fe,,,,,,,,,1226,26.26171875,65.64453125,1,0,0,response1disk,,7,0.21875,14.640625,1,0,0,rectangle,0.21875,14.640625,1,0,0,0.21875,14.640625,1,0,0,0,159,159,109,1,,,,,,,,
,,,,,,,,,,,,,FF,,,,,,,,0.6831,,,,,,,,,,,,,,,,,,,,,,60fd9e57a0308edae3e23991,610368a738a3fada71e272b2,2021-07-29_22h49.53.224,Simcolourproject_2stim_asymm_v5,2020.2.10,MacIntel,60,61025ae37ef11b136ea224fe,,,,,,,,,4263,33.90234375,68.07421875,1,0,0,response1disk,,7,10.2890625,11.125,1,0,0,rectangle,10.2890625,11.125,1,0,0,10.2890625,11.125,1,0,0,1,0,160,102,1,,,,,,,,
,,,,,,,,,,,,,FF,,,,,,,,0.8839,,,,,,,,,,,,,,,,,,,,,,60fd9e57a0308edae3e23991,610368a738a3fada71e272b2,2021-07-29_22h49.53.224,Simcolourproject_2stim_asymm_v5,2020.2.10,MacIntel,60,61025ae37ef11b136ea224fe,,,,,,,,,1200,32.51171875,62.12890625,1,0,0,response1disk,,7,0.21875,-7.97265625,1,0,0,rectangle,0.21875,-7.97265625,1,0,0,0.21875,-7.97265625,1,0,0,1,1,161,68,1,,,,,,,,
,,,,,,,,,,,,,FF,,,,,,,,1.0175,,,,,,,,,,,,,,,,,,,,,,60fd9e57a0308edae3e23991,610368a738a3fada71e272b2,2021-07-29_22h49.53.224,Simcolourproject_2stim_asymm_v5,2020.2.10,MacIntel,60,61025ae37ef11b136ea224fe,,,,,,,,,3887,21.75,78.75390625,1,0,0,response1disk,,7,-17.8359375,-3.5,1,0,0,rectangle,-17.8359375,-3.5,1,0,0,-17.8359375,-3.5,1,0,0,1,2,162,141,1,,,,,,,,
,,,,,,,,,,,,,FF,,,,,,,,0.7821,,,,,,,,,,,,,,,,,,,,,,60fd9e57a0308edae3e23991,610368a738a3fada71e272b2,2021-07-29_22h49.53.224,Simcolourproject_2stim_asymm_v5,2020.2.10,MacIntel,60,61025ae37ef11b136ea224fe,,,,,,,,,2451,25.9140625,100.8945313,1,0,0,response1disk,,7,4.0390625,-10.1796875,1,0,0,rectangle,4.0390625,-10.1796875,1,0,0,4.0390625,-10.1796875,1,0,0,1,3,163,48,1,,,,,,,,
,,,,,,,,,,,,,FF,,,,,,,,0.6834,,,,,,,,,,,,,,,,,,,,,,60fd9e57a0308edae3e23991,610368a738a3fada71e272b2,2021-07-29_22h49.53.224,Simcolourproject_2stim_asymm_v5,2020.2.10,MacIntel,60,61025ae37ef11b136ea224fe,,,,,,,,,1936,48.140625,86.3125,1,0,0,response1disk,,7,16.88671875,-5.58203125,1,0,0,rectangle,-25.43359375,-63.87890625,1,0,0,-7.07421875,-2.109375,1,0,0,1,4,164,151,1,,response5disk_3,TRUE,3,3,"[18,138,318,48,177,64,87,282,242,68,226,273,165,221,13,21,5,170,244,130]",2.2003,rectangle
,,,,,,,,,,,,,FF,,,,,,,,0.9003,,,,,,,,,,,,,,,,,,,,,,60fd9e57a0308edae3e23991,610368a738a3fada71e272b2,2021-07-29_22h49.53.224,Simcolourproject_2stim_asymm_v5,2020.2.10,MacIntel,60,61025ae37ef11b136ea224fe,,,,,,,,,1497,42.45703125,81.1015625,1,0,0,response1disk,,7,-9.28125,-2.3203125,1,0,0,rectangle,-9.28125,-2.3203125,1,0,0,-9.28125,-2.3203125,1,0,0,1,5,165,46,1,,,,,,,,
,,,,,,,,,,,,,FF,,,,,,,,1.1667,,,,,,,,,,,,,,,,,,,,,,60fd9e57a0308edae3e23991,610368a738a3fada71e272b2,2021-07-29_22h49.53.224,Simcolourproject_2stim_asymm_v5,2020.2.10,MacIntel,60,61025ae37ef11b136ea224fe,,,,,,,,,2652,-47.82421875,-108.0625,1,0,0,response5disk,,3,-11.015625,3.41796875,1,0,0,rectangle,-11.015625,3.41796875,1,0,0,-11.015625,3.41796875,1,0,0,1,6,166,117,1,,,,,,,,
,,,,,,,,,,,,,FF,,,,,,,,0.7001,,,,,,,,,,,,,,,,,,,,,,60fd9e57a0308edae3e23991,610368a738a3fada71e272b2,2021-07-29_22h49.53.224,Simcolourproject_2stim_asymm_v5,2020.2.10,MacIntel,60,61025ae37ef11b136ea224fe,,,,,,,,,3488,41.41796875,79.76953125,1,0,0,response1disk,,7,7.38671875,3.02734375,1,0,0,rectangle,7.38671875,3.02734375,1,0,0,7.38671875,3.02734375,1,0,0,1,7,167,5,1,,,,,,,,
,,,,,,,,,,,,,FF,,,,,,,,0.7157,,,,,,,,,,,,,,,,,,,,,,60fd9e57a0308edae3e23991,610368a738a3fada71e272b2,2021-07-29_22h49.53.224,Simcolourproject_2stim_asymm_v5,2020.2.10,MacIntel,60,61025ae37ef11b136ea224fe,,,,,,,,,2585,27.875,71.69921875,1,0,0,response1disk,,7,3.26171875,4.109375,1,0,0,rectangle,3.26171875,4.109375,1,0,0,3.26171875,4.109375,1,0,0,1,8,168,17,1,,,,,,,,
,,,,,,,,,,,,,FF,,,,,,,,1.2348,,,,,,,,,,,,,,,,,,,,,,60fd9e57a0308edae3e23991,610368a738a3fada71e272b2,2021-07-29_22h49.53.224,Simcolourproject_2stim_asymm_v5,2020.2.10,MacIntel,60,61025ae37ef11b136ea224fe,,,,,,,,,3419,-44.3125,-83.00390625,1,0,0,response5disk,,3,-29.37890625,-6.77734375,1,0,0,rectangle,-41.83984375,-98.7578125,1,0,0,-3.98828125,-12.11328125,1,0,0,1,9,169,63,1,,response5disk_3,TRUE,3,3,"[18,138,318,48,177,64,87,282,242,68,226,273,165,221,13,21,5,170,244,130]",1.8482,rectangle
,,,,,,,,,,,,,FF,,,,,,,,0.7492,,,,,,,,,,,,,,,,,,,,,,60fd9e57a0308edae3e23991,610368a738a3fada71e272b2,2021-07-29_22h49.53.224,Simcolourproject_2stim_asymm_v5,2020.2.10,MacIntel,60,61025ae37ef11b136ea224fe,,,,,,,,,910,35.59765625,101.2695313,1,0,0,response1disk,,7,4.34375,-6.68359375,1,0,0,rectangle,4.34375,-6.68359375,1,0,0,4.34375,-6.68359375,1,0,0,1,10,170,58,1,,,,,,,,
,,,,,,,,,,,,,FF,,,,,,,,0.6999,,,,,,,,,,,,,,,,,,,,,,60fd9e57a0308edae3e23991,610368a738a3fada71e272b2,2021-07-29_22h49.53.224,Simcolourproject_2stim_asymm_v5,2020.2.10,MacIntel,60,61025ae37ef11b136ea224fe,,,,,,,,,1259,38.72265625,65.50390625,1,0,0,response1disk,,7,20.70703125,15.9296875,1,0,0,rectangle,20.70703125,15.9296875,1,0,0,20.70703125,15.9296875,1,0,0,1,11,171,107,1,,,,,,,,
,,,,,,,,,,,,,FF,,,,,,,,1.0818,,,,,,,,,,,,,,,,,,,,,,60fd9e57a0308edae3e23991,610368a738a3fada71e272b2,2021-07-29_22h49.53.224,Simcolourproject_2stim_asymm_v5,2020.2.10,MacIntel,60,61025ae37ef11b136ea224fe,,,,,,,,,2428,72.05859375,36.80859375,1,0,0,response1disk,,6,-12.32421875,8.33203125,1,0,0,rectangle,-12.32421875,8.33203125,1,0,0,-12.32421875,8.33203125,1,0,0,1,12,172,57,1,,,,,,,,
,,,,,,,,,,,,,FF,,,,,,,,1.1513,,,,,,,,,,,,,,,,,,,,,,60fd9e57a0308edae3e23991,610368a738a3fada71e272b2,2021-07-29_22h49.53.224,Simcolourproject_2stim_asymm_v5,2020.2.10,MacIntel,60,61025ae37ef11b136ea224fe,,,,,,,,,752,78.30859375,105.7851563,1,0,0,response1disk,,7,-2.8203125,-6.4296875,1,0,0,rectangle,-2.8203125,-6.4296875,1,0,0,-2.8203125,-6.4296875,1,0,0,1,13,173,20,1,,,,,,,,
,,,,,,,,,,,,,FF,,,,,,,,1.4335,,,,,,,,,,,,,,,,,,,,,,60fd9e57a0308edae3e23991,610368a738a3fada71e272b2,2021-07-29_22h49.53.224,Simcolourproject_2stim_asymm_v5,2020.2.10,MacIntel,60,61025ae37ef11b136ea224fe,,,,,,,,,2042,74.87890625,-44.62890625,1,0,0,response3disk,,5,14.5,2.59765625,1,0,0,rectangle,14.5,2.59765625,1,0,0,14.5,2.59765625,1,0,0,1,14,174,108,1,,,,,,,,
,,,,,,,,,,,,,FF,,,,,,,,0.9501,,,,,,,,,,,,,,,,,,,,,,60fd9e57a0308edae3e23991,610368a738a3fada71e272b2,2021-07-29_22h49.53.224,Simcolourproject_2stim_asymm_v5,2020.2.10,MacIntel,60,61025ae37ef11b136ea224fe,,,,,,,,,4089,53.43359375,80.296875,1,0,0,response1disk,,7,13.58203125,9.1953125,1,0,0,rectangle,13.58203125,9.1953125,1,0,0,13.58203125,9.1953125,1,0,0,1,15,175,32,1,,,,,,,,
,,,,,,,,,,,,,FF,,,,,,,,0.7499,,,,,,,,,,,,,,,,,,,,,,60fd9e57a0308edae3e23991,610368a738a3fada71e272b2,2021-07-29_22h49.53.224,Simcolourproject_2stim_asymm_v5,2020.2.10,MacIntel,60,61025ae37ef11b136ea224fe,,,,,,,,,2403,42.70703125,83.46484375,1,0,0,response1disk,,7,4.63671875,-9.61328125,1,0,0,rectangle,26.16796875,49.37890625,1,0,0,11.234375,1.66796875,1,0,0,1,16,176,78,1,,response1disk_3,TRUE,7,7,"[18,138,318,48,177,64,87,282,242,68,226,273,165,221,13,21,5,170,244,130]",1.6329,rectangle
,,,,,,,,,,,,,FF,,,,,,,,0.883,,,,,,,,,,,,,,,,,,,,,,60fd9e57a0308edae3e23991,610368a738a3fada71e272b2,2021-07-29_22h49.53.224,Simcolourproject_2stim_asymm_v5,2020.2.10,MacIntel,60,61025ae37ef11b136ea224fe,,,,,,,,,653,46.61328125,75.46484375,1,0,0,response1disk,,7,-2.34765625,-12.5703125,1,0,0,rectangle,-2.34765625,-12.5703125,1,0,0,-2.34765625,-12.5703125,1,0,0,1,17,177,109,1,,,,,,,,
,,,,,,,,,,,,,FF,,,,,,,,1.4334,,,,,,,,,,,,,,,,,,,,,,60fd9e57a0308edae3e23991,610368a738a3fada71e272b2,2021-07-29_22h49.53.224,Simcolourproject_2stim_asymm_v5,2020.2.10,MacIntel,60,61025ae37ef11b136ea224fe,,,,,,,,,432,85.03125,31.40625,1,0,0,response1disk,,6,2.08203125,-3.66796875,1,0,0,rectangle,2.08203125,-3.66796875,1,0,0,2.08203125,-3.66796875,1,0,0,1,18,178,147,1,,,,,,,,
,,,,,,,,,,,,,FF,,,,,,,,1.417,,,,,,,,,,,,,,,,,,,,,,60fd9e57a0308edae3e23991,610368a738a3fada71e272b2,2021-07-29_22h49.53.224,Simcolourproject_2stim_asymm_v5,2020.2.10,MacIntel,60,61025ae37ef11b136ea224fe,,,,,,,,,1449,63.5,-54.015625,1,0,0,response3disk,,5,22.22265625,4.234375,1,0,0,rectangle,22.22265625,4.234375,1,0,0,22.22265625,4.234375,1,0,0,1,19,179,69,1,,,,,,,,
,,,,,,,,,,,,,FF,,,,,,,,0.8343,,,,,,,,,,,,,,,,,,,,,,60fd9e57a0308edae3e23991,610368a738a3fada71e272b2,2021-07-29_22h49.53.224,Simcolourproject_2stim_asymm_v5,2020.2.10,MacIntel,60,61025ae37ef11b136ea224fe,,,,,,,,,322,36.45703125,97.2578125,1,0,0,response1disk,,7,15.625,12,1,0,0,rectangle,15.625,12,1,0,0,15.625,12,1,0,0,1,20,180,155,1,,,,,,,,
,,,,,,,,,,,,,FF,,,,,,,,1.1015,,,,,,,,,,,,,,,,,,,,,,60fd9e57a0308edae3e23991,610368a738a3fada71e272b2,2021-07-29_22h49.53.224,Simcolourproject_2stim_asymm_v5,2020.2.10,MacIntel,60,61025ae37ef11b136ea224fe,,,,,,,,,2144,18.75,44.6015625,1,0,0,response1disk,,7,13.9296875,-0.0703125,1,0,0,rectangle,13.9296875,-0.0703125,1,0,0,13.9296875,-0.0703125,1,0,0,1,21,181,61,1,,,,,,,,
,,,,,,,,,,,,,FF,,,,,,,,0.7295,,,,,,,,,,,,,,,,,,,,,,60fd9e57a0308edae3e23991,610368a738a3fada71e272b2,2021-07-29_22h49.53.224,Simcolourproject_2stim_asymm_v5,2020.2.10,MacIntel,60,61025ae37ef11b136ea224fe,,,,,,,,,4068,32.6796875,70.64453125,1,0,0,response1disk,,7,23.3046875,7.91796875,1,0,0,rectangle,23.3046875,7.91796875,1,0,0,23.3046875,7.91796875,1,0,0,1,22,182,158,1,,,,,,,,
,,,,,,,,,,,,,FF,,,,,,,,0.7001,,,,,,,,,,,,,,,,,,,,,,60fd9e57a0308edae3e23991,610368a738a3fada71e272b2,2021-07-29_22h49.53.224,Simcolourproject_2stim_asymm_v5,2020.2.10,MacIntel,60,61025ae37ef11b136ea224fe,,,,,,,,,254,30.59765625,80.40625,1,0,0,response1disk,,7,7.33203125,1.3203125,1,0,0,rectangle,7.33203125,1.3203125,1,0,0,7.33203125,1.3203125,1,0,0,1,23,183,118,1,,,,,,,,
,,,,,,,,,,,,,FF,,,,,,,,0.8167,,,,,,,,,,,,,,,,,,,,,,60fd9e57a0308edae3e23991,610368a738a3fada71e272b2,2021-07-29_22h49.53.224,Simcolourproject_2stim_asymm_v5,2020.2.10,MacIntel,60,61025ae37ef11b136ea224fe,,,,,,,,,2910,31.640625,62.30859375,1,0,0,response1disk,,7,13.27734375,4.4453125,1,0,0,rectangle,13.27734375,4.4453125,1,0,0,13.27734375,4.4453125,1,0,0,1,24,184,62,1,,,,,,,,
,,,,,,,,,,,,,FF,,,,,,,,1.083,,,,,,,,,,,,,,,,,,,,,,60fd9e57a0308edae3e23991,610368a738a3fada71e272b2,2021-07-29_22h49.53.224,Simcolourproject_2stim_asymm_v5,2020.2.10,MacIntel,60,61025ae37ef11b136ea224fe,,,,,,,,,2546,-37.07421875,-90.87890625,1,0,0,response5disk,,3,-15.890625,-10.48828125,1,0,0,rectangle,-15.890625,-10.48828125,1,0,0,-15.890625,-10.48828125,1,0,0,1,25,185,123,1,,,,,,,,
,,,,,,,,,,,,,FF,,,,,,,,0.983,,,,,,,,,,,,,,,,,,,,,,60fd9e57a0308edae3e23991,610368a738a3fada71e272b2,2021-07-29_22h49.53.224,Simcolourproject_2stim_asymm_v5,2020.2.10,MacIntel,60,61025ae37ef11b136ea224fe,,,,,,,,,3176,41.3203125,82.44921875,1,0,0,response1disk,,7,20.875,0.27734375,1,0,0,rectangle,20.875,0.27734375,1,0,0,20.875,0.27734375,1,0,0,1,26,186,26,1,,,,,,,,
,,,,,,,,,,,,,FF,,,,,,,,0.9987,,,,,,,,,,,,,,,,,,,,,,60fd9e57a0308edae3e23991,610368a738a3fada71e272b2,2021-07-29_22h49.53.224,Simcolourproject_2stim_asymm_v5,2020.2.10,MacIntel,60,61025ae37ef11b136ea224fe,,,,,,,,,2308,30.25,46.41796875,1,0,0,response1disk,,7,10.8046875,1.97265625,1,0,0,rectangle,10.8046875,1.97265625,1,0,0,10.8046875,1.97265625,1,0,0,1,27,187,34,1,,,,,,,,
,,,,,,,,,,,,,FF,,,,,,,,0.9168,,,,,,,,,,,,,,,,,,,,,,60fd9e57a0308edae3e23991,610368a738a3fada71e272b2,2021-07-29_22h49.53.224,Simcolourproject_2stim_asymm_v5,2020.2.10,MacIntel,60,61025ae37ef11b136ea224fe,,,,,,,,,1881,37.54296875,83.14453125,1,0,0,response1disk,,7,21.26171875,11.0859375,1,0,0,rectangle,21.26171875,11.0859375,1,0,0,21.26171875,11.0859375,1,0,0,1,28,188,67,1,,,,,,,,
,,,,,,,,,,,,,FF,,,,,,,,0.7337,,,,,,,,,,,,,,,,,,,,,,60fd9e57a0308edae3e23991,610368a738a3fada71e272b2,2021-07-29_22h49.53.224,Simcolourproject_2stim_asymm_v5,2020.2.10,MacIntel,60,61025ae37ef11b136ea224fe,,,,,,,,,798,32.72265625,55.48828125,1,0,0,response1disk,,7,12.234375,-6.58203125,1,0,0,rectangle,12.234375,-6.58203125,1,0,0,12.234375,-6.58203125,1,0,0,1,29,189,56,1,,,,,,,,
,,,,,,,,,,,,,FF,,,,,,,,0.6818,,,,,,,,,,,,,,,,,,,,,,60fd9e57a0308edae3e23991,610368a738a3fada71e272b2,2021-07-29_22h49.53.224,Simcolourproject_2stim_asymm_v5,2020.2.10,MacIntel,60,61025ae37ef11b136ea224fe,,,,,,,,,316,32.375,71.46484375,1,0,0,response1disk,,7,8.8046875,5.9609375,1,0,0,rectangle,8.8046875,5.9609375,1,0,0,8.8046875,5.9609375,1,0,0,1,30,190,38,1,,,,,,,,
,,,,,,,,,,,,,FF,,,,,,,,0.7335,,,,,,,,,,,,,,,,,,,,,,60fd9e57a0308edae3e23991,610368a738a3fada71e272b2,2021-07-29_22h49.53.224,Simcolourproject_2stim_asymm_v5,2020.2.10,MacIntel,60,61025ae37ef11b136ea224fe,,,,,,,,,681,25.47265625,61.4765625,1,0,0,response1disk,,7,5.33203125,5.34765625,1,0,0,rectangle,5.33203125,5.34765625,1,0,0,5.33203125,5.34765625,1,0,0,1,31,191,120,1,,,,,,,,
,,,,,,,,,,,,,FF,,,,,,,,0.7154,,,,,,,,,,,,,,,,,,,,,,60fd9e57a0308edae3e23991,610368a738a3fada71e272b2,2021-07-29_22h49.53.224,Simcolourproject_2stim_asymm_v5,2020.2.10,MacIntel,60,61025ae37ef11b136ea224fe,,,,,,,,,193,38.3203125,52.48828125,1,0,0,response1disk,,7,19.5703125,5.04296875,1,0,0,rectangle,19.5703125,5.04296875,1,0,0,19.5703125,5.04296875,1,0,0,1,32,192,138,1,,,,,,,,
,,,,,,,,,,,,,FF,,,,,,,,0.6831,,,,,,,,,,,,,,,,,,,,,,60fd9e57a0308edae3e23991,610368a738a3fada71e272b2,2021-07-29_22h49.53.224,Simcolourproject_2stim_asymm_v5,2020.2.10,MacIntel,60,61025ae37ef11b136ea224fe,,,,,,,,,203,38.3203125,48.671875,1,0,0,response1disk,,7,12.27734375,-7.765625,1,0,0,rectangle,12.27734375,-7.765625,1,0,0,12.27734375,-7.765625,1,0,0,1,33,193,90,1,,,,,,,,
,,,,,,,,,,,,,FF,,,,,,,,1.0332,,,,,,,,,,,,,,,,,,,,,,60fd9e57a0308edae3e23991,610368a738a3fada71e272b2,2021-07-29_22h49.53.224,Simcolourproject_2stim_asymm_v5,2020.2.10,MacIntel,60,61025ae37ef11b136ea224fe,,,,,,,,,1344,45.3046875,78.1875,1,0,0,response1disk,,7,18.609375,12.29296875,1,0,0,rectangle,18.609375,12.29296875,1,0,0,18.609375,12.29296875,1,0,0,1,34,194,72,1,,,,,,,,
,,,,,,,,,,,,,FF,,,,,,,,1.2821,,,,,,,,,,,,,,,,,,,,,,60fd9e57a0308edae3e23991,610368a738a3fada71e272b2,2021-07-29_22h49.53.224,Simcolourproject_2stim_asymm_v5,2020.2.10,MacIntel,60,61025ae37ef11b136ea224fe,,,,,,,,,2988,-20.62890625,-64.671875,1,0,0,response5disk,,3,-8.12890625,-8.8046875,1,0,0,rectangle,-8.12890625,-8.8046875,1,0,0,-8.12890625,-8.8046875,1,0,0,1,35,195,148,1,,,,,,,,
,,,,,,,,,,,,,FF,,,,,,,,0.7995,,,,,,,,,,,,,,,,,,,,,,60fd9e57a0308edae3e23991,610368a738a3fada71e272b2,2021-07-29_22h49.53.224,Simcolourproject_2stim_asymm_v5,2020.2.10,MacIntel,60,61025ae37ef11b136ea224fe,,,,,,,,,2416,28.6796875,64.37890625,1,0,0,response1disk,,7,-1.18359375,-3.90234375,1,0,0,rectangle,-1.18359375,-3.90234375,1,0,0,-1.18359375,-3.90234375,1,0,0,1,36,196,2,1,,,,,,,,
,,,,,,,,,,,,,FF,,,,,,,,0.9665,,,,,,,,,,,,,,,,,,,,,,60fd9e57a0308edae3e23991,610368a738a3fada71e272b2,2021-07-29_22h49.53.224,Simcolourproject_2stim_asymm_v5,2020.2.10,MacIntel,60,61025ae37ef11b136ea224fe,,,,,,,,,3906,-47.671875,73.4921875,1,0,0,response7disk,,0,-0.91796875,1.0859375,1,0,0,rectangle,-0.91796875,1.0859375,1,0,0,-0.91796875,1.0859375,1,0,0,1,37,197,49,1,,,,,,,,
,,,,,,,,,,,,,FF,,,,,,,,0.6665,,,,,,,,,,,,,,,,,,,,,,60fd9e57a0308edae3e23991,610368a738a3fada71e272b2,2021-07-29_22h49.53.224,Simcolourproject_2stim_asymm_v5,2020.2.10,MacIntel,60,61025ae37ef11b136ea224fe,,,,,,,,,918,33.8046875,78.78515625,1,0,0,response1disk,,7,-6.4765625,5.68359375,1,0,0,rectangle,-6.4765625,5.68359375,1,0,0,-6.4765625,5.68359375,1,0,0,1,38,198,74,1,,,,,,,,
,,,,,,,,,,,,,FF,,,,,,,,0.6823,,,,,,,,,,,,,,,,,,,,,,60fd9e57a0308edae3e23991,610368a738a3fada71e272b2,2021-07-29_22h49.53.224,Simcolourproject_2stim_asymm_v5,2020.2.10,MacIntel,60,61025ae37ef11b136ea224fe,,,,,,,,,1091,27.20703125,67.40625,1,0,0,response1disk,,7,-0.22265625,-7.16796875,1,0,0,rectangle,-0.22265625,-7.16796875,1,0,0,-0.22265625,-7.16796875,1,0,0,1,39,199,59,1,,,,,,,,
,,,,,,,,,,,,,FF,,,,,,,,1.534,,,,,,,,,,,,,,,,,,,,,,60fd9e57a0308edae3e23991,610368a738a3fada71e272b2,2021-07-29_22h49.53.224,Simcolourproject_2stim_asymm_v5,2020.2.10,MacIntel,60,61025ae37ef11b136ea224fe,,,,,,,,,1981,34.5,71.6171875,1,0,0,response1disk,,7,1.51171875,-6.8203125,1,0,0,rectangle,1.51171875,-6.8203125,1,0,0,1.51171875,-6.8203125,1,0,0,1,40,200,86,1,,,,,,,,
,,,,,,,,,,,,,FF,,,,,,,,0.6653,,,,,,,,,,,,,,,,,,,,,,60fd9e57a0308edae3e23991,610368a738a3fada71e272b2,2021-07-29_22h49.53.224,Simcolourproject_2stim_asymm_v5,2020.2.10,MacIntel,60,61025ae37ef11b136ea224fe,,,,,,,,,850,31.375,69.14453125,1,0,0,response1disk,,7,9.15234375,5.765625,1,0,0,rectangle,9.15234375,5.765625,1,0,0,9.15234375,5.765625,1,0,0,1,41,201,71,1,,,,,,,,
,,,,,,,,,,,,,FF,,,,,,,,0.9657,,,,,,,,,,,,,,,,,,,,,,60fd9e57a0308edae3e23991,610368a738a3fada71e272b2,2021-07-29_22h49.53.224,Simcolourproject_2stim_asymm_v5,2020.2.10,MacIntel,60,61025ae37ef11b136ea224fe,,,,,,,,,2335,38.3203125,61.89453125,1,0,0,response1disk,,7,18.26171875,-0.52734375,1,0,0,rectangle,18.26171875,-0.52734375,1,0,0,18.26171875,-0.52734375,1,0,0,1,42,202,50,1,,,,,,,,
,,,,,,,,,,,,,FF,,,,,,,,0.8169,,,,,,,,,,,,,,,,,,,,,,60fd9e57a0308edae3e23991,610368a738a3fada71e272b2,2021-07-29_22h49.53.224,Simcolourproject_2stim_asymm_v5,2020.2.10,MacIntel,60,61025ae37ef11b136ea224fe,,,,,,,,,210,40.140625,71.2265625,1,0,0,response1disk,,7,8.58203125,11.54296875,1,0,0,rectangle,8.58203125,11.54296875,1,0,0,8.58203125,11.54296875,1,0,0,1,43,203,0,1,,,,,,,,
,,,,,,,,,,,,,FF,,,,,,,,0.7156,,,,,,,,,,,,,,,,,,,,,,60fd9e57a0308edae3e23991,610368a738a3fada71e272b2,2021-07-29_22h49.53.224,Simcolourproject_2stim_asymm_v5,2020.2.10,MacIntel,60,61025ae37ef11b136ea224fe,,,,,,,,,1952,40.52734375,71.1875,1,0,0,response1disk,,7,9.31640625,8.54296875,1,0,0,rectangle,9.31640625,8.54296875,1,0,0,9.31640625,8.54296875,1,0,0,1,44,204,154,1,,,,,,,,
,,,,,,,,,,,,,FF,,,,,,,,0.6167,,,,,,,,,,,,,,,,,,,,,,60fd9e57a0308edae3e23991,610368a738a3fada71e272b2,2021-07-29_22h49.53.224,Simcolourproject_2stim_asymm_v5,2020.2.10,MacIntel,60,61025ae37ef11b136ea224fe,,,,,,,,,702,23.90234375,81.421875,1,0,0,response1disk,,7,-13.9453125,-2.52734375,1,0,0,rectangle,-13.9453125,-2.52734375,1,0,0,-13.9453125,-2.52734375,1,0,0,1,45,205,150,1,,,,,,,,
,,,,,,,,,,,,,FF,,,,,,,,0.6829,,,,,,,,,,,,,,,,,,,,,,60fd9e57a0308edae3e23991,610368a738a3fada71e272b2,2021-07-29_22h49.53.224,Simcolourproject_2stim_asymm_v5,2020.2.10,MacIntel,60,61025ae37ef11b136ea224fe,,,,,,,,,3793,22.859375,72.39453125,1,0,0,response1disk,,7,-2.140625,-8.08203125,1,0,0,rectangle,-2.140625,-8.08203125,1,0,0,-2.140625,-8.08203125,1,0,0,1,46,206,24,1,,,,,,,,
,,,,,,,,,,,,,FF,,,,,,,,1.117,,,,,,,,,,,,,,,,,,,,,,60fd9e57a0308edae3e23991,610368a738a3fada71e272b2,2021-07-29_22h49.53.224,Simcolourproject_2stim_asymm_v5,2020.2.10,MacIntel,60,61025ae37ef11b136ea224fe,,,,,,,,,2603,-41.37890625,-97.93359375,1,0,0,response5disk,,3,-16.7265625,-13.9453125,1,0,0,rectangle,-16.7265625,-13.9453125,1,0,0,-16.7265625,-13.9453125,1,0,0,1,47,207,79,1,,,,,,,,
,,,,,,,,,,,,,FF,,,,,,,,0.65,,,,,,,,,,,,,,,,,,,,,,60fd9e57a0308edae3e23991,610368a738a3fada71e272b2,2021-07-29_22h49.53.224,Simcolourproject_2stim_asymm_v5,2020.2.10,MacIntel,60,61025ae37ef11b136ea224fe,,,,,,,,,765,35.70703125,78.6875,1,0,0,response1disk,,7,5.88671875,8.5859375,1,0,0,rectangle,5.88671875,8.5859375,1,0,0,5.88671875,8.5859375,1,0,0,1,48,208,156,1,,,,,,,,
,,,,,,,,,,,,,FF,,,,,,,,1.0002,,,,,,,,,,,,,,,,,,,,,,60fd9e57a0308edae3e23991,610368a738a3fada71e272b2,2021-07-29_22h49.53.224,Simcolourproject_2stim_asymm_v5,2020.2.10,MacIntel,60,61025ae37ef11b136ea224fe,,,,,,,,,3005,-47.93359375,-115.3828125,1,0,0,response5disk,,3,-14.6015625,-9.90234375,1,0,0,rectangle,-14.6015625,-9.90234375,1,0,0,-14.6015625,-9.90234375,1,0,0,1,49,209,111,1,,,,,,,,
,,,,,,,,,,,,,FF,,,,,,,,0.7665,,,,,,,,,,,,,,,,,,,,,,60fd9e57a0308edae3e23991,610368a738a3fada71e272b2,2021-07-29_22h49.53.224,Simcolourproject_2stim_asymm_v5,2020.2.10,MacIntel,60,61025ae37ef11b136ea224fe,,,,,,,,,1729,46.125,78.91015625,1,0,0,response1disk,,7,12.7890625,-1.1796875,1,0,0,rectangle,12.7890625,-1.1796875,1,0,0,12.7890625,-1.1796875,1,0,0,1,50,210,103,1,,,,,,,,
,,,,,,,,,,,,,FF,,,,,,,,0.6338,,,,,,,,,,,,,,,,,,,,,,60fd9e57a0308edae3e23991,610368a738a3fada71e272b2,2021-07-29_22h49.53.224,Simcolourproject_2stim_asymm_v5,2020.2.10,MacIntel,60,61025ae37ef11b136ea224fe,,,,,,,,,217,43.6953125,77.5625,1,0,0,response1disk,,7,16.95703125,15.75390625,1,0,0,rectangle,16.95703125,15.75390625,1,0,0,16.95703125,15.75390625,1,0,0,1,51,211,153,1,,,,,,,,
,,,,,,,,,,,,,FF,,,,,,,,0.5655,,,,,,,,,,,,,,,,,,,,,,60fd9e57a0308edae3e23991,610368a738a3fada71e272b2,2021-07-29_22h49.53.224,Simcolourproject_2stim_asymm_v5,2020.2.10,MacIntel,60,61025ae37ef11b136ea224fe,,,,,,,,,3451,46.125,71.96484375,1,0,0,response1disk,,7,12.4453125,-0.13671875,1,0,0,rectangle,12.4453125,-0.13671875,1,0,0,12.4453125,-0.13671875,1,0,0,1,52,212,94,1,,,,,,,,
,,,,,,,,,,,,,FF,,,,,,,,0.7664,,,,,,,,,,,,,,,,,,,,,,60fd9e57a0308edae3e23991,610368a738a3fada71e272b2,2021-07-29_22h49.53.224,Simcolourproject_2stim_asymm_v5,2020.2.10,MacIntel,60,61025ae37ef11b136ea224fe,,,,,,,,,2155,43,74.82421875,1,0,0,response1disk,,7,17.34765625,7.890625,1,0,0,rectangle,17.34765625,7.890625,1,0,0,17.34765625,7.890625,1,0,0,1,53,213,100,1,,,,,,,,
,,,,,,,,,,,,,FF,,,,,,,,0.717,,,,,,,,,,,,,,,,,,,,,,60fd9e57a0308edae3e23991,610368a738a3fada71e272b2,2021-07-29_22h49.53.224,Simcolourproject_2stim_asymm_v5,2020.2.10,MacIntel,60,61025ae37ef11b136ea224fe,,,,,,,,,182,28.45703125,65.1875,1,0,0,response1disk,,7,1.375,-10.0390625,1,0,0,rectangle,1.375,-10.0390625,1,0,0,1.375,-10.0390625,1,0,0,1,54,214,97,1,,,,,,,,
,,,,,,,,,,,,,FF,,,,,,,,1.0664,,,,,,,,,,,,,,,,,,,,,,60fd9e57a0308edae3e23991,610368a738a3fada71e272b2,2021-07-29_22h49.53.224,Simcolourproject_2stim_asymm_v5,2020.2.10,MacIntel,60,61025ae37ef11b136ea224fe,,,,,,,,,3900,-45.15625,-79.44921875,1,0,0,response5disk,,3,-18.80859375,-1.9140625,1,0,0,rectangle,-18.80859375,-1.9140625,1,0,0,-18.80859375,-1.9140625,1,0,0,1,55,215,10,1,,,,,,,,
,,,,,,,,,,,,,FF,,,,,,,,0.5848,,,,,,,,,,,,,,,,,,,,,,60fd9e57a0308edae3e23991,610368a738a3fada71e272b2,2021-07-29_22h49.53.224,Simcolourproject_2stim_asymm_v5,2020.2.10,MacIntel,60,61025ae37ef11b136ea224fe,,,,,,,,,1027,29.8046875,73.78515625,1,0,0,response1disk,,7,2.71875,-8,1,0,0,rectangle,2.71875,-8,1,0,0,2.71875,-8,1,0,0,1,56,216,159,1,,,,,,,,
,,,,,,,,,,,,,FF,,,,,,,,1.8354,,,,,,,,,,,,,,,,,,,,,,60fd9e57a0308edae3e23991,610368a738a3fada71e272b2,2021-07-29_22h49.53.224,Simcolourproject_2stim_asymm_v5,2020.2.10,MacIntel,60,61025ae37ef11b136ea224fe,,,,,,,,,2783,79.765625,-43.375,1,0,0,response3disk,,5,-3.140625,12.87890625,1,0,0,rectangle,-3.140625,12.87890625,1,0,0,-3.140625,12.87890625,1,0,0,1,57,217,135,1,,,,,,,,
,,,,,,,,,,,,,FF,,,,,,,,0.6999,,,,,,,,,,,,,,,,,,,,,,60fd9e57a0308edae3e23991,610368a738a3fada71e272b2,2021-07-29_22h49.53.224,Simcolourproject_2stim_asymm_v5,2020.2.10,MacIntel,60,61025ae37ef11b136ea224fe,,,,,,,,,3193,47.90234375,77.03515625,1,0,0,response1disk,,7,12.22265625,3.5859375,1,0,0,rectangle,12.22265625,3.5859375,1,0,0,12.22265625,3.5859375,1,0,0,1,58,218,136,1,,,,,,,,
,,,,,,,,,,,,,FF,,,,,,,,0.6667,,,,,,,,,,,,,,,,,,,,,,60fd9e57a0308edae3e23991,610368a738a3fada71e272b2,2021-07-29_22h49.53.224,Simcolourproject_2stim_asymm_v5,2020.2.10,MacIntel,60,61025ae37ef11b136ea224fe,,,,,,,,,826,37.91796875,76.1171875,1,0,0,response1disk,,7,9.83203125,-1.234375,1,0,0,rectangle,9.83203125,-1.234375,1,0,0,9.83203125,-1.234375,1,0,0,1,59,219,83,1,,,,,,,,
,,,,,,,,,,,,,FF,,,,,,,,1.6498,,,,,,,,,,,,,,,,,,,,,,60fd9e57a0308edae3e23991,610368a738a3fada71e272b2,2021-07-29_22h49.53.224,Simcolourproject_2stim_asymm_v5,2020.2.10,MacIntel,60,61025ae37ef11b136ea224fe,,,,,,,,,73,82.015625,43.43359375,1,0,0,response1disk,,6,3.31640625,-5.484375,1,0,0,rectangle,-32.1015625,87.4921875,1,0,0,-7.48828125,6.40625,1,0,0,1,60,220,53,1,,response7disk_3,TRUE,0,0,"[18,138,318,48,177,64,87,282,242,68,226,273,165,221,13,21,5,170,244,130]",2.3658,rectangle
,,,,,,,,,,,,,FF,,,,,,,,1.7685,,,,,,,,,,,,,,,,,,,,,,60fd9e57a0308edae3e23991,610368a738a3fada71e272b2,2021-07-29_22h49.53.224,Simcolourproject_2stim_asymm_v5,2020.2.10,MacIntel,60,61025ae37ef11b136ea224fe,,,,,,,,,1757,-85.8828125,-70.03125,1,0,0,response5disk,,2,-2.890625,-14.6796875,1,0,0,rectangle,-2.890625,-14.6796875,1,0,0,-2.890625,-14.6796875,1,0,0,1,61,221,80,1,,,,,,,,
,,,,,,,,,,,,,FF,,,,,,,,0.7833,,,,,,,,,,,,,,,,,,,,,,60fd9e57a0308edae3e23991,610368a738a3fada71e272b2,2021-07-29_22h49.53.224,Simcolourproject_2stim_asymm_v5,2020.2.10,MacIntel,60,61025ae37ef11b136ea224fe,,,,,,,,,1658,43.640625,97.828125,1,0,0,response1disk,,7,0.9296875,-2.52734375,1,0,0,rectangle,0.9296875,-2.52734375,1,0,0,0.9296875,-2.52734375,1,0,0,1,62,222,75,1,,,,,,,,
,,,,,,,,,,,,,FF,,,,,,,,1.7004,,,,,,,,,,,,,,,,,,,,,,60fd9e57a0308edae3e23991,610368a738a3fada71e272b2,2021-07-29_22h49.53.224,Simcolourproject_2stim_asymm_v5,2020.2.10,MacIntel,60,61025ae37ef11b136ea224fe,,,,,,,,,3675,31.015625,-82.26953125,1,0,0,response3disk,,4,10.1796875,-1.70703125,1,0,0,rectangle,10.1796875,-1.70703125,1,0,0,10.1796875,-1.70703125,1,0,0,1,63,223,3,1,,,,,,,,
,,,,,,,,,,,,,FF,,,,,,,,0.7028,,,,,,,,,,,,,,,,,,,,,,60fd9e57a0308edae3e23991,610368a738a3fada71e272b2,2021-07-29_22h49.53.224,Simcolourproject_2stim_asymm_v5,2020.2.10,MacIntel,60,61025ae37ef11b136ea224fe,,,,,,,,,1536,41.43359375,71.5625,1,0,0,response1disk,,7,5.70703125,-0.27734375,1,0,0,rectangle,5.70703125,-0.27734375,1,0,0,5.70703125,-0.27734375,1,0,0,1,64,224,12,1,,,,,,,,
,,,,,,,,,,,,,FF,,,,,,,,1.134,,,,,,,,,,,,,,,,,,,,,,60fd9e57a0308edae3e23991,610368a738a3fada71e272b2,2021-07-29_22h49.53.224,Simcolourproject_2stim_asymm_v5,2020.2.10,MacIntel,60,61025ae37ef11b136ea224fe,,,,,,,,,2098,-92.78515625,-43.2109375,1,0,0,response5disk,,2,0.234375,7.7109375,1,0,0,rectangle,-78.546875,-38.73828125,1,0,0,-22.3359375,-5.44140625,1,0,0,1,65,225,65,1,,response5disk_3,TRUE,2,2,"[18,138,318,48,177,64,87,282,242,68,226,273,165,221,13,21,5,170,244,130]",2.2164,rectangle
,,,,,,,,,,,,,FF,,,,,,,,0.9166,,,,,,,,,,,,,,,,,,,,,,60fd9e57a0308edae3e23991,610368a738a3fada71e272b2,2021-07-29_22h49.53.224,Simcolourproject_2stim_asymm_v5,2020.2.10,MacIntel,60,61025ae37ef11b136ea224fe,,,,,,,,,3681,43.90234375,83.71484375,1,0,0,response1disk,,7,-0.5,-10.1796875,1,0,0,rectangle,-0.5,-10.1796875,1,0,0,-0.5,-10.1796875,1,0,0,1,66,226,91,1,,,,,,,,
,,,,,,,,,,,,,FF,,,,,,,,0.9323,,,,,,,,,,,,,,,,,,,,,,60fd9e57a0308edae3e23991,610368a738a3fada71e272b2,2021-07-29_22h49.53.224,Simcolourproject_2stim_asymm_v5,2020.2.10,MacIntel,60,61025ae37ef11b136ea224fe,,,,,,,,,1738,50.890625,95.6484375,1,0,0,response1disk,,7,-9.140625,-2.01171875,1,0,0,rectangle,-9.140625,-2.01171875,1,0,0,-9.140625,-2.01171875,1,0,0,1,67,227,157,1,,,,,,,,
,,,,,,,,,,,,,FF,,,,,,,,0.8321,,,,,,,,,,,,,,,,,,,,,,60fd9e57a0308edae3e23991,610368a738a3fada71e272b2,2021-07-29_22h49.53.224,Simcolourproject_2stim_asymm_v5,2020.2.10,MacIntel,60,61025ae37ef11b136ea224fe,,,,,,,,,1075,38.0859375,78.46484375,1,0,0,response1disk,,7,4.83203125,11.79296875,1,0,0,rectangle,4.83203125,11.79296875,1,0,0,4.83203125,11.79296875,1,0,0,1,68,228,76,1,,,,,,,,
,,,,,,,,,,,,,FF,,,,,,,,2.5164,,,,,,,,,,,,,,,,,,,,,,60fd9e57a0308edae3e23991,610368a738a3fada71e272b2,2021-07-29_22h49.53.224,Simcolourproject_2stim_asymm_v5,2020.2.10,MacIntel,60,61025ae37ef11b136ea224fe,,,,,,,,,172,80.14453125,-51.79296875,1,0,0,response3disk,,5,17.02734375,-0.484375,1,0,0,rectangle,17.02734375,-0.484375,1,0,0,17.02734375,-0.484375,1,0,0,1,69,229,33,1,,,,,,,,
,,,,,,,,,,,,,FF,,,,,,,,0.7663,,,,,,,,,,,,,,,,,,,,,,60fd9e57a0308edae3e23991,610368a738a3fada71e272b2,2021-07-29_22h49.53.224,Simcolourproject_2stim_asymm_v5,2020.2.10,MacIntel,60,61025ae37ef11b136ea224fe,,,,,,,,,1337,29.875,60.28125,1,0,0,response1disk,,7,0.01171875,-0.40234375,1,0,0,rectangle,0.01171875,-0.40234375,1,0,0,0.01171875,-0.40234375,1,0,0,1,70,230,92,1,,,,,,,,
,,,,,,,,,,,,,FF,,,,,,,,0.7669,,,,,,,,,,,,,,,,,,,,,,60fd9e57a0308edae3e23991,610368a738a3fada71e272b2,2021-07-29_22h49.53.224,Simcolourproject_2stim_asymm_v5,2020.2.10,MacIntel,60,61025ae37ef11b136ea224fe,,,,,,,,,1781,37.16796875,84.19921875,1,0,0,response1disk,,7,16.375,10.015625,1,0,0,rectangle,16.375,10.015625,1,0,0,16.375,10.015625,1,0,0,1,71,231,7,1,,,,,,,,
,,,,,,,,,,,,,FF,,,,,,,,0.7332,,,,,,,,,,,,,,,,,,,,,,60fd9e57a0308edae3e23991,610368a738a3fada71e272b2,2021-07-29_22h49.53.224,Simcolourproject_2stim_asymm_v5,2020.2.10,MacIntel,60,61025ae37ef11b136ea224fe,,,,,,,,,2001,32,75.21484375,1,0,0,response1disk,,7,10.125,12.4453125,1,0,0,rectangle,10.125,12.4453125,1,0,0,10.125,12.4453125,1,0,0,1,72,232,96,1,,,,,,,,
,,,,,,,,,,,,,FF,,,,,,,,0.6827,,,,,,,,,,,,,,,,,,,,,,60fd9e57a0308edae3e23991,610368a738a3fada71e272b2,2021-07-29_22h49.53.224,Simcolourproject_2stim_asymm_v5,2020.2.10,MacIntel,60,61025ae37ef11b136ea224fe,,,,,,,,,4109,40.3359375,92.4921875,1,0,0,response1disk,,7,9.4296875,-5,1,0,0,rectangle,9.4296875,-5,1,0,0,9.4296875,-5,1,0,0,1,73,233,115,1,,,,,,,,
,,,,,,,,,,,,,FF,,,,,,,,1.1828,,,,,,,,,,,,,,,,,,,,,,60fd9e57a0308edae3e23991,610368a738a3fada71e272b2,2021-07-29_22h49.53.224,Simcolourproject_2stim_asymm_v5,2020.2.10,MacIntel,60,61025ae37ef11b136ea224fe,,,,,,,,,3503,-35.671875,-73.36328125,1,0,0,response5disk,,3,-29.765625,-11.59765625,1,0,0,rectangle,-29.765625,-11.59765625,1,0,0,-29.765625,-11.59765625,1,0,0,1,74,234,104,1,,,,,,,,
,,,,,,,,,,,,,FF,,,,,,,,0.6665,,,,,,,,,,,,,,,,,,,,,,60fd9e57a0308edae3e23991,610368a738a3fada71e272b2,2021-07-29_22h49.53.224,Simcolourproject_2stim_asymm_v5,2020.2.10,MacIntel,60,61025ae37ef11b136ea224fe,,,,,,,,,428,18.84765625,63.3671875,1,0,0,response1disk,,7,-9.5859375,-12.9453125,1,0,0,rectangle,-9.5859375,-12.9453125,1,0,0,-9.5859375,-12.9453125,1,0,0,1,75,235,121,1,,,,,,,,
,,,,,,,,,,,,,FF,,,,,,,,0.5995,,,,,,,,,,,,,,,,,,,,,,60fd9e57a0308edae3e23991,610368a738a3fada71e272b2,2021-07-29_22h49.53.224,Simcolourproject_2stim_asymm_v5,2020.2.10,MacIntel,60,61025ae37ef11b136ea224fe,,,,,,,,,2976,36.25,65.14453125,1,0,0,response1disk,,7,25.875,7.54296875,1,0,0,rectangle,25.875,7.54296875,1,0,0,25.875,7.54296875,1,0,0,1,76,236,140,1,,,,,,,,
,,,,,,,,,,,,,FF,,,,,,,,1.0658,,,,,,,,,,,,,,,,,,,,,,60fd9e57a0308edae3e23991,610368a738a3fada71e272b2,2021-07-29_22h49.53.224,Simcolourproject_2stim_asymm_v5,2020.2.10,MacIntel,60,61025ae37ef11b136ea224fe,,,,,,,,,2654,71.93359375,36.32421875,1,0,0,response1disk,,6,-1.29296875,-6,1,0,0,rectangle,-1.29296875,-6,1,0,0,-1.29296875,-6,1,0,0,1,77,237,37,1,,,,,,,,
,,,,,,,,,,,,,FF,,,,,,,,0.8006,,,,,,,,,,,,,,,,,,,,,,60fd9e57a0308edae3e23991,610368a738a3fada71e272b2,2021-07-29_22h49.53.224,Simcolourproject_2stim_asymm_v5,2020.2.10,MacIntel,60,61025ae37ef11b136ea224fe,,,,,,,,,1616,37.25,83.16015625,1,0,0,response1disk,,7,15.72265625,-1.13671875,1,0,0,rectangle,15.72265625,-1.13671875,1,0,0,15.72265625,-1.13671875,1,0,0,1,78,238,142,1,,,,,,,,
,,,,,,,,,,,,,FF,,,,,,,,0.9669,,,,,,,,,,,,,,,,,,,,,,60fd9e57a0308edae3e23991,610368a738a3fada71e272b2,2021-07-29_22h49.53.224,Simcolourproject_2stim_asymm_v5,2020.2.10,MacIntel,60,61025ae37ef11b136ea224fe,,,,,,,,,4326,-29.68359375,69.00390625,1,0,0,response7disk,,0,-4.68359375,13.8359375,1,0,0,rectangle,-4.68359375,13.8359375,1,0,0,-4.68359375,13.8359375,1,0,0,1,79,239,134,1,,,,,,,,
,,,,,,,,,,,,,FF,,,,,,,,0.8998,,,,,,,,,,,,,,,,,,,,,,60fd9e57a0308edae3e23991,610368a738a3fada71e272b2,2021-07-29_22h49.53.224,Simcolourproject_2stim_asymm_v5,2020.2.10,MacIntel,60,61025ae37ef11b136ea224fe,,,,,,,,,846,27.91796875,47.171875,1,0,0,response1disk,,7,15.0703125,-0.70703125,1,0,0,rectangle,15.0703125,-0.70703125,1,0,0,15.0703125,-0.70703125,1,0,0,1,80,240,25,1,,,,,,,,
,,,,,,,,,,,,,FF,,,,,,,,0.6677,,,,,,,,,,,,,,,,,,,,,,60fd9e57a0308edae3e23991,610368a738a3fada71e272b2,2021-07-29_22h49.53.224,Simcolourproject_2stim_asymm_v5,2020.2.10,MacIntel,60,61025ae37ef11b136ea224fe,,,,,,,,,378,44.5859375,88.83984375,1,0,0,response1disk,,7,14.8046875,10.5703125,1,0,0,rectangle,-37.15625,-90.00390625,1,0,0,-15.36328125,-10.95703125,1,0,0,1,81,241,110,1,,response5disk_3,TRUE,3,3,"[18,138,318,48,177,64,87,282,242,68,226,273,165,221,13,21,5,170,244,130]",1.5496,rectangle
,,,,,,,,,,,,,FF,,,,,,,,0.8499,,,,,,,,,,,,,,,,,,,,,,60fd9e57a0308edae3e23991,610368a738a3fada71e272b2,2021-07-29_22h49.53.224,Simcolourproject_2stim_asymm_v5,2020.2.10,MacIntel,60,61025ae37ef11b136ea224fe,,,,,,,,,1068,24.22265625,59.83984375,1,0,0,response1disk,,7,5.16796875,-9.0546875,1,0,0,rectangle,5.16796875,-9.0546875,1,0,0,5.16796875,-9.0546875,1,0,0,1,82,242,85,1,,,,,,,,
,,,,,,,,,,,,,FF,,,,,,,,0.9836,,,,,,,,,,,,,,,,,,,,,,60fd9e57a0308edae3e23991,610368a738a3fada71e272b2,2021-07-29_22h49.53.224,Simcolourproject_2stim_asymm_v5,2020.2.10,MacIntel,60,61025ae37ef11b136ea224fe,,,,,,,,,3967,-40.32421875,-88.8359375,1,0,0,response5disk,,3,-8.02734375,1.015625,1,0,0,rectangle,-54.12890625,-32.70703125,1,0,0,-8.68359375,-13.95703125,1,0,0,1,83,243,149,1,,response5disk_3,TRUE,2,2,"[18,138,318,48,177,64,87,282,242,68,226,273,165,221,13,21,5,170,244,130]",1.7484,rectangle
,,,,,,,,,,,,,FF,,,,,,,,2.2155,,,,,,,,,,,,,,,,,,,,,,60fd9e57a0308edae3e23991,610368a738a3fada71e272b2,2021-07-29_22h49.53.224,Simcolourproject_2stim_asymm_v5,2020.2.10,MacIntel,60,61025ae37ef11b136ea224fe,,,,,,,,,1398,44.4453125,88.7421875,1,0,0,response1disk,,7,-12.41796875,-4.625,1,0,0,rectangle,-12.41796875,-4.625,1,0,0,-12.41796875,-4.625,1,0,0,1,84,244,129,1,,,,,,,,
,,,,,,,,,,,,,FF,,,,,,,,1.0837,,,,,,,,,,,,,,,,,,,,,,60fd9e57a0308edae3e23991,610368a738a3fada71e272b2,2021-07-29_22h49.53.224,Simcolourproject_2stim_asymm_v5,2020.2.10,MacIntel,60,61025ae37ef11b136ea224fe,,,,,,,,,2999,-56.171875,-95.2109375,1,0,0,response5disk,,3,-17.3203125,-11,1,0,0,rectangle,-17.3203125,-11,1,0,0,-17.3203125,-11,1,0,0,1,85,245,1,1,,,,,,,,
,,,,,,,,,,,,,FF,,,,,,,,0.7501,,,,,,,,,,,,,,,,,,,,,,60fd9e57a0308edae3e23991,610368a738a3fada71e272b2,2021-07-29_22h49.53.224,Simcolourproject_2stim_asymm_v5,2020.2.10,MacIntel,60,61025ae37ef11b136ea224fe,,,,,,,,,2344,22.265625,67.69921875,1,0,0,response1disk,,7,-6.5546875,7.4453125,1,0,0,rectangle,-6.5546875,7.4453125,1,0,0,-6.5546875,7.4453125,1,0,0,1,86,246,13,1,,,,,,,,
,,,,,,,,,,,,,FF,,,,,,,,1.0997,,,,,,,,,,,,,,,,,,,,,,60fd9e57a0308edae3e23991,610368a738a3fada71e272b2,2021-07-29_22h49.53.224,Simcolourproject_2stim_asymm_v5,2020.2.10,MacIntel,60,61025ae37ef11b136ea224fe,,,,,,,,,1971,-39.54296875,-65.73828125,1,0,0,response5disk,,3,-11.765625,-6.22265625,1,0,0,rectangle,-11.765625,-6.22265625,1,0,0,-11.765625,-6.22265625,1,0,0,1,87,247,19,1,,,,,,,,
,,,,,,,,,,,,,FF,,,,,,,,1.8999,,,,,,,,,,,,,,,,,,,,,,60fd9e57a0308edae3e23991,610368a738a3fada71e272b2,2021-07-29_22h49.53.224,Simcolourproject_2stim_asymm_v5,2020.2.10,MacIntel,60,61025ae37ef11b136ea224fe,,,,,,,,,3012,23.3046875,43.046875,1,0,0,response1disk,,7,-5.125,-10.34765625,1,0,0,rectangle,-5.125,-10.34765625,1,0,0,-5.125,-10.34765625,1,0,0,1,88,248,55,1,,,,,,,,
