key_resp.keys,key_resp.rt,key_resp_14.keys,key_resp_14.rt,key_resp_15.keys,key_resp_15.rt,key_resp_17.keys,key_resp_17.rt,key_resp_9.keys,key_resp_9.rt,key_resp_10.keys,key_resp_10.rt,practice_comparison,Ecc,mouse_5.x,mouse_5.y,mouse_5.leftButton,mouse_5.midButton,mouse_5.rightButton,mouse_5.clicked_name,pracsimilarity,response_time,mouse_10.x,mouse_10.y,mouse_10.leftButton,mouse_10.midButton,mouse_10.rightButton,mouse_10.clicked_name,mouse_7.x,mouse_7.y,mouse_7.leftButton,mouse_7.midButton,mouse_7.rightButton,mouse_6.x,mouse_6.y,mouse_6.leftButton,mouse_6.midButton,mouse_6.rightButton,duringprac.thisRepN,duringprac.thisTrialN,duringprac.thisN,duringprac.thisIndex,duringprac.ran,participant,session,date,expName,psychopyVersion,OS,frameRate,study_id,mouse_7.clicked_name,catchpracsimilarity,catch_response_time,catchnumberprac,catchtrialorderprac,mouse_6.clicked_name,key_resp_22.keys,key_resp_22.rt,realcomparison,mouse.x,mouse.y,mouse.leftButton,mouse.midButton,mouse.rightButton,mouse.clicked_name,Colour2,similarity,mouse_2.x,mouse_2.y,mouse_2.leftButton,mouse_2.midButton,mouse_2.rightButton,mouse_2.clicked_name,mouse_3.x,mouse_3.y,mouse_3.leftButton,mouse_3.midButton,mouse_3.rightButton,mouse_11.x,mouse_11.y,mouse_11.leftButton,mouse_11.midButton,mouse_11.rightButton,trials_2.thisRepN,trials_2.thisTrialN,trials_2.thisN,trials_2.thisIndex,trials_2.ran,Colour1,mouse_3.clicked_name,catchornah,catchsimilarity,catchnumber,catchtrialorder,catchRT,mouse_11.clicked_name
space,1.4786,space,5.4649,space,21.6567,space,8.865,space,1.8078,space,6.8466,89,PF,31.46875,93.62890625,1,0,0,response1disk_5,7,4.1858,0.7734375,-0.0625,1,0,0,rectangle_8,0.7734375,-0.0625,1,0,0,0.7734375,-0.0625,1,0,0,0,0,0,2,1,60fddf4bee48a7eaf1885893,61036f20d1f92de10ffb3f05,2021-07-29_22h17.20.970,Simcolourproject_2stim_asymm_v5,2020.2.10,MacIntel,60,61025ae37ef11b136ea224fe,,,,,,,,,,,,,,,,,,,,,,,,,,,,,,,,,,,,,,,,,,,,,,
,,,,,,,,,,,,132,PF,43.31640625,85.109375,1,0,0,response1disk_5,7,3.2176,-10.9140625,-15.31640625,1,0,0,rectangle_8,30.40625,58.55078125,1,0,0,2.3828125,1.08984375,1,0,0,0,1,1,4,1,60fddf4bee48a7eaf1885893,61036f20d1f92de10ffb3f05,2021-07-29_22h17.20.970,Simcolourproject_2stim_asymm_v5,2020.2.10,MacIntel,60,61025ae37ef11b136ea224fe,response1disk_7,7,2.4009,7,"[2,5]",rectangle_4,,,,,,,,,,,,,,,,,,,,,,,,,,,,,,,,,,,,,,,,
,,,,,,,,,,,,70,PF,55.30078125,83.984375,1,0,0,response1disk_5,7,4.5841,-7.21484375,3.15625,1,0,0,rectangle_8,-7.21484375,3.15625,1,0,0,-7.21484375,3.15625,1,0,0,0,2,2,1,1,60fddf4bee48a7eaf1885893,61036f20d1f92de10ffb3f05,2021-07-29_22h17.20.970,Simcolourproject_2stim_asymm_v5,2020.2.10,MacIntel,60,61025ae37ef11b136ea224fe,,,,,,,,,,,,,,,,,,,,,,,,,,,,,,,,,,,,,,,,,,,,,,
,,,,,,,,,,,,113,FF,68.04296875,19.5078125,1,0,0,response1disk_5,6,1.8835,-16.26953125,-5.484375,1,0,0,rectangle_8,-16.26953125,-5.484375,1,0,0,-16.26953125,-5.484375,1,0,0,0,3,3,3,1,60fddf4bee48a7eaf1885893,61036f20d1f92de10ffb3f05,2021-07-29_22h17.20.970,Simcolourproject_2stim_asymm_v5,2020.2.10,MacIntel,60,61025ae37ef11b136ea224fe,,,,,,,,,,,,,,,,,,,,,,,,,,,,,,,,,,,,,,,,,,,,,,
,,,,,,,,,,,,139,FF,-37.90625,-71.08984375,1,0,0,response5disk_5,3,3.4335,13.3984375,10.10546875,1,0,0,rectangle_8,26.01171875,68.171875,1,0,0,-8.99609375,2.0390625,1,0,0,0,4,4,5,1,60fddf4bee48a7eaf1885893,61036f20d1f92de10ffb3f05,2021-07-29_22h17.20.970,Simcolourproject_2stim_asymm_v5,2020.2.10,MacIntel,60,61025ae37ef11b136ea224fe,response1disk_7,7,1.6151,7,"[2,5]",rectangle_4,,,,,,,,,,,,,,,,,,,,,,,,,,,,,,,,,,,,,,,,
,,,,,,,,,,,,59,PF,-39.18359375,-73.67578125,1,0,0,response5disk_5,3,1.5836,-2.8046875,2.4765625,1,0,0,rectangle_8,-2.8046875,2.4765625,1,0,0,-2.8046875,2.4765625,1,0,0,0,5,5,6,1,60fddf4bee48a7eaf1885893,61036f20d1f92de10ffb3f05,2021-07-29_22h17.20.970,Simcolourproject_2stim_asymm_v5,2020.2.10,MacIntel,60,61025ae37ef11b136ea224fe,,,,,,,,,,,,,,,,,,,,,,,,,,,,,,,,,,,,,,,,,,,,,,
,,,,,,,,,,,,45,FF,65.0078125,-32.90625,1,0,0,response3disk_5,5,1.4318,6.69921875,8.21875,1,0,0,rectangle_8,6.69921875,8.21875,1,0,0,6.69921875,8.21875,1,0,0,0,6,6,0,1,60fddf4bee48a7eaf1885893,61036f20d1f92de10ffb3f05,2021-07-29_22h17.20.970,Simcolourproject_2stim_asymm_v5,2020.2.10,MacIntel,60,61025ae37ef11b136ea224fe,,,,,,,,,,,,,,,,,,,,,,,,,,,,,,,,,,,,,,,,,,,,,,
,,,,,,,,,,,,,FF,,,,,,,,1.483,,,,,,,,,,,,,,,,,,,,,,60fddf4bee48a7eaf1885893,61036f20d1f92de10ffb3f05,2021-07-29_22h17.20.970,Simcolourproject_2stim_asymm_v5,2020.2.10,MacIntel,60,61025ae37ef11b136ea224fe,,,,,,,space,3.7986,3216,69.6640625,29.44921875,1,0,0,response1disk,,6,2.40625,0.9140625,1,0,0,rectangle,2.40625,0.9140625,1,0,0,2.40625,0.9140625,1,0,0,0,0,0,17,1,,,,,,,,
,,,,,,,,,,,,,FF,,,,,,,,5.8999,,,,,,,,,,,,,,,,,,,,,,60fddf4bee48a7eaf1885893,61036f20d1f92de10ffb3f05,2021-07-29_22h17.20.970,Simcolourproject_2stim_asymm_v5,2020.2.10,MacIntel,60,61025ae37ef11b136ea224fe,,,,,,,,,2592,59.19921875,-19.44921875,1,0,0,response3disk,,5,-6.9453125,-1.328125,1,0,0,rectangle,-6.9453125,-1.328125,1,0,0,-6.9453125,-1.328125,1,0,0,0,1,1,49,1,,,,,,,,
,,,,,,,,,,,,,FF,,,,,,,,4.117,,,,,,,,,,,,,,,,,,,,,,60fddf4bee48a7eaf1885893,61036f20d1f92de10ffb3f05,2021-07-29_22h17.20.970,Simcolourproject_2stim_asymm_v5,2020.2.10,MacIntel,60,61025ae37ef11b136ea224fe,,,,,,,,,3263,28.59765625,77.94921875,1,0,0,response1disk,,7,-1.3671875,0.46484375,1,0,0,rectangle,-1.3671875,0.46484375,1,0,0,-1.3671875,0.46484375,1,0,0,0,2,2,86,1,,,,,,,,
,,,,,,,,,,,,,FF,,,,,,,,1.7833,,,,,,,,,,,,,,,,,,,,,,60fddf4bee48a7eaf1885893,61036f20d1f92de10ffb3f05,2021-07-29_22h17.20.970,Simcolourproject_2stim_asymm_v5,2020.2.10,MacIntel,60,61025ae37ef11b136ea224fe,,,,,,,,,3932,36.59765625,64.43359375,1,0,0,response1disk,,7,-4.86328125,-2.50390625,1,0,0,rectangle,-4.86328125,-2.50390625,1,0,0,-4.86328125,-2.50390625,1,0,0,0,3,3,156,1,,,,,,,,
,,,,,,,,,,,,,FF,,,,,,,,1.1667,,,,,,,,,,,,,,,,,,,,,,60fddf4bee48a7eaf1885893,61036f20d1f92de10ffb3f05,2021-07-29_22h17.20.970,Simcolourproject_2stim_asymm_v5,2020.2.10,MacIntel,60,61025ae37ef11b136ea224fe,,,,,,,,,3151,71.3046875,-32.39453125,1,0,0,response3disk,,5,-0.796875,3.75390625,1,0,0,rectangle,-0.796875,3.75390625,1,0,0,-0.796875,3.75390625,1,0,0,0,4,4,141,1,,,,,,,,
,,,,,,,,,,,,,FF,,,,,,,,1.068,,,,,,,,,,,,,,,,,,,,,,60fddf4bee48a7eaf1885893,61036f20d1f92de10ffb3f05,2021-07-29_22h17.20.970,Simcolourproject_2stim_asymm_v5,2020.2.10,MacIntel,60,61025ae37ef11b136ea224fe,,,,,,,,,995,85.73828125,-51.0546875,1,0,0,response3disk,,5,1.51953125,8.21484375,1,0,0,rectangle,1.51953125,8.21484375,1,0,0,1.51953125,8.21484375,1,0,0,0,5,5,41,1,,,,,,,,
,,,,,,,,,,,,,FF,,,,,,,,1.0503,,,,,,,,,,,,,,,,,,,,,,60fddf4bee48a7eaf1885893,61036f20d1f92de10ffb3f05,2021-07-29_22h17.20.970,Simcolourproject_2stim_asymm_v5,2020.2.10,MacIntel,60,61025ae37ef11b136ea224fe,,,,,,,,,3823,71.546875,-39.046875,1,0,0,response3disk,,5,10.0703125,1.609375,1,0,0,rectangle,10.0703125,1.609375,1,0,0,10.0703125,1.609375,1,0,0,0,6,6,48,1,,,,,,,,
,,,,,,,,,,,,,FF,,,,,,,,0.9988,,,,,,,,,,,,,,,,,,,,,,60fddf4bee48a7eaf1885893,61036f20d1f92de10ffb3f05,2021-07-29_22h17.20.970,Simcolourproject_2stim_asymm_v5,2020.2.10,MacIntel,60,61025ae37ef11b136ea224fe,,,,,,,,,2707,26.0546875,70.1015625,1,0,0,response1disk,,7,1.50390625,9.3984375,1,0,0,rectangle,1.50390625,9.3984375,1,0,0,1.50390625,9.3984375,1,0,0,0,7,7,89,1,,,,,,,,
,,,,,,,,,,,,,FF,,,,,,,,2.1168,,,,,,,,,,,,,,,,,,,,,,60fddf4bee48a7eaf1885893,61036f20d1f92de10ffb3f05,2021-07-29_22h17.20.970,Simcolourproject_2stim_asymm_v5,2020.2.10,MacIntel,60,61025ae37ef11b136ea224fe,,,,,,,,,131,27.1640625,59.7265625,1,0,0,response1disk,,7,-4.6953125,-12.3203125,1,0,0,rectangle,-4.6953125,-12.3203125,1,0,0,-4.6953125,-12.3203125,1,0,0,0,8,8,120,1,,,,,,,,
,,,,,,,,,,,,,FF,,,,,,,,0.8163,,,,,,,,,,,,,,,,,,,,,,60fddf4bee48a7eaf1885893,61036f20d1f92de10ffb3f05,2021-07-29_22h17.20.970,Simcolourproject_2stim_asymm_v5,2020.2.10,MacIntel,60,61025ae37ef11b136ea224fe,,,,,,,,,4274,23.2890625,71.140625,1,0,0,response1disk,,7,-14.75,-3.55859375,1,0,0,rectangle,-14.75,-3.55859375,1,0,0,-14.75,-3.55859375,1,0,0,0,9,9,105,1,,,,,,,,
,,,,,,,,,,,,,FF,,,,,,,,1.2007,,,,,,,,,,,,,,,,,,,,,,60fddf4bee48a7eaf1885893,61036f20d1f92de10ffb3f05,2021-07-29_22h17.20.970,Simcolourproject_2stim_asymm_v5,2020.2.10,MacIntel,60,61025ae37ef11b136ea224fe,,,,,,,,,3718,69.5,23.03515625,1,0,0,response1disk,,6,-5.58203125,-6.73828125,1,0,0,rectangle,-5.58203125,-6.73828125,1,0,0,-5.58203125,-6.73828125,1,0,0,0,10,10,61,1,,,,,,,,
,,,,,,,,,,,,,FF,,,,,,,,0.8002,,,,,,,,,,,,,,,,,,,,,,60fddf4bee48a7eaf1885893,61036f20d1f92de10ffb3f05,2021-07-29_22h17.20.970,Simcolourproject_2stim_asymm_v5,2020.2.10,MacIntel,60,61025ae37ef11b136ea224fe,,,,,,,,,2201,31.2109375,71.33984375,1,0,0,response1disk,,7,0.3671875,4.51171875,1,0,0,rectangle,36.125,-69.75390625,1,0,0,2.2890625,0.953125,1,0,0,0,11,11,58,1,,response3disk_3,TRUE,4,4,"[216,186,85,251,12,229,192,14,25,125,98,93,124,30,151,284,278,50,88,291]",2.4508,rectangle
,,,,,,,,,,,,,FF,,,,,,,,2.3989,,,,,,,,,,,,,,,,,,,,,,60fddf4bee48a7eaf1885893,61036f20d1f92de10ffb3f05,2021-07-29_22h17.20.970,Simcolourproject_2stim_asymm_v5,2020.2.10,MacIntel,60,61025ae37ef11b136ea224fe,,,,,,,,,3802,80.73828125,46.05859375,1,0,0,response1disk,,6,-11.23828125,-17.35546875,1,0,0,rectangle,-11.23828125,-17.35546875,1,0,0,-11.23828125,-17.35546875,1,0,0,0,12,12,117,1,,,,,,,,
,,,,,,,,,,,,,FF,,,,,,,,1.0491,,,,,,,,,,,,,,,,,,,,,,60fddf4bee48a7eaf1885893,61036f20d1f92de10ffb3f05,2021-07-29_22h17.20.970,Simcolourproject_2stim_asymm_v5,2020.2.10,MacIntel,60,61025ae37ef11b136ea224fe,,,,,,,,,3779,49.6015625,-32.80859375,1,0,0,response3disk,,5,-4.89453125,4.66796875,1,0,0,rectangle,22.484375,60.8125,1,0,0,5.1640625,4.19921875,1,0,0,0,13,13,34,1,,response1disk_3,TRUE,7,7,"[216,186,85,251,12,229,192,14,25,125,98,93,124,30,151,284,278,50,88,291]",1.5339,rectangle
,,,,,,,,,,,,,FF,,,,,,,,1,,,,,,,,,,,,,,,,,,,,,,60fddf4bee48a7eaf1885893,61036f20d1f92de10ffb3f05,2021-07-29_22h17.20.970,Simcolourproject_2stim_asymm_v5,2020.2.10,MacIntel,60,61025ae37ef11b136ea224fe,,,,,,,,,1178,29.8046875,71.58984375,1,0,0,response1disk,,7,5.671875,3.69921875,1,0,0,rectangle,5.671875,3.69921875,1,0,0,5.671875,3.69921875,1,0,0,0,14,14,81,1,,,,,,,,
,,,,,,,,,,,,,FF,,,,,,,,1.7833,,,,,,,,,,,,,,,,,,,,,,60fddf4bee48a7eaf1885893,61036f20d1f92de10ffb3f05,2021-07-29_22h17.20.970,Simcolourproject_2stim_asymm_v5,2020.2.10,MacIntel,60,61025ae37ef11b136ea224fe,,,,,,,,,4029,55.9296875,-37.63671875,1,0,0,response3disk,,5,-5.87109375,-0.8046875,1,0,0,rectangle,-5.87109375,-0.8046875,1,0,0,-5.87109375,-0.8046875,1,0,0,0,15,15,36,1,,,,,,,,
,,,,,,,,,,,,,FF,,,,,,,,1.4666,,,,,,,,,,,,,,,,,,,,,,60fddf4bee48a7eaf1885893,61036f20d1f92de10ffb3f05,2021-07-29_22h17.20.970,Simcolourproject_2stim_asymm_v5,2020.2.10,MacIntel,60,61025ae37ef11b136ea224fe,,,,,,,,,1929,36.17578125,67.77734375,1,0,0,response1disk,,7,1.0546875,-2.16015625,1,0,0,rectangle,1.0546875,-2.16015625,1,0,0,1.0546875,-2.16015625,1,0,0,0,16,16,3,1,,,,,,,,
,,,,,,,,,,,,,FF,,,,,,,,0.8159,,,,,,,,,,,,,,,,,,,,,,60fddf4bee48a7eaf1885893,61036f20d1f92de10ffb3f05,2021-07-29_22h17.20.970,Simcolourproject_2stim_asymm_v5,2020.2.10,MacIntel,60,61025ae37ef11b136ea224fe,,,,,,,,,756,33.61328125,66.0625,1,0,0,response1disk,,7,-1.28515625,2.91015625,1,0,0,rectangle,-1.28515625,2.91015625,1,0,0,-1.28515625,2.91015625,1,0,0,0,17,17,42,1,,,,,,,,
,,,,,,,,,,,,,FF,,,,,,,,1.1515,,,,,,,,,,,,,,,,,,,,,,60fddf4bee48a7eaf1885893,61036f20d1f92de10ffb3f05,2021-07-29_22h17.20.970,Simcolourproject_2stim_asymm_v5,2020.2.10,MacIntel,60,61025ae37ef11b136ea224fe,,,,,,,,,474,72.69921875,17.109375,1,0,0,response1disk,,6,-8.83984375,4.58203125,1,0,0,rectangle,-8.83984375,4.58203125,1,0,0,-8.83984375,4.58203125,1,0,0,0,18,18,23,1,,,,,,,,
,,,,,,,,,,,,,FF,,,,,,,,0.8994,,,,,,,,,,,,,,,,,,,,,,60fddf4bee48a7eaf1885893,61036f20d1f92de10ffb3f05,2021-07-29_22h17.20.970,Simcolourproject_2stim_asymm_v5,2020.2.10,MacIntel,60,61025ae37ef11b136ea224fe,,,,,,,,,1137,76.15234375,-39.1953125,1,0,0,response3disk,,5,-8.984375,1.5234375,1,0,0,rectangle,-8.984375,1.5234375,1,0,0,-8.984375,1.5234375,1,0,0,0,19,19,110,1,,,,,,,,
,,,,,,,,,,,,,FF,,,,,,,,1.8333,,,,,,,,,,,,,,,,,,,,,,60fddf4bee48a7eaf1885893,61036f20d1f92de10ffb3f05,2021-07-29_22h17.20.970,Simcolourproject_2stim_asymm_v5,2020.2.10,MacIntel,60,61025ae37ef11b136ea224fe,,,,,,,,,2622,74.96875,23.98828125,1,0,0,response1disk,,6,-7.62890625,14.78515625,1,0,0,rectangle,-7.62890625,14.78515625,1,0,0,-7.62890625,14.78515625,1,0,0,0,20,20,52,1,,,,,,,,
,,,,,,,,,,,,,FF,,,,,,,,5.9835,,,,,,,,,,,,,,,,,,,,,,60fddf4bee48a7eaf1885893,61036f20d1f92de10ffb3f05,2021-07-29_22h17.20.970,Simcolourproject_2stim_asymm_v5,2020.2.10,MacIntel,60,61025ae37ef11b136ea224fe,,,,,,,,,289,70.52734375,30.8046875,1,0,0,response1disk,,6,-7.91796875,15.99609375,1,0,0,rectangle,-7.91796875,15.99609375,1,0,0,-7.91796875,15.99609375,1,0,0,0,21,21,157,1,,,,,,,,
,,,,,,,,,,,,,FF,,,,,,,,0.9172,,,,,,,,,,,,,,,,,,,,,,60fddf4bee48a7eaf1885893,61036f20d1f92de10ffb3f05,2021-07-29_22h17.20.970,Simcolourproject_2stim_asymm_v5,2020.2.10,MacIntel,60,61025ae37ef11b136ea224fe,,,,,,,,,4034,74.13671875,16.32421875,1,0,0,response1disk,,6,-15.65625,-6.85546875,1,0,0,rectangle,-15.65625,-6.85546875,1,0,0,-15.65625,-6.85546875,1,0,0,0,22,22,133,1,,,,,,,,
,,,,,,,,,,,,,FF,,,,,,,,0.9832,,,,,,,,,,,,,,,,,,,,,,60fddf4bee48a7eaf1885893,61036f20d1f92de10ffb3f05,2021-07-29_22h17.20.970,Simcolourproject_2stim_asymm_v5,2020.2.10,MacIntel,60,61025ae37ef11b136ea224fe,,,,,,,,,2944,23.9765625,-76.47265625,1,0,0,response3disk,,4,-0.8515625,7.84375,1,0,0,rectangle,-0.8515625,7.84375,1,0,0,-0.8515625,7.84375,1,0,0,0,23,23,35,1,,,,,,,,
,,,,,,,,,,,,,FF,,,,,,,,1.4501,,,,,,,,,,,,,,,,,,,,,,60fddf4bee48a7eaf1885893,61036f20d1f92de10ffb3f05,2021-07-29_22h17.20.970,Simcolourproject_2stim_asymm_v5,2020.2.10,MacIntel,60,61025ae37ef11b136ea224fe,,,,,,,,,4144,33.6171875,-55.671875,1,0,0,response3disk,,4,10.046875,-8.70703125,1,0,0,rectangle,-81.0546875,-29.21875,1,0,0,3.57421875,6.27734375,1,0,0,0,24,24,46,1,,response5disk_3,TRUE,2,2,"[216,186,85,251,12,229,192,14,25,125,98,93,124,30,151,284,278,50,88,291]",2.1993,rectangle
,,,,,,,,,,,,,FF,,,,,,,,1.1017,,,,,,,,,,,,,,,,,,,,,,60fddf4bee48a7eaf1885893,61036f20d1f92de10ffb3f05,2021-07-29_22h17.20.970,Simcolourproject_2stim_asymm_v5,2020.2.10,MacIntel,60,61025ae37ef11b136ea224fe,,,,,,,,,2446,86.4765625,-28.046875,1,0,0,response3disk,,5,20.26171875,1.078125,1,0,0,rectangle,20.26171875,1.078125,1,0,0,20.26171875,1.078125,1,0,0,0,25,25,83,1,,,,,,,,
,,,,,,,,,,,,,FF,,,,,,,,1.9182,,,,,,,,,,,,,,,,,,,,,,60fddf4bee48a7eaf1885893,61036f20d1f92de10ffb3f05,2021-07-29_22h17.20.970,Simcolourproject_2stim_asymm_v5,2020.2.10,MacIntel,60,61025ae37ef11b136ea224fe,,,,,,,,,4364,28.40625,-86.62890625,1,0,0,response3disk,,4,-10.9140625,-3.35546875,1,0,0,rectangle,-10.9140625,-3.35546875,1,0,0,-10.9140625,-3.35546875,1,0,0,0,26,26,62,1,,,,,,,,
,,,,,,,,,,,,,FF,,,,,,,,0.9839,,,,,,,,,,,,,,,,,,,,,,60fddf4bee48a7eaf1885893,61036f20d1f92de10ffb3f05,2021-07-29_22h17.20.970,Simcolourproject_2stim_asymm_v5,2020.2.10,MacIntel,60,61025ae37ef11b136ea224fe,,,,,,,,,3060,53.94140625,31.6953125,1,0,0,response1disk,,6,-6.48828125,3.23046875,1,0,0,rectangle,-6.48828125,3.23046875,1,0,0,-6.48828125,3.23046875,1,0,0,0,27,27,152,1,,,,,,,,
,,,,,,,,,,,,,FF,,,,,,,,0.75,,,,,,,,,,,,,,,,,,,,,,60fddf4bee48a7eaf1885893,61036f20d1f92de10ffb3f05,2021-07-29_22h17.20.970,Simcolourproject_2stim_asymm_v5,2020.2.10,MacIntel,60,61025ae37ef11b136ea224fe,,,,,,,,,2584,21.875,71.51171875,1,0,0,response1disk,,7,-24.70703125,-2.671875,1,0,0,rectangle,-24.70703125,-2.671875,1,0,0,-24.70703125,-2.671875,1,0,0,0,28,28,99,1,,,,,,,,
,,,,,,,,,,,,,FF,,,,,,,,1.3675,,,,,,,,,,,,,,,,,,,,,,60fddf4bee48a7eaf1885893,61036f20d1f92de10ffb3f05,2021-07-29_22h17.20.970,Simcolourproject_2stim_asymm_v5,2020.2.10,MacIntel,60,61025ae37ef11b136ea224fe,,,,,,,,,990,79.61328125,22.23046875,1,0,0,response1disk,,6,2.1640625,-6.59375,1,0,0,rectangle,-74.35546875,28.67578125,1,0,0,1.37109375,-6.50390625,1,0,0,0,29,29,111,1,,response7disk_3,TRUE,1,1,"[216,186,85,251,12,229,192,14,25,125,98,93,124,30,151,284,278,50,88,291]",1.3512,rectangle
,,,,,,,,,,,,,FF,,,,,,,,1.0683,,,,,,,,,,,,,,,,,,,,,,60fddf4bee48a7eaf1885893,61036f20d1f92de10ffb3f05,2021-07-29_22h17.20.970,Simcolourproject_2stim_asymm_v5,2020.2.10,MacIntel,60,61025ae37ef11b136ea224fe,,,,,,,,,66,51.140625,-33.70703125,1,0,0,response3disk,,5,-5.76171875,-0.78515625,1,0,0,rectangle,-5.76171875,-0.78515625,1,0,0,-5.76171875,-0.78515625,1,0,0,0,30,30,119,1,,,,,,,,
,,,,,,,,,,,,,FF,,,,,,,,1.0183,,,,,,,,,,,,,,,,,,,,,,60fddf4bee48a7eaf1885893,61036f20d1f92de10ffb3f05,2021-07-29_22h17.20.970,Simcolourproject_2stim_asymm_v5,2020.2.10,MacIntel,60,61025ae37ef11b136ea224fe,,,,,,,,,323,23.171875,53.11328125,1,0,0,response1disk,,7,-11.6875,-0.16796875,1,0,0,rectangle,-11.6875,-0.16796875,1,0,0,-11.6875,-0.16796875,1,0,0,0,31,31,139,1,,,,,,,,
,,,,,,,,,,,,,FF,,,,,,,,0.9664,,,,,,,,,,,,,,,,,,,,,,60fddf4bee48a7eaf1885893,61036f20d1f92de10ffb3f05,2021-07-29_22h17.20.970,Simcolourproject_2stim_asymm_v5,2020.2.10,MacIntel,60,61025ae37ef11b136ea224fe,,,,,,,,,3343,-39.1015625,-59.58984375,1,0,0,response5disk,,3,1.94921875,0.19921875,1,0,0,rectangle,1.94921875,0.19921875,1,0,0,1.94921875,0.19921875,1,0,0,0,32,32,28,1,,,,,,,,
,,,,,,,,,,,,,FF,,,,,,,,0.7836,,,,,,,,,,,,,,,,,,,,,,60fddf4bee48a7eaf1885893,61036f20d1f92de10ffb3f05,2021-07-29_22h17.20.970,Simcolourproject_2stim_asymm_v5,2020.2.10,MacIntel,60,61025ae37ef11b136ea224fe,,,,,,,,,1,-66.921875,-31.68359375,1,0,0,response5disk,,2,-11.59375,11.43359375,1,0,0,rectangle,-11.59375,11.43359375,1,0,0,-11.59375,11.43359375,1,0,0,0,33,33,95,1,,,,,,,,
,,,,,,,,,,,,,FF,,,,,,,,1.301,,,,,,,,,,,,,,,,,,,,,,60fddf4bee48a7eaf1885893,61036f20d1f92de10ffb3f05,2021-07-29_22h17.20.970,Simcolourproject_2stim_asymm_v5,2020.2.10,MacIntel,60,61025ae37ef11b136ea224fe,,,,,,,,,2843,60.2421875,-38.640625,1,0,0,response3disk,,5,-6.7734375,-5.75,1,0,0,rectangle,-6.7734375,-5.75,1,0,0,-6.7734375,-5.75,1,0,0,0,34,34,112,1,,,,,,,,
,,,,,,,,,,,,,FF,,,,,,,,1.2671,,,,,,,,,,,,,,,,,,,,,,60fddf4bee48a7eaf1885893,61036f20d1f92de10ffb3f05,2021-07-29_22h17.20.970,Simcolourproject_2stim_asymm_v5,2020.2.10,MacIntel,60,61025ae37ef11b136ea224fe,,,,,,,,,1724,36.65625,63.0703125,1,0,0,response1disk,,7,5.34375,7.5,1,0,0,rectangle,5.34375,7.5,1,0,0,5.34375,7.5,1,0,0,0,35,35,16,1,,,,,,,,
,,,,,,,,,,,,,FF,,,,,,,,1.066,,,,,,,,,,,,,,,,,,,,,,60fddf4bee48a7eaf1885893,61036f20d1f92de10ffb3f05,2021-07-29_22h17.20.970,Simcolourproject_2stim_asymm_v5,2020.2.10,MacIntel,60,61025ae37ef11b136ea224fe,,,,,,,,,4288,22.92578125,83.1015625,1,0,0,response1disk,,7,-6.55859375,6.3203125,1,0,0,rectangle,-6.55859375,6.3203125,1,0,0,-6.55859375,6.3203125,1,0,0,0,36,36,63,1,,,,,,,,
,,,,,,,,,,,,,FF,,,,,,,,0.7667,,,,,,,,,,,,,,,,,,,,,,60fddf4bee48a7eaf1885893,61036f20d1f92de10ffb3f05,2021-07-29_22h17.20.970,Simcolourproject_2stim_asymm_v5,2020.2.10,MacIntel,60,61025ae37ef11b136ea224fe,,,,,,,,,2647,24.47265625,83.734375,1,0,0,response1disk,,7,-8.14453125,-2.8515625,1,0,0,rectangle,-8.14453125,-2.8515625,1,0,0,-8.14453125,-2.8515625,1,0,0,0,37,37,76,1,,,,,,,,
,,,,,,,,,,,,,FF,,,,,,,,0.9007,,,,,,,,,,,,,,,,,,,,,,60fddf4bee48a7eaf1885893,61036f20d1f92de10ffb3f05,2021-07-29_22h17.20.970,Simcolourproject_2stim_asymm_v5,2020.2.10,MacIntel,60,61025ae37ef11b136ea224fe,,,,,,,,,1612,50.2890625,-40.375,1,0,0,response3disk,,5,-17.44140625,-4.875,1,0,0,rectangle,-17.44140625,-4.875,1,0,0,-17.44140625,-4.875,1,0,0,0,38,38,39,1,,,,,,,,
,,,,,,,,,,,,,FF,,,,,,,,0.7168,,,,,,,,,,,,,,,,,,,,,,60fddf4bee48a7eaf1885893,61036f20d1f92de10ffb3f05,2021-07-29_22h17.20.970,Simcolourproject_2stim_asymm_v5,2020.2.10,MacIntel,60,61025ae37ef11b136ea224fe,,,,,,,,,1109,25.8671875,69.421875,1,0,0,response1disk,,7,-2.5703125,6.6328125,1,0,0,rectangle,-2.5703125,6.6328125,1,0,0,-2.5703125,6.6328125,1,0,0,0,39,39,147,1,,,,,,,,
,,,,,,,,,,,,,FF,,,,,,,,0.8844,,,,,,,,,,,,,,,,,,,,,,60fddf4bee48a7eaf1885893,61036f20d1f92de10ffb3f05,2021-07-29_22h17.20.970,Simcolourproject_2stim_asymm_v5,2020.2.10,MacIntel,60,61025ae37ef11b136ea224fe,,,,,,,,,560,76.6875,-44.078125,1,0,0,response3disk,,5,-6.81640625,4.94140625,1,0,0,rectangle,-6.81640625,4.94140625,1,0,0,-6.81640625,4.94140625,1,0,0,0,40,40,32,1,,,,,,,,
,,,,,,,,,,,,,FF,,,,,,,,1.0006,,,,,,,,,,,,,,,,,,,,,,60fddf4bee48a7eaf1885893,61036f20d1f92de10ffb3f05,2021-07-29_22h17.20.970,Simcolourproject_2stim_asymm_v5,2020.2.10,MacIntel,60,61025ae37ef11b136ea224fe,,,,,,,,,2748,24.125,55.10546875,1,0,0,response1disk,,7,-7.5546875,-3.140625,1,0,0,rectangle,-7.5546875,-3.140625,1,0,0,-7.5546875,-3.140625,1,0,0,0,41,41,65,1,,,,,,,,
,,,,,,,,,,,,,FF,,,,,,,,1.0671,,,,,,,,,,,,,,,,,,,,,,60fddf4bee48a7eaf1885893,61036f20d1f92de10ffb3f05,2021-07-29_22h17.20.970,Simcolourproject_2stim_asymm_v5,2020.2.10,MacIntel,60,61025ae37ef11b136ea224fe,,,,,,,,,2423,37.91015625,-63.34765625,1,0,0,response3disk,,4,4.66015625,-5.1484375,1,0,0,rectangle,4.66015625,-5.1484375,1,0,0,4.66015625,-5.1484375,1,0,0,0,42,42,2,1,,,,,,,,
,,,,,,,,,,,,,FF,,,,,,,,0.6503,,,,,,,,,,,,,,,,,,,,,,60fddf4bee48a7eaf1885893,61036f20d1f92de10ffb3f05,2021-07-29_22h17.20.970,Simcolourproject_2stim_asymm_v5,2020.2.10,MacIntel,60,61025ae37ef11b136ea224fe,,,,,,,,,2626,31.30859375,74.59375,1,0,0,response1disk,,7,-2.78515625,-9.16015625,1,0,0,rectangle,-2.78515625,-9.16015625,1,0,0,-2.78515625,-9.16015625,1,0,0,0,43,43,94,1,,,,,,,,
,,,,,,,,,,,,,FF,,,,,,,,0.6334,,,,,,,,,,,,,,,,,,,,,,60fddf4bee48a7eaf1885893,61036f20d1f92de10ffb3f05,2021-07-29_22h17.20.970,Simcolourproject_2stim_asymm_v5,2020.2.10,MacIntel,60,61025ae37ef11b136ea224fe,,,,,,,,,3905,18.80078125,79.640625,1,0,0,response1disk,,7,4.2890625,-4.6640625,1,0,0,rectangle,4.2890625,-4.6640625,1,0,0,4.2890625,-4.6640625,1,0,0,0,44,44,44,1,,,,,,,,
,,,,,,,,,,,,,FF,,,,,,,,1.983,,,,,,,,,,,,,,,,,,,,,,60fddf4bee48a7eaf1885893,61036f20d1f92de10ffb3f05,2021-07-29_22h17.20.970,Simcolourproject_2stim_asymm_v5,2020.2.10,MacIntel,60,61025ae37ef11b136ea224fe,,,,,,,,,1361,22.3359375,52.59375,1,0,0,response1disk,,7,3.3984375,-2.00390625,1,0,0,rectangle,3.3984375,-2.00390625,1,0,0,3.3984375,-2.00390625,1,0,0,0,45,45,27,1,,,,,,,,
,,,,,,,,,,,,,FF,,,,,,,,2.3337,,,,,,,,,,,,,,,,,,,,,,60fddf4bee48a7eaf1885893,61036f20d1f92de10ffb3f05,2021-07-29_22h17.20.970,Simcolourproject_2stim_asymm_v5,2020.2.10,MacIntel,60,61025ae37ef11b136ea224fe,,,,,,,,,477,66.2109375,40.56640625,1,0,0,response1disk,,6,-1.19921875,0.21484375,1,0,0,rectangle,-1.19921875,0.21484375,1,0,0,-1.19921875,0.21484375,1,0,0,0,46,46,18,1,,,,,,,,
,,,,,,,,,,,,,FF,,,,,,,,1.5164,,,,,,,,,,,,,,,,,,,,,,60fddf4bee48a7eaf1885893,61036f20d1f92de10ffb3f05,2021-07-29_22h17.20.970,Simcolourproject_2stim_asymm_v5,2020.2.10,MacIntel,60,61025ae37ef11b136ea224fe,,,,,,,,,2288,81.51171875,42.46484375,1,0,0,response1disk,,6,2.73828125,-3.93359375,1,0,0,rectangle,2.73828125,-3.93359375,1,0,0,2.73828125,-3.93359375,1,0,0,0,47,47,131,1,,,,,,,,
,,,,,,,,,,,,,FF,,,,,,,,0.8834,,,,,,,,,,,,,,,,,,,,,,60fddf4bee48a7eaf1885893,61036f20d1f92de10ffb3f05,2021-07-29_22h17.20.970,Simcolourproject_2stim_asymm_v5,2020.2.10,MacIntel,60,61025ae37ef11b136ea224fe,,,,,,,,,377,23.56640625,83.48828125,1,0,0,response1disk,,7,-3.94140625,-6.71484375,1,0,0,rectangle,-3.94140625,-6.71484375,1,0,0,-3.94140625,-6.71484375,1,0,0,0,48,48,30,1,,,,,,,,
,,,,,,,,,,,,,FF,,,,,,,,0.7677,,,,,,,,,,,,,,,,,,,,,,60fddf4bee48a7eaf1885893,61036f20d1f92de10ffb3f05,2021-07-29_22h17.20.970,Simcolourproject_2stim_asymm_v5,2020.2.10,MacIntel,60,61025ae37ef11b136ea224fe,,,,,,,,,3433,-61.88671875,-21.12109375,1,0,0,response5disk,,2,-15.53515625,-4.64453125,1,0,0,rectangle,-76.53125,-29.6875,1,0,0,-13.8203125,-8.03125,1,0,0,0,49,49,93,1,,response5disk_3,TRUE,2,2,"[216,186,85,251,12,229,192,14,25,125,98,93,124,30,151,284,278,50,88,291]",1.6824,rectangle
,,,,,,,,,,,,,FF,,,,,,,,1.317,,,,,,,,,,,,,,,,,,,,,,60fddf4bee48a7eaf1885893,61036f20d1f92de10ffb3f05,2021-07-29_22h17.20.970,Simcolourproject_2stim_asymm_v5,2020.2.10,MacIntel,60,61025ae37ef11b136ea224fe,,,,,,,,,2504,37.328125,64.26171875,1,0,0,response1disk,,7,2.375,3.453125,1,0,0,rectangle,2.375,3.453125,1,0,0,2.375,3.453125,1,0,0,0,50,50,106,1,,,,,,,,
,,,,,,,,,,,,,FF,,,,,,,,1.0677,,,,,,,,,,,,,,,,,,,,,,60fddf4bee48a7eaf1885893,61036f20d1f92de10ffb3f05,2021-07-29_22h17.20.970,Simcolourproject_2stim_asymm_v5,2020.2.10,MacIntel,60,61025ae37ef11b136ea224fe,,,,,,,,,590,21.265625,75.56640625,1,0,0,response1disk,,7,0.5,-9.8515625,1,0,0,rectangle,0.5,-9.8515625,1,0,0,0.5,-9.8515625,1,0,0,0,51,51,124,1,,,,,,,,
,,,,,,,,,,,,,FF,,,,,,,,0.5326,,,,,,,,,,,,,,,,,,,,,,60fddf4bee48a7eaf1885893,61036f20d1f92de10ffb3f05,2021-07-29_22h17.20.970,Simcolourproject_2stim_asymm_v5,2020.2.10,MacIntel,60,61025ae37ef11b136ea224fe,,,,,,,,,4257,44.28125,71.15234375,1,0,0,response1disk,,7,6.375,0.3359375,1,0,0,rectangle,6.375,0.3359375,1,0,0,6.375,0.3359375,1,0,0,0,52,52,72,1,,,,,,,,
,,,,,,,,,,,,,FF,,,,,,,,0.668,,,,,,,,,,,,,,,,,,,,,,60fddf4bee48a7eaf1885893,61036f20d1f92de10ffb3f05,2021-07-29_22h17.20.970,Simcolourproject_2stim_asymm_v5,2020.2.10,MacIntel,60,61025ae37ef11b136ea224fe,,,,,,,,,4012,42.15625,51.7109375,1,0,0,response1disk,,7,11.85546875,6.1796875,1,0,0,rectangle,11.85546875,6.1796875,1,0,0,11.85546875,6.1796875,1,0,0,0,53,53,38,1,,,,,,,,
,,,,,,,,,,,,,FF,,,,,,,,0.6161,,,,,,,,,,,,,,,,,,,,,,60fddf4bee48a7eaf1885893,61036f20d1f92de10ffb3f05,2021-07-29_22h17.20.970,Simcolourproject_2stim_asymm_v5,2020.2.10,MacIntel,60,61025ae37ef11b136ea224fe,,,,,,,,,959,33.4609375,72.671875,1,0,0,response1disk,,7,-0.69921875,-6.50390625,1,0,0,rectangle,-0.69921875,-6.50390625,1,0,0,-0.69921875,-6.50390625,1,0,0,0,54,54,51,1,,,,,,,,
,,,,,,,,,,,,,FF,,,,,,,,0.6683,,,,,,,,,,,,,,,,,,,,,,60fddf4bee48a7eaf1885893,61036f20d1f92de10ffb3f05,2021-07-29_22h17.20.970,Simcolourproject_2stim_asymm_v5,2020.2.10,MacIntel,60,61025ae37ef11b136ea224fe,,,,,,,,,984,63.015625,29.77734375,1,0,0,response1disk,,6,15.2890625,4.4765625,1,0,0,rectangle,15.2890625,4.4765625,1,0,0,15.2890625,4.4765625,1,0,0,0,55,55,108,1,,,,,,,,
,,,,,,,,,,,,,FF,,,,,,,,0.901,,,,,,,,,,,,,,,,,,,,,,60fddf4bee48a7eaf1885893,61036f20d1f92de10ffb3f05,2021-07-29_22h17.20.970,Simcolourproject_2stim_asymm_v5,2020.2.10,MacIntel,60,61025ae37ef11b136ea224fe,,,,,,,,,2340,27.43359375,77.05078125,1,0,0,response1disk,,7,6.49609375,-0.17578125,1,0,0,rectangle,6.49609375,-0.17578125,1,0,0,6.49609375,-0.17578125,1,0,0,0,56,56,142,1,,,,,,,,
,,,,,,,,,,,,,FF,,,,,,,,0.6156,,,,,,,,,,,,,,,,,,,,,,60fddf4bee48a7eaf1885893,61036f20d1f92de10ffb3f05,2021-07-29_22h17.20.970,Simcolourproject_2stim_asymm_v5,2020.2.10,MacIntel,60,61025ae37ef11b136ea224fe,,,,,,,,,996,30.58984375,66.51171875,1,0,0,response1disk,,7,5.54296875,3.5234375,1,0,0,rectangle,5.54296875,3.5234375,1,0,0,5.54296875,3.5234375,1,0,0,0,57,57,57,1,,,,,,,,
,,,,,,,,,,,,,FF,,,,,,,,0.6675,,,,,,,,,,,,,,,,,,,,,,60fddf4bee48a7eaf1885893,61036f20d1f92de10ffb3f05,2021-07-29_22h17.20.970,Simcolourproject_2stim_asymm_v5,2020.2.10,MacIntel,60,61025ae37ef11b136ea224fe,,,,,,,,,670,35.0078125,73.328125,1,0,0,response1disk,,7,5.13671875,4.046875,1,0,0,rectangle,5.13671875,4.046875,1,0,0,5.13671875,4.046875,1,0,0,0,58,58,146,1,,,,,,,,
,,,,,,,,,,,,,FF,,,,,,,,0.8667,,,,,,,,,,,,,,,,,,,,,,60fddf4bee48a7eaf1885893,61036f20d1f92de10ffb3f05,2021-07-29_22h17.20.970,Simcolourproject_2stim_asymm_v5,2020.2.10,MacIntel,60,61025ae37ef11b136ea224fe,,,,,,,,,370,67.1640625,20.72265625,1,0,0,response1disk,,6,4.17578125,15.25,1,0,0,rectangle,4.17578125,15.25,1,0,0,4.17578125,15.25,1,0,0,0,59,59,56,1,,,,,,,,
,,,,,,,,,,,,,FF,,,,,,,,0.9676,,,,,,,,,,,,,,,,,,,,,,60fddf4bee48a7eaf1885893,61036f20d1f92de10ffb3f05,2021-07-29_22h17.20.970,Simcolourproject_2stim_asymm_v5,2020.2.10,MacIntel,60,61025ae37ef11b136ea224fe,,,,,,,,,4093,15.28515625,54.92578125,1,0,0,response1disk,,7,-11.828125,-9.1640625,1,0,0,rectangle,-11.828125,-9.1640625,1,0,0,-11.828125,-9.1640625,1,0,0,0,60,60,91,1,,,,,,,,
,,,,,,,,,,,,,FF,,,,,,,,0.5672,,,,,,,,,,,,,,,,,,,,,,60fddf4bee48a7eaf1885893,61036f20d1f92de10ffb3f05,2021-07-29_22h17.20.970,Simcolourproject_2stim_asymm_v5,2020.2.10,MacIntel,60,61025ae37ef11b136ea224fe,,,,,,,,,84,27.046875,74.41796875,1,0,0,response1disk,,7,5.88671875,9.69921875,1,0,0,rectangle,5.88671875,9.69921875,1,0,0,5.88671875,9.69921875,1,0,0,0,61,61,10,1,,,,,,,,
,,,,,,,,,,,,,FF,,,,,,,,1.0508,,,,,,,,,,,,,,,,,,,,,,60fddf4bee48a7eaf1885893,61036f20d1f92de10ffb3f05,2021-07-29_22h17.20.970,Simcolourproject_2stim_asymm_v5,2020.2.10,MacIntel,60,61025ae37ef11b136ea224fe,,,,,,,,,2175,61.4921875,50.2421875,1,0,0,response1disk,,6,7.30078125,6.26171875,1,0,0,rectangle,7.30078125,6.26171875,1,0,0,7.30078125,6.26171875,1,0,0,0,62,62,135,1,,,,,,,,
,,,,,,,,,,,,,FF,,,,,,,,1.2503,,,,,,,,,,,,,,,,,,,,,,60fddf4bee48a7eaf1885893,61036f20d1f92de10ffb3f05,2021-07-29_22h17.20.970,Simcolourproject_2stim_asymm_v5,2020.2.10,MacIntel,60,61025ae37ef11b136ea224fe,,,,,,,,,2388,26.8828125,71.10546875,1,0,0,response1disk,,7,-5.37890625,-0.8359375,1,0,0,rectangle,-5.37890625,-0.8359375,1,0,0,-5.37890625,-0.8359375,1,0,0,0,63,63,14,1,,,,,,,,
,,,,,,,,,,,,,FF,,,,,,,,1.3975,,,,,,,,,,,,,,,,,,,,,,60fddf4bee48a7eaf1885893,61036f20d1f92de10ffb3f05,2021-07-29_22h17.20.970,Simcolourproject_2stim_asymm_v5,2020.2.10,MacIntel,60,61025ae37ef11b136ea224fe,,,,,,,,,3405,42.28515625,55.6796875,1,0,0,response1disk,,7,-4.7578125,-5.94140625,1,0,0,rectangle,-4.7578125,-5.94140625,1,0,0,-4.7578125,-5.94140625,1,0,0,0,64,64,85,1,,,,,,,,
,,,,,,,,,,,,,FF,,,,,,,,0.6511,,,,,,,,,,,,,,,,,,,,,,60fddf4bee48a7eaf1885893,61036f20d1f92de10ffb3f05,2021-07-29_22h17.20.970,Simcolourproject_2stim_asymm_v5,2020.2.10,MacIntel,60,61025ae37ef11b136ea224fe,,,,,,,,,4213,28.6015625,90.26171875,1,0,0,response1disk,,7,-2.34765625,-5.58984375,1,0,0,rectangle,-2.34765625,-5.58984375,1,0,0,-2.34765625,-5.58984375,1,0,0,0,65,65,25,1,,,,,,,,
,,,,,,,,,,,,,FF,,,,,,,,0.6493,,,,,,,,,,,,,,,,,,,,,,60fddf4bee48a7eaf1885893,61036f20d1f92de10ffb3f05,2021-07-29_22h17.20.970,Simcolourproject_2stim_asymm_v5,2020.2.10,MacIntel,60,61025ae37ef11b136ea224fe,,,,,,,,,942,35.6328125,79.13671875,1,0,0,response1disk,,7,11.79296875,1.15625,1,0,0,rectangle,11.79296875,1.15625,1,0,0,11.79296875,1.15625,1,0,0,0,66,66,31,1,,,,,,,,
,,,,,,,,,,,,,FF,,,,,,,,0.5829,,,,,,,,,,,,,,,,,,,,,,60fddf4bee48a7eaf1885893,61036f20d1f92de10ffb3f05,2021-07-29_22h17.20.970,Simcolourproject_2stim_asymm_v5,2020.2.10,MacIntel,60,61025ae37ef11b136ea224fe,,,,,,,,,1012,43.00390625,82.78515625,1,0,0,response1disk,,7,14.09765625,3.67578125,1,0,0,rectangle,14.09765625,3.67578125,1,0,0,14.09765625,3.67578125,1,0,0,0,67,67,84,1,,,,,,,,
,,,,,,,,,,,,,FF,,,,,,,,0.9682,,,,,,,,,,,,,,,,,,,,,,60fddf4bee48a7eaf1885893,61036f20d1f92de10ffb3f05,2021-07-29_22h17.20.970,Simcolourproject_2stim_asymm_v5,2020.2.10,MacIntel,60,61025ae37ef11b136ea224fe,,,,,,,,,3393,22.640625,-62.55859375,1,0,0,response3disk,,4,5.17578125,11.05859375,1,0,0,rectangle,5.17578125,11.05859375,1,0,0,5.17578125,11.05859375,1,0,0,0,68,68,68,1,,,,,,,,
,,,,,,,,,,,,,FF,,,,,,,,0.8173,,,,,,,,,,,,,,,,,,,,,,60fddf4bee48a7eaf1885893,61036f20d1f92de10ffb3f05,2021-07-29_22h17.20.970,Simcolourproject_2stim_asymm_v5,2020.2.10,MacIntel,60,61025ae37ef11b136ea224fe,,,,,,,,,1525,39.93359375,-77.48828125,1,0,0,response3disk,,4,8.99609375,1.2734375,1,0,0,rectangle,8.99609375,1.2734375,1,0,0,8.99609375,1.2734375,1,0,0,0,69,69,151,1,,,,,,,,
,,,,,,,,,,,,,FF,,,,,,,,1.0179,,,,,,,,,,,,,,,,,,,,,,60fddf4bee48a7eaf1885893,61036f20d1f92de10ffb3f05,2021-07-29_22h17.20.970,Simcolourproject_2stim_asymm_v5,2020.2.10,MacIntel,60,61025ae37ef11b136ea224fe,,,,,,,,,3271,55.0390625,35.20703125,1,0,0,response1disk,,6,3.2421875,5.9609375,1,0,0,rectangle,3.2421875,5.9609375,1,0,0,3.2421875,5.9609375,1,0,0,0,70,70,136,1,,,,,,,,
,,,,,,,,,,,,,FF,,,,,,,,0.5999,,,,,,,,,,,,,,,,,,,,,,60fddf4bee48a7eaf1885893,61036f20d1f92de10ffb3f05,2021-07-29_22h17.20.970,Simcolourproject_2stim_asymm_v5,2020.2.10,MacIntel,60,61025ae37ef11b136ea224fe,,,,,,,,,840,32.60546875,73.1953125,1,0,0,response1disk,,7,9.92578125,5.00390625,1,0,0,rectangle,9.92578125,5.00390625,1,0,0,9.92578125,5.00390625,1,0,0,0,71,71,87,1,,,,,,,,
,,,,,,,,,,,,,FF,,,,,,,,1.1329,,,,,,,,,,,,,,,,,,,,,,60fddf4bee48a7eaf1885893,61036f20d1f92de10ffb3f05,2021-07-29_22h17.20.970,Simcolourproject_2stim_asymm_v5,2020.2.10,MacIntel,60,61025ae37ef11b136ea224fe,,,,,,,,,3048,-41.59375,-55.5390625,1,0,0,response5disk,,3,6.82421875,4.05078125,1,0,0,rectangle,6.82421875,4.05078125,1,0,0,6.82421875,4.05078125,1,0,0,0,72,72,109,1,,,,,,,,
,,,,,,,,,,,,,FF,,,,,,,,0.7834,,,,,,,,,,,,,,,,,,,,,,60fddf4bee48a7eaf1885893,61036f20d1f92de10ffb3f05,2021-07-29_22h17.20.970,Simcolourproject_2stim_asymm_v5,2020.2.10,MacIntel,60,61025ae37ef11b136ea224fe,,,,,,,,,3966,-63.8046875,-22.59375,1,0,0,response5disk,,2,-6.70703125,1.2421875,1,0,0,rectangle,-6.70703125,1.2421875,1,0,0,-6.70703125,1.2421875,1,0,0,0,73,73,8,1,,,,,,,,
,,,,,,,,,,,,,FF,,,,,,,,0.9502,,,,,,,,,,,,,,,,,,,,,,60fddf4bee48a7eaf1885893,61036f20d1f92de10ffb3f05,2021-07-29_22h17.20.970,Simcolourproject_2stim_asymm_v5,2020.2.10,MacIntel,60,61025ae37ef11b136ea224fe,,,,,,,,,1723,50.09375,-23.1953125,1,0,0,response3disk,,5,-0.5859375,-1.9453125,1,0,0,rectangle,-0.5859375,-1.9453125,1,0,0,-0.5859375,-1.9453125,1,0,0,0,74,74,6,1,,,,,,,,
,,,,,,,,,,,,,FF,,,,,,,,1.1336,,,,,,,,,,,,,,,,,,,,,,60fddf4bee48a7eaf1885893,61036f20d1f92de10ffb3f05,2021-07-29_22h17.20.970,Simcolourproject_2stim_asymm_v5,2020.2.10,MacIntel,60,61025ae37ef11b136ea224fe,,,,,,,,,1834,54.6953125,-36.9453125,1,0,0,response3disk,,5,-0.04296875,3.0625,1,0,0,rectangle,-0.04296875,3.0625,1,0,0,-0.04296875,3.0625,1,0,0,0,75,75,43,1,,,,,,,,
,,,,,,,,,,,,,FF,,,,,,,,0.501,,,,,,,,,,,,,,,,,,,,,,60fddf4bee48a7eaf1885893,61036f20d1f92de10ffb3f05,2021-07-29_22h17.20.970,Simcolourproject_2stim_asymm_v5,2020.2.10,MacIntel,60,61025ae37ef11b136ea224fe,,,,,,,,,1648,19.16796875,50.94140625,1,0,0,response1disk,,7,0.76171875,-5.93359375,1,0,0,rectangle,0.76171875,-5.93359375,1,0,0,0.76171875,-5.93359375,1,0,0,0,76,76,88,1,,,,,,,,
,,,,,,,,,,,,,FF,,,,,,,,1.3326,,,,,,,,,,,,,,,,,,,,,,60fddf4bee48a7eaf1885893,61036f20d1f92de10ffb3f05,2021-07-29_22h17.20.970,Simcolourproject_2stim_asymm_v5,2020.2.10,MacIntel,60,61025ae37ef11b136ea224fe,,,,,,,,,196,58.96875,39.15625,1,0,0,response1disk,,6,15.14453125,2.9375,1,0,0,rectangle,15.14453125,2.9375,1,0,0,15.14453125,2.9375,1,0,0,0,77,77,98,1,,,,,,,,
,,,,,,,,,,,,,FF,,,,,,,,2.1503,,,,,,,,,,,,,,,,,,,,,,60fddf4bee48a7eaf1885893,61036f20d1f92de10ffb3f05,2021-07-29_22h17.20.970,Simcolourproject_2stim_asymm_v5,2020.2.10,MacIntel,60,61025ae37ef11b136ea224fe,,,,,,,,,1996,24.0390625,71.11328125,1,0,0,response1disk,,7,-13.36328125,5.0625,1,0,0,rectangle,-13.36328125,5.0625,1,0,0,-13.36328125,5.0625,1,0,0,0,78,78,145,1,,,,,,,,
,,,,,,,,,,,,,FF,,,,,,,,0.5665,,,,,,,,,,,,,,,,,,,,,,60fddf4bee48a7eaf1885893,61036f20d1f92de10ffb3f05,2021-07-29_22h17.20.970,Simcolourproject_2stim_asymm_v5,2020.2.10,MacIntel,60,61025ae37ef11b136ea224fe,,,,,,,,,331,52.0078125,67.16015625,1,0,0,response1disk,,7,7.83984375,-3.546875,1,0,0,rectangle,7.83984375,-3.546875,1,0,0,7.83984375,-3.546875,1,0,0,0,79,79,20,1,,,,,,,,
,,,,,,,,,,,,,FF,,,,,,,,0.8342,,,,,,,,,,,,,,,,,,,,,,60fddf4bee48a7eaf1885893,61036f20d1f92de10ffb3f05,2021-07-29_22h17.20.970,Simcolourproject_2stim_asymm_v5,2020.2.10,MacIntel,60,61025ae37ef11b136ea224fe,,,,,,,,,2216,60.1875,28.8046875,1,0,0,response1disk,,6,13.51171875,5.64453125,1,0,0,rectangle,13.51171875,5.64453125,1,0,0,13.51171875,5.64453125,1,0,0,0,80,80,114,1,,,,,,,,
,,,,,,,,,,,,,FF,,,,,,,,0.6176,,,,,,,,,,,,,,,,,,,,,,60fddf4bee48a7eaf1885893,61036f20d1f92de10ffb3f05,2021-07-29_22h17.20.970,Simcolourproject_2stim_asymm_v5,2020.2.10,MacIntel,60,61025ae37ef11b136ea224fe,,,,,,,,,4300,37.1015625,78.11328125,1,0,0,response1disk,,7,7.61328125,-8.3203125,1,0,0,rectangle,7.61328125,-8.3203125,1,0,0,7.61328125,-8.3203125,1,0,0,0,81,81,33,1,,,,,,,,
,,,,,,,,,,,,,FF,,,,,,,,2.4,,,,,,,,,,,,,,,,,,,,,,60fddf4bee48a7eaf1885893,61036f20d1f92de10ffb3f05,2021-07-29_22h17.20.970,Simcolourproject_2stim_asymm_v5,2020.2.10,MacIntel,60,61025ae37ef11b136ea224fe,,,,,,,,,2662,39.65234375,-70.140625,1,0,0,response3disk,,4,-4.8359375,9.2265625,1,0,0,rectangle,-4.8359375,9.2265625,1,0,0,-4.8359375,9.2265625,1,0,0,0,82,82,73,1,,,,,,,,
,,,,,,,,,,,,,FF,,,,,,,,0.5165,,,,,,,,,,,,,,,,,,,,,,60fddf4bee48a7eaf1885893,61036f20d1f92de10ffb3f05,2021-07-29_22h17.20.970,Simcolourproject_2stim_asymm_v5,2020.2.10,MacIntel,60,61025ae37ef11b136ea224fe,,,,,,,,,1165,37.91015625,92.16796875,1,0,0,response1disk,,7,4.28125,16.73046875,1,0,0,rectangle,4.28125,16.73046875,1,0,0,4.28125,16.73046875,1,0,0,0,83,83,118,1,,,,,,,,
,,,,,,,,,,,,,FF,,,,,,,,0.8816,,,,,,,,,,,,,,,,,,,,,,60fddf4bee48a7eaf1885893,61036f20d1f92de10ffb3f05,2021-07-29_22h17.20.970,Simcolourproject_2stim_asymm_v5,2020.2.10,MacIntel,60,61025ae37ef11b136ea224fe,,,,,,,,,2295,-35.78515625,-78.41015625,1,0,0,response5disk,,3,-2.765625,2.79296875,1,0,0,rectangle,-25.078125,76.765625,1,0,0,-1.484375,1.0703125,1,0,0,0,84,84,79,1,,response7disk_3,TRUE,0,0,"[216,186,85,251,12,229,192,14,25,125,98,93,124,30,151,284,278,50,88,291]",1.4167,rectangle
,,,,,,,,,,,,,FF,,,,,,,,1.0329,,,,,,,,,,,,,,,,,,,,,,60fddf4bee48a7eaf1885893,61036f20d1f92de10ffb3f05,2021-07-29_22h17.20.970,Simcolourproject_2stim_asymm_v5,2020.2.10,MacIntel,60,61025ae37ef11b136ea224fe,,,,,,,,,2474,35.890625,31.97265625,1,0,0,response1disk,,6,6.109375,-4.32421875,1,0,0,rectangle,6.109375,-4.32421875,1,0,0,6.109375,-4.32421875,1,0,0,0,85,85,60,1,,,,,,,,
,,,,,,,,,,,,,FF,,,,,,,,0.5837,,,,,,,,,,,,,,,,,,,,,,60fddf4bee48a7eaf1885893,61036f20d1f92de10ffb3f05,2021-07-29_22h17.20.970,Simcolourproject_2stim_asymm_v5,2020.2.10,MacIntel,60,61025ae37ef11b136ea224fe,,,,,,,,,855,24.796875,62.90625,1,0,0,response1disk,,7,2.9765625,-0.3515625,1,0,0,rectangle,2.9765625,-0.3515625,1,0,0,2.9765625,-0.3515625,1,0,0,0,86,86,96,1,,,,,,,,
,,,,,,,,,,,,,FF,,,,,,,,0.9499,,,,,,,,,,,,,,,,,,,,,,60fddf4bee48a7eaf1885893,61036f20d1f92de10ffb3f05,2021-07-29_22h17.20.970,Simcolourproject_2stim_asymm_v5,2020.2.10,MacIntel,60,61025ae37ef11b136ea224fe,,,,,,,,,1036,44.70703125,32.4453125,1,0,0,response1disk,,6,-5.26171875,7.140625,1,0,0,rectangle,29.35546875,-80.79296875,1,0,0,10.35546875,-7.74609375,1,0,0,0,87,87,55,1,,response3disk_3,TRUE,4,4,"[216,186,85,251,12,229,192,14,25,125,98,93,124,30,151,284,278,50,88,291]",2.2993,rectangle
,,,,,,,,,,,,,FF,,,,,,,,0.7504,,,,,,,,,,,,,,,,,,,,,,60fddf4bee48a7eaf1885893,61036f20d1f92de10ffb3f05,2021-07-29_22h17.20.970,Simcolourproject_2stim_asymm_v5,2020.2.10,MacIntel,60,61025ae37ef11b136ea224fe,,,,,,,,,1082,30.640625,67.984375,1,0,0,response1disk,,7,6.84765625,3.2734375,1,0,0,rectangle,6.84765625,3.2734375,1,0,0,6.84765625,3.2734375,1,0,0,0,88,88,78,1,,,,,,,,
,,,,,,,,,,,,,FF,,,,,,,,0.6163,,,,,,,,,,,,,,,,,,,,,,60fddf4bee48a7eaf1885893,61036f20d1f92de10ffb3f05,2021-07-29_22h17.20.970,Simcolourproject_2stim_asymm_v5,2020.2.10,MacIntel,60,61025ae37ef11b136ea224fe,,,,,,,,,2925,26.234375,47.42578125,1,0,0,response1disk,,7,9.44921875,4.859375,1,0,0,rectangle,9.44921875,4.859375,1,0,0,9.44921875,4.859375,1,0,0,0,89,89,154,1,,,,,,,,
,,,,,,,,,,,,,FF,,,,,,,,0.5989,,,,,,,,,,,,,,,,,,,,,,60fddf4bee48a7eaf1885893,61036f20d1f92de10ffb3f05,2021-07-29_22h17.20.970,Simcolourproject_2stim_asymm_v5,2020.2.10,MacIntel,60,61025ae37ef11b136ea224fe,,,,,,,,,699,28.76953125,64.390625,1,0,0,response1disk,,7,4.61328125,3.66015625,1,0,0,rectangle,4.61328125,3.66015625,1,0,0,4.61328125,3.66015625,1,0,0,0,90,90,140,1,,,,,,,,
,,,,,,,,,,,,,FF,,,,,,,,0.6005,,,,,,,,,,,,,,,,,,,,,,60fddf4bee48a7eaf1885893,61036f20d1f92de10ffb3f05,2021-07-29_22h17.20.970,Simcolourproject_2stim_asymm_v5,2020.2.10,MacIntel,60,61025ae37ef11b136ea224fe,,,,,,,,,4246,32.9921875,71.08984375,1,0,0,response1disk,,7,-0.73828125,-0.94921875,1,0,0,rectangle,-0.73828125,-0.94921875,1,0,0,-0.73828125,-0.94921875,1,0,0,0,91,91,115,1,,,,,,,,
,,,,,,,,,,,,,FF,,,,,,,,0.6996,,,,,,,,,,,,,,,,,,,,,,60fddf4bee48a7eaf1885893,61036f20d1f92de10ffb3f05,2021-07-29_22h17.20.970,Simcolourproject_2stim_asymm_v5,2020.2.10,MacIntel,60,61025ae37ef11b136ea224fe,,,,,,,,,2732,87.88671875,-46.75390625,1,0,0,response3disk,,5,-15.6015625,3.8203125,1,0,0,rectangle,-33.05078125,-49.5546875,1,0,0,-7.5625,2.92578125,1,0,0,0,92,92,71,1,,response5disk_3,TRUE,3,3,"[216,186,85,251,12,229,192,14,25,125,98,93,124,30,151,284,278,50,88,291]",1.6666,rectangle
,,,,,,,,,,,,,FF,,,,,,,,1.017,,,,,,,,,,,,,,,,,,,,,,60fddf4bee48a7eaf1885893,61036f20d1f92de10ffb3f05,2021-07-29_22h17.20.970,Simcolourproject_2stim_asymm_v5,2020.2.10,MacIntel,60,61025ae37ef11b136ea224fe,,,,,,,,,1120,77.07421875,37.9140625,1,0,0,response1disk,,6,7.34375,-9.03125,1,0,0,rectangle,7.34375,-9.03125,1,0,0,7.34375,-9.03125,1,0,0,0,93,93,12,1,,,,,,,,
,,,,,,,,,,,,,FF,,,,,,,,0.7328,,,,,,,,,,,,,,,,,,,,,,60fddf4bee48a7eaf1885893,61036f20d1f92de10ffb3f05,2021-07-29_22h17.20.970,Simcolourproject_2stim_asymm_v5,2020.2.10,MacIntel,60,61025ae37ef11b136ea224fe,,,,,,,,,3491,35.71875,67.359375,1,0,0,response1disk,,7,3.875,3.6875,1,0,0,rectangle,3.875,3.6875,1,0,0,3.875,3.6875,1,0,0,0,94,94,97,1,,,,,,,,
,,,,,,,,,,,,,FF,,,,,,,,0.6339,,,,,,,,,,,,,,,,,,,,,,60fddf4bee48a7eaf1885893,61036f20d1f92de10ffb3f05,2021-07-29_22h17.20.970,Simcolourproject_2stim_asymm_v5,2020.2.10,MacIntel,60,61025ae37ef11b136ea224fe,,,,,,,,,807,62.5078125,-33.77734375,1,0,0,response3disk,,5,-10.2734375,15.26171875,1,0,0,rectangle,-10.2734375,15.26171875,1,0,0,-10.2734375,15.26171875,1,0,0,0,95,95,1,1,,,,,,,,
,,,,,,,,,,,,,FF,,,,,,,,0.599,,,,,,,,,,,,,,,,,,,,,,60fddf4bee48a7eaf1885893,61036f20d1f92de10ffb3f05,2021-07-29_22h17.20.970,Simcolourproject_2stim_asymm_v5,2020.2.10,MacIntel,60,61025ae37ef11b136ea224fe,,,,,,,,,856,23.28515625,82.80078125,1,0,0,response1disk,,7,-1.828125,1.93359375,1,0,0,rectangle,-1.828125,1.93359375,1,0,0,-1.828125,1.93359375,1,0,0,0,96,96,127,1,,,,,,,,
,,,,,,,,,,,,,FF,,,,,,,,0.7501,,,,,,,,,,,,,,,,,,,,,,60fddf4bee48a7eaf1885893,61036f20d1f92de10ffb3f05,2021-07-29_22h17.20.970,Simcolourproject_2stim_asymm_v5,2020.2.10,MacIntel,60,61025ae37ef11b136ea224fe,,,,,,,,,2203,25.18359375,67.3984375,1,0,0,response1disk,,7,7.75,0.03125,1,0,0,rectangle,-26.0546875,71.4296875,1,0,0,0.59765625,12.18359375,1,0,0,0,97,97,130,1,,response7disk_3,TRUE,0,0,"[216,186,85,251,12,229,192,14,25,125,98,93,124,30,151,284,278,50,88,291]",1.4665,rectangle
,,,,,,,,,,,,,FF,,,,,,,,1.9497,,,,,,,,,,,,,,,,,,,,,,60fddf4bee48a7eaf1885893,61036f20d1f92de10ffb3f05,2021-07-29_22h17.20.970,Simcolourproject_2stim_asymm_v5,2020.2.10,MacIntel,60,61025ae37ef11b136ea224fe,,,,,,,,,1661,-22.42578125,-74.67578125,1,0,0,response5disk,,3,3.703125,8.45703125,1,0,0,rectangle,3.703125,8.45703125,1,0,0,3.703125,8.45703125,1,0,0,0,98,98,53,1,,,,,,,,
,,,,,,,,,,,,,FF,,,,,,,,1.6671,,,,,,,,,,,,,,,,,,,,,,60fddf4bee48a7eaf1885893,61036f20d1f92de10ffb3f05,2021-07-29_22h17.20.970,Simcolourproject_2stim_asymm_v5,2020.2.10,MacIntel,60,61025ae37ef11b136ea224fe,,,,,,,,,2017,49.2109375,49.87109375,1,0,0,response1disk,,7,-0.234375,14.8125,1,0,0,rectangle,-0.234375,14.8125,1,0,0,-0.234375,14.8125,1,0,0,0,99,99,129,1,,,,,,,,
,,,,,,,,,,,,,FF,,,,,,,,1.2997,,,,,,,,,,,,,,,,,,,,,,60fddf4bee48a7eaf1885893,61036f20d1f92de10ffb3f05,2021-07-29_22h17.20.970,Simcolourproject_2stim_asymm_v5,2020.2.10,MacIntel,60,61025ae37ef11b136ea224fe,,,,,,,,,412,34.5703125,69.66796875,1,0,0,response1disk,,7,1.65625,11.8515625,1,0,0,rectangle,1.65625,11.8515625,1,0,0,1.65625,11.8515625,1,0,0,0,100,100,134,1,,,,,,,,
,,,,,,,,,,,,,FF,,,,,,,,2.7332,,,,,,,,,,,,,,,,,,,,,,60fddf4bee48a7eaf1885893,61036f20d1f92de10ffb3f05,2021-07-29_22h17.20.970,Simcolourproject_2stim_asymm_v5,2020.2.10,MacIntel,60,61025ae37ef11b136ea224fe,,,,,,,,,3938,-37.23046875,88.32421875,1,0,0,response7disk,,0,10.640625,-2.61328125,1,0,0,rectangle,10.640625,-2.61328125,1,0,0,10.640625,-2.61328125,1,0,0,0,101,101,75,1,,,,,,,,
,,,,,,,,,,,,,FF,,,,,,,,0.8163,,,,,,,,,,,,,,,,,,,,,,60fddf4bee48a7eaf1885893,61036f20d1f92de10ffb3f05,2021-07-29_22h17.20.970,Simcolourproject_2stim_asymm_v5,2020.2.10,MacIntel,60,61025ae37ef11b136ea224fe,,,,,,,,,499,52.6875,93.22265625,1,0,0,response1disk,,7,7.33984375,2.3359375,1,0,0,rectangle,7.33984375,2.3359375,1,0,0,7.33984375,2.3359375,1,0,0,0,102,102,144,1,,,,,,,,
,,,,,,,,,,,,,FF,,,,,,,,0.9177,,,,,,,,,,,,,,,,,,,,,,60fddf4bee48a7eaf1885893,61036f20d1f92de10ffb3f05,2021-07-29_22h17.20.970,Simcolourproject_2stim_asymm_v5,2020.2.10,MacIntel,60,61025ae37ef11b136ea224fe,,,,,,,,,549,-75.88671875,25.70703125,1,0,0,response7disk,,1,1.05078125,-10.59765625,1,0,0,rectangle,1.05078125,-10.59765625,1,0,0,1.05078125,-10.59765625,1,0,0,0,103,103,67,1,,,,,,,,
,,,,,,,,,,,,,FF,,,,,,,,1.6,,,,,,,,,,,,,,,,,,,,,,60fddf4bee48a7eaf1885893,61036f20d1f92de10ffb3f05,2021-07-29_22h17.20.970,Simcolourproject_2stim_asymm_v5,2020.2.10,MacIntel,60,61025ae37ef11b136ea224fe,,,,,,,,,67,31.578125,-90.81640625,1,0,0,response3disk,,4,12.77734375,15.48828125,1,0,0,rectangle,12.77734375,15.48828125,1,0,0,12.77734375,15.48828125,1,0,0,0,104,104,132,1,,,,,,,,
,,,,,,,,,,,,,FF,,,,,,,,1.1338,,,,,,,,,,,,,,,,,,,,,,60fddf4bee48a7eaf1885893,61036f20d1f92de10ffb3f05,2021-07-29_22h17.20.970,Simcolourproject_2stim_asymm_v5,2020.2.10,MacIntel,60,61025ae37ef11b136ea224fe,,,,,,,,,304,69.5078125,33.24609375,1,0,0,response1disk,,6,13.11328125,8.19921875,1,0,0,rectangle,13.11328125,8.19921875,1,0,0,13.11328125,8.19921875,1,0,0,0,105,105,102,1,,,,,,,,
,,,,,,,,,,,,,FF,,,,,,,,1.4337,,,,,,,,,,,,,,,,,,,,,,60fddf4bee48a7eaf1885893,61036f20d1f92de10ffb3f05,2021-07-29_22h17.20.970,Simcolourproject_2stim_asymm_v5,2020.2.10,MacIntel,60,61025ae37ef11b136ea224fe,,,,,,,,,3978,77.765625,33.703125,1,0,0,response1disk,,6,-3.5234375,7.19921875,1,0,0,rectangle,-3.5234375,7.19921875,1,0,0,-3.5234375,7.19921875,1,0,0,0,106,106,64,1,,,,,,,,
,,,,,,,,,,,,,FF,,,,,,,,0.6184,,,,,,,,,,,,,,,,,,,,,,60fddf4bee48a7eaf1885893,61036f20d1f92de10ffb3f05,2021-07-29_22h17.20.970,Simcolourproject_2stim_asymm_v5,2020.2.10,MacIntel,60,61025ae37ef11b136ea224fe,,,,,,,,,1706,21.74609375,47.43359375,1,0,0,response1disk,,7,-1.8515625,0.93359375,1,0,0,rectangle,-1.8515625,0.93359375,1,0,0,-1.8515625,0.93359375,1,0,0,0,107,107,22,1,,,,,,,,
,,,,,,,,,,,,,FF,,,,,,,,0.8,,,,,,,,,,,,,,,,,,,,,,60fddf4bee48a7eaf1885893,61036f20d1f92de10ffb3f05,2021-07-29_22h17.20.970,Simcolourproject_2stim_asymm_v5,2020.2.10,MacIntel,60,61025ae37ef11b136ea224fe,,,,,,,,,698,59.44921875,30.4765625,1,0,0,response1disk,,6,12.85546875,12.31640625,1,0,0,rectangle,12.85546875,12.31640625,1,0,0,12.85546875,12.31640625,1,0,0,0,108,108,158,1,,,,,,,,
,,,,,,,,,,,,,FF,,,,,,,,1.151,,,,,,,,,,,,,,,,,,,,,,60fddf4bee48a7eaf1885893,61036f20d1f92de10ffb3f05,2021-07-29_22h17.20.970,Simcolourproject_2stim_asymm_v5,2020.2.10,MacIntel,60,61025ae37ef11b136ea224fe,,,,,,,,,722,-40.5546875,-82.53125,1,0,0,response5disk,,3,4.390625,-6.45703125,1,0,0,rectangle,4.390625,-6.45703125,1,0,0,4.390625,-6.45703125,1,0,0,0,109,109,66,1,,,,,,,,
,,,,,,,,,,,,,FF,,,,,,,,1.2983,,,,,,,,,,,,,,,,,,,,,,60fddf4bee48a7eaf1885893,61036f20d1f92de10ffb3f05,2021-07-29_22h17.20.970,Simcolourproject_2stim_asymm_v5,2020.2.10,MacIntel,60,61025ae37ef11b136ea224fe,,,,,,,,,2374,84.2265625,-35.79296875,1,0,0,response3disk,,5,27.25,-5.95703125,1,0,0,rectangle,27.25,-5.95703125,1,0,0,27.25,-5.95703125,1,0,0,0,110,110,107,1,,,,,,,,
,,,,,,,,,,,,,FF,,,,,,,,0.6343,,,,,,,,,,,,,,,,,,,,,,60fddf4bee48a7eaf1885893,61036f20d1f92de10ffb3f05,2021-07-29_22h17.20.970,Simcolourproject_2stim_asymm_v5,2020.2.10,MacIntel,60,61025ae37ef11b136ea224fe,,,,,,,,,2794,54.984375,22.2734375,1,0,0,response1disk,,6,-9.82421875,-0.11328125,1,0,0,rectangle,-9.82421875,-0.11328125,1,0,0,-9.82421875,-0.11328125,1,0,0,0,111,111,9,1,,,,,,,,
,,,,,,,,,,,,,FF,,,,,,,,0.6172,,,,,,,,,,,,,,,,,,,,,,60fddf4bee48a7eaf1885893,61036f20d1f92de10ffb3f05,2021-07-29_22h17.20.970,Simcolourproject_2stim_asymm_v5,2020.2.10,MacIntel,60,61025ae37ef11b136ea224fe,,,,,,,,,4330,17.04296875,61.1328125,1,0,0,response1disk,,7,0.12890625,15.29296875,1,0,0,rectangle,0.12890625,15.29296875,1,0,0,0.12890625,15.29296875,1,0,0,0,112,112,45,1,,,,,,,,
,,,,,,,,,,,,,FF,,,,,,,,1.9172,,,,,,,,,,,,,,,,,,,,,,60fddf4bee48a7eaf1885893,61036f20d1f92de10ffb3f05,2021-07-29_22h17.20.970,Simcolourproject_2stim_asymm_v5,2020.2.10,MacIntel,60,61025ae37ef11b136ea224fe,,,,,,,,,1198,72.6328125,-48.19921875,1,0,0,response3disk,,5,12.421875,0.73046875,1,0,0,rectangle,12.421875,0.73046875,1,0,0,12.421875,0.73046875,1,0,0,0,113,113,24,1,,,,,,,,
,,,,,,,,,,,,,FF,,,,,,,,0.7003,,,,,,,,,,,,,,,,,,,,,,60fddf4bee48a7eaf1885893,61036f20d1f92de10ffb3f05,2021-07-29_22h17.20.970,Simcolourproject_2stim_asymm_v5,2020.2.10,MacIntel,60,61025ae37ef11b136ea224fe,,,,,,,,,2830,31.7265625,57.3828125,1,0,0,response1disk,,7,0.62109375,0.9453125,1,0,0,rectangle,0.62109375,0.9453125,1,0,0,0.62109375,0.9453125,1,0,0,0,114,114,77,1,,,,,,,,
,,,,,,,,,,,,,FF,,,,,,,,0.5661,,,,,,,,,,,,,,,,,,,,,,60fddf4bee48a7eaf1885893,61036f20d1f92de10ffb3f05,2021-07-29_22h17.20.970,Simcolourproject_2stim_asymm_v5,2020.2.10,MacIntel,60,61025ae37ef11b136ea224fe,,,,,,,,,1997,28.2109375,69.56640625,1,0,0,response1disk,,7,8.5,9.8359375,1,0,0,rectangle,8.5,9.8359375,1,0,0,8.5,9.8359375,1,0,0,0,115,115,153,1,,,,,,,,
,,,,,,,,,,,,,FF,,,,,,,,0.5834,,,,,,,,,,,,,,,,,,,,,,60fddf4bee48a7eaf1885893,61036f20d1f92de10ffb3f05,2021-07-29_22h17.20.970,Simcolourproject_2stim_asymm_v5,2020.2.10,MacIntel,60,61025ae37ef11b136ea224fe,,,,,,,,,4275,27.26953125,65.64453125,1,0,0,response1disk,,7,5.52734375,12.31640625,1,0,0,rectangle,5.52734375,12.31640625,1,0,0,5.52734375,12.31640625,1,0,0,0,116,116,21,1,,,,,,,,
,,,,,,,,,,,,,FF,,,,,,,,0.6508,,,,,,,,,,,,,,,,,,,,,,60fddf4bee48a7eaf1885893,61036f20d1f92de10ffb3f05,2021-07-29_22h17.20.970,Simcolourproject_2stim_asymm_v5,2020.2.10,MacIntel,60,61025ae37ef11b136ea224fe,,,,,,,,,1438,28.52734375,62.765625,1,0,0,response1disk,,7,-3.8203125,-12.9140625,1,0,0,rectangle,-3.8203125,-12.9140625,1,0,0,-3.8203125,-12.9140625,1,0,0,0,117,117,13,1,,,,,,,,
,,,,,,,,,,,,,FF,,,,,,,,0.6667,,,,,,,,,,,,,,,,,,,,,,60fddf4bee48a7eaf1885893,61036f20d1f92de10ffb3f05,2021-07-29_22h17.20.970,Simcolourproject_2stim_asymm_v5,2020.2.10,MacIntel,60,61025ae37ef11b136ea224fe,,,,,,,,,1471,21.01171875,51.5390625,1,0,0,response1disk,,7,-0.58984375,1.8203125,1,0,0,rectangle,-0.58984375,1.8203125,1,0,0,-0.58984375,1.8203125,1,0,0,0,118,118,50,1,,,,,,,,
,,,,,,,,,,,,,FF,,,,,,,,0.55,,,,,,,,,,,,,,,,,,,,,,60fddf4bee48a7eaf1885893,61036f20d1f92de10ffb3f05,2021-07-29_22h17.20.970,Simcolourproject_2stim_asymm_v5,2020.2.10,MacIntel,60,61025ae37ef11b136ea224fe,,,,,,,,,2341,19.0234375,44.7890625,1,0,0,response1disk,,7,0.6640625,1.8515625,1,0,0,rectangle,0.6640625,1.8515625,1,0,0,0.6640625,1.8515625,1,0,0,0,119,119,69,1,,,,,,,,
,,,,,,,,,,,,,FF,,,,,,,,0.8507,,,,,,,,,,,,,,,,,,,,,,60fddf4bee48a7eaf1885893,61036f20d1f92de10ffb3f05,2021-07-29_22h17.20.970,Simcolourproject_2stim_asymm_v5,2020.2.10,MacIntel,60,61025ae37ef11b136ea224fe,,,,,,,,,852,30.87890625,63.640625,1,0,0,response1disk,,7,8.78515625,12.37109375,1,0,0,rectangle,8.78515625,12.37109375,1,0,0,8.78515625,12.37109375,1,0,0,0,120,120,121,1,,,,,,,,
,,,,,,,,,,,,,FF,,,,,,,,0.5171,,,,,,,,,,,,,,,,,,,,,,60fddf4bee48a7eaf1885893,61036f20d1f92de10ffb3f05,2021-07-29_22h17.20.970,Simcolourproject_2stim_asymm_v5,2020.2.10,MacIntel,60,61025ae37ef11b136ea224fe,,,,,,,,,1098,28.85546875,55.4765625,1,0,0,response1disk,,7,4.57421875,-1.953125,1,0,0,rectangle,4.57421875,-1.953125,1,0,0,4.57421875,-1.953125,1,0,0,0,121,121,116,1,,,,,,,,
,,,,,,,,,,,,,FF,,,,,,,,0.582,,,,,,,,,,,,,,,,,,,,,,60fddf4bee48a7eaf1885893,61036f20d1f92de10ffb3f05,2021-07-29_22h17.20.970,Simcolourproject_2stim_asymm_v5,2020.2.10,MacIntel,60,61025ae37ef11b136ea224fe,,,,,,,,,4328,25.96484375,57.59765625,1,0,0,response1disk,,7,5.359375,2.2890625,1,0,0,rectangle,5.359375,2.2890625,1,0,0,5.359375,2.2890625,1,0,0,0,122,122,128,1,,,,,,,,
,,,,,,,,,,,,,FF,,,,,,,,1.3165,,,,,,,,,,,,,,,,,,,,,,60fddf4bee48a7eaf1885893,61036f20d1f92de10ffb3f05,2021-07-29_22h17.20.970,Simcolourproject_2stim_asymm_v5,2020.2.10,MacIntel,60,61025ae37ef11b136ea224fe,,,,,,,,,2291,-34.12109375,70.94921875,1,0,0,response7disk,,0,10.765625,-11.296875,1,0,0,rectangle,-24.80859375,-67.33203125,1,0,0,-6.8515625,-7.44921875,1,0,0,0,123,123,159,1,,response5disk_3,TRUE,3,3,"[216,186,85,251,12,229,192,14,25,125,98,93,124,30,151,284,278,50,88,291]",1.8163,rectangle
,,,,,,,,,,,,,FF,,,,,,,,1.0838,,,,,,,,,,,,,,,,,,,,,,60fddf4bee48a7eaf1885893,61036f20d1f92de10ffb3f05,2021-07-29_22h17.20.970,Simcolourproject_2stim_asymm_v5,2020.2.10,MacIntel,60,61025ae37ef11b136ea224fe,,,,,,,,,4256,29.078125,-74.66015625,1,0,0,response3disk,,4,4.890625,1.26953125,1,0,0,rectangle,-69.23046875,-38.80078125,1,0,0,-2.81640625,7.46484375,1,0,0,0,124,124,155,1,,response5disk_3,TRUE,2,2,"[216,186,85,251,12,229,192,14,25,125,98,93,124,30,151,284,278,50,88,291]",2.0334,rectangle
,,,,,,,,,,,,,FF,,,,,,,,1.6162,,,,,,,,,,,,,,,,,,,,,,60fddf4bee48a7eaf1885893,61036f20d1f92de10ffb3f05,2021-07-29_22h17.20.970,Simcolourproject_2stim_asymm_v5,2020.2.10,MacIntel,60,61025ae37ef11b136ea224fe,,,,,,,,,1472,72.84375,-44.83984375,1,0,0,response3disk,,5,8.9921875,-0.40625,1,0,0,rectangle,8.9921875,-0.40625,1,0,0,8.9921875,-0.40625,1,0,0,0,125,125,90,1,,,,,,,,
,,,,,,,,,,,,,FF,,,,,,,,1.0661,,,,,,,,,,,,,,,,,,,,,,60fddf4bee48a7eaf1885893,61036f20d1f92de10ffb3f05,2021-07-29_22h17.20.970,Simcolourproject_2stim_asymm_v5,2020.2.10,MacIntel,60,61025ae37ef11b136ea224fe,,,,,,,,,497,44.01953125,31.2578125,1,0,0,response1disk,,6,5.5078125,8.54296875,1,0,0,rectangle,5.5078125,8.54296875,1,0,0,5.5078125,8.54296875,1,0,0,0,126,126,5,1,,,,,,,,
,,,,,,,,,,,,,FF,,,,,,,,0.9503,,,,,,,,,,,,,,,,,,,,,,60fddf4bee48a7eaf1885893,61036f20d1f92de10ffb3f05,2021-07-29_22h17.20.970,Simcolourproject_2stim_asymm_v5,2020.2.10,MacIntel,60,61025ae37ef11b136ea224fe,,,,,,,,,284,69.71484375,34.75390625,1,0,0,response1disk,,6,14.17578125,3.109375,1,0,0,rectangle,14.17578125,3.109375,1,0,0,14.17578125,3.109375,1,0,0,0,127,127,11,1,,,,,,,,
,,,,,,,,,,,,,FF,,,,,,,,0.9158,,,,,,,,,,,,,,,,,,,,,,60fddf4bee48a7eaf1885893,61036f20d1f92de10ffb3f05,2021-07-29_22h17.20.970,Simcolourproject_2stim_asymm_v5,2020.2.10,MacIntel,60,61025ae37ef11b136ea224fe,,,,,,,,,2411,48.5703125,25.28515625,1,0,0,response1disk,,6,-2.48828125,7.59765625,1,0,0,rectangle,-2.48828125,7.59765625,1,0,0,-2.48828125,7.59765625,1,0,0,0,128,128,150,1,,,,,,,,
,,,,,,,,,,,,,FF,,,,,,,,0.5846,,,,,,,,,,,,,,,,,,,,,,60fddf4bee48a7eaf1885893,61036f20d1f92de10ffb3f05,2021-07-29_22h17.20.970,Simcolourproject_2stim_asymm_v5,2020.2.10,MacIntel,60,61025ae37ef11b136ea224fe,,,,,,,,,2332,38.32421875,94.37109375,1,0,0,response1disk,,7,7.7734375,17.89453125,1,0,0,rectangle,7.7734375,17.89453125,1,0,0,7.7734375,17.89453125,1,0,0,0,129,129,123,1,,,,,,,,
,,,,,,,,,,,,,FF,,,,,,,,0.733,,,,,,,,,,,,,,,,,,,,,,60fddf4bee48a7eaf1885893,61036f20d1f92de10ffb3f05,2021-07-29_22h17.20.970,Simcolourproject_2stim_asymm_v5,2020.2.10,MacIntel,60,61025ae37ef11b136ea224fe,,,,,,,,,814,93.18359375,-46.609375,1,0,0,response3disk,,5,4.0078125,-5.94921875,1,0,0,rectangle,4.0078125,-5.94921875,1,0,0,4.0078125,-5.94921875,1,0,0,0,130,130,143,1,,,,,,,,
,,,,,,,,,,,,,FF,,,,,,,,0.683,,,,,,,,,,,,,,,,,,,,,,60fddf4bee48a7eaf1885893,61036f20d1f92de10ffb3f05,2021-07-29_22h17.20.970,Simcolourproject_2stim_asymm_v5,2020.2.10,MacIntel,60,61025ae37ef11b136ea224fe,,,,,,,,,2682,20.45703125,84.32421875,1,0,0,response1disk,,7,2.96875,7.92578125,1,0,0,rectangle,2.96875,7.92578125,1,0,0,2.96875,7.92578125,1,0,0,0,131,131,122,1,,,,,,,,
,,,,,,,,,,,,,FF,,,,,,,,0.6011,,,,,,,,,,,,,,,,,,,,,,60fddf4bee48a7eaf1885893,61036f20d1f92de10ffb3f05,2021-07-29_22h17.20.970,Simcolourproject_2stim_asymm_v5,2020.2.10,MacIntel,60,61025ae37ef11b136ea224fe,,,,,,,,,481,66.33203125,-19.82421875,1,0,0,response3disk,,5,-2.0234375,17.25390625,1,0,0,rectangle,-2.0234375,17.25390625,1,0,0,-2.0234375,17.25390625,1,0,0,0,132,132,126,1,,,,,,,,
,,,,,,,,,,,,,FF,,,,,,,,0.5171,,,,,,,,,,,,,,,,,,,,,,60fddf4bee48a7eaf1885893,61036f20d1f92de10ffb3f05,2021-07-29_22h17.20.970,Simcolourproject_2stim_asymm_v5,2020.2.10,MacIntel,60,61025ae37ef11b136ea224fe,,,,,,,,,4250,27.9765625,69.828125,1,0,0,response1disk,,7,2.92578125,0.87890625,1,0,0,rectangle,2.92578125,0.87890625,1,0,0,2.92578125,0.87890625,1,0,0,0,133,133,26,1,,,,,,,,
,,,,,,,,,,,,,FF,,,,,,,,0.7826,,,,,,,,,,,,,,,,,,,,,,60fddf4bee48a7eaf1885893,61036f20d1f92de10ffb3f05,2021-07-29_22h17.20.970,Simcolourproject_2stim_asymm_v5,2020.2.10,MacIntel,60,61025ae37ef11b136ea224fe,,,,,,,,,4316,-34.58984375,65.05078125,1,0,0,response7disk,,0,2.67578125,-5.671875,1,0,0,rectangle,2.67578125,-5.671875,1,0,0,2.67578125,-5.671875,1,0,0,0,134,134,148,1,,,,,,,,
,,,,,,,,,,,,,FF,,,,,,,,1.2497,,,,,,,,,,,,,,,,,,,,,,60fddf4bee48a7eaf1885893,61036f20d1f92de10ffb3f05,2021-07-29_22h17.20.970,Simcolourproject_2stim_asymm_v5,2020.2.10,MacIntel,60,61025ae37ef11b136ea224fe,,,,,,,,,789,70.71875,28.82421875,1,0,0,response1disk,,6,17.0625,9.33984375,1,0,0,rectangle,17.0625,9.33984375,1,0,0,17.0625,9.33984375,1,0,0,0,135,135,37,1,,,,,,,,
,,,,,,,,,,,,,FF,,,,,,,,0.6172,,,,,,,,,,,,,,,,,,,,,,60fddf4bee48a7eaf1885893,61036f20d1f92de10ffb3f05,2021-07-29_22h17.20.970,Simcolourproject_2stim_asymm_v5,2020.2.10,MacIntel,60,61025ae37ef11b136ea224fe,,,,,,,,,2570,69.2109375,34.78515625,1,0,0,response1disk,,6,7.27734375,5.71484375,1,0,0,rectangle,7.27734375,5.71484375,1,0,0,7.27734375,5.71484375,1,0,0,0,136,136,137,1,,,,,,,,
,,,,,,,,,,,,,FF,,,,,,,,0.7996,,,,,,,,,,,,,,,,,,,,,,60fddf4bee48a7eaf1885893,61036f20d1f92de10ffb3f05,2021-07-29_22h17.20.970,Simcolourproject_2stim_asymm_v5,2020.2.10,MacIntel,60,61025ae37ef11b136ea224fe,,,,,,,,,539,31.55078125,88.171875,1,0,0,response1disk,,7,1.55859375,15.3984375,1,0,0,rectangle,1.55859375,15.3984375,1,0,0,1.55859375,15.3984375,1,0,0,0,137,137,29,1,,,,,,,,
,,,,,,,,,,,,,FF,,,,,,,,0.9335,,,,,,,,,,,,,,,,,,,,,,60fddf4bee48a7eaf1885893,61036f20d1f92de10ffb3f05,2021-07-29_22h17.20.970,Simcolourproject_2stim_asymm_v5,2020.2.10,MacIntel,60,61025ae37ef11b136ea224fe,,,,,,,,,2671,-48.890625,-69.8984375,1,0,0,response5disk,,3,-1.72265625,-1.671875,1,0,0,rectangle,-1.72265625,-1.671875,1,0,0,-1.72265625,-1.671875,1,0,0,0,138,138,7,1,,,,,,,,
,,,,,,,,,,,,,FF,,,,,,,,0.7334,,,,,,,,,,,,,,,,,,,,,,60fddf4bee48a7eaf1885893,61036f20d1f92de10ffb3f05,2021-07-29_22h17.20.970,Simcolourproject_2stim_asymm_v5,2020.2.10,MacIntel,60,61025ae37ef11b136ea224fe,,,,,,,,,3599,-56.2890625,-25.37890625,1,0,0,response5disk,,2,7.62890625,13.16796875,1,0,0,rectangle,7.62890625,13.16796875,1,0,0,7.62890625,13.16796875,1,0,0,0,139,139,104,1,,,,,,,,
,,,,,,,,,,,,,FF,,,,,,,,1.2336,,,,,,,,,,,,,,,,,,,,,,60fddf4bee48a7eaf1885893,61036f20d1f92de10ffb3f05,2021-07-29_22h17.20.970,Simcolourproject_2stim_asymm_v5,2020.2.10,MacIntel,60,61025ae37ef11b136ea224fe,,,,,,,,,3028,85.296875,-20.3828125,1,0,0,response3disk,,5,20.09375,-12.82421875,1,0,0,rectangle,20.09375,-12.82421875,1,0,0,20.09375,-12.82421875,1,0,0,0,140,140,100,1,,,,,,,,
,,,,,,,,,,,,,FF,,,,,,,,0.6329,,,,,,,,,,,,,,,,,,,,,,60fddf4bee48a7eaf1885893,61036f20d1f92de10ffb3f05,2021-07-29_22h17.20.970,Simcolourproject_2stim_asymm_v5,2020.2.10,MacIntel,60,61025ae37ef11b136ea224fe,,,,,,,,,1287,25.55078125,74.20703125,1,0,0,response1disk,,7,-4.38671875,1.83203125,1,0,0,rectangle,-4.38671875,1.83203125,1,0,0,-4.38671875,1.83203125,1,0,0,0,141,141,74,1,,,,,,,,
,,,,,,,,,,,,,FF,,,,,,,,0.8831,,,,,,,,,,,,,,,,,,,,,,60fddf4bee48a7eaf1885893,61036f20d1f92de10ffb3f05,2021-07-29_22h17.20.970,Simcolourproject_2stim_asymm_v5,2020.2.10,MacIntel,60,61025ae37ef11b136ea224fe,,,,,,,,,3811,-80.4453125,-29.1953125,1,0,0,response5disk,,2,-0.29296875,-10.15625,1,0,0,rectangle,-0.29296875,-10.15625,1,0,0,-0.29296875,-10.15625,1,0,0,0,142,142,113,1,,,,,,,,
,,,,,,,,,,,,,FF,,,,,,,,1.0494,,,,,,,,,,,,,,,,,,,,,,60fddf4bee48a7eaf1885893,61036f20d1f92de10ffb3f05,2021-07-29_22h17.20.970,Simcolourproject_2stim_asymm_v5,2020.2.10,MacIntel,60,61025ae37ef11b136ea224fe,,,,,,,,,3650,33.5546875,67.9609375,1,0,0,response1disk,,7,-1.26953125,7.546875,1,0,0,rectangle,-1.26953125,7.546875,1,0,0,-1.26953125,7.546875,1,0,0,0,143,143,125,1,,,,,,,,
,,,,,,,,,,,,,FF,,,,,,,,0.8009,,,,,,,,,,,,,,,,,,,,,,60fddf4bee48a7eaf1885893,61036f20d1f92de10ffb3f05,2021-07-29_22h17.20.970,Simcolourproject_2stim_asymm_v5,2020.2.10,MacIntel,60,61025ae37ef11b136ea224fe,,,,,,,,,3603,27.15234375,52.20703125,1,0,0,response1disk,,7,8.296875,-1.98828125,1,0,0,rectangle,8.296875,-1.98828125,1,0,0,8.296875,-1.98828125,1,0,0,0,144,144,82,1,,,,,,,,
,,,,,,,,,,,,,FF,,,,,,,,1.2495,,,,,,,,,,,,,,,,,,,,,,60fddf4bee48a7eaf1885893,61036f20d1f92de10ffb3f05,2021-07-29_22h17.20.970,Simcolourproject_2stim_asymm_v5,2020.2.10,MacIntel,60,61025ae37ef11b136ea224fe,,,,,,,,,3142,55.05859375,-98.67578125,1,0,0,response3disk,,4,7.85546875,-2.76171875,1,0,0,rectangle,7.85546875,-2.76171875,1,0,0,7.85546875,-2.76171875,1,0,0,0,145,145,103,1,,,,,,,,
,,,,,,,,,,,,,FF,,,,,,,,0.5659,,,,,,,,,,,,,,,,,,,,,,60fddf4bee48a7eaf1885893,61036f20d1f92de10ffb3f05,2021-07-29_22h17.20.970,Simcolourproject_2stim_asymm_v5,2020.2.10,MacIntel,60,61025ae37ef11b136ea224fe,,,,,,,,,2339,47.38671875,72.98828125,1,0,0,response1disk,,7,16.453125,4.140625,1,0,0,rectangle,16.453125,4.140625,1,0,0,16.453125,4.140625,1,0,0,0,146,146,80,1,,,,,,,,
,,,,,,,,,,,,,FF,,,,,,,,0.6334,,,,,,,,,,,,,,,,,,,,,,60fddf4bee48a7eaf1885893,61036f20d1f92de10ffb3f05,2021-07-29_22h17.20.970,Simcolourproject_2stim_asymm_v5,2020.2.10,MacIntel,60,61025ae37ef11b136ea224fe,,,,,,,,,3224,28.21484375,63.98046875,1,0,0,response1disk,,7,6.296875,3.05859375,1,0,0,rectangle,6.296875,3.05859375,1,0,0,6.296875,3.05859375,1,0,0,0,147,147,40,1,,,,,,,,
,,,,,,,,,,,,,FF,,,,,,,,0.6331,,,,,,,,,,,,,,,,,,,,,,60fddf4bee48a7eaf1885893,61036f20d1f92de10ffb3f05,2021-07-29_22h17.20.970,Simcolourproject_2stim_asymm_v5,2020.2.10,MacIntel,60,61025ae37ef11b136ea224fe,,,,,,,,,4217,17.63671875,63.08203125,1,0,0,response1disk,,7,6.4140625,0.37109375,1,0,0,rectangle,6.4140625,0.37109375,1,0,0,6.4140625,0.37109375,1,0,0,0,148,148,138,1,,,,,,,,
,,,,,,,,,,,,,FF,,,,,,,,0.6008,,,,,,,,,,,,,,,,,,,,,,60fddf4bee48a7eaf1885893,61036f20d1f92de10ffb3f05,2021-07-29_22h17.20.970,Simcolourproject_2stim_asymm_v5,2020.2.10,MacIntel,60,61025ae37ef11b136ea224fe,,,,,,,,,2751,25.453125,59.65625,1,0,0,response1disk,,7,6.52734375,8.90625,1,0,0,rectangle,6.52734375,8.90625,1,0,0,6.52734375,8.90625,1,0,0,0,149,149,92,1,,,,,,,,
,,,,,,,,,,,,,FF,,,,,,,,0.9839,,,,,,,,,,,,,,,,,,,,,,60fddf4bee48a7eaf1885893,61036f20d1f92de10ffb3f05,2021-07-29_22h17.20.970,Simcolourproject_2stim_asymm_v5,2020.2.10,MacIntel,60,61025ae37ef11b136ea224fe,,,,,,,,,106,65.8828125,25.375,1,0,0,response1disk,,6,-4.640625,11.546875,1,0,0,rectangle,-25.95703125,-82.16796875,1,0,0,-3.9453125,-10.4140625,1,0,0,0,150,150,47,1,,response5disk_3,TRUE,3,3,"[216,186,85,251,12,229,192,14,25,125,98,93,124,30,151,284,278,50,88,291]",2.5331,rectangle
,,,,,,,,,,,,,FF,,,,,,,,1.3,,,,,,,,,,,,,,,,,,,,,,60fddf4bee48a7eaf1885893,61036f20d1f92de10ffb3f05,2021-07-29_22h17.20.970,Simcolourproject_2stim_asymm_v5,2020.2.10,MacIntel,60,61025ae37ef11b136ea224fe,,,,,,,,,406,62.67578125,33.140625,1,0,0,response1disk,,6,11.21875,16.28515625,1,0,0,rectangle,11.21875,16.28515625,1,0,0,11.21875,16.28515625,1,0,0,0,151,151,70,1,,,,,,,,
,,,,,,,,,,,,,FF,,,,,,,,0.7833,,,,,,,,,,,,,,,,,,,,,,60fddf4bee48a7eaf1885893,61036f20d1f92de10ffb3f05,2021-07-29_22h17.20.970,Simcolourproject_2stim_asymm_v5,2020.2.10,MacIntel,60,61025ae37ef11b136ea224fe,,,,,,,,,1893,35.578125,-53.44140625,1,0,0,response3disk,,4,-1.984375,-2.5234375,1,0,0,rectangle,-1.984375,-2.5234375,1,0,0,-1.984375,-2.5234375,1,0,0,0,152,152,59,1,,,,,,,,
,,,,,,,,,,,,,FF,,,,,,,,0.5669,,,,,,,,,,,,,,,,,,,,,,60fddf4bee48a7eaf1885893,61036f20d1f92de10ffb3f05,2021-07-29_22h17.20.970,Simcolourproject_2stim_asymm_v5,2020.2.10,MacIntel,60,61025ae37ef11b136ea224fe,,,,,,,,,988,62.3515625,-34.30078125,1,0,0,response3disk,,5,15.578125,7.16015625,1,0,0,rectangle,15.578125,7.16015625,1,0,0,15.578125,7.16015625,1,0,0,0,153,153,0,1,,,,,,,,
,,,,,,,,,,,,,FF,,,,,,,,0.9004,,,,,,,,,,,,,,,,,,,,,,60fddf4bee48a7eaf1885893,61036f20d1f92de10ffb3f05,2021-07-29_22h17.20.970,Simcolourproject_2stim_asymm_v5,2020.2.10,MacIntel,60,61025ae37ef11b136ea224fe,,,,,,,,,2722,37.9453125,-88.1953125,1,0,0,response3disk,,4,8.12109375,10.3515625,1,0,0,rectangle,8.12109375,10.3515625,1,0,0,8.12109375,10.3515625,1,0,0,0,154,154,149,1,,,,,,,,
,,,,,,,,,,,,,FF,,,,,,,,0.568,,,,,,,,,,,,,,,,,,,,,,60fddf4bee48a7eaf1885893,61036f20d1f92de10ffb3f05,2021-07-29_22h17.20.970,Simcolourproject_2stim_asymm_v5,2020.2.10,MacIntel,60,61025ae37ef11b136ea224fe,,,,,,,,,2802,44.0390625,83.5859375,1,0,0,response1disk,,7,4.7578125,5.4296875,1,0,0,rectangle,4.7578125,5.4296875,1,0,0,4.7578125,5.4296875,1,0,0,0,155,155,19,1,,,,,,,,
,,,,,,,,,,,,,FF,,,,,,,,0.783,,,,,,,,,,,,,,,,,,,,,,60fddf4bee48a7eaf1885893,61036f20d1f92de10ffb3f05,2021-07-29_22h17.20.970,Simcolourproject_2stim_asymm_v5,2020.2.10,MacIntel,60,61025ae37ef11b136ea224fe,,,,,,,,,952,62.95703125,23.9921875,1,0,0,response1disk,,6,-0.59375,-5.7265625,1,0,0,rectangle,-0.59375,-5.7265625,1,0,0,-0.59375,-5.7265625,1,0,0,0,156,156,101,1,,,,,,,,
,,,,,,,,,,,,,FF,,,,,,,,1.0658,,,,,,,,,,,,,,,,,,,,,,60fddf4bee48a7eaf1885893,61036f20d1f92de10ffb3f05,2021-07-29_22h17.20.970,Simcolourproject_2stim_asymm_v5,2020.2.10,MacIntel,60,61025ae37ef11b136ea224fe,,,,,,,,,1449,39.3125,-72.64453125,1,0,0,response3disk,,4,8.47265625,10.296875,1,0,0,rectangle,8.47265625,10.296875,1,0,0,8.47265625,10.296875,1,0,0,0,157,157,15,1,,,,,,,,
,,,,,,,,,,,,,FF,,,,,,,,0.8182,,,,,,,,,,,,,,,,,,,,,,60fddf4bee48a7eaf1885893,61036f20d1f92de10ffb3f05,2021-07-29_22h17.20.970,Simcolourproject_2stim_asymm_v5,2020.2.10,MacIntel,60,61025ae37ef11b136ea224fe,,,,,,,,,3496,27.92578125,78.9375,1,0,0,response1disk,,7,-1.296875,17.95703125,1,0,0,rectangle,-1.296875,17.95703125,1,0,0,-1.296875,17.95703125,1,0,0,0,158,158,4,1,,,,,,,,
,,,,,,,,,,,,,FF,,,,,,,,0.6669,,,,,,,,,,,,,,,,,,,,,,60fddf4bee48a7eaf1885893,61036f20d1f92de10ffb3f05,2021-07-29_22h17.20.970,Simcolourproject_2stim_asymm_v5,2020.2.10,MacIntel,60,61025ae37ef11b136ea224fe,,,,,,,,,2352,19.51953125,75.265625,1,0,0,response1disk,,7,8.546875,14.90625,1,0,0,rectangle,8.546875,14.90625,1,0,0,8.546875,14.90625,1,0,0,0,159,159,54,1,,,,,,,,
,,,,,,,,,,,,,FF,,,,,,,,1.0509,,,,,,,,,,,,,,,,,,,,,,60fddf4bee48a7eaf1885893,61036f20d1f92de10ffb3f05,2021-07-29_22h17.20.970,Simcolourproject_2stim_asymm_v5,2020.2.10,MacIntel,60,61025ae37ef11b136ea224fe,,,,,,,,,3216,38.71484375,80.765625,1,0,0,response1disk,,7,-7.6640625,6.203125,1,0,0,rectangle,-7.6640625,6.203125,1,0,0,-7.6640625,6.203125,1,0,0,1,0,160,55,1,,,,,,,,
,,,,,,,,,,,,,FF,,,,,,,,0.5155,,,,,,,,,,,,,,,,,,,,,,60fddf4bee48a7eaf1885893,61036f20d1f92de10ffb3f05,2021-07-29_22h17.20.970,Simcolourproject_2stim_asymm_v5,2020.2.10,MacIntel,60,61025ae37ef11b136ea224fe,,,,,,,,,2592,17.47265625,64.22265625,1,0,0,response1disk,,7,3.40625,11.21484375,1,0,0,rectangle,3.40625,11.21484375,1,0,0,3.40625,11.21484375,1,0,0,1,1,161,57,1,,,,,,,,
,,,,,,,,,,,,,FF,,,,,,,,0.5179,,,,,,,,,,,,,,,,,,,,,,60fddf4bee48a7eaf1885893,61036f20d1f92de10ffb3f05,2021-07-29_22h17.20.970,Simcolourproject_2stim_asymm_v5,2020.2.10,MacIntel,60,61025ae37ef11b136ea224fe,,,,,,,,,3263,35.49609375,62.9921875,1,0,0,response1disk,,7,10.5390625,-2.45703125,1,0,0,rectangle,10.5390625,-2.45703125,1,0,0,10.5390625,-2.45703125,1,0,0,1,2,162,76,1,,,,,,,,
,,,,,,,,,,,,,FF,,,,,,,,0.5008,,,,,,,,,,,,,,,,,,,,,,60fddf4bee48a7eaf1885893,61036f20d1f92de10ffb3f05,2021-07-29_22h17.20.970,Simcolourproject_2stim_asymm_v5,2020.2.10,MacIntel,60,61025ae37ef11b136ea224fe,,,,,,,,,3932,28.55078125,69.60546875,1,0,0,response1disk,,7,11.39453125,-0.55078125,1,0,0,rectangle,11.39453125,-0.55078125,1,0,0,11.39453125,-0.55078125,1,0,0,1,3,163,130,1,,,,,,,,
,,,,,,,,,,,,,FF,,,,,,,,1.166,,,,,,,,,,,,,,,,,,,,,,60fddf4bee48a7eaf1885893,61036f20d1f92de10ffb3f05,2021-07-29_22h17.20.970,Simcolourproject_2stim_asymm_v5,2020.2.10,MacIntel,60,61025ae37ef11b136ea224fe,,,,,,,,,3151,27.45703125,-101.75,1,0,0,response3disk,,4,6.58203125,-3.703125,1,0,0,rectangle,6.58203125,-3.703125,1,0,0,6.58203125,-3.703125,1,0,0,1,4,164,110,1,,,,,,,,
,,,,,,,,,,,,,FF,,,,,,,,0.9835,,,,,,,,,,,,,,,,,,,,,,60fddf4bee48a7eaf1885893,61036f20d1f92de10ffb3f05,2021-07-29_22h17.20.970,Simcolourproject_2stim_asymm_v5,2020.2.10,MacIntel,60,61025ae37ef11b136ea224fe,,,,,,,,,995,73.7109375,26.0234375,1,0,0,response1disk,,6,-2.375,4.48046875,1,0,0,rectangle,-2.375,4.48046875,1,0,0,-2.375,4.48046875,1,0,0,1,5,165,40,1,,,,,,,,
,,,,,,,,,,,,,FF,,,,,,,,0.6998,,,,,,,,,,,,,,,,,,,,,,60fddf4bee48a7eaf1885893,61036f20d1f92de10ffb3f05,2021-07-29_22h17.20.970,Simcolourproject_2stim_asymm_v5,2020.2.10,MacIntel,60,61025ae37ef11b136ea224fe,,,,,,,,,3823,68.8515625,-46.85546875,1,0,0,response3disk,,5,-10.234375,9.046875,1,0,0,rectangle,-10.234375,9.046875,1,0,0,-10.234375,9.046875,1,0,0,1,6,166,122,1,,,,,,,,
,,,,,,,,,,,,,FF,,,,,,,,0.599,,,,,,,,,,,,,,,,,,,,,,60fddf4bee48a7eaf1885893,61036f20d1f92de10ffb3f05,2021-07-29_22h17.20.970,Simcolourproject_2stim_asymm_v5,2020.2.10,MacIntel,60,61025ae37ef11b136ea224fe,,,,,,,,,2707,27.76953125,102.4023438,1,0,0,response1disk,,7,-11.51953125,11.375,1,0,0,rectangle,-11.51953125,11.375,1,0,0,-11.51953125,11.375,1,0,0,1,7,167,116,1,,,,,,,,
,,,,,,,,,,,,,FF,,,,,,,,0.5999,,,,,,,,,,,,,,,,,,,,,,60fddf4bee48a7eaf1885893,61036f20d1f92de10ffb3f05,2021-07-29_22h17.20.970,Simcolourproject_2stim_asymm_v5,2020.2.10,MacIntel,60,61025ae37ef11b136ea224fe,,,,,,,,,131,27.09375,80.9609375,1,0,0,response1disk,,7,-9.52734375,-5.328125,1,0,0,rectangle,-9.52734375,-5.328125,1,0,0,-9.52734375,-5.328125,1,0,0,1,8,168,96,1,,,,,,,,
,,,,,,,,,,,,,FF,,,,,,,,0.5003,,,,,,,,,,,,,,,,,,,,,,60fddf4bee48a7eaf1885893,61036f20d1f92de10ffb3f05,2021-07-29_22h17.20.970,Simcolourproject_2stim_asymm_v5,2020.2.10,MacIntel,60,61025ae37ef11b136ea224fe,,,,,,,,,4274,19.3359375,72.29296875,1,0,0,response1disk,,7,1.30078125,2.30078125,1,0,0,rectangle,1.30078125,2.30078125,1,0,0,1.30078125,2.30078125,1,0,0,1,9,169,79,1,,,,,,,,
,,,,,,,,,,,,,FF,,,,,,,,0.5502,,,,,,,,,,,,,,,,,,,,,,60fddf4bee48a7eaf1885893,61036f20d1f92de10ffb3f05,2021-07-29_22h17.20.970,Simcolourproject_2stim_asymm_v5,2020.2.10,MacIntel,60,61025ae37ef11b136ea224fe,,,,,,,,,3718,30.3046875,64.21484375,1,0,0,response1disk,,7,14.453125,-3.4765625,1,0,0,rectangle,14.453125,-3.4765625,1,0,0,14.453125,-3.4765625,1,0,0,1,10,170,33,1,,,,,,,,
,,,,,,,,,,,,,FF,,,,,,,,0.4836,,,,,,,,,,,,,,,,,,,,,,60fddf4bee48a7eaf1885893,61036f20d1f92de10ffb3f05,2021-07-29_22h17.20.970,Simcolourproject_2stim_asymm_v5,2020.2.10,MacIntel,60,61025ae37ef11b136ea224fe,,,,,,,,,2201,33.09765625,60.7734375,1,0,0,response1disk,,7,-0.44140625,-11.2734375,1,0,0,rectangle,-0.44140625,-11.2734375,1,0,0,-0.44140625,-11.2734375,1,0,0,1,11,171,45,1,,,,,,,,
,,,,,,,,,,,,,FF,,,,,,,,0.5671,,,,,,,,,,,,,,,,,,,,,,60fddf4bee48a7eaf1885893,61036f20d1f92de10ffb3f05,2021-07-29_22h17.20.970,Simcolourproject_2stim_asymm_v5,2020.2.10,MacIntel,60,61025ae37ef11b136ea224fe,,,,,,,,,3802,26.53515625,56.22265625,1,0,0,response1disk,,7,-6.15234375,-3.578125,1,0,0,rectangle,-6.15234375,-3.578125,1,0,0,-6.15234375,-3.578125,1,0,0,1,12,172,7,1,,,,,,,,
,,,,,,,,,,,,,FF,,,,,,,,0.8017,,,,,,,,,,,,,,,,,,,,,,60fddf4bee48a7eaf1885893,61036f20d1f92de10ffb3f05,2021-07-29_22h17.20.970,Simcolourproject_2stim_asymm_v5,2020.2.10,MacIntel,60,61025ae37ef11b136ea224fe,,,,,,,,,3779,86.58984375,31.1015625,1,0,0,response1disk,,6,3.90234375,8.94921875,1,0,0,rectangle,3.90234375,8.94921875,1,0,0,3.90234375,8.94921875,1,0,0,1,13,173,42,1,,,,,,,,
,,,,,,,,,,,,,FF,,,,,,,,0.7159,,,,,,,,,,,,,,,,,,,,,,60fddf4bee48a7eaf1885893,61036f20d1f92de10ffb3f05,2021-07-29_22h17.20.970,Simcolourproject_2stim_asymm_v5,2020.2.10,MacIntel,60,61025ae37ef11b136ea224fe,,,,,,,,,1178,35.859375,74.93359375,1,0,0,response1disk,,7,4.77734375,-1.77734375,1,0,0,rectangle,4.77734375,-1.77734375,1,0,0,4.77734375,-1.77734375,1,0,0,1,14,174,32,1,,,,,,,,
,,,,,,,,,,,,,FF,,,,,,,,1.1166,,,,,,,,,,,,,,,,,,,,,,60fddf4bee48a7eaf1885893,61036f20d1f92de10ffb3f05,2021-07-29_22h17.20.970,Simcolourproject_2stim_asymm_v5,2020.2.10,MacIntel,60,61025ae37ef11b136ea224fe,,,,,,,,,4029,31.2734375,85.61328125,1,0,0,response1disk,,7,1.28125,-4.69140625,1,0,0,rectangle,1.28125,-4.69140625,1,0,0,1.28125,-4.69140625,1,0,0,1,15,175,14,1,,,,,,,,
,,,,,,,,,,,,,FF,,,,,,,,0.9826,,,,,,,,,,,,,,,,,,,,,,60fddf4bee48a7eaf1885893,61036f20d1f92de10ffb3f05,2021-07-29_22h17.20.970,Simcolourproject_2stim_asymm_v5,2020.2.10,MacIntel,60,61025ae37ef11b136ea224fe,,,,,,,,,1929,27.7734375,88.85546875,1,0,0,response1disk,,7,-8.35546875,-0.08984375,1,0,0,rectangle,-8.35546875,-0.08984375,1,0,0,-8.35546875,-0.08984375,1,0,0,1,16,176,53,1,,,,,,,,
,,,,,,,,,,,,,FF,,,,,,,,1.1679,,,,,,,,,,,,,,,,,,,,,,60fddf4bee48a7eaf1885893,61036f20d1f92de10ffb3f05,2021-07-29_22h17.20.970,Simcolourproject_2stim_asymm_v5,2020.2.10,MacIntel,60,61025ae37ef11b136ea224fe,,,,,,,,,756,18.50390625,91.18359375,1,0,0,response1disk,,7,7.34765625,-8.5625,1,0,0,rectangle,7.34765625,-8.5625,1,0,0,7.34765625,-8.5625,1,0,0,1,17,177,123,1,,,,,,,,
,,,,,,,,,,,,,FF,,,,,,,,0.7515,,,,,,,,,,,,,,,,,,,,,,60fddf4bee48a7eaf1885893,61036f20d1f92de10ffb3f05,2021-07-29_22h17.20.970,Simcolourproject_2stim_asymm_v5,2020.2.10,MacIntel,60,61025ae37ef11b136ea224fe,,,,,,,,,474,88.328125,21.42578125,1,0,0,response1disk,,6,4.2421875,12.54296875,1,0,0,rectangle,4.2421875,12.54296875,1,0,0,4.2421875,12.54296875,1,0,0,1,18,178,23,1,,,,,,,,
,,,,,,,,,,,,,FF,,,,,,,,1.734,,,,,,,,,,,,,,,,,,,,,,60fddf4bee48a7eaf1885893,61036f20d1f92de10ffb3f05,2021-07-29_22h17.20.970,Simcolourproject_2stim_asymm_v5,2020.2.10,MacIntel,60,61025ae37ef11b136ea224fe,,,,,,,,,1137,-49.51171875,-63.78125,1,0,0,response5disk,,3,0.15625,3.67578125,1,0,0,rectangle,0.15625,3.67578125,1,0,0,0.15625,3.67578125,1,0,0,1,19,179,135,1,,,,,,,,
,,,,,,,,,,,,,FF,,,,,,,,1.3165,,,,,,,,,,,,,,,,,,,,,,60fddf4bee48a7eaf1885893,61036f20d1f92de10ffb3f05,2021-07-29_22h17.20.970,Simcolourproject_2stim_asymm_v5,2020.2.10,MacIntel,60,61025ae37ef11b136ea224fe,,,,,,,,,2622,73.9453125,-35.109375,1,0,0,response3disk,,5,-10.1328125,0.37890625,1,0,0,rectangle,-10.1328125,0.37890625,1,0,0,-10.1328125,0.37890625,1,0,0,1,20,180,103,1,,,,,,,,
,,,,,,,,,,,,,FF,,,,,,,,0.9998,,,,,,,,,,,,,,,,,,,,,,60fddf4bee48a7eaf1885893,61036f20d1f92de10ffb3f05,2021-07-29_22h17.20.970,Simcolourproject_2stim_asymm_v5,2020.2.10,MacIntel,60,61025ae37ef11b136ea224fe,,,,,,,,,289,55.3671875,42.08984375,1,0,0,response1disk,,6,2.51171875,-4.27734375,1,0,0,rectangle,2.51171875,-4.27734375,1,0,0,2.51171875,-4.27734375,1,0,0,1,21,181,137,1,,,,,,,,
,,,,,,,,,,,,,FF,,,,,,,,0.9514,,,,,,,,,,,,,,,,,,,,,,60fddf4bee48a7eaf1885893,61036f20d1f92de10ffb3f05,2021-07-29_22h17.20.970,Simcolourproject_2stim_asymm_v5,2020.2.10,MacIntel,60,61025ae37ef11b136ea224fe,,,,,,,,,4034,67.1875,-35.99609375,1,0,0,response3disk,,5,6.42578125,-3.546875,1,0,0,rectangle,6.42578125,-3.546875,1,0,0,6.42578125,-3.546875,1,0,0,1,22,182,156,1,,,,,,,,
,,,,,,,,,,,,,FF,,,,,,,,0.7172,,,,,,,,,,,,,,,,,,,,,,60fddf4bee48a7eaf1885893,61036f20d1f92de10ffb3f05,2021-07-29_22h17.20.970,Simcolourproject_2stim_asymm_v5,2020.2.10,MacIntel,60,61025ae37ef11b136ea224fe,,,,,,,,,2944,57.71875,-48.921875,1,0,0,response3disk,,5,-11.70703125,-8.671875,1,0,0,rectangle,-11.70703125,-8.671875,1,0,0,-11.70703125,-8.671875,1,0,0,1,23,183,31,1,,,,,,,,
,,,,,,,,,,,,,FF,,,,,,,,0.5681,,,,,,,,,,,,,,,,,,,,,,60fddf4bee48a7eaf1885893,61036f20d1f92de10ffb3f05,2021-07-29_22h17.20.970,Simcolourproject_2stim_asymm_v5,2020.2.10,MacIntel,60,61025ae37ef11b136ea224fe,,,,,,,,,4144,67.4296875,-53.16796875,1,0,0,response3disk,,5,12.62890625,2.26953125,1,0,0,rectangle,12.62890625,2.26953125,1,0,0,12.62890625,2.26953125,1,0,0,1,24,184,28,1,,,,,,,,
,,,,,,,,,,,,,FF,,,,,,,,0.6169,,,,,,,,,,,,,,,,,,,,,,60fddf4bee48a7eaf1885893,61036f20d1f92de10ffb3f05,2021-07-29_22h17.20.970,Simcolourproject_2stim_asymm_v5,2020.2.10,MacIntel,60,61025ae37ef11b136ea224fe,,,,,,,,,2446,46.046875,77.83203125,1,0,0,response1disk,,7,5.5078125,15.828125,1,0,0,rectangle,32.44140625,70.17578125,1,0,0,8.49609375,4.6328125,1,0,0,1,25,185,101,1,,response1disk_3,TRUE,7,7,"[216,186,85,251,12,229,192,14,25,125,98,93,124,30,151,284,278,50,88,291]",1.6341,rectangle
,,,,,,,,,,,,,FF,,,,,,,,1.3843,,,,,,,,,,,,,,,,,,,,,,60fddf4bee48a7eaf1885893,61036f20d1f92de10ffb3f05,2021-07-29_22h17.20.970,Simcolourproject_2stim_asymm_v5,2020.2.10,MacIntel,60,61025ae37ef11b136ea224fe,,,,,,,,,4364,-46.32421875,-75.421875,1,0,0,response5disk,,3,-7,-7.94921875,1,0,0,rectangle,-7,-7.94921875,1,0,0,-7,-7.94921875,1,0,0,1,26,186,36,1,,,,,,,,
,,,,,,,,,,,,,FF,,,,,,,,1.1001,,,,,,,,,,,,,,,,,,,,,,60fddf4bee48a7eaf1885893,61036f20d1f92de10ffb3f05,2021-07-29_22h17.20.970,Simcolourproject_2stim_asymm_v5,2020.2.10,MacIntel,60,61025ae37ef11b136ea224fe,,,,,,,,,3060,81.4296875,-34.5703125,1,0,0,response3disk,,5,-33.41015625,6.265625,1,0,0,rectangle,-33.41015625,6.265625,1,0,0,-33.41015625,6.265625,1,0,0,1,27,187,119,1,,,,,,,,
,,,,,,,,,,,,,FF,,,,,,,,0.7841,,,,,,,,,,,,,,,,,,,,,,60fddf4bee48a7eaf1885893,61036f20d1f92de10ffb3f05,2021-07-29_22h17.20.970,Simcolourproject_2stim_asymm_v5,2020.2.10,MacIntel,60,61025ae37ef11b136ea224fe,,,,,,,,,2584,75.375,-39.69140625,1,0,0,response3disk,,5,-2.58984375,3.7890625,1,0,0,rectangle,-2.58984375,3.7890625,1,0,0,-2.58984375,3.7890625,1,0,0,1,28,188,9,1,,,,,,,,
,,,,,,,,,,,,,FF,,,,,,,,1.5516,,,,,,,,,,,,,,,,,,,,,,60fddf4bee48a7eaf1885893,61036f20d1f92de10ffb3f05,2021-07-29_22h17.20.970,Simcolourproject_2stim_asymm_v5,2020.2.10,MacIntel,60,61025ae37ef11b136ea224fe,,,,,,,,,990,63.7734375,-16.171875,1,0,0,response3disk,,5,-13.625,4.2265625,1,0,0,rectangle,-13.625,4.2265625,1,0,0,-13.625,4.2265625,1,0,0,1,29,189,150,1,,,,,,,,
,,,,,,,,,,,,,FF,,,,,,,,0.8005,,,,,,,,,,,,,,,,,,,,,,60fddf4bee48a7eaf1885893,61036f20d1f92de10ffb3f05,2021-07-29_22h17.20.970,Simcolourproject_2stim_asymm_v5,2020.2.10,MacIntel,60,61025ae37ef11b136ea224fe,,,,,,,,,66,69.46484375,20.44140625,1,0,0,response1disk,,6,9.90625,3.50390625,1,0,0,rectangle,9.90625,3.50390625,1,0,0,9.90625,3.50390625,1,0,0,1,30,190,83,1,,,,,,,,
,,,,,,,,,,,,,FF,,,,,,,,0.5996,,,,,,,,,,,,,,,,,,,,,,60fddf4bee48a7eaf1885893,61036f20d1f92de10ffb3f05,2021-07-29_22h17.20.970,Simcolourproject_2stim_asymm_v5,2020.2.10,MacIntel,60,61025ae37ef11b136ea224fe,,,,,,,,,323,46.4765625,88.3515625,1,0,0,response1disk,,7,13.640625,16.00390625,1,0,0,rectangle,36.34765625,-83.91796875,1,0,0,-0.625,-13.265625,1,0,0,1,31,191,5,1,,response3disk_3,TRUE,4,4,"[216,186,85,251,12,229,192,14,25,125,98,93,124,30,151,284,278,50,88,291]",1.8996,rectangle
,,,,,,,,,,,,,FF,,,,,,,,2.3661,,,,,,,,,,,,,,,,,,,,,,60fddf4bee48a7eaf1885893,61036f20d1f92de10ffb3f05,2021-07-29_22h17.20.970,Simcolourproject_2stim_asymm_v5,2020.2.10,MacIntel,60,61025ae37ef11b136ea224fe,,,,,,,,,3343,46.83984375,-91.734375,1,0,0,response3disk,,4,-5.86328125,-6.09765625,1,0,0,rectangle,-5.86328125,-6.09765625,1,0,0,-5.86328125,-6.09765625,1,0,0,1,32,192,112,1,,,,,,,,
,,,,,,,,,,,,,FF,,,,,,,,0.9506,,,,,,,,,,,,,,,,,,,,,,60fddf4bee48a7eaf1885893,61036f20d1f92de10ffb3f05,2021-07-29_22h17.20.970,Simcolourproject_2stim_asymm_v5,2020.2.10,MacIntel,60,61025ae37ef11b136ea224fe,,,,,,,,,1,-22.1640625,-84.76171875,1,0,0,response5disk,,3,1.27734375,-8.046875,1,0,0,rectangle,1.27734375,-8.046875,1,0,0,1.27734375,-8.046875,1,0,0,1,33,193,68,1,,,,,,,,
,,,,,,,,,,,,,FF,,,,,,,,0.9014,,,,,,,,,,,,,,,,,,,,,,60fddf4bee48a7eaf1885893,61036f20d1f92de10ffb3f05,2021-07-29_22h17.20.970,Simcolourproject_2stim_asymm_v5,2020.2.10,MacIntel,60,61025ae37ef11b136ea224fe,,,,,,,,,2843,74.83984375,-28.81640625,1,0,0,response3disk,,5,-3.4765625,6.5390625,1,0,0,rectangle,-3.4765625,6.5390625,1,0,0,-3.4765625,6.5390625,1,0,0,1,34,194,66,1,,,,,,,,
,,,,,,,,,,,,,FF,,,,,,,,1.2497,,,,,,,,,,,,,,,,,,,,,,60fddf4bee48a7eaf1885893,61036f20d1f92de10ffb3f05,2021-07-29_22h17.20.970,Simcolourproject_2stim_asymm_v5,2020.2.10,MacIntel,60,61025ae37ef11b136ea224fe,,,,,,,,,1724,69.1796875,21.93359375,1,0,0,response1disk,,6,11.53125,8.109375,1,0,0,rectangle,11.53125,8.109375,1,0,0,11.53125,8.109375,1,0,0,1,35,195,111,1,,,,,,,,
,,,,,,,,,,,,,FF,,,,,,,,0.516,,,,,,,,,,,,,,,,,,,,,,60fddf4bee48a7eaf1885893,61036f20d1f92de10ffb3f05,2021-07-29_22h17.20.970,Simcolourproject_2stim_asymm_v5,2020.2.10,MacIntel,60,61025ae37ef11b136ea224fe,,,,,,,,,4288,34.4375,87.2578125,1,0,0,response1disk,,7,2.46484375,2.5,1,0,0,rectangle,2.46484375,2.5,1,0,0,2.46484375,2.5,1,0,0,1,36,196,99,1,,,,,,,,
,,,,,,,,,,,,,FF,,,,,,,,1.1164,,,,,,,,,,,,,,,,,,,,,,60fddf4bee48a7eaf1885893,61036f20d1f92de10ffb3f05,2021-07-29_22h17.20.970,Simcolourproject_2stim_asymm_v5,2020.2.10,MacIntel,60,61025ae37ef11b136ea224fe,,,,,,,,,2647,32.4296875,70.2578125,1,0,0,response1disk,,7,-0.84765625,10.5,1,0,0,rectangle,-0.84765625,10.5,1,0,0,-0.84765625,10.5,1,0,0,1,37,197,20,1,,,,,,,,
,,,,,,,,,,,,,FF,,,,,,,,1.2986,,,,,,,,,,,,,,,,,,,,,,60fddf4bee48a7eaf1885893,61036f20d1f92de10ffb3f05,2021-07-29_22h17.20.970,Simcolourproject_2stim_asymm_v5,2020.2.10,MacIntel,60,61025ae37ef11b136ea224fe,,,,,,,,,1612,83.48046875,-53.19921875,1,0,0,response3disk,,5,8.7890625,-15.67578125,1,0,0,rectangle,8.7890625,-15.67578125,1,0,0,8.7890625,-15.67578125,1,0,0,1,38,198,27,1,,,,,,,,
,,,,,,,,,,,,,FF,,,,,,,,0.5665,,,,,,,,,,,,,,,,,,,,,,60fddf4bee48a7eaf1885893,61036f20d1f92de10ffb3f05,2021-07-29_22h17.20.970,Simcolourproject_2stim_asymm_v5,2020.2.10,MacIntel,60,61025ae37ef11b136ea224fe,,,,,,,,,1109,14.6875,61.6484375,1,0,0,response1disk,,7,-1.51953125,-4.203125,1,0,0,rectangle,-1.51953125,-4.203125,1,0,0,-1.51953125,-4.203125,1,0,0,1,39,199,141,1,,,,,,,,
,,,,,,,,,,,,,FF,,,,,,,,0.9667,,,,,,,,,,,,,,,,,,,,,,60fddf4bee48a7eaf1885893,61036f20d1f92de10ffb3f05,2021-07-29_22h17.20.970,Simcolourproject_2stim_asymm_v5,2020.2.10,MacIntel,60,61025ae37ef11b136ea224fe,,,,,,,,,560,63.296875,41.6484375,1,0,0,response1disk,,6,3.93359375,14.83203125,1,0,0,rectangle,3.93359375,14.83203125,1,0,0,3.93359375,14.83203125,1,0,0,1,40,200,80,1,,,,,,,,
,,,,,,,,,,,,,FF,,,,,,,,0.6508,,,,,,,,,,,,,,,,,,,,,,60fddf4bee48a7eaf1885893,61036f20d1f92de10ffb3f05,2021-07-29_22h17.20.970,Simcolourproject_2stim_asymm_v5,2020.2.10,MacIntel,60,61025ae37ef11b136ea224fe,,,,,,,,,2748,66.37890625,39.9609375,1,0,0,response1disk,,6,17.6171875,-0.87890625,1,0,0,rectangle,17.6171875,-0.87890625,1,0,0,17.6171875,-0.87890625,1,0,0,1,41,201,128,1,,,,,,,,
,,,,,,,,,,,,,FF,,,,,,,,0.6993,,,,,,,,,,,,,,,,,,,,,,60fddf4bee48a7eaf1885893,61036f20d1f92de10ffb3f05,2021-07-29_22h17.20.970,Simcolourproject_2stim_asymm_v5,2020.2.10,MacIntel,60,61025ae37ef11b136ea224fe,,,,,,,,,2423,68.7265625,-35.53515625,1,0,0,response3disk,,5,-10.3671875,-0.84375,1,0,0,rectangle,-10.3671875,-0.84375,1,0,0,-10.3671875,-0.84375,1,0,0,1,42,202,88,1,,,,,,,,
,,,,,,,,,,,,,FF,,,,,,,,0.7337,,,,,,,,,,,,,,,,,,,,,,60fddf4bee48a7eaf1885893,61036f20d1f92de10ffb3f05,2021-07-29_22h17.20.970,Simcolourproject_2stim_asymm_v5,2020.2.10,MacIntel,60,61025ae37ef11b136ea224fe,,,,,,,,,2626,27.99609375,80.3125,1,0,0,response1disk,,7,5.48828125,3.96875,1,0,0,rectangle,5.48828125,3.96875,1,0,0,5.48828125,3.96875,1,0,0,1,43,203,29,1,,,,,,,,
,,,,,,,,,,,,,FF,,,,,,,,0.6666,,,,,,,,,,,,,,,,,,,,,,60fddf4bee48a7eaf1885893,61036f20d1f92de10ffb3f05,2021-07-29_22h17.20.970,Simcolourproject_2stim_asymm_v5,2020.2.10,MacIntel,60,61025ae37ef11b136ea224fe,,,,,,,,,3905,32.8828125,74.59375,1,0,0,response1disk,,7,3.34765625,-5.56640625,1,0,0,rectangle,3.34765625,-5.56640625,1,0,0,3.34765625,-5.56640625,1,0,0,1,44,204,63,1,,,,,,,,
,,,,,,,,,,,,,FF,,,,,,,,0.4671,,,,,,,,,,,,,,,,,,,,,,60fddf4bee48a7eaf1885893,61036f20d1f92de10ffb3f05,2021-07-29_22h17.20.970,Simcolourproject_2stim_asymm_v5,2020.2.10,MacIntel,60,61025ae37ef11b136ea224fe,,,,,,,,,1361,38.859375,75.05078125,1,0,0,response1disk,,7,16.22265625,1.37890625,1,0,0,rectangle,16.22265625,1.37890625,1,0,0,16.22265625,1.37890625,1,0,0,1,45,205,39,1,,,,,,,,
,,,,,,,,,,,,,FF,,,,,,,,0.8339,,,,,,,,,,,,,,,,,,,,,,60fddf4bee48a7eaf1885893,61036f20d1f92de10ffb3f05,2021-07-29_22h17.20.970,Simcolourproject_2stim_asymm_v5,2020.2.10,MacIntel,60,61025ae37ef11b136ea224fe,,,,,,,,,477,74.60546875,44.83984375,1,0,0,response1disk,,6,2.78515625,1.94921875,1,0,0,rectangle,2.78515625,1.94921875,1,0,0,2.78515625,1.94921875,1,0,0,1,46,206,100,1,,,,,,,,
,,,,,,,,,,,,,FF,,,,,,,,0.9663,,,,,,,,,,,,,,,,,,,,,,60fddf4bee48a7eaf1885893,61036f20d1f92de10ffb3f05,2021-07-29_22h17.20.970,Simcolourproject_2stim_asymm_v5,2020.2.10,MacIntel,60,61025ae37ef11b136ea224fe,,,,,,,,,2288,75.7265625,20.94921875,1,0,0,response1disk,,6,2.62109375,-5.1875,1,0,0,rectangle,2.62109375,-5.1875,1,0,0,2.62109375,-5.1875,1,0,0,1,47,207,74,1,,,,,,,,
,,,,,,,,,,,,,FF,,,,,,,,0.7656,,,,,,,,,,,,,,,,,,,,,,60fddf4bee48a7eaf1885893,61036f20d1f92de10ffb3f05,2021-07-29_22h17.20.970,Simcolourproject_2stim_asymm_v5,2020.2.10,MacIntel,60,61025ae37ef11b136ea224fe,,,,,,,,,377,77.91015625,34.78125,1,0,0,response1disk,,6,-0.50390625,9.62890625,1,0,0,rectangle,-0.50390625,9.62890625,1,0,0,-0.50390625,9.62890625,1,0,0,1,48,208,67,1,,,,,,,,
,,,,,,,,,,,,,FF,,,,,,,,1.6166,,,,,,,,,,,,,,,,,,,,,,60fddf4bee48a7eaf1885893,61036f20d1f92de10ffb3f05,2021-07-29_22h17.20.970,Simcolourproject_2stim_asymm_v5,2020.2.10,MacIntel,60,61025ae37ef11b136ea224fe,,,,,,,,,3433,70.05078125,-48.7890625,1,0,0,response3disk,,5,-13.87109375,-4.828125,1,0,0,rectangle,-13.87109375,-4.828125,1,0,0,-13.87109375,-4.828125,1,0,0,1,49,209,38,1,,,,,,,,
,,,,,,,,,,,,,FF,,,,,,,,0.5994,,,,,,,,,,,,,,,,,,,,,,60fddf4bee48a7eaf1885893,61036f20d1f92de10ffb3f05,2021-07-29_22h17.20.970,Simcolourproject_2stim_asymm_v5,2020.2.10,MacIntel,60,61025ae37ef11b136ea224fe,,,,,,,,,2504,17.5234375,69.03125,1,0,0,response1disk,,7,-6.29296875,4.1640625,1,0,0,rectangle,-6.29296875,4.1640625,1,0,0,-6.29296875,4.1640625,1,0,0,1,50,210,69,1,,,,,,,,
,,,,,,,,,,,,,FF,,,,,,,,1.2003,,,,,,,,,,,,,,,,,,,,,,60fddf4bee48a7eaf1885893,61036f20d1f92de10ffb3f05,2021-07-29_22h17.20.970,Simcolourproject_2stim_asymm_v5,2020.2.10,MacIntel,60,61025ae37ef11b136ea224fe,,,,,,,,,590,16.48046875,63.21875,1,0,0,response1disk,,7,-6.9765625,6.74609375,1,0,0,rectangle,-6.9765625,6.74609375,1,0,0,-6.9765625,6.74609375,1,0,0,1,51,211,44,1,,,,,,,,
,,,,,,,,,,,,,FF,,,,,,,,0.4667,,,,,,,,,,,,,,,,,,,,,,60fddf4bee48a7eaf1885893,61036f20d1f92de10ffb3f05,2021-07-29_22h17.20.970,Simcolourproject_2stim_asymm_v5,2020.2.10,MacIntel,60,61025ae37ef11b136ea224fe,,,,,,,,,4257,37.484375,56.5859375,1,0,0,response1disk,,7,11.1015625,7.39453125,1,0,0,rectangle,11.1015625,7.39453125,1,0,0,11.1015625,7.39453125,1,0,0,1,52,212,85,1,,,,,,,,
,,,,,,,,,,,,,FF,,,,,,,,0.6335,,,,,,,,,,,,,,,,,,,,,,60fddf4bee48a7eaf1885893,61036f20d1f92de10ffb3f05,2021-07-29_22h17.20.970,Simcolourproject_2stim_asymm_v5,2020.2.10,MacIntel,60,61025ae37ef11b136ea224fe,,,,,,,,,4012,32.0859375,58.72265625,1,0,0,response1disk,,7,1.62109375,-15.59375,1,0,0,rectangle,1.62109375,-15.59375,1,0,0,1.62109375,-15.59375,1,0,0,1,53,213,11,1,,,,,,,,
,,,,,,,,,,,,,FF,,,,,,,,0.817,,,,,,,,,,,,,,,,,,,,,,60fddf4bee48a7eaf1885893,61036f20d1f92de10ffb3f05,2021-07-29_22h17.20.970,Simcolourproject_2stim_asymm_v5,2020.2.10,MacIntel,60,61025ae37ef11b136ea224fe,,,,,,,,,959,70.87109375,29.33203125,1,0,0,response1disk,,6,9.6015625,12.49609375,1,0,0,rectangle,9.6015625,12.49609375,1,0,0,9.6015625,12.49609375,1,0,0,1,54,214,41,1,,,,,,,,
,,,,,,,,,,,,,FF,,,,,,,,0.4988,,,,,,,,,,,,,,,,,,,,,,60fddf4bee48a7eaf1885893,61036f20d1f92de10ffb3f05,2021-07-29_22h17.20.970,Simcolourproject_2stim_asymm_v5,2020.2.10,MacIntel,60,61025ae37ef11b136ea224fe,,,,,,,,,984,62.7890625,35.37109375,1,0,0,response1disk,,6,1.9296875,-4.125,1,0,0,rectangle,57.9375,16.9765625,1,0,0,3.8515625,4.9921875,1,0,0,1,55,215,127,1,,response1disk_3,TRUE,6,6,"[216,186,85,251,12,229,192,14,25,125,98,93,124,30,151,284,278,50,88,291]",1.3667,rectangle
,,,,,,,,,,,,,FF,,,,,,,,1.0344,,,,,,,,,,,,,,,,,,,,,,60fddf4bee48a7eaf1885893,61036f20d1f92de10ffb3f05,2021-07-29_22h17.20.970,Simcolourproject_2stim_asymm_v5,2020.2.10,MacIntel,60,61025ae37ef11b136ea224fe,,,,,,,,,2340,39.65625,84.80078125,1,0,0,response1disk,,7,-3.01171875,1.25390625,1,0,0,rectangle,-3.01171875,1.25390625,1,0,0,-3.01171875,1.25390625,1,0,0,1,56,216,120,1,,,,,,,,
,,,,,,,,,,,,,FF,,,,,,,,0.75,,,,,,,,,,,,,,,,,,,,,,60fddf4bee48a7eaf1885893,61036f20d1f92de10ffb3f05,2021-07-29_22h17.20.970,Simcolourproject_2stim_asymm_v5,2020.2.10,MacIntel,60,61025ae37ef11b136ea224fe,,,,,,,,,996,17.43359375,62.3515625,1,0,0,response1disk,,7,4.0703125,-4.3125,1,0,0,rectangle,4.0703125,-4.3125,1,0,0,4.0703125,-4.3125,1,0,0,1,57,217,34,1,,,,,,,,
,,,,,,,,,,,,,FF,,,,,,,,0.5493,,,,,,,,,,,,,,,,,,,,,,60fddf4bee48a7eaf1885893,61036f20d1f92de10ffb3f05,2021-07-29_22h17.20.970,Simcolourproject_2stim_asymm_v5,2020.2.10,MacIntel,60,61025ae37ef11b136ea224fe,,,,,,,,,670,26.21875,84.3046875,1,0,0,response1disk,,7,-4.0078125,0.11328125,1,0,0,rectangle,-4.0078125,0.11328125,1,0,0,-4.0078125,0.11328125,1,0,0,1,58,218,13,1,,,,,,,,
,,,,,,,,,,,,,FF,,,,,,,,0.5681,,,,,,,,,,,,,,,,,,,,,,60fddf4bee48a7eaf1885893,61036f20d1f92de10ffb3f05,2021-07-29_22h17.20.970,Simcolourproject_2stim_asymm_v5,2020.2.10,MacIntel,60,61025ae37ef11b136ea224fe,,,,,,,,,370,54.75,32.67578125,1,0,0,response1disk,,6,-0.78515625,-5.0390625,1,0,0,rectangle,-0.78515625,-5.0390625,1,0,0,-0.78515625,-5.0390625,1,0,0,1,59,219,94,1,,,,,,,,
,,,,,,,,,,,,,FF,,,,,,,,0.5495,,,,,,,,,,,,,,,,,,,,,,60fddf4bee48a7eaf1885893,61036f20d1f92de10ffb3f05,2021-07-29_22h17.20.970,Simcolourproject_2stim_asymm_v5,2020.2.10,MacIntel,60,61025ae37ef11b136ea224fe,,,,,,,,,4093,27.9765625,58.03515625,1,0,0,response1disk,,7,5.09765625,-6.55859375,1,0,0,rectangle,5.09765625,-6.55859375,1,0,0,5.09765625,-6.55859375,1,0,0,1,60,220,87,1,,,,,,,,
,,,,,,,,,,,,,FF,,,,,,,,0.4837,,,,,,,,,,,,,,,,,,,,,,60fddf4bee48a7eaf1885893,61036f20d1f92de10ffb3f05,2021-07-29_22h17.20.970,Simcolourproject_2stim_asymm_v5,2020.2.10,MacIntel,60,61025ae37ef11b136ea224fe,,,,,,,,,84,32.421875,62.90234375,1,0,0,response1disk,,7,11.78125,5.4140625,1,0,0,rectangle,11.78125,5.4140625,1,0,0,11.78125,5.4140625,1,0,0,1,61,221,64,1,,,,,,,,
,,,,,,,,,,,,,FF,,,,,,,,0.6356,,,,,,,,,,,,,,,,,,,,,,60fddf4bee48a7eaf1885893,61036f20d1f92de10ffb3f05,2021-07-29_22h17.20.970,Simcolourproject_2stim_asymm_v5,2020.2.10,MacIntel,60,61025ae37ef11b136ea224fe,,,,,,,,,2175,80.71484375,36.765625,1,0,0,response1disk,,6,-0.7734375,8.37890625,1,0,0,rectangle,-0.7734375,8.37890625,1,0,0,-0.7734375,8.37890625,1,0,0,1,62,222,62,1,,,,,,,,
,,,,,,,,,,,,,FF,,,,,,,,1.4498,,,,,,,,,,,,,,,,,,,,,,60fddf4bee48a7eaf1885893,61036f20d1f92de10ffb3f05,2021-07-29_22h17.20.970,Simcolourproject_2stim_asymm_v5,2020.2.10,MacIntel,60,61025ae37ef11b136ea224fe,,,,,,,,,2388,27.45703125,64.1953125,1,0,0,response1disk,,7,-30.84765625,-12.5703125,1,0,0,rectangle,-30.84765625,-12.5703125,1,0,0,-30.84765625,-12.5703125,1,0,0,1,63,223,153,1,,,,,,,,
,,,,,,,,,,,,,FF,,,,,,,,0.6004,,,,,,,,,,,,,,,,,,,,,,60fddf4bee48a7eaf1885893,61036f20d1f92de10ffb3f05,2021-07-29_22h17.20.970,Simcolourproject_2stim_asymm_v5,2020.2.10,MacIntel,60,61025ae37ef11b136ea224fe,,,,,,,,,3405,37.3671875,96.31640625,1,0,0,response1disk,,7,6.22265625,13.62109375,1,0,0,rectangle,6.22265625,13.62109375,1,0,0,6.22265625,13.62109375,1,0,0,1,64,224,17,1,,,,,,,,
,,,,,,,,,,,,,FF,,,,,,,,0.5832,,,,,,,,,,,,,,,,,,,,,,60fddf4bee48a7eaf1885893,61036f20d1f92de10ffb3f05,2021-07-29_22h17.20.970,Simcolourproject_2stim_asymm_v5,2020.2.10,MacIntel,60,61025ae37ef11b136ea224fe,,,,,,,,,4213,22.4296875,80.74609375,1,0,0,response1disk,,7,-6.76171875,-2.96484375,1,0,0,rectangle,-6.76171875,-2.96484375,1,0,0,-6.76171875,-2.96484375,1,0,0,1,65,225,143,1,,,,,,,,
,,,,,,,,,,,,,FF,,,,,,,,0.5005,,,,,,,,,,,,,,,,,,,,,,60fddf4bee48a7eaf1885893,61036f20d1f92de10ffb3f05,2021-07-29_22h17.20.970,Simcolourproject_2stim_asymm_v5,2020.2.10,MacIntel,60,61025ae37ef11b136ea224fe,,,,,,,,,942,14.22265625,54.64453125,1,0,0,response1disk,,7,-1.05078125,-17.21875,1,0,0,rectangle,-1.05078125,-17.21875,1,0,0,-1.05078125,-17.21875,1,0,0,1,66,226,147,1,,,,,,,,
,,,,,,,,,,,,,FF,,,,,,,,0.8503,,,,,,,,,,,,,,,,,,,,,,60fddf4bee48a7eaf1885893,61036f20d1f92de10ffb3f05,2021-07-29_22h17.20.970,Simcolourproject_2stim_asymm_v5,2020.2.10,MacIntel,60,61025ae37ef11b136ea224fe,,,,,,,,,1012,30.26953125,61.5625,1,0,0,response1disk,,7,0.37890625,-11.09375,1,0,0,rectangle,0.37890625,-11.09375,1,0,0,0.37890625,-11.09375,1,0,0,1,67,227,92,1,,,,,,,,
,,,,,,,,,,,,,FF,,,,,,,,0.984,,,,,,,,,,,,,,,,,,,,,,60fddf4bee48a7eaf1885893,61036f20d1f92de10ffb3f05,2021-07-29_22h17.20.970,Simcolourproject_2stim_asymm_v5,2020.2.10,MacIntel,60,61025ae37ef11b136ea224fe,,,,,,,,,3393,41.33203125,-82.875,1,0,0,response3disk,,4,4.6484375,-14.6875,1,0,0,rectangle,17.93359375,-44.51171875,1,0,0,-6.57421875,5.52734375,1,0,0,1,68,228,49,1,,response3disk_3,TRUE,4,4,"[216,186,85,251,12,229,192,14,25,125,98,93,124,30,151,284,278,50,88,291]",1.4163,rectangle
,,,,,,,,,,,,,FF,,,,,,,,0.9515,,,,,,,,,,,,,,,,,,,,,,60fddf4bee48a7eaf1885893,61036f20d1f92de10ffb3f05,2021-07-29_22h17.20.970,Simcolourproject_2stim_asymm_v5,2020.2.10,MacIntel,60,61025ae37ef11b136ea224fe,,,,,,,,,1525,-24.7109375,-80,1,0,0,response5disk,,3,3.99609375,5.6640625,1,0,0,rectangle,3.99609375,5.6640625,1,0,0,3.99609375,5.6640625,1,0,0,1,69,229,118,1,,,,,,,,
,,,,,,,,,,,,,FF,,,,,,,,0.8344,,,,,,,,,,,,,,,,,,,,,,60fddf4bee48a7eaf1885893,61036f20d1f92de10ffb3f05,2021-07-29_22h17.20.970,Simcolourproject_2stim_asymm_v5,2020.2.10,MacIntel,60,61025ae37ef11b136ea224fe,,,,,,,,,3271,29.21484375,62.390625,1,0,0,response1disk,,7,12.2578125,11.921875,1,0,0,rectangle,12.2578125,11.921875,1,0,0,12.2578125,11.921875,1,0,0,1,70,230,152,1,,,,,,,,
,,,,,,,,,,,,,FF,,,,,,,,0.6679,,,,,,,,,,,,,,,,,,,,,,60fddf4bee48a7eaf1885893,61036f20d1f92de10ffb3f05,2021-07-29_22h17.20.970,Simcolourproject_2stim_asymm_v5,2020.2.10,MacIntel,60,61025ae37ef11b136ea224fe,,,,,,,,,840,31.76953125,66.63671875,1,0,0,response1disk,,7,7.8515625,5.15625,1,0,0,rectangle,7.8515625,5.15625,1,0,0,7.8515625,5.15625,1,0,0,1,71,231,75,1,,,,,,,,
,,,,,,,,,,,,,FF,,,,,,,,0.9836,,,,,,,,,,,,,,,,,,,,,,60fddf4bee48a7eaf1885893,61036f20d1f92de10ffb3f05,2021-07-29_22h17.20.970,Simcolourproject_2stim_asymm_v5,2020.2.10,MacIntel,60,61025ae37ef11b136ea224fe,,,,,,,,,3048,32.88671875,-73.70703125,1,0,0,response3disk,,4,10.10546875,-13.05078125,1,0,0,rectangle,10.10546875,-13.05078125,1,0,0,10.10546875,-13.05078125,1,0,0,1,72,232,89,1,,,,,,,,
,,,,,,,,,,,,,FF,,,,,,,,0.7506,,,,,,,,,,,,,,,,,,,,,,60fddf4bee48a7eaf1885893,61036f20d1f92de10ffb3f05,2021-07-29_22h17.20.970,Simcolourproject_2stim_asymm_v5,2020.2.10,MacIntel,60,61025ae37ef11b136ea224fe,,,,,,,,,3966,-59.64453125,-31.84765625,1,0,0,response5disk,,2,-9.39453125,2.36328125,1,0,0,rectangle,-9.39453125,2.36328125,1,0,0,-9.39453125,2.36328125,1,0,0,1,73,233,157,1,,,,,,,,
,,,,,,,,,,,,,FF,,,,,,,,0.6342,,,,,,,,,,,,,,,,,,,,,,60fddf4bee48a7eaf1885893,61036f20d1f92de10ffb3f05,2021-07-29_22h17.20.970,Simcolourproject_2stim_asymm_v5,2020.2.10,MacIntel,60,61025ae37ef11b136ea224fe,,,,,,,,,1723,48.18359375,57.37890625,1,0,0,response1disk,,7,21.75390625,15.30078125,1,0,0,rectangle,21.75390625,15.30078125,1,0,0,21.75390625,15.30078125,1,0,0,1,74,234,60,1,,,,,,,,
,,,,,,,,,,,,,FF,,,,,,,,1.2499,,,,,,,,,,,,,,,,,,,,,,60fddf4bee48a7eaf1885893,61036f20d1f92de10ffb3f05,2021-07-29_22h17.20.970,Simcolourproject_2stim_asymm_v5,2020.2.10,MacIntel,60,61025ae37ef11b136ea224fe,,,,,,,,,1834,37.16796875,-57.4140625,1,0,0,response3disk,,4,7.6015625,-10.4140625,1,0,0,rectangle,7.6015625,-10.4140625,1,0,0,7.6015625,-10.4140625,1,0,0,1,75,235,22,1,,,,,,,,
,,,,,,,,,,,,,FF,,,,,,,,0.5829,,,,,,,,,,,,,,,,,,,,,,60fddf4bee48a7eaf1885893,61036f20d1f92de10ffb3f05,2021-07-29_22h17.20.970,Simcolourproject_2stim_asymm_v5,2020.2.10,MacIntel,60,61025ae37ef11b136ea224fe,,,,,,,,,1648,25.24609375,51.67578125,1,0,0,response1disk,,7,6.140625,-2.02734375,1,0,0,rectangle,6.140625,-2.02734375,1,0,0,6.140625,-2.02734375,1,0,0,1,76,236,71,1,,,,,,,,
,,,,,,,,,,,,,FF,,,,,,,,0.8003,,,,,,,,,,,,,,,,,,,,,,60fddf4bee48a7eaf1885893,61036f20d1f92de10ffb3f05,2021-07-29_22h17.20.970,Simcolourproject_2stim_asymm_v5,2020.2.10,MacIntel,60,61025ae37ef11b136ea224fe,,,,,,,,,196,26.32421875,-71.1171875,1,0,0,response3disk,,4,4.13671875,-3.3046875,1,0,0,rectangle,4.13671875,-3.3046875,1,0,0,4.13671875,-3.3046875,1,0,0,1,77,237,108,1,,,,,,,,
,,,,,,,,,,,,,FF,,,,,,,,0.5664,,,,,,,,,,,,,,,,,,,,,,60fddf4bee48a7eaf1885893,61036f20d1f92de10ffb3f05,2021-07-29_22h17.20.970,Simcolourproject_2stim_asymm_v5,2020.2.10,MacIntel,60,61025ae37ef11b136ea224fe,,,,,,,,,1996,21.34765625,78.4921875,1,0,0,response1disk,,7,13.30078125,11.7109375,1,0,0,rectangle,13.30078125,11.7109375,1,0,0,13.30078125,11.7109375,1,0,0,1,78,238,21,1,,,,,,,,
,,,,,,,,,,,,,FF,,,,,,,,0.6175,,,,,,,,,,,,,,,,,,,,,,60fddf4bee48a7eaf1885893,61036f20d1f92de10ffb3f05,2021-07-29_22h17.20.970,Simcolourproject_2stim_asymm_v5,2020.2.10,MacIntel,60,61025ae37ef11b136ea224fe,,,,,,,,,331,24.78515625,66.01171875,1,0,0,response1disk,,7,4.8828125,0.75390625,1,0,0,rectangle,4.8828125,0.75390625,1,0,0,4.8828125,0.75390625,1,0,0,1,79,239,37,1,,,,,,,,
,,,,,,,,,,,,,FF,,,,,,,,1.9167,,,,,,,,,,,,,,,,,,,,,,60fddf4bee48a7eaf1885893,61036f20d1f92de10ffb3f05,2021-07-29_22h17.20.970,Simcolourproject_2stim_asymm_v5,2020.2.10,MacIntel,60,61025ae37ef11b136ea224fe,,,,,,,,,2216,34.70703125,-87.76953125,1,0,0,response3disk,,4,22.05859375,-11.15625,1,0,0,rectangle,22.05859375,-11.15625,1,0,0,22.05859375,-11.15625,1,0,0,1,80,240,6,1,,,,,,,,
,,,,,,,,,,,,,FF,,,,,,,,0.551,,,,,,,,,,,,,,,,,,,,,,60fddf4bee48a7eaf1885893,61036f20d1f92de10ffb3f05,2021-07-29_22h17.20.970,Simcolourproject_2stim_asymm_v5,2020.2.10,MacIntel,60,61025ae37ef11b136ea224fe,,,,,,,,,4300,26.15234375,66.1484375,1,0,0,response1disk,,7,4.89453125,4.59765625,1,0,0,rectangle,4.89453125,4.59765625,1,0,0,4.89453125,4.59765625,1,0,0,1,81,241,52,1,,,,,,,,
,,,,,,,,,,,,,FF,,,,,,,,0.7839,,,,,,,,,,,,,,,,,,,,,,60fddf4bee48a7eaf1885893,61036f20d1f92de10ffb3f05,2021-07-29_22h17.20.970,Simcolourproject_2stim_asymm_v5,2020.2.10,MacIntel,60,61025ae37ef11b136ea224fe,,,,,,,,,2662,-71.74609375,-36.08203125,1,0,0,response5disk,,2,-9.29296875,-0.1484375,1,0,0,rectangle,-9.29296875,-0.1484375,1,0,0,-9.29296875,-0.1484375,1,0,0,1,82,242,56,1,,,,,,,,
,,,,,,,,,,,,,FF,,,,,,,,0.6169,,,,,,,,,,,,,,,,,,,,,,60fddf4bee48a7eaf1885893,61036f20d1f92de10ffb3f05,2021-07-29_22h17.20.970,Simcolourproject_2stim_asymm_v5,2020.2.10,MacIntel,60,61025ae37ef11b136ea224fe,,,,,,,,,1165,29.65625,65.5703125,1,0,0,response1disk,,7,8.33203125,5.39453125,1,0,0,rectangle,8.33203125,5.39453125,1,0,0,8.33203125,5.39453125,1,0,0,1,83,243,58,1,,,,,,,,
,,,,,,,,,,,,,FF,,,,,,,,0.7501,,,,,,,,,,,,,,,,,,,,,,60fddf4bee48a7eaf1885893,61036f20d1f92de10ffb3f05,2021-07-29_22h17.20.970,Simcolourproject_2stim_asymm_v5,2020.2.10,MacIntel,60,61025ae37ef11b136ea224fe,,,,,,,,,2295,-34.4296875,-74.96484375,1,0,0,response5disk,,3,-27.30078125,14.7734375,1,0,0,rectangle,-27.30078125,14.7734375,1,0,0,-27.30078125,14.7734375,1,0,0,1,84,244,131,1,,,,,,,,
,,,,,,,,,,,,,FF,,,,,,,,1.0669,,,,,,,,,,,,,,,,,,,,,,60fddf4bee48a7eaf1885893,61036f20d1f92de10ffb3f05,2021-07-29_22h17.20.970,Simcolourproject_2stim_asymm_v5,2020.2.10,MacIntel,60,61025ae37ef11b136ea224fe,,,,,,,,,2474,29.9375,58.3515625,1,0,0,response1disk,,7,-6.60546875,5.26953125,1,0,0,rectangle,-6.60546875,5.26953125,1,0,0,-6.60546875,5.26953125,1,0,0,1,85,245,91,1,,,,,,,,
,,,,,,,,,,,,,FF,,,,,,,,0.8018,,,,,,,,,,,,,,,,,,,,,,60fddf4bee48a7eaf1885893,61036f20d1f92de10ffb3f05,2021-07-29_22h17.20.970,Simcolourproject_2stim_asymm_v5,2020.2.10,MacIntel,60,61025ae37ef11b136ea224fe,,,,,,,,,855,19.15625,74.58203125,1,0,0,response1disk,,7,-6.16015625,-3.66015625,1,0,0,rectangle,-6.16015625,-3.66015625,1,0,0,-6.16015625,-3.66015625,1,0,0,1,86,246,26,1,,,,,,,,
,,,,,,,,,,,,,FF,,,,,,,,0.6006,,,,,,,,,,,,,,,,,,,,,,60fddf4bee48a7eaf1885893,61036f20d1f92de10ffb3f05,2021-07-29_22h17.20.970,Simcolourproject_2stim_asymm_v5,2020.2.10,MacIntel,60,61025ae37ef11b136ea224fe,,,,,,,,,1036,84.19921875,-45.8984375,1,0,0,response3disk,,5,-6.66015625,-15.3828125,1,0,0,rectangle,-6.66015625,-15.3828125,1,0,0,-6.66015625,-15.3828125,1,0,0,1,87,247,149,1,,,,,,,,
,,,,,,,,,,,,,FF,,,,,,,,0.416,,,,,,,,,,,,,,,,,,,,,,60fddf4bee48a7eaf1885893,61036f20d1f92de10ffb3f05,2021-07-29_22h17.20.970,Simcolourproject_2stim_asymm_v5,2020.2.10,MacIntel,60,61025ae37ef11b136ea224fe,,,,,,,,,1082,57.67578125,60.0859375,1,0,0,response1disk,,7,4.7890625,-5.5,1,0,0,rectangle,4.7890625,-5.5,1,0,0,4.7890625,-5.5,1,0,0,1,88,248,155,1,,,,,,,,
