key_resp.keys,key_resp.rt,key_resp_14.keys,key_resp_14.rt,key_resp_15.keys,key_resp_15.rt,key_resp_17.keys,key_resp_17.rt,key_resp_9.keys,key_resp_9.rt,key_resp_10.keys,key_resp_10.rt,practice_comparison,Ecc,mouse_5.x,mouse_5.y,mouse_5.leftButton,mouse_5.midButton,mouse_5.rightButton,mouse_5.clicked_name,pracsimilarity,response_time,mouse_10.x,mouse_10.y,mouse_10.leftButton,mouse_10.midButton,mouse_10.rightButton,mouse_10.clicked_name,mouse_7.x,mouse_7.y,mouse_7.leftButton,mouse_7.midButton,mouse_7.rightButton,mouse_6.x,mouse_6.y,mouse_6.leftButton,mouse_6.midButton,mouse_6.rightButton,duringprac.thisRepN,duringprac.thisTrialN,duringprac.thisN,duringprac.thisIndex,duringprac.ran,participant,session,date,expName,psychopyVersion,OS,frameRate,study_id,mouse_7.clicked_name,catchpracsimilarity,catch_response_time,catchnumberprac,catchtrialorderprac,mouse_6.clicked_name,key_resp_22.keys,key_resp_22.rt,realcomparison,mouse.x,mouse.y,mouse.leftButton,mouse.midButton,mouse.rightButton,mouse.clicked_name,Colour2,similarity,mouse_2.x,mouse_2.y,mouse_2.leftButton,mouse_2.midButton,mouse_2.rightButton,mouse_2.clicked_name,mouse_3.x,mouse_3.y,mouse_3.leftButton,mouse_3.midButton,mouse_3.rightButton,mouse_11.x,mouse_11.y,mouse_11.leftButton,mouse_11.midButton,mouse_11.rightButton,trials_2.thisRepN,trials_2.thisTrialN,trials_2.thisN,trials_2.thisIndex,trials_2.ran,Colour1,mouse_3.clicked_name,catchornah,catchsimilarity,catchnumber,catchtrialorder,catchRT,mouse_11.clicked_name
space,1.5129,space,24.0016,space,22.535,space,10.3727,space,3.8651,space,4.975400002,155,PF,38.00002354,98.83332133,1,0,0,response1disk_5,7,10.6527,3.333355844,1.499985099,1,0,0,rectangle_8,3.333355844,1.499985099,1,0,0,3.333355844,1.499985099,1,0,0,0,0,0,1,1,60fd868aa842dda04af3f6bf,61036e53daa485dd0859af50,2021-07-29_23h16.54.530,Simcolourproject_2stim_asymm_v5,2020.2.10,Win32,60,61025ae37ef11b136ea224fe,,,,,,,,,,,,,,,,,,,,,,,,,,,,,,,,,,,,,,,,,,,,,,
,,,,,,,,,,,,0,PF,86.66669166,26.83331919,1,0,0,response1disk_5,6,12.083,4.000022531,-3.166681707,1,0,0,rectangle_8,37.33335686,83.49998754,1,0,0,8.00002265,-7.833348513,1,0,0,0,1,1,2,1,60fd868aa842dda04af3f6bf,61036e53daa485dd0859af50,2021-07-29_23h16.54.530,Simcolourproject_2stim_asymm_v5,2020.2.10,Win32,60,61025ae37ef11b136ea224fe,response1disk_7,7,3.468400002,7,"[2,5]",rectangle_4,,,,,,,,,,,,,,,,,,,,,,,,,,,,,,,,,,,,,,,,
,,,,,,,,,,,,3,PF,56.66669077,-79.16668397,1,0,0,response3disk_5,4,12.8003,-0.666644275,7.499985278,1,0,0,rectangle_8,-0.666644275,7.499985278,1,0,0,-0.666644275,7.499985278,1,0,0,0,2,2,6,1,60fd868aa842dda04af3f6bf,61036e53daa485dd0859af50,2021-07-29_23h16.54.530,Simcolourproject_2stim_asymm_v5,2020.2.10,Win32,60,61025ae37ef11b136ea224fe,,,,,,,,,,,,,,,,,,,,,,,,,,,,,,,,,,,,,,,,,,,,,,
,,,,,,,,,,,,33,FF,62.66669095,-97.16668451,1,0,0,response3disk_5,4,5.917099998,10.00002271,-1.833348334,1,0,0,rectangle_8,10.00002271,-1.833348334,1,0,0,10.00002271,-1.833348334,1,0,0,0,3,3,3,1,60fd868aa842dda04af3f6bf,61036e53daa485dd0859af50,2021-07-29_23h16.54.530,Simcolourproject_2stim_asymm_v5,2020.2.10,Win32,60,61025ae37ef11b136ea224fe,,,,,,,,,,,,,,,,,,,,,,,,,,,,,,,,,,,,,,,,,,,,,,
,,,,,,,,,,,,124,PF,73.33335793,34.16665274,1,0,0,response1disk_5,6,2.7999,3.333355844,4.833318532,1,0,0,rectangle_8,55.33335739,113.4999884,1,0,0,8.666689336,2.166651785,1,0,0,0,4,4,4,1,60fd868aa842dda04af3f6bf,61036e53daa485dd0859af50,2021-07-29_23h16.54.530,Simcolourproject_2stim_asymm_v5,2020.2.10,Win32,60,61025ae37ef11b136ea224fe,response1disk_7,7,1.832900002,7,"[2,5]",rectangle_4,,,,,,,,,,,,,,,,,,,,,,,,,,,,,,,,,,,,,,,,
,,,,,,,,,,,,41,FF,49.33335721,92.16665447,1,0,0,response1disk_5,7,4.216799999,-3.999977708,-6.50001514,1,0,0,rectangle_8,-3.999977708,-6.50001514,1,0,0,-3.999977708,-6.50001514,1,0,0,0,5,5,5,1,60fd868aa842dda04af3f6bf,61036e53daa485dd0859af50,2021-07-29_23h16.54.530,Simcolourproject_2stim_asymm_v5,2020.2.10,Win32,60,61025ae37ef11b136ea224fe,,,,,,,,,,,,,,,,,,,,,,,,,,,,,,,,,,,,,,,,,,,,,,
,,,,,,,,,,,,27,FF,82.66669154,-49.16668308,1,0,0,response3disk_5,5,3.967,-4.666644394,2.833318472,1,0,0,rectangle_8,-4.666644394,2.833318472,1,0,0,-4.666644394,2.833318472,1,0,0,0,6,6,0,1,60fd868aa842dda04af3f6bf,61036e53daa485dd0859af50,2021-07-29_23h16.54.530,Simcolourproject_2stim_asymm_v5,2020.2.10,Win32,60,61025ae37ef11b136ea224fe,,,,,,,,,,,,,,,,,,,,,,,,,,,,,,,,,,,,,,,,,,,,,,
,,,,,,,,,,,,,FF,,,,,,,,7.9849,,,,,,,,,,,,,,,,,,,,,,60fd868aa842dda04af3f6bf,61036e53daa485dd0859af50,2021-07-29_23h16.54.530,Simcolourproject_2stim_asymm_v5,2020.2.10,Win32,60,61025ae37ef11b136ea224fe,,,,,,,space,4.785,2024,100.6666921,31.49998599,1,0,0,response1disk,,6,10.00002271,-8.500015199,1,0,0,rectangle,10.00002271,-8.500015199,1,0,0,10.00002271,-8.500015199,1,0,0,0,0,0,152,1,,,,,,,,
,,,,,,,,,,,,,FF,,,,,,,,6.483299999,,,,,,,,,,,,,,,,,,,,,,60fd868aa842dda04af3f6bf,61036e53daa485dd0859af50,2021-07-29_23h16.54.530,Simcolourproject_2stim_asymm_v5,2020.2.10,Win32,60,61025ae37ef11b136ea224fe,,,,,,,,,4015,60.0000242,104.8333215,1,0,0,response1disk,,7,-5.333311081,1.499985099,1,0,0,rectangle,-5.333311081,1.499985099,1,0,0,-5.333311081,1.499985099,1,0,0,0,1,1,17,1,,,,,,,,
,,,,,,,,,,,,,FF,,,,,,,,4.034200001,,,,,,,,,,,,,,,,,,,,,,60fd868aa842dda04af3f6bf,61036e53daa485dd0859af50,2021-07-29_23h16.54.530,Simcolourproject_2stim_asymm_v5,2020.2.10,Win32,60,61025ae37ef11b136ea224fe,,,,,,,,,1465,46.00002378,-109.1666849,1,0,0,response3disk,,4,2.000022471,9.499985337,1,0,0,rectangle,2.000022471,9.499985337,1,0,0,2.000022471,9.499985337,1,0,0,0,2,2,83,1,,,,,,,,
,,,,,,,,,,,,,FF,,,,,,,,3.817,,,,,,,,,,,,,,,,,,,,,,60fd868aa842dda04af3f6bf,61036e53daa485dd0859af50,2021-07-29_23h16.54.530,Simcolourproject_2stim_asymm_v5,2020.2.10,Win32,60,61025ae37ef11b136ea224fe,,,,,,,,,298,52.66669065,-113.8333924,1,0,0,response3disk,,4,-1.333310962,6.833318591,1,0,0,rectangle,-1.333310962,6.833318591,1,0,0,-1.333310962,6.833318591,1,0,0,0,3,3,126,1,,,,,,,,
,,,,,,,,,,,,,FF,,,,,,,,2.8505,,,,,,,,,,,,,,,,,,,,,,60fd868aa842dda04af3f6bf,61036e53daa485dd0859af50,2021-07-29_23h16.54.530,Simcolourproject_2stim_asymm_v5,2020.2.10,Win32,60,61025ae37ef11b136ea224fe,,,,,,,,,4057,-37.99997872,-85.16668415,1,0,0,response5disk,,3,-5.999977767,-3.833348393,1,0,0,rectangle,-5.999977767,-3.833348393,1,0,0,-5.999977767,-3.833348393,1,0,0,0,4,4,159,1,,,,,,,,
,,,,,,,,,,,,,FF,,,,,,,,1.7999,,,,,,,,,,,,,,,,,,,,,,60fd868aa842dda04af3f6bf,61036e53daa485dd0859af50,2021-07-29_23h16.54.530,Simcolourproject_2stim_asymm_v5,2020.2.10,Win32,60,61025ae37ef11b136ea224fe,,,,,,,,,253,-43.9999789,-103.8333921,1,0,0,response5disk,,3,2.000022471,2.166651785,1,0,0,rectangle,2.000022471,2.166651785,1,0,0,2.000022471,2.166651785,1,0,0,0,5,5,95,1,,,,,,,,
,,,,,,,,,,,,,FF,,,,,,,,11.9334,,,,,,,,,,,,,,,,,,,,,,60fd868aa842dda04af3f6bf,61036e53daa485dd0859af50,2021-07-29_23h16.54.530,Simcolourproject_2stim_asymm_v5,2020.2.10,Win32,60,61025ae37ef11b136ea224fe,,,,,,,,,1839,100.0000254,35.49998611,1,0,0,response1disk,,6,-21.33331156,-6.50001514,1,0,0,rectangle,-21.33331156,-6.50001514,1,0,0,-21.33331156,-6.50001514,1,0,0,0,6,6,19,1,,,,,,,,
,,,,,,,,,,,,,FF,,,,,,,,3.467,,,,,,,,,,,,,,,,,,,,,,60fd868aa842dda04af3f6bf,61036e53daa485dd0859af50,2021-07-29_23h16.54.530,Simcolourproject_2stim_asymm_v5,2020.2.10,Win32,60,61025ae37ef11b136ea224fe,,,,,,,,,242,106.6666923,-49.83339045,1,0,0,response3disk,,5,-7.333311141,12.16665208,1,0,0,rectangle,-7.333311141,12.16665208,1,0,0,-7.333311141,12.16665208,1,0,0,0,7,7,39,1,,,,,,,,
,,,,,,,,,,,,,FF,,,,,,,,6.4664,,,,,,,,,,,,,,,,,,,,,,60fd868aa842dda04af3f6bf,61036e53daa485dd0859af50,2021-07-29_23h16.54.530,Simcolourproject_2stim_asymm_v5,2020.2.10,Win32,60,61025ae37ef11b136ea224fe,,,,,,,,,1295,31.33335668,-111.1666849,1,0,0,response3disk,,4,2.666689157,14.83331883,1,0,0,rectangle,2.666689157,14.83331883,1,0,0,2.666689157,14.83331883,1,0,0,0,8,8,141,1,,,,,,,,
,,,,,,,,,,,,,FF,,,,,,,,1.9169,,,,,,,,,,,,,,,,,,,,,,60fd868aa842dda04af3f6bf,61036e53daa485dd0859af50,2021-07-29_23h16.54.530,Simcolourproject_2stim_asymm_v5,2020.2.10,Win32,60,61025ae37ef11b136ea224fe,,,,,,,,,2055,103.3333588,44.83331972,1,0,0,response1disk,,6,-3.999977708,-5.166681767,1,0,0,rectangle,-3.999977708,-5.166681767,1,0,0,-3.999977708,-5.166681767,1,0,0,0,9,9,99,1,,,,,,,,
,,,,,,,,,,,,,FF,,,,,,,,2.7006,,,,,,,,,,,,,,,,,,,,,,60fd868aa842dda04af3f6bf,61036e53daa485dd0859af50,2021-07-29_23h16.54.530,Simcolourproject_2stim_asymm_v5,2020.2.10,Win32,60,61025ae37ef11b136ea224fe,,,,,,,,,3308,38.00002354,80.16665411,1,0,0,response1disk,,7,-7.333311141,-2.50001502,1,0,0,rectangle,-7.333311141,-2.50001502,1,0,0,-7.333311141,-2.50001502,1,0,0,0,10,10,122,1,,,,,,,,
,,,,,,,,,,,,,FF,,,,,,,,1.683799999,,,,,,,,,,,,,,,,,,,,,,60fd868aa842dda04af3f6bf,61036e53daa485dd0859af50,2021-07-29_23h16.54.530,Simcolourproject_2stim_asymm_v5,2020.2.10,Win32,60,61025ae37ef11b136ea224fe,,,,,,,,,1992,38.66669023,72.83332056,1,0,0,response1disk,,7,-5.333311081,4.166651845,1,0,0,rectangle,-5.333311081,4.166651845,1,0,0,-5.333311081,4.166651845,1,0,0,0,11,11,105,1,,,,,,,,
,,,,,,,,,,,,,FF,,,,,,,,1.2004,,,,,,,,,,,,,,,,,,,,,,60fd868aa842dda04af3f6bf,61036e53daa485dd0859af50,2021-07-29_23h16.54.530,Simcolourproject_2stim_asymm_v5,2020.2.10,Win32,60,61025ae37ef11b136ea224fe,,,,,,,,,2744,39.33335692,68.16665375,1,0,0,response1disk,,7,-8.666644514,-1.166681647,1,0,0,rectangle,-93.3333137,60.16665351,1,0,0,2.000022471,-1.166681647,1,0,0,0,12,12,138,1,,response7disk_3,TRUE,1,1,"[249,195,321,45,13,205,129,208,211,287,19,92,87,19,265,62,104,294,135,51]",3.7685,rectangle
,,,,,,,,,,,,,FF,,,,,,,,3.750300001,,,,,,,,,,,,,,,,,,,,,,60fd868aa842dda04af3f6bf,61036e53daa485dd0859af50,2021-07-29_23h16.54.530,Simcolourproject_2stim_asymm_v5,2020.2.10,Win32,60,61025ae37ef11b136ea224fe,,,,,,,,,1608,-33.33331192,-111.8333923,1,0,0,response5disk,,3,-8.666644514,-3.833348393,1,0,0,rectangle,-8.666644514,-3.833348393,1,0,0,-8.666644514,-3.833348393,1,0,0,0,13,13,57,1,,,,,,,,
,,,,,,,,,,,,,FF,,,,,,,,2.257200001,,,,,,,,,,,,,,,,,,,,,,60fd868aa842dda04af3f6bf,61036e53daa485dd0859af50,2021-07-29_23h16.54.530,Simcolourproject_2stim_asymm_v5,2020.2.10,Win32,60,61025ae37ef11b136ea224fe,,,,,,,,,1872,80.0000248,44.16665304,1,0,0,response1disk,,6,-1.999977648,-3.833348393,1,0,0,rectangle,-1.999977648,-3.833348393,1,0,0,-1.999977648,-3.833348393,1,0,0,0,14,14,34,1,,,,,,,,
,,,,,,,,,,,,,FF,,,,,,,,2.5015,,,,,,,,,,,,,,,,,,,,,,60fd868aa842dda04af3f6bf,61036e53daa485dd0859af50,2021-07-29_23h16.54.530,Simcolourproject_2stim_asymm_v5,2020.2.10,Win32,60,61025ae37ef11b136ea224fe,,,,,,,,,214,72.66669124,94.16665453,1,0,0,response1disk,,7,-8.666644514,0.166651726,1,0,0,rectangle,-8.666644514,0.166651726,1,0,0,-8.666644514,0.166651726,1,0,0,0,15,15,123,1,,,,,,,,
,,,,,,,,,,,,,FF,,,,,,,,1.6665,,,,,,,,,,,,,,,,,,,,,,60fd868aa842dda04af3f6bf,61036e53daa485dd0859af50,2021-07-29_23h16.54.530,Simcolourproject_2stim_asymm_v5,2020.2.10,Win32,60,61025ae37ef11b136ea224fe,,,,,,,,,2044,105.3333589,-50.50001645,1,0,0,response3disk,,5,14.66668952,13.49998546,1,0,0,rectangle,14.66668952,13.49998546,1,0,0,14.66668952,13.49998546,1,0,0,0,16,16,29,1,,,,,,,,
,,,,,,,,,,,,,FF,,,,,,,,1.8334,,,,,,,,,,,,,,,,,,,,,,60fd868aa842dda04af3f6bf,61036e53daa485dd0859af50,2021-07-29_23h16.54.530,Simcolourproject_2stim_asymm_v5,2020.2.10,Win32,60,61025ae37ef11b136ea224fe,,,,,,,,,649,97.33335865,36.83331949,1,0,0,response1disk,,6,7.333355963,6.166651905,1,0,0,rectangle,7.333355963,6.166651905,1,0,0,7.333355963,6.166651905,1,0,0,0,17,17,69,1,,,,,,,,
,,,,,,,,,,,,,FF,,,,,,,,2.100700001,,,,,,,,,,,,,,,,,,,,,,60fd868aa842dda04af3f6bf,61036e53daa485dd0859af50,2021-07-29_23h16.54.530,Simcolourproject_2stim_asymm_v5,2020.2.10,Win32,60,61025ae37ef11b136ea224fe,,,,,,,,,88,81.33335817,47.49998647,1,0,0,response1disk,,6,-1.999977648,-5.166681767,1,0,0,rectangle,96.66669196,-52.50001651,1,0,0,-1.999977648,-0.500014961,1,0,0,0,18,18,71,1,,response3disk_3,TRUE,5,5,"[249,195,321,45,13,205,129,208,211,287,19,92,87,19,265,62,104,294,135,51]",2.3666,rectangle
,,,,,,,,,,,,,FF,,,,,,,,2.7504,,,,,,,,,,,,,,,,,,,,,,60fd868aa842dda04af3f6bf,61036e53daa485dd0859af50,2021-07-29_23h16.54.530,Simcolourproject_2stim_asymm_v5,2020.2.10,Win32,60,61025ae37ef11b136ea224fe,,,,,,,,,388,104.0000255,25.49998581,1,0,0,response1disk,,6,-13.99997801,3.499985158,1,0,0,rectangle,-13.99997801,3.499985158,1,0,0,-13.99997801,3.499985158,1,0,0,0,19,19,140,1,,,,,,,,
,,,,,,,,,,,,,FF,,,,,,,,1.350800001,,,,,,,,,,,,,,,,,,,,,,60fd868aa842dda04af3f6bf,61036e53daa485dd0859af50,2021-07-29_23h16.54.530,Simcolourproject_2stim_asymm_v5,2020.2.10,Win32,60,61025ae37ef11b136ea224fe,,,,,,,,,2910,48.66669053,92.16665447,1,0,0,response1disk,,7,-9.999977887,-0.500014961,1,0,0,rectangle,-9.999977887,-0.500014961,1,0,0,-9.999977887,-0.500014961,1,0,0,0,20,20,81,1,,,,,,,,
,,,,,,,,,,,,,FF,,,,,,,,0.9336,,,,,,,,,,,,,,,,,,,,,,60fd868aa842dda04af3f6bf,61036e53daa485dd0859af50,2021-07-29_23h16.54.530,Simcolourproject_2stim_asymm_v5,2020.2.10,Win32,60,61025ae37ef11b136ea224fe,,,,,,,,,335,52.00002396,97.49998796,1,0,0,response1disk,,7,-14.66664469,0.833318412,1,0,0,rectangle,-14.66664469,0.833318412,1,0,0,-14.66664469,0.833318412,1,0,0,0,21,21,42,1,,,,,,,,
,,,,,,,,,,,,,FF,,,,,,,,1.966700001,,,,,,,,,,,,,,,,,,,,,,60fd868aa842dda04af3f6bf,61036e53daa485dd0859af50,2021-07-29_23h16.54.530,Simcolourproject_2stim_asymm_v5,2020.2.10,Win32,60,61025ae37ef11b136ea224fe,,,,,,,,,567,42.66669035,102.8333215,1,0,0,response1disk,,7,-18.66664481,1.499985099,1,0,0,rectangle,-18.66664481,1.499985099,1,0,0,-18.66664481,1.499985099,1,0,0,0,22,22,133,1,,,,,,,,
,,,,,,,,,,,,,FF,,,,,,,,1.750199999,,,,,,,,,,,,,,,,,,,,,,60fd868aa842dda04af3f6bf,61036e53daa485dd0859af50,2021-07-29_23h16.54.530,Simcolourproject_2stim_asymm_v5,2020.2.10,Win32,60,61025ae37ef11b136ea224fe,,,,,,,,,3924,41.33335698,86.83332098,1,0,0,response1disk,,7,-13.99997801,-11.16668195,1,0,0,rectangle,-13.99997801,-11.16668195,1,0,0,-13.99997801,-11.16668195,1,0,0,0,23,23,120,1,,,,,,,,
,,,,,,,,,,,,,FF,,,,,,,,0.9841,,,,,,,,,,,,,,,,,,,,,,60fd868aa842dda04af3f6bf,61036e53daa485dd0859af50,2021-07-29_23h16.54.530,Simcolourproject_2stim_asymm_v5,2020.2.10,Win32,60,61025ae37ef11b136ea224fe,,,,,,,,,3567,59.33335751,94.83332121,1,0,0,response1disk,,7,-10.66664457,-0.500014961,1,0,0,rectangle,-10.66664457,-0.500014961,1,0,0,-10.66664457,-0.500014961,1,0,0,0,24,24,89,1,,,,,,,,
,,,,,,,,,,,,,FF,,,,,,,,2.700299999,,,,,,,,,,,,,,,,,,,,,,60fd868aa842dda04af3f6bf,61036e53daa485dd0859af50,2021-07-29_23h16.54.530,Simcolourproject_2stim_asymm_v5,2020.2.10,Win32,60,61025ae37ef11b136ea224fe,,,,,,,,,3556,28.00002325,-97.16668451,1,0,0,response3disk,,4,1.333355784,-7.833348513,1,0,0,rectangle,1.333355784,-7.833348513,1,0,0,1.333355784,-7.833348513,1,0,0,0,25,25,154,1,,,,,,,,
,,,,,,,,,,,,,FF,,,,,,,,2.1839,,,,,,,,,,,,,,,,,,,,,,60fd868aa842dda04af3f6bf,61036e53daa485dd0859af50,2021-07-29_23h16.54.530,Simcolourproject_2stim_asymm_v5,2020.2.10,Win32,60,61025ae37ef11b136ea224fe,,,,,,,,,251,78.00002474,49.49998653,1,0,0,response1disk,,6,-1.333310962,-8.500015199,1,0,0,rectangle,-1.333310962,-8.500015199,1,0,0,-1.333310962,-8.500015199,1,0,0,0,26,26,93,1,,,,,,,,
,,,,,,,,,,,,,FF,,,,,,,,1.4341,,,,,,,,,,,,,,,,,,,,,,60fd868aa842dda04af3f6bf,61036e53daa485dd0859af50,2021-07-29_23h16.54.530,Simcolourproject_2stim_asymm_v5,2020.2.10,Win32,60,61025ae37ef11b136ea224fe,,,,,,,,,384,94.6666919,-60.50001675,1,0,0,response3disk,,5,17.33335626,6.166651905,1,0,0,rectangle,17.33335626,6.166651905,1,0,0,17.33335626,6.166651905,1,0,0,0,27,27,6,1,,,,,,,,
,,,,,,,,,,,,,FF,,,,,,,,2.3836,,,,,,,,,,,,,,,,,,,,,,60fd868aa842dda04af3f6bf,61036e53daa485dd0859af50,2021-07-29_23h16.54.530,Simcolourproject_2stim_asymm_v5,2020.2.10,Win32,60,61025ae37ef11b136ea224fe,,,,,,,,,3594,23.33335644,-113.8333924,1,0,0,response3disk,,4,4.000022531,-3.166681707,1,0,0,rectangle,4.000022531,-3.166681707,1,0,0,4.000022531,-3.166681707,1,0,0,0,28,28,112,1,,,,,,,,
,,,,,,,,,,,,,FF,,,,,,,,1.7841,,,,,,,,,,,,,,,,,,,,,,60fd868aa842dda04af3f6bf,61036e53daa485dd0859af50,2021-07-29_23h16.54.530,Simcolourproject_2stim_asymm_v5,2020.2.10,Win32,60,61025ae37ef11b136ea224fe,,,,,,,,,1086,54.66669071,114.8333218,1,0,0,response1disk,,7,-3.333311021,6.833318591,1,0,0,rectangle,-3.333311021,6.833318591,1,0,0,-3.333311021,6.833318591,1,0,0,0,29,29,44,1,,,,,,,,
,,,,,,,,,,,,,FF,,,,,,,,5.9344,,,,,,,,,,,,,,,,,,,,,,60fd868aa842dda04af3f6bf,61036e53daa485dd0859af50,2021-07-29_23h16.54.530,Simcolourproject_2stim_asymm_v5,2020.2.10,Win32,60,61025ae37ef11b136ea224fe,,,,,,,,,3589,84.00002491,36.83331949,1,0,0,response1disk,,6,-1.999977648,-9.833348572,1,0,0,rectangle,-1.999977648,-9.833348572,1,0,0,-1.999977648,-9.833348572,1,0,0,0,30,30,9,1,,,,,,,,
,,,,,,,,,,,,,FF,,,,,,,,1.550199999,,,,,,,,,,,,,,,,,,,,,,60fd868aa842dda04af3f6bf,61036e53daa485dd0859af50,2021-07-29_23h16.54.530,Simcolourproject_2stim_asymm_v5,2020.2.10,Win32,60,61025ae37ef11b136ea224fe,,,,,,,,,3405,46.00002378,102.8333215,1,0,0,response1disk,,7,-1.333310962,9.499985337,1,0,0,rectangle,-1.333310962,9.499985337,1,0,0,-1.333310962,9.499985337,1,0,0,0,31,31,156,1,,,,,,,,
,,,,,,,,,,,,,FF,,,,,,,,1.400200001,,,,,,,,,,,,,,,,,,,,,,60fd868aa842dda04af3f6bf,61036e53daa485dd0859af50,2021-07-29_23h16.54.530,Simcolourproject_2stim_asymm_v5,2020.2.10,Win32,60,61025ae37ef11b136ea224fe,,,,,,,,,375,75.33335799,-32.50001591,1,0,0,response3disk,,5,10.00002271,6.833318591,1,0,0,rectangle,10.00002271,6.833318591,1,0,0,10.00002271,6.833318591,1,0,0,0,32,32,143,1,,,,,,,,
,,,,,,,,,,,,,FF,,,,,,,,1.2511,,,,,,,,,,,,,,,,,,,,,,60fd868aa842dda04af3f6bf,61036e53daa485dd0859af50,2021-07-29_23h16.54.530,Simcolourproject_2stim_asymm_v5,2020.2.10,Win32,60,61025ae37ef11b136ea224fe,,,,,,,,,3524,49.33335721,94.83332121,1,0,0,response1disk,,7,-5.999977767,8.833318651,1,0,0,rectangle,-5.999977767,8.833318651,1,0,0,-5.999977767,8.833318651,1,0,0,0,33,33,27,1,,,,,,,,
,,,,,,,,,,,,,FF,,,,,,,,1.6174,,,,,,,,,,,,,,,,,,,,,,60fd868aa842dda04af3f6bf,61036e53daa485dd0859af50,2021-07-29_23h16.54.530,Simcolourproject_2stim_asymm_v5,2020.2.10,Win32,60,61025ae37ef11b136ea224fe,,,,,,,,,2987,78.66669142,-57.16668332,1,0,0,response3disk,,5,2.666689157,1.499985099,1,0,0,rectangle,2.666689157,1.499985099,1,0,0,2.666689157,1.499985099,1,0,0,0,34,34,131,1,,,,,,,,
,,,,,,,,,,,,,FF,,,,,,,,1.600300001,,,,,,,,,,,,,,,,,,,,,,60fd868aa842dda04af3f6bf,61036e53daa485dd0859af50,2021-07-29_23h16.54.530,Simcolourproject_2stim_asymm_v5,2020.2.10,Win32,60,61025ae37ef11b136ea224fe,,,,,,,,,972,-47.99997902,-104.5000181,1,0,0,response5disk,,3,-20.66664487,-9.166681886,1,0,0,rectangle,-20.66664487,-9.166681886,1,0,0,-20.66664487,-9.166681886,1,0,0,0,35,35,46,1,,,,,,,,
,,,,,,,,,,,,,FF,,,,,,,,1.567199999,,,,,,,,,,,,,,,,,,,,,,60fd868aa842dda04af3f6bf,61036e53daa485dd0859af50,2021-07-29_23h16.54.530,Simcolourproject_2stim_asymm_v5,2020.2.10,Win32,60,61025ae37ef11b136ea224fe,,,,,,,,,3818,37.33335686,-80.50001734,1,0,0,response3disk,,4,2.000022471,-1.166681647,1,0,0,rectangle,2.000022471,-1.166681647,1,0,0,2.000022471,-1.166681647,1,0,0,0,36,36,114,1,,,,,,,,
,,,,,,,,,,,,,FF,,,,,,,,2.0839,,,,,,,,,,,,,,,,,,,,,,60fd868aa842dda04af3f6bf,61036e53daa485dd0859af50,2021-07-29_23h16.54.530,Simcolourproject_2stim_asymm_v5,2020.2.10,Win32,60,61025ae37ef11b136ea224fe,,,,,,,,,2594,79.33335811,41.49998629,1,0,0,response1disk,,6,-1.333310962,-0.500014961,1,0,0,rectangle,-1.333310962,-0.500014961,1,0,0,-1.333310962,-0.500014961,1,0,0,0,37,37,91,1,,,,,,,,
,,,,,,,,,,,,,FF,,,,,,,,1.083799999,,,,,,,,,,,,,,,,,,,,,,60fd868aa842dda04af3f6bf,61036e53daa485dd0859af50,2021-07-29_23h16.54.530,Simcolourproject_2stim_asymm_v5,2020.2.10,Win32,60,61025ae37ef11b136ea224fe,,,,,,,,,119,58.00002414,90.16665441,1,0,0,response1disk,,7,-1.999977648,2.833318472,1,0,0,rectangle,-1.999977648,2.833318472,1,0,0,-1.999977648,2.833318472,1,0,0,0,38,38,103,1,,,,,,,,
,,,,,,,,,,,,,FF,,,,,,,,1.867200001,,,,,,,,,,,,,,,,,,,,,,60fd868aa842dda04af3f6bf,61036e53daa485dd0859af50,2021-07-29_23h16.54.530,Simcolourproject_2stim_asymm_v5,2020.2.10,Win32,60,61025ae37ef11b136ea224fe,,,,,,,,,3819,94.00002521,-43.1666829,1,0,0,response3disk,,5,-1.333310962,4.166651845,1,0,0,rectangle,-1.333310962,4.166651845,1,0,0,-1.333310962,4.166651845,1,0,0,0,39,39,132,1,,,,,,,,
,,,,,,,,,,,,,FF,,,,,,,,1.739200001,,,,,,,,,,,,,,,,,,,,,,60fd868aa842dda04af3f6bf,61036e53daa485dd0859af50,2021-07-29_23h16.54.530,Simcolourproject_2stim_asymm_v5,2020.2.10,Win32,60,61025ae37ef11b136ea224fe,,,,,,,,,3240,89.33335841,51.49998659,1,0,0,response1disk,,6,-17.33331144,-13.166682,1,0,0,rectangle,-17.33331144,-13.166682,1,0,0,-17.33331144,-13.166682,1,0,0,0,40,40,30,1,,,,,,,,
,,,,,,,,,,,,,FF,,,,,,,,0.9835,,,,,,,,,,,,,,,,,,,,,,60fd868aa842dda04af3f6bf,61036e53daa485dd0859af50,2021-07-29_23h16.54.530,Simcolourproject_2stim_asymm_v5,2020.2.10,Win32,60,61025ae37ef11b136ea224fe,,,,,,,,,847,57.33335745,91.49998778,1,0,0,response1disk,,7,9.333356023,5.499985218,1,0,0,rectangle,9.333356023,5.499985218,1,0,0,9.333356023,5.499985218,1,0,0,0,41,41,15,1,,,,,,,,
,,,,,,,,,,,,,FF,,,,,,,,1.150199999,,,,,,,,,,,,,,,,,,,,,,60fd868aa842dda04af3f6bf,61036e53daa485dd0859af50,2021-07-29_23h16.54.530,Simcolourproject_2stim_asymm_v5,2020.2.10,Win32,60,61025ae37ef11b136ea224fe,,,,,,,,,2930,47.33335716,102.1666548,1,0,0,response1disk,,7,-0.666644275,0.166651726,1,0,0,rectangle,-0.666644275,0.166651726,1,0,0,-0.666644275,0.166651726,1,0,0,0,42,42,43,1,,,,,,,,
,,,,,,,,,,,,,FF,,,,,,,,1.8666,,,,,,,,,,,,,,,,,,,,,,60fd868aa842dda04af3f6bf,61036e53daa485dd0859af50,2021-07-29_23h16.54.530,Simcolourproject_2stim_asymm_v5,2020.2.10,Win32,60,61025ae37ef11b136ea224fe,,,,,,,,,3897,44.66669041,115.4999885,1,0,0,response1disk,,7,4.666689217,9.499985337,1,0,0,rectangle,4.666689217,9.499985337,1,0,0,4.666689217,9.499985337,1,0,0,0,43,43,155,1,,,,,,,,
,,,,,,,,,,,,,FF,,,,,,,,0.899699999,,,,,,,,,,,,,,,,,,,,,,60fd868aa842dda04af3f6bf,61036e53daa485dd0859af50,2021-07-29_23h16.54.530,Simcolourproject_2stim_asymm_v5,2020.2.10,Win32,60,61025ae37ef11b136ea224fe,,,,,,,,,2903,44.66669041,100.8333214,1,0,0,response1disk,,7,-4.666644394,-5.166681767,1,0,0,rectangle,77.33335805,32.16665268,1,0,0,-5.999977767,-8.500015199,1,0,0,0,44,44,20,1,,response1disk_3,TRUE,6,6,"[249,195,321,45,13,205,129,208,211,287,19,92,87,19,265,62,104,294,135,51]",1.918700001,rectangle
,,,,,,,,,,,,,FF,,,,,,,,1.000299999,,,,,,,,,,,,,,,,,,,,,,60fd868aa842dda04af3f6bf,61036e53daa485dd0859af50,2021-07-29_23h16.54.530,Simcolourproject_2stim_asymm_v5,2020.2.10,Win32,60,61025ae37ef11b136ea224fe,,,,,,,,,507,48.66669053,89.49998772,1,0,0,response1disk,,7,0.666689098,10.83331871,1,0,0,rectangle,0.666689098,10.83331871,1,0,0,0.666689098,10.83331871,1,0,0,0,45,45,142,1,,,,,,,,
,,,,,,,,,,,,,FF,,,,,,,,1.25,,,,,,,,,,,,,,,,,,,,,,60fd868aa842dda04af3f6bf,61036e53daa485dd0859af50,2021-07-29_23h16.54.530,Simcolourproject_2stim_asymm_v5,2020.2.10,Win32,60,61025ae37ef11b136ea224fe,,,,,,,,,2351,112.6666924,53.49998665,1,0,0,response1disk,,6,-3.999977708,7.499985278,1,0,0,rectangle,-3.999977708,7.499985278,1,0,0,-3.999977708,7.499985278,1,0,0,0,46,46,86,1,,,,,,,,
,,,,,,,,,,,,,FF,,,,,,,,1.283700001,,,,,,,,,,,,,,,,,,,,,,60fd868aa842dda04af3f6bf,61036e53daa485dd0859af50,2021-07-29_23h16.54.530,Simcolourproject_2stim_asymm_v5,2020.2.10,Win32,60,61025ae37ef11b136ea224fe,,,,,,,,,1984,44.00002372,69.49998713,1,0,0,response1disk,,7,-2.666644335,-0.500014961,1,0,0,rectangle,-2.666644335,-0.500014961,1,0,0,-2.666644335,-0.500014961,1,0,0,0,47,47,73,1,,,,,,,,
,,,,,,,,,,,,,FF,,,,,,,,1.283700001,,,,,,,,,,,,,,,,,,,,,,60fd868aa842dda04af3f6bf,61036e53daa485dd0859af50,2021-07-29_23h16.54.530,Simcolourproject_2stim_asymm_v5,2020.2.10,Win32,60,61025ae37ef11b136ea224fe,,,,,,,,,2595,82.00002486,40.8333196,1,0,0,response1disk,,6,8.666689336,4.166651845,1,0,0,rectangle,8.666689336,4.166651845,1,0,0,8.666689336,4.166651845,1,0,0,0,48,48,5,1,,,,,,,,
,,,,,,,,,,,,,FF,,,,,,,,2.0499,,,,,,,,,,,,,,,,,,,,,,60fd868aa842dda04af3f6bf,61036e53daa485dd0859af50,2021-07-29_23h16.54.530,Simcolourproject_2stim_asymm_v5,2020.2.10,Win32,60,61025ae37ef11b136ea224fe,,,,,,,,,906,81.33335817,49.49998653,1,0,0,response1disk,,6,-19.3333115,-17.16668212,1,0,0,rectangle,-19.3333115,-17.16668212,1,0,0,-19.3333115,-17.16668212,1,0,0,0,49,49,22,1,,,,,,,,
,,,,,,,,,,,,,FF,,,,,,,,1.217299999,,,,,,,,,,,,,,,,,,,,,,60fd868aa842dda04af3f6bf,61036e53daa485dd0859af50,2021-07-29_23h16.54.530,Simcolourproject_2stim_asymm_v5,2020.2.10,Win32,60,61025ae37ef11b136ea224fe,,,,,,,,,1282,56.66669077,110.8333217,1,0,0,response1disk,,7,10.00002271,13.49998546,1,0,0,rectangle,-93.99998039,-40.50001615,1,0,0,-15.33331138,0.833318412,1,0,0,0,50,50,13,1,,response5disk_3,TRUE,2,2,"[249,195,321,45,13,205,129,208,211,287,19,92,87,19,265,62,104,294,135,51]",1.916700001,rectangle
,,,,,,,,,,,,,FF,,,,,,,,4.900300001,,,,,,,,,,,,,,,,,,,,,,60fd868aa842dda04af3f6bf,61036e53daa485dd0859af50,2021-07-29_23h16.54.530,Simcolourproject_2stim_asymm_v5,2020.2.10,Win32,60,61025ae37ef11b136ea224fe,,,,,,,,,1566,101.3333588,56.16665339,1,0,0,response1disk,,6,2.666689157,0.166651726,1,0,0,rectangle,2.666689157,0.166651726,1,0,0,2.666689157,0.166651726,1,0,0,0,51,51,88,1,,,,,,,,
,,,,,,,,,,,,,FF,,,,,,,,1.717,,,,,,,,,,,,,,,,,,,,,,60fd868aa842dda04af3f6bf,61036e53daa485dd0859af50,2021-07-29_23h16.54.530,Simcolourproject_2stim_asymm_v5,2020.2.10,Win32,60,61025ae37ef11b136ea224fe,,,,,,,,,2962,92.66669184,56.16665339,1,0,0,response1disk,,6,-21.99997824,-11.83338932,1,0,0,rectangle,-21.99997824,-11.83338932,1,0,0,-21.99997824,-11.83338932,1,0,0,0,52,52,16,1,,,,,,,,
,,,,,,,,,,,,,FF,,,,,,,,1.8085,,,,,,,,,,,,,,,,,,,,,,60fd868aa842dda04af3f6bf,61036e53daa485dd0859af50,2021-07-29_23h16.54.530,Simcolourproject_2stim_asymm_v5,2020.2.10,Win32,60,61025ae37ef11b136ea224fe,,,,,,,,,970,-59.99997938,-121.8333926,1,0,0,response5disk,,3,3.333355844,-3.166681707,1,0,0,rectangle,3.333355844,-3.166681707,1,0,0,3.333355844,-3.166681707,1,0,0,0,53,53,28,1,,,,,,,,
,,,,,,,,,,,,,FF,,,,,,,,1.400700001,,,,,,,,,,,,,,,,,,,,,,60fd868aa842dda04af3f6bf,61036e53daa485dd0859af50,2021-07-29_23h16.54.530,Simcolourproject_2stim_asymm_v5,2020.2.10,Win32,60,61025ae37ef11b136ea224fe,,,,,,,,,3533,60.66669089,118.8333219,1,0,0,response1disk,,7,-8.666644514,11.4999854,1,0,0,rectangle,-8.666644514,11.4999854,1,0,0,-8.666644514,11.4999854,1,0,0,0,54,54,24,1,,,,,,,,
,,,,,,,,,,,,,FF,,,,,,,,1.467,,,,,,,,,,,,,,,,,,,,,,60fd868aa842dda04af3f6bf,61036e53daa485dd0859af50,2021-07-29_23h16.54.530,Simcolourproject_2stim_asymm_v5,2020.2.10,Win32,60,61025ae37ef11b136ea224fe,,,,,,,,,664,40.66669029,96.16665459,1,0,0,response1disk,,7,-1.999977648,-0.500014961,1,0,0,rectangle,-1.999977648,-0.500014961,1,0,0,-1.999977648,-0.500014961,1,0,0,0,55,55,111,1,,,,,,,,
,,,,,,,,,,,,,FF,,,,,,,,1.317199999,,,,,,,,,,,,,,,,,,,,,,60fd868aa842dda04af3f6bf,61036e53daa485dd0859af50,2021-07-29_23h16.54.530,Simcolourproject_2stim_asymm_v5,2020.2.10,Win32,60,61025ae37ef11b136ea224fe,,,,,,,,,2570,36.66669017,88.16665435,1,0,0,response1disk,,7,2.000022471,5.499985218,1,0,0,rectangle,2.000022471,5.499985218,1,0,0,2.000022471,5.499985218,1,0,0,0,56,56,84,1,,,,,,,,
,,,,,,,,,,,,,FF,,,,,,,,0.9335,,,,,,,,,,,,,,,,,,,,,,60fd868aa842dda04af3f6bf,61036e53daa485dd0859af50,2021-07-29_23h16.54.530,Simcolourproject_2stim_asymm_v5,2020.2.10,Win32,60,61025ae37ef11b136ea224fe,,,,,,,,,1031,43.33335704,80.8333208,1,0,0,response1disk,,7,9.333356023,14.83331883,1,0,0,rectangle,9.333356023,14.83331883,1,0,0,9.333356023,14.83331883,1,0,0,0,57,57,137,1,,,,,,,,
,,,,,,,,,,,,,FF,,,,,,,,0.833900002,,,,,,,,,,,,,,,,,,,,,,60fd868aa842dda04af3f6bf,61036e53daa485dd0859af50,2021-07-29_23h16.54.530,Simcolourproject_2stim_asymm_v5,2020.2.10,Win32,60,61025ae37ef11b136ea224fe,,,,,,,,,4035,59.33335751,110.8333217,1,0,0,response1disk,,7,6.666689277,8.833318651,1,0,0,rectangle,6.666689277,8.833318651,1,0,0,6.666689277,8.833318651,1,0,0,0,58,58,63,1,,,,,,,,
,,,,,,,,,,,,,FF,,,,,,,,1.4,,,,,,,,,,,,,,,,,,,,,,60fd868aa842dda04af3f6bf,61036e53daa485dd0859af50,2021-07-29_23h16.54.530,Simcolourproject_2stim_asymm_v5,2020.2.10,Win32,60,61025ae37ef11b136ea224fe,,,,,,,,,2481,-71.99997973,-119.1666852,1,0,0,response5disk,,3,-11.99997795,-1.166681647,1,0,0,rectangle,-11.99997795,-1.166681647,1,0,0,-11.99997795,-1.166681647,1,0,0,0,59,59,55,1,,,,,,,,
,,,,,,,,,,,,,FF,,,,,,,,2.033,,,,,,,,,,,,,,,,,,,,,,60fd868aa842dda04af3f6bf,61036e53daa485dd0859af50,2021-07-29_23h16.54.530,Simcolourproject_2stim_asymm_v5,2020.2.10,Win32,60,61025ae37ef11b136ea224fe,,,,,,,,,1903,83.33335823,-55.83339063,1,0,0,response3disk,,5,4.000022531,10.83331871,1,0,0,rectangle,4.000022531,10.83331871,1,0,0,4.000022531,10.83331871,1,0,0,0,60,60,145,1,,,,,,,,
,,,,,,,,,,,,,FF,,,,,,,,1.150299999,,,,,,,,,,,,,,,,,,,,,,60fd868aa842dda04af3f6bf,61036e53daa485dd0859af50,2021-07-29_23h16.54.530,Simcolourproject_2stim_asymm_v5,2020.2.10,Win32,60,61025ae37ef11b136ea224fe,,,,,,,,,3011,65.33335769,116.1666552,1,0,0,response1disk,,7,-4.666644394,5.499985218,1,0,0,rectangle,31.33335668,104.8333215,1,0,0,-0.666644275,4.833318532,1,0,0,0,61,61,68,1,,response1disk_3,TRUE,7,7,"[249,195,321,45,13,205,129,208,211,287,19,92,87,19,265,62,104,294,135,51]",1.6995,rectangle
,,,,,,,,,,,,,FF,,,,,,,,1.4339,,,,,,,,,,,,,,,,,,,,,,60fd868aa842dda04af3f6bf,61036e53daa485dd0859af50,2021-07-29_23h16.54.530,Simcolourproject_2stim_asymm_v5,2020.2.10,Win32,60,61025ae37ef11b136ea224fe,,,,,,,,,2608,-56.66664594,-82.5000174,1,0,0,response5disk,,3,-6.666644454,7.499985278,1,0,0,rectangle,-6.666644454,7.499985278,1,0,0,-6.666644454,7.499985278,1,0,0,0,62,62,130,1,,,,,,,,
,,,,,,,,,,,,,FF,,,,,,,,1.0669,,,,,,,,,,,,,,,,,,,,,,60fd868aa842dda04af3f6bf,61036e53daa485dd0859af50,2021-07-29_23h16.54.530,Simcolourproject_2stim_asymm_v5,2020.2.10,Win32,60,61025ae37ef11b136ea224fe,,,,,,,,,2145,45.3333571,100.1666547,1,0,0,response1disk,,7,-11.99997795,-13.83338938,1,0,0,rectangle,-11.99997795,-13.83338938,1,0,0,-11.99997795,-13.83338938,1,0,0,0,63,63,92,1,,,,,,,,
,,,,,,,,,,,,,FF,,,,,,,,1.549699999,,,,,,,,,,,,,,,,,,,,,,60fd868aa842dda04af3f6bf,61036e53daa485dd0859af50,2021-07-29_23h16.54.530,Simcolourproject_2stim_asymm_v5,2020.2.10,Win32,60,61025ae37ef11b136ea224fe,,,,,,,,,2296,24.66668981,-107.8333922,1,0,0,response3disk,,4,-5.333311081,3.499985158,1,0,0,rectangle,-5.333311081,3.499985158,1,0,0,-5.333311081,3.499985158,1,0,0,0,64,64,158,1,,,,,,,,
,,,,,,,,,,,,,FF,,,,,,,,1.183699999,,,,,,,,,,,,,,,,,,,,,,60fd868aa842dda04af3f6bf,61036e53daa485dd0859af50,2021-07-29_23h16.54.530,Simcolourproject_2stim_asymm_v5,2020.2.10,Win32,60,61025ae37ef11b136ea224fe,,,,,,,,,844,54.66669071,119.4999886,1,0,0,response1disk,,7,2.666689157,-0.500014961,1,0,0,rectangle,2.666689157,-0.500014961,1,0,0,2.666689157,-0.500014961,1,0,0,0,65,65,147,1,,,,,,,,
,,,,,,,,,,,,,FF,,,,,,,,1.649799999,,,,,,,,,,,,,,,,,,,,,,60fd868aa842dda04af3f6bf,61036e53daa485dd0859af50,2021-07-29_23h16.54.530,Simcolourproject_2stim_asymm_v5,2020.2.10,Win32,60,61025ae37ef11b136ea224fe,,,,,,,,,650,45.3333571,96.16665459,1,0,0,response1disk,,7,-7.333311141,-5.166681767,1,0,0,rectangle,-7.333311141,-5.166681767,1,0,0,-7.333311141,-5.166681767,1,0,0,0,66,66,128,1,,,,,,,,
,,,,,,,,,,,,,FF,,,,,,,,1.2005,,,,,,,,,,,,,,,,,,,,,,60fd868aa842dda04af3f6bf,61036e53daa485dd0859af50,2021-07-29_23h16.54.530,Simcolourproject_2stim_asymm_v5,2020.2.10,Win32,60,61025ae37ef11b136ea224fe,,,,,,,,,2363,-43.9999789,-97.16668451,1,0,0,response5disk,,3,-12.66664463,-7.833348513,1,0,0,rectangle,-12.66664463,-7.833348513,1,0,0,-12.66664463,-7.833348513,1,0,0,0,67,67,87,1,,,,,,,,
,,,,,,,,,,,,,FF,,,,,,,,2.217,,,,,,,,,,,,,,,,,,,,,,60fd868aa842dda04af3f6bf,61036e53daa485dd0859af50,2021-07-29_23h16.54.530,Simcolourproject_2stim_asymm_v5,2020.2.10,Win32,60,61025ae37ef11b136ea224fe,,,,,,,,,2545,90.00002509,-42.50001621,1,0,0,response3disk,,5,-6.666644454,-2.50001502,1,0,0,rectangle,-6.666644454,-2.50001502,1,0,0,-6.666644454,-2.50001502,1,0,0,0,68,68,56,1,,,,,,,,
,,,,,,,,,,,,,FF,,,,,,,,1.083800001,,,,,,,,,,,,,,,,,,,,,,60fd868aa842dda04af3f6bf,61036e53daa485dd0859af50,2021-07-29_23h16.54.530,Simcolourproject_2stim_asymm_v5,2020.2.10,Win32,60,61025ae37ef11b136ea224fe,,,,,,,,,312,55.33335739,100.8333214,1,0,0,response1disk,,7,-3.999977708,-16.50001544,1,0,0,rectangle,-3.999977708,-16.50001544,1,0,0,-3.999977708,-16.50001544,1,0,0,0,69,69,32,1,,,,,,,,
,,,,,,,,,,,,,FF,,,,,,,,1.633800001,,,,,,,,,,,,,,,,,,,,,,60fd868aa842dda04af3f6bf,61036e53daa485dd0859af50,2021-07-29_23h16.54.530,Simcolourproject_2stim_asymm_v5,2020.2.10,Win32,60,61025ae37ef11b136ea224fe,,,,,,,,,57,67.33335775,95.4999879,1,0,0,response1disk,,7,1.333355784,6.833318591,1,0,0,rectangle,1.333355784,6.833318591,1,0,0,1.333355784,6.833318591,1,0,0,0,70,70,139,1,,,,,,,,
,,,,,,,,,,,,,FF,,,,,,,,1.1334,,,,,,,,,,,,,,,,,,,,,,60fd868aa842dda04af3f6bf,61036e53daa485dd0859af50,2021-07-29_23h16.54.530,Simcolourproject_2stim_asymm_v5,2020.2.10,Win32,60,61025ae37ef11b136ea224fe,,,,,,,,,290,60.66669089,105.4999882,1,0,0,response1disk,,7,-3.333311021,11.4999854,1,0,0,rectangle,-3.333311021,11.4999854,1,0,0,-3.333311021,11.4999854,1,0,0,0,71,71,97,1,,,,,,,,
,,,,,,,,,,,,,FF,,,,,,,,0.9171,,,,,,,,,,,,,,,,,,,,,,60fd868aa842dda04af3f6bf,61036e53daa485dd0859af50,2021-07-29_23h16.54.530,Simcolourproject_2stim_asymm_v5,2020.2.10,Win32,60,61025ae37ef11b136ea224fe,,,,,,,,,2754,42.66669035,103.4999881,1,0,0,response1disk,,7,-6.666644454,8.166651964,1,0,0,rectangle,-6.666644454,8.166651964,1,0,0,-6.666644454,8.166651964,1,0,0,0,72,72,116,1,,,,,,,,
,,,,,,,,,,,,,FF,,,,,,,,1.133700001,,,,,,,,,,,,,,,,,,,,,,60fd868aa842dda04af3f6bf,61036e53daa485dd0859af50,2021-07-29_23h16.54.530,Simcolourproject_2stim_asymm_v5,2020.2.10,Win32,60,61025ae37ef11b136ea224fe,,,,,,,,,701,38.00002354,74.83332062,1,0,0,response1disk,,7,-6.666644454,16.83331889,1,0,0,rectangle,-6.666644454,16.83331889,1,0,0,-6.666644454,16.83331889,1,0,0,0,73,73,59,1,,,,,,,,
,,,,,,,,,,,,,FF,,,,,,,,1.350700001,,,,,,,,,,,,,,,,,,,,,,60fd868aa842dda04af3f6bf,61036e53daa485dd0859af50,2021-07-29_23h16.54.530,Simcolourproject_2stim_asymm_v5,2020.2.10,Win32,60,61025ae37ef11b136ea224fe,,,,,,,,,2949,118.0000259,53.49998665,1,0,0,response1disk,,6,-0.666644275,16.83331889,1,0,0,rectangle,-0.666644275,16.83331889,1,0,0,-0.666644275,16.83331889,1,0,0,0,74,74,149,1,,,,,,,,
,,,,,,,,,,,,,FF,,,,,,,,1.650200001,,,,,,,,,,,,,,,,,,,,,,60fd868aa842dda04af3f6bf,61036e53daa485dd0859af50,2021-07-29_23h16.54.530,Simcolourproject_2stim_asymm_v5,2020.2.10,Win32,60,61025ae37ef11b136ea224fe,,,,,,,,,1070,-61.99997944,-107.1666848,1,0,0,response5disk,,3,-16.66664475,-1.166681647,1,0,0,rectangle,-16.66664475,-1.166681647,1,0,0,-16.66664475,-1.166681647,1,0,0,0,75,75,121,1,,,,,,,,
,,,,,,,,,,,,,FF,,,,,,,,1.700200001,,,,,,,,,,,,,,,,,,,,,,60fd868aa842dda04af3f6bf,61036e53daa485dd0859af50,2021-07-29_23h16.54.530,Simcolourproject_2stim_asymm_v5,2020.2.10,Win32,60,61025ae37ef11b136ea224fe,,,,,,,,,1685,87.33335835,44.83331972,1,0,0,response1disk,,6,-28.66664511,-12.50001532,1,0,0,rectangle,-28.66664511,-12.50001532,1,0,0,-28.66664511,-12.50001532,1,0,0,0,76,76,4,1,,,,,,,,
,,,,,,,,,,,,,FF,,,,,,,,1.316799999,,,,,,,,,,,,,,,,,,,,,,60fd868aa842dda04af3f6bf,61036e53daa485dd0859af50,2021-07-29_23h16.54.530,Simcolourproject_2stim_asymm_v5,2020.2.10,Win32,60,61025ae37ef11b136ea224fe,,,,,,,,,1308,115.3333592,30.16665262,1,0,0,response1disk,,6,7.333355963,4.166651845,1,0,0,rectangle,7.333355963,4.166651845,1,0,0,7.333355963,4.166651845,1,0,0,0,77,77,37,1,,,,,,,,
,,,,,,,,,,,,,FF,,,,,,,,1.5165,,,,,,,,,,,,,,,,,,,,,,60fd868aa842dda04af3f6bf,61036e53daa485dd0859af50,2021-07-29_23h16.54.530,Simcolourproject_2stim_asymm_v5,2020.2.10,Win32,60,61025ae37ef11b136ea224fe,,,,,,,,,3465,60.66669089,110.8333217,1,0,0,response1disk,,7,2.000022471,-5.166681767,1,0,0,rectangle,2.000022471,-5.166681767,1,0,0,2.000022471,-5.166681767,1,0,0,0,78,78,129,1,,,,,,,,
,,,,,,,,,,,,,FF,,,,,,,,2.300799999,,,,,,,,,,,,,,,,,,,,,,60fd868aa842dda04af3f6bf,61036e53daa485dd0859af50,2021-07-29_23h16.54.530,Simcolourproject_2stim_asymm_v5,2020.2.10,Win32,60,61025ae37ef11b136ea224fe,,,,,,,,,1959,79.33335811,-58.50001669,1,0,0,response3disk,,5,7.333355963,-0.500014961,1,0,0,rectangle,7.333355963,-0.500014961,1,0,0,7.333355963,-0.500014961,1,0,0,0,79,79,2,1,,,,,,,,
,,,,,,,,,,,,,FF,,,,,,,,1.3836,,,,,,,,,,,,,,,,,,,,,,60fd868aa842dda04af3f6bf,61036e53daa485dd0859af50,2021-07-29_23h16.54.530,Simcolourproject_2stim_asymm_v5,2020.2.10,Win32,60,61025ae37ef11b136ea224fe,,,,,,,,,2485,78.66669142,30.16665262,1,0,0,response1disk,,6,1.333355784,2.166651785,1,0,0,rectangle,1.333355784,2.166651785,1,0,0,1.333355784,2.166651785,1,0,0,0,80,80,124,1,,,,,,,,
,,,,,,,,,,,,,FF,,,,,,,,1.134,,,,,,,,,,,,,,,,,,,,,,60fd868aa842dda04af3f6bf,61036e53daa485dd0859af50,2021-07-29_23h16.54.530,Simcolourproject_2stim_asymm_v5,2020.2.10,Win32,60,61025ae37ef11b136ea224fe,,,,,,,,,1163,48.00002384,95.4999879,1,0,0,response1disk,,7,-3.333311021,0.833318412,1,0,0,rectangle,-3.333311021,0.833318412,1,0,0,-3.333311021,0.833318412,1,0,0,0,81,81,117,1,,,,,,,,
,,,,,,,,,,,,,FF,,,,,,,,1.5171,,,,,,,,,,,,,,,,,,,,,,60fd868aa842dda04af3f6bf,61036e53daa485dd0859af50,2021-07-29_23h16.54.530,Simcolourproject_2stim_asymm_v5,2020.2.10,Win32,60,61025ae37ef11b136ea224fe,,,,,,,,,4085,30.66668999,-100.5000179,1,0,0,response3disk,,4,-0.666644275,-5.166681767,1,0,0,rectangle,-0.666644275,-5.166681767,1,0,0,-0.666644275,-5.166681767,1,0,0,0,82,82,150,1,,,,,,,,
,,,,,,,,,,,,,FF,,,,,,,,1.1,,,,,,,,,,,,,,,,,,,,,,60fd868aa842dda04af3f6bf,61036e53daa485dd0859af50,2021-07-29_23h16.54.530,Simcolourproject_2stim_asymm_v5,2020.2.10,Win32,60,61025ae37ef11b136ea224fe,,,,,,,,,626,40.0000236,74.83332062,1,0,0,response1disk,,7,-0.666644275,11.4999854,1,0,0,rectangle,-0.666644275,11.4999854,1,0,0,-0.666644275,11.4999854,1,0,0,0,83,83,54,1,,,,,,,,
,,,,,,,,,,,,,FF,,,,,,,,2.033900002,,,,,,,,,,,,,,,,,,,,,,60fd868aa842dda04af3f6bf,61036e53daa485dd0859af50,2021-07-29_23h16.54.530,Simcolourproject_2stim_asymm_v5,2020.2.10,Win32,60,61025ae37ef11b136ea224fe,,,,,,,,,2951,51.33335727,-88.50001758,1,0,0,response3disk,,4,-4.666644394,10.16665202,1,0,0,rectangle,-4.666644394,10.16665202,1,0,0,-4.666644394,10.16665202,1,0,0,0,84,84,23,1,,,,,,,,
,,,,,,,,,,,,,FF,,,,,,,,1.4335,,,,,,,,,,,,,,,,,,,,,,60fd868aa842dda04af3f6bf,61036e53daa485dd0859af50,2021-07-29_23h16.54.530,Simcolourproject_2stim_asymm_v5,2020.2.10,Win32,60,61025ae37ef11b136ea224fe,,,,,,,,,459,108.6666923,-59.16668338,1,0,0,response3disk,,5,2.000022471,-1.833348334,1,0,0,rectangle,2.000022471,-1.833348334,1,0,0,2.000022471,-1.833348334,1,0,0,0,85,85,109,1,,,,,,,,
,,,,,,,,,,,,,FF,,,,,,,,1.2835,,,,,,,,,,,,,,,,,,,,,,60fd868aa842dda04af3f6bf,61036e53daa485dd0859af50,2021-07-29_23h16.54.530,Simcolourproject_2stim_asymm_v5,2020.2.10,Win32,60,61025ae37ef11b136ea224fe,,,,,,,,,2030,-64.66664618,-111.8333923,1,0,0,response5disk,,3,-15.33331138,-5.833348453,1,0,0,rectangle,92.66669184,40.16665292,1,0,0,10.6666894,-1.166681647,1,0,0,0,86,86,31,1,,response1disk_3,TRUE,6,6,"[249,195,321,45,13,205,129,208,211,287,19,92,87,19,265,62,104,294,135,51]",2.284300001,rectangle
,,,,,,,,,,,,,FF,,,,,,,,1.2506,,,,,,,,,,,,,,,,,,,,,,60fd868aa842dda04af3f6bf,61036e53daa485dd0859af50,2021-07-29_23h16.54.530,Simcolourproject_2stim_asymm_v5,2020.2.10,Win32,60,61025ae37ef11b136ea224fe,,,,,,,,,4153,52.66669065,107.4999883,1,0,0,response1disk,,7,11.33335608,-0.500014961,1,0,0,rectangle,11.33335608,-0.500014961,1,0,0,11.33335608,-0.500014961,1,0,0,0,87,87,72,1,,,,,,,,
,,,,,,,,,,,,,FF,,,,,,,,1.434,,,,,,,,,,,,,,,,,,,,,,60fd868aa842dda04af3f6bf,61036e53daa485dd0859af50,2021-07-29_23h16.54.530,Simcolourproject_2stim_asymm_v5,2020.2.10,Win32,60,61025ae37ef11b136ea224fe,,,,,,,,,3512,-86.66660615,-37.16668272,1,0,0,response5disk,,2,6.666689277,-3.166681707,1,0,0,rectangle,6.666689277,-3.166681707,1,0,0,6.666689277,-3.166681707,1,0,0,0,88,88,115,1,,,,,,,,
,,,,,,,,,,,,,FF,,,,,,,,1.033799999,,,,,,,,,,,,,,,,,,,,,,60fd868aa842dda04af3f6bf,61036e53daa485dd0859af50,2021-07-29_23h16.54.530,Simcolourproject_2stim_asymm_v5,2020.2.10,Win32,60,61025ae37ef11b136ea224fe,,,,,,,,,3288,43.33335704,99.49998802,1,0,0,response1disk,,7,0.666689098,12.83331877,1,0,0,rectangle,0.666689098,12.83331877,1,0,0,0.666689098,12.83331877,1,0,0,0,89,89,153,1,,,,,,,,
,,,,,,,,,,,,,FF,,,,,,,,1.050299999,,,,,,,,,,,,,,,,,,,,,,60fd868aa842dda04af3f6bf,61036e53daa485dd0859af50,2021-07-29_23h16.54.530,Simcolourproject_2stim_asymm_v5,2020.2.10,Win32,60,61025ae37ef11b136ea224fe,,,,,,,,,2627,38.66669023,88.16665435,1,0,0,response1disk,,7,-0.666644275,-1.833348334,1,0,0,rectangle,-0.666644275,-1.833348334,1,0,0,-0.666644275,-1.833348334,1,0,0,0,90,90,85,1,,,,,,,,
,,,,,,,,,,,,,FF,,,,,,,,2.3334,,,,,,,,,,,,,,,,,,,,,,60fd868aa842dda04af3f6bf,61036e53daa485dd0859af50,2021-07-29_23h16.54.530,Simcolourproject_2stim_asymm_v5,2020.2.10,Win32,60,61025ae37ef11b136ea224fe,,,,,,,,,4306,104.0000255,44.83331972,1,0,0,response1disk,,6,0.666689098,7.499985278,1,0,0,rectangle,22.00002307,-87.83339159,1,0,0,12.66668946,-6.50001514,1,0,0,0,91,91,134,1,,response3disk_3,TRUE,4,4,"[249,195,321,45,13,205,129,208,211,287,19,92,87,19,265,62,104,294,135,51]",1.9165,rectangle
,,,,,,,,,,,,,FF,,,,,,,,1.8,,,,,,,,,,,,,,,,,,,,,,60fd868aa842dda04af3f6bf,61036e53daa485dd0859af50,2021-07-29_23h16.54.530,Simcolourproject_2stim_asymm_v5,2020.2.10,Win32,60,61025ae37ef11b136ea224fe,,,,,,,,,1925,42.66669035,90.16665441,1,0,0,response1disk,,7,10.00002271,-7.833348513,1,0,0,rectangle,10.00002271,-7.833348513,1,0,0,10.00002271,-7.833348513,1,0,0,0,92,92,82,1,,,,,,,,
,,,,,,,,,,,,,FF,,,,,,,,1.484,,,,,,,,,,,,,,,,,,,,,,60fd868aa842dda04af3f6bf,61036e53daa485dd0859af50,2021-07-29_23h16.54.530,Simcolourproject_2stim_asymm_v5,2020.2.10,Win32,60,61025ae37ef11b136ea224fe,,,,,,,,,3966,-81.33331335,-54.50001657,1,0,0,response5disk,,2,-15.99997807,1.499985099,1,0,0,rectangle,-15.99997807,1.499985099,1,0,0,-15.99997807,1.499985099,1,0,0,0,93,93,40,1,,,,,,,,
,,,,,,,,,,,,,FF,,,,,,,,3.717,,,,,,,,,,,,,,,,,,,,,,60fd868aa842dda04af3f6bf,61036e53daa485dd0859af50,2021-07-29_23h16.54.530,Simcolourproject_2stim_asymm_v5,2020.2.10,Win32,60,61025ae37ef11b136ea224fe,,,,,,,,,2656,59.33335751,87.49998766,1,0,0,response1disk,,7,-5.999977767,-13.83338938,1,0,0,rectangle,-5.999977767,-13.83338938,1,0,0,-5.999977767,-13.83338938,1,0,0,0,94,94,76,1,,,,,,,,
,,,,,,,,,,,,,FF,,,,,,,,2.033599998,,,,,,,,,,,,,,,,,,,,,,60fd868aa842dda04af3f6bf,61036e53daa485dd0859af50,2021-07-29_23h16.54.530,Simcolourproject_2stim_asymm_v5,2020.2.10,Win32,60,61025ae37ef11b136ea224fe,,,,,,,,,2174,96.66669196,-33.1666826,1,0,0,response3disk,,5,-4.666644394,12.83331877,1,0,0,rectangle,-4.666644394,12.83331877,1,0,0,-4.666644394,12.83331877,1,0,0,0,95,95,77,1,,,,,,,,
,,,,,,,,,,,,,FF,,,,,,,,1.500799999,,,,,,,,,,,,,,,,,,,,,,60fd868aa842dda04af3f6bf,61036e53daa485dd0859af50,2021-07-29_23h16.54.530,Simcolourproject_2stim_asymm_v5,2020.2.10,Win32,60,61025ae37ef11b136ea224fe,,,,,,,,,3522,92.00002515,42.83331966,1,0,0,response1disk,,6,12.00002277,6.833318591,1,0,0,rectangle,12.00002277,6.833318591,1,0,0,12.00002277,6.833318591,1,0,0,0,96,96,98,1,,,,,,,,
,,,,,,,,,,,,,FF,,,,,,,,5.0671,,,,,,,,,,,,,,,,,,,,,,60fd868aa842dda04af3f6bf,61036e53daa485dd0859af50,2021-07-29_23h16.54.530,Simcolourproject_2stim_asymm_v5,2020.2.10,Win32,60,61025ae37ef11b136ea224fe,,,,,,,,,2096,39.33335692,-104.5000181,1,0,0,response3disk,,4,12.66668946,-9.166681886,1,0,0,rectangle,12.66668946,-9.166681886,1,0,0,12.66668946,-9.166681886,1,0,0,0,97,97,35,1,,,,,,,,
,,,,,,,,,,,,,FF,,,,,,,,1.3171,,,,,,,,,,,,,,,,,,,,,,60fd868aa842dda04af3f6bf,61036e53daa485dd0859af50,2021-07-29_23h16.54.530,Simcolourproject_2stim_asymm_v5,2020.2.10,Win32,60,61025ae37ef11b136ea224fe,,,,,,,,,2942,81.33335817,50.8333199,1,0,0,response1disk,,6,-5.333311081,-3.833348393,1,0,0,rectangle,-5.333311081,-3.833348393,1,0,0,-5.333311081,-3.833348393,1,0,0,0,98,98,53,1,,,,,,,,
,,,,,,,,,,,,,FF,,,,,,,,0.8669,,,,,,,,,,,,,,,,,,,,,,60fd868aa842dda04af3f6bf,61036e53daa485dd0859af50,2021-07-29_23h16.54.530,Simcolourproject_2stim_asymm_v5,2020.2.10,Win32,60,61025ae37ef11b136ea224fe,,,,,,,,,454,58.00002414,116.1666552,1,0,0,response1disk,,7,-7.999977827,7.499985278,1,0,0,rectangle,-7.999977827,7.499985278,1,0,0,-7.999977827,7.499985278,1,0,0,0,99,99,119,1,,,,,,,,
,,,,,,,,,,,,,FF,,,,,,,,1.350200001,,,,,,,,,,,,,,,,,,,,,,60fd868aa842dda04af3f6bf,61036e53daa485dd0859af50,2021-07-29_23h16.54.530,Simcolourproject_2stim_asymm_v5,2020.2.10,Win32,60,61025ae37ef11b136ea224fe,,,,,,,,,2529,46.66669047,105.4999882,1,0,0,response1disk,,7,-16.66664475,4.166651845,1,0,0,rectangle,-16.66664475,4.166651845,1,0,0,-16.66664475,4.166651845,1,0,0,0,100,100,125,1,,,,,,,,
,,,,,,,,,,,,,FF,,,,,,,,2.2,,,,,,,,,,,,,,,,,,,,,,60fd868aa842dda04af3f6bf,61036e53daa485dd0859af50,2021-07-29_23h16.54.530,Simcolourproject_2stim_asymm_v5,2020.2.10,Win32,60,61025ae37ef11b136ea224fe,,,,,,,,,1890,88.66669172,-38.50001609,1,0,0,response3disk,,5,6.666689277,4.833318532,1,0,0,rectangle,6.666689277,4.833318532,1,0,0,6.666689277,4.833318532,1,0,0,0,101,101,18,1,,,,,,,,
,,,,,,,,,,,,,FF,,,,,,,,0.884199999,,,,,,,,,,,,,,,,,,,,,,60fd868aa842dda04af3f6bf,61036e53daa485dd0859af50,2021-07-29_23h16.54.530,Simcolourproject_2stim_asymm_v5,2020.2.10,Win32,60,61025ae37ef11b136ea224fe,,,,,,,,,425,58.00002414,109.4999883,1,0,0,response1disk,,7,1.333355784,8.166651964,1,0,0,rectangle,1.333355784,8.166651964,1,0,0,1.333355784,8.166651964,1,0,0,0,102,102,151,1,,,,,,,,
,,,,,,,,,,,,,FF,,,,,,,,0.8334,,,,,,,,,,,,,,,,,,,,,,60fd868aa842dda04af3f6bf,61036e53daa485dd0859af50,2021-07-29_23h16.54.530,Simcolourproject_2stim_asymm_v5,2020.2.10,Win32,60,61025ae37ef11b136ea224fe,,,,,,,,,3804,52.66669065,103.4999881,1,0,0,response1disk,,7,-3.999977708,8.166651964,1,0,0,rectangle,-87.33331352,32.83331937,1,0,0,11.33335608,1.499985099,1,0,0,0,103,103,12,1,,response7disk_3,TRUE,1,1,"[249,195,321,45,13,205,129,208,211,287,19,92,87,19,265,62,104,294,135,51]",1.733099998,rectangle
,,,,,,,,,,,,,FF,,,,,,,,1.633599998,,,,,,,,,,,,,,,,,,,,,,60fd868aa842dda04af3f6bf,61036e53daa485dd0859af50,2021-07-29_23h16.54.530,Simcolourproject_2stim_asymm_v5,2020.2.10,Win32,60,61025ae37ef11b136ea224fe,,,,,,,,,2895,93.33335853,-37.16668272,1,0,0,response3disk,,5,8.666689336,-7.833348513,1,0,0,rectangle,8.666689336,-7.833348513,1,0,0,8.666689336,-7.833348513,1,0,0,0,104,104,49,1,,,,,,,,
,,,,,,,,,,,,,FF,,,,,,,,1.500300001,,,,,,,,,,,,,,,,,,,,,,60fd868aa842dda04af3f6bf,61036e53daa485dd0859af50,2021-07-29_23h16.54.530,Simcolourproject_2stim_asymm_v5,2020.2.10,Win32,60,61025ae37ef11b136ea224fe,,,,,,,,,96,-39.33331209,-86.50001752,1,0,0,response5disk,,3,2.24113E-05,0.166651726,1,0,0,rectangle,2.24113E-05,0.166651726,1,0,0,2.24113E-05,0.166651726,1,0,0,0,105,105,21,1,,,,,,,,
,,,,,,,,,,,,,FF,,,,,,,,1.6996,,,,,,,,,,,,,,,,,,,,,,60fd868aa842dda04af3f6bf,61036e53daa485dd0859af50,2021-07-29_23h16.54.530,Simcolourproject_2stim_asymm_v5,2020.2.10,Win32,60,61025ae37ef11b136ea224fe,,,,,,,,,3420,99.33335871,-43.1666829,1,0,0,response3disk,,5,4.666689217,16.1666522,1,0,0,rectangle,4.666689217,16.1666522,1,0,0,4.666689217,16.1666522,1,0,0,0,106,106,41,1,,,,,,,,
,,,,,,,,,,,,,FF,,,,,,,,0.9169,,,,,,,,,,,,,,,,,,,,,,60fd868aa842dda04af3f6bf,61036e53daa485dd0859af50,2021-07-29_23h16.54.530,Simcolourproject_2stim_asymm_v5,2020.2.10,Win32,60,61025ae37ef11b136ea224fe,,,,,,,,,414,39.33335692,98.83332133,1,0,0,response1disk,,7,-4.666644394,8.166651964,1,0,0,rectangle,-4.666644394,8.166651964,1,0,0,-4.666644394,8.166651964,1,0,0,0,107,107,65,1,,,,,,,,
,,,,,,,,,,,,,FF,,,,,,,,0.9999,,,,,,,,,,,,,,,,,,,,,,60fd868aa842dda04af3f6bf,61036e53daa485dd0859af50,2021-07-29_23h16.54.530,Simcolourproject_2stim_asymm_v5,2020.2.10,Win32,60,61025ae37ef11b136ea224fe,,,,,,,,,1419,46.66669047,86.16665429,1,0,0,response1disk,,7,-3.999977708,-2.50001502,1,0,0,rectangle,-3.999977708,-2.50001502,1,0,0,-3.999977708,-2.50001502,1,0,0,0,108,108,78,1,,,,,,,,
,,,,,,,,,,,,,FF,,,,,,,,0.917,,,,,,,,,,,,,,,,,,,,,,60fd868aa842dda04af3f6bf,61036e53daa485dd0859af50,2021-07-29_23h16.54.530,Simcolourproject_2stim_asymm_v5,2020.2.10,Win32,60,61025ae37ef11b136ea224fe,,,,,,,,,949,40.66669029,83.49998754,1,0,0,response1disk,,7,2.24113E-05,5.499985218,1,0,0,rectangle,2.24113E-05,5.499985218,1,0,0,2.24113E-05,5.499985218,1,0,0,0,109,109,146,1,,,,,,,,
,,,,,,,,,,,,,FF,,,,,,,,0.867299999,,,,,,,,,,,,,,,,,,,,,,60fd868aa842dda04af3f6bf,61036e53daa485dd0859af50,2021-07-29_23h16.54.530,Simcolourproject_2stim_asymm_v5,2020.2.10,Win32,60,61025ae37ef11b136ea224fe,,,,,,,,,1346,32.66669005,74.16665393,1,0,0,response1disk,,7,-9.999977887,4.833318532,1,0,0,rectangle,-9.999977887,4.833318532,1,0,0,-9.999977887,4.833318532,1,0,0,0,110,110,14,1,,,,,,,,
,,,,,,,,,,,,,FF,,,,,,,,0.817300001,,,,,,,,,,,,,,,,,,,,,,60fd868aa842dda04af3f6bf,61036e53daa485dd0859af50,2021-07-29_23h16.54.530,Simcolourproject_2stim_asymm_v5,2020.2.10,Win32,60,61025ae37ef11b136ea224fe,,,,,,,,,3131,38.00002354,80.8333208,1,0,0,response1disk,,7,-0.666644275,3.499985158,1,0,0,rectangle,-0.666644275,3.499985158,1,0,0,-0.666644275,3.499985158,1,0,0,0,111,111,52,1,,,,,,,,
,,,,,,,,,,,,,FF,,,,,,,,1.501,,,,,,,,,,,,,,,,,,,,,,60fd868aa842dda04af3f6bf,61036e53daa485dd0859af50,2021-07-29_23h16.54.530,Simcolourproject_2stim_asymm_v5,2020.2.10,Win32,60,61025ae37ef11b136ea224fe,,,,,,,,,1887,-56.66664594,-98.50001788,1,0,0,response5disk,,3,-11.99997795,-6.50001514,1,0,0,rectangle,-11.99997795,-6.50001514,1,0,0,-11.99997795,-6.50001514,1,0,0,0,112,112,33,1,,,,,,,,
,,,,,,,,,,,,,FF,,,,,,,,1.4005,,,,,,,,,,,,,,,,,,,,,,60fd868aa842dda04af3f6bf,61036e53daa485dd0859af50,2021-07-29_23h16.54.530,Simcolourproject_2stim_asymm_v5,2020.2.10,Win32,60,61025ae37ef11b136ea224fe,,,,,,,,,2836,66.66669106,-39.83339016,1,0,0,response3disk,,5,16.66668957,5.499985218,1,0,0,rectangle,16.66668957,5.499985218,1,0,0,16.66668957,5.499985218,1,0,0,0,113,113,3,1,,,,,,,,
,,,,,,,,,,,,,FF,,,,,,,,1.483799999,,,,,,,,,,,,,,,,,,,,,,60fd868aa842dda04af3f6bf,61036e53daa485dd0859af50,2021-07-29_23h16.54.530,Simcolourproject_2stim_asymm_v5,2020.2.10,Win32,60,61025ae37ef11b136ea224fe,,,,,,,,,981,77.33335805,53.49998665,1,0,0,response1disk,,6,-5.333311081,7.499985278,1,0,0,rectangle,-5.333311081,7.499985278,1,0,0,-5.333311081,7.499985278,1,0,0,0,114,114,7,1,,,,,,,,
,,,,,,,,,,,,,FF,,,,,,,,1.6335,,,,,,,,,,,,,,,,,,,,,,60fd868aa842dda04af3f6bf,61036e53daa485dd0859af50,2021-07-29_23h16.54.530,Simcolourproject_2stim_asymm_v5,2020.2.10,Win32,60,61025ae37ef11b136ea224fe,,,,,,,,,4120,-55.99997926,-109.1666849,1,0,0,response5disk,,3,-7.999977827,-8.500015199,1,0,0,rectangle,-7.999977827,-8.500015199,1,0,0,-7.999977827,-8.500015199,1,0,0,0,115,115,94,1,,,,,,,,
,,,,,,,,,,,,,FF,,,,,,,,0.9335,,,,,,,,,,,,,,,,,,,,,,60fd868aa842dda04af3f6bf,61036e53daa485dd0859af50,2021-07-29_23h16.54.530,Simcolourproject_2stim_asymm_v5,2020.2.10,Win32,60,61025ae37ef11b136ea224fe,,,,,,,,,2521,50.0000239,96.16665459,1,0,0,response1disk,,7,7.333355963,12.16665208,1,0,0,rectangle,7.333355963,12.16665208,1,0,0,7.333355963,12.16665208,1,0,0,0,116,116,136,1,,,,,,,,
,,,,,,,,,,,,,FF,,,,,,,,1.0334,,,,,,,,,,,,,,,,,,,,,,60fd868aa842dda04af3f6bf,61036e53daa485dd0859af50,2021-07-29_23h16.54.530,Simcolourproject_2stim_asymm_v5,2020.2.10,Win32,60,61025ae37ef11b136ea224fe,,,,,,,,,37,44.66669041,104.8333215,1,0,0,response1disk,,7,-13.99997801,6.833318591,1,0,0,rectangle,-13.99997801,6.833318591,1,0,0,-13.99997801,6.833318591,1,0,0,0,117,117,38,1,,,,,,,,
,,,,,,,,,,,,,FF,,,,,,,,0.916800001,,,,,,,,,,,,,,,,,,,,,,60fd868aa842dda04af3f6bf,61036e53daa485dd0859af50,2021-07-29_23h16.54.530,Simcolourproject_2stim_asymm_v5,2020.2.10,Win32,60,61025ae37ef11b136ea224fe,,,,,,,,,3842,50.0000239,96.83332127,1,0,0,response1disk,,7,6.666689277,6.833318591,1,0,0,rectangle,6.666689277,6.833318591,1,0,0,6.666689277,6.833318591,1,0,0,0,118,118,62,1,,,,,,,,
,,,,,,,,,,,,,FF,,,,,,,,0.948799999,,,,,,,,,,,,,,,,,,,,,,60fd868aa842dda04af3f6bf,61036e53daa485dd0859af50,2021-07-29_23h16.54.530,Simcolourproject_2stim_asymm_v5,2020.2.10,Win32,60,61025ae37ef11b136ea224fe,,,,,,,,,2918,46.00002378,100.8333214,1,0,0,response1disk,,7,-3.999977708,8.833318651,1,0,0,rectangle,-3.999977708,8.833318651,1,0,0,-3.999977708,8.833318651,1,0,0,0,119,119,48,1,,,,,,,,
,,,,,,,,,,,,,FF,,,,,,,,2.066700001,,,,,,,,,,,,,,,,,,,,,,60fd868aa842dda04af3f6bf,61036e53daa485dd0859af50,2021-07-29_23h16.54.530,Simcolourproject_2stim_asymm_v5,2020.2.10,Win32,60,61025ae37ef11b136ea224fe,,,,,,,,,2792,106.6666923,51.49998659,1,0,0,response1disk,,6,11.33335608,4.166651845,1,0,0,rectangle,11.33335608,4.166651845,1,0,0,11.33335608,4.166651845,1,0,0,0,120,120,75,1,,,,,,,,
,,,,,,,,,,,,,FF,,,,,,,,1.767599998,,,,,,,,,,,,,,,,,,,,,,60fd868aa842dda04af3f6bf,61036e53daa485dd0859af50,2021-07-29_23h16.54.530,Simcolourproject_2stim_asymm_v5,2020.2.10,Win32,60,61025ae37ef11b136ea224fe,,,,,,,,,3285,84.00002491,35.49998611,1,0,0,response1disk,,6,-14.66664469,-2.50001502,1,0,0,rectangle,-14.66664469,-2.50001502,1,0,0,-14.66664469,-2.50001502,1,0,0,0,121,121,100,1,,,,,,,,
,,,,,,,,,,,,,FF,,,,,,,,1.0506,,,,,,,,,,,,,,,,,,,,,,60fd868aa842dda04af3f6bf,61036e53daa485dd0859af50,2021-07-29_23h16.54.530,Simcolourproject_2stim_asymm_v5,2020.2.10,Win32,60,61025ae37ef11b136ea224fe,,,,,,,,,3832,51.33335727,105.4999882,1,0,0,response1disk,,7,-1.999977648,-3.833348393,1,0,0,rectangle,-1.999977648,-3.833348393,1,0,0,-1.999977648,-3.833348393,1,0,0,0,122,122,148,1,,,,,,,,
,,,,,,,,,,,,,FF,,,,,,,,0.816799999,,,,,,,,,,,,,,,,,,,,,,60fd868aa842dda04af3f6bf,61036e53daa485dd0859af50,2021-07-29_23h16.54.530,Simcolourproject_2stim_asymm_v5,2020.2.10,Win32,60,61025ae37ef11b136ea224fe,,,,,,,,,52,47.33335716,88.83332103,1,0,0,response1disk,,7,-6.666644454,3.499985158,1,0,0,rectangle,-6.666644454,3.499985158,1,0,0,-6.666644454,3.499985158,1,0,0,0,123,123,90,1,,,,,,,,
,,,,,,,,,,,,,FF,,,,,,,,0.783700001,,,,,,,,,,,,,,,,,,,,,,60fd868aa842dda04af3f6bf,61036e53daa485dd0859af50,2021-07-29_23h16.54.530,Simcolourproject_2stim_asymm_v5,2020.2.10,Win32,60,61025ae37ef11b136ea224fe,,,,,,,,,2861,44.00002372,87.49998766,1,0,0,response1disk,,7,-6.666644454,5.499985218,1,0,0,rectangle,-6.666644454,5.499985218,1,0,0,-6.666644454,5.499985218,1,0,0,0,124,124,67,1,,,,,,,,
,,,,,,,,,,,,,FF,,,,,,,,1.0165,,,,,,,,,,,,,,,,,,,,,,60fd868aa842dda04af3f6bf,61036e53daa485dd0859af50,2021-07-29_23h16.54.530,Simcolourproject_2stim_asymm_v5,2020.2.10,Win32,60,61025ae37ef11b136ea224fe,,,,,,,,,2310,34.66669011,69.49998713,1,0,0,response1disk,,7,2.000022471,-4.50001508,1,0,0,rectangle,2.000022471,-4.50001508,1,0,0,2.000022471,-4.50001508,1,0,0,0,125,125,96,1,,,,,,,,
,,,,,,,,,,,,,FF,,,,,,,,0.866699999,,,,,,,,,,,,,,,,,,,,,,60fd868aa842dda04af3f6bf,61036e53daa485dd0859af50,2021-07-29_23h16.54.530,Simcolourproject_2stim_asymm_v5,2020.2.10,Win32,60,61025ae37ef11b136ea224fe,,,,,,,,,311,44.00002372,78.16665405,1,0,0,response1disk,,7,2.000022471,-2.50001502,1,0,0,rectangle,2.000022471,-2.50001502,1,0,0,2.000022471,-2.50001502,1,0,0,0,126,126,144,1,,,,,,,,
,,,,,,,,,,,,,FF,,,,,,,,1.400099998,,,,,,,,,,,,,,,,,,,,,,60fd868aa842dda04af3f6bf,61036e53daa485dd0859af50,2021-07-29_23h16.54.530,Simcolourproject_2stim_asymm_v5,2020.2.10,Win32,60,61025ae37ef11b136ea224fe,,,,,,,,,2156,58.66669083,82.83332086,1,0,0,response1disk,,7,4.666689217,2.833318472,1,0,0,rectangle,4.666689217,2.833318472,1,0,0,4.666689217,2.833318472,1,0,0,0,127,127,80,1,,,,,,,,
,,,,,,,,,,,,,FF,,,,,,,,0.8335,,,,,,,,,,,,,,,,,,,,,,60fd868aa842dda04af3f6bf,61036e53daa485dd0859af50,2021-07-29_23h16.54.530,Simcolourproject_2stim_asymm_v5,2020.2.10,Win32,60,61025ae37ef11b136ea224fe,,,,,,,,,2749,54.66669071,94.83332121,1,0,0,response1disk,,7,2.000022471,9.499985337,1,0,0,rectangle,-95.33331376,-47.16668302,1,0,0,-16.66664475,-3.166681707,1,0,0,0,128,128,58,1,,response5disk_3,TRUE,2,2,"[249,195,321,45,13,205,129,208,211,287,19,92,87,19,265,62,104,294,135,51]",2.016,rectangle
,,,,,,,,,,,,,FF,,,,,,,,1.783299999,,,,,,,,,,,,,,,,,,,,,,60fd868aa842dda04af3f6bf,61036e53daa485dd0859af50,2021-07-29_23h16.54.530,Simcolourproject_2stim_asymm_v5,2020.2.10,Win32,60,61025ae37ef11b136ea224fe,,,,,,,,,168,65.33335769,-47.83339039,1,0,0,response3disk,,5,-10.66664457,12.16665208,1,0,0,rectangle,-10.66664457,12.16665208,1,0,0,-10.66664457,12.16665208,1,0,0,0,129,129,60,1,,,,,,,,
,,,,,,,,,,,,,FF,,,,,,,,1.0669,,,,,,,,,,,,,,,,,,,,,,60fd868aa842dda04af3f6bf,61036e53daa485dd0859af50,2021-07-29_23h16.54.530,Simcolourproject_2stim_asymm_v5,2020.2.10,Win32,60,61025ae37ef11b136ea224fe,,,,,,,,,4014,71.33335787,113.4999884,1,0,0,response1disk,,7,12.00002277,0.833318412,1,0,0,rectangle,12.00002277,0.833318412,1,0,0,12.00002277,0.833318412,1,0,0,0,130,130,11,1,,,,,,,,
,,,,,,,,,,,,,FF,,,,,,,,0.950599998,,,,,,,,,,,,,,,,,,,,,,60fd868aa842dda04af3f6bf,61036e53daa485dd0859af50,2021-07-29_23h16.54.530,Simcolourproject_2stim_asymm_v5,2020.2.10,Win32,60,61025ae37ef11b136ea224fe,,,,,,,,,1155,48.66669053,91.49998778,1,0,0,response1disk,,7,6.00002259,2.833318472,1,0,0,rectangle,6.00002259,2.833318472,1,0,0,6.00002259,2.833318472,1,0,0,0,131,131,79,1,,,,,,,,
,,,,,,,,,,,,,FF,,,,,,,,0.950700001,,,,,,,,,,,,,,,,,,,,,,60fd868aa842dda04af3f6bf,61036e53daa485dd0859af50,2021-07-29_23h16.54.530,Simcolourproject_2stim_asymm_v5,2020.2.10,Win32,60,61025ae37ef11b136ea224fe,,,,,,,,,2238,51.33335727,94.83332121,1,0,0,response1disk,,7,2.666689157,10.83331871,1,0,0,rectangle,2.666689157,10.83331871,1,0,0,2.666689157,10.83331871,1,0,0,0,132,132,106,1,,,,,,,,
,,,,,,,,,,,,,FF,,,,,,,,0.8005,,,,,,,,,,,,,,,,,,,,,,60fd868aa842dda04af3f6bf,61036e53daa485dd0859af50,2021-07-29_23h16.54.530,Simcolourproject_2stim_asymm_v5,2020.2.10,Win32,60,61025ae37ef11b136ea224fe,,,,,,,,,2464,51.33335727,111.4999884,1,0,0,response1disk,,7,-7.333311141,0.833318412,1,0,0,rectangle,-7.333311141,0.833318412,1,0,0,-7.333311141,0.833318412,1,0,0,0,133,133,70,1,,,,,,,,
,,,,,,,,,,,,,FF,,,,,,,,0.800599998,,,,,,,,,,,,,,,,,,,,,,60fd868aa842dda04af3f6bf,61036e53daa485dd0859af50,2021-07-29_23h16.54.530,Simcolourproject_2stim_asymm_v5,2020.2.10,Win32,60,61025ae37ef11b136ea224fe,,,,,,,,,1851,48.66669053,85.4999876,1,0,0,response1disk,,7,3.333355844,6.166651905,1,0,0,rectangle,-30.66664517,-88.50001758,1,0,0,4.666689217,-3.833348393,1,0,0,0,134,134,51,1,,response5disk_3,TRUE,3,3,"[249,195,321,45,13,205,129,208,211,287,19,92,87,19,265,62,104,294,135,51]",2.2999,rectangle
,,,,,,,,,,,,,FF,,,,,,,,1.016699999,,,,,,,,,,,,,,,,,,,,,,60fd868aa842dda04af3f6bf,61036e53daa485dd0859af50,2021-07-29_23h16.54.530,Simcolourproject_2stim_asymm_v5,2020.2.10,Win32,60,61025ae37ef11b136ea224fe,,,,,,,,,3135,42.00002366,106.8333216,1,0,0,response1disk,,7,1.333355784,19.49998564,1,0,0,rectangle,1.333355784,19.49998564,1,0,0,1.333355784,19.49998564,1,0,0,0,135,135,108,1,,,,,,,,
,,,,,,,,,,,,,FF,,,,,,,,0.817200001,,,,,,,,,,,,,,,,,,,,,,60fd868aa842dda04af3f6bf,61036e53daa485dd0859af50,2021-07-29_23h16.54.530,Simcolourproject_2stim_asymm_v5,2020.2.10,Win32,60,61025ae37ef11b136ea224fe,,,,,,,,,2467,40.0000236,88.16665435,1,0,0,response1disk,,7,0.666689098,-17.16668212,1,0,0,rectangle,0.666689098,-17.16668212,1,0,0,0.666689098,-17.16668212,1,0,0,0,136,136,101,1,,,,,,,,
,,,,,,,,,,,,,FF,,,,,,,,1.433400002,,,,,,,,,,,,,,,,,,,,,,60fd868aa842dda04af3f6bf,61036e53daa485dd0859af50,2021-07-29_23h16.54.530,Simcolourproject_2stim_asymm_v5,2020.2.10,Win32,60,61025ae37ef11b136ea224fe,,,,,,,,,900,95.33335859,33.49998605,1,0,0,response1disk,,6,8.666689336,-0.500014961,1,0,0,rectangle,8.666689336,-0.500014961,1,0,0,8.666689336,-0.500014961,1,0,0,0,137,137,127,1,,,,,,,,
,,,,,,,,,,,,,FF,,,,,,,,1.316699999,,,,,,,,,,,,,,,,,,,,,,60fd868aa842dda04af3f6bf,61036e53daa485dd0859af50,2021-07-29_23h16.54.530,Simcolourproject_2stim_asymm_v5,2020.2.10,Win32,60,61025ae37ef11b136ea224fe,,,,,,,,,759,43.33335704,86.16665429,1,0,0,response1disk,,7,-0.666644275,2.166651785,1,0,0,rectangle,-0.666644275,2.166651785,1,0,0,-0.666644275,2.166651785,1,0,0,0,138,138,157,1,,,,,,,,
,,,,,,,,,,,,,FF,,,,,,,,1.052199999,,,,,,,,,,,,,,,,,,,,,,60fd868aa842dda04af3f6bf,61036e53daa485dd0859af50,2021-07-29_23h16.54.530,Simcolourproject_2stim_asymm_v5,2020.2.10,Win32,60,61025ae37ef11b136ea224fe,,,,,,,,,2134,36.66669017,78.83332074,1,0,0,response1disk,,7,-2.666644335,9.499985337,1,0,0,rectangle,-2.666644335,9.499985337,1,0,0,-2.666644335,9.499985337,1,0,0,0,139,139,74,1,,,,,,,,
,,,,,,,,,,,,,FF,,,,,,,,0.7169,,,,,,,,,,,,,,,,,,,,,,60fd868aa842dda04af3f6bf,61036e53daa485dd0859af50,2021-07-29_23h16.54.530,Simcolourproject_2stim_asymm_v5,2020.2.10,Win32,60,61025ae37ef11b136ea224fe,,,,,,,,,404,39.33335692,86.16665429,1,0,0,response1disk,,7,2.666689157,10.16665202,1,0,0,rectangle,2.666689157,10.16665202,1,0,0,2.666689157,10.16665202,1,0,0,0,140,140,8,1,,,,,,,,
,,,,,,,,,,,,,FF,,,,,,,,1.0504,,,,,,,,,,,,,,,,,,,,,,60fd868aa842dda04af3f6bf,61036e53daa485dd0859af50,2021-07-29_23h16.54.530,Simcolourproject_2stim_asymm_v5,2020.2.10,Win32,60,61025ae37ef11b136ea224fe,,,,,,,,,1773,88.00002503,28.16665256,1,0,0,response1disk,,6,4.000022531,-4.50001508,1,0,0,rectangle,4.000022531,-4.50001508,1,0,0,4.000022531,-4.50001508,1,0,0,0,141,141,107,1,,,,,,,,
,,,,,,,,,,,,,FF,,,,,,,,1.433,,,,,,,,,,,,,,,,,,,,,,60fd868aa842dda04af3f6bf,61036e53daa485dd0859af50,2021-07-29_23h16.54.530,Simcolourproject_2stim_asymm_v5,2020.2.10,Win32,60,61025ae37ef11b136ea224fe,,,,,,,,,2991,46.66669047,99.49998802,1,0,0,response1disk,,7,-19.99997818,-18.5000155,1,0,0,rectangle,-19.99997818,-18.5000155,1,0,0,-19.99997818,-18.5000155,1,0,0,0,142,142,66,1,,,,,,,,
,,,,,,,,,,,,,FF,,,,,,,,1.450200001,,,,,,,,,,,,,,,,,,,,,,60fd868aa842dda04af3f6bf,61036e53daa485dd0859af50,2021-07-29_23h16.54.530,Simcolourproject_2stim_asymm_v5,2020.2.10,Win32,60,61025ae37ef11b136ea224fe,,,,,,,,,2673,122.000026,39.49998623,1,0,0,response1disk,,6,12.00002277,5.499985218,1,0,0,rectangle,12.00002277,5.499985218,1,0,0,12.00002277,5.499985218,1,0,0,0,143,143,110,1,,,,,,,,
,,,,,,,,,,,,,FF,,,,,,,,1.199799999,,,,,,,,,,,,,,,,,,,,,,60fd868aa842dda04af3f6bf,61036e53daa485dd0859af50,2021-07-29_23h16.54.530,Simcolourproject_2stim_asymm_v5,2020.2.10,Win32,60,61025ae37ef11b136ea224fe,,,,,,,,,1660,96.66669196,66.83332038,1,0,0,response1disk,,6,12.66668946,8.833318651,1,0,0,rectangle,12.66668946,8.833318651,1,0,0,12.66668946,8.833318651,1,0,0,0,144,144,26,1,,,,,,,,
,,,,,,,,,,,,,FF,,,,,,,,1.000200001,,,,,,,,,,,,,,,,,,,,,,60fd868aa842dda04af3f6bf,61036e53daa485dd0859af50,2021-07-29_23h16.54.530,Simcolourproject_2stim_asymm_v5,2020.2.10,Win32,60,61025ae37ef11b136ea224fe,,,,,,,,,1172,31.33335668,78.83332074,1,0,0,response1disk,,7,-13.33331132,2.833318472,1,0,0,rectangle,-13.33331132,2.833318472,1,0,0,-13.33331132,2.833318472,1,0,0,0,145,145,0,1,,,,,,,,
,,,,,,,,,,,,,FF,,,,,,,,1.383400002,,,,,,,,,,,,,,,,,,,,,,60fd868aa842dda04af3f6bf,61036e53daa485dd0859af50,2021-07-29_23h16.54.530,Simcolourproject_2stim_asymm_v5,2020.2.10,Win32,60,61025ae37ef11b136ea224fe,,,,,,,,,1213,-41.99997884,-72.50001711,1,0,0,response5disk,,3,-12.66664463,-6.50001514,1,0,0,rectangle,-12.66664463,-6.50001514,1,0,0,-12.66664463,-6.50001514,1,0,0,0,146,146,25,1,,,,,,,,
,,,,,,,,,,,,,FF,,,,,,,,1.533400002,,,,,,,,,,,,,,,,,,,,,,60fd868aa842dda04af3f6bf,61036e53daa485dd0859af50,2021-07-29_23h16.54.530,Simcolourproject_2stim_asymm_v5,2020.2.10,Win32,60,61025ae37ef11b136ea224fe,,,,,,,,,989,36.66669017,-67.16668361,1,0,0,response3disk,,4,6.666689277,4.166651845,1,0,0,rectangle,6.666689277,4.166651845,1,0,0,6.666689277,4.166651845,1,0,0,0,147,147,47,1,,,,,,,,
,,,,,,,,,,,,,FF,,,,,,,,1.317299999,,,,,,,,,,,,,,,,,,,,,,60fd868aa842dda04af3f6bf,61036e53daa485dd0859af50,2021-07-29_23h16.54.530,Simcolourproject_2stim_asymm_v5,2020.2.10,Win32,60,61025ae37ef11b136ea224fe,,,,,,,,,2506,48.00002384,89.49998772,1,0,0,response1disk,,7,4.666689217,2.166651785,1,0,0,rectangle,4.666689217,2.166651785,1,0,0,4.666689217,2.166651785,1,0,0,0,148,148,64,1,,,,,,,,
,,,,,,,,,,,,,FF,,,,,,,,4.900700001,,,,,,,,,,,,,,,,,,,,,,60fd868aa842dda04af3f6bf,61036e53daa485dd0859af50,2021-07-29_23h16.54.530,Simcolourproject_2stim_asymm_v5,2020.2.10,Win32,60,61025ae37ef11b136ea224fe,,,,,,,,,1670,-66.66664624,108.1666549,1,0,0,response7disk,,0,-18.66664481,14.83331883,1,0,0,rectangle,-18.66664481,14.83331883,1,0,0,-18.66664481,14.83331883,1,0,0,0,149,149,135,1,,,,,,,,
,,,,,,,,,,,,,FF,,,,,,,,1.05,,,,,,,,,,,,,,,,,,,,,,60fd868aa842dda04af3f6bf,61036e53daa485dd0859af50,2021-07-29_23h16.54.530,Simcolourproject_2stim_asymm_v5,2020.2.10,Win32,60,61025ae37ef11b136ea224fe,,,,,,,,,1153,50.66669059,80.16665411,1,0,0,response1disk,,7,-4.666644394,-10.50001526,1,0,0,rectangle,-4.666644394,-10.50001526,1,0,0,-4.666644394,-10.50001526,1,0,0,0,150,150,104,1,,,,,,,,
,,,,,,,,,,,,,FF,,,,,,,,1.25,,,,,,,,,,,,,,,,,,,,,,60fd868aa842dda04af3f6bf,61036e53daa485dd0859af50,2021-07-29_23h16.54.530,Simcolourproject_2stim_asymm_v5,2020.2.10,Win32,60,61025ae37ef11b136ea224fe,,,,,,,,,2877,29.33335662,48.83331984,1,0,0,response1disk,,7,3.333355844,2.166651785,1,0,0,rectangle,3.333355844,2.166651785,1,0,0,3.333355844,2.166651785,1,0,0,0,151,151,45,1,,,,,,,,
,,,,,,,,,,,,,FF,,,,,,,,1.5835,,,,,,,,,,,,,,,,,,,,,,60fd868aa842dda04af3f6bf,61036e53daa485dd0859af50,2021-07-29_23h16.54.530,Simcolourproject_2stim_asymm_v5,2020.2.10,Win32,60,61025ae37ef11b136ea224fe,,,,,,,,,100,72.66669124,43.49998635,1,0,0,response1disk,,6,-0.666644275,-5.166681767,1,0,0,rectangle,-0.666644275,-5.166681767,1,0,0,-0.666644275,-5.166681767,1,0,0,0,152,152,118,1,,,,,,,,
,,,,,,,,,,,,,FF,,,,,,,,2.150200001,,,,,,,,,,,,,,,,,,,,,,60fd868aa842dda04af3f6bf,61036e53daa485dd0859af50,2021-07-29_23h16.54.530,Simcolourproject_2stim_asymm_v5,2020.2.10,Win32,60,61025ae37ef11b136ea224fe,,,,,,,,,2025,-40.66664547,98.16665465,1,0,0,response7disk,,0,-9.999977887,17.49998558,1,0,0,rectangle,-9.999977887,17.49998558,1,0,0,-9.999977887,17.49998558,1,0,0,0,153,153,102,1,,,,,,,,
,,,,,,,,,,,,,FF,,,,,,,,1.5339,,,,,,,,,,,,,,,,,,,,,,60fd868aa842dda04af3f6bf,61036e53daa485dd0859af50,2021-07-29_23h16.54.530,Simcolourproject_2stim_asymm_v5,2020.2.10,Win32,60,61025ae37ef11b136ea224fe,,,,,,,,,3384,-81.99998003,-29.83338986,1,0,0,response5disk,,2,-27.99997842,7.499985278,1,0,0,rectangle,-27.99997842,7.499985278,1,0,0,-27.99997842,7.499985278,1,0,0,0,154,154,36,1,,,,,,,,
,,,,,,,,,,,,,FF,,,,,,,,1.000599998,,,,,,,,,,,,,,,,,,,,,,60fd868aa842dda04af3f6bf,61036e53daa485dd0859af50,2021-07-29_23h16.54.530,Simcolourproject_2stim_asymm_v5,2020.2.10,Win32,60,61025ae37ef11b136ea224fe,,,,,,,,,2059,44.66669041,64.16665363,1,0,0,response1disk,,7,7.333355963,12.83331877,1,0,0,rectangle,7.333355963,12.83331877,1,0,0,7.333355963,12.83331877,1,0,0,0,155,155,10,1,,,,,,,,
,,,,,,,,,,,,,FF,,,,,,,,1.0334,,,,,,,,,,,,,,,,,,,,,,60fd868aa842dda04af3f6bf,61036e53daa485dd0859af50,2021-07-29_23h16.54.530,Simcolourproject_2stim_asymm_v5,2020.2.10,Win32,60,61025ae37ef11b136ea224fe,,,,,,,,,562,40.66669029,76.83332068,1,0,0,response1disk,,7,-5.999977767,4.166651845,1,0,0,rectangle,-5.999977767,4.166651845,1,0,0,-5.999977767,4.166651845,1,0,0,0,156,156,61,1,,,,,,,,
,,,,,,,,,,,,,FF,,,,,,,,1.183299999,,,,,,,,,,,,,,,,,,,,,,60fd868aa842dda04af3f6bf,61036e53daa485dd0859af50,2021-07-29_23h16.54.530,Simcolourproject_2stim_asymm_v5,2020.2.10,Win32,60,61025ae37ef11b136ea224fe,,,,,,,,,3437,100.0000254,28.16665256,1,0,0,response1disk,,6,11.33335608,14.83331883,1,0,0,rectangle,11.33335608,14.83331883,1,0,0,11.33335608,14.83331883,1,0,0,0,157,157,113,1,,,,,,,,
,,,,,,,,,,,,,FF,,,,,,,,1.1335,,,,,,,,,,,,,,,,,,,,,,60fd868aa842dda04af3f6bf,61036e53daa485dd0859af50,2021-07-29_23h16.54.530,Simcolourproject_2stim_asymm_v5,2020.2.10,Win32,60,61025ae37ef11b136ea224fe,,,,,,,,,2365,108.0000256,53.49998665,1,0,0,response1disk,,6,-2.666644335,11.4999854,1,0,0,rectangle,-2.666644335,11.4999854,1,0,0,-2.666644335,11.4999854,1,0,0,0,158,158,50,1,,,,,,,,
,,,,,,,,,,,,,FF,,,,,,,,1.2004,,,,,,,,,,,,,,,,,,,,,,60fd868aa842dda04af3f6bf,61036e53daa485dd0859af50,2021-07-29_23h16.54.530,Simcolourproject_2stim_asymm_v5,2020.2.10,Win32,60,61025ae37ef11b136ea224fe,,,,,,,,,2665,51.33335727,91.49998778,1,0,0,response1disk,,7,-11.99997795,-5.166681767,1,0,0,rectangle,-11.99997795,-5.166681767,1,0,0,-11.99997795,-5.166681767,1,0,0,0,159,159,1,1,,,,,,,,
,,,,,,,,,,,,,FF,,,,,,,,0.934299999,,,,,,,,,,,,,,,,,,,,,,60fd868aa842dda04af3f6bf,61036e53daa485dd0859af50,2021-07-29_23h16.54.530,Simcolourproject_2stim_asymm_v5,2020.2.10,Win32,60,61025ae37ef11b136ea224fe,,,,,,,,,2024,33.33335674,71.49998719,1,0,0,response1disk,,7,6.666689277,11.4999854,1,0,0,rectangle,6.666689277,11.4999854,1,0,0,6.666689277,11.4999854,1,0,0,1,0,160,87,1,,,,,,,,
,,,,,,,,,,,,,FF,,,,,,,,1.117,,,,,,,,,,,,,,,,,,,,,,60fd868aa842dda04af3f6bf,61036e53daa485dd0859af50,2021-07-29_23h16.54.530,Simcolourproject_2stim_asymm_v5,2020.2.10,Win32,60,61025ae37ef11b136ea224fe,,,,,,,,,4015,28.00002325,93.49998784,1,0,0,response1disk,,7,-4.666644394,-0.500014961,1,0,0,rectangle,-4.666644394,-0.500014961,1,0,0,-4.666644394,-0.500014961,1,0,0,1,1,161,91,1,,,,,,,,
,,,,,,,,,,,,,FF,,,,,,,,0.8006,,,,,,,,,,,,,,,,,,,,,,60fd868aa842dda04af3f6bf,61036e53daa485dd0859af50,2021-07-29_23h16.54.530,Simcolourproject_2stim_asymm_v5,2020.2.10,Win32,60,61025ae37ef11b136ea224fe,,,,,,,,,1465,33.33335674,80.8333208,1,0,0,response1disk,,7,-1.999977648,-0.500014961,1,0,0,rectangle,-1.999977648,-0.500014961,1,0,0,-1.999977648,-0.500014961,1,0,0,1,2,162,107,1,,,,,,,,
,,,,,,,,,,,,,FF,,,,,,,,0.9674,,,,,,,,,,,,,,,,,,,,,,60fd868aa842dda04af3f6bf,61036e53daa485dd0859af50,2021-07-29_23h16.54.530,Simcolourproject_2stim_asymm_v5,2020.2.10,Win32,60,61025ae37ef11b136ea224fe,,,,,,,,,298,49.33335721,78.16665405,1,0,0,response1disk,,7,3.333355844,-1.833348334,1,0,0,rectangle,3.333355844,-1.833348334,1,0,0,3.333355844,-1.833348334,1,0,0,1,3,163,23,1,,,,,,,,
,,,,,,,,,,,,,FF,,,,,,,,1.0839,,,,,,,,,,,,,,,,,,,,,,60fd868aa842dda04af3f6bf,61036e53daa485dd0859af50,2021-07-29_23h16.54.530,Simcolourproject_2stim_asymm_v5,2020.2.10,Win32,60,61025ae37ef11b136ea224fe,,,,,,,,,4057,81.33335817,42.83331966,1,0,0,response1disk,,6,15.3333562,18.83331895,1,0,0,rectangle,15.3333562,18.83331895,1,0,0,15.3333562,18.83331895,1,0,0,1,4,164,125,1,,,,,,,,
,,,,,,,,,,,,,FF,,,,,,,,0.867200001,,,,,,,,,,,,,,,,,,,,,,60fd868aa842dda04af3f6bf,61036e53daa485dd0859af50,2021-07-29_23h16.54.530,Simcolourproject_2stim_asymm_v5,2020.2.10,Win32,60,61025ae37ef11b136ea224fe,,,,,,,,,253,86.00002497,38.83331954,1,0,0,response1disk,,6,1.333355784,0.833318412,1,0,0,rectangle,1.333355784,0.833318412,1,0,0,1.333355784,0.833318412,1,0,0,1,5,165,146,1,,,,,,,,
,,,,,,,,,,,,,FF,,,,,,,,1.117,,,,,,,,,,,,,,,,,,,,,,60fd868aa842dda04af3f6bf,61036e53daa485dd0859af50,2021-07-29_23h16.54.530,Simcolourproject_2stim_asymm_v5,2020.2.10,Win32,60,61025ae37ef11b136ea224fe,,,,,,,,,1839,34.00002342,79.49998742,1,0,0,response1disk,,7,6.00002259,18.83331895,1,0,0,rectangle,6.00002259,18.83331895,1,0,0,6.00002259,18.83331895,1,0,0,1,6,166,66,1,,,,,,,,
,,,,,,,,,,,,,FF,,,,,,,,0.734,,,,,,,,,,,,,,,,,,,,,,60fd868aa842dda04af3f6bf,61036e53daa485dd0859af50,2021-07-29_23h16.54.530,Simcolourproject_2stim_asymm_v5,2020.2.10,Win32,60,61025ae37ef11b136ea224fe,,,,,,,,,242,30.66668999,79.49998742,1,0,0,response1disk,,7,-7.333311141,6.166651905,1,0,0,rectangle,-7.333311141,6.166651905,1,0,0,-7.333311141,6.166651905,1,0,0,1,7,167,83,1,,,,,,,,
,,,,,,,,,,,,,FF,,,,,,,,1.6504,,,,,,,,,,,,,,,,,,,,,,60fd868aa842dda04af3f6bf,61036e53daa485dd0859af50,2021-07-29_23h16.54.530,Simcolourproject_2stim_asymm_v5,2020.2.10,Win32,60,61025ae37ef11b136ea224fe,,,,,,,,,1295,106.6666923,-33.83338998,1,0,0,response3disk,,5,16.00002289,15.49998552,1,0,0,rectangle,16.00002289,15.49998552,1,0,0,16.00002289,15.49998552,1,0,0,1,8,168,65,1,,,,,,,,
,,,,,,,,,,,,,FF,,,,,,,,1.033699999,,,,,,,,,,,,,,,,,,,,,,60fd868aa842dda04af3f6bf,61036e53daa485dd0859af50,2021-07-29_23h16.54.530,Simcolourproject_2stim_asymm_v5,2020.2.10,Win32,60,61025ae37ef11b136ea224fe,,,,,,,,,2055,37.33335686,74.83332062,1,0,0,response1disk,,7,-3.999977708,-2.50001502,1,0,0,rectangle,-3.999977708,-2.50001502,1,0,0,-3.999977708,-2.50001502,1,0,0,1,9,169,122,1,,,,,,,,
,,,,,,,,,,,,,FF,,,,,,,,0.884,,,,,,,,,,,,,,,,,,,,,,60fd868aa842dda04af3f6bf,61036e53daa485dd0859af50,2021-07-29_23h16.54.530,Simcolourproject_2stim_asymm_v5,2020.2.10,Win32,60,61025ae37ef11b136ea224fe,,,,,,,,,3308,31.33335668,68.16665375,1,0,0,response1disk,,7,2.666689157,14.16665214,1,0,0,rectangle,2.666689157,14.16665214,1,0,0,2.666689157,14.16665214,1,0,0,1,10,170,159,1,,,,,,,,
,,,,,,,,,,,,,FF,,,,,,,,0.916900002,,,,,,,,,,,,,,,,,,,,,,60fd868aa842dda04af3f6bf,61036e53daa485dd0859af50,2021-07-29_23h16.54.530,Simcolourproject_2stim_asymm_v5,2020.2.10,Win32,60,61025ae37ef11b136ea224fe,,,,,,,,,1992,26.66668987,73.49998724,1,0,0,response1disk,,7,-5.999977767,2.166651785,1,0,0,rectangle,-5.999977767,2.166651785,1,0,0,-5.999977767,2.166651785,1,0,0,1,11,171,77,1,,,,,,,,
,,,,,,,,,,,,,FF,,,,,,,,0.7506,,,,,,,,,,,,,,,,,,,,,,60fd868aa842dda04af3f6bf,61036e53daa485dd0859af50,2021-07-29_23h16.54.530,Simcolourproject_2stim_asymm_v5,2020.2.10,Win32,60,61025ae37ef11b136ea224fe,,,,,,,,,2744,53.33335733,103.4999881,1,0,0,response1disk,,7,8.666689336,-6.50001514,1,0,0,rectangle,8.666689336,-6.50001514,1,0,0,8.666689336,-6.50001514,1,0,0,1,12,172,53,1,,,,,,,,
,,,,,,,,,,,,,FF,,,,,,,,1.386299999,,,,,,,,,,,,,,,,,,,,,,60fd868aa842dda04af3f6bf,61036e53daa485dd0859af50,2021-07-29_23h16.54.530,Simcolourproject_2stim_asymm_v5,2020.2.10,Win32,60,61025ae37ef11b136ea224fe,,,,,,,,,1608,70.66669118,-37.8333901,1,0,0,response3disk,,5,3.333355844,2.833318472,1,0,0,rectangle,3.333355844,2.833318472,1,0,0,3.333355844,2.833318472,1,0,0,1,13,173,119,1,,,,,,,,
,,,,,,,,,,,,,FF,,,,,,,,0.900299999,,,,,,,,,,,,,,,,,,,,,,60fd868aa842dda04af3f6bf,61036e53daa485dd0859af50,2021-07-29_23h16.54.530,Simcolourproject_2stim_asymm_v5,2020.2.10,Win32,60,61025ae37ef11b136ea224fe,,,,,,,,,1872,50.0000239,109.4999883,1,0,0,response1disk,,7,-1.333310962,15.49998552,1,0,0,rectangle,-1.333310962,15.49998552,1,0,0,-1.333310962,15.49998552,1,0,0,1,14,174,128,1,,,,,,,,
,,,,,,,,,,,,,FF,,,,,,,,0.850299999,,,,,,,,,,,,,,,,,,,,,,60fd868aa842dda04af3f6bf,61036e53daa485dd0859af50,2021-07-29_23h16.54.530,Simcolourproject_2stim_asymm_v5,2020.2.10,Win32,60,61025ae37ef11b136ea224fe,,,,,,,,,214,24.66668981,70.16665381,1,0,0,response1disk,,7,2.24113E-05,10.16665202,1,0,0,rectangle,2.24113E-05,10.16665202,1,0,0,2.24113E-05,10.16665202,1,0,0,1,15,175,36,1,,,,,,,,
,,,,,,,,,,,,,FF,,,,,,,,0.8001,,,,,,,,,,,,,,,,,,,,,,60fd868aa842dda04af3f6bf,61036e53daa485dd0859af50,2021-07-29_23h16.54.530,Simcolourproject_2stim_asymm_v5,2020.2.10,Win32,60,61025ae37ef11b136ea224fe,,,,,,,,,2044,39.33335692,68.16665375,1,0,0,response1disk,,7,6.00002259,7.499985278,1,0,0,rectangle,6.00002259,7.499985278,1,0,0,6.00002259,7.499985278,1,0,0,1,16,176,120,1,,,,,,,,
,,,,,,,,,,,,,FF,,,,,,,,1.034200001,,,,,,,,,,,,,,,,,,,,,,60fd868aa842dda04af3f6bf,61036e53daa485dd0859af50,2021-07-29_23h16.54.530,Simcolourproject_2stim_asymm_v5,2020.2.10,Win32,60,61025ae37ef11b136ea224fe,,,,,,,,,649,45.3333571,82.16665417,1,0,0,response1disk,,7,-3.999977708,7.499985278,1,0,0,rectangle,-3.999977708,7.499985278,1,0,0,-3.999977708,7.499985278,1,0,0,1,17,177,0,1,,,,,,,,
,,,,,,,,,,,,,FF,,,,,,,,1.1335,,,,,,,,,,,,,,,,,,,,,,60fd868aa842dda04af3f6bf,61036e53daa485dd0859af50,2021-07-29_23h16.54.530,Simcolourproject_2stim_asymm_v5,2020.2.10,Win32,60,61025ae37ef11b136ea224fe,,,,,,,,,88,29.33335662,71.49998719,1,0,0,response1disk,,7,-9.3333112,1.499985099,1,0,0,rectangle,-9.3333112,1.499985099,1,0,0,-9.3333112,1.499985099,1,0,0,1,18,178,9,1,,,,,,,,
,,,,,,,,,,,,,FF,,,,,,,,2.016799999,,,,,,,,,,,,,,,,,,,,,,60fd868aa842dda04af3f6bf,61036e53daa485dd0859af50,2021-07-29_23h16.54.530,Simcolourproject_2stim_asymm_v5,2020.2.10,Win32,60,61025ae37ef11b136ea224fe,,,,,,,,,388,68.00002444,48.83331984,1,0,0,response1disk,,6,4.000022531,-1.166681647,1,0,0,rectangle,4.000022531,-1.166681647,1,0,0,4.000022531,-1.166681647,1,0,0,1,19,179,39,1,,,,,,,,
,,,,,,,,,,,,,FF,,,,,,,,0.8335,,,,,,,,,,,,,,,,,,,,,,60fd868aa842dda04af3f6bf,61036e53daa485dd0859af50,2021-07-29_23h16.54.530,Simcolourproject_2stim_asymm_v5,2020.2.10,Win32,60,61025ae37ef11b136ea224fe,,,,,,,,,2910,47.33335716,86.16665429,1,0,0,response1disk,,7,1.333355784,7.499985278,1,0,0,rectangle,1.333355784,7.499985278,1,0,0,1.333355784,7.499985278,1,0,0,1,20,180,27,1,,,,,,,,
,,,,,,,,,,,,,FF,,,,,,,,0.933300001,,,,,,,,,,,,,,,,,,,,,,60fd868aa842dda04af3f6bf,61036e53daa485dd0859af50,2021-07-29_23h16.54.530,Simcolourproject_2stim_asymm_v5,2020.2.10,Win32,60,61025ae37ef11b136ea224fe,,,,,,,,,335,38.66669023,82.83332086,1,0,0,response1disk,,7,-3.333311021,9.499985337,1,0,0,rectangle,-3.333311021,9.499985337,1,0,0,-3.333311021,9.499985337,1,0,0,1,21,181,141,1,,,,,,,,
,,,,,,,,,,,,,FF,,,,,,,,0.767,,,,,,,,,,,,,,,,,,,,,,60fd868aa842dda04af3f6bf,61036e53daa485dd0859af50,2021-07-29_23h16.54.530,Simcolourproject_2stim_asymm_v5,2020.2.10,Win32,60,61025ae37ef11b136ea224fe,,,,,,,,,567,33.33335674,72.16665387,1,0,0,response1disk,,7,-3.999977708,5.499985218,1,0,0,rectangle,-3.999977708,5.499985218,1,0,0,-3.999977708,5.499985218,1,0,0,1,22,182,142,1,,,,,,,,
,,,,,,,,,,,,,FF,,,,,,,,1.0336,,,,,,,,,,,,,,,,,,,,,,60fd868aa842dda04af3f6bf,61036e53daa485dd0859af50,2021-07-29_23h16.54.530,Simcolourproject_2stim_asymm_v5,2020.2.10,Win32,60,61025ae37ef11b136ea224fe,,,,,,,,,3924,86.66669166,48.16665316,1,0,0,response1disk,,6,10.00002271,7.499985278,1,0,0,rectangle,10.00002271,7.499985278,1,0,0,10.00002271,7.499985278,1,0,0,1,23,183,54,1,,,,,,,,
,,,,,,,,,,,,,FF,,,,,,,,1.1169,,,,,,,,,,,,,,,,,,,,,,60fd868aa842dda04af3f6bf,61036e53daa485dd0859af50,2021-07-29_23h16.54.530,Simcolourproject_2stim_asymm_v5,2020.2.10,Win32,60,61025ae37ef11b136ea224fe,,,,,,,,,3567,43.33335704,94.16665453,1,0,0,response1disk,,7,-6.666644454,9.499985337,1,0,0,rectangle,-6.666644454,9.499985337,1,0,0,-6.666644454,9.499985337,1,0,0,1,24,184,25,1,,,,,,,,
,,,,,,,,,,,,,FF,,,,,,,,1.634,,,,,,,,,,,,,,,,,,,,,,60fd868aa842dda04af3f6bf,61036e53daa485dd0859af50,2021-07-29_23h16.54.530,Simcolourproject_2stim_asymm_v5,2020.2.10,Win32,60,61025ae37ef11b136ea224fe,,,,,,,,,3556,90.00002509,-25.16668236,1,0,0,response3disk,,5,-13.33331132,2.166651785,1,0,0,rectangle,-13.33331132,2.166651785,1,0,0,-13.33331132,2.166651785,1,0,0,1,25,185,73,1,,,,,,,,
,,,,,,,,,,,,,FF,,,,,,,,1.4004,,,,,,,,,,,,,,,,,,,,,,60fd868aa842dda04af3f6bf,61036e53daa485dd0859af50,2021-07-29_23h16.54.530,Simcolourproject_2stim_asymm_v5,2020.2.10,Win32,60,61025ae37ef11b136ea224fe,,,,,,,,,251,105.3333589,22.16665238,1,0,0,response1disk,,6,20.00002301,9.499985337,1,0,0,rectangle,20.00002301,9.499985337,1,0,0,20.00002301,9.499985337,1,0,0,1,26,186,98,1,,,,,,,,
,,,,,,,,,,,,,FF,,,,,,,,0.950300001,,,,,,,,,,,,,,,,,,,,,,60fd868aa842dda04af3f6bf,61036e53daa485dd0859af50,2021-07-29_23h16.54.530,Simcolourproject_2stim_asymm_v5,2020.2.10,Win32,60,61025ae37ef11b136ea224fe,,,,,,,,,384,61.33335757,100.8333214,1,0,0,response1disk,,7,14.66668952,13.49998546,1,0,0,rectangle,14.66668952,13.49998546,1,0,0,14.66668952,13.49998546,1,0,0,1,27,187,15,1,,,,,,,,
,,,,,,,,,,,,,FF,,,,,,,,1.3504,,,,,,,,,,,,,,,,,,,,,,60fd868aa842dda04af3f6bf,61036e53daa485dd0859af50,2021-07-29_23h16.54.530,Simcolourproject_2stim_asymm_v5,2020.2.10,Win32,60,61025ae37ef11b136ea224fe,,,,,,,,,3594,83.33335823,-35.16668266,1,0,0,response3disk,,5,2.666689157,2.833318472,1,0,0,rectangle,2.666689157,2.833318472,1,0,0,2.666689157,2.833318472,1,0,0,1,28,188,28,1,,,,,,,,
,,,,,,,,,,,,,FF,,,,,,,,0.9839,,,,,,,,,,,,,,,,,,,,,,60fd868aa842dda04af3f6bf,61036e53daa485dd0859af50,2021-07-29_23h16.54.530,Simcolourproject_2stim_asymm_v5,2020.2.10,Win32,60,61025ae37ef11b136ea224fe,,,,,,,,,1086,30.66668999,94.16665453,1,0,0,response1disk,,7,8.00002265,4.166651845,1,0,0,rectangle,8.00002265,4.166651845,1,0,0,8.00002265,4.166651845,1,0,0,1,29,189,72,1,,,,,,,,
,,,,,,,,,,,,,FF,,,,,,,,0.9175,,,,,,,,,,,,,,,,,,,,,,60fd868aa842dda04af3f6bf,61036e53daa485dd0859af50,2021-07-29_23h16.54.530,Simcolourproject_2stim_asymm_v5,2020.2.10,Win32,60,61025ae37ef11b136ea224fe,,,,,,,,,3589,42.00002366,80.16665411,1,0,0,response1disk,,7,1.333355784,6.833318591,1,0,0,rectangle,1.333355784,6.833318591,1,0,0,1.333355784,6.833318591,1,0,0,1,30,190,31,1,,,,,,,,
,,,,,,,,,,,,,FF,,,,,,,,1.083300001,,,,,,,,,,,,,,,,,,,,,,60fd868aa842dda04af3f6bf,61036e53daa485dd0859af50,2021-07-29_23h16.54.530,Simcolourproject_2stim_asymm_v5,2020.2.10,Win32,60,61025ae37ef11b136ea224fe,,,,,,,,,3405,42.66669035,85.4999876,1,0,0,response1disk,,7,3.333355844,2.833318472,1,0,0,rectangle,3.333355844,2.833318472,1,0,0,3.333355844,2.833318472,1,0,0,1,31,191,33,1,,,,,,,,
,,,,,,,,,,,,,FF,,,,,,,,1.100400002,,,,,,,,,,,,,,,,,,,,,,60fd868aa842dda04af3f6bf,61036e53daa485dd0859af50,2021-07-29_23h16.54.530,Simcolourproject_2stim_asymm_v5,2020.2.10,Win32,60,61025ae37ef11b136ea224fe,,,,,,,,,375,84.6666916,23.49998575,1,0,0,response1disk,,6,14.66668952,10.83331871,1,0,0,rectangle,14.66668952,10.83331871,1,0,0,14.66668952,10.83331871,1,0,0,1,32,192,116,1,,,,,,,,
,,,,,,,,,,,,,FF,,,,,,,,0.8501,,,,,,,,,,,,,,,,,,,,,,60fd868aa842dda04af3f6bf,61036e53daa485dd0859af50,2021-07-29_23h16.54.530,Simcolourproject_2stim_asymm_v5,2020.2.10,Win32,60,61025ae37ef11b136ea224fe,,,,,,,,,3524,48.66669053,88.16665435,1,0,0,response1disk,,7,14.00002283,14.16665214,1,0,0,rectangle,14.00002283,14.16665214,1,0,0,14.00002283,14.16665214,1,0,0,1,33,193,10,1,,,,,,,,
,,,,,,,,,,,,,FF,,,,,,,,1.616599998,,,,,,,,,,,,,,,,,,,,,,60fd868aa842dda04af3f6bf,61036e53daa485dd0859af50,2021-07-29_23h16.54.530,Simcolourproject_2stim_asymm_v5,2020.2.10,Win32,60,61025ae37ef11b136ea224fe,,,,,,,,,2987,92.00002515,50.8333199,1,0,0,response1disk,,6,4.666689217,12.16665208,1,0,0,rectangle,-74.66660579,-44.50001627,1,0,0,-2.666644335,-0.500014961,1,0,0,1,34,194,44,1,,response5disk_3,TRUE,2,2,"[249,195,321,45,13,205,129,208,211,287,19,92,87,19,265,62,104,294,135,51]",1.9845,rectangle
,,,,,,,,,,,,,FF,,,,,,,,1.4841,,,,,,,,,,,,,,,,,,,,,,60fd868aa842dda04af3f6bf,61036e53daa485dd0859af50,2021-07-29_23h16.54.530,Simcolourproject_2stim_asymm_v5,2020.2.10,Win32,60,61025ae37ef11b136ea224fe,,,,,,,,,972,72.66669124,-111.1666849,1,0,0,response3disk,,4,-1.333310962,2.833318472,1,0,0,rectangle,-1.333310962,2.833318472,1,0,0,-1.333310962,2.833318472,1,0,0,1,35,195,3,1,,,,,,,,
,,,,,,,,,,,,,FF,,,,,,,,1.1669,,,,,,,,,,,,,,,,,,,,,,60fd868aa842dda04af3f6bf,61036e53daa485dd0859af50,2021-07-29_23h16.54.530,Simcolourproject_2stim_asymm_v5,2020.2.10,Win32,60,61025ae37ef11b136ea224fe,,,,,,,,,3818,123.3333594,-40.50001615,1,0,0,response3disk,,5,3.333355844,13.49998546,1,0,0,rectangle,3.333355844,13.49998546,1,0,0,3.333355844,13.49998546,1,0,0,1,36,196,82,1,,,,,,,,
,,,,,,,,,,,,,FF,,,,,,,,0.983700001,,,,,,,,,,,,,,,,,,,,,,60fd868aa842dda04af3f6bf,61036e53daa485dd0859af50,2021-07-29_23h16.54.530,Simcolourproject_2stim_asymm_v5,2020.2.10,Win32,60,61025ae37ef11b136ea224fe,,,,,,,,,2594,41.33335698,98.83332133,1,0,0,response1disk,,7,3.333355844,12.83331877,1,0,0,rectangle,3.333355844,12.83331877,1,0,0,3.333355844,12.83331877,1,0,0,1,37,197,90,1,,,,,,,,
,,,,,,,,,,,,,FF,,,,,,,,0.833799999,,,,,,,,,,,,,,,,,,,,,,60fd868aa842dda04af3f6bf,61036e53daa485dd0859af50,2021-07-29_23h16.54.530,Simcolourproject_2stim_asymm_v5,2020.2.10,Win32,60,61025ae37ef11b136ea224fe,,,,,,,,,119,50.66669059,89.49998772,1,0,0,response1disk,,7,2.24113E-05,6.833318591,1,0,0,rectangle,2.24113E-05,6.833318591,1,0,0,2.24113E-05,6.833318591,1,0,0,1,38,198,138,1,,,,,,,,
,,,,,,,,,,,,,FF,,,,,,,,0.733700001,,,,,,,,,,,,,,,,,,,,,,60fd868aa842dda04af3f6bf,61036e53daa485dd0859af50,2021-07-29_23h16.54.530,Simcolourproject_2stim_asymm_v5,2020.2.10,Win32,60,61025ae37ef11b136ea224fe,,,,,,,,,3819,52.00002396,95.4999879,1,0,0,response1disk,,7,-1.333310962,7.499985278,1,0,0,rectangle,-1.333310962,7.499985278,1,0,0,-1.333310962,7.499985278,1,0,0,1,39,199,137,1,,,,,,,,
,,,,,,,,,,,,,FF,,,,,,,,1.0676,,,,,,,,,,,,,,,,,,,,,,60fd868aa842dda04af3f6bf,61036e53daa485dd0859af50,2021-07-29_23h16.54.530,Simcolourproject_2stim_asymm_v5,2020.2.10,Win32,60,61025ae37ef11b136ea224fe,,,,,,,,,3240,93.33335853,36.83331949,1,0,0,response1disk,,6,6.00002259,4.833318532,1,0,0,rectangle,6.00002259,4.833318532,1,0,0,6.00002259,4.833318532,1,0,0,1,40,200,67,1,,,,,,,,
,,,,,,,,,,,,,FF,,,,,,,,0.9835,,,,,,,,,,,,,,,,,,,,,,60fd868aa842dda04af3f6bf,61036e53daa485dd0859af50,2021-07-29_23h16.54.530,Simcolourproject_2stim_asymm_v5,2020.2.10,Win32,60,61025ae37ef11b136ea224fe,,,,,,,,,847,24.66668981,90.83332109,1,0,0,response1disk,,7,1.333355784,7.499985278,1,0,0,rectangle,1.333355784,7.499985278,1,0,0,1.333355784,7.499985278,1,0,0,1,41,201,145,1,,,,,,,,
,,,,,,,,,,,,,FF,,,,,,,,0.8671,,,,,,,,,,,,,,,,,,,,,,60fd868aa842dda04af3f6bf,61036e53daa485dd0859af50,2021-07-29_23h16.54.530,Simcolourproject_2stim_asymm_v5,2020.2.10,Win32,60,61025ae37ef11b136ea224fe,,,,,,,,,2930,46.00002378,86.83332098,1,0,0,response1disk,,7,4.000022531,-1.166681647,1,0,0,rectangle,4.000022531,-1.166681647,1,0,0,4.000022531,-1.166681647,1,0,0,1,42,202,121,1,,,,,,,,
,,,,,,,,,,,,,FF,,,,,,,,1.017200001,,,,,,,,,,,,,,,,,,,,,,60fd868aa842dda04af3f6bf,61036e53daa485dd0859af50,2021-07-29_23h16.54.530,Simcolourproject_2stim_asymm_v5,2020.2.10,Win32,60,61025ae37ef11b136ea224fe,,,,,,,,,3897,48.66669053,88.16665435,1,0,0,response1disk,,7,4.666689217,-4.50001508,1,0,0,rectangle,4.666689217,-4.50001508,1,0,0,4.666689217,-4.50001508,1,0,0,1,43,203,88,1,,,,,,,,
,,,,,,,,,,,,,FF,,,,,,,,0.8001,,,,,,,,,,,,,,,,,,,,,,60fd868aa842dda04af3f6bf,61036e53daa485dd0859af50,2021-07-29_23h16.54.530,Simcolourproject_2stim_asymm_v5,2020.2.10,Win32,60,61025ae37ef11b136ea224fe,,,,,,,,,2903,46.66669047,89.49998772,1,0,0,response1disk,,7,5.333355904,9.499985337,1,0,0,rectangle,-40.66664547,88.16665435,1,0,0,-4.666644394,14.83331883,1,0,0,1,44,204,38,1,,response7disk_3,TRUE,0,0,"[249,195,321,45,13,205,129,208,211,287,19,92,87,19,265,62,104,294,135,51]",1.7494,rectangle
,,,,,,,,,,,,,FF,,,,,,,,0.8509,,,,,,,,,,,,,,,,,,,,,,60fd868aa842dda04af3f6bf,61036e53daa485dd0859af50,2021-07-29_23h16.54.530,Simcolourproject_2stim_asymm_v5,2020.2.10,Win32,60,61025ae37ef11b136ea224fe,,,,,,,,,507,60.66669089,111.4999884,1,0,0,response1disk,,7,5.333355904,7.499985278,1,0,0,rectangle,5.333355904,7.499985278,1,0,0,5.333355904,7.499985278,1,0,0,1,45,205,85,1,,,,,,,,
,,,,,,,,,,,,,FF,,,,,,,,0.917299999,,,,,,,,,,,,,,,,,,,,,,60fd868aa842dda04af3f6bf,61036e53daa485dd0859af50,2021-07-29_23h16.54.530,Simcolourproject_2stim_asymm_v5,2020.2.10,Win32,60,61025ae37ef11b136ea224fe,,,,,,,,,2351,52.00002396,96.16665459,1,0,0,response1disk,,7,16.00002289,14.83331883,1,0,0,rectangle,16.00002289,14.83331883,1,0,0,16.00002289,14.83331883,1,0,0,1,46,206,20,1,,,,,,,,
,,,,,,,,,,,,,FF,,,,,,,,0.750299999,,,,,,,,,,,,,,,,,,,,,,60fd868aa842dda04af3f6bf,61036e53daa485dd0859af50,2021-07-29_23h16.54.530,Simcolourproject_2stim_asymm_v5,2020.2.10,Win32,60,61025ae37ef11b136ea224fe,,,,,,,,,1984,39.33335692,100.1666547,1,0,0,response1disk,,7,-3.999977708,2.833318472,1,0,0,rectangle,81.33335817,36.83331949,1,0,0,24.00002313,9.499985337,1,0,0,1,47,207,52,1,,response1disk_3,TRUE,6,6,"[249,195,321,45,13,205,129,208,211,287,19,92,87,19,265,62,104,294,135,51]",1.6334,rectangle
,,,,,,,,,,,,,FF,,,,,,,,0.9006,,,,,,,,,,,,,,,,,,,,,,60fd868aa842dda04af3f6bf,61036e53daa485dd0859af50,2021-07-29_23h16.54.530,Simcolourproject_2stim_asymm_v5,2020.2.10,Win32,60,61025ae37ef11b136ea224fe,,,,,,,,,2595,48.66669053,104.1666548,1,0,0,response1disk,,7,-3.333311021,6.166651905,1,0,0,rectangle,-3.333311021,6.166651905,1,0,0,-3.333311021,6.166651905,1,0,0,1,48,208,50,1,,,,,,,,
,,,,,,,,,,,,,FF,,,,,,,,0.833799999,,,,,,,,,,,,,,,,,,,,,,60fd868aa842dda04af3f6bf,61036e53daa485dd0859af50,2021-07-29_23h16.54.530,Simcolourproject_2stim_asymm_v5,2020.2.10,Win32,60,61025ae37ef11b136ea224fe,,,,,,,,,906,46.00002378,92.16665447,1,0,0,response1disk,,7,5.333355904,8.166651964,1,0,0,rectangle,5.333355904,8.166651964,1,0,0,5.333355904,8.166651964,1,0,0,1,49,209,29,1,,,,,,,,
,,,,,,,,,,,,,FF,,,,,,,,0.9836,,,,,,,,,,,,,,,,,,,,,,60fd868aa842dda04af3f6bf,61036e53daa485dd0859af50,2021-07-29_23h16.54.530,Simcolourproject_2stim_asymm_v5,2020.2.10,Win32,60,61025ae37ef11b136ea224fe,,,,,,,,,1282,48.66669053,101.4999881,1,0,0,response1disk,,7,0.666689098,4.833318532,1,0,0,rectangle,-82.66660603,-41.83339022,1,0,0,-2.666644335,6.166651905,1,0,0,1,50,210,2,1,,response5disk_3,TRUE,2,2,"[249,195,321,45,13,205,129,208,211,287,19,92,87,19,265,62,104,294,135,51]",1.9831,rectangle
,,,,,,,,,,,,,FF,,,,,,,,0.883799999,,,,,,,,,,,,,,,,,,,,,,60fd868aa842dda04af3f6bf,61036e53daa485dd0859af50,2021-07-29_23h16.54.530,Simcolourproject_2stim_asymm_v5,2020.2.10,Win32,60,61025ae37ef11b136ea224fe,,,,,,,,,1566,38.66669023,84.16665423,1,0,0,response1disk,,7,14.66668952,14.16665214,1,0,0,rectangle,14.66668952,14.16665214,1,0,0,14.66668952,14.16665214,1,0,0,1,51,211,135,1,,,,,,,,
,,,,,,,,,,,,,FF,,,,,,,,0.9005,,,,,,,,,,,,,,,,,,,,,,60fd868aa842dda04af3f6bf,61036e53daa485dd0859af50,2021-07-29_23h16.54.530,Simcolourproject_2stim_asymm_v5,2020.2.10,Win32,60,61025ae37ef11b136ea224fe,,,,,,,,,2962,42.66669035,82.83332086,1,0,0,response1disk,,7,9.333356023,18.83331895,1,0,0,rectangle,9.333356023,18.83331895,1,0,0,9.333356023,18.83331895,1,0,0,1,52,212,130,1,,,,,,,,
,,,,,,,,,,,,,FF,,,,,,,,2.1505,,,,,,,,,,,,,,,,,,,,,,60fd868aa842dda04af3f6bf,61036e53daa485dd0859af50,2021-07-29_23h16.54.530,Simcolourproject_2stim_asymm_v5,2020.2.10,Win32,60,61025ae37ef11b136ea224fe,,,,,,,,,970,36.00002348,-75.83339123,1,0,0,response3disk,,4,3.333355844,3.499985158,1,0,0,rectangle,3.333355844,3.499985158,1,0,0,3.333355844,3.499985158,1,0,0,1,53,213,144,1,,,,,,,,
,,,,,,,,,,,,,FF,,,,,,,,1.0175,,,,,,,,,,,,,,,,,,,,,,60fd868aa842dda04af3f6bf,61036e53daa485dd0859af50,2021-07-29_23h16.54.530,Simcolourproject_2stim_asymm_v5,2020.2.10,Win32,60,61025ae37ef11b136ea224fe,,,,,,,,,3533,52.00002396,98.16665465,1,0,0,response1disk,,7,10.6666894,-9.166681886,1,0,0,rectangle,10.6666894,-9.166681886,1,0,0,10.6666894,-9.166681886,1,0,0,1,54,214,96,1,,,,,,,,
,,,,,,,,,,,,,FF,,,,,,,,0.900199999,,,,,,,,,,,,,,,,,,,,,,60fd868aa842dda04af3f6bf,61036e53daa485dd0859af50,2021-07-29_23h16.54.530,Simcolourproject_2stim_asymm_v5,2020.2.10,Win32,60,61025ae37ef11b136ea224fe,,,,,,,,,664,56.00002408,105.4999882,1,0,0,response1disk,,7,10.00002271,13.49998546,1,0,0,rectangle,10.00002271,13.49998546,1,0,0,10.00002271,13.49998546,1,0,0,1,55,215,41,1,,,,,,,,
,,,,,,,,,,,,,FF,,,,,,,,0.8006,,,,,,,,,,,,,,,,,,,,,,60fd868aa842dda04af3f6bf,61036e53daa485dd0859af50,2021-07-29_23h16.54.530,Simcolourproject_2stim_asymm_v5,2020.2.10,Win32,60,61025ae37ef11b136ea224fe,,,,,,,,,2570,32.66669005,108.8333216,1,0,0,response1disk,,7,-11.99997795,3.499985158,1,0,0,rectangle,-11.99997795,3.499985158,1,0,0,-11.99997795,3.499985158,1,0,0,1,56,216,124,1,,,,,,,,
,,,,,,,,,,,,,FF,,,,,,,,1.483799999,,,,,,,,,,,,,,,,,,,,,,60fd868aa842dda04af3f6bf,61036e53daa485dd0859af50,2021-07-29_23h16.54.530,Simcolourproject_2stim_asymm_v5,2020.2.10,Win32,60,61025ae37ef11b136ea224fe,,,,,,,,,1031,64.00002432,80.16665411,1,0,0,response1disk,,7,-7.999977827,-5.166681767,1,0,0,rectangle,-7.999977827,-5.166681767,1,0,0,-7.999977827,-5.166681767,1,0,0,1,57,217,24,1,,,,,,,,
,,,,,,,,,,,,,FF,,,,,,,,1.334,,,,,,,,,,,,,,,,,,,,,,60fd868aa842dda04af3f6bf,61036e53daa485dd0859af50,2021-07-29_23h16.54.530,Simcolourproject_2stim_asymm_v5,2020.2.10,Win32,60,61025ae37ef11b136ea224fe,,,,,,,,,4035,82.00002486,-41.16668284,1,0,0,response3disk,,5,2.24113E-05,8.833318651,1,0,0,rectangle,2.24113E-05,8.833318651,1,0,0,2.24113E-05,8.833318651,1,0,0,1,58,218,7,1,,,,,,,,
,,,,,,,,,,,,,FF,,,,,,,,1.4505,,,,,,,,,,,,,,,,,,,,,,60fd868aa842dda04af3f6bf,61036e53daa485dd0859af50,2021-07-29_23h16.54.530,Simcolourproject_2stim_asymm_v5,2020.2.10,Win32,60,61025ae37ef11b136ea224fe,,,,,,,,,2481,60.0000242,-82.5000174,1,0,0,response3disk,,4,-0.666644275,4.833318532,1,0,0,rectangle,-0.666644275,4.833318532,1,0,0,-0.666644275,4.833318532,1,0,0,1,59,219,78,1,,,,,,,,
,,,,,,,,,,,,,FF,,,,,,,,1.084,,,,,,,,,,,,,,,,,,,,,,60fd868aa842dda04af3f6bf,61036e53daa485dd0859af50,2021-07-29_23h16.54.530,Simcolourproject_2stim_asymm_v5,2020.2.10,Win32,60,61025ae37ef11b136ea224fe,,,,,,,,,1903,102.6666921,61.49998689,1,0,0,response1disk,,6,10.00002271,14.16665214,1,0,0,rectangle,10.00002271,14.16665214,1,0,0,10.00002271,14.16665214,1,0,0,1,60,220,153,1,,,,,,,,
,,,,,,,,,,,,,FF,,,,,,,,0.833199999,,,,,,,,,,,,,,,,,,,,,,60fd868aa842dda04af3f6bf,61036e53daa485dd0859af50,2021-07-29_23h16.54.530,Simcolourproject_2stim_asymm_v5,2020.2.10,Win32,60,61025ae37ef11b136ea224fe,,,,,,,,,3011,39.33335692,87.49998766,1,0,0,response1disk,,7,2.666689157,10.83331871,1,0,0,rectangle,2.666689157,10.83331871,1,0,0,2.666689157,10.83331871,1,0,0,1,61,221,19,1,,,,,,,,
,,,,,,,,,,,,,FF,,,,,,,,1.2166,,,,,,,,,,,,,,,,,,,,,,60fd868aa842dda04af3f6bf,61036e53daa485dd0859af50,2021-07-29_23h16.54.530,Simcolourproject_2stim_asymm_v5,2020.2.10,Win32,60,61025ae37ef11b136ea224fe,,,,,,,,,2608,-31.33331186,-90.50001764,1,0,0,response5disk,,3,4.000022531,-0.500014961,1,0,0,rectangle,4.000022531,-0.500014961,1,0,0,4.000022531,-0.500014961,1,0,0,1,62,222,127,1,,,,,,,,
,,,,,,,,,,,,,FF,,,,,,,,0.8514,,,,,,,,,,,,,,,,,,,,,,60fd868aa842dda04af3f6bf,61036e53daa485dd0859af50,2021-07-29_23h16.54.530,Simcolourproject_2stim_asymm_v5,2020.2.10,Win32,60,61025ae37ef11b136ea224fe,,,,,,,,,2145,44.00002372,102.1666548,1,0,0,response1disk,,7,0.666689098,-0.500014961,1,0,0,rectangle,0.666689098,-0.500014961,1,0,0,0.666689098,-0.500014961,1,0,0,1,63,223,134,1,,,,,,,,
,,,,,,,,,,,,,FF,,,,,,,,1.4166,,,,,,,,,,,,,,,,,,,,,,60fd868aa842dda04af3f6bf,61036e53daa485dd0859af50,2021-07-29_23h16.54.530,Simcolourproject_2stim_asymm_v5,2020.2.10,Win32,60,61025ae37ef11b136ea224fe,,,,,,,,,2296,122.6666927,-59.83339075,1,0,0,response3disk,,5,-0.666644275,-1.166681647,1,0,0,rectangle,-0.666644275,-1.166681647,1,0,0,-0.666644275,-1.166681647,1,0,0,1,64,224,154,1,,,,,,,,
,,,,,,,,,,,,,FF,,,,,,,,0.854199999,,,,,,,,,,,,,,,,,,,,,,60fd868aa842dda04af3f6bf,61036e53daa485dd0859af50,2021-07-29_23h16.54.530,Simcolourproject_2stim_asymm_v5,2020.2.10,Win32,60,61025ae37ef11b136ea224fe,,,,,,,,,844,38.00002354,101.4999881,1,0,0,response1disk,,7,1.333355784,2.833318472,1,0,0,rectangle,1.333355784,2.833318472,1,0,0,1.333355784,2.833318472,1,0,0,1,65,225,93,1,,,,,,,,
,,,,,,,,,,,,,FF,,,,,,,,0.9165,,,,,,,,,,,,,,,,,,,,,,60fd868aa842dda04af3f6bf,61036e53daa485dd0859af50,2021-07-29_23h16.54.530,Simcolourproject_2stim_asymm_v5,2020.2.10,Win32,60,61025ae37ef11b136ea224fe,,,,,,,,,650,42.66669035,85.4999876,1,0,0,response1disk,,7,2.666689157,12.83331877,1,0,0,rectangle,2.666689157,12.83331877,1,0,0,2.666689157,12.83331877,1,0,0,1,66,226,55,1,,,,,,,,
,,,,,,,,,,,,,FF,,,,,,,,1.666700001,,,,,,,,,,,,,,,,,,,,,,60fd868aa842dda04af3f6bf,61036e53daa485dd0859af50,2021-07-29_23h16.54.530,Simcolourproject_2stim_asymm_v5,2020.2.10,Win32,60,61025ae37ef11b136ea224fe,,,,,,,,,2363,23.33335644,-97.16668451,1,0,0,response3disk,,4,-4.666644394,-19.83338956,1,0,0,rectangle,-4.666644394,-19.83338956,1,0,0,-4.666644394,-19.83338956,1,0,0,1,67,227,64,1,,,,,,,,
,,,,,,,,,,,,,FF,,,,,,,,0.8171,,,,,,,,,,,,,,,,,,,,,,60fd868aa842dda04af3f6bf,61036e53daa485dd0859af50,2021-07-29_23h16.54.530,Simcolourproject_2stim_asymm_v5,2020.2.10,Win32,60,61025ae37ef11b136ea224fe,,,,,,,,,2545,46.66669047,99.49998802,1,0,0,response1disk,,7,7.333355963,13.49998546,1,0,0,rectangle,7.333355963,13.49998546,1,0,0,7.333355963,13.49998546,1,0,0,1,68,228,6,1,,,,,,,,
,,,,,,,,,,,,,FF,,,,,,,,0.866800001,,,,,,,,,,,,,,,,,,,,,,60fd868aa842dda04af3f6bf,61036e53daa485dd0859af50,2021-07-29_23h16.54.530,Simcolourproject_2stim_asymm_v5,2020.2.10,Win32,60,61025ae37ef11b136ea224fe,,,,,,,,,312,37.33335686,86.83332098,1,0,0,response1disk,,7,2.24113E-05,-5.833348453,1,0,0,rectangle,2.24113E-05,-5.833348453,1,0,0,2.24113E-05,-5.833348453,1,0,0,1,69,229,92,1,,,,,,,,
,,,,,,,,,,,,,FF,,,,,,,,1.183700001,,,,,,,,,,,,,,,,,,,,,,60fd868aa842dda04af3f6bf,61036e53daa485dd0859af50,2021-07-29_23h16.54.530,Simcolourproject_2stim_asymm_v5,2020.2.10,Win32,60,61025ae37ef11b136ea224fe,,,,,,,,,57,44.66669041,96.16665459,1,0,0,response1disk,,7,11.33335608,13.49998546,1,0,0,rectangle,11.33335608,13.49998546,1,0,0,11.33335608,13.49998546,1,0,0,1,70,230,143,1,,,,,,,,
,,,,,,,,,,,,,FF,,,,,,,,0.8505,,,,,,,,,,,,,,,,,,,,,,60fd868aa842dda04af3f6bf,61036e53daa485dd0859af50,2021-07-29_23h16.54.530,Simcolourproject_2stim_asymm_v5,2020.2.10,Win32,60,61025ae37ef11b136ea224fe,,,,,,,,,290,35.3333568,95.4999879,1,0,0,response1disk,,7,2.666689157,15.49998552,1,0,0,rectangle,2.666689157,15.49998552,1,0,0,2.666689157,15.49998552,1,0,0,1,71,231,37,1,,,,,,,,
,,,,,,,,,,,,,FF,,,,,,,,0.750300001,,,,,,,,,,,,,,,,,,,,,,60fd868aa842dda04af3f6bf,61036e53daa485dd0859af50,2021-07-29_23h16.54.530,Simcolourproject_2stim_asymm_v5,2020.2.10,Win32,60,61025ae37ef11b136ea224fe,,,,,,,,,2754,37.33335686,73.49998724,1,0,0,response1disk,,7,2.000022471,2.833318472,1,0,0,rectangle,2.000022471,2.833318472,1,0,0,2.000022471,2.833318472,1,0,0,1,72,232,102,1,,,,,,,,
,,,,,,,,,,,,,FF,,,,,,,,1.0666,,,,,,,,,,,,,,,,,,,,,,60fd868aa842dda04af3f6bf,61036e53daa485dd0859af50,2021-07-29_23h16.54.530,Simcolourproject_2stim_asymm_v5,2020.2.10,Win32,60,61025ae37ef11b136ea224fe,,,,,,,,,701,84.6666916,35.49998611,1,0,0,response1disk,,6,8.00002265,4.833318532,1,0,0,rectangle,8.00002265,4.833318532,1,0,0,8.00002265,4.833318532,1,0,0,1,73,233,13,1,,,,,,,,
,,,,,,,,,,,,,FF,,,,,,,,0.7666,,,,,,,,,,,,,,,,,,,,,,60fd868aa842dda04af3f6bf,61036e53daa485dd0859af50,2021-07-29_23h16.54.530,Simcolourproject_2stim_asymm_v5,2020.2.10,Win32,60,61025ae37ef11b136ea224fe,,,,,,,,,2949,46.00002378,104.1666548,1,0,0,response1disk,,7,2.000022471,12.83331877,1,0,0,rectangle,2.000022471,12.83331877,1,0,0,2.000022471,12.83331877,1,0,0,1,74,234,118,1,,,,,,,,
,,,,,,,,,,,,,FF,,,,,,,,1.2334,,,,,,,,,,,,,,,,,,,,,,60fd868aa842dda04af3f6bf,61036e53daa485dd0859af50,2021-07-29_23h16.54.530,Simcolourproject_2stim_asymm_v5,2020.2.10,Win32,60,61025ae37ef11b136ea224fe,,,,,,,,,1070,70.66669118,-40.50001615,1,0,0,response3disk,,5,-10.66664457,7.499985278,1,0,0,rectangle,-10.66664457,7.499985278,1,0,0,-10.66664457,7.499985278,1,0,0,1,75,235,152,1,,,,,,,,
,,,,,,,,,,,,,FF,,,,,,,,0.849800001,,,,,,,,,,,,,,,,,,,,,,60fd868aa842dda04af3f6bf,61036e53daa485dd0859af50,2021-07-29_23h16.54.530,Simcolourproject_2stim_asymm_v5,2020.2.10,Win32,60,61025ae37ef11b136ea224fe,,,,,,,,,1685,34.66669011,76.16665399,1,0,0,response1disk,,7,9.333356023,9.499985337,1,0,0,rectangle,9.333356023,9.499985337,1,0,0,9.333356023,9.499985337,1,0,0,1,76,236,106,1,,,,,,,,
,,,,,,,,,,,,,FF,,,,,,,,1.316799999,,,,,,,,,,,,,,,,,,,,,,60fd868aa842dda04af3f6bf,61036e53daa485dd0859af50,2021-07-29_23h16.54.530,Simcolourproject_2stim_asymm_v5,2020.2.10,Win32,60,61025ae37ef11b136ea224fe,,,,,,,,,1308,76.66669136,-58.50001669,1,0,0,response3disk,,5,-9.999977887,0.166651726,1,0,0,rectangle,-9.999977887,0.166651726,1,0,0,-9.999977887,0.166651726,1,0,0,1,77,237,158,1,,,,,,,,
,,,,,,,,,,,,,FF,,,,,,,,0.8,,,,,,,,,,,,,,,,,,,,,,60fd868aa842dda04af3f6bf,61036e53daa485dd0859af50,2021-07-29_23h16.54.530,Simcolourproject_2stim_asymm_v5,2020.2.10,Win32,60,61025ae37ef11b136ea224fe,,,,,,,,,3465,48.00002384,92.83332115,1,0,0,response1disk,,7,-0.666644275,4.833318532,1,0,0,rectangle,-0.666644275,4.833318532,1,0,0,-0.666644275,4.833318532,1,0,0,1,78,238,61,1,,,,,,,,
,,,,,,,,,,,,,FF,,,,,,,,1.0334,,,,,,,,,,,,,,,,,,,,,,60fd868aa842dda04af3f6bf,61036e53daa485dd0859af50,2021-07-29_23h16.54.530,Simcolourproject_2stim_asymm_v5,2020.2.10,Win32,60,61025ae37ef11b136ea224fe,,,,,,,,,1959,90.66669178,20.16665232,1,0,0,response1disk,,6,2.000022471,-10.50001526,1,0,0,rectangle,2.000022471,-10.50001526,1,0,0,2.000022471,-10.50001526,1,0,0,1,79,239,75,1,,,,,,,,
,,,,,,,,,,,,,FF,,,,,,,,1.1171,,,,,,,,,,,,,,,,,,,,,,60fd868aa842dda04af3f6bf,61036e53daa485dd0859af50,2021-07-29_23h16.54.530,Simcolourproject_2stim_asymm_v5,2020.2.10,Win32,60,61025ae37ef11b136ea224fe,,,,,,,,,2485,39.33335692,96.16665459,1,0,0,response1disk,,7,6.666689277,10.83331871,1,0,0,rectangle,6.666689277,10.83331871,1,0,0,6.666689277,10.83331871,1,0,0,1,80,240,71,1,,,,,,,,
,,,,,,,,,,,,,FF,,,,,,,,0.783200001,,,,,,,,,,,,,,,,,,,,,,60fd868aa842dda04af3f6bf,61036e53daa485dd0859af50,2021-07-29_23h16.54.530,Simcolourproject_2stim_asymm_v5,2020.2.10,Win32,60,61025ae37ef11b136ea224fe,,,,,,,,,1163,38.00002354,81.49998748,1,0,0,response1disk,,7,-5.333311081,-5.833348453,1,0,0,rectangle,-5.333311081,-5.833348453,1,0,0,-5.333311081,-5.833348453,1,0,0,1,81,241,112,1,,,,,,,,
,,,,,,,,,,,,,FF,,,,,,,,1.217200001,,,,,,,,,,,,,,,,,,,,,,60fd868aa842dda04af3f6bf,61036e53daa485dd0859af50,2021-07-29_23h16.54.530,Simcolourproject_2stim_asymm_v5,2020.2.10,Win32,60,61025ae37ef11b136ea224fe,,,,,,,,,4085,92.66669184,-22.50001562,1,0,0,response3disk,,5,10.00002271,3.499985158,1,0,0,rectangle,10.00002271,3.499985158,1,0,0,10.00002271,3.499985158,1,0,0,1,82,242,21,1,,,,,,,,
