key_resp.keys,key_resp.rt,key_resp_14.keys,key_resp_14.rt,key_resp_15.keys,key_resp_15.rt,key_resp_17.keys,key_resp_17.rt,key_resp_9.keys,key_resp_9.rt,key_resp_10.keys,key_resp_10.rt,practice_comparison,Ecc,mouse_5.x,mouse_5.y,mouse_5.leftButton,mouse_5.midButton,mouse_5.rightButton,mouse_5.clicked_name,pracsimilarity,response_time,mouse_10.x,mouse_10.y,mouse_10.leftButton,mouse_10.midButton,mouse_10.rightButton,mouse_10.clicked_name,mouse_7.x,mouse_7.y,mouse_7.leftButton,mouse_7.midButton,mouse_7.rightButton,mouse_6.x,mouse_6.y,mouse_6.leftButton,mouse_6.midButton,mouse_6.rightButton,duringprac.thisRepN,duringprac.thisTrialN,duringprac.thisN,duringprac.thisIndex,duringprac.ran,participant,session,date,expName,psychopyVersion,OS,frameRate,study_id,mouse_7.clicked_name,catchpracsimilarity,catch_response_time,catchnumberprac,catchtrialorderprac,mouse_6.clicked_name,key_resp_22.keys,key_resp_22.rt,realcomparison,mouse.x,mouse.y,mouse.leftButton,mouse.midButton,mouse.rightButton,mouse.clicked_name,Colour2,similarity,mouse_2.x,mouse_2.y,mouse_2.leftButton,mouse_2.midButton,mouse_2.rightButton,mouse_2.clicked_name,mouse_3.x,mouse_3.y,mouse_3.leftButton,mouse_3.midButton,mouse_3.rightButton,mouse_11.x,mouse_11.y,mouse_11.leftButton,mouse_11.midButton,mouse_11.rightButton,trials_2.thisRepN,trials_2.thisTrialN,trials_2.thisN,trials_2.thisIndex,trials_2.ran,Colour1,mouse_3.clicked_name,catchornah,catchsimilarity,catchnumber,catchtrialorder,catchRT,mouse_11.clicked_name
space,1.633,space,2.803,space,7.742,space,6.272,space,1.527,space,2.85,105,PF,51,106,1,0,0,response1disk_5,7,8.65,-13,2,1,0,0,rectangle_8,-13,2,1,0,0,-13,2,1,0,0,0,0,0,4,1,60fdb05e9fae758192d21a0e,61036d31829a4681139ef793,2021-07-29_20h09.27.314,Simcolourproject_2stim_asymm_v5,2020.2.10,Win32,60,61025ae37ef11b136ea224fe,,,,,,,,,,,,,,,,,,,,,,,,,,,,,,,,,,,,,,,,,,,,,,
,,,,,,,,,,,,80,FF,53,-122,1,0,0,response3disk_5,4,5.567,-8,1,1,0,0,rectangle_8,-49,125,1,0,0,-19,-11,1,0,0,0,1,1,3,1,60fdb05e9fae758192d21a0e,61036d31829a4681139ef793,2021-07-29_20h09.27.314,Simcolourproject_2stim_asymm_v5,2020.2.10,Win32,60,61025ae37ef11b136ea224fe,response7disk_7,0,3.367,0,"[2,5]",rectangle_4,,,,,,,,,,,,,,,,,,,,,,,,,,,,,,,,,,,,,,,,
,,,,,,,,,,,,24,PF,-58,-103,1,0,0,response5disk_5,3,2.646,7,12,1,0,0,rectangle_8,7,12,1,0,0,7,12,1,0,0,0,2,2,6,1,60fdb05e9fae758192d21a0e,61036d31829a4681139ef793,2021-07-29_20h09.27.314,Simcolourproject_2stim_asymm_v5,2020.2.10,Win32,60,61025ae37ef11b136ea224fe,,,,,,,,,,,,,,,,,,,,,,,,,,,,,,,,,,,,,,,,,,,,,,
,,,,,,,,,,,,18,PF,49,-114,1,0,0,response3disk_5,4,4.77,-15,6,1,0,0,rectangle_8,-15,6,1,0,0,-15,6,1,0,0,0,3,3,2,1,60fdb05e9fae758192d21a0e,61036d31829a4681139ef793,2021-07-29_20h09.27.314,Simcolourproject_2stim_asymm_v5,2020.2.10,Win32,60,61025ae37ef11b136ea224fe,,,,,,,,,,,,,,,,,,,,,,,,,,,,,,,,,,,,,,,,,,,,,,
,,,,,,,,,,,,43,FF,-95,-61,1,0,0,response5disk_5,2,2.775,8,6,1,0,0,rectangle_8,-61,120,1,0,0,7,0,1,0,0,0,4,4,0,1,60fdb05e9fae758192d21a0e,61036d31829a4681139ef793,2021-07-29_20h09.27.314,Simcolourproject_2stim_asymm_v5,2020.2.10,Win32,60,61025ae37ef11b136ea224fe,response7disk_7,0,2.222,0,"[2,5]",rectangle_4,,,,,,,,,,,,,,,,,,,,,,,,,,,,,,,,,,,,,,,,
,,,,,,,,,,,,19,FF,52,100,1,0,0,response1disk_5,7,2.597,-18,-1,1,0,0,rectangle_8,-18,-1,1,0,0,-18,-1,1,0,0,0,5,5,5,1,60fdb05e9fae758192d21a0e,61036d31829a4681139ef793,2021-07-29_20h09.27.314,Simcolourproject_2stim_asymm_v5,2020.2.10,Win32,60,61025ae37ef11b136ea224fe,,,,,,,,,,,,,,,,,,,,,,,,,,,,,,,,,,,,,,,,,,,,,,
,,,,,,,,,,,,70,PF,-40,-118,1,0,0,response5disk_5,3,1.336,11,10,1,0,0,rectangle_8,11,10,1,0,0,11,10,1,0,0,0,6,6,1,1,60fdb05e9fae758192d21a0e,61036d31829a4681139ef793,2021-07-29_20h09.27.314,Simcolourproject_2stim_asymm_v5,2020.2.10,Win32,60,61025ae37ef11b136ea224fe,,,,,,,,,,,,,,,,,,,,,,,,,,,,,,,,,,,,,,,,,,,,,,
,,,,,,,,,,,,,FF,,,,,,,,3.341,,,,,,,,,,,,,,,,,,,,,,60fdb05e9fae758192d21a0e,61036d31829a4681139ef793,2021-07-29_20h09.27.314,Simcolourproject_2stim_asymm_v5,2020.2.10,Win32,60,61025ae37ef11b136ea224fe,,,,,,,space,2.048,397,44,94,1,0,0,response1disk,,7,17,10,1,0,0,rectangle,17,10,1,0,0,17,10,1,0,0,0,0,0,124,1,,,,,,,,
,,,,,,,,,,,,,FF,,,,,,,,1.189,,,,,,,,,,,,,,,,,,,,,,60fdb05e9fae758192d21a0e,61036d31829a4681139ef793,2021-07-29_20h09.27.314,Simcolourproject_2stim_asymm_v5,2020.2.10,Win32,60,61025ae37ef11b136ea224fe,,,,,,,,,1,-55,-96,1,0,0,response5disk,,3,7,8,1,0,0,rectangle,7,8,1,0,0,7,8,1,0,0,0,1,1,38,1,,,,,,,,
,,,,,,,,,,,,,FF,,,,,,,,2.218,,,,,,,,,,,,,,,,,,,,,,60fdb05e9fae758192d21a0e,61036d31829a4681139ef793,2021-07-29_20h09.27.314,Simcolourproject_2stim_asymm_v5,2020.2.10,Win32,60,61025ae37ef11b136ea224fe,,,,,,,,,3057,21,-78,1,0,0,response3disk,,4,17,9,1,0,0,rectangle,17,9,1,0,0,17,9,1,0,0,0,2,2,142,1,,,,,,,,
,,,,,,,,,,,,,FF,,,,,,,,1.817,,,,,,,,,,,,,,,,,,,,,,60fdb05e9fae758192d21a0e,61036d31829a4681139ef793,2021-07-29_20h09.27.314,Simcolourproject_2stim_asymm_v5,2020.2.10,Win32,60,61025ae37ef11b136ea224fe,,,,,,,,,4213,53,96,1,0,0,response1disk,,7,6,10,1,0,0,rectangle,6,10,1,0,0,6,10,1,0,0,0,3,3,121,1,,,,,,,,
,,,,,,,,,,,,,FF,,,,,,,,3.413,,,,,,,,,,,,,,,,,,,,,,60fdb05e9fae758192d21a0e,61036d31829a4681139ef793,2021-07-29_20h09.27.314,Simcolourproject_2stim_asymm_v5,2020.2.10,Win32,60,61025ae37ef11b136ea224fe,,,,,,,,,1167,89,-49,1,0,0,response3disk,,5,-3,-3,1,0,0,rectangle,-3,-3,1,0,0,-3,-3,1,0,0,0,4,4,112,1,,,,,,,,
,,,,,,,,,,,,,FF,,,,,,,,2.761,,,,,,,,,,,,,,,,,,,,,,60fdb05e9fae758192d21a0e,61036d31829a4681139ef793,2021-07-29_20h09.27.314,Simcolourproject_2stim_asymm_v5,2020.2.10,Win32,60,61025ae37ef11b136ea224fe,,,,,,,,,1907,51,81,1,0,0,response1disk,,7,-5,-3,1,0,0,rectangle,-5,-3,1,0,0,-5,-3,1,0,0,0,5,5,137,1,,,,,,,,
,,,,,,,,,,,,,FF,,,,,,,,1.578,,,,,,,,,,,,,,,,,,,,,,60fdb05e9fae758192d21a0e,61036d31829a4681139ef793,2021-07-29_20h09.27.314,Simcolourproject_2stim_asymm_v5,2020.2.10,Win32,60,61025ae37ef11b136ea224fe,,,,,,,,,2439,107,64,1,0,0,response1disk,,6,5,1,1,0,0,rectangle,5,1,1,0,0,5,1,1,0,0,0,6,6,2,1,,,,,,,,
,,,,,,,,,,,,,FF,,,,,,,,1.671,,,,,,,,,,,,,,,,,,,,,,60fdb05e9fae758192d21a0e,61036d31829a4681139ef793,2021-07-29_20h09.27.314,Simcolourproject_2stim_asymm_v5,2020.2.10,Win32,60,61025ae37ef11b136ea224fe,,,,,,,,,1221,86,-74,1,0,0,response3disk,,5,-4,2,1,0,0,rectangle,-4,2,1,0,0,-4,2,1,0,0,0,7,7,138,1,,,,,,,,
,,,,,,,,,,,,,FF,,,,,,,,3.089,,,,,,,,,,,,,,,,,,,,,,60fdb05e9fae758192d21a0e,61036d31829a4681139ef793,2021-07-29_20h09.27.314,Simcolourproject_2stim_asymm_v5,2020.2.10,Win32,60,61025ae37ef11b136ea224fe,,,,,,,,,1820,-96,-104,1,0,0,response5disk,,3,-12,-3,1,0,0,rectangle,-12,-3,1,0,0,-12,-3,1,0,0,0,8,8,70,1,,,,,,,,
,,,,,,,,,,,,,FF,,,,,,,,1.785,,,,,,,,,,,,,,,,,,,,,,60fdb05e9fae758192d21a0e,61036d31829a4681139ef793,2021-07-29_20h09.27.314,Simcolourproject_2stim_asymm_v5,2020.2.10,Win32,60,61025ae37ef11b136ea224fe,,,,,,,,,3067,55,110,1,0,0,response1disk,,7,1,6,1,0,0,rectangle,1,6,1,0,0,1,6,1,0,0,0,9,9,122,1,,,,,,,,
,,,,,,,,,,,,,FF,,,,,,,,0.951,,,,,,,,,,,,,,,,,,,,,,60fdb05e9fae758192d21a0e,61036d31829a4681139ef793,2021-07-29_20h09.27.314,Simcolourproject_2stim_asymm_v5,2020.2.10,Win32,60,61025ae37ef11b136ea224fe,,,,,,,,,2862,29,84,1,0,0,response1disk,,7,1,-12,1,0,0,rectangle,1,-12,1,0,0,1,-12,1,0,0,0,10,10,35,1,,,,,,,,
,,,,,,,,,,,,,FF,,,,,,,,1.291,,,,,,,,,,,,,,,,,,,,,,60fdb05e9fae758192d21a0e,61036d31829a4681139ef793,2021-07-29_20h09.27.314,Simcolourproject_2stim_asymm_v5,2020.2.10,Win32,60,61025ae37ef11b136ea224fe,,,,,,,,,3859,100,36,1,0,0,response1disk,,6,16,-10,1,0,0,rectangle,16,-10,1,0,0,16,-10,1,0,0,0,11,11,99,1,,,,,,,,
,,,,,,,,,,,,,FF,,,,,,,,0.879,,,,,,,,,,,,,,,,,,,,,,60fdb05e9fae758192d21a0e,61036d31829a4681139ef793,2021-07-29_20h09.27.314,Simcolourproject_2stim_asymm_v5,2020.2.10,Win32,60,61025ae37ef11b136ea224fe,,,,,,,,,1508,54,95,1,0,0,response1disk,,7,18,-7,1,0,0,rectangle,-118,42,1,0,0,26,4,1,0,0,0,12,12,51,1,,response7disk_3,TRUE,1,1,"[253,123,191,294,271,127,260,264,198,133,304,27,113,92,13,109,242,222,195,196]",2.141,rectangle
,,,,,,,,,,,,,FF,,,,,,,,39.403,,,,,,,,,,,,,,,,,,,,,,60fdb05e9fae758192d21a0e,61036d31829a4681139ef793,2021-07-29_20h09.27.314,Simcolourproject_2stim_asymm_v5,2020.2.10,Win32,60,61025ae37ef11b136ea224fe,,,,,,,,,1425,95,42,1,0,0,response1disk,,6,11,12,1,0,0,rectangle,11,12,1,0,0,11,12,1,0,0,0,13,13,82,1,,,,,,,,
,,,,,,,,,,,,,FF,,,,,,,,0.87,,,,,,,,,,,,,,,,,,,,,,60fdb05e9fae758192d21a0e,61036d31829a4681139ef793,2021-07-29_20h09.27.314,Simcolourproject_2stim_asymm_v5,2020.2.10,Win32,60,61025ae37ef11b136ea224fe,,,,,,,,,4133,39,142,1,0,0,response1disk,,7,9,-9,1,0,0,rectangle,9,-9,1,0,0,9,-9,1,0,0,0,14,14,16,1,,,,,,,,
,,,,,,,,,,,,,FF,,,,,,,,1.583,,,,,,,,,,,,,,,,,,,,,,60fdb05e9fae758192d21a0e,61036d31829a4681139ef793,2021-07-29_20h09.27.314,Simcolourproject_2stim_asymm_v5,2020.2.10,Win32,60,61025ae37ef11b136ea224fe,,,,,,,,,3853,-103,-66,1,0,0,response5disk,,2,12,7,1,0,0,rectangle,12,7,1,0,0,12,7,1,0,0,0,15,15,116,1,,,,,,,,
,,,,,,,,,,,,,FF,,,,,,,,1.205,,,,,,,,,,,,,,,,,,,,,,60fdb05e9fae758192d21a0e,61036d31829a4681139ef793,2021-07-29_20h09.27.314,Simcolourproject_2stim_asymm_v5,2020.2.10,Win32,60,61025ae37ef11b136ea224fe,,,,,,,,,1704,37,114,1,0,0,response1disk,,7,-18,3,1,0,0,rectangle,-18,3,1,0,0,-18,3,1,0,0,0,16,16,66,1,,,,,,,,
,,,,,,,,,,,,,FF,,,,,,,,1.733,,,,,,,,,,,,,,,,,,,,,,60fdb05e9fae758192d21a0e,61036d31829a4681139ef793,2021-07-29_20h09.27.314,Simcolourproject_2stim_asymm_v5,2020.2.10,Win32,60,61025ae37ef11b136ea224fe,,,,,,,,,1332,35,119,1,0,0,response1disk,,7,-7,-14,1,0,0,rectangle,-7,-14,1,0,0,-7,-14,1,0,0,0,17,17,125,1,,,,,,,,
,,,,,,,,,,,,,FF,,,,,,,,1.357,,,,,,,,,,,,,,,,,,,,,,60fdb05e9fae758192d21a0e,61036d31829a4681139ef793,2021-07-29_20h09.27.314,Simcolourproject_2stim_asymm_v5,2020.2.10,Win32,60,61025ae37ef11b136ea224fe,,,,,,,,,515,30,-95,1,0,0,response3disk,,4,-12,-3,1,0,0,rectangle,-12,-3,1,0,0,-12,-3,1,0,0,0,18,18,63,1,,,,,,,,
,,,,,,,,,,,,,FF,,,,,,,,0.814,,,,,,,,,,,,,,,,,,,,,,60fdb05e9fae758192d21a0e,61036d31829a4681139ef793,2021-07-29_20h09.27.314,Simcolourproject_2stim_asymm_v5,2020.2.10,Win32,60,61025ae37ef11b136ea224fe,,,,,,,,,2468,54,114,1,0,0,response1disk,,7,-4,1,1,0,0,rectangle,-4,1,1,0,0,-4,1,1,0,0,0,19,19,130,1,,,,,,,,
,,,,,,,,,,,,,FF,,,,,,,,2.134,,,,,,,,,,,,,,,,,,,,,,60fdb05e9fae758192d21a0e,61036d31829a4681139ef793,2021-07-29_20h09.27.314,Simcolourproject_2stim_asymm_v5,2020.2.10,Win32,60,61025ae37ef11b136ea224fe,,,,,,,,,3479,-31,-112,1,0,0,response5disk,,3,-29,8,1,0,0,rectangle,-29,8,1,0,0,-29,8,1,0,0,0,20,20,110,1,,,,,,,,
,,,,,,,,,,,,,FF,,,,,,,,1.019,,,,,,,,,,,,,,,,,,,,,,60fdb05e9fae758192d21a0e,61036d31829a4681139ef793,2021-07-29_20h09.27.314,Simcolourproject_2stim_asymm_v5,2020.2.10,Win32,60,61025ae37ef11b136ea224fe,,,,,,,,,244,57,134,1,0,0,response1disk,,7,12,16,1,0,0,rectangle,12,16,1,0,0,12,16,1,0,0,0,21,21,20,1,,,,,,,,
,,,,,,,,,,,,,FF,,,,,,,,0.908,,,,,,,,,,,,,,,,,,,,,,60fdb05e9fae758192d21a0e,61036d31829a4681139ef793,2021-07-29_20h09.27.314,Simcolourproject_2stim_asymm_v5,2020.2.10,Win32,60,61025ae37ef11b136ea224fe,,,,,,,,,4196,37,88,1,0,0,response1disk,,7,23,-6,1,0,0,rectangle,23,-6,1,0,0,23,-6,1,0,0,0,22,22,141,1,,,,,,,,
,,,,,,,,,,,,,FF,,,,,,,,0.855,,,,,,,,,,,,,,,,,,,,,,60fdb05e9fae758192d21a0e,61036d31829a4681139ef793,2021-07-29_20h09.27.314,Simcolourproject_2stim_asymm_v5,2020.2.10,Win32,60,61025ae37ef11b136ea224fe,,,,,,,,,3120,25,68,1,0,0,response1disk,,7,-14,15,1,0,0,rectangle,-14,15,1,0,0,-14,15,1,0,0,0,23,23,28,1,,,,,,,,
,,,,,,,,,,,,,FF,,,,,,,,0.869,,,,,,,,,,,,,,,,,,,,,,60fdb05e9fae758192d21a0e,61036d31829a4681139ef793,2021-07-29_20h09.27.314,Simcolourproject_2stim_asymm_v5,2020.2.10,Win32,60,61025ae37ef11b136ea224fe,,,,,,,,,3902,32,110,1,0,0,response1disk,,7,10,14,1,0,0,rectangle,10,14,1,0,0,10,14,1,0,0,0,24,24,21,1,,,,,,,,
,,,,,,,,,,,,,FF,,,,,,,,0.938,,,,,,,,,,,,,,,,,,,,,,60fdb05e9fae758192d21a0e,61036d31829a4681139ef793,2021-07-29_20h09.27.314,Simcolourproject_2stim_asymm_v5,2020.2.10,Win32,60,61025ae37ef11b136ea224fe,,,,,,,,,229,32,85,1,0,0,response1disk,,7,15,1,1,0,0,rectangle,15,1,1,0,0,15,1,1,0,0,0,25,25,154,1,,,,,,,,
,,,,,,,,,,,,,FF,,,,,,,,0.665,,,,,,,,,,,,,,,,,,,,,,60fdb05e9fae758192d21a0e,61036d31829a4681139ef793,2021-07-29_20h09.27.314,Simcolourproject_2stim_asymm_v5,2020.2.10,Win32,60,61025ae37ef11b136ea224fe,,,,,,,,,2531,45,102,1,0,0,response1disk,,7,-18,-2,1,0,0,rectangle,116,-52,1,0,0,4,8,1,0,0,0,26,26,1,1,,response3disk_3,TRUE,5,5,"[253,123,191,294,271,127,260,264,198,133,304,27,113,92,13,109,242,222,195,196]",2.095,rectangle
,,,,,,,,,,,,,FF,,,,,,,,1.294,,,,,,,,,,,,,,,,,,,,,,60fdb05e9fae758192d21a0e,61036d31829a4681139ef793,2021-07-29_20h09.27.314,Simcolourproject_2stim_asymm_v5,2020.2.10,Win32,60,61025ae37ef11b136ea224fe,,,,,,,,,4139,38,96,1,0,0,response1disk,,7,7,6,1,0,0,rectangle,7,6,1,0,0,7,6,1,0,0,0,27,27,44,1,,,,,,,,
,,,,,,,,,,,,,FF,,,,,,,,2.806,,,,,,,,,,,,,,,,,,,,,,60fdb05e9fae758192d21a0e,61036d31829a4681139ef793,2021-07-29_20h09.27.314,Simcolourproject_2stim_asymm_v5,2020.2.10,Win32,60,61025ae37ef11b136ea224fe,,,,,,,,,3726,126,-53,1,0,0,response3disk,,5,4,4,1,0,0,rectangle,4,4,1,0,0,4,4,1,0,0,0,28,28,43,1,,,,,,,,
,,,,,,,,,,,,,FF,,,,,,,,32.775,,,,,,,,,,,,,,,,,,,,,,60fdb05e9fae758192d21a0e,61036d31829a4681139ef793,2021-07-29_20h09.27.314,Simcolourproject_2stim_asymm_v5,2020.2.10,Win32,60,61025ae37ef11b136ea224fe,,,,,,,,,3584,-52,-117,1,0,0,response5disk,,3,-22,-1,1,0,0,rectangle,-22,-1,1,0,0,-22,-1,1,0,0,0,29,29,135,1,,,,,,,,
,,,,,,,,,,,,,FF,,,,,,,,3.256,,,,,,,,,,,,,,,,,,,,,,60fdb05e9fae758192d21a0e,61036d31829a4681139ef793,2021-07-29_20h09.27.314,Simcolourproject_2stim_asymm_v5,2020.2.10,Win32,60,61025ae37ef11b136ea224fe,,,,,,,,,2234,-105,47,1,0,0,response7disk,,1,18,3,1,0,0,rectangle,18,3,1,0,0,18,3,1,0,0,0,30,30,114,1,,,,,,,,
,,,,,,,,,,,,,FF,,,,,,,,1.406,,,,,,,,,,,,,,,,,,,,,,60fdb05e9fae758192d21a0e,61036d31829a4681139ef793,2021-07-29_20h09.27.314,Simcolourproject_2stim_asymm_v5,2020.2.10,Win32,60,61025ae37ef11b136ea224fe,,,,,,,,,1061,53,-125,1,0,0,response3disk,,4,-2,-2,1,0,0,rectangle,-2,-2,1,0,0,-2,-2,1,0,0,0,31,31,139,1,,,,,,,,
,,,,,,,,,,,,,FF,,,,,,,,0.824,,,,,,,,,,,,,,,,,,,,,,60fdb05e9fae758192d21a0e,61036d31829a4681139ef793,2021-07-29_20h09.27.314,Simcolourproject_2stim_asymm_v5,2020.2.10,Win32,60,61025ae37ef11b136ea224fe,,,,,,,,,2259,26,84,1,0,0,response1disk,,7,-8,9,1,0,0,rectangle,-8,9,1,0,0,-8,9,1,0,0,0,32,32,55,1,,,,,,,,
,,,,,,,,,,,,,FF,,,,,,,,1.919,,,,,,,,,,,,,,,,,,,,,,60fdb05e9fae758192d21a0e,61036d31829a4681139ef793,2021-07-29_20h09.27.314,Simcolourproject_2stim_asymm_v5,2020.2.10,Win32,60,61025ae37ef11b136ea224fe,,,,,,,,,2350,130,31,1,0,0,response1disk,,6,5,6,1,0,0,rectangle,5,6,1,0,0,5,6,1,0,0,0,33,33,49,1,,,,,,,,
,,,,,,,,,,,,,FF,,,,,,,,1.984,,,,,,,,,,,,,,,,,,,,,,60fdb05e9fae758192d21a0e,61036d31829a4681139ef793,2021-07-29_20h09.27.314,Simcolourproject_2stim_asymm_v5,2020.2.10,Win32,60,61025ae37ef11b136ea224fe,,,,,,,,,2435,110,-48,1,0,0,response3disk,,5,-28,16,1,0,0,rectangle,-28,16,1,0,0,-28,16,1,0,0,0,34,34,87,1,,,,,,,,
,,,,,,,,,,,,,FF,,,,,,,,0.681,,,,,,,,,,,,,,,,,,,,,,60fdb05e9fae758192d21a0e,61036d31829a4681139ef793,2021-07-29_20h09.27.314,Simcolourproject_2stim_asymm_v5,2020.2.10,Win32,60,61025ae37ef11b136ea224fe,,,,,,,,,4214,60,89,1,0,0,response1disk,,7,-14,-9,1,0,0,rectangle,-14,-9,1,0,0,-14,-9,1,0,0,0,35,35,140,1,,,,,,,,
,,,,,,,,,,,,,FF,,,,,,,,1.431,,,,,,,,,,,,,,,,,,,,,,60fdb05e9fae758192d21a0e,61036d31829a4681139ef793,2021-07-29_20h09.27.314,Simcolourproject_2stim_asymm_v5,2020.2.10,Win32,60,61025ae37ef11b136ea224fe,,,,,,,,,1251,24,75,1,0,0,response1disk,,7,0,-4,1,0,0,rectangle,0,-4,1,0,0,0,-4,1,0,0,0,36,36,77,1,,,,,,,,
,,,,,,,,,,,,,FF,,,,,,,,2.933,,,,,,,,,,,,,,,,,,,,,,60fdb05e9fae758192d21a0e,61036d31829a4681139ef793,2021-07-29_20h09.27.314,Simcolourproject_2stim_asymm_v5,2020.2.10,Win32,60,61025ae37ef11b136ea224fe,,,,,,,,,2735,40,-97,1,0,0,response3disk,,4,3,0,1,0,0,rectangle,3,0,1,0,0,3,0,1,0,0,0,37,37,5,1,,,,,,,,
,,,,,,,,,,,,,FF,,,,,,,,0.945,,,,,,,,,,,,,,,,,,,,,,60fdb05e9fae758192d21a0e,61036d31829a4681139ef793,2021-07-29_20h09.27.314,Simcolourproject_2stim_asymm_v5,2020.2.10,Win32,60,61025ae37ef11b136ea224fe,,,,,,,,,2813,36,104,1,0,0,response1disk,,7,-6,2,1,0,0,rectangle,-6,2,1,0,0,-6,2,1,0,0,0,38,38,12,1,,,,,,,,
,,,,,,,,,,,,,FF,,,,,,,,2.62,,,,,,,,,,,,,,,,,,,,,,60fdb05e9fae758192d21a0e,61036d31829a4681139ef793,2021-07-29_20h09.27.314,Simcolourproject_2stim_asymm_v5,2020.2.10,Win32,60,61025ae37ef11b136ea224fe,,,,,,,,,1294,-98,-66,1,0,0,response5disk,,2,17,12,1,0,0,rectangle,17,12,1,0,0,17,12,1,0,0,0,39,39,57,1,,,,,,,,
,,,,,,,,,,,,,FF,,,,,,,,0.774,,,,,,,,,,,,,,,,,,,,,,60fdb05e9fae758192d21a0e,61036d31829a4681139ef793,2021-07-29_20h09.27.314,Simcolourproject_2stim_asymm_v5,2020.2.10,Win32,60,61025ae37ef11b136ea224fe,,,,,,,,,2797,26,60,1,0,0,response1disk,,7,-4,-9,1,0,0,rectangle,-4,-9,1,0,0,-4,-9,1,0,0,0,40,40,149,1,,,,,,,,
,,,,,,,,,,,,,FF,,,,,,,,1.16,,,,,,,,,,,,,,,,,,,,,,60fdb05e9fae758192d21a0e,61036d31829a4681139ef793,2021-07-29_20h09.27.314,Simcolourproject_2stim_asymm_v5,2020.2.10,Win32,60,61025ae37ef11b136ea224fe,,,,,,,,,41,67,135,1,0,0,response1disk,,7,1,-6,1,0,0,rectangle,1,-6,1,0,0,1,-6,1,0,0,0,41,41,133,1,,,,,,,,
,,,,,,,,,,,,,FF,,,,,,,,42.352,,,,,,,,,,,,,,,,,,,,,,60fdb05e9fae758192d21a0e,61036d31829a4681139ef793,2021-07-29_20h09.27.314,Simcolourproject_2stim_asymm_v5,2020.2.10,Win32,60,61025ae37ef11b136ea224fe,,,,,,,,,1573,110,-85,1,0,0,response3disk,,5,2,6,1,0,0,rectangle,2,6,1,0,0,2,6,1,0,0,0,42,42,83,1,,,,,,,,
,,,,,,,,,,,,,FF,,,,,,,,1.052,,,,,,,,,,,,,,,,,,,,,,60fdb05e9fae758192d21a0e,61036d31829a4681139ef793,2021-07-29_20h09.27.314,Simcolourproject_2stim_asymm_v5,2020.2.10,Win32,60,61025ae37ef11b136ea224fe,,,,,,,,,1748,-139,-39,1,0,0,response5disk,,2,2,12,1,0,0,rectangle,2,12,1,0,0,2,12,1,0,0,0,43,43,75,1,,,,,,,,
,,,,,,,,,,,,,FF,,,,,,,,0.733,,,,,,,,,,,,,,,,,,,,,,60fdb05e9fae758192d21a0e,61036d31829a4681139ef793,2021-07-29_20h09.27.314,Simcolourproject_2stim_asymm_v5,2020.2.10,Win32,60,61025ae37ef11b136ea224fe,,,,,,,,,512,48,84,1,0,0,response1disk,,7,-25,-17,1,0,0,rectangle,-25,-17,1,0,0,-25,-17,1,0,0,0,44,44,103,1,,,,,,,,
,,,,,,,,,,,,,FF,,,,,,,,1.366,,,,,,,,,,,,,,,,,,,,,,60fdb05e9fae758192d21a0e,61036d31829a4681139ef793,2021-07-29_20h09.27.314,Simcolourproject_2stim_asymm_v5,2020.2.10,Win32,60,61025ae37ef11b136ea224fe,,,,,,,,,560,44,-96,1,0,0,response3disk,,4,8,-1,1,0,0,rectangle,8,-1,1,0,0,8,-1,1,0,0,0,45,45,34,1,,,,,,,,
,,,,,,,,,,,,,FF,,,,,,,,0.768,,,,,,,,,,,,,,,,,,,,,,60fdb05e9fae758192d21a0e,61036d31829a4681139ef793,2021-07-29_20h09.27.314,Simcolourproject_2stim_asymm_v5,2020.2.10,Win32,60,61025ae37ef11b136ea224fe,,,,,,,,,4342,20,85,1,0,0,response1disk,,7,-2,-1,1,0,0,rectangle,-2,-1,1,0,0,-2,-1,1,0,0,0,46,46,157,1,,,,,,,,
,,,,,,,,,,,,,FF,,,,,,,,2.203,,,,,,,,,,,,,,,,,,,,,,60fdb05e9fae758192d21a0e,61036d31829a4681139ef793,2021-07-29_20h09.27.314,Simcolourproject_2stim_asymm_v5,2020.2.10,Win32,60,61025ae37ef11b136ea224fe,,,,,,,,,875,80,50,1,0,0,response1disk,,6,-2,-1,1,0,0,rectangle,-2,-1,1,0,0,-2,-1,1,0,0,0,47,47,153,1,,,,,,,,
,,,,,,,,,,,,,FF,,,,,,,,0.969,,,,,,,,,,,,,,,,,,,,,,60fdb05e9fae758192d21a0e,61036d31829a4681139ef793,2021-07-29_20h09.27.314,Simcolourproject_2stim_asymm_v5,2020.2.10,Win32,60,61025ae37ef11b136ea224fe,,,,,,,,,1625,37,83,1,0,0,response1disk,,7,-24,-5,1,0,0,rectangle,-24,-5,1,0,0,-24,-5,1,0,0,0,48,48,39,1,,,,,,,,
,,,,,,,,,,,,,FF,,,,,,,,5.75,,,,,,,,,,,,,,,,,,,,,,60fdb05e9fae758192d21a0e,61036d31829a4681139ef793,2021-07-29_20h09.27.314,Simcolourproject_2stim_asymm_v5,2020.2.10,Win32,60,61025ae37ef11b136ea224fe,,,,,,,,,780,124,50,1,0,0,response1disk,,6,-8,-5,1,0,0,rectangle,-8,-5,1,0,0,-8,-5,1,0,0,0,49,49,90,1,,,,,,,,
,,,,,,,,,,,,,FF,,,,,,,,1.313,,,,,,,,,,,,,,,,,,,,,,60fdb05e9fae758192d21a0e,61036d31829a4681139ef793,2021-07-29_20h09.27.314,Simcolourproject_2stim_asymm_v5,2020.2.10,Win32,60,61025ae37ef11b136ea224fe,,,,,,,,,3104,-86,-112,1,0,0,response5disk,,3,-2,15,1,0,0,rectangle,-2,15,1,0,0,-2,15,1,0,0,0,50,50,143,1,,,,,,,,
,,,,,,,,,,,,,FF,,,,,,,,0.74,,,,,,,,,,,,,,,,,,,,,,60fdb05e9fae758192d21a0e,61036d31829a4681139ef793,2021-07-29_20h09.27.314,Simcolourproject_2stim_asymm_v5,2020.2.10,Win32,60,61025ae37ef11b136ea224fe,,,,,,,,,1501,28,98,1,0,0,response1disk,,7,-3,-8,1,0,0,rectangle,-3,-8,1,0,0,-3,-8,1,0,0,0,51,51,111,1,,,,,,,,
,,,,,,,,,,,,,FF,,,,,,,,1.771,,,,,,,,,,,,,,,,,,,,,,60fdb05e9fae758192d21a0e,61036d31829a4681139ef793,2021-07-29_20h09.27.314,Simcolourproject_2stim_asymm_v5,2020.2.10,Win32,60,61025ae37ef11b136ea224fe,,,,,,,,,1811,62,-90,1,0,0,response3disk,,4,-2,7,1,0,0,rectangle,-2,7,1,0,0,-2,7,1,0,0,0,52,52,14,1,,,,,,,,
,,,,,,,,,,,,,FF,,,,,,,,0.843,,,,,,,,,,,,,,,,,,,,,,60fdb05e9fae758192d21a0e,61036d31829a4681139ef793,2021-07-29_20h09.27.314,Simcolourproject_2stim_asymm_v5,2020.2.10,Win32,60,61025ae37ef11b136ea224fe,,,,,,,,,4265,25,67,1,0,0,response1disk,,7,5,7,1,0,0,rectangle,5,7,1,0,0,5,7,1,0,0,0,53,53,54,1,,,,,,,,
,,,,,,,,,,,,,FF,,,,,,,,1.172,,,,,,,,,,,,,,,,,,,,,,60fdb05e9fae758192d21a0e,61036d31829a4681139ef793,2021-07-29_20h09.27.314,Simcolourproject_2stim_asymm_v5,2020.2.10,Win32,60,61025ae37ef11b136ea224fe,,,,,,,,,2607,-106,50,1,0,0,response7disk,,1,-12,6,1,0,0,rectangle,-12,6,1,0,0,-12,6,1,0,0,0,54,54,158,1,,,,,,,,
,,,,,,,,,,,,,FF,,,,,,,,1.025,,,,,,,,,,,,,,,,,,,,,,60fdb05e9fae758192d21a0e,61036d31829a4681139ef793,2021-07-29_20h09.27.314,Simcolourproject_2stim_asymm_v5,2020.2.10,Win32,60,61025ae37ef11b136ea224fe,,,,,,,,,946,57,121,1,0,0,response1disk,,7,15,8,1,0,0,rectangle,15,8,1,0,0,15,8,1,0,0,0,55,55,48,1,,,,,,,,
,,,,,,,,,,,,,FF,,,,,,,,4.838,,,,,,,,,,,,,,,,,,,,,,60fdb05e9fae758192d21a0e,61036d31829a4681139ef793,2021-07-29_20h09.27.314,Simcolourproject_2stim_asymm_v5,2020.2.10,Win32,60,61025ae37ef11b136ea224fe,,,,,,,,,1488,104,-48,1,0,0,response3disk,,5,-1,-15,1,0,0,rectangle,-1,-15,1,0,0,-1,-15,1,0,0,0,56,56,29,1,,,,,,,,
,,,,,,,,,,,,,FF,,,,,,,,2.76,,,,,,,,,,,,,,,,,,,,,,60fdb05e9fae758192d21a0e,61036d31829a4681139ef793,2021-07-29_20h09.27.314,Simcolourproject_2stim_asymm_v5,2020.2.10,Win32,60,61025ae37ef11b136ea224fe,,,,,,,,,1735,-60,-96,1,0,0,response5disk,,3,-8,-2,1,0,0,rectangle,-8,-2,1,0,0,-8,-2,1,0,0,0,57,57,102,1,,,,,,,,
,,,,,,,,,,,,,FF,,,,,,,,1.219,,,,,,,,,,,,,,,,,,,,,,60fdb05e9fae758192d21a0e,61036d31829a4681139ef793,2021-07-29_20h09.27.314,Simcolourproject_2stim_asymm_v5,2020.2.10,Win32,60,61025ae37ef11b136ea224fe,,,,,,,,,207,56,117,1,0,0,response1disk,,7,-7,-3,1,0,0,rectangle,-7,-3,1,0,0,-7,-3,1,0,0,0,58,58,24,1,,,,,,,,
,,,,,,,,,,,,,FF,,,,,,,,1.215,,,,,,,,,,,,,,,,,,,,,,60fdb05e9fae758192d21a0e,61036d31829a4681139ef793,2021-07-29_20h09.27.314,Simcolourproject_2stim_asymm_v5,2020.2.10,Win32,60,61025ae37ef11b136ea224fe,,,,,,,,,1152,51,-105,1,0,0,response3disk,,4,13,-4,1,0,0,rectangle,13,-4,1,0,0,13,-4,1,0,0,0,59,59,100,1,,,,,,,,
,,,,,,,,,,,,,FF,,,,,,,,1.676,,,,,,,,,,,,,,,,,,,,,,60fdb05e9fae758192d21a0e,61036d31829a4681139ef793,2021-07-29_20h09.27.314,Simcolourproject_2stim_asymm_v5,2020.2.10,Win32,60,61025ae37ef11b136ea224fe,,,,,,,,,1133,-111,-37,1,0,0,response5disk,,2,-14,2,1,0,0,rectangle,-14,2,1,0,0,-14,2,1,0,0,0,60,60,156,1,,,,,,,,
,,,,,,,,,,,,,FF,,,,,,,,1.775,,,,,,,,,,,,,,,,,,,,,,60fdb05e9fae758192d21a0e,61036d31829a4681139ef793,2021-07-29_20h09.27.314,Simcolourproject_2stim_asymm_v5,2020.2.10,Win32,60,61025ae37ef11b136ea224fe,,,,,,,,,1306,-80,-92,1,0,0,response5disk,,3,-5,14,1,0,0,rectangle,-5,14,1,0,0,-5,14,1,0,0,0,61,61,148,1,,,,,,,,
,,,,,,,,,,,,,FF,,,,,,,,0.931,,,,,,,,,,,,,,,,,,,,,,60fdb05e9fae758192d21a0e,61036d31829a4681139ef793,2021-07-29_20h09.27.314,Simcolourproject_2stim_asymm_v5,2020.2.10,Win32,60,61025ae37ef11b136ea224fe,,,,,,,,,1557,41,78,1,0,0,response1disk,,7,16,-4,1,0,0,rectangle,16,-4,1,0,0,16,-4,1,0,0,0,62,62,74,1,,,,,,,,
,,,,,,,,,,,,,FF,,,,,,,,1.394,,,,,,,,,,,,,,,,,,,,,,60fdb05e9fae758192d21a0e,61036d31829a4681139ef793,2021-07-29_20h09.27.314,Simcolourproject_2stim_asymm_v5,2020.2.10,Win32,60,61025ae37ef11b136ea224fe,,,,,,,,,823,103,-44,1,0,0,response3disk,,5,8,-11,1,0,0,rectangle,8,-11,1,0,0,8,-11,1,0,0,0,63,63,85,1,,,,,,,,
,,,,,,,,,,,,,FF,,,,,,,,1.005,,,,,,,,,,,,,,,,,,,,,,60fdb05e9fae758192d21a0e,61036d31829a4681139ef793,2021-07-29_20h09.27.314,Simcolourproject_2stim_asymm_v5,2020.2.10,Win32,60,61025ae37ef11b136ea224fe,,,,,,,,,3741,-120,74,1,0,0,response7disk,,1,6,-13,1,0,0,rectangle,6,-13,1,0,0,6,-13,1,0,0,0,64,64,144,1,,,,,,,,
,,,,,,,,,,,,,FF,,,,,,,,1.345,,,,,,,,,,,,,,,,,,,,,,60fdb05e9fae758192d21a0e,61036d31829a4681139ef793,2021-07-29_20h09.27.314,Simcolourproject_2stim_asymm_v5,2020.2.10,Win32,60,61025ae37ef11b136ea224fe,,,,,,,,,2771,46,-89,1,0,0,response3disk,,4,11,22,1,0,0,rectangle,11,22,1,0,0,11,22,1,0,0,0,65,65,155,1,,,,,,,,
,,,,,,,,,,,,,FF,,,,,,,,1.932,,,,,,,,,,,,,,,,,,,,,,60fdb05e9fae758192d21a0e,61036d31829a4681139ef793,2021-07-29_20h09.27.314,Simcolourproject_2stim_asymm_v5,2020.2.10,Win32,60,61025ae37ef11b136ea224fe,,,,,,,,,4346,51,-82,1,0,0,response3disk,,4,7,1,1,0,0,rectangle,7,1,1,0,0,7,1,1,0,0,0,66,66,101,1,,,,,,,,
,,,,,,,,,,,,,FF,,,,,,,,0.915,,,,,,,,,,,,,,,,,,,,,,60fdb05e9fae758192d21a0e,61036d31829a4681139ef793,2021-07-29_20h09.27.314,Simcolourproject_2stim_asymm_v5,2020.2.10,Win32,60,61025ae37ef11b136ea224fe,,,,,,,,,2777,-51,-75,1,0,0,response5disk,,3,-14,-2,1,0,0,rectangle,-14,-2,1,0,0,-14,-2,1,0,0,0,67,67,19,1,,,,,,,,
,,,,,,,,,,,,,FF,,,,,,,,2.175,,,,,,,,,,,,,,,,,,,,,,60fdb05e9fae758192d21a0e,61036d31829a4681139ef793,2021-07-29_20h09.27.314,Simcolourproject_2stim_asymm_v5,2020.2.10,Win32,60,61025ae37ef11b136ea224fe,,,,,,,,,1237,48,103,1,0,0,response1disk,,7,19,-2,1,0,0,rectangle,19,-2,1,0,0,19,-2,1,0,0,0,68,68,25,1,,,,,,,,
,,,,,,,,,,,,,FF,,,,,,,,0.954,,,,,,,,,,,,,,,,,,,,,,60fdb05e9fae758192d21a0e,61036d31829a4681139ef793,2021-07-29_20h09.27.314,Simcolourproject_2stim_asymm_v5,2020.2.10,Win32,60,61025ae37ef11b136ea224fe,,,,,,,,,1886,-71,117,1,0,0,response7disk,,0,-15,12,1,0,0,rectangle,-15,12,1,0,0,-15,12,1,0,0,0,69,69,67,1,,,,,,,,
,,,,,,,,,,,,,FF,,,,,,,,1.301,,,,,,,,,,,,,,,,,,,,,,60fdb05e9fae758192d21a0e,61036d31829a4681139ef793,2021-07-29_20h09.27.314,Simcolourproject_2stim_asymm_v5,2020.2.10,Win32,60,61025ae37ef11b136ea224fe,,,,,,,,,4029,-108,-50,1,0,0,response5disk,,2,0,4,1,0,0,rectangle,0,4,1,0,0,0,4,1,0,0,0,70,70,42,1,,,,,,,,
,,,,,,,,,,,,,FF,,,,,,,,1.451,,,,,,,,,,,,,,,,,,,,,,60fdb05e9fae758192d21a0e,61036d31829a4681139ef793,2021-07-29_20h09.27.314,Simcolourproject_2stim_asymm_v5,2020.2.10,Win32,60,61025ae37ef11b136ea224fe,,,,,,,,,2907,23,-112,1,0,0,response3disk,,4,3,4,1,0,0,rectangle,3,4,1,0,0,3,4,1,0,0,0,71,71,109,1,,,,,,,,
,,,,,,,,,,,,,FF,,,,,,,,2.401,,,,,,,,,,,,,,,,,,,,,,60fdb05e9fae758192d21a0e,61036d31829a4681139ef793,2021-07-29_20h09.27.314,Simcolourproject_2stim_asymm_v5,2020.2.10,Win32,60,61025ae37ef11b136ea224fe,,,,,,,,,3934,53,-99,1,0,0,response3disk,,4,-1,7,1,0,0,rectangle,-1,7,1,0,0,-1,7,1,0,0,0,72,72,73,1,,,,,,,,
,,,,,,,,,,,,,FF,,,,,,,,2.947,,,,,,,,,,,,,,,,,,,,,,60fdb05e9fae758192d21a0e,61036d31829a4681139ef793,2021-07-29_20h09.27.314,Simcolourproject_2stim_asymm_v5,2020.2.10,Win32,60,61025ae37ef11b136ea224fe,,,,,,,,,468,30,-103,1,0,0,response3disk,,4,-1,6,1,0,0,rectangle,-1,6,1,0,0,-1,6,1,0,0,0,73,73,26,1,,,,,,,,
,,,,,,,,,,,,,FF,,,,,,,,1.365,,,,,,,,,,,,,,,,,,,,,,60fdb05e9fae758192d21a0e,61036d31829a4681139ef793,2021-07-29_20h09.27.314,Simcolourproject_2stim_asymm_v5,2020.2.10,Win32,60,61025ae37ef11b136ea224fe,,,,,,,,,2985,-105,-41,1,0,0,response5disk,,2,-1,2,1,0,0,rectangle,-1,2,1,0,0,-1,2,1,0,0,0,74,74,23,1,,,,,,,,
,,,,,,,,,,,,,FF,,,,,,,,2.402,,,,,,,,,,,,,,,,,,,,,,60fdb05e9fae758192d21a0e,61036d31829a4681139ef793,2021-07-29_20h09.27.314,Simcolourproject_2stim_asymm_v5,2020.2.10,Win32,60,61025ae37ef11b136ea224fe,,,,,,,,,600,107,-44,1,0,0,response3disk,,5,6,6,1,0,0,rectangle,6,6,1,0,0,6,6,1,0,0,0,75,75,30,1,,,,,,,,
,,,,,,,,,,,,,FF,,,,,,,,1.304,,,,,,,,,,,,,,,,,,,,,,60fdb05e9fae758192d21a0e,61036d31829a4681139ef793,2021-07-29_20h09.27.314,Simcolourproject_2stim_asymm_v5,2020.2.10,Win32,60,61025ae37ef11b136ea224fe,,,,,,,,,4261,53,93,1,0,0,response1disk,,7,0,3,1,0,0,rectangle,0,3,1,0,0,0,3,1,0,0,0,76,76,78,1,,,,,,,,
,,,,,,,,,,,,,FF,,,,,,,,1.997,,,,,,,,,,,,,,,,,,,,,,60fdb05e9fae758192d21a0e,61036d31829a4681139ef793,2021-07-29_20h09.27.314,Simcolourproject_2stim_asymm_v5,2020.2.10,Win32,60,61025ae37ef11b136ea224fe,,,,,,,,,115,-38,-76,1,0,0,response5disk,,3,-3,-2,1,0,0,rectangle,-3,-2,1,0,0,-3,-2,1,0,0,0,77,77,72,1,,,,,,,,
,,,,,,,,,,,,,FF,,,,,,,,1.045,,,,,,,,,,,,,,,,,,,,,,60fdb05e9fae758192d21a0e,61036d31829a4681139ef793,2021-07-29_20h09.27.314,Simcolourproject_2stim_asymm_v5,2020.2.10,Win32,60,61025ae37ef11b136ea224fe,,,,,,,,,1933,43,101,1,0,0,response1disk,,7,-1,3,1,0,0,rectangle,-1,3,1,0,0,-1,3,1,0,0,0,78,78,61,1,,,,,,,,
,,,,,,,,,,,,,FF,,,,,,,,2.551,,,,,,,,,,,,,,,,,,,,,,60fdb05e9fae758192d21a0e,61036d31829a4681139ef793,2021-07-29_20h09.27.314,Simcolourproject_2stim_asymm_v5,2020.2.10,Win32,60,61025ae37ef11b136ea224fe,,,,,,,,,4061,-51,-104,1,0,0,response5disk,,3,-11,5,1,0,0,rectangle,-11,5,1,0,0,-11,5,1,0,0,0,79,79,56,1,,,,,,,,
,,,,,,,,,,,,,FF,,,,,,,,1.294,,,,,,,,,,,,,,,,,,,,,,60fdb05e9fae758192d21a0e,61036d31829a4681139ef793,2021-07-29_20h09.27.314,Simcolourproject_2stim_asymm_v5,2020.2.10,Win32,60,61025ae37ef11b136ea224fe,,,,,,,,,3339,-110,-39,1,0,0,response5disk,,2,-1,-4,1,0,0,rectangle,-1,-4,1,0,0,-1,-4,1,0,0,0,80,80,33,1,,,,,,,,
,,,,,,,,,,,,,FF,,,,,,,,2.004,,,,,,,,,,,,,,,,,,,,,,60fdb05e9fae758192d21a0e,61036d31829a4681139ef793,2021-07-29_20h09.27.314,Simcolourproject_2stim_asymm_v5,2020.2.10,Win32,60,61025ae37ef11b136ea224fe,,,,,,,,,4088,40,-112,1,0,0,response3disk,,4,6,-8,1,0,0,rectangle,6,-8,1,0,0,6,-8,1,0,0,0,81,81,89,1,,,,,,,,
,,,,,,,,,,,,,FF,,,,,,,,1.056,,,,,,,,,,,,,,,,,,,,,,60fdb05e9fae758192d21a0e,61036d31829a4681139ef793,2021-07-29_20h09.27.314,Simcolourproject_2stim_asymm_v5,2020.2.10,Win32,60,61025ae37ef11b136ea224fe,,,,,,,,,717,-55,122,1,0,0,response7disk,,0,0,10,1,0,0,rectangle,0,10,1,0,0,0,10,1,0,0,0,82,82,50,1,,,,,,,,
,,,,,,,,,,,,,FF,,,,,,,,0.903,,,,,,,,,,,,,,,,,,,,,,60fdb05e9fae758192d21a0e,61036d31829a4681139ef793,2021-07-29_20h09.27.314,Simcolourproject_2stim_asymm_v5,2020.2.10,Win32,60,61025ae37ef11b136ea224fe,,,,,,,,,2191,31,121,1,0,0,response1disk,,7,-14,7,1,0,0,rectangle,-14,7,1,0,0,-14,7,1,0,0,0,83,83,41,1,,,,,,,,
,,,,,,,,,,,,,FF,,,,,,,,1.358,,,,,,,,,,,,,,,,,,,,,,60fdb05e9fae758192d21a0e,61036d31829a4681139ef793,2021-07-29_20h09.27.314,Simcolourproject_2stim_asymm_v5,2020.2.10,Win32,60,61025ae37ef11b136ea224fe,,,,,,,,,3643,97,38,1,0,0,response1disk,,6,-22,-4,1,0,0,rectangle,-22,-4,1,0,0,-22,-4,1,0,0,0,84,84,146,1,,,,,,,,
,,,,,,,,,,,,,FF,,,,,,,,0.826,,,,,,,,,,,,,,,,,,,,,,60fdb05e9fae758192d21a0e,61036d31829a4681139ef793,2021-07-29_20h09.27.314,Simcolourproject_2stim_asymm_v5,2020.2.10,Win32,60,61025ae37ef11b136ea224fe,,,,,,,,,1938,49,112,1,0,0,response1disk,,7,-11,-10,1,0,0,rectangle,-11,-10,1,0,0,-11,-10,1,0,0,0,85,85,62,1,,,,,,,,
,,,,,,,,,,,,,FF,,,,,,,,1.782,,,,,,,,,,,,,,,,,,,,,,60fdb05e9fae758192d21a0e,61036d31829a4681139ef793,2021-07-29_20h09.27.314,Simcolourproject_2stim_asymm_v5,2020.2.10,Win32,60,61025ae37ef11b136ea224fe,,,,,,,,,2020,108,58,1,0,0,response1disk,,6,-1,6,1,0,0,rectangle,-1,6,1,0,0,-1,6,1,0,0,0,86,86,115,1,,,,,,,,
,,,,,,,,,,,,,FF,,,,,,,,0.924,,,,,,,,,,,,,,,,,,,,,,60fdb05e9fae758192d21a0e,61036d31829a4681139ef793,2021-07-29_20h09.27.314,Simcolourproject_2stim_asymm_v5,2020.2.10,Win32,60,61025ae37ef11b136ea224fe,,,,,,,,,2443,39,109,1,0,0,response1disk,,7,-7,9,1,0,0,rectangle,-7,9,1,0,0,-7,9,1,0,0,0,87,87,47,1,,,,,,,,
,,,,,,,,,,,,,FF,,,,,,,,0.816,,,,,,,,,,,,,,,,,,,,,,60fdb05e9fae758192d21a0e,61036d31829a4681139ef793,2021-07-29_20h09.27.314,Simcolourproject_2stim_asymm_v5,2020.2.10,Win32,60,61025ae37ef11b136ea224fe,,,,,,,,,4332,54,116,1,0,0,response1disk,,7,4,4,1,0,0,rectangle,4,4,1,0,0,4,4,1,0,0,0,88,88,11,1,,,,,,,,
,,,,,,,,,,,,,FF,,,,,,,,2.446,,,,,,,,,,,,,,,,,,,,,,60fdb05e9fae758192d21a0e,61036d31829a4681139ef793,2021-07-29_20h09.27.314,Simcolourproject_2stim_asymm_v5,2020.2.10,Win32,60,61025ae37ef11b136ea224fe,,,,,,,,,4294,-61,-104,1,0,0,response5disk,,3,6,13,1,0,0,rectangle,6,13,1,0,0,6,13,1,0,0,0,89,89,9,1,,,,,,,,
,,,,,,,,,,,,,FF,,,,,,,,1.062,,,,,,,,,,,,,,,,,,,,,,60fdb05e9fae758192d21a0e,61036d31829a4681139ef793,2021-07-29_20h09.27.314,Simcolourproject_2stim_asymm_v5,2020.2.10,Win32,60,61025ae37ef11b136ea224fe,,,,,,,,,3698,65,123,1,0,0,response1disk,,7,-4,8,1,0,0,rectangle,-4,8,1,0,0,-4,8,1,0,0,0,90,90,123,1,,,,,,,,
,,,,,,,,,,,,,FF,,,,,,,,0.823,,,,,,,,,,,,,,,,,,,,,,60fdb05e9fae758192d21a0e,61036d31829a4681139ef793,2021-07-29_20h09.27.314,Simcolourproject_2stim_asymm_v5,2020.2.10,Win32,60,61025ae37ef11b136ea224fe,,,,,,,,,315,35,120,1,0,0,response1disk,,7,-15,-11,1,0,0,rectangle,-53,-109,1,0,0,7,0,1,0,0,0,91,91,7,1,,response5disk_3,TRUE,3,3,"[253,123,191,294,271,127,260,264,198,133,304,27,113,92,13,109,242,222,195,196]",2.095,rectangle
,,,,,,,,,,,,,FF,,,,,,,,2.521,,,,,,,,,,,,,,,,,,,,,,60fdb05e9fae758192d21a0e,61036d31829a4681139ef793,2021-07-29_20h09.27.314,Simcolourproject_2stim_asymm_v5,2020.2.10,Win32,60,61025ae37ef11b136ea224fe,,,,,,,,,372,-52,-122,1,0,0,response5disk,,3,-3,0,1,0,0,rectangle,-3,0,1,0,0,-3,0,1,0,0,0,92,92,113,1,,,,,,,,
,,,,,,,,,,,,,FF,,,,,,,,0.812,,,,,,,,,,,,,,,,,,,,,,60fdb05e9fae758192d21a0e,61036d31829a4681139ef793,2021-07-29_20h09.27.314,Simcolourproject_2stim_asymm_v5,2020.2.10,Win32,60,61025ae37ef11b136ea224fe,,,,,,,,,1521,-65,109,1,0,0,response7disk,,0,-16,9,1,0,0,rectangle,-16,9,1,0,0,-16,9,1,0,0,0,93,93,91,1,,,,,,,,
,,,,,,,,,,,,,FF,,,,,,,,1.383,,,,,,,,,,,,,,,,,,,,,,60fdb05e9fae758192d21a0e,61036d31829a4681139ef793,2021-07-29_20h09.27.314,Simcolourproject_2stim_asymm_v5,2020.2.10,Win32,60,61025ae37ef11b136ea224fe,,,,,,,,,3027,27,94,1,0,0,response1disk,,7,-20,-2,1,0,0,rectangle,-20,-2,1,0,0,-20,-2,1,0,0,0,94,94,40,1,,,,,,,,
,,,,,,,,,,,,,FF,,,,,,,,1.076,,,,,,,,,,,,,,,,,,,,,,60fdb05e9fae758192d21a0e,61036d31829a4681139ef793,2021-07-29_20h09.27.314,Simcolourproject_2stim_asymm_v5,2020.2.10,Win32,60,61025ae37ef11b136ea224fe,,,,,,,,,3867,43,121,1,0,0,response1disk,,7,-18,1,1,0,0,rectangle,-18,1,1,0,0,-18,1,1,0,0,0,95,95,4,1,,,,,,,,
,,,,,,,,,,,,,FF,,,,,,,,1.004,,,,,,,,,,,,,,,,,,,,,,60fdb05e9fae758192d21a0e,61036d31829a4681139ef793,2021-07-29_20h09.27.314,Simcolourproject_2stim_asymm_v5,2020.2.10,Win32,60,61025ae37ef11b136ea224fe,,,,,,,,,1685,-106,-42,1,0,0,response5disk,,2,-11,-3,1,0,0,rectangle,-11,-3,1,0,0,-11,-3,1,0,0,0,96,96,95,1,,,,,,,,
,,,,,,,,,,,,,FF,,,,,,,,0.874,,,,,,,,,,,,,,,,,,,,,,60fdb05e9fae758192d21a0e,61036d31829a4681139ef793,2021-07-29_20h09.27.314,Simcolourproject_2stim_asymm_v5,2020.2.10,Win32,60,61025ae37ef11b136ea224fe,,,,,,,,,688,32,86,1,0,0,response1disk,,7,19,7,1,0,0,rectangle,19,7,1,0,0,19,7,1,0,0,0,97,97,93,1,,,,,,,,
,,,,,,,,,,,,,FF,,,,,,,,2.121,,,,,,,,,,,,,,,,,,,,,,60fdb05e9fae758192d21a0e,61036d31829a4681139ef793,2021-07-29_20h09.27.314,Simcolourproject_2stim_asymm_v5,2020.2.10,Win32,60,61025ae37ef11b136ea224fe,,,,,,,,,3569,38,-93,1,0,0,response3disk,,4,-4,1,1,0,0,rectangle,-4,1,1,0,0,-4,1,1,0,0,0,98,98,118,1,,,,,,,,
,,,,,,,,,,,,,FF,,,,,,,,0.995,,,,,,,,,,,,,,,,,,,,,,60fdb05e9fae758192d21a0e,61036d31829a4681139ef793,2021-07-29_20h09.27.314,Simcolourproject_2stim_asymm_v5,2020.2.10,Win32,60,61025ae37ef11b136ea224fe,,,,,,,,,1923,66,121,1,0,0,response1disk,,7,-13,-10,1,0,0,rectangle,-13,-10,1,0,0,-13,-10,1,0,0,0,99,99,159,1,,,,,,,,
,,,,,,,,,,,,,FF,,,,,,,,1.328,,,,,,,,,,,,,,,,,,,,,,60fdb05e9fae758192d21a0e,61036d31829a4681139ef793,2021-07-29_20h09.27.314,Simcolourproject_2stim_asymm_v5,2020.2.10,Win32,60,61025ae37ef11b136ea224fe,,,,,,,,,379,35,103,1,0,0,response1disk,,7,-2,-3,1,0,0,rectangle,-2,-3,1,0,0,-2,-3,1,0,0,0,100,100,53,1,,,,,,,,
,,,,,,,,,,,,,FF,,,,,,,,1.197,,,,,,,,,,,,,,,,,,,,,,60fdb05e9fae758192d21a0e,61036d31829a4681139ef793,2021-07-29_20h09.27.314,Simcolourproject_2stim_asymm_v5,2020.2.10,Win32,60,61025ae37ef11b136ea224fe,,,,,,,,,3177,46,115,1,0,0,response1disk,,7,-14,-7,1,0,0,rectangle,-14,-7,1,0,0,-14,-7,1,0,0,0,101,101,46,1,,,,,,,,
,,,,,,,,,,,,,FF,,,,,,,,1.105,,,,,,,,,,,,,,,,,,,,,,60fdb05e9fae758192d21a0e,61036d31829a4681139ef793,2021-07-29_20h09.27.314,Simcolourproject_2stim_asymm_v5,2020.2.10,Win32,60,61025ae37ef11b136ea224fe,,,,,,,,,1430,70,112,1,0,0,response1disk,,7,-7,-8,1,0,0,rectangle,-7,-8,1,0,0,-7,-8,1,0,0,0,102,102,126,1,,,,,,,,
,,,,,,,,,,,,,FF,,,,,,,,0.91,,,,,,,,,,,,,,,,,,,,,,60fdb05e9fae758192d21a0e,61036d31829a4681139ef793,2021-07-29_20h09.27.314,Simcolourproject_2stim_asymm_v5,2020.2.10,Win32,60,61025ae37ef11b136ea224fe,,,,,,,,,949,109,76,1,0,0,response1disk,,6,-13,-3,1,0,0,rectangle,-13,-3,1,0,0,-13,-3,1,0,0,0,103,103,105,1,,,,,,,,
,,,,,,,,,,,,,FF,,,,,,,,1.446,,,,,,,,,,,,,,,,,,,,,,60fdb05e9fae758192d21a0e,61036d31829a4681139ef793,2021-07-29_20h09.27.314,Simcolourproject_2stim_asymm_v5,2020.2.10,Win32,60,61025ae37ef11b136ea224fe,,,,,,,,,2409,104,-56,1,0,0,response3disk,,5,10,-1,1,0,0,rectangle,10,-1,1,0,0,10,-1,1,0,0,0,104,104,58,1,,,,,,,,
,,,,,,,,,,,,,FF,,,,,,,,0.946,,,,,,,,,,,,,,,,,,,,,,60fdb05e9fae758192d21a0e,61036d31829a4681139ef793,2021-07-29_20h09.27.314,Simcolourproject_2stim_asymm_v5,2020.2.10,Win32,60,61025ae37ef11b136ea224fe,,,,,,,,,1107,52,84,1,0,0,response1disk,,7,15,-9,1,0,0,rectangle,15,-9,1,0,0,15,-9,1,0,0,0,105,105,145,1,,,,,,,,
,,,,,,,,,,,,,FF,,,,,,,,1.108,,,,,,,,,,,,,,,,,,,,,,60fdb05e9fae758192d21a0e,61036d31829a4681139ef793,2021-07-29_20h09.27.314,Simcolourproject_2stim_asymm_v5,2020.2.10,Win32,60,61025ae37ef11b136ea224fe,,,,,,,,,902,107,42,1,0,0,response1disk,,6,-11,-2,1,0,0,rectangle,-11,-2,1,0,0,-11,-2,1,0,0,0,106,106,106,1,,,,,,,,
,,,,,,,,,,,,,FF,,,,,,,,2.962,,,,,,,,,,,,,,,,,,,,,,60fdb05e9fae758192d21a0e,61036d31829a4681139ef793,2021-07-29_20h09.27.314,Simcolourproject_2stim_asymm_v5,2020.2.10,Win32,60,61025ae37ef11b136ea224fe,,,,,,,,,1662,100,39,1,0,0,response1disk,,6,-8,5,1,0,0,rectangle,-8,5,1,0,0,-8,5,1,0,0,0,107,107,88,1,,,,,,,,
,,,,,,,,,,,,,FF,,,,,,,,1.009,,,,,,,,,,,,,,,,,,,,,,60fdb05e9fae758192d21a0e,61036d31829a4681139ef793,2021-07-29_20h09.27.314,Simcolourproject_2stim_asymm_v5,2020.2.10,Win32,60,61025ae37ef11b136ea224fe,,,,,,,,,1452,-84,-36,1,0,0,response5disk,,2,1,8,1,0,0,rectangle,35,113,1,0,0,-14,-4,1,0,0,0,108,108,117,1,,response1disk_3,TRUE,7,7,"[253,123,191,294,271,127,260,264,198,133,304,27,113,92,13,109,242,222,195,196]",1.919,rectangle
,,,,,,,,,,,,,FF,,,,,,,,2.664,,,,,,,,,,,,,,,,,,,,,,60fdb05e9fae758192d21a0e,61036d31829a4681139ef793,2021-07-29_20h09.27.314,Simcolourproject_2stim_asymm_v5,2020.2.10,Win32,60,61025ae37ef11b136ea224fe,,,,,,,,,2241,103,-57,1,0,0,response3disk,,5,-8,8,1,0,0,rectangle,-8,8,1,0,0,-8,8,1,0,0,0,109,109,71,1,,,,,,,,
,,,,,,,,,,,,,FF,,,,,,,,0.864,,,,,,,,,,,,,,,,,,,,,,60fdb05e9fae758192d21a0e,61036d31829a4681139ef793,2021-07-29_20h09.27.314,Simcolourproject_2stim_asymm_v5,2020.2.10,Win32,60,61025ae37ef11b136ea224fe,,,,,,,,,2273,57,101,1,0,0,response1disk,,7,-9,-11,1,0,0,rectangle,-9,-11,1,0,0,-9,-11,1,0,0,0,110,110,119,1,,,,,,,,
,,,,,,,,,,,,,FF,,,,,,,,1.497,,,,,,,,,,,,,,,,,,,,,,60fdb05e9fae758192d21a0e,61036d31829a4681139ef793,2021-07-29_20h09.27.314,Simcolourproject_2stim_asymm_v5,2020.2.10,Win32,60,61025ae37ef11b136ea224fe,,,,,,,,,2504,61,114,1,0,0,response1disk,,7,-14,-2,1,0,0,rectangle,-14,-2,1,0,0,-14,-2,1,0,0,0,111,111,6,1,,,,,,,,
,,,,,,,,,,,,,FF,,,,,,,,1.208,,,,,,,,,,,,,,,,,,,,,,60fdb05e9fae758192d21a0e,61036d31829a4681139ef793,2021-07-29_20h09.27.314,Simcolourproject_2stim_asymm_v5,2020.2.10,Win32,60,61025ae37ef11b136ea224fe,,,,,,,,,1304,-91,-40,1,0,0,response5disk,,2,-10,-5,1,0,0,rectangle,100,-48,1,0,0,-6,1,1,0,0,0,112,112,97,1,,response3disk_3,TRUE,5,5,"[253,123,191,294,271,127,260,264,198,133,304,27,113,92,13,109,242,222,195,196]",1.665,rectangle
,,,,,,,,,,,,,FF,,,,,,,,1.613,,,,,,,,,,,,,,,,,,,,,,60fdb05e9fae758192d21a0e,61036d31829a4681139ef793,2021-07-29_20h09.27.314,Simcolourproject_2stim_asymm_v5,2020.2.10,Win32,60,61025ae37ef11b136ea224fe,,,,,,,,,1892,-118,-34,1,0,0,response5disk,,2,-18,5,1,0,0,rectangle,-18,5,1,0,0,-18,5,1,0,0,0,113,113,147,1,,,,,,,,
,,,,,,,,,,,,,FF,,,,,,,,0.881,,,,,,,,,,,,,,,,,,,,,,60fdb05e9fae758192d21a0e,61036d31829a4681139ef793,2021-07-29_20h09.27.314,Simcolourproject_2stim_asymm_v5,2020.2.10,Win32,60,61025ae37ef11b136ea224fe,,,,,,,,,3180,59,110,1,0,0,response1disk,,7,-8,-2,1,0,0,rectangle,-8,-2,1,0,0,-8,-2,1,0,0,0,114,114,134,1,,,,,,,,
,,,,,,,,,,,,,FF,,,,,,,,1.097,,,,,,,,,,,,,,,,,,,,,,60fdb05e9fae758192d21a0e,61036d31829a4681139ef793,2021-07-29_20h09.27.314,Simcolourproject_2stim_asymm_v5,2020.2.10,Win32,60,61025ae37ef11b136ea224fe,,,,,,,,,701,30,101,1,0,0,response1disk,,7,-5,-2,1,0,0,rectangle,-5,-2,1,0,0,-5,-2,1,0,0,0,115,115,94,1,,,,,,,,
,,,,,,,,,,,,,FF,,,,,,,,2.603,,,,,,,,,,,,,,,,,,,,,,60fdb05e9fae758192d21a0e,61036d31829a4681139ef793,2021-07-29_20h09.27.314,Simcolourproject_2stim_asymm_v5,2020.2.10,Win32,60,61025ae37ef11b136ea224fe,,,,,,,,,1293,-111,-43,1,0,0,response5disk,,2,25,7,1,0,0,rectangle,25,7,1,0,0,25,7,1,0,0,0,116,116,127,1,,,,,,,,
,,,,,,,,,,,,,FF,,,,,,,,2.199,,,,,,,,,,,,,,,,,,,,,,60fdb05e9fae758192d21a0e,61036d31829a4681139ef793,2021-07-29_20h09.27.314,Simcolourproject_2stim_asymm_v5,2020.2.10,Win32,60,61025ae37ef11b136ea224fe,,,,,,,,,3488,-64,-100,1,0,0,response5disk,,3,-7,-4,1,0,0,rectangle,-7,-4,1,0,0,-7,-4,1,0,0,0,117,117,22,1,,,,,,,,
,,,,,,,,,,,,,FF,,,,,,,,2.706,,,,,,,,,,,,,,,,,,,,,,60fdb05e9fae758192d21a0e,61036d31829a4681139ef793,2021-07-29_20h09.27.314,Simcolourproject_2stim_asymm_v5,2020.2.10,Win32,60,61025ae37ef11b136ea224fe,,,,,,,,,3035,105,37,1,0,0,response1disk,,6,-2,-8,1,0,0,rectangle,-2,-8,1,0,0,-2,-8,1,0,0,0,118,118,45,1,,,,,,,,
,,,,,,,,,,,,,FF,,,,,,,,2.532,,,,,,,,,,,,,,,,,,,,,,60fdb05e9fae758192d21a0e,61036d31829a4681139ef793,2021-07-29_20h09.27.314,Simcolourproject_2stim_asymm_v5,2020.2.10,Win32,60,61025ae37ef11b136ea224fe,,,,,,,,,1584,99,-53,1,0,0,response3disk,,5,-3,-3,1,0,0,rectangle,-3,-3,1,0,0,-3,-3,1,0,0,0,119,119,120,1,,,,,,,,
,,,,,,,,,,,,,FF,,,,,,,,1.42,,,,,,,,,,,,,,,,,,,,,,60fdb05e9fae758192d21a0e,61036d31829a4681139ef793,2021-07-29_20h09.27.314,Simcolourproject_2stim_asymm_v5,2020.2.10,Win32,60,61025ae37ef11b136ea224fe,,,,,,,,,1749,-64,-52,1,0,0,response5disk,,2,-7,5,1,0,0,rectangle,-7,5,1,0,0,-7,5,1,0,0,0,120,120,0,1,,,,,,,,
,,,,,,,,,,,,,FF,,,,,,,,2.14,,,,,,,,,,,,,,,,,,,,,,60fdb05e9fae758192d21a0e,61036d31829a4681139ef793,2021-07-29_20h09.27.314,Simcolourproject_2stim_asymm_v5,2020.2.10,Win32,60,61025ae37ef11b136ea224fe,,,,,,,,,130,54,92,1,0,0,response1disk,,7,4,-4,1,0,0,rectangle,4,-4,1,0,0,4,-4,1,0,0,0,121,121,27,1,,,,,,,,
,,,,,,,,,,,,,FF,,,,,,,,1.252,,,,,,,,,,,,,,,,,,,,,,60fdb05e9fae758192d21a0e,61036d31829a4681139ef793,2021-07-29_20h09.27.314,Simcolourproject_2stim_asymm_v5,2020.2.10,Win32,60,61025ae37ef11b136ea224fe,,,,,,,,,3580,58,120,1,0,0,response1disk,,7,19,15,1,0,0,rectangle,-138,-35,1,0,0,-2,2,1,0,0,0,122,122,132,1,,response5disk_3,TRUE,2,2,"[253,123,191,294,271,127,260,264,198,133,304,27,113,92,13,109,242,222,195,196]",1.334,rectangle
,,,,,,,,,,,,,FF,,,,,,,,1.433,,,,,,,,,,,,,,,,,,,,,,60fdb05e9fae758192d21a0e,61036d31829a4681139ef793,2021-07-29_20h09.27.314,Simcolourproject_2stim_asymm_v5,2020.2.10,Win32,60,61025ae37ef11b136ea224fe,,,,,,,,,2220,-44,-78,1,0,0,response5disk,,3,5,-2,1,0,0,rectangle,5,-2,1,0,0,5,-2,1,0,0,0,123,123,31,1,,,,,,,,
,,,,,,,,,,,,,FF,,,,,,,,1.428,,,,,,,,,,,,,,,,,,,,,,60fdb05e9fae758192d21a0e,61036d31829a4681139ef793,2021-07-29_20h09.27.314,Simcolourproject_2stim_asymm_v5,2020.2.10,Win32,60,61025ae37ef11b136ea224fe,,,,,,,,,4007,51,-101,1,0,0,response3disk,,4,8,-6,1,0,0,rectangle,8,-6,1,0,0,8,-6,1,0,0,0,124,124,8,1,,,,,,,,
,,,,,,,,,,,,,FF,,,,,,,,2.694,,,,,,,,,,,,,,,,,,,,,,60fdb05e9fae758192d21a0e,61036d31829a4681139ef793,2021-07-29_20h09.27.314,Simcolourproject_2stim_asymm_v5,2020.2.10,Win32,60,61025ae37ef11b136ea224fe,,,,,,,,,838,124,-43,1,0,0,response3disk,,5,-13,10,1,0,0,rectangle,-13,10,1,0,0,-13,10,1,0,0,0,125,125,107,1,,,,,,,,
,,,,,,,,,,,,,FF,,,,,,,,1.333,,,,,,,,,,,,,,,,,,,,,,60fdb05e9fae758192d21a0e,61036d31829a4681139ef793,2021-07-29_20h09.27.314,Simcolourproject_2stim_asymm_v5,2020.2.10,Win32,60,61025ae37ef11b136ea224fe,,,,,,,,,2692,53,-81,1,0,0,response3disk,,4,-24,6,1,0,0,rectangle,-110,-42,1,0,0,-4,0,1,0,0,0,126,126,69,1,,response5disk_3,TRUE,2,2,"[253,123,191,294,271,127,260,264,198,133,304,27,113,92,13,109,242,222,195,196]",1.365,rectangle
,,,,,,,,,,,,,FF,,,,,,,,1.249,,,,,,,,,,,,,,,,,,,,,,60fdb05e9fae758192d21a0e,61036d31829a4681139ef793,2021-07-29_20h09.27.314,Simcolourproject_2stim_asymm_v5,2020.2.10,Win32,60,61025ae37ef11b136ea224fe,,,,,,,,,2302,-42,-112,1,0,0,response5disk,,3,-1,-4,1,0,0,rectangle,-1,-4,1,0,0,-1,-4,1,0,0,0,127,127,36,1,,,,,,,,
,,,,,,,,,,,,,FF,,,,,,,,1.23,,,,,,,,,,,,,,,,,,,,,,60fdb05e9fae758192d21a0e,61036d31829a4681139ef793,2021-07-29_20h09.27.314,Simcolourproject_2stim_asymm_v5,2020.2.10,Win32,60,61025ae37ef11b136ea224fe,,,,,,,,,2948,-125,66,1,0,0,response7disk,,1,-2,8,1,0,0,rectangle,-2,8,1,0,0,-2,8,1,0,0,0,128,128,80,1,,,,,,,,
,,,,,,,,,,,,,FF,,,,,,,,50.663,,,,,,,,,,,,,,,,,,,,,,60fdb05e9fae758192d21a0e,61036d31829a4681139ef793,2021-07-29_20h09.27.314,Simcolourproject_2stim_asymm_v5,2020.2.10,Win32,60,61025ae37ef11b136ea224fe,,,,,,,,,1848,28,-97,1,0,0,response3disk,,4,-14,14,1,0,0,rectangle,-14,14,1,0,0,-14,14,1,0,0,0,129,129,68,1,,,,,,,,
,,,,,,,,,,,,,FF,,,,,,,,1.051,,,,,,,,,,,,,,,,,,,,,,60fdb05e9fae758192d21a0e,61036d31829a4681139ef793,2021-07-29_20h09.27.314,Simcolourproject_2stim_asymm_v5,2020.2.10,Win32,60,61025ae37ef11b136ea224fe,,,,,,,,,2709,84,132,1,0,0,response1disk,,7,-8,5,1,0,0,rectangle,-8,5,1,0,0,-8,5,1,0,0,0,130,130,104,1,,,,,,,,
,,,,,,,,,,,,,FF,,,,,,,,1.019,,,,,,,,,,,,,,,,,,,,,,60fdb05e9fae758192d21a0e,61036d31829a4681139ef793,2021-07-29_20h09.27.314,Simcolourproject_2stim_asymm_v5,2020.2.10,Win32,60,61025ae37ef11b136ea224fe,,,,,,,,,3052,-88,-36,1,0,0,response5disk,,2,-3,16,1,0,0,rectangle,-3,16,1,0,0,-3,16,1,0,0,0,131,131,3,1,,,,,,,,
,,,,,,,,,,,,,FF,,,,,,,,0.956,,,,,,,,,,,,,,,,,,,,,,60fdb05e9fae758192d21a0e,61036d31829a4681139ef793,2021-07-29_20h09.27.314,Simcolourproject_2stim_asymm_v5,2020.2.10,Win32,60,61025ae37ef11b136ea224fe,,,,,,,,,3288,55,98,1,0,0,response1disk,,7,-5,0,1,0,0,rectangle,-98,53,1,0,0,13,-9,1,0,0,0,132,132,18,1,,response7disk_3,TRUE,1,1,"[253,123,191,294,271,127,260,264,198,133,304,27,113,92,13,109,242,222,195,196]",1.379,rectangle
,,,,,,,,,,,,,FF,,,,,,,,2.429,,,,,,,,,,,,,,,,,,,,,,60fdb05e9fae758192d21a0e,61036d31829a4681139ef793,2021-07-29_20h09.27.314,Simcolourproject_2stim_asymm_v5,2020.2.10,Win32,60,61025ae37ef11b136ea224fe,,,,,,,,,2048,35,-93,1,0,0,response3disk,,4,-27,11,1,0,0,rectangle,-27,11,1,0,0,-27,11,1,0,0,0,133,133,128,1,,,,,,,,
,,,,,,,,,,,,,FF,,,,,,,,0.923,,,,,,,,,,,,,,,,,,,,,,60fdb05e9fae758192d21a0e,61036d31829a4681139ef793,2021-07-29_20h09.27.314,Simcolourproject_2stim_asymm_v5,2020.2.10,Win32,60,61025ae37ef11b136ea224fe,,,,,,,,,3601,-57,-132,1,0,0,response5disk,,3,-5,10,1,0,0,rectangle,-5,10,1,0,0,-5,10,1,0,0,0,134,134,79,1,,,,,,,,
,,,,,,,,,,,,,FF,,,,,,,,1.516,,,,,,,,,,,,,,,,,,,,,,60fdb05e9fae758192d21a0e,61036d31829a4681139ef793,2021-07-29_20h09.27.314,Simcolourproject_2stim_asymm_v5,2020.2.10,Win32,60,61025ae37ef11b136ea224fe,,,,,,,,,819,98,-48,1,0,0,response3disk,,5,-16,2,1,0,0,rectangle,-16,2,1,0,0,-16,2,1,0,0,0,135,135,15,1,,,,,,,,
,,,,,,,,,,,,,FF,,,,,,,,1.813,,,,,,,,,,,,,,,,,,,,,,60fdb05e9fae758192d21a0e,61036d31829a4681139ef793,2021-07-29_20h09.27.314,Simcolourproject_2stim_asymm_v5,2020.2.10,Win32,60,61025ae37ef11b136ea224fe,,,,,,,,,1853,53,115,1,0,0,response1disk,,7,-27,6,1,0,0,rectangle,-27,6,1,0,0,-27,6,1,0,0,0,136,136,76,1,,,,,,,,
,,,,,,,,,,,,,FF,,,,,,,,0.912,,,,,,,,,,,,,,,,,,,,,,60fdb05e9fae758192d21a0e,61036d31829a4681139ef793,2021-07-29_20h09.27.314,Simcolourproject_2stim_asymm_v5,2020.2.10,Win32,60,61025ae37ef11b136ea224fe,,,,,,,,,4292,48,113,1,0,0,response1disk,,7,-3,1,1,0,0,rectangle,-3,1,1,0,0,-3,1,1,0,0,0,137,137,150,1,,,,,,,,
,,,,,,,,,,,,,FF,,,,,,,,0.967,,,,,,,,,,,,,,,,,,,,,,60fdb05e9fae758192d21a0e,61036d31829a4681139ef793,2021-07-29_20h09.27.314,Simcolourproject_2stim_asymm_v5,2020.2.10,Win32,60,61025ae37ef11b136ea224fe,,,,,,,,,1077,97,-50,1,0,0,response3disk,,5,-21,8,1,0,0,rectangle,-21,8,1,0,0,-21,8,1,0,0,0,138,138,64,1,,,,,,,,
,,,,,,,,,,,,,FF,,,,,,,,1.256,,,,,,,,,,,,,,,,,,,,,,60fdb05e9fae758192d21a0e,61036d31829a4681139ef793,2021-07-29_20h09.27.314,Simcolourproject_2stim_asymm_v5,2020.2.10,Win32,60,61025ae37ef11b136ea224fe,,,,,,,,,2695,101,-46,1,0,0,response3disk,,5,11,-2,1,0,0,rectangle,11,-2,1,0,0,11,-2,1,0,0,0,139,139,84,1,,,,,,,,
,,,,,,,,,,,,,FF,,,,,,,,1.534,,,,,,,,,,,,,,,,,,,,,,60fdb05e9fae758192d21a0e,61036d31829a4681139ef793,2021-07-29_20h09.27.314,Simcolourproject_2stim_asymm_v5,2020.2.10,Win32,60,61025ae37ef11b136ea224fe,,,,,,,,,2299,-124,-55,1,0,0,response5disk,,2,0,2,1,0,0,rectangle,0,2,1,0,0,0,2,1,0,0,0,140,140,17,1,,,,,,,,
,,,,,,,,,,,,,FF,,,,,,,,2.149,,,,,,,,,,,,,,,,,,,,,,60fdb05e9fae758192d21a0e,61036d31829a4681139ef793,2021-07-29_20h09.27.314,Simcolourproject_2stim_asymm_v5,2020.2.10,Win32,60,61025ae37ef11b136ea224fe,,,,,,,,,1308,-101,-43,1,0,0,response5disk,,2,-16,-2,1,0,0,rectangle,-16,-2,1,0,0,-16,-2,1,0,0,0,141,141,65,1,,,,,,,,
,,,,,,,,,,,,,FF,,,,,,,,0.817,,,,,,,,,,,,,,,,,,,,,,60fdb05e9fae758192d21a0e,61036d31829a4681139ef793,2021-07-29_20h09.27.314,Simcolourproject_2stim_asymm_v5,2020.2.10,Win32,60,61025ae37ef11b136ea224fe,,,,,,,,,2094,-139,58,1,0,0,response7disk,,1,-12,7,1,0,0,rectangle,-12,7,1,0,0,-12,7,1,0,0,0,142,142,81,1,,,,,,,,
,,,,,,,,,,,,,FF,,,,,,,,1.079,,,,,,,,,,,,,,,,,,,,,,60fdb05e9fae758192d21a0e,61036d31829a4681139ef793,2021-07-29_20h09.27.314,Simcolourproject_2stim_asymm_v5,2020.2.10,Win32,60,61025ae37ef11b136ea224fe,,,,,,,,,1903,-47,-73,1,0,0,response5disk,,3,-12,4,1,0,0,rectangle,-12,4,1,0,0,-12,4,1,0,0,0,143,143,32,1,,,,,,,,
,,,,,,,,,,,,,FF,,,,,,,,1.346,,,,,,,,,,,,,,,,,,,,,,60fdb05e9fae758192d21a0e,61036d31829a4681139ef793,2021-07-29_20h09.27.314,Simcolourproject_2stim_asymm_v5,2020.2.10,Win32,60,61025ae37ef11b136ea224fe,,,,,,,,,2309,109,-54,1,0,0,response3disk,,5,-22,21,1,0,0,rectangle,-22,21,1,0,0,-22,21,1,0,0,0,144,144,92,1,,,,,,,,
,,,,,,,,,,,,,FF,,,,,,,,1.01,,,,,,,,,,,,,,,,,,,,,,60fdb05e9fae758192d21a0e,61036d31829a4681139ef793,2021-07-29_20h09.27.314,Simcolourproject_2stim_asymm_v5,2020.2.10,Win32,60,61025ae37ef11b136ea224fe,,,,,,,,,3734,69,131,1,0,0,response1disk,,7,-6,7,1,0,0,rectangle,-6,7,1,0,0,-6,7,1,0,0,0,145,145,10,1,,,,,,,,
,,,,,,,,,,,,,FF,,,,,,,,1.648,,,,,,,,,,,,,,,,,,,,,,60fdb05e9fae758192d21a0e,61036d31829a4681139ef793,2021-07-29_20h09.27.314,Simcolourproject_2stim_asymm_v5,2020.2.10,Win32,60,61025ae37ef11b136ea224fe,,,,,,,,,2500,36,107,1,0,0,response1disk,,7,5,16,1,0,0,rectangle,5,16,1,0,0,5,16,1,0,0,0,146,146,13,1,,,,,,,,
,,,,,,,,,,,,,FF,,,,,,,,3.086,,,,,,,,,,,,,,,,,,,,,,60fdb05e9fae758192d21a0e,61036d31829a4681139ef793,2021-07-29_20h09.27.314,Simcolourproject_2stim_asymm_v5,2020.2.10,Win32,60,61025ae37ef11b136ea224fe,,,,,,,,,1470,-41,-108,1,0,0,response5disk,,3,-7,-6,1,0,0,rectangle,-7,-6,1,0,0,-7,-6,1,0,0,0,147,147,86,1,,,,,,,,
,,,,,,,,,,,,,FF,,,,,,,,0.95,,,,,,,,,,,,,,,,,,,,,,60fdb05e9fae758192d21a0e,61036d31829a4681139ef793,2021-07-29_20h09.27.314,Simcolourproject_2stim_asymm_v5,2020.2.10,Win32,60,61025ae37ef11b136ea224fe,,,,,,,,,4181,-60,111,1,0,0,response7disk,,0,-24,13,1,0,0,rectangle,-24,13,1,0,0,-24,13,1,0,0,0,148,148,37,1,,,,,,,,
,,,,,,,,,,,,,FF,,,,,,,,0.908,,,,,,,,,,,,,,,,,,,,,,60fdb05e9fae758192d21a0e,61036d31829a4681139ef793,2021-07-29_20h09.27.314,Simcolourproject_2stim_asymm_v5,2020.2.10,Win32,60,61025ae37ef11b136ea224fe,,,,,,,,,31,51,87,1,0,0,response1disk,,7,16,1,1,0,0,rectangle,16,1,1,0,0,16,1,1,0,0,0,149,149,59,1,,,,,,,,
,,,,,,,,,,,,,FF,,,,,,,,1.11,,,,,,,,,,,,,,,,,,,,,,60fdb05e9fae758192d21a0e,61036d31829a4681139ef793,2021-07-29_20h09.27.314,Simcolourproject_2stim_asymm_v5,2020.2.10,Win32,60,61025ae37ef11b136ea224fe,,,,,,,,,2979,98,-44,1,0,0,response3disk,,5,6,11,1,0,0,rectangle,6,11,1,0,0,6,11,1,0,0,0,150,150,129,1,,,,,,,,
,,,,,,,,,,,,,FF,,,,,,,,0.916,,,,,,,,,,,,,,,,,,,,,,60fdb05e9fae758192d21a0e,61036d31829a4681139ef793,2021-07-29_20h09.27.314,Simcolourproject_2stim_asymm_v5,2020.2.10,Win32,60,61025ae37ef11b136ea224fe,,,,,,,,,2934,-75,-21,1,0,0,response5disk,,2,-26,-3,1,0,0,rectangle,-26,-3,1,0,0,-26,-3,1,0,0,0,151,151,98,1,,,,,,,,
,,,,,,,,,,,,,FF,,,,,,,,0.789,,,,,,,,,,,,,,,,,,,,,,60fdb05e9fae758192d21a0e,61036d31829a4681139ef793,2021-07-29_20h09.27.314,Simcolourproject_2stim_asymm_v5,2020.2.10,Win32,60,61025ae37ef11b136ea224fe,,,,,,,,,2098,-107,40,1,0,0,response7disk,,1,-15,-1,1,0,0,rectangle,-15,-1,1,0,0,-15,-1,1,0,0,0,152,152,60,1,,,,,,,,
,,,,,,,,,,,,,FF,,,,,,,,2.138,,,,,,,,,,,,,,,,,,,,,,60fdb05e9fae758192d21a0e,61036d31829a4681139ef793,2021-07-29_20h09.27.314,Simcolourproject_2stim_asymm_v5,2020.2.10,Win32,60,61025ae37ef11b136ea224fe,,,,,,,,,2511,56,108,1,0,0,response1disk,,7,11,8,1,0,0,rectangle,11,8,1,0,0,11,8,1,0,0,0,153,153,108,1,,,,,,,,
,,,,,,,,,,,,,FF,,,,,,,,1.19,,,,,,,,,,,,,,,,,,,,,,60fdb05e9fae758192d21a0e,61036d31829a4681139ef793,2021-07-29_20h09.27.314,Simcolourproject_2stim_asymm_v5,2020.2.10,Win32,60,61025ae37ef11b136ea224fe,,,,,,,,,3199,40,112,1,0,0,response1disk,,7,-12,-6,1,0,0,rectangle,-12,-6,1,0,0,-12,-6,1,0,0,0,154,154,96,1,,,,,,,,
,,,,,,,,,,,,,FF,,,,,,,,2.41,,,,,,,,,,,,,,,,,,,,,,60fdb05e9fae758192d21a0e,61036d31829a4681139ef793,2021-07-29_20h09.27.314,Simcolourproject_2stim_asymm_v5,2020.2.10,Win32,60,61025ae37ef11b136ea224fe,,,,,,,,,1517,120,-36,1,0,0,response3disk,,5,-19,7,1,0,0,rectangle,-19,7,1,0,0,-19,7,1,0,0,0,155,155,152,1,,,,,,,,
,,,,,,,,,,,,,FF,,,,,,,,0.826,,,,,,,,,,,,,,,,,,,,,,60fdb05e9fae758192d21a0e,61036d31829a4681139ef793,2021-07-29_20h09.27.314,Simcolourproject_2stim_asymm_v5,2020.2.10,Win32,60,61025ae37ef11b136ea224fe,,,,,,,,,4095,-41,96,1,0,0,response7disk,,0,-19,0,1,0,0,rectangle,-19,0,1,0,0,-19,0,1,0,0,0,156,156,151,1,,,,,,,,
,,,,,,,,,,,,,FF,,,,,,,,1.337,,,,,,,,,,,,,,,,,,,,,,60fdb05e9fae758192d21a0e,61036d31829a4681139ef793,2021-07-29_20h09.27.314,Simcolourproject_2stim_asymm_v5,2020.2.10,Win32,60,61025ae37ef11b136ea224fe,,,,,,,,,4223,-105,27,1,0,0,response7disk,,1,1,-7,1,0,0,rectangle,1,-7,1,0,0,1,-7,1,0,0,0,157,157,52,1,,,,,,,,
,,,,,,,,,,,,,FF,,,,,,,,1.042,,,,,,,,,,,,,,,,,,,,,,60fdb05e9fae758192d21a0e,61036d31829a4681139ef793,2021-07-29_20h09.27.314,Simcolourproject_2stim_asymm_v5,2020.2.10,Win32,60,61025ae37ef11b136ea224fe,,,,,,,,,712,28,-91,1,0,0,response3disk,,4,-3,-4,1,0,0,rectangle,-3,-4,1,0,0,-3,-4,1,0,0,0,158,158,136,1,,,,,,,,
,,,,,,,,,,,,,FF,,,,,,,,0.915,,,,,,,,,,,,,,,,,,,,,,60fdb05e9fae758192d21a0e,61036d31829a4681139ef793,2021-07-29_20h09.27.314,Simcolourproject_2stim_asymm_v5,2020.2.10,Win32,60,61025ae37ef11b136ea224fe,,,,,,,,,1468,-71,-127,1,0,0,response5disk,,3,-13,-1,1,0,0,rectangle,-13,-1,1,0,0,-13,-1,1,0,0,0,159,159,131,1,,,,,,,,
,,,,,,,,,,,,,FF,,,,,,,,0.84,,,,,,,,,,,,,,,,,,,,,,60fdb05e9fae758192d21a0e,61036d31829a4681139ef793,2021-07-29_20h09.27.314,Simcolourproject_2stim_asymm_v5,2020.2.10,Win32,60,61025ae37ef11b136ea224fe,,,,,,,,,397,44,121,1,0,0,response1disk,,7,10,6,1,0,0,rectangle,10,6,1,0,0,10,6,1,0,0,1,0,160,99,1,,,,,,,,
,,,,,,,,,,,,,FF,,,,,,,,0.791,,,,,,,,,,,,,,,,,,,,,,60fdb05e9fae758192d21a0e,61036d31829a4681139ef793,2021-07-29_20h09.27.314,Simcolourproject_2stim_asymm_v5,2020.2.10,Win32,60,61025ae37ef11b136ea224fe,,,,,,,,,1,-83,48,1,0,0,response7disk,,1,14,-2,1,0,0,rectangle,14,-2,1,0,0,14,-2,1,0,0,1,1,161,154,1,,,,,,,,
,,,,,,,,,,,,,FF,,,,,,,,0.858,,,,,,,,,,,,,,,,,,,,,,60fdb05e9fae758192d21a0e,61036d31829a4681139ef793,2021-07-29_20h09.27.314,Simcolourproject_2stim_asymm_v5,2020.2.10,Win32,60,61025ae37ef11b136ea224fe,,,,,,,,,3057,-106,-45,1,0,0,response5disk,,2,-6,-1,1,0,0,rectangle,-6,-1,1,0,0,-6,-1,1,0,0,1,2,162,122,1,,,,,,,,
,,,,,,,,,,,,,FF,,,,,,,,0.907,,,,,,,,,,,,,,,,,,,,,,60fdb05e9fae758192d21a0e,61036d31829a4681139ef793,2021-07-29_20h09.27.314,Simcolourproject_2stim_asymm_v5,2020.2.10,Win32,60,61025ae37ef11b136ea224fe,,,,,,,,,4213,40,91,1,0,0,response1disk,,7,0,10,1,0,0,rectangle,0,10,1,0,0,0,10,1,0,0,1,3,163,32,1,,,,,,,,
,,,,,,,,,,,,,FF,,,,,,,,1.525,,,,,,,,,,,,,,,,,,,,,,60fdb05e9fae758192d21a0e,61036d31829a4681139ef793,2021-07-29_20h09.27.314,Simcolourproject_2stim_asymm_v5,2020.2.10,Win32,60,61025ae37ef11b136ea224fe,,,,,,,,,1167,54,107,1,0,0,response1disk,,7,10,-3,1,0,0,rectangle,10,-3,1,0,0,10,-3,1,0,0,1,4,164,124,1,,,,,,,,
,,,,,,,,,,,,,FF,,,,,,,,1.776,,,,,,,,,,,,,,,,,,,,,,60fdb05e9fae758192d21a0e,61036d31829a4681139ef793,2021-07-29_20h09.27.314,Simcolourproject_2stim_asymm_v5,2020.2.10,Win32,60,61025ae37ef11b136ea224fe,,,,,,,,,1907,115,-59,1,0,0,response3disk,,5,-21,5,1,0,0,rectangle,-21,5,1,0,0,-21,5,1,0,0,1,5,165,91,1,,,,,,,,
,,,,,,,,,,,,,FF,,,,,,,,0.867,,,,,,,,,,,,,,,,,,,,,,60fdb05e9fae758192d21a0e,61036d31829a4681139ef793,2021-07-29_20h09.27.314,Simcolourproject_2stim_asymm_v5,2020.2.10,Win32,60,61025ae37ef11b136ea224fe,,,,,,,,,2439,46,122,1,0,0,response1disk,,7,-4,7,1,0,0,rectangle,-4,7,1,0,0,-4,7,1,0,0,1,6,166,158,1,,,,,,,,
,,,,,,,,,,,,,FF,,,,,,,,1.493,,,,,,,,,,,,,,,,,,,,,,60fdb05e9fae758192d21a0e,61036d31829a4681139ef793,2021-07-29_20h09.27.314,Simcolourproject_2stim_asymm_v5,2020.2.10,Win32,60,61025ae37ef11b136ea224fe,,,,,,,,,1221,31,-101,1,0,0,response3disk,,4,-15,2,1,0,0,rectangle,-15,2,1,0,0,-15,2,1,0,0,1,7,167,132,1,,,,,,,,
,,,,,,,,,,,,,FF,,,,,,,,1.922,,,,,,,,,,,,,,,,,,,,,,60fdb05e9fae758192d21a0e,61036d31829a4681139ef793,2021-07-29_20h09.27.314,Simcolourproject_2stim_asymm_v5,2020.2.10,Win32,60,61025ae37ef11b136ea224fe,,,,,,,,,1820,-116,-56,1,0,0,response5disk,,2,-2,4,1,0,0,rectangle,-2,4,1,0,0,-2,4,1,0,0,1,8,168,36,1,,,,,,,,
,,,,,,,,,,,,,FF,,,,,,,,1.325,,,,,,,,,,,,,,,,,,,,,,60fdb05e9fae758192d21a0e,61036d31829a4681139ef793,2021-07-29_20h09.27.314,Simcolourproject_2stim_asymm_v5,2020.2.10,Win32,60,61025ae37ef11b136ea224fe,,,,,,,,,3067,99,39,1,0,0,response1disk,,6,19,-14,1,0,0,rectangle,19,-14,1,0,0,19,-14,1,0,0,1,9,169,13,1,,,,,,,,
,,,,,,,,,,,,,FF,,,,,,,,0.766,,,,,,,,,,,,,,,,,,,,,,60fdb05e9fae758192d21a0e,61036d31829a4681139ef793,2021-07-29_20h09.27.314,Simcolourproject_2stim_asymm_v5,2020.2.10,Win32,60,61025ae37ef11b136ea224fe,,,,,,,,,2862,42,115,1,0,0,response1disk,,7,-22,-10,1,0,0,rectangle,-22,-10,1,0,0,-22,-10,1,0,0,1,10,170,105,1,,,,,,,,
,,,,,,,,,,,,,FF,,,,,,,,1.396,,,,,,,,,,,,,,,,,,,,,,60fdb05e9fae758192d21a0e,61036d31829a4681139ef793,2021-07-29_20h09.27.314,Simcolourproject_2stim_asymm_v5,2020.2.10,Win32,60,61025ae37ef11b136ea224fe,,,,,,,,,3859,62,118,1,0,0,response1disk,,7,-14,-1,1,0,0,rectangle,-14,-1,1,0,0,-14,-1,1,0,0,1,11,171,31,1,,,,,,,,
,,,,,,,,,,,,,FF,,,,,,,,0.722,,,,,,,,,,,,,,,,,,,,,,60fdb05e9fae758192d21a0e,61036d31829a4681139ef793,2021-07-29_20h09.27.314,Simcolourproject_2stim_asymm_v5,2020.2.10,Win32,60,61025ae37ef11b136ea224fe,,,,,,,,,1508,45,111,1,0,0,response1disk,,7,3,6,1,0,0,rectangle,3,6,1,0,0,3,6,1,0,0,1,12,172,110,1,,,,,,,,
,,,,,,,,,,,,,FF,,,,,,,,0.747,,,,,,,,,,,,,,,,,,,,,,60fdb05e9fae758192d21a0e,61036d31829a4681139ef793,2021-07-29_20h09.27.314,Simcolourproject_2stim_asymm_v5,2020.2.10,Win32,60,61025ae37ef11b136ea224fe,,,,,,,,,1425,47,91,1,0,0,response1disk,,7,-5,0,1,0,0,rectangle,-5,0,1,0,0,-5,0,1,0,0,1,13,173,140,1,,,,,,,,
,,,,,,,,,,,,,FF,,,,,,,,0.738,,,,,,,,,,,,,,,,,,,,,,60fdb05e9fae758192d21a0e,61036d31829a4681139ef793,2021-07-29_20h09.27.314,Simcolourproject_2stim_asymm_v5,2020.2.10,Win32,60,61025ae37ef11b136ea224fe,,,,,,,,,4133,47,110,1,0,0,response1disk,,7,-22,-8,1,0,0,rectangle,-22,-8,1,0,0,-22,-8,1,0,0,1,14,174,44,1,,,,,,,,
,,,,,,,,,,,,,FF,,,,,,,,1.358,,,,,,,,,,,,,,,,,,,,,,60fdb05e9fae758192d21a0e,61036d31829a4681139ef793,2021-07-29_20h09.27.314,Simcolourproject_2stim_asymm_v5,2020.2.10,Win32,60,61025ae37ef11b136ea224fe,,,,,,,,,3853,-72,-101,1,0,0,response5disk,,3,-14,8,1,0,0,rectangle,-14,8,1,0,0,-14,8,1,0,0,1,15,175,30,1,,,,,,,,
,,,,,,,,,,,,,FF,,,,,,,,1.341,,,,,,,,,,,,,,,,,,,,,,60fdb05e9fae758192d21a0e,61036d31829a4681139ef793,2021-07-29_20h09.27.314,Simcolourproject_2stim_asymm_v5,2020.2.10,Win32,60,61025ae37ef11b136ea224fe,,,,,,,,,1704,63,108,1,0,0,response1disk,,7,2,-11,1,0,0,rectangle,2,-11,1,0,0,2,-11,1,0,0,1,16,176,150,1,,,,,,,,
,,,,,,,,,,,,,FF,,,,,,,,1.06,,,,,,,,,,,,,,,,,,,,,,60fdb05e9fae758192d21a0e,61036d31829a4681139ef793,2021-07-29_20h09.27.314,Simcolourproject_2stim_asymm_v5,2020.2.10,Win32,60,61025ae37ef11b136ea224fe,,,,,,,,,1332,56,105,1,0,0,response1disk,,7,-11,8,1,0,0,rectangle,-11,8,1,0,0,-11,8,1,0,0,1,17,177,96,1,,,,,,,,
,,,,,,,,,,,,,FF,,,,,,,,1.68,,,,,,,,,,,,,,,,,,,,,,60fdb05e9fae758192d21a0e,61036d31829a4681139ef793,2021-07-29_20h09.27.314,Simcolourproject_2stim_asymm_v5,2020.2.10,Win32,60,61025ae37ef11b136ea224fe,,,,,,,,,515,-55,-94,1,0,0,response5disk,,3,-3,-3,1,0,0,rectangle,-3,-3,1,0,0,-3,-3,1,0,0,1,18,178,157,1,,,,,,,,
,,,,,,,,,,,,,FF,,,,,,,,2.685,,,,,,,,,,,,,,,,,,,,,,60fdb05e9fae758192d21a0e,61036d31829a4681139ef793,2021-07-29_20h09.27.314,Simcolourproject_2stim_asymm_v5,2020.2.10,Win32,60,61025ae37ef11b136ea224fe,,,,,,,,,2468,47,86,1,0,0,response1disk,,7,6,21,1,0,0,rectangle,6,21,1,0,0,6,21,1,0,0,1,19,179,108,1,,,,,,,,
,,,,,,,,,,,,,FF,,,,,,,,1.384,,,,,,,,,,,,,,,,,,,,,,60fdb05e9fae758192d21a0e,61036d31829a4681139ef793,2021-07-29_20h09.27.314,Simcolourproject_2stim_asymm_v5,2020.2.10,Win32,60,61025ae37ef11b136ea224fe,,,,,,,,,3479,-71,-101,1,0,0,response5disk,,3,-8,-1,1,0,0,rectangle,-8,-1,1,0,0,-8,-1,1,0,0,1,20,180,82,1,,,,,,,,
,,,,,,,,,,,,,FF,,,,,,,,2.097,,,,,,,,,,,,,,,,,,,,,,60fdb05e9fae758192d21a0e,61036d31829a4681139ef793,2021-07-29_20h09.27.314,Simcolourproject_2stim_asymm_v5,2020.2.10,Win32,60,61025ae37ef11b136ea224fe,,,,,,,,,244,106,46,1,0,0,response1disk,,6,4,-1,1,0,0,rectangle,4,-1,1,0,0,4,-1,1,0,0,1,21,181,125,1,,,,,,,,
,,,,,,,,,,,,,FF,,,,,,,,1.06,,,,,,,,,,,,,,,,,,,,,,60fdb05e9fae758192d21a0e,61036d31829a4681139ef793,2021-07-29_20h09.27.314,Simcolourproject_2stim_asymm_v5,2020.2.10,Win32,60,61025ae37ef11b136ea224fe,,,,,,,,,4196,48,131,1,0,0,response1disk,,7,14,13,1,0,0,rectangle,14,13,1,0,0,14,13,1,0,0,1,22,182,113,1,,,,,,,,
,,,,,,,,,,,,,FF,,,,,,,,0.765,,,,,,,,,,,,,,,,,,,,,,60fdb05e9fae758192d21a0e,61036d31829a4681139ef793,2021-07-29_20h09.27.314,Simcolourproject_2stim_asymm_v5,2020.2.10,Win32,60,61025ae37ef11b136ea224fe,,,,,,,,,3120,37,103,1,0,0,response1disk,,7,17,18,1,0,0,rectangle,17,18,1,0,0,17,18,1,0,0,1,23,183,155,1,,,,,,,,
,,,,,,,,,,,,,FF,,,,,,,,1.364,,,,,,,,,,,,,,,,,,,,,,60fdb05e9fae758192d21a0e,61036d31829a4681139ef793,2021-07-29_20h09.27.314,Simcolourproject_2stim_asymm_v5,2020.2.10,Win32,60,61025ae37ef11b136ea224fe,,,,,,,,,3902,123,-47,1,0,0,response3disk,,5,37,-10,1,0,0,rectangle,37,-10,1,0,0,37,-10,1,0,0,1,24,184,45,1,,,,,,,,
,,,,,,,,,,,,,FF,,,,,,,,0.996,,,,,,,,,,,,,,,,,,,,,,60fdb05e9fae758192d21a0e,61036d31829a4681139ef793,2021-07-29_20h09.27.314,Simcolourproject_2stim_asymm_v5,2020.2.10,Win32,60,61025ae37ef11b136ea224fe,,,,,,,,,229,38,114,1,0,0,response1disk,,7,-7,1,1,0,0,rectangle,-7,1,1,0,0,-7,1,1,0,0,1,25,185,46,1,,,,,,,,
,,,,,,,,,,,,,FF,,,,,,,,0.899,,,,,,,,,,,,,,,,,,,,,,60fdb05e9fae758192d21a0e,61036d31829a4681139ef793,2021-07-29_20h09.27.314,Simcolourproject_2stim_asymm_v5,2020.2.10,Win32,60,61025ae37ef11b136ea224fe,,,,,,,,,2531,36,132,1,0,0,response1disk,,7,-5,-11,1,0,0,rectangle,-5,-11,1,0,0,-5,-11,1,0,0,1,26,186,118,1,,,,,,,,
,,,,,,,,,,,,,FF,,,,,,,,0.813,,,,,,,,,,,,,,,,,,,,,,60fdb05e9fae758192d21a0e,61036d31829a4681139ef793,2021-07-29_20h09.27.314,Simcolourproject_2stim_asymm_v5,2020.2.10,Win32,60,61025ae37ef11b136ea224fe,,,,,,,,,4139,31,92,1,0,0,response1disk,,7,2,-7,1,0,0,rectangle,2,-7,1,0,0,2,-7,1,0,0,1,27,187,145,1,,,,,,,,
,,,,,,,,,,,,,FF,,,,,,,,0.866,,,,,,,,,,,,,,,,,,,,,,60fdb05e9fae758192d21a0e,61036d31829a4681139ef793,2021-07-29_20h09.27.314,Simcolourproject_2stim_asymm_v5,2020.2.10,Win32,60,61025ae37ef11b136ea224fe,,,,,,,,,3726,53,93,1,0,0,response1disk,,7,21,13,1,0,0,rectangle,21,13,1,0,0,21,13,1,0,0,1,28,188,16,1,,,,,,,,
,,,,,,,,,,,,,FF,,,,,,,,1.509,,,,,,,,,,,,,,,,,,,,,,60fdb05e9fae758192d21a0e,61036d31829a4681139ef793,2021-07-29_20h09.27.314,Simcolourproject_2stim_asymm_v5,2020.2.10,Win32,60,61025ae37ef11b136ea224fe,,,,,,,,,3584,-59,-88,1,0,0,response5disk,,3,-4,-3,1,0,0,rectangle,-4,-3,1,0,0,-4,-3,1,0,0,1,29,189,97,1,,,,,,,,
,,,,,,,,,,,,,FF,,,,,,,,0.974,,,,,,,,,,,,,,,,,,,,,,60fdb05e9fae758192d21a0e,61036d31829a4681139ef793,2021-07-29_20h09.27.314,Simcolourproject_2stim_asymm_v5,2020.2.10,Win32,60,61025ae37ef11b136ea224fe,,,,,,,,,2234,-109,42,1,0,0,response7disk,,1,-14,-2,1,0,0,rectangle,-140,-41,1,0,0,9,2,1,0,0,1,30,190,3,1,,response5disk_3,TRUE,2,2,"[253,123,191,294,271,127,260,264,198,133,304,27,113,92,13,109,242,222,195,196]",2.053,rectangle
,,,,,,,,,,,,,FF,,,,,,,,1.193,,,,,,,,,,,,,,,,,,,,,,60fdb05e9fae758192d21a0e,61036d31829a4681139ef793,2021-07-29_20h09.27.314,Simcolourproject_2stim_asymm_v5,2020.2.10,Win32,60,61025ae37ef11b136ea224fe,,,,,,,,,1061,-58,-74,1,0,0,response5disk,,3,-13,-4,1,0,0,rectangle,-13,-4,1,0,0,-13,-4,1,0,0,1,31,191,35,1,,,,,,,,
,,,,,,,,,,,,,FF,,,,,,,,1.115,,,,,,,,,,,,,,,,,,,,,,60fdb05e9fae758192d21a0e,61036d31829a4681139ef793,2021-07-29_20h09.27.314,Simcolourproject_2stim_asymm_v5,2020.2.10,Win32,60,61025ae37ef11b136ea224fe,,,,,,,,,2259,96,-54,1,0,0,response3disk,,5,11,5,1,0,0,rectangle,11,5,1,0,0,11,5,1,0,0,1,32,192,121,1,,,,,,,,
,,,,,,,,,,,,,FF,,,,,,,,1.413,,,,,,,,,,,,,,,,,,,,,,60fdb05e9fae758192d21a0e,61036d31829a4681139ef793,2021-07-29_20h09.27.314,Simcolourproject_2stim_asymm_v5,2020.2.10,Win32,60,61025ae37ef11b136ea224fe,,,,,,,,,2350,75,-49,1,0,0,response3disk,,5,-16,12,1,0,0,rectangle,-16,12,1,0,0,-16,12,1,0,0,1,33,193,2,1,,,,,,,,
,,,,,,,,,,,,,FF,,,,,,,,0.81,,,,,,,,,,,,,,,,,,,,,,60fdb05e9fae758192d21a0e,61036d31829a4681139ef793,2021-07-29_20h09.27.314,Simcolourproject_2stim_asymm_v5,2020.2.10,Win32,60,61025ae37ef11b136ea224fe,,,,,,,,,2435,57,106,1,0,0,response1disk,,7,-5,-1,1,0,0,rectangle,-50,-110,1,0,0,-10,-1,1,0,0,1,34,194,151,1,,response5disk_3,TRUE,3,3,"[253,123,191,294,271,127,260,264,198,133,304,27,113,92,13,109,242,222,195,196]",3.199,rectangle
,,,,,,,,,,,,,FF,,,,,,,,1.679,,,,,,,,,,,,,,,,,,,,,,60fdb05e9fae758192d21a0e,61036d31829a4681139ef793,2021-07-29_20h09.27.314,Simcolourproject_2stim_asymm_v5,2020.2.10,Win32,60,61025ae37ef11b136ea224fe,,,,,,,,,4214,55,102,1,0,0,response1disk,,7,-3,-2,1,0,0,rectangle,-33,-107,1,0,0,1,3,1,0,0,1,35,195,73,1,,response5disk_3,TRUE,3,3,"[253,123,191,294,271,127,260,264,198,133,304,27,113,92,13,109,242,222,195,196]",2.151,rectangle
,,,,,,,,,,,,,FF,,,,,,,,2.479,,,,,,,,,,,,,,,,,,,,,,60fdb05e9fae758192d21a0e,61036d31829a4681139ef793,2021-07-29_20h09.27.314,Simcolourproject_2stim_asymm_v5,2020.2.10,Win32,60,61025ae37ef11b136ea224fe,,,,,,,,,1251,115,-48,1,0,0,response3disk,,5,2,1,1,0,0,rectangle,2,1,1,0,0,2,1,1,0,0,1,36,196,0,1,,,,,,,,
,,,,,,,,,,,,,FF,,,,,,,,32.879,,,,,,,,,,,,,,,,,,,,,,60fdb05e9fae758192d21a0e,61036d31829a4681139ef793,2021-07-29_20h09.27.314,Simcolourproject_2stim_asymm_v5,2020.2.10,Win32,60,61025ae37ef11b136ea224fe,,,,,,,,,2735,74,-58,1,0,0,response3disk,,5,-13,-2,1,0,0,rectangle,-51,-109,1,0,0,1,10,1,0,0,1,37,197,62,1,,response5disk_3,TRUE,3,3,"[253,123,191,294,271,127,260,264,198,133,304,27,113,92,13,109,242,222,195,196]",1.569,rectangle
,,,,,,,,,,,,,FF,,,,,,,,1.334,,,,,,,,,,,,,,,,,,,,,,60fdb05e9fae758192d21a0e,61036d31829a4681139ef793,2021-07-29_20h09.27.314,Simcolourproject_2stim_asymm_v5,2020.2.10,Win32,60,61025ae37ef11b136ea224fe,,,,,,,,,2813,123,65,1,0,0,response1disk,,6,-30,-8,1,0,0,rectangle,-30,-8,1,0,0,-30,-8,1,0,0,1,38,198,156,1,,,,,,,,
,,,,,,,,,,,,,FF,,,,,,,,1.09,,,,,,,,,,,,,,,,,,,,,,60fdb05e9fae758192d21a0e,61036d31829a4681139ef793,2021-07-29_20h09.27.314,Simcolourproject_2stim_asymm_v5,2020.2.10,Win32,60,61025ae37ef11b136ea224fe,,,,,,,,,1294,-110,-20,1,0,0,response5disk,,2,12,5,1,0,0,rectangle,12,5,1,0,0,12,5,1,0,0,1,39,199,9,1,,,,,,,,
,,,,,,,,,,,,,FF,,,,,,,,1.145,,,,,,,,,,,,,,,,,,,,,,60fdb05e9fae758192d21a0e,61036d31829a4681139ef793,2021-07-29_20h09.27.314,Simcolourproject_2stim_asymm_v5,2020.2.10,Win32,60,61025ae37ef11b136ea224fe,,,,,,,,,2797,88,36,1,0,0,response1disk,,6,15,13,1,0,0,rectangle,15,13,1,0,0,15,13,1,0,0,1,40,200,92,1,,,,,,,,
,,,,,,,,,,,,,FF,,,,,,,,0.897,,,,,,,,,,,,,,,,,,,,,,60fdb05e9fae758192d21a0e,61036d31829a4681139ef793,2021-07-29_20h09.27.314,Simcolourproject_2stim_asymm_v5,2020.2.10,Win32,60,61025ae37ef11b136ea224fe,,,,,,,,,41,38,95,1,0,0,response1disk,,7,-16,7,1,0,0,rectangle,-16,7,1,0,0,-16,7,1,0,0,1,41,201,79,1,,,,,,,,
,,,,,,,,,,,,,FF,,,,,,,,1.553,,,,,,,,,,,,,,,,,,,,,,60fdb05e9fae758192d21a0e,61036d31829a4681139ef793,2021-07-29_20h09.27.314,Simcolourproject_2stim_asymm_v5,2020.2.10,Win32,60,61025ae37ef11b136ea224fe,,,,,,,,,1573,53,-91,1,0,0,response3disk,,4,6,-10,1,0,0,rectangle,6,-10,1,0,0,6,-10,1,0,0,1,42,202,69,1,,,,,,,,
,,,,,,,,,,,,,FF,,,,,,,,1.006,,,,,,,,,,,,,,,,,,,,,,60fdb05e9fae758192d21a0e,61036d31829a4681139ef793,2021-07-29_20h09.27.314,Simcolourproject_2stim_asymm_v5,2020.2.10,Win32,60,61025ae37ef11b136ea224fe,,,,,,,,,1748,-123,-34,1,0,0,response5disk,,2,-9,6,1,0,0,rectangle,-9,6,1,0,0,-9,6,1,0,0,1,43,203,66,1,,,,,,,,
,,,,,,,,,,,,,FF,,,,,,,,0.957,,,,,,,,,,,,,,,,,,,,,,60fdb05e9fae758192d21a0e,61036d31829a4681139ef793,2021-07-29_20h09.27.314,Simcolourproject_2stim_asymm_v5,2020.2.10,Win32,60,61025ae37ef11b136ea224fe,,,,,,,,,512,29,93,1,0,0,response1disk,,7,10,6,1,0,0,rectangle,10,6,1,0,0,10,6,1,0,0,1,44,204,51,1,,,,,,,,
,,,,,,,,,,,,,FF,,,,,,,,2.872,,,,,,,,,,,,,,,,,,,,,,60fdb05e9fae758192d21a0e,61036d31829a4681139ef793,2021-07-29_20h09.27.314,Simcolourproject_2stim_asymm_v5,2020.2.10,Win32,60,61025ae37ef11b136ea224fe,,,,,,,,,560,96,-61,1,0,0,response3disk,,5,-10,10,1,0,0,rectangle,-10,10,1,0,0,-10,10,1,0,0,1,45,205,12,1,,,,,,,,
,,,,,,,,,,,,,FF,,,,,,,,1.066,,,,,,,,,,,,,,,,,,,,,,60fdb05e9fae758192d21a0e,61036d31829a4681139ef793,2021-07-29_20h09.27.314,Simcolourproject_2stim_asymm_v5,2020.2.10,Win32,60,61025ae37ef11b136ea224fe,,,,,,,,,4342,48,88,1,0,0,response1disk,,7,-13,-23,1,0,0,rectangle,-13,-23,1,0,0,-13,-23,1,0,0,1,46,206,41,1,,,,,,,,
,,,,,,,,,,,,,FF,,,,,,,,0.93,,,,,,,,,,,,,,,,,,,,,,60fdb05e9fae758192d21a0e,61036d31829a4681139ef793,2021-07-29_20h09.27.314,Simcolourproject_2stim_asymm_v5,2020.2.10,Win32,60,61025ae37ef11b136ea224fe,,,,,,,,,875,41,-83,1,0,0,response3disk,,4,-17,15,1,0,0,rectangle,-17,15,1,0,0,-17,15,1,0,0,1,47,207,50,1,,,,,,,,
,,,,,,,,,,,,,FF,,,,,,,,0.913,,,,,,,,,,,,,,,,,,,,,,60fdb05e9fae758192d21a0e,61036d31829a4681139ef793,2021-07-29_20h09.27.314,Simcolourproject_2stim_asymm_v5,2020.2.10,Win32,60,61025ae37ef11b136ea224fe,,,,,,,,,1625,63,126,1,0,0,response1disk,,7,-28,-18,1,0,0,rectangle,-28,-18,1,0,0,-28,-18,1,0,0,1,48,208,17,1,,,,,,,,
,,,,,,,,,,,,,FF,,,,,,,,1.132,,,,,,,,,,,,,,,,,,,,,,60fdb05e9fae758192d21a0e,61036d31829a4681139ef793,2021-07-29_20h09.27.314,Simcolourproject_2stim_asymm_v5,2020.2.10,Win32,60,61025ae37ef11b136ea224fe,,,,,,,,,780,-75,-127,1,0,0,response5disk,,3,-16,7,1,0,0,rectangle,-16,7,1,0,0,-16,7,1,0,0,1,49,209,90,1,,,,,,,,
,,,,,,,,,,,,,FF,,,,,,,,1.672,,,,,,,,,,,,,,,,,,,,,,60fdb05e9fae758192d21a0e,61036d31829a4681139ef793,2021-07-29_20h09.27.314,Simcolourproject_2stim_asymm_v5,2020.2.10,Win32,60,61025ae37ef11b136ea224fe,,,,,,,,,3104,-115,33,1,0,0,response7disk,,1,-14,10,1,0,0,rectangle,-14,10,1,0,0,-14,10,1,0,0,1,50,210,47,1,,,,,,,,
,,,,,,,,,,,,,FF,,,,,,,,0.813,,,,,,,,,,,,,,,,,,,,,,60fdb05e9fae758192d21a0e,61036d31829a4681139ef793,2021-07-29_20h09.27.314,Simcolourproject_2stim_asymm_v5,2020.2.10,Win32,60,61025ae37ef11b136ea224fe,,,,,,,,,1501,70,120,1,0,0,response1disk,,7,-7,4,1,0,0,rectangle,-7,4,1,0,0,-7,4,1,0,0,1,51,211,14,1,,,,,,,,
,,,,,,,,,,,,,FF,,,,,,,,1.872,,,,,,,,,,,,,,,,,,,,,,60fdb05e9fae758192d21a0e,61036d31829a4681139ef793,2021-07-29_20h09.27.314,Simcolourproject_2stim_asymm_v5,2020.2.10,Win32,60,61025ae37ef11b136ea224fe,,,,,,,,,1811,-50,-92,1,0,0,response5disk,,3,-3,-4,1,0,0,rectangle,-3,-4,1,0,0,-3,-4,1,0,0,1,52,212,42,1,,,,,,,,
,,,,,,,,,,,,,FF,,,,,,,,0.786,,,,,,,,,,,,,,,,,,,,,,60fdb05e9fae758192d21a0e,61036d31829a4681139ef793,2021-07-29_20h09.27.314,Simcolourproject_2stim_asymm_v5,2020.2.10,Win32,60,61025ae37ef11b136ea224fe,,,,,,,,,4265,48,97,1,0,0,response1disk,,7,-17,-21,1,0,0,rectangle,-17,-21,1,0,0,-17,-21,1,0,0,1,53,213,136,1,,,,,,,,
,,,,,,,,,,,,,FF,,,,,,,,0.863,,,,,,,,,,,,,,,,,,,,,,60fdb05e9fae758192d21a0e,61036d31829a4681139ef793,2021-07-29_20h09.27.314,Simcolourproject_2stim_asymm_v5,2020.2.10,Win32,60,61025ae37ef11b136ea224fe,,,,,,,,,2607,-45,100,1,0,0,response7disk,,0,-2,-7,1,0,0,rectangle,-2,-7,1,0,0,-2,-7,1,0,0,1,54,214,152,1,,,,,,,,
,,,,,,,,,,,,,FF,,,,,,,,0.862,,,,,,,,,,,,,,,,,,,,,,60fdb05e9fae758192d21a0e,61036d31829a4681139ef793,2021-07-29_20h09.27.314,Simcolourproject_2stim_asymm_v5,2020.2.10,Win32,60,61025ae37ef11b136ea224fe,,,,,,,,,946,60,113,1,0,0,response1disk,,7,2,5,1,0,0,rectangle,2,5,1,0,0,2,5,1,0,0,1,55,215,59,1,,,,,,,,
,,,,,,,,,,,,,FF,,,,,,,,3.156,,,,,,,,,,,,,,,,,,,,,,60fdb05e9fae758192d21a0e,61036d31829a4681139ef793,2021-07-29_20h09.27.314,Simcolourproject_2stim_asymm_v5,2020.2.10,Win32,60,61025ae37ef11b136ea224fe,,,,,,,,,1488,70,108,1,0,0,response1disk,,7,10,8,1,0,0,rectangle,10,8,1,0,0,10,8,1,0,0,1,56,216,20,1,,,,,,,,
,,,,,,,,,,,,,FF,,,,,,,,1.425,,,,,,,,,,,,,,,,,,,,,,60fdb05e9fae758192d21a0e,61036d31829a4681139ef793,2021-07-29_20h09.27.314,Simcolourproject_2stim_asymm_v5,2020.2.10,Win32,60,61025ae37ef11b136ea224fe,,,,,,,,,1735,39,-102,1,0,0,response3disk,,4,-1,1,1,0,0,rectangle,-1,1,1,0,0,-1,1,1,0,0,1,57,217,98,1,,,,,,,,
,,,,,,,,,,,,,FF,,,,,,,,0.941,,,,,,,,,,,,,,,,,,,,,,60fdb05e9fae758192d21a0e,61036d31829a4681139ef793,2021-07-29_20h09.27.314,Simcolourproject_2stim_asymm_v5,2020.2.10,Win32,60,61025ae37ef11b136ea224fe,,,,,,,,,207,45,104,1,0,0,response1disk,,7,12,1,1,0,0,rectangle,12,1,1,0,0,12,1,1,0,0,1,58,218,133,1,,,,,,,,
,,,,,,,,,,,,,FF,,,,,,,,1.302,,,,,,,,,,,,,,,,,,,,,,60fdb05e9fae758192d21a0e,61036d31829a4681139ef793,2021-07-29_20h09.27.314,Simcolourproject_2stim_asymm_v5,2020.2.10,Win32,60,61025ae37ef11b136ea224fe,,,,,,,,,1152,-57,-94,1,0,0,response5disk,,3,-20,10,1,0,0,rectangle,-20,10,1,0,0,-20,10,1,0,0,1,59,219,74,1,,,,,,,,
,,,,,,,,,,,,,FF,,,,,,,,1.373,,,,,,,,,,,,,,,,,,,,,,60fdb05e9fae758192d21a0e,61036d31829a4681139ef793,2021-07-29_20h09.27.314,Simcolourproject_2stim_asymm_v5,2020.2.10,Win32,60,61025ae37ef11b136ea224fe,,,,,,,,,1133,-86,-49,1,0,0,response5disk,,2,-1,17,1,0,0,rectangle,-1,17,1,0,0,-1,17,1,0,0,1,60,220,115,1,,,,,,,,
,,,,,,,,,,,,,FF,,,,,,,,4.536,,,,,,,,,,,,,,,,,,,,,,60fdb05e9fae758192d21a0e,61036d31829a4681139ef793,2021-07-29_20h09.27.314,Simcolourproject_2stim_asymm_v5,2020.2.10,Win32,60,61025ae37ef11b136ea224fe,,,,,,,,,1306,-100,36,1,0,0,response7disk,,1,-21,2,1,0,0,rectangle,43,-107,1,0,0,10,1,1,0,0,1,61,221,40,1,,response3disk_3,TRUE,4,4,"[253,123,191,294,271,127,260,264,198,133,304,27,113,92,13,109,242,222,195,196]",1.568,rectangle
,,,,,,,,,,,,,FF,,,,,,,,1.297,,,,,,,,,,,,,,,,,,,,,,60fdb05e9fae758192d21a0e,61036d31829a4681139ef793,2021-07-29_20h09.27.314,Simcolourproject_2stim_asymm_v5,2020.2.10,Win32,60,61025ae37ef11b136ea224fe,,,,,,,,,1557,68,-41,1,0,0,response3disk,,5,-17,21,1,0,0,rectangle,-17,21,1,0,0,-17,21,1,0,0,1,62,222,57,1,,,,,,,,
,,,,,,,,,,,,,FF,,,,,,,,3.103,,,,,,,,,,,,,,,,,,,,,,60fdb05e9fae758192d21a0e,61036d31829a4681139ef793,2021-07-29_20h09.27.314,Simcolourproject_2stim_asymm_v5,2020.2.10,Win32,60,61025ae37ef11b136ea224fe,,,,,,,,,823,49,-99,1,0,0,response3disk,,4,-3,-6,1,0,0,rectangle,-3,-6,1,0,0,-3,-6,1,0,0,1,63,223,54,1,,,,,,,,
,,,,,,,,,,,,,FF,,,,,,,,0.865,,,,,,,,,,,,,,,,,,,,,,60fdb05e9fae758192d21a0e,61036d31829a4681139ef793,2021-07-29_20h09.27.314,Simcolourproject_2stim_asymm_v5,2020.2.10,Win32,60,61025ae37ef11b136ea224fe,,,,,,,,,3741,-40,127,1,0,0,response7disk,,0,-10,-4,1,0,0,rectangle,-10,-4,1,0,0,-10,-4,1,0,0,1,64,224,67,1,,,,,,,,
,,,,,,,,,,,,,FF,,,,,,,,2.936,,,,,,,,,,,,,,,,,,,,,,60fdb05e9fae758192d21a0e,61036d31829a4681139ef793,2021-07-29_20h09.27.314,Simcolourproject_2stim_asymm_v5,2020.2.10,Win32,60,61025ae37ef11b136ea224fe,,,,,,,,,2771,95,-46,1,0,0,response3disk,,5,19,3,1,0,0,rectangle,19,3,1,0,0,19,3,1,0,0,1,65,225,64,1,,,,,,,,
,,,,,,,,,,,,,FF,,,,,,,,2.159,,,,,,,,,,,,,,,,,,,,,,60fdb05e9fae758192d21a0e,61036d31829a4681139ef793,2021-07-29_20h09.27.314,Simcolourproject_2stim_asymm_v5,2020.2.10,Win32,60,61025ae37ef11b136ea224fe,,,,,,,,,4346,96,-37,1,0,0,response3disk,,5,-11,-6,1,0,0,rectangle,-11,-6,1,0,0,-11,-6,1,0,0,1,66,226,1,1,,,,,,,,
,,,,,,,,,,,,,FF,,,,,,,,0.955,,,,,,,,,,,,,,,,,,,,,,60fdb05e9fae758192d21a0e,61036d31829a4681139ef793,2021-07-29_20h09.27.314,Simcolourproject_2stim_asymm_v5,2020.2.10,Win32,60,61025ae37ef11b136ea224fe,,,,,,,,,2777,-85,-24,1,0,0,response5disk,,2,13,-7,1,0,0,rectangle,13,-7,1,0,0,13,-7,1,0,0,1,67,227,128,1,,,,,,,,
,,,,,,,,,,,,,FF,,,,,,,,3.049,,,,,,,,,,,,,,,,,,,,,,60fdb05e9fae758192d21a0e,61036d31829a4681139ef793,2021-07-29_20h09.27.314,Simcolourproject_2stim_asymm_v5,2020.2.10,Win32,60,61025ae37ef11b136ea224fe,,,,,,,,,1237,27,-83,1,0,0,response3disk,,4,7,12,1,0,0,rectangle,7,12,1,0,0,7,12,1,0,0,1,68,228,120,1,,,,,,,,
,,,,,,,,,,,,,FF,,,,,,,,1.024,,,,,,,,,,,,,,,,,,,,,,60fdb05e9fae758192d21a0e,61036d31829a4681139ef793,2021-07-29_20h09.27.314,Simcolourproject_2stim_asymm_v5,2020.2.10,Win32,60,61025ae37ef11b136ea224fe,,,,,,,,,1886,-60,114,1,0,0,response7disk,,0,13,-4,1,0,0,rectangle,13,-4,1,0,0,13,-4,1,0,0,1,69,229,123,1,,,,,,,,
,,,,,,,,,,,,,FF,,,,,,,,1.186,,,,,,,,,,,,,,,,,,,,,,60fdb05e9fae758192d21a0e,61036d31829a4681139ef793,2021-07-29_20h09.27.314,Simcolourproject_2stim_asymm_v5,2020.2.10,Win32,60,61025ae37ef11b136ea224fe,,,,,,,,,4029,-51,-77,1,0,0,response5disk,,3,-17,0,1,0,0,rectangle,-17,0,1,0,0,-17,0,1,0,0,1,70,230,142,1,,,,,,,,
,,,,,,,,,,,,,FF,,,,,,,,1.62,,,,,,,,,,,,,,,,,,,,,,60fdb05e9fae758192d21a0e,61036d31829a4681139ef793,2021-07-29_20h09.27.314,Simcolourproject_2stim_asymm_v5,2020.2.10,Win32,60,61025ae37ef11b136ea224fe,,,,,,,,,2907,116,42,1,0,0,response1disk,,6,7,1,1,0,0,rectangle,7,1,1,0,0,7,1,1,0,0,1,71,231,112,1,,,,,,,,
,,,,,,,,,,,,,FF,,,,,,,,1.548,,,,,,,,,,,,,,,,,,,,,,60fdb05e9fae758192d21a0e,61036d31829a4681139ef793,2021-07-29_20h09.27.314,Simcolourproject_2stim_asymm_v5,2020.2.10,Win32,60,61025ae37ef11b136ea224fe,,,,,,,,,3934,-128,-34,1,0,0,response5disk,,2,-10,10,1,0,0,rectangle,-10,10,1,0,0,-10,10,1,0,0,1,72,232,60,1,,,,,,,,
,,,,,,,,,,,,,FF,,,,,,,,2.605,,,,,,,,,,,,,,,,,,,,,,60fdb05e9fae758192d21a0e,61036d31829a4681139ef793,2021-07-29_20h09.27.314,Simcolourproject_2stim_asymm_v5,2020.2.10,Win32,60,61025ae37ef11b136ea224fe,,,,,,,,,468,-121,-23,1,0,0,response5disk,,2,-18,6,1,0,0,rectangle,-18,6,1,0,0,-18,6,1,0,0,1,73,233,119,1,,,,,,,,
,,,,,,,,,,,,,FF,,,,,,,,0.946,,,,,,,,,,,,,,,,,,,,,,60fdb05e9fae758192d21a0e,61036d31829a4681139ef793,2021-07-29_20h09.27.314,Simcolourproject_2stim_asymm_v5,2020.2.10,Win32,60,61025ae37ef11b136ea224fe,,,,,,,,,2985,-96,48,1,0,0,response7disk,,1,-21,11,1,0,0,rectangle,-21,11,1,0,0,-21,11,1,0,0,1,74,234,141,1,,,,,,,,
,,,,,,,,,,,,,FF,,,,,,,,1.284,,,,,,,,,,,,,,,,,,,,,,60fdb05e9fae758192d21a0e,61036d31829a4681139ef793,2021-07-29_20h09.27.314,Simcolourproject_2stim_asymm_v5,2020.2.10,Win32,60,61025ae37ef11b136ea224fe,,,,,,,,,600,58,119,1,0,0,response1disk,,7,13,5,1,0,0,rectangle,13,5,1,0,0,13,5,1,0,0,1,75,235,52,1,,,,,,,,
,,,,,,,,,,,,,FF,,,,,,,,1.167,,,,,,,,,,,,,,,,,,,,,,60fdb05e9fae758192d21a0e,61036d31829a4681139ef793,2021-07-29_20h09.27.314,Simcolourproject_2stim_asymm_v5,2020.2.10,Win32,60,61025ae37ef11b136ea224fe,,,,,,,,,4261,29,102,1,0,0,response1disk,,7,-23,-13,1,0,0,rectangle,-23,-13,1,0,0,-23,-13,1,0,0,1,76,236,78,1,,,,,,,,
,,,,,,,,,,,,,FF,,,,,,,,1.073,,,,,,,,,,,,,,,,,,,,,,60fdb05e9fae758192d21a0e,61036d31829a4681139ef793,2021-07-29_20h09.27.314,Simcolourproject_2stim_asymm_v5,2020.2.10,Win32,60,61025ae37ef11b136ea224fe,,,,,,,,,115,52,-65,1,0,0,response3disk,,4,0,9,1,0,0,rectangle,0,9,1,0,0,0,9,1,0,0,1,77,237,143,1,,,,,,,,
,,,,,,,,,,,,,FF,,,,,,,,1.052,,,,,,,,,,,,,,,,,,,,,,60fdb05e9fae758192d21a0e,61036d31829a4681139ef793,2021-07-29_20h09.27.314,Simcolourproject_2stim_asymm_v5,2020.2.10,Win32,60,61025ae37ef11b136ea224fe,,,,,,,,,1933,35,87,1,0,0,response1disk,,7,-7,0,1,0,0,rectangle,-7,0,1,0,0,-7,0,1,0,0,1,78,238,103,1,,,,,,,,
,,,,,,,,,,,,,FF,,,,,,,,1.92,,,,,,,,,,,,,,,,,,,,,,60fdb05e9fae758192d21a0e,61036d31829a4681139ef793,2021-07-29_20h09.27.314,Simcolourproject_2stim_asymm_v5,2020.2.10,Win32,60,61025ae37ef11b136ea224fe,,,,,,,,,4061,46,-101,1,0,0,response3disk,,4,-2,-3,1,0,0,rectangle,-2,-3,1,0,0,-2,-3,1,0,0,1,79,239,26,1,,,,,,,,
,,,,,,,,,,,,,FF,,,,,,,,0.762,,,,,,,,,,,,,,,,,,,,,,60fdb05e9fae758192d21a0e,61036d31829a4681139ef793,2021-07-29_20h09.27.314,Simcolourproject_2stim_asymm_v5,2020.2.10,Win32,60,61025ae37ef11b136ea224fe,,,,,,,,,3339,-72,-41,1,0,0,response5disk,,2,-8,10,1,0,0,rectangle,-8,10,1,0,0,-8,10,1,0,0,1,80,240,7,1,,,,,,,,
,,,,,,,,,,,,,FF,,,,,,,,1.299,,,,,,,,,,,,,,,,,,,,,,60fdb05e9fae758192d21a0e,61036d31829a4681139ef793,2021-07-29_20h09.27.314,Simcolourproject_2stim_asymm_v5,2020.2.10,Win32,60,61025ae37ef11b136ea224fe,,,,,,,,,4088,-90,-33,1,0,0,response5disk,,2,-6,11,1,0,0,rectangle,-45,-104,1,0,0,6,0,1,0,0,1,81,241,80,1,,response5disk_3,TRUE,3,3,"[253,123,191,294,271,127,260,264,198,133,304,27,113,92,13,109,242,222,195,196]",1.53,rectangle
,,,,,,,,,,,,,FF,,,,,,,,2.6,,,,,,,,,,,,,,,,,,,,,,60fdb05e9fae758192d21a0e,61036d31829a4681139ef793,2021-07-29_20h09.27.314,Simcolourproject_2stim_asymm_v5,2020.2.10,Win32,60,61025ae37ef11b136ea224fe,,,,,,,,,717,29,-72,1,0,0,response3disk,,4,-8,1,1,0,0,rectangle,-8,1,1,0,0,-8,1,1,0,0,1,82,242,21,1,,,,,,,,
,,,,,,,,,,,,,FF,,,,,,,,0.973,,,,,,,,,,,,,,,,,,,,,,60fdb05e9fae758192d21a0e,61036d31829a4681139ef793,2021-07-29_20h09.27.314,Simcolourproject_2stim_asymm_v5,2020.2.10,Win32,60,61025ae37ef11b136ea224fe,,,,,,,,,2191,36,89,1,0,0,response1disk,,7,3,-4,1,0,0,rectangle,3,-4,1,0,0,3,-4,1,0,0,1,83,243,116,1,,,,,,,,
,,,,,,,,,,,,,FF,,,,,,,,0.97,,,,,,,,,,,,,,,,,,,,,,60fdb05e9fae758192d21a0e,61036d31829a4681139ef793,2021-07-29_20h09.27.314,Simcolourproject_2stim_asymm_v5,2020.2.10,Win32,60,61025ae37ef11b136ea224fe,,,,,,,,,3643,93,-43,1,0,0,response3disk,,5,16,1,1,0,0,rectangle,16,1,1,0,0,16,1,1,0,0,1,84,244,111,1,,,,,,,,
,,,,,,,,,,,,,FF,,,,,,,,0.966,,,,,,,,,,,,,,,,,,,,,,60fdb05e9fae758192d21a0e,61036d31829a4681139ef793,2021-07-29_20h09.27.314,Simcolourproject_2stim_asymm_v5,2020.2.10,Win32,60,61025ae37ef11b136ea224fe,,,,,,,,,1938,39,99,1,0,0,response1disk,,7,-3,4,1,0,0,rectangle,-3,4,1,0,0,-3,4,1,0,0,1,85,245,39,1,,,,,,,,
,,,,,,,,,,,,,FF,,,,,,,,1.068,,,,,,,,,,,,,,,,,,,,,,60fdb05e9fae758192d21a0e,61036d31829a4681139ef793,2021-07-29_20h09.27.314,Simcolourproject_2stim_asymm_v5,2020.2.10,Win32,60,61025ae37ef11b136ea224fe,,,,,,,,,2020,76,-39,1,0,0,response3disk,,5,-15,6,1,0,0,rectangle,-15,6,1,0,0,-15,6,1,0,0,1,86,246,101,1,,,,,,,,
,,,,,,,,,,,,,FF,,,,,,,,0.756,,,,,,,,,,,,,,,,,,,,,,60fdb05e9fae758192d21a0e,61036d31829a4681139ef793,2021-07-29_20h09.27.314,Simcolourproject_2stim_asymm_v5,2020.2.10,Win32,60,61025ae37ef11b136ea224fe,,,,,,,,,2443,31,108,1,0,0,response1disk,,7,3,12,1,0,0,rectangle,3,12,1,0,0,3,12,1,0,0,1,87,247,137,1,,,,,,,,
,,,,,,,,,,,,,FF,,,,,,,,0.676,,,,,,,,,,,,,,,,,,,,,,60fdb05e9fae758192d21a0e,61036d31829a4681139ef793,2021-07-29_20h09.27.314,Simcolourproject_2stim_asymm_v5,2020.2.10,Win32,60,61025ae37ef11b136ea224fe,,,,,,,,,4332,56,120,1,0,0,response1disk,,7,9,4,1,0,0,rectangle,9,4,1,0,0,9,4,1,0,0,1,88,248,25,1,,,,,,,,
,,,,,,,,,,,,,FF,,,,,,,,4.284,,,,,,,,,,,,,,,,,,,,,,60fdb05e9fae758192d21a0e,61036d31829a4681139ef793,2021-07-29_20h09.27.314,Simcolourproject_2stim_asymm_v5,2020.2.10,Win32,60,61025ae37ef11b136ea224fe,,,,,,,,,4294,91,-40,1,0,0,response3disk,,5,5,8,1,0,0,rectangle,5,8,1,0,0,5,8,1,0,0,1,89,249,100,1,,,,,,,,
,,,,,,,,,,,,,FF,,,,,,,,1.88,,,,,,,,,,,,,,,,,,,,,,60fdb05e9fae758192d21a0e,61036d31829a4681139ef793,2021-07-29_20h09.27.314,Simcolourproject_2stim_asymm_v5,2020.2.10,Win32,60,61025ae37ef11b136ea224fe,,,,,,,,,3698,-35,-94,1,0,0,response5disk,,3,1,-5,1,0,0,rectangle,1,-5,1,0,0,1,-5,1,0,0,1,90,250,53,1,,,,,,,,
,,,,,,,,,,,,,FF,,,,,,,,0.762,,,,,,,,,,,,,,,,,,,,,,60fdb05e9fae758192d21a0e,61036d31829a4681139ef793,2021-07-29_20h09.27.314,Simcolourproject_2stim_asymm_v5,2020.2.10,Win32,60,61025ae37ef11b136ea224fe,,,,,,,,,315,46,95,1,0,0,response1disk,,7,4,-13,1,0,0,rectangle,4,-13,1,0,0,4,-13,1,0,0,1,91,251,28,1,,,,,,,,
,,,,,,,,,,,,,FF,,,,,,,,1.009,,,,,,,,,,,,,,,,,,,,,,60fdb05e9fae758192d21a0e,61036d31829a4681139ef793,2021-07-29_20h09.27.314,Simcolourproject_2stim_asymm_v5,2020.2.10,Win32,60,61025ae37ef11b136ea224fe,,,,,,,,,372,-54,-130,1,0,0,response5disk,,3,-5,-2,1,0,0,rectangle,50,-108,1,0,0,-7,-2,1,0,0,1,92,252,76,1,,response3disk_3,TRUE,4,4,"[253,123,191,294,271,127,260,264,198,133,304,27,113,92,13,109,242,222,195,196]",1.922,rectangle
,,,,,,,,,,,,,FF,,,,,,,,1.069,,,,,,,,,,,,,,,,,,,,,,60fdb05e9fae758192d21a0e,61036d31829a4681139ef793,2021-07-29_20h09.27.314,Simcolourproject_2stim_asymm_v5,2020.2.10,Win32,60,61025ae37ef11b136ea224fe,,,,,,,,,1521,-56,119,1,0,0,response7disk,,0,9,2,1,0,0,rectangle,9,2,1,0,0,9,2,1,0,0,1,93,253,63,1,,,,,,,,
,,,,,,,,,,,,,FF,,,,,,,,0.824,,,,,,,,,,,,,,,,,,,,,,60fdb05e9fae758192d21a0e,61036d31829a4681139ef793,2021-07-29_20h09.27.314,Simcolourproject_2stim_asymm_v5,2020.2.10,Win32,60,61025ae37ef11b136ea224fe,,,,,,,,,3027,50,126,1,0,0,response1disk,,7,-3,-5,1,0,0,rectangle,-3,-5,1,0,0,-3,-5,1,0,0,1,94,254,15,1,,,,,,,,
,,,,,,,,,,,,,FF,,,,,,,,1.398,,,,,,,,,,,,,,,,,,,,,,60fdb05e9fae758192d21a0e,61036d31829a4681139ef793,2021-07-29_20h09.27.314,Simcolourproject_2stim_asymm_v5,2020.2.10,Win32,60,61025ae37ef11b136ea224fe,,,,,,,,,3867,104,33,1,0,0,response1disk,,6,5,-1,1,0,0,rectangle,5,-1,1,0,0,5,-1,1,0,0,1,95,255,127,1,,,,,,,,
,,,,,,,,,,,,,FF,,,,,,,,2.553,,,,,,,,,,,,,,,,,,,,,,60fdb05e9fae758192d21a0e,61036d31829a4681139ef793,2021-07-29_20h09.27.314,Simcolourproject_2stim_asymm_v5,2020.2.10,Win32,60,61025ae37ef11b136ea224fe,,,,,,,,,1685,-110,-39,1,0,0,response5disk,,2,-6,5,1,0,0,rectangle,-6,5,1,0,0,-6,5,1,0,0,1,96,256,94,1,,,,,,,,
,,,,,,,,,,,,,FF,,,,,,,,1.229,,,,,,,,,,,,,,,,,,,,,,60fdb05e9fae758192d21a0e,61036d31829a4681139ef793,2021-07-29_20h09.27.314,Simcolourproject_2stim_asymm_v5,2020.2.10,Win32,60,61025ae37ef11b136ea224fe,,,,,,,,,688,107,-44,1,0,0,response3disk,,5,-25,13,1,0,0,rectangle,-25,13,1,0,0,-25,13,1,0,0,1,97,257,48,1,,,,,,,,
,,,,,,,,,,,,,FF,,,,,,,,1.62,,,,,,,,,,,,,,,,,,,,,,60fdb05e9fae758192d21a0e,61036d31829a4681139ef793,2021-07-29_20h09.27.314,Simcolourproject_2stim_asymm_v5,2020.2.10,Win32,60,61025ae37ef11b136ea224fe,,,,,,,,,3569,37,-103,1,0,0,response3disk,,4,0,7,1,0,0,rectangle,0,7,1,0,0,0,7,1,0,0,1,98,258,153,1,,,,,,,,
,,,,,,,,,,,,,FF,,,,,,,,1.091,,,,,,,,,,,,,,,,,,,,,,60fdb05e9fae758192d21a0e,61036d31829a4681139ef793,2021-07-29_20h09.27.314,Simcolourproject_2stim_asymm_v5,2020.2.10,Win32,60,61025ae37ef11b136ea224fe,,,,,,,,,1923,92,60,1,0,0,response1disk,,6,21,2,1,0,0,rectangle,-42,125,1,0,0,6,3,1,0,0,1,99,259,18,1,,response7disk_3,TRUE,0,0,"[253,123,191,294,271,127,260,264,198,133,304,27,113,92,13,109,242,222,195,196]",1.426,rectangle
,,,,,,,,,,,,,FF,,,,,,,,1.953,,,,,,,,,,,,,,,,,,,,,,60fdb05e9fae758192d21a0e,61036d31829a4681139ef793,2021-07-29_20h09.27.314,Simcolourproject_2stim_asymm_v5,2020.2.10,Win32,60,61025ae37ef11b136ea224fe,,,,,,,,,379,37,-73,1,0,0,response3disk,,4,2,0,1,0,0,rectangle,2,0,1,0,0,2,0,1,0,0,1,100,260,5,1,,,,,,,,
,,,,,,,,,,,,,FF,,,,,,,,0.821,,,,,,,,,,,,,,,,,,,,,,60fdb05e9fae758192d21a0e,61036d31829a4681139ef793,2021-07-29_20h09.27.314,Simcolourproject_2stim_asymm_v5,2020.2.10,Win32,60,61025ae37ef11b136ea224fe,,,,,,,,,3177,35,93,1,0,0,response1disk,,7,4,3,1,0,0,rectangle,4,3,1,0,0,4,3,1,0,0,1,101,261,19,1,,,,,,,,
,,,,,,,,,,,,,FF,,,,,,,,2.005,,,,,,,,,,,,,,,,,,,,,,60fdb05e9fae758192d21a0e,61036d31829a4681139ef793,2021-07-29_20h09.27.314,Simcolourproject_2stim_asymm_v5,2020.2.10,Win32,60,61025ae37ef11b136ea224fe,,,,,,,,,1430,-62,-92,1,0,0,response5disk,,3,10,9,1,0,0,rectangle,10,9,1,0,0,10,9,1,0,0,1,102,262,139,1,,,,,,,,
,,,,,,,,,,,,,FF,,,,,,,,0.822,,,,,,,,,,,,,,,,,,,,,,60fdb05e9fae758192d21a0e,61036d31829a4681139ef793,2021-07-29_20h09.27.314,Simcolourproject_2stim_asymm_v5,2020.2.10,Win32,60,61025ae37ef11b136ea224fe,,,,,,,,,949,86,-38,1,0,0,response3disk,,5,23,11,1,0,0,rectangle,-35,-109,1,0,0,-4,1,1,0,0,1,103,263,10,1,,response5disk_3,TRUE,3,3,"[253,123,191,294,271,127,260,264,198,133,304,27,113,92,13,109,242,222,195,196]",1.375,rectangle
,,,,,,,,,,,,,FF,,,,,,,,1.849,,,,,,,,,,,,,,,,,,,,,,60fdb05e9fae758192d21a0e,61036d31829a4681139ef793,2021-07-29_20h09.27.314,Simcolourproject_2stim_asymm_v5,2020.2.10,Win32,60,61025ae37ef11b136ea224fe,,,,,,,,,2409,35,119,1,0,0,response1disk,,7,-22,-13,1,0,0,rectangle,-22,-13,1,0,0,-22,-13,1,0,0,1,104,264,130,1,,,,,,,,
,,,,,,,,,,,,,FF,,,,,,,,2.033,,,,,,,,,,,,,,,,,,,,,,60fdb05e9fae758192d21a0e,61036d31829a4681139ef793,2021-07-29_20h09.27.314,Simcolourproject_2stim_asymm_v5,2020.2.10,Win32,60,61025ae37ef11b136ea224fe,,,,,,,,,1107,74,-42,1,0,0,response3disk,,5,-4,6,1,0,0,rectangle,-4,6,1,0,0,-4,6,1,0,0,1,105,265,6,1,,,,,,,,
,,,,,,,,,,,,,FF,,,,,,,,1.48,,,,,,,,,,,,,,,,,,,,,,60fdb05e9fae758192d21a0e,61036d31829a4681139ef793,2021-07-29_20h09.27.314,Simcolourproject_2stim_asymm_v5,2020.2.10,Win32,60,61025ae37ef11b136ea224fe,,,,,,,,,902,95,-56,1,0,0,response3disk,,5,-3,-3,1,0,0,rectangle,-3,-3,1,0,0,-3,-3,1,0,0,1,106,266,95,1,,,,,,,,
,,,,,,,,,,,,,FF,,,,,,,,1.439,,,,,,,,,,,,,,,,,,,,,,60fdb05e9fae758192d21a0e,61036d31829a4681139ef793,2021-07-29_20h09.27.314,Simcolourproject_2stim_asymm_v5,2020.2.10,Win32,60,61025ae37ef11b136ea224fe,,,,,,,,,1662,33,-108,1,0,0,response3disk,,4,-7,-6,1,0,0,rectangle,-7,-6,1,0,0,-7,-6,1,0,0,1,107,267,65,1,,,,,,,,
,,,,,,,,,,,,,FF,,,,,,,,1.094,,,,,,,,,,,,,,,,,,,,,,60fdb05e9fae758192d21a0e,61036d31829a4681139ef793,2021-07-29_20h09.27.314,Simcolourproject_2stim_asymm_v5,2020.2.10,Win32,60,61025ae37ef11b136ea224fe,,,,,,,,,1452,-113,64,1,0,0,response7disk,,1,-40,6,1,0,0,rectangle,-40,6,1,0,0,-40,6,1,0,0,1,108,268,83,1,,,,,,,,
,,,,,,,,,,,,,FF,,,,,,,,1.733,,,,,,,,,,,,,,,,,,,,,,60fdb05e9fae758192d21a0e,61036d31829a4681139ef793,2021-07-29_20h09.27.314,Simcolourproject_2stim_asymm_v5,2020.2.10,Win32,60,61025ae37ef11b136ea224fe,,,,,,,,,2241,103,-73,1,0,0,response3disk,,5,-12,12,1,0,0,rectangle,-12,12,1,0,0,-12,12,1,0,0,1,109,269,70,1,,,,,,,,
,,,,,,,,,,,,,FF,,,,,,,,0.9,,,,,,,,,,,,,,,,,,,,,,60fdb05e9fae758192d21a0e,61036d31829a4681139ef793,2021-07-29_20h09.27.314,Simcolourproject_2stim_asymm_v5,2020.2.10,Win32,60,61025ae37ef11b136ea224fe,,,,,,,,,2273,49,123,1,0,0,response1disk,,7,-18,-16,1,0,0,rectangle,43,123,1,0,0,1,-5,1,0,0,1,110,270,144,1,,response1disk_3,TRUE,7,7,"[253,123,191,294,271,127,260,264,198,133,304,27,113,92,13,109,242,222,195,196]",1.452,rectangle
,,,,,,,,,,,,,FF,,,,,,,,1.111,,,,,,,,,,,,,,,,,,,,,,60fdb05e9fae758192d21a0e,61036d31829a4681139ef793,2021-07-29_20h09.27.314,Simcolourproject_2stim_asymm_v5,2020.2.10,Win32,60,61025ae37ef11b136ea224fe,,,,,,,,,2504,38,80,1,0,0,response1disk,,7,-5,-3,1,0,0,rectangle,-5,-3,1,0,0,-5,-3,1,0,0,1,111,271,104,1,,,,,,,,
,,,,,,,,,,,,,FF,,,,,,,,0.867,,,,,,,,,,,,,,,,,,,,,,60fdb05e9fae758192d21a0e,61036d31829a4681139ef793,2021-07-29_20h09.27.314,Simcolourproject_2stim_asymm_v5,2020.2.10,Win32,60,61025ae37ef11b136ea224fe,,,,,,,,,1304,-108,69,1,0,0,response7disk,,1,-14,0,1,0,0,rectangle,-14,0,1,0,0,-14,0,1,0,0,1,112,272,68,1,,,,,,,,
,,,,,,,,,,,,,FF,,,,,,,,1.17,,,,,,,,,,,,,,,,,,,,,,60fdb05e9fae758192d21a0e,61036d31829a4681139ef793,2021-07-29_20h09.27.314,Simcolourproject_2stim_asymm_v5,2020.2.10,Win32,60,61025ae37ef11b136ea224fe,,,,,,,,,1892,-109,40,1,0,0,response7disk,,1,1,-1,1,0,0,rectangle,1,-1,1,0,0,1,-1,1,0,0,1,113,273,38,1,,,,,,,,
,,,,,,,,,,,,,FF,,,,,,,,0.82,,,,,,,,,,,,,,,,,,,,,,60fdb05e9fae758192d21a0e,61036d31829a4681139ef793,2021-07-29_20h09.27.314,Simcolourproject_2stim_asymm_v5,2020.2.10,Win32,60,61025ae37ef11b136ea224fe,,,,,,,,,3180,43,87,1,0,0,response1disk,,7,-17,-18,1,0,0,rectangle,-17,-18,1,0,0,-17,-18,1,0,0,1,114,274,93,1,,,,,,,,
,,,,,,,,,,,,,FF,,,,,,,,1.551,,,,,,,,,,,,,,,,,,,,,,60fdb05e9fae758192d21a0e,61036d31829a4681139ef793,2021-07-29_20h09.27.314,Simcolourproject_2stim_asymm_v5,2020.2.10,Win32,60,61025ae37ef11b136ea224fe,,,,,,,,,701,65,-84,1,0,0,response3disk,,4,-12,7,1,0,0,rectangle,-12,7,1,0,0,-12,7,1,0,0,1,115,275,84,1,,,,,,,,
,,,,,,,,,,,,,FF,,,,,,,,1.296,,,,,,,,,,,,,,,,,,,,,,60fdb05e9fae758192d21a0e,61036d31829a4681139ef793,2021-07-29_20h09.27.314,Simcolourproject_2stim_asymm_v5,2020.2.10,Win32,60,61025ae37ef11b136ea224fe,,,,,,,,,1293,-89,-50,1,0,0,response5disk,,2,-7,9,1,0,0,rectangle,-7,9,1,0,0,-7,9,1,0,0,1,116,276,56,1,,,,,,,,
,,,,,,,,,,,,,FF,,,,,,,,1.149,,,,,,,,,,,,,,,,,,,,,,60fdb05e9fae758192d21a0e,61036d31829a4681139ef793,2021-07-29_20h09.27.314,Simcolourproject_2stim_asymm_v5,2020.2.10,Win32,60,61025ae37ef11b136ea224fe,,,,,,,,,3488,-94,-29,1,0,0,response5disk,,2,-12,0,1,0,0,rectangle,-12,0,1,0,0,-12,0,1,0,0,1,117,277,61,1,,,,,,,,
,,,,,,,,,,,,,FF,,,,,,,,0.805,,,,,,,,,,,,,,,,,,,,,,60fdb05e9fae758192d21a0e,61036d31829a4681139ef793,2021-07-29_20h09.27.314,Simcolourproject_2stim_asymm_v5,2020.2.10,Win32,60,61025ae37ef11b136ea224fe,,,,,,,,,3035,42,84,1,0,0,response1disk,,7,5,-3,1,0,0,rectangle,5,-3,1,0,0,5,-3,1,0,0,1,118,278,11,1,,,,,,,,
,,,,,,,,,,,,,FF,,,,,,,,1.4,,,,,,,,,,,,,,,,,,,,,,60fdb05e9fae758192d21a0e,61036d31829a4681139ef793,2021-07-29_20h09.27.314,Simcolourproject_2stim_asymm_v5,2020.2.10,Win32,60,61025ae37ef11b136ea224fe,,,,,,,,,1584,96,44,1,0,0,response1disk,,6,11,0,1,0,0,rectangle,11,0,1,0,0,11,0,1,0,0,1,119,279,102,1,,,,,,,,
,,,,,,,,,,,,,FF,,,,,,,,1.941,,,,,,,,,,,,,,,,,,,,,,60fdb05e9fae758192d21a0e,61036d31829a4681139ef793,2021-07-29_20h09.27.314,Simcolourproject_2stim_asymm_v5,2020.2.10,Win32,60,61025ae37ef11b136ea224fe,,,,,,,,,1749,-118,-58,1,0,0,response5disk,,2,4,-10,1,0,0,rectangle,4,-10,1,0,0,4,-10,1,0,0,1,120,280,148,1,,,,,,,,
,,,,,,,,,,,,,FF,,,,,,,,1.522,,,,,,,,,,,,,,,,,,,,,,60fdb05e9fae758192d21a0e,61036d31829a4681139ef793,2021-07-29_20h09.27.314,Simcolourproject_2stim_asymm_v5,2020.2.10,Win32,60,61025ae37ef11b136ea224fe,,,,,,,,,130,55,108,1,0,0,response1disk,,7,-3,-4,1,0,0,rectangle,-3,-4,1,0,0,-3,-4,1,0,0,1,121,281,159,1,,,,,,,,
,,,,,,,,,,,,,FF,,,,,,,,1.285,,,,,,,,,,,,,,,,,,,,,,60fdb05e9fae758192d21a0e,61036d31829a4681139ef793,2021-07-29_20h09.27.314,Simcolourproject_2stim_asymm_v5,2020.2.10,Win32,60,61025ae37ef11b136ea224fe,,,,,,,,,3580,50,111,1,0,0,response1disk,,7,-23,-1,1,0,0,rectangle,-23,-1,1,0,0,-23,-1,1,0,0,1,122,282,24,1,,,,,,,,
,,,,,,,,,,,,,FF,,,,,,,,1.577,,,,,,,,,,,,,,,,,,,,,,60fdb05e9fae758192d21a0e,61036d31829a4681139ef793,2021-07-29_20h09.27.314,Simcolourproject_2stim_asymm_v5,2020.2.10,Win32,60,61025ae37ef11b136ea224fe,,,,,,,,,2220,35,-101,1,0,0,response3disk,,4,3,-5,1,0,0,rectangle,3,-5,1,0,0,3,-5,1,0,0,1,123,283,34,1,,,,,,,,
,,,,,,,,,,,,,FF,,,,,,,,1.534,,,,,,,,,,,,,,,,,,,,,,60fdb05e9fae758192d21a0e,61036d31829a4681139ef793,2021-07-29_20h09.27.314,Simcolourproject_2stim_asymm_v5,2020.2.10,Win32,60,61025ae37ef11b136ea224fe,,,,,,,,,4007,39,-105,1,0,0,response3disk,,4,-9,-14,1,0,0,rectangle,-9,-14,1,0,0,-9,-14,1,0,0,1,124,284,43,1,,,,,,,,
,,,,,,,,,,,,,FF,,,,,,,,1.41,,,,,,,,,,,,,,,,,,,,,,60fdb05e9fae758192d21a0e,61036d31829a4681139ef793,2021-07-29_20h09.27.314,Simcolourproject_2stim_asymm_v5,2020.2.10,Win32,60,61025ae37ef11b136ea224fe,,,,,,,,,838,117,34,1,0,0,response1disk,,6,-20,-4,1,0,0,rectangle,-20,-4,1,0,0,-20,-4,1,0,0,1,125,285,134,1,,,,,,,,
,,,,,,,,,,,,,FF,,,,,,,,1.59,,,,,,,,,,,,,,,,,,,,,,60fdb05e9fae758192d21a0e,61036d31829a4681139ef793,2021-07-29_20h09.27.314,Simcolourproject_2stim_asymm_v5,2020.2.10,Win32,60,61025ae37ef11b136ea224fe,,,,,,,,,2692,33,89,1,0,0,response1disk,,7,-1,-5,1,0,0,rectangle,-1,-5,1,0,0,-1,-5,1,0,0,1,126,286,135,1,,,,,,,,
,,,,,,,,,,,,,FF,,,,,,,,0.998,,,,,,,,,,,,,,,,,,,,,,60fdb05e9fae758192d21a0e,61036d31829a4681139ef793,2021-07-29_20h09.27.314,Simcolourproject_2stim_asymm_v5,2020.2.10,Win32,60,61025ae37ef11b136ea224fe,,,,,,,,,2302,-34,-83,1,0,0,response5disk,,3,16,-12,1,0,0,rectangle,16,-12,1,0,0,16,-12,1,0,0,1,127,287,8,1,,,,,,,,
,,,,,,,,,,,,,FF,,,,,,,,0.791,,,,,,,,,,,,,,,,,,,,,,60fdb05e9fae758192d21a0e,61036d31829a4681139ef793,2021-07-29_20h09.27.314,Simcolourproject_2stim_asymm_v5,2020.2.10,Win32,60,61025ae37ef11b136ea224fe,,,,,,,,,2948,-109,36,1,0,0,response7disk,,1,-18,3,1,0,0,rectangle,-18,3,1,0,0,-18,3,1,0,0,1,128,288,147,1,,,,,,,,
,,,,,,,,,,,,,FF,,,,,,,,1.708,,,,,,,,,,,,,,,,,,,,,,60fdb05e9fae758192d21a0e,61036d31829a4681139ef793,2021-07-29_20h09.27.314,Simcolourproject_2stim_asymm_v5,2020.2.10,Win32,60,61025ae37ef11b136ea224fe,,,,,,,,,1848,115,-47,1,0,0,response3disk,,5,19,-1,1,0,0,rectangle,19,-1,1,0,0,19,-1,1,0,0,1,129,289,88,1,,,,,,,,
,,,,,,,,,,,,,FF,,,,,,,,0.85,,,,,,,,,,,,,,,,,,,,,,60fdb05e9fae758192d21a0e,61036d31829a4681139ef793,2021-07-29_20h09.27.314,Simcolourproject_2stim_asymm_v5,2020.2.10,Win32,60,61025ae37ef11b136ea224fe,,,,,,,,,2709,30,127,1,0,0,response1disk,,7,-7,-12,1,0,0,rectangle,-7,-12,1,0,0,-7,-12,1,0,0,1,130,290,75,1,,,,,,,,
,,,,,,,,,,,,,FF,,,,,,,,1.046,,,,,,,,,,,,,,,,,,,,,,60fdb05e9fae758192d21a0e,61036d31829a4681139ef793,2021-07-29_20h09.27.314,Simcolourproject_2stim_asymm_v5,2020.2.10,Win32,60,61025ae37ef11b136ea224fe,,,,,,,,,3052,-119,47,1,0,0,response7disk,,1,-13,-1,1,0,0,rectangle,-13,-1,1,0,0,-13,-1,1,0,0,1,131,291,71,1,,,,,,,,
,,,,,,,,,,,,,FF,,,,,,,,0.78,,,,,,,,,,,,,,,,,,,,,,60fdb05e9fae758192d21a0e,61036d31829a4681139ef793,2021-07-29_20h09.27.314,Simcolourproject_2stim_asymm_v5,2020.2.10,Win32,60,61025ae37ef11b136ea224fe,,,,,,,,,3288,55,101,1,0,0,response1disk,,7,19,7,1,0,0,rectangle,19,7,1,0,0,19,7,1,0,0,1,132,292,22,1,,,,,,,,
,,,,,,,,,,,,,FF,,,,,,,,2.151,,,,,,,,,,,,,,,,,,,,,,60fdb05e9fae758192d21a0e,61036d31829a4681139ef793,2021-07-29_20h09.27.314,Simcolourproject_2stim_asymm_v5,2020.2.10,Win32,60,61025ae37ef11b136ea224fe,,,,,,,,,2048,90,-62,1,0,0,response3disk,,5,17,3,1,0,0,rectangle,113,-62,1,0,0,4,-1,1,0,0,1,133,293,85,1,,response3disk_3,TRUE,5,5,"[253,123,191,294,271,127,260,264,198,133,304,27,113,92,13,109,242,222,195,196]",1.606,rectangle
,,,,,,,,,,,,,FF,,,,,,,,1.281,,,,,,,,,,,,,,,,,,,,,,60fdb05e9fae758192d21a0e,61036d31829a4681139ef793,2021-07-29_20h09.27.314,Simcolourproject_2stim_asymm_v5,2020.2.10,Win32,60,61025ae37ef11b136ea224fe,,,,,,,,,3601,-52,-107,1,0,0,response5disk,,3,-11,6,1,0,0,rectangle,-11,6,1,0,0,-11,6,1,0,0,1,134,294,107,1,,,,,,,,
,,,,,,,,,,,,,FF,,,,,,,,1.305,,,,,,,,,,,,,,,,,,,,,,60fdb05e9fae758192d21a0e,61036d31829a4681139ef793,2021-07-29_20h09.27.314,Simcolourproject_2stim_asymm_v5,2020.2.10,Win32,60,61025ae37ef11b136ea224fe,,,,,,,,,819,-57,-116,1,0,0,response5disk,,3,7,0,1,0,0,rectangle,7,0,1,0,0,7,0,1,0,0,1,135,295,138,1,,,,,,,,
,,,,,,,,,,,,,FF,,,,,,,,2.566,,,,,,,,,,,,,,,,,,,,,,60fdb05e9fae758192d21a0e,61036d31829a4681139ef793,2021-07-29_20h09.27.314,Simcolourproject_2stim_asymm_v5,2020.2.10,Win32,60,61025ae37ef11b136ea224fe,,,,,,,,,1853,65,126,1,0,0,response1disk,,7,9,-2,1,0,0,rectangle,9,-2,1,0,0,9,-2,1,0,0,1,136,296,129,1,,,,,,,,
,,,,,,,,,,,,,FF,,,,,,,,0.938,,,,,,,,,,,,,,,,,,,,,,60fdb05e9fae758192d21a0e,61036d31829a4681139ef793,2021-07-29_20h09.27.314,Simcolourproject_2stim_asymm_v5,2020.2.10,Win32,60,61025ae37ef11b136ea224fe,,,,,,,,,4292,42,101,1,0,0,response1disk,,7,4,-9,1,0,0,rectangle,4,-9,1,0,0,4,-9,1,0,0,1,137,297,109,1,,,,,,,,
,,,,,,,,,,,,,FF,,,,,,,,0.937,,,,,,,,,,,,,,,,,,,,,,60fdb05e9fae758192d21a0e,61036d31829a4681139ef793,2021-07-29_20h09.27.314,Simcolourproject_2stim_asymm_v5,2020.2.10,Win32,60,61025ae37ef11b136ea224fe,,,,,,,,,1077,108,-49,1,0,0,response3disk,,5,25,-9,1,0,0,rectangle,25,-9,1,0,0,25,-9,1,0,0,1,138,298,27,1,,,,,,,,
,,,,,,,,,,,,,FF,,,,,,,,1.608,,,,,,,,,,,,,,,,,,,,,,60fdb05e9fae758192d21a0e,61036d31829a4681139ef793,2021-07-29_20h09.27.314,Simcolourproject_2stim_asymm_v5,2020.2.10,Win32,60,61025ae37ef11b136ea224fe,,,,,,,,,2695,-44,-71,1,0,0,response5disk,,3,-7,5,1,0,0,rectangle,-7,5,1,0,0,-7,5,1,0,0,1,139,299,58,1,,,,,,,,
,,,,,,,,,,,,,FF,,,,,,,,0.981,,,,,,,,,,,,,,,,,,,,,,60fdb05e9fae758192d21a0e,61036d31829a4681139ef793,2021-07-29_20h09.27.314,Simcolourproject_2stim_asymm_v5,2020.2.10,Win32,60,61025ae37ef11b136ea224fe,,,,,,,,,2299,-78,49,1,0,0,response7disk,,1,-1,7,1,0,0,rectangle,-1,7,1,0,0,-1,7,1,0,0,1,140,300,4,1,,,,,,,,
,,,,,,,,,,,,,FF,,,,,,,,1.089,,,,,,,,,,,,,,,,,,,,,,60fdb05e9fae758192d21a0e,61036d31829a4681139ef793,2021-07-29_20h09.27.314,Simcolourproject_2stim_asymm_v5,2020.2.10,Win32,60,61025ae37ef11b136ea224fe,,,,,,,,,1308,-52,-121,1,0,0,response5disk,,3,-12,0,1,0,0,rectangle,-12,0,1,0,0,-12,0,1,0,0,1,141,301,37,1,,,,,,,,
