key_resp.keys,key_resp.rt,key_resp_14.keys,key_resp_14.rt,key_resp_15.keys,key_resp_15.rt,key_resp_17.keys,key_resp_17.rt,key_resp_9.keys,key_resp_9.rt,key_resp_10.keys,key_resp_10.rt,practice_comparison,Ecc,mouse_5.x,mouse_5.y,mouse_5.leftButton,mouse_5.midButton,mouse_5.rightButton,mouse_5.clicked_name,pracsimilarity,response_time,mouse_10.x,mouse_10.y,mouse_10.leftButton,mouse_10.midButton,mouse_10.rightButton,mouse_10.clicked_name,mouse_7.x,mouse_7.y,mouse_7.leftButton,mouse_7.midButton,mouse_7.rightButton,mouse_6.x,mouse_6.y,mouse_6.leftButton,mouse_6.midButton,mouse_6.rightButton,duringprac.thisRepN,duringprac.thisTrialN,duringprac.thisN,duringprac.thisIndex,duringprac.ran,participant,session,date,expName,psychopyVersion,OS,frameRate,study_id,mouse_7.clicked_name,catchpracsimilarity,catch_response_time,catchnumberprac,catchtrialorderprac,mouse_6.clicked_name,key_resp_22.keys,key_resp_22.rt,realcomparison,mouse.x,mouse.y,mouse.leftButton,mouse.midButton,mouse.rightButton,mouse.clicked_name,Colour2,similarity,mouse_2.x,mouse_2.y,mouse_2.leftButton,mouse_2.midButton,mouse_2.rightButton,mouse_2.clicked_name,mouse_3.x,mouse_3.y,mouse_3.leftButton,mouse_3.midButton,mouse_3.rightButton,mouse_11.x,mouse_11.y,mouse_11.leftButton,mouse_11.midButton,mouse_11.rightButton,trials_2.thisRepN,trials_2.thisTrialN,trials_2.thisN,trials_2.thisIndex,trials_2.ran,Colour1,mouse_3.clicked_name,catchornah,catchsimilarity,catchnumber,catchtrialorder,catchRT,mouse_11.clicked_name
space,2.9012,space,15.9855,space,226.7346,space,238.8905,space,0.219,space,4.7733,79,FF,-71,28,1,0,0,response7disk_5,1,3.118,3,5,1,0,0,rectangle_8,3,5,1,0,0,3,5,1,0,0,0,0,0,3,1,60fd054e01eea24cbe66aece,610371865c71bc937b21ddf9,2021-07-30_00h07.37.431,Simcolourproject_2stim_asymm_v5,2020.2.10,Win32,60,61025ae37ef11b136ea224fe,,,,,,,,,,,,,,,,,,,,,,,,,,,,,,,,,,,,,,,,,,,,,,
,,,,,,,,,,,,149,FF,56,27,1,0,0,response1disk_5,6,3.9638,-2,-10,1,0,0,rectangle_8,43,77,1,0,0,0,5,1,0,0,0,1,1,5,1,60fd054e01eea24cbe66aece,610371865c71bc937b21ddf9,2021-07-30_00h07.37.431,Simcolourproject_2stim_asymm_v5,2020.2.10,Win32,60,61025ae37ef11b136ea224fe,response1disk_7,7,2.8656,7,"[2,5]",rectangle_4,,,,,,,,,,,,,,,,,,,,,,,,,,,,,,,,,,,,,,,,
,,,,,,,,,,,,104,PF,43,52,1,0,0,response1disk_5,7,3.0817,5,5,1,0,0,rectangle_8,5,5,1,0,0,5,5,1,0,0,0,2,2,6,1,60fd054e01eea24cbe66aece,610371865c71bc937b21ddf9,2021-07-30_00h07.37.431,Simcolourproject_2stim_asymm_v5,2020.2.10,Win32,60,61025ae37ef11b136ea224fe,,,,,,,,,,,,,,,,,,,,,,,,,,,,,,,,,,,,,,,,,,,,,,
,,,,,,,,,,,,70,PF,44,-87,1,0,0,response3disk_5,4,2.5749,6,9,1,0,0,rectangle_8,6,9,1,0,0,6,9,1,0,0,0,3,3,2,1,60fd054e01eea24cbe66aece,610371865c71bc937b21ddf9,2021-07-30_00h07.37.431,Simcolourproject_2stim_asymm_v5,2020.2.10,Win32,60,61025ae37ef11b136ea224fe,,,,,,,,,,,,,,,,,,,,,,,,,,,,,,,,,,,,,,,,,,,,,,
,,,,,,,,,,,,49,FF,66,-44,1,0,0,response3disk_5,5,1.066,2,1,1,0,0,rectangle_8,40,76,1,0,0,-4,-4,1,0,0,0,4,4,0,1,60fd054e01eea24cbe66aece,610371865c71bc937b21ddf9,2021-07-30_00h07.37.431,Simcolourproject_2stim_asymm_v5,2020.2.10,Win32,60,61025ae37ef11b136ea224fe,response1disk_7,7,1.953,7,"[2,5]",rectangle_4,,,,,,,,,,,,,,,,,,,,,,,,,,,,,,,,,,,,,,,,
,,,,,,,,,,,,52,PF,34,-54,1,0,0,response3disk_5,4,2.1979,-10,6,1,0,0,rectangle_8,-10,6,1,0,0,-10,6,1,0,0,0,5,5,4,1,60fd054e01eea24cbe66aece,610371865c71bc937b21ddf9,2021-07-30_00h07.37.431,Simcolourproject_2stim_asymm_v5,2020.2.10,Win32,60,61025ae37ef11b136ea224fe,,,,,,,,,,,,,,,,,,,,,,,,,,,,,,,,,,,,,,,,,,,,,,
,,,,,,,,,,,,114,PF,-21,-91,1,0,0,response5disk_5,3,4.7756,1,-5,1,0,0,rectangle_8,1,-5,1,0,0,1,-5,1,0,0,0,6,6,1,1,60fd054e01eea24cbe66aece,610371865c71bc937b21ddf9,2021-07-30_00h07.37.431,Simcolourproject_2stim_asymm_v5,2020.2.10,Win32,60,61025ae37ef11b136ea224fe,,,,,,,,,,,,,,,,,,,,,,,,,,,,,,,,,,,,,,,,,,,,,,
,,,,,,,,,,,,,FF,,,,,,,,1.8989,,,,,,,,,,,,,,,,,,,,,,60fd054e01eea24cbe66aece,610371865c71bc937b21ddf9,2021-07-30_00h07.37.431,Simcolourproject_2stim_asymm_v5,2020.2.10,Win32,60,61025ae37ef11b136ea224fe,,,,,,,space,4.7343,933,34,58,1,0,0,response1disk,,7,-7,-2,1,0,0,rectangle,-7,-2,1,0,0,-7,-2,1,0,0,0,0,0,112,1,,,,,,,,
,,,,,,,,,,,,,FF,,,,,,,,2.3495,,,,,,,,,,,,,,,,,,,,,,60fd054e01eea24cbe66aece,610371865c71bc937b21ddf9,2021-07-30_00h07.37.431,Simcolourproject_2stim_asymm_v5,2020.2.10,Win32,60,61025ae37ef11b136ea224fe,,,,,,,,,3797,70,-24,1,0,0,response3disk,,5,1,2,1,0,0,rectangle,83,37,1,0,0,-11,-8,1,0,0,0,1,1,83,1,,response1disk_3,TRUE,6,6,"[95,165,42,122,25,87,180,220,318,189,296,258,201,35,129,15,26,2,258,115]",1.829,rectangle
,,,,,,,,,,,,,FF,,,,,,,,1.7029,,,,,,,,,,,,,,,,,,,,,,60fd054e01eea24cbe66aece,610371865c71bc937b21ddf9,2021-07-30_00h07.37.431,Simcolourproject_2stim_asymm_v5,2020.2.10,Win32,60,61025ae37ef11b136ea224fe,,,,,,,,,2541,-76,23,1,0,0,response7disk,,1,12,2,1,0,0,rectangle,12,2,1,0,0,12,2,1,0,0,0,2,2,96,1,,,,,,,,
,,,,,,,,,,,,,FF,,,,,,,,1.5154,,,,,,,,,,,,,,,,,,,,,,60fd054e01eea24cbe66aece,610371865c71bc937b21ddf9,2021-07-30_00h07.37.431,Simcolourproject_2stim_asymm_v5,2020.2.10,Win32,60,61025ae37ef11b136ea224fe,,,,,,,,,3921,-47,-82,1,0,0,response5disk,,3,13,3,1,0,0,rectangle,13,3,1,0,0,13,3,1,0,0,0,3,3,21,1,,,,,,,,
,,,,,,,,,,,,,FF,,,,,,,,1.9175,,,,,,,,,,,,,,,,,,,,,,60fd054e01eea24cbe66aece,610371865c71bc937b21ddf9,2021-07-30_00h07.37.431,Simcolourproject_2stim_asymm_v5,2020.2.10,Win32,60,61025ae37ef11b136ea224fe,,,,,,,,,1621,41,-99,1,0,0,response3disk,,4,-6,4,1,0,0,rectangle,-6,4,1,0,0,-6,4,1,0,0,0,4,4,113,1,,,,,,,,
,,,,,,,,,,,,,FF,,,,,,,,1.3378,,,,,,,,,,,,,,,,,,,,,,60fd054e01eea24cbe66aece,610371865c71bc937b21ddf9,2021-07-30_00h07.37.431,Simcolourproject_2stim_asymm_v5,2020.2.10,Win32,60,61025ae37ef11b136ea224fe,,,,,,,,,656,63,-31,1,0,0,response3disk,,5,-3,0,1,0,0,rectangle,-3,0,1,0,0,-3,0,1,0,0,0,5,5,6,1,,,,,,,,
,,,,,,,,,,,,,FF,,,,,,,,1.4838,,,,,,,,,,,,,,,,,,,,,,60fd054e01eea24cbe66aece,610371865c71bc937b21ddf9,2021-07-30_00h07.37.431,Simcolourproject_2stim_asymm_v5,2020.2.10,Win32,60,61025ae37ef11b136ea224fe,,,,,,,,,3095,63,-33,1,0,0,response3disk,,5,-1,0,1,0,0,rectangle,-1,0,1,0,0,-1,0,1,0,0,0,6,6,48,1,,,,,,,,
,,,,,,,,,,,,,FF,,,,,,,,2.8119,,,,,,,,,,,,,,,,,,,,,,60fd054e01eea24cbe66aece,610371865c71bc937b21ddf9,2021-07-30_00h07.37.431,Simcolourproject_2stim_asymm_v5,2020.2.10,Win32,60,61025ae37ef11b136ea224fe,,,,,,,,,1261,45,-26,1,0,0,response3disk,,5,3,10,1,0,0,rectangle,3,10,1,0,0,3,10,1,0,0,0,7,7,128,1,,,,,,,,
,,,,,,,,,,,,,FF,,,,,,,,1.5983,,,,,,,,,,,,,,,,,,,,,,60fd054e01eea24cbe66aece,610371865c71bc937b21ddf9,2021-07-30_00h07.37.431,Simcolourproject_2stim_asymm_v5,2020.2.10,Win32,60,61025ae37ef11b136ea224fe,,,,,,,,,72,-39,-68,1,0,0,response5disk,,3,-1,-6,1,0,0,rectangle,-1,-6,1,0,0,-1,-6,1,0,0,0,8,8,7,1,,,,,,,,
,,,,,,,,,,,,,FF,,,,,,,,1.7987,,,,,,,,,,,,,,,,,,,,,,60fd054e01eea24cbe66aece,610371865c71bc937b21ddf9,2021-07-30_00h07.37.431,Simcolourproject_2stim_asymm_v5,2020.2.10,Win32,60,61025ae37ef11b136ea224fe,,,,,,,,,1704,71,29,1,0,0,response1disk,,6,1,-1,1,0,0,rectangle,1,-1,1,0,0,1,-1,1,0,0,0,9,9,24,1,,,,,,,,
,,,,,,,,,,,,,FF,,,,,,,,1.2734,,,,,,,,,,,,,,,,,,,,,,60fd054e01eea24cbe66aece,610371865c71bc937b21ddf9,2021-07-30_00h07.37.431,Simcolourproject_2stim_asymm_v5,2020.2.10,Win32,60,61025ae37ef11b136ea224fe,,,,,,,,,2052,75,27,1,0,0,response1disk,,6,-7,-2,1,0,0,rectangle,-7,-2,1,0,0,-7,-2,1,0,0,0,10,10,13,1,,,,,,,,
,,,,,,,,,,,,,FF,,,,,,,,1.8149,,,,,,,,,,,,,,,,,,,,,,60fd054e01eea24cbe66aece,610371865c71bc937b21ddf9,2021-07-30_00h07.37.431,Simcolourproject_2stim_asymm_v5,2020.2.10,Win32,60,61025ae37ef11b136ea224fe,,,,,,,,,288,32,-41,1,0,0,response3disk,,4,-6,6,1,0,0,rectangle,-6,6,1,0,0,-6,6,1,0,0,0,11,11,91,1,,,,,,,,
,,,,,,,,,,,,,FF,,,,,,,,1.6152,,,,,,,,,,,,,,,,,,,,,,60fd054e01eea24cbe66aece,610371865c71bc937b21ddf9,2021-07-30_00h07.37.431,Simcolourproject_2stim_asymm_v5,2020.2.10,Win32,60,61025ae37ef11b136ea224fe,,,,,,,,,3650,44,-26,1,0,0,response3disk,,5,-1,7,1,0,0,rectangle,-1,7,1,0,0,-1,7,1,0,0,0,12,12,107,1,,,,,,,,
,,,,,,,,,,,,,FF,,,,,,,,1.582,,,,,,,,,,,,,,,,,,,,,,60fd054e01eea24cbe66aece,610371865c71bc937b21ddf9,2021-07-30_00h07.37.431,Simcolourproject_2stim_asymm_v5,2020.2.10,Win32,60,61025ae37ef11b136ea224fe,,,,,,,,,92,31,-46,1,0,0,response3disk,,4,-5,8,1,0,0,rectangle,-5,8,1,0,0,-5,8,1,0,0,0,13,13,60,1,,,,,,,,
,,,,,,,,,,,,,FF,,,,,,,,2.7645,,,,,,,,,,,,,,,,,,,,,,60fd054e01eea24cbe66aece,610371865c71bc937b21ddf9,2021-07-30_00h07.37.431,Simcolourproject_2stim_asymm_v5,2020.2.10,Win32,60,61025ae37ef11b136ea224fe,,,,,,,,,1301,-55,-37,1,0,0,response5disk,,2,-3,-3,1,0,0,rectangle,40,77,1,0,0,-4,-6,1,0,0,0,14,14,40,1,,response1disk_3,TRUE,7,7,"[95,165,42,122,25,87,180,220,318,189,296,258,201,35,129,15,26,2,258,115]",1.6821,rectangle
,,,,,,,,,,,,,FF,,,,,,,,0.9992,,,,,,,,,,,,,,,,,,,,,,60fd054e01eea24cbe66aece,610371865c71bc937b21ddf9,2021-07-30_00h07.37.431,Simcolourproject_2stim_asymm_v5,2020.2.10,Win32,60,61025ae37ef11b136ea224fe,,,,,,,,,2929,63,-28,1,0,0,response3disk,,5,3,-8,1,0,0,rectangle,3,-8,1,0,0,3,-8,1,0,0,0,15,15,46,1,,,,,,,,
,,,,,,,,,,,,,FF,,,,,,,,1.7852,,,,,,,,,,,,,,,,,,,,,,60fd054e01eea24cbe66aece,610371865c71bc937b21ddf9,2021-07-30_00h07.37.431,Simcolourproject_2stim_asymm_v5,2020.2.10,Win32,60,61025ae37ef11b136ea224fe,,,,,,,,,2644,82,30,1,0,0,response1disk,,6,3,-1,1,0,0,rectangle,3,-1,1,0,0,3,-1,1,0,0,0,16,16,56,1,,,,,,,,
,,,,,,,,,,,,,FF,,,,,,,,2.1649,,,,,,,,,,,,,,,,,,,,,,60fd054e01eea24cbe66aece,610371865c71bc937b21ddf9,2021-07-30_00h07.37.431,Simcolourproject_2stim_asymm_v5,2020.2.10,Win32,60,61025ae37ef11b136ea224fe,,,,,,,,,379,42,-50,1,0,0,response3disk,,4,-5,2,1,0,0,rectangle,-5,2,1,0,0,-5,2,1,0,0,0,17,17,50,1,,,,,,,,
,,,,,,,,,,,,,FF,,,,,,,,1.8651,,,,,,,,,,,,,,,,,,,,,,60fd054e01eea24cbe66aece,610371865c71bc937b21ddf9,2021-07-30_00h07.37.431,Simcolourproject_2stim_asymm_v5,2020.2.10,Win32,60,61025ae37ef11b136ea224fe,,,,,,,,,3010,61,37,1,0,0,response1disk,,6,8,-3,1,0,0,rectangle,8,-3,1,0,0,8,-3,1,0,0,0,18,18,115,1,,,,,,,,
,,,,,,,,,,,,,FF,,,,,,,,1.1164,,,,,,,,,,,,,,,,,,,,,,60fd054e01eea24cbe66aece,610371865c71bc937b21ddf9,2021-07-30_00h07.37.431,Simcolourproject_2stim_asymm_v5,2020.2.10,Win32,60,61025ae37ef11b136ea224fe,,,,,,,,,2083,78,34,1,0,0,response1disk,,6,11,-5,1,0,0,rectangle,11,-5,1,0,0,11,-5,1,0,0,0,19,19,138,1,,,,,,,,
,,,,,,,,,,,,,FF,,,,,,,,0.9317,,,,,,,,,,,,,,,,,,,,,,60fd054e01eea24cbe66aece,610371865c71bc937b21ddf9,2021-07-30_00h07.37.431,Simcolourproject_2stim_asymm_v5,2020.2.10,Win32,60,61025ae37ef11b136ea224fe,,,,,,,,,1281,32,73,1,0,0,response1disk,,7,-2,-9,1,0,0,rectangle,-2,-9,1,0,0,-2,-9,1,0,0,0,20,20,159,1,,,,,,,,
,,,,,,,,,,,,,FF,,,,,,,,1.533,,,,,,,,,,,,,,,,,,,,,,60fd054e01eea24cbe66aece,610371865c71bc937b21ddf9,2021-07-30_00h07.37.431,Simcolourproject_2stim_asymm_v5,2020.2.10,Win32,60,61025ae37ef11b136ea224fe,,,,,,,,,3446,33,-77,1,0,0,response3disk,,4,3,11,1,0,0,rectangle,3,11,1,0,0,3,11,1,0,0,0,21,21,123,1,,,,,,,,
,,,,,,,,,,,,,FF,,,,,,,,1.6316,,,,,,,,,,,,,,,,,,,,,,60fd054e01eea24cbe66aece,610371865c71bc937b21ddf9,2021-07-30_00h07.37.431,Simcolourproject_2stim_asymm_v5,2020.2.10,Win32,60,61025ae37ef11b136ea224fe,,,,,,,,,2148,43,-22,1,0,0,response3disk,,5,-5,2,1,0,0,rectangle,-5,2,1,0,0,-5,2,1,0,0,0,22,22,11,1,,,,,,,,
,,,,,,,,,,,,,FF,,,,,,,,1.3662,,,,,,,,,,,,,,,,,,,,,,60fd054e01eea24cbe66aece,610371865c71bc937b21ddf9,2021-07-30_00h07.37.431,Simcolourproject_2stim_asymm_v5,2020.2.10,Win32,60,61025ae37ef11b136ea224fe,,,,,,,,,4257,39,55,1,0,0,response1disk,,7,-5,-8,1,0,0,rectangle,-5,-8,1,0,0,-5,-8,1,0,0,0,23,23,12,1,,,,,,,,
,,,,,,,,,,,,,FF,,,,,,,,1.7873,,,,,,,,,,,,,,,,,,,,,,60fd054e01eea24cbe66aece,610371865c71bc937b21ddf9,2021-07-30_00h07.37.431,Simcolourproject_2stim_asymm_v5,2020.2.10,Win32,60,61025ae37ef11b136ea224fe,,,,,,,,,4367,-69,41,1,0,0,response7disk,,1,17,-4,1,0,0,rectangle,-101,-33,1,0,0,5,7,1,0,0,0,24,24,65,1,,response5disk_3,TRUE,2,2,"[95,165,42,122,25,87,180,220,318,189,296,258,201,35,129,15,26,2,258,115]",1.6181,rectangle
,,,,,,,,,,,,,FF,,,,,,,,2.5147,,,,,,,,,,,,,,,,,,,,,,60fd054e01eea24cbe66aece,610371865c71bc937b21ddf9,2021-07-30_00h07.37.431,Simcolourproject_2stim_asymm_v5,2020.2.10,Win32,60,61025ae37ef11b136ea224fe,,,,,,,,,2475,50,-33,1,0,0,response3disk,,5,-2,4,1,0,0,rectangle,92,39,1,0,0,0,-6,1,0,0,0,25,25,139,1,,response1disk_3,TRUE,6,6,"[95,165,42,122,25,87,180,220,318,189,296,258,201,35,129,15,26,2,258,115]",1.583,rectangle
,,,,,,,,,,,,,FF,,,,,,,,2.8312,,,,,,,,,,,,,,,,,,,,,,60fd054e01eea24cbe66aece,610371865c71bc937b21ddf9,2021-07-30_00h07.37.431,Simcolourproject_2stim_asymm_v5,2020.2.10,Win32,60,61025ae37ef11b136ea224fe,,,,,,,,,505,41,-27,1,0,0,response3disk,,5,-1,-1,1,0,0,rectangle,-1,-1,1,0,0,-1,-1,1,0,0,0,26,26,39,1,,,,,,,,
,,,,,,,,,,,,,FF,,,,,,,,1.9494,,,,,,,,,,,,,,,,,,,,,,60fd054e01eea24cbe66aece,610371865c71bc937b21ddf9,2021-07-30_00h07.37.431,Simcolourproject_2stim_asymm_v5,2020.2.10,Win32,60,61025ae37ef11b136ea224fe,,,,,,,,,1365,59,-22,1,0,0,response3disk,,5,3,-7,1,0,0,rectangle,3,-7,1,0,0,3,-7,1,0,0,0,27,27,17,1,,,,,,,,
,,,,,,,,,,,,,FF,,,,,,,,1.5044,,,,,,,,,,,,,,,,,,,,,,60fd054e01eea24cbe66aece,610371865c71bc937b21ddf9,2021-07-30_00h07.37.431,Simcolourproject_2stim_asymm_v5,2020.2.10,Win32,60,61025ae37ef11b136ea224fe,,,,,,,,,3050,-47,-30,1,0,0,response5disk,,2,12,3,1,0,0,rectangle,12,3,1,0,0,12,3,1,0,0,0,28,28,132,1,,,,,,,,
,,,,,,,,,,,,,FF,,,,,,,,1.5296,,,,,,,,,,,,,,,,,,,,,,60fd054e01eea24cbe66aece,610371865c71bc937b21ddf9,2021-07-30_00h07.37.431,Simcolourproject_2stim_asymm_v5,2020.2.10,Win32,60,61025ae37ef11b136ea224fe,,,,,,,,,1861,66,35,1,0,0,response1disk,,6,-5,-3,1,0,0,rectangle,-5,-3,1,0,0,-5,-3,1,0,0,0,29,29,80,1,,,,,,,,
,,,,,,,,,,,,,FF,,,,,,,,1.8985,,,,,,,,,,,,,,,,,,,,,,60fd054e01eea24cbe66aece,610371865c71bc937b21ddf9,2021-07-30_00h07.37.431,Simcolourproject_2stim_asymm_v5,2020.2.10,Win32,60,61025ae37ef11b136ea224fe,,,,,,,,,1532,31,-55,1,0,0,response3disk,,4,9,4,1,0,0,rectangle,9,4,1,0,0,9,4,1,0,0,0,30,30,101,1,,,,,,,,
,,,,,,,,,,,,,FF,,,,,,,,2.1294,,,,,,,,,,,,,,,,,,,,,,60fd054e01eea24cbe66aece,610371865c71bc937b21ddf9,2021-07-30_00h07.37.431,Simcolourproject_2stim_asymm_v5,2020.2.10,Win32,60,61025ae37ef11b136ea224fe,,,,,,,,,4236,-33,-62,1,0,0,response5disk,,3,13,11,1,0,0,rectangle,13,11,1,0,0,13,11,1,0,0,0,31,31,126,1,,,,,,,,
,,,,,,,,,,,,,FF,,,,,,,,2.2981,,,,,,,,,,,,,,,,,,,,,,60fd054e01eea24cbe66aece,610371865c71bc937b21ddf9,2021-07-30_00h07.37.431,Simcolourproject_2stim_asymm_v5,2020.2.10,Win32,60,61025ae37ef11b136ea224fe,,,,,,,,,2511,54,31,1,0,0,response1disk,,6,2,-5,1,0,0,rectangle,2,-5,1,0,0,2,-5,1,0,0,0,32,32,131,1,,,,,,,,
,,,,,,,,,,,,,FF,,,,,,,,1.0316,,,,,,,,,,,,,,,,,,,,,,60fd054e01eea24cbe66aece,610371865c71bc937b21ddf9,2021-07-30_00h07.37.431,Simcolourproject_2stim_asymm_v5,2020.2.10,Win32,60,61025ae37ef11b136ea224fe,,,,,,,,,2603,-43,-61,1,0,0,response5disk,,3,12,10,1,0,0,rectangle,12,10,1,0,0,12,10,1,0,0,0,33,33,143,1,,,,,,,,
,,,,,,,,,,,,,FF,,,,,,,,1.5402,,,,,,,,,,,,,,,,,,,,,,60fd054e01eea24cbe66aece,610371865c71bc937b21ddf9,2021-07-30_00h07.37.431,Simcolourproject_2stim_asymm_v5,2020.2.10,Win32,60,61025ae37ef11b136ea224fe,,,,,,,,,3889,36,-69,1,0,0,response3disk,,4,0,6,1,0,0,rectangle,65,-45,1,0,0,12,-7,1,0,0,0,34,34,64,1,,response3disk_3,TRUE,5,5,"[95,165,42,122,25,87,180,220,318,189,296,258,201,35,129,15,26,2,258,115]",1.5283,rectangle
,,,,,,,,,,,,,FF,,,,,,,,1.0687,,,,,,,,,,,,,,,,,,,,,,60fd054e01eea24cbe66aece,610371865c71bc937b21ddf9,2021-07-30_00h07.37.431,Simcolourproject_2stim_asymm_v5,2020.2.10,Win32,60,61025ae37ef11b136ea224fe,,,,,,,,,3244,-81,55,1,0,0,response7disk,,1,-7,6,1,0,0,rectangle,-7,6,1,0,0,-7,6,1,0,0,0,35,35,16,1,,,,,,,,
,,,,,,,,,,,,,FF,,,,,,,,0.9316,,,,,,,,,,,,,,,,,,,,,,60fd054e01eea24cbe66aece,610371865c71bc937b21ddf9,2021-07-30_00h07.37.431,Simcolourproject_2stim_asymm_v5,2020.2.10,Win32,60,61025ae37ef11b136ea224fe,,,,,,,,,1651,72,30,1,0,0,response1disk,,6,1,-2,1,0,0,rectangle,1,-2,1,0,0,1,-2,1,0,0,0,36,36,15,1,,,,,,,,
,,,,,,,,,,,,,FF,,,,,,,,0.8816,,,,,,,,,,,,,,,,,,,,,,60fd054e01eea24cbe66aece,610371865c71bc937b21ddf9,2021-07-30_00h07.37.431,Simcolourproject_2stim_asymm_v5,2020.2.10,Win32,60,61025ae37ef11b136ea224fe,,,,,,,,,3965,-43,77,1,0,0,response7disk,,0,-1,-3,1,0,0,rectangle,-1,-3,1,0,0,-1,-3,1,0,0,0,37,37,142,1,,,,,,,,
,,,,,,,,,,,,,FF,,,,,,,,0.7166,,,,,,,,,,,,,,,,,,,,,,60fd054e01eea24cbe66aece,610371865c71bc937b21ddf9,2021-07-30_00h07.37.431,Simcolourproject_2stim_asymm_v5,2020.2.10,Win32,60,61025ae37ef11b136ea224fe,,,,,,,,,1658,68,-47,1,0,0,response3disk,,5,5,-6,1,0,0,rectangle,5,-6,1,0,0,5,-6,1,0,0,0,38,38,133,1,,,,,,,,
,,,,,,,,,,,,,FF,,,,,,,,2.447,,,,,,,,,,,,,,,,,,,,,,60fd054e01eea24cbe66aece,610371865c71bc937b21ddf9,2021-07-30_00h07.37.431,Simcolourproject_2stim_asymm_v5,2020.2.10,Win32,60,61025ae37ef11b136ea224fe,,,,,,,,,1137,35,-64,1,0,0,response3disk,,4,-16,10,1,0,0,rectangle,-16,10,1,0,0,-16,10,1,0,0,0,39,39,98,1,,,,,,,,
,,,,,,,,,,,,,FF,,,,,,,,1.0561,,,,,,,,,,,,,,,,,,,,,,60fd054e01eea24cbe66aece,610371865c71bc937b21ddf9,2021-07-30_00h07.37.431,Simcolourproject_2stim_asymm_v5,2020.2.10,Win32,60,61025ae37ef11b136ea224fe,,,,,,,,,1326,60,48,1,0,0,response1disk,,6,12,-2,1,0,0,rectangle,12,-2,1,0,0,12,-2,1,0,0,0,40,40,67,1,,,,,,,,
,,,,,,,,,,,,,FF,,,,,,,,1.2324,,,,,,,,,,,,,,,,,,,,,,60fd054e01eea24cbe66aece,610371865c71bc937b21ddf9,2021-07-30_00h07.37.431,Simcolourproject_2stim_asymm_v5,2020.2.10,Win32,60,61025ae37ef11b136ea224fe,,,,,,,,,3091,33,-55,1,0,0,response3disk,,4,5,3,1,0,0,rectangle,39,-69,1,0,0,-4,-3,1,0,0,0,41,41,97,1,,response3disk_3,TRUE,4,4,"[95,165,42,122,25,87,180,220,318,189,296,258,201,35,129,15,26,2,258,115]",1.6646,rectangle
,,,,,,,,,,,,,FF,,,,,,,,0.9949,,,,,,,,,,,,,,,,,,,,,,60fd054e01eea24cbe66aece,610371865c71bc937b21ddf9,2021-07-30_00h07.37.431,Simcolourproject_2stim_asymm_v5,2020.2.10,Win32,60,61025ae37ef11b136ea224fe,,,,,,,,,1991,46,73,1,0,0,response1disk,,7,2,-4,1,0,0,rectangle,2,-4,1,0,0,2,-4,1,0,0,0,42,42,84,1,,,,,,,,
,,,,,,,,,,,,,FF,,,,,,,,0.8823,,,,,,,,,,,,,,,,,,,,,,60fd054e01eea24cbe66aece,610371865c71bc937b21ddf9,2021-07-30_00h07.37.431,Simcolourproject_2stim_asymm_v5,2020.2.10,Win32,60,61025ae37ef11b136ea224fe,,,,,,,,,247,62,42,1,0,0,response1disk,,6,12,-1,1,0,0,rectangle,12,-1,1,0,0,12,-1,1,0,0,0,43,43,30,1,,,,,,,,
,,,,,,,,,,,,,FF,,,,,,,,1.3657,,,,,,,,,,,,,,,,,,,,,,60fd054e01eea24cbe66aece,610371865c71bc937b21ddf9,2021-07-30_00h07.37.431,Simcolourproject_2stim_asymm_v5,2020.2.10,Win32,60,61025ae37ef11b136ea224fe,,,,,,,,,2814,60,30,1,0,0,response1disk,,6,-1,-3,1,0,0,rectangle,-1,-3,1,0,0,-1,-3,1,0,0,0,44,44,51,1,,,,,,,,
,,,,,,,,,,,,,FF,,,,,,,,0.9331,,,,,,,,,,,,,,,,,,,,,,60fd054e01eea24cbe66aece,610371865c71bc937b21ddf9,2021-07-30_00h07.37.431,Simcolourproject_2stim_asymm_v5,2020.2.10,Win32,60,61025ae37ef11b136ea224fe,,,,,,,,,2119,55,39,1,0,0,response1disk,,6,5,-3,1,0,0,rectangle,5,-3,1,0,0,5,-3,1,0,0,0,45,45,18,1,,,,,,,,
,,,,,,,,,,,,,FF,,,,,,,,1.9335,,,,,,,,,,,,,,,,,,,,,,60fd054e01eea24cbe66aece,610371865c71bc937b21ddf9,2021-07-30_00h07.37.431,Simcolourproject_2stim_asymm_v5,2020.2.10,Win32,60,61025ae37ef11b136ea224fe,,,,,,,,,2655,43,-50,1,0,0,response3disk,,4,14,-6,1,0,0,rectangle,14,-6,1,0,0,14,-6,1,0,0,0,46,46,36,1,,,,,,,,
,,,,,,,,,,,,,FF,,,,,,,,1.0184,,,,,,,,,,,,,,,,,,,,,,60fd054e01eea24cbe66aece,610371865c71bc937b21ddf9,2021-07-30_00h07.37.431,Simcolourproject_2stim_asymm_v5,2020.2.10,Win32,60,61025ae37ef11b136ea224fe,,,,,,,,,3930,41,63,1,0,0,response1disk,,7,26,7,1,0,0,rectangle,26,7,1,0,0,26,7,1,0,0,0,47,47,88,1,,,,,,,,
,,,,,,,,,,,,,FF,,,,,,,,2.1697,,,,,,,,,,,,,,,,,,,,,,60fd054e01eea24cbe66aece,610371865c71bc937b21ddf9,2021-07-30_00h07.37.431,Simcolourproject_2stim_asymm_v5,2020.2.10,Win32,60,61025ae37ef11b136ea224fe,,,,,,,,,13,53,24,1,0,0,response1disk,,6,13,-2,1,0,0,rectangle,13,-2,1,0,0,13,-2,1,0,0,0,48,48,127,1,,,,,,,,
,,,,,,,,,,,,,FF,,,,,,,,0.6669,,,,,,,,,,,,,,,,,,,,,,60fd054e01eea24cbe66aece,610371865c71bc937b21ddf9,2021-07-30_00h07.37.431,Simcolourproject_2stim_asymm_v5,2020.2.10,Win32,60,61025ae37ef11b136ea224fe,,,,,,,,,3915,57,40,1,0,0,response1disk,,6,8,2,1,0,0,rectangle,8,2,1,0,0,8,2,1,0,0,0,49,49,35,1,,,,,,,,
,,,,,,,,,,,,,FF,,,,,,,,1.1151,,,,,,,,,,,,,,,,,,,,,,60fd054e01eea24cbe66aece,610371865c71bc937b21ddf9,2021-07-30_00h07.37.431,Simcolourproject_2stim_asymm_v5,2020.2.10,Win32,60,61025ae37ef11b136ea224fe,,,,,,,,,1963,-51,23,1,0,0,response7disk,,1,-7,-4,1,0,0,rectangle,-7,-4,1,0,0,-7,-4,1,0,0,0,50,50,79,1,,,,,,,,
,,,,,,,,,,,,,FF,,,,,,,,1.1333,,,,,,,,,,,,,,,,,,,,,,60fd054e01eea24cbe66aece,610371865c71bc937b21ddf9,2021-07-30_00h07.37.431,Simcolourproject_2stim_asymm_v5,2020.2.10,Win32,60,61025ae37ef11b136ea224fe,,,,,,,,,2816,42,57,1,0,0,response1disk,,7,-9,-4,1,0,0,rectangle,-9,-4,1,0,0,-9,-4,1,0,0,0,51,51,44,1,,,,,,,,
,,,,,,,,,,,,,FF,,,,,,,,0.7398,,,,,,,,,,,,,,,,,,,,,,60fd054e01eea24cbe66aece,610371865c71bc937b21ddf9,2021-07-30_00h07.37.431,Simcolourproject_2stim_asymm_v5,2020.2.10,Win32,60,61025ae37ef11b136ea224fe,,,,,,,,,11,59,43,1,0,0,response1disk,,6,8,-2,1,0,0,rectangle,8,-2,1,0,0,8,-2,1,0,0,0,52,52,106,1,,,,,,,,
,,,,,,,,,,,,,FF,,,,,,,,3.0664,,,,,,,,,,,,,,,,,,,,,,60fd054e01eea24cbe66aece,610371865c71bc937b21ddf9,2021-07-30_00h07.37.431,Simcolourproject_2stim_asymm_v5,2020.2.10,Win32,60,61025ae37ef11b136ea224fe,,,,,,,,,415,60,36,1,0,0,response1disk,,6,3,6,1,0,0,rectangle,3,6,1,0,0,3,6,1,0,0,0,53,53,54,1,,,,,,,,
,,,,,,,,,,,,,FF,,,,,,,,0.8034,,,,,,,,,,,,,,,,,,,,,,60fd054e01eea24cbe66aece,610371865c71bc937b21ddf9,2021-07-30_00h07.37.431,Simcolourproject_2stim_asymm_v5,2020.2.10,Win32,60,61025ae37ef11b136ea224fe,,,,,,,,,1798,72,44,1,0,0,response1disk,,6,-1,2,1,0,0,rectangle,-1,2,1,0,0,-1,2,1,0,0,0,54,54,53,1,,,,,,,,
,,,,,,,,,,,,,FF,,,,,,,,1.0998,,,,,,,,,,,,,,,,,,,,,,60fd054e01eea24cbe66aece,610371865c71bc937b21ddf9,2021-07-30_00h07.37.431,Simcolourproject_2stim_asymm_v5,2020.2.10,Win32,60,61025ae37ef11b136ea224fe,,,,,,,,,3496,67,30,1,0,0,response1disk,,6,8,-2,1,0,0,rectangle,8,-2,1,0,0,8,-2,1,0,0,0,55,55,140,1,,,,,,,,
,,,,,,,,,,,,,FF,,,,,,,,1.0659,,,,,,,,,,,,,,,,,,,,,,60fd054e01eea24cbe66aece,610371865c71bc937b21ddf9,2021-07-30_00h07.37.431,Simcolourproject_2stim_asymm_v5,2020.2.10,Win32,60,61025ae37ef11b136ea224fe,,,,,,,,,4152,35,44,1,0,0,response1disk,,7,28,13,1,0,0,rectangle,28,13,1,0,0,28,13,1,0,0,0,56,56,62,1,,,,,,,,
,,,,,,,,,,,,,FF,,,,,,,,1.4986,,,,,,,,,,,,,,,,,,,,,,60fd054e01eea24cbe66aece,610371865c71bc937b21ddf9,2021-07-30_00h07.37.431,Simcolourproject_2stim_asymm_v5,2020.2.10,Win32,60,61025ae37ef11b136ea224fe,,,,,,,,,3870,33,-74,1,0,0,response3disk,,4,12,4,1,0,0,rectangle,12,4,1,0,0,12,4,1,0,0,0,57,57,125,1,,,,,,,,
,,,,,,,,,,,,,FF,,,,,,,,1.4,,,,,,,,,,,,,,,,,,,,,,60fd054e01eea24cbe66aece,610371865c71bc937b21ddf9,2021-07-30_00h07.37.431,Simcolourproject_2stim_asymm_v5,2020.2.10,Win32,60,61025ae37ef11b136ea224fe,,,,,,,,,1824,-52,-60,1,0,0,response5disk,,3,3,17,1,0,0,rectangle,3,17,1,0,0,3,17,1,0,0,0,58,58,82,1,,,,,,,,
,,,,,,,,,,,,,FF,,,,,,,,1.1855,,,,,,,,,,,,,,,,,,,,,,60fd054e01eea24cbe66aece,610371865c71bc937b21ddf9,2021-07-30_00h07.37.431,Simcolourproject_2stim_asymm_v5,2020.2.10,Win32,60,61025ae37ef11b136ea224fe,,,,,,,,,905,27,-67,1,0,0,response3disk,,4,2,14,1,0,0,rectangle,2,14,1,0,0,2,14,1,0,0,0,59,59,0,1,,,,,,,,
,,,,,,,,,,,,,FF,,,,,,,,1.1862,,,,,,,,,,,,,,,,,,,,,,60fd054e01eea24cbe66aece,610371865c71bc937b21ddf9,2021-07-30_00h07.37.431,Simcolourproject_2stim_asymm_v5,2020.2.10,Win32,60,61025ae37ef11b136ea224fe,,,,,,,,,2671,29,-69,1,0,0,response3disk,,4,2,10,1,0,0,rectangle,2,10,1,0,0,2,10,1,0,0,0,60,60,77,1,,,,,,,,
,,,,,,,,,,,,,FF,,,,,,,,1.0822,,,,,,,,,,,,,,,,,,,,,,60fd054e01eea24cbe66aece,610371865c71bc937b21ddf9,2021-07-30_00h07.37.431,Simcolourproject_2stim_asymm_v5,2020.2.10,Win32,60,61025ae37ef11b136ea224fe,,,,,,,,,1362,53,-36,1,0,0,response3disk,,5,-4,7,1,0,0,rectangle,-4,7,1,0,0,-4,7,1,0,0,0,61,61,58,1,,,,,,,,
,,,,,,,,,,,,,FF,,,,,,,,0.6664,,,,,,,,,,,,,,,,,,,,,,60fd054e01eea24cbe66aece,610371865c71bc937b21ddf9,2021-07-30_00h07.37.431,Simcolourproject_2stim_asymm_v5,2020.2.10,Win32,60,61025ae37ef11b136ea224fe,,,,,,,,,747,55,-32,1,0,0,response3disk,,5,-9,8,1,0,0,rectangle,-9,8,1,0,0,-9,8,1,0,0,0,62,62,109,1,,,,,,,,
,,,,,,,,,,,,,FF,,,,,,,,0.8828,,,,,,,,,,,,,,,,,,,,,,60fd054e01eea24cbe66aece,610371865c71bc937b21ddf9,2021-07-30_00h07.37.431,Simcolourproject_2stim_asymm_v5,2020.2.10,Win32,60,61025ae37ef11b136ea224fe,,,,,,,,,608,53,33,1,0,0,response1disk,,6,-8,-9,1,0,0,rectangle,-8,-9,1,0,0,-8,-9,1,0,0,0,63,63,134,1,,,,,,,,
,,,,,,,,,,,,,FF,,,,,,,,0.9493,,,,,,,,,,,,,,,,,,,,,,60fd054e01eea24cbe66aece,610371865c71bc937b21ddf9,2021-07-30_00h07.37.431,Simcolourproject_2stim_asymm_v5,2020.2.10,Win32,60,61025ae37ef11b136ea224fe,,,,,,,,,2126,39,75,1,0,0,response1disk,,7,-3,-6,1,0,0,rectangle,-3,-6,1,0,0,-3,-6,1,0,0,0,64,64,4,1,,,,,,,,
,,,,,,,,,,,,,FF,,,,,,,,1.049,,,,,,,,,,,,,,,,,,,,,,60fd054e01eea24cbe66aece,610371865c71bc937b21ddf9,2021-07-30_00h07.37.431,Simcolourproject_2stim_asymm_v5,2020.2.10,Win32,60,61025ae37ef11b136ea224fe,,,,,,,,,1487,33,60,1,0,0,response1disk,,7,12,-6,1,0,0,rectangle,12,-6,1,0,0,12,-6,1,0,0,0,65,65,75,1,,,,,,,,
,,,,,,,,,,,,,FF,,,,,,,,1.0526,,,,,,,,,,,,,,,,,,,,,,60fd054e01eea24cbe66aece,610371865c71bc937b21ddf9,2021-07-30_00h07.37.431,Simcolourproject_2stim_asymm_v5,2020.2.10,Win32,60,61025ae37ef11b136ea224fe,,,,,,,,,1363,75,-25,1,0,0,response3disk,,5,-10,-6,1,0,0,rectangle,-10,-6,1,0,0,-10,-6,1,0,0,0,66,66,118,1,,,,,,,,
,,,,,,,,,,,,,FF,,,,,,,,1.583,,,,,,,,,,,,,,,,,,,,,,60fd054e01eea24cbe66aece,610371865c71bc937b21ddf9,2021-07-30_00h07.37.431,Simcolourproject_2stim_asymm_v5,2020.2.10,Win32,60,61025ae37ef11b136ea224fe,,,,,,,,,1994,71,26,1,0,0,response1disk,,6,-11,-13,1,0,0,rectangle,-11,-13,1,0,0,-11,-13,1,0,0,0,67,67,66,1,,,,,,,,
,,,,,,,,,,,,,FF,,,,,,,,2.7476,,,,,,,,,,,,,,,,,,,,,,60fd054e01eea24cbe66aece,610371865c71bc937b21ddf9,2021-07-30_00h07.37.431,Simcolourproject_2stim_asymm_v5,2020.2.10,Win32,60,61025ae37ef11b136ea224fe,,,,,,,,,584,54,32,1,0,0,response1disk,,6,-1,7,1,0,0,rectangle,-1,7,1,0,0,-1,7,1,0,0,0,68,68,38,1,,,,,,,,
,,,,,,,,,,,,,FF,,,,,,,,1.0487,,,,,,,,,,,,,,,,,,,,,,60fd054e01eea24cbe66aece,610371865c71bc937b21ddf9,2021-07-30_00h07.37.431,Simcolourproject_2stim_asymm_v5,2020.2.10,Win32,60,61025ae37ef11b136ea224fe,,,,,,,,,1803,62,25,1,0,0,response1disk,,6,0,-7,1,0,0,rectangle,0,-7,1,0,0,0,-7,1,0,0,0,69,69,119,1,,,,,,,,
,,,,,,,,,,,,,FF,,,,,,,,3.5234,,,,,,,,,,,,,,,,,,,,,,60fd054e01eea24cbe66aece,610371865c71bc937b21ddf9,2021-07-30_00h07.37.431,Simcolourproject_2stim_asymm_v5,2020.2.10,Win32,60,61025ae37ef11b136ea224fe,,,,,,,,,4125,23,-48,1,0,0,response3disk,,4,8,-3,1,0,0,rectangle,8,-3,1,0,0,8,-3,1,0,0,0,70,70,135,1,,,,,,,,
,,,,,,,,,,,,,FF,,,,,,,,1.3988,,,,,,,,,,,,,,,,,,,,,,60fd054e01eea24cbe66aece,610371865c71bc937b21ddf9,2021-07-30_00h07.37.431,Simcolourproject_2stim_asymm_v5,2020.2.10,Win32,60,61025ae37ef11b136ea224fe,,,,,,,,,564,28,-63,1,0,0,response3disk,,4,-5,8,1,0,0,rectangle,-5,8,1,0,0,-5,8,1,0,0,0,71,71,5,1,,,,,,,,
,,,,,,,,,,,,,FF,,,,,,,,1.2434,,,,,,,,,,,,,,,,,,,,,,60fd054e01eea24cbe66aece,610371865c71bc937b21ddf9,2021-07-30_00h07.37.431,Simcolourproject_2stim_asymm_v5,2020.2.10,Win32,60,61025ae37ef11b136ea224fe,,,,,,,,,4304,77,26,1,0,0,response1disk,,6,-9,-7,1,0,0,rectangle,-9,-7,1,0,0,-9,-7,1,0,0,0,72,72,156,1,,,,,,,,
,,,,,,,,,,,,,FF,,,,,,,,1.3822,,,,,,,,,,,,,,,,,,,,,,60fd054e01eea24cbe66aece,610371865c71bc937b21ddf9,2021-07-30_00h07.37.431,Simcolourproject_2stim_asymm_v5,2020.2.10,Win32,60,61025ae37ef11b136ea224fe,,,,,,,,,2170,42,-63,1,0,0,response3disk,,4,0,-7,1,0,0,rectangle,0,-7,1,0,0,0,-7,1,0,0,0,73,73,86,1,,,,,,,,
,,,,,,,,,,,,,FF,,,,,,,,1.7474,,,,,,,,,,,,,,,,,,,,,,60fd054e01eea24cbe66aece,610371865c71bc937b21ddf9,2021-07-30_00h07.37.431,Simcolourproject_2stim_asymm_v5,2020.2.10,Win32,60,61025ae37ef11b136ea224fe,,,,,,,,,1510,61,-27,1,0,0,response3disk,,5,6,-9,1,0,0,rectangle,6,-9,1,0,0,6,-9,1,0,0,0,74,74,99,1,,,,,,,,
,,,,,,,,,,,,,FF,,,,,,,,0.666,,,,,,,,,,,,,,,,,,,,,,60fd054e01eea24cbe66aece,610371865c71bc937b21ddf9,2021-07-30_00h07.37.431,Simcolourproject_2stim_asymm_v5,2020.2.10,Win32,60,61025ae37ef11b136ea224fe,,,,,,,,,597,61,25,1,0,0,response1disk,,6,9,-12,1,0,0,rectangle,9,-12,1,0,0,9,-12,1,0,0,0,75,75,92,1,,,,,,,,
,,,,,,,,,,,,,FF,,,,,,,,0.7315,,,,,,,,,,,,,,,,,,,,,,60fd054e01eea24cbe66aece,610371865c71bc937b21ddf9,2021-07-30_00h07.37.431,Simcolourproject_2stim_asymm_v5,2020.2.10,Win32,60,61025ae37ef11b136ea224fe,,,,,,,,,1727,60,33,1,0,0,response1disk,,6,14,-4,1,0,0,rectangle,14,-4,1,0,0,14,-4,1,0,0,0,76,76,111,1,,,,,,,,
,,,,,,,,,,,,,FF,,,,,,,,0.6994,,,,,,,,,,,,,,,,,,,,,,60fd054e01eea24cbe66aece,610371865c71bc937b21ddf9,2021-07-30_00h07.37.431,Simcolourproject_2stim_asymm_v5,2020.2.10,Win32,60,61025ae37ef11b136ea224fe,,,,,,,,,2213,47,38,1,0,0,response1disk,,6,8,-4,1,0,0,rectangle,8,-4,1,0,0,8,-4,1,0,0,0,77,77,34,1,,,,,,,,
,,,,,,,,,,,,,FF,,,,,,,,1.2989,,,,,,,,,,,,,,,,,,,,,,60fd054e01eea24cbe66aece,610371865c71bc937b21ddf9,2021-07-30_00h07.37.431,Simcolourproject_2stim_asymm_v5,2020.2.10,Win32,60,61025ae37ef11b136ea224fe,,,,,,,,,3765,59,-31,1,0,0,response3disk,,5,4,0,1,0,0,rectangle,4,0,1,0,0,4,0,1,0,0,0,78,78,9,1,,,,,,,,
,,,,,,,,,,,,,FF,,,,,,,,0.9999,,,,,,,,,,,,,,,,,,,,,,60fd054e01eea24cbe66aece,610371865c71bc937b21ddf9,2021-07-30_00h07.37.431,Simcolourproject_2stim_asymm_v5,2020.2.10,Win32,60,61025ae37ef11b136ea224fe,,,,,,,,,2993,-67,-41,1,0,0,response5disk,,2,2,-5,1,0,0,rectangle,2,-5,1,0,0,2,-5,1,0,0,0,79,79,10,1,,,,,,,,
,,,,,,,,,,,,,FF,,,,,,,,1.0816,,,,,,,,,,,,,,,,,,,,,,60fd054e01eea24cbe66aece,610371865c71bc937b21ddf9,2021-07-30_00h07.37.431,Simcolourproject_2stim_asymm_v5,2020.2.10,Win32,60,61025ae37ef11b136ea224fe,,,,,,,,,3923,41,66,1,0,0,response1disk,,7,1,-10,1,0,0,rectangle,1,-10,1,0,0,1,-10,1,0,0,0,80,80,68,1,,,,,,,,
,,,,,,,,,,,,,FF,,,,,,,,1.8487,,,,,,,,,,,,,,,,,,,,,,60fd054e01eea24cbe66aece,610371865c71bc937b21ddf9,2021-07-30_00h07.37.431,Simcolourproject_2stim_asymm_v5,2020.2.10,Win32,60,61025ae37ef11b136ea224fe,,,,,,,,,4167,-36,-69,1,0,0,response5disk,,3,20,9,1,0,0,rectangle,20,9,1,0,0,20,9,1,0,0,0,81,81,1,1,,,,,,,,
,,,,,,,,,,,,,FF,,,,,,,,2.2982,,,,,,,,,,,,,,,,,,,,,,60fd054e01eea24cbe66aece,610371865c71bc937b21ddf9,2021-07-30_00h07.37.431,Simcolourproject_2stim_asymm_v5,2020.2.10,Win32,60,61025ae37ef11b136ea224fe,,,,,,,,,1738,30,-70,1,0,0,response3disk,,4,-1,-2,1,0,0,rectangle,-1,-2,1,0,0,-1,-2,1,0,0,0,82,82,116,1,,,,,,,,
,,,,,,,,,,,,,FF,,,,,,,,1.1376,,,,,,,,,,,,,,,,,,,,,,60fd054e01eea24cbe66aece,610371865c71bc937b21ddf9,2021-07-30_00h07.37.431,Simcolourproject_2stim_asymm_v5,2020.2.10,Win32,60,61025ae37ef11b136ea224fe,,,,,,,,,2579,38,78,1,0,0,response1disk,,7,6,1,1,0,0,rectangle,6,1,1,0,0,6,1,1,0,0,0,83,83,76,1,,,,,,,,
,,,,,,,,,,,,,FF,,,,,,,,0.5677,,,,,,,,,,,,,,,,,,,,,,60fd054e01eea24cbe66aece,610371865c71bc937b21ddf9,2021-07-30_00h07.37.431,Simcolourproject_2stim_asymm_v5,2020.2.10,Win32,60,61025ae37ef11b136ea224fe,,,,,,,,,1724,26,76,1,0,0,response1disk,,7,-2,-8,1,0,0,rectangle,-2,-8,1,0,0,-2,-8,1,0,0,0,84,84,37,1,,,,,,,,
,,,,,,,,,,,,,FF,,,,,,,,1.0155,,,,,,,,,,,,,,,,,,,,,,60fd054e01eea24cbe66aece,610371865c71bc937b21ddf9,2021-07-30_00h07.37.431,Simcolourproject_2stim_asymm_v5,2020.2.10,Win32,60,61025ae37ef11b136ea224fe,,,,,,,,,3630,-74,48,1,0,0,response7disk,,1,0,-3,1,0,0,rectangle,0,-3,1,0,0,0,-3,1,0,0,0,85,85,151,1,,,,,,,,
,,,,,,,,,,,,,FF,,,,,,,,1.4014,,,,,,,,,,,,,,,,,,,,,,60fd054e01eea24cbe66aece,610371865c71bc937b21ddf9,2021-07-30_00h07.37.431,Simcolourproject_2stim_asymm_v5,2020.2.10,Win32,60,61025ae37ef11b136ea224fe,,,,,,,,,1923,60,-25,1,0,0,response3disk,,5,7,2,1,0,0,rectangle,-100,37,1,0,0,7,-2,1,0,0,0,86,86,157,1,,response7disk_3,TRUE,1,1,"[95,165,42,122,25,87,180,220,318,189,296,258,201,35,129,15,26,2,258,115]",1.436,rectangle
,,,,,,,,,,,,,FF,,,,,,,,1.1358,,,,,,,,,,,,,,,,,,,,,,60fd054e01eea24cbe66aece,610371865c71bc937b21ddf9,2021-07-30_00h07.37.431,Simcolourproject_2stim_asymm_v5,2020.2.10,Win32,60,61025ae37ef11b136ea224fe,,,,,,,,,2231,-37,-78,1,0,0,response5disk,,3,-5,8,1,0,0,rectangle,-5,8,1,0,0,-5,8,1,0,0,0,87,87,145,1,,,,,,,,
,,,,,,,,,,,,,FF,,,,,,,,4.7127,,,,,,,,,,,,,,,,,,,,,,60fd054e01eea24cbe66aece,610371865c71bc937b21ddf9,2021-07-30_00h07.37.431,Simcolourproject_2stim_asymm_v5,2020.2.10,Win32,60,61025ae37ef11b136ea224fe,,,,,,,,,1918,61,21,1,0,0,response1disk,,6,-1,-5,1,0,0,rectangle,-1,-5,1,0,0,-1,-5,1,0,0,0,88,88,20,1,,,,,,,,
,,,,,,,,,,,,,FF,,,,,,,,1.1661,,,,,,,,,,,,,,,,,,,,,,60fd054e01eea24cbe66aece,610371865c71bc937b21ddf9,2021-07-30_00h07.37.431,Simcolourproject_2stim_asymm_v5,2020.2.10,Win32,60,61025ae37ef11b136ea224fe,,,,,,,,,547,-23,-96,1,0,0,response5disk,,3,4,-5,1,0,0,rectangle,4,-5,1,0,0,4,-5,1,0,0,0,89,89,47,1,,,,,,,,
,,,,,,,,,,,,,FF,,,,,,,,0.8766,,,,,,,,,,,,,,,,,,,,,,60fd054e01eea24cbe66aece,610371865c71bc937b21ddf9,2021-07-30_00h07.37.431,Simcolourproject_2stim_asymm_v5,2020.2.10,Win32,60,61025ae37ef11b136ea224fe,,,,,,,,,1228,23,-68,1,0,0,response3disk,,4,-10,4,1,0,0,rectangle,-10,4,1,0,0,-10,4,1,0,0,0,90,90,27,1,,,,,,,,
,,,,,,,,,,,,,FF,,,,,,,,0.7493,,,,,,,,,,,,,,,,,,,,,,60fd054e01eea24cbe66aece,610371865c71bc937b21ddf9,2021-07-30_00h07.37.431,Simcolourproject_2stim_asymm_v5,2020.2.10,Win32,60,61025ae37ef11b136ea224fe,,,,,,,,,3037,-35,-77,1,0,0,response5disk,,3,16,10,1,0,0,rectangle,16,10,1,0,0,16,10,1,0,0,0,91,91,130,1,,,,,,,,
,,,,,,,,,,,,,FF,,,,,,,,0.7171,,,,,,,,,,,,,,,,,,,,,,60fd054e01eea24cbe66aece,610371865c71bc937b21ddf9,2021-07-30_00h07.37.431,Simcolourproject_2stim_asymm_v5,2020.2.10,Win32,60,61025ae37ef11b136ea224fe,,,,,,,,,4301,42,-67,1,0,0,response3disk,,4,-7,2,1,0,0,rectangle,-7,2,1,0,0,-7,2,1,0,0,0,92,92,103,1,,,,,,,,
,,,,,,,,,,,,,FF,,,,,,,,1.2438,,,,,,,,,,,,,,,,,,,,,,60fd054e01eea24cbe66aece,610371865c71bc937b21ddf9,2021-07-30_00h07.37.431,Simcolourproject_2stim_asymm_v5,2020.2.10,Win32,60,61025ae37ef11b136ea224fe,,,,,,,,,325,74,-23,1,0,0,response3disk,,5,5,4,1,0,0,rectangle,5,4,1,0,0,5,4,1,0,0,0,93,93,8,1,,,,,,,,
,,,,,,,,,,,,,FF,,,,,,,,0.6318,,,,,,,,,,,,,,,,,,,,,,60fd054e01eea24cbe66aece,610371865c71bc937b21ddf9,2021-07-30_00h07.37.431,Simcolourproject_2stim_asymm_v5,2020.2.10,Win32,60,61025ae37ef11b136ea224fe,,,,,,,,,3832,68,-37,1,0,0,response3disk,,5,8,-2,1,0,0,rectangle,30,-71,1,0,0,-11,-15,1,0,0,0,94,94,110,1,,response3disk_3,TRUE,4,4,"[95,165,42,122,25,87,180,220,318,189,296,258,201,35,129,15,26,2,258,115]",1.1503,rectangle
,,,,,,,,,,,,,FF,,,,,,,,0.9783,,,,,,,,,,,,,,,,,,,,,,60fd054e01eea24cbe66aece,610371865c71bc937b21ddf9,2021-07-30_00h07.37.431,Simcolourproject_2stim_asymm_v5,2020.2.10,Win32,60,61025ae37ef11b136ea224fe,,,,,,,,,2862,65,30,1,0,0,response1disk,,6,6,-2,1,0,0,rectangle,6,-2,1,0,0,6,-2,1,0,0,0,95,95,33,1,,,,,,,,
,,,,,,,,,,,,,FF,,,,,,,,0.8493,,,,,,,,,,,,,,,,,,,,,,60fd054e01eea24cbe66aece,610371865c71bc937b21ddf9,2021-07-30_00h07.37.431,Simcolourproject_2stim_asymm_v5,2020.2.10,Win32,60,61025ae37ef11b136ea224fe,,,,,,,,,1545,67,25,1,0,0,response1disk,,6,-13,-14,1,0,0,rectangle,-13,-14,1,0,0,-13,-14,1,0,0,0,96,96,122,1,,,,,,,,
,,,,,,,,,,,,,FF,,,,,,,,0.6159,,,,,,,,,,,,,,,,,,,,,,60fd054e01eea24cbe66aece,610371865c71bc937b21ddf9,2021-07-30_00h07.37.431,Simcolourproject_2stim_asymm_v5,2020.2.10,Win32,60,61025ae37ef11b136ea224fe,,,,,,,,,3407,60,43,1,0,0,response1disk,,6,-12,-7,1,0,0,rectangle,-12,-7,1,0,0,-12,-7,1,0,0,0,97,97,153,1,,,,,,,,
,,,,,,,,,,,,,FF,,,,,,,,1.2825,,,,,,,,,,,,,,,,,,,,,,60fd054e01eea24cbe66aece,610371865c71bc937b21ddf9,2021-07-30_00h07.37.431,Simcolourproject_2stim_asymm_v5,2020.2.10,Win32,60,61025ae37ef11b136ea224fe,,,,,,,,,896,35,-65,1,0,0,response3disk,,4,3,-1,1,0,0,rectangle,3,-1,1,0,0,3,-1,1,0,0,0,98,98,137,1,,,,,,,,
,,,,,,,,,,,,,FF,,,,,,,,1.9157,,,,,,,,,,,,,,,,,,,,,,60fd054e01eea24cbe66aece,610371865c71bc937b21ddf9,2021-07-30_00h07.37.431,Simcolourproject_2stim_asymm_v5,2020.2.10,Win32,60,61025ae37ef11b136ea224fe,,,,,,,,,3401,47,-87,1,0,0,response3disk,,4,3,-9,1,0,0,rectangle,3,-9,1,0,0,3,-9,1,0,0,0,99,99,102,1,,,,,,,,
,,,,,,,,,,,,,FF,,,,,,,,0.9011,,,,,,,,,,,,,,,,,,,,,,60fd054e01eea24cbe66aece,610371865c71bc937b21ddf9,2021-07-30_00h07.37.431,Simcolourproject_2stim_asymm_v5,2020.2.10,Win32,60,61025ae37ef11b136ea224fe,,,,,,,,,2153,58,-32,1,0,0,response3disk,,5,-15,0,1,0,0,rectangle,-15,0,1,0,0,-15,0,1,0,0,0,100,100,72,1,,,,,,,,
,,,,,,,,,,,,,FF,,,,,,,,1.1368,,,,,,,,,,,,,,,,,,,,,,60fd054e01eea24cbe66aece,610371865c71bc937b21ddf9,2021-07-30_00h07.37.431,Simcolourproject_2stim_asymm_v5,2020.2.10,Win32,60,61025ae37ef11b136ea224fe,,,,,,,,,2173,-48,-71,1,0,0,response5disk,,3,4,3,1,0,0,rectangle,4,3,1,0,0,4,3,1,0,0,0,101,101,129,1,,,,,,,,
,,,,,,,,,,,,,FF,,,,,,,,1.352,,,,,,,,,,,,,,,,,,,,,,60fd054e01eea24cbe66aece,610371865c71bc937b21ddf9,2021-07-30_00h07.37.431,Simcolourproject_2stim_asymm_v5,2020.2.10,Win32,60,61025ae37ef11b136ea224fe,,,,,,,,,3910,-79,-41,1,0,0,response5disk,,2,10,-11,1,0,0,rectangle,10,-11,1,0,0,10,-11,1,0,0,0,102,102,57,1,,,,,,,,
,,,,,,,,,,,,,FF,,,,,,,,1.3784,,,,,,,,,,,,,,,,,,,,,,60fd054e01eea24cbe66aece,610371865c71bc937b21ddf9,2021-07-30_00h07.37.431,Simcolourproject_2stim_asymm_v5,2020.2.10,Win32,60,61025ae37ef11b136ea224fe,,,,,,,,,45,76,34,1,0,0,response1disk,,6,-6,3,1,0,0,rectangle,-6,3,1,0,0,-6,3,1,0,0,0,103,103,87,1,,,,,,,,
,,,,,,,,,,,,,FF,,,,,,,,0.9656,,,,,,,,,,,,,,,,,,,,,,60fd054e01eea24cbe66aece,610371865c71bc937b21ddf9,2021-07-30_00h07.37.431,Simcolourproject_2stim_asymm_v5,2020.2.10,Win32,60,61025ae37ef11b136ea224fe,,,,,,,,,942,72,-28,1,0,0,response3disk,,5,8,5,1,0,0,rectangle,8,5,1,0,0,8,5,1,0,0,0,104,104,73,1,,,,,,,,
,,,,,,,,,,,,,FF,,,,,,,,0.6997,,,,,,,,,,,,,,,,,,,,,,60fd054e01eea24cbe66aece,610371865c71bc937b21ddf9,2021-07-30_00h07.37.431,Simcolourproject_2stim_asymm_v5,2020.2.10,Win32,60,61025ae37ef11b136ea224fe,,,,,,,,,1826,-32,-72,1,0,0,response5disk,,3,4,11,1,0,0,rectangle,4,11,1,0,0,4,11,1,0,0,0,105,105,95,1,,,,,,,,
,,,,,,,,,,,,,FF,,,,,,,,1.199,,,,,,,,,,,,,,,,,,,,,,60fd054e01eea24cbe66aece,610371865c71bc937b21ddf9,2021-07-30_00h07.37.431,Simcolourproject_2stim_asymm_v5,2020.2.10,Win32,60,61025ae37ef11b136ea224fe,,,,,,,,,4035,-39,-71,1,0,0,response5disk,,3,12,-8,1,0,0,rectangle,12,-8,1,0,0,12,-8,1,0,0,0,106,106,94,1,,,,,,,,
,,,,,,,,,,,,,FF,,,,,,,,2.4312,,,,,,,,,,,,,,,,,,,,,,60fd054e01eea24cbe66aece,610371865c71bc937b21ddf9,2021-07-30_00h07.37.431,Simcolourproject_2stim_asymm_v5,2020.2.10,Win32,60,61025ae37ef11b136ea224fe,,,,,,,,,3575,78,25,1,0,0,response1disk,,6,-8,-1,1,0,0,rectangle,-8,-1,1,0,0,-8,-1,1,0,0,0,107,107,93,1,,,,,,,,
,,,,,,,,,,,,,FF,,,,,,,,1.3835,,,,,,,,,,,,,,,,,,,,,,60fd054e01eea24cbe66aece,610371865c71bc937b21ddf9,2021-07-30_00h07.37.431,Simcolourproject_2stim_asymm_v5,2020.2.10,Win32,60,61025ae37ef11b136ea224fe,,,,,,,,,2018,36,-71,1,0,0,response3disk,,4,2,15,1,0,0,rectangle,2,15,1,0,0,2,15,1,0,0,0,108,108,89,1,,,,,,,,
,,,,,,,,,,,,,FF,,,,,,,,1.1015,,,,,,,,,,,,,,,,,,,,,,60fd054e01eea24cbe66aece,610371865c71bc937b21ddf9,2021-07-30_00h07.37.431,Simcolourproject_2stim_asymm_v5,2020.2.10,Win32,60,61025ae37ef11b136ea224fe,,,,,,,,,3232,49,69,1,0,0,response1disk,,7,0,-17,1,0,0,rectangle,0,-17,1,0,0,0,-17,1,0,0,0,109,109,43,1,,,,,,,,
,,,,,,,,,,,,,FF,,,,,,,,2.2693,,,,,,,,,,,,,,,,,,,,,,60fd054e01eea24cbe66aece,610371865c71bc937b21ddf9,2021-07-30_00h07.37.431,Simcolourproject_2stim_asymm_v5,2020.2.10,Win32,60,61025ae37ef11b136ea224fe,,,,,,,,,4151,39,-76,1,0,0,response3disk,,4,10,1,1,0,0,rectangle,10,1,1,0,0,10,1,1,0,0,0,110,110,71,1,,,,,,,,
,,,,,,,,,,,,,FF,,,,,,,,1.0988,,,,,,,,,,,,,,,,,,,,,,60fd054e01eea24cbe66aece,610371865c71bc937b21ddf9,2021-07-30_00h07.37.431,Simcolourproject_2stim_asymm_v5,2020.2.10,Win32,60,61025ae37ef11b136ea224fe,,,,,,,,,3290,-91,25,1,0,0,response7disk,,1,-10,8,1,0,0,rectangle,-10,8,1,0,0,-10,8,1,0,0,0,111,111,31,1,,,,,,,,
,,,,,,,,,,,,,FF,,,,,,,,0.9518,,,,,,,,,,,,,,,,,,,,,,60fd054e01eea24cbe66aece,610371865c71bc937b21ddf9,2021-07-30_00h07.37.431,Simcolourproject_2stim_asymm_v5,2020.2.10,Win32,60,61025ae37ef11b136ea224fe,,,,,,,,,735,68,-42,1,0,0,response3disk,,5,9,-18,1,0,0,rectangle,9,-18,1,0,0,9,-18,1,0,0,0,112,112,120,1,,,,,,,,
,,,,,,,,,,,,,FF,,,,,,,,1.0998,,,,,,,,,,,,,,,,,,,,,,60fd054e01eea24cbe66aece,610371865c71bc937b21ddf9,2021-07-30_00h07.37.431,Simcolourproject_2stim_asymm_v5,2020.2.10,Win32,60,61025ae37ef11b136ea224fe,,,,,,,,,1735,-36,-74,1,0,0,response5disk,,3,-5,-6,1,0,0,rectangle,-5,-6,1,0,0,-5,-6,1,0,0,0,113,113,148,1,,,,,,,,
,,,,,,,,,,,,,FF,,,,,,,,0.8476,,,,,,,,,,,,,,,,,,,,,,60fd054e01eea24cbe66aece,610371865c71bc937b21ddf9,2021-07-30_00h07.37.431,Simcolourproject_2stim_asymm_v5,2020.2.10,Win32,60,61025ae37ef11b136ea224fe,,,,,,,,,4053,-30,-75,1,0,0,response5disk,,3,6,-2,1,0,0,rectangle,-15,-97,1,0,0,-9,-5,1,0,0,0,114,114,108,1,,response5disk_3,TRUE,3,3,"[95,165,42,122,25,87,180,220,318,189,296,258,201,35,129,15,26,2,258,115]",1.4925,rectangle
,,,,,,,,,,,,,FF,,,,,,,,1.3158,,,,,,,,,,,,,,,,,,,,,,60fd054e01eea24cbe66aece,610371865c71bc937b21ddf9,2021-07-30_00h07.37.431,Simcolourproject_2stim_asymm_v5,2020.2.10,Win32,60,61025ae37ef11b136ea224fe,,,,,,,,,3220,34,-54,1,0,0,response3disk,,4,-2,-5,1,0,0,rectangle,-2,-5,1,0,0,-2,-5,1,0,0,0,115,115,28,1,,,,,,,,
,,,,,,,,,,,,,FF,,,,,,,,0.8326,,,,,,,,,,,,,,,,,,,,,,60fd054e01eea24cbe66aece,610371865c71bc937b21ddf9,2021-07-30_00h07.37.431,Simcolourproject_2stim_asymm_v5,2020.2.10,Win32,60,61025ae37ef11b136ea224fe,,,,,,,,,891,-33,-74,1,0,0,response5disk,,3,1,-3,1,0,0,rectangle,1,-3,1,0,0,1,-3,1,0,0,0,116,116,141,1,,,,,,,,
,,,,,,,,,,,,,FF,,,,,,,,2.0508,,,,,,,,,,,,,,,,,,,,,,60fd054e01eea24cbe66aece,610371865c71bc937b21ddf9,2021-07-30_00h07.37.431,Simcolourproject_2stim_asymm_v5,2020.2.10,Win32,60,61025ae37ef11b136ea224fe,,,,,,,,,1028,58,-47,1,0,0,response3disk,,5,-10,5,1,0,0,rectangle,-10,5,1,0,0,-10,5,1,0,0,0,117,117,155,1,,,,,,,,
,,,,,,,,,,,,,FF,,,,,,,,1.2687,,,,,,,,,,,,,,,,,,,,,,60fd054e01eea24cbe66aece,610371865c71bc937b21ddf9,2021-07-30_00h07.37.431,Simcolourproject_2stim_asymm_v5,2020.2.10,Win32,60,61025ae37ef11b136ea224fe,,,,,,,,,3753,-35,-83,1,0,0,response5disk,,3,10,20,1,0,0,rectangle,10,20,1,0,0,10,20,1,0,0,0,118,118,23,1,,,,,,,,
,,,,,,,,,,,,,FF,,,,,,,,0.7326,,,,,,,,,,,,,,,,,,,,,,60fd054e01eea24cbe66aece,610371865c71bc937b21ddf9,2021-07-30_00h07.37.431,Simcolourproject_2stim_asymm_v5,2020.2.10,Win32,60,61025ae37ef11b136ea224fe,,,,,,,,,2954,-42,-83,1,0,0,response5disk,,3,10,6,1,0,0,rectangle,10,6,1,0,0,10,6,1,0,0,0,119,119,104,1,,,,,,,,
,,,,,,,,,,,,,FF,,,,,,,,1.3985,,,,,,,,,,,,,,,,,,,,,,60fd054e01eea24cbe66aece,610371865c71bc937b21ddf9,2021-07-30_00h07.37.431,Simcolourproject_2stim_asymm_v5,2020.2.10,Win32,60,61025ae37ef11b136ea224fe,,,,,,,,,2823,22,-64,1,0,0,response3disk,,4,-4,-7,1,0,0,rectangle,-4,-7,1,0,0,-4,-7,1,0,0,0,120,120,2,1,,,,,,,,
,,,,,,,,,,,,,FF,,,,,,,,9.3749,,,,,,,,,,,,,,,,,,,,,,60fd054e01eea24cbe66aece,610371865c71bc937b21ddf9,2021-07-30_00h07.37.431,Simcolourproject_2stim_asymm_v5,2020.2.10,Win32,60,61025ae37ef11b136ea224fe,,,,,,,,,3609,42,-57,1,0,0,response3disk,,4,6,-17,1,0,0,rectangle,-45,-90,1,0,0,16,5,1,0,0,0,121,121,144,1,,response5disk_3,TRUE,3,3,"[95,165,42,122,25,87,180,220,318,189,296,258,201,35,129,15,26,2,258,115]",1.4502,rectangle
,,,,,,,,,,,,,FF,,,,,,,,33.3957,,,,,,,,,,,,,,,,,,,,,,60fd054e01eea24cbe66aece,610371865c71bc937b21ddf9,2021-07-30_00h07.37.431,Simcolourproject_2stim_asymm_v5,2020.2.10,Win32,60,61025ae37ef11b136ea224fe,,,,,,,,,2868,25,-59,1,0,0,response3disk,,4,3,-14,1,0,0,rectangle,3,-14,1,0,0,3,-14,1,0,0,0,122,122,29,1,,,,,,,,
,,,,,,,,,,,,,FF,,,,,,,,1.0351,,,,,,,,,,,,,,,,,,,,,,60fd054e01eea24cbe66aece,610371865c71bc937b21ddf9,2021-07-30_00h07.37.431,Simcolourproject_2stim_asymm_v5,2020.2.10,Win32,60,61025ae37ef11b136ea224fe,,,,,,,,,967,73,49,1,0,0,response1disk,,6,-5,-20,1,0,0,rectangle,-5,-20,1,0,0,-5,-20,1,0,0,0,123,123,59,1,,,,,,,,
,,,,,,,,,,,,,FF,,,,,,,,1.8651,,,,,,,,,,,,,,,,,,,,,,60fd054e01eea24cbe66aece,610371865c71bc937b21ddf9,2021-07-30_00h07.37.431,Simcolourproject_2stim_asymm_v5,2020.2.10,Win32,60,61025ae37ef11b136ea224fe,,,,,,,,,863,67,34,1,0,0,response1disk,,6,-6,0,1,0,0,rectangle,-6,0,1,0,0,-6,0,1,0,0,0,124,124,152,1,,,,,,,,
,,,,,,,,,,,,,FF,,,,,,,,0.925,,,,,,,,,,,,,,,,,,,,,,60fd054e01eea24cbe66aece,610371865c71bc937b21ddf9,2021-07-30_00h07.37.431,Simcolourproject_2stim_asymm_v5,2020.2.10,Win32,60,61025ae37ef11b136ea224fe,,,,,,,,,430,49,-53,1,0,0,response3disk,,4,-6,6,1,0,0,rectangle,-6,6,1,0,0,-6,6,1,0,0,0,125,125,42,1,,,,,,,,
,,,,,,,,,,,,,FF,,,,,,,,1.0153,,,,,,,,,,,,,,,,,,,,,,60fd054e01eea24cbe66aece,610371865c71bc937b21ddf9,2021-07-30_00h07.37.431,Simcolourproject_2stim_asymm_v5,2020.2.10,Win32,60,61025ae37ef11b136ea224fe,,,,,,,,,3976,-41,-92,1,0,0,response5disk,,3,-3,4,1,0,0,rectangle,-3,4,1,0,0,-3,4,1,0,0,0,126,126,69,1,,,,,,,,
,,,,,,,,,,,,,FF,,,,,,,,1.7988,,,,,,,,,,,,,,,,,,,,,,60fd054e01eea24cbe66aece,610371865c71bc937b21ddf9,2021-07-30_00h07.37.431,Simcolourproject_2stim_asymm_v5,2020.2.10,Win32,60,61025ae37ef11b136ea224fe,,,,,,,,,3062,47,-85,1,0,0,response3disk,,4,-3,0,1,0,0,rectangle,-3,0,1,0,0,-3,0,1,0,0,0,127,127,25,1,,,,,,,,
,,,,,,,,,,,,,FF,,,,,,,,1.0491,,,,,,,,,,,,,,,,,,,,,,60fd054e01eea24cbe66aece,610371865c71bc937b21ddf9,2021-07-30_00h07.37.431,Simcolourproject_2stim_asymm_v5,2020.2.10,Win32,60,61025ae37ef11b136ea224fe,,,,,,,,,2706,72,-53,1,0,0,response3disk,,5,-2,3,1,0,0,rectangle,-67,-45,1,0,0,23,7,1,0,0,0,128,128,146,1,,response5disk_3,TRUE,2,2,"[95,165,42,122,25,87,180,220,318,189,296,258,201,35,129,15,26,2,258,115]",1.2317,rectangle
,,,,,,,,,,,,,FF,,,,,,,,1.8252,,,,,,,,,,,,,,,,,,,,,,60fd054e01eea24cbe66aece,610371865c71bc937b21ddf9,2021-07-30_00h07.37.431,Simcolourproject_2stim_asymm_v5,2020.2.10,Win32,60,61025ae37ef11b136ea224fe,,,,,,,,,4297,68,-29,1,0,0,response3disk,,5,-1,-4,1,0,0,rectangle,-1,-4,1,0,0,-1,-4,1,0,0,0,129,129,70,1,,,,,,,,
,,,,,,,,,,,,,FF,,,,,,,,2.9315,,,,,,,,,,,,,,,,,,,,,,60fd054e01eea24cbe66aece,610371865c71bc937b21ddf9,2021-07-30_00h07.37.431,Simcolourproject_2stim_asymm_v5,2020.2.10,Win32,60,61025ae37ef11b136ea224fe,,,,,,,,,3806,68,-28,1,0,0,response3disk,,5,-36,-7,1,0,0,rectangle,-36,-7,1,0,0,-36,-7,1,0,0,0,130,130,149,1,,,,,,,,
,,,,,,,,,,,,,FF,,,,,,,,1.5072,,,,,,,,,,,,,,,,,,,,,,60fd054e01eea24cbe66aece,610371865c71bc937b21ddf9,2021-07-30_00h07.37.431,Simcolourproject_2stim_asymm_v5,2020.2.10,Win32,60,61025ae37ef11b136ea224fe,,,,,,,,,69,80,-31,1,0,0,response3disk,,5,4,-5,1,0,0,rectangle,4,-5,1,0,0,4,-5,1,0,0,0,131,131,136,1,,,,,,,,
,,,,,,,,,,,,,FF,,,,,,,,1.3495,,,,,,,,,,,,,,,,,,,,,,60fd054e01eea24cbe66aece,610371865c71bc937b21ddf9,2021-07-30_00h07.37.431,Simcolourproject_2stim_asymm_v5,2020.2.10,Win32,60,61025ae37ef11b136ea224fe,,,,,,,,,2251,47,-25,1,0,0,response3disk,,5,0,0,1,0,0,rectangle,0,0,1,0,0,0,0,1,0,0,0,132,132,74,1,,,,,,,,
,,,,,,,,,,,,,FF,,,,,,,,7.4819,,,,,,,,,,,,,,,,,,,,,,60fd054e01eea24cbe66aece,610371865c71bc937b21ddf9,2021-07-30_00h07.37.431,Simcolourproject_2stim_asymm_v5,2020.2.10,Win32,60,61025ae37ef11b136ea224fe,,,,,,,,,1520,41,-107,1,0,0,response3disk,,4,5,-7,1,0,0,rectangle,5,-7,1,0,0,5,-7,1,0,0,0,133,133,45,1,,,,,,,,
,,,,,,,,,,,,,FF,,,,,,,,0.8323,,,,,,,,,,,,,,,,,,,,,,60fd054e01eea24cbe66aece,610371865c71bc937b21ddf9,2021-07-30_00h07.37.431,Simcolourproject_2stim_asymm_v5,2020.2.10,Win32,60,61025ae37ef11b136ea224fe,,,,,,,,,2877,75,41,1,0,0,response1disk,,6,1,-4,1,0,0,rectangle,1,-4,1,0,0,1,-4,1,0,0,0,134,134,85,1,,,,,,,,
,,,,,,,,,,,,,FF,,,,,,,,0.8659,,,,,,,,,,,,,,,,,,,,,,60fd054e01eea24cbe66aece,610371865c71bc937b21ddf9,2021-07-30_00h07.37.431,Simcolourproject_2stim_asymm_v5,2020.2.10,Win32,60,61025ae37ef11b136ea224fe,,,,,,,,,1872,40,-50,1,0,0,response3disk,,4,2,3,1,0,0,rectangle,2,3,1,0,0,2,3,1,0,0,0,135,135,158,1,,,,,,,,
,,,,,,,,,,,,,FF,,,,,,,,0.6994,,,,,,,,,,,,,,,,,,,,,,60fd054e01eea24cbe66aece,610371865c71bc937b21ddf9,2021-07-30_00h07.37.431,Simcolourproject_2stim_asymm_v5,2020.2.10,Win32,60,61025ae37ef11b136ea224fe,,,,,,,,,2597,51,-34,1,0,0,response3disk,,5,2,-3,1,0,0,rectangle,2,-3,1,0,0,2,-3,1,0,0,0,136,136,22,1,,,,,,,,
,,,,,,,,,,,,,FF,,,,,,,,1.2656,,,,,,,,,,,,,,,,,,,,,,60fd054e01eea24cbe66aece,610371865c71bc937b21ddf9,2021-07-30_00h07.37.431,Simcolourproject_2stim_asymm_v5,2020.2.10,Win32,60,61025ae37ef11b136ea224fe,,,,,,,,,3161,49,24,1,0,0,response1disk,,6,15,-2,1,0,0,rectangle,15,-2,1,0,0,15,-2,1,0,0,0,137,137,61,1,,,,,,,,
,,,,,,,,,,,,,FF,,,,,,,,1.5324,,,,,,,,,,,,,,,,,,,,,,60fd054e01eea24cbe66aece,610371865c71bc937b21ddf9,2021-07-30_00h07.37.431,Simcolourproject_2stim_asymm_v5,2020.2.10,Win32,60,61025ae37ef11b136ea224fe,,,,,,,,,703,28,-72,1,0,0,response3disk,,4,-1,-1,1,0,0,rectangle,-1,-1,1,0,0,-1,-1,1,0,0,0,138,138,78,1,,,,,,,,
,,,,,,,,,,,,,FF,,,,,,,,1.05,,,,,,,,,,,,,,,,,,,,,,60fd054e01eea24cbe66aece,610371865c71bc937b21ddf9,2021-07-30_00h07.37.431,Simcolourproject_2stim_asymm_v5,2020.2.10,Win32,60,61025ae37ef11b136ea224fe,,,,,,,,,3373,-47,-69,1,0,0,response5disk,,3,-28,-7,1,0,0,rectangle,-28,-7,1,0,0,-28,-7,1,0,0,0,139,139,32,1,,,,,,,,
,,,,,,,,,,,,,FF,,,,,,,,0.8115,,,,,,,,,,,,,,,,,,,,,,60fd054e01eea24cbe66aece,610371865c71bc937b21ddf9,2021-07-30_00h07.37.431,Simcolourproject_2stim_asymm_v5,2020.2.10,Win32,60,61025ae37ef11b136ea224fe,,,,,,,,,1355,47,-30,1,0,0,response3disk,,5,14,-4,1,0,0,rectangle,14,-4,1,0,0,14,-4,1,0,0,0,140,140,124,1,,,,,,,,
,,,,,,,,,,,,,FF,,,,,,,,4.2971,,,,,,,,,,,,,,,,,,,,,,60fd054e01eea24cbe66aece,610371865c71bc937b21ddf9,2021-07-30_00h07.37.431,Simcolourproject_2stim_asymm_v5,2020.2.10,Win32,60,61025ae37ef11b136ea224fe,,,,,,,,,1224,57,-36,1,0,0,response3disk,,5,0,-17,1,0,0,rectangle,0,-17,1,0,0,0,-17,1,0,0,0,141,141,41,1,,,,,,,,
,,,,,,,,,,,,,FF,,,,,,,,0.9789,,,,,,,,,,,,,,,,,,,,,,60fd054e01eea24cbe66aece,610371865c71bc937b21ddf9,2021-07-30_00h07.37.431,Simcolourproject_2stim_asymm_v5,2020.2.10,Win32,60,61025ae37ef11b136ea224fe,,,,,,,,,2557,36,-69,1,0,0,response3disk,,4,0,8,1,0,0,rectangle,0,8,1,0,0,0,8,1,0,0,0,142,142,49,1,,,,,,,,
,,,,,,,,,,,,,FF,,,,,,,,0.9656,,,,,,,,,,,,,,,,,,,,,,60fd054e01eea24cbe66aece,610371865c71bc937b21ddf9,2021-07-30_00h07.37.431,Simcolourproject_2stim_asymm_v5,2020.2.10,Win32,60,61025ae37ef11b136ea224fe,,,,,,,,,164,-46,-72,1,0,0,response5disk,,3,-10,-8,1,0,0,rectangle,-10,-8,1,0,0,-10,-8,1,0,0,0,143,143,26,1,,,,,,,,
,,,,,,,,,,,,,FF,,,,,,,,0.8839,,,,,,,,,,,,,,,,,,,,,,60fd054e01eea24cbe66aece,610371865c71bc937b21ddf9,2021-07-30_00h07.37.431,Simcolourproject_2stim_asymm_v5,2020.2.10,Win32,60,61025ae37ef11b136ea224fe,,,,,,,,,2808,60,-20,1,0,0,response3disk,,5,31,-4,1,0,0,rectangle,31,-4,1,0,0,31,-4,1,0,0,0,144,144,63,1,,,,,,,,
,,,,,,,,,,,,,FF,,,,,,,,1.171,,,,,,,,,,,,,,,,,,,,,,60fd054e01eea24cbe66aece,610371865c71bc937b21ddf9,2021-07-30_00h07.37.431,Simcolourproject_2stim_asymm_v5,2020.2.10,Win32,60,61025ae37ef11b136ea224fe,,,,,,,,,1531,-36,-72,1,0,0,response5disk,,3,7,5,1,0,0,rectangle,7,5,1,0,0,7,5,1,0,0,0,145,145,100,1,,,,,,,,
,,,,,,,,,,,,,FF,,,,,,,,0.5991,,,,,,,,,,,,,,,,,,,,,,60fd054e01eea24cbe66aece,610371865c71bc937b21ddf9,2021-07-30_00h07.37.431,Simcolourproject_2stim_asymm_v5,2020.2.10,Win32,60,61025ae37ef11b136ea224fe,,,,,,,,,2468,32,-48,1,0,0,response3disk,,4,-2,12,1,0,0,rectangle,-2,12,1,0,0,-2,12,1,0,0,0,146,146,52,1,,,,,,,,
,,,,,,,,,,,,,FF,,,,,,,,0.6493,,,,,,,,,,,,,,,,,,,,,,60fd054e01eea24cbe66aece,610371865c71bc937b21ddf9,2021-07-30_00h07.37.431,Simcolourproject_2stim_asymm_v5,2020.2.10,Win32,60,61025ae37ef11b136ea224fe,,,,,,,,,1696,56,-38,1,0,0,response3disk,,5,3,-11,1,0,0,rectangle,3,-11,1,0,0,3,-11,1,0,0,0,147,147,105,1,,,,,,,,
,,,,,,,,,,,,,FF,,,,,,,,1.0823,,,,,,,,,,,,,,,,,,,,,,60fd054e01eea24cbe66aece,610371865c71bc937b21ddf9,2021-07-30_00h07.37.431,Simcolourproject_2stim_asymm_v5,2020.2.10,Win32,60,61025ae37ef11b136ea224fe,,,,,,,,,1743,-46,84,1,0,0,response7disk,,0,12,-1,1,0,0,rectangle,12,-1,1,0,0,12,-1,1,0,0,0,148,148,14,1,,,,,,,,
,,,,,,,,,,,,,FF,,,,,,,,1.5487,,,,,,,,,,,,,,,,,,,,,,60fd054e01eea24cbe66aece,610371865c71bc937b21ddf9,2021-07-30_00h07.37.431,Simcolourproject_2stim_asymm_v5,2020.2.10,Win32,60,61025ae37ef11b136ea224fe,,,,,,,,,3041,-55,-29,1,0,0,response5disk,,2,-10,-5,1,0,0,rectangle,-10,-5,1,0,0,-10,-5,1,0,0,0,149,149,150,1,,,,,,,,
,,,,,,,,,,,,,FF,,,,,,,,0.8159,,,,,,,,,,,,,,,,,,,,,,60fd054e01eea24cbe66aece,610371865c71bc937b21ddf9,2021-07-30_00h07.37.431,Simcolourproject_2stim_asymm_v5,2020.2.10,Win32,60,61025ae37ef11b136ea224fe,,,,,,,,,3792,90,-15,1,0,0,response3disk,,5,22,-8,1,0,0,rectangle,22,-8,1,0,0,22,-8,1,0,0,0,150,150,55,1,,,,,,,,
,,,,,,,,,,,,,FF,,,,,,,,2.0703,,,,,,,,,,,,,,,,,,,,,,60fd054e01eea24cbe66aece,610371865c71bc937b21ddf9,2021-07-30_00h07.37.431,Simcolourproject_2stim_asymm_v5,2020.2.10,Win32,60,61025ae37ef11b136ea224fe,,,,,,,,,1687,33,-71,1,0,0,response3disk,,4,-8,-2,1,0,0,rectangle,-8,-2,1,0,0,-8,-2,1,0,0,0,151,151,154,1,,,,,,,,
,,,,,,,,,,,,,FF,,,,,,,,0.9366,,,,,,,,,,,,,,,,,,,,,,60fd054e01eea24cbe66aece,610371865c71bc937b21ddf9,2021-07-30_00h07.37.431,Simcolourproject_2stim_asymm_v5,2020.2.10,Win32,60,61025ae37ef11b136ea224fe,,,,,,,,,1038,-41,-63,1,0,0,response5disk,,3,14,-12,1,0,0,rectangle,14,-12,1,0,0,14,-12,1,0,0,0,152,152,117,1,,,,,,,,
,,,,,,,,,,,,,FF,,,,,,,,0.7198,,,,,,,,,,,,,,,,,,,,,,60fd054e01eea24cbe66aece,610371865c71bc937b21ddf9,2021-07-30_00h07.37.431,Simcolourproject_2stim_asymm_v5,2020.2.10,Win32,60,61025ae37ef11b136ea224fe,,,,,,,,,316,79,-28,1,0,0,response3disk,,5,1,6,1,0,0,rectangle,1,6,1,0,0,1,6,1,0,0,0,153,153,121,1,,,,,,,,
,,,,,,,,,,,,,FF,,,,,,,,0.5828,,,,,,,,,,,,,,,,,,,,,,60fd054e01eea24cbe66aece,610371865c71bc937b21ddf9,2021-07-30_00h07.37.431,Simcolourproject_2stim_asymm_v5,2020.2.10,Win32,60,61025ae37ef11b136ea224fe,,,,,,,,,4082,70,37,1,0,0,response1disk,,6,-10,7,1,0,0,rectangle,-10,7,1,0,0,-10,7,1,0,0,0,154,154,147,1,,,,,,,,
,,,,,,,,,,,,,FF,,,,,,,,0.9323,,,,,,,,,,,,,,,,,,,,,,60fd054e01eea24cbe66aece,610371865c71bc937b21ddf9,2021-07-30_00h07.37.431,Simcolourproject_2stim_asymm_v5,2020.2.10,Win32,60,61025ae37ef11b136ea224fe,,,,,,,,,2162,-40,-58,1,0,0,response5disk,,3,-15,20,1,0,0,rectangle,-15,20,1,0,0,-15,20,1,0,0,0,155,155,19,1,,,,,,,,
,,,,,,,,,,,,,FF,,,,,,,,0.8185,,,,,,,,,,,,,,,,,,,,,,60fd054e01eea24cbe66aece,610371865c71bc937b21ddf9,2021-07-30_00h07.37.431,Simcolourproject_2stim_asymm_v5,2020.2.10,Win32,60,61025ae37ef11b136ea224fe,,,,,,,,,1759,-65,-36,1,0,0,response5disk,,2,-14,-2,1,0,0,rectangle,-14,-2,1,0,0,-14,-2,1,0,0,0,156,156,90,1,,,,,,,,
,,,,,,,,,,,,,FF,,,,,,,,0.6343,,,,,,,,,,,,,,,,,,,,,,60fd054e01eea24cbe66aece,610371865c71bc937b21ddf9,2021-07-30_00h07.37.431,Simcolourproject_2stim_asymm_v5,2020.2.10,Win32,60,61025ae37ef11b136ea224fe,,,,,,,,,1423,30,-66,1,0,0,response3disk,,4,-2,-2,1,0,0,rectangle,-2,-2,1,0,0,-2,-2,1,0,0,0,157,157,81,1,,,,,,,,
,,,,,,,,,,,,,FF,,,,,,,,0.6661,,,,,,,,,,,,,,,,,,,,,,60fd054e01eea24cbe66aece,610371865c71bc937b21ddf9,2021-07-30_00h07.37.431,Simcolourproject_2stim_asymm_v5,2020.2.10,Win32,60,61025ae37ef11b136ea224fe,,,,,,,,,391,58,-31,1,0,0,response3disk,,5,18,-6,1,0,0,rectangle,18,-6,1,0,0,18,-6,1,0,0,0,158,158,114,1,,,,,,,,
,,,,,,,,,,,,,FF,,,,,,,,0.5825,,,,,,,,,,,,,,,,,,,,,,60fd054e01eea24cbe66aece,610371865c71bc937b21ddf9,2021-07-30_00h07.37.431,Simcolourproject_2stim_asymm_v5,2020.2.10,Win32,60,61025ae37ef11b136ea224fe,,,,,,,,,2633,56,-26,1,0,0,response3disk,,5,6,7,1,0,0,rectangle,6,7,1,0,0,6,7,1,0,0,0,159,159,3,1,,,,,,,,
,,,,,,,,,,,,,FF,,,,,,,,0.5662,,,,,,,,,,,,,,,,,,,,,,60fd054e01eea24cbe66aece,610371865c71bc937b21ddf9,2021-07-30_00h07.37.431,Simcolourproject_2stim_asymm_v5,2020.2.10,Win32,60,61025ae37ef11b136ea224fe,,,,,,,,,933,70,31,1,0,0,response1disk,,6,11,-6,1,0,0,rectangle,11,-6,1,0,0,11,-6,1,0,0,1,0,160,15,1,,,,,,,,
,,,,,,,,,,,,,FF,,,,,,,,1.1991,,,,,,,,,,,,,,,,,,,,,,60fd054e01eea24cbe66aece,610371865c71bc937b21ddf9,2021-07-30_00h07.37.431,Simcolourproject_2stim_asymm_v5,2020.2.10,Win32,60,61025ae37ef11b136ea224fe,,,,,,,,,3797,60,22,1,0,0,response1disk,,6,8,2,1,0,0,rectangle,8,2,1,0,0,8,2,1,0,0,1,1,161,148,1,,,,,,,,
,,,,,,,,,,,,,FF,,,,,,,,1.1996,,,,,,,,,,,,,,,,,,,,,,60fd054e01eea24cbe66aece,610371865c71bc937b21ddf9,2021-07-30_00h07.37.431,Simcolourproject_2stim_asymm_v5,2020.2.10,Win32,60,61025ae37ef11b136ea224fe,,,,,,,,,2541,-66,25,1,0,0,response7disk,,1,8,-7,1,0,0,rectangle,8,-7,1,0,0,8,-7,1,0,0,1,2,162,11,1,,,,,,,,
,,,,,,,,,,,,,FF,,,,,,,,1.066,,,,,,,,,,,,,,,,,,,,,,60fd054e01eea24cbe66aece,610371865c71bc937b21ddf9,2021-07-30_00h07.37.431,Simcolourproject_2stim_asymm_v5,2020.2.10,Win32,60,61025ae37ef11b136ea224fe,,,,,,,,,3921,69,-33,1,0,0,response3disk,,5,-3,16,1,0,0,rectangle,-3,16,1,0,0,-3,16,1,0,0,1,3,163,40,1,,,,,,,,
,,,,,,,,,,,,,FF,,,,,,,,0.6,,,,,,,,,,,,,,,,,,,,,,60fd054e01eea24cbe66aece,610371865c71bc937b21ddf9,2021-07-30_00h07.37.431,Simcolourproject_2stim_asymm_v5,2020.2.10,Win32,60,61025ae37ef11b136ea224fe,,,,,,,,,1621,69,-29,1,0,0,response3disk,,5,-45,6,1,0,0,rectangle,82,-38,1,0,0,0,-4,1,0,0,1,4,164,63,1,,response3disk_3,TRUE,5,5,"[95,165,42,122,25,87,180,220,318,189,296,258,201,35,129,15,26,2,258,115]",1.1321,rectangle
,,,,,,,,,,,,,FF,,,,,,,,0.7821,,,,,,,,,,,,,,,,,,,,,,60fd054e01eea24cbe66aece,610371865c71bc937b21ddf9,2021-07-30_00h07.37.431,Simcolourproject_2stim_asymm_v5,2020.2.10,Win32,60,61025ae37ef11b136ea224fe,,,,,,,,,656,59,-32,1,0,0,response3disk,,5,19,-12,1,0,0,rectangle,19,-12,1,0,0,19,-12,1,0,0,1,5,165,46,1,,,,,,,,
,,,,,,,,,,,,,FF,,,,,,,,0.5994,,,,,,,,,,,,,,,,,,,,,,60fd054e01eea24cbe66aece,610371865c71bc937b21ddf9,2021-07-30_00h07.37.431,Simcolourproject_2stim_asymm_v5,2020.2.10,Win32,60,61025ae37ef11b136ea224fe,,,,,,,,,3095,52,-39,1,0,0,response3disk,,5,6,-8,1,0,0,rectangle,6,-8,1,0,0,6,-8,1,0,0,1,6,166,29,1,,,,,,,,
,,,,,,,,,,,,,FF,,,,,,,,1.107,,,,,,,,,,,,,,,,,,,,,,60fd054e01eea24cbe66aece,610371865c71bc937b21ddf9,2021-07-30_00h07.37.431,Simcolourproject_2stim_asymm_v5,2020.2.10,Win32,60,61025ae37ef11b136ea224fe,,,,,,,,,1261,78,19,1,0,0,response1disk,,6,-8,-8,1,0,0,rectangle,-8,-8,1,0,0,-8,-8,1,0,0,1,7,167,23,1,,,,,,,,
,,,,,,,,,,,,,FF,,,,,,,,1.0656,,,,,,,,,,,,,,,,,,,,,,60fd054e01eea24cbe66aece,610371865c71bc937b21ddf9,2021-07-30_00h07.37.431,Simcolourproject_2stim_asymm_v5,2020.2.10,Win32,60,61025ae37ef11b136ea224fe,,,,,,,,,72,-34,-77,1,0,0,response5disk,,3,6,-8,1,0,0,rectangle,6,-8,1,0,0,6,-8,1,0,0,1,8,168,100,1,,,,,,,,
,,,,,,,,,,,,,FF,,,,,,,,0.6833,,,,,,,,,,,,,,,,,,,,,,60fd054e01eea24cbe66aece,610371865c71bc937b21ddf9,2021-07-30_00h07.37.431,Simcolourproject_2stim_asymm_v5,2020.2.10,Win32,60,61025ae37ef11b136ea224fe,,,,,,,,,1704,49,-31,1,0,0,response3disk,,5,1,16,1,0,0,rectangle,1,16,1,0,0,1,16,1,0,0,1,9,169,95,1,,,,,,,,
,,,,,,,,,,,,,FF,,,,,,,,1.5321,,,,,,,,,,,,,,,,,,,,,,60fd054e01eea24cbe66aece,610371865c71bc937b21ddf9,2021-07-30_00h07.37.431,Simcolourproject_2stim_asymm_v5,2020.2.10,Win32,60,61025ae37ef11b136ea224fe,,,,,,,,,2052,62,26,1,0,0,response1disk,,6,-7,2,1,0,0,rectangle,-7,2,1,0,0,-7,2,1,0,0,1,10,170,26,1,,,,,,,,
,,,,,,,,,,,,,FF,,,,,,,,0.5992,,,,,,,,,,,,,,,,,,,,,,60fd054e01eea24cbe66aece,610371865c71bc937b21ddf9,2021-07-30_00h07.37.431,Simcolourproject_2stim_asymm_v5,2020.2.10,Win32,60,61025ae37ef11b136ea224fe,,,,,,,,,288,65,-42,1,0,0,response3disk,,5,-1,-12,1,0,0,rectangle,-1,-12,1,0,0,-1,-12,1,0,0,1,11,171,139,1,,,,,,,,
,,,,,,,,,,,,,FF,,,,,,,,0.8437,,,,,,,,,,,,,,,,,,,,,,60fd054e01eea24cbe66aece,610371865c71bc937b21ddf9,2021-07-30_00h07.37.431,Simcolourproject_2stim_asymm_v5,2020.2.10,Win32,60,61025ae37ef11b136ea224fe,,,,,,,,,3650,66,47,1,0,0,response1disk,,6,34,0,1,0,0,rectangle,34,0,1,0,0,34,0,1,0,0,1,12,172,151,1,,,,,,,,
,,,,,,,,,,,,,FF,,,,,,,,1.5319,,,,,,,,,,,,,,,,,,,,,,60fd054e01eea24cbe66aece,610371865c71bc937b21ddf9,2021-07-30_00h07.37.431,Simcolourproject_2stim_asymm_v5,2020.2.10,Win32,60,61025ae37ef11b136ea224fe,,,,,,,,,92,-26,-55,1,0,0,response5disk,,3,-2,-4,1,0,0,rectangle,-2,-4,1,0,0,-2,-4,1,0,0,1,13,173,140,1,,,,,,,,
,,,,,,,,,,,,,FF,,,,,,,,1.4025,,,,,,,,,,,,,,,,,,,,,,60fd054e01eea24cbe66aece,610371865c71bc937b21ddf9,2021-07-30_00h07.37.431,Simcolourproject_2stim_asymm_v5,2020.2.10,Win32,60,61025ae37ef11b136ea224fe,,,,,,,,,1301,24,-76,1,0,0,response3disk,,4,-17,6,1,0,0,rectangle,-17,6,1,0,0,-17,6,1,0,0,1,14,174,128,1,,,,,,,,
,,,,,,,,,,,,,FF,,,,,,,,0.8831,,,,,,,,,,,,,,,,,,,,,,60fd054e01eea24cbe66aece,610371865c71bc937b21ddf9,2021-07-30_00h07.37.431,Simcolourproject_2stim_asymm_v5,2020.2.10,Win32,60,61025ae37ef11b136ea224fe,,,,,,,,,2929,54,-32,1,0,0,response3disk,,5,-3,-1,1,0,0,rectangle,-3,-1,1,0,0,-3,-1,1,0,0,1,15,175,122,1,,,,,,,,
,,,,,,,,,,,,,FF,,,,,,,,0.866,,,,,,,,,,,,,,,,,,,,,,60fd054e01eea24cbe66aece,610371865c71bc937b21ddf9,2021-07-30_00h07.37.431,Simcolourproject_2stim_asymm_v5,2020.2.10,Win32,60,61025ae37ef11b136ea224fe,,,,,,,,,2644,62,37,1,0,0,response1disk,,6,19,3,1,0,0,rectangle,19,3,1,0,0,19,3,1,0,0,1,16,176,146,1,,,,,,,,
,,,,,,,,,,,,,FF,,,,,,,,0.9492,,,,,,,,,,,,,,,,,,,,,,60fd054e01eea24cbe66aece,610371865c71bc937b21ddf9,2021-07-30_00h07.37.431,Simcolourproject_2stim_asymm_v5,2020.2.10,Win32,60,61025ae37ef11b136ea224fe,,,,,,,,,379,36,-64,1,0,0,response3disk,,4,-8,-7,1,0,0,rectangle,-8,-7,1,0,0,-8,-7,1,0,0,1,17,177,28,1,,,,,,,,
,,,,,,,,,,,,,FF,,,,,,,,0.7492,,,,,,,,,,,,,,,,,,,,,,60fd054e01eea24cbe66aece,610371865c71bc937b21ddf9,2021-07-30_00h07.37.431,Simcolourproject_2stim_asymm_v5,2020.2.10,Win32,60,61025ae37ef11b136ea224fe,,,,,,,,,3010,35,-50,1,0,0,response3disk,,4,15,-4,1,0,0,rectangle,15,-4,1,0,0,15,-4,1,0,0,1,18,178,152,1,,,,,,,,
,,,,,,,,,,,,,FF,,,,,,,,0.8835,,,,,,,,,,,,,,,,,,,,,,60fd054e01eea24cbe66aece,610371865c71bc937b21ddf9,2021-07-30_00h07.37.431,Simcolourproject_2stim_asymm_v5,2020.2.10,Win32,60,61025ae37ef11b136ea224fe,,,,,,,,,2083,48,-25,1,0,0,response3disk,,5,0,-1,1,0,0,rectangle,82,53,1,0,0,14,-9,1,0,0,1,19,179,31,1,,response1disk_3,TRUE,6,6,"[95,165,42,122,25,87,180,220,318,189,296,258,201,35,129,15,26,2,258,115]",1.0657,rectangle
,,,,,,,,,,,,,FF,,,,,,,,0.6161,,,,,,,,,,,,,,,,,,,,,,60fd054e01eea24cbe66aece,610371865c71bc937b21ddf9,2021-07-30_00h07.37.431,Simcolourproject_2stim_asymm_v5,2020.2.10,Win32,60,61025ae37ef11b136ea224fe,,,,,,,,,1281,84,39,1,0,0,response1disk,,6,-12,-4,1,0,0,rectangle,-12,-4,1,0,0,-12,-4,1,0,0,1,20,180,14,1,,,,,,,,
,,,,,,,,,,,,,FF,,,,,,,,1.0656,,,,,,,,,,,,,,,,,,,,,,60fd054e01eea24cbe66aece,610371865c71bc937b21ddf9,2021-07-30_00h07.37.431,Simcolourproject_2stim_asymm_v5,2020.2.10,Win32,60,61025ae37ef11b136ea224fe,,,,,,,,,3446,39,-70,1,0,0,response3disk,,4,11,-11,1,0,0,rectangle,11,-11,1,0,0,11,-11,1,0,0,1,21,181,37,1,,,,,,,,
,,,,,,,,,,,,,FF,,,,,,,,0.516,,,,,,,,,,,,,,,,,,,,,,60fd054e01eea24cbe66aece,610371865c71bc937b21ddf9,2021-07-30_00h07.37.431,Simcolourproject_2stim_asymm_v5,2020.2.10,Win32,60,61025ae37ef11b136ea224fe,,,,,,,,,2148,45,-26,1,0,0,response3disk,,5,9,10,1,0,0,rectangle,9,10,1,0,0,9,10,1,0,0,1,22,182,21,1,,,,,,,,
,,,,,,,,,,,,,FF,,,,,,,,0.7641,,,,,,,,,,,,,,,,,,,,,,60fd054e01eea24cbe66aece,610371865c71bc937b21ddf9,2021-07-30_00h07.37.431,Simcolourproject_2stim_asymm_v5,2020.2.10,Win32,60,61025ae37ef11b136ea224fe,,,,,,,,,4257,60,34,1,0,0,response1disk,,6,22,1,1,0,0,rectangle,22,1,1,0,0,22,1,1,0,0,1,23,183,135,1,,,,,,,,
,,,,,,,,,,,,,FF,,,,,,,,0.9823,,,,,,,,,,,,,,,,,,,,,,60fd054e01eea24cbe66aece,610371865c71bc937b21ddf9,2021-07-30_00h07.37.431,Simcolourproject_2stim_asymm_v5,2020.2.10,Win32,60,61025ae37ef11b136ea224fe,,,,,,,,,4367,-60,-30,1,0,0,response5disk,,2,-7,3,1,0,0,rectangle,-7,3,1,0,0,-7,3,1,0,0,1,24,184,72,1,,,,,,,,
,,,,,,,,,,,,,FF,,,,,,,,0.7989,,,,,,,,,,,,,,,,,,,,,,60fd054e01eea24cbe66aece,610371865c71bc937b21ddf9,2021-07-30_00h07.37.431,Simcolourproject_2stim_asymm_v5,2020.2.10,Win32,60,61025ae37ef11b136ea224fe,,,,,,,,,2475,45,-15,1,0,0,response3disk,,5,21,-4,1,0,0,rectangle,21,-4,1,0,0,21,-4,1,0,0,1,25,185,83,1,,,,,,,,
,,,,,,,,,,,,,FF,,,,,,,,0.5163,,,,,,,,,,,,,,,,,,,,,,60fd054e01eea24cbe66aece,610371865c71bc937b21ddf9,2021-07-30_00h07.37.431,Simcolourproject_2stim_asymm_v5,2020.2.10,Win32,60,61025ae37ef11b136ea224fe,,,,,,,,,505,45,27,1,0,0,response1disk,,6,12,-1,1,0,0,rectangle,12,-1,1,0,0,12,-1,1,0,0,1,26,186,48,1,,,,,,,,
,,,,,,,,,,,,,FF,,,,,,,,0.5644,,,,,,,,,,,,,,,,,,,,,,60fd054e01eea24cbe66aece,610371865c71bc937b21ddf9,2021-07-30_00h07.37.431,Simcolourproject_2stim_asymm_v5,2020.2.10,Win32,60,61025ae37ef11b136ea224fe,,,,,,,,,1365,49,-44,1,0,0,response3disk,,5,13,-8,1,0,0,rectangle,13,-8,1,0,0,13,-8,1,0,0,1,27,187,112,1,,,,,,,,
,,,,,,,,,,,,,FF,,,,,,,,0.8371,,,,,,,,,,,,,,,,,,,,,,60fd054e01eea24cbe66aece,610371865c71bc937b21ddf9,2021-07-30_00h07.37.431,Simcolourproject_2stim_asymm_v5,2020.2.10,Win32,60,61025ae37ef11b136ea224fe,,,,,,,,,3050,-34,-84,1,0,0,response5disk,,3,-13,-13,1,0,0,rectangle,-91,38,1,0,0,-3,-7,1,0,0,1,28,188,120,1,,response7disk_3,TRUE,1,1,"[95,165,42,122,25,87,180,220,318,189,296,258,201,35,129,15,26,2,258,115]",1.2655,rectangle
,,,,,,,,,,,,,FF,,,,,,,,0.9159,,,,,,,,,,,,,,,,,,,,,,60fd054e01eea24cbe66aece,610371865c71bc937b21ddf9,2021-07-30_00h07.37.431,Simcolourproject_2stim_asymm_v5,2020.2.10,Win32,60,61025ae37ef11b136ea224fe,,,,,,,,,1861,52,-39,1,0,0,response3disk,,5,4,-6,1,0,0,rectangle,4,-6,1,0,0,4,-6,1,0,0,1,29,189,98,1,,,,,,,,
,,,,,,,,,,,,,FF,,,,,,,,1.016,,,,,,,,,,,,,,,,,,,,,,60fd054e01eea24cbe66aece,610371865c71bc937b21ddf9,2021-07-30_00h07.37.431,Simcolourproject_2stim_asymm_v5,2020.2.10,Win32,60,61025ae37ef11b136ea224fe,,,,,,,,,1532,-25,-69,1,0,0,response5disk,,3,1,-5,1,0,0,rectangle,1,-5,1,0,0,1,-5,1,0,0,1,30,190,17,1,,,,,,,,
,,,,,,,,,,,,,FF,,,,,,,,0.7663,,,,,,,,,,,,,,,,,,,,,,60fd054e01eea24cbe66aece,610371865c71bc937b21ddf9,2021-07-30_00h07.37.431,Simcolourproject_2stim_asymm_v5,2020.2.10,Win32,60,61025ae37ef11b136ea224fe,,,,,,,,,4236,-79,-31,1,0,0,response5disk,,2,-10,7,1,0,0,rectangle,-10,7,1,0,0,-10,7,1,0,0,1,31,191,79,1,,,,,,,,
,,,,,,,,,,,,,FF,,,,,,,,0.8164,,,,,,,,,,,,,,,,,,,,,,60fd054e01eea24cbe66aece,610371865c71bc937b21ddf9,2021-07-30_00h07.37.431,Simcolourproject_2stim_asymm_v5,2020.2.10,Win32,60,61025ae37ef11b136ea224fe,,,,,,,,,2511,28,-56,1,0,0,response3disk,,4,3,-5,1,0,0,rectangle,3,-5,1,0,0,3,-5,1,0,0,1,32,192,67,1,,,,,,,,
,,,,,,,,,,,,,FF,,,,,,,,0.9166,,,,,,,,,,,,,,,,,,,,,,60fd054e01eea24cbe66aece,610371865c71bc937b21ddf9,2021-07-30_00h07.37.431,Simcolourproject_2stim_asymm_v5,2020.2.10,Win32,60,61025ae37ef11b136ea224fe,,,,,,,,,2603,-56,-82,1,0,0,response5disk,,3,-13,6,1,0,0,rectangle,-13,6,1,0,0,-13,6,1,0,0,1,33,193,90,1,,,,,,,,
,,,,,,,,,,,,,FF,,,,,,,,0.8492,,,,,,,,,,,,,,,,,,,,,,60fd054e01eea24cbe66aece,610371865c71bc937b21ddf9,2021-07-30_00h07.37.431,Simcolourproject_2stim_asymm_v5,2020.2.10,Win32,60,61025ae37ef11b136ea224fe,,,,,,,,,3889,-28,-71,1,0,0,response5disk,,3,18,-2,1,0,0,rectangle,18,-2,1,0,0,18,-2,1,0,0,1,34,194,132,1,,,,,,,,
,,,,,,,,,,,,,FF,,,,,,,,1.0334,,,,,,,,,,,,,,,,,,,,,,60fd054e01eea24cbe66aece,610371865c71bc937b21ddf9,2021-07-30_00h07.37.431,Simcolourproject_2stim_asymm_v5,2020.2.10,Win32,60,61025ae37ef11b136ea224fe,,,,,,,,,3244,-56,27,1,0,0,response7disk,,1,-5,-10,1,0,0,rectangle,-5,-10,1,0,0,-5,-10,1,0,0,1,35,195,34,1,,,,,,,,
,,,,,,,,,,,,,FF,,,,,,,,0.8166,,,,,,,,,,,,,,,,,,,,,,60fd054e01eea24cbe66aece,610371865c71bc937b21ddf9,2021-07-30_00h07.37.431,Simcolourproject_2stim_asymm_v5,2020.2.10,Win32,60,61025ae37ef11b136ea224fe,,,,,,,,,1651,71,17,1,0,0,response1disk,,6,6,4,1,0,0,rectangle,6,4,1,0,0,6,4,1,0,0,1,36,196,43,1,,,,,,,,
,,,,,,,,,,,,,FF,,,,,,,,0.8839,,,,,,,,,,,,,,,,,,,,,,60fd054e01eea24cbe66aece,610371865c71bc937b21ddf9,2021-07-30_00h07.37.431,Simcolourproject_2stim_asymm_v5,2020.2.10,Win32,60,61025ae37ef11b136ea224fe,,,,,,,,,3965,-71,48,1,0,0,response7disk,,1,24,-18,1,0,0,rectangle,24,-18,1,0,0,24,-18,1,0,0,1,37,197,13,1,,,,,,,,
,,,,,,,,,,,,,FF,,,,,,,,0.8403,,,,,,,,,,,,,,,,,,,,,,60fd054e01eea24cbe66aece,610371865c71bc937b21ddf9,2021-07-30_00h07.37.431,Simcolourproject_2stim_asymm_v5,2020.2.10,Win32,60,61025ae37ef11b136ea224fe,,,,,,,,,1658,-71,-42,1,0,0,response5disk,,2,-22,0,1,0,0,rectangle,-22,0,1,0,0,-22,0,1,0,0,1,38,198,117,1,,,,,,,,
,,,,,,,,,,,,,FF,,,,,,,,0.5695,,,,,,,,,,,,,,,,,,,,,,60fd054e01eea24cbe66aece,610371865c71bc937b21ddf9,2021-07-30_00h07.37.431,Simcolourproject_2stim_asymm_v5,2020.2.10,Win32,60,61025ae37ef11b136ea224fe,,,,,,,,,1137,-78,-46,1,0,0,response5disk,,2,3,-2,1,0,0,rectangle,3,-2,1,0,0,3,-2,1,0,0,1,39,199,32,1,,,,,,,,
,,,,,,,,,,,,,FF,,,,,,,,0.637,,,,,,,,,,,,,,,,,,,,,,60fd054e01eea24cbe66aece,610371865c71bc937b21ddf9,2021-07-30_00h07.37.431,Simcolourproject_2stim_asymm_v5,2020.2.10,Win32,60,61025ae37ef11b136ea224fe,,,,,,,,,1326,39,-33,1,0,0,response3disk,,5,5,11,1,0,0,rectangle,92,56,1,0,0,-6,-5,1,0,0,1,40,200,36,1,,response1disk_3,TRUE,6,6,"[95,165,42,122,25,87,180,220,318,189,296,258,201,35,129,15,26,2,258,115]",1.0344,rectangle
,,,,,,,,,,,,,FF,,,,,,,,1.1855,,,,,,,,,,,,,,,,,,,,,,60fd054e01eea24cbe66aece,610371865c71bc937b21ddf9,2021-07-30_00h07.37.431,Simcolourproject_2stim_asymm_v5,2020.2.10,Win32,60,61025ae37ef11b136ea224fe,,,,,,,,,3091,-39,-73,1,0,0,response5disk,,3,1,-8,1,0,0,rectangle,1,-8,1,0,0,1,-8,1,0,0,1,41,201,81,1,,,,,,,,
,,,,,,,,,,,,,FF,,,,,,,,0.7254,,,,,,,,,,,,,,,,,,,,,,60fd054e01eea24cbe66aece,610371865c71bc937b21ddf9,2021-07-30_00h07.37.431,Simcolourproject_2stim_asymm_v5,2020.2.10,Win32,60,61025ae37ef11b136ea224fe,,,,,,,,,1991,45,-69,1,0,0,response3disk,,4,10,-7,1,0,0,rectangle,10,-7,1,0,0,10,-7,1,0,0,1,42,202,45,1,,,,,,,,
,,,,,,,,,,,,,FF,,,,,,,,0.5828,,,,,,,,,,,,,,,,,,,,,,60fd054e01eea24cbe66aece,610371865c71bc937b21ddf9,2021-07-30_00h07.37.431,Simcolourproject_2stim_asymm_v5,2020.2.10,Win32,60,61025ae37ef11b136ea224fe,,,,,,,,,247,63,-30,1,0,0,response3disk,,5,6,5,1,0,0,rectangle,6,5,1,0,0,6,5,1,0,0,1,43,203,44,1,,,,,,,,
,,,,,,,,,,,,,FF,,,,,,,,0.5494,,,,,,,,,,,,,,,,,,,,,,60fd054e01eea24cbe66aece,610371865c71bc937b21ddf9,2021-07-30_00h07.37.431,Simcolourproject_2stim_asymm_v5,2020.2.10,Win32,60,61025ae37ef11b136ea224fe,,,,,,,,,2814,43,-32,1,0,0,response3disk,,5,-5,4,1,0,0,rectangle,-5,4,1,0,0,-5,4,1,0,0,1,44,204,33,1,,,,,,,,
,,,,,,,,,,,,,FF,,,,,,,,0.5106,,,,,,,,,,,,,,,,,,,,,,60fd054e01eea24cbe66aece,610371865c71bc937b21ddf9,2021-07-30_00h07.37.431,Simcolourproject_2stim_asymm_v5,2020.2.10,Win32,60,61025ae37ef11b136ea224fe,,,,,,,,,2119,49,-32,1,0,0,response3disk,,5,-10,17,1,0,0,rectangle,-10,17,1,0,0,-10,17,1,0,0,1,45,205,52,1,,,,,,,,
,,,,,,,,,,,,,FF,,,,,,,,2.0809,,,,,,,,,,,,,,,,,,,,,,60fd054e01eea24cbe66aece,610371865c71bc937b21ddf9,2021-07-30_00h07.37.431,Simcolourproject_2stim_asymm_v5,2020.2.10,Win32,60,61025ae37ef11b136ea224fe,,,,,,,,,2655,25,-61,1,0,0,response3disk,,4,6,-12,1,0,0,rectangle,6,-12,1,0,0,6,-12,1,0,0,1,46,206,62,1,,,,,,,,
,,,,,,,,,,,,,FF,,,,,,,,0.6989,,,,,,,,,,,,,,,,,,,,,,60fd054e01eea24cbe66aece,610371865c71bc937b21ddf9,2021-07-30_00h07.37.431,Simcolourproject_2stim_asymm_v5,2020.2.10,Win32,60,61025ae37ef11b136ea224fe,,,,,,,,,3930,46,-77,1,0,0,response3disk,,4,-5,1,1,0,0,rectangle,-5,1,1,0,0,-5,1,1,0,0,1,47,207,111,1,,,,,,,,
,,,,,,,,,,,,,FF,,,,,,,,5.6031,,,,,,,,,,,,,,,,,,,,,,60fd054e01eea24cbe66aece,610371865c71bc937b21ddf9,2021-07-30_00h07.37.431,Simcolourproject_2stim_asymm_v5,2020.2.10,Win32,60,61025ae37ef11b136ea224fe,,,,,,,,,13,23,-64,1,0,0,response3disk,,4,8,4,1,0,0,rectangle,8,4,1,0,0,8,4,1,0,0,1,48,208,89,1,,,,,,,,
,,,,,,,,,,,,,FF,,,,,,,,0.7845,,,,,,,,,,,,,,,,,,,,,,60fd054e01eea24cbe66aece,610371865c71bc937b21ddf9,2021-07-30_00h07.37.431,Simcolourproject_2stim_asymm_v5,2020.2.10,Win32,60,61025ae37ef11b136ea224fe,,,,,,,,,3915,-29,-89,1,0,0,response5disk,,3,2,-18,1,0,0,rectangle,2,-18,1,0,0,2,-18,1,0,0,1,49,209,6,1,,,,,,,,
,,,,,,,,,,,,,FF,,,,,,,,0.9358,,,,,,,,,,,,,,,,,,,,,,60fd054e01eea24cbe66aece,610371865c71bc937b21ddf9,2021-07-30_00h07.37.431,Simcolourproject_2stim_asymm_v5,2020.2.10,Win32,60,61025ae37ef11b136ea224fe,,,,,,,,,1963,-86,64,1,0,0,response7disk,,1,-2,-10,1,0,0,rectangle,-2,-10,1,0,0,-2,-10,1,0,0,1,50,210,154,1,,,,,,,,
,,,,,,,,,,,,,FF,,,,,,,,0.8492,,,,,,,,,,,,,,,,,,,,,,60fd054e01eea24cbe66aece,610371865c71bc937b21ddf9,2021-07-30_00h07.37.431,Simcolourproject_2stim_asymm_v5,2020.2.10,Win32,60,61025ae37ef11b136ea224fe,,,,,,,,,2816,74,36,1,0,0,response1disk,,6,-14,-10,1,0,0,rectangle,-14,-10,1,0,0,-14,-10,1,0,0,1,51,211,61,1,,,,,,,,
,,,,,,,,,,,,,FF,,,,,,,,0.9171,,,,,,,,,,,,,,,,,,,,,,60fd054e01eea24cbe66aece,610371865c71bc937b21ddf9,2021-07-30_00h07.37.431,Simcolourproject_2stim_asymm_v5,2020.2.10,Win32,60,61025ae37ef11b136ea224fe,,,,,,,,,11,75,-39,1,0,0,response3disk,,5,9,-19,1,0,0,rectangle,9,-19,1,0,0,9,-19,1,0,0,1,52,212,119,1,,,,,,,,
,,,,,,,,,,,,,FF,,,,,,,,0.9863,,,,,,,,,,,,,,,,,,,,,,60fd054e01eea24cbe66aece,610371865c71bc937b21ddf9,2021-07-30_00h07.37.431,Simcolourproject_2stim_asymm_v5,2020.2.10,Win32,60,61025ae37ef11b136ea224fe,,,,,,,,,415,56,23,1,0,0,response1disk,,6,13,3,1,0,0,rectangle,13,3,1,0,0,13,3,1,0,0,1,53,213,82,1,,,,,,,,
,,,,,,,,,,,,,FF,,,,,,,,0.7014,,,,,,,,,,,,,,,,,,,,,,60fd054e01eea24cbe66aece,610371865c71bc937b21ddf9,2021-07-30_00h07.37.431,Simcolourproject_2stim_asymm_v5,2020.2.10,Win32,60,61025ae37ef11b136ea224fe,,,,,,,,,1798,49,45,1,0,0,response1disk,,6,-5,1,1,0,0,rectangle,-5,1,1,0,0,-5,1,1,0,0,1,54,214,102,1,,,,,,,,
,,,,,,,,,,,,,FF,,,,,,,,0.714,,,,,,,,,,,,,,,,,,,,,,60fd054e01eea24cbe66aece,610371865c71bc937b21ddf9,2021-07-30_00h07.37.431,Simcolourproject_2stim_asymm_v5,2020.2.10,Win32,60,61025ae37ef11b136ea224fe,,,,,,,,,3496,55,34,1,0,0,response1disk,,6,1,-11,1,0,0,rectangle,1,-11,1,0,0,1,-11,1,0,0,1,55,215,99,1,,,,,,,,
,,,,,,,,,,,,,FF,,,,,,,,1.466,,,,,,,,,,,,,,,,,,,,,,60fd054e01eea24cbe66aece,610371865c71bc937b21ddf9,2021-07-30_00h07.37.431,Simcolourproject_2stim_asymm_v5,2020.2.10,Win32,60,61025ae37ef11b136ea224fe,,,,,,,,,4152,43,36,1,0,0,response1disk,,6,6,6,1,0,0,rectangle,6,6,1,0,0,6,6,1,0,0,1,56,216,121,1,,,,,,,,
,,,,,,,,,,,,,FF,,,,,,,,0.9824,,,,,,,,,,,,,,,,,,,,,,60fd054e01eea24cbe66aece,610371865c71bc937b21ddf9,2021-07-30_00h07.37.431,Simcolourproject_2stim_asymm_v5,2020.2.10,Win32,60,61025ae37ef11b136ea224fe,,,,,,,,,3870,54,-22,1,0,0,response3disk,,5,-6,-5,1,0,0,rectangle,-6,-5,1,0,0,-6,-5,1,0,0,1,57,217,0,1,,,,,,,,
,,,,,,,,,,,,,FF,,,,,,,,0.7929,,,,,,,,,,,,,,,,,,,,,,60fd054e01eea24cbe66aece,610371865c71bc937b21ddf9,2021-07-30_00h07.37.431,Simcolourproject_2stim_asymm_v5,2020.2.10,Win32,60,61025ae37ef11b136ea224fe,,,,,,,,,1824,-70,-37,1,0,0,response5disk,,2,5,0,1,0,0,rectangle,5,0,1,0,0,5,0,1,0,0,1,58,218,50,1,,,,,,,,
,,,,,,,,,,,,,FF,,,,,,,,3.0308,,,,,,,,,,,,,,,,,,,,,,60fd054e01eea24cbe66aece,610371865c71bc937b21ddf9,2021-07-30_00h07.37.431,Simcolourproject_2stim_asymm_v5,2020.2.10,Win32,60,61025ae37ef11b136ea224fe,,,,,,,,,905,-53,-32,1,0,0,response5disk,,2,-1,-19,1,0,0,rectangle,-84,50,1,0,0,16,-8,1,0,0,1,59,219,124,1,,response7disk_3,TRUE,1,1,"[95,165,42,122,25,87,180,220,318,189,296,258,201,35,129,15,26,2,258,115]",1.149,rectangle
,,,,,,,,,,,,,FF,,,,,,,,0.7328,,,,,,,,,,,,,,,,,,,,,,60fd054e01eea24cbe66aece,610371865c71bc937b21ddf9,2021-07-30_00h07.37.431,Simcolourproject_2stim_asymm_v5,2020.2.10,Win32,60,61025ae37ef11b136ea224fe,,,,,,,,,2671,-43,-58,1,0,0,response5disk,,3,-3,-4,1,0,0,rectangle,-3,-4,1,0,0,-3,-4,1,0,0,1,60,220,108,1,,,,,,,,
,,,,,,,,,,,,,FF,,,,,,,,0.949,,,,,,,,,,,,,,,,,,,,,,60fd054e01eea24cbe66aece,610371865c71bc937b21ddf9,2021-07-30_00h07.37.431,Simcolourproject_2stim_asymm_v5,2020.2.10,Win32,60,61025ae37ef11b136ea224fe,,,,,,,,,1362,49,45,1,0,0,response1disk,,6,16,-9,1,0,0,rectangle,16,-9,1,0,0,16,-9,1,0,0,1,61,221,126,1,,,,,,,,
,,,,,,,,,,,,,FF,,,,,,,,0.5676,,,,,,,,,,,,,,,,,,,,,,60fd054e01eea24cbe66aece,610371865c71bc937b21ddf9,2021-07-30_00h07.37.431,Simcolourproject_2stim_asymm_v5,2020.2.10,Win32,60,61025ae37ef11b136ea224fe,,,,,,,,,747,56,31,1,0,0,response1disk,,6,17,-1,1,0,0,rectangle,17,-1,1,0,0,17,-1,1,0,0,1,62,222,131,1,,,,,,,,
,,,,,,,,,,,,,FF,,,,,,,,1.1516,,,,,,,,,,,,,,,,,,,,,,60fd054e01eea24cbe66aece,610371865c71bc937b21ddf9,2021-07-30_00h07.37.431,Simcolourproject_2stim_asymm_v5,2020.2.10,Win32,60,61025ae37ef11b136ea224fe,,,,,,,,,608,60,-22,1,0,0,response3disk,,5,14,11,1,0,0,rectangle,14,11,1,0,0,14,11,1,0,0,1,63,223,25,1,,,,,,,,
,,,,,,,,,,,,,FF,,,,,,,,0.8678,,,,,,,,,,,,,,,,,,,,,,60fd054e01eea24cbe66aece,610371865c71bc937b21ddf9,2021-07-30_00h07.37.431,Simcolourproject_2stim_asymm_v5,2020.2.10,Win32,60,61025ae37ef11b136ea224fe,,,,,,,,,2126,54,36,1,0,0,response1disk,,6,7,1,1,0,0,rectangle,7,1,1,0,0,7,1,1,0,0,1,64,224,106,1,,,,,,,,
,,,,,,,,,,,,,FF,,,,,,,,0.7845,,,,,,,,,,,,,,,,,,,,,,60fd054e01eea24cbe66aece,610371865c71bc937b21ddf9,2021-07-30_00h07.37.431,Simcolourproject_2stim_asymm_v5,2020.2.10,Win32,60,61025ae37ef11b136ea224fe,,,,,,,,,1487,24,53,1,0,0,response1disk,,7,10,6,1,0,0,rectangle,10,6,1,0,0,10,6,1,0,0,1,65,225,65,1,,,,,,,,
,,,,,,,,,,,,,FF,,,,,,,,0.6692,,,,,,,,,,,,,,,,,,,,,,60fd054e01eea24cbe66aece,610371865c71bc937b21ddf9,2021-07-30_00h07.37.431,Simcolourproject_2stim_asymm_v5,2020.2.10,Win32,60,61025ae37ef11b136ea224fe,,,,,,,,,1363,63,28,1,0,0,response1disk,,6,8,-11,1,0,0,rectangle,8,-11,1,0,0,8,-11,1,0,0,1,66,226,58,1,,,,,,,,
,,,,,,,,,,,,,FF,,,,,,,,0.6492,,,,,,,,,,,,,,,,,,,,,,60fd054e01eea24cbe66aece,610371865c71bc937b21ddf9,2021-07-30_00h07.37.431,Simcolourproject_2stim_asymm_v5,2020.2.10,Win32,60,61025ae37ef11b136ea224fe,,,,,,,,,1994,61,34,1,0,0,response1disk,,6,0,-5,1,0,0,rectangle,0,-5,1,0,0,0,-5,1,0,0,1,67,227,125,1,,,,,,,,
,,,,,,,,,,,,,FF,,,,,,,,0.6493,,,,,,,,,,,,,,,,,,,,,,60fd054e01eea24cbe66aece,610371865c71bc937b21ddf9,2021-07-30_00h07.37.431,Simcolourproject_2stim_asymm_v5,2020.2.10,Win32,60,61025ae37ef11b136ea224fe,,,,,,,,,584,64,30,1,0,0,response1disk,,6,6,-3,1,0,0,rectangle,6,-3,1,0,0,6,-3,1,0,0,1,68,228,104,1,,,,,,,,
,,,,,,,,,,,,,FF,,,,,,,,0.5327,,,,,,,,,,,,,,,,,,,,,,60fd054e01eea24cbe66aece,610371865c71bc937b21ddf9,2021-07-30_00h07.37.431,Simcolourproject_2stim_asymm_v5,2020.2.10,Win32,60,61025ae37ef11b136ea224fe,,,,,,,,,1803,57,30,1,0,0,response1disk,,6,5,-8,1,0,0,rectangle,5,-8,1,0,0,5,-8,1,0,0,1,69,229,116,1,,,,,,,,
,,,,,,,,,,,,,FF,,,,,,,,1.3162,,,,,,,,,,,,,,,,,,,,,,60fd054e01eea24cbe66aece,610371865c71bc937b21ddf9,2021-07-30_00h07.37.431,Simcolourproject_2stim_asymm_v5,2020.2.10,Win32,60,61025ae37ef11b136ea224fe,,,,,,,,,4125,-36,-81,1,0,0,response5disk,,3,11,-4,1,0,0,rectangle,11,-4,1,0,0,11,-4,1,0,0,1,70,230,41,1,,,,,,,,
,,,,,,,,,,,,,FF,,,,,,,,2.2532,,,,,,,,,,,,,,,,,,,,,,60fd054e01eea24cbe66aece,610371865c71bc937b21ddf9,2021-07-30_00h07.37.431,Simcolourproject_2stim_asymm_v5,2020.2.10,Win32,60,61025ae37ef11b136ea224fe,,,,,,,,,564,-39,-66,1,0,0,response5disk,,3,4,-4,1,0,0,rectangle,4,-4,1,0,0,4,-4,1,0,0,1,71,231,53,1,,,,,,,,
,,,,,,,,,,,,,FF,,,,,,,,2.3031,,,,,,,,,,,,,,,,,,,,,,60fd054e01eea24cbe66aece,610371865c71bc937b21ddf9,2021-07-30_00h07.37.431,Simcolourproject_2stim_asymm_v5,2020.2.10,Win32,60,61025ae37ef11b136ea224fe,,,,,,,,,4304,35,-60,1,0,0,response3disk,,4,5,1,1,0,0,rectangle,5,1,1,0,0,5,1,1,0,0,1,72,232,115,1,,,,,,,,
,,,,,,,,,,,,,FF,,,,,,,,1.4515,,,,,,,,,,,,,,,,,,,,,,60fd054e01eea24cbe66aece,610371865c71bc937b21ddf9,2021-07-30_00h07.37.431,Simcolourproject_2stim_asymm_v5,2020.2.10,Win32,60,61025ae37ef11b136ea224fe,,,,,,,,,2170,-49,-93,1,0,0,response5disk,,3,5,3,1,0,0,rectangle,5,3,1,0,0,5,3,1,0,0,1,73,233,87,1,,,,,,,,
,,,,,,,,,,,,,FF,,,,,,,,1.1997,,,,,,,,,,,,,,,,,,,,,,60fd054e01eea24cbe66aece,610371865c71bc937b21ddf9,2021-07-30_00h07.37.431,Simcolourproject_2stim_asymm_v5,2020.2.10,Win32,60,61025ae37ef11b136ea224fe,,,,,,,,,1510,59,-26,1,0,0,response3disk,,5,9,-2,1,0,0,rectangle,9,-2,1,0,0,9,-2,1,0,0,1,74,234,69,1,,,,,,,,
,,,,,,,,,,,,,FF,,,,,,,,0.5664,,,,,,,,,,,,,,,,,,,,,,60fd054e01eea24cbe66aece,610371865c71bc937b21ddf9,2021-07-30_00h07.37.431,Simcolourproject_2stim_asymm_v5,2020.2.10,Win32,60,61025ae37ef11b136ea224fe,,,,,,,,,597,65,23,1,0,0,response1disk,,6,-1,-9,1,0,0,rectangle,-1,-9,1,0,0,-1,-9,1,0,0,1,75,235,142,1,,,,,,,,
,,,,,,,,,,,,,FF,,,,,,,,0.5163,,,,,,,,,,,,,,,,,,,,,,60fd054e01eea24cbe66aece,610371865c71bc937b21ddf9,2021-07-30_00h07.37.431,Simcolourproject_2stim_asymm_v5,2020.2.10,Win32,60,61025ae37ef11b136ea224fe,,,,,,,,,1727,65,27,1,0,0,response1disk,,6,2,-12,1,0,0,rectangle,2,-12,1,0,0,2,-12,1,0,0,1,76,236,56,1,,,,,,,,
,,,,,,,,,,,,,FF,,,,,,,,0.6662,,,,,,,,,,,,,,,,,,,,,,60fd054e01eea24cbe66aece,610371865c71bc937b21ddf9,2021-07-30_00h07.37.431,Simcolourproject_2stim_asymm_v5,2020.2.10,Win32,60,61025ae37ef11b136ea224fe,,,,,,,,,2213,56,43,1,0,0,response1disk,,6,-4,-13,1,0,0,rectangle,-4,-13,1,0,0,-4,-13,1,0,0,1,77,237,57,1,,,,,,,,
,,,,,,,,,,,,,FF,,,,,,,,1.6046,,,,,,,,,,,,,,,,,,,,,,60fd054e01eea24cbe66aece,610371865c71bc937b21ddf9,2021-07-30_00h07.37.431,Simcolourproject_2stim_asymm_v5,2020.2.10,Win32,60,61025ae37ef11b136ea224fe,,,,,,,,,3765,70,33,1,0,0,response1disk,,6,0,-17,1,0,0,rectangle,0,-17,1,0,0,0,-17,1,0,0,1,78,238,143,1,,,,,,,,
,,,,,,,,,,,,,FF,,,,,,,,1.0824,,,,,,,,,,,,,,,,,,,,,,60fd054e01eea24cbe66aece,610371865c71bc937b21ddf9,2021-07-30_00h07.37.431,Simcolourproject_2stim_asymm_v5,2020.2.10,Win32,60,61025ae37ef11b136ea224fe,,,,,,,,,2993,-80,29,1,0,0,response7disk,,1,-22,-15,1,0,0,rectangle,-22,-15,1,0,0,-22,-15,1,0,0,1,79,239,47,1,,,,,,,,
,,,,,,,,,,,,,FF,,,,,,,,0.5985,,,,,,,,,,,,,,,,,,,,,,60fd054e01eea24cbe66aece,610371865c71bc937b21ddf9,2021-07-30_00h07.37.431,Simcolourproject_2stim_asymm_v5,2020.2.10,Win32,60,61025ae37ef11b136ea224fe,,,,,,,,,3923,79,45,1,0,0,response1disk,,6,17,4,1,0,0,rectangle,17,4,1,0,0,17,4,1,0,0,1,80,240,68,1,,,,,,,,
,,,,,,,,,,,,,FF,,,,,,,,0.5334,,,,,,,,,,,,,,,,,,,,,,60fd054e01eea24cbe66aece,610371865c71bc937b21ddf9,2021-07-30_00h07.37.431,Simcolourproject_2stim_asymm_v5,2020.2.10,Win32,60,61025ae37ef11b136ea224fe,,,,,,,,,4167,61,38,1,0,0,response1disk,,6,-13,-12,1,0,0,rectangle,-13,-12,1,0,0,-13,-12,1,0,0,1,81,241,38,1,,,,,,,,
,,,,,,,,,,,,,FF,,,,,,,,0.8011,,,,,,,,,,,,,,,,,,,,,,60fd054e01eea24cbe66aece,610371865c71bc937b21ddf9,2021-07-30_00h07.37.431,Simcolourproject_2stim_asymm_v5,2020.2.10,Win32,60,61025ae37ef11b136ea224fe,,,,,,,,,1738,60,32,1,0,0,response1disk,,6,9,-14,1,0,0,rectangle,9,-14,1,0,0,9,-14,1,0,0,1,82,242,10,1,,,,,,,,
,,,,,,,,,,,,,FF,,,,,,,,0.6343,,,,,,,,,,,,,,,,,,,,,,60fd054e01eea24cbe66aece,610371865c71bc937b21ddf9,2021-07-30_00h07.37.431,Simcolourproject_2stim_asymm_v5,2020.2.10,Win32,60,61025ae37ef11b136ea224fe,,,,,,,,,2579,74,35,1,0,0,response1disk,,6,13,-3,1,0,0,rectangle,13,-3,1,0,0,13,-3,1,0,0,1,83,243,107,1,,,,,,,,
,,,,,,,,,,,,,FF,,,,,,,,1.4851,,,,,,,,,,,,,,,,,,,,,,60fd054e01eea24cbe66aece,610371865c71bc937b21ddf9,2021-07-30_00h07.37.431,Simcolourproject_2stim_asymm_v5,2020.2.10,Win32,60,61025ae37ef11b136ea224fe,,,,,,,,,1724,29,-47,1,0,0,response3disk,,4,12,-1,1,0,0,rectangle,12,-1,1,0,0,12,-1,1,0,0,1,84,244,7,1,,,,,,,,
,,,,,,,,,,,,,FF,,,,,,,,0.75,,,,,,,,,,,,,,,,,,,,,,60fd054e01eea24cbe66aece,610371865c71bc937b21ddf9,2021-07-30_00h07.37.431,Simcolourproject_2stim_asymm_v5,2020.2.10,Win32,60,61025ae37ef11b136ea224fe,,,,,,,,,3630,-64,-30,1,0,0,response5disk,,2,-7,7,1,0,0,rectangle,-7,7,1,0,0,-7,7,1,0,0,1,85,245,147,1,,,,,,,,
,,,,,,,,,,,,,FF,,,,,,,,0.7507,,,,,,,,,,,,,,,,,,,,,,60fd054e01eea24cbe66aece,610371865c71bc937b21ddf9,2021-07-30_00h07.37.431,Simcolourproject_2stim_asymm_v5,2020.2.10,Win32,60,61025ae37ef11b136ea224fe,,,,,,,,,1923,64,-38,1,0,0,response3disk,,5,23,-8,1,0,0,rectangle,23,-8,1,0,0,23,-8,1,0,0,1,86,246,113,1,,,,,,,,
,,,,,,,,,,,,,FF,,,,,,,,1.102,,,,,,,,,,,,,,,,,,,,,,60fd054e01eea24cbe66aece,610371865c71bc937b21ddf9,2021-07-30_00h07.37.431,Simcolourproject_2stim_asymm_v5,2020.2.10,Win32,60,61025ae37ef11b136ea224fe,,,,,,,,,2231,79,-41,1,0,0,response3disk,,5,11,-10,1,0,0,rectangle,11,-10,1,0,0,11,-10,1,0,0,1,87,247,150,1,,,,,,,,
,,,,,,,,,,,,,FF,,,,,,,,0.6842,,,,,,,,,,,,,,,,,,,,,,60fd054e01eea24cbe66aece,610371865c71bc937b21ddf9,2021-07-30_00h07.37.431,Simcolourproject_2stim_asymm_v5,2020.2.10,Win32,60,61025ae37ef11b136ea224fe,,,,,,,,,1918,67,-30,1,0,0,response3disk,,5,7,9,1,0,0,rectangle,7,9,1,0,0,7,9,1,0,0,1,88,248,60,1,,,,,,,,
,,,,,,,,,,,,,FF,,,,,,,,1.5345,,,,,,,,,,,,,,,,,,,,,,60fd054e01eea24cbe66aece,610371865c71bc937b21ddf9,2021-07-30_00h07.37.431,Simcolourproject_2stim_asymm_v5,2020.2.10,Win32,60,61025ae37ef11b136ea224fe,,,,,,,,,547,-67,-44,1,0,0,response5disk,,2,24,-12,1,0,0,rectangle,24,-12,1,0,0,24,-12,1,0,0,1,89,249,105,1,,,,,,,,
,,,,,,,,,,,,,FF,,,,,,,,0.8852,,,,,,,,,,,,,,,,,,,,,,60fd054e01eea24cbe66aece,610371865c71bc937b21ddf9,2021-07-30_00h07.37.431,Simcolourproject_2stim_asymm_v5,2020.2.10,Win32,60,61025ae37ef11b136ea224fe,,,,,,,,,1228,-68,25,1,0,0,response7disk,,1,8,-1,1,0,0,rectangle,8,-1,1,0,0,8,-1,1,0,0,1,90,250,5,1,,,,,,,,
,,,,,,,,,,,,,FF,,,,,,,,0.8162,,,,,,,,,,,,,,,,,,,,,,60fd054e01eea24cbe66aece,610371865c71bc937b21ddf9,2021-07-30_00h07.37.431,Simcolourproject_2stim_asymm_v5,2020.2.10,Win32,60,61025ae37ef11b136ea224fe,,,,,,,,,3037,-59,40,1,0,0,response7disk,,1,-13,-2,1,0,0,rectangle,-13,-2,1,0,0,-13,-2,1,0,0,1,91,251,27,1,,,,,,,,
,,,,,,,,,,,,,FF,,,,,,,,1.3322,,,,,,,,,,,,,,,,,,,,,,60fd054e01eea24cbe66aece,610371865c71bc937b21ddf9,2021-07-30_00h07.37.431,Simcolourproject_2stim_asymm_v5,2020.2.10,Win32,60,61025ae37ef11b136ea224fe,,,,,,,,,4301,86,-48,1,0,0,response3disk,,5,12,-10,1,0,0,rectangle,12,-10,1,0,0,12,-10,1,0,0,1,92,252,158,1,,,,,,,,
,,,,,,,,,,,,,FF,,,,,,,,0.7381,,,,,,,,,,,,,,,,,,,,,,60fd054e01eea24cbe66aece,610371865c71bc937b21ddf9,2021-07-30_00h07.37.431,Simcolourproject_2stim_asymm_v5,2020.2.10,Win32,60,61025ae37ef11b136ea224fe,,,,,,,,,325,86,36,1,0,0,response1disk,,6,-2,-8,1,0,0,rectangle,-2,-8,1,0,0,-2,-8,1,0,0,1,93,253,144,1,,,,,,,,
,,,,,,,,,,,,,FF,,,,,,,,5.7618,,,,,,,,,,,,,,,,,,,,,,60fd054e01eea24cbe66aece,610371865c71bc937b21ddf9,2021-07-30_00h07.37.431,Simcolourproject_2stim_asymm_v5,2020.2.10,Win32,60,61025ae37ef11b136ea224fe,,,,,,,,,3832,58,-36,1,0,0,response3disk,,5,12,0,1,0,0,rectangle,12,0,1,0,0,12,0,1,0,0,1,94,254,22,1,,,,,,,,
,,,,,,,,,,,,,FF,,,,,,,,6.4779,,,,,,,,,,,,,,,,,,,,,,60fd054e01eea24cbe66aece,610371865c71bc937b21ddf9,2021-07-30_00h07.37.431,Simcolourproject_2stim_asymm_v5,2020.2.10,Win32,60,61025ae37ef11b136ea224fe,,,,,,,,,2862,58,-28,1,0,0,response3disk,,5,9,8,1,0,0,rectangle,9,8,1,0,0,9,8,1,0,0,1,95,255,134,1,,,,,,,,
,,,,,,,,,,,,,FF,,,,,,,,0.8411,,,,,,,,,,,,,,,,,,,,,,60fd054e01eea24cbe66aece,610371865c71bc937b21ddf9,2021-07-30_00h07.37.431,Simcolourproject_2stim_asymm_v5,2020.2.10,Win32,60,61025ae37ef11b136ea224fe,,,,,,,,,1545,26,-29,1,0,0,response3disk,,4,13,-4,1,0,0,rectangle,13,-4,1,0,0,13,-4,1,0,0,1,96,256,96,1,,,,,,,,
,,,,,,,,,,,,,FF,,,,,,,,0.6779,,,,,,,,,,,,,,,,,,,,,,60fd054e01eea24cbe66aece,610371865c71bc937b21ddf9,2021-07-30_00h07.37.431,Simcolourproject_2stim_asymm_v5,2020.2.10,Win32,60,61025ae37ef11b136ea224fe,,,,,,,,,3407,87,34,1,0,0,response1disk,,6,5,20,1,0,0,rectangle,97,68,1,0,0,-5,1,1,0,0,1,97,257,18,1,,response1disk_3,TRUE,6,6,"[95,165,42,122,25,87,180,220,318,189,296,258,201,35,129,15,26,2,258,115]",1.2647,rectangle
,,,,,,,,,,,,,FF,,,,,,,,0.7825,,,,,,,,,,,,,,,,,,,,,,60fd054e01eea24cbe66aece,610371865c71bc937b21ddf9,2021-07-30_00h07.37.431,Simcolourproject_2stim_asymm_v5,2020.2.10,Win32,60,61025ae37ef11b136ea224fe,,,,,,,,,896,20,-73,1,0,0,response3disk,,4,16,-2,1,0,0,rectangle,16,-2,1,0,0,16,-2,1,0,0,1,98,258,130,1,,,,,,,,
,,,,,,,,,,,,,FF,,,,,,,,0.8663,,,,,,,,,,,,,,,,,,,,,,60fd054e01eea24cbe66aece,610371865c71bc937b21ddf9,2021-07-30_00h07.37.431,Simcolourproject_2stim_asymm_v5,2020.2.10,Win32,60,61025ae37ef11b136ea224fe,,,,,,,,,3401,33,-65,1,0,0,response3disk,,4,23,2,1,0,0,rectangle,23,2,1,0,0,23,2,1,0,0,1,99,259,16,1,,,,,,,,
,,,,,,,,,,,,,FF,,,,,,,,1.5653,,,,,,,,,,,,,,,,,,,,,,60fd054e01eea24cbe66aece,610371865c71bc937b21ddf9,2021-07-30_00h07.37.431,Simcolourproject_2stim_asymm_v5,2020.2.10,Win32,60,61025ae37ef11b136ea224fe,,,,,,,,,2153,68,46,1,0,0,response1disk,,6,31,-5,1,0,0,rectangle,31,-5,1,0,0,31,-5,1,0,0,1,100,260,85,1,,,,,,,,
,,,,,,,,,,,,,FF,,,,,,,,0.8669,,,,,,,,,,,,,,,,,,,,,,60fd054e01eea24cbe66aece,610371865c71bc937b21ddf9,2021-07-30_00h07.37.431,Simcolourproject_2stim_asymm_v5,2020.2.10,Win32,60,61025ae37ef11b136ea224fe,,,,,,,,,2173,-20,-70,1,0,0,response5disk,,3,34,1,1,0,0,rectangle,34,1,1,0,0,34,1,1,0,0,1,101,261,80,1,,,,,,,,
,,,,,,,,,,,,,FF,,,,,,,,0.6677,,,,,,,,,,,,,,,,,,,,,,60fd054e01eea24cbe66aece,610371865c71bc937b21ddf9,2021-07-30_00h07.37.431,Simcolourproject_2stim_asymm_v5,2020.2.10,Win32,60,61025ae37ef11b136ea224fe,,,,,,,,,3910,-59,-71,1,0,0,response5disk,,3,2,0,1,0,0,rectangle,2,0,1,0,0,2,0,1,0,0,1,102,262,136,1,,,,,,,,
,,,,,,,,,,,,,FF,,,,,,,,0.6847,,,,,,,,,,,,,,,,,,,,,,60fd054e01eea24cbe66aece,610371865c71bc937b21ddf9,2021-07-30_00h07.37.431,Simcolourproject_2stim_asymm_v5,2020.2.10,Win32,60,61025ae37ef11b136ea224fe,,,,,,,,,45,30,-65,1,0,0,response3disk,,4,13,11,1,0,0,rectangle,13,11,1,0,0,13,11,1,0,0,1,103,263,157,1,,,,,,,,
,,,,,,,,,,,,,FF,,,,,,,,0.8515,,,,,,,,,,,,,,,,,,,,,,60fd054e01eea24cbe66aece,610371865c71bc937b21ddf9,2021-07-30_00h07.37.431,Simcolourproject_2stim_asymm_v5,2020.2.10,Win32,60,61025ae37ef11b136ea224fe,,,,,,,,,942,49,-35,1,0,0,response3disk,,5,19,0,1,0,0,rectangle,19,0,1,0,0,19,0,1,0,0,1,104,264,59,1,,,,,,,,
,,,,,,,,,,,,,FF,,,,,,,,1.0835,,,,,,,,,,,,,,,,,,,,,,60fd054e01eea24cbe66aece,610371865c71bc937b21ddf9,2021-07-30_00h07.37.431,Simcolourproject_2stim_asymm_v5,2020.2.10,Win32,60,61025ae37ef11b136ea224fe,,,,,,,,,1826,-48,-89,1,0,0,response5disk,,3,4,-4,1,0,0,rectangle,4,-4,1,0,0,4,-4,1,0,0,1,105,265,73,1,,,,,,,,
,,,,,,,,,,,,,FF,,,,,,,,1.0181,,,,,,,,,,,,,,,,,,,,,,60fd054e01eea24cbe66aece,610371865c71bc937b21ddf9,2021-07-30_00h07.37.431,Simcolourproject_2stim_asymm_v5,2020.2.10,Win32,60,61025ae37ef11b136ea224fe,,,,,,,,,4035,-37,-81,1,0,0,response5disk,,3,2,-11,1,0,0,rectangle,2,-11,1,0,0,2,-11,1,0,0,1,106,266,133,1,,,,,,,,
,,,,,,,,,,,,,FF,,,,,,,,0.6844,,,,,,,,,,,,,,,,,,,,,,60fd054e01eea24cbe66aece,610371865c71bc937b21ddf9,2021-07-30_00h07.37.431,Simcolourproject_2stim_asymm_v5,2020.2.10,Win32,60,61025ae37ef11b136ea224fe,,,,,,,,,3575,74,-43,1,0,0,response3disk,,5,18,1,1,0,0,rectangle,18,1,1,0,0,18,1,1,0,0,1,107,267,118,1,,,,,,,,
,,,,,,,,,,,,,FF,,,,,,,,0.8682,,,,,,,,,,,,,,,,,,,,,,60fd054e01eea24cbe66aece,610371865c71bc937b21ddf9,2021-07-30_00h07.37.431,Simcolourproject_2stim_asymm_v5,2020.2.10,Win32,60,61025ae37ef11b136ea224fe,,,,,,,,,2018,58,33,1,0,0,response1disk,,6,7,-1,1,0,0,rectangle,7,-1,1,0,0,7,-1,1,0,0,1,108,268,75,1,,,,,,,,
,,,,,,,,,,,,,FF,,,,,,,,2.7643,,,,,,,,,,,,,,,,,,,,,,60fd054e01eea24cbe66aece,610371865c71bc937b21ddf9,2021-07-30_00h07.37.431,Simcolourproject_2stim_asymm_v5,2020.2.10,Win32,60,61025ae37ef11b136ea224fe,,,,,,,,,3232,81,46,1,0,0,response1disk,,6,11,-6,1,0,0,rectangle,11,-6,1,0,0,11,-6,1,0,0,1,109,269,20,1,,,,,,,,
,,,,,,,,,,,,,FF,,,,,,,,1.8985,,,,,,,,,,,,,,,,,,,,,,60fd054e01eea24cbe66aece,610371865c71bc937b21ddf9,2021-07-30_00h07.37.431,Simcolourproject_2stim_asymm_v5,2020.2.10,Win32,60,61025ae37ef11b136ea224fe,,,,,,,,,4151,-25,-86,1,0,0,response5disk,,3,-2,-2,1,0,0,rectangle,-2,-2,1,0,0,-2,-2,1,0,0,1,110,270,123,1,,,,,,,,
,,,,,,,,,,,,,FF,,,,,,,,0.8975,,,,,,,,,,,,,,,,,,,,,,60fd054e01eea24cbe66aece,610371865c71bc937b21ddf9,2021-07-30_00h07.37.431,Simcolourproject_2stim_asymm_v5,2020.2.10,Win32,60,61025ae37ef11b136ea224fe,,,,,,,,,3290,-90,43,1,0,0,response7disk,,1,6,-12,1,0,0,rectangle,6,-12,1,0,0,6,-12,1,0,0,1,111,271,76,1,,,,,,,,
,,,,,,,,,,,,,FF,,,,,,,,33.0352,,,,,,,,,,,,,,,,,,,,,,60fd054e01eea24cbe66aece,610371865c71bc937b21ddf9,2021-07-30_00h07.37.431,Simcolourproject_2stim_asymm_v5,2020.2.10,Win32,60,61025ae37ef11b136ea224fe,,,,,,,,,735,29,-51,1,0,0,response3disk,,4,6,6,1,0,0,rectangle,6,6,1,0,0,6,6,1,0,0,1,112,272,49,1,,,,,,,,
,,,,,,,,,,,,,FF,,,,,,,,0.9659,,,,,,,,,,,,,,,,,,,,,,60fd054e01eea24cbe66aece,610371865c71bc937b21ddf9,2021-07-30_00h07.37.431,Simcolourproject_2stim_asymm_v5,2020.2.10,Win32,60,61025ae37ef11b136ea224fe,,,,,,,,,1735,-40,-79,1,0,0,response5disk,,3,0,5,1,0,0,rectangle,0,5,1,0,0,0,5,1,0,0,1,113,273,101,1,,,,,,,,
,,,,,,,,,,,,,FF,,,,,,,,0.7344,,,,,,,,,,,,,,,,,,,,,,60fd054e01eea24cbe66aece,610371865c71bc937b21ddf9,2021-07-30_00h07.37.431,Simcolourproject_2stim_asymm_v5,2020.2.10,Win32,60,61025ae37ef11b136ea224fe,,,,,,,,,4053,-41,-64,1,0,0,response5disk,,3,1,0,1,0,0,rectangle,1,0,1,0,0,1,0,1,0,0,1,114,274,64,1,,,,,,,,
,,,,,,,,,,,,,FF,,,,,,,,0.6166,,,,,,,,,,,,,,,,,,,,,,60fd054e01eea24cbe66aece,610371865c71bc937b21ddf9,2021-07-30_00h07.37.431,Simcolourproject_2stim_asymm_v5,2020.2.10,Win32,60,61025ae37ef11b136ea224fe,,,,,,,,,3220,58,-27,1,0,0,response3disk,,5,17,8,1,0,0,rectangle,17,8,1,0,0,17,8,1,0,0,1,115,275,66,1,,,,,,,,
,,,,,,,,,,,,,FF,,,,,,,,0.7021,,,,,,,,,,,,,,,,,,,,,,60fd054e01eea24cbe66aece,610371865c71bc937b21ddf9,2021-07-30_00h07.37.431,Simcolourproject_2stim_asymm_v5,2020.2.10,Win32,60,61025ae37ef11b136ea224fe,,,,,,,,,891,-47,-77,1,0,0,response5disk,,3,-8,-4,1,0,0,rectangle,-8,-4,1,0,0,-8,-4,1,0,0,1,116,276,19,1,,,,,,,,
,,,,,,,,,,,,,FF,,,,,,,,1.0009,,,,,,,,,,,,,,,,,,,,,,60fd054e01eea24cbe66aece,610371865c71bc937b21ddf9,2021-07-30_00h07.37.431,Simcolourproject_2stim_asymm_v5,2020.2.10,Win32,60,61025ae37ef11b136ea224fe,,,,,,,,,1028,69,25,1,0,0,response1disk,,6,27,7,1,0,0,rectangle,27,7,1,0,0,27,7,1,0,0,1,117,277,145,1,,,,,,,,
,,,,,,,,,,,,,FF,,,,,,,,0.616,,,,,,,,,,,,,,,,,,,,,,60fd054e01eea24cbe66aece,610371865c71bc937b21ddf9,2021-07-30_00h07.37.431,Simcolourproject_2stim_asymm_v5,2020.2.10,Win32,60,61025ae37ef11b136ea224fe,,,,,,,,,3753,46,-24,1,0,0,response3disk,,5,3,5,1,0,0,rectangle,3,5,1,0,0,3,5,1,0,0,1,118,278,149,1,,,,,,,,
,,,,,,,,,,,,,FF,,,,,,,,0.9883,,,,,,,,,,,,,,,,,,,,,,60fd054e01eea24cbe66aece,610371865c71bc937b21ddf9,2021-07-30_00h07.37.431,Simcolourproject_2stim_asymm_v5,2020.2.10,Win32,60,61025ae37ef11b136ea224fe,,,,,,,,,2954,-31,-82,1,0,0,response5disk,,3,-8,5,1,0,0,rectangle,-8,5,1,0,0,-8,5,1,0,0,1,119,279,55,1,,,,,,,,
,,,,,,,,,,,,,FF,,,,,,,,0.5562,,,,,,,,,,,,,,,,,,,,,,60fd054e01eea24cbe66aece,610371865c71bc937b21ddf9,2021-07-30_00h07.37.431,Simcolourproject_2stim_asymm_v5,2020.2.10,Win32,60,61025ae37ef11b136ea224fe,,,,,,,,,2823,-43,-73,1,0,0,response5disk,,3,-8,-2,1,0,0,rectangle,-8,-2,1,0,0,-8,-2,1,0,0,1,120,280,24,1,,,,,,,,
,,,,,,,,,,,,,FF,,,,,,,,0.7827,,,,,,,,,,,,,,,,,,,,,,60fd054e01eea24cbe66aece,610371865c71bc937b21ddf9,2021-07-30_00h07.37.431,Simcolourproject_2stim_asymm_v5,2020.2.10,Win32,60,61025ae37ef11b136ea224fe,,,,,,,,,3609,68,39,1,0,0,response1disk,,6,-7,-3,1,0,0,rectangle,-7,-3,1,0,0,-7,-3,1,0,0,1,121,281,4,1,,,,,,,,
,,,,,,,,,,,,,FF,,,,,,,,0.816,,,,,,,,,,,,,,,,,,,,,,60fd054e01eea24cbe66aece,610371865c71bc937b21ddf9,2021-07-30_00h07.37.431,Simcolourproject_2stim_asymm_v5,2020.2.10,Win32,60,61025ae37ef11b136ea224fe,,,,,,,,,2868,91,41,1,0,0,response1disk,,6,-16,0,1,0,0,rectangle,-16,0,1,0,0,-16,0,1,0,0,1,122,282,97,1,,,,,,,,
,,,,,,,,,,,,,FF,,,,,,,,2.4057,,,,,,,,,,,,,,,,,,,,,,60fd054e01eea24cbe66aece,610371865c71bc937b21ddf9,2021-07-30_00h07.37.431,Simcolourproject_2stim_asymm_v5,2020.2.10,Win32,60,61025ae37ef11b136ea224fe,,,,,,,,,967,63,43,1,0,0,response1disk,,6,19,2,1,0,0,rectangle,19,2,1,0,0,19,2,1,0,0,1,123,283,153,1,,,,,,,,
,,,,,,,,,,,,,FF,,,,,,,,0.7175,,,,,,,,,,,,,,,,,,,,,,60fd054e01eea24cbe66aece,610371865c71bc937b21ddf9,2021-07-30_00h07.37.431,Simcolourproject_2stim_asymm_v5,2020.2.10,Win32,60,61025ae37ef11b136ea224fe,,,,,,,,,863,61,29,1,0,0,response1disk,,6,6,-3,1,0,0,rectangle,6,-3,1,0,0,6,-3,1,0,0,1,124,284,137,1,,,,,,,,
,,,,,,,,,,,,,FF,,,,,,,,0.5843,,,,,,,,,,,,,,,,,,,,,,60fd054e01eea24cbe66aece,610371865c71bc937b21ddf9,2021-07-30_00h07.37.431,Simcolourproject_2stim_asymm_v5,2020.2.10,Win32,60,61025ae37ef11b136ea224fe,,,,,,,,,430,70,45,1,0,0,response1disk,,6,-4,0,1,0,0,rectangle,-4,0,1,0,0,-4,0,1,0,0,1,125,285,92,1,,,,,,,,
,,,,,,,,,,,,,FF,,,,,,,,1.099,,,,,,,,,,,,,,,,,,,,,,60fd054e01eea24cbe66aece,610371865c71bc937b21ddf9,2021-07-30_00h07.37.431,Simcolourproject_2stim_asymm_v5,2020.2.10,Win32,60,61025ae37ef11b136ea224fe,,,,,,,,,3976,45,-67,1,0,0,response3disk,,4,4,0,1,0,0,rectangle,4,0,1,0,0,4,0,1,0,0,1,126,286,91,1,,,,,,,,
,,,,,,,,,,,,,FF,,,,,,,,0.8178,,,,,,,,,,,,,,,,,,,,,,60fd054e01eea24cbe66aece,610371865c71bc937b21ddf9,2021-07-30_00h07.37.431,Simcolourproject_2stim_asymm_v5,2020.2.10,Win32,60,61025ae37ef11b136ea224fe,,,,,,,,,3062,59,-30,1,0,0,response3disk,,5,-17,-7,1,0,0,rectangle,-17,-7,1,0,0,-17,-7,1,0,0,1,127,287,77,1,,,,,,,,
,,,,,,,,,,,,,FF,,,,,,,,0.7848,,,,,,,,,,,,,,,,,,,,,,60fd054e01eea24cbe66aece,610371865c71bc937b21ddf9,2021-07-30_00h07.37.431,Simcolourproject_2stim_asymm_v5,2020.2.10,Win32,60,61025ae37ef11b136ea224fe,,,,,,,,,2706,53,41,1,0,0,response1disk,,6,22,-2,1,0,0,rectangle,22,-2,1,0,0,22,-2,1,0,0,1,128,288,39,1,,,,,,,,
,,,,,,,,,,,,,FF,,,,,,,,0.8683,,,,,,,,,,,,,,,,,,,,,,60fd054e01eea24cbe66aece,610371865c71bc937b21ddf9,2021-07-30_00h07.37.431,Simcolourproject_2stim_asymm_v5,2020.2.10,Win32,60,61025ae37ef11b136ea224fe,,,,,,,,,4297,59,21,1,0,0,response1disk,,6,20,3,1,0,0,rectangle,20,3,1,0,0,20,3,1,0,0,1,129,289,3,1,,,,,,,,
,,,,,,,,,,,,,FF,,,,,,,,0.6683,,,,,,,,,,,,,,,,,,,,,,60fd054e01eea24cbe66aece,610371865c71bc937b21ddf9,2021-07-30_00h07.37.431,Simcolourproject_2stim_asymm_v5,2020.2.10,Win32,60,61025ae37ef11b136ea224fe,,,,,,,,,3806,62,26,1,0,0,response1disk,,6,17,-13,1,0,0,rectangle,17,-13,1,0,0,17,-13,1,0,0,1,130,290,12,1,,,,,,,,
,,,,,,,,,,,,,FF,,,,,,,,0.6033,,,,,,,,,,,,,,,,,,,,,,60fd054e01eea24cbe66aece,610371865c71bc937b21ddf9,2021-07-30_00h07.37.431,Simcolourproject_2stim_asymm_v5,2020.2.10,Win32,60,61025ae37ef11b136ea224fe,,,,,,,,,69,110,51,1,0,0,response1disk,,6,8,-12,1,0,0,rectangle,8,-12,1,0,0,8,-12,1,0,0,1,131,291,127,1,,,,,,,,
,,,,,,,,,,,,,FF,,,,,,,,0.6835,,,,,,,,,,,,,,,,,,,,,,60fd054e01eea24cbe66aece,610371865c71bc937b21ddf9,2021-07-30_00h07.37.431,Simcolourproject_2stim_asymm_v5,2020.2.10,Win32,60,61025ae37ef11b136ea224fe,,,,,,,,,2251,55,27,1,0,0,response1disk,,6,20,-8,1,0,0,rectangle,20,-8,1,0,0,20,-8,1,0,0,1,132,292,110,1,,,,,,,,
,,,,,,,,,,,,,FF,,,,,,,,1.0012,,,,,,,,,,,,,,,,,,,,,,60fd054e01eea24cbe66aece,610371865c71bc937b21ddf9,2021-07-30_00h07.37.431,Simcolourproject_2stim_asymm_v5,2020.2.10,Win32,60,61025ae37ef11b136ea224fe,,,,,,,,,1520,49,66,1,0,0,response1disk,,7,4,12,1,0,0,rectangle,4,12,1,0,0,4,12,1,0,0,1,133,293,138,1,,,,,,,,
,,,,,,,,,,,,,FF,,,,,,,,1.2517,,,,,,,,,,,,,,,,,,,,,,60fd054e01eea24cbe66aece,610371865c71bc937b21ddf9,2021-07-30_00h07.37.431,Simcolourproject_2stim_asymm_v5,2020.2.10,Win32,60,61025ae37ef11b136ea224fe,,,,,,,,,2877,72,32,1,0,0,response1disk,,6,-17,-13,1,0,0,rectangle,-17,-13,1,0,0,-17,-13,1,0,0,1,134,294,2,1,,,,,,,,
,,,,,,,,,,,,,FF,,,,,,,,1.3862,,,,,,,,,,,,,,,,,,,,,,60fd054e01eea24cbe66aece,610371865c71bc937b21ddf9,2021-07-30_00h07.37.431,Simcolourproject_2stim_asymm_v5,2020.2.10,Win32,60,61025ae37ef11b136ea224fe,,,,,,,,,1872,69,-21,1,0,0,response3disk,,5,-4,-1,1,0,0,rectangle,97,-46,1,0,0,-25,10,1,0,0,1,135,295,159,1,,response3disk_3,TRUE,5,5,"[95,165,42,122,25,87,180,220,318,189,296,258,201,35,129,15,26,2,258,115]",1.252,rectangle
,,,,,,,,,,,,,FF,,,,,,,,0.7965,,,,,,,,,,,,,,,,,,,,,,60fd054e01eea24cbe66aece,610371865c71bc937b21ddf9,2021-07-30_00h07.37.431,Simcolourproject_2stim_asymm_v5,2020.2.10,Win32,60,61025ae37ef11b136ea224fe,,,,,,,,,2597,65,-29,1,0,0,response3disk,,5,7,6,1,0,0,rectangle,7,6,1,0,0,7,6,1,0,0,1,136,296,103,1,,,,,,,,
,,,,,,,,,,,,,FF,,,,,,,,0.6328,,,,,,,,,,,,,,,,,,,,,,60fd054e01eea24cbe66aece,610371865c71bc937b21ddf9,2021-07-30_00h07.37.431,Simcolourproject_2stim_asymm_v5,2020.2.10,Win32,60,61025ae37ef11b136ea224fe,,,,,,,,,3161,63,-29,1,0,0,response3disk,,5,-16,14,1,0,0,rectangle,-16,14,1,0,0,-16,14,1,0,0,1,137,297,93,1,,,,,,,,
,,,,,,,,,,,,,FF,,,,,,,,0.6177,,,,,,,,,,,,,,,,,,,,,,60fd054e01eea24cbe66aece,610371865c71bc937b21ddf9,2021-07-30_00h07.37.431,Simcolourproject_2stim_asymm_v5,2020.2.10,Win32,60,61025ae37ef11b136ea224fe,,,,,,,,,703,96,32,1,0,0,response1disk,,6,-5,9,1,0,0,rectangle,-5,9,1,0,0,-5,9,1,0,0,1,138,298,129,1,,,,,,,,
,,,,,,,,,,,,,FF,,,,,,,,1.0355,,,,,,,,,,,,,,,,,,,,,,60fd054e01eea24cbe66aece,610371865c71bc937b21ddf9,2021-07-30_00h07.37.431,Simcolourproject_2stim_asymm_v5,2020.2.10,Win32,60,61025ae37ef11b136ea224fe,,,,,,,,,3373,-74,-44,1,0,0,response5disk,,2,18,4,1,0,0,rectangle,18,4,1,0,0,18,4,1,0,0,1,139,299,71,1,,,,,,,,
,,,,,,,,,,,,,FF,,,,,,,,0.5001,,,,,,,,,,,,,,,,,,,,,,60fd054e01eea24cbe66aece,610371865c71bc937b21ddf9,2021-07-30_00h07.37.431,Simcolourproject_2stim_asymm_v5,2020.2.10,Win32,60,61025ae37ef11b136ea224fe,,,,,,,,,1355,82,36,1,0,0,response1disk,,6,24,2,1,0,0,rectangle,24,2,1,0,0,24,2,1,0,0,1,140,300,84,1,,,,,,,,
,,,,,,,,,,,,,FF,,,,,,,,0.5661,,,,,,,,,,,,,,,,,,,,,,60fd054e01eea24cbe66aece,610371865c71bc937b21ddf9,2021-07-30_00h07.37.431,Simcolourproject_2stim_asymm_v5,2020.2.10,Win32,60,61025ae37ef11b136ea224fe,,,,,,,,,1224,48,31,1,0,0,response1disk,,6,5,-16,1,0,0,rectangle,5,-16,1,0,0,5,-16,1,0,0,1,141,301,54,1,,,,,,,,
,,,,,,,,,,,,,FF,,,,,,,,0.7028,,,,,,,,,,,,,,,,,,,,,,60fd054e01eea24cbe66aece,610371865c71bc937b21ddf9,2021-07-30_00h07.37.431,Simcolourproject_2stim_asymm_v5,2020.2.10,Win32,60,61025ae37ef11b136ea224fe,,,,,,,,,2557,57,33,1,0,0,response1disk,,6,17,12,1,0,0,rectangle,17,12,1,0,0,17,12,1,0,0,1,142,302,109,1,,,,,,,,
